key_resp.keys,key_resp.rt,key_resp_14.keys,key_resp_14.rt,key_resp_15.keys,key_resp_15.rt,key_resp_17.keys,key_resp_17.rt,key_resp_9.keys,key_resp_9.rt,key_resp_10.keys,key_resp_10.rt,practice_comparison,Ecc,mouse_5.x,mouse_5.y,mouse_5.leftButton,mouse_5.midButton,mouse_5.rightButton,mouse_5.clicked_name,pracsimilarity,response_time,mouse_10.x,mouse_10.y,mouse_10.leftButton,mouse_10.midButton,mouse_10.rightButton,mouse_10.clicked_name,mouse_7.x,mouse_7.y,mouse_7.leftButton,mouse_7.midButton,mouse_7.rightButton,mouse_6.x,mouse_6.y,mouse_6.leftButton,mouse_6.midButton,mouse_6.rightButton,duringprac.thisRepN,duringprac.thisTrialN,duringprac.thisN,duringprac.thisIndex,duringprac.ran,participant,session,date,expName,psychopyVersion,OS,frameRate,study_id,mouse_7.clicked_name,catchpracsimilarity,catch_response_time,catchnumberprac,catchtrialorderprac,mouse_6.clicked_name,key_resp_22.keys,key_resp_22.rt,realcomparison,mouse.x,mouse.y,mouse.leftButton,mouse.midButton,mouse.rightButton,mouse.clicked_name,Colour2,similarity,mouse_2.x,mouse_2.y,mouse_2.leftButton,mouse_2.midButton,mouse_2.rightButton,mouse_2.clicked_name,mouse_3.x,mouse_3.y,mouse_3.leftButton,mouse_3.midButton,mouse_3.rightButton,mouse_11.x,mouse_11.y,mouse_11.leftButton,mouse_11.midButton,mouse_11.rightButton,trials_2.thisRepN,trials_2.thisTrialN,trials_2.thisN,trials_2.thisIndex,trials_2.ran,Colour1,mouse_3.clicked_name,catchornah,catchsimilarity,catchnumber,catchtrialorder,catchRT,mouse_11.clicked_name
space,4.5,space,18.293,space,60.464,space,14.485,space,4.286,space,7.997,130,FF,43,100,1,0,0,response1disk_5,7,98.845,10,1,1,0,0,rectangle_8,10,1,1,0,0,10,1,1,0,0,0,0,0,0,1,61003a57b29e11c1531ed75f,61037629a452c5827585ee67,2021-07-29_21h27.05.548,Simcolourproject_2stim_asymm_v5,2020.2.10,Win32,60,61025ae37ef11b136ea224fe,,,,,,,,,,,,,,,,,,,,,,,,,,,,,,,,,,,,,,,,,,,,,,
,,,,,,,,,,,,14,PF,43,85,1,0,0,response1disk_5,7,5.667,0,7,1,0,0,rectangle_8,70,33,1,0,0,20,-3,1,0,0,0,1,1,2,1,61003a57b29e11c1531ed75f,61037629a452c5827585ee67,2021-07-29_21h27.05.548,Simcolourproject_2stim_asymm_v5,2020.2.10,Win32,60,61025ae37ef11b136ea224fe,response1disk_7,6,10.766,6,"[2,5]",rectangle_4,,,,,,,,,,,,,,,,,,,,,,,,,,,,,,,,,,,,,,,,
,,,,,,,,,,,,28,PF,31,62,1,0,0,response1disk_5,7,8.999,3,8,1,0,0,rectangle_8,3,8,1,0,0,3,8,1,0,0,0,2,2,1,1,61003a57b29e11c1531ed75f,61037629a452c5827585ee67,2021-07-29_21h27.05.548,Simcolourproject_2stim_asymm_v5,2020.2.10,Win32,60,61025ae37ef11b136ea224fe,,,,,,,,,,,,,,,,,,,,,,,,,,,,,,,,,,,,,,,,,,,,,,
,,,,,,,,,,,,78,FF,-28,76,1,0,0,response7disk_5,0,4.867,-5,8,1,0,0,rectangle_8,-5,8,1,0,0,-5,8,1,0,0,0,3,3,3,1,61003a57b29e11c1531ed75f,61037629a452c5827585ee67,2021-07-29_21h27.05.548,Simcolourproject_2stim_asymm_v5,2020.2.10,Win32,60,61025ae37ef11b136ea224fe,,,,,,,,,,,,,,,,,,,,,,,,,,,,,,,,,,,,,,,,,,,,,,
,,,,,,,,,,,,78,PF,-28,67,1,0,0,response7disk_5,0,1.783,-2,-11,1,0,0,rectangle_8,72,27,1,0,0,19,6,1,0,0,0,4,4,4,1,61003a57b29e11c1531ed75f,61037629a452c5827585ee67,2021-07-29_21h27.05.548,Simcolourproject_2stim_asymm_v5,2020.2.10,Win32,60,61025ae37ef11b136ea224fe,response1disk_7,6,3.5,6,"[2,5]",rectangle_4,,,,,,,,,,,,,,,,,,,,,,,,,,,,,,,,,,,,,,,,
,,,,,,,,,,,,93,FF,-33,76,1,0,0,response7disk_5,0,3.716,2,8,1,0,0,rectangle_8,2,8,1,0,0,2,8,1,0,0,0,5,5,5,1,61003a57b29e11c1531ed75f,61037629a452c5827585ee67,2021-07-29_21h27.05.548,Simcolourproject_2stim_asymm_v5,2020.2.10,Win32,60,61025ae37ef11b136ea224fe,,,,,,,,,,,,,,,,,,,,,,,,,,,,,,,,,,,,,,,,,,,,,,
,,,,,,,,,,,,151,PF,22,70,1,0,0,response1disk_5,7,2.432,3,12,1,0,0,rectangle_8,3,12,1,0,0,3,12,1,0,0,0,6,6,6,1,61003a57b29e11c1531ed75f,61037629a452c5827585ee67,2021-07-29_21h27.05.548,Simcolourproject_2stim_asymm_v5,2020.2.10,Win32,60,61025ae37ef11b136ea224fe,,,,,,,,,,,,,,,,,,,,,,,,,,,,,,,,,,,,,,,,,,,,,,
,,,,,,,,,,,,,FF,,,,,,,,2.05,,,,,,,,,,,,,,,,,,,,,,61003a57b29e11c1531ed75f,61037629a452c5827585ee67,2021-07-29_21h27.05.548,Simcolourproject_2stim_asymm_v5,2020.2.10,Win32,60,61025ae37ef11b136ea224fe,,,,,,,space,5.414,3034,24,70,1,0,0,response1disk,,7,12,6,1,0,0,rectangle,12,6,1,0,0,12,6,1,0,0,0,0,0,114,1,,,,,,,,
,,,,,,,,,,,,,FF,,,,,,,,2.517,,,,,,,,,,,,,,,,,,,,,,61003a57b29e11c1531ed75f,61037629a452c5827585ee67,2021-07-29_21h27.05.548,Simcolourproject_2stim_asymm_v5,2020.2.10,Win32,60,61025ae37ef11b136ea224fe,,,,,,,,,3975,-27,68,1,0,0,response7disk,,0,-2,2,1,0,0,rectangle,-2,2,1,0,0,-2,2,1,0,0,0,1,1,58,1,,,,,,,,
,,,,,,,,,,,,,FF,,,,,,,,2.7,,,,,,,,,,,,,,,,,,,,,,61003a57b29e11c1531ed75f,61037629a452c5827585ee67,2021-07-29_21h27.05.548,Simcolourproject_2stim_asymm_v5,2020.2.10,Win32,60,61025ae37ef11b136ea224fe,,,,,,,,,3786,-52,80,1,0,0,response7disk,,0,-6,6,1,0,0,rectangle,-6,6,1,0,0,-6,6,1,0,0,0,2,2,70,1,,,,,,,,
,,,,,,,,,,,,,FF,,,,,,,,1.866,,,,,,,,,,,,,,,,,,,,,,61003a57b29e11c1531ed75f,61037629a452c5827585ee67,2021-07-29_21h27.05.548,Simcolourproject_2stim_asymm_v5,2020.2.10,Win32,60,61025ae37ef11b136ea224fe,,,,,,,,,861,44,71,1,0,0,response1disk,,7,2,2,1,0,0,rectangle,2,2,1,0,0,2,2,1,0,0,0,3,3,123,1,,,,,,,,
,,,,,,,,,,,,,FF,,,,,,,,1.917,,,,,,,,,,,,,,,,,,,,,,61003a57b29e11c1531ed75f,61037629a452c5827585ee67,2021-07-29_21h27.05.548,Simcolourproject_2stim_asymm_v5,2020.2.10,Win32,60,61025ae37ef11b136ea224fe,,,,,,,,,1874,38,51,1,0,0,response1disk,,7,2,5,1,0,0,rectangle,2,5,1,0,0,2,5,1,0,0,0,4,4,94,1,,,,,,,,
,,,,,,,,,,,,,FF,,,,,,,,2,,,,,,,,,,,,,,,,,,,,,,61003a57b29e11c1531ed75f,61037629a452c5827585ee67,2021-07-29_21h27.05.548,Simcolourproject_2stim_asymm_v5,2020.2.10,Win32,60,61025ae37ef11b136ea224fe,,,,,,,,,970,-46,76,1,0,0,response7disk,,0,-5,8,1,0,0,rectangle,-5,8,1,0,0,-5,8,1,0,0,0,5,5,30,1,,,,,,,,
,,,,,,,,,,,,,FF,,,,,,,,2.132,,,,,,,,,,,,,,,,,,,,,,61003a57b29e11c1531ed75f,61037629a452c5827585ee67,2021-07-29_21h27.05.548,Simcolourproject_2stim_asymm_v5,2020.2.10,Win32,60,61025ae37ef11b136ea224fe,,,,,,,,,762,22,54,1,0,0,response1disk,,7,-1,-4,1,0,0,rectangle,-1,-4,1,0,0,-1,-4,1,0,0,0,6,6,132,1,,,,,,,,
,,,,,,,,,,,,,FF,,,,,,,,2.417,,,,,,,,,,,,,,,,,,,,,,61003a57b29e11c1531ed75f,61037629a452c5827585ee67,2021-07-29_21h27.05.548,Simcolourproject_2stim_asymm_v5,2020.2.10,Win32,60,61025ae37ef11b136ea224fe,,,,,,,,,1129,-34,56,1,0,0,response7disk,,0,-11,7,1,0,0,rectangle,-11,7,1,0,0,-11,7,1,0,0,0,7,7,56,1,,,,,,,,
,,,,,,,,,,,,,FF,,,,,,,,1.599,,,,,,,,,,,,,,,,,,,,,,61003a57b29e11c1531ed75f,61037629a452c5827585ee67,2021-07-29_21h27.05.548,Simcolourproject_2stim_asymm_v5,2020.2.10,Win32,60,61025ae37ef11b136ea224fe,,,,,,,,,2126,20,47,1,0,0,response1disk,,7,5,6,1,0,0,rectangle,5,6,1,0,0,5,6,1,0,0,0,8,8,120,1,,,,,,,,
,,,,,,,,,,,,,FF,,,,,,,,3.132,,,,,,,,,,,,,,,,,,,,,,61003a57b29e11c1531ed75f,61037629a452c5827585ee67,2021-07-29_21h27.05.548,Simcolourproject_2stim_asymm_v5,2020.2.10,Win32,60,61025ae37ef11b136ea224fe,,,,,,,,,1630,28,77,1,0,0,response1disk,,7,8,8,1,0,0,rectangle,8,8,1,0,0,8,8,1,0,0,0,9,9,151,1,,,,,,,,
,,,,,,,,,,,,,FF,,,,,,,,1.465,,,,,,,,,,,,,,,,,,,,,,61003a57b29e11c1531ed75f,61037629a452c5827585ee67,2021-07-29_21h27.05.548,Simcolourproject_2stim_asymm_v5,2020.2.10,Win32,60,61025ae37ef11b136ea224fe,,,,,,,,,2931,39,60,1,0,0,response1disk,,7,7,10,1,0,0,rectangle,7,10,1,0,0,7,10,1,0,0,0,10,10,57,1,,,,,,,,
,,,,,,,,,,,,,FF,,,,,,,,1.566,,,,,,,,,,,,,,,,,,,,,,61003a57b29e11c1531ed75f,61037629a452c5827585ee67,2021-07-29_21h27.05.548,Simcolourproject_2stim_asymm_v5,2020.2.10,Win32,60,61025ae37ef11b136ea224fe,,,,,,,,,816,-31,60,1,0,0,response7disk,,0,-4,9,1,0,0,rectangle,-4,9,1,0,0,-4,9,1,0,0,0,11,11,62,1,,,,,,,,
,,,,,,,,,,,,,FF,,,,,,,,1.399,,,,,,,,,,,,,,,,,,,,,,61003a57b29e11c1531ed75f,61037629a452c5827585ee67,2021-07-29_21h27.05.548,Simcolourproject_2stim_asymm_v5,2020.2.10,Win32,60,61025ae37ef11b136ea224fe,,,,,,,,,3418,-25,54,1,0,0,response7disk,,0,-2,6,1,0,0,rectangle,-2,6,1,0,0,-2,6,1,0,0,0,12,12,64,1,,,,,,,,
,,,,,,,,,,,,,FF,,,,,,,,1.899,,,,,,,,,,,,,,,,,,,,,,61003a57b29e11c1531ed75f,61037629a452c5827585ee67,2021-07-29_21h27.05.548,Simcolourproject_2stim_asymm_v5,2020.2.10,Win32,60,61025ae37ef11b136ea224fe,,,,,,,,,3321,27,51,1,0,0,response1disk,,7,6,13,1,0,0,rectangle,6,13,1,0,0,6,13,1,0,0,0,13,13,43,1,,,,,,,,
,,,,,,,,,,,,,FF,,,,,,,,4.983,,,,,,,,,,,,,,,,,,,,,,61003a57b29e11c1531ed75f,61037629a452c5827585ee67,2021-07-29_21h27.05.548,Simcolourproject_2stim_asymm_v5,2020.2.10,Win32,60,61025ae37ef11b136ea224fe,,,,,,,,,3490,26,51,1,0,0,response1disk,,7,-4,15,1,0,0,rectangle,-4,15,1,0,0,-4,15,1,0,0,0,14,14,72,1,,,,,,,,
,,,,,,,,,,,,,FF,,,,,,,,1.401,,,,,,,,,,,,,,,,,,,,,,61003a57b29e11c1531ed75f,61037629a452c5827585ee67,2021-07-29_21h27.05.548,Simcolourproject_2stim_asymm_v5,2020.2.10,Win32,60,61025ae37ef11b136ea224fe,,,,,,,,,377,42,69,1,0,0,response1disk,,7,8,8,1,0,0,rectangle,8,8,1,0,0,8,8,1,0,0,0,15,15,31,1,,,,,,,,
,,,,,,,,,,,,,FF,,,,,,,,1.55,,,,,,,,,,,,,,,,,,,,,,61003a57b29e11c1531ed75f,61037629a452c5827585ee67,2021-07-29_21h27.05.548,Simcolourproject_2stim_asymm_v5,2020.2.10,Win32,60,61025ae37ef11b136ea224fe,,,,,,,,,1191,24,62,1,0,0,response1disk,,7,-2,6,1,0,0,rectangle,-2,6,1,0,0,-2,6,1,0,0,0,16,16,60,1,,,,,,,,
,,,,,,,,,,,,,FF,,,,,,,,1.45,,,,,,,,,,,,,,,,,,,,,,61003a57b29e11c1531ed75f,61037629a452c5827585ee67,2021-07-29_21h27.05.548,Simcolourproject_2stim_asymm_v5,2020.2.10,Win32,60,61025ae37ef11b136ea224fe,,,,,,,,,3260,24,52,1,0,0,response1disk,,7,1,3,1,0,0,rectangle,1,3,1,0,0,1,3,1,0,0,0,17,17,21,1,,,,,,,,
,,,,,,,,,,,,,FF,,,,,,,,1.55,,,,,,,,,,,,,,,,,,,,,,61003a57b29e11c1531ed75f,61037629a452c5827585ee67,2021-07-29_21h27.05.548,Simcolourproject_2stim_asymm_v5,2020.2.10,Win32,60,61025ae37ef11b136ea224fe,,,,,,,,,2245,-34,66,1,0,0,response7disk,,0,0,-2,1,0,0,rectangle,0,-2,1,0,0,0,-2,1,0,0,0,18,18,143,1,,,,,,,,
,,,,,,,,,,,,,FF,,,,,,,,1.383,,,,,,,,,,,,,,,,,,,,,,61003a57b29e11c1531ed75f,61037629a452c5827585ee67,2021-07-29_21h27.05.548,Simcolourproject_2stim_asymm_v5,2020.2.10,Win32,60,61025ae37ef11b136ea224fe,,,,,,,,,2346,19,41,1,0,0,response1disk,,7,6,-4,1,0,0,rectangle,6,-4,1,0,0,6,-4,1,0,0,0,19,19,141,1,,,,,,,,
,,,,,,,,,,,,,FF,,,,,,,,1.483,,,,,,,,,,,,,,,,,,,,,,61003a57b29e11c1531ed75f,61037629a452c5827585ee67,2021-07-29_21h27.05.548,Simcolourproject_2stim_asymm_v5,2020.2.10,Win32,60,61025ae37ef11b136ea224fe,,,,,,,,,2553,28,40,1,0,0,response1disk,,7,12,4,1,0,0,rectangle,12,4,1,0,0,12,4,1,0,0,0,20,20,39,1,,,,,,,,
,,,,,,,,,,,,,FF,,,,,,,,1.6,,,,,,,,,,,,,,,,,,,,,,61003a57b29e11c1531ed75f,61037629a452c5827585ee67,2021-07-29_21h27.05.548,Simcolourproject_2stim_asymm_v5,2020.2.10,Win32,60,61025ae37ef11b136ea224fe,,,,,,,,,326,-25,60,1,0,0,response7disk,,0,-2,15,1,0,0,rectangle,-2,15,1,0,0,-2,15,1,0,0,0,21,21,142,1,,,,,,,,
,,,,,,,,,,,,,FF,,,,,,,,1.433,,,,,,,,,,,,,,,,,,,,,,61003a57b29e11c1531ed75f,61037629a452c5827585ee67,2021-07-29_21h27.05.548,Simcolourproject_2stim_asymm_v5,2020.2.10,Win32,60,61025ae37ef11b136ea224fe,,,,,,,,,1491,20,52,1,0,0,response1disk,,7,3,0,1,0,0,rectangle,3,0,1,0,0,3,0,1,0,0,0,22,22,74,1,,,,,,,,
,,,,,,,,,,,,,FF,,,,,,,,1.599,,,,,,,,,,,,,,,,,,,,,,61003a57b29e11c1531ed75f,61037629a452c5827585ee67,2021-07-29_21h27.05.548,Simcolourproject_2stim_asymm_v5,2020.2.10,Win32,60,61025ae37ef11b136ea224fe,,,,,,,,,3307,28,54,1,0,0,response1disk,,7,13,8,1,0,0,rectangle,13,8,1,0,0,13,8,1,0,0,0,23,23,23,1,,,,,,,,
,,,,,,,,,,,,,FF,,,,,,,,1.75,,,,,,,,,,,,,,,,,,,,,,61003a57b29e11c1531ed75f,61037629a452c5827585ee67,2021-07-29_21h27.05.548,Simcolourproject_2stim_asymm_v5,2020.2.10,Win32,60,61025ae37ef11b136ea224fe,,,,,,,,,3456,31,58,1,0,0,response1disk,,7,12,9,1,0,0,rectangle,-36,-77,1,0,0,-12,-11,1,0,0,0,24,24,107,1,,response5disk_3,TRUE,3,3,"[61,108,31,236,282,52,79,135,32,170,25,194,106,44,240,105,153,192,104,46]",3.283,rectangle
,,,,,,,,,,,,,FF,,,,,,,,1.5,,,,,,,,,,,,,,,,,,,,,,61003a57b29e11c1531ed75f,61037629a452c5827585ee67,2021-07-29_21h27.05.548,Simcolourproject_2stim_asymm_v5,2020.2.10,Win32,60,61025ae37ef11b136ea224fe,,,,,,,,,2941,-19,41,1,0,0,response7disk,,0,-9,8,1,0,0,rectangle,-9,8,1,0,0,-9,8,1,0,0,0,25,25,11,1,,,,,,,,
,,,,,,,,,,,,,FF,,,,,,,,1.299,,,,,,,,,,,,,,,,,,,,,,61003a57b29e11c1531ed75f,61037629a452c5827585ee67,2021-07-29_21h27.05.548,Simcolourproject_2stim_asymm_v5,2020.2.10,Win32,60,61025ae37ef11b136ea224fe,,,,,,,,,1531,-34,64,1,0,0,response7disk,,0,-9,7,1,0,0,rectangle,-9,7,1,0,0,-9,7,1,0,0,0,26,26,103,1,,,,,,,,
,,,,,,,,,,,,,FF,,,,,,,,1.233,,,,,,,,,,,,,,,,,,,,,,61003a57b29e11c1531ed75f,61037629a452c5827585ee67,2021-07-29_21h27.05.548,Simcolourproject_2stim_asymm_v5,2020.2.10,Win32,60,61025ae37ef11b136ea224fe,,,,,,,,,3001,25,69,1,0,0,response1disk,,7,2,7,1,0,0,rectangle,2,7,1,0,0,2,7,1,0,0,0,27,27,92,1,,,,,,,,
,,,,,,,,,,,,,FF,,,,,,,,1.067,,,,,,,,,,,,,,,,,,,,,,61003a57b29e11c1531ed75f,61037629a452c5827585ee67,2021-07-29_21h27.05.548,Simcolourproject_2stim_asymm_v5,2020.2.10,Win32,60,61025ae37ef11b136ea224fe,,,,,,,,,2811,22,52,1,0,0,response1disk,,7,1,8,1,0,0,rectangle,1,8,1,0,0,1,8,1,0,0,0,28,28,6,1,,,,,,,,
,,,,,,,,,,,,,FF,,,,,,,,1.184,,,,,,,,,,,,,,,,,,,,,,61003a57b29e11c1531ed75f,61037629a452c5827585ee67,2021-07-29_21h27.05.548,Simcolourproject_2stim_asymm_v5,2020.2.10,Win32,60,61025ae37ef11b136ea224fe,,,,,,,,,783,27,42,1,0,0,response1disk,,7,2,-5,1,0,0,rectangle,2,-5,1,0,0,2,-5,1,0,0,0,29,29,130,1,,,,,,,,
,,,,,,,,,,,,,FF,,,,,,,,1.433,,,,,,,,,,,,,,,,,,,,,,61003a57b29e11c1531ed75f,61037629a452c5827585ee67,2021-07-29_21h27.05.548,Simcolourproject_2stim_asymm_v5,2020.2.10,Win32,60,61025ae37ef11b136ea224fe,,,,,,,,,950,23,32,1,0,0,response1disk,,7,9,11,1,0,0,rectangle,-34,-53,1,0,0,-11,6,1,0,0,0,30,30,76,1,,response5disk_3,TRUE,3,3,"[61,108,31,236,282,52,79,135,32,170,25,194,106,44,240,105,153,192,104,46]",3.766,rectangle
,,,,,,,,,,,,,FF,,,,,,,,1.066,,,,,,,,,,,,,,,,,,,,,,61003a57b29e11c1531ed75f,61037629a452c5827585ee67,2021-07-29_21h27.05.548,Simcolourproject_2stim_asymm_v5,2020.2.10,Win32,60,61025ae37ef11b136ea224fe,,,,,,,,,4214,25,54,1,0,0,response1disk,,7,-2,-1,1,0,0,rectangle,-68,33,1,0,0,-14,1,1,0,0,0,31,31,138,1,,response7disk_3,TRUE,1,1,"[61,108,31,236,282,52,79,135,32,170,25,194,106,44,240,105,153,192,104,46]",2.898,rectangle
,,,,,,,,,,,,,FF,,,,,,,,1.432,,,,,,,,,,,,,,,,,,,,,,61003a57b29e11c1531ed75f,61037629a452c5827585ee67,2021-07-29_21h27.05.548,Simcolourproject_2stim_asymm_v5,2020.2.10,Win32,60,61025ae37ef11b136ea224fe,,,,,,,,,1764,-34,59,1,0,0,response7disk,,0,-3,2,1,0,0,rectangle,-3,2,1,0,0,-3,2,1,0,0,0,32,32,81,1,,,,,,,,
,,,,,,,,,,,,,FF,,,,,,,,1.067,,,,,,,,,,,,,,,,,,,,,,61003a57b29e11c1531ed75f,61037629a452c5827585ee67,2021-07-29_21h27.05.548,Simcolourproject_2stim_asymm_v5,2020.2.10,Win32,60,61025ae37ef11b136ea224fe,,,,,,,,,3954,32,50,1,0,0,response1disk,,7,8,3,1,0,0,rectangle,8,3,1,0,0,8,3,1,0,0,0,33,33,88,1,,,,,,,,
,,,,,,,,,,,,,FF,,,,,,,,3.133,,,,,,,,,,,,,,,,,,,,,,61003a57b29e11c1531ed75f,61037629a452c5827585ee67,2021-07-29_21h27.05.548,Simcolourproject_2stim_asymm_v5,2020.2.10,Win32,60,61025ae37ef11b136ea224fe,,,,,,,,,698,21,37,1,0,0,response1disk,,7,8,0,1,0,0,rectangle,8,0,1,0,0,8,0,1,0,0,0,34,34,154,1,,,,,,,,
,,,,,,,,,,,,,FF,,,,,,,,1.1,,,,,,,,,,,,,,,,,,,,,,61003a57b29e11c1531ed75f,61037629a452c5827585ee67,2021-07-29_21h27.05.548,Simcolourproject_2stim_asymm_v5,2020.2.10,Win32,60,61025ae37ef11b136ea224fe,,,,,,,,,2663,-35,67,1,0,0,response7disk,,0,-6,5,1,0,0,rectangle,-6,5,1,0,0,-6,5,1,0,0,0,35,35,9,1,,,,,,,,
,,,,,,,,,,,,,FF,,,,,,,,1.333,,,,,,,,,,,,,,,,,,,,,,61003a57b29e11c1531ed75f,61037629a452c5827585ee67,2021-07-29_21h27.05.548,Simcolourproject_2stim_asymm_v5,2020.2.10,Win32,60,61025ae37ef11b136ea224fe,,,,,,,,,480,19,45,1,0,0,response1disk,,7,-1,11,1,0,0,rectangle,-1,11,1,0,0,-1,11,1,0,0,0,36,36,59,1,,,,,,,,
,,,,,,,,,,,,,FF,,,,,,,,1.133,,,,,,,,,,,,,,,,,,,,,,61003a57b29e11c1531ed75f,61037629a452c5827585ee67,2021-07-29_21h27.05.548,Simcolourproject_2stim_asymm_v5,2020.2.10,Win32,60,61025ae37ef11b136ea224fe,,,,,,,,,3365,32,59,1,0,0,response1disk,,7,9,7,1,0,0,rectangle,9,7,1,0,0,9,7,1,0,0,0,37,37,25,1,,,,,,,,
,,,,,,,,,,,,,FF,,,,,,,,1.049,,,,,,,,,,,,,,,,,,,,,,61003a57b29e11c1531ed75f,61037629a452c5827585ee67,2021-07-29_21h27.05.548,Simcolourproject_2stim_asymm_v5,2020.2.10,Win32,60,61025ae37ef11b136ea224fe,,,,,,,,,2298,-22,61,1,0,0,response7disk,,0,10,-11,1,0,0,rectangle,10,-11,1,0,0,10,-11,1,0,0,0,38,38,83,1,,,,,,,,
,,,,,,,,,,,,,FF,,,,,,,,2.099,,,,,,,,,,,,,,,,,,,,,,61003a57b29e11c1531ed75f,61037629a452c5827585ee67,2021-07-29_21h27.05.548,Simcolourproject_2stim_asymm_v5,2020.2.10,Win32,60,61025ae37ef11b136ea224fe,,,,,,,,,928,29,54,1,0,0,response1disk,,7,-6,4,1,0,0,rectangle,-6,4,1,0,0,-6,4,1,0,0,0,39,39,14,1,,,,,,,,
,,,,,,,,,,,,,FF,,,,,,,,1.117,,,,,,,,,,,,,,,,,,,,,,61003a57b29e11c1531ed75f,61037629a452c5827585ee67,2021-07-29_21h27.05.548,Simcolourproject_2stim_asymm_v5,2020.2.10,Win32,60,61025ae37ef11b136ea224fe,,,,,,,,,1713,20,56,1,0,0,response1disk,,7,2,4,1,0,0,rectangle,2,4,1,0,0,2,4,1,0,0,0,40,40,144,1,,,,,,,,
,,,,,,,,,,,,,FF,,,,,,,,1.017,,,,,,,,,,,,,,,,,,,,,,61003a57b29e11c1531ed75f,61037629a452c5827585ee67,2021-07-29_21h27.05.548,Simcolourproject_2stim_asymm_v5,2020.2.10,Win32,60,61025ae37ef11b136ea224fe,,,,,,,,,171,-54,87,1,0,0,response7disk,,0,2,-5,1,0,0,rectangle,2,-5,1,0,0,2,-5,1,0,0,0,41,41,87,1,,,,,,,,
,,,,,,,,,,,,,FF,,,,,,,,1.2,,,,,,,,,,,,,,,,,,,,,,61003a57b29e11c1531ed75f,61037629a452c5827585ee67,2021-07-29_21h27.05.548,Simcolourproject_2stim_asymm_v5,2020.2.10,Win32,60,61025ae37ef11b136ea224fe,,,,,,,,,421,23,42,1,0,0,response1disk,,7,10,1,1,0,0,rectangle,10,1,1,0,0,10,1,1,0,0,0,42,42,113,1,,,,,,,,
,,,,,,,,,,,,,FF,,,,,,,,1.233,,,,,,,,,,,,,,,,,,,,,,61003a57b29e11c1531ed75f,61037629a452c5827585ee67,2021-07-29_21h27.05.548,Simcolourproject_2stim_asymm_v5,2020.2.10,Win32,60,61025ae37ef11b136ea224fe,,,,,,,,,1325,28,41,1,0,0,response1disk,,7,16,13,1,0,0,rectangle,42,25,1,0,0,20,10,1,0,0,0,43,43,24,1,,response1disk_3,TRUE,6,6,"[61,108,31,236,282,52,79,135,32,170,25,194,106,44,240,105,153,192,104,46]",3.198,rectangle
,,,,,,,,,,,,,FF,,,,,,,,1.816,,,,,,,,,,,,,,,,,,,,,,61003a57b29e11c1531ed75f,61037629a452c5827585ee67,2021-07-29_21h27.05.548,Simcolourproject_2stim_asymm_v5,2020.2.10,Win32,60,61025ae37ef11b136ea224fe,,,,,,,,,46,23,52,1,0,0,response1disk,,7,3,11,1,0,0,rectangle,3,11,1,0,0,3,11,1,0,0,0,44,44,8,1,,,,,,,,
,,,,,,,,,,,,,FF,,,,,,,,1.199,,,,,,,,,,,,,,,,,,,,,,61003a57b29e11c1531ed75f,61037629a452c5827585ee67,2021-07-29_21h27.05.548,Simcolourproject_2stim_asymm_v5,2020.2.10,Win32,60,61025ae37ef11b136ea224fe,,,,,,,,,1747,-58,118,1,0,0,response7disk,,0,3,9,1,0,0,rectangle,-59,-31,1,0,0,-9,1,1,0,0,0,45,45,90,1,,response5disk_3,TRUE,2,2,"[61,108,31,236,282,52,79,135,32,170,25,194,106,44,240,105,153,192,104,46]",2.833,rectangle
,,,,,,,,,,,,,FF,,,,,,,,1.265,,,,,,,,,,,,,,,,,,,,,,61003a57b29e11c1531ed75f,61037629a452c5827585ee67,2021-07-29_21h27.05.548,Simcolourproject_2stim_asymm_v5,2020.2.10,Win32,60,61025ae37ef11b136ea224fe,,,,,,,,,2000,46,63,1,0,0,response1disk,,7,6,10,1,0,0,rectangle,6,10,1,0,0,6,10,1,0,0,0,46,46,47,1,,,,,,,,
,,,,,,,,,,,,,FF,,,,,,,,2.334,,,,,,,,,,,,,,,,,,,,,,61003a57b29e11c1531ed75f,61037629a452c5827585ee67,2021-07-29_21h27.05.548,Simcolourproject_2stim_asymm_v5,2020.2.10,Win32,60,61025ae37ef11b136ea224fe,,,,,,,,,3570,32,50,1,0,0,response1disk,,7,5,4,1,0,0,rectangle,5,4,1,0,0,5,4,1,0,0,0,47,47,118,1,,,,,,,,
,,,,,,,,,,,,,FF,,,,,,,,1.349,,,,,,,,,,,,,,,,,,,,,,61003a57b29e11c1531ed75f,61037629a452c5827585ee67,2021-07-29_21h27.05.548,Simcolourproject_2stim_asymm_v5,2020.2.10,Win32,60,61025ae37ef11b136ea224fe,,,,,,,,,331,20,28,1,0,0,response1disk,,7,1,-1,1,0,0,rectangle,1,-1,1,0,0,1,-1,1,0,0,0,48,48,68,1,,,,,,,,
,,,,,,,,,,,,,FF,,,,,,,,1.4,,,,,,,,,,,,,,,,,,,,,,61003a57b29e11c1531ed75f,61037629a452c5827585ee67,2021-07-29_21h27.05.548,Simcolourproject_2stim_asymm_v5,2020.2.10,Win32,60,61025ae37ef11b136ea224fe,,,,,,,,,4084,18,39,1,0,0,response1disk,,7,2,9,1,0,0,rectangle,2,9,1,0,0,2,9,1,0,0,0,49,49,126,1,,,,,,,,
,,,,,,,,,,,,,FF,,,,,,,,2.599,,,,,,,,,,,,,,,,,,,,,,61003a57b29e11c1531ed75f,61037629a452c5827585ee67,2021-07-29_21h27.05.548,Simcolourproject_2stim_asymm_v5,2020.2.10,Win32,60,61025ae37ef11b136ea224fe,,,,,,,,,493,22,45,1,0,0,response1disk,,7,6,5,1,0,0,rectangle,6,5,1,0,0,6,5,1,0,0,0,50,50,50,1,,,,,,,,
,,,,,,,,,,,,,FF,,,,,,,,1.599,,,,,,,,,,,,,,,,,,,,,,61003a57b29e11c1531ed75f,61037629a452c5827585ee67,2021-07-29_21h27.05.548,Simcolourproject_2stim_asymm_v5,2020.2.10,Win32,60,61025ae37ef11b136ea224fe,,,,,,,,,2602,-34,50,1,0,0,response7disk,,0,-7,5,1,0,0,rectangle,62,30,1,0,0,7,-2,1,0,0,0,51,51,73,1,,response1disk_3,TRUE,6,6,"[61,108,31,236,282,52,79,135,32,170,25,194,106,44,240,105,153,192,104,46]",2.716,rectangle
,,,,,,,,,,,,,FF,,,,,,,,1.399,,,,,,,,,,,,,,,,,,,,,,61003a57b29e11c1531ed75f,61037629a452c5827585ee67,2021-07-29_21h27.05.548,Simcolourproject_2stim_asymm_v5,2020.2.10,Win32,60,61025ae37ef11b136ea224fe,,,,,,,,,81,-54,82,1,0,0,response7disk,,0,-10,14,1,0,0,rectangle,-10,14,1,0,0,-10,14,1,0,0,0,52,52,35,1,,,,,,,,
,,,,,,,,,,,,,FF,,,,,,,,1.166,,,,,,,,,,,,,,,,,,,,,,61003a57b29e11c1531ed75f,61037629a452c5827585ee67,2021-07-29_21h27.05.548,Simcolourproject_2stim_asymm_v5,2020.2.10,Win32,60,61025ae37ef11b136ea224fe,,,,,,,,,4303,25,54,1,0,0,response1disk,,7,-2,4,1,0,0,rectangle,-2,4,1,0,0,-2,4,1,0,0,0,53,53,146,1,,,,,,,,
,,,,,,,,,,,,,FF,,,,,,,,1.333,,,,,,,,,,,,,,,,,,,,,,61003a57b29e11c1531ed75f,61037629a452c5827585ee67,2021-07-29_21h27.05.548,Simcolourproject_2stim_asymm_v5,2020.2.10,Win32,60,61025ae37ef11b136ea224fe,,,,,,,,,2511,18,34,1,0,0,response1disk,,7,-4,0,1,0,0,rectangle,-4,0,1,0,0,-4,0,1,0,0,0,54,54,152,1,,,,,,,,
,,,,,,,,,,,,,FF,,,,,,,,1.5,,,,,,,,,,,,,,,,,,,,,,61003a57b29e11c1531ed75f,61037629a452c5827585ee67,2021-07-29_21h27.05.548,Simcolourproject_2stim_asymm_v5,2020.2.10,Win32,60,61025ae37ef11b136ea224fe,,,,,,,,,1398,20,41,1,0,0,response1disk,,7,-1,4,1,0,0,rectangle,-1,4,1,0,0,-1,4,1,0,0,0,55,55,109,1,,,,,,,,
,,,,,,,,,,,,,FF,,,,,,,,1.85,,,,,,,,,,,,,,,,,,,,,,61003a57b29e11c1531ed75f,61037629a452c5827585ee67,2021-07-29_21h27.05.548,Simcolourproject_2stim_asymm_v5,2020.2.10,Win32,60,61025ae37ef11b136ea224fe,,,,,,,,,4019,22,34,1,0,0,response1disk,,7,-2,6,1,0,0,rectangle,-2,6,1,0,0,-2,6,1,0,0,0,56,56,48,1,,,,,,,,
,,,,,,,,,,,,,FF,,,,,,,,1.217,,,,,,,,,,,,,,,,,,,,,,61003a57b29e11c1531ed75f,61037629a452c5827585ee67,2021-07-29_21h27.05.548,Simcolourproject_2stim_asymm_v5,2020.2.10,Win32,60,61025ae37ef11b136ea224fe,,,,,,,,,2683,16,35,1,0,0,response1disk,,7,-4,9,1,0,0,rectangle,-4,9,1,0,0,-4,9,1,0,0,0,57,57,2,1,,,,,,,,
,,,,,,,,,,,,,FF,,,,,,,,1.267,,,,,,,,,,,,,,,,,,,,,,61003a57b29e11c1531ed75f,61037629a452c5827585ee67,2021-07-29_21h27.05.548,Simcolourproject_2stim_asymm_v5,2020.2.10,Win32,60,61025ae37ef11b136ea224fe,,,,,,,,,4301,30,47,1,0,0,response1disk,,7,12,12,1,0,0,rectangle,12,12,1,0,0,12,12,1,0,0,0,58,58,127,1,,,,,,,,
,,,,,,,,,,,,,FF,,,,,,,,1.182,,,,,,,,,,,,,,,,,,,,,,61003a57b29e11c1531ed75f,61037629a452c5827585ee67,2021-07-29_21h27.05.548,Simcolourproject_2stim_asymm_v5,2020.2.10,Win32,60,61025ae37ef11b136ea224fe,,,,,,,,,4255,20,37,1,0,0,response1disk,,7,5,12,1,0,0,rectangle,5,12,1,0,0,5,12,1,0,0,0,59,59,96,1,,,,,,,,
,,,,,,,,,,,,,FF,,,,,,,,1.1,,,,,,,,,,,,,,,,,,,,,,61003a57b29e11c1531ed75f,61037629a452c5827585ee67,2021-07-29_21h27.05.548,Simcolourproject_2stim_asymm_v5,2020.2.10,Win32,60,61025ae37ef11b136ea224fe,,,,,,,,,3564,23,46,1,0,0,response1disk,,7,-6,-1,1,0,0,rectangle,62,-49,1,0,0,20,-11,1,0,0,0,60,60,37,1,,response3disk_3,TRUE,5,5,"[61,108,31,236,282,52,79,135,32,170,25,194,106,44,240,105,153,192,104,46]",2.366,rectangle
,,,,,,,,,,,,,FF,,,,,,,,1.85,,,,,,,,,,,,,,,,,,,,,,61003a57b29e11c1531ed75f,61037629a452c5827585ee67,2021-07-29_21h27.05.548,Simcolourproject_2stim_asymm_v5,2020.2.10,Win32,60,61025ae37ef11b136ea224fe,,,,,,,,,239,23,45,1,0,0,response1disk,,7,-3,15,1,0,0,rectangle,-3,15,1,0,0,-3,15,1,0,0,0,61,61,17,1,,,,,,,,
,,,,,,,,,,,,,FF,,,,,,,,1.432,,,,,,,,,,,,,,,,,,,,,,61003a57b29e11c1531ed75f,61037629a452c5827585ee67,2021-07-29_21h27.05.548,Simcolourproject_2stim_asymm_v5,2020.2.10,Win32,60,61025ae37ef11b136ea224fe,,,,,,,,,3673,15,40,1,0,0,response1disk,,7,7,6,1,0,0,rectangle,7,6,1,0,0,7,6,1,0,0,0,62,62,67,1,,,,,,,,
,,,,,,,,,,,,,FF,,,,,,,,1.55,,,,,,,,,,,,,,,,,,,,,,61003a57b29e11c1531ed75f,61037629a452c5827585ee67,2021-07-29_21h27.05.548,Simcolourproject_2stim_asymm_v5,2020.2.10,Win32,60,61025ae37ef11b136ea224fe,,,,,,,,,3597,-22,45,1,0,0,response7disk,,0,7,-1,1,0,0,rectangle,7,-1,1,0,0,7,-1,1,0,0,0,63,63,112,1,,,,,,,,
,,,,,,,,,,,,,FF,,,,,,,,1.067,,,,,,,,,,,,,,,,,,,,,,61003a57b29e11c1531ed75f,61037629a452c5827585ee67,2021-07-29_21h27.05.548,Simcolourproject_2stim_asymm_v5,2020.2.10,Win32,60,61025ae37ef11b136ea224fe,,,,,,,,,3434,-33,61,1,0,0,response7disk,,0,-2,6,1,0,0,rectangle,-2,6,1,0,0,-2,6,1,0,0,0,64,64,16,1,,,,,,,,
,,,,,,,,,,,,,FF,,,,,,,,1.251,,,,,,,,,,,,,,,,,,,,,,61003a57b29e11c1531ed75f,61037629a452c5827585ee67,2021-07-29_21h27.05.548,Simcolourproject_2stim_asymm_v5,2020.2.10,Win32,60,61025ae37ef11b136ea224fe,,,,,,,,,3851,-26,44,1,0,0,response7disk,,0,-2,-7,1,0,0,rectangle,-2,-7,1,0,0,-2,-7,1,0,0,0,65,65,147,1,,,,,,,,
,,,,,,,,,,,,,FF,,,,,,,,2.384,,,,,,,,,,,,,,,,,,,,,,61003a57b29e11c1531ed75f,61037629a452c5827585ee67,2021-07-29_21h27.05.548,Simcolourproject_2stim_asymm_v5,2020.2.10,Win32,60,61025ae37ef11b136ea224fe,,,,,,,,,2352,-19,29,1,0,0,response7disk,,0,-9,2,1,0,0,rectangle,-9,2,1,0,0,-9,2,1,0,0,0,66,66,12,1,,,,,,,,
,,,,,,,,,,,,,FF,,,,,,,,1.532,,,,,,,,,,,,,,,,,,,,,,61003a57b29e11c1531ed75f,61037629a452c5827585ee67,2021-07-29_21h27.05.548,Simcolourproject_2stim_asymm_v5,2020.2.10,Win32,60,61025ae37ef11b136ea224fe,,,,,,,,,3716,16,33,1,0,0,response1disk,,7,4,9,1,0,0,rectangle,4,9,1,0,0,4,9,1,0,0,0,67,67,104,1,,,,,,,,
,,,,,,,,,,,,,FF,,,,,,,,1.066,,,,,,,,,,,,,,,,,,,,,,61003a57b29e11c1531ed75f,61037629a452c5827585ee67,2021-07-29_21h27.05.548,Simcolourproject_2stim_asymm_v5,2020.2.10,Win32,60,61025ae37ef11b136ea224fe,,,,,,,,,1125,22,33,1,0,0,response1disk,,7,3,15,1,0,0,rectangle,3,15,1,0,0,3,15,1,0,0,0,68,68,100,1,,,,,,,,
,,,,,,,,,,,,,FF,,,,,,,,1.267,,,,,,,,,,,,,,,,,,,,,,61003a57b29e11c1531ed75f,61037629a452c5827585ee67,2021-07-29_21h27.05.548,Simcolourproject_2stim_asymm_v5,2020.2.10,Win32,60,61025ae37ef11b136ea224fe,,,,,,,,,3419,-32,54,1,0,0,response7disk,,0,4,6,1,0,0,rectangle,4,6,1,0,0,4,6,1,0,0,0,69,69,80,1,,,,,,,,
,,,,,,,,,,,,,FF,,,,,,,,1.35,,,,,,,,,,,,,,,,,,,,,,61003a57b29e11c1531ed75f,61037629a452c5827585ee67,2021-07-29_21h27.05.548,Simcolourproject_2stim_asymm_v5,2020.2.10,Win32,60,61025ae37ef11b136ea224fe,,,,,,,,,2027,-27,38,1,0,0,response7disk,,0,5,-7,1,0,0,rectangle,5,-7,1,0,0,5,-7,1,0,0,0,70,70,19,1,,,,,,,,
,,,,,,,,,,,,,FF,,,,,,,,1.2,,,,,,,,,,,,,,,,,,,,,,61003a57b29e11c1531ed75f,61037629a452c5827585ee67,2021-07-29_21h27.05.548,Simcolourproject_2stim_asymm_v5,2020.2.10,Win32,60,61025ae37ef11b136ea224fe,,,,,,,,,738,-32,41,1,0,0,response7disk,,0,-4,7,1,0,0,rectangle,-4,7,1,0,0,-4,7,1,0,0,0,71,71,148,1,,,,,,,,
,,,,,,,,,,,,,FF,,,,,,,,0.983,,,,,,,,,,,,,,,,,,,,,,61003a57b29e11c1531ed75f,61037629a452c5827585ee67,2021-07-29_21h27.05.548,Simcolourproject_2stim_asymm_v5,2020.2.10,Win32,60,61025ae37ef11b136ea224fe,,,,,,,,,1524,-33,57,1,0,0,response7disk,,0,1,2,1,0,0,rectangle,1,2,1,0,0,1,2,1,0,0,0,72,72,98,1,,,,,,,,
,,,,,,,,,,,,,FF,,,,,,,,1.782,,,,,,,,,,,,,,,,,,,,,,61003a57b29e11c1531ed75f,61037629a452c5827585ee67,2021-07-29_21h27.05.548,Simcolourproject_2stim_asymm_v5,2020.2.10,Win32,60,61025ae37ef11b136ea224fe,,,,,,,,,2072,25,47,1,0,0,response1disk,,7,12,9,1,0,0,rectangle,12,9,1,0,0,12,9,1,0,0,0,73,73,13,1,,,,,,,,
,,,,,,,,,,,,,FF,,,,,,,,1.149,,,,,,,,,,,,,,,,,,,,,,61003a57b29e11c1531ed75f,61037629a452c5827585ee67,2021-07-29_21h27.05.548,Simcolourproject_2stim_asymm_v5,2020.2.10,Win32,60,61025ae37ef11b136ea224fe,,,,,,,,,959,25,39,1,0,0,response1disk,,7,12,11,1,0,0,rectangle,12,11,1,0,0,12,11,1,0,0,0,74,74,26,1,,,,,,,,
,,,,,,,,,,,,,FF,,,,,,,,1.216,,,,,,,,,,,,,,,,,,,,,,61003a57b29e11c1531ed75f,61037629a452c5827585ee67,2021-07-29_21h27.05.548,Simcolourproject_2stim_asymm_v5,2020.2.10,Win32,60,61025ae37ef11b136ea224fe,,,,,,,,,3197,-30,56,1,0,0,response7disk,,0,2,0,1,0,0,rectangle,2,0,1,0,0,2,0,1,0,0,0,75,75,145,1,,,,,,,,
,,,,,,,,,,,,,FF,,,,,,,,1.216,,,,,,,,,,,,,,,,,,,,,,61003a57b29e11c1531ed75f,61037629a452c5827585ee67,2021-07-29_21h27.05.548,Simcolourproject_2stim_asymm_v5,2020.2.10,Win32,60,61025ae37ef11b136ea224fe,,,,,,,,,4251,-30,46,1,0,0,response7disk,,0,-6,11,1,0,0,rectangle,-6,11,1,0,0,-6,11,1,0,0,0,76,76,125,1,,,,,,,,
,,,,,,,,,,,,,FF,,,,,,,,1.9,,,,,,,,,,,,,,,,,,,,,,61003a57b29e11c1531ed75f,61037629a452c5827585ee67,2021-07-29_21h27.05.548,Simcolourproject_2stim_asymm_v5,2020.2.10,Win32,60,61025ae37ef11b136ea224fe,,,,,,,,,172,-30,50,1,0,0,response7disk,,0,-6,6,1,0,0,rectangle,-6,6,1,0,0,-6,6,1,0,0,0,77,77,93,1,,,,,,,,
,,,,,,,,,,,,,FF,,,,,,,,1.017,,,,,,,,,,,,,,,,,,,,,,61003a57b29e11c1531ed75f,61037629a452c5827585ee67,2021-07-29_21h27.05.548,Simcolourproject_2stim_asymm_v5,2020.2.10,Win32,60,61025ae37ef11b136ea224fe,,,,,,,,,570,25,45,1,0,0,response1disk,,7,4,1,1,0,0,rectangle,48,25,1,0,0,19,2,1,0,0,0,78,78,111,1,,response1disk_3,TRUE,6,6,"[61,108,31,236,282,52,79,135,32,170,25,194,106,44,240,105,153,192,104,46]",2.799,rectangle
,,,,,,,,,,,,,FF,,,,,,,,1.116,,,,,,,,,,,,,,,,,,,,,,61003a57b29e11c1531ed75f,61037629a452c5827585ee67,2021-07-29_21h27.05.548,Simcolourproject_2stim_asymm_v5,2020.2.10,Win32,60,61025ae37ef11b136ea224fe,,,,,,,,,3676,-26,52,1,0,0,response7disk,,0,-5,3,1,0,0,rectangle,-5,3,1,0,0,-5,3,1,0,0,0,79,79,157,1,,,,,,,,
,,,,,,,,,,,,,FF,,,,,,,,1.933,,,,,,,,,,,,,,,,,,,,,,61003a57b29e11c1531ed75f,61037629a452c5827585ee67,2021-07-29_21h27.05.548,Simcolourproject_2stim_asymm_v5,2020.2.10,Win32,60,61025ae37ef11b136ea224fe,,,,,,,,,2964,18,38,1,0,0,response1disk,,7,1,4,1,0,0,rectangle,1,4,1,0,0,1,4,1,0,0,0,80,80,86,1,,,,,,,,
,,,,,,,,,,,,,FF,,,,,,,,1.134,,,,,,,,,,,,,,,,,,,,,,61003a57b29e11c1531ed75f,61037629a452c5827585ee67,2021-07-29_21h27.05.548,Simcolourproject_2stim_asymm_v5,2020.2.10,Win32,60,61025ae37ef11b136ea224fe,,,,,,,,,633,-38,44,1,0,0,response7disk,,0,-3,3,1,0,0,rectangle,-3,3,1,0,0,-3,3,1,0,0,0,81,81,51,1,,,,,,,,
,,,,,,,,,,,,,FF,,,,,,,,1.682,,,,,,,,,,,,,,,,,,,,,,61003a57b29e11c1531ed75f,61037629a452c5827585ee67,2021-07-29_21h27.05.548,Simcolourproject_2stim_asymm_v5,2020.2.10,Win32,60,61025ae37ef11b136ea224fe,,,,,,,,,3924,-24,52,1,0,0,response7disk,,0,-7,3,1,0,0,rectangle,-7,3,1,0,0,-7,3,1,0,0,0,82,82,1,1,,,,,,,,
,,,,,,,,,,,,,FF,,,,,,,,2.116,,,,,,,,,,,,,,,,,,,,,,61003a57b29e11c1531ed75f,61037629a452c5827585ee67,2021-07-29_21h27.05.548,Simcolourproject_2stim_asymm_v5,2020.2.10,Win32,60,61025ae37ef11b136ea224fe,,,,,,,,,628,31,58,1,0,0,response1disk,,7,6,6,1,0,0,rectangle,6,6,1,0,0,6,6,1,0,0,0,83,83,49,1,,,,,,,,
,,,,,,,,,,,,,FF,,,,,,,,1.483,,,,,,,,,,,,,,,,,,,,,,61003a57b29e11c1531ed75f,61037629a452c5827585ee67,2021-07-29_21h27.05.548,Simcolourproject_2stim_asymm_v5,2020.2.10,Win32,60,61025ae37ef11b136ea224fe,,,,,,,,,2117,24,46,1,0,0,response1disk,,7,2,-9,1,0,0,rectangle,2,-9,1,0,0,2,-9,1,0,0,0,84,84,108,1,,,,,,,,
,,,,,,,,,,,,,FF,,,,,,,,2.067,,,,,,,,,,,,,,,,,,,,,,61003a57b29e11c1531ed75f,61037629a452c5827585ee67,2021-07-29_21h27.05.548,Simcolourproject_2stim_asymm_v5,2020.2.10,Win32,60,61025ae37ef11b136ea224fe,,,,,,,,,3771,-26,43,1,0,0,response7disk,,0,12,-2,1,0,0,rectangle,12,-2,1,0,0,12,-2,1,0,0,0,85,85,129,1,,,,,,,,
,,,,,,,,,,,,,FF,,,,,,,,1.299,,,,,,,,,,,,,,,,,,,,,,61003a57b29e11c1531ed75f,61037629a452c5827585ee67,2021-07-29_21h27.05.548,Simcolourproject_2stim_asymm_v5,2020.2.10,Win32,60,61025ae37ef11b136ea224fe,,,,,,,,,3154,-30,60,1,0,0,response7disk,,0,-9,6,1,0,0,rectangle,-9,6,1,0,0,-9,6,1,0,0,0,86,86,135,1,,,,,,,,
,,,,,,,,,,,,,FF,,,,,,,,1.817,,,,,,,,,,,,,,,,,,,,,,61003a57b29e11c1531ed75f,61037629a452c5827585ee67,2021-07-29_21h27.05.548,Simcolourproject_2stim_asymm_v5,2020.2.10,Win32,60,61025ae37ef11b136ea224fe,,,,,,,,,732,17,46,1,0,0,response1disk,,7,11,8,1,0,0,rectangle,11,8,1,0,0,11,8,1,0,0,0,87,87,79,1,,,,,,,,
,,,,,,,,,,,,,FF,,,,,,,,1.617,,,,,,,,,,,,,,,,,,,,,,61003a57b29e11c1531ed75f,61037629a452c5827585ee67,2021-07-29_21h27.05.548,Simcolourproject_2stim_asymm_v5,2020.2.10,Win32,60,61025ae37ef11b136ea224fe,,,,,,,,,881,-30,45,1,0,0,response7disk,,0,-6,13,1,0,0,rectangle,-6,13,1,0,0,-6,13,1,0,0,0,88,88,7,1,,,,,,,,
,,,,,,,,,,,,,FF,,,,,,,,1.216,,,,,,,,,,,,,,,,,,,,,,61003a57b29e11c1531ed75f,61037629a452c5827585ee67,2021-07-29_21h27.05.548,Simcolourproject_2stim_asymm_v5,2020.2.10,Win32,60,61025ae37ef11b136ea224fe,,,,,,,,,3503,-22,42,1,0,0,response7disk,,0,-5,4,1,0,0,rectangle,-5,4,1,0,0,-5,4,1,0,0,0,89,89,75,1,,,,,,,,
,,,,,,,,,,,,,FF,,,,,,,,1.017,,,,,,,,,,,,,,,,,,,,,,61003a57b29e11c1531ed75f,61037629a452c5827585ee67,2021-07-29_21h27.05.548,Simcolourproject_2stim_asymm_v5,2020.2.10,Win32,60,61025ae37ef11b136ea224fe,,,,,,,,,717,-39,58,1,0,0,response7disk,,0,-1,7,1,0,0,rectangle,-1,7,1,0,0,-1,7,1,0,0,0,90,90,158,1,,,,,,,,
,,,,,,,,,,,,,FF,,,,,,,,1.516,,,,,,,,,,,,,,,,,,,,,,61003a57b29e11c1531ed75f,61037629a452c5827585ee67,2021-07-29_21h27.05.548,Simcolourproject_2stim_asymm_v5,2020.2.10,Win32,60,61025ae37ef11b136ea224fe,,,,,,,,,2434,27,54,1,0,0,response1disk,,7,9,5,1,0,0,rectangle,9,5,1,0,0,9,5,1,0,0,0,91,91,99,1,,,,,,,,
,,,,,,,,,,,,,FF,,,,,,,,1.133,,,,,,,,,,,,,,,,,,,,,,61003a57b29e11c1531ed75f,61037629a452c5827585ee67,2021-07-29_21h27.05.548,Simcolourproject_2stim_asymm_v5,2020.2.10,Win32,60,61025ae37ef11b136ea224fe,,,,,,,,,888,-25,46,1,0,0,response7disk,,0,-8,11,1,0,0,rectangle,-8,11,1,0,0,-8,11,1,0,0,0,92,92,61,1,,,,,,,,
,,,,,,,,,,,,,FF,,,,,,,,0.933,,,,,,,,,,,,,,,,,,,,,,61003a57b29e11c1531ed75f,61037629a452c5827585ee67,2021-07-29_21h27.05.548,Simcolourproject_2stim_asymm_v5,2020.2.10,Win32,60,61025ae37ef11b136ea224fe,,,,,,,,,3744,-37,45,1,0,0,response7disk,,0,-7,12,1,0,0,rectangle,-7,12,1,0,0,-7,12,1,0,0,0,93,93,156,1,,,,,,,,
,,,,,,,,,,,,,FF,,,,,,,,0.966,,,,,,,,,,,,,,,,,,,,,,61003a57b29e11c1531ed75f,61037629a452c5827585ee67,2021-07-29_21h27.05.548,Simcolourproject_2stim_asymm_v5,2020.2.10,Win32,60,61025ae37ef11b136ea224fe,,,,,,,,,3000,-31,55,1,0,0,response7disk,,0,0,-4,1,0,0,rectangle,0,-4,1,0,0,0,-4,1,0,0,0,94,94,82,1,,,,,,,,
,,,,,,,,,,,,,FF,,,,,,,,1.2,,,,,,,,,,,,,,,,,,,,,,61003a57b29e11c1531ed75f,61037629a452c5827585ee67,2021-07-29_21h27.05.548,Simcolourproject_2stim_asymm_v5,2020.2.10,Win32,60,61025ae37ef11b136ea224fe,,,,,,,,,3537,25,44,1,0,0,response1disk,,7,9,-3,1,0,0,rectangle,9,-3,1,0,0,9,-3,1,0,0,0,95,95,121,1,,,,,,,,
,,,,,,,,,,,,,FF,,,,,,,,2.067,,,,,,,,,,,,,,,,,,,,,,61003a57b29e11c1531ed75f,61037629a452c5827585ee67,2021-07-29_21h27.05.548,Simcolourproject_2stim_asymm_v5,2020.2.10,Win32,60,61025ae37ef11b136ea224fe,,,,,,,,,2617,27,35,1,0,0,response1disk,,7,8,14,1,0,0,rectangle,8,14,1,0,0,8,14,1,0,0,0,96,96,128,1,,,,,,,,
,,,,,,,,,,,,,FF,,,,,,,,1.884,,,,,,,,,,,,,,,,,,,,,,61003a57b29e11c1531ed75f,61037629a452c5827585ee67,2021-07-29_21h27.05.548,Simcolourproject_2stim_asymm_v5,2020.2.10,Win32,60,61025ae37ef11b136ea224fe,,,,,,,,,1112,21,44,1,0,0,response1disk,,7,1,8,1,0,0,rectangle,1,8,1,0,0,1,8,1,0,0,0,97,97,41,1,,,,,,,,
,,,,,,,,,,,,,FF,,,,,,,,1.5,,,,,,,,,,,,,,,,,,,,,,61003a57b29e11c1531ed75f,61037629a452c5827585ee67,2021-07-29_21h27.05.548,Simcolourproject_2stim_asymm_v5,2020.2.10,Win32,60,61025ae37ef11b136ea224fe,,,,,,,,,4262,21,40,1,0,0,response1disk,,7,-4,11,1,0,0,rectangle,-4,11,1,0,0,-4,11,1,0,0,0,98,98,18,1,,,,,,,,
,,,,,,,,,,,,,FF,,,,,,,,1.033,,,,,,,,,,,,,,,,,,,,,,61003a57b29e11c1531ed75f,61037629a452c5827585ee67,2021-07-29_21h27.05.548,Simcolourproject_2stim_asymm_v5,2020.2.10,Win32,60,61025ae37ef11b136ea224fe,,,,,,,,,3656,23,44,1,0,0,response1disk,,7,-4,-3,1,0,0,rectangle,-4,-3,1,0,0,-4,-3,1,0,0,0,99,99,153,1,,,,,,,,
,,,,,,,,,,,,,FF,,,,,,,,1.833,,,,,,,,,,,,,,,,,,,,,,61003a57b29e11c1531ed75f,61037629a452c5827585ee67,2021-07-29_21h27.05.548,Simcolourproject_2stim_asymm_v5,2020.2.10,Win32,60,61025ae37ef11b136ea224fe,,,,,,,,,305,17,33,1,0,0,response1disk,,7,-3,10,1,0,0,rectangle,-3,10,1,0,0,-3,10,1,0,0,0,100,100,53,1,,,,,,,,
,,,,,,,,,,,,,FF,,,,,,,,1.049,,,,,,,,,,,,,,,,,,,,,,61003a57b29e11c1531ed75f,61037629a452c5827585ee67,2021-07-29_21h27.05.548,Simcolourproject_2stim_asymm_v5,2020.2.10,Win32,60,61025ae37ef11b136ea224fe,,,,,,,,,162,-33,54,1,0,0,response7disk,,0,-9,3,1,0,0,rectangle,-9,3,1,0,0,-9,3,1,0,0,0,101,101,124,1,,,,,,,,
,,,,,,,,,,,,,FF,,,,,,,,1.283,,,,,,,,,,,,,,,,,,,,,,61003a57b29e11c1531ed75f,61037629a452c5827585ee67,2021-07-29_21h27.05.548,Simcolourproject_2stim_asymm_v5,2020.2.10,Win32,60,61025ae37ef11b136ea224fe,,,,,,,,,3670,-26,45,1,0,0,response7disk,,0,3,3,1,0,0,rectangle,3,3,1,0,0,3,3,1,0,0,0,102,102,85,1,,,,,,,,
,,,,,,,,,,,,,FF,,,,,,,,1.366,,,,,,,,,,,,,,,,,,,,,,61003a57b29e11c1531ed75f,61037629a452c5827585ee67,2021-07-29_21h27.05.548,Simcolourproject_2stim_asymm_v5,2020.2.10,Win32,60,61025ae37ef11b136ea224fe,,,,,,,,,1622,28,49,1,0,0,response1disk,,7,6,7,1,0,0,rectangle,-66,46,1,0,0,-11,11,1,0,0,0,103,103,106,1,,response7disk_3,TRUE,1,1,"[61,108,31,236,282,52,79,135,32,170,25,194,106,44,240,105,153,192,104,46]",2.265,rectangle
,,,,,,,,,,,,,FF,,,,,,,,1.234,,,,,,,,,,,,,,,,,,,,,,61003a57b29e11c1531ed75f,61037629a452c5827585ee67,2021-07-29_21h27.05.548,Simcolourproject_2stim_asymm_v5,2020.2.10,Win32,60,61025ae37ef11b136ea224fe,,,,,,,,,78,-29,47,1,0,0,response7disk,,0,-6,5,1,0,0,rectangle,-33,64,1,0,0,-8,8,1,0,0,0,104,104,155,1,,response7disk_3,TRUE,0,0,"[61,108,31,236,282,52,79,135,32,170,25,194,106,44,240,105,153,192,104,46]",3.449,rectangle
,,,,,,,,,,,,,FF,,,,,,,,1.367,,,,,,,,,,,,,,,,,,,,,,61003a57b29e11c1531ed75f,61037629a452c5827585ee67,2021-07-29_21h27.05.548,Simcolourproject_2stim_asymm_v5,2020.2.10,Win32,60,61025ae37ef11b136ea224fe,,,,,,,,,401,16,37,1,0,0,response1disk,,7,8,-2,1,0,0,rectangle,42,-78,1,0,0,-2,10,1,0,0,0,105,105,40,1,,response3disk_3,TRUE,4,4,"[61,108,31,236,282,52,79,135,32,170,25,194,106,44,240,105,153,192,104,46]",2.383,rectangle
,,,,,,,,,,,,,FF,,,,,,,,1.683,,,,,,,,,,,,,,,,,,,,,,61003a57b29e11c1531ed75f,61037629a452c5827585ee67,2021-07-29_21h27.05.548,Simcolourproject_2stim_asymm_v5,2020.2.10,Win32,60,61025ae37ef11b136ea224fe,,,,,,,,,1514,17,34,1,0,0,response1disk,,7,6,9,1,0,0,rectangle,6,9,1,0,0,6,9,1,0,0,0,106,106,139,1,,,,,,,,
,,,,,,,,,,,,,FF,,,,,,,,1.066,,,,,,,,,,,,,,,,,,,,,,61003a57b29e11c1531ed75f,61037629a452c5827585ee67,2021-07-29_21h27.05.548,Simcolourproject_2stim_asymm_v5,2020.2.10,Win32,60,61025ae37ef11b136ea224fe,,,,,,,,,2704,-27,58,1,0,0,response7disk,,0,-3,13,1,0,0,rectangle,-37,66,1,0,0,-4,3,1,0,0,0,107,107,119,1,,response7disk_3,TRUE,0,0,"[61,108,31,236,282,52,79,135,32,170,25,194,106,44,240,105,153,192,104,46]",2.966,rectangle
,,,,,,,,,,,,,FF,,,,,,,,1.05,,,,,,,,,,,,,,,,,,,,,,61003a57b29e11c1531ed75f,61037629a452c5827585ee67,2021-07-29_21h27.05.548,Simcolourproject_2stim_asymm_v5,2020.2.10,Win32,60,61025ae37ef11b136ea224fe,,,,,,,,,72,-30,53,1,0,0,response7disk,,0,-5,4,1,0,0,rectangle,-5,4,1,0,0,-5,4,1,0,0,0,108,108,131,1,,,,,,,,
,,,,,,,,,,,,,FF,,,,,,,,1.117,,,,,,,,,,,,,,,,,,,,,,61003a57b29e11c1531ed75f,61037629a452c5827585ee67,2021-07-29_21h27.05.548,Simcolourproject_2stim_asymm_v5,2020.2.10,Win32,60,61025ae37ef11b136ea224fe,,,,,,,,,334,24,45,1,0,0,response1disk,,7,7,5,1,0,0,rectangle,7,5,1,0,0,7,5,1,0,0,0,109,109,34,1,,,,,,,,
,,,,,,,,,,,,,FF,,,,,,,,1.133,,,,,,,,,,,,,,,,,,,,,,61003a57b29e11c1531ed75f,61037629a452c5827585ee67,2021-07-29_21h27.05.548,Simcolourproject_2stim_asymm_v5,2020.2.10,Win32,60,61025ae37ef11b136ea224fe,,,,,,,,,1081,24,42,1,0,0,response1disk,,7,7,13,1,0,0,rectangle,7,13,1,0,0,7,13,1,0,0,0,110,110,122,1,,,,,,,,
,,,,,,,,,,,,,FF,,,,,,,,1.467,,,,,,,,,,,,,,,,,,,,,,61003a57b29e11c1531ed75f,61037629a452c5827585ee67,2021-07-29_21h27.05.548,Simcolourproject_2stim_asymm_v5,2020.2.10,Win32,60,61025ae37ef11b136ea224fe,,,,,,,,,3770,-28,63,1,0,0,response7disk,,0,0,-6,1,0,0,rectangle,0,-6,1,0,0,0,-6,1,0,0,0,111,111,136,1,,,,,,,,
,,,,,,,,,,,,,FF,,,,,,,,1.984,,,,,,,,,,,,,,,,,,,,,,61003a57b29e11c1531ed75f,61037629a452c5827585ee67,2021-07-29_21h27.05.548,Simcolourproject_2stim_asymm_v5,2020.2.10,Win32,60,61025ae37ef11b136ea224fe,,,,,,,,,2809,23,27,1,0,0,response1disk,,7,9,-8,1,0,0,rectangle,9,-8,1,0,0,9,-8,1,0,0,0,112,112,46,1,,,,,,,,
,,,,,,,,,,,,,FF,,,,,,,,1.316,,,,,,,,,,,,,,,,,,,,,,61003a57b29e11c1531ed75f,61037629a452c5827585ee67,2021-07-29_21h27.05.548,Simcolourproject_2stim_asymm_v5,2020.2.10,Win32,60,61025ae37ef11b136ea224fe,,,,,,,,,1831,-38,80,1,0,0,response7disk,,0,-1,2,1,0,0,rectangle,-1,2,1,0,0,-1,2,1,0,0,0,113,113,32,1,,,,,,,,
,,,,,,,,,,,,,FF,,,,,,,,1.299,,,,,,,,,,,,,,,,,,,,,,61003a57b29e11c1531ed75f,61037629a452c5827585ee67,2021-07-29_21h27.05.548,Simcolourproject_2stim_asymm_v5,2020.2.10,Win32,60,61025ae37ef11b136ea224fe,,,,,,,,,565,19,46,1,0,0,response1disk,,7,4,10,1,0,0,rectangle,4,10,1,0,0,4,10,1,0,0,0,114,114,102,1,,,,,,,,
,,,,,,,,,,,,,FF,,,,,,,,1.183,,,,,,,,,,,,,,,,,,,,,,61003a57b29e11c1531ed75f,61037629a452c5827585ee67,2021-07-29_21h27.05.548,Simcolourproject_2stim_asymm_v5,2020.2.10,Win32,60,61025ae37ef11b136ea224fe,,,,,,,,,1163,28,50,1,0,0,response1disk,,7,5,-4,1,0,0,rectangle,5,-4,1,0,0,5,-4,1,0,0,0,115,115,149,1,,,,,,,,
,,,,,,,,,,,,,FF,,,,,,,,1.699,,,,,,,,,,,,,,,,,,,,,,61003a57b29e11c1531ed75f,61037629a452c5827585ee67,2021-07-29_21h27.05.548,Simcolourproject_2stim_asymm_v5,2020.2.10,Win32,60,61025ae37ef11b136ea224fe,,,,,,,,,2009,25,47,1,0,0,response1disk,,7,14,12,1,0,0,rectangle,14,12,1,0,0,14,12,1,0,0,0,116,116,140,1,,,,,,,,
,,,,,,,,,,,,,FF,,,,,,,,1.167,,,,,,,,,,,,,,,,,,,,,,61003a57b29e11c1531ed75f,61037629a452c5827585ee67,2021-07-29_21h27.05.548,Simcolourproject_2stim_asymm_v5,2020.2.10,Win32,60,61025ae37ef11b136ea224fe,,,,,,,,,2295,-33,68,1,0,0,response7disk,,0,-5,6,1,0,0,rectangle,-5,6,1,0,0,-5,6,1,0,0,0,117,117,91,1,,,,,,,,
,,,,,,,,,,,,,FF,,,,,,,,1.201,,,,,,,,,,,,,,,,,,,,,,61003a57b29e11c1531ed75f,61037629a452c5827585ee67,2021-07-29_21h27.05.548,Simcolourproject_2stim_asymm_v5,2020.2.10,Win32,60,61025ae37ef11b136ea224fe,,,,,,,,,3384,-24,53,1,0,0,response7disk,,0,-5,10,1,0,0,rectangle,-5,10,1,0,0,-5,10,1,0,0,0,118,118,27,1,,,,,,,,
,,,,,,,,,,,,,FF,,,,,,,,1.083,,,,,,,,,,,,,,,,,,,,,,61003a57b29e11c1531ed75f,61037629a452c5827585ee67,2021-07-29_21h27.05.548,Simcolourproject_2stim_asymm_v5,2020.2.10,Win32,60,61025ae37ef11b136ea224fe,,,,,,,,,3306,26,42,1,0,0,response1disk,,7,-10,5,1,0,0,rectangle,-10,5,1,0,0,-10,5,1,0,0,0,119,119,71,1,,,,,,,,
,,,,,,,,,,,,,FF,,,,,,,,1.983,,,,,,,,,,,,,,,,,,,,,,61003a57b29e11c1531ed75f,61037629a452c5827585ee67,2021-07-29_21h27.05.548,Simcolourproject_2stim_asymm_v5,2020.2.10,Win32,60,61025ae37ef11b136ea224fe,,,,,,,,,418,27,47,1,0,0,response1disk,,7,-1,2,1,0,0,rectangle,-1,2,1,0,0,-1,2,1,0,0,0,120,120,54,1,,,,,,,,
,,,,,,,,,,,,,FF,,,,,,,,0.949,,,,,,,,,,,,,,,,,,,,,,61003a57b29e11c1531ed75f,61037629a452c5827585ee67,2021-07-29_21h27.05.548,Simcolourproject_2stim_asymm_v5,2020.2.10,Win32,60,61025ae37ef11b136ea224fe,,,,,,,,,808,-31,53,1,0,0,response7disk,,0,-1,7,1,0,0,rectangle,-1,7,1,0,0,-1,7,1,0,0,0,121,121,33,1,,,,,,,,
,,,,,,,,,,,,,FF,,,,,,,,1.382,,,,,,,,,,,,,,,,,,,,,,61003a57b29e11c1531ed75f,61037629a452c5827585ee67,2021-07-29_21h27.05.548,Simcolourproject_2stim_asymm_v5,2020.2.10,Win32,60,61025ae37ef11b136ea224fe,,,,,,,,,2132,18,35,1,0,0,response1disk,,7,-1,7,1,0,0,rectangle,-1,7,1,0,0,-1,7,1,0,0,0,122,122,15,1,,,,,,,,
,,,,,,,,,,,,,FF,,,,,,,,1.633,,,,,,,,,,,,,,,,,,,,,,61003a57b29e11c1531ed75f,61037629a452c5827585ee67,2021-07-29_21h27.05.548,Simcolourproject_2stim_asymm_v5,2020.2.10,Win32,60,61025ae37ef11b136ea224fe,,,,,,,,,1222,-31,45,1,0,0,response7disk,,0,-10,9,1,0,0,rectangle,-10,9,1,0,0,-10,9,1,0,0,0,123,123,105,1,,,,,,,,
,,,,,,,,,,,,,FF,,,,,,,,1.849,,,,,,,,,,,,,,,,,,,,,,61003a57b29e11c1531ed75f,61037629a452c5827585ee67,2021-07-29_21h27.05.548,Simcolourproject_2stim_asymm_v5,2020.2.10,Win32,60,61025ae37ef11b136ea224fe,,,,,,,,,1323,27,36,1,0,0,response1disk,,7,7,8,1,0,0,rectangle,7,8,1,0,0,7,8,1,0,0,0,124,124,45,1,,,,,,,,
,,,,,,,,,,,,,FF,,,,,,,,1.883,,,,,,,,,,,,,,,,,,,,,,61003a57b29e11c1531ed75f,61037629a452c5827585ee67,2021-07-29_21h27.05.548,Simcolourproject_2stim_asymm_v5,2020.2.10,Win32,60,61025ae37ef11b136ea224fe,,,,,,,,,640,19,35,1,0,0,response1disk,,7,-5,1,1,0,0,rectangle,-5,1,1,0,0,-5,1,1,0,0,0,125,125,69,1,,,,,,,,
,,,,,,,,,,,,,FF,,,,,,,,1.183,,,,,,,,,,,,,,,,,,,,,,61003a57b29e11c1531ed75f,61037629a452c5827585ee67,2021-07-29_21h27.05.548,Simcolourproject_2stim_asymm_v5,2020.2.10,Win32,60,61025ae37ef11b136ea224fe,,,,,,,,,125,19,34,1,0,0,response1disk,,7,12,14,1,0,0,rectangle,12,14,1,0,0,12,14,1,0,0,0,126,126,38,1,,,,,,,,
,,,,,,,,,,,,,FF,,,,,,,,1.666,,,,,,,,,,,,,,,,,,,,,,61003a57b29e11c1531ed75f,61037629a452c5827585ee67,2021-07-29_21h27.05.548,Simcolourproject_2stim_asymm_v5,2020.2.10,Win32,60,61025ae37ef11b136ea224fe,,,,,,,,,1688,25,49,1,0,0,response1disk,,7,-1,8,1,0,0,rectangle,-1,8,1,0,0,-1,8,1,0,0,0,127,127,28,1,,,,,,,,
,,,,,,,,,,,,,FF,,,,,,,,1.415,,,,,,,,,,,,,,,,,,,,,,61003a57b29e11c1531ed75f,61037629a452c5827585ee67,2021-07-29_21h27.05.548,Simcolourproject_2stim_asymm_v5,2020.2.10,Win32,60,61025ae37ef11b136ea224fe,,,,,,,,,1971,18,37,1,0,0,response1disk,,7,1,0,1,0,0,rectangle,1,0,1,0,0,1,0,1,0,0,0,128,128,44,1,,,,,,,,
,,,,,,,,,,,,,FF,,,,,,,,1.666,,,,,,,,,,,,,,,,,,,,,,61003a57b29e11c1531ed75f,61037629a452c5827585ee67,2021-07-29_21h27.05.548,Simcolourproject_2stim_asymm_v5,2020.2.10,Win32,60,61025ae37ef11b136ea224fe,,,,,,,,,3525,-30,43,1,0,0,response7disk,,0,6,-7,1,0,0,rectangle,6,-7,1,0,0,6,-7,1,0,0,0,129,129,66,1,,,,,,,,
,,,,,,,,,,,,,FF,,,,,,,,1.583,,,,,,,,,,,,,,,,,,,,,,61003a57b29e11c1531ed75f,61037629a452c5827585ee67,2021-07-29_21h27.05.548,Simcolourproject_2stim_asymm_v5,2020.2.10,Win32,60,61025ae37ef11b136ea224fe,,,,,,,,,2524,20,40,1,0,0,response1disk,,7,3,1,1,0,0,rectangle,3,1,1,0,0,3,1,1,0,0,0,130,130,84,1,,,,,,,,
,,,,,,,,,,,,,FF,,,,,,,,1.016,,,,,,,,,,,,,,,,,,,,,,61003a57b29e11c1531ed75f,61037629a452c5827585ee67,2021-07-29_21h27.05.548,Simcolourproject_2stim_asymm_v5,2020.2.10,Win32,60,61025ae37ef11b136ea224fe,,,,,,,,,2772,-31,60,1,0,0,response7disk,,0,3,-6,1,0,0,rectangle,3,-6,1,0,0,3,-6,1,0,0,0,131,131,95,1,,,,,,,,
,,,,,,,,,,,,,FF,,,,,,,,1.584,,,,,,,,,,,,,,,,,,,,,,61003a57b29e11c1531ed75f,61037629a452c5827585ee67,2021-07-29_21h27.05.548,Simcolourproject_2stim_asymm_v5,2020.2.10,Win32,60,61025ae37ef11b136ea224fe,,,,,,,,,3121,21,34,1,0,0,response1disk,,7,-1,-6,1,0,0,rectangle,-1,-6,1,0,0,-1,-6,1,0,0,0,132,132,0,1,,,,,,,,
,,,,,,,,,,,,,FF,,,,,,,,1.916,,,,,,,,,,,,,,,,,,,,,,61003a57b29e11c1531ed75f,61037629a452c5827585ee67,2021-07-29_21h27.05.548,Simcolourproject_2stim_asymm_v5,2020.2.10,Win32,60,61025ae37ef11b136ea224fe,,,,,,,,,1853,20,39,1,0,0,response1disk,,7,6,4,1,0,0,rectangle,6,4,1,0,0,6,4,1,0,0,0,133,133,89,1,,,,,,,,
,,,,,,,,,,,,,FF,,,,,,,,1.184,,,,,,,,,,,,,,,,,,,,,,61003a57b29e11c1531ed75f,61037629a452c5827585ee67,2021-07-29_21h27.05.548,Simcolourproject_2stim_asymm_v5,2020.2.10,Win32,60,61025ae37ef11b136ea224fe,,,,,,,,,564,-35,57,1,0,0,response7disk,,0,1,4,1,0,0,rectangle,67,-49,1,0,0,2,0,1,0,0,0,134,134,3,1,,response3disk_3,TRUE,5,5,"[61,108,31,236,282,52,79,135,32,170,25,194,106,44,240,105,153,192,104,46]",2.617,rectangle
,,,,,,,,,,,,,FF,,,,,,,,1.266,,,,,,,,,,,,,,,,,,,,,,61003a57b29e11c1531ed75f,61037629a452c5827585ee67,2021-07-29_21h27.05.548,Simcolourproject_2stim_asymm_v5,2020.2.10,Win32,60,61025ae37ef11b136ea224fe,,,,,,,,,2161,28,39,1,0,0,response1disk,,7,-3,5,1,0,0,rectangle,-3,5,1,0,0,-3,5,1,0,0,0,135,135,137,1,,,,,,,,
,,,,,,,,,,,,,FF,,,,,,,,1.367,,,,,,,,,,,,,,,,,,,,,,61003a57b29e11c1531ed75f,61037629a452c5827585ee67,2021-07-29_21h27.05.548,Simcolourproject_2stim_asymm_v5,2020.2.10,Win32,60,61025ae37ef11b136ea224fe,,,,,,,,,2376,-53,76,1,0,0,response7disk,,0,-8,15,1,0,0,rectangle,-8,15,1,0,0,-8,15,1,0,0,0,136,136,97,1,,,,,,,,
,,,,,,,,,,,,,FF,,,,,,,,1.283,,,,,,,,,,,,,,,,,,,,,,61003a57b29e11c1531ed75f,61037629a452c5827585ee67,2021-07-29_21h27.05.548,Simcolourproject_2stim_asymm_v5,2020.2.10,Win32,60,61025ae37ef11b136ea224fe,,,,,,,,,11,-35,63,1,0,0,response7disk,,0,5,-5,1,0,0,rectangle,5,-5,1,0,0,5,-5,1,0,0,0,137,137,10,1,,,,,,,,
,,,,,,,,,,,,,FF,,,,,,,,1.616,,,,,,,,,,,,,,,,,,,,,,61003a57b29e11c1531ed75f,61037629a452c5827585ee67,2021-07-29_21h27.05.548,Simcolourproject_2stim_asymm_v5,2020.2.10,Win32,60,61025ae37ef11b136ea224fe,,,,,,,,,3601,19,40,1,0,0,response1disk,,7,5,0,1,0,0,rectangle,5,0,1,0,0,5,0,1,0,0,0,138,138,22,1,,,,,,,,
,,,,,,,,,,,,,FF,,,,,,,,1.35,,,,,,,,,,,,,,,,,,,,,,61003a57b29e11c1531ed75f,61037629a452c5827585ee67,2021-07-29_21h27.05.548,Simcolourproject_2stim_asymm_v5,2020.2.10,Win32,60,61025ae37ef11b136ea224fe,,,,,,,,,1728,22,58,1,0,0,response1disk,,7,9,14,1,0,0,rectangle,9,14,1,0,0,9,14,1,0,0,0,139,139,36,1,,,,,,,,
,,,,,,,,,,,,,FF,,,,,,,,1.232,,,,,,,,,,,,,,,,,,,,,,61003a57b29e11c1531ed75f,61037629a452c5827585ee67,2021-07-29_21h27.05.548,Simcolourproject_2stim_asymm_v5,2020.2.10,Win32,60,61025ae37ef11b136ea224fe,,,,,,,,,1948,23,43,1,0,0,response1disk,,7,6,7,1,0,0,rectangle,6,7,1,0,0,6,7,1,0,0,0,140,140,110,1,,,,,,,,
,,,,,,,,,,,,,FF,,,,,,,,12.565,,,,,,,,,,,,,,,,,,,,,,61003a57b29e11c1531ed75f,61037629a452c5827585ee67,2021-07-29_21h27.05.548,Simcolourproject_2stim_asymm_v5,2020.2.10,Win32,60,61025ae37ef11b136ea224fe,,,,,,,,,1757,20,52,1,0,0,response1disk,,7,10,5,1,0,0,rectangle,10,5,1,0,0,10,5,1,0,0,0,141,141,5,1,,,,,,,,
,,,,,,,,,,,,,FF,,,,,,,,7.249,,,,,,,,,,,,,,,,,,,,,,61003a57b29e11c1531ed75f,61037629a452c5827585ee67,2021-07-29_21h27.05.548,Simcolourproject_2stim_asymm_v5,2020.2.10,Win32,60,61025ae37ef11b136ea224fe,,,,,,,,,2286,-23,44,1,0,0,response7disk,,0,-3,10,1,0,0,rectangle,-3,10,1,0,0,-3,10,1,0,0,0,142,142,117,1,,,,,,,,
,,,,,,,,,,,,,FF,,,,,,,,2.333,,,,,,,,,,,,,,,,,,,,,,61003a57b29e11c1531ed75f,61037629a452c5827585ee67,2021-07-29_21h27.05.548,Simcolourproject_2stim_asymm_v5,2020.2.10,Win32,60,61025ae37ef11b136ea224fe,,,,,,,,,3666,19,33,1,0,0,response1disk,,7,2,8,1,0,0,rectangle,2,8,1,0,0,2,8,1,0,0,0,143,143,4,1,,,,,,,,
,,,,,,,,,,,,,FF,,,,,,,,1.283,,,,,,,,,,,,,,,,,,,,,,61003a57b29e11c1531ed75f,61037629a452c5827585ee67,2021-07-29_21h27.05.548,Simcolourproject_2stim_asymm_v5,2020.2.10,Win32,60,61025ae37ef11b136ea224fe,,,,,,,,,2153,24,39,1,0,0,response1disk,,7,10,8,1,0,0,rectangle,10,8,1,0,0,10,8,1,0,0,0,144,144,101,1,,,,,,,,
,,,,,,,,,,,,,FF,,,,,,,,1.15,,,,,,,,,,,,,,,,,,,,,,61003a57b29e11c1531ed75f,61037629a452c5827585ee67,2021-07-29_21h27.05.548,Simcolourproject_2stim_asymm_v5,2020.2.10,Win32,60,61025ae37ef11b136ea224fe,,,,,,,,,4257,28,42,1,0,0,response1disk,,7,3,10,1,0,0,rectangle,3,10,1,0,0,3,10,1,0,0,0,145,145,159,1,,,,,,,,
,,,,,,,,,,,,,FF,,,,,,,,1.067,,,,,,,,,,,,,,,,,,,,,,61003a57b29e11c1531ed75f,61037629a452c5827585ee67,2021-07-29_21h27.05.548,Simcolourproject_2stim_asymm_v5,2020.2.10,Win32,60,61025ae37ef11b136ea224fe,,,,,,,,,3162,-22,42,1,0,0,response7disk,,0,-4,5,1,0,0,rectangle,-4,5,1,0,0,-4,5,1,0,0,0,146,146,133,1,,,,,,,,
,,,,,,,,,,,,,FF,,,,,,,,1.133,,,,,,,,,,,,,,,,,,,,,,61003a57b29e11c1531ed75f,61037629a452c5827585ee67,2021-07-29_21h27.05.548,Simcolourproject_2stim_asymm_v5,2020.2.10,Win32,60,61025ae37ef11b136ea224fe,,,,,,,,,2630,18,42,1,0,0,response1disk,,7,3,-3,1,0,0,rectangle,3,-3,1,0,0,3,-3,1,0,0,0,147,147,29,1,,,,,,,,
,,,,,,,,,,,,,FF,,,,,,,,1.082,,,,,,,,,,,,,,,,,,,,,,61003a57b29e11c1531ed75f,61037629a452c5827585ee67,2021-07-29_21h27.05.548,Simcolourproject_2stim_asymm_v5,2020.2.10,Win32,60,61025ae37ef11b136ea224fe,,,,,,,,,1061,22,34,1,0,0,response1disk,,7,3,5,1,0,0,rectangle,3,5,1,0,0,3,5,1,0,0,0,148,148,52,1,,,,,,,,
,,,,,,,,,,,,,FF,,,,,,,,2.266,,,,,,,,,,,,,,,,,,,,,,61003a57b29e11c1531ed75f,61037629a452c5827585ee67,2021-07-29_21h27.05.548,Simcolourproject_2stim_asymm_v5,2020.2.10,Win32,60,61025ae37ef11b136ea224fe,,,,,,,,,1285,-26,48,1,0,0,response7disk,,0,-2,8,1,0,0,rectangle,-2,8,1,0,0,-2,8,1,0,0,0,149,149,20,1,,,,,,,,
,,,,,,,,,,,,,FF,,,,,,,,1.533,,,,,,,,,,,,,,,,,,,,,,61003a57b29e11c1531ed75f,61037629a452c5827585ee67,2021-07-29_21h27.05.548,Simcolourproject_2stim_asymm_v5,2020.2.10,Win32,60,61025ae37ef11b136ea224fe,,,,,,,,,3882,-31,53,1,0,0,response7disk,,0,-4,9,1,0,0,rectangle,-4,9,1,0,0,-4,9,1,0,0,0,150,150,63,1,,,,,,,,
,,,,,,,,,,,,,FF,,,,,,,,5.366,,,,,,,,,,,,,,,,,,,,,,61003a57b29e11c1531ed75f,61037629a452c5827585ee67,2021-07-29_21h27.05.548,Simcolourproject_2stim_asymm_v5,2020.2.10,Win32,60,61025ae37ef11b136ea224fe,,,,,,,,,3732,-27,44,1,0,0,response7disk,,0,1,2,1,0,0,rectangle,1,2,1,0,0,1,2,1,0,0,0,151,151,77,1,,,,,,,,
,,,,,,,,,,,,,FF,,,,,,,,3.4,,,,,,,,,,,,,,,,,,,,,,61003a57b29e11c1531ed75f,61037629a452c5827585ee67,2021-07-29_21h27.05.548,Simcolourproject_2stim_asymm_v5,2020.2.10,Win32,60,61025ae37ef11b136ea224fe,,,,,,,,,4107,-29,48,1,0,0,response7disk,,0,-2,3,1,0,0,rectangle,-27,44,1,0,0,-5,8,1,0,0,0,152,152,55,1,,response7disk_3,TRUE,0,0,"[61,108,31,236,282,52,79,135,32,170,25,194,106,44,240,105,153,192,104,46]",2.866,rectangle
,,,,,,,,,,,,,FF,,,,,,,,5.066,,,,,,,,,,,,,,,,,,,,,,61003a57b29e11c1531ed75f,61037629a452c5827585ee67,2021-07-29_21h27.05.548,Simcolourproject_2stim_asymm_v5,2020.2.10,Win32,60,61025ae37ef11b136ea224fe,,,,,,,,,2028,23,46,1,0,0,response1disk,,7,3,7,1,0,0,rectangle,3,7,1,0,0,3,7,1,0,0,0,153,153,150,1,,,,,,,,
,,,,,,,,,,,,,FF,,,,,,,,1.499,,,,,,,,,,,,,,,,,,,,,,61003a57b29e11c1531ed75f,61037629a452c5827585ee67,2021-07-29_21h27.05.548,Simcolourproject_2stim_asymm_v5,2020.2.10,Win32,60,61025ae37ef11b136ea224fe,,,,,,,,,1448,-33,68,1,0,0,response7disk,,0,-2,6,1,0,0,rectangle,-2,6,1,0,0,-2,6,1,0,0,0,154,154,116,1,,,,,,,,
,,,,,,,,,,,,,FF,,,,,,,,1.234,,,,,,,,,,,,,,,,,,,,,,61003a57b29e11c1531ed75f,61037629a452c5827585ee67,2021-07-29_21h27.05.548,Simcolourproject_2stim_asymm_v5,2020.2.10,Win32,60,61025ae37ef11b136ea224fe,,,,,,,,,97,-28,53,1,0,0,response7disk,,0,0,-8,1,0,0,rectangle,0,-8,1,0,0,0,-8,1,0,0,0,155,155,42,1,,,,,,,,
,,,,,,,,,,,,,FF,,,,,,,,0.983,,,,,,,,,,,,,,,,,,,,,,61003a57b29e11c1531ed75f,61037629a452c5827585ee67,2021-07-29_21h27.05.548,Simcolourproject_2stim_asymm_v5,2020.2.10,Win32,60,61025ae37ef11b136ea224fe,,,,,,,,,28,-32,56,1,0,0,response7disk,,0,-4,-6,1,0,0,rectangle,-4,-6,1,0,0,-4,-6,1,0,0,0,156,156,78,1,,,,,,,,
,,,,,,,,,,,,,FF,,,,,,,,1.233,,,,,,,,,,,,,,,,,,,,,,61003a57b29e11c1531ed75f,61037629a452c5827585ee67,2021-07-29_21h27.05.548,Simcolourproject_2stim_asymm_v5,2020.2.10,Win32,60,61025ae37ef11b136ea224fe,,,,,,,,,67,-24,31,1,0,0,response7disk,,0,2,-3,1,0,0,rectangle,2,-3,1,0,0,2,-3,1,0,0,0,157,157,65,1,,,,,,,,
,,,,,,,,,,,,,FF,,,,,,,,1.033,,,,,,,,,,,,,,,,,,,,,,61003a57b29e11c1531ed75f,61037629a452c5827585ee67,2021-07-29_21h27.05.548,Simcolourproject_2stim_asymm_v5,2020.2.10,Win32,60,61025ae37ef11b136ea224fe,,,,,,,,,1743,-18,37,1,0,0,response7disk,,0,-4,2,1,0,0,rectangle,-4,2,1,0,0,-4,2,1,0,0,0,158,158,134,1,,,,,,,,
,,,,,,,,,,,,,FF,,,,,,,,1.333,,,,,,,,,,,,,,,,,,,,,,61003a57b29e11c1531ed75f,61037629a452c5827585ee67,2021-07-29_21h27.05.548,Simcolourproject_2stim_asymm_v5,2020.2.10,Win32,60,61025ae37ef11b136ea224fe,,,,,,,,,86,-19,32,1,0,0,response7disk,,0,-4,-5,1,0,0,rectangle,-4,-5,1,0,0,-4,-5,1,0,0,0,159,159,115,1,,,,,,,,
,,,,,,,,,,,,,FF,,,,,,,,1.549,,,,,,,,,,,,,,,,,,,,,,61003a57b29e11c1531ed75f,61037629a452c5827585ee67,2021-07-29_21h27.05.548,Simcolourproject_2stim_asymm_v5,2020.2.10,Win32,60,61025ae37ef11b136ea224fe,,,,,,,,,3034,22,39,1,0,0,response1disk,,7,-3,4,1,0,0,rectangle,-3,4,1,0,0,-3,4,1,0,0,1,0,160,89,1,,,,,,,,
,,,,,,,,,,,,,FF,,,,,,,,1.499,,,,,,,,,,,,,,,,,,,,,,61003a57b29e11c1531ed75f,61037629a452c5827585ee67,2021-07-29_21h27.05.548,Simcolourproject_2stim_asymm_v5,2020.2.10,Win32,60,61025ae37ef11b136ea224fe,,,,,,,,,3975,20,41,1,0,0,response1disk,,7,2,-5,1,0,0,rectangle,2,-5,1,0,0,2,-5,1,0,0,1,1,161,8,1,,,,,,,,
,,,,,,,,,,,,,FF,,,,,,,,1.683,,,,,,,,,,,,,,,,,,,,,,61003a57b29e11c1531ed75f,61037629a452c5827585ee67,2021-07-29_21h27.05.548,Simcolourproject_2stim_asymm_v5,2020.2.10,Win32,60,61025ae37ef11b136ea224fe,,,,,,,,,3786,20,30,1,0,0,response1disk,,7,11,9,1,0,0,rectangle,11,9,1,0,0,11,9,1,0,0,1,2,162,159,1,,,,,,,,
,,,,,,,,,,,,,FF,,,,,,,,1.216,,,,,,,,,,,,,,,,,,,,,,61003a57b29e11c1531ed75f,61037629a452c5827585ee67,2021-07-29_21h27.05.548,Simcolourproject_2stim_asymm_v5,2020.2.10,Win32,60,61025ae37ef11b136ea224fe,,,,,,,,,861,26,45,1,0,0,response1disk,,7,2,-2,1,0,0,rectangle,2,-2,1,0,0,2,-2,1,0,0,1,3,163,98,1,,,,,,,,
,,,,,,,,,,,,,FF,,,,,,,,2.267,,,,,,,,,,,,,,,,,,,,,,61003a57b29e11c1531ed75f,61037629a452c5827585ee67,2021-07-29_21h27.05.548,Simcolourproject_2stim_asymm_v5,2020.2.10,Win32,60,61025ae37ef11b136ea224fe,,,,,,,,,1874,21,45,1,0,0,response1disk,,7,-1,7,1,0,0,rectangle,-1,7,1,0,0,-1,7,1,0,0,1,4,164,117,1,,,,,,,,
,,,,,,,,,,,,,FF,,,,,,,,1.001,,,,,,,,,,,,,,,,,,,,,,61003a57b29e11c1531ed75f,61037629a452c5827585ee67,2021-07-29_21h27.05.548,Simcolourproject_2stim_asymm_v5,2020.2.10,Win32,60,61025ae37ef11b136ea224fe,,,,,,,,,970,-41,62,1,0,0,response7disk,,0,4,-4,1,0,0,rectangle,4,-4,1,0,0,4,-4,1,0,0,1,5,165,64,1,,,,,,,,
,,,,,,,,,,,,,FF,,,,,,,,1.366,,,,,,,,,,,,,,,,,,,,,,61003a57b29e11c1531ed75f,61037629a452c5827585ee67,2021-07-29_21h27.05.548,Simcolourproject_2stim_asymm_v5,2020.2.10,Win32,60,61025ae37ef11b136ea224fe,,,,,,,,,762,27,36,1,0,0,response1disk,,7,-2,-4,1,0,0,rectangle,-2,-4,1,0,0,-2,-4,1,0,0,1,6,166,145,1,,,,,,,,
,,,,,,,,,,,,,FF,,,,,,,,1.233,,,,,,,,,,,,,,,,,,,,,,61003a57b29e11c1531ed75f,61037629a452c5827585ee67,2021-07-29_21h27.05.548,Simcolourproject_2stim_asymm_v5,2020.2.10,Win32,60,61025ae37ef11b136ea224fe,,,,,,,,,1129,19,41,1,0,0,response1disk,,7,10,13,1,0,0,rectangle,10,13,1,0,0,10,13,1,0,0,1,7,167,155,1,,,,,,,,
,,,,,,,,,,,,,FF,,,,,,,,1.9,,,,,,,,,,,,,,,,,,,,,,61003a57b29e11c1531ed75f,61037629a452c5827585ee67,2021-07-29_21h27.05.548,Simcolourproject_2stim_asymm_v5,2020.2.10,Win32,60,61025ae37ef11b136ea224fe,,,,,,,,,2126,37,60,1,0,0,response1disk,,7,-6,11,1,0,0,rectangle,-6,11,1,0,0,-6,11,1,0,0,1,8,168,83,1,,,,,,,,
,,,,,,,,,,,,,FF,,,,,,,,1.216,,,,,,,,,,,,,,,,,,,,,,61003a57b29e11c1531ed75f,61037629a452c5827585ee67,2021-07-29_21h27.05.548,Simcolourproject_2stim_asymm_v5,2020.2.10,Win32,60,61025ae37ef11b136ea224fe,,,,,,,,,1630,28,52,1,0,0,response1disk,,7,-9,-4,1,0,0,rectangle,-68,-21,1,0,0,-13,13,1,0,0,1,9,169,157,1,,response5disk_3,TRUE,2,2,"[61,108,31,236,282,52,79,135,32,170,25,194,106,44,240,105,153,192,104,46]",3.899,rectangle
,,,,,,,,,,,,,FF,,,,,,,,1.466,,,,,,,,,,,,,,,,,,,,,,61003a57b29e11c1531ed75f,61037629a452c5827585ee67,2021-07-29_21h27.05.548,Simcolourproject_2stim_asymm_v5,2020.2.10,Win32,60,61025ae37ef11b136ea224fe,,,,,,,,,2931,19,48,1,0,0,response1disk,,7,-9,4,1,0,0,rectangle,-9,4,1,0,0,-9,4,1,0,0,1,10,170,2,1,,,,,,,,
,,,,,,,,,,,,,FF,,,,,,,,1.199,,,,,,,,,,,,,,,,,,,,,,61003a57b29e11c1531ed75f,61037629a452c5827585ee67,2021-07-29_21h27.05.548,Simcolourproject_2stim_asymm_v5,2020.2.10,Win32,60,61025ae37ef11b136ea224fe,,,,,,,,,816,-30,49,1,0,0,response7disk,,0,8,-9,1,0,0,rectangle,8,-9,1,0,0,8,-9,1,0,0,1,11,171,24,1,,,,,,,,
,,,,,,,,,,,,,FF,,,,,,,,1.367,,,,,,,,,,,,,,,,,,,,,,61003a57b29e11c1531ed75f,61037629a452c5827585ee67,2021-07-29_21h27.05.548,Simcolourproject_2stim_asymm_v5,2020.2.10,Win32,60,61025ae37ef11b136ea224fe,,,,,,,,,3418,-18,40,1,0,0,response7disk,,0,0,-6,1,0,0,rectangle,0,-6,1,0,0,0,-6,1,0,0,1,12,172,103,1,,,,,,,,
,,,,,,,,,,,,,FF,,,,,,,,1.416,,,,,,,,,,,,,,,,,,,,,,61003a57b29e11c1531ed75f,61037629a452c5827585ee67,2021-07-29_21h27.05.548,Simcolourproject_2stim_asymm_v5,2020.2.10,Win32,60,61025ae37ef11b136ea224fe,,,,,,,,,3321,25,45,1,0,0,response1disk,,7,2,7,1,0,0,rectangle,2,7,1,0,0,2,7,1,0,0,1,13,173,39,1,,,,,,,,
,,,,,,,,,,,,,FF,,,,,,,,1.133,,,,,,,,,,,,,,,,,,,,,,61003a57b29e11c1531ed75f,61037629a452c5827585ee67,2021-07-29_21h27.05.548,Simcolourproject_2stim_asymm_v5,2020.2.10,Win32,60,61025ae37ef11b136ea224fe,,,,,,,,,3490,20,46,1,0,0,response1disk,,7,7,8,1,0,0,rectangle,7,8,1,0,0,7,8,1,0,0,1,14,174,77,1,,,,,,,,
,,,,,,,,,,,,,FF,,,,,,,,1.267,,,,,,,,,,,,,,,,,,,,,,61003a57b29e11c1531ed75f,61037629a452c5827585ee67,2021-07-29_21h27.05.548,Simcolourproject_2stim_asymm_v5,2020.2.10,Win32,60,61025ae37ef11b136ea224fe,,,,,,,,,377,25,38,1,0,0,response1disk,,7,-5,7,1,0,0,rectangle,-5,7,1,0,0,-5,7,1,0,0,1,15,175,105,1,,,,,,,,
,,,,,,,,,,,,,FF,,,,,,,,1.132,,,,,,,,,,,,,,,,,,,,,,61003a57b29e11c1531ed75f,61037629a452c5827585ee67,2021-07-29_21h27.05.548,Simcolourproject_2stim_asymm_v5,2020.2.10,Win32,60,61025ae37ef11b136ea224fe,,,,,,,,,1191,17,41,1,0,0,response1disk,,7,-6,9,1,0,0,rectangle,-6,9,1,0,0,-6,9,1,0,0,1,16,176,142,1,,,,,,,,
,,,,,,,,,,,,,FF,,,,,,,,1.584,,,,,,,,,,,,,,,,,,,,,,61003a57b29e11c1531ed75f,61037629a452c5827585ee67,2021-07-29_21h27.05.548,Simcolourproject_2stim_asymm_v5,2020.2.10,Win32,60,61025ae37ef11b136ea224fe,,,,,,,,,3260,26,43,1,0,0,response1disk,,7,0,7,1,0,0,rectangle,0,7,1,0,0,0,7,1,0,0,1,17,177,132,1,,,,,,,,
,,,,,,,,,,,,,FF,,,,,,,,1,,,,,,,,,,,,,,,,,,,,,,61003a57b29e11c1531ed75f,61037629a452c5827585ee67,2021-07-29_21h27.05.548,Simcolourproject_2stim_asymm_v5,2020.2.10,Win32,60,61025ae37ef11b136ea224fe,,,,,,,,,2245,36,47,1,0,0,response1disk,,7,5,4,1,0,0,rectangle,5,4,1,0,0,5,4,1,0,0,1,18,178,3,1,,,,,,,,
,,,,,,,,,,,,,FF,,,,,,,,1.699,,,,,,,,,,,,,,,,,,,,,,61003a57b29e11c1531ed75f,61037629a452c5827585ee67,2021-07-29_21h27.05.548,Simcolourproject_2stim_asymm_v5,2020.2.10,Win32,60,61025ae37ef11b136ea224fe,,,,,,,,,2346,23,45,1,0,0,response1disk,,7,-11,3,1,0,0,rectangle,-11,3,1,0,0,-11,3,1,0,0,1,19,179,68,1,,,,,,,,
,,,,,,,,,,,,,FF,,,,,,,,1.166,,,,,,,,,,,,,,,,,,,,,,61003a57b29e11c1531ed75f,61037629a452c5827585ee67,2021-07-29_21h27.05.548,Simcolourproject_2stim_asymm_v5,2020.2.10,Win32,60,61025ae37ef11b136ea224fe,,,,,,,,,2553,18,43,1,0,0,response1disk,,7,-12,11,1,0,0,rectangle,-12,11,1,0,0,-12,11,1,0,0,1,20,180,13,1,,,,,,,,
,,,,,,,,,,,,,FF,,,,,,,,1.166,,,,,,,,,,,,,,,,,,,,,,61003a57b29e11c1531ed75f,61037629a452c5827585ee67,2021-07-29_21h27.05.548,Simcolourproject_2stim_asymm_v5,2020.2.10,Win32,60,61025ae37ef11b136ea224fe,,,,,,,,,326,15,43,1,0,0,response1disk,,7,-5,-2,1,0,0,rectangle,-5,-2,1,0,0,-5,-2,1,0,0,1,21,181,1,1,,,,,,,,
,,,,,,,,,,,,,FF,,,,,,,,1.083,,,,,,,,,,,,,,,,,,,,,,61003a57b29e11c1531ed75f,61037629a452c5827585ee67,2021-07-29_21h27.05.548,Simcolourproject_2stim_asymm_v5,2020.2.10,Win32,60,61025ae37ef11b136ea224fe,,,,,,,,,1491,34,47,1,0,0,response1disk,,7,-1,5,1,0,0,rectangle,-1,5,1,0,0,-1,5,1,0,0,1,22,182,108,1,,,,,,,,
,,,,,,,,,,,,,FF,,,,,,,,0.983,,,,,,,,,,,,,,,,,,,,,,61003a57b29e11c1531ed75f,61037629a452c5827585ee67,2021-07-29_21h27.05.548,Simcolourproject_2stim_asymm_v5,2020.2.10,Win32,60,61025ae37ef11b136ea224fe,,,,,,,,,3307,21,40,1,0,0,response1disk,,7,-16,-7,1,0,0,rectangle,-16,-7,1,0,0,-16,-7,1,0,0,1,23,183,40,1,,,,,,,,
,,,,,,,,,,,,,FF,,,,,,,,2.083,,,,,,,,,,,,,,,,,,,,,,61003a57b29e11c1531ed75f,61037629a452c5827585ee67,2021-07-29_21h27.05.548,Simcolourproject_2stim_asymm_v5,2020.2.10,Win32,60,61025ae37ef11b136ea224fe,,,,,,,,,3456,27,51,1,0,0,response1disk,,7,-3,2,1,0,0,rectangle,-3,2,1,0,0,-3,2,1,0,0,1,24,184,78,1,,,,,,,,
,,,,,,,,,,,,,FF,,,,,,,,0.983,,,,,,,,,,,,,,,,,,,,,,61003a57b29e11c1531ed75f,61037629a452c5827585ee67,2021-07-29_21h27.05.548,Simcolourproject_2stim_asymm_v5,2020.2.10,Win32,60,61025ae37ef11b136ea224fe,,,,,,,,,2941,-31,46,1,0,0,response7disk,,0,1,-6,1,0,0,rectangle,1,-6,1,0,0,1,-6,1,0,0,1,25,185,26,1,,,,,,,,
,,,,,,,,,,,,,FF,,,,,,,,1.45,,,,,,,,,,,,,,,,,,,,,,61003a57b29e11c1531ed75f,61037629a452c5827585ee67,2021-07-29_21h27.05.548,Simcolourproject_2stim_asymm_v5,2020.2.10,Win32,60,61025ae37ef11b136ea224fe,,,,,,,,,1531,-33,40,1,0,0,response7disk,,0,-11,13,1,0,0,rectangle,-11,13,1,0,0,-11,13,1,0,0,1,26,186,18,1,,,,,,,,
,,,,,,,,,,,,,FF,,,,,,,,1.017,,,,,,,,,,,,,,,,,,,,,,61003a57b29e11c1531ed75f,61037629a452c5827585ee67,2021-07-29_21h27.05.548,Simcolourproject_2stim_asymm_v5,2020.2.10,Win32,60,61025ae37ef11b136ea224fe,,,,,,,,,3001,24,57,1,0,0,response1disk,,7,4,5,1,0,0,rectangle,4,5,1,0,0,4,5,1,0,0,1,27,187,0,1,,,,,,,,
,,,,,,,,,,,,,FF,,,,,,,,1.799,,,,,,,,,,,,,,,,,,,,,,61003a57b29e11c1531ed75f,61037629a452c5827585ee67,2021-07-29_21h27.05.548,Simcolourproject_2stim_asymm_v5,2020.2.10,Win32,60,61025ae37ef11b136ea224fe,,,,,,,,,2811,18,48,1,0,0,response1disk,,7,3,5,1,0,0,rectangle,3,5,1,0,0,3,5,1,0,0,1,28,188,42,1,,,,,,,,
,,,,,,,,,,,,,FF,,,,,,,,1.032,,,,,,,,,,,,,,,,,,,,,,61003a57b29e11c1531ed75f,61037629a452c5827585ee67,2021-07-29_21h27.05.548,Simcolourproject_2stim_asymm_v5,2020.2.10,Win32,60,61025ae37ef11b136ea224fe,,,,,,,,,783,29,43,1,0,0,response1disk,,7,-1,2,1,0,0,rectangle,-1,2,1,0,0,-1,2,1,0,0,1,29,189,46,1,,,,,,,,
,,,,,,,,,,,,,FF,,,,,,,,1.034,,,,,,,,,,,,,,,,,,,,,,61003a57b29e11c1531ed75f,61037629a452c5827585ee67,2021-07-29_21h27.05.548,Simcolourproject_2stim_asymm_v5,2020.2.10,Win32,60,61025ae37ef11b136ea224fe,,,,,,,,,950,20,40,1,0,0,response1disk,,7,-7,0,1,0,0,rectangle,-7,0,1,0,0,-7,0,1,0,0,1,30,190,29,1,,,,,,,,
,,,,,,,,,,,,,FF,,,,,,,,2.032,,,,,,,,,,,,,,,,,,,,,,61003a57b29e11c1531ed75f,61037629a452c5827585ee67,2021-07-29_21h27.05.548,Simcolourproject_2stim_asymm_v5,2020.2.10,Win32,60,61025ae37ef11b136ea224fe,,,,,,,,,4214,21,37,1,0,0,response1disk,,7,1,14,1,0,0,rectangle,-72,-31,1,0,0,-18,4,1,0,0,1,31,191,125,1,,response5disk_3,TRUE,2,2,"[61,108,31,236,282,52,79,135,32,170,25,194,106,44,240,105,153,192,104,46]",3.115,rectangle
,,,,,,,,,,,,,FF,,,,,,,,1.184,,,,,,,,,,,,,,,,,,,,,,61003a57b29e11c1531ed75f,61037629a452c5827585ee67,2021-07-29_21h27.05.548,Simcolourproject_2stim_asymm_v5,2020.2.10,Win32,60,61025ae37ef11b136ea224fe,,,,,,,,,1764,-33,53,1,0,0,response7disk,,0,-8,6,1,0,0,rectangle,-8,6,1,0,0,-8,6,1,0,0,1,32,192,141,1,,,,,,,,
,,,,,,,,,,,,,FF,,,,,,,,1.05,,,,,,,,,,,,,,,,,,,,,,61003a57b29e11c1531ed75f,61037629a452c5827585ee67,2021-07-29_21h27.05.548,Simcolourproject_2stim_asymm_v5,2020.2.10,Win32,60,61025ae37ef11b136ea224fe,,,,,,,,,3954,37,56,1,0,0,response1disk,,7,11,6,1,0,0,rectangle,-73,-41,1,0,0,-2,3,1,0,0,1,33,193,102,1,,response5disk_3,TRUE,2,2,"[61,108,31,236,282,52,79,135,32,170,25,194,106,44,240,105,153,192,104,46]",2.582,rectangle
,,,,,,,,,,,,,FF,,,,,,,,1.199,,,,,,,,,,,,,,,,,,,,,,61003a57b29e11c1531ed75f,61037629a452c5827585ee67,2021-07-29_21h27.05.548,Simcolourproject_2stim_asymm_v5,2020.2.10,Win32,60,61025ae37ef11b136ea224fe,,,,,,,,,698,20,39,1,0,0,response1disk,,7,-2,5,1,0,0,rectangle,-2,5,1,0,0,-2,5,1,0,0,1,34,194,62,1,,,,,,,,
,,,,,,,,,,,,,FF,,,,,,,,0.917,,,,,,,,,,,,,,,,,,,,,,61003a57b29e11c1531ed75f,61037629a452c5827585ee67,2021-07-29_21h27.05.548,Simcolourproject_2stim_asymm_v5,2020.2.10,Win32,60,61025ae37ef11b136ea224fe,,,,,,,,,2663,-45,59,1,0,0,response7disk,,0,3,6,1,0,0,rectangle,3,6,1,0,0,3,6,1,0,0,1,35,195,74,1,,,,,,,,
,,,,,,,,,,,,,FF,,,,,,,,1.067,,,,,,,,,,,,,,,,,,,,,,61003a57b29e11c1531ed75f,61037629a452c5827585ee67,2021-07-29_21h27.05.548,Simcolourproject_2stim_asymm_v5,2020.2.10,Win32,60,61025ae37ef11b136ea224fe,,,,,,,,,480,27,50,1,0,0,response1disk,,7,-8,4,1,0,0,rectangle,-8,4,1,0,0,-8,4,1,0,0,1,36,196,140,1,,,,,,,,
,,,,,,,,,,,,,FF,,,,,,,,0.984,,,,,,,,,,,,,,,,,,,,,,61003a57b29e11c1531ed75f,61037629a452c5827585ee67,2021-07-29_21h27.05.548,Simcolourproject_2stim_asymm_v5,2020.2.10,Win32,60,61025ae37ef11b136ea224fe,,,,,,,,,3365,21,51,1,0,0,response1disk,,7,-6,9,1,0,0,rectangle,-6,9,1,0,0,-6,9,1,0,0,1,37,197,7,1,,,,,,,,
,,,,,,,,,,,,,FF,,,,,,,,1.015,,,,,,,,,,,,,,,,,,,,,,61003a57b29e11c1531ed75f,61037629a452c5827585ee67,2021-07-29_21h27.05.548,Simcolourproject_2stim_asymm_v5,2020.2.10,Win32,60,61025ae37ef11b136ea224fe,,,,,,,,,2298,-26,51,1,0,0,response7disk,,0,-6,3,1,0,0,rectangle,-6,3,1,0,0,-6,3,1,0,0,1,38,198,86,1,,,,,,,,
,,,,,,,,,,,,,FF,,,,,,,,1.101,,,,,,,,,,,,,,,,,,,,,,61003a57b29e11c1531ed75f,61037629a452c5827585ee67,2021-07-29_21h27.05.548,Simcolourproject_2stim_asymm_v5,2020.2.10,Win32,60,61025ae37ef11b136ea224fe,,,,,,,,,928,17,38,1,0,0,response1disk,,7,1,0,1,0,0,rectangle,1,0,1,0,0,1,0,1,0,0,1,39,199,79,1,,,,,,,,
,,,,,,,,,,,,,FF,,,,,,,,0.999,,,,,,,,,,,,,,,,,,,,,,61003a57b29e11c1531ed75f,61037629a452c5827585ee67,2021-07-29_21h27.05.548,Simcolourproject_2stim_asymm_v5,2020.2.10,Win32,60,61025ae37ef11b136ea224fe,,,,,,,,,1713,31,41,1,0,0,response1disk,,7,1,-2,1,0,0,rectangle,1,-2,1,0,0,1,-2,1,0,0,1,40,200,11,1,,,,,,,,
,,,,,,,,,,,,,FF,,,,,,,,0.934,,,,,,,,,,,,,,,,,,,,,,61003a57b29e11c1531ed75f,61037629a452c5827585ee67,2021-07-29_21h27.05.548,Simcolourproject_2stim_asymm_v5,2020.2.10,Win32,60,61025ae37ef11b136ea224fe,,,,,,,,,171,-49,100,1,0,0,response7disk,,0,-1,0,1,0,0,rectangle,-1,0,1,0,0,-1,0,1,0,0,1,41,201,138,1,,,,,,,,
,,,,,,,,,,,,,FF,,,,,,,,0.934,,,,,,,,,,,,,,,,,,,,,,61003a57b29e11c1531ed75f,61037629a452c5827585ee67,2021-07-29_21h27.05.548,Simcolourproject_2stim_asymm_v5,2020.2.10,Win32,60,61025ae37ef11b136ea224fe,,,,,,,,,421,29,37,1,0,0,response1disk,,7,7,-4,1,0,0,rectangle,7,-4,1,0,0,7,-4,1,0,0,1,42,202,153,1,,,,,,,,
,,,,,,,,,,,,,FF,,,,,,,,1.516,,,,,,,,,,,,,,,,,,,,,,61003a57b29e11c1531ed75f,61037629a452c5827585ee67,2021-07-29_21h27.05.548,Simcolourproject_2stim_asymm_v5,2020.2.10,Win32,60,61025ae37ef11b136ea224fe,,,,,,,,,1325,22,37,1,0,0,response1disk,,7,0,8,1,0,0,rectangle,0,8,1,0,0,0,8,1,0,0,1,43,203,67,1,,,,,,,,
,,,,,,,,,,,,,FF,,,,,,,,1.749,,,,,,,,,,,,,,,,,,,,,,61003a57b29e11c1531ed75f,61037629a452c5827585ee67,2021-07-29_21h27.05.548,Simcolourproject_2stim_asymm_v5,2020.2.10,Win32,60,61025ae37ef11b136ea224fe,,,,,,,,,46,-27,54,1,0,0,response7disk,,0,11,-10,1,0,0,rectangle,11,-10,1,0,0,11,-10,1,0,0,1,44,204,90,1,,,,,,,,
,,,,,,,,,,,,,FF,,,,,,,,0.916,,,,,,,,,,,,,,,,,,,,,,61003a57b29e11c1531ed75f,61037629a452c5827585ee67,2021-07-29_21h27.05.548,Simcolourproject_2stim_asymm_v5,2020.2.10,Win32,60,61025ae37ef11b136ea224fe,,,,,,,,,1747,-31,49,1,0,0,response7disk,,0,-1,10,1,0,0,rectangle,-1,10,1,0,0,-1,10,1,0,0,1,45,205,23,1,,,,,,,,
,,,,,,,,,,,,,FF,,,,,,,,1.051,,,,,,,,,,,,,,,,,,,,,,61003a57b29e11c1531ed75f,61037629a452c5827585ee67,2021-07-29_21h27.05.548,Simcolourproject_2stim_asymm_v5,2020.2.10,Win32,60,61025ae37ef11b136ea224fe,,,,,,,,,2000,30,57,1,0,0,response1disk,,7,-1,-9,1,0,0,rectangle,-1,-9,1,0,0,-1,-9,1,0,0,1,46,206,30,1,,,,,,,,
,,,,,,,,,,,,,FF,,,,,,,,1.033,,,,,,,,,,,,,,,,,,,,,,61003a57b29e11c1531ed75f,61037629a452c5827585ee67,2021-07-29_21h27.05.548,Simcolourproject_2stim_asymm_v5,2020.2.10,Win32,60,61025ae37ef11b136ea224fe,,,,,,,,,3570,-23,50,1,0,0,response7disk,,0,-4,10,1,0,0,rectangle,-4,10,1,0,0,-4,10,1,0,0,1,47,207,147,1,,,,,,,,
,,,,,,,,,,,,,FF,,,,,,,,1.434,,,,,,,,,,,,,,,,,,,,,,61003a57b29e11c1531ed75f,61037629a452c5827585ee67,2021-07-29_21h27.05.548,Simcolourproject_2stim_asymm_v5,2020.2.10,Win32,60,61025ae37ef11b136ea224fe,,,,,,,,,331,20,43,1,0,0,response1disk,,7,-2,3,1,0,0,rectangle,-2,3,1,0,0,-2,3,1,0,0,1,48,208,107,1,,,,,,,,
,,,,,,,,,,,,,FF,,,,,,,,1.5,,,,,,,,,,,,,,,,,,,,,,61003a57b29e11c1531ed75f,61037629a452c5827585ee67,2021-07-29_21h27.05.548,Simcolourproject_2stim_asymm_v5,2020.2.10,Win32,60,61025ae37ef11b136ea224fe,,,,,,,,,4084,18,47,1,0,0,response1disk,,7,-1,7,1,0,0,rectangle,-1,7,1,0,0,-1,7,1,0,0,1,49,209,130,1,,,,,,,,
,,,,,,,,,,,,,FF,,,,,,,,1.033,,,,,,,,,,,,,,,,,,,,,,61003a57b29e11c1531ed75f,61037629a452c5827585ee67,2021-07-29_21h27.05.548,Simcolourproject_2stim_asymm_v5,2020.2.10,Win32,60,61025ae37ef11b136ea224fe,,,,,,,,,493,20,36,1,0,0,response1disk,,7,7,5,1,0,0,rectangle,7,5,1,0,0,7,5,1,0,0,1,50,210,94,1,,,,,,,,
,,,,,,,,,,,,,FF,,,,,,,,1.483,,,,,,,,,,,,,,,,,,,,,,61003a57b29e11c1531ed75f,61037629a452c5827585ee67,2021-07-29_21h27.05.548,Simcolourproject_2stim_asymm_v5,2020.2.10,Win32,60,61025ae37ef11b136ea224fe,,,,,,,,,2602,23,37,1,0,0,response1disk,,7,-7,0,1,0,0,rectangle,-7,0,1,0,0,-7,0,1,0,0,1,51,211,113,1,,,,,,,,
,,,,,,,,,,,,,FF,,,,,,,,1.6,,,,,,,,,,,,,,,,,,,,,,61003a57b29e11c1531ed75f,61037629a452c5827585ee67,2021-07-29_21h27.05.548,Simcolourproject_2stim_asymm_v5,2020.2.10,Win32,60,61025ae37ef11b136ea224fe,,,,,,,,,81,-26,53,1,0,0,response7disk,,0,-6,2,1,0,0,rectangle,-6,2,1,0,0,-6,2,1,0,0,1,52,212,143,1,,,,,,,,
,,,,,,,,,,,,,FF,,,,,,,,1.166,,,,,,,,,,,,,,,,,,,,,,61003a57b29e11c1531ed75f,61037629a452c5827585ee67,2021-07-29_21h27.05.548,Simcolourproject_2stim_asymm_v5,2020.2.10,Win32,60,61025ae37ef11b136ea224fe,,,,,,,,,4303,21,32,1,0,0,response1disk,,7,1,2,1,0,0,rectangle,1,2,1,0,0,1,2,1,0,0,1,53,213,148,1,,,,,,,,
,,,,,,,,,,,,,FF,,,,,,,,0.983,,,,,,,,,,,,,,,,,,,,,,61003a57b29e11c1531ed75f,61037629a452c5827585ee67,2021-07-29_21h27.05.548,Simcolourproject_2stim_asymm_v5,2020.2.10,Win32,60,61025ae37ef11b136ea224fe,,,,,,,,,2511,27,42,1,0,0,response1disk,,7,-6,0,1,0,0,rectangle,-6,0,1,0,0,-6,0,1,0,0,1,54,214,16,1,,,,,,,,
,,,,,,,,,,,,,FF,,,,,,,,0.999,,,,,,,,,,,,,,,,,,,,,,61003a57b29e11c1531ed75f,61037629a452c5827585ee67,2021-07-29_21h27.05.548,Simcolourproject_2stim_asymm_v5,2020.2.10,Win32,60,61025ae37ef11b136ea224fe,,,,,,,,,1398,-25,44,1,0,0,response7disk,,0,-1,1,1,0,0,rectangle,-1,1,1,0,0,-1,1,1,0,0,1,55,215,146,1,,,,,,,,
,,,,,,,,,,,,,FF,,,,,,,,1.566,,,,,,,,,,,,,,,,,,,,,,61003a57b29e11c1531ed75f,61037629a452c5827585ee67,2021-07-29_21h27.05.548,Simcolourproject_2stim_asymm_v5,2020.2.10,Win32,60,61025ae37ef11b136ea224fe,,,,,,,,,4019,-41,70,1,0,0,response7disk,,0,0,7,1,0,0,rectangle,0,7,1,0,0,0,7,1,0,0,1,56,216,93,1,,,,,,,,
,,,,,,,,,,,,,FF,,,,,,,,1.016,,,,,,,,,,,,,,,,,,,,,,61003a57b29e11c1531ed75f,61037629a452c5827585ee67,2021-07-29_21h27.05.548,Simcolourproject_2stim_asymm_v5,2020.2.10,Win32,60,61025ae37ef11b136ea224fe,,,,,,,,,2683,-27,74,1,0,0,response7disk,,0,11,-3,1,0,0,rectangle,11,-3,1,0,0,11,-3,1,0,0,1,57,217,129,1,,,,,,,,
,,,,,,,,,,,,,FF,,,,,,,,1.25,,,,,,,,,,,,,,,,,,,,,,61003a57b29e11c1531ed75f,61037629a452c5827585ee67,2021-07-29_21h27.05.548,Simcolourproject_2stim_asymm_v5,2020.2.10,Win32,60,61025ae37ef11b136ea224fe,,,,,,,,,4301,24,42,1,0,0,response1disk,,7,2,0,1,0,0,rectangle,2,0,1,0,0,2,0,1,0,0,1,58,218,60,1,,,,,,,,
,,,,,,,,,,,,,FF,,,,,,,,2.299,,,,,,,,,,,,,,,,,,,,,,61003a57b29e11c1531ed75f,61037629a452c5827585ee67,2021-07-29_21h27.05.548,Simcolourproject_2stim_asymm_v5,2020.2.10,Win32,60,61025ae37ef11b136ea224fe,,,,,,,,,4255,-21,36,1,0,0,response7disk,,0,-8,7,1,0,0,rectangle,-8,7,1,0,0,-8,7,1,0,0,1,59,219,51,1,,,,,,,,
,,,,,,,,,,,,,FF,,,,,,,,1.033,,,,,,,,,,,,,,,,,,,,,,61003a57b29e11c1531ed75f,61037629a452c5827585ee67,2021-07-29_21h27.05.548,Simcolourproject_2stim_asymm_v5,2020.2.10,Win32,60,61025ae37ef11b136ea224fe,,,,,,,,,3564,17,42,1,0,0,response1disk,,7,-6,10,1,0,0,rectangle,-6,10,1,0,0,-6,10,1,0,0,1,60,220,66,1,,,,,,,,
,,,,,,,,,,,,,FF,,,,,,,,1.183,,,,,,,,,,,,,,,,,,,,,,61003a57b29e11c1531ed75f,61037629a452c5827585ee67,2021-07-29_21h27.05.548,Simcolourproject_2stim_asymm_v5,2020.2.10,Win32,60,61025ae37ef11b136ea224fe,,,,,,,,,239,-21,48,1,0,0,response7disk,,0,7,10,1,0,0,rectangle,7,10,1,0,0,7,10,1,0,0,1,61,221,119,1,,,,,,,,
,,,,,,,,,,,,,FF,,,,,,,,2.335,,,,,,,,,,,,,,,,,,,,,,61003a57b29e11c1531ed75f,61037629a452c5827585ee67,2021-07-29_21h27.05.548,Simcolourproject_2stim_asymm_v5,2020.2.10,Win32,60,61025ae37ef11b136ea224fe,,,,,,,,,3673,30,62,1,0,0,response1disk,,7,7,-6,1,0,0,rectangle,7,-6,1,0,0,7,-6,1,0,0,1,62,222,25,1,,,,,,,,
,,,,,,,,,,,,,FF,,,,,,,,1.382,,,,,,,,,,,,,,,,,,,,,,61003a57b29e11c1531ed75f,61037629a452c5827585ee67,2021-07-29_21h27.05.548,Simcolourproject_2stim_asymm_v5,2020.2.10,Win32,60,61025ae37ef11b136ea224fe,,,,,,,,,3597,-29,45,1,0,0,response7disk,,0,-1,3,1,0,0,rectangle,-1,3,1,0,0,-1,3,1,0,0,1,63,223,151,1,,,,,,,,
,,,,,,,,,,,,,FF,,,,,,,,1.316,,,,,,,,,,,,,,,,,,,,,,61003a57b29e11c1531ed75f,61037629a452c5827585ee67,2021-07-29_21h27.05.548,Simcolourproject_2stim_asymm_v5,2020.2.10,Win32,60,61025ae37ef11b136ea224fe,,,,,,,,,3434,-28,37,1,0,0,response7disk,,0,0,11,1,0,0,rectangle,0,11,1,0,0,0,11,1,0,0,1,64,224,154,1,,,,,,,,
,,,,,,,,,,,,,FF,,,,,,,,1.549,,,,,,,,,,,,,,,,,,,,,,61003a57b29e11c1531ed75f,61037629a452c5827585ee67,2021-07-29_21h27.05.548,Simcolourproject_2stim_asymm_v5,2020.2.10,Win32,60,61025ae37ef11b136ea224fe,,,,,,,,,3851,-31,55,1,0,0,response7disk,,0,-5,12,1,0,0,rectangle,-5,12,1,0,0,-5,12,1,0,0,1,65,225,81,1,,,,,,,,
,,,,,,,,,,,,,FF,,,,,,,,1.167,,,,,,,,,,,,,,,,,,,,,,61003a57b29e11c1531ed75f,61037629a452c5827585ee67,2021-07-29_21h27.05.548,Simcolourproject_2stim_asymm_v5,2020.2.10,Win32,60,61025ae37ef11b136ea224fe,,,,,,,,,2352,-41,65,1,0,0,response7disk,,0,0,-1,1,0,0,rectangle,0,-1,1,0,0,0,-1,1,0,0,1,66,226,52,1,,,,,,,,
,,,,,,,,,,,,,FF,,,,,,,,1.334,,,,,,,,,,,,,,,,,,,,,,61003a57b29e11c1531ed75f,61037629a452c5827585ee67,2021-07-29_21h27.05.548,Simcolourproject_2stim_asymm_v5,2020.2.10,Win32,60,61025ae37ef11b136ea224fe,,,,,,,,,3716,-17,42,1,0,0,response7disk,,0,-3,9,1,0,0,rectangle,-3,9,1,0,0,-3,9,1,0,0,1,67,227,152,1,,,,,,,,
,,,,,,,,,,,,,FF,,,,,,,,1.417,,,,,,,,,,,,,,,,,,,,,,61003a57b29e11c1531ed75f,61037629a452c5827585ee67,2021-07-29_21h27.05.548,Simcolourproject_2stim_asymm_v5,2020.2.10,Win32,60,61025ae37ef11b136ea224fe,,,,,,,,,1125,16,30,1,0,0,response1disk,,7,4,8,1,0,0,rectangle,4,8,1,0,0,4,8,1,0,0,1,68,228,91,1,,,,,,,,
,,,,,,,,,,,,,FF,,,,,,,,1.117,,,,,,,,,,,,,,,,,,,,,,61003a57b29e11c1531ed75f,61037629a452c5827585ee67,2021-07-29_21h27.05.548,Simcolourproject_2stim_asymm_v5,2020.2.10,Win32,60,61025ae37ef11b136ea224fe,,,,,,,,,3419,-25,45,1,0,0,response7disk,,0,-8,8,1,0,0,rectangle,-8,8,1,0,0,-8,8,1,0,0,1,69,229,135,1,,,,,,,,
,,,,,,,,,,,,,FF,,,,,,,,1.166,,,,,,,,,,,,,,,,,,,,,,61003a57b29e11c1531ed75f,61037629a452c5827585ee67,2021-07-29_21h27.05.548,Simcolourproject_2stim_asymm_v5,2020.2.10,Win32,60,61025ae37ef11b136ea224fe,,,,,,,,,2027,-25,47,1,0,0,response7disk,,0,-6,2,1,0,0,rectangle,-6,2,1,0,0,-6,2,1,0,0,1,70,230,44,1,,,,,,,,
,,,,,,,,,,,,,FF,,,,,,,,1.234,,,,,,,,,,,,,,,,,,,,,,61003a57b29e11c1531ed75f,61037629a452c5827585ee67,2021-07-29_21h27.05.548,Simcolourproject_2stim_asymm_v5,2020.2.10,Win32,60,61025ae37ef11b136ea224fe,,,,,,,,,738,-24,44,1,0,0,response7disk,,0,1,8,1,0,0,rectangle,1,8,1,0,0,1,8,1,0,0,1,71,231,32,1,,,,,,,,
,,,,,,,,,,,,,FF,,,,,,,,1.383,,,,,,,,,,,,,,,,,,,,,,61003a57b29e11c1531ed75f,61037629a452c5827585ee67,2021-07-29_21h27.05.548,Simcolourproject_2stim_asymm_v5,2020.2.10,Win32,60,61025ae37ef11b136ea224fe,,,,,,,,,1524,-20,40,1,0,0,response7disk,,0,-3,12,1,0,0,rectangle,-3,12,1,0,0,-3,12,1,0,0,1,72,232,54,1,,,,,,,,
,,,,,,,,,,,,,FF,,,,,,,,1.066,,,,,,,,,,,,,,,,,,,,,,61003a57b29e11c1531ed75f,61037629a452c5827585ee67,2021-07-29_21h27.05.548,Simcolourproject_2stim_asymm_v5,2020.2.10,Win32,60,61025ae37ef11b136ea224fe,,,,,,,,,2072,30,51,1,0,0,response1disk,,7,-17,1,1,0,0,rectangle,-17,1,1,0,0,-17,1,1,0,0,1,73,233,48,1,,,,,,,,
,,,,,,,,,,,,,FF,,,,,,,,1.316,,,,,,,,,,,,,,,,,,,,,,61003a57b29e11c1531ed75f,61037629a452c5827585ee67,2021-07-29_21h27.05.548,Simcolourproject_2stim_asymm_v5,2020.2.10,Win32,60,61025ae37ef11b136ea224fe,,,,,,,,,959,17,33,1,0,0,response1disk,,7,-1,4,1,0,0,rectangle,-1,4,1,0,0,-1,4,1,0,0,1,74,234,27,1,,,,,,,,
,,,,,,,,,,,,,FF,,,,,,,,1,,,,,,,,,,,,,,,,,,,,,,61003a57b29e11c1531ed75f,61037629a452c5827585ee67,2021-07-29_21h27.05.548,Simcolourproject_2stim_asymm_v5,2020.2.10,Win32,60,61025ae37ef11b136ea224fe,,,,,,,,,3197,-32,60,1,0,0,response7disk,,0,6,-8,1,0,0,rectangle,-62,-43,1,0,0,-8,2,1,0,0,1,75,235,17,1,,response5disk_3,TRUE,2,2,"[61,108,31,236,282,52,79,135,32,170,25,194,106,44,240,105,153,192,104,46]",2.466,rectangle
,,,,,,,,,,,,,FF,,,,,,,,1.099,,,,,,,,,,,,,,,,,,,,,,61003a57b29e11c1531ed75f,61037629a452c5827585ee67,2021-07-29_21h27.05.548,Simcolourproject_2stim_asymm_v5,2020.2.10,Win32,60,61025ae37ef11b136ea224fe,,,,,,,,,4251,-49,72,1,0,0,response7disk,,0,-15,9,1,0,0,rectangle,-15,9,1,0,0,-15,9,1,0,0,1,76,236,73,1,,,,,,,,
,,,,,,,,,,,,,FF,,,,,,,,1.151,,,,,,,,,,,,,,,,,,,,,,61003a57b29e11c1531ed75f,61037629a452c5827585ee67,2021-07-29_21h27.05.548,Simcolourproject_2stim_asymm_v5,2020.2.10,Win32,60,61025ae37ef11b136ea224fe,,,,,,,,,172,-24,40,1,0,0,response7disk,,0,-4,1,1,0,0,rectangle,-4,1,1,0,0,-4,1,1,0,0,1,77,237,123,1,,,,,,,,
,,,,,,,,,,,,,FF,,,,,,,,1.683,,,,,,,,,,,,,,,,,,,,,,61003a57b29e11c1531ed75f,61037629a452c5827585ee67,2021-07-29_21h27.05.548,Simcolourproject_2stim_asymm_v5,2020.2.10,Win32,60,61025ae37ef11b136ea224fe,,,,,,,,,570,24,58,1,0,0,response1disk,,7,-8,7,1,0,0,rectangle,-8,7,1,0,0,-8,7,1,0,0,1,78,238,144,1,,,,,,,,
,,,,,,,,,,,,,FF,,,,,,,,0.999,,,,,,,,,,,,,,,,,,,,,,61003a57b29e11c1531ed75f,61037629a452c5827585ee67,2021-07-29_21h27.05.548,Simcolourproject_2stim_asymm_v5,2020.2.10,Win32,60,61025ae37ef11b136ea224fe,,,,,,,,,3676,-28,67,1,0,0,response7disk,,0,5,-7,1,0,0,rectangle,-26,41,1,0,0,-11,1,1,0,0,1,79,239,149,1,,response7disk_3,TRUE,0,0,"[61,108,31,236,282,52,79,135,32,170,25,194,106,44,240,105,153,192,104,46]",2.966,rectangle
,,,,,,,,,,,,,FF,,,,,,,,1.084,,,,,,,,,,,,,,,,,,,,,,61003a57b29e11c1531ed75f,61037629a452c5827585ee67,2021-07-29_21h27.05.548,Simcolourproject_2stim_asymm_v5,2020.2.10,Win32,60,61025ae37ef11b136ea224fe,,,,,,,,,2964,26,45,1,0,0,response1disk,,7,1,9,1,0,0,rectangle,1,9,1,0,0,1,9,1,0,0,1,80,240,57,1,,,,,,,,
,,,,,,,,,,,,,FF,,,,,,,,1.099,,,,,,,,,,,,,,,,,,,,,,61003a57b29e11c1531ed75f,61037629a452c5827585ee67,2021-07-29_21h27.05.548,Simcolourproject_2stim_asymm_v5,2020.2.10,Win32,60,61025ae37ef11b136ea224fe,,,,,,,,,633,-21,49,1,0,0,response7disk,,0,1,-12,1,0,0,rectangle,1,-12,1,0,0,1,-12,1,0,0,1,81,241,21,1,,,,,,,,
,,,,,,,,,,,,,FF,,,,,,,,1.017,,,,,,,,,,,,,,,,,,,,,,61003a57b29e11c1531ed75f,61037629a452c5827585ee67,2021-07-29_21h27.05.548,Simcolourproject_2stim_asymm_v5,2020.2.10,Win32,60,61025ae37ef11b136ea224fe,,,,,,,,,3924,-37,68,1,0,0,response7disk,,0,-7,12,1,0,0,rectangle,-7,12,1,0,0,-7,12,1,0,0,1,82,242,116,1,,,,,,,,
,,,,,,,,,,,,,FF,,,,,,,,1.617,,,,,,,,,,,,,,,,,,,,,,61003a57b29e11c1531ed75f,61037629a452c5827585ee67,2021-07-29_21h27.05.548,Simcolourproject_2stim_asymm_v5,2020.2.10,Win32,60,61025ae37ef11b136ea224fe,,,,,,,,,628,37,60,1,0,0,response1disk,,7,-14,3,1,0,0,rectangle,-14,3,1,0,0,-14,3,1,0,0,1,83,243,110,1,,,,,,,,
,,,,,,,,,,,,,FF,,,,,,,,1.117,,,,,,,,,,,,,,,,,,,,,,61003a57b29e11c1531ed75f,61037629a452c5827585ee67,2021-07-29_21h27.05.548,Simcolourproject_2stim_asymm_v5,2020.2.10,Win32,60,61025ae37ef11b136ea224fe,,,,,,,,,2117,16,52,1,0,0,response1disk,,7,14,-9,1,0,0,rectangle,14,-9,1,0,0,14,-9,1,0,0,1,84,244,65,1,,,,,,,,
,,,,,,,,,,,,,FF,,,,,,,,1.533,,,,,,,,,,,,,,,,,,,,,,61003a57b29e11c1531ed75f,61037629a452c5827585ee67,2021-07-29_21h27.05.548,Simcolourproject_2stim_asymm_v5,2020.2.10,Win32,60,61025ae37ef11b136ea224fe,,,,,,,,,3771,33,47,1,0,0,response1disk,,7,11,5,1,0,0,rectangle,11,5,1,0,0,11,5,1,0,0,1,85,245,71,1,,,,,,,,
,,,,,,,,,,,,,FF,,,,,,,,1.166,,,,,,,,,,,,,,,,,,,,,,61003a57b29e11c1531ed75f,61037629a452c5827585ee67,2021-07-29_21h27.05.548,Simcolourproject_2stim_asymm_v5,2020.2.10,Win32,60,61025ae37ef11b136ea224fe,,,,,,,,,3154,-19,59,1,0,0,response7disk,,0,-1,8,1,0,0,rectangle,-1,8,1,0,0,-1,8,1,0,0,1,86,246,120,1,,,,,,,,
,,,,,,,,,,,,,FF,,,,,,,,1.217,,,,,,,,,,,,,,,,,,,,,,61003a57b29e11c1531ed75f,61037629a452c5827585ee67,2021-07-29_21h27.05.548,Simcolourproject_2stim_asymm_v5,2020.2.10,Win32,60,61025ae37ef11b136ea224fe,,,,,,,,,732,21,35,1,0,0,response1disk,,7,-8,-12,1,0,0,rectangle,-8,-12,1,0,0,-8,-12,1,0,0,1,87,247,97,1,,,,,,,,
,,,,,,,,,,,,,FF,,,,,,,,1.033,,,,,,,,,,,,,,,,,,,,,,61003a57b29e11c1531ed75f,61037629a452c5827585ee67,2021-07-29_21h27.05.548,Simcolourproject_2stim_asymm_v5,2020.2.10,Win32,60,61025ae37ef11b136ea224fe,,,,,,,,,881,-41,49,1,0,0,response7disk,,0,-20,-2,1,0,0,rectangle,-20,-2,1,0,0,-20,-2,1,0,0,1,88,248,133,1,,,,,,,,
,,,,,,,,,,,,,FF,,,,,,,,1.75,,,,,,,,,,,,,,,,,,,,,,61003a57b29e11c1531ed75f,61037629a452c5827585ee67,2021-07-29_21h27.05.548,Simcolourproject_2stim_asymm_v5,2020.2.10,Win32,60,61025ae37ef11b136ea224fe,,,,,,,,,3503,-20,45,1,0,0,response7disk,,0,4,-2,1,0,0,rectangle,4,-2,1,0,0,4,-2,1,0,0,1,89,249,88,1,,,,,,,,
,,,,,,,,,,,,,FF,,,,,,,,1.017,,,,,,,,,,,,,,,,,,,,,,61003a57b29e11c1531ed75f,61037629a452c5827585ee67,2021-07-29_21h27.05.548,Simcolourproject_2stim_asymm_v5,2020.2.10,Win32,60,61025ae37ef11b136ea224fe,,,,,,,,,717,-22,52,1,0,0,response7disk,,0,-2,8,1,0,0,rectangle,-2,8,1,0,0,-2,8,1,0,0,1,90,250,10,1,,,,,,,,
,,,,,,,,,,,,,FF,,,,,,,,1.066,,,,,,,,,,,,,,,,,,,,,,61003a57b29e11c1531ed75f,61037629a452c5827585ee67,2021-07-29_21h27.05.548,Simcolourproject_2stim_asymm_v5,2020.2.10,Win32,60,61025ae37ef11b136ea224fe,,,,,,,,,2434,30,49,1,0,0,response1disk,,7,-9,-3,1,0,0,rectangle,-9,-3,1,0,0,-9,-3,1,0,0,1,91,251,80,1,,,,,,,,
,,,,,,,,,,,,,FF,,,,,,,,1.2,,,,,,,,,,,,,,,,,,,,,,61003a57b29e11c1531ed75f,61037629a452c5827585ee67,2021-07-29_21h27.05.548,Simcolourproject_2stim_asymm_v5,2020.2.10,Win32,60,61025ae37ef11b136ea224fe,,,,,,,,,888,-19,35,1,0,0,response7disk,,0,-15,11,1,0,0,rectangle,-15,11,1,0,0,-15,11,1,0,0,1,92,252,99,1,,,,,,,,
,,,,,,,,,,,,,FF,,,,,,,,1.033,,,,,,,,,,,,,,,,,,,,,,61003a57b29e11c1531ed75f,61037629a452c5827585ee67,2021-07-29_21h27.05.548,Simcolourproject_2stim_asymm_v5,2020.2.10,Win32,60,61025ae37ef11b136ea224fe,,,,,,,,,3744,-28,42,1,0,0,response7disk,,0,-5,-7,1,0,0,rectangle,-5,-7,1,0,0,-5,-7,1,0,0,1,93,253,137,1,,,,,,,,
,,,,,,,,,,,,,FF,,,,,,,,1.2,,,,,,,,,,,,,,,,,,,,,,61003a57b29e11c1531ed75f,61037629a452c5827585ee67,2021-07-29_21h27.05.548,Simcolourproject_2stim_asymm_v5,2020.2.10,Win32,60,61025ae37ef11b136ea224fe,,,,,,,,,3000,-18,43,1,0,0,response7disk,,0,-7,12,1,0,0,rectangle,-7,12,1,0,0,-7,12,1,0,0,1,94,254,53,1,,,,,,,,
,,,,,,,,,,,,,FF,,,,,,,,1.15,,,,,,,,,,,,,,,,,,,,,,61003a57b29e11c1531ed75f,61037629a452c5827585ee67,2021-07-29_21h27.05.548,Simcolourproject_2stim_asymm_v5,2020.2.10,Win32,60,61025ae37ef11b136ea224fe,,,,,,,,,3537,20,47,1,0,0,response1disk,,7,-5,-9,1,0,0,rectangle,-5,-9,1,0,0,-5,-9,1,0,0,1,95,255,85,1,,,,,,,,
,,,,,,,,,,,,,FF,,,,,,,,1.448,,,,,,,,,,,,,,,,,,,,,,61003a57b29e11c1531ed75f,61037629a452c5827585ee67,2021-07-29_21h27.05.548,Simcolourproject_2stim_asymm_v5,2020.2.10,Win32,60,61025ae37ef11b136ea224fe,,,,,,,,,2617,16,52,1,0,0,response1disk,,7,9,8,1,0,0,rectangle,9,8,1,0,0,9,8,1,0,0,1,96,256,12,1,,,,,,,,
,,,,,,,,,,,,,FF,,,,,,,,1.016,,,,,,,,,,,,,,,,,,,,,,61003a57b29e11c1531ed75f,61037629a452c5827585ee67,2021-07-29_21h27.05.548,Simcolourproject_2stim_asymm_v5,2020.2.10,Win32,60,61025ae37ef11b136ea224fe,,,,,,,,,1112,26,36,1,0,0,response1disk,,7,1,3,1,0,0,rectangle,1,3,1,0,0,1,3,1,0,0,1,97,257,136,1,,,,,,,,
,,,,,,,,,,,,,FF,,,,,,,,2.117,,,,,,,,,,,,,,,,,,,,,,61003a57b29e11c1531ed75f,61037629a452c5827585ee67,2021-07-29_21h27.05.548,Simcolourproject_2stim_asymm_v5,2020.2.10,Win32,60,61025ae37ef11b136ea224fe,,,,,,,,,4262,23,46,1,0,0,response1disk,,7,-8,-4,1,0,0,rectangle,-8,-4,1,0,0,-8,-4,1,0,0,1,98,258,15,1,,,,,,,,
,,,,,,,,,,,,,FF,,,,,,,,1.617,,,,,,,,,,,,,,,,,,,,,,61003a57b29e11c1531ed75f,61037629a452c5827585ee67,2021-07-29_21h27.05.548,Simcolourproject_2stim_asymm_v5,2020.2.10,Win32,60,61025ae37ef11b136ea224fe,,,,,,,,,3656,21,45,1,0,0,response1disk,,7,-9,-9,1,0,0,rectangle,-9,-9,1,0,0,-9,-9,1,0,0,1,99,259,47,1,,,,,,,,
,,,,,,,,,,,,,FF,,,,,,,,2.017,,,,,,,,,,,,,,,,,,,,,,61003a57b29e11c1531ed75f,61037629a452c5827585ee67,2021-07-29_21h27.05.548,Simcolourproject_2stim_asymm_v5,2020.2.10,Win32,60,61025ae37ef11b136ea224fe,,,,,,,,,305,23,32,1,0,0,response1disk,,7,1,-9,1,0,0,rectangle,1,-9,1,0,0,1,-9,1,0,0,1,100,260,115,1,,,,,,,,
,,,,,,,,,,,,,FF,,,,,,,,0.999,,,,,,,,,,,,,,,,,,,,,,61003a57b29e11c1531ed75f,61037629a452c5827585ee67,2021-07-29_21h27.05.548,Simcolourproject_2stim_asymm_v5,2020.2.10,Win32,60,61025ae37ef11b136ea224fe,,,,,,,,,162,-21,37,1,0,0,response7disk,,0,6,4,1,0,0,rectangle,6,4,1,0,0,6,4,1,0,0,1,101,261,109,1,,,,,,,,
,,,,,,,,,,,,,FF,,,,,,,,1.5,,,,,,,,,,,,,,,,,,,,,,61003a57b29e11c1531ed75f,61037629a452c5827585ee67,2021-07-29_21h27.05.548,Simcolourproject_2stim_asymm_v5,2020.2.10,Win32,60,61025ae37ef11b136ea224fe,,,,,,,,,3670,-32,52,1,0,0,response7disk,,0,-4,10,1,0,0,rectangle,-4,10,1,0,0,-4,10,1,0,0,1,102,262,63,1,,,,,,,,
,,,,,,,,,,,,,FF,,,,,,,,1.032,,,,,,,,,,,,,,,,,,,,,,61003a57b29e11c1531ed75f,61037629a452c5827585ee67,2021-07-29_21h27.05.548,Simcolourproject_2stim_asymm_v5,2020.2.10,Win32,60,61025ae37ef11b136ea224fe,,,,,,,,,1622,20,58,1,0,0,response1disk,,7,-12,6,1,0,0,rectangle,-12,6,1,0,0,-12,6,1,0,0,1,103,263,127,1,,,,,,,,
,,,,,,,,,,,,,FF,,,,,,,,0.95,,,,,,,,,,,,,,,,,,,,,,61003a57b29e11c1531ed75f,61037629a452c5827585ee67,2021-07-29_21h27.05.548,Simcolourproject_2stim_asymm_v5,2020.2.10,Win32,60,61025ae37ef11b136ea224fe,,,,,,,,,78,-37,52,1,0,0,response7disk,,0,-10,8,1,0,0,rectangle,-10,8,1,0,0,-10,8,1,0,0,1,104,264,45,1,,,,,,,,
,,,,,,,,,,,,,FF,,,,,,,,0.983,,,,,,,,,,,,,,,,,,,,,,61003a57b29e11c1531ed75f,61037629a452c5827585ee67,2021-07-29_21h27.05.548,Simcolourproject_2stim_asymm_v5,2020.2.10,Win32,60,61025ae37ef11b136ea224fe,,,,,,,,,401,18,44,1,0,0,response1disk,,7,4,9,1,0,0,rectangle,4,9,1,0,0,4,9,1,0,0,1,105,265,19,1,,,,,,,,
,,,,,,,,,,,,,FF,,,,,,,,0.967,,,,,,,,,,,,,,,,,,,,,,61003a57b29e11c1531ed75f,61037629a452c5827585ee67,2021-07-29_21h27.05.548,Simcolourproject_2stim_asymm_v5,2020.2.10,Win32,60,61025ae37ef11b136ea224fe,,,,,,,,,1514,23,30,1,0,0,response1disk,,7,2,4,1,0,0,rectangle,2,4,1,0,0,2,4,1,0,0,1,106,266,56,1,,,,,,,,
,,,,,,,,,,,,,FF,,,,,,,,1.234,,,,,,,,,,,,,,,,,,,,,,61003a57b29e11c1531ed75f,61037629a452c5827585ee67,2021-07-29_21h27.05.548,Simcolourproject_2stim_asymm_v5,2020.2.10,Win32,60,61025ae37ef11b136ea224fe,,,,,,,,,2704,-27,48,1,0,0,response7disk,,0,8,-7,1,0,0,rectangle,8,-7,1,0,0,8,-7,1,0,0,1,107,267,36,1,,,,,,,,
,,,,,,,,,,,,,FF,,,,,,,,1.316,,,,,,,,,,,,,,,,,,,,,,61003a57b29e11c1531ed75f,61037629a452c5827585ee67,2021-07-29_21h27.05.548,Simcolourproject_2stim_asymm_v5,2020.2.10,Win32,60,61025ae37ef11b136ea224fe,,,,,,,,,72,-27,38,1,0,0,response7disk,,0,-14,6,1,0,0,rectangle,-14,6,1,0,0,-14,6,1,0,0,1,108,268,96,1,,,,,,,,
,,,,,,,,,,,,,FF,,,,,,,,1.083,,,,,,,,,,,,,,,,,,,,,,61003a57b29e11c1531ed75f,61037629a452c5827585ee67,2021-07-29_21h27.05.548,Simcolourproject_2stim_asymm_v5,2020.2.10,Win32,60,61025ae37ef11b136ea224fe,,,,,,,,,334,17,50,1,0,0,response1disk,,7,2,6,1,0,0,rectangle,2,6,1,0,0,2,6,1,0,0,1,109,269,121,1,,,,,,,,
,,,,,,,,,,,,,FF,,,,,,,,1.067,,,,,,,,,,,,,,,,,,,,,,61003a57b29e11c1531ed75f,61037629a452c5827585ee67,2021-07-29_21h27.05.548,Simcolourproject_2stim_asymm_v5,2020.2.10,Win32,60,61025ae37ef11b136ea224fe,,,,,,,,,1081,33,52,1,0,0,response1disk,,7,-5,0,1,0,0,rectangle,-5,0,1,0,0,-5,0,1,0,0,1,110,270,95,1,,,,,,,,
,,,,,,,,,,,,,FF,,,,,,,,0.934,,,,,,,,,,,,,,,,,,,,,,61003a57b29e11c1531ed75f,61037629a452c5827585ee67,2021-07-29_21h27.05.548,Simcolourproject_2stim_asymm_v5,2020.2.10,Win32,60,61025ae37ef11b136ea224fe,,,,,,,,,3770,-31,45,1,0,0,response7disk,,0,3,3,1,0,0,rectangle,3,3,1,0,0,3,3,1,0,0,1,111,271,4,1,,,,,,,,
,,,,,,,,,,,,,FF,,,,,,,,1.166,,,,,,,,,,,,,,,,,,,,,,61003a57b29e11c1531ed75f,61037629a452c5827585ee67,2021-07-29_21h27.05.548,Simcolourproject_2stim_asymm_v5,2020.2.10,Win32,60,61025ae37ef11b136ea224fe,,,,,,,,,2809,29,41,1,0,0,response1disk,,7,1,14,1,0,0,rectangle,1,14,1,0,0,1,14,1,0,0,1,112,272,70,1,,,,,,,,
,,,,,,,,,,,,,FF,,,,,,,,1.265,,,,,,,,,,,,,,,,,,,,,,61003a57b29e11c1531ed75f,61037629a452c5827585ee67,2021-07-29_21h27.05.548,Simcolourproject_2stim_asymm_v5,2020.2.10,Win32,60,61025ae37ef11b136ea224fe,,,,,,,,,1831,-52,66,1,0,0,response7disk,,0,-10,1,1,0,0,rectangle,-10,1,1,0,0,-10,1,1,0,0,1,113,273,112,1,,,,,,,,
,,,,,,,,,,,,,FF,,,,,,,,1.249,,,,,,,,,,,,,,,,,,,,,,61003a57b29e11c1531ed75f,61037629a452c5827585ee67,2021-07-29_21h27.05.548,Simcolourproject_2stim_asymm_v5,2020.2.10,Win32,60,61025ae37ef11b136ea224fe,,,,,,,,,565,17,31,1,0,0,response1disk,,7,2,1,1,0,0,rectangle,2,1,1,0,0,2,1,1,0,0,1,114,274,126,1,,,,,,,,
,,,,,,,,,,,,,FF,,,,,,,,1.433,,,,,,,,,,,,,,,,,,,,,,61003a57b29e11c1531ed75f,61037629a452c5827585ee67,2021-07-29_21h27.05.548,Simcolourproject_2stim_asymm_v5,2020.2.10,Win32,60,61025ae37ef11b136ea224fe,,,,,,,,,1163,24,58,1,0,0,response1disk,,7,-6,1,1,0,0,rectangle,-6,1,1,0,0,-6,1,1,0,0,1,115,275,61,1,,,,,,,,
,,,,,,,,,,,,,FF,,,,,,,,1.099,,,,,,,,,,,,,,,,,,,,,,61003a57b29e11c1531ed75f,61037629a452c5827585ee67,2021-07-29_21h27.05.548,Simcolourproject_2stim_asymm_v5,2020.2.10,Win32,60,61025ae37ef11b136ea224fe,,,,,,,,,2009,22,36,1,0,0,response1disk,,7,14,10,1,0,0,rectangle,14,10,1,0,0,14,10,1,0,0,1,116,276,34,1,,,,,,,,
,,,,,,,,,,,,,FF,,,,,,,,1.316,,,,,,,,,,,,,,,,,,,,,,61003a57b29e11c1531ed75f,61037629a452c5827585ee67,2021-07-29_21h27.05.548,Simcolourproject_2stim_asymm_v5,2020.2.10,Win32,60,61025ae37ef11b136ea224fe,,,,,,,,,2295,-38,51,1,0,0,response7disk,,0,4,10,1,0,0,rectangle,4,10,1,0,0,4,10,1,0,0,1,117,277,106,1,,,,,,,,
,,,,,,,,,,,,,FF,,,,,,,,1.049,,,,,,,,,,,,,,,,,,,,,,61003a57b29e11c1531ed75f,61037629a452c5827585ee67,2021-07-29_21h27.05.548,Simcolourproject_2stim_asymm_v5,2020.2.10,Win32,60,61025ae37ef11b136ea224fe,,,,,,,,,3384,-15,50,1,0,0,response7disk,,0,-4,1,1,0,0,rectangle,-4,1,1,0,0,-4,1,1,0,0,1,118,278,20,1,,,,,,,,
,,,,,,,,,,,,,FF,,,,,,,,1.016,,,,,,,,,,,,,,,,,,,,,,61003a57b29e11c1531ed75f,61037629a452c5827585ee67,2021-07-29_21h27.05.548,Simcolourproject_2stim_asymm_v5,2020.2.10,Win32,60,61025ae37ef11b136ea224fe,,,,,,,,,3306,23,45,1,0,0,response1disk,,7,-1,13,1,0,0,rectangle,-1,13,1,0,0,-1,13,1,0,0,1,119,279,118,1,,,,,,,,
,,,,,,,,,,,,,FF,,,,,,,,1.749,,,,,,,,,,,,,,,,,,,,,,61003a57b29e11c1531ed75f,61037629a452c5827585ee67,2021-07-29_21h27.05.548,Simcolourproject_2stim_asymm_v5,2020.2.10,Win32,60,61025ae37ef11b136ea224fe,,,,,,,,,418,26,49,1,0,0,response1disk,,7,0,5,1,0,0,rectangle,0,5,1,0,0,0,5,1,0,0,1,120,280,31,1,,,,,,,,
,,,,,,,,,,,,,FF,,,,,,,,1.317,,,,,,,,,,,,,,,,,,,,,,61003a57b29e11c1531ed75f,61037629a452c5827585ee67,2021-07-29_21h27.05.548,Simcolourproject_2stim_asymm_v5,2020.2.10,Win32,60,61025ae37ef11b136ea224fe,,,,,,,,,808,-27,53,1,0,0,response7disk,,0,5,-3,1,0,0,rectangle,34,60,1,0,0,-9,-4,1,0,0,1,121,281,128,1,,response1disk_3,TRUE,7,0,"[61,108,31,236,282,52,79,135,32,170,25,194,106,44,240,105,153,192,104,46]",2.416,rectangle
,,,,,,,,,,,,,FF,,,,,,,,1.683,,,,,,,,,,,,,,,,,,,,,,61003a57b29e11c1531ed75f,61037629a452c5827585ee67,2021-07-29_21h27.05.548,Simcolourproject_2stim_asymm_v5,2020.2.10,Win32,60,61025ae37ef11b136ea224fe,,,,,,,,,2132,24,51,1,0,0,response1disk,,7,2,7,1,0,0,rectangle,2,7,1,0,0,2,7,1,0,0,1,122,282,92,1,,,,,,,,
,,,,,,,,,,,,,FF,,,,,,,,1.1,,,,,,,,,,,,,,,,,,,,,,61003a57b29e11c1531ed75f,61037629a452c5827585ee67,2021-07-29_21h27.05.548,Simcolourproject_2stim_asymm_v5,2020.2.10,Win32,60,61025ae37ef11b136ea224fe,,,,,,,,,1222,-34,71,1,0,0,response7disk,,0,-23,12,1,0,0,rectangle,-23,12,1,0,0,-23,12,1,0,0,1,123,283,84,1,,,,,,,,
,,,,,,,,,,,,,FF,,,,,,,,1.033,,,,,,,,,,,,,,,,,,,,,,61003a57b29e11c1531ed75f,61037629a452c5827585ee67,2021-07-29_21h27.05.548,Simcolourproject_2stim_asymm_v5,2020.2.10,Win32,60,61025ae37ef11b136ea224fe,,,,,,,,,1323,26,63,1,0,0,response1disk,,7,-7,-4,1,0,0,rectangle,-7,-4,1,0,0,-7,-4,1,0,0,1,124,284,82,1,,,,,,,,
,,,,,,,,,,,,,FF,,,,,,,,1.699,,,,,,,,,,,,,,,,,,,,,,61003a57b29e11c1531ed75f,61037629a452c5827585ee67,2021-07-29_21h27.05.548,Simcolourproject_2stim_asymm_v5,2020.2.10,Win32,60,61025ae37ef11b136ea224fe,,,,,,,,,640,23,51,1,0,0,response1disk,,7,6,12,1,0,0,rectangle,6,12,1,0,0,6,12,1,0,0,1,125,285,114,1,,,,,,,,
,,,,,,,,,,,,,FF,,,,,,,,1.117,,,,,,,,,,,,,,,,,,,,,,61003a57b29e11c1531ed75f,61037629a452c5827585ee67,2021-07-29_21h27.05.548,Simcolourproject_2stim_asymm_v5,2020.2.10,Win32,60,61025ae37ef11b136ea224fe,,,,,,,,,125,35,50,1,0,0,response1disk,,7,-7,8,1,0,0,rectangle,-7,8,1,0,0,-7,8,1,0,0,1,126,286,122,1,,,,,,,,
,,,,,,,,,,,,,FF,,,,,,,,1.066,,,,,,,,,,,,,,,,,,,,,,61003a57b29e11c1531ed75f,61037629a452c5827585ee67,2021-07-29_21h27.05.548,Simcolourproject_2stim_asymm_v5,2020.2.10,Win32,60,61025ae37ef11b136ea224fe,,,,,,,,,1688,17,49,1,0,0,response1disk,,7,0,3,1,0,0,rectangle,0,3,1,0,0,0,3,1,0,0,1,127,287,49,1,,,,,,,,
,,,,,,,,,,,,,FF,,,,,,,,1.45,,,,,,,,,,,,,,,,,,,,,,61003a57b29e11c1531ed75f,61037629a452c5827585ee67,2021-07-29_21h27.05.548,Simcolourproject_2stim_asymm_v5,2020.2.10,Win32,60,61025ae37ef11b136ea224fe,,,,,,,,,1971,30,61,1,0,0,response1disk,,7,14,10,1,0,0,rectangle,14,10,1,0,0,14,10,1,0,0,1,128,288,104,1,,,,,,,,
,,,,,,,,,,,,,FF,,,,,,,,1.483,,,,,,,,,,,,,,,,,,,,,,61003a57b29e11c1531ed75f,61037629a452c5827585ee67,2021-07-29_21h27.05.548,Simcolourproject_2stim_asymm_v5,2020.2.10,Win32,60,61025ae37ef11b136ea224fe,,,,,,,,,3525,-35,54,1,0,0,response7disk,,0,3,-5,1,0,0,rectangle,3,-5,1,0,0,3,-5,1,0,0,1,129,289,37,1,,,,,,,,
,,,,,,,,,,,,,FF,,,,,,,,0.999,,,,,,,,,,,,,,,,,,,,,,61003a57b29e11c1531ed75f,61037629a452c5827585ee67,2021-07-29_21h27.05.548,Simcolourproject_2stim_asymm_v5,2020.2.10,Win32,60,61025ae37ef11b136ea224fe,,,,,,,,,2524,37,47,1,0,0,response1disk,,7,22,3,1,0,0,rectangle,22,3,1,0,0,22,3,1,0,0,1,130,290,35,1,,,,,,,,
,,,,,,,,,,,,,FF,,,,,,,,1.682,,,,,,,,,,,,,,,,,,,,,,61003a57b29e11c1531ed75f,61037629a452c5827585ee67,2021-07-29_21h27.05.548,Simcolourproject_2stim_asymm_v5,2020.2.10,Win32,60,61025ae37ef11b136ea224fe,,,,,,,,,2772,-25,57,1,0,0,response7disk,,0,2,7,1,0,0,rectangle,2,7,1,0,0,2,7,1,0,0,1,131,291,6,1,,,,,,,,
,,,,,,,,,,,,,FF,,,,,,,,1.234,,,,,,,,,,,,,,,,,,,,,,61003a57b29e11c1531ed75f,61037629a452c5827585ee67,2021-07-29_21h27.05.548,Simcolourproject_2stim_asymm_v5,2020.2.10,Win32,60,61025ae37ef11b136ea224fe,,,,,,,,,3121,23,42,1,0,0,response1disk,,7,3,2,1,0,0,rectangle,3,2,1,0,0,3,2,1,0,0,1,132,292,139,1,,,,,,,,
,,,,,,,,,,,,,FF,,,,,,,,1.05,,,,,,,,,,,,,,,,,,,,,,61003a57b29e11c1531ed75f,61037629a452c5827585ee67,2021-07-29_21h27.05.548,Simcolourproject_2stim_asymm_v5,2020.2.10,Win32,60,61025ae37ef11b136ea224fe,,,,,,,,,1853,28,41,1,0,0,response1disk,,7,-4,-7,1,0,0,rectangle,-4,-7,1,0,0,-4,-7,1,0,0,1,133,293,150,1,,,,,,,,
,,,,,,,,,,,,,FF,,,,,,,,1.167,,,,,,,,,,,,,,,,,,,,,,61003a57b29e11c1531ed75f,61037629a452c5827585ee67,2021-07-29_21h27.05.548,Simcolourproject_2stim_asymm_v5,2020.2.10,Win32,60,61025ae37ef11b136ea224fe,,,,,,,,,564,29,53,1,0,0,response1disk,,7,-1,-7,1,0,0,rectangle,-1,-7,1,0,0,-1,-7,1,0,0,1,134,294,43,1,,,,,,,,
,,,,,,,,,,,,,FF,,,,,,,,1.017,,,,,,,,,,,,,,,,,,,,,,61003a57b29e11c1531ed75f,61037629a452c5827585ee67,2021-07-29_21h27.05.548,Simcolourproject_2stim_asymm_v5,2020.2.10,Win32,60,61025ae37ef11b136ea224fe,,,,,,,,,2161,22,36,1,0,0,response1disk,,7,9,3,1,0,0,rectangle,9,3,1,0,0,9,3,1,0,0,1,135,295,22,1,,,,,,,,
,,,,,,,,,,,,,FF,,,,,,,,1.232,,,,,,,,,,,,,,,,,,,,,,61003a57b29e11c1531ed75f,61037629a452c5827585ee67,2021-07-29_21h27.05.548,Simcolourproject_2stim_asymm_v5,2020.2.10,Win32,60,61025ae37ef11b136ea224fe,,,,,,,,,2376,-46,54,1,0,0,response7disk,,0,-2,9,1,0,0,rectangle,-2,9,1,0,0,-2,9,1,0,0,1,136,296,156,1,,,,,,,,
,,,,,,,,,,,,,FF,,,,,,,,1.151,,,,,,,,,,,,,,,,,,,,,,61003a57b29e11c1531ed75f,61037629a452c5827585ee67,2021-07-29_21h27.05.548,Simcolourproject_2stim_asymm_v5,2020.2.10,Win32,60,61025ae37ef11b136ea224fe,,,,,,,,,11,-37,50,1,0,0,response7disk,,0,-4,5,1,0,0,rectangle,-4,5,1,0,0,-4,5,1,0,0,1,137,297,41,1,,,,,,,,
,,,,,,,,,,,,,FF,,,,,,,,0.9,,,,,,,,,,,,,,,,,,,,,,61003a57b29e11c1531ed75f,61037629a452c5827585ee67,2021-07-29_21h27.05.548,Simcolourproject_2stim_asymm_v5,2020.2.10,Win32,60,61025ae37ef11b136ea224fe,,,,,,,,,3601,26,39,1,0,0,response1disk,,7,0,14,1,0,0,rectangle,0,14,1,0,0,0,14,1,0,0,1,138,298,87,1,,,,,,,,
,,,,,,,,,,,,,FF,,,,,,,,0.9,,,,,,,,,,,,,,,,,,,,,,61003a57b29e11c1531ed75f,61037629a452c5827585ee67,2021-07-29_21h27.05.548,Simcolourproject_2stim_asymm_v5,2020.2.10,Win32,60,61025ae37ef11b136ea224fe,,,,,,,,,1728,18,47,1,0,0,response1disk,,7,8,2,1,0,0,rectangle,8,2,1,0,0,8,2,1,0,0,1,139,299,75,1,,,,,,,,
,,,,,,,,,,,,,FF,,,,,,,,1.167,,,,,,,,,,,,,,,,,,,,,,61003a57b29e11c1531ed75f,61037629a452c5827585ee67,2021-07-29_21h27.05.548,Simcolourproject_2stim_asymm_v5,2020.2.10,Win32,60,61025ae37ef11b136ea224fe,,,,,,,,,1948,27,35,1,0,0,response1disk,,7,7,-2,1,0,0,rectangle,7,-2,1,0,0,7,-2,1,0,0,1,140,300,158,1,,,,,,,,
,,,,,,,,,,,,,FF,,,,,,,,1.016,,,,,,,,,,,,,,,,,,,,,,61003a57b29e11c1531ed75f,61037629a452c5827585ee67,2021-07-29_21h27.05.548,Simcolourproject_2stim_asymm_v5,2020.2.10,Win32,60,61025ae37ef11b136ea224fe,,,,,,,,,1757,-25,52,1,0,0,response7disk,,0,-8,8,1,0,0,rectangle,-8,8,1,0,0,-8,8,1,0,0,1,141,301,134,1,,,,,,,,
,,,,,,,,,,,,,FF,,,,,,,,1.916,,,,,,,,,,,,,,,,,,,,,,61003a57b29e11c1531ed75f,61037629a452c5827585ee67,2021-07-29_21h27.05.548,Simcolourproject_2stim_asymm_v5,2020.2.10,Win32,60,61025ae37ef11b136ea224fe,,,,,,,,,2286,15,33,1,0,0,response1disk,,7,-4,5,1,0,0,rectangle,-4,5,1,0,0,-4,5,1,0,0,1,142,302,72,1,,,,,,,,
,,,,,,,,,,,,,FF,,,,,,,,1.534,,,,,,,,,,,,,,,,,,,,,,61003a57b29e11c1531ed75f,61037629a452c5827585ee67,2021-07-29_21h27.05.548,Simcolourproject_2stim_asymm_v5,2020.2.10,Win32,60,61025ae37ef11b136ea224fe,,,,,,,,,3666,24,41,1,0,0,response1disk,,7,-10,0,1,0,0,rectangle,-10,0,1,0,0,-10,0,1,0,0,1,143,303,38,1,,,,,,,,
,,,,,,,,,,,,,FF,,,,,,,,1.266,,,,,,,,,,,,,,,,,,,,,,61003a57b29e11c1531ed75f,61037629a452c5827585ee67,2021-07-29_21h27.05.548,Simcolourproject_2stim_asymm_v5,2020.2.10,Win32,60,61025ae37ef11b136ea224fe,,,,,,,,,2153,21,44,1,0,0,response1disk,,7,-2,7,1,0,0,rectangle,-2,7,1,0,0,-2,7,1,0,0,1,144,304,55,1,,,,,,,,
