key_resp.keys,key_resp.rt,key_resp_14.keys,key_resp_14.rt,key_resp_15.keys,key_resp_15.rt,key_resp_17.keys,key_resp_17.rt,key_resp_9.keys,key_resp_9.rt,key_resp_10.keys,key_resp_10.rt,practice_comparison,Ecc,mouse_5.x,mouse_5.y,mouse_5.leftButton,mouse_5.midButton,mouse_5.rightButton,mouse_5.clicked_name,pracsimilarity,response_time,mouse_10.x,mouse_10.y,mouse_10.leftButton,mouse_10.midButton,mouse_10.rightButton,mouse_10.clicked_name,mouse_7.x,mouse_7.y,mouse_7.leftButton,mouse_7.midButton,mouse_7.rightButton,mouse_6.x,mouse_6.y,mouse_6.leftButton,mouse_6.midButton,mouse_6.rightButton,duringprac.thisRepN,duringprac.thisTrialN,duringprac.thisN,duringprac.thisIndex,duringprac.ran,participant,session,date,expName,psychopyVersion,OS,frameRate,study_id,mouse_7.clicked_name,catchpracsimilarity,catch_response_time,catchnumberprac,catchtrialorderprac,mouse_6.clicked_name,key_resp_22.keys,key_resp_22.rt,realcomparison,mouse.x,mouse.y,mouse.leftButton,mouse.midButton,mouse.rightButton,mouse.clicked_name,Colour2,similarity,mouse_2.x,mouse_2.y,mouse_2.leftButton,mouse_2.midButton,mouse_2.rightButton,mouse_2.clicked_name,mouse_3.x,mouse_3.y,mouse_3.leftButton,mouse_3.midButton,mouse_3.rightButton,mouse_11.x,mouse_11.y,mouse_11.leftButton,mouse_11.midButton,mouse_11.rightButton,trials_2.thisRepN,trials_2.thisTrialN,trials_2.thisN,trials_2.thisIndex,trials_2.ran,Colour1,mouse_3.clicked_name,catchornah,catchsimilarity,catchnumber,catchtrialorder,catchRT,mouse_11.clicked_name
space,1.5701,space,16.7473,space,30.6617,space,6.5695,space,3.0149,space,3.939,129,PF,49.60006101,82.39999479,1,0,0,response1disk_5,7,7.3213,-15.99998879,-8.000006557,1,0,0,rectangle_8,-15.99998879,-8.000006557,1,0,0,-15.99998879,-8.000006557,1,0,0,0,0,0,6,1,6100fb3a99688019dec679d9,61036e821530cb5388c9ba01,2021-07-29_23h17.20.185,Simcolourproject_2stim_asymm_v5,2020.2.10,Win32,60,61025ae37ef11b136ea224fe,,,,,,,,,,,,,,,,,,,,,,,,,,,,,,,,,,,,,,,,,,,,,,
,,,,,,,,,,,,119,PF,52.80001223,89.5999949,1,0,0,response1disk_5,7,2.501,3.200011492,5.599993646,1,0,0,rectangle_8,36.80001199,111.9999952,1,0,0,4.800011516,3.999993622,1,0,0,0,1,1,4,1,6100fb3a99688019dec679d9,61036e821530cb5388c9ba01,2021-07-29_23h17.20.185,Simcolourproject_2stim_asymm_v5,2020.2.10,Win32,60,61025ae37ef11b136ea224fe,response1disk_7,7,5.0519,7,"[2,5]",rectangle_4,,,,,,,,,,,,,,,,,,,,,,,,,,,,,,,,,,,,,,,,
,,,,,,,,,,,,78,PF,125.6000133,71.19997021,1,0,0,response1disk_5,6,7.5659,-0.799988568,-6.4373E-06,1,0,0,rectangle_8,-0.799988568,-6.4373E-06,1,0,0,-0.799988568,-6.4373E-06,1,0,0,0,2,2,2,1,6100fb3a99688019dec679d9,61036e821530cb5388c9ba01,2021-07-29_23h17.20.185,Simcolourproject_2stim_asymm_v5,2020.2.10,Win32,60,61025ae37ef11b136ea224fe,,,,,,,,,,,,,,,,,,,,,,,,,,,,,,,,,,,,,,,,,,,,,,
,,,,,,,,,,,,22,FF,48.80001217,99.99999505,1,0,0,response1disk_5,7,2.2838,1.14441E-05,3.999993622,1,0,0,rectangle_8,1.14441E-05,3.999993622,1,0,0,1.14441E-05,3.999993622,1,0,0,0,3,3,5,1,6100fb3a99688019dec679d9,61036e821530cb5388c9ba01,2021-07-29_23h17.20.185,Simcolourproject_2stim_asymm_v5,2020.2.10,Win32,60,61025ae37ef11b136ea224fe,,,,,,,,,,,,,,,,,,,,,,,,,,,,,,,,,,,,,,,,,,,,,,
,,,,,,,,,,,,68,FF,48.80001217,88.79999489,1,0,0,response1disk_5,7,8.4341,-1.59998858,-11.2000066,1,0,0,rectangle_8,41.60006089,117.5999953,1,0,0,8.000011563,3.19999361,1,0,0,0,4,4,0,1,6100fb3a99688019dec679d9,61036e821530cb5388c9ba01,2021-07-29_23h17.20.185,Simcolourproject_2stim_asymm_v5,2020.2.10,Win32,60,61025ae37ef11b136ea224fe,response1disk_7,7,2.2006,7,"[2,5]",rectangle_4,,,,,,,,,,,,,,,,,,,,,,,,,,,,,,,,,,,,,,,,
,,,,,,,,,,,,66,PF,31.20001191,85.59999484,1,0,0,response1disk_5,7,1.4002,-0.799988568,-8.000006557,1,0,0,rectangle_8,-0.799988568,-8.000006557,1,0,0,-0.799988568,-8.000006557,1,0,0,0,5,5,1,1,6100fb3a99688019dec679d9,61036e821530cb5388c9ba01,2021-07-29_23h17.20.185,Simcolourproject_2stim_asymm_v5,2020.2.10,Win32,60,61025ae37ef11b136ea224fe,,,,,,,,,,,,,,,,,,,,,,,,,,,,,,,,,,,,,,,,,,,,,,
,,,,,,,,,,,,69,FF,31.20001191,84.79999483,1,0,0,response1disk_5,7,1.1334,1.14441E-05,-0.800006449,1,0,0,rectangle_8,1.14441E-05,-0.800006449,1,0,0,1.14441E-05,-0.800006449,1,0,0,0,6,6,3,1,6100fb3a99688019dec679d9,61036e821530cb5388c9ba01,2021-07-29_23h17.20.185,Simcolourproject_2stim_asymm_v5,2020.2.10,Win32,60,61025ae37ef11b136ea224fe,,,,,,,,,,,,,,,,,,,,,,,,,,,,,,,,,,,,,,,,,,,,,,
,,,,,,,,,,,,,FF,,,,,,,,3.3846,,,,,,,,,,,,,,,,,,,,,,6100fb3a99688019dec679d9,61036e821530cb5388c9ba01,2021-07-29_23h17.20.185,Simcolourproject_2stim_asymm_v5,2020.2.10,Win32,60,61025ae37ef11b136ea224fe,,,,,,,space,3.1985,577,100.0000129,71.19997021,1,0,0,response1disk,,6,4.000011504,0.799993575,1,0,0,rectangle,4.000011504,0.799993575,1,0,0,4.000011504,0.799993575,1,0,0,0,0,0,133,1,,,,,,,,
,,,,,,,,,,,,,FF,,,,,,,,1.3169,,,,,,,,,,,,,,,,,,,,,,6100fb3a99688019dec679d9,61036e821530cb5388c9ba01,2021-07-29_23h17.20.185,Simcolourproject_2stim_asymm_v5,2020.2.10,Win32,60,61025ae37ef11b136ea224fe,,,,,,,,,2351,39.20001203,91.99999493,1,0,0,response1disk,,7,-3.199988604,3.19999361,1,0,0,rectangle,-3.199988604,3.19999361,1,0,0,-3.199988604,3.19999361,1,0,0,0,1,1,150,1,,,,,,,,
,,,,,,,,,,,,,FF,,,,,,,,3.7495,,,,,,,,,,,,,,,,,,,,,,6100fb3a99688019dec679d9,61036e821530cb5388c9ba01,2021-07-29_23h17.20.185,Simcolourproject_2stim_asymm_v5,2020.2.10,Win32,60,61025ae37ef11b136ea224fe,,,,,,,,,3585,132.0000134,59.99999446,1,0,0,response1disk,,6,-4.799988627,-4.800006509,1,0,0,rectangle,-4.799988627,-4.800006509,1,0,0,-4.799988627,-4.800006509,1,0,0,0,2,2,10,1,,,,,,,,
,,,,,,,,,,,,,FF,,,,,,,,1.5168,,,,,,,,,,,,,,,,,,,,,,6100fb3a99688019dec679d9,61036e821530cb5388c9ba01,2021-07-29_23h17.20.185,Simcolourproject_2stim_asymm_v5,2020.2.10,Win32,60,61025ae37ef11b136ea224fe,,,,,,,,,3273,42.40001208,60.79999447,1,0,0,response1disk,,7,5.600060356,-9.60000658,1,0,0,rectangle,5.600060356,-9.60000658,1,0,0,5.600060356,-9.60000658,1,0,0,0,3,3,111,1,,,,,,,,
,,,,,,,,,,,,,FF,,,,,,,,3.9166,,,,,,,,,,,,,,,,,,,,,,6100fb3a99688019dec679d9,61036e821530cb5388c9ba01,2021-07-29_23h17.20.185,Simcolourproject_2stim_asymm_v5,2020.2.10,Win32,60,61025ae37ef11b136ea224fe,,,,,,,,,2025,-78.3999409,27.19996955,1,0,0,response7disk,,1,-7.199988663,-6.400006533,1,0,0,rectangle,-7.199988663,-6.400006533,1,0,0,-7.199988663,-6.400006533,1,0,0,0,4,4,109,1,,,,,,,,
,,,,,,,,,,,,,FF,,,,,,,,0.8998,,,,,,,,,,,,,,,,,,,,,,6100fb3a99688019dec679d9,61036e821530cb5388c9ba01,2021-07-29_23h17.20.185,Simcolourproject_2stim_asymm_v5,2020.2.10,Win32,60,61025ae37ef11b136ea224fe,,,,,,,,,2318,42.40001208,88.79999489,1,0,0,response1disk,,7,1.14441E-05,-2.400006473,1,0,0,rectangle,1.14441E-05,-2.400006473,1,0,0,1.14441E-05,-2.400006473,1,0,0,0,5,5,130,1,,,,,,,,
,,,,,,,,,,,,,FF,,,,,,,,2.4004,,,,,,,,,,,,,,,,,,,,,,6100fb3a99688019dec679d9,61036e821530cb5388c9ba01,2021-07-29_23h17.20.185,Simcolourproject_2stim_asymm_v5,2020.2.10,Win32,60,61025ae37ef11b136ea224fe,,,,,,,,,3712,-82.39994096,-55.20000726,1,0,0,response5disk,,2,7.200011551,-4.000006497,1,0,0,rectangle,-99.19999003,35.19996967,1,0,0,-13.59998876,7.999993682,1,0,0,0,6,6,142,1,,response7disk_3,TRUE,1,1,"[78,7,298,113,295,54,208,17,259,40,143,196,297,298,179,41,38,215,229,127]",2.5175,rectangle
,,,,,,,,,,,,,FF,,,,,,,,1.0838,,,,,,,,,,,,,,,,,,,,,,6100fb3a99688019dec679d9,61036e821530cb5388c9ba01,2021-07-29_23h17.20.185,Simcolourproject_2stim_asymm_v5,2020.2.10,Win32,60,61025ae37ef11b136ea224fe,,,,,,,,,3231,47.20001215,95.19997057,1,0,0,response1disk,,7,-2.399939764,0.799993575,1,0,0,rectangle,-2.399939764,0.799993575,1,0,0,-2.399939764,0.799993575,1,0,0,0,7,7,95,1,,,,,,,,
,,,,,,,,,,,,,FF,,,,,,,,5.267,,,,,,,,,,,,,,,,,,,,,,6100fb3a99688019dec679d9,61036e821530cb5388c9ba01,2021-07-29_23h17.20.185,Simcolourproject_2stim_asymm_v5,2020.2.10,Win32,60,61025ae37ef11b136ea224fe,,,,,,,,,1679,-102.3999413,-73.60000753,1,0,0,response5disk,,2,-7.999988675,7.19999367,1,0,0,rectangle,-7.999988675,7.19999367,1,0,0,-7.999988675,7.19999367,1,0,0,0,8,8,158,1,,,,,,,,
,,,,,,,,,,,,,FF,,,,,,,,1.2999,,,,,,,,,,,,,,,,,,,,,,6100fb3a99688019dec679d9,61036e821530cb5388c9ba01,2021-07-29_23h17.20.185,Simcolourproject_2stim_asymm_v5,2020.2.10,Win32,60,61025ae37ef11b136ea224fe,,,,,,,,,1398,71.20001251,99.99999505,1,0,0,response1disk,,7,4.800011516,11.19999373,1,0,0,rectangle,4.800011516,11.19999373,1,0,0,4.800011516,11.19999373,1,0,0,0,9,9,116,1,,,,,,,,
,,,,,,,,,,,,,FF,,,,,,,,1.4502,,,,,,,,,,,,,,,,,,,,,,6100fb3a99688019dec679d9,61036e821530cb5388c9ba01,2021-07-29_23h17.20.185,Simcolourproject_2stim_asymm_v5,2020.2.10,Win32,60,61025ae37ef11b136ea224fe,,,,,,,,,3480,-87.99998987,34.39999408,1,0,0,response7disk,,1,1.600060296,-8.000006557,1,0,0,rectangle,1.600060296,-8.000006557,1,0,0,1.600060296,-8.000006557,1,0,0,0,10,10,132,1,,,,,,,,
,,,,,,,,,,,,,FF,,,,,,,,2.1335,,,,,,,,,,,,,,,,,,,,,,6100fb3a99688019dec679d9,61036e821530cb5388c9ba01,2021-07-29_23h17.20.185,Simcolourproject_2stim_asymm_v5,2020.2.10,Win32,60,61025ae37ef11b136ea224fe,,,,,,,,,4358,80.00001264,-45.60000712,1,0,0,response3disk,,5,-3.999988616,11.19999373,1,0,0,rectangle,-3.999988616,11.19999373,1,0,0,-3.999988616,11.19999373,1,0,0,0,11,11,137,1,,,,,,,,
,,,,,,,,,,,,,FF,,,,,,,,5.9333,,,,,,,,,,,,,,,,,,,,,,6100fb3a99688019dec679d9,61036e821530cb5388c9ba01,2021-07-29_23h17.20.185,Simcolourproject_2stim_asymm_v5,2020.2.10,Win32,60,61025ae37ef11b136ea224fe,,,,,,,,,1507,63.20001239,103.1999707,1,0,0,response1disk,,7,-3.999988616,5.599993646,1,0,0,rectangle,-3.999988616,5.599993646,1,0,0,-3.999988616,5.599993646,1,0,0,0,12,12,112,1,,,,,,,,
,,,,,,,,,,,,,FF,,,,,,,,0.8001,,,,,,,,,,,,,,,,,,,,,,6100fb3a99688019dec679d9,61036e821530cb5388c9ba01,2021-07-29_23h17.20.185,Simcolourproject_2stim_asymm_v5,2020.2.10,Win32,60,61025ae37ef11b136ea224fe,,,,,,,,,1542,48.80001217,119.9999954,1,0,0,response1disk,,7,7.200011551,6.399993658,1,0,0,rectangle,7.200011551,6.399993658,1,0,0,7.200011551,6.399993658,1,0,0,0,13,13,65,1,,,,,,,,
,,,,,,,,,,,,,FF,,,,,,,,2.5334,,,,,,,,,,,,,,,,,,,,,,6100fb3a99688019dec679d9,61036e821530cb5388c9ba01,2021-07-29_23h17.20.185,Simcolourproject_2stim_asymm_v5,2020.2.10,Win32,60,61025ae37ef11b136ea224fe,,,,,,,,,1229,107.200013,23.19996949,1,0,0,response1disk,,6,-2.399939764,-6.4373E-06,1,0,0,rectangle,-2.399939764,-6.4373E-06,1,0,0,-2.399939764,-6.4373E-06,1,0,0,0,14,14,70,1,,,,,,,,
,,,,,,,,,,,,,FF,,,,,,,,1.3671,,,,,,,,,,,,,,,,,,,,,,6100fb3a99688019dec679d9,61036e821530cb5388c9ba01,2021-07-29_23h17.20.185,Simcolourproject_2stim_asymm_v5,2020.2.10,Win32,60,61025ae37ef11b136ea224fe,,,,,,,,,320,32.80001193,78.39999473,1,0,0,response1disk,,7,1.14441E-05,0.799993575,1,0,0,rectangle,1.14441E-05,0.799993575,1,0,0,1.14441E-05,0.799993575,1,0,0,0,15,15,90,1,,,,,,,,
,,,,,,,,,,,,,FF,,,,,,,,0.8834,,,,,,,,,,,,,,,,,,,,,,6100fb3a99688019dec679d9,61036e821530cb5388c9ba01,2021-07-29_23h17.20.185,Simcolourproject_2stim_asymm_v5,2020.2.10,Win32,60,61025ae37ef11b136ea224fe,,,,,,,,,2841,44.0000121,95.99999499,1,0,0,response1disk,,7,1.600060296,-10.40000659,1,0,0,rectangle,-55.19998938,-92.00000781,1,0,0,-5.599988639,3.19999361,1,0,0,0,16,16,93,1,,response5disk_3,TRUE,3,3,"[78,7,298,113,295,54,208,17,259,40,143,196,297,298,179,41,38,215,229,127]",2.75,rectangle
,,,,,,,,,,,,,FF,,,,,,,,1.6333,,,,,,,,,,,,,,,,,,,,,,6100fb3a99688019dec679d9,61036e821530cb5388c9ba01,2021-07-29_23h17.20.185,Simcolourproject_2stim_asymm_v5,2020.2.10,Win32,60,61025ae37ef11b136ea224fe,,,,,,,,,112,34.40001196,72.79999465,1,0,0,response1disk,,7,3.200011492,13.59999377,1,0,0,rectangle,3.200011492,13.59999377,1,0,0,3.200011492,13.59999377,1,0,0,0,17,17,33,1,,,,,,,,
,,,,,,,,,,,,,FF,,,,,,,,0.8501,,,,,,,,,,,,,,,,,,,,,,6100fb3a99688019dec679d9,61036e821530cb5388c9ba01,2021-07-29_23h17.20.185,Simcolourproject_2stim_asymm_v5,2020.2.10,Win32,60,61025ae37ef11b136ea224fe,,,,,,,,,2083,35.20001197,90.39999491,1,0,0,response1disk,,7,7.200011551,2.399993598,1,0,0,rectangle,7.200011551,2.399993598,1,0,0,7.200011551,2.399993598,1,0,0,0,18,18,82,1,,,,,,,,
,,,,,,,,,,,,,FF,,,,,,,,0.8337,,,,,,,,,,,,,,,,,,,,,,6100fb3a99688019dec679d9,61036e821530cb5388c9ba01,2021-07-29_23h17.20.185,Simcolourproject_2stim_asymm_v5,2020.2.10,Win32,60,61025ae37ef11b136ea224fe,,,,,,,,,330,38.40001202,80.79999477,1,0,0,response1disk,,7,1.14441E-05,1.599993587,1,0,0,rectangle,1.14441E-05,1.599993587,1,0,0,1.14441E-05,1.599993587,1,0,0,0,19,19,123,1,,,,,,,,
,,,,,,,,,,,,,FF,,,,,,,,0.8671,,,,,,,,,,,,,,,,,,,,,,6100fb3a99688019dec679d9,61036e821530cb5388c9ba01,2021-07-29_23h17.20.185,Simcolourproject_2stim_asymm_v5,2020.2.10,Win32,60,61025ae37ef11b136ea224fe,,,,,,,,,1037,48.80001217,98.39999503,1,0,0,response1disk,,7,2.40001148,15.9999938,1,0,0,rectangle,2.40001148,15.9999938,1,0,0,2.40001148,15.9999938,1,0,0,0,20,20,134,1,,,,,,,,
,,,,,,,,,,,,,FF,,,,,,,,0.7676,,,,,,,,,,,,,,,,,,,,,,6100fb3a99688019dec679d9,61036e821530cb5388c9ba01,2021-07-29_23h17.20.185,Simcolourproject_2stim_asymm_v5,2020.2.10,Win32,60,61025ae37ef11b136ea224fe,,,,,,,,,2329,30.4000119,69.5999946,1,0,0,response1disk,,7,4.000011504,-0.800006449,1,0,0,rectangle,4.000011504,-0.800006449,1,0,0,4.000011504,-0.800006449,1,0,0,0,21,21,159,1,,,,,,,,
,,,,,,,,,,,,,FF,,,,,,,,0.7999,,,,,,,,,,,,,,,,,,,,,,6100fb3a99688019dec679d9,61036e821530cb5388c9ba01,2021-07-29_23h17.20.185,Simcolourproject_2stim_asymm_v5,2020.2.10,Win32,60,61025ae37ef11b136ea224fe,,,,,,,,,2330,44.80001211,99.99999505,1,0,0,response1disk,,7,4.800011516,8.799993694,1,0,0,rectangle,4.800011516,8.799993694,1,0,0,4.800011516,8.799993694,1,0,0,0,22,22,110,1,,,,,,,,
,,,,,,,,,,,,,FF,,,,,,,,0.8005,,,,,,,,,,,,,,,,,,,,,,6100fb3a99688019dec679d9,61036e821530cb5388c9ba01,2021-07-29_23h17.20.185,Simcolourproject_2stim_asymm_v5,2020.2.10,Win32,60,61025ae37ef11b136ea224fe,,,,,,,,,2805,36.80001199,92.79999495,1,0,0,response1disk,,7,-2.399939764,-6.4373E-06,1,0,0,rectangle,-2.399939764,-6.4373E-06,1,0,0,-2.399939764,-6.4373E-06,1,0,0,0,23,23,34,1,,,,,,,,
,,,,,,,,,,,,,FF,,,,,,,,0.9499,,,,,,,,,,,,,,,,,,,,,,6100fb3a99688019dec679d9,61036e821530cb5388c9ba01,2021-07-29_23h17.20.185,Simcolourproject_2stim_asymm_v5,2020.2.10,Win32,60,61025ae37ef11b136ea224fe,,,,,,,,,2079,37.60006083,94.39999497,1,0,0,response1disk,,7,5.600060356,3.999993622,1,0,0,rectangle,5.600060356,3.999993622,1,0,0,5.600060356,3.999993622,1,0,0,0,24,24,140,1,,,,,,,,
,,,,,,,,,,,,,FF,,,,,,,,0.7003,,,,,,,,,,,,,,,,,,,,,,6100fb3a99688019dec679d9,61036e821530cb5388c9ba01,2021-07-29_23h17.20.185,Simcolourproject_2stim_asymm_v5,2020.2.10,Win32,60,61025ae37ef11b136ea224fe,,,,,,,,,2251,31.20001191,75.19997027,1,0,0,response1disk,,7,-9.599988699,-9.60000658,1,0,0,rectangle,-9.599988699,-9.60000658,1,0,0,-9.599988699,-9.60000658,1,0,0,0,25,25,143,1,,,,,,,,
,,,,,,,,,,,,,FF,,,,,,,,0.7833,,,,,,,,,,,,,,,,,,,,,,6100fb3a99688019dec679d9,61036e821530cb5388c9ba01,2021-07-29_23h17.20.185,Simcolourproject_2stim_asymm_v5,2020.2.10,Win32,60,61025ae37ef11b136ea224fe,,,,,,,,,372,23.20001179,59.19997003,1,0,0,response1disk,,7,4.000011504,2.399993598,1,0,0,rectangle,4.000011504,2.399993598,1,0,0,4.000011504,2.399993598,1,0,0,0,26,26,136,1,,,,,,,,
,,,,,,,,,,,,,FF,,,,,,,,3.8844,,,,,,,,,,,,,,,,,,,,,,6100fb3a99688019dec679d9,61036e821530cb5388c9ba01,2021-07-29_23h17.20.185,Simcolourproject_2stim_asymm_v5,2020.2.10,Win32,60,61025ae37ef11b136ea224fe,,,,,,,,,893,112.8000131,29.599994,1,0,0,response1disk,,6,6.400011539,-7.200006545,1,0,0,rectangle,6.400011539,-7.200006545,1,0,0,6.400011539,-7.200006545,1,0,0,0,27,27,72,1,,,,,,,,
,,,,,,,,,,,,,FF,,,,,,,,1.4339,,,,,,,,,,,,,,,,,,,,,,6100fb3a99688019dec679d9,61036e821530cb5388c9ba01,2021-07-29_23h17.20.185,Simcolourproject_2stim_asymm_v5,2020.2.10,Win32,60,61025ae37ef11b136ea224fe,,,,,,,,,4346,76.80001259,34.39999408,1,0,0,response1disk,,6,5.600060356,14.39999378,1,0,0,rectangle,5.600060356,14.39999378,1,0,0,5.600060356,14.39999378,1,0,0,0,28,28,41,1,,,,,,,,
,,,,,,,,,,,,,FF,,,,,,,,3.2516,,,,,,,,,,,,,,,,,,,,,,6100fb3a99688019dec679d9,61036e821530cb5388c9ba01,2021-07-29_23h17.20.185,Simcolourproject_2stim_asymm_v5,2020.2.10,Win32,60,61025ae37ef11b136ea224fe,,,,,,,,,2943,112.0000131,51.99999434,1,0,0,response1disk,,6,6.400011539,6.399993658,1,0,0,rectangle,6.400011539,6.399993658,1,0,0,6.400011539,6.399993658,1,0,0,0,29,29,87,1,,,,,,,,
,,,,,,,,,,,,,FF,,,,,,,,1.883,,,,,,,,,,,,,,,,,,,,,,6100fb3a99688019dec679d9,61036e821530cb5388c9ba01,2021-07-29_23h17.20.185,Simcolourproject_2stim_asymm_v5,2020.2.10,Win32,60,61025ae37ef11b136ea224fe,,,,,,,,,4103,94.40001285,49.5999943,1,0,0,response1disk,,6,10.4000116,-8.000006557,1,0,0,rectangle,10.4000116,-8.000006557,1,0,0,10.4000116,-8.000006557,1,0,0,0,30,30,16,1,,,,,,,,
,,,,,,,,,,,,,FF,,,,,,,,0.7834,,,,,,,,,,,,,,,,,,,,,,6100fb3a99688019dec679d9,61036e821530cb5388c9ba01,2021-07-29_23h17.20.185,Simcolourproject_2stim_asymm_v5,2020.2.10,Win32,60,61025ae37ef11b136ea224fe,,,,,,,,,3687,53.60001224,103.1999707,1,0,0,response1disk,,7,-0.799988568,2.399993598,1,0,0,rectangle,-0.799988568,2.399993598,1,0,0,-0.799988568,2.399993598,1,0,0,0,31,31,54,1,,,,,,,,
,,,,,,,,,,,,,FF,,,,,,,,1.4001,,,,,,,,,,,,,,,,,,,,,,6100fb3a99688019dec679d9,61036e821530cb5388c9ba01,2021-07-29_23h17.20.185,Simcolourproject_2stim_asymm_v5,2020.2.10,Win32,60,61025ae37ef11b136ea224fe,,,,,,,,,4230,39.20001203,76.79999471,1,0,0,response1disk,,7,9.600060415,10.39999372,1,0,0,rectangle,9.600060415,10.39999372,1,0,0,9.600060415,10.39999372,1,0,0,0,32,32,20,1,,,,,,,,
,,,,,,,,,,,,,FF,,,,,,,,0.8498,,,,,,,,,,,,,,,,,,,,,,6100fb3a99688019dec679d9,61036e821530cb5388c9ba01,2021-07-29_23h17.20.185,Simcolourproject_2stim_asymm_v5,2020.2.10,Win32,60,61025ae37ef11b136ea224fe,,,,,,,,,271,38.40001202,72.79999465,1,0,0,response1disk,,7,3.200011492,0.799993575,1,0,0,rectangle,3.200011492,0.799993575,1,0,0,3.200011492,0.799993575,1,0,0,0,33,33,14,1,,,,,,,,
,,,,,,,,,,,,,FF,,,,,,,,0.6999,,,,,,,,,,,,,,,,,,,,,,6100fb3a99688019dec679d9,61036e821530cb5388c9ba01,2021-07-29_23h17.20.185,Simcolourproject_2stim_asymm_v5,2020.2.10,Win32,60,61025ae37ef11b136ea224fe,,,,,,,,,248,31.20001191,58.39999443,1,0,0,response1disk,,7,4.800011516,8.799993694,1,0,0,rectangle,4.800011516,8.799993694,1,0,0,4.800011516,8.799993694,1,0,0,0,34,34,39,1,,,,,,,,
,,,,,,,,,,,,,FF,,,,,,,,0.8996,,,,,,,,,,,,,,,,,,,,,,6100fb3a99688019dec679d9,61036e821530cb5388c9ba01,2021-07-29_23h17.20.185,Simcolourproject_2stim_asymm_v5,2020.2.10,Win32,60,61025ae37ef11b136ea224fe,,,,,,,,,4077,29.60006071,67.19997015,1,0,0,response1disk,,7,4.800011516,14.39999378,1,0,0,rectangle,4.800011516,14.39999378,1,0,0,4.800011516,14.39999378,1,0,0,0,35,35,107,1,,,,,,,,
,,,,,,,,,,,,,FF,,,,,,,,1.2169,,,,,,,,,,,,,,,,,,,,,,6100fb3a99688019dec679d9,61036e821530cb5388c9ba01,2021-07-29_23h17.20.185,Simcolourproject_2stim_asymm_v5,2020.2.10,Win32,60,61025ae37ef11b136ea224fe,,,,,,,,,802,76.80001259,59.99999446,1,0,0,response1disk,,6,9.600060415,15.9999938,1,0,0,rectangle,9.600060415,15.9999938,1,0,0,9.600060415,15.9999938,1,0,0,0,36,36,77,1,,,,,,,,
,,,,,,,,,,,,,FF,,,,,,,,0.7166,,,,,,,,,,,,,,,,,,,,,,6100fb3a99688019dec679d9,61036e821530cb5388c9ba01,2021-07-29_23h17.20.185,Simcolourproject_2stim_asymm_v5,2020.2.10,Win32,60,61025ae37ef11b136ea224fe,,,,,,,,,2086,41.60006089,87.19997045,1,0,0,response1disk,,7,-0.799988568,9.599993706,1,0,0,rectangle,-23.99998891,-105.6000568,1,0,0,-19.19998884,-13.60000664,1,0,0,0,37,37,118,1,,response5disk_3,TRUE,3,3,"[78,7,298,113,295,54,208,17,259,40,143,196,297,298,179,41,38,215,229,127]",2.366,rectangle
,,,,,,,,,,,,,FF,,,,,,,,0.8673,,,,,,,,,,,,,,,,,,,,,,6100fb3a99688019dec679d9,61036e821530cb5388c9ba01,2021-07-29_23h17.20.185,Simcolourproject_2stim_asymm_v5,2020.2.10,Win32,60,61025ae37ef11b136ea224fe,,,,,,,,,688,56.80001229,100.7999951,1,0,0,response1disk,,7,-1.59998858,-2.400006473,1,0,0,rectangle,-1.59998858,-2.400006473,1,0,0,-1.59998858,-2.400006473,1,0,0,0,38,38,146,1,,,,,,,,
,,,,,,,,,,,,,FF,,,,,,,,1.2343,,,,,,,,,,,,,,,,,,,,,,6100fb3a99688019dec679d9,61036e821530cb5388c9ba01,2021-07-29_23h17.20.185,Simcolourproject_2stim_asymm_v5,2020.2.10,Win32,60,61025ae37ef11b136ea224fe,,,,,,,,,2736,45.60006095,79.99999475,1,0,0,response1disk,,7,-2.399939764,7.19999367,1,0,0,rectangle,25.60006065,82.39999479,1,0,0,-0.799988568,4.799993634,1,0,0,0,39,39,58,1,,response1disk_3,TRUE,7,7,"[78,7,298,113,295,54,208,17,259,40,143,196,297,298,179,41,38,215,229,127]",1.6668,rectangle
,,,,,,,,,,,,,FF,,,,,,,,2.7126,,,,,,,,,,,,,,,,,,,,,,6100fb3a99688019dec679d9,61036e821530cb5388c9ba01,2021-07-29_23h17.20.185,Simcolourproject_2stim_asymm_v5,2020.2.10,Win32,60,61025ae37ef11b136ea224fe,,,,,,,,,3957,41.60006089,87.99999487,1,0,0,response1disk,,7,-4.799988627,-13.60000664,1,0,0,rectangle,-101.5999901,27.99999398,1,0,0,-4.799988627,6.399993658,1,0,0,0,40,40,22,1,,response7disk_3,TRUE,1,1,"[78,7,298,113,295,54,208,17,259,40,143,196,297,298,179,41,38,215,229,127]",1.8168,rectangle
,,,,,,,,,,,,,FF,,,,,,,,1.0333,,,,,,,,,,,,,,,,,,,,,,6100fb3a99688019dec679d9,61036e821530cb5388c9ba01,2021-07-29_23h17.20.185,Simcolourproject_2stim_asymm_v5,2020.2.10,Win32,60,61025ae37ef11b136ea224fe,,,,,,,,,2938,23.20001179,70.39999461,1,0,0,response1disk,,7,-3.199988604,0.799993575,1,0,0,rectangle,-3.199988604,0.799993575,1,0,0,-3.199988604,0.799993575,1,0,0,0,41,41,31,1,,,,,,,,
,,,,,,,,,,,,,FF,,,,,,,,2.1505,,,,,,,,,,,,,,,,,,,,,,6100fb3a99688019dec679d9,61036e821530cb5388c9ba01,2021-07-29_23h17.20.185,Simcolourproject_2stim_asymm_v5,2020.2.10,Win32,60,61025ae37ef11b136ea224fe,,,,,,,,,658,27.20001185,73.59999466,1,0,0,response1disk,,7,-0.799988568,13.59999377,1,0,0,rectangle,-0.799988568,13.59999377,1,0,0,-0.799988568,13.59999377,1,0,0,0,42,42,101,1,,,,,,,,
,,,,,,,,,,,,,FF,,,,,,,,3.9502,,,,,,,,,,,,,,,,,,,,,,6100fb3a99688019dec679d9,61036e821530cb5388c9ba01,2021-07-29_23h17.20.185,Simcolourproject_2stim_asymm_v5,2020.2.10,Win32,60,61025ae37ef11b136ea224fe,,,,,,,,,2948,92.80001283,-41.60000706,1,0,0,response3disk,,5,5.600060356,4.799993634,1,0,0,rectangle,5.600060356,4.799993634,1,0,0,5.600060356,4.799993634,1,0,0,0,43,43,38,1,,,,,,,,
,,,,,,,,,,,,,FF,,,,,,,,0.7293,,,,,,,,,,,,,,,,,,,,,,6100fb3a99688019dec679d9,61036e821530cb5388c9ba01,2021-07-29_23h17.20.185,Simcolourproject_2stim_asymm_v5,2020.2.10,Win32,60,61025ae37ef11b136ea224fe,,,,,,,,,4197,43.20001209,87.19997045,1,0,0,response1disk,,7,1.14441E-05,6.399993658,1,0,0,rectangle,1.14441E-05,6.399993658,1,0,0,1.14441E-05,6.399993658,1,0,0,0,44,44,3,1,,,,,,,,
,,,,,,,,,,,,,FF,,,,,,,,0.7672,,,,,,,,,,,,,,,,,,,,,,6100fb3a99688019dec679d9,61036e821530cb5388c9ba01,2021-07-29_23h17.20.185,Simcolourproject_2stim_asymm_v5,2020.2.10,Win32,60,61025ae37ef11b136ea224fe,,,,,,,,,1273,42.40001208,77.59999472,1,0,0,response1disk,,7,-3.999988616,7.999993682,1,0,0,rectangle,-3.999988616,7.999993682,1,0,0,-3.999988616,7.999993682,1,0,0,0,45,45,67,1,,,,,,,,
,,,,,,,,,,,,,FF,,,,,,,,0.6004,,,,,,,,,,,,,,,,,,,,,,6100fb3a99688019dec679d9,61036e821530cb5388c9ba01,2021-07-29_23h17.20.185,Simcolourproject_2stim_asymm_v5,2020.2.10,Win32,60,61025ae37ef11b136ea224fe,,,,,,,,,754,42.40001208,80.79999477,1,0,0,response1disk,,7,7.200011551,9.599993706,1,0,0,rectangle,7.200011551,9.599993706,1,0,0,7.200011551,9.599993706,1,0,0,0,46,46,91,1,,,,,,,,
,,,,,,,,,,,,,FF,,,,,,,,1.1175,,,,,,,,,,,,,,,,,,,,,,6100fb3a99688019dec679d9,61036e821530cb5388c9ba01,2021-07-29_23h17.20.185,Simcolourproject_2stim_asymm_v5,2020.2.10,Win32,60,61025ae37ef11b136ea224fe,,,,,,,,,661,26.40001184,67.19997015,1,0,0,response1disk,,7,9.600060415,12.79999375,1,0,0,rectangle,9.600060415,12.79999375,1,0,0,9.600060415,12.79999375,1,0,0,0,47,47,7,1,,,,,,,,
,,,,,,,,,,,,,FF,,,,,,,,1.2509,,,,,,,,,,,,,,,,,,,,,,6100fb3a99688019dec679d9,61036e821530cb5388c9ba01,2021-07-29_23h17.20.185,Simcolourproject_2stim_asymm_v5,2020.2.10,Win32,60,61025ae37ef11b136ea224fe,,,,,,,,,3779,52.00001222,90.39999491,1,0,0,response1disk,,7,3.200011492,-0.800006449,1,0,0,rectangle,3.200011492,-0.800006449,1,0,0,3.200011492,-0.800006449,1,0,0,0,48,48,12,1,,,,,,,,
,,,,,,,,,,,,,FF,,,,,,,,1.767,,,,,,,,,,,,,,,,,,,,,,6100fb3a99688019dec679d9,61036e821530cb5388c9ba01,2021-07-29_23h17.20.185,Simcolourproject_2stim_asymm_v5,2020.2.10,Win32,60,61025ae37ef11b136ea224fe,,,,,,,,,1374,40.00001204,85.59999484,1,0,0,response1disk,,7,-7.999988675,-4.000006497,1,0,0,rectangle,-7.999988675,-4.000006497,1,0,0,-7.999988675,-4.000006497,1,0,0,0,49,49,98,1,,,,,,,,
,,,,,,,,,,,,,FF,,,,,,,,0.7331,,,,,,,,,,,,,,,,,,,,,,6100fb3a99688019dec679d9,61036e821530cb5388c9ba01,2021-07-29_23h17.20.185,Simcolourproject_2stim_asymm_v5,2020.2.10,Win32,60,61025ae37ef11b136ea224fe,,,,,,,,,484,38.40001202,96.79999501,1,0,0,response1disk,,7,-8.799988687,-12.80000663,1,0,0,rectangle,-8.799988687,-12.80000663,1,0,0,-8.799988687,-12.80000663,1,0,0,0,50,50,106,1,,,,,,,,
,,,,,,,,,,,,,FF,,,,,,,,0.75,,,,,,,,,,,,,,,,,,,,,,6100fb3a99688019dec679d9,61036e821530cb5388c9ba01,2021-07-29_23h17.20.185,Simcolourproject_2stim_asymm_v5,2020.2.10,Win32,60,61025ae37ef11b136ea224fe,,,,,,,,,733,69.60001248,75.9999947,1,0,0,response1disk,,7,27.20001185,3.19999361,1,0,0,rectangle,27.20001185,3.19999361,1,0,0,27.20001185,3.19999361,1,0,0,0,51,51,78,1,,,,,,,,
,,,,,,,,,,,,,FF,,,,,,,,2.9834,,,,,,,,,,,,,,,,,,,,,,6100fb3a99688019dec679d9,61036e821530cb5388c9ba01,2021-07-29_23h17.20.185,Simcolourproject_2stim_asymm_v5,2020.2.10,Win32,60,61025ae37ef11b136ea224fe,,,,,,,,,2480,-111.9999902,-33.60000694,1,0,0,response5disk,,2,-6.399939823,6.399993658,1,0,0,rectangle,-6.399939823,6.399993658,1,0,0,-6.399939823,6.399993658,1,0,0,0,52,52,117,1,,,,,,,,
,,,,,,,,,,,,,FF,,,,,,,,1.55,,,,,,,,,,,,,,,,,,,,,,6100fb3a99688019dec679d9,61036e821530cb5388c9ba01,2021-07-29_23h17.20.185,Simcolourproject_2stim_asymm_v5,2020.2.10,Win32,60,61025ae37ef11b136ea224fe,,,,,,,,,116,40.00001204,81.59999478,1,0,0,response1disk,,7,1.600060296,4.799993634,1,0,0,rectangle,-123.1999904,-48.00000715,1,0,0,5.600060356,8.799993694,1,0,0,0,53,53,92,1,,response5disk_3,TRUE,2,2,"[78,7,298,113,295,54,208,17,259,40,143,196,297,298,179,41,38,215,229,127]",2.9997,rectangle
,,,,,,,,,,,,,FF,,,,,,,,1.3171,,,,,,,,,,,,,,,,,,,,,,6100fb3a99688019dec679d9,61036e821530cb5388c9ba01,2021-07-29_23h17.20.185,Simcolourproject_2stim_asymm_v5,2020.2.10,Win32,60,61025ae37ef11b136ea224fe,,,,,,,,,341,92.00001281,46.39999425,1,0,0,response1disk,,6,-12.79998875,1.599993587,1,0,0,rectangle,-12.79998875,1.599993587,1,0,0,-12.79998875,1.599993587,1,0,0,0,54,54,124,1,,,,,,,,
,,,,,,,,,,,,,FF,,,,,,,,0.7498,,,,,,,,,,,,,,,,,,,,,,6100fb3a99688019dec679d9,61036e821530cb5388c9ba01,2021-07-29_23h17.20.185,Simcolourproject_2stim_asymm_v5,2020.2.10,Win32,60,61025ae37ef11b136ea224fe,,,,,,,,,3199,26.40001184,68.79999459,1,0,0,response1disk,,7,1.600060296,-6.4373E-06,1,0,0,rectangle,1.600060296,-6.4373E-06,1,0,0,1.600060296,-6.4373E-06,1,0,0,0,55,55,44,1,,,,,,,,
,,,,,,,,,,,,,FF,,,,,,,,0.6668,,,,,,,,,,,,,,,,,,,,,,6100fb3a99688019dec679d9,61036e821530cb5388c9ba01,2021-07-29_23h17.20.185,Simcolourproject_2stim_asymm_v5,2020.2.10,Win32,60,61025ae37ef11b136ea224fe,,,,,,,,,4131,23.20001179,67.19997015,1,0,0,response1disk,,7,-7.199988663,-7.200006545,1,0,0,rectangle,-7.199988663,-7.200006545,1,0,0,-7.199988663,-7.200006545,1,0,0,0,56,56,0,1,,,,,,,,
,,,,,,,,,,,,,FF,,,,,,,,0.8336,,,,,,,,,,,,,,,,,,,,,,6100fb3a99688019dec679d9,61036e821530cb5388c9ba01,2021-07-29_23h17.20.185,Simcolourproject_2stim_asymm_v5,2020.2.10,Win32,60,61025ae37ef11b136ea224fe,,,,,,,,,3501,31.20001191,67.99999458,1,0,0,response1disk,,7,3.200011492,11.19999373,1,0,0,rectangle,3.200011492,11.19999373,1,0,0,3.200011492,11.19999373,1,0,0,0,57,57,11,1,,,,,,,,
,,,,,,,,,,,,,FF,,,,,,,,0.5837,,,,,,,,,,,,,,,,,,,,,,6100fb3a99688019dec679d9,61036e821530cb5388c9ba01,2021-07-29_23h17.20.185,Simcolourproject_2stim_asymm_v5,2020.2.10,Win32,60,61025ae37ef11b136ea224fe,,,,,,,,,3958,29.60006071,74.39999467,1,0,0,response1disk,,7,-3.999988616,-0.800006449,1,0,0,rectangle,-3.999988616,-0.800006449,1,0,0,-3.999988616,-0.800006449,1,0,0,0,58,58,83,1,,,,,,,,
,,,,,,,,,,,,,FF,,,,,,,,2.1506,,,,,,,,,,,,,,,,,,,,,,6100fb3a99688019dec679d9,61036e821530cb5388c9ba01,2021-07-29_23h17.20.185,Simcolourproject_2stim_asymm_v5,2020.2.10,Win32,60,61025ae37ef11b136ea224fe,,,,,,,,,4145,103.200013,41.59999418,1,0,0,response1disk,,6,5.600060356,2.399993598,1,0,0,rectangle,5.600060356,2.399993598,1,0,0,5.600060356,2.399993598,1,0,0,0,59,59,154,1,,,,,,,,
,,,,,,,,,,,,,FF,,,,,,,,0.6673,,,,,,,,,,,,,,,,,,,,,,6100fb3a99688019dec679d9,61036e821530cb5388c9ba01,2021-07-29_23h17.20.185,Simcolourproject_2stim_asymm_v5,2020.2.10,Win32,60,61025ae37ef11b136ea224fe,,,,,,,,,1991,34.40001196,74.39999467,1,0,0,response1disk,,7,-7.199988663,1.599993587,1,0,0,rectangle,-7.199988663,1.599993587,1,0,0,-7.199988663,1.599993587,1,0,0,0,60,60,27,1,,,,,,,,
,,,,,,,,,,,,,FF,,,,,,,,0.5666,,,,,,,,,,,,,,,,,,,,,,6100fb3a99688019dec679d9,61036e821530cb5388c9ba01,2021-07-29_23h17.20.185,Simcolourproject_2stim_asymm_v5,2020.2.10,Win32,60,61025ae37ef11b136ea224fe,,,,,,,,,2976,46.40001214,103.1999707,1,0,0,response1disk,,7,16.80001169,5.599993646,1,0,0,rectangle,16.80001169,5.599993646,1,0,0,16.80001169,5.599993646,1,0,0,0,61,61,155,1,,,,,,,,
,,,,,,,,,,,,,FF,,,,,,,,3.2501,,,,,,,,,,,,,,,,,,,,,,6100fb3a99688019dec679d9,61036e821530cb5388c9ba01,2021-07-29_23h17.20.185,Simcolourproject_2stim_asymm_v5,2020.2.10,Win32,60,61025ae37ef11b136ea224fe,,,,,,,,,3507,48.00001216,79.19997033,1,0,0,response1disk,,7,5.600060356,11.99999374,1,0,0,rectangle,5.600060356,11.99999374,1,0,0,5.600060356,11.99999374,1,0,0,0,62,62,30,1,,,,,,,,
,,,,,,,,,,,,,FF,,,,,,,,0.5672,,,,,,,,,,,,,,,,,,,,,,6100fb3a99688019dec679d9,61036e821530cb5388c9ba01,2021-07-29_23h17.20.185,Simcolourproject_2stim_asymm_v5,2020.2.10,Win32,60,61025ae37ef11b136ea224fe,,,,,,,,,1348,22.40001178,57.59999442,1,0,0,response1disk,,7,0.800011456,-13.60000664,1,0,0,rectangle,0.800011456,-13.60000664,1,0,0,0.800011456,-13.60000664,1,0,0,0,63,63,52,1,,,,,,,,
,,,,,,,,,,,,,FF,,,,,,,,0.5168,,,,,,,,,,,,,,,,,,,,,,6100fb3a99688019dec679d9,61036e821530cb5388c9ba01,2021-07-29_23h17.20.185,Simcolourproject_2stim_asymm_v5,2020.2.10,Win32,60,61025ae37ef11b136ea224fe,,,,,,,,,766,41.60006089,73.59999466,1,0,0,response1disk,,7,5.600060356,10.39999372,1,0,0,rectangle,5.600060356,10.39999372,1,0,0,5.600060356,10.39999372,1,0,0,0,64,64,108,1,,,,,,,,
,,,,,,,,,,,,,FF,,,,,,,,1.4169,,,,,,,,,,,,,,,,,,,,,,6100fb3a99688019dec679d9,61036e821530cb5388c9ba01,2021-07-29_23h17.20.185,Simcolourproject_2stim_asymm_v5,2020.2.10,Win32,60,61025ae37ef11b136ea224fe,,,,,,,,,2261,38.40001202,78.39999473,1,0,0,response1disk,,7,7.200011551,11.99999374,1,0,0,rectangle,7.200011551,11.99999374,1,0,0,7.200011551,11.99999374,1,0,0,0,65,65,23,1,,,,,,,,
,,,,,,,,,,,,,FF,,,,,,,,0.8334,,,,,,,,,,,,,,,,,,,,,,6100fb3a99688019dec679d9,61036e821530cb5388c9ba01,2021-07-29_23h17.20.185,Simcolourproject_2stim_asymm_v5,2020.2.10,Win32,60,61025ae37ef11b136ea224fe,,,,,,,,,388,54.40001225,68.79999459,1,0,0,response1disk,,7,17.60006053,10.39999372,1,0,0,rectangle,17.60006053,10.39999372,1,0,0,17.60006053,10.39999372,1,0,0,0,66,66,88,1,,,,,,,,
,,,,,,,,,,,,,FF,,,,,,,,0.5842,,,,,,,,,,,,,,,,,,,,,,6100fb3a99688019dec679d9,61036e821530cb5388c9ba01,2021-07-29_23h17.20.185,Simcolourproject_2stim_asymm_v5,2020.2.10,Win32,60,61025ae37ef11b136ea224fe,,,,,,,,,1092,38.40001202,59.19997003,1,0,0,response1disk,,7,10.4000116,3.999993622,1,0,0,rectangle,10.4000116,3.999993622,1,0,0,10.4000116,3.999993622,1,0,0,0,67,67,57,1,,,,,,,,
,,,,,,,,,,,,,FF,,,,,,,,0.5506,,,,,,,,,,,,,,,,,,,,,,6100fb3a99688019dec679d9,61036e821530cb5388c9ba01,2021-07-29_23h17.20.185,Simcolourproject_2stim_asymm_v5,2020.2.10,Win32,60,61025ae37ef11b136ea224fe,,,,,,,,,4271,36.80001199,75.9999947,1,0,0,response1disk,,7,1.600060296,15.19999379,1,0,0,rectangle,1.600060296,15.19999379,1,0,0,1.600060296,15.19999379,1,0,0,0,68,68,69,1,,,,,,,,
,,,,,,,,,,,,,FF,,,,,,,,0.6835,,,,,,,,,,,,,,,,,,,,,,6100fb3a99688019dec679d9,61036e821530cb5388c9ba01,2021-07-29_23h17.20.185,Simcolourproject_2stim_asymm_v5,2020.2.10,Win32,60,61025ae37ef11b136ea224fe,,,,,,,,,1793,42.40001208,94.39999497,1,0,0,response1disk,,7,4.000011504,-4.800006509,1,0,0,rectangle,4.000011504,-4.800006509,1,0,0,4.000011504,-4.800006509,1,0,0,0,69,69,63,1,,,,,,,,
,,,,,,,,,,,,,FF,,,,,,,,3.8001,,,,,,,,,,,,,,,,,,,,,,6100fb3a99688019dec679d9,61036e821530cb5388c9ba01,2021-07-29_23h17.20.185,Simcolourproject_2stim_asymm_v5,2020.2.10,Win32,60,61025ae37ef11b136ea224fe,,,,,,,,,637,47.20001215,-87.20000774,1,0,0,response3disk,,4,1.600060296,-3.200006485,1,0,0,rectangle,1.600060296,-3.200006485,1,0,0,1.600060296,-3.200006485,1,0,0,0,70,70,74,1,,,,,,,,
,,,,,,,,,,,,,FF,,,,,,,,2.067,,,,,,,,,,,,,,,,,,,,,,6100fb3a99688019dec679d9,61036e821530cb5388c9ba01,2021-07-29_23h17.20.185,Simcolourproject_2stim_asymm_v5,2020.2.10,Win32,60,61025ae37ef11b136ea224fe,,,,,,,,,2291,-83.99998981,-56.00000727,1,0,0,response5disk,,2,1.600060296,4.799993634,1,0,0,rectangle,1.600060296,4.799993634,1,0,0,1.600060296,4.799993634,1,0,0,0,71,71,18,1,,,,,,,,
,,,,,,,,,,,,,FF,,,,,,,,0.8335,,,,,,,,,,,,,,,,,,,,,,6100fb3a99688019dec679d9,61036e821530cb5388c9ba01,2021-07-29_23h17.20.185,Simcolourproject_2stim_asymm_v5,2020.2.10,Win32,60,61025ae37ef11b136ea224fe,,,,,,,,,220,39.20001203,79.99999475,1,0,0,response1disk,,7,4.000011504,13.59999377,1,0,0,rectangle,4.000011504,13.59999377,1,0,0,4.000011504,13.59999377,1,0,0,0,72,72,125,1,,,,,,,,
,,,,,,,,,,,,,FF,,,,,,,,0.7008,,,,,,,,,,,,,,,,,,,,,,6100fb3a99688019dec679d9,61036e821530cb5388c9ba01,2021-07-29_23h17.20.185,Simcolourproject_2stim_asymm_v5,2020.2.10,Win32,60,61025ae37ef11b136ea224fe,,,,,,,,,2636,24.80001181,63.99999452,1,0,0,response1disk,,7,-4.799988627,14.39999378,1,0,0,rectangle,-4.799988627,14.39999378,1,0,0,-4.799988627,14.39999378,1,0,0,0,73,73,97,1,,,,,,,,
,,,,,,,,,,,,,FF,,,,,,,,0.6335,,,,,,,,,,,,,,,,,,,,,,6100fb3a99688019dec679d9,61036e821530cb5388c9ba01,2021-07-29_23h17.20.185,Simcolourproject_2stim_asymm_v5,2020.2.10,Win32,60,61025ae37ef11b136ea224fe,,,,,,,,,1432,33.60006077,71.99999464,1,0,0,response1disk,,7,-6.399939823,-9.60000658,1,0,0,rectangle,-6.399939823,-9.60000658,1,0,0,-6.399939823,-9.60000658,1,0,0,0,74,74,43,1,,,,,,,,
,,,,,,,,,,,,,FF,,,,,,,,0.9165,,,,,,,,,,,,,,,,,,,,,,6100fb3a99688019dec679d9,61036e821530cb5388c9ba01,2021-07-29_23h17.20.185,Simcolourproject_2stim_asymm_v5,2020.2.10,Win32,60,61025ae37ef11b136ea224fe,,,,,,,,,3396,32.00001192,59.19997003,1,0,0,response1disk,,7,-5.599988639,-6.400006533,1,0,0,rectangle,-5.599988639,-6.400006533,1,0,0,-5.599988639,-6.400006533,1,0,0,0,75,75,17,1,,,,,,,,
,,,,,,,,,,,,,FF,,,,,,,,0.6169,,,,,,,,,,,,,,,,,,,,,,6100fb3a99688019dec679d9,61036e821530cb5388c9ba01,2021-07-29_23h17.20.185,Simcolourproject_2stim_asymm_v5,2020.2.10,Win32,60,61025ae37ef11b136ea224fe,,,,,,,,,1041,33.60006077,66.39999455,1,0,0,response1disk,,7,0.800011456,-8.000006557,1,0,0,rectangle,0.800011456,-8.000006557,1,0,0,0.800011456,-8.000006557,1,0,0,0,76,76,148,1,,,,,,,,
,,,,,,,,,,,,,FF,,,,,,,,0.5504,,,,,,,,,,,,,,,,,,,,,,6100fb3a99688019dec679d9,61036e821530cb5388c9ba01,2021-07-29_23h17.20.185,Simcolourproject_2stim_asymm_v5,2020.2.10,Win32,60,61025ae37ef11b136ea224fe,,,,,,,,,313,28.80001187,57.59999442,1,0,0,response1disk,,7,7.200011551,14.39999378,1,0,0,rectangle,42.40001208,-102.400008,1,0,0,-7.999988675,1.599993587,1,0,0,0,77,77,24,1,,response3disk_3,TRUE,4,4,"[78,7,298,113,295,54,208,17,259,40,143,196,297,298,179,41,38,215,229,127]",2.0997,rectangle
,,,,,,,,,,,,,FF,,,,,,,,6.5841,,,,,,,,,,,,,,,,,,,,,,6100fb3a99688019dec679d9,61036e821530cb5388c9ba01,2021-07-29_23h17.20.185,Simcolourproject_2stim_asymm_v5,2020.2.10,Win32,60,61025ae37ef11b136ea224fe,,,,,,,,,3439,63.20001239,89.5999949,1,0,0,response1disk,,7,1.14441E-05,13.59999377,1,0,0,rectangle,1.14441E-05,13.59999377,1,0,0,1.14441E-05,13.59999377,1,0,0,0,78,78,156,1,,,,,,,,
,,,,,,,,,,,,,FF,,,,,,,,0.6834,,,,,,,,,,,,,,,,,,,,,,6100fb3a99688019dec679d9,61036e821530cb5388c9ba01,2021-07-29_23h17.20.185,Simcolourproject_2stim_asymm_v5,2020.2.10,Win32,60,61025ae37ef11b136ea224fe,,,,,,,,,3334,27.20001185,74.39999467,1,0,0,response1disk,,7,-8.799988687,-7.200006545,1,0,0,rectangle,-8.799988687,-7.200006545,1,0,0,-8.799988687,-7.200006545,1,0,0,0,79,79,51,1,,,,,,,,
,,,,,,,,,,,,,FF,,,,,,,,0.7011,,,,,,,,,,,,,,,,,,,,,,6100fb3a99688019dec679d9,61036e821530cb5388c9ba01,2021-07-29_23h17.20.185,Simcolourproject_2stim_asymm_v5,2020.2.10,Win32,60,61025ae37ef11b136ea224fe,,,,,,,,,2618,19.20001173,45.59999424,1,0,0,response1disk,,7,-0.799988568,-6.4373E-06,1,0,0,rectangle,-0.799988568,-6.4373E-06,1,0,0,-0.799988568,-6.4373E-06,1,0,0,0,80,80,96,1,,,,,,,,
,,,,,,,,,,,,,FF,,,,,,,,0.6836,,,,,,,,,,,,,,,,,,,,,,6100fb3a99688019dec679d9,61036e821530cb5388c9ba01,2021-07-29_23h17.20.185,Simcolourproject_2stim_asymm_v5,2020.2.10,Win32,60,61025ae37ef11b136ea224fe,,,,,,,,,4160,23.20001179,58.39999443,1,0,0,response1disk,,7,4.800011516,0.799993575,1,0,0,rectangle,4.800011516,0.799993575,1,0,0,4.800011516,0.799993575,1,0,0,0,81,81,85,1,,,,,,,,
,,,,,,,,,,,,,FF,,,,,,,,0.5665,,,,,,,,,,,,,,,,,,,,,,6100fb3a99688019dec679d9,61036e821530cb5388c9ba01,2021-07-29_23h17.20.185,Simcolourproject_2stim_asymm_v5,2020.2.10,Win32,60,61025ae37ef11b136ea224fe,,,,,,,,,142,39.20001203,67.19997015,1,0,0,response1disk,,7,9.600060415,11.99999374,1,0,0,rectangle,9.600060415,11.99999374,1,0,0,9.600060415,11.99999374,1,0,0,0,82,82,94,1,,,,,,,,
,,,,,,,,,,,,,FF,,,,,,,,0.5165,,,,,,,,,,,,,,,,,,,,,,6100fb3a99688019dec679d9,61036e821530cb5388c9ba01,2021-07-29_23h17.20.185,Simcolourproject_2stim_asymm_v5,2020.2.10,Win32,60,61025ae37ef11b136ea224fe,,,,,,,,,2197,42.40001208,76.79999471,1,0,0,response1disk,,7,5.600060356,3.19999361,1,0,0,rectangle,5.600060356,3.19999361,1,0,0,5.600060356,3.19999361,1,0,0,0,83,83,121,1,,,,,,,,
,,,,,,,,,,,,,FF,,,,,,,,0.6669,,,,,,,,,,,,,,,,,,,,,,6100fb3a99688019dec679d9,61036e821530cb5388c9ba01,2021-07-29_23h17.20.185,Simcolourproject_2stim_asymm_v5,2020.2.10,Win32,60,61025ae37ef11b136ea224fe,,,,,,,,,2354,27.20001185,74.39999467,1,0,0,response1disk,,7,3.200011492,14.39999378,1,0,0,rectangle,3.200011492,14.39999378,1,0,0,3.200011492,14.39999378,1,0,0,0,84,84,127,1,,,,,,,,
,,,,,,,,,,,,,FF,,,,,,,,0.6332,,,,,,,,,,,,,,,,,,,,,,6100fb3a99688019dec679d9,61036e821530cb5388c9ba01,2021-07-29_23h17.20.185,Simcolourproject_2stim_asymm_v5,2020.2.10,Win32,60,61025ae37ef11b136ea224fe,,,,,,,,,2589,38.40001202,82.39999479,1,0,0,response1disk,,7,3.200011492,15.19999379,1,0,0,rectangle,3.200011492,15.19999379,1,0,0,3.200011492,15.19999379,1,0,0,0,85,85,53,1,,,,,,,,
,,,,,,,,,,,,,FF,,,,,,,,2.0666,,,,,,,,,,,,,,,,,,,,,,6100fb3a99688019dec679d9,61036e821530cb5388c9ba01,2021-07-29_23h17.20.185,Simcolourproject_2stim_asymm_v5,2020.2.10,Win32,60,61025ae37ef11b136ea224fe,,,,,,,,,3742,20.80001175,-102.400008,1,0,0,response3disk,,4,1.600060296,-11.2000066,1,0,0,rectangle,1.600060296,-11.2000066,1,0,0,1.600060296,-11.2000066,1,0,0,0,86,86,138,1,,,,,,,,
,,,,,,,,,,,,,FF,,,,,,,,0.6835,,,,,,,,,,,,,,,,,,,,,,6100fb3a99688019dec679d9,61036e821530cb5388c9ba01,2021-07-29_23h17.20.185,Simcolourproject_2stim_asymm_v5,2020.2.10,Win32,60,61025ae37ef11b136ea224fe,,,,,,,,,1012,24.80001181,49.5999943,1,0,0,response1disk,,7,1.14441E-05,9.599993706,1,0,0,rectangle,1.14441E-05,9.599993706,1,0,0,1.14441E-05,9.599993706,1,0,0,0,87,87,46,1,,,,,,,,
,,,,,,,,,,,,,FF,,,,,,,,0.5334,,,,,,,,,,,,,,,,,,,,,,6100fb3a99688019dec679d9,61036e821530cb5388c9ba01,2021-07-29_23h17.20.185,Simcolourproject_2stim_asymm_v5,2020.2.10,Win32,60,61025ae37ef11b136ea224fe,,,,,,,,,194,40.00001204,94.39999497,1,0,0,response1disk,,7,1.14441E-05,3.19999361,1,0,0,rectangle,1.14441E-05,3.19999361,1,0,0,1.14441E-05,3.19999361,1,0,0,0,88,88,49,1,,,,,,,,
,,,,,,,,,,,,,FF,,,,,,,,0.5836,,,,,,,,,,,,,,,,,,,,,,6100fb3a99688019dec679d9,61036e821530cb5388c9ba01,2021-07-29_23h17.20.185,Simcolourproject_2stim_asymm_v5,2020.2.10,Win32,60,61025ae37ef11b136ea224fe,,,,,,,,,649,52.80001223,83.19997039,1,0,0,response1disk,,7,8.000011563,0.799993575,1,0,0,rectangle,8.000011563,0.799993575,1,0,0,8.000011563,0.799993575,1,0,0,0,89,89,4,1,,,,,,,,
,,,,,,,,,,,,,FF,,,,,,,,0.6669,,,,,,,,,,,,,,,,,,,,,,6100fb3a99688019dec679d9,61036e821530cb5388c9ba01,2021-07-29_23h17.20.185,Simcolourproject_2stim_asymm_v5,2020.2.10,Win32,60,61025ae37ef11b136ea224fe,,,,,,,,,1077,30.4000119,58.39999443,1,0,0,response1disk,,7,4.000011504,4.799993634,1,0,0,rectangle,4.000011504,4.799993634,1,0,0,4.000011504,4.799993634,1,0,0,0,90,90,55,1,,,,,,,,
,,,,,,,,,,,,,FF,,,,,,,,5.4833,,,,,,,,,,,,,,,,,,,,,,6100fb3a99688019dec679d9,61036e821530cb5388c9ba01,2021-07-29_23h17.20.185,Simcolourproject_2stim_asymm_v5,2020.2.10,Win32,60,61025ae37ef11b136ea224fe,,,,,,,,,4366,44.80001211,-100.8000079,1,0,0,response3disk,,4,-17.59998882,-7.200006545,1,0,0,rectangle,-17.59998882,-7.200006545,1,0,0,-17.59998882,-7.200006545,1,0,0,0,91,91,68,1,,,,,,,,
,,,,,,,,,,,,,FF,,,,,,,,1.2005,,,,,,,,,,,,,,,,,,,,,,6100fb3a99688019dec679d9,61036e821530cb5388c9ba01,2021-07-29_23h17.20.185,Simcolourproject_2stim_asymm_v5,2020.2.10,Win32,60,61025ae37ef11b136ea224fe,,,,,,,,,2498,59.20001233,102.3999951,1,0,0,response1disk,,7,2.40001148,3.19999361,1,0,0,rectangle,2.40001148,3.19999361,1,0,0,2.40001148,3.19999361,1,0,0,0,92,92,1,1,,,,,,,,
,,,,,,,,,,,,,FF,,,,,,,,0.5836,,,,,,,,,,,,,,,,,,,,,,6100fb3a99688019dec679d9,61036e821530cb5388c9ba01,2021-07-29_23h17.20.185,Simcolourproject_2stim_asymm_v5,2020.2.10,Win32,60,61025ae37ef11b136ea224fe,,,,,,,,,1842,39.20001203,64.79999453,1,0,0,response1disk,,7,4.800011516,-0.800006449,1,0,0,rectangle,4.800011516,-0.800006449,1,0,0,4.800011516,-0.800006449,1,0,0,0,93,93,119,1,,,,,,,,
,,,,,,,,,,,,,FF,,,,,,,,2.366,,,,,,,,,,,,,,,,,,,,,,6100fb3a99688019dec679d9,61036e821530cb5388c9ba01,2021-07-29_23h17.20.185,Simcolourproject_2stim_asymm_v5,2020.2.10,Win32,60,61025ae37ef11b136ea224fe,,,,,,,,,445,92.80001283,-48.80000716,1,0,0,response3disk,,5,2.40001148,-4.000006497,1,0,0,rectangle,2.40001148,-4.000006497,1,0,0,2.40001148,-4.000006497,1,0,0,0,94,94,37,1,,,,,,,,
,,,,,,,,,,,,,FF,,,,,,,,0.8168,,,,,,,,,,,,,,,,,,,,,,6100fb3a99688019dec679d9,61036e821530cb5388c9ba01,2021-07-29_23h17.20.185,Simcolourproject_2stim_asymm_v5,2020.2.10,Win32,60,61025ae37ef11b136ea224fe,,,,,,,,,1428,25.60006065,41.59999418,1,0,0,response1disk,,7,-0.799988568,-4.800006509,1,0,0,rectangle,-0.799988568,-4.800006509,1,0,0,-0.799988568,-4.800006509,1,0,0,0,95,95,115,1,,,,,,,,
,,,,,,,,,,,,,FF,,,,,,,,4.1496,,,,,,,,,,,,,,,,,,,,,,6100fb3a99688019dec679d9,61036e821530cb5388c9ba01,2021-07-29_23h17.20.185,Simcolourproject_2stim_asymm_v5,2020.2.10,Win32,60,61025ae37ef11b136ea224fe,,,,,,,,,72,100.0000129,46.39999425,1,0,0,response1disk,,6,4.000011504,6.399993658,1,0,0,rectangle,4.000011504,6.399993658,1,0,0,4.000011504,6.399993658,1,0,0,0,96,96,129,1,,,,,,,,
,,,,,,,,,,,,,FF,,,,,,,,0.5668,,,,,,,,,,,,,,,,,,,,,,6100fb3a99688019dec679d9,61036e821530cb5388c9ba01,2021-07-29_23h17.20.185,Simcolourproject_2stim_asymm_v5,2020.2.10,Win32,60,61025ae37ef11b136ea224fe,,,,,,,,,3955,36.80001199,90.39999491,1,0,0,response1disk,,7,0.800011456,11.19999373,1,0,0,rectangle,0.800011456,11.19999373,1,0,0,0.800011456,11.19999373,1,0,0,0,97,97,64,1,,,,,,,,
,,,,,,,,,,,,,FF,,,,,,,,0.5505,,,,,,,,,,,,,,,,,,,,,,6100fb3a99688019dec679d9,61036e821530cb5388c9ba01,2021-07-29_23h17.20.185,Simcolourproject_2stim_asymm_v5,2020.2.10,Win32,60,61025ae37ef11b136ea224fe,,,,,,,,,416,26.40001184,79.19997033,1,0,0,response1disk,,7,-6.399939823,3.19999361,1,0,0,rectangle,-6.399939823,3.19999361,1,0,0,-6.399939823,3.19999361,1,0,0,0,98,98,35,1,,,,,,,,
,,,,,,,,,,,,,FF,,,,,,,,0.517,,,,,,,,,,,,,,,,,,,,,,6100fb3a99688019dec679d9,61036e821530cb5388c9ba01,2021-07-29_23h17.20.185,Simcolourproject_2stim_asymm_v5,2020.2.10,Win32,60,61025ae37ef11b136ea224fe,,,,,,,,,1984,24.80001181,79.99999475,1,0,0,response1disk,,7,2.40001148,10.39999372,1,0,0,rectangle,2.40001148,10.39999372,1,0,0,2.40001148,10.39999372,1,0,0,0,99,99,81,1,,,,,,,,
,,,,,,,,,,,,,FF,,,,,,,,0.5171,,,,,,,,,,,,,,,,,,,,,,6100fb3a99688019dec679d9,61036e821530cb5388c9ba01,2021-07-29_23h17.20.185,Simcolourproject_2stim_asymm_v5,2020.2.10,Win32,60,61025ae37ef11b136ea224fe,,,,,,,,,2457,40.00001204,88.79999489,1,0,0,response1disk,,7,0.800011456,4.799993634,1,0,0,rectangle,0.800011456,4.799993634,1,0,0,0.800011456,4.799993634,1,0,0,0,100,100,76,1,,,,,,,,
,,,,,,,,,,,,,FF,,,,,,,,0.6172,,,,,,,,,,,,,,,,,,,,,,6100fb3a99688019dec679d9,61036e821530cb5388c9ba01,2021-07-29_23h17.20.185,Simcolourproject_2stim_asymm_v5,2020.2.10,Win32,60,61025ae37ef11b136ea224fe,,,,,,,,,3035,34.40001196,70.39999461,1,0,0,response1disk,,7,12.00001162,12.79999375,1,0,0,rectangle,12.00001162,12.79999375,1,0,0,12.00001162,12.79999375,1,0,0,0,101,101,79,1,,,,,,,,
,,,,,,,,,,,,,FF,,,,,,,,1.2499,,,,,,,,,,,,,,,,,,,,,,6100fb3a99688019dec679d9,61036e821530cb5388c9ba01,2021-07-29_23h17.20.185,Simcolourproject_2stim_asymm_v5,2020.2.10,Win32,60,61025ae37ef11b136ea224fe,,,,,,,,,2720,80.00001264,64.79999453,1,0,0,response1disk,,6,-12.79998875,5.599993646,1,0,0,rectangle,-12.79998875,5.599993646,1,0,0,-12.79998875,5.599993646,1,0,0,0,102,102,105,1,,,,,,,,
,,,,,,,,,,,,,FF,,,,,,,,1.4164,,,,,,,,,,,,,,,,,,,,,,6100fb3a99688019dec679d9,61036e821530cb5388c9ba01,2021-07-29_23h17.20.185,Simcolourproject_2stim_asymm_v5,2020.2.10,Win32,60,61025ae37ef11b136ea224fe,,,,,,,,,2484,79.20001262,46.39999425,1,0,0,response1disk,,6,13.60006047,11.99999374,1,0,0,rectangle,13.60006047,11.99999374,1,0,0,13.60006047,11.99999374,1,0,0,0,103,103,102,1,,,,,,,,
,,,,,,,,,,,,,FF,,,,,,,,1.8175,,,,,,,,,,,,,,,,,,,,,,6100fb3a99688019dec679d9,61036e821530cb5388c9ba01,2021-07-29_23h17.20.185,Simcolourproject_2stim_asymm_v5,2020.2.10,Win32,60,61025ae37ef11b136ea224fe,,,,,,,,,530,68.00001246,35.9999941,1,0,0,response1disk,,6,15.20001167,7.999993682,1,0,0,rectangle,15.20001167,7.999993682,1,0,0,15.20001167,7.999993682,1,0,0,0,104,104,56,1,,,,,,,,
,,,,,,,,,,,,,FF,,,,,,,,0.7337,,,,,,,,,,,,,,,,,,,,,,6100fb3a99688019dec679d9,61036e821530cb5388c9ba01,2021-07-29_23h17.20.185,Simcolourproject_2stim_asymm_v5,2020.2.10,Win32,60,61025ae37ef11b136ea224fe,,,,,,,,,2477,27.20001185,49.5999943,1,0,0,response1disk,,7,2.40001148,3.19999361,1,0,0,rectangle,2.40001148,3.19999361,1,0,0,2.40001148,3.19999361,1,0,0,0,105,105,103,1,,,,,,,,
,,,,,,,,,,,,,FF,,,,,,,,1.6332,,,,,,,,,,,,,,,,,,,,,,6100fb3a99688019dec679d9,61036e821530cb5388c9ba01,2021-07-29_23h17.20.185,Simcolourproject_2stim_asymm_v5,2020.2.10,Win32,60,61025ae37ef11b136ea224fe,,,,,,,,,2369,65.60001242,30.39999402,1,0,0,response1disk,,6,12.00001162,-4.000006497,1,0,0,rectangle,12.00001162,-4.000006497,1,0,0,12.00001162,-4.000006497,1,0,0,0,106,106,60,1,,,,,,,,
,,,,,,,,,,,,,FF,,,,,,,,0.7504,,,,,,,,,,,,,,,,,,,,,,6100fb3a99688019dec679d9,61036e821530cb5388c9ba01,2021-07-29_23h17.20.185,Simcolourproject_2stim_asymm_v5,2020.2.10,Win32,60,61025ae37ef11b136ea224fe,,,,,,,,,3366,30.4000119,82.39999479,1,0,0,response1disk,,7,-1.59998858,-6.4373E-06,1,0,0,rectangle,-1.59998858,-6.4373E-06,1,0,0,-1.59998858,-6.4373E-06,1,0,0,0,107,107,19,1,,,,,,,,
,,,,,,,,,,,,,FF,,,,,,,,0.5992,,,,,,,,,,,,,,,,,,,,,,6100fb3a99688019dec679d9,61036e821530cb5388c9ba01,2021-07-29_23h17.20.185,Simcolourproject_2stim_asymm_v5,2020.2.10,Win32,60,61025ae37ef11b136ea224fe,,,,,,,,,333,25.60006065,53.59999436,1,0,0,response1disk,,7,4.000011504,-4.800006509,1,0,0,rectangle,4.000011504,-4.800006509,1,0,0,4.000011504,-4.800006509,1,0,0,0,108,108,126,1,,,,,,,,
,,,,,,,,,,,,,FF,,,,,,,,1.7669,,,,,,,,,,,,,,,,,,,,,,6100fb3a99688019dec679d9,61036e821530cb5388c9ba01,2021-07-29_23h17.20.185,Simcolourproject_2stim_asymm_v5,2020.2.10,Win32,60,61025ae37ef11b136ea224fe,,,,,,,,,2106,53.60001224,78.39999473,1,0,0,response1disk,,7,5.600060356,-6.4373E-06,1,0,0,rectangle,5.600060356,-6.4373E-06,1,0,0,5.600060356,-6.4373E-06,1,0,0,0,109,109,28,1,,,,,,,,
,,,,,,,,,,,,,FF,,,,,,,,1.9501,,,,,,,,,,,,,,,,,,,,,,6100fb3a99688019dec679d9,61036e821530cb5388c9ba01,2021-07-29_23h17.20.185,Simcolourproject_2stim_asymm_v5,2020.2.10,Win32,60,61025ae37ef11b136ea224fe,,,,,,,,,3817,52.00001222,25.59999394,1,0,0,response1disk,,6,-11.99998873,-11.2000066,1,0,0,rectangle,-11.99998873,-11.2000066,1,0,0,-11.99998873,-11.2000066,1,0,0,0,110,110,32,1,,,,,,,,
,,,,,,,,,,,,,FF,,,,,,,,0.5668,,,,,,,,,,,,,,,,,,,,,,6100fb3a99688019dec679d9,61036e821530cb5388c9ba01,2021-07-29_23h17.20.185,Simcolourproject_2stim_asymm_v5,2020.2.10,Win32,60,61025ae37ef11b136ea224fe,,,,,,,,,2158,22.40001178,56.79999441,1,0,0,response1disk,,7,-1.59998858,10.39999372,1,0,0,rectangle,-1.59998858,10.39999372,1,0,0,-1.59998858,10.39999372,1,0,0,0,111,111,40,1,,,,,,,,
,,,,,,,,,,,,,FF,,,,,,,,1.8996,,,,,,,,,,,,,,,,,,,,,,6100fb3a99688019dec679d9,61036e821530cb5388c9ba01,2021-07-29_23h17.20.185,Simcolourproject_2stim_asymm_v5,2020.2.10,Win32,60,61025ae37ef11b136ea224fe,,,,,,,,,2228,77.6000126,-50.40000719,1,0,0,response3disk,,5,16.00001168,-6.400006533,1,0,0,rectangle,85.60001272,-48.00000715,1,0,0,-7.199988663,-7.200006545,1,0,0,0,112,112,73,1,,response3disk_3,TRUE,5,5,"[78,7,298,113,295,54,208,17,259,40,143,196,297,298,179,41,38,215,229,127]",2.7332,rectangle
,,,,,,,,,,,,,FF,,,,,,,,0.7505,,,,,,,,,,,,,,,,,,,,,,6100fb3a99688019dec679d9,61036e821530cb5388c9ba01,2021-07-29_23h17.20.185,Simcolourproject_2stim_asymm_v5,2020.2.10,Win32,60,61025ae37ef11b136ea224fe,,,,,,,,,3754,16.80001169,49.5999943,1,0,0,response1disk,,7,1.14441E-05,15.9999938,1,0,0,rectangle,1.14441E-05,15.9999938,1,0,0,1.14441E-05,15.9999938,1,0,0,0,113,113,36,1,,,,,,,,
,,,,,,,,,,,,,FF,,,,,,,,3.7836,,,,,,,,,,,,,,,,,,,,,,6100fb3a99688019dec679d9,61036e821530cb5388c9ba01,2021-07-29_23h17.20.185,Simcolourproject_2stim_asymm_v5,2020.2.10,Win32,60,61025ae37ef11b136ea224fe,,,,,,,,,724,91.2000128,-42.40000707,1,0,0,response3disk,,5,-8.799988687,4.799993634,1,0,0,rectangle,-8.799988687,4.799993634,1,0,0,-8.799988687,4.799993634,1,0,0,0,114,114,42,1,,,,,,,,
,,,,,,,,,,,,,FF,,,,,,,,0.7456,,,,,,,,,,,,,,,,,,,,,,6100fb3a99688019dec679d9,61036e821530cb5388c9ba01,2021-07-29_23h17.20.185,Simcolourproject_2stim_asymm_v5,2020.2.10,Win32,60,61025ae37ef11b136ea224fe,,,,,,,,,202,17.60006053,78.39999473,1,0,0,response1disk,,7,-10.39993988,5.599993646,1,0,0,rectangle,-10.39993988,5.599993646,1,0,0,-10.39993988,5.599993646,1,0,0,0,115,115,59,1,,,,,,,,
,,,,,,,,,,,,,FF,,,,,,,,0.5667,,,,,,,,,,,,,,,,,,,,,,6100fb3a99688019dec679d9,61036e821530cb5388c9ba01,2021-07-29_23h17.20.185,Simcolourproject_2stim_asymm_v5,2020.2.10,Win32,60,61025ae37ef11b136ea224fe,,,,,,,,,2559,40.00001204,73.59999466,1,0,0,response1disk,,7,-1.59998858,-0.800006449,1,0,0,rectangle,-1.59998858,-0.800006449,1,0,0,-1.59998858,-0.800006449,1,0,0,0,116,116,141,1,,,,,,,,
,,,,,,,,,,,,,FF,,,,,,,,0.6502,,,,,,,,,,,,,,,,,,,,,,6100fb3a99688019dec679d9,61036e821530cb5388c9ba01,2021-07-29_23h17.20.185,Simcolourproject_2stim_asymm_v5,2020.2.10,Win32,60,61025ae37ef11b136ea224fe,,,,,,,,,1974,36.00001198,68.79999459,1,0,0,response1disk,,7,5.600060356,3.999993622,1,0,0,rectangle,5.600060356,3.999993622,1,0,0,5.600060356,3.999993622,1,0,0,0,117,117,86,1,,,,,,,,
,,,,,,,,,,,,,FF,,,,,,,,0.8002,,,,,,,,,,,,,,,,,,,,,,6100fb3a99688019dec679d9,61036e821530cb5388c9ba01,2021-07-29_23h17.20.185,Simcolourproject_2stim_asymm_v5,2020.2.10,Win32,60,61025ae37ef11b136ea224fe,,,,,,,,,4005,37.60006083,79.99999475,1,0,0,response1disk,,7,7.200011551,-8.000006557,1,0,0,rectangle,7.200011551,-8.000006557,1,0,0,7.200011551,-8.000006557,1,0,0,0,118,118,114,1,,,,,,,,
,,,,,,,,,,,,,FF,,,,,,,,0.6498,,,,,,,,,,,,,,,,,,,,,,6100fb3a99688019dec679d9,61036e821530cb5388c9ba01,2021-07-29_23h17.20.185,Simcolourproject_2stim_asymm_v5,2020.2.10,Win32,60,61025ae37ef11b136ea224fe,,,,,,,,,4304,40.80001205,67.19997015,1,0,0,response1disk,,7,5.600060356,4.799993634,1,0,0,rectangle,5.600060356,4.799993634,1,0,0,5.600060356,4.799993634,1,0,0,0,119,119,6,1,,,,,,,,
,,,,,,,,,,,,,FF,,,,,,,,0.6163,,,,,,,,,,,,,,,,,,,,,,6100fb3a99688019dec679d9,61036e821530cb5388c9ba01,2021-07-29_23h17.20.185,Simcolourproject_2stim_asymm_v5,2020.2.10,Win32,60,61025ae37ef11b136ea224fe,,,,,,,,,3249,44.0000121,99.99999505,1,0,0,response1disk,,7,2.40001148,7.999993682,1,0,0,rectangle,2.40001148,7.999993682,1,0,0,2.40001148,7.999993682,1,0,0,0,120,120,47,1,,,,,,,,
,,,,,,,,,,,,,FF,,,,,,,,0.6,,,,,,,,,,,,,,,,,,,,,,6100fb3a99688019dec679d9,61036e821530cb5388c9ba01,2021-07-29_23h17.20.185,Simcolourproject_2stim_asymm_v5,2020.2.10,Win32,60,61025ae37ef11b136ea224fe,,,,,,,,,1742,27.20001185,79.19997033,1,0,0,response1disk,,7,4.800011516,7.19999367,1,0,0,rectangle,4.800011516,7.19999367,1,0,0,4.800011516,7.19999367,1,0,0,0,121,121,26,1,,,,,,,,
,,,,,,,,,,,,,FF,,,,,,,,0.4999,,,,,,,,,,,,,,,,,,,,,,6100fb3a99688019dec679d9,61036e821530cb5388c9ba01,2021-07-29_23h17.20.185,Simcolourproject_2stim_asymm_v5,2020.2.10,Win32,60,61025ae37ef11b136ea224fe,,,,,,,,,234,32.00001192,94.39999497,1,0,0,response1disk,,7,0.800011456,3.999993622,1,0,0,rectangle,0.800011456,3.999993622,1,0,0,0.800011456,3.999993622,1,0,0,0,122,122,45,1,,,,,,,,
,,,,,,,,,,,,,FF,,,,,,,,0.4669,,,,,,,,,,,,,,,,,,,,,,6100fb3a99688019dec679d9,61036e821530cb5388c9ba01,2021-07-29_23h17.20.185,Simcolourproject_2stim_asymm_v5,2020.2.10,Win32,60,61025ae37ef11b136ea224fe,,,,,,,,,3305,24.80001181,75.9999947,1,0,0,response1disk,,7,-1.59998858,-1.600006461,1,0,0,rectangle,-1.59998858,-1.600006461,1,0,0,-1.59998858,-1.600006461,1,0,0,0,123,123,151,1,,,,,,,,
,,,,,,,,,,,,,FF,,,,,,,,0.6002,,,,,,,,,,,,,,,,,,,,,,6100fb3a99688019dec679d9,61036e821530cb5388c9ba01,2021-07-29_23h17.20.185,Simcolourproject_2stim_asymm_v5,2020.2.10,Win32,60,61025ae37ef11b136ea224fe,,,,,,,,,3411,45.60006095,98.39999503,1,0,0,response1disk,,7,4.000011504,0.799993575,1,0,0,rectangle,4.000011504,0.799993575,1,0,0,4.000011504,0.799993575,1,0,0,0,124,124,66,1,,,,,,,,
,,,,,,,,,,,,,FF,,,,,,,,0.5168,,,,,,,,,,,,,,,,,,,,,,6100fb3a99688019dec679d9,61036e821530cb5388c9ba01,2021-07-29_23h17.20.185,Simcolourproject_2stim_asymm_v5,2020.2.10,Win32,60,61025ae37ef11b136ea224fe,,,,,,,,,2125,46.40001214,95.19997057,1,0,0,response1disk,,7,4.000011504,-4.800006509,1,0,0,rectangle,4.000011504,-4.800006509,1,0,0,4.000011504,-4.800006509,1,0,0,0,125,125,80,1,,,,,,,,
,,,,,,,,,,,,,FF,,,,,,,,1.2336,,,,,,,,,,,,,,,,,,,,,,6100fb3a99688019dec679d9,61036e821530cb5388c9ba01,2021-07-29_23h17.20.185,Simcolourproject_2stim_asymm_v5,2020.2.10,Win32,60,61025ae37ef11b136ea224fe,,,,,,,,,4188,56.00001228,99.99999505,1,0,0,response1disk,,7,-2.399939764,7.19999367,1,0,0,rectangle,-94.39994113,-51.2000072,1,0,0,-2.399939764,-10.40000659,1,0,0,0,126,126,135,1,,response5disk_3,TRUE,2,2,"[78,7,298,113,295,54,208,17,259,40,143,196,297,298,179,41,38,215,229,127]",1.9327,rectangle
,,,,,,,,,,,,,FF,,,,,,,,0.7834,,,,,,,,,,,,,,,,,,,,,,6100fb3a99688019dec679d9,61036e821530cb5388c9ba01,2021-07-29_23h17.20.185,Simcolourproject_2stim_asymm_v5,2020.2.10,Win32,60,61025ae37ef11b136ea224fe,,,,,,,,,857,39.20001203,54.39999437,1,0,0,response1disk,,7,0.800011456,-2.400006473,1,0,0,rectangle,0.800011456,-2.400006473,1,0,0,0.800011456,-2.400006473,1,0,0,0,127,127,149,1,,,,,,,,
,,,,,,,,,,,,,FF,,,,,,,,0.5787,,,,,,,,,,,,,,,,,,,,,,6100fb3a99688019dec679d9,61036e821530cb5388c9ba01,2021-07-29_23h17.20.185,Simcolourproject_2stim_asymm_v5,2020.2.10,Win32,60,61025ae37ef11b136ea224fe,,,,,,,,,3588,30.4000119,80.79999477,1,0,0,response1disk,,7,-8.799988687,-3.200006485,1,0,0,rectangle,-8.799988687,-3.200006485,1,0,0,-8.799988687,-3.200006485,1,0,0,0,128,128,145,1,,,,,,,,
,,,,,,,,,,,,,FF,,,,,,,,0.5877,,,,,,,,,,,,,,,,,,,,,,6100fb3a99688019dec679d9,61036e821530cb5388c9ba01,2021-07-29_23h17.20.185,Simcolourproject_2stim_asymm_v5,2020.2.10,Win32,60,61025ae37ef11b136ea224fe,,,,,,,,,1777,20.00001174,79.19997033,1,0,0,response1disk,,7,1.600060296,3.999993622,1,0,0,rectangle,1.600060296,3.999993622,1,0,0,1.600060296,3.999993622,1,0,0,0,129,129,128,1,,,,,,,,
,,,,,,,,,,,,,FF,,,,,,,,0.5171,,,,,,,,,,,,,,,,,,,,,,6100fb3a99688019dec679d9,61036e821530cb5388c9ba01,2021-07-29_23h17.20.185,Simcolourproject_2stim_asymm_v5,2020.2.10,Win32,60,61025ae37ef11b136ea224fe,,,,,,,,,1162,29.60006071,65.59999454,1,0,0,response1disk,,7,-3.199988604,3.19999361,1,0,0,rectangle,-3.199988604,3.19999361,1,0,0,-3.199988604,3.19999361,1,0,0,0,130,130,29,1,,,,,,,,
,,,,,,,,,,,,,FF,,,,,,,,0.638,,,,,,,,,,,,,,,,,,,,,,6100fb3a99688019dec679d9,61036e821530cb5388c9ba01,2021-07-29_23h17.20.185,Simcolourproject_2stim_asymm_v5,2020.2.10,Win32,60,61025ae37ef11b136ea224fe,,,,,,,,,213,24.80001181,60.79999447,1,0,0,response1disk,,7,1.600060296,-4.800006509,1,0,0,rectangle,1.600060296,-4.800006509,1,0,0,1.600060296,-4.800006509,1,0,0,0,131,131,100,1,,,,,,,,
,,,,,,,,,,,,,FF,,,,,,,,0.5505,,,,,,,,,,,,,,,,,,,,,,6100fb3a99688019dec679d9,61036e821530cb5388c9ba01,2021-07-29_23h17.20.185,Simcolourproject_2stim_asymm_v5,2020.2.10,Win32,60,61025ae37ef11b136ea224fe,,,,,,,,,2315,31.20001191,82.39999479,1,0,0,response1disk,,7,2.40001148,-6.4373E-06,1,0,0,rectangle,2.40001148,-6.4373E-06,1,0,0,2.40001148,-6.4373E-06,1,0,0,0,132,132,8,1,,,,,,,,
,,,,,,,,,,,,,FF,,,,,,,,0.5332,,,,,,,,,,,,,,,,,,,,,,6100fb3a99688019dec679d9,61036e821530cb5388c9ba01,2021-07-29_23h17.20.185,Simcolourproject_2stim_asymm_v5,2020.2.10,Win32,60,61025ae37ef11b136ea224fe,,,,,,,,,2436,32.80001193,82.39999479,1,0,0,response1disk,,7,11.20001161,12.79999375,1,0,0,rectangle,11.20001161,12.79999375,1,0,0,11.20001161,12.79999375,1,0,0,0,133,133,113,1,,,,,,,,
,,,,,,,,,,,,,FF,,,,,,,,0.7327,,,,,,,,,,,,,,,,,,,,,,6100fb3a99688019dec679d9,61036e821530cb5388c9ba01,2021-07-29_23h17.20.185,Simcolourproject_2stim_asymm_v5,2020.2.10,Win32,60,61025ae37ef11b136ea224fe,,,,,,,,,4263,36.80001199,89.5999949,1,0,0,response1disk,,7,3.200011492,-4.800006509,1,0,0,rectangle,3.200011492,-4.800006509,1,0,0,3.200011492,-4.800006509,1,0,0,0,134,134,71,1,,,,,,,,
,,,,,,,,,,,,,FF,,,,,,,,0.5835,,,,,,,,,,,,,,,,,,,,,,6100fb3a99688019dec679d9,61036e821530cb5388c9ba01,2021-07-29_23h17.20.185,Simcolourproject_2stim_asymm_v5,2020.2.10,Win32,60,61025ae37ef11b136ea224fe,,,,,,,,,2060,27.20001185,61.59999448,1,0,0,response1disk,,7,-4.799988627,-2.400006473,1,0,0,rectangle,-4.799988627,-2.400006473,1,0,0,-4.799988627,-2.400006473,1,0,0,0,135,135,120,1,,,,,,,,
,,,,,,,,,,,,,FF,,,,,,,,0.5831,,,,,,,,,,,,,,,,,,,,,,6100fb3a99688019dec679d9,61036e821530cb5388c9ba01,2021-07-29_23h17.20.185,Simcolourproject_2stim_asymm_v5,2020.2.10,Win32,60,61025ae37ef11b136ea224fe,,,,,,,,,1669,43.20001209,101.5999951,1,0,0,response1disk,,7,-6.399939823,7.999993682,1,0,0,rectangle,-6.399939823,7.999993682,1,0,0,-6.399939823,7.999993682,1,0,0,0,136,136,157,1,,,,,,,,
,,,,,,,,,,,,,FF,,,,,,,,0.7826,,,,,,,,,,,,,,,,,,,,,,6100fb3a99688019dec679d9,61036e821530cb5388c9ba01,2021-07-29_23h17.20.185,Simcolourproject_2stim_asymm_v5,2020.2.10,Win32,60,61025ae37ef11b136ea224fe,,,,,,,,,2184,18.40001172,71.19997021,1,0,0,response1disk,,7,-7.199988663,0.799993575,1,0,0,rectangle,-7.199988663,0.799993575,1,0,0,-7.199988663,0.799993575,1,0,0,0,137,137,89,1,,,,,,,,
,,,,,,,,,,,,,FF,,,,,,,,2.0668,,,,,,,,,,,,,,,,,,,,,,6100fb3a99688019dec679d9,61036e821530cb5388c9ba01,2021-07-29_23h17.20.185,Simcolourproject_2stim_asymm_v5,2020.2.10,Win32,60,61025ae37ef11b136ea224fe,,,,,,,,,3554,52.00001222,83.19997039,1,0,0,response1disk,,7,4.800011516,8.799993694,1,0,0,rectangle,4.800011516,8.799993694,1,0,0,4.800011516,8.799993694,1,0,0,0,138,138,153,1,,,,,,,,
,,,,,,,,,,,,,FF,,,,,,,,2.1837,,,,,,,,,,,,,,,,,,,,,,6100fb3a99688019dec679d9,61036e821530cb5388c9ba01,2021-07-29_23h17.20.185,Simcolourproject_2stim_asymm_v5,2020.2.10,Win32,60,61025ae37ef11b136ea224fe,,,,,,,,,1588,48.00001216,81.59999478,1,0,0,response1disk,,7,11.20001161,3.999993622,1,0,0,rectangle,11.20001161,3.999993622,1,0,0,11.20001161,3.999993622,1,0,0,0,139,139,25,1,,,,,,,,
,,,,,,,,,,,,,FF,,,,,,,,0.5168,,,,,,,,,,,,,,,,,,,,,,6100fb3a99688019dec679d9,61036e821530cb5388c9ba01,2021-07-29_23h17.20.185,Simcolourproject_2stim_asymm_v5,2020.2.10,Win32,60,61025ae37ef11b136ea224fe,,,,,,,,,3841,35.20001197,75.19997027,1,0,0,response1disk,,7,-12.79998875,-3.200006485,1,0,0,rectangle,-12.79998875,-3.200006485,1,0,0,-12.79998875,-3.200006485,1,0,0,0,140,140,21,1,,,,,,,,
,,,,,,,,,,,,,FF,,,,,,,,0.4669,,,,,,,,,,,,,,,,,,,,,,6100fb3a99688019dec679d9,61036e821530cb5388c9ba01,2021-07-29_23h17.20.185,Simcolourproject_2stim_asymm_v5,2020.2.10,Win32,60,61025ae37ef11b136ea224fe,,,,,,,,,2732,25.60006065,87.99999487,1,0,0,response1disk,,7,1.14441E-05,2.399993598,1,0,0,rectangle,1.14441E-05,2.399993598,1,0,0,1.14441E-05,2.399993598,1,0,0,0,141,141,75,1,,,,,,,,
,,,,,,,,,,,,,FF,,,,,,,,1.5334,,,,,,,,,,,,,,,,,,,,,,6100fb3a99688019dec679d9,61036e821530cb5388c9ba01,2021-07-29_23h17.20.185,Simcolourproject_2stim_asymm_v5,2020.2.10,Win32,60,61025ae37ef11b136ea224fe,,,,,,,,,3517,30.4000119,85.59999484,1,0,0,response1disk,,7,0.800011456,-8.000006557,1,0,0,rectangle,-114.3999414,-52.80000722,1,0,0,-10.39993988,-8.800006568,1,0,0,0,142,142,84,1,,response5disk_3,TRUE,2,2,"[78,7,298,113,295,54,208,17,259,40,143,196,297,298,179,41,38,215,229,127]",1.6164,rectangle
,,,,,,,,,,,,,FF,,,,,,,,1.467,,,,,,,,,,,,,,,,,,,,,,6100fb3a99688019dec679d9,61036e821530cb5388c9ba01,2021-07-29_23h17.20.185,Simcolourproject_2stim_asymm_v5,2020.2.10,Win32,60,61025ae37ef11b136ea224fe,,,,,,,,,1343,32.00001192,65.59999454,1,0,0,response1disk,,7,4.000011504,0.799993575,1,0,0,rectangle,4.000011504,0.799993575,1,0,0,4.000011504,0.799993575,1,0,0,0,143,143,15,1,,,,,,,,
,,,,,,,,,,,,,FF,,,,,,,,1.467,,,,,,,,,,,,,,,,,,,,,,6100fb3a99688019dec679d9,61036e821530cb5388c9ba01,2021-07-29_23h17.20.185,Simcolourproject_2stim_asymm_v5,2020.2.10,Win32,60,61025ae37ef11b136ea224fe,,,,,,,,,3689,33.60006077,67.99999458,1,0,0,response1disk,,7,0.800011456,9.599993706,1,0,0,rectangle,0.800011456,9.599993706,1,0,0,0.800011456,9.599993706,1,0,0,0,144,144,99,1,,,,,,,,
,,,,,,,,,,,,,FF,,,,,,,,0.6303,,,,,,,,,,,,,,,,,,,,,,6100fb3a99688019dec679d9,61036e821530cb5388c9ba01,2021-07-29_23h17.20.185,Simcolourproject_2stim_asymm_v5,2020.2.10,Win32,60,61025ae37ef11b136ea224fe,,,,,,,,,3209,33.60006077,65.59999454,1,0,0,response1disk,,7,-1.59998858,-2.400006473,1,0,0,rectangle,-1.59998858,-2.400006473,1,0,0,-1.59998858,-2.400006473,1,0,0,0,145,145,5,1,,,,,,,,
,,,,,,,,,,,,,FF,,,,,,,,3.3329,,,,,,,,,,,,,,,,,,,,,,6100fb3a99688019dec679d9,61036e821530cb5388c9ba01,2021-07-29_23h17.20.185,Simcolourproject_2stim_asymm_v5,2020.2.10,Win32,60,61025ae37ef11b136ea224fe,,,,,,,,,1445,-59.19998944,-48.80000716,1,0,0,response5disk,,2,10.4000116,9.599993706,1,0,0,rectangle,10.4000116,9.599993706,1,0,0,10.4000116,9.599993706,1,0,0,0,146,146,139,1,,,,,,,,
,,,,,,,,,,,,,FF,,,,,,,,0.6503,,,,,,,,,,,,,,,,,,,,,,6100fb3a99688019dec679d9,61036e821530cb5388c9ba01,2021-07-29_23h17.20.185,Simcolourproject_2stim_asymm_v5,2020.2.10,Win32,60,61025ae37ef11b136ea224fe,,,,,,,,,154,37.60006083,70.39999461,1,0,0,response1disk,,7,-1.59998858,5.599993646,1,0,0,rectangle,-1.59998858,5.599993646,1,0,0,-1.59998858,5.599993646,1,0,0,0,147,147,147,1,,,,,,,,
,,,,,,,,,,,,,FF,,,,,,,,0.6795,,,,,,,,,,,,,,,,,,,,,,6100fb3a99688019dec679d9,61036e821530cb5388c9ba01,2021-07-29_23h17.20.185,Simcolourproject_2stim_asymm_v5,2020.2.10,Win32,60,61025ae37ef11b136ea224fe,,,,,,,,,1693,40.80001205,107.9999952,1,0,0,response1disk,,7,-7.999988675,-4.000006497,1,0,0,rectangle,-7.999988675,-4.000006497,1,0,0,-7.999988675,-4.000006497,1,0,0,0,148,148,122,1,,,,,,,,
,,,,,,,,,,,,,FF,,,,,,,,1.4504,,,,,,,,,,,,,,,,,,,,,,6100fb3a99688019dec679d9,61036e821530cb5388c9ba01,2021-07-29_23h17.20.185,Simcolourproject_2stim_asymm_v5,2020.2.10,Win32,60,61025ae37ef11b136ea224fe,,,,,,,,,3283,43.20001209,93.59999496,1,0,0,response1disk,,7,1.600060296,-10.40000659,1,0,0,rectangle,1.600060296,-10.40000659,1,0,0,1.600060296,-10.40000659,1,0,0,0,149,149,61,1,,,,,,,,
,,,,,,,,,,,,,FF,,,,,,,,0.4997,,,,,,,,,,,,,,,,,,,,,,6100fb3a99688019dec679d9,61036e821530cb5388c9ba01,2021-07-29_23h17.20.185,Simcolourproject_2stim_asymm_v5,2020.2.10,Win32,60,61025ae37ef11b136ea224fe,,,,,,,,,3745,31.20001191,80.79999477,1,0,0,response1disk,,7,0.800011456,2.399993598,1,0,0,rectangle,0.800011456,2.399993598,1,0,0,0.800011456,2.399993598,1,0,0,0,150,150,152,1,,,,,,,,
,,,,,,,,,,,,,FF,,,,,,,,0.5002,,,,,,,,,,,,,,,,,,,,,,6100fb3a99688019dec679d9,61036e821530cb5388c9ba01,2021-07-29_23h17.20.185,Simcolourproject_2stim_asymm_v5,2020.2.10,Win32,60,61025ae37ef11b136ea224fe,,,,,,,,,947,41.60006089,83.19997039,1,0,0,response1disk,,7,4.000011504,-2.400006473,1,0,0,rectangle,4.000011504,-2.400006473,1,0,0,4.000011504,-2.400006473,1,0,0,0,151,151,2,1,,,,,,,,
,,,,,,,,,,,,,FF,,,,,,,,0.5667,,,,,,,,,,,,,,,,,,,,,,6100fb3a99688019dec679d9,61036e821530cb5388c9ba01,2021-07-29_23h17.20.185,Simcolourproject_2stim_asymm_v5,2020.2.10,Win32,60,61025ae37ef11b136ea224fe,,,,,,,,,3621,24.0000118,67.19997015,1,0,0,response1disk,,7,-2.399939764,-5.600006521,1,0,0,rectangle,-2.399939764,-5.600006521,1,0,0,-2.399939764,-5.600006521,1,0,0,0,152,152,104,1,,,,,,,,
,,,,,,,,,,,,,FF,,,,,,,,0.5002,,,,,,,,,,,,,,,,,,,,,,6100fb3a99688019dec679d9,61036e821530cb5388c9ba01,2021-07-29_23h17.20.185,Simcolourproject_2stim_asymm_v5,2020.2.10,Win32,60,61025ae37ef11b136ea224fe,,,,,,,,,3028,42.40001208,82.39999479,1,0,0,response1disk,,7,6.400011539,3.999993622,1,0,0,rectangle,6.400011539,3.999993622,1,0,0,6.400011539,3.999993622,1,0,0,0,153,153,62,1,,,,,,,,
,,,,,,,,,,,,,FF,,,,,,,,0.6127,,,,,,,,,,,,,,,,,,,,,,6100fb3a99688019dec679d9,61036e821530cb5388c9ba01,2021-07-29_23h17.20.185,Simcolourproject_2stim_asymm_v5,2020.2.10,Win32,60,61025ae37ef11b136ea224fe,,,,,,,,,956,26.40001184,74.39999467,1,0,0,response1disk,,7,-0.799988568,-6.4373E-06,1,0,0,rectangle,-0.799988568,-6.4373E-06,1,0,0,-0.799988568,-6.4373E-06,1,0,0,0,154,154,48,1,,,,,,,,
,,,,,,,,,,,,,FF,,,,,,,,0.6503,,,,,,,,,,,,,,,,,,,,,,6100fb3a99688019dec679d9,61036e821530cb5388c9ba01,2021-07-29_23h17.20.185,Simcolourproject_2stim_asymm_v5,2020.2.10,Win32,60,61025ae37ef11b136ea224fe,,,,,,,,,378,24.80001181,74.39999467,1,0,0,response1disk,,7,-1.59998858,6.399993658,1,0,0,rectangle,-1.59998858,6.399993658,1,0,0,-1.59998858,6.399993658,1,0,0,0,155,155,9,1,,,,,,,,
,,,,,,,,,,,,,FF,,,,,,,,0.6338,,,,,,,,,,,,,,,,,,,,,,6100fb3a99688019dec679d9,61036e821530cb5388c9ba01,2021-07-29_23h17.20.185,Simcolourproject_2stim_asymm_v5,2020.2.10,Win32,60,61025ae37ef11b136ea224fe,,,,,,,,,2898,43.20001209,83.99999481,1,0,0,response1disk,,7,-3.999988616,-0.800006449,1,0,0,rectangle,-3.999988616,-0.800006449,1,0,0,-3.999988616,-0.800006449,1,0,0,0,156,156,13,1,,,,,,,,
,,,,,,,,,,,,,FF,,,,,,,,0.5881,,,,,,,,,,,,,,,,,,,,,,6100fb3a99688019dec679d9,61036e821530cb5388c9ba01,2021-07-29_23h17.20.185,Simcolourproject_2stim_asymm_v5,2020.2.10,Win32,60,61025ae37ef11b136ea224fe,,,,,,,,,2008,36.80001199,83.99999481,1,0,0,response1disk,,7,-8.799988687,-4.000006497,1,0,0,rectangle,-8.799988687,-4.000006497,1,0,0,-8.799988687,-4.000006497,1,0,0,0,157,157,50,1,,,,,,,,
,,,,,,,,,,,,,FF,,,,,,,,1.9337,,,,,,,,,,,,,,,,,,,,,,6100fb3a99688019dec679d9,61036e821530cb5388c9ba01,2021-07-29_23h17.20.185,Simcolourproject_2stim_asymm_v5,2020.2.10,Win32,60,61025ae37ef11b136ea224fe,,,,,,,,,3189,104.800013,51.99999434,1,0,0,response1disk,,6,15.20001167,15.9999938,1,0,0,rectangle,15.20001167,15.9999938,1,0,0,15.20001167,15.9999938,1,0,0,0,158,158,131,1,,,,,,,,
,,,,,,,,,,,,,FF,,,,,,,,0.483,,,,,,,,,,,,,,,,,,,,,,6100fb3a99688019dec679d9,61036e821530cb5388c9ba01,2021-07-29_23h17.20.185,Simcolourproject_2stim_asymm_v5,2020.2.10,Win32,60,61025ae37ef11b136ea224fe,,,,,,,,,2681,43.20001209,75.19997027,1,0,0,response1disk,,7,1.600060296,1.599993587,1,0,0,rectangle,1.600060296,1.599993587,1,0,0,1.600060296,1.599993587,1,0,0,0,159,159,144,1,,,,,,,,
,,,,,,,,,,,,,FF,,,,,,,,0.4847,,,,,,,,,,,,,,,,,,,,,,6100fb3a99688019dec679d9,61036e821530cb5388c9ba01,2021-07-29_23h17.20.185,Simcolourproject_2stim_asymm_v5,2020.2.10,Win32,60,61025ae37ef11b136ea224fe,,,,,,,,,577,27.20001185,70.39999461,1,0,0,response1disk,,7,-7.199988663,-6.400006533,1,0,0,rectangle,-7.199988663,-6.400006533,1,0,0,-7.199988663,-6.400006533,1,0,0,1,0,160,91,1,,,,,,,,
,,,,,,,,,,,,,FF,,,,,,,,0.6004,,,,,,,,,,,,,,,,,,,,,,6100fb3a99688019dec679d9,61036e821530cb5388c9ba01,2021-07-29_23h17.20.185,Simcolourproject_2stim_asymm_v5,2020.2.10,Win32,60,61025ae37ef11b136ea224fe,,,,,,,,,2351,28.00001186,61.59999448,1,0,0,response1disk,,7,8.800011575,11.99999374,1,0,0,rectangle,8.800011575,11.99999374,1,0,0,8.800011575,11.99999374,1,0,0,1,1,161,123,1,,,,,,,,
,,,,,,,,,,,,,FF,,,,,,,,0.5837,,,,,,,,,,,,,,,,,,,,,,6100fb3a99688019dec679d9,61036e821530cb5388c9ba01,2021-07-29_23h17.20.185,Simcolourproject_2stim_asymm_v5,2020.2.10,Win32,60,61025ae37ef11b136ea224fe,,,,,,,,,3585,27.20001185,67.99999458,1,0,0,response1disk,,7,4.000011504,7.999993682,1,0,0,rectangle,4.000011504,7.999993682,1,0,0,4.000011504,7.999993682,1,0,0,1,2,162,33,1,,,,,,,,
,,,,,,,,,,,,,FF,,,,,,,,0.5168,,,,,,,,,,,,,,,,,,,,,,6100fb3a99688019dec679d9,61036e821530cb5388c9ba01,2021-07-29_23h17.20.185,Simcolourproject_2stim_asymm_v5,2020.2.10,Win32,60,61025ae37ef11b136ea224fe,,,,,,,,,3273,26.40001184,75.9999947,1,0,0,response1disk,,7,-0.799988568,11.99999374,1,0,0,rectangle,-0.799988568,11.99999374,1,0,0,-0.799988568,11.99999374,1,0,0,1,3,163,103,1,,,,,,,,
,,,,,,,,,,,,,FF,,,,,,,,4.0174,,,,,,,,,,,,,,,,,,,,,,6100fb3a99688019dec679d9,61036e821530cb5388c9ba01,2021-07-29_23h17.20.185,Simcolourproject_2stim_asymm_v5,2020.2.10,Win32,60,61025ae37ef11b136ea224fe,,,,,,,,,2025,36.80001199,-100.0000079,1,0,0,response3disk,,4,1.14441E-05,1.599993587,1,0,0,rectangle,1.14441E-05,1.599993587,1,0,0,1.14441E-05,1.599993587,1,0,0,1,4,164,24,1,,,,,,,,
,,,,,,,,,,,,,FF,,,,,,,,0.7296,,,,,,,,,,,,,,,,,,,,,,6100fb3a99688019dec679d9,61036e821530cb5388c9ba01,2021-07-29_23h17.20.185,Simcolourproject_2stim_asymm_v5,2020.2.10,Win32,60,61025ae37ef11b136ea224fe,,,,,,,,,2318,32.80001193,60.79999447,1,0,0,response1disk,,7,1.14441E-05,-8.800006568,1,0,0,rectangle,1.14441E-05,-8.800006568,1,0,0,1.14441E-05,-8.800006568,1,0,0,1,5,165,16,1,,,,,,,,
,,,,,,,,,,,,,FF,,,,,,,,1.7839,,,,,,,,,,,,,,,,,,,,,,6100fb3a99688019dec679d9,61036e821530cb5388c9ba01,2021-07-29_23h17.20.185,Simcolourproject_2stim_asymm_v5,2020.2.10,Win32,60,61025ae37ef11b136ea224fe,,,,,,,,,3712,44.80001211,92.79999495,1,0,0,response1disk,,7,-7.999988675,-3.200006485,1,0,0,rectangle,-7.999988675,-3.200006485,1,0,0,-7.999988675,-3.200006485,1,0,0,1,6,166,84,1,,,,,,,,
,,,,,,,,,,,,,FF,,,,,,,,0.55,,,,,,,,,,,,,,,,,,,,,,6100fb3a99688019dec679d9,61036e821530cb5388c9ba01,2021-07-29_23h17.20.185,Simcolourproject_2stim_asymm_v5,2020.2.10,Win32,60,61025ae37ef11b136ea224fe,,,,,,,,,3231,29.60006071,78.39999473,1,0,0,response1disk,,7,4.800011516,9.599993706,1,0,0,rectangle,4.800011516,9.599993706,1,0,0,4.800011516,9.599993706,1,0,0,1,7,167,105,1,,,,,,,,
,,,,,,,,,,,,,FF,,,,,,,,0.7166,,,,,,,,,,,,,,,,,,,,,,6100fb3a99688019dec679d9,61036e821530cb5388c9ba01,2021-07-29_23h17.20.185,Simcolourproject_2stim_asymm_v5,2020.2.10,Win32,60,61025ae37ef11b136ea224fe,,,,,,,,,1679,31.20001191,70.39999461,1,0,0,response1disk,,7,3.200011492,15.9999938,1,0,0,rectangle,3.200011492,15.9999938,1,0,0,3.200011492,15.9999938,1,0,0,1,8,168,29,1,,,,,,,,
,,,,,,,,,,,,,FF,,,,,,,,0.4671,,,,,,,,,,,,,,,,,,,,,,6100fb3a99688019dec679d9,61036e821530cb5388c9ba01,2021-07-29_23h17.20.185,Simcolourproject_2stim_asymm_v5,2020.2.10,Win32,60,61025ae37ef11b136ea224fe,,,,,,,,,1398,40.80001205,79.19997033,1,0,0,response1disk,,7,2.40001148,-3.200006485,1,0,0,rectangle,2.40001148,-3.200006485,1,0,0,2.40001148,-3.200006485,1,0,0,1,9,169,80,1,,,,,,,,
,,,,,,,,,,,,,FF,,,,,,,,2.434,,,,,,,,,,,,,,,,,,,,,,6100fb3a99688019dec679d9,61036e821530cb5388c9ba01,2021-07-29_23h17.20.185,Simcolourproject_2stim_asymm_v5,2020.2.10,Win32,60,61025ae37ef11b136ea224fe,,,,,,,,,3480,34.40001196,71.19997021,1,0,0,response1disk,,7,-3.199988604,-1.600006461,1,0,0,rectangle,-3.199988604,-1.600006461,1,0,0,-3.199988604,-1.600006461,1,0,0,1,10,170,50,1,,,,,,,,
,,,,,,,,,,,,,FF,,,,,,,,2.263,,,,,,,,,,,,,,,,,,,,,,6100fb3a99688019dec679d9,61036e821530cb5388c9ba01,2021-07-29_23h17.20.185,Simcolourproject_2stim_asymm_v5,2020.2.10,Win32,60,61025ae37ef11b136ea224fe,,,,,,,,,4358,42.40001208,79.19997033,1,0,0,response1disk,,7,1.600060296,3.999993622,1,0,0,rectangle,1.600060296,3.999993622,1,0,0,1.600060296,3.999993622,1,0,0,1,11,171,39,1,,,,,,,,
,,,,,,,,,,,,,FF,,,,,,,,0.5004,,,,,,,,,,,,,,,,,,,,,,6100fb3a99688019dec679d9,61036e821530cb5388c9ba01,2021-07-29_23h17.20.185,Simcolourproject_2stim_asymm_v5,2020.2.10,Win32,60,61025ae37ef11b136ea224fe,,,,,,,,,1507,30.4000119,50.39999431,1,0,0,response1disk,,7,1.600060296,7.19999367,1,0,0,rectangle,1.600060296,7.19999367,1,0,0,1.600060296,7.19999367,1,0,0,1,12,172,40,1,,,,,,,,
,,,,,,,,,,,,,FF,,,,,,,,0.5,,,,,,,,,,,,,,,,,,,,,,6100fb3a99688019dec679d9,61036e821530cb5388c9ba01,2021-07-29_23h17.20.185,Simcolourproject_2stim_asymm_v5,2020.2.10,Win32,60,61025ae37ef11b136ea224fe,,,,,,,,,1542,36.80001199,51.19996991,1,0,0,response1disk,,7,4.000011504,-4.000006497,1,0,0,rectangle,4.000011504,-4.000006497,1,0,0,4.000011504,-4.000006497,1,0,0,1,13,173,139,1,,,,,,,,
,,,,,,,,,,,,,FF,,,,,,,,0.8193,,,,,,,,,,,,,,,,,,,,,,6100fb3a99688019dec679d9,61036e821530cb5388c9ba01,2021-07-29_23h17.20.185,Simcolourproject_2stim_asymm_v5,2020.2.10,Win32,60,61025ae37ef11b136ea224fe,,,,,,,,,1229,28.80001187,63.19997009,1,0,0,response1disk,,7,-3.199988604,-6.4373E-06,1,0,0,rectangle,-3.199988604,-6.4373E-06,1,0,0,-3.199988604,-6.4373E-06,1,0,0,1,14,174,70,1,,,,,,,,
,,,,,,,,,,,,,FF,,,,,,,,0.9009,,,,,,,,,,,,,,,,,,,,,,6100fb3a99688019dec679d9,61036e821530cb5388c9ba01,2021-07-29_23h17.20.185,Simcolourproject_2stim_asymm_v5,2020.2.10,Win32,60,61025ae37ef11b136ea224fe,,,,,,,,,320,18.40001172,53.59999436,1,0,0,response1disk,,7,-10.39993988,-9.60000658,1,0,0,rectangle,-10.39993988,-9.60000658,1,0,0,-10.39993988,-9.60000658,1,0,0,1,15,175,120,1,,,,,,,,
,,,,,,,,,,,,,FF,,,,,,,,1.184,,,,,,,,,,,,,,,,,,,,,,6100fb3a99688019dec679d9,61036e821530cb5388c9ba01,2021-07-29_23h17.20.185,Simcolourproject_2stim_asymm_v5,2020.2.10,Win32,60,61025ae37ef11b136ea224fe,,,,,,,,,2841,36.00001198,79.19997033,1,0,0,response1disk,,7,8.800011575,7.999993682,1,0,0,rectangle,8.800011575,7.999993682,1,0,0,8.800011575,7.999993682,1,0,0,1,16,176,113,1,,,,,,,,
,,,,,,,,,,,,,FF,,,,,,,,0.4833,,,,,,,,,,,,,,,,,,,,,,6100fb3a99688019dec679d9,61036e821530cb5388c9ba01,2021-07-29_23h17.20.185,Simcolourproject_2stim_asymm_v5,2020.2.10,Win32,60,61025ae37ef11b136ea224fe,,,,,,,,,112,30.4000119,62.39999449,1,0,0,response1disk,,7,-2.399939764,-11.2000066,1,0,0,rectangle,-2.399939764,-11.2000066,1,0,0,-2.399939764,-11.2000066,1,0,0,1,17,177,95,1,,,,,,,,
,,,,,,,,,,,,,FF,,,,,,,,0.5159,,,,,,,,,,,,,,,,,,,,,,6100fb3a99688019dec679d9,61036e821530cb5388c9ba01,2021-07-29_23h17.20.185,Simcolourproject_2stim_asymm_v5,2020.2.10,Win32,60,61025ae37ef11b136ea224fe,,,,,,,,,2083,21.60006059,44.79999423,1,0,0,response1disk,,7,2.40001148,7.999993682,1,0,0,rectangle,36.80001199,-90.40000778,1,0,0,-23.1999889,5.599993646,1,0,0,1,18,178,66,1,,response3disk_3,TRUE,4,4,"[78,7,298,113,295,54,208,17,259,40,143,196,297,298,179,41,38,215,229,127]",1.5328,rectangle
,,,,,,,,,,,,,FF,,,,,,,,6.0667,,,,,,,,,,,,,,,,,,,,,,6100fb3a99688019dec679d9,61036e821530cb5388c9ba01,2021-07-29_23h17.20.185,Simcolourproject_2stim_asymm_v5,2020.2.10,Win32,60,61025ae37ef11b136ea224fe,,,,,,,,,330,20.80001175,60.79999447,1,0,0,response1disk,,7,-3.999988616,3.999993622,1,0,0,rectangle,-3.999988616,3.999993622,1,0,0,-3.999988616,3.999993622,1,0,0,1,19,179,98,1,,,,,,,,
,,,,,,,,,,,,,FF,,,,,,,,0.6167,,,,,,,,,,,,,,,,,,,,,,6100fb3a99688019dec679d9,61036e821530cb5388c9ba01,2021-07-29_23h17.20.185,Simcolourproject_2stim_asymm_v5,2020.2.10,Win32,60,61025ae37ef11b136ea224fe,,,,,,,,,1037,52.00001222,95.19997057,1,0,0,response1disk,,7,3.200011492,13.59999377,1,0,0,rectangle,3.200011492,13.59999377,1,0,0,3.200011492,13.59999377,1,0,0,1,20,180,44,1,,,,,,,,
,,,,,,,,,,,,,FF,,,,,,,,0.6005,,,,,,,,,,,,,,,,,,,,,,6100fb3a99688019dec679d9,61036e821530cb5388c9ba01,2021-07-29_23h17.20.185,Simcolourproject_2stim_asymm_v5,2020.2.10,Win32,60,61025ae37ef11b136ea224fe,,,,,,,,,2329,58.40001231,116.7999953,1,0,0,response1disk,,7,0.800011456,-2.400006473,1,0,0,rectangle,0.800011456,-2.400006473,1,0,0,0.800011456,-2.400006473,1,0,0,1,21,181,76,1,,,,,,,,
,,,,,,,,,,,,,FF,,,,,,,,0.5339,,,,,,,,,,,,,,,,,,,,,,6100fb3a99688019dec679d9,61036e821530cb5388c9ba01,2021-07-29_23h17.20.185,Simcolourproject_2stim_asymm_v5,2020.2.10,Win32,60,61025ae37ef11b136ea224fe,,,,,,,,,2330,48.80001217,84.79999483,1,0,0,response1disk,,7,8.000011563,-8.800006568,1,0,0,rectangle,8.000011563,-8.800006568,1,0,0,8.000011563,-8.800006568,1,0,0,1,22,182,54,1,,,,,,,,
,,,,,,,,,,,,,FF,,,,,,,,0.5495,,,,,,,,,,,,,,,,,,,,,,6100fb3a99688019dec679d9,61036e821530cb5388c9ba01,2021-07-29_23h17.20.185,Simcolourproject_2stim_asymm_v5,2020.2.10,Win32,60,61025ae37ef11b136ea224fe,,,,,,,,,2805,28.80001187,58.39999443,1,0,0,response1disk,,7,-3.999988616,-3.200006485,1,0,0,rectangle,-3.999988616,-3.200006485,1,0,0,-3.999988616,-3.200006485,1,0,0,1,23,183,88,1,,,,,,,,
,,,,,,,,,,,,,FF,,,,,,,,0.4841,,,,,,,,,,,,,,,,,,,,,,6100fb3a99688019dec679d9,61036e821530cb5388c9ba01,2021-07-29_23h17.20.185,Simcolourproject_2stim_asymm_v5,2020.2.10,Win32,60,61025ae37ef11b136ea224fe,,,,,,,,,2079,25.60006065,55.9999944,1,0,0,response1disk,,7,-0.799988568,-12.00000662,1,0,0,rectangle,-0.799988568,-12.00000662,1,0,0,-0.799988568,-12.00000662,1,0,0,1,24,184,85,1,,,,,,,,
,,,,,,,,,,,,,FF,,,,,,,,0.5331,,,,,,,,,,,,,,,,,,,,,,6100fb3a99688019dec679d9,61036e821530cb5388c9ba01,2021-07-29_23h17.20.185,Simcolourproject_2stim_asymm_v5,2020.2.10,Win32,60,61025ae37ef11b136ea224fe,,,,,,,,,2251,34.40001196,91.99999493,1,0,0,response1disk,,7,5.600060356,7.19999367,1,0,0,rectangle,5.600060356,7.19999367,1,0,0,5.600060356,7.19999367,1,0,0,1,25,185,135,1,,,,,,,,
,,,,,,,,,,,,,FF,,,,,,,,0.8167,,,,,,,,,,,,,,,,,,,,,,6100fb3a99688019dec679d9,61036e821530cb5388c9ba01,2021-07-29_23h17.20.185,Simcolourproject_2stim_asymm_v5,2020.2.10,Win32,60,61025ae37ef11b136ea224fe,,,,,,,,,372,30.4000119,67.19997015,1,0,0,response1disk,,7,4.800011516,0.799993575,1,0,0,rectangle,4.800011516,0.799993575,1,0,0,4.800011516,0.799993575,1,0,0,1,26,186,89,1,,,,,,,,
,,,,,,,,,,,,,FF,,,,,,,,1.1336,,,,,,,,,,,,,,,,,,,,,,6100fb3a99688019dec679d9,61036e821530cb5388c9ba01,2021-07-29_23h17.20.185,Simcolourproject_2stim_asymm_v5,2020.2.10,Win32,60,61025ae37ef11b136ea224fe,,,,,,,,,893,73.60001254,34.39999408,1,0,0,response1disk,,6,8.800011575,-8.000006557,1,0,0,rectangle,8.800011575,-8.000006557,1,0,0,8.800011575,-8.000006557,1,0,0,1,27,187,104,1,,,,,,,,
,,,,,,,,,,,,,FF,,,,,,,,1.9499,,,,,,,,,,,,,,,,,,,,,,6100fb3a99688019dec679d9,61036e821530cb5388c9ba01,2021-07-29_23h17.20.185,Simcolourproject_2stim_asymm_v5,2020.2.10,Win32,60,61025ae37ef11b136ea224fe,,,,,,,,,4346,64.0000124,41.59999418,1,0,0,response1disk,,6,1.600060296,-14.40000665,1,0,0,rectangle,1.600060296,-14.40000665,1,0,0,1.600060296,-14.40000665,1,0,0,1,28,188,73,1,,,,,,,,
,,,,,,,,,,,,,FF,,,,,,,,1.6502,,,,,,,,,,,,,,,,,,,,,,6100fb3a99688019dec679d9,61036e821530cb5388c9ba01,2021-07-29_23h17.20.185,Simcolourproject_2stim_asymm_v5,2020.2.10,Win32,60,61025ae37ef11b136ea224fe,,,,,,,,,2943,34.40001196,72.79999465,1,0,0,response1disk,,7,4.000011504,-6.4373E-06,1,0,0,rectangle,4.000011504,-6.4373E-06,1,0,0,4.000011504,-6.4373E-06,1,0,0,1,29,189,129,1,,,,,,,,
,,,,,,,,,,,,,FF,,,,,,,,3.5676,,,,,,,,,,,,,,,,,,,,,,6100fb3a99688019dec679d9,61036e821530cb5388c9ba01,2021-07-29_23h17.20.185,Simcolourproject_2stim_asymm_v5,2020.2.10,Win32,60,61025ae37ef11b136ea224fe,,,,,,,,,4103,43.20001209,76.79999471,1,0,0,response1disk,,7,6.400011539,-2.400006473,1,0,0,rectangle,6.400011539,-2.400006473,1,0,0,6.400011539,-2.400006473,1,0,0,1,30,190,52,1,,,,,,,,
,,,,,,,,,,,,,FF,,,,,,,,0.5625,,,,,,,,,,,,,,,,,,,,,,6100fb3a99688019dec679d9,61036e821530cb5388c9ba01,2021-07-29_23h17.20.185,Simcolourproject_2stim_asymm_v5,2020.2.10,Win32,60,61025ae37ef11b136ea224fe,,,,,,,,,3687,30.4000119,68.79999459,1,0,0,response1disk,,7,1.14441E-05,-15.20000666,1,0,0,rectangle,1.14441E-05,-15.20000666,1,0,0,1.14441E-05,-15.20000666,1,0,0,1,31,191,106,1,,,,,,,,
,,,,,,,,,,,,,FF,,,,,,,,0.5836,,,,,,,,,,,,,,,,,,,,,,6100fb3a99688019dec679d9,61036e821530cb5388c9ba01,2021-07-29_23h17.20.185,Simcolourproject_2stim_asymm_v5,2020.2.10,Win32,60,61025ae37ef11b136ea224fe,,,,,,,,,4230,31.20001191,59.19997003,1,0,0,response1disk,,7,6.400011539,10.39999372,1,0,0,rectangle,6.400011539,10.39999372,1,0,0,6.400011539,10.39999372,1,0,0,1,32,192,41,1,,,,,,,,
,,,,,,,,,,,,,FF,,,,,,,,0.4997,,,,,,,,,,,,,,,,,,,,,,6100fb3a99688019dec679d9,61036e821530cb5388c9ba01,2021-07-29_23h17.20.185,Simcolourproject_2stim_asymm_v5,2020.2.10,Win32,60,61025ae37ef11b136ea224fe,,,,,,,,,271,35.20001197,81.59999478,1,0,0,response1disk,,7,-1.59998858,7.999993682,1,0,0,rectangle,-1.59998858,7.999993682,1,0,0,-1.59998858,7.999993682,1,0,0,1,33,193,101,1,,,,,,,,
,,,,,,,,,,,,,FF,,,,,,,,0.4672,,,,,,,,,,,,,,,,,,,,,,6100fb3a99688019dec679d9,61036e821530cb5388c9ba01,2021-07-29_23h17.20.185,Simcolourproject_2stim_asymm_v5,2020.2.10,Win32,60,61025ae37ef11b136ea224fe,,,,,,,,,248,25.60006065,59.19997003,1,0,0,response1disk,,7,3.200011492,7.19999367,1,0,0,rectangle,3.200011492,7.19999367,1,0,0,3.200011492,7.19999367,1,0,0,1,34,194,102,1,,,,,,,,
,,,,,,,,,,,,,FF,,,,,,,,0.45,,,,,,,,,,,,,,,,,,,,,,6100fb3a99688019dec679d9,61036e821530cb5388c9ba01,2021-07-29_23h17.20.185,Simcolourproject_2stim_asymm_v5,2020.2.10,Win32,60,61025ae37ef11b136ea224fe,,,,,,,,,4077,26.40001184,57.59999442,1,0,0,response1disk,,7,7.200011551,15.9999938,1,0,0,rectangle,49.60006101,-104.000008,1,0,0,-15.19998878,-11.2000066,1,0,0,1,35,195,53,1,,response3disk_3,TRUE,4,4,"[78,7,298,113,295,54,208,17,259,40,143,196,297,298,179,41,38,215,229,127]",1.4989,rectangle
,,,,,,,,,,,,,FF,,,,,,,,3.6672,,,,,,,,,,,,,,,,,,,,,,6100fb3a99688019dec679d9,61036e821530cb5388c9ba01,2021-07-29_23h17.20.185,Simcolourproject_2stim_asymm_v5,2020.2.10,Win32,60,61025ae37ef11b136ea224fe,,,,,,,,,802,89.60001278,33.59999406,1,0,0,response1disk,,6,3.200011492,3.19999361,1,0,0,rectangle,3.200011492,3.19999361,1,0,0,3.200011492,3.19999361,1,0,0,1,36,196,1,1,,,,,,,,
,,,,,,,,,,,,,FF,,,,,,,,0.7005,,,,,,,,,,,,,,,,,,,,,,6100fb3a99688019dec679d9,61036e821530cb5388c9ba01,2021-07-29_23h17.20.185,Simcolourproject_2stim_asymm_v5,2020.2.10,Win32,60,61025ae37ef11b136ea224fe,,,,,,,,,2086,53.60001224,100.7999951,1,0,0,response1disk,,7,-5.599988639,3.19999361,1,0,0,rectangle,-5.599988639,3.19999361,1,0,0,-5.599988639,3.19999361,1,0,0,1,37,197,15,1,,,,,,,,
,,,,,,,,,,,,,FF,,,,,,,,0.5002,,,,,,,,,,,,,,,,,,,,,,6100fb3a99688019dec679d9,61036e821530cb5388c9ba01,2021-07-29_23h17.20.185,Simcolourproject_2stim_asymm_v5,2020.2.10,Win32,60,61025ae37ef11b136ea224fe,,,,,,,,,688,18.40001172,61.59999448,1,0,0,response1disk,,7,-1.59998858,9.599993706,1,0,0,rectangle,-1.59998858,9.599993706,1,0,0,-1.59998858,9.599993706,1,0,0,1,38,198,74,1,,,,,,,,
,,,,,,,,,,,,,FF,,,,,,,,0.4837,,,,,,,,,,,,,,,,,,,,,,6100fb3a99688019dec679d9,61036e821530cb5388c9ba01,2021-07-29_23h17.20.185,Simcolourproject_2stim_asymm_v5,2020.2.10,Win32,60,61025ae37ef11b136ea224fe,,,,,,,,,2736,25.60006065,48.79999429,1,0,0,response1disk,,7,-3.199988604,-5.600006521,1,0,0,rectangle,-3.199988604,-5.600006521,1,0,0,-3.199988604,-5.600006521,1,0,0,1,39,199,121,1,,,,,,,,
,,,,,,,,,,,,,FF,,,,,,,,0.4503,,,,,,,,,,,,,,,,,,,,,,6100fb3a99688019dec679d9,61036e821530cb5388c9ba01,2021-07-29_23h17.20.185,Simcolourproject_2stim_asymm_v5,2020.2.10,Win32,60,61025ae37ef11b136ea224fe,,,,,,,,,3957,28.80001187,55.19996997,1,0,0,response1disk,,7,9.600060415,14.39999378,1,0,0,rectangle,9.600060415,14.39999378,1,0,0,9.600060415,14.39999378,1,0,0,1,40,200,5,1,,,,,,,,
,,,,,,,,,,,,,FF,,,,,,,,0.7504,,,,,,,,,,,,,,,,,,,,,,6100fb3a99688019dec679d9,61036e821530cb5388c9ba01,2021-07-29_23h17.20.185,Simcolourproject_2stim_asymm_v5,2020.2.10,Win32,60,61025ae37ef11b136ea224fe,,,,,,,,,2938,25.60006065,63.99999452,1,0,0,response1disk,,7,2.40001148,6.399993658,1,0,0,rectangle,2.40001148,6.399993658,1,0,0,2.40001148,6.399993658,1,0,0,1,41,201,79,1,,,,,,,,
,,,,,,,,,,,,,FF,,,,,,,,0.9005,,,,,,,,,,,,,,,,,,,,,,6100fb3a99688019dec679d9,61036e821530cb5388c9ba01,2021-07-29_23h17.20.185,Simcolourproject_2stim_asymm_v5,2020.2.10,Win32,60,61025ae37ef11b136ea224fe,,,,,,,,,658,34.40001196,76.79999471,1,0,0,response1disk,,7,-2.399939764,3.19999361,1,0,0,rectangle,-2.399939764,3.19999361,1,0,0,-2.399939764,3.19999361,1,0,0,1,42,202,82,1,,,,,,,,
,,,,,,,,,,,,,FF,,,,,,,,0.8172,,,,,,,,,,,,,,,,,,,,,,6100fb3a99688019dec679d9,61036e821530cb5388c9ba01,2021-07-29_23h17.20.185,Simcolourproject_2stim_asymm_v5,2020.2.10,Win32,60,61025ae37ef11b136ea224fe,,,,,,,,,2948,65.60001242,35.9999941,1,0,0,response1disk,,6,9.600060415,6.399993658,1,0,0,rectangle,9.600060415,6.399993658,1,0,0,9.600060415,6.399993658,1,0,0,1,43,203,133,1,,,,,,,,
,,,,,,,,,,,,,FF,,,,,,,,0.5671,,,,,,,,,,,,,,,,,,,,,,6100fb3a99688019dec679d9,61036e821530cb5388c9ba01,2021-07-29_23h17.20.185,Simcolourproject_2stim_asymm_v5,2020.2.10,Win32,60,61025ae37ef11b136ea224fe,,,,,,,,,4197,27.20001185,49.5999943,1,0,0,response1disk,,7,-7.199988663,0.799993575,1,0,0,rectangle,-7.199988663,0.799993575,1,0,0,-7.199988663,0.799993575,1,0,0,1,44,204,122,1,,,,,,,,
,,,,,,,,,,,,,FF,,,,,,,,0.5842,,,,,,,,,,,,,,,,,,,,,,6100fb3a99688019dec679d9,61036e821530cb5388c9ba01,2021-07-29_23h17.20.185,Simcolourproject_2stim_asymm_v5,2020.2.10,Win32,60,61025ae37ef11b136ea224fe,,,,,,,,,1273,24.0000118,64.79999453,1,0,0,response1disk,,7,6.400011539,11.99999374,1,0,0,rectangle,6.400011539,11.99999374,1,0,0,6.400011539,11.99999374,1,0,0,1,45,205,65,1,,,,,,,,
,,,,,,,,,,,,,FF,,,,,,,,0.4998,,,,,,,,,,,,,,,,,,,,,,6100fb3a99688019dec679d9,61036e821530cb5388c9ba01,2021-07-29_23h17.20.185,Simcolourproject_2stim_asymm_v5,2020.2.10,Win32,60,61025ae37ef11b136ea224fe,,,,,,,,,754,27.20001185,51.19996991,1,0,0,response1disk,,7,-1.59998858,3.19999361,1,0,0,rectangle,-1.59998858,3.19999361,1,0,0,-1.59998858,3.19999361,1,0,0,1,46,206,108,1,,,,,,,,
,,,,,,,,,,,,,FF,,,,,,,,0.5168,,,,,,,,,,,,,,,,,,,,,,6100fb3a99688019dec679d9,61036e821530cb5388c9ba01,2021-07-29_23h17.20.185,Simcolourproject_2stim_asymm_v5,2020.2.10,Win32,60,61025ae37ef11b136ea224fe,,,,,,,,,661,28.80001187,55.19996997,1,0,0,response1disk,,7,-4.799988627,4.799993634,1,0,0,rectangle,51.20001221,-100.8000079,1,0,0,-9.599988699,-11.2000066,1,0,0,1,47,207,147,1,,response3disk_3,TRUE,4,4,"[78,7,298,113,295,54,208,17,259,40,143,196,297,298,179,41,38,215,229,127]",1.434,rectangle
,,,,,,,,,,,,,FF,,,,,,,,0.5527,,,,,,,,,,,,,,,,,,,,,,6100fb3a99688019dec679d9,61036e821530cb5388c9ba01,2021-07-29_23h17.20.185,Simcolourproject_2stim_asymm_v5,2020.2.10,Win32,60,61025ae37ef11b136ea224fe,,,,,,,,,3779,30.4000119,38.39999413,1,0,0,response1disk,,7,-2.399939764,-11.2000066,1,0,0,rectangle,-2.399939764,-11.2000066,1,0,0,-2.399939764,-11.2000066,1,0,0,1,48,208,157,1,,,,,,,,
,,,,,,,,,,,,,FF,,,,,,,,1.1172,,,,,,,,,,,,,,,,,,,,,,6100fb3a99688019dec679d9,61036e821530cb5388c9ba01,2021-07-29_23h17.20.185,Simcolourproject_2stim_asymm_v5,2020.2.10,Win32,60,61025ae37ef11b136ea224fe,,,,,,,,,1374,48.80001217,29.599994,1,0,0,response1disk,,6,10.4000116,2.399993598,1,0,0,rectangle,10.4000116,2.399993598,1,0,0,10.4000116,2.399993598,1,0,0,1,49,209,45,1,,,,,,,,
,,,,,,,,,,,,,FF,,,,,,,,0.6676,,,,,,,,,,,,,,,,,,,,,,6100fb3a99688019dec679d9,61036e821530cb5388c9ba01,2021-07-29_23h17.20.185,Simcolourproject_2stim_asymm_v5,2020.2.10,Win32,60,61025ae37ef11b136ea224fe,,,,,,,,,484,25.60006065,43.19996979,1,0,0,response1disk,,7,-4.799988627,-7.200006545,1,0,0,rectangle,-4.799988627,-7.200006545,1,0,0,-4.799988627,-7.200006545,1,0,0,1,50,210,149,1,,,,,,,,
,,,,,,,,,,,,,FF,,,,,,,,0.65,,,,,,,,,,,,,,,,,,,,,,6100fb3a99688019dec679d9,61036e821530cb5388c9ba01,2021-07-29_23h17.20.185,Simcolourproject_2stim_asymm_v5,2020.2.10,Win32,60,61025ae37ef11b136ea224fe,,,,,,,,,733,35.20001197,55.9999944,1,0,0,response1disk,,7,-2.399939764,-0.800006449,1,0,0,rectangle,-2.399939764,-0.800006449,1,0,0,-2.399939764,-0.800006449,1,0,0,1,51,211,63,1,,,,,,,,
,,,,,,,,,,,,,FF,,,,,,,,2.6834,,,,,,,,,,,,,,,,,,,,,,6100fb3a99688019dec679d9,61036e821530cb5388c9ba01,2021-07-29_23h17.20.185,Simcolourproject_2stim_asymm_v5,2020.2.10,Win32,60,61025ae37ef11b136ea224fe,,,,,,,,,2480,-107.9999902,-51.2000072,1,0,0,response5disk,,2,1.14441E-05,-4.000006497,1,0,0,rectangle,1.14441E-05,-4.000006497,1,0,0,1.14441E-05,-4.000006497,1,0,0,1,52,212,131,1,,,,,,,,
,,,,,,,,,,,,,FF,,,,,,,,0.6509,,,,,,,,,,,,,,,,,,,,,,6100fb3a99688019dec679d9,61036e821530cb5388c9ba01,2021-07-29_23h17.20.185,Simcolourproject_2stim_asymm_v5,2020.2.10,Win32,60,61025ae37ef11b136ea224fe,,,,,,,,,116,35.20001197,57.59999442,1,0,0,response1disk,,7,0.800011456,-8.800006568,1,0,0,rectangle,0.800011456,-8.800006568,1,0,0,0.800011456,-8.800006568,1,0,0,1,53,213,25,1,,,,,,,,
,,,,,,,,,,,,,FF,,,,,,,,0.4666,,,,,,,,,,,,,,,,,,,,,,6100fb3a99688019dec679d9,61036e821530cb5388c9ba01,2021-07-29_23h17.20.185,Simcolourproject_2stim_asymm_v5,2020.2.10,Win32,60,61025ae37ef11b136ea224fe,,,,,,,,,341,35.20001197,64.79999453,1,0,0,response1disk,,7,4.800011516,-1.600006461,1,0,0,rectangle,125.6000133,-54.40000725,1,0,0,-6.399939823,-3.200006485,1,0,0,1,54,214,138,1,,response3disk_3,TRUE,5,5,"[78,7,298,113,295,54,208,17,259,40,143,196,297,298,179,41,38,215,229,127]",1.6842,rectangle
,,,,,,,,,,,,,FF,,,,,,,,0.6167,,,,,,,,,,,,,,,,,,,,,,6100fb3a99688019dec679d9,61036e821530cb5388c9ba01,2021-07-29_23h17.20.185,Simcolourproject_2stim_asymm_v5,2020.2.10,Win32,60,61025ae37ef11b136ea224fe,,,,,,,,,3199,32.00001192,74.39999467,1,0,0,response1disk,,7,1.600060296,9.599993706,1,0,0,rectangle,1.600060296,9.599993706,1,0,0,1.600060296,9.599993706,1,0,0,1,55,215,72,1,,,,,,,,
,,,,,,,,,,,,,FF,,,,,,,,0.6168,,,,,,,,,,,,,,,,,,,,,,6100fb3a99688019dec679d9,61036e821530cb5388c9ba01,2021-07-29_23h17.20.185,Simcolourproject_2stim_asymm_v5,2020.2.10,Win32,60,61025ae37ef11b136ea224fe,,,,,,,,,4131,28.00001186,79.19997033,1,0,0,response1disk,,7,-1.59998858,-3.200006485,1,0,0,rectangle,-1.59998858,-3.200006485,1,0,0,-1.59998858,-3.200006485,1,0,0,1,56,216,92,1,,,,,,,,
,,,,,,,,,,,,,FF,,,,,,,,0.5335,,,,,,,,,,,,,,,,,,,,,,6100fb3a99688019dec679d9,61036e821530cb5388c9ba01,2021-07-29_23h17.20.185,Simcolourproject_2stim_asymm_v5,2020.2.10,Win32,60,61025ae37ef11b136ea224fe,,,,,,,,,3501,28.80001187,55.19996997,1,0,0,response1disk,,7,3.200011492,-3.200006485,1,0,0,rectangle,3.200011492,-3.200006485,1,0,0,3.200011492,-3.200006485,1,0,0,1,57,217,134,1,,,,,,,,
,,,,,,,,,,,,,FF,,,,,,,,0.4661,,,,,,,,,,,,,,,,,,,,,,6100fb3a99688019dec679d9,61036e821530cb5388c9ba01,2021-07-29_23h17.20.185,Simcolourproject_2stim_asymm_v5,2020.2.10,Win32,60,61025ae37ef11b136ea224fe,,,,,,,,,3958,30.4000119,59.19997003,1,0,0,response1disk,,7,3.200011492,7.999993682,1,0,0,rectangle,3.200011492,7.999993682,1,0,0,3.200011492,7.999993682,1,0,0,1,58,218,46,1,,,,,,,,
,,,,,,,,,,,,,FF,,,,,,,,1.4009,,,,,,,,,,,,,,,,,,,,,,6100fb3a99688019dec679d9,61036e821530cb5388c9ba01,2021-07-29_23h17.20.185,Simcolourproject_2stim_asymm_v5,2020.2.10,Win32,60,61025ae37ef11b136ea224fe,,,,,,,,,4145,36.80001199,75.9999947,1,0,0,response1disk,,7,3.200011492,9.599993706,1,0,0,rectangle,3.200011492,9.599993706,1,0,0,3.200011492,9.599993706,1,0,0,1,59,219,8,1,,,,,,,,
,,,,,,,,,,,,,FF,,,,,,,,0.7002,,,,,,,,,,,,,,,,,,,,,,6100fb3a99688019dec679d9,61036e821530cb5388c9ba01,2021-07-29_23h17.20.185,Simcolourproject_2stim_asymm_v5,2020.2.10,Win32,60,61025ae37ef11b136ea224fe,,,,,,,,,1991,27.20001185,49.5999943,1,0,0,response1disk,,7,0.800011456,3.999993622,1,0,0,rectangle,0.800011456,3.999993622,1,0,0,0.800011456,3.999993622,1,0,0,1,60,220,6,1,,,,,,,,
,,,,,,,,,,,,,FF,,,,,,,,0.8833,,,,,,,,,,,,,,,,,,,,,,6100fb3a99688019dec679d9,61036e821530cb5388c9ba01,2021-07-29_23h17.20.185,Simcolourproject_2stim_asymm_v5,2020.2.10,Win32,60,61025ae37ef11b136ea224fe,,,,,,,,,2976,44.80001211,92.79999495,1,0,0,response1disk,,7,0.800011456,16.79999381,1,0,0,rectangle,0.800011456,16.79999381,1,0,0,0.800011456,16.79999381,1,0,0,1,61,221,136,1,,,,,,,,
,,,,,,,,,,,,,FF,,,,,,,,0.517,,,,,,,,,,,,,,,,,,,,,,6100fb3a99688019dec679d9,61036e821530cb5388c9ba01,2021-07-29_23h17.20.185,Simcolourproject_2stim_asymm_v5,2020.2.10,Win32,60,61025ae37ef11b136ea224fe,,,,,,,,,3507,33.60006077,83.19997039,1,0,0,response1disk,,7,3.200011492,15.19999379,1,0,0,rectangle,3.200011492,15.19999379,1,0,0,3.200011492,15.19999379,1,0,0,1,62,222,114,1,,,,,,,,
,,,,,,,,,,,,,FF,,,,,,,,0.45,,,,,,,,,,,,,,,,,,,,,,6100fb3a99688019dec679d9,61036e821530cb5388c9ba01,2021-07-29_23h17.20.185,Simcolourproject_2stim_asymm_v5,2020.2.10,Win32,60,61025ae37ef11b136ea224fe,,,,,,,,,1348,25.60006065,58.39999443,1,0,0,response1disk,,7,1.14441E-05,6.399993658,1,0,0,rectangle,1.14441E-05,6.399993658,1,0,0,1.14441E-05,6.399993658,1,0,0,1,63,223,18,1,,,,,,,,
,,,,,,,,,,,,,FF,,,,,,,,0.5007,,,,,,,,,,,,,,,,,,,,,,6100fb3a99688019dec679d9,61036e821530cb5388c9ba01,2021-07-29_23h17.20.185,Simcolourproject_2stim_asymm_v5,2020.2.10,Win32,60,61025ae37ef11b136ea224fe,,,,,,,,,766,25.60006065,63.19997009,1,0,0,response1disk,,7,-1.59998858,14.39999378,1,0,0,rectangle,-1.59998858,14.39999378,1,0,0,-1.59998858,14.39999378,1,0,0,1,64,224,78,1,,,,,,,,
,,,,,,,,,,,,,FF,,,,,,,,0.4669,,,,,,,,,,,,,,,,,,,,,,6100fb3a99688019dec679d9,61036e821530cb5388c9ba01,2021-07-29_23h17.20.185,Simcolourproject_2stim_asymm_v5,2020.2.10,Win32,60,61025ae37ef11b136ea224fe,,,,,,,,,2261,32.00001192,88.79999489,1,0,0,response1disk,,7,5.600060356,6.399993658,1,0,0,rectangle,5.600060356,6.399993658,1,0,0,5.600060356,6.399993658,1,0,0,1,65,225,69,1,,,,,,,,
,,,,,,,,,,,,,FF,,,,,,,,0.4169,,,,,,,,,,,,,,,,,,,,,,6100fb3a99688019dec679d9,61036e821530cb5388c9ba01,2021-07-29_23h17.20.185,Simcolourproject_2stim_asymm_v5,2020.2.10,Win32,60,61025ae37ef11b136ea224fe,,,,,,,,,388,34.40001196,71.99999464,1,0,0,response1disk,,7,11.20001161,15.19999379,1,0,0,rectangle,11.20001161,15.19999379,1,0,0,11.20001161,15.19999379,1,0,0,1,66,226,116,1,,,,,,,,
,,,,,,,,,,,,,FF,,,,,,,,0.3829,,,,,,,,,,,,,,,,,,,,,,6100fb3a99688019dec679d9,61036e821530cb5388c9ba01,2021-07-29_23h17.20.185,Simcolourproject_2stim_asymm_v5,2020.2.10,Win32,60,61025ae37ef11b136ea224fe,,,,,,,,,1092,34.40001196,69.5999946,1,0,0,response1disk,,7,-2.399939764,-7.200006545,1,0,0,rectangle,-2.399939764,-7.200006545,1,0,0,-2.399939764,-7.200006545,1,0,0,1,67,227,83,1,,,,,,,,
,,,,,,,,,,,,,FF,,,,,,,,0.4502,,,,,,,,,,,,,,,,,,,,,,6100fb3a99688019dec679d9,61036e821530cb5388c9ba01,2021-07-29_23h17.20.185,Simcolourproject_2stim_asymm_v5,2020.2.10,Win32,60,61025ae37ef11b136ea224fe,,,,,,,,,4271,28.80001187,66.39999455,1,0,0,response1disk,,7,3.200011492,12.79999375,1,0,0,rectangle,-98.39994119,49.5999943,1,0,0,-22.39994006,0.799993575,1,0,0,1,68,228,26,1,,response7disk_3,TRUE,1,1,"[78,7,298,113,295,54,208,17,259,40,143,196,297,298,179,41,38,215,229,127]",2.0833,rectangle
,,,,,,,,,,,,,FF,,,,,,,,0.5005,,,,,,,,,,,,,,,,,,,,,,6100fb3a99688019dec679d9,61036e821530cb5388c9ba01,2021-07-29_23h17.20.185,Simcolourproject_2stim_asymm_v5,2020.2.10,Win32,60,61025ae37ef11b136ea224fe,,,,,,,,,1793,32.00001192,63.19997009,1,0,0,response1disk,,7,0.800011456,3.19999361,1,0,0,rectangle,0.800011456,3.19999361,1,0,0,0.800011456,3.19999361,1,0,0,1,69,229,140,1,,,,,,,,
,,,,,,,,,,,,,FF,,,,,,,,1.2822,,,,,,,,,,,,,,,,,,,,,,6100fb3a99688019dec679d9,61036e821530cb5388c9ba01,2021-07-29_23h17.20.185,Simcolourproject_2stim_asymm_v5,2020.2.10,Win32,60,61025ae37ef11b136ea224fe,,,,,,,,,637,96.00001287,35.9999941,1,0,0,response1disk,,6,10.4000116,10.39999372,1,0,0,rectangle,10.4000116,10.39999372,1,0,0,10.4000116,10.39999372,1,0,0,1,70,230,77,1,,,,,,,,
,,,,,,,,,,,,,FF,,,,,,,,2.5331,,,,,,,,,,,,,,,,,,,,,,6100fb3a99688019dec679d9,61036e821530cb5388c9ba01,2021-07-29_23h17.20.185,Simcolourproject_2stim_asymm_v5,2020.2.10,Win32,60,61025ae37ef11b136ea224fe,,,,,,,,,2291,-77.59998971,27.99999398,1,0,0,response7disk,,1,-19.19998884,8.799993694,1,0,0,rectangle,-19.19998884,8.799993694,1,0,0,-19.19998884,8.799993694,1,0,0,1,71,231,9,1,,,,,,,,
,,,,,,,,,,,,,FF,,,,,,,,0.6171,,,,,,,,,,,,,,,,,,,,,,6100fb3a99688019dec679d9,61036e821530cb5388c9ba01,2021-07-29_23h17.20.185,Simcolourproject_2stim_asymm_v5,2020.2.10,Win32,60,61025ae37ef11b136ea224fe,,,,,,,,,220,26.40001184,51.99999434,1,0,0,response1disk,,7,-3.199988604,-1.600006461,1,0,0,rectangle,-3.199988604,-1.600006461,1,0,0,-3.199988604,-1.600006461,1,0,0,1,72,232,137,1,,,,,,,,
,,,,,,,,,,,,,FF,,,,,,,,0.4667,,,,,,,,,,,,,,,,,,,,,,6100fb3a99688019dec679d9,61036e821530cb5388c9ba01,2021-07-29_23h17.20.185,Simcolourproject_2stim_asymm_v5,2020.2.10,Win32,60,61025ae37ef11b136ea224fe,,,,,,,,,2636,20.80001175,56.79999441,1,0,0,response1disk,,7,-3.999988616,11.99999374,1,0,0,rectangle,-3.999988616,11.99999374,1,0,0,-3.999988616,11.99999374,1,0,0,1,73,233,11,1,,,,,,,,
,,,,,,,,,,,,,FF,,,,,,,,0.4161,,,,,,,,,,,,,,,,,,,,,,6100fb3a99688019dec679d9,61036e821530cb5388c9ba01,2021-07-29_23h17.20.185,Simcolourproject_2stim_asymm_v5,2020.2.10,Win32,60,61025ae37ef11b136ea224fe,,,,,,,,,1432,16.80001169,59.99999446,1,0,0,response1disk,,7,-5.599988639,6.399993658,1,0,0,rectangle,-5.599988639,6.399993658,1,0,0,-5.599988639,6.399993658,1,0,0,1,74,234,75,1,,,,,,,,
,,,,,,,,,,,,,FF,,,,,,,,0.4174,,,,,,,,,,,,,,,,,,,,,,6100fb3a99688019dec679d9,61036e821530cb5388c9ba01,2021-07-29_23h17.20.185,Simcolourproject_2stim_asymm_v5,2020.2.10,Win32,60,61025ae37ef11b136ea224fe,,,,,,,,,3396,45.60006095,97.59999502,1,0,0,response1disk,,7,6.400011539,16.79999381,1,0,0,rectangle,6.400011539,16.79999381,1,0,0,6.400011539,16.79999381,1,0,0,1,75,235,28,1,,,,,,,,
,,,,,,,,,,,,,FF,,,,,,,,0.4836,,,,,,,,,,,,,,,,,,,,,,6100fb3a99688019dec679d9,61036e821530cb5388c9ba01,2021-07-29_23h17.20.185,Simcolourproject_2stim_asymm_v5,2020.2.10,Win32,60,61025ae37ef11b136ea224fe,,,,,,,,,1041,41.60006089,84.79999483,1,0,0,response1disk,,7,-3.199988604,-3.200006485,1,0,0,rectangle,-3.199988604,-3.200006485,1,0,0,-3.199988604,-3.200006485,1,0,0,1,76,236,141,1,,,,,,,,
,,,,,,,,,,,,,FF,,,,,,,,0.4665,,,,,,,,,,,,,,,,,,,,,,6100fb3a99688019dec679d9,61036e821530cb5388c9ba01,2021-07-29_23h17.20.185,Simcolourproject_2stim_asymm_v5,2020.2.10,Win32,60,61025ae37ef11b136ea224fe,,,,,,,,,313,27.20001185,67.19997015,1,0,0,response1disk,,7,-3.999988616,7.19999367,1,0,0,rectangle,-3.999988616,7.19999367,1,0,0,-3.999988616,7.19999367,1,0,0,1,77,237,151,1,,,,,,,,
,,,,,,,,,,,,,FF,,,,,,,,0.4668,,,,,,,,,,,,,,,,,,,,,,6100fb3a99688019dec679d9,61036e821530cb5388c9ba01,2021-07-29_23h17.20.185,Simcolourproject_2stim_asymm_v5,2020.2.10,Win32,60,61025ae37ef11b136ea224fe,,,,,,,,,3439,40.00001204,93.59999496,1,0,0,response1disk,,7,-7.999988675,-8.000006557,1,0,0,rectangle,-7.999988675,-8.000006557,1,0,0,-7.999988675,-8.000006557,1,0,0,1,78,238,99,1,,,,,,,,
,,,,,,,,,,,,,FF,,,,,,,,0.4504,,,,,,,,,,,,,,,,,,,,,,6100fb3a99688019dec679d9,61036e821530cb5388c9ba01,2021-07-29_23h17.20.185,Simcolourproject_2stim_asymm_v5,2020.2.10,Win32,60,61025ae37ef11b136ea224fe,,,,,,,,,3334,39.20001203,87.99999487,1,0,0,response1disk,,7,1.600060296,9.599993706,1,0,0,rectangle,1.600060296,9.599993706,1,0,0,1.600060296,9.599993706,1,0,0,1,79,239,51,1,,,,,,,,
,,,,,,,,,,,,,FF,,,,,,,,0.4004,,,,,,,,,,,,,,,,,,,,,,6100fb3a99688019dec679d9,61036e821530cb5388c9ba01,2021-07-29_23h17.20.185,Simcolourproject_2stim_asymm_v5,2020.2.10,Win32,60,61025ae37ef11b136ea224fe,,,,,,,,,2618,46.40001214,91.19997051,1,0,0,response1disk,,7,-2.399939764,-10.40000659,1,0,0,rectangle,-2.399939764,-10.40000659,1,0,0,-2.399939764,-10.40000659,1,0,0,1,80,240,0,1,,,,,,,,
,,,,,,,,,,,,,FF,,,,,,,,0.416,,,,,,,,,,,,,,,,,,,,,,6100fb3a99688019dec679d9,61036e821530cb5388c9ba01,2021-07-29_23h17.20.185,Simcolourproject_2stim_asymm_v5,2020.2.10,Win32,60,61025ae37ef11b136ea224fe,,,,,,,,,4160,38.40001202,61.59999448,1,0,0,response1disk,,7,6.400011539,-9.60000658,1,0,0,rectangle,6.400011539,-9.60000658,1,0,0,6.400011539,-9.60000658,1,0,0,1,81,241,87,1,,,,,,,,
,,,,,,,,,,,,,FF,,,,,,,,0.4161,,,,,,,,,,,,,,,,,,,,,,6100fb3a99688019dec679d9,61036e821530cb5388c9ba01,2021-07-29_23h17.20.185,Simcolourproject_2stim_asymm_v5,2020.2.10,Win32,60,61025ae37ef11b136ea224fe,,,,,,,,,142,36.80001199,59.19997003,1,0,0,response1disk,,7,6.400011539,12.79999375,1,0,0,rectangle,6.400011539,12.79999375,1,0,0,6.400011539,12.79999375,1,0,0,1,82,242,36,1,,,,,,,,
,,,,,,,,,,,,,FF,,,,,,,,0.4163,,,,,,,,,,,,,,,,,,,,,,6100fb3a99688019dec679d9,61036e821530cb5388c9ba01,2021-07-29_23h17.20.185,Simcolourproject_2stim_asymm_v5,2020.2.10,Win32,60,61025ae37ef11b136ea224fe,,,,,,,,,2197,28.00001186,64.79999453,1,0,0,response1disk,,7,-15.19998878,-10.40000659,1,0,0,rectangle,-15.19998878,-10.40000659,1,0,0,-15.19998878,-10.40000659,1,0,0,1,83,243,145,1,,,,,,,,
