key_resp.keys,key_resp.rt,key_resp_14.keys,key_resp_14.rt,key_resp_15.keys,key_resp_15.rt,key_resp_17.keys,key_resp_17.rt,key_resp_9.keys,key_resp_9.rt,key_resp_10.keys,key_resp_10.rt,practice_comparison,Ecc,mouse_5.x,mouse_5.y,mouse_5.leftButton,mouse_5.midButton,mouse_5.rightButton,mouse_5.clicked_name,pracsimilarity,response_time,mouse_10.x,mouse_10.y,mouse_10.leftButton,mouse_10.midButton,mouse_10.rightButton,mouse_10.clicked_name,mouse_7.x,mouse_7.y,mouse_7.leftButton,mouse_7.midButton,mouse_7.rightButton,mouse_6.x,mouse_6.y,mouse_6.leftButton,mouse_6.midButton,mouse_6.rightButton,duringprac.thisRepN,duringprac.thisTrialN,duringprac.thisN,duringprac.thisIndex,duringprac.ran,participant,session,date,expName,psychopyVersion,OS,frameRate,study_id,mouse_7.clicked_name,catchpracsimilarity,catch_response_time,catchnumberprac,catchtrialorderprac,mouse_6.clicked_name,key_resp_22.keys,key_resp_22.rt,realcomparison,mouse.x,mouse.y,mouse.leftButton,mouse.midButton,mouse.rightButton,mouse.clicked_name,Colour2,similarity,mouse_2.x,mouse_2.y,mouse_2.leftButton,mouse_2.midButton,mouse_2.rightButton,mouse_2.clicked_name,mouse_3.x,mouse_3.y,mouse_3.leftButton,mouse_3.midButton,mouse_3.rightButton,mouse_11.x,mouse_11.y,mouse_11.leftButton,mouse_11.midButton,mouse_11.rightButton,trials_2.thisRepN,trials_2.thisTrialN,trials_2.thisN,trials_2.thisIndex,trials_2.ran,Colour1,mouse_3.clicked_name,catchornah,catchsimilarity,catchnumber,catchtrialorder,catchRT,mouse_11.clicked_name
space,1.6655,space,5.2163,space,7.5985,space,2.6665,space,1.4332,space,3.1159,135,FF,36,-73,1,0,0,response3disk_5,4,9.8489,-3,5,1,0,0,rectangle_8,-3,5,1,0,0,-3,5,1,0,0,0,0,0,3,1,6100aad31b75bacb3595fdee,61036e0fab79b70cf7088da7,2021-07-29_23h12.40.011,Simcolourproject_2stim_asymm_v5,2020.2.10,Win32,60,61025ae37ef11b136ea224fe,,,,,,,,,,,,,,,,,,,,,,,,,,,,,,,,,,,,,,,,,,,,,,
,,,,,,,,,,,,0,FF,84,38,1,0,0,response1disk_5,6,3.7326,-10,-2,1,0,0,rectangle_8,-35,117,1,0,0,11,-4,1,0,0,0,1,1,0,1,6100aad31b75bacb3595fdee,61036e0fab79b70cf7088da7,2021-07-29_23h12.40.011,Simcolourproject_2stim_asymm_v5,2020.2.10,Win32,60,61025ae37ef11b136ea224fe,response7disk_7,0,2.9825,0,"[2,5]",rectangle_4,,,,,,,,,,,,,,,,,,,,,,,,,,,,,,,,,,,,,,,,
,,,,,,,,,,,,48,PF,-78,-47,1,0,0,response5disk_5,2,2.2319,14,9,1,0,0,rectangle_8,14,9,1,0,0,14,9,1,0,0,0,2,2,2,1,6100aad31b75bacb3595fdee,61036e0fab79b70cf7088da7,2021-07-29_23h12.40.011,Simcolourproject_2stim_asymm_v5,2020.2.10,Win32,60,61025ae37ef11b136ea224fe,,,,,,,,,,,,,,,,,,,,,,,,,,,,,,,,,,,,,,,,,,,,,,
,,,,,,,,,,,,123,FF,80,-35,1,0,0,response3disk_5,5,2.1999,1,2,1,0,0,rectangle_8,1,2,1,0,0,1,2,1,0,0,0,3,3,5,1,6100aad31b75bacb3595fdee,61036e0fab79b70cf7088da7,2021-07-29_23h12.40.011,Simcolourproject_2stim_asymm_v5,2020.2.10,Win32,60,61025ae37ef11b136ea224fe,,,,,,,,,,,,,,,,,,,,,,,,,,,,,,,,,,,,,,,,,,,,,,
,,,,,,,,,,,,148,PF,100,-55,1,0,0,response3disk_5,5,2.3667,-3,13,1,0,0,rectangle_8,-46,102,1,0,0,-2,2,1,0,0,0,4,4,4,1,6100aad31b75bacb3595fdee,61036e0fab79b70cf7088da7,2021-07-29_23h12.40.011,Simcolourproject_2stim_asymm_v5,2020.2.10,Win32,60,61025ae37ef11b136ea224fe,response7disk_7,0,1.8829,0,"[2,5]",rectangle_4,,,,,,,,,,,,,,,,,,,,,,,,,,,,,,,,,,,,,,,,
,,,,,,,,,,,,45,PF,-34,97,1,0,0,response7disk_5,0,1.2352,13,-9,1,0,0,rectangle_8,13,-9,1,0,0,13,-9,1,0,0,0,5,5,6,1,6100aad31b75bacb3595fdee,61036e0fab79b70cf7088da7,2021-07-29_23h12.40.011,Simcolourproject_2stim_asymm_v5,2020.2.10,Win32,60,61025ae37ef11b136ea224fe,,,,,,,,,,,,,,,,,,,,,,,,,,,,,,,,,,,,,,,,,,,,,,
,,,,,,,,,,,,72,PF,-82,-40,1,0,0,response5disk_5,2,1.4034,-3,4,1,0,0,rectangle_8,-3,4,1,0,0,-3,4,1,0,0,0,6,6,1,1,6100aad31b75bacb3595fdee,61036e0fab79b70cf7088da7,2021-07-29_23h12.40.011,Simcolourproject_2stim_asymm_v5,2020.2.10,Win32,60,61025ae37ef11b136ea224fe,,,,,,,,,,,,,,,,,,,,,,,,,,,,,,,,,,,,,,,,,,,,,,
,,,,,,,,,,,,,FF,,,,,,,,1.3672,,,,,,,,,,,,,,,,,,,,,,6100aad31b75bacb3595fdee,61036e0fab79b70cf7088da7,2021-07-29_23h12.40.011,Simcolourproject_2stim_asymm_v5,2020.2.10,Win32,60,61025ae37ef11b136ea224fe,,,,,,,space,3.0797,1703,35,-58,1,0,0,response3disk,,4,-5,-2,1,0,0,rectangle,-5,-2,1,0,0,-5,-2,1,0,0,0,0,0,88,1,,,,,,,,
,,,,,,,,,,,,,FF,,,,,,,,1.187,,,,,,,,,,,,,,,,,,,,,,6100aad31b75bacb3595fdee,61036e0fab79b70cf7088da7,2021-07-29_23h12.40.011,Simcolourproject_2stim_asymm_v5,2020.2.10,Win32,60,61025ae37ef11b136ea224fe,,,,,,,,,3342,-74,35,1,0,0,response7disk,,1,-2,6,1,0,0,rectangle,-2,6,1,0,0,-2,6,1,0,0,0,1,1,151,1,,,,,,,,
,,,,,,,,,,,,,FF,,,,,,,,1.0866,,,,,,,,,,,,,,,,,,,,,,6100aad31b75bacb3595fdee,61036e0fab79b70cf7088da7,2021-07-29_23h12.40.011,Simcolourproject_2stim_asymm_v5,2020.2.10,Win32,60,61025ae37ef11b136ea224fe,,,,,,,,,1602,-65,54,1,0,0,response7disk,,1,10,7,1,0,0,rectangle,10,7,1,0,0,10,7,1,0,0,0,2,2,56,1,,,,,,,,
,,,,,,,,,,,,,FF,,,,,,,,0.9531,,,,,,,,,,,,,,,,,,,,,,6100aad31b75bacb3595fdee,61036e0fab79b70cf7088da7,2021-07-29_23h12.40.011,Simcolourproject_2stim_asymm_v5,2020.2.10,Win32,60,61025ae37ef11b136ea224fe,,,,,,,,,3149,-65,-47,1,0,0,response5disk,,2,1,-3,1,0,0,rectangle,1,-3,1,0,0,1,-3,1,0,0,0,3,3,44,1,,,,,,,,
,,,,,,,,,,,,,FF,,,,,,,,1.2888,,,,,,,,,,,,,,,,,,,,,,6100aad31b75bacb3595fdee,61036e0fab79b70cf7088da7,2021-07-29_23h12.40.011,Simcolourproject_2stim_asymm_v5,2020.2.10,Win32,60,61025ae37ef11b136ea224fe,,,,,,,,,2311,71,-48,1,0,0,response3disk,,5,-3,2,1,0,0,rectangle,-3,2,1,0,0,-3,2,1,0,0,0,4,4,158,1,,,,,,,,
,,,,,,,,,,,,,FF,,,,,,,,1.1558,,,,,,,,,,,,,,,,,,,,,,6100aad31b75bacb3595fdee,61036e0fab79b70cf7088da7,2021-07-29_23h12.40.011,Simcolourproject_2stim_asymm_v5,2020.2.10,Win32,60,61025ae37ef11b136ea224fe,,,,,,,,,2870,41,63,1,0,0,response1disk,,7,-10,3,1,0,0,rectangle,-10,3,1,0,0,-10,3,1,0,0,0,5,5,80,1,,,,,,,,
,,,,,,,,,,,,,FF,,,,,,,,1.4738,,,,,,,,,,,,,,,,,,,,,,6100aad31b75bacb3595fdee,61036e0fab79b70cf7088da7,2021-07-29_23h12.40.011,Simcolourproject_2stim_asymm_v5,2020.2.10,Win32,60,61025ae37ef11b136ea224fe,,,,,,,,,4058,-51,-65,1,0,0,response5disk,,3,-11,7,1,0,0,rectangle,-11,7,1,0,0,-11,7,1,0,0,0,6,6,37,1,,,,,,,,
,,,,,,,,,,,,,FF,,,,,,,,0.9684,,,,,,,,,,,,,,,,,,,,,,6100aad31b75bacb3595fdee,61036e0fab79b70cf7088da7,2021-07-29_23h12.40.011,Simcolourproject_2stim_asymm_v5,2020.2.10,Win32,60,61025ae37ef11b136ea224fe,,,,,,,,,3994,-75,-36,1,0,0,response5disk,,2,-7,4,1,0,0,rectangle,-7,4,1,0,0,-7,4,1,0,0,0,7,7,38,1,,,,,,,,
,,,,,,,,,,,,,FF,,,,,,,,1.8672,,,,,,,,,,,,,,,,,,,,,,6100aad31b75bacb3595fdee,61036e0fab79b70cf7088da7,2021-07-29_23h12.40.011,Simcolourproject_2stim_asymm_v5,2020.2.10,Win32,60,61025ae37ef11b136ea224fe,,,,,,,,,3248,-70,-47,1,0,0,response5disk,,2,-2,6,1,0,0,rectangle,-2,6,1,0,0,-2,6,1,0,0,0,8,8,115,1,,,,,,,,
,,,,,,,,,,,,,FF,,,,,,,,1.0847,,,,,,,,,,,,,,,,,,,,,,6100aad31b75bacb3595fdee,61036e0fab79b70cf7088da7,2021-07-29_23h12.40.011,Simcolourproject_2stim_asymm_v5,2020.2.10,Win32,60,61025ae37ef11b136ea224fe,,,,,,,,,474,99,-47,1,0,0,response3disk,,5,1,-1,1,0,0,rectangle,1,-1,1,0,0,1,-1,1,0,0,0,9,9,35,1,,,,,,,,
,,,,,,,,,,,,,FF,,,,,,,,1.2831,,,,,,,,,,,,,,,,,,,,,,6100aad31b75bacb3595fdee,61036e0fab79b70cf7088da7,2021-07-29_23h12.40.011,Simcolourproject_2stim_asymm_v5,2020.2.10,Win32,60,61025ae37ef11b136ea224fe,,,,,,,,,3903,-53,79,1,0,0,response7disk,,0,-1,-6,1,0,0,rectangle,-1,-6,1,0,0,-1,-6,1,0,0,0,10,10,20,1,,,,,,,,
,,,,,,,,,,,,,FF,,,,,,,,1.5,,,,,,,,,,,,,,,,,,,,,,6100aad31b75bacb3595fdee,61036e0fab79b70cf7088da7,2021-07-29_23h12.40.011,Simcolourproject_2stim_asymm_v5,2020.2.10,Win32,60,61025ae37ef11b136ea224fe,,,,,,,,,3178,-80,-51,1,0,0,response5disk,,2,4,-1,1,0,0,rectangle,4,-1,1,0,0,4,-1,1,0,0,0,11,11,120,1,,,,,,,,
,,,,,,,,,,,,,FF,,,,,,,,2.0693,,,,,,,,,,,,,,,,,,,,,,6100aad31b75bacb3595fdee,61036e0fab79b70cf7088da7,2021-07-29_23h12.40.011,Simcolourproject_2stim_asymm_v5,2020.2.10,Win32,60,61025ae37ef11b136ea224fe,,,,,,,,,2262,91,-54,1,0,0,response3disk,,5,-3,1,1,0,0,rectangle,-3,1,1,0,0,-3,1,1,0,0,0,12,12,76,1,,,,,,,,
,,,,,,,,,,,,,FF,,,,,,,,1.4026,,,,,,,,,,,,,,,,,,,,,,6100aad31b75bacb3595fdee,61036e0fab79b70cf7088da7,2021-07-29_23h12.40.011,Simcolourproject_2stim_asymm_v5,2020.2.10,Win32,60,61025ae37ef11b136ea224fe,,,,,,,,,2216,91,-36,1,0,0,response3disk,,5,10,4,1,0,0,rectangle,10,4,1,0,0,10,4,1,0,0,0,13,13,31,1,,,,,,,,
,,,,,,,,,,,,,FF,,,,,,,,0.9841,,,,,,,,,,,,,,,,,,,,,,6100aad31b75bacb3595fdee,61036e0fab79b70cf7088da7,2021-07-29_23h12.40.011,Simcolourproject_2stim_asymm_v5,2020.2.10,Win32,60,61025ae37ef11b136ea224fe,,,,,,,,,2156,-76,-32,1,0,0,response5disk,,2,-9,6,1,0,0,rectangle,-9,6,1,0,0,-9,6,1,0,0,0,14,14,96,1,,,,,,,,
,,,,,,,,,,,,,FF,,,,,,,,1.6001,,,,,,,,,,,,,,,,,,,,,,6100aad31b75bacb3595fdee,61036e0fab79b70cf7088da7,2021-07-29_23h12.40.011,Simcolourproject_2stim_asymm_v5,2020.2.10,Win32,60,61025ae37ef11b136ea224fe,,,,,,,,,1839,17,-74,1,0,0,response3disk,,4,-14,1,1,0,0,rectangle,-14,1,1,0,0,-14,1,1,0,0,0,15,15,69,1,,,,,,,,
,,,,,,,,,,,,,FF,,,,,,,,0.8838,,,,,,,,,,,,,,,,,,,,,,6100aad31b75bacb3595fdee,61036e0fab79b70cf7088da7,2021-07-29_23h12.40.011,Simcolourproject_2stim_asymm_v5,2020.2.10,Win32,60,61025ae37ef11b136ea224fe,,,,,,,,,830,33,-59,1,0,0,response3disk,,4,-9,8,1,0,0,rectangle,-9,8,1,0,0,-9,8,1,0,0,0,16,16,106,1,,,,,,,,
,,,,,,,,,,,,,FF,,,,,,,,2.4811,,,,,,,,,,,,,,,,,,,,,,6100aad31b75bacb3595fdee,61036e0fab79b70cf7088da7,2021-07-29_23h12.40.011,Simcolourproject_2stim_asymm_v5,2020.2.10,Win32,60,61025ae37ef11b136ea224fe,,,,,,,,,564,105,-45,1,0,0,response3disk,,5,-6,4,1,0,0,rectangle,-6,4,1,0,0,-6,4,1,0,0,0,17,17,70,1,,,,,,,,
,,,,,,,,,,,,,FF,,,,,,,,2.0153,,,,,,,,,,,,,,,,,,,,,,6100aad31b75bacb3595fdee,61036e0fab79b70cf7088da7,2021-07-29_23h12.40.011,Simcolourproject_2stim_asymm_v5,2020.2.10,Win32,60,61025ae37ef11b136ea224fe,,,,,,,,,136,-96,-48,1,0,0,response5disk,,2,-9,6,1,0,0,rectangle,-9,6,1,0,0,-9,6,1,0,0,0,18,18,53,1,,,,,,,,
,,,,,,,,,,,,,FF,,,,,,,,1.239,,,,,,,,,,,,,,,,,,,,,,6100aad31b75bacb3595fdee,61036e0fab79b70cf7088da7,2021-07-29_23h12.40.011,Simcolourproject_2stim_asymm_v5,2020.2.10,Win32,60,61025ae37ef11b136ea224fe,,,,,,,,,3049,-93,-52,1,0,0,response5disk,,2,3,10,1,0,0,rectangle,3,10,1,0,0,3,10,1,0,0,0,19,19,107,1,,,,,,,,
,,,,,,,,,,,,,FF,,,,,,,,0.9021,,,,,,,,,,,,,,,,,,,,,,6100aad31b75bacb3595fdee,61036e0fab79b70cf7088da7,2021-07-29_23h12.40.011,Simcolourproject_2stim_asymm_v5,2020.2.10,Win32,60,61025ae37ef11b136ea224fe,,,,,,,,,777,77,-42,1,0,0,response3disk,,5,3,-4,1,0,0,rectangle,3,-4,1,0,0,3,-4,1,0,0,0,20,20,117,1,,,,,,,,
,,,,,,,,,,,,,FF,,,,,,,,1.7181,,,,,,,,,,,,,,,,,,,,,,6100aad31b75bacb3595fdee,61036e0fab79b70cf7088da7,2021-07-29_23h12.40.011,Simcolourproject_2stim_asymm_v5,2020.2.10,Win32,60,61025ae37ef11b136ea224fe,,,,,,,,,2614,-92,-54,1,0,0,response5disk,,2,9,4,1,0,0,rectangle,9,4,1,0,0,9,4,1,0,0,0,21,21,75,1,,,,,,,,
,,,,,,,,,,,,,FF,,,,,,,,1.383,,,,,,,,,,,,,,,,,,,,,,6100aad31b75bacb3595fdee,61036e0fab79b70cf7088da7,2021-07-29_23h12.40.011,Simcolourproject_2stim_asymm_v5,2020.2.10,Win32,60,61025ae37ef11b136ea224fe,,,,,,,,,4060,-46,-69,1,0,0,response5disk,,3,-18,1,1,0,0,rectangle,-18,1,1,0,0,-18,1,1,0,0,0,22,22,47,1,,,,,,,,
,,,,,,,,,,,,,FF,,,,,,,,1.1514,,,,,,,,,,,,,,,,,,,,,,6100aad31b75bacb3595fdee,61036e0fab79b70cf7088da7,2021-07-29_23h12.40.011,Simcolourproject_2stim_asymm_v5,2020.2.10,Win32,60,61025ae37ef11b136ea224fe,,,,,,,,,1082,101,70,1,0,0,response1disk,,6,-3,-2,1,0,0,rectangle,-3,-2,1,0,0,-3,-2,1,0,0,0,23,23,63,1,,,,,,,,
,,,,,,,,,,,,,FF,,,,,,,,1.0834,,,,,,,,,,,,,,,,,,,,,,6100aad31b75bacb3595fdee,61036e0fab79b70cf7088da7,2021-07-29_23h12.40.011,Simcolourproject_2stim_asymm_v5,2020.2.10,Win32,60,61025ae37ef11b136ea224fe,,,,,,,,,2168,-72,-25,1,0,0,response5disk,,2,-7,5,1,0,0,rectangle,-7,5,1,0,0,-7,5,1,0,0,0,24,24,22,1,,,,,,,,
,,,,,,,,,,,,,FF,,,,,,,,1.2189,,,,,,,,,,,,,,,,,,,,,,6100aad31b75bacb3595fdee,61036e0fab79b70cf7088da7,2021-07-29_23h12.40.011,Simcolourproject_2stim_asymm_v5,2020.2.10,Win32,60,61025ae37ef11b136ea224fe,,,,,,,,,4033,-73,-30,1,0,0,response5disk,,2,-16,0,1,0,0,rectangle,-16,0,1,0,0,-16,0,1,0,0,0,25,25,39,1,,,,,,,,
,,,,,,,,,,,,,FF,,,,,,,,0.9497,,,,,,,,,,,,,,,,,,,,,,6100aad31b75bacb3595fdee,61036e0fab79b70cf7088da7,2021-07-29_23h12.40.011,Simcolourproject_2stim_asymm_v5,2020.2.10,Win32,60,61025ae37ef11b136ea224fe,,,,,,,,,2137,110,-37,1,0,0,response3disk,,5,-2,1,1,0,0,rectangle,-2,1,1,0,0,-2,1,1,0,0,0,26,26,46,1,,,,,,,,
,,,,,,,,,,,,,FF,,,,,,,,1.4675,,,,,,,,,,,,,,,,,,,,,,6100aad31b75bacb3595fdee,61036e0fab79b70cf7088da7,2021-07-29_23h12.40.011,Simcolourproject_2stim_asymm_v5,2020.2.10,Win32,60,61025ae37ef11b136ea224fe,,,,,,,,,854,69,-26,1,0,0,response3disk,,5,11,4,1,0,0,rectangle,11,4,1,0,0,11,4,1,0,0,0,27,27,116,1,,,,,,,,
,,,,,,,,,,,,,FF,,,,,,,,1.5829,,,,,,,,,,,,,,,,,,,,,,6100aad31b75bacb3595fdee,61036e0fab79b70cf7088da7,2021-07-29_23h12.40.011,Simcolourproject_2stim_asymm_v5,2020.2.10,Win32,60,61025ae37ef11b136ea224fe,,,,,,,,,386,-51,-76,1,0,0,response5disk,,3,3,3,1,0,0,rectangle,3,3,1,0,0,3,3,1,0,0,0,28,28,150,1,,,,,,,,
,,,,,,,,,,,,,FF,,,,,,,,1.0034,,,,,,,,,,,,,,,,,,,,,,6100aad31b75bacb3595fdee,61036e0fab79b70cf7088da7,2021-07-29_23h12.40.011,Simcolourproject_2stim_asymm_v5,2020.2.10,Win32,60,61025ae37ef11b136ea224fe,,,,,,,,,3309,59,35,1,0,0,response1disk,,6,-7,2,1,0,0,rectangle,-7,2,1,0,0,-7,2,1,0,0,0,29,29,7,1,,,,,,,,
,,,,,,,,,,,,,FF,,,,,,,,1.1177,,,,,,,,,,,,,,,,,,,,,,6100aad31b75bacb3595fdee,61036e0fab79b70cf7088da7,2021-07-29_23h12.40.011,Simcolourproject_2stim_asymm_v5,2020.2.10,Win32,60,61025ae37ef11b136ea224fe,,,,,,,,,1919,56,46,1,0,0,response1disk,,6,2,9,1,0,0,rectangle,2,9,1,0,0,2,9,1,0,0,0,30,30,41,1,,,,,,,,
,,,,,,,,,,,,,FF,,,,,,,,1.138,,,,,,,,,,,,,,,,,,,,,,6100aad31b75bacb3595fdee,61036e0fab79b70cf7088da7,2021-07-29_23h12.40.011,Simcolourproject_2stim_asymm_v5,2020.2.10,Win32,60,61025ae37ef11b136ea224fe,,,,,,,,,4294,-74,-37,1,0,0,response5disk,,2,18,14,1,0,0,rectangle,18,14,1,0,0,18,14,1,0,0,0,31,31,24,1,,,,,,,,
,,,,,,,,,,,,,FF,,,,,,,,0.7992,,,,,,,,,,,,,,,,,,,,,,6100aad31b75bacb3595fdee,61036e0fab79b70cf7088da7,2021-07-29_23h12.40.011,Simcolourproject_2stim_asymm_v5,2020.2.10,Win32,60,61025ae37ef11b136ea224fe,,,,,,,,,2456,93,-38,1,0,0,response3disk,,5,-20,8,1,0,0,rectangle,-20,8,1,0,0,-20,8,1,0,0,0,32,32,81,1,,,,,,,,
,,,,,,,,,,,,,FF,,,,,,,,0.9889,,,,,,,,,,,,,,,,,,,,,,6100aad31b75bacb3595fdee,61036e0fab79b70cf7088da7,2021-07-29_23h12.40.011,Simcolourproject_2stim_asymm_v5,2020.2.10,Win32,60,61025ae37ef11b136ea224fe,,,,,,,,,4010,-96,-24,1,0,0,response5disk,,2,-8,2,1,0,0,rectangle,-8,2,1,0,0,-8,2,1,0,0,0,33,33,13,1,,,,,,,,
,,,,,,,,,,,,,FF,,,,,,,,1.0157,,,,,,,,,,,,,,,,,,,,,,6100aad31b75bacb3595fdee,61036e0fab79b70cf7088da7,2021-07-29_23h12.40.011,Simcolourproject_2stim_asymm_v5,2020.2.10,Win32,60,61025ae37ef11b136ea224fe,,,,,,,,,1493,-75,-38,1,0,0,response5disk,,2,0,10,1,0,0,rectangle,0,10,1,0,0,0,10,1,0,0,0,34,34,1,1,,,,,,,,
,,,,,,,,,,,,,FF,,,,,,,,5.8833,,,,,,,,,,,,,,,,,,,,,,6100aad31b75bacb3595fdee,61036e0fab79b70cf7088da7,2021-07-29_23h12.40.011,Simcolourproject_2stim_asymm_v5,2020.2.10,Win32,60,61025ae37ef11b136ea224fe,,,,,,,,,1828,-78,43,1,0,0,response7disk,,1,1,6,1,0,0,rectangle,1,6,1,0,0,1,6,1,0,0,0,35,35,51,1,,,,,,,,
,,,,,,,,,,,,,FF,,,,,,,,6.3193,,,,,,,,,,,,,,,,,,,,,,6100aad31b75bacb3595fdee,61036e0fab79b70cf7088da7,2021-07-29_23h12.40.011,Simcolourproject_2stim_asymm_v5,2020.2.10,Win32,60,61025ae37ef11b136ea224fe,,,,,,,,,355,-39,-92,1,0,0,response5disk,,3,-10,-7,1,0,0,rectangle,-10,-7,1,0,0,-10,-7,1,0,0,0,36,36,77,1,,,,,,,,
,,,,,,,,,,,,,FF,,,,,,,,0.8679,,,,,,,,,,,,,,,,,,,,,,6100aad31b75bacb3595fdee,61036e0fab79b70cf7088da7,2021-07-29_23h12.40.011,Simcolourproject_2stim_asymm_v5,2020.2.10,Win32,60,61025ae37ef11b136ea224fe,,,,,,,,,766,67,-31,1,0,0,response3disk,,5,-16,4,1,0,0,rectangle,-16,4,1,0,0,-16,4,1,0,0,0,37,37,26,1,,,,,,,,
,,,,,,,,,,,,,FF,,,,,,,,2.2647,,,,,,,,,,,,,,,,,,,,,,6100aad31b75bacb3595fdee,61036e0fab79b70cf7088da7,2021-07-29_23h12.40.011,Simcolourproject_2stim_asymm_v5,2020.2.10,Win32,60,61025ae37ef11b136ea224fe,,,,,,,,,3761,69,-43,1,0,0,response3disk,,5,-4,2,1,0,0,rectangle,-4,2,1,0,0,-4,2,1,0,0,0,38,38,149,1,,,,,,,,
,,,,,,,,,,,,,FF,,,,,,,,2.9986,,,,,,,,,,,,,,,,,,,,,,6100aad31b75bacb3595fdee,61036e0fab79b70cf7088da7,2021-07-29_23h12.40.011,Simcolourproject_2stim_asymm_v5,2020.2.10,Win32,60,61025ae37ef11b136ea224fe,,,,,,,,,3449,60,55,1,0,0,response1disk,,6,-3,5,1,0,0,rectangle,-3,5,1,0,0,-3,5,1,0,0,0,39,39,29,1,,,,,,,,
,,,,,,,,,,,,,FF,,,,,,,,0.6996,,,,,,,,,,,,,,,,,,,,,,6100aad31b75bacb3595fdee,61036e0fab79b70cf7088da7,2021-07-29_23h12.40.011,Simcolourproject_2stim_asymm_v5,2020.2.10,Win32,60,61025ae37ef11b136ea224fe,,,,,,,,,4019,62,31,1,0,0,response1disk,,6,-11,-2,1,0,0,rectangle,-11,-2,1,0,0,-11,-2,1,0,0,0,40,40,19,1,,,,,,,,
,,,,,,,,,,,,,FF,,,,,,,,1.3823,,,,,,,,,,,,,,,,,,,,,,6100aad31b75bacb3595fdee,61036e0fab79b70cf7088da7,2021-07-29_23h12.40.011,Simcolourproject_2stim_asymm_v5,2020.2.10,Win32,60,61025ae37ef11b136ea224fe,,,,,,,,,3059,98,49,1,0,0,response1disk,,6,4,-2,1,0,0,rectangle,4,-2,1,0,0,4,-2,1,0,0,0,41,41,16,1,,,,,,,,
,,,,,,,,,,,,,FF,,,,,,,,0.9989,,,,,,,,,,,,,,,,,,,,,,6100aad31b75bacb3595fdee,61036e0fab79b70cf7088da7,2021-07-29_23h12.40.011,Simcolourproject_2stim_asymm_v5,2020.2.10,Win32,60,61025ae37ef11b136ea224fe,,,,,,,,,1454,-48,83,1,0,0,response7disk,,0,3,-4,1,0,0,rectangle,3,-4,1,0,0,3,-4,1,0,0,0,42,42,17,1,,,,,,,,
,,,,,,,,,,,,,FF,,,,,,,,3.1344,,,,,,,,,,,,,,,,,,,,,,6100aad31b75bacb3595fdee,61036e0fab79b70cf7088da7,2021-07-29_23h12.40.011,Simcolourproject_2stim_asymm_v5,2020.2.10,Win32,60,61025ae37ef11b136ea224fe,,,,,,,,,1519,-81,-47,1,0,0,response5disk,,2,-3,-1,1,0,0,rectangle,-3,-1,1,0,0,-3,-1,1,0,0,0,43,43,52,1,,,,,,,,
,,,,,,,,,,,,,FF,,,,,,,,0.9999,,,,,,,,,,,,,,,,,,,,,,6100aad31b75bacb3595fdee,61036e0fab79b70cf7088da7,2021-07-29_23h12.40.011,Simcolourproject_2stim_asymm_v5,2020.2.10,Win32,60,61025ae37ef11b136ea224fe,,,,,,,,,1356,43,-58,1,0,0,response3disk,,4,4,-6,1,0,0,rectangle,4,-6,1,0,0,4,-6,1,0,0,0,44,44,32,1,,,,,,,,
,,,,,,,,,,,,,FF,,,,,,,,1.1682,,,,,,,,,,,,,,,,,,,,,,6100aad31b75bacb3595fdee,61036e0fab79b70cf7088da7,2021-07-29_23h12.40.011,Simcolourproject_2stim_asymm_v5,2020.2.10,Win32,60,61025ae37ef11b136ea224fe,,,,,,,,,0,-48,83,1,0,0,response7disk,,0,-9,11,1,0,0,rectangle,-9,11,1,0,0,-9,11,1,0,0,0,45,45,65,1,,,,,,,,
,,,,,,,,,,,,,FF,,,,,,,,0.9501,,,,,,,,,,,,,,,,,,,,,,6100aad31b75bacb3595fdee,61036e0fab79b70cf7088da7,2021-07-29_23h12.40.011,Simcolourproject_2stim_asymm_v5,2020.2.10,Win32,60,61025ae37ef11b136ea224fe,,,,,,,,,278,-94,-50,1,0,0,response5disk,,2,-15,1,1,0,0,rectangle,-15,1,1,0,0,-15,1,1,0,0,0,46,46,72,1,,,,,,,,
,,,,,,,,,,,,,FF,,,,,,,,0.7682,,,,,,,,,,,,,,,,,,,,,,6100aad31b75bacb3595fdee,61036e0fab79b70cf7088da7,2021-07-29_23h12.40.011,Simcolourproject_2stim_asymm_v5,2020.2.10,Win32,60,61025ae37ef11b136ea224fe,,,,,,,,,2399,71,53,1,0,0,response1disk,,6,-1,9,1,0,0,rectangle,-1,9,1,0,0,-1,9,1,0,0,0,47,47,134,1,,,,,,,,
,,,,,,,,,,,,,FF,,,,,,,,1.1146,,,,,,,,,,,,,,,,,,,,,,6100aad31b75bacb3595fdee,61036e0fab79b70cf7088da7,2021-07-29_23h12.40.011,Simcolourproject_2stim_asymm_v5,2020.2.10,Win32,60,61025ae37ef11b136ea224fe,,,,,,,,,2230,-86,-42,1,0,0,response5disk,,2,-14,-5,1,0,0,rectangle,-14,-5,1,0,0,-14,-5,1,0,0,0,48,48,36,1,,,,,,,,
,,,,,,,,,,,,,FF,,,,,,,,0.8331,,,,,,,,,,,,,,,,,,,,,,6100aad31b75bacb3595fdee,61036e0fab79b70cf7088da7,2021-07-29_23h12.40.011,Simcolourproject_2stim_asymm_v5,2020.2.10,Win32,60,61025ae37ef11b136ea224fe,,,,,,,,,3732,52,47,1,0,0,response1disk,,6,1,4,1,0,0,rectangle,1,4,1,0,0,1,4,1,0,0,0,49,49,109,1,,,,,,,,
,,,,,,,,,,,,,FF,,,,,,,,0.7564,,,,,,,,,,,,,,,,,,,,,,6100aad31b75bacb3595fdee,61036e0fab79b70cf7088da7,2021-07-29_23h12.40.011,Simcolourproject_2stim_asymm_v5,2020.2.10,Win32,60,61025ae37ef11b136ea224fe,,,,,,,,,3927,39,82,1,0,0,response1disk,,7,0,2,1,0,0,rectangle,0,2,1,0,0,0,2,1,0,0,0,50,50,9,1,,,,,,,,
,,,,,,,,,,,,,FF,,,,,,,,0.9535,,,,,,,,,,,,,,,,,,,,,,6100aad31b75bacb3595fdee,61036e0fab79b70cf7088da7,2021-07-29_23h12.40.011,Simcolourproject_2stim_asymm_v5,2020.2.10,Win32,60,61025ae37ef11b136ea224fe,,,,,,,,,1943,48,29,1,0,0,response1disk,,6,0,1,1,0,0,rectangle,0,1,1,0,0,0,1,1,0,0,0,51,51,156,1,,,,,,,,
,,,,,,,,,,,,,FF,,,,,,,,0.8851,,,,,,,,,,,,,,,,,,,,,,6100aad31b75bacb3595fdee,61036e0fab79b70cf7088da7,2021-07-29_23h12.40.011,Simcolourproject_2stim_asymm_v5,2020.2.10,Win32,60,61025ae37ef11b136ea224fe,,,,,,,,,1989,52,24,1,0,0,response1disk,,6,-5,-6,1,0,0,rectangle,34,104,1,0,0,0,4,1,0,0,0,52,52,121,1,,response1disk_3,TRUE,7,7,"[238,53,282,276,152,266,118,142,53,65,314,89,65,56,185,158,322,146,58,105]",3.0486,rectangle
,,,,,,,,,,,,,FF,,,,,,,,0.9179,,,,,,,,,,,,,,,,,,,,,,6100aad31b75bacb3595fdee,61036e0fab79b70cf7088da7,2021-07-29_23h12.40.011,Simcolourproject_2stim_asymm_v5,2020.2.10,Win32,60,61025ae37ef11b136ea224fe,,,,,,,,,1804,-72,-24,1,0,0,response5disk,,2,-8,-6,1,0,0,rectangle,-8,-6,1,0,0,-8,-6,1,0,0,0,53,53,86,1,,,,,,,,
,,,,,,,,,,,,,FF,,,,,,,,1.4172,,,,,,,,,,,,,,,,,,,,,,6100aad31b75bacb3595fdee,61036e0fab79b70cf7088da7,2021-07-29_23h12.40.011,Simcolourproject_2stim_asymm_v5,2020.2.10,Win32,60,61025ae37ef11b136ea224fe,,,,,,,,,316,-82,-39,1,0,0,response5disk,,2,-15,0,1,0,0,rectangle,-15,0,1,0,0,-15,0,1,0,0,0,54,54,100,1,,,,,,,,
,,,,,,,,,,,,,FF,,,,,,,,2.0836,,,,,,,,,,,,,,,,,,,,,,6100aad31b75bacb3595fdee,61036e0fab79b70cf7088da7,2021-07-29_23h12.40.011,Simcolourproject_2stim_asymm_v5,2020.2.10,Win32,60,61025ae37ef11b136ea224fe,,,,,,,,,4021,-87,45,1,0,0,response7disk,,1,1,2,1,0,0,rectangle,34,82,1,0,0,3,1,1,0,0,0,55,55,8,1,,response1disk_3,TRUE,7,7,"[238,53,282,276,152,266,118,142,53,65,314,89,65,56,185,158,322,146,58,105]",1.8819,rectangle
,,,,,,,,,,,,,FF,,,,,,,,1.138,,,,,,,,,,,,,,,,,,,,,,6100aad31b75bacb3595fdee,61036e0fab79b70cf7088da7,2021-07-29_23h12.40.011,Simcolourproject_2stim_asymm_v5,2020.2.10,Win32,60,61025ae37ef11b136ea224fe,,,,,,,,,3157,-87,-24,1,0,0,response5disk,,2,-13,9,1,0,0,rectangle,-13,9,1,0,0,-13,9,1,0,0,0,56,56,79,1,,,,,,,,
,,,,,,,,,,,,,FF,,,,,,,,0.9147,,,,,,,,,,,,,,,,,,,,,,6100aad31b75bacb3595fdee,61036e0fab79b70cf7088da7,2021-07-29_23h12.40.011,Simcolourproject_2stim_asymm_v5,2020.2.10,Win32,60,61025ae37ef11b136ea224fe,,,,,,,,,1420,82,-54,1,0,0,response3disk,,5,-4,12,1,0,0,rectangle,38,78,1,0,0,0,5,1,0,0,0,57,57,140,1,,response1disk_3,TRUE,7,7,"[238,53,282,276,152,266,118,142,53,65,314,89,65,56,185,158,322,146,58,105]",1.6696,rectangle
,,,,,,,,,,,,,FF,,,,,,,,1.6016,,,,,,,,,,,,,,,,,,,,,,6100aad31b75bacb3595fdee,61036e0fab79b70cf7088da7,2021-07-29_23h12.40.011,Simcolourproject_2stim_asymm_v5,2020.2.10,Win32,60,61025ae37ef11b136ea224fe,,,,,,,,,2693,57,-34,1,0,0,response3disk,,5,5,1,1,0,0,rectangle,5,1,1,0,0,5,1,1,0,0,0,58,58,40,1,,,,,,,,
,,,,,,,,,,,,,FF,,,,,,,,0.8504,,,,,,,,,,,,,,,,,,,,,,6100aad31b75bacb3595fdee,61036e0fab79b70cf7088da7,2021-07-29_23h12.40.011,Simcolourproject_2stim_asymm_v5,2020.2.10,Win32,60,61025ae37ef11b136ea224fe,,,,,,,,,272,-94,-36,1,0,0,response5disk,,2,-10,-2,1,0,0,rectangle,-10,-2,1,0,0,-10,-2,1,0,0,0,59,59,103,1,,,,,,,,
,,,,,,,,,,,,,FF,,,,,,,,1.4335,,,,,,,,,,,,,,,,,,,,,,6100aad31b75bacb3595fdee,61036e0fab79b70cf7088da7,2021-07-29_23h12.40.011,Simcolourproject_2stim_asymm_v5,2020.2.10,Win32,60,61025ae37ef11b136ea224fe,,,,,,,,,1909,56,32,1,0,0,response1disk,,6,-9,2,1,0,0,rectangle,-9,2,1,0,0,-9,2,1,0,0,0,60,60,4,1,,,,,,,,
,,,,,,,,,,,,,FF,,,,,,,,1.333,,,,,,,,,,,,,,,,,,,,,,6100aad31b75bacb3595fdee,61036e0fab79b70cf7088da7,2021-07-29_23h12.40.011,Simcolourproject_2stim_asymm_v5,2020.2.10,Win32,60,61025ae37ef11b136ea224fe,,,,,,,,,3483,-70,-40,1,0,0,response5disk,,2,2,3,1,0,0,rectangle,2,3,1,0,0,2,3,1,0,0,0,61,61,114,1,,,,,,,,
,,,,,,,,,,,,,FF,,,,,,,,1.6504,,,,,,,,,,,,,,,,,,,,,,6100aad31b75bacb3595fdee,61036e0fab79b70cf7088da7,2021-07-29_23h12.40.011,Simcolourproject_2stim_asymm_v5,2020.2.10,Win32,60,61025ae37ef11b136ea224fe,,,,,,,,,4169,-34,-52,1,0,0,response5disk,,3,-4,3,1,0,0,rectangle,-4,3,1,0,0,-4,3,1,0,0,0,62,62,42,1,,,,,,,,
,,,,,,,,,,,,,FF,,,,,,,,1.3335,,,,,,,,,,,,,,,,,,,,,,6100aad31b75bacb3595fdee,61036e0fab79b70cf7088da7,2021-07-29_23h12.40.011,Simcolourproject_2stim_asymm_v5,2020.2.10,Win32,60,61025ae37ef11b136ea224fe,,,,,,,,,1152,-75,53,1,0,0,response7disk,,1,8,5,1,0,0,rectangle,8,5,1,0,0,8,5,1,0,0,0,63,63,62,1,,,,,,,,
,,,,,,,,,,,,,FF,,,,,,,,0.9505,,,,,,,,,,,,,,,,,,,,,,6100aad31b75bacb3595fdee,61036e0fab79b70cf7088da7,2021-07-29_23h12.40.011,Simcolourproject_2stim_asymm_v5,2020.2.10,Win32,60,61025ae37ef11b136ea224fe,,,,,,,,,291,63,28,1,0,0,response1disk,,6,1,9,1,0,0,rectangle,55,40,1,0,0,-5,3,1,0,0,0,64,64,95,1,,response1disk_3,TRUE,6,6,"[238,53,282,276,152,266,118,142,53,65,314,89,65,56,185,158,322,146,58,105]",1.3998,rectangle
,,,,,,,,,,,,,FF,,,,,,,,1.3005,,,,,,,,,,,,,,,,,,,,,,6100aad31b75bacb3595fdee,61036e0fab79b70cf7088da7,2021-07-29_23h12.40.011,Simcolourproject_2stim_asymm_v5,2020.2.10,Win32,60,61025ae37ef11b136ea224fe,,,,,,,,,2605,-103,-48,1,0,0,response5disk,,2,7,8,1,0,0,rectangle,7,8,1,0,0,7,8,1,0,0,0,65,65,6,1,,,,,,,,
,,,,,,,,,,,,,FF,,,,,,,,1.0347,,,,,,,,,,,,,,,,,,,,,,6100aad31b75bacb3595fdee,61036e0fab79b70cf7088da7,2021-07-29_23h12.40.011,Simcolourproject_2stim_asymm_v5,2020.2.10,Win32,60,61025ae37ef11b136ea224fe,,,,,,,,,77,-39,50,1,0,0,response7disk,,0,1,-10,1,0,0,rectangle,1,-10,1,0,0,1,-10,1,0,0,0,66,66,110,1,,,,,,,,
,,,,,,,,,,,,,FF,,,,,,,,0.9688,,,,,,,,,,,,,,,,,,,,,,6100aad31b75bacb3595fdee,61036e0fab79b70cf7088da7,2021-07-29_23h12.40.011,Simcolourproject_2stim_asymm_v5,2020.2.10,Win32,60,61025ae37ef11b136ea224fe,,,,,,,,,1464,-69,47,1,0,0,response7disk,,1,0,0,1,0,0,rectangle,0,0,1,0,0,0,0,1,0,0,0,67,67,142,1,,,,,,,,
,,,,,,,,,,,,,FF,,,,,,,,1.0175,,,,,,,,,,,,,,,,,,,,,,6100aad31b75bacb3595fdee,61036e0fab79b70cf7088da7,2021-07-29_23h12.40.011,Simcolourproject_2stim_asymm_v5,2020.2.10,Win32,60,61025ae37ef11b136ea224fe,,,,,,,,,4013,68,-33,1,0,0,response3disk,,5,4,9,1,0,0,rectangle,4,9,1,0,0,4,9,1,0,0,0,68,68,73,1,,,,,,,,
,,,,,,,,,,,,,FF,,,,,,,,1.7332,,,,,,,,,,,,,,,,,,,,,,6100aad31b75bacb3595fdee,61036e0fab79b70cf7088da7,2021-07-29_23h12.40.011,Simcolourproject_2stim_asymm_v5,2020.2.10,Win32,60,61025ae37ef11b136ea224fe,,,,,,,,,1338,116,-29,1,0,0,response3disk,,5,-9,1,1,0,0,rectangle,-9,1,1,0,0,-9,1,1,0,0,0,69,69,139,1,,,,,,,,
,,,,,,,,,,,,,FF,,,,,,,,0.9179,,,,,,,,,,,,,,,,,,,,,,6100aad31b75bacb3595fdee,61036e0fab79b70cf7088da7,2021-07-29_23h12.40.011,Simcolourproject_2stim_asymm_v5,2020.2.10,Win32,60,61025ae37ef11b136ea224fe,,,,,,,,,1563,85,-30,1,0,0,response3disk,,5,-2,4,1,0,0,rectangle,-2,4,1,0,0,-2,4,1,0,0,0,70,70,108,1,,,,,,,,
,,,,,,,,,,,,,FF,,,,,,,,1.6,,,,,,,,,,,,,,,,,,,,,,6100aad31b75bacb3595fdee,61036e0fab79b70cf7088da7,2021-07-29_23h12.40.011,Simcolourproject_2stim_asymm_v5,2020.2.10,Win32,60,61025ae37ef11b136ea224fe,,,,,,,,,3801,52,94,1,0,0,response1disk,,7,2,1,1,0,0,rectangle,2,1,1,0,0,2,1,1,0,0,0,71,71,128,1,,,,,,,,
,,,,,,,,,,,,,FF,,,,,,,,2.1826,,,,,,,,,,,,,,,,,,,,,,6100aad31b75bacb3595fdee,61036e0fab79b70cf7088da7,2021-07-29_23h12.40.011,Simcolourproject_2stim_asymm_v5,2020.2.10,Win32,60,61025ae37ef11b136ea224fe,,,,,,,,,3401,-41,-99,1,0,0,response5disk,,3,-1,-3,1,0,0,rectangle,-1,-3,1,0,0,-1,-3,1,0,0,0,72,72,89,1,,,,,,,,
,,,,,,,,,,,,,FF,,,,,,,,1.3328,,,,,,,,,,,,,,,,,,,,,,6100aad31b75bacb3595fdee,61036e0fab79b70cf7088da7,2021-07-29_23h12.40.011,Simcolourproject_2stim_asymm_v5,2020.2.10,Win32,60,61025ae37ef11b136ea224fe,,,,,,,,,2398,64,-24,1,0,0,response3disk,,5,-7,3,1,0,0,rectangle,-7,3,1,0,0,-7,3,1,0,0,0,73,73,27,1,,,,,,,,
,,,,,,,,,,,,,FF,,,,,,,,1.0341,,,,,,,,,,,,,,,,,,,,,,6100aad31b75bacb3595fdee,61036e0fab79b70cf7088da7,2021-07-29_23h12.40.011,Simcolourproject_2stim_asymm_v5,2020.2.10,Win32,60,61025ae37ef11b136ea224fe,,,,,,,,,4168,-94,-47,1,0,0,response5disk,,2,1,0,1,0,0,rectangle,1,0,1,0,0,1,0,1,0,0,0,74,74,43,1,,,,,,,,
,,,,,,,,,,,,,FF,,,,,,,,0.8995,,,,,,,,,,,,,,,,,,,,,,6100aad31b75bacb3595fdee,61036e0fab79b70cf7088da7,2021-07-29_23h12.40.011,Simcolourproject_2stim_asymm_v5,2020.2.10,Win32,60,61025ae37ef11b136ea224fe,,,,,,,,,1238,80,-48,1,0,0,response3disk,,5,4,7,1,0,0,rectangle,4,7,1,0,0,4,7,1,0,0,0,75,75,135,1,,,,,,,,
,,,,,,,,,,,,,FF,,,,,,,,1.4181,,,,,,,,,,,,,,,,,,,,,,6100aad31b75bacb3595fdee,61036e0fab79b70cf7088da7,2021-07-29_23h12.40.011,Simcolourproject_2stim_asymm_v5,2020.2.10,Win32,60,61025ae37ef11b136ea224fe,,,,,,,,,681,-79,-37,1,0,0,response5disk,,2,-11,2,1,0,0,rectangle,-11,2,1,0,0,-11,2,1,0,0,0,76,76,153,1,,,,,,,,
,,,,,,,,,,,,,FF,,,,,,,,1.0337,,,,,,,,,,,,,,,,,,,,,,6100aad31b75bacb3595fdee,61036e0fab79b70cf7088da7,2021-07-29_23h12.40.011,Simcolourproject_2stim_asymm_v5,2020.2.10,Win32,60,61025ae37ef11b136ea224fe,,,,,,,,,3832,89,-41,1,0,0,response3disk,,5,4,-1,1,0,0,rectangle,4,-1,1,0,0,4,-1,1,0,0,0,77,77,148,1,,,,,,,,
,,,,,,,,,,,,,FF,,,,,,,,0.9173,,,,,,,,,,,,,,,,,,,,,,6100aad31b75bacb3595fdee,61036e0fab79b70cf7088da7,2021-07-29_23h12.40.011,Simcolourproject_2stim_asymm_v5,2020.2.10,Win32,60,61025ae37ef11b136ea224fe,,,,,,,,,2644,79,-39,1,0,0,response3disk,,5,0,1,1,0,0,rectangle,0,1,1,0,0,0,1,1,0,0,0,78,78,85,1,,,,,,,,
,,,,,,,,,,,,,FF,,,,,,,,0.7515,,,,,,,,,,,,,,,,,,,,,,6100aad31b75bacb3595fdee,61036e0fab79b70cf7088da7,2021-07-29_23h12.40.011,Simcolourproject_2stim_asymm_v5,2020.2.10,Win32,60,61025ae37ef11b136ea224fe,,,,,,,,,2079,68,-31,1,0,0,response3disk,,5,1,11,1,0,0,rectangle,1,11,1,0,0,1,11,1,0,0,0,79,79,93,1,,,,,,,,
,,,,,,,,,,,,,FF,,,,,,,,0.9334,,,,,,,,,,,,,,,,,,,,,,6100aad31b75bacb3595fdee,61036e0fab79b70cf7088da7,2021-07-29_23h12.40.011,Simcolourproject_2stim_asymm_v5,2020.2.10,Win32,60,61025ae37ef11b136ea224fe,,,,,,,,,3079,97,-50,1,0,0,response3disk,,5,1,-2,1,0,0,rectangle,1,-2,1,0,0,1,-2,1,0,0,0,80,80,99,1,,,,,,,,
,,,,,,,,,,,,,FF,,,,,,,,0.7502,,,,,,,,,,,,,,,,,,,,,,6100aad31b75bacb3595fdee,61036e0fab79b70cf7088da7,2021-07-29_23h12.40.011,Simcolourproject_2stim_asymm_v5,2020.2.10,Win32,60,61025ae37ef11b136ea224fe,,,,,,,,,3410,59,-32,1,0,0,response3disk,,5,-3,8,1,0,0,rectangle,-3,8,1,0,0,-3,8,1,0,0,0,81,81,14,1,,,,,,,,
,,,,,,,,,,,,,FF,,,,,,,,1.2006,,,,,,,,,,,,,,,,,,,,,,6100aad31b75bacb3595fdee,61036e0fab79b70cf7088da7,2021-07-29_23h12.40.011,Simcolourproject_2stim_asymm_v5,2020.2.10,Win32,60,61025ae37ef11b136ea224fe,,,,,,,,,4053,-44,-66,1,0,0,response5disk,,3,0,5,1,0,0,rectangle,0,5,1,0,0,0,5,1,0,0,0,82,82,49,1,,,,,,,,
,,,,,,,,,,,,,FF,,,,,,,,1.1183,,,,,,,,,,,,,,,,,,,,,,6100aad31b75bacb3595fdee,61036e0fab79b70cf7088da7,2021-07-29_23h12.40.011,Simcolourproject_2stim_asymm_v5,2020.2.10,Win32,60,61025ae37ef11b136ea224fe,,,,,,,,,720,-43,-55,1,0,0,response5disk,,3,-16,1,1,0,0,rectangle,-16,1,1,0,0,-16,1,1,0,0,0,83,83,84,1,,,,,,,,
,,,,,,,,,,,,,FF,,,,,,,,0.8058,,,,,,,,,,,,,,,,,,,,,,6100aad31b75bacb3595fdee,61036e0fab79b70cf7088da7,2021-07-29_23h12.40.011,Simcolourproject_2stim_asymm_v5,2020.2.10,Win32,60,61025ae37ef11b136ea224fe,,,,,,,,,3942,72,-24,1,0,0,response3disk,,5,9,1,1,0,0,rectangle,9,1,1,0,0,9,1,1,0,0,0,84,84,64,1,,,,,,,,
,,,,,,,,,,,,,FF,,,,,,,,1.8213,,,,,,,,,,,,,,,,,,,,,,6100aad31b75bacb3595fdee,61036e0fab79b70cf7088da7,2021-07-29_23h12.40.011,Simcolourproject_2stim_asymm_v5,2020.2.10,Win32,60,61025ae37ef11b136ea224fe,,,,,,,,,2048,-35,-68,1,0,0,response5disk,,3,4,1,1,0,0,rectangle,4,1,1,0,0,4,1,1,0,0,0,85,85,28,1,,,,,,,,
,,,,,,,,,,,,,FF,,,,,,,,1.4667,,,,,,,,,,,,,,,,,,,,,,6100aad31b75bacb3595fdee,61036e0fab79b70cf7088da7,2021-07-29_23h12.40.011,Simcolourproject_2stim_asymm_v5,2020.2.10,Win32,60,61025ae37ef11b136ea224fe,,,,,,,,,490,25,-63,1,0,0,response3disk,,4,-2,-6,1,0,0,rectangle,-2,-6,1,0,0,-2,-6,1,0,0,0,86,86,54,1,,,,,,,,
,,,,,,,,,,,,,FF,,,,,,,,1.0672,,,,,,,,,,,,,,,,,,,,,,6100aad31b75bacb3595fdee,61036e0fab79b70cf7088da7,2021-07-29_23h12.40.011,Simcolourproject_2stim_asymm_v5,2020.2.10,Win32,60,61025ae37ef11b136ea224fe,,,,,,,,,4343,-36,91,1,0,0,response7disk,,0,0,6,1,0,0,rectangle,0,6,1,0,0,0,6,1,0,0,0,87,87,144,1,,,,,,,,
,,,,,,,,,,,,,FF,,,,,,,,3,,,,,,,,,,,,,,,,,,,,,,6100aad31b75bacb3595fdee,61036e0fab79b70cf7088da7,2021-07-29_23h12.40.011,Simcolourproject_2stim_asymm_v5,2020.2.10,Win32,60,61025ae37ef11b136ea224fe,,,,,,,,,287,36,-83,1,0,0,response3disk,,4,-6,1,1,0,0,rectangle,59,29,1,0,0,2,-6,1,0,0,0,88,88,155,1,,response1disk_3,TRUE,6,6,"[238,53,282,276,152,266,118,142,53,65,314,89,65,56,185,158,322,146,58,105]",1.9481,rectangle
,,,,,,,,,,,,,FF,,,,,,,,0.9675,,,,,,,,,,,,,,,,,,,,,,6100aad31b75bacb3595fdee,61036e0fab79b70cf7088da7,2021-07-29_23h12.40.011,Simcolourproject_2stim_asymm_v5,2020.2.10,Win32,60,61025ae37ef11b136ea224fe,,,,,,,,,354,-102,-58,1,0,0,response5disk,,2,-4,5,1,0,0,rectangle,-4,5,1,0,0,-4,5,1,0,0,0,89,89,57,1,,,,,,,,
,,,,,,,,,,,,,FF,,,,,,,,0.7511,,,,,,,,,,,,,,,,,,,,,,6100aad31b75bacb3595fdee,61036e0fab79b70cf7088da7,2021-07-29_23h12.40.011,Simcolourproject_2stim_asymm_v5,2020.2.10,Win32,60,61025ae37ef11b136ea224fe,,,,,,,,,2784,-40,-63,1,0,0,response5disk,,3,-1,2,1,0,0,rectangle,-1,2,1,0,0,-1,2,1,0,0,0,90,90,48,1,,,,,,,,
,,,,,,,,,,,,,FF,,,,,,,,1.7839,,,,,,,,,,,,,,,,,,,,,,6100aad31b75bacb3595fdee,61036e0fab79b70cf7088da7,2021-07-29_23h12.40.011,Simcolourproject_2stim_asymm_v5,2020.2.10,Win32,60,61025ae37ef11b136ea224fe,,,,,,,,,341,45,-57,1,0,0,response3disk,,4,0,0,1,0,0,rectangle,0,0,1,0,0,0,0,1,0,0,0,91,91,154,1,,,,,,,,
,,,,,,,,,,,,,FF,,,,,,,,1.3001,,,,,,,,,,,,,,,,,,,,,,6100aad31b75bacb3595fdee,61036e0fab79b70cf7088da7,2021-07-29_23h12.40.011,Simcolourproject_2stim_asymm_v5,2020.2.10,Win32,60,61025ae37ef11b136ea224fe,,,,,,,,,3233,46,-70,1,0,0,response3disk,,4,-4,-5,1,0,0,rectangle,-4,-5,1,0,0,-4,-5,1,0,0,0,92,92,60,1,,,,,,,,
,,,,,,,,,,,,,FF,,,,,,,,0.9714,,,,,,,,,,,,,,,,,,,,,,6100aad31b75bacb3595fdee,61036e0fab79b70cf7088da7,2021-07-29_23h12.40.011,Simcolourproject_2stim_asymm_v5,2020.2.10,Win32,60,61025ae37ef11b136ea224fe,,,,,,,,,4302,38,-72,1,0,0,response3disk,,4,-9,1,1,0,0,rectangle,-9,1,1,0,0,-9,1,1,0,0,0,93,93,132,1,,,,,,,,
,,,,,,,,,,,,,FF,,,,,,,,0.85,,,,,,,,,,,,,,,,,,,,,,6100aad31b75bacb3595fdee,61036e0fab79b70cf7088da7,2021-07-29_23h12.40.011,Simcolourproject_2stim_asymm_v5,2020.2.10,Win32,60,61025ae37ef11b136ea224fe,,,,,,,,,4016,36,-60,1,0,0,response3disk,,4,-1,13,1,0,0,rectangle,-1,13,1,0,0,-1,13,1,0,0,0,94,94,129,1,,,,,,,,
,,,,,,,,,,,,,FF,,,,,,,,0.7675,,,,,,,,,,,,,,,,,,,,,,6100aad31b75bacb3595fdee,61036e0fab79b70cf7088da7,2021-07-29_23h12.40.011,Simcolourproject_2stim_asymm_v5,2020.2.10,Win32,60,61025ae37ef11b136ea224fe,,,,,,,,,1504,44,-100,1,0,0,response3disk,,4,-1,2,1,0,0,rectangle,-1,2,1,0,0,-1,2,1,0,0,0,95,95,105,1,,,,,,,,
,,,,,,,,,,,,,FF,,,,,,,,2.1515,,,,,,,,,,,,,,,,,,,,,,6100aad31b75bacb3595fdee,61036e0fab79b70cf7088da7,2021-07-29_23h12.40.011,Simcolourproject_2stim_asymm_v5,2020.2.10,Win32,60,61025ae37ef11b136ea224fe,,,,,,,,,2745,-43,-56,1,0,0,response5disk,,3,2,5,1,0,0,rectangle,2,5,1,0,0,2,5,1,0,0,0,96,96,136,1,,,,,,,,
,,,,,,,,,,,,,FF,,,,,,,,1.3172,,,,,,,,,,,,,,,,,,,,,,6100aad31b75bacb3595fdee,61036e0fab79b70cf7088da7,2021-07-29_23h12.40.011,Simcolourproject_2stim_asymm_v5,2020.2.10,Win32,60,61025ae37ef11b136ea224fe,,,,,,,,,4291,84,47,1,0,0,response1disk,,6,-3,-6,1,0,0,rectangle,-3,-6,1,0,0,-3,-6,1,0,0,0,97,97,101,1,,,,,,,,
,,,,,,,,,,,,,FF,,,,,,,,1.9667,,,,,,,,,,,,,,,,,,,,,,6100aad31b75bacb3595fdee,61036e0fab79b70cf7088da7,2021-07-29_23h12.40.011,Simcolourproject_2stim_asymm_v5,2020.2.10,Win32,60,61025ae37ef11b136ea224fe,,,,,,,,,3419,70,-50,1,0,0,response3disk,,5,-5,2,1,0,0,rectangle,-5,2,1,0,0,-5,2,1,0,0,0,98,98,11,1,,,,,,,,
,,,,,,,,,,,,,FF,,,,,,,,0.6999,,,,,,,,,,,,,,,,,,,,,,6100aad31b75bacb3595fdee,61036e0fab79b70cf7088da7,2021-07-29_23h12.40.011,Simcolourproject_2stim_asymm_v5,2020.2.10,Win32,60,61025ae37ef11b136ea224fe,,,,,,,,,2754,79,-28,1,0,0,response3disk,,5,-4,0,1,0,0,rectangle,-4,0,1,0,0,-4,0,1,0,0,0,99,99,3,1,,,,,,,,
,,,,,,,,,,,,,FF,,,,,,,,0.7167,,,,,,,,,,,,,,,,,,,,,,6100aad31b75bacb3595fdee,61036e0fab79b70cf7088da7,2021-07-29_23h12.40.011,Simcolourproject_2stim_asymm_v5,2020.2.10,Win32,60,61025ae37ef11b136ea224fe,,,,,,,,,3086,86,-34,1,0,0,response3disk,,5,-4,7,1,0,0,rectangle,-4,7,1,0,0,-4,7,1,0,0,0,100,100,138,1,,,,,,,,
,,,,,,,,,,,,,FF,,,,,,,,1.1003,,,,,,,,,,,,,,,,,,,,,,6100aad31b75bacb3595fdee,61036e0fab79b70cf7088da7,2021-07-29_23h12.40.011,Simcolourproject_2stim_asymm_v5,2020.2.10,Win32,60,61025ae37ef11b136ea224fe,,,,,,,,,2300,-50,55,1,0,0,response7disk,,0,4,5,1,0,0,rectangle,4,5,1,0,0,4,5,1,0,0,0,101,101,97,1,,,,,,,,
,,,,,,,,,,,,,FF,,,,,,,,3.2839,,,,,,,,,,,,,,,,,,,,,,6100aad31b75bacb3595fdee,61036e0fab79b70cf7088da7,2021-07-29_23h12.40.011,Simcolourproject_2stim_asymm_v5,2020.2.10,Win32,60,61025ae37ef11b136ea224fe,,,,,,,,,2085,55,-81,1,0,0,response3disk,,4,-3,4,1,0,0,rectangle,-3,4,1,0,0,-3,4,1,0,0,0,102,102,50,1,,,,,,,,
,,,,,,,,,,,,,FF,,,,,,,,1.2167,,,,,,,,,,,,,,,,,,,,,,6100aad31b75bacb3595fdee,61036e0fab79b70cf7088da7,2021-07-29_23h12.40.011,Simcolourproject_2stim_asymm_v5,2020.2.10,Win32,60,61025ae37ef11b136ea224fe,,,,,,,,,3087,72,53,1,0,0,response1disk,,6,-8,4,1,0,0,rectangle,-8,4,1,0,0,-8,4,1,0,0,0,103,103,123,1,,,,,,,,
,,,,,,,,,,,,,FF,,,,,,,,1.0012,,,,,,,,,,,,,,,,,,,,,,6100aad31b75bacb3595fdee,61036e0fab79b70cf7088da7,2021-07-29_23h12.40.011,Simcolourproject_2stim_asymm_v5,2020.2.10,Win32,60,61025ae37ef11b136ea224fe,,,,,,,,,492,68,41,1,0,0,response1disk,,6,3,12,1,0,0,rectangle,-65,41,1,0,0,-1,0,1,0,0,0,104,104,94,1,,response7disk_3,TRUE,1,1,"[238,53,282,276,152,266,118,142,53,65,314,89,65,56,185,158,322,146,58,105]",1.6161,rectangle
,,,,,,,,,,,,,FF,,,,,,,,2.9152,,,,,,,,,,,,,,,,,,,,,,6100aad31b75bacb3595fdee,61036e0fab79b70cf7088da7,2021-07-29_23h12.40.011,Simcolourproject_2stim_asymm_v5,2020.2.10,Win32,60,61025ae37ef11b136ea224fe,,,,,,,,,1316,-48,-58,1,0,0,response5disk,,3,0,-1,1,0,0,rectangle,0,-1,1,0,0,0,-1,1,0,0,0,105,105,45,1,,,,,,,,
,,,,,,,,,,,,,FF,,,,,,,,1.2827,,,,,,,,,,,,,,,,,,,,,,6100aad31b75bacb3595fdee,61036e0fab79b70cf7088da7,2021-07-29_23h12.40.011,Simcolourproject_2stim_asymm_v5,2020.2.10,Win32,60,61025ae37ef11b136ea224fe,,,,,,,,,2630,87,-19,1,0,0,response3disk,,5,-13,4,1,0,0,rectangle,-13,4,1,0,0,-13,4,1,0,0,0,106,106,74,1,,,,,,,,
,,,,,,,,,,,,,FF,,,,,,,,0.8834,,,,,,,,,,,,,,,,,,,,,,6100aad31b75bacb3595fdee,61036e0fab79b70cf7088da7,2021-07-29_23h12.40.011,Simcolourproject_2stim_asymm_v5,2020.2.10,Win32,60,61025ae37ef11b136ea224fe,,,,,,,,,1128,83,-29,1,0,0,response3disk,,5,-3,10,1,0,0,rectangle,-3,10,1,0,0,-3,10,1,0,0,0,107,107,152,1,,,,,,,,
,,,,,,,,,,,,,FF,,,,,,,,1.0172,,,,,,,,,,,,,,,,,,,,,,6100aad31b75bacb3595fdee,61036e0fab79b70cf7088da7,2021-07-29_23h12.40.011,Simcolourproject_2stim_asymm_v5,2020.2.10,Win32,60,61025ae37ef11b136ea224fe,,,,,,,,,1045,91,-47,1,0,0,response3disk,,5,-1,7,1,0,0,rectangle,-1,7,1,0,0,-1,7,1,0,0,0,108,108,122,1,,,,,,,,
,,,,,,,,,,,,,FF,,,,,,,,0.9995,,,,,,,,,,,,,,,,,,,,,,6100aad31b75bacb3595fdee,61036e0fab79b70cf7088da7,2021-07-29_23h12.40.011,Simcolourproject_2stim_asymm_v5,2020.2.10,Win32,60,61025ae37ef11b136ea224fe,,,,,,,,,916,57,-31,1,0,0,response3disk,,5,-2,0,1,0,0,rectangle,-2,0,1,0,0,-2,0,1,0,0,0,109,109,159,1,,,,,,,,
,,,,,,,,,,,,,FF,,,,,,,,1.7169,,,,,,,,,,,,,,,,,,,,,,6100aad31b75bacb3595fdee,61036e0fab79b70cf7088da7,2021-07-29_23h12.40.011,Simcolourproject_2stim_asymm_v5,2020.2.10,Win32,60,61025ae37ef11b136ea224fe,,,,,,,,,3814,-74,-19,1,0,0,response5disk,,2,-6,3,1,0,0,rectangle,-6,3,1,0,0,-6,3,1,0,0,0,110,110,113,1,,,,,,,,
,,,,,,,,,,,,,FF,,,,,,,,1.2345,,,,,,,,,,,,,,,,,,,,,,6100aad31b75bacb3595fdee,61036e0fab79b70cf7088da7,2021-07-29_23h12.40.011,Simcolourproject_2stim_asymm_v5,2020.2.10,Win32,60,61025ae37ef11b136ea224fe,,,,,,,,,913,-17,-69,1,0,0,response5disk,,3,2,0,1,0,0,rectangle,2,0,1,0,0,2,0,1,0,0,0,111,111,143,1,,,,,,,,
,,,,,,,,,,,,,FF,,,,,,,,0.9392,,,,,,,,,,,,,,,,,,,,,,6100aad31b75bacb3595fdee,61036e0fab79b70cf7088da7,2021-07-29_23h12.40.011,Simcolourproject_2stim_asymm_v5,2020.2.10,Win32,60,61025ae37ef11b136ea224fe,,,,,,,,,4146,-79,-30,1,0,0,response5disk,,2,7,7,1,0,0,rectangle,7,7,1,0,0,7,7,1,0,0,0,112,112,25,1,,,,,,,,
,,,,,,,,,,,,,FF,,,,,,,,1.4003,,,,,,,,,,,,,,,,,,,,,,6100aad31b75bacb3595fdee,61036e0fab79b70cf7088da7,2021-07-29_23h12.40.011,Simcolourproject_2stim_asymm_v5,2020.2.10,Win32,60,61025ae37ef11b136ea224fe,,,,,,,,,2430,60,-36,1,0,0,response3disk,,5,-1,1,1,0,0,rectangle,-1,1,1,0,0,-1,1,1,0,0,0,113,113,55,1,,,,,,,,
,,,,,,,,,,,,,FF,,,,,,,,1.3983,,,,,,,,,,,,,,,,,,,,,,6100aad31b75bacb3595fdee,61036e0fab79b70cf7088da7,2021-07-29_23h12.40.011,Simcolourproject_2stim_asymm_v5,2020.2.10,Win32,60,61025ae37ef11b136ea224fe,,,,,,,,,3823,-20,-60,1,0,0,response5disk,,3,1,-6,1,0,0,rectangle,1,-6,1,0,0,1,-6,1,0,0,0,114,114,145,1,,,,,,,,
,,,,,,,,,,,,,FF,,,,,,,,1.8333,,,,,,,,,,,,,,,,,,,,,,6100aad31b75bacb3595fdee,61036e0fab79b70cf7088da7,2021-07-29_23h12.40.011,Simcolourproject_2stim_asymm_v5,2020.2.10,Win32,60,61025ae37ef11b136ea224fe,,,,,,,,,2683,44,-91,1,0,0,response3disk,,4,-1,-5,1,0,0,rectangle,-1,-5,1,0,0,-1,-5,1,0,0,0,115,115,147,1,,,,,,,,
,,,,,,,,,,,,,FF,,,,,,,,1.617,,,,,,,,,,,,,,,,,,,,,,6100aad31b75bacb3595fdee,61036e0fab79b70cf7088da7,2021-07-29_23h12.40.011,Simcolourproject_2stim_asymm_v5,2020.2.10,Win32,60,61025ae37ef11b136ea224fe,,,,,,,,,3975,-101,-64,1,0,0,response5disk,,2,-3,2,1,0,0,rectangle,-3,2,1,0,0,-3,2,1,0,0,0,116,116,82,1,,,,,,,,
,,,,,,,,,,,,,FF,,,,,,,,0.8506,,,,,,,,,,,,,,,,,,,,,,6100aad31b75bacb3595fdee,61036e0fab79b70cf7088da7,2021-07-29_23h12.40.011,Simcolourproject_2stim_asymm_v5,2020.2.10,Win32,60,61025ae37ef11b136ea224fe,,,,,,,,,4022,-64,-41,1,0,0,response5disk,,2,4,6,1,0,0,rectangle,54,80,1,0,0,-4,2,1,0,0,0,117,117,104,1,,response1disk_3,TRUE,7,7,"[238,53,282,276,152,266,118,142,53,65,314,89,65,56,185,158,322,146,58,105]",1.5139,rectangle
,,,,,,,,,,,,,FF,,,,,,,,1.0352,,,,,,,,,,,,,,,,,,,,,,6100aad31b75bacb3595fdee,61036e0fab79b70cf7088da7,2021-07-29_23h12.40.011,Simcolourproject_2stim_asymm_v5,2020.2.10,Win32,60,61025ae37ef11b136ea224fe,,,,,,,,,3224,58,-47,1,0,0,response3disk,,5,-2,-5,1,0,0,rectangle,-2,-5,1,0,0,-2,-5,1,0,0,0,118,118,12,1,,,,,,,,
,,,,,,,,,,,,,FF,,,,,,,,1.3665,,,,,,,,,,,,,,,,,,,,,,6100aad31b75bacb3595fdee,61036e0fab79b70cf7088da7,2021-07-29_23h12.40.011,Simcolourproject_2stim_asymm_v5,2020.2.10,Win32,60,61025ae37ef11b136ea224fe,,,,,,,,,1093,26,-57,1,0,0,response3disk,,4,-8,-5,1,0,0,rectangle,-8,-5,1,0,0,-8,-5,1,0,0,0,119,119,119,1,,,,,,,,
,,,,,,,,,,,,,FF,,,,,,,,0.7664,,,,,,,,,,,,,,,,,,,,,,6100aad31b75bacb3595fdee,61036e0fab79b70cf7088da7,2021-07-29_23h12.40.011,Simcolourproject_2stim_asymm_v5,2020.2.10,Win32,60,61025ae37ef11b136ea224fe,,,,,,,,,388,30,-50,1,0,0,response3disk,,4,-1,12,1,0,0,rectangle,-1,12,1,0,0,-1,12,1,0,0,0,120,120,126,1,,,,,,,,
,,,,,,,,,,,,,FF,,,,,,,,1.3342,,,,,,,,,,,,,,,,,,,,,,6100aad31b75bacb3595fdee,61036e0fab79b70cf7088da7,2021-07-29_23h12.40.011,Simcolourproject_2stim_asymm_v5,2020.2.10,Win32,60,61025ae37ef11b136ea224fe,,,,,,,,,4152,89,42,1,0,0,response1disk,,6,4,-4,1,0,0,rectangle,4,-4,1,0,0,4,-4,1,0,0,0,121,121,5,1,,,,,,,,
,,,,,,,,,,,,,FF,,,,,,,,1.8353,,,,,,,,,,,,,,,,,,,,,,6100aad31b75bacb3595fdee,61036e0fab79b70cf7088da7,2021-07-29_23h12.40.011,Simcolourproject_2stim_asymm_v5,2020.2.10,Win32,60,61025ae37ef11b136ea224fe,,,,,,,,,1492,52,29,1,0,0,response1disk,,6,0,5,1,0,0,rectangle,0,5,1,0,0,0,5,1,0,0,0,122,122,98,1,,,,,,,,
,,,,,,,,,,,,,FF,,,,,,,,1.2836,,,,,,,,,,,,,,,,,,,,,,6100aad31b75bacb3595fdee,61036e0fab79b70cf7088da7,2021-07-29_23h12.40.011,Simcolourproject_2stim_asymm_v5,2020.2.10,Win32,60,61025ae37ef11b136ea224fe,,,,,,,,,2517,65,-26,1,0,0,response3disk,,5,-4,7,1,0,0,rectangle,-4,7,1,0,0,-4,7,1,0,0,0,123,123,2,1,,,,,,,,
,,,,,,,,,,,,,FF,,,,,,,,1.2343,,,,,,,,,,,,,,,,,,,,,,6100aad31b75bacb3595fdee,61036e0fab79b70cf7088da7,2021-07-29_23h12.40.011,Simcolourproject_2stim_asymm_v5,2020.2.10,Win32,60,61025ae37ef11b136ea224fe,,,,,,,,,2269,78,49,1,0,0,response1disk,,6,2,0,1,0,0,rectangle,2,0,1,0,0,2,0,1,0,0,0,124,124,23,1,,,,,,,,
,,,,,,,,,,,,,FF,,,,,,,,3.183,,,,,,,,,,,,,,,,,,,,,,6100aad31b75bacb3595fdee,61036e0fab79b70cf7088da7,2021-07-29_23h12.40.011,Simcolourproject_2stim_asymm_v5,2020.2.10,Win32,60,61025ae37ef11b136ea224fe,,,,,,,,,3260,41,-91,1,0,0,response3disk,,4,-17,15,1,0,0,rectangle,-17,15,1,0,0,-17,15,1,0,0,0,125,125,141,1,,,,,,,,
,,,,,,,,,,,,,FF,,,,,,,,1.1173,,,,,,,,,,,,,,,,,,,,,,6100aad31b75bacb3595fdee,61036e0fab79b70cf7088da7,2021-07-29_23h12.40.011,Simcolourproject_2stim_asymm_v5,2020.2.10,Win32,60,61025ae37ef11b136ea224fe,,,,,,,,,1413,31,-64,1,0,0,response3disk,,4,2,7,1,0,0,rectangle,2,7,1,0,0,2,7,1,0,0,0,126,126,66,1,,,,,,,,
,,,,,,,,,,,,,FF,,,,,,,,0.9502,,,,,,,,,,,,,,,,,,,,,,6100aad31b75bacb3595fdee,61036e0fab79b70cf7088da7,2021-07-29_23h12.40.011,Simcolourproject_2stim_asymm_v5,2020.2.10,Win32,60,61025ae37ef11b136ea224fe,,,,,,,,,2304,-71,-37,1,0,0,response5disk,,2,-1,7,1,0,0,rectangle,-1,7,1,0,0,-1,7,1,0,0,0,127,127,124,1,,,,,,,,
,,,,,,,,,,,,,FF,,,,,,,,1.4366,,,,,,,,,,,,,,,,,,,,,,6100aad31b75bacb3595fdee,61036e0fab79b70cf7088da7,2021-07-29_23h12.40.011,Simcolourproject_2stim_asymm_v5,2020.2.10,Win32,60,61025ae37ef11b136ea224fe,,,,,,,,,2192,96,-31,1,0,0,response3disk,,5,3,0,1,0,0,rectangle,3,0,1,0,0,3,0,1,0,0,0,128,128,10,1,,,,,,,,
,,,,,,,,,,,,,FF,,,,,,,,1.0835,,,,,,,,,,,,,,,,,,,,,,6100aad31b75bacb3595fdee,61036e0fab79b70cf7088da7,2021-07-29_23h12.40.011,Simcolourproject_2stim_asymm_v5,2020.2.10,Win32,60,61025ae37ef11b136ea224fe,,,,,,,,,2501,56,-33,1,0,0,response3disk,,5,0,1,1,0,0,rectangle,0,1,1,0,0,0,1,1,0,0,0,129,129,33,1,,,,,,,,
,,,,,,,,,,,,,FF,,,,,,,,1.5981,,,,,,,,,,,,,,,,,,,,,,6100aad31b75bacb3595fdee,61036e0fab79b70cf7088da7,2021-07-29_23h12.40.011,Simcolourproject_2stim_asymm_v5,2020.2.10,Win32,60,61025ae37ef11b136ea224fe,,,,,,,,,3824,-38,-60,1,0,0,response5disk,,3,-1,2,1,0,0,rectangle,-1,2,1,0,0,-1,2,1,0,0,0,130,130,133,1,,,,,,,,
,,,,,,,,,,,,,FF,,,,,,,,0.8309,,,,,,,,,,,,,,,,,,,,,,6100aad31b75bacb3595fdee,61036e0fab79b70cf7088da7,2021-07-29_23h12.40.011,Simcolourproject_2stim_asymm_v5,2020.2.10,Win32,60,61025ae37ef11b136ea224fe,,,,,,,,,2509,63,-24,1,0,0,response3disk,,5,1,0,1,0,0,rectangle,1,0,1,0,0,1,0,1,0,0,0,131,131,83,1,,,,,,,,
,,,,,,,,,,,,,FF,,,,,,,,1.0015,,,,,,,,,,,,,,,,,,,,,,6100aad31b75bacb3595fdee,61036e0fab79b70cf7088da7,2021-07-29_23h12.40.011,Simcolourproject_2stim_asymm_v5,2020.2.10,Win32,60,61025ae37ef11b136ea224fe,,,,,,,,,321,58,-27,1,0,0,response3disk,,5,-3,5,1,0,0,rectangle,-3,5,1,0,0,-3,5,1,0,0,0,132,132,15,1,,,,,,,,
,,,,,,,,,,,,,FF,,,,,,,,0.8323,,,,,,,,,,,,,,,,,,,,,,6100aad31b75bacb3595fdee,61036e0fab79b70cf7088da7,2021-07-29_23h12.40.011,Simcolourproject_2stim_asymm_v5,2020.2.10,Win32,60,61025ae37ef11b136ea224fe,,,,,,,,,4269,-78,-32,1,0,0,response5disk,,2,-2,6,1,0,0,rectangle,-2,6,1,0,0,-2,6,1,0,0,0,133,133,118,1,,,,,,,,
,,,,,,,,,,,,,FF,,,,,,,,0.9006,,,,,,,,,,,,,,,,,,,,,,6100aad31b75bacb3595fdee,61036e0fab79b70cf7088da7,2021-07-29_23h12.40.011,Simcolourproject_2stim_asymm_v5,2020.2.10,Win32,60,61025ae37ef11b136ea224fe,,,,,,,,,1958,-74,42,1,0,0,response7disk,,1,-4,5,1,0,0,rectangle,-4,5,1,0,0,-4,5,1,0,0,0,134,134,34,1,,,,,,,,
,,,,,,,,,,,,,FF,,,,,,,,0.835,,,,,,,,,,,,,,,,,,,,,,6100aad31b75bacb3595fdee,61036e0fab79b70cf7088da7,2021-07-29_23h12.40.011,Simcolourproject_2stim_asymm_v5,2020.2.10,Win32,60,61025ae37ef11b136ea224fe,,,,,,,,,3373,-50,26,1,0,0,response7disk,,1,-3,-3,1,0,0,rectangle,-3,-3,1,0,0,-3,-3,1,0,0,0,135,135,58,1,,,,,,,,
,,,,,,,,,,,,,FF,,,,,,,,1.2011,,,,,,,,,,,,,,,,,,,,,,6100aad31b75bacb3595fdee,61036e0fab79b70cf7088da7,2021-07-29_23h12.40.011,Simcolourproject_2stim_asymm_v5,2020.2.10,Win32,60,61025ae37ef11b136ea224fe,,,,,,,,,1714,113,71,1,0,0,response1disk,,6,-5,4,1,0,0,rectangle,-5,4,1,0,0,-5,4,1,0,0,0,136,136,130,1,,,,,,,,
,,,,,,,,,,,,,FF,,,,,,,,1.5508,,,,,,,,,,,,,,,,,,,,,,6100aad31b75bacb3595fdee,61036e0fab79b70cf7088da7,2021-07-29_23h12.40.011,Simcolourproject_2stim_asymm_v5,2020.2.10,Win32,60,61025ae37ef11b136ea224fe,,,,,,,,,3601,-92,-34,1,0,0,response5disk,,2,1,3,1,0,0,rectangle,1,3,1,0,0,1,3,1,0,0,0,137,137,102,1,,,,,,,,
,,,,,,,,,,,,,FF,,,,,,,,2.2612,,,,,,,,,,,,,,,,,,,,,,6100aad31b75bacb3595fdee,61036e0fab79b70cf7088da7,2021-07-29_23h12.40.011,Simcolourproject_2stim_asymm_v5,2020.2.10,Win32,60,61025ae37ef11b136ea224fe,,,,,,,,,216,-38,-59,1,0,0,response5disk,,3,-1,3,1,0,0,rectangle,-1,3,1,0,0,-1,3,1,0,0,0,138,138,18,1,,,,,,,,
,,,,,,,,,,,,,FF,,,,,,,,1.8997,,,,,,,,,,,,,,,,,,,,,,6100aad31b75bacb3595fdee,61036e0fab79b70cf7088da7,2021-07-29_23h12.40.011,Simcolourproject_2stim_asymm_v5,2020.2.10,Win32,60,61025ae37ef11b136ea224fe,,,,,,,,,1335,58,-29,1,0,0,response3disk,,5,-9,7,1,0,0,rectangle,-9,7,1,0,0,-9,7,1,0,0,0,139,139,92,1,,,,,,,,
,,,,,,,,,,,,,FF,,,,,,,,1.1514,,,,,,,,,,,,,,,,,,,,,,6100aad31b75bacb3595fdee,61036e0fab79b70cf7088da7,2021-07-29_23h12.40.011,Simcolourproject_2stim_asymm_v5,2020.2.10,Win32,60,61025ae37ef11b136ea224fe,,,,,,,,,2366,-75,-43,1,0,0,response5disk,,2,-2,4,1,0,0,rectangle,-2,4,1,0,0,-2,4,1,0,0,0,140,140,91,1,,,,,,,,
,,,,,,,,,,,,,FF,,,,,,,,1.0333,,,,,,,,,,,,,,,,,,,,,,6100aad31b75bacb3595fdee,61036e0fab79b70cf7088da7,2021-07-29_23h12.40.011,Simcolourproject_2stim_asymm_v5,2020.2.10,Win32,60,61025ae37ef11b136ea224fe,,,,,,,,,1388,-42,-64,1,0,0,response5disk,,3,-3,3,1,0,0,rectangle,37,-82,1,0,0,2,0,1,0,0,0,141,141,90,1,,response3disk_3,TRUE,4,4,"[238,53,282,276,152,266,118,142,53,65,314,89,65,56,185,158,322,146,58,105]",2.6982,rectangle
,,,,,,,,,,,,,FF,,,,,,,,1.4658,,,,,,,,,,,,,,,,,,,,,,6100aad31b75bacb3595fdee,61036e0fab79b70cf7088da7,2021-07-29_23h12.40.011,Simcolourproject_2stim_asymm_v5,2020.2.10,Win32,60,61025ae37ef11b136ea224fe,,,,,,,,,3590,38,-54,1,0,0,response3disk,,4,2,3,1,0,0,rectangle,2,3,1,0,0,2,3,1,0,0,0,142,142,21,1,,,,,,,,
,,,,,,,,,,,,,FF,,,,,,,,1.1002,,,,,,,,,,,,,,,,,,,,,,6100aad31b75bacb3595fdee,61036e0fab79b70cf7088da7,2021-07-29_23h12.40.011,Simcolourproject_2stim_asymm_v5,2020.2.10,Win32,60,61025ae37ef11b136ea224fe,,,,,,,,,3649,43,-65,1,0,0,response3disk,,4,-1,5,1,0,0,rectangle,-1,5,1,0,0,-1,5,1,0,0,0,143,143,78,1,,,,,,,,
,,,,,,,,,,,,,FF,,,,,,,,4.2979,,,,,,,,,,,,,,,,,,,,,,6100aad31b75bacb3595fdee,61036e0fab79b70cf7088da7,2021-07-29_23h12.40.011,Simcolourproject_2stim_asymm_v5,2020.2.10,Win32,60,61025ae37ef11b136ea224fe,,,,,,,,,4163,29,-66,1,0,0,response3disk,,4,-3,4,1,0,0,rectangle,-3,4,1,0,0,-3,4,1,0,0,0,144,144,67,1,,,,,,,,
,,,,,,,,,,,,,FF,,,,,,,,0.9186,,,,,,,,,,,,,,,,,,,,,,6100aad31b75bacb3595fdee,61036e0fab79b70cf7088da7,2021-07-29_23h12.40.011,Simcolourproject_2stim_asymm_v5,2020.2.10,Win32,60,61025ae37ef11b136ea224fe,,,,,,,,,502,77,-29,1,0,0,response3disk,,5,1,2,1,0,0,rectangle,-46,-90,1,0,0,1,4,1,0,0,0,145,145,157,1,,response5disk_3,TRUE,3,3,"[238,53,282,276,152,266,118,142,53,65,314,89,65,56,185,158,322,146,58,105]",2.1827,rectangle
,,,,,,,,,,,,,FF,,,,,,,,1.5155,,,,,,,,,,,,,,,,,,,,,,6100aad31b75bacb3595fdee,61036e0fab79b70cf7088da7,2021-07-29_23h12.40.011,Simcolourproject_2stim_asymm_v5,2020.2.10,Win32,60,61025ae37ef11b136ea224fe,,,,,,,,,1292,-78,-39,1,0,0,response5disk,,2,-8,1,1,0,0,rectangle,-8,1,1,0,0,-8,1,1,0,0,0,146,146,71,1,,,,,,,,
,,,,,,,,,,,,,FF,,,,,,,,0.7829,,,,,,,,,,,,,,,,,,,,,,6100aad31b75bacb3595fdee,61036e0fab79b70cf7088da7,2021-07-29_23h12.40.011,Simcolourproject_2stim_asymm_v5,2020.2.10,Win32,60,61025ae37ef11b136ea224fe,,,,,,,,,1179,72,-39,1,0,0,response3disk,,5,-3,3,1,0,0,rectangle,-3,3,1,0,0,-3,3,1,0,0,0,147,147,131,1,,,,,,,,
,,,,,,,,,,,,,FF,,,,,,,,0.8134,,,,,,,,,,,,,,,,,,,,,,6100aad31b75bacb3595fdee,61036e0fab79b70cf7088da7,2021-07-29_23h12.40.011,Simcolourproject_2stim_asymm_v5,2020.2.10,Win32,60,61025ae37ef11b136ea224fe,,,,,,,,,536,71,-27,1,0,0,response3disk,,5,-3,5,1,0,0,rectangle,-3,5,1,0,0,-3,5,1,0,0,0,148,148,0,1,,,,,,,,
,,,,,,,,,,,,,FF,,,,,,,,1.5377,,,,,,,,,,,,,,,,,,,,,,6100aad31b75bacb3595fdee,61036e0fab79b70cf7088da7,2021-07-29_23h12.40.011,Simcolourproject_2stim_asymm_v5,2020.2.10,Win32,60,61025ae37ef11b136ea224fe,,,,,,,,,4101,-35,-66,1,0,0,response5disk,,3,-2,3,1,0,0,rectangle,-2,3,1,0,0,-2,3,1,0,0,0,149,149,125,1,,,,,,,,
,,,,,,,,,,,,,FF,,,,,,,,1.5668,,,,,,,,,,,,,,,,,,,,,,6100aad31b75bacb3595fdee,61036e0fab79b70cf7088da7,2021-07-29_23h12.40.011,Simcolourproject_2stim_asymm_v5,2020.2.10,Win32,60,61025ae37ef11b136ea224fe,,,,,,,,,3197,-73,-44,1,0,0,response5disk,,2,-5,4,1,0,0,rectangle,-5,4,1,0,0,-5,4,1,0,0,0,150,150,61,1,,,,,,,,
,,,,,,,,,,,,,FF,,,,,,,,0.7325,,,,,,,,,,,,,,,,,,,,,,6100aad31b75bacb3595fdee,61036e0fab79b70cf7088da7,2021-07-29_23h12.40.011,Simcolourproject_2stim_asymm_v5,2020.2.10,Win32,60,61025ae37ef11b136ea224fe,,,,,,,,,3670,-56,32,1,0,0,response7disk,,1,2,2,1,0,0,rectangle,-34,68,1,0,0,0,6,1,0,0,0,151,151,146,1,,response7disk_3,TRUE,0,0,"[238,53,282,276,152,266,118,142,53,65,314,89,65,56,185,158,322,146,58,105]",1.4669,rectangle
,,,,,,,,,,,,,FF,,,,,,,,1.2351,,,,,,,,,,,,,,,,,,,,,,6100aad31b75bacb3595fdee,61036e0fab79b70cf7088da7,2021-07-29_23h12.40.011,Simcolourproject_2stim_asymm_v5,2020.2.10,Win32,60,61025ae37ef11b136ea224fe,,,,,,,,,1796,63,-29,1,0,0,response3disk,,5,-6,4,1,0,0,rectangle,-6,4,1,0,0,-6,4,1,0,0,0,152,152,68,1,,,,,,,,
,,,,,,,,,,,,,FF,,,,,,,,2.7829,,,,,,,,,,,,,,,,,,,,,,6100aad31b75bacb3595fdee,61036e0fab79b70cf7088da7,2021-07-29_23h12.40.011,Simcolourproject_2stim_asymm_v5,2020.2.10,Win32,60,61025ae37ef11b136ea224fe,,,,,,,,,2325,18,-67,1,0,0,response3disk,,4,0,0,1,0,0,rectangle,0,0,1,0,0,0,0,1,0,0,0,153,153,30,1,,,,,,,,
,,,,,,,,,,,,,FF,,,,,,,,1.7986,,,,,,,,,,,,,,,,,,,,,,6100aad31b75bacb3595fdee,61036e0fab79b70cf7088da7,2021-07-29_23h12.40.011,Simcolourproject_2stim_asymm_v5,2020.2.10,Win32,60,61025ae37ef11b136ea224fe,,,,,,,,,1115,-35,-64,1,0,0,response5disk,,3,1,9,1,0,0,rectangle,1,9,1,0,0,1,9,1,0,0,0,154,154,112,1,,,,,,,,
,,,,,,,,,,,,,FF,,,,,,,,0.9997,,,,,,,,,,,,,,,,,,,,,,6100aad31b75bacb3595fdee,61036e0fab79b70cf7088da7,2021-07-29_23h12.40.011,Simcolourproject_2stim_asymm_v5,2020.2.10,Win32,60,61025ae37ef11b136ea224fe,,,,,,,,,2627,50,-59,1,0,0,response3disk,,4,3,5,1,0,0,rectangle,3,5,1,0,0,3,5,1,0,0,0,155,155,59,1,,,,,,,,
,,,,,,,,,,,,,FF,,,,,,,,1.5179,,,,,,,,,,,,,,,,,,,,,,6100aad31b75bacb3595fdee,61036e0fab79b70cf7088da7,2021-07-29_23h12.40.011,Simcolourproject_2stim_asymm_v5,2020.2.10,Win32,60,61025ae37ef11b136ea224fe,,,,,,,,,3583,-38,-74,1,0,0,response5disk,,3,2,8,1,0,0,rectangle,2,8,1,0,0,2,8,1,0,0,0,156,156,127,1,,,,,,,,
,,,,,,,,,,,,,FF,,,,,,,,0.9511,,,,,,,,,,,,,,,,,,,,,,6100aad31b75bacb3595fdee,61036e0fab79b70cf7088da7,2021-07-29_23h12.40.011,Simcolourproject_2stim_asymm_v5,2020.2.10,Win32,60,61025ae37ef11b136ea224fe,,,,,,,,,2173,-82,48,1,0,0,response7disk,,1,-3,0,1,0,0,rectangle,-67,35,1,0,0,-4,-2,1,0,0,0,157,157,111,1,,response7disk_3,TRUE,1,1,"[238,53,282,276,152,266,118,142,53,65,314,89,65,56,185,158,322,146,58,105]",1.5822,rectangle
,,,,,,,,,,,,,FF,,,,,,,,0.9342,,,,,,,,,,,,,,,,,,,,,,6100aad31b75bacb3595fdee,61036e0fab79b70cf7088da7,2021-07-29_23h12.40.011,Simcolourproject_2stim_asymm_v5,2020.2.10,Win32,60,61025ae37ef11b136ea224fe,,,,,,,,,2764,91,-41,1,0,0,response3disk,,5,-3,-1,1,0,0,rectangle,-3,-1,1,0,0,-3,-1,1,0,0,0,158,158,87,1,,,,,,,,
,,,,,,,,,,,,,FF,,,,,,,,1.0506,,,,,,,,,,,,,,,,,,,,,,6100aad31b75bacb3595fdee,61036e0fab79b70cf7088da7,2021-07-29_23h12.40.011,Simcolourproject_2stim_asymm_v5,2020.2.10,Win32,60,61025ae37ef11b136ea224fe,,,,,,,,,1180,60,-33,1,0,0,response3disk,,5,-3,1,1,0,0,rectangle,-3,1,1,0,0,-3,1,1,0,0,0,159,159,137,1,,,,,,,,
,,,,,,,,,,,,,FF,,,,,,,,0.8173,,,,,,,,,,,,,,,,,,,,,,6100aad31b75bacb3595fdee,61036e0fab79b70cf7088da7,2021-07-29_23h12.40.011,Simcolourproject_2stim_asymm_v5,2020.2.10,Win32,60,61025ae37ef11b136ea224fe,,,,,,,,,1703,99,-30,1,0,0,response3disk,,5,-4,8,1,0,0,rectangle,-4,8,1,0,0,-4,8,1,0,0,1,0,160,60,1,,,,,,,,
,,,,,,,,,,,,,FF,,,,,,,,1.1668,,,,,,,,,,,,,,,,,,,,,,6100aad31b75bacb3595fdee,61036e0fab79b70cf7088da7,2021-07-29_23h12.40.011,Simcolourproject_2stim_asymm_v5,2020.2.10,Win32,60,61025ae37ef11b136ea224fe,,,,,,,,,3342,-52,-79,1,0,0,response5disk,,3,9,5,1,0,0,rectangle,9,5,1,0,0,9,5,1,0,0,1,1,161,128,1,,,,,,,,
,,,,,,,,,,,,,FF,,,,,,,,0.7165,,,,,,,,,,,,,,,,,,,,,,6100aad31b75bacb3595fdee,61036e0fab79b70cf7088da7,2021-07-29_23h12.40.011,Simcolourproject_2stim_asymm_v5,2020.2.10,Win32,60,61025ae37ef11b136ea224fe,,,,,,,,,1602,-77,42,1,0,0,response7disk,,1,-11,-8,1,0,0,rectangle,-11,-8,1,0,0,-11,-8,1,0,0,1,2,162,134,1,,,,,,,,
,,,,,,,,,,,,,FF,,,,,,,,0.7556,,,,,,,,,,,,,,,,,,,,,,6100aad31b75bacb3595fdee,61036e0fab79b70cf7088da7,2021-07-29_23h12.40.011,Simcolourproject_2stim_asymm_v5,2020.2.10,Win32,60,61025ae37ef11b136ea224fe,,,,,,,,,3149,-54,23,1,0,0,response7disk,,1,4,-4,1,0,0,rectangle,4,-4,1,0,0,4,-4,1,0,0,1,3,163,68,1,,,,,,,,
,,,,,,,,,,,,,FF,,,,,,,,1.1493,,,,,,,,,,,,,,,,,,,,,,6100aad31b75bacb3595fdee,61036e0fab79b70cf7088da7,2021-07-29_23h12.40.011,Simcolourproject_2stim_asymm_v5,2020.2.10,Win32,60,61025ae37ef11b136ea224fe,,,,,,,,,2311,50,-32,1,0,0,response3disk,,5,-2,1,1,0,0,rectangle,-2,1,1,0,0,-2,1,1,0,0,1,4,164,153,1,,,,,,,,
,,,,,,,,,,,,,FF,,,,,,,,1.0329,,,,,,,,,,,,,,,,,,,,,,6100aad31b75bacb3595fdee,61036e0fab79b70cf7088da7,2021-07-29_23h12.40.011,Simcolourproject_2stim_asymm_v5,2020.2.10,Win32,60,61025ae37ef11b136ea224fe,,,,,,,,,2870,74,-32,1,0,0,response3disk,,5,1,10,1,0,0,rectangle,1,10,1,0,0,1,10,1,0,0,1,5,165,77,1,,,,,,,,
,,,,,,,,,,,,,FF,,,,,,,,0.8377,,,,,,,,,,,,,,,,,,,,,,6100aad31b75bacb3595fdee,61036e0fab79b70cf7088da7,2021-07-29_23h12.40.011,Simcolourproject_2stim_asymm_v5,2020.2.10,Win32,60,61025ae37ef11b136ea224fe,,,,,,,,,4058,-29,-38,1,0,0,response5disk,,3,0,3,1,0,0,rectangle,0,3,1,0,0,0,3,1,0,0,1,6,166,79,1,,,,,,,,
,,,,,,,,,,,,,FF,,,,,,,,0.9192,,,,,,,,,,,,,,,,,,,,,,6100aad31b75bacb3595fdee,61036e0fab79b70cf7088da7,2021-07-29_23h12.40.011,Simcolourproject_2stim_asymm_v5,2020.2.10,Win32,60,61025ae37ef11b136ea224fe,,,,,,,,,3994,-23,-39,1,0,0,response5disk,,3,0,2,1,0,0,rectangle,0,2,1,0,0,0,2,1,0,0,1,7,167,106,1,,,,,,,,
,,,,,,,,,,,,,FF,,,,,,,,0.8549,,,,,,,,,,,,,,,,,,,,,,6100aad31b75bacb3595fdee,61036e0fab79b70cf7088da7,2021-07-29_23h12.40.011,Simcolourproject_2stim_asymm_v5,2020.2.10,Win32,60,61025ae37ef11b136ea224fe,,,,,,,,,3248,-38,-57,1,0,0,response5disk,,3,-1,4,1,0,0,rectangle,-1,4,1,0,0,-1,4,1,0,0,1,8,168,101,1,,,,,,,,
,,,,,,,,,,,,,FF,,,,,,,,0.9174,,,,,,,,,,,,,,,,,,,,,,6100aad31b75bacb3595fdee,61036e0fab79b70cf7088da7,2021-07-29_23h12.40.011,Simcolourproject_2stim_asymm_v5,2020.2.10,Win32,60,61025ae37ef11b136ea224fe,,,,,,,,,474,112,-48,1,0,0,response3disk,,5,-9,11,1,0,0,rectangle,-9,11,1,0,0,-9,11,1,0,0,1,9,169,59,1,,,,,,,,
,,,,,,,,,,,,,FF,,,,,,,,1.0155,,,,,,,,,,,,,,,,,,,,,,6100aad31b75bacb3595fdee,61036e0fab79b70cf7088da7,2021-07-29_23h12.40.011,Simcolourproject_2stim_asymm_v5,2020.2.10,Win32,60,61025ae37ef11b136ea224fe,,,,,,,,,3903,64,-38,1,0,0,response3disk,,5,-4,3,1,0,0,rectangle,-4,3,1,0,0,-4,3,1,0,0,1,10,170,158,1,,,,,,,,
,,,,,,,,,,,,,FF,,,,,,,,0.8002,,,,,,,,,,,,,,,,,,,,,,6100aad31b75bacb3595fdee,61036e0fab79b70cf7088da7,2021-07-29_23h12.40.011,Simcolourproject_2stim_asymm_v5,2020.2.10,Win32,60,61025ae37ef11b136ea224fe,,,,,,,,,3178,55,41,1,0,0,response1disk,,6,-4,-4,1,0,0,rectangle,-4,-4,1,0,0,-4,-4,1,0,0,1,11,171,152,1,,,,,,,,
,,,,,,,,,,,,,FF,,,,,,,,0.8173,,,,,,,,,,,,,,,,,,,,,,6100aad31b75bacb3595fdee,61036e0fab79b70cf7088da7,2021-07-29_23h12.40.011,Simcolourproject_2stim_asymm_v5,2020.2.10,Win32,60,61025ae37ef11b136ea224fe,,,,,,,,,2262,53,26,1,0,0,response1disk,,6,-2,4,1,0,0,rectangle,-2,4,1,0,0,-2,4,1,0,0,1,12,172,83,1,,,,,,,,
,,,,,,,,,,,,,FF,,,,,,,,1.5675,,,,,,,,,,,,,,,,,,,,,,6100aad31b75bacb3595fdee,61036e0fab79b70cf7088da7,2021-07-29_23h12.40.011,Simcolourproject_2stim_asymm_v5,2020.2.10,Win32,60,61025ae37ef11b136ea224fe,,,,,,,,,2216,-29,-68,1,0,0,response5disk,,3,2,2,1,0,0,rectangle,2,2,1,0,0,2,2,1,0,0,1,13,173,56,1,,,,,,,,
,,,,,,,,,,,,,FF,,,,,,,,1.4501,,,,,,,,,,,,,,,,,,,,,,6100aad31b75bacb3595fdee,61036e0fab79b70cf7088da7,2021-07-29_23h12.40.011,Simcolourproject_2stim_asymm_v5,2020.2.10,Win32,60,61025ae37ef11b136ea224fe,,,,,,,,,2156,85,-35,1,0,0,response3disk,,5,-1,1,1,0,0,rectangle,-1,1,1,0,0,-1,1,1,0,0,1,14,174,15,1,,,,,,,,
,,,,,,,,,,,,,FF,,,,,,,,1.2004,,,,,,,,,,,,,,,,,,,,,,6100aad31b75bacb3595fdee,61036e0fab79b70cf7088da7,2021-07-29_23h12.40.011,Simcolourproject_2stim_asymm_v5,2020.2.10,Win32,60,61025ae37ef11b136ea224fe,,,,,,,,,1839,62,-34,1,0,0,response3disk,,5,-2,2,1,0,0,rectangle,-2,2,1,0,0,-2,2,1,0,0,1,15,175,17,1,,,,,,,,
,,,,,,,,,,,,,FF,,,,,,,,0.867,,,,,,,,,,,,,,,,,,,,,,6100aad31b75bacb3595fdee,61036e0fab79b70cf7088da7,2021-07-29_23h12.40.011,Simcolourproject_2stim_asymm_v5,2020.2.10,Win32,60,61025ae37ef11b136ea224fe,,,,,,,,,830,63,-27,1,0,0,response3disk,,5,-3,6,1,0,0,rectangle,-3,6,1,0,0,-3,6,1,0,0,1,16,176,114,1,,,,,,,,
,,,,,,,,,,,,,FF,,,,,,,,3.5542,,,,,,,,,,,,,,,,,,,,,,6100aad31b75bacb3595fdee,61036e0fab79b70cf7088da7,2021-07-29_23h12.40.011,Simcolourproject_2stim_asymm_v5,2020.2.10,Win32,60,61025ae37ef11b136ea224fe,,,,,,,,,564,-35,-61,1,0,0,response5disk,,3,7,3,1,0,0,rectangle,7,3,1,0,0,7,3,1,0,0,1,17,177,66,1,,,,,,,,
,,,,,,,,,,,,,FF,,,,,,,,0.899,,,,,,,,,,,,,,,,,,,,,,6100aad31b75bacb3595fdee,61036e0fab79b70cf7088da7,2021-07-29_23h12.40.011,Simcolourproject_2stim_asymm_v5,2020.2.10,Win32,60,61025ae37ef11b136ea224fe,,,,,,,,,136,70,-42,1,0,0,response3disk,,5,-4,2,1,0,0,rectangle,-4,2,1,0,0,-4,2,1,0,0,1,18,178,32,1,,,,,,,,
,,,,,,,,,,,,,FF,,,,,,,,0.8338,,,,,,,,,,,,,,,,,,,,,,6100aad31b75bacb3595fdee,61036e0fab79b70cf7088da7,2021-07-29_23h12.40.011,Simcolourproject_2stim_asymm_v5,2020.2.10,Win32,60,61025ae37ef11b136ea224fe,,,,,,,,,3049,-74,-46,1,0,0,response5disk,,2,0,1,1,0,0,rectangle,0,1,1,0,0,0,1,1,0,0,1,19,179,8,1,,,,,,,,
,,,,,,,,,,,,,FF,,,,,,,,3.782,,,,,,,,,,,,,,,,,,,,,,6100aad31b75bacb3595fdee,61036e0fab79b70cf7088da7,2021-07-29_23h12.40.011,Simcolourproject_2stim_asymm_v5,2020.2.10,Win32,60,61025ae37ef11b136ea224fe,,,,,,,,,777,51,-79,1,0,0,response3disk,,4,-12,15,1,0,0,rectangle,-12,15,1,0,0,-12,15,1,0,0,1,20,180,0,1,,,,,,,,
,,,,,,,,,,,,,FF,,,,,,,,1.5663,,,,,,,,,,,,,,,,,,,,,,6100aad31b75bacb3595fdee,61036e0fab79b70cf7088da7,2021-07-29_23h12.40.011,Simcolourproject_2stim_asymm_v5,2020.2.10,Win32,60,61025ae37ef11b136ea224fe,,,,,,,,,2614,65,-39,1,0,0,response3disk,,5,-5,4,1,0,0,rectangle,-5,4,1,0,0,-5,4,1,0,0,1,21,181,27,1,,,,,,,,
,,,,,,,,,,,,,FF,,,,,,,,1.2171,,,,,,,,,,,,,,,,,,,,,,6100aad31b75bacb3595fdee,61036e0fab79b70cf7088da7,2021-07-29_23h12.40.011,Simcolourproject_2stim_asymm_v5,2020.2.10,Win32,60,61025ae37ef11b136ea224fe,,,,,,,,,4060,-31,-62,1,0,0,response5disk,,3,0,-1,1,0,0,rectangle,0,-1,1,0,0,0,-1,1,0,0,1,22,182,39,1,,,,,,,,
,,,,,,,,,,,,,FF,,,,,,,,1.1843,,,,,,,,,,,,,,,,,,,,,,6100aad31b75bacb3595fdee,61036e0fab79b70cf7088da7,2021-07-29_23h12.40.011,Simcolourproject_2stim_asymm_v5,2020.2.10,Win32,60,61025ae37ef11b136ea224fe,,,,,,,,,1082,89,-31,1,0,0,response3disk,,5,-1,1,1,0,0,rectangle,-1,1,1,0,0,-1,1,1,0,0,1,23,183,87,1,,,,,,,,
,,,,,,,,,,,,,FF,,,,,,,,0.9173,,,,,,,,,,,,,,,,,,,,,,6100aad31b75bacb3595fdee,61036e0fab79b70cf7088da7,2021-07-29_23h12.40.011,Simcolourproject_2stim_asymm_v5,2020.2.10,Win32,60,61025ae37ef11b136ea224fe,,,,,,,,,2168,-62,-31,1,0,0,response5disk,,2,-2,-1,1,0,0,rectangle,-32,-84,1,0,0,0,1,1,0,0,1,24,184,110,1,,response5disk_3,TRUE,3,3,"[238,53,282,276,152,266,118,142,53,65,314,89,65,56,185,158,322,146,58,105]",2.3008,rectangle
,,,,,,,,,,,,,FF,,,,,,,,2.0835,,,,,,,,,,,,,,,,,,,,,,6100aad31b75bacb3595fdee,61036e0fab79b70cf7088da7,2021-07-29_23h12.40.011,Simcolourproject_2stim_asymm_v5,2020.2.10,Win32,60,61025ae37ef11b136ea224fe,,,,,,,,,4033,-81,-42,1,0,0,response5disk,,2,-3,0,1,0,0,rectangle,-3,0,1,0,0,-3,0,1,0,0,1,25,185,133,1,,,,,,,,
,,,,,,,,,,,,,FF,,,,,,,,0.8675,,,,,,,,,,,,,,,,,,,,,,6100aad31b75bacb3595fdee,61036e0fab79b70cf7088da7,2021-07-29_23h12.40.011,Simcolourproject_2stim_asymm_v5,2020.2.10,Win32,60,61025ae37ef11b136ea224fe,,,,,,,,,2137,62,-24,1,0,0,response3disk,,5,-2,-2,1,0,0,rectangle,-2,-2,1,0,0,-2,-2,1,0,0,1,26,186,62,1,,,,,,,,
,,,,,,,,,,,,,FF,,,,,,,,0.8508,,,,,,,,,,,,,,,,,,,,,,6100aad31b75bacb3595fdee,61036e0fab79b70cf7088da7,2021-07-29_23h12.40.011,Simcolourproject_2stim_asymm_v5,2020.2.10,Win32,60,61025ae37ef11b136ea224fe,,,,,,,,,854,70,-37,1,0,0,response3disk,,5,-3,-3,1,0,0,rectangle,-3,-3,1,0,0,-3,-3,1,0,0,1,27,187,20,1,,,,,,,,
,,,,,,,,,,,,,FF,,,,,,,,0.866,,,,,,,,,,,,,,,,,,,,,,6100aad31b75bacb3595fdee,61036e0fab79b70cf7088da7,2021-07-29_23h12.40.011,Simcolourproject_2stim_asymm_v5,2020.2.10,Win32,60,61025ae37ef11b136ea224fe,,,,,,,,,386,24,-64,1,0,0,response3disk,,4,15,1,1,0,0,rectangle,15,1,1,0,0,15,1,1,0,0,1,28,188,81,1,,,,,,,,
,,,,,,,,,,,,,FF,,,,,,,,0.8011,,,,,,,,,,,,,,,,,,,,,,6100aad31b75bacb3595fdee,61036e0fab79b70cf7088da7,2021-07-29_23h12.40.011,Simcolourproject_2stim_asymm_v5,2020.2.10,Win32,60,61025ae37ef11b136ea224fe,,,,,,,,,3309,111,-38,1,0,0,response3disk,,5,-5,4,1,0,0,rectangle,-5,4,1,0,0,-5,4,1,0,0,1,29,189,116,1,,,,,,,,
,,,,,,,,,,,,,FF,,,,,,,,0.6367,,,,,,,,,,,,,,,,,,,,,,6100aad31b75bacb3595fdee,61036e0fab79b70cf7088da7,2021-07-29_23h12.40.011,Simcolourproject_2stim_asymm_v5,2020.2.10,Win32,60,61025ae37ef11b136ea224fe,,,,,,,,,1919,56,33,1,0,0,response1disk,,6,-3,-5,1,0,0,rectangle,-3,-5,1,0,0,-3,-5,1,0,0,1,30,190,13,1,,,,,,,,
,,,,,,,,,,,,,FF,,,,,,,,0.9015,,,,,,,,,,,,,,,,,,,,,,6100aad31b75bacb3595fdee,61036e0fab79b70cf7088da7,2021-07-29_23h12.40.011,Simcolourproject_2stim_asymm_v5,2020.2.10,Win32,60,61025ae37ef11b136ea224fe,,,,,,,,,4294,-79,-31,1,0,0,response5disk,,2,3,4,1,0,0,rectangle,3,4,1,0,0,3,4,1,0,0,1,31,191,100,1,,,,,,,,
,,,,,,,,,,,,,FF,,,,,,,,1.4213,,,,,,,,,,,,,,,,,,,,,,6100aad31b75bacb3595fdee,61036e0fab79b70cf7088da7,2021-07-29_23h12.40.011,Simcolourproject_2stim_asymm_v5,2020.2.10,Win32,60,61025ae37ef11b136ea224fe,,,,,,,,,2456,56,31,1,0,0,response1disk,,6,3,3,1,0,0,rectangle,3,3,1,0,0,3,3,1,0,0,1,32,192,108,1,,,,,,,,
,,,,,,,,,,,,,FF,,,,,,,,1.4166,,,,,,,,,,,,,,,,,,,,,,6100aad31b75bacb3595fdee,61036e0fab79b70cf7088da7,2021-07-29_23h12.40.011,Simcolourproject_2stim_asymm_v5,2020.2.10,Win32,60,61025ae37ef11b136ea224fe,,,,,,,,,4010,57,27,1,0,0,response1disk,,6,1,0,1,0,0,rectangle,1,0,1,0,0,1,0,1,0,0,1,33,193,107,1,,,,,,,,
,,,,,,,,,,,,,FF,,,,,,,,0.8495,,,,,,,,,,,,,,,,,,,,,,6100aad31b75bacb3595fdee,61036e0fab79b70cf7088da7,2021-07-29_23h12.40.011,Simcolourproject_2stim_asymm_v5,2020.2.10,Win32,60,61025ae37ef11b136ea224fe,,,,,,,,,1493,58,24,1,0,0,response1disk,,6,-5,-3,1,0,0,rectangle,-5,-3,1,0,0,-5,-3,1,0,0,1,34,194,54,1,,,,,,,,
,,,,,,,,,,,,,FF,,,,,,,,0.9508,,,,,,,,,,,,,,,,,,,,,,6100aad31b75bacb3595fdee,61036e0fab79b70cf7088da7,2021-07-29_23h12.40.011,Simcolourproject_2stim_asymm_v5,2020.2.10,Win32,60,61025ae37ef11b136ea224fe,,,,,,,,,1828,-87,43,1,0,0,response7disk,,1,-5,1,1,0,0,rectangle,-5,1,1,0,0,-5,1,1,0,0,1,35,195,86,1,,,,,,,,
,,,,,,,,,,,,,FF,,,,,,,,0.8007,,,,,,,,,,,,,,,,,,,,,,6100aad31b75bacb3595fdee,61036e0fab79b70cf7088da7,2021-07-29_23h12.40.011,Simcolourproject_2stim_asymm_v5,2020.2.10,Win32,60,61025ae37ef11b136ea224fe,,,,,,,,,355,-58,24,1,0,0,response7disk,,1,9,4,1,0,0,rectangle,9,4,1,0,0,9,4,1,0,0,1,36,196,129,1,,,,,,,,
,,,,,,,,,,,,,FF,,,,,,,,0.834,,,,,,,,,,,,,,,,,,,,,,6100aad31b75bacb3595fdee,61036e0fab79b70cf7088da7,2021-07-29_23h12.40.011,Simcolourproject_2stim_asymm_v5,2020.2.10,Win32,60,61025ae37ef11b136ea224fe,,,,,,,,,766,63,-23,1,0,0,response3disk,,5,-1,2,1,0,0,rectangle,-1,2,1,0,0,-1,2,1,0,0,1,37,197,37,1,,,,,,,,
,,,,,,,,,,,,,FF,,,,,,,,0.949,,,,,,,,,,,,,,,,,,,,,,6100aad31b75bacb3595fdee,61036e0fab79b70cf7088da7,2021-07-29_23h12.40.011,Simcolourproject_2stim_asymm_v5,2020.2.10,Win32,60,61025ae37ef11b136ea224fe,,,,,,,,,3761,57,-20,1,0,0,response3disk,,5,0,-3,1,0,0,rectangle,0,-3,1,0,0,0,-3,1,0,0,1,38,198,63,1,,,,,,,,
,,,,,,,,,,,,,FF,,,,,,,,0.7526,,,,,,,,,,,,,,,,,,,,,,6100aad31b75bacb3595fdee,61036e0fab79b70cf7088da7,2021-07-29_23h12.40.011,Simcolourproject_2stim_asymm_v5,2020.2.10,Win32,60,61025ae37ef11b136ea224fe,,,,,,,,,3449,44,-22,1,0,0,response3disk,,5,-10,12,1,0,0,rectangle,-10,12,1,0,0,-10,12,1,0,0,1,39,199,85,1,,,,,,,,
,,,,,,,,,,,,,FF,,,,,,,,0.7176,,,,,,,,,,,,,,,,,,,,,,6100aad31b75bacb3595fdee,61036e0fab79b70cf7088da7,2021-07-29_23h12.40.011,Simcolourproject_2stim_asymm_v5,2020.2.10,Win32,60,61025ae37ef11b136ea224fe,,,,,,,,,4019,80,-37,1,0,0,response3disk,,5,-1,6,1,0,0,rectangle,-1,6,1,0,0,-1,6,1,0,0,1,40,200,41,1,,,,,,,,
,,,,,,,,,,,,,FF,,,,,,,,1.1832,,,,,,,,,,,,,,,,,,,,,,6100aad31b75bacb3595fdee,61036e0fab79b70cf7088da7,2021-07-29_23h12.40.011,Simcolourproject_2stim_asymm_v5,2020.2.10,Win32,60,61025ae37ef11b136ea224fe,,,,,,,,,3059,-81,-41,1,0,0,response5disk,,2,2,10,1,0,0,rectangle,2,10,1,0,0,2,10,1,0,0,1,41,201,105,1,,,,,,,,
,,,,,,,,,,,,,FF,,,,,,,,0.8171,,,,,,,,,,,,,,,,,,,,,,6100aad31b75bacb3595fdee,61036e0fab79b70cf7088da7,2021-07-29_23h12.40.011,Simcolourproject_2stim_asymm_v5,2020.2.10,Win32,60,61025ae37ef11b136ea224fe,,,,,,,,,1454,-67,35,1,0,0,response7disk,,1,1,7,1,0,0,rectangle,1,7,1,0,0,1,7,1,0,0,1,42,202,76,1,,,,,,,,
,,,,,,,,,,,,,FF,,,,,,,,1.3498,,,,,,,,,,,,,,,,,,,,,,6100aad31b75bacb3595fdee,61036e0fab79b70cf7088da7,2021-07-29_23h12.40.011,Simcolourproject_2stim_asymm_v5,2020.2.10,Win32,60,61025ae37ef11b136ea224fe,,,,,,,,,1519,74,-44,1,0,0,response3disk,,5,1,8,1,0,0,rectangle,1,8,1,0,0,1,8,1,0,0,1,43,203,71,1,,,,,,,,
,,,,,,,,,,,,,FF,,,,,,,,0.9494,,,,,,,,,,,,,,,,,,,,,,6100aad31b75bacb3595fdee,61036e0fab79b70cf7088da7,2021-07-29_23h12.40.011,Simcolourproject_2stim_asymm_v5,2020.2.10,Win32,60,61025ae37ef11b136ea224fe,,,,,,,,,1356,54,-18,1,0,0,response3disk,,5,-1,9,1,0,0,rectangle,-1,9,1,0,0,-1,9,1,0,0,1,44,204,78,1,,,,,,,,
,,,,,,,,,,,,,FF,,,,,,,,0.7171,,,,,,,,,,,,,,,,,,,,,,6100aad31b75bacb3595fdee,61036e0fab79b70cf7088da7,2021-07-29_23h12.40.011,Simcolourproject_2stim_asymm_v5,2020.2.10,Win32,60,61025ae37ef11b136ea224fe,,,,,,,,,0,-64,42,1,0,0,response7disk,,1,2,-1,1,0,0,rectangle,2,-1,1,0,0,2,-1,1,0,0,1,45,205,7,1,,,,,,,,
,,,,,,,,,,,,,FF,,,,,,,,0.8839,,,,,,,,,,,,,,,,,,,,,,6100aad31b75bacb3595fdee,61036e0fab79b70cf7088da7,2021-07-29_23h12.40.011,Simcolourproject_2stim_asymm_v5,2020.2.10,Win32,60,61025ae37ef11b136ea224fe,,,,,,,,,278,-57,36,1,0,0,response7disk,,1,-2,2,1,0,0,rectangle,-2,2,1,0,0,-2,2,1,0,0,1,46,206,144,1,,,,,,,,
,,,,,,,,,,,,,FF,,,,,,,,0.8171,,,,,,,,,,,,,,,,,,,,,,6100aad31b75bacb3595fdee,61036e0fab79b70cf7088da7,2021-07-29_23h12.40.011,Simcolourproject_2stim_asymm_v5,2020.2.10,Win32,60,61025ae37ef11b136ea224fe,,,,,,,,,2399,71,36,1,0,0,response1disk,,6,-4,1,1,0,0,rectangle,-4,1,1,0,0,-4,1,1,0,0,1,47,207,47,1,,,,,,,,
,,,,,,,,,,,,,FF,,,,,,,,0.919,,,,,,,,,,,,,,,,,,,,,,6100aad31b75bacb3595fdee,61036e0fab79b70cf7088da7,2021-07-29_23h12.40.011,Simcolourproject_2stim_asymm_v5,2020.2.10,Win32,60,61025ae37ef11b136ea224fe,,,,,,,,,2230,-83,36,1,0,0,response7disk,,1,1,4,1,0,0,rectangle,1,4,1,0,0,1,4,1,0,0,1,48,208,31,1,,,,,,,,
,,,,,,,,,,,,,FF,,,,,,,,1.0829,,,,,,,,,,,,,,,,,,,,,,6100aad31b75bacb3595fdee,61036e0fab79b70cf7088da7,2021-07-29_23h12.40.011,Simcolourproject_2stim_asymm_v5,2020.2.10,Win32,60,61025ae37ef11b136ea224fe,,,,,,,,,3732,45,99,1,0,0,response1disk,,7,0,5,1,0,0,rectangle,0,5,1,0,0,0,5,1,0,0,1,49,209,92,1,,,,,,,,
,,,,,,,,,,,,,FF,,,,,,,,0.8457,,,,,,,,,,,,,,,,,,,,,,6100aad31b75bacb3595fdee,61036e0fab79b70cf7088da7,2021-07-29_23h12.40.011,Simcolourproject_2stim_asymm_v5,2020.2.10,Win32,60,61025ae37ef11b136ea224fe,,,,,,,,,3927,37,83,1,0,0,response1disk,,7,0,3,1,0,0,rectangle,0,3,1,0,0,0,3,1,0,0,1,50,210,136,1,,,,,,,,
,,,,,,,,,,,,,FF,,,,,,,,1.5511,,,,,,,,,,,,,,,,,,,,,,6100aad31b75bacb3595fdee,61036e0fab79b70cf7088da7,2021-07-29_23h12.40.011,Simcolourproject_2stim_asymm_v5,2020.2.10,Win32,60,61025ae37ef11b136ea224fe,,,,,,,,,1943,49,-20,1,0,0,response3disk,,5,-3,4,1,0,0,rectangle,-3,4,1,0,0,-3,4,1,0,0,1,51,211,154,1,,,,,,,,
,,,,,,,,,,,,,FF,,,,,,,,0.8805,,,,,,,,,,,,,,,,,,,,,,6100aad31b75bacb3595fdee,61036e0fab79b70cf7088da7,2021-07-29_23h12.40.011,Simcolourproject_2stim_asymm_v5,2020.2.10,Win32,60,61025ae37ef11b136ea224fe,,,,,,,,,1989,42,-16,1,0,0,response3disk,,5,-5,11,1,0,0,rectangle,-5,11,1,0,0,-5,11,1,0,0,1,52,212,16,1,,,,,,,,
,,,,,,,,,,,,,FF,,,,,,,,0.7512,,,,,,,,,,,,,,,,,,,,,,6100aad31b75bacb3595fdee,61036e0fab79b70cf7088da7,2021-07-29_23h12.40.011,Simcolourproject_2stim_asymm_v5,2020.2.10,Win32,60,61025ae37ef11b136ea224fe,,,,,,,,,1804,47,-16,1,0,0,response3disk,,5,8,6,1,0,0,rectangle,8,6,1,0,0,8,6,1,0,0,1,53,213,18,1,,,,,,,,
,,,,,,,,,,,,,FF,,,,,,,,0.8015,,,,,,,,,,,,,,,,,,,,,,6100aad31b75bacb3595fdee,61036e0fab79b70cf7088da7,2021-07-29_23h12.40.011,Simcolourproject_2stim_asymm_v5,2020.2.10,Win32,60,61025ae37ef11b136ea224fe,,,,,,,,,316,56,-24,1,0,0,response3disk,,5,5,5,1,0,0,rectangle,5,5,1,0,0,5,5,1,0,0,1,54,214,151,1,,,,,,,,
,,,,,,,,,,,,,FF,,,,,,,,0.8501,,,,,,,,,,,,,,,,,,,,,,6100aad31b75bacb3595fdee,61036e0fab79b70cf7088da7,2021-07-29_23h12.40.011,Simcolourproject_2stim_asymm_v5,2020.2.10,Win32,60,61025ae37ef11b136ea224fe,,,,,,,,,4021,-78,35,1,0,0,response7disk,,1,-6,4,1,0,0,rectangle,-6,4,1,0,0,-6,4,1,0,0,1,55,215,111,1,,,,,,,,
,,,,,,,,,,,,,FF,,,,,,,,0.8002,,,,,,,,,,,,,,,,,,,,,,6100aad31b75bacb3595fdee,61036e0fab79b70cf7088da7,2021-07-29_23h12.40.011,Simcolourproject_2stim_asymm_v5,2020.2.10,Win32,60,61025ae37ef11b136ea224fe,,,,,,,,,3157,-64,21,1,0,0,response7disk,,1,5,1,1,0,0,rectangle,5,1,1,0,0,5,1,1,0,0,1,56,216,123,1,,,,,,,,
,,,,,,,,,,,,,FF,,,,,,,,0.9506,,,,,,,,,,,,,,,,,,,,,,6100aad31b75bacb3595fdee,61036e0fab79b70cf7088da7,2021-07-29_23h12.40.011,Simcolourproject_2stim_asymm_v5,2020.2.10,Win32,60,61025ae37ef11b136ea224fe,,,,,,,,,1420,73,-34,1,0,0,response3disk,,5,2,3,1,0,0,rectangle,2,3,1,0,0,2,3,1,0,0,1,57,217,72,1,,,,,,,,
,,,,,,,,,,,,,FF,,,,,,,,0.8333,,,,,,,,,,,,,,,,,,,,,,6100aad31b75bacb3595fdee,61036e0fab79b70cf7088da7,2021-07-29_23h12.40.011,Simcolourproject_2stim_asymm_v5,2020.2.10,Win32,60,61025ae37ef11b136ea224fe,,,,,,,,,2693,58,26,1,0,0,response1disk,,6,-6,-4,1,0,0,rectangle,-6,-4,1,0,0,-6,-4,1,0,0,1,58,218,99,1,,,,,,,,
,,,,,,,,,,,,,FF,,,,,,,,1.5508,,,,,,,,,,,,,,,,,,,,,,6100aad31b75bacb3595fdee,61036e0fab79b70cf7088da7,2021-07-29_23h12.40.011,Simcolourproject_2stim_asymm_v5,2020.2.10,Win32,60,61025ae37ef11b136ea224fe,,,,,,,,,272,64,39,1,0,0,response1disk,,6,-1,8,1,0,0,rectangle,-1,8,1,0,0,-1,8,1,0,0,1,59,219,26,1,,,,,,,,
,,,,,,,,,,,,,FF,,,,,,,,1.2028,,,,,,,,,,,,,,,,,,,,,,6100aad31b75bacb3595fdee,61036e0fab79b70cf7088da7,2021-07-29_23h12.40.011,Simcolourproject_2stim_asymm_v5,2020.2.10,Win32,60,61025ae37ef11b136ea224fe,,,,,,,,,1909,-32,-61,1,0,0,response5disk,,3,0,0,1,0,0,rectangle,0,0,1,0,0,0,0,1,0,0,1,60,220,38,1,,,,,,,,
,,,,,,,,,,,,,FF,,,,,,,,1.0004,,,,,,,,,,,,,,,,,,,,,,6100aad31b75bacb3595fdee,61036e0fab79b70cf7088da7,2021-07-29_23h12.40.011,Simcolourproject_2stim_asymm_v5,2020.2.10,Win32,60,61025ae37ef11b136ea224fe,,,,,,,,,3483,-99,-47,1,0,0,response5disk,,2,-8,2,1,0,0,rectangle,-8,2,1,0,0,-8,2,1,0,0,1,61,221,82,1,,,,,,,,
,,,,,,,,,,,,,FF,,,,,,,,0.8502,,,,,,,,,,,,,,,,,,,,,,6100aad31b75bacb3595fdee,61036e0fab79b70cf7088da7,2021-07-29_23h12.40.011,Simcolourproject_2stim_asymm_v5,2020.2.10,Win32,60,61025ae37ef11b136ea224fe,,,,,,,,,4169,-44,-68,1,0,0,response5disk,,3,5,5,1,0,0,rectangle,5,5,1,0,0,5,5,1,0,0,1,62,222,130,1,,,,,,,,
,,,,,,,,,,,,,FF,,,,,,,,0.9664,,,,,,,,,,,,,,,,,,,,,,6100aad31b75bacb3595fdee,61036e0fab79b70cf7088da7,2021-07-29_23h12.40.011,Simcolourproject_2stim_asymm_v5,2020.2.10,Win32,60,61025ae37ef11b136ea224fe,,,,,,,,,1152,-34,-50,1,0,0,response5disk,,3,3,6,1,0,0,rectangle,3,6,1,0,0,3,6,1,0,0,1,63,223,137,1,,,,,,,,
,,,,,,,,,,,,,FF,,,,,,,,0.8034,,,,,,,,,,,,,,,,,,,,,,6100aad31b75bacb3595fdee,61036e0fab79b70cf7088da7,2021-07-29_23h12.40.011,Simcolourproject_2stim_asymm_v5,2020.2.10,Win32,60,61025ae37ef11b136ea224fe,,,,,,,,,291,-27,-48,1,0,0,response5disk,,3,4,13,1,0,0,rectangle,4,13,1,0,0,4,13,1,0,0,1,64,224,21,1,,,,,,,,
,,,,,,,,,,,,,FF,,,,,,,,1.0036,,,,,,,,,,,,,,,,,,,,,,6100aad31b75bacb3595fdee,61036e0fab79b70cf7088da7,2021-07-29_23h12.40.011,Simcolourproject_2stim_asymm_v5,2020.2.10,Win32,60,61025ae37ef11b136ea224fe,,,,,,,,,2605,-23,-35,1,0,0,response5disk,,3,2,10,1,0,0,rectangle,2,10,1,0,0,2,10,1,0,0,1,65,225,50,1,,,,,,,,
,,,,,,,,,,,,,FF,,,,,,,,1.0664,,,,,,,,,,,,,,,,,,,,,,6100aad31b75bacb3595fdee,61036e0fab79b70cf7088da7,2021-07-29_23h12.40.011,Simcolourproject_2stim_asymm_v5,2020.2.10,Win32,60,61025ae37ef11b136ea224fe,,,,,,,,,77,-68,20,1,0,0,response7disk,,1,5,3,1,0,0,rectangle,5,3,1,0,0,5,3,1,0,0,1,66,226,112,1,,,,,,,,
,,,,,,,,,,,,,FF,,,,,,,,1.283,,,,,,,,,,,,,,,,,,,,,,6100aad31b75bacb3595fdee,61036e0fab79b70cf7088da7,2021-07-29_23h12.40.011,Simcolourproject_2stim_asymm_v5,2020.2.10,Win32,60,61025ae37ef11b136ea224fe,,,,,,,,,1464,-84,-39,1,0,0,response5disk,,2,1,0,1,0,0,rectangle,1,0,1,0,0,1,0,1,0,0,1,67,227,80,1,,,,,,,,
,,,,,,,,,,,,,FF,,,,,,,,0.8553,,,,,,,,,,,,,,,,,,,,,,6100aad31b75bacb3595fdee,61036e0fab79b70cf7088da7,2021-07-29_23h12.40.011,Simcolourproject_2stim_asymm_v5,2020.2.10,Win32,60,61025ae37ef11b136ea224fe,,,,,,,,,4013,83,-33,1,0,0,response3disk,,5,-5,2,1,0,0,rectangle,-5,2,1,0,0,-5,2,1,0,0,1,68,228,115,1,,,,,,,,
,,,,,,,,,,,,,FF,,,,,,,,1.1832,,,,,,,,,,,,,,,,,,,,,,6100aad31b75bacb3595fdee,61036e0fab79b70cf7088da7,2021-07-29_23h12.40.011,Simcolourproject_2stim_asymm_v5,2020.2.10,Win32,60,61025ae37ef11b136ea224fe,,,,,,,,,1338,79,32,1,0,0,response1disk,,6,4,6,1,0,0,rectangle,4,6,1,0,0,4,6,1,0,0,1,69,229,9,1,,,,,,,,
,,,,,,,,,,,,,FF,,,,,,,,0.6833,,,,,,,,,,,,,,,,,,,,,,6100aad31b75bacb3595fdee,61036e0fab79b70cf7088da7,2021-07-29_23h12.40.011,Simcolourproject_2stim_asymm_v5,2020.2.10,Win32,60,61025ae37ef11b136ea224fe,,,,,,,,,1563,49,19,1,0,0,response1disk,,6,-12,-10,1,0,0,rectangle,-12,-10,1,0,0,-12,-10,1,0,0,1,70,230,19,1,,,,,,,,
,,,,,,,,,,,,,FF,,,,,,,,0.6002,,,,,,,,,,,,,,,,,,,,,,6100aad31b75bacb3595fdee,61036e0fab79b70cf7088da7,2021-07-29_23h12.40.011,Simcolourproject_2stim_asymm_v5,2020.2.10,Win32,60,61025ae37ef11b136ea224fe,,,,,,,,,3801,51,35,1,0,0,response1disk,,6,-4,-4,1,0,0,rectangle,-4,-4,1,0,0,-4,-4,1,0,0,1,71,231,140,1,,,,,,,,
,,,,,,,,,,,,,FF,,,,,,,,1.9698,,,,,,,,,,,,,,,,,,,,,,6100aad31b75bacb3595fdee,61036e0fab79b70cf7088da7,2021-07-29_23h12.40.011,Simcolourproject_2stim_asymm_v5,2020.2.10,Win32,60,61025ae37ef11b136ea224fe,,,,,,,,,3401,-54,-88,1,0,0,response5disk,,3,-1,2,1,0,0,rectangle,-1,2,1,0,0,-1,2,1,0,0,1,72,232,49,1,,,,,,,,
,,,,,,,,,,,,,FF,,,,,,,,0.7668,,,,,,,,,,,,,,,,,,,,,,6100aad31b75bacb3595fdee,61036e0fab79b70cf7088da7,2021-07-29_23h12.40.011,Simcolourproject_2stim_asymm_v5,2020.2.10,Win32,60,61025ae37ef11b136ea224fe,,,,,,,,,2398,63,-35,1,0,0,response3disk,,5,-1,5,1,0,0,rectangle,-1,5,1,0,0,-1,5,1,0,0,1,73,233,33,1,,,,,,,,
,,,,,,,,,,,,,FF,,,,,,,,0.7546,,,,,,,,,,,,,,,,,,,,,,6100aad31b75bacb3595fdee,61036e0fab79b70cf7088da7,2021-07-29_23h12.40.011,Simcolourproject_2stim_asymm_v5,2020.2.10,Win32,60,61025ae37ef11b136ea224fe,,,,,,,,,4168,-64,-34,1,0,0,response5disk,,2,2,3,1,0,0,rectangle,2,3,1,0,0,2,3,1,0,0,1,74,234,104,1,,,,,,,,
,,,,,,,,,,,,,FF,,,,,,,,1.1165,,,,,,,,,,,,,,,,,,,,,,6100aad31b75bacb3595fdee,61036e0fab79b70cf7088da7,2021-07-29_23h12.40.011,Simcolourproject_2stim_asymm_v5,2020.2.10,Win32,60,61025ae37ef11b136ea224fe,,,,,,,,,1238,41,-23,1,0,0,response3disk,,5,-2,-1,1,0,0,rectangle,-2,-1,1,0,0,-2,-1,1,0,0,1,75,235,125,1,,,,,,,,
,,,,,,,,,,,,,FF,,,,,,,,0.8849,,,,,,,,,,,,,,,,,,,,,,6100aad31b75bacb3595fdee,61036e0fab79b70cf7088da7,2021-07-29_23h12.40.011,Simcolourproject_2stim_asymm_v5,2020.2.10,Win32,60,61025ae37ef11b136ea224fe,,,,,,,,,681,59,-21,1,0,0,response3disk,,5,-1,5,1,0,0,rectangle,-1,5,1,0,0,-1,5,1,0,0,1,76,236,131,1,,,,,,,,
,,,,,,,,,,,,,FF,,,,,,,,1.1335,,,,,,,,,,,,,,,,,,,,,,6100aad31b75bacb3595fdee,61036e0fab79b70cf7088da7,2021-07-29_23h12.40.011,Simcolourproject_2stim_asymm_v5,2020.2.10,Win32,60,61025ae37ef11b136ea224fe,,,,,,,,,3832,85,35,1,0,0,response1disk,,6,3,-2,1,0,0,rectangle,-32,69,1,0,0,6,0,1,0,0,1,77,237,102,1,,response7disk_3,TRUE,0,0,"[238,53,282,276,152,266,118,142,53,65,314,89,65,56,185,158,322,146,58,105]",1.5194,rectangle
,,,,,,,,,,,,,FF,,,,,,,,1.6842,,,,,,,,,,,,,,,,,,,,,,6100aad31b75bacb3595fdee,61036e0fab79b70cf7088da7,2021-07-29_23h12.40.011,Simcolourproject_2stim_asymm_v5,2020.2.10,Win32,60,61025ae37ef11b136ea224fe,,,,,,,,,2644,97,56,1,0,0,response1disk,,6,-2,5,1,0,0,rectangle,-2,5,1,0,0,-2,5,1,0,0,1,78,238,2,1,,,,,,,,
,,,,,,,,,,,,,FF,,,,,,,,0.6665,,,,,,,,,,,,,,,,,,,,,,6100aad31b75bacb3595fdee,61036e0fab79b70cf7088da7,2021-07-29_23h12.40.011,Simcolourproject_2stim_asymm_v5,2020.2.10,Win32,60,61025ae37ef11b136ea224fe,,,,,,,,,2079,49,24,1,0,0,response1disk,,6,-5,-6,1,0,0,rectangle,-5,-6,1,0,0,-5,-6,1,0,0,1,79,239,126,1,,,,,,,,
,,,,,,,,,,,,,FF,,,,,,,,0.6663,,,,,,,,,,,,,,,,,,,,,,6100aad31b75bacb3595fdee,61036e0fab79b70cf7088da7,2021-07-29_23h12.40.011,Simcolourproject_2stim_asymm_v5,2020.2.10,Win32,60,61025ae37ef11b136ea224fe,,,,,,,,,3079,42,19,1,0,0,response1disk,,6,-7,-5,1,0,0,rectangle,-7,-5,1,0,0,-7,-5,1,0,0,1,80,240,96,1,,,,,,,,
,,,,,,,,,,,,,FF,,,,,,,,0.8797,,,,,,,,,,,,,,,,,,,,,,6100aad31b75bacb3595fdee,61036e0fab79b70cf7088da7,2021-07-29_23h12.40.011,Simcolourproject_2stim_asymm_v5,2020.2.10,Win32,60,61025ae37ef11b136ea224fe,,,,,,,,,3410,44,25,1,0,0,response1disk,,6,-15,2,1,0,0,rectangle,-15,2,1,0,0,-15,2,1,0,0,1,81,241,67,1,,,,,,,,
,,,,,,,,,,,,,FF,,,,,,,,1.1687,,,,,,,,,,,,,,,,,,,,,,6100aad31b75bacb3595fdee,61036e0fab79b70cf7088da7,2021-07-29_23h12.40.011,Simcolourproject_2stim_asymm_v5,2020.2.10,Win32,60,61025ae37ef11b136ea224fe,,,,,,,,,4053,-67,-36,1,0,0,response5disk,,2,-5,2,1,0,0,rectangle,-5,2,1,0,0,-5,2,1,0,0,1,82,242,61,1,,,,,,,,
,,,,,,,,,,,,,FF,,,,,,,,1.2497,,,,,,,,,,,,,,,,,,,,,,6100aad31b75bacb3595fdee,61036e0fab79b70cf7088da7,2021-07-29_23h12.40.011,Simcolourproject_2stim_asymm_v5,2020.2.10,Win32,60,61025ae37ef11b136ea224fe,,,,,,,,,720,-90,-41,1,0,0,response5disk,,2,1,7,1,0,0,rectangle,1,7,1,0,0,1,7,1,0,0,1,83,243,97,1,,,,,,,,
,,,,,,,,,,,,,FF,,,,,,,,0.8043,,,,,,,,,,,,,,,,,,,,,,6100aad31b75bacb3595fdee,61036e0fab79b70cf7088da7,2021-07-29_23h12.40.011,Simcolourproject_2stim_asymm_v5,2020.2.10,Win32,60,61025ae37ef11b136ea224fe,,,,,,,,,3942,66,-24,1,0,0,response3disk,,5,-2,7,1,0,0,rectangle,-2,7,1,0,0,-2,7,1,0,0,1,84,244,29,1,,,,,,,,
,,,,,,,,,,,,,FF,,,,,,,,1.184,,,,,,,,,,,,,,,,,,,,,,6100aad31b75bacb3595fdee,61036e0fab79b70cf7088da7,2021-07-29_23h12.40.011,Simcolourproject_2stim_asymm_v5,2020.2.10,Win32,60,61025ae37ef11b136ea224fe,,,,,,,,,2048,-56,-59,1,0,0,response5disk,,3,-11,11,1,0,0,rectangle,-11,11,1,0,0,-11,11,1,0,0,1,85,245,58,1,,,,,,,,
,,,,,,,,,,,,,FF,,,,,,,,1.5002,,,,,,,,,,,,,,,,,,,,,,6100aad31b75bacb3595fdee,61036e0fab79b70cf7088da7,2021-07-29_23h12.40.011,Simcolourproject_2stim_asymm_v5,2020.2.10,Win32,60,61025ae37ef11b136ea224fe,,,,,,,,,490,42,-100,1,0,0,response3disk,,4,-1,3,1,0,0,rectangle,-1,3,1,0,0,-1,3,1,0,0,1,86,246,24,1,,,,,,,,
,,,,,,,,,,,,,FF,,,,,,,,0.9894,,,,,,,,,,,,,,,,,,,,,,6100aad31b75bacb3595fdee,61036e0fab79b70cf7088da7,2021-07-29_23h12.40.011,Simcolourproject_2stim_asymm_v5,2020.2.10,Win32,60,61025ae37ef11b136ea224fe,,,,,,,,,4343,-117,47,1,0,0,response7disk,,1,2,9,1,0,0,rectangle,2,9,1,0,0,2,9,1,0,0,1,87,247,141,1,,,,,,,,
,,,,,,,,,,,,,FF,,,,,,,,0.8168,,,,,,,,,,,,,,,,,,,,,,6100aad31b75bacb3595fdee,61036e0fab79b70cf7088da7,2021-07-29_23h12.40.011,Simcolourproject_2stim_asymm_v5,2020.2.10,Win32,60,61025ae37ef11b136ea224fe,,,,,,,,,287,56,-21,1,0,0,response3disk,,5,-2,4,1,0,0,rectangle,-2,4,1,0,0,-2,4,1,0,0,1,88,248,46,1,,,,,,,,
,,,,,,,,,,,,,FF,,,,,,,,0.934,,,,,,,,,,,,,,,,,,,,,,6100aad31b75bacb3595fdee,61036e0fab79b70cf7088da7,2021-07-29_23h12.40.011,Simcolourproject_2stim_asymm_v5,2020.2.10,Win32,60,61025ae37ef11b136ea224fe,,,,,,,,,354,-59,-24,1,0,0,response5disk,,2,2,5,1,0,0,rectangle,2,5,1,0,0,2,5,1,0,0,1,89,249,109,1,,,,,,,,
,,,,,,,,,,,,,FF,,,,,,,,0.8162,,,,,,,,,,,,,,,,,,,,,,6100aad31b75bacb3595fdee,61036e0fab79b70cf7088da7,2021-07-29_23h12.40.011,Simcolourproject_2stim_asymm_v5,2020.2.10,Win32,60,61025ae37ef11b136ea224fe,,,,,,,,,2784,-51,-31,1,0,0,response5disk,,2,4,2,1,0,0,rectangle,4,2,1,0,0,4,2,1,0,0,1,90,250,98,1,,,,,,,,
,,,,,,,,,,,,,FF,,,,,,,,1.2991,,,,,,,,,,,,,,,,,,,,,,6100aad31b75bacb3595fdee,61036e0fab79b70cf7088da7,2021-07-29_23h12.40.011,Simcolourproject_2stim_asymm_v5,2020.2.10,Win32,60,61025ae37ef11b136ea224fe,,,,,,,,,341,58,-27,1,0,0,response3disk,,5,-3,3,1,0,0,rectangle,-3,3,1,0,0,-3,3,1,0,0,1,91,251,44,1,,,,,,,,
,,,,,,,,,,,,,FF,,,,,,,,1.7519,,,,,,,,,,,,,,,,,,,,,,6100aad31b75bacb3595fdee,61036e0fab79b70cf7088da7,2021-07-29_23h12.40.011,Simcolourproject_2stim_asymm_v5,2020.2.10,Win32,60,61025ae37ef11b136ea224fe,,,,,,,,,3233,58,-31,1,0,0,response3disk,,5,-8,4,1,0,0,rectangle,-8,4,1,0,0,-8,4,1,0,0,1,92,252,64,1,,,,,,,,
,,,,,,,,,,,,,FF,,,,,,,,0.8185,,,,,,,,,,,,,,,,,,,,,,6100aad31b75bacb3595fdee,61036e0fab79b70cf7088da7,2021-07-29_23h12.40.011,Simcolourproject_2stim_asymm_v5,2020.2.10,Win32,60,61025ae37ef11b136ea224fe,,,,,,,,,4302,73,-18,1,0,0,response3disk,,5,-3,4,1,0,0,rectangle,-3,4,1,0,0,-3,4,1,0,0,1,93,253,95,1,,,,,,,,
,,,,,,,,,,,,,FF,,,,,,,,1.5888,,,,,,,,,,,,,,,,,,,,,,6100aad31b75bacb3595fdee,61036e0fab79b70cf7088da7,2021-07-29_23h12.40.011,Simcolourproject_2stim_asymm_v5,2020.2.10,Win32,60,61025ae37ef11b136ea224fe,,,,,,,,,4016,61,23,1,0,0,response1disk,,6,-4,6,1,0,0,rectangle,-4,6,1,0,0,-4,6,1,0,0,1,94,254,3,1,,,,,,,,
,,,,,,,,,,,,,FF,,,,,,,,1.0335,,,,,,,,,,,,,,,,,,,,,,6100aad31b75bacb3595fdee,61036e0fab79b70cf7088da7,2021-07-29_23h12.40.011,Simcolourproject_2stim_asymm_v5,2020.2.10,Win32,60,61025ae37ef11b136ea224fe,,,,,,,,,1504,53,23,1,0,0,response1disk,,6,-3,-2,1,0,0,rectangle,-3,-2,1,0,0,-3,-2,1,0,0,1,95,255,149,1,,,,,,,,
,,,,,,,,,,,,,FF,,,,,,,,0.7049,,,,,,,,,,,,,,,,,,,,,,6100aad31b75bacb3595fdee,61036e0fab79b70cf7088da7,2021-07-29_23h12.40.011,Simcolourproject_2stim_asymm_v5,2020.2.10,Win32,60,61025ae37ef11b136ea224fe,,,,,,,,,2745,52,22,1,0,0,response1disk,,6,6,2,1,0,0,rectangle,6,2,1,0,0,6,2,1,0,0,1,96,256,10,1,,,,,,,,
,,,,,,,,,,,,,FF,,,,,,,,0.7837,,,,,,,,,,,,,,,,,,,,,,6100aad31b75bacb3595fdee,61036e0fab79b70cf7088da7,2021-07-29_23h12.40.011,Simcolourproject_2stim_asymm_v5,2020.2.10,Win32,60,61025ae37ef11b136ea224fe,,,,,,,,,4291,44,24,1,0,0,response1disk,,6,1,4,1,0,0,rectangle,1,4,1,0,0,1,4,1,0,0,1,97,257,155,1,,,,,,,,
,,,,,,,,,,,,,FF,,,,,,,,0.7837,,,,,,,,,,,,,,,,,,,,,,6100aad31b75bacb3595fdee,61036e0fab79b70cf7088da7,2021-07-29_23h12.40.011,Simcolourproject_2stim_asymm_v5,2020.2.10,Win32,60,61025ae37ef11b136ea224fe,,,,,,,,,3419,46,25,1,0,0,response1disk,,6,-7,2,1,0,0,rectangle,-7,2,1,0,0,-7,2,1,0,0,1,98,258,132,1,,,,,,,,
,,,,,,,,,,,,,FF,,,,,,,,1.8836,,,,,,,,,,,,,,,,,,,,,,6100aad31b75bacb3595fdee,61036e0fab79b70cf7088da7,2021-07-29_23h12.40.011,Simcolourproject_2stim_asymm_v5,2020.2.10,Win32,60,61025ae37ef11b136ea224fe,,,,,,,,,2754,57,-44,1,0,0,response3disk,,5,-2,1,1,0,0,rectangle,-2,1,1,0,0,-2,1,1,0,0,1,99,259,53,1,,,,,,,,
,,,,,,,,,,,,,FF,,,,,,,,0.7475,,,,,,,,,,,,,,,,,,,,,,6100aad31b75bacb3595fdee,61036e0fab79b70cf7088da7,2021-07-29_23h12.40.011,Simcolourproject_2stim_asymm_v5,2020.2.10,Win32,60,61025ae37ef11b136ea224fe,,,,,,,,,3086,56,-21,1,0,0,response3disk,,5,2,1,1,0,0,rectangle,2,1,1,0,0,2,1,1,0,0,1,100,260,94,1,,,,,,,,
,,,,,,,,,,,,,FF,,,,,,,,0.9833,,,,,,,,,,,,,,,,,,,,,,6100aad31b75bacb3595fdee,61036e0fab79b70cf7088da7,2021-07-29_23h12.40.011,Simcolourproject_2stim_asymm_v5,2020.2.10,Win32,60,61025ae37ef11b136ea224fe,,,,,,,,,2300,-66,-39,1,0,0,response5disk,,2,-2,0,1,0,0,rectangle,-2,0,1,0,0,-2,0,1,0,0,1,101,261,127,1,,,,,,,,
,,,,,,,,,,,,,FF,,,,,,,,1.0837,,,,,,,,,,,,,,,,,,,,,,6100aad31b75bacb3595fdee,61036e0fab79b70cf7088da7,2021-07-29_23h12.40.011,Simcolourproject_2stim_asymm_v5,2020.2.10,Win32,60,61025ae37ef11b136ea224fe,,,,,,,,,2085,-25,-48,1,0,0,response5disk,,3,2,-2,1,0,0,rectangle,2,-2,1,0,0,2,-2,1,0,0,1,102,262,4,1,,,,,,,,
,,,,,,,,,,,,,FF,,,,,,,,1.0828,,,,,,,,,,,,,,,,,,,,,,6100aad31b75bacb3595fdee,61036e0fab79b70cf7088da7,2021-07-29_23h12.40.011,Simcolourproject_2stim_asymm_v5,2020.2.10,Win32,60,61025ae37ef11b136ea224fe,,,,,,,,,3087,50,74,1,0,0,response1disk,,7,7,11,1,0,0,rectangle,7,11,1,0,0,7,11,1,0,0,1,103,263,30,1,,,,,,,,
,,,,,,,,,,,,,FF,,,,,,,,1.8178,,,,,,,,,,,,,,,,,,,,,,6100aad31b75bacb3595fdee,61036e0fab79b70cf7088da7,2021-07-29_23h12.40.011,Simcolourproject_2stim_asymm_v5,2020.2.10,Win32,60,61025ae37ef11b136ea224fe,,,,,,,,,492,79,42,1,0,0,response1disk,,6,3,-4,1,0,0,rectangle,3,-4,1,0,0,3,-4,1,0,0,1,104,264,145,1,,,,,,,,
,,,,,,,,,,,,,FF,,,,,,,,0.8161,,,,,,,,,,,,,,,,,,,,,,6100aad31b75bacb3595fdee,61036e0fab79b70cf7088da7,2021-07-29_23h12.40.011,Simcolourproject_2stim_asymm_v5,2020.2.10,Win32,60,61025ae37ef11b136ea224fe,,,,,,,,,1316,64,37,1,0,0,response1disk,,6,2,1,1,0,0,rectangle,-65,39,1,0,0,3,-1,1,0,0,1,105,265,28,1,,response7disk_3,TRUE,1,1,"[238,53,282,276,152,266,118,142,53,65,314,89,65,56,185,158,322,146,58,105]",1.4663,rectangle
,,,,,,,,,,,,,FF,,,,,,,,1.0675,,,,,,,,,,,,,,,,,,,,,,6100aad31b75bacb3595fdee,61036e0fab79b70cf7088da7,2021-07-29_23h12.40.011,Simcolourproject_2stim_asymm_v5,2020.2.10,Win32,60,61025ae37ef11b136ea224fe,,,,,,,,,2630,62,38,1,0,0,response1disk,,6,1,3,1,0,0,rectangle,1,3,1,0,0,1,3,1,0,0,1,106,266,45,1,,,,,,,,
,,,,,,,,,,,,,FF,,,,,,,,1.1672,,,,,,,,,,,,,,,,,,,,,,6100aad31b75bacb3595fdee,61036e0fab79b70cf7088da7,2021-07-29_23h12.40.011,Simcolourproject_2stim_asymm_v5,2020.2.10,Win32,60,61025ae37ef11b136ea224fe,,,,,,,,,1128,56,32,1,0,0,response1disk,,6,-6,3,1,0,0,rectangle,-6,3,1,0,0,-6,3,1,0,0,1,107,267,142,1,,,,,,,,
,,,,,,,,,,,,,FF,,,,,,,,0.7338,,,,,,,,,,,,,,,,,,,,,,6100aad31b75bacb3595fdee,61036e0fab79b70cf7088da7,2021-07-29_23h12.40.011,Simcolourproject_2stim_asymm_v5,2020.2.10,Win32,60,61025ae37ef11b136ea224fe,,,,,,,,,1045,33,23,1,0,0,response1disk,,6,-1,2,1,0,0,rectangle,-1,2,1,0,0,-1,2,1,0,0,1,108,268,43,1,,,,,,,,
,,,,,,,,,,,,,FF,,,,,,,,1.0474,,,,,,,,,,,,,,,,,,,,,,6100aad31b75bacb3595fdee,61036e0fab79b70cf7088da7,2021-07-29_23h12.40.011,Simcolourproject_2stim_asymm_v5,2020.2.10,Win32,60,61025ae37ef11b136ea224fe,,,,,,,,,916,49,34,1,0,0,response1disk,,6,2,3,1,0,0,rectangle,2,3,1,0,0,2,3,1,0,0,1,109,269,69,1,,,,,,,,
,,,,,,,,,,,,,FF,,,,,,,,0.9025,,,,,,,,,,,,,,,,,,,,,,6100aad31b75bacb3595fdee,61036e0fab79b70cf7088da7,2021-07-29_23h12.40.011,Simcolourproject_2stim_asymm_v5,2020.2.10,Win32,60,61025ae37ef11b136ea224fe,,,,,,,,,3814,-55,32,1,0,0,response7disk,,1,-3,-2,1,0,0,rectangle,-3,-2,1,0,0,-3,-2,1,0,0,1,110,270,74,1,,,,,,,,
,,,,,,,,,,,,,FF,,,,,,,,0.9816,,,,,,,,,,,,,,,,,,,,,,6100aad31b75bacb3595fdee,61036e0fab79b70cf7088da7,2021-07-29_23h12.40.011,Simcolourproject_2stim_asymm_v5,2020.2.10,Win32,60,61025ae37ef11b136ea224fe,,,,,,,,,913,96,56,1,0,0,response1disk,,6,4,4,1,0,0,rectangle,4,4,1,0,0,4,4,1,0,0,1,111,271,75,1,,,,,,,,
,,,,,,,,,,,,,FF,,,,,,,,2.2166,,,,,,,,,,,,,,,,,,,,,,6100aad31b75bacb3595fdee,61036e0fab79b70cf7088da7,2021-07-29_23h12.40.011,Simcolourproject_2stim_asymm_v5,2020.2.10,Win32,60,61025ae37ef11b136ea224fe,,,,,,,,,4146,-85,47,1,0,0,response7disk,,1,5,-2,1,0,0,rectangle,5,-2,1,0,0,5,-2,1,0,0,1,112,272,65,1,,,,,,,,
,,,,,,,,,,,,,FF,,,,,,,,0.8494,,,,,,,,,,,,,,,,,,,,,,6100aad31b75bacb3595fdee,61036e0fab79b70cf7088da7,2021-07-29_23h12.40.011,Simcolourproject_2stim_asymm_v5,2020.2.10,Win32,60,61025ae37ef11b136ea224fe,,,,,,,,,2430,72,32,1,0,0,response1disk,,6,-4,2,1,0,0,rectangle,-4,2,1,0,0,-4,2,1,0,0,1,113,273,35,1,,,,,,,,
,,,,,,,,,,,,,FF,,,,,,,,1.6327,,,,,,,,,,,,,,,,,,,,,,6100aad31b75bacb3595fdee,61036e0fab79b70cf7088da7,2021-07-29_23h12.40.011,Simcolourproject_2stim_asymm_v5,2020.2.10,Win32,60,61025ae37ef11b136ea224fe,,,,,,,,,3823,-64,-98,1,0,0,response5disk,,3,-6,4,1,0,0,rectangle,-6,4,1,0,0,-6,4,1,0,0,1,114,274,14,1,,,,,,,,
,,,,,,,,,,,,,FF,,,,,,,,1.6669,,,,,,,,,,,,,,,,,,,,,,6100aad31b75bacb3595fdee,61036e0fab79b70cf7088da7,2021-07-29_23h12.40.011,Simcolourproject_2stim_asymm_v5,2020.2.10,Win32,60,61025ae37ef11b136ea224fe,,,,,,,,,2683,29,-76,1,0,0,response3disk,,4,-5,1,1,0,0,rectangle,46,-51,1,0,0,2,1,1,0,0,1,115,275,88,1,,response3disk_3,TRUE,4,4,"[238,53,282,276,152,266,118,142,53,65,314,89,65,56,185,158,322,146,58,105]",1.7007,rectangle
,,,,,,,,,,,,,FF,,,,,,,,1.0655,,,,,,,,,,,,,,,,,,,,,,6100aad31b75bacb3595fdee,61036e0fab79b70cf7088da7,2021-07-29_23h12.40.011,Simcolourproject_2stim_asymm_v5,2020.2.10,Win32,60,61025ae37ef11b136ea224fe,,,,,,,,,3975,-77,-32,1,0,0,response5disk,,2,-6,4,1,0,0,rectangle,-6,4,1,0,0,-6,4,1,0,0,1,116,276,25,1,,,,,,,,
,,,,,,,,,,,,,FF,,,,,,,,0.6799,,,,,,,,,,,,,,,,,,,,,,6100aad31b75bacb3595fdee,61036e0fab79b70cf7088da7,2021-07-29_23h12.40.011,Simcolourproject_2stim_asymm_v5,2020.2.10,Win32,60,61025ae37ef11b136ea224fe,,,,,,,,,4022,-82,-41,1,0,0,response5disk,,2,-3,2,1,0,0,rectangle,-3,2,1,0,0,-3,2,1,0,0,1,117,277,159,1,,,,,,,,
,,,,,,,,,,,,,FF,,,,,,,,0.7997,,,,,,,,,,,,,,,,,,,,,,6100aad31b75bacb3595fdee,61036e0fab79b70cf7088da7,2021-07-29_23h12.40.011,Simcolourproject_2stim_asymm_v5,2020.2.10,Win32,60,61025ae37ef11b136ea224fe,,,,,,,,,3224,80,-23,1,0,0,response3disk,,5,-7,4,1,0,0,rectangle,-7,4,1,0,0,-7,4,1,0,0,1,118,278,73,1,,,,,,,,
,,,,,,,,,,,,,FF,,,,,,,,0.9166,,,,,,,,,,,,,,,,,,,,,,6100aad31b75bacb3595fdee,61036e0fab79b70cf7088da7,2021-07-29_23h12.40.011,Simcolourproject_2stim_asymm_v5,2020.2.10,Win32,60,61025ae37ef11b136ea224fe,,,,,,,,,1093,19,-61,1,0,0,response3disk,,4,-7,10,1,0,0,rectangle,-7,10,1,0,0,-7,10,1,0,0,1,119,279,23,1,,,,,,,,
,,,,,,,,,,,,,FF,,,,,,,,0.7339,,,,,,,,,,,,,,,,,,,,,,6100aad31b75bacb3595fdee,61036e0fab79b70cf7088da7,2021-07-29_23h12.40.011,Simcolourproject_2stim_asymm_v5,2020.2.10,Win32,60,61025ae37ef11b136ea224fe,,,,,,,,,388,29,-47,1,0,0,response3disk,,4,-9,7,1,0,0,rectangle,-9,7,1,0,0,-9,7,1,0,0,1,120,280,157,1,,,,,,,,
,,,,,,,,,,,,,FF,,,,,,,,1.0186,,,,,,,,,,,,,,,,,,,,,,6100aad31b75bacb3595fdee,61036e0fab79b70cf7088da7,2021-07-29_23h12.40.011,Simcolourproject_2stim_asymm_v5,2020.2.10,Win32,60,61025ae37ef11b136ea224fe,,,,,,,,,4152,77,45,1,0,0,response1disk,,6,7,8,1,0,0,rectangle,-35,68,1,0,0,2,2,1,0,0,1,121,281,22,1,,response7disk_3,TRUE,0,0,"[238,53,282,276,152,266,118,142,53,65,314,89,65,56,185,158,322,146,58,105]",1.4326,rectangle
,,,,,,,,,,,,,FF,,,,,,,,1.2988,,,,,,,,,,,,,,,,,,,,,,6100aad31b75bacb3595fdee,61036e0fab79b70cf7088da7,2021-07-29_23h12.40.011,Simcolourproject_2stim_asymm_v5,2020.2.10,Win32,60,61025ae37ef11b136ea224fe,,,,,,,,,1492,45,29,1,0,0,response1disk,,6,-1,-1,1,0,0,rectangle,-1,-1,1,0,0,-1,-1,1,0,0,1,122,282,117,1,,,,,,,,
,,,,,,,,,,,,,FF,,,,,,,,1.3998,,,,,,,,,,,,,,,,,,,,,,6100aad31b75bacb3595fdee,61036e0fab79b70cf7088da7,2021-07-29_23h12.40.011,Simcolourproject_2stim_asymm_v5,2020.2.10,Win32,60,61025ae37ef11b136ea224fe,,,,,,,,,2517,54,34,1,0,0,response1disk,,6,-10,2,1,0,0,rectangle,-10,2,1,0,0,-10,2,1,0,0,1,123,283,70,1,,,,,,,,
,,,,,,,,,,,,,FF,,,,,,,,0.85,,,,,,,,,,,,,,,,,,,,,,6100aad31b75bacb3595fdee,61036e0fab79b70cf7088da7,2021-07-29_23h12.40.011,Simcolourproject_2stim_asymm_v5,2020.2.10,Win32,60,61025ae37ef11b136ea224fe,,,,,,,,,2269,55,26,1,0,0,response1disk,,6,-4,1,1,0,0,rectangle,-4,1,1,0,0,-4,1,1,0,0,1,124,284,93,1,,,,,,,,
,,,,,,,,,,,,,FF,,,,,,,,1.0667,,,,,,,,,,,,,,,,,,,,,,6100aad31b75bacb3595fdee,61036e0fab79b70cf7088da7,2021-07-29_23h12.40.011,Simcolourproject_2stim_asymm_v5,2020.2.10,Win32,60,61025ae37ef11b136ea224fe,,,,,,,,,3260,42,-21,1,0,0,response3disk,,5,-3,7,1,0,0,rectangle,-3,7,1,0,0,-3,7,1,0,0,1,125,285,5,1,,,,,,,,
,,,,,,,,,,,,,FF,,,,,,,,0.8988,,,,,,,,,,,,,,,,,,,,,,6100aad31b75bacb3595fdee,61036e0fab79b70cf7088da7,2021-07-29_23h12.40.011,Simcolourproject_2stim_asymm_v5,2020.2.10,Win32,60,61025ae37ef11b136ea224fe,,,,,,,,,1413,50,-37,1,0,0,response3disk,,5,-2,-1,1,0,0,rectangle,-2,-1,1,0,0,-2,-1,1,0,0,1,126,286,89,1,,,,,,,,
,,,,,,,,,,,,,FF,,,,,,,,1.016,,,,,,,,,,,,,,,,,,,,,,6100aad31b75bacb3595fdee,61036e0fab79b70cf7088da7,2021-07-29_23h12.40.011,Simcolourproject_2stim_asymm_v5,2020.2.10,Win32,60,61025ae37ef11b136ea224fe,,,,,,,,,2304,-61,-26,1,0,0,response5disk,,2,-6,1,1,0,0,rectangle,-6,1,1,0,0,-6,1,1,0,0,1,127,287,90,1,,,,,,,,
,,,,,,,,,,,,,FF,,,,,,,,0.8349,,,,,,,,,,,,,,,,,,,,,,6100aad31b75bacb3595fdee,61036e0fab79b70cf7088da7,2021-07-29_23h12.40.011,Simcolourproject_2stim_asymm_v5,2020.2.10,Win32,60,61025ae37ef11b136ea224fe,,,,,,,,,2192,54,33,1,0,0,response1disk,,6,5,2,1,0,0,rectangle,5,2,1,0,0,5,2,1,0,0,1,128,288,135,1,,,,,,,,
,,,,,,,,,,,,,FF,,,,,,,,1.0822,,,,,,,,,,,,,,,,,,,,,,6100aad31b75bacb3595fdee,61036e0fab79b70cf7088da7,2021-07-29_23h12.40.011,Simcolourproject_2stim_asymm_v5,2020.2.10,Win32,60,61025ae37ef11b136ea224fe,,,,,,,,,2501,76,28,1,0,0,response1disk,,6,-12,0,1,0,0,rectangle,-12,0,1,0,0,-12,0,1,0,0,1,129,289,48,1,,,,,,,,
,,,,,,,,,,,,,FF,,,,,,,,1.1661,,,,,,,,,,,,,,,,,,,,,,6100aad31b75bacb3595fdee,61036e0fab79b70cf7088da7,2021-07-29_23h12.40.011,Simcolourproject_2stim_asymm_v5,2020.2.10,Win32,60,61025ae37ef11b136ea224fe,,,,,,,,,3824,-58,-80,1,0,0,response5disk,,3,-1,-1,1,0,0,rectangle,-1,-1,1,0,0,-1,-1,1,0,0,1,130,290,1,1,,,,,,,,
,,,,,,,,,,,,,FF,,,,,,,,1.5645,,,,,,,,,,,,,,,,,,,,,,6100aad31b75bacb3595fdee,61036e0fab79b70cf7088da7,2021-07-29_23h12.40.011,Simcolourproject_2stim_asymm_v5,2020.2.10,Win32,60,61025ae37ef11b136ea224fe,,,,,,,,,2509,37,-20,1,0,0,response3disk,,5,-1,3,1,0,0,rectangle,-1,3,1,0,0,-1,3,1,0,0,1,131,291,150,1,,,,,,,,
,,,,,,,,,,,,,FF,,,,,,,,0.8839,,,,,,,,,,,,,,,,,,,,,,6100aad31b75bacb3595fdee,61036e0fab79b70cf7088da7,2021-07-29_23h12.40.011,Simcolourproject_2stim_asymm_v5,2020.2.10,Win32,60,61025ae37ef11b136ea224fe,,,,,,,,,321,52,-29,1,0,0,response3disk,,5,-4,-4,1,0,0,rectangle,-4,-4,1,0,0,-4,-4,1,0,0,1,132,292,148,1,,,,,,,,
,,,,,,,,,,,,,FF,,,,,,,,0.9829,,,,,,,,,,,,,,,,,,,,,,6100aad31b75bacb3595fdee,61036e0fab79b70cf7088da7,2021-07-29_23h12.40.011,Simcolourproject_2stim_asymm_v5,2020.2.10,Win32,60,61025ae37ef11b136ea224fe,,,,,,,,,4269,-74,-49,1,0,0,response5disk,,2,9,6,1,0,0,rectangle,9,6,1,0,0,9,6,1,0,0,1,133,293,121,1,,,,,,,,
,,,,,,,,,,,,,FF,,,,,,,,0.8014,,,,,,,,,,,,,,,,,,,,,,6100aad31b75bacb3595fdee,61036e0fab79b70cf7088da7,2021-07-29_23h12.40.011,Simcolourproject_2stim_asymm_v5,2020.2.10,Win32,60,61025ae37ef11b136ea224fe,,,,,,,,,1958,-72,-45,1,0,0,response5disk,,2,7,6,1,0,0,rectangle,7,6,1,0,0,7,6,1,0,0,1,134,294,55,1,,,,,,,,
,,,,,,,,,,,,,FF,,,,,,,,0.9313,,,,,,,,,,,,,,,,,,,,,,6100aad31b75bacb3595fdee,61036e0fab79b70cf7088da7,2021-07-29_23h12.40.011,Simcolourproject_2stim_asymm_v5,2020.2.10,Win32,60,61025ae37ef11b136ea224fe,,,,,,,,,3373,-63,38,1,0,0,response7disk,,1,-7,-4,1,0,0,rectangle,-7,-4,1,0,0,-7,-4,1,0,0,1,135,295,51,1,,,,,,,,
,,,,,,,,,,,,,FF,,,,,,,,1.6724,,,,,,,,,,,,,,,,,,,,,,6100aad31b75bacb3595fdee,61036e0fab79b70cf7088da7,2021-07-29_23h12.40.011,Simcolourproject_2stim_asymm_v5,2020.2.10,Win32,60,61025ae37ef11b136ea224fe,,,,,,,,,1714,25,61,1,0,0,response1disk,,7,1,5,1,0,0,rectangle,1,5,1,0,0,1,5,1,0,0,1,136,296,156,1,,,,,,,,
,,,,,,,,,,,,,FF,,,,,,,,1.2839,,,,,,,,,,,,,,,,,,,,,,6100aad31b75bacb3595fdee,61036e0fab79b70cf7088da7,2021-07-29_23h12.40.011,Simcolourproject_2stim_asymm_v5,2020.2.10,Win32,60,61025ae37ef11b136ea224fe,,,,,,,,,3601,-30,-78,1,0,0,response5disk,,3,-1,9,1,0,0,rectangle,-1,9,1,0,0,-1,9,1,0,0,1,137,297,6,1,,,,,,,,
,,,,,,,,,,,,,FF,,,,,,,,1.7174,,,,,,,,,,,,,,,,,,,,,,6100aad31b75bacb3595fdee,61036e0fab79b70cf7088da7,2021-07-29_23h12.40.011,Simcolourproject_2stim_asymm_v5,2020.2.10,Win32,60,61025ae37ef11b136ea224fe,,,,,,,,,216,95,-51,1,0,0,response3disk,,5,-3,0,1,0,0,rectangle,-3,0,1,0,0,-3,0,1,0,0,1,138,298,57,1,,,,,,,,
,,,,,,,,,,,,,FF,,,,,,,,1.6334,,,,,,,,,,,,,,,,,,,,,,6100aad31b75bacb3595fdee,61036e0fab79b70cf7088da7,2021-07-29_23h12.40.011,Simcolourproject_2stim_asymm_v5,2020.2.10,Win32,60,61025ae37ef11b136ea224fe,,,,,,,,,1335,22,-61,1,0,0,response3disk,,4,-1,-1,1,0,0,rectangle,-1,-1,1,0,0,-1,-1,1,0,0,1,139,299,42,1,,,,,,,,
,,,,,,,,,,,,,FF,,,,,,,,1.0998,,,,,,,,,,,,,,,,,,,,,,6100aad31b75bacb3595fdee,61036e0fab79b70cf7088da7,2021-07-29_23h12.40.011,Simcolourproject_2stim_asymm_v5,2020.2.10,Win32,60,61025ae37ef11b136ea224fe,,,,,,,,,2366,-53,-22,1,0,0,response5disk,,2,6,4,1,0,0,rectangle,6,4,1,0,0,6,4,1,0,0,1,140,300,146,1,,,,,,,,
,,,,,,,,,,,,,FF,,,,,,,,1.4834,,,,,,,,,,,,,,,,,,,,,,6100aad31b75bacb3595fdee,61036e0fab79b70cf7088da7,2021-07-29_23h12.40.011,Simcolourproject_2stim_asymm_v5,2020.2.10,Win32,60,61025ae37ef11b136ea224fe,,,,,,,,,1388,-32,-76,1,0,0,response5disk,,3,-1,1,1,0,0,rectangle,-1,1,1,0,0,-1,1,1,0,0,1,141,301,138,1,,,,,,,,
,,,,,,,,,,,,,FF,,,,,,,,0.8152,,,,,,,,,,,,,,,,,,,,,,6100aad31b75bacb3595fdee,61036e0fab79b70cf7088da7,2021-07-29_23h12.40.011,Simcolourproject_2stim_asymm_v5,2020.2.10,Win32,60,61025ae37ef11b136ea224fe,,,,,,,,,3590,61,-33,1,0,0,response3disk,,5,2,2,1,0,0,rectangle,2,2,1,0,0,2,2,1,0,0,1,142,302,119,1,,,,,,,,
,,,,,,,,,,,,,FF,,,,,,,,0.8185,,,,,,,,,,,,,,,,,,,,,,6100aad31b75bacb3595fdee,61036e0fab79b70cf7088da7,2021-07-29_23h12.40.011,Simcolourproject_2stim_asymm_v5,2020.2.10,Win32,60,61025ae37ef11b136ea224fe,,,,,,,,,3649,24,-64,1,0,0,response3disk,,4,1,1,1,0,0,rectangle,1,1,1,0,0,1,1,1,0,0,1,143,303,84,1,,,,,,,,
,,,,,,,,,,,,,FF,,,,,,,,0.7656,,,,,,,,,,,,,,,,,,,,,,6100aad31b75bacb3595fdee,61036e0fab79b70cf7088da7,2021-07-29_23h12.40.011,Simcolourproject_2stim_asymm_v5,2020.2.10,Win32,60,61025ae37ef11b136ea224fe,,,,,,,,,4163,-30,-51,1,0,0,response5disk,,3,5,-2,1,0,0,rectangle,5,-2,1,0,0,5,-2,1,0,0,1,144,304,12,1,,,,,,,,
