key_resp.keys,key_resp.rt,key_resp_14.keys,key_resp_14.rt,key_resp_15.keys,key_resp_15.rt,key_resp_17.keys,key_resp_17.rt,key_resp_9.keys,key_resp_9.rt,key_resp_10.keys,key_resp_10.rt,practice_comparison,Ecc,mouse_5.x,mouse_5.y,mouse_5.leftButton,mouse_5.midButton,mouse_5.rightButton,mouse_5.clicked_name,pracsimilarity,response_time,mouse_10.x,mouse_10.y,mouse_10.leftButton,mouse_10.midButton,mouse_10.rightButton,mouse_10.clicked_name,mouse_7.x,mouse_7.y,mouse_7.leftButton,mouse_7.midButton,mouse_7.rightButton,mouse_6.x,mouse_6.y,mouse_6.leftButton,mouse_6.midButton,mouse_6.rightButton,duringprac.thisRepN,duringprac.thisTrialN,duringprac.thisN,duringprac.thisIndex,duringprac.ran,participant,session,date,expName,psychopyVersion,OS,frameRate,study_id,mouse_7.clicked_name,catchpracsimilarity,catch_response_time,catchnumberprac,catchtrialorderprac,mouse_6.clicked_name,key_resp_22.keys,key_resp_22.rt,realcomparison,mouse.x,mouse.y,mouse.leftButton,mouse.midButton,mouse.rightButton,mouse.clicked_name,Colour2,similarity,mouse_2.x,mouse_2.y,mouse_2.leftButton,mouse_2.midButton,mouse_2.rightButton,mouse_2.clicked_name,mouse_3.x,mouse_3.y,mouse_3.leftButton,mouse_3.midButton,mouse_3.rightButton,mouse_11.x,mouse_11.y,mouse_11.leftButton,mouse_11.midButton,mouse_11.rightButton,trials_2.thisRepN,trials_2.thisTrialN,trials_2.thisN,trials_2.thisIndex,trials_2.ran,Colour1
space,1.2403,space,1.0467,space,7.7014,space,0.867,space,0.4018,space,2.2141,109,FF,103.3099365,-65.10168457,1,0,0,response3disk_5,5,7.3699,10.5692749,-12.67498779,1,0,0,rectangle_8,10.5692749,-12.67498779,1,0,0,10.5692749,-12.67498779,1,0,0,0,0,0,5,1,610061db544105dd7a6ede2c,61036dc7d8f897a2c9ba30f7,2021-07-29_20h11.41.541,Simcolourproject_2stim_asymm_v5,2020.2.10,MacIntel,60,61025ae37ef11b136ea224fe,,,,,,,,,,,,,,,,,,,,,,,,,,,,,,,,,,,,,,,
,,,,,,,,,,,,106,PF,41.57495117,98.53808594,1,0,0,response1disk_5,7,2.1002,4.720092773,-9.214385986,1,0,0,rectangle_8,104.9638062,-39.94940186,1,0,0,16.12841797,-8.359527588,1,0,0,0,1,1,1,1,610061db544105dd7a6ede2c,61036dc7d8f897a2c9ba30f7,2021-07-29_20h11.41.541,Simcolourproject_2stim_asymm_v5,2020.2.10,MacIntel,60,61025ae37ef11b136ea224fe,response3disk_7,5,1.684,5,"[2,5]",rectangle_4,,,,,,,,,,,,,,,,,,,,,,,,,,,,,,,,,
,,,,,,,,,,,,10,PF,-76.54986572,-50.28353882,1,0,0,response5disk_5,2,3.7999,-4.17388916,2.833068848,1,0,0,rectangle_8,-4.17388916,2.833068848,1,0,0,-4.17388916,2.833068848,1,0,0,0,2,2,2,1,610061db544105dd7a6ede2c,61036dc7d8f897a2c9ba30f7,2021-07-29_20h11.41.541,Simcolourproject_2stim_asymm_v5,2020.2.10,MacIntel,60,61025ae37ef11b136ea224fe,,,,,,,,,,,,,,,,,,,,,,,,,,,,,,,,,,,,,,,
,,,,,,,,,,,,28,PF,-32.07476807,-102.9551392,1,0,0,response5disk_5,3,1.2153,-3.158447266,-14.82434082,1,0,0,rectangle_8,-3.158447266,-14.82434082,1,0,0,-3.158447266,-14.82434082,1,0,0,0,3,3,4,1,610061db544105dd7a6ede2c,61036dc7d8f897a2c9ba30f7,2021-07-29_20h11.41.541,Simcolourproject_2stim_asymm_v5,2020.2.10,MacIntel,60,61025ae37ef11b136ea224fe,,,,,,,,,,,,,,,,,,,,,,,,,,,,,,,,,,,,,,,
,,,,,,,,,,,,51,FF,85.56756592,-43.30563354,1,0,0,response3disk_5,5,1.0001,-21.02038574,-8.665802002,1,0,0,rectangle_8,105.0008545,-61.29663086,1,0,0,15.36761475,-8.191650391,1,0,0,0,4,4,0,1,610061db544105dd7a6ede2c,61036dc7d8f897a2c9ba30f7,2021-07-29_20h11.41.541,Simcolourproject_2stim_asymm_v5,2020.2.10,MacIntel,60,61025ae37ef11b136ea224fe,response3disk_7,5,1.3344,5,"[2,5]",rectangle_4,,,,,,,,,,,,,,,,,,,,,,,,,,,,,,,,,
,,,,,,,,,,,,12,FF,40.13134766,95.35430908,1,0,0,response1disk_5,7,1.1173,14.59973145,-2.152648926,1,0,0,rectangle_8,14.59973145,-2.152648926,1,0,0,14.59973145,-2.152648926,1,0,0,0,5,5,3,1,610061db544105dd7a6ede2c,61036dc7d8f897a2c9ba30f7,2021-07-29_20h11.41.541,Simcolourproject_2stim_asymm_v5,2020.2.10,MacIntel,60,61025ae37ef11b136ea224fe,,,,,,,,,,,,,,,,,,,,,,,,,,,,,,,,,,,,,,,
,,,,,,,,,,,,138,PF,-22.89129639,-73.45202637,1,0,0,response5disk_5,3,1.3563,13.33740234,-3.281433105,1,0,0,rectangle_8,13.33740234,-3.281433105,1,0,0,13.33740234,-3.281433105,1,0,0,0,6,6,6,1,610061db544105dd7a6ede2c,61036dc7d8f897a2c9ba30f7,2021-07-29_20h11.41.541,Simcolourproject_2stim_asymm_v5,2020.2.10,MacIntel,60,61025ae37ef11b136ea224fe,,,,,,,,,,,,,,,,,,,,,,,,,,,,,,,,,,,,,,,
,,,,,,,,,,,,,FF,,,,,,,,1.5835,,,,,,,,,,,,,,,,,,,,,,610061db544105dd7a6ede2c,61036dc7d8f897a2c9ba30f7,2021-07-29_20h11.41.541,Simcolourproject_2stim_asymm_v5,2020.2.10,MacIntel,60,61025ae37ef11b136ea224fe,,,,,,,space,1.5355,3153,-70.02178955,24.38549805,1,0,0,response7disk,,1,6.881103516,2.822418213,1,0,0,rectangle,6.881103516,2.822418213,1,0,0,6.881103516,2.822418213,1,0,0,0,0,0,70,1,
,,,,,,,,,,,,,FF,,,,,,,,3.1998,,,,,,,,,,,,,,,,,,,,,,610061db544105dd7a6ede2c,61036dc7d8f897a2c9ba30f7,2021-07-29_20h11.41.541,Simcolourproject_2stim_asymm_v5,2020.2.10,MacIntel,60,61025ae37ef11b136ea224fe,,,,,,,,,221,-28.49707031,-82.97973633,1,0,0,response5disk,,3,-6.655761719,-3.817443848,1,0,0,rectangle,-6.655761719,-3.817443848,1,0,0,-6.655761719,-3.817443848,1,0,0,0,1,1,9,1,
,,,,,,,,,,,,,FF,,,,,,,,1.1828,,,,,,,,,,,,,,,,,,,,,,610061db544105dd7a6ede2c,61036dc7d8f897a2c9ba30f7,2021-07-29_20h11.41.541,Simcolourproject_2stim_asymm_v5,2020.2.10,MacIntel,60,61025ae37ef11b136ea224fe,,,,,,,,,3478,-43.40405273,67.04489136,1,0,0,response7disk,,0,8.766845703,-6.501434326,1,0,0,rectangle,8.766845703,-6.501434326,1,0,0,8.766845703,-6.501434326,1,0,0,0,2,2,18,1,
,,,,,,,,,,,,,FF,,,,,,,,1.3163,,,,,,,,,,,,,,,,,,,,,,610061db544105dd7a6ede2c,61036dc7d8f897a2c9ba30f7,2021-07-29_20h11.41.541,Simcolourproject_2stim_asymm_v5,2020.2.10,MacIntel,60,61025ae37ef11b136ea224fe,,,,,,,,,3465,79.33935547,-125.0992432,1,0,0,response3disk,,4,5.851379395,-5.485595703,1,0,0,rectangle,5.851379395,-5.485595703,1,0,0,5.851379395,-5.485595703,1,0,0,0,3,3,58,1,
,,,,,,,,,,,,,FF,,,,,,,,0.7828,,,,,,,,,,,,,,,,,,,,,,610061db544105dd7a6ede2c,61036dc7d8f897a2c9ba30f7,2021-07-29_20h11.41.541,Simcolourproject_2stim_asymm_v5,2020.2.10,MacIntel,60,61025ae37ef11b136ea224fe,,,,,,,,,156,36.50085449,95.22097778,1,0,0,response1disk,,7,9.241394043,-5.355895996,1,0,0,rectangle,9.241394043,-5.355895996,1,0,0,9.241394043,-5.355895996,1,0,0,0,4,4,37,1,
,,,,,,,,,,,,,FF,,,,,,,,1.0165,,,,,,,,,,,,,,,,,,,,,,610061db544105dd7a6ede2c,61036dc7d8f897a2c9ba30f7,2021-07-29_20h11.41.541,Simcolourproject_2stim_asymm_v5,2020.2.10,MacIntel,60,61025ae37ef11b136ea224fe,,,,,,,,,3017,-85.59063721,-55.34613037,1,0,0,response5disk,,2,-0.381896973,-7.20892334,1,0,0,rectangle,-0.381896973,-7.20892334,1,0,0,-0.381896973,-7.20892334,1,0,0,0,5,5,89,1,
,,,,,,,,,,,,,FF,,,,,,,,1.2332,,,,,,,,,,,,,,,,,,,,,,610061db544105dd7a6ede2c,61036dc7d8f897a2c9ba30f7,2021-07-29_20h11.41.541,Simcolourproject_2stim_asymm_v5,2020.2.10,MacIntel,60,61025ae37ef11b136ea224fe,,,,,,,,,2185,83.9520874,-57.30352783,1,0,0,response3disk,,5,18.64941406,-7.160705566,1,0,0,rectangle,18.64941406,-7.160705566,1,0,0,18.64941406,-7.160705566,1,0,0,0,6,6,69,1,
,,,,,,,,,,,,,FF,,,,,,,,0.0329,,,,,,,,,,,,,,,,,,,,,,610061db544105dd7a6ede2c,61036dc7d8f897a2c9ba30f7,2021-07-29_20h11.41.541,Simcolourproject_2stim_asymm_v5,2020.2.10,MacIntel,60,61025ae37ef11b136ea224fe,,,,,,,,,2733,51.8805542,76.35876465,1,0,0,response1disk,,7,-4.043457031,5.794342041,1,0,0,rectangle,-4.043457031,5.794342041,1,0,0,-4.043457031,5.794342041,1,0,0,0,7,7,135,1,
,,,,,,,,,,,,,FF,,,,,,,,1.1,,,,,,,,,,,,,,,,,,,,,,610061db544105dd7a6ede2c,61036dc7d8f897a2c9ba30f7,2021-07-29_20h11.41.541,Simcolourproject_2stim_asymm_v5,2020.2.10,MacIntel,60,61025ae37ef11b136ea224fe,,,,,,,,,153,-75.05871582,-62.79528809,1,0,0,response5disk,,2,12.30871582,-4.412353516,1,0,0,rectangle,12.30871582,-4.412353516,1,0,0,12.30871582,-4.412353516,1,0,0,0,8,8,91,1,
,,,,,,,,,,,,,FF,,,,,,,,1.2336,,,,,,,,,,,,,,,,,,,,,,610061db544105dd7a6ede2c,61036dc7d8f897a2c9ba30f7,2021-07-29_20h11.41.541,Simcolourproject_2stim_asymm_v5,2020.2.10,MacIntel,60,61025ae37ef11b136ea224fe,,,,,,,,,4339,-33.7989502,84.23999023,1,0,0,response7disk,,0,6.540344238,-0.057617188,1,0,0,rectangle,6.540344238,-0.057617188,1,0,0,6.540344238,-0.057617188,1,0,0,0,9,9,99,1,
,,,,,,,,,,,,,FF,,,,,,,,0.9839,,,,,,,,,,,,,,,,,,,,,,610061db544105dd7a6ede2c,61036dc7d8f897a2c9ba30f7,2021-07-29_20h11.41.541,Simcolourproject_2stim_asymm_v5,2020.2.10,MacIntel,60,61025ae37ef11b136ea224fe,,,,,,,,,371,-73.64526367,-30.31939697,1,0,0,response5disk,,2,21.4876709,-15.70046997,1,0,0,rectangle,21.4876709,-15.70046997,1,0,0,21.4876709,-15.70046997,1,0,0,0,10,10,81,1,
,,,,,,,,,,,,,FF,,,,,,,,0.6517,,,,,,,,,,,,,,,,,,,,,,610061db544105dd7a6ede2c,61036dc7d8f897a2c9ba30f7,2021-07-29_20h11.41.541,Simcolourproject_2stim_asymm_v5,2020.2.10,MacIntel,60,61025ae37ef11b136ea224fe,,,,,,,,,3910,-60.96496582,-39.32763672,1,0,0,response5disk,,2,-10.53570557,-12.63739014,1,0,0,rectangle,-10.53570557,-12.63739014,1,0,0,-10.53570557,-12.63739014,1,0,0,0,11,11,50,1,
,,,,,,,,,,,,,FF,,,,,,,,0.7497,,,,,,,,,,,,,,,,,,,,,,610061db544105dd7a6ede2c,61036dc7d8f897a2c9ba30f7,2021-07-29_20h11.41.541,Simcolourproject_2stim_asymm_v5,2020.2.10,MacIntel,60,61025ae37ef11b136ea224fe,,,,,,,,,2750,46.54345703,106.480835,1,0,0,response1disk,,7,14.68927002,-6.450256348,1,0,0,rectangle,14.68927002,-6.450256348,1,0,0,14.68927002,-6.450256348,1,0,0,0,12,12,79,1,
,,,,,,,,,,,,,FF,,,,,,,,0.9003,,,,,,,,,,,,,,,,,,,,,,610061db544105dd7a6ede2c,61036dc7d8f897a2c9ba30f7,2021-07-29_20h11.41.541,Simcolourproject_2stim_asymm_v5,2020.2.10,MacIntel,60,61025ae37ef11b136ea224fe,,,,,,,,,3567,52.17681885,-57.11749268,1,0,0,response3disk,,4,-12.98974609,-14.35015869,1,0,0,rectangle,-12.98974609,-14.35015869,1,0,0,-12.98974609,-14.35015869,1,0,0,0,13,13,97,1,
,,,,,,,,,,,,,FF,,,,,,,,1.8836,,,,,,,,,,,,,,,,,,,,,,610061db544105dd7a6ede2c,61036dc7d8f897a2c9ba30f7,2021-07-29_20h11.41.541,Simcolourproject_2stim_asymm_v5,2020.2.10,MacIntel,60,61025ae37ef11b136ea224fe,,,,,,,,,2532,-35.4161377,-79.8359375,1,0,0,response5disk,,3,2.526123047,12.56781006,1,0,0,rectangle,2.526123047,12.56781006,1,0,0,2.526123047,12.56781006,1,0,0,0,14,14,29,1,
,,,,,,,,,,,,,FF,,,,,,,,0.9336,,,,,,,,,,,,,,,,,,,,,,610061db544105dd7a6ede2c,61036dc7d8f897a2c9ba30f7,2021-07-29_20h11.41.541,Simcolourproject_2stim_asymm_v5,2020.2.10,MacIntel,60,61025ae37ef11b136ea224fe,,,,,,,,,3962,43.01300049,86.75442505,1,0,0,response1disk,,7,21.63128662,-0.663818359,1,0,0,rectangle,21.63128662,-0.663818359,1,0,0,21.63128662,-0.663818359,1,0,0,0,15,15,65,1,
,,,,,,,,,,,,,FF,,,,,,,,0.9506,,,,,,,,,,,,,,,,,,,,,,610061db544105dd7a6ede2c,61036dc7d8f897a2c9ba30f7,2021-07-29_20h11.41.541,Simcolourproject_2stim_asymm_v5,2020.2.10,MacIntel,60,61025ae37ef11b136ea224fe,,,,,,,,,1196,-67.10510254,28.09411621,1,0,0,response7disk,,1,-2.477478027,11.21810913,1,0,0,rectangle,-2.477478027,11.21810913,1,0,0,-2.477478027,11.21810913,1,0,0,0,16,16,63,1,
,,,,,,,,,,,,,FF,,,,,,,,0.8503,,,,,,,,,,,,,,,,,,,,,,610061db544105dd7a6ede2c,61036dc7d8f897a2c9ba30f7,2021-07-29_20h11.41.541,Simcolourproject_2stim_asymm_v5,2020.2.10,MacIntel,60,61025ae37ef11b136ea224fe,,,,,,,,,2450,37.47143555,81.51959229,1,0,0,response1disk,,7,31.78234863,-5.104187012,1,0,0,rectangle,31.78234863,-5.104187012,1,0,0,31.78234863,-5.104187012,1,0,0,0,17,17,4,1,
,,,,,,,,,,,,,FF,,,,,,,,1.0163,,,,,,,,,,,,,,,,,,,,,,610061db544105dd7a6ede2c,61036dc7d8f897a2c9ba30f7,2021-07-29_20h11.41.541,Simcolourproject_2stim_asymm_v5,2020.2.10,MacIntel,60,61025ae37ef11b136ea224fe,,,,,,,,,1907,-90.8215332,-53.96148682,1,0,0,response5disk,,2,-3.1796875,9.473754883,1,0,0,rectangle,-3.1796875,9.473754883,1,0,0,-3.1796875,9.473754883,1,0,0,0,18,18,116,1,
,,,,,,,,,,,,,FF,,,,,,,,1.15,,,,,,,,,,,,,,,,,,,,,,610061db544105dd7a6ede2c,61036dc7d8f897a2c9ba30f7,2021-07-29_20h11.41.541,Simcolourproject_2stim_asymm_v5,2020.2.10,MacIntel,60,61025ae37ef11b136ea224fe,,,,,,,,,2634,76.75280762,38.53286743,1,0,0,response1disk,,6,2.814453125,-11.74975586,1,0,0,rectangle,2.814453125,-11.74975586,1,0,0,2.814453125,-11.74975586,1,0,0,0,19,19,28,1,
,,,,,,,,,,,,,FF,,,,,,,,0.6499,,,,,,,,,,,,,,,,,,,,,,610061db544105dd7a6ede2c,61036dc7d8f897a2c9ba30f7,2021-07-29_20h11.41.541,Simcolourproject_2stim_asymm_v5,2020.2.10,MacIntel,60,61025ae37ef11b136ea224fe,,,,,,,,,4110,70.10003662,39.44857788,1,0,0,response1disk,,6,16.08105469,-1.830841064,1,0,0,rectangle,16.08105469,-1.830841064,1,0,0,16.08105469,-1.830841064,1,0,0,0,20,20,115,1,
,,,,,,,,,,,,,FF,,,,,,,,0.6657,,,,,,,,,,,,,,,,,,,,,,610061db544105dd7a6ede2c,61036dc7d8f897a2c9ba30f7,2021-07-29_20h11.41.541,Simcolourproject_2stim_asymm_v5,2020.2.10,MacIntel,60,61025ae37ef11b136ea224fe,,,,,,,,,2812,104.4747314,-69.18328857,1,0,0,response3disk,,5,12.72717285,-5.444458008,1,0,0,rectangle,12.72717285,-5.444458008,1,0,0,12.72717285,-5.444458008,1,0,0,0,21,21,111,1,
,,,,,,,,,,,,,FF,,,,,,,,0.6495,,,,,,,,,,,,,,,,,,,,,,610061db544105dd7a6ede2c,61036dc7d8f897a2c9ba30f7,2021-07-29_20h11.41.541,Simcolourproject_2stim_asymm_v5,2020.2.10,MacIntel,60,61025ae37ef11b136ea224fe,,,,,,,,,399,-29.07580566,-67.87231445,1,0,0,response5disk,,3,0.654541016,-1.156829834,1,0,0,rectangle,0.654541016,-1.156829834,1,0,0,0.654541016,-1.156829834,1,0,0,0,22,22,159,1,
,,,,,,,,,,,,,FF,,,,,,,,1.0845,,,,,,,,,,,,,,,,,,,,,,610061db544105dd7a6ede2c,61036dc7d8f897a2c9ba30f7,2021-07-29_20h11.41.541,Simcolourproject_2stim_asymm_v5,2020.2.10,MacIntel,60,61025ae37ef11b136ea224fe,,,,,,,,,1000,62.050354,48.67828369,1,0,0,response1disk,,6,-1.980712891,-4.630249023,1,0,0,rectangle,-1.980712891,-4.630249023,1,0,0,-1.980712891,-4.630249023,1,0,0,0,23,23,130,1,
,,,,,,,,,,,,,FF,,,,,,,,0.7836,,,,,,,,,,,,,,,,,,,,,,610061db544105dd7a6ede2c,61036dc7d8f897a2c9ba30f7,2021-07-29_20h11.41.541,Simcolourproject_2stim_asymm_v5,2020.2.10,MacIntel,60,61025ae37ef11b136ea224fe,,,,,,,,,2164,-35.8494873,79.9664917,1,0,0,response7disk,,0,-5.506713867,13.93237305,1,0,0,rectangle,-5.506713867,13.93237305,1,0,0,-5.506713867,13.93237305,1,0,0,0,24,24,17,1,
,,,,,,,,,,,,,FF,,,,,,,,0.7333,,,,,,,,,,,,,,,,,,,,,,610061db544105dd7a6ede2c,61036dc7d8f897a2c9ba30f7,2021-07-29_20h11.41.541,Simcolourproject_2stim_asymm_v5,2020.2.10,MacIntel,60,61025ae37ef11b136ea224fe,,,,,,,,,2730,-66.51580811,-42.48400879,1,0,0,response5disk,,2,10.04162598,-7.000915527,1,0,0,rectangle,10.04162598,-7.000915527,1,0,0,10.04162598,-7.000915527,1,0,0,0,25,25,46,1,
,,,,,,,,,,,,,FF,,,,,,,,1.1667,,,,,,,,,,,,,,,,,,,,,,610061db544105dd7a6ede2c,61036dc7d8f897a2c9ba30f7,2021-07-29_20h11.41.541,Simcolourproject_2stim_asymm_v5,2020.2.10,MacIntel,60,61025ae37ef11b136ea224fe,,,,,,,,,3424,52.793396,-80.02294922,1,0,0,response3disk,,4,-8.292297363,-4.140869141,1,0,0,rectangle,-8.292297363,-4.140869141,1,0,0,-8.292297363,-4.140869141,1,0,0,0,26,26,77,1,
,,,,,,,,,,,,,FF,,,,,,,,0.6828,,,,,,,,,,,,,,,,,,,,,,610061db544105dd7a6ede2c,61036dc7d8f897a2c9ba30f7,2021-07-29_20h11.41.541,Simcolourproject_2stim_asymm_v5,2020.2.10,MacIntel,60,61025ae37ef11b136ea224fe,,,,,,,,,3124,45.41552734,79.89498901,1,0,0,response1disk,,7,6.338439941,-8.873962402,1,0,0,rectangle,6.338439941,-8.873962402,1,0,0,6.338439941,-8.873962402,1,0,0,0,27,27,133,1,
,,,,,,,,,,,,,FF,,,,,,,,1.0834,,,,,,,,,,,,,,,,,,,,,,610061db544105dd7a6ede2c,61036dc7d8f897a2c9ba30f7,2021-07-29_20h11.41.541,Simcolourproject_2stim_asymm_v5,2020.2.10,MacIntel,60,61025ae37ef11b136ea224fe,,,,,,,,,1222,-64.01739502,-48.37841797,1,0,0,response5disk,,2,14.08129883,1.492156982,1,0,0,rectangle,14.08129883,1.492156982,1,0,0,14.08129883,1.492156982,1,0,0,0,28,28,125,1,
,,,,,,,,,,,,,FF,,,,,,,,0.8005,,,,,,,,,,,,,,,,,,,,,,610061db544105dd7a6ede2c,61036dc7d8f897a2c9ba30f7,2021-07-29_20h11.41.541,Simcolourproject_2stim_asymm_v5,2020.2.10,MacIntel,60,61025ae37ef11b136ea224fe,,,,,,,,,1854,-86.26879883,-44.54760742,1,0,0,response5disk,,2,-1.041503906,-11.85803223,1,0,0,rectangle,-1.041503906,-11.85803223,1,0,0,-1.041503906,-11.85803223,1,0,0,0,29,29,67,1,
,,,,,,,,,,,,,FF,,,,,,,,0.5834,,,,,,,,,,,,,,,,,,,,,,610061db544105dd7a6ede2c,61036dc7d8f897a2c9ba30f7,2021-07-29_20h11.41.541,Simcolourproject_2stim_asymm_v5,2020.2.10,MacIntel,60,61025ae37ef11b136ea224fe,,,,,,,,,209,70.09973145,38.23205566,1,0,0,response1disk,,6,-6.725524902,-12.45678711,1,0,0,rectangle,-6.725524902,-12.45678711,1,0,0,-6.725524902,-12.45678711,1,0,0,0,30,30,152,1,
,,,,,,,,,,,,,FF,,,,,,,,0.7669,,,,,,,,,,,,,,,,,,,,,,610061db544105dd7a6ede2c,61036dc7d8f897a2c9ba30f7,2021-07-29_20h11.41.541,Simcolourproject_2stim_asymm_v5,2020.2.10,MacIntel,60,61025ae37ef11b136ea224fe,,,,,,,,,357,18.86572266,97.56454468,1,0,0,response1disk,,7,-0.699279785,-2.985595703,1,0,0,rectangle,-0.699279785,-2.985595703,1,0,0,-0.699279785,-2.985595703,1,0,0,0,31,31,87,1,
,,,,,,,,,,,,,FF,,,,,,,,2.3838,,,,,,,,,,,,,,,,,,,,,,610061db544105dd7a6ede2c,61036dc7d8f897a2c9ba30f7,2021-07-29_20h11.41.541,Simcolourproject_2stim_asymm_v5,2020.2.10,MacIntel,60,61025ae37ef11b136ea224fe,,,,,,,,,2649,72.08636475,16.51800537,1,0,0,response1disk,,6,21.55780029,2.005004883,1,0,0,rectangle,21.55780029,2.005004883,1,0,0,21.55780029,2.005004883,1,0,0,0,32,32,90,1,
,,,,,,,,,,,,,FF,,,,,,,,0.8336,,,,,,,,,,,,,,,,,,,,,,610061db544105dd7a6ede2c,61036dc7d8f897a2c9ba30f7,2021-07-29_20h11.41.541,Simcolourproject_2stim_asymm_v5,2020.2.10,MacIntel,60,61025ae37ef11b136ea224fe,,,,,,,,,2490,-33.78967285,-69.38812256,1,0,0,response5disk,,3,22.18041992,-4.555389404,1,0,0,rectangle,22.18041992,-4.555389404,1,0,0,22.18041992,-4.555389404,1,0,0,0,33,33,155,1,
,,,,,,,,,,,,,FF,,,,,,,,0.8832,,,,,,,,,,,,,,,,,,,,,,610061db544105dd7a6ede2c,61036dc7d8f897a2c9ba30f7,2021-07-29_20h11.41.541,Simcolourproject_2stim_asymm_v5,2020.2.10,MacIntel,60,61025ae37ef11b136ea224fe,,,,,,,,,3292,-17.29150391,-77.66687012,1,0,0,response5disk,,3,13.17004395,-4.801940918,1,0,0,rectangle,13.17004395,-4.801940918,1,0,0,13.17004395,-4.801940918,1,0,0,0,34,34,57,1,
,,,,,,,,,,,,,FF,,,,,,,,1.3338,,,,,,,,,,,,,,,,,,,,,,610061db544105dd7a6ede2c,61036dc7d8f897a2c9ba30f7,2021-07-29_20h11.41.541,Simcolourproject_2stim_asymm_v5,2020.2.10,MacIntel,60,61025ae37ef11b136ea224fe,,,,,,,,,4357,-41.62487793,-37.48126221,1,0,0,response5disk,,2,-10.50500488,-8.718688965,1,0,0,rectangle,-10.50500488,-8.718688965,1,0,0,-10.50500488,-8.718688965,1,0,0,0,35,35,5,1,
,,,,,,,,,,,,,FF,,,,,,,,0.8342,,,,,,,,,,,,,,,,,,,,,,610061db544105dd7a6ede2c,61036dc7d8f897a2c9ba30f7,2021-07-29_20h11.41.541,Simcolourproject_2stim_asymm_v5,2020.2.10,MacIntel,60,61025ae37ef11b136ea224fe,,,,,,,,,2968,71.85797119,98.59130859,1,0,0,response1disk,,7,-0.87097168,-1.56842041,1,0,0,rectangle,-0.87097168,-1.56842041,1,0,0,-0.87097168,-1.56842041,1,0,0,0,36,36,53,1,
,,,,,,,,,,,,,FF,,,,,,,,1.6336,,,,,,,,,,,,,,,,,,,,,,610061db544105dd7a6ede2c,61036dc7d8f897a2c9ba30f7,2021-07-29_20h11.41.541,Simcolourproject_2stim_asymm_v5,2020.2.10,MacIntel,60,61025ae37ef11b136ea224fe,,,,,,,,,2396,-75.62597656,-42.57781982,1,0,0,response5disk,,2,-5.50982666,-1.558959961,1,0,0,rectangle,-5.50982666,-1.558959961,1,0,0,-5.50982666,-1.558959961,1,0,0,0,37,37,143,1,
,,,,,,,,,,,,,FF,,,,,,,,0.6335,,,,,,,,,,,,,,,,,,,,,,610061db544105dd7a6ede2c,61036dc7d8f897a2c9ba30f7,2021-07-29_20h11.41.541,Simcolourproject_2stim_asymm_v5,2020.2.10,MacIntel,60,61025ae37ef11b136ea224fe,,,,,,,,,1731,-65.98205566,-30.42169189,1,0,0,response5disk,,2,-8.76965332,-7.154693604,1,0,0,rectangle,-8.76965332,-7.154693604,1,0,0,-8.76965332,-7.154693604,1,0,0,0,38,38,45,1,
,,,,,,,,,,,,,FF,,,,,,,,0.7502,,,,,,,,,,,,,,,,,,,,,,610061db544105dd7a6ede2c,61036dc7d8f897a2c9ba30f7,2021-07-29_20h11.41.541,Simcolourproject_2stim_asymm_v5,2020.2.10,MacIntel,60,61025ae37ef11b136ea224fe,,,,,,,,,749,50.13049316,-87.96929932,1,0,0,response3disk,,4,9.357177734,-7.122314453,1,0,0,rectangle,9.357177734,-7.122314453,1,0,0,9.357177734,-7.122314453,1,0,0,0,39,39,51,1,
,,,,,,,,,,,,,FF,,,,,,,,2.7167,,,,,,,,,,,,,,,,,,,,,,610061db544105dd7a6ede2c,61036dc7d8f897a2c9ba30f7,2021-07-29_20h11.41.541,Simcolourproject_2stim_asymm_v5,2020.2.10,MacIntel,60,61025ae37ef11b136ea224fe,,,,,,,,,4152,59.63293457,-32.43408203,1,0,0,response3disk,,5,3.795959473,3.855773926,1,0,0,rectangle,3.795959473,3.855773926,1,0,0,3.795959473,3.855773926,1,0,0,0,40,40,114,1,
,,,,,,,,,,,,,FF,,,,,,,,0.7832,,,,,,,,,,,,,,,,,,,,,,610061db544105dd7a6ede2c,61036dc7d8f897a2c9ba30f7,2021-07-29_20h11.41.541,Simcolourproject_2stim_asymm_v5,2020.2.10,MacIntel,60,61025ae37ef11b136ea224fe,,,,,,,,,2219,-64.5970459,-85.02868652,1,0,0,response5disk,,3,-7.274536133,-11.31970215,1,0,0,rectangle,-7.274536133,-11.31970215,1,0,0,-7.274536133,-11.31970215,1,0,0,0,41,41,75,1,
