key_resp.keys,key_resp.rt,key_resp_14.keys,key_resp_14.rt,key_resp_15.keys,key_resp_15.rt,key_resp_17.keys,key_resp_17.rt,key_resp_9.keys,key_resp_9.rt,key_resp_10.keys,key_resp_10.rt,practice_comparison,Ecc,mouse_5.x,mouse_5.y,mouse_5.leftButton,mouse_5.midButton,mouse_5.rightButton,mouse_5.clicked_name,pracsimilarity,response_time,mouse_10.x,mouse_10.y,mouse_10.leftButton,mouse_10.midButton,mouse_10.rightButton,mouse_10.clicked_name,mouse_7.x,mouse_7.y,mouse_7.leftButton,mouse_7.midButton,mouse_7.rightButton,mouse_6.x,mouse_6.y,mouse_6.leftButton,mouse_6.midButton,mouse_6.rightButton,duringprac.thisRepN,duringprac.thisTrialN,duringprac.thisN,duringprac.thisIndex,duringprac.ran,participant,session,date,expName,psychopyVersion,OS,frameRate,study_id,mouse_7.clicked_name,catchpracsimilarity,catch_response_time,catchnumberprac,catchtrialorderprac,mouse_6.clicked_name,key_resp_22.keys,key_resp_22.rt,realcomparison,mouse.x,mouse.y,mouse.leftButton,mouse.midButton,mouse.rightButton,mouse.clicked_name,Colour2,similarity,mouse_2.x,mouse_2.y,mouse_2.leftButton,mouse_2.midButton,mouse_2.rightButton,mouse_2.clicked_name,mouse_3.x,mouse_3.y,mouse_3.leftButton,mouse_3.midButton,mouse_3.rightButton,mouse_11.x,mouse_11.y,mouse_11.leftButton,mouse_11.midButton,mouse_11.rightButton,trials_2.thisRepN,trials_2.thisTrialN,trials_2.thisN,trials_2.thisIndex,trials_2.ran,Colour1,mouse_3.clicked_name,catchornah,catchsimilarity,catchnumber,catchtrialorder,catchRT,mouse_11.clicked_name
space,2.3915,space,13.0672,space,29.243,space,3.6043,space,1.1284,space,3.8673,8,FF,-34.47265625,67.46484375,1,0,0,response7disk_5,0,19.2187,-22.0625,2.93359375,1,0,0,rectangle_8,-22.0625,2.93359375,1,0,0,-22.0625,2.93359375,1,0,0,0,0,0,3,1,610017622f038a5f947fc460,61036ccd13ce7b50865e3388,2021-07-29_23h07.46.459,Simcolourproject_2stim_asymm_v5,2020.2.10,MacIntel,60,61025ae37ef11b136ea224fe,,,,,,,,,,,,,,,,,,,,,,,,,,,,,,,,,,,,,,,,,,,,,,
,,,,,,,,,,,,48,FF,74.046875,58.19140625,1,0,0,response1disk_5,6,10.8836,14.265625,-2.0078125,1,0,0,rectangle_8,-33.30078125,-97.7734375,1,0,0,-0.46875,-3.9140625,1,0,0,0,1,1,0,1,610017622f038a5f947fc460,61036ccd13ce7b50865e3388,2021-07-29_23h07.46.459,Simcolourproject_2stim_asymm_v5,2020.2.10,MacIntel,60,61025ae37ef11b136ea224fe,response5disk_7,3,3.7183,3,"[2,5]",rectangle_4,,,,,,,,,,,,,,,,,,,,,,,,,,,,,,,,,,,,,,,,
,,,,,,,,,,,,48,PF,70.41015625,23.16796875,1,0,0,response1disk_5,6,7.335,-0.55078125,0.19140625,1,0,0,rectangle_8,-0.55078125,0.19140625,1,0,0,-0.55078125,0.19140625,1,0,0,0,2,2,6,1,610017622f038a5f947fc460,61036ccd13ce7b50865e3388,2021-07-29_23h07.46.459,Simcolourproject_2stim_asymm_v5,2020.2.10,MacIntel,60,61025ae37ef11b136ea224fe,,,,,,,,,,,,,,,,,,,,,,,,,,,,,,,,,,,,,,,,,,,,,,
,,,,,,,,,,,,120,PF,41.765625,-59.73046875,1,0,0,response3disk_5,4,11.1972,16.93359375,7.22265625,1,0,0,rectangle_8,16.93359375,7.22265625,1,0,0,16.93359375,7.22265625,1,0,0,0,3,3,4,1,610017622f038a5f947fc460,61036ccd13ce7b50865e3388,2021-07-29_23h07.46.459,Simcolourproject_2stim_asymm_v5,2020.2.10,MacIntel,60,61025ae37ef11b136ea224fe,,,,,,,,,,,,,,,,,,,,,,,,,,,,,,,,,,,,,,,,,,,,,,
,,,,,,,,,,,,73,PF,101.3242188,48.6796875,1,0,0,response1disk_5,6,3.9687,-13.50390625,-1.86328125,1,0,0,rectangle_8,-66.875,-90.21875,1,0,0,-7.08984375,14.0625,1,0,0,0,4,4,2,1,610017622f038a5f947fc460,61036ccd13ce7b50865e3388,2021-07-29_23h07.46.459,Simcolourproject_2stim_asymm_v5,2020.2.10,MacIntel,60,61025ae37ef11b136ea224fe,response5disk_7,3,1.8828,3,"[2,5]",rectangle_4,,,,,,,,,,,,,,,,,,,,,,,,,,,,,,,,,,,,,,,,
,,,,,,,,,,,,101,PF,46.34375,-95.23828125,1,0,0,response3disk_5,4,4.3994,10.44921875,4.015625,1,0,0,rectangle_8,10.44921875,4.015625,1,0,0,10.44921875,4.015625,1,0,0,0,5,5,1,1,610017622f038a5f947fc460,61036ccd13ce7b50865e3388,2021-07-29_23h07.46.459,Simcolourproject_2stim_asymm_v5,2020.2.10,MacIntel,60,61025ae37ef11b136ea224fe,,,,,,,,,,,,,,,,,,,,,,,,,,,,,,,,,,,,,,,,,,,,,,
,,,,,,,,,,,,94,FF,-72.015625,53.36328125,1,0,0,response7disk_5,1,2.7998,-19.40625,12.1953125,1,0,0,rectangle_8,-19.40625,12.1953125,1,0,0,-19.40625,12.1953125,1,0,0,0,6,6,5,1,610017622f038a5f947fc460,61036ccd13ce7b50865e3388,2021-07-29_23h07.46.459,Simcolourproject_2stim_asymm_v5,2020.2.10,MacIntel,60,61025ae37ef11b136ea224fe,,,,,,,,,,,,,,,,,,,,,,,,,,,,,,,,,,,,,,,,,,,,,,
,,,,,,,,,,,,,FF,,,,,,,,3.3191,,,,,,,,,,,,,,,,,,,,,,610017622f038a5f947fc460,61036ccd13ce7b50865e3388,2021-07-29_23h07.46.459,Simcolourproject_2stim_asymm_v5,2020.2.10,MacIntel,60,61025ae37ef11b136ea224fe,,,,,,,space,3.2513,1516,46.09765625,-64.4375,1,0,0,response3disk,,4,14.86328125,-15.28515625,1,0,0,rectangle,14.86328125,-15.28515625,1,0,0,14.86328125,-15.28515625,1,0,0,0,0,0,121,1,,,,,,,,
,,,,,,,,,,,,,FF,,,,,,,,4.2514,,,,,,,,,,,,,,,,,,,,,,610017622f038a5f947fc460,61036ccd13ce7b50865e3388,2021-07-29_23h07.46.459,Simcolourproject_2stim_asymm_v5,2020.2.10,MacIntel,60,61025ae37ef11b136ea224fe,,,,,,,,,4339,-91.94921875,69.13671875,1,0,0,response7disk,,1,-7.20703125,2.5546875,1,0,0,rectangle,-7.20703125,2.5546875,1,0,0,-7.20703125,2.5546875,1,0,0,0,1,1,127,1,,,,,,,,
,,,,,,,,,,,,,FF,,,,,,,,2.899,,,,,,,,,,,,,,,,,,,,,,610017622f038a5f947fc460,61036ccd13ce7b50865e3388,2021-07-29_23h07.46.459,Simcolourproject_2stim_asymm_v5,2020.2.10,MacIntel,60,61025ae37ef11b136ea224fe,,,,,,,,,1193,-68.91796875,-101.5078125,1,0,0,response5disk,,3,-14.5546875,-9.015625,1,0,0,rectangle,-14.5546875,-9.015625,1,0,0,-14.5546875,-9.015625,1,0,0,0,2,2,146,1,,,,,,,,
,,,,,,,,,,,,,FF,,,,,,,,1.8007,,,,,,,,,,,,,,,,,,,,,,610017622f038a5f947fc460,61036ccd13ce7b50865e3388,2021-07-29_23h07.46.459,Simcolourproject_2stim_asymm_v5,2020.2.10,MacIntel,60,61025ae37ef11b136ea224fe,,,,,,,,,2298,-71.25390625,-41.02734375,1,0,0,response5disk,,2,-26.90625,-5.20703125,1,0,0,rectangle,-26.90625,-5.20703125,1,0,0,-26.90625,-5.20703125,1,0,0,0,3,3,155,1,,,,,,,,
,,,,,,,,,,,,,FF,,,,,,,,3.5683,,,,,,,,,,,,,,,,,,,,,,610017622f038a5f947fc460,61036ccd13ce7b50865e3388,2021-07-29_23h07.46.459,Simcolourproject_2stim_asymm_v5,2020.2.10,MacIntel,60,61025ae37ef11b136ea224fe,,,,,,,,,385,-52.3359375,-83.80859375,1,0,0,response5disk,,3,-23.2578125,0.39453125,1,0,0,rectangle,-23.2578125,0.39453125,1,0,0,-23.2578125,0.39453125,1,0,0,0,4,4,71,1,,,,,,,,
,,,,,,,,,,,,,FF,,,,,,,,1.7672,,,,,,,,,,,,,,,,,,,,,,610017622f038a5f947fc460,61036ccd13ce7b50865e3388,2021-07-29_23h07.46.459,Simcolourproject_2stim_asymm_v5,2020.2.10,MacIntel,60,61025ae37ef11b136ea224fe,,,,,,,,,1326,76.96484375,-49.52734375,1,0,0,response3disk,,5,26.09375,8.8125,1,0,0,rectangle,26.09375,8.8125,1,0,0,26.09375,8.8125,1,0,0,0,5,5,35,1,,,,,,,,
,,,,,,,,,,,,,FF,,,,,,,,5.2856,,,,,,,,,,,,,,,,,,,,,,610017622f038a5f947fc460,61036ccd13ce7b50865e3388,2021-07-29_23h07.46.459,Simcolourproject_2stim_asymm_v5,2020.2.10,MacIntel,60,61025ae37ef11b136ea224fe,,,,,,,,,2170,63.5625,40.65625,1,0,0,response1disk,,6,0.72265625,0.69140625,1,0,0,rectangle,0.72265625,0.69140625,1,0,0,0.72265625,0.69140625,1,0,0,0,6,6,105,1,,,,,,,,
,,,,,,,,,,,,,FF,,,,,,,,3.352,,,,,,,,,,,,,,,,,,,,,,610017622f038a5f947fc460,61036ccd13ce7b50865e3388,2021-07-29_23h07.46.459,Simcolourproject_2stim_asymm_v5,2020.2.10,MacIntel,60,61025ae37ef11b136ea224fe,,,,,,,,,1648,59.8984375,37.4921875,1,0,0,response1disk,,6,-4.3203125,5.2578125,1,0,0,rectangle,-101.1914063,62.87109375,1,0,0,7.84375,-11.77734375,1,0,0,0,7,7,32,1,,response7disk_3,TRUE,1,1,"[101,93,30,116,46,253,173,97,8,151,262,24,281,262,29,77,205,310,218,133]",1.8669,rectangle
,,,,,,,,,,,,,FF,,,,,,,,2.4501,,,,,,,,,,,,,,,,,,,,,,610017622f038a5f947fc460,61036ccd13ce7b50865e3388,2021-07-29_23h07.46.459,Simcolourproject_2stim_asymm_v5,2020.2.10,MacIntel,60,61025ae37ef11b136ea224fe,,,,,,,,,476,-93.71875,-49.42578125,1,0,0,response5disk,,2,-6.125,5.0703125,1,0,0,rectangle,-6.125,5.0703125,1,0,0,-6.125,5.0703125,1,0,0,0,8,8,72,1,,,,,,,,
,,,,,,,,,,,,,FF,,,,,,,,3.149,,,,,,,,,,,,,,,,,,,,,,610017622f038a5f947fc460,61036ccd13ce7b50865e3388,2021-07-29_23h07.46.459,Simcolourproject_2stim_asymm_v5,2020.2.10,MacIntel,60,61025ae37ef11b136ea224fe,,,,,,,,,1302,-64.359375,-105.8398438,1,0,0,response5disk,,3,-3.96875,-8.0234375,1,0,0,rectangle,-3.96875,-8.0234375,1,0,0,-3.96875,-8.0234375,1,0,0,0,9,9,141,1,,,,,,,,
,,,,,,,,,,,,,FF,,,,,,,,2.0668,,,,,,,,,,,,,,,,,,,,,,610017622f038a5f947fc460,61036ccd13ce7b50865e3388,2021-07-29_23h07.46.459,Simcolourproject_2stim_asymm_v5,2020.2.10,MacIntel,60,61025ae37ef11b136ea224fe,,,,,,,,,927,27.84765625,-89.3046875,1,0,0,response3disk,,4,-9.91015625,-2.41015625,1,0,0,rectangle,-9.91015625,-2.41015625,1,0,0,-9.91015625,-2.41015625,1,0,0,0,10,10,82,1,,,,,,,,
,,,,,,,,,,,,,FF,,,,,,,,2.6982,,,,,,,,,,,,,,,,,,,,,,610017622f038a5f947fc460,61036ccd13ce7b50865e3388,2021-07-29_23h07.46.459,Simcolourproject_2stim_asymm_v5,2020.2.10,MacIntel,60,61025ae37ef11b136ea224fe,,,,,,,,,1392,91.91015625,-62.50390625,1,0,0,response3disk,,5,5.58203125,-6.4921875,1,0,0,rectangle,5.58203125,-6.4921875,1,0,0,5.58203125,-6.4921875,1,0,0,0,11,11,120,1,,,,,,,,
,,,,,,,,,,,,,FF,,,,,,,,2.4138,,,,,,,,,,,,,,,,,,,,,,610017622f038a5f947fc460,61036ccd13ce7b50865e3388,2021-07-29_23h07.46.459,Simcolourproject_2stim_asymm_v5,2020.2.10,MacIntel,60,61025ae37ef11b136ea224fe,,,,,,,,,1263,96.5546875,-31.12109375,1,0,0,response3disk,,5,6.96484375,11.72265625,1,0,0,rectangle,6.96484375,11.72265625,1,0,0,6.96484375,11.72265625,1,0,0,0,12,12,151,1,,,,,,,,
,,,,,,,,,,,,,FF,,,,,,,,1.5983,,,,,,,,,,,,,,,,,,,,,,610017622f038a5f947fc460,61036ccd13ce7b50865e3388,2021-07-29_23h07.46.459,Simcolourproject_2stim_asymm_v5,2020.2.10,MacIntel,60,61025ae37ef11b136ea224fe,,,,,,,,,1759,-53.828125,-92.171875,1,0,0,response5disk,,3,-5.609375,-11.1484375,1,0,0,rectangle,-5.609375,-11.1484375,1,0,0,-5.609375,-11.1484375,1,0,0,0,13,13,134,1,,,,,,,,
,,,,,,,,,,,,,FF,,,,,,,,2.1851,,,,,,,,,,,,,,,,,,,,,,610017622f038a5f947fc460,61036ccd13ce7b50865e3388,2021-07-29_23h07.46.459,Simcolourproject_2stim_asymm_v5,2020.2.10,MacIntel,60,61025ae37ef11b136ea224fe,,,,,,,,,269,40.31640625,-65.94140625,1,0,0,response3disk,,4,16.44921875,-4.54296875,1,0,0,rectangle,16.44921875,-4.54296875,1,0,0,16.44921875,-4.54296875,1,0,0,0,14,14,98,1,,,,,,,,
,,,,,,,,,,,,,FF,,,,,,,,1.5643,,,,,,,,,,,,,,,,,,,,,,610017622f038a5f947fc460,61036ccd13ce7b50865e3388,2021-07-29_23h07.46.459,Simcolourproject_2stim_asymm_v5,2020.2.10,MacIntel,60,61025ae37ef11b136ea224fe,,,,,,,,,170,53.3359375,-66.04296875,1,0,0,response3disk,,4,-7.86328125,8.734375,1,0,0,rectangle,-7.86328125,8.734375,1,0,0,-7.86328125,8.734375,1,0,0,0,15,15,24,1,,,,,,,,
,,,,,,,,,,,,,FF,,,,,,,,1.6011,,,,,,,,,,,,,,,,,,,,,,610017622f038a5f947fc460,61036ccd13ce7b50865e3388,2021-07-29_23h07.46.459,Simcolourproject_2stim_asymm_v5,2020.2.10,MacIntel,60,61025ae37ef11b136ea224fe,,,,,,,,,2939,99.20703125,-32.21875,1,0,0,response3disk,,5,-6.3125,-9.51171875,1,0,0,rectangle,-6.3125,-9.51171875,1,0,0,-6.3125,-9.51171875,1,0,0,0,16,16,39,1,,,,,,,,
,,,,,,,,,,,,,FF,,,,,,,,1.0018,,,,,,,,,,,,,,,,,,,,,,610017622f038a5f947fc460,61036ccd13ce7b50865e3388,2021-07-29_23h07.46.459,Simcolourproject_2stim_asymm_v5,2020.2.10,MacIntel,60,61025ae37ef11b136ea224fe,,,,,,,,,1487,97.83203125,42.2734375,1,0,0,response1disk,,6,11.1796875,6.46875,1,0,0,rectangle,11.1796875,6.46875,1,0,0,11.1796875,6.46875,1,0,0,0,17,17,44,1,,,,,,,,
,,,,,,,,,,,,,FF,,,,,,,,1.8303,,,,,,,,,,,,,,,,,,,,,,610017622f038a5f947fc460,61036ccd13ce7b50865e3388,2021-07-29_23h07.46.459,Simcolourproject_2stim_asymm_v5,2020.2.10,MacIntel,60,61025ae37ef11b136ea224fe,,,,,,,,,690,66.0703125,-86.76171875,1,0,0,response3disk,,4,9.25,-6.40625,1,0,0,rectangle,9.25,-6.40625,1,0,0,9.25,-6.40625,1,0,0,0,18,18,159,1,,,,,,,,
,,,,,,,,,,,,,FF,,,,,,,,1.8333,,,,,,,,,,,,,,,,,,,,,,610017622f038a5f947fc460,61036ccd13ce7b50865e3388,2021-07-29_23h07.46.459,Simcolourproject_2stim_asymm_v5,2020.2.10,MacIntel,60,61025ae37ef11b136ea224fe,,,,,,,,,912,50.62109375,-84.96875,1,0,0,response3disk,,4,-15.5390625,16.40625,1,0,0,rectangle,-15.5390625,16.40625,1,0,0,-15.5390625,16.40625,1,0,0,0,19,19,133,1,,,,,,,,
,,,,,,,,,,,,,FF,,,,,,,,1.5176,,,,,,,,,,,,,,,,,,,,,,610017622f038a5f947fc460,61036ccd13ce7b50865e3388,2021-07-29_23h07.46.459,Simcolourproject_2stim_asymm_v5,2020.2.10,MacIntel,60,61025ae37ef11b136ea224fe,,,,,,,,,2277,52.19140625,-77.671875,1,0,0,response3disk,,4,-9.50390625,-0.08203125,1,0,0,rectangle,-9.50390625,-0.08203125,1,0,0,-9.50390625,-0.08203125,1,0,0,0,20,20,13,1,,,,,,,,
,,,,,,,,,,,,,FF,,,,,,,,1.9339,,,,,,,,,,,,,,,,,,,,,,610017622f038a5f947fc460,61036ccd13ce7b50865e3388,2021-07-29_23h07.46.459,Simcolourproject_2stim_asymm_v5,2020.2.10,MacIntel,60,61025ae37ef11b136ea224fe,,,,,,,,,535,100.1640625,-47.21875,1,0,0,response3disk,,5,9.44140625,5.37890625,1,0,0,rectangle,9.44140625,5.37890625,1,0,0,9.44140625,5.37890625,1,0,0,0,21,21,84,1,,,,,,,,
,,,,,,,,,,,,,FF,,,,,,,,1.684,,,,,,,,,,,,,,,,,,,,,,610017622f038a5f947fc460,61036ccd13ce7b50865e3388,2021-07-29_23h07.46.459,Simcolourproject_2stim_asymm_v5,2020.2.10,MacIntel,60,61025ae37ef11b136ea224fe,,,,,,,,,1020,92.625,-57.07421875,1,0,0,response3disk,,5,8.8515625,15.96875,1,0,0,rectangle,8.8515625,15.96875,1,0,0,8.8515625,15.96875,1,0,0,0,22,22,136,1,,,,,,,,
,,,,,,,,,,,,,FF,,,,,,,,1.7663,,,,,,,,,,,,,,,,,,,,,,610017622f038a5f947fc460,61036ccd13ce7b50865e3388,2021-07-29_23h07.46.459,Simcolourproject_2stim_asymm_v5,2020.2.10,MacIntel,60,61025ae37ef11b136ea224fe,,,,,,,,,1736,47.0859375,-83.10546875,1,0,0,response3disk,,4,-6.81640625,16.21875,1,0,0,rectangle,41.56640625,88.0546875,1,0,0,13.8125,8.26953125,1,0,0,0,23,23,57,1,,response1disk_3,TRUE,7,7,"[101,93,30,116,46,253,173,97,8,151,262,24,281,262,29,77,205,310,218,133]",1.7289,rectangle
,,,,,,,,,,,,,FF,,,,,,,,1.6978,,,,,,,,,,,,,,,,,,,,,,610017622f038a5f947fc460,61036ccd13ce7b50865e3388,2021-07-29_23h07.46.459,Simcolourproject_2stim_asymm_v5,2020.2.10,MacIntel,60,61025ae37ef11b136ea224fe,,,,,,,,,1711,94.21875,-46.34765625,1,0,0,response3disk,,5,-11.32421875,1.6640625,1,0,0,rectangle,-11.32421875,1.6640625,1,0,0,-11.32421875,1.6640625,1,0,0,0,24,24,153,1,,,,,,,,
,,,,,,,,,,,,,FF,,,,,,,,1.3145,,,,,,,,,,,,,,,,,,,,,,610017622f038a5f947fc460,61036ccd13ce7b50865e3388,2021-07-29_23h07.46.459,Simcolourproject_2stim_asymm_v5,2020.2.10,MacIntel,60,61025ae37ef11b136ea224fe,,,,,,,,,2908,83.0234375,-64.3515625,1,0,0,response3disk,,5,11.90234375,11.69921875,1,0,0,rectangle,11.90234375,11.69921875,1,0,0,11.90234375,11.69921875,1,0,0,0,25,25,28,1,,,,,,,,
,,,,,,,,,,,,,FF,,,,,,,,0.9344,,,,,,,,,,,,,,,,,,,,,,610017622f038a5f947fc460,61036ccd13ce7b50865e3388,2021-07-29_23h07.46.459,Simcolourproject_2stim_asymm_v5,2020.2.10,MacIntel,60,61025ae37ef11b136ea224fe,,,,,,,,,1067,91.53125,-56.78125,1,0,0,response3disk,,5,12.640625,-5.0625,1,0,0,rectangle,12.640625,-5.0625,1,0,0,12.640625,-5.0625,1,0,0,0,26,26,109,1,,,,,,,,
,,,,,,,,,,,,,FF,,,,,,,,1.0481,,,,,,,,,,,,,,,,,,,,,,610017622f038a5f947fc460,61036ccd13ce7b50865e3388,2021-07-29_23h07.46.459,Simcolourproject_2stim_asymm_v5,2020.2.10,MacIntel,60,61025ae37ef11b136ea224fe,,,,,,,,,3942,51.9375,-109.1054688,1,0,0,response3disk,,4,6.12109375,-4.6328125,1,0,0,rectangle,6.12109375,-4.6328125,1,0,0,6.12109375,-4.6328125,1,0,0,0,27,27,16,1,,,,,,,,
,,,,,,,,,,,,,FF,,,,,,,,1.1024,,,,,,,,,,,,,,,,,,,,,,610017622f038a5f947fc460,61036ccd13ce7b50865e3388,2021-07-29_23h07.46.459,Simcolourproject_2stim_asymm_v5,2020.2.10,MacIntel,60,61025ae37ef11b136ea224fe,,,,,,,,,1100,91.53515625,-50.0859375,1,0,0,response3disk,,5,-24.3125,7.9140625,1,0,0,rectangle,33.66015625,80.65234375,1,0,0,-3.3359375,2.0234375,1,0,0,0,28,28,86,1,,response1disk_3,TRUE,7,7,"[101,93,30,116,46,253,173,97,8,151,262,24,281,262,29,77,205,310,218,133]",1.4809,rectangle
,,,,,,,,,,,,,FF,,,,,,,,1.7327,,,,,,,,,,,,,,,,,,,,,,610017622f038a5f947fc460,61036ccd13ce7b50865e3388,2021-07-29_23h07.46.459,Simcolourproject_2stim_asymm_v5,2020.2.10,MacIntel,60,61025ae37ef11b136ea224fe,,,,,,,,,742,100.5546875,-48.05859375,1,0,0,response3disk,,5,-14.9609375,11.97265625,1,0,0,rectangle,73.44140625,40.3125,1,0,0,1.96875,-2.49609375,1,0,0,0,29,29,124,1,,response1disk_3,TRUE,6,6,"[101,93,30,116,46,253,173,97,8,151,262,24,281,262,29,77,205,310,218,133]",2.115,rectangle
,,,,,,,,,,,,,FF,,,,,,,,1.534,,,,,,,,,,,,,,,,,,,,,,610017622f038a5f947fc460,61036ccd13ce7b50865e3388,2021-07-29_23h07.46.459,Simcolourproject_2stim_asymm_v5,2020.2.10,MacIntel,60,61025ae37ef11b136ea224fe,,,,,,,,,234,97.79296875,38.5625,1,0,0,response1disk,,6,10.19921875,-0.09765625,1,0,0,rectangle,10.19921875,-0.09765625,1,0,0,10.19921875,-0.09765625,1,0,0,0,30,30,64,1,,,,,,,,
,,,,,,,,,,,,,FF,,,,,,,,1.7637,,,,,,,,,,,,,,,,,,,,,,610017622f038a5f947fc460,61036ccd13ce7b50865e3388,2021-07-29_23h07.46.459,Simcolourproject_2stim_asymm_v5,2020.2.10,MacIntel,60,61025ae37ef11b136ea224fe,,,,,,,,,942,117.2617188,-53.26953125,1,0,0,response3disk,,5,13.28125,-9.1015625,1,0,0,rectangle,13.28125,-9.1015625,1,0,0,13.28125,-9.1015625,1,0,0,0,31,31,76,1,,,,,,,,
,,,,,,,,,,,,,FF,,,,,,,,1.1474,,,,,,,,,,,,,,,,,,,,,,610017622f038a5f947fc460,61036ccd13ce7b50865e3388,2021-07-29_23h07.46.459,Simcolourproject_2stim_asymm_v5,2020.2.10,MacIntel,60,61025ae37ef11b136ea224fe,,,,,,,,,1217,-46.16015625,-105.6601563,1,0,0,response5disk,,3,3.390625,5.92578125,1,0,0,rectangle,3.390625,5.92578125,1,0,0,3.390625,5.92578125,1,0,0,0,32,32,154,1,,,,,,,,
,,,,,,,,,,,,,FF,,,,,,,,1.5306,,,,,,,,,,,,,,,,,,,,,,610017622f038a5f947fc460,61036ccd13ce7b50865e3388,2021-07-29_23h07.46.459,Simcolourproject_2stim_asymm_v5,2020.2.10,MacIntel,60,61025ae37ef11b136ea224fe,,,,,,,,,2831,-35.15234375,95.24609375,1,0,0,response7disk,,0,-3.87890625,-0.75390625,1,0,0,rectangle,-3.87890625,-0.75390625,1,0,0,-3.87890625,-0.75390625,1,0,0,0,33,33,138,1,,,,,,,,
,,,,,,,,,,,,,FF,,,,,,,,1.4328,,,,,,,,,,,,,,,,,,,,,,610017622f038a5f947fc460,61036ccd13ce7b50865e3388,2021-07-29_23h07.46.459,Simcolourproject_2stim_asymm_v5,2020.2.10,MacIntel,60,61025ae37ef11b136ea224fe,,,,,,,,,806,-38.71484375,-87.09765625,1,0,0,response5disk,,3,-22.94140625,4.80078125,1,0,0,rectangle,-22.94140625,4.80078125,1,0,0,-22.94140625,4.80078125,1,0,0,0,34,34,17,1,,,,,,,,
,,,,,,,,,,,,,FF,,,,,,,,0.9664,,,,,,,,,,,,,,,,,,,,,,610017622f038a5f947fc460,61036ccd13ce7b50865e3388,2021-07-29_23h07.46.459,Simcolourproject_2stim_asymm_v5,2020.2.10,MacIntel,60,61025ae37ef11b136ea224fe,,,,,,,,,1478,107.5078125,70.3671875,1,0,0,response1disk,,6,14.5390625,6.640625,1,0,0,rectangle,14.5390625,6.640625,1,0,0,14.5390625,6.640625,1,0,0,0,35,35,122,1,,,,,,,,
,,,,,,,,,,,,,FF,,,,,,,,1.2331,,,,,,,,,,,,,,,,,,,,,,610017622f038a5f947fc460,61036ccd13ce7b50865e3388,2021-07-29_23h07.46.459,Simcolourproject_2stim_asymm_v5,2020.2.10,MacIntel,60,61025ae37ef11b136ea224fe,,,,,,,,,1382,34.10546875,-90.33203125,1,0,0,response3disk,,4,-11.38671875,5.984375,1,0,0,rectangle,-11.38671875,5.984375,1,0,0,-11.38671875,5.984375,1,0,0,0,36,36,125,1,,,,,,,,
,,,,,,,,,,,,,FF,,,,,,,,1.1173,,,,,,,,,,,,,,,,,,,,,,610017622f038a5f947fc460,61036ccd13ce7b50865e3388,2021-07-29_23h07.46.459,Simcolourproject_2stim_asymm_v5,2020.2.10,MacIntel,60,61025ae37ef11b136ea224fe,,,,,,,,,2017,59.9609375,-113.5507813,1,0,0,response3disk,,4,-6.89453125,1.828125,1,0,0,rectangle,-6.89453125,1.828125,1,0,0,-6.89453125,1.828125,1,0,0,0,37,37,45,1,,,,,,,,
,,,,,,,,,,,,,FF,,,,,,,,1.2856,,,,,,,,,,,,,,,,,,,,,,610017622f038a5f947fc460,61036ccd13ce7b50865e3388,2021-07-29_23h07.46.459,Simcolourproject_2stim_asymm_v5,2020.2.10,MacIntel,60,61025ae37ef11b136ea224fe,,,,,,,,,3073,91.2578125,-35.21484375,1,0,0,response3disk,,5,13.12890625,11.81640625,1,0,0,rectangle,13.12890625,11.81640625,1,0,0,13.12890625,11.81640625,1,0,0,0,38,38,10,1,,,,,,,,
,,,,,,,,,,,,,FF,,,,,,,,1.8677,,,,,,,,,,,,,,,,,,,,,,610017622f038a5f947fc460,61036ccd13ce7b50865e3388,2021-07-29_23h07.46.459,Simcolourproject_2stim_asymm_v5,2020.2.10,MacIntel,60,61025ae37ef11b136ea224fe,,,,,,,,,343,41.32421875,-86.92578125,1,0,0,response3disk,,4,-11.33984375,-10.8984375,1,0,0,rectangle,-11.33984375,-10.8984375,1,0,0,-11.33984375,-10.8984375,1,0,0,0,39,39,58,1,,,,,,,,
,,,,,,,,,,,,,FF,,,,,,,,1.1673,,,,,,,,,,,,,,,,,,,,,,610017622f038a5f947fc460,61036ccd13ce7b50865e3388,2021-07-29_23h07.46.459,Simcolourproject_2stim_asymm_v5,2020.2.10,MacIntel,60,61025ae37ef11b136ea224fe,,,,,,,,,3003,-32.15234375,-88.33984375,1,0,0,response5disk,,3,-16.5703125,-10.7734375,1,0,0,rectangle,-16.5703125,-10.7734375,1,0,0,-16.5703125,-10.7734375,1,0,0,0,40,40,23,1,,,,,,,,
,,,,,,,,,,,,,FF,,,,,,,,1.133,,,,,,,,,,,,,,,,,,,,,,610017622f038a5f947fc460,61036ccd13ce7b50865e3388,2021-07-29_23h07.46.459,Simcolourproject_2stim_asymm_v5,2020.2.10,MacIntel,60,61025ae37ef11b136ea224fe,,,,,,,,,3150,-44.515625,-95.73828125,1,0,0,response5disk,,3,-11.45703125,-1.84375,1,0,0,rectangle,-11.45703125,-1.84375,1,0,0,-11.45703125,-1.84375,1,0,0,0,41,41,59,1,,,,,,,,
,,,,,,,,,,,,,FF,,,,,,,,1.2483,,,,,,,,,,,,,,,,,,,,,,610017622f038a5f947fc460,61036ccd13ce7b50865e3388,2021-07-29_23h07.46.459,Simcolourproject_2stim_asymm_v5,2020.2.10,MacIntel,60,61025ae37ef11b136ea224fe,,,,,,,,,1135,-70.36328125,-68.0390625,1,0,0,response5disk,,2,-21.4140625,-11.45703125,1,0,0,rectangle,-21.4140625,-11.45703125,1,0,0,-21.4140625,-11.45703125,1,0,0,0,42,42,63,1,,,,,,,,
,,,,,,,,,,,,,FF,,,,,,,,0.999,,,,,,,,,,,,,,,,,,,,,,610017622f038a5f947fc460,61036ccd13ce7b50865e3388,2021-07-29_23h07.46.459,Simcolourproject_2stim_asymm_v5,2020.2.10,MacIntel,60,61025ae37ef11b136ea224fe,,,,,,,,,1253,100.6953125,-54.8828125,1,0,0,response3disk,,5,-3.94921875,6.01953125,1,0,0,rectangle,-3.94921875,6.01953125,1,0,0,-3.94921875,6.01953125,1,0,0,0,43,43,53,1,,,,,,,,
,,,,,,,,,,,,,FF,,,,,,,,1.2471,,,,,,,,,,,,,,,,,,,,,,610017622f038a5f947fc460,61036ccd13ce7b50865e3388,2021-07-29_23h07.46.459,Simcolourproject_2stim_asymm_v5,2020.2.10,MacIntel,60,61025ae37ef11b136ea224fe,,,,,,,,,729,-56.16015625,-93.734375,1,0,0,response5disk,,3,-30.2109375,-17.8359375,1,0,0,rectangle,-30.2109375,-17.8359375,1,0,0,-30.2109375,-17.8359375,1,0,0,0,44,44,103,1,,,,,,,,
,,,,,,,,,,,,,FF,,,,,,,,1.3153,,,,,,,,,,,,,,,,,,,,,,610017622f038a5f947fc460,61036ccd13ce7b50865e3388,2021-07-29_23h07.46.459,Simcolourproject_2stim_asymm_v5,2020.2.10,MacIntel,60,61025ae37ef11b136ea224fe,,,,,,,,,2131,29.52734375,-92.76953125,1,0,0,response3disk,,4,-2.22265625,0.671875,1,0,0,rectangle,88.5234375,-63.73046875,1,0,0,-4.6796875,-1.32421875,1,0,0,0,45,45,55,1,,response3disk_3,TRUE,5,5,"[101,93,30,116,46,253,173,97,8,151,262,24,281,262,29,77,205,310,218,133]",1.8523,rectangle
,,,,,,,,,,,,,FF,,,,,,,,0.9174,,,,,,,,,,,,,,,,,,,,,,610017622f038a5f947fc460,61036ccd13ce7b50865e3388,2021-07-29_23h07.46.459,Simcolourproject_2stim_asymm_v5,2020.2.10,MacIntel,60,61025ae37ef11b136ea224fe,,,,,,,,,3963,74.8671875,-112.5585938,1,0,0,response3disk,,4,-3.4921875,11.68359375,1,0,0,rectangle,-3.4921875,11.68359375,1,0,0,-3.4921875,11.68359375,1,0,0,0,46,46,49,1,,,,,,,,
,,,,,,,,,,,,,FF,,,,,,,,1.0844,,,,,,,,,,,,,,,,,,,,,,610017622f038a5f947fc460,61036ccd13ce7b50865e3388,2021-07-29_23h07.46.459,Simcolourproject_2stim_asymm_v5,2020.2.10,MacIntel,60,61025ae37ef11b136ea224fe,,,,,,,,,1089,101.9570313,-67.43359375,1,0,0,response3disk,,5,1.65625,9.015625,1,0,0,rectangle,1.65625,9.015625,1,0,0,1.65625,9.015625,1,0,0,0,47,47,2,1,,,,,,,,
,,,,,,,,,,,,,FF,,,,,,,,3.0489,,,,,,,,,,,,,,,,,,,,,,610017622f038a5f947fc460,61036ccd13ce7b50865e3388,2021-07-29_23h07.46.459,Simcolourproject_2stim_asymm_v5,2020.2.10,MacIntel,60,61025ae37ef11b136ea224fe,,,,,,,,,1922,79.93359375,33.1875,1,0,0,response1disk,,6,21.48828125,7.8203125,1,0,0,rectangle,21.48828125,7.8203125,1,0,0,21.48828125,7.8203125,1,0,0,0,48,48,129,1,,,,,,,,
,,,,,,,,,,,,,FF,,,,,,,,1.8494,,,,,,,,,,,,,,,,,,,,,,610017622f038a5f947fc460,61036ccd13ce7b50865e3388,2021-07-29_23h07.46.459,Simcolourproject_2stim_asymm_v5,2020.2.10,MacIntel,60,61025ae37ef11b136ea224fe,,,,,,,,,2338,108.3164063,50.0234375,1,0,0,response1disk,,6,-13.6796875,-7.66796875,1,0,0,rectangle,-13.6796875,-7.66796875,1,0,0,-13.6796875,-7.66796875,1,0,0,0,49,49,88,1,,,,,,,,
,,,,,,,,,,,,,FF,,,,,,,,2.0982,,,,,,,,,,,,,,,,,,,,,,610017622f038a5f947fc460,61036ccd13ce7b50865e3388,2021-07-29_23h07.46.459,Simcolourproject_2stim_asymm_v5,2020.2.10,MacIntel,60,61025ae37ef11b136ea224fe,,,,,,,,,2602,-34.85546875,-81.76171875,1,0,0,response5disk,,3,-18.18359375,-11.3671875,1,0,0,rectangle,-18.18359375,-11.3671875,1,0,0,-18.18359375,-11.3671875,1,0,0,0,50,50,144,1,,,,,,,,
,,,,,,,,,,,,,FF,,,,,,,,1.4338,,,,,,,,,,,,,,,,,,,,,,610017622f038a5f947fc460,61036ccd13ce7b50865e3388,2021-07-29_23h07.46.459,Simcolourproject_2stim_asymm_v5,2020.2.10,MacIntel,60,61025ae37ef11b136ea224fe,,,,,,,,,564,45.078125,-111.5898438,1,0,0,response3disk,,4,14.66796875,-6.0546875,1,0,0,rectangle,14.66796875,-6.0546875,1,0,0,14.66796875,-6.0546875,1,0,0,0,51,51,96,1,,,,,,,,
,,,,,,,,,,,,,FF,,,,,,,,0.717,,,,,,,,,,,,,,,,,,,,,,610017622f038a5f947fc460,61036ccd13ce7b50865e3388,2021-07-29_23h07.46.459,Simcolourproject_2stim_asymm_v5,2020.2.10,MacIntel,60,61025ae37ef11b136ea224fe,,,,,,,,,3496,108.6210938,48.80078125,1,0,0,response1disk,,6,20.9375,-11.03515625,1,0,0,rectangle,20.9375,-11.03515625,1,0,0,20.9375,-11.03515625,1,0,0,0,52,52,102,1,,,,,,,,
,,,,,,,,,,,,,FF,,,,,,,,1.0354,,,,,,,,,,,,,,,,,,,,,,610017622f038a5f947fc460,61036ccd13ce7b50865e3388,2021-07-29_23h07.46.459,Simcolourproject_2stim_asymm_v5,2020.2.10,MacIntel,60,61025ae37ef11b136ea224fe,,,,,,,,,2275,33.53125,-94.80859375,1,0,0,response3disk,,4,-0.59765625,1.328125,1,0,0,rectangle,-0.59765625,1.328125,1,0,0,-0.59765625,1.328125,1,0,0,0,53,53,22,1,,,,,,,,
,,,,,,,,,,,,,FF,,,,,,,,2.885,,,,,,,,,,,,,,,,,,,,,,610017622f038a5f947fc460,61036ccd13ce7b50865e3388,2021-07-29_23h07.46.459,Simcolourproject_2stim_asymm_v5,2020.2.10,MacIntel,60,61025ae37ef11b136ea224fe,,,,,,,,,3157,-55.75,-76.06640625,1,0,0,response5disk,,3,-7.72265625,14.26171875,1,0,0,rectangle,-7.72265625,14.26171875,1,0,0,-7.72265625,14.26171875,1,0,0,0,54,54,66,1,,,,,,,,
,,,,,,,,,,,,,FF,,,,,,,,1.5187,,,,,,,,,,,,,,,,,,,,,,610017622f038a5f947fc460,61036ccd13ce7b50865e3388,2021-07-29_23h07.46.459,Simcolourproject_2stim_asymm_v5,2020.2.10,MacIntel,60,61025ae37ef11b136ea224fe,,,,,,,,,3192,-40.921875,-79.453125,1,0,0,response5disk,,3,-18.83984375,-0.89453125,1,0,0,rectangle,-18.83984375,-0.89453125,1,0,0,-18.83984375,-0.89453125,1,0,0,0,55,55,12,1,,,,,,,,
,,,,,,,,,,,,,FF,,,,,,,,1.4505,,,,,,,,,,,,,,,,,,,,,,610017622f038a5f947fc460,61036ccd13ce7b50865e3388,2021-07-29_23h07.46.459,Simcolourproject_2stim_asymm_v5,2020.2.10,MacIntel,60,61025ae37ef11b136ea224fe,,,,,,,,,1316,-66.16796875,-80.89453125,1,0,0,response5disk,,3,-21.06640625,6.80078125,1,0,0,rectangle,-21.06640625,6.80078125,1,0,0,-21.06640625,6.80078125,1,0,0,0,56,56,123,1,,,,,,,,
,,,,,,,,,,,,,FF,,,,,,,,1.8654,,,,,,,,,,,,,,,,,,,,,,610017622f038a5f947fc460,61036ccd13ce7b50865e3388,2021-07-29_23h07.46.459,Simcolourproject_2stim_asymm_v5,2020.2.10,MacIntel,60,61025ae37ef11b136ea224fe,,,,,,,,,2676,-46.4609375,-97.3203125,1,0,0,response5disk,,3,-19.875,-13.65234375,1,0,0,rectangle,-19.875,-13.65234375,1,0,0,-19.875,-13.65234375,1,0,0,0,57,57,80,1,,,,,,,,
,,,,,,,,,,,,,FF,,,,,,,,2.4505,,,,,,,,,,,,,,,,,,,,,,610017622f038a5f947fc460,61036ccd13ce7b50865e3388,2021-07-29_23h07.46.459,Simcolourproject_2stim_asymm_v5,2020.2.10,MacIntel,60,61025ae37ef11b136ea224fe,,,,,,,,,1461,-28.37890625,-116.2851563,1,0,0,response5disk,,3,3.62109375,-12.51171875,1,0,0,rectangle,3.62109375,-12.51171875,1,0,0,3.62109375,-12.51171875,1,0,0,0,58,58,11,1,,,,,,,,
,,,,,,,,,,,,,FF,,,,,,,,1.1858,,,,,,,,,,,,,,,,,,,,,,610017622f038a5f947fc460,61036ccd13ce7b50865e3388,2021-07-29_23h07.46.459,Simcolourproject_2stim_asymm_v5,2020.2.10,MacIntel,60,61025ae37ef11b136ea224fe,,,,,,,,,399,89.90234375,-59.0078125,1,0,0,response3disk,,5,4.4453125,-1.7578125,1,0,0,rectangle,4.4453125,-1.7578125,1,0,0,4.4453125,-1.7578125,1,0,0,0,59,59,101,1,,,,,,,,
,,,,,,,,,,,,,FF,,,,,,,,1.3515,,,,,,,,,,,,,,,,,,,,,,610017622f038a5f947fc460,61036ccd13ce7b50865e3388,2021-07-29_23h07.46.459,Simcolourproject_2stim_asymm_v5,2020.2.10,MacIntel,60,61025ae37ef11b136ea224fe,,,,,,,,,3361,34.37109375,52.85546875,1,0,0,response1disk,,7,10.00390625,-3.87890625,1,0,0,rectangle,10.00390625,-3.87890625,1,0,0,10.00390625,-3.87890625,1,0,0,0,60,60,33,1,,,,,,,,
,,,,,,,,,,,,,FF,,,,,,,,1.7497,,,,,,,,,,,,,,,,,,,,,,610017622f038a5f947fc460,61036ccd13ce7b50865e3388,2021-07-29_23h07.46.459,Simcolourproject_2stim_asymm_v5,2020.2.10,MacIntel,60,61025ae37ef11b136ea224fe,,,,,,,,,2533,-36.69921875,-96.3125,1,0,0,response5disk,,3,-3.2109375,4.72265625,1,0,0,rectangle,-3.2109375,4.72265625,1,0,0,-3.2109375,4.72265625,1,0,0,0,61,61,158,1,,,,,,,,
,,,,,,,,,,,,,FF,,,,,,,,1.253,,,,,,,,,,,,,,,,,,,,,,610017622f038a5f947fc460,61036ccd13ce7b50865e3388,2021-07-29_23h07.46.459,Simcolourproject_2stim_asymm_v5,2020.2.10,MacIntel,60,61025ae37ef11b136ea224fe,,,,,,,,,3509,-74.53125,-46.15625,1,0,0,response5disk,,2,15.32421875,-2.671875,1,0,0,rectangle,15.32421875,-2.671875,1,0,0,15.32421875,-2.671875,1,0,0,0,62,62,91,1,,,,,,,,
,,,,,,,,,,,,,FF,,,,,,,,2.183,,,,,,,,,,,,,,,,,,,,,,610017622f038a5f947fc460,61036ccd13ce7b50865e3388,2021-07-29_23h07.46.459,Simcolourproject_2stim_asymm_v5,2020.2.10,MacIntel,60,61025ae37ef11b136ea224fe,,,,,,,,,2756,95.6328125,-74.328125,1,0,0,response3disk,,5,10.4375,1.32421875,1,0,0,rectangle,10.4375,1.32421875,1,0,0,10.4375,1.32421875,1,0,0,0,63,63,74,1,,,,,,,,
,,,,,,,,,,,,,FF,,,,,,,,1.014,,,,,,,,,,,,,,,,,,,,,,610017622f038a5f947fc460,61036ccd13ce7b50865e3388,2021-07-29_23h07.46.459,Simcolourproject_2stim_asymm_v5,2020.2.10,MacIntel,60,61025ae37ef11b136ea224fe,,,,,,,,,654,53.2421875,-70.7421875,1,0,0,response3disk,,4,8.90625,-8.74609375,1,0,0,rectangle,8.90625,-8.74609375,1,0,0,8.90625,-8.74609375,1,0,0,0,64,64,79,1,,,,,,,,
,,,,,,,,,,,,,FF,,,,,,,,0.7513,,,,,,,,,,,,,,,,,,,,,,610017622f038a5f947fc460,61036ccd13ce7b50865e3388,2021-07-29_23h07.46.459,Simcolourproject_2stim_asymm_v5,2020.2.10,MacIntel,60,61025ae37ef11b136ea224fe,,,,,,,,,2772,-52.05859375,-72.6875,1,0,0,response5disk,,3,-9.53515625,-4.25,1,0,0,rectangle,-9.53515625,-4.25,1,0,0,-9.53515625,-4.25,1,0,0,0,65,65,46,1,,,,,,,,
,,,,,,,,,,,,,FF,,,,,,,,1.3815,,,,,,,,,,,,,,,,,,,,,,610017622f038a5f947fc460,61036ccd13ce7b50865e3388,2021-07-29_23h07.46.459,Simcolourproject_2stim_asymm_v5,2020.2.10,MacIntel,60,61025ae37ef11b136ea224fe,,,,,,,,,1036,43.12890625,-108.2773438,1,0,0,response3disk,,4,-0.9140625,-11.28125,1,0,0,rectangle,-0.9140625,-11.28125,1,0,0,-0.9140625,-11.28125,1,0,0,0,66,66,48,1,,,,,,,,
,,,,,,,,,,,,,FF,,,,,,,,0.7846,,,,,,,,,,,,,,,,,,,,,,610017622f038a5f947fc460,61036ccd13ce7b50865e3388,2021-07-29_23h07.46.459,Simcolourproject_2stim_asymm_v5,2020.2.10,MacIntel,60,61025ae37ef11b136ea224fe,,,,,,,,,2186,48.5234375,-77.67578125,1,0,0,response3disk,,4,12.72265625,-11.45703125,1,0,0,rectangle,12.72265625,-11.45703125,1,0,0,12.72265625,-11.45703125,1,0,0,0,67,67,27,1,,,,,,,,
,,,,,,,,,,,,,FF,,,,,,,,0.8999,,,,,,,,,,,,,,,,,,,,,,610017622f038a5f947fc460,61036ccd13ce7b50865e3388,2021-07-29_23h07.46.459,Simcolourproject_2stim_asymm_v5,2020.2.10,MacIntel,60,61025ae37ef11b136ea224fe,,,,,,,,,789,74.4609375,-100.7265625,1,0,0,response3disk,,4,10.640625,-1.78125,1,0,0,rectangle,10.640625,-1.78125,1,0,0,10.640625,-1.78125,1,0,0,0,68,68,38,1,,,,,,,,
,,,,,,,,,,,,,FF,,,,,,,,1.433,,,,,,,,,,,,,,,,,,,,,,610017622f038a5f947fc460,61036ccd13ce7b50865e3388,2021-07-29_23h07.46.459,Simcolourproject_2stim_asymm_v5,2020.2.10,MacIntel,60,61025ae37ef11b136ea224fe,,,,,,,,,3080,68.96484375,-32.05859375,1,0,0,response3disk,,5,8.10546875,-5.09375,1,0,0,rectangle,8.10546875,-5.09375,1,0,0,8.10546875,-5.09375,1,0,0,0,69,69,128,1,,,,,,,,
,,,,,,,,,,,,,FF,,,,,,,,1.5325,,,,,,,,,,,,,,,,,,,,,,610017622f038a5f947fc460,61036ccd13ce7b50865e3388,2021-07-29_23h07.46.459,Simcolourproject_2stim_asymm_v5,2020.2.10,MacIntel,60,61025ae37ef11b136ea224fe,,,,,,,,,16,54.625,-90.57421875,1,0,0,response3disk,,4,4.96875,7.04296875,1,0,0,rectangle,4.96875,7.04296875,1,0,0,4.96875,7.04296875,1,0,0,0,70,70,143,1,,,,,,,,
,,,,,,,,,,,,,FF,,,,,,,,1.6491,,,,,,,,,,,,,,,,,,,,,,610017622f038a5f947fc460,61036ccd13ce7b50865e3388,2021-07-29_23h07.46.459,Simcolourproject_2stim_asymm_v5,2020.2.10,MacIntel,60,61025ae37ef11b136ea224fe,,,,,,,,,1510,62.109375,-91.08203125,1,0,0,response3disk,,4,-16.1953125,-8.20703125,1,0,0,rectangle,-16.1953125,-8.20703125,1,0,0,-16.1953125,-8.20703125,1,0,0,0,71,71,99,1,,,,,,,,
,,,,,,,,,,,,,FF,,,,,,,,1.2502,,,,,,,,,,,,,,,,,,,,,,610017622f038a5f947fc460,61036ccd13ce7b50865e3388,2021-07-29_23h07.46.459,Simcolourproject_2stim_asymm_v5,2020.2.10,MacIntel,60,61025ae37ef11b136ea224fe,,,,,,,,,1007,95.7421875,20.24609375,1,0,0,response1disk,,6,32.78515625,14.50390625,1,0,0,rectangle,32.78515625,14.50390625,1,0,0,32.78515625,14.50390625,1,0,0,0,72,72,104,1,,,,,,,,
,,,,,,,,,,,,,FF,,,,,,,,1.7465,,,,,,,,,,,,,,,,,,,,,,610017622f038a5f947fc460,61036ccd13ce7b50865e3388,2021-07-29_23h07.46.459,Simcolourproject_2stim_asymm_v5,2020.2.10,MacIntel,60,61025ae37ef11b136ea224fe,,,,,,,,,4015,74.609375,46.79296875,1,0,0,response1disk,,6,14.17578125,6.59375,1,0,0,rectangle,14.17578125,6.59375,1,0,0,14.17578125,6.59375,1,0,0,0,73,73,30,1,,,,,,,,
,,,,,,,,,,,,,FF,,,,,,,,2.2977,,,,,,,,,,,,,,,,,,,,,,610017622f038a5f947fc460,61036ccd13ce7b50865e3388,2021-07-29_23h07.46.459,Simcolourproject_2stim_asymm_v5,2020.2.10,MacIntel,60,61025ae37ef11b136ea224fe,,,,,,,,,3897,89.796875,-53.73046875,1,0,0,response3disk,,5,9.09375,16.2109375,1,0,0,rectangle,9.09375,16.2109375,1,0,0,9.09375,16.2109375,1,0,0,0,74,74,110,1,,,,,,,,
,,,,,,,,,,,,,FF,,,,,,,,0.7488,,,,,,,,,,,,,,,,,,,,,,610017622f038a5f947fc460,61036ccd13ce7b50865e3388,2021-07-29_23h07.46.459,Simcolourproject_2stim_asymm_v5,2020.2.10,MacIntel,60,61025ae37ef11b136ea224fe,,,,,,,,,315,81.54296875,43.125,1,0,0,response1disk,,6,24.875,2.3359375,1,0,0,rectangle,24.875,2.3359375,1,0,0,24.875,2.3359375,1,0,0,0,75,75,145,1,,,,,,,,
,,,,,,,,,,,,,FF,,,,,,,,2.8988,,,,,,,,,,,,,,,,,,,,,,610017622f038a5f947fc460,61036ccd13ce7b50865e3388,2021-07-29_23h07.46.459,Simcolourproject_2stim_asymm_v5,2020.2.10,MacIntel,60,61025ae37ef11b136ea224fe,,,,,,,,,1024,90.3125,-52.56640625,1,0,0,response3disk,,5,4.9140625,-7.484375,1,0,0,rectangle,-21.91796875,73.6953125,1,0,0,0.7421875,-2.58984375,1,0,0,0,76,76,142,1,,response7disk_3,TRUE,0,0,"[101,93,30,116,46,253,173,97,8,151,262,24,281,262,29,77,205,310,218,133]",1.9685,rectangle
,,,,,,,,,,,,,FF,,,,,,,,0.9316,,,,,,,,,,,,,,,,,,,,,,610017622f038a5f947fc460,61036ccd13ce7b50865e3388,2021-07-29_23h07.46.459,Simcolourproject_2stim_asymm_v5,2020.2.10,MacIntel,60,61025ae37ef11b136ea224fe,,,,,,,,,1149,-29.96484375,-82.4921875,1,0,0,response5disk,,3,-9.28515625,-3.2578125,1,0,0,rectangle,-9.28515625,-3.2578125,1,0,0,-9.28515625,-3.2578125,1,0,0,0,77,77,73,1,,,,,,,,
,,,,,,,,,,,,,FF,,,,,,,,1.0647,,,,,,,,,,,,,,,,,,,,,,610017622f038a5f947fc460,61036ccd13ce7b50865e3388,2021-07-29_23h07.46.459,Simcolourproject_2stim_asymm_v5,2020.2.10,MacIntel,60,61025ae37ef11b136ea224fe,,,,,,,,,3143,-53.75,-78.37890625,1,0,0,response5disk,,3,-19.30078125,-3.19921875,1,0,0,rectangle,-19.30078125,-3.19921875,1,0,0,-19.30078125,-3.19921875,1,0,0,0,78,78,25,1,,,,,,,,
,,,,,,,,,,,,,FF,,,,,,,,1.5657,,,,,,,,,,,,,,,,,,,,,,610017622f038a5f947fc460,61036ccd13ce7b50865e3388,2021-07-29_23h07.46.459,Simcolourproject_2stim_asymm_v5,2020.2.10,MacIntel,60,61025ae37ef11b136ea224fe,,,,,,,,,3087,-36.703125,-87.07421875,1,0,0,response5disk,,3,-17.828125,10.41796875,1,0,0,rectangle,-17.828125,10.41796875,1,0,0,-17.828125,10.41796875,1,0,0,0,79,79,126,1,,,,,,,,
,,,,,,,,,,,,,FF,,,,,,,,1.6508,,,,,,,,,,,,,,,,,,,,,,610017622f038a5f947fc460,61036ccd13ce7b50865e3388,2021-07-29_23h07.46.459,Simcolourproject_2stim_asymm_v5,2020.2.10,MacIntel,60,61025ae37ef11b136ea224fe,,,,,,,,,167,-54.125,-80.546875,1,0,0,response5disk,,3,-5.98828125,5.32421875,1,0,0,rectangle,-5.98828125,5.32421875,1,0,0,-5.98828125,5.32421875,1,0,0,0,80,80,52,1,,,,,,,,
,,,,,,,,,,,,,FF,,,,,,,,0.9343,,,,,,,,,,,,,,,,,,,,,,610017622f038a5f947fc460,61036ccd13ce7b50865e3388,2021-07-29_23h07.46.459,Simcolourproject_2stim_asymm_v5,2020.2.10,MacIntel,60,61025ae37ef11b136ea224fe,,,,,,,,,1569,62.41796875,-109.703125,1,0,0,response3disk,,4,13.98828125,17.9375,1,0,0,rectangle,13.98828125,17.9375,1,0,0,13.98828125,17.9375,1,0,0,0,81,81,26,1,,,,,,,,
,,,,,,,,,,,,,FF,,,,,,,,1.3159,,,,,,,,,,,,,,,,,,,,,,610017622f038a5f947fc460,61036ccd13ce7b50865e3388,2021-07-29_23h07.46.459,Simcolourproject_2stim_asymm_v5,2020.2.10,MacIntel,60,61025ae37ef11b136ea224fe,,,,,,,,,3778,-29.6953125,-84.3984375,1,0,0,response5disk,,3,3.51171875,-4.859375,1,0,0,rectangle,3.51171875,-4.859375,1,0,0,3.51171875,-4.859375,1,0,0,0,82,82,89,1,,,,,,,,
,,,,,,,,,,,,,FF,,,,,,,,1.0837,,,,,,,,,,,,,,,,,,,,,,610017622f038a5f947fc460,61036ccd13ce7b50865e3388,2021-07-29_23h07.46.459,Simcolourproject_2stim_asymm_v5,2020.2.10,MacIntel,60,61025ae37ef11b136ea224fe,,,,,,,,,3937,-81.71484375,-32.73828125,1,0,0,response5disk,,2,3.75,11.2890625,1,0,0,rectangle,3.75,11.2890625,1,0,0,3.75,11.2890625,1,0,0,0,83,83,70,1,,,,,,,,
,,,,,,,,,,,,,FF,,,,,,,,0.7796,,,,,,,,,,,,,,,,,,,,,,610017622f038a5f947fc460,61036ccd13ce7b50865e3388,2021-07-29_23h07.46.459,Simcolourproject_2stim_asymm_v5,2020.2.10,MacIntel,60,61025ae37ef11b136ea224fe,,,,,,,,,885,-99.12109375,-37.2421875,1,0,0,response5disk,,2,-24.1875,-3.90234375,1,0,0,rectangle,-24.1875,-3.90234375,1,0,0,-24.1875,-3.90234375,1,0,0,0,84,84,139,1,,,,,,,,
,,,,,,,,,,,,,FF,,,,,,,,0.8001,,,,,,,,,,,,,,,,,,,,,,610017622f038a5f947fc460,61036ccd13ce7b50865e3388,2021-07-29_23h07.46.459,Simcolourproject_2stim_asymm_v5,2020.2.10,MacIntel,60,61025ae37ef11b136ea224fe,,,,,,,,,2233,-62.375,35.69921875,1,0,0,response7disk,,1,-10.2734375,-0.80859375,1,0,0,rectangle,-10.2734375,-0.80859375,1,0,0,-10.2734375,-0.80859375,1,0,0,0,85,85,47,1,,,,,,,,
,,,,,,,,,,,,,FF,,,,,,,,1.4999,,,,,,,,,,,,,,,,,,,,,,610017622f038a5f947fc460,61036ccd13ce7b50865e3388,2021-07-29_23h07.46.459,Simcolourproject_2stim_asymm_v5,2020.2.10,MacIntel,60,61025ae37ef11b136ea224fe,,,,,,,,,923,65.96875,-85.8125,1,0,0,response3disk,,4,-6.1640625,5.69921875,1,0,0,rectangle,-6.1640625,5.69921875,1,0,0,-6.1640625,5.69921875,1,0,0,0,86,86,31,1,,,,,,,,
,,,,,,,,,,,,,FF,,,,,,,,0.8499,,,,,,,,,,,,,,,,,,,,,,610017622f038a5f947fc460,61036ccd13ce7b50865e3388,2021-07-29_23h07.46.459,Simcolourproject_2stim_asymm_v5,2020.2.10,MacIntel,60,61025ae37ef11b136ea224fe,,,,,,,,,3813,-41.1171875,-84.5078125,1,0,0,response5disk,,3,1.19921875,-6.19921875,1,0,0,rectangle,1.19921875,-6.19921875,1,0,0,1.19921875,-6.19921875,1,0,0,0,87,87,65,1,,,,,,,,
,,,,,,,,,,,,,FF,,,,,,,,0.7824,,,,,,,,,,,,,,,,,,,,,,610017622f038a5f947fc460,61036ccd13ce7b50865e3388,2021-07-29_23h07.46.459,Simcolourproject_2stim_asymm_v5,2020.2.10,MacIntel,60,61025ae37ef11b136ea224fe,,,,,,,,,3858,75.42578125,-27.11328125,1,0,0,response3disk,,5,26.015625,-6.953125,1,0,0,rectangle,26.015625,-6.953125,1,0,0,26.015625,-6.953125,1,0,0,0,88,88,41,1,,,,,,,,
,,,,,,,,,,,,,FF,,,,,,,,0.9332,,,,,,,,,,,,,,,,,,,,,,610017622f038a5f947fc460,61036ccd13ce7b50865e3388,2021-07-29_23h07.46.459,Simcolourproject_2stim_asymm_v5,2020.2.10,MacIntel,60,61025ae37ef11b136ea224fe,,,,,,,,,2146,92.2890625,-80.80078125,1,0,0,response3disk,,5,10.9375,-9.484375,1,0,0,rectangle,10.9375,-9.484375,1,0,0,10.9375,-9.484375,1,0,0,0,89,89,29,1,,,,,,,,
,,,,,,,,,,,,,FF,,,,,,,,1.3294,,,,,,,,,,,,,,,,,,,,,,610017622f038a5f947fc460,61036ccd13ce7b50865e3388,2021-07-29_23h07.46.459,Simcolourproject_2stim_asymm_v5,2020.2.10,MacIntel,60,61025ae37ef11b136ea224fe,,,,,,,,,995,-45.2109375,-87.48046875,1,0,0,response5disk,,3,-0.48046875,14.9609375,1,0,0,rectangle,-0.48046875,14.9609375,1,0,0,-0.48046875,14.9609375,1,0,0,0,90,90,14,1,,,,,,,,
,,,,,,,,,,,,,FF,,,,,,,,1.1467,,,,,,,,,,,,,,,,,,,,,,610017622f038a5f947fc460,61036ccd13ce7b50865e3388,2021-07-29_23h07.46.459,Simcolourproject_2stim_asymm_v5,2020.2.10,MacIntel,60,61025ae37ef11b136ea224fe,,,,,,,,,1607,-44.25,-95.97265625,1,0,0,response5disk,,3,0.6640625,-3.77734375,1,0,0,rectangle,0.6640625,-3.77734375,1,0,0,0.6640625,-3.77734375,1,0,0,0,91,91,51,1,,,,,,,,
,,,,,,,,,,,,,FF,,,,,,,,1.1664,,,,,,,,,,,,,,,,,,,,,,610017622f038a5f947fc460,61036ccd13ce7b50865e3388,2021-07-29_23h07.46.459,Simcolourproject_2stim_asymm_v5,2020.2.10,MacIntel,60,61025ae37ef11b136ea224fe,,,,,,,,,3166,95.37109375,-58.69921875,1,0,0,response3disk,,5,24.61328125,12.1328125,1,0,0,rectangle,111.7539063,-30.2265625,1,0,0,9.9375,3.8828125,1,0,0,0,92,92,15,1,,response3disk_3,TRUE,5,5,"[101,93,30,116,46,253,173,97,8,151,262,24,281,262,29,77,205,310,218,133]",1.7676,rectangle
,,,,,,,,,,,,,FF,,,,,,,,2.1009,,,,,,,,,,,,,,,,,,,,,,610017622f038a5f947fc460,61036ccd13ce7b50865e3388,2021-07-29_23h07.46.459,Simcolourproject_2stim_asymm_v5,2020.2.10,MacIntel,60,61025ae37ef11b136ea224fe,,,,,,,,,1884,-78.1796875,-31.9140625,1,0,0,response5disk,,2,-23.7890625,-2.33203125,1,0,0,rectangle,-23.7890625,-2.33203125,1,0,0,-23.7890625,-2.33203125,1,0,0,0,93,93,116,1,,,,,,,,
,,,,,,,,,,,,,FF,,,,,,,,2.2145,,,,,,,,,,,,,,,,,,,,,,610017622f038a5f947fc460,61036ccd13ce7b50865e3388,2021-07-29_23h07.46.459,Simcolourproject_2stim_asymm_v5,2020.2.10,MacIntel,60,61025ae37ef11b136ea224fe,,,,,,,,,778,46.859375,-89.37109375,1,0,0,response3disk,,4,11.84375,-4.03515625,1,0,0,rectangle,11.84375,-4.03515625,1,0,0,11.84375,-4.03515625,1,0,0,0,94,94,21,1,,,,,,,,
,,,,,,,,,,,,,FF,,,,,,,,6.7813,,,,,,,,,,,,,,,,,,,,,,610017622f038a5f947fc460,61036ccd13ce7b50865e3388,2021-07-29_23h07.46.459,Simcolourproject_2stim_asymm_v5,2020.2.10,MacIntel,60,61025ae37ef11b136ea224fe,,,,,,,,,539,113.3085938,-81.0390625,1,0,0,response3disk,,5,21.09375,-2.046875,1,0,0,rectangle,21.09375,-2.046875,1,0,0,21.09375,-2.046875,1,0,0,0,95,95,112,1,,,,,,,,
,,,,,,,,,,,,,FF,,,,,,,,6.5146,,,,,,,,,,,,,,,,,,,,,,610017622f038a5f947fc460,61036ccd13ce7b50865e3388,2021-07-29_23h07.46.459,Simcolourproject_2stim_asymm_v5,2020.2.10,MacIntel,60,61025ae37ef11b136ea224fe,,,,,,,,,2243,64.80859375,-90.34375,1,0,0,response3disk,,4,19.7421875,-4.01953125,1,0,0,rectangle,-38.03125,-70.09765625,1,0,0,6.734375,9,1,0,0,0,96,96,90,1,,response5disk_3,TRUE,3,3,"[101,93,30,116,46,253,173,97,8,151,262,24,281,262,29,77,205,310,218,133]",3.1172,rectangle
,,,,,,,,,,,,,FF,,,,,,,,1.616,,,,,,,,,,,,,,,,,,,,,,610017622f038a5f947fc460,61036ccd13ce7b50865e3388,2021-07-29_23h07.46.459,Simcolourproject_2stim_asymm_v5,2020.2.10,MacIntel,60,61025ae37ef11b136ea224fe,,,,,,,,,4196,73.06640625,-76.06640625,1,0,0,response3disk,,4,9.62109375,-8.46875,1,0,0,rectangle,9.62109375,-8.46875,1,0,0,9.62109375,-8.46875,1,0,0,0,97,97,50,1,,,,,,,,
,,,,,,,,,,,,,FF,,,,,,,,1.1183,,,,,,,,,,,,,,,,,,,,,,610017622f038a5f947fc460,61036ccd13ce7b50865e3388,2021-07-29_23h07.46.459,Simcolourproject_2stim_asymm_v5,2020.2.10,MacIntel,60,61025ae37ef11b136ea224fe,,,,,,,,,4056,-48.08203125,-101.6601563,1,0,0,response5disk,,3,2.984375,8.80078125,1,0,0,rectangle,2.984375,8.80078125,1,0,0,2.984375,8.80078125,1,0,0,0,98,98,8,1,,,,,,,,
,,,,,,,,,,,,,FF,,,,,,,,1.632,,,,,,,,,,,,,,,,,,,,,,610017622f038a5f947fc460,61036ccd13ce7b50865e3388,2021-07-29_23h07.46.459,Simcolourproject_2stim_asymm_v5,2020.2.10,MacIntel,60,61025ae37ef11b136ea224fe,,,,,,,,,2237,-37.95703125,-72.015625,1,0,0,response5disk,,3,12.921875,-1.62109375,1,0,0,rectangle,12.921875,-1.62109375,1,0,0,12.921875,-1.62109375,1,0,0,0,99,99,20,1,,,,,,,,
,,,,,,,,,,,,,FF,,,,,,,,1.283,,,,,,,,,,,,,,,,,,,,,,610017622f038a5f947fc460,61036ccd13ce7b50865e3388,2021-07-29_23h07.46.459,Simcolourproject_2stim_asymm_v5,2020.2.10,MacIntel,60,61025ae37ef11b136ea224fe,,,,,,,,,3473,33.48046875,-79.3125,1,0,0,response3disk,,4,-1.12890625,-4.27734375,1,0,0,rectangle,-42.28515625,82.12890625,1,0,0,6.140625,5.6640625,1,0,0,0,100,100,1,1,,response7disk_3,TRUE,0,0,"[101,93,30,116,46,253,173,97,8,151,262,24,281,262,29,77,205,310,218,133]",1.2492,rectangle
,,,,,,,,,,,,,FF,,,,,,,,0.9151,,,,,,,,,,,,,,,,,,,,,,610017622f038a5f947fc460,61036ccd13ce7b50865e3388,2021-07-29_23h07.46.459,Simcolourproject_2stim_asymm_v5,2020.2.10,MacIntel,60,61025ae37ef11b136ea224fe,,,,,,,,,4138,100.0351563,-36.05859375,1,0,0,response3disk,,5,30.6328125,-0.48046875,1,0,0,rectangle,30.6328125,-0.48046875,1,0,0,30.6328125,-0.48046875,1,0,0,0,101,101,97,1,,,,,,,,
,,,,,,,,,,,,,FF,,,,,,,,1.0541,,,,,,,,,,,,,,,,,,,,,,610017622f038a5f947fc460,61036ccd13ce7b50865e3388,2021-07-29_23h07.46.459,Simcolourproject_2stim_asymm_v5,2020.2.10,MacIntel,60,61025ae37ef11b136ea224fe,,,,,,,,,1773,17.99609375,-90.75,1,0,0,response3disk,,4,-28.41015625,2.53515625,1,0,0,rectangle,-28.41015625,2.53515625,1,0,0,-28.41015625,2.53515625,1,0,0,0,102,102,108,1,,,,,,,,
,,,,,,,,,,,,,FF,,,,,,,,1.2165,,,,,,,,,,,,,,,,,,,,,,610017622f038a5f947fc460,61036ccd13ce7b50865e3388,2021-07-29_23h07.46.459,Simcolourproject_2stim_asymm_v5,2020.2.10,MacIntel,60,61025ae37ef11b136ea224fe,,,,,,,,,4286,101.7148438,57.890625,1,0,0,response1disk,,6,13.765625,-1.21484375,1,0,0,rectangle,13.765625,-1.21484375,1,0,0,13.765625,-1.21484375,1,0,0,0,103,103,118,1,,,,,,,,
,,,,,,,,,,,,,FF,,,,,,,,0.7517,,,,,,,,,,,,,,,,,,,,,,610017622f038a5f947fc460,61036ccd13ce7b50865e3388,2021-07-29_23h07.46.459,Simcolourproject_2stim_asymm_v5,2020.2.10,MacIntel,60,61025ae37ef11b136ea224fe,,,,,,,,,3927,30.17578125,82.24609375,1,0,0,response1disk,,7,17.00390625,9.96875,1,0,0,rectangle,17.00390625,9.96875,1,0,0,17.00390625,9.96875,1,0,0,0,104,104,87,1,,,,,,,,
,,,,,,,,,,,,,FF,,,,,,,,1.7173,,,,,,,,,,,,,,,,,,,,,,610017622f038a5f947fc460,61036ccd13ce7b50865e3388,2021-07-29_23h07.46.459,Simcolourproject_2stim_asymm_v5,2020.2.10,MacIntel,60,61025ae37ef11b136ea224fe,,,,,,,,,3629,82.41015625,-51.390625,1,0,0,response3disk,,5,22.5,5.78515625,1,0,0,rectangle,22.5,5.78515625,1,0,0,22.5,5.78515625,1,0,0,0,105,105,36,1,,,,,,,,
,,,,,,,,,,,,,FF,,,,,,,,0.918,,,,,,,,,,,,,,,,,,,,,,610017622f038a5f947fc460,61036ccd13ce7b50865e3388,2021-07-29_23h07.46.459,Simcolourproject_2stim_asymm_v5,2020.2.10,MacIntel,60,61025ae37ef11b136ea224fe,,,,,,,,,1684,-31.41796875,-86.12109375,1,0,0,response5disk,,3,-17.62109375,-0.140625,1,0,0,rectangle,-17.62109375,-0.140625,1,0,0,-17.62109375,-0.140625,1,0,0,0,106,106,117,1,,,,,,,,
,,,,,,,,,,,,,FF,,,,,,,,1.1479,,,,,,,,,,,,,,,,,,,,,,610017622f038a5f947fc460,61036ccd13ce7b50865e3388,2021-07-29_23h07.46.459,Simcolourproject_2stim_asymm_v5,2020.2.10,MacIntel,60,61025ae37ef11b136ea224fe,,,,,,,,,492,91.08984375,-42.234375,1,0,0,response3disk,,5,27.94921875,-7.4765625,1,0,0,rectangle,27.94921875,-7.4765625,1,0,0,27.94921875,-7.4765625,1,0,0,0,107,107,34,1,,,,,,,,
,,,,,,,,,,,,,FF,,,,,,,,1.7332,,,,,,,,,,,,,,,,,,,,,,610017622f038a5f947fc460,61036ccd13ce7b50865e3388,2021-07-29_23h07.46.459,Simcolourproject_2stim_asymm_v5,2020.2.10,MacIntel,60,61025ae37ef11b136ea224fe,,,,,,,,,2988,-51.52734375,-117.1757813,1,0,0,response5disk,,3,-27.53515625,-13.04296875,1,0,0,rectangle,-27.53515625,-13.04296875,1,0,0,-27.53515625,-13.04296875,1,0,0,0,108,108,83,1,,,,,,,,
,,,,,,,,,,,,,FF,,,,,,,,1.3962,,,,,,,,,,,,,,,,,,,,,,610017622f038a5f947fc460,61036ccd13ce7b50865e3388,2021-07-29_23h07.46.459,Simcolourproject_2stim_asymm_v5,2020.2.10,MacIntel,60,61025ae37ef11b136ea224fe,,,,,,,,,4346,-43.1953125,-76.44921875,1,0,0,response5disk,,3,-19.8359375,15.921875,1,0,0,rectangle,-19.8359375,15.921875,1,0,0,-19.8359375,15.921875,1,0,0,0,109,109,147,1,,,,,,,,
,,,,,,,,,,,,,FF,,,,,,,,1.3862,,,,,,,,,,,,,,,,,,,,,,610017622f038a5f947fc460,61036ccd13ce7b50865e3388,2021-07-29_23h07.46.459,Simcolourproject_2stim_asymm_v5,2020.2.10,MacIntel,60,61025ae37ef11b136ea224fe,,,,,,,,,9,72.5625,-55.1171875,1,0,0,response3disk,,5,13.64453125,-5.140625,1,0,0,rectangle,13.64453125,-5.140625,1,0,0,13.64453125,-5.140625,1,0,0,0,110,110,85,1,,,,,,,,
,,,,,,,,,,,,,FF,,,,,,,,0.9815,,,,,,,,,,,,,,,,,,,,,,610017622f038a5f947fc460,61036ccd13ce7b50865e3388,2021-07-29_23h07.46.459,Simcolourproject_2stim_asymm_v5,2020.2.10,MacIntel,60,61025ae37ef11b136ea224fe,,,,,,,,,2606,-23.47265625,-79.37109375,1,0,0,response5disk,,3,-2.453125,13.43359375,1,0,0,rectangle,-2.453125,13.43359375,1,0,0,-2.453125,13.43359375,1,0,0,0,111,111,157,1,,,,,,,,
,,,,,,,,,,,,,FF,,,,,,,,1.0159,,,,,,,,,,,,,,,,,,,,,,610017622f038a5f947fc460,61036ccd13ce7b50865e3388,2021-07-29_23h07.46.459,Simcolourproject_2stim_asymm_v5,2020.2.10,MacIntel,60,61025ae37ef11b136ea224fe,,,,,,,,,3525,72.8203125,-79.15234375,1,0,0,response3disk,,4,19.3046875,-0.3203125,1,0,0,rectangle,19.3046875,-0.3203125,1,0,0,19.3046875,-0.3203125,1,0,0,0,112,112,107,1,,,,,,,,
,,,,,,,,,,,,,FF,,,,,,,,1.1346,,,,,,,,,,,,,,,,,,,,,,610017622f038a5f947fc460,61036ccd13ce7b50865e3388,2021-07-29_23h07.46.459,Simcolourproject_2stim_asymm_v5,2020.2.10,MacIntel,60,61025ae37ef11b136ea224fe,,,,,,,,,3153,-43.40625,-77.515625,1,0,0,response5disk,,3,-28.8125,3.4765625,1,0,0,rectangle,-28.8125,3.4765625,1,0,0,-28.8125,3.4765625,1,0,0,0,113,113,115,1,,,,,,,,
,,,,,,,,,,,,,FF,,,,,,,,1.1016,,,,,,,,,,,,,,,,,,,,,,610017622f038a5f947fc460,61036ccd13ce7b50865e3388,2021-07-29_23h07.46.459,Simcolourproject_2stim_asymm_v5,2020.2.10,MacIntel,60,61025ae37ef11b136ea224fe,,,,,,,,,751,79.9921875,-34.7265625,1,0,0,response3disk,,5,20.7421875,-3.92578125,1,0,0,rectangle,20.7421875,-3.92578125,1,0,0,20.7421875,-3.92578125,1,0,0,0,114,114,54,1,,,,,,,,
,,,,,,,,,,,,,FF,,,,,,,,0.8487,,,,,,,,,,,,,,,,,,,,,,610017622f038a5f947fc460,61036ccd13ce7b50865e3388,2021-07-29_23h07.46.459,Simcolourproject_2stim_asymm_v5,2020.2.10,MacIntel,60,61025ae37ef11b136ea224fe,,,,,,,,,2322,89.23828125,-50.6484375,1,0,0,response3disk,,5,30.9765625,-12.2578125,1,0,0,rectangle,107.1171875,36.69921875,1,0,0,30.203125,-4.23046875,1,0,0,0,115,115,95,1,,response1disk_3,TRUE,6,6,"[101,93,30,116,46,253,173,97,8,151,262,24,281,262,29,77,205,310,218,133]",1.4481,rectangle
,,,,,,,,,,,,,FF,,,,,,,,2.2183,,,,,,,,,,,,,,,,,,,,,,610017622f038a5f947fc460,61036ccd13ce7b50865e3388,2021-07-29_23h07.46.459,Simcolourproject_2stim_asymm_v5,2020.2.10,MacIntel,60,61025ae37ef11b136ea224fe,,,,,,,,,2511,37.671875,-120.8945313,1,0,0,response3disk,,4,-13.8828125,10.25390625,1,0,0,rectangle,-13.8828125,10.25390625,1,0,0,-13.8828125,10.25390625,1,0,0,0,116,116,5,1,,,,,,,,
,,,,,,,,,,,,,FF,,,,,,,,3.2166,,,,,,,,,,,,,,,,,,,,,,610017622f038a5f947fc460,61036ccd13ce7b50865e3388,2021-07-29_23h07.46.459,Simcolourproject_2stim_asymm_v5,2020.2.10,MacIntel,60,61025ae37ef11b136ea224fe,,,,,,,,,931,44.30078125,-60.09375,1,0,0,response3disk,,4,11.71875,-11.60546875,1,0,0,rectangle,11.71875,-11.60546875,1,0,0,11.71875,-11.60546875,1,0,0,0,117,117,56,1,,,,,,,,
,,,,,,,,,,,,,FF,,,,,,,,1.1163,,,,,,,,,,,,,,,,,,,,,,610017622f038a5f947fc460,61036ccd13ce7b50865e3388,2021-07-29_23h07.46.459,Simcolourproject_2stim_asymm_v5,2020.2.10,MacIntel,60,61025ae37ef11b136ea224fe,,,,,,,,,4168,-67.17578125,-42.9921875,1,0,0,response5disk,,2,-26.234375,-5.421875,1,0,0,rectangle,-26.234375,-5.421875,1,0,0,-26.234375,-5.421875,1,0,0,0,118,118,156,1,,,,,,,,
,,,,,,,,,,,,,FF,,,,,,,,0.8836,,,,,,,,,,,,,,,,,,,,,,610017622f038a5f947fc460,61036ccd13ce7b50865e3388,2021-07-29_23h07.46.459,Simcolourproject_2stim_asymm_v5,2020.2.10,MacIntel,60,61025ae37ef11b136ea224fe,,,,,,,,,2589,34.52734375,-57.23046875,1,0,0,response3disk,,4,9.6640625,-7.06640625,1,0,0,rectangle,9.6640625,-7.06640625,1,0,0,9.6640625,-7.06640625,1,0,0,0,119,119,61,1,,,,,,,,
,,,,,,,,,,,,,FF,,,,,,,,0.7521,,,,,,,,,,,,,,,,,,,,,,610017622f038a5f947fc460,61036ccd13ce7b50865e3388,2021-07-29_23h07.46.459,Simcolourproject_2stim_asymm_v5,2020.2.10,MacIntel,60,61025ae37ef11b136ea224fe,,,,,,,,,2396,100.796875,-53.30859375,1,0,0,response3disk,,5,8,-12.79296875,1,0,0,rectangle,8,-12.79296875,1,0,0,8,-12.79296875,1,0,0,0,120,120,43,1,,,,,,,,
,,,,,,,,,,,,,FF,,,,,,,,1.3006,,,,,,,,,,,,,,,,,,,,,,610017622f038a5f947fc460,61036ccd13ce7b50865e3388,2021-07-29_23h07.46.459,Simcolourproject_2stim_asymm_v5,2020.2.10,MacIntel,60,61025ae37ef11b136ea224fe,,,,,,,,,1272,42.8203125,-70.2109375,1,0,0,response3disk,,4,3.1328125,-13.37890625,1,0,0,rectangle,3.1328125,-13.37890625,1,0,0,3.1328125,-13.37890625,1,0,0,0,121,121,18,1,,,,,,,,
,,,,,,,,,,,,,FF,,,,,,,,1.1686,,,,,,,,,,,,,,,,,,,,,,610017622f038a5f947fc460,61036ccd13ce7b50865e3388,2021-07-29_23h07.46.459,Simcolourproject_2stim_asymm_v5,2020.2.10,MacIntel,60,61025ae37ef11b136ea224fe,,,,,,,,,3238,-24.734375,-69.1328125,1,0,0,response5disk,,3,-3.453125,-13.90234375,1,0,0,rectangle,-3.453125,-13.90234375,1,0,0,-3.453125,-13.90234375,1,0,0,0,122,122,149,1,,,,,,,,
,,,,,,,,,,,,,FF,,,,,,,,1.067,,,,,,,,,,,,,,,,,,,,,,610017622f038a5f947fc460,61036ccd13ce7b50865e3388,2021-07-29_23h07.46.459,Simcolourproject_2stim_asymm_v5,2020.2.10,MacIntel,60,61025ae37ef11b136ea224fe,,,,,,,,,1995,46.19921875,-57.76171875,1,0,0,response3disk,,4,15.140625,-9.6171875,1,0,0,rectangle,15.140625,-9.6171875,1,0,0,15.140625,-9.6171875,1,0,0,0,123,123,132,1,,,,,,,,
,,,,,,,,,,,,,FF,,,,,,,,1.1503,,,,,,,,,,,,,,,,,,,,,,610017622f038a5f947fc460,61036ccd13ce7b50865e3388,2021-07-29_23h07.46.459,Simcolourproject_2stim_asymm_v5,2020.2.10,MacIntel,60,61025ae37ef11b136ea224fe,,,,,,,,,244,50.03515625,-67.73828125,1,0,0,response3disk,,4,-2.78125,13.4921875,1,0,0,rectangle,-2.78125,13.4921875,1,0,0,-2.78125,13.4921875,1,0,0,0,124,124,140,1,,,,,,,,
,,,,,,,,,,,,,FF,,,,,,,,0.881,,,,,,,,,,,,,,,,,,,,,,610017622f038a5f947fc460,61036ccd13ce7b50865e3388,2021-07-29_23h07.46.459,Simcolourproject_2stim_asymm_v5,2020.2.10,MacIntel,60,61025ae37ef11b136ea224fe,,,,,,,,,2259,86.5,-74.7109375,1,0,0,response3disk,,5,26.1796875,-3.703125,1,0,0,rectangle,26.1796875,-3.703125,1,0,0,26.1796875,-3.703125,1,0,0,0,125,125,92,1,,,,,,,,
,,,,,,,,,,,,,FF,,,,,,,,1.0509,,,,,,,,,,,,,,,,,,,,,,610017622f038a5f947fc460,61036ccd13ce7b50865e3388,2021-07-29_23h07.46.459,Simcolourproject_2stim_asymm_v5,2020.2.10,MacIntel,60,61025ae37ef11b136ea224fe,,,,,,,,,1862,78.296875,-45.3671875,1,0,0,response3disk,,5,18.95703125,-10.1875,1,0,0,rectangle,18.95703125,-10.1875,1,0,0,18.95703125,-10.1875,1,0,0,0,126,126,113,1,,,,,,,,
,,,,,,,,,,,,,FF,,,,,,,,0.8319,,,,,,,,,,,,,,,,,,,,,,610017622f038a5f947fc460,61036ccd13ce7b50865e3388,2021-07-29_23h07.46.459,Simcolourproject_2stim_asymm_v5,2020.2.10,MacIntel,60,61025ae37ef11b136ea224fe,,,,,,,,,580,81.37890625,33.0390625,1,0,0,response1disk,,6,14.6171875,10.52734375,1,0,0,rectangle,14.6171875,10.52734375,1,0,0,14.6171875,10.52734375,1,0,0,0,127,127,75,1,,,,,,,,
,,,,,,,,,,,,,FF,,,,,,,,1.4648,,,,,,,,,,,,,,,,,,,,,,610017622f038a5f947fc460,61036ccd13ce7b50865e3388,2021-07-29_23h07.46.459,Simcolourproject_2stim_asymm_v5,2020.2.10,MacIntel,60,61025ae37ef11b136ea224fe,,,,,,,,,2516,70.30078125,-35.2421875,1,0,0,response3disk,,5,13.52734375,10.55078125,1,0,0,rectangle,13.52734375,10.55078125,1,0,0,13.52734375,10.55078125,1,0,0,0,128,128,6,1,,,,,,,,
,,,,,,,,,,,,,FF,,,,,,,,1.4335,,,,,,,,,,,,,,,,,,,,,,610017622f038a5f947fc460,61036ccd13ce7b50865e3388,2021-07-29_23h07.46.459,Simcolourproject_2stim_asymm_v5,2020.2.10,MacIntel,60,61025ae37ef11b136ea224fe,,,,,,,,,480,-27.41796875,-81.08984375,1,0,0,response5disk,,3,-22.8984375,11.0703125,1,0,0,rectangle,-22.8984375,11.0703125,1,0,0,-22.8984375,11.0703125,1,0,0,0,129,129,9,1,,,,,,,,
,,,,,,,,,,,,,FF,,,,,,,,1.531,,,,,,,,,,,,,,,,,,,,,,610017622f038a5f947fc460,61036ccd13ce7b50865e3388,2021-07-29_23h07.46.459,Simcolourproject_2stim_asymm_v5,2020.2.10,MacIntel,60,61025ae37ef11b136ea224fe,,,,,,,,,231,56.89453125,32.8046875,1,0,0,response1disk,,6,-1.46875,-0.9140625,1,0,0,rectangle,-1.46875,-0.9140625,1,0,0,-1.46875,-0.9140625,1,0,0,0,130,130,37,1,,,,,,,,
,,,,,,,,,,,,,FF,,,,,,,,1.0975,,,,,,,,,,,,,,,,,,,,,,610017622f038a5f947fc460,61036ccd13ce7b50865e3388,2021-07-29_23h07.46.459,Simcolourproject_2stim_asymm_v5,2020.2.10,MacIntel,60,61025ae37ef11b136ea224fe,,,,,,,,,2521,76.97265625,51.58203125,1,0,0,response1disk,,6,13.03515625,2.2109375,1,0,0,rectangle,13.03515625,2.2109375,1,0,0,13.03515625,2.2109375,1,0,0,0,131,131,3,1,,,,,,,,
,,,,,,,,,,,,,FF,,,,,,,,0.9672,,,,,,,,,,,,,,,,,,,,,,610017622f038a5f947fc460,61036ccd13ce7b50865e3388,2021-07-29_23h07.46.459,Simcolourproject_2stim_asymm_v5,2020.2.10,MacIntel,60,61025ae37ef11b136ea224fe,,,,,,,,,3406,67.0390625,23.5,1,0,0,response1disk,,6,10.93359375,1.54296875,1,0,0,rectangle,102.0117188,-33.96484375,1,0,0,5.13671875,0.53515625,1,0,0,0,132,132,40,1,,response3disk_3,TRUE,5,5,"[101,93,30,116,46,253,173,97,8,151,262,24,281,262,29,77,205,310,218,133]",1.9003,rectangle
,,,,,,,,,,,,,FF,,,,,,,,1.015,,,,,,,,,,,,,,,,,,,,,,610017622f038a5f947fc460,61036ccd13ce7b50865e3388,2021-07-29_23h07.46.459,Simcolourproject_2stim_asymm_v5,2020.2.10,MacIntel,60,61025ae37ef11b136ea224fe,,,,,,,,,4040,72.06640625,-42.68359375,1,0,0,response3disk,,5,6.1640625,-15.5625,1,0,0,rectangle,6.1640625,-15.5625,1,0,0,6.1640625,-15.5625,1,0,0,0,133,133,137,1,,,,,,,,
,,,,,,,,,,,,,FF,,,,,,,,1.8847,,,,,,,,,,,,,,,,,,,,,,610017622f038a5f947fc460,61036ccd13ce7b50865e3388,2021-07-29_23h07.46.459,Simcolourproject_2stim_asymm_v5,2020.2.10,MacIntel,60,61025ae37ef11b136ea224fe,,,,,,,,,3892,74.27734375,-33.38671875,1,0,0,response3disk,,5,21.77734375,-13.51953125,1,0,0,rectangle,21.77734375,-13.51953125,1,0,0,21.77734375,-13.51953125,1,0,0,0,134,134,106,1,,,,,,,,
,,,,,,,,,,,,,FF,,,,,,,,0.7135,,,,,,,,,,,,,,,,,,,,,,610017622f038a5f947fc460,61036ccd13ce7b50865e3388,2021-07-29_23h07.46.459,Simcolourproject_2stim_asymm_v5,2020.2.10,MacIntel,60,61025ae37ef11b136ea224fe,,,,,,,,,145,79.95703125,-39.16796875,1,0,0,response3disk,,5,9.94921875,-8.421875,1,0,0,rectangle,9.94921875,-8.421875,1,0,0,9.94921875,-8.421875,1,0,0,0,135,135,62,1,,,,,,,,
,,,,,,,,,,,,,FF,,,,,,,,1.0311,,,,,,,,,,,,,,,,,,,,,,610017622f038a5f947fc460,61036ccd13ce7b50865e3388,2021-07-29_23h07.46.459,Simcolourproject_2stim_asymm_v5,2020.2.10,MacIntel,60,61025ae37ef11b136ea224fe,,,,,,,,,1225,-64.078125,-70.83984375,1,0,0,response5disk,,3,-0.9609375,11.98046875,1,0,0,rectangle,-0.9609375,11.98046875,1,0,0,-0.9609375,11.98046875,1,0,0,0,136,136,78,1,,,,,,,,
,,,,,,,,,,,,,FF,,,,,,,,1.4316,,,,,,,,,,,,,,,,,,,,,,610017622f038a5f947fc460,61036ccd13ce7b50865e3388,2021-07-29_23h07.46.459,Simcolourproject_2stim_asymm_v5,2020.2.10,MacIntel,60,61025ae37ef11b136ea224fe,,,,,,,,,4359,48.5078125,-56.65625,1,0,0,response3disk,,4,16.94921875,-12.4140625,1,0,0,rectangle,16.94921875,-12.4140625,1,0,0,16.94921875,-12.4140625,1,0,0,0,137,137,148,1,,,,,,,,
,,,,,,,,,,,,,FF,,,,,,,,1.2161,,,,,,,,,,,,,,,,,,,,,,610017622f038a5f947fc460,61036ccd13ce7b50865e3388,2021-07-29_23h07.46.459,Simcolourproject_2stim_asymm_v5,2020.2.10,MacIntel,60,61025ae37ef11b136ea224fe,,,,,,,,,3633,-57.4609375,-102.1796875,1,0,0,response5disk,,3,-10.53515625,-9.34375,1,0,0,rectangle,-10.53515625,-9.34375,1,0,0,-10.53515625,-9.34375,1,0,0,0,138,138,42,1,,,,,,,,
,,,,,,,,,,,,,FF,,,,,,,,1.0669,,,,,,,,,,,,,,,,,,,,,,610017622f038a5f947fc460,61036ccd13ce7b50865e3388,2021-07-29_23h07.46.459,Simcolourproject_2stim_asymm_v5,2020.2.10,MacIntel,60,61025ae37ef11b136ea224fe,,,,,,,,,2592,-40.96484375,-91.3515625,1,0,0,response5disk,,3,-5.234375,5.44140625,1,0,0,rectangle,-5.234375,5.44140625,1,0,0,-5.234375,5.44140625,1,0,0,0,139,139,100,1,,,,,,,,
,,,,,,,,,,,,,FF,,,,,,,,0.6686,,,,,,,,,,,,,,,,,,,,,,610017622f038a5f947fc460,61036ccd13ce7b50865e3388,2021-07-29_23h07.46.459,Simcolourproject_2stim_asymm_v5,2020.2.10,MacIntel,60,61025ae37ef11b136ea224fe,,,,,,,,,2481,-102.7304688,-52.37109375,1,0,0,response5disk,,2,-24.71484375,-2.38671875,1,0,0,rectangle,-24.71484375,-2.38671875,1,0,0,-24.71484375,-2.38671875,1,0,0,0,140,140,0,1,,,,,,,,
,,,,,,,,,,,,,FF,,,,,,,,1.3661,,,,,,,,,,,,,,,,,,,,,,610017622f038a5f947fc460,61036ccd13ce7b50865e3388,2021-07-29_23h07.46.459,Simcolourproject_2stim_asymm_v5,2020.2.10,MacIntel,60,61025ae37ef11b136ea224fe,,,,,,,,,2999,-31.09375,-58.5078125,1,0,0,response5disk,,3,-13.3125,6.375,1,0,0,rectangle,-13.3125,6.375,1,0,0,-13.3125,6.375,1,0,0,0,141,141,7,1,,,,,,,,
,,,,,,,,,,,,,FF,,,,,,,,1.1047,,,,,,,,,,,,,,,,,,,,,,610017622f038a5f947fc460,61036ccd13ce7b50865e3388,2021-07-29_23h07.46.459,Simcolourproject_2stim_asymm_v5,2020.2.10,MacIntel,60,61025ae37ef11b136ea224fe,,,,,,,,,1557,49.25,-72.453125,1,0,0,response3disk,,4,9.00390625,10.375,1,0,0,rectangle,9.00390625,10.375,1,0,0,9.00390625,10.375,1,0,0,0,142,142,131,1,,,,,,,,
,,,,,,,,,,,,,FF,,,,,,,,0.7486,,,,,,,,,,,,,,,,,,,,,,610017622f038a5f947fc460,61036ccd13ce7b50865e3388,2021-07-29_23h07.46.459,Simcolourproject_2stim_asymm_v5,2020.2.10,MacIntel,60,61025ae37ef11b136ea224fe,,,,,,,,,4031,56.97265625,-23.12890625,1,0,0,response3disk,,5,2.8828125,3.48046875,1,0,0,rectangle,2.8828125,3.48046875,1,0,0,2.8828125,3.48046875,1,0,0,0,143,143,150,1,,,,,,,,
,,,,,,,,,,,,,FF,,,,,,,,0.9847,,,,,,,,,,,,,,,,,,,,,,610017622f038a5f947fc460,61036ccd13ce7b50865e3388,2021-07-29_23h07.46.459,Simcolourproject_2stim_asymm_v5,2020.2.10,MacIntel,60,61025ae37ef11b136ea224fe,,,,,,,,,1365,25.64453125,-60.75390625,1,0,0,response3disk,,4,-3.59375,8.0859375,1,0,0,rectangle,-3.59375,8.0859375,1,0,0,-3.59375,8.0859375,1,0,0,0,144,144,111,1,,,,,,,,
,,,,,,,,,,,,,FF,,,,,,,,0.9142,,,,,,,,,,,,,,,,,,,,,,610017622f038a5f947fc460,61036ccd13ce7b50865e3388,2021-07-29_23h07.46.459,Simcolourproject_2stim_asymm_v5,2020.2.10,MacIntel,60,61025ae37ef11b136ea224fe,,,,,,,,,4271,67.3359375,32.62109375,1,0,0,response1disk,,6,14.12890625,7.72265625,1,0,0,rectangle,14.12890625,7.72265625,1,0,0,14.12890625,7.72265625,1,0,0,0,145,145,77,1,,,,,,,,
,,,,,,,,,,,,,FF,,,,,,,,0.8849,,,,,,,,,,,,,,,,,,,,,,610017622f038a5f947fc460,61036ccd13ce7b50865e3388,2021-07-29_23h07.46.459,Simcolourproject_2stim_asymm_v5,2020.2.10,MacIntel,60,61025ae37ef11b136ea224fe,,,,,,,,,2046,-36.5703125,-77.61328125,1,0,0,response5disk,,3,-2.8359375,-2.71875,1,0,0,rectangle,-2.8359375,-2.71875,1,0,0,-2.8359375,-2.71875,1,0,0,0,146,146,114,1,,,,,,,,
,,,,,,,,,,,,,FF,,,,,,,,1.067,,,,,,,,,,,,,,,,,,,,,,610017622f038a5f947fc460,61036ccd13ce7b50865e3388,2021-07-29_23h07.46.459,Simcolourproject_2stim_asymm_v5,2020.2.10,MacIntel,60,61025ae37ef11b136ea224fe,,,,,,,,,1892,-81.42578125,-44.1484375,1,0,0,response5disk,,2,-11.37890625,-4.60546875,1,0,0,rectangle,-11.37890625,-4.60546875,1,0,0,-11.37890625,-4.60546875,1,0,0,0,147,147,4,1,,,,,,,,
,,,,,,,,,,,,,FF,,,,,,,,1.1147,,,,,,,,,,,,,,,,,,,,,,610017622f038a5f947fc460,61036ccd13ce7b50865e3388,2021-07-29_23h07.46.459,Simcolourproject_2stim_asymm_v5,2020.2.10,MacIntel,60,61025ae37ef11b136ea224fe,,,,,,,,,4352,-47.90234375,-65.26171875,1,0,0,response5disk,,3,-26.34375,-6.89453125,1,0,0,rectangle,-26.34375,-6.89453125,1,0,0,-26.34375,-6.89453125,1,0,0,0,148,148,68,1,,,,,,,,
,,,,,,,,,,,,,FF,,,,,,,,1.0673,,,,,,,,,,,,,,,,,,,,,,610017622f038a5f947fc460,61036ccd13ce7b50865e3388,2021-07-29_23h07.46.459,Simcolourproject_2stim_asymm_v5,2020.2.10,MacIntel,60,61025ae37ef11b136ea224fe,,,,,,,,,1426,102.3007813,-32.953125,1,0,0,response3disk,,5,6.89453125,-3.984375,1,0,0,rectangle,6.89453125,-3.984375,1,0,0,6.89453125,-3.984375,1,0,0,0,149,149,119,1,,,,,,,,
,,,,,,,,,,,,,FF,,,,,,,,1.8015,,,,,,,,,,,,,,,,,,,,,,610017622f038a5f947fc460,61036ccd13ce7b50865e3388,2021-07-29_23h07.46.459,Simcolourproject_2stim_asymm_v5,2020.2.10,MacIntel,60,61025ae37ef11b136ea224fe,,,,,,,,,1813,42.72265625,-60.75390625,1,0,0,response3disk,,4,2.41796875,5.125,1,0,0,rectangle,-51.45703125,-36.25390625,1,0,0,11.27734375,-0.39453125,1,0,0,0,150,150,93,1,,response5disk_3,TRUE,2,2,"[101,93,30,116,46,253,173,97,8,151,262,24,281,262,29,77,205,310,218,133]",1.9309,rectangle
,,,,,,,,,,,,,FF,,,,,,,,0.8329,,,,,,,,,,,,,,,,,,,,,,610017622f038a5f947fc460,61036ccd13ce7b50865e3388,2021-07-29_23h07.46.459,Simcolourproject_2stim_asymm_v5,2020.2.10,MacIntel,60,61025ae37ef11b136ea224fe,,,,,,,,,1674,48.9296875,-63.60546875,1,0,0,response3disk,,4,-0.12890625,-10.03125,1,0,0,rectangle,-0.12890625,-10.03125,1,0,0,-0.12890625,-10.03125,1,0,0,0,151,151,94,1,,,,,,,,
,,,,,,,,,,,,,FF,,,,,,,,0.7811,,,,,,,,,,,,,,,,,,,,,,610017622f038a5f947fc460,61036ccd13ce7b50865e3388,2021-07-29_23h07.46.459,Simcolourproject_2stim_asymm_v5,2020.2.10,MacIntel,60,61025ae37ef11b136ea224fe,,,,,,,,,4305,-96.796875,-39.62109375,1,0,0,response5disk,,2,7.2421875,10.53515625,1,0,0,rectangle,7.2421875,10.53515625,1,0,0,7.2421875,10.53515625,1,0,0,0,152,152,130,1,,,,,,,,
,,,,,,,,,,,,,FF,,,,,,,,0.8831,,,,,,,,,,,,,,,,,,,,,,610017622f038a5f947fc460,61036ccd13ce7b50865e3388,2021-07-29_23h07.46.459,Simcolourproject_2stim_asymm_v5,2020.2.10,MacIntel,60,61025ae37ef11b136ea224fe,,,,,,,,,3647,76.07421875,-23.01953125,1,0,0,response3disk,,5,21.6953125,11.671875,1,0,0,rectangle,21.6953125,11.671875,1,0,0,21.6953125,11.671875,1,0,0,0,153,153,60,1,,,,,,,,
,,,,,,,,,,,,,FF,,,,,,,,1.0168,,,,,,,,,,,,,,,,,,,,,,610017622f038a5f947fc460,61036ccd13ce7b50865e3388,2021-07-29_23h07.46.459,Simcolourproject_2stim_asymm_v5,2020.2.10,MacIntel,60,61025ae37ef11b136ea224fe,,,,,,,,,4351,-34.421875,-57.5703125,1,0,0,response5disk,,3,-26.578125,1.92578125,1,0,0,rectangle,-26.578125,1.92578125,1,0,0,-26.578125,1.92578125,1,0,0,0,154,154,67,1,,,,,,,,
,,,,,,,,,,,,,FF,,,,,,,,0.8677,,,,,,,,,,,,,,,,,,,,,,610017622f038a5f947fc460,61036ccd13ce7b50865e3388,2021-07-29_23h07.46.459,Simcolourproject_2stim_asymm_v5,2020.2.10,MacIntel,60,61025ae37ef11b136ea224fe,,,,,,,,,451,73.703125,37.8828125,1,0,0,response1disk,,6,8.69921875,12.00390625,1,0,0,rectangle,8.69921875,12.00390625,1,0,0,8.69921875,12.00390625,1,0,0,0,155,155,81,1,,,,,,,,
,,,,,,,,,,,,,FF,,,,,,,,1.2331,,,,,,,,,,,,,,,,,,,,,,610017622f038a5f947fc460,61036ccd13ce7b50865e3388,2021-07-29_23h07.46.459,Simcolourproject_2stim_asymm_v5,2020.2.10,MacIntel,60,61025ae37ef11b136ea224fe,,,,,,,,,2008,90.47265625,69.83984375,1,0,0,response1disk,,6,9.296875,11.33984375,1,0,0,rectangle,9.296875,11.33984375,1,0,0,9.296875,11.33984375,1,0,0,0,156,156,135,1,,,,,,,,
,,,,,,,,,,,,,FF,,,,,,,,1.7352,,,,,,,,,,,,,,,,,,,,,,610017622f038a5f947fc460,61036ccd13ce7b50865e3388,2021-07-29_23h07.46.459,Simcolourproject_2stim_asymm_v5,2020.2.10,MacIntel,60,61025ae37ef11b136ea224fe,,,,,,,,,2273,83.66796875,48.1796875,1,0,0,response1disk,,6,24.0859375,12.0390625,1,0,0,rectangle,24.0859375,12.0390625,1,0,0,24.0859375,12.0390625,1,0,0,0,157,157,69,1,,,,,,,,
,,,,,,,,,,,,,FF,,,,,,,,2.6323,,,,,,,,,,,,,,,,,,,,,,610017622f038a5f947fc460,61036ccd13ce7b50865e3388,2021-07-29_23h07.46.459,Simcolourproject_2stim_asymm_v5,2020.2.10,MacIntel,60,61025ae37ef11b136ea224fe,,,,,,,,,2352,30.4921875,-90.94921875,1,0,0,response3disk,,4,-20.12890625,6.3046875,1,0,0,rectangle,-20.12890625,6.3046875,1,0,0,-20.12890625,6.3046875,1,0,0,0,158,158,19,1,,,,,,,,
,,,,,,,,,,,,,FF,,,,,,,,1.747,,,,,,,,,,,,,,,,,,,,,,610017622f038a5f947fc460,61036ccd13ce7b50865e3388,2021-07-29_23h07.46.459,Simcolourproject_2stim_asymm_v5,2020.2.10,MacIntel,60,61025ae37ef11b136ea224fe,,,,,,,,,4000,19.91796875,-77.43359375,1,0,0,response3disk,,4,-19.6171875,-6.06640625,1,0,0,rectangle,-19.6171875,-6.06640625,1,0,0,-19.6171875,-6.06640625,1,0,0,0,159,159,152,1,,,,,,,,
,,,,,,,,,,,,,FF,,,,,,,,1.9827,,,,,,,,,,,,,,,,,,,,,,610017622f038a5f947fc460,61036ccd13ce7b50865e3388,2021-07-29_23h07.46.459,Simcolourproject_2stim_asymm_v5,2020.2.10,MacIntel,60,61025ae37ef11b136ea224fe,,,,,,,,,1516,40.85546875,-63.62890625,1,0,0,response3disk,,4,13.60546875,2.91015625,1,0,0,rectangle,13.60546875,2.91015625,1,0,0,13.60546875,2.91015625,1,0,0,1,0,160,127,1,,,,,,,,
,,,,,,,,,,,,,FF,,,,,,,,1.6011,,,,,,,,,,,,,,,,,,,,,,610017622f038a5f947fc460,61036ccd13ce7b50865e3388,2021-07-29_23h07.46.459,Simcolourproject_2stim_asymm_v5,2020.2.10,MacIntel,60,61025ae37ef11b136ea224fe,,,,,,,,,4339,-78.3359375,-61.16015625,1,0,0,response5disk,,2,-25.4921875,4.125,1,0,0,rectangle,-25.4921875,4.125,1,0,0,-25.4921875,4.125,1,0,0,1,1,161,147,1,,,,,,,,
,,,,,,,,,,,,,FF,,,,,,,,1.3828,,,,,,,,,,,,,,,,,,,,,,610017622f038a5f947fc460,61036ccd13ce7b50865e3388,2021-07-29_23h07.46.459,Simcolourproject_2stim_asymm_v5,2020.2.10,MacIntel,60,61025ae37ef11b136ea224fe,,,,,,,,,1193,-17.9609375,-61.11328125,1,0,0,response5disk,,3,-3.90234375,-13.953125,1,0,0,rectangle,-3.90234375,-13.953125,1,0,0,-3.90234375,-13.953125,1,0,0,1,2,162,81,1,,,,,,,,
,,,,,,,,,,,,,FF,,,,,,,,0.9159,,,,,,,,,,,,,,,,,,,,,,610017622f038a5f947fc460,61036ccd13ce7b50865e3388,2021-07-29_23h07.46.459,Simcolourproject_2stim_asymm_v5,2020.2.10,MacIntel,60,61025ae37ef11b136ea224fe,,,,,,,,,2298,-70.33984375,-41.19140625,1,0,0,response5disk,,2,3.93359375,-3.97265625,1,0,0,rectangle,3.93359375,-3.97265625,1,0,0,3.93359375,-3.97265625,1,0,0,1,3,163,91,1,,,,,,,,
,,,,,,,,,,,,,FF,,,,,,,,1.2508,,,,,,,,,,,,,,,,,,,,,,610017622f038a5f947fc460,61036ccd13ce7b50865e3388,2021-07-29_23h07.46.459,Simcolourproject_2stim_asymm_v5,2020.2.10,MacIntel,60,61025ae37ef11b136ea224fe,,,,,,,,,385,53.015625,-77.26171875,1,0,0,response3disk,,4,-14.828125,4.421875,1,0,0,rectangle,-14.828125,4.421875,1,0,0,-14.828125,4.421875,1,0,0,1,4,164,76,1,,,,,,,,
,,,,,,,,,,,,,FF,,,,,,,,1.3485,,,,,,,,,,,,,,,,,,,,,,610017622f038a5f947fc460,61036ccd13ce7b50865e3388,2021-07-29_23h07.46.459,Simcolourproject_2stim_asymm_v5,2020.2.10,MacIntel,60,61025ae37ef11b136ea224fe,,,,,,,,,1326,59.484375,-51.74609375,1,0,0,response3disk,,5,17.06640625,-14.34375,1,0,0,rectangle,17.06640625,-14.34375,1,0,0,17.06640625,-14.34375,1,0,0,1,5,165,143,1,,,,,,,,
,,,,,,,,,,,,,FF,,,,,,,,0.9316,,,,,,,,,,,,,,,,,,,,,,610017622f038a5f947fc460,61036ccd13ce7b50865e3388,2021-07-29_23h07.46.459,Simcolourproject_2stim_asymm_v5,2020.2.10,MacIntel,60,61025ae37ef11b136ea224fe,,,,,,,,,2170,-38.140625,-66.99609375,1,0,0,response5disk,,3,-6.07421875,6.94921875,1,0,0,rectangle,-6.07421875,6.94921875,1,0,0,-6.07421875,6.94921875,1,0,0,1,6,166,157,1,,,,,,,,
,,,,,,,,,,,,,FF,,,,,,,,1.0496,,,,,,,,,,,,,,,,,,,,,,610017622f038a5f947fc460,61036ccd13ce7b50865e3388,2021-07-29_23h07.46.459,Simcolourproject_2stim_asymm_v5,2020.2.10,MacIntel,60,61025ae37ef11b136ea224fe,,,,,,,,,1648,68.56640625,-36.9375,1,0,0,response3disk,,5,-8.890625,0.41015625,1,0,0,rectangle,-8.890625,0.41015625,1,0,0,-8.890625,0.41015625,1,0,0,1,7,167,83,1,,,,,,,,
,,,,,,,,,,,,,FF,,,,,,,,1.1675,,,,,,,,,,,,,,,,,,,,,,610017622f038a5f947fc460,61036ccd13ce7b50865e3388,2021-07-29_23h07.46.459,Simcolourproject_2stim_asymm_v5,2020.2.10,MacIntel,60,61025ae37ef11b136ea224fe,,,,,,,,,476,-38.44140625,-96.828125,1,0,0,response5disk,,3,-5.3203125,-6.30859375,1,0,0,rectangle,-5.3203125,-6.30859375,1,0,0,-5.3203125,-6.30859375,1,0,0,1,8,168,122,1,,,,,,,,
,,,,,,,,,,,,,FF,,,,,,,,0.9162,,,,,,,,,,,,,,,,,,,,,,610017622f038a5f947fc460,61036ccd13ce7b50865e3388,2021-07-29_23h07.46.459,Simcolourproject_2stim_asymm_v5,2020.2.10,MacIntel,60,61025ae37ef11b136ea224fe,,,,,,,,,1302,-46.13671875,-67.2421875,1,0,0,response5disk,,3,-3.6484375,-16.09765625,1,0,0,rectangle,-3.6484375,-16.09765625,1,0,0,-3.6484375,-16.09765625,1,0,0,1,9,169,6,1,,,,,,,,
,,,,,,,,,,,,,FF,,,,,,,,0.9339,,,,,,,,,,,,,,,,,,,,,,610017622f038a5f947fc460,61036ccd13ce7b50865e3388,2021-07-29_23h07.46.459,Simcolourproject_2stim_asymm_v5,2020.2.10,MacIntel,60,61025ae37ef11b136ea224fe,,,,,,,,,927,55.30859375,-103.90625,1,0,0,response3disk,,4,-9.91015625,-4,1,0,0,rectangle,-9.91015625,-4,1,0,0,-9.91015625,-4,1,0,0,1,10,170,75,1,,,,,,,,
,,,,,,,,,,,,,FF,,,,,,,,1.1151,,,,,,,,,,,,,,,,,,,,,,610017622f038a5f947fc460,61036ccd13ce7b50865e3388,2021-07-29_23h07.46.459,Simcolourproject_2stim_asymm_v5,2020.2.10,MacIntel,60,61025ae37ef11b136ea224fe,,,,,,,,,1392,41.98046875,-87.58203125,1,0,0,response3disk,,4,-17.9375,-6.76171875,1,0,0,rectangle,-17.9375,-6.76171875,1,0,0,-17.9375,-6.76171875,1,0,0,1,11,171,74,1,,,,,,,,
,,,,,,,,,,,,,FF,,,,,,,,1.1347,,,,,,,,,,,,,,,,,,,,,,610017622f038a5f947fc460,61036ccd13ce7b50865e3388,2021-07-29_23h07.46.459,Simcolourproject_2stim_asymm_v5,2020.2.10,MacIntel,60,61025ae37ef11b136ea224fe,,,,,,,,,1263,75.25390625,-60.20703125,1,0,0,response3disk,,5,2.6640625,4.11328125,1,0,0,rectangle,-49.54296875,97.69921875,1,0,0,20.87890625,17.8828125,1,0,0,1,12,172,47,1,,response7disk_3,TRUE,0,0,"[101,93,30,116,46,253,173,97,8,151,262,24,281,262,29,77,205,310,218,133]",1.4681,rectangle
,,,,,,,,,,,,,FF,,,,,,,,0.9647,,,,,,,,,,,,,,,,,,,,,,610017622f038a5f947fc460,61036ccd13ce7b50865e3388,2021-07-29_23h07.46.459,Simcolourproject_2stim_asymm_v5,2020.2.10,MacIntel,60,61025ae37ef11b136ea224fe,,,,,,,,,1759,-27.51171875,-76.8515625,1,0,0,response5disk,,3,-4.234375,1.88671875,1,0,0,rectangle,-4.234375,1.88671875,1,0,0,-4.234375,1.88671875,1,0,0,1,13,173,98,1,,,,,,,,
,,,,,,,,,,,,,FF,,,,,,,,1.2631,,,,,,,,,,,,,,,,,,,,,,610017622f038a5f947fc460,61036ccd13ce7b50865e3388,2021-07-29_23h07.46.459,Simcolourproject_2stim_asymm_v5,2020.2.10,MacIntel,60,61025ae37ef11b136ea224fe,,,,,,,,,269,85.1328125,-56.05078125,1,0,0,response3disk,,5,14.65625,11.54296875,1,0,0,rectangle,14.65625,11.54296875,1,0,0,14.65625,11.54296875,1,0,0,1,14,174,70,1,,,,,,,,
,,,,,,,,,,,,,FF,,,,,,,,0.9169,,,,,,,,,,,,,,,,,,,,,,610017622f038a5f947fc460,61036ccd13ce7b50865e3388,2021-07-29_23h07.46.459,Simcolourproject_2stim_asymm_v5,2020.2.10,MacIntel,60,61025ae37ef11b136ea224fe,,,,,,,,,170,-48.88671875,-93.30859375,1,0,0,response5disk,,3,-29.94921875,-2.79296875,1,0,0,rectangle,-29.94921875,-2.79296875,1,0,0,-29.94921875,-2.79296875,1,0,0,1,15,175,110,1,,,,,,,,
,,,,,,,,,,,,,FF,,,,,,,,1.166,,,,,,,,,,,,,,,,,,,,,,610017622f038a5f947fc460,61036ccd13ce7b50865e3388,2021-07-29_23h07.46.459,Simcolourproject_2stim_asymm_v5,2020.2.10,MacIntel,60,61025ae37ef11b136ea224fe,,,,,,,,,2939,90.6484375,-60.40625,1,0,0,response3disk,,5,11.9296875,-5.15234375,1,0,0,rectangle,11.9296875,-5.15234375,1,0,0,11.9296875,-5.15234375,1,0,0,1,16,176,115,1,,,,,,,,
,,,,,,,,,,,,,FF,,,,,,,,1.6497,,,,,,,,,,,,,,,,,,,,,,610017622f038a5f947fc460,61036ccd13ce7b50865e3388,2021-07-29_23h07.46.459,Simcolourproject_2stim_asymm_v5,2020.2.10,MacIntel,60,61025ae37ef11b136ea224fe,,,,,,,,,1487,87.109375,45.50390625,1,0,0,response1disk,,6,-24.171875,9.984375,1,0,0,rectangle,-24.171875,9.984375,1,0,0,-24.171875,9.984375,1,0,0,1,17,177,135,1,,,,,,,,
,,,,,,,,,,,,,FF,,,,,,,,1.3866,,,,,,,,,,,,,,,,,,,,,,610017622f038a5f947fc460,61036ccd13ce7b50865e3388,2021-07-29_23h07.46.459,Simcolourproject_2stim_asymm_v5,2020.2.10,MacIntel,60,61025ae37ef11b136ea224fe,,,,,,,,,690,56.53515625,-83.0859375,1,0,0,response3disk,,4,5.80859375,5.08984375,1,0,0,rectangle,5.80859375,5.08984375,1,0,0,5.80859375,5.08984375,1,0,0,1,18,178,52,1,,,,,,,,
,,,,,,,,,,,,,FF,,,,,,,,1.3675,,,,,,,,,,,,,,,,,,,,,,610017622f038a5f947fc460,61036ccd13ce7b50865e3388,2021-07-29_23h07.46.459,Simcolourproject_2stim_asymm_v5,2020.2.10,MacIntel,60,61025ae37ef11b136ea224fe,,,,,,,,,912,78.86328125,-42.90234375,1,0,0,response3disk,,5,4.29296875,-3.02734375,1,0,0,rectangle,4.29296875,-3.02734375,1,0,0,4.29296875,-3.02734375,1,0,0,1,19,179,15,1,,,,,,,,
,,,,,,,,,,,,,FF,,,,,,,,1.0327,,,,,,,,,,,,,,,,,,,,,,610017622f038a5f947fc460,61036ccd13ce7b50865e3388,2021-07-29_23h07.46.459,Simcolourproject_2stim_asymm_v5,2020.2.10,MacIntel,60,61025ae37ef11b136ea224fe,,,,,,,,,2277,53,-91.87890625,1,0,0,response3disk,,4,-14.3203125,-1.359375,1,0,0,rectangle,-14.3203125,-1.359375,1,0,0,-14.3203125,-1.359375,1,0,0,1,20,180,43,1,,,,,,,,
,,,,,,,,,,,,,FF,,,,,,,,1.4158,,,,,,,,,,,,,,,,,,,,,,610017622f038a5f947fc460,61036ccd13ce7b50865e3388,2021-07-29_23h07.46.459,Simcolourproject_2stim_asymm_v5,2020.2.10,MacIntel,60,61025ae37ef11b136ea224fe,,,,,,,,,535,70.88671875,-91.0078125,1,0,0,response3disk,,4,12.21875,-13.76171875,1,0,0,rectangle,12.21875,-13.76171875,1,0,0,12.21875,-13.76171875,1,0,0,1,21,181,13,1,,,,,,,,
,,,,,,,,,,,,,FF,,,,,,,,1.2497,,,,,,,,,,,,,,,,,,,,,,610017622f038a5f947fc460,61036ccd13ce7b50865e3388,2021-07-29_23h07.46.459,Simcolourproject_2stim_asymm_v5,2020.2.10,MacIntel,60,61025ae37ef11b136ea224fe,,,,,,,,,1020,95.65625,-43.21875,1,0,0,response3disk,,5,26.56640625,-6.80078125,1,0,0,rectangle,26.56640625,-6.80078125,1,0,0,26.56640625,-6.80078125,1,0,0,1,22,182,3,1,,,,,,,,
,,,,,,,,,,,,,FF,,,,,,,,1.0507,,,,,,,,,,,,,,,,,,,,,,610017622f038a5f947fc460,61036ccd13ce7b50865e3388,2021-07-29_23h07.46.459,Simcolourproject_2stim_asymm_v5,2020.2.10,MacIntel,60,61025ae37ef11b136ea224fe,,,,,,,,,1736,-59.16796875,-88.12109375,1,0,0,response5disk,,3,0.9140625,-4.29296875,1,0,0,rectangle,0.9140625,-4.29296875,1,0,0,0.9140625,-4.29296875,1,0,0,1,23,183,58,1,,,,,,,,
,,,,,,,,,,,,,FF,,,,,,,,0.9993,,,,,,,,,,,,,,,,,,,,,,610017622f038a5f947fc460,61036ccd13ce7b50865e3388,2021-07-29_23h07.46.459,Simcolourproject_2stim_asymm_v5,2020.2.10,MacIntel,60,61025ae37ef11b136ea224fe,,,,,,,,,1711,-24.30078125,-70.9609375,1,0,0,response5disk,,3,-7.8515625,14.82421875,1,0,0,rectangle,-7.8515625,14.82421875,1,0,0,-7.8515625,14.82421875,1,0,0,1,24,184,128,1,,,,,,,,
,,,,,,,,,,,,,FF,,,,,,,,0.8855,,,,,,,,,,,,,,,,,,,,,,610017622f038a5f947fc460,61036ccd13ce7b50865e3388,2021-07-29_23h07.46.459,Simcolourproject_2stim_asymm_v5,2020.2.10,MacIntel,60,61025ae37ef11b136ea224fe,,,,,,,,,2908,-32.42578125,-60.33984375,1,0,0,response5disk,,3,-15.23046875,-10.8984375,1,0,0,rectangle,-15.23046875,-10.8984375,1,0,0,-15.23046875,-10.8984375,1,0,0,1,25,185,45,1,,,,,,,,
,,,,,,,,,,,,,FF,,,,,,,,1.7656,,,,,,,,,,,,,,,,,,,,,,610017622f038a5f947fc460,61036ccd13ce7b50865e3388,2021-07-29_23h07.46.459,Simcolourproject_2stim_asymm_v5,2020.2.10,MacIntel,60,61025ae37ef11b136ea224fe,,,,,,,,,1067,38.23828125,-89.0390625,1,0,0,response3disk,,4,0.51171875,-15.67578125,1,0,0,rectangle,0.51171875,-15.67578125,1,0,0,0.51171875,-15.67578125,1,0,0,1,26,186,119,1,,,,,,,,
,,,,,,,,,,,,,FF,,,,,,,,0.8662,,,,,,,,,,,,,,,,,,,,,,610017622f038a5f947fc460,61036ccd13ce7b50865e3388,2021-07-29_23h07.46.459,Simcolourproject_2stim_asymm_v5,2020.2.10,MacIntel,60,61025ae37ef11b136ea224fe,,,,,,,,,3942,-71.8671875,-46.33203125,1,0,0,response5disk,,2,15.5234375,8.671875,1,0,0,rectangle,15.5234375,8.671875,1,0,0,15.5234375,8.671875,1,0,0,1,27,187,14,1,,,,,,,,
,,,,,,,,,,,,,FF,,,,,,,,0.9156,,,,,,,,,,,,,,,,,,,,,,610017622f038a5f947fc460,61036ccd13ce7b50865e3388,2021-07-29_23h07.46.459,Simcolourproject_2stim_asymm_v5,2020.2.10,MacIntel,60,61025ae37ef11b136ea224fe,,,,,,,,,1100,56.16015625,-73.64453125,1,0,0,response3disk,,4,6.58203125,-7.78125,1,0,0,rectangle,6.58203125,-7.78125,1,0,0,6.58203125,-7.78125,1,0,0,1,28,188,54,1,,,,,,,,
,,,,,,,,,,,,,FF,,,,,,,,1.4787,,,,,,,,,,,,,,,,,,,,,,610017622f038a5f947fc460,61036ccd13ce7b50865e3388,2021-07-29_23h07.46.459,Simcolourproject_2stim_asymm_v5,2020.2.10,MacIntel,60,61025ae37ef11b136ea224fe,,,,,,,,,742,-31.75,-79.4296875,1,0,0,response5disk,,3,10.33984375,4.546875,1,0,0,rectangle,10.33984375,4.546875,1,0,0,10.33984375,4.546875,1,0,0,1,29,189,129,1,,,,,,,,
,,,,,,,,,,,,,FF,,,,,,,,0.9834,,,,,,,,,,,,,,,,,,,,,,610017622f038a5f947fc460,61036ccd13ce7b50865e3388,2021-07-29_23h07.46.459,Simcolourproject_2stim_asymm_v5,2020.2.10,MacIntel,60,61025ae37ef11b136ea224fe,,,,,,,,,234,96.4375,-46.125,1,0,0,response3disk,,5,5.8984375,-13.171875,1,0,0,rectangle,5.8984375,-13.171875,1,0,0,5.8984375,-13.171875,1,0,0,1,30,190,100,1,,,,,,,,
,,,,,,,,,,,,,FF,,,,,,,,1.0013,,,,,,,,,,,,,,,,,,,,,,610017622f038a5f947fc460,61036ccd13ce7b50865e3388,2021-07-29_23h07.46.459,Simcolourproject_2stim_asymm_v5,2020.2.10,MacIntel,60,61025ae37ef11b136ea224fe,,,,,,,,,942,74.234375,-63.46875,1,0,0,response3disk,,5,-6.14453125,1.8671875,1,0,0,rectangle,-6.14453125,1.8671875,1,0,0,-6.14453125,1.8671875,1,0,0,1,31,191,118,1,,,,,,,,
,,,,,,,,,,,,,FF,,,,,,,,0.8816,,,,,,,,,,,,,,,,,,,,,,610017622f038a5f947fc460,61036ccd13ce7b50865e3388,2021-07-29_23h07.46.459,Simcolourproject_2stim_asymm_v5,2020.2.10,MacIntel,60,61025ae37ef11b136ea224fe,,,,,,,,,1217,-24.15625,-98.9296875,1,0,0,response5disk,,3,-14.26953125,-17.6484375,1,0,0,rectangle,-14.26953125,-17.6484375,1,0,0,-14.26953125,-17.6484375,1,0,0,1,32,192,137,1,,,,,,,,
,,,,,,,,,,,,,FF,,,,,,,,1.0811,,,,,,,,,,,,,,,,,,,,,,610017622f038a5f947fc460,61036ccd13ce7b50865e3388,2021-07-29_23h07.46.459,Simcolourproject_2stim_asymm_v5,2020.2.10,MacIntel,60,61025ae37ef11b136ea224fe,,,,,,,,,2831,-54.03515625,97.984375,1,0,0,response7disk,,0,-17.66015625,6.8046875,1,0,0,rectangle,-17.66015625,6.8046875,1,0,0,-17.66015625,6.8046875,1,0,0,1,33,193,114,1,,,,,,,,
,,,,,,,,,,,,,FF,,,,,,,,1.2165,,,,,,,,,,,,,,,,,,,,,,610017622f038a5f947fc460,61036ccd13ce7b50865e3388,2021-07-29_23h07.46.459,Simcolourproject_2stim_asymm_v5,2020.2.10,MacIntel,60,61025ae37ef11b136ea224fe,,,,,,,,,806,-74.625,-42.109375,1,0,0,response5disk,,2,-1.80078125,-12.1796875,1,0,0,rectangle,-1.80078125,-12.1796875,1,0,0,-1.80078125,-12.1796875,1,0,0,1,34,194,95,1,,,,,,,,
,,,,,,,,,,,,,FF,,,,,,,,1.0681,,,,,,,,,,,,,,,,,,,,,,610017622f038a5f947fc460,61036ccd13ce7b50865e3388,2021-07-29_23h07.46.459,Simcolourproject_2stim_asymm_v5,2020.2.10,MacIntel,60,61025ae37ef11b136ea224fe,,,,,,,,,1478,82.37109375,-53.59765625,1,0,0,response3disk,,5,-12.47265625,9.5625,1,0,0,rectangle,-12.47265625,9.5625,1,0,0,-12.47265625,9.5625,1,0,0,1,35,195,103,1,,,,,,,,
,,,,,,,,,,,,,FF,,,,,,,,0.8684,,,,,,,,,,,,,,,,,,,,,,610017622f038a5f947fc460,61036ccd13ce7b50865e3388,2021-07-29_23h07.46.459,Simcolourproject_2stim_asymm_v5,2020.2.10,MacIntel,60,61025ae37ef11b136ea224fe,,,,,,,,,1382,-24.75390625,-56.875,1,0,0,response5disk,,3,-14.05859375,-6.69921875,1,0,0,rectangle,-14.05859375,-6.69921875,1,0,0,-14.05859375,-6.69921875,1,0,0,1,36,196,53,1,,,,,,,,
,,,,,,,,,,,,,FF,,,,,,,,0.9331,,,,,,,,,,,,,,,,,,,,,,610017622f038a5f947fc460,61036ccd13ce7b50865e3388,2021-07-29_23h07.46.459,Simcolourproject_2stim_asymm_v5,2020.2.10,MacIntel,60,61025ae37ef11b136ea224fe,,,,,,,,,2017,55.640625,-62.55859375,1,0,0,response3disk,,4,12.87890625,11.1328125,1,0,0,rectangle,12.87890625,11.1328125,1,0,0,12.87890625,11.1328125,1,0,0,1,37,197,138,1,,,,,,,,
,,,,,,,,,,,,,FF,,,,,,,,2.3001,,,,,,,,,,,,,,,,,,,,,,610017622f038a5f947fc460,61036ccd13ce7b50865e3388,2021-07-29_23h07.46.459,Simcolourproject_2stim_asymm_v5,2020.2.10,MacIntel,60,61025ae37ef11b136ea224fe,,,,,,,,,3073,83.19921875,-39.03125,1,0,0,response3disk,,5,13.140625,4.1953125,1,0,0,rectangle,13.140625,4.1953125,1,0,0,13.140625,4.1953125,1,0,0,1,38,198,26,1,,,,,,,,
,,,,,,,,,,,,,FF,,,,,,,,1.0181,,,,,,,,,,,,,,,,,,,,,,610017622f038a5f947fc460,61036ccd13ce7b50865e3388,2021-07-29_23h07.46.459,Simcolourproject_2stim_asymm_v5,2020.2.10,MacIntel,60,61025ae37ef11b136ea224fe,,,,,,,,,343,-28.828125,-81.72265625,1,0,0,response5disk,,3,-1.24609375,-8.15234375,1,0,0,rectangle,-1.24609375,-8.15234375,1,0,0,-1.24609375,-8.15234375,1,0,0,1,39,199,158,1,,,,,,,,
,,,,,,,,,,,,,FF,,,,,,,,0.8996,,,,,,,,,,,,,,,,,,,,,,610017622f038a5f947fc460,61036ccd13ce7b50865e3388,2021-07-29_23h07.46.459,Simcolourproject_2stim_asymm_v5,2020.2.10,MacIntel,60,61025ae37ef11b136ea224fe,,,,,,,,,3003,-31.62890625,-68.4765625,1,0,0,response5disk,,3,-16.13671875,-7.64453125,1,0,0,rectangle,-16.13671875,-7.64453125,1,0,0,-16.13671875,-7.64453125,1,0,0,1,40,200,60,1,,,,,,,,
,,,,,,,,,,,,,FF,,,,,,,,0.6969,,,,,,,,,,,,,,,,,,,,,,610017622f038a5f947fc460,61036ccd13ce7b50865e3388,2021-07-29_23h07.46.459,Simcolourproject_2stim_asymm_v5,2020.2.10,MacIntel,60,61025ae37ef11b136ea224fe,,,,,,,,,3150,-41.6796875,-60.015625,1,0,0,response5disk,,3,-14.04296875,0.13671875,1,0,0,rectangle,-14.04296875,0.13671875,1,0,0,-14.04296875,0.13671875,1,0,0,1,41,201,92,1,,,,,,,,
,,,,,,,,,,,,,FF,,,,,,,,1.1169,,,,,,,,,,,,,,,,,,,,,,610017622f038a5f947fc460,61036ccd13ce7b50865e3388,2021-07-29_23h07.46.459,Simcolourproject_2stim_asymm_v5,2020.2.10,MacIntel,60,61025ae37ef11b136ea224fe,,,,,,,,,1135,-86.4296875,-32.21484375,1,0,0,response5disk,,2,2.02734375,9.7109375,1,0,0,rectangle,2.02734375,9.7109375,1,0,0,2.02734375,9.7109375,1,0,0,1,42,202,141,1,,,,,,,,
,,,,,,,,,,,,,FF,,,,,,,,1.0988,,,,,,,,,,,,,,,,,,,,,,610017622f038a5f947fc460,61036ccd13ce7b50865e3388,2021-07-29_23h07.46.459,Simcolourproject_2stim_asymm_v5,2020.2.10,MacIntel,60,61025ae37ef11b136ea224fe,,,,,,,,,1253,85.765625,-28.796875,1,0,0,response3disk,,5,15.65625,11.421875,1,0,0,rectangle,15.65625,11.421875,1,0,0,15.65625,11.421875,1,0,0,1,43,203,96,1,,,,,,,,
,,,,,,,,,,,,,FF,,,,,,,,1.1528,,,,,,,,,,,,,,,,,,,,,,610017622f038a5f947fc460,61036ccd13ce7b50865e3388,2021-07-29_23h07.46.459,Simcolourproject_2stim_asymm_v5,2020.2.10,MacIntel,60,61025ae37ef11b136ea224fe,,,,,,,,,729,-17.46484375,-33.38671875,1,0,0,response5disk,,3,-13.39453125,4.65234375,1,0,0,rectangle,20.58203125,-84.56640625,1,0,0,0.1015625,-0.4296875,1,0,0,1,44,204,56,1,,response3disk_3,TRUE,4,4,"[101,93,30,116,46,253,173,97,8,151,262,24,281,262,29,77,205,310,218,133]",1.7514,rectangle
,,,,,,,,,,,,,FF,,,,,,,,0.799,,,,,,,,,,,,,,,,,,,,,,610017622f038a5f947fc460,61036ccd13ce7b50865e3388,2021-07-29_23h07.46.459,Simcolourproject_2stim_asymm_v5,2020.2.10,MacIntel,60,61025ae37ef11b136ea224fe,,,,,,,,,2131,86.109375,-42.66796875,1,0,0,response3disk,,5,16.69921875,-10.0234375,1,0,0,rectangle,16.69921875,-10.0234375,1,0,0,16.69921875,-10.0234375,1,0,0,1,45,205,29,1,,,,,,,,
,,,,,,,,,,,,,FF,,,,,,,,1.4653,,,,,,,,,,,,,,,,,,,,,,610017622f038a5f947fc460,61036ccd13ce7b50865e3388,2021-07-29_23h07.46.459,Simcolourproject_2stim_asymm_v5,2020.2.10,MacIntel,60,61025ae37ef11b136ea224fe,,,,,,,,,3963,28.75,-62.24609375,1,0,0,response3disk,,4,9.32421875,-10.37890625,1,0,0,rectangle,9.32421875,-10.37890625,1,0,0,9.32421875,-10.37890625,1,0,0,1,46,206,152,1,,,,,,,,
,,,,,,,,,,,,,FF,,,,,,,,1.4329,,,,,,,,,,,,,,,,,,,,,,610017622f038a5f947fc460,61036ccd13ce7b50865e3388,2021-07-29_23h07.46.459,Simcolourproject_2stim_asymm_v5,2020.2.10,MacIntel,60,61025ae37ef11b136ea224fe,,,,,,,,,1089,54.35546875,-36.87109375,1,0,0,response3disk,,5,16.77734375,-17.47265625,1,0,0,rectangle,16.77734375,-17.47265625,1,0,0,16.77734375,-17.47265625,1,0,0,1,47,207,9,1,,,,,,,,
,,,,,,,,,,,,,FF,,,,,,,,2.3825,,,,,,,,,,,,,,,,,,,,,,610017622f038a5f947fc460,61036ccd13ce7b50865e3388,2021-07-29_23h07.46.459,Simcolourproject_2stim_asymm_v5,2020.2.10,MacIntel,60,61025ae37ef11b136ea224fe,,,,,,,,,1922,68.6171875,-60.65625,1,0,0,response3disk,,5,-0.78515625,-12.58984375,1,0,0,rectangle,-0.78515625,-12.58984375,1,0,0,-0.78515625,-12.58984375,1,0,0,1,48,208,40,1,,,,,,,,
,,,,,,,,,,,,,FF,,,,,,,,1.2346,,,,,,,,,,,,,,,,,,,,,,610017622f038a5f947fc460,61036ccd13ce7b50865e3388,2021-07-29_23h07.46.459,Simcolourproject_2stim_asymm_v5,2020.2.10,MacIntel,60,61025ae37ef11b136ea224fe,,,,,,,,,2338,77.6015625,49.5703125,1,0,0,response1disk,,6,30.83203125,4.28515625,1,0,0,rectangle,30.83203125,4.28515625,1,0,0,30.83203125,4.28515625,1,0,0,1,49,209,121,1,,,,,,,,
,,,,,,,,,,,,,FF,,,,,,,,1.0341,,,,,,,,,,,,,,,,,,,,,,610017622f038a5f947fc460,61036ccd13ce7b50865e3388,2021-07-29_23h07.46.459,Simcolourproject_2stim_asymm_v5,2020.2.10,MacIntel,60,61025ae37ef11b136ea224fe,,,,,,,,,2602,-47.015625,-80.25,1,0,0,response5disk,,3,-26.40625,11.78515625,1,0,0,rectangle,-26.40625,11.78515625,1,0,0,-26.40625,11.78515625,1,0,0,1,50,210,41,1,,,,,,,,
,,,,,,,,,,,,,FF,,,,,,,,0.9323,,,,,,,,,,,,,,,,,,,,,,610017622f038a5f947fc460,61036ccd13ce7b50865e3388,2021-07-29_23h07.46.459,Simcolourproject_2stim_asymm_v5,2020.2.10,MacIntel,60,61025ae37ef11b136ea224fe,,,,,,,,,564,-28.08203125,-71.22265625,1,0,0,response5disk,,3,-5.3125,10.234375,1,0,0,rectangle,-5.3125,10.234375,1,0,0,-5.3125,10.234375,1,0,0,1,51,211,148,1,,,,,,,,
,,,,,,,,,,,,,FF,,,,,,,,0.8135,,,,,,,,,,,,,,,,,,,,,,610017622f038a5f947fc460,61036ccd13ce7b50865e3388,2021-07-29_23h07.46.459,Simcolourproject_2stim_asymm_v5,2020.2.10,MacIntel,60,61025ae37ef11b136ea224fe,,,,,,,,,3496,69.1171875,-18.921875,1,0,0,response3disk,,5,6.86328125,17.30859375,1,0,0,rectangle,6.86328125,17.30859375,1,0,0,6.86328125,17.30859375,1,0,0,1,52,212,153,1,,,,,,,,
,,,,,,,,,,,,,FF,,,,,,,,0.9997,,,,,,,,,,,,,,,,,,,,,,610017622f038a5f947fc460,61036ccd13ce7b50865e3388,2021-07-29_23h07.46.459,Simcolourproject_2stim_asymm_v5,2020.2.10,MacIntel,60,61025ae37ef11b136ea224fe,,,,,,,,,2275,61.32421875,-26.72265625,1,0,0,response3disk,,5,9.71484375,-12.76171875,1,0,0,rectangle,9.71484375,-12.76171875,1,0,0,9.71484375,-12.76171875,1,0,0,1,53,213,94,1,,,,,,,,
,,,,,,,,,,,,,FF,,,,,,,,0.8674,,,,,,,,,,,,,,,,,,,,,,610017622f038a5f947fc460,61036ccd13ce7b50865e3388,2021-07-29_23h07.46.459,Simcolourproject_2stim_asymm_v5,2020.2.10,MacIntel,60,61025ae37ef11b136ea224fe,,,,,,,,,3157,-68.94921875,-27.2421875,1,0,0,response5disk,,2,-0.1640625,-9.8359375,1,0,0,rectangle,-0.1640625,-9.8359375,1,0,0,-0.1640625,-9.8359375,1,0,0,1,54,214,59,1,,,,,,,,
,,,,,,,,,,,,,FF,,,,,,,,0.7002,,,,,,,,,,,,,,,,,,,,,,610017622f038a5f947fc460,61036ccd13ce7b50865e3388,2021-07-29_23h07.46.459,Simcolourproject_2stim_asymm_v5,2020.2.10,MacIntel,60,61025ae37ef11b136ea224fe,,,,,,,,,3192,-77.0859375,-50.87109375,1,0,0,response5disk,,2,-8.9921875,1.77734375,1,0,0,rectangle,-8.9921875,1.77734375,1,0,0,-8.9921875,1.77734375,1,0,0,1,55,215,66,1,,,,,,,,
,,,,,,,,,,,,,FF,,,,,,,,1.0338,,,,,,,,,,,,,,,,,,,,,,610017622f038a5f947fc460,61036ccd13ce7b50865e3388,2021-07-29_23h07.46.459,Simcolourproject_2stim_asymm_v5,2020.2.10,MacIntel,60,61025ae37ef11b136ea224fe,,,,,,,,,1316,38.76171875,-62.796875,1,0,0,response3disk,,4,28.54296875,-4.32421875,1,0,0,rectangle,28.54296875,-4.32421875,1,0,0,28.54296875,-4.32421875,1,0,0,1,56,216,106,1,,,,,,,,
,,,,,,,,,,,,,FF,,,,,,,,0.9334,,,,,,,,,,,,,,,,,,,,,,610017622f038a5f947fc460,61036ccd13ce7b50865e3388,2021-07-29_23h07.46.459,Simcolourproject_2stim_asymm_v5,2020.2.10,MacIntel,60,61025ae37ef11b136ea224fe,,,,,,,,,2676,-48.65625,-79.9375,1,0,0,response5disk,,3,-13.36328125,-17.4296875,1,0,0,rectangle,26.8828125,-88.90625,1,0,0,0.31640625,10.44140625,1,0,0,1,57,217,93,1,,response3disk_3,TRUE,4,4,"[101,93,30,116,46,253,173,97,8,151,262,24,281,262,29,77,205,310,218,133]",1.6341,rectangle
,,,,,,,,,,,,,FF,,,,,,,,0.8677,,,,,,,,,,,,,,,,,,,,,,610017622f038a5f947fc460,61036ccd13ce7b50865e3388,2021-07-29_23h07.46.459,Simcolourproject_2stim_asymm_v5,2020.2.10,MacIntel,60,61025ae37ef11b136ea224fe,,,,,,,,,1461,-56.95703125,-89.953125,1,0,0,response5disk,,3,-10.3671875,-5.26171875,1,0,0,rectangle,-10.3671875,-5.26171875,1,0,0,-10.3671875,-5.26171875,1,0,0,1,58,218,124,1,,,,,,,,
,,,,,,,,,,,,,FF,,,,,,,,1.0328,,,,,,,,,,,,,,,,,,,,,,610017622f038a5f947fc460,61036ccd13ce7b50865e3388,2021-07-29_23h07.46.459,Simcolourproject_2stim_asymm_v5,2020.2.10,MacIntel,60,61025ae37ef11b136ea224fe,,,,,,,,,399,47.9296875,-93.3984375,1,0,0,response3disk,,4,7.6640625,-3.98828125,1,0,0,rectangle,7.6640625,-3.98828125,1,0,0,7.6640625,-3.98828125,1,0,0,1,59,219,67,1,,,,,,,,
,,,,,,,,,,,,,FF,,,,,,,,1.017,,,,,,,,,,,,,,,,,,,,,,610017622f038a5f947fc460,61036ccd13ce7b50865e3388,2021-07-29_23h07.46.459,Simcolourproject_2stim_asymm_v5,2020.2.10,MacIntel,60,61025ae37ef11b136ea224fe,,,,,,,,,3361,62.0703125,32.8671875,1,0,0,response1disk,,6,9.4375,4.890625,1,0,0,rectangle,9.4375,4.890625,1,0,0,9.4375,4.890625,1,0,0,1,60,220,99,1,,,,,,,,
,,,,,,,,,,,,,FF,,,,,,,,1.1679,,,,,,,,,,,,,,,,,,,,,,610017622f038a5f947fc460,61036ccd13ce7b50865e3388,2021-07-29_23h07.46.459,Simcolourproject_2stim_asymm_v5,2020.2.10,MacIntel,60,61025ae37ef11b136ea224fe,,,,,,,,,2533,53.83203125,-89.87109375,1,0,0,response3disk,,4,0.43359375,-10.9296875,1,0,0,rectangle,0.43359375,-10.9296875,1,0,0,0.43359375,-10.9296875,1,0,0,1,61,221,78,1,,,,,,,,
,,,,,,,,,,,,,FF,,,,,,,,1.1501,,,,,,,,,,,,,,,,,,,,,,610017622f038a5f947fc460,61036ccd13ce7b50865e3388,2021-07-29_23h07.46.459,Simcolourproject_2stim_asymm_v5,2020.2.10,MacIntel,60,61025ae37ef11b136ea224fe,,,,,,,,,3509,-56.0625,-104.4921875,1,0,0,response5disk,,3,-21.13671875,-15.0234375,1,0,0,rectangle,-21.13671875,-15.0234375,1,0,0,-21.13671875,-15.0234375,1,0,0,1,62,222,22,1,,,,,,,,
,,,,,,,,,,,,,FF,,,,,,,,1.0342,,,,,,,,,,,,,,,,,,,,,,610017622f038a5f947fc460,61036ccd13ce7b50865e3388,2021-07-29_23h07.46.459,Simcolourproject_2stim_asymm_v5,2020.2.10,MacIntel,60,61025ae37ef11b136ea224fe,,,,,,,,,2756,58.76171875,-74.23828125,1,0,0,response3disk,,4,7.3671875,-0.7890625,1,0,0,rectangle,7.3671875,-0.7890625,1,0,0,7.3671875,-0.7890625,1,0,0,1,63,223,139,1,,,,,,,,
,,,,,,,,,,,,,FF,,,,,,,,0.9499,,,,,,,,,,,,,,,,,,,,,,610017622f038a5f947fc460,61036ccd13ce7b50865e3388,2021-07-29_23h07.46.459,Simcolourproject_2stim_asymm_v5,2020.2.10,MacIntel,60,61025ae37ef11b136ea224fe,,,,,,,,,654,-31.4453125,-62.5859375,1,0,0,response5disk,,3,-26.33984375,-1.8046875,1,0,0,rectangle,-26.33984375,-1.8046875,1,0,0,-26.33984375,-1.8046875,1,0,0,1,64,224,101,1,,,,,,,,
,,,,,,,,,,,,,FF,,,,,,,,0.8498,,,,,,,,,,,,,,,,,,,,,,610017622f038a5f947fc460,61036ccd13ce7b50865e3388,2021-07-29_23h07.46.459,Simcolourproject_2stim_asymm_v5,2020.2.10,MacIntel,60,61025ae37ef11b136ea224fe,,,,,,,,,2772,-68.2109375,-32.3125,1,0,0,response5disk,,2,-29.1328125,-7.96484375,1,0,0,rectangle,-29.1328125,-7.96484375,1,0,0,-29.1328125,-7.96484375,1,0,0,1,65,225,90,1,,,,,,,,
,,,,,,,,,,,,,FF,,,,,,,,1.1851,,,,,,,,,,,,,,,,,,,,,,610017622f038a5f947fc460,61036ccd13ce7b50865e3388,2021-07-29_23h07.46.459,Simcolourproject_2stim_asymm_v5,2020.2.10,MacIntel,60,61025ae37ef11b136ea224fe,,,,,,,,,1036,77.9921875,-93.078125,1,0,0,response3disk,,4,15.76171875,12.16015625,1,0,0,rectangle,15.76171875,12.16015625,1,0,0,15.76171875,12.16015625,1,0,0,1,66,226,46,1,,,,,,,,
,,,,,,,,,,,,,FF,,,,,,,,0.8826,,,,,,,,,,,,,,,,,,,,,,610017622f038a5f947fc460,61036ccd13ce7b50865e3388,2021-07-29_23h07.46.459,Simcolourproject_2stim_asymm_v5,2020.2.10,MacIntel,60,61025ae37ef11b136ea224fe,,,,,,,,,2186,-34.31640625,-87.04296875,1,0,0,response5disk,,3,-4.76171875,2.8671875,1,0,0,rectangle,-4.76171875,2.8671875,1,0,0,-4.76171875,2.8671875,1,0,0,1,67,227,82,1,,,,,,,,
,,,,,,,,,,,,,FF,,,,,,,,1.216,,,,,,,,,,,,,,,,,,,,,,610017622f038a5f947fc460,61036ccd13ce7b50865e3388,2021-07-29_23h07.46.459,Simcolourproject_2stim_asymm_v5,2020.2.10,MacIntel,60,61025ae37ef11b136ea224fe,,,,,,,,,789,-33.26171875,-75.19140625,1,0,0,response5disk,,3,-22.453125,0.703125,1,0,0,rectangle,-22.453125,0.703125,1,0,0,-22.453125,0.703125,1,0,0,1,68,228,144,1,,,,,,,,
,,,,,,,,,,,,,FF,,,,,,,,1.1334,,,,,,,,,,,,,,,,,,,,,,610017622f038a5f947fc460,61036ccd13ce7b50865e3388,2021-07-29_23h07.46.459,Simcolourproject_2stim_asymm_v5,2020.2.10,MacIntel,60,61025ae37ef11b136ea224fe,,,,,,,,,3080,101.3828125,-27.8203125,1,0,0,response3disk,,5,20.37109375,0.06640625,1,0,0,rectangle,20.37109375,0.06640625,1,0,0,20.37109375,0.06640625,1,0,0,1,69,229,65,1,,,,,,,,
,,,,,,,,,,,,,FF,,,,,,,,1.0162,,,,,,,,,,,,,,,,,,,,,,610017622f038a5f947fc460,61036ccd13ce7b50865e3388,2021-07-29_23h07.46.459,Simcolourproject_2stim_asymm_v5,2020.2.10,MacIntel,60,61025ae37ef11b136ea224fe,,,,,,,,,16,37.6484375,-88.4765625,1,0,0,response3disk,,4,-0.79296875,-7.46875,1,0,0,rectangle,-0.79296875,-7.46875,1,0,0,-0.79296875,-7.46875,1,0,0,1,70,230,154,1,,,,,,,,
,,,,,,,,,,,,,FF,,,,,,,,1.1662,,,,,,,,,,,,,,,,,,,,,,610017622f038a5f947fc460,61036ccd13ce7b50865e3388,2021-07-29_23h07.46.459,Simcolourproject_2stim_asymm_v5,2020.2.10,MacIntel,60,61025ae37ef11b136ea224fe,,,,,,,,,1510,53.8046875,-87.671875,1,0,0,response3disk,,4,-12.06640625,5.9375,1,0,0,rectangle,-12.06640625,5.9375,1,0,0,-12.06640625,5.9375,1,0,0,1,71,231,49,1,,,,,,,,
,,,,,,,,,,,,,FF,,,,,,,,1.7333,,,,,,,,,,,,,,,,,,,,,,610017622f038a5f947fc460,61036ccd13ce7b50865e3388,2021-07-29_23h07.46.459,Simcolourproject_2stim_asymm_v5,2020.2.10,MacIntel,60,61025ae37ef11b136ea224fe,,,,,,,,,1007,73.75390625,39.0390625,1,0,0,response1disk,,6,6.75,0.44140625,1,0,0,rectangle,6.75,0.44140625,1,0,0,6.75,0.44140625,1,0,0,1,72,232,1,1,,,,,,,,
,,,,,,,,,,,,,FF,,,,,,,,0.9019,,,,,,,,,,,,,,,,,,,,,,610017622f038a5f947fc460,61036ccd13ce7b50865e3388,2021-07-29_23h07.46.459,Simcolourproject_2stim_asymm_v5,2020.2.10,MacIntel,60,61025ae37ef11b136ea224fe,,,,,,,,,4015,45.9296875,-105.9179688,1,0,0,response3disk,,4,-2.25390625,-13.33203125,1,0,0,rectangle,-2.25390625,-13.33203125,1,0,0,-2.25390625,-13.33203125,1,0,0,1,73,233,73,1,,,,,,,,
,,,,,,,,,,,,,FF,,,,,,,,1.0181,,,,,,,,,,,,,,,,,,,,,,610017622f038a5f947fc460,61036ccd13ce7b50865e3388,2021-07-29_23h07.46.459,Simcolourproject_2stim_asymm_v5,2020.2.10,MacIntel,60,61025ae37ef11b136ea224fe,,,,,,,,,3897,80.8203125,-33.61328125,1,0,0,response3disk,,5,28.70703125,13.34375,1,0,0,rectangle,28.70703125,13.34375,1,0,0,28.70703125,13.34375,1,0,0,1,74,234,112,1,,,,,,,,
,,,,,,,,,,,,,FF,,,,,,,,2.0671,,,,,,,,,,,,,,,,,,,,,,610017622f038a5f947fc460,61036ccd13ce7b50865e3388,2021-07-29_23h07.46.459,Simcolourproject_2stim_asymm_v5,2020.2.10,MacIntel,60,61025ae37ef11b136ea224fe,,,,,,,,,315,85.08984375,60.84765625,1,0,0,response1disk,,6,-5.76953125,7.34375,1,0,0,rectangle,-5.76953125,7.34375,1,0,0,-5.76953125,7.34375,1,0,0,1,75,235,51,1,,,,,,,,
,,,,,,,,,,,,,FF,,,,,,,,0.883,,,,,,,,,,,,,,,,,,,,,,610017622f038a5f947fc460,61036ccd13ce7b50865e3388,2021-07-29_23h07.46.459,Simcolourproject_2stim_asymm_v5,2020.2.10,MacIntel,60,61025ae37ef11b136ea224fe,,,,,,,,,1024,46.66015625,-80.5390625,1,0,0,response3disk,,4,-23.00390625,10.69921875,1,0,0,rectangle,-23.00390625,10.69921875,1,0,0,-23.00390625,10.69921875,1,0,0,1,76,236,136,1,,,,,,,,
,,,,,,,,,,,,,FF,,,,,,,,0.8325,,,,,,,,,,,,,,,,,,,,,,610017622f038a5f947fc460,61036ccd13ce7b50865e3388,2021-07-29_23h07.46.459,Simcolourproject_2stim_asymm_v5,2020.2.10,MacIntel,60,61025ae37ef11b136ea224fe,,,,,,,,,1149,-55,-69.1171875,1,0,0,response5disk,,3,-20.3125,-4.78125,1,0,0,rectangle,-20.3125,-4.78125,1,0,0,-20.3125,-4.78125,1,0,0,1,77,237,131,1,,,,,,,,
,,,,,,,,,,,,,FF,,,,,,,,0.784,,,,,,,,,,,,,,,,,,,,,,610017622f038a5f947fc460,61036ccd13ce7b50865e3388,2021-07-29_23h07.46.459,Simcolourproject_2stim_asymm_v5,2020.2.10,MacIntel,60,61025ae37ef11b136ea224fe,,,,,,,,,3143,-68.83203125,-38.38671875,1,0,0,response5disk,,2,-5.6640625,-4.12890625,1,0,0,rectangle,-5.6640625,-4.12890625,1,0,0,-5.6640625,-4.12890625,1,0,0,1,78,238,17,1,,,,,,,,
,,,,,,,,,,,,,FF,,,,,,,,0.8996,,,,,,,,,,,,,,,,,,,,,,610017622f038a5f947fc460,61036ccd13ce7b50865e3388,2021-07-29_23h07.46.459,Simcolourproject_2stim_asymm_v5,2020.2.10,MacIntel,60,61025ae37ef11b136ea224fe,,,,,,,,,3087,85.26953125,-45.21484375,1,0,0,response3disk,,5,19.58203125,0.3828125,1,0,0,rectangle,19.58203125,0.3828125,1,0,0,19.58203125,0.3828125,1,0,0,1,79,239,30,1,,,,,,,,
,,,,,,,,,,,,,FF,,,,,,,,0.7825,,,,,,,,,,,,,,,,,,,,,,610017622f038a5f947fc460,61036ccd13ce7b50865e3388,2021-07-29_23h07.46.459,Simcolourproject_2stim_asymm_v5,2020.2.10,MacIntel,60,61025ae37ef11b136ea224fe,,,,,,,,,167,-64.3046875,-79.12890625,1,0,0,response5disk,,3,-6.6875,-3.078125,1,0,0,rectangle,-6.6875,-3.078125,1,0,0,-6.6875,-3.078125,1,0,0,1,80,240,48,1,,,,,,,,
,,,,,,,,,,,,,FF,,,,,,,,0.882,,,,,,,,,,,,,,,,,,,,,,610017622f038a5f947fc460,61036ccd13ce7b50865e3388,2021-07-29_23h07.46.459,Simcolourproject_2stim_asymm_v5,2020.2.10,MacIntel,60,61025ae37ef11b136ea224fe,,,,,,,,,1569,32.30859375,-72.72265625,1,0,0,response3disk,,4,4.80078125,-14.578125,1,0,0,rectangle,4.80078125,-14.578125,1,0,0,4.80078125,-14.578125,1,0,0,1,81,241,132,1,,,,,,,,
,,,,,,,,,,,,,FF,,,,,,,,0.9826,,,,,,,,,,,,,,,,,,,,,,610017622f038a5f947fc460,61036ccd13ce7b50865e3388,2021-07-29_23h07.46.459,Simcolourproject_2stim_asymm_v5,2020.2.10,MacIntel,60,61025ae37ef11b136ea224fe,,,,,,,,,3778,-34.671875,-64.8984375,1,0,0,response5disk,,3,-0.5859375,-1.87109375,1,0,0,rectangle,-0.5859375,-1.87109375,1,0,0,-0.5859375,-1.87109375,1,0,0,1,82,242,0,1,,,,,,,,
,,,,,,,,,,,,,FF,,,,,,,,0.7182,,,,,,,,,,,,,,,,,,,,,,610017622f038a5f947fc460,61036ccd13ce7b50865e3388,2021-07-29_23h07.46.459,Simcolourproject_2stim_asymm_v5,2020.2.10,MacIntel,60,61025ae37ef11b136ea224fe,,,,,,,,,3937,-37.27734375,-72.5546875,1,0,0,response5disk,,3,12.25,12.30078125,1,0,0,rectangle,12.25,12.30078125,1,0,0,12.25,12.30078125,1,0,0,1,83,243,84,1,,,,,,,,
,,,,,,,,,,,,,FF,,,,,,,,1.3488,,,,,,,,,,,,,,,,,,,,,,610017622f038a5f947fc460,61036ccd13ce7b50865e3388,2021-07-29_23h07.46.459,Simcolourproject_2stim_asymm_v5,2020.2.10,MacIntel,60,61025ae37ef11b136ea224fe,,,,,,,,,885,-87.8125,-31.38671875,1,0,0,response5disk,,2,-0.6328125,4.4765625,1,0,0,rectangle,-0.6328125,4.4765625,1,0,0,-0.6328125,4.4765625,1,0,0,1,84,244,37,1,,,,,,,,
,,,,,,,,,,,,,FF,,,,,,,,0.9505,,,,,,,,,,,,,,,,,,,,,,610017622f038a5f947fc460,61036ccd13ce7b50865e3388,2021-07-29_23h07.46.459,Simcolourproject_2stim_asymm_v5,2020.2.10,MacIntel,60,61025ae37ef11b136ea224fe,,,,,,,,,2233,-79.546875,-45.11328125,1,0,0,response5disk,,2,2.2734375,-2.05859375,1,0,0,rectangle,2.2734375,-2.05859375,1,0,0,2.2734375,-2.05859375,1,0,0,1,85,245,34,1,,,,,,,,
,,,,,,,,,,,,,FF,,,,,,,,2.6352,,,,,,,,,,,,,,,,,,,,,,610017622f038a5f947fc460,61036ccd13ce7b50865e3388,2021-07-29_23h07.46.459,Simcolourproject_2stim_asymm_v5,2020.2.10,MacIntel,60,61025ae37ef11b136ea224fe,,,,,,,,,923,47.12890625,-63.265625,1,0,0,response3disk,,4,-12.296875,12.46875,1,0,0,rectangle,-12.296875,12.46875,1,0,0,-12.296875,12.46875,1,0,0,1,86,246,140,1,,,,,,,,
,,,,,,,,,,,,,FF,,,,,,,,0.8344,,,,,,,,,,,,,,,,,,,,,,610017622f038a5f947fc460,61036ccd13ce7b50865e3388,2021-07-29_23h07.46.459,Simcolourproject_2stim_asymm_v5,2020.2.10,MacIntel,60,61025ae37ef11b136ea224fe,,,,,,,,,3813,-77.87109375,-35.6484375,1,0,0,response5disk,,2,-15.03125,11.98046875,1,0,0,rectangle,-15.03125,11.98046875,1,0,0,-15.03125,11.98046875,1,0,0,1,87,247,88,1,,,,,,,,
