key_resp.keys,key_resp.rt,key_resp_14.keys,key_resp_14.rt,key_resp_15.keys,key_resp_15.rt,key_resp_17.keys,key_resp_17.rt,key_resp_9.keys,key_resp_9.rt,key_resp_10.keys,key_resp_10.rt,practice_comparison,Ecc,mouse_5.x,mouse_5.y,mouse_5.leftButton,mouse_5.midButton,mouse_5.rightButton,mouse_5.clicked_name,pracsimilarity,response_time,mouse_10.x,mouse_10.y,mouse_10.leftButton,mouse_10.midButton,mouse_10.rightButton,mouse_10.clicked_name,mouse_7.x,mouse_7.y,mouse_7.leftButton,mouse_7.midButton,mouse_7.rightButton,mouse_6.x,mouse_6.y,mouse_6.leftButton,mouse_6.midButton,mouse_6.rightButton,duringprac.thisRepN,duringprac.thisTrialN,duringprac.thisN,duringprac.thisIndex,duringprac.ran,participant,session,date,expName,psychopyVersion,OS,frameRate,study_id,mouse_7.clicked_name,catchpracsimilarity,catch_response_time,catchnumberprac,catchtrialorderprac,mouse_6.clicked_name,key_resp_22.keys,key_resp_22.rt,realcomparison,mouse.x,mouse.y,mouse.leftButton,mouse.midButton,mouse.rightButton,mouse.clicked_name,Colour2,similarity,mouse_2.x,mouse_2.y,mouse_2.leftButton,mouse_2.midButton,mouse_2.rightButton,mouse_2.clicked_name,mouse_3.x,mouse_3.y,mouse_3.leftButton,mouse_3.midButton,mouse_3.rightButton,mouse_11.x,mouse_11.y,mouse_11.leftButton,mouse_11.midButton,mouse_11.rightButton,trials_2.thisRepN,trials_2.thisTrialN,trials_2.thisN,trials_2.thisIndex,trials_2.ran,Colour1,mouse_3.clicked_name,catchornah,catchsimilarity,catchnumber,catchtrialorder,catchRT,mouse_11.clicked_name
space,2.058,space,8.831,space,2.624,space,18.809,space,1.423,space,2.505,50,PF,-52,-79,1,0,0,response5disk_5,3,6.505,-2,0,1,0,0,rectangle_8,-2,0,1,0,0,-2,0,1,0,0,0,0,0,4,1,6100cb1963ae19d250fe70bc,61036f83445ee569e534158e,2021-07-29_22h19.37.915,Simcolourproject_2stim_asymm_v5,2020.2.10,MacIntel,60,61025ae37ef11b136ea224fe,,,,,,,,,,,,,,,,,,,,,,,,,,,,,,,,,,,,,,,,,,,,,,
,,,,,,,,,,,,73,PF,65,-59,1,0,0,response3disk_5,5,2.818,-8,-5,1,0,0,rectangle_8,50,-75,1,0,0,-3,-3,1,0,0,0,1,1,1,1,6100cb1963ae19d250fe70bc,61036f83445ee569e534158e,2021-07-29_22h19.37.915,Simcolourproject_2stim_asymm_v5,2020.2.10,MacIntel,60,61025ae37ef11b136ea224fe,response3disk_7,4,4.436,2,"[2,5]",rectangle_4,,,,,,,,,,,,,,,,,,,,,,,,,,,,,,,,,,,,,,,,
,,,,,,,,,,,,15,FF,33,88,1,0,0,response1disk_5,7,1.144,-8,3,1,0,0,rectangle_8,-8,3,1,0,0,-8,3,1,0,0,0,2,2,0,1,6100cb1963ae19d250fe70bc,61036f83445ee569e534158e,2021-07-29_22h19.37.915,Simcolourproject_2stim_asymm_v5,2020.2.10,MacIntel,60,61025ae37ef11b136ea224fe,,,,,,,,,,,,,,,,,,,,,,,,,,,,,,,,,,,,,,,,,,,,,,
,,,,,,,,,,,,20,PF,49,77,1,0,0,response1disk_5,7,1.001,-3,-2,1,0,0,rectangle_8,-3,-2,1,0,0,-3,-2,1,0,0,0,3,3,6,1,6100cb1963ae19d250fe70bc,61036f83445ee569e534158e,2021-07-29_22h19.37.915,Simcolourproject_2stim_asymm_v5,2020.2.10,MacIntel,60,61025ae37ef11b136ea224fe,,,,,,,,,,,,,,,,,,,,,,,,,,,,,,,,,,,,,,,,,,,,,,
,,,,,,,,,,,,16,FF,-40,-83,1,0,0,response5disk_5,3,1.55,9,7,1,0,0,rectangle_8,-65,-28,1,0,0,3,2,1,0,0,0,4,4,3,1,6100cb1963ae19d250fe70bc,61036f83445ee569e534158e,2021-07-29_22h19.37.915,Simcolourproject_2stim_asymm_v5,2020.2.10,MacIntel,60,61025ae37ef11b136ea224fe,response5disk_7,2,2.535,2,"[2,5]",rectangle_4,,,,,,,,,,,,,,,,,,,,,,,,,,,,,,,,,,,,,,,,
,,,,,,,,,,,,122,FF,101,31,1,0,0,response1disk_5,6,1.718,15,3,1,0,0,rectangle_8,15,3,1,0,0,15,3,1,0,0,0,5,5,5,1,6100cb1963ae19d250fe70bc,61036f83445ee569e534158e,2021-07-29_22h19.37.915,Simcolourproject_2stim_asymm_v5,2020.2.10,MacIntel,60,61025ae37ef11b136ea224fe,,,,,,,,,,,,,,,,,,,,,,,,,,,,,,,,,,,,,,,,,,,,,,
,,,,,,,,,,,,74,PF,-37,84,1,0,0,response7disk_5,0,2.852,9,-3,1,0,0,rectangle_8,9,-3,1,0,0,9,-3,1,0,0,0,6,6,2,1,6100cb1963ae19d250fe70bc,61036f83445ee569e534158e,2021-07-29_22h19.37.915,Simcolourproject_2stim_asymm_v5,2020.2.10,MacIntel,60,61025ae37ef11b136ea224fe,,,,,,,,,,,,,,,,,,,,,,,,,,,,,,,,,,,,,,,,,,,,,,
,,,,,,,,,,,,,FF,,,,,,,,2.267,,,,,,,,,,,,,,,,,,,,,,6100cb1963ae19d250fe70bc,61036f83445ee569e534158e,2021-07-29_22h19.37.915,Simcolourproject_2stim_asymm_v5,2020.2.10,MacIntel,60,61025ae37ef11b136ea224fe,,,,,,,space,10.449,2029,51,-85,1,0,0,response3disk,,4,-5,-6,1,0,0,rectangle,-5,-6,1,0,0,-5,-6,1,0,0,0,0,0,27,1,,,,,,,,
,,,,,,,,,,,,,FF,,,,,,,,0.884,,,,,,,,,,,,,,,,,,,,,,6100cb1963ae19d250fe70bc,61036f83445ee569e534158e,2021-07-29_22h19.37.915,Simcolourproject_2stim_asymm_v5,2020.2.10,MacIntel,60,61025ae37ef11b136ea224fe,,,,,,,,,1646,36,76,1,0,0,response1disk,,7,-5,5,1,0,0,rectangle,-5,5,1,0,0,-5,5,1,0,0,0,1,1,33,1,,,,,,,,
,,,,,,,,,,,,,FF,,,,,,,,1.202,,,,,,,,,,,,,,,,,,,,,,6100cb1963ae19d250fe70bc,61036f83445ee569e534158e,2021-07-29_22h19.37.915,Simcolourproject_2stim_asymm_v5,2020.2.10,MacIntel,60,61025ae37ef11b136ea224fe,,,,,,,,,1485,42,66,1,0,0,response1disk,,7,21,5,1,0,0,rectangle,21,5,1,0,0,21,5,1,0,0,0,2,2,71,1,,,,,,,,
,,,,,,,,,,,,,FF,,,,,,,,2.184,,,,,,,,,,,,,,,,,,,,,,6100cb1963ae19d250fe70bc,61036f83445ee569e534158e,2021-07-29_22h19.37.915,Simcolourproject_2stim_asymm_v5,2020.2.10,MacIntel,60,61025ae37ef11b136ea224fe,,,,,,,,,2152,-47,-82,1,0,0,response5disk,,3,-3,-4,1,0,0,rectangle,-3,-4,1,0,0,-3,-4,1,0,0,0,3,3,45,1,,,,,,,,
,,,,,,,,,,,,,FF,,,,,,,,1.283,,,,,,,,,,,,,,,,,,,,,,6100cb1963ae19d250fe70bc,61036f83445ee569e534158e,2021-07-29_22h19.37.915,Simcolourproject_2stim_asymm_v5,2020.2.10,MacIntel,60,61025ae37ef11b136ea224fe,,,,,,,,,453,79,-47,1,0,0,response3disk,,5,16,-2,1,0,0,rectangle,16,-2,1,0,0,16,-2,1,0,0,0,4,4,151,1,,,,,,,,
,,,,,,,,,,,,,FF,,,,,,,,1.669,,,,,,,,,,,,,,,,,,,,,,6100cb1963ae19d250fe70bc,61036f83445ee569e534158e,2021-07-29_22h19.37.915,Simcolourproject_2stim_asymm_v5,2020.2.10,MacIntel,60,61025ae37ef11b136ea224fe,,,,,,,,,2731,-74,-51,1,0,0,response5disk,,2,11,-3,1,0,0,rectangle,11,-3,1,0,0,11,-3,1,0,0,0,5,5,115,1,,,,,,,,
,,,,,,,,,,,,,FF,,,,,,,,2.668,,,,,,,,,,,,,,,,,,,,,,6100cb1963ae19d250fe70bc,61036f83445ee569e534158e,2021-07-29_22h19.37.915,Simcolourproject_2stim_asymm_v5,2020.2.10,MacIntel,60,61025ae37ef11b136ea224fe,,,,,,,,,1406,82,-44,1,0,0,response3disk,,5,8,3,1,0,0,rectangle,8,3,1,0,0,8,3,1,0,0,0,6,6,89,1,,,,,,,,
,,,,,,,,,,,,,FF,,,,,,,,1.084,,,,,,,,,,,,,,,,,,,,,,6100cb1963ae19d250fe70bc,61036f83445ee569e534158e,2021-07-29_22h19.37.915,Simcolourproject_2stim_asymm_v5,2020.2.10,MacIntel,60,61025ae37ef11b136ea224fe,,,,,,,,,34,36,64,1,0,0,response1disk,,7,1,1,1,0,0,rectangle,1,1,1,0,0,1,1,1,0,0,0,7,7,145,1,,,,,,,,
,,,,,,,,,,,,,FF,,,,,,,,0.751,,,,,,,,,,,,,,,,,,,,,,6100cb1963ae19d250fe70bc,61036f83445ee569e534158e,2021-07-29_22h19.37.915,Simcolourproject_2stim_asymm_v5,2020.2.10,MacIntel,60,61025ae37ef11b136ea224fe,,,,,,,,,2129,33,61,1,0,0,response1disk,,7,7,3,1,0,0,rectangle,7,3,1,0,0,7,3,1,0,0,0,8,8,31,1,,,,,,,,
,,,,,,,,,,,,,FF,,,,,,,,1.968,,,,,,,,,,,,,,,,,,,,,,6100cb1963ae19d250fe70bc,61036f83445ee569e534158e,2021-07-29_22h19.37.915,Simcolourproject_2stim_asymm_v5,2020.2.10,MacIntel,60,61025ae37ef11b136ea224fe,,,,,,,,,3806,74,-29,1,0,0,response3disk,,5,16,-1,1,0,0,rectangle,16,-1,1,0,0,16,-1,1,0,0,0,9,9,9,1,,,,,,,,
,,,,,,,,,,,,,FF,,,,,,,,1.784,,,,,,,,,,,,,,,,,,,,,,6100cb1963ae19d250fe70bc,61036f83445ee569e534158e,2021-07-29_22h19.37.915,Simcolourproject_2stim_asymm_v5,2020.2.10,MacIntel,60,61025ae37ef11b136ea224fe,,,,,,,,,638,-36,-75,1,0,0,response5disk,,3,3,3,1,0,0,rectangle,3,3,1,0,0,3,3,1,0,0,0,10,10,72,1,,,,,,,,
,,,,,,,,,,,,,FF,,,,,,,,1.517,,,,,,,,,,,,,,,,,,,,,,6100cb1963ae19d250fe70bc,61036f83445ee569e534158e,2021-07-29_22h19.37.915,Simcolourproject_2stim_asymm_v5,2020.2.10,MacIntel,60,61025ae37ef11b136ea224fe,,,,,,,,,3680,49,-82,1,0,0,response3disk,,4,-21,0,1,0,0,rectangle,-21,0,1,0,0,-21,0,1,0,0,0,11,11,84,1,,,,,,,,
,,,,,,,,,,,,,FF,,,,,,,,4.786,,,,,,,,,,,,,,,,,,,,,,6100cb1963ae19d250fe70bc,61036f83445ee569e534158e,2021-07-29_22h19.37.915,Simcolourproject_2stim_asymm_v5,2020.2.10,MacIntel,60,61025ae37ef11b136ea224fe,,,,,,,,,1859,23,-60,1,0,0,response3disk,,4,9,-9,1,0,0,rectangle,9,-9,1,0,0,9,-9,1,0,0,0,12,12,67,1,,,,,,,,
,,,,,,,,,,,,,FF,,,,,,,,1.202,,,,,,,,,,,,,,,,,,,,,,6100cb1963ae19d250fe70bc,61036f83445ee569e534158e,2021-07-29_22h19.37.915,Simcolourproject_2stim_asymm_v5,2020.2.10,MacIntel,60,61025ae37ef11b136ea224fe,,,,,,,,,2682,45,66,1,0,0,response1disk,,7,2,1,1,0,0,rectangle,2,1,1,0,0,2,1,1,0,0,0,13,13,108,1,,,,,,,,
,,,,,,,,,,,,,FF,,,,,,,,1.649,,,,,,,,,,,,,,,,,,,,,,6100cb1963ae19d250fe70bc,61036f83445ee569e534158e,2021-07-29_22h19.37.915,Simcolourproject_2stim_asymm_v5,2020.2.10,MacIntel,60,61025ae37ef11b136ea224fe,,,,,,,,,1586,-44,-86,1,0,0,response5disk,,3,7,-8,1,0,0,rectangle,7,-8,1,0,0,7,-8,1,0,0,0,14,14,122,1,,,,,,,,
,,,,,,,,,,,,,FF,,,,,,,,1.785,,,,,,,,,,,,,,,,,,,,,,6100cb1963ae19d250fe70bc,61036f83445ee569e534158e,2021-07-29_22h19.37.915,Simcolourproject_2stim_asymm_v5,2020.2.10,MacIntel,60,61025ae37ef11b136ea224fe,,,,,,,,,3405,77,-56,1,0,0,response3disk,,5,-1,-2,1,0,0,rectangle,-1,-2,1,0,0,-1,-2,1,0,0,0,15,15,12,1,,,,,,,,
,,,,,,,,,,,,,FF,,,,,,,,2.367,,,,,,,,,,,,,,,,,,,,,,6100cb1963ae19d250fe70bc,61036f83445ee569e534158e,2021-07-29_22h19.37.915,Simcolourproject_2stim_asymm_v5,2020.2.10,MacIntel,60,61025ae37ef11b136ea224fe,,,,,,,,,173,-73,-37,1,0,0,response5disk,,2,-7,-5,1,0,0,rectangle,-7,-5,1,0,0,-7,-5,1,0,0,0,16,16,120,1,,,,,,,,
,,,,,,,,,,,,,FF,,,,,,,,1.634,,,,,,,,,,,,,,,,,,,,,,6100cb1963ae19d250fe70bc,61036f83445ee569e534158e,2021-07-29_22h19.37.915,Simcolourproject_2stim_asymm_v5,2020.2.10,MacIntel,60,61025ae37ef11b136ea224fe,,,,,,,,,2749,59,-47,1,0,0,response3disk,,5,-4,-9,1,0,0,rectangle,-4,-9,1,0,0,-4,-9,1,0,0,0,17,17,88,1,,,,,,,,
,,,,,,,,,,,,,FF,,,,,,,,0.867,,,,,,,,,,,,,,,,,,,,,,6100cb1963ae19d250fe70bc,61036f83445ee569e534158e,2021-07-29_22h19.37.915,Simcolourproject_2stim_asymm_v5,2020.2.10,MacIntel,60,61025ae37ef11b136ea224fe,,,,,,,,,140,44,72,1,0,0,response1disk,,7,2,7,1,0,0,rectangle,2,7,1,0,0,2,7,1,0,0,0,18,18,138,1,,,,,,,,
,,,,,,,,,,,,,FF,,,,,,,,1.417,,,,,,,,,,,,,,,,,,,,,,6100cb1963ae19d250fe70bc,61036f83445ee569e534158e,2021-07-29_22h19.37.915,Simcolourproject_2stim_asymm_v5,2020.2.10,MacIntel,60,61025ae37ef11b136ea224fe,,,,,,,,,1408,77,20,1,0,0,response1disk,,6,10,3,1,0,0,rectangle,10,3,1,0,0,10,3,1,0,0,0,19,19,130,1,,,,,,,,
,,,,,,,,,,,,,FF,,,,,,,,1.833,,,,,,,,,,,,,,,,,,,,,,6100cb1963ae19d250fe70bc,61036f83445ee569e534158e,2021-07-29_22h19.37.915,Simcolourproject_2stim_asymm_v5,2020.2.10,MacIntel,60,61025ae37ef11b136ea224fe,,,,,,,,,1573,83,-32,1,0,0,response3disk,,5,1,2,1,0,0,rectangle,1,2,1,0,0,1,2,1,0,0,0,20,20,11,1,,,,,,,,
,,,,,,,,,,,,,FF,,,,,,,,1.684,,,,,,,,,,,,,,,,,,,,,,6100cb1963ae19d250fe70bc,61036f83445ee569e534158e,2021-07-29_22h19.37.915,Simcolourproject_2stim_asymm_v5,2020.2.10,MacIntel,60,61025ae37ef11b136ea224fe,,,,,,,,,1831,-74,-36,1,0,0,response5disk,,2,-3,3,1,0,0,rectangle,-3,3,1,0,0,-3,3,1,0,0,0,21,21,5,1,,,,,,,,
,,,,,,,,,,,,,FF,,,,,,,,3.368,,,,,,,,,,,,,,,,,,,,,,6100cb1963ae19d250fe70bc,61036f83445ee569e534158e,2021-07-29_22h19.37.915,Simcolourproject_2stim_asymm_v5,2020.2.10,MacIntel,60,61025ae37ef11b136ea224fe,,,,,,,,,3041,45,-86,1,0,0,response3disk,,4,-11,2,1,0,0,rectangle,-11,2,1,0,0,-11,2,1,0,0,0,22,22,4,1,,,,,,,,
,,,,,,,,,,,,,FF,,,,,,,,1.634,,,,,,,,,,,,,,,,,,,,,,6100cb1963ae19d250fe70bc,61036f83445ee569e534158e,2021-07-29_22h19.37.915,Simcolourproject_2stim_asymm_v5,2020.2.10,MacIntel,60,61025ae37ef11b136ea224fe,,,,,,,,,635,-43,-60,1,0,0,response5disk,,3,-1,2,1,0,0,rectangle,-1,2,1,0,0,-1,2,1,0,0,0,23,23,140,1,,,,,,,,
,,,,,,,,,,,,,FF,,,,,,,,1.066,,,,,,,,,,,,,,,,,,,,,,6100cb1963ae19d250fe70bc,61036f83445ee569e534158e,2021-07-29_22h19.37.915,Simcolourproject_2stim_asymm_v5,2020.2.10,MacIntel,60,61025ae37ef11b136ea224fe,,,,,,,,,924,64,28,1,0,0,response1disk,,6,3,-3,1,0,0,rectangle,3,-3,1,0,0,3,-3,1,0,0,0,24,24,109,1,,,,,,,,
,,,,,,,,,,,,,FF,,,,,,,,1.15,,,,,,,,,,,,,,,,,,,,,,6100cb1963ae19d250fe70bc,61036f83445ee569e534158e,2021-07-29_22h19.37.915,Simcolourproject_2stim_asymm_v5,2020.2.10,MacIntel,60,61025ae37ef11b136ea224fe,,,,,,,,,654,52,22,1,0,0,response1disk,,6,8,-7,1,0,0,rectangle,8,-7,1,0,0,8,-7,1,0,0,0,25,25,78,1,,,,,,,,
,,,,,,,,,,,,,FF,,,,,,,,1.033,,,,,,,,,,,,,,,,,,,,,,6100cb1963ae19d250fe70bc,61036f83445ee569e534158e,2021-07-29_22h19.37.915,Simcolourproject_2stim_asymm_v5,2020.2.10,MacIntel,60,61025ae37ef11b136ea224fe,,,,,,,,,4169,-77,-36,1,0,0,response5disk,,2,4,-11,1,0,0,rectangle,4,-11,1,0,0,4,-11,1,0,0,0,26,26,37,1,,,,,,,,
,,,,,,,,,,,,,FF,,,,,,,,1.633,,,,,,,,,,,,,,,,,,,,,,6100cb1963ae19d250fe70bc,61036f83445ee569e534158e,2021-07-29_22h19.37.915,Simcolourproject_2stim_asymm_v5,2020.2.10,MacIntel,60,61025ae37ef11b136ea224fe,,,,,,,,,1732,100,32,1,0,0,response1disk,,6,3,6,1,0,0,rectangle,3,6,1,0,0,3,6,1,0,0,0,27,27,36,1,,,,,,,,
,,,,,,,,,,,,,FF,,,,,,,,1.3,,,,,,,,,,,,,,,,,,,,,,6100cb1963ae19d250fe70bc,61036f83445ee569e534158e,2021-07-29_22h19.37.915,Simcolourproject_2stim_asymm_v5,2020.2.10,MacIntel,60,61025ae37ef11b136ea224fe,,,,,,,,,2684,62,64,1,0,0,response1disk,,7,0,-7,1,0,0,rectangle,0,-7,1,0,0,0,-7,1,0,0,0,28,28,95,1,,,,,,,,
,,,,,,,,,,,,,FF,,,,,,,,2.951,,,,,,,,,,,,,,,,,,,,,,6100cb1963ae19d250fe70bc,61036f83445ee569e534158e,2021-07-29_22h19.37.915,Simcolourproject_2stim_asymm_v5,2020.2.10,MacIntel,60,61025ae37ef11b136ea224fe,,,,,,,,,4103,92,58,1,0,0,response1disk,,6,2,6,1,0,0,rectangle,2,6,1,0,0,2,6,1,0,0,0,29,29,57,1,,,,,,,,
,,,,,,,,,,,,,FF,,,,,,,,1.033,,,,,,,,,,,,,,,,,,,,,,6100cb1963ae19d250fe70bc,61036f83445ee569e534158e,2021-07-29_22h19.37.915,Simcolourproject_2stim_asymm_v5,2020.2.10,MacIntel,60,61025ae37ef11b136ea224fe,,,,,,,,,2992,35,54,1,0,0,response1disk,,7,21,6,1,0,0,rectangle,21,6,1,0,0,21,6,1,0,0,0,30,30,121,1,,,,,,,,
,,,,,,,,,,,,,FF,,,,,,,,1.118,,,,,,,,,,,,,,,,,,,,,,6100cb1963ae19d250fe70bc,61036f83445ee569e534158e,2021-07-29_22h19.37.915,Simcolourproject_2stim_asymm_v5,2020.2.10,MacIntel,60,61025ae37ef11b136ea224fe,,,,,,,,,1119,-81,-35,1,0,0,response5disk,,2,2,-5,1,0,0,rectangle,2,-5,1,0,0,2,-5,1,0,0,0,31,31,118,1,,,,,,,,
,,,,,,,,,,,,,FF,,,,,,,,1.116,,,,,,,,,,,,,,,,,,,,,,6100cb1963ae19d250fe70bc,61036f83445ee569e534158e,2021-07-29_22h19.37.915,Simcolourproject_2stim_asymm_v5,2020.2.10,MacIntel,60,61025ae37ef11b136ea224fe,,,,,,,,,2849,78,51,1,0,0,response1disk,,6,10,-2,1,0,0,rectangle,10,-2,1,0,0,10,-2,1,0,0,0,32,32,86,1,,,,,,,,
,,,,,,,,,,,,,FF,,,,,,,,1.568,,,,,,,,,,,,,,,,,,,,,,6100cb1963ae19d250fe70bc,61036f83445ee569e534158e,2021-07-29_22h19.37.915,Simcolourproject_2stim_asymm_v5,2020.2.10,MacIntel,60,61025ae37ef11b136ea224fe,,,,,,,,,1955,53,34,1,0,0,response1disk,,6,4,-3,1,0,0,rectangle,4,-3,1,0,0,4,-3,1,0,0,0,33,33,15,1,,,,,,,,
,,,,,,,,,,,,,FF,,,,,,,,1.733,,,,,,,,,,,,,,,,,,,,,,6100cb1963ae19d250fe70bc,61036f83445ee569e534158e,2021-07-29_22h19.37.915,Simcolourproject_2stim_asymm_v5,2020.2.10,MacIntel,60,61025ae37ef11b136ea224fe,,,,,,,,,1265,46,17,1,0,0,response1disk,,6,-2,0,1,0,0,rectangle,-2,0,1,0,0,-2,0,1,0,0,0,34,34,136,1,,,,,,,,
,,,,,,,,,,,,,FF,,,,,,,,1.784,,,,,,,,,,,,,,,,,,,,,,6100cb1963ae19d250fe70bc,61036f83445ee569e534158e,2021-07-29_22h19.37.915,Simcolourproject_2stim_asymm_v5,2020.2.10,MacIntel,60,61025ae37ef11b136ea224fe,,,,,,,,,613,-36,-80,1,0,0,response5disk,,3,9,-5,1,0,0,rectangle,9,-5,1,0,0,9,-5,1,0,0,0,35,35,22,1,,,,,,,,
,,,,,,,,,,,,,FF,,,,,,,,0.867,,,,,,,,,,,,,,,,,,,,,,6100cb1963ae19d250fe70bc,61036f83445ee569e534158e,2021-07-29_22h19.37.915,Simcolourproject_2stim_asymm_v5,2020.2.10,MacIntel,60,61025ae37ef11b136ea224fe,,,,,,,,,2040,-45,-64,1,0,0,response5disk,,3,2,4,1,0,0,rectangle,2,4,1,0,0,2,4,1,0,0,0,36,36,34,1,,,,,,,,
,,,,,,,,,,,,,FF,,,,,,,,1.616,,,,,,,,,,,,,,,,,,,,,,6100cb1963ae19d250fe70bc,61036f83445ee569e534158e,2021-07-29_22h19.37.915,Simcolourproject_2stim_asymm_v5,2020.2.10,MacIntel,60,61025ae37ef11b136ea224fe,,,,,,,,,3358,79,34,1,0,0,response1disk,,6,18,6,1,0,0,rectangle,18,6,1,0,0,18,6,1,0,0,0,37,37,68,1,,,,,,,,
,,,,,,,,,,,,,FF,,,,,,,,1.05,,,,,,,,,,,,,,,,,,,,,,6100cb1963ae19d250fe70bc,61036f83445ee569e534158e,2021-07-29_22h19.37.915,Simcolourproject_2stim_asymm_v5,2020.2.10,MacIntel,60,61025ae37ef11b136ea224fe,,,,,,,,,710,95,49,1,0,0,response1disk,,6,21,11,1,0,0,rectangle,21,11,1,0,0,21,11,1,0,0,0,38,38,124,1,,,,,,,,
,,,,,,,,,,,,,FF,,,,,,,,0.918,,,,,,,,,,,,,,,,,,,,,,6100cb1963ae19d250fe70bc,61036f83445ee569e534158e,2021-07-29_22h19.37.915,Simcolourproject_2stim_asymm_v5,2020.2.10,MacIntel,60,61025ae37ef11b136ea224fe,,,,,,,,,258,-61,-50,1,0,0,response5disk,,2,1,0,1,0,0,rectangle,1,0,1,0,0,1,0,1,0,0,0,39,39,47,1,,,,,,,,
,,,,,,,,,,,,,FF,,,,,,,,0.949,,,,,,,,,,,,,,,,,,,,,,6100cb1963ae19d250fe70bc,61036f83445ee569e534158e,2021-07-29_22h19.37.915,Simcolourproject_2stim_asymm_v5,2020.2.10,MacIntel,60,61025ae37ef11b136ea224fe,,,,,,,,,207,67,-47,1,0,0,response3disk,,5,-1,-3,1,0,0,rectangle,-1,-3,1,0,0,-1,-3,1,0,0,0,40,40,77,1,,,,,,,,
,,,,,,,,,,,,,FF,,,,,,,,1.468,,,,,,,,,,,,,,,,,,,,,,6100cb1963ae19d250fe70bc,61036f83445ee569e534158e,2021-07-29_22h19.37.915,Simcolourproject_2stim_asymm_v5,2020.2.10,MacIntel,60,61025ae37ef11b136ea224fe,,,,,,,,,4124,-30,-64,1,0,0,response5disk,,3,2,-5,1,0,0,rectangle,2,-5,1,0,0,2,-5,1,0,0,0,41,41,13,1,,,,,,,,
,,,,,,,,,,,,,FF,,,,,,,,1.468,,,,,,,,,,,,,,,,,,,,,,6100cb1963ae19d250fe70bc,61036f83445ee569e534158e,2021-07-29_22h19.37.915,Simcolourproject_2stim_asymm_v5,2020.2.10,MacIntel,60,61025ae37ef11b136ea224fe,,,,,,,,,1626,83,49,1,0,0,response1disk,,6,16,7,1,0,0,rectangle,16,7,1,0,0,16,7,1,0,0,0,42,42,143,1,,,,,,,,
,,,,,,,,,,,,,FF,,,,,,,,1.568,,,,,,,,,,,,,,,,,,,,,,6100cb1963ae19d250fe70bc,61036f83445ee569e534158e,2021-07-29_22h19.37.915,Simcolourproject_2stim_asymm_v5,2020.2.10,MacIntel,60,61025ae37ef11b136ea224fe,,,,,,,,,2486,42,-93,1,0,0,response3disk,,4,-3,-2,1,0,0,rectangle,-3,-2,1,0,0,-3,-2,1,0,0,0,43,43,60,1,,,,,,,,
,,,,,,,,,,,,,FF,,,,,,,,1.951,,,,,,,,,,,,,,,,,,,,,,6100cb1963ae19d250fe70bc,61036f83445ee569e534158e,2021-07-29_22h19.37.915,Simcolourproject_2stim_asymm_v5,2020.2.10,MacIntel,60,61025ae37ef11b136ea224fe,,,,,,,,,3535,90,64,1,0,0,response1disk,,6,10,10,1,0,0,rectangle,10,10,1,0,0,10,10,1,0,0,0,44,44,104,1,,,,,,,,
,,,,,,,,,,,,,FF,,,,,,,,0.884,,,,,,,,,,,,,,,,,,,,,,6100cb1963ae19d250fe70bc,61036f83445ee569e534158e,2021-07-29_22h19.37.915,Simcolourproject_2stim_asymm_v5,2020.2.10,MacIntel,60,61025ae37ef11b136ea224fe,,,,,,,,,969,-59,-31,1,0,0,response5disk,,2,17,-2,1,0,0,rectangle,17,-2,1,0,0,17,-2,1,0,0,0,45,45,129,1,,,,,,,,
,,,,,,,,,,,,,FF,,,,,,,,1.368,,,,,,,,,,,,,,,,,,,,,,6100cb1963ae19d250fe70bc,61036f83445ee569e534158e,2021-07-29_22h19.37.915,Simcolourproject_2stim_asymm_v5,2020.2.10,MacIntel,60,61025ae37ef11b136ea224fe,,,,,,,,,100,-58,40,1,0,0,response7disk,,1,7,0,1,0,0,rectangle,7,0,1,0,0,7,0,1,0,0,0,46,46,48,1,,,,,,,,
,,,,,,,,,,,,,FF,,,,,,,,0.883,,,,,,,,,,,,,,,,,,,,,,6100cb1963ae19d250fe70bc,61036f83445ee569e534158e,2021-07-29_22h19.37.915,Simcolourproject_2stim_asymm_v5,2020.2.10,MacIntel,60,61025ae37ef11b136ea224fe,,,,,,,,,75,-74,-39,1,0,0,response5disk,,2,-26,-5,1,0,0,rectangle,-26,-5,1,0,0,-26,-5,1,0,0,0,47,47,96,1,,,,,,,,
,,,,,,,,,,,,,FF,,,,,,,,0.935,,,,,,,,,,,,,,,,,,,,,,6100cb1963ae19d250fe70bc,61036f83445ee569e534158e,2021-07-29_22h19.37.915,Simcolourproject_2stim_asymm_v5,2020.2.10,MacIntel,60,61025ae37ef11b136ea224fe,,,,,,,,,3398,-41,-68,1,0,0,response5disk,,3,2,0,1,0,0,rectangle,2,0,1,0,0,2,0,1,0,0,0,48,48,94,1,,,,,,,,
,,,,,,,,,,,,,FF,,,,,,,,1.167,,,,,,,,,,,,,,,,,,,,,,6100cb1963ae19d250fe70bc,61036f83445ee569e534158e,2021-07-29_22h19.37.915,Simcolourproject_2stim_asymm_v5,2020.2.10,MacIntel,60,61025ae37ef11b136ea224fe,,,,,,,,,3075,57,97,1,0,0,response1disk,,7,-5,8,1,0,0,rectangle,-5,8,1,0,0,-5,8,1,0,0,0,49,49,146,1,,,,,,,,
,,,,,,,,,,,,,FF,,,,,,,,0.735,,,,,,,,,,,,,,,,,,,,,,6100cb1963ae19d250fe70bc,61036f83445ee569e534158e,2021-07-29_22h19.37.915,Simcolourproject_2stim_asymm_v5,2020.2.10,MacIntel,60,61025ae37ef11b136ea224fe,,,,,,,,,3985,38,68,1,0,0,response1disk,,7,15,-6,1,0,0,rectangle,15,-6,1,0,0,15,-6,1,0,0,0,50,50,56,1,,,,,,,,
,,,,,,,,,,,,,FF,,,,,,,,0.6,,,,,,,,,,,,,,,,,,,,,,6100cb1963ae19d250fe70bc,61036f83445ee569e534158e,2021-07-29_22h19.37.915,Simcolourproject_2stim_asymm_v5,2020.2.10,MacIntel,60,61025ae37ef11b136ea224fe,,,,,,,,,1494,32,38,1,0,0,response1disk,,7,-1,-6,1,0,0,rectangle,-1,-6,1,0,0,-1,-6,1,0,0,0,51,51,148,1,,,,,,,,
,,,,,,,,,,,,,FF,,,,,,,,0.784,,,,,,,,,,,,,,,,,,,,,,6100cb1963ae19d250fe70bc,61036f83445ee569e534158e,2021-07-29_22h19.37.915,Simcolourproject_2stim_asymm_v5,2020.2.10,MacIntel,60,61025ae37ef11b136ea224fe,,,,,,,,,612,-58,-33,1,0,0,response5disk,,2,-17,-10,1,0,0,rectangle,-17,-10,1,0,0,-17,-10,1,0,0,0,52,52,63,1,,,,,,,,
,,,,,,,,,,,,,FF,,,,,,,,1.016,,,,,,,,,,,,,,,,,,,,,,6100cb1963ae19d250fe70bc,61036f83445ee569e534158e,2021-07-29_22h19.37.915,Simcolourproject_2stim_asymm_v5,2020.2.10,MacIntel,60,61025ae37ef11b136ea224fe,,,,,,,,,1426,60,25,1,0,0,response1disk,,6,14,3,1,0,0,rectangle,-74,39,1,0,0,4,3,1,0,0,0,53,53,1,1,,response7disk_3,TRUE,1,1,"[193,61,265,84,317,289,152,234,198,312,200,173,273,213,266,183,98,84,54,137]",1.716,rectangle
,,,,,,,,,,,,,FF,,,,,,,,30.731,,,,,,,,,,,,,,,,,,,,,,6100cb1963ae19d250fe70bc,61036f83445ee569e534158e,2021-07-29_22h19.37.915,Simcolourproject_2stim_asymm_v5,2020.2.10,MacIntel,60,61025ae37ef11b136ea224fe,,,,,,,,,3983,91,-42,1,0,0,response3disk,,5,11,-1,1,0,0,rectangle,11,-1,1,0,0,11,-1,1,0,0,0,54,54,25,1,,,,,,,,
,,,,,,,,,,,,,FF,,,,,,,,1.117,,,,,,,,,,,,,,,,,,,,,,6100cb1963ae19d250fe70bc,61036f83445ee569e534158e,2021-07-29_22h19.37.915,Simcolourproject_2stim_asymm_v5,2020.2.10,MacIntel,60,61025ae37ef11b136ea224fe,,,,,,,,,1858,61,-33,1,0,0,response3disk,,5,0,0,1,0,0,rectangle,0,0,1,0,0,0,0,1,0,0,0,55,55,90,1,,,,,,,,
,,,,,,,,,,,,,FF,,,,,,,,1.635,,,,,,,,,,,,,,,,,,,,,,6100cb1963ae19d250fe70bc,61036f83445ee569e534158e,2021-07-29_22h19.37.915,Simcolourproject_2stim_asymm_v5,2020.2.10,MacIntel,60,61025ae37ef11b136ea224fe,,,,,,,,,1308,-33,-85,1,0,0,response5disk,,3,3,-4,1,0,0,rectangle,3,-4,1,0,0,3,-4,1,0,0,0,56,56,50,1,,,,,,,,
,,,,,,,,,,,,,FF,,,,,,,,0.983,,,,,,,,,,,,,,,,,,,,,,6100cb1963ae19d250fe70bc,61036f83445ee569e534158e,2021-07-29_22h19.37.915,Simcolourproject_2stim_asymm_v5,2020.2.10,MacIntel,60,61025ae37ef11b136ea224fe,,,,,,,,,3973,-43,-72,1,0,0,response5disk,,3,-15,-5,1,0,0,rectangle,-15,-5,1,0,0,-15,-5,1,0,0,0,57,57,51,1,,,,,,,,
,,,,,,,,,,,,,FF,,,,,,,,1.767,,,,,,,,,,,,,,,,,,,,,,6100cb1963ae19d250fe70bc,61036f83445ee569e534158e,2021-07-29_22h19.37.915,Simcolourproject_2stim_asymm_v5,2020.2.10,MacIntel,60,61025ae37ef11b136ea224fe,,,,,,,,,1574,55,31,1,0,0,response1disk,,6,8,12,1,0,0,rectangle,8,12,1,0,0,8,12,1,0,0,0,58,58,30,1,,,,,,,,
,,,,,,,,,,,,,FF,,,,,,,,1.834,,,,,,,,,,,,,,,,,,,,,,6100cb1963ae19d250fe70bc,61036f83445ee569e534158e,2021-07-29_22h19.37.915,Simcolourproject_2stim_asymm_v5,2020.2.10,MacIntel,60,61025ae37ef11b136ea224fe,,,,,,,,,948,-29,-61,1,0,0,response5disk,,3,8,-5,1,0,0,rectangle,8,-5,1,0,0,8,-5,1,0,0,0,59,59,42,1,,,,,,,,
,,,,,,,,,,,,,FF,,,,,,,,0.934,,,,,,,,,,,,,,,,,,,,,,6100cb1963ae19d250fe70bc,61036f83445ee569e534158e,2021-07-29_22h19.37.915,Simcolourproject_2stim_asymm_v5,2020.2.10,MacIntel,60,61025ae37ef11b136ea224fe,,,,,,,,,870,-73,-46,1,0,0,response5disk,,2,-2,-12,1,0,0,rectangle,39,65,1,0,0,-9,-4,1,0,0,0,60,60,80,1,,response1disk_3,TRUE,7,7,"[193,61,265,84,317,289,152,234,198,312,200,173,273,213,266,183,98,84,54,137]",2.351,rectangle
,,,,,,,,,,,,,FF,,,,,,,,1.05,,,,,,,,,,,,,,,,,,,,,,6100cb1963ae19d250fe70bc,61036f83445ee569e534158e,2021-07-29_22h19.37.915,Simcolourproject_2stim_asymm_v5,2020.2.10,MacIntel,60,61025ae37ef11b136ea224fe,,,,,,,,,2578,-45,-70,1,0,0,response5disk,,3,3,-4,1,0,0,rectangle,3,-4,1,0,0,3,-4,1,0,0,0,61,61,144,1,,,,,,,,
,,,,,,,,,,,,,FF,,,,,,,,0.934,,,,,,,,,,,,,,,,,,,,,,6100cb1963ae19d250fe70bc,61036f83445ee569e534158e,2021-07-29_22h19.37.915,Simcolourproject_2stim_asymm_v5,2020.2.10,MacIntel,60,61025ae37ef11b136ea224fe,,,,,,,,,1960,-90,-48,1,0,0,response5disk,,2,12,-3,1,0,0,rectangle,12,-3,1,0,0,12,-3,1,0,0,0,62,62,40,1,,,,,,,,
,,,,,,,,,,,,,FF,,,,,,,,0.917,,,,,,,,,,,,,,,,,,,,,,6100cb1963ae19d250fe70bc,61036f83445ee569e534158e,2021-07-29_22h19.37.915,Simcolourproject_2stim_asymm_v5,2020.2.10,MacIntel,60,61025ae37ef11b136ea224fe,,,,,,,,,3896,39,-54,1,0,0,response3disk,,4,3,2,1,0,0,rectangle,3,2,1,0,0,3,2,1,0,0,0,63,63,21,1,,,,,,,,
,,,,,,,,,,,,,FF,,,,,,,,0.883,,,,,,,,,,,,,,,,,,,,,,6100cb1963ae19d250fe70bc,61036f83445ee569e534158e,2021-07-29_22h19.37.915,Simcolourproject_2stim_asymm_v5,2020.2.10,MacIntel,60,61025ae37ef11b136ea224fe,,,,,,,,,275,20,46,1,0,0,response1disk,,7,0,12,1,0,0,rectangle,0,12,1,0,0,0,12,1,0,0,0,64,64,152,1,,,,,,,,
,,,,,,,,,,,,,FF,,,,,,,,1.533,,,,,,,,,,,,,,,,,,,,,,6100cb1963ae19d250fe70bc,61036f83445ee569e534158e,2021-07-29_22h19.37.915,Simcolourproject_2stim_asymm_v5,2020.2.10,MacIntel,60,61025ae37ef11b136ea224fe,,,,,,,,,2796,78,45,1,0,0,response1disk,,6,16,11,1,0,0,rectangle,16,11,1,0,0,16,11,1,0,0,0,65,65,69,1,,,,,,,,
,,,,,,,,,,,,,FF,,,,,,,,1.4,,,,,,,,,,,,,,,,,,,,,,6100cb1963ae19d250fe70bc,61036f83445ee569e534158e,2021-07-29_22h19.37.915,Simcolourproject_2stim_asymm_v5,2020.2.10,MacIntel,60,61025ae37ef11b136ea224fe,,,,,,,,,1913,72,25,1,0,0,response1disk,,6,5,-4,1,0,0,rectangle,5,-4,1,0,0,5,-4,1,0,0,0,66,66,116,1,,,,,,,,
,,,,,,,,,,,,,FF,,,,,,,,0.984,,,,,,,,,,,,,,,,,,,,,,6100cb1963ae19d250fe70bc,61036f83445ee569e534158e,2021-07-29_22h19.37.915,Simcolourproject_2stim_asymm_v5,2020.2.10,MacIntel,60,61025ae37ef11b136ea224fe,,,,,,,,,378,87,39,1,0,0,response1disk,,6,-14,-2,1,0,0,rectangle,-14,-2,1,0,0,-14,-2,1,0,0,0,67,67,156,1,,,,,,,,
,,,,,,,,,,,,,FF,,,,,,,,1.316,,,,,,,,,,,,,,,,,,,,,,6100cb1963ae19d250fe70bc,61036f83445ee569e534158e,2021-07-29_22h19.37.915,Simcolourproject_2stim_asymm_v5,2020.2.10,MacIntel,60,61025ae37ef11b136ea224fe,,,,,,,,,2632,42,67,1,0,0,response1disk,,7,15,-3,1,0,0,rectangle,15,-3,1,0,0,15,-3,1,0,0,0,68,68,93,1,,,,,,,,
,,,,,,,,,,,,,FF,,,,,,,,1.251,,,,,,,,,,,,,,,,,,,,,,6100cb1963ae19d250fe70bc,61036f83445ee569e534158e,2021-07-29_22h19.37.915,Simcolourproject_2stim_asymm_v5,2020.2.10,MacIntel,60,61025ae37ef11b136ea224fe,,,,,,,,,1147,62,-33,1,0,0,response3disk,,5,-3,-10,1,0,0,rectangle,-3,-10,1,0,0,-3,-10,1,0,0,0,69,69,32,1,,,,,,,,
,,,,,,,,,,,,,FF,,,,,,,,1,,,,,,,,,,,,,,,,,,,,,,6100cb1963ae19d250fe70bc,61036f83445ee569e534158e,2021-07-29_22h19.37.915,Simcolourproject_2stim_asymm_v5,2020.2.10,MacIntel,60,61025ae37ef11b136ea224fe,,,,,,,,,679,63,-47,1,0,0,response3disk,,5,-5,2,1,0,0,rectangle,-5,2,1,0,0,-5,2,1,0,0,0,70,70,153,1,,,,,,,,
,,,,,,,,,,,,,FF,,,,,,,,1.033,,,,,,,,,,,,,,,,,,,,,,6100cb1963ae19d250fe70bc,61036f83445ee569e534158e,2021-07-29_22h19.37.915,Simcolourproject_2stim_asymm_v5,2020.2.10,MacIntel,60,61025ae37ef11b136ea224fe,,,,,,,,,457,-38,-50,1,0,0,response5disk,,3,-9,0,1,0,0,rectangle,-9,0,1,0,0,-9,0,1,0,0,0,71,71,135,1,,,,,,,,
,,,,,,,,,,,,,FF,,,,,,,,1.751,,,,,,,,,,,,,,,,,,,,,,6100cb1963ae19d250fe70bc,61036f83445ee569e534158e,2021-07-29_22h19.37.915,Simcolourproject_2stim_asymm_v5,2020.2.10,MacIntel,60,61025ae37ef11b136ea224fe,,,,,,,,,1126,24,56,1,0,0,response1disk,,7,-11,1,1,0,0,rectangle,-11,1,1,0,0,-11,1,1,0,0,0,72,72,59,1,,,,,,,,
,,,,,,,,,,,,,FF,,,,,,,,1.683,,,,,,,,,,,,,,,,,,,,,,6100cb1963ae19d250fe70bc,61036f83445ee569e534158e,2021-07-29_22h19.37.915,Simcolourproject_2stim_asymm_v5,2020.2.10,MacIntel,60,61025ae37ef11b136ea224fe,,,,,,,,,438,87,-32,1,0,0,response3disk,,5,27,-3,1,0,0,rectangle,27,-3,1,0,0,27,-3,1,0,0,0,73,73,54,1,,,,,,,,
,,,,,,,,,,,,,FF,,,,,,,,1.167,,,,,,,,,,,,,,,,,,,,,,6100cb1963ae19d250fe70bc,61036f83445ee569e534158e,2021-07-29_22h19.37.915,Simcolourproject_2stim_asymm_v5,2020.2.10,MacIntel,60,61025ae37ef11b136ea224fe,,,,,,,,,4293,-32,79,1,0,0,response7disk,,0,1,-1,1,0,0,rectangle,1,-1,1,0,0,1,-1,1,0,0,0,74,74,16,1,,,,,,,,
,,,,,,,,,,,,,FF,,,,,,,,1.7,,,,,,,,,,,,,,,,,,,,,,6100cb1963ae19d250fe70bc,61036f83445ee569e534158e,2021-07-29_22h19.37.915,Simcolourproject_2stim_asymm_v5,2020.2.10,MacIntel,60,61025ae37ef11b136ea224fe,,,,,,,,,3660,-77,-40,1,0,0,response5disk,,2,8,8,1,0,0,rectangle,8,8,1,0,0,8,8,1,0,0,0,75,75,38,1,,,,,,,,
,,,,,,,,,,,,,FF,,,,,,,,1.483,,,,,,,,,,,,,,,,,,,,,,6100cb1963ae19d250fe70bc,61036f83445ee569e534158e,2021-07-29_22h19.37.915,Simcolourproject_2stim_asymm_v5,2020.2.10,MacIntel,60,61025ae37ef11b136ea224fe,,,,,,,,,4291,57,78,1,0,0,response1disk,,7,-12,-11,1,0,0,rectangle,-12,-11,1,0,0,-12,-11,1,0,0,0,76,76,55,1,,,,,,,,
,,,,,,,,,,,,,FF,,,,,,,,0.884,,,,,,,,,,,,,,,,,,,,,,6100cb1963ae19d250fe70bc,61036f83445ee569e534158e,2021-07-29_22h19.37.915,Simcolourproject_2stim_asymm_v5,2020.2.10,MacIntel,60,61025ae37ef11b136ea224fe,,,,,,,,,2793,-38,-85,1,0,0,response5disk,,3,9,-6,1,0,0,rectangle,9,-6,1,0,0,9,-6,1,0,0,0,77,77,35,1,,,,,,,,
,,,,,,,,,,,,,FF,,,,,,,,0.917,,,,,,,,,,,,,,,,,,,,,,6100cb1963ae19d250fe70bc,61036f83445ee569e534158e,2021-07-29_22h19.37.915,Simcolourproject_2stim_asymm_v5,2020.2.10,MacIntel,60,61025ae37ef11b136ea224fe,,,,,,,,,4045,41,96,1,0,0,response1disk,,7,1,-7,1,0,0,rectangle,1,-7,1,0,0,1,-7,1,0,0,0,78,78,8,1,,,,,,,,
,,,,,,,,,,,,,FF,,,,,,,,3.402,,,,,,,,,,,,,,,,,,,,,,6100cb1963ae19d250fe70bc,61036f83445ee569e534158e,2021-07-29_22h19.37.915,Simcolourproject_2stim_asymm_v5,2020.2.10,MacIntel,60,61025ae37ef11b136ea224fe,,,,,,,,,2511,54,65,1,0,0,response1disk,,7,8,9,1,0,0,rectangle,8,9,1,0,0,8,9,1,0,0,0,79,79,83,1,,,,,,,,
,,,,,,,,,,,,,FF,,,,,,,,0.9,,,,,,,,,,,,,,,,,,,,,,6100cb1963ae19d250fe70bc,61036f83445ee569e534158e,2021-07-29_22h19.37.915,Simcolourproject_2stim_asymm_v5,2020.2.10,MacIntel,60,61025ae37ef11b136ea224fe,,,,,,,,,82,-65,-48,1,0,0,response5disk,,2,-4,-2,1,0,0,rectangle,-4,-2,1,0,0,-4,-2,1,0,0,0,80,80,157,1,,,,,,,,
,,,,,,,,,,,,,FF,,,,,,,,2.333,,,,,,,,,,,,,,,,,,,,,,6100cb1963ae19d250fe70bc,61036f83445ee569e534158e,2021-07-29_22h19.37.915,Simcolourproject_2stim_asymm_v5,2020.2.10,MacIntel,60,61025ae37ef11b136ea224fe,,,,,,,,,3450,80,-40,1,0,0,response3disk,,5,4,-4,1,0,0,rectangle,4,-4,1,0,0,4,-4,1,0,0,0,81,81,17,1,,,,,,,,
,,,,,,,,,,,,,FF,,,,,,,,1.617,,,,,,,,,,,,,,,,,,,,,,6100cb1963ae19d250fe70bc,61036f83445ee569e534158e,2021-07-29_22h19.37.915,Simcolourproject_2stim_asymm_v5,2020.2.10,MacIntel,60,61025ae37ef11b136ea224fe,,,,,,,,,2086,-45,-62,1,0,0,response5disk,,3,0,-11,1,0,0,rectangle,0,-11,1,0,0,0,-11,1,0,0,0,82,82,66,1,,,,,,,,
,,,,,,,,,,,,,FF,,,,,,,,1.017,,,,,,,,,,,,,,,,,,,,,,6100cb1963ae19d250fe70bc,61036f83445ee569e534158e,2021-07-29_22h19.37.915,Simcolourproject_2stim_asymm_v5,2020.2.10,MacIntel,60,61025ae37ef11b136ea224fe,,,,,,,,,3843,-39,85,1,0,0,response7disk,,0,-8,0,1,0,0,rectangle,80,-46,1,0,0,-3,-4,1,0,0,0,83,83,128,1,,response3disk_3,TRUE,5,5,"[193,61,265,84,317,289,152,234,198,312,200,173,273,213,266,183,98,84,54,137]",1.717,rectangle
,,,,,,,,,,,,,FF,,,,,,,,0.952,,,,,,,,,,,,,,,,,,,,,,6100cb1963ae19d250fe70bc,61036f83445ee569e534158e,2021-07-29_22h19.37.915,Simcolourproject_2stim_asymm_v5,2020.2.10,MacIntel,60,61025ae37ef11b136ea224fe,,,,,,,,,3365,36,74,1,0,0,response1disk,,7,4,3,1,0,0,rectangle,4,3,1,0,0,4,3,1,0,0,0,84,84,103,1,,,,,,,,
,,,,,,,,,,,,,FF,,,,,,,,1.217,,,,,,,,,,,,,,,,,,,,,,6100cb1963ae19d250fe70bc,61036f83445ee569e534158e,2021-07-29_22h19.37.915,Simcolourproject_2stim_asymm_v5,2020.2.10,MacIntel,60,61025ae37ef11b136ea224fe,,,,,,,,,1059,69,41,1,0,0,response1disk,,6,0,-11,1,0,0,rectangle,0,-11,1,0,0,0,-11,1,0,0,0,85,85,64,1,,,,,,,,
,,,,,,,,,,,,,FF,,,,,,,,1.051,,,,,,,,,,,,,,,,,,,,,,6100cb1963ae19d250fe70bc,61036f83445ee569e534158e,2021-07-29_22h19.37.915,Simcolourproject_2stim_asymm_v5,2020.2.10,MacIntel,60,61025ae37ef11b136ea224fe,,,,,,,,,2847,78,-60,1,0,0,response3disk,,5,4,-1,1,0,0,rectangle,4,-1,1,0,0,4,-1,1,0,0,0,86,86,150,1,,,,,,,,
,,,,,,,,,,,,,FF,,,,,,,,0.65,,,,,,,,,,,,,,,,,,,,,,6100cb1963ae19d250fe70bc,61036f83445ee569e534158e,2021-07-29_22h19.37.915,Simcolourproject_2stim_asymm_v5,2020.2.10,MacIntel,60,61025ae37ef11b136ea224fe,,,,,,,,,1595,21,35,1,0,0,response1disk,,7,8,0,1,0,0,rectangle,8,0,1,0,0,8,0,1,0,0,0,87,87,159,1,,,,,,,,
,,,,,,,,,,,,,FF,,,,,,,,0.984,,,,,,,,,,,,,,,,,,,,,,6100cb1963ae19d250fe70bc,61036f83445ee569e534158e,2021-07-29_22h19.37.915,Simcolourproject_2stim_asymm_v5,2020.2.10,MacIntel,60,61025ae37ef11b136ea224fe,,,,,,,,,554,52,76,1,0,0,response1disk,,7,10,11,1,0,0,rectangle,10,11,1,0,0,10,11,1,0,0,0,88,88,26,1,,,,,,,,
,,,,,,,,,,,,,FF,,,,,,,,0.9,,,,,,,,,,,,,,,,,,,,,,6100cb1963ae19d250fe70bc,61036f83445ee569e534158e,2021-07-29_22h19.37.915,Simcolourproject_2stim_asymm_v5,2020.2.10,MacIntel,60,61025ae37ef11b136ea224fe,,,,,,,,,96,-29,-68,1,0,0,response5disk,,3,9,1,1,0,0,rectangle,9,1,1,0,0,9,1,1,0,0,0,89,89,114,1,,,,,,,,
,,,,,,,,,,,,,FF,,,,,,,,1.433,,,,,,,,,,,,,,,,,,,,,,6100cb1963ae19d250fe70bc,61036f83445ee569e534158e,2021-07-29_22h19.37.915,Simcolourproject_2stim_asymm_v5,2020.2.10,MacIntel,60,61025ae37ef11b136ea224fe,,,,,,,,,2046,-48,-76,1,0,0,response5disk,,3,-4,0,1,0,0,rectangle,-4,0,1,0,0,-4,0,1,0,0,0,90,90,41,1,,,,,,,,
,,,,,,,,,,,,,FF,,,,,,,,1.068,,,,,,,,,,,,,,,,,,,,,,6100cb1963ae19d250fe70bc,61036f83445ee569e534158e,2021-07-29_22h19.37.915,Simcolourproject_2stim_asymm_v5,2020.2.10,MacIntel,60,61025ae37ef11b136ea224fe,,,,,,,,,4168,-68,-38,1,0,0,response5disk,,2,-4,2,1,0,0,rectangle,-4,2,1,0,0,-4,2,1,0,0,0,91,91,76,1,,,,,,,,
,,,,,,,,,,,,,FF,,,,,,,,1.85,,,,,,,,,,,,,,,,,,,,,,6100cb1963ae19d250fe70bc,61036f83445ee569e534158e,2021-07-29_22h19.37.915,Simcolourproject_2stim_asymm_v5,2020.2.10,MacIntel,60,61025ae37ef11b136ea224fe,,,,,,,,,1122,-34,-74,1,0,0,response5disk,,3,9,-6,1,0,0,rectangle,9,-6,1,0,0,9,-6,1,0,0,0,92,92,101,1,,,,,,,,
,,,,,,,,,,,,,FF,,,,,,,,0.982,,,,,,,,,,,,,,,,,,,,,,6100cb1963ae19d250fe70bc,61036f83445ee569e534158e,2021-07-29_22h19.37.915,Simcolourproject_2stim_asymm_v5,2020.2.10,MacIntel,60,61025ae37ef11b136ea224fe,,,,,,,,,2331,47,67,1,0,0,response1disk,,7,7,-8,1,0,0,rectangle,7,-8,1,0,0,7,-8,1,0,0,0,93,93,2,1,,,,,,,,
,,,,,,,,,,,,,FF,,,,,,,,1.618,,,,,,,,,,,,,,,,,,,,,,6100cb1963ae19d250fe70bc,61036f83445ee569e534158e,2021-07-29_22h19.37.915,Simcolourproject_2stim_asymm_v5,2020.2.10,MacIntel,60,61025ae37ef11b136ea224fe,,,,,,,,,4248,-40,-63,1,0,0,response5disk,,3,0,4,1,0,0,rectangle,0,4,1,0,0,0,4,1,0,0,0,94,94,155,1,,,,,,,,
,,,,,,,,,,,,,FF,,,,,,,,1.049,,,,,,,,,,,,,,,,,,,,,,6100cb1963ae19d250fe70bc,61036f83445ee569e534158e,2021-07-29_22h19.37.915,Simcolourproject_2stim_asymm_v5,2020.2.10,MacIntel,60,61025ae37ef11b136ea224fe,,,,,,,,,1738,29,76,1,0,0,response1disk,,7,10,2,1,0,0,rectangle,10,2,1,0,0,10,2,1,0,0,0,95,95,110,1,,,,,,,,
,,,,,,,,,,,,,FF,,,,,,,,1.233,,,,,,,,,,,,,,,,,,,,,,6100cb1963ae19d250fe70bc,61036f83445ee569e534158e,2021-07-29_22h19.37.915,Simcolourproject_2stim_asymm_v5,2020.2.10,MacIntel,60,61025ae37ef11b136ea224fe,,,,,,,,,1235,-44,-111,1,0,0,response5disk,,3,8,8,1,0,0,rectangle,8,8,1,0,0,8,8,1,0,0,0,96,96,134,1,,,,,,,,
,,,,,,,,,,,,,FF,,,,,,,,0.867,,,,,,,,,,,,,,,,,,,,,,6100cb1963ae19d250fe70bc,61036f83445ee569e534158e,2021-07-29_22h19.37.915,Simcolourproject_2stim_asymm_v5,2020.2.10,MacIntel,60,61025ae37ef11b136ea224fe,,,,,,,,,1211,-53,78,1,0,0,response7disk,,0,-19,7,1,0,0,rectangle,-76,39,1,0,0,7,0,1,0,0,0,97,97,19,1,,response7disk_3,TRUE,1,1,"[193,61,265,84,317,289,152,234,198,312,200,173,273,213,266,183,98,84,54,137]",1.666,rectangle
,,,,,,,,,,,,,FF,,,,,,,,1.534,,,,,,,,,,,,,,,,,,,,,,6100cb1963ae19d250fe70bc,61036f83445ee569e534158e,2021-07-29_22h19.37.915,Simcolourproject_2stim_asymm_v5,2020.2.10,MacIntel,60,61025ae37ef11b136ea224fe,,,,,,,,,1274,42,-73,1,0,0,response3disk,,4,5,-8,1,0,0,rectangle,5,-8,1,0,0,5,-8,1,0,0,0,98,98,98,1,,,,,,,,
,,,,,,,,,,,,,FF,,,,,,,,1.567,,,,,,,,,,,,,,,,,,,,,,6100cb1963ae19d250fe70bc,61036f83445ee569e534158e,2021-07-29_22h19.37.915,Simcolourproject_2stim_asymm_v5,2020.2.10,MacIntel,60,61025ae37ef11b136ea224fe,,,,,,,,,2696,21,45,1,0,0,response1disk,,7,8,6,1,0,0,rectangle,8,6,1,0,0,8,6,1,0,0,0,99,99,39,1,,,,,,,,
,,,,,,,,,,,,,FF,,,,,,,,0.951,,,,,,,,,,,,,,,,,,,,,,6100cb1963ae19d250fe70bc,61036f83445ee569e534158e,2021-07-29_22h19.37.915,Simcolourproject_2stim_asymm_v5,2020.2.10,MacIntel,60,61025ae37ef11b136ea224fe,,,,,,,,,3643,45,84,1,0,0,response1disk,,7,1,11,1,0,0,rectangle,1,11,1,0,0,1,11,1,0,0,0,100,100,18,1,,,,,,,,
,,,,,,,,,,,,,FF,,,,,,,,0.983,,,,,,,,,,,,,,,,,,,,,,6100cb1963ae19d250fe70bc,61036f83445ee569e534158e,2021-07-29_22h19.37.915,Simcolourproject_2stim_asymm_v5,2020.2.10,MacIntel,60,61025ae37ef11b136ea224fe,,,,,,,,,450,47,69,1,0,0,response1disk,,7,-8,-12,1,0,0,rectangle,-8,-12,1,0,0,-8,-12,1,0,0,0,101,101,125,1,,,,,,,,
,,,,,,,,,,,,,FF,,,,,,,,0.817,,,,,,,,,,,,,,,,,,,,,,6100cb1963ae19d250fe70bc,61036f83445ee569e534158e,2021-07-29_22h19.37.915,Simcolourproject_2stim_asymm_v5,2020.2.10,MacIntel,60,61025ae37ef11b136ea224fe,,,,,,,,,1688,45,64,1,0,0,response1disk,,7,8,6,1,0,0,rectangle,8,6,1,0,0,8,6,1,0,0,0,102,102,154,1,,,,,,,,
,,,,,,,,,,,,,FF,,,,,,,,2.318,,,,,,,,,,,,,,,,,,,,,,6100cb1963ae19d250fe70bc,61036f83445ee569e534158e,2021-07-29_22h19.37.915,Simcolourproject_2stim_asymm_v5,2020.2.10,MacIntel,60,61025ae37ef11b136ea224fe,,,,,,,,,1811,65,-40,1,0,0,response3disk,,5,19,-7,1,0,0,rectangle,19,-7,1,0,0,19,-7,1,0,0,0,103,103,126,1,,,,,,,,
,,,,,,,,,,,,,FF,,,,,,,,1.55,,,,,,,,,,,,,,,,,,,,,,6100cb1963ae19d250fe70bc,61036f83445ee569e534158e,2021-07-29_22h19.37.915,Simcolourproject_2stim_asymm_v5,2020.2.10,MacIntel,60,61025ae37ef11b136ea224fe,,,,,,,,,893,-50,-71,1,0,0,response5disk,,3,0,-6,1,0,0,rectangle,0,-6,1,0,0,0,-6,1,0,0,0,104,104,6,1,,,,,,,,
,,,,,,,,,,,,,FF,,,,,,,,1.117,,,,,,,,,,,,,,,,,,,,,,6100cb1963ae19d250fe70bc,61036f83445ee569e534158e,2021-07-29_22h19.37.915,Simcolourproject_2stim_asymm_v5,2020.2.10,MacIntel,60,61025ae37ef11b136ea224fe,,,,,,,,,3362,37,-53,1,0,0,response3disk,,4,12,10,1,0,0,rectangle,12,10,1,0,0,12,10,1,0,0,0,105,105,91,1,,,,,,,,
,,,,,,,,,,,,,FF,,,,,,,,4.735,,,,,,,,,,,,,,,,,,,,,,6100cb1963ae19d250fe70bc,61036f83445ee569e534158e,2021-07-29_22h19.37.915,Simcolourproject_2stim_asymm_v5,2020.2.10,MacIntel,60,61025ae37ef11b136ea224fe,,,,,,,,,1714,28,-72,1,0,0,response3disk,,4,11,-9,1,0,0,rectangle,11,-9,1,0,0,11,-9,1,0,0,0,106,106,24,1,,,,,,,,
,,,,,,,,,,,,,FF,,,,,,,,1.634,,,,,,,,,,,,,,,,,,,,,,6100cb1963ae19d250fe70bc,61036f83445ee569e534158e,2021-07-29_22h19.37.915,Simcolourproject_2stim_asymm_v5,2020.2.10,MacIntel,60,61025ae37ef11b136ea224fe,,,,,,,,,3010,70,22,1,0,0,response1disk,,6,10,-2,1,0,0,rectangle,10,-2,1,0,0,10,-2,1,0,0,0,107,107,139,1,,,,,,,,
,,,,,,,,,,,,,FF,,,,,,,,1.151,,,,,,,,,,,,,,,,,,,,,,6100cb1963ae19d250fe70bc,61036f83445ee569e534158e,2021-07-29_22h19.37.915,Simcolourproject_2stim_asymm_v5,2020.2.10,MacIntel,60,61025ae37ef11b136ea224fe,,,,,,,,,3201,-50,-68,1,0,0,response5disk,,3,-5,-10,1,0,0,rectangle,-5,-10,1,0,0,-5,-10,1,0,0,0,108,108,53,1,,,,,,,,
,,,,,,,,,,,,,FF,,,,,,,,1.217,,,,,,,,,,,,,,,,,,,,,,6100cb1963ae19d250fe70bc,61036f83445ee569e534158e,2021-07-29_22h19.37.915,Simcolourproject_2stim_asymm_v5,2020.2.10,MacIntel,60,61025ae37ef11b136ea224fe,,,,,,,,,1073,48,80,1,0,0,response1disk,,7,-1,-3,1,0,0,rectangle,-1,-3,1,0,0,-1,-3,1,0,0,0,109,109,158,1,,,,,,,,
,,,,,,,,,,,,,FF,,,,,,,,0.783,,,,,,,,,,,,,,,,,,,,,,6100cb1963ae19d250fe70bc,61036f83445ee569e534158e,2021-07-29_22h19.37.915,Simcolourproject_2stim_asymm_v5,2020.2.10,MacIntel,60,61025ae37ef11b136ea224fe,,,,,,,,,922,34,58,1,0,0,response1disk,,7,7,-7,1,0,0,rectangle,7,-7,1,0,0,7,-7,1,0,0,0,110,110,147,1,,,,,,,,
,,,,,,,,,,,,,FF,,,,,,,,0.801,,,,,,,,,,,,,,,,,,,,,,6100cb1963ae19d250fe70bc,61036f83445ee569e534158e,2021-07-29_22h19.37.915,Simcolourproject_2stim_asymm_v5,2020.2.10,MacIntel,60,61025ae37ef11b136ea224fe,,,,,,,,,1999,26,51,1,0,0,response1disk,,7,-6,4,1,0,0,rectangle,-6,4,1,0,0,-6,4,1,0,0,0,111,111,87,1,,,,,,,,
,,,,,,,,,,,,,FF,,,,,,,,1.016,,,,,,,,,,,,,,,,,,,,,,6100cb1963ae19d250fe70bc,61036f83445ee569e534158e,2021-07-29_22h19.37.915,Simcolourproject_2stim_asymm_v5,2020.2.10,MacIntel,60,61025ae37ef11b136ea224fe,,,,,,,,,3412,70,15,1,0,0,response1disk,,6,3,7,1,0,0,rectangle,3,7,1,0,0,3,7,1,0,0,0,112,112,70,1,,,,,,,,
,,,,,,,,,,,,,FF,,,,,,,,0.667,,,,,,,,,,,,,,,,,,,,,,6100cb1963ae19d250fe70bc,61036f83445ee569e534158e,2021-07-29_22h19.37.915,Simcolourproject_2stim_asymm_v5,2020.2.10,MacIntel,60,61025ae37ef11b136ea224fe,,,,,,,,,1474,30,48,1,0,0,response1disk,,7,3,-1,1,0,0,rectangle,3,-1,1,0,0,3,-1,1,0,0,0,113,113,61,1,,,,,,,,
,,,,,,,,,,,,,FF,,,,,,,,0.733,,,,,,,,,,,,,,,,,,,,,,6100cb1963ae19d250fe70bc,61036f83445ee569e534158e,2021-07-29_22h19.37.915,Simcolourproject_2stim_asymm_v5,2020.2.10,MacIntel,60,61025ae37ef11b136ea224fe,,,,,,,,,4316,-43,65,1,0,0,response7disk,,0,-29,4,1,0,0,rectangle,-29,4,1,0,0,-29,4,1,0,0,0,114,114,74,1,,,,,,,,
,,,,,,,,,,,,,FF,,,,,,,,1.202,,,,,,,,,,,,,,,,,,,,,,6100cb1963ae19d250fe70bc,61036f83445ee569e534158e,2021-07-29_22h19.37.915,Simcolourproject_2stim_asymm_v5,2020.2.10,MacIntel,60,61025ae37ef11b136ea224fe,,,,,,,,,1352,-37,-87,1,0,0,response5disk,,3,11,3,1,0,0,rectangle,11,3,1,0,0,11,3,1,0,0,0,115,115,49,1,,,,,,,,
,,,,,,,,,,,,,FF,,,,,,,,0.684,,,,,,,,,,,,,,,,,,,,,,6100cb1963ae19d250fe70bc,61036f83445ee569e534158e,2021-07-29_22h19.37.915,Simcolourproject_2stim_asymm_v5,2020.2.10,MacIntel,60,61025ae37ef11b136ea224fe,,,,,,,,,2122,30,58,1,0,0,response1disk,,7,9,-12,1,0,0,rectangle,9,-12,1,0,0,9,-12,1,0,0,0,116,116,117,1,,,,,,,,
,,,,,,,,,,,,,FF,,,,,,,,0.952,,,,,,,,,,,,,,,,,,,,,,6100cb1963ae19d250fe70bc,61036f83445ee569e534158e,2021-07-29_22h19.37.915,Simcolourproject_2stim_asymm_v5,2020.2.10,MacIntel,60,61025ae37ef11b136ea224fe,,,,,,,,,1473,32,53,1,0,0,response1disk,,7,11,3,1,0,0,rectangle,11,3,1,0,0,11,3,1,0,0,0,117,117,111,1,,,,,,,,
,,,,,,,,,,,,,FF,,,,,,,,2.75,,,,,,,,,,,,,,,,,,,,,,6100cb1963ae19d250fe70bc,61036f83445ee569e534158e,2021-07-29_22h19.37.915,Simcolourproject_2stim_asymm_v5,2020.2.10,MacIntel,60,61025ae37ef11b136ea224fe,,,,,,,,,704,-76,-45,1,0,0,response5disk,,2,-5,-9,1,0,0,rectangle,-5,-9,1,0,0,-5,-9,1,0,0,0,118,118,106,1,,,,,,,,
,,,,,,,,,,,,,FF,,,,,,,,1.317,,,,,,,,,,,,,,,,,,,,,,6100cb1963ae19d250fe70bc,61036f83445ee569e534158e,2021-07-29_22h19.37.915,Simcolourproject_2stim_asymm_v5,2020.2.10,MacIntel,60,61025ae37ef11b136ea224fe,,,,,,,,,110,43,-72,1,0,0,response3disk,,4,16,-8,1,0,0,rectangle,16,-8,1,0,0,16,-8,1,0,0,0,119,119,141,1,,,,,,,,
,,,,,,,,,,,,,FF,,,,,,,,2.385,,,,,,,,,,,,,,,,,,,,,,6100cb1963ae19d250fe70bc,61036f83445ee569e534158e,2021-07-29_22h19.37.915,Simcolourproject_2stim_asymm_v5,2020.2.10,MacIntel,60,61025ae37ef11b136ea224fe,,,,,,,,,1763,-39,-73,1,0,0,response5disk,,3,12,4,1,0,0,rectangle,12,4,1,0,0,12,4,1,0,0,0,120,120,52,1,,,,,,,,
,,,,,,,,,,,,,FF,,,,,,,,2.234,,,,,,,,,,,,,,,,,,,,,,6100cb1963ae19d250fe70bc,61036f83445ee569e534158e,2021-07-29_22h19.37.915,Simcolourproject_2stim_asymm_v5,2020.2.10,MacIntel,60,61025ae37ef11b136ea224fe,,,,,,,,,1916,45,-71,1,0,0,response3disk,,4,2,-6,1,0,0,rectangle,2,-6,1,0,0,2,-6,1,0,0,0,121,121,107,1,,,,,,,,
,,,,,,,,,,,,,FF,,,,,,,,0.735,,,,,,,,,,,,,,,,,,,,,,6100cb1963ae19d250fe70bc,61036f83445ee569e534158e,2021-07-29_22h19.37.915,Simcolourproject_2stim_asymm_v5,2020.2.10,MacIntel,60,61025ae37ef11b136ea224fe,,,,,,,,,3992,20,66,1,0,0,response1disk,,7,5,3,1,0,0,rectangle,5,3,1,0,0,5,3,1,0,0,0,122,122,75,1,,,,,,,,
,,,,,,,,,,,,,FF,,,,,,,,3.219,,,,,,,,,,,,,,,,,,,,,,6100cb1963ae19d250fe70bc,61036f83445ee569e534158e,2021-07-29_22h19.37.915,Simcolourproject_2stim_asymm_v5,2020.2.10,MacIntel,60,61025ae37ef11b136ea224fe,,,,,,,,,625,38,51,1,0,0,response1disk,,7,7,-6,1,0,0,rectangle,7,-6,1,0,0,7,-6,1,0,0,0,123,123,73,1,,,,,,,,
,,,,,,,,,,,,,FF,,,,,,,,0.75,,,,,,,,,,,,,,,,,,,,,,6100cb1963ae19d250fe70bc,61036f83445ee569e534158e,2021-07-29_22h19.37.915,Simcolourproject_2stim_asymm_v5,2020.2.10,MacIntel,60,61025ae37ef11b136ea224fe,,,,,,,,,3095,31,67,1,0,0,response1disk,,7,9,6,1,0,0,rectangle,9,6,1,0,0,9,6,1,0,0,0,124,124,119,1,,,,,,,,
,,,,,,,,,,,,,FF,,,,,,,,0.983,,,,,,,,,,,,,,,,,,,,,,6100cb1963ae19d250fe70bc,61036f83445ee569e534158e,2021-07-29_22h19.37.915,Simcolourproject_2stim_asymm_v5,2020.2.10,MacIntel,60,61025ae37ef11b136ea224fe,,,,,,,,,1872,91,46,1,0,0,response1disk,,6,1,-7,1,0,0,rectangle,1,-7,1,0,0,1,-7,1,0,0,0,125,125,23,1,,,,,,,,
,,,,,,,,,,,,,FF,,,,,,,,1.167,,,,,,,,,,,,,,,,,,,,,,6100cb1963ae19d250fe70bc,61036f83445ee569e534158e,2021-07-29_22h19.37.915,Simcolourproject_2stim_asymm_v5,2020.2.10,MacIntel,60,61025ae37ef11b136ea224fe,,,,,,,,,2542,-50,29,1,0,0,response7disk,,1,-5,5,1,0,0,rectangle,-5,5,1,0,0,-5,5,1,0,0,0,126,126,112,1,,,,,,,,
,,,,,,,,,,,,,FF,,,,,,,,0.917,,,,,,,,,,,,,,,,,,,,,,6100cb1963ae19d250fe70bc,61036f83445ee569e534158e,2021-07-29_22h19.37.915,Simcolourproject_2stim_asymm_v5,2020.2.10,MacIntel,60,61025ae37ef11b136ea224fe,,,,,,,,,3488,-37,-74,1,0,0,response5disk,,3,11,-5,1,0,0,rectangle,11,-5,1,0,0,11,-5,1,0,0,0,127,127,14,1,,,,,,,,
,,,,,,,,,,,,,FF,,,,,,,,1.201,,,,,,,,,,,,,,,,,,,,,,6100cb1963ae19d250fe70bc,61036f83445ee569e534158e,2021-07-29_22h19.37.915,Simcolourproject_2stim_asymm_v5,2020.2.10,MacIntel,60,61025ae37ef11b136ea224fe,,,,,,,,,2552,-50,31,1,0,0,response7disk,,1,-1,-6,1,0,0,rectangle,-1,-6,1,0,0,-1,-6,1,0,0,0,128,128,132,1,,,,,,,,
,,,,,,,,,,,,,FF,,,,,,,,1.134,,,,,,,,,,,,,,,,,,,,,,6100cb1963ae19d250fe70bc,61036f83445ee569e534158e,2021-07-29_22h19.37.915,Simcolourproject_2stim_asymm_v5,2020.2.10,MacIntel,60,61025ae37ef11b136ea224fe,,,,,,,,,4161,-36,82,1,0,0,response7disk,,0,7,0,1,0,0,rectangle,7,0,1,0,0,7,0,1,0,0,0,129,129,58,1,,,,,,,,
,,,,,,,,,,,,,FF,,,,,,,,1.817,,,,,,,,,,,,,,,,,,,,,,6100cb1963ae19d250fe70bc,61036f83445ee569e534158e,2021-07-29_22h19.37.915,Simcolourproject_2stim_asymm_v5,2020.2.10,MacIntel,60,61025ae37ef11b136ea224fe,,,,,,,,,1268,-36,-105,1,0,0,response5disk,,3,-11,-7,1,0,0,rectangle,-11,-7,1,0,0,-11,-7,1,0,0,0,130,130,28,1,,,,,,,,
,,,,,,,,,,,,,FF,,,,,,,,1.219,,,,,,,,,,,,,,,,,,,,,,6100cb1963ae19d250fe70bc,61036f83445ee569e534158e,2021-07-29_22h19.37.915,Simcolourproject_2stim_asymm_v5,2020.2.10,MacIntel,60,61025ae37ef11b136ea224fe,,,,,,,,,399,71,34,1,0,0,response1disk,,6,8,7,1,0,0,rectangle,8,7,1,0,0,8,7,1,0,0,0,131,131,92,1,,,,,,,,
,,,,,,,,,,,,,FF,,,,,,,,0.784,,,,,,,,,,,,,,,,,,,,,,6100cb1963ae19d250fe70bc,61036f83445ee569e534158e,2021-07-29_22h19.37.915,Simcolourproject_2stim_asymm_v5,2020.2.10,MacIntel,60,61025ae37ef11b136ea224fe,,,,,,,,,2225,37,74,1,0,0,response1disk,,7,-3,0,1,0,0,rectangle,-3,0,1,0,0,-3,0,1,0,0,0,132,132,123,1,,,,,,,,
,,,,,,,,,,,,,FF,,,,,,,,1.484,,,,,,,,,,,,,,,,,,,,,,6100cb1963ae19d250fe70bc,61036f83445ee569e534158e,2021-07-29_22h19.37.915,Simcolourproject_2stim_asymm_v5,2020.2.10,MacIntel,60,61025ae37ef11b136ea224fe,,,,,,,,,2758,73,24,1,0,0,response1disk,,6,-2,-2,1,0,0,rectangle,-2,-2,1,0,0,-2,-2,1,0,0,0,133,133,44,1,,,,,,,,
,,,,,,,,,,,,,FF,,,,,,,,2.653,,,,,,,,,,,,,,,,,,,,,,6100cb1963ae19d250fe70bc,61036f83445ee569e534158e,2021-07-29_22h19.37.915,Simcolourproject_2stim_asymm_v5,2020.2.10,MacIntel,60,61025ae37ef11b136ea224fe,,,,,,,,,2415,46,-69,1,0,0,response3disk,,4,9,-2,1,0,0,rectangle,9,-2,1,0,0,9,-2,1,0,0,0,134,134,81,1,,,,,,,,
,,,,,,,,,,,,,FF,,,,,,,,1.417,,,,,,,,,,,,,,,,,,,,,,6100cb1963ae19d250fe70bc,61036f83445ee569e534158e,2021-07-29_22h19.37.915,Simcolourproject_2stim_asymm_v5,2020.2.10,MacIntel,60,61025ae37ef11b136ea224fe,,,,,,,,,2206,79,-45,1,0,0,response3disk,,5,-2,6,1,0,0,rectangle,-2,6,1,0,0,-2,6,1,0,0,0,135,135,102,1,,,,,,,,
,,,,,,,,,,,,,FF,,,,,,,,0.95,,,,,,,,,,,,,,,,,,,,,,6100cb1963ae19d250fe70bc,61036f83445ee569e534158e,2021-07-29_22h19.37.915,Simcolourproject_2stim_asymm_v5,2020.2.10,MacIntel,60,61025ae37ef11b136ea224fe,,,,,,,,,2019,33,61,1,0,0,response1disk,,7,-6,-6,1,0,0,rectangle,-30,78,1,0,0,-11,4,1,0,0,0,136,136,20,1,,response7disk_3,TRUE,0,0,"[193,61,265,84,317,289,152,234,198,312,200,173,273,213,266,183,98,84,54,137]",1.5,rectangle
,,,,,,,,,,,,,FF,,,,,,,,1.983,,,,,,,,,,,,,,,,,,,,,,6100cb1963ae19d250fe70bc,61036f83445ee569e534158e,2021-07-29_22h19.37.915,Simcolourproject_2stim_asymm_v5,2020.2.10,MacIntel,60,61025ae37ef11b136ea224fe,,,,,,,,,28,36,-68,1,0,0,response3disk,,4,-2,-9,1,0,0,rectangle,-2,-9,1,0,0,-2,-9,1,0,0,0,137,137,0,1,,,,,,,,
,,,,,,,,,,,,,FF,,,,,,,,1.199,,,,,,,,,,,,,,,,,,,,,,6100cb1963ae19d250fe70bc,61036f83445ee569e534158e,2021-07-29_22h19.37.915,Simcolourproject_2stim_asymm_v5,2020.2.10,MacIntel,60,61025ae37ef11b136ea224fe,,,,,,,,,410,94,-41,1,0,0,response3disk,,5,9,-6,1,0,0,rectangle,9,-6,1,0,0,9,-6,1,0,0,0,138,138,10,1,,,,,,,,
,,,,,,,,,,,,,FF,,,,,,,,5.719,,,,,,,,,,,,,,,,,,,,,,6100cb1963ae19d250fe70bc,61036f83445ee569e534158e,2021-07-29_22h19.37.915,Simcolourproject_2stim_asymm_v5,2020.2.10,MacIntel,60,61025ae37ef11b136ea224fe,,,,,,,,,2315,40,-74,1,0,0,response3disk,,4,7,0,1,0,0,rectangle,7,0,1,0,0,7,0,1,0,0,0,139,139,137,1,,,,,,,,
,,,,,,,,,,,,,FF,,,,,,,,1.734,,,,,,,,,,,,,,,,,,,,,,6100cb1963ae19d250fe70bc,61036f83445ee569e534158e,2021-07-29_22h19.37.915,Simcolourproject_2stim_asymm_v5,2020.2.10,MacIntel,60,61025ae37ef11b136ea224fe,,,,,,,,,1048,67,16,1,0,0,response1disk,,6,-4,6,1,0,0,rectangle,-4,6,1,0,0,-4,6,1,0,0,0,140,140,3,1,,,,,,,,
,,,,,,,,,,,,,FF,,,,,,,,0.685,,,,,,,,,,,,,,,,,,,,,,6100cb1963ae19d250fe70bc,61036f83445ee569e534158e,2021-07-29_22h19.37.915,Simcolourproject_2stim_asymm_v5,2020.2.10,MacIntel,60,61025ae37ef11b136ea224fe,,,,,,,,,306,36,58,1,0,0,response1disk,,7,-3,2,1,0,0,rectangle,-3,2,1,0,0,-3,2,1,0,0,0,141,141,142,1,,,,,,,,
,,,,,,,,,,,,,FF,,,,,,,,1.868,,,,,,,,,,,,,,,,,,,,,,6100cb1963ae19d250fe70bc,61036f83445ee569e534158e,2021-07-29_22h19.37.915,Simcolourproject_2stim_asymm_v5,2020.2.10,MacIntel,60,61025ae37ef11b136ea224fe,,,,,,,,,2301,-58,-83,1,0,0,response5disk,,3,-7,-2,1,0,0,rectangle,-7,-2,1,0,0,-7,-2,1,0,0,0,142,142,79,1,,,,,,,,
,,,,,,,,,,,,,FF,,,,,,,,1.234,,,,,,,,,,,,,,,,,,,,,,6100cb1963ae19d250fe70bc,61036f83445ee569e534158e,2021-07-29_22h19.37.915,Simcolourproject_2stim_asymm_v5,2020.2.10,MacIntel,60,61025ae37ef11b136ea224fe,,,,,,,,,2606,-40,-69,1,0,0,response5disk,,3,1,-5,1,0,0,rectangle,1,-5,1,0,0,1,-5,1,0,0,0,143,143,149,1,,,,,,,,
,,,,,,,,,,,,,FF,,,,,,,,1.251,,,,,,,,,,,,,,,,,,,,,,6100cb1963ae19d250fe70bc,61036f83445ee569e534158e,2021-07-29_22h19.37.915,Simcolourproject_2stim_asymm_v5,2020.2.10,MacIntel,60,61025ae37ef11b136ea224fe,,,,,,,,,424,-46,-73,1,0,0,response5disk,,3,-20,-9,1,0,0,rectangle,-20,-9,1,0,0,-20,-9,1,0,0,0,144,144,7,1,,,,,,,,
,,,,,,,,,,,,,FF,,,,,,,,0.917,,,,,,,,,,,,,,,,,,,,,,6100cb1963ae19d250fe70bc,61036f83445ee569e534158e,2021-07-29_22h19.37.915,Simcolourproject_2stim_asymm_v5,2020.2.10,MacIntel,60,61025ae37ef11b136ea224fe,,,,,,,,,4231,30,59,1,0,0,response1disk,,7,9,-4,1,0,0,rectangle,9,-4,1,0,0,9,-4,1,0,0,0,145,145,43,1,,,,,,,,
,,,,,,,,,,,,,FF,,,,,,,,0.816,,,,,,,,,,,,,,,,,,,,,,6100cb1963ae19d250fe70bc,61036f83445ee569e534158e,2021-07-29_22h19.37.915,Simcolourproject_2stim_asymm_v5,2020.2.10,MacIntel,60,61025ae37ef11b136ea224fe,,,,,,,,,2325,87,31,1,0,0,response1disk,,6,-1,4,1,0,0,rectangle,-1,4,1,0,0,-1,4,1,0,0,0,146,146,105,1,,,,,,,,
,,,,,,,,,,,,,FF,,,,,,,,0.683,,,,,,,,,,,,,,,,,,,,,,6100cb1963ae19d250fe70bc,61036f83445ee569e534158e,2021-07-29_22h19.37.915,Simcolourproject_2stim_asymm_v5,2020.2.10,MacIntel,60,61025ae37ef11b136ea224fe,,,,,,,,,604,21,39,1,0,0,response1disk,,7,12,-2,1,0,0,rectangle,12,-2,1,0,0,12,-2,1,0,0,0,147,147,82,1,,,,,,,,
,,,,,,,,,,,,,FF,,,,,,,,0.966,,,,,,,,,,,,,,,,,,,,,,6100cb1963ae19d250fe70bc,61036f83445ee569e534158e,2021-07-29_22h19.37.915,Simcolourproject_2stim_asymm_v5,2020.2.10,MacIntel,60,61025ae37ef11b136ea224fe,,,,,,,,,3504,23,-77,1,0,0,response3disk,,4,7,-3,1,0,0,rectangle,7,-3,1,0,0,7,-3,1,0,0,0,148,148,131,1,,,,,,,,
,,,,,,,,,,,,,FF,,,,,,,,0.9,,,,,,,,,,,,,,,,,,,,,,6100cb1963ae19d250fe70bc,61036f83445ee569e534158e,2021-07-29_22h19.37.915,Simcolourproject_2stim_asymm_v5,2020.2.10,MacIntel,60,61025ae37ef11b136ea224fe,,,,,,,,,1760,-42,-56,1,0,0,response5disk,,3,-3,3,1,0,0,rectangle,-3,3,1,0,0,-3,3,1,0,0,0,149,149,62,1,,,,,,,,
,,,,,,,,,,,,,FF,,,,,,,,0.983,,,,,,,,,,,,,,,,,,,,,,6100cb1963ae19d250fe70bc,61036f83445ee569e534158e,2021-07-29_22h19.37.915,Simcolourproject_2stim_asymm_v5,2020.2.10,MacIntel,60,61025ae37ef11b136ea224fe,,,,,,,,,1984,15,41,1,0,0,response1disk,,7,1,0,1,0,0,rectangle,1,0,1,0,0,1,0,1,0,0,0,150,150,29,1,,,,,,,,
,,,,,,,,,,,,,FF,,,,,,,,0.817,,,,,,,,,,,,,,,,,,,,,,6100cb1963ae19d250fe70bc,61036f83445ee569e534158e,2021-07-29_22h19.37.915,Simcolourproject_2stim_asymm_v5,2020.2.10,MacIntel,60,61025ae37ef11b136ea224fe,,,,,,,,,2561,27,39,1,0,0,response1disk,,7,14,-4,1,0,0,rectangle,-34,76,1,0,0,-7,0,1,0,0,0,151,151,97,1,,response7disk_3,TRUE,0,0,"[193,61,265,84,317,289,152,234,198,312,200,173,273,213,266,183,98,84,54,137]",1.335,rectangle
,,,,,,,,,,,,,FF,,,,,,,,1.367,,,,,,,,,,,,,,,,,,,,,,6100cb1963ae19d250fe70bc,61036f83445ee569e534158e,2021-07-29_22h19.37.915,Simcolourproject_2stim_asymm_v5,2020.2.10,MacIntel,60,61025ae37ef11b136ea224fe,,,,,,,,,3807,-25,-62,1,0,0,response5disk,,3,1,-1,1,0,0,rectangle,1,-1,1,0,0,1,-1,1,0,0,0,152,152,65,1,,,,,,,,
,,,,,,,,,,,,,FF,,,,,,,,1.133,,,,,,,,,,,,,,,,,,,,,,6100cb1963ae19d250fe70bc,61036f83445ee569e534158e,2021-07-29_22h19.37.915,Simcolourproject_2stim_asymm_v5,2020.2.10,MacIntel,60,61025ae37ef11b136ea224fe,,,,,,,,,1718,40,79,1,0,0,response1disk,,7,9,-3,1,0,0,rectangle,9,-3,1,0,0,9,-3,1,0,0,0,153,153,46,1,,,,,,,,
,,,,,,,,,,,,,FF,,,,,,,,1.117,,,,,,,,,,,,,,,,,,,,,,6100cb1963ae19d250fe70bc,61036f83445ee569e534158e,2021-07-29_22h19.37.915,Simcolourproject_2stim_asymm_v5,2020.2.10,MacIntel,60,61025ae37ef11b136ea224fe,,,,,,,,,825,89,42,1,0,0,response1disk,,6,4,-2,1,0,0,rectangle,4,-2,1,0,0,4,-2,1,0,0,0,154,154,127,1,,,,,,,,
,,,,,,,,,,,,,FF,,,,,,,,0.549,,,,,,,,,,,,,,,,,,,,,,6100cb1963ae19d250fe70bc,61036f83445ee569e534158e,2021-07-29_22h19.37.915,Simcolourproject_2stim_asymm_v5,2020.2.10,MacIntel,60,61025ae37ef11b136ea224fe,,,,,,,,,330,32,47,1,0,0,response1disk,,7,10,-2,1,0,0,rectangle,10,-2,1,0,0,10,-2,1,0,0,0,155,155,100,1,,,,,,,,
,,,,,,,,,,,,,FF,,,,,,,,0.767,,,,,,,,,,,,,,,,,,,,,,6100cb1963ae19d250fe70bc,61036f83445ee569e534158e,2021-07-29_22h19.37.915,Simcolourproject_2stim_asymm_v5,2020.2.10,MacIntel,60,61025ae37ef11b136ea224fe,,,,,,,,,2185,41,64,1,0,0,response1disk,,7,-8,-4,1,0,0,rectangle,-8,-4,1,0,0,-8,-4,1,0,0,0,156,156,85,1,,,,,,,,
,,,,,,,,,,,,,FF,,,,,,,,1.301,,,,,,,,,,,,,,,,,,,,,,6100cb1963ae19d250fe70bc,61036f83445ee569e534158e,2021-07-29_22h19.37.915,Simcolourproject_2stim_asymm_v5,2020.2.10,MacIntel,60,61025ae37ef11b136ea224fe,,,,,,,,,2730,60,34,1,0,0,response1disk,,6,2,-2,1,0,0,rectangle,2,-2,1,0,0,2,-2,1,0,0,0,157,157,99,1,,,,,,,,
,,,,,,,,,,,,,FF,,,,,,,,1.484,,,,,,,,,,,,,,,,,,,,,,6100cb1963ae19d250fe70bc,61036f83445ee569e534158e,2021-07-29_22h19.37.915,Simcolourproject_2stim_asymm_v5,2020.2.10,MacIntel,60,61025ae37ef11b136ea224fe,,,,,,,,,3164,39,-76,1,0,0,response3disk,,4,-2,-2,1,0,0,rectangle,-2,-2,1,0,0,-2,-2,1,0,0,0,158,158,133,1,,,,,,,,
,,,,,,,,,,,,,FF,,,,,,,,3.518,,,,,,,,,,,,,,,,,,,,,,6100cb1963ae19d250fe70bc,61036f83445ee569e534158e,2021-07-29_22h19.37.915,Simcolourproject_2stim_asymm_v5,2020.2.10,MacIntel,60,61025ae37ef11b136ea224fe,,,,,,,,,3132,45,-89,1,0,0,response3disk,,4,-2,-1,1,0,0,rectangle,-2,-1,1,0,0,-2,-1,1,0,0,0,159,159,113,1,,,,,,,,
,,,,,,,,,,,,,FF,,,,,,,,1.217,,,,,,,,,,,,,,,,,,,,,,6100cb1963ae19d250fe70bc,61036f83445ee569e534158e,2021-07-29_22h19.37.915,Simcolourproject_2stim_asymm_v5,2020.2.10,MacIntel,60,61025ae37ef11b136ea224fe,,,,,,,,,2029,-27,-62,1,0,0,response5disk,,3,-3,-3,1,0,0,rectangle,-3,-3,1,0,0,-3,-3,1,0,0,1,0,160,147,1,,,,,,,,
,,,,,,,,,,,,,FF,,,,,,,,1.984,,,,,,,,,,,,,,,,,,,,,,6100cb1963ae19d250fe70bc,61036f83445ee569e534158e,2021-07-29_22h19.37.915,Simcolourproject_2stim_asymm_v5,2020.2.10,MacIntel,60,61025ae37ef11b136ea224fe,,,,,,,,,1646,84,59,1,0,0,response1disk,,6,-1,-4,1,0,0,rectangle,-1,-4,1,0,0,-1,-4,1,0,0,1,1,161,116,1,,,,,,,,
,,,,,,,,,,,,,FF,,,,,,,,1.634,,,,,,,,,,,,,,,,,,,,,,6100cb1963ae19d250fe70bc,61036f83445ee569e534158e,2021-07-29_22h19.37.915,Simcolourproject_2stim_asymm_v5,2020.2.10,MacIntel,60,61025ae37ef11b136ea224fe,,,,,,,,,1485,51,-78,1,0,0,response3disk,,4,14,-3,1,0,0,rectangle,14,-3,1,0,0,14,-3,1,0,0,1,2,162,37,1,,,,,,,,
,,,,,,,,,,,,,FF,,,,,,,,1.184,,,,,,,,,,,,,,,,,,,,,,6100cb1963ae19d250fe70bc,61036f83445ee569e534158e,2021-07-29_22h19.37.915,Simcolourproject_2stim_asymm_v5,2020.2.10,MacIntel,60,61025ae37ef11b136ea224fe,,,,,,,,,2152,-41,-64,1,0,0,response5disk,,3,15,2,1,0,0,rectangle,15,2,1,0,0,15,2,1,0,0,1,3,163,8,1,,,,,,,,
,,,,,,,,,,,,,FF,,,,,,,,2.951,,,,,,,,,,,,,,,,,,,,,,6100cb1963ae19d250fe70bc,61036f83445ee569e534158e,2021-07-29_22h19.37.915,Simcolourproject_2stim_asymm_v5,2020.2.10,MacIntel,60,61025ae37ef11b136ea224fe,,,,,,,,,453,35,69,1,0,0,response1disk,,7,2,3,1,0,0,rectangle,2,3,1,0,0,2,3,1,0,0,1,4,164,78,1,,,,,,,,
,,,,,,,,,,,,,FF,,,,,,,,1.2,,,,,,,,,,,,,,,,,,,,,,6100cb1963ae19d250fe70bc,61036f83445ee569e534158e,2021-07-29_22h19.37.915,Simcolourproject_2stim_asymm_v5,2020.2.10,MacIntel,60,61025ae37ef11b136ea224fe,,,,,,,,,2731,41,-84,1,0,0,response3disk,,4,2,-11,1,0,0,rectangle,2,-11,1,0,0,2,-11,1,0,0,1,5,165,46,1,,,,,,,,
,,,,,,,,,,,,,FF,,,,,,,,0.918,,,,,,,,,,,,,,,,,,,,,,6100cb1963ae19d250fe70bc,61036f83445ee569e534158e,2021-07-29_22h19.37.915,Simcolourproject_2stim_asymm_v5,2020.2.10,MacIntel,60,61025ae37ef11b136ea224fe,,,,,,,,,1406,-29,-74,1,0,0,response5disk,,3,-4,-10,1,0,0,rectangle,-4,-10,1,0,0,-4,-10,1,0,0,1,6,166,155,1,,,,,,,,
,,,,,,,,,,,,,FF,,,,,,,,1.1,,,,,,,,,,,,,,,,,,,,,,6100cb1963ae19d250fe70bc,61036f83445ee569e534158e,2021-07-29_22h19.37.915,Simcolourproject_2stim_asymm_v5,2020.2.10,MacIntel,60,61025ae37ef11b136ea224fe,,,,,,,,,34,76,58,1,0,0,response1disk,,6,-1,-3,1,0,0,rectangle,-1,-3,1,0,0,-1,-3,1,0,0,1,7,167,102,1,,,,,,,,
,,,,,,,,,,,,,FF,,,,,,,,1.952,,,,,,,,,,,,,,,,,,,,,,6100cb1963ae19d250fe70bc,61036f83445ee569e534158e,2021-07-29_22h19.37.915,Simcolourproject_2stim_asymm_v5,2020.2.10,MacIntel,60,61025ae37ef11b136ea224fe,,,,,,,,,2129,37,81,1,0,0,response1disk,,7,2,7,1,0,0,rectangle,2,7,1,0,0,2,7,1,0,0,1,8,168,110,1,,,,,,,,
,,,,,,,,,,,,,FF,,,,,,,,0.816,,,,,,,,,,,,,,,,,,,,,,6100cb1963ae19d250fe70bc,61036f83445ee569e534158e,2021-07-29_22h19.37.915,Simcolourproject_2stim_asymm_v5,2020.2.10,MacIntel,60,61025ae37ef11b136ea224fe,,,,,,,,,3806,49,-109,1,0,0,response3disk,,4,17,-12,1,0,0,rectangle,17,-12,1,0,0,17,-12,1,0,0,1,9,169,127,1,,,,,,,,
,,,,,,,,,,,,,FF,,,,,,,,1.151,,,,,,,,,,,,,,,,,,,,,,6100cb1963ae19d250fe70bc,61036f83445ee569e534158e,2021-07-29_22h19.37.915,Simcolourproject_2stim_asymm_v5,2020.2.10,MacIntel,60,61025ae37ef11b136ea224fe,,,,,,,,,638,-17,-80,1,0,0,response5disk,,3,-7,-2,1,0,0,rectangle,-7,-2,1,0,0,-7,-2,1,0,0,1,10,170,22,1,,,,,,,,
,,,,,,,,,,,,,FF,,,,,,,,1.067,,,,,,,,,,,,,,,,,,,,,,6100cb1963ae19d250fe70bc,61036f83445ee569e534158e,2021-07-29_22h19.37.915,Simcolourproject_2stim_asymm_v5,2020.2.10,MacIntel,60,61025ae37ef11b136ea224fe,,,,,,,,,3680,77,-57,1,0,0,response3disk,,5,-14,2,1,0,0,rectangle,-14,2,1,0,0,-14,2,1,0,0,1,11,171,70,1,,,,,,,,
,,,,,,,,,,,,,FF,,,,,,,,2.968,,,,,,,,,,,,,,,,,,,,,,6100cb1963ae19d250fe70bc,61036f83445ee569e534158e,2021-07-29_22h19.37.915,Simcolourproject_2stim_asymm_v5,2020.2.10,MacIntel,60,61025ae37ef11b136ea224fe,,,,,,,,,1859,38,-59,1,0,0,response3disk,,4,4,0,1,0,0,rectangle,39,-89,1,0,0,2,0,1,0,0,1,12,172,85,1,,response3disk_3,TRUE,4,4,"[193,61,265,84,317,289,152,234,198,312,200,173,273,213,266,183,98,84,54,137]",1.718,rectangle
,,,,,,,,,,,,,FF,,,,,,,,1.634,,,,,,,,,,,,,,,,,,,,,,6100cb1963ae19d250fe70bc,61036f83445ee569e534158e,2021-07-29_22h19.37.915,Simcolourproject_2stim_asymm_v5,2020.2.10,MacIntel,60,61025ae37ef11b136ea224fe,,,,,,,,,2682,82,20,1,0,0,response1disk,,6,12,5,1,0,0,rectangle,12,5,1,0,0,12,5,1,0,0,1,13,173,104,1,,,,,,,,
,,,,,,,,,,,,,FF,,,,,,,,1.083,,,,,,,,,,,,,,,,,,,,,,6100cb1963ae19d250fe70bc,61036f83445ee569e534158e,2021-07-29_22h19.37.915,Simcolourproject_2stim_asymm_v5,2020.2.10,MacIntel,60,61025ae37ef11b136ea224fe,,,,,,,,,1586,39,-86,1,0,0,response3disk,,4,2,10,1,0,0,rectangle,2,10,1,0,0,2,10,1,0,0,1,14,174,57,1,,,,,,,,
,,,,,,,,,,,,,FF,,,,,,,,1.451,,,,,,,,,,,,,,,,,,,,,,6100cb1963ae19d250fe70bc,61036f83445ee569e534158e,2021-07-29_22h19.37.915,Simcolourproject_2stim_asymm_v5,2020.2.10,MacIntel,60,61025ae37ef11b136ea224fe,,,,,,,,,3405,80,41,1,0,0,response1disk,,6,5,0,1,0,0,rectangle,5,0,1,0,0,5,0,1,0,0,1,15,175,95,1,,,,,,,,
,,,,,,,,,,,,,FF,,,,,,,,2.468,,,,,,,,,,,,,,,,,,,,,,6100cb1963ae19d250fe70bc,61036f83445ee569e534158e,2021-07-29_22h19.37.915,Simcolourproject_2stim_asymm_v5,2020.2.10,MacIntel,60,61025ae37ef11b136ea224fe,,,,,,,,,173,46,-92,1,0,0,response3disk,,4,4,7,1,0,0,rectangle,4,7,1,0,0,4,7,1,0,0,1,16,176,5,1,,,,,,,,
,,,,,,,,,,,,,FF,,,,,,,,2.134,,,,,,,,,,,,,,,,,,,,,,6100cb1963ae19d250fe70bc,61036f83445ee569e534158e,2021-07-29_22h19.37.915,Simcolourproject_2stim_asymm_v5,2020.2.10,MacIntel,60,61025ae37ef11b136ea224fe,,,,,,,,,2749,94,49,1,0,0,response1disk,,6,1,9,1,0,0,rectangle,1,9,1,0,0,1,9,1,0,0,1,17,177,45,1,,,,,,,,
,,,,,,,,,,,,,FF,,,,,,,,1.568,,,,,,,,,,,,,,,,,,,,,,6100cb1963ae19d250fe70bc,61036f83445ee569e534158e,2021-07-29_22h19.37.915,Simcolourproject_2stim_asymm_v5,2020.2.10,MacIntel,60,61025ae37ef11b136ea224fe,,,,,,,,,140,41,64,1,0,0,response1disk,,7,6,-1,1,0,0,rectangle,6,-1,1,0,0,6,-1,1,0,0,1,18,178,40,1,,,,,,,,
,,,,,,,,,,,,,FF,,,,,,,,0.751,,,,,,,,,,,,,,,,,,,,,,6100cb1963ae19d250fe70bc,61036f83445ee569e534158e,2021-07-29_22h19.37.915,Simcolourproject_2stim_asymm_v5,2020.2.10,MacIntel,60,61025ae37ef11b136ea224fe,,,,,,,,,1408,22,46,1,0,0,response1disk,,7,-4,-1,1,0,0,rectangle,-4,-1,1,0,0,-4,-1,1,0,0,1,19,179,145,1,,,,,,,,
,,,,,,,,,,,,,FF,,,,,,,,1.4,,,,,,,,,,,,,,,,,,,,,,6100cb1963ae19d250fe70bc,61036f83445ee569e534158e,2021-07-29_22h19.37.915,Simcolourproject_2stim_asymm_v5,2020.2.10,MacIntel,60,61025ae37ef11b136ea224fe,,,,,,,,,1573,56,36,1,0,0,response1disk,,6,-7,0,1,0,0,rectangle,-7,0,1,0,0,-7,0,1,0,0,1,20,180,126,1,,,,,,,,
,,,,,,,,,,,,,FF,,,,,,,,1.217,,,,,,,,,,,,,,,,,,,,,,6100cb1963ae19d250fe70bc,61036f83445ee569e534158e,2021-07-29_22h19.37.915,Simcolourproject_2stim_asymm_v5,2020.2.10,MacIntel,60,61025ae37ef11b136ea224fe,,,,,,,,,1831,-87,-43,1,0,0,response5disk,,2,2,2,1,0,0,rectangle,2,2,1,0,0,2,2,1,0,0,1,21,181,44,1,,,,,,,,
,,,,,,,,,,,,,FF,,,,,,,,12.639,,,,,,,,,,,,,,,,,,,,,,6100cb1963ae19d250fe70bc,61036f83445ee569e534158e,2021-07-29_22h19.37.915,Simcolourproject_2stim_asymm_v5,2020.2.10,MacIntel,60,61025ae37ef11b136ea224fe,,,,,,,,,3041,66,-38,1,0,0,response3disk,,5,-3,0,1,0,0,rectangle,96,53,1,0,0,-5,-4,1,0,0,1,22,182,13,1,,response1disk_3,TRUE,6,6,"[193,61,265,84,317,289,152,234,198,312,200,173,273,213,266,183,98,84,54,137]",1.535,rectangle
,,,,,,,,,,,,,FF,,,,,,,,1.301,,,,,,,,,,,,,,,,,,,,,,6100cb1963ae19d250fe70bc,61036f83445ee569e534158e,2021-07-29_22h19.37.915,Simcolourproject_2stim_asymm_v5,2020.2.10,MacIntel,60,61025ae37ef11b136ea224fe,,,,,,,,,635,-51,-76,1,0,0,response5disk,,3,-2,-4,1,0,0,rectangle,-2,-4,1,0,0,-2,-4,1,0,0,1,23,183,107,1,,,,,,,,
,,,,,,,,,,,,,FF,,,,,,,,0.867,,,,,,,,,,,,,,,,,,,,,,6100cb1963ae19d250fe70bc,61036f83445ee569e534158e,2021-07-29_22h19.37.915,Simcolourproject_2stim_asymm_v5,2020.2.10,MacIntel,60,61025ae37ef11b136ea224fe,,,,,,,,,924,46,67,1,0,0,response1disk,,7,-6,-6,1,0,0,rectangle,-6,-6,1,0,0,-6,-6,1,0,0,1,24,184,10,1,,,,,,,,
,,,,,,,,,,,,,FF,,,,,,,,1.851,,,,,,,,,,,,,,,,,,,,,,6100cb1963ae19d250fe70bc,61036f83445ee569e534158e,2021-07-29_22h19.37.915,Simcolourproject_2stim_asymm_v5,2020.2.10,MacIntel,60,61025ae37ef11b136ea224fe,,,,,,,,,654,72,-44,1,0,0,response3disk,,5,-1,6,1,0,0,rectangle,-1,6,1,0,0,-1,6,1,0,0,1,25,185,60,1,,,,,,,,
,,,,,,,,,,,,,FF,,,,,,,,1.084,,,,,,,,,,,,,,,,,,,,,,6100cb1963ae19d250fe70bc,61036f83445ee569e534158e,2021-07-29_22h19.37.915,Simcolourproject_2stim_asymm_v5,2020.2.10,MacIntel,60,61025ae37ef11b136ea224fe,,,,,,,,,4169,-35,-63,1,0,0,response5disk,,3,-7,-6,1,0,0,rectangle,-7,-6,1,0,0,-7,-6,1,0,0,1,26,186,89,1,,,,,,,,
,,,,,,,,,,,,,FF,,,,,,,,0.567,,,,,,,,,,,,,,,,,,,,,,6100cb1963ae19d250fe70bc,61036f83445ee569e534158e,2021-07-29_22h19.37.915,Simcolourproject_2stim_asymm_v5,2020.2.10,MacIntel,60,61025ae37ef11b136ea224fe,,,,,,,,,1732,39,65,1,0,0,response1disk,,7,11,2,1,0,0,rectangle,11,2,1,0,0,11,2,1,0,0,1,27,187,92,1,,,,,,,,
,,,,,,,,,,,,,FF,,,,,,,,0.551,,,,,,,,,,,,,,,,,,,,,,6100cb1963ae19d250fe70bc,61036f83445ee569e534158e,2021-07-29_22h19.37.915,Simcolourproject_2stim_asymm_v5,2020.2.10,MacIntel,60,61025ae37ef11b136ea224fe,,,,,,,,,2684,28,62,1,0,0,response1disk,,7,-2,-2,1,0,0,rectangle,-2,-2,1,0,0,-2,-2,1,0,0,1,28,188,134,1,,,,,,,,
,,,,,,,,,,,,,FF,,,,,,,,1.283,,,,,,,,,,,,,,,,,,,,,,6100cb1963ae19d250fe70bc,61036f83445ee569e534158e,2021-07-29_22h19.37.915,Simcolourproject_2stim_asymm_v5,2020.2.10,MacIntel,60,61025ae37ef11b136ea224fe,,,,,,,,,4103,-43,-71,1,0,0,response5disk,,3,-6,-7,1,0,0,rectangle,-6,-7,1,0,0,-6,-7,1,0,0,1,29,189,28,1,,,,,,,,
,,,,,,,,,,,,,FF,,,,,,,,1.167,,,,,,,,,,,,,,,,,,,,,,6100cb1963ae19d250fe70bc,61036f83445ee569e534158e,2021-07-29_22h19.37.915,Simcolourproject_2stim_asymm_v5,2020.2.10,MacIntel,60,61025ae37ef11b136ea224fe,,,,,,,,,2992,22,62,1,0,0,response1disk,,7,-4,-1,1,0,0,rectangle,-4,-1,1,0,0,-4,-1,1,0,0,1,30,190,62,1,,,,,,,,
,,,,,,,,,,,,,FF,,,,,,,,2.551,,,,,,,,,,,,,,,,,,,,,,6100cb1963ae19d250fe70bc,61036f83445ee569e534158e,2021-07-29_22h19.37.915,Simcolourproject_2stim_asymm_v5,2020.2.10,MacIntel,60,61025ae37ef11b136ea224fe,,,,,,,,,1119,65,86,1,0,0,response1disk,,7,-4,-6,1,0,0,rectangle,-4,-6,1,0,0,-4,-6,1,0,0,1,31,191,148,1,,,,,,,,
,,,,,,,,,,,,,FF,,,,,,,,1.436,,,,,,,,,,,,,,,,,,,,,,6100cb1963ae19d250fe70bc,61036f83445ee569e534158e,2021-07-29_22h19.37.915,Simcolourproject_2stim_asymm_v5,2020.2.10,MacIntel,60,61025ae37ef11b136ea224fe,,,,,,,,,2849,32,66,1,0,0,response1disk,,7,9,12,1,0,0,rectangle,-68,37,1,0,0,8,3,1,0,0,1,32,192,17,1,,response7disk_3,TRUE,1,1,"[193,61,265,84,317,289,152,234,198,312,200,173,273,213,266,183,98,84,54,137]",1.484,rectangle
,,,,,,,,,,,,,FF,,,,,,,,0.768,,,,,,,,,,,,,,,,,,,,,,6100cb1963ae19d250fe70bc,61036f83445ee569e534158e,2021-07-29_22h19.37.915,Simcolourproject_2stim_asymm_v5,2020.2.10,MacIntel,60,61025ae37ef11b136ea224fe,,,,,,,,,1955,49,86,1,0,0,response1disk,,7,6,-1,1,0,0,rectangle,6,-1,1,0,0,6,-1,1,0,0,1,33,193,56,1,,,,,,,,
,,,,,,,,,,,,,FF,,,,,,,,1.5,,,,,,,,,,,,,,,,,,,,,,6100cb1963ae19d250fe70bc,61036f83445ee569e534158e,2021-07-29_22h19.37.915,Simcolourproject_2stim_asymm_v5,2020.2.10,MacIntel,60,61025ae37ef11b136ea224fe,,,,,,,,,1265,60,71,1,0,0,response1disk,,7,2,-9,1,0,0,rectangle,2,-9,1,0,0,2,-9,1,0,0,1,34,194,9,1,,,,,,,,
,,,,,,,,,,,,,FF,,,,,,,,0.95,,,,,,,,,,,,,,,,,,,,,,6100cb1963ae19d250fe70bc,61036f83445ee569e534158e,2021-07-29_22h19.37.915,Simcolourproject_2stim_asymm_v5,2020.2.10,MacIntel,60,61025ae37ef11b136ea224fe,,,,,,,,,613,-42,-94,1,0,0,response5disk,,3,-11,-12,1,0,0,rectangle,-11,-12,1,0,0,-11,-12,1,0,0,1,35,195,159,1,,,,,,,,
,,,,,,,,,,,,,FF,,,,,,,,0.766,,,,,,,,,,,,,,,,,,,,,,6100cb1963ae19d250fe70bc,61036f83445ee569e534158e,2021-07-29_22h19.37.915,Simcolourproject_2stim_asymm_v5,2020.2.10,MacIntel,60,61025ae37ef11b136ea224fe,,,,,,,,,2040,-71,-38,1,0,0,response5disk,,2,-5,-6,1,0,0,rectangle,-5,-6,1,0,0,-5,-6,1,0,0,1,36,196,69,1,,,,,,,,
,,,,,,,,,,,,,FF,,,,,,,,0.549,,,,,,,,,,,,,,,,,,,,,,6100cb1963ae19d250fe70bc,61036f83445ee569e534158e,2021-07-29_22h19.37.915,Simcolourproject_2stim_asymm_v5,2020.2.10,MacIntel,60,61025ae37ef11b136ea224fe,,,,,,,,,3358,53,76,1,0,0,response1disk,,7,5,-9,1,0,0,rectangle,-65,41,1,0,0,3,-1,1,0,0,1,37,197,94,1,,response7disk_3,TRUE,1,1,"[193,61,265,84,317,289,152,234,198,312,200,173,273,213,266,183,98,84,54,137]",1.251,rectangle
,,,,,,,,,,,,,FF,,,,,,,,1.619,,,,,,,,,,,,,,,,,,,,,,6100cb1963ae19d250fe70bc,61036f83445ee569e534158e,2021-07-29_22h19.37.915,Simcolourproject_2stim_asymm_v5,2020.2.10,MacIntel,60,61025ae37ef11b136ea224fe,,,,,,,,,710,38,-63,1,0,0,response3disk,,4,4,-9,1,0,0,rectangle,4,-9,1,0,0,4,-9,1,0,0,1,38,198,135,1,,,,,,,,
,,,,,,,,,,,,,FF,,,,,,,,7.971,,,,,,,,,,,,,,,,,,,,,,6100cb1963ae19d250fe70bc,61036f83445ee569e534158e,2021-07-29_22h19.37.915,Simcolourproject_2stim_asymm_v5,2020.2.10,MacIntel,60,61025ae37ef11b136ea224fe,,,,,,,,,258,41,-89,1,0,0,response3disk,,4,0,-9,1,0,0,rectangle,72,41,1,0,0,17,3,1,0,0,1,39,199,82,1,,response1disk_3,TRUE,6,6,"[193,61,265,84,317,289,152,234,198,312,200,173,273,213,266,183,98,84,54,137]",1.751,rectangle
,,,,,,,,,,,,,FF,,,,,,,,0.85,,,,,,,,,,,,,,,,,,,,,,6100cb1963ae19d250fe70bc,61036f83445ee569e534158e,2021-07-29_22h19.37.915,Simcolourproject_2stim_asymm_v5,2020.2.10,MacIntel,60,61025ae37ef11b136ea224fe,,,,,,,,,207,76,22,1,0,0,response1disk,,6,31,10,1,0,0,rectangle,31,10,1,0,0,31,10,1,0,0,1,40,200,38,1,,,,,,,,
,,,,,,,,,,,,,FF,,,,,,,,1.435,,,,,,,,,,,,,,,,,,,,,,6100cb1963ae19d250fe70bc,61036f83445ee569e534158e,2021-07-29_22h19.37.915,Simcolourproject_2stim_asymm_v5,2020.2.10,MacIntel,60,61025ae37ef11b136ea224fe,,,,,,,,,4124,-52,-65,1,0,0,response5disk,,3,-1,5,1,0,0,rectangle,-1,5,1,0,0,-1,5,1,0,0,1,41,201,65,1,,,,,,,,
,,,,,,,,,,,,,FF,,,,,,,,0.833,,,,,,,,,,,,,,,,,,,,,,6100cb1963ae19d250fe70bc,61036f83445ee569e534158e,2021-07-29_22h19.37.915,Simcolourproject_2stim_asymm_v5,2020.2.10,MacIntel,60,61025ae37ef11b136ea224fe,,,,,,,,,1626,65,39,1,0,0,response1disk,,6,8,6,1,0,0,rectangle,8,6,1,0,0,8,6,1,0,0,1,42,202,97,1,,,,,,,,
,,,,,,,,,,,,,FF,,,,,,,,0.95,,,,,,,,,,,,,,,,,,,,,,6100cb1963ae19d250fe70bc,61036f83445ee569e534158e,2021-07-29_22h19.37.915,Simcolourproject_2stim_asymm_v5,2020.2.10,MacIntel,60,61025ae37ef11b136ea224fe,,,,,,,,,2486,37,-72,1,0,0,response3disk,,4,2,-5,1,0,0,rectangle,2,-5,1,0,0,2,-5,1,0,0,1,43,203,88,1,,,,,,,,
,,,,,,,,,,,,,FF,,,,,,,,2.234,,,,,,,,,,,,,,,,,,,,,,6100cb1963ae19d250fe70bc,61036f83445ee569e534158e,2021-07-29_22h19.37.915,Simcolourproject_2stim_asymm_v5,2020.2.10,MacIntel,60,61025ae37ef11b136ea224fe,,,,,,,,,3535,-35,-62,1,0,0,response5disk,,3,-2,-3,1,0,0,rectangle,-2,-3,1,0,0,-2,-3,1,0,0,1,44,204,26,1,,,,,,,,
,,,,,,,,,,,,,FF,,,,,,,,1.033,,,,,,,,,,,,,,,,,,,,,,6100cb1963ae19d250fe70bc,61036f83445ee569e534158e,2021-07-29_22h19.37.915,Simcolourproject_2stim_asymm_v5,2020.2.10,MacIntel,60,61025ae37ef11b136ea224fe,,,,,,,,,969,-84,-45,1,0,0,response5disk,,2,-2,-8,1,0,0,rectangle,-2,-8,1,0,0,-2,-8,1,0,0,1,45,205,101,1,,,,,,,,
,,,,,,,,,,,,,FF,,,,,,,,0.767,,,,,,,,,,,,,,,,,,,,,,6100cb1963ae19d250fe70bc,61036f83445ee569e534158e,2021-07-29_22h19.37.915,Simcolourproject_2stim_asymm_v5,2020.2.10,MacIntel,60,61025ae37ef11b136ea224fe,,,,,,,,,100,-68,-45,1,0,0,response5disk,,2,5,5,1,0,0,rectangle,5,5,1,0,0,5,5,1,0,0,1,46,206,118,1,,,,,,,,
,,,,,,,,,,,,,FF,,,,,,,,0.834,,,,,,,,,,,,,,,,,,,,,,6100cb1963ae19d250fe70bc,61036f83445ee569e534158e,2021-07-29_22h19.37.915,Simcolourproject_2stim_asymm_v5,2020.2.10,MacIntel,60,61025ae37ef11b136ea224fe,,,,,,,,,75,-62,-43,1,0,0,response5disk,,2,3,-1,1,0,0,rectangle,3,-1,1,0,0,3,-1,1,0,0,1,47,207,120,1,,,,,,,,
,,,,,,,,,,,,,FF,,,,,,,,1.118,,,,,,,,,,,,,,,,,,,,,,6100cb1963ae19d250fe70bc,61036f83445ee569e534158e,2021-07-29_22h19.37.915,Simcolourproject_2stim_asymm_v5,2020.2.10,MacIntel,60,61025ae37ef11b136ea224fe,,,,,,,,,3398,-60,-24,1,0,0,response5disk,,2,5,0,1,0,0,rectangle,5,0,1,0,0,5,0,1,0,0,1,48,208,55,1,,,,,,,,
,,,,,,,,,,,,,FF,,,,,,,,0.851,,,,,,,,,,,,,,,,,,,,,,6100cb1963ae19d250fe70bc,61036f83445ee569e534158e,2021-07-29_22h19.37.915,Simcolourproject_2stim_asymm_v5,2020.2.10,MacIntel,60,61025ae37ef11b136ea224fe,,,,,,,,,3075,33,46,1,0,0,response1disk,,7,-6,-6,1,0,0,rectangle,-6,-6,1,0,0,-6,-6,1,0,0,1,49,209,80,1,,,,,,,,
,,,,,,,,,,,,,FF,,,,,,,,0.834,,,,,,,,,,,,,,,,,,,,,,6100cb1963ae19d250fe70bc,61036f83445ee569e534158e,2021-07-29_22h19.37.915,Simcolourproject_2stim_asymm_v5,2020.2.10,MacIntel,60,61025ae37ef11b136ea224fe,,,,,,,,,3985,57,79,1,0,0,response1disk,,7,1,1,1,0,0,rectangle,1,1,1,0,0,1,1,1,0,0,1,50,210,129,1,,,,,,,,
,,,,,,,,,,,,,FF,,,,,,,,1.351,,,,,,,,,,,,,,,,,,,,,,6100cb1963ae19d250fe70bc,61036f83445ee569e534158e,2021-07-29_22h19.37.915,Simcolourproject_2stim_asymm_v5,2020.2.10,MacIntel,60,61025ae37ef11b136ea224fe,,,,,,,,,1494,48,87,1,0,0,response1disk,,7,-7,-4,1,0,0,rectangle,-7,-4,1,0,0,-7,-4,1,0,0,1,51,211,152,1,,,,,,,,
,,,,,,,,,,,,,FF,,,,,,,,0.883,,,,,,,,,,,,,,,,,,,,,,6100cb1963ae19d250fe70bc,61036f83445ee569e534158e,2021-07-29_22h19.37.915,Simcolourproject_2stim_asymm_v5,2020.2.10,MacIntel,60,61025ae37ef11b136ea224fe,,,,,,,,,612,26,75,1,0,0,response1disk,,7,-4,1,1,0,0,rectangle,83,-49,1,0,0,2,-5,1,0,0,1,52,212,137,1,,response3disk_3,TRUE,5,5,"[193,61,265,84,317,289,152,234,198,312,200,173,273,213,266,183,98,84,54,137]",2.068,rectangle
,,,,,,,,,,,,,FF,,,,,,,,1.285,,,,,,,,,,,,,,,,,,,,,,6100cb1963ae19d250fe70bc,61036f83445ee569e534158e,2021-07-29_22h19.37.915,Simcolourproject_2stim_asymm_v5,2020.2.10,MacIntel,60,61025ae37ef11b136ea224fe,,,,,,,,,1426,87,41,1,0,0,response1disk,,6,5,-4,1,0,0,rectangle,5,-4,1,0,0,5,-4,1,0,0,1,53,213,83,1,,,,,,,,
,,,,,,,,,,,,,FF,,,,,,,,1.651,,,,,,,,,,,,,,,,,,,,,,6100cb1963ae19d250fe70bc,61036f83445ee569e534158e,2021-07-29_22h19.37.915,Simcolourproject_2stim_asymm_v5,2020.2.10,MacIntel,60,61025ae37ef11b136ea224fe,,,,,,,,,3983,72,34,1,0,0,response1disk,,6,3,-2,1,0,0,rectangle,3,-2,1,0,0,3,-2,1,0,0,1,54,214,115,1,,,,,,,,
,,,,,,,,,,,,,FF,,,,,,,,1.451,,,,,,,,,,,,,,,,,,,,,,6100cb1963ae19d250fe70bc,61036f83445ee569e534158e,2021-07-29_22h19.37.915,Simcolourproject_2stim_asymm_v5,2020.2.10,MacIntel,60,61025ae37ef11b136ea224fe,,,,,,,,,1858,90,45,1,0,0,response1disk,,6,-14,-3,1,0,0,rectangle,-14,-3,1,0,0,-14,-3,1,0,0,1,55,215,72,1,,,,,,,,
,,,,,,,,,,,,,FF,,,,,,,,0.8,,,,,,,,,,,,,,,,,,,,,,6100cb1963ae19d250fe70bc,61036f83445ee569e534158e,2021-07-29_22h19.37.915,Simcolourproject_2stim_asymm_v5,2020.2.10,MacIntel,60,61025ae37ef11b136ea224fe,,,,,,,,,1308,-51,-71,1,0,0,response5disk,,3,5,-3,1,0,0,rectangle,5,-3,1,0,0,5,-3,1,0,0,1,56,216,119,1,,,,,,,,
,,,,,,,,,,,,,FF,,,,,,,,0.934,,,,,,,,,,,,,,,,,,,,,,6100cb1963ae19d250fe70bc,61036f83445ee569e534158e,2021-07-29_22h19.37.915,Simcolourproject_2stim_asymm_v5,2020.2.10,MacIntel,60,61025ae37ef11b136ea224fe,,,,,,,,,3973,-38,-87,1,0,0,response5disk,,3,4,-1,1,0,0,rectangle,4,-1,1,0,0,4,-1,1,0,0,1,57,217,23,1,,,,,,,,
,,,,,,,,,,,,,FF,,,,,,,,0.684,,,,,,,,,,,,,,,,,,,,,,6100cb1963ae19d250fe70bc,61036f83445ee569e534158e,2021-07-29_22h19.37.915,Simcolourproject_2stim_asymm_v5,2020.2.10,MacIntel,60,61025ae37ef11b136ea224fe,,,,,,,,,1574,26,28,1,0,0,response1disk,,7,2,-7,1,0,0,rectangle,2,-7,1,0,0,2,-7,1,0,0,1,58,218,42,1,,,,,,,,
,,,,,,,,,,,,,FF,,,,,,,,0.866,,,,,,,,,,,,,,,,,,,,,,6100cb1963ae19d250fe70bc,61036f83445ee569e534158e,2021-07-29_22h19.37.915,Simcolourproject_2stim_asymm_v5,2020.2.10,MacIntel,60,61025ae37ef11b136ea224fe,,,,,,,,,948,44,51,1,0,0,response1disk,,7,1,-8,1,0,0,rectangle,1,-8,1,0,0,1,-8,1,0,0,1,59,219,122,1,,,,,,,,
,,,,,,,,,,,,,FF,,,,,,,,1.518,,,,,,,,,,,,,,,,,,,,,,6100cb1963ae19d250fe70bc,61036f83445ee569e534158e,2021-07-29_22h19.37.915,Simcolourproject_2stim_asymm_v5,2020.2.10,MacIntel,60,61025ae37ef11b136ea224fe,,,,,,,,,870,28,-94,1,0,0,response3disk,,4,12,-11,1,0,0,rectangle,12,-11,1,0,0,12,-11,1,0,0,1,60,220,68,1,,,,,,,,
,,,,,,,,,,,,,FF,,,,,,,,2.052,,,,,,,,,,,,,,,,,,,,,,6100cb1963ae19d250fe70bc,61036f83445ee569e534158e,2021-07-29_22h19.37.915,Simcolourproject_2stim_asymm_v5,2020.2.10,MacIntel,60,61025ae37ef11b136ea224fe,,,,,,,,,2578,93,54,1,0,0,response1disk,,6,-1,3,1,0,0,rectangle,-1,3,1,0,0,-1,3,1,0,0,1,61,221,79,1,,,,,,,,
,,,,,,,,,,,,,FF,,,,,,,,0.966,,,,,,,,,,,,,,,,,,,,,,6100cb1963ae19d250fe70bc,61036f83445ee569e534158e,2021-07-29_22h19.37.915,Simcolourproject_2stim_asymm_v5,2020.2.10,MacIntel,60,61025ae37ef11b136ea224fe,,,,,,,,,1960,-47,-87,1,0,0,response5disk,,3,23,-10,1,0,0,rectangle,23,-10,1,0,0,23,-10,1,0,0,1,62,222,131,1,,,,,,,,
,,,,,,,,,,,,,FF,,,,,,,,0.616,,,,,,,,,,,,,,,,,,,,,,6100cb1963ae19d250fe70bc,61036f83445ee569e534158e,2021-07-29_22h19.37.915,Simcolourproject_2stim_asymm_v5,2020.2.10,MacIntel,60,61025ae37ef11b136ea224fe,,,,,,,,,3896,18,80,1,0,0,response1disk,,7,2,-1,1,0,0,rectangle,2,-1,1,0,0,2,-1,1,0,0,1,63,223,16,1,,,,,,,,
,,,,,,,,,,,,,FF,,,,,,,,0.582,,,,,,,,,,,,,,,,,,,,,,6100cb1963ae19d250fe70bc,61036f83445ee569e534158e,2021-07-29_22h19.37.915,Simcolourproject_2stim_asymm_v5,2020.2.10,MacIntel,60,61025ae37ef11b136ea224fe,,,,,,,,,275,43,71,1,0,0,response1disk,,7,10,-7,1,0,0,rectangle,10,-7,1,0,0,10,-7,1,0,0,1,64,224,84,1,,,,,,,,
,,,,,,,,,,,,,FF,,,,,,,,1.935,,,,,,,,,,,,,,,,,,,,,,6100cb1963ae19d250fe70bc,61036f83445ee569e534158e,2021-07-29_22h19.37.915,Simcolourproject_2stim_asymm_v5,2020.2.10,MacIntel,60,61025ae37ef11b136ea224fe,,,,,,,,,2796,85,-45,1,0,0,response3disk,,5,-9,6,1,0,0,rectangle,-9,6,1,0,0,-9,6,1,0,0,1,65,225,31,1,,,,,,,,
,,,,,,,,,,,,,FF,,,,,,,,3.284,,,,,,,,,,,,,,,,,,,,,,6100cb1963ae19d250fe70bc,61036f83445ee569e534158e,2021-07-29_22h19.37.915,Simcolourproject_2stim_asymm_v5,2020.2.10,MacIntel,60,61025ae37ef11b136ea224fe,,,,,,,,,1913,62,16,1,0,0,response1disk,,6,0,1,1,0,0,rectangle,0,1,1,0,0,0,1,1,0,0,1,66,226,61,1,,,,,,,,
,,,,,,,,,,,,,FF,,,,,,,,1.401,,,,,,,,,,,,,,,,,,,,,,6100cb1963ae19d250fe70bc,61036f83445ee569e534158e,2021-07-29_22h19.37.915,Simcolourproject_2stim_asymm_v5,2020.2.10,MacIntel,60,61025ae37ef11b136ea224fe,,,,,,,,,378,47,-64,1,0,0,response3disk,,4,4,-8,1,0,0,rectangle,4,-8,1,0,0,4,-8,1,0,0,1,67,227,47,1,,,,,,,,
,,,,,,,,,,,,,FF,,,,,,,,2.868,,,,,,,,,,,,,,,,,,,,,,6100cb1963ae19d250fe70bc,61036f83445ee569e534158e,2021-07-29_22h19.37.915,Simcolourproject_2stim_asymm_v5,2020.2.10,MacIntel,60,61025ae37ef11b136ea224fe,,,,,,,,,2632,30,-93,1,0,0,response3disk,,4,3,-11,1,0,0,rectangle,3,-11,1,0,0,3,-11,1,0,0,1,68,228,143,1,,,,,,,,
,,,,,,,,,,,,,FF,,,,,,,,0.751,,,,,,,,,,,,,,,,,,,,,,6100cb1963ae19d250fe70bc,61036f83445ee569e534158e,2021-07-29_22h19.37.915,Simcolourproject_2stim_asymm_v5,2020.2.10,MacIntel,60,61025ae37ef11b136ea224fe,,,,,,,,,1147,33,63,1,0,0,response1disk,,7,1,6,1,0,0,rectangle,1,6,1,0,0,1,6,1,0,0,1,69,229,34,1,,,,,,,,
,,,,,,,,,,,,,FF,,,,,,,,2.784,,,,,,,,,,,,,,,,,,,,,,6100cb1963ae19d250fe70bc,61036f83445ee569e534158e,2021-07-29_22h19.37.915,Simcolourproject_2stim_asymm_v5,2020.2.10,MacIntel,60,61025ae37ef11b136ea224fe,,,,,,,,,679,43,84,1,0,0,response1disk,,7,-10,-1,1,0,0,rectangle,-10,-1,1,0,0,-10,-1,1,0,0,1,70,230,96,1,,,,,,,,
,,,,,,,,,,,,,FF,,,,,,,,2.135,,,,,,,,,,,,,,,,,,,,,,6100cb1963ae19d250fe70bc,61036f83445ee569e534158e,2021-07-29_22h19.37.915,Simcolourproject_2stim_asymm_v5,2020.2.10,MacIntel,60,61025ae37ef11b136ea224fe,,,,,,,,,457,47,73,1,0,0,response1disk,,7,7,3,1,0,0,rectangle,7,3,1,0,0,7,3,1,0,0,1,71,231,106,1,,,,,,,,
,,,,,,,,,,,,,FF,,,,,,,,3.084,,,,,,,,,,,,,,,,,,,,,,6100cb1963ae19d250fe70bc,61036f83445ee569e534158e,2021-07-29_22h19.37.915,Simcolourproject_2stim_asymm_v5,2020.2.10,MacIntel,60,61025ae37ef11b136ea224fe,,,,,,,,,1126,72,41,1,0,0,response1disk,,6,3,3,1,0,0,rectangle,3,3,1,0,0,3,3,1,0,0,1,72,232,87,1,,,,,,,,
,,,,,,,,,,,,,FF,,,,,,,,1.017,,,,,,,,,,,,,,,,,,,,,,6100cb1963ae19d250fe70bc,61036f83445ee569e534158e,2021-07-29_22h19.37.915,Simcolourproject_2stim_asymm_v5,2020.2.10,MacIntel,60,61025ae37ef11b136ea224fe,,,,,,,,,438,-77,-52,1,0,0,response5disk,,2,-8,-3,1,0,0,rectangle,-66,-43,1,0,0,-18,-4,1,0,0,1,73,233,153,1,,response5disk_3,TRUE,2,6,"[193,61,265,84,317,289,152,234,198,312,200,173,273,213,266,183,98,84,54,137]",3.201,rectangle
,,,,,,,,,,,,,FF,,,,,,,,0.817,,,,,,,,,,,,,,,,,,,,,,6100cb1963ae19d250fe70bc,61036f83445ee569e534158e,2021-07-29_22h19.37.915,Simcolourproject_2stim_asymm_v5,2020.2.10,MacIntel,60,61025ae37ef11b136ea224fe,,,,,,,,,4293,-33,89,1,0,0,response7disk,,0,-5,5,1,0,0,rectangle,-5,5,1,0,0,-5,5,1,0,0,1,74,234,158,1,,,,,,,,
,,,,,,,,,,,,,FF,,,,,,,,1.035,,,,,,,,,,,,,,,,,,,,,,6100cb1963ae19d250fe70bc,61036f83445ee569e534158e,2021-07-29_22h19.37.915,Simcolourproject_2stim_asymm_v5,2020.2.10,MacIntel,60,61025ae37ef11b136ea224fe,,,,,,,,,3660,-63,23,1,0,0,response7disk,,1,1,-6,1,0,0,rectangle,1,-6,1,0,0,1,-6,1,0,0,1,75,235,32,1,,,,,,,,
,,,,,,,,,,,,,FF,,,,,,,,0.701,,,,,,,,,,,,,,,,,,,,,,6100cb1963ae19d250fe70bc,61036f83445ee569e534158e,2021-07-29_22h19.37.915,Simcolourproject_2stim_asymm_v5,2020.2.10,MacIntel,60,61025ae37ef11b136ea224fe,,,,,,,,,4291,54,70,1,0,0,response1disk,,7,-7,-4,1,0,0,rectangle,-7,-4,1,0,0,-7,-4,1,0,0,1,76,236,109,1,,,,,,,,
,,,,,,,,,,,,,FF,,,,,,,,0.685,,,,,,,,,,,,,,,,,,,,,,6100cb1963ae19d250fe70bc,61036f83445ee569e534158e,2021-07-29_22h19.37.915,Simcolourproject_2stim_asymm_v5,2020.2.10,MacIntel,60,61025ae37ef11b136ea224fe,,,,,,,,,2793,93,24,1,0,0,response1disk,,6,18,0,1,0,0,rectangle,18,0,1,0,0,18,0,1,0,0,1,77,237,58,1,,,,,,,,
,,,,,,,,,,,,,FF,,,,,,,,1.251,,,,,,,,,,,,,,,,,,,,,,6100cb1963ae19d250fe70bc,61036f83445ee569e534158e,2021-07-29_22h19.37.915,Simcolourproject_2stim_asymm_v5,2020.2.10,MacIntel,60,61025ae37ef11b136ea224fe,,,,,,,,,4045,37,80,1,0,0,response1disk,,7,0,4,1,0,0,rectangle,0,4,1,0,0,0,4,1,0,0,1,78,238,39,1,,,,,,,,
,,,,,,,,,,,,,FF,,,,,,,,0.799,,,,,,,,,,,,,,,,,,,,,,6100cb1963ae19d250fe70bc,61036f83445ee569e534158e,2021-07-29_22h19.37.915,Simcolourproject_2stim_asymm_v5,2020.2.10,MacIntel,60,61025ae37ef11b136ea224fe,,,,,,,,,2511,42,70,1,0,0,response1disk,,7,6,5,1,0,0,rectangle,6,5,1,0,0,6,5,1,0,0,1,79,239,71,1,,,,,,,,
,,,,,,,,,,,,,FF,,,,,,,,1.467,,,,,,,,,,,,,,,,,,,,,,6100cb1963ae19d250fe70bc,61036f83445ee569e534158e,2021-07-29_22h19.37.915,Simcolourproject_2stim_asymm_v5,2020.2.10,MacIntel,60,61025ae37ef11b136ea224fe,,,,,,,,,82,31,-73,1,0,0,response3disk,,4,-1,-12,1,0,0,rectangle,-1,-12,1,0,0,-1,-12,1,0,0,1,80,240,35,1,,,,,,,,
,,,,,,,,,,,,,FF,,,,,,,,1.833,,,,,,,,,,,,,,,,,,,,,,6100cb1963ae19d250fe70bc,61036f83445ee569e534158e,2021-07-29_22h19.37.915,Simcolourproject_2stim_asymm_v5,2020.2.10,MacIntel,60,61025ae37ef11b136ea224fe,,,,,,,,,3450,31,58,1,0,0,response1disk,,7,0,9,1,0,0,rectangle,0,9,1,0,0,0,9,1,0,0,1,81,241,33,1,,,,,,,,
,,,,,,,,,,,,,FF,,,,,,,,5.986,,,,,,,,,,,,,,,,,,,,,,6100cb1963ae19d250fe70bc,61036f83445ee569e534158e,2021-07-29_22h19.37.915,Simcolourproject_2stim_asymm_v5,2020.2.10,MacIntel,60,61025ae37ef11b136ea224fe,,,,,,,,,2086,36,54,1,0,0,response1disk,,7,-4,-6,1,0,0,rectangle,-4,-6,1,0,0,-4,-6,1,0,0,1,82,242,133,1,,,,,,,,
,,,,,,,,,,,,,FF,,,,,,,,1.033,,,,,,,,,,,,,,,,,,,,,,6100cb1963ae19d250fe70bc,61036f83445ee569e534158e,2021-07-29_22h19.37.915,Simcolourproject_2stim_asymm_v5,2020.2.10,MacIntel,60,61025ae37ef11b136ea224fe,,,,,,,,,3843,-32,69,1,0,0,response7disk,,0,-5,5,1,0,0,rectangle,-5,5,1,0,0,-5,5,1,0,0,1,83,243,157,1,,,,,,,,
,,,,,,,,,,,,,FF,,,,,,,,9.422,,,,,,,,,,,,,,,,,,,,,,6100cb1963ae19d250fe70bc,61036f83445ee569e534158e,2021-07-29_22h19.37.915,Simcolourproject_2stim_asymm_v5,2020.2.10,MacIntel,60,61025ae37ef11b136ea224fe,,,,,,,,,3365,44,-55,1,0,0,response3disk,,4,-7,2,1,0,0,rectangle,-7,2,1,0,0,-7,2,1,0,0,1,84,244,86,1,,,,,,,,
,,,,,,,,,,,,,FF,,,,,,,,1.15,,,,,,,,,,,,,,,,,,,,,,6100cb1963ae19d250fe70bc,61036f83445ee569e534158e,2021-07-29_22h19.37.915,Simcolourproject_2stim_asymm_v5,2020.2.10,MacIntel,60,61025ae37ef11b136ea224fe,,,,,,,,,1059,82,-24,1,0,0,response3disk,,5,13,-2,1,0,0,rectangle,13,-2,1,0,0,13,-2,1,0,0,1,85,245,139,1,,,,,,,,
,,,,,,,,,,,,,FF,,,,,,,,4.937,,,,,,,,,,,,,,,,,,,,,,6100cb1963ae19d250fe70bc,61036f83445ee569e534158e,2021-07-29_22h19.37.915,Simcolourproject_2stim_asymm_v5,2020.2.10,MacIntel,60,61025ae37ef11b136ea224fe,,,,,,,,,2847,84,50,1,0,0,response1disk,,6,10,1,1,0,0,rectangle,10,1,1,0,0,10,1,1,0,0,1,86,246,76,1,,,,,,,,
,,,,,,,,,,,,,FF,,,,,,,,0.667,,,,,,,,,,,,,,,,,,,,,,6100cb1963ae19d250fe70bc,61036f83445ee569e534158e,2021-07-29_22h19.37.915,Simcolourproject_2stim_asymm_v5,2020.2.10,MacIntel,60,61025ae37ef11b136ea224fe,,,,,,,,,1595,30,50,1,0,0,response1disk,,7,-4,-4,1,0,0,rectangle,-4,-4,1,0,0,-4,-4,1,0,0,1,87,247,41,1,,,,,,,,
,,,,,,,,,,,,,FF,,,,,,,,1.183,,,,,,,,,,,,,,,,,,,,,,6100cb1963ae19d250fe70bc,61036f83445ee569e534158e,2021-07-29_22h19.37.915,Simcolourproject_2stim_asymm_v5,2020.2.10,MacIntel,60,61025ae37ef11b136ea224fe,,,,,,,,,554,88,20,1,0,0,response1disk,,6,2,1,1,0,0,rectangle,2,1,1,0,0,2,1,1,0,0,1,88,248,154,1,,,,,,,,
,,,,,,,,,,,,,FF,,,,,,,,2.618,,,,,,,,,,,,,,,,,,,,,,6100cb1963ae19d250fe70bc,61036f83445ee569e534158e,2021-07-29_22h19.37.915,Simcolourproject_2stim_asymm_v5,2020.2.10,MacIntel,60,61025ae37ef11b136ea224fe,,,,,,,,,96,80,-40,1,0,0,response3disk,,5,3,4,1,0,0,rectangle,3,4,1,0,0,3,4,1,0,0,1,89,249,50,1,,,,,,,,
,,,,,,,,,,,,,FF,,,,,,,,1.117,,,,,,,,,,,,,,,,,,,,,,6100cb1963ae19d250fe70bc,61036f83445ee569e534158e,2021-07-29_22h19.37.915,Simcolourproject_2stim_asymm_v5,2020.2.10,MacIntel,60,61025ae37ef11b136ea224fe,,,,,,,,,2046,-50,-66,1,0,0,response5disk,,3,5,-2,1,0,0,rectangle,5,-2,1,0,0,5,-2,1,0,0,1,90,250,151,1,,,,,,,,
,,,,,,,,,,,,,FF,,,,,,,,1.434,,,,,,,,,,,,,,,,,,,,,,6100cb1963ae19d250fe70bc,61036f83445ee569e534158e,2021-07-29_22h19.37.915,Simcolourproject_2stim_asymm_v5,2020.2.10,MacIntel,60,61025ae37ef11b136ea224fe,,,,,,,,,4168,85,40,1,0,0,response1disk,,6,-3,4,1,0,0,rectangle,-3,4,1,0,0,-3,4,1,0,0,1,91,251,123,1,,,,,,,,
,,,,,,,,,,,,,FF,,,,,,,,1.251,,,,,,,,,,,,,,,,,,,,,,6100cb1963ae19d250fe70bc,61036f83445ee569e534158e,2021-07-29_22h19.37.915,Simcolourproject_2stim_asymm_v5,2020.2.10,MacIntel,60,61025ae37ef11b136ea224fe,,,,,,,,,1122,69,-37,1,0,0,response3disk,,5,12,-8,1,0,0,rectangle,12,-8,1,0,0,12,-8,1,0,0,1,92,252,51,1,,,,,,,,
,,,,,,,,,,,,,FF,,,,,,,,0.734,,,,,,,,,,,,,,,,,,,,,,6100cb1963ae19d250fe70bc,61036f83445ee569e534158e,2021-07-29_22h19.37.915,Simcolourproject_2stim_asymm_v5,2020.2.10,MacIntel,60,61025ae37ef11b136ea224fe,,,,,,,,,2331,35,47,1,0,0,response1disk,,7,6,0,1,0,0,rectangle,6,0,1,0,0,6,0,1,0,0,1,93,253,21,1,,,,,,,,
,,,,,,,,,,,,,FF,,,,,,,,0.651,,,,,,,,,,,,,,,,,,,,,,6100cb1963ae19d250fe70bc,61036f83445ee569e534158e,2021-07-29_22h19.37.915,Simcolourproject_2stim_asymm_v5,2020.2.10,MacIntel,60,61025ae37ef11b136ea224fe,,,,,,,,,4248,40,48,1,0,0,response1disk,,7,8,6,1,0,0,rectangle,8,6,1,0,0,8,6,1,0,0,1,94,254,2,1,,,,,,,,
,,,,,,,,,,,,,FF,,,,,,,,1.101,,,,,,,,,,,,,,,,,,,,,,6100cb1963ae19d250fe70bc,61036f83445ee569e534158e,2021-07-29_22h19.37.915,Simcolourproject_2stim_asymm_v5,2020.2.10,MacIntel,60,61025ae37ef11b136ea224fe,,,,,,,,,1738,22,61,1,0,0,response1disk,,7,-19,3,1,0,0,rectangle,-19,3,1,0,0,-19,3,1,0,0,1,95,255,125,1,,,,,,,,
,,,,,,,,,,,,,FF,,,,,,,,1.55,,,,,,,,,,,,,,,,,,,,,,6100cb1963ae19d250fe70bc,61036f83445ee569e534158e,2021-07-29_22h19.37.915,Simcolourproject_2stim_asymm_v5,2020.2.10,MacIntel,60,61025ae37ef11b136ea224fe,,,,,,,,,1235,-58,-83,1,0,0,response5disk,,3,4,-4,1,0,0,rectangle,4,-4,1,0,0,4,-4,1,0,0,1,96,256,105,1,,,,,,,,
,,,,,,,,,,,,,FF,,,,,,,,0.816,,,,,,,,,,,,,,,,,,,,,,6100cb1963ae19d250fe70bc,61036f83445ee569e534158e,2021-07-29_22h19.37.915,Simcolourproject_2stim_asymm_v5,2020.2.10,MacIntel,60,61025ae37ef11b136ea224fe,,,,,,,,,1211,-22,56,1,0,0,response7disk,,0,2,-3,1,0,0,rectangle,2,-3,1,0,0,2,-3,1,0,0,1,97,257,67,1,,,,,,,,
,,,,,,,,,,,,,FF,,,,,,,,2.168,,,,,,,,,,,,,,,,,,,,,,6100cb1963ae19d250fe70bc,61036f83445ee569e534158e,2021-07-29_22h19.37.915,Simcolourproject_2stim_asymm_v5,2020.2.10,MacIntel,60,61025ae37ef11b136ea224fe,,,,,,,,,1274,-43,25,1,0,0,response7disk,,1,-2,3,1,0,0,rectangle,-2,3,1,0,0,-2,3,1,0,0,1,98,258,43,1,,,,,,,,
,,,,,,,,,,,,,FF,,,,,,,,0.701,,,,,,,,,,,,,,,,,,,,,,6100cb1963ae19d250fe70bc,61036f83445ee569e534158e,2021-07-29_22h19.37.915,Simcolourproject_2stim_asymm_v5,2020.2.10,MacIntel,60,61025ae37ef11b136ea224fe,,,,,,,,,2696,82,20,1,0,0,response1disk,,6,11,8,1,0,0,rectangle,11,8,1,0,0,11,8,1,0,0,1,99,259,52,1,,,,,,,,
,,,,,,,,,,,,,FF,,,,,,,,0.984,,,,,,,,,,,,,,,,,,,,,,6100cb1963ae19d250fe70bc,61036f83445ee569e534158e,2021-07-29_22h19.37.915,Simcolourproject_2stim_asymm_v5,2020.2.10,MacIntel,60,61025ae37ef11b136ea224fe,,,,,,,,,3643,38,-70,1,0,0,response3disk,,4,4,-5,1,0,0,rectangle,4,-5,1,0,0,4,-5,1,0,0,1,100,260,18,1,,,,,,,,
,,,,,,,,,,,,,FF,,,,,,,,0.767,,,,,,,,,,,,,,,,,,,,,,6100cb1963ae19d250fe70bc,61036f83445ee569e534158e,2021-07-29_22h19.37.915,Simcolourproject_2stim_asymm_v5,2020.2.10,MacIntel,60,61025ae37ef11b136ea224fe,,,,,,,,,450,31,47,1,0,0,response1disk,,7,4,-6,1,0,0,rectangle,4,-6,1,0,0,4,-6,1,0,0,1,101,261,132,1,,,,,,,,
,,,,,,,,,,,,,FF,,,,,,,,1.268,,,,,,,,,,,,,,,,,,,,,,6100cb1963ae19d250fe70bc,61036f83445ee569e534158e,2021-07-29_22h19.37.915,Simcolourproject_2stim_asymm_v5,2020.2.10,MacIntel,60,61025ae37ef11b136ea224fe,,,,,,,,,1688,38,-76,1,0,0,response3disk,,4,-4,11,1,0,0,rectangle,-4,11,1,0,0,-4,11,1,0,0,1,102,262,99,1,,,,,,,,
,,,,,,,,,,,,,FF,,,,,,,,1.718,,,,,,,,,,,,,,,,,,,,,,6100cb1963ae19d250fe70bc,61036f83445ee569e534158e,2021-07-29_22h19.37.915,Simcolourproject_2stim_asymm_v5,2020.2.10,MacIntel,60,61025ae37ef11b136ea224fe,,,,,,,,,1811,37,90,1,0,0,response1disk,,7,-3,0,1,0,0,rectangle,-3,0,1,0,0,-3,0,1,0,0,1,103,263,29,1,,,,,,,,
,,,,,,,,,,,,,FF,,,,,,,,1.067,,,,,,,,,,,,,,,,,,,,,,6100cb1963ae19d250fe70bc,61036f83445ee569e534158e,2021-07-29_22h19.37.915,Simcolourproject_2stim_asymm_v5,2020.2.10,MacIntel,60,61025ae37ef11b136ea224fe,,,,,,,,,893,57,-76,1,0,0,response3disk,,4,11,-10,1,0,0,rectangle,-27,60,1,0,0,-1,1,1,0,0,1,104,264,66,1,,response7disk_3,TRUE,0,0,"[193,61,265,84,317,289,152,234,198,312,200,173,273,213,266,183,98,84,54,137]",1.45,rectangle
,,,,,,,,,,,,,FF,,,,,,,,0.817,,,,,,,,,,,,,,,,,,,,,,6100cb1963ae19d250fe70bc,61036f83445ee569e534158e,2021-07-29_22h19.37.915,Simcolourproject_2stim_asymm_v5,2020.2.10,MacIntel,60,61025ae37ef11b136ea224fe,,,,,,,,,3362,91,25,1,0,0,response1disk,,6,-9,-3,1,0,0,rectangle,-58,22,1,0,0,-3,-5,1,0,0,1,105,265,113,1,,response7disk_3,TRUE,1,1,"[193,61,265,84,317,289,152,234,198,312,200,173,273,213,266,183,98,84,54,137]",1.718,rectangle
,,,,,,,,,,,,,FF,,,,,,,,0.784,,,,,,,,,,,,,,,,,,,,,,6100cb1963ae19d250fe70bc,61036f83445ee569e534158e,2021-07-29_22h19.37.915,Simcolourproject_2stim_asymm_v5,2020.2.10,MacIntel,60,61025ae37ef11b136ea224fe,,,,,,,,,1714,36,62,1,0,0,response1disk,,7,14,5,1,0,0,rectangle,14,5,1,0,0,14,5,1,0,0,1,106,266,150,1,,,,,,,,
,,,,,,,,,,,,,FF,,,,,,,,0.651,,,,,,,,,,,,,,,,,,,,,,6100cb1963ae19d250fe70bc,61036f83445ee569e534158e,2021-07-29_22h19.37.915,Simcolourproject_2stim_asymm_v5,2020.2.10,MacIntel,60,61025ae37ef11b136ea224fe,,,,,,,,,3010,21,41,1,0,0,response1disk,,7,10,8,1,0,0,rectangle,10,8,1,0,0,10,8,1,0,0,1,107,267,128,1,,,,,,,,
,,,,,,,,,,,,,FF,,,,,,,,1.001,,,,,,,,,,,,,,,,,,,,,,6100cb1963ae19d250fe70bc,61036f83445ee569e534158e,2021-07-29_22h19.37.915,Simcolourproject_2stim_asymm_v5,2020.2.10,MacIntel,60,61025ae37ef11b136ea224fe,,,,,,,,,3201,-49,-84,1,0,0,response5disk,,3,8,2,1,0,0,rectangle,8,2,1,0,0,8,2,1,0,0,1,108,268,6,1,,,,,,,,
,,,,,,,,,,,,,FF,,,,,,,,1.017,,,,,,,,,,,,,,,,,,,,,,6100cb1963ae19d250fe70bc,61036f83445ee569e534158e,2021-07-29_22h19.37.915,Simcolourproject_2stim_asymm_v5,2020.2.10,MacIntel,60,61025ae37ef11b136ea224fe,,,,,,,,,1073,25,78,1,0,0,response1disk,,7,-10,4,1,0,0,rectangle,-10,4,1,0,0,-10,4,1,0,0,1,109,269,156,1,,,,,,,,
,,,,,,,,,,,,,FF,,,,,,,,0.934,,,,,,,,,,,,,,,,,,,,,,6100cb1963ae19d250fe70bc,61036f83445ee569e534158e,2021-07-29_22h19.37.915,Simcolourproject_2stim_asymm_v5,2020.2.10,MacIntel,60,61025ae37ef11b136ea224fe,,,,,,,,,922,24,58,1,0,0,response1disk,,7,-3,-5,1,0,0,rectangle,-3,-5,1,0,0,-3,-5,1,0,0,1,110,270,146,1,,,,,,,,
,,,,,,,,,,,,,FF,,,,,,,,1.201,,,,,,,,,,,,,,,,,,,,,,6100cb1963ae19d250fe70bc,61036f83445ee569e534158e,2021-07-29_22h19.37.915,Simcolourproject_2stim_asymm_v5,2020.2.10,MacIntel,60,61025ae37ef11b136ea224fe,,,,,,,,,1999,32,39,1,0,0,response1disk,,7,6,1,1,0,0,rectangle,6,1,1,0,0,6,1,1,0,0,1,111,271,93,1,,,,,,,,
,,,,,,,,,,,,,FF,,,,,,,,1.116,,,,,,,,,,,,,,,,,,,,,,6100cb1963ae19d250fe70bc,61036f83445ee569e534158e,2021-07-29_22h19.37.915,Simcolourproject_2stim_asymm_v5,2020.2.10,MacIntel,60,61025ae37ef11b136ea224fe,,,,,,,,,3412,50,64,1,0,0,response1disk,,7,1,0,1,0,0,rectangle,-33,-91,1,0,0,-9,-10,1,0,0,1,112,272,15,1,,response5disk_3,TRUE,3,3,"[193,61,265,84,317,289,152,234,198,312,200,173,273,213,266,183,98,84,54,137]",2.284,rectangle
,,,,,,,,,,,,,FF,,,,,,,,0.7,,,,,,,,,,,,,,,,,,,,,,6100cb1963ae19d250fe70bc,61036f83445ee569e534158e,2021-07-29_22h19.37.915,Simcolourproject_2stim_asymm_v5,2020.2.10,MacIntel,60,61025ae37ef11b136ea224fe,,,,,,,,,1474,18,55,1,0,0,response1disk,,7,-3,5,1,0,0,rectangle,-3,5,1,0,0,-3,5,1,0,0,1,113,273,24,1,,,,,,,,
,,,,,,,,,,,,,FF,,,,,,,,8.505,,,,,,,,,,,,,,,,,,,,,,6100cb1963ae19d250fe70bc,61036f83445ee569e534158e,2021-07-29_22h19.37.915,Simcolourproject_2stim_asymm_v5,2020.2.10,MacIntel,60,61025ae37ef11b136ea224fe,,,,,,,,,4316,70,20,1,0,0,response1disk,,6,-7,5,1,0,0,rectangle,-7,5,1,0,0,-7,5,1,0,0,1,114,274,4,1,,,,,,,,
,,,,,,,,,,,,,FF,,,,,,,,1.003,,,,,,,,,,,,,,,,,,,,,,6100cb1963ae19d250fe70bc,61036f83445ee569e534158e,2021-07-29_22h19.37.915,Simcolourproject_2stim_asymm_v5,2020.2.10,MacIntel,60,61025ae37ef11b136ea224fe,,,,,,,,,1352,105,35,1,0,0,response1disk,,6,-2,2,1,0,0,rectangle,-2,2,1,0,0,-2,2,1,0,0,1,115,275,142,1,,,,,,,,
,,,,,,,,,,,,,FF,,,,,,,,1.169,,,,,,,,,,,,,,,,,,,,,,6100cb1963ae19d250fe70bc,61036f83445ee569e534158e,2021-07-29_22h19.37.915,Simcolourproject_2stim_asymm_v5,2020.2.10,MacIntel,60,61025ae37ef11b136ea224fe,,,,,,,,,2122,87,-47,1,0,0,response3disk,,5,-4,-1,1,0,0,rectangle,-4,-1,1,0,0,-4,-1,1,0,0,1,116,276,49,1,,,,,,,,
,,,,,,,,,,,,,FF,,,,,,,,1.068,,,,,,,,,,,,,,,,,,,,,,6100cb1963ae19d250fe70bc,61036f83445ee569e534158e,2021-07-29_22h19.37.915,Simcolourproject_2stim_asymm_v5,2020.2.10,MacIntel,60,61025ae37ef11b136ea224fe,,,,,,,,,1473,59,-42,1,0,0,response3disk,,5,3,4,1,0,0,rectangle,3,4,1,0,0,3,4,1,0,0,1,117,277,81,1,,,,,,,,
,,,,,,,,,,,,,FF,,,,,,,,1.267,,,,,,,,,,,,,,,,,,,,,,6100cb1963ae19d250fe70bc,61036f83445ee569e534158e,2021-07-29_22h19.37.915,Simcolourproject_2stim_asymm_v5,2020.2.10,MacIntel,60,61025ae37ef11b136ea224fe,,,,,,,,,704,-42,-65,1,0,0,response5disk,,3,-1,2,1,0,0,rectangle,-1,2,1,0,0,-1,2,1,0,0,1,118,278,100,1,,,,,,,,
,,,,,,,,,,,,,FF,,,,,,,,2.15,,,,,,,,,,,,,,,,,,,,,,6100cb1963ae19d250fe70bc,61036f83445ee569e534158e,2021-07-29_22h19.37.915,Simcolourproject_2stim_asymm_v5,2020.2.10,MacIntel,60,61025ae37ef11b136ea224fe,,,,,,,,,110,72,17,1,0,0,response1disk,,6,4,11,1,0,0,rectangle,4,11,1,0,0,4,11,1,0,0,1,119,279,11,1,,,,,,,,
,,,,,,,,,,,,,FF,,,,,,,,4.786,,,,,,,,,,,,,,,,,,,,,,6100cb1963ae19d250fe70bc,61036f83445ee569e534158e,2021-07-29_22h19.37.915,Simcolourproject_2stim_asymm_v5,2020.2.10,MacIntel,60,61025ae37ef11b136ea224fe,,,,,,,,,1763,77,25,1,0,0,response1disk,,6,-20,-1,1,0,0,rectangle,-20,-1,1,0,0,-20,-1,1,0,0,1,120,280,27,1,,,,,,,,
,,,,,,,,,,,,,FF,,,,,,,,2.933,,,,,,,,,,,,,,,,,,,,,,6100cb1963ae19d250fe70bc,61036f83445ee569e534158e,2021-07-29_22h19.37.915,Simcolourproject_2stim_asymm_v5,2020.2.10,MacIntel,60,61025ae37ef11b136ea224fe,,,,,,,,,1916,73,-52,1,0,0,response3disk,,5,-2,4,1,0,0,rectangle,-2,4,1,0,0,-2,4,1,0,0,1,121,281,108,1,,,,,,,,
,,,,,,,,,,,,,FF,,,,,,,,3.503,,,,,,,,,,,,,,,,,,,,,,6100cb1963ae19d250fe70bc,61036f83445ee569e534158e,2021-07-29_22h19.37.915,Simcolourproject_2stim_asymm_v5,2020.2.10,MacIntel,60,61025ae37ef11b136ea224fe,,,,,,,,,3992,29,-97,1,0,0,response3disk,,4,1,-10,1,0,0,rectangle,1,-10,1,0,0,1,-10,1,0,0,1,122,282,48,1,,,,,,,,
,,,,,,,,,,,,,FF,,,,,,,,0.767,,,,,,,,,,,,,,,,,,,,,,6100cb1963ae19d250fe70bc,61036f83445ee569e534158e,2021-07-29_22h19.37.915,Simcolourproject_2stim_asymm_v5,2020.2.10,MacIntel,60,61025ae37ef11b136ea224fe,,,,,,,,,625,15,68,1,0,0,response1disk,,7,1,0,1,0,0,rectangle,1,0,1,0,0,1,0,1,0,0,1,123,283,20,1,,,,,,,,
,,,,,,,,,,,,,FF,,,,,,,,1.085,,,,,,,,,,,,,,,,,,,,,,6100cb1963ae19d250fe70bc,61036f83445ee569e534158e,2021-07-29_22h19.37.915,Simcolourproject_2stim_asymm_v5,2020.2.10,MacIntel,60,61025ae37ef11b136ea224fe,,,,,,,,,3095,44,69,1,0,0,response1disk,,7,1,4,1,0,0,rectangle,1,4,1,0,0,1,4,1,0,0,1,124,284,30,1,,,,,,,,
,,,,,,,,,,,,,FF,,,,,,,,31.215,,,,,,,,,,,,,,,,,,,,,,6100cb1963ae19d250fe70bc,61036f83445ee569e534158e,2021-07-29_22h19.37.915,Simcolourproject_2stim_asymm_v5,2020.2.10,MacIntel,60,61025ae37ef11b136ea224fe,,,,,,,,,1872,84,35,1,0,0,response1disk,,6,11,0,1,0,0,rectangle,11,0,1,0,0,11,0,1,0,0,1,125,285,103,1,,,,,,,,
,,,,,,,,,,,,,FF,,,,,,,,0.883,,,,,,,,,,,,,,,,,,,,,,6100cb1963ae19d250fe70bc,61036f83445ee569e534158e,2021-07-29_22h19.37.915,Simcolourproject_2stim_asymm_v5,2020.2.10,MacIntel,60,61025ae37ef11b136ea224fe,,,,,,,,,2542,-70,-20,1,0,0,response5disk,,2,10,0,1,0,0,rectangle,10,0,1,0,0,10,0,1,0,0,1,126,286,36,1,,,,,,,,
,,,,,,,,,,,,,FF,,,,,,,,1.851,,,,,,,,,,,,,,,,,,,,,,6100cb1963ae19d250fe70bc,61036f83445ee569e534158e,2021-07-29_22h19.37.915,Simcolourproject_2stim_asymm_v5,2020.2.10,MacIntel,60,61025ae37ef11b136ea224fe,,,,,,,,,3488,-82,-26,1,0,0,response5disk,,2,5,1,1,0,0,rectangle,5,1,1,0,0,5,1,1,0,0,1,127,287,141,1,,,,,,,,
,,,,,,,,,,,,,FF,,,,,,,,4.119,,,,,,,,,,,,,,,,,,,,,,6100cb1963ae19d250fe70bc,61036f83445ee569e534158e,2021-07-29_22h19.37.915,Simcolourproject_2stim_asymm_v5,2020.2.10,MacIntel,60,61025ae37ef11b136ea224fe,,,,,,,,,2552,73,34,1,0,0,response1disk,,6,-3,0,1,0,0,rectangle,37,80,1,0,0,0,-4,1,0,0,1,128,288,114,1,,response1disk_3,TRUE,7,7,"[193,61,265,84,317,289,152,234,198,312,200,173,273,213,266,183,98,84,54,137]",1.651,rectangle
,,,,,,,,,,,,,FF,,,,,,,,0.801,,,,,,,,,,,,,,,,,,,,,,6100cb1963ae19d250fe70bc,61036f83445ee569e534158e,2021-07-29_22h19.37.915,Simcolourproject_2stim_asymm_v5,2020.2.10,MacIntel,60,61025ae37ef11b136ea224fe,,,,,,,,,4161,-39,77,1,0,0,response7disk,,0,4,9,1,0,0,rectangle,4,9,1,0,0,4,9,1,0,0,1,129,289,149,1,,,,,,,,
,,,,,,,,,,,,,FF,,,,,,,,1.167,,,,,,,,,,,,,,,,,,,,,,6100cb1963ae19d250fe70bc,61036f83445ee569e534158e,2021-07-29_22h19.37.915,Simcolourproject_2stim_asymm_v5,2020.2.10,MacIntel,60,61025ae37ef11b136ea224fe,,,,,,,,,1268,45,45,1,0,0,response1disk,,7,1,5,1,0,0,rectangle,1,5,1,0,0,1,5,1,0,0,1,130,290,59,1,,,,,,,,
,,,,,,,,,,,,,FF,,,,,,,,0.983,,,,,,,,,,,,,,,,,,,,,,6100cb1963ae19d250fe70bc,61036f83445ee569e534158e,2021-07-29_22h19.37.915,Simcolourproject_2stim_asymm_v5,2020.2.10,MacIntel,60,61025ae37ef11b136ea224fe,,,,,,,,,399,71,45,1,0,0,response1disk,,6,10,-3,1,0,0,rectangle,10,-3,1,0,0,10,-3,1,0,0,1,131,291,64,1,,,,,,,,
,,,,,,,,,,,,,FF,,,,,,,,1.418,,,,,,,,,,,,,,,,,,,,,,6100cb1963ae19d250fe70bc,61036f83445ee569e534158e,2021-07-29_22h19.37.915,Simcolourproject_2stim_asymm_v5,2020.2.10,MacIntel,60,61025ae37ef11b136ea224fe,,,,,,,,,2225,37,44,1,0,0,response1disk,,7,3,-2,1,0,0,rectangle,3,-2,1,0,0,3,-2,1,0,0,1,132,292,138,1,,,,,,,,
,,,,,,,,,,,,,FF,,,,,,,,2.2,,,,,,,,,,,,,,,,,,,,,,6100cb1963ae19d250fe70bc,61036f83445ee569e534158e,2021-07-29_22h19.37.915,Simcolourproject_2stim_asymm_v5,2020.2.10,MacIntel,60,61025ae37ef11b136ea224fe,,,,,,,,,2758,38,56,1,0,0,response1disk,,7,-9,-11,1,0,0,rectangle,-9,-11,1,0,0,-9,-11,1,0,0,1,133,293,53,1,,,,,,,,
,,,,,,,,,,,,,FF,,,,,,,,1.033,,,,,,,,,,,,,,,,,,,,,,6100cb1963ae19d250fe70bc,61036f83445ee569e534158e,2021-07-29_22h19.37.915,Simcolourproject_2stim_asymm_v5,2020.2.10,MacIntel,60,61025ae37ef11b136ea224fe,,,,,,,,,2415,77,-46,1,0,0,response3disk,,5,-15,-6,1,0,0,rectangle,-15,-6,1,0,0,-15,-6,1,0,0,1,134,294,91,1,,,,,,,,
,,,,,,,,,,,,,FF,,,,,,,,0.783,,,,,,,,,,,,,,,,,,,,,,6100cb1963ae19d250fe70bc,61036f83445ee569e534158e,2021-07-29_22h19.37.915,Simcolourproject_2stim_asymm_v5,2020.2.10,MacIntel,60,61025ae37ef11b136ea224fe,,,,,,,,,2206,84,-49,1,0,0,response3disk,,5,-6,-4,1,0,0,rectangle,-6,-4,1,0,0,-6,-4,1,0,0,1,135,295,54,1,,,,,,,,
,,,,,,,,,,,,,FF,,,,,,,,1.367,,,,,,,,,,,,,,,,,,,,,,6100cb1963ae19d250fe70bc,61036f83445ee569e534158e,2021-07-29_22h19.37.915,Simcolourproject_2stim_asymm_v5,2020.2.10,MacIntel,60,61025ae37ef11b136ea224fe,,,,,,,,,2019,79,-35,1,0,0,response3disk,,5,7,-10,1,0,0,rectangle,7,-10,1,0,0,7,-10,1,0,0,1,136,296,121,1,,,,,,,,
,,,,,,,,,,,,,FF,,,,,,,,1.317,,,,,,,,,,,,,,,,,,,,,,6100cb1963ae19d250fe70bc,61036f83445ee569e534158e,2021-07-29_22h19.37.915,Simcolourproject_2stim_asymm_v5,2020.2.10,MacIntel,60,61025ae37ef11b136ea224fe,,,,,,,,,28,70,-23,1,0,0,response3disk,,5,-5,5,1,0,0,rectangle,-5,5,1,0,0,-5,5,1,0,0,1,137,297,25,1,,,,,,,,
,,,,,,,,,,,,,FF,,,,,,,,0.483,,,,,,,,,,,,,,,,,,,,,,6100cb1963ae19d250fe70bc,61036f83445ee569e534158e,2021-07-29_22h19.37.915,Simcolourproject_2stim_asymm_v5,2020.2.10,MacIntel,60,61025ae37ef11b136ea224fe,,,,,,,,,410,48,81,1,0,0,response1disk,,7,12,3,1,0,0,rectangle,12,3,1,0,0,12,3,1,0,0,1,138,298,124,1,,,,,,,,
,,,,,,,,,,,,,FF,,,,,,,,0.667,,,,,,,,,,,,,,,,,,,,,,6100cb1963ae19d250fe70bc,61036f83445ee569e534158e,2021-07-29_22h19.37.915,Simcolourproject_2stim_asymm_v5,2020.2.10,MacIntel,60,61025ae37ef11b136ea224fe,,,,,,,,,2315,65,42,1,0,0,response1disk,,6,6,11,1,0,0,rectangle,6,11,1,0,0,6,11,1,0,0,1,139,299,140,1,,,,,,,,
,,,,,,,,,,,,,FF,,,,,,,,0.549,,,,,,,,,,,,,,,,,,,,,,6100cb1963ae19d250fe70bc,61036f83445ee569e534158e,2021-07-29_22h19.37.915,Simcolourproject_2stim_asymm_v5,2020.2.10,MacIntel,60,61025ae37ef11b136ea224fe,,,,,,,,,1048,21,47,1,0,0,response1disk,,7,1,2,1,0,0,rectangle,1,2,1,0,0,1,2,1,0,0,1,140,300,19,1,,,,,,,,
,,,,,,,,,,,,,FF,,,,,,,,1.102,,,,,,,,,,,,,,,,,,,,,,6100cb1963ae19d250fe70bc,61036f83445ee569e534158e,2021-07-29_22h19.37.915,Simcolourproject_2stim_asymm_v5,2020.2.10,MacIntel,60,61025ae37ef11b136ea224fe,,,,,,,,,306,68,38,1,0,0,response1disk,,6,14,8,1,0,0,rectangle,14,8,1,0,0,14,8,1,0,0,1,141,301,73,1,,,,,,,,
