key_resp.keys,key_resp.rt,key_resp_14.keys,key_resp_14.rt,key_resp_15.keys,key_resp_15.rt,key_resp_17.keys,key_resp_17.rt,key_resp_9.keys,key_resp_9.rt,key_resp_10.keys,key_resp_10.rt,practice_comparison,Ecc,mouse_5.x,mouse_5.y,mouse_5.leftButton,mouse_5.midButton,mouse_5.rightButton,mouse_5.clicked_name,pracsimilarity,response_time,mouse_10.x,mouse_10.y,mouse_10.leftButton,mouse_10.midButton,mouse_10.rightButton,mouse_10.clicked_name,mouse_7.x,mouse_7.y,mouse_7.leftButton,mouse_7.midButton,mouse_7.rightButton,mouse_6.x,mouse_6.y,mouse_6.leftButton,mouse_6.midButton,mouse_6.rightButton,duringprac.thisRepN,duringprac.thisTrialN,duringprac.thisN,duringprac.thisIndex,duringprac.ran,participant,session,date,expName,psychopyVersion,OS,frameRate,study_id,mouse_7.clicked_name,catchpracsimilarity,catch_response_time,catchnumberprac,catchtrialorderprac,mouse_6.clicked_name,key_resp_22.keys,key_resp_22.rt,realcomparison,mouse.x,mouse.y,mouse.leftButton,mouse.midButton,mouse.rightButton,mouse.clicked_name,Colour2,similarity,mouse_2.x,mouse_2.y,mouse_2.leftButton,mouse_2.midButton,mouse_2.rightButton,mouse_2.clicked_name,mouse_3.x,mouse_3.y,mouse_3.leftButton,mouse_3.midButton,mouse_3.rightButton,mouse_11.x,mouse_11.y,mouse_11.leftButton,mouse_11.midButton,mouse_11.rightButton,trials_2.thisRepN,trials_2.thisTrialN,trials_2.thisN,trials_2.thisIndex,trials_2.ran,Colour1,mouse_3.clicked_name,catchornah,catchsimilarity,catchnumber,catchtrialorder,catchRT,mouse_11.clicked_name
space,1.229,space,1.7528,space,19.6773,space,8.077,space,1.7569,space,3.4631,146,PF,-37.99998206,-83.33334655,1,0,0,response5disk_5,3,2.2834,10.66668606,-0.666677415,1,0,0,rectangle_8,10.66668606,-0.666677415,1,0,0,10.66668606,-0.666677415,1,0,0,0,0,0,2,1,61008a516a9d46f003cb6555,61036dde9e8d31fb246e275f,2021-07-29_23h11.56.684,Simcolourproject_2stim_asymm_v5,2020.2.10,Win32,60,61025ae37ef11b136ea224fe,,,,,,,,,,,,,,,,,,,,,,,,,,,,,,,,,,,,,,,,,,,,,,
,,,,,,,,,,,,142,PF,59.33335418,-36.0000118,1,0,0,response3disk_5,5,2.4492,-13.33331466,2.666656017,1,0,0,rectangle_8,94.66668856,-34.00001174,1,0,0,8.000019312,3.99998939,1,0,0,0,1,1,4,1,61008a516a9d46f003cb6555,61036dde9e8d31fb246e275f,2021-07-29_23h11.56.684,Simcolourproject_2stim_asymm_v5,2020.2.10,Win32,60,61025ae37ef11b136ea224fe,response3disk_7,5,4.3832,5,"[2,5]",rectangle_4,,,,,,,,,,,,,,,,,,,,,,,,,,,,,,,,,,,,,,,,
,,,,,,,,,,,,35,FF,89.33335507,-42.00001198,1,0,0,response3disk_5,5,1.8365,-1.3333143,1.999989331,1,0,0,rectangle_8,-1.3333143,1.999989331,1,0,0,-1.3333143,1.999989331,1,0,0,0,2,2,3,1,61008a516a9d46f003cb6555,61036dde9e8d31fb246e275f,2021-07-29_23h11.56.684,Simcolourproject_2stim_asymm_v5,2020.2.10,Win32,60,61025ae37ef11b136ea224fe,,,,,,,,,,,,,,,,,,,,,,,,,,,,,,,,,,,,,,,,,,,,,,
,,,,,,,,,,,,148,PF,-51.99998248,-31.333345,1,0,0,response5disk_5,2,1.3494,11.33339343,3.333322704,1,0,0,rectangle_8,11.33339343,3.333322704,1,0,0,11.33339343,3.333322704,1,0,0,0,3,3,1,1,61008a516a9d46f003cb6555,61036dde9e8d31fb246e275f,2021-07-29_23h11.56.684,Simcolourproject_2stim_asymm_v5,2020.2.10,Win32,60,61025ae37ef11b136ea224fe,,,,,,,,,,,,,,,,,,,,,,,,,,,,,,,,,,,,,,,,,,,,,,
,,,,,,,,,,,,94,FF,75.33335465,45.99999064,1,0,0,response1disk_5,6,1.9994,11.33339343,-8.666677654,1,0,0,rectangle_8,75.33335465,-30.00001162,1,0,0,14.00001949,4.666656077,1,0,0,0,4,4,0,1,61008a516a9d46f003cb6555,61036dde9e8d31fb246e275f,2021-07-29_23h11.56.684,Simcolourproject_2stim_asymm_v5,2020.2.10,Win32,60,61025ae37ef11b136ea224fe,response3disk_7,5,1.5323,5,"[2,5]",rectangle_4,,,,,,,,,,,,,,,,,,,,,,,,,,,,,,,,,,,,,,,,
,,,,,,,,,,,,143,FF,43.3333537,91.33330498,1,0,0,response1disk_5,7,1.099,-8.666607161,9.333322883,1,0,0,rectangle_8,-8.666607161,9.333322883,1,0,0,-8.666607161,9.333322883,1,0,0,0,5,5,5,1,61008a516a9d46f003cb6555,61036dde9e8d31fb246e275f,2021-07-29_23h11.56.684,Simcolourproject_2stim_asymm_v5,2020.2.10,Win32,60,61025ae37ef11b136ea224fe,,,,,,,,,,,,,,,,,,,,,,,,,,,,,,,,,,,,,,,,,,,,,,
,,,,,,,,,,,,15,PF,30.00001997,-73.33334625,1,0,0,response3disk_5,4,2.249,10.00001937,7.333322823,1,0,0,rectangle_8,10.00001937,7.333322823,1,0,0,10.00001937,7.333322823,1,0,0,0,6,6,6,1,61008a516a9d46f003cb6555,61036dde9e8d31fb246e275f,2021-07-29_23h11.56.684,Simcolourproject_2stim_asymm_v5,2020.2.10,Win32,60,61025ae37ef11b136ea224fe,,,,,,,,,,,,,,,,,,,,,,,,,,,,,,,,,,,,,,,,,,,,,,
,,,,,,,,,,,,,FF,,,,,,,,1.3325,,,,,,,,,,,,,,,,,,,,,,61008a516a9d46f003cb6555,61036dde9e8d31fb246e275f,2021-07-29_23h11.56.684,Simcolourproject_2stim_asymm_v5,2020.2.10,Win32,60,61025ae37ef11b136ea224fe,,,,,,,space,1.8865,2518,88.0000217,53.33330385,1,0,0,response1disk,,6,-7.333314478,-4.000010848,1,0,0,rectangle,-7.333314478,-4.000010848,1,0,0,-7.333314478,-4.000010848,1,0,0,0,0,0,31,1,,,,,,,,
,,,,,,,,,,,,,FF,,,,,,,,2.0993,,,,,,,,,,,,,,,,,,,,,,61008a516a9d46f003cb6555,61036dde9e8d31fb246e275f,2021-07-29_23h11.56.684,Simcolourproject_2stim_asymm_v5,2020.2.10,Win32,60,61025ae37ef11b136ea224fe,,,,,,,,,2098,-38.66660806,79.33330462,1,0,0,response7disk,,0,8.000019312,2.666656017,1,0,0,rectangle,8.000019312,2.666656017,1,0,0,8.000019312,2.666656017,1,0,0,0,1,1,63,1,,,,,,,,
,,,,,,,,,,,,,FF,,,,,,,,1.4823,,,,,,,,,,,,,,,,,,,,,,61008a516a9d46f003cb6555,61036dde9e8d31fb246e275f,2021-07-29_23h11.56.684,Simcolourproject_2stim_asymm_v5,2020.2.10,Win32,60,61025ae37ef11b136ea224fe,,,,,,,,,2211,40.00002027,69.99999136,1,0,0,response1disk,,7,4.000019193,-2.000010788,1,0,0,rectangle,4.000019193,-2.000010788,1,0,0,4.000019193,-2.000010788,1,0,0,0,2,2,133,1,,,,,,,,
,,,,,,,,,,,,,FF,,,,,,,,1.2327,,,,,,,,,,,,,,,,,,,,,,61008a516a9d46f003cb6555,61036dde9e8d31fb246e275f,2021-07-29_23h11.56.684,Simcolourproject_2stim_asymm_v5,2020.2.10,Win32,60,61025ae37ef11b136ea224fe,,,,,,,,,2460,68.0000211,91.99999201,1,0,0,response1disk,,7,-2.666606983,-2.000010788,1,0,0,rectangle,-2.666606983,-2.000010788,1,0,0,-2.666606983,-2.000010788,1,0,0,0,3,3,23,1,,,,,,,,
,,,,,,,,,,,,,FF,,,,,,,,1.0331,,,,,,,,,,,,,,,,,,,,,,61008a516a9d46f003cb6555,61036dde9e8d31fb246e275f,2021-07-29_23h11.56.684,Simcolourproject_2stim_asymm_v5,2020.2.10,Win32,60,61025ae37ef11b136ea224fe,,,,,,,,,3827,94.66668856,42.66665721,1,0,0,response1disk,,6,-4.666607042,-10.00001103,1,0,0,rectangle,-4.666607042,-10.00001103,1,0,0,-4.666607042,-10.00001103,1,0,0,0,4,4,18,1,,,,,,,,
,,,,,,,,,,,,,FF,,,,,,,,1.4332,,,,,,,,,,,,,,,,,,,,,,61008a516a9d46f003cb6555,61036dde9e8d31fb246e275f,2021-07-29_23h11.56.684,Simcolourproject_2stim_asymm_v5,2020.2.10,Win32,60,61025ae37ef11b136ea224fe,,,,,,,,,3136,56.66668743,72.6666581,1,0,0,response1disk,,7,2.000019133,-1.07288E-05,1,0,0,rectangle,2.000019133,-1.07288E-05,1,0,0,2.000019133,-1.07288E-05,1,0,0,0,5,5,50,1,,,,,,,,
,,,,,,,,,,,,,FF,,,,,,,,1.1484,,,,,,,,,,,,,,,,,,,,,,61008a516a9d46f003cb6555,61036dde9e8d31fb246e275f,2021-07-29_23h11.56.684,Simcolourproject_2stim_asymm_v5,2020.2.10,Win32,60,61025ae37ef11b136ea224fe,,,,,,,,,3427,-64.66660883,27.99999011,1,0,0,response7disk,,1,-3.999981046,-2.666677475,1,0,0,rectangle,-3.999981046,-2.666677475,1,0,0,-3.999981046,-2.666677475,1,0,0,0,6,6,134,1,,,,,,,,
,,,,,,,,,,,,,FF,,,,,,,,2.1861,,,,,,,,,,,,,,,,,,,,,,61008a516a9d46f003cb6555,61036dde9e8d31fb246e275f,2021-07-29_23h11.56.684,Simcolourproject_2stim_asymm_v5,2020.2.10,Win32,60,61025ae37ef11b136ea224fe,,,,,,,,,623,34.00002009,-79.33334643,1,0,0,response3disk,,4,14.66668618,9.999989569,1,0,0,rectangle,14.66668618,9.999989569,1,0,0,14.66668618,9.999989569,1,0,0,0,7,7,57,1,,,,,,,,
,,,,,,,,,,,,,FF,,,,,,,,1.4532,,,,,,,,,,,,,,,,,,,,,,61008a516a9d46f003cb6555,61036dde9e8d31fb246e275f,2021-07-29_23h11.56.684,Simcolourproject_2stim_asymm_v5,2020.2.10,Win32,60,61025ae37ef11b136ea224fe,,,,,,,,,3734,98.00002199,25.99999005,1,0,0,response1disk,,6,-6.666607102,-4.666677535,1,0,0,rectangle,-6.666607102,-4.666677535,1,0,0,-6.666607102,-4.666677535,1,0,0,0,8,8,118,1,,,,,,,,
,,,,,,,,,,,,,FF,,,,,,,,1.1999,,,,,,,,,,,,,,,,,,,,,,61008a516a9d46f003cb6555,61036dde9e8d31fb246e275f,2021-07-29_23h11.56.684,Simcolourproject_2stim_asymm_v5,2020.2.10,Win32,60,61025ae37ef11b136ea224fe,,,,,,,,,1788,98.00002199,-42.66667867,1,0,0,response3disk,,5,8.666685998,-4.000010848,1,0,0,rectangle,8.666685998,-4.000010848,1,0,0,8.666685998,-4.000010848,1,0,0,0,9,9,116,1,,,,,,,,
,,,,,,,,,,,,,FF,,,,,,,,2.0645,,,,,,,,,,,,,,,,,,,,,,61008a516a9d46f003cb6555,61036dde9e8d31fb246e275f,2021-07-29_23h11.56.684,Simcolourproject_2stim_asymm_v5,2020.2.10,Win32,60,61025ae37ef11b136ea224fe,,,,,,,,,4257,90.00002176,41.33330349,1,0,0,response1disk,,6,5.333393256,3.333322704,1,0,0,rectangle,5.333393256,3.333322704,1,0,0,5.333393256,3.333322704,1,0,0,0,10,10,76,1,,,,,,,,
,,,,,,,,,,,,,FF,,,,,,,,1.3497,,,,,,,,,,,,,,,,,,,,,,61008a516a9d46f003cb6555,61036dde9e8d31fb246e275f,2021-07-29_23h11.56.684,Simcolourproject_2stim_asymm_v5,2020.2.10,Win32,60,61025ae37ef11b136ea224fe,,,,,,,,,3398,89.33335507,-46.0000121,1,0,0,response3disk,,5,5.333393256,1.333322644,1,0,0,rectangle,5.333393256,1.333322644,1,0,0,5.333393256,1.333322644,1,0,0,0,11,11,113,1,,,,,,,,
,,,,,,,,,,,,,FF,,,,,,,,1.8196,,,,,,,,,,,,,,,,,,,,,,61008a516a9d46f003cb6555,61036dde9e8d31fb246e275f,2021-07-29_23h11.56.684,Simcolourproject_2stim_asymm_v5,2020.2.10,Win32,60,61025ae37ef11b136ea224fe,,,,,,,,,4263,84.00002158,-47.33334547,1,0,0,response3disk,,5,28.66668659,-8.666677654,1,0,0,rectangle,28.66668659,-8.666677654,1,0,0,28.66668659,-8.666677654,1,0,0,0,12,12,99,1,,,,,,,,
,,,,,,,,,,,,,FF,,,,,,,,1.5863,,,,,,,,,,,,,,,,,,,,,,61008a516a9d46f003cb6555,61036dde9e8d31fb246e275f,2021-07-29_23h11.56.684,Simcolourproject_2stim_asymm_v5,2020.2.10,Win32,60,61025ae37ef11b136ea224fe,,,,,,,,,358,88.0000217,45.99999064,1,0,0,response1disk,,6,3.333393196,5.99998945,1,0,0,rectangle,3.333393196,5.99998945,1,0,0,3.333393196,5.99998945,1,0,0,0,13,13,78,1,,,,,,,,
,,,,,,,,,,,,,FF,,,,,,,,1.5534,,,,,,,,,,,,,,,,,,,,,,61008a516a9d46f003cb6555,61036dde9e8d31fb246e275f,2021-07-29_23h11.56.684,Simcolourproject_2stim_asymm_v5,2020.2.10,Win32,60,61025ae37ef11b136ea224fe,,,,,,,,,2368,-51.33331579,-36.0000118,1,0,0,response5disk,,2,10.00001937,-4.000010848,1,0,0,rectangle,10.00001937,-4.000010848,1,0,0,10.00001937,-4.000010848,1,0,0,0,14,14,136,1,,,,,,,,
,,,,,,,,,,,,,FF,,,,,,,,1.4322,,,,,,,,,,,,,,,,,,,,,,61008a516a9d46f003cb6555,61036dde9e8d31fb246e275f,2021-07-29_23h11.56.684,Simcolourproject_2stim_asymm_v5,2020.2.10,Win32,60,61025ae37ef11b136ea224fe,,,,,,,,,2849,33.33339409,-66.66667938,1,0,0,response3disk,,4,23.33339379,0.666655958,1,0,0,rectangle,23.33339379,0.666655958,1,0,0,23.33339379,0.666655958,1,0,0,0,15,15,53,1,,,,,,,,
,,,,,,,,,,,,,FF,,,,,,,,1.0159,,,,,,,,,,,,,,,,,,,,,,61008a516a9d46f003cb6555,61036dde9e8d31fb246e275f,2021-07-29_23h11.56.684,Simcolourproject_2stim_asymm_v5,2020.2.10,Win32,60,61025ae37ef11b136ea224fe,,,,,,,,,3824,-56.66660859,-31.333345,1,0,0,response5disk,,2,9.333393375,3.99998939,1,0,0,rectangle,9.333393375,3.99998939,1,0,0,9.333393375,3.99998939,1,0,0,0,16,16,2,1,,,,,,,,
,,,,,,,,,,,,,FF,,,,,,,,2.6196,,,,,,,,,,,,,,,,,,,,,,61008a516a9d46f003cb6555,61036dde9e8d31fb246e275f,2021-07-29_23h11.56.684,Simcolourproject_2stim_asymm_v5,2020.2.10,Win32,60,61025ae37ef11b136ea224fe,,,,,,,,,2475,40.00002027,-77.33334637,1,0,0,response3disk,,4,11.33339343,11.99998963,1,0,0,rectangle,-42.66660817,-83.33334655,1,0,0,8.666685998,7.333322823,1,0,0,0,17,17,109,1,,response5disk_3,TRUE,3,3,"[80,319,188,201,279,18,121,78,135,46,90,198,84,269,26,114,227,58,276,191]",2.1198,rectangle
,,,,,,,,,,,,,FF,,,,,,,,1.8616,,,,,,,,,,,,,,,,,,,,,,61008a516a9d46f003cb6555,61036dde9e8d31fb246e275f,2021-07-29_23h11.56.684,Simcolourproject_2stim_asymm_v5,2020.2.10,Win32,60,61025ae37ef11b136ea224fe,,,,,,,,,2445,77.33335471,-27.33334488,1,0,0,response3disk,,5,10.66668606,1.333322644,1,0,0,rectangle,10.66668606,1.333322644,1,0,0,10.66668606,1.333322644,1,0,0,0,18,18,44,1,,,,,,,,
,,,,,,,,,,,,,FF,,,,,,,,0.9991,,,,,,,,,,,,,,,,,,,,,,61008a516a9d46f003cb6555,61036dde9e8d31fb246e275f,2021-07-29_23h11.56.684,Simcolourproject_2stim_asymm_v5,2020.2.10,Win32,60,61025ae37ef11b136ea224fe,,,,,,,,,2397,36.66668683,-80.6666798,1,0,0,response3disk,,4,6.666685939,5.99998945,1,0,0,rectangle,6.666685939,5.99998945,1,0,0,6.666685939,5.99998945,1,0,0,0,19,19,43,1,,,,,,,,
,,,,,,,,,,,,,FF,,,,,,,,1.0653,,,,,,,,,,,,,,,,,,,,,,61008a516a9d46f003cb6555,61036dde9e8d31fb246e275f,2021-07-29_23h11.56.684,Simcolourproject_2stim_asymm_v5,2020.2.10,Win32,60,61025ae37ef11b136ea224fe,,,,,,,,,2394,43.3333537,-72.00001287,1,0,0,response3disk,,4,6.666685939,9.999989569,1,0,0,rectangle,6.666685939,9.999989569,1,0,0,6.666685939,9.999989569,1,0,0,0,20,20,115,1,,,,,,,,
,,,,,,,,,,,,,FF,,,,,,,,0.6364,,,,,,,,,,,,,,,,,,,,,,61008a516a9d46f003cb6555,61036dde9e8d31fb246e275f,2021-07-29_23h11.56.684,Simcolourproject_2stim_asymm_v5,2020.2.10,Win32,60,61025ae37ef11b136ea224fe,,,,,,,,,2074,36.00002015,-76.66667968,1,0,0,response3disk,,4,-11.3333146,1.999989331,1,0,0,rectangle,-11.3333146,1.999989331,1,0,0,-11.3333146,1.999989331,1,0,0,0,21,21,107,1,,,,,,,,
,,,,,,,,,,,,,FF,,,,,,,,1.3156,,,,,,,,,,,,,,,,,,,,,,61008a516a9d46f003cb6555,61036dde9e8d31fb246e275f,2021-07-29_23h11.56.684,Simcolourproject_2stim_asymm_v5,2020.2.10,Win32,60,61025ae37ef11b136ea224fe,,,,,,,,,3230,78.0000214,-30.66667831,1,0,0,response3disk,,5,14.00001949,4.666656077,1,0,0,rectangle,14.00001949,4.666656077,1,0,0,14.00001949,4.666656077,1,0,0,0,22,22,92,1,,,,,,,,
,,,,,,,,,,,,,FF,,,,,,,,1.0037,,,,,,,,,,,,,,,,,,,,,,61008a516a9d46f003cb6555,61036dde9e8d31fb246e275f,2021-07-29_23h11.56.684,Simcolourproject_2stim_asymm_v5,2020.2.10,Win32,60,61025ae37ef11b136ea224fe,,,,,,,,,926,67.33335441,-28.66667825,1,0,0,response3disk,,5,20.66668636,0.666655958,1,0,0,rectangle,20.66668636,0.666655958,1,0,0,20.66668636,0.666655958,1,0,0,0,23,23,20,1,,,,,,,,
,,,,,,,,,,,,,FF,,,,,,,,1.3159,,,,,,,,,,,,,,,,,,,,,,61008a516a9d46f003cb6555,61036dde9e8d31fb246e275f,2021-07-29_23h11.56.684,Simcolourproject_2stim_asymm_v5,2020.2.10,Win32,60,61025ae37ef11b136ea224fe,,,,,,,,,3183,70.00002116,-45.33334541,1,0,0,response3disk,,5,14.00001949,3.333322704,1,0,0,rectangle,14.00001949,3.333322704,1,0,0,14.00001949,3.333322704,1,0,0,0,24,24,84,1,,,,,,,,
,,,,,,,,,,,,,FF,,,,,,,,0.9159,,,,,,,,,,,,,,,,,,,,,,61008a516a9d46f003cb6555,61036dde9e8d31fb246e275f,2021-07-29_23h11.56.684,Simcolourproject_2stim_asymm_v5,2020.2.10,Win32,60,61025ae37ef11b136ea224fe,,,,,,,,,3584,-69.99998301,-40.66667861,1,0,0,response5disk,,2,-5.999981105,-4.000010848,1,0,0,rectangle,-63.33331615,-34.00001174,1,0,0,16.66668624,-1.07288E-05,1,0,0,0,25,25,102,1,,response5disk_3,TRUE,2,2,"[80,319,188,201,279,18,121,78,135,46,90,198,84,269,26,114,227,58,276,191]",1.6486,rectangle
,,,,,,,,,,,,,FF,,,,,,,,1.4993,,,,,,,,,,,,,,,,,,,,,,61008a516a9d46f003cb6555,61036dde9e8d31fb246e275f,2021-07-29_23h11.56.684,Simcolourproject_2stim_asymm_v5,2020.2.10,Win32,60,61025ae37ef11b136ea224fe,,,,,,,,,3333,-65.33331621,33.33330325,1,0,0,response7disk,,1,-9.999981225,7.99998951,1,0,0,rectangle,-9.999981225,7.99998951,1,0,0,-9.999981225,7.99998951,1,0,0,0,26,26,55,1,,,,,,,,
,,,,,,,,,,,,,FF,,,,,,,,1.1827,,,,,,,,,,,,,,,,,,,,,,61008a516a9d46f003cb6555,61036dde9e8d31fb246e275f,2021-07-29_23h11.56.684,Simcolourproject_2stim_asymm_v5,2020.2.10,Win32,60,61025ae37ef11b136ea224fe,,,,,,,,,1073,56.00002074,-32.00001168,1,0,0,response3disk,,5,11.33339343,-2.000010788,1,0,0,rectangle,11.33339343,-2.000010788,1,0,0,11.33339343,-2.000010788,1,0,0,0,27,27,87,1,,,,,,,,
,,,,,,,,,,,,,FF,,,,,,,,1.1663,,,,,,,,,,,,,,,,,,,,,,61008a516a9d46f003cb6555,61036dde9e8d31fb246e275f,2021-07-29_23h11.56.684,Simcolourproject_2stim_asymm_v5,2020.2.10,Win32,60,61025ae37ef11b136ea224fe,,,,,,,,,4001,-32.66660788,-62.66667926,1,0,0,response5disk,,3,6.666685939,-1.333344102,1,0,0,rectangle,6.666685939,-1.333344102,1,0,0,6.666685939,-1.333344102,1,0,0,0,28,28,101,1,,,,,,,,
,,,,,,,,,,,,,FF,,,,,,,,0.949,,,,,,,,,,,,,,,,,,,,,,61008a516a9d46f003cb6555,61036dde9e8d31fb246e275f,2021-07-29_23h11.56.684,Simcolourproject_2stim_asymm_v5,2020.2.10,Win32,60,61025ae37ef11b136ea224fe,,,,,,,,,3164,-60.66660871,-32.00001168,1,0,0,response5disk,,2,4.666685879,-4.000010848,1,0,0,rectangle,4.666685879,-4.000010848,1,0,0,4.666685879,-4.000010848,1,0,0,0,29,29,36,1,,,,,,,,
,,,,,,,,,,,,,FF,,,,,,,,1.5659,,,,,,,,,,,,,,,,,,,,,,61008a516a9d46f003cb6555,61036dde9e8d31fb246e275f,2021-07-29_23h11.56.684,Simcolourproject_2stim_asymm_v5,2020.2.10,Win32,60,61025ae37ef11b136ea224fe,,,,,,,,,3564,-63.33331615,-40.66667861,1,0,0,response5disk,,2,14.00001949,1.999989331,1,0,0,rectangle,14.00001949,1.999989331,1,0,0,14.00001949,1.999989331,1,0,0,0,30,30,47,1,,,,,,,,
,,,,,,,,,,,,,FF,,,,,,,,1.4322,,,,,,,,,,,,,,,,,,,,,,61008a516a9d46f003cb6555,61036dde9e8d31fb246e275f,2021-07-29_23h11.56.684,Simcolourproject_2stim_asymm_v5,2020.2.10,Win32,60,61025ae37ef11b136ea224fe,,,,,,,,,2690,34.00002009,-83.33334655,1,0,0,response3disk,,4,12.66668612,4.666656077,1,0,0,rectangle,12.66668612,4.666656077,1,0,0,12.66668612,4.666656077,1,0,0,0,31,31,139,1,,,,,,,,
,,,,,,,,,,,,,FF,,,,,,,,1.5667,,,,,,,,,,,,,,,,,,,,,,61008a516a9d46f003cb6555,61036dde9e8d31fb246e275f,2021-07-29_23h11.56.684,Simcolourproject_2stim_asymm_v5,2020.2.10,Win32,60,61025ae37ef11b136ea224fe,,,,,,,,,3443,94.00002187,-44.66667873,1,0,0,response3disk,,5,-8.666607161,5.333322763,1,0,0,rectangle,-8.666607161,5.333322763,1,0,0,-8.666607161,5.333322763,1,0,0,0,32,32,27,1,,,,,,,,
,,,,,,,,,,,,,FF,,,,,,,,1.0991,,,,,,,,,,,,,,,,,,,,,,61008a516a9d46f003cb6555,61036dde9e8d31fb246e275f,2021-07-29_23h11.56.684,Simcolourproject_2stim_asymm_v5,2020.2.10,Win32,60,61025ae37ef11b136ea224fe,,,,,,,,,2585,97.33335531,21.99998993,1,0,0,response1disk,,6,-10.66660722,-12.66667777,1,0,0,rectangle,-10.66660722,-12.66667777,1,0,0,-10.66660722,-12.66667777,1,0,0,0,33,33,29,1,,,,,,,,
,,,,,,,,,,,,,FF,,,,,,,,0.8828,,,,,,,,,,,,,,,,,,,,,,61008a516a9d46f003cb6555,61036dde9e8d31fb246e275f,2021-07-29_23h11.56.684,Simcolourproject_2stim_asymm_v5,2020.2.10,Win32,60,61025ae37ef11b136ea224fe,,,,,,,,,2615,-73.33331645,-29.33334494,1,0,0,response5disk,,2,0.66668576,0.666655958,1,0,0,rectangle,0.66668576,0.666655958,1,0,0,0.66668576,0.666655958,1,0,0,0,34,34,150,1,,,,,,,,
,,,,,,,,,,,,,FF,,,,,,,,0.8833,,,,,,,,,,,,,,,,,,,,,,61008a516a9d46f003cb6555,61036dde9e8d31fb246e275f,2021-07-29_23h11.56.684,Simcolourproject_2stim_asymm_v5,2020.2.10,Win32,60,61025ae37ef11b136ea224fe,,,,,,,,,860,-21.3333149,-74.66667962,1,0,0,response5disk,,3,0.66668576,-0.666677415,1,0,0,rectangle,0.66668576,-0.666677415,1,0,0,0.66668576,-0.666677415,1,0,0,0,35,35,131,1,,,,,,,,
,,,,,,,,,,,,,FF,,,,,,,,3.3815,,,,,,,,,,,,,,,,,,,,,,61008a516a9d46f003cb6555,61036dde9e8d31fb246e275f,2021-07-29_23h11.56.684,Simcolourproject_2stim_asymm_v5,2020.2.10,Win32,60,61025ae37ef11b136ea224fe,,,,,,,,,1560,38.00002021,-71.33334619,1,0,0,response3disk,,4,-1.999980986,1.999989331,1,0,0,rectangle,-1.999980986,1.999989331,1,0,0,-1.999980986,1.999989331,1,0,0,0,36,36,38,1,,,,,,,,
,,,,,,,,,,,,,FF,,,,,,,,0.9329,,,,,,,,,,,,,,,,,,,,,,61008a516a9d46f003cb6555,61036dde9e8d31fb246e275f,2021-07-29_23h11.56.684,Simcolourproject_2stim_asymm_v5,2020.2.10,Win32,60,61025ae37ef11b136ea224fe,,,,,,,,,1675,-60.66660871,-32.00001168,1,0,0,response5disk,,2,-5.333314419,-4.000010848,1,0,0,rectangle,-5.333314419,-4.000010848,1,0,0,-5.333314419,-4.000010848,1,0,0,0,37,37,106,1,,,,,,,,
,,,,,,,,,,,,,FF,,,,,,,,1.0875,,,,,,,,,,,,,,,,,,,,,,61008a516a9d46f003cb6555,61036dde9e8d31fb246e275f,2021-07-29_23h11.56.684,Simcolourproject_2stim_asymm_v5,2020.2.10,Win32,60,61025ae37ef11b136ea224fe,,,,,,,,,2781,-72.66660907,-35.33334512,1,0,0,response5disk,,2,1.9735E-05,-0.666677415,1,0,0,rectangle,1.9735E-05,-0.666677415,1,0,0,1.9735E-05,-0.666677415,1,0,0,0,38,38,60,1,,,,,,,,
,,,,,,,,,,,,,FF,,,,,,,,1.2161,,,,,,,,,,,,,,,,,,,,,,61008a516a9d46f003cb6555,61036dde9e8d31fb246e275f,2021-07-29_23h11.56.684,Simcolourproject_2stim_asymm_v5,2020.2.10,Win32,60,61025ae37ef11b136ea224fe,,,,,,,,,477,-29.33331513,-75.33334631,1,0,0,response5disk,,3,4.666685879,4.666656077,1,0,0,rectangle,4.666685879,4.666656077,1,0,0,4.666685879,4.666656077,1,0,0,0,39,39,8,1,,,,,,,,
,,,,,,,,,,,,,FF,,,,,,,,1.1496,,,,,,,,,,,,,,,,,,,,,,61008a516a9d46f003cb6555,61036dde9e8d31fb246e275f,2021-07-29_23h11.56.684,Simcolourproject_2stim_asymm_v5,2020.2.10,Win32,60,61025ae37ef11b136ea224fe,,,,,,,,,4317,25.33339385,-76.66667968,1,0,0,response3disk,,4,10.66668606,3.333322704,1,0,0,rectangle,10.66668606,3.333322704,1,0,0,10.66668606,3.333322704,1,0,0,0,40,40,137,1,,,,,,,,
,,,,,,,,,,,,,FF,,,,,,,,0.9158,,,,,,,,,,,,,,,,,,,,,,61008a516a9d46f003cb6555,61036dde9e8d31fb246e275f,2021-07-29_23h11.56.684,Simcolourproject_2stim_asymm_v5,2020.2.10,Win32,60,61025ae37ef11b136ea224fe,,,,,,,,,313,74.00002128,-41.33334529,1,0,0,response3disk,,5,22.00001973,7.333322823,1,0,0,rectangle,22.00001973,7.333322823,1,0,0,22.00001973,7.333322823,1,0,0,0,41,41,132,1,,,,,,,,
,,,,,,,,,,,,,FF,,,,,,,,0.9827,,,,,,,,,,,,,,,,,,,,,,61008a516a9d46f003cb6555,61036dde9e8d31fb246e275f,2021-07-29_23h11.56.684,Simcolourproject_2stim_asymm_v5,2020.2.10,Win32,60,61025ae37ef11b136ea224fe,,,,,,,,,1442,-75.3333165,-34.66667843,1,0,0,response5disk,,2,14.00001949,6.666656137,1,0,0,rectangle,14.00001949,6.666656137,1,0,0,14.00001949,6.666656137,1,0,0,0,42,42,9,1,,,,,,,,
,,,,,,,,,,,,,FF,,,,,,,,0.8316,,,,,,,,,,,,,,,,,,,,,,61008a516a9d46f003cb6555,61036dde9e8d31fb246e275f,2021-07-29_23h11.56.684,Simcolourproject_2stim_asymm_v5,2020.2.10,Win32,60,61025ae37ef11b136ea224fe,,,,,,,,,3579,-33.33331525,-102.0000138,1,0,0,response5disk,,3,2.000019133,-5.333344221,1,0,0,rectangle,2.000019133,-5.333344221,1,0,0,2.000019133,-5.333344221,1,0,0,0,43,43,156,1,,,,,,,,
,,,,,,,,,,,,,FF,,,,,,,,1.0496,,,,,,,,,,,,,,,,,,,,,,61008a516a9d46f003cb6555,61036dde9e8d31fb246e275f,2021-07-29_23h11.56.684,Simcolourproject_2stim_asymm_v5,2020.2.10,Win32,60,61025ae37ef11b136ea224fe,,,,,,,,,1717,33.33339409,-68.00001276,1,0,0,response3disk,,4,-10.66660722,-3.333344162,1,0,0,rectangle,-10.66660722,-3.333344162,1,0,0,-10.66660722,-3.333344162,1,0,0,0,44,44,126,1,,,,,,,,
,,,,,,,,,,,,,FF,,,,,,,,1.2488,,,,,,,,,,,,,,,,,,,,,,61008a516a9d46f003cb6555,61036dde9e8d31fb246e275f,2021-07-29_23h11.56.684,Simcolourproject_2stim_asymm_v5,2020.2.10,Win32,60,61025ae37ef11b136ea224fe,,,,,,,,,2656,28.66668659,-62.00001258,1,0,0,response3disk,,4,-6.666607102,3.333322704,1,0,0,rectangle,32.66668671,-75.33334631,1,0,0,10.66668606,7.99998951,1,0,0,0,45,45,72,1,,response3disk_3,TRUE,4,4,"[80,319,188,201,279,18,121,78,135,46,90,198,84,269,26,114,227,58,276,191]",1.3168,rectangle
,,,,,,,,,,,,,FF,,,,,,,,2.3655,,,,,,,,,,,,,,,,,,,,,,61008a516a9d46f003cb6555,61036dde9e8d31fb246e275f,2021-07-29_23h11.56.684,Simcolourproject_2stim_asymm_v5,2020.2.10,Win32,60,61025ae37ef11b136ea224fe,,,,,,,,,3163,-35.999982,-88.00001335,1,0,0,response5disk,,3,16.66668624,-3.333344162,1,0,0,rectangle,16.66668624,-3.333344162,1,0,0,16.66668624,-3.333344162,1,0,0,0,46,46,54,1,,,,,,,,
,,,,,,,,,,,,,FF,,,,,,,,1.6663,,,,,,,,,,,,,,,,,,,,,,61008a516a9d46f003cb6555,61036dde9e8d31fb246e275f,2021-07-29_23h11.56.684,Simcolourproject_2stim_asymm_v5,2020.2.10,Win32,60,61025ae37ef11b136ea224fe,,,,,,,,,2830,-30.66660782,-90.00001341,1,0,0,response5disk,,3,22.66668642,3.333322704,1,0,0,rectangle,22.66668642,3.333322704,1,0,0,22.66668642,3.333322704,1,0,0,0,47,47,3,1,,,,,,,,
,,,,,,,,,,,,,FF,,,,,,,,0.9162,,,,,,,,,,,,,,,,,,,,,,61008a516a9d46f003cb6555,61036dde9e8d31fb246e275f,2021-07-29_23h11.56.684,Simcolourproject_2stim_asymm_v5,2020.2.10,Win32,60,61025ae37ef11b136ea224fe,,,,,,,,,2625,67.33335441,-37.33334517,1,0,0,response3disk,,5,28.00001991,-5.333344221,1,0,0,rectangle,28.00001991,-5.333344221,1,0,0,28.00001991,-5.333344221,1,0,0,0,48,48,89,1,,,,,,,,
,,,,,,,,,,,,,FF,,,,,,,,1.1161,,,,,,,,,,,,,,,,,,,,,,61008a516a9d46f003cb6555,61036dde9e8d31fb246e275f,2021-07-29_23h11.56.684,Simcolourproject_2stim_asymm_v5,2020.2.10,Win32,60,61025ae37ef11b136ea224fe,,,,,,,,,4313,74.00002128,-28.66667825,1,0,0,response3disk,,5,20.66668636,-8.666677654,1,0,0,rectangle,20.66668636,-8.666677654,1,0,0,20.66668636,-8.666677654,1,0,0,0,49,49,108,1,,,,,,,,
,,,,,,,,,,,,,FF,,,,,,,,1.5993,,,,,,,,,,,,,,,,,,,,,,61008a516a9d46f003cb6555,61036dde9e8d31fb246e275f,2021-07-29_23h11.56.684,Simcolourproject_2stim_asymm_v5,2020.2.10,Win32,60,61025ae37ef11b136ea224fe,,,,,,,,,2516,42.66668701,-73.33334625,1,0,0,response3disk,,4,2.000019133,-6.666677594,1,0,0,rectangle,2.000019133,-6.666677594,1,0,0,2.000019133,-6.666677594,1,0,0,0,50,50,82,1,,,,,,,,
,,,,,,,,,,,,,FF,,,,,,,,1.8327,,,,,,,,,,,,,,,,,,,,,,61008a516a9d46f003cb6555,61036dde9e8d31fb246e275f,2021-07-29_23h11.56.684,Simcolourproject_2stim_asymm_v5,2020.2.10,Win32,60,61025ae37ef11b136ea224fe,,,,,,,,,2881,-44.66660823,-81.33334649,1,0,0,response5disk,,3,2.000019133,6.666656137,1,0,0,rectangle,2.000019133,6.666656137,1,0,0,2.000019133,6.666656137,1,0,0,0,51,51,21,1,,,,,,,,
,,,,,,,,,,,,,FF,,,,,,,,1.9495,,,,,,,,,,,,,,,,,,,,,,61008a516a9d46f003cb6555,61036dde9e8d31fb246e275f,2021-07-29_23h11.56.684,Simcolourproject_2stim_asymm_v5,2020.2.10,Win32,60,61025ae37ef11b136ea224fe,,,,,,,,,3306,50.66668725,-90.00001341,1,0,0,response3disk,,4,-9.333314538,-6.000010908,1,0,0,rectangle,-9.333314538,-6.000010908,1,0,0,-9.333314538,-6.000010908,1,0,0,0,52,52,52,1,,,,,,,,
,,,,,,,,,,,,,FF,,,,,,,,0.9002,,,,,,,,,,,,,,,,,,,,,,61008a516a9d46f003cb6555,61036dde9e8d31fb246e275f,2021-07-29_23h11.56.684,Simcolourproject_2stim_asymm_v5,2020.2.10,Win32,60,61025ae37ef11b136ea224fe,,,,,,,,,3977,-24.66660764,-90.00001341,1,0,0,response5disk,,3,-0.666606923,-13.33334446,1,0,0,rectangle,-0.666606923,-13.33334446,1,0,0,-0.666606923,-13.33334446,1,0,0,0,53,53,25,1,,,,,,,,
,,,,,,,,,,,,,FF,,,,,,,,0.9494,,,,,,,,,,,,,,,,,,,,,,61008a516a9d46f003cb6555,61036dde9e8d31fb246e275f,2021-07-29_23h11.56.684,Simcolourproject_2stim_asymm_v5,2020.2.10,Win32,60,61025ae37ef11b136ea224fe,,,,,,,,,4325,58.66668749,108.6666592,1,0,0,response1disk,,7,-4.666607042,5.333322763,1,0,0,rectangle,-4.666607042,5.333322763,1,0,0,-4.666607042,5.333322763,1,0,0,0,54,54,157,1,,,,,,,,
,,,,,,,,,,,,,FF,,,,,,,,0.9493,,,,,,,,,,,,,,,,,,,,,,61008a516a9d46f003cb6555,61036dde9e8d31fb246e275f,2021-07-29_23h11.56.684,Simcolourproject_2stim_asymm_v5,2020.2.10,Win32,60,61025ae37ef11b136ea224fe,,,,,,,,,1273,80.66668814,39.99999046,1,0,0,response1disk,,6,-6.666607102,-4.000010848,1,0,0,rectangle,-6.666607102,-4.000010848,1,0,0,-6.666607102,-4.000010848,1,0,0,0,55,55,88,1,,,,,,,,
,,,,,,,,,,,,,FF,,,,,,,,0.883,,,,,,,,,,,,,,,,,,,,,,61008a516a9d46f003cb6555,61036dde9e8d31fb246e275f,2021-07-29_23h11.56.684,Simcolourproject_2stim_asymm_v5,2020.2.10,Win32,60,61025ae37ef11b136ea224fe,,,,,,,,,3152,-59.33331603,-32.66667837,1,0,0,response5disk,,2,0.66668576,-1.07288E-05,1,0,0,rectangle,0.66668576,-1.07288E-05,1,0,0,0.66668576,-1.07288E-05,1,0,0,0,56,56,13,1,,,,,,,,
,,,,,,,,,,,,,FF,,,,,,,,1.2543,,,,,,,,,,,,,,,,,,,,,,61008a516a9d46f003cb6555,61036dde9e8d31fb246e275f,2021-07-29_23h11.56.684,Simcolourproject_2stim_asymm_v5,2020.2.10,Win32,60,61025ae37ef11b136ea224fe,,,,,,,,,885,-41.99998218,92.6666587,1,0,0,response7disk,,0,-5.999981105,-4.000010848,1,0,0,rectangle,-46.66660829,101.3333053,1,0,0,14.66668618,-3.333344162,1,0,0,0,57,57,79,1,,response7disk_3,TRUE,0,0,"[80,319,188,201,279,18,121,78,135,46,90,198,84,269,26,114,227,58,276,191]",1.2369,rectangle
,,,,,,,,,,,,,FF,,,,,,,,1.1329,,,,,,,,,,,,,,,,,,,,,,61008a516a9d46f003cb6555,61036dde9e8d31fb246e275f,2021-07-29_23h11.56.684,Simcolourproject_2stim_asymm_v5,2020.2.10,Win32,60,61025ae37ef11b136ea224fe,,,,,,,,,1991,74.66668797,-34.00001174,1,0,0,response3disk,,5,15.33339355,7.99998951,1,0,0,rectangle,15.33339355,7.99998951,1,0,0,15.33339355,7.99998951,1,0,0,0,58,58,61,1,,,,,,,,
,,,,,,,,,,,,,FF,,,,,,,,0.8826,,,,,,,,,,,,,,,,,,,,,,61008a516a9d46f003cb6555,61036dde9e8d31fb246e275f,2021-07-29_23h11.56.684,Simcolourproject_2stim_asymm_v5,2020.2.10,Win32,60,61025ae37ef11b136ea224fe,,,,,,,,,3777,-54.66660853,31.99999022,1,0,0,response7disk,,1,-9.333314538,-3.333344162,1,0,0,rectangle,-9.333314538,-3.333344162,1,0,0,-9.333314538,-3.333344162,1,0,0,0,59,59,77,1,,,,,,,,
,,,,,,,,,,,,,FF,,,,,,,,0.9662,,,,,,,,,,,,,,,,,,,,,,61008a516a9d46f003cb6555,61036dde9e8d31fb246e275f,2021-07-29_23h11.56.684,Simcolourproject_2stim_asymm_v5,2020.2.10,Win32,60,61025ae37ef11b136ea224fe,,,,,,,,,1433,-67.33331627,-32.66667837,1,0,0,response5disk,,2,-17.33331478,-1.333344102,1,0,0,rectangle,-17.33331478,-1.333344102,1,0,0,-17.33331478,-1.333344102,1,0,0,0,60,60,15,1,,,,,,,,
,,,,,,,,,,,,,FF,,,,,,,,0.8164,,,,,,,,,,,,,,,,,,,,,,61008a516a9d46f003cb6555,61036dde9e8d31fb246e275f,2021-07-29_23h11.56.684,Simcolourproject_2stim_asymm_v5,2020.2.10,Win32,60,61025ae37ef11b136ea224fe,,,,,,,,,1453,-66.66660889,37.33330337,1,0,0,response7disk,,1,3.333393196,5.333322763,1,0,0,rectangle,3.333393196,5.333322763,1,0,0,3.333393196,5.333322763,1,0,0,0,61,61,104,1,,,,,,,,
,,,,,,,,,,,,,FF,,,,,,,,1.3994,,,,,,,,,,,,,,,,,,,,,,61008a516a9d46f003cb6555,61036dde9e8d31fb246e275f,2021-07-29_23h11.56.684,Simcolourproject_2stim_asymm_v5,2020.2.10,Win32,60,61025ae37ef11b136ea224fe,,,,,,,,,2912,102.6666888,-44.66667873,1,0,0,response3disk,,5,23.33339379,1.999989331,1,0,0,rectangle,23.33339379,1.999989331,1,0,0,23.33339379,1.999989331,1,0,0,0,62,62,153,1,,,,,,,,
,,,,,,,,,,,,,FF,,,,,,,,1.7823,,,,,,,,,,,,,,,,,,,,,,61008a516a9d46f003cb6555,61036dde9e8d31fb246e275f,2021-07-29_23h11.56.684,Simcolourproject_2stim_asymm_v5,2020.2.10,Win32,60,61025ae37ef11b136ea224fe,,,,,,,,,1657,70.66668785,31.33330319,1,0,0,response1disk,,6,9.333393375,6.666656137,1,0,0,rectangle,9.333393375,6.666656137,1,0,0,9.333393375,6.666656137,1,0,0,0,63,63,19,1,,,,,,,,
,,,,,,,,,,,,,FF,,,,,,,,0.7993,,,,,,,,,,,,,,,,,,,,,,61008a516a9d46f003cb6555,61036dde9e8d31fb246e275f,2021-07-29_23h11.56.684,Simcolourproject_2stim_asymm_v5,2020.2.10,Win32,60,61025ae37ef11b136ea224fe,,,,,,,,,2994,-69.33331633,-36.66667849,1,0,0,response5disk,,2,16.66668624,9.999989569,1,0,0,rectangle,16.66668624,9.999989569,1,0,0,16.66668624,9.999989569,1,0,0,0,64,64,117,1,,,,,,,,
,,,,,,,,,,,,,FF,,,,,,,,1.6655,,,,,,,,,,,,,,,,,,,,,,61008a516a9d46f003cb6555,61036dde9e8d31fb246e275f,2021-07-29_23h11.56.684,Simcolourproject_2stim_asymm_v5,2020.2.10,Win32,60,61025ae37ef11b136ea224fe,,,,,,,,,316,74.00002128,-32.66667837,1,0,0,response3disk,,5,20.66668636,-2.000010788,1,0,0,rectangle,20.66668636,-2.000010788,1,0,0,20.66668636,-2.000010788,1,0,0,0,65,65,85,1,,,,,,,,
,,,,,,,,,,,,,FF,,,,,,,,1.0999,,,,,,,,,,,,,,,,,,,,,,61008a516a9d46f003cb6555,61036dde9e8d31fb246e275f,2021-07-29_23h11.56.684,Simcolourproject_2stim_asymm_v5,2020.2.10,Win32,60,61025ae37ef11b136ea224fe,,,,,,,,,3327,81.33335483,-36.0000118,1,0,0,response3disk,,5,15.33339355,-6.000010908,1,0,0,rectangle,15.33339355,-6.000010908,1,0,0,15.33339355,-6.000010908,1,0,0,0,66,66,41,1,,,,,,,,
,,,,,,,,,,,,,FF,,,,,,,,1.3833,,,,,,,,,,,,,,,,,,,,,,61008a516a9d46f003cb6555,61036dde9e8d31fb246e275f,2021-07-29_23h11.56.684,Simcolourproject_2stim_asymm_v5,2020.2.10,Win32,60,61025ae37ef11b136ea224fe,,,,,,,,,1579,40.00002027,-87.33334666,1,0,0,response3disk,,4,14.66668618,5.99998945,1,0,0,rectangle,14.66668618,5.99998945,1,0,0,14.66668618,5.99998945,1,0,0,0,67,67,26,1,,,,,,,,
,,,,,,,,,,,,,FF,,,,,,,,0.9829,,,,,,,,,,,,,,,,,,,,,,61008a516a9d46f003cb6555,61036dde9e8d31fb246e275f,2021-07-29_23h11.56.684,Simcolourproject_2stim_asymm_v5,2020.2.10,Win32,60,61025ae37ef11b136ea224fe,,,,,,,,,3087,60.66668755,90.66665864,1,0,0,response1disk,,7,-2.666606983,-2.666677475,1,0,0,rectangle,-2.666606983,-2.666677475,1,0,0,-2.666606983,-2.666677475,1,0,0,0,68,68,22,1,,,,,,,,
,,,,,,,,,,,,,FF,,,,,,,,0.8164,,,,,,,,,,,,,,,,,,,,,,61008a516a9d46f003cb6555,61036dde9e8d31fb246e275f,2021-07-29_23h11.56.684,Simcolourproject_2stim_asymm_v5,2020.2.10,Win32,60,61025ae37ef11b136ea224fe,,,,,,,,,3993,-20.66660752,69.99999136,1,0,0,response7disk,,0,6.666685939,8.666656196,1,0,0,rectangle,6.666685939,8.666656196,1,0,0,6.666685939,8.666656196,1,0,0,0,69,69,122,1,,,,,,,,
,,,,,,,,,,,,,FF,,,,,,,,0.7826,,,,,,,,,,,,,,,,,,,,,,61008a516a9d46f003cb6555,61036dde9e8d31fb246e275f,2021-07-29_23h11.56.684,Simcolourproject_2stim_asymm_v5,2020.2.10,Win32,60,61025ae37ef11b136ea224fe,,,,,,,,,543,-17.99998146,59.33330403,1,0,0,response7disk,,0,11.33339343,-8.000010967,1,0,0,rectangle,11.33339343,-8.000010967,1,0,0,11.33339343,-8.000010967,1,0,0,0,70,70,103,1,,,,,,,,
,,,,,,,,,,,,,FF,,,,,,,,1.4487,,,,,,,,,,,,,,,,,,,,,,61008a516a9d46f003cb6555,61036dde9e8d31fb246e275f,2021-07-29_23h11.56.684,Simcolourproject_2stim_asymm_v5,2020.2.10,Win32,60,61025ae37ef11b136ea224fe,,,,,,,,,3575,76.00002134,-42.66667867,1,0,0,response3disk,,5,10.00001937,7.99998951,1,0,0,rectangle,10.00001937,7.99998951,1,0,0,10.00001937,7.99998951,1,0,0,0,71,71,119,1,,,,,,,,
,,,,,,,,,,,,,FF,,,,,,,,0.9502,,,,,,,,,,,,,,,,,,,,,,61008a516a9d46f003cb6555,61036dde9e8d31fb246e275f,2021-07-29_23h11.56.684,Simcolourproject_2stim_asymm_v5,2020.2.10,Win32,60,61025ae37ef11b136ea224fe,,,,,,,,,2721,-39.33331543,-65.33334601,1,0,0,response5disk,,3,-2.666606983,-11.3333444,1,0,0,rectangle,-2.666606983,-11.3333444,1,0,0,-2.666606983,-11.3333444,1,0,0,0,72,72,130,1,,,,,,,,
,,,,,,,,,,,,,FF,,,,,,,,0.6667,,,,,,,,,,,,,,,,,,,,,,61008a516a9d46f003cb6555,61036dde9e8d31fb246e275f,2021-07-29_23h11.56.684,Simcolourproject_2stim_asymm_v5,2020.2.10,Win32,60,61025ae37ef11b136ea224fe,,,,,,,,,440,-58.66660865,-30.00001162,1,0,0,response5disk,,2,12.66668612,2.666656017,1,0,0,rectangle,12.66668612,2.666656017,1,0,0,12.66668612,2.666656017,1,0,0,0,73,73,98,1,,,,,,,,
,,,,,,,,,,,,,FF,,,,,,,,0.8693,,,,,,,,,,,,,,,,,,,,,,61008a516a9d46f003cb6555,61036dde9e8d31fb246e275f,2021-07-29_23h11.56.684,Simcolourproject_2stim_asymm_v5,2020.2.10,Win32,60,61025ae37ef11b136ea224fe,,,,,,,,,3513,-30.66660782,-80.6666798,1,0,0,response5disk,,3,15.33339355,-4.666677535,1,0,0,rectangle,15.33339355,-4.666677535,1,0,0,15.33339355,-4.666677535,1,0,0,0,74,74,73,1,,,,,,,,
,,,,,,,,,,,,,FF,,,,,,,,1.0499,,,,,,,,,,,,,,,,,,,,,,61008a516a9d46f003cb6555,61036dde9e8d31fb246e275f,2021-07-29_23h11.56.684,Simcolourproject_2stim_asymm_v5,2020.2.10,Win32,60,61025ae37ef11b136ea224fe,,,,,,,,,1917,34.66668677,-68.00001276,1,0,0,response3disk,,4,2.000019133,5.333322763,1,0,0,rectangle,2.000019133,5.333322763,1,0,0,2.000019133,5.333322763,1,0,0,0,75,75,158,1,,,,,,,,
,,,,,,,,,,,,,FF,,,,,,,,1.6655,,,,,,,,,,,,,,,,,,,,,,61008a516a9d46f003cb6555,61036dde9e8d31fb246e275f,2021-07-29_23h11.56.684,Simcolourproject_2stim_asymm_v5,2020.2.10,Win32,60,61025ae37ef11b136ea224fe,,,,,,,,,145,30.66668665,-87.33334666,1,0,0,response3disk,,4,-1.3333143,3.99998939,1,0,0,rectangle,-1.3333143,3.99998939,1,0,0,-1.3333143,3.99998939,1,0,0,0,76,76,4,1,,,,,,,,
,,,,,,,,,,,,,FF,,,,,,,,1.6655,,,,,,,,,,,,,,,,,,,,,,61008a516a9d46f003cb6555,61036dde9e8d31fb246e275f,2021-07-29_23h11.56.684,Simcolourproject_2stim_asymm_v5,2020.2.10,Win32,60,61025ae37ef11b136ea224fe,,,,,,,,,728,-33.33331525,-74.66667962,1,0,0,response5disk,,3,4.666685879,-3.333344162,1,0,0,rectangle,84.66668826,31.99999022,1,0,0,8.666685998,-0.666677415,1,0,0,0,77,77,123,1,,response1disk_3,TRUE,6,6,"[80,319,188,201,279,18,121,78,135,46,90,198,84,269,26,114,227,58,276,191]",1.6158,rectangle
,,,,,,,,,,,,,FF,,,,,,,,1.8659,,,,,,,,,,,,,,,,,,,,,,61008a516a9d46f003cb6555,61036dde9e8d31fb246e275f,2021-07-29_23h11.56.684,Simcolourproject_2stim_asymm_v5,2020.2.10,Win32,60,61025ae37ef11b136ea224fe,,,,,,,,,3009,14.66668618,-66.66667938,1,0,0,response3disk,,4,4.000019193,-5.333344221,1,0,0,rectangle,4.000019193,-5.333344221,1,0,0,4.000019193,-5.333344221,1,0,0,0,78,78,51,1,,,,,,,,
,,,,,,,,,,,,,FF,,,,,,,,2.2154,,,,,,,,,,,,,,,,,,,,,,61008a516a9d46f003cb6555,61036dde9e8d31fb246e275f,2021-07-29_23h11.56.684,Simcolourproject_2stim_asymm_v5,2020.2.10,Win32,60,61025ae37ef11b136ea224fe,,,,,,,,,2618,28.00001991,-104.0000138,1,0,0,response3disk,,4,17.33339361,-2.666677475,1,0,0,rectangle,51.33335394,77.33330456,1,0,0,9.333393375,-1.07288E-05,1,0,0,0,79,79,71,1,,response1disk_3,TRUE,7,7,"[80,319,188,201,279,18,121,78,135,46,90,198,84,269,26,114,227,58,276,191]",2.0153,rectangle
,,,,,,,,,,,,,FF,,,,,,,,0.7493,,,,,,,,,,,,,,,,,,,,,,61008a516a9d46f003cb6555,61036dde9e8d31fb246e275f,2021-07-29_23h11.56.684,Simcolourproject_2stim_asymm_v5,2020.2.10,Win32,60,61025ae37ef11b136ea224fe,,,,,,,,,3630,-27.33331507,59.99999106,1,0,0,response7disk,,0,-2.666606983,-1.333344102,1,0,0,rectangle,-2.666606983,-1.333344102,1,0,0,-2.666606983,-1.333344102,1,0,0,0,80,80,121,1,,,,,,,,
,,,,,,,,,,,,,FF,,,,,,,,1.8197,,,,,,,,,,,,,,,,,,,,,,61008a516a9d46f003cb6555,61036dde9e8d31fb246e275f,2021-07-29_23h11.56.684,Simcolourproject_2stim_asymm_v5,2020.2.10,Win32,60,61025ae37ef11b136ea224fe,,,,,,,,,1240,37.33339421,-85.33334661,1,0,0,response3disk,,4,15.33339355,-6.666677594,1,0,0,rectangle,15.33339355,-6.666677594,1,0,0,15.33339355,-6.666677594,1,0,0,0,81,81,42,1,,,,,,,,
,,,,,,,,,,,,,FF,,,,,,,,0.9028,,,,,,,,,,,,,,,,,,,,,,61008a516a9d46f003cb6555,61036dde9e8d31fb246e275f,2021-07-29_23h11.56.684,Simcolourproject_2stim_asymm_v5,2020.2.10,Win32,60,61025ae37ef11b136ea224fe,,,,,,,,,493,86.66668832,-34.00001174,1,0,0,response3disk,,5,24.00001979,6.666656137,1,0,0,rectangle,24.00001979,6.666656137,1,0,0,24.00001979,6.666656137,1,0,0,0,82,82,127,1,,,,,,,,
,,,,,,,,,,,,,FF,,,,,,,,1.454,,,,,,,,,,,,,,,,,,,,,,61008a516a9d46f003cb6555,61036dde9e8d31fb246e275f,2021-07-29_23h11.56.684,Simcolourproject_2stim_asymm_v5,2020.2.10,Win32,60,61025ae37ef11b136ea224fe,,,,,,,,,1660,-39.99998212,-77.33334637,1,0,0,response5disk,,3,-3.999981046,-2.666677475,1,0,0,rectangle,-82.66660937,-36.66667849,1,0,0,11.33339343,3.333322704,1,0,0,0,83,83,93,1,,response5disk_3,TRUE,2,2,"[80,319,188,201,279,18,121,78,135,46,90,198,84,269,26,114,227,58,276,191]",2.0327,rectangle
,,,,,,,,,,,,,FF,,,,,,,,1.1163,,,,,,,,,,,,,,,,,,,,,,61008a516a9d46f003cb6555,61036dde9e8d31fb246e275f,2021-07-29_23h11.56.684,Simcolourproject_2stim_asymm_v5,2020.2.10,Win32,60,61025ae37ef11b136ea224fe,,,,,,,,,1227,-69.33331633,36.66665703,1,0,0,response7disk,,1,-7.999981165,7.333322823,1,0,0,rectangle,-7.999981165,7.333322823,1,0,0,-7.999981165,7.333322823,1,0,0,0,84,84,147,1,,,,,,,,
,,,,,,,,,,,,,FF,,,,,,,,0.9873,,,,,,,,,,,,,,,,,,,,,,61008a516a9d46f003cb6555,61036dde9e8d31fb246e275f,2021-07-29_23h11.56.684,Simcolourproject_2stim_asymm_v5,2020.2.10,Win32,60,61025ae37ef11b136ea224fe,,,,,,,,,1306,-65.33331621,29.33330313,1,0,0,response7disk,,1,-9.999981225,13.99998969,1,0,0,rectangle,-9.999981225,13.99998969,1,0,0,-9.999981225,13.99998969,1,0,0,0,85,85,49,1,,,,,,,,
,,,,,,,,,,,,,FF,,,,,,,,1.3329,,,,,,,,,,,,,,,,,,,,,,61008a516a9d46f003cb6555,61036dde9e8d31fb246e275f,2021-07-29_23h11.56.684,Simcolourproject_2stim_asymm_v5,2020.2.10,Win32,60,61025ae37ef11b136ea224fe,,,,,,,,,1181,77.33335471,35.99999034,1,0,0,response1disk,,6,-9.333314538,1.999989331,1,0,0,rectangle,-9.333314538,1.999989331,1,0,0,-9.333314538,1.999989331,1,0,0,0,86,86,138,1,,,,,,,,
,,,,,,,,,,,,,FF,,,,,,,,1.216,,,,,,,,,,,,,,,,,,,,,,61008a516a9d46f003cb6555,61036dde9e8d31fb246e275f,2021-07-29_23h11.56.684,Simcolourproject_2stim_asymm_v5,2020.2.10,Win32,60,61025ae37ef11b136ea224fe,,,,,,,,,4260,80.66668814,39.33330343,1,0,0,response1disk,,6,2.66668582,5.333322763,1,0,0,rectangle,2.66668582,5.333322763,1,0,0,2.66668582,5.333322763,1,0,0,0,87,87,17,1,,,,,,,,
,,,,,,,,,,,,,FF,,,,,,,,1.1162,,,,,,,,,,,,,,,,,,,,,,61008a516a9d46f003cb6555,61036dde9e8d31fb246e275f,2021-07-29_23h11.56.684,Simcolourproject_2stim_asymm_v5,2020.2.10,Win32,60,61025ae37ef11b136ea224fe,,,,,,,,,1239,78.66668808,-26.0000115,1,0,0,response3disk,,5,-3.999981046,-1.333344102,1,0,0,rectangle,-3.999981046,-1.333344102,1,0,0,-3.999981046,-1.333344102,1,0,0,0,88,88,125,1,,,,,,,,
,,,,,,,,,,,,,FF,,,,,,,,1.1494,,,,,,,,,,,,,,,,,,,,,,61008a516a9d46f003cb6555,61036dde9e8d31fb246e275f,2021-07-29_23h11.56.684,Simcolourproject_2stim_asymm_v5,2020.2.10,Win32,60,61025ae37ef11b136ea224fe,,,,,,,,,176,98.66668868,35.33330331,1,0,0,response1disk,,6,17.33339361,4.666656077,1,0,0,rectangle,-62.66660877,25.33330301,1,0,0,-3.999981046,4.666656077,1,0,0,0,89,89,95,1,,response7disk_3,TRUE,1,1,"[80,319,188,201,279,18,121,78,135,46,90,198,84,269,26,114,227,58,276,191]",1.3999,rectangle
,,,,,,,,,,,,,FF,,,,,,,,1.6329,,,,,,,,,,,,,,,,,,,,,,61008a516a9d46f003cb6555,61036dde9e8d31fb246e275f,2021-07-29_23h11.56.684,Simcolourproject_2stim_asymm_v5,2020.2.10,Win32,60,61025ae37ef11b136ea224fe,,,,,,,,,4079,86.66668832,-30.66667831,1,0,0,response3disk,,5,0.66668576,5.99998945,1,0,0,rectangle,0.66668576,5.99998945,1,0,0,0.66668576,5.99998945,1,0,0,0,90,90,80,1,,,,,,,,
,,,,,,,,,,,,,FF,,,,,,,,1.1666,,,,,,,,,,,,,,,,,,,,,,61008a516a9d46f003cb6555,61036dde9e8d31fb246e275f,2021-07-29_23h11.56.684,Simcolourproject_2stim_asymm_v5,2020.2.10,Win32,60,61025ae37ef11b136ea224fe,,,,,,,,,2596,38.00002021,-69.33334613,1,0,0,response3disk,,4,0.66668576,-1.333344102,1,0,0,rectangle,0.66668576,-1.333344102,1,0,0,0.66668576,-1.333344102,1,0,0,0,91,91,112,1,,,,,,,,
,,,,,,,,,,,,,FF,,,,,,,,1.4168,,,,,,,,,,,,,,,,,,,,,,61008a516a9d46f003cb6555,61036dde9e8d31fb246e275f,2021-07-29_23h11.56.684,Simcolourproject_2stim_asymm_v5,2020.2.10,Win32,60,61025ae37ef11b136ea224fe,,,,,,,,,2726,-59.99998271,-29.33334494,1,0,0,response5disk,,2,26.00001985,2.666656017,1,0,0,rectangle,26.00001985,2.666656017,1,0,0,26.00001985,2.666656017,1,0,0,0,92,92,10,1,,,,,,,,
,,,,,,,,,,,,,FF,,,,,,,,1.4031,,,,,,,,,,,,,,,,,,,,,,61008a516a9d46f003cb6555,61036dde9e8d31fb246e275f,2021-07-29_23h11.56.684,Simcolourproject_2stim_asymm_v5,2020.2.10,Win32,60,61025ae37ef11b136ea224fe,,,,,,,,,212,86.66668832,-35.33334512,1,0,0,response3disk,,5,10.66668606,2.666656017,1,0,0,rectangle,10.66668606,2.666656017,1,0,0,10.66668606,2.666656017,1,0,0,0,93,93,0,1,,,,,,,,
,,,,,,,,,,,,,FF,,,,,,,,1.3657,,,,,,,,,,,,,,,,,,,,,,61008a516a9d46f003cb6555,61036dde9e8d31fb246e275f,2021-07-29_23h11.56.684,Simcolourproject_2stim_asymm_v5,2020.2.10,Win32,60,61025ae37ef11b136ea224fe,,,,,,,,,4010,62.66668761,29.99999017,1,0,0,response1disk,,6,-2.666606983,2.666656017,1,0,0,rectangle,-2.666606983,2.666656017,1,0,0,-2.666606983,2.666656017,1,0,0,0,94,94,12,1,,,,,,,,
,,,,,,,,,,,,,FF,,,,,,,,1.7328,,,,,,,,,,,,,,,,,,,,,,61008a516a9d46f003cb6555,61036dde9e8d31fb246e275f,2021-07-29_23h11.56.684,Simcolourproject_2stim_asymm_v5,2020.2.10,Win32,60,61025ae37ef11b136ea224fe,,,,,,,,,1585,36.66668683,-58.00001246,1,0,0,response3disk,,4,24.66668648,4.666656077,1,0,0,rectangle,24.66668648,4.666656077,1,0,0,24.66668648,4.666656077,1,0,0,0,95,95,155,1,,,,,,,,
,,,,,,,,,,,,,FF,,,,,,,,0.7329,,,,,,,,,,,,,,,,,,,,,,61008a516a9d46f003cb6555,61036dde9e8d31fb246e275f,2021-07-29_23h11.56.684,Simcolourproject_2stim_asymm_v5,2020.2.10,Win32,60,61025ae37ef11b136ea224fe,,,,,,,,,4217,40.66668695,77.33330456,1,0,0,response1disk,,7,-5.333314419,2.666656017,1,0,0,rectangle,-5.333314419,2.666656017,1,0,0,-5.333314419,2.666656017,1,0,0,0,96,96,111,1,,,,,,,,
,,,,,,,,,,,,,FF,,,,,,,,1.0965,,,,,,,,,,,,,,,,,,,,,,61008a516a9d46f003cb6555,61036dde9e8d31fb246e275f,2021-07-29_23h11.56.684,Simcolourproject_2stim_asymm_v5,2020.2.10,Win32,60,61025ae37ef11b136ea224fe,,,,,,,,,266,-27.99998176,-75.33334631,1,0,0,response5disk,,3,6.666685939,5.99998945,1,0,0,rectangle,6.666685939,5.99998945,1,0,0,6.666685939,5.99998945,1,0,0,0,97,97,97,1,,,,,,,,
,,,,,,,,,,,,,FF,,,,,,,,0.9498,,,,,,,,,,,,,,,,,,,,,,61008a516a9d46f003cb6555,61036dde9e8d31fb246e275f,2021-07-29_23h11.56.684,Simcolourproject_2stim_asymm_v5,2020.2.10,Win32,60,61025ae37ef11b136ea224fe,,,,,,,,,192,-83.99998343,37.33330337,1,0,0,response7disk,,1,-1.3333143,7.99998951,1,0,0,rectangle,-1.3333143,7.99998951,1,0,0,-1.3333143,7.99998951,1,0,0,0,98,98,59,1,,,,,,,,
,,,,,,,,,,,,,FF,,,,,,,,0.7209,,,,,,,,,,,,,,,,,,,,,,61008a516a9d46f003cb6555,61036dde9e8d31fb246e275f,2021-07-29_23h11.56.684,Simcolourproject_2stim_asymm_v5,2020.2.10,Win32,60,61025ae37ef11b136ea224fe,,,,,,,,,1368,-24.66660764,82.6666584,1,0,0,response7disk,,0,10.66668606,4.666656077,1,0,0,rectangle,10.66668606,4.666656077,1,0,0,10.66668606,4.666656077,1,0,0,0,99,99,16,1,,,,,,,,
,,,,,,,,,,,,,FF,,,,,,,,1.3154,,,,,,,,,,,,,,,,,,,,,,61008a516a9d46f003cb6555,61036dde9e8d31fb246e275f,2021-07-29_23h11.56.684,Simcolourproject_2stim_asymm_v5,2020.2.10,Win32,60,61025ae37ef11b136ea224fe,,,,,,,,,2644,79.33335477,31.33330319,1,0,0,response1disk,,6,1.333393137,8.666656196,1,0,0,rectangle,1.333393137,8.666656196,1,0,0,1.333393137,8.666656196,1,0,0,0,100,100,91,1,,,,,,,,
,,,,,,,,,,,,,FF,,,,,,,,0.9997,,,,,,,,,,,,,,,,,,,,,,61008a516a9d46f003cb6555,61036dde9e8d31fb246e275f,2021-07-29_23h11.56.684,Simcolourproject_2stim_asymm_v5,2020.2.10,Win32,60,61025ae37ef11b136ea224fe,,,,,,,,,505,-28.66660776,-73.33334625,1,0,0,response5disk,,3,11.33339343,0.666655958,1,0,0,rectangle,11.33339343,0.666655958,1,0,0,11.33339343,0.666655958,1,0,0,0,101,101,62,1,,,,,,,,
,,,,,,,,,,,,,FF,,,,,,,,0.8997,,,,,,,,,,,,,,,,,,,,,,61008a516a9d46f003cb6555,61036dde9e8d31fb246e275f,2021-07-29_23h11.56.684,Simcolourproject_2stim_asymm_v5,2020.2.10,Win32,60,61025ae37ef11b136ea224fe,,,,,,,,,1388,-48.66660835,-28.00001156,1,0,0,response5disk,,2,-1.999980986,-8.000010967,1,0,0,rectangle,-1.999980986,-8.000010967,1,0,0,-1.999980986,-8.000010967,1,0,0,0,102,102,67,1,,,,,,,,
,,,,,,,,,,,,,FF,,,,,,,,1.3166,,,,,,,,,,,,,,,,,,,,,,61008a516a9d46f003cb6555,61036dde9e8d31fb246e275f,2021-07-29_23h11.56.684,Simcolourproject_2stim_asymm_v5,2020.2.10,Win32,60,61025ae37ef11b136ea224fe,,,,,,,,,3939,-75.3333165,37.9999904,1,0,0,response7disk,,1,-1.999980986,-14.00001115,1,0,0,rectangle,-1.999980986,-14.00001115,1,0,0,-1.999980986,-14.00001115,1,0,0,0,103,103,46,1,,,,,,,,
,,,,,,,,,,,,,FF,,,,,,,,0.7292,,,,,,,,,,,,,,,,,,,,,,61008a516a9d46f003cb6555,61036dde9e8d31fb246e275f,2021-07-29_23h11.56.684,Simcolourproject_2stim_asymm_v5,2020.2.10,Win32,60,61025ae37ef11b136ea224fe,,,,,,,,,1887,-67.99998295,47.9999907,1,0,0,response7disk,,1,11.33339343,6.666656137,1,0,0,rectangle,11.33339343,6.666656137,1,0,0,11.33339343,6.666656137,1,0,0,0,104,104,14,1,,,,,,,,
,,,,,,,,,,,,,FF,,,,,,,,1.1663,,,,,,,,,,,,,,,,,,,,,,61008a516a9d46f003cb6555,61036dde9e8d31fb246e275f,2021-07-29_23h11.56.684,Simcolourproject_2stim_asymm_v5,2020.2.10,Win32,60,61025ae37ef11b136ea224fe,,,,,,,,,2513,74.66668797,26.66665673,1,0,0,response1disk,,6,-10.66660722,-10.00001103,1,0,0,rectangle,-10.66660722,-10.00001103,1,0,0,-10.66660722,-10.00001103,1,0,0,0,105,105,96,1,,,,,,,,
,,,,,,,,,,,,,FF,,,,,,,,0.9161,,,,,,,,,,,,,,,,,,,,,,61008a516a9d46f003cb6555,61036dde9e8d31fb246e275f,2021-07-29_23h11.56.684,Simcolourproject_2stim_asymm_v5,2020.2.10,Win32,60,61025ae37ef11b136ea224fe,,,,,,,,,727,-33.99998194,-93.33334684,1,0,0,response5disk,,3,-4.666607042,0.666655958,1,0,0,rectangle,-4.666607042,0.666655958,1,0,0,-4.666607042,0.666655958,1,0,0,0,106,106,56,1,,,,,,,,
,,,,,,,,,,,,,FF,,,,,,,,1.8039,,,,,,,,,,,,,,,,,,,,,,61008a516a9d46f003cb6555,61036dde9e8d31fb246e275f,2021-07-29_23h11.56.684,Simcolourproject_2stim_asymm_v5,2020.2.10,Win32,60,61025ae37ef11b136ea224fe,,,,,,,,,4246,33.33339409,-74.66667962,1,0,0,response3disk,,4,6.666685939,-8.000010967,1,0,0,rectangle,6.666685939,-8.000010967,1,0,0,6.666685939,-8.000010967,1,0,0,0,107,107,68,1,,,,,,,,
,,,,,,,,,,,,,FF,,,,,,,,0.9828,,,,,,,,,,,,,,,,,,,,,,61008a516a9d46f003cb6555,61036dde9e8d31fb246e275f,2021-07-29_23h11.56.684,Simcolourproject_2stim_asymm_v5,2020.2.10,Win32,60,61025ae37ef11b136ea224fe,,,,,,,,,2054,44.66668707,-78.66667974,1,0,0,response3disk,,4,1.333393137,3.333322704,1,0,0,rectangle,1.333393137,3.333322704,1,0,0,1.333393137,3.333322704,1,0,0,0,108,108,154,1,,,,,,,,
,,,,,,,,,,,,,FF,,,,,,,,1.3833,,,,,,,,,,,,,,,,,,,,,,61008a516a9d46f003cb6555,61036dde9e8d31fb246e275f,2021-07-29_23h11.56.684,Simcolourproject_2stim_asymm_v5,2020.2.10,Win32,60,61025ae37ef11b136ea224fe,,,,,,,,,2811,76.00002134,36.66665703,1,0,0,response1disk,,6,11.33339343,3.99998939,1,0,0,rectangle,11.33339343,3.99998939,1,0,0,11.33339343,3.99998939,1,0,0,0,109,109,11,1,,,,,,,,
,,,,,,,,,,,,,FF,,,,,,,,1.1498,,,,,,,,,,,,,,,,,,,,,,61008a516a9d46f003cb6555,61036dde9e8d31fb246e275f,2021-07-29_23h11.56.684,Simcolourproject_2stim_asymm_v5,2020.2.10,Win32,60,61025ae37ef11b136ea224fe,,,,,,,,,1915,75.33335465,-30.00001162,1,0,0,response3disk,,5,18.6666863,-4.666677535,1,0,0,rectangle,18.6666863,-4.666677535,1,0,0,18.6666863,-4.666677535,1,0,0,0,110,110,37,1,,,,,,,,
,,,,,,,,,,,,,FF,,,,,,,,0.7287,,,,,,,,,,,,,,,,,,,,,,61008a516a9d46f003cb6555,61036dde9e8d31fb246e275f,2021-07-29_23h11.56.684,Simcolourproject_2stim_asymm_v5,2020.2.10,Win32,60,61025ae37ef11b136ea224fe,,,,,,,,,1647,95.33335525,43.33330355,1,0,0,response1disk,,6,-4.666607042,-8.666677654,1,0,0,rectangle,-4.666607042,-8.666677654,1,0,0,-4.666607042,-8.666677654,1,0,0,0,111,111,5,1,,,,,,,,
,,,,,,,,,,,,,FF,,,,,,,,0.9833,,,,,,,,,,,,,,,,,,,,,,61008a516a9d46f003cb6555,61036dde9e8d31fb246e275f,2021-07-29_23h11.56.684,Simcolourproject_2stim_asymm_v5,2020.2.10,Win32,60,61025ae37ef11b136ea224fe,,,,,,,,,1628,84.66668826,-37.33334517,1,0,0,response3disk,,5,6.666685939,-2.000010788,1,0,0,rectangle,6.666685939,-2.000010788,1,0,0,6.666685939,-2.000010788,1,0,0,0,112,112,40,1,,,,,,,,
,,,,,,,,,,,,,FF,,,,,,,,1.3197,,,,,,,,,,,,,,,,,,,,,,61008a516a9d46f003cb6555,61036dde9e8d31fb246e275f,2021-07-29_23h11.56.684,Simcolourproject_2stim_asymm_v5,2020.2.10,Win32,60,61025ae37ef11b136ea224fe,,,,,,,,,421,29.33339397,-64.00001264,1,0,0,response3disk,,4,-0.666606923,1.999989331,1,0,0,rectangle,40.66668695,78.66665828,1,0,0,0.66668576,-1.333344102,1,0,0,0,113,113,70,1,,response1disk_3,TRUE,7,7,"[80,319,188,201,279,18,121,78,135,46,90,198,84,269,26,114,227,58,276,191]",2.1156,rectangle
,,,,,,,,,,,,,FF,,,,,,,,0.9163,,,,,,,,,,,,,,,,,,,,,,61008a516a9d46f003cb6555,61036dde9e8d31fb246e275f,2021-07-29_23h11.56.684,Simcolourproject_2stim_asymm_v5,2020.2.10,Win32,60,61025ae37ef11b136ea224fe,,,,,,,,,3015,82.00002152,27.33330307,1,0,0,response1disk,,6,-3.999981046,-3.333344162,1,0,0,rectangle,-3.999981046,-3.333344162,1,0,0,-3.999981046,-3.333344162,1,0,0,0,114,114,30,1,,,,,,,,
,,,,,,,,,,,,,FF,,,,,,,,1.4491,,,,,,,,,,,,,,,,,,,,,,61008a516a9d46f003cb6555,61036dde9e8d31fb246e275f,2021-07-29_23h11.56.684,Simcolourproject_2stim_asymm_v5,2020.2.10,Win32,60,61025ae37ef11b136ea224fe,,,,,,,,,4125,-58.66660865,30.66665685,1,0,0,response7disk,,1,10.66668606,3.333322704,1,0,0,rectangle,10.66668606,3.333322704,1,0,0,10.66668606,3.333322704,1,0,0,0,115,115,120,1,,,,,,,,
,,,,,,,,,,,,,FF,,,,,,,,1.2167,,,,,,,,,,,,,,,,,,,,,,61008a516a9d46f003cb6555,61036dde9e8d31fb246e275f,2021-07-29_23h11.56.684,Simcolourproject_2stim_asymm_v5,2020.2.10,Win32,60,61025ae37ef11b136ea224fe,,,,,,,,,4328,-57.99998266,-30.66667831,1,0,0,response5disk,,2,-19.33331484,-2.666677475,1,0,0,rectangle,-19.33331484,-2.666677475,1,0,0,-19.33331484,-2.666677475,1,0,0,0,116,116,83,1,,,,,,,,
,,,,,,,,,,,,,FF,,,,,,,,0.7332,,,,,,,,,,,,,,,,,,,,,,61008a516a9d46f003cb6555,61036dde9e8d31fb246e275f,2021-07-29_23h11.56.684,Simcolourproject_2stim_asymm_v5,2020.2.10,Win32,60,61025ae37ef11b136ea224fe,,,,,,,,,1215,-67.99998295,32.66665691,1,0,0,response7disk,,1,-11.3333146,3.333322704,1,0,0,rectangle,-11.3333146,3.333322704,1,0,0,-11.3333146,3.333322704,1,0,0,0,117,117,100,1,,,,,,,,
,,,,,,,,,,,,,FF,,,,,,,,1.2005,,,,,,,,,,,,,,,,,,,,,,61008a516a9d46f003cb6555,61036dde9e8d31fb246e275f,2021-07-29_23h11.56.684,Simcolourproject_2stim_asymm_v5,2020.2.10,Win32,60,61025ae37ef11b136ea224fe,,,,,,,,,2267,47.33335382,84.66665846,1,0,0,response1disk,,7,1.9735E-05,4.666656077,1,0,0,rectangle,1.9735E-05,4.666656077,1,0,0,1.9735E-05,4.666656077,1,0,0,0,118,118,33,1,,,,,,,,
,,,,,,,,,,,,,FF,,,,,,,,0.7492,,,,,,,,,,,,,,,,,,,,,,61008a516a9d46f003cb6555,61036dde9e8d31fb246e275f,2021-07-29_23h11.56.684,Simcolourproject_2stim_asymm_v5,2020.2.10,Win32,60,61025ae37ef11b136ea224fe,,,,,,,,,2860,86.66668832,38.66665709,1,0,0,response1disk,,6,1.9735E-05,-10.00001103,1,0,0,rectangle,1.9735E-05,-10.00001103,1,0,0,1.9735E-05,-10.00001103,1,0,0,0,119,119,110,1,,,,,,,,
,,,,,,,,,,,,,FF,,,,,,,,1.2492,,,,,,,,,,,,,,,,,,,,,,61008a516a9d46f003cb6555,61036dde9e8d31fb246e275f,2021-07-29_23h11.56.684,Simcolourproject_2stim_asymm_v5,2020.2.10,Win32,60,61025ae37ef11b136ea224fe,,,,,,,,,312,44.66668707,-86.00001329,1,0,0,response3disk,,4,23.33339379,5.333322763,1,0,0,rectangle,-28.66660776,-100.0000137,1,0,0,4.000019193,-4.666677535,1,0,0,0,120,120,58,1,,response5disk_3,TRUE,3,3,"[80,319,188,201,279,18,121,78,135,46,90,198,84,269,26,114,227,58,276,191]",1.566,rectangle
,,,,,,,,,,,,,FF,,,,,,,,1.4873,,,,,,,,,,,,,,,,,,,,,,61008a516a9d46f003cb6555,61036dde9e8d31fb246e275f,2021-07-29_23h11.56.684,Simcolourproject_2stim_asymm_v5,2020.2.10,Win32,60,61025ae37ef11b136ea224fe,,,,,,,,,2154,35.33339415,-58.00001246,1,0,0,response3disk,,4,15.33339355,-0.666677415,1,0,0,rectangle,15.33339355,-0.666677415,1,0,0,15.33339355,-0.666677415,1,0,0,0,121,121,114,1,,,,,,,,
,,,,,,,,,,,,,FF,,,,,,,,0.8491,,,,,,,,,,,,,,,,,,,,,,61008a516a9d46f003cb6555,61036dde9e8d31fb246e275f,2021-07-29_23h11.56.684,Simcolourproject_2stim_asymm_v5,2020.2.10,Win32,60,61025ae37ef11b136ea224fe,,,,,,,,,165,-63.99998283,-27.33334488,1,0,0,response5disk,,2,3.333393196,3.333322704,1,0,0,rectangle,3.333393196,3.333322704,1,0,0,3.333393196,3.333322704,1,0,0,0,122,122,1,1,,,,,,,,
,,,,,,,,,,,,,FF,,,,,,,,1.1493,,,,,,,,,,,,,,,,,,,,,,61008a516a9d46f003cb6555,61036dde9e8d31fb246e275f,2021-07-29_23h11.56.684,Simcolourproject_2stim_asymm_v5,2020.2.10,Win32,60,61025ae37ef11b136ea224fe,,,,,,,,,2716,-88.66660955,57.999991,1,0,0,response7disk,,1,-8.666607161,7.333322823,1,0,0,rectangle,-8.666607161,7.333322823,1,0,0,-8.666607161,7.333322823,1,0,0,0,123,123,151,1,,,,,,,,
,,,,,,,,,,,,,FF,,,,,,,,1.1035,,,,,,,,,,,,,,,,,,,,,,61008a516a9d46f003cb6555,61036dde9e8d31fb246e275f,2021-07-29_23h11.56.684,Simcolourproject_2stim_asymm_v5,2020.2.10,Win32,60,61025ae37ef11b136ea224fe,,,,,,,,,1267,-81.33331668,-21.3333447,1,0,0,response5disk,,2,-23.99998164,-13.33334446,1,0,0,rectangle,-23.99998164,-13.33334446,1,0,0,-23.99998164,-13.33334446,1,0,0,0,124,124,144,1,,,,,,,,
,,,,,,,,,,,,,FF,,,,,,,,2.3157,,,,,,,,,,,,,,,,,,,,,,61008a516a9d46f003cb6555,61036dde9e8d31fb246e275f,2021-07-29_23h11.56.684,Simcolourproject_2stim_asymm_v5,2020.2.10,Win32,60,61025ae37ef11b136ea224fe,,,,,,,,,3334,-43.99998224,-82.66667986,1,0,0,response5disk,,3,4.000019193,-1.07288E-05,1,0,0,rectangle,4.000019193,-1.07288E-05,1,0,0,4.000019193,-1.07288E-05,1,0,0,0,125,125,32,1,,,,,,,,
,,,,,,,,,,,,,FF,,,,,,,,1.0161,,,,,,,,,,,,,,,,,,,,,,61008a516a9d46f003cb6555,61036dde9e8d31fb246e275f,2021-07-29_23h11.56.684,Simcolourproject_2stim_asymm_v5,2020.2.10,Win32,60,61025ae37ef11b136ea224fe,,,,,,,,,233,100.0000221,-38.66667855,1,0,0,response3disk,,5,18.00001961,-1.07288E-05,1,0,0,rectangle,18.00001961,-1.07288E-05,1,0,0,18.00001961,-1.07288E-05,1,0,0,0,126,126,142,1,,,,,,,,
,,,,,,,,,,,,,FF,,,,,,,,0.7837,,,,,,,,,,,,,,,,,,,,,,61008a516a9d46f003cb6555,61036dde9e8d31fb246e275f,2021-07-29_23h11.56.684,Simcolourproject_2stim_asymm_v5,2020.2.10,Win32,60,61025ae37ef11b136ea224fe,,,,,,,,,2463,72.66668791,-28.66667825,1,0,0,response3disk,,5,23.33339379,-1.333344102,1,0,0,rectangle,23.33339379,-1.333344102,1,0,0,23.33339379,-1.333344102,1,0,0,0,127,127,141,1,,,,,,,,
,,,,,,,,,,,,,FF,,,,,,,,1.7363,,,,,,,,,,,,,,,,,,,,,,61008a516a9d46f003cb6555,61036dde9e8d31fb246e275f,2021-07-29_23h11.56.684,Simcolourproject_2stim_asymm_v5,2020.2.10,Win32,60,61025ae37ef11b136ea224fe,,,,,,,,,2224,-35.33331531,-73.33334625,1,0,0,response5disk,,3,7.333393315,4.666656077,1,0,0,rectangle,7.333393315,4.666656077,1,0,0,7.333393315,4.666656077,1,0,0,0,128,128,81,1,,,,,,,,
,,,,,,,,,,,,,FF,,,,,,,,1.3825,,,,,,,,,,,,,,,,,,,,,,61008a516a9d46f003cb6555,61036dde9e8d31fb246e275f,2021-07-29_23h11.56.684,Simcolourproject_2stim_asymm_v5,2020.2.10,Win32,60,61025ae37ef11b136ea224fe,,,,,,,,,1293,-83.33331674,-39.33334523,1,0,0,response5disk,,2,1.9735E-05,5.333322763,1,0,0,rectangle,1.9735E-05,5.333322763,1,0,0,1.9735E-05,5.333322763,1,0,0,0,129,129,39,1,,,,,,,,
,,,,,,,,,,,,,FF,,,,,,,,1.2997,,,,,,,,,,,,,,,,,,,,,,61008a516a9d46f003cb6555,61036dde9e8d31fb246e275f,2021-07-29_23h11.56.684,Simcolourproject_2stim_asymm_v5,2020.2.10,Win32,60,61025ae37ef11b136ea224fe,,,,,,,,,2523,51.33335394,-67.33334607,1,0,0,response3disk,,4,21.33339373,1.999989331,1,0,0,rectangle,21.33339373,1.999989331,1,0,0,21.33339373,1.999989331,1,0,0,0,130,130,48,1,,,,,,,,
,,,,,,,,,,,,,FF,,,,,,,,0.9326,,,,,,,,,,,,,,,,,,,,,,61008a516a9d46f003cb6555,61036dde9e8d31fb246e275f,2021-07-29_23h11.56.684,Simcolourproject_2stim_asymm_v5,2020.2.10,Win32,60,61025ae37ef11b136ea224fe,,,,,,,,,3270,96.66668862,17.33332312,1,0,0,response1disk,,6,-31.33331519,-1.333344102,1,0,0,rectangle,-31.33331519,-1.333344102,1,0,0,-31.33331519,-1.333344102,1,0,0,0,131,131,24,1,,,,,,,,
,,,,,,,,,,,,,FF,,,,,,,,0.8334,,,,,,,,,,,,,,,,,,,,,,61008a516a9d46f003cb6555,61036dde9e8d31fb246e275f,2021-07-29_23h11.56.684,Simcolourproject_2stim_asymm_v5,2020.2.10,Win32,60,61025ae37ef11b136ea224fe,,,,,,,,,3578,100.6666887,-34.00001174,1,0,0,response3disk,,5,15.33339355,7.333322823,1,0,0,rectangle,15.33339355,7.333322823,1,0,0,15.33339355,7.333322823,1,0,0,0,132,132,148,1,,,,,,,,
,,,,,,,,,,,,,FF,,,,,,,,1.4993,,,,,,,,,,,,,,,,,,,,,,61008a516a9d46f003cb6555,61036dde9e8d31fb246e275f,2021-07-29_23h11.56.684,Simcolourproject_2stim_asymm_v5,2020.2.10,Win32,60,61025ae37ef11b136ea224fe,,,,,,,,,3756,-31.99998188,-73.33334625,1,0,0,response5disk,,3,21.33339373,7.99998951,1,0,0,rectangle,21.33339373,7.99998951,1,0,0,21.33339373,7.99998951,1,0,0,0,133,133,128,1,,,,,,,,
,,,,,,,,,,,,,FF,,,,,,,,2.182,,,,,,,,,,,,,,,,,,,,,,61008a516a9d46f003cb6555,61036dde9e8d31fb246e275f,2021-07-29_23h11.56.684,Simcolourproject_2stim_asymm_v5,2020.2.10,Win32,60,61025ae37ef11b136ea224fe,,,,,,,,,4171,-87.33331686,-47.33334547,1,0,0,response5disk,,2,-5.333314419,3.99998939,1,0,0,rectangle,-79.99998331,39.99999046,1,0,0,10.66668606,2.666656017,1,0,0,0,134,134,66,1,,response7disk_3,TRUE,1,1,"[80,319,188,201,279,18,121,78,135,46,90,198,84,269,26,114,227,58,276,191]",1.4489,rectangle
,,,,,,,,,,,,,FF,,,,,,,,0.9327,,,,,,,,,,,,,,,,,,,,,,61008a516a9d46f003cb6555,61036dde9e8d31fb246e275f,2021-07-29_23h11.56.684,Simcolourproject_2stim_asymm_v5,2020.2.10,Win32,60,61025ae37ef11b136ea224fe,,,,,,,,,3350,-67.33331627,23.99998999,1,0,0,response7disk,,1,4.000019193,-6.000010908,1,0,0,rectangle,4.000019193,-6.000010908,1,0,0,4.000019193,-6.000010908,1,0,0,0,135,135,149,1,,,,,,,,
,,,,,,,,,,,,,FF,,,,,,,,0.9699,,,,,,,,,,,,,,,,,,,,,,61008a516a9d46f003cb6555,61036dde9e8d31fb246e275f,2021-07-29_23h11.56.684,Simcolourproject_2stim_asymm_v5,2020.2.10,Win32,60,61025ae37ef11b136ea224fe,,,,,,,,,3685,64.00002098,-30.66667831,1,0,0,response3disk,,5,12.00001943,-2.666677475,1,0,0,rectangle,12.00001943,-2.666677475,1,0,0,12.00001943,-2.666677475,1,0,0,0,136,136,6,1,,,,,,,,
,,,,,,,,,,,,,FF,,,,,,,,0.8491,,,,,,,,,,,,,,,,,,,,,,61008a516a9d46f003cb6555,61036dde9e8d31fb246e275f,2021-07-29_23h11.56.684,Simcolourproject_2stim_asymm_v5,2020.2.10,Win32,60,61025ae37ef11b136ea224fe,,,,,,,,,158,87.33335501,28.66665679,1,0,0,response1disk,,6,5.333393256,1.999989331,1,0,0,rectangle,5.333393256,1.999989331,1,0,0,5.333393256,1.999989331,1,0,0,0,137,137,140,1,,,,,,,,
,,,,,,,,,,,,,FF,,,,,,,,0.8824,,,,,,,,,,,,,,,,,,,,,,61008a516a9d46f003cb6555,61036dde9e8d31fb246e275f,2021-07-29_23h11.56.684,Simcolourproject_2stim_asymm_v5,2020.2.10,Win32,60,61025ae37ef11b136ea224fe,,,,,,,,,3007,-57.33331597,23.33330295,1,0,0,response7disk,,1,9.333393375,-12.66667777,1,0,0,rectangle,9.333393375,-12.66667777,1,0,0,9.333393375,-12.66667777,1,0,0,0,138,138,159,1,,,,,,,,
,,,,,,,,,,,,,FF,,,,,,,,0.7334,,,,,,,,,,,,,,,,,,,,,,61008a516a9d46f003cb6555,61036dde9e8d31fb246e275f,2021-07-29_23h11.56.684,Simcolourproject_2stim_asymm_v5,2020.2.10,Win32,60,61025ae37ef11b136ea224fe,,,,,,,,,973,-73.33331645,31.99999022,1,0,0,response7disk,,1,-0.666606923,-1.07288E-05,1,0,0,rectangle,-0.666606923,-1.07288E-05,1,0,0,-0.666606923,-1.07288E-05,1,0,0,0,139,139,146,1,,,,,,,,
,,,,,,,,,,,,,FF,,,,,,,,1.0496,,,,,,,,,,,,,,,,,,,,,,61008a516a9d46f003cb6555,61036dde9e8d31fb246e275f,2021-07-29_23h11.56.684,Simcolourproject_2stim_asymm_v5,2020.2.10,Win32,60,61025ae37ef11b136ea224fe,,,,,,,,,2081,-63.99998283,-32.66667837,1,0,0,response5disk,,2,6.000019252,7.333322823,1,0,0,rectangle,6.000019252,7.333322823,1,0,0,6.000019252,7.333322823,1,0,0,0,140,140,129,1,,,,,,,,
,,,,,,,,,,,,,FF,,,,,,,,2.2842,,,,,,,,,,,,,,,,,,,,,,61008a516a9d46f003cb6555,61036dde9e8d31fb246e275f,2021-07-29_23h11.56.684,Simcolourproject_2stim_asymm_v5,2020.2.10,Win32,60,61025ae37ef11b136ea224fe,,,,,,,,,1196,41.33339433,-64.00001264,1,0,0,response3disk,,4,0.66668576,1.333322644,1,0,0,rectangle,0.66668576,1.333322644,1,0,0,0.66668576,1.333322644,1,0,0,0,141,141,94,1,,,,,,,,
,,,,,,,,,,,,,FF,,,,,,,,0.8665,,,,,,,,,,,,,,,,,,,,,,61008a516a9d46f003cb6555,61036dde9e8d31fb246e275f,2021-07-29_23h11.56.684,Simcolourproject_2stim_asymm_v5,2020.2.10,Win32,60,61025ae37ef11b136ea224fe,,,,,,,,,1570,41.33339433,-74.66667962,1,0,0,response3disk,,4,6.000019252,11.99998963,1,0,0,rectangle,6.000019252,11.99998963,1,0,0,6.000019252,11.99998963,1,0,0,0,142,142,28,1,,,,,,,,
,,,,,,,,,,,,,FF,,,,,,,,0.9491,,,,,,,,,,,,,,,,,,,,,,61008a516a9d46f003cb6555,61036dde9e8d31fb246e275f,2021-07-29_23h11.56.684,Simcolourproject_2stim_asymm_v5,2020.2.10,Win32,60,61025ae37ef11b136ea224fe,,,,,,,,,1654,100.6666887,37.33330337,1,0,0,response1disk,,6,5.333393256,2.666656017,1,0,0,rectangle,5.333393256,2.666656017,1,0,0,5.333393256,2.666656017,1,0,0,0,143,143,69,1,,,,,,,,
,,,,,,,,,,,,,FF,,,,,,,,0.9159,,,,,,,,,,,,,,,,,,,,,,61008a516a9d46f003cb6555,61036dde9e8d31fb246e275f,2021-07-29_23h11.56.684,Simcolourproject_2stim_asymm_v5,2020.2.10,Win32,60,61025ae37ef11b136ea224fe,,,,,,,,,2535,-26.6666077,-54.66667902,1,0,0,response5disk,,3,1.333393137,2.666656017,1,0,0,rectangle,1.333393137,2.666656017,1,0,0,1.333393137,2.666656017,1,0,0,0,144,144,90,1,,,,,,,,
,,,,,,,,,,,,,FF,,,,,,,,0.9993,,,,,,,,,,,,,,,,,,,,,,61008a516a9d46f003cb6555,61036dde9e8d31fb246e275f,2021-07-29_23h11.56.684,Simcolourproject_2stim_asymm_v5,2020.2.10,Win32,60,61025ae37ef11b136ea224fe,,,,,,,,,4004,44.00002038,-70.6666795,1,0,0,response3disk,,4,-3.333314359,5.99998945,1,0,0,rectangle,-3.333314359,5.99998945,1,0,0,-3.333314359,5.99998945,1,0,0,0,145,145,145,1,,,,,,,,
,,,,,,,,,,,,,FF,,,,,,,,1.066,,,,,,,,,,,,,,,,,,,,,,61008a516a9d46f003cb6555,61036dde9e8d31fb246e275f,2021-07-29_23h11.56.684,Simcolourproject_2stim_asymm_v5,2020.2.10,Win32,60,61025ae37ef11b136ea224fe,,,,,,,,,1681,-36.666608,-83.33334655,1,0,0,response5disk,,3,16.66668624,-1.333344102,1,0,0,rectangle,16.66668624,-1.333344102,1,0,0,16.66668624,-1.333344102,1,0,0,0,146,146,75,1,,,,,,,,
,,,,,,,,,,,,,FF,,,,,,,,0.9995,,,,,,,,,,,,,,,,,,,,,,61008a516a9d46f003cb6555,61036dde9e8d31fb246e275f,2021-07-29_23h11.56.684,Simcolourproject_2stim_asymm_v5,2020.2.10,Win32,60,61025ae37ef11b136ea224fe,,,,,,,,,454,41.33339433,73.99999148,1,0,0,response1disk,,7,-9.999981225,4.666656077,1,0,0,rectangle,-9.999981225,4.666656077,1,0,0,-9.999981225,4.666656077,1,0,0,0,147,147,124,1,,,,,,,,
,,,,,,,,,,,,,FF,,,,,,,,0.8826,,,,,,,,,,,,,,,,,,,,,,61008a516a9d46f003cb6555,61036dde9e8d31fb246e275f,2021-07-29_23h11.56.684,Simcolourproject_2stim_asymm_v5,2020.2.10,Win32,60,61025ae37ef11b136ea224fe,,,,,,,,,1144,-77.33331656,-38.66667855,1,0,0,response5disk,,2,-5.333314419,2.666656017,1,0,0,rectangle,-5.333314419,2.666656017,1,0,0,-5.333314419,2.666656017,1,0,0,0,148,148,35,1,,,,,,,,
,,,,,,,,,,,,,FF,,,,,,,,1.0499,,,,,,,,,,,,,,,,,,,,,,61008a516a9d46f003cb6555,61036dde9e8d31fb246e275f,2021-07-29_23h11.56.684,Simcolourproject_2stim_asymm_v5,2020.2.10,Win32,60,61025ae37ef11b136ea224fe,,,,,,,,,232,46.00002044,-76.00001299,1,0,0,response3disk,,4,6.666685939,5.99998945,1,0,0,rectangle,6.666685939,5.99998945,1,0,0,6.666685939,5.99998945,1,0,0,0,149,149,86,1,,,,,,,,
,,,,,,,,,,,,,FF,,,,,,,,1.9159,,,,,,,,,,,,,,,,,,,,,,61008a516a9d46f003cb6555,61036dde9e8d31fb246e275f,2021-07-29_23h11.56.684,Simcolourproject_2stim_asymm_v5,2020.2.10,Win32,60,61025ae37ef11b136ea224fe,,,,,,,,,3952,-37.33331537,-61.33334589,1,0,0,response5disk,,3,18.00001961,1.333322644,1,0,0,rectangle,18.00001961,1.333322644,1,0,0,18.00001961,1.333322644,1,0,0,0,150,150,152,1,,,,,,,,
,,,,,,,,,,,,,FF,,,,,,,,0.7835,,,,,,,,,,,,,,,,,,,,,,61008a516a9d46f003cb6555,61036dde9e8d31fb246e275f,2021-07-29_23h11.56.684,Simcolourproject_2stim_asymm_v5,2020.2.10,Win32,60,61025ae37ef11b136ea224fe,,,,,,,,,3390,-78.66660925,42.66665721,1,0,0,response7disk,,1,1.9735E-05,-2.000010788,1,0,0,rectangle,1.9735E-05,-2.000010788,1,0,0,1.9735E-05,-2.000010788,1,0,0,0,151,151,65,1,,,,,,,,
,,,,,,,,,,,,,FF,,,,,,,,0.9368,,,,,,,,,,,,,,,,,,,,,,61008a516a9d46f003cb6555,61036dde9e8d31fb246e275f,2021-07-29_23h11.56.684,Simcolourproject_2stim_asymm_v5,2020.2.10,Win32,60,61025ae37ef11b136ea224fe,,,,,,,,,4356,-28.66660776,71.33330439,1,0,0,response7disk,,0,17.33339361,0.666655958,1,0,0,rectangle,17.33339361,0.666655958,1,0,0,17.33339361,0.666655958,1,0,0,0,152,152,34,1,,,,,,,,
,,,,,,,,,,,,,FF,,,,,,,,1.2157,,,,,,,,,,,,,,,,,,,,,,61008a516a9d46f003cb6555,61036dde9e8d31fb246e275f,2021-07-29_23h11.56.684,Simcolourproject_2stim_asymm_v5,2020.2.10,Win32,60,61025ae37ef11b136ea224fe,,,,,,,,,3865,-97.33331716,-27.33334488,1,0,0,response5disk,,2,9.333393375,8.666656196,1,0,0,rectangle,9.333393375,8.666656196,1,0,0,9.333393375,8.666656196,1,0,0,0,153,153,64,1,,,,,,,,
,,,,,,,,,,,,,FF,,,,,,,,1.2497,,,,,,,,,,,,,,,,,,,,,,61008a516a9d46f003cb6555,61036dde9e8d31fb246e275f,2021-07-29_23h11.56.684,Simcolourproject_2stim_asymm_v5,2020.2.10,Win32,60,61025ae37ef11b136ea224fe,,,,,,,,,2603,-23.33331496,-66.66667938,1,0,0,response5disk,,3,14.00001949,1.999989331,1,0,0,rectangle,14.00001949,1.999989331,1,0,0,14.00001949,1.999989331,1,0,0,0,154,154,135,1,,,,,,,,
,,,,,,,,,,,,,FF,,,,,,,,1.0157,,,,,,,,,,,,,,,,,,,,,,61008a516a9d46f003cb6555,61036dde9e8d31fb246e275f,2021-07-29_23h11.56.684,Simcolourproject_2stim_asymm_v5,2020.2.10,Win32,60,61025ae37ef11b136ea224fe,,,,,,,,,1099,71.33335453,28.66665679,1,0,0,response1disk,,6,12.66668612,-2.000010788,1,0,0,rectangle,12.66668612,-2.000010788,1,0,0,12.66668612,-2.000010788,1,0,0,0,155,155,143,1,,,,,,,,
,,,,,,,,,,,,,FF,,,,,,,,0.7502,,,,,,,,,,,,,,,,,,,,,,61008a516a9d46f003cb6555,61036dde9e8d31fb246e275f,2021-07-29_23h11.56.684,Simcolourproject_2stim_asymm_v5,2020.2.10,Win32,60,61025ae37ef11b136ea224fe,,,,,,,,,1892,-83.99998343,40.66665715,1,0,0,response7disk,,1,-15.9999814,9.999989569,1,0,0,rectangle,-15.9999814,9.999989569,1,0,0,-15.9999814,9.999989569,1,0,0,0,156,156,105,1,,,,,,,,
,,,,,,,,,,,,,FF,,,,,,,,1.716,,,,,,,,,,,,,,,,,,,,,,61008a516a9d46f003cb6555,61036dde9e8d31fb246e275f,2021-07-29_23h11.56.684,Simcolourproject_2stim_asymm_v5,2020.2.10,Win32,60,61025ae37ef11b136ea224fe,,,,,,,,,466,-33.99998194,-100.0000137,1,0,0,response5disk,,3,4.666685879,-10.00001103,1,0,0,rectangle,4.666685879,-10.00001103,1,0,0,4.666685879,-10.00001103,1,0,0,0,157,157,74,1,,,,,,,,
,,,,,,,,,,,,,FF,,,,,,,,2.8034,,,,,,,,,,,,,,,,,,,,,,61008a516a9d46f003cb6555,61036dde9e8d31fb246e275f,2021-07-29_23h11.56.684,Simcolourproject_2stim_asymm_v5,2020.2.10,Win32,60,61025ae37ef11b136ea224fe,,,,,,,,,2522,-31.99998188,-84.00001323,1,0,0,response5disk,,3,10.00001937,4.666656077,1,0,0,rectangle,10.00001937,4.666656077,1,0,0,10.00001937,4.666656077,1,0,0,0,158,158,45,1,,,,,,,,
,,,,,,,,,,,,,FF,,,,,,,,0.8828,,,,,,,,,,,,,,,,,,,,,,61008a516a9d46f003cb6555,61036dde9e8d31fb246e275f,2021-07-29_23h11.56.684,Simcolourproject_2stim_asymm_v5,2020.2.10,Win32,60,61025ae37ef11b136ea224fe,,,,,,,,,2120,66.00002104,-34.00001174,1,0,0,response3disk,,5,27.33339391,-6.000010908,1,0,0,rectangle,27.33339391,-6.000010908,1,0,0,27.33339391,-6.000010908,1,0,0,0,159,159,7,1,,,,,,,,
,,,,,,,,,,,,,FF,,,,,,,,0.9999,,,,,,,,,,,,,,,,,,,,,,61008a516a9d46f003cb6555,61036dde9e8d31fb246e275f,2021-07-29_23h11.56.684,Simcolourproject_2stim_asymm_v5,2020.2.10,Win32,60,61025ae37ef11b136ea224fe,,,,,,,,,2518,44.66668707,85.99999183,1,0,0,response1disk,,7,-4.666607042,6.666656137,1,0,0,rectangle,-4.666607042,6.666656137,1,0,0,-4.666607042,6.666656137,1,0,0,1,0,160,11,1,,,,,,,,
,,,,,,,,,,,,,FF,,,,,,,,0.8662,,,,,,,,,,,,,,,,,,,,,,61008a516a9d46f003cb6555,61036dde9e8d31fb246e275f,2021-07-29_23h11.56.684,Simcolourproject_2stim_asymm_v5,2020.2.10,Win32,60,61025ae37ef11b136ea224fe,,,,,,,,,2098,-31.33331519,71.99999142,1,0,0,response7disk,,0,2.66668582,5.333322763,1,0,0,rectangle,2.66668582,5.333322763,1,0,0,2.66668582,5.333322763,1,0,0,1,1,161,97,1,,,,,,,,
,,,,,,,,,,,,,FF,,,,,,,,1.066,,,,,,,,,,,,,,,,,,,,,,61008a516a9d46f003cb6555,61036dde9e8d31fb246e275f,2021-07-29_23h11.56.684,Simcolourproject_2stim_asymm_v5,2020.2.10,Win32,60,61025ae37ef11b136ea224fe,,,,,,,,,2211,74.66668797,29.33330313,1,0,0,response1disk,,6,5.333393256,3.99998939,1,0,0,rectangle,5.333393256,3.99998939,1,0,0,5.333393256,3.99998939,1,0,0,1,2,162,107,1,,,,,,,,
,,,,,,,,,,,,,FF,,,,,,,,0.8994,,,,,,,,,,,,,,,,,,,,,,61008a516a9d46f003cb6555,61036dde9e8d31fb246e275f,2021-07-29_23h11.56.684,Simcolourproject_2stim_asymm_v5,2020.2.10,Win32,60,61025ae37ef11b136ea224fe,,,,,,,,,2460,78.66668808,33.33330325,1,0,0,response1disk,,6,-28.66660776,-6.666677594,1,0,0,rectangle,-28.66660776,-6.666677594,1,0,0,-28.66660776,-6.666677594,1,0,0,1,3,163,156,1,,,,,,,,
,,,,,,,,,,,,,FF,,,,,,,,0.9369,,,,,,,,,,,,,,,,,,,,,,61008a516a9d46f003cb6555,61036dde9e8d31fb246e275f,2021-07-29_23h11.56.684,Simcolourproject_2stim_asymm_v5,2020.2.10,Win32,60,61025ae37ef11b136ea224fe,,,,,,,,,3827,87.33335501,-43.33334535,1,0,0,response3disk,,5,-1.999980986,-0.666677415,1,0,0,rectangle,-1.999980986,-0.666677415,1,0,0,-1.999980986,-0.666677415,1,0,0,1,4,164,158,1,,,,,,,,
,,,,,,,,,,,,,FF,,,,,,,,0.8492,,,,,,,,,,,,,,,,,,,,,,61008a516a9d46f003cb6555,61036dde9e8d31fb246e275f,2021-07-29_23h11.56.684,Simcolourproject_2stim_asymm_v5,2020.2.10,Win32,60,61025ae37ef11b136ea224fe,,,,,,,,,3136,47.33335382,60.66665775,1,0,0,response1disk,,7,8.000019312,-3.333344162,1,0,0,rectangle,8.000019312,-3.333344162,1,0,0,8.000019312,-3.333344162,1,0,0,1,5,165,139,1,,,,,,,,
,,,,,,,,,,,,,FF,,,,,,,,0.8295,,,,,,,,,,,,,,,,,,,,,,61008a516a9d46f003cb6555,61036dde9e8d31fb246e275f,2021-07-29_23h11.56.684,Simcolourproject_2stim_asymm_v5,2020.2.10,Win32,60,61025ae37ef11b136ea224fe,,,,,,,,,3427,-29.99998182,71.99999142,1,0,0,response7disk,,0,1.333393137,3.333322704,1,0,0,rectangle,1.333393137,3.333322704,1,0,0,1.333393137,3.333322704,1,0,0,1,6,166,53,1,,,,,,,,
,,,,,,,,,,,,,FF,,,,,,,,1.0154,,,,,,,,,,,,,,,,,,,,,,61008a516a9d46f003cb6555,61036dde9e8d31fb246e275f,2021-07-29_23h11.56.684,Simcolourproject_2stim_asymm_v5,2020.2.10,Win32,60,61025ae37ef11b136ea224fe,,,,,,,,,623,-45.33331561,-96.00001359,1,0,0,response5disk,,3,2.000019133,1.333322644,1,0,0,rectangle,2.000019133,1.333322644,1,0,0,2.000019133,1.333322644,1,0,0,1,7,167,69,1,,,,,,,,
,,,,,,,,,,,,,FF,,,,,,,,1.2194,,,,,,,,,,,,,,,,,,,,,,61008a516a9d46f003cb6555,61036dde9e8d31fb246e275f,2021-07-29_23h11.56.684,Simcolourproject_2stim_asymm_v5,2020.2.10,Win32,60,61025ae37ef11b136ea224fe,,,,,,,,,3734,54.00002068,-30.66667831,1,0,0,response3disk,,5,-1.999980986,1.333322644,1,0,0,rectangle,-1.999980986,1.333322644,1,0,0,-1.999980986,1.333322644,1,0,0,1,8,168,82,1,,,,,,,,
,,,,,,,,,,,,,FF,,,,,,,,0.9332,,,,,,,,,,,,,,,,,,,,,,61008a516a9d46f003cb6555,61036dde9e8d31fb246e275f,2021-07-29_23h11.56.684,Simcolourproject_2stim_asymm_v5,2020.2.10,Win32,60,61025ae37ef11b136ea224fe,,,,,,,,,1788,92.6666885,-40.00001192,1,0,0,response3disk,,5,8.666685998,1.999989331,1,0,0,rectangle,8.666685998,1.999989331,1,0,0,8.666685998,1.999989331,1,0,0,1,9,169,145,1,,,,,,,,
,,,,,,,,,,,,,FF,,,,,,,,0.7492,,,,,,,,,,,,,,,,,,,,,,61008a516a9d46f003cb6555,61036dde9e8d31fb246e275f,2021-07-29_23h11.56.684,Simcolourproject_2stim_asymm_v5,2020.2.10,Win32,60,61025ae37ef11b136ea224fe,,,,,,,,,4257,48.0000205,71.33330439,1,0,0,response1disk,,7,5.333393256,7.99998951,1,0,0,rectangle,5.333393256,7.99998951,1,0,0,5.333393256,7.99998951,1,0,0,1,10,170,52,1,,,,,,,,
,,,,,,,,,,,,,FF,,,,,,,,0.8326,,,,,,,,,,,,,,,,,,,,,,61008a516a9d46f003cb6555,61036dde9e8d31fb246e275f,2021-07-29_23h11.56.684,Simcolourproject_2stim_asymm_v5,2020.2.10,Win32,60,61025ae37ef11b136ea224fe,,,,,,,,,3398,-78.66660925,-35.33334512,1,0,0,response5disk,,2,-7.333314478,-8.666677654,1,0,0,rectangle,-7.333314478,-8.666677654,1,0,0,-7.333314478,-8.666677654,1,0,0,1,11,171,128,1,,,,,,,,
,,,,,,,,,,,,,FF,,,,,,,,1.2993,,,,,,,,,,,,,,,,,,,,,,61008a516a9d46f003cb6555,61036dde9e8d31fb246e275f,2021-07-29_23h11.56.684,Simcolourproject_2stim_asymm_v5,2020.2.10,Win32,60,61025ae37ef11b136ea224fe,,,,,,,,,4263,27.33339391,-90.6666801,1,0,0,response3disk,,4,3.333393196,-1.333344102,1,0,0,rectangle,3.333393196,-1.333344102,1,0,0,3.333393196,-1.333344102,1,0,0,1,12,172,51,1,,,,,,,,
,,,,,,,,,,,,,FF,,,,,,,,0.8331,,,,,,,,,,,,,,,,,,,,,,61008a516a9d46f003cb6555,61036dde9e8d31fb246e275f,2021-07-29_23h11.56.684,Simcolourproject_2stim_asymm_v5,2020.2.10,Win32,60,61025ae37ef11b136ea224fe,,,,,,,,,358,88.0000217,33.99999028,1,0,0,response1disk,,6,0.66668576,1.333322644,1,0,0,rectangle,0.66668576,1.333322644,1,0,0,0.66668576,1.333322644,1,0,0,1,13,173,154,1,,,,,,,,
,,,,,,,,,,,,,FF,,,,,,,,0.8157,,,,,,,,,,,,,,,,,,,,,,61008a516a9d46f003cb6555,61036dde9e8d31fb246e275f,2021-07-29_23h11.56.684,Simcolourproject_2stim_asymm_v5,2020.2.10,Win32,60,61025ae37ef11b136ea224fe,,,,,,,,,2368,-67.99998295,35.99999034,1,0,0,response7disk,,1,4.666685879,5.333322763,1,0,0,rectangle,4.666685879,5.333322763,1,0,0,4.666685879,5.333322763,1,0,0,1,14,174,89,1,,,,,,,,
,,,,,,,,,,,,,FF,,,,,,,,1.1832,,,,,,,,,,,,,,,,,,,,,,61008a516a9d46f003cb6555,61036dde9e8d31fb246e275f,2021-07-29_23h11.56.684,Simcolourproject_2stim_asymm_v5,2020.2.10,Win32,60,61025ae37ef11b136ea224fe,,,,,,,,,2849,73.33335459,-35.33334512,1,0,0,response3disk,,5,-3.999981046,-4.000010848,1,0,0,rectangle,-3.999981046,-4.000010848,1,0,0,-3.999981046,-4.000010848,1,0,0,1,15,175,105,1,,,,,,,,
,,,,,,,,,,,,,FF,,,,,,,,1.0963,,,,,,,,,,,,,,,,,,,,,,61008a516a9d46f003cb6555,61036dde9e8d31fb246e275f,2021-07-29_23h11.56.684,Simcolourproject_2stim_asymm_v5,2020.2.10,Win32,60,61025ae37ef11b136ea224fe,,,,,,,,,3824,-34.66660794,-80.00001311,1,0,0,response5disk,,3,11.33339343,1.999989331,1,0,0,rectangle,11.33339343,1.999989331,1,0,0,11.33339343,1.999989331,1,0,0,1,16,176,76,1,,,,,,,,
,,,,,,,,,,,,,FF,,,,,,,,1,,,,,,,,,,,,,,,,,,,,,,61008a516a9d46f003cb6555,61036dde9e8d31fb246e275f,2021-07-29_23h11.56.684,Simcolourproject_2stim_asymm_v5,2020.2.10,Win32,60,61025ae37ef11b136ea224fe,,,,,,,,,2475,70.00002116,-36.66667849,1,0,0,response3disk,,5,-2.666606983,6.666656137,1,0,0,rectangle,-2.666606983,6.666656137,1,0,0,-2.666606983,6.666656137,1,0,0,1,17,177,103,1,,,,,,,,
,,,,,,,,,,,,,FF,,,,,,,,0.8531,,,,,,,,,,,,,,,,,,,,,,61008a516a9d46f003cb6555,61036dde9e8d31fb246e275f,2021-07-29_23h11.56.684,Simcolourproject_2stim_asymm_v5,2020.2.10,Win32,60,61025ae37ef11b136ea224fe,,,,,,,,,2445,52.66668731,-36.66667849,1,0,0,response3disk,,5,9.333393375,-1.07288E-05,1,0,0,rectangle,9.333393375,-1.07288E-05,1,0,0,9.333393375,-1.07288E-05,1,0,0,1,18,178,125,1,,,,,,,,
,,,,,,,,,,,,,FF,,,,,,,,0.9161,,,,,,,,,,,,,,,,,,,,,,61008a516a9d46f003cb6555,61036dde9e8d31fb246e275f,2021-07-29_23h11.56.684,Simcolourproject_2stim_asymm_v5,2020.2.10,Win32,60,61025ae37ef11b136ea224fe,,,,,,,,,2397,89.33335507,35.33330331,1,0,0,response1disk,,6,9.333393375,9.333322883,1,0,0,rectangle,9.333393375,9.333322883,1,0,0,9.333393375,9.333322883,1,0,0,1,19,179,109,1,,,,,,,,
,,,,,,,,,,,,,FF,,,,,,,,1.5327,,,,,,,,,,,,,,,,,,,,,,61008a516a9d46f003cb6555,61036dde9e8d31fb246e275f,2021-07-29_23h11.56.684,Simcolourproject_2stim_asymm_v5,2020.2.10,Win32,60,61025ae37ef11b136ea224fe,,,,,,,,,2394,88.66668838,-41.33334529,1,0,0,response3disk,,5,15.33339355,-4.000010848,1,0,0,rectangle,15.33339355,-4.000010848,1,0,0,15.33339355,-4.000010848,1,0,0,1,20,180,119,1,,,,,,,,
,,,,,,,,,,,,,FF,,,,,,,,0.7659,,,,,,,,,,,,,,,,,,,,,,61008a516a9d46f003cb6555,61036dde9e8d31fb246e275f,2021-07-29_23h11.56.684,Simcolourproject_2stim_asymm_v5,2020.2.10,Win32,60,61025ae37ef11b136ea224fe,,,,,,,,,2074,78.66668808,-34.00001174,1,0,0,response3disk,,5,-1.999980986,-4.000010848,1,0,0,rectangle,-1.999980986,-4.000010848,1,0,0,-1.999980986,-4.000010848,1,0,0,1,21,181,150,1,,,,,,,,
,,,,,,,,,,,,,FF,,,,,,,,0.9156,,,,,,,,,,,,,,,,,,,,,,61008a516a9d46f003cb6555,61036dde9e8d31fb246e275f,2021-07-29_23h11.56.684,Simcolourproject_2stim_asymm_v5,2020.2.10,Win32,60,61025ae37ef11b136ea224fe,,,,,,,,,3230,34.00002009,73.99999148,1,0,0,response1disk,,7,-3.333314359,10.66665626,1,0,0,rectangle,-3.333314359,10.66665626,1,0,0,-3.333314359,10.66665626,1,0,0,1,22,182,6,1,,,,,,,,
,,,,,,,,,,,,,FF,,,,,,,,0.8042,,,,,,,,,,,,,,,,,,,,,,61008a516a9d46f003cb6555,61036dde9e8d31fb246e275f,2021-07-29_23h11.56.684,Simcolourproject_2stim_asymm_v5,2020.2.10,Win32,60,61025ae37ef11b136ea224fe,,,,,,,,,926,32.66668671,79.99999166,1,0,0,response1disk,,7,12.00001943,6.666656137,1,0,0,rectangle,12.00001943,6.666656137,1,0,0,12.00001943,6.666656137,1,0,0,1,23,183,88,1,,,,,,,,
,,,,,,,,,,,,,FF,,,,,,,,0.6835,,,,,,,,,,,,,,,,,,,,,,61008a516a9d46f003cb6555,61036dde9e8d31fb246e275f,2021-07-29_23h11.56.684,Simcolourproject_2stim_asymm_v5,2020.2.10,Win32,60,61025ae37ef11b136ea224fe,,,,,,,,,3183,84.66668826,37.9999904,1,0,0,response1disk,,6,13.33339349,0.666655958,1,0,0,rectangle,13.33339349,0.666655958,1,0,0,13.33339349,0.666655958,1,0,0,1,24,184,136,1,,,,,,,,
,,,,,,,,,,,,,FF,,,,,,,,1.0496,,,,,,,,,,,,,,,,,,,,,,61008a516a9d46f003cb6555,61036dde9e8d31fb246e275f,2021-07-29_23h11.56.684,Simcolourproject_2stim_asymm_v5,2020.2.10,Win32,60,61025ae37ef11b136ea224fe,,,,,,,,,3584,-77.99998325,-17.33334458,1,0,0,response5disk,,2,-26.6666077,-3.333344162,1,0,0,rectangle,-26.6666077,-3.333344162,1,0,0,-26.6666077,-3.333344162,1,0,0,1,25,185,104,1,,,,,,,,
,,,,,,,,,,,,,FF,,,,,,,,2.1158,,,,,,,,,,,,,,,,,,,,,,61008a516a9d46f003cb6555,61036dde9e8d31fb246e275f,2021-07-29_23h11.56.684,Simcolourproject_2stim_asymm_v5,2020.2.10,Win32,60,61025ae37ef11b136ea224fe,,,,,,,,,3333,-66.66660889,-43.33334535,1,0,0,response5disk,,2,-5.333314419,12.66665632,1,0,0,rectangle,-5.333314419,12.66665632,1,0,0,-5.333314419,12.66665632,1,0,0,1,26,186,73,1,,,,,,,,
,,,,,,,,,,,,,FF,,,,,,,,0.933,,,,,,,,,,,,,,,,,,,,,,61008a516a9d46f003cb6555,61036dde9e8d31fb246e275f,2021-07-29_23h11.56.684,Simcolourproject_2stim_asymm_v5,2020.2.10,Win32,60,61025ae37ef11b136ea224fe,,,,,,,,,1073,93.33335519,-39.33334523,1,0,0,response3disk,,5,1.333393137,6.666656137,1,0,0,rectangle,38.66668689,-80.6666798,1,0,0,1.333393137,-6.000010908,1,0,0,1,27,187,134,1,,response3disk_3,TRUE,4,4,"[80,319,188,201,279,18,121,78,135,46,90,198,84,269,26,114,227,58,276,191]",1.4163,rectangle
,,,,,,,,,,,,,FF,,,,,,,,0.8295,,,,,,,,,,,,,,,,,,,,,,61008a516a9d46f003cb6555,61036dde9e8d31fb246e275f,2021-07-29_23h11.56.684,Simcolourproject_2stim_asymm_v5,2020.2.10,Win32,60,61025ae37ef11b136ea224fe,,,,,,,,,4001,-75.3333165,-36.0000118,1,0,0,response5disk,,2,-10.66660722,0.666655958,1,0,0,rectangle,-10.66660722,0.666655958,1,0,0,-10.66660722,0.666655958,1,0,0,1,28,188,45,1,,,,,,,,
,,,,,,,,,,,,,FF,,,,,,,,0.9165,,,,,,,,,,,,,,,,,,,,,,61008a516a9d46f003cb6555,61036dde9e8d31fb246e275f,2021-07-29_23h11.56.684,Simcolourproject_2stim_asymm_v5,2020.2.10,Win32,60,61025ae37ef11b136ea224fe,,,,,,,,,3164,-27.99998176,-83.33334655,1,0,0,response5disk,,3,15.33339355,-6.000010908,1,0,0,rectangle,15.33339355,-6.000010908,1,0,0,15.33339355,-6.000010908,1,0,0,1,29,189,98,1,,,,,,,,
,,,,,,,,,,,,,FF,,,,,,,,1.799,,,,,,,,,,,,,,,,,,,,,,61008a516a9d46f003cb6555,61036dde9e8d31fb246e275f,2021-07-29_23h11.56.684,Simcolourproject_2stim_asymm_v5,2020.2.10,Win32,60,61025ae37ef11b136ea224fe,,,,,,,,,3564,34.66668677,-87.33334666,1,0,0,response3disk,,4,9.333393375,1.999989331,1,0,0,rectangle,-40.66660812,-76.00001299,1,0,0,1.333393137,1.999989331,1,0,0,1,30,190,102,1,,response5disk_3,TRUE,3,3,"[80,319,188,201,279,18,121,78,135,46,90,198,84,269,26,114,227,58,276,191]",1.4536,rectangle
,,,,,,,,,,,,,FF,,,,,,,,1.1159,,,,,,,,,,,,,,,,,,,,,,61008a516a9d46f003cb6555,61036dde9e8d31fb246e275f,2021-07-29_23h11.56.684,Simcolourproject_2stim_asymm_v5,2020.2.10,Win32,60,61025ae37ef11b136ea224fe,,,,,,,,,2690,-34.66660794,-68.00001276,1,0,0,response5disk,,3,1.333393137,-1.07288E-05,1,0,0,rectangle,1.333393137,-1.07288E-05,1,0,0,1.333393137,-1.07288E-05,1,0,0,1,31,191,18,1,,,,,,,,
,,,,,,,,,,,,,FF,,,,,,,,1.2155,,,,,,,,,,,,,,,,,,,,,,61008a516a9d46f003cb6555,61036dde9e8d31fb246e275f,2021-07-29_23h11.56.684,Simcolourproject_2stim_asymm_v5,2020.2.10,Win32,60,61025ae37ef11b136ea224fe,,,,,,,,,3443,58.66668749,-39.33334523,1,0,0,response3disk,,5,19.33339367,-4.666677535,1,0,0,rectangle,19.33339367,-4.666677535,1,0,0,19.33339367,-4.666677535,1,0,0,1,32,192,55,1,,,,,,,,
,,,,,,,,,,,,,FF,,,,,,,,0.8501,,,,,,,,,,,,,,,,,,,,,,61008a516a9d46f003cb6555,61036dde9e8d31fb246e275f,2021-07-29_23h11.56.684,Simcolourproject_2stim_asymm_v5,2020.2.10,Win32,60,61025ae37ef11b136ea224fe,,,,,,,,,2585,62.66668761,27.33330307,1,0,0,response1disk,,6,1.333393137,10.66665626,1,0,0,rectangle,1.333393137,10.66665626,1,0,0,1.333393137,10.66665626,1,0,0,1,33,193,30,1,,,,,,,,
,,,,,,,,,,,,,FF,,,,,,,,0.8327,,,,,,,,,,,,,,,,,,,,,,61008a516a9d46f003cb6555,61036dde9e8d31fb246e275f,2021-07-29_23h11.56.684,Simcolourproject_2stim_asymm_v5,2020.2.10,Win32,60,61025ae37ef11b136ea224fe,,,,,,,,,2615,-79.99998331,-33.33334506,1,0,0,response5disk,,2,11.33339343,-2.000010788,1,0,0,rectangle,11.33339343,-2.000010788,1,0,0,11.33339343,-2.000010788,1,0,0,1,34,194,132,1,,,,,,,,
,,,,,,,,,,,,,FF,,,,,,,,0.9993,,,,,,,,,,,,,,,,,,,,,,61008a516a9d46f003cb6555,61036dde9e8d31fb246e275f,2021-07-29_23h11.56.684,Simcolourproject_2stim_asymm_v5,2020.2.10,Win32,60,61025ae37ef11b136ea224fe,,,,,,,,,860,39.33339427,-62.00001258,1,0,0,response3disk,,4,10.66668606,-2.666677475,1,0,0,rectangle,10.66668606,-2.666677475,1,0,0,10.66668606,-2.666677475,1,0,0,1,35,195,115,1,,,,,,,,
,,,,,,,,,,,,,FF,,,,,,,,0.9657,,,,,,,,,,,,,,,,,,,,,,61008a516a9d46f003cb6555,61036dde9e8d31fb246e275f,2021-07-29_23h11.56.684,Simcolourproject_2stim_asymm_v5,2020.2.10,Win32,60,61025ae37ef11b136ea224fe,,,,,,,,,1560,94.00002187,42.66665721,1,0,0,response1disk,,6,-3.999981046,-1.333344102,1,0,0,rectangle,-3.999981046,-1.333344102,1,0,0,-3.999981046,-1.333344102,1,0,0,1,36,196,26,1,,,,,,,,
,,,,,,,,,,,,,FF,,,,,,,,1.4155,,,,,,,,,,,,,,,,,,,,,,61008a516a9d46f003cb6555,61036dde9e8d31fb246e275f,2021-07-29_23h11.56.684,Simcolourproject_2stim_asymm_v5,2020.2.10,Win32,60,61025ae37ef11b136ea224fe,,,,,,,,,1675,-73.33331645,-42.66667867,1,0,0,response5disk,,2,0.66668576,-4.666677535,1,0,0,rectangle,-26.6666077,67.33330427,1,0,0,-9.999981225,-7.333344281,1,0,0,1,37,197,10,1,,response7disk_3,TRUE,0,0,"[80,319,188,201,279,18,121,78,135,46,90,198,84,269,26,114,227,58,276,191]",1.8321,rectangle
,,,,,,,,,,,,,FF,,,,,,,,0.8665,,,,,,,,,,,,,,,,,,,,,,61008a516a9d46f003cb6555,61036dde9e8d31fb246e275f,2021-07-29_23h11.56.684,Simcolourproject_2stim_asymm_v5,2020.2.10,Win32,60,61025ae37ef11b136ea224fe,,,,,,,,,2781,-83.99998343,45.99999064,1,0,0,response7disk,,1,-12.66660728,4.666656077,1,0,0,rectangle,-12.66660728,4.666656077,1,0,0,-12.66660728,4.666656077,1,0,0,1,38,198,83,1,,,,,,,,
,,,,,,,,,,,,,FF,,,,,,,,1.2166,,,,,,,,,,,,,,,,,,,,,,61008a516a9d46f003cb6555,61036dde9e8d31fb246e275f,2021-07-29_23h11.56.684,Simcolourproject_2stim_asymm_v5,2020.2.10,Win32,60,61025ae37ef11b136ea224fe,,,,,,,,,477,30.66668665,-71.33334619,1,0,0,response3disk,,4,-11.99998128,13.333323,1,0,0,rectangle,-11.99998128,13.333323,1,0,0,-11.99998128,13.333323,1,0,0,1,39,199,29,1,,,,,,,,
,,,,,,,,,,,,,FF,,,,,,,,0.8995,,,,,,,,,,,,,,,,,,,,,,61008a516a9d46f003cb6555,61036dde9e8d31fb246e275f,2021-07-29_23h11.56.684,Simcolourproject_2stim_asymm_v5,2020.2.10,Win32,60,61025ae37ef11b136ea224fe,,,,,,,,,4317,83.33335489,-49.33334553,1,0,0,response3disk,,5,4.000019193,5.333322763,1,0,0,rectangle,-79.33331662,46.66665733,1,0,0,5.333393256,5.99998945,1,0,0,1,40,200,146,1,,response7disk_3,TRUE,1,1,"[80,319,188,201,279,18,121,78,135,46,90,198,84,269,26,114,227,58,276,191]",1.3661,rectangle
,,,,,,,,,,,,,FF,,,,,,,,0.9047,,,,,,,,,,,,,,,,,,,,,,61008a516a9d46f003cb6555,61036dde9e8d31fb246e275f,2021-07-29_23h11.56.684,Simcolourproject_2stim_asymm_v5,2020.2.10,Win32,60,61025ae37ef11b136ea224fe,,,,,,,,,313,57.33335412,22.66665661,1,0,0,response1disk,,6,-6.666607102,-4.666677535,1,0,0,rectangle,-6.666607102,-4.666677535,1,0,0,-6.666607102,-4.666677535,1,0,0,1,41,201,143,1,,,,,,,,
,,,,,,,,,,,,,FF,,,,,,,,1.8202,,,,,,,,,,,,,,,,,,,,,,61008a516a9d46f003cb6555,61036dde9e8d31fb246e275f,2021-07-29_23h11.56.684,Simcolourproject_2stim_asymm_v5,2020.2.10,Win32,60,61025ae37ef11b136ea224fe,,,,,,,,,1442,-50.66660841,-86.00001329,1,0,0,response5disk,,3,-12.66660728,-6.000010908,1,0,0,rectangle,-12.66660728,-6.000010908,1,0,0,-12.66660728,-6.000010908,1,0,0,1,42,202,135,1,,,,,,,,
,,,,,,,,,,,,,FF,,,,,,,,1.1827,,,,,,,,,,,,,,,,,,,,,,61008a516a9d46f003cb6555,61036dde9e8d31fb246e275f,2021-07-29_23h11.56.684,Simcolourproject_2stim_asymm_v5,2020.2.10,Win32,60,61025ae37ef11b136ea224fe,,,,,,,,,3579,32.66668671,-78.66667974,1,0,0,response3disk,,4,-3.333314359,7.99998951,1,0,0,rectangle,-3.333314359,7.99998951,1,0,0,-3.333314359,7.99998951,1,0,0,1,43,203,22,1,,,,,,,,
,,,,,,,,,,,,,FF,,,,,,,,1.3161,,,,,,,,,,,,,,,,,,,,,,61008a516a9d46f003cb6555,61036dde9e8d31fb246e275f,2021-07-29_23h11.56.684,Simcolourproject_2stim_asymm_v5,2020.2.10,Win32,60,61025ae37ef11b136ea224fe,,,,,,,,,1717,34.66668677,-68.66667944,1,0,0,response3disk,,4,3.333393196,-6.666677594,1,0,0,rectangle,3.333393196,-6.666677594,1,0,0,3.333393196,-6.666677594,1,0,0,1,44,204,149,1,,,,,,,,
,,,,,,,,,,,,,FF,,,,,,,,1.2325,,,,,,,,,,,,,,,,,,,,,,61008a516a9d46f003cb6555,61036dde9e8d31fb246e275f,2021-07-29_23h11.56.684,Simcolourproject_2stim_asymm_v5,2020.2.10,Win32,60,61025ae37ef11b136ea224fe,,,,,,,,,2656,-25.33331501,-59.33334583,1,0,0,response5disk,,3,15.33339355,4.666656077,1,0,0,rectangle,15.33339355,4.666656077,1,0,0,15.33339355,4.666656077,1,0,0,1,45,205,54,1,,,,,,,,
,,,,,,,,,,,,,FF,,,,,,,,1.3164,,,,,,,,,,,,,,,,,,,,,,61008a516a9d46f003cb6555,61036dde9e8d31fb246e275f,2021-07-29_23h11.56.684,Simcolourproject_2stim_asymm_v5,2020.2.10,Win32,60,61025ae37ef11b136ea224fe,,,,,,,,,3163,-67.99998295,-36.66667849,1,0,0,response5disk,,2,1.9735E-05,5.333322763,1,0,0,rectangle,1.9735E-05,5.333322763,1,0,0,1.9735E-05,5.333322763,1,0,0,1,46,206,157,1,,,,,,,,
,,,,,,,,,,,,,FF,,,,,,,,1.1661,,,,,,,,,,,,,,,,,,,,,,61008a516a9d46f003cb6555,61036dde9e8d31fb246e275f,2021-07-29_23h11.56.684,Simcolourproject_2stim_asymm_v5,2020.2.10,Win32,60,61025ae37ef11b136ea224fe,,,,,,,,,2830,86.00002164,45.99999064,1,0,0,response1disk,,6,-5.333314419,2.666656017,1,0,0,rectangle,-5.333314419,2.666656017,1,0,0,-5.333314419,2.666656017,1,0,0,1,47,207,68,1,,,,,,,,
,,,,,,,,,,,,,FF,,,,,,,,0.7996,,,,,,,,,,,,,,,,,,,,,,61008a516a9d46f003cb6555,61036dde9e8d31fb246e275f,2021-07-29_23h11.56.684,Simcolourproject_2stim_asymm_v5,2020.2.10,Win32,60,61025ae37ef11b136ea224fe,,,,,,,,,2625,44.66668707,74.66665816,1,0,0,response1disk,,7,8.000019312,-1.333344102,1,0,0,rectangle,8.000019312,-1.333344102,1,0,0,8.000019312,-1.333344102,1,0,0,1,48,208,62,1,,,,,,,,
,,,,,,,,,,,,,FF,,,,,,,,1.5993,,,,,,,,,,,,,,,,,,,,,,61008a516a9d46f003cb6555,61036dde9e8d31fb246e275f,2021-07-29_23h11.56.684,Simcolourproject_2stim_asymm_v5,2020.2.10,Win32,60,61025ae37ef11b136ea224fe,,,,,,,,,4313,96.00002193,29.99999017,1,0,0,response1disk,,6,22.00001973,11.99998963,1,0,0,rectangle,22.00001973,11.99998963,1,0,0,22.00001973,11.99998963,1,0,0,1,49,209,13,1,,,,,,,,
,,,,,,,,,,,,,FF,,,,,,,,0.9495,,,,,,,,,,,,,,,,,,,,,,61008a516a9d46f003cb6555,61036dde9e8d31fb246e275f,2021-07-29_23h11.56.684,Simcolourproject_2stim_asymm_v5,2020.2.10,Win32,60,61025ae37ef11b136ea224fe,,,,,,,,,2516,65.33335435,-34.00001174,1,0,0,response3disk,,5,-3.999981046,13.99998969,1,0,0,rectangle,-3.999981046,13.99998969,1,0,0,-3.999981046,13.99998969,1,0,0,1,50,210,43,1,,,,,,,,
,,,,,,,,,,,,,FF,,,,,,,,1.2002,,,,,,,,,,,,,,,,,,,,,,61008a516a9d46f003cb6555,61036dde9e8d31fb246e275f,2021-07-29_23h11.56.684,Simcolourproject_2stim_asymm_v5,2020.2.10,Win32,60,61025ae37ef11b136ea224fe,,,,,,,,,2881,-29.33331513,-85.33334661,1,0,0,response5disk,,3,15.33339355,-3.333344162,1,0,0,rectangle,15.33339355,-3.333344162,1,0,0,15.33339355,-3.333344162,1,0,0,1,51,211,75,1,,,,,,,,
,,,,,,,,,,,,,FF,,,,,,,,1.1329,,,,,,,,,,,,,,,,,,,,,,61008a516a9d46f003cb6555,61036dde9e8d31fb246e275f,2021-07-29_23h11.56.684,Simcolourproject_2stim_asymm_v5,2020.2.10,Win32,60,61025ae37ef11b136ea224fe,,,,,,,,,3306,86.66668832,28.66665679,1,0,0,response1disk,,6,13.33339349,-4.666677535,1,0,0,rectangle,13.33339349,-4.666677535,1,0,0,13.33339349,-4.666677535,1,0,0,1,52,212,112,1,,,,,,,,
,,,,,,,,,,,,,FF,,,,,,,,1.6195,,,,,,,,,,,,,,,,,,,,,,61008a516a9d46f003cb6555,61036dde9e8d31fb246e275f,2021-07-29_23h11.56.684,Simcolourproject_2stim_asymm_v5,2020.2.10,Win32,60,61025ae37ef11b136ea224fe,,,,,,,,,3977,61.33335423,-30.66667831,1,0,0,response3disk,,5,-9.333314538,2.666656017,1,0,0,rectangle,-9.333314538,2.666656017,1,0,0,-9.333314538,2.666656017,1,0,0,1,53,213,116,1,,,,,,,,
,,,,,,,,,,,,,FF,,,,,,,,0.8541,,,,,,,,,,,,,,,,,,,,,,61008a516a9d46f003cb6555,61036dde9e8d31fb246e275f,2021-07-29_23h11.56.684,Simcolourproject_2stim_asymm_v5,2020.2.10,Win32,60,61025ae37ef11b136ea224fe,,,,,,,,,4325,51.33335394,69.99999136,1,0,0,response1disk,,7,9.333393375,-1.07288E-05,1,0,0,rectangle,9.333393375,-1.07288E-05,1,0,0,9.333393375,-1.07288E-05,1,0,0,1,54,214,0,1,,,,,,,,
,,,,,,,,,,,,,FF,,,,,,,,0.6997,,,,,,,,,,,,,,,,,,,,,,61008a516a9d46f003cb6555,61036dde9e8d31fb246e275f,2021-07-29_23h11.56.684,Simcolourproject_2stim_asymm_v5,2020.2.10,Win32,60,61025ae37ef11b136ea224fe,,,,,,,,,1273,47.33335382,75.99999154,1,0,0,response1disk,,7,8.000019312,2.666656017,1,0,0,rectangle,8.000019312,2.666656017,1,0,0,8.000019312,2.666656017,1,0,0,1,55,215,72,1,,,,,,,,
,,,,,,,,,,,,,FF,,,,,,,,1.0325,,,,,,,,,,,,,,,,,,,,,,61008a516a9d46f003cb6555,61036dde9e8d31fb246e275f,2021-07-29_23h11.56.684,Simcolourproject_2stim_asymm_v5,2020.2.10,Win32,60,61025ae37ef11b136ea224fe,,,,,,,,,3152,-46.66660829,-37.33334517,1,0,0,response5disk,,2,2.000019133,9.333322883,1,0,0,rectangle,2.000019133,9.333322883,1,0,0,2.000019133,9.333322883,1,0,0,1,56,216,60,1,,,,,,,,
,,,,,,,,,,,,,FF,,,,,,,,0.7325,,,,,,,,,,,,,,,,,,,,,,61008a516a9d46f003cb6555,61036dde9e8d31fb246e275f,2021-07-29_23h11.56.684,Simcolourproject_2stim_asymm_v5,2020.2.10,Win32,60,61025ae37ef11b136ea224fe,,,,,,,,,885,-28.66660776,75.99999154,1,0,0,response7disk,,0,7.333393315,-3.333344162,1,0,0,rectangle,7.333393315,-3.333344162,1,0,0,7.333393315,-3.333344162,1,0,0,1,57,217,140,1,,,,,,,,
,,,,,,,,,,,,,FF,,,,,,,,0.8047,,,,,,,,,,,,,,,,,,,,,,61008a516a9d46f003cb6555,61036dde9e8d31fb246e275f,2021-07-29_23h11.56.684,Simcolourproject_2stim_asymm_v5,2020.2.10,Win32,60,61025ae37ef11b136ea224fe,,,,,,,,,1991,76.00002134,25.99999005,1,0,0,response1disk,,6,-20.66660752,3.99998939,1,0,0,rectangle,-20.66660752,3.99998939,1,0,0,-20.66660752,3.99998939,1,0,0,1,58,218,155,1,,,,,,,,
,,,,,,,,,,,,,FF,,,,,,,,0.9333,,,,,,,,,,,,,,,,,,,,,,61008a516a9d46f003cb6555,61036dde9e8d31fb246e275f,2021-07-29_23h11.56.684,Simcolourproject_2stim_asymm_v5,2020.2.10,Win32,60,61025ae37ef11b136ea224fe,,,,,,,,,3777,-65.33331621,-30.66667831,1,0,0,response5disk,,2,-3.999981046,-6.666677594,1,0,0,rectangle,-3.999981046,-6.666677594,1,0,0,-3.999981046,-6.666677594,1,0,0,1,59,219,4,1,,,,,,,,
,,,,,,,,,,,,,FF,,,,,,,,0.8333,,,,,,,,,,,,,,,,,,,,,,61008a516a9d46f003cb6555,61036dde9e8d31fb246e275f,2021-07-29_23h11.56.684,Simcolourproject_2stim_asymm_v5,2020.2.10,Win32,60,61025ae37ef11b136ea224fe,,,,,,,,,1433,-71.99998307,-34.00001174,1,0,0,response5disk,,2,-5.999981105,4.666656077,1,0,0,rectangle,-5.999981105,4.666656077,1,0,0,-5.999981105,4.666656077,1,0,0,1,60,220,141,1,,,,,,,,
,,,,,,,,,,,,,FF,,,,,,,,3.8981,,,,,,,,,,,,,,,,,,,,,,61008a516a9d46f003cb6555,61036dde9e8d31fb246e275f,2021-07-29_23h11.56.684,Simcolourproject_2stim_asymm_v5,2020.2.10,Win32,60,61025ae37ef11b136ea224fe,,,,,,,,,1453,-69.33331633,30.66665685,1,0,0,response7disk,,1,19.33339367,-3.333344162,1,0,0,rectangle,19.33339367,-3.333344162,1,0,0,19.33339367,-3.333344162,1,0,0,1,61,221,91,1,,,,,,,,
,,,,,,,,,,,,,FF,,,,,,,,1.233,,,,,,,,,,,,,,,,,,,,,,61008a516a9d46f003cb6555,61036dde9e8d31fb246e275f,2021-07-29_23h11.56.684,Simcolourproject_2stim_asymm_v5,2020.2.10,Win32,60,61025ae37ef11b136ea224fe,,,,,,,,,2912,74.00002128,33.99999028,1,0,0,response1disk,,6,-8.666607161,-1.07288E-05,1,0,0,rectangle,-8.666607161,-1.07288E-05,1,0,0,-8.666607161,-1.07288E-05,1,0,0,1,62,222,153,1,,,,,,,,
,,,,,,,,,,,,,FF,,,,,,,,0.9376,,,,,,,,,,,,,,,,,,,,,,61008a516a9d46f003cb6555,61036dde9e8d31fb246e275f,2021-07-29_23h11.56.684,Simcolourproject_2stim_asymm_v5,2020.2.10,Win32,60,61025ae37ef11b136ea224fe,,,,,,,,,1657,102.6666888,41.33330349,1,0,0,response1disk,,6,16.00001955,4.666656077,1,0,0,rectangle,16.00001955,4.666656077,1,0,0,16.00001955,4.666656077,1,0,0,1,63,223,133,1,,,,,,,,
,,,,,,,,,,,,,FF,,,,,,,,1.218,,,,,,,,,,,,,,,,,,,,,,61008a516a9d46f003cb6555,61036dde9e8d31fb246e275f,2021-07-29_23h11.56.684,Simcolourproject_2stim_asymm_v5,2020.2.10,Win32,60,61025ae37ef11b136ea224fe,,,,,,,,,2994,-50.66660841,-79.33334643,1,0,0,response5disk,,3,1.333393137,-2.666677475,1,0,0,rectangle,1.333393137,-2.666677475,1,0,0,1.333393137,-2.666677475,1,0,0,1,64,224,70,1,,,,,,,,
,,,,,,,,,,,,,FF,,,,,,,,1.9329,,,,,,,,,,,,,,,,,,,,,,61008a516a9d46f003cb6555,61036dde9e8d31fb246e275f,2021-07-29_23h11.56.684,Simcolourproject_2stim_asymm_v5,2020.2.10,Win32,60,61025ae37ef11b136ea224fe,,,,,,,,,316,49.33335388,97.99999219,1,0,0,response1disk,,7,12.66668612,4.666656077,1,0,0,rectangle,12.66668612,4.666656077,1,0,0,12.66668612,4.666656077,1,0,0,1,65,225,113,1,,,,,,,,
,,,,,,,,,,,,,FF,,,,,,,,0.8829,,,,,,,,,,,,,,,,,,,,,,61008a516a9d46f003cb6555,61036dde9e8d31fb246e275f,2021-07-29_23h11.56.684,Simcolourproject_2stim_asymm_v5,2020.2.10,Win32,60,61025ae37ef11b136ea224fe,,,,,,,,,3327,71.33335453,41.33330349,1,0,0,response1disk,,6,6.666685939,-6.000010908,1,0,0,rectangle,76.66668802,-42.00001198,1,0,0,5.333393256,-2.000010788,1,0,0,1,66,226,137,1,,response3disk_3,TRUE,5,5,"[80,319,188,201,279,18,121,78,135,46,90,198,84,269,26,114,227,58,276,191]",1.6163,rectangle
,,,,,,,,,,,,,FF,,,,,,,,1.0333,,,,,,,,,,,,,,,,,,,,,,61008a516a9d46f003cb6555,61036dde9e8d31fb246e275f,2021-07-29_23h11.56.684,Simcolourproject_2stim_asymm_v5,2020.2.10,Win32,60,61025ae37ef11b136ea224fe,,,,,,,,,1579,-40.66660812,-84.66667992,1,0,0,response5disk,,3,1.333393137,-1.07288E-05,1,0,0,rectangle,1.333393137,-1.07288E-05,1,0,0,1.333393137,-1.07288E-05,1,0,0,1,67,227,152,1,,,,,,,,
,,,,,,,,,,,,,FF,,,,,,,,0.9171,,,,,,,,,,,,,,,,,,,,,,61008a516a9d46f003cb6555,61036dde9e8d31fb246e275f,2021-07-29_23h11.56.684,Simcolourproject_2stim_asymm_v5,2020.2.10,Win32,60,61025ae37ef11b136ea224fe,,,,,,,,,3087,58.0000208,98.66665888,1,0,0,response1disk,,7,8.000019312,-8.000010967,1,0,0,rectangle,8.000019312,-8.000010967,1,0,0,8.000019312,-8.000010967,1,0,0,1,68,228,58,1,,,,,,,,
,,,,,,,,,,,,,FF,,,,,,,,0.7827,,,,,,,,,,,,,,,,,,,,,,61008a516a9d46f003cb6555,61036dde9e8d31fb246e275f,2021-07-29_23h11.56.684,Simcolourproject_2stim_asymm_v5,2020.2.10,Win32,60,61025ae37ef11b136ea224fe,,,,,,,,,3993,-25.33331501,80.66665834,1,0,0,response7disk,,0,1.333393137,4.666656077,1,0,0,rectangle,1.333393137,4.666656077,1,0,0,1.333393137,4.666656077,1,0,0,1,69,229,120,1,,,,,,,,
,,,,,,,,,,,,,FF,,,,,,,,0.6878,,,,,,,,,,,,,,,,,,,,,,61008a516a9d46f003cb6555,61036dde9e8d31fb246e275f,2021-07-29_23h11.56.684,Simcolourproject_2stim_asymm_v5,2020.2.10,Win32,60,61025ae37ef11b136ea224fe,,,,,,,,,543,-24.66660764,57.999991,1,0,0,response7disk,,0,-1.3333143,-6.666677594,1,0,0,rectangle,-1.3333143,-6.666677594,1,0,0,-1.3333143,-6.666677594,1,0,0,1,70,230,118,1,,,,,,,,
,,,,,,,,,,,,,FF,,,,,,,,1.3663,,,,,,,,,,,,,,,,,,,,,,61008a516a9d46f003cb6555,61036dde9e8d31fb246e275f,2021-07-29_23h11.56.684,Simcolourproject_2stim_asymm_v5,2020.2.10,Win32,60,61025ae37ef11b136ea224fe,,,,,,,,,3575,24.00001979,-74.66667962,1,0,0,response3disk,,4,6.666685939,5.333322763,1,0,0,rectangle,6.666685939,5.333322763,1,0,0,6.666685939,5.333322763,1,0,0,1,71,231,59,1,,,,,,,,
,,,,,,,,,,,,,FF,,,,,,,,0.8993,,,,,,,,,,,,,,,,,,,,,,61008a516a9d46f003cb6555,61036dde9e8d31fb246e275f,2021-07-29_23h11.56.684,Simcolourproject_2stim_asymm_v5,2020.2.10,Win32,60,61025ae37ef11b136ea224fe,,,,,,,,,2721,-25.9999817,-72.00001287,1,0,0,response5disk,,3,8.666685998,-1.07288E-05,1,0,0,rectangle,8.666685998,-1.07288E-05,1,0,0,8.666685998,-1.07288E-05,1,0,0,1,72,232,16,1,,,,,,,,
,,,,,,,,,,,,,FF,,,,,,,,0.7498,,,,,,,,,,,,,,,,,,,,,,61008a516a9d46f003cb6555,61036dde9e8d31fb246e275f,2021-07-29_23h11.56.684,Simcolourproject_2stim_asymm_v5,2020.2.10,Win32,60,61025ae37ef11b136ea224fe,,,,,,,,,440,-36.666608,-88.66668004,1,0,0,response5disk,,3,-4.666607042,7.333322823,1,0,0,rectangle,-4.666607042,7.333322823,1,0,0,-4.666607042,7.333322823,1,0,0,1,73,233,48,1,,,,,,,,
,,,,,,,,,,,,,FF,,,,,,,,0.6991,,,,,,,,,,,,,,,,,,,,,,61008a516a9d46f003cb6555,61036dde9e8d31fb246e275f,2021-07-29_23h11.56.684,Simcolourproject_2stim_asymm_v5,2020.2.10,Win32,60,61025ae37ef11b136ea224fe,,,,,,,,,3513,-69.99998301,-42.66667867,1,0,0,response5disk,,2,-4.666607042,-10.00001103,1,0,0,rectangle,-4.666607042,-10.00001103,1,0,0,-4.666607042,-10.00001103,1,0,0,1,74,234,79,1,,,,,,,,
,,,,,,,,,,,,,FF,,,,,,,,0.9158,,,,,,,,,,,,,,,,,,,,,,61008a516a9d46f003cb6555,61036dde9e8d31fb246e275f,2021-07-29_23h11.56.684,Simcolourproject_2stim_asymm_v5,2020.2.10,Win32,60,61025ae37ef11b136ea224fe,,,,,,,,,1917,76.00002134,-29.33334494,1,0,0,response3disk,,5,31.33339403,3.99998939,1,0,0,rectangle,31.33339403,3.99998939,1,0,0,31.33339403,3.99998939,1,0,0,1,75,235,36,1,,,,,,,,
,,,,,,,,,,,,,FF,,,,,,,,0.7831,,,,,,,,,,,,,,,,,,,,,,61008a516a9d46f003cb6555,61036dde9e8d31fb246e275f,2021-07-29_23h11.56.684,Simcolourproject_2stim_asymm_v5,2020.2.10,Win32,60,61025ae37ef11b136ea224fe,,,,,,,,,145,70.66668785,37.33330337,1,0,0,response1disk,,6,-5.999981105,-6.000010908,1,0,0,rectangle,-5.999981105,-6.000010908,1,0,0,-5.999981105,-6.000010908,1,0,0,1,76,236,94,1,,,,,,,,
,,,,,,,,,,,,,FF,,,,,,,,0.9827,,,,,,,,,,,,,,,,,,,,,,61008a516a9d46f003cb6555,61036dde9e8d31fb246e275f,2021-07-29_23h11.56.684,Simcolourproject_2stim_asymm_v5,2020.2.10,Win32,60,61025ae37ef11b136ea224fe,,,,,,,,,728,-55.33331591,-42.00001198,1,0,0,response5disk,,2,20.00001967,3.99998939,1,0,0,rectangle,20.00001967,3.99998939,1,0,0,20.00001967,3.99998939,1,0,0,1,77,237,39,1,,,,,,,,
,,,,,,,,,,,,,FF,,,,,,,,1.1532,,,,,,,,,,,,,,,,,,,,,,61008a516a9d46f003cb6555,61036dde9e8d31fb246e275f,2021-07-29_23h11.56.684,Simcolourproject_2stim_asymm_v5,2020.2.10,Win32,60,61025ae37ef11b136ea224fe,,,,,,,,,3009,-20.66660752,-72.66667956,1,0,0,response5disk,,3,12.66668612,-10.66667771,1,0,0,rectangle,12.66668612,-10.66667771,1,0,0,12.66668612,-10.66667771,1,0,0,1,78,238,129,1,,,,,,,,
,,,,,,,,,,,,,FF,,,,,,,,0.816,,,,,,,,,,,,,,,,,,,,,,61008a516a9d46f003cb6555,61036dde9e8d31fb246e275f,2021-07-29_23h11.56.684,Simcolourproject_2stim_asymm_v5,2020.2.10,Win32,60,61025ae37ef11b136ea224fe,,,,,,,,,2618,62.66668761,-34.66667843,1,0,0,response3disk,,5,10.66668606,-12.00001109,1,0,0,rectangle,10.66668606,-12.00001109,1,0,0,10.66668606,-12.00001109,1,0,0,1,79,239,67,1,,,,,,,,
,,,,,,,,,,,,,FF,,,,,,,,0.9996,,,,,,,,,,,,,,,,,,,,,,61008a516a9d46f003cb6555,61036dde9e8d31fb246e275f,2021-07-29_23h11.56.684,Simcolourproject_2stim_asymm_v5,2020.2.10,Win32,60,61025ae37ef11b136ea224fe,,,,,,,,,3630,-28.66660776,81.33330468,1,0,0,response7disk,,0,21.33339373,-10.00001103,1,0,0,rectangle,21.33339373,-10.00001103,1,0,0,21.33339373,-10.00001103,1,0,0,1,80,240,108,1,,,,,,,,
,,,,,,,,,,,,,FF,,,,,,,,0.9322,,,,,,,,,,,,,,,,,,,,,,61008a516a9d46f003cb6555,61036dde9e8d31fb246e275f,2021-07-29_23h11.56.684,Simcolourproject_2stim_asymm_v5,2020.2.10,Win32,60,61025ae37ef11b136ea224fe,,,,,,,,,1240,70.00002116,43.99999058,1,0,0,response1disk,,6,2.000019133,-7.333344281,1,0,0,rectangle,2.000019133,-7.333344281,1,0,0,2.000019133,-7.333344281,1,0,0,1,81,241,49,1,,,,,,,,
,,,,,,,,,,,,,FF,,,,,,,,0.883,,,,,,,,,,,,,,,,,,,,,,61008a516a9d46f003cb6555,61036dde9e8d31fb246e275f,2021-07-29_23h11.56.684,Simcolourproject_2stim_asymm_v5,2020.2.10,Win32,60,61025ae37ef11b136ea224fe,,,,,,,,,493,51.33335394,87.33330486,1,0,0,response1disk,,7,-22.66660758,4.666656077,1,0,0,rectangle,-22.66660758,4.666656077,1,0,0,-22.66660758,4.666656077,1,0,0,1,82,242,121,1,,,,,,,,
