key_resp.keys,key_resp.rt,key_resp_14.keys,key_resp_14.rt,key_resp_15.keys,key_resp_15.rt,key_resp_17.keys,key_resp_17.rt,key_resp_9.keys,key_resp_9.rt,key_resp_10.keys,key_resp_10.rt,practice_comparison,Ecc,mouse_5.x,mouse_5.y,mouse_5.leftButton,mouse_5.midButton,mouse_5.rightButton,mouse_5.clicked_name,pracsimilarity,response_time,mouse_10.x,mouse_10.y,mouse_10.leftButton,mouse_10.midButton,mouse_10.rightButton,mouse_10.clicked_name,mouse_7.x,mouse_7.y,mouse_7.leftButton,mouse_7.midButton,mouse_7.rightButton,mouse_6.x,mouse_6.y,mouse_6.leftButton,mouse_6.midButton,mouse_6.rightButton,duringprac.thisRepN,duringprac.thisTrialN,duringprac.thisN,duringprac.thisIndex,duringprac.ran,participant,session,date,expName,psychopyVersion,OS,frameRate,study_id,mouse_7.clicked_name,catchpracsimilarity,catch_response_time,catchnumberprac,catchtrialorderprac,mouse_6.clicked_name,key_resp_22.keys,key_resp_22.rt,realcomparison,mouse.x,mouse.y,mouse.leftButton,mouse.midButton,mouse.rightButton,mouse.clicked_name,Colour2,similarity,mouse_2.x,mouse_2.y,mouse_2.leftButton,mouse_2.midButton,mouse_2.rightButton,mouse_2.clicked_name,mouse_3.x,mouse_3.y,mouse_3.leftButton,mouse_3.midButton,mouse_3.rightButton,mouse_11.x,mouse_11.y,mouse_11.leftButton,mouse_11.midButton,mouse_11.rightButton,trials_2.thisRepN,trials_2.thisTrialN,trials_2.thisN,trials_2.thisIndex,trials_2.ran,Colour1,mouse_3.clicked_name,catchornah,catchsimilarity,catchnumber,catchtrialorder,catchRT,mouse_11.clicked_name
space,1.9376,space,23.018855,space,14.860135,space,10.872505,space,5.186380001,space,3.250235,126,FF,18,56,1,0,0,response1disk_5,7,6.23666,-11,0,1,0,0,rectangle_8,-11,0,1,0,0,-11,0,1,0,0,0,0,0,5,1,6100434d983910e711b3a504,610365571e1a3fc0e82015cc,2021-07-29_21h38.34.022,Simcolourproject_2stim_asymm_v5,2020.2.10,Win32,60,61025ae37ef11b136ea224fe,,,,,,,,,,,,,,,,,,,,,,,,,,,,,,,,,,,,,,,,,,,,,,
,,,,,,,,,,,,136,PF,75,26,1,0,0,response1disk_5,6,6.048555,-8,6,1,0,0,rectangle_8,-84,42,1,0,0,0,2,1,0,0,0,1,1,4,1,6100434d983910e711b3a504,610365571e1a3fc0e82015cc,2021-07-29_21h38.34.022,Simcolourproject_2stim_asymm_v5,2020.2.10,Win32,60,61025ae37ef11b136ea224fe,response7disk_7,1,3.258134999,1,"[2,5]",rectangle_4,,,,,,,,,,,,,,,,,,,,,,,,,,,,,,,,,,,,,,,,
,,,,,,,,,,,,153,PF,42,69,1,0,0,response1disk_5,7,3.191625,-6,3,1,0,0,rectangle_8,-6,3,1,0,0,-6,3,1,0,0,0,2,2,2,1,6100434d983910e711b3a504,610365571e1a3fc0e82015cc,2021-07-29_21h38.34.022,Simcolourproject_2stim_asymm_v5,2020.2.10,Win32,60,61025ae37ef11b136ea224fe,,,,,,,,,,,,,,,,,,,,,,,,,,,,,,,,,,,,,,,,,,,,,,
,,,,,,,,,,,,16,FF,35,80,1,0,0,response1disk_5,7,3.972855,-3,-2,1,0,0,rectangle_8,-3,-2,1,0,0,-3,-2,1,0,0,0,3,3,0,1,6100434d983910e711b3a504,610365571e1a3fc0e82015cc,2021-07-29_21h38.34.022,Simcolourproject_2stim_asymm_v5,2020.2.10,Win32,60,61025ae37ef11b136ea224fe,,,,,,,,,,,,,,,,,,,,,,,,,,,,,,,,,,,,,,,,,,,,,,
,,,,,,,,,,,,64,PF,35,90,1,0,0,response1disk_5,7,4.155995,1,-7,1,0,0,rectangle_8,-72,45,1,0,0,-16,3,1,0,0,0,4,4,1,1,6100434d983910e711b3a504,610365571e1a3fc0e82015cc,2021-07-29_21h38.34.022,Simcolourproject_2stim_asymm_v5,2020.2.10,Win32,60,61025ae37ef11b136ea224fe,response7disk_7,1,2.24416,1,"[2,5]",rectangle_4,,,,,,,,,,,,,,,,,,,,,,,,,,,,,,,,,,,,,,,,
,,,,,,,,,,,,74,PF,-69,-32,1,0,0,response5disk_5,2,3.441225001,5,2,1,0,0,rectangle_8,5,2,1,0,0,5,2,1,0,0,0,5,5,6,1,6100434d983910e711b3a504,610365571e1a3fc0e82015cc,2021-07-29_21h38.34.022,Simcolourproject_2stim_asymm_v5,2020.2.10,Win32,60,61025ae37ef11b136ea224fe,,,,,,,,,,,,,,,,,,,,,,,,,,,,,,,,,,,,,,,,,,,,,,
,,,,,,,,,,,,116,FF,88,-41,1,0,0,response3disk_5,5,5.119645,4,11,1,0,0,rectangle_8,4,11,1,0,0,4,11,1,0,0,0,6,6,3,1,6100434d983910e711b3a504,610365571e1a3fc0e82015cc,2021-07-29_21h38.34.022,Simcolourproject_2stim_asymm_v5,2020.2.10,Win32,60,61025ae37ef11b136ea224fe,,,,,,,,,,,,,,,,,,,,,,,,,,,,,,,,,,,,,,,,,,,,,,
,,,,,,,,,,,,,FF,,,,,,,,3.258330001,,,,,,,,,,,,,,,,,,,,,,6100434d983910e711b3a504,610365571e1a3fc0e82015cc,2021-07-29_21h38.34.022,Simcolourproject_2stim_asymm_v5,2020.2.10,Win32,60,61025ae37ef11b136ea224fe,,,,,,,space,2.944865,521,40,87,1,0,0,response1disk,,7,-7,8,1,0,0,rectangle,-7,8,1,0,0,-7,8,1,0,0,0,0,0,98,1,,,,,,,,
,,,,,,,,,,,,,FF,,,,,,,,2.892759999,,,,,,,,,,,,,,,,,,,,,,6100434d983910e711b3a504,610365571e1a3fc0e82015cc,2021-07-29_21h38.34.022,Simcolourproject_2stim_asymm_v5,2020.2.10,Win32,60,61025ae37ef11b136ea224fe,,,,,,,,,2837,-29,-75,1,0,0,response5disk,,3,7,7,1,0,0,rectangle,7,7,1,0,0,7,7,1,0,0,0,1,1,154,1,,,,,,,,
,,,,,,,,,,,,,FF,,,,,,,,4.638895,,,,,,,,,,,,,,,,,,,,,,6100434d983910e711b3a504,610365571e1a3fc0e82015cc,2021-07-29_21h38.34.022,Simcolourproject_2stim_asymm_v5,2020.2.10,Win32,60,61025ae37ef11b136ea224fe,,,,,,,,,185,-38,95,1,0,0,response7disk,,0,3,3,1,0,0,rectangle,3,3,1,0,0,3,3,1,0,0,0,2,2,132,1,,,,,,,,
,,,,,,,,,,,,,FF,,,,,,,,4.339735,,,,,,,,,,,,,,,,,,,,,,6100434d983910e711b3a504,610365571e1a3fc0e82015cc,2021-07-29_21h38.34.022,Simcolourproject_2stim_asymm_v5,2020.2.10,Win32,60,61025ae37ef11b136ea224fe,,,,,,,,,2701,95,32,1,0,0,response1disk,,6,-2,7,1,0,0,rectangle,-2,7,1,0,0,-2,7,1,0,0,0,3,3,39,1,,,,,,,,
,,,,,,,,,,,,,FF,,,,,,,,4.82098,,,,,,,,,,,,,,,,,,,,,,6100434d983910e711b3a504,610365571e1a3fc0e82015cc,2021-07-29_21h38.34.022,Simcolourproject_2stim_asymm_v5,2020.2.10,Win32,60,61025ae37ef11b136ea224fe,,,,,,,,,4222,72,67,1,0,0,response1disk,,6,6,1,1,0,0,rectangle,6,1,1,0,0,6,1,1,0,0,0,4,4,49,1,,,,,,,,
,,,,,,,,,,,,,FF,,,,,,,,2.128014999,,,,,,,,,,,,,,,,,,,,,,6100434d983910e711b3a504,610365571e1a3fc0e82015cc,2021-07-29_21h38.34.022,Simcolourproject_2stim_asymm_v5,2020.2.10,Win32,60,61025ae37ef11b136ea224fe,,,,,,,,,1932,38,85,1,0,0,response1disk,,7,7,5,1,0,0,rectangle,7,5,1,0,0,7,5,1,0,0,0,5,5,36,1,,,,,,,,
,,,,,,,,,,,,,FF,,,,,,,,5.120615,,,,,,,,,,,,,,,,,,,,,,6100434d983910e711b3a504,610365571e1a3fc0e82015cc,2021-07-29_21h38.34.022,Simcolourproject_2stim_asymm_v5,2020.2.10,Win32,60,61025ae37ef11b136ea224fe,,,,,,,,,2316,75,-41,1,0,0,response3disk,,5,8,-1,1,0,0,rectangle,8,-1,1,0,0,8,-1,1,0,0,0,6,6,150,1,,,,,,,,
,,,,,,,,,,,,,FF,,,,,,,,1.97824,,,,,,,,,,,,,,,,,,,,,,6100434d983910e711b3a504,610365571e1a3fc0e82015cc,2021-07-29_21h38.34.022,Simcolourproject_2stim_asymm_v5,2020.2.10,Win32,60,61025ae37ef11b136ea224fe,,,,,,,,,4173,66,44,1,0,0,response1disk,,6,10,2,1,0,0,rectangle,10,2,1,0,0,10,2,1,0,0,0,7,7,9,1,,,,,,,,
,,,,,,,,,,,,,FF,,,,,,,,1.928365,,,,,,,,,,,,,,,,,,,,,,6100434d983910e711b3a504,610365571e1a3fc0e82015cc,2021-07-29_21h38.34.022,Simcolourproject_2stim_asymm_v5,2020.2.10,Win32,60,61025ae37ef11b136ea224fe,,,,,,,,,2056,30,84,1,0,0,response1disk,,7,-5,0,1,0,0,rectangle,-5,0,1,0,0,-5,0,1,0,0,0,8,8,8,1,,,,,,,,
,,,,,,,,,,,,,FF,,,,,,,,1.94546,,,,,,,,,,,,,,,,,,,,,,6100434d983910e711b3a504,610365571e1a3fc0e82015cc,2021-07-29_21h38.34.022,Simcolourproject_2stim_asymm_v5,2020.2.10,Win32,60,61025ae37ef11b136ea224fe,,,,,,,,,3168,81,-31,1,0,0,response3disk,,5,-4,7,1,0,0,rectangle,-86,-38,1,0,0,6,7,1,0,0,0,9,9,18,1,,response5disk_3,TRUE,2,2,"[165,169,146,84,124,146,236,64,13,81,107,229,304,318,10,245,13,44,217,24]",2.3773,rectangle
,,,,,,,,,,,,,FF,,,,,,,,1.812365,,,,,,,,,,,,,,,,,,,,,,6100434d983910e711b3a504,610365571e1a3fc0e82015cc,2021-07-29_21h38.34.022,Simcolourproject_2stim_asymm_v5,2020.2.10,Win32,60,61025ae37ef11b136ea224fe,,,,,,,,,4366,-55,85,1,0,0,response7disk,,0,-10,2,1,0,0,rectangle,-10,2,1,0,0,-10,2,1,0,0,0,10,10,107,1,,,,,,,,
,,,,,,,,,,,,,FF,,,,,,,,3.47464,,,,,,,,,,,,,,,,,,,,,,6100434d983910e711b3a504,610365571e1a3fc0e82015cc,2021-07-29_21h38.34.022,Simcolourproject_2stim_asymm_v5,2020.2.10,Win32,60,61025ae37ef11b136ea224fe,,,,,,,,,3901,34,-74,1,0,0,response3disk,,4,9,4,1,0,0,rectangle,9,4,1,0,0,9,4,1,0,0,0,11,11,144,1,,,,,,,,
,,,,,,,,,,,,,FF,,,,,,,,3.9568,,,,,,,,,,,,,,,,,,,,,,6100434d983910e711b3a504,610365571e1a3fc0e82015cc,2021-07-29_21h38.34.022,Simcolourproject_2stim_asymm_v5,2020.2.10,Win32,60,61025ae37ef11b136ea224fe,,,,,,,,,3280,42,106,1,0,0,response1disk,,7,0,2,1,0,0,rectangle,-100,-51,1,0,0,-2,4,1,0,0,0,12,12,26,1,,response5disk_3,TRUE,2,2,"[165,169,146,84,124,146,236,64,13,81,107,229,304,318,10,245,13,44,217,24]",2.425635001,rectangle
,,,,,,,,,,,,,FF,,,,,,,,1.57942,,,,,,,,,,,,,,,,,,,,,,6100434d983910e711b3a504,610365571e1a3fc0e82015cc,2021-07-29_21h38.34.022,Simcolourproject_2stim_asymm_v5,2020.2.10,Win32,60,61025ae37ef11b136ea224fe,,,,,,,,,2499,34,73,1,0,0,response1disk,,7,6,-7,1,0,0,rectangle,6,-7,1,0,0,6,-7,1,0,0,0,13,13,129,1,,,,,,,,
,,,,,,,,,,,,,FF,,,,,,,,2.56007,,,,,,,,,,,,,,,,,,,,,,6100434d983910e711b3a504,610365571e1a3fc0e82015cc,2021-07-29_21h38.34.022,Simcolourproject_2stim_asymm_v5,2020.2.10,Win32,60,61025ae37ef11b136ea224fe,,,,,,,,,1753,-72,-36,1,0,0,response5disk,,2,-16,4,1,0,0,rectangle,-16,4,1,0,0,-16,4,1,0,0,0,14,14,47,1,,,,,,,,
,,,,,,,,,,,,,FF,,,,,,,,1.97858,,,,,,,,,,,,,,,,,,,,,,6100434d983910e711b3a504,610365571e1a3fc0e82015cc,2021-07-29_21h38.34.022,Simcolourproject_2stim_asymm_v5,2020.2.10,Win32,60,61025ae37ef11b136ea224fe,,,,,,,,,3013,86,35,1,0,0,response1disk,,6,12,3,1,0,0,rectangle,12,3,1,0,0,12,3,1,0,0,0,15,15,138,1,,,,,,,,
,,,,,,,,,,,,,FF,,,,,,,,1.578585,,,,,,,,,,,,,,,,,,,,,,6100434d983910e711b3a504,610365571e1a3fc0e82015cc,2021-07-29_21h38.34.022,Simcolourproject_2stim_asymm_v5,2020.2.10,Win32,60,61025ae37ef11b136ea224fe,,,,,,,,,1169,67,46,1,0,0,response1disk,,6,8,10,1,0,0,rectangle,8,10,1,0,0,8,10,1,0,0,0,16,16,97,1,,,,,,,,
,,,,,,,,,,,,,FF,,,,,,,,1.89555,,,,,,,,,,,,,,,,,,,,,,6100434d983910e711b3a504,610365571e1a3fc0e82015cc,2021-07-29_21h38.34.022,Simcolourproject_2stim_asymm_v5,2020.2.10,Win32,60,61025ae37ef11b136ea224fe,,,,,,,,,3294,-74,-26,1,0,0,response5disk,,2,-10,3,1,0,0,rectangle,-10,3,1,0,0,-10,3,1,0,0,0,17,17,67,1,,,,,,,,
,,,,,,,,,,,,,FF,,,,,,,,10.107125,,,,,,,,,,,,,,,,,,,,,,6100434d983910e711b3a504,610365571e1a3fc0e82015cc,2021-07-29_21h38.34.022,Simcolourproject_2stim_asymm_v5,2020.2.10,Win32,60,61025ae37ef11b136ea224fe,,,,,,,,,3440,35,-90,1,0,0,response3disk,,4,-13,9,1,0,0,rectangle,-13,9,1,0,0,-13,9,1,0,0,0,18,18,11,1,,,,,,,,
,,,,,,,,,,,,,FF,,,,,,,,1.97857,,,,,,,,,,,,,,,,,,,,,,6100434d983910e711b3a504,610365571e1a3fc0e82015cc,2021-07-29_21h38.34.022,Simcolourproject_2stim_asymm_v5,2020.2.10,Win32,60,61025ae37ef11b136ea224fe,,,,,,,,,2850,44,97,1,0,0,response1disk,,7,0,14,1,0,0,rectangle,0,14,1,0,0,0,14,1,0,0,0,19,19,15,1,,,,,,,,
,,,,,,,,,,,,,FF,,,,,,,,2.02865,,,,,,,,,,,,,,,,,,,,,,6100434d983910e711b3a504,610365571e1a3fc0e82015cc,2021-07-29_21h38.34.022,Simcolourproject_2stim_asymm_v5,2020.2.10,Win32,60,61025ae37ef11b136ea224fe,,,,,,,,,1850,22,74,1,0,0,response1disk,,7,1,8,1,0,0,rectangle,1,8,1,0,0,1,8,1,0,0,0,20,20,30,1,,,,,,,,
,,,,,,,,,,,,,FF,,,,,,,,1.380045,,,,,,,,,,,,,,,,,,,,,,6100434d983910e711b3a504,610365571e1a3fc0e82015cc,2021-07-29_21h38.34.022,Simcolourproject_2stim_asymm_v5,2020.2.10,Win32,60,61025ae37ef11b136ea224fe,,,,,,,,,2858,42,69,1,0,0,response1disk,,7,8,10,1,0,0,rectangle,8,10,1,0,0,8,10,1,0,0,0,21,21,149,1,,,,,,,,
,,,,,,,,,,,,,FF,,,,,,,,1.546440001,,,,,,,,,,,,,,,,,,,,,,6100434d983910e711b3a504,610365571e1a3fc0e82015cc,2021-07-29_21h38.34.022,Simcolourproject_2stim_asymm_v5,2020.2.10,Win32,60,61025ae37ef11b136ea224fe,,,,,,,,,3434,-72,52,1,0,0,response7disk,,1,-14,11,1,0,0,rectangle,-14,11,1,0,0,-14,11,1,0,0,0,22,22,7,1,,,,,,,,
,,,,,,,,,,,,,FF,,,,,,,,1.8622,,,,,,,,,,,,,,,,,,,,,,6100434d983910e711b3a504,610365571e1a3fc0e82015cc,2021-07-29_21h38.34.022,Simcolourproject_2stim_asymm_v5,2020.2.10,Win32,60,61025ae37ef11b136ea224fe,,,,,,,,,2247,46,99,1,0,0,response1disk,,7,2,2,1,0,0,rectangle,-47,-72,1,0,0,-7,7,1,0,0,0,23,23,24,1,,response5disk_3,TRUE,3,3,"[165,169,146,84,124,146,236,64,13,81,107,229,304,318,10,245,13,44,217,24]",1.74517,rectangle
,,,,,,,,,,,,,FF,,,,,,,,6.150865,,,,,,,,,,,,,,,,,,,,,,6100434d983910e711b3a504,610365571e1a3fc0e82015cc,2021-07-29_21h38.34.022,Simcolourproject_2stim_asymm_v5,2020.2.10,Win32,60,61025ae37ef11b136ea224fe,,,,,,,,,3945,84,-42,1,0,0,response3disk,,5,5,7,1,0,0,rectangle,5,7,1,0,0,5,7,1,0,0,0,24,24,46,1,,,,,,,,
,,,,,,,,,,,,,FF,,,,,,,,3.657725,,,,,,,,,,,,,,,,,,,,,,6100434d983910e711b3a504,610365571e1a3fc0e82015cc,2021-07-29_21h38.34.022,Simcolourproject_2stim_asymm_v5,2020.2.10,Win32,60,61025ae37ef11b136ea224fe,,,,,,,,,732,101,45,1,0,0,response1disk,,6,19,6,1,0,0,rectangle,19,6,1,0,0,19,6,1,0,0,0,25,25,64,1,,,,,,,,
,,,,,,,,,,,,,FF,,,,,,,,3.12547,,,,,,,,,,,,,,,,,,,,,,6100434d983910e711b3a504,610365571e1a3fc0e82015cc,2021-07-29_21h38.34.022,Simcolourproject_2stim_asymm_v5,2020.2.10,Win32,60,61025ae37ef11b136ea224fe,,,,,,,,,3747,-85,55,1,0,0,response7disk,,1,-19,7,1,0,0,rectangle,-19,7,1,0,0,-19,7,1,0,0,0,26,26,42,1,,,,,,,,
,,,,,,,,,,,,,FF,,,,,,,,1.278805,,,,,,,,,,,,,,,,,,,,,,6100434d983910e711b3a504,610365571e1a3fc0e82015cc,2021-07-29_21h38.34.022,Simcolourproject_2stim_asymm_v5,2020.2.10,Win32,60,61025ae37ef11b136ea224fe,,,,,,,,,375,-73,35,1,0,0,response7disk,,1,-17,7,1,0,0,rectangle,-17,7,1,0,0,-17,7,1,0,0,0,27,27,68,1,,,,,,,,
,,,,,,,,,,,,,FF,,,,,,,,1.596265,,,,,,,,,,,,,,,,,,,,,,6100434d983910e711b3a504,610365571e1a3fc0e82015cc,2021-07-29_21h38.34.022,Simcolourproject_2stim_asymm_v5,2020.2.10,Win32,60,61025ae37ef11b136ea224fe,,,,,,,,,834,37,99,1,0,0,response1disk,,7,-6,7,1,0,0,rectangle,-6,7,1,0,0,-6,7,1,0,0,0,28,28,83,1,,,,,,,,
,,,,,,,,,,,,,FF,,,,,,,,1.76246,,,,,,,,,,,,,,,,,,,,,,6100434d983910e711b3a504,610365571e1a3fc0e82015cc,2021-07-29_21h38.34.022,Simcolourproject_2stim_asymm_v5,2020.2.10,Win32,60,61025ae37ef11b136ea224fe,,,,,,,,,761,26,82,1,0,0,response1disk,,7,-2,9,1,0,0,rectangle,-2,9,1,0,0,-2,9,1,0,0,0,29,29,100,1,,,,,,,,
,,,,,,,,,,,,,FF,,,,,,,,1.513104999,,,,,,,,,,,,,,,,,,,,,,6100434d983910e711b3a504,610365571e1a3fc0e82015cc,2021-07-29_21h38.34.022,Simcolourproject_2stim_asymm_v5,2020.2.10,Win32,60,61025ae37ef11b136ea224fe,,,,,,,,,3840,37,89,1,0,0,response1disk,,7,5,-4,1,0,0,rectangle,5,-4,1,0,0,5,-4,1,0,0,0,30,30,99,1,,,,,,,,
,,,,,,,,,,,,,FF,,,,,,,,1.613335,,,,,,,,,,,,,,,,,,,,,,6100434d983910e711b3a504,610365571e1a3fc0e82015cc,2021-07-29_21h38.34.022,Simcolourproject_2stim_asymm_v5,2020.2.10,Win32,60,61025ae37ef11b136ea224fe,,,,,,,,,3957,62,37,1,0,0,response1disk,,6,-10,-6,1,0,0,rectangle,-10,-6,1,0,0,-10,-6,1,0,0,0,31,31,134,1,,,,,,,,
,,,,,,,,,,,,,FF,,,,,,,,1.57947,,,,,,,,,,,,,,,,,,,,,,6100434d983910e711b3a504,610365571e1a3fc0e82015cc,2021-07-29_21h38.34.022,Simcolourproject_2stim_asymm_v5,2020.2.10,Win32,60,61025ae37ef11b136ea224fe,,,,,,,,,845,47,87,1,0,0,response1disk,,7,11,11,1,0,0,rectangle,11,11,1,0,0,11,11,1,0,0,0,32,32,45,1,,,,,,,,
,,,,,,,,,,,,,FF,,,,,,,,1.978105,,,,,,,,,,,,,,,,,,,,,,6100434d983910e711b3a504,610365571e1a3fc0e82015cc,2021-07-29_21h38.34.022,Simcolourproject_2stim_asymm_v5,2020.2.10,Win32,60,61025ae37ef11b136ea224fe,,,,,,,,,3731,46,96,1,0,0,response1disk,,7,-1,-1,1,0,0,rectangle,-1,-1,1,0,0,-1,-1,1,0,0,0,33,33,50,1,,,,,,,,
,,,,,,,,,,,,,FF,,,,,,,,1.130845,,,,,,,,,,,,,,,,,,,,,,6100434d983910e711b3a504,610365571e1a3fc0e82015cc,2021-07-29_21h38.34.022,Simcolourproject_2stim_asymm_v5,2020.2.10,Win32,60,61025ae37ef11b136ea224fe,,,,,,,,,4174,30,85,1,0,0,response1disk,,7,6,13,1,0,0,rectangle,6,13,1,0,0,6,13,1,0,0,0,34,34,89,1,,,,,,,,
,,,,,,,,,,,,,FF,,,,,,,,0.965435,,,,,,,,,,,,,,,,,,,,,,6100434d983910e711b3a504,610365571e1a3fc0e82015cc,2021-07-29_21h38.34.022,Simcolourproject_2stim_asymm_v5,2020.2.10,Win32,60,61025ae37ef11b136ea224fe,,,,,,,,,921,18,63,1,0,0,response1disk,,7,5,8,1,0,0,rectangle,5,8,1,0,0,5,8,1,0,0,0,35,35,58,1,,,,,,,,
,,,,,,,,,,,,,FF,,,,,,,,1.79564,,,,,,,,,,,,,,,,,,,,,,6100434d983910e711b3a504,610365571e1a3fc0e82015cc,2021-07-29_21h38.34.022,Simcolourproject_2stim_asymm_v5,2020.2.10,Win32,60,61025ae37ef11b136ea224fe,,,,,,,,,774,45,84,1,0,0,response1disk,,7,3,4,1,0,0,rectangle,3,4,1,0,0,3,4,1,0,0,0,36,36,51,1,,,,,,,,
,,,,,,,,,,,,,FF,,,,,,,,1.87846,,,,,,,,,,,,,,,,,,,,,,6100434d983910e711b3a504,610365571e1a3fc0e82015cc,2021-07-29_21h38.34.022,Simcolourproject_2stim_asymm_v5,2020.2.10,Win32,60,61025ae37ef11b136ea224fe,,,,,,,,,2421,-52,-70,1,0,0,response5disk,,3,-12,1,1,0,0,rectangle,-12,1,1,0,0,-12,1,1,0,0,0,37,37,87,1,,,,,,,,
,,,,,,,,,,,,,FF,,,,,,,,1.629644999,,,,,,,,,,,,,,,,,,,,,,6100434d983910e711b3a504,610365571e1a3fc0e82015cc,2021-07-29_21h38.34.022,Simcolourproject_2stim_asymm_v5,2020.2.10,Win32,60,61025ae37ef11b136ea224fe,,,,,,,,,1000,30,51,1,0,0,response1disk,,7,11,11,1,0,0,rectangle,11,11,1,0,0,11,11,1,0,0,0,38,38,110,1,,,,,,,,
,,,,,,,,,,,,,FF,,,,,,,,1.34722,,,,,,,,,,,,,,,,,,,,,,6100434d983910e711b3a504,610365571e1a3fc0e82015cc,2021-07-29_21h38.34.022,Simcolourproject_2stim_asymm_v5,2020.2.10,Win32,60,61025ae37ef11b136ea224fe,,,,,,,,,3744,-79,32,1,0,0,response7disk,,1,-24,5,1,0,0,rectangle,-24,5,1,0,0,-24,5,1,0,0,0,39,39,126,1,,,,,,,,
,,,,,,,,,,,,,FF,,,,,,,,3.757739999,,,,,,,,,,,,,,,,,,,,,,6100434d983910e711b3a504,610365571e1a3fc0e82015cc,2021-07-29_21h38.34.022,Simcolourproject_2stim_asymm_v5,2020.2.10,Win32,60,61025ae37ef11b136ea224fe,,,,,,,,,338,65,57,1,0,0,response1disk,,6,9,5,1,0,0,rectangle,9,5,1,0,0,9,5,1,0,0,0,40,40,105,1,,,,,,,,
,,,,,,,,,,,,,FF,,,,,,,,3.490945,,,,,,,,,,,,,,,,,,,,,,6100434d983910e711b3a504,610365571e1a3fc0e82015cc,2021-07-29_21h38.34.022,Simcolourproject_2stim_asymm_v5,2020.2.10,Win32,60,61025ae37ef11b136ea224fe,,,,,,,,,3202,-103,-27,1,0,0,response5disk,,2,-3,0,1,0,0,rectangle,-3,0,1,0,0,-3,0,1,0,0,0,41,41,85,1,,,,,,,,
,,,,,,,,,,,,,FF,,,,,,,,1.47988,,,,,,,,,,,,,,,,,,,,,,6100434d983910e711b3a504,610365571e1a3fc0e82015cc,2021-07-29_21h38.34.022,Simcolourproject_2stim_asymm_v5,2020.2.10,Win32,60,61025ae37ef11b136ea224fe,,,,,,,,,3883,49,96,1,0,0,response1disk,,7,2,15,1,0,0,rectangle,2,15,1,0,0,2,15,1,0,0,0,42,42,6,1,,,,,,,,
,,,,,,,,,,,,,FF,,,,,,,,1.9782,,,,,,,,,,,,,,,,,,,,,,6100434d983910e711b3a504,610365571e1a3fc0e82015cc,2021-07-29_21h38.34.022,Simcolourproject_2stim_asymm_v5,2020.2.10,Win32,60,61025ae37ef11b136ea224fe,,,,,,,,,3480,55,-36,1,0,0,response3disk,,5,15,-1,1,0,0,rectangle,-35,-68,1,0,0,7,11,1,0,0,0,43,43,14,1,,response5disk_3,TRUE,3,3,"[165,169,146,84,124,146,236,64,13,81,107,229,304,318,10,245,13,44,217,24]",1.928,rectangle
,,,,,,,,,,,,,FF,,,,,,,,3.15914,,,,,,,,,,,,,,,,,,,,,,6100434d983910e711b3a504,610365571e1a3fc0e82015cc,2021-07-29_21h38.34.022,Simcolourproject_2stim_asymm_v5,2020.2.10,Win32,60,61025ae37ef11b136ea224fe,,,,,,,,,554,92,-35,1,0,0,response3disk,,5,7,11,1,0,0,rectangle,7,11,1,0,0,7,11,1,0,0,0,44,44,53,1,,,,,,,,
,,,,,,,,,,,,,FF,,,,,,,,1.3134,,,,,,,,,,,,,,,,,,,,,,6100434d983910e711b3a504,610365571e1a3fc0e82015cc,2021-07-29_21h38.34.022,Simcolourproject_2stim_asymm_v5,2020.2.10,Win32,60,61025ae37ef11b136ea224fe,,,,,,,,,3084,33,81,1,0,0,response1disk,,7,-6,-3,1,0,0,rectangle,-6,-3,1,0,0,-6,-3,1,0,0,0,45,45,152,1,,,,,,,,
,,,,,,,,,,,,,FF,,,,,,,,1.147285,,,,,,,,,,,,,,,,,,,,,,6100434d983910e711b3a504,610365571e1a3fc0e82015cc,2021-07-29_21h38.34.022,Simcolourproject_2stim_asymm_v5,2020.2.10,Win32,60,61025ae37ef11b136ea224fe,,,,,,,,,3730,22,60,1,0,0,response1disk,,7,4,5,1,0,0,rectangle,4,5,1,0,0,4,5,1,0,0,0,46,46,0,1,,,,,,,,
,,,,,,,,,,,,,FF,,,,,,,,1.08045,,,,,,,,,,,,,,,,,,,,,,6100434d983910e711b3a504,610365571e1a3fc0e82015cc,2021-07-29_21h38.34.022,Simcolourproject_2stim_asymm_v5,2020.2.10,Win32,60,61025ae37ef11b136ea224fe,,,,,,,,,3861,28,61,1,0,0,response1disk,,7,7,1,1,0,0,rectangle,7,1,1,0,0,7,1,1,0,0,0,47,47,111,1,,,,,,,,
,,,,,,,,,,,,,FF,,,,,,,,1.081275,,,,,,,,,,,,,,,,,,,,,,6100434d983910e711b3a504,610365571e1a3fc0e82015cc,2021-07-29_21h38.34.022,Simcolourproject_2stim_asymm_v5,2020.2.10,Win32,60,61025ae37ef11b136ea224fe,,,,,,,,,2432,66,36,1,0,0,response1disk,,6,19,-6,1,0,0,rectangle,19,-6,1,0,0,19,-6,1,0,0,0,48,48,77,1,,,,,,,,
,,,,,,,,,,,,,FF,,,,,,,,2.094959999,,,,,,,,,,,,,,,,,,,,,,6100434d983910e711b3a504,610365571e1a3fc0e82015cc,2021-07-29_21h38.34.022,Simcolourproject_2stim_asymm_v5,2020.2.10,Win32,60,61025ae37ef11b136ea224fe,,,,,,,,,2282,-33,-63,1,0,0,response5disk,,3,-4,-1,1,0,0,rectangle,-4,-1,1,0,0,-4,-1,1,0,0,0,49,49,79,1,,,,,,,,
,,,,,,,,,,,,,FF,,,,,,,,1.696525,,,,,,,,,,,,,,,,,,,,,,6100434d983910e711b3a504,610365571e1a3fc0e82015cc,2021-07-29_21h38.34.022,Simcolourproject_2stim_asymm_v5,2020.2.10,Win32,60,61025ae37ef11b136ea224fe,,,,,,,,,1770,87,33,1,0,0,response1disk,,6,14,2,1,0,0,rectangle,14,2,1,0,0,14,2,1,0,0,0,50,50,37,1,,,,,,,,
,,,,,,,,,,,,,FF,,,,,,,,1.1808,,,,,,,,,,,,,,,,,,,,,,6100434d983910e711b3a504,610365571e1a3fc0e82015cc,2021-07-29_21h38.34.022,Simcolourproject_2stim_asymm_v5,2020.2.10,Win32,60,61025ae37ef11b136ea224fe,,,,,,,,,3609,25,69,1,0,0,response1disk,,7,6,9,1,0,0,rectangle,6,9,1,0,0,6,9,1,0,0,0,51,51,48,1,,,,,,,,
,,,,,,,,,,,,,FF,,,,,,,,1.08056,,,,,,,,,,,,,,,,,,,,,,6100434d983910e711b3a504,610365571e1a3fc0e82015cc,2021-07-29_21h38.34.022,Simcolourproject_2stim_asymm_v5,2020.2.10,Win32,60,61025ae37ef11b136ea224fe,,,,,,,,,2241,63,43,1,0,0,response1disk,,6,10,9,1,0,0,rectangle,10,9,1,0,0,10,9,1,0,0,0,52,52,130,1,,,,,,,,
,,,,,,,,,,,,,FF,,,,,,,,1.679005,,,,,,,,,,,,,,,,,,,,,,6100434d983910e711b3a504,610365571e1a3fc0e82015cc,2021-07-29_21h38.34.022,Simcolourproject_2stim_asymm_v5,2020.2.10,Win32,60,61025ae37ef11b136ea224fe,,,,,,,,,2378,65,39,1,0,0,response1disk,,6,27,7,1,0,0,rectangle,27,7,1,0,0,27,7,1,0,0,0,53,53,147,1,,,,,,,,
,,,,,,,,,,,,,FF,,,,,,,,1.280245,,,,,,,,,,,,,,,,,,,,,,6100434d983910e711b3a504,610365571e1a3fc0e82015cc,2021-07-29_21h38.34.022,Simcolourproject_2stim_asymm_v5,2020.2.10,Win32,60,61025ae37ef11b136ea224fe,,,,,,,,,2140,31,77,1,0,0,response1disk,,7,6,7,1,0,0,rectangle,6,7,1,0,0,6,7,1,0,0,0,54,54,121,1,,,,,,,,
,,,,,,,,,,,,,FF,,,,,,,,1.064065,,,,,,,,,,,,,,,,,,,,,,6100434d983910e711b3a504,610365571e1a3fc0e82015cc,2021-07-29_21h38.34.022,Simcolourproject_2stim_asymm_v5,2020.2.10,Win32,60,61025ae37ef11b136ea224fe,,,,,,,,,3617,40,95,1,0,0,response1disk,,7,9,13,1,0,0,rectangle,9,13,1,0,0,9,13,1,0,0,0,55,55,16,1,,,,,,,,
,,,,,,,,,,,,,FF,,,,,,,,2.64372,,,,,,,,,,,,,,,,,,,,,,6100434d983910e711b3a504,610365571e1a3fc0e82015cc,2021-07-29_21h38.34.022,Simcolourproject_2stim_asymm_v5,2020.2.10,Win32,60,61025ae37ef11b136ea224fe,,,,,,,,,289,31,-90,1,0,0,response3disk,,4,9,-3,1,0,0,rectangle,9,-3,1,0,0,9,-3,1,0,0,0,56,56,119,1,,,,,,,,
,,,,,,,,,,,,,FF,,,,,,,,1.579535,,,,,,,,,,,,,,,,,,,,,,6100434d983910e711b3a504,610365571e1a3fc0e82015cc,2021-07-29_21h38.34.022,Simcolourproject_2stim_asymm_v5,2020.2.10,Win32,60,61025ae37ef11b136ea224fe,,,,,,,,,87,38,81,1,0,0,response1disk,,7,4,10,1,0,0,rectangle,4,10,1,0,0,4,10,1,0,0,0,57,57,81,1,,,,,,,,
,,,,,,,,,,,,,FF,,,,,,,,2.1776,,,,,,,,,,,,,,,,,,,,,,6100434d983910e711b3a504,610365571e1a3fc0e82015cc,2021-07-29_21h38.34.022,Simcolourproject_2stim_asymm_v5,2020.2.10,Win32,60,61025ae37ef11b136ea224fe,,,,,,,,,3212,-51,-77,1,0,0,response5disk,,3,0,7,1,0,0,rectangle,0,7,1,0,0,0,7,1,0,0,0,58,58,66,1,,,,,,,,
,,,,,,,,,,,,,FF,,,,,,,,6.832345,,,,,,,,,,,,,,,,,,,,,,6100434d983910e711b3a504,610365571e1a3fc0e82015cc,2021-07-29_21h38.34.022,Simcolourproject_2stim_asymm_v5,2020.2.10,Win32,60,61025ae37ef11b136ea224fe,,,,,,,,,1382,67,-39,1,0,0,response3disk,,5,24,2,1,0,0,rectangle,24,2,1,0,0,24,2,1,0,0,0,59,59,69,1,,,,,,,,
,,,,,,,,,,,,,FF,,,,,,,,2.493664999,,,,,,,,,,,,,,,,,,,,,,6100434d983910e711b3a504,610365571e1a3fc0e82015cc,2021-07-29_21h38.34.022,Simcolourproject_2stim_asymm_v5,2020.2.10,Win32,60,61025ae37ef11b136ea224fe,,,,,,,,,1623,-94,-41,1,0,0,response5disk,,2,2,4,1,0,0,rectangle,2,4,1,0,0,2,4,1,0,0,0,60,60,90,1,,,,,,,,
,,,,,,,,,,,,,FF,,,,,,,,1.49673,,,,,,,,,,,,,,,,,,,,,,6100434d983910e711b3a504,610365571e1a3fc0e82015cc,2021-07-29_21h38.34.022,Simcolourproject_2stim_asymm_v5,2020.2.10,Win32,60,61025ae37ef11b136ea224fe,,,,,,,,,354,-91,46,1,0,0,response7disk,,1,-19,7,1,0,0,rectangle,-19,7,1,0,0,-19,7,1,0,0,0,61,61,96,1,,,,,,,,
,,,,,,,,,,,,,FF,,,,,,,,1.081215,,,,,,,,,,,,,,,,,,,,,,6100434d983910e711b3a504,610365571e1a3fc0e82015cc,2021-07-29_21h38.34.022,Simcolourproject_2stim_asymm_v5,2020.2.10,Win32,60,61025ae37ef11b136ea224fe,,,,,,,,,96,-72,40,1,0,0,response7disk,,1,-12,10,1,0,0,rectangle,-12,10,1,0,0,-12,10,1,0,0,0,62,62,63,1,,,,,,,,
,,,,,,,,,,,,,FF,,,,,,,,1.163845,,,,,,,,,,,,,,,,,,,,,,6100434d983910e711b3a504,610365571e1a3fc0e82015cc,2021-07-29_21h38.34.022,Simcolourproject_2stim_asymm_v5,2020.2.10,Win32,60,61025ae37ef11b136ea224fe,,,,,,,,,187,-73,45,1,0,0,response7disk,,1,-12,7,1,0,0,rectangle,-83,40,1,0,0,-19,13,1,0,0,0,63,63,142,1,,response7disk_3,TRUE,1,1,"[165,169,146,84,124,146,236,64,13,81,107,229,304,318,10,245,13,44,217,24]",1.8113,rectangle
,,,,,,,,,,,,,FF,,,,,,,,2.261755,,,,,,,,,,,,,,,,,,,,,,6100434d983910e711b3a504,610365571e1a3fc0e82015cc,2021-07-29_21h38.34.022,Simcolourproject_2stim_asymm_v5,2020.2.10,Win32,60,61025ae37ef11b136ea224fe,,,,,,,,,415,47,100,1,0,0,response1disk,,7,-3,7,1,0,0,rectangle,-3,7,1,0,0,-3,7,1,0,0,0,64,64,86,1,,,,,,,,
,,,,,,,,,,,,,FF,,,,,,,,2.04484,,,,,,,,,,,,,,,,,,,,,,6100434d983910e711b3a504,610365571e1a3fc0e82015cc,2021-07-29_21h38.34.022,Simcolourproject_2stim_asymm_v5,2020.2.10,Win32,60,61025ae37ef11b136ea224fe,,,,,,,,,3198,-64,-76,1,0,0,response5disk,,3,3,13,1,0,0,rectangle,3,13,1,0,0,3,13,1,0,0,0,65,65,55,1,,,,,,,,
,,,,,,,,,,,,,FF,,,,,,,,1.396605,,,,,,,,,,,,,,,,,,,,,,6100434d983910e711b3a504,610365571e1a3fc0e82015cc,2021-07-29_21h38.34.022,Simcolourproject_2stim_asymm_v5,2020.2.10,Win32,60,61025ae37ef11b136ea224fe,,,,,,,,,3519,-79,25,1,0,0,response7disk,,1,-19,14,1,0,0,rectangle,-19,14,1,0,0,-19,14,1,0,0,0,66,66,65,1,,,,,,,,
,,,,,,,,,,,,,FF,,,,,,,,1.047104999,,,,,,,,,,,,,,,,,,,,,,6100434d983910e711b3a504,610365571e1a3fc0e82015cc,2021-07-29_21h38.34.022,Simcolourproject_2stim_asymm_v5,2020.2.10,Win32,60,61025ae37ef11b136ea224fe,,,,,,,,,969,-72,43,1,0,0,response7disk,,1,-13,9,1,0,0,rectangle,-13,9,1,0,0,-13,9,1,0,0,0,67,67,5,1,,,,,,,,
,,,,,,,,,,,,,FF,,,,,,,,2.276304999,,,,,,,,,,,,,,,,,,,,,,6100434d983910e711b3a504,610365571e1a3fc0e82015cc,2021-07-29_21h38.34.022,Simcolourproject_2stim_asymm_v5,2020.2.10,Win32,60,61025ae37ef11b136ea224fe,,,,,,,,,4075,44,94,1,0,0,response1disk,,7,0,7,1,0,0,rectangle,0,7,1,0,0,0,7,1,0,0,0,68,68,32,1,,,,,,,,
,,,,,,,,,,,,,FF,,,,,,,,1.33105,,,,,,,,,,,,,,,,,,,,,,6100434d983910e711b3a504,610365571e1a3fc0e82015cc,2021-07-29_21h38.34.022,Simcolourproject_2stim_asymm_v5,2020.2.10,Win32,60,61025ae37ef11b136ea224fe,,,,,,,,,829,28,75,1,0,0,response1disk,,7,6,4,1,0,0,rectangle,6,4,1,0,0,6,4,1,0,0,0,69,69,106,1,,,,,,,,
,,,,,,,,,,,,,FF,,,,,,,,2.160724999,,,,,,,,,,,,,,,,,,,,,,6100434d983910e711b3a504,610365571e1a3fc0e82015cc,2021-07-29_21h38.34.022,Simcolourproject_2stim_asymm_v5,2020.2.10,Win32,60,61025ae37ef11b136ea224fe,,,,,,,,,2162,-28,-75,1,0,0,response5disk,,3,-6,2,1,0,0,rectangle,-6,2,1,0,0,-6,2,1,0,0,0,70,70,112,1,,,,,,,,
,,,,,,,,,,,,,FF,,,,,,,,1.379775,,,,,,,,,,,,,,,,,,,,,,6100434d983910e711b3a504,610365571e1a3fc0e82015cc,2021-07-29_21h38.34.022,Simcolourproject_2stim_asymm_v5,2020.2.10,Win32,60,61025ae37ef11b136ea224fe,,,,,,,,,1004,28,81,1,0,0,response1disk,,7,2,-4,1,0,0,rectangle,2,-4,1,0,0,2,-4,1,0,0,0,71,71,114,1,,,,,,,,
,,,,,,,,,,,,,FF,,,,,,,,1.298280001,,,,,,,,,,,,,,,,,,,,,,6100434d983910e711b3a504,610365571e1a3fc0e82015cc,2021-07-29_21h38.34.022,Simcolourproject_2stim_asymm_v5,2020.2.10,Win32,60,61025ae37ef11b136ea224fe,,,,,,,,,2632,32,59,1,0,0,response1disk,,7,6,13,1,0,0,rectangle,6,13,1,0,0,6,13,1,0,0,0,72,72,127,1,,,,,,,,
,,,,,,,,,,,,,FF,,,,,,,,1.03065,,,,,,,,,,,,,,,,,,,,,,6100434d983910e711b3a504,610365571e1a3fc0e82015cc,2021-07-29_21h38.34.022,Simcolourproject_2stim_asymm_v5,2020.2.10,Win32,60,61025ae37ef11b136ea224fe,,,,,,,,,243,20,62,1,0,0,response1disk,,7,2,7,1,0,0,rectangle,2,7,1,0,0,2,7,1,0,0,0,73,73,118,1,,,,,,,,
,,,,,,,,,,,,,FF,,,,,,,,4.072655,,,,,,,,,,,,,,,,,,,,,,6100434d983910e711b3a504,610365571e1a3fc0e82015cc,2021-07-29_21h38.34.022,Simcolourproject_2stim_asymm_v5,2020.2.10,Win32,60,61025ae37ef11b136ea224fe,,,,,,,,,2669,23,-83,1,0,0,response3disk,,4,7,0,1,0,0,rectangle,7,0,1,0,0,7,0,1,0,0,0,74,74,56,1,,,,,,,,
,,,,,,,,,,,,,FF,,,,,,,,2.244465,,,,,,,,,,,,,,,,,,,,,,6100434d983910e711b3a504,610365571e1a3fc0e82015cc,2021-07-29_21h38.34.022,Simcolourproject_2stim_asymm_v5,2020.2.10,Win32,60,61025ae37ef11b136ea224fe,,,,,,,,,3445,42,81,1,0,0,response1disk,,7,13,8,1,0,0,rectangle,13,8,1,0,0,13,8,1,0,0,0,75,75,73,1,,,,,,,,
,,,,,,,,,,,,,FF,,,,,,,,1.329875001,,,,,,,,,,,,,,,,,,,,,,6100434d983910e711b3a504,610365571e1a3fc0e82015cc,2021-07-29_21h38.34.022,Simcolourproject_2stim_asymm_v5,2020.2.10,Win32,60,61025ae37ef11b136ea224fe,,,,,,,,,3325,23,71,1,0,0,response1disk,,7,3,11,1,0,0,rectangle,3,11,1,0,0,3,11,1,0,0,0,76,76,158,1,,,,,,,,
,,,,,,,,,,,,,FF,,,,,,,,3.50772,,,,,,,,,,,,,,,,,,,,,,6100434d983910e711b3a504,610365571e1a3fc0e82015cc,2021-07-29_21h38.34.022,Simcolourproject_2stim_asymm_v5,2020.2.10,Win32,60,61025ae37ef11b136ea224fe,,,,,,,,,1758,44,-88,1,0,0,response3disk,,4,-4,3,1,0,0,rectangle,-4,3,1,0,0,-4,3,1,0,0,0,77,77,146,1,,,,,,,,
,,,,,,,,,,,,,FF,,,,,,,,1.51307,,,,,,,,,,,,,,,,,,,,,,6100434d983910e711b3a504,610365571e1a3fc0e82015cc,2021-07-29_21h38.34.022,Simcolourproject_2stim_asymm_v5,2020.2.10,Win32,60,61025ae37ef11b136ea224fe,,,,,,,,,2399,49,84,1,0,0,response1disk,,7,6,10,1,0,0,rectangle,6,10,1,0,0,6,10,1,0,0,0,78,78,25,1,,,,,,,,
,,,,,,,,,,,,,FF,,,,,,,,1.895115,,,,,,,,,,,,,,,,,,,,,,6100434d983910e711b3a504,610365571e1a3fc0e82015cc,2021-07-29_21h38.34.022,Simcolourproject_2stim_asymm_v5,2020.2.10,Win32,60,61025ae37ef11b136ea224fe,,,,,,,,,1241,69,27,1,0,0,response1disk,,6,23,14,1,0,0,rectangle,23,14,1,0,0,23,14,1,0,0,0,79,79,159,1,,,,,,,,
,,,,,,,,,,,,,FF,,,,,,,,2.194635,,,,,,,,,,,,,,,,,,,,,,6100434d983910e711b3a504,610365571e1a3fc0e82015cc,2021-07-29_21h38.34.022,Simcolourproject_2stim_asymm_v5,2020.2.10,Win32,60,61025ae37ef11b136ea224fe,,,,,,,,,4300,35,97,1,0,0,response1disk,,7,7,6,1,0,0,rectangle,46,90,1,0,0,8,4,1,0,0,0,80,80,57,1,,response1disk_3,TRUE,7,7,"[165,169,146,84,124,146,236,64,13,81,107,229,304,318,10,245,13,44,217,24]",1.811645,rectangle
,,,,,,,,,,,,,FF,,,,,,,,3.856735,,,,,,,,,,,,,,,,,,,,,,6100434d983910e711b3a504,610365571e1a3fc0e82015cc,2021-07-29_21h38.34.022,Simcolourproject_2stim_asymm_v5,2020.2.10,Win32,60,61025ae37ef11b136ea224fe,,,,,,,,,1980,34,-93,1,0,0,response3disk,,4,14,-4,1,0,0,rectangle,14,-4,1,0,0,14,-4,1,0,0,0,81,81,94,1,,,,,,,,
,,,,,,,,,,,,,FF,,,,,,,,2.129095,,,,,,,,,,,,,,,,,,,,,,6100434d983910e711b3a504,610365571e1a3fc0e82015cc,2021-07-29_21h38.34.022,Simcolourproject_2stim_asymm_v5,2020.2.10,Win32,60,61025ae37ef11b136ea224fe,,,,,,,,,4245,48,88,1,0,0,response1disk,,7,11,5,1,0,0,rectangle,11,5,1,0,0,11,5,1,0,0,0,82,82,155,1,,,,,,,,
,,,,,,,,,,,,,FF,,,,,,,,1.213995,,,,,,,,,,,,,,,,,,,,,,6100434d983910e711b3a504,610365571e1a3fc0e82015cc,2021-07-29_21h38.34.022,Simcolourproject_2stim_asymm_v5,2020.2.10,Win32,60,61025ae37ef11b136ea224fe,,,,,,,,,2449,19,61,1,0,0,response1disk,,7,2,0,1,0,0,rectangle,-36,-66,1,0,0,-13,1,1,0,0,0,83,83,23,1,,response5disk_3,TRUE,3,3,"[165,169,146,84,124,146,236,64,13,81,107,229,304,318,10,245,13,44,217,24]",2.19466,rectangle
,,,,,,,,,,,,,FF,,,,,,,,2.2109,,,,,,,,,,,,,,,,,,,,,,6100434d983910e711b3a504,610365571e1a3fc0e82015cc,2021-07-29_21h38.34.022,Simcolourproject_2stim_asymm_v5,2020.2.10,Win32,60,61025ae37ef11b136ea224fe,,,,,,,,,3241,37,85,1,0,0,response1disk,,7,7,7,1,0,0,rectangle,7,7,1,0,0,7,7,1,0,0,0,84,84,2,1,,,,,,,,
,,,,,,,,,,,,,FF,,,,,,,,1.280420001,,,,,,,,,,,,,,,,,,,,,,6100434d983910e711b3a504,610365571e1a3fc0e82015cc,2021-07-29_21h38.34.022,Simcolourproject_2stim_asymm_v5,2020.2.10,Win32,60,61025ae37ef11b136ea224fe,,,,,,,,,4062,38,86,1,0,0,response1disk,,7,0,6,1,0,0,rectangle,0,6,1,0,0,0,6,1,0,0,0,85,85,4,1,,,,,,,,
,,,,,,,,,,,,,FF,,,,,,,,2.194724999,,,,,,,,,,,,,,,,,,,,,,6100434d983910e711b3a504,610365571e1a3fc0e82015cc,2021-07-29_21h38.34.022,Simcolourproject_2stim_asymm_v5,2020.2.10,Win32,60,61025ae37ef11b136ea224fe,,,,,,,,,199,-83,-32,1,0,0,response5disk,,2,-3,15,1,0,0,rectangle,-3,15,1,0,0,-3,15,1,0,0,0,86,86,28,1,,,,,,,,
,,,,,,,,,,,,,FF,,,,,,,,0.981015,,,,,,,,,,,,,,,,,,,,,,6100434d983910e711b3a504,610365571e1a3fc0e82015cc,2021-07-29_21h38.34.022,Simcolourproject_2stim_asymm_v5,2020.2.10,Win32,60,61025ae37ef11b136ea224fe,,,,,,,,,918,42,90,1,0,0,response1disk,,7,8,8,1,0,0,rectangle,8,8,1,0,0,8,8,1,0,0,0,87,87,60,1,,,,,,,,
,,,,,,,,,,,,,FF,,,,,,,,2.942694999,,,,,,,,,,,,,,,,,,,,,,6100434d983910e711b3a504,610365571e1a3fc0e82015cc,2021-07-29_21h38.34.022,Simcolourproject_2stim_asymm_v5,2020.2.10,Win32,60,61025ae37ef11b136ea224fe,,,,,,,,,2251,63,33,1,0,0,response1disk,,6,6,9,1,0,0,rectangle,6,9,1,0,0,6,9,1,0,0,0,88,88,133,1,,,,,,,,
,,,,,,,,,,,,,FF,,,,,,,,2.04544,,,,,,,,,,,,,,,,,,,,,,6100434d983910e711b3a504,610365571e1a3fc0e82015cc,2021-07-29_21h38.34.022,Simcolourproject_2stim_asymm_v5,2020.2.10,Win32,60,61025ae37ef11b136ea224fe,,,,,,,,,1631,58,33,1,0,0,response1disk,,6,6,11,1,0,0,rectangle,6,11,1,0,0,6,11,1,0,0,0,89,89,108,1,,,,,,,,
,,,,,,,,,,,,,FF,,,,,,,,2.876285,,,,,,,,,,,,,,,,,,,,,,6100434d983910e711b3a504,610365571e1a3fc0e82015cc,2021-07-29_21h38.34.022,Simcolourproject_2stim_asymm_v5,2020.2.10,Win32,60,61025ae37ef11b136ea224fe,,,,,,,,,2677,31,62,1,0,0,response1disk,,7,4,5,1,0,0,rectangle,4,5,1,0,0,4,5,1,0,0,0,90,90,104,1,,,,,,,,
,,,,,,,,,,,,,FF,,,,,,,,1.796415,,,,,,,,,,,,,,,,,,,,,,6100434d983910e711b3a504,610365571e1a3fc0e82015cc,2021-07-29_21h38.34.022,Simcolourproject_2stim_asymm_v5,2020.2.10,Win32,60,61025ae37ef11b136ea224fe,,,,,,,,,1134,-95,-48,1,0,0,response5disk,,2,-6,6,1,0,0,rectangle,-6,6,1,0,0,-6,6,1,0,0,0,91,91,151,1,,,,,,,,
,,,,,,,,,,,,,FF,,,,,,,,3.80683,,,,,,,,,,,,,,,,,,,,,,6100434d983910e711b3a504,610365571e1a3fc0e82015cc,2021-07-29_21h38.34.022,Simcolourproject_2stim_asymm_v5,2020.2.10,Win32,60,61025ae37ef11b136ea224fe,,,,,,,,,1055,84,-26,1,0,0,response3disk,,5,8,2,1,0,0,rectangle,8,2,1,0,0,8,2,1,0,0,0,92,92,145,1,,,,,,,,
,,,,,,,,,,,,,FF,,,,,,,,11.071375,,,,,,,,,,,,,,,,,,,,,,6100434d983910e711b3a504,610365571e1a3fc0e82015cc,2021-07-29_21h38.34.022,Simcolourproject_2stim_asymm_v5,2020.2.10,Win32,60,61025ae37ef11b136ea224fe,,,,,,,,,15,61,91,1,0,0,response1disk,,7,8,7,1,0,0,rectangle,8,7,1,0,0,8,7,1,0,0,0,93,93,103,1,,,,,,,,
,,,,,,,,,,,,,FF,,,,,,,,1.496175,,,,,,,,,,,,,,,,,,,,,,6100434d983910e711b3a504,610365571e1a3fc0e82015cc,2021-07-29_21h38.34.022,Simcolourproject_2stim_asymm_v5,2020.2.10,Win32,60,61025ae37ef11b136ea224fe,,,,,,,,,320,43,91,1,0,0,response1disk,,7,8,1,1,0,0,rectangle,8,1,1,0,0,8,1,1,0,0,0,94,94,124,1,,,,,,,,
,,,,,,,,,,,,,FF,,,,,,,,1.313975,,,,,,,,,,,,,,,,,,,,,,6100434d983910e711b3a504,610365571e1a3fc0e82015cc,2021-07-29_21h38.34.022,Simcolourproject_2stim_asymm_v5,2020.2.10,Win32,60,61025ae37ef11b136ea224fe,,,,,,,,,1670,-39,66,1,0,0,response7disk,,0,-12,4,1,0,0,rectangle,-12,4,1,0,0,-12,4,1,0,0,0,95,95,93,1,,,,,,,,
,,,,,,,,,,,,,FF,,,,,,,,1.130385,,,,,,,,,,,,,,,,,,,,,,6100434d983910e711b3a504,610365571e1a3fc0e82015cc,2021-07-29_21h38.34.022,Simcolourproject_2stim_asymm_v5,2020.2.10,Win32,60,61025ae37ef11b136ea224fe,,,,,,,,,1574,23,71,1,0,0,response1disk,,7,2,9,1,0,0,rectangle,2,9,1,0,0,2,9,1,0,0,0,96,96,148,1,,,,,,,,
,,,,,,,,,,,,,FF,,,,,,,,1.712245,,,,,,,,,,,,,,,,,,,,,,6100434d983910e711b3a504,610365571e1a3fc0e82015cc,2021-07-29_21h38.34.022,Simcolourproject_2stim_asymm_v5,2020.2.10,Win32,60,61025ae37ef11b136ea224fe,,,,,,,,,3386,-61,-81,1,0,0,response5disk,,3,-12,-2,1,0,0,rectangle,-12,-2,1,0,0,-12,-2,1,0,0,0,97,97,35,1,,,,,,,,
,,,,,,,,,,,,,FF,,,,,,,,1.562785001,,,,,,,,,,,,,,,,,,,,,,6100434d983910e711b3a504,610365571e1a3fc0e82015cc,2021-07-29_21h38.34.022,Simcolourproject_2stim_asymm_v5,2020.2.10,Win32,60,61025ae37ef11b136ea224fe,,,,,,,,,4226,71,44,1,0,0,response1disk,,6,15,11,1,0,0,rectangle,15,11,1,0,0,15,11,1,0,0,0,98,98,156,1,,,,,,,,
,,,,,,,,,,,,,FF,,,,,,,,1.11401,,,,,,,,,,,,,,,,,,,,,,6100434d983910e711b3a504,610365571e1a3fc0e82015cc,2021-07-29_21h38.34.022,Simcolourproject_2stim_asymm_v5,2020.2.10,Win32,60,61025ae37ef11b136ea224fe,,,,,,,,,3323,36,80,1,0,0,response1disk,,7,1,8,1,0,0,rectangle,1,8,1,0,0,1,8,1,0,0,0,99,99,80,1,,,,,,,,
,,,,,,,,,,,,,FF,,,,,,,,4.288854999,,,,,,,,,,,,,,,,,,,,,,6100434d983910e711b3a504,610365571e1a3fc0e82015cc,2021-07-29_21h38.34.022,Simcolourproject_2stim_asymm_v5,2020.2.10,Win32,60,61025ae37ef11b136ea224fe,,,,,,,,,2822,34,-92,1,0,0,response3disk,,4,5,4,1,0,0,rectangle,5,4,1,0,0,5,4,1,0,0,0,100,100,72,1,,,,,,,,
,,,,,,,,,,,,,FF,,,,,,,,2.51121,,,,,,,,,,,,,,,,,,,,,,6100434d983910e711b3a504,610365571e1a3fc0e82015cc,2021-07-29_21h38.34.022,Simcolourproject_2stim_asymm_v5,2020.2.10,Win32,60,61025ae37ef11b136ea224fe,,,,,,,,,350,30,-84,1,0,0,response3disk,,4,11,4,1,0,0,rectangle,11,4,1,0,0,11,4,1,0,0,0,101,101,136,1,,,,,,,,
,,,,,,,,,,,,,FF,,,,,,,,1.396595,,,,,,,,,,,,,,,,,,,,,,6100434d983910e711b3a504,610365571e1a3fc0e82015cc,2021-07-29_21h38.34.022,Simcolourproject_2stim_asymm_v5,2020.2.10,Win32,60,61025ae37ef11b136ea224fe,,,,,,,,,1902,-63,-66,1,0,0,response5disk,,3,-14,7,1,0,0,rectangle,-14,7,1,0,0,-14,7,1,0,0,0,102,102,13,1,,,,,,,,
,,,,,,,,,,,,,FF,,,,,,,,1.19697,,,,,,,,,,,,,,,,,,,,,,6100434d983910e711b3a504,610365571e1a3fc0e82015cc,2021-07-29_21h38.34.022,Simcolourproject_2stim_asymm_v5,2020.2.10,Win32,60,61025ae37ef11b136ea224fe,,,,,,,,,1013,36,87,1,0,0,response1disk,,7,3,2,1,0,0,rectangle,3,2,1,0,0,3,2,1,0,0,0,103,103,135,1,,,,,,,,
,,,,,,,,,,,,,FF,,,,,,,,1.946425,,,,,,,,,,,,,,,,,,,,,,6100434d983910e711b3a504,610365571e1a3fc0e82015cc,2021-07-29_21h38.34.022,Simcolourproject_2stim_asymm_v5,2020.2.10,Win32,60,61025ae37ef11b136ea224fe,,,,,,,,,3162,88,-48,1,0,0,response3disk,,5,8,4,1,0,0,rectangle,8,4,1,0,0,8,4,1,0,0,0,104,104,131,1,,,,,,,,
,,,,,,,,,,,,,FF,,,,,,,,1.24692,,,,,,,,,,,,,,,,,,,,,,6100434d983910e711b3a504,610365571e1a3fc0e82015cc,2021-07-29_21h38.34.022,Simcolourproject_2stim_asymm_v5,2020.2.10,Win32,60,61025ae37ef11b136ea224fe,,,,,,,,,2093,-36,69,1,0,0,response7disk,,0,-14,6,1,0,0,rectangle,-14,6,1,0,0,-14,6,1,0,0,0,105,105,141,1,,,,,,,,
,,,,,,,,,,,,,FF,,,,,,,,1.645745,,,,,,,,,,,,,,,,,,,,,,6100434d983910e711b3a504,610365571e1a3fc0e82015cc,2021-07-29_21h38.34.022,Simcolourproject_2stim_asymm_v5,2020.2.10,Win32,60,61025ae37ef11b136ea224fe,,,,,,,,,2103,-71,-37,1,0,0,response5disk,,2,-10,11,1,0,0,rectangle,40,110,1,0,0,0,14,1,0,0,0,106,106,143,1,,response1disk_3,TRUE,7,7,"[165,169,146,84,124,146,236,64,13,81,107,229,304,318,10,245,13,44,217,24]",1.695445,rectangle
,,,,,,,,,,,,,FF,,,,,,,,1.596035,,,,,,,,,,,,,,,,,,,,,,6100434d983910e711b3a504,610365571e1a3fc0e82015cc,2021-07-29_21h38.34.022,Simcolourproject_2stim_asymm_v5,2020.2.10,Win32,60,61025ae37ef11b136ea224fe,,,,,,,,,4344,-33,84,1,0,0,response7disk,,0,-11,6,1,0,0,rectangle,-11,6,1,0,0,-11,6,1,0,0,0,107,107,38,1,,,,,,,,
,,,,,,,,,,,,,FF,,,,,,,,1.114030001,,,,,,,,,,,,,,,,,,,,,,6100434d983910e711b3a504,610365571e1a3fc0e82015cc,2021-07-29_21h38.34.022,Simcolourproject_2stim_asymm_v5,2020.2.10,Win32,60,61025ae37ef11b136ea224fe,,,,,,,,,3046,-72,-32,1,0,0,response5disk,,2,-18,-1,1,0,0,rectangle,-18,-1,1,0,0,-18,-1,1,0,0,0,108,108,109,1,,,,,,,,
,,,,,,,,,,,,,FF,,,,,,,,2.07792,,,,,,,,,,,,,,,,,,,,,,6100434d983910e711b3a504,610365571e1a3fc0e82015cc,2021-07-29_21h38.34.022,Simcolourproject_2stim_asymm_v5,2020.2.10,Win32,60,61025ae37ef11b136ea224fe,,,,,,,,,2285,81,-26,1,0,0,response3disk,,5,0,11,1,0,0,rectangle,0,11,1,0,0,0,11,1,0,0,0,109,109,122,1,,,,,,,,
,,,,,,,,,,,,,FF,,,,,,,,2.078525,,,,,,,,,,,,,,,,,,,,,,6100434d983910e711b3a504,610365571e1a3fc0e82015cc,2021-07-29_21h38.34.022,Simcolourproject_2stim_asymm_v5,2020.2.10,Win32,60,61025ae37ef11b136ea224fe,,,,,,,,,1340,41,91,1,0,0,response1disk,,7,9,5,1,0,0,rectangle,9,5,1,0,0,9,5,1,0,0,0,110,110,128,1,,,,,,,,
,,,,,,,,,,,,,FF,,,,,,,,0.964659999,,,,,,,,,,,,,,,,,,,,,,6100434d983910e711b3a504,610365571e1a3fc0e82015cc,2021-07-29_21h38.34.022,Simcolourproject_2stim_asymm_v5,2020.2.10,Win32,60,61025ae37ef11b136ea224fe,,,,,,,,,1050,-39,75,1,0,0,response7disk,,0,-19,8,1,0,0,rectangle,-19,8,1,0,0,-19,8,1,0,0,0,111,111,31,1,,,,,,,,
,,,,,,,,,,,,,FF,,,,,,,,1.912084999,,,,,,,,,,,,,,,,,,,,,,6100434d983910e711b3a504,610365571e1a3fc0e82015cc,2021-07-29_21h38.34.022,Simcolourproject_2stim_asymm_v5,2020.2.10,Win32,60,61025ae37ef11b136ea224fe,,,,,,,,,741,71,42,1,0,0,response1disk,,6,18,6,1,0,0,rectangle,18,6,1,0,0,18,6,1,0,0,0,112,112,40,1,,,,,,,,
,,,,,,,,,,,,,FF,,,,,,,,1.181960001,,,,,,,,,,,,,,,,,,,,,,6100434d983910e711b3a504,610365571e1a3fc0e82015cc,2021-07-29_21h38.34.022,Simcolourproject_2stim_asymm_v5,2020.2.10,Win32,60,61025ae37ef11b136ea224fe,,,,,,,,,245,70,31,1,0,0,response1disk,,6,17,12,1,0,0,rectangle,17,12,1,0,0,17,12,1,0,0,0,113,113,19,1,,,,,,,,
,,,,,,,,,,,,,FF,,,,,,,,1.09754,,,,,,,,,,,,,,,,,,,,,,6100434d983910e711b3a504,610365571e1a3fc0e82015cc,2021-07-29_21h38.34.022,Simcolourproject_2stim_asymm_v5,2020.2.10,Win32,60,61025ae37ef11b136ea224fe,,,,,,,,,1594,18,76,1,0,0,response1disk,,7,2,8,1,0,0,rectangle,2,8,1,0,0,2,8,1,0,0,0,114,114,140,1,,,,,,,,
,,,,,,,,,,,,,FF,,,,,,,,1.08102,,,,,,,,,,,,,,,,,,,,,,6100434d983910e711b3a504,610365571e1a3fc0e82015cc,2021-07-29_21h38.34.022,Simcolourproject_2stim_asymm_v5,2020.2.10,Win32,60,61025ae37ef11b136ea224fe,,,,,,,,,4137,30,80,1,0,0,response1disk,,7,2,7,1,0,0,rectangle,2,7,1,0,0,2,7,1,0,0,0,115,115,43,1,,,,,,,,
,,,,,,,,,,,,,FF,,,,,,,,1.61297,,,,,,,,,,,,,,,,,,,,,,6100434d983910e711b3a504,610365571e1a3fc0e82015cc,2021-07-29_21h38.34.022,Simcolourproject_2stim_asymm_v5,2020.2.10,Win32,60,61025ae37ef11b136ea224fe,,,,,,,,,2942,34,-86,1,0,0,response3disk,,4,4,4,1,0,0,rectangle,4,4,1,0,0,4,4,1,0,0,0,116,116,125,1,,,,,,,,
,,,,,,,,,,,,,FF,,,,,,,,1.16465,,,,,,,,,,,,,,,,,,,,,,6100434d983910e711b3a504,610365571e1a3fc0e82015cc,2021-07-29_21h38.34.022,Simcolourproject_2stim_asymm_v5,2020.2.10,Win32,60,61025ae37ef11b136ea224fe,,,,,,,,,1558,29,70,1,0,0,response1disk,,7,1,4,1,0,0,rectangle,1,4,1,0,0,1,4,1,0,0,0,117,117,113,1,,,,,,,,
,,,,,,,,,,,,,FF,,,,,,,,1.247005,,,,,,,,,,,,,,,,,,,,,,6100434d983910e711b3a504,610365571e1a3fc0e82015cc,2021-07-29_21h38.34.022,Simcolourproject_2stim_asymm_v5,2020.2.10,Win32,60,61025ae37ef11b136ea224fe,,,,,,,,,3658,27,70,1,0,0,response1disk,,7,5,5,1,0,0,rectangle,5,5,1,0,0,5,5,1,0,0,0,118,118,29,1,,,,,,,,
,,,,,,,,,,,,,FF,,,,,,,,1.014380001,,,,,,,,,,,,,,,,,,,,,,6100434d983910e711b3a504,610365571e1a3fc0e82015cc,2021-07-29_21h38.34.022,Simcolourproject_2stim_asymm_v5,2020.2.10,Win32,60,61025ae37ef11b136ea224fe,,,,,,,,,3401,44,86,1,0,0,response1disk,,7,16,8,1,0,0,rectangle,16,8,1,0,0,16,8,1,0,0,0,119,119,82,1,,,,,,,,
,,,,,,,,,,,,,FF,,,,,,,,1.230675,,,,,,,,,,,,,,,,,,,,,,6100434d983910e711b3a504,610365571e1a3fc0e82015cc,2021-07-29_21h38.34.022,Simcolourproject_2stim_asymm_v5,2020.2.10,Win32,60,61025ae37ef11b136ea224fe,,,,,,,,,4271,38,78,1,0,0,response1disk,,7,6,6,1,0,0,rectangle,6,6,1,0,0,6,6,1,0,0,0,120,120,22,1,,,,,,,,
,,,,,,,,,,,,,FF,,,,,,,,0.964175,,,,,,,,,,,,,,,,,,,,,,6100434d983910e711b3a504,610365571e1a3fc0e82015cc,2021-07-29_21h38.34.022,Simcolourproject_2stim_asymm_v5,2020.2.10,Win32,60,61025ae37ef11b136ea224fe,,,,,,,,,1026,26,76,1,0,0,response1disk,,7,2,12,1,0,0,rectangle,2,12,1,0,0,2,12,1,0,0,0,121,121,76,1,,,,,,,,
,,,,,,,,,,,,,FF,,,,,,,,1.130460001,,,,,,,,,,,,,,,,,,,,,,6100434d983910e711b3a504,610365571e1a3fc0e82015cc,2021-07-29_21h38.34.022,Simcolourproject_2stim_asymm_v5,2020.2.10,Win32,60,61025ae37ef11b136ea224fe,,,,,,,,,3312,33,83,1,0,0,response1disk,,7,5,10,1,0,0,rectangle,5,10,1,0,0,5,10,1,0,0,0,122,122,61,1,,,,,,,,
,,,,,,,,,,,,,FF,,,,,,,,0.980945,,,,,,,,,,,,,,,,,,,,,,6100434d983910e711b3a504,610365571e1a3fc0e82015cc,2021-07-29_21h38.34.022,Simcolourproject_2stim_asymm_v5,2020.2.10,Win32,60,61025ae37ef11b136ea224fe,,,,,,,,,1705,34,82,1,0,0,response1disk,,7,4,6,1,0,0,rectangle,-67,39,1,0,0,-17,14,1,0,0,0,123,123,91,1,,response7disk_3,TRUE,1,1,"[165,169,146,84,124,146,236,64,13,81,107,229,304,318,10,245,13,44,217,24]",1.994635001,rectangle
,,,,,,,,,,,,,FF,,,,,,,,1.496935,,,,,,,,,,,,,,,,,,,,,,6100434d983910e711b3a504,610365571e1a3fc0e82015cc,2021-07-29_21h38.34.022,Simcolourproject_2stim_asymm_v5,2020.2.10,Win32,60,61025ae37ef11b136ea224fe,,,,,,,,,3159,-50,-85,1,0,0,response5disk,,3,-9,-2,1,0,0,rectangle,-9,-2,1,0,0,-9,-2,1,0,0,0,124,124,71,1,,,,,,,,
,,,,,,,,,,,,,FF,,,,,,,,1.16405,,,,,,,,,,,,,,,,,,,,,,6100434d983910e711b3a504,610365571e1a3fc0e82015cc,2021-07-29_21h38.34.022,Simcolourproject_2stim_asymm_v5,2020.2.10,Win32,60,61025ae37ef11b136ea224fe,,,,,,,,,2354,51,81,1,0,0,response1disk,,7,16,14,1,0,0,rectangle,16,14,1,0,0,16,14,1,0,0,0,125,125,33,1,,,,,,,,
,,,,,,,,,,,,,FF,,,,,,,,0.897949999,,,,,,,,,,,,,,,,,,,,,,6100434d983910e711b3a504,610365571e1a3fc0e82015cc,2021-07-29_21h38.34.022,Simcolourproject_2stim_asymm_v5,2020.2.10,Win32,60,61025ae37ef11b136ea224fe,,,,,,,,,965,33,80,1,0,0,response1disk,,7,1,0,1,0,0,rectangle,1,0,1,0,0,1,0,1,0,0,0,126,126,20,1,,,,,,,,
,,,,,,,,,,,,,FF,,,,,,,,1.49638,,,,,,,,,,,,,,,,,,,,,,6100434d983910e711b3a504,610365571e1a3fc0e82015cc,2021-07-29_21h38.34.022,Simcolourproject_2stim_asymm_v5,2020.2.10,Win32,60,61025ae37ef11b136ea224fe,,,,,,,,,4118,-83,34,1,0,0,response7disk,,1,-17,14,1,0,0,rectangle,-17,14,1,0,0,-17,14,1,0,0,0,127,127,75,1,,,,,,,,
,,,,,,,,,,,,,FF,,,,,,,,0.981455,,,,,,,,,,,,,,,,,,,,,,6100434d983910e711b3a504,610365571e1a3fc0e82015cc,2021-07-29_21h38.34.022,Simcolourproject_2stim_asymm_v5,2020.2.10,Win32,60,61025ae37ef11b136ea224fe,,,,,,,,,597,53,96,1,0,0,response1disk,,7,15,8,1,0,0,rectangle,15,8,1,0,0,15,8,1,0,0,0,128,128,21,1,,,,,,,,
,,,,,,,,,,,,,FF,,,,,,,,1.86265,,,,,,,,,,,,,,,,,,,,,,6100434d983910e711b3a504,610365571e1a3fc0e82015cc,2021-07-29_21h38.34.022,Simcolourproject_2stim_asymm_v5,2020.2.10,Win32,60,61025ae37ef11b136ea224fe,,,,,,,,,957,-22,-75,1,0,0,response5disk,,3,11,5,1,0,0,rectangle,11,5,1,0,0,11,5,1,0,0,0,129,129,115,1,,,,,,,,
,,,,,,,,,,,,,FF,,,,,,,,1.06427,,,,,,,,,,,,,,,,,,,,,,6100434d983910e711b3a504,610365571e1a3fc0e82015cc,2021-07-29_21h38.34.022,Simcolourproject_2stim_asymm_v5,2020.2.10,Win32,60,61025ae37ef11b136ea224fe,,,,,,,,,2842,42,91,1,0,0,response1disk,,7,5,3,1,0,0,rectangle,5,3,1,0,0,5,3,1,0,0,0,130,130,74,1,,,,,,,,
,,,,,,,,,,,,,FF,,,,,,,,1.396675,,,,,,,,,,,,,,,,,,,,,,6100434d983910e711b3a504,610365571e1a3fc0e82015cc,2021-07-29_21h38.34.022,Simcolourproject_2stim_asymm_v5,2020.2.10,Win32,60,61025ae37ef11b136ea224fe,,,,,,,,,299,83,56,1,0,0,response1disk,,6,11,4,1,0,0,rectangle,11,4,1,0,0,11,4,1,0,0,0,131,131,102,1,,,,,,,,
,,,,,,,,,,,,,FF,,,,,,,,1.578805001,,,,,,,,,,,,,,,,,,,,,,6100434d983910e711b3a504,610365571e1a3fc0e82015cc,2021-07-29_21h38.34.022,Simcolourproject_2stim_asymm_v5,2020.2.10,Win32,60,61025ae37ef11b136ea224fe,,,,,,,,,3163,72,45,1,0,0,response1disk,,6,7,10,1,0,0,rectangle,7,10,1,0,0,7,10,1,0,0,0,132,132,1,1,,,,,,,,
,,,,,,,,,,,,,FF,,,,,,,,1.396715,,,,,,,,,,,,,,,,,,,,,,6100434d983910e711b3a504,610365571e1a3fc0e82015cc,2021-07-29_21h38.34.022,Simcolourproject_2stim_asymm_v5,2020.2.10,Win32,60,61025ae37ef11b136ea224fe,,,,,,,,,555,-78,-35,1,0,0,response5disk,,2,-32,0,1,0,0,rectangle,-32,0,1,0,0,-32,0,1,0,0,0,133,133,17,1,,,,,,,,
,,,,,,,,,,,,,FF,,,,,,,,1.014895,,,,,,,,,,,,,,,,,,,,,,6100434d983910e711b3a504,610365571e1a3fc0e82015cc,2021-07-29_21h38.34.022,Simcolourproject_2stim_asymm_v5,2020.2.10,Win32,60,61025ae37ef11b136ea224fe,,,,,,,,,926,34,92,1,0,0,response1disk,,7,7,10,1,0,0,rectangle,7,10,1,0,0,7,10,1,0,0,0,134,134,88,1,,,,,,,,
,,,,,,,,,,,,,FF,,,,,,,,1.846055,,,,,,,,,,,,,,,,,,,,,,6100434d983910e711b3a504,610365571e1a3fc0e82015cc,2021-07-29_21h38.34.022,Simcolourproject_2stim_asymm_v5,2020.2.10,Win32,60,61025ae37ef11b136ea224fe,,,,,,,,,1616,-27,-92,1,0,0,response5disk,,3,0,5,1,0,0,rectangle,0,5,1,0,0,0,5,1,0,0,0,135,135,34,1,,,,,,,,
,,,,,,,,,,,,,FF,,,,,,,,0.947915001,,,,,,,,,,,,,,,,,,,,,,6100434d983910e711b3a504,610365571e1a3fc0e82015cc,2021-07-29_21h38.34.022,Simcolourproject_2stim_asymm_v5,2020.2.10,Win32,60,61025ae37ef11b136ea224fe,,,,,,,,,472,37,74,1,0,0,response1disk,,7,12,13,1,0,0,rectangle,12,13,1,0,0,12,13,1,0,0,0,136,136,116,1,,,,,,,,
,,,,,,,,,,,,,FF,,,,,,,,1.08091,,,,,,,,,,,,,,,,,,,,,,6100434d983910e711b3a504,610365571e1a3fc0e82015cc,2021-07-29_21h38.34.022,Simcolourproject_2stim_asymm_v5,2020.2.10,Win32,60,61025ae37ef11b136ea224fe,,,,,,,,,2462,32,69,1,0,0,response1disk,,7,8,4,1,0,0,rectangle,8,4,1,0,0,8,4,1,0,0,0,137,137,12,1,,,,,,,,
,,,,,,,,,,,,,FF,,,,,,,,1.16514,,,,,,,,,,,,,,,,,,,,,,6100434d983910e711b3a504,610365571e1a3fc0e82015cc,2021-07-29_21h38.34.022,Simcolourproject_2stim_asymm_v5,2020.2.10,Win32,60,61025ae37ef11b136ea224fe,,,,,,,,,3507,59,37,1,0,0,response1disk,,6,9,11,1,0,0,rectangle,9,11,1,0,0,9,11,1,0,0,0,138,138,153,1,,,,,,,,
,,,,,,,,,,,,,FF,,,,,,,,1.03096,,,,,,,,,,,,,,,,,,,,,,6100434d983910e711b3a504,610365571e1a3fc0e82015cc,2021-07-29_21h38.34.022,Simcolourproject_2stim_asymm_v5,2020.2.10,Win32,60,61025ae37ef11b136ea224fe,,,,,,,,,424,71,41,1,0,0,response1disk,,6,14,8,1,0,0,rectangle,14,8,1,0,0,14,8,1,0,0,0,139,139,101,1,,,,,,,,
,,,,,,,,,,,,,FF,,,,,,,,1.114095,,,,,,,,,,,,,,,,,,,,,,6100434d983910e711b3a504,610365571e1a3fc0e82015cc,2021-07-29_21h38.34.022,Simcolourproject_2stim_asymm_v5,2020.2.10,Win32,60,61025ae37ef11b136ea224fe,,,,,,,,,1167,32,90,1,0,0,response1disk,,7,-1,0,1,0,0,rectangle,-1,0,1,0,0,-1,0,1,0,0,0,140,140,117,1,,,,,,,,
,,,,,,,,,,,,,FF,,,,,,,,1.64587,,,,,,,,,,,,,,,,,,,,,,6100434d983910e711b3a504,610365571e1a3fc0e82015cc,2021-07-29_21h38.34.022,Simcolourproject_2stim_asymm_v5,2020.2.10,Win32,60,61025ae37ef11b136ea224fe,,,,,,,,,4348,-81,36,1,0,0,response7disk,,1,-21,11,1,0,0,rectangle,-21,11,1,0,0,-21,11,1,0,0,0,141,141,120,1,,,,,,,,
,,,,,,,,,,,,,FF,,,,,,,,1.03082,,,,,,,,,,,,,,,,,,,,,,6100434d983910e711b3a504,610365571e1a3fc0e82015cc,2021-07-29_21h38.34.022,Simcolourproject_2stim_asymm_v5,2020.2.10,Win32,60,61025ae37ef11b136ea224fe,,,,,,,,,3176,39,79,1,0,0,response1disk,,7,9,9,1,0,0,rectangle,9,9,1,0,0,9,9,1,0,0,0,142,142,59,1,,,,,,,,
,,,,,,,,,,,,,FF,,,,,,,,2.844505,,,,,,,,,,,,,,,,,,,,,,6100434d983910e711b3a504,610365571e1a3fc0e82015cc,2021-07-29_21h38.34.022,Simcolourproject_2stim_asymm_v5,2020.2.10,Win32,60,61025ae37ef11b136ea224fe,,,,,,,,,1206,49,84,1,0,0,response1disk,,7,8,12,1,0,0,rectangle,8,12,1,0,0,8,12,1,0,0,0,143,143,3,1,,,,,,,,
,,,,,,,,,,,,,FF,,,,,,,,1.032050001,,,,,,,,,,,,,,,,,,,,,,6100434d983910e711b3a504,610365571e1a3fc0e82015cc,2021-07-29_21h38.34.022,Simcolourproject_2stim_asymm_v5,2020.2.10,Win32,60,61025ae37ef11b136ea224fe,,,,,,,,,3532,30,74,1,0,0,response1disk,,7,8,11,1,0,0,rectangle,8,11,1,0,0,8,11,1,0,0,0,144,144,123,1,,,,,,,,
,,,,,,,,,,,,,FF,,,,,,,,1.56327,,,,,,,,,,,,,,,,,,,,,,6100434d983910e711b3a504,610365571e1a3fc0e82015cc,2021-07-29_21h38.34.022,Simcolourproject_2stim_asymm_v5,2020.2.10,Win32,60,61025ae37ef11b136ea224fe,,,,,,,,,2546,-95,30,1,0,0,response7disk,,1,-8,11,1,0,0,rectangle,-76,-36,1,0,0,-6,-1,1,0,0,0,145,145,84,1,,response5disk_3,TRUE,2,2,"[165,169,146,84,124,146,236,64,13,81,107,229,304,318,10,245,13,44,217,24]",2.19406,rectangle
,,,,,,,,,,,,,FF,,,,,,,,1.347075,,,,,,,,,,,,,,,,,,,,,,6100434d983910e711b3a504,610365571e1a3fc0e82015cc,2021-07-29_21h38.34.022,Simcolourproject_2stim_asymm_v5,2020.2.10,Win32,60,61025ae37ef11b136ea224fe,,,,,,,,,4103,-69,-28,1,0,0,response5disk,,2,-14,-3,1,0,0,rectangle,-14,-3,1,0,0,-14,-3,1,0,0,0,146,146,62,1,,,,,,,,
,,,,,,,,,,,,,FF,,,,,,,,2.24458,,,,,,,,,,,,,,,,,,,,,,6100434d983910e711b3a504,610365571e1a3fc0e82015cc,2021-07-29_21h38.34.022,Simcolourproject_2stim_asymm_v5,2020.2.10,Win32,60,61025ae37ef11b136ea224fe,,,,,,,,,2493,64,52,1,0,0,response1disk,,6,2,4,1,0,0,rectangle,2,4,1,0,0,2,4,1,0,0,0,147,147,137,1,,,,,,,,
,,,,,,,,,,,,,FF,,,,,,,,1.0809,,,,,,,,,,,,,,,,,,,,,,6100434d983910e711b3a504,610365571e1a3fc0e82015cc,2021-07-29_21h38.34.022,Simcolourproject_2stim_asymm_v5,2020.2.10,Win32,60,61025ae37ef11b136ea224fe,,,,,,,,,264,-60,36,1,0,0,response7disk,,1,-14,13,1,0,0,rectangle,-14,13,1,0,0,-14,13,1,0,0,0,148,148,157,1,,,,,,,,
,,,,,,,,,,,,,FF,,,,,,,,0.94795,,,,,,,,,,,,,,,,,,,,,,6100434d983910e711b3a504,610365571e1a3fc0e82015cc,2021-07-29_21h38.34.022,Simcolourproject_2stim_asymm_v5,2020.2.10,Win32,60,61025ae37ef11b136ea224fe,,,,,,,,,3125,32,74,1,0,0,response1disk,,7,10,11,1,0,0,rectangle,10,11,1,0,0,10,11,1,0,0,0,149,149,139,1,,,,,,,,
,,,,,,,,,,,,,FF,,,,,,,,0.947430001,,,,,,,,,,,,,,,,,,,,,,6100434d983910e711b3a504,610365571e1a3fc0e82015cc,2021-07-29_21h38.34.022,Simcolourproject_2stim_asymm_v5,2020.2.10,Win32,60,61025ae37ef11b136ea224fe,,,,,,,,,3181,30,80,1,0,0,response1disk,,7,4,6,1,0,0,rectangle,4,6,1,0,0,4,6,1,0,0,0,150,150,52,1,,,,,,,,
,,,,,,,,,,,,,FF,,,,,,,,2.194604999,,,,,,,,,,,,,,,,,,,,,,6100434d983910e711b3a504,610365571e1a3fc0e82015cc,2021-07-29_21h38.34.022,Simcolourproject_2stim_asymm_v5,2020.2.10,Win32,60,61025ae37ef11b136ea224fe,,,,,,,,,2714,65,39,1,0,0,response1disk,,6,7,2,1,0,0,rectangle,7,2,1,0,0,7,2,1,0,0,0,151,151,95,1,,,,,,,,
,,,,,,,,,,,,,FF,,,,,,,,1.679269999,,,,,,,,,,,,,,,,,,,,,,6100434d983910e711b3a504,610365571e1a3fc0e82015cc,2021-07-29_21h38.34.022,Simcolourproject_2stim_asymm_v5,2020.2.10,Win32,60,61025ae37ef11b136ea224fe,,,,,,,,,527,20,-85,1,0,0,response3disk,,4,5,-1,1,0,0,rectangle,5,-1,1,0,0,5,-1,1,0,0,0,152,152,92,1,,,,,,,,
,,,,,,,,,,,,,FF,,,,,,,,0.914515001,,,,,,,,,,,,,,,,,,,,,,6100434d983910e711b3a504,610365571e1a3fc0e82015cc,2021-07-29_21h38.34.022,Simcolourproject_2stim_asymm_v5,2020.2.10,Win32,60,61025ae37ef11b136ea224fe,,,,,,,,,2333,42,87,1,0,0,response1disk,,7,8,13,1,0,0,rectangle,8,13,1,0,0,8,13,1,0,0,0,153,153,44,1,,,,,,,,
,,,,,,,,,,,,,FF,,,,,,,,1.047925,,,,,,,,,,,,,,,,,,,,,,6100434d983910e711b3a504,610365571e1a3fc0e82015cc,2021-07-29_21h38.34.022,Simcolourproject_2stim_asymm_v5,2020.2.10,Win32,60,61025ae37ef11b136ea224fe,,,,,,,,,4307,30,68,1,0,0,response1disk,,7,4,4,1,0,0,rectangle,4,4,1,0,0,4,4,1,0,0,0,154,154,27,1,,,,,,,,
,,,,,,,,,,,,,FF,,,,,,,,0.996795,,,,,,,,,,,,,,,,,,,,,,6100434d983910e711b3a504,610365571e1a3fc0e82015cc,2021-07-29_21h38.34.022,Simcolourproject_2stim_asymm_v5,2020.2.10,Win32,60,61025ae37ef11b136ea224fe,,,,,,,,,390,21,85,1,0,0,response1disk,,7,-9,1,1,0,0,rectangle,-9,1,1,0,0,-9,1,1,0,0,0,155,155,10,1,,,,,,,,
,,,,,,,,,,,,,FF,,,,,,,,0.882365,,,,,,,,,,,,,,,,,,,,,,6100434d983910e711b3a504,610365571e1a3fc0e82015cc,2021-07-29_21h38.34.022,Simcolourproject_2stim_asymm_v5,2020.2.10,Win32,60,61025ae37ef11b136ea224fe,,,,,,,,,4217,21,70,1,0,0,response1disk,,7,5,7,1,0,0,rectangle,5,7,1,0,0,5,7,1,0,0,0,156,156,78,1,,,,,,,,
,,,,,,,,,,,,,FF,,,,,,,,1.230705,,,,,,,,,,,,,,,,,,,,,,6100434d983910e711b3a504,610365571e1a3fc0e82015cc,2021-07-29_21h38.34.022,Simcolourproject_2stim_asymm_v5,2020.2.10,Win32,60,61025ae37ef11b136ea224fe,,,,,,,,,2674,45,51,1,0,0,response1disk,,7,6,1,1,0,0,rectangle,6,1,1,0,0,6,1,1,0,0,0,157,157,41,1,,,,,,,,
,,,,,,,,,,,,,FF,,,,,,,,2.410875,,,,,,,,,,,,,,,,,,,,,,6100434d983910e711b3a504,610365571e1a3fc0e82015cc,2021-07-29_21h38.34.022,Simcolourproject_2stim_asymm_v5,2020.2.10,Win32,60,61025ae37ef11b136ea224fe,,,,,,,,,1430,85,46,1,0,0,response1disk,,6,-3,14,1,0,0,rectangle,-3,14,1,0,0,-3,14,1,0,0,0,158,158,54,1,,,,,,,,
,,,,,,,,,,,,,FF,,,,,,,,0.86488,,,,,,,,,,,,,,,,,,,,,,6100434d983910e711b3a504,610365571e1a3fc0e82015cc,2021-07-29_21h38.34.022,Simcolourproject_2stim_asymm_v5,2020.2.10,Win32,60,61025ae37ef11b136ea224fe,,,,,,,,,3229,34,92,1,0,0,response1disk,,7,-3,4,1,0,0,rectangle,-3,4,1,0,0,-3,4,1,0,0,0,159,159,70,1,,,,,,,,
,,,,,,,,,,,,,FF,,,,,,,,1.33047,,,,,,,,,,,,,,,,,,,,,,6100434d983910e711b3a504,610365571e1a3fc0e82015cc,2021-07-29_21h38.34.022,Simcolourproject_2stim_asymm_v5,2020.2.10,Win32,60,61025ae37ef11b136ea224fe,,,,,,,,,521,33,68,1,0,0,response1disk,,7,1,0,1,0,0,rectangle,1,0,1,0,0,1,0,1,0,0,1,0,160,23,1,,,,,,,,
,,,,,,,,,,,,,FF,,,,,,,,1.280160001,,,,,,,,,,,,,,,,,,,,,,6100434d983910e711b3a504,610365571e1a3fc0e82015cc,2021-07-29_21h38.34.022,Simcolourproject_2stim_asymm_v5,2020.2.10,Win32,60,61025ae37ef11b136ea224fe,,,,,,,,,2837,-25,-71,1,0,0,response5disk,,3,-6,-4,1,0,0,rectangle,-6,-4,1,0,0,-6,-4,1,0,0,1,1,161,90,1,,,,,,,,
,,,,,,,,,,,,,FF,,,,,,,,1.346525,,,,,,,,,,,,,,,,,,,,,,6100434d983910e711b3a504,610365571e1a3fc0e82015cc,2021-07-29_21h38.34.022,Simcolourproject_2stim_asymm_v5,2020.2.10,Win32,60,61025ae37ef11b136ea224fe,,,,,,,,,185,-83,32,1,0,0,response7disk,,1,-14,10,1,0,0,rectangle,-14,10,1,0,0,-14,10,1,0,0,1,2,162,82,1,,,,,,,,
,,,,,,,,,,,,,FF,,,,,,,,0.914205,,,,,,,,,,,,,,,,,,,,,,6100434d983910e711b3a504,610365571e1a3fc0e82015cc,2021-07-29_21h38.34.022,Simcolourproject_2stim_asymm_v5,2020.2.10,Win32,60,61025ae37ef11b136ea224fe,,,,,,,,,2701,34,58,1,0,0,response1disk,,7,9,12,1,0,0,rectangle,9,12,1,0,0,9,12,1,0,0,1,3,163,39,1,,,,,,,,
,,,,,,,,,,,,,FF,,,,,,,,0.94771,,,,,,,,,,,,,,,,,,,,,,6100434d983910e711b3a504,610365571e1a3fc0e82015cc,2021-07-29_21h38.34.022,Simcolourproject_2stim_asymm_v5,2020.2.10,Win32,60,61025ae37ef11b136ea224fe,,,,,,,,,4222,58,39,1,0,0,response1disk,,6,17,13,1,0,0,rectangle,27,86,1,0,0,-1,13,1,0,0,1,4,164,124,1,,response1disk_3,TRUE,7,7,"[165,169,146,84,124,146,236,64,13,81,107,229,304,318,10,245,13,44,217,24]",1.579245,rectangle
,,,,,,,,,,,,,FF,,,,,,,,1.04785,,,,,,,,,,,,,,,,,,,,,,6100434d983910e711b3a504,610365571e1a3fc0e82015cc,2021-07-29_21h38.34.022,Simcolourproject_2stim_asymm_v5,2020.2.10,Win32,60,61025ae37ef11b136ea224fe,,,,,,,,,1932,35,80,1,0,0,response1disk,,7,5,4,1,0,0,rectangle,5,4,1,0,0,5,4,1,0,0,1,5,165,151,1,,,,,,,,
,,,,,,,,,,,,,FF,,,,,,,,1.663155,,,,,,,,,,,,,,,,,,,,,,6100434d983910e711b3a504,610365571e1a3fc0e82015cc,2021-07-29_21h38.34.022,Simcolourproject_2stim_asymm_v5,2020.2.10,Win32,60,61025ae37ef11b136ea224fe,,,,,,,,,2316,25,67,1,0,0,response1disk,,7,8,11,1,0,0,rectangle,8,11,1,0,0,8,11,1,0,0,1,6,166,50,1,,,,,,,,
,,,,,,,,,,,,,FF,,,,,,,,4.88742,,,,,,,,,,,,,,,,,,,,,,6100434d983910e711b3a504,610365571e1a3fc0e82015cc,2021-07-29_21h38.34.022,Simcolourproject_2stim_asymm_v5,2020.2.10,Win32,60,61025ae37ef11b136ea224fe,,,,,,,,,4173,21,62,1,0,0,response1disk,,7,5,13,1,0,0,rectangle,5,13,1,0,0,5,13,1,0,0,1,7,167,159,1,,,,,,,,
,,,,,,,,,,,,,FF,,,,,,,,0.881344999,,,,,,,,,,,,,,,,,,,,,,6100434d983910e711b3a504,610365571e1a3fc0e82015cc,2021-07-29_21h38.34.022,Simcolourproject_2stim_asymm_v5,2020.2.10,Win32,60,61025ae37ef11b136ea224fe,,,,,,,,,2056,22,72,1,0,0,response1disk,,7,6,10,1,0,0,rectangle,-49,-72,1,0,0,-14,15,1,0,0,1,8,168,153,1,,response5disk_3,TRUE,3,3,"[165,169,146,84,124,146,236,64,13,81,107,229,304,318,10,245,13,44,217,24]",2.094335,rectangle
,,,,,,,,,,,,,FF,,,,,,,,1.846415,,,,,,,,,,,,,,,,,,,,,,6100434d983910e711b3a504,610365571e1a3fc0e82015cc,2021-07-29_21h38.34.022,Simcolourproject_2stim_asymm_v5,2020.2.10,Win32,60,61025ae37ef11b136ea224fe,,,,,,,,,3168,30,-78,1,0,0,response3disk,,4,-4,2,1,0,0,rectangle,-4,2,1,0,0,-4,2,1,0,0,1,9,169,47,1,,,,,,,,
,,,,,,,,,,,,,FF,,,,,,,,1.315005,,,,,,,,,,,,,,,,,,,,,,6100434d983910e711b3a504,610365571e1a3fc0e82015cc,2021-07-29_21h38.34.022,Simcolourproject_2stim_asymm_v5,2020.2.10,Win32,60,61025ae37ef11b136ea224fe,,,,,,,,,4366,-42,78,1,0,0,response7disk,,0,-14,13,1,0,0,rectangle,-14,13,1,0,0,-14,13,1,0,0,1,10,170,99,1,,,,,,,,
,,,,,,,,,,,,,FF,,,,,,,,2.958865,,,,,,,,,,,,,,,,,,,,,,6100434d983910e711b3a504,610365571e1a3fc0e82015cc,2021-07-29_21h38.34.022,Simcolourproject_2stim_asymm_v5,2020.2.10,Win32,60,61025ae37ef11b136ea224fe,,,,,,,,,3901,74,-46,1,0,0,response3disk,,5,10,6,1,0,0,rectangle,10,6,1,0,0,10,6,1,0,0,1,11,171,142,1,,,,,,,,
,,,,,,,,,,,,,FF,,,,,,,,1.098425,,,,,,,,,,,,,,,,,,,,,,6100434d983910e711b3a504,610365571e1a3fc0e82015cc,2021-07-29_21h38.34.022,Simcolourproject_2stim_asymm_v5,2020.2.10,Win32,60,61025ae37ef11b136ea224fe,,,,,,,,,3280,44,90,1,0,0,response1disk,,7,7,7,1,0,0,rectangle,7,7,1,0,0,7,7,1,0,0,1,12,172,113,1,,,,,,,,
,,,,,,,,,,,,,FF,,,,,,,,0.93152,,,,,,,,,,,,,,,,,,,,,,6100434d983910e711b3a504,610365571e1a3fc0e82015cc,2021-07-29_21h38.34.022,Simcolourproject_2stim_asymm_v5,2020.2.10,Win32,60,61025ae37ef11b136ea224fe,,,,,,,,,2499,29,77,1,0,0,response1disk,,7,7,2,1,0,0,rectangle,7,2,1,0,0,7,2,1,0,0,1,13,173,157,1,,,,,,,,
,,,,,,,,,,,,,FF,,,,,,,,1.845355,,,,,,,,,,,,,,,,,,,,,,6100434d983910e711b3a504,610365571e1a3fc0e82015cc,2021-07-29_21h38.34.022,Simcolourproject_2stim_asymm_v5,2020.2.10,Win32,60,61025ae37ef11b136ea224fe,,,,,,,,,1753,-58,-65,1,0,0,response5disk,,3,-16,-3,1,0,0,rectangle,-16,-3,1,0,0,-16,-3,1,0,0,1,14,174,40,1,,,,,,,,
,,,,,,,,,,,,,FF,,,,,,,,0.831955,,,,,,,,,,,,,,,,,,,,,,6100434d983910e711b3a504,610365571e1a3fc0e82015cc,2021-07-29_21h38.34.022,Simcolourproject_2stim_asymm_v5,2020.2.10,Win32,60,61025ae37ef11b136ea224fe,,,,,,,,,3013,38,89,1,0,0,response1disk,,7,11,15,1,0,0,rectangle,11,15,1,0,0,11,15,1,0,0,1,15,175,54,1,,,,,,,,
,,,,,,,,,,,,,FF,,,,,,,,2.04488,,,,,,,,,,,,,,,,,,,,,,6100434d983910e711b3a504,610365571e1a3fc0e82015cc,2021-07-29_21h38.34.022,Simcolourproject_2stim_asymm_v5,2020.2.10,Win32,60,61025ae37ef11b136ea224fe,,,,,,,,,1169,25,69,1,0,0,response1disk,,7,-9,-1,1,0,0,rectangle,-9,-1,1,0,0,-9,-1,1,0,0,1,16,176,84,1,,,,,,,,
,,,,,,,,,,,,,FF,,,,,,,,2.742575,,,,,,,,,,,,,,,,,,,,,,6100434d983910e711b3a504,610365571e1a3fc0e82015cc,2021-07-29_21h38.34.022,Simcolourproject_2stim_asymm_v5,2020.2.10,Win32,60,61025ae37ef11b136ea224fe,,,,,,,,,3294,-48,-107,1,0,0,response5disk,,3,8,6,1,0,0,rectangle,8,6,1,0,0,8,6,1,0,0,1,17,177,85,1,,,,,,,,
,,,,,,,,,,,,,FF,,,,,,,,0.99846,,,,,,,,,,,,,,,,,,,,,,6100434d983910e711b3a504,610365571e1a3fc0e82015cc,2021-07-29_21h38.34.022,Simcolourproject_2stim_asymm_v5,2020.2.10,Win32,60,61025ae37ef11b136ea224fe,,,,,,,,,3440,-31,-86,1,0,0,response5disk,,3,3,-6,1,0,0,rectangle,3,-6,1,0,0,3,-6,1,0,0,1,18,178,53,1,,,,,,,,
,,,,,,,,,,,,,FF,,,,,,,,0.881410001,,,,,,,,,,,,,,,,,,,,,,6100434d983910e711b3a504,610365571e1a3fc0e82015cc,2021-07-29_21h38.34.022,Simcolourproject_2stim_asymm_v5,2020.2.10,Win32,60,61025ae37ef11b136ea224fe,,,,,,,,,2850,29,72,1,0,0,response1disk,,7,8,14,1,0,0,rectangle,8,14,1,0,0,8,14,1,0,0,1,19,179,15,1,,,,,,,,
,,,,,,,,,,,,,FF,,,,,,,,0.948065,,,,,,,,,,,,,,,,,,,,,,6100434d983910e711b3a504,610365571e1a3fc0e82015cc,2021-07-29_21h38.34.022,Simcolourproject_2stim_asymm_v5,2020.2.10,Win32,60,61025ae37ef11b136ea224fe,,,,,,,,,1850,29,62,1,0,0,response1disk,,7,9,8,1,0,0,rectangle,9,8,1,0,0,9,8,1,0,0,1,20,180,66,1,,,,,,,,
,,,,,,,,,,,,,FF,,,,,,,,0.847725,,,,,,,,,,,,,,,,,,,,,,6100434d983910e711b3a504,610365571e1a3fc0e82015cc,2021-07-29_21h38.34.022,Simcolourproject_2stim_asymm_v5,2020.2.10,Win32,60,61025ae37ef11b136ea224fe,,,,,,,,,2858,33,82,1,0,0,response1disk,,7,13,14,1,0,0,rectangle,13,14,1,0,0,13,14,1,0,0,1,21,181,123,1,,,,,,,,
,,,,,,,,,,,,,FF,,,,,,,,1.081195001,,,,,,,,,,,,,,,,,,,,,,6100434d983910e711b3a504,610365571e1a3fc0e82015cc,2021-07-29_21h38.34.022,Simcolourproject_2stim_asymm_v5,2020.2.10,Win32,60,61025ae37ef11b136ea224fe,,,,,,,,,3434,-73,-26,1,0,0,response5disk,,2,-21,2,1,0,0,rectangle,-21,2,1,0,0,-21,2,1,0,0,1,22,182,30,1,,,,,,,,
,,,,,,,,,,,,,FF,,,,,,,,0.815119999,,,,,,,,,,,,,,,,,,,,,,6100434d983910e711b3a504,610365571e1a3fc0e82015cc,2021-07-29_21h38.34.022,Simcolourproject_2stim_asymm_v5,2020.2.10,Win32,60,61025ae37ef11b136ea224fe,,,,,,,,,2247,35,89,1,0,0,response1disk,,7,7,12,1,0,0,rectangle,7,12,1,0,0,7,12,1,0,0,1,23,183,14,1,,,,,,,,
,,,,,,,,,,,,,FF,,,,,,,,1.33084,,,,,,,,,,,,,,,,,,,,,,6100434d983910e711b3a504,610365571e1a3fc0e82015cc,2021-07-29_21h38.34.022,Simcolourproject_2stim_asymm_v5,2020.2.10,Win32,60,61025ae37ef11b136ea224fe,,,,,,,,,3945,35,-86,1,0,0,response3disk,,4,7,-3,1,0,0,rectangle,7,-3,1,0,0,7,-3,1,0,0,1,24,184,38,1,,,,,,,,
,,,,,,,,,,,,,FF,,,,,,,,0.931405,,,,,,,,,,,,,,,,,,,,,,6100434d983910e711b3a504,610365571e1a3fc0e82015cc,2021-07-29_21h38.34.022,Simcolourproject_2stim_asymm_v5,2020.2.10,Win32,60,61025ae37ef11b136ea224fe,,,,,,,,,732,29,75,1,0,0,response1disk,,7,4,6,1,0,0,rectangle,4,6,1,0,0,4,6,1,0,0,1,25,185,79,1,,,,,,,,
,,,,,,,,,,,,,FF,,,,,,,,1.047215,,,,,,,,,,,,,,,,,,,,,,6100434d983910e711b3a504,610365571e1a3fc0e82015cc,2021-07-29_21h38.34.022,Simcolourproject_2stim_asymm_v5,2020.2.10,Win32,60,61025ae37ef11b136ea224fe,,,,,,,,,3747,-74,26,1,0,0,response7disk,,1,-26,10,1,0,0,rectangle,-26,10,1,0,0,-26,10,1,0,0,1,26,186,138,1,,,,,,,,
,,,,,,,,,,,,,FF,,,,,,,,1.381155,,,,,,,,,,,,,,,,,,,,,,6100434d983910e711b3a504,610365571e1a3fc0e82015cc,2021-07-29_21h38.34.022,Simcolourproject_2stim_asymm_v5,2020.2.10,Win32,60,61025ae37ef11b136ea224fe,,,,,,,,,375,-75,-28,1,0,0,response5disk,,2,-15,10,1,0,0,rectangle,-15,10,1,0,0,-15,10,1,0,0,1,27,187,24,1,,,,,,,,
,,,,,,,,,,,,,FF,,,,,,,,1.196945,,,,,,,,,,,,,,,,,,,,,,6100434d983910e711b3a504,610365571e1a3fc0e82015cc,2021-07-29_21h38.34.022,Simcolourproject_2stim_asymm_v5,2020.2.10,Win32,60,61025ae37ef11b136ea224fe,,,,,,,,,834,36,80,1,0,0,response1disk,,7,10,6,1,0,0,rectangle,10,6,1,0,0,10,6,1,0,0,1,28,188,0,1,,,,,,,,
,,,,,,,,,,,,,FF,,,,,,,,0.93178,,,,,,,,,,,,,,,,,,,,,,6100434d983910e711b3a504,610365571e1a3fc0e82015cc,2021-07-29_21h38.34.022,Simcolourproject_2stim_asymm_v5,2020.2.10,Win32,60,61025ae37ef11b136ea224fe,,,,,,,,,761,33,73,1,0,0,response1disk,,7,0,1,1,0,0,rectangle,0,1,1,0,0,0,1,1,0,0,1,29,189,16,1,,,,,,,,
,,,,,,,,,,,,,FF,,,,,,,,1.695805,,,,,,,,,,,,,,,,,,,,,,6100434d983910e711b3a504,610365571e1a3fc0e82015cc,2021-07-29_21h38.34.022,Simcolourproject_2stim_asymm_v5,2020.2.10,Win32,60,61025ae37ef11b136ea224fe,,,,,,,,,3840,59,53,1,0,0,response1disk,,6,0,-6,1,0,0,rectangle,0,-6,1,0,0,0,-6,1,0,0,1,30,190,131,1,,,,,,,,
,,,,,,,,,,,,,FF,,,,,,,,4.305675,,,,,,,,,,,,,,,,,,,,,,6100434d983910e711b3a504,610365571e1a3fc0e82015cc,2021-07-29_21h38.34.022,Simcolourproject_2stim_asymm_v5,2020.2.10,Win32,60,61025ae37ef11b136ea224fe,,,,,,,,,3957,41,104,1,0,0,response1disk,,7,-1,-2,1,0,0,rectangle,-1,-2,1,0,0,-1,-2,1,0,0,1,31,191,120,1,,,,,,,,
,,,,,,,,,,,,,FF,,,,,,,,0.881794999,,,,,,,,,,,,,,,,,,,,,,6100434d983910e711b3a504,610365571e1a3fc0e82015cc,2021-07-29_21h38.34.022,Simcolourproject_2stim_asymm_v5,2020.2.10,Win32,60,61025ae37ef11b136ea224fe,,,,,,,,,845,27,67,1,0,0,response1disk,,7,1,1,1,0,0,rectangle,1,1,1,0,0,1,1,1,0,0,1,32,192,97,1,,,,,,,,
,,,,,,,,,,,,,FF,,,,,,,,1.014335,,,,,,,,,,,,,,,,,,,,,,6100434d983910e711b3a504,610365571e1a3fc0e82015cc,2021-07-29_21h38.34.022,Simcolourproject_2stim_asymm_v5,2020.2.10,Win32,60,61025ae37ef11b136ea224fe,,,,,,,,,3731,34,62,1,0,0,response1disk,,7,13,11,1,0,0,rectangle,13,11,1,0,0,13,11,1,0,0,1,33,193,146,1,,,,,,,,
,,,,,,,,,,,,,FF,,,,,,,,1.03099,,,,,,,,,,,,,,,,,,,,,,6100434d983910e711b3a504,610365571e1a3fc0e82015cc,2021-07-29_21h38.34.022,Simcolourproject_2stim_asymm_v5,2020.2.10,Win32,60,61025ae37ef11b136ea224fe,,,,,,,,,4174,19,63,1,0,0,response1disk,,7,-17,-7,1,0,0,rectangle,-17,-7,1,0,0,-17,-7,1,0,0,1,34,194,89,1,,,,,,,,
,,,,,,,,,,,,,FF,,,,,,,,1.04854,,,,,,,,,,,,,,,,,,,,,,6100434d983910e711b3a504,610365571e1a3fc0e82015cc,2021-07-29_21h38.34.022,Simcolourproject_2stim_asymm_v5,2020.2.10,Win32,60,61025ae37ef11b136ea224fe,,,,,,,,,921,31,75,1,0,0,response1disk,,7,-1,12,1,0,0,rectangle,-1,12,1,0,0,-1,12,1,0,0,1,35,195,115,1,,,,,,,,
,,,,,,,,,,,,,FF,,,,,,,,0.964645,,,,,,,,,,,,,,,,,,,,,,6100434d983910e711b3a504,610365571e1a3fc0e82015cc,2021-07-29_21h38.34.022,Simcolourproject_2stim_asymm_v5,2020.2.10,Win32,60,61025ae37ef11b136ea224fe,,,,,,,,,774,29,89,1,0,0,response1disk,,7,-16,4,1,0,0,rectangle,-16,4,1,0,0,-16,4,1,0,0,1,36,196,129,1,,,,,,,,
,,,,,,,,,,,,,FF,,,,,,,,1.612664999,,,,,,,,,,,,,,,,,,,,,,6100434d983910e711b3a504,610365571e1a3fc0e82015cc,2021-07-29_21h38.34.022,Simcolourproject_2stim_asymm_v5,2020.2.10,Win32,60,61025ae37ef11b136ea224fe,,,,,,,,,2421,-96,-19,1,0,0,response5disk,,2,-19,2,1,0,0,rectangle,-19,2,1,0,0,-19,2,1,0,0,1,37,197,72,1,,,,,,,,
,,,,,,,,,,,,,FF,,,,,,,,1.16377,,,,,,,,,,,,,,,,,,,,,,6100434d983910e711b3a504,610365571e1a3fc0e82015cc,2021-07-29_21h38.34.022,Simcolourproject_2stim_asymm_v5,2020.2.10,Win32,60,61025ae37ef11b136ea224fe,,,,,,,,,1000,29,81,1,0,0,response1disk,,7,0,2,1,0,0,rectangle,0,2,1,0,0,0,2,1,0,0,1,38,198,17,1,,,,,,,,
,,,,,,,,,,,,,FF,,,,,,,,1.1307,,,,,,,,,,,,,,,,,,,,,,6100434d983910e711b3a504,610365571e1a3fc0e82015cc,2021-07-29_21h38.34.022,Simcolourproject_2stim_asymm_v5,2020.2.10,Win32,60,61025ae37ef11b136ea224fe,,,,,,,,,3744,-72,-26,1,0,0,response5disk,,2,-11,1,1,0,0,rectangle,-11,1,1,0,0,-11,1,1,0,0,1,39,199,156,1,,,,,,,,
,,,,,,,,,,,,,FF,,,,,,,,0.764304999,,,,,,,,,,,,,,,,,,,,,,6100434d983910e711b3a504,610365571e1a3fc0e82015cc,2021-07-29_21h38.34.022,Simcolourproject_2stim_asymm_v5,2020.2.10,Win32,60,61025ae37ef11b136ea224fe,,,,,,,,,338,49,83,1,0,0,response1disk,,7,6,11,1,0,0,rectangle,6,11,1,0,0,6,11,1,0,0,1,40,200,12,1,,,,,,,,
,,,,,,,,,,,,,FF,,,,,,,,0.947755,,,,,,,,,,,,,,,,,,,,,,6100434d983910e711b3a504,610365571e1a3fc0e82015cc,2021-07-29_21h38.34.022,Simcolourproject_2stim_asymm_v5,2020.2.10,Win32,60,61025ae37ef11b136ea224fe,,,,,,,,,3202,-67,-22,1,0,0,response5disk,,2,-25,7,1,0,0,rectangle,-25,7,1,0,0,-25,7,1,0,0,1,41,201,45,1,,,,,,,,
,,,,,,,,,,,,,FF,,,,,,,,0.798365,,,,,,,,,,,,,,,,,,,,,,6100434d983910e711b3a504,610365571e1a3fc0e82015cc,2021-07-29_21h38.34.022,Simcolourproject_2stim_asymm_v5,2020.2.10,Win32,60,61025ae37ef11b136ea224fe,,,,,,,,,3883,35,67,1,0,0,response1disk,,7,6,12,1,0,0,rectangle,6,12,1,0,0,6,12,1,0,0,1,42,202,149,1,,,,,,,,
,,,,,,,,,,,,,FF,,,,,,,,0.998079999,,,,,,,,,,,,,,,,,,,,,,6100434d983910e711b3a504,610365571e1a3fc0e82015cc,2021-07-29_21h38.34.022,Simcolourproject_2stim_asymm_v5,2020.2.10,Win32,60,61025ae37ef11b136ea224fe,,,,,,,,,3480,-91,-31,1,0,0,response5disk,,2,-14,-5,1,0,0,rectangle,-14,-5,1,0,0,-14,-5,1,0,0,1,43,203,114,1,,,,,,,,
,,,,,,,,,,,,,FF,,,,,,,,1.77887,,,,,,,,,,,,,,,,,,,,,,6100434d983910e711b3a504,610365571e1a3fc0e82015cc,2021-07-29_21h38.34.022,Simcolourproject_2stim_asymm_v5,2020.2.10,Win32,60,61025ae37ef11b136ea224fe,,,,,,,,,554,93,-34,1,0,0,response3disk,,5,5,8,1,0,0,rectangle,5,8,1,0,0,5,8,1,0,0,1,44,204,139,1,,,,,,,,
,,,,,,,,,,,,,FF,,,,,,,,1.746185,,,,,,,,,,,,,,,,,,,,,,6100434d983910e711b3a504,610365571e1a3fc0e82015cc,2021-07-29_21h38.34.022,Simcolourproject_2stim_asymm_v5,2020.2.10,Win32,60,61025ae37ef11b136ea224fe,,,,,,,,,3084,26,56,1,0,0,response1disk,,7,-1,6,1,0,0,rectangle,-1,6,1,0,0,-1,6,1,0,0,1,45,205,130,1,,,,,,,,
,,,,,,,,,,,,,FF,,,,,,,,0.948215,,,,,,,,,,,,,,,,,,,,,,6100434d983910e711b3a504,610365571e1a3fc0e82015cc,2021-07-29_21h38.34.022,Simcolourproject_2stim_asymm_v5,2020.2.10,Win32,60,61025ae37ef11b136ea224fe,,,,,,,,,3730,49,95,1,0,0,response1disk,,7,5,12,1,0,0,rectangle,5,12,1,0,0,5,12,1,0,0,1,46,206,60,1,,,,,,,,
,,,,,,,,,,,,,FF,,,,,,,,0.881715,,,,,,,,,,,,,,,,,,,,,,6100434d983910e711b3a504,610365571e1a3fc0e82015cc,2021-07-29_21h38.34.022,Simcolourproject_2stim_asymm_v5,2020.2.10,Win32,60,61025ae37ef11b136ea224fe,,,,,,,,,3861,33,69,1,0,0,response1disk,,7,8,6,1,0,0,rectangle,8,6,1,0,0,8,6,1,0,0,1,47,207,2,1,,,,,,,,
,,,,,,,,,,,,,FF,,,,,,,,1.21344,,,,,,,,,,,,,,,,,,,,,,6100434d983910e711b3a504,610365571e1a3fc0e82015cc,2021-07-29_21h38.34.022,Simcolourproject_2stim_asymm_v5,2020.2.10,Win32,60,61025ae37ef11b136ea224fe,,,,,,,,,2432,89,37,1,0,0,response1disk,,6,-1,2,1,0,0,rectangle,-1,2,1,0,0,-1,2,1,0,0,1,48,208,69,1,,,,,,,,
,,,,,,,,,,,,,FF,,,,,,,,1.563065,,,,,,,,,,,,,,,,,,,,,,6100434d983910e711b3a504,610365571e1a3fc0e82015cc,2021-07-29_21h38.34.022,Simcolourproject_2stim_asymm_v5,2020.2.10,Win32,60,61025ae37ef11b136ea224fe,,,,,,,,,2282,75,-40,1,0,0,response3disk,,5,7,2,1,0,0,rectangle,7,2,1,0,0,7,2,1,0,0,1,49,209,1,1,,,,,,,,
,,,,,,,,,,,,,FF,,,,,,,,1.529075,,,,,,,,,,,,,,,,,,,,,,6100434d983910e711b3a504,610365571e1a3fc0e82015cc,2021-07-29_21h38.34.022,Simcolourproject_2stim_asymm_v5,2020.2.10,Win32,60,61025ae37ef11b136ea224fe,,,,,,,,,1770,40,75,1,0,0,response1disk,,7,3,1,1,0,0,rectangle,3,1,1,0,0,3,1,1,0,0,1,50,210,93,1,,,,,,,,
,,,,,,,,,,,,,FF,,,,,,,,0.864955001,,,,,,,,,,,,,,,,,,,,,,6100434d983910e711b3a504,610365571e1a3fc0e82015cc,2021-07-29_21h38.34.022,Simcolourproject_2stim_asymm_v5,2020.2.10,Win32,60,61025ae37ef11b136ea224fe,,,,,,,,,3609,27,72,1,0,0,response1disk,,7,-5,13,1,0,0,rectangle,-5,13,1,0,0,-5,13,1,0,0,1,51,211,3,1,,,,,,,,
,,,,,,,,,,,,,FF,,,,,,,,1.23131,,,,,,,,,,,,,,,,,,,,,,6100434d983910e711b3a504,610365571e1a3fc0e82015cc,2021-07-29_21h38.34.022,Simcolourproject_2stim_asymm_v5,2020.2.10,Win32,60,61025ae37ef11b136ea224fe,,,,,,,,,2241,33,-87,1,0,0,response3disk,,4,10,1,1,0,0,rectangle,10,1,1,0,0,10,1,1,0,0,1,52,212,140,1,,,,,,,,
,,,,,,,,,,,,,FF,,,,,,,,1.03162,,,,,,,,,,,,,,,,,,,,,,6100434d983910e711b3a504,610365571e1a3fc0e82015cc,2021-07-29_21h38.34.022,Simcolourproject_2stim_asymm_v5,2020.2.10,Win32,60,61025ae37ef11b136ea224fe,,,,,,,,,2378,52,117,1,0,0,response1disk,,7,0,1,1,0,0,rectangle,0,1,1,0,0,0,1,1,0,0,1,53,213,11,1,,,,,,,,
,,,,,,,,,,,,,FF,,,,,,,,1.097855,,,,,,,,,,,,,,,,,,,,,,6100434d983910e711b3a504,610365571e1a3fc0e82015cc,2021-07-29_21h38.34.022,Simcolourproject_2stim_asymm_v5,2020.2.10,Win32,60,61025ae37ef11b136ea224fe,,,,,,,,,2140,30,68,1,0,0,response1disk,,7,7,8,1,0,0,rectangle,7,8,1,0,0,7,8,1,0,0,1,54,214,107,1,,,,,,,,
,,,,,,,,,,,,,FF,,,,,,,,0.64874,,,,,,,,,,,,,,,,,,,,,,6100434d983910e711b3a504,610365571e1a3fc0e82015cc,2021-07-29_21h38.34.022,Simcolourproject_2stim_asymm_v5,2020.2.10,Win32,60,61025ae37ef11b136ea224fe,,,,,,,,,3617,27,58,1,0,0,response1disk,,7,9,12,1,0,0,rectangle,9,12,1,0,0,9,12,1,0,0,1,55,215,63,1,,,,,,,,
,,,,,,,,,,,,,FF,,,,,,,,1.978335001,,,,,,,,,,,,,,,,,,,,,,6100434d983910e711b3a504,610365571e1a3fc0e82015cc,2021-07-29_21h38.34.022,Simcolourproject_2stim_asymm_v5,2020.2.10,Win32,60,61025ae37ef11b136ea224fe,,,,,,,,,289,22,-89,1,0,0,response3disk,,4,10,6,1,0,0,rectangle,35,82,1,0,0,9,11,1,0,0,1,56,216,33,1,,response1disk_3,TRUE,7,7,"[165,169,146,84,124,146,236,64,13,81,107,229,304,318,10,245,13,44,217,24]",1.86197,rectangle
,,,,,,,,,,,,,FF,,,,,,,,1.44655,,,,,,,,,,,,,,,,,,,,,,6100434d983910e711b3a504,610365571e1a3fc0e82015cc,2021-07-29_21h38.34.022,Simcolourproject_2stim_asymm_v5,2020.2.10,Win32,60,61025ae37ef11b136ea224fe,,,,,,,,,87,54,44,1,0,0,response1disk,,6,6,-7,1,0,0,rectangle,6,-7,1,0,0,6,-7,1,0,0,1,57,217,126,1,,,,,,,,
,,,,,,,,,,,,,FF,,,,,,,,2.094715,,,,,,,,,,,,,,,,,,,,,,6100434d983910e711b3a504,610365571e1a3fc0e82015cc,2021-07-29_21h38.34.022,Simcolourproject_2stim_asymm_v5,2020.2.10,Win32,60,61025ae37ef11b136ea224fe,,,,,,,,,3212,95,-29,1,0,0,response3disk,,5,-1,11,1,0,0,rectangle,-1,11,1,0,0,-1,11,1,0,0,1,58,218,132,1,,,,,,,,
,,,,,,,,,,,,,FF,,,,,,,,1.16368,,,,,,,,,,,,,,,,,,,,,,6100434d983910e711b3a504,610365571e1a3fc0e82015cc,2021-07-29_21h38.34.022,Simcolourproject_2stim_asymm_v5,2020.2.10,Win32,60,61025ae37ef11b136ea224fe,,,,,,,,,1382,-27,-64,1,0,0,response5disk,,3,1,7,1,0,0,rectangle,1,7,1,0,0,1,7,1,0,0,1,59,219,152,1,,,,,,,,
,,,,,,,,,,,,,FF,,,,,,,,0.947819999,,,,,,,,,,,,,,,,,,,,,,6100434d983910e711b3a504,610365571e1a3fc0e82015cc,2021-07-29_21h38.34.022,Simcolourproject_2stim_asymm_v5,2020.2.10,Win32,60,61025ae37ef11b136ea224fe,,,,,,,,,1623,27,63,1,0,0,response1disk,,7,5,4,1,0,0,rectangle,5,4,1,0,0,5,4,1,0,0,1,60,220,92,1,,,,,,,,
,,,,,,,,,,,,,FF,,,,,,,,1.230615,,,,,,,,,,,,,,,,,,,,,,6100434d983910e711b3a504,610365571e1a3fc0e82015cc,2021-07-29_21h38.34.022,Simcolourproject_2stim_asymm_v5,2020.2.10,Win32,60,61025ae37ef11b136ea224fe,,,,,,,,,354,-85,-43,1,0,0,response5disk,,2,-32,-3,1,0,0,rectangle,-32,-3,1,0,0,-32,-3,1,0,0,1,61,221,42,1,,,,,,,,
,,,,,,,,,,,,,FF,,,,,,,,0.8977,,,,,,,,,,,,,,,,,,,,,,6100434d983910e711b3a504,610365571e1a3fc0e82015cc,2021-07-29_21h38.34.022,Simcolourproject_2stim_asymm_v5,2020.2.10,Win32,60,61025ae37ef11b136ea224fe,,,,,,,,,96,-59,-30,1,0,0,response5disk,,2,-4,-3,1,0,0,rectangle,-4,-3,1,0,0,-4,-3,1,0,0,1,62,222,118,1,,,,,,,,
,,,,,,,,,,,,,FF,,,,,,,,0.848545,,,,,,,,,,,,,,,,,,,,,,6100434d983910e711b3a504,610365571e1a3fc0e82015cc,2021-07-29_21h38.34.022,Simcolourproject_2stim_asymm_v5,2020.2.10,Win32,60,61025ae37ef11b136ea224fe,,,,,,,,,187,-85,-39,1,0,0,response5disk,,2,-2,7,1,0,0,rectangle,-2,7,1,0,0,-2,7,1,0,0,1,63,223,154,1,,,,,,,,
,,,,,,,,,,,,,FF,,,,,,,,1.213885,,,,,,,,,,,,,,,,,,,,,,6100434d983910e711b3a504,610365571e1a3fc0e82015cc,2021-07-29_21h38.34.022,Simcolourproject_2stim_asymm_v5,2020.2.10,Win32,60,61025ae37ef11b136ea224fe,,,,,,,,,415,26,91,1,0,0,response1disk,,7,-3,9,1,0,0,rectangle,-3,9,1,0,0,-3,9,1,0,0,1,64,224,36,1,,,,,,,,
,,,,,,,,,,,,,FF,,,,,,,,1.258515,,,,,,,,,,,,,,,,,,,,,,6100434d983910e711b3a504,610365571e1a3fc0e82015cc,2021-07-29_21h38.34.022,Simcolourproject_2stim_asymm_v5,2020.2.10,Win32,60,61025ae37ef11b136ea224fe,,,,,,,,,3198,-51,-69,1,0,0,response5disk,,3,-11,-1,1,0,0,rectangle,-11,-1,1,0,0,-11,-1,1,0,0,1,65,225,100,1,,,,,,,,
,,,,,,,,,,,,,FF,,,,,,,,2.21125,,,,,,,,,,,,,,,,,,,,,,6100434d983910e711b3a504,610365571e1a3fc0e82015cc,2021-07-29_21h38.34.022,Simcolourproject_2stim_asymm_v5,2020.2.10,Win32,60,61025ae37ef11b136ea224fe,,,,,,,,,3519,-94,-44,1,0,0,response5disk,,2,-12,3,1,0,0,rectangle,-12,3,1,0,0,-12,3,1,0,0,1,66,226,73,1,,,,,,,,
,,,,,,,,,,,,,FF,,,,,,,,1.06419,,,,,,,,,,,,,,,,,,,,,,6100434d983910e711b3a504,610365571e1a3fc0e82015cc,2021-07-29_21h38.34.022,Simcolourproject_2stim_asymm_v5,2020.2.10,Win32,60,61025ae37ef11b136ea224fe,,,,,,,,,969,-70,-29,1,0,0,response5disk,,2,-16,5,1,0,0,rectangle,-16,5,1,0,0,-16,5,1,0,0,1,67,227,25,1,,,,,,,,
,,,,,,,,,,,,,FF,,,,,,,,0.997690001,,,,,,,,,,,,,,,,,,,,,,6100434d983910e711b3a504,610365571e1a3fc0e82015cc,2021-07-29_21h38.34.022,Simcolourproject_2stim_asymm_v5,2020.2.10,Win32,60,61025ae37ef11b136ea224fe,,,,,,,,,4075,37,74,1,0,0,response1disk,,7,5,3,1,0,0,rectangle,83,58,1,0,0,23,7,1,0,0,1,68,228,56,1,,response1disk_3,TRUE,6,6,"[165,169,146,84,124,146,236,64,13,81,107,229,304,318,10,245,13,44,217,24]",1.695255,rectangle
,,,,,,,,,,,,,FF,,,,,,,,0.98101,,,,,,,,,,,,,,,,,,,,,,6100434d983910e711b3a504,610365571e1a3fc0e82015cc,2021-07-29_21h38.34.022,Simcolourproject_2stim_asymm_v5,2020.2.10,Win32,60,61025ae37ef11b136ea224fe,,,,,,,,,829,36,72,1,0,0,response1disk,,7,0,10,1,0,0,rectangle,0,10,1,0,0,0,10,1,0,0,1,69,229,34,1,,,,,,,,
,,,,,,,,,,,,,FF,,,,,,,,1.280184999,,,,,,,,,,,,,,,,,,,,,,6100434d983910e711b3a504,610365571e1a3fc0e82015cc,2021-07-29_21h38.34.022,Simcolourproject_2stim_asymm_v5,2020.2.10,Win32,60,61025ae37ef11b136ea224fe,,,,,,,,,2162,-43,-63,1,0,0,response5disk,,3,-7,10,1,0,0,rectangle,-7,10,1,0,0,-7,10,1,0,0,1,70,230,52,1,,,,,,,,
,,,,,,,,,,,,,FF,,,,,,,,0.947825001,,,,,,,,,,,,,,,,,,,,,,6100434d983910e711b3a504,610365571e1a3fc0e82015cc,2021-07-29_21h38.34.022,Simcolourproject_2stim_asymm_v5,2020.2.10,Win32,60,61025ae37ef11b136ea224fe,,,,,,,,,1004,37,88,1,0,0,response1disk,,7,5,6,1,0,0,rectangle,5,6,1,0,0,5,6,1,0,0,1,71,231,128,1,,,,,,,,
,,,,,,,,,,,,,FF,,,,,,,,0.864655,,,,,,,,,,,,,,,,,,,,,,6100434d983910e711b3a504,610365571e1a3fc0e82015cc,2021-07-29_21h38.34.022,Simcolourproject_2stim_asymm_v5,2020.2.10,Win32,60,61025ae37ef11b136ea224fe,,,,,,,,,2632,34,77,1,0,0,response1disk,,7,6,8,1,0,0,rectangle,6,8,1,0,0,6,8,1,0,0,1,72,232,143,1,,,,,,,,
,,,,,,,,,,,,,FF,,,,,,,,1.296850001,,,,,,,,,,,,,,,,,,,,,,6100434d983910e711b3a504,610365571e1a3fc0e82015cc,2021-07-29_21h38.34.022,Simcolourproject_2stim_asymm_v5,2020.2.10,Win32,60,61025ae37ef11b136ea224fe,,,,,,,,,243,36,96,1,0,0,response1disk,,7,-6,12,1,0,0,rectangle,-6,12,1,0,0,-6,12,1,0,0,1,73,233,26,1,,,,,,,,
,,,,,,,,,,,,,FF,,,,,,,,1.14723,,,,,,,,,,,,,,,,,,,,,,6100434d983910e711b3a504,610365571e1a3fc0e82015cc,2021-07-29_21h38.34.022,Simcolourproject_2stim_asymm_v5,2020.2.10,Win32,60,61025ae37ef11b136ea224fe,,,,,,,,,2669,-53,-74,1,0,0,response5disk,,3,-22,3,1,0,0,rectangle,-22,3,1,0,0,-22,3,1,0,0,1,74,234,59,1,,,,,,,,
,,,,,,,,,,,,,FF,,,,,,,,0.88156,,,,,,,,,,,,,,,,,,,,,,6100434d983910e711b3a504,610365571e1a3fc0e82015cc,2021-07-29_21h38.34.022,Simcolourproject_2stim_asymm_v5,2020.2.10,Win32,60,61025ae37ef11b136ea224fe,,,,,,,,,3445,25,84,1,0,0,response1disk,,7,-16,1,1,0,0,rectangle,84,38,1,0,0,22,10,1,0,0,1,75,235,27,1,,response1disk_3,TRUE,6,6,"[165,169,146,84,124,146,236,64,13,81,107,229,304,318,10,245,13,44,217,24]",2.3112,rectangle
,,,,,,,,,,,,,FF,,,,,,,,0.964885,,,,,,,,,,,,,,,,,,,,,,6100434d983910e711b3a504,610365571e1a3fc0e82015cc,2021-07-29_21h38.34.022,Simcolourproject_2stim_asymm_v5,2020.2.10,Win32,60,61025ae37ef11b136ea224fe,,,,,,,,,3325,54,88,1,0,0,response1disk,,7,-2,3,1,0,0,rectangle,-2,3,1,0,0,-2,3,1,0,0,1,76,236,20,1,,,,,,,,
,,,,,,,,,,,,,FF,,,,,,,,1.479944999,,,,,,,,,,,,,,,,,,,,,,6100434d983910e711b3a504,610365571e1a3fc0e82015cc,2021-07-29_21h38.34.022,Simcolourproject_2stim_asymm_v5,2020.2.10,Win32,60,61025ae37ef11b136ea224fe,,,,,,,,,1758,-57,-88,1,0,0,response5disk,,3,-7,-2,1,0,0,rectangle,-7,-2,1,0,0,-7,-2,1,0,0,1,77,237,134,1,,,,,,,,
,,,,,,,,,,,,,FF,,,,,,,,1.71253,,,,,,,,,,,,,,,,,,,,,,6100434d983910e711b3a504,610365571e1a3fc0e82015cc,2021-07-29_21h38.34.022,Simcolourproject_2stim_asymm_v5,2020.2.10,Win32,60,61025ae37ef11b136ea224fe,,,,,,,,,2399,35,75,1,0,0,response1disk,,7,-4,3,1,0,0,rectangle,-4,3,1,0,0,-4,3,1,0,0,1,78,238,31,1,,,,,,,,
,,,,,,,,,,,,,FF,,,,,,,,2.80964,,,,,,,,,,,,,,,,,,,,,,6100434d983910e711b3a504,610365571e1a3fc0e82015cc,2021-07-29_21h38.34.022,Simcolourproject_2stim_asymm_v5,2020.2.10,Win32,60,61025ae37ef11b136ea224fe,,,,,,,,,1241,-31,-83,1,0,0,response5disk,,3,10,-5,1,0,0,rectangle,10,-5,1,0,0,10,-5,1,0,0,1,79,239,49,1,,,,,,,,
,,,,,,,,,,,,,FF,,,,,,,,1.81203,,,,,,,,,,,,,,,,,,,,,,6100434d983910e711b3a504,610365571e1a3fc0e82015cc,2021-07-29_21h38.34.022,Simcolourproject_2stim_asymm_v5,2020.2.10,Win32,60,61025ae37ef11b136ea224fe,,,,,,,,,4300,92,-42,1,0,0,response3disk,,5,-4,2,1,0,0,rectangle,-4,2,1,0,0,-4,2,1,0,0,1,80,240,19,1,,,,,,,,
,,,,,,,,,,,,,FF,,,,,,,,4.68803,,,,,,,,,,,,,,,,,,,,,,6100434d983910e711b3a504,610365571e1a3fc0e82015cc,2021-07-29_21h38.34.022,Simcolourproject_2stim_asymm_v5,2020.2.10,Win32,60,61025ae37ef11b136ea224fe,,,,,,,,,1980,52,41,1,0,0,response1disk,,6,9,2,1,0,0,rectangle,9,2,1,0,0,9,2,1,0,0,1,81,241,35,1,,,,,,,,
,,,,,,,,,,,,,FF,,,,,,,,0.73199,,,,,,,,,,,,,,,,,,,,,,6100434d983910e711b3a504,610365571e1a3fc0e82015cc,2021-07-29_21h38.34.022,Simcolourproject_2stim_asymm_v5,2020.2.10,Win32,60,61025ae37ef11b136ea224fe,,,,,,,,,4245,37,68,1,0,0,response1disk,,7,-9,3,1,0,0,rectangle,-9,3,1,0,0,-9,3,1,0,0,1,82,242,78,1,,,,,,,,
,,,,,,,,,,,,,FF,,,,,,,,0.68179,,,,,,,,,,,,,,,,,,,,,,6100434d983910e711b3a504,610365571e1a3fc0e82015cc,2021-07-29_21h38.34.022,Simcolourproject_2stim_asymm_v5,2020.2.10,Win32,60,61025ae37ef11b136ea224fe,,,,,,,,,2449,39,87,1,0,0,response1disk,,7,2,5,1,0,0,rectangle,2,5,1,0,0,2,5,1,0,0,1,83,243,13,1,,,,,,,,
,,,,,,,,,,,,,FF,,,,,,,,0.84649,,,,,,,,,,,,,,,,,,,,,,6100434d983910e711b3a504,610365571e1a3fc0e82015cc,2021-07-29_21h38.34.022,Simcolourproject_2stim_asymm_v5,2020.2.10,Win32,60,61025ae37ef11b136ea224fe,,,,,,,,,3241,29,60,1,0,0,response1disk,,7,2,3,1,0,0,rectangle,45,93,1,0,0,4,7,1,0,0,1,84,244,125,1,,response1disk_3,TRUE,7,7,"[165,169,146,84,124,146,236,64,13,81,107,229,304,318,10,245,13,44,217,24]",1.47938,rectangle
,,,,,,,,,,,,,FF,,,,,,,,1.16389,,,,,,,,,,,,,,,,,,,,,,6100434d983910e711b3a504,610365571e1a3fc0e82015cc,2021-07-29_21h38.34.022,Simcolourproject_2stim_asymm_v5,2020.2.10,Win32,60,61025ae37ef11b136ea224fe,,,,,,,,,4062,73,28,1,0,0,response1disk,,6,-9,7,1,0,0,rectangle,-9,7,1,0,0,-9,7,1,0,0,1,85,245,75,1,,,,,,,,
,,,,,,,,,,,,,FF,,,,,,,,1.147265,,,,,,,,,,,,,,,,,,,,,,6100434d983910e711b3a504,610365571e1a3fc0e82015cc,2021-07-29_21h38.34.022,Simcolourproject_2stim_asymm_v5,2020.2.10,Win32,60,61025ae37ef11b136ea224fe,,,,,,,,,199,-50,-75,1,0,0,response5disk,,3,2,-6,1,0,0,rectangle,2,-6,1,0,0,2,-6,1,0,0,1,86,246,57,1,,,,,,,,
,,,,,,,,,,,,,FF,,,,,,,,1.214155,,,,,,,,,,,,,,,,,,,,,,6100434d983910e711b3a504,610365571e1a3fc0e82015cc,2021-07-29_21h38.34.022,Simcolourproject_2stim_asymm_v5,2020.2.10,Win32,60,61025ae37ef11b136ea224fe,,,,,,,,,918,35,82,1,0,0,response1disk,,7,0,-3,1,0,0,rectangle,0,-3,1,0,0,0,-3,1,0,0,1,87,247,95,1,,,,,,,,
,,,,,,,,,,,,,FF,,,,,,,,0.881800001,,,,,,,,,,,,,,,,,,,,,,6100434d983910e711b3a504,610365571e1a3fc0e82015cc,2021-07-29_21h38.34.022,Simcolourproject_2stim_asymm_v5,2020.2.10,Win32,60,61025ae37ef11b136ea224fe,,,,,,,,,2251,37,96,1,0,0,response1disk,,7,5,5,1,0,0,rectangle,5,5,1,0,0,5,5,1,0,0,1,88,248,133,1,,,,,,,,
,,,,,,,,,,,,,FF,,,,,,,,0.8136,,,,,,,,,,,,,,,,,,,,,,6100434d983910e711b3a504,610365571e1a3fc0e82015cc,2021-07-29_21h38.34.022,Simcolourproject_2stim_asymm_v5,2020.2.10,Win32,60,61025ae37ef11b136ea224fe,,,,,,,,,1631,34,58,1,0,0,response1disk,,7,14,7,1,0,0,rectangle,14,7,1,0,0,14,7,1,0,0,1,89,249,137,1,,,,,,,,
,,,,,,,,,,,,,FF,,,,,,,,0.89775,,,,,,,,,,,,,,,,,,,,,,6100434d983910e711b3a504,610365571e1a3fc0e82015cc,2021-07-29_21h38.34.022,Simcolourproject_2stim_asymm_v5,2020.2.10,Win32,60,61025ae37ef11b136ea224fe,,,,,,,,,2677,52,43,1,0,0,response1disk,,6,4,3,1,0,0,rectangle,4,3,1,0,0,4,3,1,0,0,1,90,250,61,1,,,,,,,,
,,,,,,,,,,,,,FF,,,,,,,,1.13086,,,,,,,,,,,,,,,,,,,,,,6100434d983910e711b3a504,610365571e1a3fc0e82015cc,2021-07-29_21h38.34.022,Simcolourproject_2stim_asymm_v5,2020.2.10,Win32,60,61025ae37ef11b136ea224fe,,,,,,,,,1134,-64,-81,1,0,0,response5disk,,3,-23,5,1,0,0,rectangle,-23,5,1,0,0,-23,5,1,0,0,1,91,251,9,1,,,,,,,,
,,,,,,,,,,,,,FF,,,,,,,,1.645625,,,,,,,,,,,,,,,,,,,,,,6100434d983910e711b3a504,610365571e1a3fc0e82015cc,2021-07-29_21h38.34.022,Simcolourproject_2stim_asymm_v5,2020.2.10,Win32,60,61025ae37ef11b136ea224fe,,,,,,,,,1055,63,-47,1,0,0,response3disk,,5,-5,-3,1,0,0,rectangle,-5,-3,1,0,0,-5,-3,1,0,0,1,92,252,4,1,,,,,,,,
,,,,,,,,,,,,,FF,,,,,,,,2.179014999,,,,,,,,,,,,,,,,,,,,,,6100434d983910e711b3a504,610365571e1a3fc0e82015cc,2021-07-29_21h38.34.022,Simcolourproject_2stim_asymm_v5,2020.2.10,Win32,60,61025ae37ef11b136ea224fe,,,,,,,,,15,-68,-81,1,0,0,response5disk,,3,-7,-1,1,0,0,rectangle,-7,-1,1,0,0,-7,-1,1,0,0,1,93,253,127,1,,,,,,,,
,,,,,,,,,,,,,FF,,,,,,,,1.080905,,,,,,,,,,,,,,,,,,,,,,6100434d983910e711b3a504,610365571e1a3fc0e82015cc,2021-07-29_21h38.34.022,Simcolourproject_2stim_asymm_v5,2020.2.10,Win32,60,61025ae37ef11b136ea224fe,,,,,,,,,320,34,82,1,0,0,response1disk,,7,18,12,1,0,0,rectangle,18,12,1,0,0,18,12,1,0,0,1,94,254,155,1,,,,,,,,
,,,,,,,,,,,,,FF,,,,,,,,1.5313,,,,,,,,,,,,,,,,,,,,,,6100434d983910e711b3a504,610365571e1a3fc0e82015cc,2021-07-29_21h38.34.022,Simcolourproject_2stim_asymm_v5,2020.2.10,Win32,60,61025ae37ef11b136ea224fe,,,,,,,,,1670,-52,76,1,0,0,response7disk,,0,3,15,1,0,0,rectangle,3,15,1,0,0,3,15,1,0,0,1,95,255,103,1,,,,,,,,
,,,,,,,,,,,,,FF,,,,,,,,1.696285,,,,,,,,,,,,,,,,,,,,,,6100434d983910e711b3a504,610365571e1a3fc0e82015cc,2021-07-29_21h38.34.022,Simcolourproject_2stim_asymm_v5,2020.2.10,Win32,60,61025ae37ef11b136ea224fe,,,,,,,,,1574,18,88,1,0,0,response1disk,,7,-3,8,1,0,0,rectangle,-3,8,1,0,0,-3,8,1,0,0,1,96,256,21,1,,,,,,,,
,,,,,,,,,,,,,FF,,,,,,,,1.911875,,,,,,,,,,,,,,,,,,,,,,6100434d983910e711b3a504,610365571e1a3fc0e82015cc,2021-07-29_21h38.34.022,Simcolourproject_2stim_asymm_v5,2020.2.10,Win32,60,61025ae37ef11b136ea224fe,,,,,,,,,3386,28,-80,1,0,0,response3disk,,4,5,-2,1,0,0,rectangle,5,-2,1,0,0,5,-2,1,0,0,1,97,257,110,1,,,,,,,,
,,,,,,,,,,,,,FF,,,,,,,,1.97774,,,,,,,,,,,,,,,,,,,,,,6100434d983910e711b3a504,610365571e1a3fc0e82015cc,2021-07-29_21h38.34.022,Simcolourproject_2stim_asymm_v5,2020.2.10,Win32,60,61025ae37ef11b136ea224fe,,,,,,,,,4226,34,60,1,0,0,response1disk,,7,-4,6,1,0,0,rectangle,-4,6,1,0,0,-4,6,1,0,0,1,98,258,150,1,,,,,,,,
,,,,,,,,,,,,,FF,,,,,,,,0.931244999,,,,,,,,,,,,,,,,,,,,,,6100434d983910e711b3a504,610365571e1a3fc0e82015cc,2021-07-29_21h38.34.022,Simcolourproject_2stim_asymm_v5,2020.2.10,Win32,60,61025ae37ef11b136ea224fe,,,,,,,,,3323,37,86,1,0,0,response1disk,,7,1,7,1,0,0,rectangle,1,7,1,0,0,1,7,1,0,0,1,99,259,109,1,,,,,,,,
,,,,,,,,,,,,,FF,,,,,,,,0.81463,,,,,,,,,,,,,,,,,,,,,,6100434d983910e711b3a504,610365571e1a3fc0e82015cc,2021-07-29_21h38.34.022,Simcolourproject_2stim_asymm_v5,2020.2.10,Win32,60,61025ae37ef11b136ea224fe,,,,,,,,,2822,30,77,1,0,0,response1disk,,7,7,9,1,0,0,rectangle,7,9,1,0,0,7,9,1,0,0,1,100,260,87,1,,,,,,,,
,,,,,,,,,,,,,FF,,,,,,,,1.728750001,,,,,,,,,,,,,,,,,,,,,,6100434d983910e711b3a504,610365571e1a3fc0e82015cc,2021-07-29_21h38.34.022,Simcolourproject_2stim_asymm_v5,2020.2.10,Win32,60,61025ae37ef11b136ea224fe,,,,,,,,,350,-60,-76,1,0,0,response5disk,,3,7,-3,1,0,0,rectangle,7,-3,1,0,0,7,-3,1,0,0,1,101,261,64,1,,,,,,,,
,,,,,,,,,,,,,FF,,,,,,,,1.214170001,,,,,,,,,,,,,,,,,,,,,,6100434d983910e711b3a504,610365571e1a3fc0e82015cc,2021-07-29_21h38.34.022,Simcolourproject_2stim_asymm_v5,2020.2.10,Win32,60,61025ae37ef11b136ea224fe,,,,,,,,,1902,-43,-69,1,0,0,response5disk,,3,7,-5,1,0,0,rectangle,7,-5,1,0,0,7,-5,1,0,0,1,102,262,37,1,,,,,,,,
,,,,,,,,,,,,,FF,,,,,,,,1.047835,,,,,,,,,,,,,,,,,,,,,,6100434d983910e711b3a504,610365571e1a3fc0e82015cc,2021-07-29_21h38.34.022,Simcolourproject_2stim_asymm_v5,2020.2.10,Win32,60,61025ae37ef11b136ea224fe,,,,,,,,,1013,27,60,1,0,0,response1disk,,7,7,3,1,0,0,rectangle,7,3,1,0,0,7,3,1,0,0,1,103,263,83,1,,,,,,,,
,,,,,,,,,,,,,FF,,,,,,,,2.244975,,,,,,,,,,,,,,,,,,,,,,6100434d983910e711b3a504,610365571e1a3fc0e82015cc,2021-07-29_21h38.34.022,Simcolourproject_2stim_asymm_v5,2020.2.10,Win32,60,61025ae37ef11b136ea224fe,,,,,,,,,3162,76,45,1,0,0,response1disk,,6,-8,1,1,0,0,rectangle,-8,1,1,0,0,-8,1,1,0,0,1,104,264,71,1,,,,,,,,
,,,,,,,,,,,,,FF,,,,,,,,1.130905,,,,,,,,,,,,,,,,,,,,,,6100434d983910e711b3a504,610365571e1a3fc0e82015cc,2021-07-29_21h38.34.022,Simcolourproject_2stim_asymm_v5,2020.2.10,Win32,60,61025ae37ef11b136ea224fe,,,,,,,,,2093,-31,65,1,0,0,response7disk,,0,-5,8,1,0,0,rectangle,-5,8,1,0,0,-5,8,1,0,0,1,105,265,141,1,,,,,,,,
,,,,,,,,,,,,,FF,,,,,,,,1.38004,,,,,,,,,,,,,,,,,,,,,,6100434d983910e711b3a504,610365571e1a3fc0e82015cc,2021-07-29_21h38.34.022,Simcolourproject_2stim_asymm_v5,2020.2.10,Win32,60,61025ae37ef11b136ea224fe,,,,,,,,,2103,-61,-84,1,0,0,response5disk,,3,1,-3,1,0,0,rectangle,1,-3,1,0,0,1,-3,1,0,0,1,106,266,62,1,,,,,,,,
,,,,,,,,,,,,,FF,,,,,,,,0.831785,,,,,,,,,,,,,,,,,,,,,,6100434d983910e711b3a504,610365571e1a3fc0e82015cc,2021-07-29_21h38.34.022,Simcolourproject_2stim_asymm_v5,2020.2.10,Win32,60,61025ae37ef11b136ea224fe,,,,,,,,,4344,-42,67,1,0,0,response7disk,,0,-8,3,1,0,0,rectangle,-8,3,1,0,0,-8,3,1,0,0,1,107,267,112,1,,,,,,,,
,,,,,,,,,,,,,FF,,,,,,,,0.88129,,,,,,,,,,,,,,,,,,,,,,6100434d983910e711b3a504,610365571e1a3fc0e82015cc,2021-07-29_21h38.34.022,Simcolourproject_2stim_asymm_v5,2020.2.10,Win32,60,61025ae37ef11b136ea224fe,,,,,,,,,3046,-81,-26,1,0,0,response5disk,,2,-13,4,1,0,0,rectangle,-13,4,1,0,0,-13,4,1,0,0,1,108,268,106,1,,,,,,,,
,,,,,,,,,,,,,FF,,,,,,,,0.765185,,,,,,,,,,,,,,,,,,,,,,6100434d983910e711b3a504,610365571e1a3fc0e82015cc,2021-07-29_21h38.34.022,Simcolourproject_2stim_asymm_v5,2020.2.10,Win32,60,61025ae37ef11b136ea224fe,,,,,,,,,2285,41,74,1,0,0,response1disk,,7,7,9,1,0,0,rectangle,7,9,1,0,0,7,9,1,0,0,1,109,269,18,1,,,,,,,,
,,,,,,,,,,,,,FF,,,,,,,,0.881375,,,,,,,,,,,,,,,,,,,,,,6100434d983910e711b3a504,610365571e1a3fc0e82015cc,2021-07-29_21h38.34.022,Simcolourproject_2stim_asymm_v5,2020.2.10,Win32,60,61025ae37ef11b136ea224fe,,,,,,,,,1340,26,56,1,0,0,response1disk,,7,-3,9,1,0,0,rectangle,-3,9,1,0,0,-3,9,1,0,0,1,110,270,80,1,,,,,,,,
,,,,,,,,,,,,,FF,,,,,,,,0.76494,,,,,,,,,,,,,,,,,,,,,,6100434d983910e711b3a504,610365571e1a3fc0e82015cc,2021-07-29_21h38.34.022,Simcolourproject_2stim_asymm_v5,2020.2.10,Win32,60,61025ae37ef11b136ea224fe,,,,,,,,,1050,-31,55,1,0,0,response7disk,,0,-15,10,1,0,0,rectangle,-15,10,1,0,0,-15,10,1,0,0,1,111,271,28,1,,,,,,,,
,,,,,,,,,,,,,FF,,,,,,,,1.36397,,,,,,,,,,,,,,,,,,,,,,6100434d983910e711b3a504,610365571e1a3fc0e82015cc,2021-07-29_21h38.34.022,Simcolourproject_2stim_asymm_v5,2020.2.10,Win32,60,61025ae37ef11b136ea224fe,,,,,,,,,741,87,34,1,0,0,response1disk,,6,10,3,1,0,0,rectangle,10,3,1,0,0,10,3,1,0,0,1,112,272,81,1,,,,,,,,
,,,,,,,,,,,,,FF,,,,,,,,2.344085,,,,,,,,,,,,,,,,,,,,,,6100434d983910e711b3a504,610365571e1a3fc0e82015cc,2021-07-29_21h38.34.022,Simcolourproject_2stim_asymm_v5,2020.2.10,Win32,60,61025ae37ef11b136ea224fe,,,,,,,,,245,98,-38,1,0,0,response3disk,,5,-1,6,1,0,0,rectangle,-1,6,1,0,0,-1,6,1,0,0,1,113,273,70,1,,,,,,,,
,,,,,,,,,,,,,FF,,,,,,,,3.241765,,,,,,,,,,,,,,,,,,,,,,6100434d983910e711b3a504,610365571e1a3fc0e82015cc,2021-07-29_21h38.34.022,Simcolourproject_2stim_asymm_v5,2020.2.10,Win32,60,61025ae37ef11b136ea224fe,,,,,,,,,1594,82,39,1,0,0,response1disk,,6,14,10,1,0,0,rectangle,14,10,1,0,0,14,10,1,0,0,1,114,274,147,1,,,,,,,,
,,,,,,,,,,,,,FF,,,,,,,,1.014944999,,,,,,,,,,,,,,,,,,,,,,6100434d983910e711b3a504,610365571e1a3fc0e82015cc,2021-07-29_21h38.34.022,Simcolourproject_2stim_asymm_v5,2020.2.10,Win32,60,61025ae37ef11b136ea224fe,,,,,,,,,4137,28,78,1,0,0,response1disk,,7,-11,4,1,0,0,rectangle,-11,4,1,0,0,-11,4,1,0,0,1,115,275,51,1,,,,,,,,
,,,,,,,,,,,,,FF,,,,,,,,1.447240001,,,,,,,,,,,,,,,,,,,,,,6100434d983910e711b3a504,610365571e1a3fc0e82015cc,2021-07-29_21h38.34.022,Simcolourproject_2stim_asymm_v5,2020.2.10,Win32,60,61025ae37ef11b136ea224fe,,,,,,,,,2942,66,-31,1,0,0,response3disk,,5,-10,7,1,0,0,rectangle,-10,7,1,0,0,-10,7,1,0,0,1,116,276,117,1,,,,,,,,
,,,,,,,,,,,,,FF,,,,,,,,1.08079,,,,,,,,,,,,,,,,,,,,,,6100434d983910e711b3a504,610365571e1a3fc0e82015cc,2021-07-29_21h38.34.022,Simcolourproject_2stim_asymm_v5,2020.2.10,Win32,60,61025ae37ef11b136ea224fe,,,,,,,,,1558,65,-53,1,0,0,response3disk,,5,-3,-2,1,0,0,rectangle,-3,-2,1,0,0,-3,-2,1,0,0,1,117,277,94,1,,,,,,,,
,,,,,,,,,,,,,FF,,,,,,,,0.981205001,,,,,,,,,,,,,,,,,,,,,,6100434d983910e711b3a504,610365571e1a3fc0e82015cc,2021-07-29_21h38.34.022,Simcolourproject_2stim_asymm_v5,2020.2.10,Win32,60,61025ae37ef11b136ea224fe,,,,,,,,,3658,70,-24,1,0,0,response3disk,,5,26,-3,1,0,0,rectangle,26,-3,1,0,0,26,-3,1,0,0,1,118,278,111,1,,,,,,,,
,,,,,,,,,,,,,FF,,,,,,,,1.048135,,,,,,,,,,,,,,,,,,,,,,6100434d983910e711b3a504,610365571e1a3fc0e82015cc,2021-07-29_21h38.34.022,Simcolourproject_2stim_asymm_v5,2020.2.10,Win32,60,61025ae37ef11b136ea224fe,,,,,,,,,3401,82,-34,1,0,0,response3disk,,5,-12,2,1,0,0,rectangle,-12,2,1,0,0,-12,2,1,0,0,1,119,279,121,1,,,,,,,,
,,,,,,,,,,,,,FF,,,,,,,,1.197295,,,,,,,,,,,,,,,,,,,,,,6100434d983910e711b3a504,610365571e1a3fc0e82015cc,2021-07-29_21h38.34.022,Simcolourproject_2stim_asymm_v5,2020.2.10,Win32,60,61025ae37ef11b136ea224fe,,,,,,,,,4271,43,86,1,0,0,response1disk,,7,4,12,1,0,0,rectangle,4,12,1,0,0,4,12,1,0,0,1,120,280,6,1,,,,,,,,
,,,,,,,,,,,,,FF,,,,,,,,0.697615,,,,,,,,,,,,,,,,,,,,,,6100434d983910e711b3a504,610365571e1a3fc0e82015cc,2021-07-29_21h38.34.022,Simcolourproject_2stim_asymm_v5,2020.2.10,Win32,60,61025ae37ef11b136ea224fe,,,,,,,,,1026,44,69,1,0,0,response1disk,,7,3,12,1,0,0,rectangle,3,12,1,0,0,3,12,1,0,0,1,121,281,55,1,,,,,,,,
,,,,,,,,,,,,,FF,,,,,,,,0.81496,,,,,,,,,,,,,,,,,,,,,,6100434d983910e711b3a504,610365571e1a3fc0e82015cc,2021-07-29_21h38.34.022,Simcolourproject_2stim_asymm_v5,2020.2.10,Win32,60,61025ae37ef11b136ea224fe,,,,,,,,,3312,44,89,1,0,0,response1disk,,7,1,9,1,0,0,rectangle,1,9,1,0,0,1,9,1,0,0,1,122,282,65,1,,,,,,,,
,,,,,,,,,,,,,FF,,,,,,,,0.765105,,,,,,,,,,,,,,,,,,,,,,6100434d983910e711b3a504,610365571e1a3fc0e82015cc,2021-07-29_21h38.34.022,Simcolourproject_2stim_asymm_v5,2020.2.10,Win32,60,61025ae37ef11b136ea224fe,,,,,,,,,1705,31,63,1,0,0,response1disk,,7,11,4,1,0,0,rectangle,11,4,1,0,0,11,4,1,0,0,1,123,283,76,1,,,,,,,,
,,,,,,,,,,,,,FF,,,,,,,,0.615835,,,,,,,,,,,,,,,,,,,,,,6100434d983910e711b3a504,610365571e1a3fc0e82015cc,2021-07-29_21h38.34.022,Simcolourproject_2stim_asymm_v5,2020.2.10,Win32,60,61025ae37ef11b136ea224fe,,,,,,,,,3159,38,60,1,0,0,response1disk,,7,9,5,1,0,0,rectangle,9,5,1,0,0,9,5,1,0,0,1,124,284,77,1,,,,,,,,
,,,,,,,,,,,,,FF,,,,,,,,1.03107,,,,,,,,,,,,,,,,,,,,,,6100434d983910e711b3a504,610365571e1a3fc0e82015cc,2021-07-29_21h38.34.022,Simcolourproject_2stim_asymm_v5,2020.2.10,Win32,60,61025ae37ef11b136ea224fe,,,,,,,,,2354,36,72,1,0,0,response1disk,,7,4,6,1,0,0,rectangle,4,6,1,0,0,4,6,1,0,0,1,125,285,105,1,,,,,,,,
,,,,,,,,,,,,,FF,,,,,,,,0.848045,,,,,,,,,,,,,,,,,,,,,,6100434d983910e711b3a504,610365571e1a3fc0e82015cc,2021-07-29_21h38.34.022,Simcolourproject_2stim_asymm_v5,2020.2.10,Win32,60,61025ae37ef11b136ea224fe,,,,,,,,,965,25,65,1,0,0,response1disk,,7,0,2,1,0,0,rectangle,0,2,1,0,0,0,2,1,0,0,1,126,286,32,1,,,,,,,,
,,,,,,,,,,,,,FF,,,,,,,,1.197240001,,,,,,,,,,,,,,,,,,,,,,6100434d983910e711b3a504,610365571e1a3fc0e82015cc,2021-07-29_21h38.34.022,Simcolourproject_2stim_asymm_v5,2020.2.10,Win32,60,61025ae37ef11b136ea224fe,,,,,,,,,4118,-104,43,1,0,0,response7disk,,1,-21,11,1,0,0,rectangle,-21,11,1,0,0,-21,11,1,0,0,1,127,287,86,1,,,,,,,,
,,,,,,,,,,,,,FF,,,,,,,,0.615604999,,,,,,,,,,,,,,,,,,,,,,6100434d983910e711b3a504,610365571e1a3fc0e82015cc,2021-07-29_21h38.34.022,Simcolourproject_2stim_asymm_v5,2020.2.10,Win32,60,61025ae37ef11b136ea224fe,,,,,,,,,597,54,88,1,0,0,response1disk,,7,12,0,1,0,0,rectangle,12,0,1,0,0,12,0,1,0,0,1,128,288,8,1,,,,,,,,
,,,,,,,,,,,,,FF,,,,,,,,1.080610001,,,,,,,,,,,,,,,,,,,,,,6100434d983910e711b3a504,610365571e1a3fc0e82015cc,2021-07-29_21h38.34.022,Simcolourproject_2stim_asymm_v5,2020.2.10,Win32,60,61025ae37ef11b136ea224fe,,,,,,,,,957,-46,-94,1,0,0,response5disk,,3,-5,-1,1,0,0,rectangle,-5,-1,1,0,0,-5,-1,1,0,0,1,129,289,22,1,,,,,,,,
,,,,,,,,,,,,,FF,,,,,,,,1.928444999,,,,,,,,,,,,,,,,,,,,,,6100434d983910e711b3a504,610365571e1a3fc0e82015cc,2021-07-29_21h38.34.022,Simcolourproject_2stim_asymm_v5,2020.2.10,Win32,60,61025ae37ef11b136ea224fe,,,,,,,,,2842,95,-44,1,0,0,response3disk,,5,21,5,1,0,0,rectangle,21,5,1,0,0,21,5,1,0,0,1,130,290,148,1,,,,,,,,
,,,,,,,,,,,,,FF,,,,,,,,1.645875,,,,,,,,,,,,,,,,,,,,,,6100434d983910e711b3a504,610365571e1a3fc0e82015cc,2021-07-29_21h38.34.022,Simcolourproject_2stim_asymm_v5,2020.2.10,Win32,60,61025ae37ef11b136ea224fe,,,,,,,,,299,75,-46,1,0,0,response3disk,,5,29,1,1,0,0,rectangle,29,1,1,0,0,29,1,1,0,0,1,131,291,67,1,,,,,,,,
,,,,,,,,,,,,,FF,,,,,,,,2.211095001,,,,,,,,,,,,,,,,,,,,,,6100434d983910e711b3a504,610365571e1a3fc0e82015cc,2021-07-29_21h38.34.022,Simcolourproject_2stim_asymm_v5,2020.2.10,Win32,60,61025ae37ef11b136ea224fe,,,,,,,,,3163,43,-71,1,0,0,response3disk,,4,-3,-1,1,0,0,rectangle,-3,-1,1,0,0,-3,-1,1,0,0,1,132,292,119,1,,,,,,,,
,,,,,,,,,,,,,FF,,,,,,,,1.214585,,,,,,,,,,,,,,,,,,,,,,6100434d983910e711b3a504,610365571e1a3fc0e82015cc,2021-07-29_21h38.34.022,Simcolourproject_2stim_asymm_v5,2020.2.10,Win32,60,61025ae37ef11b136ea224fe,,,,,,,,,555,-53,-75,1,0,0,response5disk,,3,-3,11,1,0,0,rectangle,-3,11,1,0,0,-3,11,1,0,0,1,133,293,29,1,,,,,,,,
,,,,,,,,,,,,,FF,,,,,,,,0.84823,,,,,,,,,,,,,,,,,,,,,,6100434d983910e711b3a504,610365571e1a3fc0e82015cc,2021-07-29_21h38.34.022,Simcolourproject_2stim_asymm_v5,2020.2.10,Win32,60,61025ae37ef11b136ea224fe,,,,,,,,,926,48,95,1,0,0,response1disk,,7,6,9,1,0,0,rectangle,6,9,1,0,0,6,9,1,0,0,1,134,294,46,1,,,,,,,,
,,,,,,,,,,,,,FF,,,,,,,,0.947785,,,,,,,,,,,,,,,,,,,,,,6100434d983910e711b3a504,610365571e1a3fc0e82015cc,2021-07-29_21h38.34.022,Simcolourproject_2stim_asymm_v5,2020.2.10,Win32,60,61025ae37ef11b136ea224fe,,,,,,,,,1616,82,31,1,0,0,response1disk,,6,-4,8,1,0,0,rectangle,-4,8,1,0,0,-4,8,1,0,0,1,135,295,104,1,,,,,,,,
,,,,,,,,,,,,,FF,,,,,,,,0.74803,,,,,,,,,,,,,,,,,,,,,,6100434d983910e711b3a504,610365571e1a3fc0e82015cc,2021-07-29_21h38.34.022,Simcolourproject_2stim_asymm_v5,2020.2.10,Win32,60,61025ae37ef11b136ea224fe,,,,,,,,,472,31,85,1,0,0,response1disk,,7,-8,5,1,0,0,rectangle,-8,5,1,0,0,-8,5,1,0,0,1,136,296,41,1,,,,,,,,
,,,,,,,,,,,,,FF,,,,,,,,0.79795,,,,,,,,,,,,,,,,,,,,,,6100434d983910e711b3a504,610365571e1a3fc0e82015cc,2021-07-29_21h38.34.022,Simcolourproject_2stim_asymm_v5,2020.2.10,Win32,60,61025ae37ef11b136ea224fe,,,,,,,,,2462,35,77,1,0,0,response1disk,,7,7,8,1,0,0,rectangle,7,8,1,0,0,7,8,1,0,0,1,137,297,122,1,,,,,,,,
,,,,,,,,,,,,,FF,,,,,,,,1.163635001,,,,,,,,,,,,,,,,,,,,,,6100434d983910e711b3a504,610365571e1a3fc0e82015cc,2021-07-29_21h38.34.022,Simcolourproject_2stim_asymm_v5,2020.2.10,Win32,60,61025ae37ef11b136ea224fe,,,,,,,,,3507,-72,-37,1,0,0,response5disk,,2,-24,-1,1,0,0,rectangle,-24,-1,1,0,0,-24,-1,1,0,0,1,138,298,10,1,,,,,,,,
,,,,,,,,,,,,,FF,,,,,,,,1.796325,,,,,,,,,,,,,,,,,,,,,,6100434d983910e711b3a504,610365571e1a3fc0e82015cc,2021-07-29_21h38.34.022,Simcolourproject_2stim_asymm_v5,2020.2.10,Win32,60,61025ae37ef11b136ea224fe,,,,,,,,,424,97,-41,1,0,0,response3disk,,5,9,6,1,0,0,rectangle,9,6,1,0,0,9,6,1,0,0,1,139,299,5,1,,,,,,,,
,,,,,,,,,,,,,FF,,,,,,,,0.798409999,,,,,,,,,,,,,,,,,,,,,,6100434d983910e711b3a504,610365571e1a3fc0e82015cc,2021-07-29_21h38.34.022,Simcolourproject_2stim_asymm_v5,2020.2.10,Win32,60,61025ae37ef11b136ea224fe,,,,,,,,,1167,27,56,1,0,0,response1disk,,7,4,9,1,0,0,rectangle,4,9,1,0,0,4,9,1,0,0,1,140,300,158,1,,,,,,,,
,,,,,,,,,,,,,FF,,,,,,,,1.297275,,,,,,,,,,,,,,,,,,,,,,6100434d983910e711b3a504,610365571e1a3fc0e82015cc,2021-07-29_21h38.34.022,Simcolourproject_2stim_asymm_v5,2020.2.10,Win32,60,61025ae37ef11b136ea224fe,,,,,,,,,4348,-58,42,1,0,0,response7disk,,1,-16,2,1,0,0,rectangle,-16,2,1,0,0,-16,2,1,0,0,1,141,301,44,1,,,,,,,,
,,,,,,,,,,,,,FF,,,,,,,,0.848735,,,,,,,,,,,,,,,,,,,,,,6100434d983910e711b3a504,610365571e1a3fc0e82015cc,2021-07-29_21h38.34.022,Simcolourproject_2stim_asymm_v5,2020.2.10,Win32,60,61025ae37ef11b136ea224fe,,,,,,,,,3176,23,71,1,0,0,response1disk,,7,1,0,1,0,0,rectangle,1,0,1,0,0,1,0,1,0,0,1,142,302,68,1,,,,,,,,
