key_resp.keys,key_resp.rt,key_resp_14.keys,key_resp_14.rt,key_resp_15.keys,key_resp_15.rt,key_resp_17.keys,key_resp_17.rt,key_resp_9.keys,key_resp_9.rt,key_resp_10.keys,key_resp_10.rt,practice_comparison,Ecc,mouse_5.x,mouse_5.y,mouse_5.leftButton,mouse_5.midButton,mouse_5.rightButton,mouse_5.clicked_name,pracsimilarity,response_time,mouse_10.x,mouse_10.y,mouse_10.leftButton,mouse_10.midButton,mouse_10.rightButton,mouse_10.clicked_name,mouse_7.x,mouse_7.y,mouse_7.leftButton,mouse_7.midButton,mouse_7.rightButton,mouse_6.x,mouse_6.y,mouse_6.leftButton,mouse_6.midButton,mouse_6.rightButton,duringprac.thisRepN,duringprac.thisTrialN,duringprac.thisN,duringprac.thisIndex,duringprac.ran,participant,session,date,expName,psychopyVersion,OS,frameRate,study_id,mouse_7.clicked_name,catchpracsimilarity,catch_response_time,catchnumberprac,catchtrialorderprac,mouse_6.clicked_name,key_resp_22.keys,key_resp_22.rt,realcomparison,mouse.x,mouse.y,mouse.leftButton,mouse.midButton,mouse.rightButton,mouse.clicked_name,Colour2,similarity,mouse_2.x,mouse_2.y,mouse_2.leftButton,mouse_2.midButton,mouse_2.rightButton,mouse_2.clicked_name,mouse_3.x,mouse_3.y,mouse_3.leftButton,mouse_3.midButton,mouse_3.rightButton,mouse_11.x,mouse_11.y,mouse_11.leftButton,mouse_11.midButton,mouse_11.rightButton,trials_2.thisRepN,trials_2.thisTrialN,trials_2.thisN,trials_2.thisIndex,trials_2.ran,Colour1,mouse_3.clicked_name,catchornah,catchsimilarity,catchnumber,catchtrialorder,catchRT,mouse_11.clicked_name
space,1.6533,space,19.2504,space,21.3862,space,2.9937,space,1.4185,space,2.8527,46,PF,46.31652832,109.6744385,1,0,0,response1disk_5,7,12.0729,20.7868042,4.72744751,1,0,0,rectangle_8,20.7868042,4.72744751,1,0,0,20.7868042,4.72744751,1,0,0,0,0,0,6,1,610071da1faac9f7561d984f,610368e95259933529c75296,2021-07-29_21h51.14.929,Simcolourproject_2stim_asymm_v5,2020.2.10,MacIntel,60,61025ae37ef11b136ea224fe,,,,,,,,,,,,,,,,,,,,,,,,,,,,,,,,,,,,,,,,,,,,,,
,,,,,,,,,,,,22,PF,39.09844971,-78.78790283,1,0,0,response3disk_5,4,8.9017,-4.25378418,-0.670532227,1,0,0,rectangle_8,64.79278564,-40.49285889,1,0,0,-14.09680176,-9.52746582,1,0,0,0,1,1,4,1,610071da1faac9f7561d984f,610368e95259933529c75296,2021-07-29_21h51.14.929,Simcolourproject_2stim_asymm_v5,2020.2.10,MacIntel,60,61025ae37ef11b136ea224fe,response3disk_7,5,4.2019,5,"[2,5]",rectangle_4,,,,,,,,,,,,,,,,,,,,,,,,,,,,,,,,,,,,,,,,
,,,,,,,,,,,,41,PF,41.32519531,87.60385132,1,0,0,response1disk_5,7,2.8505,3.963317871,-7.728149414,1,0,0,rectangle_8,3.963317871,-7.728149414,1,0,0,3.963317871,-7.728149414,1,0,0,0,2,2,2,1,610071da1faac9f7561d984f,610368e95259933529c75296,2021-07-29_21h51.14.929,Simcolourproject_2stim_asymm_v5,2020.2.10,MacIntel,60,61025ae37ef11b136ea224fe,,,,,,,,,,,,,,,,,,,,,,,,,,,,,,,,,,,,,,,,,,,,,,
,,,,,,,,,,,,148,FF,-25.59069824,-59.75817871,1,0,0,response5disk_5,3,1.4495,13.9083252,6.508514404,1,0,0,rectangle_8,13.9083252,6.508514404,1,0,0,13.9083252,6.508514404,1,0,0,0,3,3,3,1,610071da1faac9f7561d984f,610368e95259933529c75296,2021-07-29_21h51.14.929,Simcolourproject_2stim_asymm_v5,2020.2.10,MacIntel,60,61025ae37ef11b136ea224fe,,,,,,,,,,,,,,,,,,,,,,,,,,,,,,,,,,,,,,,,,,,,,,
,,,,,,,,,,,,0,FF,44.33752441,-91.51751709,1,0,0,response3disk_5,4,1.1507,-4.424987793,-3.463562012,1,0,0,rectangle_8,68.12322998,-40.84146118,1,0,0,-5.894714355,-12.2166748,1,0,0,0,4,4,5,1,610071da1faac9f7561d984f,610368e95259933529c75296,2021-07-29_21h51.14.929,Simcolourproject_2stim_asymm_v5,2020.2.10,MacIntel,60,61025ae37ef11b136ea224fe,response3disk_7,5,1.7003,5,"[2,5]",rectangle_4,,,,,,,,,,,,,,,,,,,,,,,,,,,,,,,,,,,,,,,,
,,,,,,,,,,,,13,FF,-35.81243896,-70.70849609,1,0,0,response5disk_5,3,1.9999,5.81060791,3.992553711,1,0,0,rectangle_8,5.81060791,3.992553711,1,0,0,5.81060791,3.992553711,1,0,0,0,5,5,0,1,610071da1faac9f7561d984f,610368e95259933529c75296,2021-07-29_21h51.14.929,Simcolourproject_2stim_asymm_v5,2020.2.10,MacIntel,60,61025ae37ef11b136ea224fe,,,,,,,,,,,,,,,,,,,,,,,,,,,,,,,,,,,,,,,,,,,,,,
,,,,,,,,,,,,62,PF,-66.80212402,-27.24951172,1,0,0,response5disk_5,2,1.5173,8.508056641,-7.848266602,1,0,0,rectangle_8,8.508056641,-7.848266602,1,0,0,8.508056641,-7.848266602,1,0,0,0,6,6,1,1,610071da1faac9f7561d984f,610368e95259933529c75296,2021-07-29_21h51.14.929,Simcolourproject_2stim_asymm_v5,2020.2.10,MacIntel,60,61025ae37ef11b136ea224fe,,,,,,,,,,,,,,,,,,,,,,,,,,,,,,,,,,,,,,,,,,,,,,
,,,,,,,,,,,,,FF,,,,,,,,3.1508,,,,,,,,,,,,,,,,,,,,,,610071da1faac9f7561d984f,610368e95259933529c75296,2021-07-29_21h51.14.929,Simcolourproject_2stim_asymm_v5,2020.2.10,MacIntel,60,61025ae37ef11b136ea224fe,,,,,,,space,2.5302,323,103.5889282,-35.3861084,1,0,0,response3disk,,5,7.88104248,-4.49798584,1,0,0,rectangle,7.88104248,-4.49798584,1,0,0,7.88104248,-4.49798584,1,0,0,0,0,0,53,1,,,,,,,,
,,,,,,,,,,,,,FF,,,,,,,,1.4834,,,,,,,,,,,,,,,,,,,,,,610071da1faac9f7561d984f,610368e95259933529c75296,2021-07-29_21h51.14.929,Simcolourproject_2stim_asymm_v5,2020.2.10,MacIntel,60,61025ae37ef11b136ea224fe,,,,,,,,,194,-54.2076416,-69.61181641,1,0,0,response5disk,,3,24.01757813,-1.317565918,1,0,0,rectangle,24.01757813,-1.317565918,1,0,0,24.01757813,-1.317565918,1,0,0,0,1,1,131,1,,,,,,,,
,,,,,,,,,,,,,FF,,,,,,,,1.0168,,,,,,,,,,,,,,,,,,,,,,610071da1faac9f7561d984f,610368e95259933529c75296,2021-07-29_21h51.14.929,Simcolourproject_2stim_asymm_v5,2020.2.10,MacIntel,60,61025ae37ef11b136ea224fe,,,,,,,,,1239,-60.81341553,-25.79144287,1,0,0,response5disk,,2,-18.80505371,-4.150878906,1,0,0,rectangle,-18.80505371,-4.150878906,1,0,0,-18.80505371,-4.150878906,1,0,0,0,2,2,5,1,,,,,,,,
,,,,,,,,,,,,,FF,,,,,,,,0.983,,,,,,,,,,,,,,,,,,,,,,610071da1faac9f7561d984f,610368e95259933529c75296,2021-07-29_21h51.14.929,Simcolourproject_2stim_asymm_v5,2020.2.10,MacIntel,60,61025ae37ef11b136ea224fe,,,,,,,,,122,40.13049316,-65.95690918,1,0,0,response3disk,,4,-2.58581543,-4.755157471,1,0,0,rectangle,29.75695801,84.61114502,1,0,0,2.925231934,-10.5994873,1,0,0,0,3,3,19,1,,response1disk_3,TRUE,7,7,"[197,120,17,245,281,291,4,286,290,72,5,212,70,33,256,180,269,188,57,293]",1.8181,rectangle
,,,,,,,,,,,,,FF,,,,,,,,1.0497,,,,,,,,,,,,,,,,,,,,,,610071da1faac9f7561d984f,610368e95259933529c75296,2021-07-29_21h51.14.929,Simcolourproject_2stim_asymm_v5,2020.2.10,MacIntel,60,61025ae37ef11b136ea224fe,,,,,,,,,155,-31.08813477,-43.62631226,1,0,0,response5disk,,3,9.565734863,1.054626465,1,0,0,rectangle,-35.82794189,-96.22424316,1,0,0,7.197692871,5.259399414,1,0,0,0,4,4,95,1,,response5disk_3,TRUE,3,3,"[197,120,17,245,281,291,4,286,290,72,5,212,70,33,256,180,269,188,57,293]",2.0169,rectangle
,,,,,,,,,,,,,FF,,,,,,,,2.3664,,,,,,,,,,,,,,,,,,,,,,610071da1faac9f7561d984f,610368e95259933529c75296,2021-07-29_21h51.14.929,Simcolourproject_2stim_asymm_v5,2020.2.10,MacIntel,60,61025ae37ef11b136ea224fe,,,,,,,,,3990,-52.7142334,-80.59191895,1,0,0,response5disk,,3,6.584899902,6.149291992,1,0,0,rectangle,6.584899902,6.149291992,1,0,0,6.584899902,6.149291992,1,0,0,0,5,5,49,1,,,,,,,,
,,,,,,,,,,,,,FF,,,,,,,,1.9503,,,,,,,,,,,,,,,,,,,,,,610071da1faac9f7561d984f,610368e95259933529c75296,2021-07-29_21h51.14.929,Simcolourproject_2stim_asymm_v5,2020.2.10,MacIntel,60,61025ae37ef11b136ea224fe,,,,,,,,,2455,-40.9630127,-78.58911133,1,0,0,response5disk,,3,12.1060791,-0.683227539,1,0,0,rectangle,12.1060791,-0.683227539,1,0,0,12.1060791,-0.683227539,1,0,0,0,6,6,25,1,,,,,,,,
,,,,,,,,,,,,,FF,,,,,,,,1.2339,,,,,,,,,,,,,,,,,,,,,,610071da1faac9f7561d984f,610368e95259933529c75296,2021-07-29_21h51.14.929,Simcolourproject_2stim_asymm_v5,2020.2.10,MacIntel,60,61025ae37ef11b136ea224fe,,,,,,,,,576,-57.51208496,-69.10058594,1,0,0,response5disk,,3,2.977416992,2.672851563,1,0,0,rectangle,2.977416992,2.672851563,1,0,0,2.977416992,2.672851563,1,0,0,0,7,7,38,1,,,,,,,,
,,,,,,,,,,,,,FF,,,,,,,,2.8512,,,,,,,,,,,,,,,,,,,,,,610071da1faac9f7561d984f,610368e95259933529c75296,2021-07-29_21h51.14.929,Simcolourproject_2stim_asymm_v5,2020.2.10,MacIntel,60,61025ae37ef11b136ea224fe,,,,,,,,,3929,56.67163086,-99.13739014,1,0,0,response3disk,,4,-12.86749268,2.140808105,1,0,0,rectangle,-12.86749268,2.140808105,1,0,0,-12.86749268,2.140808105,1,0,0,0,8,8,6,1,,,,,,,,
,,,,,,,,,,,,,FF,,,,,,,,0.8003,,,,,,,,,,,,,,,,,,,,,,610071da1faac9f7561d984f,610368e95259933529c75296,2021-07-29_21h51.14.929,Simcolourproject_2stim_asymm_v5,2020.2.10,MacIntel,60,61025ae37ef11b136ea224fe,,,,,,,,,4057,-74.00238037,-28.71038818,1,0,0,response5disk,,2,1.91204834,-10.80917358,1,0,0,rectangle,1.91204834,-10.80917358,1,0,0,1.91204834,-10.80917358,1,0,0,0,9,9,150,1,,,,,,,,
,,,,,,,,,,,,,FF,,,,,,,,1.0821,,,,,,,,,,,,,,,,,,,,,,610071da1faac9f7561d984f,610368e95259933529c75296,2021-07-29_21h51.14.929,Simcolourproject_2stim_asymm_v5,2020.2.10,MacIntel,60,61025ae37ef11b136ea224fe,,,,,,,,,3174,38.34448242,-87.02276611,1,0,0,response3disk,,4,-6.405395508,-10.02105713,1,0,0,rectangle,-6.405395508,-10.02105713,1,0,0,-6.405395508,-10.02105713,1,0,0,0,10,10,55,1,,,,,,,,
,,,,,,,,,,,,,FF,,,,,,,,3.3504,,,,,,,,,,,,,,,,,,,,,,610071da1faac9f7561d984f,610368e95259933529c75296,2021-07-29_21h51.14.929,Simcolourproject_2stim_asymm_v5,2020.2.10,MacIntel,60,61025ae37ef11b136ea224fe,,,,,,,,,327,54.48266602,-41.46435547,1,0,0,response3disk,,5,-3.895935059,-12.72521973,1,0,0,rectangle,-3.895935059,-12.72521973,1,0,0,-3.895935059,-12.72521973,1,0,0,0,11,11,75,1,,,,,,,,
,,,,,,,,,,,,,FF,,,,,,,,1.0837,,,,,,,,,,,,,,,,,,,,,,610071da1faac9f7561d984f,610368e95259933529c75296,2021-07-29_21h51.14.929,Simcolourproject_2stim_asymm_v5,2020.2.10,MacIntel,60,61025ae37ef11b136ea224fe,,,,,,,,,363,72.15856934,-36.89935303,1,0,0,response3disk,,5,4.811462402,1.517333984,1,0,0,rectangle,4.811462402,1.517333984,1,0,0,4.811462402,1.517333984,1,0,0,0,12,12,101,1,,,,,,,,
,,,,,,,,,,,,,FF,,,,,,,,2.8503,,,,,,,,,,,,,,,,,,,,,,610071da1faac9f7561d984f,610368e95259933529c75296,2021-07-29_21h51.14.929,Simcolourproject_2stim_asymm_v5,2020.2.10,MacIntel,60,61025ae37ef11b136ea224fe,,,,,,,,,1937,41.59143066,-67.43206787,1,0,0,response3disk,,4,18.03448486,-11.20773315,1,0,0,rectangle,18.03448486,-11.20773315,1,0,0,18.03448486,-11.20773315,1,0,0,0,13,13,98,1,,,,,,,,
,,,,,,,,,,,,,FF,,,,,,,,1.4498,,,,,,,,,,,,,,,,,,,,,,610071da1faac9f7561d984f,610368e95259933529c75296,2021-07-29_21h51.14.929,Simcolourproject_2stim_asymm_v5,2020.2.10,MacIntel,60,61025ae37ef11b136ea224fe,,,,,,,,,4367,-62.92626953,22.36181641,1,0,0,response7disk,,1,12.38220215,7.817443848,1,0,0,rectangle,12.38220215,7.817443848,1,0,0,12.38220215,7.817443848,1,0,0,0,14,14,120,1,,,,,,,,
,,,,,,,,,,,,,FF,,,,,,,,1.5165,,,,,,,,,,,,,,,,,,,,,,610071da1faac9f7561d984f,610368e95259933529c75296,2021-07-29_21h51.14.929,Simcolourproject_2stim_asymm_v5,2020.2.10,MacIntel,60,61025ae37ef11b136ea224fe,,,,,,,,,1165,60.54241943,-46.99417114,1,0,0,response3disk,,5,4.075195313,-4.758850098,1,0,0,rectangle,4.075195313,-4.758850098,1,0,0,4.075195313,-4.758850098,1,0,0,0,15,15,43,1,,,,,,,,
,,,,,,,,,,,,,FF,,,,,,,,1.2169,,,,,,,,,,,,,,,,,,,,,,610071da1faac9f7561d984f,610368e95259933529c75296,2021-07-29_21h51.14.929,Simcolourproject_2stim_asymm_v5,2020.2.10,MacIntel,60,61025ae37ef11b136ea224fe,,,,,,,,,4004,56.28344727,-88.23205566,1,0,0,response3disk,,4,-6.351501465,12.59503174,1,0,0,rectangle,96.9798584,-39.62689209,1,0,0,11.12188721,-1.636413574,1,0,0,0,16,16,51,1,,response3disk_3,TRUE,5,5,"[197,120,17,245,281,291,4,286,290,72,5,212,70,33,256,180,269,188,57,293]",1.4323,rectangle
,,,,,,,,,,,,,FF,,,,,,,,2.6502,,,,,,,,,,,,,,,,,,,,,,610071da1faac9f7561d984f,610368e95259933529c75296,2021-07-29_21h51.14.929,Simcolourproject_2stim_asymm_v5,2020.2.10,MacIntel,60,61025ae37ef11b136ea224fe,,,,,,,,,34,71.97247314,38.33074951,1,0,0,response1disk,,6,12.07202148,-7.868255615,1,0,0,rectangle,12.07202148,-7.868255615,1,0,0,12.07202148,-7.868255615,1,0,0,0,17,17,14,1,,,,,,,,
,,,,,,,,,,,,,FF,,,,,,,,0.8829,,,,,,,,,,,,,,,,,,,,,,610071da1faac9f7561d984f,610368e95259933529c75296,2021-07-29_21h51.14.929,Simcolourproject_2stim_asymm_v5,2020.2.10,MacIntel,60,61025ae37ef11b136ea224fe,,,,,,,,,192,-49.29119873,-68.77880859,1,0,0,response5disk,,3,-7.859558105,-7.984283447,1,0,0,rectangle,-7.859558105,-7.984283447,1,0,0,-7.859558105,-7.984283447,1,0,0,0,18,18,33,1,,,,,,,,
,,,,,,,,,,,,,FF,,,,,,,,1.4003,,,,,,,,,,,,,,,,,,,,,,610071da1faac9f7561d984f,610368e95259933529c75296,2021-07-29_21h51.14.929,Simcolourproject_2stim_asymm_v5,2020.2.10,MacIntel,60,61025ae37ef11b136ea224fe,,,,,,,,,2159,35.83911133,74.76873779,1,0,0,response1disk,,7,17.18231201,-6.164428711,1,0,0,rectangle,17.18231201,-6.164428711,1,0,0,17.18231201,-6.164428711,1,0,0,0,19,19,8,1,,,,,,,,
,,,,,,,,,,,,,FF,,,,,,,,2.1001,,,,,,,,,,,,,,,,,,,,,,610071da1faac9f7561d984f,610368e95259933529c75296,2021-07-29_21h51.14.929,Simcolourproject_2stim_asymm_v5,2020.2.10,MacIntel,60,61025ae37ef11b136ea224fe,,,,,,,,,2148,91.61077881,-47.63427734,1,0,0,response3disk,,5,-7.142272949,-3.183166504,1,0,0,rectangle,-7.142272949,-3.183166504,1,0,0,-7.142272949,-3.183166504,1,0,0,0,20,20,40,1,,,,,,,,
,,,,,,,,,,,,,FF,,,,,,,,2.7833,,,,,,,,,,,,,,,,,,,,,,610071da1faac9f7561d984f,610368e95259933529c75296,2021-07-29_21h51.14.929,Simcolourproject_2stim_asymm_v5,2020.2.10,MacIntel,60,61025ae37ef11b136ea224fe,,,,,,,,,3974,-58.8001709,-56.20697021,1,0,0,response5disk,,2,20.62945557,-1.456298828,1,0,0,rectangle,20.62945557,-1.456298828,1,0,0,20.62945557,-1.456298828,1,0,0,0,21,21,35,1,,,,,,,,
,,,,,,,,,,,,,FF,,,,,,,,1.2836,,,,,,,,,,,,,,,,,,,,,,610071da1faac9f7561d984f,610368e95259933529c75296,2021-07-29_21h51.14.929,Simcolourproject_2stim_asymm_v5,2020.2.10,MacIntel,60,61025ae37ef11b136ea224fe,,,,,,,,,310,64.11108398,-44.1706543,1,0,0,response3disk,,5,-5.438110352,9.330200195,1,0,0,rectangle,-5.438110352,9.330200195,1,0,0,-5.438110352,9.330200195,1,0,0,0,22,22,147,1,,,,,,,,
,,,,,,,,,,,,,FF,,,,,,,,1.0335,,,,,,,,,,,,,,,,,,,,,,610071da1faac9f7561d984f,610368e95259933529c75296,2021-07-29_21h51.14.929,Simcolourproject_2stim_asymm_v5,2020.2.10,MacIntel,60,61025ae37ef11b136ea224fe,,,,,,,,,4118,-82.11962891,40.40386963,1,0,0,response7disk,,1,4.158081055,2.794433594,1,0,0,rectangle,4.158081055,2.794433594,1,0,0,4.158081055,2.794433594,1,0,0,0,23,23,23,1,,,,,,,,
,,,,,,,,,,,,,FF,,,,,,,,1.5011,,,,,,,,,,,,,,,,,,,,,,610071da1faac9f7561d984f,610368e95259933529c75296,2021-07-29_21h51.14.929,Simcolourproject_2stim_asymm_v5,2020.2.10,MacIntel,60,61025ae37ef11b136ea224fe,,,,,,,,,2213,35.63183594,68.09954834,1,0,0,response1disk,,7,16.70031738,1.826660156,1,0,0,rectangle,16.70031738,1.826660156,1,0,0,16.70031738,1.826660156,1,0,0,0,24,24,72,1,,,,,,,,
,,,,,,,,,,,,,FF,,,,,,,,1.0828,,,,,,,,,,,,,,,,,,,,,,610071da1faac9f7561d984f,610368e95259933529c75296,2021-07-29_21h51.14.929,Simcolourproject_2stim_asymm_v5,2020.2.10,MacIntel,60,61025ae37ef11b136ea224fe,,,,,,,,,1624,36.53833008,81.93811035,1,0,0,response1disk,,7,6.315551758,-6.972412109,1,0,0,rectangle,6.315551758,-6.972412109,1,0,0,6.315551758,-6.972412109,1,0,0,0,25,25,36,1,,,,,,,,
,,,,,,,,,,,,,FF,,,,,,,,2.0666,,,,,,,,,,,,,,,,,,,,,,610071da1faac9f7561d984f,610368e95259933529c75296,2021-07-29_21h51.14.929,Simcolourproject_2stim_asymm_v5,2020.2.10,MacIntel,60,61025ae37ef11b136ea224fe,,,,,,,,,1957,-63.88873291,-47.29855347,1,0,0,response5disk,,2,6.958374023,9.216247559,1,0,0,rectangle,6.958374023,9.216247559,1,0,0,6.958374023,9.216247559,1,0,0,0,26,26,32,1,,,,,,,,
,,,,,,,,,,,,,FF,,,,,,,,0.9007,,,,,,,,,,,,,,,,,,,,,,610071da1faac9f7561d984f,610368e95259933529c75296,2021-07-29_21h51.14.929,Simcolourproject_2stim_asymm_v5,2020.2.10,MacIntel,60,61025ae37ef11b136ea224fe,,,,,,,,,2250,59.63977051,-48.20874023,1,0,0,response3disk,,5,-8.219421387,-1.451599121,1,0,0,rectangle,-8.219421387,-1.451599121,1,0,0,-8.219421387,-1.451599121,1,0,0,0,27,27,149,1,,,,,,,,
,,,,,,,,,,,,,FF,,,,,,,,1.0321,,,,,,,,,,,,,,,,,,,,,,610071da1faac9f7561d984f,610368e95259933529c75296,2021-07-29_21h51.14.929,Simcolourproject_2stim_asymm_v5,2020.2.10,MacIntel,60,61025ae37ef11b136ea224fe,,,,,,,,,3184,65.54498291,-30.89550781,1,0,0,response3disk,,5,0.479858398,-6.214782715,1,0,0,rectangle,0.479858398,-6.214782715,1,0,0,0.479858398,-6.214782715,1,0,0,0,28,28,128,1,,,,,,,,
,,,,,,,,,,,,,FF,,,,,,,,1.601,,,,,,,,,,,,,,,,,,,,,,610071da1faac9f7561d984f,610368e95259933529c75296,2021-07-29_21h51.14.929,Simcolourproject_2stim_asymm_v5,2020.2.10,MacIntel,60,61025ae37ef11b136ea224fe,,,,,,,,,1026,70.35571289,30.87747192,1,0,0,response1disk,,6,17.92651367,-4.001434326,1,0,0,rectangle,17.92651367,-4.001434326,1,0,0,17.92651367,-4.001434326,1,0,0,0,29,29,112,1,,,,,,,,
,,,,,,,,,,,,,FF,,,,,,,,1.8842,,,,,,,,,,,,,,,,,,,,,,610071da1faac9f7561d984f,610368e95259933529c75296,2021-07-29_21h51.14.929,Simcolourproject_2stim_asymm_v5,2020.2.10,MacIntel,60,61025ae37ef11b136ea224fe,,,,,,,,,3601,53.05474854,35.15036011,1,0,0,response1disk,,6,-6.36517334,-2.580566406,1,0,0,rectangle,-6.36517334,-2.580566406,1,0,0,-6.36517334,-2.580566406,1,0,0,0,30,30,65,1,,,,,,,,
,,,,,,,,,,,,,FF,,,,,,,,0.9339,,,,,,,,,,,,,,,,,,,,,,610071da1faac9f7561d984f,610368e95259933529c75296,2021-07-29_21h51.14.929,Simcolourproject_2stim_asymm_v5,2020.2.10,MacIntel,60,61025ae37ef11b136ea224fe,,,,,,,,,2340,105.7619019,43.97335815,1,0,0,response1disk,,6,4.31060791,-4.857910156,1,0,0,rectangle,4.31060791,-4.857910156,1,0,0,4.31060791,-4.857910156,1,0,0,0,31,31,113,1,,,,,,,,
,,,,,,,,,,,,,FF,,,,,,,,2.4339,,,,,,,,,,,,,,,,,,,,,,610071da1faac9f7561d984f,610368e95259933529c75296,2021-07-29_21h51.14.929,Simcolourproject_2stim_asymm_v5,2020.2.10,MacIntel,60,61025ae37ef11b136ea224fe,,,,,,,,,3572,29.57287598,66.86175537,1,0,0,response1disk,,7,-6.183532715,-9.433837891,1,0,0,rectangle,38.4621582,-80.72528076,1,0,0,3.74987793,-10.65917969,1,0,0,0,32,32,56,1,,response3disk_3,TRUE,4,4,"[197,120,17,245,281,291,4,286,290,72,5,212,70,33,256,180,269,188,57,293]",1.4002,rectangle
,,,,,,,,,,,,,FF,,,,,,,,0.751,,,,,,,,,,,,,,,,,,,,,,610071da1faac9f7561d984f,610368e95259933529c75296,2021-07-29_21h51.14.929,Simcolourproject_2stim_asymm_v5,2020.2.10,MacIntel,60,61025ae37ef11b136ea224fe,,,,,,,,,787,-35.98626709,-37.95758057,1,0,0,response5disk,,3,-0.899963379,7.546173096,1,0,0,rectangle,-0.899963379,7.546173096,1,0,0,-0.899963379,7.546173096,1,0,0,0,33,33,104,1,,,,,,,,
,,,,,,,,,,,,,FF,,,,,,,,1.0492,,,,,,,,,,,,,,,,,,,,,,610071da1faac9f7561d984f,610368e95259933529c75296,2021-07-29_21h51.14.929,Simcolourproject_2stim_asymm_v5,2020.2.10,MacIntel,60,61025ae37ef11b136ea224fe,,,,,,,,,973,-76.82843018,-41.4546814,1,0,0,response5disk,,2,6.485839844,-7.862426758,1,0,0,rectangle,6.485839844,-7.862426758,1,0,0,6.485839844,-7.862426758,1,0,0,0,34,34,135,1,,,,,,,,
,,,,,,,,,,,,,FF,,,,,,,,1.7669,,,,,,,,,,,,,,,,,,,,,,610071da1faac9f7561d984f,610368e95259933529c75296,2021-07-29_21h51.14.929,Simcolourproject_2stim_asymm_v5,2020.2.10,MacIntel,60,61025ae37ef11b136ea224fe,,,,,,,,,1316,86.41760254,30.97253418,1,0,0,response1disk,,6,-7.165771484,-10.00238037,1,0,0,rectangle,-7.165771484,-10.00238037,1,0,0,-7.165771484,-10.00238037,1,0,0,0,35,35,107,1,,,,,,,,
,,,,,,,,,,,,,FF,,,,,,,,1.6001,,,,,,,,,,,,,,,,,,,,,,610071da1faac9f7561d984f,610368e95259933529c75296,2021-07-29_21h51.14.929,Simcolourproject_2stim_asymm_v5,2020.2.10,MacIntel,60,61025ae37ef11b136ea224fe,,,,,,,,,2515,25.79754639,51.24447632,1,0,0,response1disk,,7,7.99005127,-11.88720703,1,0,0,rectangle,7.99005127,-11.88720703,1,0,0,7.99005127,-11.88720703,1,0,0,0,36,36,73,1,,,,,,,,
,,,,,,,,,,,,,FF,,,,,,,,1.4662,,,,,,,,,,,,,,,,,,,,,,610071da1faac9f7561d984f,610368e95259933529c75296,2021-07-29_21h51.14.929,Simcolourproject_2stim_asymm_v5,2020.2.10,MacIntel,60,61025ae37ef11b136ea224fe,,,,,,,,,4206,-23.34454346,-80.70501709,1,0,0,response5disk,,3,-6.013793945,-9.16619873,1,0,0,rectangle,-6.013793945,-9.16619873,1,0,0,-6.013793945,-9.16619873,1,0,0,0,37,37,31,1,,,,,,,,
,,,,,,,,,,,,,FF,,,,,,,,1.0504,,,,,,,,,,,,,,,,,,,,,,610071da1faac9f7561d984f,610368e95259933529c75296,2021-07-29_21h51.14.929,Simcolourproject_2stim_asymm_v5,2020.2.10,MacIntel,60,61025ae37ef11b136ea224fe,,,,,,,,,2145,48.16259766,51.78421021,1,0,0,response1disk,,7,24.40771484,-5.220336914,1,0,0,rectangle,24.40771484,-5.220336914,1,0,0,24.40771484,-5.220336914,1,0,0,0,38,38,41,1,,,,,,,,
,,,,,,,,,,,,,FF,,,,,,,,2.1498,,,,,,,,,,,,,,,,,,,,,,610071da1faac9f7561d984f,610368e95259933529c75296,2021-07-29_21h51.14.929,Simcolourproject_2stim_asymm_v5,2020.2.10,MacIntel,60,61025ae37ef11b136ea224fe,,,,,,,,,4279,28.44586182,-79.41278076,1,0,0,response3disk,,4,10.00939941,3.269775391,1,0,0,rectangle,10.00939941,3.269775391,1,0,0,10.00939941,3.269775391,1,0,0,0,39,39,50,1,,,,,,,,
,,,,,,,,,,,,,FF,,,,,,,,1.5332,,,,,,,,,,,,,,,,,,,,,,610071da1faac9f7561d984f,610368e95259933529c75296,2021-07-29_21h51.14.929,Simcolourproject_2stim_asymm_v5,2020.2.10,MacIntel,60,61025ae37ef11b136ea224fe,,,,,,,,,3711,-50.38500977,-73.98278809,1,0,0,response5disk,,3,-0.27722168,-14.28399658,1,0,0,rectangle,-0.27722168,-14.28399658,1,0,0,-0.27722168,-14.28399658,1,0,0,0,40,40,39,1,,,,,,,,
,,,,,,,,,,,,,FF,,,,,,,,0.9179,,,,,,,,,,,,,,,,,,,,,,610071da1faac9f7561d984f,610368e95259933529c75296,2021-07-29_21h51.14.929,Simcolourproject_2stim_asymm_v5,2020.2.10,MacIntel,60,61025ae37ef11b136ea224fe,,,,,,,,,1167,40.48217773,81.80181885,1,0,0,response1disk,,7,-3.895385742,14.68847656,1,0,0,rectangle,-3.895385742,14.68847656,1,0,0,-3.895385742,14.68847656,1,0,0,0,41,41,90,1,,,,,,,,
,,,,,,,,,,,,,FF,,,,,,,,2.0666,,,,,,,,,,,,,,,,,,,,,,610071da1faac9f7561d984f,610368e95259933529c75296,2021-07-29_21h51.14.929,Simcolourproject_2stim_asymm_v5,2020.2.10,MacIntel,60,61025ae37ef11b136ea224fe,,,,,,,,,1770,77.01104736,44.00970459,1,0,0,response1disk,,6,-4.19342041,-10.30682373,1,0,0,rectangle,-4.19342041,-10.30682373,1,0,0,-4.19342041,-10.30682373,1,0,0,0,42,42,78,1,,,,,,,,
,,,,,,,,,,,,,FF,,,,,,,,1.2839,,,,,,,,,,,,,,,,,,,,,,610071da1faac9f7561d984f,610368e95259933529c75296,2021-07-29_21h51.14.929,Simcolourproject_2stim_asymm_v5,2020.2.10,MacIntel,60,61025ae37ef11b136ea224fe,,,,,,,,,2665,81.78186035,-42.42608643,1,0,0,response3disk,,5,-15.99993896,-6.798278809,1,0,0,rectangle,-15.99993896,-6.798278809,1,0,0,-15.99993896,-6.798278809,1,0,0,0,43,43,3,1,,,,,,,,
,,,,,,,,,,,,,FF,,,,,,,,1.0159,,,,,,,,,,,,,,,,,,,,,,610071da1faac9f7561d984f,610368e95259933529c75296,2021-07-29_21h51.14.929,Simcolourproject_2stim_asymm_v5,2020.2.10,MacIntel,60,61025ae37ef11b136ea224fe,,,,,,,,,2464,25.60638428,61.46868896,1,0,0,response1disk,,7,8.196289063,3.670227051,1,0,0,rectangle,8.196289063,3.670227051,1,0,0,8.196289063,3.670227051,1,0,0,0,44,44,93,1,,,,,,,,
,,,,,,,,,,,,,FF,,,,,,,,2.1006,,,,,,,,,,,,,,,,,,,,,,610071da1faac9f7561d984f,610368e95259933529c75296,2021-07-29_21h51.14.929,Simcolourproject_2stim_asymm_v5,2020.2.10,MacIntel,60,61025ae37ef11b136ea224fe,,,,,,,,,4364,-49.05316162,-90.26623535,1,0,0,response5disk,,3,-5.895812988,-2.648010254,1,0,0,rectangle,-5.895812988,-2.648010254,1,0,0,-5.895812988,-2.648010254,1,0,0,0,45,45,7,1,,,,,,,,
,,,,,,,,,,,,,FF,,,,,,,,1.0839,,,,,,,,,,,,,,,,,,,,,,610071da1faac9f7561d984f,610368e95259933529c75296,2021-07-29_21h51.14.929,Simcolourproject_2stim_asymm_v5,2020.2.10,MacIntel,60,61025ae37ef11b136ea224fe,,,,,,,,,2806,47.57507324,32.91491699,1,0,0,response1disk,,6,11.3571167,-14.40411377,1,0,0,rectangle,11.3571167,-14.40411377,1,0,0,11.3571167,-14.40411377,1,0,0,0,46,46,92,1,,,,,,,,
,,,,,,,,,,,,,FF,,,,,,,,1.001,,,,,,,,,,,,,,,,,,,,,,610071da1faac9f7561d984f,610368e95259933529c75296,2021-07-29_21h51.14.929,Simcolourproject_2stim_asymm_v5,2020.2.10,MacIntel,60,61025ae37ef11b136ea224fe,,,,,,,,,439,40.76367188,-60.51037598,1,0,0,response3disk,,4,2.478088379,6.89855957,1,0,0,rectangle,2.478088379,6.89855957,1,0,0,2.478088379,6.89855957,1,0,0,0,47,47,124,1,,,,,,,,
,,,,,,,,,,,,,FF,,,,,,,,1.9505,,,,,,,,,,,,,,,,,,,,,,610071da1faac9f7561d984f,610368e95259933529c75296,2021-07-29_21h51.14.929,Simcolourproject_2stim_asymm_v5,2020.2.10,MacIntel,60,61025ae37ef11b136ea224fe,,,,,,,,,2843,46.11975098,-65.17230225,1,0,0,response3disk,,4,5.40032959,4.140258789,1,0,0,rectangle,5.40032959,4.140258789,1,0,0,5.40032959,4.140258789,1,0,0,0,48,48,69,1,,,,,,,,
,,,,,,,,,,,,,FF,,,,,,,,2.5835,,,,,,,,,,,,,,,,,,,,,,610071da1faac9f7561d984f,610368e95259933529c75296,2021-07-29_21h51.14.929,Simcolourproject_2stim_asymm_v5,2020.2.10,MacIntel,60,61025ae37ef11b136ea224fe,,,,,,,,,3822,82.36456299,-57.60821533,1,0,0,response3disk,,5,-8.593444824,-6.810394287,1,0,0,rectangle,-8.593444824,-6.810394287,1,0,0,-8.593444824,-6.810394287,1,0,0,0,49,49,27,1,,,,,,,,
,,,,,,,,,,,,,FF,,,,,,,,0.834,,,,,,,,,,,,,,,,,,,,,,610071da1faac9f7561d984f,610368e95259933529c75296,2021-07-29_21h51.14.929,Simcolourproject_2stim_asymm_v5,2020.2.10,MacIntel,60,61025ae37ef11b136ea224fe,,,,,,,,,3831,66.88604736,-36.85894775,1,0,0,response3disk,,5,16.61242676,-9.845336914,1,0,0,rectangle,16.61242676,-9.845336914,1,0,0,16.61242676,-9.845336914,1,0,0,0,50,50,87,1,,,,,,,,
,,,,,,,,,,,,,FF,,,,,,,,1.1836,,,,,,,,,,,,,,,,,,,,,,610071da1faac9f7561d984f,610368e95259933529c75296,2021-07-29_21h51.14.929,Simcolourproject_2stim_asymm_v5,2020.2.10,MacIntel,60,61025ae37ef11b136ea224fe,,,,,,,,,177,56.23901367,95.7024231,1,0,0,response1disk,,7,24.54327393,-0.726928711,1,0,0,rectangle,24.54327393,-0.726928711,1,0,0,24.54327393,-0.726928711,1,0,0,0,51,51,86,1,,,,,,,,
,,,,,,,,,,,,,FF,,,,,,,,0.9162,,,,,,,,,,,,,,,,,,,,,,610071da1faac9f7561d984f,610368e95259933529c75296,2021-07-29_21h51.14.929,Simcolourproject_2stim_asymm_v5,2020.2.10,MacIntel,60,61025ae37ef11b136ea224fe,,,,,,,,,1558,79.18164063,41.46124268,1,0,0,response1disk,,6,6.32598877,8.067901611,1,0,0,rectangle,6.32598877,8.067901611,1,0,0,6.32598877,8.067901611,1,0,0,0,52,52,119,1,,,,,,,,
,,,,,,,,,,,,,FF,,,,,,,,0.9167,,,,,,,,,,,,,,,,,,,,,,610071da1faac9f7561d984f,610368e95259933529c75296,2021-07-29_21h51.14.929,Simcolourproject_2stim_asymm_v5,2020.2.10,MacIntel,60,61025ae37ef11b136ea224fe,,,,,,,,,799,59.83630371,39.0369873,1,0,0,response1disk,,6,15.94555664,5.884155273,1,0,0,rectangle,15.94555664,5.884155273,1,0,0,15.94555664,5.884155273,1,0,0,0,53,53,26,1,,,,,,,,
,,,,,,,,,,,,,FF,,,,,,,,0.967,,,,,,,,,,,,,,,,,,,,,,610071da1faac9f7561d984f,610368e95259933529c75296,2021-07-29_21h51.14.929,Simcolourproject_2stim_asymm_v5,2020.2.10,MacIntel,60,61025ae37ef11b136ea224fe,,,,,,,,,2993,-67.18572998,39.08682251,1,0,0,response7disk,,1,3.640258789,-6.152954102,1,0,0,rectangle,3.640258789,-6.152954102,1,0,0,3.640258789,-6.152954102,1,0,0,0,54,54,129,1,,,,,,,,
,,,,,,,,,,,,,FF,,,,,,,,3.167,,,,,,,,,,,,,,,,,,,,,,610071da1faac9f7561d984f,610368e95259933529c75296,2021-07-29_21h51.14.929,Simcolourproject_2stim_asymm_v5,2020.2.10,MacIntel,60,61025ae37ef11b136ea224fe,,,,,,,,,2785,54.13659668,-95.80340576,1,0,0,response3disk,,4,-22.07080078,7.913757324,1,0,0,rectangle,-22.07080078,7.913757324,1,0,0,-22.07080078,7.913757324,1,0,0,0,55,55,42,1,,,,,,,,
,,,,,,,,,,,,,FF,,,,,,,,2.9682,,,,,,,,,,,,,,,,,,,,,,610071da1faac9f7561d984f,610368e95259933529c75296,2021-07-29_21h51.14.929,Simcolourproject_2stim_asymm_v5,2020.2.10,MacIntel,60,61025ae37ef11b136ea224fe,,,,,,,,,1533,84.47753906,43.86517334,1,0,0,response1disk,,6,9.08807373,1.096313477,1,0,0,rectangle,-101.9078979,56.07699585,1,0,0,-3.751525879,-11.02984619,1,0,0,0,56,56,80,1,,response7disk_3,TRUE,1,1,"[197,120,17,245,281,291,4,286,290,72,5,212,70,33,256,180,269,188,57,293]",1.5512,rectangle
,,,,,,,,,,,,,FF,,,,,,,,0.9171,,,,,,,,,,,,,,,,,,,,,,610071da1faac9f7561d984f,610368e95259933529c75296,2021-07-29_21h51.14.929,Simcolourproject_2stim_asymm_v5,2020.2.10,MacIntel,60,61025ae37ef11b136ea224fe,,,,,,,,,3503,-31.75085449,-58.90536499,1,0,0,response5disk,,3,30.22338867,11.99588013,1,0,0,rectangle,30.22338867,11.99588013,1,0,0,30.22338867,11.99588013,1,0,0,0,57,57,18,1,,,,,,,,
,,,,,,,,,,,,,FF,,,,,,,,0.9164,,,,,,,,,,,,,,,,,,,,,,610071da1faac9f7561d984f,610368e95259933529c75296,2021-07-29_21h51.14.929,Simcolourproject_2stim_asymm_v5,2020.2.10,MacIntel,60,61025ae37ef11b136ea224fe,,,,,,,,,1279,34.51794434,89.3152771,1,0,0,response1disk,,7,17.65600586,11.76403809,1,0,0,rectangle,17.65600586,11.76403809,1,0,0,17.65600586,11.76403809,1,0,0,0,58,58,58,1,,,,,,,,
,,,,,,,,,,,,,FF,,,,,,,,1.034,,,,,,,,,,,,,,,,,,,,,,610071da1faac9f7561d984f,610368e95259933529c75296,2021-07-29_21h51.14.929,Simcolourproject_2stim_asymm_v5,2020.2.10,MacIntel,60,61025ae37ef11b136ea224fe,,,,,,,,,2315,36.68347168,64.4859314,1,0,0,response1disk,,7,10.69335938,-5.284667969,1,0,0,rectangle,10.69335938,-5.284667969,1,0,0,10.69335938,-5.284667969,1,0,0,0,59,59,20,1,,,,,,,,
,,,,,,,,,,,,,FF,,,,,,,,1.0512,,,,,,,,,,,,,,,,,,,,,,610071da1faac9f7561d984f,610368e95259933529c75296,2021-07-29_21h51.14.929,Simcolourproject_2stim_asymm_v5,2020.2.10,MacIntel,60,61025ae37ef11b136ea224fe,,,,,,,,,2053,23.77111816,48.38909912,1,0,0,response1disk,,7,-4.600769043,-11.19335938,1,0,0,rectangle,-4.600769043,-11.19335938,1,0,0,-4.600769043,-11.19335938,1,0,0,0,60,60,122,1,,,,,,,,
,,,,,,,,,,,,,FF,,,,,,,,0.8338,,,,,,,,,,,,,,,,,,,,,,610071da1faac9f7561d984f,610368e95259933529c75296,2021-07-29_21h51.14.929,Simcolourproject_2stim_asymm_v5,2020.2.10,MacIntel,60,61025ae37ef11b136ea224fe,,,,,,,,,845,53.02856445,72.9510498,1,0,0,response1disk,,7,7.853088379,2.83215332,1,0,0,rectangle,7.853088379,2.83215332,1,0,0,7.853088379,2.83215332,1,0,0,0,61,61,59,1,,,,,,,,
,,,,,,,,,,,,,FF,,,,,,,,1.2007,,,,,,,,,,,,,,,,,,,,,,610071da1faac9f7561d984f,610368e95259933529c75296,2021-07-29_21h51.14.929,Simcolourproject_2stim_asymm_v5,2020.2.10,MacIntel,60,61025ae37ef11b136ea224fe,,,,,,,,,3997,83.69543457,-31.43170166,1,0,0,response3disk,,5,17.40264893,-0.993530273,1,0,0,rectangle,17.40264893,-0.993530273,1,0,0,17.40264893,-0.993530273,1,0,0,0,62,62,12,1,,,,,,,,
,,,,,,,,,,,,,FF,,,,,,,,0.9341,,,,,,,,,,,,,,,,,,,,,,610071da1faac9f7561d984f,610368e95259933529c75296,2021-07-29_21h51.14.929,Simcolourproject_2stim_asymm_v5,2020.2.10,MacIntel,60,61025ae37ef11b136ea224fe,,,,,,,,,1655,55.90301514,68.78283691,1,0,0,response1disk,,7,-0.378234863,4.824310303,1,0,0,rectangle,-0.378234863,4.824310303,1,0,0,-0.378234863,4.824310303,1,0,0,0,63,63,141,1,,,,,,,,
,,,,,,,,,,,,,FF,,,,,,,,0.8836,,,,,,,,,,,,,,,,,,,,,,610071da1faac9f7561d984f,610368e95259933529c75296,2021-07-29_21h51.14.929,Simcolourproject_2stim_asymm_v5,2020.2.10,MacIntel,60,61025ae37ef11b136ea224fe,,,,,,,,,21,88.58538818,41.48449707,1,0,0,response1disk,,6,6.734741211,5.973907471,1,0,0,rectangle,6.734741211,5.973907471,1,0,0,6.734741211,5.973907471,1,0,0,0,64,64,145,1,,,,,,,,
,,,,,,,,,,,,,FF,,,,,,,,2.1181,,,,,,,,,,,,,,,,,,,,,,610071da1faac9f7561d984f,610368e95259933529c75296,2021-07-29_21h51.14.929,Simcolourproject_2stim_asymm_v5,2020.2.10,MacIntel,60,61025ae37ef11b136ea224fe,,,,,,,,,93,-70.10083008,-28.48706055,1,0,0,response5disk,,2,34.33258057,6.632263184,1,0,0,rectangle,34.33258057,6.632263184,1,0,0,34.33258057,6.632263184,1,0,0,0,65,65,153,1,,,,,,,,
,,,,,,,,,,,,,FF,,,,,,,,1.95,,,,,,,,,,,,,,,,,,,,,,610071da1faac9f7561d984f,610368e95259933529c75296,2021-07-29_21h51.14.929,Simcolourproject_2stim_asymm_v5,2020.2.10,MacIntel,60,61025ae37ef11b136ea224fe,,,,,,,,,2986,-24.43603516,-49.44958496,1,0,0,response5disk,,3,29.32684326,17.32861328,1,0,0,rectangle,29.32684326,17.32861328,1,0,0,29.32684326,17.32861328,1,0,0,0,66,66,97,1,,,,,,,,
,,,,,,,,,,,,,FF,,,,,,,,1,,,,,,,,,,,,,,,,,,,,,,610071da1faac9f7561d984f,610368e95259933529c75296,2021-07-29_21h51.14.929,Simcolourproject_2stim_asymm_v5,2020.2.10,MacIntel,60,61025ae37ef11b136ea224fe,,,,,,,,,2008,67.11883545,35.56951904,1,0,0,response1disk,,6,-28.41864014,-9.638305664,1,0,0,rectangle,-28.41864014,-9.638305664,1,0,0,-28.41864014,-9.638305664,1,0,0,0,67,67,148,1,,,,,,,,
,,,,,,,,,,,,,FF,,,,,,,,1.0331,,,,,,,,,,,,,,,,,,,,,,610071da1faac9f7561d984f,610368e95259933529c75296,2021-07-29_21h51.14.929,Simcolourproject_2stim_asymm_v5,2020.2.10,MacIntel,60,61025ae37ef11b136ea224fe,,,,,,,,,3199,-25.7557373,-45.68756104,1,0,0,response5disk,,3,-7.485168457,5.24420166,1,0,0,rectangle,-7.485168457,5.24420166,1,0,0,-7.485168457,5.24420166,1,0,0,0,68,68,94,1,,,,,,,,
,,,,,,,,,,,,,FF,,,,,,,,1.4161,,,,,,,,,,,,,,,,,,,,,,610071da1faac9f7561d984f,610368e95259933529c75296,2021-07-29_21h51.14.929,Simcolourproject_2stim_asymm_v5,2020.2.10,MacIntel,60,61025ae37ef11b136ea224fe,,,,,,,,,165,-37.90625,-80.24169922,1,0,0,response5disk,,3,-1.60534668,-4.712341309,1,0,0,rectangle,-43.91705322,-79.75933838,1,0,0,2.865905762,-13.45980835,1,0,0,0,69,69,30,1,,response5disk_3,TRUE,3,3,"[197,120,17,245,281,291,4,286,290,72,5,212,70,33,256,180,269,188,57,293]",1.6513,rectangle
,,,,,,,,,,,,,FF,,,,,,,,1.4505,,,,,,,,,,,,,,,,,,,,,,610071da1faac9f7561d984f,610368e95259933529c75296,2021-07-29_21h51.14.929,Simcolourproject_2stim_asymm_v5,2020.2.10,MacIntel,60,61025ae37ef11b136ea224fe,,,,,,,,,1777,45.15814209,-65.60998535,1,0,0,response3disk,,4,10.83276367,-12.13720703,1,0,0,rectangle,10.83276367,-12.13720703,1,0,0,10.83276367,-12.13720703,1,0,0,0,70,70,127,1,,,,,,,,
,,,,,,,,,,,,,FF,,,,,,,,4.3333,,,,,,,,,,,,,,,,,,,,,,610071da1faac9f7561d984f,610368e95259933529c75296,2021-07-29_21h51.14.929,Simcolourproject_2stim_asymm_v5,2020.2.10,MacIntel,60,61025ae37ef11b136ea224fe,,,,,,,,,885,-42.80834961,80.52642822,1,0,0,response7disk,,0,10.29205322,-1.03302002,1,0,0,rectangle,52.34173584,-95.74285889,1,0,0,-4.627990723,-2.158447266,1,0,0,0,71,71,76,1,,response3disk_3,TRUE,4,4,"[197,120,17,245,281,291,4,286,290,72,5,212,70,33,256,180,269,188,57,293]",1.5836,rectangle
,,,,,,,,,,,,,FF,,,,,,,,1.3829,,,,,,,,,,,,,,,,,,,,,,610071da1faac9f7561d984f,610368e95259933529c75296,2021-07-29_21h51.14.929,Simcolourproject_2stim_asymm_v5,2020.2.10,MacIntel,60,61025ae37ef11b136ea224fe,,,,,,,,,3758,37.87731934,65.18829346,1,0,0,response1disk,,7,14.84606934,10.84616089,1,0,0,rectangle,14.84606934,10.84616089,1,0,0,14.84606934,10.84616089,1,0,0,0,72,72,121,1,,,,,,,,
,,,,,,,,,,,,,FF,,,,,,,,1.6674,,,,,,,,,,,,,,,,,,,,,,610071da1faac9f7561d984f,610368e95259933529c75296,2021-07-29_21h51.14.929,Simcolourproject_2stim_asymm_v5,2020.2.10,MacIntel,60,61025ae37ef11b136ea224fe,,,,,,,,,3444,46.08789063,86.46276855,1,0,0,response1disk,,7,-15.61761475,-1.954345703,1,0,0,rectangle,-15.61761475,-1.954345703,1,0,0,-15.61761475,-1.954345703,1,0,0,0,73,73,45,1,,,,,,,,
,,,,,,,,,,,,,FF,,,,,,,,0.6512,,,,,,,,,,,,,,,,,,,,,,610071da1faac9f7561d984f,610368e95259933529c75296,2021-07-29_21h51.14.929,Simcolourproject_2stim_asymm_v5,2020.2.10,MacIntel,60,61025ae37ef11b136ea224fe,,,,,,,,,1619,47.87628174,94.60491943,1,0,0,response1disk,,7,1.803222656,6.596038818,1,0,0,rectangle,1.803222656,6.596038818,1,0,0,1.803222656,6.596038818,1,0,0,0,74,74,61,1,,,,,,,,
,,,,,,,,,,,,,FF,,,,,,,,1.0331,,,,,,,,,,,,,,,,,,,,,,610071da1faac9f7561d984f,610368e95259933529c75296,2021-07-29_21h51.14.929,Simcolourproject_2stim_asymm_v5,2020.2.10,MacIntel,60,61025ae37ef11b136ea224fe,,,,,,,,,2298,100.1821289,-32.13824463,1,0,0,response3disk,,5,13.7086792,3.153076172,1,0,0,rectangle,13.7086792,3.153076172,1,0,0,13.7086792,3.153076172,1,0,0,0,75,75,137,1,,,,,,,,
,,,,,,,,,,,,,FF,,,,,,,,1.3165,,,,,,,,,,,,,,,,,,,,,,610071da1faac9f7561d984f,610368e95259933529c75296,2021-07-29_21h51.14.929,Simcolourproject_2stim_asymm_v5,2020.2.10,MacIntel,60,61025ae37ef11b136ea224fe,,,,,,,,,2576,43.98492432,91.93612671,1,0,0,response1disk,,7,19.86120605,3.36151123,1,0,0,rectangle,19.86120605,3.36151123,1,0,0,19.86120605,3.36151123,1,0,0,0,76,76,82,1,,,,,,,,
,,,,,,,,,,,,,FF,,,,,,,,0.7669,,,,,,,,,,,,,,,,,,,,,,610071da1faac9f7561d984f,610368e95259933529c75296,2021-07-29_21h51.14.929,Simcolourproject_2stim_asymm_v5,2020.2.10,MacIntel,60,61025ae37ef11b136ea224fe,,,,,,,,,3613,39.65838623,74.11114502,1,0,0,response1disk,,7,13.39440918,-9.448181152,1,0,0,rectangle,13.39440918,-9.448181152,1,0,0,13.39440918,-9.448181152,1,0,0,0,77,77,139,1,,,,,,,,
,,,,,,,,,,,,,FF,,,,,,,,0.8331,,,,,,,,,,,,,,,,,,,,,,610071da1faac9f7561d984f,610368e95259933529c75296,2021-07-29_21h51.14.929,Simcolourproject_2stim_asymm_v5,2020.2.10,MacIntel,60,61025ae37ef11b136ea224fe,,,,,,,,,2204,31.60388184,84.33148193,1,0,0,response1disk,,7,-2.488769531,-3.459899902,1,0,0,rectangle,-2.488769531,-3.459899902,1,0,0,-2.488769531,-3.459899902,1,0,0,0,78,78,118,1,,,,,,,,
,,,,,,,,,,,,,FF,,,,,,,,0.6673,,,,,,,,,,,,,,,,,,,,,,610071da1faac9f7561d984f,610368e95259933529c75296,2021-07-29_21h51.14.929,Simcolourproject_2stim_asymm_v5,2020.2.10,MacIntel,60,61025ae37ef11b136ea224fe,,,,,,,,,703,25.14471436,54.35821533,1,0,0,response1disk,,7,0.533874512,-3.547698975,1,0,0,rectangle,0.533874512,-3.547698975,1,0,0,0.533874512,-3.547698975,1,0,0,0,79,79,77,1,,,,,,,,
,,,,,,,,,,,,,FF,,,,,,,,1.2676,,,,,,,,,,,,,,,,,,,,,,610071da1faac9f7561d984f,610368e95259933529c75296,2021-07-29_21h51.14.929,Simcolourproject_2stim_asymm_v5,2020.2.10,MacIntel,60,61025ae37ef11b136ea224fe,,,,,,,,,3107,57.27368164,-89.86401367,1,0,0,response3disk,,4,-7.757507324,2.553100586,1,0,0,rectangle,-7.757507324,2.553100586,1,0,0,-7.757507324,2.553100586,1,0,0,0,80,80,60,1,,,,,,,,
,,,,,,,,,,,,,FF,,,,,,,,1.9499,,,,,,,,,,,,,,,,,,,,,,610071da1faac9f7561d984f,610368e95259933529c75296,2021-07-29_21h51.14.929,Simcolourproject_2stim_asymm_v5,2020.2.10,MacIntel,60,61025ae37ef11b136ea224fe,,,,,,,,,2101,-36.80377197,-75.37646484,1,0,0,response5disk,,3,10.91711426,8.207946777,1,0,0,rectangle,10.91711426,8.207946777,1,0,0,10.91711426,8.207946777,1,0,0,0,81,81,84,1,,,,,,,,
,,,,,,,,,,,,,FF,,,,,,,,2.0505,,,,,,,,,,,,,,,,,,,,,,610071da1faac9f7561d984f,610368e95259933529c75296,2021-07-29_21h51.14.929,Simcolourproject_2stim_asymm_v5,2020.2.10,MacIntel,60,61025ae37ef11b136ea224fe,,,,,,,,,1545,48.47711182,94.70986938,1,0,0,response1disk,,7,17.58203125,-11.83145142,1,0,0,rectangle,17.58203125,-11.83145142,1,0,0,17.58203125,-11.83145142,1,0,0,0,82,82,52,1,,,,,,,,
,,,,,,,,,,,,,FF,,,,,,,,1.6669,,,,,,,,,,,,,,,,,,,,,,610071da1faac9f7561d984f,610368e95259933529c75296,2021-07-29_21h51.14.929,Simcolourproject_2stim_asymm_v5,2020.2.10,MacIntel,60,61025ae37ef11b136ea224fe,,,,,,,,,860,60.39123535,41.87414551,1,0,0,response1disk,,6,-2.221313477,-6.69543457,1,0,0,rectangle,-2.221313477,-6.69543457,1,0,0,-2.221313477,-6.69543457,1,0,0,0,83,83,115,1,,,,,,,,
,,,,,,,,,,,,,FF,,,,,,,,1.3675,,,,,,,,,,,,,,,,,,,,,,610071da1faac9f7561d984f,610368e95259933529c75296,2021-07-29_21h51.14.929,Simcolourproject_2stim_asymm_v5,2020.2.10,MacIntel,60,61025ae37ef11b136ea224fe,,,,,,,,,4,58.47033691,16.20611572,1,0,0,response1disk,,6,32.56695557,-5.71887207,1,0,0,rectangle,32.56695557,-5.71887207,1,0,0,32.56695557,-5.71887207,1,0,0,0,84,84,85,1,,,,,,,,
,,,,,,,,,,,,,FF,,,,,,,,1.0664,,,,,,,,,,,,,,,,,,,,,,610071da1faac9f7561d984f,610368e95259933529c75296,2021-07-29_21h51.14.929,Simcolourproject_2stim_asymm_v5,2020.2.10,MacIntel,60,61025ae37ef11b136ea224fe,,,,,,,,,3496,76.90496826,33.2124939,1,0,0,response1disk,,6,11.79528809,-5.594116211,1,0,0,rectangle,11.79528809,-5.594116211,1,0,0,11.79528809,-5.594116211,1,0,0,0,85,85,48,1,,,,,,,,
,,,,,,,,,,,,,FF,,,,,,,,0.7327,,,,,,,,,,,,,,,,,,,,,,610071da1faac9f7561d984f,610368e95259933529c75296,2021-07-29_21h51.14.929,Simcolourproject_2stim_asymm_v5,2020.2.10,MacIntel,60,61025ae37ef11b136ea224fe,,,,,,,,,2169,92.44720459,48.52423096,1,0,0,response1disk,,6,16.1204834,-9.242553711,1,0,0,rectangle,16.1204834,-9.242553711,1,0,0,16.1204834,-9.242553711,1,0,0,0,86,86,44,1,,,,,,,,
,,,,,,,,,,,,,FF,,,,,,,,0.5832,,,,,,,,,,,,,,,,,,,,,,610071da1faac9f7561d984f,610368e95259933529c75296,2021-07-29_21h51.14.929,Simcolourproject_2stim_asymm_v5,2020.2.10,MacIntel,60,61025ae37ef11b136ea224fe,,,,,,,,,1092,30.793396,68.97036743,1,0,0,response1disk,,7,6.242370605,6.786132813,1,0,0,rectangle,6.242370605,6.786132813,1,0,0,6.242370605,6.786132813,1,0,0,0,87,87,2,1,,,,,,,,
,,,,,,,,,,,,,FF,,,,,,,,1.5674,,,,,,,,,,,,,,,,,,,,,,610071da1faac9f7561d984f,610368e95259933529c75296,2021-07-29_21h51.14.929,Simcolourproject_2stim_asymm_v5,2020.2.10,MacIntel,60,61025ae37ef11b136ea224fe,,,,,,,,,2181,63.56976318,20.73974609,1,0,0,response1disk,,6,-12.50427246,-9.694458008,1,0,0,rectangle,-12.50427246,-9.694458008,1,0,0,-12.50427246,-9.694458008,1,0,0,0,88,88,140,1,,,,,,,,
,,,,,,,,,,,,,FF,,,,,,,,1.8838,,,,,,,,,,,,,,,,,,,,,,610071da1faac9f7561d984f,610368e95259933529c75296,2021-07-29_21h51.14.929,Simcolourproject_2stim_asymm_v5,2020.2.10,MacIntel,60,61025ae37ef11b136ea224fe,,,,,,,,,2143,79.37078857,31.6968689,1,0,0,response1disk,,6,20.22662354,-10.8270874,1,0,0,rectangle,20.22662354,-10.8270874,1,0,0,20.22662354,-10.8270874,1,0,0,0,89,89,63,1,,,,,,,,
,,,,,,,,,,,,,FF,,,,,,,,1.3503,,,,,,,,,,,,,,,,,,,,,,610071da1faac9f7561d984f,610368e95259933529c75296,2021-07-29_21h51.14.929,Simcolourproject_2stim_asymm_v5,2020.2.10,MacIntel,60,61025ae37ef11b136ea224fe,,,,,,,,,3820,67.86242676,26.74737549,1,0,0,response1disk,,6,8.611083984,6.156738281,1,0,0,rectangle,8.611083984,6.156738281,1,0,0,8.611083984,6.156738281,1,0,0,0,90,90,24,1,,,,,,,,
,,,,,,,,,,,,,FF,,,,,,,,0.8504,,,,,,,,,,,,,,,,,,,,,,610071da1faac9f7561d984f,610368e95259933529c75296,2021-07-29_21h51.14.929,Simcolourproject_2stim_asymm_v5,2020.2.10,MacIntel,60,61025ae37ef11b136ea224fe,,,,,,,,,2666,61.13354492,-39.59973145,1,0,0,response3disk,,5,-10.66418457,-2.682312012,1,0,0,rectangle,-10.66418457,-2.682312012,1,0,0,-10.66418457,-2.682312012,1,0,0,0,91,91,54,1,,,,,,,,
,,,,,,,,,,,,,FF,,,,,,,,1.4504,,,,,,,,,,,,,,,,,,,,,,610071da1faac9f7561d984f,610368e95259933529c75296,2021-07-29_21h51.14.929,Simcolourproject_2stim_asymm_v5,2020.2.10,MacIntel,60,61025ae37ef11b136ea224fe,,,,,,,,,3403,65.70428467,-22.65200806,1,0,0,response3disk,,5,-0.605957031,12.88122559,1,0,0,rectangle,-0.605957031,12.88122559,1,0,0,-0.605957031,12.88122559,1,0,0,0,92,92,130,1,,,,,,,,
,,,,,,,,,,,,,FF,,,,,,,,1.0678,,,,,,,,,,,,,,,,,,,,,,610071da1faac9f7561d984f,610368e95259933529c75296,2021-07-29_21h51.14.929,Simcolourproject_2stim_asymm_v5,2020.2.10,MacIntel,60,61025ae37ef11b136ea224fe,,,,,,,,,2795,48.03643799,38.74069214,1,0,0,response1disk,,6,1.368041992,2.070251465,1,0,0,rectangle,1.368041992,2.070251465,1,0,0,1.368041992,2.070251465,1,0,0,0,93,93,47,1,,,,,,,,
,,,,,,,,,,,,,FF,,,,,,,,1.5002,,,,,,,,,,,,,,,,,,,,,,610071da1faac9f7561d984f,610368e95259933529c75296,2021-07-29_21h51.14.929,Simcolourproject_2stim_asymm_v5,2020.2.10,MacIntel,60,61025ae37ef11b136ea224fe,,,,,,,,,3067,94.53930664,59.14544678,1,0,0,response1disk,,6,0.102478027,-5.013916016,1,0,0,rectangle,0.102478027,-5.013916016,1,0,0,0.102478027,-5.013916016,1,0,0,0,94,94,0,1,,,,,,,,
,,,,,,,,,,,,,FF,,,,,,,,0.8837,,,,,,,,,,,,,,,,,,,,,,610071da1faac9f7561d984f,610368e95259933529c75296,2021-07-29_21h51.14.929,Simcolourproject_2stim_asymm_v5,2020.2.10,MacIntel,60,61025ae37ef11b136ea224fe,,,,,,,,,1428,79.61816406,50.32507324,1,0,0,response1disk,,6,17.05090332,0.219421387,1,0,0,rectangle,17.05090332,0.219421387,1,0,0,17.05090332,0.219421387,1,0,0,0,95,95,123,1,,,,,,,,
,,,,,,,,,,,,,FF,,,,,,,,1.667,,,,,,,,,,,,,,,,,,,,,,610071da1faac9f7561d984f,610368e95259933529c75296,2021-07-29_21h51.14.929,Simcolourproject_2stim_asymm_v5,2020.2.10,MacIntel,60,61025ae37ef11b136ea224fe,,,,,,,,,3948,70.70501709,-41.24581909,1,0,0,response3disk,,5,14.36785889,6.315185547,1,0,0,rectangle,14.36785889,6.315185547,1,0,0,14.36785889,6.315185547,1,0,0,0,96,96,22,1,,,,,,,,
,,,,,,,,,,,,,FF,,,,,,,,0.6829,,,,,,,,,,,,,,,,,,,,,,610071da1faac9f7561d984f,610368e95259933529c75296,2021-07-29_21h51.14.929,Simcolourproject_2stim_asymm_v5,2020.2.10,MacIntel,60,61025ae37ef11b136ea224fe,,,,,,,,,2517,68.56134033,-35.99456787,1,0,0,response3disk,,5,29.81671143,-10.78085327,1,0,0,rectangle,29.81671143,-10.78085327,1,0,0,29.81671143,-10.78085327,1,0,0,0,97,97,154,1,,,,,,,,
,,,,,,,,,,,,,FF,,,,,,,,1.5328,,,,,,,,,,,,,,,,,,,,,,610071da1faac9f7561d984f,610368e95259933529c75296,2021-07-29_21h51.14.929,Simcolourproject_2stim_asymm_v5,2020.2.10,MacIntel,60,61025ae37ef11b136ea224fe,,,,,,,,,525,59.79345703,-99.04083252,1,0,0,response3disk,,4,12.11633301,-1.474761963,1,0,0,rectangle,12.11633301,-1.474761963,1,0,0,12.11633301,-1.474761963,1,0,0,0,98,98,105,1,,,,,,,,
,,,,,,,,,,,,,FF,,,,,,,,0.9168,,,,,,,,,,,,,,,,,,,,,,610071da1faac9f7561d984f,610368e95259933529c75296,2021-07-29_21h51.14.929,Simcolourproject_2stim_asymm_v5,2020.2.10,MacIntel,60,61025ae37ef11b136ea224fe,,,,,,,,,3329,46.25445557,-78.55273438,1,0,0,response3disk,,4,-3.702819824,-11.32275391,1,0,0,rectangle,-3.702819824,-11.32275391,1,0,0,-3.702819824,-11.32275391,1,0,0,0,99,99,111,1,,,,,,,,
,,,,,,,,,,,,,FF,,,,,,,,2.0345,,,,,,,,,,,,,,,,,,,,,,610071da1faac9f7561d984f,610368e95259933529c75296,2021-07-29_21h51.14.929,Simcolourproject_2stim_asymm_v5,2020.2.10,MacIntel,60,61025ae37ef11b136ea224fe,,,,,,,,,2621,36.6796875,-80.71789551,1,0,0,response3disk,,4,-15.39434814,-0.776885986,1,0,0,rectangle,-15.39434814,-0.776885986,1,0,0,-15.39434814,-0.776885986,1,0,0,0,100,100,136,1,,,,,,,,
,,,,,,,,,,,,,FF,,,,,,,,1.8505,,,,,,,,,,,,,,,,,,,,,,610071da1faac9f7561d984f,610368e95259933529c75296,2021-07-29_21h51.14.929,Simcolourproject_2stim_asymm_v5,2020.2.10,MacIntel,60,61025ae37ef11b136ea224fe,,,,,,,,,1685,103.5504761,54.40667725,1,0,0,response1disk,,6,-16.16912842,-4.896179199,1,0,0,rectangle,-16.16912842,-4.896179199,1,0,0,-16.16912842,-4.896179199,1,0,0,0,101,101,100,1,,,,,,,,
,,,,,,,,,,,,,FF,,,,,,,,0.8679,,,,,,,,,,,,,,,,,,,,,,610071da1faac9f7561d984f,610368e95259933529c75296,2021-07-29_21h51.14.929,Simcolourproject_2stim_asymm_v5,2020.2.10,MacIntel,60,61025ae37ef11b136ea224fe,,,,,,,,,407,101.2846069,-28.44415283,1,0,0,response3disk,,5,2.842468262,-4.933685303,1,0,0,rectangle,2.842468262,-4.933685303,1,0,0,2.842468262,-4.933685303,1,0,0,0,102,102,158,1,,,,,,,,
,,,,,,,,,,,,,FF,,,,,,,,0.8182,,,,,,,,,,,,,,,,,,,,,,610071da1faac9f7561d984f,610368e95259933529c75296,2021-07-29_21h51.14.929,Simcolourproject_2stim_asymm_v5,2020.2.10,MacIntel,60,61025ae37ef11b136ea224fe,,,,,,,,,783,58.90045166,31.61798096,1,0,0,response1disk,,6,13.6494751,-5.436950684,1,0,0,rectangle,13.6494751,-5.436950684,1,0,0,13.6494751,-5.436950684,1,0,0,0,103,103,37,1,,,,,,,,
,,,,,,,,,,,,,FF,,,,,,,,0.6333,,,,,,,,,,,,,,,,,,,,,,610071da1faac9f7561d984f,610368e95259933529c75296,2021-07-29_21h51.14.929,Simcolourproject_2stim_asymm_v5,2020.2.10,MacIntel,60,61025ae37ef11b136ea224fe,,,,,,,,,4265,46.57086182,100.1237793,1,0,0,response1disk,,7,19.20495605,7.777862549,1,0,0,rectangle,19.20495605,7.777862549,1,0,0,19.20495605,7.777862549,1,0,0,0,104,104,117,1,,,,,,,,
,,,,,,,,,,,,,FF,,,,,,,,1.3007,,,,,,,,,,,,,,,,,,,,,,610071da1faac9f7561d984f,610368e95259933529c75296,2021-07-29_21h51.14.929,Simcolourproject_2stim_asymm_v5,2020.2.10,MacIntel,60,61025ae37ef11b136ea224fe,,,,,,,,,3409,60.13708496,-35.40756226,1,0,0,response3disk,,5,6.553833008,-9.760620117,1,0,0,rectangle,6.553833008,-9.760620117,1,0,0,6.553833008,-9.760620117,1,0,0,0,105,105,13,1,,,,,,,,
,,,,,,,,,,,,,FF,,,,,,,,0.7346,,,,,,,,,,,,,,,,,,,,,,610071da1faac9f7561d984f,610368e95259933529c75296,2021-07-29_21h51.14.929,Simcolourproject_2stim_asymm_v5,2020.2.10,MacIntel,60,61025ae37ef11b136ea224fe,,,,,,,,,4287,41.73492432,79.60144043,1,0,0,response1disk,,7,-0.776245117,-3.578277588,1,0,0,rectangle,-0.776245117,-3.578277588,1,0,0,-0.776245117,-3.578277588,1,0,0,0,106,106,17,1,,,,,,,,
,,,,,,,,,,,,,FF,,,,,,,,1.2829,,,,,,,,,,,,,,,,,,,,,,610071da1faac9f7561d984f,610368e95259933529c75296,2021-07-29_21h51.14.929,Simcolourproject_2stim_asymm_v5,2020.2.10,MacIntel,60,61025ae37ef11b136ea224fe,,,,,,,,,90,96.29455566,-55.25582886,1,0,0,response3disk,,5,-9.19342041,0.233978271,1,0,0,rectangle,-9.19342041,0.233978271,1,0,0,-9.19342041,0.233978271,1,0,0,0,107,107,114,1,,,,,,,,
,,,,,,,,,,,,,FF,,,,,,,,1.9488,,,,,,,,,,,,,,,,,,,,,,610071da1faac9f7561d984f,610368e95259933529c75296,2021-07-29_21h51.14.929,Simcolourproject_2stim_asymm_v5,2020.2.10,MacIntel,60,61025ae37ef11b136ea224fe,,,,,,,,,458,74.7767334,-28.09768677,1,0,0,response3disk,,5,7.974060059,-5.965637207,1,0,0,rectangle,7.974060059,-5.965637207,1,0,0,7.974060059,-5.965637207,1,0,0,0,108,108,138,1,,,,,,,,
,,,,,,,,,,,,,FF,,,,,,,,1.0153,,,,,,,,,,,,,,,,,,,,,,610071da1faac9f7561d984f,610368e95259933529c75296,2021-07-29_21h51.14.929,Simcolourproject_2stim_asymm_v5,2020.2.10,MacIntel,60,61025ae37ef11b136ea224fe,,,,,,,,,1810,83.29779053,63.19839478,1,0,0,response1disk,,6,-11.10906982,14.54956055,1,0,0,rectangle,-11.10906982,14.54956055,1,0,0,-11.10906982,14.54956055,1,0,0,0,109,109,1,1,,,,,,,,
,,,,,,,,,,,,,FF,,,,,,,,1.2844,,,,,,,,,,,,,,,,,,,,,,610071da1faac9f7561d984f,610368e95259933529c75296,2021-07-29_21h51.14.929,Simcolourproject_2stim_asymm_v5,2020.2.10,MacIntel,60,61025ae37ef11b136ea224fe,,,,,,,,,2756,101.3855591,52.65362549,1,0,0,response1disk,,6,27.75158691,-4.669128418,1,0,0,rectangle,27.75158691,-4.669128418,1,0,0,27.75158691,-4.669128418,1,0,0,0,110,110,106,1,,,,,,,,
,,,,,,,,,,,,,FF,,,,,,,,1.3829,,,,,,,,,,,,,,,,,,,,,,610071da1faac9f7561d984f,610368e95259933529c75296,2021-07-29_21h51.14.929,Simcolourproject_2stim_asymm_v5,2020.2.10,MacIntel,60,61025ae37ef11b136ea224fe,,,,,,,,,3877,16.49377441,83.89501953,1,0,0,response1disk,,7,1.979431152,16.3616333,1,0,0,rectangle,1.979431152,16.3616333,1,0,0,1.979431152,16.3616333,1,0,0,0,111,111,28,1,,,,,,,,
,,,,,,,,,,,,,FF,,,,,,,,1.7157,,,,,,,,,,,,,,,,,,,,,,610071da1faac9f7561d984f,610368e95259933529c75296,2021-07-29_21h51.14.929,Simcolourproject_2stim_asymm_v5,2020.2.10,MacIntel,60,61025ae37ef11b136ea224fe,,,,,,,,,1974,24.53979492,100.9624634,1,0,0,response1disk,,7,-32.08532715,6.894958496,1,0,0,rectangle,-32.08532715,6.894958496,1,0,0,-32.08532715,6.894958496,1,0,0,0,112,112,99,1,,,,,,,,
,,,,,,,,,,,,,FF,,,,,,,,1.3851,,,,,,,,,,,,,,,,,,,,,,610071da1faac9f7561d984f,610368e95259933529c75296,2021-07-29_21h51.14.929,Simcolourproject_2stim_asymm_v5,2020.2.10,MacIntel,60,61025ae37ef11b136ea224fe,,,,,,,,,2392,79.6026001,-34.14260864,1,0,0,response3disk,,5,-3.424499512,-3.276062012,1,0,0,rectangle,-3.424499512,-3.276062012,1,0,0,-3.424499512,-3.276062012,1,0,0,0,113,113,68,1,,,,,,,,
,,,,,,,,,,,,,FF,,,,,,,,1.2171,,,,,,,,,,,,,,,,,,,,,,610071da1faac9f7561d984f,610368e95259933529c75296,2021-07-29_21h51.14.929,Simcolourproject_2stim_asymm_v5,2020.2.10,MacIntel,60,61025ae37ef11b136ea224fe,,,,,,,,,4075,71.78546143,49.71936035,1,0,0,response1disk,,6,24.7711792,-2.243682861,1,0,0,rectangle,24.7711792,-2.243682861,1,0,0,24.7711792,-2.243682861,1,0,0,0,114,114,79,1,,,,,,,,
,,,,,,,,,,,,,FF,,,,,,,,1.1516,,,,,,,,,,,,,,,,,,,,,,610071da1faac9f7561d984f,610368e95259933529c75296,2021-07-29_21h51.14.929,Simcolourproject_2stim_asymm_v5,2020.2.10,MacIntel,60,61025ae37ef11b136ea224fe,,,,,,,,,1873,57.29681396,35.67062378,1,0,0,response1disk,,6,3.481018066,2.175170898,1,0,0,rectangle,3.481018066,2.175170898,1,0,0,3.481018066,2.175170898,1,0,0,0,115,115,88,1,,,,,,,,
,,,,,,,,,,,,,FF,,,,,,,,1.0822,,,,,,,,,,,,,,,,,,,,,,610071da1faac9f7561d984f,610368e95259933529c75296,2021-07-29_21h51.14.929,Simcolourproject_2stim_asymm_v5,2020.2.10,MacIntel,60,61025ae37ef11b136ea224fe,,,,,,,,,4368,-46.95916748,89.53857422,1,0,0,response7disk,,0,0.748718262,-7.338043213,1,0,0,rectangle,0.748718262,-7.338043213,1,0,0,0.748718262,-7.338043213,1,0,0,0,116,116,16,1,,,,,,,,
,,,,,,,,,,,,,FF,,,,,,,,1.0329,,,,,,,,,,,,,,,,,,,,,,610071da1faac9f7561d984f,610368e95259933529c75296,2021-07-29_21h51.14.929,Simcolourproject_2stim_asymm_v5,2020.2.10,MacIntel,60,61025ae37ef11b136ea224fe,,,,,,,,,4017,45.10437012,100.8486023,1,0,0,response1disk,,7,-26.32458496,-13.41040039,1,0,0,rectangle,-26.32458496,-13.41040039,1,0,0,-26.32458496,-13.41040039,1,0,0,0,117,117,96,1,,,,,,,,
,,,,,,,,,,,,,FF,,,,,,,,1.5003,,,,,,,,,,,,,,,,,,,,,,610071da1faac9f7561d984f,610368e95259933529c75296,2021-07-29_21h51.14.929,Simcolourproject_2stim_asymm_v5,2020.2.10,MacIntel,60,61025ae37ef11b136ea224fe,,,,,,,,,999,47.63653564,82.6685791,1,0,0,response1disk,,7,-8.370910645,-0.159881592,1,0,0,rectangle,-8.370910645,-0.159881592,1,0,0,-8.370910645,-0.159881592,1,0,0,0,118,118,29,1,,,,,,,,
,,,,,,,,,,,,,FF,,,,,,,,0.9325,,,,,,,,,,,,,,,,,,,,,,610071da1faac9f7561d984f,610368e95259933529c75296,2021-07-29_21h51.14.929,Simcolourproject_2stim_asymm_v5,2020.2.10,MacIntel,60,61025ae37ef11b136ea224fe,,,,,,,,,2018,39.81988525,88.98291016,1,0,0,response1disk,,7,4.901611328,7.857421875,1,0,0,rectangle,-22.8125,91.56500244,1,0,0,0.783996582,0.551879883,1,0,0,0,119,119,62,1,,response7disk_3,TRUE,0,0,"[197,120,17,245,281,291,4,286,290,72,5,212,70,33,256,180,269,188,57,293]",2.6679,rectangle
,,,,,,,,,,,,,FF,,,,,,,,1.3181,,,,,,,,,,,,,,,,,,,,,,610071da1faac9f7561d984f,610368e95259933529c75296,2021-07-29_21h51.14.929,Simcolourproject_2stim_asymm_v5,2020.2.10,MacIntel,60,61025ae37ef11b136ea224fe,,,,,,,,,754,84.85418701,48.28118896,1,0,0,response1disk,,6,30.06915283,-7.944610596,1,0,0,rectangle,30.06915283,-7.944610596,1,0,0,30.06915283,-7.944610596,1,0,0,0,120,120,159,1,,,,,,,,
,,,,,,,,,,,,,FF,,,,,,,,2.0843,,,,,,,,,,,,,,,,,,,,,,610071da1faac9f7561d984f,610368e95259933529c75296,2021-07-29_21h51.14.929,Simcolourproject_2stim_asymm_v5,2020.2.10,MacIntel,60,61025ae37ef11b136ea224fe,,,,,,,,,4007,85.34454346,-23.46252441,1,0,0,response3disk,,5,2.490234375,10.77935791,1,0,0,rectangle,2.490234375,10.77935791,1,0,0,2.490234375,10.77935791,1,0,0,0,121,121,4,1,,,,,,,,
,,,,,,,,,,,,,FF,,,,,,,,2.0348,,,,,,,,,,,,,,,,,,,,,,610071da1faac9f7561d984f,610368e95259933529c75296,2021-07-29_21h51.14.929,Simcolourproject_2stim_asymm_v5,2020.2.10,MacIntel,60,61025ae37ef11b136ea224fe,,,,,,,,,125,60.36981201,52.15875244,1,0,0,response1disk,,6,-2.835632324,6.3359375,1,0,0,rectangle,-2.835632324,6.3359375,1,0,0,-2.835632324,6.3359375,1,0,0,0,122,122,57,1,,,,,,,,
,,,,,,,,,,,,,FF,,,,,,,,1.3338,,,,,,,,,,,,,,,,,,,,,,610071da1faac9f7561d984f,610368e95259933529c75296,2021-07-29_21h51.14.929,Simcolourproject_2stim_asymm_v5,2020.2.10,MacIntel,60,61025ae37ef11b136ea224fe,,,,,,,,,398,73.72479248,39.27749634,1,0,0,response1disk,,6,30.41052246,1.545654297,1,0,0,rectangle,30.41052246,1.545654297,1,0,0,30.41052246,1.545654297,1,0,0,0,123,123,74,1,,,,,,,,
,,,,,,,,,,,,,FF,,,,,,,,0.9992,,,,,,,,,,,,,,,,,,,,,,610071da1faac9f7561d984f,610368e95259933529c75296,2021-07-29_21h51.14.929,Simcolourproject_2stim_asymm_v5,2020.2.10,MacIntel,60,61025ae37ef11b136ea224fe,,,,,,,,,3112,89.12652588,-51.40869141,1,0,0,response3disk,,5,-5.714660645,10.18615723,1,0,0,rectangle,-5.714660645,10.18615723,1,0,0,-5.714660645,10.18615723,1,0,0,0,124,124,125,1,,,,,,,,
,,,,,,,,,,,,,FF,,,,,,,,0.9501,,,,,,,,,,,,,,,,,,,,,,610071da1faac9f7561d984f,610368e95259933529c75296,2021-07-29_21h51.14.929,Simcolourproject_2stim_asymm_v5,2020.2.10,MacIntel,60,61025ae37ef11b136ea224fe,,,,,,,,,2885,53.62225342,95.07012939,1,0,0,response1disk,,7,-7.633483887,-8.568908691,1,0,0,rectangle,-7.633483887,-8.568908691,1,0,0,-7.633483887,-8.568908691,1,0,0,0,125,125,144,1,,,,,,,,
,,,,,,,,,,,,,FF,,,,,,,,0.684,,,,,,,,,,,,,,,,,,,,,,610071da1faac9f7561d984f,610368e95259933529c75296,2021-07-29_21h51.14.929,Simcolourproject_2stim_asymm_v5,2020.2.10,MacIntel,60,61025ae37ef11b136ea224fe,,,,,,,,,986,68.77636719,27.38262939,1,0,0,response1disk,,6,-21.94061279,-6.01449585,1,0,0,rectangle,-21.94061279,-6.01449585,1,0,0,-21.94061279,-6.01449585,1,0,0,0,126,126,102,1,,,,,,,,
,,,,,,,,,,,,,FF,,,,,,,,0.7668,,,,,,,,,,,,,,,,,,,,,,610071da1faac9f7561d984f,610368e95259933529c75296,2021-07-29_21h51.14.929,Simcolourproject_2stim_asymm_v5,2020.2.10,MacIntel,60,61025ae37ef11b136ea224fe,,,,,,,,,4098,31.8001709,62.73687744,1,0,0,response1disk,,7,-4.913757324,11.77215576,1,0,0,rectangle,-4.913757324,11.77215576,1,0,0,-4.913757324,11.77215576,1,0,0,0,127,127,133,1,,,,,,,,
,,,,,,,,,,,,,FF,,,,,,,,0.5995,,,,,,,,,,,,,,,,,,,,,,610071da1faac9f7561d984f,610368e95259933529c75296,2021-07-29_21h51.14.929,Simcolourproject_2stim_asymm_v5,2020.2.10,MacIntel,60,61025ae37ef11b136ea224fe,,,,,,,,,3125,90.76513672,40.57446289,1,0,0,response1disk,,6,23.13494873,10.42767334,1,0,0,rectangle,23.13494873,10.42767334,1,0,0,23.13494873,10.42767334,1,0,0,0,128,128,9,1,,,,,,,,
,,,,,,,,,,,,,FF,,,,,,,,0.8154,,,,,,,,,,,,,,,,,,,,,,610071da1faac9f7561d984f,610368e95259933529c75296,2021-07-29_21h51.14.929,Simcolourproject_2stim_asymm_v5,2020.2.10,MacIntel,60,61025ae37ef11b136ea224fe,,,,,,,,,1033,77.59228516,55.93188477,1,0,0,response1disk,,6,-3.947937012,-13.12005615,1,0,0,rectangle,-3.947937012,-13.12005615,1,0,0,-3.947937012,-13.12005615,1,0,0,0,129,129,83,1,,,,,,,,
,,,,,,,,,,,,,FF,,,,,,,,0.8832,,,,,,,,,,,,,,,,,,,,,,610071da1faac9f7561d984f,610368e95259933529c75296,2021-07-29_21h51.14.929,Simcolourproject_2stim_asymm_v5,2020.2.10,MacIntel,60,61025ae37ef11b136ea224fe,,,,,,,,,1174,62.59875488,96.46209717,1,0,0,response1disk,,7,31.08831787,13.01837158,1,0,0,rectangle,31.08831787,13.01837158,1,0,0,31.08831787,13.01837158,1,0,0,0,130,130,91,1,,,,,,,,
,,,,,,,,,,,,,FF,,,,,,,,0.8662,,,,,,,,,,,,,,,,,,,,,,610071da1faac9f7561d984f,610368e95259933529c75296,2021-07-29_21h51.14.929,Simcolourproject_2stim_asymm_v5,2020.2.10,MacIntel,60,61025ae37ef11b136ea224fe,,,,,,,,,3289,47.30249023,87.7677002,1,0,0,response1disk,,7,-6.330688477,10.05041504,1,0,0,rectangle,-6.330688477,10.05041504,1,0,0,-6.330688477,10.05041504,1,0,0,0,131,131,64,1,,,,,,,,
,,,,,,,,,,,,,FF,,,,,,,,1.1491,,,,,,,,,,,,,,,,,,,,,,610071da1faac9f7561d984f,610368e95259933529c75296,2021-07-29_21h51.14.929,Simcolourproject_2stim_asymm_v5,2020.2.10,MacIntel,60,61025ae37ef11b136ea224fe,,,,,,,,,3858,54.02929688,35.51647949,1,0,0,response1disk,,6,-1.713012695,-4.364501953,1,0,0,rectangle,-1.713012695,-4.364501953,1,0,0,-1.713012695,-4.364501953,1,0,0,0,132,132,109,1,,,,,,,,
,,,,,,,,,,,,,FF,,,,,,,,1.5169,,,,,,,,,,,,,,,,,,,,,,610071da1faac9f7561d984f,610368e95259933529c75296,2021-07-29_21h51.14.929,Simcolourproject_2stim_asymm_v5,2020.2.10,MacIntel,60,61025ae37ef11b136ea224fe,,,,,,,,,1201,-40.83880615,-85.32299805,1,0,0,response5disk,,3,32.02038574,17.75653076,1,0,0,rectangle,32.02038574,17.75653076,1,0,0,32.02038574,17.75653076,1,0,0,0,133,133,10,1,,,,,,,,
,,,,,,,,,,,,,FF,,,,,,,,2.1512,,,,,,,,,,,,,,,,,,,,,,610071da1faac9f7561d984f,610368e95259933529c75296,2021-07-29_21h51.14.929,Simcolourproject_2stim_asymm_v5,2020.2.10,MacIntel,60,61025ae37ef11b136ea224fe,,,,,,,,,540,62.98254395,48.00686646,1,0,0,response1disk,,6,-1.371765137,-8.459228516,1,0,0,rectangle,-1.371765137,-8.459228516,1,0,0,-1.371765137,-8.459228516,1,0,0,0,134,134,134,1,,,,,,,,
,,,,,,,,,,,,,FF,,,,,,,,1.0338,,,,,,,,,,,,,,,,,,,,,,610071da1faac9f7561d984f,610368e95259933529c75296,2021-07-29_21h51.14.929,Simcolourproject_2stim_asymm_v5,2020.2.10,MacIntel,60,61025ae37ef11b136ea224fe,,,,,,,,,2197,25.14624023,80.95458984,1,0,0,response1disk,,7,-25.94293213,0.275695801,1,0,0,rectangle,-25.94293213,0.275695801,1,0,0,-25.94293213,0.275695801,1,0,0,0,135,135,156,1,,,,,,,,
,,,,,,,,,,,,,FF,,,,,,,,1.0498,,,,,,,,,,,,,,,,,,,,,,610071da1faac9f7561d984f,610368e95259933529c75296,2021-07-29_21h51.14.929,Simcolourproject_2stim_asymm_v5,2020.2.10,MacIntel,60,61025ae37ef11b136ea224fe,,,,,,,,,4220,68.81542969,-48.38311768,1,0,0,response3disk,,5,-25.57299805,6.805145264,1,0,0,rectangle,-25.57299805,6.805145264,1,0,0,-25.57299805,6.805145264,1,0,0,0,136,136,151,1,,,,,,,,
,,,,,,,,,,,,,FF,,,,,,,,3.4498,,,,,,,,,,,,,,,,,,,,,,610071da1faac9f7561d984f,610368e95259933529c75296,2021-07-29_21h51.14.929,Simcolourproject_2stim_asymm_v5,2020.2.10,MacIntel,60,61025ae37ef11b136ea224fe,,,,,,,,,3763,42.44921875,85.4274292,1,0,0,response1disk,,7,19.47937012,0.479919434,1,0,0,rectangle,19.47937012,0.479919434,1,0,0,19.47937012,0.479919434,1,0,0,0,137,137,70,1,,,,,,,,
,,,,,,,,,,,,,FF,,,,,,,,1.3986,,,,,,,,,,,,,,,,,,,,,,610071da1faac9f7561d984f,610368e95259933529c75296,2021-07-29_21h51.14.929,Simcolourproject_2stim_asymm_v5,2020.2.10,MacIntel,60,61025ae37ef11b136ea224fe,,,,,,,,,2731,32.20245361,-85.79998779,1,0,0,response3disk,,4,-13.1807251,-3.800598145,1,0,0,rectangle,-13.1807251,-3.800598145,1,0,0,-13.1807251,-3.800598145,1,0,0,0,138,138,103,1,,,,,,,,
,,,,,,,,,,,,,FF,,,,,,,,1.4846,,,,,,,,,,,,,,,,,,,,,,610071da1faac9f7561d984f,610368e95259933529c75296,2021-07-29_21h51.14.929,Simcolourproject_2stim_asymm_v5,2020.2.10,MacIntel,60,61025ae37ef11b136ea224fe,,,,,,,,,3484,79.87219238,-35.29968262,1,0,0,response3disk,,5,22.3102417,9.060668945,1,0,0,rectangle,22.3102417,9.060668945,1,0,0,22.3102417,9.060668945,1,0,0,0,139,139,157,1,,,,,,,,
,,,,,,,,,,,,,FF,,,,,,,,1.3179,,,,,,,,,,,,,,,,,,,,,,610071da1faac9f7561d984f,610368e95259933529c75296,2021-07-29_21h51.14.929,Simcolourproject_2stim_asymm_v5,2020.2.10,MacIntel,60,61025ae37ef11b136ea224fe,,,,,,,,,141,-24.82366943,-69.98986816,1,0,0,response5disk,,3,-1.799438477,3.135345459,1,0,0,rectangle,-1.799438477,3.135345459,1,0,0,-1.799438477,3.135345459,1,0,0,0,140,140,11,1,,,,,,,,
,,,,,,,,,,,,,FF,,,,,,,,1.2327,,,,,,,,,,,,,,,,,,,,,,610071da1faac9f7561d984f,610368e95259933529c75296,2021-07-29_21h51.14.929,Simcolourproject_2stim_asymm_v5,2020.2.10,MacIntel,60,61025ae37ef11b136ea224fe,,,,,,,,,4196,80.5949707,65.86993408,1,0,0,response1disk,,6,20.29425049,-3.409790039,1,0,0,rectangle,20.29425049,-3.409790039,1,0,0,20.29425049,-3.409790039,1,0,0,0,141,141,110,1,,,,,,,,
,,,,,,,,,,,,,FF,,,,,,,,0.8832,,,,,,,,,,,,,,,,,,,,,,610071da1faac9f7561d984f,610368e95259933529c75296,2021-07-29_21h51.14.929,Simcolourproject_2stim_asymm_v5,2020.2.10,MacIntel,60,61025ae37ef11b136ea224fe,,,,,,,,,2093,-67.53765869,37.27166748,1,0,0,response7disk,,1,-0.41595459,-2.696350098,1,0,0,rectangle,-0.41595459,-2.696350098,1,0,0,-0.41595459,-2.696350098,1,0,0,0,142,142,89,1,,,,,,,,
,,,,,,,,,,,,,FF,,,,,,,,0.6671,,,,,,,,,,,,,,,,,,,,,,610071da1faac9f7561d984f,610368e95259933529c75296,2021-07-29_21h51.14.929,Simcolourproject_2stim_asymm_v5,2020.2.10,MacIntel,60,61025ae37ef11b136ea224fe,,,,,,,,,92,41.31140137,115.8677063,1,0,0,response1disk,,7,-7.258178711,2.989837646,1,0,0,rectangle,-7.258178711,2.989837646,1,0,0,-7.258178711,2.989837646,1,0,0,0,143,143,132,1,,,,,,,,
,,,,,,,,,,,,,FF,,,,,,,,0.9505,,,,,,,,,,,,,,,,,,,,,,610071da1faac9f7561d984f,610368e95259933529c75296,2021-07-29_21h51.14.929,Simcolourproject_2stim_asymm_v5,2020.2.10,MacIntel,60,61025ae37ef11b136ea224fe,,,,,,,,,2924,55.99957275,96.00442505,1,0,0,response1disk,,7,-10.14782715,-8.658813477,1,0,0,rectangle,-10.14782715,-8.658813477,1,0,0,-10.14782715,-8.658813477,1,0,0,0,144,144,143,1,,,,,,,,
,,,,,,,,,,,,,FF,,,,,,,,1.0491,,,,,,,,,,,,,,,,,,,,,,610071da1faac9f7561d984f,610368e95259933529c75296,2021-07-29_21h51.14.929,Simcolourproject_2stim_asymm_v5,2020.2.10,MacIntel,60,61025ae37ef11b136ea224fe,,,,,,,,,1454,-71.66821289,-37.3782959,1,0,0,response5disk,,2,-20.33526611,-11.18725586,1,0,0,rectangle,-20.33526611,-11.18725586,1,0,0,-20.33526611,-11.18725586,1,0,0,0,145,145,116,1,,,,,,,,
,,,,,,,,,,,,,FF,,,,,,,,2.1838,,,,,,,,,,,,,,,,,,,,,,610071da1faac9f7561d984f,610368e95259933529c75296,2021-07-29_21h51.14.929,Simcolourproject_2stim_asymm_v5,2020.2.10,MacIntel,60,61025ae37ef11b136ea224fe,,,,,,,,,1510,45.33331299,105.0842285,1,0,0,response1disk,,7,18.63165283,-0.295166016,1,0,0,rectangle,18.63165283,-0.295166016,1,0,0,18.63165283,-0.295166016,1,0,0,0,146,146,46,1,,,,,,,,
,,,,,,,,,,,,,FF,,,,,,,,0.6335,,,,,,,,,,,,,,,,,,,,,,610071da1faac9f7561d984f,610368e95259933529c75296,2021-07-29_21h51.14.929,Simcolourproject_2stim_asymm_v5,2020.2.10,MacIntel,60,61025ae37ef11b136ea224fe,,,,,,,,,1648,50.88317871,83.67248535,1,0,0,response1disk,,7,29.5489502,3.059020996,1,0,0,rectangle,29.5489502,3.059020996,1,0,0,29.5489502,3.059020996,1,0,0,0,147,147,142,1,,,,,,,,
,,,,,,,,,,,,,FF,,,,,,,,0.7002,,,,,,,,,,,,,,,,,,,,,,610071da1faac9f7561d984f,610368e95259933529c75296,2021-07-29_21h51.14.929,Simcolourproject_2stim_asymm_v5,2020.2.10,MacIntel,60,61025ae37ef11b136ea224fe,,,,,,,,,732,63.17224121,40.79693604,1,0,0,response1disk,,6,15.97900391,-6.257354736,1,0,0,rectangle,15.97900391,-6.257354736,1,0,0,15.97900391,-6.257354736,1,0,0,0,148,148,71,1,,,,,,,,
,,,,,,,,,,,,,FF,,,,,,,,0.8668,,,,,,,,,,,,,,,,,,,,,,610071da1faac9f7561d984f,610368e95259933529c75296,2021-07-29_21h51.14.929,Simcolourproject_2stim_asymm_v5,2020.2.10,MacIntel,60,61025ae37ef11b136ea224fe,,,,,,,,,3982,58.26763916,45.15405273,1,0,0,response1disk,,6,25.87628174,10.7192688,1,0,0,rectangle,25.87628174,10.7192688,1,0,0,25.87628174,10.7192688,1,0,0,0,149,149,15,1,,,,,,,,
,,,,,,,,,,,,,FF,,,,,,,,1.7016,,,,,,,,,,,,,,,,,,,,,,610071da1faac9f7561d984f,610368e95259933529c75296,2021-07-29_21h51.14.929,Simcolourproject_2stim_asymm_v5,2020.2.10,MacIntel,60,61025ae37ef11b136ea224fe,,,,,,,,,2273,36.66271973,82.79049683,1,0,0,response1disk,,7,-2.35559082,9.92565918,1,0,0,rectangle,-2.35559082,9.92565918,1,0,0,-2.35559082,9.92565918,1,0,0,0,150,150,155,1,,,,,,,,
,,,,,,,,,,,,,FF,,,,,,,,0.6828,,,,,,,,,,,,,,,,,,,,,,610071da1faac9f7561d984f,610368e95259933529c75296,2021-07-29_21h51.14.929,Simcolourproject_2stim_asymm_v5,2020.2.10,MacIntel,60,61025ae37ef11b136ea224fe,,,,,,,,,964,31.28302002,63.41119385,1,0,0,response1disk,,7,1.188049316,-2.888641357,1,0,0,rectangle,1.188049316,-2.888641357,1,0,0,1.188049316,-2.888641357,1,0,0,0,151,151,152,1,,,,,,,,
,,,,,,,,,,,,,FF,,,,,,,,1.1004,,,,,,,,,,,,,,,,,,,,,,610071da1faac9f7561d984f,610368e95259933529c75296,2021-07-29_21h51.14.929,Simcolourproject_2stim_asymm_v5,2020.2.10,MacIntel,60,61025ae37ef11b136ea224fe,,,,,,,,,3871,84.1585083,32.06365967,1,0,0,response1disk,,6,11.63134766,-4.342712402,1,0,0,rectangle,11.63134766,-4.342712402,1,0,0,11.63134766,-4.342712402,1,0,0,0,152,152,146,1,,,,,,,,
,,,,,,,,,,,,,FF,,,,,,,,0.966,,,,,,,,,,,,,,,,,,,,,,610071da1faac9f7561d984f,610368e95259933529c75296,2021-07-29_21h51.14.929,Simcolourproject_2stim_asymm_v5,2020.2.10,MacIntel,60,61025ae37ef11b136ea224fe,,,,,,,,,2894,-38.19293213,-59.62542725,1,0,0,response5disk,,3,2.370788574,-11.42071533,1,0,0,rectangle,2.370788574,-11.42071533,1,0,0,2.370788574,-11.42071533,1,0,0,0,153,153,108,1,,,,,,,,
,,,,,,,,,,,,,FF,,,,,,,,1.0009,,,,,,,,,,,,,,,,,,,,,,610071da1faac9f7561d984f,610368e95259933529c75296,2021-07-29_21h51.14.929,Simcolourproject_2stim_asymm_v5,2020.2.10,MacIntel,60,61025ae37ef11b136ea224fe,,,,,,,,,1991,34.5168457,96.83551025,1,0,0,response1disk,,7,26.06921387,-0.943359375,1,0,0,rectangle,26.06921387,-0.943359375,1,0,0,26.06921387,-0.943359375,1,0,0,0,154,154,34,1,,,,,,,,
,,,,,,,,,,,,,FF,,,,,,,,1.1825,,,,,,,,,,,,,,,,,,,,,,610071da1faac9f7561d984f,610368e95259933529c75296,2021-07-29_21h51.14.929,Simcolourproject_2stim_asymm_v5,2020.2.10,MacIntel,60,61025ae37ef11b136ea224fe,,,,,,,,,2538,64.23828125,38.88446045,1,0,0,response1disk,,6,-15.65985107,-11.47900391,1,0,0,rectangle,-15.65985107,-11.47900391,1,0,0,-15.65985107,-11.47900391,1,0,0,0,155,155,66,1,,,,,,,,
,,,,,,,,,,,,,FF,,,,,,,,2.5344,,,,,,,,,,,,,,,,,,,,,,610071da1faac9f7561d984f,610368e95259933529c75296,2021-07-29_21h51.14.929,Simcolourproject_2stim_asymm_v5,2020.2.10,MacIntel,60,61025ae37ef11b136ea224fe,,,,,,,,,4142,98.17858887,43.82983398,1,0,0,response1disk,,6,22.57788086,-9.537902832,1,0,0,rectangle,22.57788086,-9.537902832,1,0,0,22.57788086,-9.537902832,1,0,0,0,156,156,126,1,,,,,,,,
,,,,,,,,,,,,,FF,,,,,,,,1.0338,,,,,,,,,,,,,,,,,,,,,,610071da1faac9f7561d984f,610368e95259933529c75296,2021-07-29_21h51.14.929,Simcolourproject_2stim_asymm_v5,2020.2.10,MacIntel,60,61025ae37ef11b136ea224fe,,,,,,,,,159,94.58099365,-44.21447754,1,0,0,response3disk,,5,12.4197998,-12.14453125,1,0,0,rectangle,12.4197998,-12.14453125,1,0,0,12.4197998,-12.14453125,1,0,0,0,157,157,21,1,,,,,,,,
,,,,,,,,,,,,,FF,,,,,,,,1.0346,,,,,,,,,,,,,,,,,,,,,,610071da1faac9f7561d984f,610368e95259933529c75296,2021-07-29_21h51.14.929,Simcolourproject_2stim_asymm_v5,2020.2.10,MacIntel,60,61025ae37ef11b136ea224fe,,,,,,,,,1799,-27.14379883,-113.701355,1,0,0,response5disk,,3,26.80145264,-12.0067749,1,0,0,rectangle,26.80145264,-12.0067749,1,0,0,26.80145264,-12.0067749,1,0,0,0,158,158,81,1,,,,,,,,
,,,,,,,,,,,,,FF,,,,,,,,0.75,,,,,,,,,,,,,,,,,,,,,,610071da1faac9f7561d984f,610368e95259933529c75296,2021-07-29_21h51.14.929,Simcolourproject_2stim_asymm_v5,2020.2.10,MacIntel,60,61025ae37ef11b136ea224fe,,,,,,,,,2134,26.5300293,60.03118896,1,0,0,response1disk,,7,-7.975463867,-12.87503052,1,0,0,rectangle,-7.975463867,-12.87503052,1,0,0,-7.975463867,-12.87503052,1,0,0,0,159,159,67,1,,,,,,,,
,,,,,,,,,,,,,FF,,,,,,,,0.7327,,,,,,,,,,,,,,,,,,,,,,610071da1faac9f7561d984f,610368e95259933529c75296,2021-07-29_21h51.14.929,Simcolourproject_2stim_asymm_v5,2020.2.10,MacIntel,60,61025ae37ef11b136ea224fe,,,,,,,,,323,83.67486572,27.36767578,1,0,0,response1disk,,6,11.19891357,0.322753906,1,0,0,rectangle,11.19891357,0.322753906,1,0,0,11.19891357,0.322753906,1,0,0,1,0,160,45,1,,,,,,,,
,,,,,,,,,,,,,FF,,,,,,,,0.7502,,,,,,,,,,,,,,,,,,,,,,610071da1faac9f7561d984f,610368e95259933529c75296,2021-07-29_21h51.14.929,Simcolourproject_2stim_asymm_v5,2020.2.10,MacIntel,60,61025ae37ef11b136ea224fe,,,,,,,,,194,54.20678711,23.93521118,1,0,0,response1disk,,6,14.93579102,-11.73583984,1,0,0,rectangle,14.93579102,-11.73583984,1,0,0,14.93579102,-11.73583984,1,0,0,1,1,161,154,1,,,,,,,,
,,,,,,,,,,,,,FF,,,,,,,,3.1174,,,,,,,,,,,,,,,,,,,,,,610071da1faac9f7561d984f,610368e95259933529c75296,2021-07-29_21h51.14.929,Simcolourproject_2stim_asymm_v5,2020.2.10,MacIntel,60,61025ae37ef11b136ea224fe,,,,,,,,,1239,80.94958496,55.89746094,1,0,0,response1disk,,6,13.23388672,-1.994567871,1,0,0,rectangle,13.23388672,-1.994567871,1,0,0,13.23388672,-1.994567871,1,0,0,1,2,162,93,1,,,,,,,,
,,,,,,,,,,,,,FF,,,,,,,,0.883,,,,,,,,,,,,,,,,,,,,,,610071da1faac9f7561d984f,610368e95259933529c75296,2021-07-29_21h51.14.929,Simcolourproject_2stim_asymm_v5,2020.2.10,MacIntel,60,61025ae37ef11b136ea224fe,,,,,,,,,122,74.92956543,50.09359741,1,0,0,response1disk,,6,-1.778442383,10.6050415,1,0,0,rectangle,-1.778442383,10.6050415,1,0,0,-1.778442383,10.6050415,1,0,0,1,3,163,142,1,,,,,,,,
,,,,,,,,,,,,,FF,,,,,,,,0.667,,,,,,,,,,,,,,,,,,,,,,610071da1faac9f7561d984f,610368e95259933529c75296,2021-07-29_21h51.14.929,Simcolourproject_2stim_asymm_v5,2020.2.10,MacIntel,60,61025ae37ef11b136ea224fe,,,,,,,,,155,33.43170166,99.72174072,1,0,0,response1disk,,7,4.899169922,4.213867188,1,0,0,rectangle,4.899169922,4.213867188,1,0,0,4.899169922,4.213867188,1,0,0,1,4,164,27,1,,,,,,,,
,,,,,,,,,,,,,FF,,,,,,,,1.1667,,,,,,,,,,,,,,,,,,,,,,610071da1faac9f7561d984f,610368e95259933529c75296,2021-07-29_21h51.14.929,Simcolourproject_2stim_asymm_v5,2020.2.10,MacIntel,60,61025ae37ef11b136ea224fe,,,,,,,,,3990,68.33612061,-27.8348999,1,0,0,response3disk,,5,17.99169922,-3.695251465,1,0,0,rectangle,17.99169922,-3.695251465,1,0,0,17.99169922,-3.695251465,1,0,0,1,5,165,139,1,,,,,,,,
,,,,,,,,,,,,,FF,,,,,,,,0.8661,,,,,,,,,,,,,,,,,,,,,,610071da1faac9f7561d984f,610368e95259933529c75296,2021-07-29_21h51.14.929,Simcolourproject_2stim_asymm_v5,2020.2.10,MacIntel,60,61025ae37ef11b136ea224fe,,,,,,,,,2455,32.26104736,77.86392212,1,0,0,response1disk,,7,8.724121094,-7.709899902,1,0,0,rectangle,8.724121094,-7.709899902,1,0,0,8.724121094,-7.709899902,1,0,0,1,6,166,8,1,,,,,,,,
,,,,,,,,,,,,,FF,,,,,,,,1.8462,,,,,,,,,,,,,,,,,,,,,,610071da1faac9f7561d984f,610368e95259933529c75296,2021-07-29_21h51.14.929,Simcolourproject_2stim_asymm_v5,2020.2.10,MacIntel,60,61025ae37ef11b136ea224fe,,,,,,,,,576,85.42999268,-31.612854,1,0,0,response3disk,,5,2.730957031,7.389282227,1,0,0,rectangle,2.730957031,7.389282227,1,0,0,2.730957031,7.389282227,1,0,0,1,7,167,104,1,,,,,,,,
,,,,,,,,,,,,,FF,,,,,,,,0.7004,,,,,,,,,,,,,,,,,,,,,,610071da1faac9f7561d984f,610368e95259933529c75296,2021-07-29_21h51.14.929,Simcolourproject_2stim_asymm_v5,2020.2.10,MacIntel,60,61025ae37ef11b136ea224fe,,,,,,,,,3929,66.31561279,47.79025269,1,0,0,response1disk,,6,-5.558959961,15.72674561,1,0,0,rectangle,-5.558959961,15.72674561,1,0,0,-5.558959961,15.72674561,1,0,0,1,8,168,150,1,,,,,,,,
,,,,,,,,,,,,,FF,,,,,,,,4.0343,,,,,,,,,,,,,,,,,,,,,,610071da1faac9f7561d984f,610368e95259933529c75296,2021-07-29_21h51.14.929,Simcolourproject_2stim_asymm_v5,2020.2.10,MacIntel,60,61025ae37ef11b136ea224fe,,,,,,,,,4057,91.74047852,42.00836182,1,0,0,response1disk,,6,7.559082031,3.033447266,1,0,0,rectangle,7.559082031,3.033447266,1,0,0,7.559082031,3.033447266,1,0,0,1,9,169,72,1,,,,,,,,
,,,,,,,,,,,,,FF,,,,,,,,0.7669,,,,,,,,,,,,,,,,,,,,,,610071da1faac9f7561d984f,610368e95259933529c75296,2021-07-29_21h51.14.929,Simcolourproject_2stim_asymm_v5,2020.2.10,MacIntel,60,61025ae37ef11b136ea224fe,,,,,,,,,3174,86.96813965,43.38970947,1,0,0,response1disk,,6,15.13708496,10.3215332,1,0,0,rectangle,15.13708496,10.3215332,1,0,0,15.13708496,10.3215332,1,0,0,1,10,170,74,1,,,,,,,,
,,,,,,,,,,,,,FF,,,,,,,,0.8335,,,,,,,,,,,,,,,,,,,,,,610071da1faac9f7561d984f,610368e95259933529c75296,2021-07-29_21h51.14.929,Simcolourproject_2stim_asymm_v5,2020.2.10,MacIntel,60,61025ae37ef11b136ea224fe,,,,,,,,,327,35.75842285,80.69030762,1,0,0,response1disk,,7,27.89990234,13.10220337,1,0,0,rectangle,27.89990234,13.10220337,1,0,0,27.89990234,13.10220337,1,0,0,1,11,171,62,1,,,,,,,,
,,,,,,,,,,,,,FF,,,,,,,,1.1338,,,,,,,,,,,,,,,,,,,,,,610071da1faac9f7561d984f,610368e95259933529c75296,2021-07-29_21h51.14.929,Simcolourproject_2stim_asymm_v5,2020.2.10,MacIntel,60,61025ae37ef11b136ea224fe,,,,,,,,,363,42.04187012,66.34500122,1,0,0,response1disk,,7,30.08337402,10.18499756,1,0,0,rectangle,30.08337402,10.18499756,1,0,0,30.08337402,10.18499756,1,0,0,1,12,172,2,1,,,,,,,,
,,,,,,,,,,,,,FF,,,,,,,,1.7501,,,,,,,,,,,,,,,,,,,,,,610071da1faac9f7561d984f,610368e95259933529c75296,2021-07-29_21h51.14.929,Simcolourproject_2stim_asymm_v5,2020.2.10,MacIntel,60,61025ae37ef11b136ea224fe,,,,,,,,,1937,43.62866211,72.74813843,1,0,0,response1disk,,7,34.57232666,-0.160888672,1,0,0,rectangle,34.57232666,-0.160888672,1,0,0,34.57232666,-0.160888672,1,0,0,1,13,173,39,1,,,,,,,,
,,,,,,,,,,,,,FF,,,,,,,,0.9334,,,,,,,,,,,,,,,,,,,,,,610071da1faac9f7561d984f,610368e95259933529c75296,2021-07-29_21h51.14.929,Simcolourproject_2stim_asymm_v5,2020.2.10,MacIntel,60,61025ae37ef11b136ea224fe,,,,,,,,,4367,-72.8581543,-55.36880493,1,0,0,response5disk,,2,23.184021,1.673034668,1,0,0,rectangle,23.184021,1.673034668,1,0,0,23.184021,1.673034668,1,0,0,1,14,174,109,1,,,,,,,,
,,,,,,,,,,,,,FF,,,,,,,,2.3338,,,,,,,,,,,,,,,,,,,,,,610071da1faac9f7561d984f,610368e95259933529c75296,2021-07-29_21h51.14.929,Simcolourproject_2stim_asymm_v5,2020.2.10,MacIntel,60,61025ae37ef11b136ea224fe,,,,,,,,,1165,91.85870361,31.71643066,1,0,0,response1disk,,6,22.10406494,8.572753906,1,0,0,rectangle,22.10406494,8.572753906,1,0,0,22.10406494,8.572753906,1,0,0,1,15,175,73,1,,,,,,,,
,,,,,,,,,,,,,FF,,,,,,,,0.7842,,,,,,,,,,,,,,,,,,,,,,610071da1faac9f7561d984f,610368e95259933529c75296,2021-07-29_21h51.14.929,Simcolourproject_2stim_asymm_v5,2020.2.10,MacIntel,60,61025ae37ef11b136ea224fe,,,,,,,,,4004,81.53186035,56.03240967,1,0,0,response1disk,,6,18.00024414,15.66802979,1,0,0,rectangle,18.00024414,15.66802979,1,0,0,18.00024414,15.66802979,1,0,0,1,16,176,41,1,,,,,,,,
,,,,,,,,,,,,,FF,,,,,,,,1.3166,,,,,,,,,,,,,,,,,,,,,,610071da1faac9f7561d984f,610368e95259933529c75296,2021-07-29_21h51.14.929,Simcolourproject_2stim_asymm_v5,2020.2.10,MacIntel,60,61025ae37ef11b136ea224fe,,,,,,,,,34,31.54827881,57.79199219,1,0,0,response1disk,,7,21.56939697,8.8984375,1,0,0,rectangle,21.56939697,8.8984375,1,0,0,21.56939697,8.8984375,1,0,0,1,17,177,82,1,,,,,,,,
,,,,,,,,,,,,,FF,,,,,,,,0.8339,,,,,,,,,,,,,,,,,,,,,,610071da1faac9f7561d984f,610368e95259933529c75296,2021-07-29_21h51.14.929,Simcolourproject_2stim_asymm_v5,2020.2.10,MacIntel,60,61025ae37ef11b136ea224fe,,,,,,,,,192,74.30975342,-33.40429688,1,0,0,response3disk,,5,17.52758789,-1.123504639,1,0,0,rectangle,17.52758789,-1.123504639,1,0,0,17.52758789,-1.123504639,1,0,0,1,18,178,54,1,,,,,,,,
,,,,,,,,,,,,,FF,,,,,,,,0.616,,,,,,,,,,,,,,,,,,,,,,610071da1faac9f7561d984f,610368e95259933529c75296,2021-07-29_21h51.14.929,Simcolourproject_2stim_asymm_v5,2020.2.10,MacIntel,60,61025ae37ef11b136ea224fe,,,,,,,,,2159,55.18383789,100.8706665,1,0,0,response1disk,,7,24.46392822,13.0993042,1,0,0,rectangle,53.05352783,-95.13458252,1,0,0,-0.482299805,4.637145996,1,0,0,1,19,179,60,1,,response3disk_3,TRUE,4,4,"[197,120,17,245,281,291,4,286,290,72,5,212,70,33,256,180,269,188,57,293]",1.6329,rectangle
,,,,,,,,,,,,,FF,,,,,,,,1.0835,,,,,,,,,,,,,,,,,,,,,,610071da1faac9f7561d984f,610368e95259933529c75296,2021-07-29_21h51.14.929,Simcolourproject_2stim_asymm_v5,2020.2.10,MacIntel,60,61025ae37ef11b136ea224fe,,,,,,,,,2148,107.9708252,57.37487793,1,0,0,response1disk,,6,11.0881958,1.99609375,1,0,0,rectangle,11.0881958,1.99609375,1,0,0,11.0881958,1.99609375,1,0,0,1,20,180,64,1,,,,,,,,
,,,,,,,,,,,,,FF,,,,,,,,1.418,,,,,,,,,,,,,,,,,,,,,,610071da1faac9f7561d984f,610368e95259933529c75296,2021-07-29_21h51.14.929,Simcolourproject_2stim_asymm_v5,2020.2.10,MacIntel,60,61025ae37ef11b136ea224fe,,,,,,,,,3974,24.37542725,-79.71868896,1,0,0,response3disk,,4,-11.82928467,-0.235809326,1,0,0,rectangle,-11.82928467,-0.235809326,1,0,0,-11.82928467,-0.235809326,1,0,0,1,21,181,23,1,,,,,,,,
,,,,,,,,,,,,,FF,,,,,,,,3.1665,,,,,,,,,,,,,,,,,,,,,,610071da1faac9f7561d984f,610368e95259933529c75296,2021-07-29_21h51.14.929,Simcolourproject_2stim_asymm_v5,2020.2.10,MacIntel,60,61025ae37ef11b136ea224fe,,,,,,,,,310,101.8741455,55.16693115,1,0,0,response1disk,,6,-8.568237305,-6.033752441,1,0,0,rectangle,-8.568237305,-6.033752441,1,0,0,-8.568237305,-6.033752441,1,0,0,1,22,182,152,1,,,,,,,,
,,,,,,,,,,,,,FF,,,,,,,,1.4165,,,,,,,,,,,,,,,,,,,,,,610071da1faac9f7561d984f,610368e95259933529c75296,2021-07-29_21h51.14.929,Simcolourproject_2stim_asymm_v5,2020.2.10,MacIntel,60,61025ae37ef11b136ea224fe,,,,,,,,,4118,-100.2589111,49.01394653,1,0,0,response7disk,,1,-13.16082764,3.782104492,1,0,0,rectangle,-13.16082764,3.782104492,1,0,0,-13.16082764,3.782104492,1,0,0,1,23,183,115,1,,,,,,,,
,,,,,,,,,,,,,FF,,,,,,,,1.6495,,,,,,,,,,,,,,,,,,,,,,610071da1faac9f7561d984f,610368e95259933529c75296,2021-07-29_21h51.14.929,Simcolourproject_2stim_asymm_v5,2020.2.10,MacIntel,60,61025ae37ef11b136ea224fe,,,,,,,,,2213,39.43188477,68.1217041,1,0,0,response1disk,,7,-13.94110107,10.01489258,1,0,0,rectangle,-13.94110107,10.01489258,1,0,0,-13.94110107,10.01489258,1,0,0,1,24,184,147,1,,,,,,,,
,,,,,,,,,,,,,FF,,,,,,,,1.2166,,,,,,,,,,,,,,,,,,,,,,610071da1faac9f7561d984f,610368e95259933529c75296,2021-07-29_21h51.14.929,Simcolourproject_2stim_asymm_v5,2020.2.10,MacIntel,60,61025ae37ef11b136ea224fe,,,,,,,,,1624,76.6161499,54.95266724,1,0,0,response1disk,,6,13.93597412,-3.680541992,1,0,0,rectangle,13.93597412,-3.680541992,1,0,0,13.93597412,-3.680541992,1,0,0,1,25,185,86,1,,,,,,,,
,,,,,,,,,,,,,FF,,,,,,,,1.066,,,,,,,,,,,,,,,,,,,,,,610071da1faac9f7561d984f,610368e95259933529c75296,2021-07-29_21h51.14.929,Simcolourproject_2stim_asymm_v5,2020.2.10,MacIntel,60,61025ae37ef11b136ea224fe,,,,,,,,,1957,-44.62542725,-61.00915527,1,0,0,response5disk,,3,-4.001464844,-7.270812988,1,0,0,rectangle,-4.001464844,-7.270812988,1,0,0,-4.001464844,-7.270812988,1,0,0,1,26,186,30,1,,,,,,,,
,,,,,,,,,,,,,FF,,,,,,,,1.9993,,,,,,,,,,,,,,,,,,,,,,610071da1faac9f7561d984f,610368e95259933529c75296,2021-07-29_21h51.14.929,Simcolourproject_2stim_asymm_v5,2020.2.10,MacIntel,60,61025ae37ef11b136ea224fe,,,,,,,,,2250,100.3584595,45.79754639,1,0,0,response1disk,,6,-10.08544922,6.184509277,1,0,0,rectangle,48.02563477,116.1708984,1,0,0,25.92987061,-12.53430176,1,0,0,1,27,187,151,1,,response1disk_3,TRUE,7,7,"[197,120,17,245,281,291,4,286,290,72,5,212,70,33,256,180,269,188,57,293]",1.1333,rectangle
,,,,,,,,,,,,,FF,,,,,,,,1.8336,,,,,,,,,,,,,,,,,,,,,,610071da1faac9f7561d984f,610368e95259933529c75296,2021-07-29_21h51.14.929,Simcolourproject_2stim_asymm_v5,2020.2.10,MacIntel,60,61025ae37ef11b136ea224fe,,,,,,,,,3184,59.59802246,84.43988037,1,0,0,response1disk,,7,-7.809387207,-2.366821289,1,0,0,rectangle,-7.809387207,-2.366821289,1,0,0,-7.809387207,-2.366821289,1,0,0,1,28,188,69,1,,,,,,,,
,,,,,,,,,,,,,FF,,,,,,,,0.7829,,,,,,,,,,,,,,,,,,,,,,610071da1faac9f7561d984f,610368e95259933529c75296,2021-07-29_21h51.14.929,Simcolourproject_2stim_asymm_v5,2020.2.10,MacIntel,60,61025ae37ef11b136ea224fe,,,,,,,,,1026,62.07757568,-30.46191406,1,0,0,response3disk,,5,-20.04644775,-2.358825684,1,0,0,rectangle,-20.04644775,-2.358825684,1,0,0,-20.04644775,-2.358825684,1,0,0,1,29,189,15,1,,,,,,,,
,,,,,,,,,,,,,FF,,,,,,,,1.9997,,,,,,,,,,,,,,,,,,,,,,610071da1faac9f7561d984f,610368e95259933529c75296,2021-07-29_21h51.14.929,Simcolourproject_2stim_asymm_v5,2020.2.10,MacIntel,60,61025ae37ef11b136ea224fe,,,,,,,,,3601,71.08190918,84.29190063,1,0,0,response1disk,,7,6.606933594,-8.192810059,1,0,0,rectangle,6.606933594,-8.192810059,1,0,0,6.606933594,-8.192810059,1,0,0,1,30,190,61,1,,,,,,,,
,,,,,,,,,,,,,FF,,,,,,,,1.0996,,,,,,,,,,,,,,,,,,,,,,610071da1faac9f7561d984f,610368e95259933529c75296,2021-07-29_21h51.14.929,Simcolourproject_2stim_asymm_v5,2020.2.10,MacIntel,60,61025ae37ef11b136ea224fe,,,,,,,,,2340,114.4856567,43.87115479,1,0,0,response1disk,,6,-8.676330566,-7.719390869,1,0,0,rectangle,-8.676330566,-7.719390869,1,0,0,-8.676330566,-7.719390869,1,0,0,1,31,191,9,1,,,,,,,,
,,,,,,,,,,,,,FF,,,,,,,,1.5167,,,,,,,,,,,,,,,,,,,,,,610071da1faac9f7561d984f,610368e95259933529c75296,2021-07-29_21h51.14.929,Simcolourproject_2stim_asymm_v5,2020.2.10,MacIntel,60,61025ae37ef11b136ea224fe,,,,,,,,,3572,100.413147,43.62667847,1,0,0,response1disk,,6,24.76507568,-0.986083984,1,0,0,rectangle,24.76507568,-0.986083984,1,0,0,24.76507568,-0.986083984,1,0,0,1,32,192,67,1,,,,,,,,
,,,,,,,,,,,,,FF,,,,,,,,0.8666,,,,,,,,,,,,,,,,,,,,,,610071da1faac9f7561d984f,610368e95259933529c75296,2021-07-29_21h51.14.929,Simcolourproject_2stim_asymm_v5,2020.2.10,MacIntel,60,61025ae37ef11b136ea224fe,,,,,,,,,787,75.36407471,-43.22195435,1,0,0,response3disk,,5,-6.766296387,-9.734649658,1,0,0,rectangle,-6.766296387,-9.734649658,1,0,0,-6.766296387,-9.734649658,1,0,0,1,33,193,102,1,,,,,,,,
,,,,,,,,,,,,,FF,,,,,,,,1.5169,,,,,,,,,,,,,,,,,,,,,,610071da1faac9f7561d984f,610368e95259933529c75296,2021-07-29_21h51.14.929,Simcolourproject_2stim_asymm_v5,2020.2.10,MacIntel,60,61025ae37ef11b136ea224fe,,,,,,,,,973,-22.94042969,-98.36236572,1,0,0,response5disk,,3,19.45935059,-11.52688599,1,0,0,rectangle,19.45935059,-11.52688599,1,0,0,19.45935059,-11.52688599,1,0,0,1,34,194,58,1,,,,,,,,
,,,,,,,,,,,,,FF,,,,,,,,1.9499,,,,,,,,,,,,,,,,,,,,,,610071da1faac9f7561d984f,610368e95259933529c75296,2021-07-29_21h51.14.929,Simcolourproject_2stim_asymm_v5,2020.2.10,MacIntel,60,61025ae37ef11b136ea224fe,,,,,,,,,1316,92.17016602,36.83401489,1,0,0,response1disk,,6,33.87786865,4.55859375,1,0,0,rectangle,33.87786865,4.55859375,1,0,0,33.87786865,4.55859375,1,0,0,1,35,195,94,1,,,,,,,,
,,,,,,,,,,,,,FF,,,,,,,,0.9157,,,,,,,,,,,,,,,,,,,,,,610071da1faac9f7561d984f,610368e95259933529c75296,2021-07-29_21h51.14.929,Simcolourproject_2stim_asymm_v5,2020.2.10,MacIntel,60,61025ae37ef11b136ea224fe,,,,,,,,,2515,82.12219238,49.55673218,1,0,0,response1disk,,6,5.963684082,-0.763427734,1,0,0,rectangle,94.58422852,-44.57696533,1,0,0,12.46948242,-6.476165771,1,0,0,1,36,196,111,1,,response3disk_3,TRUE,5,5,"[197,120,17,245,281,291,4,286,290,72,5,212,70,33,256,180,269,188,57,293]",1.2335,rectangle
,,,,,,,,,,,,,FF,,,,,,,,3.3834,,,,,,,,,,,,,,,,,,,,,,610071da1faac9f7561d984f,610368e95259933529c75296,2021-07-29_21h51.14.929,Simcolourproject_2stim_asymm_v5,2020.2.10,MacIntel,60,61025ae37ef11b136ea224fe,,,,,,,,,4206,-23.17736816,-84.56225586,1,0,0,response5disk,,3,20.21234131,-10.5604248,1,0,0,rectangle,20.21234131,-10.5604248,1,0,0,20.21234131,-10.5604248,1,0,0,1,37,197,89,1,,,,,,,,
,,,,,,,,,,,,,FF,,,,,,,,2.5667,,,,,,,,,,,,,,,,,,,,,,610071da1faac9f7561d984f,610368e95259933529c75296,2021-07-29_21h51.14.929,Simcolourproject_2stim_asymm_v5,2020.2.10,MacIntel,60,61025ae37ef11b136ea224fe,,,,,,,,,2145,55.21929932,72.81201172,1,0,0,response1disk,,7,16.86901855,-12.2225647,1,0,0,rectangle,16.86901855,-12.2225647,1,0,0,16.86901855,-12.2225647,1,0,0,1,38,198,144,1,,,,,,,,
,,,,,,,,,,,,,FF,,,,,,,,1.9005,,,,,,,,,,,,,,,,,,,,,,610071da1faac9f7561d984f,610368e95259933529c75296,2021-07-29_21h51.14.929,Simcolourproject_2stim_asymm_v5,2020.2.10,MacIntel,60,61025ae37ef11b136ea224fe,,,,,,,,,4279,43.26513672,-95.53320313,1,0,0,response3disk,,4,-5.774780273,3.061737061,1,0,0,rectangle,-5.774780273,3.061737061,1,0,0,-5.774780273,3.061737061,1,0,0,1,39,199,88,1,,,,,,,,
,,,,,,,,,,,,,FF,,,,,,,,0.918,,,,,,,,,,,,,,,,,,,,,,610071da1faac9f7561d984f,610368e95259933529c75296,2021-07-29_21h51.14.929,Simcolourproject_2stim_asymm_v5,2020.2.10,MacIntel,60,61025ae37ef11b136ea224fe,,,,,,,,,3711,-51.53765869,-78.99188232,1,0,0,response5disk,,3,-6.956542969,-11.63690186,1,0,0,rectangle,-6.956542969,-11.63690186,1,0,0,-6.956542969,-11.63690186,1,0,0,1,40,200,118,1,,,,,,,,
,,,,,,,,,,,,,FF,,,,,,,,0.8009,,,,,,,,,,,,,,,,,,,,,,610071da1faac9f7561d984f,610368e95259933529c75296,2021-07-29_21h51.14.929,Simcolourproject_2stim_asymm_v5,2020.2.10,MacIntel,60,61025ae37ef11b136ea224fe,,,,,,,,,1167,48.26708984,67.32330322,1,0,0,response1disk,,7,1.547546387,8.275817871,1,0,0,rectangle,1.547546387,8.275817871,1,0,0,1.547546387,8.275817871,1,0,0,1,41,201,7,1,,,,,,,,
,,,,,,,,,,,,,FF,,,,,,,,0.7164,,,,,,,,,,,,,,,,,,,,,,610071da1faac9f7561d984f,610368e95259933529c75296,2021-07-29_21h51.14.929,Simcolourproject_2stim_asymm_v5,2020.2.10,MacIntel,60,61025ae37ef11b136ea224fe,,,,,,,,,1770,103.9229736,37.53121948,1,0,0,response1disk,,6,28.01043701,0.092712402,1,0,0,rectangle,28.01043701,0.092712402,1,0,0,28.01043701,0.092712402,1,0,0,1,42,202,28,1,,,,,,,,
,,,,,,,,,,,,,FF,,,,,,,,1.2331,,,,,,,,,,,,,,,,,,,,,,610071da1faac9f7561d984f,610368e95259933529c75296,2021-07-29_21h51.14.929,Simcolourproject_2stim_asymm_v5,2020.2.10,MacIntel,60,61025ae37ef11b136ea224fe,,,,,,,,,2665,102.3259888,-57.32870483,1,0,0,response3disk,,5,-11.99053955,11.5776062,1,0,0,rectangle,-11.99053955,11.5776062,1,0,0,-11.99053955,11.5776062,1,0,0,1,43,203,76,1,,,,,,,,
,,,,,,,,,,,,,FF,,,,,,,,1.4665,,,,,,,,,,,,,,,,,,,,,,610071da1faac9f7561d984f,610368e95259933529c75296,2021-07-29_21h51.14.929,Simcolourproject_2stim_asymm_v5,2020.2.10,MacIntel,60,61025ae37ef11b136ea224fe,,,,,,,,,2464,53.35296631,87.46539307,1,0,0,response1disk,,7,19.60229492,-0.871917725,1,0,0,rectangle,19.60229492,-0.871917725,1,0,0,19.60229492,-0.871917725,1,0,0,1,44,204,81,1,,,,,,,,
,,,,,,,,,,,,,FF,,,,,,,,1.4165,,,,,,,,,,,,,,,,,,,,,,610071da1faac9f7561d984f,610368e95259933529c75296,2021-07-29_21h51.14.929,Simcolourproject_2stim_asymm_v5,2020.2.10,MacIntel,60,61025ae37ef11b136ea224fe,,,,,,,,,4364,-65.80963135,-93.12976074,1,0,0,response5disk,,3,-5.180603027,0.421691895,1,0,0,rectangle,-5.180603027,0.421691895,1,0,0,-5.180603027,0.421691895,1,0,0,1,45,205,124,1,,,,,,,,
,,,,,,,,,,,,,FF,,,,,,,,1.2335,,,,,,,,,,,,,,,,,,,,,,610071da1faac9f7561d984f,610368e95259933529c75296,2021-07-29_21h51.14.929,Simcolourproject_2stim_asymm_v5,2020.2.10,MacIntel,60,61025ae37ef11b136ea224fe,,,,,,,,,2806,97.32470703,38.43078613,1,0,0,response1disk,,6,-9.60748291,-15.69995117,1,0,0,rectangle,-9.60748291,-15.69995117,1,0,0,-9.60748291,-15.69995117,1,0,0,1,46,206,121,1,,,,,,,,
,,,,,,,,,,,,,FF,,,,,,,,0.8663,,,,,,,,,,,,,,,,,,,,,,610071da1faac9f7561d984f,610368e95259933529c75296,2021-07-29_21h51.14.929,Simcolourproject_2stim_asymm_v5,2020.2.10,MacIntel,60,61025ae37ef11b136ea224fe,,,,,,,,,439,73.44659424,-32.51055908,1,0,0,response3disk,,5,1.178771973,6.748718262,1,0,0,rectangle,1.178771973,6.748718262,1,0,0,1.178771973,6.748718262,1,0,0,1,47,207,51,1,,,,,,,,
,,,,,,,,,,,,,FF,,,,,,,,0.8335,,,,,,,,,,,,,,,,,,,,,,610071da1faac9f7561d984f,610368e95259933529c75296,2021-07-29_21h51.14.929,Simcolourproject_2stim_asymm_v5,2020.2.10,MacIntel,60,61025ae37ef11b136ea224fe,,,,,,,,,2843,83.95306396,65.1741333,1,0,0,response1disk,,6,11.84130859,-5.388000488,1,0,0,rectangle,11.84130859,-5.388000488,1,0,0,11.84130859,-5.388000488,1,0,0,1,48,208,134,1,,,,,,,,
,,,,,,,,,,,,,FF,,,,,,,,1.2162,,,,,,,,,,,,,,,,,,,,,,610071da1faac9f7561d984f,610368e95259933529c75296,2021-07-29_21h51.14.929,Simcolourproject_2stim_asymm_v5,2020.2.10,MacIntel,60,61025ae37ef11b136ea224fe,,,,,,,,,3822,104.7333374,32.63409424,1,0,0,response1disk,,6,-1.770690918,5.218505859,1,0,0,rectangle,-1.770690918,5.218505859,1,0,0,-1.770690918,5.218505859,1,0,0,1,49,209,79,1,,,,,,,,
,,,,,,,,,,,,,FF,,,,,,,,0.833,,,,,,,,,,,,,,,,,,,,,,610071da1faac9f7561d984f,610368e95259933529c75296,2021-07-29_21h51.14.929,Simcolourproject_2stim_asymm_v5,2020.2.10,MacIntel,60,61025ae37ef11b136ea224fe,,,,,,,,,3831,49.69488525,29.14953613,1,0,0,response1disk,,6,23.53009033,3.723449707,1,0,0,rectangle,23.53009033,3.723449707,1,0,0,23.53009033,3.723449707,1,0,0,1,50,210,131,1,,,,,,,,
,,,,,,,,,,,,,FF,,,,,,,,0.9011,,,,,,,,,,,,,,,,,,,,,,610071da1faac9f7561d984f,610368e95259933529c75296,2021-07-29_21h51.14.929,Simcolourproject_2stim_asymm_v5,2020.2.10,MacIntel,60,61025ae37ef11b136ea224fe,,,,,,,,,177,44.79498291,93.22869873,1,0,0,response1disk,,7,-4.091918945,1.526977539,1,0,0,rectangle,-87.06811523,36.55847168,1,0,0,5.630859375,3.753173828,1,0,0,1,51,211,33,1,,response7disk_3,TRUE,1,1,"[197,120,17,245,281,291,4,286,290,72,5,212,70,33,256,180,269,188,57,293]",1.2504,rectangle
,,,,,,,,,,,,,FF,,,,,,,,1.1165,,,,,,,,,,,,,,,,,,,,,,610071da1faac9f7561d984f,610368e95259933529c75296,2021-07-29_21h51.14.929,Simcolourproject_2stim_asymm_v5,2020.2.10,MacIntel,60,61025ae37ef11b136ea224fe,,,,,,,,,1558,112.2141113,41.03442383,1,0,0,response1disk,,6,15.35626221,-8.909881592,1,0,0,rectangle,15.35626221,-8.909881592,1,0,0,15.35626221,-8.909881592,1,0,0,1,52,212,25,1,,,,,,,,
,,,,,,,,,,,,,FF,,,,,,,,1.7839,,,,,,,,,,,,,,,,,,,,,,610071da1faac9f7561d984f,610368e95259933529c75296,2021-07-29_21h51.14.929,Simcolourproject_2stim_asymm_v5,2020.2.10,MacIntel,60,61025ae37ef11b136ea224fe,,,,,,,,,799,106.8967896,29.19818115,1,0,0,response1disk,,6,5.047668457,-2.907348633,1,0,0,rectangle,5.047668457,-2.907348633,1,0,0,5.047668457,-2.907348633,1,0,0,1,53,213,80,1,,,,,,,,
,,,,,,,,,,,,,FF,,,,,,,,1.3502,,,,,,,,,,,,,,,,,,,,,,610071da1faac9f7561d984f,610368e95259933529c75296,2021-07-29_21h51.14.929,Simcolourproject_2stim_asymm_v5,2020.2.10,MacIntel,60,61025ae37ef11b136ea224fe,,,,,,,,,2993,-94.07556152,56.67926025,1,0,0,response7disk,,1,12.2923584,5.956054688,1,0,0,rectangle,12.2923584,5.956054688,1,0,0,12.2923584,5.956054688,1,0,0,1,54,214,112,1,,,,,,,,
,,,,,,,,,,,,,FF,,,,,,,,2.8511,,,,,,,,,,,,,,,,,,,,,,610071da1faac9f7561d984f,610368e95259933529c75296,2021-07-29_21h51.14.929,Simcolourproject_2stim_asymm_v5,2020.2.10,MacIntel,60,61025ae37ef11b136ea224fe,,,,,,,,,2785,49.13024902,-80.82415771,1,0,0,response3disk,,4,1.327819824,2.633056641,1,0,0,rectangle,1.327819824,2.633056641,1,0,0,1.327819824,2.633056641,1,0,0,1,55,215,53,1,,,,,,,,
,,,,,,,,,,,,,FF,,,,,,,,2.0508,,,,,,,,,,,,,,,,,,,,,,610071da1faac9f7561d984f,610368e95259933529c75296,2021-07-29_21h51.14.929,Simcolourproject_2stim_asymm_v5,2020.2.10,MacIntel,60,61025ae37ef11b136ea224fe,,,,,,,,,1533,101.1535645,27.15557861,1,0,0,response1disk,,6,20.28143311,-5.165222168,1,0,0,rectangle,20.28143311,-5.165222168,1,0,0,20.28143311,-5.165222168,1,0,0,1,56,216,42,1,,,,,,,,
,,,,,,,,,,,,,FF,,,,,,,,0.9006,,,,,,,,,,,,,,,,,,,,,,610071da1faac9f7561d984f,610368e95259933529c75296,2021-07-29_21h51.14.929,Simcolourproject_2stim_asymm_v5,2020.2.10,MacIntel,60,61025ae37ef11b136ea224fe,,,,,,,,,3503,102.8458252,-61.73754883,1,0,0,response3disk,,5,-22.75250244,-10.33895874,1,0,0,rectangle,-22.75250244,-10.33895874,1,0,0,-22.75250244,-10.33895874,1,0,0,1,57,217,46,1,,,,,,,,
,,,,,,,,,,,,,FF,,,,,,,,0.8003,,,,,,,,,,,,,,,,,,,,,,610071da1faac9f7561d984f,610368e95259933529c75296,2021-07-29_21h51.14.929,Simcolourproject_2stim_asymm_v5,2020.2.10,MacIntel,60,61025ae37ef11b136ea224fe,,,,,,,,,1279,35.33135986,60.43481445,1,0,0,response1disk,,7,-6.217956543,4.865264893,1,0,0,rectangle,-6.217956543,4.865264893,1,0,0,-6.217956543,4.865264893,1,0,0,1,58,218,98,1,,,,,,,,
,,,,,,,,,,,,,FF,,,,,,,,0.8667,,,,,,,,,,,,,,,,,,,,,,610071da1faac9f7561d984f,610368e95259933529c75296,2021-07-29_21h51.14.929,Simcolourproject_2stim_asymm_v5,2020.2.10,MacIntel,60,61025ae37ef11b136ea224fe,,,,,,,,,2315,81.50567627,42.18112183,1,0,0,response1disk,,6,-3.498352051,7.454833984,1,0,0,rectangle,-3.498352051,7.454833984,1,0,0,-3.498352051,7.454833984,1,0,0,1,59,219,132,1,,,,,,,,
,,,,,,,,,,,,,FF,,,,,,,,0.8998,,,,,,,,,,,,,,,,,,,,,,610071da1faac9f7561d984f,610368e95259933529c75296,2021-07-29_21h51.14.929,Simcolourproject_2stim_asymm_v5,2020.2.10,MacIntel,60,61025ae37ef11b136ea224fe,,,,,,,,,2053,95.85369873,42.11035156,1,0,0,response1disk,,6,8.43737793,-1.382629395,1,0,0,rectangle,8.43737793,-1.382629395,1,0,0,8.43737793,-1.382629395,1,0,0,1,60,220,141,1,,,,,,,,
,,,,,,,,,,,,,FF,,,,,,,,0.5336,,,,,,,,,,,,,,,,,,,,,,610071da1faac9f7561d984f,610368e95259933529c75296,2021-07-29_21h51.14.929,Simcolourproject_2stim_asymm_v5,2020.2.10,MacIntel,60,61025ae37ef11b136ea224fe,,,,,,,,,845,74.40692139,39.68664551,1,0,0,response1disk,,6,17.17926025,5.992431641,1,0,0,rectangle,17.17926025,5.992431641,1,0,0,17.17926025,5.992431641,1,0,0,1,61,221,91,1,,,,,,,,
,,,,,,,,,,,,,FF,,,,,,,,2.8006,,,,,,,,,,,,,,,,,,,,,,610071da1faac9f7561d984f,610368e95259933529c75296,2021-07-29_21h51.14.929,Simcolourproject_2stim_asymm_v5,2020.2.10,MacIntel,60,61025ae37ef11b136ea224fe,,,,,,,,,3997,33.42041016,70.47332764,1,0,0,response1disk,,7,12.72015381,9.464111328,1,0,0,rectangle,12.72015381,9.464111328,1,0,0,12.72015381,9.464111328,1,0,0,1,62,222,59,1,,,,,,,,
,,,,,,,,,,,,,FF,,,,,,,,1.552,,,,,,,,,,,,,,,,,,,,,,610071da1faac9f7561d984f,610368e95259933529c75296,2021-07-29_21h51.14.929,Simcolourproject_2stim_asymm_v5,2020.2.10,MacIntel,60,61025ae37ef11b136ea224fe,,,,,,,,,1655,47.49993896,80.85418701,1,0,0,response1disk,,7,-8.234069824,-3.419250488,1,0,0,rectangle,-8.234069824,-3.419250488,1,0,0,-8.234069824,-3.419250488,1,0,0,1,63,223,87,1,,,,,,,,
,,,,,,,,,,,,,FF,,,,,,,,1.1675,,,,,,,,,,,,,,,,,,,,,,610071da1faac9f7561d984f,610368e95259933529c75296,2021-07-29_21h51.14.929,Simcolourproject_2stim_asymm_v5,2020.2.10,MacIntel,60,61025ae37ef11b136ea224fe,,,,,,,,,21,71.7409668,45.43658447,1,0,0,response1disk,,6,-25.53405762,-1.754699707,1,0,0,rectangle,-25.53405762,-1.754699707,1,0,0,-25.53405762,-1.754699707,1,0,0,1,64,224,71,1,,,,,,,,
,,,,,,,,,,,,,FF,,,,,,,,1.5663,,,,,,,,,,,,,,,,,,,,,,610071da1faac9f7561d984f,610368e95259933529c75296,2021-07-29_21h51.14.929,Simcolourproject_2stim_asymm_v5,2020.2.10,MacIntel,60,61025ae37ef11b136ea224fe,,,,,,,,,93,-57.42230225,-79.34942627,1,0,0,response5disk,,3,6.877258301,11.44708252,1,0,0,rectangle,6.877258301,11.44708252,1,0,0,6.877258301,11.44708252,1,0,0,1,65,225,159,1,,,,,,,,
,,,,,,,,,,,,,FF,,,,,,,,0.8665,,,,,,,,,,,,,,,,,,,,,,610071da1faac9f7561d984f,610368e95259933529c75296,2021-07-29_21h51.14.929,Simcolourproject_2stim_asymm_v5,2020.2.10,MacIntel,60,61025ae37ef11b136ea224fe,,,,,,,,,2986,40.95751953,-79.56304932,1,0,0,response3disk,,4,-17.52728271,6.52545166,1,0,0,rectangle,-17.52728271,6.52545166,1,0,0,-17.52728271,6.52545166,1,0,0,1,66,226,110,1,,,,,,,,
,,,,,,,,,,,,,FF,,,,,,,,1.4503,,,,,,,,,,,,,,,,,,,,,,610071da1faac9f7561d984f,610368e95259933529c75296,2021-07-29_21h51.14.929,Simcolourproject_2stim_asymm_v5,2020.2.10,MacIntel,60,61025ae37ef11b136ea224fe,,,,,,,,,2008,55.73712158,93.18225098,1,0,0,response1disk,,7,-18.05041504,-12.25946045,1,0,0,rectangle,-18.05041504,-12.25946045,1,0,0,-18.05041504,-12.25946045,1,0,0,1,67,227,153,1,,,,,,,,
,,,,,,,,,,,,,FF,,,,,,,,1.133,,,,,,,,,,,,,,,,,,,,,,610071da1faac9f7561d984f,610368e95259933529c75296,2021-07-29_21h51.14.929,Simcolourproject_2stim_asymm_v5,2020.2.10,MacIntel,60,61025ae37ef11b136ea224fe,,,,,,,,,3199,94.42736816,-25.17498779,1,0,0,response3disk,,5,-28.54614258,6.661437988,1,0,0,rectangle,-28.54614258,6.661437988,1,0,0,-28.54614258,6.661437988,1,0,0,1,68,228,48,1,,,,,,,,
,,,,,,,,,,,,,FF,,,,,,,,1.0656,,,,,,,,,,,,,,,,,,,,,,610071da1faac9f7561d984f,610368e95259933529c75296,2021-07-29_21h51.14.929,Simcolourproject_2stim_asymm_v5,2020.2.10,MacIntel,60,61025ae37ef11b136ea224fe,,,,,,,,,165,43.9487915,-104.8394165,1,0,0,response3disk,,4,-19.27661133,-2.270507813,1,0,0,rectangle,-19.27661133,-2.270507813,1,0,0,-19.27661133,-2.270507813,1,0,0,1,69,229,92,1,,,,,,,,
,,,,,,,,,,,,,FF,,,,,,,,0.9338,,,,,,,,,,,,,,,,,,,,,,610071da1faac9f7561d984f,610368e95259933529c75296,2021-07-29_21h51.14.929,Simcolourproject_2stim_asymm_v5,2020.2.10,MacIntel,60,61025ae37ef11b136ea224fe,,,,,,,,,1777,25.82751465,58.67462158,1,0,0,response1disk,,7,-10.4151001,-0.963287354,1,0,0,rectangle,-10.4151001,-0.963287354,1,0,0,-10.4151001,-0.963287354,1,0,0,1,70,230,126,1,,,,,,,,
,,,,,,,,,,,,,FF,,,,,,,,1.2171,,,,,,,,,,,,,,,,,,,,,,610071da1faac9f7561d984f,610368e95259933529c75296,2021-07-29_21h51.14.929,Simcolourproject_2stim_asymm_v5,2020.2.10,MacIntel,60,61025ae37ef11b136ea224fe,,,,,,,,,885,-50.73822021,83.17294312,1,0,0,response7disk,,0,-14.50830078,7.977325439,1,0,0,rectangle,-14.50830078,7.977325439,1,0,0,-14.50830078,7.977325439,1,0,0,1,71,231,107,1,,,,,,,,
,,,,,,,,,,,,,FF,,,,,,,,1.4999,,,,,,,,,,,,,,,,,,,,,,610071da1faac9f7561d984f,610368e95259933529c75296,2021-07-29_21h51.14.929,Simcolourproject_2stim_asymm_v5,2020.2.10,MacIntel,60,61025ae37ef11b136ea224fe,,,,,,,,,3758,60.36340332,96.64065552,1,0,0,response1disk,,7,-15.58599854,4.066009521,1,0,0,rectangle,-15.58599854,4.066009521,1,0,0,-15.58599854,4.066009521,1,0,0,1,72,232,37,1,,,,,,,,
,,,,,,,,,,,,,FF,,,,,,,,0.9827,,,,,,,,,,,,,,,,,,,,,,610071da1faac9f7561d984f,610368e95259933529c75296,2021-07-29_21h51.14.929,Simcolourproject_2stim_asymm_v5,2020.2.10,MacIntel,60,61025ae37ef11b136ea224fe,,,,,,,,,3444,55.08331299,74.03189087,1,0,0,response1disk,,7,11.31646729,4.16986084,1,0,0,rectangle,11.31646729,4.16986084,1,0,0,11.31646729,4.16986084,1,0,0,1,73,233,119,1,,,,,,,,
,,,,,,,,,,,,,FF,,,,,,,,1.0167,,,,,,,,,,,,,,,,,,,,,,610071da1faac9f7561d984f,610368e95259933529c75296,2021-07-29_21h51.14.929,Simcolourproject_2stim_asymm_v5,2020.2.10,MacIntel,60,61025ae37ef11b136ea224fe,,,,,,,,,1619,48.32427979,84.35681152,1,0,0,response1disk,,7,22.12548828,10.94995117,1,0,0,rectangle,22.12548828,10.94995117,1,0,0,22.12548828,10.94995117,1,0,0,1,74,234,120,1,,,,,,,,
,,,,,,,,,,,,,FF,,,,,,,,1.4831,,,,,,,,,,,,,,,,,,,,,,610071da1faac9f7561d984f,610368e95259933529c75296,2021-07-29_21h51.14.929,Simcolourproject_2stim_asymm_v5,2020.2.10,MacIntel,60,61025ae37ef11b136ea224fe,,,,,,,,,2298,-30.47015381,-114.388855,1,0,0,response5disk,,3,-5.645568848,-5.152526855,1,0,0,rectangle,-5.645568848,-5.152526855,1,0,0,-5.645568848,-5.152526855,1,0,0,1,75,235,21,1,,,,,,,,
,,,,,,,,,,,,,FF,,,,,,,,2.6173,,,,,,,,,,,,,,,,,,,,,,610071da1faac9f7561d984f,610368e95259933529c75296,2021-07-29_21h51.14.929,Simcolourproject_2stim_asymm_v5,2020.2.10,MacIntel,60,61025ae37ef11b136ea224fe,,,,,,,,,2576,70.46557617,49.47088623,1,0,0,response1disk,,6,-6.903564453,3.362609863,1,0,0,rectangle,-6.903564453,3.362609863,1,0,0,-6.903564453,3.362609863,1,0,0,1,76,236,24,1,,,,,,,,
,,,,,,,,,,,,,FF,,,,,,,,0.8334,,,,,,,,,,,,,,,,,,,,,,610071da1faac9f7561d984f,610368e95259933529c75296,2021-07-29_21h51.14.929,Simcolourproject_2stim_asymm_v5,2020.2.10,MacIntel,60,61025ae37ef11b136ea224fe,,,,,,,,,3613,40.30578613,82.26040649,1,0,0,response1disk,,7,-19.15563965,4.742919922,1,0,0,rectangle,-19.15563965,4.742919922,1,0,0,-19.15563965,4.742919922,1,0,0,1,77,237,32,1,,,,,,,,
,,,,,,,,,,,,,FF,,,,,,,,0.6173,,,,,,,,,,,,,,,,,,,,,,610071da1faac9f7561d984f,610368e95259933529c75296,2021-07-29_21h51.14.929,Simcolourproject_2stim_asymm_v5,2020.2.10,MacIntel,60,61025ae37ef11b136ea224fe,,,,,,,,,2204,43.49182129,110.037384,1,0,0,response1disk,,7,-9.468017578,10.30722046,1,0,0,rectangle,-9.468017578,10.30722046,1,0,0,-9.468017578,10.30722046,1,0,0,1,78,238,5,1,,,,,,,,
,,,,,,,,,,,,,FF,,,,,,,,1.0837,,,,,,,,,,,,,,,,,,,,,,610071da1faac9f7561d984f,610368e95259933529c75296,2021-07-29_21h51.14.929,Simcolourproject_2stim_asymm_v5,2020.2.10,MacIntel,60,61025ae37ef11b136ea224fe,,,,,,,,,703,52.0380249,75.70114136,1,0,0,response1disk,,7,20.39019775,9.000854492,1,0,0,rectangle,20.39019775,9.000854492,1,0,0,20.39019775,9.000854492,1,0,0,1,79,239,35,1,,,,,,,,
,,,,,,,,,,,,,FF,,,,,,,,1.2166,,,,,,,,,,,,,,,,,,,,,,610071da1faac9f7561d984f,610368e95259933529c75296,2021-07-29_21h51.14.929,Simcolourproject_2stim_asymm_v5,2020.2.10,MacIntel,60,61025ae37ef11b136ea224fe,,,,,,,,,3107,84.11480713,-33.2869873,1,0,0,response3disk,,5,-29.09088135,-3.465881348,1,0,0,rectangle,-29.09088135,-3.465881348,1,0,0,-29.09088135,-3.465881348,1,0,0,1,80,240,99,1,,,,,,,,
,,,,,,,,,,,,,FF,,,,,,,,2.0672,,,,,,,,,,,,,,,,,,,,,,610071da1faac9f7561d984f,610368e95259933529c75296,2021-07-29_21h51.14.929,Simcolourproject_2stim_asymm_v5,2020.2.10,MacIntel,60,61025ae37ef11b136ea224fe,,,,,,,,,2101,-42.95758057,-79.65045166,1,0,0,response5disk,,3,-0.56451416,0.064819336,1,0,0,rectangle,-0.56451416,0.064819336,1,0,0,-0.56451416,0.064819336,1,0,0,1,81,241,100,1,,,,,,,,
,,,,,,,,,,,,,FF,,,,,,,,3.833,,,,,,,,,,,,,,,,,,,,,,610071da1faac9f7561d984f,610368e95259933529c75296,2021-07-29_21h51.14.929,Simcolourproject_2stim_asymm_v5,2020.2.10,MacIntel,60,61025ae37ef11b136ea224fe,,,,,,,,,1545,104.6442871,44.04260254,1,0,0,response1disk,,6,-0.474365234,-3.791931152,1,0,0,rectangle,-0.474365234,-3.791931152,1,0,0,-0.474365234,-3.791931152,1,0,0,1,82,242,38,1,,,,,,,,
