key_resp.keys,key_resp.rt,key_resp_14.keys,key_resp_14.rt,key_resp_15.keys,key_resp_15.rt,key_resp_17.keys,key_resp_17.rt,key_resp_9.keys,key_resp_9.rt,key_resp_10.keys,key_resp_10.rt,practice_comparison,Ecc,mouse_5.x,mouse_5.y,mouse_5.leftButton,mouse_5.midButton,mouse_5.rightButton,mouse_5.clicked_name,pracsimilarity,response_time,mouse_10.x,mouse_10.y,mouse_10.leftButton,mouse_10.midButton,mouse_10.rightButton,mouse_10.clicked_name,mouse_7.x,mouse_7.y,mouse_7.leftButton,mouse_7.midButton,mouse_7.rightButton,mouse_6.x,mouse_6.y,mouse_6.leftButton,mouse_6.midButton,mouse_6.rightButton,duringprac.thisRepN,duringprac.thisTrialN,duringprac.thisN,duringprac.thisIndex,duringprac.ran,participant,session,date,expName,psychopyVersion,OS,frameRate,study_id,mouse_7.clicked_name,catchpracsimilarity,catch_response_time,catchnumberprac,catchtrialorderprac,mouse_6.clicked_name,key_resp_22.keys,key_resp_22.rt,realcomparison,mouse.x,mouse.y,mouse.leftButton,mouse.midButton,mouse.rightButton,mouse.clicked_name,Colour2,similarity,mouse_2.x,mouse_2.y,mouse_2.leftButton,mouse_2.midButton,mouse_2.rightButton,mouse_2.clicked_name,mouse_3.x,mouse_3.y,mouse_3.leftButton,mouse_3.midButton,mouse_3.rightButton,mouse_11.x,mouse_11.y,mouse_11.leftButton,mouse_11.midButton,mouse_11.rightButton,trials_2.thisRepN,trials_2.thisTrialN,trials_2.thisN,trials_2.thisIndex,trials_2.ran,Colour1,mouse_3.clicked_name,catchornah,catchsimilarity,catchnumber,catchtrialorder,catchRT,mouse_11.clicked_name
space,0.813,space,1.4806,space,18.1796,space,14.6983,space,3.0756,space,4.7305,40,PF,-74.5625,-28.55859375,1,0,0,response5disk_5,2,14.8534,-1.3203125,-2.953125,1,0,0,rectangle_8,-1.3203125,-2.953125,1,0,0,-1.3203125,-2.953125,1,0,0,0,0,0,6,1,61004e071430aab85ba2ac18,61036e7ada011bc3983fb8be,2021-07-29_20h14.54.689,Simcolourproject_2stim_asymm_v5,2020.2.10,MacIntel,60,61025ae37ef11b136ea224fe,,,,,,,,,,,,,,,,,,,,,,,,,,,,,,,,,,,,,,,,,,,,,,
,,,,,,,,,,,,71,FF,35.72265625,84.24609375,1,0,0,response1disk_5,7,7.016,-0.203125,3.13671875,1,0,0,rectangle_8,97.97265625,40.06640625,1,0,0,14.55859375,-7.5234375,1,0,0,0,1,1,5,1,61004e071430aab85ba2ac18,61036e7ada011bc3983fb8be,2021-07-29_20h14.54.689,Simcolourproject_2stim_asymm_v5,2020.2.10,MacIntel,60,61025ae37ef11b136ea224fe,response1disk_7,6,2.0027,6,"[2,5]",rectangle_4,,,,,,,,,,,,,,,,,,,,,,,,,,,,,,,,,,,,,,,,
,,,,,,,,,,,,44,FF,-34.296875,-98.0078125,1,0,0,response5disk_5,3,2.5509,6.13671875,0.02734375,1,0,0,rectangle_8,6.13671875,0.02734375,1,0,0,6.13671875,0.02734375,1,0,0,0,2,2,3,1,61004e071430aab85ba2ac18,61036e7ada011bc3983fb8be,2021-07-29_20h14.54.689,Simcolourproject_2stim_asymm_v5,2020.2.10,MacIntel,60,61025ae37ef11b136ea224fe,,,,,,,,,,,,,,,,,,,,,,,,,,,,,,,,,,,,,,,,,,,,,,
,,,,,,,,,,,,132,PF,53.96875,101.296875,1,0,0,response1disk_5,7,3.4011,3.52734375,13.4609375,1,0,0,rectangle_8,3.52734375,13.4609375,1,0,0,3.52734375,13.4609375,1,0,0,0,3,3,1,1,61004e071430aab85ba2ac18,61036e7ada011bc3983fb8be,2021-07-29_20h14.54.689,Simcolourproject_2stim_asymm_v5,2020.2.10,MacIntel,60,61025ae37ef11b136ea224fe,,,,,,,,,,,,,,,,,,,,,,,,,,,,,,,,,,,,,,,,,,,,,,
,,,,,,,,,,,,4,PF,-53.3671875,41.8671875,1,0,0,response7disk_5,1,2.7991,-14.87109375,-1.95703125,1,0,0,rectangle_8,71.015625,20.3671875,1,0,0,-3.8359375,-1.8671875,1,0,0,0,4,4,2,1,61004e071430aab85ba2ac18,61036e7ada011bc3983fb8be,2021-07-29_20h14.54.689,Simcolourproject_2stim_asymm_v5,2020.2.10,MacIntel,60,61025ae37ef11b136ea224fe,response1disk_7,6,2.3529,6,"[2,5]",rectangle_4,,,,,,,,,,,,,,,,,,,,,,,,,,,,,,,,,,,,,,,,
,,,,,,,,,,,,56,PF,-84.09765625,30.14453125,1,0,0,response7disk_5,1,3.4867,-13.6640625,-3.55078125,1,0,0,rectangle_8,-13.6640625,-3.55078125,1,0,0,-13.6640625,-3.55078125,1,0,0,0,5,5,4,1,61004e071430aab85ba2ac18,61036e7ada011bc3983fb8be,2021-07-29_20h14.54.689,Simcolourproject_2stim_asymm_v5,2020.2.10,MacIntel,60,61025ae37ef11b136ea224fe,,,,,,,,,,,,,,,,,,,,,,,,,,,,,,,,,,,,,,,,,,,,,,
,,,,,,,,,,,,58,FF,50.91796875,65.44921875,1,0,0,response1disk_5,7,4.2525,16.23046875,-2.89453125,1,0,0,rectangle_8,16.23046875,-2.89453125,1,0,0,16.23046875,-2.89453125,1,0,0,0,6,6,0,1,61004e071430aab85ba2ac18,61036e7ada011bc3983fb8be,2021-07-29_20h14.54.689,Simcolourproject_2stim_asymm_v5,2020.2.10,MacIntel,60,61025ae37ef11b136ea224fe,,,,,,,,,,,,,,,,,,,,,,,,,,,,,,,,,,,,,,,,,,,,,,
,,,,,,,,,,,,,FF,,,,,,,,3.3833,,,,,,,,,,,,,,,,,,,,,,61004e071430aab85ba2ac18,61036e7ada011bc3983fb8be,2021-07-29_20h14.54.689,Simcolourproject_2stim_asymm_v5,2020.2.10,MacIntel,60,61025ae37ef11b136ea224fe,,,,,,,space,3.7483,102,-81.05078125,32.94140625,1,0,0,response7disk,,1,12.65625,-8.359375,1,0,0,rectangle,12.65625,-8.359375,1,0,0,12.65625,-8.359375,1,0,0,0,0,0,45,1,,,,,,,,
,,,,,,,,,,,,,FF,,,,,,,,3.117,,,,,,,,,,,,,,,,,,,,,,61004e071430aab85ba2ac18,61036e7ada011bc3983fb8be,2021-07-29_20h14.54.689,Simcolourproject_2stim_asymm_v5,2020.2.10,MacIntel,60,61025ae37ef11b136ea224fe,,,,,,,,,1988,54.08984375,79.24609375,1,0,0,response1disk,,7,8.58984375,-6.51953125,1,0,0,rectangle,54.46875,-88.15234375,1,0,0,11.2421875,-6.40625,1,0,0,0,1,1,80,1,,response3disk_3,TRUE,4,4,"[2,106,286,54,244,203,76,202,147,165,296,272,63,38,277,54,320,11,281,181]",1.5337,rectangle
,,,,,,,,,,,,,FF,,,,,,,,1.732,,,,,,,,,,,,,,,,,,,,,,61004e071430aab85ba2ac18,61036e7ada011bc3983fb8be,2021-07-29_20h14.54.689,Simcolourproject_2stim_asymm_v5,2020.2.10,MacIntel,60,61025ae37ef11b136ea224fe,,,,,,,,,1662,69.87109375,29.171875,1,0,0,response1disk,,6,22.18359375,-14.2421875,1,0,0,rectangle,22.18359375,-14.2421875,1,0,0,22.18359375,-14.2421875,1,0,0,0,2,2,3,1,,,,,,,,
,,,,,,,,,,,,,FF,,,,,,,,1.7668,,,,,,,,,,,,,,,,,,,,,,61004e071430aab85ba2ac18,61036e7ada011bc3983fb8be,2021-07-29_20h14.54.689,Simcolourproject_2stim_asymm_v5,2020.2.10,MacIntel,60,61025ae37ef11b136ea224fe,,,,,,,,,2814,47.10546875,101.796875,1,0,0,response1disk,,7,7.46875,16.09375,1,0,0,rectangle,7.46875,16.09375,1,0,0,7.46875,16.09375,1,0,0,0,3,3,66,1,,,,,,,,
,,,,,,,,,,,,,FF,,,,,,,,1.4828,,,,,,,,,,,,,,,,,,,,,,61004e071430aab85ba2ac18,61036e7ada011bc3983fb8be,2021-07-29_20h14.54.689,Simcolourproject_2stim_asymm_v5,2020.2.10,MacIntel,60,61025ae37ef11b136ea224fe,,,,,,,,,3661,-94.76171875,49.2421875,1,0,0,response7disk,,1,-1.75,0.98046875,1,0,0,rectangle,-1.75,0.98046875,1,0,0,-1.75,0.98046875,1,0,0,0,4,4,13,1,,,,,,,,
,,,,,,,,,,,,,FF,,,,,,,,2.5326,,,,,,,,,,,,,,,,,,,,,,61004e071430aab85ba2ac18,61036e7ada011bc3983fb8be,2021-07-29_20h14.54.689,Simcolourproject_2stim_asymm_v5,2020.2.10,MacIntel,60,61025ae37ef11b136ea224fe,,,,,,,,,2766,34.15625,91.83984375,1,0,0,response1disk,,7,9.5078125,2.71484375,1,0,0,rectangle,9.5078125,2.71484375,1,0,0,9.5078125,2.71484375,1,0,0,0,5,5,52,1,,,,,,,,
,,,,,,,,,,,,,FF,,,,,,,,0.7832,,,,,,,,,,,,,,,,,,,,,,61004e071430aab85ba2ac18,61036e7ada011bc3983fb8be,2021-07-29_20h14.54.689,Simcolourproject_2stim_asymm_v5,2020.2.10,MacIntel,60,61025ae37ef11b136ea224fe,,,,,,,,,3213,39.44140625,70.9140625,1,0,0,response1disk,,7,10.9296875,0.37109375,1,0,0,rectangle,10.9296875,0.37109375,1,0,0,10.9296875,0.37109375,1,0,0,0,6,6,71,1,,,,,,,,
,,,,,,,,,,,,,FF,,,,,,,,0.4657,,,,,,,,,,,,,,,,,,,,,,61004e071430aab85ba2ac18,61036e7ada011bc3983fb8be,2021-07-29_20h14.54.689,Simcolourproject_2stim_asymm_v5,2020.2.10,MacIntel,60,61025ae37ef11b136ea224fe,,,,,,,,,4210,50.1640625,53.421875,1,0,0,response1disk,,7,-1.9296875,-4.51171875,1,0,0,rectangle,-1.9296875,-4.51171875,1,0,0,-1.9296875,-4.51171875,1,0,0,0,7,7,6,1,,,,,,,,
,,,,,,,,,,,,,FF,,,,,,,,3.4662,,,,,,,,,,,,,,,,,,,,,,61004e071430aab85ba2ac18,61036e7ada011bc3983fb8be,2021-07-29_20h14.54.689,Simcolourproject_2stim_asymm_v5,2020.2.10,MacIntel,60,61025ae37ef11b136ea224fe,,,,,,,,,339,-58.2578125,-71.09375,1,0,0,response5disk,,3,24.76171875,-6.546875,1,0,0,rectangle,24.76171875,-6.546875,1,0,0,24.76171875,-6.546875,1,0,0,0,8,8,63,1,,,,,,,,
,,,,,,,,,,,,,FF,,,,,,,,2.4498,,,,,,,,,,,,,,,,,,,,,,61004e071430aab85ba2ac18,61036e7ada011bc3983fb8be,2021-07-29_20h14.54.689,Simcolourproject_2stim_asymm_v5,2020.2.10,MacIntel,60,61025ae37ef11b136ea224fe,,,,,,,,,2310,39.2890625,-84.83203125,1,0,0,response3disk,,4,6.94140625,-2.7109375,1,0,0,rectangle,6.94140625,-2.7109375,1,0,0,6.94140625,-2.7109375,1,0,0,0,9,9,40,1,,,,,,,,
,,,,,,,,,,,,,FF,,,,,,,,1.2829,,,,,,,,,,,,,,,,,,,,,,61004e071430aab85ba2ac18,61036e7ada011bc3983fb8be,2021-07-29_20h14.54.689,Simcolourproject_2stim_asymm_v5,2020.2.10,MacIntel,60,61025ae37ef11b136ea224fe,,,,,,,,,944,61.9921875,-43.421875,1,0,0,response3disk,,5,-0.296875,-0.6953125,1,0,0,rectangle,79.4453125,34.8203125,1,0,0,-0.97265625,-2.85546875,1,0,0,0,10,10,147,1,,response1disk_3,TRUE,6,6,"[2,106,286,54,244,203,76,202,147,165,296,272,63,38,277,54,320,11,281,181]",1.5356,rectangle
,,,,,,,,,,,,,FF,,,,,,,,3.0826,,,,,,,,,,,,,,,,,,,,,,61004e071430aab85ba2ac18,61036e7ada011bc3983fb8be,2021-07-29_20h14.54.689,Simcolourproject_2stim_asymm_v5,2020.2.10,MacIntel,60,61025ae37ef11b136ea224fe,,,,,,,,,3309,69.19140625,97.8203125,1,0,0,response1disk,,7,-4.16796875,0.32421875,1,0,0,rectangle,-4.16796875,0.32421875,1,0,0,-4.16796875,0.32421875,1,0,0,0,11,11,73,1,,,,,,,,
,,,,,,,,,,,,,FF,,,,,,,,0.5152,,,,,,,,,,,,,,,,,,,,,,61004e071430aab85ba2ac18,61036e7ada011bc3983fb8be,2021-07-29_20h14.54.689,Simcolourproject_2stim_asymm_v5,2020.2.10,MacIntel,60,61025ae37ef11b136ea224fe,,,,,,,,,3218,38.140625,69.83984375,1,0,0,response1disk,,7,3.3828125,0.84375,1,0,0,rectangle,3.3828125,0.84375,1,0,0,3.3828125,0.84375,1,0,0,0,12,12,133,1,,,,,,,,
,,,,,,,,,,,,,FF,,,,,,,,0.7847,,,,,,,,,,,,,,,,,,,,,,61004e071430aab85ba2ac18,61036e7ada011bc3983fb8be,2021-07-29_20h14.54.689,Simcolourproject_2stim_asymm_v5,2020.2.10,MacIntel,60,61025ae37ef11b136ea224fe,,,,,,,,,391,43.26953125,92.171875,1,0,0,response1disk,,7,7.19921875,8.32421875,1,0,0,rectangle,7.19921875,8.32421875,1,0,0,7.19921875,8.32421875,1,0,0,0,13,13,79,1,,,,,,,,
,,,,,,,,,,,,,FF,,,,,,,,0.4845,,,,,,,,,,,,,,,,,,,,,,61004e071430aab85ba2ac18,61036e7ada011bc3983fb8be,2021-07-29_20h14.54.689,Simcolourproject_2stim_asymm_v5,2020.2.10,MacIntel,60,61025ae37ef11b136ea224fe,,,,,,,,,3035,47.48046875,86.53515625,1,0,0,response1disk,,7,-0.1484375,4.32421875,1,0,0,rectangle,-0.1484375,4.32421875,1,0,0,-0.1484375,4.32421875,1,0,0,0,14,14,55,1,,,,,,,,
,,,,,,,,,,,,,FF,,,,,,,,1.1219,,,,,,,,,,,,,,,,,,,,,,61004e071430aab85ba2ac18,61036e7ada011bc3983fb8be,2021-07-29_20h14.54.689,Simcolourproject_2stim_asymm_v5,2020.2.10,MacIntel,60,61025ae37ef11b136ea224fe,,,,,,,,,3426,-86.796875,51.58203125,1,0,0,response7disk,,1,-18.08203125,-11.0859375,1,0,0,rectangle,-18.08203125,-11.0859375,1,0,0,-18.08203125,-11.0859375,1,0,0,0,15,15,136,1,,,,,,,,
,,,,,,,,,,,,,FF,,,,,,,,0.4996,,,,,,,,,,,,,,,,,,,,,,61004e071430aab85ba2ac18,61036e7ada011bc3983fb8be,2021-07-29_20h14.54.689,Simcolourproject_2stim_asymm_v5,2020.2.10,MacIntel,60,61025ae37ef11b136ea224fe,,,,,,,,,4291,62.09765625,90.71484375,1,0,0,response1disk,,7,20.51953125,12.52734375,1,0,0,rectangle,20.51953125,12.52734375,1,0,0,20.51953125,12.52734375,1,0,0,0,16,16,32,1,,,,,,,,
,,,,,,,,,,,,,FF,,,,,,,,0.5348,,,,,,,,,,,,,,,,,,,,,,61004e071430aab85ba2ac18,61036e7ada011bc3983fb8be,2021-07-29_20h14.54.689,Simcolourproject_2stim_asymm_v5,2020.2.10,MacIntel,60,61025ae37ef11b136ea224fe,,,,,,,,,1716,43.1484375,77.76171875,1,0,0,response1disk,,7,23.984375,-13.828125,1,0,0,rectangle,23.984375,-13.828125,1,0,0,23.984375,-13.828125,1,0,0,0,17,17,24,1,,,,,,,,
,,,,,,,,,,,,,FF,,,,,,,,0.4511,,,,,,,,,,,,,,,,,,,,,,61004e071430aab85ba2ac18,61036e7ada011bc3983fb8be,2021-07-29_20h14.54.689,Simcolourproject_2stim_asymm_v5,2020.2.10,MacIntel,60,61025ae37ef11b136ea224fe,,,,,,,,,395,60.953125,72.21875,1,0,0,response1disk,,7,12.5625,-3.6875,1,0,0,rectangle,12.5625,-3.6875,1,0,0,12.5625,-3.6875,1,0,0,0,18,18,97,1,,,,,,,,
,,,,,,,,,,,,,FF,,,,,,,,0.466,,,,,,,,,,,,,,,,,,,,,,61004e071430aab85ba2ac18,61036e7ada011bc3983fb8be,2021-07-29_20h14.54.689,Simcolourproject_2stim_asymm_v5,2020.2.10,MacIntel,60,61025ae37ef11b136ea224fe,,,,,,,,,2070,44.01953125,84.6015625,1,0,0,response1disk,,7,19.55078125,11.31640625,1,0,0,rectangle,19.55078125,11.31640625,1,0,0,19.55078125,11.31640625,1,0,0,0,19,19,157,1,,,,,,,,
,,,,,,,,,,,,,FF,,,,,,,,0.4331,,,,,,,,,,,,,,,,,,,,,,61004e071430aab85ba2ac18,61036e7ada011bc3983fb8be,2021-07-29_20h14.54.689,Simcolourproject_2stim_asymm_v5,2020.2.10,MacIntel,60,61025ae37ef11b136ea224fe,,,,,,,,,2460,38.10546875,101.984375,1,0,0,response1disk,,7,6.84375,13.0390625,1,0,0,rectangle,6.84375,13.0390625,1,0,0,6.84375,13.0390625,1,0,0,0,20,20,109,1,,,,,,,,
,,,,,,,,,,,,,FF,,,,,,,,0.399,,,,,,,,,,,,,,,,,,,,,,61004e071430aab85ba2ac18,61036e7ada011bc3983fb8be,2021-07-29_20h14.54.689,Simcolourproject_2stim_asymm_v5,2020.2.10,MacIntel,60,61025ae37ef11b136ea224fe,,,,,,,,,3885,39.62109375,85.19140625,1,0,0,response1disk,,7,19.6640625,16.828125,1,0,0,rectangle,19.6640625,16.828125,1,0,0,19.6640625,16.828125,1,0,0,0,21,21,56,1,,,,,,,,
,,,,,,,,,,,,,FF,,,,,,,,0.3669,,,,,,,,,,,,,,,,,,,,,,61004e071430aab85ba2ac18,61036e7ada011bc3983fb8be,2021-07-29_20h14.54.689,Simcolourproject_2stim_asymm_v5,2020.2.10,MacIntel,60,61025ae37ef11b136ea224fe,,,,,,,,,4134,41.8515625,80.109375,1,0,0,response1disk,,7,10.66796875,6.38671875,1,0,0,rectangle,10.66796875,6.38671875,1,0,0,10.66796875,6.38671875,1,0,0,0,22,22,108,1,,,,,,,,
,,,,,,,,,,,,,FF,,,,,,,,0.3828,,,,,,,,,,,,,,,,,,,,,,61004e071430aab85ba2ac18,61036e7ada011bc3983fb8be,2021-07-29_20h14.54.689,Simcolourproject_2stim_asymm_v5,2020.2.10,MacIntel,60,61025ae37ef11b136ea224fe,,,,,,,,,2966,39.3984375,57.34765625,1,0,0,response1disk,,7,4.5390625,1.31640625,1,0,0,rectangle,4.5390625,1.31640625,1,0,0,4.5390625,1.31640625,1,0,0,0,23,23,10,1,,,,,,,,
,,,,,,,,,,,,,FF,,,,,,,,0.3833,,,,,,,,,,,,,,,,,,,,,,61004e071430aab85ba2ac18,61036e7ada011bc3983fb8be,2021-07-29_20h14.54.689,Simcolourproject_2stim_asymm_v5,2020.2.10,MacIntel,60,61025ae37ef11b136ea224fe,,,,,,,,,4152,49.1171875,67.6015625,1,0,0,response1disk,,7,9.9453125,14.69140625,1,0,0,rectangle,9.9453125,14.69140625,1,0,0,9.9453125,14.69140625,1,0,0,0,24,24,31,1,,,,,,,,
,,,,,,,,,,,,,FF,,,,,,,,0.3328,,,,,,,,,,,,,,,,,,,,,,61004e071430aab85ba2ac18,61036e7ada011bc3983fb8be,2021-07-29_20h14.54.689,Simcolourproject_2stim_asymm_v5,2020.2.10,MacIntel,60,61025ae37ef11b136ea224fe,,,,,,,,,3892,53.16015625,99.97265625,1,0,0,response1disk,,7,10.46484375,10.75390625,1,0,0,rectangle,10.46484375,10.75390625,1,0,0,10.46484375,10.75390625,1,0,0,0,25,25,148,1,,,,,,,,
,,,,,,,,,,,,,FF,,,,,,,,0.3829,,,,,,,,,,,,,,,,,,,,,,61004e071430aab85ba2ac18,61036e7ada011bc3983fb8be,2021-07-29_20h14.54.689,Simcolourproject_2stim_asymm_v5,2020.2.10,MacIntel,60,61025ae37ef11b136ea224fe,,,,,,,,,2971,46.2421875,76.91015625,1,0,0,response1disk,,7,-4.23828125,6.3203125,1,0,0,rectangle,-4.23828125,6.3203125,1,0,0,-4.23828125,6.3203125,1,0,0,0,26,26,150,1,,,,,,,,
,,,,,,,,,,,,,FF,,,,,,,,1.0335,,,,,,,,,,,,,,,,,,,,,,61004e071430aab85ba2ac18,61036e7ada011bc3983fb8be,2021-07-29_20h14.54.689,Simcolourproject_2stim_asymm_v5,2020.2.10,MacIntel,60,61025ae37ef11b136ea224fe,,,,,,,,,3964,30.8046875,67.87890625,1,0,0,response1disk,,7,5.70703125,7.52734375,1,0,0,rectangle,5.70703125,7.52734375,1,0,0,5.70703125,7.52734375,1,0,0,0,27,27,153,1,,,,,,,,
,,,,,,,,,,,,,FF,,,,,,,,2.556,,,,,,,,,,,,,,,,,,,,,,61004e071430aab85ba2ac18,61036e7ada011bc3983fb8be,2021-07-29_20h14.54.689,Simcolourproject_2stim_asymm_v5,2020.2.10,MacIntel,60,61025ae37ef11b136ea224fe,,,,,,,,,3757,-88.734375,-54.25,1,0,0,response5disk,,2,-17.921875,-12.04296875,1,0,0,rectangle,-17.921875,-12.04296875,1,0,0,-17.921875,-12.04296875,1,0,0,0,28,28,120,1,,,,,,,,
,,,,,,,,,,,,,FF,,,,,,,,2.0336,,,,,,,,,,,,,,,,,,,,,,61004e071430aab85ba2ac18,61036e7ada011bc3983fb8be,2021-07-29_20h14.54.689,Simcolourproject_2stim_asymm_v5,2020.2.10,MacIntel,60,61025ae37ef11b136ea224fe,,,,,,,,,640,71.97265625,54.3515625,1,0,0,response1disk,,6,7.24609375,-7.19921875,1,0,0,rectangle,7.24609375,-7.19921875,1,0,0,7.24609375,-7.19921875,1,0,0,0,29,29,105,1,,,,,,,,
,,,,,,,,,,,,,FF,,,,,,,,0.7682,,,,,,,,,,,,,,,,,,,,,,61004e071430aab85ba2ac18,61036e7ada011bc3983fb8be,2021-07-29_20h14.54.689,Simcolourproject_2stim_asymm_v5,2020.2.10,MacIntel,60,61025ae37ef11b136ea224fe,,,,,,,,,1402,50.34765625,93.60546875,1,0,0,response1disk,,7,27.8828125,11.83984375,1,0,0,rectangle,27.8828125,11.83984375,1,0,0,27.8828125,11.83984375,1,0,0,0,30,30,141,1,,,,,,,,
,,,,,,,,,,,,,FF,,,,,,,,0.3113,,,,,,,,,,,,,,,,,,,,,,61004e071430aab85ba2ac18,61036e7ada011bc3983fb8be,2021-07-29_20h14.54.689,Simcolourproject_2stim_asymm_v5,2020.2.10,MacIntel,60,61025ae37ef11b136ea224fe,,,,,,,,,1367,58.99609375,81.39453125,1,0,0,response1disk,,7,4.41796875,8.796875,1,0,0,rectangle,4.41796875,8.796875,1,0,0,4.41796875,8.796875,1,0,0,0,31,31,8,1,,,,,,,,
,,,,,,,,,,,,,FF,,,,,,,,0.3584,,,,,,,,,,,,,,,,,,,,,,61004e071430aab85ba2ac18,61036e7ada011bc3983fb8be,2021-07-29_20h14.54.689,Simcolourproject_2stim_asymm_v5,2020.2.10,MacIntel,60,61025ae37ef11b136ea224fe,,,,,,,,,2216,43.1484375,77.35546875,1,0,0,response1disk,,7,4.1953125,-4.9296875,1,0,0,rectangle,4.1953125,-4.9296875,1,0,0,4.1953125,-4.9296875,1,0,0,0,32,32,119,1,,,,,,,,
,,,,,,,,,,,,,FF,,,,,,,,0.3496,,,,,,,,,,,,,,,,,,,,,,61004e071430aab85ba2ac18,61036e7ada011bc3983fb8be,2021-07-29_20h14.54.689,Simcolourproject_2stim_asymm_v5,2020.2.10,MacIntel,60,61025ae37ef11b136ea224fe,,,,,,,,,2528,36.40234375,65.59765625,1,0,0,response1disk,,7,13.76171875,5.66015625,1,0,0,rectangle,13.76171875,5.66015625,1,0,0,13.76171875,5.66015625,1,0,0,0,33,33,57,1,,,,,,,,
,,,,,,,,,,,,,FF,,,,,,,,6.4847,,,,,,,,,,,,,,,,,,,,,,61004e071430aab85ba2ac18,61036e7ada011bc3983fb8be,2021-07-29_20h14.54.689,Simcolourproject_2stim_asymm_v5,2020.2.10,MacIntel,60,61025ae37ef11b136ea224fe,,,,,,,,,104,41.9609375,83.94921875,1,0,0,response1disk,,7,18.6953125,-4.9140625,1,0,0,rectangle,18.6953125,-4.9140625,1,0,0,18.6953125,-4.9140625,1,0,0,0,34,34,70,1,,,,,,,,
,,,,,,,,,,,,,FF,,,,,,,,1.9337,,,,,,,,,,,,,,,,,,,,,,61004e071430aab85ba2ac18,61036e7ada011bc3983fb8be,2021-07-29_20h14.54.689,Simcolourproject_2stim_asymm_v5,2020.2.10,MacIntel,60,61025ae37ef11b136ea224fe,,,,,,,,,1987,34.3828125,72.26953125,1,0,0,response1disk,,7,6.0703125,0.44921875,1,0,0,rectangle,6.0703125,0.44921875,1,0,0,6.0703125,0.44921875,1,0,0,0,35,35,114,1,,,,,,,,
,,,,,,,,,,,,,FF,,,,,,,,1.5187,,,,,,,,,,,,,,,,,,,,,,61004e071430aab85ba2ac18,61036e7ada011bc3983fb8be,2021-07-29_20h14.54.689,Simcolourproject_2stim_asymm_v5,2020.2.10,MacIntel,60,61025ae37ef11b136ea224fe,,,,,,,,,101,-75.55859375,41.3046875,1,0,0,response7disk,,1,6.8671875,-4.47265625,1,0,0,rectangle,6.8671875,-4.47265625,1,0,0,6.8671875,-4.47265625,1,0,0,0,36,36,43,1,,,,,,,,
,,,,,,,,,,,,,FF,,,,,,,,1.3822,,,,,,,,,,,,,,,,,,,,,,61004e071430aab85ba2ac18,61036e7ada011bc3983fb8be,2021-07-29_20h14.54.689,Simcolourproject_2stim_asymm_v5,2020.2.10,MacIntel,60,61025ae37ef11b136ea224fe,,,,,,,,,1623,29.16796875,67.2734375,1,0,0,response1disk,,7,2.6171875,-9.5859375,1,0,0,rectangle,-52.828125,67.10546875,1,0,0,-13.53515625,-0.9609375,1,0,0,0,37,37,112,1,,response7disk_3,TRUE,0,0,"[2,106,286,54,244,203,76,202,147,165,296,272,63,38,277,54,320,11,281,181]",1.5659,rectangle
,,,,,,,,,,,,,FF,,,,,,,,0.7157,,,,,,,,,,,,,,,,,,,,,,61004e071430aab85ba2ac18,61036e7ada011bc3983fb8be,2021-07-29_20h14.54.689,Simcolourproject_2stim_asymm_v5,2020.2.10,MacIntel,60,61025ae37ef11b136ea224fe,,,,,,,,,832,50.9375,93.8046875,1,0,0,response1disk,,7,12.23828125,7.625,1,0,0,rectangle,12.23828125,7.625,1,0,0,12.23828125,7.625,1,0,0,0,38,38,92,1,,,,,,,,
,,,,,,,,,,,,,FF,,,,,,,,0.4675,,,,,,,,,,,,,,,,,,,,,,61004e071430aab85ba2ac18,61036e7ada011bc3983fb8be,2021-07-29_20h14.54.689,Simcolourproject_2stim_asymm_v5,2020.2.10,MacIntel,60,61025ae37ef11b136ea224fe,,,,,,,,,792,44.98828125,66.375,1,0,0,response1disk,,7,22.63671875,6.390625,1,0,0,rectangle,22.63671875,6.390625,1,0,0,22.63671875,6.390625,1,0,0,0,39,39,144,1,,,,,,,,
,,,,,,,,,,,,,FF,,,,,,,,0.4332,,,,,,,,,,,,,,,,,,,,,,61004e071430aab85ba2ac18,61036e7ada011bc3983fb8be,2021-07-29_20h14.54.689,Simcolourproject_2stim_asymm_v5,2020.2.10,MacIntel,60,61025ae37ef11b136ea224fe,,,,,,,,,1304,58.796875,94.39453125,1,0,0,response1disk,,7,30.89453125,12.82421875,1,0,0,rectangle,30.89453125,12.82421875,1,0,0,30.89453125,12.82421875,1,0,0,0,40,40,154,1,,,,,,,,
,,,,,,,,,,,,,FF,,,,,,,,1.3835,,,,,,,,,,,,,,,,,,,,,,61004e071430aab85ba2ac18,61036e7ada011bc3983fb8be,2021-07-29_20h14.54.689,Simcolourproject_2stim_asymm_v5,2020.2.10,MacIntel,60,61025ae37ef11b136ea224fe,,,,,,,,,3910,-76.9140625,31.83203125,1,0,0,response7disk,,1,12.3671875,2.40625,1,0,0,rectangle,12.3671875,2.40625,1,0,0,12.3671875,2.40625,1,0,0,0,41,41,137,1,,,,,,,,
,,,,,,,,,,,,,FF,,,,,,,,0.5002,,,,,,,,,,,,,,,,,,,,,,61004e071430aab85ba2ac18,61036e7ada011bc3983fb8be,2021-07-29_20h14.54.689,Simcolourproject_2stim_asymm_v5,2020.2.10,MacIntel,60,61025ae37ef11b136ea224fe,,,,,,,,,3145,47.86328125,69.21484375,1,0,0,response1disk,,7,22.734375,0.73046875,1,0,0,rectangle,22.734375,0.73046875,1,0,0,22.734375,0.73046875,1,0,0,0,42,42,35,1,,,,,,,,
,,,,,,,,,,,,,FF,,,,,,,,0.4486,,,,,,,,,,,,,,,,,,,,,,61004e071430aab85ba2ac18,61036e7ada011bc3983fb8be,2021-07-29_20h14.54.689,Simcolourproject_2stim_asymm_v5,2020.2.10,MacIntel,60,61025ae37ef11b136ea224fe,,,,,,,,,3659,42.19140625,97.7578125,1,0,0,response1disk,,7,9.40625,8.0078125,1,0,0,rectangle,9.40625,8.0078125,1,0,0,9.40625,8.0078125,1,0,0,0,43,43,87,1,,,,,,,,
,,,,,,,,,,,,,FF,,,,,,,,1.4652,,,,,,,,,,,,,,,,,,,,,,61004e071430aab85ba2ac18,61036e7ada011bc3983fb8be,2021-07-29_20h14.54.689,Simcolourproject_2stim_asymm_v5,2020.2.10,MacIntel,60,61025ae37ef11b136ea224fe,,,,,,,,,3852,82.95703125,48.3671875,1,0,0,response1disk,,6,17.41796875,-4.390625,1,0,0,rectangle,17.41796875,-4.390625,1,0,0,17.41796875,-4.390625,1,0,0,0,44,44,50,1,,,,,,,,
,,,,,,,,,,,,,FF,,,,,,,,0.3668,,,,,,,,,,,,,,,,,,,,,,61004e071430aab85ba2ac18,61036e7ada011bc3983fb8be,2021-07-29_20h14.54.689,Simcolourproject_2stim_asymm_v5,2020.2.10,MacIntel,60,61025ae37ef11b136ea224fe,,,,,,,,,1932,47.0625,74.9609375,1,0,0,response1disk,,7,8.703125,7.18359375,1,0,0,rectangle,8.703125,7.18359375,1,0,0,8.703125,7.18359375,1,0,0,0,45,45,49,1,,,,,,,,
,,,,,,,,,,,,,FF,,,,,,,,3.5992,,,,,,,,,,,,,,,,,,,,,,61004e071430aab85ba2ac18,61036e7ada011bc3983fb8be,2021-07-29_20h14.54.689,Simcolourproject_2stim_asymm_v5,2020.2.10,MacIntel,60,61025ae37ef11b136ea224fe,,,,,,,,,1384,-78.54296875,27.9140625,1,0,0,response7disk,,1,-15.3359375,17.546875,1,0,0,rectangle,-15.3359375,17.546875,1,0,0,-15.3359375,17.546875,1,0,0,0,46,46,151,1,,,,,,,,
,,,,,,,,,,,,,FF,,,,,,,,1.6004,,,,,,,,,,,,,,,,,,,,,,61004e071430aab85ba2ac18,61036e7ada011bc3983fb8be,2021-07-29_20h14.54.689,Simcolourproject_2stim_asymm_v5,2020.2.10,MacIntel,60,61025ae37ef11b136ea224fe,,,,,,,,,3160,57.0625,-61.31640625,1,0,0,response3disk,,4,8.36328125,11.0546875,1,0,0,rectangle,8.36328125,11.0546875,1,0,0,8.36328125,11.0546875,1,0,0,0,47,47,116,1,,,,,,,,
,,,,,,,,,,,,,FF,,,,,,,,0.4162,,,,,,,,,,,,,,,,,,,,,,61004e071430aab85ba2ac18,61036e7ada011bc3983fb8be,2021-07-29_20h14.54.689,Simcolourproject_2stim_asymm_v5,2020.2.10,MacIntel,60,61025ae37ef11b136ea224fe,,,,,,,,,648,40.49609375,76.51953125,1,0,0,response1disk,,7,13.04296875,3.59765625,1,0,0,rectangle,13.04296875,3.59765625,1,0,0,13.04296875,3.59765625,1,0,0,0,48,48,152,1,,,,,,,,
,,,,,,,,,,,,,FF,,,,,,,,1.8496,,,,,,,,,,,,,,,,,,,,,,61004e071430aab85ba2ac18,61036e7ada011bc3983fb8be,2021-07-29_20h14.54.689,Simcolourproject_2stim_asymm_v5,2020.2.10,MacIntel,60,61025ae37ef11b136ea224fe,,,,,,,,,3138,-41.546875,-99.8671875,1,0,0,response5disk,,3,1.40234375,-16.515625,1,0,0,rectangle,1.40234375,-16.515625,1,0,0,1.40234375,-16.515625,1,0,0,0,49,49,22,1,,,,,,,,
,,,,,,,,,,,,,FF,,,,,,,,0.9346,,,,,,,,,,,,,,,,,,,,,,61004e071430aab85ba2ac18,61036e7ada011bc3983fb8be,2021-07-29_20h14.54.689,Simcolourproject_2stim_asymm_v5,2020.2.10,MacIntel,60,61025ae37ef11b136ea224fe,,,,,,,,,3299,26.734375,89.6328125,1,0,0,response1disk,,7,4.6796875,-9.80078125,1,0,0,rectangle,4.6796875,-9.80078125,1,0,0,4.6796875,-9.80078125,1,0,0,0,50,50,77,1,,,,,,,,
,,,,,,,,,,,,,FF,,,,,,,,0.5167,,,,,,,,,,,,,,,,,,,,,,61004e071430aab85ba2ac18,61036e7ada011bc3983fb8be,2021-07-29_20h14.54.689,Simcolourproject_2stim_asymm_v5,2020.2.10,MacIntel,60,61025ae37ef11b136ea224fe,,,,,,,,,2149,37.62109375,76.83203125,1,0,0,response1disk,,7,16.046875,14.375,1,0,0,rectangle,16.046875,14.375,1,0,0,16.046875,14.375,1,0,0,0,51,51,58,1,,,,,,,,
,,,,,,,,,,,,,FF,,,,,,,,2.5497,,,,,,,,,,,,,,,,,,,,,,61004e071430aab85ba2ac18,61036e7ada011bc3983fb8be,2021-07-29_20h14.54.689,Simcolourproject_2stim_asymm_v5,2020.2.10,MacIntel,60,61025ae37ef11b136ea224fe,,,,,,,,,3724,43.15625,89.7578125,1,0,0,response1disk,,7,3.95703125,-4.07421875,1,0,0,rectangle,3.95703125,-4.07421875,1,0,0,3.95703125,-4.07421875,1,0,0,0,52,52,19,1,,,,,,,,
,,,,,,,,,,,,,FF,,,,,,,,0.551,,,,,,,,,,,,,,,,,,,,,,61004e071430aab85ba2ac18,61036e7ada011bc3983fb8be,2021-07-29_20h14.54.689,Simcolourproject_2stim_asymm_v5,2020.2.10,MacIntel,60,61025ae37ef11b136ea224fe,,,,,,,,,3032,31.26171875,84.91015625,1,0,0,response1disk,,7,10.76953125,1.18359375,1,0,0,rectangle,-38.5,-72.08203125,1,0,0,-23.25390625,-11.5390625,1,0,0,0,53,53,142,1,,response5disk_3,TRUE,3,3,"[2,106,286,54,244,203,76,202,147,165,296,272,63,38,277,54,320,11,281,181]",1.7513,rectangle
,,,,,,,,,,,,,FF,,,,,,,,2.5898,,,,,,,,,,,,,,,,,,,,,,61004e071430aab85ba2ac18,61036e7ada011bc3983fb8be,2021-07-29_20h14.54.689,Simcolourproject_2stim_asymm_v5,2020.2.10,MacIntel,60,61025ae37ef11b136ea224fe,,,,,,,,,2685,37.5234375,85.11328125,1,0,0,response1disk,,7,2.53125,2.78125,1,0,0,rectangle,2.53125,2.78125,1,0,0,2.53125,2.78125,1,0,0,0,54,54,115,1,,,,,,,,
,,,,,,,,,,,,,FF,,,,,,,,1.0524,,,,,,,,,,,,,,,,,,,,,,61004e071430aab85ba2ac18,61036e7ada011bc3983fb8be,2021-07-29_20h14.54.689,Simcolourproject_2stim_asymm_v5,2020.2.10,MacIntel,60,61025ae37ef11b136ea224fe,,,,,,,,,1140,39.65625,65.76171875,1,0,0,response1disk,,7,17.26171875,-8.64453125,1,0,0,rectangle,17.26171875,-8.64453125,1,0,0,17.26171875,-8.64453125,1,0,0,0,55,55,11,1,,,,,,,,
,,,,,,,,,,,,,FF,,,,,,,,1.8876,,,,,,,,,,,,,,,,,,,,,,61004e071430aab85ba2ac18,61036e7ada011bc3983fb8be,2021-07-29_20h14.54.689,Simcolourproject_2stim_asymm_v5,2020.2.10,MacIntel,60,61025ae37ef11b136ea224fe,,,,,,,,,3918,28.22265625,-59.359375,1,0,0,response3disk,,4,-7.015625,4.56640625,1,0,0,rectangle,-7.015625,4.56640625,1,0,0,-7.015625,4.56640625,1,0,0,0,56,56,28,1,,,,,,,,
,,,,,,,,,,,,,FF,,,,,,,,0.8182,,,,,,,,,,,,,,,,,,,,,,61004e071430aab85ba2ac18,61036e7ada011bc3983fb8be,2021-07-29_20h14.54.689,Simcolourproject_2stim_asymm_v5,2020.2.10,MacIntel,60,61025ae37ef11b136ea224fe,,,,,,,,,444,-66.38671875,45.8125,1,0,0,response7disk,,1,-14.01171875,-5.15234375,1,0,0,rectangle,-14.01171875,-5.15234375,1,0,0,-14.01171875,-5.15234375,1,0,0,0,57,57,100,1,,,,,,,,
,,,,,,,,,,,,,FF,,,,,,,,0.6362,,,,,,,,,,,,,,,,,,,,,,61004e071430aab85ba2ac18,61036e7ada011bc3983fb8be,2021-07-29_20h14.54.689,Simcolourproject_2stim_asymm_v5,2020.2.10,MacIntel,60,61025ae37ef11b136ea224fe,,,,,,,,,3957,36.53515625,72.96484375,1,0,0,response1disk,,7,20.16796875,8.26171875,1,0,0,rectangle,20.16796875,8.26171875,1,0,0,20.16796875,8.26171875,1,0,0,0,58,58,94,1,,,,,,,,
,,,,,,,,,,,,,FF,,,,,,,,0.4669,,,,,,,,,,,,,,,,,,,,,,61004e071430aab85ba2ac18,61036e7ada011bc3983fb8be,2021-07-29_20h14.54.689,Simcolourproject_2stim_asymm_v5,2020.2.10,MacIntel,60,61025ae37ef11b136ea224fe,,,,,,,,,1463,48.140625,77.87109375,1,0,0,response1disk,,7,26.80078125,9.75390625,1,0,0,rectangle,26.80078125,9.75390625,1,0,0,26.80078125,9.75390625,1,0,0,0,59,59,60,1,,,,,,,,
,,,,,,,,,,,,,FF,,,,,,,,1.2836,,,,,,,,,,,,,,,,,,,,,,61004e071430aab85ba2ac18,61036e7ada011bc3983fb8be,2021-07-29_20h14.54.689,Simcolourproject_2stim_asymm_v5,2020.2.10,MacIntel,60,61025ae37ef11b136ea224fe,,,,,,,,,282,-46.734375,-64.75390625,1,0,0,response5disk,,3,-8.3671875,-14.6171875,1,0,0,rectangle,-8.3671875,-14.6171875,1,0,0,-8.3671875,-14.6171875,1,0,0,0,60,60,51,1,,,,,,,,
,,,,,,,,,,,,,FF,,,,,,,,0.5495,,,,,,,,,,,,,,,,,,,,,,61004e071430aab85ba2ac18,61036e7ada011bc3983fb8be,2021-07-29_20h14.54.689,Simcolourproject_2stim_asymm_v5,2020.2.10,MacIntel,60,61025ae37ef11b136ea224fe,,,,,,,,,3165,27.6015625,70.28125,1,0,0,response1disk,,7,10.625,17.38671875,1,0,0,rectangle,10.625,17.38671875,1,0,0,10.625,17.38671875,1,0,0,0,61,61,95,1,,,,,,,,
,,,,,,,,,,,,,FF,,,,,,,,0.916,,,,,,,,,,,,,,,,,,,,,,61004e071430aab85ba2ac18,61036e7ada011bc3983fb8be,2021-07-29_20h14.54.689,Simcolourproject_2stim_asymm_v5,2020.2.10,MacIntel,60,61025ae37ef11b136ea224fe,,,,,,,,,3098,-84.48046875,43.46875,1,0,0,response7disk,,1,-11.76171875,5.640625,1,0,0,rectangle,-68.97265625,-56.5546875,1,0,0,-1.31640625,6.58203125,1,0,0,0,62,62,5,1,,response5disk_3,TRUE,2,2,"[2,106,286,54,244,203,76,202,147,165,296,272,63,38,277,54,320,11,281,181]",1.4495,rectangle
,,,,,,,,,,,,,FF,,,,,,,,1.3329,,,,,,,,,,,,,,,,,,,,,,61004e071430aab85ba2ac18,61036e7ada011bc3983fb8be,2021-07-29_20h14.54.689,Simcolourproject_2stim_asymm_v5,2020.2.10,MacIntel,60,61025ae37ef11b136ea224fe,,,,,,,,,2432,38.4921875,57.48828125,1,0,0,response1disk,,7,35.87890625,-1.5234375,1,0,0,rectangle,35.87890625,-1.5234375,1,0,0,35.87890625,-1.5234375,1,0,0,0,63,63,29,1,,,,,,,,
,,,,,,,,,,,,,FF,,,,,,,,0.2672,,,,,,,,,,,,,,,,,,,,,,61004e071430aab85ba2ac18,61036e7ada011bc3983fb8be,2021-07-29_20h14.54.689,Simcolourproject_2stim_asymm_v5,2020.2.10,MacIntel,60,61025ae37ef11b136ea224fe,,,,,,,,,1159,59.94140625,107.3945313,1,0,0,response1disk,,7,9.75390625,-3.2578125,1,0,0,rectangle,9.75390625,-3.2578125,1,0,0,9.75390625,-3.2578125,1,0,0,0,64,64,62,1,,,,,,,,
,,,,,,,,,,,,,FF,,,,,,,,0.351,,,,,,,,,,,,,,,,,,,,,,61004e071430aab85ba2ac18,61036e7ada011bc3983fb8be,2021-07-29_20h14.54.689,Simcolourproject_2stim_asymm_v5,2020.2.10,MacIntel,60,61025ae37ef11b136ea224fe,,,,,,,,,2192,36.55078125,76.01953125,1,0,0,response1disk,,7,2.46484375,5.11328125,1,0,0,rectangle,2.46484375,5.11328125,1,0,0,2.46484375,5.11328125,1,0,0,0,65,65,12,1,,,,,,,,
,,,,,,,,,,,,,FF,,,,,,,,0.5996,,,,,,,,,,,,,,,,,,,,,,61004e071430aab85ba2ac18,61036e7ada011bc3983fb8be,2021-07-29_20h14.54.689,Simcolourproject_2stim_asymm_v5,2020.2.10,MacIntel,60,61025ae37ef11b136ea224fe,,,,,,,,,3802,32.0859375,86.5859375,1,0,0,response1disk,,7,6.640625,11.82421875,1,0,0,rectangle,6.640625,11.82421875,1,0,0,6.640625,11.82421875,1,0,0,0,66,66,37,1,,,,,,,,
,,,,,,,,,,,,,FF,,,,,,,,0.5168,,,,,,,,,,,,,,,,,,,,,,61004e071430aab85ba2ac18,61036e7ada011bc3983fb8be,2021-07-29_20h14.54.689,Simcolourproject_2stim_asymm_v5,2020.2.10,MacIntel,60,61025ae37ef11b136ea224fe,,,,,,,,,3797,46.25,98.66796875,1,0,0,response1disk,,7,17.68359375,13.5546875,1,0,0,rectangle,17.68359375,13.5546875,1,0,0,17.68359375,13.5546875,1,0,0,0,67,67,78,1,,,,,,,,
,,,,,,,,,,,,,FF,,,,,,,,0.3159,,,,,,,,,,,,,,,,,,,,,,61004e071430aab85ba2ac18,61036e7ada011bc3983fb8be,2021-07-29_20h14.54.689,Simcolourproject_2stim_asymm_v5,2020.2.10,MacIntel,60,61025ae37ef11b136ea224fe,,,,,,,,,3273,39.9140625,114.1679688,1,0,0,response1disk,,7,6.19921875,11.36328125,1,0,0,rectangle,6.19921875,11.36328125,1,0,0,6.19921875,11.36328125,1,0,0,0,68,68,99,1,,,,,,,,
,,,,,,,,,,,,,FF,,,,,,,,1.099,,,,,,,,,,,,,,,,,,,,,,61004e071430aab85ba2ac18,61036e7ada011bc3983fb8be,2021-07-29_20h14.54.689,Simcolourproject_2stim_asymm_v5,2020.2.10,MacIntel,60,61025ae37ef11b136ea224fe,,,,,,,,,99,-65.6171875,-35.77734375,1,0,0,response5disk,,2,-7.890625,-12.7109375,1,0,0,rectangle,-7.890625,-12.7109375,1,0,0,-7.890625,-12.7109375,1,0,0,0,69,69,18,1,,,,,,,,
,,,,,,,,,,,,,FF,,,,,,,,0.4499,,,,,,,,,,,,,,,,,,,,,,61004e071430aab85ba2ac18,61036e7ada011bc3983fb8be,2021-07-29_20h14.54.689,Simcolourproject_2stim_asymm_v5,2020.2.10,MacIntel,60,61025ae37ef11b136ea224fe,,,,,,,,,116,34.609375,43.18359375,1,0,0,response1disk,,7,18.34375,-10.05859375,1,0,0,rectangle,18.34375,-10.05859375,1,0,0,18.34375,-10.05859375,1,0,0,0,70,70,135,1,,,,,,,,
,,,,,,,,,,,,,FF,,,,,,,,0.4666,,,,,,,,,,,,,,,,,,,,,,61004e071430aab85ba2ac18,61036e7ada011bc3983fb8be,2021-07-29_20h14.54.689,Simcolourproject_2stim_asymm_v5,2020.2.10,MacIntel,60,61025ae37ef11b136ea224fe,,,,,,,,,3136,37.953125,79.30078125,1,0,0,response1disk,,7,15.171875,8.40625,1,0,0,rectangle,15.171875,8.40625,1,0,0,15.171875,8.40625,1,0,0,0,71,71,9,1,,,,,,,,
,,,,,,,,,,,,,FF,,,,,,,,0.9155,,,,,,,,,,,,,,,,,,,,,,61004e071430aab85ba2ac18,61036e7ada011bc3983fb8be,2021-07-29_20h14.54.689,Simcolourproject_2stim_asymm_v5,2020.2.10,MacIntel,60,61025ae37ef11b136ea224fe,,,,,,,,,3429,-92.05078125,53.6171875,1,0,0,response7disk,,1,-13.96484375,-1.3984375,1,0,0,rectangle,-13.96484375,-1.3984375,1,0,0,-13.96484375,-1.3984375,1,0,0,0,72,72,16,1,,,,,,,,
,,,,,,,,,,,,,FF,,,,,,,,1.0154,,,,,,,,,,,,,,,,,,,,,,61004e071430aab85ba2ac18,61036e7ada011bc3983fb8be,2021-07-29_20h14.54.689,Simcolourproject_2stim_asymm_v5,2020.2.10,MacIntel,60,61025ae37ef11b136ea224fe,,,,,,,,,3891,58.97265625,83.609375,1,0,0,response1disk,,7,11.94921875,-6.0078125,1,0,0,rectangle,11.94921875,-6.0078125,1,0,0,11.94921875,-6.0078125,1,0,0,0,73,73,46,1,,,,,,,,
,,,,,,,,,,,,,FF,,,,,,,,1.4171,,,,,,,,,,,,,,,,,,,,,,61004e071430aab85ba2ac18,61036e7ada011bc3983fb8be,2021-07-29_20h14.54.689,Simcolourproject_2stim_asymm_v5,2020.2.10,MacIntel,60,61025ae37ef11b136ea224fe,,,,,,,,,1750,-83.15625,-27.64453125,1,0,0,response5disk,,2,-34.01953125,-0.421875,1,0,0,rectangle,-34.01953125,-0.421875,1,0,0,-34.01953125,-0.421875,1,0,0,0,74,74,124,1,,,,,,,,
,,,,,,,,,,,,,FF,,,,,,,,0.4342,,,,,,,,,,,,,,,,,,,,,,61004e071430aab85ba2ac18,61036e7ada011bc3983fb8be,2021-07-29_20h14.54.689,Simcolourproject_2stim_asymm_v5,2020.2.10,MacIntel,60,61025ae37ef11b136ea224fe,,,,,,,,,215,53.078125,85.2109375,1,0,0,response1disk,,7,1.03515625,-2.1953125,1,0,0,rectangle,-51.28125,94.296875,1,0,0,-15.83984375,10.234375,1,0,0,0,75,75,34,1,,response7disk_3,TRUE,0,0,"[2,106,286,54,244,203,76,202,147,165,296,272,63,38,277,54,320,11,281,181]",1.6166,rectangle
,,,,,,,,,,,,,FF,,,,,,,,0.4678,,,,,,,,,,,,,,,,,,,,,,61004e071430aab85ba2ac18,61036e7ada011bc3983fb8be,2021-07-29_20h14.54.689,Simcolourproject_2stim_asymm_v5,2020.2.10,MacIntel,60,61025ae37ef11b136ea224fe,,,,,,,,,2795,27.765625,75.0390625,1,0,0,response1disk,,7,11.9609375,0.61328125,1,0,0,rectangle,11.9609375,0.61328125,1,0,0,11.9609375,0.61328125,1,0,0,0,76,76,0,1,,,,,,,,
,,,,,,,,,,,,,FF,,,,,,,,0.4149,,,,,,,,,,,,,,,,,,,,,,61004e071430aab85ba2ac18,61036e7ada011bc3983fb8be,2021-07-29_20h14.54.689,Simcolourproject_2stim_asymm_v5,2020.2.10,MacIntel,60,61025ae37ef11b136ea224fe,,,,,,,,,3550,55.31640625,61.40234375,1,0,0,response1disk,,7,13.95703125,-5.765625,1,0,0,rectangle,13.95703125,-5.765625,1,0,0,13.95703125,-5.765625,1,0,0,0,77,77,64,1,,,,,,,,
,,,,,,,,,,,,,FF,,,,,,,,0.3071,,,,,,,,,,,,,,,,,,,,,,61004e071430aab85ba2ac18,61036e7ada011bc3983fb8be,2021-07-29_20h14.54.689,Simcolourproject_2stim_asymm_v5,2020.2.10,MacIntel,60,61025ae37ef11b136ea224fe,,,,,,,,,472,46.75390625,80.62890625,1,0,0,response1disk,,7,17.6015625,9.59765625,1,0,0,rectangle,17.6015625,9.59765625,1,0,0,17.6015625,9.59765625,1,0,0,0,78,78,110,1,,,,,,,,
,,,,,,,,,,,,,FF,,,,,,,,0.2997,,,,,,,,,,,,,,,,,,,,,,61004e071430aab85ba2ac18,61036e7ada011bc3983fb8be,2021-07-29_20h14.54.689,Simcolourproject_2stim_asymm_v5,2020.2.10,MacIntel,60,61025ae37ef11b136ea224fe,,,,,,,,,3366,45.41796875,83.13671875,1,0,0,response1disk,,7,14.73046875,12.1875,1,0,0,rectangle,14.73046875,12.1875,1,0,0,14.73046875,12.1875,1,0,0,0,79,79,61,1,,,,,,,,
,,,,,,,,,,,,,FF,,,,,,,,0.2837,,,,,,,,,,,,,,,,,,,,,,61004e071430aab85ba2ac18,61036e7ada011bc3983fb8be,2021-07-29_20h14.54.689,Simcolourproject_2stim_asymm_v5,2020.2.10,MacIntel,60,61025ae37ef11b136ea224fe,,,,,,,,,2431,47.58984375,91.28515625,1,0,0,response1disk,,7,0.671875,-12.6171875,1,0,0,rectangle,0.671875,-12.6171875,1,0,0,0.671875,-12.6171875,1,0,0,0,80,80,83,1,,,,,,,,
,,,,,,,,,,,,,FF,,,,,,,,0.3142,,,,,,,,,,,,,,,,,,,,,,61004e071430aab85ba2ac18,61036e7ada011bc3983fb8be,2021-07-29_20h14.54.689,Simcolourproject_2stim_asymm_v5,2020.2.10,MacIntel,60,61025ae37ef11b136ea224fe,,,,,,,,,2191,57.19921875,84.94921875,1,0,0,response1disk,,7,5.0859375,4.0078125,1,0,0,rectangle,5.0859375,4.0078125,1,0,0,5.0859375,4.0078125,1,0,0,0,81,81,118,1,,,,,,,,
,,,,,,,,,,,,,FF,,,,,,,,0.2482,,,,,,,,,,,,,,,,,,,,,,61004e071430aab85ba2ac18,61036e7ada011bc3983fb8be,2021-07-29_20h14.54.689,Simcolourproject_2stim_asymm_v5,2020.2.10,MacIntel,60,61025ae37ef11b136ea224fe,,,,,,,,,2731,58.765625,87.03125,1,0,0,response1disk,,7,17.64453125,4.46875,1,0,0,rectangle,17.64453125,4.46875,1,0,0,17.64453125,4.46875,1,0,0,0,82,82,14,1,,,,,,,,
,,,,,,,,,,,,,FF,,,,,,,,0.3159,,,,,,,,,,,,,,,,,,,,,,61004e071430aab85ba2ac18,61036e7ada011bc3983fb8be,2021-07-29_20h14.54.689,Simcolourproject_2stim_asymm_v5,2020.2.10,MacIntel,60,61025ae37ef11b136ea224fe,,,,,,,,,1347,48.75390625,70.46484375,1,0,0,response1disk,,7,4.55859375,9.0546875,1,0,0,rectangle,4.55859375,9.0546875,1,0,0,4.55859375,9.0546875,1,0,0,0,83,83,98,1,,,,,,,,
,,,,,,,,,,,,,FF,,,,,,,,0.3674,,,,,,,,,,,,,,,,,,,,,,61004e071430aab85ba2ac18,61036e7ada011bc3983fb8be,2021-07-29_20h14.54.689,Simcolourproject_2stim_asymm_v5,2020.2.10,MacIntel,60,61025ae37ef11b136ea224fe,,,,,,,,,430,36.90234375,60.7890625,1,0,0,response1disk,,7,-13.55859375,-5.0390625,1,0,0,rectangle,-13.55859375,-5.0390625,1,0,0,-13.55859375,-5.0390625,1,0,0,0,84,84,102,1,,,,,,,,
,,,,,,,,,,,,,FF,,,,,,,,0.7828,,,,,,,,,,,,,,,,,,,,,,61004e071430aab85ba2ac18,61036e7ada011bc3983fb8be,2021-07-29_20h14.54.689,Simcolourproject_2stim_asymm_v5,2020.2.10,MacIntel,60,61025ae37ef11b136ea224fe,,,,,,,,,4028,-35.33203125,-57.984375,1,0,0,response5disk,,3,-7.828125,-5.1171875,1,0,0,rectangle,-7.828125,-5.1171875,1,0,0,-7.828125,-5.1171875,1,0,0,0,85,85,39,1,,,,,,,,
,,,,,,,,,,,,,FF,,,,,,,,1.6505,,,,,,,,,,,,,,,,,,,,,,61004e071430aab85ba2ac18,61036e7ada011bc3983fb8be,2021-07-29_20h14.54.689,Simcolourproject_2stim_asymm_v5,2020.2.10,MacIntel,60,61025ae37ef11b136ea224fe,,,,,,,,,1768,51.0625,66.31640625,1,0,0,response1disk,,7,35.0546875,9.0234375,1,0,0,rectangle,35.0546875,9.0234375,1,0,0,35.0546875,9.0234375,1,0,0,0,86,86,149,1,,,,,,,,
,,,,,,,,,,,,,FF,,,,,,,,0.3824,,,,,,,,,,,,,,,,,,,,,,61004e071430aab85ba2ac18,61036e7ada011bc3983fb8be,2021-07-29_20h14.54.689,Simcolourproject_2stim_asymm_v5,2020.2.10,MacIntel,60,61025ae37ef11b136ea224fe,,,,,,,,,1848,63.8984375,83.83984375,1,0,0,response1disk,,7,7.16796875,-10.09375,1,0,0,rectangle,7.16796875,-10.09375,1,0,0,7.16796875,-10.09375,1,0,0,0,87,87,4,1,,,,,,,,
,,,,,,,,,,,,,FF,,,,,,,,0.2551,,,,,,,,,,,,,,,,,,,,,,61004e071430aab85ba2ac18,61036e7ada011bc3983fb8be,2021-07-29_20h14.54.689,Simcolourproject_2stim_asymm_v5,2020.2.10,MacIntel,60,61025ae37ef11b136ea224fe,,,,,,,,,4242,31.72265625,97.16015625,1,0,0,response1disk,,7,8.12109375,10.51953125,1,0,0,rectangle,8.12109375,10.51953125,1,0,0,8.12109375,10.51953125,1,0,0,0,88,88,54,1,,,,,,,,
,,,,,,,,,,,,,FF,,,,,,,,0.7665,,,,,,,,,,,,,,,,,,,,,,61004e071430aab85ba2ac18,61036e7ada011bc3983fb8be,2021-07-29_20h14.54.689,Simcolourproject_2stim_asymm_v5,2020.2.10,MacIntel,60,61025ae37ef11b136ea224fe,,,,,,,,,1452,26.52734375,74.4609375,1,0,0,response1disk,,7,11.42578125,3.0859375,1,0,0,rectangle,11.42578125,3.0859375,1,0,0,11.42578125,3.0859375,1,0,0,0,89,89,44,1,,,,,,,,
,,,,,,,,,,,,,FF,,,,,,,,1.1496,,,,,,,,,,,,,,,,,,,,,,61004e071430aab85ba2ac18,61036e7ada011bc3983fb8be,2021-07-29_20h14.54.689,Simcolourproject_2stim_asymm_v5,2020.2.10,MacIntel,60,61025ae37ef11b136ea224fe,,,,,,,,,1187,-73.796875,38.8671875,1,0,0,response7disk,,1,-17.9140625,-8.328125,1,0,0,rectangle,-17.9140625,-8.328125,1,0,0,-17.9140625,-8.328125,1,0,0,0,90,90,74,1,,,,,,,,
,,,,,,,,,,,,,FF,,,,,,,,0.9842,,,,,,,,,,,,,,,,,,,,,,61004e071430aab85ba2ac18,61036e7ada011bc3983fb8be,2021-07-29_20h14.54.689,Simcolourproject_2stim_asymm_v5,2020.2.10,MacIntel,60,61025ae37ef11b136ea224fe,,,,,,,,,4236,-60.5,41.67578125,1,0,0,response7disk,,1,7.4296875,-4.37109375,1,0,0,rectangle,7.4296875,-4.37109375,1,0,0,7.4296875,-4.37109375,1,0,0,0,91,91,69,1,,,,,,,,
,,,,,,,,,,,,,FF,,,,,,,,0.8004,,,,,,,,,,,,,,,,,,,,,,61004e071430aab85ba2ac18,61036e7ada011bc3983fb8be,2021-07-29_20h14.54.689,Simcolourproject_2stim_asymm_v5,2020.2.10,MacIntel,60,61025ae37ef11b136ea224fe,,,,,,,,,3422,-47.62890625,34.3828125,1,0,0,response7disk,,1,-9.5234375,7.86328125,1,0,0,rectangle,-9.5234375,7.86328125,1,0,0,-9.5234375,7.86328125,1,0,0,0,92,92,81,1,,,,,,,,
,,,,,,,,,,,,,FF,,,,,,,,2.1995,,,,,,,,,,,,,,,,,,,,,,61004e071430aab85ba2ac18,61036e7ada011bc3983fb8be,2021-07-29_20h14.54.689,Simcolourproject_2stim_asymm_v5,2020.2.10,MacIntel,60,61025ae37ef11b136ea224fe,,,,,,,,,3687,53.24609375,97.6328125,1,0,0,response1disk,,7,-3.203125,3.54296875,1,0,0,rectangle,-3.203125,3.54296875,1,0,0,-3.203125,3.54296875,1,0,0,0,93,93,130,1,,,,,,,,
,,,,,,,,,,,,,FF,,,,,,,,0.4506,,,,,,,,,,,,,,,,,,,,,,61004e071430aab85ba2ac18,61036e7ada011bc3983fb8be,2021-07-29_20h14.54.689,Simcolourproject_2stim_asymm_v5,2020.2.10,MacIntel,60,61025ae37ef11b136ea224fe,,,,,,,,,1563,37.828125,93.75,1,0,0,response1disk,,7,-3.421875,1.46484375,1,0,0,rectangle,-3.421875,1.46484375,1,0,0,-3.421875,1.46484375,1,0,0,0,94,94,42,1,,,,,,,,
,,,,,,,,,,,,,FF,,,,,,,,0.8168,,,,,,,,,,,,,,,,,,,,,,61004e071430aab85ba2ac18,61036e7ada011bc3983fb8be,2021-07-29_20h14.54.689,Simcolourproject_2stim_asymm_v5,2020.2.10,MacIntel,60,61025ae37ef11b136ea224fe,,,,,,,,,2687,26.38671875,85.51953125,1,0,0,response1disk,,7,-9.16796875,5.61328125,1,0,0,rectangle,-9.16796875,5.61328125,1,0,0,-9.16796875,5.61328125,1,0,0,0,95,95,82,1,,,,,,,,
,,,,,,,,,,,,,FF,,,,,,,,0.4655,,,,,,,,,,,,,,,,,,,,,,61004e071430aab85ba2ac18,61036e7ada011bc3983fb8be,2021-07-29_20h14.54.689,Simcolourproject_2stim_asymm_v5,2020.2.10,MacIntel,60,61025ae37ef11b136ea224fe,,,,,,,,,2815,31.33203125,74.1171875,1,0,0,response1disk,,7,15.21875,-13.53125,1,0,0,rectangle,15.21875,-13.53125,1,0,0,15.21875,-13.53125,1,0,0,0,96,96,117,1,,,,,,,,
,,,,,,,,,,,,,FF,,,,,,,,0.7998,,,,,,,,,,,,,,,,,,,,,,61004e071430aab85ba2ac18,61036e7ada011bc3983fb8be,2021-07-29_20h14.54.689,Simcolourproject_2stim_asymm_v5,2020.2.10,MacIntel,60,61025ae37ef11b136ea224fe,,,,,,,,,712,40.91015625,76.1640625,1,0,0,response1disk,,7,-5.87890625,7.55859375,1,0,0,rectangle,-5.87890625,7.55859375,1,0,0,-5.87890625,7.55859375,1,0,0,0,97,97,104,1,,,,,,,,
,,,,,,,,,,,,,FF,,,,,,,,0.551,,,,,,,,,,,,,,,,,,,,,,61004e071430aab85ba2ac18,61036e7ada011bc3983fb8be,2021-07-29_20h14.54.689,Simcolourproject_2stim_asymm_v5,2020.2.10,MacIntel,60,61025ae37ef11b136ea224fe,,,,,,,,,4370,-49.98828125,79.74609375,1,0,0,response7disk,,0,-12.86328125,12.8125,1,0,0,rectangle,-12.86328125,12.8125,1,0,0,-12.86328125,12.8125,1,0,0,0,98,98,33,1,,,,,,,,
,,,,,,,,,,,,,FF,,,,,,,,0.4833,,,,,,,,,,,,,,,,,,,,,,61004e071430aab85ba2ac18,61036e7ada011bc3983fb8be,2021-07-29_20h14.54.689,Simcolourproject_2stim_asymm_v5,2020.2.10,MacIntel,60,61025ae37ef11b136ea224fe,,,,,,,,,3745,-55.0546875,37.90625,1,0,0,response7disk,,1,-16.54296875,9.2265625,1,0,0,rectangle,-16.54296875,9.2265625,1,0,0,-16.54296875,9.2265625,1,0,0,0,99,99,75,1,,,,,,,,
,,,,,,,,,,,,,FF,,,,,,,,1.0001,,,,,,,,,,,,,,,,,,,,,,61004e071430aab85ba2ac18,61036e7ada011bc3983fb8be,2021-07-29_20h14.54.689,Simcolourproject_2stim_asymm_v5,2020.2.10,MacIntel,60,61025ae37ef11b136ea224fe,,,,,,,,,1678,26.8515625,92.14453125,1,0,0,response1disk,,7,23.63671875,16.0078125,1,0,0,rectangle,23.63671875,16.0078125,1,0,0,23.63671875,16.0078125,1,0,0,0,100,100,125,1,,,,,,,,
,,,,,,,,,,,,,FF,,,,,,,,0.717,,,,,,,,,,,,,,,,,,,,,,61004e071430aab85ba2ac18,61036e7ada011bc3983fb8be,2021-07-29_20h14.54.689,Simcolourproject_2stim_asymm_v5,2020.2.10,MacIntel,60,61025ae37ef11b136ea224fe,,,,,,,,,3744,-62.3359375,45.453125,1,0,0,response7disk,,1,-1.47265625,6.4765625,1,0,0,rectangle,-1.47265625,6.4765625,1,0,0,-1.47265625,6.4765625,1,0,0,0,101,101,65,1,,,,,,,,
,,,,,,,,,,,,,FF,,,,,,,,0.5334,,,,,,,,,,,,,,,,,,,,,,61004e071430aab85ba2ac18,61036e7ada011bc3983fb8be,2021-07-29_20h14.54.689,Simcolourproject_2stim_asymm_v5,2020.2.10,MacIntel,60,61025ae37ef11b136ea224fe,,,,,,,,,1834,21.15234375,74.84375,1,0,0,response1disk,,7,4.01953125,16.31640625,1,0,0,rectangle,4.01953125,16.31640625,1,0,0,4.01953125,16.31640625,1,0,0,0,102,102,145,1,,,,,,,,
,,,,,,,,,,,,,FF,,,,,,,,0.6336,,,,,,,,,,,,,,,,,,,,,,61004e071430aab85ba2ac18,61036e7ada011bc3983fb8be,2021-07-29_20h14.54.689,Simcolourproject_2stim_asymm_v5,2020.2.10,MacIntel,60,61025ae37ef11b136ea224fe,,,,,,,,,4100,-47.671875,24.7265625,1,0,0,response7disk,,1,-17.7109375,-4.19140625,1,0,0,rectangle,-17.7109375,-4.19140625,1,0,0,-17.7109375,-4.19140625,1,0,0,0,103,103,23,1,,,,,,,,
,,,,,,,,,,,,,FF,,,,,,,,1.1987,,,,,,,,,,,,,,,,,,,,,,61004e071430aab85ba2ac18,61036e7ada011bc3983fb8be,2021-07-29_20h14.54.689,Simcolourproject_2stim_asymm_v5,2020.2.10,MacIntel,60,61025ae37ef11b136ea224fe,,,,,,,,,3205,-59.921875,33.390625,1,0,0,response7disk,,1,-16.19140625,-3.08984375,1,0,0,rectangle,-16.19140625,-3.08984375,1,0,0,-16.19140625,-3.08984375,1,0,0,0,104,104,89,1,,,,,,,,
,,,,,,,,,,,,,FF,,,,,,,,0.5511,,,,,,,,,,,,,,,,,,,,,,61004e071430aab85ba2ac18,61036e7ada011bc3983fb8be,2021-07-29_20h14.54.689,Simcolourproject_2stim_asymm_v5,2020.2.10,MacIntel,60,61025ae37ef11b136ea224fe,,,,,,,,,57,-53.140625,-31.33203125,1,0,0,response5disk,,2,23.6875,-9.05859375,1,0,0,rectangle,99.48828125,22.77734375,1,0,0,-4.453125,11.58203125,1,0,0,0,105,105,7,1,,response1disk_3,TRUE,6,6,"[2,106,286,54,244,203,76,202,147,165,296,272,63,38,277,54,320,11,281,181]",1.6996,rectangle
,,,,,,,,,,,,,FF,,,,,,,,0.6818,,,,,,,,,,,,,,,,,,,,,,61004e071430aab85ba2ac18,61036e7ada011bc3983fb8be,2021-07-29_20h14.54.689,Simcolourproject_2stim_asymm_v5,2020.2.10,MacIntel,60,61025ae37ef11b136ea224fe,,,,,,,,,1342,30.26953125,57.73828125,1,0,0,response1disk,,7,-5.375,-1.52734375,1,0,0,rectangle,-5.375,-1.52734375,1,0,0,-5.375,-1.52734375,1,0,0,0,106,106,127,1,,,,,,,,
,,,,,,,,,,,,,FF,,,,,,,,0.3678,,,,,,,,,,,,,,,,,,,,,,61004e071430aab85ba2ac18,61036e7ada011bc3983fb8be,2021-07-29_20h14.54.689,Simcolourproject_2stim_asymm_v5,2020.2.10,MacIntel,60,61025ae37ef11b136ea224fe,,,,,,,,,1421,37.05078125,83.55859375,1,0,0,response1disk,,7,0.5390625,-0.72265625,1,0,0,rectangle,0.5390625,-0.72265625,1,0,0,0.5390625,-0.72265625,1,0,0,0,107,107,126,1,,,,,,,,
,,,,,,,,,,,,,FF,,,,,,,,0.4501,,,,,,,,,,,,,,,,,,,,,,61004e071430aab85ba2ac18,61036e7ada011bc3983fb8be,2021-07-29_20h14.54.689,Simcolourproject_2stim_asymm_v5,2020.2.10,MacIntel,60,61025ae37ef11b136ea224fe,,,,,,,,,3171,27.11328125,70.9453125,1,0,0,response1disk,,7,10.6640625,9.1875,1,0,0,rectangle,10.6640625,9.1875,1,0,0,10.6640625,9.1875,1,0,0,0,108,108,53,1,,,,,,,,
,,,,,,,,,,,,,FF,,,,,,,,0.4835,,,,,,,,,,,,,,,,,,,,,,61004e071430aab85ba2ac18,61036e7ada011bc3983fb8be,2021-07-29_20h14.54.689,Simcolourproject_2stim_asymm_v5,2020.2.10,MacIntel,60,61025ae37ef11b136ea224fe,,,,,,,,,1723,63.21875,88.55859375,1,0,0,response1disk,,7,1.5078125,-0.26171875,1,0,0,rectangle,1.5078125,-0.26171875,1,0,0,1.5078125,-0.26171875,1,0,0,0,109,109,111,1,,,,,,,,
,,,,,,,,,,,,,FF,,,,,,,,0.5512,,,,,,,,,,,,,,,,,,,,,,61004e071430aab85ba2ac18,61036e7ada011bc3983fb8be,2021-07-29_20h14.54.689,Simcolourproject_2stim_asymm_v5,2020.2.10,MacIntel,60,61025ae37ef11b136ea224fe,,,,,,,,,2491,44.41015625,101.6210938,1,0,0,response1disk,,7,6.5546875,10.8125,1,0,0,rectangle,6.5546875,10.8125,1,0,0,6.5546875,10.8125,1,0,0,0,110,110,88,1,,,,,,,,
,,,,,,,,,,,,,FF,,,,,,,,0.4661,,,,,,,,,,,,,,,,,,,,,,61004e071430aab85ba2ac18,61036e7ada011bc3983fb8be,2021-07-29_20h14.54.689,Simcolourproject_2stim_asymm_v5,2020.2.10,MacIntel,60,61025ae37ef11b136ea224fe,,,,,,,,,707,18.21484375,66.7578125,1,0,0,response1disk,,7,2.8125,15.74609375,1,0,0,rectangle,2.8125,15.74609375,1,0,0,2.8125,15.74609375,1,0,0,0,111,111,30,1,,,,,,,,
,,,,,,,,,,,,,FF,,,,,,,,0.5006,,,,,,,,,,,,,,,,,,,,,,61004e071430aab85ba2ac18,61036e7ada011bc3983fb8be,2021-07-29_20h14.54.689,Simcolourproject_2stim_asymm_v5,2020.2.10,MacIntel,60,61025ae37ef11b136ea224fe,,,,,,,,,3174,52.03125,66.8125,1,0,0,response1disk,,7,14.953125,15.7109375,1,0,0,rectangle,14.953125,15.7109375,1,0,0,14.953125,15.7109375,1,0,0,0,112,112,91,1,,,,,,,,
,,,,,,,,,,,,,FF,,,,,,,,0.4653,,,,,,,,,,,,,,,,,,,,,,61004e071430aab85ba2ac18,61036e7ada011bc3983fb8be,2021-07-29_20h14.54.689,Simcolourproject_2stim_asymm_v5,2020.2.10,MacIntel,60,61025ae37ef11b136ea224fe,,,,,,,,,1430,46.27734375,98.4140625,1,0,0,response1disk,,7,8.31640625,2.96484375,1,0,0,rectangle,8.31640625,2.96484375,1,0,0,8.31640625,2.96484375,1,0,0,0,113,113,128,1,,,,,,,,
,,,,,,,,,,,,,FF,,,,,,,,0.4377,,,,,,,,,,,,,,,,,,,,,,61004e071430aab85ba2ac18,61036e7ada011bc3983fb8be,2021-07-29_20h14.54.689,Simcolourproject_2stim_asymm_v5,2020.2.10,MacIntel,60,61025ae37ef11b136ea224fe,,,,,,,,,1316,46.9296875,86.140625,1,0,0,response1disk,,7,13.140625,10.93359375,1,0,0,rectangle,13.140625,10.93359375,1,0,0,13.140625,10.93359375,1,0,0,0,114,114,25,1,,,,,,,,
,,,,,,,,,,,,,FF,,,,,,,,0.3668,,,,,,,,,,,,,,,,,,,,,,61004e071430aab85ba2ac18,61036e7ada011bc3983fb8be,2021-07-29_20h14.54.689,Simcolourproject_2stim_asymm_v5,2020.2.10,MacIntel,60,61025ae37ef11b136ea224fe,,,,,,,,,1243,44.23828125,80.109375,1,0,0,response1disk,,7,25.640625,-3.43359375,1,0,0,rectangle,25.640625,-3.43359375,1,0,0,25.640625,-3.43359375,1,0,0,0,115,115,76,1,,,,,,,,
,,,,,,,,,,,,,FF,,,,,,,,0.4656,,,,,,,,,,,,,,,,,,,,,,61004e071430aab85ba2ac18,61036e7ada011bc3983fb8be,2021-07-29_20h14.54.689,Simcolourproject_2stim_asymm_v5,2020.2.10,MacIntel,60,61025ae37ef11b136ea224fe,,,,,,,,,4261,48.8515625,95.87109375,1,0,0,response1disk,,7,17.49609375,-1.69921875,1,0,0,rectangle,17.49609375,-1.69921875,1,0,0,17.49609375,-1.69921875,1,0,0,0,116,116,134,1,,,,,,,,
,,,,,,,,,,,,,FF,,,,,,,,0.4839,,,,,,,,,,,,,,,,,,,,,,61004e071430aab85ba2ac18,61036e7ada011bc3983fb8be,2021-07-29_20h14.54.689,Simcolourproject_2stim_asymm_v5,2020.2.10,MacIntel,60,61025ae37ef11b136ea224fe,,,,,,,,,2774,42.0234375,80.2109375,1,0,0,response1disk,,7,24.50390625,13.94140625,1,0,0,rectangle,24.50390625,13.94140625,1,0,0,24.50390625,13.94140625,1,0,0,0,117,117,15,1,,,,,,,,
,,,,,,,,,,,,,FF,,,,,,,,0.4017,,,,,,,,,,,,,,,,,,,,,,61004e071430aab85ba2ac18,61036e7ada011bc3983fb8be,2021-07-29_20h14.54.689,Simcolourproject_2stim_asymm_v5,2020.2.10,MacIntel,60,61025ae37ef11b136ea224fe,,,,,,,,,2143,46.6796875,91.79296875,1,0,0,response1disk,,7,7.57421875,-3.3046875,1,0,0,rectangle,7.57421875,-3.3046875,1,0,0,7.57421875,-3.3046875,1,0,0,0,118,118,20,1,,,,,,,,
,,,,,,,,,,,,,FF,,,,,,,,0.3662,,,,,,,,,,,,,,,,,,,,,,61004e071430aab85ba2ac18,61036e7ada011bc3983fb8be,2021-07-29_20h14.54.689,Simcolourproject_2stim_asymm_v5,2020.2.10,MacIntel,60,61025ae37ef11b136ea224fe,,,,,,,,,1935,35.5234375,73.37890625,1,0,0,response1disk,,7,0.37890625,-11.53125,1,0,0,rectangle,0.37890625,-11.53125,1,0,0,0.37890625,-11.53125,1,0,0,0,119,119,106,1,,,,,,,,
,,,,,,,,,,,,,FF,,,,,,,,0.3501,,,,,,,,,,,,,,,,,,,,,,61004e071430aab85ba2ac18,61036e7ada011bc3983fb8be,2021-07-29_20h14.54.689,Simcolourproject_2stim_asymm_v5,2020.2.10,MacIntel,60,61025ae37ef11b136ea224fe,,,,,,,,,3023,37.79296875,98.1328125,1,0,0,response1disk,,7,18.85546875,3.58984375,1,0,0,rectangle,18.85546875,3.58984375,1,0,0,18.85546875,3.58984375,1,0,0,0,120,120,90,1,,,,,,,,
,,,,,,,,,,,,,FF,,,,,,,,0.7992,,,,,,,,,,,,,,,,,,,,,,61004e071430aab85ba2ac18,61036e7ada011bc3983fb8be,2021-07-29_20h14.54.689,Simcolourproject_2stim_asymm_v5,2020.2.10,MacIntel,60,61025ae37ef11b136ea224fe,,,,,,,,,542,20.54296875,85.8828125,1,0,0,response1disk,,7,2.88671875,1.48046875,1,0,0,rectangle,2.88671875,1.48046875,1,0,0,2.88671875,1.48046875,1,0,0,0,121,121,107,1,,,,,,,,
,,,,,,,,,,,,,FF,,,,,,,,1.1667,,,,,,,,,,,,,,,,,,,,,,61004e071430aab85ba2ac18,61036e7ada011bc3983fb8be,2021-07-29_20h14.54.689,Simcolourproject_2stim_asymm_v5,2020.2.10,MacIntel,60,61025ae37ef11b136ea224fe,,,,,,,,,2025,-63.41796875,49.30859375,1,0,0,response7disk,,1,-4.875,-16.8046875,1,0,0,rectangle,-4.875,-16.8046875,1,0,0,-4.875,-16.8046875,1,0,0,0,122,122,86,1,,,,,,,,
,,,,,,,,,,,,,FF,,,,,,,,1.2491,,,,,,,,,,,,,,,,,,,,,,61004e071430aab85ba2ac18,61036e7ada011bc3983fb8be,2021-07-29_20h14.54.689,Simcolourproject_2stim_asymm_v5,2020.2.10,MacIntel,60,61025ae37ef11b136ea224fe,,,,,,,,,2512,44.890625,83.3359375,1,0,0,response1disk,,7,10.703125,3.44140625,1,0,0,rectangle,10.703125,3.44140625,1,0,0,10.703125,3.44140625,1,0,0,0,123,123,121,1,,,,,,,,
,,,,,,,,,,,,,FF,,,,,,,,0.4653,,,,,,,,,,,,,,,,,,,,,,61004e071430aab85ba2ac18,61036e7ada011bc3983fb8be,2021-07-29_20h14.54.689,Simcolourproject_2stim_asymm_v5,2020.2.10,MacIntel,60,61025ae37ef11b136ea224fe,,,,,,,,,3450,52.2578125,87.61328125,1,0,0,response1disk,,7,6.96484375,-1.76171875,1,0,0,rectangle,6.96484375,-1.76171875,1,0,0,6.96484375,-1.76171875,1,0,0,0,124,124,129,1,,,,,,,,
,,,,,,,,,,,,,FF,,,,,,,,0.4012,,,,,,,,,,,,,,,,,,,,,,61004e071430aab85ba2ac18,61036e7ada011bc3983fb8be,2021-07-29_20h14.54.689,Simcolourproject_2stim_asymm_v5,2020.2.10,MacIntel,60,61025ae37ef11b136ea224fe,,,,,,,,,2403,48.74609375,101.9375,1,0,0,response1disk,,7,-0.37890625,-12.89453125,1,0,0,rectangle,-0.37890625,-12.89453125,1,0,0,-0.37890625,-12.89453125,1,0,0,0,125,125,67,1,,,,,,,,
,,,,,,,,,,,,,FF,,,,,,,,0.6834,,,,,,,,,,,,,,,,,,,,,,61004e071430aab85ba2ac18,61036e7ada011bc3983fb8be,2021-07-29_20h14.54.689,Simcolourproject_2stim_asymm_v5,2020.2.10,MacIntel,60,61025ae37ef11b136ea224fe,,,,,,,,,3970,-53.15234375,28.96875,1,0,0,response7disk,,1,-17.41015625,0.74609375,1,0,0,rectangle,-17.41015625,0.74609375,1,0,0,-17.41015625,0.74609375,1,0,0,0,126,126,123,1,,,,,,,,
,,,,,,,,,,,,,FF,,,,,,,,1.1186,,,,,,,,,,,,,,,,,,,,,,61004e071430aab85ba2ac18,61036e7ada011bc3983fb8be,2021-07-29_20h14.54.689,Simcolourproject_2stim_asymm_v5,2020.2.10,MacIntel,60,61025ae37ef11b136ea224fe,,,,,,,,,3753,55.6484375,100.9335938,1,0,0,response1disk,,7,26.37109375,14.05859375,1,0,0,rectangle,26.37109375,14.05859375,1,0,0,26.37109375,14.05859375,1,0,0,0,127,127,26,1,,,,,,,,
,,,,,,,,,,,,,FF,,,,,,,,1.1656,,,,,,,,,,,,,,,,,,,,,,61004e071430aab85ba2ac18,61036e7ada011bc3983fb8be,2021-07-29_20h14.54.689,Simcolourproject_2stim_asymm_v5,2020.2.10,MacIntel,60,61025ae37ef11b136ea224fe,,,,,,,,,3679,18.0390625,81.8828125,1,0,0,response1disk,,7,9.87890625,9.1875,1,0,0,rectangle,9.87890625,9.1875,1,0,0,9.87890625,9.1875,1,0,0,0,128,128,1,1,,,,,,,,
,,,,,,,,,,,,,FF,,,,,,,,0.6503,,,,,,,,,,,,,,,,,,,,,,61004e071430aab85ba2ac18,61036e7ada011bc3983fb8be,2021-07-29_20h14.54.689,Simcolourproject_2stim_asymm_v5,2020.2.10,MacIntel,60,61025ae37ef11b136ea224fe,,,,,,,,,3245,-73.1171875,52.5078125,1,0,0,response7disk,,1,-17.57421875,-4.55078125,1,0,0,rectangle,-17.57421875,-4.55078125,1,0,0,-17.57421875,-4.55078125,1,0,0,0,129,129,36,1,,,,,,,,
,,,,,,,,,,,,,FF,,,,,,,,0.782,,,,,,,,,,,,,,,,,,,,,,61004e071430aab85ba2ac18,61036e7ada011bc3983fb8be,2021-07-29_20h14.54.689,Simcolourproject_2stim_asymm_v5,2020.2.10,MacIntel,60,61025ae37ef11b136ea224fe,,,,,,,,,507,39.23046875,79.5078125,1,0,0,response1disk,,7,15.9296875,3.03125,1,0,0,rectangle,15.9296875,3.03125,1,0,0,15.9296875,3.03125,1,0,0,0,130,130,132,1,,,,,,,,
,,,,,,,,,,,,,FF,,,,,,,,2.2002,,,,,,,,,,,,,,,,,,,,,,61004e071430aab85ba2ac18,61036e7ada011bc3983fb8be,2021-07-29_20h14.54.689,Simcolourproject_2stim_asymm_v5,2020.2.10,MacIntel,60,61025ae37ef11b136ea224fe,,,,,,,,,748,39.49609375,87.51953125,1,0,0,response1disk,,7,7.328125,-2.5859375,1,0,0,rectangle,7.328125,-2.5859375,1,0,0,7.328125,-2.5859375,1,0,0,0,131,131,113,1,,,,,,,,
,,,,,,,,,,,,,FF,,,,,,,,0.6172,,,,,,,,,,,,,,,,,,,,,,61004e071430aab85ba2ac18,61036e7ada011bc3983fb8be,2021-07-29_20h14.54.689,Simcolourproject_2stim_asymm_v5,2020.2.10,MacIntel,60,61025ae37ef11b136ea224fe,,,,,,,,,2588,45.5,73.91796875,1,0,0,response1disk,,7,19.91796875,9,1,0,0,rectangle,19.91796875,9,1,0,0,19.91796875,9,1,0,0,0,132,132,21,1,,,,,,,,
,,,,,,,,,,,,,FF,,,,,,,,0.4846,,,,,,,,,,,,,,,,,,,,,,61004e071430aab85ba2ac18,61036e7ada011bc3983fb8be,2021-07-29_20h14.54.689,Simcolourproject_2stim_asymm_v5,2020.2.10,MacIntel,60,61025ae37ef11b136ea224fe,,,,,,,,,342,35.9453125,100.1445313,1,0,0,response1disk,,7,10.45703125,4.171875,1,0,0,rectangle,10.45703125,4.171875,1,0,0,10.45703125,4.171875,1,0,0,0,133,133,96,1,,,,,,,,
,,,,,,,,,,,,,FF,,,,,,,,0.5505,,,,,,,,,,,,,,,,,,,,,,61004e071430aab85ba2ac18,61036e7ada011bc3983fb8be,2021-07-29_20h14.54.689,Simcolourproject_2stim_asymm_v5,2020.2.10,MacIntel,60,61025ae37ef11b136ea224fe,,,,,,,,,287,44.57421875,74.671875,1,0,0,response1disk,,7,16.109375,5.296875,1,0,0,rectangle,16.109375,5.296875,1,0,0,16.109375,5.296875,1,0,0,0,134,134,27,1,,,,,,,,
,,,,,,,,,,,,,FF,,,,,,,,0.3503,,,,,,,,,,,,,,,,,,,,,,61004e071430aab85ba2ac18,61036e7ada011bc3983fb8be,2021-07-29_20h14.54.689,Simcolourproject_2stim_asymm_v5,2020.2.10,MacIntel,60,61025ae37ef11b136ea224fe,,,,,,,,,1149,30.703125,85.68359375,1,0,0,response1disk,,7,11.12109375,-7.20703125,1,0,0,rectangle,11.12109375,-7.20703125,1,0,0,11.12109375,-7.20703125,1,0,0,0,135,135,143,1,,,,,,,,
,,,,,,,,,,,,,FF,,,,,,,,0.3328,,,,,,,,,,,,,,,,,,,,,,61004e071430aab85ba2ac18,61036e7ada011bc3983fb8be,2021-07-29_20h14.54.689,Simcolourproject_2stim_asymm_v5,2020.2.10,MacIntel,60,61025ae37ef11b136ea224fe,,,,,,,,,3137,40.7734375,73.203125,1,0,0,response1disk,,7,16.4296875,7.2578125,1,0,0,rectangle,16.4296875,7.2578125,1,0,0,16.4296875,7.2578125,1,0,0,0,136,136,59,1,,,,,,,,
,,,,,,,,,,,,,FF,,,,,,,,0.417,,,,,,,,,,,,,,,,,,,,,,61004e071430aab85ba2ac18,61036e7ada011bc3983fb8be,2021-07-29_20h14.54.689,Simcolourproject_2stim_asymm_v5,2020.2.10,MacIntel,60,61025ae37ef11b136ea224fe,,,,,,,,,2805,32.87109375,73.8671875,1,0,0,response1disk,,7,9.140625,4.1015625,1,0,0,rectangle,9.140625,4.1015625,1,0,0,9.140625,4.1015625,1,0,0,0,137,137,72,1,,,,,,,,
,,,,,,,,,,,,,FF,,,,,,,,0.3486,,,,,,,,,,,,,,,,,,,,,,61004e071430aab85ba2ac18,61036e7ada011bc3983fb8be,2021-07-29_20h14.54.689,Simcolourproject_2stim_asymm_v5,2020.2.10,MacIntel,60,61025ae37ef11b136ea224fe,,,,,,,,,1251,33.578125,89.43359375,1,0,0,response1disk,,7,5.1953125,6.33984375,1,0,0,rectangle,5.1953125,6.33984375,1,0,0,5.1953125,6.33984375,1,0,0,0,138,138,146,1,,,,,,,,
,,,,,,,,,,,,,FF,,,,,,,,0.3989,,,,,,,,,,,,,,,,,,,,,,61004e071430aab85ba2ac18,61036e7ada011bc3983fb8be,2021-07-29_20h14.54.689,Simcolourproject_2stim_asymm_v5,2020.2.10,MacIntel,60,61025ae37ef11b136ea224fe,,,,,,,,,3201,29.7109375,84.015625,1,0,0,response1disk,,7,-20.98828125,-5.77734375,1,0,0,rectangle,-20.98828125,-5.77734375,1,0,0,-20.98828125,-5.77734375,1,0,0,0,139,139,47,1,,,,,,,,
,,,,,,,,,,,,,FF,,,,,,,,0.8332,,,,,,,,,,,,,,,,,,,,,,61004e071430aab85ba2ac18,61036e7ada011bc3983fb8be,2021-07-29_20h14.54.689,Simcolourproject_2stim_asymm_v5,2020.2.10,MacIntel,60,61025ae37ef11b136ea224fe,,,,,,,,,1786,28.74609375,80.00390625,1,0,0,response1disk,,7,15.3515625,-14.6953125,1,0,0,rectangle,15.3515625,-14.6953125,1,0,0,15.3515625,-14.6953125,1,0,0,0,140,140,68,1,,,,,,,,
,,,,,,,,,,,,,FF,,,,,,,,1.366,,,,,,,,,,,,,,,,,,,,,,61004e071430aab85ba2ac18,61036e7ada011bc3983fb8be,2021-07-29_20h14.54.689,Simcolourproject_2stim_asymm_v5,2020.2.10,MacIntel,60,61025ae37ef11b136ea224fe,,,,,,,,,688,27.92578125,90.609375,1,0,0,response1disk,,7,1.32421875,0.82421875,1,0,0,rectangle,1.32421875,0.82421875,1,0,0,1.32421875,0.82421875,1,0,0,0,141,141,38,1,,,,,,,,
,,,,,,,,,,,,,FF,,,,,,,,0.5146,,,,,,,,,,,,,,,,,,,,,,61004e071430aab85ba2ac18,61036e7ada011bc3983fb8be,2021-07-29_20h14.54.689,Simcolourproject_2stim_asymm_v5,2020.2.10,MacIntel,60,61025ae37ef11b136ea224fe,,,,,,,,,2001,63.03515625,89.0859375,1,0,0,response1disk,,7,15.265625,-7.42578125,1,0,0,rectangle,15.265625,-7.42578125,1,0,0,15.265625,-7.42578125,1,0,0,0,142,142,48,1,,,,,,,,
,,,,,,,,,,,,,FF,,,,,,,,0.3498,,,,,,,,,,,,,,,,,,,,,,61004e071430aab85ba2ac18,61036e7ada011bc3983fb8be,2021-07-29_20h14.54.689,Simcolourproject_2stim_asymm_v5,2020.2.10,MacIntel,60,61025ae37ef11b136ea224fe,,,,,,,,,4349,57.8125,72.80859375,1,0,0,response1disk,,7,-4.94140625,-3.8125,1,0,0,rectangle,-4.94140625,-3.8125,1,0,0,-4.94140625,-3.8125,1,0,0,0,143,143,85,1,,,,,,,,
,,,,,,,,,,,,,FF,,,,,,,,0.518,,,,,,,,,,,,,,,,,,,,,,61004e071430aab85ba2ac18,61036e7ada011bc3983fb8be,2021-07-29_20h14.54.689,Simcolourproject_2stim_asymm_v5,2020.2.10,MacIntel,60,61025ae37ef11b136ea224fe,,,,,,,,,3069,33.5,92.60546875,1,0,0,response1disk,,7,1.3359375,3.7265625,1,0,0,rectangle,1.3359375,3.7265625,1,0,0,1.3359375,3.7265625,1,0,0,0,144,144,139,1,,,,,,,,
,,,,,,,,,,,,,FF,,,,,,,,0.3676,,,,,,,,,,,,,,,,,,,,,,61004e071430aab85ba2ac18,61036e7ada011bc3983fb8be,2021-07-29_20h14.54.689,Simcolourproject_2stim_asymm_v5,2020.2.10,MacIntel,60,61025ae37ef11b136ea224fe,,,,,,,,,794,35.8203125,70.16796875,1,0,0,response1disk,,7,8.28125,2.2734375,1,0,0,rectangle,8.28125,2.2734375,1,0,0,8.28125,2.2734375,1,0,0,0,145,145,93,1,,,,,,,,
,,,,,,,,,,,,,FF,,,,,,,,0.1832,,,,,,,,,,,,,,,,,,,,,,61004e071430aab85ba2ac18,61036e7ada011bc3983fb8be,2021-07-29_20h14.54.689,Simcolourproject_2stim_asymm_v5,2020.2.10,MacIntel,60,61025ae37ef11b136ea224fe,,,,,,,,,4265,43.36328125,57.3671875,1,0,0,response1disk,,7,5,-1.203125,1,0,0,rectangle,80.23046875,-20.08984375,1,0,0,22.95703125,6.484375,1,0,0,0,146,146,122,1,,response3disk_3,TRUE,5,5,"[2,106,286,54,244,203,76,202,147,165,296,272,63,38,277,54,320,11,281,181]",1.4731,rectangle
,,,,,,,,,,,,,FF,,,,,,,,1.3501,,,,,,,,,,,,,,,,,,,,,,61004e071430aab85ba2ac18,61036e7ada011bc3983fb8be,2021-07-29_20h14.54.689,Simcolourproject_2stim_asymm_v5,2020.2.10,MacIntel,60,61025ae37ef11b136ea224fe,,,,,,,,,314,30.85546875,48.8828125,1,0,0,response1disk,,7,9.2578125,8.89453125,1,0,0,rectangle,9.2578125,8.89453125,1,0,0,9.2578125,8.89453125,1,0,0,0,147,147,159,1,,,,,,,,
,,,,,,,,,,,,,FF,,,,,,,,0.883,,,,,,,,,,,,,,,,,,,,,,61004e071430aab85ba2ac18,61036e7ada011bc3983fb8be,2021-07-29_20h14.54.689,Simcolourproject_2stim_asymm_v5,2020.2.10,MacIntel,60,61025ae37ef11b136ea224fe,,,,,,,,,2782,-95.77734375,40.70703125,1,0,0,response7disk,,1,-11.78515625,-10.94140625,1,0,0,rectangle,-11.78515625,-10.94140625,1,0,0,-11.78515625,-10.94140625,1,0,0,0,148,148,103,1,,,,,,,,
,,,,,,,,,,,,,FF,,,,,,,,0.6669,,,,,,,,,,,,,,,,,,,,,,61004e071430aab85ba2ac18,61036e7ada011bc3983fb8be,2021-07-29_20h14.54.689,Simcolourproject_2stim_asymm_v5,2020.2.10,MacIntel,60,61025ae37ef11b136ea224fe,,,,,,,,,3468,-71.5390625,31.640625,1,0,0,response7disk,,1,-13.38671875,4.12109375,1,0,0,rectangle,-13.38671875,4.12109375,1,0,0,-13.38671875,4.12109375,1,0,0,0,149,149,41,1,,,,,,,,
,,,,,,,,,,,,,FF,,,,,,,,0.6432,,,,,,,,,,,,,,,,,,,,,,61004e071430aab85ba2ac18,61036e7ada011bc3983fb8be,2021-07-29_20h14.54.689,Simcolourproject_2stim_asymm_v5,2020.2.10,MacIntel,60,61025ae37ef11b136ea224fe,,,,,,,,,1520,34.03515625,96.57421875,1,0,0,response1disk,,7,-6.828125,3.33203125,1,0,0,rectangle,-6.828125,3.33203125,1,0,0,-6.828125,3.33203125,1,0,0,0,150,150,17,1,,,,,,,,
,,,,,,,,,,,,,FF,,,,,,,,0.7995,,,,,,,,,,,,,,,,,,,,,,61004e071430aab85ba2ac18,61036e7ada011bc3983fb8be,2021-07-29_20h14.54.689,Simcolourproject_2stim_asymm_v5,2020.2.10,MacIntel,60,61025ae37ef11b136ea224fe,,,,,,,,,1381,31.234375,86.9609375,1,0,0,response1disk,,7,-5.12109375,3.45703125,1,0,0,rectangle,-5.12109375,3.45703125,1,0,0,-5.12109375,3.45703125,1,0,0,0,151,151,84,1,,,,,,,,
,,,,,,,,,,,,,FF,,,,,,,,0.5168,,,,,,,,,,,,,,,,,,,,,,61004e071430aab85ba2ac18,61036e7ada011bc3983fb8be,2021-07-29_20h14.54.689,Simcolourproject_2stim_asymm_v5,2020.2.10,MacIntel,60,61025ae37ef11b136ea224fe,,,,,,,,,3360,25.9140625,65.05078125,1,0,0,response1disk,,7,21.44921875,2.3671875,1,0,0,rectangle,21.44921875,2.3671875,1,0,0,21.44921875,2.3671875,1,0,0,0,152,152,140,1,,,,,,,,
,,,,,,,,,,,,,FF,,,,,,,,0.4988,,,,,,,,,,,,,,,,,,,,,,61004e071430aab85ba2ac18,61036e7ada011bc3983fb8be,2021-07-29_20h14.54.689,Simcolourproject_2stim_asymm_v5,2020.2.10,MacIntel,60,61025ae37ef11b136ea224fe,,,,,,,,,1326,48.953125,64.28125,1,0,0,response1disk,,7,1.00390625,-3.94921875,1,0,0,rectangle,1.00390625,-3.94921875,1,0,0,1.00390625,-3.94921875,1,0,0,0,153,153,2,1,,,,,,,,
,,,,,,,,,,,,,FF,,,,,,,,0.4171,,,,,,,,,,,,,,,,,,,,,,61004e071430aab85ba2ac18,61036e7ada011bc3983fb8be,2021-07-29_20h14.54.689,Simcolourproject_2stim_asymm_v5,2020.2.10,MacIntel,60,61025ae37ef11b136ea224fe,,,,,,,,,926,30.69140625,87.83984375,1,0,0,response1disk,,7,-5.0859375,-4.79296875,1,0,0,rectangle,-5.0859375,-4.79296875,1,0,0,-5.0859375,-4.79296875,1,0,0,0,154,154,138,1,,,,,,,,
,,,,,,,,,,,,,FF,,,,,,,,1.5669,,,,,,,,,,,,,,,,,,,,,,61004e071430aab85ba2ac18,61036e7ada011bc3983fb8be,2021-07-29_20h14.54.689,Simcolourproject_2stim_asymm_v5,2020.2.10,MacIntel,60,61025ae37ef11b136ea224fe,,,,,,,,,3628,45.5703125,61.859375,1,0,0,response1disk,,7,12.02734375,11.16796875,1,0,0,rectangle,12.02734375,11.16796875,1,0,0,12.02734375,11.16796875,1,0,0,0,155,155,101,1,,,,,,,,
,,,,,,,,,,,,,FF,,,,,,,,0.9679,,,,,,,,,,,,,,,,,,,,,,61004e071430aab85ba2ac18,61036e7ada011bc3983fb8be,2021-07-29_20h14.54.689,Simcolourproject_2stim_asymm_v5,2020.2.10,MacIntel,60,61025ae37ef11b136ea224fe,,,,,,,,,1361,36.27734375,50.8359375,1,0,0,response1disk,,7,6.9609375,-8.96484375,1,0,0,rectangle,6.9609375,-8.96484375,1,0,0,6.9609375,-8.96484375,1,0,0,0,156,156,156,1,,,,,,,,
,,,,,,,,,,,,,FF,,,,,,,,0.3989,,,,,,,,,,,,,,,,,,,,,,61004e071430aab85ba2ac18,61036e7ada011bc3983fb8be,2021-07-29_20h14.54.689,Simcolourproject_2stim_asymm_v5,2020.2.10,MacIntel,60,61025ae37ef11b136ea224fe,,,,,,,,,2535,47.46875,100.765625,1,0,0,response1disk,,7,-2.6328125,7.125,1,0,0,rectangle,-2.6328125,7.125,1,0,0,-2.6328125,7.125,1,0,0,0,157,157,158,1,,,,,,,,
,,,,,,,,,,,,,FF,,,,,,,,0.8973,,,,,,,,,,,,,,,,,,,,,,61004e071430aab85ba2ac18,61036e7ada011bc3983fb8be,2021-07-29_20h14.54.689,Simcolourproject_2stim_asymm_v5,2020.2.10,MacIntel,60,61025ae37ef11b136ea224fe,,,,,,,,,3523,34.73046875,73.6953125,1,0,0,response1disk,,7,17.33984375,13.69140625,1,0,0,rectangle,17.33984375,13.69140625,1,0,0,17.33984375,13.69140625,1,0,0,0,158,158,155,1,,,,,,,,
,,,,,,,,,,,,,FF,,,,,,,,0.3836,,,,,,,,,,,,,,,,,,,,,,61004e071430aab85ba2ac18,61036e7ada011bc3983fb8be,2021-07-29_20h14.54.689,Simcolourproject_2stim_asymm_v5,2020.2.10,MacIntel,60,61025ae37ef11b136ea224fe,,,,,,,,,753,40.2421875,56.57421875,1,0,0,response1disk,,7,24.94140625,-0.04296875,1,0,0,rectangle,24.94140625,-0.04296875,1,0,0,24.94140625,-0.04296875,1,0,0,0,159,159,131,1,,,,,,,,
,,,,,,,,,,,,,FF,,,,,,,,0.4346,,,,,,,,,,,,,,,,,,,,,,61004e071430aab85ba2ac18,61036e7ada011bc3983fb8be,2021-07-29_20h14.54.689,Simcolourproject_2stim_asymm_v5,2020.2.10,MacIntel,60,61025ae37ef11b136ea224fe,,,,,,,,,102,27.96484375,118.1289063,1,0,0,response1disk,,7,-13.39453125,-3.8984375,1,0,0,rectangle,-13.39453125,-3.8984375,1,0,0,-13.39453125,-3.8984375,1,0,0,1,0,160,107,1,,,,,,,,
,,,,,,,,,,,,,FF,,,,,,,,0.5814,,,,,,,,,,,,,,,,,,,,,,61004e071430aab85ba2ac18,61036e7ada011bc3983fb8be,2021-07-29_20h14.54.689,Simcolourproject_2stim_asymm_v5,2020.2.10,MacIntel,60,61025ae37ef11b136ea224fe,,,,,,,,,1988,50.30078125,90.4921875,1,0,0,response1disk,,7,18.41796875,10.19140625,1,0,0,rectangle,18.41796875,10.19140625,1,0,0,18.41796875,10.19140625,1,0,0,1,1,161,12,1,,,,,,,,
,,,,,,,,,,,,,FF,,,,,,,,0.3163,,,,,,,,,,,,,,,,,,,,,,61004e071430aab85ba2ac18,61036e7ada011bc3983fb8be,2021-07-29_20h14.54.689,Simcolourproject_2stim_asymm_v5,2020.2.10,MacIntel,60,61025ae37ef11b136ea224fe,,,,,,,,,1662,48.41796875,85.8046875,1,0,0,response1disk,,7,2.69140625,3.39453125,1,0,0,rectangle,2.69140625,3.39453125,1,0,0,2.69140625,3.39453125,1,0,0,1,2,162,113,1,,,,,,,,
,,,,,,,,,,,,,FF,,,,,,,,0.45,,,,,,,,,,,,,,,,,,,,,,61004e071430aab85ba2ac18,61036e7ada011bc3983fb8be,2021-07-29_20h14.54.689,Simcolourproject_2stim_asymm_v5,2020.2.10,MacIntel,60,61025ae37ef11b136ea224fe,,,,,,,,,2814,22.5,88.515625,1,0,0,response1disk,,7,-5.7109375,8.93359375,1,0,0,rectangle,-5.7109375,8.93359375,1,0,0,-5.7109375,8.93359375,1,0,0,1,3,163,144,1,,,,,,,,
,,,,,,,,,,,,,FF,,,,,,,,0.768,,,,,,,,,,,,,,,,,,,,,,61004e071430aab85ba2ac18,61036e7ada011bc3983fb8be,2021-07-29_20h14.54.689,Simcolourproject_2stim_asymm_v5,2020.2.10,MacIntel,60,61025ae37ef11b136ea224fe,,,,,,,,,3661,-78.4375,65.41015625,1,0,0,response7disk,,1,-11.0625,1.12109375,1,0,0,rectangle,-63.22265625,38.16796875,1,0,0,-11.39453125,-6.02734375,1,0,0,1,4,164,150,1,,response7disk_3,TRUE,1,1,"[2,106,286,54,244,203,76,202,147,165,296,272,63,38,277,54,320,11,281,181]",1.1526,rectangle
,,,,,,,,,,,,,FF,,,,,,,,0.6844,,,,,,,,,,,,,,,,,,,,,,61004e071430aab85ba2ac18,61036e7ada011bc3983fb8be,2021-07-29_20h14.54.689,Simcolourproject_2stim_asymm_v5,2020.2.10,MacIntel,60,61025ae37ef11b136ea224fe,,,,,,,,,2766,24.8515625,107.7382813,1,0,0,response1disk,,7,12.17578125,4.015625,1,0,0,rectangle,12.17578125,4.015625,1,0,0,12.17578125,4.015625,1,0,0,1,5,165,29,1,,,,,,,,
,,,,,,,,,,,,,FF,,,,,,,,0.6495,,,,,,,,,,,,,,,,,,,,,,61004e071430aab85ba2ac18,61036e7ada011bc3983fb8be,2021-07-29_20h14.54.689,Simcolourproject_2stim_asymm_v5,2020.2.10,MacIntel,60,61025ae37ef11b136ea224fe,,,,,,,,,3213,24.19140625,59.76171875,1,0,0,response1disk,,7,6.30859375,-7.11328125,1,0,0,rectangle,6.30859375,-7.11328125,1,0,0,6.30859375,-7.11328125,1,0,0,1,6,166,56,1,,,,,,,,
,,,,,,,,,,,,,FF,,,,,,,,1.8,,,,,,,,,,,,,,,,,,,,,,61004e071430aab85ba2ac18,61036e7ada011bc3983fb8be,2021-07-29_20h14.54.689,Simcolourproject_2stim_asymm_v5,2020.2.10,MacIntel,60,61025ae37ef11b136ea224fe,,,,,,,,,4210,40.39453125,79.4453125,1,0,0,response1disk,,7,-7.1953125,-1.05078125,1,0,0,rectangle,-7.1953125,-1.05078125,1,0,0,-7.1953125,-1.05078125,1,0,0,1,7,167,155,1,,,,,,,,
,,,,,,,,,,,,,FF,,,,,,,,0.7504,,,,,,,,,,,,,,,,,,,,,,61004e071430aab85ba2ac18,61036e7ada011bc3983fb8be,2021-07-29_20h14.54.689,Simcolourproject_2stim_asymm_v5,2020.2.10,MacIntel,60,61025ae37ef11b136ea224fe,,,,,,,,,339,24.484375,94.453125,1,0,0,response1disk,,7,-0.97265625,16.3203125,1,0,0,rectangle,-0.97265625,16.3203125,1,0,0,-0.97265625,16.3203125,1,0,0,1,8,168,158,1,,,,,,,,
,,,,,,,,,,,,,FF,,,,,,,,0.368,,,,,,,,,,,,,,,,,,,,,,61004e071430aab85ba2ac18,61036e7ada011bc3983fb8be,2021-07-29_20h14.54.689,Simcolourproject_2stim_asymm_v5,2020.2.10,MacIntel,60,61025ae37ef11b136ea224fe,,,,,,,,,2310,55.97265625,84.1484375,1,0,0,response1disk,,7,9.828125,5.86328125,1,0,0,rectangle,9.828125,5.86328125,1,0,0,9.828125,5.86328125,1,0,0,1,9,169,73,1,,,,,,,,
,,,,,,,,,,,,,FF,,,,,,,,0.3002,,,,,,,,,,,,,,,,,,,,,,61004e071430aab85ba2ac18,61036e7ada011bc3983fb8be,2021-07-29_20h14.54.689,Simcolourproject_2stim_asymm_v5,2020.2.10,MacIntel,60,61025ae37ef11b136ea224fe,,,,,,,,,944,55.6875,80.46484375,1,0,0,response1disk,,7,3.71875,0.58203125,1,0,0,rectangle,3.71875,0.58203125,1,0,0,3.71875,0.58203125,1,0,0,1,10,170,7,1,,,,,,,,
,,,,,,,,,,,,,FF,,,,,,,,0.3158,,,,,,,,,,,,,,,,,,,,,,61004e071430aab85ba2ac18,61036e7ada011bc3983fb8be,2021-07-29_20h14.54.689,Simcolourproject_2stim_asymm_v5,2020.2.10,MacIntel,60,61025ae37ef11b136ea224fe,,,,,,,,,3309,30.16015625,107.78125,1,0,0,response1disk,,7,-11.078125,-9.21875,1,0,0,rectangle,-11.078125,-9.21875,1,0,0,-11.078125,-9.21875,1,0,0,1,11,171,106,1,,,,,,,,
,,,,,,,,,,,,,FF,,,,,,,,0.5334,,,,,,,,,,,,,,,,,,,,,,61004e071430aab85ba2ac18,61036e7ada011bc3983fb8be,2021-07-29_20h14.54.689,Simcolourproject_2stim_asymm_v5,2020.2.10,MacIntel,60,61025ae37ef11b136ea224fe,,,,,,,,,3218,34.77734375,86.82421875,1,0,0,response1disk,,7,-5.4140625,12.76171875,1,0,0,rectangle,-5.4140625,12.76171875,1,0,0,-5.4140625,12.76171875,1,0,0,1,12,172,28,1,,,,,,,,
,,,,,,,,,,,,,FF,,,,,,,,0.3494,,,,,,,,,,,,,,,,,,,,,,61004e071430aab85ba2ac18,61036e7ada011bc3983fb8be,2021-07-29_20h14.54.689,Simcolourproject_2stim_asymm_v5,2020.2.10,MacIntel,60,61025ae37ef11b136ea224fe,,,,,,,,,391,39.4921875,75.40625,1,0,0,response1disk,,7,-4.296875,-0.37109375,1,0,0,rectangle,-4.296875,-0.37109375,1,0,0,-4.296875,-0.37109375,1,0,0,1,13,173,119,1,,,,,,,,
,,,,,,,,,,,,,FF,,,,,,,,0.3162,,,,,,,,,,,,,,,,,,,,,,61004e071430aab85ba2ac18,61036e7ada011bc3983fb8be,2021-07-29_20h14.54.689,Simcolourproject_2stim_asymm_v5,2020.2.10,MacIntel,60,61025ae37ef11b136ea224fe,,,,,,,,,3035,44.61328125,59.828125,1,0,0,response1disk,,7,0.23828125,-5.87890625,1,0,0,rectangle,0.23828125,-5.87890625,1,0,0,0.23828125,-5.87890625,1,0,0,1,14,174,26,1,,,,,,,,
,,,,,,,,,,,,,FF,,,,,,,,0.8163,,,,,,,,,,,,,,,,,,,,,,61004e071430aab85ba2ac18,61036e7ada011bc3983fb8be,2021-07-29_20h14.54.689,Simcolourproject_2stim_asymm_v5,2020.2.10,MacIntel,60,61025ae37ef11b136ea224fe,,,,,,,,,3426,-91.953125,50.94140625,1,0,0,response7disk,,1,-9.98828125,14.2890625,1,0,0,rectangle,-9.98828125,14.2890625,1,0,0,-9.98828125,14.2890625,1,0,0,1,15,175,100,1,,,,,,,,
,,,,,,,,,,,,,FF,,,,,,,,0.4669,,,,,,,,,,,,,,,,,,,,,,61004e071430aab85ba2ac18,61036e7ada011bc3983fb8be,2021-07-29_20h14.54.689,Simcolourproject_2stim_asymm_v5,2020.2.10,MacIntel,60,61025ae37ef11b136ea224fe,,,,,,,,,4291,21.72265625,80.38671875,1,0,0,response1disk,,7,-14.359375,3.88671875,1,0,0,rectangle,-14.359375,3.88671875,1,0,0,-14.359375,3.88671875,1,0,0,1,16,176,128,1,,,,,,,,
,,,,,,,,,,,,,FF,,,,,,,,0.4987,,,,,,,,,,,,,,,,,,,,,,61004e071430aab85ba2ac18,61036e7ada011bc3983fb8be,2021-07-29_20h14.54.689,Simcolourproject_2stim_asymm_v5,2020.2.10,MacIntel,60,61025ae37ef11b136ea224fe,,,,,,,,,1716,25.26953125,47.015625,1,0,0,response1disk,,7,7.3359375,4.265625,1,0,0,rectangle,7.3359375,4.265625,1,0,0,7.3359375,4.265625,1,0,0,1,17,177,53,1,,,,,,,,
,,,,,,,,,,,,,FF,,,,,,,,0.3659,,,,,,,,,,,,,,,,,,,,,,61004e071430aab85ba2ac18,61036e7ada011bc3983fb8be,2021-07-29_20h14.54.689,Simcolourproject_2stim_asymm_v5,2020.2.10,MacIntel,60,61025ae37ef11b136ea224fe,,,,,,,,,395,46.23046875,106.7460938,1,0,0,response1disk,,7,5.484375,0,1,0,0,rectangle,5.484375,0,1,0,0,5.484375,0,1,0,0,1,18,178,8,1,,,,,,,,
,,,,,,,,,,,,,FF,,,,,,,,0.333,,,,,,,,,,,,,,,,,,,,,,61004e071430aab85ba2ac18,61036e7ada011bc3983fb8be,2021-07-29_20h14.54.689,Simcolourproject_2stim_asymm_v5,2020.2.10,MacIntel,60,61025ae37ef11b136ea224fe,,,,,,,,,2070,47.73828125,58.3125,1,0,0,response1disk,,7,9.2734375,-0.3125,1,0,0,rectangle,9.2734375,-0.3125,1,0,0,9.2734375,-0.3125,1,0,0,1,19,179,79,1,,,,,,,,
,,,,,,,,,,,,,FF,,,,,,,,0.3504,,,,,,,,,,,,,,,,,,,,,,61004e071430aab85ba2ac18,61036e7ada011bc3983fb8be,2021-07-29_20h14.54.689,Simcolourproject_2stim_asymm_v5,2020.2.10,MacIntel,60,61025ae37ef11b136ea224fe,,,,,,,,,2460,33.84375,81.4296875,1,0,0,response1disk,,7,1.6640625,-9.953125,1,0,0,rectangle,-40.0703125,91.15234375,1,0,0,-4.66015625,9.41796875,1,0,0,1,20,180,139,1,,response7disk_3,TRUE,0,0,"[2,106,286,54,244,203,76,202,147,165,296,272,63,38,277,54,320,11,281,181]",1.5489,rectangle
,,,,,,,,,,,,,FF,,,,,,,,0.8177,,,,,,,,,,,,,,,,,,,,,,61004e071430aab85ba2ac18,61036e7ada011bc3983fb8be,2021-07-29_20h14.54.689,Simcolourproject_2stim_asymm_v5,2020.2.10,MacIntel,60,61025ae37ef11b136ea224fe,,,,,,,,,3885,37.7265625,85.3203125,1,0,0,response1disk,,7,6.28515625,-5.4296875,1,0,0,rectangle,6.28515625,-5.4296875,1,0,0,6.28515625,-5.4296875,1,0,0,1,21,181,101,1,,,,,,,,
,,,,,,,,,,,,,FF,,,,,,,,0.5164,,,,,,,,,,,,,,,,,,,,,,61004e071430aab85ba2ac18,61036e7ada011bc3983fb8be,2021-07-29_20h14.54.689,Simcolourproject_2stim_asymm_v5,2020.2.10,MacIntel,60,61025ae37ef11b136ea224fe,,,,,,,,,4134,50.81640625,82.6875,1,0,0,response1disk,,7,23.68359375,11.79296875,1,0,0,rectangle,23.68359375,11.79296875,1,0,0,23.68359375,11.79296875,1,0,0,1,22,182,117,1,,,,,,,,
,,,,,,,,,,,,,FF,,,,,,,,0.5327,,,,,,,,,,,,,,,,,,,,,,61004e071430aab85ba2ac18,61036e7ada011bc3983fb8be,2021-07-29_20h14.54.689,Simcolourproject_2stim_asymm_v5,2020.2.10,MacIntel,60,61025ae37ef11b136ea224fe,,,,,,,,,2966,42.6171875,62.10546875,1,0,0,response1disk,,7,29.07421875,-4.04296875,1,0,0,rectangle,29.07421875,-4.04296875,1,0,0,29.07421875,-4.04296875,1,0,0,1,23,183,69,1,,,,,,,,
,,,,,,,,,,,,,FF,,,,,,,,0.3169,,,,,,,,,,,,,,,,,,,,,,61004e071430aab85ba2ac18,61036e7ada011bc3983fb8be,2021-07-29_20h14.54.689,Simcolourproject_2stim_asymm_v5,2020.2.10,MacIntel,60,61025ae37ef11b136ea224fe,,,,,,,,,4152,57.1953125,71.6796875,1,0,0,response1disk,,7,19.5,11.75,1,0,0,rectangle,19.5,11.75,1,0,0,19.5,11.75,1,0,0,1,24,184,32,1,,,,,,,,
,,,,,,,,,,,,,FF,,,,,,,,0.4383,,,,,,,,,,,,,,,,,,,,,,61004e071430aab85ba2ac18,61036e7ada011bc3983fb8be,2021-07-29_20h14.54.689,Simcolourproject_2stim_asymm_v5,2020.2.10,MacIntel,60,61025ae37ef11b136ea224fe,,,,,,,,,3892,38.83984375,92.58203125,1,0,0,response1disk,,7,1.33203125,-0.625,1,0,0,rectangle,1.33203125,-0.625,1,0,0,1.33203125,-0.625,1,0,0,1,25,185,9,1,,,,,,,,
,,,,,,,,,,,,,FF,,,,,,,,1.5997,,,,,,,,,,,,,,,,,,,,,,61004e071430aab85ba2ac18,61036e7ada011bc3983fb8be,2021-07-29_20h14.54.689,Simcolourproject_2stim_asymm_v5,2020.2.10,MacIntel,60,61025ae37ef11b136ea224fe,,,,,,,,,2971,35.27734375,61.87109375,1,0,0,response1disk,,7,4.42578125,1.71484375,1,0,0,rectangle,4.42578125,1.71484375,1,0,0,4.42578125,1.71484375,1,0,0,1,26,186,83,1,,,,,,,,
,,,,,,,,,,,,,FF,,,,,,,,0.4508,,,,,,,,,,,,,,,,,,,,,,61004e071430aab85ba2ac18,61036e7ada011bc3983fb8be,2021-07-29_20h14.54.689,Simcolourproject_2stim_asymm_v5,2020.2.10,MacIntel,60,61025ae37ef11b136ea224fe,,,,,,,,,3964,33.96875,83.46484375,1,0,0,response1disk,,7,1.83203125,14.05859375,1,0,0,rectangle,1.83203125,14.05859375,1,0,0,1.83203125,14.05859375,1,0,0,1,27,187,57,1,,,,,,,,
,,,,,,,,,,,,,FF,,,,,,,,1.5673,,,,,,,,,,,,,,,,,,,,,,61004e071430aab85ba2ac18,61036e7ada011bc3983fb8be,2021-07-29_20h14.54.689,Simcolourproject_2stim_asymm_v5,2020.2.10,MacIntel,60,61025ae37ef11b136ea224fe,,,,,,,,,3757,40.69921875,-47.57421875,1,0,0,response3disk,,4,22.640625,4.4453125,1,0,0,rectangle,22.640625,4.4453125,1,0,0,22.640625,4.4453125,1,0,0,1,28,188,16,1,,,,,,,,
,,,,,,,,,,,,,FF,,,,,,,,1.8487,,,,,,,,,,,,,,,,,,,,,,61004e071430aab85ba2ac18,61036e7ada011bc3983fb8be,2021-07-29_20h14.54.689,Simcolourproject_2stim_asymm_v5,2020.2.10,MacIntel,60,61025ae37ef11b136ea224fe,,,,,,,,,640,29.98046875,-84.73046875,1,0,0,response3disk,,4,25.828125,-8.46875,1,0,0,rectangle,25.828125,-8.46875,1,0,0,25.828125,-8.46875,1,0,0,1,29,189,72,1,,,,,,,,
,,,,,,,,,,,,,FF,,,,,,,,0.5127,,,,,,,,,,,,,,,,,,,,,,61004e071430aab85ba2ac18,61036e7ada011bc3983fb8be,2021-07-29_20h14.54.689,Simcolourproject_2stim_asymm_v5,2020.2.10,MacIntel,60,61025ae37ef11b136ea224fe,,,,,,,,,1402,37.65625,76.484375,1,0,0,response1disk,,7,21.7421875,12.92578125,1,0,0,rectangle,21.7421875,12.92578125,1,0,0,21.7421875,12.92578125,1,0,0,1,30,190,24,1,,,,,,,,
,,,,,,,,,,,,,FF,,,,,,,,0.3,,,,,,,,,,,,,,,,,,,,,,61004e071430aab85ba2ac18,61036e7ada011bc3983fb8be,2021-07-29_20h14.54.689,Simcolourproject_2stim_asymm_v5,2020.2.10,MacIntel,60,61025ae37ef11b136ea224fe,,,,,,,,,1367,41.8671875,104.4375,1,0,0,response1disk,,7,14.83984375,-5.015625,1,0,0,rectangle,14.83984375,-5.015625,1,0,0,14.83984375,-5.015625,1,0,0,1,31,191,82,1,,,,,,,,
,,,,,,,,,,,,,FF,,,,,,,,0.3329,,,,,,,,,,,,,,,,,,,,,,61004e071430aab85ba2ac18,61036e7ada011bc3983fb8be,2021-07-29_20h14.54.689,Simcolourproject_2stim_asymm_v5,2020.2.10,MacIntel,60,61025ae37ef11b136ea224fe,,,,,,,,,2216,49.4609375,72.5,1,0,0,response1disk,,7,8.99609375,-11.01171875,1,0,0,rectangle,8.99609375,-11.01171875,1,0,0,8.99609375,-11.01171875,1,0,0,1,32,192,135,1,,,,,,,,
,,,,,,,,,,,,,FF,,,,,,,,0.3184,,,,,,,,,,,,,,,,,,,,,,61004e071430aab85ba2ac18,61036e7ada011bc3983fb8be,2021-07-29_20h14.54.689,Simcolourproject_2stim_asymm_v5,2020.2.10,MacIntel,60,61025ae37ef11b136ea224fe,,,,,,,,,2528,45.74609375,84.33203125,1,0,0,response1disk,,7,6.61328125,11.67578125,1,0,0,rectangle,6.61328125,11.67578125,1,0,0,6.61328125,11.67578125,1,0,0,1,33,193,98,1,,,,,,,,
,,,,,,,,,,,,,FF,,,,,,,,0.3647,,,,,,,,,,,,,,,,,,,,,,61004e071430aab85ba2ac18,61036e7ada011bc3983fb8be,2021-07-29_20h14.54.689,Simcolourproject_2stim_asymm_v5,2020.2.10,MacIntel,60,61025ae37ef11b136ea224fe,,,,,,,,,104,40.25,76.9921875,1,0,0,response1disk,,7,12.20703125,4.75390625,1,0,0,rectangle,12.20703125,4.75390625,1,0,0,12.20703125,4.75390625,1,0,0,1,34,194,47,1,,,,,,,,
,,,,,,,,,,,,,FF,,,,,,,,0.3668,,,,,,,,,,,,,,,,,,,,,,61004e071430aab85ba2ac18,61036e7ada011bc3983fb8be,2021-07-29_20h14.54.689,Simcolourproject_2stim_asymm_v5,2020.2.10,MacIntel,60,61025ae37ef11b136ea224fe,,,,,,,,,1987,43.49609375,67.40625,1,0,0,response1disk,,7,19.59765625,10.3984375,1,0,0,rectangle,19.59765625,10.3984375,1,0,0,19.59765625,10.3984375,1,0,0,1,35,195,88,1,,,,,,,,
,,,,,,,,,,,,,FF,,,,,,,,1.3836,,,,,,,,,,,,,,,,,,,,,,61004e071430aab85ba2ac18,61036e7ada011bc3983fb8be,2021-07-29_20h14.54.689,Simcolourproject_2stim_asymm_v5,2020.2.10,MacIntel,60,61025ae37ef11b136ea224fe,,,,,,,,,101,-64.40234375,-56.1015625,1,0,0,response5disk,,2,-0.05078125,-15.6171875,1,0,0,rectangle,-0.05078125,-15.6171875,1,0,0,-0.05078125,-15.6171875,1,0,0,1,36,196,48,1,,,,,,,,
,,,,,,,,,,,,,FF,,,,,,,,0.3839,,,,,,,,,,,,,,,,,,,,,,61004e071430aab85ba2ac18,61036e7ada011bc3983fb8be,2021-07-29_20h14.54.689,Simcolourproject_2stim_asymm_v5,2020.2.10,MacIntel,60,61025ae37ef11b136ea224fe,,,,,,,,,1623,38.61328125,106.1289063,1,0,0,response1disk,,7,5.9140625,14.58984375,1,0,0,rectangle,5.9140625,14.58984375,1,0,0,5.9140625,14.58984375,1,0,0,1,37,197,19,1,,,,,,,,
,,,,,,,,,,,,,FF,,,,,,,,0.2496,,,,,,,,,,,,,,,,,,,,,,61004e071430aab85ba2ac18,61036e7ada011bc3983fb8be,2021-07-29_20h14.54.689,Simcolourproject_2stim_asymm_v5,2020.2.10,MacIntel,60,61025ae37ef11b136ea224fe,,,,,,,,,832,45.015625,76.33984375,1,0,0,response1disk,,7,19.94921875,6.0078125,1,0,0,rectangle,19.94921875,6.0078125,1,0,0,19.94921875,6.0078125,1,0,0,1,38,198,87,1,,,,,,,,
,,,,,,,,,,,,,FF,,,,,,,,0.3162,,,,,,,,,,,,,,,,,,,,,,61004e071430aab85ba2ac18,61036e7ada011bc3983fb8be,2021-07-29_20h14.54.689,Simcolourproject_2stim_asymm_v5,2020.2.10,MacIntel,60,61025ae37ef11b136ea224fe,,,,,,,,,792,50.2109375,59.9921875,1,0,0,response1disk,,7,16.0078125,3.734375,1,0,0,rectangle,16.0078125,3.734375,1,0,0,16.0078125,3.734375,1,0,0,1,39,199,156,1,,,,,,,,
,,,,,,,,,,,,,FF,,,,,,,,0.3136,,,,,,,,,,,,,,,,,,,,,,61004e071430aab85ba2ac18,61036e7ada011bc3983fb8be,2021-07-29_20h14.54.689,Simcolourproject_2stim_asymm_v5,2020.2.10,MacIntel,60,61025ae37ef11b136ea224fe,,,,,,,,,1304,41.19140625,72.33984375,1,0,0,response1disk,,7,17.0859375,13.03125,1,0,0,rectangle,17.0859375,13.03125,1,0,0,17.0859375,13.03125,1,0,0,1,40,200,86,1,,,,,,,,
,,,,,,,,,,,,,FF,,,,,,,,0.732,,,,,,,,,,,,,,,,,,,,,,61004e071430aab85ba2ac18,61036e7ada011bc3983fb8be,2021-07-29_20h14.54.689,Simcolourproject_2stim_asymm_v5,2020.2.10,MacIntel,60,61025ae37ef11b136ea224fe,,,,,,,,,3910,-74.33203125,31.60546875,1,0,0,response7disk,,1,-29.2578125,1.35546875,1,0,0,rectangle,-56.640625,27.9765625,1,0,0,16.98828125,-8.0078125,1,0,0,1,41,201,78,1,,response7disk_3,TRUE,1,1,"[2,106,286,54,244,203,76,202,147,165,296,272,63,38,277,54,320,11,281,181]",1.1162,rectangle
,,,,,,,,,,,,,FF,,,,,,,,0.5014,,,,,,,,,,,,,,,,,,,,,,61004e071430aab85ba2ac18,61036e7ada011bc3983fb8be,2021-07-29_20h14.54.689,Simcolourproject_2stim_asymm_v5,2020.2.10,MacIntel,60,61025ae37ef11b136ea224fe,,,,,,,,,3145,41.3125,71.375,1,0,0,response1disk,,7,-13.26953125,-17.44921875,1,0,0,rectangle,85.25390625,-33.53125,1,0,0,-1.609375,-6,1,0,0,1,42,202,30,1,,response3disk_3,TRUE,5,5,"[2,106,286,54,244,203,76,202,147,165,296,272,63,38,277,54,320,11,281,181]",1.3833,rectangle
,,,,,,,,,,,,,FF,,,,,,,,0.8439,,,,,,,,,,,,,,,,,,,,,,61004e071430aab85ba2ac18,61036e7ada011bc3983fb8be,2021-07-29_20h14.54.689,Simcolourproject_2stim_asymm_v5,2020.2.10,MacIntel,60,61025ae37ef11b136ea224fe,,,,,,,,,3659,19.515625,91.5390625,1,0,0,response1disk,,7,-26.77734375,-2.35546875,1,0,0,rectangle,-26.77734375,-2.35546875,1,0,0,-26.77734375,-2.35546875,1,0,0,1,43,203,137,1,,,,,,,,
,,,,,,,,,,,,,FF,,,,,,,,0.3326,,,,,,,,,,,,,,,,,,,,,,61004e071430aab85ba2ac18,61036e7ada011bc3983fb8be,2021-07-29_20h14.54.689,Simcolourproject_2stim_asymm_v5,2020.2.10,MacIntel,60,61025ae37ef11b136ea224fe,,,,,,,,,3852,36.70703125,65.8125,1,0,0,response1disk,,7,18.79296875,7.40625,1,0,0,rectangle,18.79296875,7.40625,1,0,0,18.79296875,7.40625,1,0,0,1,44,204,51,1,,,,,,,,
,,,,,,,,,,,,,FF,,,,,,,,0.3676,,,,,,,,,,,,,,,,,,,,,,61004e071430aab85ba2ac18,61036e7ada011bc3983fb8be,2021-07-29_20h14.54.689,Simcolourproject_2stim_asymm_v5,2020.2.10,MacIntel,60,61025ae37ef11b136ea224fe,,,,,,,,,1932,47.1328125,73.3828125,1,0,0,response1disk,,7,13.51171875,17.64453125,1,0,0,rectangle,13.51171875,17.64453125,1,0,0,13.51171875,17.64453125,1,0,0,1,45,205,21,1,,,,,,,,
,,,,,,,,,,,,,FF,,,,,,,,0.6987,,,,,,,,,,,,,,,,,,,,,,61004e071430aab85ba2ac18,61036e7ada011bc3983fb8be,2021-07-29_20h14.54.689,Simcolourproject_2stim_asymm_v5,2020.2.10,MacIntel,60,61025ae37ef11b136ea224fe,,,,,,,,,1384,-67.9765625,49.08203125,1,0,0,response7disk,,1,1.796875,5.45703125,1,0,0,rectangle,1.796875,5.45703125,1,0,0,1.796875,5.45703125,1,0,0,1,46,206,97,1,,,,,,,,
,,,,,,,,,,,,,FF,,,,,,,,1.4494,,,,,,,,,,,,,,,,,,,,,,61004e071430aab85ba2ac18,61036e7ada011bc3983fb8be,2021-07-29_20h14.54.689,Simcolourproject_2stim_asymm_v5,2020.2.10,MacIntel,60,61025ae37ef11b136ea224fe,,,,,,,,,3160,39.4140625,-86.4140625,1,0,0,response3disk,,4,3.2734375,0.94140625,1,0,0,rectangle,3.2734375,0.94140625,1,0,0,3.2734375,0.94140625,1,0,0,1,47,207,127,1,,,,,,,,
,,,,,,,,,,,,,FF,,,,,,,,0.467,,,,,,,,,,,,,,,,,,,,,,61004e071430aab85ba2ac18,61036e7ada011bc3983fb8be,2021-07-29_20h14.54.689,Simcolourproject_2stim_asymm_v5,2020.2.10,MacIntel,60,61025ae37ef11b136ea224fe,,,,,,,,,648,39.89453125,87.93359375,1,0,0,response1disk,,7,20.921875,15.41796875,1,0,0,rectangle,20.921875,15.41796875,1,0,0,20.921875,15.41796875,1,0,0,1,48,208,63,1,,,,,,,,
,,,,,,,,,,,,,FF,,,,,,,,1.5362,,,,,,,,,,,,,,,,,,,,,,61004e071430aab85ba2ac18,61036e7ada011bc3983fb8be,2021-07-29_20h14.54.689,Simcolourproject_2stim_asymm_v5,2020.2.10,MacIntel,60,61025ae37ef11b136ea224fe,,,,,,,,,3138,-52.90234375,-97.58984375,1,0,0,response5disk,,3,-18.39453125,-8.58984375,1,0,0,rectangle,-18.39453125,-8.58984375,1,0,0,-18.39453125,-8.58984375,1,0,0,1,49,209,94,1,,,,,,,,
,,,,,,,,,,,,,FF,,,,,,,,0.8513,,,,,,,,,,,,,,,,,,,,,,61004e071430aab85ba2ac18,61036e7ada011bc3983fb8be,2021-07-29_20h14.54.689,Simcolourproject_2stim_asymm_v5,2020.2.10,MacIntel,60,61025ae37ef11b136ea224fe,,,,,,,,,3299,60.86328125,84.125,1,0,0,response1disk,,7,12.07421875,10.453125,1,0,0,rectangle,12.07421875,10.453125,1,0,0,12.07421875,10.453125,1,0,0,1,50,210,77,1,,,,,,,,
,,,,,,,,,,,,,FF,,,,,,,,0.3338,,,,,,,,,,,,,,,,,,,,,,61004e071430aab85ba2ac18,61036e7ada011bc3983fb8be,2021-07-29_20h14.54.689,Simcolourproject_2stim_asymm_v5,2020.2.10,MacIntel,60,61025ae37ef11b136ea224fe,,,,,,,,,2149,27.984375,68.375,1,0,0,response1disk,,7,-10.91796875,-2.109375,1,0,0,rectangle,-10.91796875,-2.109375,1,0,0,-10.91796875,-2.109375,1,0,0,1,51,211,54,1,,,,,,,,
,,,,,,,,,,,,,FF,,,,,,,,0.3524,,,,,,,,,,,,,,,,,,,,,,61004e071430aab85ba2ac18,61036e7ada011bc3983fb8be,2021-07-29_20h14.54.689,Simcolourproject_2stim_asymm_v5,2020.2.10,MacIntel,60,61025ae37ef11b136ea224fe,,,,,,,,,3724,41.11328125,82.1484375,1,0,0,response1disk,,7,0.67578125,-3.9140625,1,0,0,rectangle,0.67578125,-3.9140625,1,0,0,0.67578125,-3.9140625,1,0,0,1,52,212,81,1,,,,,,,,
,,,,,,,,,,,,,FF,,,,,,,,0.3332,,,,,,,,,,,,,,,,,,,,,,61004e071430aab85ba2ac18,61036e7ada011bc3983fb8be,2021-07-29_20h14.54.689,Simcolourproject_2stim_asymm_v5,2020.2.10,MacIntel,60,61025ae37ef11b136ea224fe,,,,,,,,,3032,42.54296875,73.10546875,1,0,0,response1disk,,7,-0.26953125,-7.03515625,1,0,0,rectangle,-0.26953125,-7.03515625,1,0,0,-0.26953125,-7.03515625,1,0,0,1,53,213,76,1,,,,,,,,
,,,,,,,,,,,,,FF,,,,,,,,0.3643,,,,,,,,,,,,,,,,,,,,,,61004e071430aab85ba2ac18,61036e7ada011bc3983fb8be,2021-07-29_20h14.54.689,Simcolourproject_2stim_asymm_v5,2020.2.10,MacIntel,60,61025ae37ef11b136ea224fe,,,,,,,,,2685,41.27734375,71.9453125,1,0,0,response1disk,,7,12.65234375,9.84375,1,0,0,rectangle,12.65234375,9.84375,1,0,0,12.65234375,9.84375,1,0,0,1,54,214,46,1,,,,,,,,
,,,,,,,,,,,,,FF,,,,,,,,0.2333,,,,,,,,,,,,,,,,,,,,,,61004e071430aab85ba2ac18,61036e7ada011bc3983fb8be,2021-07-29_20h14.54.689,Simcolourproject_2stim_asymm_v5,2020.2.10,MacIntel,60,61025ae37ef11b136ea224fe,,,,,,,,,1140,42.9765625,89.57421875,1,0,0,response1disk,,7,3.578125,10.71875,1,0,0,rectangle,3.578125,10.71875,1,0,0,3.578125,10.71875,1,0,0,1,55,215,123,1,,,,,,,,
,,,,,,,,,,,,,FF,,,,,,,,0.7331,,,,,,,,,,,,,,,,,,,,,,61004e071430aab85ba2ac18,61036e7ada011bc3983fb8be,2021-07-29_20h14.54.689,Simcolourproject_2stim_asymm_v5,2020.2.10,MacIntel,60,61025ae37ef11b136ea224fe,,,,,,,,,3918,26.2890625,85.28125,1,0,0,response1disk,,7,-11.3203125,4.20703125,1,0,0,rectangle,-11.3203125,4.20703125,1,0,0,-11.3203125,4.20703125,1,0,0,1,56,216,131,1,,,,,,,,
,,,,,,,,,,,,,FF,,,,,,,,1,,,,,,,,,,,,,,,,,,,,,,61004e071430aab85ba2ac18,61036e7ada011bc3983fb8be,2021-07-29_20h14.54.689,Simcolourproject_2stim_asymm_v5,2020.2.10,MacIntel,60,61025ae37ef11b136ea224fe,,,,,,,,,444,-72.00390625,35.5234375,1,0,0,response7disk,,1,2.39453125,-4.6875,1,0,0,rectangle,2.39453125,-4.6875,1,0,0,2.39453125,-4.6875,1,0,0,1,57,217,110,1,,,,,,,,
,,,,,,,,,,,,,FF,,,,,,,,0.4919,,,,,,,,,,,,,,,,,,,,,,61004e071430aab85ba2ac18,61036e7ada011bc3983fb8be,2021-07-29_20h14.54.689,Simcolourproject_2stim_asymm_v5,2020.2.10,MacIntel,60,61025ae37ef11b136ea224fe,,,,,,,,,3957,46.20703125,75.640625,1,0,0,response1disk,,7,9.4765625,6.2890625,1,0,0,rectangle,9.4765625,6.2890625,1,0,0,9.4765625,6.2890625,1,0,0,1,58,218,89,1,,,,,,,,
,,,,,,,,,,,,,FF,,,,,,,,0.3009,,,,,,,,,,,,,,,,,,,,,,61004e071430aab85ba2ac18,61036e7ada011bc3983fb8be,2021-07-29_20h14.54.689,Simcolourproject_2stim_asymm_v5,2020.2.10,MacIntel,60,61025ae37ef11b136ea224fe,,,,,,,,,1463,40.71875,83.63671875,1,0,0,response1disk,,7,16.31640625,17.5390625,1,0,0,rectangle,16.31640625,17.5390625,1,0,0,16.31640625,17.5390625,1,0,0,1,59,219,146,1,,,,,,,,
,,,,,,,,,,,,,FF,,,,,,,,1.2991,,,,,,,,,,,,,,,,,,,,,,61004e071430aab85ba2ac18,61036e7ada011bc3983fb8be,2021-07-29_20h14.54.689,Simcolourproject_2stim_asymm_v5,2020.2.10,MacIntel,60,61025ae37ef11b136ea224fe,,,,,,,,,282,-75.57421875,-48.08203125,1,0,0,response5disk,,2,19.55859375,-0.2109375,1,0,0,rectangle,19.55859375,-0.2109375,1,0,0,19.55859375,-0.2109375,1,0,0,1,60,220,65,1,,,,,,,,
,,,,,,,,,,,,,FF,,,,,,,,0.2645,,,,,,,,,,,,,,,,,,,,,,61004e071430aab85ba2ac18,61036e7ada011bc3983fb8be,2021-07-29_20h14.54.689,Simcolourproject_2stim_asymm_v5,2020.2.10,MacIntel,60,61025ae37ef11b136ea224fe,,,,,,,,,3165,60.37890625,73.3203125,1,0,0,response1disk,,7,10.19921875,11.46875,1,0,0,rectangle,10.19921875,11.46875,1,0,0,10.19921875,11.46875,1,0,0,1,61,221,35,1,,,,,,,,
,,,,,,,,,,,,,FF,,,,,,,,0.6662,,,,,,,,,,,,,,,,,,,,,,61004e071430aab85ba2ac18,61036e7ada011bc3983fb8be,2021-07-29_20h14.54.689,Simcolourproject_2stim_asymm_v5,2020.2.10,MacIntel,60,61025ae37ef11b136ea224fe,,,,,,,,,3098,-77.953125,35.86328125,1,0,0,response7disk,,1,-12.1171875,4.078125,1,0,0,rectangle,-12.1171875,4.078125,1,0,0,-12.1171875,4.078125,1,0,0,1,62,222,27,1,,,,,,,,
,,,,,,,,,,,,,FF,,,,,,,,0.338,,,,,,,,,,,,,,,,,,,,,,61004e071430aab85ba2ac18,61036e7ada011bc3983fb8be,2021-07-29_20h14.54.689,Simcolourproject_2stim_asymm_v5,2020.2.10,MacIntel,60,61025ae37ef11b136ea224fe,,,,,,,,,2432,35.5625,68.61328125,1,0,0,response1disk,,7,-10.73828125,-6.75390625,1,0,0,rectangle,-10.73828125,-6.75390625,1,0,0,-10.73828125,-6.75390625,1,0,0,1,63,223,134,1,,,,,,,,
,,,,,,,,,,,,,FF,,,,,,,,0.4158,,,,,,,,,,,,,,,,,,,,,,61004e071430aab85ba2ac18,61036e7ada011bc3983fb8be,2021-07-29_20h14.54.689,Simcolourproject_2stim_asymm_v5,2020.2.10,MacIntel,60,61025ae37ef11b136ea224fe,,,,,,,,,1159,26.1171875,67.58203125,1,0,0,response1disk,,7,-2.57421875,1.23828125,1,0,0,rectangle,-2.57421875,1.23828125,1,0,0,-2.57421875,1.23828125,1,0,0,1,64,224,116,1,,,,,,,,
,,,,,,,,,,,,,FF,,,,,,,,0.3491,,,,,,,,,,,,,,,,,,,,,,61004e071430aab85ba2ac18,61036e7ada011bc3983fb8be,2021-07-29_20h14.54.689,Simcolourproject_2stim_asymm_v5,2020.2.10,MacIntel,60,61025ae37ef11b136ea224fe,,,,,,,,,2192,40.46484375,66.08203125,1,0,0,response1disk,,7,-11.8984375,0.8125,1,0,0,rectangle,-11.8984375,0.8125,1,0,0,-11.8984375,0.8125,1,0,0,1,65,225,122,1,,,,,,,,
,,,,,,,,,,,,,FF,,,,,,,,0.2986,,,,,,,,,,,,,,,,,,,,,,61004e071430aab85ba2ac18,61036e7ada011bc3983fb8be,2021-07-29_20h14.54.689,Simcolourproject_2stim_asymm_v5,2020.2.10,MacIntel,60,61025ae37ef11b136ea224fe,,,,,,,,,3802,33.03515625,65.3828125,1,0,0,response1disk,,7,-4.4921875,-2.234375,1,0,0,rectangle,-4.4921875,-2.234375,1,0,0,-4.4921875,-2.234375,1,0,0,1,66,226,102,1,,,,,,,,
,,,,,,,,,,,,,FF,,,,,,,,0.2493,,,,,,,,,,,,,,,,,,,,,,61004e071430aab85ba2ac18,61036e7ada011bc3983fb8be,2021-07-29_20h14.54.689,Simcolourproject_2stim_asymm_v5,2020.2.10,MacIntel,60,61025ae37ef11b136ea224fe,,,,,,,,,3797,48.84765625,69.59375,1,0,0,response1disk,,7,11.37109375,11.26171875,1,0,0,rectangle,11.37109375,11.26171875,1,0,0,11.37109375,11.26171875,1,0,0,1,67,227,42,1,,,,,,,,
,,,,,,,,,,,,,FF,,,,,,,,0.2498,,,,,,,,,,,,,,,,,,,,,,61004e071430aab85ba2ac18,61036e7ada011bc3983fb8be,2021-07-29_20h14.54.689,Simcolourproject_2stim_asymm_v5,2020.2.10,MacIntel,60,61025ae37ef11b136ea224fe,,,,,,,,,3273,48.4140625,72.6171875,1,0,0,response1disk,,7,0.8203125,4.86328125,1,0,0,rectangle,0.8203125,4.86328125,1,0,0,0.8203125,4.86328125,1,0,0,1,68,228,125,1,,,,,,,,
,,,,,,,,,,,,,FF,,,,,,,,1.2652,,,,,,,,,,,,,,,,,,,,,,61004e071430aab85ba2ac18,61036e7ada011bc3983fb8be,2021-07-29_20h14.54.689,Simcolourproject_2stim_asymm_v5,2020.2.10,MacIntel,60,61025ae37ef11b136ea224fe,,,,,,,,,99,-55.66796875,-56.21875,1,0,0,response5disk,,3,-7.99609375,-10.98828125,1,0,0,rectangle,-7.99609375,-10.98828125,1,0,0,-7.99609375,-10.98828125,1,0,0,1,69,229,62,1,,,,,,,,
,,,,,,,,,,,,,FF,,,,,,,,0.4677,,,,,,,,,,,,,,,,,,,,,,61004e071430aab85ba2ac18,61036e7ada011bc3983fb8be,2021-07-29_20h14.54.689,Simcolourproject_2stim_asymm_v5,2020.2.10,MacIntel,60,61025ae37ef11b136ea224fe,,,,,,,,,116,47.57421875,72.7265625,1,0,0,response1disk,,7,15.58984375,-10.5546875,1,0,0,rectangle,15.58984375,-10.5546875,1,0,0,15.58984375,-10.5546875,1,0,0,1,70,230,31,1,,,,,,,,
,,,,,,,,,,,,,FF,,,,,,,,0.5328,,,,,,,,,,,,,,,,,,,,,,61004e071430aab85ba2ac18,61036e7ada011bc3983fb8be,2021-07-29_20h14.54.689,Simcolourproject_2stim_asymm_v5,2020.2.10,MacIntel,60,61025ae37ef11b136ea224fe,,,,,,,,,3136,33.32421875,55.515625,1,0,0,response1disk,,7,16.484375,7.2265625,1,0,0,rectangle,16.484375,7.2265625,1,0,0,16.484375,7.2265625,1,0,0,1,71,231,157,1,,,,,,,,
,,,,,,,,,,,,,FF,,,,,,,,0.5992,,,,,,,,,,,,,,,,,,,,,,61004e071430aab85ba2ac18,61036e7ada011bc3983fb8be,2021-07-29_20h14.54.689,Simcolourproject_2stim_asymm_v5,2020.2.10,MacIntel,60,61025ae37ef11b136ea224fe,,,,,,,,,3429,-66.84375,29.81640625,1,0,0,response7disk,,1,-11.81640625,7.96875,1,0,0,rectangle,-11.81640625,7.96875,1,0,0,-11.81640625,7.96875,1,0,0,1,72,232,44,1,,,,,,,,
,,,,,,,,,,,,,FF,,,,,,,,0.519,,,,,,,,,,,,,,,,,,,,,,61004e071430aab85ba2ac18,61036e7ada011bc3983fb8be,2021-07-29_20h14.54.689,Simcolourproject_2stim_asymm_v5,2020.2.10,MacIntel,60,61025ae37ef11b136ea224fe,,,,,,,,,3891,24.1328125,72.796875,1,0,0,response1disk,,7,8.9609375,-3.94140625,1,0,0,rectangle,8.9609375,-3.94140625,1,0,0,8.9609375,-3.94140625,1,0,0,1,73,233,20,1,,,,,,,,
,,,,,,,,,,,,,FF,,,,,,,,1.4316,,,,,,,,,,,,,,,,,,,,,,61004e071430aab85ba2ac18,61036e7ada011bc3983fb8be,2021-07-29_20h14.54.689,Simcolourproject_2stim_asymm_v5,2020.2.10,MacIntel,60,61025ae37ef11b136ea224fe,,,,,,,,,1750,-31.22265625,-57.54296875,1,0,0,response5disk,,3,-2.28125,-0.11328125,1,0,0,rectangle,-2.28125,-0.11328125,1,0,0,-2.28125,-0.11328125,1,0,0,1,74,234,143,1,,,,,,,,
,,,,,,,,,,,,,FF,,,,,,,,0.8665,,,,,,,,,,,,,,,,,,,,,,61004e071430aab85ba2ac18,61036e7ada011bc3983fb8be,2021-07-29_20h14.54.689,Simcolourproject_2stim_asymm_v5,2020.2.10,MacIntel,60,61025ae37ef11b136ea224fe,,,,,,,,,215,43.0859375,83.53125,1,0,0,response1disk,,7,6.0625,1.23046875,1,0,0,rectangle,6.0625,1.23046875,1,0,0,6.0625,1.23046875,1,0,0,1,75,235,45,1,,,,,,,,
,,,,,,,,,,,,,FF,,,,,,,,1.1988,,,,,,,,,,,,,,,,,,,,,,61004e071430aab85ba2ac18,61036e7ada011bc3983fb8be,2021-07-29_20h14.54.689,Simcolourproject_2stim_asymm_v5,2020.2.10,MacIntel,60,61025ae37ef11b136ea224fe,,,,,,,,,2795,51.9765625,94.6015625,1,0,0,response1disk,,7,-1.40625,-6.71875,1,0,0,rectangle,-1.40625,-6.71875,1,0,0,-1.40625,-6.71875,1,0,0,1,76,236,99,1,,,,,,,,
,,,,,,,,,,,,,FF,,,,,,,,0.4684,,,,,,,,,,,,,,,,,,,,,,61004e071430aab85ba2ac18,61036e7ada011bc3983fb8be,2021-07-29_20h14.54.689,Simcolourproject_2stim_asymm_v5,2020.2.10,MacIntel,60,61025ae37ef11b136ea224fe,,,,,,,,,3550,30.96875,69.5859375,1,0,0,response1disk,,7,5.49609375,7.9296875,1,0,0,rectangle,5.49609375,7.9296875,1,0,0,5.49609375,7.9296875,1,0,0,1,77,237,147,1,,,,,,,,
,,,,,,,,,,,,,FF,,,,,,,,0.3001,,,,,,,,,,,,,,,,,,,,,,61004e071430aab85ba2ac18,61036e7ada011bc3983fb8be,2021-07-29_20h14.54.689,Simcolourproject_2stim_asymm_v5,2020.2.10,MacIntel,60,61025ae37ef11b136ea224fe,,,,,,,,,472,34.140625,65.77734375,1,0,0,response1disk,,7,9.0625,9.13671875,1,0,0,rectangle,9.0625,9.13671875,1,0,0,9.0625,9.13671875,1,0,0,1,78,238,0,1,,,,,,,,
,,,,,,,,,,,,,FF,,,,,,,,0.1845,,,,,,,,,,,,,,,,,,,,,,61004e071430aab85ba2ac18,61036e7ada011bc3983fb8be,2021-07-29_20h14.54.689,Simcolourproject_2stim_asymm_v5,2020.2.10,MacIntel,60,61025ae37ef11b136ea224fe,,,,,,,,,3366,50.703125,78.3515625,1,0,0,response1disk,,7,14.41796875,4.88671875,1,0,0,rectangle,14.41796875,4.88671875,1,0,0,14.41796875,4.88671875,1,0,0,1,79,239,140,1,,,,,,,,
,,,,,,,,,,,,,FF,,,,,,,,0.1994,,,,,,,,,,,,,,,,,,,,,,61004e071430aab85ba2ac18,61036e7ada011bc3983fb8be,2021-07-29_20h14.54.689,Simcolourproject_2stim_asymm_v5,2020.2.10,MacIntel,60,61025ae37ef11b136ea224fe,,,,,,,,,2431,47.03125,97.0546875,1,0,0,response1disk,,7,1.25390625,1.22265625,1,0,0,rectangle,1.25390625,1.22265625,1,0,0,1.25390625,1.22265625,1,0,0,1,80,240,41,1,,,,,,,,
,,,,,,,,,,,,,FF,,,,,,,,0.1817,,,,,,,,,,,,,,,,,,,,,,61004e071430aab85ba2ac18,61036e7ada011bc3983fb8be,2021-07-29_20h14.54.689,Simcolourproject_2stim_asymm_v5,2020.2.10,MacIntel,60,61025ae37ef11b136ea224fe,,,,,,,,,2191,59.5859375,70.0625,1,0,0,response1disk,,7,8.48828125,7.078125,1,0,0,rectangle,8.48828125,7.078125,1,0,0,8.48828125,7.078125,1,0,0,1,81,241,60,1,,,,,,,,
,,,,,,,,,,,,,FF,,,,,,,,0.2472,,,,,,,,,,,,,,,,,,,,,,61004e071430aab85ba2ac18,61036e7ada011bc3983fb8be,2021-07-29_20h14.54.689,Simcolourproject_2stim_asymm_v5,2020.2.10,MacIntel,60,61025ae37ef11b136ea224fe,,,,,,,,,2731,51.86328125,80.7578125,1,0,0,response1disk,,7,-17.37109375,5.04296875,1,0,0,rectangle,-17.37109375,5.04296875,1,0,0,-17.37109375,5.04296875,1,0,0,1,82,242,90,1,,,,,,,,
,,,,,,,,,,,,,FF,,,,,,,,0.6334,,,,,,,,,,,,,,,,,,,,,,61004e071430aab85ba2ac18,61036e7ada011bc3983fb8be,2021-07-29_20h14.54.689,Simcolourproject_2stim_asymm_v5,2020.2.10,MacIntel,60,61025ae37ef11b136ea224fe,,,,,,,,,1347,42.203125,98.02734375,1,0,0,response1disk,,7,12.84765625,-0.6484375,1,0,0,rectangle,-36.05078125,-84.94921875,1,0,0,3.28515625,-2.3046875,1,0,0,1,83,243,13,1,,response5disk_3,TRUE,3,3,"[2,106,286,54,244,203,76,202,147,165,296,272,63,38,277,54,320,11,281,181]",1.5007,rectangle
,,,,,,,,,,,,,FF,,,,,,,,1.567,,,,,,,,,,,,,,,,,,,,,,61004e071430aab85ba2ac18,61036e7ada011bc3983fb8be,2021-07-29_20h14.54.689,Simcolourproject_2stim_asymm_v5,2020.2.10,MacIntel,60,61025ae37ef11b136ea224fe,,,,,,,,,430,-80.8984375,-34.984375,1,0,0,response5disk,,2,-17.46875,-4.5390625,1,0,0,rectangle,-17.46875,-4.5390625,1,0,0,-17.46875,-4.5390625,1,0,0,1,84,244,114,1,,,,,,,,
,,,,,,,,,,,,,FF,,,,,,,,0.769,,,,,,,,,,,,,,,,,,,,,,61004e071430aab85ba2ac18,61036e7ada011bc3983fb8be,2021-07-29_20h14.54.689,Simcolourproject_2stim_asymm_v5,2020.2.10,MacIntel,60,61025ae37ef11b136ea224fe,,,,,,,,,4028,64.13671875,90.12890625,1,0,0,response1disk,,7,7.78515625,1.57421875,1,0,0,rectangle,7.78515625,1.57421875,1,0,0,7.78515625,1.57421875,1,0,0,1,85,245,4,1,,,,,,,,
,,,,,,,,,,,,,FF,,,,,,,,0.3339,,,,,,,,,,,,,,,,,,,,,,61004e071430aab85ba2ac18,61036e7ada011bc3983fb8be,2021-07-29_20h14.54.689,Simcolourproject_2stim_asymm_v5,2020.2.10,MacIntel,60,61025ae37ef11b136ea224fe,,,,,,,,,1768,41.6015625,104.875,1,0,0,response1disk,,7,4.2578125,-0.4765625,1,0,0,rectangle,4.2578125,-0.4765625,1,0,0,4.2578125,-0.4765625,1,0,0,1,86,246,120,1,,,,,,,,
,,,,,,,,,,,,,FF,,,,,,,,0.2482,,,,,,,,,,,,,,,,,,,,,,61004e071430aab85ba2ac18,61036e7ada011bc3983fb8be,2021-07-29_20h14.54.689,Simcolourproject_2stim_asymm_v5,2020.2.10,MacIntel,60,61025ae37ef11b136ea224fe,,,,,,,,,1848,50.05859375,85.484375,1,0,0,response1disk,,7,12.65234375,-1.03515625,1,0,0,rectangle,12.65234375,-1.03515625,1,0,0,12.65234375,-1.03515625,1,0,0,1,87,247,124,1,,,,,,,,
,,,,,,,,,,,,,FF,,,,,,,,0.3342,,,,,,,,,,,,,,,,,,,,,,61004e071430aab85ba2ac18,61036e7ada011bc3983fb8be,2021-07-29_20h14.54.689,Simcolourproject_2stim_asymm_v5,2020.2.10,MacIntel,60,61025ae37ef11b136ea224fe,,,,,,,,,4242,42.76171875,71.73828125,1,0,0,response1disk,,7,-7.96484375,4.2578125,1,0,0,rectangle,-7.96484375,4.2578125,1,0,0,-7.96484375,4.2578125,1,0,0,1,88,248,14,1,,,,,,,,
,,,,,,,,,,,,,FF,,,,,,,,0.2319,,,,,,,,,,,,,,,,,,,,,,61004e071430aab85ba2ac18,61036e7ada011bc3983fb8be,2021-07-29_20h14.54.689,Simcolourproject_2stim_asymm_v5,2020.2.10,MacIntel,60,61025ae37ef11b136ea224fe,,,,,,,,,1452,31.40625,63.2109375,1,0,0,response1disk,,7,-9.62109375,5.05078125,1,0,0,rectangle,-9.62109375,5.05078125,1,0,0,-9.62109375,5.05078125,1,0,0,1,89,249,38,1,,,,,,,,
