key_resp.keys,key_resp.rt,key_resp_14.keys,key_resp_14.rt,key_resp_15.keys,key_resp_15.rt,key_resp_17.keys,key_resp_17.rt,key_resp_9.keys,key_resp_9.rt,key_resp_10.keys,key_resp_10.rt,practice_comparison,Ecc,mouse_5.x,mouse_5.y,mouse_5.leftButton,mouse_5.midButton,mouse_5.rightButton,mouse_5.clicked_name,pracsimilarity,response_time,mouse_10.x,mouse_10.y,mouse_10.leftButton,mouse_10.midButton,mouse_10.rightButton,mouse_10.clicked_name,mouse_7.x,mouse_7.y,mouse_7.leftButton,mouse_7.midButton,mouse_7.rightButton,mouse_6.x,mouse_6.y,mouse_6.leftButton,mouse_6.midButton,mouse_6.rightButton,duringprac.thisRepN,duringprac.thisTrialN,duringprac.thisN,duringprac.thisIndex,duringprac.ran,participant,session,date,expName,psychopyVersion,OS,frameRate,study_id,mouse_7.clicked_name,catchpracsimilarity,catch_response_time,catchnumberprac,catchtrialorderprac,mouse_6.clicked_name,key_resp_22.keys,key_resp_22.rt,realcomparison,mouse.x,mouse.y,mouse.leftButton,mouse.midButton,mouse.rightButton,mouse.clicked_name,Colour2,similarity,mouse_2.x,mouse_2.y,mouse_2.leftButton,mouse_2.midButton,mouse_2.rightButton,mouse_2.clicked_name,mouse_3.x,mouse_3.y,mouse_3.leftButton,mouse_3.midButton,mouse_3.rightButton,mouse_11.x,mouse_11.y,mouse_11.leftButton,mouse_11.midButton,mouse_11.rightButton,trials_2.thisRepN,trials_2.thisTrialN,trials_2.thisN,trials_2.thisIndex,trials_2.ran,Colour1,mouse_3.clicked_name,catchornah,catchsimilarity,catchnumber,catchtrialorder,catchRT,mouse_11.clicked_name
space,1.7619,space,9.5503,space,16.7514,space,4.2405,space,1.0264,space,3.7198,6,FF,-42.39994036,-38.40000701,1,0,0,response5disk_5,2,15.7542,-3.199988604,3.19999361,1,0,0,rectangle_8,-3.199988604,3.19999361,1,0,0,-3.199988604,3.19999361,1,0,0,0,0,0,0,1,61004503dc9295c868fa8c6f,61036d95d36c9a8a63a44c30,2021-07-29_23h11.13.922,Simcolourproject_2stim_asymm_v5,2020.2.10,Win32,60,61025ae37ef11b136ea224fe,,,,,,,,,,,,,,,,,,,,,,,,,,,,,,,,,,,,,,,,,,,,,,
,,,,,,,,,,,,119,PF,35.20001197,51.19996991,1,0,0,response1disk_5,7,13.6166,1.14441E-05,4.799993634,1,0,0,rectangle_8,27.20001185,-100.0000079,1,0,0,-7.199988663,-0.800006449,1,0,0,0,1,1,2,1,61004503dc9295c868fa8c6f,61036d95d36c9a8a63a44c30,2021-07-29_23h11.13.922,Simcolourproject_2stim_asymm_v5,2020.2.10,Win32,60,61025ae37ef11b136ea224fe,response3disk_7,4,3.0833,4,"[2,5]",rectangle_4,,,,,,,,,,,,,,,,,,,,,,,,,,,,,,,,,,,,,,,,
,,,,,,,,,,,,15,PF,51.20001221,-85.60005654,1,0,0,response3disk_5,4,9.2508,3.200011492,5.599993646,1,0,0,rectangle_8,3.200011492,5.599993646,1,0,0,3.200011492,5.599993646,1,0,0,0,2,2,1,1,61004503dc9295c868fa8c6f,61036d95d36c9a8a63a44c30,2021-07-29_23h11.13.922,Simcolourproject_2stim_asymm_v5,2020.2.10,Win32,60,61025ae37ef11b136ea224fe,,,,,,,,,,,,,,,,,,,,,,,,,,,,,,,,,,,,,,,,,,,,,,
,,,,,,,,,,,,35,PF,-53.59998935,-47.20000714,1,0,0,response5disk_5,2,8.917,-9.599988699,7.19999367,1,0,0,rectangle_8,-9.599988699,7.19999367,1,0,0,-9.599988699,7.19999367,1,0,0,0,3,3,4,1,61004503dc9295c868fa8c6f,61036d95d36c9a8a63a44c30,2021-07-29_23h11.13.922,Simcolourproject_2stim_asymm_v5,2020.2.10,Win32,60,61025ae37ef11b136ea224fe,,,,,,,,,,,,,,,,,,,,,,,,,,,,,,,,,,,,,,,,,,,,,,
,,,,,,,,,,,,128,PF,70.40001249,-57.6000073,1,0,0,response3disk_5,5,5.5995,8.800011575,6.399993658,1,0,0,rectangle_8,61.60001236,-111.2000081,1,0,0,-0.799988568,-6.4373E-06,1,0,0,0,4,4,6,1,61004503dc9295c868fa8c6f,61036d95d36c9a8a63a44c30,2021-07-29_23h11.13.922,Simcolourproject_2stim_asymm_v5,2020.2.10,Win32,60,61025ae37ef11b136ea224fe,response3disk_7,4,2.3499,4,"[2,5]",rectangle_4,,,,,,,,,,,,,,,,,,,,,,,,,,,,,,,,,,,,,,,,
,,,,,,,,,,,,57,FF,124.8000133,69.5999946,1,0,0,response1disk_5,6,13.1835,-5.599988639,2.399993598,1,0,0,rectangle_8,-5.599988639,2.399993598,1,0,0,-5.599988639,2.399993598,1,0,0,0,5,5,5,1,61004503dc9295c868fa8c6f,61036d95d36c9a8a63a44c30,2021-07-29_23h11.13.922,Simcolourproject_2stim_asymm_v5,2020.2.10,Win32,60,61025ae37ef11b136ea224fe,,,,,,,,,,,,,,,,,,,,,,,,,,,,,,,,,,,,,,,,,,,,,,
,,,,,,,,,,,,90,FF,-32.79998904,-84.00000769,1,0,0,response5disk_5,3,2.4342,2.40001148,-3.200006485,1,0,0,rectangle_8,2.40001148,-3.200006485,1,0,0,2.40001148,-3.200006485,1,0,0,0,6,6,3,1,61004503dc9295c868fa8c6f,61036d95d36c9a8a63a44c30,2021-07-29_23h11.13.922,Simcolourproject_2stim_asymm_v5,2020.2.10,Win32,60,61025ae37ef11b136ea224fe,,,,,,,,,,,,,,,,,,,,,,,,,,,,,,,,,,,,,,,,,,,,,,
,,,,,,,,,,,,,FF,,,,,,,,2.818,,,,,,,,,,,,,,,,,,,,,,61004503dc9295c868fa8c6f,61036d95d36c9a8a63a44c30,2021-07-29_23h11.13.922,Simcolourproject_2stim_asymm_v5,2020.2.10,Win32,60,61025ae37ef11b136ea224fe,,,,,,,space,2.8893,2854,81.60001266,30.39999402,1,0,0,response1disk,,6,-18.39994,1.599993587,1,0,0,rectangle,-18.39994,1.599993587,1,0,0,-18.39994,1.599993587,1,0,0,0,0,0,135,1,,,,,,,,
,,,,,,,,,,,,,FF,,,,,,,,2.0664,,,,,,,,,,,,,,,,,,,,,,61004503dc9295c868fa8c6f,61036d95d36c9a8a63a44c30,2021-07-29_23h11.13.922,Simcolourproject_2stim_asymm_v5,2020.2.10,Win32,60,61025ae37ef11b136ea224fe,,,,,,,,,4321,89.60001278,39.99999416,1,0,0,response1disk,,6,-3.999988616,-0.800006449,1,0,0,rectangle,-3.999988616,-0.800006449,1,0,0,-3.999988616,-0.800006449,1,0,0,0,1,1,77,1,,,,,,,,
,,,,,,,,,,,,,FF,,,,,,,,3.1499,,,,,,,,,,,,,,,,,,,,,,61004503dc9295c868fa8c6f,61036d95d36c9a8a63a44c30,2021-07-29_23h11.13.922,Simcolourproject_2stim_asymm_v5,2020.2.10,Win32,60,61025ae37ef11b136ea224fe,,,,,,,,,500,39.20001203,98.39999503,1,0,0,response1disk,,7,7.200011551,1.599993587,1,0,0,rectangle,7.200011551,1.599993587,1,0,0,7.200011551,1.599993587,1,0,0,0,2,2,37,1,,,,,,,,
,,,,,,,,,,,,,FF,,,,,,,,1.7831,,,,,,,,,,,,,,,,,,,,,,61004503dc9295c868fa8c6f,61036d95d36c9a8a63a44c30,2021-07-29_23h11.13.922,Simcolourproject_2stim_asymm_v5,2020.2.10,Win32,60,61025ae37ef11b136ea224fe,,,,,,,,,3052,72.00001252,-38.40000701,1,0,0,response3disk,,5,36.00001198,-1.600006461,1,0,0,rectangle,36.00001198,-1.600006461,1,0,0,36.00001198,-1.600006461,1,0,0,0,3,3,103,1,,,,,,,,
,,,,,,,,,,,,,FF,,,,,,,,1.4335,,,,,,,,,,,,,,,,,,,,,,61004503dc9295c868fa8c6f,61036d95d36c9a8a63a44c30,2021-07-29_23h11.13.922,Simcolourproject_2stim_asymm_v5,2020.2.10,Win32,60,61025ae37ef11b136ea224fe,,,,,,,,,1855,54.40001225,84.79999483,1,0,0,response1disk,,7,16.80001169,13.59999377,1,0,0,rectangle,16.80001169,13.59999377,1,0,0,16.80001169,13.59999377,1,0,0,0,4,4,142,1,,,,,,,,
,,,,,,,,,,,,,FF,,,,,,,,1.4829,,,,,,,,,,,,,,,,,,,,,,61004503dc9295c868fa8c6f,61036d95d36c9a8a63a44c30,2021-07-29_23h11.13.922,Simcolourproject_2stim_asymm_v5,2020.2.10,Win32,60,61025ae37ef11b136ea224fe,,,,,,,,,2059,39.20001203,80.79999477,1,0,0,response1disk,,7,0.800011456,-9.60000658,1,0,0,rectangle,0.800011456,-9.60000658,1,0,0,0.800011456,-9.60000658,1,0,0,0,5,5,74,1,,,,,,,,
,,,,,,,,,,,,,FF,,,,,,,,1.3834,,,,,,,,,,,,,,,,,,,,,,61004503dc9295c868fa8c6f,61036d95d36c9a8a63a44c30,2021-07-29_23h11.13.922,Simcolourproject_2stim_asymm_v5,2020.2.10,Win32,60,61025ae37ef11b136ea224fe,,,,,,,,,2809,99.20001292,35.19996967,1,0,0,response1disk,,6,4.000011504,-15.20000666,1,0,0,rectangle,-43.1999892,119.9999954,1,0,0,-8.799988687,3.999993622,1,0,0,0,6,6,6,1,,response7disk_3,TRUE,0,0,"[269,269,289,137,267,200,207,211,199,184,168,37,95,219,7,150,40,164,199,229]",2.0507,rectangle
,,,,,,,,,,,,,FF,,,,,,,,2.6827,,,,,,,,,,,,,,,,,,,,,,61004503dc9295c868fa8c6f,61036d95d36c9a8a63a44c30,2021-07-29_23h11.13.922,Simcolourproject_2stim_asymm_v5,2020.2.10,Win32,60,61025ae37ef11b136ea224fe,,,,,,,,,16,-42.39994036,-92.80000782,1,0,0,response5disk,,3,-0.799988568,-1.600006461,1,0,0,rectangle,-0.799988568,-1.600006461,1,0,0,-0.799988568,-1.600006461,1,0,0,0,7,7,78,1,,,,,,,,
,,,,,,,,,,,,,FF,,,,,,,,1,,,,,,,,,,,,,,,,,,,,,,61004503dc9295c868fa8c6f,61036d95d36c9a8a63a44c30,2021-07-29_23h11.13.922,Simcolourproject_2stim_asymm_v5,2020.2.10,Win32,60,61025ae37ef11b136ea224fe,,,,,,,,,127,48.80001217,-94.40000784,1,0,0,response3disk,,4,-8.799988687,7.999993682,1,0,0,rectangle,-8.799988687,7.999993682,1,0,0,-8.799988687,7.999993682,1,0,0,0,8,8,154,1,,,,,,,,
,,,,,,,,,,,,,FF,,,,,,,,2.1514,,,,,,,,,,,,,,,,,,,,,,61004503dc9295c868fa8c6f,61036d95d36c9a8a63a44c30,2021-07-29_23h11.13.922,Simcolourproject_2stim_asymm_v5,2020.2.10,Win32,60,61025ae37ef11b136ea224fe,,,,,,,,,621,-28.79998899,-85.60005654,1,0,0,response5disk,,3,1.600060296,-6.4373E-06,1,0,0,rectangle,1.600060296,-6.4373E-06,1,0,0,1.600060296,-6.4373E-06,1,0,0,0,9,9,46,1,,,,,,,,
,,,,,,,,,,,,,FF,,,,,,,,2.4162,,,,,,,,,,,,,,,,,,,,,,61004503dc9295c868fa8c6f,61036d95d36c9a8a63a44c30,2021-07-29_23h11.13.922,Simcolourproject_2stim_asymm_v5,2020.2.10,Win32,60,61025ae37ef11b136ea224fe,,,,,,,,,543,-27.19998896,78.39999473,1,0,0,response7disk,,0,-11.99998873,5.599993646,1,0,0,rectangle,-11.99998873,5.599993646,1,0,0,-11.99998873,5.599993646,1,0,0,0,10,10,72,1,,,,,,,,
,,,,,,,,,,,,,FF,,,,,,,,1.3513,,,,,,,,,,,,,,,,,,,,,,61004503dc9295c868fa8c6f,61036d95d36c9a8a63a44c30,2021-07-29_23h11.13.922,Simcolourproject_2stim_asymm_v5,2020.2.10,Win32,60,61025ae37ef11b136ea224fe,,,,,,,,,952,19.20001173,-63.20000738,1,0,0,response3disk,,4,-8.799988687,8.799993694,1,0,0,rectangle,-8.799988687,8.799993694,1,0,0,-8.799988687,8.799993694,1,0,0,0,11,11,151,1,,,,,,,,
,,,,,,,,,,,,,FF,,,,,,,,1.2002,,,,,,,,,,,,,,,,,,,,,,61004503dc9295c868fa8c6f,61036d95d36c9a8a63a44c30,2021-07-29_23h11.13.922,Simcolourproject_2stim_asymm_v5,2020.2.10,Win32,60,61025ae37ef11b136ea224fe,,,,,,,,,2312,79.20001262,29.599994,1,0,0,response1disk,,6,-19.19998884,-4.000006497,1,0,0,rectangle,-19.19998884,-4.000006497,1,0,0,-19.19998884,-4.000006497,1,0,0,0,12,12,69,1,,,,,,,,
,,,,,,,,,,,,,FF,,,,,,,,2.2664,,,,,,,,,,,,,,,,,,,,,,61004503dc9295c868fa8c6f,61036d95d36c9a8a63a44c30,2021-07-29_23h11.13.922,Simcolourproject_2stim_asymm_v5,2020.2.10,Win32,60,61025ae37ef11b136ea224fe,,,,,,,,,3912,-41.59998918,-56.80000728,1,0,0,response5disk,,3,-1.59998858,11.19999373,1,0,0,rectangle,-1.59998858,11.19999373,1,0,0,-1.59998858,11.19999373,1,0,0,0,13,13,33,1,,,,,,,,
,,,,,,,,,,,,,FF,,,,,,,,2.4502,,,,,,,,,,,,,,,,,,,,,,61004503dc9295c868fa8c6f,61036d95d36c9a8a63a44c30,2021-07-29_23h11.13.922,Simcolourproject_2stim_asymm_v5,2020.2.10,Win32,60,61025ae37ef11b136ea224fe,,,,,,,,,2800,40.00001204,82.39999479,1,0,0,response1disk,,7,-14.39993994,-0.800006449,1,0,0,rectangle,-14.39993994,-0.800006449,1,0,0,-14.39993994,-0.800006449,1,0,0,0,14,14,5,1,,,,,,,,
,,,,,,,,,,,,,FF,,,,,,,,1.0665,,,,,,,,,,,,,,,,,,,,,,61004503dc9295c868fa8c6f,61036d95d36c9a8a63a44c30,2021-07-29_23h11.13.922,Simcolourproject_2stim_asymm_v5,2020.2.10,Win32,60,61025ae37ef11b136ea224fe,,,,,,,,,1708,34.40001196,86.39999485,1,0,0,response1disk,,7,1.14441E-05,12.79999375,1,0,0,rectangle,1.14441E-05,12.79999375,1,0,0,1.14441E-05,12.79999375,1,0,0,0,15,15,49,1,,,,,,,,
,,,,,,,,,,,,,FF,,,,,,,,1.0499,,,,,,,,,,,,,,,,,,,,,,61004503dc9295c868fa8c6f,61036d95d36c9a8a63a44c30,2021-07-29_23h11.13.922,Simcolourproject_2stim_asymm_v5,2020.2.10,Win32,60,61025ae37ef11b136ea224fe,,,,,,,,,2155,38.40001202,92.79999495,1,0,0,response1disk,,7,-8.799988687,0.799993575,1,0,0,rectangle,-8.799988687,0.799993575,1,0,0,-8.799988687,0.799993575,1,0,0,0,16,16,146,1,,,,,,,,
,,,,,,,,,,,,,FF,,,,,,,,1.4834,,,,,,,,,,,,,,,,,,,,,,61004503dc9295c868fa8c6f,61036d95d36c9a8a63a44c30,2021-07-29_23h11.13.922,Simcolourproject_2stim_asymm_v5,2020.2.10,Win32,60,61025ae37ef11b136ea224fe,,,,,,,,,4269,40.00001204,-51.2000072,1,0,0,response3disk,,4,21.60006059,-6.4373E-06,1,0,0,rectangle,21.60006059,-6.4373E-06,1,0,0,21.60006059,-6.4373E-06,1,0,0,0,17,17,131,1,,,,,,,,
,,,,,,,,,,,,,FF,,,,,,,,1.3172,,,,,,,,,,,,,,,,,,,,,,61004503dc9295c868fa8c6f,61036d95d36c9a8a63a44c30,2021-07-29_23h11.13.922,Simcolourproject_2stim_asymm_v5,2020.2.10,Win32,60,61025ae37ef11b136ea224fe,,,,,,,,,173,-27.99998897,-67.20000744,1,0,0,response5disk,,3,-7.199988663,7.999993682,1,0,0,rectangle,-7.199988663,7.999993682,1,0,0,-7.199988663,7.999993682,1,0,0,0,18,18,71,1,,,,,,,,
,,,,,,,,,,,,,FF,,,,,,,,1.3477,,,,,,,,,,,,,,,,,,,,,,61004503dc9295c868fa8c6f,61036d95d36c9a8a63a44c30,2021-07-29_23h11.13.922,Simcolourproject_2stim_asymm_v5,2020.2.10,Win32,60,61025ae37ef11b136ea224fe,,,,,,,,,199,44.0000121,-89.6000566,1,0,0,response3disk,,4,8.000011563,7.19999367,1,0,0,rectangle,8.000011563,7.19999367,1,0,0,8.000011563,7.19999367,1,0,0,0,19,19,10,1,,,,,,,,
,,,,,,,,,,,,,FF,,,,,,,,1.6668,,,,,,,,,,,,,,,,,,,,,,61004503dc9295c868fa8c6f,61036d95d36c9a8a63a44c30,2021-07-29_23h11.13.922,Simcolourproject_2stim_asymm_v5,2020.2.10,Win32,60,61025ae37ef11b136ea224fe,,,,,,,,,2835,79.20001262,-44.8000071,1,0,0,response3disk,,5,0.800011456,0.799993575,1,0,0,rectangle,0.800011456,0.799993575,1,0,0,0.800011456,0.799993575,1,0,0,0,20,20,139,1,,,,,,,,
,,,,,,,,,,,,,FF,,,,,,,,1.4345,,,,,,,,,,,,,,,,,,,,,,61004503dc9295c868fa8c6f,61036d95d36c9a8a63a44c30,2021-07-29_23h11.13.922,Simcolourproject_2stim_asymm_v5,2020.2.10,Win32,60,61025ae37ef11b136ea224fe,,,,,,,,,2113,61.60001236,34.39999408,1,0,0,response1disk,,6,-16.79998881,7.999993682,1,0,0,rectangle,-16.79998881,7.999993682,1,0,0,-16.79998881,7.999993682,1,0,0,0,21,21,50,1,,,,,,,,
,,,,,,,,,,,,,FF,,,,,,,,1.5841,,,,,,,,,,,,,,,,,,,,,,61004503dc9295c868fa8c6f,61036d95d36c9a8a63a44c30,2021-07-29_23h11.13.922,Simcolourproject_2stim_asymm_v5,2020.2.10,Win32,60,61025ae37ef11b136ea224fe,,,,,,,,,4222,78.40001261,-35.20000696,1,0,0,response3disk,,5,-7.999988675,-4.000006497,1,0,0,rectangle,-7.999988675,-4.000006497,1,0,0,-7.999988675,-4.000006497,1,0,0,0,22,22,83,1,,,,,,,,
,,,,,,,,,,,,,FF,,,,,,,,1.4329,,,,,,,,,,,,,,,,,,,,,,61004503dc9295c868fa8c6f,61036d95d36c9a8a63a44c30,2021-07-29_23h11.13.922,Simcolourproject_2stim_asymm_v5,2020.2.10,Win32,60,61025ae37ef11b136ea224fe,,,,,,,,,2738,31.20001191,79.99999475,1,0,0,response1disk,,7,-0.799988568,-4.800006509,1,0,0,rectangle,-0.799988568,-4.800006509,1,0,0,-0.799988568,-4.800006509,1,0,0,0,23,23,20,1,,,,,,,,
,,,,,,,,,,,,,FF,,,,,,,,1.4504,,,,,,,,,,,,,,,,,,,,,,61004503dc9295c868fa8c6f,61036d95d36c9a8a63a44c30,2021-07-29_23h11.13.922,Simcolourproject_2stim_asymm_v5,2020.2.10,Win32,60,61025ae37ef11b136ea224fe,,,,,,,,,3752,42.40001208,76.79999471,1,0,0,response1disk,,7,-12.79998875,-16.80000669,1,0,0,rectangle,-12.79998875,-16.80000669,1,0,0,-12.79998875,-16.80000669,1,0,0,0,24,24,80,1,,,,,,,,
,,,,,,,,,,,,,FF,,,,,,,,1.2038,,,,,,,,,,,,,,,,,,,,,,61004503dc9295c868fa8c6f,61036d95d36c9a8a63a44c30,2021-07-29_23h11.13.922,Simcolourproject_2stim_asymm_v5,2020.2.10,Win32,60,61025ae37ef11b136ea224fe,,,,,,,,,3948,83.20001268,27.99999398,1,0,0,response1disk,,6,20.00001174,-7.200006545,1,0,0,rectangle,20.00001174,-7.200006545,1,0,0,20.00001174,-7.200006545,1,0,0,0,25,25,14,1,,,,,,,,
,,,,,,,,,,,,,FF,,,,,,,,1.0823,,,,,,,,,,,,,,,,,,,,,,61004503dc9295c868fa8c6f,61036d95d36c9a8a63a44c30,2021-07-29_23h11.13.922,Simcolourproject_2stim_asymm_v5,2020.2.10,Win32,60,61025ae37ef11b136ea224fe,,,,,,,,,4094,41.60006089,80.79999477,1,0,0,response1disk,,7,12.80001163,7.999993682,1,0,0,rectangle,12.80001163,7.999993682,1,0,0,12.80001163,7.999993682,1,0,0,0,26,26,19,1,,,,,,,,
,,,,,,,,,,,,,FF,,,,,,,,1.2999,,,,,,,,,,,,,,,,,,,,,,61004503dc9295c868fa8c6f,61036d95d36c9a8a63a44c30,2021-07-29_23h11.13.922,Simcolourproject_2stim_asymm_v5,2020.2.10,Win32,60,61025ae37ef11b136ea224fe,,,,,,,,,3320,40.80001205,83.19997039,1,0,0,response1disk,,7,18.40001172,7.19999367,1,0,0,rectangle,18.40001172,7.19999367,1,0,0,18.40001172,7.19999367,1,0,0,0,27,27,48,1,,,,,,,,
,,,,,,,,,,,,,FF,,,,,,,,1.1169,,,,,,,,,,,,,,,,,,,,,,61004503dc9295c868fa8c6f,61036d95d36c9a8a63a44c30,2021-07-29_23h11.13.922,Simcolourproject_2stim_asymm_v5,2020.2.10,Win32,60,61025ae37ef11b136ea224fe,,,,,,,,,4234,55.20001227,24.79999393,1,0,0,response1disk,,6,5.600060356,2.399993598,1,0,0,rectangle,5.600060356,2.399993598,1,0,0,5.600060356,2.399993598,1,0,0,0,28,28,127,1,,,,,,,,
,,,,,,,,,,,,,FF,,,,,,,,1.2838,,,,,,,,,,,,,,,,,,,,,,61004503dc9295c868fa8c6f,61036d95d36c9a8a63a44c30,2021-07-29_23h11.13.922,Simcolourproject_2stim_asymm_v5,2020.2.10,Win32,60,61025ae37ef11b136ea224fe,,,,,,,,,2397,80.80001265,48.79999429,1,0,0,response1disk,,6,20.80001175,14.39999378,1,0,0,rectangle,20.80001175,14.39999378,1,0,0,20.80001175,14.39999378,1,0,0,0,29,29,122,1,,,,,,,,
,,,,,,,,,,,,,FF,,,,,,,,1.6474,,,,,,,,,,,,,,,,,,,,,,61004503dc9295c868fa8c6f,61036d95d36c9a8a63a44c30,2021-07-29_23h11.13.922,Simcolourproject_2stim_asymm_v5,2020.2.10,Win32,60,61025ae37ef11b136ea224fe,,,,,,,,,887,-63.99998951,37.59999412,1,0,0,response7disk,,1,-6.399939823,0.799993575,1,0,0,rectangle,-6.399939823,0.799993575,1,0,0,-6.399939823,0.799993575,1,0,0,0,30,30,75,1,,,,,,,,
,,,,,,,,,,,,,FF,,,,,,,,1.25,,,,,,,,,,,,,,,,,,,,,,61004503dc9295c868fa8c6f,61036d95d36c9a8a63a44c30,2021-07-29_23h11.13.922,Simcolourproject_2stim_asymm_v5,2020.2.10,Win32,60,61025ae37ef11b136ea224fe,,,,,,,,,1259,44.80001211,83.19997039,1,0,0,response1disk,,7,5.600060356,-0.800006449,1,0,0,rectangle,5.600060356,-0.800006449,1,0,0,5.600060356,-0.800006449,1,0,0,0,31,31,124,1,,,,,,,,
,,,,,,,,,,,,,FF,,,,,,,,0.7335,,,,,,,,,,,,,,,,,,,,,,61004503dc9295c868fa8c6f,61036d95d36c9a8a63a44c30,2021-07-29_23h11.13.922,Simcolourproject_2stim_asymm_v5,2020.2.10,Win32,60,61025ae37ef11b136ea224fe,,,,,,,,,2590,38.40001202,87.19997045,1,0,0,response1disk,,7,8.000011563,5.599993646,1,0,0,rectangle,8.000011563,5.599993646,1,0,0,8.000011563,5.599993646,1,0,0,0,32,32,25,1,,,,,,,,
,,,,,,,,,,,,,FF,,,,,,,,0.5668,,,,,,,,,,,,,,,,,,,,,,61004503dc9295c868fa8c6f,61036d95d36c9a8a63a44c30,2021-07-29_23h11.13.922,Simcolourproject_2stim_asymm_v5,2020.2.10,Win32,60,61025ae37ef11b136ea224fe,,,,,,,,,2082,44.80001211,72.79999465,1,0,0,response1disk,,7,1.600060296,4.799993634,1,0,0,rectangle,1.600060296,4.799993634,1,0,0,1.600060296,4.799993634,1,0,0,0,33,33,90,1,,,,,,,,
,,,,,,,,,,,,,FF,,,,,,,,2.0499,,,,,,,,,,,,,,,,,,,,,,61004503dc9295c868fa8c6f,61036d95d36c9a8a63a44c30,2021-07-29_23h11.13.922,Simcolourproject_2stim_asymm_v5,2020.2.10,Win32,60,61025ae37ef11b136ea224fe,,,,,,,,,683,80.80001265,41.59999418,1,0,0,response1disk,,6,8.800011575,11.99999374,1,0,0,rectangle,8.800011575,11.99999374,1,0,0,8.800011575,11.99999374,1,0,0,0,34,34,120,1,,,,,,,,
,,,,,,,,,,,,,FF,,,,,,,,1.0004,,,,,,,,,,,,,,,,,,,,,,61004503dc9295c868fa8c6f,61036d95d36c9a8a63a44c30,2021-07-29_23h11.13.922,Simcolourproject_2stim_asymm_v5,2020.2.10,Win32,60,61025ae37ef11b136ea224fe,,,,,,,,,248,95.20001286,45.59999424,1,0,0,response1disk,,6,32.00001192,-1.600006461,1,0,0,rectangle,32.00001192,-1.600006461,1,0,0,32.00001192,-1.600006461,1,0,0,0,35,35,101,1,,,,,,,,
,,,,,,,,,,,,,FF,,,,,,,,1.3501,,,,,,,,,,,,,,,,,,,,,,61004503dc9295c868fa8c6f,61036d95d36c9a8a63a44c30,2021-07-29_23h11.13.922,Simcolourproject_2stim_asymm_v5,2020.2.10,Win32,60,61025ae37ef11b136ea224fe,,,,,,,,,2277,67.20001245,26.39999396,1,0,0,response1disk,,6,17.60006053,-1.600006461,1,0,0,rectangle,34.40001196,-84.8000077,1,0,0,4.000011504,-9.60000658,1,0,0,0,36,36,21,1,,response3disk_3,TRUE,4,4,"[269,269,289,137,267,200,207,211,199,184,168,37,95,219,7,150,40,164,199,229]",2.0501,rectangle
,,,,,,,,,,,,,FF,,,,,,,,0.967,,,,,,,,,,,,,,,,,,,,,,61004503dc9295c868fa8c6f,61036d95d36c9a8a63a44c30,2021-07-29_23h11.13.922,Simcolourproject_2stim_asymm_v5,2020.2.10,Win32,60,61025ae37ef11b136ea224fe,,,,,,,,,1406,36.00001198,80.79999477,1,0,0,response1disk,,7,12.80001163,8.799993694,1,0,0,rectangle,12.80001163,8.799993694,1,0,0,12.80001163,8.799993694,1,0,0,0,37,37,76,1,,,,,,,,
,,,,,,,,,,,,,FF,,,,,,,,0.8993,,,,,,,,,,,,,,,,,,,,,,61004503dc9295c868fa8c6f,61036d95d36c9a8a63a44c30,2021-07-29_23h11.13.922,Simcolourproject_2stim_asymm_v5,2020.2.10,Win32,60,61025ae37ef11b136ea224fe,,,,,,,,,2021,84.80001271,39.19996973,1,0,0,response1disk,,6,23.20001179,7.999993682,1,0,0,rectangle,23.20001179,7.999993682,1,0,0,23.20001179,7.999993682,1,0,0,0,38,38,9,1,,,,,,,,
,,,,,,,,,,,,,FF,,,,,,,,0.6828,,,,,,,,,,,,,,,,,,,,,,61004503dc9295c868fa8c6f,61036d95d36c9a8a63a44c30,2021-07-29_23h11.13.922,Simcolourproject_2stim_asymm_v5,2020.2.10,Win32,60,61025ae37ef11b136ea224fe,,,,,,,,,1577,56.00001228,101.5999951,1,0,0,response1disk,,7,8.800011575,13.59999377,1,0,0,rectangle,-39.99998915,-87.20000774,1,0,0,-7.199988663,-9.60000658,1,0,0,0,39,39,81,1,,response5disk_3,TRUE,3,3,"[269,269,289,137,267,200,207,211,199,184,168,37,95,219,7,150,40,164,199,229]",2.1327,rectangle
,,,,,,,,,,,,,FF,,,,,,,,1.7175,,,,,,,,,,,,,,,,,,,,,,61004503dc9295c868fa8c6f,61036d95d36c9a8a63a44c30,2021-07-29_23h11.13.922,Simcolourproject_2stim_asymm_v5,2020.2.10,Win32,60,61025ae37ef11b136ea224fe,,,,,,,,,3104,-68.79998958,-29.60000688,1,0,0,response5disk,,2,-12.79998875,-12.00000662,1,0,0,rectangle,-12.79998875,-12.00000662,1,0,0,-12.79998875,-12.00000662,1,0,0,0,40,40,15,1,,,,,,,,
,,,,,,,,,,,,,FF,,,,,,,,1.3167,,,,,,,,,,,,,,,,,,,,,,61004503dc9295c868fa8c6f,61036d95d36c9a8a63a44c30,2021-07-29_23h11.13.922,Simcolourproject_2stim_asymm_v5,2020.2.10,Win32,60,61025ae37ef11b136ea224fe,,,,,,,,,1932,41.60006089,65.59999454,1,0,0,response1disk,,7,-17.59998882,-5.600006521,1,0,0,rectangle,-17.59998882,-5.600006521,1,0,0,-17.59998882,-5.600006521,1,0,0,0,41,41,57,1,,,,,,,,
,,,,,,,,,,,,,FF,,,,,,,,0.701,,,,,,,,,,,,,,,,,,,,,,61004503dc9295c868fa8c6f,61036d95d36c9a8a63a44c30,2021-07-29_23h11.13.922,Simcolourproject_2stim_asymm_v5,2020.2.10,Win32,60,61025ae37ef11b136ea224fe,,,,,,,,,3873,60.00001234,30.39999402,1,0,0,response1disk,,6,12.00001162,0.799993575,1,0,0,rectangle,12.00001162,0.799993575,1,0,0,12.00001162,0.799993575,1,0,0,0,42,42,118,1,,,,,,,,
,,,,,,,,,,,,,FF,,,,,,,,1.3029,,,,,,,,,,,,,,,,,,,,,,61004503dc9295c868fa8c6f,61036d95d36c9a8a63a44c30,2021-07-29_23h11.13.922,Simcolourproject_2stim_asymm_v5,2020.2.10,Win32,60,61025ae37ef11b136ea224fe,,,,,,,,,2832,-36.7999891,-40.80000705,1,0,0,response5disk,,3,4.000011504,-4.000006497,1,0,0,rectangle,4.000011504,-4.000006497,1,0,0,4.000011504,-4.000006497,1,0,0,0,43,43,11,1,,,,,,,,
,,,,,,,,,,,,,FF,,,,,,,,1.8002,,,,,,,,,,,,,,,,,,,,,,61004503dc9295c868fa8c6f,61036d95d36c9a8a63a44c30,2021-07-29_23h11.13.922,Simcolourproject_2stim_asymm_v5,2020.2.10,Win32,60,61025ae37ef11b136ea224fe,,,,,,,,,563,72.00001252,-40.80000705,1,0,0,response3disk,,5,4.000011504,-11.2000066,1,0,0,rectangle,4.000011504,-11.2000066,1,0,0,4.000011504,-11.2000066,1,0,0,0,44,44,45,1,,,,,,,,
,,,,,,,,,,,,,FF,,,,,,,,1.4168,,,,,,,,,,,,,,,,,,,,,,61004503dc9295c868fa8c6f,61036d95d36c9a8a63a44c30,2021-07-29_23h11.13.922,Simcolourproject_2stim_asymm_v5,2020.2.10,Win32,60,61025ae37ef11b136ea224fe,,,,,,,,,2763,92.00001281,30.39999402,1,0,0,response1disk,,6,-5.599988639,-1.600006461,1,0,0,rectangle,-5.599988639,-1.600006461,1,0,0,-5.599988639,-1.600006461,1,0,0,0,45,45,126,1,,,,,,,,
,,,,,,,,,,,,,FF,,,,,,,,1.3339,,,,,,,,,,,,,,,,,,,,,,61004503dc9295c868fa8c6f,61036d95d36c9a8a63a44c30,2021-07-29_23h11.13.922,Simcolourproject_2stim_asymm_v5,2020.2.10,Win32,60,61025ae37ef11b136ea224fe,,,,,,,,,286,35.20001197,-58.40000731,1,0,0,response3disk,,4,-1.59998858,-3.200006485,1,0,0,rectangle,-1.59998858,-3.200006485,1,0,0,-1.59998858,-3.200006485,1,0,0,0,46,46,59,1,,,,,,,,
,,,,,,,,,,,,,FF,,,,,,,,1.0834,,,,,,,,,,,,,,,,,,,,,,61004503dc9295c868fa8c6f,61036d95d36c9a8a63a44c30,2021-07-29_23h11.13.922,Simcolourproject_2stim_asymm_v5,2020.2.10,Win32,60,61025ae37ef11b136ea224fe,,,,,,,,,2960,40.00001204,79.19997033,1,0,0,response1disk,,7,-12.79998875,7.19999367,1,0,0,rectangle,-12.79998875,7.19999367,1,0,0,-12.79998875,7.19999367,1,0,0,0,47,47,27,1,,,,,,,,
,,,,,,,,,,,,,FF,,,,,,,,1.0996,,,,,,,,,,,,,,,,,,,,,,61004503dc9295c868fa8c6f,61036d95d36c9a8a63a44c30,2021-07-29_23h11.13.922,Simcolourproject_2stim_asymm_v5,2020.2.10,Win32,60,61025ae37ef11b136ea224fe,,,,,,,,,4299,57.6000123,19.99999386,1,0,0,response1disk,,6,6.400011539,-10.40000659,1,0,0,rectangle,6.400011539,-10.40000659,1,0,0,6.400011539,-10.40000659,1,0,0,0,48,48,100,1,,,,,,,,
,,,,,,,,,,,,,FF,,,,,,,,1.1338,,,,,,,,,,,,,,,,,,,,,,61004503dc9295c868fa8c6f,61036d95d36c9a8a63a44c30,2021-07-29_23h11.13.922,Simcolourproject_2stim_asymm_v5,2020.2.10,Win32,60,61025ae37ef11b136ea224fe,,,,,,,,,3463,40.00001204,65.59999454,1,0,0,response1disk,,7,8.000011563,-8.800006568,1,0,0,rectangle,8.000011563,-8.800006568,1,0,0,8.000011563,-8.800006568,1,0,0,0,49,49,132,1,,,,,,,,
,,,,,,,,,,,,,FF,,,,,,,,0.8335,,,,,,,,,,,,,,,,,,,,,,61004503dc9295c868fa8c6f,61036d95d36c9a8a63a44c30,2021-07-29_23h11.13.922,Simcolourproject_2stim_asymm_v5,2020.2.10,Win32,60,61025ae37ef11b136ea224fe,,,,,,,,,1519,24.0000118,71.19997021,1,0,0,response1disk,,7,-2.399939764,3.999993622,1,0,0,rectangle,-2.399939764,3.999993622,1,0,0,-2.399939764,3.999993622,1,0,0,0,50,50,114,1,,,,,,,,
,,,,,,,,,,,,,FF,,,,,,,,1.0165,,,,,,,,,,,,,,,,,,,,,,61004503dc9295c868fa8c6f,61036d95d36c9a8a63a44c30,2021-07-29_23h11.13.922,Simcolourproject_2stim_asymm_v5,2020.2.10,Win32,60,61025ae37ef11b136ea224fe,,,,,,,,,2196,24.0000118,83.19997039,1,0,0,response1disk,,7,2.40001148,7.999993682,1,0,0,rectangle,2.40001148,7.999993682,1,0,0,2.40001148,7.999993682,1,0,0,0,51,51,16,1,,,,,,,,
,,,,,,,,,,,,,FF,,,,,,,,0.8499,,,,,,,,,,,,,,,,,,,,,,61004503dc9295c868fa8c6f,61036d95d36c9a8a63a44c30,2021-07-29_23h11.13.922,Simcolourproject_2stim_asymm_v5,2020.2.10,Win32,60,61025ae37ef11b136ea224fe,,,,,,,,,2955,80.00001264,35.19996967,1,0,0,response1disk,,6,5.600060356,-9.60000658,1,0,0,rectangle,5.600060356,-9.60000658,1,0,0,5.600060356,-9.60000658,1,0,0,0,52,52,116,1,,,,,,,,
,,,,,,,,,,,,,FF,,,,,,,,1.083,,,,,,,,,,,,,,,,,,,,,,61004503dc9295c868fa8c6f,61036d95d36c9a8a63a44c30,2021-07-29_23h11.13.922,Simcolourproject_2stim_asymm_v5,2020.2.10,Win32,60,61025ae37ef11b136ea224fe,,,,,,,,,1205,32.80001193,75.9999947,1,0,0,response1disk,,7,10.4000116,12.79999375,1,0,0,rectangle,10.4000116,12.79999375,1,0,0,10.4000116,12.79999375,1,0,0,0,53,53,0,1,,,,,,,,
,,,,,,,,,,,,,FF,,,,,,,,0.7671,,,,,,,,,,,,,,,,,,,,,,61004503dc9295c868fa8c6f,61036d95d36c9a8a63a44c30,2021-07-29_23h11.13.922,Simcolourproject_2stim_asymm_v5,2020.2.10,Win32,60,61025ae37ef11b136ea224fe,,,,,,,,,1249,34.40001196,83.99999481,1,0,0,response1disk,,7,-1.59998858,4.799993634,1,0,0,rectangle,-1.59998858,4.799993634,1,0,0,-1.59998858,4.799993634,1,0,0,0,54,54,38,1,,,,,,,,
,,,,,,,,,,,,,FF,,,,,,,,0.817,,,,,,,,,,,,,,,,,,,,,,61004503dc9295c868fa8c6f,61036d95d36c9a8a63a44c30,2021-07-29_23h11.13.922,Simcolourproject_2stim_asymm_v5,2020.2.10,Win32,60,61025ae37ef11b136ea224fe,,,,,,,,,2340,25.60006065,71.99999464,1,0,0,response1disk,,7,-6.399939823,3.999993622,1,0,0,rectangle,-6.399939823,3.999993622,1,0,0,-6.399939823,3.999993622,1,0,0,0,55,55,156,1,,,,,,,,
,,,,,,,,,,,,,FF,,,,,,,,1.7173,,,,,,,,,,,,,,,,,,,,,,61004503dc9295c868fa8c6f,61036d95d36c9a8a63a44c30,2021-07-29_23h11.13.922,Simcolourproject_2stim_asymm_v5,2020.2.10,Win32,60,61025ae37ef11b136ea224fe,,,,,,,,,4347,66.40001243,-33.60000694,1,0,0,response3disk,,5,-9.599988699,-6.4373E-06,1,0,0,rectangle,-9.599988699,-6.4373E-06,1,0,0,-9.599988699,-6.4373E-06,1,0,0,0,56,56,112,1,,,,,,,,
,,,,,,,,,,,,,FF,,,,,,,,0.7503,,,,,,,,,,,,,,,,,,,,,,61004503dc9295c868fa8c6f,61036d95d36c9a8a63a44c30,2021-07-29_23h11.13.922,Simcolourproject_2stim_asymm_v5,2020.2.10,Win32,60,61025ae37ef11b136ea224fe,,,,,,,,,2811,59.20001233,86.39999485,1,0,0,response1disk,,7,17.60006053,11.19999373,1,0,0,rectangle,17.60006053,11.19999373,1,0,0,17.60006053,11.19999373,1,0,0,0,57,57,107,1,,,,,,,,
,,,,,,,,,,,,,FF,,,,,,,,1.0838,,,,,,,,,,,,,,,,,,,,,,61004503dc9295c868fa8c6f,61036d95d36c9a8a63a44c30,2021-07-29_23h11.13.922,Simcolourproject_2stim_asymm_v5,2020.2.10,Win32,60,61025ae37ef11b136ea224fe,,,,,,,,,1579,44.80001211,84.79999483,1,0,0,response1disk,,7,9.600060415,15.19999379,1,0,0,rectangle,9.600060415,15.19999379,1,0,0,9.600060415,15.19999379,1,0,0,0,58,58,133,1,,,,,,,,
,,,,,,,,,,,,,FF,,,,,,,,1.0683,,,,,,,,,,,,,,,,,,,,,,61004503dc9295c868fa8c6f,61036d95d36c9a8a63a44c30,2021-07-29_23h11.13.922,Simcolourproject_2stim_asymm_v5,2020.2.10,Win32,60,61025ae37ef11b136ea224fe,,,,,,,,,3399,79.20001262,36.79999411,1,0,0,response1disk,,6,23.20001179,8.799993694,1,0,0,rectangle,23.20001179,8.799993694,1,0,0,23.20001179,8.799993694,1,0,0,0,59,59,109,1,,,,,,,,
,,,,,,,,,,,,,FF,,,,,,,,3.5011,,,,,,,,,,,,,,,,,,,,,,61004503dc9295c868fa8c6f,61036d95d36c9a8a63a44c30,2021-07-29_23h11.13.922,Simcolourproject_2stim_asymm_v5,2020.2.10,Win32,60,61025ae37ef11b136ea224fe,,,,,,,,,3507,88.00001276,-25.60000682,1,0,0,response3disk,,5,-2.399939764,3.999993622,1,0,0,rectangle,-2.399939764,3.999993622,1,0,0,-2.399939764,3.999993622,1,0,0,0,60,60,30,1,,,,,,,,
,,,,,,,,,,,,,FF,,,,,,,,1.0329,,,,,,,,,,,,,,,,,,,,,,61004503dc9295c868fa8c6f,61036d95d36c9a8a63a44c30,2021-07-29_23h11.13.922,Simcolourproject_2stim_asymm_v5,2020.2.10,Win32,60,61025ae37ef11b136ea224fe,,,,,,,,,3069,54.40001225,83.99999481,1,0,0,response1disk,,7,5.600060356,7.19999367,1,0,0,rectangle,5.600060356,7.19999367,1,0,0,5.600060356,7.19999367,1,0,0,0,61,61,158,1,,,,,,,,
,,,,,,,,,,,,,FF,,,,,,,,1.7499,,,,,,,,,,,,,,,,,,,,,,61004503dc9295c868fa8c6f,61036d95d36c9a8a63a44c30,2021-07-29_23h11.13.922,Simcolourproject_2stim_asymm_v5,2020.2.10,Win32,60,61025ae37ef11b136ea224fe,,,,,,,,,3552,28.00001186,-64.00000739,1,0,0,response3disk,,4,-1.59998858,-16.80000669,1,0,0,rectangle,-1.59998858,-16.80000669,1,0,0,-1.59998858,-16.80000669,1,0,0,0,62,62,99,1,,,,,,,,
,,,,,,,,,,,,,FF,,,,,,,,0.9672,,,,,,,,,,,,,,,,,,,,,,61004503dc9295c868fa8c6f,61036d95d36c9a8a63a44c30,2021-07-29_23h11.13.922,Simcolourproject_2stim_asymm_v5,2020.2.10,Win32,60,61025ae37ef11b136ea224fe,,,,,,,,,884,46.40001214,100.7999951,1,0,0,response1disk,,7,14.40001166,11.99999374,1,0,0,rectangle,14.40001166,11.99999374,1,0,0,14.40001166,11.99999374,1,0,0,0,63,63,35,1,,,,,,,,
,,,,,,,,,,,,,FF,,,,,,,,0.767,,,,,,,,,,,,,,,,,,,,,,61004503dc9295c868fa8c6f,61036d95d36c9a8a63a44c30,2021-07-29_23h11.13.922,Simcolourproject_2stim_asymm_v5,2020.2.10,Win32,60,61025ae37ef11b136ea224fe,,,,,,,,,2644,47.20001215,75.19997027,1,0,0,response1disk,,7,4.000011504,-9.60000658,1,0,0,rectangle,4.000011504,-9.60000658,1,0,0,4.000011504,-9.60000658,1,0,0,0,64,64,51,1,,,,,,,,
,,,,,,,,,,,,,FF,,,,,,,,1.2171,,,,,,,,,,,,,,,,,,,,,,61004503dc9295c868fa8c6f,61036d95d36c9a8a63a44c30,2021-07-29_23h11.13.922,Simcolourproject_2stim_asymm_v5,2020.2.10,Win32,60,61025ae37ef11b136ea224fe,,,,,,,,,3048,24.0000118,-61.60000736,1,0,0,response3disk,,4,-0.799988568,5.599993646,1,0,0,rectangle,-0.799988568,5.599993646,1,0,0,-0.799988568,5.599993646,1,0,0,0,65,65,7,1,,,,,,,,
,,,,,,,,,,,,,FF,,,,,,,,0.6169,,,,,,,,,,,,,,,,,,,,,,61004503dc9295c868fa8c6f,61036d95d36c9a8a63a44c30,2021-07-29_23h11.13.922,Simcolourproject_2stim_asymm_v5,2020.2.10,Win32,60,61025ae37ef11b136ea224fe,,,,,,,,,482,40.00001204,81.59999478,1,0,0,response1disk,,7,5.600060356,-5.600006521,1,0,0,rectangle,5.600060356,-5.600006521,1,0,0,5.600060356,-5.600006521,1,0,0,0,66,66,148,1,,,,,,,,
,,,,,,,,,,,,,FF,,,,,,,,1,,,,,,,,,,,,,,,,,,,,,,61004503dc9295c868fa8c6f,61036d95d36c9a8a63a44c30,2021-07-29_23h11.13.922,Simcolourproject_2stim_asymm_v5,2020.2.10,Win32,60,61025ae37ef11b136ea224fe,,,,,,,,,1632,59.20001233,39.19996973,1,0,0,response1disk,,6,11.20001161,11.19999373,1,0,0,rectangle,11.20001161,11.19999373,1,0,0,11.20001161,11.19999373,1,0,0,0,67,67,28,1,,,,,,,,
,,,,,,,,,,,,,FF,,,,,,,,0.7501,,,,,,,,,,,,,,,,,,,,,,61004503dc9295c868fa8c6f,61036d95d36c9a8a63a44c30,2021-07-29_23h11.13.922,Simcolourproject_2stim_asymm_v5,2020.2.10,Win32,60,61025ae37ef11b136ea224fe,,,,,,,,,956,52.00001222,28.79999399,1,0,0,response1disk,,6,18.40001172,3.999993622,1,0,0,rectangle,18.40001172,3.999993622,1,0,0,18.40001172,3.999993622,1,0,0,0,68,68,54,1,,,,,,,,
,,,,,,,,,,,,,FF,,,,,,,,0.5338,,,,,,,,,,,,,,,,,,,,,,61004503dc9295c868fa8c6f,61036d95d36c9a8a63a44c30,2021-07-29_23h11.13.922,Simcolourproject_2stim_asymm_v5,2020.2.10,Win32,60,61025ae37ef11b136ea224fe,,,,,,,,,2198,44.80001211,90.39999491,1,0,0,response1disk,,7,-5.599988639,-6.400006533,1,0,0,rectangle,-5.599988639,-6.400006533,1,0,0,-5.599988639,-6.400006533,1,0,0,0,69,69,61,1,,,,,,,,
,,,,,,,,,,,,,FF,,,,,,,,0.5001,,,,,,,,,,,,,,,,,,,,,,61004503dc9295c868fa8c6f,61036d95d36c9a8a63a44c30,2021-07-29_23h11.13.922,Simcolourproject_2stim_asymm_v5,2020.2.10,Win32,60,61025ae37ef11b136ea224fe,,,,,,,,,71,34.40001196,82.39999479,1,0,0,response1disk,,7,-3.199988604,7.999993682,1,0,0,rectangle,-3.199988604,7.999993682,1,0,0,-3.199988604,7.999993682,1,0,0,0,70,70,39,1,,,,,,,,
,,,,,,,,,,,,,FF,,,,,,,,1.0573,,,,,,,,,,,,,,,,,,,,,,61004503dc9295c868fa8c6f,61036d95d36c9a8a63a44c30,2021-07-29_23h11.13.922,Simcolourproject_2stim_asymm_v5,2020.2.10,Win32,60,61025ae37ef11b136ea224fe,,,,,,,,,1232,84.0000127,29.599994,1,0,0,response1disk,,6,24.80001181,-0.800006449,1,0,0,rectangle,24.80001181,-0.800006449,1,0,0,24.80001181,-0.800006449,1,0,0,0,71,71,87,1,,,,,,,,
,,,,,,,,,,,,,FF,,,,,,,,7.1656,,,,,,,,,,,,,,,,,,,,,,61004503dc9295c868fa8c6f,61036d95d36c9a8a63a44c30,2021-07-29_23h11.13.922,Simcolourproject_2stim_asymm_v5,2020.2.10,Win32,60,61025ae37ef11b136ea224fe,,,,,,,,,1233,66.40001243,-22.40000677,1,0,0,response3disk,,5,-10.39993988,6.399993658,1,0,0,rectangle,-10.39993988,6.399993658,1,0,0,-10.39993988,6.399993658,1,0,0,0,72,72,115,1,,,,,,,,
,,,,,,,,,,,,,FF,,,,,,,,0.986,,,,,,,,,,,,,,,,,,,,,,61004503dc9295c868fa8c6f,61036d95d36c9a8a63a44c30,2021-07-29_23h11.13.922,Simcolourproject_2stim_asymm_v5,2020.2.10,Win32,60,61025ae37ef11b136ea224fe,,,,,,,,,2014,54.40001225,71.99999464,1,0,0,response1disk,,7,7.200011551,0.799993575,1,0,0,rectangle,7.200011551,0.799993575,1,0,0,7.200011551,0.799993575,1,0,0,0,73,73,110,1,,,,,,,,
,,,,,,,,,,,,,FF,,,,,,,,0.6677,,,,,,,,,,,,,,,,,,,,,,61004503dc9295c868fa8c6f,61036d95d36c9a8a63a44c30,2021-07-29_23h11.13.922,Simcolourproject_2stim_asymm_v5,2020.2.10,Win32,60,61025ae37ef11b136ea224fe,,,,,,,,,1500,40.80001205,83.19997039,1,0,0,response1disk,,7,-2.399939764,11.19999373,1,0,0,rectangle,-2.399939764,11.19999373,1,0,0,-2.399939764,11.19999373,1,0,0,0,74,74,128,1,,,,,,,,
,,,,,,,,,,,,,FF,,,,,,,,0.5661,,,,,,,,,,,,,,,,,,,,,,61004503dc9295c868fa8c6f,61036d95d36c9a8a63a44c30,2021-07-29_23h11.13.922,Simcolourproject_2stim_asymm_v5,2020.2.10,Win32,60,61025ae37ef11b136ea224fe,,,,,,,,,3527,46.40001214,79.19997033,1,0,0,response1disk,,7,4.800011516,-3.200006485,1,0,0,rectangle,4.800011516,-3.200006485,1,0,0,4.800011516,-3.200006485,1,0,0,0,75,75,1,1,,,,,,,,
,,,,,,,,,,,,,FF,,,,,,,,0.6838,,,,,,,,,,,,,,,,,,,,,,61004503dc9295c868fa8c6f,61036d95d36c9a8a63a44c30,2021-07-29_23h11.13.922,Simcolourproject_2stim_asymm_v5,2020.2.10,Win32,60,61025ae37ef11b136ea224fe,,,,,,,,,665,52.00001222,34.39999408,1,0,0,response1disk,,6,16.80001169,7.999993682,1,0,0,rectangle,16.80001169,7.999993682,1,0,0,16.80001169,7.999993682,1,0,0,0,76,76,96,1,,,,,,,,
,,,,,,,,,,,,,FF,,,,,,,,0.748,,,,,,,,,,,,,,,,,,,,,,61004503dc9295c868fa8c6f,61036d95d36c9a8a63a44c30,2021-07-29_23h11.13.922,Simcolourproject_2stim_asymm_v5,2020.2.10,Win32,60,61025ae37ef11b136ea224fe,,,,,,,,,2798,86.40001273,30.39999402,1,0,0,response1disk,,6,1.14441E-05,-3.200006485,1,0,0,rectangle,1.14441E-05,-3.200006485,1,0,0,1.14441E-05,-3.200006485,1,0,0,0,77,77,12,1,,,,,,,,
,,,,,,,,,,,,,FF,,,,,,,,1.0472,,,,,,,,,,,,,,,,,,,,,,61004503dc9295c868fa8c6f,61036d95d36c9a8a63a44c30,2021-07-29_23h11.13.922,Simcolourproject_2stim_asymm_v5,2020.2.10,Win32,60,61025ae37ef11b136ea224fe,,,,,,,,,3559,28.80001187,-52.00000721,1,0,0,response3disk,,4,-12.79998875,-2.400006473,1,0,0,rectangle,-12.79998875,-2.400006473,1,0,0,-12.79998875,-2.400006473,1,0,0,0,78,78,121,1,,,,,,,,
,,,,,,,,,,,,,FF,,,,,,,,1.2653,,,,,,,,,,,,,,,,,,,,,,61004503dc9295c868fa8c6f,61036d95d36c9a8a63a44c30,2021-07-29_23h11.13.922,Simcolourproject_2stim_asymm_v5,2020.2.10,Win32,60,61025ae37ef11b136ea224fe,,,,,,,,,1088,31.20001191,68.79999459,1,0,0,response1disk,,7,0.800011456,-0.800006449,1,0,0,rectangle,0.800011456,-0.800006449,1,0,0,0.800011456,-0.800006449,1,0,0,0,79,79,8,1,,,,,,,,
,,,,,,,,,,,,,FF,,,,,,,,0.566,,,,,,,,,,,,,,,,,,,,,,61004503dc9295c868fa8c6f,61036d95d36c9a8a63a44c30,2021-07-29_23h11.13.922,Simcolourproject_2stim_asymm_v5,2020.2.10,Win32,60,61025ae37ef11b136ea224fe,,,,,,,,,3182,28.80001187,76.79999471,1,0,0,response1disk,,7,-1.59998858,-6.400006533,1,0,0,rectangle,-1.59998858,-6.400006533,1,0,0,-1.59998858,-6.400006533,1,0,0,0,80,80,149,1,,,,,,,,
,,,,,,,,,,,,,FF,,,,,,,,0.7336,,,,,,,,,,,,,,,,,,,,,,61004503dc9295c868fa8c6f,61036d95d36c9a8a63a44c30,2021-07-29_23h11.13.922,Simcolourproject_2stim_asymm_v5,2020.2.10,Win32,60,61025ae37ef11b136ea224fe,,,,,,,,,4089,74.40001255,33.59999406,1,0,0,response1disk,,6,-3.199988604,-1.600006461,1,0,0,rectangle,-3.199988604,-1.600006461,1,0,0,-3.199988604,-1.600006461,1,0,0,0,81,81,113,1,,,,,,,,
,,,,,,,,,,,,,FF,,,,,,,,0.5171,,,,,,,,,,,,,,,,,,,,,,61004503dc9295c868fa8c6f,61036d95d36c9a8a63a44c30,2021-07-29_23h11.13.922,Simcolourproject_2stim_asymm_v5,2020.2.10,Win32,60,61025ae37ef11b136ea224fe,,,,,,,,,2022,20.00001174,69.5999946,1,0,0,response1disk,,7,-15.99998879,1.599993587,1,0,0,rectangle,-15.99998879,1.599993587,1,0,0,-15.99998879,1.599993587,1,0,0,0,82,82,138,1,,,,,,,,
,,,,,,,,,,,,,FF,,,,,,,,1.1344,,,,,,,,,,,,,,,,,,,,,,61004503dc9295c868fa8c6f,61036d95d36c9a8a63a44c30,2021-07-29_23h11.13.922,Simcolourproject_2stim_asymm_v5,2020.2.10,Win32,60,61025ae37ef11b136ea224fe,,,,,,,,,1602,-26.39994012,-50.40000719,1,0,0,response5disk,,3,-17.59998882,-8.800006568,1,0,0,rectangle,-17.59998882,-8.800006568,1,0,0,-17.59998882,-8.800006568,1,0,0,0,83,83,95,1,,,,,,,,
,,,,,,,,,,,,,FF,,,,,,,,1.051,,,,,,,,,,,,,,,,,,,,,,61004503dc9295c868fa8c6f,61036d95d36c9a8a63a44c30,2021-07-29_23h11.13.922,Simcolourproject_2stim_asymm_v5,2020.2.10,Win32,60,61025ae37ef11b136ea224fe,,,,,,,,,3818,23.20001179,-52.00000721,1,0,0,response3disk,,4,15.20001167,-16.80000669,1,0,0,rectangle,15.20001167,-16.80000669,1,0,0,15.20001167,-16.80000669,1,0,0,0,84,84,43,1,,,,,,,,
,,,,,,,,,,,,,FF,,,,,,,,1.35,,,,,,,,,,,,,,,,,,,,,,61004503dc9295c868fa8c6f,61036d95d36c9a8a63a44c30,2021-07-29_23h11.13.922,Simcolourproject_2stim_asymm_v5,2020.2.10,Win32,60,61025ae37ef11b136ea224fe,,,,,,,,,2177,58.40001231,-22.40000677,1,0,0,response3disk,,5,24.0000118,4.799993634,1,0,0,rectangle,24.0000118,4.799993634,1,0,0,24.0000118,4.799993634,1,0,0,0,85,85,52,1,,,,,,,,
,,,,,,,,,,,,,FF,,,,,,,,1.234,,,,,,,,,,,,,,,,,,,,,,61004503dc9295c868fa8c6f,61036d95d36c9a8a63a44c30,2021-07-29_23h11.13.922,Simcolourproject_2stim_asymm_v5,2020.2.10,Win32,60,61025ae37ef11b136ea224fe,,,,,,,,,1859,38.40001202,73.59999466,1,0,0,response1disk,,7,28.00001186,8.799993694,1,0,0,rectangle,28.00001186,8.799993694,1,0,0,28.00001186,8.799993694,1,0,0,0,86,86,136,1,,,,,,,,
,,,,,,,,,,,,,FF,,,,,,,,1.0336,,,,,,,,,,,,,,,,,,,,,,61004503dc9295c868fa8c6f,61036d95d36c9a8a63a44c30,2021-07-29_23h11.13.922,Simcolourproject_2stim_asymm_v5,2020.2.10,Win32,60,61025ae37ef11b136ea224fe,,,,,,,,,2234,36.00001198,-60.00000733,1,0,0,response3disk,,4,14.40001166,7.999993682,1,0,0,rectangle,14.40001166,7.999993682,1,0,0,14.40001166,7.999993682,1,0,0,0,87,87,152,1,,,,,,,,
,,,,,,,,,,,,,FF,,,,,,,,0.7502,,,,,,,,,,,,,,,,,,,,,,61004503dc9295c868fa8c6f,61036d95d36c9a8a63a44c30,2021-07-29_23h11.13.922,Simcolourproject_2stim_asymm_v5,2020.2.10,Win32,60,61025ae37ef11b136ea224fe,,,,,,,,,2864,39.20001203,67.99999458,1,0,0,response1disk,,7,7.200011551,6.399993658,1,0,0,rectangle,7.200011551,6.399993658,1,0,0,7.200011551,6.399993658,1,0,0,0,88,88,140,1,,,,,,,,
,,,,,,,,,,,,,FF,,,,,,,,1.8498,,,,,,,,,,,,,,,,,,,,,,61004503dc9295c868fa8c6f,61036d95d36c9a8a63a44c30,2021-07-29_23h11.13.922,Simcolourproject_2stim_asymm_v5,2020.2.10,Win32,60,61025ae37ef11b136ea224fe,,,,,,,,,3711,80.80001265,-29.60000688,1,0,0,response3disk,,5,13.60006047,-1.600006461,1,0,0,rectangle,13.60006047,-1.600006461,1,0,0,13.60006047,-1.600006461,1,0,0,0,89,89,105,1,,,,,,,,
,,,,,,,,,,,,,FF,,,,,,,,1.1671,,,,,,,,,,,,,,,,,,,,,,61004503dc9295c868fa8c6f,61036d95d36c9a8a63a44c30,2021-07-29_23h11.13.922,Simcolourproject_2stim_asymm_v5,2020.2.10,Win32,60,61025ae37ef11b136ea224fe,,,,,,,,,4023,58.40001231,30.39999402,1,0,0,response1disk,,6,15.20001167,7.19999367,1,0,0,rectangle,15.20001167,7.19999367,1,0,0,15.20001167,7.19999367,1,0,0,0,90,90,117,1,,,,,,,,
,,,,,,,,,,,,,FF,,,,,,,,1.2345,,,,,,,,,,,,,,,,,,,,,,61004503dc9295c868fa8c6f,61036d95d36c9a8a63a44c30,2021-07-29_23h11.13.922,Simcolourproject_2stim_asymm_v5,2020.2.10,Win32,60,61025ae37ef11b136ea224fe,,,,,,,,,262,32.80001193,-61.60000736,1,0,0,response3disk,,4,9.600060415,4.799993634,1,0,0,rectangle,9.600060415,4.799993634,1,0,0,9.600060415,4.799993634,1,0,0,0,91,91,73,1,,,,,,,,
,,,,,,,,,,,,,FF,,,,,,,,1.8506,,,,,,,,,,,,,,,,,,,,,,61004503dc9295c868fa8c6f,61036d95d36c9a8a63a44c30,2021-07-29_23h11.13.922,Simcolourproject_2stim_asymm_v5,2020.2.10,Win32,60,61025ae37ef11b136ea224fe,,,,,,,,,2476,75.20001256,39.19996973,1,0,0,response1disk,,6,-0.799988568,-10.40000659,1,0,0,rectangle,-0.799988568,-10.40000659,1,0,0,-0.799988568,-10.40000659,1,0,0,0,92,92,141,1,,,,,,,,
,,,,,,,,,,,,,FF,,,,,,,,1.6504,,,,,,,,,,,,,,,,,,,,,,61004503dc9295c868fa8c6f,61036d95d36c9a8a63a44c30,2021-07-29_23h11.13.922,Simcolourproject_2stim_asymm_v5,2020.2.10,Win32,60,61025ae37ef11b136ea224fe,,,,,,,,,2614,56.00001228,27.99999398,1,0,0,response1disk,,6,14.40001166,0.799993575,1,0,0,rectangle,14.40001166,0.799993575,1,0,0,14.40001166,0.799993575,1,0,0,0,93,93,159,1,,,,,,,,
,,,,,,,,,,,,,FF,,,,,,,,0.7501,,,,,,,,,,,,,,,,,,,,,,61004503dc9295c868fa8c6f,61036d95d36c9a8a63a44c30,2021-07-29_23h11.13.922,Simcolourproject_2stim_asymm_v5,2020.2.10,Win32,60,61025ae37ef11b136ea224fe,,,,,,,,,337,32.00001192,71.19997021,1,0,0,response1disk,,7,-3.199988604,1.599993587,1,0,0,rectangle,-67.19998956,-29.60000688,1,0,0,1.600060296,0.799993575,1,0,0,0,94,94,62,1,,response5disk_3,TRUE,2,2,"[269,269,289,137,267,200,207,211,199,184,168,37,95,219,7,150,40,164,199,229]",2.0661,rectangle
,,,,,,,,,,,,,FF,,,,,,,,1,,,,,,,,,,,,,,,,,,,,,,61004503dc9295c868fa8c6f,61036d95d36c9a8a63a44c30,2021-07-29_23h11.13.922,Simcolourproject_2stim_asymm_v5,2020.2.10,Win32,60,61025ae37ef11b136ea224fe,,,,,,,,,3894,25.60006065,68.79999459,1,0,0,response1disk,,7,4.800011516,-6.4373E-06,1,0,0,rectangle,4.800011516,-6.4373E-06,1,0,0,4.800011516,-6.4373E-06,1,0,0,0,95,95,22,1,,,,,,,,
,,,,,,,,,,,,,FF,,,,,,,,0.7337,,,,,,,,,,,,,,,,,,,,,,61004503dc9295c868fa8c6f,61036d95d36c9a8a63a44c30,2021-07-29_23h11.13.922,Simcolourproject_2stim_asymm_v5,2020.2.10,Win32,60,61025ae37ef11b136ea224fe,,,,,,,,,2265,32.80001193,74.39999467,1,0,0,response1disk,,7,-8.799988687,5.599993646,1,0,0,rectangle,-8.799988687,5.599993646,1,0,0,-8.799988687,5.599993646,1,0,0,0,96,96,65,1,,,,,,,,
,,,,,,,,,,,,,FF,,,,,,,,0.8662,,,,,,,,,,,,,,,,,,,,,,61004503dc9295c868fa8c6f,61036d95d36c9a8a63a44c30,2021-07-29_23h11.13.922,Simcolourproject_2stim_asymm_v5,2020.2.10,Win32,60,61025ae37ef11b136ea224fe,,,,,,,,,808,28.80001187,-44.00000709,1,0,0,response3disk,,4,-5.599988639,9.599993706,1,0,0,rectangle,-5.599988639,9.599993706,1,0,0,-5.599988639,9.599993706,1,0,0,0,97,97,130,1,,,,,,,,
,,,,,,,,,,,,,FF,,,,,,,,3.1501,,,,,,,,,,,,,,,,,,,,,,61004503dc9295c868fa8c6f,61036d95d36c9a8a63a44c30,2021-07-29_23h11.13.922,Simcolourproject_2stim_asymm_v5,2020.2.10,Win32,60,61025ae37ef11b136ea224fe,,,,,,,,,572,36.80001199,79.19997033,1,0,0,response1disk,,7,22.40001178,15.9999938,1,0,0,rectangle,22.40001178,15.9999938,1,0,0,22.40001178,15.9999938,1,0,0,0,98,98,66,1,,,,,,,,
,,,,,,,,,,,,,FF,,,,,,,,0.5347,,,,,,,,,,,,,,,,,,,,,,61004503dc9295c868fa8c6f,61036d95d36c9a8a63a44c30,2021-07-29_23h11.13.922,Simcolourproject_2stim_asymm_v5,2020.2.10,Win32,60,61025ae37ef11b136ea224fe,,,,,,,,,1170,48.80001217,92.79999495,1,0,0,response1disk,,7,14.40001166,-8.800006568,1,0,0,rectangle,14.40001166,-8.800006568,1,0,0,14.40001166,-8.800006568,1,0,0,0,99,99,111,1,,,,,,,,
,,,,,,,,,,,,,FF,,,,,,,,0.632,,,,,,,,,,,,,,,,,,,,,,61004503dc9295c868fa8c6f,61036d95d36c9a8a63a44c30,2021-07-29_23h11.13.922,Simcolourproject_2stim_asymm_v5,2020.2.10,Win32,60,61025ae37ef11b136ea224fe,,,,,,,,,1977,44.80001211,87.99999487,1,0,0,response1disk,,7,4.800011516,5.599993646,1,0,0,rectangle,4.800011516,5.599993646,1,0,0,4.800011516,5.599993646,1,0,0,0,100,100,106,1,,,,,,,,
,,,,,,,,,,,,,FF,,,,,,,,0.5011,,,,,,,,,,,,,,,,,,,,,,61004503dc9295c868fa8c6f,61036d95d36c9a8a63a44c30,2021-07-29_23h11.13.922,Simcolourproject_2stim_asymm_v5,2020.2.10,Win32,60,61025ae37ef11b136ea224fe,,,,,,,,,4289,40.00001204,90.39999491,1,0,0,response1disk,,7,0.800011456,4.799993634,1,0,0,rectangle,0.800011456,4.799993634,1,0,0,0.800011456,4.799993634,1,0,0,0,101,101,125,1,,,,,,,,
,,,,,,,,,,,,,FF,,,,,,,,0.4828,,,,,,,,,,,,,,,,,,,,,,61004503dc9295c868fa8c6f,61036d95d36c9a8a63a44c30,2021-07-29_23h11.13.922,Simcolourproject_2stim_asymm_v5,2020.2.10,Win32,60,61025ae37ef11b136ea224fe,,,,,,,,,251,39.20001203,74.39999467,1,0,0,response1disk,,7,8.800011575,7.19999367,1,0,0,rectangle,8.800011575,7.19999367,1,0,0,8.800011575,7.19999367,1,0,0,0,102,102,26,1,,,,,,,,
,,,,,,,,,,,,,FF,,,,,,,,1.3011,,,,,,,,,,,,,,,,,,,,,,61004503dc9295c868fa8c6f,61036d95d36c9a8a63a44c30,2021-07-29_23h11.13.922,Simcolourproject_2stim_asymm_v5,2020.2.10,Win32,60,61025ae37ef11b136ea224fe,,,,,,,,,2593,72.80001253,42.39999419,1,0,0,response1disk,,6,-9.599988699,4.799993634,1,0,0,rectangle,-9.599988699,4.799993634,1,0,0,-9.599988699,4.799993634,1,0,0,0,103,103,42,1,,,,,,,,
,,,,,,,,,,,,,FF,,,,,,,,0.9308,,,,,,,,,,,,,,,,,,,,,,61004503dc9295c868fa8c6f,61036d95d36c9a8a63a44c30,2021-07-29_23h11.13.922,Simcolourproject_2stim_asymm_v5,2020.2.10,Win32,60,61025ae37ef11b136ea224fe,,,,,,,,,853,29.60006071,86.39999485,1,0,0,response1disk,,7,1.14441E-05,-0.800006449,1,0,0,rectangle,1.14441E-05,-0.800006449,1,0,0,1.14441E-05,-0.800006449,1,0,0,0,104,104,31,1,,,,,,,,
,,,,,,,,,,,,,FF,,,,,,,,0.9711,,,,,,,,,,,,,,,,,,,,,,61004503dc9295c868fa8c6f,61036d95d36c9a8a63a44c30,2021-07-29_23h11.13.922,Simcolourproject_2stim_asymm_v5,2020.2.10,Win32,60,61025ae37ef11b136ea224fe,,,,,,,,,538,30.4000119,65.59999454,1,0,0,response1disk,,7,-6.399939823,-5.600006521,1,0,0,rectangle,-6.399939823,-5.600006521,1,0,0,-6.399939823,-5.600006521,1,0,0,0,105,105,145,1,,,,,,,,
,,,,,,,,,,,,,FF,,,,,,,,1.1021,,,,,,,,,,,,,,,,,,,,,,61004503dc9295c868fa8c6f,61036d95d36c9a8a63a44c30,2021-07-29_23h11.13.922,Simcolourproject_2stim_asymm_v5,2020.2.10,Win32,60,61025ae37ef11b136ea224fe,,,,,,,,,2334,32.80001193,57.59999442,1,0,0,response1disk,,7,10.4000116,15.9999938,1,0,0,rectangle,10.4000116,15.9999938,1,0,0,10.4000116,15.9999938,1,0,0,0,106,106,68,1,,,,,,,,
,,,,,,,,,,,,,FF,,,,,,,,1.1682,,,,,,,,,,,,,,,,,,,,,,61004503dc9295c868fa8c6f,61036d95d36c9a8a63a44c30,2021-07-29_23h11.13.922,Simcolourproject_2stim_asymm_v5,2020.2.10,Win32,60,61025ae37ef11b136ea224fe,,,,,,,,,2058,38.40001202,84.79999483,1,0,0,response1disk,,7,-4.799988627,-4.000006497,1,0,0,rectangle,-4.799988627,-4.000006497,1,0,0,-4.799988627,-4.000006497,1,0,0,0,107,107,155,1,,,,,,,,
,,,,,,,,,,,,,FF,,,,,,,,1.2693,,,,,,,,,,,,,,,,,,,,,,61004503dc9295c868fa8c6f,61036d95d36c9a8a63a44c30,2021-07-29_23h11.13.922,Simcolourproject_2stim_asymm_v5,2020.2.10,Win32,60,61025ae37ef11b136ea224fe,,,,,,,,,2237,49.60006101,-21.60000676,1,0,0,response3disk,,5,7.200011551,10.39999372,1,0,0,rectangle,7.200011551,10.39999372,1,0,0,7.200011551,10.39999372,1,0,0,0,108,108,13,1,,,,,,,,
,,,,,,,,,,,,,FF,,,,,,,,1.5951,,,,,,,,,,,,,,,,,,,,,,61004503dc9295c868fa8c6f,61036d95d36c9a8a63a44c30,2021-07-29_23h11.13.922,Simcolourproject_2stim_asymm_v5,2020.2.10,Win32,60,61025ae37ef11b136ea224fe,,,,,,,,,4024,48.00001216,-20.80000675,1,0,0,response3disk,,5,24.80001181,1.599993587,1,0,0,rectangle,24.80001181,1.599993587,1,0,0,24.80001181,1.599993587,1,0,0,0,109,109,79,1,,,,,,,,
,,,,,,,,,,,,,FF,,,,,,,,1.0308,,,,,,,,,,,,,,,,,,,,,,61004503dc9295c868fa8c6f,61036d95d36c9a8a63a44c30,2021-07-29_23h11.13.922,Simcolourproject_2stim_asymm_v5,2020.2.10,Win32,60,61025ae37ef11b136ea224fe,,,,,,,,,3426,45.60006095,-23.20000678,1,0,0,response3disk,,5,1.600060296,-0.800006449,1,0,0,rectangle,1.600060296,-0.800006449,1,0,0,1.600060296,-0.800006449,1,0,0,0,110,110,18,1,,,,,,,,
,,,,,,,,,,,,,FF,,,,,,,,1.2164,,,,,,,,,,,,,,,,,,,,,,61004503dc9295c868fa8c6f,61036d95d36c9a8a63a44c30,2021-07-29_23h11.13.922,Simcolourproject_2stim_asymm_v5,2020.2.10,Win32,60,61025ae37ef11b136ea224fe,,,,,,,,,2305,24.0000118,79.99999475,1,0,0,response1disk,,7,-7.999988675,4.799993634,1,0,0,rectangle,-7.999988675,4.799993634,1,0,0,-7.999988675,4.799993634,1,0,0,0,111,111,17,1,,,,,,,,
,,,,,,,,,,,,,FF,,,,,,,,1.363,,,,,,,,,,,,,,,,,,,,,,61004503dc9295c868fa8c6f,61036d95d36c9a8a63a44c30,2021-07-29_23h11.13.922,Simcolourproject_2stim_asymm_v5,2020.2.10,Win32,60,61025ae37ef11b136ea224fe,,,,,,,,,4227,64.0000124,23.19996949,1,0,0,response1disk,,6,0.800011456,-4.800006509,1,0,0,rectangle,0.800011456,-4.800006509,1,0,0,0.800011456,-4.800006509,1,0,0,0,112,112,92,1,,,,,,,,
,,,,,,,,,,,,,FF,,,,,,,,2.6294,,,,,,,,,,,,,,,,,,,,,,61004503dc9295c868fa8c6f,61036d95d36c9a8a63a44c30,2021-07-29_23h11.13.922,Simcolourproject_2stim_asymm_v5,2020.2.10,Win32,60,61025ae37ef11b136ea224fe,,,,,,,,,2027,50.4000122,-28.00000685,1,0,0,response3disk,,5,5.600060356,5.599993646,1,0,0,rectangle,5.600060356,5.599993646,1,0,0,5.600060356,5.599993646,1,0,0,0,113,113,84,1,,,,,,,,
,,,,,,,,,,,,,FF,,,,,,,,0.7492,,,,,,,,,,,,,,,,,,,,,,61004503dc9295c868fa8c6f,61036d95d36c9a8a63a44c30,2021-07-29_23h11.13.922,Simcolourproject_2stim_asymm_v5,2020.2.10,Win32,60,61025ae37ef11b136ea224fe,,,,,,,,,2564,42.40001208,99.19997063,1,0,0,response1disk,,7,4.800011516,13.59999377,1,0,0,rectangle,4.800011516,13.59999377,1,0,0,4.800011516,13.59999377,1,0,0,0,114,114,88,1,,,,,,,,
,,,,,,,,,,,,,FF,,,,,,,,0.9159,,,,,,,,,,,,,,,,,,,,,,61004503dc9295c868fa8c6f,61036d95d36c9a8a63a44c30,2021-07-29_23h11.13.922,Simcolourproject_2stim_asymm_v5,2020.2.10,Win32,60,61025ae37ef11b136ea224fe,,,,,,,,,45,39.20001203,92.79999495,1,0,0,response1disk,,7,1.600060296,-1.600006461,1,0,0,rectangle,1.600060296,-1.600006461,1,0,0,1.600060296,-1.600006461,1,0,0,0,115,115,147,1,,,,,,,,
,,,,,,,,,,,,,FF,,,,,,,,0.8857,,,,,,,,,,,,,,,,,,,,,,61004503dc9295c868fa8c6f,61036d95d36c9a8a63a44c30,2021-07-29_23h11.13.922,Simcolourproject_2stim_asymm_v5,2020.2.10,Win32,60,61025ae37ef11b136ea224fe,,,,,,,,,2241,68.00001246,30.39999402,1,0,0,response1disk,,6,14.40001166,-5.600006521,1,0,0,rectangle,14.40001166,-5.600006521,1,0,0,14.40001166,-5.600006521,1,0,0,0,116,116,86,1,,,,,,,,
,,,,,,,,,,,,,FF,,,,,,,,1.9164,,,,,,,,,,,,,,,,,,,,,,61004503dc9295c868fa8c6f,61036d95d36c9a8a63a44c30,2021-07-29_23h11.13.922,Simcolourproject_2stim_asymm_v5,2020.2.10,Win32,60,61025ae37ef11b136ea224fe,,,,,,,,,1524,38.40001202,-19.20000672,1,0,0,response3disk,,5,20.80001175,-8.000006557,1,0,0,rectangle,20.80001175,-8.000006557,1,0,0,20.80001175,-8.000006557,1,0,0,0,117,117,58,1,,,,,,,,
,,,,,,,,,,,,,FF,,,,,,,,1.7007,,,,,,,,,,,,,,,,,,,,,,61004503dc9295c868fa8c6f,61036d95d36c9a8a63a44c30,2021-07-29_23h11.13.922,Simcolourproject_2stim_asymm_v5,2020.2.10,Win32,60,61025ae37ef11b136ea224fe,,,,,,,,,413,42.40001208,91.19997051,1,0,0,response1disk,,7,12.80001163,14.39999378,1,0,0,rectangle,12.80001163,14.39999378,1,0,0,12.80001163,14.39999378,1,0,0,0,118,118,2,1,,,,,,,,
,,,,,,,,,,,,,FF,,,,,,,,1.1493,,,,,,,,,,,,,,,,,,,,,,61004503dc9295c868fa8c6f,61036d95d36c9a8a63a44c30,2021-07-29_23h11.13.922,Simcolourproject_2stim_asymm_v5,2020.2.10,Win32,60,61025ae37ef11b136ea224fe,,,,,,,,,2162,89.60001278,-29.60000688,1,0,0,response3disk,,5,-10.39993988,-2.400006473,1,0,0,rectangle,-10.39993988,-2.400006473,1,0,0,-10.39993988,-2.400006473,1,0,0,0,119,119,150,1,,,,,,,,
,,,,,,,,,,,,,FF,,,,,,,,0.8672,,,,,,,,,,,,,,,,,,,,,,61004503dc9295c868fa8c6f,61036d95d36c9a8a63a44c30,2021-07-29_23h11.13.922,Simcolourproject_2stim_asymm_v5,2020.2.10,Win32,60,61025ae37ef11b136ea224fe,,,,,,,,,3490,36.00001198,71.19997021,1,0,0,response1disk,,7,12.80001163,8.799993694,1,0,0,rectangle,12.80001163,8.799993694,1,0,0,12.80001163,8.799993694,1,0,0,0,120,120,129,1,,,,,,,,
,,,,,,,,,,,,,FF,,,,,,,,1.7835,,,,,,,,,,,,,,,,,,,,,,61004503dc9295c868fa8c6f,61036d95d36c9a8a63a44c30,2021-07-29_23h11.13.922,Simcolourproject_2stim_asymm_v5,2020.2.10,Win32,60,61025ae37ef11b136ea224fe,,,,,,,,,3434,90.40001279,-46.40000713,1,0,0,response3disk,,5,27.20001185,-8.000006557,1,0,0,rectangle,27.20001185,-8.000006557,1,0,0,27.20001185,-8.000006557,1,0,0,0,121,121,108,1,,,,,,,,
,,,,,,,,,,,,,FF,,,,,,,,0.6834,,,,,,,,,,,,,,,,,,,,,,61004503dc9295c868fa8c6f,61036d95d36c9a8a63a44c30,2021-07-29_23h11.13.922,Simcolourproject_2stim_asymm_v5,2020.2.10,Win32,60,61025ae37ef11b136ea224fe,,,,,,,,,3085,45.60006095,113.5999953,1,0,0,response1disk,,7,-28.79998899,3.19999361,1,0,0,rectangle,-28.79998899,3.19999361,1,0,0,-28.79998899,3.19999361,1,0,0,0,122,122,41,1,,,,,,,,
,,,,,,,,,,,,,FF,,,,,,,,1.851,,,,,,,,,,,,,,,,,,,,,,61004503dc9295c868fa8c6f,61036d95d36c9a8a63a44c30,2021-07-29_23h11.13.922,Simcolourproject_2stim_asymm_v5,2020.2.10,Win32,60,61025ae37ef11b136ea224fe,,,,,,,,,1818,50.4000122,78.39999473,1,0,0,response1disk,,7,17.60006053,-13.60000664,1,0,0,rectangle,17.60006053,-13.60000664,1,0,0,17.60006053,-13.60000664,1,0,0,0,123,123,104,1,,,,,,,,
,,,,,,,,,,,,,FF,,,,,,,,1.1179,,,,,,,,,,,,,,,,,,,,,,61004503dc9295c868fa8c6f,61036d95d36c9a8a63a44c30,2021-07-29_23h11.13.922,Simcolourproject_2stim_asymm_v5,2020.2.10,Win32,60,61025ae37ef11b136ea224fe,,,,,,,,,29,33.60006077,83.99999481,1,0,0,response1disk,,7,16.00001168,2.399993598,1,0,0,rectangle,16.00001168,2.399993598,1,0,0,16.00001168,2.399993598,1,0,0,0,124,124,44,1,,,,,,,,
,,,,,,,,,,,,,FF,,,,,,,,0.5835,,,,,,,,,,,,,,,,,,,,,,61004503dc9295c868fa8c6f,61036d95d36c9a8a63a44c30,2021-07-29_23h11.13.922,Simcolourproject_2stim_asymm_v5,2020.2.10,Win32,60,61025ae37ef11b136ea224fe,,,,,,,,,3483,23.20001179,83.99999481,1,0,0,response1disk,,7,-2.399939764,9.599993706,1,0,0,rectangle,-2.399939764,9.599993706,1,0,0,-2.399939764,9.599993706,1,0,0,0,125,125,134,1,,,,,,,,
,,,,,,,,,,,,,FF,,,,,,,,1.1671,,,,,,,,,,,,,,,,,,,,,,61004503dc9295c868fa8c6f,61036d95d36c9a8a63a44c30,2021-07-29_23h11.13.922,Simcolourproject_2stim_asymm_v5,2020.2.10,Win32,60,61025ae37ef11b136ea224fe,,,,,,,,,3924,71.20001251,28.79999399,1,0,0,response1disk,,6,9.600060415,-16.00000668,1,0,0,rectangle,9.600060415,-16.00000668,1,0,0,9.600060415,-16.00000668,1,0,0,0,126,126,4,1,,,,,,,,
,,,,,,,,,,,,,FF,,,,,,,,1.6188,,,,,,,,,,,,,,,,,,,,,,61004503dc9295c868fa8c6f,61036d95d36c9a8a63a44c30,2021-07-29_23h11.13.922,Simcolourproject_2stim_asymm_v5,2020.2.10,Win32,60,61025ae37ef11b136ea224fe,,,,,,,,,353,-28.79998899,-51.2000072,1,0,0,response5disk,,3,1.600060296,5.599993646,1,0,0,rectangle,1.600060296,5.599993646,1,0,0,1.600060296,5.599993646,1,0,0,0,127,127,153,1,,,,,,,,
,,,,,,,,,,,,,FF,,,,,,,,0.6004,,,,,,,,,,,,,,,,,,,,,,61004503dc9295c868fa8c6f,61036d95d36c9a8a63a44c30,2021-07-29_23h11.13.922,Simcolourproject_2stim_asymm_v5,2020.2.10,Win32,60,61025ae37ef11b136ea224fe,,,,,,,,,580,36.00001198,57.59999442,1,0,0,response1disk,,7,-1.59998858,-10.40000659,1,0,0,rectangle,-1.59998858,-10.40000659,1,0,0,-1.59998858,-10.40000659,1,0,0,0,128,128,70,1,,,,,,,,
,,,,,,,,,,,,,FF,,,,,,,,1.3165,,,,,,,,,,,,,,,,,,,,,,61004503dc9295c868fa8c6f,61036d95d36c9a8a63a44c30,2021-07-29_23h11.13.922,Simcolourproject_2stim_asymm_v5,2020.2.10,Win32,60,61025ae37ef11b136ea224fe,,,,,,,,,2102,41.60006089,-56.80000728,1,0,0,response3disk,,4,7.200011551,0.799993575,1,0,0,rectangle,7.200011551,0.799993575,1,0,0,7.200011551,0.799993575,1,0,0,0,129,129,60,1,,,,,,,,
,,,,,,,,,,,,,FF,,,,,,,,0.6667,,,,,,,,,,,,,,,,,,,,,,61004503dc9295c868fa8c6f,61036d95d36c9a8a63a44c30,2021-07-29_23h11.13.922,Simcolourproject_2stim_asymm_v5,2020.2.10,Win32,60,61025ae37ef11b136ea224fe,,,,,,,,,1910,64.80001241,111.9999952,1,0,0,response1disk,,7,-6.399939823,-13.60000664,1,0,0,rectangle,-6.399939823,-13.60000664,1,0,0,-6.399939823,-13.60000664,1,0,0,0,130,130,23,1,,,,,,,,
,,,,,,,,,,,,,FF,,,,,,,,0.6541,,,,,,,,,,,,,,,,,,,,,,61004503dc9295c868fa8c6f,61036d95d36c9a8a63a44c30,2021-07-29_23h11.13.922,Simcolourproject_2stim_asymm_v5,2020.2.10,Win32,60,61025ae37ef11b136ea224fe,,,,,,,,,4136,32.00001192,55.9999944,1,0,0,response1disk,,7,2.40001148,-8.000006557,1,0,0,rectangle,2.40001148,-8.000006557,1,0,0,2.40001148,-8.000006557,1,0,0,0,131,131,137,1,,,,,,,,
,,,,,,,,,,,,,FF,,,,,,,,1.6498,,,,,,,,,,,,,,,,,,,,,,61004503dc9295c868fa8c6f,61036d95d36c9a8a63a44c30,2021-07-29_23h11.13.922,Simcolourproject_2stim_asymm_v5,2020.2.10,Win32,60,61025ae37ef11b136ea224fe,,,,,,,,,2041,70.40001249,28.79999399,1,0,0,response1disk,,6,2.40001148,-9.60000658,1,0,0,rectangle,2.40001148,-9.60000658,1,0,0,2.40001148,-9.60000658,1,0,0,0,132,132,82,1,,,,,,,,
,,,,,,,,,,,,,FF,,,,,,,,1.0333,,,,,,,,,,,,,,,,,,,,,,61004503dc9295c868fa8c6f,61036d95d36c9a8a63a44c30,2021-07-29_23h11.13.922,Simcolourproject_2stim_asymm_v5,2020.2.10,Win32,60,61025ae37ef11b136ea224fe,,,,,,,,,54,53.60001224,106.3999951,1,0,0,response1disk,,7,1.14441E-05,7.999993682,1,0,0,rectangle,1.14441E-05,7.999993682,1,0,0,1.14441E-05,7.999993682,1,0,0,0,133,133,36,1,,,,,,,,
,,,,,,,,,,,,,FF,,,,,,,,0.5331,,,,,,,,,,,,,,,,,,,,,,61004503dc9295c868fa8c6f,61036d95d36c9a8a63a44c30,2021-07-29_23h11.13.922,Simcolourproject_2stim_asymm_v5,2020.2.10,Win32,60,61025ae37ef11b136ea224fe,,,,,,,,,1507,47.20001215,70.39999461,1,0,0,response1disk,,7,8.800011575,3.999993622,1,0,0,rectangle,8.800011575,3.999993622,1,0,0,8.800011575,3.999993622,1,0,0,0,134,134,97,1,,,,,,,,
,,,,,,,,,,,,,FF,,,,,,,,0.8334,,,,,,,,,,,,,,,,,,,,,,61004503dc9295c868fa8c6f,61036d95d36c9a8a63a44c30,2021-07-29_23h11.13.922,Simcolourproject_2stim_asymm_v5,2020.2.10,Win32,60,61025ae37ef11b136ea224fe,,,,,,,,,2032,89.60001278,36.79999411,1,0,0,response1disk,,6,31.20001191,-9.60000658,1,0,0,rectangle,31.20001191,-9.60000658,1,0,0,31.20001191,-9.60000658,1,0,0,0,135,135,56,1,,,,,,,,
,,,,,,,,,,,,,FF,,,,,,,,0.5839,,,,,,,,,,,,,,,,,,,,,,61004503dc9295c868fa8c6f,61036d95d36c9a8a63a44c30,2021-07-29_23h11.13.922,Simcolourproject_2stim_asymm_v5,2020.2.10,Win32,60,61025ae37ef11b136ea224fe,,,,,,,,,3034,33.60006077,29.599994,1,0,0,response1disk,,6,1.600060296,-7.200006545,1,0,0,rectangle,56.80001229,110.3999952,1,0,0,13.60006047,-2.400006473,1,0,0,0,136,136,29,1,,response1disk_3,TRUE,7,7,"[269,269,289,137,267,200,207,211,199,184,168,37,95,219,7,150,40,164,199,229]",1.6013,rectangle
,,,,,,,,,,,,,FF,,,,,,,,0.6168,,,,,,,,,,,,,,,,,,,,,,61004503dc9295c868fa8c6f,61036d95d36c9a8a63a44c30,2021-07-29_23h11.13.922,Simcolourproject_2stim_asymm_v5,2020.2.10,Win32,60,61025ae37ef11b136ea224fe,,,,,,,,,503,27.20001185,103.1999707,1,0,0,response1disk,,7,-7.199988663,11.19999373,1,0,0,rectangle,-7.199988663,11.19999373,1,0,0,-7.199988663,11.19999373,1,0,0,0,137,137,63,1,,,,,,,,
,,,,,,,,,,,,,FF,,,,,,,,2.5843,,,,,,,,,,,,,,,,,,,,,,61004503dc9295c868fa8c6f,61036d95d36c9a8a63a44c30,2021-07-29_23h11.13.922,Simcolourproject_2stim_asymm_v5,2020.2.10,Win32,60,61025ae37ef11b136ea224fe,,,,,,,,,1103,50.4000122,75.19997027,1,0,0,response1disk,,7,11.20001161,-6.4373E-06,1,0,0,rectangle,11.20001161,-6.4373E-06,1,0,0,11.20001161,-6.4373E-06,1,0,0,0,138,138,53,1,,,,,,,,
,,,,,,,,,,,,,FF,,,,,,,,0.684,,,,,,,,,,,,,,,,,,,,,,61004503dc9295c868fa8c6f,61036d95d36c9a8a63a44c30,2021-07-29_23h11.13.922,Simcolourproject_2stim_asymm_v5,2020.2.10,Win32,60,61025ae37ef11b136ea224fe,,,,,,,,,207,36.80001199,89.5999949,1,0,0,response1disk,,7,7.200011551,11.99999374,1,0,0,rectangle,7.200011551,11.99999374,1,0,0,7.200011551,11.99999374,1,0,0,0,139,139,91,1,,,,,,,,
,,,,,,,,,,,,,FF,,,,,,,,2.5836,,,,,,,,,,,,,,,,,,,,,,61004503dc9295c868fa8c6f,61036d95d36c9a8a63a44c30,2021-07-29_23h11.13.922,Simcolourproject_2stim_asymm_v5,2020.2.10,Win32,60,61025ae37ef11b136ea224fe,,,,,,,,,3870,22.40001178,88.79999489,1,0,0,response1disk,,7,6.400011539,6.399993658,1,0,0,rectangle,6.400011539,6.399993658,1,0,0,6.400011539,6.399993658,1,0,0,0,140,140,3,1,,,,,,,,
,,,,,,,,,,,,,FF,,,,,,,,1.634,,,,,,,,,,,,,,,,,,,,,,61004503dc9295c868fa8c6f,61036d95d36c9a8a63a44c30,2021-07-29_23h11.13.922,Simcolourproject_2stim_asymm_v5,2020.2.10,Win32,60,61025ae37ef11b136ea224fe,,,,,,,,,564,20.80001175,-40.80000705,1,0,0,response3disk,,4,5.600060356,-13.60000664,1,0,0,rectangle,5.600060356,-13.60000664,1,0,0,5.600060356,-13.60000664,1,0,0,0,141,141,85,1,,,,,,,,
,,,,,,,,,,,,,FF,,,,,,,,1.5838,,,,,,,,,,,,,,,,,,,,,,61004503dc9295c868fa8c6f,61036d95d36c9a8a63a44c30,2021-07-29_23h11.13.922,Simcolourproject_2stim_asymm_v5,2020.2.10,Win32,60,61025ae37ef11b136ea224fe,,,,,,,,,458,21.60006059,-53.60000724,1,0,0,response3disk,,4,3.200011492,-4.000006497,1,0,0,rectangle,3.200011492,-4.000006497,1,0,0,3.200011492,-4.000006497,1,0,0,0,142,142,94,1,,,,,,,,
,,,,,,,,,,,,,FF,,,,,,,,0.5837,,,,,,,,,,,,,,,,,,,,,,61004503dc9295c868fa8c6f,61036d95d36c9a8a63a44c30,2021-07-29_23h11.13.922,Simcolourproject_2stim_asymm_v5,2020.2.10,Win32,60,61025ae37ef11b136ea224fe,,,,,,,,,434,22.40001178,-42.40000707,1,0,0,response3disk,,4,-12.79998875,7.19999367,1,0,0,rectangle,-12.79998875,7.19999367,1,0,0,-12.79998875,7.19999367,1,0,0,0,143,143,24,1,,,,,,,,
,,,,,,,,,,,,,FF,,,,,,,,1.9336,,,,,,,,,,,,,,,,,,,,,,61004503dc9295c868fa8c6f,61036d95d36c9a8a63a44c30,2021-07-29_23h11.13.922,Simcolourproject_2stim_asymm_v5,2020.2.10,Win32,60,61025ae37ef11b136ea224fe,,,,,,,,,1643,46.40001214,88.79999489,1,0,0,response1disk,,7,-16.79998881,-9.60000658,1,0,0,rectangle,-16.79998881,-9.60000658,1,0,0,-16.79998881,-9.60000658,1,0,0,0,144,144,93,1,,,,,,,,
,,,,,,,,,,,,,FF,,,,,,,,0.6999,,,,,,,,,,,,,,,,,,,,,,61004503dc9295c868fa8c6f,61036d95d36c9a8a63a44c30,2021-07-29_23h11.13.922,Simcolourproject_2stim_asymm_v5,2020.2.10,Win32,60,61025ae37ef11b136ea224fe,,,,,,,,,2980,23.20001179,83.99999481,1,0,0,response1disk,,7,-3.999988616,14.39999378,1,0,0,rectangle,-3.999988616,14.39999378,1,0,0,-3.999988616,14.39999378,1,0,0,0,145,145,89,1,,,,,,,,
,,,,,,,,,,,,,FF,,,,,,,,1.4168,,,,,,,,,,,,,,,,,,,,,,61004503dc9295c868fa8c6f,61036d95d36c9a8a63a44c30,2021-07-29_23h11.13.922,Simcolourproject_2stim_asymm_v5,2020.2.10,Win32,60,61025ae37ef11b136ea224fe,,,,,,,,,936,43.20001209,98.39999503,1,0,0,response1disk,,7,4.000011504,7.999993682,1,0,0,rectangle,4.000011504,7.999993682,1,0,0,4.000011504,7.999993682,1,0,0,0,146,146,34,1,,,,,,,,
,,,,,,,,,,,,,FF,,,,,,,,0.6002,,,,,,,,,,,,,,,,,,,,,,61004503dc9295c868fa8c6f,61036d95d36c9a8a63a44c30,2021-07-29_23h11.13.922,Simcolourproject_2stim_asymm_v5,2020.2.10,Win32,60,61025ae37ef11b136ea224fe,,,,,,,,,2507,34.40001196,89.5999949,1,0,0,response1disk,,7,4.000011504,4.799993634,1,0,0,rectangle,4.000011504,4.799993634,1,0,0,4.000011504,4.799993634,1,0,0,0,147,147,32,1,,,,,,,,
,,,,,,,,,,,,,FF,,,,,,,,0.3833,,,,,,,,,,,,,,,,,,,,,,61004503dc9295c868fa8c6f,61036d95d36c9a8a63a44c30,2021-07-29_23h11.13.922,Simcolourproject_2stim_asymm_v5,2020.2.10,Win32,60,61025ae37ef11b136ea224fe,,,,,,,,,1082,30.4000119,81.59999478,1,0,0,response1disk,,7,1.14441E-05,6.399993658,1,0,0,rectangle,1.14441E-05,6.399993658,1,0,0,1.14441E-05,6.399993658,1,0,0,0,148,148,98,1,,,,,,,,
,,,,,,,,,,,,,FF,,,,,,,,0.6335,,,,,,,,,,,,,,,,,,,,,,61004503dc9295c868fa8c6f,61036d95d36c9a8a63a44c30,2021-07-29_23h11.13.922,Simcolourproject_2stim_asymm_v5,2020.2.10,Win32,60,61025ae37ef11b136ea224fe,,,,,,,,,179,40.80001205,100.7999951,1,0,0,response1disk,,7,13.60006047,4.799993634,1,0,0,rectangle,-58.3999406,24.79999393,1,0,0,-21.59998888,-7.200006545,1,0,0,0,149,149,119,1,,response7disk_3,TRUE,1,1,"[269,269,289,137,267,200,207,211,199,184,168,37,95,219,7,150,40,164,199,229]",1.5338,rectangle
,,,,,,,,,,,,,FF,,,,,,,,1.8666,,,,,,,,,,,,,,,,,,,,,,61004503dc9295c868fa8c6f,61036d95d36c9a8a63a44c30,2021-07-29_23h11.13.922,Simcolourproject_2stim_asymm_v5,2020.2.10,Win32,60,61025ae37ef11b136ea224fe,,,,,,,,,4036,-23.1999889,-48.00000715,1,0,0,response5disk,,3,4.800011516,-5.600006521,1,0,0,rectangle,4.800011516,-5.600006521,1,0,0,4.800011516,-5.600006521,1,0,0,0,150,150,67,1,,,,,,,,
,,,,,,,,,,,,,FF,,,,,,,,0.784,,,,,,,,,,,,,,,,,,,,,,61004503dc9295c868fa8c6f,61036d95d36c9a8a63a44c30,2021-07-29_23h11.13.922,Simcolourproject_2stim_asymm_v5,2020.2.10,Win32,60,61025ae37ef11b136ea224fe,,,,,,,,,2358,-24.79998893,-43.20000708,1,0,0,response5disk,,3,-12.79998875,-16.00000668,1,0,0,rectangle,-12.79998875,-16.00000668,1,0,0,-12.79998875,-16.00000668,1,0,0,0,151,151,47,1,,,,,,,,
,,,,,,,,,,,,,FF,,,,,,,,1.4166,,,,,,,,,,,,,,,,,,,,,,61004503dc9295c868fa8c6f,61036d95d36c9a8a63a44c30,2021-07-29_23h11.13.922,Simcolourproject_2stim_asymm_v5,2020.2.10,Win32,60,61025ae37ef11b136ea224fe,,,,,,,,,1624,17.60006053,63.99999452,1,0,0,response1disk,,7,-3.999988616,15.19999379,1,0,0,rectangle,-3.999988616,15.19999379,1,0,0,-3.999988616,15.19999379,1,0,0,0,152,152,123,1,,,,,,,,
,,,,,,,,,,,,,FF,,,,,,,,0.5152,,,,,,,,,,,,,,,,,,,,,,61004503dc9295c868fa8c6f,61036d95d36c9a8a63a44c30,2021-07-29_23h11.13.922,Simcolourproject_2stim_asymm_v5,2020.2.10,Win32,60,61025ae37ef11b136ea224fe,,,,,,,,,362,24.80001181,74.39999467,1,0,0,response1disk,,7,1.14441E-05,15.19999379,1,0,0,rectangle,1.14441E-05,15.19999379,1,0,0,1.14441E-05,15.19999379,1,0,0,0,153,153,64,1,,,,,,,,
,,,,,,,,,,,,,FF,,,,,,,,0.4182,,,,,,,,,,,,,,,,,,,,,,61004503dc9295c868fa8c6f,61036d95d36c9a8a63a44c30,2021-07-29_23h11.13.922,Simcolourproject_2stim_asymm_v5,2020.2.10,Win32,60,61025ae37ef11b136ea224fe,,,,,,,,,3011,58.40001231,95.19997057,1,0,0,response1disk,,7,20.00001174,13.59999377,1,0,0,rectangle,20.00001174,13.59999377,1,0,0,20.00001174,13.59999377,1,0,0,0,154,154,157,1,,,,,,,,
,,,,,,,,,,,,,FF,,,,,,,,1.7338,,,,,,,,,,,,,,,,,,,,,,61004503dc9295c868fa8c6f,61036d95d36c9a8a63a44c30,2021-07-29_23h11.13.922,Simcolourproject_2stim_asymm_v5,2020.2.10,Win32,60,61025ae37ef11b136ea224fe,,,,,,,,,198,40.80001205,58.39999443,1,0,0,response1disk,,7,16.80001169,15.19999379,1,0,0,rectangle,16.80001169,15.19999379,1,0,0,16.80001169,15.19999379,1,0,0,0,155,155,55,1,,,,,,,,
,,,,,,,,,,,,,FF,,,,,,,,1.6507,,,,,,,,,,,,,,,,,,,,,,61004503dc9295c868fa8c6f,61036d95d36c9a8a63a44c30,2021-07-29_23h11.13.922,Simcolourproject_2stim_asymm_v5,2020.2.10,Win32,60,61025ae37ef11b136ea224fe,,,,,,,,,2658,68.80001247,42.39999419,1,0,0,response1disk,,6,34.40001196,11.19999373,1,0,0,rectangle,34.40001196,11.19999373,1,0,0,34.40001196,11.19999373,1,0,0,0,156,156,143,1,,,,,,,,
,,,,,,,,,,,,,FF,,,,,,,,1.4841,,,,,,,,,,,,,,,,,,,,,,61004503dc9295c868fa8c6f,61036d95d36c9a8a63a44c30,2021-07-29_23h11.13.922,Simcolourproject_2stim_asymm_v5,2020.2.10,Win32,60,61025ae37ef11b136ea224fe,,,,,,,,,2653,83.20001268,43.19996979,1,0,0,response1disk,,6,24.0000118,7.999993682,1,0,0,rectangle,24.0000118,7.999993682,1,0,0,24.0000118,7.999993682,1,0,0,0,157,157,144,1,,,,,,,,
,,,,,,,,,,,,,FF,,,,,,,,0.6171,,,,,,,,,,,,,,,,,,,,,,61004503dc9295c868fa8c6f,61036d95d36c9a8a63a44c30,2021-07-29_23h11.13.922,Simcolourproject_2stim_asymm_v5,2020.2.10,Win32,60,61025ae37ef11b136ea224fe,,,,,,,,,2526,40.80001205,89.5999949,1,0,0,response1disk,,7,1.600060296,6.399993658,1,0,0,rectangle,1.600060296,6.399993658,1,0,0,1.600060296,6.399993658,1,0,0,0,158,158,40,1,,,,,,,,
,,,,,,,,,,,,,FF,,,,,,,,0.633,,,,,,,,,,,,,,,,,,,,,,61004503dc9295c868fa8c6f,61036d95d36c9a8a63a44c30,2021-07-29_23h11.13.922,Simcolourproject_2stim_asymm_v5,2020.2.10,Win32,60,61025ae37ef11b136ea224fe,,,,,,,,,493,20.80001175,86.39999485,1,0,0,response1disk,,7,-3.199988604,-4.800006509,1,0,0,rectangle,-3.199988604,-4.800006509,1,0,0,-3.199988604,-4.800006509,1,0,0,0,159,159,102,1,,,,,,,,
,,,,,,,,,,,,,FF,,,,,,,,0.6002,,,,,,,,,,,,,,,,,,,,,,61004503dc9295c868fa8c6f,61036d95d36c9a8a63a44c30,2021-07-29_23h11.13.922,Simcolourproject_2stim_asymm_v5,2020.2.10,Win32,60,61025ae37ef11b136ea224fe,,,,,,,,,2854,49.60006101,85.59999484,1,0,0,response1disk,,7,-7.999988675,-3.200006485,1,0,0,rectangle,-7.999988675,-3.200006485,1,0,0,-7.999988675,-3.200006485,1,0,0,1,0,160,115,1,,,,,,,,
,,,,,,,,,,,,,FF,,,,,,,,1.1169,,,,,,,,,,,,,,,,,,,,,,61004503dc9295c868fa8c6f,61036d95d36c9a8a63a44c30,2021-07-29_23h11.13.922,Simcolourproject_2stim_asymm_v5,2020.2.10,Win32,60,61025ae37ef11b136ea224fe,,,,,,,,,4321,32.80001193,75.9999947,1,0,0,response1disk,,7,-11.19998872,5.599993646,1,0,0,rectangle,-11.19998872,5.599993646,1,0,0,-11.19998872,5.599993646,1,0,0,1,1,161,107,1,,,,,,,,
,,,,,,,,,,,,,FF,,,,,,,,0.7004,,,,,,,,,,,,,,,,,,,,,,61004503dc9295c868fa8c6f,61036d95d36c9a8a63a44c30,2021-07-29_23h11.13.922,Simcolourproject_2stim_asymm_v5,2020.2.10,Win32,60,61025ae37ef11b136ea224fe,,,,,,,,,500,54.40001225,99.99999505,1,0,0,response1disk,,7,1.14441E-05,2.399993598,1,0,0,rectangle,1.14441E-05,2.399993598,1,0,0,1.14441E-05,2.399993598,1,0,0,1,2,162,104,1,,,,,,,,
,,,,,,,,,,,,,FF,,,,,,,,1.2332,,,,,,,,,,,,,,,,,,,,,,61004503dc9295c868fa8c6f,61036d95d36c9a8a63a44c30,2021-07-29_23h11.13.922,Simcolourproject_2stim_asymm_v5,2020.2.10,Win32,60,61025ae37ef11b136ea224fe,,,,,,,,,3052,21.60006059,-68.00000745,1,0,0,response3disk,,4,-2.399939764,-8.800006568,1,0,0,rectangle,22.40001178,-85.60005654,1,0,0,-1.59998858,-6.400006533,1,0,0,1,3,163,139,1,,response3disk_3,TRUE,4,4,"[269,269,289,137,267,200,207,211,199,184,168,37,95,219,7,150,40,164,199,229]",1.2165,rectangle
,,,,,,,,,,,,,FF,,,,,,,,0.9341,,,,,,,,,,,,,,,,,,,,,,61004503dc9295c868fa8c6f,61036d95d36c9a8a63a44c30,2021-07-29_23h11.13.922,Simcolourproject_2stim_asymm_v5,2020.2.10,Win32,60,61025ae37ef11b136ea224fe,,,,,,,,,1855,35.20001197,84.79999483,1,0,0,response1disk,,7,-4.799988627,13.59999377,1,0,0,rectangle,-4.799988627,13.59999377,1,0,0,-4.799988627,13.59999377,1,0,0,1,4,164,150,1,,,,,,,,
,,,,,,,,,,,,,FF,,,,,,,,0.4824,,,,,,,,,,,,,,,,,,,,,,61004503dc9295c868fa8c6f,61036d95d36c9a8a63a44c30,2021-07-29_23h11.13.922,Simcolourproject_2stim_asymm_v5,2020.2.10,Win32,60,61025ae37ef11b136ea224fe,,,,,,,,,2059,41.60006089,91.99999493,1,0,0,response1disk,,7,6.400011539,13.59999377,1,0,0,rectangle,6.400011539,13.59999377,1,0,0,6.400011539,13.59999377,1,0,0,1,5,165,108,1,,,,,,,,
,,,,,,,,,,,,,FF,,,,,,,,0.9828,,,,,,,,,,,,,,,,,,,,,,61004503dc9295c868fa8c6f,61036d95d36c9a8a63a44c30,2021-07-29_23h11.13.922,Simcolourproject_2stim_asymm_v5,2020.2.10,Win32,60,61025ae37ef11b136ea224fe,,,,,,,,,2809,43.20001209,98.39999503,1,0,0,response1disk,,7,13.60006047,15.9999938,1,0,0,rectangle,13.60006047,15.9999938,1,0,0,13.60006047,15.9999938,1,0,0,1,6,166,105,1,,,,,,,,
,,,,,,,,,,,,,FF,,,,,,,,1.8339,,,,,,,,,,,,,,,,,,,,,,61004503dc9295c868fa8c6f,61036d95d36c9a8a63a44c30,2021-07-29_23h11.13.922,Simcolourproject_2stim_asymm_v5,2020.2.10,Win32,60,61025ae37ef11b136ea224fe,,,,,,,,,16,94.40001285,57.59999442,1,0,0,response1disk,,6,28.00001186,5.599993646,1,0,0,rectangle,52.80001223,85.59999484,1,0,0,10.4000116,-8.000006557,1,0,0,1,7,167,54,1,,response1disk_3,TRUE,7,7,"[269,269,289,137,267,200,207,211,199,184,168,37,95,219,7,150,40,164,199,229]",1.2335,rectangle
,,,,,,,,,,,,,FF,,,,,,,,1.3179,,,,,,,,,,,,,,,,,,,,,,61004503dc9295c868fa8c6f,61036d95d36c9a8a63a44c30,2021-07-29_23h11.13.922,Simcolourproject_2stim_asymm_v5,2020.2.10,Win32,60,61025ae37ef11b136ea224fe,,,,,,,,,127,28.00001186,65.59999454,1,0,0,response1disk,,7,0.800011456,3.19999361,1,0,0,rectangle,0.800011456,3.19999361,1,0,0,0.800011456,3.19999361,1,0,0,1,8,168,66,1,,,,,,,,
,,,,,,,,,,,,,FF,,,,,,,,1.467,,,,,,,,,,,,,,,,,,,,,,61004503dc9295c868fa8c6f,61036d95d36c9a8a63a44c30,2021-07-29_23h11.13.922,Simcolourproject_2stim_asymm_v5,2020.2.10,Win32,60,61025ae37ef11b136ea224fe,,,,,,,,,621,-27.19998896,-62.40000737,1,0,0,response5disk,,3,-3.999988616,10.39999372,1,0,0,rectangle,-3.999988616,10.39999372,1,0,0,-3.999988616,10.39999372,1,0,0,1,9,169,143,1,,,,,,,,
,,,,,,,,,,,,,FF,,,,,,,,1.3167,,,,,,,,,,,,,,,,,,,,,,61004503dc9295c868fa8c6f,61036d95d36c9a8a63a44c30,2021-07-29_23h11.13.922,Simcolourproject_2stim_asymm_v5,2020.2.10,Win32,60,61025ae37ef11b136ea224fe,,,,,,,,,543,-35.99998909,81.59999478,1,0,0,response7disk,,0,-15.19998878,1.599993587,1,0,0,rectangle,-15.19998878,1.599993587,1,0,0,-15.19998878,1.599993587,1,0,0,1,10,170,2,1,,,,,,,,
,,,,,,,,,,,,,FF,,,,,,,,1.9508,,,,,,,,,,,,,,,,,,,,,,61004503dc9295c868fa8c6f,61036d95d36c9a8a63a44c30,2021-07-29_23h11.13.922,Simcolourproject_2stim_asymm_v5,2020.2.10,Win32,60,61025ae37ef11b136ea224fe,,,,,,,,,952,72.00001252,42.39999419,1,0,0,response1disk,,6,9.600060415,9.599993706,1,0,0,rectangle,9.600060415,9.599993706,1,0,0,9.600060415,9.599993706,1,0,0,1,11,171,63,1,,,,,,,,
,,,,,,,,,,,,,FF,,,,,,,,0.4672,,,,,,,,,,,,,,,,,,,,,,61004503dc9295c868fa8c6f,61036d95d36c9a8a63a44c30,2021-07-29_23h11.13.922,Simcolourproject_2stim_asymm_v5,2020.2.10,Win32,60,61025ae37ef11b136ea224fe,,,,,,,,,2312,41.60006089,94.39999497,1,0,0,response1disk,,7,4.000011504,14.39999378,1,0,0,rectangle,4.000011504,14.39999378,1,0,0,4.000011504,14.39999378,1,0,0,1,12,172,132,1,,,,,,,,
,,,,,,,,,,,,,FF,,,,,,,,1.3515,,,,,,,,,,,,,,,,,,,,,,61004503dc9295c868fa8c6f,61036d95d36c9a8a63a44c30,2021-07-29_23h11.13.922,Simcolourproject_2stim_asymm_v5,2020.2.10,Win32,60,61025ae37ef11b136ea224fe,,,,,,,,,3912,69.60001248,-17.6000067,1,0,0,response3disk,,5,20.00001174,8.799993694,1,0,0,rectangle,20.00001174,8.799993694,1,0,0,20.00001174,8.799993694,1,0,0,1,13,173,106,1,,,,,,,,
,,,,,,,,,,,,,FF,,,,,,,,0.9325,,,,,,,,,,,,,,,,,,,,,,61004503dc9295c868fa8c6f,61036d95d36c9a8a63a44c30,2021-07-29_23h11.13.922,Simcolourproject_2stim_asymm_v5,2020.2.10,Win32,60,61025ae37ef11b136ea224fe,,,,,,,,,2800,36.80001199,59.19997003,1,0,0,response1disk,,7,-7.199988663,-3.200006485,1,0,0,rectangle,-7.199988663,-3.200006485,1,0,0,-7.199988663,-3.200006485,1,0,0,1,14,174,122,1,,,,,,,,
,,,,,,,,,,,,,FF,,,,,,,,1.0507,,,,,,,,,,,,,,,,,,,,,,61004503dc9295c868fa8c6f,61036d95d36c9a8a63a44c30,2021-07-29_23h11.13.922,Simcolourproject_2stim_asymm_v5,2020.2.10,Win32,60,61025ae37ef11b136ea224fe,,,,,,,,,1708,35.20001197,66.39999455,1,0,0,response1disk,,7,-5.599988639,-13.60000664,1,0,0,rectangle,-5.599988639,-13.60000664,1,0,0,-5.599988639,-13.60000664,1,0,0,1,15,175,31,1,,,,,,,,
,,,,,,,,,,,,,FF,,,,,,,,0.6332,,,,,,,,,,,,,,,,,,,,,,61004503dc9295c868fa8c6f,61036d95d36c9a8a63a44c30,2021-07-29_23h11.13.922,Simcolourproject_2stim_asymm_v5,2020.2.10,Win32,60,61025ae37ef11b136ea224fe,,,,,,,,,2155,31.20001191,83.19997039,1,0,0,response1disk,,7,8.000011563,15.9999938,1,0,0,rectangle,8.000011563,15.9999938,1,0,0,8.000011563,15.9999938,1,0,0,1,16,176,93,1,,,,,,,,
,,,,,,,,,,,,,FF,,,,,,,,1.1004,,,,,,,,,,,,,,,,,,,,,,61004503dc9295c868fa8c6f,61036d95d36c9a8a63a44c30,2021-07-29_23h11.13.922,Simcolourproject_2stim_asymm_v5,2020.2.10,Win32,60,61025ae37ef11b136ea224fe,,,,,,,,,4269,38.40001202,76.79999471,1,0,0,response1disk,,7,16.80001169,-15.20000666,1,0,0,rectangle,16.80001169,-15.20000666,1,0,0,16.80001169,-15.20000666,1,0,0,1,17,177,3,1,,,,,,,,
,,,,,,,,,,,,,FF,,,,,,,,3.1178,,,,,,,,,,,,,,,,,,,,,,61004503dc9295c868fa8c6f,61036d95d36c9a8a63a44c30,2021-07-29_23h11.13.922,Simcolourproject_2stim_asymm_v5,2020.2.10,Win32,60,61025ae37ef11b136ea224fe,,,,,,,,,173,32.00001192,83.19997039,1,0,0,response1disk,,7,5.600060356,-1.600006461,1,0,0,rectangle,5.600060356,-1.600006461,1,0,0,5.600060356,-1.600006461,1,0,0,1,18,178,11,1,,,,,,,,
,,,,,,,,,,,,,FF,,,,,,,,1.1173,,,,,,,,,,,,,,,,,,,,,,61004503dc9295c868fa8c6f,61036d95d36c9a8a63a44c30,2021-07-29_23h11.13.922,Simcolourproject_2stim_asymm_v5,2020.2.10,Win32,60,61025ae37ef11b136ea224fe,,,,,,,,,199,77.6000126,31.99999404,1,0,0,response1disk,,6,12.80001163,0.799993575,1,0,0,rectangle,12.80001163,0.799993575,1,0,0,12.80001163,0.799993575,1,0,0,1,19,179,35,1,,,,,,,,
,,,,,,,,,,,,,FF,,,,,,,,0.3322,,,,,,,,,,,,,,,,,,,,,,61004503dc9295c868fa8c6f,61036d95d36c9a8a63a44c30,2021-07-29_23h11.13.922,Simcolourproject_2stim_asymm_v5,2020.2.10,Win32,60,61025ae37ef11b136ea224fe,,,,,,,,,2835,38.40001202,64.79999453,1,0,0,response1disk,,7,25.60006065,10.39999372,1,0,0,rectangle,25.60006065,10.39999372,1,0,0,25.60006065,10.39999372,1,0,0,1,20,180,22,1,,,,,,,,
,,,,,,,,,,,,,FF,,,,,,,,0.8831,,,,,,,,,,,,,,,,,,,,,,61004503dc9295c868fa8c6f,61036d95d36c9a8a63a44c30,2021-07-29_23h11.13.922,Simcolourproject_2stim_asymm_v5,2020.2.10,Win32,60,61025ae37ef11b136ea224fe,,,,,,,,,2113,47.20001215,75.19997027,1,0,0,response1disk,,7,4.000011504,-12.00000662,1,0,0,rectangle,4.000011504,-12.00000662,1,0,0,4.000011504,-12.00000662,1,0,0,1,21,181,70,1,,,,,,,,
,,,,,,,,,,,,,FF,,,,,,,,0.9834,,,,,,,,,,,,,,,,,,,,,,61004503dc9295c868fa8c6f,61036d95d36c9a8a63a44c30,2021-07-29_23h11.13.922,Simcolourproject_2stim_asymm_v5,2020.2.10,Win32,60,61025ae37ef11b136ea224fe,,,,,,,,,4222,39.20001203,-22.40000677,1,0,0,response3disk,,5,8.000011563,3.999993622,1,0,0,rectangle,8.000011563,3.999993622,1,0,0,8.000011563,3.999993622,1,0,0,1,22,182,76,1,,,,,,,,
,,,,,,,,,,,,,FF,,,,,,,,0.7,,,,,,,,,,,,,,,,,,,,,,61004503dc9295c868fa8c6f,61036d95d36c9a8a63a44c30,2021-07-29_23h11.13.922,Simcolourproject_2stim_asymm_v5,2020.2.10,Win32,60,61025ae37ef11b136ea224fe,,,,,,,,,2738,33.60006077,59.19997003,1,0,0,response1disk,,7,-3.999988616,-10.40000659,1,0,0,rectangle,-61.59998947,-26.40000683,1,0,0,-8.799988687,10.39999372,1,0,0,1,23,183,151,1,,response5disk_3,TRUE,2,2,"[269,269,289,137,267,200,207,211,199,184,168,37,95,219,7,150,40,164,199,229]",2.0002,rectangle
,,,,,,,,,,,,,FF,,,,,,,,1.0002,,,,,,,,,,,,,,,,,,,,,,61004503dc9295c868fa8c6f,61036d95d36c9a8a63a44c30,2021-07-29_23h11.13.922,Simcolourproject_2stim_asymm_v5,2020.2.10,Win32,60,61025ae37ef11b136ea224fe,,,,,,,,,3752,58.40001231,31.19996961,1,0,0,response1disk,,6,4.000011504,10.39999372,1,0,0,rectangle,4.000011504,10.39999372,1,0,0,4.000011504,10.39999372,1,0,0,1,24,184,26,1,,,,,,,,
,,,,,,,,,,,,,FF,,,,,,,,0.787,,,,,,,,,,,,,,,,,,,,,,61004503dc9295c868fa8c6f,61036d95d36c9a8a63a44c30,2021-07-29_23h11.13.922,Simcolourproject_2stim_asymm_v5,2020.2.10,Win32,60,61025ae37ef11b136ea224fe,,,,,,,,,3948,68.80001247,35.9999941,1,0,0,response1disk,,6,1.14441E-05,-0.800006449,1,0,0,rectangle,1.14441E-05,-0.800006449,1,0,0,1.14441E-05,-0.800006449,1,0,0,1,25,185,30,1,,,,,,,,
,,,,,,,,,,,,,FF,,,,,,,,0.7664,,,,,,,,,,,,,,,,,,,,,,61004503dc9295c868fa8c6f,61036d95d36c9a8a63a44c30,2021-07-29_23h11.13.922,Simcolourproject_2stim_asymm_v5,2020.2.10,Win32,60,61025ae37ef11b136ea224fe,,,,,,,,,4094,43.20001209,83.19997039,1,0,0,response1disk,,7,-4.799988627,7.999993682,1,0,0,rectangle,-4.799988627,7.999993682,1,0,0,-4.799988627,7.999993682,1,0,0,1,26,186,128,1,,,,,,,,
,,,,,,,,,,,,,FF,,,,,,,,0.4984,,,,,,,,,,,,,,,,,,,,,,61004503dc9295c868fa8c6f,61036d95d36c9a8a63a44c30,2021-07-29_23h11.13.922,Simcolourproject_2stim_asymm_v5,2020.2.10,Win32,60,61025ae37ef11b136ea224fe,,,,,,,,,3320,33.60006077,85.59999484,1,0,0,response1disk,,7,-1.59998858,11.99999374,1,0,0,rectangle,-1.59998858,11.99999374,1,0,0,-1.59998858,11.99999374,1,0,0,1,27,187,79,1,,,,,,,,
,,,,,,,,,,,,,FF,,,,,,,,0.6809,,,,,,,,,,,,,,,,,,,,,,61004503dc9295c868fa8c6f,61036d95d36c9a8a63a44c30,2021-07-29_23h11.13.922,Simcolourproject_2stim_asymm_v5,2020.2.10,Win32,60,61025ae37ef11b136ea224fe,,,,,,,,,4234,39.20001203,84.79999483,1,0,0,response1disk,,7,-5.599988639,5.599993646,1,0,0,rectangle,-5.599988639,5.599993646,1,0,0,-5.599988639,5.599993646,1,0,0,1,28,188,16,1,,,,,,,,
,,,,,,,,,,,,,FF,,,,,,,,0.4504,,,,,,,,,,,,,,,,,,,,,,61004503dc9295c868fa8c6f,61036d95d36c9a8a63a44c30,2021-07-29_23h11.13.922,Simcolourproject_2stim_asymm_v5,2020.2.10,Win32,60,61025ae37ef11b136ea224fe,,,,,,,,,2397,37.60006083,82.39999479,1,0,0,response1disk,,7,6.400011539,7.19999367,1,0,0,rectangle,6.400011539,7.19999367,1,0,0,6.400011539,7.19999367,1,0,0,1,29,189,140,1,,,,,,,,
,,,,,,,,,,,,,FF,,,,,,,,1.8839,,,,,,,,,,,,,,,,,,,,,,61004503dc9295c868fa8c6f,61036d95d36c9a8a63a44c30,2021-07-29_23h11.13.922,Simcolourproject_2stim_asymm_v5,2020.2.10,Win32,60,61025ae37ef11b136ea224fe,,,,,,,,,887,-47.19998926,-24.00000679,1,0,0,response5disk,,2,-1.59998858,-2.400006473,1,0,0,rectangle,-1.59998858,-2.400006473,1,0,0,-1.59998858,-2.400006473,1,0,0,1,30,190,102,1,,,,,,,,
,,,,,,,,,,,,,FF,,,,,,,,1.1504,,,,,,,,,,,,,,,,,,,,,,61004503dc9295c868fa8c6f,61036d95d36c9a8a63a44c30,2021-07-29_23h11.13.922,Simcolourproject_2stim_asymm_v5,2020.2.10,Win32,60,61025ae37ef11b136ea224fe,,,,,,,,,1259,27.20001185,73.59999466,1,0,0,response1disk,,7,-5.599988639,3.999993622,1,0,0,rectangle,-5.599988639,3.999993622,1,0,0,-5.599988639,3.999993622,1,0,0,1,31,191,153,1,,,,,,,,
,,,,,,,,,,,,,FF,,,,,,,,0.4369,,,,,,,,,,,,,,,,,,,,,,61004503dc9295c868fa8c6f,61036d95d36c9a8a63a44c30,2021-07-29_23h11.13.922,Simcolourproject_2stim_asymm_v5,2020.2.10,Win32,60,61025ae37ef11b136ea224fe,,,,,,,,,2590,36.00001198,70.39999461,1,0,0,response1disk,,7,-1.59998858,3.19999361,1,0,0,rectangle,-1.59998858,3.19999361,1,0,0,-1.59998858,3.19999361,1,0,0,1,32,192,129,1,,,,,,,,
,,,,,,,,,,,,,FF,,,,,,,,0.3662,,,,,,,,,,,,,,,,,,,,,,61004503dc9295c868fa8c6f,61036d95d36c9a8a63a44c30,2021-07-29_23h11.13.922,Simcolourproject_2stim_asymm_v5,2020.2.10,Win32,60,61025ae37ef11b136ea224fe,,,,,,,,,2082,62.40001237,100.7999951,1,0,0,response1disk,,7,4.800011516,14.39999378,1,0,0,rectangle,4.800011516,14.39999378,1,0,0,4.800011516,14.39999378,1,0,0,1,33,193,48,1,,,,,,,,
,,,,,,,,,,,,,FF,,,,,,,,0.3835,,,,,,,,,,,,,,,,,,,,,,61004503dc9295c868fa8c6f,61036d95d36c9a8a63a44c30,2021-07-29_23h11.13.922,Simcolourproject_2stim_asymm_v5,2020.2.10,Win32,60,61025ae37ef11b136ea224fe,,,,,,,,,683,35.20001197,82.39999479,1,0,0,response1disk,,7,12.80001163,15.9999938,1,0,0,rectangle,12.80001163,15.9999938,1,0,0,12.80001163,15.9999938,1,0,0,1,34,194,19,1,,,,,,,,
,,,,,,,,,,,,,FF,,,,,,,,0.6798,,,,,,,,,,,,,,,,,,,,,,61004503dc9295c868fa8c6f,61036d95d36c9a8a63a44c30,2021-07-29_23h11.13.922,Simcolourproject_2stim_asymm_v5,2020.2.10,Win32,60,61025ae37ef11b136ea224fe,,,,,,,,,248,38.40001202,69.5999946,1,0,0,response1disk,,7,-2.399939764,-4.800006509,1,0,0,rectangle,-2.399939764,-4.800006509,1,0,0,-2.399939764,-4.800006509,1,0,0,1,35,195,33,1,,,,,,,,
,,,,,,,,,,,,,FF,,,,,,,,0.7993,,,,,,,,,,,,,,,,,,,,,,61004503dc9295c868fa8c6f,61036d95d36c9a8a63a44c30,2021-07-29_23h11.13.922,Simcolourproject_2stim_asymm_v5,2020.2.10,Win32,60,61025ae37ef11b136ea224fe,,,,,,,,,2277,28.00001186,70.39999461,1,0,0,response1disk,,7,0.800011456,3.19999361,1,0,0,rectangle,0.800011456,3.19999361,1,0,0,0.800011456,3.19999361,1,0,0,1,36,196,118,1,,,,,,,,
,,,,,,,,,,,,,FF,,,,,,,,0.4165,,,,,,,,,,,,,,,,,,,,,,61004503dc9295c868fa8c6f,61036d95d36c9a8a63a44c30,2021-07-29_23h11.13.922,Simcolourproject_2stim_asymm_v5,2020.2.10,Win32,60,61025ae37ef11b136ea224fe,,,,,,,,,1406,26.40001184,58.39999443,1,0,0,response1disk,,7,-6.399939823,-4.800006509,1,0,0,rectangle,-6.399939823,-4.800006509,1,0,0,-6.399939823,-4.800006509,1,0,0,1,37,197,101,1,,,,,,,,
,,,,,,,,,,,,,FF,,,,,,,,0.3998,,,,,,,,,,,,,,,,,,,,,,61004503dc9295c868fa8c6f,61036d95d36c9a8a63a44c30,2021-07-29_23h11.13.922,Simcolourproject_2stim_asymm_v5,2020.2.10,Win32,60,61025ae37ef11b136ea224fe,,,,,,,,,2021,37.60006083,72.79999465,1,0,0,response1disk,,7,-11.19998872,-12.80000663,1,0,0,rectangle,88.00001276,42.39999419,1,0,0,-12.79998875,-6.400006533,1,0,0,1,38,198,94,1,,response1disk_3,TRUE,6,6,"[269,269,289,137,267,200,207,211,199,184,168,37,95,219,7,150,40,164,199,229]",1.4655,rectangle
,,,,,,,,,,,,,FF,,,,,,,,1.0668,,,,,,,,,,,,,,,,,,,,,,61004503dc9295c868fa8c6f,61036d95d36c9a8a63a44c30,2021-07-29_23h11.13.922,Simcolourproject_2stim_asymm_v5,2020.2.10,Win32,60,61025ae37ef11b136ea224fe,,,,,,,,,1577,16.80001169,51.99999434,1,0,0,response1disk,,7,-2.399939764,-6.4373E-06,1,0,0,rectangle,40.80001205,57.59999442,1,0,0,8.000011563,13.59999377,1,0,0,1,39,199,112,1,,response1disk_3,TRUE,7,3,"[269,269,289,137,267,200,207,211,199,184,168,37,95,219,7,150,40,164,199,229]",0.8663,rectangle
,,,,,,,,,,,,,FF,,,,,,,,1.034,,,,,,,,,,,,,,,,,,,,,,61004503dc9295c868fa8c6f,61036d95d36c9a8a63a44c30,2021-07-29_23h11.13.922,Simcolourproject_2stim_asymm_v5,2020.2.10,Win32,60,61025ae37ef11b136ea224fe,,,,,,,,,3104,50.4000122,-17.6000067,1,0,0,response3disk,,5,0.800011456,5.599993646,1,0,0,rectangle,0.800011456,5.599993646,1,0,0,0.800011456,5.599993646,1,0,0,1,40,200,56,1,,,,,,,,
,,,,,,,,,,,,,FF,,,,,,,,0.4673,,,,,,,,,,,,,,,,,,,,,,61004503dc9295c868fa8c6f,61036d95d36c9a8a63a44c30,2021-07-29_23h11.13.922,Simcolourproject_2stim_asymm_v5,2020.2.10,Win32,60,61025ae37ef11b136ea224fe,,,,,,,,,1932,34.40001196,75.19997027,1,0,0,response1disk,,7,-3.999988616,0.799993575,1,0,0,rectangle,-3.999988616,0.799993575,1,0,0,-3.999988616,0.799993575,1,0,0,1,41,201,8,1,,,,,,,,
,,,,,,,,,,,,,FF,,,,,,,,0.7836,,,,,,,,,,,,,,,,,,,,,,61004503dc9295c868fa8c6f,61036d95d36c9a8a63a44c30,2021-07-29_23h11.13.922,Simcolourproject_2stim_asymm_v5,2020.2.10,Win32,60,61025ae37ef11b136ea224fe,,,,,,,,,3873,27.20001185,72.79999465,1,0,0,response1disk,,7,7.200011551,9.599993706,1,0,0,rectangle,7.200011551,9.599993706,1,0,0,7.200011551,9.599993706,1,0,0,1,42,202,99,1,,,,,,,,
,,,,,,,,,,,,,FF,,,,,,,,1.4835,,,,,,,,,,,,,,,,,,,,,,61004503dc9295c868fa8c6f,61036d95d36c9a8a63a44c30,2021-07-29_23h11.13.922,Simcolourproject_2stim_asymm_v5,2020.2.10,Win32,60,61025ae37ef11b136ea224fe,,,,,,,,,2832,-59.99998945,32.79999405,1,0,0,response7disk,,1,-1.59998858,-6.400006533,1,0,0,rectangle,-1.59998858,-6.400006533,1,0,0,-1.59998858,-6.400006533,1,0,0,1,43,203,134,1,,,,,,,,
,,,,,,,,,,,,,FF,,,,,,,,0.9672,,,,,,,,,,,,,,,,,,,,,,61004503dc9295c868fa8c6f,61036d95d36c9a8a63a44c30,2021-07-29_23h11.13.922,Simcolourproject_2stim_asymm_v5,2020.2.10,Win32,60,61025ae37ef11b136ea224fe,,,,,,,,,563,33.60006077,62.39999449,1,0,0,response1disk,,7,19.20001173,14.39999378,1,0,0,rectangle,19.20001173,14.39999378,1,0,0,19.20001173,14.39999378,1,0,0,1,44,204,92,1,,,,,,,,
,,,,,,,,,,,,,FF,,,,,,,,0.617,,,,,,,,,,,,,,,,,,,,,,61004503dc9295c868fa8c6f,61036d95d36c9a8a63a44c30,2021-07-29_23h11.13.922,Simcolourproject_2stim_asymm_v5,2020.2.10,Win32,60,61025ae37ef11b136ea224fe,,,,,,,,,2763,35.20001197,79.99999475,1,0,0,response1disk,,7,1.14441E-05,9.599993706,1,0,0,rectangle,1.14441E-05,9.599993706,1,0,0,1.14441E-05,9.599993706,1,0,0,1,45,205,13,1,,,,,,,,
,,,,,,,,,,,,,FF,,,,,,,,1.4006,,,,,,,,,,,,,,,,,,,,,,61004503dc9295c868fa8c6f,61036d95d36c9a8a63a44c30,2021-07-29_23h11.13.922,Simcolourproject_2stim_asymm_v5,2020.2.10,Win32,60,61025ae37ef11b136ea224fe,,,,,,,,,286,48.80001217,-18.40000671,1,0,0,response3disk,,5,-2.399939764,9.599993706,1,0,0,rectangle,-79.99998975,-32.00000691,1,0,0,-9.599988699,-8.800006568,1,0,0,1,46,206,4,1,,response5disk_3,TRUE,2,2,"[269,269,289,137,267,200,207,211,199,184,168,37,95,219,7,150,40,164,199,229]",1.9331,rectangle
,,,,,,,,,,,,,FF,,,,,,,,1.6006,,,,,,,,,,,,,,,,,,,,,,61004503dc9295c868fa8c6f,61036d95d36c9a8a63a44c30,2021-07-29_23h11.13.922,Simcolourproject_2stim_asymm_v5,2020.2.10,Win32,60,61025ae37ef11b136ea224fe,,,,,,,,,2960,28.00001186,89.5999949,1,0,0,response1disk,,7,8.800011575,2.399993598,1,0,0,rectangle,8.800011575,2.399993598,1,0,0,8.800011575,2.399993598,1,0,0,1,47,207,98,1,,,,,,,,
,,,,,,,,,,,,,FF,,,,,,,,0.8996,,,,,,,,,,,,,,,,,,,,,,61004503dc9295c868fa8c6f,61036d95d36c9a8a63a44c30,2021-07-29_23h11.13.922,Simcolourproject_2stim_asymm_v5,2020.2.10,Win32,60,61025ae37ef11b136ea224fe,,,,,,,,,4299,23.20001179,77.59999472,1,0,0,response1disk,,7,-0.799988568,8.799993694,1,0,0,rectangle,-0.799988568,8.799993694,1,0,0,-0.799988568,8.799993694,1,0,0,1,48,208,65,1,,,,,,,,
,,,,,,,,,,,,,FF,,,,,,,,0.467,,,,,,,,,,,,,,,,,,,,,,61004503dc9295c868fa8c6f,61036d95d36c9a8a63a44c30,2021-07-29_23h11.13.922,Simcolourproject_2stim_asymm_v5,2020.2.10,Win32,60,61025ae37ef11b136ea224fe,,,,,,,,,3463,36.80001199,65.59999454,1,0,0,response1disk,,7,8.000011563,11.19999373,1,0,0,rectangle,8.000011563,11.19999373,1,0,0,8.000011563,11.19999373,1,0,0,1,49,209,6,1,,,,,,,,
,,,,,,,,,,,,,FF,,,,,,,,0.3008,,,,,,,,,,,,,,,,,,,,,,61004503dc9295c868fa8c6f,61036d95d36c9a8a63a44c30,2021-07-29_23h11.13.922,Simcolourproject_2stim_asymm_v5,2020.2.10,Win32,60,61025ae37ef11b136ea224fe,,,,,,,,,1519,35.20001197,70.39999461,1,0,0,response1disk,,7,11.20001161,15.19999379,1,0,0,rectangle,-65.59998953,-22.40000677,1,0,0,-12.79998875,6.399993658,1,0,0,1,50,210,95,1,,response5disk_3,TRUE,2,2,"[269,269,289,137,267,200,207,211,199,184,168,37,95,219,7,150,40,164,199,229]",1.3677,rectangle
,,,,,,,,,,,,,FF,,,,,,,,0.735,,,,,,,,,,,,,,,,,,,,,,61004503dc9295c868fa8c6f,61036d95d36c9a8a63a44c30,2021-07-29_23h11.13.922,Simcolourproject_2stim_asymm_v5,2020.2.10,Win32,60,61025ae37ef11b136ea224fe,,,,,,,,,2196,36.00001198,67.19997015,1,0,0,response1disk,,7,-3.199988604,-1.600006461,1,0,0,rectangle,-3.199988604,-1.600006461,1,0,0,-3.199988604,-1.600006461,1,0,0,1,51,211,37,1,,,,,,,,
,,,,,,,,,,,,,FF,,,,,,,,1.0172,,,,,,,,,,,,,,,,,,,,,,61004503dc9295c868fa8c6f,61036d95d36c9a8a63a44c30,2021-07-29_23h11.13.922,Simcolourproject_2stim_asymm_v5,2020.2.10,Win32,60,61025ae37ef11b136ea224fe,,,,,,,,,2955,59.20001233,43.99999422,1,0,0,response1disk,,6,4.800011516,12.79999375,1,0,0,rectangle,4.800011516,12.79999375,1,0,0,4.800011516,12.79999375,1,0,0,1,52,212,152,1,,,,,,,,
,,,,,,,,,,,,,FF,,,,,,,,0.6841,,,,,,,,,,,,,,,,,,,,,,61004503dc9295c868fa8c6f,61036d95d36c9a8a63a44c30,2021-07-29_23h11.13.922,Simcolourproject_2stim_asymm_v5,2020.2.10,Win32,60,61025ae37ef11b136ea224fe,,,,,,,,,1205,30.4000119,73.59999466,1,0,0,response1disk,,7,3.200011492,16.79999381,1,0,0,rectangle,3.200011492,16.79999381,1,0,0,3.200011492,16.79999381,1,0,0,1,53,213,156,1,,,,,,,,
,,,,,,,,,,,,,FF,,,,,,,,0.4371,,,,,,,,,,,,,,,,,,,,,,61004503dc9295c868fa8c6f,61036d95d36c9a8a63a44c30,2021-07-29_23h11.13.922,Simcolourproject_2stim_asymm_v5,2020.2.10,Win32,60,61025ae37ef11b136ea224fe,,,,,,,,,1249,33.60006077,67.19997015,1,0,0,response1disk,,7,1.14441E-05,5.599993646,1,0,0,rectangle,1.14441E-05,5.599993646,1,0,0,1.14441E-05,5.599993646,1,0,0,1,54,214,82,1,,,,,,,,
,,,,,,,,,,,,,FF,,,,,,,,0.3657,,,,,,,,,,,,,,,,,,,,,,61004503dc9295c868fa8c6f,61036d95d36c9a8a63a44c30,2021-07-29_23h11.13.922,Simcolourproject_2stim_asymm_v5,2020.2.10,Win32,60,61025ae37ef11b136ea224fe,,,,,,,,,2340,43.20001209,85.59999484,1,0,0,response1disk,,7,-2.399939764,4.799993634,1,0,0,rectangle,-2.399939764,4.799993634,1,0,0,-2.399939764,4.799993634,1,0,0,1,55,215,67,1,,,,,,,,
,,,,,,,,,,,,,FF,,,,,,,,0.3624,,,,,,,,,,,,,,,,,,,,,,61004503dc9295c868fa8c6f,61036d95d36c9a8a63a44c30,2021-07-29_23h11.13.922,Simcolourproject_2stim_asymm_v5,2020.2.10,Win32,60,61025ae37ef11b136ea224fe,,,,,,,,,4347,28.80001187,57.59999442,1,0,0,response1disk,,7,7.200011551,6.399993658,1,0,0,rectangle,7.200011551,6.399993658,1,0,0,7.200011551,6.399993658,1,0,0,1,56,216,137,1,,,,,,,,
,,,,,,,,,,,,,FF,,,,,,,,0.4017,,,,,,,,,,,,,,,,,,,,,,61004503dc9295c868fa8c6f,61036d95d36c9a8a63a44c30,2021-07-29_23h11.13.922,Simcolourproject_2stim_asymm_v5,2020.2.10,Win32,60,61025ae37ef11b136ea224fe,,,,,,,,,2811,24.0000118,45.59999424,1,0,0,response1disk,,7,-4.799988627,-8.000006557,1,0,0,rectangle,-4.799988627,-8.000006557,1,0,0,-4.799988627,-8.000006557,1,0,0,1,57,217,38,1,,,,,,,,
,,,,,,,,,,,,,FF,,,,,,,,0.483,,,,,,,,,,,,,,,,,,,,,,61004503dc9295c868fa8c6f,61036d95d36c9a8a63a44c30,2021-07-29_23h11.13.922,Simcolourproject_2stim_asymm_v5,2020.2.10,Win32,60,61025ae37ef11b136ea224fe,,,,,,,,,1579,27.20001185,82.39999479,1,0,0,response1disk,,7,-10.39993988,-1.600006461,1,0,0,rectangle,63.20001239,41.59999418,1,0,0,4.000011504,-8.800006568,1,0,0,1,58,218,43,1,,response1disk_3,TRUE,6,6,"[269,269,289,137,267,200,207,211,199,184,168,37,95,219,7,150,40,164,199,229]",1.7346,rectangle
,,,,,,,,,,,,,FF,,,,,,,,1.0714,,,,,,,,,,,,,,,,,,,,,,61004503dc9295c868fa8c6f,61036d95d36c9a8a63a44c30,2021-07-29_23h11.13.922,Simcolourproject_2stim_asymm_v5,2020.2.10,Win32,60,61025ae37ef11b136ea224fe,,,,,,,,,3399,64.0000124,43.19996979,1,0,0,response1disk,,6,-5.599988639,-5.600006521,1,0,0,rectangle,-5.599988639,-5.600006521,1,0,0,-5.599988639,-5.600006521,1,0,0,1,59,219,90,1,,,,,,,,
,,,,,,,,,,,,,FF,,,,,,,,0.5471,,,,,,,,,,,,,,,,,,,,,,61004503dc9295c868fa8c6f,61036d95d36c9a8a63a44c30,2021-07-29_23h11.13.922,Simcolourproject_2stim_asymm_v5,2020.2.10,Win32,60,61025ae37ef11b136ea224fe,,,,,,,,,3507,38.40001202,65.59999454,1,0,0,response1disk,,7,-0.799988568,2.399993598,1,0,0,rectangle,-0.799988568,2.399993598,1,0,0,-0.799988568,2.399993598,1,0,0,1,60,220,15,1,,,,,,,,
,,,,,,,,,,,,,FF,,,,,,,,0.435,,,,,,,,,,,,,,,,,,,,,,61004503dc9295c868fa8c6f,61036d95d36c9a8a63a44c30,2021-07-29_23h11.13.922,Simcolourproject_2stim_asymm_v5,2020.2.10,Win32,60,61025ae37ef11b136ea224fe,,,,,,,,,3069,36.80001199,71.19997021,1,0,0,response1disk,,7,8.000011563,11.99999374,1,0,0,rectangle,8.000011563,11.99999374,1,0,0,8.000011563,11.99999374,1,0,0,1,61,221,120,1,,,,,,,,
,,,,,,,,,,,,,FF,,,,,,,,1.3831,,,,,,,,,,,,,,,,,,,,,,61004503dc9295c868fa8c6f,61036d95d36c9a8a63a44c30,2021-07-29_23h11.13.922,Simcolourproject_2stim_asymm_v5,2020.2.10,Win32,60,61025ae37ef11b136ea224fe,,,,,,,,,3552,-32.79998904,-44.00000709,1,0,0,response5disk,,3,-20.79998887,-1.600006461,1,0,0,rectangle,-20.79998887,-1.600006461,1,0,0,-20.79998887,-1.600006461,1,0,0,1,62,222,142,1,,,,,,,,
,,,,,,,,,,,,,FF,,,,,,,,0.8682,,,,,,,,,,,,,,,,,,,,,,61004503dc9295c868fa8c6f,61036d95d36c9a8a63a44c30,2021-07-29_23h11.13.922,Simcolourproject_2stim_asymm_v5,2020.2.10,Win32,60,61025ae37ef11b136ea224fe,,,,,,,,,884,20.00001174,41.59999418,1,0,0,response1disk,,7,-8.799988687,7.19999367,1,0,0,rectangle,-8.799988687,7.19999367,1,0,0,-8.799988687,7.19999367,1,0,0,1,63,223,49,1,,,,,,,,
,,,,,,,,,,,,,FF,,,,,,,,0.33,,,,,,,,,,,,,,,,,,,,,,61004503dc9295c868fa8c6f,61036d95d36c9a8a63a44c30,2021-07-29_23h11.13.922,Simcolourproject_2stim_asymm_v5,2020.2.10,Win32,60,61025ae37ef11b136ea224fe,,,,,,,,,2644,48.00001216,78.39999473,1,0,0,response1disk,,7,-1.59998858,13.59999377,1,0,0,rectangle,-1.59998858,13.59999377,1,0,0,-1.59998858,13.59999377,1,0,0,1,64,224,68,1,,,,,,,,
,,,,,,,,,,,,,FF,,,,,,,,1.233,,,,,,,,,,,,,,,,,,,,,,61004503dc9295c868fa8c6f,61036d95d36c9a8a63a44c30,2021-07-29_23h11.13.922,Simcolourproject_2stim_asymm_v5,2020.2.10,Win32,60,61025ae37ef11b136ea224fe,,,,,,,,,3048,22.40001178,-51.2000072,1,0,0,response3disk,,4,-11.99998873,-4.800006509,1,0,0,rectangle,-11.99998873,-4.800006509,1,0,0,-11.99998873,-4.800006509,1,0,0,1,65,225,114,1,,,,,,,,
,,,,,,,,,,,,,FF,,,,,,,,0.6669,,,,,,,,,,,,,,,,,,,,,,61004503dc9295c868fa8c6f,61036d95d36c9a8a63a44c30,2021-07-29_23h11.13.922,Simcolourproject_2stim_asymm_v5,2020.2.10,Win32,60,61025ae37ef11b136ea224fe,,,,,,,,,482,40.80001205,71.19997021,1,0,0,response1disk,,7,-7.199988663,-2.400006473,1,0,0,rectangle,-7.199988663,-2.400006473,1,0,0,-7.199988663,-2.400006473,1,0,0,1,66,226,100,1,,,,,,,,
,,,,,,,,,,,,,FF,,,,,,,,0.3508,,,,,,,,,,,,,,,,,,,,,,61004503dc9295c868fa8c6f,61036d95d36c9a8a63a44c30,2021-07-29_23h11.13.922,Simcolourproject_2stim_asymm_v5,2020.2.10,Win32,60,61025ae37ef11b136ea224fe,,,,,,,,,1632,37.60006083,63.99999452,1,0,0,response1disk,,7,-7.999988675,-6.400006533,1,0,0,rectangle,-7.999988675,-6.400006533,1,0,0,-7.999988675,-6.400006533,1,0,0,1,67,227,103,1,,,,,,,,
,,,,,,,,,,,,,FF,,,,,,,,1.3165,,,,,,,,,,,,,,,,,,,,,,61004503dc9295c868fa8c6f,61036d95d36c9a8a63a44c30,2021-07-29_23h11.13.922,Simcolourproject_2stim_asymm_v5,2020.2.10,Win32,60,61025ae37ef11b136ea224fe,,,,,,,,,956,70.40001249,23.99999392,1,0,0,response1disk,,6,18.40001172,-0.800006449,1,0,0,rectangle,-33.59998906,69.5999946,1,0,0,-18.39994,-3.200006485,1,0,0,1,68,228,71,1,,response7disk_3,TRUE,0,0,"[269,269,289,137,267,200,207,211,199,184,168,37,95,219,7,150,40,164,199,229]",1.7677,rectangle
,,,,,,,,,,,,,FF,,,,,,,,0.4669,,,,,,,,,,,,,,,,,,,,,,61004503dc9295c868fa8c6f,61036d95d36c9a8a63a44c30,2021-07-29_23h11.13.922,Simcolourproject_2stim_asymm_v5,2020.2.10,Win32,60,61025ae37ef11b136ea224fe,,,,,,,,,2198,31.20001191,63.99999452,1,0,0,response1disk,,7,7.200011551,10.39999372,1,0,0,rectangle,7.200011551,10.39999372,1,0,0,7.200011551,10.39999372,1,0,0,1,69,229,116,1,,,,,,,,
,,,,,,,,,,,,,FF,,,,,,,,0.4341,,,,,,,,,,,,,,,,,,,,,,61004503dc9295c868fa8c6f,61036d95d36c9a8a63a44c30,2021-07-29_23h11.13.922,Simcolourproject_2stim_asymm_v5,2020.2.10,Win32,60,61025ae37ef11b136ea224fe,,,,,,,,,71,29.60006071,70.39999461,1,0,0,response1disk,,7,-1.59998858,14.39999378,1,0,0,rectangle,-1.59998858,14.39999378,1,0,0,-1.59998858,14.39999378,1,0,0,1,70,230,1,1,,,,,,,,
,,,,,,,,,,,,,FF,,,,,,,,0.4672,,,,,,,,,,,,,,,,,,,,,,61004503dc9295c868fa8c6f,61036d95d36c9a8a63a44c30,2021-07-29_23h11.13.922,Simcolourproject_2stim_asymm_v5,2020.2.10,Win32,60,61025ae37ef11b136ea224fe,,,,,,,,,1232,39.20001203,82.39999479,1,0,0,response1disk,,7,18.40001172,11.99999374,1,0,0,rectangle,18.40001172,11.99999374,1,0,0,18.40001172,11.99999374,1,0,0,1,71,231,55,1,,,,,,,,
,,,,,,,,,,,,,FF,,,,,,,,0.9329,,,,,,,,,,,,,,,,,,,,,,61004503dc9295c868fa8c6f,61036d95d36c9a8a63a44c30,2021-07-29_23h11.13.922,Simcolourproject_2stim_asymm_v5,2020.2.10,Win32,60,61025ae37ef11b136ea224fe,,,,,,,,,1233,55.20001227,32.79999405,1,0,0,response1disk,,6,-9.599988699,1.599993587,1,0,0,rectangle,-9.599988699,1.599993587,1,0,0,-9.599988699,1.599993587,1,0,0,1,72,232,5,1,,,,,,,,
,,,,,,,,,,,,,FF,,,,,,,,0.3004,,,,,,,,,,,,,,,,,,,,,,61004503dc9295c868fa8c6f,61036d95d36c9a8a63a44c30,2021-07-29_23h11.13.922,Simcolourproject_2stim_asymm_v5,2020.2.10,Win32,60,61025ae37ef11b136ea224fe,,,,,,,,,2014,33.60006077,70.39999461,1,0,0,response1disk,,7,8.800011575,7.999993682,1,0,0,rectangle,8.800011575,7.999993682,1,0,0,8.800011575,7.999993682,1,0,0,1,73,233,72,1,,,,,,,,
,,,,,,,,,,,,,FF,,,,,,,,0.3895,,,,,,,,,,,,,,,,,,,,,,61004503dc9295c868fa8c6f,61036d95d36c9a8a63a44c30,2021-07-29_23h11.13.922,Simcolourproject_2stim_asymm_v5,2020.2.10,Win32,60,61025ae37ef11b136ea224fe,,,,,,,,,1500,39.20001203,63.99999452,1,0,0,response1disk,,7,-0.799988568,-14.40000665,1,0,0,rectangle,-0.799988568,-14.40000665,1,0,0,-0.799988568,-14.40000665,1,0,0,1,74,234,149,1,,,,,,,,
,,,,,,,,,,,,,FF,,,,,,,,0.2834,,,,,,,,,,,,,,,,,,,,,,61004503dc9295c868fa8c6f,61036d95d36c9a8a63a44c30,2021-07-29_23h11.13.922,Simcolourproject_2stim_asymm_v5,2020.2.10,Win32,60,61025ae37ef11b136ea224fe,,,,,,,,,3527,52.80001223,84.79999483,1,0,0,response1disk,,7,7.200011551,9.599993706,1,0,0,rectangle,7.200011551,9.599993706,1,0,0,7.200011551,9.599993706,1,0,0,1,75,235,130,1,,,,,,,,
,,,,,,,,,,,,,FF,,,,,,,,0.3325,,,,,,,,,,,,,,,,,,,,,,61004503dc9295c868fa8c6f,61036d95d36c9a8a63a44c30,2021-07-29_23h11.13.922,Simcolourproject_2stim_asymm_v5,2020.2.10,Win32,60,61025ae37ef11b136ea224fe,,,,,,,,,665,40.00001204,63.19997009,1,0,0,response1disk,,7,0.800011456,-4.000006497,1,0,0,rectangle,0.800011456,-4.000006497,1,0,0,0.800011456,-4.000006497,1,0,0,1,76,236,113,1,,,,,,,,
,,,,,,,,,,,,,FF,,,,,,,,0.3996,,,,,,,,,,,,,,,,,,,,,,61004503dc9295c868fa8c6f,61036d95d36c9a8a63a44c30,2021-07-29_23h11.13.922,Simcolourproject_2stim_asymm_v5,2020.2.10,Win32,60,61025ae37ef11b136ea224fe,,,,,,,,,2798,38.40001202,79.19997033,1,0,0,response1disk,,7,1.14441E-05,-4.800006509,1,0,0,rectangle,1.14441E-05,-4.800006509,1,0,0,1.14441E-05,-4.800006509,1,0,0,1,77,237,45,1,,,,,,,,
,,,,,,,,,,,,,FF,,,,,,,,1.2502,,,,,,,,,,,,,,,,,,,,,,61004503dc9295c868fa8c6f,61036d95d36c9a8a63a44c30,2021-07-29_23h11.13.922,Simcolourproject_2stim_asymm_v5,2020.2.10,Win32,60,61025ae37ef11b136ea224fe,,,,,,,,,3559,-34.39994024,-64.00000739,1,0,0,response5disk,,3,-3.199988604,-10.40000659,1,0,0,rectangle,-3.199988604,-10.40000659,1,0,0,-3.199988604,-10.40000659,1,0,0,1,78,238,28,1,,,,,,,,
,,,,,,,,,,,,,FF,,,,,,,,0.3165,,,,,,,,,,,,,,,,,,,,,,61004503dc9295c868fa8c6f,61036d95d36c9a8a63a44c30,2021-07-29_23h11.13.922,Simcolourproject_2stim_asymm_v5,2020.2.10,Win32,60,61025ae37ef11b136ea224fe,,,,,,,,,1088,51.20001221,71.19997021,1,0,0,response1disk,,7,9.600060415,-4.800006509,1,0,0,rectangle,9.600060415,-4.800006509,1,0,0,9.600060415,-4.800006509,1,0,0,1,79,239,24,1,,,,,,,,
,,,,,,,,,,,,,FF,,,,,,,,0.2669,,,,,,,,,,,,,,,,,,,,,,61004503dc9295c868fa8c6f,61036d95d36c9a8a63a44c30,2021-07-29_23h11.13.922,Simcolourproject_2stim_asymm_v5,2020.2.10,Win32,60,61025ae37ef11b136ea224fe,,,,,,,,,3182,63.20001239,96.79999501,1,0,0,response1disk,,7,-3.999988616,3.999993622,1,0,0,rectangle,-3.999988616,3.999993622,1,0,0,-3.999988616,3.999993622,1,0,0,1,80,240,159,1,,,,,,,,
,,,,,,,,,,,,,FF,,,,,,,,0.6167,,,,,,,,,,,,,,,,,,,,,,61004503dc9295c868fa8c6f,61036d95d36c9a8a63a44c30,2021-07-29_23h11.13.922,Simcolourproject_2stim_asymm_v5,2020.2.10,Win32,60,61025ae37ef11b136ea224fe,,,,,,,,,4089,32.80001193,67.19997015,1,0,0,response1disk,,7,-17.59998882,-15.20000666,1,0,0,rectangle,-17.59998882,-15.20000666,1,0,0,-17.59998882,-15.20000666,1,0,0,1,81,241,7,1,,,,,,,,
,,,,,,,,,,,,,FF,,,,,,,,0.2492,,,,,,,,,,,,,,,,,,,,,,61004503dc9295c868fa8c6f,61036d95d36c9a8a63a44c30,2021-07-29_23h11.13.922,Simcolourproject_2stim_asymm_v5,2020.2.10,Win32,60,61025ae37ef11b136ea224fe,,,,,,,,,2022,40.80001205,59.19997003,1,0,0,response1disk,,7,8.800011575,11.19999373,1,0,0,rectangle,8.800011575,11.19999373,1,0,0,8.800011575,11.19999373,1,0,0,1,82,242,77,1,,,,,,,,
,,,,,,,,,,,,,FF,,,,,,,,1.3486,,,,,,,,,,,,,,,,,,,,,,61004503dc9295c868fa8c6f,61036d95d36c9a8a63a44c30,2021-07-29_23h11.13.922,Simcolourproject_2stim_asymm_v5,2020.2.10,Win32,60,61025ae37ef11b136ea224fe,,,,,,,,,1602,48.00001216,-63.20000738,1,0,0,response3disk,,4,12.00001162,-8.000006557,1,0,0,rectangle,12.00001162,-8.000006557,1,0,0,12.00001162,-8.000006557,1,0,0,1,83,243,59,1,,,,,,,,
