key_resp.keys,key_resp.rt,key_resp_14.keys,key_resp_14.rt,key_resp_15.keys,key_resp_15.rt,key_resp_17.keys,key_resp_17.rt,key_resp_9.keys,key_resp_9.rt,key_resp_10.keys,key_resp_10.rt,practice_comparison,Ecc,mouse_5.x,mouse_5.y,mouse_5.leftButton,mouse_5.midButton,mouse_5.rightButton,mouse_5.clicked_name,pracsimilarity,response_time,mouse_10.x,mouse_10.y,mouse_10.leftButton,mouse_10.midButton,mouse_10.rightButton,mouse_10.clicked_name,mouse_7.x,mouse_7.y,mouse_7.leftButton,mouse_7.midButton,mouse_7.rightButton,mouse_6.x,mouse_6.y,mouse_6.leftButton,mouse_6.midButton,mouse_6.rightButton,duringprac.thisRepN,duringprac.thisTrialN,duringprac.thisN,duringprac.thisIndex,duringprac.ran,participant,session,date,expName,psychopyVersion,OS,frameRate,study_id,mouse_7.clicked_name,catchpracsimilarity,catch_response_time,catchnumberprac,catchtrialorderprac,mouse_6.clicked_name,key_resp_22.keys,key_resp_22.rt,realcomparison,mouse.x,mouse.y,mouse.leftButton,mouse.midButton,mouse.rightButton,mouse.clicked_name,Colour2,similarity,mouse_2.x,mouse_2.y,mouse_2.leftButton,mouse_2.midButton,mouse_2.rightButton,mouse_2.clicked_name,mouse_3.x,mouse_3.y,mouse_3.leftButton,mouse_3.midButton,mouse_3.rightButton,mouse_11.x,mouse_11.y,mouse_11.leftButton,mouse_11.midButton,mouse_11.rightButton,trials_2.thisRepN,trials_2.thisTrialN,trials_2.thisN,trials_2.thisIndex,trials_2.ran,Colour1,mouse_3.clicked_name,catchornah,catchsimilarity,catchnumber,catchtrialorder,catchRT,mouse_11.clicked_name
space,1.2066,space,9.7122,space,30.4923,space,9.7089,space,4.7567,space,3.4318,150,FF,71,40,1,0,0,response1disk_5,6,3.595,-11,-4,1,0,0,rectangle_8,-11,-4,1,0,0,-11,-4,1,0,0,0,0,0,3,1,6100b88cc7d099e491ea886c,61036e7faa5097a23a04fad3,2021-07-29_22h14.41.873,Simcolourproject_2stim_asymm_v5,2020.2.10,Win32,60,61025ae37ef11b136ea224fe,,,,,,,,,,,,,,,,,,,,,,,,,,,,,,,,,,,,,,,,,,,,,,
,,,,,,,,,,,,20,PF,-34,57,1,0,0,response7disk_5,0,1.4143,-20,5,1,0,0,rectangle_8,-43,-56,1,0,0,-14,-1,1,0,0,0,1,1,4,1,6100b88cc7d099e491ea886c,61036e7faa5097a23a04fad3,2021-07-29_22h14.41.873,Simcolourproject_2stim_asymm_v5,2020.2.10,Win32,60,61025ae37ef11b136ea224fe,response5disk_7,3,2.5471,2,"[2,5]",rectangle_4,,,,,,,,,,,,,,,,,,,,,,,,,,,,,,,,,,,,,,,,
,,,,,,,,,,,,17,FF,29,48,1,0,0,response1disk_5,7,2.3123,13,0,1,0,0,rectangle_8,13,0,1,0,0,13,0,1,0,0,0,2,2,0,1,6100b88cc7d099e491ea886c,61036e7faa5097a23a04fad3,2021-07-29_22h14.41.873,Simcolourproject_2stim_asymm_v5,2020.2.10,Win32,60,61025ae37ef11b136ea224fe,,,,,,,,,,,,,,,,,,,,,,,,,,,,,,,,,,,,,,,,,,,,,,
,,,,,,,,,,,,146,PF,50,-24,1,0,0,response3disk_5,5,7.4554,18,-11,1,0,0,rectangle_8,18,-11,1,0,0,18,-11,1,0,0,0,3,3,6,1,6100b88cc7d099e491ea886c,61036e7faa5097a23a04fad3,2021-07-29_22h14.41.873,Simcolourproject_2stim_asymm_v5,2020.2.10,Win32,60,61025ae37ef11b136ea224fe,,,,,,,,,,,,,,,,,,,,,,,,,,,,,,,,,,,,,,,,,,,,,,
,,,,,,,,,,,,80,PF,-29,-57,1,0,0,response5disk_5,3,1.7976,2,-10,1,0,0,rectangle_8,-111,-48,1,0,0,-1,-6,1,0,0,0,4,4,2,1,6100b88cc7d099e491ea886c,61036e7faa5097a23a04fad3,2021-07-29_22h14.41.873,Simcolourproject_2stim_asymm_v5,2020.2.10,Win32,60,61025ae37ef11b136ea224fe,response5disk_7,2,3.5945,2,"[2,5]",rectangle_4,,,,,,,,,,,,,,,,,,,,,,,,,,,,,,,,,,,,,,,,
,,,,,,,,,,,,0,FF,25,-91,1,0,0,response3disk_5,4,4.4762,-2,-5,1,0,0,rectangle_8,-2,-5,1,0,0,-2,-5,1,0,0,0,5,5,5,1,6100b88cc7d099e491ea886c,61036e7faa5097a23a04fad3,2021-07-29_22h14.41.873,Simcolourproject_2stim_asymm_v5,2020.2.10,Win32,60,61025ae37ef11b136ea224fe,,,,,,,,,,,,,,,,,,,,,,,,,,,,,,,,,,,,,,,,,,,,,,
,,,,,,,,,,,,113,PF,50,-89,1,0,0,response3disk_5,4,4.5583,-6,2,1,0,0,rectangle_8,-6,2,1,0,0,-6,2,1,0,0,0,6,6,1,1,6100b88cc7d099e491ea886c,61036e7faa5097a23a04fad3,2021-07-29_22h14.41.873,Simcolourproject_2stim_asymm_v5,2020.2.10,Win32,60,61025ae37ef11b136ea224fe,,,,,,,,,,,,,,,,,,,,,,,,,,,,,,,,,,,,,,,,,,,,,,
,,,,,,,,,,,,,FF,,,,,,,,3.2766,,,,,,,,,,,,,,,,,,,,,,6100b88cc7d099e491ea886c,61036e7faa5097a23a04fad3,2021-07-29_22h14.41.873,Simcolourproject_2stim_asymm_v5,2020.2.10,Win32,60,61025ae37ef11b136ea224fe,,,,,,,space,3.0875,4240,23,-82,1,0,0,response3disk,,4,9,3,1,0,0,rectangle,9,3,1,0,0,9,3,1,0,0,0,0,0,58,1,,,,,,,,
,,,,,,,,,,,,,FF,,,,,,,,3.1783,,,,,,,,,,,,,,,,,,,,,,6100b88cc7d099e491ea886c,61036e7faa5097a23a04fad3,2021-07-29_22h14.41.873,Simcolourproject_2stim_asymm_v5,2020.2.10,Win32,60,61025ae37ef11b136ea224fe,,,,,,,,,3910,-49,-68,1,0,0,response5disk,,3,5,-1,1,0,0,rectangle,5,-1,1,0,0,5,-1,1,0,0,0,1,1,127,1,,,,,,,,
,,,,,,,,,,,,,FF,,,,,,,,1.7632,,,,,,,,,,,,,,,,,,,,,,6100b88cc7d099e491ea886c,61036e7faa5097a23a04fad3,2021-07-29_22h14.41.873,Simcolourproject_2stim_asymm_v5,2020.2.10,Win32,60,61025ae37ef11b136ea224fe,,,,,,,,,3300,46,64,1,0,0,response1disk,,7,9,-8,1,0,0,rectangle,9,-8,1,0,0,9,-8,1,0,0,0,2,2,73,1,,,,,,,,
,,,,,,,,,,,,,FF,,,,,,,,1.4971,,,,,,,,,,,,,,,,,,,,,,6100b88cc7d099e491ea886c,61036e7faa5097a23a04fad3,2021-07-29_22h14.41.873,Simcolourproject_2stim_asymm_v5,2020.2.10,Win32,60,61025ae37ef11b136ea224fe,,,,,,,,,1715,18,40,1,0,0,response1disk,,7,-3,-3,1,0,0,rectangle,-3,-3,1,0,0,-3,-3,1,0,0,0,3,3,78,1,,,,,,,,
,,,,,,,,,,,,,FF,,,,,,,,1.3643,,,,,,,,,,,,,,,,,,,,,,6100b88cc7d099e491ea886c,61036e7faa5097a23a04fad3,2021-07-29_22h14.41.873,Simcolourproject_2stim_asymm_v5,2020.2.10,Win32,60,61025ae37ef11b136ea224fe,,,,,,,,,601,53,86,1,0,0,response1disk,,7,8,5,1,0,0,rectangle,8,5,1,0,0,8,5,1,0,0,0,4,4,71,1,,,,,,,,
,,,,,,,,,,,,,FF,,,,,,,,4.9079,,,,,,,,,,,,,,,,,,,,,,6100b88cc7d099e491ea886c,61036e7faa5097a23a04fad3,2021-07-29_22h14.41.873,Simcolourproject_2stim_asymm_v5,2020.2.10,Win32,60,61025ae37ef11b136ea224fe,,,,,,,,,4033,30,-32,1,0,0,response3disk,,4,3,7,1,0,0,rectangle,3,7,1,0,0,3,7,1,0,0,0,5,5,152,1,,,,,,,,
,,,,,,,,,,,,,FF,,,,,,,,2.9791,,,,,,,,,,,,,,,,,,,,,,6100b88cc7d099e491ea886c,61036e7faa5097a23a04fad3,2021-07-29_22h14.41.873,Simcolourproject_2stim_asymm_v5,2020.2.10,Win32,60,61025ae37ef11b136ea224fe,,,,,,,,,3958,36,54,1,0,0,response1disk,,7,-9,2,1,0,0,rectangle,-9,2,1,0,0,-9,2,1,0,0,0,6,6,69,1,,,,,,,,
,,,,,,,,,,,,,FF,,,,,,,,3.0608,,,,,,,,,,,,,,,,,,,,,,6100b88cc7d099e491ea886c,61036e7faa5097a23a04fad3,2021-07-29_22h14.41.873,Simcolourproject_2stim_asymm_v5,2020.2.10,Win32,60,61025ae37ef11b136ea224fe,,,,,,,,,3199,-77,-43,1,0,0,response5disk,,2,-11,-10,1,0,0,rectangle,-11,-10,1,0,0,-11,-10,1,0,0,0,7,7,134,1,,,,,,,,
,,,,,,,,,,,,,FF,,,,,,,,1.3968,,,,,,,,,,,,,,,,,,,,,,6100b88cc7d099e491ea886c,61036e7faa5097a23a04fad3,2021-07-29_22h14.41.873,Simcolourproject_2stim_asymm_v5,2020.2.10,Win32,60,61025ae37ef11b136ea224fe,,,,,,,,,4131,22,64,1,0,0,response1disk,,7,-15,1,1,0,0,rectangle,-15,1,1,0,0,-15,1,1,0,0,0,8,8,26,1,,,,,,,,
,,,,,,,,,,,,,FF,,,,,,,,2.5289,,,,,,,,,,,,,,,,,,,,,,6100b88cc7d099e491ea886c,61036e7faa5097a23a04fad3,2021-07-29_22h14.41.873,Simcolourproject_2stim_asymm_v5,2020.2.10,Win32,60,61025ae37ef11b136ea224fe,,,,,,,,,2761,42,-106,1,0,0,response3disk,,4,-6,-1,1,0,0,rectangle,-6,-1,1,0,0,-6,-1,1,0,0,0,9,9,139,1,,,,,,,,
,,,,,,,,,,,,,FF,,,,,,,,3.8444,,,,,,,,,,,,,,,,,,,,,,6100b88cc7d099e491ea886c,61036e7faa5097a23a04fad3,2021-07-29_22h14.41.873,Simcolourproject_2stim_asymm_v5,2020.2.10,Win32,60,61025ae37ef11b136ea224fe,,,,,,,,,2903,-50,-91,1,0,0,response5disk,,3,15,7,1,0,0,rectangle,15,7,1,0,0,15,7,1,0,0,0,10,10,142,1,,,,,,,,
,,,,,,,,,,,,,FF,,,,,,,,2.5784,,,,,,,,,,,,,,,,,,,,,,6100b88cc7d099e491ea886c,61036e7faa5097a23a04fad3,2021-07-29_22h14.41.873,Simcolourproject_2stim_asymm_v5,2020.2.10,Win32,60,61025ae37ef11b136ea224fe,,,,,,,,,533,-68,-35,1,0,0,response5disk,,2,19,5,1,0,0,rectangle,19,5,1,0,0,19,5,1,0,0,0,11,11,108,1,,,,,,,,
,,,,,,,,,,,,,FF,,,,,,,,1.6797,,,,,,,,,,,,,,,,,,,,,,6100b88cc7d099e491ea886c,61036e7faa5097a23a04fad3,2021-07-29_22h14.41.873,Simcolourproject_2stim_asymm_v5,2020.2.10,Win32,60,61025ae37ef11b136ea224fe,,,,,,,,,2103,-57,30,1,0,0,response7disk,,1,-17,-7,1,0,0,rectangle,-17,-7,1,0,0,-17,-7,1,0,0,0,12,12,118,1,,,,,,,,
,,,,,,,,,,,,,FF,,,,,,,,1.4313,,,,,,,,,,,,,,,,,,,,,,6100b88cc7d099e491ea886c,61036e7faa5097a23a04fad3,2021-07-29_22h14.41.873,Simcolourproject_2stim_asymm_v5,2020.2.10,Win32,60,61025ae37ef11b136ea224fe,,,,,,,,,721,-53,21,1,0,0,response7disk,,1,-22,-2,1,0,0,rectangle,-22,-2,1,0,0,-22,-2,1,0,0,0,13,13,40,1,,,,,,,,
,,,,,,,,,,,,,FF,,,,,,,,1.1642,,,,,,,,,,,,,,,,,,,,,,6100b88cc7d099e491ea886c,61036e7faa5097a23a04fad3,2021-07-29_22h14.41.873,Simcolourproject_2stim_asymm_v5,2020.2.10,Win32,60,61025ae37ef11b136ea224fe,,,,,,,,,973,-68,31,1,0,0,response7disk,,1,-3,-5,1,0,0,rectangle,-3,-5,1,0,0,-3,-5,1,0,0,0,14,14,41,1,,,,,,,,
,,,,,,,,,,,,,FF,,,,,,,,1.7805,,,,,,,,,,,,,,,,,,,,,,6100b88cc7d099e491ea886c,61036e7faa5097a23a04fad3,2021-07-29_22h14.41.873,Simcolourproject_2stim_asymm_v5,2020.2.10,Win32,60,61025ae37ef11b136ea224fe,,,,,,,,,752,91,-58,1,0,0,response3disk,,5,-17,2,1,0,0,rectangle,-17,2,1,0,0,-17,2,1,0,0,0,15,15,146,1,,,,,,,,
,,,,,,,,,,,,,FF,,,,,,,,1.7967,,,,,,,,,,,,,,,,,,,,,,6100b88cc7d099e491ea886c,61036e7faa5097a23a04fad3,2021-07-29_22h14.41.873,Simcolourproject_2stim_asymm_v5,2020.2.10,Win32,60,61025ae37ef11b136ea224fe,,,,,,,,,3890,39,52,1,0,0,response1disk,,7,7,2,1,0,0,rectangle,7,2,1,0,0,7,2,1,0,0,0,16,16,158,1,,,,,,,,
,,,,,,,,,,,,,FF,,,,,,,,1.8628,,,,,,,,,,,,,,,,,,,,,,6100b88cc7d099e491ea886c,61036e7faa5097a23a04fad3,2021-07-29_22h14.41.873,Simcolourproject_2stim_asymm_v5,2020.2.10,Win32,60,61025ae37ef11b136ea224fe,,,,,,,,,2338,36,89,1,0,0,response1disk,,7,4,3,1,0,0,rectangle,4,3,1,0,0,4,3,1,0,0,0,17,17,128,1,,,,,,,,
,,,,,,,,,,,,,FF,,,,,,,,1.1647,,,,,,,,,,,,,,,,,,,,,,6100b88cc7d099e491ea886c,61036e7faa5097a23a04fad3,2021-07-29_22h14.41.873,Simcolourproject_2stim_asymm_v5,2020.2.10,Win32,60,61025ae37ef11b136ea224fe,,,,,,,,,332,58,78,1,0,0,response1disk,,7,-4,-4,1,0,0,rectangle,-4,-4,1,0,0,-4,-4,1,0,0,0,18,18,137,1,,,,,,,,
,,,,,,,,,,,,,FF,,,,,,,,3.2949,,,,,,,,,,,,,,,,,,,,,,6100b88cc7d099e491ea886c,61036e7faa5097a23a04fad3,2021-07-29_22h14.41.873,Simcolourproject_2stim_asymm_v5,2020.2.10,Win32,60,61025ae37ef11b136ea224fe,,,,,,,,,1111,37,85,1,0,0,response1disk,,7,-4,4,1,0,0,rectangle,-4,4,1,0,0,-4,4,1,0,0,0,19,19,63,1,,,,,,,,
,,,,,,,,,,,,,FF,,,,,,,,1.1984,,,,,,,,,,,,,,,,,,,,,,6100b88cc7d099e491ea886c,61036e7faa5097a23a04fad3,2021-07-29_22h14.41.873,Simcolourproject_2stim_asymm_v5,2020.2.10,Win32,60,61025ae37ef11b136ea224fe,,,,,,,,,3811,-44,75,1,0,0,response7disk,,0,-5,8,1,0,0,rectangle,-5,8,1,0,0,-5,8,1,0,0,0,20,20,156,1,,,,,,,,
,,,,,,,,,,,,,FF,,,,,,,,0.8648,,,,,,,,,,,,,,,,,,,,,,6100b88cc7d099e491ea886c,61036e7faa5097a23a04fad3,2021-07-29_22h14.41.873,Simcolourproject_2stim_asymm_v5,2020.2.10,Win32,60,61025ae37ef11b136ea224fe,,,,,,,,,1822,-37,59,1,0,0,response7disk,,0,-10,3,1,0,0,rectangle,-10,3,1,0,0,-10,3,1,0,0,0,21,21,57,1,,,,,,,,
,,,,,,,,,,,,,FF,,,,,,,,1.199,,,,,,,,,,,,,,,,,,,,,,6100b88cc7d099e491ea886c,61036e7faa5097a23a04fad3,2021-07-29_22h14.41.873,Simcolourproject_2stim_asymm_v5,2020.2.10,Win32,60,61025ae37ef11b136ea224fe,,,,,,,,,4104,-57,31,1,0,0,response7disk,,1,-11,-2,1,0,0,rectangle,-11,-2,1,0,0,-11,-2,1,0,0,0,22,22,148,1,,,,,,,,
,,,,,,,,,,,,,FF,,,,,,,,2.1623,,,,,,,,,,,,,,,,,,,,,,6100b88cc7d099e491ea886c,61036e7faa5097a23a04fad3,2021-07-29_22h14.41.873,Simcolourproject_2stim_asymm_v5,2020.2.10,Win32,60,61025ae37ef11b136ea224fe,,,,,,,,,4008,-47,-73,1,0,0,response5disk,,3,14,5,1,0,0,rectangle,14,5,1,0,0,14,5,1,0,0,0,23,23,124,1,,,,,,,,
,,,,,,,,,,,,,FF,,,,,,,,2.445,,,,,,,,,,,,,,,,,,,,,,6100b88cc7d099e491ea886c,61036e7faa5097a23a04fad3,2021-07-29_22h14.41.873,Simcolourproject_2stim_asymm_v5,2020.2.10,Win32,60,61025ae37ef11b136ea224fe,,,,,,,,,83,28,-44,1,0,0,response3disk,,4,-9,2,1,0,0,rectangle,-9,2,1,0,0,-9,2,1,0,0,0,24,24,66,1,,,,,,,,
,,,,,,,,,,,,,FF,,,,,,,,1.8473,,,,,,,,,,,,,,,,,,,,,,6100b88cc7d099e491ea886c,61036e7faa5097a23a04fad3,2021-07-29_22h14.41.873,Simcolourproject_2stim_asymm_v5,2020.2.10,Win32,60,61025ae37ef11b136ea224fe,,,,,,,,,1021,27,45,1,0,0,response1disk,,7,13,6,1,0,0,rectangle,13,6,1,0,0,13,6,1,0,0,0,25,25,27,1,,,,,,,,
,,,,,,,,,,,,,FF,,,,,,,,2.0634,,,,,,,,,,,,,,,,,,,,,,6100b88cc7d099e491ea886c,61036e7faa5097a23a04fad3,2021-07-29_22h14.41.873,Simcolourproject_2stim_asymm_v5,2020.2.10,Win32,60,61025ae37ef11b136ea224fe,,,,,,,,,2302,-53,-60,1,0,0,response5disk,,3,-26,-8,1,0,0,rectangle,-26,-8,1,0,0,-26,-8,1,0,0,0,26,26,21,1,,,,,,,,
,,,,,,,,,,,,,FF,,,,,,,,2.0294,,,,,,,,,,,,,,,,,,,,,,6100b88cc7d099e491ea886c,61036e7faa5097a23a04fad3,2021-07-29_22h14.41.873,Simcolourproject_2stim_asymm_v5,2020.2.10,Win32,60,61025ae37ef11b136ea224fe,,,,,,,,,1558,60,23,1,0,0,response1disk,,6,-8,-11,1,0,0,rectangle,-8,-11,1,0,0,-8,-11,1,0,0,0,27,27,110,1,,,,,,,,
,,,,,,,,,,,,,FF,,,,,,,,2.2451,,,,,,,,,,,,,,,,,,,,,,6100b88cc7d099e491ea886c,61036e7faa5097a23a04fad3,2021-07-29_22h14.41.873,Simcolourproject_2stim_asymm_v5,2020.2.10,Win32,60,61025ae37ef11b136ea224fe,,,,,,,,,2340,49,96,1,0,0,response1disk,,7,2,13,1,0,0,rectangle,2,13,1,0,0,2,13,1,0,0,0,28,28,154,1,,,,,,,,
,,,,,,,,,,,,,FF,,,,,,,,1.082,,,,,,,,,,,,,,,,,,,,,,6100b88cc7d099e491ea886c,61036e7faa5097a23a04fad3,2021-07-29_22h14.41.873,Simcolourproject_2stim_asymm_v5,2020.2.10,Win32,60,61025ae37ef11b136ea224fe,,,,,,,,,2215,47,88,1,0,0,response1disk,,7,5,8,1,0,0,rectangle,5,8,1,0,0,5,8,1,0,0,0,29,29,65,1,,,,,,,,
,,,,,,,,,,,,,FF,,,,,,,,0.9814,,,,,,,,,,,,,,,,,,,,,,6100b88cc7d099e491ea886c,61036e7faa5097a23a04fad3,2021-07-29_22h14.41.873,Simcolourproject_2stim_asymm_v5,2020.2.10,Win32,60,61025ae37ef11b136ea224fe,,,,,,,,,1716,16,38,1,0,0,response1disk,,7,-3,-9,1,0,0,rectangle,72,41,1,0,0,-1,8,1,0,0,0,30,30,39,1,,response1disk_3,TRUE,6,6,"[44,127,217,275,288,31,248,182,236,142,149,297,52,258,43,292,70,264,241,245]",2.4128,rectangle
,,,,,,,,,,,,,FF,,,,,,,,1.0979,,,,,,,,,,,,,,,,,,,,,,6100b88cc7d099e491ea886c,61036e7faa5097a23a04fad3,2021-07-29_22h14.41.873,Simcolourproject_2stim_asymm_v5,2020.2.10,Win32,60,61025ae37ef11b136ea224fe,,,,,,,,,4365,-34,50,1,0,0,response7disk,,0,-9,12,1,0,0,rectangle,-9,12,1,0,0,-9,12,1,0,0,0,31,31,22,1,,,,,,,,
,,,,,,,,,,,,,FF,,,,,,,,1.9957,,,,,,,,,,,,,,,,,,,,,,6100b88cc7d099e491ea886c,61036e7faa5097a23a04fad3,2021-07-29_22h14.41.873,Simcolourproject_2stim_asymm_v5,2020.2.10,Win32,60,61025ae37ef11b136ea224fe,,,,,,,,,3935,-85,-37,1,0,0,response5disk,,2,15,3,1,0,0,rectangle,15,3,1,0,0,15,3,1,0,0,0,32,32,85,1,,,,,,,,
,,,,,,,,,,,,,FF,,,,,,,,1.0479,,,,,,,,,,,,,,,,,,,,,,6100b88cc7d099e491ea886c,61036e7faa5097a23a04fad3,2021-07-29_22h14.41.873,Simcolourproject_2stim_asymm_v5,2020.2.10,Win32,60,61025ae37ef11b136ea224fe,,,,,,,,,2775,-53,22,1,0,0,response7disk,,1,-4,-9,1,0,0,rectangle,-4,-9,1,0,0,-4,-9,1,0,0,0,33,33,7,1,,,,,,,,
,,,,,,,,,,,,,FF,,,,,,,,0.9806,,,,,,,,,,,,,,,,,,,,,,6100b88cc7d099e491ea886c,61036e7faa5097a23a04fad3,2021-07-29_22h14.41.873,Simcolourproject_2stim_asymm_v5,2020.2.10,Win32,60,61025ae37ef11b136ea224fe,,,,,,,,,3008,31,87,1,0,0,response1disk,,7,3,11,1,0,0,rectangle,3,11,1,0,0,3,11,1,0,0,0,34,34,77,1,,,,,,,,
,,,,,,,,,,,,,FF,,,,,,,,4.5427,,,,,,,,,,,,,,,,,,,,,,6100b88cc7d099e491ea886c,61036e7faa5097a23a04fad3,2021-07-29_22h14.41.873,Simcolourproject_2stim_asymm_v5,2020.2.10,Win32,60,61025ae37ef11b136ea224fe,,,,,,,,,734,67,-26,1,0,0,response3disk,,5,19,6,1,0,0,rectangle,19,6,1,0,0,19,6,1,0,0,0,35,35,35,1,,,,,,,,
,,,,,,,,,,,,,FF,,,,,,,,2.8447,,,,,,,,,,,,,,,,,,,,,,6100b88cc7d099e491ea886c,61036e7faa5097a23a04fad3,2021-07-29_22h14.41.873,Simcolourproject_2stim_asymm_v5,2020.2.10,Win32,60,61025ae37ef11b136ea224fe,,,,,,,,,1309,84,-33,1,0,0,response3disk,,5,21,-8,1,0,0,rectangle,21,-8,1,0,0,21,-8,1,0,0,0,36,36,54,1,,,,,,,,
,,,,,,,,,,,,,FF,,,,,,,,1.0483,,,,,,,,,,,,,,,,,,,,,,6100b88cc7d099e491ea886c,61036e7faa5097a23a04fad3,2021-07-29_22h14.41.873,Simcolourproject_2stim_asymm_v5,2020.2.10,Win32,60,61025ae37ef11b136ea224fe,,,,,,,,,1106,42,68,1,0,0,response1disk,,7,12,5,1,0,0,rectangle,12,5,1,0,0,12,5,1,0,0,0,37,37,61,1,,,,,,,,
,,,,,,,,,,,,,FF,,,,,,,,2.0304,,,,,,,,,,,,,,,,,,,,,,6100b88cc7d099e491ea886c,61036e7faa5097a23a04fad3,2021-07-29_22h14.41.873,Simcolourproject_2stim_asymm_v5,2020.2.10,Win32,60,61025ae37ef11b136ea224fe,,,,,,,,,25,26,39,1,0,0,response1disk,,7,-3,-12,1,0,0,rectangle,-3,-12,1,0,0,-3,-12,1,0,0,0,38,38,121,1,,,,,,,,
,,,,,,,,,,,,,FF,,,,,,,,2.1638,,,,,,,,,,,,,,,,,,,,,,6100b88cc7d099e491ea886c,61036e7faa5097a23a04fad3,2021-07-29_22h14.41.873,Simcolourproject_2stim_asymm_v5,2020.2.10,Win32,60,61025ae37ef11b136ea224fe,,,,,,,,,4274,38,54,1,0,0,response1disk,,7,10,1,1,0,0,rectangle,10,1,1,0,0,10,1,1,0,0,0,39,39,37,1,,,,,,,,
,,,,,,,,,,,,,FF,,,,,,,,0.7987,,,,,,,,,,,,,,,,,,,,,,6100b88cc7d099e491ea886c,61036e7faa5097a23a04fad3,2021-07-29_22h14.41.873,Simcolourproject_2stim_asymm_v5,2020.2.10,Win32,60,61025ae37ef11b136ea224fe,,,,,,,,,151,17,47,1,0,0,response1disk,,7,-2,3,1,0,0,rectangle,-2,3,1,0,0,-2,3,1,0,0,0,40,40,138,1,,,,,,,,
,,,,,,,,,,,,,FF,,,,,,,,0.7812,,,,,,,,,,,,,,,,,,,,,,6100b88cc7d099e491ea886c,61036e7faa5097a23a04fad3,2021-07-29_22h14.41.873,Simcolourproject_2stim_asymm_v5,2020.2.10,Win32,60,61025ae37ef11b136ea224fe,,,,,,,,,1431,49,76,1,0,0,response1disk,,7,13,0,1,0,0,rectangle,13,0,1,0,0,13,0,1,0,0,0,41,41,125,1,,,,,,,,
,,,,,,,,,,,,,FF,,,,,,,,1.447,,,,,,,,,,,,,,,,,,,,,,6100b88cc7d099e491ea886c,61036e7faa5097a23a04fad3,2021-07-29_22h14.41.873,Simcolourproject_2stim_asymm_v5,2020.2.10,Win32,60,61025ae37ef11b136ea224fe,,,,,,,,,3709,-30,-63,1,0,0,response5disk,,3,18,-8,1,0,0,rectangle,79,-49,1,0,0,-9,-7,1,0,0,0,42,42,12,1,,response3disk_3,TRUE,5,5,"[44,127,217,275,288,31,248,182,236,142,149,297,52,258,43,292,70,264,241,245]",1.8153,rectangle
,,,,,,,,,,,,,FF,,,,,,,,1.8632,,,,,,,,,,,,,,,,,,,,,,6100b88cc7d099e491ea886c,61036e7faa5097a23a04fad3,2021-07-29_22h14.41.873,Simcolourproject_2stim_asymm_v5,2020.2.10,Win32,60,61025ae37ef11b136ea224fe,,,,,,,,,1580,45,61,1,0,0,response1disk,,7,18,-6,1,0,0,rectangle,64,-30,1,0,0,-1,-12,1,0,0,0,43,43,53,1,,response3disk_3,TRUE,5,5,"[44,127,217,275,288,31,248,182,236,142,149,297,52,258,43,292,70,264,241,245]",1.7977,rectangle
,,,,,,,,,,,,,FF,,,,,,,,1.5804,,,,,,,,,,,,,,,,,,,,,,6100b88cc7d099e491ea886c,61036e7faa5097a23a04fad3,2021-07-29_22h14.41.873,Simcolourproject_2stim_asymm_v5,2020.2.10,Win32,60,61025ae37ef11b136ea224fe,,,,,,,,,2996,-70,-19,1,0,0,response5disk,,2,-10,0,1,0,0,rectangle,-10,0,1,0,0,-10,0,1,0,0,0,44,44,80,1,,,,,,,,
,,,,,,,,,,,,,FF,,,,,,,,2.1971,,,,,,,,,,,,,,,,,,,,,,6100b88cc7d099e491ea886c,61036e7faa5097a23a04fad3,2021-07-29_22h14.41.873,Simcolourproject_2stim_asymm_v5,2020.2.10,Win32,60,61025ae37ef11b136ea224fe,,,,,,,,,923,29,35,1,0,0,response1disk,,7,13,-6,1,0,0,rectangle,13,-6,1,0,0,13,-6,1,0,0,0,45,45,122,1,,,,,,,,
,,,,,,,,,,,,,FF,,,,,,,,1.2648,,,,,,,,,,,,,,,,,,,,,,6100b88cc7d099e491ea886c,61036e7faa5097a23a04fad3,2021-07-29_22h14.41.873,Simcolourproject_2stim_asymm_v5,2020.2.10,Win32,60,61025ae37ef11b136ea224fe,,,,,,,,,3402,63,115,1,0,0,response1disk,,7,11,6,1,0,0,rectangle,11,6,1,0,0,11,6,1,0,0,0,46,46,102,1,,,,,,,,
,,,,,,,,,,,,,FF,,,,,,,,1.2973,,,,,,,,,,,,,,,,,,,,,,6100b88cc7d099e491ea886c,61036e7faa5097a23a04fad3,2021-07-29_22h14.41.873,Simcolourproject_2stim_asymm_v5,2020.2.10,Win32,60,61025ae37ef11b136ea224fe,,,,,,,,,931,65,85,1,0,0,response1disk,,7,20,10,1,0,0,rectangle,20,10,1,0,0,20,10,1,0,0,0,47,47,115,1,,,,,,,,
,,,,,,,,,,,,,FF,,,,,,,,5.3074,,,,,,,,,,,,,,,,,,,,,,6100b88cc7d099e491ea886c,61036e7faa5097a23a04fad3,2021-07-29_22h14.41.873,Simcolourproject_2stim_asymm_v5,2020.2.10,Win32,60,61025ae37ef11b136ea224fe,,,,,,,,,2845,65,31,1,0,0,response1disk,,6,19,14,1,0,0,rectangle,19,14,1,0,0,19,14,1,0,0,0,48,48,157,1,,,,,,,,
,,,,,,,,,,,,,FF,,,,,,,,1.8301,,,,,,,,,,,,,,,,,,,,,,6100b88cc7d099e491ea886c,61036e7faa5097a23a04fad3,2021-07-29_22h14.41.873,Simcolourproject_2stim_asymm_v5,2020.2.10,Win32,60,61025ae37ef11b136ea224fe,,,,,,,,,3196,-33,-67,1,0,0,response5disk,,3,2,-5,1,0,0,rectangle,2,-5,1,0,0,2,-5,1,0,0,0,49,49,29,1,,,,,,,,
,,,,,,,,,,,,,FF,,,,,,,,1.9791,,,,,,,,,,,,,,,,,,,,,,6100b88cc7d099e491ea886c,61036e7faa5097a23a04fad3,2021-07-29_22h14.41.873,Simcolourproject_2stim_asymm_v5,2020.2.10,Win32,60,61025ae37ef11b136ea224fe,,,,,,,,,739,47,45,1,0,0,response1disk,,6,1,-2,1,0,0,rectangle,1,-2,1,0,0,1,-2,1,0,0,0,50,50,103,1,,,,,,,,
,,,,,,,,,,,,,FF,,,,,,,,1.6137,,,,,,,,,,,,,,,,,,,,,,6100b88cc7d099e491ea886c,61036e7faa5097a23a04fad3,2021-07-29_22h14.41.873,Simcolourproject_2stim_asymm_v5,2020.2.10,Win32,60,61025ae37ef11b136ea224fe,,,,,,,,,1994,23,79,1,0,0,response1disk,,7,-22,-5,1,0,0,rectangle,54,-90,1,0,0,7,2,1,0,0,0,51,51,70,1,,response3disk_3,TRUE,4,4,"[44,127,217,275,288,31,248,182,236,142,149,297,52,258,43,292,70,264,241,245]",2.3794,rectangle
,,,,,,,,,,,,,FF,,,,,,,,2.5785,,,,,,,,,,,,,,,,,,,,,,6100b88cc7d099e491ea886c,61036e7faa5097a23a04fad3,2021-07-29_22h14.41.873,Simcolourproject_2stim_asymm_v5,2020.2.10,Win32,60,61025ae37ef11b136ea224fe,,,,,,,,,569,84,-21,1,0,0,response3disk,,5,16,8,1,0,0,rectangle,16,8,1,0,0,16,8,1,0,0,0,52,52,50,1,,,,,,,,
,,,,,,,,,,,,,FF,,,,,,,,2.4633,,,,,,,,,,,,,,,,,,,,,,6100b88cc7d099e491ea886c,61036e7faa5097a23a04fad3,2021-07-29_22h14.41.873,Simcolourproject_2stim_asymm_v5,2020.2.10,Win32,60,61025ae37ef11b136ea224fe,,,,,,,,,2949,-24,-73,1,0,0,response5disk,,3,-7,-7,1,0,0,rectangle,-7,-7,1,0,0,-7,-7,1,0,0,0,53,53,34,1,,,,,,,,
,,,,,,,,,,,,,FF,,,,,,,,3.8101,,,,,,,,,,,,,,,,,,,,,,6100b88cc7d099e491ea886c,61036e7faa5097a23a04fad3,2021-07-29_22h14.41.873,Simcolourproject_2stim_asymm_v5,2020.2.10,Win32,60,61025ae37ef11b136ea224fe,,,,,,,,,3514,28,-63,1,0,0,response3disk,,4,-1,-9,1,0,0,rectangle,-1,-9,1,0,0,-1,-9,1,0,0,0,54,54,150,1,,,,,,,,
,,,,,,,,,,,,,FF,,,,,,,,0.8994,,,,,,,,,,,,,,,,,,,,,,6100b88cc7d099e491ea886c,61036e7faa5097a23a04fad3,2021-07-29_22h14.41.873,Simcolourproject_2stim_asymm_v5,2020.2.10,Win32,60,61025ae37ef11b136ea224fe,,,,,,,,,2327,43,67,1,0,0,response1disk,,7,1,-4,1,0,0,rectangle,1,-4,1,0,0,1,-4,1,0,0,0,55,55,89,1,,,,,,,,
,,,,,,,,,,,,,FF,,,,,,,,1.1319,,,,,,,,,,,,,,,,,,,,,,6100b88cc7d099e491ea886c,61036e7faa5097a23a04fad3,2021-07-29_22h14.41.873,Simcolourproject_2stim_asymm_v5,2020.2.10,Win32,60,61025ae37ef11b136ea224fe,,,,,,,,,1982,28,64,1,0,0,response1disk,,7,9,4,1,0,0,rectangle,9,4,1,0,0,9,4,1,0,0,0,56,56,42,1,,,,,,,,
,,,,,,,,,,,,,FF,,,,,,,,1.7468,,,,,,,,,,,,,,,,,,,,,,6100b88cc7d099e491ea886c,61036e7faa5097a23a04fad3,2021-07-29_22h14.41.873,Simcolourproject_2stim_asymm_v5,2020.2.10,Win32,60,61025ae37ef11b136ea224fe,,,,,,,,,2264,36,87,1,0,0,response1disk,,7,-6,-9,1,0,0,rectangle,-6,-9,1,0,0,-6,-9,1,0,0,0,57,57,15,1,,,,,,,,
,,,,,,,,,,,,,FF,,,,,,,,2.6617,,,,,,,,,,,,,,,,,,,,,,6100b88cc7d099e491ea886c,61036e7faa5097a23a04fad3,2021-07-29_22h14.41.873,Simcolourproject_2stim_asymm_v5,2020.2.10,Win32,60,61025ae37ef11b136ea224fe,,,,,,,,,1778,35,59,1,0,0,response1disk,,7,17,12,1,0,0,rectangle,17,12,1,0,0,17,12,1,0,0,0,58,58,117,1,,,,,,,,
,,,,,,,,,,,,,FF,,,,,,,,1.1315,,,,,,,,,,,,,,,,,,,,,,6100b88cc7d099e491ea886c,61036e7faa5097a23a04fad3,2021-07-29_22h14.41.873,Simcolourproject_2stim_asymm_v5,2020.2.10,Win32,60,61025ae37ef11b136ea224fe,,,,,,,,,2754,32,63,1,0,0,response1disk,,7,6,-2,1,0,0,rectangle,6,-2,1,0,0,6,-2,1,0,0,0,59,59,55,1,,,,,,,,
,,,,,,,,,,,,,FF,,,,,,,,1.515,,,,,,,,,,,,,,,,,,,,,,6100b88cc7d099e491ea886c,61036e7faa5097a23a04fad3,2021-07-29_22h14.41.873,Simcolourproject_2stim_asymm_v5,2020.2.10,Win32,60,61025ae37ef11b136ea224fe,,,,,,,,,326,49,61,1,0,0,response1disk,,7,14,-6,1,0,0,rectangle,14,-6,1,0,0,14,-6,1,0,0,0,60,60,1,1,,,,,,,,
,,,,,,,,,,,,,FF,,,,,,,,1.78,,,,,,,,,,,,,,,,,,,,,,6100b88cc7d099e491ea886c,61036e7faa5097a23a04fad3,2021-07-29_22h14.41.873,Simcolourproject_2stim_asymm_v5,2020.2.10,Win32,60,61025ae37ef11b136ea224fe,,,,,,,,,1219,-21,-71,1,0,0,response5disk,,3,-9,-8,1,0,0,rectangle,-9,-8,1,0,0,-9,-8,1,0,0,0,61,61,83,1,,,,,,,,
,,,,,,,,,,,,,FF,,,,,,,,1.8641,,,,,,,,,,,,,,,,,,,,,,6100b88cc7d099e491ea886c,61036e7faa5097a23a04fad3,2021-07-29_22h14.41.873,Simcolourproject_2stim_asymm_v5,2020.2.10,Win32,60,61025ae37ef11b136ea224fe,,,,,,,,,593,34,78,1,0,0,response1disk,,7,15,4,1,0,0,rectangle,15,4,1,0,0,15,4,1,0,0,0,62,62,159,1,,,,,,,,
,,,,,,,,,,,,,FF,,,,,,,,1.9641,,,,,,,,,,,,,,,,,,,,,,6100b88cc7d099e491ea886c,61036e7faa5097a23a04fad3,2021-07-29_22h14.41.873,Simcolourproject_2stim_asymm_v5,2020.2.10,Win32,60,61025ae37ef11b136ea224fe,,,,,,,,,728,26,-55,1,0,0,response3disk,,4,1,-9,1,0,0,rectangle,1,-9,1,0,0,1,-9,1,0,0,0,63,63,76,1,,,,,,,,
,,,,,,,,,,,,,FF,,,,,,,,0.964,,,,,,,,,,,,,,,,,,,,,,6100b88cc7d099e491ea886c,61036e7faa5097a23a04fad3,2021-07-29_22h14.41.873,Simcolourproject_2stim_asymm_v5,2020.2.10,Win32,60,61025ae37ef11b136ea224fe,,,,,,,,,3290,-17,33,1,0,0,response7disk,,0,3,7,1,0,0,rectangle,3,7,1,0,0,3,7,1,0,0,0,64,64,131,1,,,,,,,,
,,,,,,,,,,,,,FF,,,,,,,,3.7274,,,,,,,,,,,,,,,,,,,,,,6100b88cc7d099e491ea886c,61036e7faa5097a23a04fad3,2021-07-29_22h14.41.873,Simcolourproject_2stim_asymm_v5,2020.2.10,Win32,60,61025ae37ef11b136ea224fe,,,,,,,,,3492,42,113,1,0,0,response1disk,,7,22,-6,1,0,0,rectangle,22,-6,1,0,0,22,-6,1,0,0,0,65,65,43,1,,,,,,,,
,,,,,,,,,,,,,FF,,,,,,,,4.5266,,,,,,,,,,,,,,,,,,,,,,6100b88cc7d099e491ea886c,61036e7faa5097a23a04fad3,2021-07-29_22h14.41.873,Simcolourproject_2stim_asymm_v5,2020.2.10,Win32,60,61025ae37ef11b136ea224fe,,,,,,,,,2749,39,71,1,0,0,response1disk,,7,15,-7,1,0,0,rectangle,15,-7,1,0,0,15,-7,1,0,0,0,66,66,16,1,,,,,,,,
,,,,,,,,,,,,,FF,,,,,,,,1.6631,,,,,,,,,,,,,,,,,,,,,,6100b88cc7d099e491ea886c,61036e7faa5097a23a04fad3,2021-07-29_22h14.41.873,Simcolourproject_2stim_asymm_v5,2020.2.10,Win32,60,61025ae37ef11b136ea224fe,,,,,,,,,156,27,69,1,0,0,response1disk,,7,5,0,1,0,0,rectangle,5,0,1,0,0,5,0,1,0,0,0,67,67,98,1,,,,,,,,
,,,,,,,,,,,,,FF,,,,,,,,1.5474,,,,,,,,,,,,,,,,,,,,,,6100b88cc7d099e491ea886c,61036e7faa5097a23a04fad3,2021-07-29_22h14.41.873,Simcolourproject_2stim_asymm_v5,2020.2.10,Win32,60,61025ae37ef11b136ea224fe,,,,,,,,,150,80,110,1,0,0,response1disk,,7,13,0,1,0,0,rectangle,13,0,1,0,0,13,0,1,0,0,0,68,68,47,1,,,,,,,,
,,,,,,,,,,,,,FF,,,,,,,,2.463,,,,,,,,,,,,,,,,,,,,,,6100b88cc7d099e491ea886c,61036e7faa5097a23a04fad3,2021-07-29_22h14.41.873,Simcolourproject_2stim_asymm_v5,2020.2.10,Win32,60,61025ae37ef11b136ea224fe,,,,,,,,,470,-18,-73,1,0,0,response5disk,,3,-3,2,1,0,0,rectangle,64,-44,1,0,0,-1,0,1,0,0,0,69,69,90,1,,response3disk_3,TRUE,5,5,"[44,127,217,275,288,31,248,182,236,142,149,297,52,258,43,292,70,264,241,245]",1.6804,rectangle
,,,,,,,,,,,,,FF,,,,,,,,1.847,,,,,,,,,,,,,,,,,,,,,,6100b88cc7d099e491ea886c,61036e7faa5097a23a04fad3,2021-07-29_22h14.41.873,Simcolourproject_2stim_asymm_v5,2020.2.10,Win32,60,61025ae37ef11b136ea224fe,,,,,,,,,3839,35,60,1,0,0,response1disk,,7,18,-3,1,0,0,rectangle,18,-3,1,0,0,18,-3,1,0,0,0,70,70,97,1,,,,,,,,
,,,,,,,,,,,,,FF,,,,,,,,2.9617,,,,,,,,,,,,,,,,,,,,,,6100b88cc7d099e491ea886c,61036e7faa5097a23a04fad3,2021-07-29_22h14.41.873,Simcolourproject_2stim_asymm_v5,2020.2.10,Win32,60,61025ae37ef11b136ea224fe,,,,,,,,,835,28,86,1,0,0,response1disk,,7,-7,-4,1,0,0,rectangle,-7,-4,1,0,0,-7,-4,1,0,0,0,71,71,120,1,,,,,,,,
,,,,,,,,,,,,,FF,,,,,,,,2.3618,,,,,,,,,,,,,,,,,,,,,,6100b88cc7d099e491ea886c,61036e7faa5097a23a04fad3,2021-07-29_22h14.41.873,Simcolourproject_2stim_asymm_v5,2020.2.10,Win32,60,61025ae37ef11b136ea224fe,,,,,,,,,669,22,38,1,0,0,response1disk,,7,1,4,1,0,0,rectangle,1,4,1,0,0,1,4,1,0,0,0,72,72,130,1,,,,,,,,
,,,,,,,,,,,,,FF,,,,,,,,4.4089,,,,,,,,,,,,,,,,,,,,,,6100b88cc7d099e491ea886c,61036e7faa5097a23a04fad3,2021-07-29_22h14.41.873,Simcolourproject_2stim_asymm_v5,2020.2.10,Win32,60,61025ae37ef11b136ea224fe,,,,,,,,,2842,107,-77,1,0,0,response3disk,,5,26,9,1,0,0,rectangle,26,9,1,0,0,26,9,1,0,0,0,73,73,24,1,,,,,,,,
,,,,,,,,,,,,,FF,,,,,,,,1.3971,,,,,,,,,,,,,,,,,,,,,,6100b88cc7d099e491ea886c,61036e7faa5097a23a04fad3,2021-07-29_22h14.41.873,Simcolourproject_2stim_asymm_v5,2020.2.10,Win32,60,61025ae37ef11b136ea224fe,,,,,,,,,3454,23,44,1,0,0,response1disk,,7,11,12,1,0,0,rectangle,11,12,1,0,0,11,12,1,0,0,0,74,74,92,1,,,,,,,,
,,,,,,,,,,,,,FF,,,,,,,,1.697,,,,,,,,,,,,,,,,,,,,,,6100b88cc7d099e491ea886c,61036e7faa5097a23a04fad3,2021-07-29_22h14.41.873,Simcolourproject_2stim_asymm_v5,2020.2.10,Win32,60,61025ae37ef11b136ea224fe,,,,,,,,,1025,27,66,1,0,0,response1disk,,7,4,12,1,0,0,rectangle,4,12,1,0,0,4,12,1,0,0,0,75,75,62,1,,,,,,,,
,,,,,,,,,,,,,FF,,,,,,,,6.8548,,,,,,,,,,,,,,,,,,,,,,6100b88cc7d099e491ea886c,61036e7faa5097a23a04fad3,2021-07-29_22h14.41.873,Simcolourproject_2stim_asymm_v5,2020.2.10,Win32,60,61025ae37ef11b136ea224fe,,,,,,,,,790,39,67,1,0,0,response1disk,,7,9,11,1,0,0,rectangle,9,11,1,0,0,9,11,1,0,0,0,76,76,75,1,,,,,,,,
,,,,,,,,,,,,,FF,,,,,,,,1.7978,,,,,,,,,,,,,,,,,,,,,,6100b88cc7d099e491ea886c,61036e7faa5097a23a04fad3,2021-07-29_22h14.41.873,Simcolourproject_2stim_asymm_v5,2020.2.10,Win32,60,61025ae37ef11b136ea224fe,,,,,,,,,1958,-31,-59,1,0,0,response5disk,,3,-4,1,1,0,0,rectangle,-4,1,1,0,0,-4,1,1,0,0,0,77,77,56,1,,,,,,,,
,,,,,,,,,,,,,FF,,,,,,,,1.2315,,,,,,,,,,,,,,,,,,,,,,6100b88cc7d099e491ea886c,61036e7faa5097a23a04fad3,2021-07-29_22h14.41.873,Simcolourproject_2stim_asymm_v5,2020.2.10,Win32,60,61025ae37ef11b136ea224fe,,,,,,,,,4147,-22,-58,1,0,0,response5disk,,3,-4,-5,1,0,0,rectangle,-4,-5,1,0,0,-4,-5,1,0,0,0,78,78,129,1,,,,,,,,
,,,,,,,,,,,,,FF,,,,,,,,2.1299,,,,,,,,,,,,,,,,,,,,,,6100b88cc7d099e491ea886c,61036e7faa5097a23a04fad3,2021-07-29_22h14.41.873,Simcolourproject_2stim_asymm_v5,2020.2.10,Win32,60,61025ae37ef11b136ea224fe,,,,,,,,,2887,-32,-73,1,0,0,response5disk,,3,-13,1,1,0,0,rectangle,-13,1,1,0,0,-13,1,1,0,0,0,79,79,99,1,,,,,,,,
,,,,,,,,,,,,,FF,,,,,,,,1.7133,,,,,,,,,,,,,,,,,,,,,,6100b88cc7d099e491ea886c,61036e7faa5097a23a04fad3,2021-07-29_22h14.41.873,Simcolourproject_2stim_asymm_v5,2020.2.10,Win32,60,61025ae37ef11b136ea224fe,,,,,,,,,102,58,-24,1,0,0,response3disk,,5,32,-6,1,0,0,rectangle,32,-6,1,0,0,32,-6,1,0,0,0,80,80,93,1,,,,,,,,
,,,,,,,,,,,,,FF,,,,,,,,1.4969,,,,,,,,,,,,,,,,,,,,,,6100b88cc7d099e491ea886c,61036e7faa5097a23a04fad3,2021-07-29_22h14.41.873,Simcolourproject_2stim_asymm_v5,2020.2.10,Win32,60,61025ae37ef11b136ea224fe,,,,,,,,,2620,53,20,1,0,0,response1disk,,6,21,-4,1,0,0,rectangle,21,-4,1,0,0,21,-4,1,0,0,0,81,81,30,1,,,,,,,,
,,,,,,,,,,,,,FF,,,,,,,,1.0643,,,,,,,,,,,,,,,,,,,,,,6100b88cc7d099e491ea886c,61036e7faa5097a23a04fad3,2021-07-29_22h14.41.873,Simcolourproject_2stim_asymm_v5,2020.2.10,Win32,60,61025ae37ef11b136ea224fe,,,,,,,,,768,32,51,1,0,0,response1disk,,7,-3,0,1,0,0,rectangle,-3,0,1,0,0,-3,0,1,0,0,0,82,82,49,1,,,,,,,,
,,,,,,,,,,,,,FF,,,,,,,,3.0281,,,,,,,,,,,,,,,,,,,,,,6100b88cc7d099e491ea886c,61036e7faa5097a23a04fad3,2021-07-29_22h14.41.873,Simcolourproject_2stim_asymm_v5,2020.2.10,Win32,60,61025ae37ef11b136ea224fe,,,,,,,,,2244,24,-104,1,0,0,response3disk,,4,-12,-2,1,0,0,rectangle,-12,-2,1,0,0,-12,-2,1,0,0,0,83,83,84,1,,,,,,,,
,,,,,,,,,,,,,FF,,,,,,,,1.1649,,,,,,,,,,,,,,,,,,,,,,6100b88cc7d099e491ea886c,61036e7faa5097a23a04fad3,2021-07-29_22h14.41.873,Simcolourproject_2stim_asymm_v5,2020.2.10,Win32,60,61025ae37ef11b136ea224fe,,,,,,,,,232,87,31,1,0,0,response1disk,,6,4,-1,1,0,0,rectangle,4,-1,1,0,0,4,-1,1,0,0,0,84,84,5,1,,,,,,,,
,,,,,,,,,,,,,FF,,,,,,,,1.9468,,,,,,,,,,,,,,,,,,,,,,6100b88cc7d099e491ea886c,61036e7faa5097a23a04fad3,2021-07-29_22h14.41.873,Simcolourproject_2stim_asymm_v5,2020.2.10,Win32,60,61025ae37ef11b136ea224fe,,,,,,,,,56,31,46,1,0,0,response1disk,,7,5,8,1,0,0,rectangle,5,8,1,0,0,5,8,1,0,0,0,85,85,81,1,,,,,,,,
,,,,,,,,,,,,,FF,,,,,,,,0.8483,,,,,,,,,,,,,,,,,,,,,,6100b88cc7d099e491ea886c,61036e7faa5097a23a04fad3,2021-07-29_22h14.41.873,Simcolourproject_2stim_asymm_v5,2020.2.10,Win32,60,61025ae37ef11b136ea224fe,,,,,,,,,1546,24,42,1,0,0,response1disk,,7,17,-1,1,0,0,rectangle,17,-1,1,0,0,17,-1,1,0,0,0,86,86,11,1,,,,,,,,
,,,,,,,,,,,,,FF,,,,,,,,1.4142,,,,,,,,,,,,,,,,,,,,,,6100b88cc7d099e491ea886c,61036e7faa5097a23a04fad3,2021-07-29_22h14.41.873,Simcolourproject_2stim_asymm_v5,2020.2.10,Win32,60,61025ae37ef11b136ea224fe,,,,,,,,,531,-24,-63,1,0,0,response5disk,,3,-4,-5,1,0,0,rectangle,-4,-5,1,0,0,-4,-5,1,0,0,0,87,87,28,1,,,,,,,,
,,,,,,,,,,,,,FF,,,,,,,,2.9782,,,,,,,,,,,,,,,,,,,,,,6100b88cc7d099e491ea886c,61036e7faa5097a23a04fad3,2021-07-29_22h14.41.873,Simcolourproject_2stim_asymm_v5,2020.2.10,Win32,60,61025ae37ef11b136ea224fe,,,,,,,,,1514,62,71,1,0,0,response1disk,,7,19,12,1,0,0,rectangle,19,12,1,0,0,19,12,1,0,0,0,88,88,68,1,,,,,,,,
,,,,,,,,,,,,,FF,,,,,,,,1.9799,,,,,,,,,,,,,,,,,,,,,,6100b88cc7d099e491ea886c,61036e7faa5097a23a04fad3,2021-07-29_22h14.41.873,Simcolourproject_2stim_asymm_v5,2020.2.10,Win32,60,61025ae37ef11b136ea224fe,,,,,,,,,2077,47,69,1,0,0,response1disk,,7,5,1,1,0,0,rectangle,5,1,1,0,0,5,1,1,0,0,0,89,89,87,1,,,,,,,,
,,,,,,,,,,,,,FF,,,,,,,,1.3313,,,,,,,,,,,,,,,,,,,,,,6100b88cc7d099e491ea886c,61036e7faa5097a23a04fad3,2021-07-29_22h14.41.873,Simcolourproject_2stim_asymm_v5,2020.2.10,Win32,60,61025ae37ef11b136ea224fe,,,,,,,,,3063,22,41,1,0,0,response1disk,,7,4,5,1,0,0,rectangle,4,5,1,0,0,4,5,1,0,0,0,90,90,33,1,,,,,,,,
,,,,,,,,,,,,,FF,,,,,,,,1.9129,,,,,,,,,,,,,,,,,,,,,,6100b88cc7d099e491ea886c,61036e7faa5097a23a04fad3,2021-07-29_22h14.41.873,Simcolourproject_2stim_asymm_v5,2020.2.10,Win32,60,61025ae37ef11b136ea224fe,,,,,,,,,880,20,39,1,0,0,response1disk,,7,0,8,1,0,0,rectangle,0,8,1,0,0,0,8,1,0,0,0,91,91,107,1,,,,,,,,
,,,,,,,,,,,,,FF,,,,,,,,1.9124,,,,,,,,,,,,,,,,,,,,,,6100b88cc7d099e491ea886c,61036e7faa5097a23a04fad3,2021-07-29_22h14.41.873,Simcolourproject_2stim_asymm_v5,2020.2.10,Win32,60,61025ae37ef11b136ea224fe,,,,,,,,,3508,24,43,1,0,0,response1disk,,7,7,2,1,0,0,rectangle,7,2,1,0,0,7,2,1,0,0,0,92,92,86,1,,,,,,,,
,,,,,,,,,,,,,FF,,,,,,,,2.6621,,,,,,,,,,,,,,,,,,,,,,6100b88cc7d099e491ea886c,61036e7faa5097a23a04fad3,2021-07-29_22h14.41.873,Simcolourproject_2stim_asymm_v5,2020.2.10,Win32,60,61025ae37ef11b136ea224fe,,,,,,,,,1101,21,65,1,0,0,response1disk,,7,17,-12,1,0,0,rectangle,17,-12,1,0,0,17,-12,1,0,0,0,93,93,109,1,,,,,,,,
,,,,,,,,,,,,,FF,,,,,,,,1.5145,,,,,,,,,,,,,,,,,,,,,,6100b88cc7d099e491ea886c,61036e7faa5097a23a04fad3,2021-07-29_22h14.41.873,Simcolourproject_2stim_asymm_v5,2020.2.10,Win32,60,61025ae37ef11b136ea224fe,,,,,,,,,3,43,-80,1,0,0,response3disk,,4,5,14,1,0,0,rectangle,5,14,1,0,0,5,14,1,0,0,0,94,94,144,1,,,,,,,,
,,,,,,,,,,,,,FF,,,,,,,,1.1155,,,,,,,,,,,,,,,,,,,,,,6100b88cc7d099e491ea886c,61036e7faa5097a23a04fad3,2021-07-29_22h14.41.873,Simcolourproject_2stim_asymm_v5,2020.2.10,Win32,60,61025ae37ef11b136ea224fe,,,,,,,,,171,-28,-69,1,0,0,response5disk,,3,-11,-9,1,0,0,rectangle,-11,-9,1,0,0,-11,-9,1,0,0,0,95,95,72,1,,,,,,,,
,,,,,,,,,,,,,FF,,,,,,,,2.612,,,,,,,,,,,,,,,,,,,,,,6100b88cc7d099e491ea886c,61036e7faa5097a23a04fad3,2021-07-29_22h14.41.873,Simcolourproject_2stim_asymm_v5,2020.2.10,Win32,60,61025ae37ef11b136ea224fe,,,,,,,,,3424,47,72,1,0,0,response1disk,,7,18,12,1,0,0,rectangle,18,12,1,0,0,18,12,1,0,0,0,96,96,96,1,,,,,,,,
,,,,,,,,,,,,,FF,,,,,,,,1.5975,,,,,,,,,,,,,,,,,,,,,,6100b88cc7d099e491ea886c,61036e7faa5097a23a04fad3,2021-07-29_22h14.41.873,Simcolourproject_2stim_asymm_v5,2020.2.10,Win32,60,61025ae37ef11b136ea224fe,,,,,,,,,2237,-23,-96,1,0,0,response5disk,,3,4,-2,1,0,0,rectangle,4,-2,1,0,0,4,-2,1,0,0,0,97,97,95,1,,,,,,,,
,,,,,,,,,,,,,FF,,,,,,,,1.0649,,,,,,,,,,,,,,,,,,,,,,6100b88cc7d099e491ea886c,61036e7faa5097a23a04fad3,2021-07-29_22h14.41.873,Simcolourproject_2stim_asymm_v5,2020.2.10,Win32,60,61025ae37ef11b136ea224fe,,,,,,,,,368,-41,-28,1,0,0,response5disk,,2,-9,-14,1,0,0,rectangle,-9,-14,1,0,0,-9,-14,1,0,0,0,98,98,111,1,,,,,,,,
,,,,,,,,,,,,,FF,,,,,,,,1.2639,,,,,,,,,,,,,,,,,,,,,,6100b88cc7d099e491ea886c,61036e7faa5097a23a04fad3,2021-07-29_22h14.41.873,Simcolourproject_2stim_asymm_v5,2020.2.10,Win32,60,61025ae37ef11b136ea224fe,,,,,,,,,111,33,58,1,0,0,response1disk,,7,-9,2,1,0,0,rectangle,-9,2,1,0,0,-9,2,1,0,0,0,99,99,143,1,,,,,,,,
,,,,,,,,,,,,,FF,,,,,,,,1.1305,,,,,,,,,,,,,,,,,,,,,,6100b88cc7d099e491ea886c,61036e7faa5097a23a04fad3,2021-07-29_22h14.41.873,Simcolourproject_2stim_asymm_v5,2020.2.10,Win32,60,61025ae37ef11b136ea224fe,,,,,,,,,2203,20,48,1,0,0,response1disk,,7,1,-7,1,0,0,rectangle,1,-7,1,0,0,1,-7,1,0,0,0,100,100,132,1,,,,,,,,
,,,,,,,,,,,,,FF,,,,,,,,0.8993,,,,,,,,,,,,,,,,,,,,,,6100b88cc7d099e491ea886c,61036e7faa5097a23a04fad3,2021-07-29_22h14.41.873,Simcolourproject_2stim_asymm_v5,2020.2.10,Win32,60,61025ae37ef11b136ea224fe,,,,,,,,,3854,19,35,1,0,0,response1disk,,7,5,1,1,0,0,rectangle,5,1,1,0,0,5,1,1,0,0,0,101,101,112,1,,,,,,,,
,,,,,,,,,,,,,FF,,,,,,,,0.965,,,,,,,,,,,,,,,,,,,,,,6100b88cc7d099e491ea886c,61036e7faa5097a23a04fad3,2021-07-29_22h14.41.873,Simcolourproject_2stim_asymm_v5,2020.2.10,Win32,60,61025ae37ef11b136ea224fe,,,,,,,,,791,19,55,1,0,0,response1disk,,7,-4,2,1,0,0,rectangle,-4,2,1,0,0,-4,2,1,0,0,0,102,102,0,1,,,,,,,,
,,,,,,,,,,,,,FF,,,,,,,,1.9296,,,,,,,,,,,,,,,,,,,,,,6100b88cc7d099e491ea886c,61036e7faa5097a23a04fad3,2021-07-29_22h14.41.873,Simcolourproject_2stim_asymm_v5,2020.2.10,Win32,60,61025ae37ef11b136ea224fe,,,,,,,,,443,-73,30,1,0,0,response7disk,,1,-17,7,1,0,0,rectangle,-17,7,1,0,0,-17,7,1,0,0,0,103,103,18,1,,,,,,,,
,,,,,,,,,,,,,FF,,,,,,,,0.8484,,,,,,,,,,,,,,,,,,,,,,6100b88cc7d099e491ea886c,61036e7faa5097a23a04fad3,2021-07-29_22h14.41.873,Simcolourproject_2stim_asymm_v5,2020.2.10,Win32,60,61025ae37ef11b136ea224fe,,,,,,,,,45,22,42,1,0,0,response1disk,,7,2,-10,1,0,0,rectangle,2,-10,1,0,0,2,-10,1,0,0,0,104,104,13,1,,,,,,,,
,,,,,,,,,,,,,FF,,,,,,,,0.8318,,,,,,,,,,,,,,,,,,,,,,6100b88cc7d099e491ea886c,61036e7faa5097a23a04fad3,2021-07-29_22h14.41.873,Simcolourproject_2stim_asymm_v5,2020.2.10,Win32,60,61025ae37ef11b136ea224fe,,,,,,,,,517,31,56,1,0,0,response1disk,,7,3,-4,1,0,0,rectangle,3,-4,1,0,0,3,-4,1,0,0,0,105,105,38,1,,,,,,,,
,,,,,,,,,,,,,FF,,,,,,,,1.5475,,,,,,,,,,,,,,,,,,,,,,6100b88cc7d099e491ea886c,61036e7faa5097a23a04fad3,2021-07-29_22h14.41.873,Simcolourproject_2stim_asymm_v5,2020.2.10,Win32,60,61025ae37ef11b136ea224fe,,,,,,,,,1147,30,-72,1,0,0,response3disk,,4,-11,0,1,0,0,rectangle,-11,0,1,0,0,-11,0,1,0,0,0,106,106,145,1,,,,,,,,
,,,,,,,,,,,,,FF,,,,,,,,1.4473,,,,,,,,,,,,,,,,,,,,,,6100b88cc7d099e491ea886c,61036e7faa5097a23a04fad3,2021-07-29_22h14.41.873,Simcolourproject_2stim_asymm_v5,2020.2.10,Win32,60,61025ae37ef11b136ea224fe,,,,,,,,,344,42,72,1,0,0,response1disk,,7,11,-5,1,0,0,rectangle,11,-5,1,0,0,11,-5,1,0,0,0,107,107,140,1,,,,,,,,
,,,,,,,,,,,,,FF,,,,,,,,1.6973,,,,,,,,,,,,,,,,,,,,,,6100b88cc7d099e491ea886c,61036e7faa5097a23a04fad3,2021-07-29_22h14.41.873,Simcolourproject_2stim_asymm_v5,2020.2.10,Win32,60,61025ae37ef11b136ea224fe,,,,,,,,,4052,-26,-69,1,0,0,response5disk,,3,5,12,1,0,0,rectangle,5,12,1,0,0,5,12,1,0,0,0,108,108,2,1,,,,,,,,
,,,,,,,,,,,,,FF,,,,,,,,1.4979,,,,,,,,,,,,,,,,,,,,,,6100b88cc7d099e491ea886c,61036e7faa5097a23a04fad3,2021-07-29_22h14.41.873,Simcolourproject_2stim_asymm_v5,2020.2.10,Win32,60,61025ae37ef11b136ea224fe,,,,,,,,,3302,30,64,1,0,0,response1disk,,7,3,-8,1,0,0,rectangle,3,-8,1,0,0,3,-8,1,0,0,0,109,109,10,1,,,,,,,,
,,,,,,,,,,,,,FF,,,,,,,,1.7965,,,,,,,,,,,,,,,,,,,,,,6100b88cc7d099e491ea886c,61036e7faa5097a23a04fad3,2021-07-29_22h14.41.873,Simcolourproject_2stim_asymm_v5,2020.2.10,Win32,60,61025ae37ef11b136ea224fe,,,,,,,,,3712,-61,-23,1,0,0,response5disk,,2,24,11,1,0,0,rectangle,24,11,1,0,0,24,11,1,0,0,0,110,110,101,1,,,,,,,,
,,,,,,,,,,,,,FF,,,,,,,,2.196,,,,,,,,,,,,,,,,,,,,,,6100b88cc7d099e491ea886c,61036e7faa5097a23a04fad3,2021-07-29_22h14.41.873,Simcolourproject_2stim_asymm_v5,2020.2.10,Win32,60,61025ae37ef11b136ea224fe,,,,,,,,,3822,24,41,1,0,0,response1disk,,7,-2,-1,1,0,0,rectangle,-2,-1,1,0,0,-2,-1,1,0,0,0,111,111,82,1,,,,,,,,
,,,,,,,,,,,,,FF,,,,,,,,0.8319,,,,,,,,,,,,,,,,,,,,,,6100b88cc7d099e491ea886c,61036e7faa5097a23a04fad3,2021-07-29_22h14.41.873,Simcolourproject_2stim_asymm_v5,2020.2.10,Win32,60,61025ae37ef11b136ea224fe,,,,,,,,,3416,46,66,1,0,0,response1disk,,7,12,5,1,0,0,rectangle,12,5,1,0,0,12,5,1,0,0,0,112,112,45,1,,,,,,,,
,,,,,,,,,,,,,FF,,,,,,,,1.215,,,,,,,,,,,,,,,,,,,,,,6100b88cc7d099e491ea886c,61036e7faa5097a23a04fad3,2021-07-29_22h14.41.873,Simcolourproject_2stim_asymm_v5,2020.2.10,Win32,60,61025ae37ef11b136ea224fe,,,,,,,,,4002,66,87,1,0,0,response1disk,,7,-3,-3,1,0,0,rectangle,-3,-3,1,0,0,-3,-3,1,0,0,0,113,113,60,1,,,,,,,,
,,,,,,,,,,,,,FF,,,,,,,,1.2139,,,,,,,,,,,,,,,,,,,,,,6100b88cc7d099e491ea886c,61036e7faa5097a23a04fad3,2021-07-29_22h14.41.873,Simcolourproject_2stim_asymm_v5,2020.2.10,Win32,60,61025ae37ef11b136ea224fe,,,,,,,,,3983,70,111,1,0,0,response1disk,,7,-19,-12,1,0,0,rectangle,-19,-12,1,0,0,-19,-12,1,0,0,0,114,114,119,1,,,,,,,,
,,,,,,,,,,,,,FF,,,,,,,,4.342,,,,,,,,,,,,,,,,,,,,,,6100b88cc7d099e491ea886c,61036e7faa5097a23a04fad3,2021-07-29_22h14.41.873,Simcolourproject_2stim_asymm_v5,2020.2.10,Win32,60,61025ae37ef11b136ea224fe,,,,,,,,,1283,99,-39,1,0,0,response3disk,,5,-1,3,1,0,0,rectangle,-1,3,1,0,0,-1,3,1,0,0,0,115,115,79,1,,,,,,,,
,,,,,,,,,,,,,FF,,,,,,,,2.0295,,,,,,,,,,,,,,,,,,,,,,6100b88cc7d099e491ea886c,61036e7faa5097a23a04fad3,2021-07-29_22h14.41.873,Simcolourproject_2stim_asymm_v5,2020.2.10,Win32,60,61025ae37ef11b136ea224fe,,,,,,,,,2364,39,-93,1,0,0,response3disk,,4,13,-1,1,0,0,rectangle,13,-1,1,0,0,13,-1,1,0,0,0,116,116,74,1,,,,,,,,
,,,,,,,,,,,,,FF,,,,,,,,1.447,,,,,,,,,,,,,,,,,,,,,,6100b88cc7d099e491ea886c,61036e7faa5097a23a04fad3,2021-07-29_22h14.41.873,Simcolourproject_2stim_asymm_v5,2020.2.10,Win32,60,61025ae37ef11b136ea224fe,,,,,,,,,2178,45,-34,1,0,0,response3disk,,5,-12,13,1,0,0,rectangle,-12,13,1,0,0,-12,13,1,0,0,0,117,117,36,1,,,,,,,,
,,,,,,,,,,,,,FF,,,,,,,,0.9655,,,,,,,,,,,,,,,,,,,,,,6100b88cc7d099e491ea886c,61036e7faa5097a23a04fad3,2021-07-29_22h14.41.873,Simcolourproject_2stim_asymm_v5,2020.2.10,Win32,60,61025ae37ef11b136ea224fe,,,,,,,,,2320,50,94,1,0,0,response1disk,,7,-4,2,1,0,0,rectangle,-4,2,1,0,0,-4,2,1,0,0,0,118,118,67,1,,,,,,,,
,,,,,,,,,,,,,FF,,,,,,,,2.3787,,,,,,,,,,,,,,,,,,,,,,6100b88cc7d099e491ea886c,61036e7faa5097a23a04fad3,2021-07-29_22h14.41.873,Simcolourproject_2stim_asymm_v5,2020.2.10,Win32,60,61025ae37ef11b136ea224fe,,,,,,,,,2606,52,-76,1,0,0,response3disk,,4,-1,15,1,0,0,rectangle,-1,15,1,0,0,-1,15,1,0,0,0,119,119,126,1,,,,,,,,
,,,,,,,,,,,,,FF,,,,,,,,1.9144,,,,,,,,,,,,,,,,,,,,,,6100b88cc7d099e491ea886c,61036e7faa5097a23a04fad3,2021-07-29_22h14.41.873,Simcolourproject_2stim_asymm_v5,2020.2.10,Win32,60,61025ae37ef11b136ea224fe,,,,,,,,,2825,77,-30,1,0,0,response3disk,,5,12,-5,1,0,0,rectangle,12,-5,1,0,0,12,-5,1,0,0,0,120,120,116,1,,,,,,,,
,,,,,,,,,,,,,FF,,,,,,,,2.0476,,,,,,,,,,,,,,,,,,,,,,6100b88cc7d099e491ea886c,61036e7faa5097a23a04fad3,2021-07-29_22h14.41.873,Simcolourproject_2stim_asymm_v5,2020.2.10,Win32,60,61025ae37ef11b136ea224fe,,,,,,,,,1896,54,-67,1,0,0,response3disk,,4,-5,-11,1,0,0,rectangle,-5,-11,1,0,0,-5,-11,1,0,0,0,121,121,64,1,,,,,,,,
,,,,,,,,,,,,,FF,,,,,,,,1.0485,,,,,,,,,,,,,,,,,,,,,,6100b88cc7d099e491ea886c,61036e7faa5097a23a04fad3,2021-07-29_22h14.41.873,Simcolourproject_2stim_asymm_v5,2020.2.10,Win32,60,61025ae37ef11b136ea224fe,,,,,,,,,2706,32,66,1,0,0,response1disk,,7,-7,-5,1,0,0,rectangle,-7,-5,1,0,0,-7,-5,1,0,0,0,122,122,17,1,,,,,,,,
,,,,,,,,,,,,,FF,,,,,,,,0.9487,,,,,,,,,,,,,,,,,,,,,,6100b88cc7d099e491ea886c,61036e7faa5097a23a04fad3,2021-07-29_22h14.41.873,Simcolourproject_2stim_asymm_v5,2020.2.10,Win32,60,61025ae37ef11b136ea224fe,,,,,,,,,488,37,73,1,0,0,response1disk,,7,-10,-5,1,0,0,rectangle,-10,-5,1,0,0,-10,-5,1,0,0,0,123,123,9,1,,,,,,,,
,,,,,,,,,,,,,FF,,,,,,,,1.9628,,,,,,,,,,,,,,,,,,,,,,6100b88cc7d099e491ea886c,61036e7faa5097a23a04fad3,2021-07-29_22h14.41.873,Simcolourproject_2stim_asymm_v5,2020.2.10,Win32,60,61025ae37ef11b136ea224fe,,,,,,,,,2939,32,39,1,0,0,response1disk,,7,18,2,1,0,0,rectangle,18,2,1,0,0,18,2,1,0,0,0,124,124,100,1,,,,,,,,
,,,,,,,,,,,,,FF,,,,,,,,1.8466,,,,,,,,,,,,,,,,,,,,,,6100b88cc7d099e491ea886c,61036e7faa5097a23a04fad3,2021-07-29_22h14.41.873,Simcolourproject_2stim_asymm_v5,2020.2.10,Win32,60,61025ae37ef11b136ea224fe,,,,,,,,,2488,67,-23,1,0,0,response3disk,,5,13,0,1,0,0,rectangle,13,0,1,0,0,13,0,1,0,0,0,125,125,8,1,,,,,,,,
,,,,,,,,,,,,,FF,,,,,,,,0.8479,,,,,,,,,,,,,,,,,,,,,,6100b88cc7d099e491ea886c,61036e7faa5097a23a04fad3,2021-07-29_22h14.41.873,Simcolourproject_2stim_asymm_v5,2020.2.10,Win32,60,61025ae37ef11b136ea224fe,,,,,,,,,2084,27,59,1,0,0,response1disk,,7,-6,5,1,0,0,rectangle,-25,61,1,0,0,11,8,1,0,0,0,126,126,141,1,,response7disk_3,TRUE,0,0,"[44,127,217,275,288,31,248,182,236,142,149,297,52,258,43,292,70,264,241,245]",2.3466,rectangle
,,,,,,,,,,,,,FF,,,,,,,,1.7131,,,,,,,,,,,,,,,,,,,,,,6100b88cc7d099e491ea886c,61036e7faa5097a23a04fad3,2021-07-29_22h14.41.873,Simcolourproject_2stim_asymm_v5,2020.2.10,Win32,60,61025ae37ef11b136ea224fe,,,,,,,,,3031,78,118,1,0,0,response1disk,,7,14,-8,1,0,0,rectangle,14,-8,1,0,0,14,-8,1,0,0,0,127,127,44,1,,,,,,,,
,,,,,,,,,,,,,FF,,,,,,,,3.4121,,,,,,,,,,,,,,,,,,,,,,6100b88cc7d099e491ea886c,61036e7faa5097a23a04fad3,2021-07-29_22h14.41.873,Simcolourproject_2stim_asymm_v5,2020.2.10,Win32,60,61025ae37ef11b136ea224fe,,,,,,,,,2954,87,-95,1,0,0,response3disk,,4,-5,-8,1,0,0,rectangle,-5,-8,1,0,0,-5,-8,1,0,0,0,128,128,3,1,,,,,,,,
,,,,,,,,,,,,,FF,,,,,,,,1.131,,,,,,,,,,,,,,,,,,,,,,6100b88cc7d099e491ea886c,61036e7faa5097a23a04fad3,2021-07-29_22h14.41.873,Simcolourproject_2stim_asymm_v5,2020.2.10,Win32,60,61025ae37ef11b136ea224fe,,,,,,,,,3359,44,60,1,0,0,response1disk,,7,13,2,1,0,0,rectangle,13,2,1,0,0,13,2,1,0,0,0,129,129,155,1,,,,,,,,
,,,,,,,,,,,,,FF,,,,,,,,1.8461,,,,,,,,,,,,,,,,,,,,,,6100b88cc7d099e491ea886c,61036e7faa5097a23a04fad3,2021-07-29_22h14.41.873,Simcolourproject_2stim_asymm_v5,2020.2.10,Win32,60,61025ae37ef11b136ea224fe,,,,,,,,,2841,20,37,1,0,0,response1disk,,7,-15,3,1,0,0,rectangle,-15,3,1,0,0,-15,3,1,0,0,0,130,130,48,1,,,,,,,,
,,,,,,,,,,,,,FF,,,,,,,,2.5451,,,,,,,,,,,,,,,,,,,,,,6100b88cc7d099e491ea886c,61036e7faa5097a23a04fad3,2021-07-29_22h14.41.873,Simcolourproject_2stim_asymm_v5,2020.2.10,Win32,60,61025ae37ef11b136ea224fe,,,,,,,,,3237,-37,-88,1,0,0,response5disk,,3,10,-11,1,0,0,rectangle,10,-11,1,0,0,10,-11,1,0,0,0,131,131,114,1,,,,,,,,
,,,,,,,,,,,,,FF,,,,,,,,2.9449,,,,,,,,,,,,,,,,,,,,,,6100b88cc7d099e491ea886c,61036e7faa5097a23a04fad3,2021-07-29_22h14.41.873,Simcolourproject_2stim_asymm_v5,2020.2.10,Win32,60,61025ae37ef11b136ea224fe,,,,,,,,,719,-29,-94,1,0,0,response5disk,,3,-22,-5,1,0,0,rectangle,-22,-5,1,0,0,-22,-5,1,0,0,0,132,132,123,1,,,,,,,,
,,,,,,,,,,,,,FF,,,,,,,,5.2249,,,,,,,,,,,,,,,,,,,,,,6100b88cc7d099e491ea886c,61036e7faa5097a23a04fad3,2021-07-29_22h14.41.873,Simcolourproject_2stim_asymm_v5,2020.2.10,Win32,60,61025ae37ef11b136ea224fe,,,,,,,,,538,40,59,1,0,0,response1disk,,7,29,8,1,0,0,rectangle,29,8,1,0,0,29,8,1,0,0,0,133,133,32,1,,,,,,,,
,,,,,,,,,,,,,FF,,,,,,,,2.2637,,,,,,,,,,,,,,,,,,,,,,6100b88cc7d099e491ea886c,61036e7faa5097a23a04fad3,2021-07-29_22h14.41.873,Simcolourproject_2stim_asymm_v5,2020.2.10,Win32,60,61025ae37ef11b136ea224fe,,,,,,,,,2656,35,-69,1,0,0,response3disk,,4,-2,-8,1,0,0,rectangle,-2,-8,1,0,0,-2,-8,1,0,0,0,134,134,106,1,,,,,,,,
,,,,,,,,,,,,,FF,,,,,,,,4.9413,,,,,,,,,,,,,,,,,,,,,,6100b88cc7d099e491ea886c,61036e7faa5097a23a04fad3,2021-07-29_22h14.41.873,Simcolourproject_2stim_asymm_v5,2020.2.10,Win32,60,61025ae37ef11b136ea224fe,,,,,,,,,3446,44,63,1,0,0,response1disk,,7,12,4,1,0,0,rectangle,12,4,1,0,0,12,4,1,0,0,0,135,135,104,1,,,,,,,,
,,,,,,,,,,,,,FF,,,,,,,,2.6453,,,,,,,,,,,,,,,,,,,,,,6100b88cc7d099e491ea886c,61036e7faa5097a23a04fad3,2021-07-29_22h14.41.873,Simcolourproject_2stim_asymm_v5,2020.2.10,Win32,60,61025ae37ef11b136ea224fe,,,,,,,,,730,33,53,1,0,0,response1disk,,7,11,5,1,0,0,rectangle,11,5,1,0,0,11,5,1,0,0,0,136,136,153,1,,,,,,,,
,,,,,,,,,,,,,FF,,,,,,,,1.78,,,,,,,,,,,,,,,,,,,,,,6100b88cc7d099e491ea886c,61036e7faa5097a23a04fad3,2021-07-29_22h14.41.873,Simcolourproject_2stim_asymm_v5,2020.2.10,Win32,60,61025ae37ef11b136ea224fe,,,,,,,,,1820,32,-43,1,0,0,response3disk,,4,-21,-5,1,0,0,rectangle,-21,-5,1,0,0,-21,-5,1,0,0,0,137,137,25,1,,,,,,,,
,,,,,,,,,,,,,FF,,,,,,,,1.7137,,,,,,,,,,,,,,,,,,,,,,6100b88cc7d099e491ea886c,61036e7faa5097a23a04fad3,2021-07-29_22h14.41.873,Simcolourproject_2stim_asymm_v5,2020.2.10,Win32,60,61025ae37ef11b136ea224fe,,,,,,,,,2312,50,69,1,0,0,response1disk,,7,17,10,1,0,0,rectangle,17,10,1,0,0,17,10,1,0,0,0,138,138,46,1,,,,,,,,
,,,,,,,,,,,,,FF,,,,,,,,1.5144,,,,,,,,,,,,,,,,,,,,,,6100b88cc7d099e491ea886c,61036e7faa5097a23a04fad3,2021-07-29_22h14.41.873,Simcolourproject_2stim_asymm_v5,2020.2.10,Win32,60,61025ae37ef11b136ea224fe,,,,,,,,,218,54,37,1,0,0,response1disk,,6,13,-2,1,0,0,rectangle,13,-2,1,0,0,13,-2,1,0,0,0,139,139,88,1,,,,,,,,
,,,,,,,,,,,,,FF,,,,,,,,1.7639,,,,,,,,,,,,,,,,,,,,,,6100b88cc7d099e491ea886c,61036e7faa5097a23a04fad3,2021-07-29_22h14.41.873,Simcolourproject_2stim_asymm_v5,2020.2.10,Win32,60,61025ae37ef11b136ea224fe,,,,,,,,,3258,-31,-67,1,0,0,response5disk,,3,-17,-2,1,0,0,rectangle,-17,-2,1,0,0,-17,-2,1,0,0,0,140,140,19,1,,,,,,,,
,,,,,,,,,,,,,FF,,,,,,,,2.0126,,,,,,,,,,,,,,,,,,,,,,6100b88cc7d099e491ea886c,61036e7faa5097a23a04fad3,2021-07-29_22h14.41.873,Simcolourproject_2stim_asymm_v5,2020.2.10,Win32,60,61025ae37ef11b136ea224fe,,,,,,,,,3220,30,72,1,0,0,response1disk,,7,7,4,1,0,0,rectangle,-27,71,1,0,0,0,-3,1,0,0,0,141,141,105,1,,response7disk_3,TRUE,0,0,"[44,127,217,275,288,31,248,182,236,142,149,297,52,258,43,292,70,264,241,245]",2.1632,rectangle
,,,,,,,,,,,,,FF,,,,,,,,4.3419,,,,,,,,,,,,,,,,,,,,,,6100b88cc7d099e491ea886c,61036e7faa5097a23a04fad3,2021-07-29_22h14.41.873,Simcolourproject_2stim_asymm_v5,2020.2.10,Win32,60,61025ae37ef11b136ea224fe,,,,,,,,,650,34,-60,1,0,0,response3disk,,4,4,-12,1,0,0,rectangle,4,-12,1,0,0,4,-12,1,0,0,0,142,142,149,1,,,,,,,,
,,,,,,,,,,,,,FF,,,,,,,,4.4423,,,,,,,,,,,,,,,,,,,,,,6100b88cc7d099e491ea886c,61036e7faa5097a23a04fad3,2021-07-29_22h14.41.873,Simcolourproject_2stim_asymm_v5,2020.2.10,Win32,60,61025ae37ef11b136ea224fe,,,,,,,,,2799,56,75,1,0,0,response1disk,,7,13,-2,1,0,0,rectangle,13,-2,1,0,0,13,-2,1,0,0,0,143,143,136,1,,,,,,,,
,,,,,,,,,,,,,FF,,,,,,,,2.0789,,,,,,,,,,,,,,,,,,,,,,6100b88cc7d099e491ea886c,61036e7faa5097a23a04fad3,2021-07-29_22h14.41.873,Simcolourproject_2stim_asymm_v5,2020.2.10,Win32,60,61025ae37ef11b136ea224fe,,,,,,,,,1166,42,88,1,0,0,response1disk,,7,13,10,1,0,0,rectangle,13,10,1,0,0,13,10,1,0,0,0,144,144,31,1,,,,,,,,
,,,,,,,,,,,,,FF,,,,,,,,0.9487,,,,,,,,,,,,,,,,,,,,,,6100b88cc7d099e491ea886c,61036e7faa5097a23a04fad3,2021-07-29_22h14.41.873,Simcolourproject_2stim_asymm_v5,2020.2.10,Win32,60,61025ae37ef11b136ea224fe,,,,,,,,,1115,25,40,1,0,0,response1disk,,7,19,1,1,0,0,rectangle,19,1,1,0,0,19,1,1,0,0,0,145,145,14,1,,,,,,,,
,,,,,,,,,,,,,FF,,,,,,,,3.1442,,,,,,,,,,,,,,,,,,,,,,6100b88cc7d099e491ea886c,61036e7faa5097a23a04fad3,2021-07-29_22h14.41.873,Simcolourproject_2stim_asymm_v5,2020.2.10,Win32,60,61025ae37ef11b136ea224fe,,,,,,,,,3569,34,64,1,0,0,response1disk,,7,22,14,1,0,0,rectangle,22,14,1,0,0,22,14,1,0,0,0,146,146,113,1,,,,,,,,
,,,,,,,,,,,,,FF,,,,,,,,0.9309,,,,,,,,,,,,,,,,,,,,,,6100b88cc7d099e491ea886c,61036e7faa5097a23a04fad3,2021-07-29_22h14.41.873,Simcolourproject_2stim_asymm_v5,2020.2.10,Win32,60,61025ae37ef11b136ea224fe,,,,,,,,,3885,38,75,1,0,0,response1disk,,7,16,1,1,0,0,rectangle,16,1,1,0,0,16,1,1,0,0,0,147,147,135,1,,,,,,,,
,,,,,,,,,,,,,FF,,,,,,,,1.2304,,,,,,,,,,,,,,,,,,,,,,6100b88cc7d099e491ea886c,61036e7faa5097a23a04fad3,2021-07-29_22h14.41.873,Simcolourproject_2stim_asymm_v5,2020.2.10,Win32,60,61025ae37ef11b136ea224fe,,,,,,,,,958,30,52,1,0,0,response1disk,,7,16,-6,1,0,0,rectangle,-71,-60,1,0,0,-16,-11,1,0,0,0,148,148,4,1,,response5disk_3,TRUE,2,2,"[44,127,217,275,288,31,248,182,236,142,149,297,52,258,43,292,70,264,241,245]",2.5126,rectangle
,,,,,,,,,,,,,FF,,,,,,,,1.4976,,,,,,,,,,,,,,,,,,,,,,6100b88cc7d099e491ea886c,61036e7faa5097a23a04fad3,2021-07-29_22h14.41.873,Simcolourproject_2stim_asymm_v5,2020.2.10,Win32,60,61025ae37ef11b136ea224fe,,,,,,,,,137,38,54,1,0,0,response1disk,,7,20,6,1,0,0,rectangle,20,6,1,0,0,20,6,1,0,0,0,149,149,151,1,,,,,,,,
,,,,,,,,,,,,,FF,,,,,,,,1.5823,,,,,,,,,,,,,,,,,,,,,,6100b88cc7d099e491ea886c,61036e7faa5097a23a04fad3,2021-07-29_22h14.41.873,Simcolourproject_2stim_asymm_v5,2020.2.10,Win32,60,61025ae37ef11b136ea224fe,,,,,,,,,2672,22,-50,1,0,0,response3disk,,4,1,-9,1,0,0,rectangle,1,-9,1,0,0,1,-9,1,0,0,0,150,150,133,1,,,,,,,,
,,,,,,,,,,,,,FF,,,,,,,,1.1154,,,,,,,,,,,,,,,,,,,,,,6100b88cc7d099e491ea886c,61036e7faa5097a23a04fad3,2021-07-29_22h14.41.873,Simcolourproject_2stim_asymm_v5,2020.2.10,Win32,60,61025ae37ef11b136ea224fe,,,,,,,,,2995,29,-59,1,0,0,response3disk,,4,-13,-1,1,0,0,rectangle,-13,-1,1,0,0,-13,-1,1,0,0,0,151,151,147,1,,,,,,,,
,,,,,,,,,,,,,FF,,,,,,,,1.0819,,,,,,,,,,,,,,,,,,,,,,6100b88cc7d099e491ea886c,61036e7faa5097a23a04fad3,2021-07-29_22h14.41.873,Simcolourproject_2stim_asymm_v5,2020.2.10,Win32,60,61025ae37ef11b136ea224fe,,,,,,,,,2279,41,57,1,0,0,response1disk,,7,13,-2,1,0,0,rectangle,13,-2,1,0,0,13,-2,1,0,0,0,152,152,51,1,,,,,,,,
,,,,,,,,,,,,,FF,,,,,,,,1.7474,,,,,,,,,,,,,,,,,,,,,,6100b88cc7d099e491ea886c,61036e7faa5097a23a04fad3,2021-07-29_22h14.41.873,Simcolourproject_2stim_asymm_v5,2020.2.10,Win32,60,61025ae37ef11b136ea224fe,,,,,,,,,1001,27,80,1,0,0,response1disk,,7,19,-2,1,0,0,rectangle,19,-2,1,0,0,19,-2,1,0,0,0,153,153,94,1,,,,,,,,
,,,,,,,,,,,,,FF,,,,,,,,1.7971,,,,,,,,,,,,,,,,,,,,,,6100b88cc7d099e491ea886c,61036e7faa5097a23a04fad3,2021-07-29_22h14.41.873,Simcolourproject_2stim_asymm_v5,2020.2.10,Win32,60,61025ae37ef11b136ea224fe,,,,,,,,,230,21,52,1,0,0,response1disk,,7,17,-3,1,0,0,rectangle,17,-3,1,0,0,17,-3,1,0,0,0,154,154,52,1,,,,,,,,
,,,,,,,,,,,,,FF,,,,,,,,1.8638,,,,,,,,,,,,,,,,,,,,,,6100b88cc7d099e491ea886c,61036e7faa5097a23a04fad3,2021-07-29_22h14.41.873,Simcolourproject_2stim_asymm_v5,2020.2.10,Win32,60,61025ae37ef11b136ea224fe,,,,,,,,,2169,-36,-66,1,0,0,response5disk,,3,24,9,1,0,0,rectangle,24,9,1,0,0,24,9,1,0,0,0,155,155,91,1,,,,,,,,
,,,,,,,,,,,,,FF,,,,,,,,1.8635,,,,,,,,,,,,,,,,,,,,,,6100b88cc7d099e491ea886c,61036e7faa5097a23a04fad3,2021-07-29_22h14.41.873,Simcolourproject_2stim_asymm_v5,2020.2.10,Win32,60,61025ae37ef11b136ea224fe,,,,,,,,,2636,24,56,1,0,0,response1disk,,7,3,7,1,0,0,rectangle,3,7,1,0,0,3,7,1,0,0,0,156,156,59,1,,,,,,,,
,,,,,,,,,,,,,FF,,,,,,,,1.7131,,,,,,,,,,,,,,,,,,,,,,6100b88cc7d099e491ea886c,61036e7faa5097a23a04fad3,2021-07-29_22h14.41.873,Simcolourproject_2stim_asymm_v5,2020.2.10,Win32,60,61025ae37ef11b136ea224fe,,,,,,,,,676,22,40,1,0,0,response1disk,,7,9,6,1,0,0,rectangle,9,6,1,0,0,9,6,1,0,0,0,157,157,20,1,,,,,,,,
,,,,,,,,,,,,,FF,,,,,,,,0.8815,,,,,,,,,,,,,,,,,,,,,,6100b88cc7d099e491ea886c,61036e7faa5097a23a04fad3,2021-07-29_22h14.41.873,Simcolourproject_2stim_asymm_v5,2020.2.10,Win32,60,61025ae37ef11b136ea224fe,,,,,,,,,1210,26,40,1,0,0,response1disk,,7,11,4,1,0,0,rectangle,11,4,1,0,0,11,4,1,0,0,0,158,158,6,1,,,,,,,,
,,,,,,,,,,,,,FF,,,,,,,,1.7803,,,,,,,,,,,,,,,,,,,,,,6100b88cc7d099e491ea886c,61036e7faa5097a23a04fad3,2021-07-29_22h14.41.873,Simcolourproject_2stim_asymm_v5,2020.2.10,Win32,60,61025ae37ef11b136ea224fe,,,,,,,,,756,29,46,1,0,0,response1disk,,7,7,-1,1,0,0,rectangle,7,-1,1,0,0,7,-1,1,0,0,0,159,159,23,1,,,,,,,,
,,,,,,,,,,,,,FF,,,,,,,,3.7929,,,,,,,,,,,,,,,,,,,,,,6100b88cc7d099e491ea886c,61036e7faa5097a23a04fad3,2021-07-29_22h14.41.873,Simcolourproject_2stim_asymm_v5,2020.2.10,Win32,60,61025ae37ef11b136ea224fe,,,,,,,,,4240,45,69,1,0,0,response1disk,,7,11,-12,1,0,0,rectangle,11,-12,1,0,0,11,-12,1,0,0,1,0,160,70,1,,,,,,,,
,,,,,,,,,,,,,FF,,,,,,,,1.5807,,,,,,,,,,,,,,,,,,,,,,6100b88cc7d099e491ea886c,61036e7faa5097a23a04fad3,2021-07-29_22h14.41.873,Simcolourproject_2stim_asymm_v5,2020.2.10,Win32,60,61025ae37ef11b136ea224fe,,,,,,,,,3910,-38,-15,1,0,0,response5disk,,2,-23,-11,1,0,0,rectangle,-23,-11,1,0,0,-23,-11,1,0,0,1,1,161,52,1,,,,,,,,
,,,,,,,,,,,,,FF,,,,,,,,1.0147,,,,,,,,,,,,,,,,,,,,,,6100b88cc7d099e491ea886c,61036e7faa5097a23a04fad3,2021-07-29_22h14.41.873,Simcolourproject_2stim_asymm_v5,2020.2.10,Win32,60,61025ae37ef11b136ea224fe,,,,,,,,,3300,19,34,1,0,0,response1disk,,7,11,10,1,0,0,rectangle,11,10,1,0,0,11,10,1,0,0,1,2,162,80,1,,,,,,,,
,,,,,,,,,,,,,FF,,,,,,,,1.2972,,,,,,,,,,,,,,,,,,,,,,6100b88cc7d099e491ea886c,61036e7faa5097a23a04fad3,2021-07-29_22h14.41.873,Simcolourproject_2stim_asymm_v5,2020.2.10,Win32,60,61025ae37ef11b136ea224fe,,,,,,,,,1715,35,60,1,0,0,response1disk,,7,24,0,1,0,0,rectangle,24,0,1,0,0,24,0,1,0,0,1,3,163,132,1,,,,,,,,
,,,,,,,,,,,,,FF,,,,,,,,0.7815,,,,,,,,,,,,,,,,,,,,,,6100b88cc7d099e491ea886c,61036e7faa5097a23a04fad3,2021-07-29_22h14.41.873,Simcolourproject_2stim_asymm_v5,2020.2.10,Win32,60,61025ae37ef11b136ea224fe,,,,,,,,,601,27,35,1,0,0,response1disk,,7,18,1,1,0,0,rectangle,18,1,1,0,0,18,1,1,0,0,1,4,164,122,1,,,,,,,,
,,,,,,,,,,,,,FF,,,,,,,,4.8086,,,,,,,,,,,,,,,,,,,,,,6100b88cc7d099e491ea886c,61036e7faa5097a23a04fad3,2021-07-29_22h14.41.873,Simcolourproject_2stim_asymm_v5,2020.2.10,Win32,60,61025ae37ef11b136ea224fe,,,,,,,,,4033,44,34,1,0,0,response1disk,,6,3,-7,1,0,0,rectangle,3,-7,1,0,0,3,-7,1,0,0,1,5,165,154,1,,,,,,,,
,,,,,,,,,,,,,FF,,,,,,,,1.564,,,,,,,,,,,,,,,,,,,,,,6100b88cc7d099e491ea886c,61036e7faa5097a23a04fad3,2021-07-29_22h14.41.873,Simcolourproject_2stim_asymm_v5,2020.2.10,Win32,60,61025ae37ef11b136ea224fe,,,,,,,,,3958,39,27,1,0,0,response1disk,,6,31,9,1,0,0,rectangle,31,9,1,0,0,31,9,1,0,0,1,6,166,9,1,,,,,,,,
,,,,,,,,,,,,,FF,,,,,,,,2.2461,,,,,,,,,,,,,,,,,,,,,,6100b88cc7d099e491ea886c,61036e7faa5097a23a04fad3,2021-07-29_22h14.41.873,Simcolourproject_2stim_asymm_v5,2020.2.10,Win32,60,61025ae37ef11b136ea224fe,,,,,,,,,3199,27,-79,1,0,0,response3disk,,4,4,-1,1,0,0,rectangle,4,-1,1,0,0,4,-1,1,0,0,1,7,167,6,1,,,,,,,,
,,,,,,,,,,,,,FF,,,,,,,,0.8986,,,,,,,,,,,,,,,,,,,,,,6100b88cc7d099e491ea886c,61036e7faa5097a23a04fad3,2021-07-29_22h14.41.873,Simcolourproject_2stim_asymm_v5,2020.2.10,Win32,60,61025ae37ef11b136ea224fe,,,,,,,,,4131,49,73,1,0,0,response1disk,,7,-12,4,1,0,0,rectangle,-12,4,1,0,0,-12,4,1,0,0,1,8,168,115,1,,,,,,,,
,,,,,,,,,,,,,FF,,,,,,,,1.2985,,,,,,,,,,,,,,,,,,,,,,6100b88cc7d099e491ea886c,61036e7faa5097a23a04fad3,2021-07-29_22h14.41.873,Simcolourproject_2stim_asymm_v5,2020.2.10,Win32,60,61025ae37ef11b136ea224fe,,,,,,,,,2761,57,17,1,0,0,response1disk,,6,14,-5,1,0,0,rectangle,14,-5,1,0,0,14,-5,1,0,0,1,9,169,95,1,,,,,,,,
,,,,,,,,,,,,,FF,,,,,,,,0.8984,,,,,,,,,,,,,,,,,,,,,,6100b88cc7d099e491ea886c,61036e7faa5097a23a04fad3,2021-07-29_22h14.41.873,Simcolourproject_2stim_asymm_v5,2020.2.10,Win32,60,61025ae37ef11b136ea224fe,,,,,,,,,2903,44,46,1,0,0,response1disk,,7,24,9,1,0,0,rectangle,24,9,1,0,0,24,9,1,0,0,1,10,170,107,1,,,,,,,,
,,,,,,,,,,,,,FF,,,,,,,,2.0959,,,,,,,,,,,,,,,,,,,,,,6100b88cc7d099e491ea886c,61036e7faa5097a23a04fad3,2021-07-29_22h14.41.873,Simcolourproject_2stim_asymm_v5,2020.2.10,Win32,60,61025ae37ef11b136ea224fe,,,,,,,,,533,79,23,1,0,0,response1disk,,6,2,-6,1,0,0,rectangle,2,-6,1,0,0,2,-6,1,0,0,1,11,171,42,1,,,,,,,,
,,,,,,,,,,,,,FF,,,,,,,,3.1122,,,,,,,,,,,,,,,,,,,,,,6100b88cc7d099e491ea886c,61036e7faa5097a23a04fad3,2021-07-29_22h14.41.873,Simcolourproject_2stim_asymm_v5,2020.2.10,Win32,60,61025ae37ef11b136ea224fe,,,,,,,,,2103,-31,-84,1,0,0,response5disk,,3,10,0,1,0,0,rectangle,10,0,1,0,0,10,0,1,0,0,1,12,172,130,1,,,,,,,,
,,,,,,,,,,,,,FF,,,,,,,,1.7294,,,,,,,,,,,,,,,,,,,,,,6100b88cc7d099e491ea886c,61036e7faa5097a23a04fad3,2021-07-29_22h14.41.873,Simcolourproject_2stim_asymm_v5,2020.2.10,Win32,60,61025ae37ef11b136ea224fe,,,,,,,,,721,-37,-82,1,0,0,response5disk,,3,-3,0,1,0,0,rectangle,-3,0,1,0,0,-3,0,1,0,0,1,13,173,4,1,,,,,,,,
,,,,,,,,,,,,,FF,,,,,,,,1.9973,,,,,,,,,,,,,,,,,,,,,,6100b88cc7d099e491ea886c,61036e7faa5097a23a04fad3,2021-07-29_22h14.41.873,Simcolourproject_2stim_asymm_v5,2020.2.10,Win32,60,61025ae37ef11b136ea224fe,,,,,,,,,973,-34,-46,1,0,0,response5disk,,3,-1,-2,1,0,0,rectangle,-1,-2,1,0,0,-1,-2,1,0,0,1,14,174,51,1,,,,,,,,
,,,,,,,,,,,,,FF,,,,,,,,1.7148,,,,,,,,,,,,,,,,,,,,,,6100b88cc7d099e491ea886c,61036e7faa5097a23a04fad3,2021-07-29_22h14.41.873,Simcolourproject_2stim_asymm_v5,2020.2.10,Win32,60,61025ae37ef11b136ea224fe,,,,,,,,,752,55,87,1,0,0,response1disk,,7,12,2,1,0,0,rectangle,12,2,1,0,0,12,2,1,0,0,1,15,175,21,1,,,,,,,,
,,,,,,,,,,,,,FF,,,,,,,,5.4748,,,,,,,,,,,,,,,,,,,,,,6100b88cc7d099e491ea886c,61036e7faa5097a23a04fad3,2021-07-29_22h14.41.873,Simcolourproject_2stim_asymm_v5,2020.2.10,Win32,60,61025ae37ef11b136ea224fe,,,,,,,,,3890,112,43,1,0,0,response1disk,,6,27,0,1,0,0,rectangle,27,0,1,0,0,27,0,1,0,0,1,16,176,18,1,,,,,,,,
,,,,,,,,,,,,,FF,,,,,,,,1.1323,,,,,,,,,,,,,,,,,,,,,,6100b88cc7d099e491ea886c,61036e7faa5097a23a04fad3,2021-07-29_22h14.41.873,Simcolourproject_2stim_asymm_v5,2020.2.10,Win32,60,61025ae37ef11b136ea224fe,,,,,,,,,2338,37,75,1,0,0,response1disk,,7,-7,-10,1,0,0,rectangle,-7,-10,1,0,0,-7,-10,1,0,0,1,17,177,151,1,,,,,,,,
,,,,,,,,,,,,,FF,,,,,,,,9.4506,,,,,,,,,,,,,,,,,,,,,,6100b88cc7d099e491ea886c,61036e7faa5097a23a04fad3,2021-07-29_22h14.41.873,Simcolourproject_2stim_asymm_v5,2020.2.10,Win32,60,61025ae37ef11b136ea224fe,,,,,,,,,332,42,77,1,0,0,response1disk,,7,12,-10,1,0,0,rectangle,12,-10,1,0,0,12,-10,1,0,0,1,18,178,88,1,,,,,,,,
,,,,,,,,,,,,,FF,,,,,,,,0.8485,,,,,,,,,,,,,,,,,,,,,,6100b88cc7d099e491ea886c,61036e7faa5097a23a04fad3,2021-07-29_22h14.41.873,Simcolourproject_2stim_asymm_v5,2020.2.10,Win32,60,61025ae37ef11b136ea224fe,,,,,,,,,1111,33,56,1,0,0,response1disk,,7,14,-6,1,0,0,rectangle,14,-6,1,0,0,14,-6,1,0,0,1,19,179,89,1,,,,,,,,
,,,,,,,,,,,,,FF,,,,,,,,1.281,,,,,,,,,,,,,,,,,,,,,,6100b88cc7d099e491ea886c,61036e7faa5097a23a04fad3,2021-07-29_22h14.41.873,Simcolourproject_2stim_asymm_v5,2020.2.10,Win32,60,61025ae37ef11b136ea224fe,,,,,,,,,3811,-34,-59,1,0,0,response5disk,,3,3,8,1,0,0,rectangle,3,8,1,0,0,3,8,1,0,0,1,20,180,47,1,,,,,,,,
,,,,,,,,,,,,,FF,,,,,,,,1.9131,,,,,,,,,,,,,,,,,,,,,,6100b88cc7d099e491ea886c,61036e7faa5097a23a04fad3,2021-07-29_22h14.41.873,Simcolourproject_2stim_asymm_v5,2020.2.10,Win32,60,61025ae37ef11b136ea224fe,,,,,,,,,1822,-66,38,1,0,0,response7disk,,1,0,-2,1,0,0,rectangle,-67,-41,1,0,0,22,0,1,0,0,1,21,181,67,1,,response5disk_3,TRUE,2,2,"[44,127,217,275,288,31,248,182,236,142,149,297,52,258,43,292,70,264,241,245]",2.4794,rectangle
,,,,,,,,,,,,,FF,,,,,,,,1.4651,,,,,,,,,,,,,,,,,,,,,,6100b88cc7d099e491ea886c,61036e7faa5097a23a04fad3,2021-07-29_22h14.41.873,Simcolourproject_2stim_asymm_v5,2020.2.10,Win32,60,61025ae37ef11b136ea224fe,,,,,,,,,4104,-26,-32,1,0,0,response5disk,,3,-3,5,1,0,0,rectangle,-3,5,1,0,0,-3,5,1,0,0,1,22,182,64,1,,,,,,,,
,,,,,,,,,,,,,FF,,,,,,,,2.463,,,,,,,,,,,,,,,,,,,,,,6100b88cc7d099e491ea886c,61036e7faa5097a23a04fad3,2021-07-29_22h14.41.873,Simcolourproject_2stim_asymm_v5,2020.2.10,Win32,60,61025ae37ef11b136ea224fe,,,,,,,,,4008,73,59,1,0,0,response1disk,,6,20,-2,1,0,0,rectangle,20,-2,1,0,0,20,-2,1,0,0,1,23,183,17,1,,,,,,,,
,,,,,,,,,,,,,FF,,,,,,,,1.0477,,,,,,,,,,,,,,,,,,,,,,6100b88cc7d099e491ea886c,61036e7faa5097a23a04fad3,2021-07-29_22h14.41.873,Simcolourproject_2stim_asymm_v5,2020.2.10,Win32,60,61025ae37ef11b136ea224fe,,,,,,,,,83,27,54,1,0,0,response1disk,,7,21,1,1,0,0,rectangle,21,1,1,0,0,21,1,1,0,0,1,24,184,3,1,,,,,,,,
,,,,,,,,,,,,,FF,,,,,,,,0.8647,,,,,,,,,,,,,,,,,,,,,,6100b88cc7d099e491ea886c,61036e7faa5097a23a04fad3,2021-07-29_22h14.41.873,Simcolourproject_2stim_asymm_v5,2020.2.10,Win32,60,61025ae37ef11b136ea224fe,,,,,,,,,1021,26,44,1,0,0,response1disk,,7,24,7,1,0,0,rectangle,24,7,1,0,0,24,7,1,0,0,1,25,185,25,1,,,,,,,,
,,,,,,,,,,,,,FF,,,,,,,,1.4637,,,,,,,,,,,,,,,,,,,,,,6100b88cc7d099e491ea886c,61036e7faa5097a23a04fad3,2021-07-29_22h14.41.873,Simcolourproject_2stim_asymm_v5,2020.2.10,Win32,60,61025ae37ef11b136ea224fe,,,,,,,,,2302,36,-69,1,0,0,response3disk,,4,-8,-9,1,0,0,rectangle,-8,-9,1,0,0,-8,-9,1,0,0,1,26,186,10,1,,,,,,,,
,,,,,,,,,,,,,FF,,,,,,,,1.9474,,,,,,,,,,,,,,,,,,,,,,6100b88cc7d099e491ea886c,61036e7faa5097a23a04fad3,2021-07-29_22h14.41.873,Simcolourproject_2stim_asymm_v5,2020.2.10,Win32,60,61025ae37ef11b136ea224fe,,,,,,,,,1558,56,22,1,0,0,response1disk,,6,28,4,1,0,0,rectangle,28,4,1,0,0,28,4,1,0,0,1,27,187,131,1,,,,,,,,
,,,,,,,,,,,,,FF,,,,,,,,1.8967,,,,,,,,,,,,,,,,,,,,,,6100b88cc7d099e491ea886c,61036e7faa5097a23a04fad3,2021-07-29_22h14.41.873,Simcolourproject_2stim_asymm_v5,2020.2.10,Win32,60,61025ae37ef11b136ea224fe,,,,,,,,,2340,26,58,1,0,0,response1disk,,7,11,1,1,0,0,rectangle,11,1,1,0,0,11,1,1,0,0,1,28,188,103,1,,,,,,,,
,,,,,,,,,,,,,FF,,,,,,,,0.9817,,,,,,,,,,,,,,,,,,,,,,6100b88cc7d099e491ea886c,61036e7faa5097a23a04fad3,2021-07-29_22h14.41.873,Simcolourproject_2stim_asymm_v5,2020.2.10,Win32,60,61025ae37ef11b136ea224fe,,,,,,,,,2215,51,64,1,0,0,response1disk,,7,22,-8,1,0,0,rectangle,22,-8,1,0,0,22,-8,1,0,0,1,29,189,74,1,,,,,,,,
,,,,,,,,,,,,,FF,,,,,,,,0.898,,,,,,,,,,,,,,,,,,,,,,6100b88cc7d099e491ea886c,61036e7faa5097a23a04fad3,2021-07-29_22h14.41.873,Simcolourproject_2stim_asymm_v5,2020.2.10,Win32,60,61025ae37ef11b136ea224fe,,,,,,,,,1716,27,50,1,0,0,response1disk,,7,-3,-3,1,0,0,rectangle,-3,-3,1,0,0,-3,-3,1,0,0,1,30,190,145,1,,,,,,,,
,,,,,,,,,,,,,FF,,,,,,,,3.3619,,,,,,,,,,,,,,,,,,,,,,6100b88cc7d099e491ea886c,61036e7faa5097a23a04fad3,2021-07-29_22h14.41.873,Simcolourproject_2stim_asymm_v5,2020.2.10,Win32,60,61025ae37ef11b136ea224fe,,,,,,,,,4365,-16,49,1,0,0,response7disk,,0,6,3,1,0,0,rectangle,6,3,1,0,0,6,3,1,0,0,1,31,191,155,1,,,,,,,,
,,,,,,,,,,,,,FF,,,,,,,,3.1118,,,,,,,,,,,,,,,,,,,,,,6100b88cc7d099e491ea886c,61036e7faa5097a23a04fad3,2021-07-29_22h14.41.873,Simcolourproject_2stim_asymm_v5,2020.2.10,Win32,60,61025ae37ef11b136ea224fe,,,,,,,,,3935,16,-80,1,0,0,response3disk,,4,-8,3,1,0,0,rectangle,-8,3,1,0,0,-8,3,1,0,0,1,32,192,71,1,,,,,,,,
,,,,,,,,,,,,,FF,,,,,,,,1.5133,,,,,,,,,,,,,,,,,,,,,,6100b88cc7d099e491ea886c,61036e7faa5097a23a04fad3,2021-07-29_22h14.41.873,Simcolourproject_2stim_asymm_v5,2020.2.10,Win32,60,61025ae37ef11b136ea224fe,,,,,,,,,2775,-20,-105,1,0,0,response5disk,,3,19,10,1,0,0,rectangle,19,10,1,0,0,19,10,1,0,0,1,33,193,50,1,,,,,,,,
,,,,,,,,,,,,,FF,,,,,,,,2.5947,,,,,,,,,,,,,,,,,,,,,,6100b88cc7d099e491ea886c,61036e7faa5097a23a04fad3,2021-07-29_22h14.41.873,Simcolourproject_2stim_asymm_v5,2020.2.10,Win32,60,61025ae37ef11b136ea224fe,,,,,,,,,3008,-49,-101,1,0,0,response5disk,,3,-6,-14,1,0,0,rectangle,-6,-14,1,0,0,-6,-14,1,0,0,1,34,194,156,1,,,,,,,,
,,,,,,,,,,,,,FF,,,,,,,,4.2431,,,,,,,,,,,,,,,,,,,,,,6100b88cc7d099e491ea886c,61036e7faa5097a23a04fad3,2021-07-29_22h14.41.873,Simcolourproject_2stim_asymm_v5,2020.2.10,Win32,60,61025ae37ef11b136ea224fe,,,,,,,,,734,70,-31,1,0,0,response3disk,,5,5,-3,1,0,0,rectangle,5,-3,1,0,0,5,-3,1,0,0,1,35,195,24,1,,,,,,,,
,,,,,,,,,,,,,FF,,,,,,,,0.8146,,,,,,,,,,,,,,,,,,,,,,6100b88cc7d099e491ea886c,61036e7faa5097a23a04fad3,2021-07-29_22h14.41.873,Simcolourproject_2stim_asymm_v5,2020.2.10,Win32,60,61025ae37ef11b136ea224fe,,,,,,,,,1309,47,-22,1,0,0,response3disk,,5,12,-10,1,0,0,rectangle,12,-10,1,0,0,12,-10,1,0,0,1,36,196,138,1,,,,,,,,
,,,,,,,,,,,,,FF,,,,,,,,0.8824,,,,,,,,,,,,,,,,,,,,,,6100b88cc7d099e491ea886c,61036e7faa5097a23a04fad3,2021-07-29_22h14.41.873,Simcolourproject_2stim_asymm_v5,2020.2.10,Win32,60,61025ae37ef11b136ea224fe,,,,,,,,,1106,36,54,1,0,0,response1disk,,7,3,-1,1,0,0,rectangle,3,-1,1,0,0,3,-1,1,0,0,1,37,197,63,1,,,,,,,,
,,,,,,,,,,,,,FF,,,,,,,,1.3806,,,,,,,,,,,,,,,,,,,,,,6100b88cc7d099e491ea886c,61036e7faa5097a23a04fad3,2021-07-29_22h14.41.873,Simcolourproject_2stim_asymm_v5,2020.2.10,Win32,60,61025ae37ef11b136ea224fe,,,,,,,,,25,53,83,1,0,0,response1disk,,7,11,15,1,0,0,rectangle,11,15,1,0,0,11,15,1,0,0,1,38,198,85,1,,,,,,,,
,,,,,,,,,,,,,FF,,,,,,,,0.7154,,,,,,,,,,,,,,,,,,,,,,6100b88cc7d099e491ea886c,61036e7faa5097a23a04fad3,2021-07-29_22h14.41.873,Simcolourproject_2stim_asymm_v5,2020.2.10,Win32,60,61025ae37ef11b136ea224fe,,,,,,,,,4274,43,67,1,0,0,response1disk,,7,12,10,1,0,0,rectangle,12,10,1,0,0,12,10,1,0,0,1,39,199,62,1,,,,,,,,
,,,,,,,,,,,,,FF,,,,,,,,0.8653,,,,,,,,,,,,,,,,,,,,,,6100b88cc7d099e491ea886c,61036e7faa5097a23a04fad3,2021-07-29_22h14.41.873,Simcolourproject_2stim_asymm_v5,2020.2.10,Win32,60,61025ae37ef11b136ea224fe,,,,,,,,,151,31,57,1,0,0,response1disk,,7,5,1,1,0,0,rectangle,5,1,1,0,0,5,1,1,0,0,1,40,200,16,1,,,,,,,,
,,,,,,,,,,,,,FF,,,,,,,,0.7813,,,,,,,,,,,,,,,,,,,,,,6100b88cc7d099e491ea886c,61036e7faa5097a23a04fad3,2021-07-29_22h14.41.873,Simcolourproject_2stim_asymm_v5,2020.2.10,Win32,60,61025ae37ef11b136ea224fe,,,,,,,,,1431,50,90,1,0,0,response1disk,,7,-14,4,1,0,0,rectangle,-14,4,1,0,0,-14,4,1,0,0,1,41,201,112,1,,,,,,,,
,,,,,,,,,,,,,FF,,,,,,,,1.3138,,,,,,,,,,,,,,,,,,,,,,6100b88cc7d099e491ea886c,61036e7faa5097a23a04fad3,2021-07-29_22h14.41.873,Simcolourproject_2stim_asymm_v5,2020.2.10,Win32,60,61025ae37ef11b136ea224fe,,,,,,,,,3709,-39,-56,1,0,0,response5disk,,3,0,-1,1,0,0,rectangle,0,-1,1,0,0,0,-1,1,0,0,1,42,202,32,1,,,,,,,,
,,,,,,,,,,,,,FF,,,,,,,,0.848,,,,,,,,,,,,,,,,,,,,,,6100b88cc7d099e491ea886c,61036e7faa5097a23a04fad3,2021-07-29_22h14.41.873,Simcolourproject_2stim_asymm_v5,2020.2.10,Win32,60,61025ae37ef11b136ea224fe,,,,,,,,,1580,57,88,1,0,0,response1disk,,7,17,-2,1,0,0,rectangle,17,-2,1,0,0,17,-2,1,0,0,1,43,203,0,1,,,,,,,,
,,,,,,,,,,,,,FF,,,,,,,,3.8436,,,,,,,,,,,,,,,,,,,,,,6100b88cc7d099e491ea886c,61036e7faa5097a23a04fad3,2021-07-29_22h14.41.873,Simcolourproject_2stim_asymm_v5,2020.2.10,Win32,60,61025ae37ef11b136ea224fe,,,,,,,,,2996,33,-81,1,0,0,response3disk,,4,-9,-7,1,0,0,rectangle,-9,-7,1,0,0,-9,-7,1,0,0,1,44,204,102,1,,,,,,,,
,,,,,,,,,,,,,FF,,,,,,,,7.2719,,,,,,,,,,,,,,,,,,,,,,6100b88cc7d099e491ea886c,61036e7faa5097a23a04fad3,2021-07-29_22h14.41.873,Simcolourproject_2stim_asymm_v5,2020.2.10,Win32,60,61025ae37ef11b136ea224fe,,,,,,,,,923,65,74,1,0,0,response1disk,,7,7,-5,1,0,0,rectangle,7,-5,1,0,0,7,-5,1,0,0,1,45,205,53,1,,,,,,,,
,,,,,,,,,,,,,FF,,,,,,,,1.1648,,,,,,,,,,,,,,,,,,,,,,6100b88cc7d099e491ea886c,61036e7faa5097a23a04fad3,2021-07-29_22h14.41.873,Simcolourproject_2stim_asymm_v5,2020.2.10,Win32,60,61025ae37ef11b136ea224fe,,,,,,,,,3402,-21,-48,1,0,0,response5disk,,3,-4,-6,1,0,0,rectangle,-4,-6,1,0,0,-4,-6,1,0,0,1,46,206,60,1,,,,,,,,
,,,,,,,,,,,,,FF,,,,,,,,2.0794,,,,,,,,,,,,,,,,,,,,,,6100b88cc7d099e491ea886c,61036e7faa5097a23a04fad3,2021-07-29_22h14.41.873,Simcolourproject_2stim_asymm_v5,2020.2.10,Win32,60,61025ae37ef11b136ea224fe,,,,,,,,,931,38,48,1,0,0,response1disk,,7,15,11,1,0,0,rectangle,15,11,1,0,0,15,11,1,0,0,1,47,207,49,1,,,,,,,,
,,,,,,,,,,,,,FF,,,,,,,,0.7818,,,,,,,,,,,,,,,,,,,,,,6100b88cc7d099e491ea886c,61036e7faa5097a23a04fad3,2021-07-29_22h14.41.873,Simcolourproject_2stim_asymm_v5,2020.2.10,Win32,60,61025ae37ef11b136ea224fe,,,,,,,,,2845,32,56,1,0,0,response1disk,,7,7,4,1,0,0,rectangle,7,4,1,0,0,7,4,1,0,0,1,48,208,101,1,,,,,,,,
,,,,,,,,,,,,,FF,,,,,,,,1.4811,,,,,,,,,,,,,,,,,,,,,,6100b88cc7d099e491ea886c,61036e7faa5097a23a04fad3,2021-07-29_22h14.41.873,Simcolourproject_2stim_asymm_v5,2020.2.10,Win32,60,61025ae37ef11b136ea224fe,,,,,,,,,3196,-56,-41,1,0,0,response5disk,,2,-3,-3,1,0,0,rectangle,-3,-3,1,0,0,-3,-3,1,0,0,1,49,209,19,1,,,,,,,,
,,,,,,,,,,,,,FF,,,,,,,,1.1974,,,,,,,,,,,,,,,,,,,,,,6100b88cc7d099e491ea886c,61036e7faa5097a23a04fad3,2021-07-29_22h14.41.873,Simcolourproject_2stim_asymm_v5,2020.2.10,Win32,60,61025ae37ef11b136ea224fe,,,,,,,,,739,31,48,1,0,0,response1disk,,7,1,-6,1,0,0,rectangle,1,-6,1,0,0,1,-6,1,0,0,1,50,210,116,1,,,,,,,,
,,,,,,,,,,,,,FF,,,,,,,,3.8437,,,,,,,,,,,,,,,,,,,,,,6100b88cc7d099e491ea886c,61036e7faa5097a23a04fad3,2021-07-29_22h14.41.873,Simcolourproject_2stim_asymm_v5,2020.2.10,Win32,60,61025ae37ef11b136ea224fe,,,,,,,,,1994,46,17,1,0,0,response1disk,,6,8,4,1,0,0,rectangle,8,4,1,0,0,8,4,1,0,0,1,51,211,29,1,,,,,,,,
,,,,,,,,,,,,,FF,,,,,,,,4.2263,,,,,,,,,,,,,,,,,,,,,,6100b88cc7d099e491ea886c,61036e7faa5097a23a04fad3,2021-07-29_22h14.41.873,Simcolourproject_2stim_asymm_v5,2020.2.10,Win32,60,61025ae37ef11b136ea224fe,,,,,,,,,569,57,16,1,0,0,response1disk,,6,8,-2,1,0,0,rectangle,8,-2,1,0,0,8,-2,1,0,0,1,52,212,2,1,,,,,,,,
,,,,,,,,,,,,,FF,,,,,,,,2.0809,,,,,,,,,,,,,,,,,,,,,,6100b88cc7d099e491ea886c,61036e7faa5097a23a04fad3,2021-07-29_22h14.41.873,Simcolourproject_2stim_asymm_v5,2020.2.10,Win32,60,61025ae37ef11b136ea224fe,,,,,,,,,2949,45,-29,1,0,0,response3disk,,5,0,10,1,0,0,rectangle,0,10,1,0,0,0,10,1,0,0,1,53,213,37,1,,,,,,,,
,,,,,,,,,,,,,FF,,,,,,,,2.0291,,,,,,,,,,,,,,,,,,,,,,6100b88cc7d099e491ea886c,61036e7faa5097a23a04fad3,2021-07-29_22h14.41.873,Simcolourproject_2stim_asymm_v5,2020.2.10,Win32,60,61025ae37ef11b136ea224fe,,,,,,,,,3514,78,-47,1,0,0,response3disk,,5,20,-1,1,0,0,rectangle,20,-1,1,0,0,20,-1,1,0,0,1,54,214,139,1,,,,,,,,
,,,,,,,,,,,,,FF,,,,,,,,1.4804,,,,,,,,,,,,,,,,,,,,,,6100b88cc7d099e491ea886c,61036e7faa5097a23a04fad3,2021-07-29_22h14.41.873,Simcolourproject_2stim_asymm_v5,2020.2.10,Win32,60,61025ae37ef11b136ea224fe,,,,,,,,,2327,46,55,1,0,0,response1disk,,7,5,-4,1,0,0,rectangle,5,-4,1,0,0,5,-4,1,0,0,1,55,215,59,1,,,,,,,,
,,,,,,,,,,,,,FF,,,,,,,,0.766,,,,,,,,,,,,,,,,,,,,,,6100b88cc7d099e491ea886c,61036e7faa5097a23a04fad3,2021-07-29_22h14.41.873,Simcolourproject_2stim_asymm_v5,2020.2.10,Win32,60,61025ae37ef11b136ea224fe,,,,,,,,,1982,31,58,1,0,0,response1disk,,7,6,5,1,0,0,rectangle,64,85,1,0,0,12,-1,1,0,0,1,56,216,23,1,,response1disk_3,TRUE,7,7,"[44,127,217,275,288,31,248,182,236,142,149,297,52,258,43,292,70,264,241,245]",1.9131,rectangle
,,,,,,,,,,,,,FF,,,,,,,,1.1322,,,,,,,,,,,,,,,,,,,,,,6100b88cc7d099e491ea886c,61036e7faa5097a23a04fad3,2021-07-29_22h14.41.873,Simcolourproject_2stim_asymm_v5,2020.2.10,Win32,60,61025ae37ef11b136ea224fe,,,,,,,,,2264,21,38,1,0,0,response1disk,,7,7,8,1,0,0,rectangle,7,8,1,0,0,7,8,1,0,0,1,57,217,30,1,,,,,,,,
,,,,,,,,,,,,,FF,,,,,,,,3.7107,,,,,,,,,,,,,,,,,,,,,,6100b88cc7d099e491ea886c,61036e7faa5097a23a04fad3,2021-07-29_22h14.41.873,Simcolourproject_2stim_asymm_v5,2020.2.10,Win32,60,61025ae37ef11b136ea224fe,,,,,,,,,1778,33,108,1,0,0,response1disk,,7,-3,-3,1,0,0,rectangle,-3,-3,1,0,0,-3,-3,1,0,0,1,58,218,68,1,,,,,,,,
,,,,,,,,,,,,,FF,,,,,,,,1.1149,,,,,,,,,,,,,,,,,,,,,,6100b88cc7d099e491ea886c,61036e7faa5097a23a04fad3,2021-07-29_22h14.41.873,Simcolourproject_2stim_asymm_v5,2020.2.10,Win32,60,61025ae37ef11b136ea224fe,,,,,,,,,2754,34,51,1,0,0,response1disk,,7,14,6,1,0,0,rectangle,14,6,1,0,0,14,6,1,0,0,1,59,219,20,1,,,,,,,,
,,,,,,,,,,,,,FF,,,,,,,,2.5948,,,,,,,,,,,,,,,,,,,,,,6100b88cc7d099e491ea886c,61036e7faa5097a23a04fad3,2021-07-29_22h14.41.873,Simcolourproject_2stim_asymm_v5,2020.2.10,Win32,60,61025ae37ef11b136ea224fe,,,,,,,,,326,31,53,1,0,0,response1disk,,7,9,6,1,0,0,rectangle,9,6,1,0,0,9,6,1,0,0,1,60,220,111,1,,,,,,,,
,,,,,,,,,,,,,FF,,,,,,,,1.8136,,,,,,,,,,,,,,,,,,,,,,6100b88cc7d099e491ea886c,61036e7faa5097a23a04fad3,2021-07-29_22h14.41.873,Simcolourproject_2stim_asymm_v5,2020.2.10,Win32,60,61025ae37ef11b136ea224fe,,,,,,,,,1219,20,-77,1,0,0,response3disk,,4,-2,-3,1,0,0,rectangle,-2,-3,1,0,0,-2,-3,1,0,0,1,61,221,113,1,,,,,,,,
,,,,,,,,,,,,,FF,,,,,,,,5.175,,,,,,,,,,,,,,,,,,,,,,6100b88cc7d099e491ea886c,61036e7faa5097a23a04fad3,2021-07-29_22h14.41.873,Simcolourproject_2stim_asymm_v5,2020.2.10,Win32,60,61025ae37ef11b136ea224fe,,,,,,,,,593,26,90,1,0,0,response1disk,,7,7,-3,1,0,0,rectangle,7,-3,1,0,0,7,-3,1,0,0,1,62,222,27,1,,,,,,,,
,,,,,,,,,,,,,FF,,,,,,,,2.8452,,,,,,,,,,,,,,,,,,,,,,6100b88cc7d099e491ea886c,61036e7faa5097a23a04fad3,2021-07-29_22h14.41.873,Simcolourproject_2stim_asymm_v5,2020.2.10,Win32,60,61025ae37ef11b136ea224fe,,,,,,,,,728,-35,-67,1,0,0,response5disk,,3,2,4,1,0,0,rectangle,2,4,1,0,0,2,4,1,0,0,1,63,223,126,1,,,,,,,,
,,,,,,,,,,,,,FF,,,,,,,,1.3301,,,,,,,,,,,,,,,,,,,,,,6100b88cc7d099e491ea886c,61036e7faa5097a23a04fad3,2021-07-29_22h14.41.873,Simcolourproject_2stim_asymm_v5,2020.2.10,Win32,60,61025ae37ef11b136ea224fe,,,,,,,,,3290,-26,47,1,0,0,response7disk,,0,-5,13,1,0,0,rectangle,-5,13,1,0,0,-5,13,1,0,0,1,64,224,86,1,,,,,,,,
,,,,,,,,,,,,,FF,,,,,,,,3.3939,,,,,,,,,,,,,,,,,,,,,,6100b88cc7d099e491ea886c,61036e7faa5097a23a04fad3,2021-07-29_22h14.41.873,Simcolourproject_2stim_asymm_v5,2020.2.10,Win32,60,61025ae37ef11b136ea224fe,,,,,,,,,3492,40,108,1,0,0,response1disk,,7,-8,14,1,0,0,rectangle,-8,14,1,0,0,-8,14,1,0,0,1,65,225,97,1,,,,,,,,
,,,,,,,,,,,,,FF,,,,,,,,1.1976,,,,,,,,,,,,,,,,,,,,,,6100b88cc7d099e491ea886c,61036e7faa5097a23a04fad3,2021-07-29_22h14.41.873,Simcolourproject_2stim_asymm_v5,2020.2.10,Win32,60,61025ae37ef11b136ea224fe,,,,,,,,,2749,46,60,1,0,0,response1disk,,7,19,-1,1,0,0,rectangle,19,-1,1,0,0,19,-1,1,0,0,1,66,226,48,1,,,,,,,,
,,,,,,,,,,,,,FF,,,,,,,,1.5801,,,,,,,,,,,,,,,,,,,,,,6100b88cc7d099e491ea886c,61036e7faa5097a23a04fad3,2021-07-29_22h14.41.873,Simcolourproject_2stim_asymm_v5,2020.2.10,Win32,60,61025ae37ef11b136ea224fe,,,,,,,,,156,40,74,1,0,0,response1disk,,7,-2,-6,1,0,0,rectangle,-2,-6,1,0,0,-2,-6,1,0,0,1,67,227,69,1,,,,,,,,
,,,,,,,,,,,,,FF,,,,,,,,0.7647,,,,,,,,,,,,,,,,,,,,,,6100b88cc7d099e491ea886c,61036e7faa5097a23a04fad3,2021-07-29_22h14.41.873,Simcolourproject_2stim_asymm_v5,2020.2.10,Win32,60,61025ae37ef11b136ea224fe,,,,,,,,,150,29,34,1,0,0,response1disk,,7,6,-15,1,0,0,rectangle,6,-15,1,0,0,6,-15,1,0,0,1,68,228,140,1,,,,,,,,
,,,,,,,,,,,,,FF,,,,,,,,5.7403,,,,,,,,,,,,,,,,,,,,,,6100b88cc7d099e491ea886c,61036e7faa5097a23a04fad3,2021-07-29_22h14.41.873,Simcolourproject_2stim_asymm_v5,2020.2.10,Win32,60,61025ae37ef11b136ea224fe,,,,,,,,,470,41,67,1,0,0,response1disk,,7,19,13,1,0,0,rectangle,19,13,1,0,0,19,13,1,0,0,1,69,229,75,1,,,,,,,,
,,,,,,,,,,,,,FF,,,,,,,,2.781,,,,,,,,,,,,,,,,,,,,,,6100b88cc7d099e491ea886c,61036e7faa5097a23a04fad3,2021-07-29_22h14.41.873,Simcolourproject_2stim_asymm_v5,2020.2.10,Win32,60,61025ae37ef11b136ea224fe,,,,,,,,,3839,54,111,1,0,0,response1disk,,7,5,15,1,0,0,rectangle,5,15,1,0,0,5,15,1,0,0,1,70,230,121,1,,,,,,,,
,,,,,,,,,,,,,FF,,,,,,,,0.8153,,,,,,,,,,,,,,,,,,,,,,6100b88cc7d099e491ea886c,61036e7faa5097a23a04fad3,2021-07-29_22h14.41.873,Simcolourproject_2stim_asymm_v5,2020.2.10,Win32,60,61025ae37ef11b136ea224fe,,,,,,,,,835,56,116,1,0,0,response1disk,,7,-7,14,1,0,0,rectangle,-7,14,1,0,0,-7,14,1,0,0,1,71,231,99,1,,,,,,,,
,,,,,,,,,,,,,FF,,,,,,,,1.5312,,,,,,,,,,,,,,,,,,,,,,6100b88cc7d099e491ea886c,61036e7faa5097a23a04fad3,2021-07-29_22h14.41.873,Simcolourproject_2stim_asymm_v5,2020.2.10,Win32,60,61025ae37ef11b136ea224fe,,,,,,,,,669,58,100,1,0,0,response1disk,,7,-4,-3,1,0,0,rectangle,-4,-3,1,0,0,-4,-3,1,0,0,1,72,232,45,1,,,,,,,,
,,,,,,,,,,,,,FF,,,,,,,,1.6,,,,,,,,,,,,,,,,,,,,,,6100b88cc7d099e491ea886c,61036e7faa5097a23a04fad3,2021-07-29_22h14.41.873,Simcolourproject_2stim_asymm_v5,2020.2.10,Win32,60,61025ae37ef11b136ea224fe,,,,,,,,,2842,69,101,1,0,0,response1disk,,7,18,4,1,0,0,rectangle,18,4,1,0,0,18,4,1,0,0,1,73,233,114,1,,,,,,,,
,,,,,,,,,,,,,FF,,,,,,,,0.848,,,,,,,,,,,,,,,,,,,,,,6100b88cc7d099e491ea886c,61036e7faa5097a23a04fad3,2021-07-29_22h14.41.873,Simcolourproject_2stim_asymm_v5,2020.2.10,Win32,60,61025ae37ef11b136ea224fe,,,,,,,,,3454,30,51,1,0,0,response1disk,,7,12,9,1,0,0,rectangle,12,9,1,0,0,12,9,1,0,0,1,74,234,93,1,,,,,,,,
,,,,,,,,,,,,,FF,,,,,,,,1.0642,,,,,,,,,,,,,,,,,,,,,,6100b88cc7d099e491ea886c,61036e7faa5097a23a04fad3,2021-07-29_22h14.41.873,Simcolourproject_2stim_asymm_v5,2020.2.10,Win32,60,61025ae37ef11b136ea224fe,,,,,,,,,1025,25,38,1,0,0,response1disk,,7,12,2,1,0,0,rectangle,-73,19,1,0,0,-28,5,1,0,0,1,75,235,79,1,,response7disk_3,TRUE,1,1,"[44,127,217,275,288,31,248,182,236,142,149,297,52,258,43,292,70,264,241,245]",1.4473,rectangle
,,,,,,,,,,,,,FF,,,,,,,,1.7475,,,,,,,,,,,,,,,,,,,,,,6100b88cc7d099e491ea886c,61036e7faa5097a23a04fad3,2021-07-29_22h14.41.873,Simcolourproject_2stim_asymm_v5,2020.2.10,Win32,60,61025ae37ef11b136ea224fe,,,,,,,,,790,34,56,1,0,0,response1disk,,7,17,15,1,0,0,rectangle,17,15,1,0,0,17,15,1,0,0,1,76,236,143,1,,,,,,,,
,,,,,,,,,,,,,FF,,,,,,,,1.814,,,,,,,,,,,,,,,,,,,,,,6100b88cc7d099e491ea886c,61036e7faa5097a23a04fad3,2021-07-29_22h14.41.873,Simcolourproject_2stim_asymm_v5,2020.2.10,Win32,60,61025ae37ef11b136ea224fe,,,,,,,,,1958,-95,34,1,0,0,response7disk,,1,9,5,1,0,0,rectangle,9,5,1,0,0,9,5,1,0,0,1,77,237,135,1,,,,,,,,
,,,,,,,,,,,,,FF,,,,,,,,1.6476,,,,,,,,,,,,,,,,,,,,,,6100b88cc7d099e491ea886c,61036e7faa5097a23a04fad3,2021-07-29_22h14.41.873,Simcolourproject_2stim_asymm_v5,2020.2.10,Win32,60,61025ae37ef11b136ea224fe,,,,,,,,,4147,-39,-49,1,0,0,response5disk,,3,-6,9,1,0,0,rectangle,-6,9,1,0,0,-6,9,1,0,0,1,78,238,124,1,,,,,,,,
,,,,,,,,,,,,,FF,,,,,,,,1.4137,,,,,,,,,,,,,,,,,,,,,,6100b88cc7d099e491ea886c,61036e7faa5097a23a04fad3,2021-07-29_22h14.41.873,Simcolourproject_2stim_asymm_v5,2020.2.10,Win32,60,61025ae37ef11b136ea224fe,,,,,,,,,2887,-45,-80,1,0,0,response5disk,,3,-17,-13,1,0,0,rectangle,-17,-13,1,0,0,-17,-13,1,0,0,1,79,239,125,1,,,,,,,,
,,,,,,,,,,,,,FF,,,,,,,,4.8421,,,,,,,,,,,,,,,,,,,,,,6100b88cc7d099e491ea886c,61036e7faa5097a23a04fad3,2021-07-29_22h14.41.873,Simcolourproject_2stim_asymm_v5,2020.2.10,Win32,60,61025ae37ef11b136ea224fe,,,,,,,,,102,61,43,1,0,0,response1disk,,6,10,-4,1,0,0,rectangle,-51,29,1,0,0,-20,-3,1,0,0,1,80,240,56,1,,response7disk_3,TRUE,1,1,"[44,127,217,275,288,31,248,182,236,142,149,297,52,258,43,292,70,264,241,245]",1.5138,rectangle
,,,,,,,,,,,,,FF,,,,,,,,1.5647,,,,,,,,,,,,,,,,,,,,,,6100b88cc7d099e491ea886c,61036e7faa5097a23a04fad3,2021-07-29_22h14.41.873,Simcolourproject_2stim_asymm_v5,2020.2.10,Win32,60,61025ae37ef11b136ea224fe,,,,,,,,,2620,70,-22,1,0,0,response3disk,,5,22,3,1,0,0,rectangle,22,3,1,0,0,22,3,1,0,0,1,81,241,41,1,,,,,,,,
,,,,,,,,,,,,,FF,,,,,,,,0.8322,,,,,,,,,,,,,,,,,,,,,,6100b88cc7d099e491ea886c,61036e7faa5097a23a04fad3,2021-07-29_22h14.41.873,Simcolourproject_2stim_asymm_v5,2020.2.10,Win32,60,61025ae37ef11b136ea224fe,,,,,,,,,768,31,69,1,0,0,response1disk,,7,2,7,1,0,0,rectangle,2,7,1,0,0,2,7,1,0,0,1,82,242,84,1,,,,,,,,
,,,,,,,,,,,,,FF,,,,,,,,1.4144,,,,,,,,,,,,,,,,,,,,,,6100b88cc7d099e491ea886c,61036e7faa5097a23a04fad3,2021-07-29_22h14.41.873,Simcolourproject_2stim_asymm_v5,2020.2.10,Win32,60,61025ae37ef11b136ea224fe,,,,,,,,,2244,79,-41,1,0,0,response3disk,,5,12,-2,1,0,0,rectangle,12,-2,1,0,0,12,-2,1,0,0,1,83,243,46,1,,,,,,,,
,,,,,,,,,,,,,FF,,,,,,,,1.1474,,,,,,,,,,,,,,,,,,,,,,6100b88cc7d099e491ea886c,61036e7faa5097a23a04fad3,2021-07-29_22h14.41.873,Simcolourproject_2stim_asymm_v5,2020.2.10,Win32,60,61025ae37ef11b136ea224fe,,,,,,,,,232,45,-43,1,0,0,response3disk,,5,7,-10,1,0,0,rectangle,23,68,1,0,0,3,-3,1,0,0,1,84,244,100,1,,response1disk_3,TRUE,7,7,"[44,127,217,275,288,31,248,182,236,142,149,297,52,258,43,292,70,264,241,245]",1.7802,rectangle
,,,,,,,,,,,,,FF,,,,,,,,3.8924,,,,,,,,,,,,,,,,,,,,,,6100b88cc7d099e491ea886c,61036e7faa5097a23a04fad3,2021-07-29_22h14.41.873,Simcolourproject_2stim_asymm_v5,2020.2.10,Win32,60,61025ae37ef11b136ea224fe,,,,,,,,,56,50,67,1,0,0,response1disk,,7,14,8,1,0,0,rectangle,14,8,1,0,0,14,8,1,0,0,1,85,245,38,1,,,,,,,,
,,,,,,,,,,,,,FF,,,,,,,,1.6488,,,,,,,,,,,,,,,,,,,,,,6100b88cc7d099e491ea886c,61036e7faa5097a23a04fad3,2021-07-29_22h14.41.873,Simcolourproject_2stim_asymm_v5,2020.2.10,Win32,60,61025ae37ef11b136ea224fe,,,,,,,,,1546,41,91,1,0,0,response1disk,,7,4,0,1,0,0,rectangle,4,0,1,0,0,4,0,1,0,0,1,86,246,58,1,,,,,,,,
,,,,,,,,,,,,,FF,,,,,,,,1.6628,,,,,,,,,,,,,,,,,,,,,,6100b88cc7d099e491ea886c,61036e7faa5097a23a04fad3,2021-07-29_22h14.41.873,Simcolourproject_2stim_asymm_v5,2020.2.10,Win32,60,61025ae37ef11b136ea224fe,,,,,,,,,531,39,-105,1,0,0,response3disk,,4,8,-15,1,0,0,rectangle,102,65,1,0,0,6,4,1,0,0,1,87,247,81,1,,response1disk_3,TRUE,6,6,"[44,127,217,275,288,31,248,182,236,142,149,297,52,258,43,292,70,264,241,245]",2.7772,rectangle
,,,,,,,,,,,,,FF,,,,,,,,1.6937,,,,,,,,,,,,,,,,,,,,,,6100b88cc7d099e491ea886c,61036e7faa5097a23a04fad3,2021-07-29_22h14.41.873,Simcolourproject_2stim_asymm_v5,2020.2.10,Win32,60,61025ae37ef11b136ea224fe,,,,,,,,,1514,48,-27,1,0,0,response3disk,,5,14,-5,1,0,0,rectangle,14,-5,1,0,0,14,-5,1,0,0,1,88,248,26,1,,,,,,,,
,,,,,,,,,,,,,FF,,,,,,,,0.946,,,,,,,,,,,,,,,,,,,,,,6100b88cc7d099e491ea886c,61036e7faa5097a23a04fad3,2021-07-29_22h14.41.873,Simcolourproject_2stim_asymm_v5,2020.2.10,Win32,60,61025ae37ef11b136ea224fe,,,,,,,,,2077,37,65,1,0,0,response1disk,,7,8,13,1,0,0,rectangle,8,13,1,0,0,8,13,1,0,0,1,89,249,11,1,,,,,,,,
,,,,,,,,,,,,,FF,,,,,,,,1.9295,,,,,,,,,,,,,,,,,,,,,,6100b88cc7d099e491ea886c,61036e7faa5097a23a04fad3,2021-07-29_22h14.41.873,Simcolourproject_2stim_asymm_v5,2020.2.10,Win32,60,61025ae37ef11b136ea224fe,,,,,,,,,3063,34,42,1,0,0,response1disk,,7,8,2,1,0,0,rectangle,8,2,1,0,0,8,2,1,0,0,1,90,250,134,1,,,,,,,,
,,,,,,,,,,,,,FF,,,,,,,,3.1607,,,,,,,,,,,,,,,,,,,,,,6100b88cc7d099e491ea886c,61036e7faa5097a23a04fad3,2021-07-29_22h14.41.873,Simcolourproject_2stim_asymm_v5,2020.2.10,Win32,60,61025ae37ef11b136ea224fe,,,,,,,,,880,34,55,1,0,0,response1disk,,7,-7,-6,1,0,0,rectangle,-7,-6,1,0,0,-7,-6,1,0,0,1,91,251,34,1,,,,,,,,
,,,,,,,,,,,,,FF,,,,,,,,1.0319,,,,,,,,,,,,,,,,,,,,,,6100b88cc7d099e491ea886c,61036e7faa5097a23a04fad3,2021-07-29_22h14.41.873,Simcolourproject_2stim_asymm_v5,2020.2.10,Win32,60,61025ae37ef11b136ea224fe,,,,,,,,,3508,27,63,1,0,0,response1disk,,7,-5,-4,1,0,0,rectangle,-5,-4,1,0,0,-5,-4,1,0,0,1,92,252,36,1,,,,,,,,
,,,,,,,,,,,,,FF,,,,,,,,0.7484,,,,,,,,,,,,,,,,,,,,,,6100b88cc7d099e491ea886c,61036e7faa5097a23a04fad3,2021-07-29_22h14.41.873,Simcolourproject_2stim_asymm_v5,2020.2.10,Win32,60,61025ae37ef11b136ea224fe,,,,,,,,,1101,26,44,1,0,0,response1disk,,7,0,3,1,0,0,rectangle,0,3,1,0,0,0,3,1,0,0,1,93,253,110,1,,,,,,,,
,,,,,,,,,,,,,FF,,,,,,,,2.645,,,,,,,,,,,,,,,,,,,,,,6100b88cc7d099e491ea886c,61036e7faa5097a23a04fad3,2021-07-29_22h14.41.873,Simcolourproject_2stim_asymm_v5,2020.2.10,Win32,60,61025ae37ef11b136ea224fe,,,,,,,,,3,88,-54,1,0,0,response3disk,,5,-5,3,1,0,0,rectangle,-5,3,1,0,0,-5,3,1,0,0,1,94,254,129,1,,,,,,,,
,,,,,,,,,,,,,FF,,,,,,,,1.1971,,,,,,,,,,,,,,,,,,,,,,6100b88cc7d099e491ea886c,61036e7faa5097a23a04fad3,2021-07-29_22h14.41.873,Simcolourproject_2stim_asymm_v5,2020.2.10,Win32,60,61025ae37ef11b136ea224fe,,,,,,,,,171,45,-93,1,0,0,response3disk,,4,5,-2,1,0,0,rectangle,5,-2,1,0,0,5,-2,1,0,0,1,95,255,73,1,,,,,,,,
,,,,,,,,,,,,,FF,,,,,,,,0.7976,,,,,,,,,,,,,,,,,,,,,,6100b88cc7d099e491ea886c,61036e7faa5097a23a04fad3,2021-07-29_22h14.41.873,Simcolourproject_2stim_asymm_v5,2020.2.10,Win32,60,61025ae37ef11b136ea224fe,,,,,,,,,3424,54,79,1,0,0,response1disk,,7,15,0,1,0,0,rectangle,15,0,1,0,0,15,0,1,0,0,1,96,256,43,1,,,,,,,,
,,,,,,,,,,,,,FF,,,,,,,,1.549,,,,,,,,,,,,,,,,,,,,,,6100b88cc7d099e491ea886c,61036e7faa5097a23a04fad3,2021-07-29_22h14.41.873,Simcolourproject_2stim_asymm_v5,2020.2.10,Win32,60,61025ae37ef11b136ea224fe,,,,,,,,,2237,23,-97,1,0,0,response3disk,,4,16,3,1,0,0,rectangle,-69,-38,1,0,0,-4,-7,1,0,0,1,97,257,120,1,,response5disk_3,TRUE,2,2,"[44,127,217,275,288,31,248,182,236,142,149,297,52,258,43,292,70,264,241,245]",1.7137,rectangle
,,,,,,,,,,,,,FF,,,,,,,,1.1819,,,,,,,,,,,,,,,,,,,,,,6100b88cc7d099e491ea886c,61036e7faa5097a23a04fad3,2021-07-29_22h14.41.873,Simcolourproject_2stim_asymm_v5,2020.2.10,Win32,60,61025ae37ef11b136ea224fe,,,,,,,,,368,-27,-65,1,0,0,response5disk,,3,-4,-8,1,0,0,rectangle,-4,-8,1,0,0,-4,-8,1,0,0,1,98,258,65,1,,,,,,,,
,,,,,,,,,,,,,FF,,,,,,,,2.5113,,,,,,,,,,,,,,,,,,,,,,6100b88cc7d099e491ea886c,61036e7faa5097a23a04fad3,2021-07-29_22h14.41.873,Simcolourproject_2stim_asymm_v5,2020.2.10,Win32,60,61025ae37ef11b136ea224fe,,,,,,,,,111,32,65,1,0,0,response1disk,,7,10,6,1,0,0,rectangle,10,6,1,0,0,10,6,1,0,0,1,99,259,158,1,,,,,,,,
,,,,,,,,,,,,,FF,,,,,,,,1.4637,,,,,,,,,,,,,,,,,,,,,,6100b88cc7d099e491ea886c,61036e7faa5097a23a04fad3,2021-07-29_22h14.41.873,Simcolourproject_2stim_asymm_v5,2020.2.10,Win32,60,61025ae37ef11b136ea224fe,,,,,,,,,2203,37,53,1,0,0,response1disk,,7,17,15,1,0,0,rectangle,17,15,1,0,0,17,15,1,0,0,1,100,260,14,1,,,,,,,,
,,,,,,,,,,,,,FF,,,,,,,,1.8637,,,,,,,,,,,,,,,,,,,,,,6100b88cc7d099e491ea886c,61036e7faa5097a23a04fad3,2021-07-29_22h14.41.873,Simcolourproject_2stim_asymm_v5,2020.2.10,Win32,60,61025ae37ef11b136ea224fe,,,,,,,,,3854,60,112,1,0,0,response1disk,,7,-13,-13,1,0,0,rectangle,-13,-13,1,0,0,-13,-13,1,0,0,1,101,261,40,1,,,,,,,,
,,,,,,,,,,,,,FF,,,,,,,,1.1639,,,,,,,,,,,,,,,,,,,,,,6100b88cc7d099e491ea886c,61036e7faa5097a23a04fad3,2021-07-29_22h14.41.873,Simcolourproject_2stim_asymm_v5,2020.2.10,Win32,60,61025ae37ef11b136ea224fe,,,,,,,,,791,25,55,1,0,0,response1disk,,7,1,8,1,0,0,rectangle,1,8,1,0,0,1,8,1,0,0,1,102,262,149,1,,,,,,,,
,,,,,,,,,,,,,FF,,,,,,,,1.6468,,,,,,,,,,,,,,,,,,,,,,6100b88cc7d099e491ea886c,61036e7faa5097a23a04fad3,2021-07-29_22h14.41.873,Simcolourproject_2stim_asymm_v5,2020.2.10,Win32,60,61025ae37ef11b136ea224fe,,,,,,,,,443,-36,-29,1,0,0,response5disk,,2,-7,-6,1,0,0,rectangle,-37,-72,1,0,0,2,-1,1,0,0,1,103,263,15,1,,response5disk_3,TRUE,3,3,"[44,127,217,275,288,31,248,182,236,142,149,297,52,258,43,292,70,264,241,245]",1.8797,rectangle
,,,,,,,,,,,,,FF,,,,,,,,1.0808,,,,,,,,,,,,,,,,,,,,,,6100b88cc7d099e491ea886c,61036e7faa5097a23a04fad3,2021-07-29_22h14.41.873,Simcolourproject_2stim_asymm_v5,2020.2.10,Win32,60,61025ae37ef11b136ea224fe,,,,,,,,,45,43,73,1,0,0,response1disk,,7,8,3,1,0,0,rectangle,8,3,1,0,0,8,3,1,0,0,1,104,264,22,1,,,,,,,,
,,,,,,,,,,,,,FF,,,,,,,,4.1088,,,,,,,,,,,,,,,,,,,,,,6100b88cc7d099e491ea886c,61036e7faa5097a23a04fad3,2021-07-29_22h14.41.873,Simcolourproject_2stim_asymm_v5,2020.2.10,Win32,60,61025ae37ef11b136ea224fe,,,,,,,,,517,51,20,1,0,0,response1disk,,6,0,-8,1,0,0,rectangle,0,-8,1,0,0,0,-8,1,0,0,1,105,265,8,1,,,,,,,,
,,,,,,,,,,,,,FF,,,,,,,,2.1622,,,,,,,,,,,,,,,,,,,,,,6100b88cc7d099e491ea886c,61036e7faa5097a23a04fad3,2021-07-29_22h14.41.873,Simcolourproject_2stim_asymm_v5,2020.2.10,Win32,60,61025ae37ef11b136ea224fe,,,,,,,,,1147,34,-59,1,0,0,response3disk,,4,0,-15,1,0,0,rectangle,0,-15,1,0,0,0,-15,1,0,0,1,106,266,66,1,,,,,,,,
,,,,,,,,,,,,,FF,,,,,,,,0.9823,,,,,,,,,,,,,,,,,,,,,,6100b88cc7d099e491ea886c,61036e7faa5097a23a04fad3,2021-07-29_22h14.41.873,Simcolourproject_2stim_asymm_v5,2020.2.10,Win32,60,61025ae37ef11b136ea224fe,,,,,,,,,344,27,47,1,0,0,response1disk,,7,2,-4,1,0,0,rectangle,2,-4,1,0,0,2,-4,1,0,0,1,107,267,123,1,,,,,,,,
,,,,,,,,,,,,,FF,,,,,,,,1.4972,,,,,,,,,,,,,,,,,,,,,,6100b88cc7d099e491ea886c,61036e7faa5097a23a04fad3,2021-07-29_22h14.41.873,Simcolourproject_2stim_asymm_v5,2020.2.10,Win32,60,61025ae37ef11b136ea224fe,,,,,,,,,4052,43,-63,1,0,0,response3disk,,4,-11,-6,1,0,0,rectangle,-11,-6,1,0,0,-11,-6,1,0,0,1,108,268,78,1,,,,,,,,
,,,,,,,,,,,,,FF,,,,,,,,0.9819,,,,,,,,,,,,,,,,,,,,,,6100b88cc7d099e491ea886c,61036e7faa5097a23a04fad3,2021-07-29_22h14.41.873,Simcolourproject_2stim_asymm_v5,2020.2.10,Win32,60,61025ae37ef11b136ea224fe,,,,,,,,,3302,17,33,1,0,0,response1disk,,7,4,2,1,0,0,rectangle,4,2,1,0,0,4,2,1,0,0,1,109,269,31,1,,,,,,,,
,,,,,,,,,,,,,FF,,,,,,,,0.8816,,,,,,,,,,,,,,,,,,,,,,6100b88cc7d099e491ea886c,61036e7faa5097a23a04fad3,2021-07-29_22h14.41.873,Simcolourproject_2stim_asymm_v5,2020.2.10,Win32,60,61025ae37ef11b136ea224fe,,,,,,,,,3712,-31,-55,1,0,0,response5disk,,3,18,13,1,0,0,rectangle,18,13,1,0,0,18,13,1,0,0,1,110,270,119,1,,,,,,,,
,,,,,,,,,,,,,FF,,,,,,,,1.0313,,,,,,,,,,,,,,,,,,,,,,6100b88cc7d099e491ea886c,61036e7faa5097a23a04fad3,2021-07-29_22h14.41.873,Simcolourproject_2stim_asymm_v5,2020.2.10,Win32,60,61025ae37ef11b136ea224fe,,,,,,,,,3822,29,35,1,0,0,response1disk,,7,18,9,1,0,0,rectangle,18,9,1,0,0,18,9,1,0,0,1,111,271,28,1,,,,,,,,
,,,,,,,,,,,,,FF,,,,,,,,0.7493,,,,,,,,,,,,,,,,,,,,,,6100b88cc7d099e491ea886c,61036e7faa5097a23a04fad3,2021-07-29_22h14.41.873,Simcolourproject_2stim_asymm_v5,2020.2.10,Win32,60,61025ae37ef11b136ea224fe,,,,,,,,,3416,22,32,1,0,0,response1disk,,7,14,9,1,0,0,rectangle,14,9,1,0,0,14,9,1,0,0,1,112,272,12,1,,,,,,,,
,,,,,,,,,,,,,FF,,,,,,,,2.5785,,,,,,,,,,,,,,,,,,,,,,6100b88cc7d099e491ea886c,61036e7faa5097a23a04fad3,2021-07-29_22h14.41.873,Simcolourproject_2stim_asymm_v5,2020.2.10,Win32,60,61025ae37ef11b136ea224fe,,,,,,,,,4002,36,72,1,0,0,response1disk,,7,3,8,1,0,0,rectangle,3,8,1,0,0,3,8,1,0,0,1,113,273,136,1,,,,,,,,
,,,,,,,,,,,,,FF,,,,,,,,1.1311,,,,,,,,,,,,,,,,,,,,,,6100b88cc7d099e491ea886c,61036e7faa5097a23a04fad3,2021-07-29_22h14.41.873,Simcolourproject_2stim_asymm_v5,2020.2.10,Win32,60,61025ae37ef11b136ea224fe,,,,,,,,,3983,35,81,1,0,0,response1disk,,7,4,10,1,0,0,rectangle,42,39,1,0,0,17,2,1,0,0,1,114,274,13,1,,response1disk_3,TRUE,6,7,"[44,127,217,275,288,31,248,182,236,142,149,297,52,258,43,292,70,264,241,245]",1.4974,rectangle
,,,,,,,,,,,,,FF,,,,,,,,1.5467,,,,,,,,,,,,,,,,,,,,,,6100b88cc7d099e491ea886c,61036e7faa5097a23a04fad3,2021-07-29_22h14.41.873,Simcolourproject_2stim_asymm_v5,2020.2.10,Win32,60,61025ae37ef11b136ea224fe,,,,,,,,,1283,-41,-74,1,0,0,response5disk,,3,-6,-5,1,0,0,rectangle,-6,-5,1,0,0,-6,-5,1,0,0,1,115,275,142,1,,,,,,,,
,,,,,,,,,,,,,FF,,,,,,,,1.4976,,,,,,,,,,,,,,,,,,,,,,6100b88cc7d099e491ea886c,61036e7faa5097a23a04fad3,2021-07-29_22h14.41.873,Simcolourproject_2stim_asymm_v5,2020.2.10,Win32,60,61025ae37ef11b136ea224fe,,,,,,,,,2364,19,-49,1,0,0,response3disk,,4,8,-14,1,0,0,rectangle,8,-14,1,0,0,8,-14,1,0,0,1,116,276,104,1,,,,,,,,
,,,,,,,,,,,,,FF,,,,,,,,1.214,,,,,,,,,,,,,,,,,,,,,,6100b88cc7d099e491ea886c,61036e7faa5097a23a04fad3,2021-07-29_22h14.41.873,Simcolourproject_2stim_asymm_v5,2020.2.10,Win32,60,61025ae37ef11b136ea224fe,,,,,,,,,2178,27,-38,1,0,0,response3disk,,4,3,-11,1,0,0,rectangle,3,-11,1,0,0,3,-11,1,0,0,1,117,277,118,1,,,,,,,,
,,,,,,,,,,,,,FF,,,,,,,,4.1436,,,,,,,,,,,,,,,,,,,,,,6100b88cc7d099e491ea886c,61036e7faa5097a23a04fad3,2021-07-29_22h14.41.873,Simcolourproject_2stim_asymm_v5,2020.2.10,Win32,60,61025ae37ef11b136ea224fe,,,,,,,,,2320,68,35,1,0,0,response1disk,,6,0,-12,1,0,0,rectangle,0,-12,1,0,0,0,-12,1,0,0,1,118,278,148,1,,,,,,,,
,,,,,,,,,,,,,FF,,,,,,,,2.531,,,,,,,,,,,,,,,,,,,,,,6100b88cc7d099e491ea886c,61036e7faa5097a23a04fad3,2021-07-29_22h14.41.873,Simcolourproject_2stim_asymm_v5,2020.2.10,Win32,60,61025ae37ef11b136ea224fe,,,,,,,,,2606,-46,-74,1,0,0,response5disk,,3,-12,-6,1,0,0,rectangle,-12,-6,1,0,0,-12,-6,1,0,0,1,119,279,108,1,,,,,,,,
,,,,,,,,,,,,,FF,,,,,,,,1.0646,,,,,,,,,,,,,,,,,,,,,,6100b88cc7d099e491ea886c,61036e7faa5097a23a04fad3,2021-07-29_22h14.41.873,Simcolourproject_2stim_asymm_v5,2020.2.10,Win32,60,61025ae37ef11b136ea224fe,,,,,,,,,2825,-30,-49,1,0,0,response5disk,,3,26,8,1,0,0,rectangle,26,8,1,0,0,26,8,1,0,0,1,120,280,141,1,,,,,,,,
,,,,,,,,,,,,,FF,,,,,,,,1.1978,,,,,,,,,,,,,,,,,,,,,,6100b88cc7d099e491ea886c,61036e7faa5097a23a04fad3,2021-07-29_22h14.41.873,Simcolourproject_2stim_asymm_v5,2020.2.10,Win32,60,61025ae37ef11b136ea224fe,,,,,,,,,1896,-24,-66,1,0,0,response5disk,,3,4,-10,1,0,0,rectangle,4,-10,1,0,0,4,-10,1,0,0,1,121,281,128,1,,,,,,,,
,,,,,,,,,,,,,FF,,,,,,,,2.0137,,,,,,,,,,,,,,,,,,,,,,6100b88cc7d099e491ea886c,61036e7faa5097a23a04fad3,2021-07-29_22h14.41.873,Simcolourproject_2stim_asymm_v5,2020.2.10,Win32,60,61025ae37ef11b136ea224fe,,,,,,,,,2706,78,118,1,0,0,response1disk,,7,-3,4,1,0,0,rectangle,-3,4,1,0,0,-3,4,1,0,0,1,122,282,35,1,,,,,,,,
,,,,,,,,,,,,,FF,,,,,,,,0.9146,,,,,,,,,,,,,,,,,,,,,,6100b88cc7d099e491ea886c,61036e7faa5097a23a04fad3,2021-07-29_22h14.41.873,Simcolourproject_2stim_asymm_v5,2020.2.10,Win32,60,61025ae37ef11b136ea224fe,,,,,,,,,488,43,87,1,0,0,response1disk,,7,-6,1,1,0,0,rectangle,-6,1,1,0,0,-6,1,1,0,0,1,123,283,92,1,,,,,,,,
,,,,,,,,,,,,,FF,,,,,,,,3.9597,,,,,,,,,,,,,,,,,,,,,,6100b88cc7d099e491ea886c,61036e7faa5097a23a04fad3,2021-07-29_22h14.41.873,Simcolourproject_2stim_asymm_v5,2020.2.10,Win32,60,61025ae37ef11b136ea224fe,,,,,,,,,2939,62,96,1,0,0,response1disk,,7,10,13,1,0,0,rectangle,10,13,1,0,0,10,13,1,0,0,1,124,284,146,1,,,,,,,,
,,,,,,,,,,,,,FF,,,,,,,,1.8129,,,,,,,,,,,,,,,,,,,,,,6100b88cc7d099e491ea886c,61036e7faa5097a23a04fad3,2021-07-29_22h14.41.873,Simcolourproject_2stim_asymm_v5,2020.2.10,Win32,60,61025ae37ef11b136ea224fe,,,,,,,,,2488,-38,-82,1,0,0,response5disk,,3,9,-3,1,0,0,rectangle,9,-3,1,0,0,9,-3,1,0,0,1,125,285,144,1,,,,,,,,
,,,,,,,,,,,,,FF,,,,,,,,0.7824,,,,,,,,,,,,,,,,,,,,,,6100b88cc7d099e491ea886c,61036e7faa5097a23a04fad3,2021-07-29_22h14.41.873,Simcolourproject_2stim_asymm_v5,2020.2.10,Win32,60,61025ae37ef11b136ea224fe,,,,,,,,,2084,36,48,1,0,0,response1disk,,7,12,11,1,0,0,rectangle,12,11,1,0,0,12,11,1,0,0,1,126,286,77,1,,,,,,,,
,,,,,,,,,,,,,FF,,,,,,,,2.9787,,,,,,,,,,,,,,,,,,,,,,6100b88cc7d099e491ea886c,61036e7faa5097a23a04fad3,2021-07-29_22h14.41.873,Simcolourproject_2stim_asymm_v5,2020.2.10,Win32,60,61025ae37ef11b136ea224fe,,,,,,,,,3031,62,90,1,0,0,response1disk,,7,6,13,1,0,0,rectangle,-28,61,1,0,0,18,-15,1,0,0,1,127,287,91,1,,response7disk_3,TRUE,0,0,"[44,127,217,275,288,31,248,182,236,142,149,297,52,258,43,292,70,264,241,245]",1.8643,rectangle
,,,,,,,,,,,,,FF,,,,,,,,1.5135,,,,,,,,,,,,,,,,,,,,,,6100b88cc7d099e491ea886c,61036e7faa5097a23a04fad3,2021-07-29_22h14.41.873,Simcolourproject_2stim_asymm_v5,2020.2.10,Win32,60,61025ae37ef11b136ea224fe,,,,,,,,,2954,29,-87,1,0,0,response3disk,,4,-1,-8,1,0,0,rectangle,-1,-8,1,0,0,-1,-8,1,0,0,1,128,288,150,1,,,,,,,,
,,,,,,,,,,,,,FF,,,,,,,,1.3321,,,,,,,,,,,,,,,,,,,,,,6100b88cc7d099e491ea886c,61036e7faa5097a23a04fad3,2021-07-29_22h14.41.873,Simcolourproject_2stim_asymm_v5,2020.2.10,Win32,60,61025ae37ef11b136ea224fe,,,,,,,,,3359,28,43,1,0,0,response1disk,,7,5,1,1,0,0,rectangle,5,1,1,0,0,5,1,1,0,0,1,129,289,137,1,,,,,,,,
,,,,,,,,,,,,,FF,,,,,,,,2.1464,,,,,,,,,,,,,,,,,,,,,,6100b88cc7d099e491ea886c,61036e7faa5097a23a04fad3,2021-07-29_22h14.41.873,Simcolourproject_2stim_asymm_v5,2020.2.10,Win32,60,61025ae37ef11b136ea224fe,,,,,,,,,2841,58,34,1,0,0,response1disk,,6,13,5,1,0,0,rectangle,13,5,1,0,0,13,5,1,0,0,1,130,290,133,1,,,,,,,,
,,,,,,,,,,,,,FF,,,,,,,,1.1644,,,,,,,,,,,,,,,,,,,,,,6100b88cc7d099e491ea886c,61036e7faa5097a23a04fad3,2021-07-29_22h14.41.873,Simcolourproject_2stim_asymm_v5,2020.2.10,Win32,60,61025ae37ef11b136ea224fe,,,,,,,,,3237,-19,-44,1,0,0,response5disk,,3,13,-14,1,0,0,rectangle,-74,38,1,0,0,-21,2,1,0,0,1,131,291,159,1,,response7disk_3,TRUE,1,1,"[44,127,217,275,288,31,248,182,236,142,149,297,52,258,43,292,70,264,241,245]",2.061,rectangle
,,,,,,,,,,,,,FF,,,,,,,,1.3146,,,,,,,,,,,,,,,,,,,,,,6100b88cc7d099e491ea886c,61036e7faa5097a23a04fad3,2021-07-29_22h14.41.873,Simcolourproject_2stim_asymm_v5,2020.2.10,Win32,60,61025ae37ef11b136ea224fe,,,,,,,,,719,-30,-69,1,0,0,response5disk,,3,-1,-4,1,0,0,rectangle,-1,-4,1,0,0,-1,-4,1,0,0,1,132,292,72,1,,,,,,,,
,,,,,,,,,,,,,FF,,,,,,,,2.1468,,,,,,,,,,,,,,,,,,,,,,6100b88cc7d099e491ea886c,61036e7faa5097a23a04fad3,2021-07-29_22h14.41.873,Simcolourproject_2stim_asymm_v5,2020.2.10,Win32,60,61025ae37ef11b136ea224fe,,,,,,,,,538,29,42,1,0,0,response1disk,,7,13,-2,1,0,0,rectangle,13,-2,1,0,0,13,-2,1,0,0,1,133,293,44,1,,,,,,,,
,,,,,,,,,,,,,FF,,,,,,,,2.1294,,,,,,,,,,,,,,,,,,,,,,6100b88cc7d099e491ea886c,61036e7faa5097a23a04fad3,2021-07-29_22h14.41.873,Simcolourproject_2stim_asymm_v5,2020.2.10,Win32,60,61025ae37ef11b136ea224fe,,,,,,,,,2656,28,-58,1,0,0,response3disk,,4,-15,-9,1,0,0,rectangle,-15,-9,1,0,0,-15,-9,1,0,0,1,134,294,147,1,,,,,,,,
,,,,,,,,,,,,,FF,,,,,,,,1.6639,,,,,,,,,,,,,,,,,,,,,,6100b88cc7d099e491ea886c,61036e7faa5097a23a04fad3,2021-07-29_22h14.41.873,Simcolourproject_2stim_asymm_v5,2020.2.10,Win32,60,61025ae37ef11b136ea224fe,,,,,,,,,3446,28,53,1,0,0,response1disk,,7,-2,2,1,0,0,rectangle,-2,2,1,0,0,-2,2,1,0,0,1,135,295,76,1,,,,,,,,
,,,,,,,,,,,,,FF,,,,,,,,1.53,,,,,,,,,,,,,,,,,,,,,,6100b88cc7d099e491ea886c,61036e7faa5097a23a04fad3,2021-07-29_22h14.41.873,Simcolourproject_2stim_asymm_v5,2020.2.10,Win32,60,61025ae37ef11b136ea224fe,,,,,,,,,730,33,62,1,0,0,response1disk,,7,9,3,1,0,0,rectangle,-36,51,1,0,0,-5,15,1,0,0,1,136,296,94,1,,response7disk_3,TRUE,0,0,"[44,127,217,275,288,31,248,182,236,142,149,297,52,258,43,292,70,264,241,245]",2.1464,rectangle
,,,,,,,,,,,,,FF,,,,,,,,1.7139,,,,,,,,,,,,,,,,,,,,,,6100b88cc7d099e491ea886c,61036e7faa5097a23a04fad3,2021-07-29_22h14.41.873,Simcolourproject_2stim_asymm_v5,2020.2.10,Win32,60,61025ae37ef11b136ea224fe,,,,,,,,,1820,-28,-66,1,0,0,response5disk,,3,-3,-8,1,0,0,rectangle,-3,-8,1,0,0,-3,-8,1,0,0,1,137,297,33,1,,,,,,,,
,,,,,,,,,,,,,FF,,,,,,,,3.178,,,,,,,,,,,,,,,,,,,,,,6100b88cc7d099e491ea886c,61036e7faa5097a23a04fad3,2021-07-29_22h14.41.873,Simcolourproject_2stim_asymm_v5,2020.2.10,Win32,60,61025ae37ef11b136ea224fe,,,,,,,,,2312,34,77,1,0,0,response1disk,,7,3,6,1,0,0,rectangle,3,6,1,0,0,3,6,1,0,0,1,138,298,117,1,,,,,,,,
,,,,,,,,,,,,,FF,,,,,,,,0.9809,,,,,,,,,,,,,,,,,,,,,,6100b88cc7d099e491ea886c,61036e7faa5097a23a04fad3,2021-07-29_22h14.41.873,Simcolourproject_2stim_asymm_v5,2020.2.10,Win32,60,61025ae37ef11b136ea224fe,,,,,,,,,218,27,58,1,0,0,response1disk,,7,13,9,1,0,0,rectangle,13,9,1,0,0,13,9,1,0,0,1,139,299,127,1,,,,,,,,
,,,,,,,,,,,,,FF,,,,,,,,1.5306,,,,,,,,,,,,,,,,,,,,,,6100b88cc7d099e491ea886c,61036e7faa5097a23a04fad3,2021-07-29_22h14.41.873,Simcolourproject_2stim_asymm_v5,2020.2.10,Win32,60,61025ae37ef11b136ea224fe,,,,,,,,,3258,49,79,1,0,0,response1disk,,7,7,-2,1,0,0,rectangle,7,-2,1,0,0,7,-2,1,0,0,1,140,300,54,1,,,,,,,,
,,,,,,,,,,,,,FF,,,,,,,,1.3812,,,,,,,,,,,,,,,,,,,,,,6100b88cc7d099e491ea886c,61036e7faa5097a23a04fad3,2021-07-29_22h14.41.873,Simcolourproject_2stim_asymm_v5,2020.2.10,Win32,60,61025ae37ef11b136ea224fe,,,,,,,,,3220,33,51,1,0,0,response1disk,,7,0,-10,1,0,0,rectangle,0,-10,1,0,0,0,-10,1,0,0,1,141,301,82,1,,,,,,,,
