key_resp.keys,key_resp.rt,key_resp_14.keys,key_resp_14.rt,key_resp_15.keys,key_resp_15.rt,key_resp_17.keys,key_resp_17.rt,key_resp_9.keys,key_resp_9.rt,key_resp_10.keys,key_resp_10.rt,practice_comparison,Ecc,mouse_5.x,mouse_5.y,mouse_5.leftButton,mouse_5.midButton,mouse_5.rightButton,mouse_5.clicked_name,pracsimilarity,response_time,mouse_10.x,mouse_10.y,mouse_10.leftButton,mouse_10.midButton,mouse_10.rightButton,mouse_10.clicked_name,mouse_7.x,mouse_7.y,mouse_7.leftButton,mouse_7.midButton,mouse_7.rightButton,mouse_6.x,mouse_6.y,mouse_6.leftButton,mouse_6.midButton,mouse_6.rightButton,duringprac.thisRepN,duringprac.thisTrialN,duringprac.thisN,duringprac.thisIndex,duringprac.ran,participant,session,date,expName,psychopyVersion,OS,frameRate,study_id,mouse_7.clicked_name,catchpracsimilarity,catch_response_time,catchnumberprac,catchtrialorderprac,mouse_6.clicked_name,key_resp_22.keys,key_resp_22.rt,realcomparison,mouse.x,mouse.y,mouse.leftButton,mouse.midButton,mouse.rightButton,mouse.clicked_name,Colour2,similarity,mouse_2.x,mouse_2.y,mouse_2.leftButton,mouse_2.midButton,mouse_2.rightButton,mouse_2.clicked_name,mouse_3.x,mouse_3.y,mouse_3.leftButton,mouse_3.midButton,mouse_3.rightButton,mouse_11.x,mouse_11.y,mouse_11.leftButton,mouse_11.midButton,mouse_11.rightButton,trials_2.thisRepN,trials_2.thisTrialN,trials_2.thisN,trials_2.thisIndex,trials_2.ran,Colour1,mouse_3.clicked_name,catchornah,catchsimilarity,catchnumber,catchtrialorder,catchRT,mouse_11.clicked_name
space,1.0998,space,7.419,space,13.3508,space,5.4618,space,3.1095,space,3.8915,6,PF,-32.66660788,-95.3333469,1,0,0,response5disk_5,3,10.5597,-5.333314419,-1.07288E-05,1,0,0,rectangle_8,-5.333314419,-1.07288E-05,1,0,0,-5.333314419,-1.07288E-05,1,0,0,0,0,0,6,1,61004a341d22b1d5df6dd925,6103760b924b4aee458743b3,2021-07-29_23h55.44.992,Simcolourproject_2stim_asymm_v5,2020.2.10,Win32,60,61025ae37ef11b136ea224fe,,,,,,,,,,,,,,,,,,,,,,,,,,,,,,,,,,,,,,,,,,,,,,
,,,,,,,,,,,,142,PF,74.66668797,23.99998999,1,0,0,response1disk_5,6,3.7042,1.9735E-05,9.999989569,1,0,0,rectangle_8,-82.66660937,29.99999017,1,0,0,-1.3333143,2.666656017,1,0,0,0,1,1,4,1,61004a341d22b1d5df6dd925,6103760b924b4aee458743b3,2021-07-29_23h55.44.992,Simcolourproject_2stim_asymm_v5,2020.2.10,Win32,60,61025ae37ef11b136ea224fe,response7disk_7,1,2.6236,1,"[2,5]",rectangle_4,,,,,,,,,,,,,,,,,,,,,,,,,,,,,,,,,,,,,,,,
,,,,,,,,,,,,124,FF,-71.33331639,34.66665697,1,0,0,response7disk_5,1,3.4003,6.000019252,2.666656017,1,0,0,rectangle_8,6.000019252,2.666656017,1,0,0,6.000019252,2.666656017,1,0,0,0,2,2,3,1,61004a341d22b1d5df6dd925,6103760b924b4aee458743b3,2021-07-29_23h55.44.992,Simcolourproject_2stim_asymm_v5,2020.2.10,Win32,60,61025ae37ef11b136ea224fe,,,,,,,,,,,,,,,,,,,,,,,,,,,,,,,,,,,,,,,,,,,,,,
,,,,,,,,,,,,41,FF,-74.66660913,-22.66667807,1,0,0,response5disk_5,2,2.9661,-10.66660722,3.99998939,1,0,0,rectangle_8,-10.66660722,3.99998939,1,0,0,-10.66660722,3.99998939,1,0,0,0,3,3,0,1,61004a341d22b1d5df6dd925,6103760b924b4aee458743b3,2021-07-29_23h55.44.992,Simcolourproject_2stim_asymm_v5,2020.2.10,Win32,60,61025ae37ef11b136ea224fe,,,,,,,,,,,,,,,,,,,,,,,,,,,,,,,,,,,,,,,,,,,,,,
,,,,,,,,,,,,17,FF,38.66668689,-48.00001216,1,0,0,response3disk_5,4,2.1951,-5.999981105,4.666656077,1,0,0,rectangle_8,-92.66660966,40.66665715,1,0,0,-8.666607161,2.666656017,1,0,0,0,4,4,5,1,61004a341d22b1d5df6dd925,6103760b924b4aee458743b3,2021-07-29_23h55.44.992,Simcolourproject_2stim_asymm_v5,2020.2.10,Win32,60,61025ae37ef11b136ea224fe,response7disk_7,1,2.437,1,"[2,5]",rectangle_4,,,,,,,,,,,,,,,,,,,,,,,,,,,,,,,,,,,,,,,,
,,,,,,,,,,,,120,PF,-28.66660776,-45.33334541,1,0,0,response5disk_5,3,2.0176,-6.666607102,0.666655958,1,0,0,rectangle_8,-6.666607102,0.666655958,1,0,0,-6.666607102,0.666655958,1,0,0,0,5,5,1,1,61004a341d22b1d5df6dd925,6103760b924b4aee458743b3,2021-07-29_23h55.44.992,Simcolourproject_2stim_asymm_v5,2020.2.10,Win32,60,61025ae37ef11b136ea224fe,,,,,,,,,,,,,,,,,,,,,,,,,,,,,,,,,,,,,,,,,,,,,,
,,,,,,,,,,,,112,PF,41.33339433,71.33330439,1,0,0,response1disk_5,7,2.4305,7.333393315,0.666655958,1,0,0,rectangle_8,7.333393315,0.666655958,1,0,0,7.333393315,0.666655958,1,0,0,0,6,6,2,1,61004a341d22b1d5df6dd925,6103760b924b4aee458743b3,2021-07-29_23h55.44.992,Simcolourproject_2stim_asymm_v5,2020.2.10,Win32,60,61025ae37ef11b136ea224fe,,,,,,,,,,,,,,,,,,,,,,,,,,,,,,,,,,,,,,,,,,,,,,
,,,,,,,,,,,,,FF,,,,,,,,2.4543,,,,,,,,,,,,,,,,,,,,,,61004a341d22b1d5df6dd925,6103760b924b4aee458743b3,2021-07-29_23h55.44.992,Simcolourproject_2stim_asymm_v5,2020.2.10,Win32,60,61025ae37ef11b136ea224fe,,,,,,,space,4.2391,3740,54.66668737,27.99999011,1,0,0,response1disk,,6,-1.999980986,1.333322644,1,0,0,rectangle,-1.999980986,1.333322644,1,0,0,-1.999980986,1.333322644,1,0,0,0,0,0,46,1,,,,,,,,
,,,,,,,,,,,,,FF,,,,,,,,2.6838,,,,,,,,,,,,,,,,,,,,,,61004a341d22b1d5df6dd925,6103760b924b4aee458743b3,2021-07-29_23h55.44.992,Simcolourproject_2stim_asymm_v5,2020.2.10,Win32,60,61025ae37ef11b136ea224fe,,,,,,,,,3493,35.33339415,67.33330427,1,0,0,response1disk,,7,-3.333314359,5.333322763,1,0,0,rectangle,-3.333314359,5.333322763,1,0,0,-3.333314359,5.333322763,1,0,0,0,1,1,27,1,,,,,,,,
,,,,,,,,,,,,,FF,,,,,,,,1.3334,,,,,,,,,,,,,,,,,,,,,,61004a341d22b1d5df6dd925,6103760b924b4aee458743b3,2021-07-29_23h55.44.992,Simcolourproject_2stim_asymm_v5,2020.2.10,Win32,60,61025ae37ef11b136ea224fe,,,,,,,,,3770,76.00002134,-24.00001144,1,0,0,response3disk,,5,-5.999981105,-0.666677415,1,0,0,rectangle,-29.99998182,66.66665792,1,0,0,-0.666606923,-0.666677415,1,0,0,0,2,2,101,1,,response7disk_3,TRUE,0,0,"[72,253,172,117,311,235,201,119,254,177,223,16,3,90,50,261,263,123,310,284]",1.901,rectangle
,,,,,,,,,,,,,FF,,,,,,,,3.5347,,,,,,,,,,,,,,,,,,,,,,61004a341d22b1d5df6dd925,6103760b924b4aee458743b3,2021-07-29_23h55.44.992,Simcolourproject_2stim_asymm_v5,2020.2.10,Win32,60,61025ae37ef11b136ea224fe,,,,,,,,,4115,37.33339421,-57.33334577,1,0,0,response3disk,,4,1.333393137,0.666655958,1,0,0,rectangle,1.333393137,0.666655958,1,0,0,1.333393137,0.666655958,1,0,0,0,3,3,69,1,,,,,,,,
,,,,,,,,,,,,,FF,,,,,,,,1.734,,,,,,,,,,,,,,,,,,,,,,61004a341d22b1d5df6dd925,6103760b924b4aee458743b3,2021-07-29_23h55.44.992,Simcolourproject_2stim_asymm_v5,2020.2.10,Win32,60,61025ae37ef11b136ea224fe,,,,,,,,,56,64.66668767,31.99999022,1,0,0,response1disk,,6,-2.666606983,1.333322644,1,0,0,rectangle,-2.666606983,1.333322644,1,0,0,-2.666606983,1.333322644,1,0,0,0,4,4,111,1,,,,,,,,
,,,,,,,,,,,,,FF,,,,,,,,1.567,,,,,,,,,,,,,,,,,,,,,,61004a341d22b1d5df6dd925,6103760b924b4aee458743b3,2021-07-29_23h55.44.992,Simcolourproject_2stim_asymm_v5,2020.2.10,Win32,60,61025ae37ef11b136ea224fe,,,,,,,,,3839,-75.3333165,-48.66667885,1,0,0,response5disk,,2,7.333393315,7.333322823,1,0,0,rectangle,7.333393315,7.333322823,1,0,0,7.333393315,7.333322823,1,0,0,0,5,5,107,1,,,,,,,,
,,,,,,,,,,,,,FF,,,,,,,,1.4181,,,,,,,,,,,,,,,,,,,,,,61004a341d22b1d5df6dd925,6103760b924b4aee458743b3,2021-07-29_23h55.44.992,Simcolourproject_2stim_asymm_v5,2020.2.10,Win32,60,61025ae37ef11b136ea224fe,,,,,,,,,2178,79.33335477,31.33330319,1,0,0,response1disk,,6,-0.666606923,0.666655958,1,0,0,rectangle,-0.666606923,0.666655958,1,0,0,-0.666606923,0.666655958,1,0,0,0,6,6,24,1,,,,,,,,
,,,,,,,,,,,,,FF,,,,,,,,1.2171,,,,,,,,,,,,,,,,,,,,,,61004a341d22b1d5df6dd925,6103760b924b4aee458743b3,2021-07-29_23h55.44.992,Simcolourproject_2stim_asymm_v5,2020.2.10,Win32,60,61025ae37ef11b136ea224fe,,,,,,,,,771,53.333354,66.66665792,1,0,0,response1disk,,7,6.000019252,3.99998939,1,0,0,rectangle,6.000019252,3.99998939,1,0,0,6.000019252,3.99998939,1,0,0,0,7,7,0,1,,,,,,,,
,,,,,,,,,,,,,FF,,,,,,,,1.8999,,,,,,,,,,,,,,,,,,,,,,61004a341d22b1d5df6dd925,6103760b924b4aee458743b3,2021-07-29_23h55.44.992,Simcolourproject_2stim_asymm_v5,2020.2.10,Win32,60,61025ae37ef11b136ea224fe,,,,,,,,,1726,70.00002116,33.33330325,1,0,0,response1disk,,6,3.333393196,4.666656077,1,0,0,rectangle,3.333393196,4.666656077,1,0,0,3.333393196,4.666656077,1,0,0,0,8,8,87,1,,,,,,,,
,,,,,,,,,,,,,FF,,,,,,,,1.4504,,,,,,,,,,,,,,,,,,,,,,61004a341d22b1d5df6dd925,6103760b924b4aee458743b3,2021-07-29_23h55.44.992,Simcolourproject_2stim_asymm_v5,2020.2.10,Win32,60,61025ae37ef11b136ea224fe,,,,,,,,,2134,32.66668671,61.33330409,1,0,0,response1disk,,7,8.000019312,-1.07288E-05,1,0,0,rectangle,8.000019312,-1.07288E-05,1,0,0,8.000019312,-1.07288E-05,1,0,0,0,9,9,128,1,,,,,,,,
,,,,,,,,,,,,,FF,,,,,,,,1.4635,,,,,,,,,,,,,,,,,,,,,,61004a341d22b1d5df6dd925,6103760b924b4aee458743b3,2021-07-29_23h55.44.992,Simcolourproject_2stim_asymm_v5,2020.2.10,Win32,60,61025ae37ef11b136ea224fe,,,,,,,,,2367,53.333354,-86.00001329,1,0,0,response3disk,,4,6.666685939,-4.000010848,1,0,0,rectangle,6.666685939,-4.000010848,1,0,0,6.666685939,-4.000010848,1,0,0,0,10,10,9,1,,,,,,,,
,,,,,,,,,,,,,FF,,,,,,,,3.4545,,,,,,,,,,,,,,,,,,,,,,61004a341d22b1d5df6dd925,6103760b924b4aee458743b3,2021-07-29_23h55.44.992,Simcolourproject_2stim_asymm_v5,2020.2.10,Win32,60,61025ae37ef11b136ea224fe,,,,,,,,,2785,64.00002098,-43.33334535,1,0,0,response3disk,,5,2.66668582,-1.07288E-05,1,0,0,rectangle,2.66668582,-1.07288E-05,1,0,0,2.66668582,-1.07288E-05,1,0,0,0,11,11,64,1,,,,,,,,
,,,,,,,,,,,,,FF,,,,,,,,2.1841,,,,,,,,,,,,,,,,,,,,,,61004a341d22b1d5df6dd925,6103760b924b4aee458743b3,2021-07-29_23h55.44.992,Simcolourproject_2stim_asymm_v5,2020.2.10,Win32,60,61025ae37ef11b136ea224fe,,,,,,,,,781,47.33335382,65.33330421,1,0,0,response1disk,,7,8.000019312,1.999989331,1,0,0,rectangle,8.000019312,1.999989331,1,0,0,8.000019312,1.999989331,1,0,0,0,12,12,140,1,,,,,,,,
,,,,,,,,,,,,,FF,,,,,,,,1.2008,,,,,,,,,,,,,,,,,,,,,,61004a341d22b1d5df6dd925,6103760b924b4aee458743b3,2021-07-29_23h55.44.992,Simcolourproject_2stim_asymm_v5,2020.2.10,Win32,60,61025ae37ef11b136ea224fe,,,,,,,,,2287,31.33339403,-74.00001293,1,0,0,response3disk,,4,-11.99998128,-5.333344221,1,0,0,rectangle,-11.99998128,-5.333344221,1,0,0,-11.99998128,-5.333344221,1,0,0,0,13,13,138,1,,,,,,,,
,,,,,,,,,,,,,FF,,,,,,,,3.8019,,,,,,,,,,,,,,,,,,,,,,61004a341d22b1d5df6dd925,6103760b924b4aee458743b3,2021-07-29_23h55.44.992,Simcolourproject_2stim_asymm_v5,2020.2.10,Win32,60,61025ae37ef11b136ea224fe,,,,,,,,,873,38.66668689,-92.66668016,1,0,0,response3disk,,4,-16.6666074,1.333322644,1,0,0,rectangle,-16.6666074,1.333322644,1,0,0,-16.6666074,1.333322644,1,0,0,0,14,14,6,1,,,,,,,,
,,,,,,,,,,,,,FF,,,,,,,,2.7505,,,,,,,,,,,,,,,,,,,,,,61004a341d22b1d5df6dd925,6103760b924b4aee458743b3,2021-07-29_23h55.44.992,Simcolourproject_2stim_asymm_v5,2020.2.10,Win32,60,61025ae37ef11b136ea224fe,,,,,,,,,3579,40.66668695,80.66665834,1,0,0,response1disk,,7,-3.999981046,3.333322704,1,0,0,rectangle,-23.33331496,61.99999112,1,0,0,4.666685879,2.666656017,1,0,0,0,15,15,5,1,,response7disk_3,TRUE,0,0,"[72,253,172,117,311,235,201,119,254,177,223,16,3,90,50,261,263,123,310,284]",1.4794,rectangle
,,,,,,,,,,,,,FF,,,,,,,,1.0002,,,,,,,,,,,,,,,,,,,,,,61004a341d22b1d5df6dd925,6103760b924b4aee458743b3,2021-07-29_23h55.44.992,Simcolourproject_2stim_asymm_v5,2020.2.10,Win32,60,61025ae37ef11b136ea224fe,,,,,,,,,2623,48.0000205,85.3333048,1,0,0,response1disk,,7,-1.3333143,7.99998951,1,0,0,rectangle,-1.3333143,7.99998951,1,0,0,-1.3333143,7.99998951,1,0,0,0,16,16,103,1,,,,,,,,
,,,,,,,,,,,,,FF,,,,,,,,1.2502,,,,,,,,,,,,,,,,,,,,,,61004a341d22b1d5df6dd925,6103760b924b4aee458743b3,2021-07-29_23h55.44.992,Simcolourproject_2stim_asymm_v5,2020.2.10,Win32,60,61025ae37ef11b136ea224fe,,,,,,,,,2357,-68.66660895,-27.33334488,1,0,0,response5disk,,2,0.66668576,-1.07288E-05,1,0,0,rectangle,0.66668576,-1.07288E-05,1,0,0,0.66668576,-1.07288E-05,1,0,0,0,17,17,42,1,,,,,,,,
,,,,,,,,,,,,,FF,,,,,,,,1.8338,,,,,,,,,,,,,,,,,,,,,,61004a341d22b1d5df6dd925,6103760b924b4aee458743b3,2021-07-29_23h55.44.992,Simcolourproject_2stim_asymm_v5,2020.2.10,Win32,60,61025ae37ef11b136ea224fe,,,,,,,,,334,51.33335394,31.99999022,1,0,0,response1disk,,6,1.333393137,7.333322823,1,0,0,rectangle,1.333393137,7.333322823,1,0,0,1.333393137,7.333322823,1,0,0,0,18,18,19,1,,,,,,,,
,,,,,,,,,,,,,FF,,,,,,,,1.1671,,,,,,,,,,,,,,,,,,,,,,61004a341d22b1d5df6dd925,6103760b924b4aee458743b3,2021-07-29_23h55.44.992,Simcolourproject_2stim_asymm_v5,2020.2.10,Win32,60,61025ae37ef11b136ea224fe,,,,,,,,,2065,39.33339427,59.99999106,1,0,0,response1disk,,7,0.66668576,1.999989331,1,0,0,rectangle,0.66668576,1.999989331,1,0,0,0.66668576,1.999989331,1,0,0,0,19,19,155,1,,,,,,,,
,,,,,,,,,,,,,FF,,,,,,,,4.6831,,,,,,,,,,,,,,,,,,,,,,61004a341d22b1d5df6dd925,6103760b924b4aee458743b3,2021-07-29_23h55.44.992,Simcolourproject_2stim_asymm_v5,2020.2.10,Win32,60,61025ae37ef11b136ea224fe,,,,,,,,,917,57.33335412,33.33330325,1,0,0,response1disk,,6,-9.333314538,2.666656017,1,0,0,rectangle,-9.333314538,2.666656017,1,0,0,-9.333314538,2.666656017,1,0,0,0,20,20,153,1,,,,,,,,
,,,,,,,,,,,,,FF,,,,,,,,0.9044,,,,,,,,,,,,,,,,,,,,,,61004a341d22b1d5df6dd925,6103760b924b4aee458743b3,2021-07-29_23h55.44.992,Simcolourproject_2stim_asymm_v5,2020.2.10,Win32,60,61025ae37ef11b136ea224fe,,,,,,,,,4327,-45.33331561,67.33330427,1,0,0,response7disk,,0,2.66668582,-6.000010908,1,0,0,rectangle,2.66668582,-6.000010908,1,0,0,2.66668582,-6.000010908,1,0,0,0,21,21,131,1,,,,,,,,
,,,,,,,,,,,,,FF,,,,,,,,1.3175,,,,,,,,,,,,,,,,,,,,,,61004a341d22b1d5df6dd925,6103760b924b4aee458743b3,2021-07-29_23h55.44.992,Simcolourproject_2stim_asymm_v5,2020.2.10,Win32,60,61025ae37ef11b136ea224fe,,,,,,,,,2204,68.0000211,77.9999916,1,0,0,response1disk,,7,2.66668582,6.666656137,1,0,0,rectangle,2.66668582,6.666656137,1,0,0,2.66668582,6.666656137,1,0,0,0,22,22,122,1,,,,,,,,
,,,,,,,,,,,,,FF,,,,,,,,2.417,,,,,,,,,,,,,,,,,,,,,,61004a341d22b1d5df6dd925,6103760b924b4aee458743b3,2021-07-29_23h55.44.992,Simcolourproject_2stim_asymm_v5,2020.2.10,Win32,60,61025ae37ef11b136ea224fe,,,,,,,,,3864,60.66668755,39.99999046,1,0,0,response1disk,,6,14.00001949,5.99998945,1,0,0,rectangle,14.00001949,5.99998945,1,0,0,14.00001949,5.99998945,1,0,0,0,23,23,151,1,,,,,,,,
,,,,,,,,,,,,,FF,,,,,,,,1.5335,,,,,,,,,,,,,,,,,,,,,,61004a341d22b1d5df6dd925,6103760b924b4aee458743b3,2021-07-29_23h55.44.992,Simcolourproject_2stim_asymm_v5,2020.2.10,Win32,60,61025ae37ef11b136ea224fe,,,,,,,,,4302,58.0000208,-28.66667825,1,0,0,response3disk,,5,1.333393137,6.666656137,1,0,0,rectangle,1.333393137,6.666656137,1,0,0,1.333393137,6.666656137,1,0,0,0,24,24,86,1,,,,,,,,
,,,,,,,,,,,,,FF,,,,,,,,1.4503,,,,,,,,,,,,,,,,,,,,,,61004a341d22b1d5df6dd925,6103760b924b4aee458743b3,2021-07-29_23h55.44.992,Simcolourproject_2stim_asymm_v5,2020.2.10,Win32,60,61025ae37ef11b136ea224fe,,,,,,,,,1260,66.00002104,43.99999058,1,0,0,response1disk,,6,-18.66660746,3.333322704,1,0,0,rectangle,-18.66660746,3.333322704,1,0,0,-18.66660746,3.333322704,1,0,0,0,25,25,74,1,,,,,,,,
,,,,,,,,,,,,,FF,,,,,,,,1.2168,,,,,,,,,,,,,,,,,,,,,,61004a341d22b1d5df6dd925,6103760b924b4aee458743b3,2021-07-29_23h55.44.992,Simcolourproject_2stim_asymm_v5,2020.2.10,Win32,60,61025ae37ef11b136ea224fe,,,,,,,,,4329,-72.66660907,23.33330295,1,0,0,response7disk,,1,4.000019193,2.666656017,1,0,0,rectangle,4.000019193,2.666656017,1,0,0,4.000019193,2.666656017,1,0,0,0,26,26,75,1,,,,,,,,
,,,,,,,,,,,,,FF,,,,,,,,1.4337,,,,,,,,,,,,,,,,,,,,,,61004a341d22b1d5df6dd925,6103760b924b4aee458743b3,2021-07-29_23h55.44.992,Simcolourproject_2stim_asymm_v5,2020.2.10,Win32,60,61025ae37ef11b136ea224fe,,,,,,,,,4287,68.66668779,39.99999046,1,0,0,response1disk,,6,-7.999981165,2.666656017,1,0,0,rectangle,-7.999981165,2.666656017,1,0,0,-7.999981165,2.666656017,1,0,0,0,27,27,85,1,,,,,,,,
,,,,,,,,,,,,,FF,,,,,,,,4.4834,,,,,,,,,,,,,,,,,,,,,,61004a341d22b1d5df6dd925,6103760b924b4aee458743b3,2021-07-29_23h55.44.992,Simcolourproject_2stim_asymm_v5,2020.2.10,Win32,60,61025ae37ef11b136ea224fe,,,,,,,,,3332,57.33335412,-46.66667879,1,0,0,response3disk,,5,2.66668582,3.99998939,1,0,0,rectangle,2.66668582,3.99998939,1,0,0,2.66668582,3.99998939,1,0,0,0,28,28,49,1,,,,,,,,
,,,,,,,,,,,,,FF,,,,,,,,3.7463,,,,,,,,,,,,,,,,,,,,,,61004a341d22b1d5df6dd925,6103760b924b4aee458743b3,2021-07-29_23h55.44.992,Simcolourproject_2stim_asymm_v5,2020.2.10,Win32,60,61025ae37ef11b136ea224fe,,,,,,,,,2167,48.66668719,-30.66667831,1,0,0,response3disk,,5,2.66668582,-3.333344162,1,0,0,rectangle,2.66668582,-3.333344162,1,0,0,2.66668582,-3.333344162,1,0,0,0,29,29,130,1,,,,,,,,
,,,,,,,,,,,,,FF,,,,,,,,3.1629,,,,,,,,,,,,,,,,,,,,,,61004a341d22b1d5df6dd925,6103760b924b4aee458743b3,2021-07-29_23h55.44.992,Simcolourproject_2stim_asymm_v5,2020.2.10,Win32,60,61025ae37ef11b136ea224fe,,,,,,,,,1080,58.0000208,41.33330349,1,0,0,response1disk,,6,2.66668582,-3.333344162,1,0,0,rectangle,2.66668582,-3.333344162,1,0,0,2.66668582,-3.333344162,1,0,0,0,30,30,52,1,,,,,,,,
,,,,,,,,,,,,,FF,,,,,,,,0.8839,,,,,,,,,,,,,,,,,,,,,,61004a341d22b1d5df6dd925,6103760b924b4aee458743b3,2021-07-29_23h55.44.992,Simcolourproject_2stim_asymm_v5,2020.2.10,Win32,60,61025ae37ef11b136ea224fe,,,,,,,,,1859,53.333354,74.66665816,1,0,0,response1disk,,7,6.000019252,7.99998951,1,0,0,rectangle,6.000019252,7.99998951,1,0,0,6.000019252,7.99998951,1,0,0,0,31,31,23,1,,,,,,,,
,,,,,,,,,,,,,FF,,,,,,,,1.8167,,,,,,,,,,,,,,,,,,,,,,61004a341d22b1d5df6dd925,6103760b924b4aee458743b3,2021-07-29_23h55.44.992,Simcolourproject_2stim_asymm_v5,2020.2.10,Win32,60,61025ae37ef11b136ea224fe,,,,,,,,,2947,-64.66660883,43.33330355,1,0,0,response7disk,,1,-8.666607161,-1.333344102,1,0,0,rectangle,-8.666607161,-1.333344102,1,0,0,-8.666607161,-1.333344102,1,0,0,0,32,32,152,1,,,,,,,,
,,,,,,,,,,,,,FF,,,,,,,,1.3554,,,,,,,,,,,,,,,,,,,,,,61004a341d22b1d5df6dd925,6103760b924b4aee458743b3,2021-07-29_23h55.44.992,Simcolourproject_2stim_asymm_v5,2020.2.10,Win32,60,61025ae37ef11b136ea224fe,,,,,,,,,3471,-74.66660913,-38.00001186,1,0,0,response5disk,,2,-4.666607042,-0.666677415,1,0,0,rectangle,-4.666607042,-0.666677415,1,0,0,-4.666607042,-0.666677415,1,0,0,0,33,33,98,1,,,,,,,,
,,,,,,,,,,,,,FF,,,,,,,,1.1631,,,,,,,,,,,,,,,,,,,,,,61004a341d22b1d5df6dd925,6103760b924b4aee458743b3,2021-07-29_23h55.44.992,Simcolourproject_2stim_asymm_v5,2020.2.10,Win32,60,61025ae37ef11b136ea224fe,,,,,,,,,3083,62.66668761,37.33330337,1,0,0,response1disk,,6,-18.66660746,2.666656017,1,0,0,rectangle,-18.66660746,2.666656017,1,0,0,-18.66660746,2.666656017,1,0,0,0,34,34,63,1,,,,,,,,
,,,,,,,,,,,,,FF,,,,,,,,2.0126,,,,,,,,,,,,,,,,,,,,,,61004a341d22b1d5df6dd925,6103760b924b4aee458743b3,2021-07-29_23h55.44.992,Simcolourproject_2stim_asymm_v5,2020.2.10,Win32,60,61025ae37ef11b136ea224fe,,,,,,,,,3123,70.66668785,-25.33334482,1,0,0,response3disk,,5,2.66668582,3.333322704,1,0,0,rectangle,2.66668582,3.333322704,1,0,0,2.66668582,3.333322704,1,0,0,0,35,35,76,1,,,,,,,,
,,,,,,,,,,,,,FF,,,,,,,,2.7836,,,,,,,,,,,,,,,,,,,,,,61004a341d22b1d5df6dd925,6103760b924b4aee458743b3,2021-07-29_23h55.44.992,Simcolourproject_2stim_asymm_v5,2020.2.10,Win32,60,61025ae37ef11b136ea224fe,,,,,,,,,2136,62.66668761,29.99999017,1,0,0,response1disk,,6,12.66668612,3.333322704,1,0,0,rectangle,12.66668612,3.333322704,1,0,0,12.66668612,3.333322704,1,0,0,0,36,36,100,1,,,,,,,,
,,,,,,,,,,,,,FF,,,,,,,,1.4334,,,,,,,,,,,,,,,,,,,,,,61004a341d22b1d5df6dd925,6103760b924b4aee458743b3,2021-07-29_23h55.44.992,Simcolourproject_2stim_asymm_v5,2020.2.10,Win32,60,61025ae37ef11b136ea224fe,,,,,,,,,1003,64.66668767,-34.66667843,1,0,0,response3disk,,5,-1.999980986,2.666656017,1,0,0,rectangle,-1.999980986,2.666656017,1,0,0,-1.999980986,2.666656017,1,0,0,0,37,37,59,1,,,,,,,,
,,,,,,,,,,,,,FF,,,,,,,,1.6305,,,,,,,,,,,,,,,,,,,,,,61004a341d22b1d5df6dd925,6103760b924b4aee458743b3,2021-07-29_23h55.44.992,Simcolourproject_2stim_asymm_v5,2020.2.10,Win32,60,61025ae37ef11b136ea224fe,,,,,,,,,3357,38.00002021,-71.33334619,1,0,0,response3disk,,4,-4.666607042,2.666656017,1,0,0,rectangle,-4.666607042,2.666656017,1,0,0,-4.666607042,2.666656017,1,0,0,0,38,38,124,1,,,,,,,,
,,,,,,,,,,,,,FF,,,,,,,,2.5973,,,,,,,,,,,,,,,,,,,,,,61004a341d22b1d5df6dd925,6103760b924b4aee458743b3,2021-07-29_23h55.44.992,Simcolourproject_2stim_asymm_v5,2020.2.10,Win32,60,61025ae37ef11b136ea224fe,,,,,,,,,1975,64.00002098,33.33330325,1,0,0,response1disk,,6,-7.333314478,9.999989569,1,0,0,rectangle,-7.333314478,9.999989569,1,0,0,-7.333314478,9.999989569,1,0,0,0,39,39,11,1,,,,,,,,
,,,,,,,,,,,,,FF,,,,,,,,0.9996,,,,,,,,,,,,,,,,,,,,,,61004a341d22b1d5df6dd925,6103760b924b4aee458743b3,2021-07-29_23h55.44.992,Simcolourproject_2stim_asymm_v5,2020.2.10,Win32,60,61025ae37ef11b136ea224fe,,,,,,,,,2889,-73.33331645,-44.66667873,1,0,0,response5disk,,2,-6.666607102,-1.07288E-05,1,0,0,rectangle,-6.666607102,-1.07288E-05,1,0,0,-6.666607102,-1.07288E-05,1,0,0,0,40,40,102,1,,,,,,,,
,,,,,,,,,,,,,FF,,,,,,,,1.0169,,,,,,,,,,,,,,,,,,,,,,61004a341d22b1d5df6dd925,6103760b924b4aee458743b3,2021-07-29_23h55.44.992,Simcolourproject_2stim_asymm_v5,2020.2.10,Win32,60,61025ae37ef11b136ea224fe,,,,,,,,,1618,-64.66660883,-34.66667843,1,0,0,response5disk,,2,4.666685879,-1.333344102,1,0,0,rectangle,4.666685879,-1.333344102,1,0,0,4.666685879,-1.333344102,1,0,0,0,41,41,90,1,,,,,,,,
,,,,,,,,,,,,,FF,,,,,,,,1.1003,,,,,,,,,,,,,,,,,,,,,,61004a341d22b1d5df6dd925,6103760b924b4aee458743b3,2021-07-29_23h55.44.992,Simcolourproject_2stim_asymm_v5,2020.2.10,Win32,60,61025ae37ef11b136ea224fe,,,,,,,,,594,62.00002092,33.33330325,1,0,0,response1disk,,6,0.66668576,-1.333344102,1,0,0,rectangle,0.66668576,-1.333344102,1,0,0,0.66668576,-1.333344102,1,0,0,0,42,42,39,1,,,,,,,,
,,,,,,,,,,,,,FF,,,,,,,,1.4505,,,,,,,,,,,,,,,,,,,,,,61004a341d22b1d5df6dd925,6103760b924b4aee458743b3,2021-07-29_23h55.44.992,Simcolourproject_2stim_asymm_v5,2020.2.10,Win32,60,61025ae37ef11b136ea224fe,,,,,,,,,945,64.66668767,-58.00001246,1,0,0,response3disk,,5,-3.333314359,-6.000010908,1,0,0,rectangle,-3.333314359,-6.000010908,1,0,0,-3.333314359,-6.000010908,1,0,0,0,43,43,132,1,,,,,,,,
,,,,,,,,,,,,,FF,,,,,,,,0.834,,,,,,,,,,,,,,,,,,,,,,61004a341d22b1d5df6dd925,6103760b924b4aee458743b3,2021-07-29_23h55.44.992,Simcolourproject_2stim_asymm_v5,2020.2.10,Win32,60,61025ae37ef11b136ea224fe,,,,,,,,,3842,36.66668683,63.99999118,1,0,0,response1disk,,7,1.333393137,-1.07288E-05,1,0,0,rectangle,1.333393137,-1.07288E-05,1,0,0,1.333393137,-1.07288E-05,1,0,0,0,44,44,80,1,,,,,,,,
,,,,,,,,,,,,,FF,,,,,,,,2.0848,,,,,,,,,,,,,,,,,,,,,,61004a341d22b1d5df6dd925,6103760b924b4aee458743b3,2021-07-29_23h55.44.992,Simcolourproject_2stim_asymm_v5,2020.2.10,Win32,60,61025ae37ef11b136ea224fe,,,,,,,,,2654,-50.66660841,-52.66667897,1,0,0,response5disk,,3,-3.333314359,9.333322883,1,0,0,rectangle,-3.333314359,9.333322883,1,0,0,-3.333314359,9.333322883,1,0,0,0,45,45,41,1,,,,,,,,
,,,,,,,,,,,,,FF,,,,,,,,2.2472,,,,,,,,,,,,,,,,,,,,,,61004a341d22b1d5df6dd925,6103760b924b4aee458743b3,2021-07-29_23h55.44.992,Simcolourproject_2stim_asymm_v5,2020.2.10,Win32,60,61025ae37ef11b136ea224fe,,,,,,,,,2534,-28.66660776,-53.33334565,1,0,0,response5disk,,3,-2.666606983,9.999989569,1,0,0,rectangle,-2.666606983,9.999989569,1,0,0,-2.666606983,9.999989569,1,0,0,0,46,46,50,1,,,,,,,,
,,,,,,,,,,,,,FF,,,,,,,,1.3301,,,,,,,,,,,,,,,,,,,,,,61004a341d22b1d5df6dd925,6103760b924b4aee458743b3,2021-07-29_23h55.44.992,Simcolourproject_2stim_asymm_v5,2020.2.10,Win32,60,61025ae37ef11b136ea224fe,,,,,,,,,2908,50.00002056,-59.33334583,1,0,0,response3disk,,4,8.666685998,-7.333344281,1,0,0,rectangle,8.666685998,-7.333344281,1,0,0,8.666685998,-7.333344281,1,0,0,0,47,47,81,1,,,,,,,,
,,,,,,,,,,,,,FF,,,,,,,,2.151,,,,,,,,,,,,,,,,,,,,,,61004a341d22b1d5df6dd925,6103760b924b4aee458743b3,2021-07-29_23h55.44.992,Simcolourproject_2stim_asymm_v5,2020.2.10,Win32,60,61025ae37ef11b136ea224fe,,,,,,,,,2901,-78.66660925,-35.33334512,1,0,0,response5disk,,2,-3.999981046,-2.000010788,1,0,0,rectangle,-3.999981046,-2.000010788,1,0,0,-3.999981046,-2.000010788,1,0,0,0,48,48,133,1,,,,,,,,
,,,,,,,,,,,,,FF,,,,,,,,1.1508,,,,,,,,,,,,,,,,,,,,,,61004a341d22b1d5df6dd925,6103760b924b4aee458743b3,2021-07-29_23h55.44.992,Simcolourproject_2stim_asymm_v5,2020.2.10,Win32,60,61025ae37ef11b136ea224fe,,,,,,,,,576,60.66668755,43.99999058,1,0,0,response1disk,,6,7.333393315,-2.666677475,1,0,0,rectangle,67.33335441,-35.33334512,1,0,0,-0.666606923,1.999989331,1,0,0,0,49,49,109,1,,response3disk_3,TRUE,5,5,"[72,253,172,117,311,235,201,119,254,177,223,16,3,90,50,261,263,123,310,284]",3.321,rectangle
,,,,,,,,,,,,,FF,,,,,,,,1.6506,,,,,,,,,,,,,,,,,,,,,,61004a341d22b1d5df6dd925,6103760b924b4aee458743b3,2021-07-29_23h55.44.992,Simcolourproject_2stim_asymm_v5,2020.2.10,Win32,60,61025ae37ef11b136ea224fe,,,,,,,,,2054,56.00002074,-74.66667962,1,0,0,response3disk,,4,-3.999981046,1.333322644,1,0,0,rectangle,-3.999981046,1.333322644,1,0,0,-3.999981046,1.333322644,1,0,0,0,50,50,58,1,,,,,,,,
,,,,,,,,,,,,,FF,,,,,,,,1.4333,,,,,,,,,,,,,,,,,,,,,,61004a341d22b1d5df6dd925,6103760b924b4aee458743b3,2021-07-29_23h55.44.992,Simcolourproject_2stim_asymm_v5,2020.2.10,Win32,60,61025ae37ef11b136ea224fe,,,,,,,,,3715,-34.66660794,-60.00001252,1,0,0,response5disk,,3,4.666685879,3.333322704,1,0,0,rectangle,4.666685879,3.333322704,1,0,0,4.666685879,3.333322704,1,0,0,0,51,51,43,1,,,,,,,,
,,,,,,,,,,,,,FF,,,,,,,,6.1539,,,,,,,,,,,,,,,,,,,,,,61004a341d22b1d5df6dd925,6103760b924b4aee458743b3,2021-07-29_23h55.44.992,Simcolourproject_2stim_asymm_v5,2020.2.10,Win32,60,61025ae37ef11b136ea224fe,,,,,,,,,955,80.00002146,-26.0000115,1,0,0,response3disk,,5,2.000019133,-4.000010848,1,0,0,rectangle,2.000019133,-4.000010848,1,0,0,2.000019133,-4.000010848,1,0,0,0,52,52,146,1,,,,,,,,
,,,,,,,,,,,,,FF,,,,,,,,4.0373,,,,,,,,,,,,,,,,,,,,,,61004a341d22b1d5df6dd925,6103760b924b4aee458743b3,2021-07-29_23h55.44.992,Simcolourproject_2stim_asymm_v5,2020.2.10,Win32,60,61025ae37ef11b136ea224fe,,,,,,,,,2408,43.3333537,63.99999118,1,0,0,response1disk,,7,1.333393137,10.66665626,1,0,0,rectangle,1.333393137,10.66665626,1,0,0,1.333393137,10.66665626,1,0,0,0,53,53,68,1,,,,,,,,
,,,,,,,,,,,,,FF,,,,,,,,1.2532,,,,,,,,,,,,,,,,,,,,,,61004a341d22b1d5df6dd925,6103760b924b4aee458743b3,2021-07-29_23h55.44.992,Simcolourproject_2stim_asymm_v5,2020.2.10,Win32,60,61025ae37ef11b136ea224fe,,,,,,,,,2284,32.00002003,-62.66667926,1,0,0,response3disk,,4,-5.333314419,3.99998939,1,0,0,rectangle,-5.333314419,3.99998939,1,0,0,-5.333314419,3.99998939,1,0,0,0,54,54,129,1,,,,,,,,
,,,,,,,,,,,,,FF,,,,,,,,1.0847,,,,,,,,,,,,,,,,,,,,,,61004a341d22b1d5df6dd925,6103760b924b4aee458743b3,2021-07-29_23h55.44.992,Simcolourproject_2stim_asymm_v5,2020.2.10,Win32,60,61025ae37ef11b136ea224fe,,,,,,,,,3017,72.66668791,40.66665715,1,0,0,response1disk,,6,-8.666607161,10.66665626,1,0,0,rectangle,-8.666607161,10.66665626,1,0,0,-8.666607161,10.66665626,1,0,0,0,55,55,40,1,,,,,,,,
,,,,,,,,,,,,,FF,,,,,,,,1.6503,,,,,,,,,,,,,,,,,,,,,,61004a341d22b1d5df6dd925,6103760b924b4aee458743b3,2021-07-29_23h55.44.992,Simcolourproject_2stim_asymm_v5,2020.2.10,Win32,60,61025ae37ef11b136ea224fe,,,,,,,,,573,34.66668677,92.6666587,1,0,0,response1disk,,7,-6.666607102,5.333322763,1,0,0,rectangle,-6.666607102,5.333322763,1,0,0,-6.666607102,5.333322763,1,0,0,0,56,56,136,1,,,,,,,,
,,,,,,,,,,,,,FF,,,,,,,,0.9011,,,,,,,,,,,,,,,,,,,,,,61004a341d22b1d5df6dd925,6103760b924b4aee458743b3,2021-07-29_23h55.44.992,Simcolourproject_2stim_asymm_v5,2020.2.10,Win32,60,61025ae37ef11b136ea224fe,,,,,,,,,2845,70.66668785,-32.66667837,1,0,0,response3disk,,5,4.000019193,-2.000010788,1,0,0,rectangle,4.000019193,-2.000010788,1,0,0,4.000019193,-2.000010788,1,0,0,0,57,57,78,1,,,,,,,,
,,,,,,,,,,,,,FF,,,,,,,,1.306,,,,,,,,,,,,,,,,,,,,,,61004a341d22b1d5df6dd925,6103760b924b4aee458743b3,2021-07-29_23h55.44.992,Simcolourproject_2stim_asymm_v5,2020.2.10,Win32,60,61025ae37ef11b136ea224fe,,,,,,,,,82,-44.66660823,-64.00001264,1,0,0,response5disk,,3,-1.999980986,9.333322883,1,0,0,rectangle,-1.999980986,9.333322883,1,0,0,-1.999980986,9.333322883,1,0,0,0,58,58,156,1,,,,,,,,
,,,,,,,,,,,,,FF,,,,,,,,0.8668,,,,,,,,,,,,,,,,,,,,,,61004a341d22b1d5df6dd925,6103760b924b4aee458743b3,2021-07-29_23h55.44.992,Simcolourproject_2stim_asymm_v5,2020.2.10,Win32,60,61025ae37ef11b136ea224fe,,,,,,,,,1244,46.00002044,33.99999028,1,0,0,response1disk,,6,-11.99998128,-2.666677475,1,0,0,rectangle,-11.99998128,-2.666677475,1,0,0,-11.99998128,-2.666677475,1,0,0,0,59,59,105,1,,,,,,,,
,,,,,,,,,,,,,FF,,,,,,,,2.1499,,,,,,,,,,,,,,,,,,,,,,61004a341d22b1d5df6dd925,6103760b924b4aee458743b3,2021-07-29_23h55.44.992,Simcolourproject_2stim_asymm_v5,2020.2.10,Win32,60,61025ae37ef11b136ea224fe,,,,,,,,,3141,35.33339415,-56.0000124,1,0,0,response3disk,,4,1.9735E-05,0.666655958,1,0,0,rectangle,1.9735E-05,0.666655958,1,0,0,1.9735E-05,0.666655958,1,0,0,0,60,60,118,1,,,,,,,,
,,,,,,,,,,,,,FF,,,,,,,,1.1011,,,,,,,,,,,,,,,,,,,,,,61004a341d22b1d5df6dd925,6103760b924b4aee458743b3,2021-07-29_23h55.44.992,Simcolourproject_2stim_asymm_v5,2020.2.10,Win32,60,61025ae37ef11b136ea224fe,,,,,,,,,3558,-36.666608,60.66665775,1,0,0,response7disk,,0,0.66668576,-4.000010848,1,0,0,rectangle,0.66668576,-4.000010848,1,0,0,0.66668576,-4.000010848,1,0,0,0,61,61,1,1,,,,,,,,
,,,,,,,,,,,,,FF,,,,,,,,1.467,,,,,,,,,,,,,,,,,,,,,,61004a341d22b1d5df6dd925,6103760b924b4aee458743b3,2021-07-29_23h55.44.992,Simcolourproject_2stim_asymm_v5,2020.2.10,Win32,60,61025ae37ef11b136ea224fe,,,,,,,,,1009,27.33339391,66.66665792,1,0,0,response1disk,,7,-19.33331484,-7.333344281,1,0,0,rectangle,-19.33331484,-7.333344281,1,0,0,-19.33331484,-7.333344281,1,0,0,0,62,62,92,1,,,,,,,,
,,,,,,,,,,,,,FF,,,,,,,,0.9343,,,,,,,,,,,,,,,,,,,,,,61004a341d22b1d5df6dd925,6103760b924b4aee458743b3,2021-07-29_23h55.44.992,Simcolourproject_2stim_asymm_v5,2020.2.10,Win32,60,61025ae37ef11b136ea224fe,,,,,,,,,1134,-66.66660889,-25.33334482,1,0,0,response5disk,,2,-5.999981105,5.333322763,1,0,0,rectangle,-5.999981105,5.333322763,1,0,0,-5.999981105,5.333322763,1,0,0,0,63,63,123,1,,,,,,,,
,,,,,,,,,,,,,FF,,,,,,,,0.8505,,,,,,,,,,,,,,,,,,,,,,61004a341d22b1d5df6dd925,6103760b924b4aee458743b3,2021-07-29_23h55.44.992,Simcolourproject_2stim_asymm_v5,2020.2.10,Win32,60,61025ae37ef11b136ea224fe,,,,,,,,,2668,-86.66660949,-41.33334529,1,0,0,response5disk,,2,-9.999981225,-1.333344102,1,0,0,rectangle,-9.999981225,-1.333344102,1,0,0,-9.999981225,-1.333344102,1,0,0,0,64,64,21,1,,,,,,,,
,,,,,,,,,,,,,FF,,,,,,,,0.8171,,,,,,,,,,,,,,,,,,,,,,61004a341d22b1d5df6dd925,6103760b924b4aee458743b3,2021-07-29_23h55.44.992,Simcolourproject_2stim_asymm_v5,2020.2.10,Win32,60,61025ae37ef11b136ea224fe,,,,,,,,,382,60.66668755,34.66665697,1,0,0,response1disk,,6,0.66668576,-8.666677654,1,0,0,rectangle,0.66668576,-8.666677654,1,0,0,0.66668576,-8.666677654,1,0,0,0,65,65,20,1,,,,,,,,
,,,,,,,,,,,,,FF,,,,,,,,1.2718,,,,,,,,,,,,,,,,,,,,,,61004a341d22b1d5df6dd925,6103760b924b4aee458743b3,2021-07-29_23h55.44.992,Simcolourproject_2stim_asymm_v5,2020.2.10,Win32,60,61025ae37ef11b136ea224fe,,,,,,,,,598,52.00002062,-32.00001168,1,0,0,response3disk,,5,-12.66660728,3.99998939,1,0,0,rectangle,-12.66660728,3.99998939,1,0,0,-12.66660728,3.99998939,1,0,0,0,66,66,149,1,,,,,,,,
,,,,,,,,,,,,,FF,,,,,,,,5.3055,,,,,,,,,,,,,,,,,,,,,,61004a341d22b1d5df6dd925,6103760b924b4aee458743b3,2021-07-29_23h55.44.992,Simcolourproject_2stim_asymm_v5,2020.2.10,Win32,60,61025ae37ef11b136ea224fe,,,,,,,,,142,68.0000211,38.66665709,1,0,0,response1disk,,6,-7.333314478,5.99998945,1,0,0,rectangle,-7.333314478,5.99998945,1,0,0,-7.333314478,5.99998945,1,0,0,0,67,67,120,1,,,,,,,,
,,,,,,,,,,,,,FF,,,,,,,,0.8881,,,,,,,,,,,,,,,,,,,,,,61004a341d22b1d5df6dd925,6103760b924b4aee458743b3,2021-07-29_23h55.44.992,Simcolourproject_2stim_asymm_v5,2020.2.10,Win32,60,61025ae37ef11b136ea224fe,,,,,,,,,2680,64.00002098,-40.00001192,1,0,0,response3disk,,5,-18.66660746,3.99998939,1,0,0,rectangle,-18.66660746,3.99998939,1,0,0,-18.66660746,3.99998939,1,0,0,0,68,68,137,1,,,,,,,,
,,,,,,,,,,,,,FF,,,,,,,,0.8534,,,,,,,,,,,,,,,,,,,,,,61004a341d22b1d5df6dd925,6103760b924b4aee458743b3,2021-07-29_23h55.44.992,Simcolourproject_2stim_asymm_v5,2020.2.10,Win32,60,61025ae37ef11b136ea224fe,,,,,,,,,3159,-39.33331543,-52.00001228,1,0,0,response5disk,,3,-13.33331466,10.66665626,1,0,0,rectangle,-13.33331466,10.66665626,1,0,0,-13.33331466,10.66665626,1,0,0,0,69,69,47,1,,,,,,,,
,,,,,,,,,,,,,FF,,,,,,,,0.788,,,,,,,,,,,,,,,,,,,,,,61004a341d22b1d5df6dd925,6103760b924b4aee458743b3,2021-07-29_23h55.44.992,Simcolourproject_2stim_asymm_v5,2020.2.10,Win32,60,61025ae37ef11b136ea224fe,,,,,,,,,3244,-59.99998271,30.66665685,1,0,0,response7disk,,1,5.333393256,-0.666677415,1,0,0,rectangle,5.333393256,-0.666677415,1,0,0,5.333393256,-0.666677415,1,0,0,0,70,70,148,1,,,,,,,,
,,,,,,,,,,,,,FF,,,,,,,,1.9349,,,,,,,,,,,,,,,,,,,,,,61004a341d22b1d5df6dd925,6103760b924b4aee458743b3,2021-07-29_23h55.44.992,Simcolourproject_2stim_asymm_v5,2020.2.10,Win32,60,61025ae37ef11b136ea224fe,,,,,,,,,1545,71.33335453,-49.33334553,1,0,0,response3disk,,5,2.66668582,-3.333344162,1,0,0,rectangle,-83.99998343,46.66665733,1,0,0,-9.333314538,2.666656017,1,0,0,0,71,71,126,1,,response7disk_3,TRUE,1,1,"[72,253,172,117,311,235,201,119,254,177,223,16,3,90,50,261,263,123,310,284]",1.3339,rectangle
,,,,,,,,,,,,,FF,,,,,,,,0.8512,,,,,,,,,,,,,,,,,,,,,,61004a341d22b1d5df6dd925,6103760b924b4aee458743b3,2021-07-29_23h55.44.992,Simcolourproject_2stim_asymm_v5,2020.2.10,Win32,60,61025ae37ef11b136ea224fe,,,,,,,,,2074,57.33335412,43.33330355,1,0,0,response1disk,,6,-18.66660746,4.666656077,1,0,0,rectangle,-18.66660746,4.666656077,1,0,0,-18.66660746,4.666656077,1,0,0,0,72,72,89,1,,,,,,,,
,,,,,,,,,,,,,FF,,,,,,,,1.018,,,,,,,,,,,,,,,,,,,,,,61004a341d22b1d5df6dd925,6103760b924b4aee458743b3,2021-07-29_23h55.44.992,Simcolourproject_2stim_asymm_v5,2020.2.10,Win32,60,61025ae37ef11b136ea224fe,,,,,,,,,3945,-46.66660829,-57.33334577,1,0,0,response5disk,,3,-12.66660728,-4.000010848,1,0,0,rectangle,-12.66660728,-4.000010848,1,0,0,-12.66660728,-4.000010848,1,0,0,0,73,73,79,1,,,,,,,,
,,,,,,,,,,,,,FF,,,,,,,,0.9618,,,,,,,,,,,,,,,,,,,,,,61004a341d22b1d5df6dd925,6103760b924b4aee458743b3,2021-07-29_23h55.44.992,Simcolourproject_2stim_asymm_v5,2020.2.10,Win32,60,61025ae37ef11b136ea224fe,,,,,,,,,229,77.33335471,44.66665727,1,0,0,response1disk,,6,1.9735E-05,5.99998945,1,0,0,rectangle,1.9735E-05,5.99998945,1,0,0,1.9735E-05,5.99998945,1,0,0,0,74,74,143,1,,,,,,,,
,,,,,,,,,,,,,FF,,,,,,,,1.0688,,,,,,,,,,,,,,,,,,,,,,61004a341d22b1d5df6dd925,6103760b924b4aee458743b3,2021-07-29_23h55.44.992,Simcolourproject_2stim_asymm_v5,2020.2.10,Win32,60,61025ae37ef11b136ea224fe,,,,,,,,,2342,31.33339403,47.33330367,1,0,0,response1disk,,7,4.000019193,5.333322763,1,0,0,rectangle,4.000019193,5.333322763,1,0,0,4.000019193,5.333322763,1,0,0,0,75,75,145,1,,,,,,,,
,,,,,,,,,,,,,FF,,,,,,,,0.8878,,,,,,,,,,,,,,,,,,,,,,61004a341d22b1d5df6dd925,6103760b924b4aee458743b3,2021-07-29_23h55.44.992,Simcolourproject_2stim_asymm_v5,2020.2.10,Win32,60,61025ae37ef11b136ea224fe,,,,,,,,,1210,21.33339373,66.66665792,1,0,0,response1disk,,7,4.666685879,1.999989331,1,0,0,rectangle,4.666685879,1.999989331,1,0,0,4.666685879,1.999989331,1,0,0,0,76,76,158,1,,,,,,,,
,,,,,,,,,,,,,FF,,,,,,,,0.9205,,,,,,,,,,,,,,,,,,,,,,61004a341d22b1d5df6dd925,6103760b924b4aee458743b3,2021-07-29_23h55.44.992,Simcolourproject_2stim_asymm_v5,2020.2.10,Win32,60,61025ae37ef11b136ea224fe,,,,,,,,,4164,-61.33331609,22.66665661,1,0,0,response7disk,,1,12.66668612,8.666656196,1,0,0,rectangle,12.66668612,8.666656196,1,0,0,12.66668612,8.666656196,1,0,0,0,77,77,3,1,,,,,,,,
,,,,,,,,,,,,,FF,,,,,,,,0.6975,,,,,,,,,,,,,,,,,,,,,,61004a341d22b1d5df6dd925,6103760b924b4aee458743b3,2021-07-29_23h55.44.992,Simcolourproject_2stim_asymm_v5,2020.2.10,Win32,60,61025ae37ef11b136ea224fe,,,,,,,,,2941,-68.66660895,29.33330313,1,0,0,response7disk,,1,3.333393196,2.666656017,1,0,0,rectangle,3.333393196,2.666656017,1,0,0,3.333393196,2.666656017,1,0,0,0,78,78,8,1,,,,,,,,
,,,,,,,,,,,,,FF,,,,,,,,0.75,,,,,,,,,,,,,,,,,,,,,,61004a341d22b1d5df6dd925,6103760b924b4aee458743b3,2021-07-29_23h55.44.992,Simcolourproject_2stim_asymm_v5,2020.2.10,Win32,60,61025ae37ef11b136ea224fe,,,,,,,,,19,78.0000214,31.33330319,1,0,0,response1disk,,6,10.66668606,-0.666677415,1,0,0,rectangle,10.66668606,-0.666677415,1,0,0,10.66668606,-0.666677415,1,0,0,0,79,79,30,1,,,,,,,,
,,,,,,,,,,,,,FF,,,,,,,,2.5166,,,,,,,,,,,,,,,,,,,,,,61004a341d22b1d5df6dd925,6103760b924b4aee458743b3,2021-07-29_23h55.44.992,Simcolourproject_2stim_asymm_v5,2020.2.10,Win32,60,61025ae37ef11b136ea224fe,,,,,,,,,92,73.33335459,26.66665673,1,0,0,response1disk,,6,22.66668642,8.666656196,1,0,0,rectangle,22.66668642,8.666656196,1,0,0,22.66668642,8.666656196,1,0,0,0,80,80,15,1,,,,,,,,
,,,,,,,,,,,,,FF,,,,,,,,1.1003,,,,,,,,,,,,,,,,,,,,,,61004a341d22b1d5df6dd925,6103760b924b4aee458743b3,2021-07-29_23h55.44.992,Simcolourproject_2stim_asymm_v5,2020.2.10,Win32,60,61025ae37ef11b136ea224fe,,,,,,,,,1169,56.00002074,19.99998987,1,0,0,response1disk,,6,-5.999981105,-1.07288E-05,1,0,0,rectangle,-5.999981105,-1.07288E-05,1,0,0,-5.999981105,-1.07288E-05,1,0,0,0,81,81,112,1,,,,,,,,
,,,,,,,,,,,,,FF,,,,,,,,2.3838,,,,,,,,,,,,,,,,,,,,,,61004a341d22b1d5df6dd925,6103760b924b4aee458743b3,2021-07-29_23h55.44.992,Simcolourproject_2stim_asymm_v5,2020.2.10,Win32,60,61025ae37ef11b136ea224fe,,,,,,,,,1895,-82.66660937,35.99999034,1,0,0,response7disk,,1,20.66668636,1.999989331,1,0,0,rectangle,20.66668636,1.999989331,1,0,0,20.66668636,1.999989331,1,0,0,0,82,82,51,1,,,,,,,,
,,,,,,,,,,,,,FF,,,,,,,,0.6216,,,,,,,,,,,,,,,,,,,,,,61004a341d22b1d5df6dd925,6103760b924b4aee458743b3,2021-07-29_23h55.44.992,Simcolourproject_2stim_asymm_v5,2020.2.10,Win32,60,61025ae37ef11b136ea224fe,,,,,,,,,1445,-28.66660776,97.99999219,1,0,0,response7disk,,0,18.00001961,1.999989331,1,0,0,rectangle,18.00001961,1.999989331,1,0,0,18.00001961,1.999989331,1,0,0,0,83,83,134,1,,,,,,,,
,,,,,,,,,,,,,FF,,,,,,,,1.8049,,,,,,,,,,,,,,,,,,,,,,61004a341d22b1d5df6dd925,6103760b924b4aee458743b3,2021-07-29_23h55.44.992,Simcolourproject_2stim_asymm_v5,2020.2.10,Win32,60,61025ae37ef11b136ea224fe,,,,,,,,,3961,89.33335507,-49.33334553,1,0,0,response3disk,,5,4.666685879,-1.07288E-05,1,0,0,rectangle,4.666685879,-1.07288E-05,1,0,0,4.666685879,-1.07288E-05,1,0,0,0,84,84,31,1,,,,,,,,
,,,,,,,,,,,,,FF,,,,,,,,1.4329,,,,,,,,,,,,,,,,,,,,,,61004a341d22b1d5df6dd925,6103760b924b4aee458743b3,2021-07-29_23h55.44.992,Simcolourproject_2stim_asymm_v5,2020.2.10,Win32,60,61025ae37ef11b136ea224fe,,,,,,,,,3403,64.00002098,42.66665721,1,0,0,response1disk,,6,9.333393375,11.33332294,1,0,0,rectangle,9.333393375,11.33332294,1,0,0,9.333393375,11.33332294,1,0,0,0,85,85,55,1,,,,,,,,
,,,,,,,,,,,,,FF,,,,,,,,1.0836,,,,,,,,,,,,,,,,,,,,,,61004a341d22b1d5df6dd925,6103760b924b4aee458743b3,2021-07-29_23h55.44.992,Simcolourproject_2stim_asymm_v5,2020.2.10,Win32,60,61025ae37ef11b136ea224fe,,,,,,,,,2759,42.00002033,64.66665787,1,0,0,response1disk,,7,22.66668642,6.666656137,1,0,0,rectangle,22.66668642,6.666656137,1,0,0,22.66668642,6.666656137,1,0,0,0,86,86,45,1,,,,,,,,
,,,,,,,,,,,,,FF,,,,,,,,1.2511,,,,,,,,,,,,,,,,,,,,,,61004a341d22b1d5df6dd925,6103760b924b4aee458743b3,2021-07-29_23h55.44.992,Simcolourproject_2stim_asymm_v5,2020.2.10,Win32,60,61025ae37ef11b136ea224fe,,,,,,,,,3091,34.66668677,-68.00001276,1,0,0,response3disk,,4,12.00001943,-9.33334434,1,0,0,rectangle,12.00001943,-9.33334434,1,0,0,12.00001943,-9.33334434,1,0,0,0,87,87,135,1,,,,,,,,
,,,,,,,,,,,,,FF,,,,,,,,1.1511,,,,,,,,,,,,,,,,,,,,,,61004a341d22b1d5df6dd925,6103760b924b4aee458743b3,2021-07-29_23h55.44.992,Simcolourproject_2stim_asymm_v5,2020.2.10,Win32,60,61025ae37ef11b136ea224fe,,,,,,,,,4238,41.33339433,-68.66667944,1,0,0,response3disk,,4,0.66668576,1.333322644,1,0,0,rectangle,0.66668576,1.333322644,1,0,0,0.66668576,1.333322644,1,0,0,0,88,88,32,1,,,,,,,,
,,,,,,,,,,,,,FF,,,,,,,,1.1834,,,,,,,,,,,,,,,,,,,,,,61004a341d22b1d5df6dd925,6103760b924b4aee458743b3,2021-07-29_23h55.44.992,Simcolourproject_2stim_asymm_v5,2020.2.10,Win32,60,61025ae37ef11b136ea224fe,,,,,,,,,4273,66.66668773,30.66665685,1,0,0,response1disk,,6,13.33339349,7.333322823,1,0,0,rectangle,-25.9999817,74.66665816,1,0,0,9.333393375,-1.333344102,1,0,0,0,89,89,125,1,,response7disk_3,TRUE,0,0,"[72,253,172,117,311,235,201,119,254,177,223,16,3,90,50,261,263,123,310,284]",2.5091,rectangle
,,,,,,,,,,,,,FF,,,,,,,,0.8669,,,,,,,,,,,,,,,,,,,,,,61004a341d22b1d5df6dd925,6103760b924b4aee458743b3,2021-07-29_23h55.44.992,Simcolourproject_2stim_asymm_v5,2020.2.10,Win32,60,61025ae37ef11b136ea224fe,,,,,,,,,2,-53.33331585,-29.33334494,1,0,0,response5disk,,2,0.66668576,1.999989331,1,0,0,rectangle,0.66668576,1.999989331,1,0,0,0.66668576,1.999989331,1,0,0,0,90,90,147,1,,,,,,,,
,,,,,,,,,,,,,FF,,,,,,,,0.835,,,,,,,,,,,,,,,,,,,,,,61004a341d22b1d5df6dd925,6103760b924b4aee458743b3,2021-07-29_23h55.44.992,Simcolourproject_2stim_asymm_v5,2020.2.10,Win32,60,61025ae37ef11b136ea224fe,,,,,,,,,3090,36.00002015,-71.33334619,1,0,0,response3disk,,4,2.000019133,-5.333344221,1,0,0,rectangle,2.000019133,-5.333344221,1,0,0,2.000019133,-5.333344221,1,0,0,0,91,91,13,1,,,,,,,,
,,,,,,,,,,,,,FF,,,,,,,,0.7336,,,,,,,,,,,,,,,,,,,,,,61004a341d22b1d5df6dd925,6103760b924b4aee458743b3,2021-07-29_23h55.44.992,Simcolourproject_2stim_asymm_v5,2020.2.10,Win32,60,61025ae37ef11b136ea224fe,,,,,,,,,696,62.00002092,37.9999904,1,0,0,response1disk,,6,4.000019193,10.66665626,1,0,0,rectangle,4.000019193,10.66665626,1,0,0,4.000019193,10.66665626,1,0,0,0,92,92,4,1,,,,,,,,
,,,,,,,,,,,,,FF,,,,,,,,1.767,,,,,,,,,,,,,,,,,,,,,,61004a341d22b1d5df6dd925,6103760b924b4aee458743b3,2021-07-29_23h55.44.992,Simcolourproject_2stim_asymm_v5,2020.2.10,Win32,60,61025ae37ef11b136ea224fe,,,,,,,,,2942,47.33335382,28.66665679,1,0,0,response1disk,,6,1.333393137,7.99998951,1,0,0,rectangle,1.333393137,7.99998951,1,0,0,1.333393137,7.99998951,1,0,0,0,93,93,14,1,,,,,,,,
,,,,,,,,,,,,,FF,,,,,,,,0.8335,,,,,,,,,,,,,,,,,,,,,,61004a341d22b1d5df6dd925,6103760b924b4aee458743b3,2021-07-29_23h55.44.992,Simcolourproject_2stim_asymm_v5,2020.2.10,Win32,60,61025ae37ef11b136ea224fe,,,,,,,,,2615,-58.66660865,-35.33334512,1,0,0,response5disk,,2,-7.999981165,-2.000010788,1,0,0,rectangle,-7.999981165,-2.000010788,1,0,0,-7.999981165,-2.000010788,1,0,0,0,94,94,97,1,,,,,,,,
,,,,,,,,,,,,,FF,,,,,,,,1.25,,,,,,,,,,,,,,,,,,,,,,61004a341d22b1d5df6dd925,6103760b924b4aee458743b3,2021-07-29_23h55.44.992,Simcolourproject_2stim_asymm_v5,2020.2.10,Win32,60,61025ae37ef11b136ea224fe,,,,,,,,,4057,40.66668695,-25.33334482,1,0,0,response3disk,,5,3.333393196,6.666656137,1,0,0,rectangle,3.333393196,6.666656137,1,0,0,3.333393196,6.666656137,1,0,0,0,95,95,95,1,,,,,,,,
,,,,,,,,,,,,,FF,,,,,,,,2.6881,,,,,,,,,,,,,,,,,,,,,,61004a341d22b1d5df6dd925,6103760b924b4aee458743b3,2021-07-29_23h55.44.992,Simcolourproject_2stim_asymm_v5,2020.2.10,Win32,60,61025ae37ef11b136ea224fe,,,,,,,,,2231,-23.33331496,-41.33334529,1,0,0,response5disk,,3,-9.333314538,1.999989331,1,0,0,rectangle,-9.333314538,1.999989331,1,0,0,-9.333314538,1.999989331,1,0,0,0,96,96,104,1,,,,,,,,
,,,,,,,,,,,,,FF,,,,,,,,0.9664,,,,,,,,,,,,,,,,,,,,,,61004a341d22b1d5df6dd925,6103760b924b4aee458743b3,2021-07-29_23h55.44.992,Simcolourproject_2stim_asymm_v5,2020.2.10,Win32,60,61025ae37ef11b136ea224fe,,,,,,,,,331,44.00002038,35.33330331,1,0,0,response1disk,,6,6.666685939,2.666656017,1,0,0,rectangle,6.666685939,2.666656017,1,0,0,6.666685939,2.666656017,1,0,0,0,97,97,154,1,,,,,,,,
,,,,,,,,,,,,,FF,,,,,,,,7.0874,,,,,,,,,,,,,,,,,,,,,,61004a341d22b1d5df6dd925,6103760b924b4aee458743b3,2021-07-29_23h55.44.992,Simcolourproject_2stim_asymm_v5,2020.2.10,Win32,60,61025ae37ef11b136ea224fe,,,,,,,,,965,47.33335382,28.66665679,1,0,0,response1disk,,6,-9.333314538,-2.666677475,1,0,0,rectangle,-9.333314538,-2.666677475,1,0,0,-9.333314538,-2.666677475,1,0,0,0,98,98,38,1,,,,,,,,
,,,,,,,,,,,,,FF,,,,,,,,6.3848,,,,,,,,,,,,,,,,,,,,,,61004a341d22b1d5df6dd925,6103760b924b4aee458743b3,2021-07-29_23h55.44.992,Simcolourproject_2stim_asymm_v5,2020.2.10,Win32,60,61025ae37ef11b136ea224fe,,,,,,,,,1880,83.33335489,-30.66667831,1,0,0,response3disk,,5,9.333393375,1.333322644,1,0,0,rectangle,9.333393375,1.333322644,1,0,0,9.333393375,1.333322644,1,0,0,0,99,99,53,1,,,,,,,,
,,,,,,,,,,,,,FF,,,,,,,,2.6177,,,,,,,,,,,,,,,,,,,,,,61004a341d22b1d5df6dd925,6103760b924b4aee458743b3,2021-07-29_23h55.44.992,Simcolourproject_2stim_asymm_v5,2020.2.10,Win32,60,61025ae37ef11b136ea224fe,,,,,,,,,3889,39.33339427,-62.66667926,1,0,0,response3disk,,4,-3.333314359,-4.000010848,1,0,0,rectangle,-3.333314359,-4.000010848,1,0,0,-3.333314359,-4.000010848,1,0,0,0,100,100,117,1,,,,,,,,
,,,,,,,,,,,,,FF,,,,,,,,1.0184,,,,,,,,,,,,,,,,,,,,,,61004a341d22b1d5df6dd925,6103760b924b4aee458743b3,2021-07-29_23h55.44.992,Simcolourproject_2stim_asymm_v5,2020.2.10,Win32,60,61025ae37ef11b136ea224fe,,,,,,,,,1103,45.33335376,79.99999166,1,0,0,response1disk,,7,1.333393137,0.666655958,1,0,0,rectangle,1.333393137,0.666655958,1,0,0,1.333393137,0.666655958,1,0,0,0,101,101,96,1,,,,,,,,
,,,,,,,,,,,,,FF,,,,,,,,1.1675,,,,,,,,,,,,,,,,,,,,,,61004a341d22b1d5df6dd925,6103760b924b4aee458743b3,2021-07-29_23h55.44.992,Simcolourproject_2stim_asymm_v5,2020.2.10,Win32,60,61025ae37ef11b136ea224fe,,,,,,,,,1384,-37.99998206,-62.00001258,1,0,0,response5disk,,3,-7.333314478,1.333322644,1,0,0,rectangle,-7.333314478,1.333322644,1,0,0,-7.333314478,1.333322644,1,0,0,0,102,102,142,1,,,,,,,,
,,,,,,,,,,,,,FF,,,,,,,,1.0693,,,,,,,,,,,,,,,,,,,,,,61004a341d22b1d5df6dd925,6103760b924b4aee458743b3,2021-07-29_23h55.44.992,Simcolourproject_2stim_asymm_v5,2020.2.10,Win32,60,61025ae37ef11b136ea224fe,,,,,,,,,2662,-54.66660853,32.66665691,1,0,0,response7disk,,1,12.66668612,1.999989331,1,0,0,rectangle,12.66668612,1.999989331,1,0,0,12.66668612,1.999989331,1,0,0,0,103,103,10,1,,,,,,,,
,,,,,,,,,,,,,FF,,,,,,,,0.85,,,,,,,,,,,,,,,,,,,,,,61004a341d22b1d5df6dd925,6103760b924b4aee458743b3,2021-07-29_23h55.44.992,Simcolourproject_2stim_asymm_v5,2020.2.10,Win32,60,61025ae37ef11b136ea224fe,,,,,,,,,4283,-47.99998236,27.99999011,1,0,0,response7disk,,1,1.333393137,-4.000010848,1,0,0,rectangle,1.333393137,-4.000010848,1,0,0,1.333393137,-4.000010848,1,0,0,0,104,104,150,1,,,,,,,,
,,,,,,,,,,,,,FF,,,,,,,,1.4667,,,,,,,,,,,,,,,,,,,,,,61004a341d22b1d5df6dd925,6103760b924b4aee458743b3,2021-07-29_23h55.44.992,Simcolourproject_2stim_asymm_v5,2020.2.10,Win32,60,61025ae37ef11b136ea224fe,,,,,,,,,549,-69.99998301,-25.33334482,1,0,0,response5disk,,2,-1.3333143,11.99998963,1,0,0,rectangle,-1.3333143,11.99998963,1,0,0,-1.3333143,11.99998963,1,0,0,0,105,105,70,1,,,,,,,,
,,,,,,,,,,,,,FF,,,,,,,,0.8049,,,,,,,,,,,,,,,,,,,,,,61004a341d22b1d5df6dd925,6103760b924b4aee458743b3,2021-07-29_23h55.44.992,Simcolourproject_2stim_asymm_v5,2020.2.10,Win32,60,61025ae37ef11b136ea224fe,,,,,,,,,3412,62.00002092,29.99999017,1,0,0,response1disk,,6,-5.333314419,1.999989331,1,0,0,rectangle,-5.333314419,1.999989331,1,0,0,-5.333314419,1.999989331,1,0,0,0,106,106,57,1,,,,,,,,
,,,,,,,,,,,,,FF,,,,,,,,1.7467,,,,,,,,,,,,,,,,,,,,,,61004a341d22b1d5df6dd925,6103760b924b4aee458743b3,2021-07-29_23h55.44.992,Simcolourproject_2stim_asymm_v5,2020.2.10,Win32,60,61025ae37ef11b136ea224fe,,,,,,,,,4304,90.66668844,-30.00001162,1,0,0,response3disk,,5,1.333393137,-5.333344221,1,0,0,rectangle,1.333393137,-5.333344221,1,0,0,1.333393137,-5.333344221,1,0,0,0,107,107,44,1,,,,,,,,
,,,,,,,,,,,,,FF,,,,,,,,1.4665,,,,,,,,,,,,,,,,,,,,,,61004a341d22b1d5df6dd925,6103760b924b4aee458743b3,2021-07-29_23h55.44.992,Simcolourproject_2stim_asymm_v5,2020.2.10,Win32,60,61025ae37ef11b136ea224fe,,,,,,,,,995,60.66668755,-44.00001204,1,0,0,response3disk,,5,-9.999981225,4.666656077,1,0,0,rectangle,-9.999981225,4.666656077,1,0,0,-9.999981225,4.666656077,1,0,0,0,108,108,115,1,,,,,,,,
,,,,,,,,,,,,,FF,,,,,,,,0.9018,,,,,,,,,,,,,,,,,,,,,,61004a341d22b1d5df6dd925,6103760b924b4aee458743b3,2021-07-29_23h55.44.992,Simcolourproject_2stim_asymm_v5,2020.2.10,Win32,60,61025ae37ef11b136ea224fe,,,,,,,,,261,-69.99998301,41.99999052,1,0,0,response7disk,,1,-3.333314359,3.333322704,1,0,0,rectangle,-3.333314359,3.333322704,1,0,0,-3.333314359,3.333322704,1,0,0,0,109,109,157,1,,,,,,,,
,,,,,,,,,,,,,FF,,,,,,,,2.0711,,,,,,,,,,,,,,,,,,,,,,61004a341d22b1d5df6dd925,6103760b924b4aee458743b3,2021-07-29_23h55.44.992,Simcolourproject_2stim_asymm_v5,2020.2.10,Win32,60,61025ae37ef11b136ea224fe,,,,,,,,,2397,68.0000211,-36.0000118,1,0,0,response3disk,,5,-7.999981165,1.333322644,1,0,0,rectangle,-7.999981165,1.333322644,1,0,0,-7.999981165,1.333322644,1,0,0,0,110,110,114,1,,,,,,,,
,,,,,,,,,,,,,FF,,,,,,,,1.5972,,,,,,,,,,,,,,,,,,,,,,61004a341d22b1d5df6dd925,6103760b924b4aee458743b3,2021-07-29_23h55.44.992,Simcolourproject_2stim_asymm_v5,2020.2.10,Win32,60,61025ae37ef11b136ea224fe,,,,,,,,,3170,66.00002104,-28.66667825,1,0,0,response3disk,,5,-1.999980986,-2.000010788,1,0,0,rectangle,-1.999980986,-2.000010788,1,0,0,-1.999980986,-2.000010788,1,0,0,0,111,111,26,1,,,,,,,,
,,,,,,,,,,,,,FF,,,,,,,,3.251,,,,,,,,,,,,,,,,,,,,,,61004a341d22b1d5df6dd925,6103760b924b4aee458743b3,2021-07-29_23h55.44.992,Simcolourproject_2stim_asymm_v5,2020.2.10,Win32,60,61025ae37ef11b136ea224fe,,,,,,,,,121,46.66668713,35.99999034,1,0,0,response1disk,,6,-5.999981105,3.333322704,1,0,0,rectangle,-5.999981105,3.333322704,1,0,0,-5.999981105,3.333322704,1,0,0,0,112,112,144,1,,,,,,,,
,,,,,,,,,,,,,FF,,,,,,,,0.8551,,,,,,,,,,,,,,,,,,,,,,61004a341d22b1d5df6dd925,6103760b924b4aee458743b3,2021-07-29_23h55.44.992,Simcolourproject_2stim_asymm_v5,2020.2.10,Win32,60,61025ae37ef11b136ea224fe,,,,,,,,,702,50.66668725,-82.66667986,1,0,0,response3disk,,4,-5.333314419,-6.000010908,1,0,0,rectangle,-5.333314419,-6.000010908,1,0,0,-5.333314419,-6.000010908,1,0,0,0,113,113,106,1,,,,,,,,
,,,,,,,,,,,,,FF,,,,,,,,0.8511,,,,,,,,,,,,,,,,,,,,,,61004a341d22b1d5df6dd925,6103760b924b4aee458743b3,2021-07-29_23h55.44.992,Simcolourproject_2stim_asymm_v5,2020.2.10,Win32,60,61025ae37ef11b136ea224fe,,,,,,,,,1831,-66.66660889,29.33330313,1,0,0,response7disk,,1,-13.33331466,-2.000010788,1,0,0,rectangle,-13.33331466,-2.000010788,1,0,0,-13.33331466,-2.000010788,1,0,0,0,114,114,7,1,,,,,,,,
,,,,,,,,,,,,,FF,,,,,,,,1.3837,,,,,,,,,,,,,,,,,,,,,,61004a341d22b1d5df6dd925,6103760b924b4aee458743b3,2021-07-29_23h55.44.992,Simcolourproject_2stim_asymm_v5,2020.2.10,Win32,60,61025ae37ef11b136ea224fe,,,,,,,,,2435,-43.33331555,-74.00001293,1,0,0,response5disk,,3,0.66668576,2.666656017,1,0,0,rectangle,0.66668576,2.666656017,1,0,0,0.66668576,2.666656017,1,0,0,0,115,115,56,1,,,,,,,,
,,,,,,,,,,,,,FF,,,,,,,,1.0002,,,,,,,,,,,,,,,,,,,,,,61004a341d22b1d5df6dd925,6103760b924b4aee458743b3,2021-07-29_23h55.44.992,Simcolourproject_2stim_asymm_v5,2020.2.10,Win32,60,61025ae37ef11b136ea224fe,,,,,,,,,2461,59.33335418,36.66665703,1,0,0,response1disk,,6,11.33339343,1.999989331,1,0,0,rectangle,-17.33331478,55.33330391,1,0,0,10.66668606,-4.666677535,1,0,0,0,116,116,62,1,,response7disk_3,TRUE,0,0,"[72,253,172,117,311,235,201,119,254,177,223,16,3,90,50,261,263,123,310,284]",1.2496,rectangle
,,,,,,,,,,,,,FF,,,,,,,,0.9335,,,,,,,,,,,,,,,,,,,,,,61004a341d22b1d5df6dd925,6103760b924b4aee458743b3,2021-07-29_23h55.44.992,Simcolourproject_2stim_asymm_v5,2020.2.10,Win32,60,61025ae37ef11b136ea224fe,,,,,,,,,2990,68.66668779,-33.33334506,1,0,0,response3disk,,5,-7.999981165,3.99998939,1,0,0,rectangle,-7.999981165,3.99998939,1,0,0,-7.999981165,3.99998939,1,0,0,0,117,117,84,1,,,,,,,,
,,,,,,,,,,,,,FF,,,,,,,,0.984,,,,,,,,,,,,,,,,,,,,,,61004a341d22b1d5df6dd925,6103760b924b4aee458743b3,2021-07-29_23h55.44.992,Simcolourproject_2stim_asymm_v5,2020.2.10,Win32,60,61025ae37ef11b136ea224fe,,,,,,,,,17,47.33335382,33.33330325,1,0,0,response1disk,,6,0.66668576,4.666656077,1,0,0,rectangle,38.00002021,-82.00001317,1,0,0,-3.333314359,1.333322644,1,0,0,0,118,118,12,1,,response3disk_3,TRUE,4,4,"[72,253,172,117,311,235,201,119,254,177,223,16,3,90,50,261,263,123,310,284]",1.8661,rectangle
,,,,,,,,,,,,,FF,,,,,,,,0.6837,,,,,,,,,,,,,,,,,,,,,,61004a341d22b1d5df6dd925,6103760b924b4aee458743b3,2021-07-29_23h55.44.992,Simcolourproject_2stim_asymm_v5,2020.2.10,Win32,60,61025ae37ef11b136ea224fe,,,,,,,,,3742,-50.66660841,91.33330498,1,0,0,response7disk,,0,-8.666607161,4.666656077,1,0,0,rectangle,-8.666607161,4.666656077,1,0,0,-8.666607161,4.666656077,1,0,0,0,119,119,127,1,,,,,,,,
,,,,,,,,,,,,,FF,,,,,,,,1.0216,,,,,,,,,,,,,,,,,,,,,,61004a341d22b1d5df6dd925,6103760b924b4aee458743b3,2021-07-29_23h55.44.992,Simcolourproject_2stim_asymm_v5,2020.2.10,Win32,60,61025ae37ef11b136ea224fe,,,,,,,,,3245,-57.99998266,-22.66667807,1,0,0,response5disk,,2,28.00001991,7.99998951,1,0,0,rectangle,28.00001991,7.99998951,1,0,0,28.00001991,7.99998951,1,0,0,0,120,120,77,1,,,,,,,,
,,,,,,,,,,,,,FF,,,,,,,,1.2506,,,,,,,,,,,,,,,,,,,,,,61004a341d22b1d5df6dd925,6103760b924b4aee458743b3,2021-07-29_23h55.44.992,Simcolourproject_2stim_asymm_v5,2020.2.10,Win32,60,61025ae37ef11b136ea224fe,,,,,,,,,2701,32.66668671,57.999991,1,0,0,response1disk,,7,14.00001949,9.999989569,1,0,0,rectangle,14.00001949,9.999989569,1,0,0,14.00001949,9.999989569,1,0,0,0,121,121,99,1,,,,,,,,
,,,,,,,,,,,,,FF,,,,,,,,0.8844,,,,,,,,,,,,,,,,,,,,,,61004a341d22b1d5df6dd925,6103760b924b4aee458743b3,2021-07-29_23h55.44.992,Simcolourproject_2stim_asymm_v5,2020.2.10,Win32,60,61025ae37ef11b136ea224fe,,,,,,,,,1604,-49.33331573,22.66665661,1,0,0,response7disk,,1,17.33339361,1.333322644,1,0,0,rectangle,-57.99998266,79.99999166,1,0,0,-3.999981046,-4.666677535,1,0,0,0,122,122,48,1,,response7disk_3,TRUE,0,0,"[72,253,172,117,311,235,201,119,254,177,223,16,3,90,50,261,263,123,310,284]",1.4217,rectangle
,,,,,,,,,,,,,FF,,,,,,,,1.1549,,,,,,,,,,,,,,,,,,,,,,61004a341d22b1d5df6dd925,6103760b924b4aee458743b3,2021-07-29_23h55.44.992,Simcolourproject_2stim_asymm_v5,2020.2.10,Win32,60,61025ae37ef11b136ea224fe,,,,,,,,,3924,66.66668773,-38.00001186,1,0,0,response3disk,,5,3.333393196,-2.000010788,1,0,0,rectangle,3.333393196,-2.000010788,1,0,0,3.333393196,-2.000010788,1,0,0,0,123,123,36,1,,,,,,,,
,,,,,,,,,,,,,FF,,,,,,,,0.7966,,,,,,,,,,,,,,,,,,,,,,61004a341d22b1d5df6dd925,6103760b924b4aee458743b3,2021-07-29_23h55.44.992,Simcolourproject_2stim_asymm_v5,2020.2.10,Win32,60,61025ae37ef11b136ea224fe,,,,,,,,,2292,-35.33331531,51.99999082,1,0,0,response7disk,,0,-4.666607042,1.999989331,1,0,0,rectangle,-4.666607042,1.999989331,1,0,0,-4.666607042,1.999989331,1,0,0,0,124,124,82,1,,,,,,,,
,,,,,,,,,,,,,FF,,,,,,,,1.1792,,,,,,,,,,,,,,,,,,,,,,61004a341d22b1d5df6dd925,6103760b924b4aee458743b3,2021-07-29_23h55.44.992,Simcolourproject_2stim_asymm_v5,2020.2.10,Win32,60,61025ae37ef11b136ea224fe,,,,,,,,,282,35.33339415,-59.33334583,1,0,0,response3disk,,4,4.000019193,-10.66667771,1,0,0,rectangle,4.000019193,-10.66667771,1,0,0,4.000019193,-10.66667771,1,0,0,0,125,125,110,1,,,,,,,,
,,,,,,,,,,,,,FF,,,,,,,,0.9046,,,,,,,,,,,,,,,,,,,,,,61004a341d22b1d5df6dd925,6103760b924b4aee458743b3,2021-07-29_23h55.44.992,Simcolourproject_2stim_asymm_v5,2020.2.10,Win32,60,61025ae37ef11b136ea224fe,,,,,,,,,3801,24.00001979,57.999991,1,0,0,response1disk,,7,0.66668576,-0.666677415,1,0,0,rectangle,0.66668576,-0.666677415,1,0,0,0.66668576,-0.666677415,1,0,0,0,126,126,54,1,,,,,,,,
,,,,,,,,,,,,,FF,,,,,,,,1.471,,,,,,,,,,,,,,,,,,,,,,61004a341d22b1d5df6dd925,6103760b924b4aee458743b3,2021-07-29_23h55.44.992,Simcolourproject_2stim_asymm_v5,2020.2.10,Win32,60,61025ae37ef11b136ea224fe,,,,,,,,,1189,56.00002074,37.9999904,1,0,0,response1disk,,6,-12.66660728,5.333322763,1,0,0,rectangle,-12.66660728,5.333322763,1,0,0,-12.66660728,5.333322763,1,0,0,0,127,127,141,1,,,,,,,,
,,,,,,,,,,,,,FF,,,,,,,,0.9516,,,,,,,,,,,,,,,,,,,,,,61004a341d22b1d5df6dd925,6103760b924b4aee458743b3,2021-07-29_23h55.44.992,Simcolourproject_2stim_asymm_v5,2020.2.10,Win32,60,61025ae37ef11b136ea224fe,,,,,,,,,3067,56.66668743,-34.00001174,1,0,0,response3disk,,5,-3.999981046,5.99998945,1,0,0,rectangle,-3.999981046,5.99998945,1,0,0,-3.999981046,5.99998945,1,0,0,0,128,128,91,1,,,,,,,,
,,,,,,,,,,,,,FF,,,,,,,,1.3215,,,,,,,,,,,,,,,,,,,,,,61004a341d22b1d5df6dd925,6103760b924b4aee458743b3,2021-07-29_23h55.44.992,Simcolourproject_2stim_asymm_v5,2020.2.10,Win32,60,61025ae37ef11b136ea224fe,,,,,,,,,2577,52.00002062,42.66665721,1,0,0,response1disk,,6,-8.666607161,4.666656077,1,0,0,rectangle,-8.666607161,4.666656077,1,0,0,-8.666607161,4.666656077,1,0,0,0,129,129,113,1,,,,,,,,
,,,,,,,,,,,,,FF,,,,,,,,1.0508,,,,,,,,,,,,,,,,,,,,,,61004a341d22b1d5df6dd925,6103760b924b4aee458743b3,2021-07-29_23h55.44.992,Simcolourproject_2stim_asymm_v5,2020.2.10,Win32,60,61025ae37ef11b136ea224fe,,,,,,,,,1057,-29.33331513,-56.66667908,1,0,0,response5disk,,3,2.66668582,4.666656077,1,0,0,rectangle,2.66668582,4.666656077,1,0,0,2.66668582,4.666656077,1,0,0,0,130,130,159,1,,,,,,,,
,,,,,,,,,,,,,FF,,,,,,,,2.3171,,,,,,,,,,,,,,,,,,,,,,61004a341d22b1d5df6dd925,6103760b924b4aee458743b3,2021-07-29_23h55.44.992,Simcolourproject_2stim_asymm_v5,2020.2.10,Win32,60,61025ae37ef11b136ea224fe,,,,,,,,,2772,61.33335423,-26.66667819,1,0,0,response3disk,,5,6.000019252,-0.666677415,1,0,0,rectangle,6.000019252,-0.666677415,1,0,0,6.000019252,-0.666677415,1,0,0,0,131,131,71,1,,,,,,,,
,,,,,,,,,,,,,FF,,,,,,,,2.4064,,,,,,,,,,,,,,,,,,,,,,61004a341d22b1d5df6dd925,6103760b924b4aee458743b3,2021-07-29_23h55.44.992,Simcolourproject_2stim_asymm_v5,2020.2.10,Win32,60,61025ae37ef11b136ea224fe,,,,,,,,,3840,32.00002003,-62.66667926,1,0,0,response3disk,,4,-0.666606923,-1.07288E-05,1,0,0,rectangle,-0.666606923,-1.07288E-05,1,0,0,-0.666606923,-1.07288E-05,1,0,0,0,132,132,65,1,,,,,,,,
,,,,,,,,,,,,,FF,,,,,,,,1.2836,,,,,,,,,,,,,,,,,,,,,,61004a341d22b1d5df6dd925,6103760b924b4aee458743b3,2021-07-29_23h55.44.992,Simcolourproject_2stim_asymm_v5,2020.2.10,Win32,60,61025ae37ef11b136ea224fe,,,,,,,,,4145,-66.66660889,22.66665661,1,0,0,response7disk,,1,1.333393137,-6.000010908,1,0,0,rectangle,1.333393137,-6.000010908,1,0,0,1.333393137,-6.000010908,1,0,0,0,133,133,116,1,,,,,,,,
,,,,,,,,,,,,,FF,,,,,,,,0.8667,,,,,,,,,,,,,,,,,,,,,,61004a341d22b1d5df6dd925,6103760b924b4aee458743b3,2021-07-29_23h55.44.992,Simcolourproject_2stim_asymm_v5,2020.2.10,Win32,60,61025ae37ef11b136ea224fe,,,,,,,,,699,69.33335447,31.99999022,1,0,0,response1disk,,6,15.33339355,8.666656196,1,0,0,rectangle,15.33339355,8.666656196,1,0,0,15.33339355,8.666656196,1,0,0,0,134,134,17,1,,,,,,,,
,,,,,,,,,,,,,FF,,,,,,,,0.9,,,,,,,,,,,,,,,,,,,,,,61004a341d22b1d5df6dd925,6103760b924b4aee458743b3,2021-07-29_23h55.44.992,Simcolourproject_2stim_asymm_v5,2020.2.10,Win32,60,61025ae37ef11b136ea224fe,,,,,,,,,2834,-52.66660847,35.99999034,1,0,0,response7disk,,1,-1.999980986,-1.333344102,1,0,0,rectangle,-1.999980986,-1.333344102,1,0,0,-1.999980986,-1.333344102,1,0,0,0,135,135,119,1,,,,,,,,
,,,,,,,,,,,,,FF,,,,,,,,1.752,,,,,,,,,,,,,,,,,,,,,,61004a341d22b1d5df6dd925,6103760b924b4aee458743b3,2021-07-29_23h55.44.992,Simcolourproject_2stim_asymm_v5,2020.2.10,Win32,60,61025ae37ef11b136ea224fe,,,,,,,,,3963,79.33335477,-32.66667837,1,0,0,response3disk,,5,16.00001955,-6.000010908,1,0,0,rectangle,16.00001955,-6.000010908,1,0,0,16.00001955,-6.000010908,1,0,0,0,136,136,139,1,,,,,,,,
,,,,,,,,,,,,,FF,,,,,,,,0.9551,,,,,,,,,,,,,,,,,,,,,,61004a341d22b1d5df6dd925,6103760b924b4aee458743b3,2021-07-29_23h55.44.992,Simcolourproject_2stim_asymm_v5,2020.2.10,Win32,60,61025ae37ef11b136ea224fe,,,,,,,,,2240,-31.33331519,-64.00001264,1,0,0,response5disk,,3,-17.99998146,-1.333344102,1,0,0,rectangle,-17.99998146,-1.333344102,1,0,0,-17.99998146,-1.333344102,1,0,0,0,137,137,66,1,,,,,,,,
,,,,,,,,,,,,,FF,,,,,,,,1.0506,,,,,,,,,,,,,,,,,,,,,,61004a341d22b1d5df6dd925,6103760b924b4aee458743b3,2021-07-29_23h55.44.992,Simcolourproject_2stim_asymm_v5,2020.2.10,Win32,60,61025ae37ef11b136ea224fe,,,,,,,,,1790,68.0000211,38.66665709,1,0,0,response1disk,,6,-2.666606983,9.333322883,1,0,0,rectangle,-2.666606983,9.333322883,1,0,0,-2.666606983,9.333322883,1,0,0,0,138,138,16,1,,,,,,,,
,,,,,,,,,,,,,FF,,,,,,,,1.6178,,,,,,,,,,,,,,,,,,,,,,61004a341d22b1d5df6dd925,6103760b924b4aee458743b3,2021-07-29_23h55.44.992,Simcolourproject_2stim_asymm_v5,2020.2.10,Win32,60,61025ae37ef11b136ea224fe,,,,,,,,,1062,-26.6666077,-72.66667956,1,0,0,response5disk,,3,-3.333314359,9.999989569,1,0,0,rectangle,-3.333314359,9.999989569,1,0,0,-3.333314359,9.999989569,1,0,0,0,139,139,29,1,,,,,,,,
,,,,,,,,,,,,,FF,,,,,,,,1.0674,,,,,,,,,,,,,,,,,,,,,,61004a341d22b1d5df6dd925,6103760b924b4aee458743b3,2021-07-29_23h55.44.992,Simcolourproject_2stim_asymm_v5,2020.2.10,Win32,60,61025ae37ef11b136ea224fe,,,,,,,,,901,26.66668653,-51.33334559,1,0,0,response3disk,,4,8.000019312,-2.666677475,1,0,0,rectangle,8.000019312,-2.666677475,1,0,0,8.000019312,-2.666677475,1,0,0,0,140,140,33,1,,,,,,,,
,,,,,,,,,,,,,FF,,,,,,,,0.8547,,,,,,,,,,,,,,,,,,,,,,61004a341d22b1d5df6dd925,6103760b924b4aee458743b3,2021-07-29_23h55.44.992,Simcolourproject_2stim_asymm_v5,2020.2.10,Win32,60,61025ae37ef11b136ea224fe,,,,,,,,,2368,26.66668653,-57.33334577,1,0,0,response3disk,,4,3.333393196,-8.000010967,1,0,0,rectangle,3.333393196,-8.000010967,1,0,0,3.333393196,-8.000010967,1,0,0,0,141,141,121,1,,,,,,,,
,,,,,,,,,,,,,FF,,,,,,,,0.9714,,,,,,,,,,,,,,,,,,,,,,61004a341d22b1d5df6dd925,6103760b924b4aee458743b3,2021-07-29_23h55.44.992,Simcolourproject_2stim_asymm_v5,2020.2.10,Win32,60,61025ae37ef11b136ea224fe,,,,,,,,,1755,-69.99998301,-24.00001144,1,0,0,response5disk,,2,-6.666607102,3.333322704,1,0,0,rectangle,-6.666607102,3.333322704,1,0,0,-6.666607102,3.333322704,1,0,0,0,142,142,2,1,,,,,,,,
,,,,,,,,,,,,,FF,,,,,,,,1.3173,,,,,,,,,,,,,,,,,,,,,,61004a341d22b1d5df6dd925,6103760b924b4aee458743b3,2021-07-29_23h55.44.992,Simcolourproject_2stim_asymm_v5,2020.2.10,Win32,60,61025ae37ef11b136ea224fe,,,,,,,,,2920,36.00002015,51.99999082,1,0,0,response1disk,,7,3.333393196,-2.000010788,1,0,0,rectangle,3.333393196,-2.000010788,1,0,0,3.333393196,-2.000010788,1,0,0,0,143,143,88,1,,,,,,,,
,,,,,,,,,,,,,FF,,,,,,,,0.9002,,,,,,,,,,,,,,,,,,,,,,61004a341d22b1d5df6dd925,6103760b924b4aee458743b3,2021-07-29_23h55.44.992,Simcolourproject_2stim_asymm_v5,2020.2.10,Win32,60,61025ae37ef11b136ea224fe,,,,,,,,,1218,-63.33331615,27.33330307,1,0,0,response7disk,,1,-18.66660746,4.666656077,1,0,0,rectangle,-18.66660746,4.666656077,1,0,0,-18.66660746,4.666656077,1,0,0,0,144,144,37,1,,,,,,,,
,,,,,,,,,,,,,FF,,,,,,,,0.7721,,,,,,,,,,,,,,,,,,,,,,61004a341d22b1d5df6dd925,6103760b924b4aee458743b3,2021-07-29_23h55.44.992,Simcolourproject_2stim_asymm_v5,2020.2.10,Win32,60,61025ae37ef11b136ea224fe,,,,,,,,,2009,77.33335471,35.33330331,1,0,0,response1disk,,6,3.333393196,-5.333344221,1,0,0,rectangle,3.333393196,-5.333344221,1,0,0,3.333393196,-5.333344221,1,0,0,0,145,145,67,1,,,,,,,,
,,,,,,,,,,,,,FF,,,,,,,,3.084,,,,,,,,,,,,,,,,,,,,,,61004a341d22b1d5df6dd925,6103760b924b4aee458743b3,2021-07-29_23h55.44.992,Simcolourproject_2stim_asymm_v5,2020.2.10,Win32,60,61025ae37ef11b136ea224fe,,,,,,,,,1792,19.33339367,61.33330409,1,0,0,response1disk,,7,1.9735E-05,4.666656077,1,0,0,rectangle,1.9735E-05,4.666656077,1,0,0,1.9735E-05,4.666656077,1,0,0,0,146,146,94,1,,,,,,,,
,,,,,,,,,,,,,FF,,,,,,,,0.934,,,,,,,,,,,,,,,,,,,,,,61004a341d22b1d5df6dd925,6103760b924b4aee458743b3,2021-07-29_23h55.44.992,Simcolourproject_2stim_asymm_v5,2020.2.10,Win32,60,61025ae37ef11b136ea224fe,,,,,,,,,3853,-63.99998283,-22.00001138,1,0,0,response5disk,,2,-13.33331466,-4.000010848,1,0,0,rectangle,-13.33331466,-4.000010848,1,0,0,-13.33331466,-4.000010848,1,0,0,0,147,147,28,1,,,,,,,,
,,,,,,,,,,,,,FF,,,,,,,,0.9503,,,,,,,,,,,,,,,,,,,,,,61004a341d22b1d5df6dd925,6103760b924b4aee458743b3,2021-07-29_23h55.44.992,Simcolourproject_2stim_asymm_v5,2020.2.10,Win32,60,61025ae37ef11b136ea224fe,,,,,,,,,983,-27.33331507,-61.33334589,1,0,0,response5disk,,3,8.666685998,-2.000010788,1,0,0,rectangle,8.666685998,-2.000010788,1,0,0,8.666685998,-2.000010788,1,0,0,0,148,148,93,1,,,,,,,,
,,,,,,,,,,,,,FF,,,,,,,,1.5173,,,,,,,,,,,,,,,,,,,,,,61004a341d22b1d5df6dd925,6103760b924b4aee458743b3,2021-07-29_23h55.44.992,Simcolourproject_2stim_asymm_v5,2020.2.10,Win32,60,61025ae37ef11b136ea224fe,,,,,,,,,2129,55.33335406,35.99999034,1,0,0,response1disk,,6,20.66668636,9.999989569,1,0,0,rectangle,20.66668636,9.999989569,1,0,0,20.66668636,9.999989569,1,0,0,0,149,149,61,1,,,,,,,,
,,,,,,,,,,,,,FF,,,,,,,,0.817,,,,,,,,,,,,,,,,,,,,,,61004a341d22b1d5df6dd925,6103760b924b4aee458743b3,2021-07-29_23h55.44.992,Simcolourproject_2stim_asymm_v5,2020.2.10,Win32,60,61025ae37ef11b136ea224fe,,,,,,,,,2782,-74.66660913,45.33330361,1,0,0,response7disk,,1,-1.999980986,6.666656137,1,0,0,rectangle,-1.999980986,6.666656137,1,0,0,-1.999980986,6.666656137,1,0,0,0,150,150,25,1,,,,,,,,
,,,,,,,,,,,,,FF,,,,,,,,1.3177,,,,,,,,,,,,,,,,,,,,,,61004a341d22b1d5df6dd925,6103760b924b4aee458743b3,2021-07-29_23h55.44.992,Simcolourproject_2stim_asymm_v5,2020.2.10,Win32,60,61025ae37ef11b136ea224fe,,,,,,,,,1414,52.66668731,-34.66667843,1,0,0,response3disk,,5,-4.666607042,2.666656017,1,0,0,rectangle,-4.666607042,2.666656017,1,0,0,-4.666607042,2.666656017,1,0,0,0,151,151,35,1,,,,,,,,
,,,,,,,,,,,,,FF,,,,,,,,1.7386,,,,,,,,,,,,,,,,,,,,,,61004a341d22b1d5df6dd925,6103760b924b4aee458743b3,2021-07-29_23h55.44.992,Simcolourproject_2stim_asymm_v5,2020.2.10,Win32,60,61025ae37ef11b136ea224fe,,,,,,,,,735,60.66668755,-36.0000118,1,0,0,response3disk,,5,3.333393196,-6.666677594,1,0,0,rectangle,3.333393196,-6.666677594,1,0,0,3.333393196,-6.666677594,1,0,0,0,152,152,73,1,,,,,,,,
,,,,,,,,,,,,,FF,,,,,,,,1.8185,,,,,,,,,,,,,,,,,,,,,,61004a341d22b1d5df6dd925,6103760b924b4aee458743b3,2021-07-29_23h55.44.992,Simcolourproject_2stim_asymm_v5,2020.2.10,Win32,60,61025ae37ef11b136ea224fe,,,,,,,,,3855,60.00002086,-37.33334517,1,0,0,response3disk,,5,5.333393256,2.666656017,1,0,0,rectangle,5.333393256,2.666656017,1,0,0,5.333393256,2.666656017,1,0,0,0,153,153,60,1,,,,,,,,
,,,,,,,,,,,,,FF,,,,,,,,0.9676,,,,,,,,,,,,,,,,,,,,,,61004a341d22b1d5df6dd925,6103760b924b4aee458743b3,2021-07-29_23h55.44.992,Simcolourproject_2stim_asymm_v5,2020.2.10,Win32,60,61025ae37ef11b136ea224fe,,,,,,,,,668,39.33339427,89.33330492,1,0,0,response1disk,,7,-0.666606923,3.333322704,1,0,0,rectangle,-0.666606923,3.333322704,1,0,0,-0.666606923,3.333322704,1,0,0,0,154,154,83,1,,,,,,,,
,,,,,,,,,,,,,FF,,,,,,,,1.5962,,,,,,,,,,,,,,,,,,,,,,61004a341d22b1d5df6dd925,6103760b924b4aee458743b3,2021-07-29_23h55.44.992,Simcolourproject_2stim_asymm_v5,2020.2.10,Win32,60,61025ae37ef11b136ea224fe,,,,,,,,,2879,40.00002027,-26.0000115,1,0,0,response3disk,,5,-8.666607161,-4.000010848,1,0,0,rectangle,-8.666607161,-4.000010848,1,0,0,-8.666607161,-4.000010848,1,0,0,0,155,155,108,1,,,,,,,,
,,,,,,,,,,,,,FF,,,,,,,,1.3892,,,,,,,,,,,,,,,,,,,,,,61004a341d22b1d5df6dd925,6103760b924b4aee458743b3,2021-07-29_23h55.44.992,Simcolourproject_2stim_asymm_v5,2020.2.10,Win32,60,61025ae37ef11b136ea224fe,,,,,,,,,2101,-71.33331639,37.9999904,1,0,0,response7disk,,1,-21.99998158,10.66665626,1,0,0,rectangle,-21.99998158,10.66665626,1,0,0,-21.99998158,10.66665626,1,0,0,0,156,156,18,1,,,,,,,,
,,,,,,,,,,,,,FF,,,,,,,,2.1798,,,,,,,,,,,,,,,,,,,,,,61004a341d22b1d5df6dd925,6103760b924b4aee458743b3,2021-07-29_23h55.44.992,Simcolourproject_2stim_asymm_v5,2020.2.10,Win32,60,61025ae37ef11b136ea224fe,,,,,,,,,3368,44.00002038,81.99999171,1,0,0,response1disk,,7,-5.333314419,6.666656137,1,0,0,rectangle,-5.333314419,6.666656137,1,0,0,-5.333314419,6.666656137,1,0,0,0,157,157,34,1,,,,,,,,
,,,,,,,,,,,,,FF,,,,,,,,1.9502,,,,,,,,,,,,,,,,,,,,,,61004a341d22b1d5df6dd925,6103760b924b4aee458743b3,2021-07-29_23h55.44.992,Simcolourproject_2stim_asymm_v5,2020.2.10,Win32,60,61025ae37ef11b136ea224fe,,,,,,,,,2474,34.00002009,-42.66667867,1,0,0,response3disk,,4,5.333393256,-6.000010908,1,0,0,rectangle,5.333393256,-6.000010908,1,0,0,5.333393256,-6.000010908,1,0,0,0,158,158,72,1,,,,,,,,
,,,,,,,,,,,,,FF,,,,,,,,0.9335,,,,,,,,,,,,,,,,,,,,,,61004a341d22b1d5df6dd925,6103760b924b4aee458743b3,2021-07-29_23h55.44.992,Simcolourproject_2stim_asymm_v5,2020.2.10,Win32,60,61025ae37ef11b136ea224fe,,,,,,,,,2253,46.66668713,26.66665673,1,0,0,response1disk,,6,-0.666606923,5.333322763,1,0,0,rectangle,-0.666606923,5.333322763,1,0,0,-0.666606923,5.333322763,1,0,0,0,159,159,22,1,,,,,,,,
,,,,,,,,,,,,,FF,,,,,,,,0.8002,,,,,,,,,,,,,,,,,,,,,,61004a341d22b1d5df6dd925,6103760b924b4aee458743b3,2021-07-29_23h55.44.992,Simcolourproject_2stim_asymm_v5,2020.2.10,Win32,60,61025ae37ef11b136ea224fe,,,,,,,,,3740,26.66668653,43.33330355,1,0,0,response1disk,,7,0.66668576,-4.000010848,1,0,0,rectangle,0.66668576,-4.000010848,1,0,0,0.66668576,-4.000010848,1,0,0,1,0,160,124,1,,,,,,,,
,,,,,,,,,,,,,FF,,,,,,,,0.8335,,,,,,,,,,,,,,,,,,,,,,61004a341d22b1d5df6dd925,6103760b924b4aee458743b3,2021-07-29_23h55.44.992,Simcolourproject_2stim_asymm_v5,2020.2.10,Win32,60,61025ae37ef11b136ea224fe,,,,,,,,,3493,58.0000208,33.99999028,1,0,0,response1disk,,6,6.000019252,0.666655958,1,0,0,rectangle,6.000019252,0.666655958,1,0,0,6.000019252,0.666655958,1,0,0,1,1,161,15,1,,,,,,,,
,,,,,,,,,,,,,FF,,,,,,,,2.737,,,,,,,,,,,,,,,,,,,,,,61004a341d22b1d5df6dd925,6103760b924b4aee458743b3,2021-07-29_23h55.44.992,Simcolourproject_2stim_asymm_v5,2020.2.10,Win32,60,61025ae37ef11b136ea224fe,,,,,,,,,3770,54.00002068,-30.66667831,1,0,0,response3disk,,5,-6.666607102,-1.333344102,1,0,0,rectangle,-6.666607102,-1.333344102,1,0,0,-6.666607102,-1.333344102,1,0,0,1,2,162,120,1,,,,,,,,
,,,,,,,,,,,,,FF,,,,,,,,1.0527,,,,,,,,,,,,,,,,,,,,,,61004a341d22b1d5df6dd925,6103760b924b4aee458743b3,2021-07-29_23h55.44.992,Simcolourproject_2stim_asymm_v5,2020.2.10,Win32,60,61025ae37ef11b136ea224fe,,,,,,,,,4115,42.00002033,-18.66667795,1,0,0,response3disk,,5,-7.333314478,5.99998945,1,0,0,rectangle,-7.333314478,5.99998945,1,0,0,-7.333314478,5.99998945,1,0,0,1,3,163,75,1,,,,,,,,
,,,,,,,,,,,,,FF,,,,,,,,2.0469,,,,,,,,,,,,,,,,,,,,,,61004a341d22b1d5df6dd925,6103760b924b4aee458743b3,2021-07-29_23h55.44.992,Simcolourproject_2stim_asymm_v5,2020.2.10,Win32,60,61025ae37ef11b136ea224fe,,,,,,,,,56,46.00002044,23.33330295,1,0,0,response1disk,,6,6.666685939,-3.333344162,1,0,0,rectangle,6.666685939,-3.333344162,1,0,0,6.666685939,-3.333344162,1,0,0,1,4,164,112,1,,,,,,,,
,,,,,,,,,,,,,FF,,,,,,,,1.2872,,,,,,,,,,,,,,,,,,,,,,61004a341d22b1d5df6dd925,6103760b924b4aee458743b3,2021-07-29_23h55.44.992,Simcolourproject_2stim_asymm_v5,2020.2.10,Win32,60,61025ae37ef11b136ea224fe,,,,,,,,,3839,32.00002003,-48.66667885,1,0,0,response3disk,,4,1.9735E-05,9.333322883,1,0,0,rectangle,1.9735E-05,9.333322883,1,0,0,1.9735E-05,9.333322883,1,0,0,1,5,165,69,1,,,,,,,,
,,,,,,,,,,,,,FF,,,,,,,,2.9669,,,,,,,,,,,,,,,,,,,,,,61004a341d22b1d5df6dd925,6103760b924b4aee458743b3,2021-07-29_23h55.44.992,Simcolourproject_2stim_asymm_v5,2020.2.10,Win32,60,61025ae37ef11b136ea224fe,,,,,,,,,2178,42.66668701,-15.33334452,1,0,0,response3disk,,5,-6.666607102,1.333322644,1,0,0,rectangle,-6.666607102,1.333322644,1,0,0,-6.666607102,1.333322644,1,0,0,1,6,166,23,1,,,,,,,,
,,,,,,,,,,,,,FF,,,,,,,,3.1835,,,,,,,,,,,,,,,,,,,,,,61004a341d22b1d5df6dd925,6103760b924b4aee458743b3,2021-07-29_23h55.44.992,Simcolourproject_2stim_asymm_v5,2020.2.10,Win32,60,61025ae37ef11b136ea224fe,,,,,,,,,771,40.00002027,29.33330313,1,0,0,response1disk,,6,-14.66660734,-3.333344162,1,0,0,rectangle,-14.66660734,-3.333344162,1,0,0,-14.66660734,-3.333344162,1,0,0,1,7,167,90,1,,,,,,,,
,,,,,,,,,,,,,FF,,,,,,,,2.7167,,,,,,,,,,,,,,,,,,,,,,61004a341d22b1d5df6dd925,6103760b924b4aee458743b3,2021-07-29_23h55.44.992,Simcolourproject_2stim_asymm_v5,2020.2.10,Win32,60,61025ae37ef11b136ea224fe,,,,,,,,,1726,-51.99998248,-32.66667837,1,0,0,response5disk,,2,-3.333314359,1.999989331,1,0,0,rectangle,-3.333314359,1.999989331,1,0,0,-3.333314359,1.999989331,1,0,0,1,8,168,136,1,,,,,,,,
,,,,,,,,,,,,,FF,,,,,,,,1.1872,,,,,,,,,,,,,,,,,,,,,,61004a341d22b1d5df6dd925,6103760b924b4aee458743b3,2021-07-29_23h55.44.992,Simcolourproject_2stim_asymm_v5,2020.2.10,Win32,60,61025ae37ef11b136ea224fe,,,,,,,,,2134,22.66668642,39.99999046,1,0,0,response1disk,,7,7.333393315,1.333322644,1,0,0,rectangle,7.333393315,1.333322644,1,0,0,7.333393315,1.333322644,1,0,0,1,9,169,63,1,,,,,,,,
,,,,,,,,,,,,,FF,,,,,,,,1.3659,,,,,,,,,,,,,,,,,,,,,,61004a341d22b1d5df6dd925,6103760b924b4aee458743b3,2021-07-29_23h55.44.992,Simcolourproject_2stim_asymm_v5,2020.2.10,Win32,60,61025ae37ef11b136ea224fe,,,,,,,,,2367,-56.66660859,-28.00001156,1,0,0,response5disk,,2,2.000019133,6.666656137,1,0,0,rectangle,2.000019133,6.666656137,1,0,0,2.000019133,6.666656137,1,0,0,1,10,170,59,1,,,,,,,,
,,,,,,,,,,,,,FF,,,,,,,,1.2173,,,,,,,,,,,,,,,,,,,,,,61004a341d22b1d5df6dd925,6103760b924b4aee458743b3,2021-07-29_23h55.44.992,Simcolourproject_2stim_asymm_v5,2020.2.10,Win32,60,61025ae37ef11b136ea224fe,,,,,,,,,2785,38.00002021,-52.00001228,1,0,0,response3disk,,4,6.000019252,-10.00001103,1,0,0,rectangle,-62.66660877,29.33330313,1,0,0,-0.666606923,-0.666677415,1,0,0,1,11,171,131,1,,response7disk_3,TRUE,1,1,"[72,253,172,117,311,235,201,119,254,177,223,16,3,90,50,261,263,123,310,284]",1.4173,rectangle
,,,,,,,,,,,,,FF,,,,,,,,0.8501,,,,,,,,,,,,,,,,,,,,,,61004a341d22b1d5df6dd925,6103760b924b4aee458743b3,2021-07-29_23h55.44.992,Simcolourproject_2stim_asymm_v5,2020.2.10,Win32,60,61025ae37ef11b136ea224fe,,,,,,,,,781,62.00002092,32.66665691,1,0,0,response1disk,,6,5.333393256,0.666655958,1,0,0,rectangle,5.333393256,0.666655958,1,0,0,5.333393256,0.666655958,1,0,0,1,12,172,109,1,,,,,,,,
,,,,,,,,,,,,,FF,,,,,,,,0.8995,,,,,,,,,,,,,,,,,,,,,,61004a341d22b1d5df6dd925,6103760b924b4aee458743b3,2021-07-29_23h55.44.992,Simcolourproject_2stim_asymm_v5,2020.2.10,Win32,60,61025ae37ef11b136ea224fe,,,,,,,,,2287,-19.99998152,-36.66667849,1,0,0,response5disk,,3,-0.666606923,5.99998945,1,0,0,rectangle,-0.666606923,5.99998945,1,0,0,-0.666606923,5.99998945,1,0,0,1,13,173,36,1,,,,,,,,
,,,,,,,,,,,,,FF,,,,,,,,0.7873,,,,,,,,,,,,,,,,,,,,,,61004a341d22b1d5df6dd925,6103760b924b4aee458743b3,2021-07-29_23h55.44.992,Simcolourproject_2stim_asymm_v5,2020.2.10,Win32,60,61025ae37ef11b136ea224fe,,,,,,,,,873,30.66668665,-46.0000121,1,0,0,response3disk,,4,1.333393137,11.99998963,1,0,0,rectangle,1.333393137,11.99998963,1,0,0,1.333393137,11.99998963,1,0,0,1,14,174,93,1,,,,,,,,
,,,,,,,,,,,,,FF,,,,,,,,1.2706,,,,,,,,,,,,,,,,,,,,,,61004a341d22b1d5df6dd925,6103760b924b4aee458743b3,2021-07-29_23h55.44.992,Simcolourproject_2stim_asymm_v5,2020.2.10,Win32,60,61025ae37ef11b136ea224fe,,,,,,,,,3579,51.33335394,25.99999005,1,0,0,response1disk,,6,-0.666606923,7.99998951,1,0,0,rectangle,-0.666606923,7.99998951,1,0,0,-0.666606923,7.99998951,1,0,0,1,15,175,20,1,,,,,,,,
,,,,,,,,,,,,,FF,,,,,,,,0.7167,,,,,,,,,,,,,,,,,,,,,,61004a341d22b1d5df6dd925,6103760b924b4aee458743b3,2021-07-29_23h55.44.992,Simcolourproject_2stim_asymm_v5,2020.2.10,Win32,60,61025ae37ef11b136ea224fe,,,,,,,,,2623,18.00001961,56.66665763,1,0,0,response1disk,,7,-1.999980986,-2.666677475,1,0,0,rectangle,64.66668767,-36.0000118,1,0,0,-7.333314478,1.999989331,1,0,0,1,16,176,2,1,,response3disk_3,TRUE,5,5,"[72,253,172,117,311,235,201,119,254,177,223,16,3,90,50,261,263,123,310,284]",1.8663,rectangle
,,,,,,,,,,,,,FF,,,,,,,,2.1509,,,,,,,,,,,,,,,,,,,,,,61004a341d22b1d5df6dd925,6103760b924b4aee458743b3,2021-07-29_23h55.44.992,Simcolourproject_2stim_asymm_v5,2020.2.10,Win32,60,61025ae37ef11b136ea224fe,,,,,,,,,2357,-35.33331531,-49.33334553,1,0,0,response5disk,,3,-3.333314359,3.333322704,1,0,0,rectangle,-3.333314359,3.333322704,1,0,0,-3.333314359,3.333322704,1,0,0,1,17,177,40,1,,,,,,,,
,,,,,,,,,,,,,FF,,,,,,,,0.8343,,,,,,,,,,,,,,,,,,,,,,61004a341d22b1d5df6dd925,6103760b924b4aee458743b3,2021-07-29_23h55.44.992,Simcolourproject_2stim_asymm_v5,2020.2.10,Win32,60,61025ae37ef11b136ea224fe,,,,,,,,,334,44.66668707,25.99999005,1,0,0,response1disk,,6,5.333393256,3.333322704,1,0,0,rectangle,5.333393256,3.333322704,1,0,0,5.333393256,3.333322704,1,0,0,1,18,178,19,1,,,,,,,,
,,,,,,,,,,,,,FF,,,,,,,,0.6852,,,,,,,,,,,,,,,,,,,,,,61004a341d22b1d5df6dd925,6103760b924b4aee458743b3,2021-07-29_23h55.44.992,Simcolourproject_2stim_asymm_v5,2020.2.10,Win32,60,61025ae37ef11b136ea224fe,,,,,,,,,2065,37.33339421,50.66665745,1,0,0,response1disk,,7,-0.666606923,5.99998945,1,0,0,rectangle,-0.666606923,5.99998945,1,0,0,-0.666606923,5.99998945,1,0,0,1,19,179,16,1,,,,,,,,
,,,,,,,,,,,,,FF,,,,,,,,0.5308,,,,,,,,,,,,,,,,,,,,,,61004a341d22b1d5df6dd925,6103760b924b4aee458743b3,2021-07-29_23h55.44.992,Simcolourproject_2stim_asymm_v5,2020.2.10,Win32,60,61025ae37ef11b136ea224fe,,,,,,,,,917,41.33339433,58.66665769,1,0,0,response1disk,,7,3.333393196,6.666656137,1,0,0,rectangle,3.333393196,6.666656137,1,0,0,3.333393196,6.666656137,1,0,0,1,20,180,158,1,,,,,,,,
,,,,,,,,,,,,,FF,,,,,,,,0.8706,,,,,,,,,,,,,,,,,,,,,,61004a341d22b1d5df6dd925,6103760b924b4aee458743b3,2021-07-29_23h55.44.992,Simcolourproject_2stim_asymm_v5,2020.2.10,Win32,60,61025ae37ef11b136ea224fe,,,,,,,,,4327,-27.99998176,59.33330403,1,0,0,response7disk,,0,9.333393375,-4.000010848,1,0,0,rectangle,9.333393375,-4.000010848,1,0,0,9.333393375,-4.000010848,1,0,0,1,21,181,38,1,,,,,,,,
,,,,,,,,,,,,,FF,,,,,,,,0.8706,,,,,,,,,,,,,,,,,,,,,,61004a341d22b1d5df6dd925,6103760b924b4aee458743b3,2021-07-29_23h55.44.992,Simcolourproject_2stim_asymm_v5,2020.2.10,Win32,60,61025ae37ef11b136ea224fe,,,,,,,,,2204,20.66668636,54.66665757,1,0,0,response1disk,,7,-1.3333143,2.666656017,1,0,0,rectangle,-1.3333143,2.666656017,1,0,0,-1.3333143,2.666656017,1,0,0,1,22,182,137,1,,,,,,,,
,,,,,,,,,,,,,FF,,,,,,,,0.7003,,,,,,,,,,,,,,,,,,,,,,61004a341d22b1d5df6dd925,6103760b924b4aee458743b3,2021-07-29_23h55.44.992,Simcolourproject_2stim_asymm_v5,2020.2.10,Win32,60,61025ae37ef11b136ea224fe,,,,,,,,,3864,56.66668743,-21.3333447,1,0,0,response3disk,,5,4.666685879,9.999989569,1,0,0,rectangle,4.666685879,9.999989569,1,0,0,4.666685879,9.999989569,1,0,0,1,23,183,122,1,,,,,,,,
,,,,,,,,,,,,,FF,,,,,,,,1.4827,,,,,,,,,,,,,,,,,,,,,,61004a341d22b1d5df6dd925,6103760b924b4aee458743b3,2021-07-29_23h55.44.992,Simcolourproject_2stim_asymm_v5,2020.2.10,Win32,60,61025ae37ef11b136ea224fe,,,,,,,,,4302,44.66668707,-20.00001132,1,0,0,response3disk,,5,-3.999981046,2.666656017,1,0,0,rectangle,-3.999981046,2.666656017,1,0,0,-3.999981046,2.666656017,1,0,0,1,24,184,70,1,,,,,,,,
,,,,,,,,,,,,,FF,,,,,,,,1.8503,,,,,,,,,,,,,,,,,,,,,,61004a341d22b1d5df6dd925,6103760b924b4aee458743b3,2021-07-29_23h55.44.992,Simcolourproject_2stim_asymm_v5,2020.2.10,Win32,60,61025ae37ef11b136ea224fe,,,,,,,,,1260,34.00002009,-40.00001192,1,0,0,response3disk,,4,6.000019252,3.99998939,1,0,0,rectangle,6.000019252,3.99998939,1,0,0,6.000019252,3.99998939,1,0,0,1,25,185,34,1,,,,,,,,
,,,,,,,,,,,,,FF,,,,,,,,0.7505,,,,,,,,,,,,,,,,,,,,,,61004a341d22b1d5df6dd925,6103760b924b4aee458743b3,2021-07-29_23h55.44.992,Simcolourproject_2stim_asymm_v5,2020.2.10,Win32,60,61025ae37ef11b136ea224fe,,,,,,,,,4329,-61.33331609,34.66665697,1,0,0,response7disk,,1,-7.999981165,7.333322823,1,0,0,rectangle,-7.999981165,7.333322823,1,0,0,-7.999981165,7.333322823,1,0,0,1,26,186,155,1,,,,,,,,
,,,,,,,,,,,,,FF,,,,,,,,0.7675,,,,,,,,,,,,,,,,,,,,,,61004a341d22b1d5df6dd925,6103760b924b4aee458743b3,2021-07-29_23h55.44.992,Simcolourproject_2stim_asymm_v5,2020.2.10,Win32,60,61025ae37ef11b136ea224fe,,,,,,,,,4287,59.33335418,33.33330325,1,0,0,response1disk,,6,-7.999981165,13.333323,1,0,0,rectangle,-7.999981165,13.333323,1,0,0,-7.999981165,13.333323,1,0,0,1,27,187,68,1,,,,,,,,
,,,,,,,,,,,,,FF,,,,,,,,1.471,,,,,,,,,,,,,,,,,,,,,,61004a341d22b1d5df6dd925,6103760b924b4aee458743b3,2021-07-29_23h55.44.992,Simcolourproject_2stim_asymm_v5,2020.2.10,Win32,60,61025ae37ef11b136ea224fe,,,,,,,,,3332,73.33335459,-34.66667843,1,0,0,response3disk,,5,9.333393375,5.99998945,1,0,0,rectangle,9.333393375,5.99998945,1,0,0,9.333393375,5.99998945,1,0,0,1,28,188,141,1,,,,,,,,
,,,,,,,,,,,,,FF,,,,,,,,0.6511,,,,,,,,,,,,,,,,,,,,,,61004a341d22b1d5df6dd925,6103760b924b4aee458743b3,2021-07-29_23h55.44.992,Simcolourproject_2stim_asymm_v5,2020.2.10,Win32,60,61025ae37ef11b136ea224fe,,,,,,,,,2167,-38.66660806,56.66665763,1,0,0,response7disk,,0,-3.999981046,-2.666677475,1,0,0,rectangle,-3.999981046,-2.666677475,1,0,0,-3.999981046,-2.666677475,1,0,0,1,29,189,81,1,,,,,,,,
,,,,,,,,,,,,,FF,,,,,,,,1.7975,,,,,,,,,,,,,,,,,,,,,,61004a341d22b1d5df6dd925,6103760b924b4aee458743b3,2021-07-29_23h55.44.992,Simcolourproject_2stim_asymm_v5,2020.2.10,Win32,60,61025ae37ef11b136ea224fe,,,,,,,,,1080,32.66668671,24.66665667,1,0,0,response1disk,,6,-14.66660734,-12.00001109,1,0,0,rectangle,-14.66660734,-12.00001109,1,0,0,-14.66660734,-12.00001109,1,0,0,1,30,190,18,1,,,,,,,,
,,,,,,,,,,,,,FF,,,,,,,,1.4342,,,,,,,,,,,,,,,,,,,,,,61004a341d22b1d5df6dd925,6103760b924b4aee458743b3,2021-07-29_23h55.44.992,Simcolourproject_2stim_asymm_v5,2020.2.10,Win32,60,61025ae37ef11b136ea224fe,,,,,,,,,1859,66.00002104,-14.00001115,1,0,0,response3disk,,5,1.9735E-05,6.666656137,1,0,0,rectangle,1.9735E-05,6.666656137,1,0,0,1.9735E-05,6.666656137,1,0,0,1,31,191,123,1,,,,,,,,
,,,,,,,,,,,,,FF,,,,,,,,1.1306,,,,,,,,,,,,,,,,,,,,,,61004a341d22b1d5df6dd925,6103760b924b4aee458743b3,2021-07-29_23h55.44.992,Simcolourproject_2stim_asymm_v5,2020.2.10,Win32,60,61025ae37ef11b136ea224fe,,,,,,,,,2947,-55.9999826,36.66665703,1,0,0,response7disk,,1,-1.999980986,5.333322763,1,0,0,rectangle,-1.999980986,5.333322763,1,0,0,-1.999980986,5.333322763,1,0,0,1,32,192,41,1,,,,,,,,
,,,,,,,,,,,,,FF,,,,,,,,1.0843,,,,,,,,,,,,,,,,,,,,,,61004a341d22b1d5df6dd925,6103760b924b4aee458743b3,2021-07-29_23h55.44.992,Simcolourproject_2stim_asymm_v5,2020.2.10,Win32,60,61025ae37ef11b136ea224fe,,,,,,,,,3471,-60.66660871,33.99999028,1,0,0,response7disk,,1,10.00001937,5.333322763,1,0,0,rectangle,10.00001937,5.333322763,1,0,0,10.00001937,5.333322763,1,0,0,1,33,193,98,1,,,,,,,,
,,,,,,,,,,,,,FF,,,,,,,,1.1011,,,,,,,,,,,,,,,,,,,,,,61004a341d22b1d5df6dd925,6103760b924b4aee458743b3,2021-07-29_23h55.44.992,Simcolourproject_2stim_asymm_v5,2020.2.10,Win32,60,61025ae37ef11b136ea224fe,,,,,,,,,3083,41.33339433,29.33330313,1,0,0,response1disk,,6,-4.666607042,7.333322823,1,0,0,rectangle,-4.666607042,7.333322823,1,0,0,-4.666607042,7.333322823,1,0,0,1,34,194,154,1,,,,,,,,
,,,,,,,,,,,,,FF,,,,,,,,2.7541,,,,,,,,,,,,,,,,,,,,,,61004a341d22b1d5df6dd925,6103760b924b4aee458743b3,2021-07-29_23h55.44.992,Simcolourproject_2stim_asymm_v5,2020.2.10,Win32,60,61025ae37ef11b136ea224fe,,,,,,,,,3123,63.33335429,28.66665679,1,0,0,response1disk,,6,24.66668648,3.99998939,1,0,0,rectangle,24.66668648,3.99998939,1,0,0,24.66668648,3.99998939,1,0,0,1,35,195,106,1,,,,,,,,
,,,,,,,,,,,,,FF,,,,,,,,0.7892,,,,,,,,,,,,,,,,,,,,,,61004a341d22b1d5df6dd925,6103760b924b4aee458743b3,2021-07-29_23h55.44.992,Simcolourproject_2stim_asymm_v5,2020.2.10,Win32,60,61025ae37ef11b136ea224fe,,,,,,,,,2136,34.66668677,83.33330474,1,0,0,response1disk,,7,6.000019252,9.999989569,1,0,0,rectangle,6.000019252,9.999989569,1,0,0,6.000019252,9.999989569,1,0,0,1,36,196,78,1,,,,,,,,
,,,,,,,,,,,,,FF,,,,,,,,0.8545,,,,,,,,,,,,,,,,,,,,,,61004a341d22b1d5df6dd925,6103760b924b4aee458743b3,2021-07-29_23h55.44.992,Simcolourproject_2stim_asymm_v5,2020.2.10,Win32,60,61025ae37ef11b136ea224fe,,,,,,,,,1003,38.66668689,26.66665673,1,0,0,response1disk,,6,2.000019133,-8.666677654,1,0,0,rectangle,2.000019133,-8.666677654,1,0,0,2.000019133,-8.666677654,1,0,0,1,37,197,61,1,,,,,,,,
,,,,,,,,,,,,,FF,,,,,,,,1.5518,,,,,,,,,,,,,,,,,,,,,,61004a341d22b1d5df6dd925,6103760b924b4aee458743b3,2021-07-29_23h55.44.992,Simcolourproject_2stim_asymm_v5,2020.2.10,Win32,60,61025ae37ef11b136ea224fe,,,,,,,,,3357,-35.33331531,-58.00001246,1,0,0,response5disk,,3,-7.333314478,3.99998939,1,0,0,rectangle,-7.333314478,3.99998939,1,0,0,-7.333314478,3.99998939,1,0,0,1,38,198,66,1,,,,,,,,
,,,,,,,,,,,,,FF,,,,,,,,0.7879,,,,,,,,,,,,,,,,,,,,,,61004a341d22b1d5df6dd925,6103760b924b4aee458743b3,2021-07-29_23h55.44.992,Simcolourproject_2stim_asymm_v5,2020.2.10,Win32,60,61025ae37ef11b136ea224fe,,,,,,,,,1975,54.66668737,25.99999005,1,0,0,response1disk,,6,6.000019252,-4.666677535,1,0,0,rectangle,6.000019252,-4.666677535,1,0,0,6.000019252,-4.666677535,1,0,0,1,39,199,3,1,,,,,,,,
,,,,,,,,,,,,,FF,,,,,,,,0.8336,,,,,,,,,,,,,,,,,,,,,,61004a341d22b1d5df6dd925,6103760b924b4aee458743b3,2021-07-29_23h55.44.992,Simcolourproject_2stim_asymm_v5,2020.2.10,Win32,60,61025ae37ef11b136ea224fe,,,,,,,,,2889,-56.66660859,-19.33334464,1,0,0,response5disk,,2,-10.66660722,2.666656017,1,0,0,rectangle,29.33339397,-60.6666792,1,0,0,-10.66660722,6.666656137,1,0,0,1,40,200,114,1,,response3disk_3,TRUE,4,4,"[72,253,172,117,311,235,201,119,254,177,223,16,3,90,50,261,263,123,310,284]",1.8381,rectangle
,,,,,,,,,,,,,FF,,,,,,,,0.8346,,,,,,,,,,,,,,,,,,,,,,61004a341d22b1d5df6dd925,6103760b924b4aee458743b3,2021-07-29_23h55.44.992,Simcolourproject_2stim_asymm_v5,2020.2.10,Win32,60,61025ae37ef11b136ea224fe,,,,,,,,,1618,-47.99998236,25.33330301,1,0,0,response7disk,,1,20.66668636,-9.33334434,1,0,0,rectangle,20.66668636,-9.33334434,1,0,0,20.66668636,-9.33334434,1,0,0,1,41,201,25,1,,,,,,,,
,,,,,,,,,,,,,FF,,,,,,,,0.8629,,,,,,,,,,,,,,,,,,,,,,61004a341d22b1d5df6dd925,6103760b924b4aee458743b3,2021-07-29_23h55.44.992,Simcolourproject_2stim_asymm_v5,2020.2.10,Win32,60,61025ae37ef11b136ea224fe,,,,,,,,,594,27.33339391,47.9999907,1,0,0,response1disk,,7,2.000019133,3.333322704,1,0,0,rectangle,2.000019133,3.333322704,1,0,0,2.000019133,3.333322704,1,0,0,1,42,202,111,1,,,,,,,,
,,,,,,,,,,,,,FF,,,,,,,,0.763,,,,,,,,,,,,,,,,,,,,,,61004a341d22b1d5df6dd925,6103760b924b4aee458743b3,2021-07-29_23h55.44.992,Simcolourproject_2stim_asymm_v5,2020.2.10,Win32,60,61025ae37ef11b136ea224fe,,,,,,,,,945,64.66668767,33.33330325,1,0,0,response1disk,,6,3.333393196,5.99998945,1,0,0,rectangle,3.333393196,5.99998945,1,0,0,3.333393196,5.99998945,1,0,0,1,43,203,153,1,,,,,,,,
,,,,,,,,,,,,,FF,,,,,,,,3.8373,,,,,,,,,,,,,,,,,,,,,,61004a341d22b1d5df6dd925,6103760b924b4aee458743b3,2021-07-29_23h55.44.992,Simcolourproject_2stim_asymm_v5,2020.2.10,Win32,60,61025ae37ef11b136ea224fe,,,,,,,,,3842,29.33339397,-54.00001234,1,0,0,response3disk,,4,-7.999981165,-13.33334446,1,0,0,rectangle,-7.999981165,-13.33334446,1,0,0,-7.999981165,-13.33334446,1,0,0,1,44,204,8,1,,,,,,,,
,,,,,,,,,,,,,FF,,,,,,,,1.4012,,,,,,,,,,,,,,,,,,,,,,61004a341d22b1d5df6dd925,6103760b924b4aee458743b3,2021-07-29_23h55.44.992,Simcolourproject_2stim_asymm_v5,2020.2.10,Win32,60,61025ae37ef11b136ea224fe,,,,,,,,,2654,-74.66660913,-14.66667783,1,0,0,response5disk,,2,-3.333314359,7.99998951,1,0,0,rectangle,-3.333314359,7.99998951,1,0,0,-3.333314359,7.99998951,1,0,0,1,45,205,115,1,,,,,,,,
,,,,,,,,,,,,,FF,,,,,,,,0.8167,,,,,,,,,,,,,,,,,,,,,,61004a341d22b1d5df6dd925,6103760b924b4aee458743b3,2021-07-29_23h55.44.992,Simcolourproject_2stim_asymm_v5,2020.2.10,Win32,60,61025ae37ef11b136ea224fe,,,,,,,,,2534,-63.99998283,-18.66667795,1,0,0,response5disk,,2,1.9735E-05,8.666656196,1,0,0,rectangle,1.9735E-05,8.666656196,1,0,0,1.9735E-05,8.666656196,1,0,0,1,46,206,50,1,,,,,,,,
,,,,,,,,,,,,,FF,,,,,,,,1.2004,,,,,,,,,,,,,,,,,,,,,,61004a341d22b1d5df6dd925,6103760b924b4aee458743b3,2021-07-29_23h55.44.992,Simcolourproject_2stim_asymm_v5,2020.2.10,Win32,60,61025ae37ef11b136ea224fe,,,,,,,,,2908,37.33339421,-45.33334541,1,0,0,response3disk,,4,4.000019193,7.333322823,1,0,0,rectangle,4.000019193,7.333322823,1,0,0,4.000019193,7.333322823,1,0,0,1,47,207,151,1,,,,,,,,
,,,,,,,,,,,,,FF,,,,,,,,1.0353,,,,,,,,,,,,,,,,,,,,,,61004a341d22b1d5df6dd925,6103760b924b4aee458743b3,2021-07-29_23h55.44.992,Simcolourproject_2stim_asymm_v5,2020.2.10,Win32,60,61025ae37ef11b136ea224fe,,,,,,,,,2901,18.6666863,-44.66667873,1,0,0,response3disk,,4,-7.999981165,-1.07288E-05,1,0,0,rectangle,-7.999981165,-1.07288E-05,1,0,0,-7.999981165,-1.07288E-05,1,0,0,1,48,208,143,1,,,,,,,,
,,,,,,,,,,,,,FF,,,,,,,,0.7881,,,,,,,,,,,,,,,,,,,,,,61004a341d22b1d5df6dd925,6103760b924b4aee458743b3,2021-07-29_23h55.44.992,Simcolourproject_2stim_asymm_v5,2020.2.10,Win32,60,61025ae37ef11b136ea224fe,,,,,,,,,576,45.33335376,21.99998993,1,0,0,response1disk,,6,-9.333314538,-4.000010848,1,0,0,rectangle,-9.333314538,-4.000010848,1,0,0,-9.333314538,-4.000010848,1,0,0,1,49,209,146,1,,,,,,,,
,,,,,,,,,,,,,FF,,,,,,,,1.2381,,,,,,,,,,,,,,,,,,,,,,61004a341d22b1d5df6dd925,6103760b924b4aee458743b3,2021-07-29_23h55.44.992,Simcolourproject_2stim_asymm_v5,2020.2.10,Win32,60,61025ae37ef11b136ea224fe,,,,,,,,,2054,66.00002104,-28.00001156,1,0,0,response3disk,,5,1.333393137,-7.333344281,1,0,0,rectangle,1.333393137,-7.333344281,1,0,0,1.333393137,-7.333344281,1,0,0,1,50,210,37,1,,,,,,,,
,,,,,,,,,,,,,FF,,,,,,,,0.7507,,,,,,,,,,,,,,,,,,,,,,61004a341d22b1d5df6dd925,6103760b924b4aee458743b3,2021-07-29_23h55.44.992,Simcolourproject_2stim_asymm_v5,2020.2.10,Win32,60,61025ae37ef11b136ea224fe,,,,,,,,,3715,34.66668677,-44.00001204,1,0,0,response3disk,,4,-1.3333143,8.666656196,1,0,0,rectangle,-1.3333143,8.666656196,1,0,0,-1.3333143,8.666656196,1,0,0,1,51,211,135,1,,,,,,,,
,,,,,,,,,,,,,FF,,,,,,,,1.0013,,,,,,,,,,,,,,,,,,,,,,61004a341d22b1d5df6dd925,6103760b924b4aee458743b3,2021-07-29_23h55.44.992,Simcolourproject_2stim_asymm_v5,2020.2.10,Win32,60,61025ae37ef11b136ea224fe,,,,,,,,,955,46.66668713,19.99998987,1,0,0,response1disk,,6,3.333393196,-1.07288E-05,1,0,0,rectangle,3.333393196,-1.07288E-05,1,0,0,3.333393196,-1.07288E-05,1,0,0,1,52,212,64,1,,,,,,,,
,,,,,,,,,,,,,FF,,,,,,,,1.6132,,,,,,,,,,,,,,,,,,,,,,61004a341d22b1d5df6dd925,6103760b924b4aee458743b3,2021-07-29_23h55.44.992,Simcolourproject_2stim_asymm_v5,2020.2.10,Win32,60,61025ae37ef11b136ea224fe,,,,,,,,,2408,24.66668648,60.66665775,1,0,0,response1disk,,7,-0.666606923,-4.666677535,1,0,0,rectangle,-0.666606923,-4.666677535,1,0,0,-0.666606923,-4.666677535,1,0,0,1,53,213,7,1,,,,,,,,
,,,,,,,,,,,,,FF,,,,,,,,2.0679,,,,,,,,,,,,,,,,,,,,,,61004a341d22b1d5df6dd925,6103760b924b4aee458743b3,2021-07-29_23h55.44.992,Simcolourproject_2stim_asymm_v5,2020.2.10,Win32,60,61025ae37ef11b136ea224fe,,,,,,,,,2284,22.00001973,-48.66667885,1,0,0,response3disk,,4,-10.66660722,-6.666677594,1,0,0,rectangle,-10.66660722,-6.666677594,1,0,0,-10.66660722,-6.666677594,1,0,0,1,54,214,5,1,,,,,,,,
,,,,,,,,,,,,,FF,,,,,,,,1.0541,,,,,,,,,,,,,,,,,,,,,,61004a341d22b1d5df6dd925,6103760b924b4aee458743b3,2021-07-29_23h55.44.992,Simcolourproject_2stim_asymm_v5,2020.2.10,Win32,60,61025ae37ef11b136ea224fe,,,,,,,,,3017,25.33339385,42.66665721,1,0,0,response1disk,,7,5.333393256,6.666656137,1,0,0,rectangle,5.333393256,6.666656137,1,0,0,5.333393256,6.666656137,1,0,0,1,55,215,33,1,,,,,,,,
,,,,,,,,,,,,,FF,,,,,,,,1.4347,,,,,,,,,,,,,,,,,,,,,,61004a341d22b1d5df6dd925,6103760b924b4aee458743b3,2021-07-29_23h55.44.992,Simcolourproject_2stim_asymm_v5,2020.2.10,Win32,60,61025ae37ef11b136ea224fe,,,,,,,,,573,28.00001991,48.66665739,1,0,0,response1disk,,7,6.000019252,0.666655958,1,0,0,rectangle,6.000019252,0.666655958,1,0,0,6.000019252,0.666655958,1,0,0,1,56,216,99,1,,,,,,,,
,,,,,,,,,,,,,FF,,,,,,,,1.2379,,,,,,,,,,,,,,,,,,,,,,61004a341d22b1d5df6dd925,6103760b924b4aee458743b3,2021-07-29_23h55.44.992,Simcolourproject_2stim_asymm_v5,2020.2.10,Win32,60,61025ae37ef11b136ea224fe,,,,,,,,,2845,78.66668808,-24.66667813,1,0,0,response3disk,,5,0.66668576,2.666656017,1,0,0,rectangle,0.66668576,2.666656017,1,0,0,0.66668576,2.666656017,1,0,0,1,57,217,145,1,,,,,,,,
,,,,,,,,,,,,,FF,,,,,,,,1.664,,,,,,,,,,,,,,,,,,,,,,61004a341d22b1d5df6dd925,6103760b924b4aee458743b3,2021-07-29_23h55.44.992,Simcolourproject_2stim_asymm_v5,2020.2.10,Win32,60,61025ae37ef11b136ea224fe,,,,,,,,,82,38.00002021,-48.66667885,1,0,0,response3disk,,4,10.00001937,-1.333344102,1,0,0,rectangle,10.00001937,-1.333344102,1,0,0,10.00001937,-1.333344102,1,0,0,1,58,218,73,1,,,,,,,,
,,,,,,,,,,,,,FF,,,,,,,,0.7005,,,,,,,,,,,,,,,,,,,,,,61004a341d22b1d5df6dd925,6103760b924b4aee458743b3,2021-07-29_23h55.44.992,Simcolourproject_2stim_asymm_v5,2020.2.10,Win32,60,61025ae37ef11b136ea224fe,,,,,,,,,1244,53.333354,34.66665697,1,0,0,response1disk,,6,8.000019312,3.333322704,1,0,0,rectangle,8.000019312,3.333322704,1,0,0,8.000019312,3.333322704,1,0,0,1,59,219,133,1,,,,,,,,
,,,,,,,,,,,,,FF,,,,,,,,1.8169,,,,,,,,,,,,,,,,,,,,,,61004a341d22b1d5df6dd925,6103760b924b4aee458743b3,2021-07-29_23h55.44.992,Simcolourproject_2stim_asymm_v5,2020.2.10,Win32,60,61025ae37ef11b136ea224fe,,,,,,,,,3141,46.66668713,-20.66667801,1,0,0,response3disk,,5,-4.666607042,5.333322763,1,0,0,rectangle,-4.666607042,5.333322763,1,0,0,-4.666607042,5.333322763,1,0,0,1,60,220,77,1,,,,,,,,
,,,,,,,,,,,,,FF,,,,,,,,0.8179,,,,,,,,,,,,,,,,,,,,,,61004a341d22b1d5df6dd925,6103760b924b4aee458743b3,2021-07-29_23h55.44.992,Simcolourproject_2stim_asymm_v5,2020.2.10,Win32,60,61025ae37ef11b136ea224fe,,,,,,,,,3558,-58.66660865,-26.66667819,1,0,0,response5disk,,2,-5.999981105,1.333322644,1,0,0,rectangle,-5.999981105,1.333322644,1,0,0,-5.999981105,1.333322644,1,0,0,1,61,221,32,1,,,,,,,,
,,,,,,,,,,,,,FF,,,,,,,,0.784,,,,,,,,,,,,,,,,,,,,,,61004a341d22b1d5df6dd925,6103760b924b4aee458743b3,2021-07-29_23h55.44.992,Simcolourproject_2stim_asymm_v5,2020.2.10,Win32,60,61025ae37ef11b136ea224fe,,,,,,,,,1009,52.66668731,29.33330313,1,0,0,response1disk,,6,1.9735E-05,6.666656137,1,0,0,rectangle,-63.99998283,-44.00001204,1,0,0,-6.666607102,5.333322763,1,0,0,1,62,222,157,1,,response5disk_3,TRUE,2,2,"[72,253,172,117,311,235,201,119,254,177,223,16,3,90,50,261,263,123,310,284]",1.784,rectangle
,,,,,,,,,,,,,FF,,,,,,,,1.2516,,,,,,,,,,,,,,,,,,,,,,61004a341d22b1d5df6dd925,6103760b924b4aee458743b3,2021-07-29_23h55.44.992,Simcolourproject_2stim_asymm_v5,2020.2.10,Win32,60,61025ae37ef11b136ea224fe,,,,,,,,,1134,-63.33331615,35.33330331,1,0,0,response7disk,,1,-9.999981225,4.666656077,1,0,0,rectangle,-9.999981225,4.666656077,1,0,0,-9.999981225,4.666656077,1,0,0,1,63,223,126,1,,,,,,,,
,,,,,,,,,,,,,FF,,,,,,,,0.767,,,,,,,,,,,,,,,,,,,,,,61004a341d22b1d5df6dd925,6103760b924b4aee458743b3,2021-07-29_23h55.44.992,Simcolourproject_2stim_asymm_v5,2020.2.10,Win32,60,61025ae37ef11b136ea224fe,,,,,,,,,2668,-58.66660865,25.99999005,1,0,0,response7disk,,1,-7.999981165,0.666655958,1,0,0,rectangle,-7.999981165,0.666655958,1,0,0,-7.999981165,0.666655958,1,0,0,1,64,224,72,1,,,,,,,,
,,,,,,,,,,,,,FF,,,,,,,,2.1828,,,,,,,,,,,,,,,,,,,,,,61004a341d22b1d5df6dd925,6103760b924b4aee458743b3,2021-07-29_23h55.44.992,Simcolourproject_2stim_asymm_v5,2020.2.10,Win32,60,61025ae37ef11b136ea224fe,,,,,,,,,382,47.33335382,21.99998993,1,0,0,response1disk,,6,-3.333314359,-5.333344221,1,0,0,rectangle,-3.333314359,-5.333344221,1,0,0,-3.333314359,-5.333344221,1,0,0,1,65,225,88,1,,,,,,,,
,,,,,,,,,,,,,FF,,,,,,,,0.985,,,,,,,,,,,,,,,,,,,,,,61004a341d22b1d5df6dd925,6103760b924b4aee458743b3,2021-07-29_23h55.44.992,Simcolourproject_2stim_asymm_v5,2020.2.10,Win32,60,61025ae37ef11b136ea224fe,,,,,,,,,598,64.00002098,-22.00001138,1,0,0,response3disk,,5,-3.333314359,3.99998939,1,0,0,rectangle,-3.333314359,3.99998939,1,0,0,-3.333314359,3.99998939,1,0,0,1,66,226,67,1,,,,,,,,
,,,,,,,,,,,,,FF,,,,,,,,1.0008,,,,,,,,,,,,,,,,,,,,,,61004a341d22b1d5df6dd925,6103760b924b4aee458743b3,2021-07-29_23h55.44.992,Simcolourproject_2stim_asymm_v5,2020.2.10,Win32,60,61025ae37ef11b136ea224fe,,,,,,,,,142,34.00002009,64.66665787,1,0,0,response1disk,,7,-11.99998128,-5.333344221,1,0,0,rectangle,-11.99998128,-5.333344221,1,0,0,-11.99998128,-5.333344221,1,0,0,1,67,227,46,1,,,,,,,,
,,,,,,,,,,,,,FF,,,,,,,,0.8346,,,,,,,,,,,,,,,,,,,,,,61004a341d22b1d5df6dd925,6103760b924b4aee458743b3,2021-07-29_23h55.44.992,Simcolourproject_2stim_asymm_v5,2020.2.10,Win32,60,61025ae37ef11b136ea224fe,,,,,,,,,2680,50.66668725,30.66665685,1,0,0,response1disk,,6,1.9735E-05,2.666656017,1,0,0,rectangle,1.9735E-05,2.666656017,1,0,0,1.9735E-05,2.666656017,1,0,0,1,68,228,127,1,,,,,,,,
,,,,,,,,,,,,,FF,,,,,,,,0.7165,,,,,,,,,,,,,,,,,,,,,,61004a341d22b1d5df6dd925,6103760b924b4aee458743b3,2021-07-29_23h55.44.992,Simcolourproject_2stim_asymm_v5,2020.2.10,Win32,60,61025ae37ef11b136ea224fe,,,,,,,,,3159,-38.66660806,-42.66667867,1,0,0,response5disk,,3,6.000019252,12.66665632,1,0,0,rectangle,6.000019252,12.66665632,1,0,0,6.000019252,12.66665632,1,0,0,1,69,229,149,1,,,,,,,,
,,,,,,,,,,,,,FF,,,,,,,,0.8009,,,,,,,,,,,,,,,,,,,,,,61004a341d22b1d5df6dd925,6103760b924b4aee458743b3,2021-07-29_23h55.44.992,Simcolourproject_2stim_asymm_v5,2020.2.10,Win32,60,61025ae37ef11b136ea224fe,,,,,,,,,3244,-57.33331597,35.99999034,1,0,0,response7disk,,1,0.66668576,10.66665626,1,0,0,rectangle,0.66668576,10.66665626,1,0,0,0.66668576,10.66665626,1,0,0,1,70,230,49,1,,,,,,,,
,,,,,,,,,,,,,FF,,,,,,,,1.3544,,,,,,,,,,,,,,,,,,,,,,61004a341d22b1d5df6dd925,6103760b924b4aee458743b3,2021-07-29_23h55.44.992,Simcolourproject_2stim_asymm_v5,2020.2.10,Win32,60,61025ae37ef11b136ea224fe,,,,,,,,,1545,55.33335406,-29.33334494,1,0,0,response3disk,,5,-1.3333143,-2.666677475,1,0,0,rectangle,-1.3333143,-2.666677475,1,0,0,-1.3333143,-2.666677475,1,0,0,1,71,231,53,1,,,,,,,,
,,,,,,,,,,,,,FF,,,,,,,,0.8676,,,,,,,,,,,,,,,,,,,,,,61004a341d22b1d5df6dd925,6103760b924b4aee458743b3,2021-07-29_23h55.44.992,Simcolourproject_2stim_asymm_v5,2020.2.10,Win32,60,61025ae37ef11b136ea224fe,,,,,,,,,2074,58.0000208,32.66665691,1,0,0,response1disk,,6,8.000019312,10.66665626,1,0,0,rectangle,8.000019312,10.66665626,1,0,0,8.000019312,10.66665626,1,0,0,1,72,232,47,1,,,,,,,,
,,,,,,,,,,,,,FF,,,,,,,,0.8842,,,,,,,,,,,,,,,,,,,,,,61004a341d22b1d5df6dd925,6103760b924b4aee458743b3,2021-07-29_23h55.44.992,Simcolourproject_2stim_asymm_v5,2020.2.10,Win32,60,61025ae37ef11b136ea224fe,,,,,,,,,3945,46.00002044,-26.66667819,1,0,0,response3disk,,5,-9.999981225,-0.666677415,1,0,0,rectangle,-9.999981225,-0.666677415,1,0,0,-9.999981225,-0.666677415,1,0,0,1,73,233,104,1,,,,,,,,
,,,,,,,,,,,,,FF,,,,,,,,1.2,,,,,,,,,,,,,,,,,,,,,,61004a341d22b1d5df6dd925,6103760b924b4aee458743b3,2021-07-29_23h55.44.992,Simcolourproject_2stim_asymm_v5,2020.2.10,Win32,60,61025ae37ef11b136ea224fe,,,,,,,,,229,33.33339409,57.33330397,1,0,0,response1disk,,7,4.000019193,-2.000010788,1,0,0,rectangle,-80.66660931,-34.66667843,1,0,0,-6.666607102,0.666655958,1,0,0,1,74,234,55,1,,response5disk_3,TRUE,2,2,"[72,253,172,117,311,235,201,119,254,177,223,16,3,90,50,261,263,123,310,284]",1.6218,rectangle
,,,,,,,,,,,,,FF,,,,,,,,1.2678,,,,,,,,,,,,,,,,,,,,,,61004a341d22b1d5df6dd925,6103760b924b4aee458743b3,2021-07-29_23h55.44.992,Simcolourproject_2stim_asymm_v5,2020.2.10,Win32,60,61025ae37ef11b136ea224fe,,,,,,,,,2342,43.3333537,24.66665667,1,0,0,response1disk,,6,-7.999981165,6.666656137,1,0,0,rectangle,-7.999981165,6.666656137,1,0,0,-7.999981165,6.666656137,1,0,0,1,75,235,92,1,,,,,,,,
,,,,,,,,,,,,,FF,,,,,,,,0.8834,,,,,,,,,,,,,,,,,,,,,,61004a341d22b1d5df6dd925,6103760b924b4aee458743b3,2021-07-29_23h55.44.992,Simcolourproject_2stim_asymm_v5,2020.2.10,Win32,60,61025ae37ef11b136ea224fe,,,,,,,,,1210,33.33339409,73.33330444,1,0,0,response1disk,,7,5.333393256,3.333322704,1,0,0,rectangle,5.333393256,3.333322704,1,0,0,5.333393256,3.333322704,1,0,0,1,76,236,156,1,,,,,,,,
,,,,,,,,,,,,,FF,,,,,,,,1.0507,,,,,,,,,,,,,,,,,,,,,,61004a341d22b1d5df6dd925,6103760b924b4aee458743b3,2021-07-29_23h55.44.992,Simcolourproject_2stim_asymm_v5,2020.2.10,Win32,60,61025ae37ef11b136ea224fe,,,,,,,,,4164,-53.33331585,-23.33334476,1,0,0,response5disk,,2,2.66668582,6.666656137,1,0,0,rectangle,2.66668582,6.666656137,1,0,0,2.66668582,6.666656137,1,0,0,1,77,237,110,1,,,,,,,,
,,,,,,,,,,,,,FF,,,,,,,,0.7516,,,,,,,,,,,,,,,,,,,,,,61004a341d22b1d5df6dd925,6103760b924b4aee458743b3,2021-07-29_23h55.44.992,Simcolourproject_2stim_asymm_v5,2020.2.10,Win32,60,61025ae37ef11b136ea224fe,,,,,,,,,2941,-51.99998248,25.33330301,1,0,0,response7disk,,1,-10.66660722,-1.333344102,1,0,0,rectangle,-10.66660722,-1.333344102,1,0,0,-10.66660722,-1.333344102,1,0,0,1,78,238,105,1,,,,,,,,
,,,,,,,,,,,,,FF,,,,,,,,0.7696,,,,,,,,,,,,,,,,,,,,,,61004a341d22b1d5df6dd925,6103760b924b4aee458743b3,2021-07-29_23h55.44.992,Simcolourproject_2stim_asymm_v5,2020.2.10,Win32,60,61025ae37ef11b136ea224fe,,,,,,,,,19,52.00002062,24.66665667,1,0,0,response1disk,,6,-12.66660728,-4.666677535,1,0,0,rectangle,-12.66660728,-4.666677535,1,0,0,-12.66660728,-4.666677535,1,0,0,1,79,239,12,1,,,,,,,,
,,,,,,,,,,,,,FF,,,,,,,,1.6128,,,,,,,,,,,,,,,,,,,,,,61004a341d22b1d5df6dd925,6103760b924b4aee458743b3,2021-07-29_23h55.44.992,Simcolourproject_2stim_asymm_v5,2020.2.10,Win32,60,61025ae37ef11b136ea224fe,,,,,,,,,92,65.33335435,-31.333345,1,0,0,response3disk,,5,6.000019252,3.99998939,1,0,0,rectangle,6.000019252,3.99998939,1,0,0,6.000019252,3.99998939,1,0,0,1,80,240,159,1,,,,,,,,
,,,,,,,,,,,,,FF,,,,,,,,0.7961,,,,,,,,,,,,,,,,,,,,,,61004a341d22b1d5df6dd925,6103760b924b4aee458743b3,2021-07-29_23h55.44.992,Simcolourproject_2stim_asymm_v5,2020.2.10,Win32,60,61025ae37ef11b136ea224fe,,,,,,,,,1169,39.33339427,64.66665787,1,0,0,response1disk,,7,8.000019312,-1.07288E-05,1,0,0,rectangle,8.000019312,-1.07288E-05,1,0,0,8.000019312,-1.07288E-05,1,0,0,1,81,241,39,1,,,,,,,,
,,,,,,,,,,,,,FF,,,,,,,,1.4004,,,,,,,,,,,,,,,,,,,,,,61004a341d22b1d5df6dd925,6103760b924b4aee458743b3,2021-07-29_23h55.44.992,Simcolourproject_2stim_asymm_v5,2020.2.10,Win32,60,61025ae37ef11b136ea224fe,,,,,,,,,1895,-55.9999826,-44.66667873,1,0,0,response5disk,,2,1.9735E-05,-7.333344281,1,0,0,rectangle,1.9735E-05,-7.333344281,1,0,0,1.9735E-05,-7.333344281,1,0,0,1,82,242,148,1,,,,,,,,
,,,,,,,,,,,,,FF,,,,,,,,0.8833,,,,,,,,,,,,,,,,,,,,,,61004a341d22b1d5df6dd925,6103760b924b4aee458743b3,2021-07-29_23h55.44.992,Simcolourproject_2stim_asymm_v5,2020.2.10,Win32,60,61025ae37ef11b136ea224fe,,,,,,,,,1445,-33.33331525,61.99999112,1,0,0,response7disk,,0,-2.666606983,-6.666677594,1,0,0,rectangle,-2.666606983,-6.666677594,1,0,0,-2.666606983,-6.666677594,1,0,0,1,83,243,56,1,,,,,,,,
