key_resp.keys,key_resp.rt,key_resp_14.keys,key_resp_14.rt,key_resp_15.keys,key_resp_15.rt,key_resp_17.keys,key_resp_17.rt,key_resp_9.keys,key_resp_9.rt,key_resp_10.keys,key_resp_10.rt,practice_comparison,Ecc,mouse_5.x,mouse_5.y,mouse_5.leftButton,mouse_5.midButton,mouse_5.rightButton,mouse_5.clicked_name,pracsimilarity,response_time,mouse_10.x,mouse_10.y,mouse_10.leftButton,mouse_10.midButton,mouse_10.rightButton,mouse_10.clicked_name,mouse_7.x,mouse_7.y,mouse_7.leftButton,mouse_7.midButton,mouse_7.rightButton,mouse_6.x,mouse_6.y,mouse_6.leftButton,mouse_6.midButton,mouse_6.rightButton,duringprac.thisRepN,duringprac.thisTrialN,duringprac.thisN,duringprac.thisIndex,duringprac.ran,participant,session,date,expName,psychopyVersion,OS,frameRate,study_id,mouse_7.clicked_name,catchpracsimilarity,catch_response_time,catchnumberprac,catchtrialorderprac,mouse_6.clicked_name,key_resp_22.keys,key_resp_22.rt,realcomparison,mouse.x,mouse.y,mouse.leftButton,mouse.midButton,mouse.rightButton,mouse.clicked_name,Colour2,similarity,mouse_2.x,mouse_2.y,mouse_2.leftButton,mouse_2.midButton,mouse_2.rightButton,mouse_2.clicked_name,mouse_3.x,mouse_3.y,mouse_3.leftButton,mouse_3.midButton,mouse_3.rightButton,mouse_11.x,mouse_11.y,mouse_11.leftButton,mouse_11.midButton,mouse_11.rightButton,trials_2.thisRepN,trials_2.thisTrialN,trials_2.thisN,trials_2.thisIndex,trials_2.ran,Colour1,mouse_3.clicked_name,catchornah,catchsimilarity,catchnumber,catchtrialorder,catchRT,mouse_11.clicked_name
space,2.086,space,9.998,space,49.053,space,34.463,space,3.993,space,4.57,69,FF,39,-83,1,0,0,response3disk_5,4,14.585,5,0,1,0,0,rectangle_8,5,0,1,0,0,5,0,1,0,0,0,0,0,3,1,6101a914523b50e7c767b00e,61036d9194c7d8bd8f5eab76,2021-07-29_23h10.41.255,Simcolourproject_2stim_asymm_v5,2020.2.10,MacIntel,60,61025ae37ef11b136ea224fe,,,,,,,,,,,,,,,,,,,,,,,,,,,,,,,,,,,,,,,,,,,,,,
,,,,,,,,,,,,83,PF,-35,-52,1,0,0,response5disk_5,3,5.868,-3,-4,1,0,0,rectangle_8,41,62,1,0,0,2,-3,1,0,0,0,1,1,6,1,6101a914523b50e7c767b00e,61036d9194c7d8bd8f5eab76,2021-07-29_23h10.41.255,Simcolourproject_2stim_asymm_v5,2020.2.10,MacIntel,60,61025ae37ef11b136ea224fe,response1disk_7,7,5.3,7,"[2,5]",rectangle_4,,,,,,,,,,,,,,,,,,,,,,,,,,,,,,,,,,,,,,,,
,,,,,,,,,,,,76,FF,-48,54,1,0,0,response7disk_5,0,4.517,-8,-2,1,0,0,rectangle_8,-8,-2,1,0,0,-8,-2,1,0,0,0,2,2,0,1,6101a914523b50e7c767b00e,61036d9194c7d8bd8f5eab76,2021-07-29_23h10.41.255,Simcolourproject_2stim_asymm_v5,2020.2.10,MacIntel,60,61025ae37ef11b136ea224fe,,,,,,,,,,,,,,,,,,,,,,,,,,,,,,,,,,,,,,,,,,,,,,
,,,,,,,,,,,,127,PF,-25,79,1,0,0,response7disk_5,0,5.366,-18,3,1,0,0,rectangle_8,-18,3,1,0,0,-18,3,1,0,0,0,3,3,4,1,6101a914523b50e7c767b00e,61036d9194c7d8bd8f5eab76,2021-07-29_23h10.41.255,Simcolourproject_2stim_asymm_v5,2020.2.10,MacIntel,60,61025ae37ef11b136ea224fe,,,,,,,,,,,,,,,,,,,,,,,,,,,,,,,,,,,,,,,,,,,,,,
,,,,,,,,,,,,121,PF,32,-78,1,0,0,response3disk_5,4,11.417,-17,-1,1,0,0,rectangle_8,22,98,1,0,0,-2,5,1,0,0,0,4,4,1,1,6101a914523b50e7c767b00e,61036d9194c7d8bd8f5eab76,2021-07-29_23h10.41.255,Simcolourproject_2stim_asymm_v5,2020.2.10,MacIntel,60,61025ae37ef11b136ea224fe,response1disk_7,7,2.3,7,"[2,5]",rectangle_4,,,,,,,,,,,,,,,,,,,,,,,,,,,,,,,,,,,,,,,,
,,,,,,,,,,,,51,PF,28,-78,1,0,0,response3disk_5,4,5.566,7,0,1,0,0,rectangle_8,7,0,1,0,0,7,0,1,0,0,0,5,5,2,1,6101a914523b50e7c767b00e,61036d9194c7d8bd8f5eab76,2021-07-29_23h10.41.255,Simcolourproject_2stim_asymm_v5,2020.2.10,MacIntel,60,61025ae37ef11b136ea224fe,,,,,,,,,,,,,,,,,,,,,,,,,,,,,,,,,,,,,,,,,,,,,,
,,,,,,,,,,,,108,FF,29,95,1,0,0,response1disk_5,7,3.117,-4,3,1,0,0,rectangle_8,-4,3,1,0,0,-4,3,1,0,0,0,6,6,5,1,6101a914523b50e7c767b00e,61036d9194c7d8bd8f5eab76,2021-07-29_23h10.41.255,Simcolourproject_2stim_asymm_v5,2020.2.10,MacIntel,60,61025ae37ef11b136ea224fe,,,,,,,,,,,,,,,,,,,,,,,,,,,,,,,,,,,,,,,,,,,,,,
,,,,,,,,,,,,,FF,,,,,,,,4.718,,,,,,,,,,,,,,,,,,,,,,6101a914523b50e7c767b00e,61036d9194c7d8bd8f5eab76,2021-07-29_23h10.41.255,Simcolourproject_2stim_asymm_v5,2020.2.10,MacIntel,60,61025ae37ef11b136ea224fe,,,,,,,space,7.505,2569,33,74,1,0,0,response1disk,,7,-4,4,1,0,0,rectangle,-4,4,1,0,0,-4,4,1,0,0,0,0,0,56,1,,,,,,,,
,,,,,,,,,,,,,FF,,,,,,,,4.917,,,,,,,,,,,,,,,,,,,,,,6101a914523b50e7c767b00e,61036d9194c7d8bd8f5eab76,2021-07-29_23h10.41.255,Simcolourproject_2stim_asymm_v5,2020.2.10,MacIntel,60,61025ae37ef11b136ea224fe,,,,,,,,,2965,61,-49,1,0,0,response3disk,,5,0,-9,1,0,0,rectangle,0,-9,1,0,0,0,-9,1,0,0,0,1,1,145,1,,,,,,,,
,,,,,,,,,,,,,FF,,,,,,,,6.183,,,,,,,,,,,,,,,,,,,,,,6101a914523b50e7c767b00e,61036d9194c7d8bd8f5eab76,2021-07-29_23h10.41.255,Simcolourproject_2stim_asymm_v5,2020.2.10,MacIntel,60,61025ae37ef11b136ea224fe,,,,,,,,,3404,69,27,1,0,0,response1disk,,6,1,4,1,0,0,rectangle,1,4,1,0,0,1,4,1,0,0,0,2,2,34,1,,,,,,,,
,,,,,,,,,,,,,FF,,,,,,,,1.717,,,,,,,,,,,,,,,,,,,,,,6101a914523b50e7c767b00e,61036d9194c7d8bd8f5eab76,2021-07-29_23h10.41.255,Simcolourproject_2stim_asymm_v5,2020.2.10,MacIntel,60,61025ae37ef11b136ea224fe,,,,,,,,,270,36,75,1,0,0,response1disk,,7,-10,12,1,0,0,rectangle,-10,12,1,0,0,-10,12,1,0,0,0,3,3,150,1,,,,,,,,
,,,,,,,,,,,,,FF,,,,,,,,3.034,,,,,,,,,,,,,,,,,,,,,,6101a914523b50e7c767b00e,61036d9194c7d8bd8f5eab76,2021-07-29_23h10.41.255,Simcolourproject_2stim_asymm_v5,2020.2.10,MacIntel,60,61025ae37ef11b136ea224fe,,,,,,,,,3204,-52,-53,1,0,0,response5disk,,3,-15,14,1,0,0,rectangle,-15,14,1,0,0,-15,14,1,0,0,0,4,4,158,1,,,,,,,,
,,,,,,,,,,,,,FF,,,,,,,,1.449,,,,,,,,,,,,,,,,,,,,,,6101a914523b50e7c767b00e,61036d9194c7d8bd8f5eab76,2021-07-29_23h10.41.255,Simcolourproject_2stim_asymm_v5,2020.2.10,MacIntel,60,61025ae37ef11b136ea224fe,,,,,,,,,2355,-75,49,1,0,0,response7disk,,1,3,1,1,0,0,rectangle,3,1,1,0,0,3,1,1,0,0,0,5,5,79,1,,,,,,,,
,,,,,,,,,,,,,FF,,,,,,,,1.684,,,,,,,,,,,,,,,,,,,,,,6101a914523b50e7c767b00e,61036d9194c7d8bd8f5eab76,2021-07-29_23h10.41.255,Simcolourproject_2stim_asymm_v5,2020.2.10,MacIntel,60,61025ae37ef11b136ea224fe,,,,,,,,,2998,68,-31,1,0,0,response3disk,,5,8,-7,1,0,0,rectangle,8,-7,1,0,0,8,-7,1,0,0,0,6,6,139,1,,,,,,,,
,,,,,,,,,,,,,FF,,,,,,,,4.682,,,,,,,,,,,,,,,,,,,,,,6101a914523b50e7c767b00e,61036d9194c7d8bd8f5eab76,2021-07-29_23h10.41.255,Simcolourproject_2stim_asymm_v5,2020.2.10,MacIntel,60,61025ae37ef11b136ea224fe,,,,,,,,,638,53,-70,1,0,0,response3disk,,4,1,-4,1,0,0,rectangle,1,-4,1,0,0,1,-4,1,0,0,0,7,7,3,1,,,,,,,,
,,,,,,,,,,,,,FF,,,,,,,,1.983,,,,,,,,,,,,,,,,,,,,,,6101a914523b50e7c767b00e,61036d9194c7d8bd8f5eab76,2021-07-29_23h10.41.255,Simcolourproject_2stim_asymm_v5,2020.2.10,MacIntel,60,61025ae37ef11b136ea224fe,,,,,,,,,2862,63,23,1,0,0,response1disk,,6,6,-1,1,0,0,rectangle,6,-1,1,0,0,6,-1,1,0,0,0,8,8,12,1,,,,,,,,
,,,,,,,,,,,,,FF,,,,,,,,1.45,,,,,,,,,,,,,,,,,,,,,,6101a914523b50e7c767b00e,61036d9194c7d8bd8f5eab76,2021-07-29_23h10.41.255,Simcolourproject_2stim_asymm_v5,2020.2.10,MacIntel,60,61025ae37ef11b136ea224fe,,,,,,,,,3667,-21,71,1,0,0,response7disk,,0,-3,-5,1,0,0,rectangle,-3,-5,1,0,0,-3,-5,1,0,0,0,9,9,129,1,,,,,,,,
,,,,,,,,,,,,,FF,,,,,,,,1.816,,,,,,,,,,,,,,,,,,,,,,6101a914523b50e7c767b00e,61036d9194c7d8bd8f5eab76,2021-07-29_23h10.41.255,Simcolourproject_2stim_asymm_v5,2020.2.10,MacIntel,60,61025ae37ef11b136ea224fe,,,,,,,,,2061,60,34,1,0,0,response1disk,,6,18,3,1,0,0,rectangle,18,3,1,0,0,18,3,1,0,0,0,10,10,49,1,,,,,,,,
,,,,,,,,,,,,,FF,,,,,,,,1.316,,,,,,,,,,,,,,,,,,,,,,6101a914523b50e7c767b00e,61036d9194c7d8bd8f5eab76,2021-07-29_23h10.41.255,Simcolourproject_2stim_asymm_v5,2020.2.10,MacIntel,60,61025ae37ef11b136ea224fe,,,,,,,,,4105,-27,-52,1,0,0,response5disk,,3,-4,4,1,0,0,rectangle,-4,4,1,0,0,-4,4,1,0,0,0,11,11,128,1,,,,,,,,
,,,,,,,,,,,,,FF,,,,,,,,3.151,,,,,,,,,,,,,,,,,,,,,,6101a914523b50e7c767b00e,61036d9194c7d8bd8f5eab76,2021-07-29_23h10.41.255,Simcolourproject_2stim_asymm_v5,2020.2.10,MacIntel,60,61025ae37ef11b136ea224fe,,,,,,,,,2056,48,31,1,0,0,response1disk,,6,9,2,1,0,0,rectangle,9,2,1,0,0,9,2,1,0,0,0,12,12,55,1,,,,,,,,
,,,,,,,,,,,,,FF,,,,,,,,1.4,,,,,,,,,,,,,,,,,,,,,,6101a914523b50e7c767b00e,61036d9194c7d8bd8f5eab76,2021-07-29_23h10.41.255,Simcolourproject_2stim_asymm_v5,2020.2.10,MacIntel,60,61025ae37ef11b136ea224fe,,,,,,,,,3436,28,-47,1,0,0,response3disk,,4,1,-10,1,0,0,rectangle,1,-10,1,0,0,1,-10,1,0,0,0,13,13,95,1,,,,,,,,
,,,,,,,,,,,,,FF,,,,,,,,2.65,,,,,,,,,,,,,,,,,,,,,,6101a914523b50e7c767b00e,61036d9194c7d8bd8f5eab76,2021-07-29_23h10.41.255,Simcolourproject_2stim_asymm_v5,2020.2.10,MacIntel,60,61025ae37ef11b136ea224fe,,,,,,,,,4143,69,-38,1,0,0,response3disk,,5,3,-9,1,0,0,rectangle,3,-9,1,0,0,3,-9,1,0,0,0,14,14,109,1,,,,,,,,
,,,,,,,,,,,,,FF,,,,,,,,1.683,,,,,,,,,,,,,,,,,,,,,,6101a914523b50e7c767b00e,61036d9194c7d8bd8f5eab76,2021-07-29_23h10.41.255,Simcolourproject_2stim_asymm_v5,2020.2.10,MacIntel,60,61025ae37ef11b136ea224fe,,,,,,,,,1049,-25,58,1,0,0,response7disk,,0,13,-3,1,0,0,rectangle,13,-3,1,0,0,13,-3,1,0,0,0,15,15,105,1,,,,,,,,
,,,,,,,,,,,,,FF,,,,,,,,3.7,,,,,,,,,,,,,,,,,,,,,,6101a914523b50e7c767b00e,61036d9194c7d8bd8f5eab76,2021-07-29_23h10.41.255,Simcolourproject_2stim_asymm_v5,2020.2.10,MacIntel,60,61025ae37ef11b136ea224fe,,,,,,,,,53,68,59,1,0,0,response1disk,,6,2,-4,1,0,0,rectangle,2,-4,1,0,0,2,-4,1,0,0,0,16,16,52,1,,,,,,,,
,,,,,,,,,,,,,FF,,,,,,,,1.317,,,,,,,,,,,,,,,,,,,,,,6101a914523b50e7c767b00e,61036d9194c7d8bd8f5eab76,2021-07-29_23h10.41.255,Simcolourproject_2stim_asymm_v5,2020.2.10,MacIntel,60,61025ae37ef11b136ea224fe,,,,,,,,,770,26,102,1,0,0,response1disk,,7,-6,-1,1,0,0,rectangle,-6,-1,1,0,0,-6,-1,1,0,0,0,17,17,119,1,,,,,,,,
,,,,,,,,,,,,,FF,,,,,,,,1.634,,,,,,,,,,,,,,,,,,,,,,6101a914523b50e7c767b00e,61036d9194c7d8bd8f5eab76,2021-07-29_23h10.41.255,Simcolourproject_2stim_asymm_v5,2020.2.10,MacIntel,60,61025ae37ef11b136ea224fe,,,,,,,,,2295,-36,-90,1,0,0,response5disk,,3,-5,0,1,0,0,rectangle,-5,0,1,0,0,-5,0,1,0,0,0,18,18,123,1,,,,,,,,
,,,,,,,,,,,,,FF,,,,,,,,2.1,,,,,,,,,,,,,,,,,,,,,,6101a914523b50e7c767b00e,61036d9194c7d8bd8f5eab76,2021-07-29_23h10.41.255,Simcolourproject_2stim_asymm_v5,2020.2.10,MacIntel,60,61025ae37ef11b136ea224fe,,,,,,,,,120,71,34,1,0,0,response1disk,,6,-8,6,1,0,0,rectangle,-8,6,1,0,0,-8,6,1,0,0,0,19,19,74,1,,,,,,,,
,,,,,,,,,,,,,FF,,,,,,,,1.933,,,,,,,,,,,,,,,,,,,,,,6101a914523b50e7c767b00e,61036d9194c7d8bd8f5eab76,2021-07-29_23h10.41.255,Simcolourproject_2stim_asymm_v5,2020.2.10,MacIntel,60,61025ae37ef11b136ea224fe,,,,,,,,,1285,36,58,1,0,0,response1disk,,7,3,7,1,0,0,rectangle,3,7,1,0,0,3,7,1,0,0,0,20,20,104,1,,,,,,,,
,,,,,,,,,,,,,FF,,,,,,,,1.467,,,,,,,,,,,,,,,,,,,,,,6101a914523b50e7c767b00e,61036d9194c7d8bd8f5eab76,2021-07-29_23h10.41.255,Simcolourproject_2stim_asymm_v5,2020.2.10,MacIntel,60,61025ae37ef11b136ea224fe,,,,,,,,,3773,70,-40,1,0,0,response3disk,,5,2,-2,1,0,0,rectangle,2,-2,1,0,0,2,-2,1,0,0,0,21,21,33,1,,,,,,,,
,,,,,,,,,,,,,FF,,,,,,,,2.483,,,,,,,,,,,,,,,,,,,,,,6101a914523b50e7c767b00e,61036d9194c7d8bd8f5eab76,2021-07-29_23h10.41.255,Simcolourproject_2stim_asymm_v5,2020.2.10,MacIntel,60,61025ae37ef11b136ea224fe,,,,,,,,,2181,39,-66,1,0,0,response3disk,,4,8,5,1,0,0,rectangle,8,5,1,0,0,8,5,1,0,0,0,22,22,113,1,,,,,,,,
,,,,,,,,,,,,,FF,,,,,,,,1.049,,,,,,,,,,,,,,,,,,,,,,6101a914523b50e7c767b00e,61036d9194c7d8bd8f5eab76,2021-07-29_23h10.41.255,Simcolourproject_2stim_asymm_v5,2020.2.10,MacIntel,60,61025ae37ef11b136ea224fe,,,,,,,,,2741,75,32,1,0,0,response1disk,,6,5,4,1,0,0,rectangle,5,4,1,0,0,5,4,1,0,0,0,23,23,149,1,,,,,,,,
,,,,,,,,,,,,,FF,,,,,,,,1.234,,,,,,,,,,,,,,,,,,,,,,6101a914523b50e7c767b00e,61036d9194c7d8bd8f5eab76,2021-07-29_23h10.41.255,Simcolourproject_2stim_asymm_v5,2020.2.10,MacIntel,60,61025ae37ef11b136ea224fe,,,,,,,,,1011,65,38,1,0,0,response1disk,,6,-2,9,1,0,0,rectangle,-2,9,1,0,0,-2,9,1,0,0,0,24,24,140,1,,,,,,,,
,,,,,,,,,,,,,FF,,,,,,,,1.785,,,,,,,,,,,,,,,,,,,,,,6101a914523b50e7c767b00e,61036d9194c7d8bd8f5eab76,2021-07-29_23h10.41.255,Simcolourproject_2stim_asymm_v5,2020.2.10,MacIntel,60,61025ae37ef11b136ea224fe,,,,,,,,,2089,70,25,1,0,0,response1disk,,6,12,8,1,0,0,rectangle,12,8,1,0,0,12,8,1,0,0,0,25,25,80,1,,,,,,,,
,,,,,,,,,,,,,FF,,,,,,,,0.849,,,,,,,,,,,,,,,,,,,,,,6101a914523b50e7c767b00e,61036d9194c7d8bd8f5eab76,2021-07-29_23h10.41.255,Simcolourproject_2stim_asymm_v5,2020.2.10,MacIntel,60,61025ae37ef11b136ea224fe,,,,,,,,,1538,76,-39,1,0,0,response3disk,,5,3,1,1,0,0,rectangle,3,1,1,0,0,3,1,1,0,0,0,26,26,72,1,,,,,,,,
,,,,,,,,,,,,,FF,,,,,,,,0.949,,,,,,,,,,,,,,,,,,,,,,6101a914523b50e7c767b00e,61036d9194c7d8bd8f5eab76,2021-07-29_23h10.41.255,Simcolourproject_2stim_asymm_v5,2020.2.10,MacIntel,60,61025ae37ef11b136ea224fe,,,,,,,,,1565,20,59,1,0,0,response1disk,,7,-8,-10,1,0,0,rectangle,-8,-10,1,0,0,-8,-10,1,0,0,0,27,27,120,1,,,,,,,,
,,,,,,,,,,,,,FF,,,,,,,,1.933,,,,,,,,,,,,,,,,,,,,,,6101a914523b50e7c767b00e,61036d9194c7d8bd8f5eab76,2021-07-29_23h10.41.255,Simcolourproject_2stim_asymm_v5,2020.2.10,MacIntel,60,61025ae37ef11b136ea224fe,,,,,,,,,1300,72,-49,1,0,0,response3disk,,5,3,-8,1,0,0,rectangle,3,-8,1,0,0,3,-8,1,0,0,0,28,28,106,1,,,,,,,,
,,,,,,,,,,,,,FF,,,,,,,,2.199,,,,,,,,,,,,,,,,,,,,,,6101a914523b50e7c767b00e,61036d9194c7d8bd8f5eab76,2021-07-29_23h10.41.255,Simcolourproject_2stim_asymm_v5,2020.2.10,MacIntel,60,61025ae37ef11b136ea224fe,,,,,,,,,3795,98,71,1,0,0,response1disk,,6,-17,-2,1,0,0,rectangle,-17,-2,1,0,0,-17,-2,1,0,0,0,29,29,1,1,,,,,,,,
,,,,,,,,,,,,,FF,,,,,,,,1.767,,,,,,,,,,,,,,,,,,,,,,6101a914523b50e7c767b00e,61036d9194c7d8bd8f5eab76,2021-07-29_23h10.41.255,Simcolourproject_2stim_asymm_v5,2020.2.10,MacIntel,60,61025ae37ef11b136ea224fe,,,,,,,,,1021,75,41,1,0,0,response1disk,,6,-10,9,1,0,0,rectangle,-10,9,1,0,0,-10,9,1,0,0,0,30,30,28,1,,,,,,,,
,,,,,,,,,,,,,FF,,,,,,,,1.5,,,,,,,,,,,,,,,,,,,,,,6101a914523b50e7c767b00e,61036d9194c7d8bd8f5eab76,2021-07-29_23h10.41.255,Simcolourproject_2stim_asymm_v5,2020.2.10,MacIntel,60,61025ae37ef11b136ea224fe,,,,,,,,,2219,57,-116,1,0,0,response3disk,,4,4,-8,1,0,0,rectangle,4,-8,1,0,0,4,-8,1,0,0,0,31,31,29,1,,,,,,,,
,,,,,,,,,,,,,FF,,,,,,,,1.065,,,,,,,,,,,,,,,,,,,,,,6101a914523b50e7c767b00e,61036d9194c7d8bd8f5eab76,2021-07-29_23h10.41.255,Simcolourproject_2stim_asymm_v5,2020.2.10,MacIntel,60,61025ae37ef11b136ea224fe,,,,,,,,,866,38,80,1,0,0,response1disk,,7,10,-5,1,0,0,rectangle,10,-5,1,0,0,10,-5,1,0,0,0,32,32,67,1,,,,,,,,
,,,,,,,,,,,,,FF,,,,,,,,3.134,,,,,,,,,,,,,,,,,,,,,,6101a914523b50e7c767b00e,61036d9194c7d8bd8f5eab76,2021-07-29_23h10.41.255,Simcolourproject_2stim_asymm_v5,2020.2.10,MacIntel,60,61025ae37ef11b136ea224fe,,,,,,,,,82,80,-23,1,0,0,response3disk,,5,-4,6,1,0,0,rectangle,-4,6,1,0,0,-4,6,1,0,0,0,33,33,108,1,,,,,,,,
,,,,,,,,,,,,,FF,,,,,,,,1.199,,,,,,,,,,,,,,,,,,,,,,6101a914523b50e7c767b00e,61036d9194c7d8bd8f5eab76,2021-07-29_23h10.41.255,Simcolourproject_2stim_asymm_v5,2020.2.10,MacIntel,60,61025ae37ef11b136ea224fe,,,,,,,,,2784,31,-55,1,0,0,response3disk,,4,-6,-7,1,0,0,rectangle,-6,-7,1,0,0,-6,-7,1,0,0,0,34,34,30,1,,,,,,,,
,,,,,,,,,,,,,FF,,,,,,,,1.084,,,,,,,,,,,,,,,,,,,,,,6101a914523b50e7c767b00e,61036d9194c7d8bd8f5eab76,2021-07-29_23h10.41.255,Simcolourproject_2stim_asymm_v5,2020.2.10,MacIntel,60,61025ae37ef11b136ea224fe,,,,,,,,,2872,49,32,1,0,0,response1disk,,6,16,8,1,0,0,rectangle,16,8,1,0,0,16,8,1,0,0,0,35,35,64,1,,,,,,,,
,,,,,,,,,,,,,FF,,,,,,,,0.951,,,,,,,,,,,,,,,,,,,,,,6101a914523b50e7c767b00e,61036d9194c7d8bd8f5eab76,2021-07-29_23h10.41.255,Simcolourproject_2stim_asymm_v5,2020.2.10,MacIntel,60,61025ae37ef11b136ea224fe,,,,,,,,,2805,62,34,1,0,0,response1disk,,6,10,9,1,0,0,rectangle,10,9,1,0,0,10,9,1,0,0,0,36,36,99,1,,,,,,,,
,,,,,,,,,,,,,FF,,,,,,,,1.667,,,,,,,,,,,,,,,,,,,,,,6101a914523b50e7c767b00e,61036d9194c7d8bd8f5eab76,2021-07-29_23h10.41.255,Simcolourproject_2stim_asymm_v5,2020.2.10,MacIntel,60,61025ae37ef11b136ea224fe,,,,,,,,,1312,69,-40,1,0,0,response3disk,,5,2,-2,1,0,0,rectangle,2,-2,1,0,0,2,-2,1,0,0,0,37,37,75,1,,,,,,,,
,,,,,,,,,,,,,FF,,,,,,,,1.249,,,,,,,,,,,,,,,,,,,,,,6101a914523b50e7c767b00e,61036d9194c7d8bd8f5eab76,2021-07-29_23h10.41.255,Simcolourproject_2stim_asymm_v5,2020.2.10,MacIntel,60,61025ae37ef11b136ea224fe,,,,,,,,,648,52,26,1,0,0,response1disk,,6,8,5,1,0,0,rectangle,-95,-59,1,0,0,-13,0,1,0,0,0,38,38,39,1,,response5disk_3,TRUE,2,2,"[196,206,132,251,39,221,181,296,218,252,199,317,57,223,42,205,83,64,141,43]",5.099,rectangle
,,,,,,,,,,,,,FF,,,,,,,,0.816,,,,,,,,,,,,,,,,,,,,,,6101a914523b50e7c767b00e,61036d9194c7d8bd8f5eab76,2021-07-29_23h10.41.255,Simcolourproject_2stim_asymm_v5,2020.2.10,MacIntel,60,61025ae37ef11b136ea224fe,,,,,,,,,55,49,32,1,0,0,response1disk,,6,-1,11,1,0,0,rectangle,-1,11,1,0,0,-1,11,1,0,0,0,39,39,98,1,,,,,,,,
,,,,,,,,,,,,,FF,,,,,,,,1.033,,,,,,,,,,,,,,,,,,,,,,6101a914523b50e7c767b00e,61036d9194c7d8bd8f5eab76,2021-07-29_23h10.41.255,Simcolourproject_2stim_asymm_v5,2020.2.10,MacIntel,60,61025ae37ef11b136ea224fe,,,,,,,,,1670,-48,79,1,0,0,response7disk,,0,-3,-8,1,0,0,rectangle,-3,-8,1,0,0,-3,-8,1,0,0,0,40,40,5,1,,,,,,,,
,,,,,,,,,,,,,FF,,,,,,,,1.9,,,,,,,,,,,,,,,,,,,,,,6101a914523b50e7c767b00e,61036d9194c7d8bd8f5eab76,2021-07-29_23h10.41.255,Simcolourproject_2stim_asymm_v5,2020.2.10,MacIntel,60,61025ae37ef11b136ea224fe,,,,,,,,,3529,49,33,1,0,0,response1disk,,6,-9,4,1,0,0,rectangle,-40,-68,1,0,0,-3,-3,1,0,0,0,41,41,159,1,,response5disk_3,TRUE,3,3,"[196,206,132,251,39,221,181,296,218,252,199,317,57,223,42,205,83,64,141,43]",2.933,rectangle
,,,,,,,,,,,,,FF,,,,,,,,2.083,,,,,,,,,,,,,,,,,,,,,,6101a914523b50e7c767b00e,61036d9194c7d8bd8f5eab76,2021-07-29_23h10.41.255,Simcolourproject_2stim_asymm_v5,2020.2.10,MacIntel,60,61025ae37ef11b136ea224fe,,,,,,,,,3135,49,36,1,0,0,response1disk,,6,-3,12,1,0,0,rectangle,-69,42,1,0,0,3,-9,1,0,0,0,42,42,6,1,,response7disk_3,TRUE,1,1,"[196,206,132,251,39,221,181,296,218,252,199,317,57,223,42,205,83,64,141,43]",1.931,rectangle
,,,,,,,,,,,,,FF,,,,,,,,1.5,,,,,,,,,,,,,,,,,,,,,,6101a914523b50e7c767b00e,61036d9194c7d8bd8f5eab76,2021-07-29_23h10.41.255,Simcolourproject_2stim_asymm_v5,2020.2.10,MacIntel,60,61025ae37ef11b136ea224fe,,,,,,,,,1308,71,24,1,0,0,response1disk,,6,9,-3,1,0,0,rectangle,9,-3,1,0,0,9,-3,1,0,0,0,43,43,71,1,,,,,,,,
,,,,,,,,,,,,,FF,,,,,,,,1.25,,,,,,,,,,,,,,,,,,,,,,6101a914523b50e7c767b00e,61036d9194c7d8bd8f5eab76,2021-07-29_23h10.41.255,Simcolourproject_2stim_asymm_v5,2020.2.10,MacIntel,60,61025ae37ef11b136ea224fe,,,,,,,,,2270,47,-31,1,0,0,response3disk,,5,8,-1,1,0,0,rectangle,8,-1,1,0,0,8,-1,1,0,0,0,44,44,156,1,,,,,,,,
,,,,,,,,,,,,,FF,,,,,,,,1.116,,,,,,,,,,,,,,,,,,,,,,6101a914523b50e7c767b00e,61036d9194c7d8bd8f5eab76,2021-07-29_23h10.41.255,Simcolourproject_2stim_asymm_v5,2020.2.10,MacIntel,60,61025ae37ef11b136ea224fe,,,,,,,,,2217,64,31,1,0,0,response1disk,,6,8,12,1,0,0,rectangle,8,12,1,0,0,8,12,1,0,0,0,45,45,103,1,,,,,,,,
,,,,,,,,,,,,,FF,,,,,,,,2.1,,,,,,,,,,,,,,,,,,,,,,6101a914523b50e7c767b00e,61036d9194c7d8bd8f5eab76,2021-07-29_23h10.41.255,Simcolourproject_2stim_asymm_v5,2020.2.10,MacIntel,60,61025ae37ef11b136ea224fe,,,,,,,,,996,65,31,1,0,0,response1disk,,6,-6,-2,1,0,0,rectangle,-6,-2,1,0,0,-6,-2,1,0,0,0,46,46,50,1,,,,,,,,
,,,,,,,,,,,,,FF,,,,,,,,1.333,,,,,,,,,,,,,,,,,,,,,,6101a914523b50e7c767b00e,61036d9194c7d8bd8f5eab76,2021-07-29_23h10.41.255,Simcolourproject_2stim_asymm_v5,2020.2.10,MacIntel,60,61025ae37ef11b136ea224fe,,,,,,,,,3693,31,74,1,0,0,response1disk,,7,-6,14,1,0,0,rectangle,-6,14,1,0,0,-6,14,1,0,0,0,47,47,14,1,,,,,,,,
,,,,,,,,,,,,,FF,,,,,,,,1.017,,,,,,,,,,,,,,,,,,,,,,6101a914523b50e7c767b00e,61036d9194c7d8bd8f5eab76,2021-07-29_23h10.41.255,Simcolourproject_2stim_asymm_v5,2020.2.10,MacIntel,60,61025ae37ef11b136ea224fe,,,,,,,,,4302,58,31,1,0,0,response1disk,,6,9,12,1,0,0,rectangle,9,12,1,0,0,9,12,1,0,0,0,48,48,68,1,,,,,,,,
,,,,,,,,,,,,,FF,,,,,,,,1.766,,,,,,,,,,,,,,,,,,,,,,6101a914523b50e7c767b00e,61036d9194c7d8bd8f5eab76,2021-07-29_23h10.41.255,Simcolourproject_2stim_asymm_v5,2020.2.10,MacIntel,60,61025ae37ef11b136ea224fe,,,,,,,,,3551,-86,-37,1,0,0,response5disk,,2,6,7,1,0,0,rectangle,6,7,1,0,0,6,7,1,0,0,0,49,49,125,1,,,,,,,,
,,,,,,,,,,,,,FF,,,,,,,,1.616,,,,,,,,,,,,,,,,,,,,,,6101a914523b50e7c767b00e,61036d9194c7d8bd8f5eab76,2021-07-29_23h10.41.255,Simcolourproject_2stim_asymm_v5,2020.2.10,MacIntel,60,61025ae37ef11b136ea224fe,,,,,,,,,3186,57,31,1,0,0,response1disk,,6,-1,11,1,0,0,rectangle,-1,11,1,0,0,-1,11,1,0,0,0,50,50,136,1,,,,,,,,
,,,,,,,,,,,,,FF,,,,,,,,1.316,,,,,,,,,,,,,,,,,,,,,,6101a914523b50e7c767b00e,61036d9194c7d8bd8f5eab76,2021-07-29_23h10.41.255,Simcolourproject_2stim_asymm_v5,2020.2.10,MacIntel,60,61025ae37ef11b136ea224fe,,,,,,,,,3844,40,70,1,0,0,response1disk,,7,-1,14,1,0,0,rectangle,-1,14,1,0,0,-1,14,1,0,0,0,51,51,8,1,,,,,,,,
,,,,,,,,,,,,,FF,,,,,,,,0.816,,,,,,,,,,,,,,,,,,,,,,6101a914523b50e7c767b00e,61036d9194c7d8bd8f5eab76,2021-07-29_23h10.41.255,Simcolourproject_2stim_asymm_v5,2020.2.10,MacIntel,60,61025ae37ef11b136ea224fe,,,,,,,,,311,34,69,1,0,0,response1disk,,7,11,2,1,0,0,rectangle,11,2,1,0,0,11,2,1,0,0,0,52,52,94,1,,,,,,,,
,,,,,,,,,,,,,FF,,,,,,,,0.849,,,,,,,,,,,,,,,,,,,,,,6101a914523b50e7c767b00e,61036d9194c7d8bd8f5eab76,2021-07-29_23h10.41.255,Simcolourproject_2stim_asymm_v5,2020.2.10,MacIntel,60,61025ae37ef11b136ea224fe,,,,,,,,,43,76,40,1,0,0,response1disk,,6,4,-3,1,0,0,rectangle,4,-3,1,0,0,4,-3,1,0,0,0,53,53,92,1,,,,,,,,
,,,,,,,,,,,,,FF,,,,,,,,3.017,,,,,,,,,,,,,,,,,,,,,,6101a914523b50e7c767b00e,61036d9194c7d8bd8f5eab76,2021-07-29_23h10.41.255,Simcolourproject_2stim_asymm_v5,2020.2.10,MacIntel,60,61025ae37ef11b136ea224fe,,,,,,,,,1015,48,65,1,0,0,response1disk,,7,-1,-6,1,0,0,rectangle,-1,-6,1,0,0,-1,-6,1,0,0,0,54,54,93,1,,,,,,,,
,,,,,,,,,,,,,FF,,,,,,,,1.032,,,,,,,,,,,,,,,,,,,,,,6101a914523b50e7c767b00e,61036d9194c7d8bd8f5eab76,2021-07-29_23h10.41.255,Simcolourproject_2stim_asymm_v5,2020.2.10,MacIntel,60,61025ae37ef11b136ea224fe,,,,,,,,,1785,62,30,1,0,0,response1disk,,6,-2,1,1,0,0,rectangle,-2,1,1,0,0,-2,1,1,0,0,0,55,55,127,1,,,,,,,,
,,,,,,,,,,,,,FF,,,,,,,,1.2,,,,,,,,,,,,,,,,,,,,,,6101a914523b50e7c767b00e,61036d9194c7d8bd8f5eab76,2021-07-29_23h10.41.255,Simcolourproject_2stim_asymm_v5,2020.2.10,MacIntel,60,61025ae37ef11b136ea224fe,,,,,,,,,3193,59,33,1,0,0,response1disk,,6,-3,17,1,0,0,rectangle,-56,38,1,0,0,7,-3,1,0,0,0,56,56,24,1,,response7disk_3,TRUE,1,1,"[196,206,132,251,39,221,181,296,218,252,199,317,57,223,42,205,83,64,141,43]",1.482,rectangle
,,,,,,,,,,,,,FF,,,,,,,,1.249,,,,,,,,,,,,,,,,,,,,,,6101a914523b50e7c767b00e,61036d9194c7d8bd8f5eab76,2021-07-29_23h10.41.255,Simcolourproject_2stim_asymm_v5,2020.2.10,MacIntel,60,61025ae37ef11b136ea224fe,,,,,,,,,2264,56,26,1,0,0,response1disk,,6,-10,-8,1,0,0,rectangle,-10,-8,1,0,0,-10,-8,1,0,0,0,57,57,100,1,,,,,,,,
,,,,,,,,,,,,,FF,,,,,,,,1.183,,,,,,,,,,,,,,,,,,,,,,6101a914523b50e7c767b00e,61036d9194c7d8bd8f5eab76,2021-07-29_23h10.41.255,Simcolourproject_2stim_asymm_v5,2020.2.10,MacIntel,60,61025ae37ef11b136ea224fe,,,,,,,,,1427,62,25,1,0,0,response1disk,,6,-12,10,1,0,0,rectangle,-12,10,1,0,0,-12,10,1,0,0,0,58,58,10,1,,,,,,,,
,,,,,,,,,,,,,FF,,,,,,,,1.383,,,,,,,,,,,,,,,,,,,,,,6101a914523b50e7c767b00e,61036d9194c7d8bd8f5eab76,2021-07-29_23h10.41.255,Simcolourproject_2stim_asymm_v5,2020.2.10,MacIntel,60,61025ae37ef11b136ea224fe,,,,,,,,,1661,58,-35,1,0,0,response3disk,,5,15,-11,1,0,0,rectangle,15,-11,1,0,0,15,-11,1,0,0,0,59,59,154,1,,,,,,,,
,,,,,,,,,,,,,FF,,,,,,,,1.949,,,,,,,,,,,,,,,,,,,,,,6101a914523b50e7c767b00e,61036d9194c7d8bd8f5eab76,2021-07-29_23h10.41.255,Simcolourproject_2stim_asymm_v5,2020.2.10,MacIntel,60,61025ae37ef11b136ea224fe,,,,,,,,,972,36,-78,1,0,0,response3disk,,4,-1,4,1,0,0,rectangle,-1,4,1,0,0,-1,4,1,0,0,0,60,60,18,1,,,,,,,,
,,,,,,,,,,,,,FF,,,,,,,,1.3,,,,,,,,,,,,,,,,,,,,,,6101a914523b50e7c767b00e,61036d9194c7d8bd8f5eab76,2021-07-29_23h10.41.255,Simcolourproject_2stim_asymm_v5,2020.2.10,MacIntel,60,61025ae37ef11b136ea224fe,,,,,,,,,975,-60,-39,1,0,0,response5disk,,2,4,-5,1,0,0,rectangle,4,-5,1,0,0,4,-5,1,0,0,0,61,61,121,1,,,,,,,,
,,,,,,,,,,,,,FF,,,,,,,,1.582,,,,,,,,,,,,,,,,,,,,,,6101a914523b50e7c767b00e,61036d9194c7d8bd8f5eab76,2021-07-29_23h10.41.255,Simcolourproject_2stim_asymm_v5,2020.2.10,MacIntel,60,61025ae37ef11b136ea224fe,,,,,,,,,2145,36,61,1,0,0,response1disk,,7,2,9,1,0,0,rectangle,2,9,1,0,0,2,9,1,0,0,0,62,62,69,1,,,,,,,,
,,,,,,,,,,,,,FF,,,,,,,,2.85,,,,,,,,,,,,,,,,,,,,,,6101a914523b50e7c767b00e,61036d9194c7d8bd8f5eab76,2021-07-29_23h10.41.255,Simcolourproject_2stim_asymm_v5,2020.2.10,MacIntel,60,61025ae37ef11b136ea224fe,,,,,,,,,1751,34,-90,1,0,0,response3disk,,4,-4,-7,1,0,0,rectangle,32,-84,1,0,0,2,4,1,0,0,0,63,63,16,1,,response3disk_3,TRUE,4,4,"[196,206,132,251,39,221,181,296,218,252,199,317,57,223,42,205,83,64,141,43]",1.699,rectangle
,,,,,,,,,,,,,FF,,,,,,,,1,,,,,,,,,,,,,,,,,,,,,,6101a914523b50e7c767b00e,61036d9194c7d8bd8f5eab76,2021-07-29_23h10.41.255,Simcolourproject_2stim_asymm_v5,2020.2.10,MacIntel,60,61025ae37ef11b136ea224fe,,,,,,,,,4136,42,58,1,0,0,response1disk,,7,12,-10,1,0,0,rectangle,12,-10,1,0,0,12,-10,1,0,0,0,64,64,126,1,,,,,,,,
,,,,,,,,,,,,,FF,,,,,,,,20.5,,,,,,,,,,,,,,,,,,,,,,6101a914523b50e7c767b00e,61036d9194c7d8bd8f5eab76,2021-07-29_23h10.41.255,Simcolourproject_2stim_asymm_v5,2020.2.10,MacIntel,60,61025ae37ef11b136ea224fe,,,,,,,,,4073,70,35,1,0,0,response1disk,,6,0,-5,1,0,0,rectangle,0,-5,1,0,0,0,-5,1,0,0,0,65,65,137,1,,,,,,,,
,,,,,,,,,,,,,FF,,,,,,,,1.617,,,,,,,,,,,,,,,,,,,,,,6101a914523b50e7c767b00e,61036d9194c7d8bd8f5eab76,2021-07-29_23h10.41.255,Simcolourproject_2stim_asymm_v5,2020.2.10,MacIntel,60,61025ae37ef11b136ea224fe,,,,,,,,,2168,39,52,1,0,0,response1disk,,7,16,3,1,0,0,rectangle,16,3,1,0,0,16,3,1,0,0,0,66,66,41,1,,,,,,,,
,,,,,,,,,,,,,FF,,,,,,,,11.282,,,,,,,,,,,,,,,,,,,,,,6101a914523b50e7c767b00e,61036d9194c7d8bd8f5eab76,2021-07-29_23h10.41.255,Simcolourproject_2stim_asymm_v5,2020.2.10,MacIntel,60,61025ae37ef11b136ea224fe,,,,,,,,,2207,21,28,1,0,0,response1disk,,7,-4,-8,1,0,0,rectangle,-4,-8,1,0,0,-4,-8,1,0,0,0,67,67,90,1,,,,,,,,
,,,,,,,,,,,,,FF,,,,,,,,4.218,,,,,,,,,,,,,,,,,,,,,,6101a914523b50e7c767b00e,61036d9194c7d8bd8f5eab76,2021-07-29_23h10.41.255,Simcolourproject_2stim_asymm_v5,2020.2.10,MacIntel,60,61025ae37ef11b136ea224fe,,,,,,,,,2007,43,38,1,0,0,response1disk,,6,7,8,1,0,0,rectangle,7,8,1,0,0,7,8,1,0,0,0,68,68,9,1,,,,,,,,
,,,,,,,,,,,,,FF,,,,,,,,1.282,,,,,,,,,,,,,,,,,,,,,,6101a914523b50e7c767b00e,61036d9194c7d8bd8f5eab76,2021-07-29_23h10.41.255,Simcolourproject_2stim_asymm_v5,2020.2.10,MacIntel,60,61025ae37ef11b136ea224fe,,,,,,,,,2300,56,-38,1,0,0,response3disk,,5,-4,2,1,0,0,rectangle,-4,2,1,0,0,-4,2,1,0,0,0,69,69,60,1,,,,,,,,
,,,,,,,,,,,,,FF,,,,,,,,1.183,,,,,,,,,,,,,,,,,,,,,,6101a914523b50e7c767b00e,61036d9194c7d8bd8f5eab76,2021-07-29_23h10.41.255,Simcolourproject_2stim_asymm_v5,2020.2.10,MacIntel,60,61025ae37ef11b136ea224fe,,,,,,,,,1198,32,58,1,0,0,response1disk,,7,9,7,1,0,0,rectangle,9,7,1,0,0,9,7,1,0,0,0,70,70,83,1,,,,,,,,
,,,,,,,,,,,,,FF,,,,,,,,1.067,,,,,,,,,,,,,,,,,,,,,,6101a914523b50e7c767b00e,61036d9194c7d8bd8f5eab76,2021-07-29_23h10.41.255,Simcolourproject_2stim_asymm_v5,2020.2.10,MacIntel,60,61025ae37ef11b136ea224fe,,,,,,,,,3807,31,51,1,0,0,response1disk,,7,9,-9,1,0,0,rectangle,9,-9,1,0,0,9,-9,1,0,0,0,71,71,15,1,,,,,,,,
,,,,,,,,,,,,,FF,,,,,,,,1.033,,,,,,,,,,,,,,,,,,,,,,6101a914523b50e7c767b00e,61036d9194c7d8bd8f5eab76,2021-07-29_23h10.41.255,Simcolourproject_2stim_asymm_v5,2020.2.10,MacIntel,60,61025ae37ef11b136ea224fe,,,,,,,,,1646,71,46,1,0,0,response1disk,,6,22,7,1,0,0,rectangle,22,7,1,0,0,22,7,1,0,0,0,72,72,27,1,,,,,,,,
,,,,,,,,,,,,,FF,,,,,,,,0.883,,,,,,,,,,,,,,,,,,,,,,6101a914523b50e7c767b00e,61036d9194c7d8bd8f5eab76,2021-07-29_23h10.41.255,Simcolourproject_2stim_asymm_v5,2020.2.10,MacIntel,60,61025ae37ef11b136ea224fe,,,,,,,,,2382,73,32,1,0,0,response1disk,,6,20,-1,1,0,0,rectangle,20,-1,1,0,0,20,-1,1,0,0,0,73,73,102,1,,,,,,,,
,,,,,,,,,,,,,FF,,,,,,,,0.735,,,,,,,,,,,,,,,,,,,,,,6101a914523b50e7c767b00e,61036d9194c7d8bd8f5eab76,2021-07-29_23h10.41.255,Simcolourproject_2stim_asymm_v5,2020.2.10,MacIntel,60,61025ae37ef11b136ea224fe,,,,,,,,,1946,33,68,1,0,0,response1disk,,7,17,14,1,0,0,rectangle,17,14,1,0,0,17,14,1,0,0,0,74,74,116,1,,,,,,,,
,,,,,,,,,,,,,FF,,,,,,,,1.599,,,,,,,,,,,,,,,,,,,,,,6101a914523b50e7c767b00e,61036d9194c7d8bd8f5eab76,2021-07-29_23h10.41.255,Simcolourproject_2stim_asymm_v5,2020.2.10,MacIntel,60,61025ae37ef11b136ea224fe,,,,,,,,,1426,35,54,1,0,0,response1disk,,7,-2,8,1,0,0,rectangle,-2,8,1,0,0,-2,8,1,0,0,0,75,75,101,1,,,,,,,,
,,,,,,,,,,,,,FF,,,,,,,,1.25,,,,,,,,,,,,,,,,,,,,,,6101a914523b50e7c767b00e,61036d9194c7d8bd8f5eab76,2021-07-29_23h10.41.255,Simcolourproject_2stim_asymm_v5,2020.2.10,MacIntel,60,61025ae37ef11b136ea224fe,,,,,,,,,2387,30,60,1,0,0,response1disk,,7,-4,9,1,0,0,rectangle,-4,9,1,0,0,-4,9,1,0,0,0,76,76,73,1,,,,,,,,
,,,,,,,,,,,,,FF,,,,,,,,1.032,,,,,,,,,,,,,,,,,,,,,,6101a914523b50e7c767b00e,61036d9194c7d8bd8f5eab76,2021-07-29_23h10.41.255,Simcolourproject_2stim_asymm_v5,2020.2.10,MacIntel,60,61025ae37ef11b136ea224fe,,,,,,,,,3852,60,32,1,0,0,response1disk,,6,2,4,1,0,0,rectangle,2,4,1,0,0,2,4,1,0,0,0,77,77,146,1,,,,,,,,
,,,,,,,,,,,,,FF,,,,,,,,2.267,,,,,,,,,,,,,,,,,,,,,,6101a914523b50e7c767b00e,61036d9194c7d8bd8f5eab76,2021-07-29_23h10.41.255,Simcolourproject_2stim_asymm_v5,2020.2.10,MacIntel,60,61025ae37ef11b136ea224fe,,,,,,,,,1286,46,-58,1,0,0,response3disk,,4,1,-8,1,0,0,rectangle,1,-8,1,0,0,1,-8,1,0,0,0,78,78,151,1,,,,,,,,
,,,,,,,,,,,,,FF,,,,,,,,7.967,,,,,,,,,,,,,,,,,,,,,,6101a914523b50e7c767b00e,61036d9194c7d8bd8f5eab76,2021-07-29_23h10.41.255,Simcolourproject_2stim_asymm_v5,2020.2.10,MacIntel,60,61025ae37ef11b136ea224fe,,,,,,,,,1446,30,-69,1,0,0,response3disk,,4,-7,1,1,0,0,rectangle,-7,1,1,0,0,-7,1,1,0,0,0,79,79,20,1,,,,,,,,
,,,,,,,,,,,,,FF,,,,,,,,1.365,,,,,,,,,,,,,,,,,,,,,,6101a914523b50e7c767b00e,61036d9194c7d8bd8f5eab76,2021-07-29_23h10.41.255,Simcolourproject_2stim_asymm_v5,2020.2.10,MacIntel,60,61025ae37ef11b136ea224fe,,,,,,,,,624,24,56,1,0,0,response1disk,,7,-7,2,1,0,0,rectangle,-7,2,1,0,0,-7,2,1,0,0,0,80,80,63,1,,,,,,,,
,,,,,,,,,,,,,FF,,,,,,,,0.916,,,,,,,,,,,,,,,,,,,,,,6101a914523b50e7c767b00e,61036d9194c7d8bd8f5eab76,2021-07-29_23h10.41.255,Simcolourproject_2stim_asymm_v5,2020.2.10,MacIntel,60,61025ae37ef11b136ea224fe,,,,,,,,,3858,37,48,1,0,0,response1disk,,7,11,2,1,0,0,rectangle,11,2,1,0,0,11,2,1,0,0,0,81,81,23,1,,,,,,,,
,,,,,,,,,,,,,FF,,,,,,,,1.318,,,,,,,,,,,,,,,,,,,,,,6101a914523b50e7c767b00e,61036d9194c7d8bd8f5eab76,2021-07-29_23h10.41.255,Simcolourproject_2stim_asymm_v5,2020.2.10,MacIntel,60,61025ae37ef11b136ea224fe,,,,,,,,,1167,40,64,1,0,0,response1disk,,7,3,-3,1,0,0,rectangle,28,-78,1,0,0,1,-4,1,0,0,0,82,82,32,1,,response3disk_3,TRUE,4,4,"[196,206,132,251,39,221,181,296,218,252,199,317,57,223,42,205,83,64,141,43]",1.582,rectangle
,,,,,,,,,,,,,FF,,,,,,,,1.916,,,,,,,,,,,,,,,,,,,,,,6101a914523b50e7c767b00e,61036d9194c7d8bd8f5eab76,2021-07-29_23h10.41.255,Simcolourproject_2stim_asymm_v5,2020.2.10,MacIntel,60,61025ae37ef11b136ea224fe,,,,,,,,,993,64,29,1,0,0,response1disk,,6,6,0,1,0,0,rectangle,6,0,1,0,0,6,0,1,0,0,0,83,83,131,1,,,,,,,,
,,,,,,,,,,,,,FF,,,,,,,,1.55,,,,,,,,,,,,,,,,,,,,,,6101a914523b50e7c767b00e,61036d9194c7d8bd8f5eab76,2021-07-29_23h10.41.255,Simcolourproject_2stim_asymm_v5,2020.2.10,MacIntel,60,61025ae37ef11b136ea224fe,,,,,,,,,2586,37,59,1,0,0,response1disk,,7,-11,-4,1,0,0,rectangle,-11,-4,1,0,0,-11,-4,1,0,0,0,84,84,117,1,,,,,,,,
,,,,,,,,,,,,,FF,,,,,,,,1.649,,,,,,,,,,,,,,,,,,,,,,6101a914523b50e7c767b00e,61036d9194c7d8bd8f5eab76,2021-07-29_23h10.41.255,Simcolourproject_2stim_asymm_v5,2020.2.10,MacIntel,60,61025ae37ef11b136ea224fe,,,,,,,,,4147,-29,-83,1,0,0,response5disk,,3,-16,-3,1,0,0,rectangle,-16,-3,1,0,0,-16,-3,1,0,0,0,85,85,48,1,,,,,,,,
,,,,,,,,,,,,,FF,,,,,,,,1.801,,,,,,,,,,,,,,,,,,,,,,6101a914523b50e7c767b00e,61036d9194c7d8bd8f5eab76,2021-07-29_23h10.41.255,Simcolourproject_2stim_asymm_v5,2020.2.10,MacIntel,60,61025ae37ef11b136ea224fe,,,,,,,,,3923,45,32,1,0,0,response1disk,,6,13,8,1,0,0,rectangle,13,8,1,0,0,13,8,1,0,0,0,86,86,132,1,,,,,,,,
,,,,,,,,,,,,,FF,,,,,,,,1.267,,,,,,,,,,,,,,,,,,,,,,6101a914523b50e7c767b00e,61036d9194c7d8bd8f5eab76,2021-07-29_23h10.41.255,Simcolourproject_2stim_asymm_v5,2020.2.10,MacIntel,60,61025ae37ef11b136ea224fe,,,,,,,,,2645,32,73,1,0,0,response1disk,,7,9,-5,1,0,0,rectangle,9,-5,1,0,0,9,-5,1,0,0,0,87,87,142,1,,,,,,,,
,,,,,,,,,,,,,FF,,,,,,,,2.083,,,,,,,,,,,,,,,,,,,,,,6101a914523b50e7c767b00e,61036d9194c7d8bd8f5eab76,2021-07-29_23h10.41.255,Simcolourproject_2stim_asymm_v5,2020.2.10,MacIntel,60,61025ae37ef11b136ea224fe,,,,,,,,,3633,64,51,1,0,0,response1disk,,6,6,14,1,0,0,rectangle,6,14,1,0,0,6,14,1,0,0,0,88,88,88,1,,,,,,,,
,,,,,,,,,,,,,FF,,,,,,,,0.717,,,,,,,,,,,,,,,,,,,,,,6101a914523b50e7c767b00e,61036d9194c7d8bd8f5eab76,2021-07-29_23h10.41.255,Simcolourproject_2stim_asymm_v5,2020.2.10,MacIntel,60,61025ae37ef11b136ea224fe,,,,,,,,,2024,48,92,1,0,0,response1disk,,7,12,12,1,0,0,rectangle,12,12,1,0,0,12,12,1,0,0,0,89,89,43,1,,,,,,,,
,,,,,,,,,,,,,FF,,,,,,,,0.949,,,,,,,,,,,,,,,,,,,,,,6101a914523b50e7c767b00e,61036d9194c7d8bd8f5eab76,2021-07-29_23h10.41.255,Simcolourproject_2stim_asymm_v5,2020.2.10,MacIntel,60,61025ae37ef11b136ea224fe,,,,,,,,,1768,57,89,1,0,0,response1disk,,7,1,2,1,0,0,rectangle,1,2,1,0,0,1,2,1,0,0,0,90,90,84,1,,,,,,,,
,,,,,,,,,,,,,FF,,,,,,,,1.834,,,,,,,,,,,,,,,,,,,,,,6101a914523b50e7c767b00e,61036d9194c7d8bd8f5eab76,2021-07-29_23h10.41.255,Simcolourproject_2stim_asymm_v5,2020.2.10,MacIntel,60,61025ae37ef11b136ea224fe,,,,,,,,,2553,90,61,1,0,0,response1disk,,6,16,4,1,0,0,rectangle,16,4,1,0,0,16,4,1,0,0,0,91,91,57,1,,,,,,,,
,,,,,,,,,,,,,FF,,,,,,,,1.482,,,,,,,,,,,,,,,,,,,,,,6101a914523b50e7c767b00e,61036d9194c7d8bd8f5eab76,2021-07-29_23h10.41.255,Simcolourproject_2stim_asymm_v5,2020.2.10,MacIntel,60,61025ae37ef11b136ea224fe,,,,,,,,,4169,58,-23,1,0,0,response3disk,,5,18,-6,1,0,0,rectangle,18,-6,1,0,0,18,-6,1,0,0,0,92,92,107,1,,,,,,,,
,,,,,,,,,,,,,FF,,,,,,,,1.2,,,,,,,,,,,,,,,,,,,,,,6101a914523b50e7c767b00e,61036d9194c7d8bd8f5eab76,2021-07-29_23h10.41.255,Simcolourproject_2stim_asymm_v5,2020.2.10,MacIntel,60,61025ae37ef11b136ea224fe,,,,,,,,,519,19,68,1,0,0,response1disk,,7,-2,3,1,0,0,rectangle,-2,3,1,0,0,-2,3,1,0,0,0,93,93,65,1,,,,,,,,
,,,,,,,,,,,,,FF,,,,,,,,1.55,,,,,,,,,,,,,,,,,,,,,,6101a914523b50e7c767b00e,61036d9194c7d8bd8f5eab76,2021-07-29_23h10.41.255,Simcolourproject_2stim_asymm_v5,2020.2.10,MacIntel,60,61025ae37ef11b136ea224fe,,,,,,,,,3853,78,50,1,0,0,response1disk,,6,-5,13,1,0,0,rectangle,-5,13,1,0,0,-5,13,1,0,0,0,94,94,77,1,,,,,,,,
,,,,,,,,,,,,,FF,,,,,,,,13.083,,,,,,,,,,,,,,,,,,,,,,6101a914523b50e7c767b00e,61036d9194c7d8bd8f5eab76,2021-07-29_23h10.41.255,Simcolourproject_2stim_asymm_v5,2020.2.10,MacIntel,60,61025ae37ef11b136ea224fe,,,,,,,,,1270,50,34,1,0,0,response1disk,,6,15,6,1,0,0,rectangle,15,6,1,0,0,15,6,1,0,0,0,95,95,87,1,,,,,,,,
,,,,,,,,,,,,,FF,,,,,,,,1.684,,,,,,,,,,,,,,,,,,,,,,6101a914523b50e7c767b00e,61036d9194c7d8bd8f5eab76,2021-07-29_23h10.41.255,Simcolourproject_2stim_asymm_v5,2020.2.10,MacIntel,60,61025ae37ef11b136ea224fe,,,,,,,,,2208,41,70,1,0,0,response1disk,,7,-8,-2,1,0,0,rectangle,-8,-2,1,0,0,-8,-2,1,0,0,0,96,96,51,1,,,,,,,,
,,,,,,,,,,,,,FF,,,,,,,,0.784,,,,,,,,,,,,,,,,,,,,,,6101a914523b50e7c767b00e,61036d9194c7d8bd8f5eab76,2021-07-29_23h10.41.255,Simcolourproject_2stim_asymm_v5,2020.2.10,MacIntel,60,61025ae37ef11b136ea224fe,,,,,,,,,2074,57,34,1,0,0,response1disk,,6,-1,-10,1,0,0,rectangle,-1,-10,1,0,0,-1,-10,1,0,0,0,97,97,76,1,,,,,,,,
,,,,,,,,,,,,,FF,,,,,,,,0.934,,,,,,,,,,,,,,,,,,,,,,6101a914523b50e7c767b00e,61036d9194c7d8bd8f5eab76,2021-07-29_23h10.41.255,Simcolourproject_2stim_asymm_v5,2020.2.10,MacIntel,60,61025ae37ef11b136ea224fe,,,,,,,,,3752,44,73,1,0,0,response1disk,,7,2,7,1,0,0,rectangle,2,7,1,0,0,2,7,1,0,0,0,98,98,141,1,,,,,,,,
,,,,,,,,,,,,,FF,,,,,,,,1.132,,,,,,,,,,,,,,,,,,,,,,6101a914523b50e7c767b00e,61036d9194c7d8bd8f5eab76,2021-07-29_23h10.41.255,Simcolourproject_2stim_asymm_v5,2020.2.10,MacIntel,60,61025ae37ef11b136ea224fe,,,,,,,,,1652,33,63,1,0,0,response1disk,,7,3,2,1,0,0,rectangle,3,2,1,0,0,3,2,1,0,0,0,99,99,31,1,,,,,,,,
,,,,,,,,,,,,,FF,,,,,,,,1.351,,,,,,,,,,,,,,,,,,,,,,6101a914523b50e7c767b00e,61036d9194c7d8bd8f5eab76,2021-07-29_23h10.41.255,Simcolourproject_2stim_asymm_v5,2020.2.10,MacIntel,60,61025ae37ef11b136ea224fe,,,,,,,,,4067,29,71,1,0,0,response1disk,,7,-8,2,1,0,0,rectangle,-8,2,1,0,0,-8,2,1,0,0,0,100,100,53,1,,,,,,,,
,,,,,,,,,,,,,FF,,,,,,,,1,,,,,,,,,,,,,,,,,,,,,,6101a914523b50e7c767b00e,61036d9194c7d8bd8f5eab76,2021-07-29_23h10.41.255,Simcolourproject_2stim_asymm_v5,2020.2.10,MacIntel,60,61025ae37ef11b136ea224fe,,,,,,,,,389,25,74,1,0,0,response1disk,,7,-5,-1,1,0,0,rectangle,-5,-1,1,0,0,-5,-1,1,0,0,0,101,101,47,1,,,,,,,,
,,,,,,,,,,,,,FF,,,,,,,,1.166,,,,,,,,,,,,,,,,,,,,,,6101a914523b50e7c767b00e,61036d9194c7d8bd8f5eab76,2021-07-29_23h10.41.255,Simcolourproject_2stim_asymm_v5,2020.2.10,MacIntel,60,61025ae37ef11b136ea224fe,,,,,,,,,2811,29,73,1,0,0,response1disk,,7,-9,7,1,0,0,rectangle,-9,7,1,0,0,-9,7,1,0,0,0,102,102,130,1,,,,,,,,
,,,,,,,,,,,,,FF,,,,,,,,0.616,,,,,,,,,,,,,,,,,,,,,,6101a914523b50e7c767b00e,61036d9194c7d8bd8f5eab76,2021-07-29_23h10.41.255,Simcolourproject_2stim_asymm_v5,2020.2.10,MacIntel,60,61025ae37ef11b136ea224fe,,,,,,,,,2959,33,65,1,0,0,response1disk,,7,2,10,1,0,0,rectangle,2,10,1,0,0,2,10,1,0,0,0,103,103,148,1,,,,,,,,
,,,,,,,,,,,,,FF,,,,,,,,0.783,,,,,,,,,,,,,,,,,,,,,,6101a914523b50e7c767b00e,61036d9194c7d8bd8f5eab76,2021-07-29_23h10.41.255,Simcolourproject_2stim_asymm_v5,2020.2.10,MacIntel,60,61025ae37ef11b136ea224fe,,,,,,,,,3539,39,71,1,0,0,response1disk,,7,-4,5,1,0,0,rectangle,-4,5,1,0,0,-4,5,1,0,0,0,104,104,118,1,,,,,,,,
,,,,,,,,,,,,,FF,,,,,,,,2.382,,,,,,,,,,,,,,,,,,,,,,6101a914523b50e7c767b00e,61036d9194c7d8bd8f5eab76,2021-07-29_23h10.41.255,Simcolourproject_2stim_asymm_v5,2020.2.10,MacIntel,60,61025ae37ef11b136ea224fe,,,,,,,,,3034,39,82,1,0,0,response1disk,,7,-2,12,1,0,0,rectangle,-2,12,1,0,0,-2,12,1,0,0,0,105,105,155,1,,,,,,,,
,,,,,,,,,,,,,FF,,,,,,,,0.8,,,,,,,,,,,,,,,,,,,,,,6101a914523b50e7c767b00e,61036d9194c7d8bd8f5eab76,2021-07-29_23h10.41.255,Simcolourproject_2stim_asymm_v5,2020.2.10,MacIntel,60,61025ae37ef11b136ea224fe,,,,,,,,,3346,68,50,1,0,0,response1disk,,6,1,2,1,0,0,rectangle,1,2,1,0,0,1,2,1,0,0,0,106,106,7,1,,,,,,,,
,,,,,,,,,,,,,FF,,,,,,,,0.8,,,,,,,,,,,,,,,,,,,,,,6101a914523b50e7c767b00e,61036d9194c7d8bd8f5eab76,2021-07-29_23h10.41.255,Simcolourproject_2stim_asymm_v5,2020.2.10,MacIntel,60,61025ae37ef11b136ea224fe,,,,,,,,,2244,44,80,1,0,0,response1disk,,7,0,8,1,0,0,rectangle,0,8,1,0,0,0,8,1,0,0,0,107,107,144,1,,,,,,,,
,,,,,,,,,,,,,FF,,,,,,,,0.799,,,,,,,,,,,,,,,,,,,,,,6101a914523b50e7c767b00e,61036d9194c7d8bd8f5eab76,2021-07-29_23h10.41.255,Simcolourproject_2stim_asymm_v5,2020.2.10,MacIntel,60,61025ae37ef11b136ea224fe,,,,,,,,,669,28,65,1,0,0,response1disk,,7,-4,-2,1,0,0,rectangle,-4,-2,1,0,0,-4,-2,1,0,0,0,108,108,133,1,,,,,,,,
,,,,,,,,,,,,,FF,,,,,,,,0.701,,,,,,,,,,,,,,,,,,,,,,6101a914523b50e7c767b00e,61036d9194c7d8bd8f5eab76,2021-07-29_23h10.41.255,Simcolourproject_2stim_asymm_v5,2020.2.10,MacIntel,60,61025ae37ef11b136ea224fe,,,,,,,,,1775,35,88,1,0,0,response1disk,,7,-4,6,1,0,0,rectangle,-4,6,1,0,0,-4,6,1,0,0,0,109,109,44,1,,,,,,,,
,,,,,,,,,,,,,FF,,,,,,,,1.116,,,,,,,,,,,,,,,,,,,,,,6101a914523b50e7c767b00e,61036d9194c7d8bd8f5eab76,2021-07-29_23h10.41.255,Simcolourproject_2stim_asymm_v5,2020.2.10,MacIntel,60,61025ae37ef11b136ea224fe,,,,,,,,,394,42,80,1,0,0,response1disk,,7,-3,5,1,0,0,rectangle,-3,5,1,0,0,-3,5,1,0,0,0,110,110,25,1,,,,,,,,
,,,,,,,,,,,,,FF,,,,,,,,1.568,,,,,,,,,,,,,,,,,,,,,,6101a914523b50e7c767b00e,61036d9194c7d8bd8f5eab76,2021-07-29_23h10.41.255,Simcolourproject_2stim_asymm_v5,2020.2.10,MacIntel,60,61025ae37ef11b136ea224fe,,,,,,,,,4266,-82,42,1,0,0,response7disk,,1,-9,1,1,0,0,rectangle,-9,1,1,0,0,-9,1,1,0,0,0,111,111,45,1,,,,,,,,
,,,,,,,,,,,,,FF,,,,,,,,1.766,,,,,,,,,,,,,,,,,,,,,,6101a914523b50e7c767b00e,61036d9194c7d8bd8f5eab76,2021-07-29_23h10.41.255,Simcolourproject_2stim_asymm_v5,2020.2.10,MacIntel,60,61025ae37ef11b136ea224fe,,,,,,,,,3292,73,-50,1,0,0,response3disk,,5,-2,-12,1,0,0,rectangle,-2,-12,1,0,0,-2,-12,1,0,0,0,112,112,86,1,,,,,,,,
,,,,,,,,,,,,,FF,,,,,,,,0.917,,,,,,,,,,,,,,,,,,,,,,6101a914523b50e7c767b00e,61036d9194c7d8bd8f5eab76,2021-07-29_23h10.41.255,Simcolourproject_2stim_asymm_v5,2020.2.10,MacIntel,60,61025ae37ef11b136ea224fe,,,,,,,,,1119,47,33,1,0,0,response1disk,,6,-7,-10,1,0,0,rectangle,-7,-10,1,0,0,-7,-10,1,0,0,0,113,113,58,1,,,,,,,,
,,,,,,,,,,,,,FF,,,,,,,,0.733,,,,,,,,,,,,,,,,,,,,,,6101a914523b50e7c767b00e,61036d9194c7d8bd8f5eab76,2021-07-29_23h10.41.255,Simcolourproject_2stim_asymm_v5,2020.2.10,MacIntel,60,61025ae37ef11b136ea224fe,,,,,,,,,2557,28,64,1,0,0,response1disk,,7,3,-8,1,0,0,rectangle,3,-8,1,0,0,3,-8,1,0,0,0,114,114,54,1,,,,,,,,
,,,,,,,,,,,,,FF,,,,,,,,1.767,,,,,,,,,,,,,,,,,,,,,,6101a914523b50e7c767b00e,61036d9194c7d8bd8f5eab76,2021-07-29_23h10.41.255,Simcolourproject_2stim_asymm_v5,2020.2.10,MacIntel,60,61025ae37ef11b136ea224fe,,,,,,,,,3518,36,-62,1,0,0,response3disk,,4,5,-3,1,0,0,rectangle,5,-3,1,0,0,5,-3,1,0,0,0,115,115,97,1,,,,,,,,
,,,,,,,,,,,,,FF,,,,,,,,1.7,,,,,,,,,,,,,,,,,,,,,,6101a914523b50e7c767b00e,61036d9194c7d8bd8f5eab76,2021-07-29_23h10.41.255,Simcolourproject_2stim_asymm_v5,2020.2.10,MacIntel,60,61025ae37ef11b136ea224fe,,,,,,,,,716,-64,-19,1,0,0,response5disk,,2,8,6,1,0,0,rectangle,8,6,1,0,0,8,6,1,0,0,0,116,116,135,1,,,,,,,,
,,,,,,,,,,,,,FF,,,,,,,,0.75,,,,,,,,,,,,,,,,,,,,,,6101a914523b50e7c767b00e,61036d9194c7d8bd8f5eab76,2021-07-29_23h10.41.255,Simcolourproject_2stim_asymm_v5,2020.2.10,MacIntel,60,61025ae37ef11b136ea224fe,,,,,,,,,2753,45,70,1,0,0,response1disk,,7,2,6,1,0,0,rectangle,2,6,1,0,0,2,6,1,0,0,0,117,117,111,1,,,,,,,,
,,,,,,,,,,,,,FF,,,,,,,,0.633,,,,,,,,,,,,,,,,,,,,,,6101a914523b50e7c767b00e,61036d9194c7d8bd8f5eab76,2021-07-29_23h10.41.255,Simcolourproject_2stim_asymm_v5,2020.2.10,MacIntel,60,61025ae37ef11b136ea224fe,,,,,,,,,2976,37,60,1,0,0,response1disk,,7,9,-11,1,0,0,rectangle,9,-11,1,0,0,9,-11,1,0,0,0,118,118,13,1,,,,,,,,
,,,,,,,,,,,,,FF,,,,,,,,1.701,,,,,,,,,,,,,,,,,,,,,,6101a914523b50e7c767b00e,61036d9194c7d8bd8f5eab76,2021-07-29_23h10.41.255,Simcolourproject_2stim_asymm_v5,2020.2.10,MacIntel,60,61025ae37ef11b136ea224fe,,,,,,,,,1076,51,75,1,0,0,response1disk,,7,-16,-3,1,0,0,rectangle,-16,-3,1,0,0,-16,-3,1,0,0,0,119,119,37,1,,,,,,,,
,,,,,,,,,,,,,FF,,,,,,,,1.066,,,,,,,,,,,,,,,,,,,,,,6101a914523b50e7c767b00e,61036d9194c7d8bd8f5eab76,2021-07-29_23h10.41.255,Simcolourproject_2stim_asymm_v5,2020.2.10,MacIntel,60,61025ae37ef11b136ea224fe,,,,,,,,,524,29,65,1,0,0,response1disk,,7,9,-2,1,0,0,rectangle,9,-2,1,0,0,9,-2,1,0,0,0,120,120,42,1,,,,,,,,
,,,,,,,,,,,,,FF,,,,,,,,0.617,,,,,,,,,,,,,,,,,,,,,,6101a914523b50e7c767b00e,61036d9194c7d8bd8f5eab76,2021-07-29_23h10.41.255,Simcolourproject_2stim_asymm_v5,2020.2.10,MacIntel,60,61025ae37ef11b136ea224fe,,,,,,,,,3948,67,38,1,0,0,response1disk,,6,5,0,1,0,0,rectangle,5,0,1,0,0,5,0,1,0,0,0,121,121,91,1,,,,,,,,
,,,,,,,,,,,,,FF,,,,,,,,2.45,,,,,,,,,,,,,,,,,,,,,,6101a914523b50e7c767b00e,61036d9194c7d8bd8f5eab76,2021-07-29_23h10.41.255,Simcolourproject_2stim_asymm_v5,2020.2.10,MacIntel,60,61025ae37ef11b136ea224fe,,,,,,,,,515,64,43,1,0,0,response1disk,,6,4,14,1,0,0,rectangle,4,14,1,0,0,4,14,1,0,0,0,122,122,40,1,,,,,,,,
,,,,,,,,,,,,,FF,,,,,,,,0.967,,,,,,,,,,,,,,,,,,,,,,6101a914523b50e7c767b00e,61036d9194c7d8bd8f5eab76,2021-07-29_23h10.41.255,Simcolourproject_2stim_asymm_v5,2020.2.10,MacIntel,60,61025ae37ef11b136ea224fe,,,,,,,,,3496,30,62,1,0,0,response1disk,,7,13,14,1,0,0,rectangle,13,14,1,0,0,13,14,1,0,0,0,123,123,153,1,,,,,,,,
,,,,,,,,,,,,,FF,,,,,,,,0.833,,,,,,,,,,,,,,,,,,,,,,6101a914523b50e7c767b00e,61036d9194c7d8bd8f5eab76,2021-07-29_23h10.41.255,Simcolourproject_2stim_asymm_v5,2020.2.10,MacIntel,60,61025ae37ef11b136ea224fe,,,,,,,,,1872,48,34,1,0,0,response1disk,,6,6,13,1,0,0,rectangle,6,13,1,0,0,6,13,1,0,0,0,124,124,36,1,,,,,,,,
,,,,,,,,,,,,,FF,,,,,,,,0.917,,,,,,,,,,,,,,,,,,,,,,6101a914523b50e7c767b00e,61036d9194c7d8bd8f5eab76,2021-07-29_23h10.41.255,Simcolourproject_2stim_asymm_v5,2020.2.10,MacIntel,60,61025ae37ef11b136ea224fe,,,,,,,,,2439,34,64,1,0,0,response1disk,,7,11,8,1,0,0,rectangle,11,8,1,0,0,11,8,1,0,0,0,125,125,66,1,,,,,,,,
,,,,,,,,,,,,,FF,,,,,,,,1.418,,,,,,,,,,,,,,,,,,,,,,6101a914523b50e7c767b00e,61036d9194c7d8bd8f5eab76,2021-07-29_23h10.41.255,Simcolourproject_2stim_asymm_v5,2020.2.10,MacIntel,60,61025ae37ef11b136ea224fe,,,,,,,,,4129,72,-21,1,0,0,response3disk,,5,5,1,1,0,0,rectangle,5,1,1,0,0,5,1,1,0,0,0,126,126,115,1,,,,,,,,
,,,,,,,,,,,,,FF,,,,,,,,0.75,,,,,,,,,,,,,,,,,,,,,,6101a914523b50e7c767b00e,61036d9194c7d8bd8f5eab76,2021-07-29_23h10.41.255,Simcolourproject_2stim_asymm_v5,2020.2.10,MacIntel,60,61025ae37ef11b136ea224fe,,,,,,,,,2979,53,83,1,0,0,response1disk,,7,7,4,1,0,0,rectangle,7,4,1,0,0,7,4,1,0,0,0,127,127,17,1,,,,,,,,
,,,,,,,,,,,,,FF,,,,,,,,0.6,,,,,,,,,,,,,,,,,,,,,,6101a914523b50e7c767b00e,61036d9194c7d8bd8f5eab76,2021-07-29_23h10.41.255,Simcolourproject_2stim_asymm_v5,2020.2.10,MacIntel,60,61025ae37ef11b136ea224fe,,,,,,,,,220,30,66,1,0,0,response1disk,,7,-2,-11,1,0,0,rectangle,-2,-11,1,0,0,-2,-11,1,0,0,0,128,128,21,1,,,,,,,,
,,,,,,,,,,,,,FF,,,,,,,,1.201,,,,,,,,,,,,,,,,,,,,,,6101a914523b50e7c767b00e,61036d9194c7d8bd8f5eab76,2021-07-29_23h10.41.255,Simcolourproject_2stim_asymm_v5,2020.2.10,MacIntel,60,61025ae37ef11b136ea224fe,,,,,,,,,2900,57,35,1,0,0,response1disk,,6,-4,5,1,0,0,rectangle,-4,5,1,0,0,-4,5,1,0,0,0,129,129,124,1,,,,,,,,
,,,,,,,,,,,,,FF,,,,,,,,1.583,,,,,,,,,,,,,,,,,,,,,,6101a914523b50e7c767b00e,61036d9194c7d8bd8f5eab76,2021-07-29_23h10.41.255,Simcolourproject_2stim_asymm_v5,2020.2.10,MacIntel,60,61025ae37ef11b136ea224fe,,,,,,,,,1435,41,68,1,0,0,response1disk,,7,-1,11,1,0,0,rectangle,-1,11,1,0,0,-1,11,1,0,0,0,130,130,19,1,,,,,,,,
,,,,,,,,,,,,,FF,,,,,,,,0.751,,,,,,,,,,,,,,,,,,,,,,6101a914523b50e7c767b00e,61036d9194c7d8bd8f5eab76,2021-07-29_23h10.41.255,Simcolourproject_2stim_asymm_v5,2020.2.10,MacIntel,60,61025ae37ef11b136ea224fe,,,,,,,,,3525,31,52,1,0,0,response1disk,,7,-4,11,1,0,0,rectangle,-33,87,1,0,0,1,-4,1,0,0,0,131,131,62,1,,response7disk_3,TRUE,0,0,"[196,206,132,251,39,221,181,296,218,252,199,317,57,223,42,205,83,64,141,43]",1.898,rectangle
,,,,,,,,,,,,,FF,,,,,,,,1.267,,,,,,,,,,,,,,,,,,,,,,6101a914523b50e7c767b00e,61036d9194c7d8bd8f5eab76,2021-07-29_23h10.41.255,Simcolourproject_2stim_asymm_v5,2020.2.10,MacIntel,60,61025ae37ef11b136ea224fe,,,,,,,,,980,85,50,1,0,0,response1disk,,6,-8,6,1,0,0,rectangle,-8,6,1,0,0,-8,6,1,0,0,0,132,132,46,1,,,,,,,,
,,,,,,,,,,,,,FF,,,,,,,,0.667,,,,,,,,,,,,,,,,,,,,,,6101a914523b50e7c767b00e,61036d9194c7d8bd8f5eab76,2021-07-29_23h10.41.255,Simcolourproject_2stim_asymm_v5,2020.2.10,MacIntel,60,61025ae37ef11b136ea224fe,,,,,,,,,1666,40,82,1,0,0,response1disk,,7,-17,0,1,0,0,rectangle,-17,0,1,0,0,-17,0,1,0,0,0,133,133,35,1,,,,,,,,
,,,,,,,,,,,,,FF,,,,,,,,0.533,,,,,,,,,,,,,,,,,,,,,,6101a914523b50e7c767b00e,61036d9194c7d8bd8f5eab76,2021-07-29_23h10.41.255,Simcolourproject_2stim_asymm_v5,2020.2.10,MacIntel,60,61025ae37ef11b136ea224fe,,,,,,,,,837,23,53,1,0,0,response1disk,,7,0,-7,1,0,0,rectangle,0,-7,1,0,0,0,-7,1,0,0,0,134,134,85,1,,,,,,,,
,,,,,,,,,,,,,FF,,,,,,,,0.5,,,,,,,,,,,,,,,,,,,,,,6101a914523b50e7c767b00e,61036d9194c7d8bd8f5eab76,2021-07-29_23h10.41.255,Simcolourproject_2stim_asymm_v5,2020.2.10,MacIntel,60,61025ae37ef11b136ea224fe,,,,,,,,,2755,34,51,1,0,0,response1disk,,7,-1,7,1,0,0,rectangle,-1,7,1,0,0,-1,7,1,0,0,0,135,135,122,1,,,,,,,,
,,,,,,,,,,,,,FF,,,,,,,,0.616,,,,,,,,,,,,,,,,,,,,,,6101a914523b50e7c767b00e,61036d9194c7d8bd8f5eab76,2021-07-29_23h10.41.255,Simcolourproject_2stim_asymm_v5,2020.2.10,MacIntel,60,61025ae37ef11b136ea224fe,,,,,,,,,1398,22,60,1,0,0,response1disk,,7,-4,-1,1,0,0,rectangle,-4,-1,1,0,0,-4,-1,1,0,0,0,136,136,22,1,,,,,,,,
,,,,,,,,,,,,,FF,,,,,,,,0.566,,,,,,,,,,,,,,,,,,,,,,6101a914523b50e7c767b00e,61036d9194c7d8bd8f5eab76,2021-07-29_23h10.41.255,Simcolourproject_2stim_asymm_v5,2020.2.10,MacIntel,60,61025ae37ef11b136ea224fe,,,,,,,,,1876,35,65,1,0,0,response1disk,,7,5,3,1,0,0,rectangle,5,3,1,0,0,5,3,1,0,0,0,137,137,152,1,,,,,,,,
,,,,,,,,,,,,,FF,,,,,,,,0.466,,,,,,,,,,,,,,,,,,,,,,6101a914523b50e7c767b00e,61036d9194c7d8bd8f5eab76,2021-07-29_23h10.41.255,Simcolourproject_2stim_asymm_v5,2020.2.10,MacIntel,60,61025ae37ef11b136ea224fe,,,,,,,,,2150,37,65,1,0,0,response1disk,,7,20,-4,1,0,0,rectangle,20,-4,1,0,0,20,-4,1,0,0,0,138,138,4,1,,,,,,,,
,,,,,,,,,,,,,FF,,,,,,,,0.5,,,,,,,,,,,,,,,,,,,,,,6101a914523b50e7c767b00e,61036d9194c7d8bd8f5eab76,2021-07-29_23h10.41.255,Simcolourproject_2stim_asymm_v5,2020.2.10,MacIntel,60,61025ae37ef11b136ea224fe,,,,,,,,,1149,29,71,1,0,0,response1disk,,7,11,-3,1,0,0,rectangle,11,-3,1,0,0,11,-3,1,0,0,0,139,139,157,1,,,,,,,,
,,,,,,,,,,,,,FF,,,,,,,,0.5,,,,,,,,,,,,,,,,,,,,,,6101a914523b50e7c767b00e,61036d9194c7d8bd8f5eab76,2021-07-29_23h10.41.255,Simcolourproject_2stim_asymm_v5,2020.2.10,MacIntel,60,61025ae37ef11b136ea224fe,,,,,,,,,731,33,61,1,0,0,response1disk,,7,12,6,1,0,0,rectangle,-98,-39,1,0,0,-10,7,1,0,0,0,140,140,0,1,,response5disk_3,TRUE,2,2,"[196,206,132,251,39,221,181,296,218,252,199,317,57,223,42,205,83,64,141,43]",2.782,rectangle
,,,,,,,,,,,,,FF,,,,,,,,2.418,,,,,,,,,,,,,,,,,,,,,,6101a914523b50e7c767b00e,61036d9194c7d8bd8f5eab76,2021-07-29_23h10.41.255,Simcolourproject_2stim_asymm_v5,2020.2.10,MacIntel,60,61025ae37ef11b136ea224fe,,,,,,,,,1795,28,60,1,0,0,response1disk,,7,5,-14,1,0,0,rectangle,5,-14,1,0,0,5,-14,1,0,0,0,141,141,89,1,,,,,,,,
,,,,,,,,,,,,,FF,,,,,,,,0.632,,,,,,,,,,,,,,,,,,,,,,6101a914523b50e7c767b00e,61036d9194c7d8bd8f5eab76,2021-07-29_23h10.41.255,Simcolourproject_2stim_asymm_v5,2020.2.10,MacIntel,60,61025ae37ef11b136ea224fe,,,,,,,,,2012,27,46,1,0,0,response1disk,,7,3,-15,1,0,0,rectangle,3,-15,1,0,0,3,-15,1,0,0,0,142,142,96,1,,,,,,,,
,,,,,,,,,,,,,FF,,,,,,,,0.833,,,,,,,,,,,,,,,,,,,,,,6101a914523b50e7c767b00e,61036d9194c7d8bd8f5eab76,2021-07-29_23h10.41.255,Simcolourproject_2stim_asymm_v5,2020.2.10,MacIntel,60,61025ae37ef11b136ea224fe,,,,,,,,,3184,67,45,1,0,0,response1disk,,6,20,9,1,0,0,rectangle,20,9,1,0,0,20,9,1,0,0,0,143,143,110,1,,,,,,,,
,,,,,,,,,,,,,FF,,,,,,,,1.684,,,,,,,,,,,,,,,,,,,,,,6101a914523b50e7c767b00e,61036d9194c7d8bd8f5eab76,2021-07-29_23h10.41.255,Simcolourproject_2stim_asymm_v5,2020.2.10,MacIntel,60,61025ae37ef11b136ea224fe,,,,,,,,,1396,56,-30,1,0,0,response3disk,,5,8,-9,1,0,0,rectangle,8,-9,1,0,0,8,-9,1,0,0,0,144,144,2,1,,,,,,,,
,,,,,,,,,,,,,FF,,,,,,,,0.899,,,,,,,,,,,,,,,,,,,,,,6101a914523b50e7c767b00e,61036d9194c7d8bd8f5eab76,2021-07-29_23h10.41.255,Simcolourproject_2stim_asymm_v5,2020.2.10,MacIntel,60,61025ae37ef11b136ea224fe,,,,,,,,,2088,48,71,1,0,0,response1disk,,7,14,-10,1,0,0,rectangle,14,-10,1,0,0,14,-10,1,0,0,0,145,145,61,1,,,,,,,,
,,,,,,,,,,,,,FF,,,,,,,,0.516,,,,,,,,,,,,,,,,,,,,,,6101a914523b50e7c767b00e,61036d9194c7d8bd8f5eab76,2021-07-29_23h10.41.255,Simcolourproject_2stim_asymm_v5,2020.2.10,MacIntel,60,61025ae37ef11b136ea224fe,,,,,,,,,510,33,52,1,0,0,response1disk,,7,10,1,1,0,0,rectangle,10,1,1,0,0,10,1,1,0,0,0,146,146,78,1,,,,,,,,
,,,,,,,,,,,,,FF,,,,,,,,0.534,,,,,,,,,,,,,,,,,,,,,,6101a914523b50e7c767b00e,61036d9194c7d8bd8f5eab76,2021-07-29_23h10.41.255,Simcolourproject_2stim_asymm_v5,2020.2.10,MacIntel,60,61025ae37ef11b136ea224fe,,,,,,,,,269,35,55,1,0,0,response1disk,,7,20,5,1,0,0,rectangle,20,5,1,0,0,20,5,1,0,0,0,147,147,70,1,,,,,,,,
,,,,,,,,,,,,,FF,,,,,,,,0.433,,,,,,,,,,,,,,,,,,,,,,6101a914523b50e7c767b00e,61036d9194c7d8bd8f5eab76,2021-07-29_23h10.41.255,Simcolourproject_2stim_asymm_v5,2020.2.10,MacIntel,60,61025ae37ef11b136ea224fe,,,,,,,,,119,37,61,1,0,0,response1disk,,7,14,5,1,0,0,rectangle,14,5,1,0,0,14,5,1,0,0,0,148,148,134,1,,,,,,,,
,,,,,,,,,,,,,FF,,,,,,,,0.416,,,,,,,,,,,,,,,,,,,,,,6101a914523b50e7c767b00e,61036d9194c7d8bd8f5eab76,2021-07-29_23h10.41.255,Simcolourproject_2stim_asymm_v5,2020.2.10,MacIntel,60,61025ae37ef11b136ea224fe,,,,,,,,,3603,40,73,1,0,0,response1disk,,7,2,14,1,0,0,rectangle,2,14,1,0,0,2,14,1,0,0,0,149,149,114,1,,,,,,,,
,,,,,,,,,,,,,FF,,,,,,,,1.217,,,,,,,,,,,,,,,,,,,,,,6101a914523b50e7c767b00e,61036d9194c7d8bd8f5eab76,2021-07-29_23h10.41.255,Simcolourproject_2stim_asymm_v5,2020.2.10,MacIntel,60,61025ae37ef11b136ea224fe,,,,,,,,,363,34,72,1,0,0,response1disk,,7,-14,-10,1,0,0,rectangle,-14,-10,1,0,0,-14,-10,1,0,0,0,150,150,138,1,,,,,,,,
,,,,,,,,,,,,,FF,,,,,,,,1.65,,,,,,,,,,,,,,,,,,,,,,6101a914523b50e7c767b00e,61036d9194c7d8bd8f5eab76,2021-07-29_23h10.41.255,Simcolourproject_2stim_asymm_v5,2020.2.10,MacIntel,60,61025ae37ef11b136ea224fe,,,,,,,,,4102,80,-43,1,0,0,response3disk,,5,0,12,1,0,0,rectangle,0,12,1,0,0,0,12,1,0,0,0,151,151,81,1,,,,,,,,
,,,,,,,,,,,,,FF,,,,,,,,1.117,,,,,,,,,,,,,,,,,,,,,,6101a914523b50e7c767b00e,61036d9194c7d8bd8f5eab76,2021-07-29_23h10.41.255,Simcolourproject_2stim_asymm_v5,2020.2.10,MacIntel,60,61025ae37ef11b136ea224fe,,,,,,,,,693,68,28,1,0,0,response1disk,,6,7,7,1,0,0,rectangle,7,7,1,0,0,7,7,1,0,0,0,152,152,112,1,,,,,,,,
,,,,,,,,,,,,,FF,,,,,,,,0.566,,,,,,,,,,,,,,,,,,,,,,6101a914523b50e7c767b00e,61036d9194c7d8bd8f5eab76,2021-07-29_23h10.41.255,Simcolourproject_2stim_asymm_v5,2020.2.10,MacIntel,60,61025ae37ef11b136ea224fe,,,,,,,,,1115,32,56,1,0,0,response1disk,,7,7,2,1,0,0,rectangle,7,2,1,0,0,7,2,1,0,0,0,153,153,38,1,,,,,,,,
,,,,,,,,,,,,,FF,,,,,,,,0.468,,,,,,,,,,,,,,,,,,,,,,6101a914523b50e7c767b00e,61036d9194c7d8bd8f5eab76,2021-07-29_23h10.41.255,Simcolourproject_2stim_asymm_v5,2020.2.10,MacIntel,60,61025ae37ef11b136ea224fe,,,,,,,,,1316,32,51,1,0,0,response1disk,,7,6,0,1,0,0,rectangle,6,0,1,0,0,6,0,1,0,0,0,154,154,82,1,,,,,,,,
,,,,,,,,,,,,,FF,,,,,,,,0.484,,,,,,,,,,,,,,,,,,,,,,6101a914523b50e7c767b00e,61036d9194c7d8bd8f5eab76,2021-07-29_23h10.41.255,Simcolourproject_2stim_asymm_v5,2020.2.10,MacIntel,60,61025ae37ef11b136ea224fe,,,,,,,,,2224,34,57,1,0,0,response1disk,,7,11,1,1,0,0,rectangle,11,1,1,0,0,11,1,1,0,0,0,155,155,26,1,,,,,,,,
,,,,,,,,,,,,,FF,,,,,,,,0.401,,,,,,,,,,,,,,,,,,,,,,6101a914523b50e7c767b00e,61036d9194c7d8bd8f5eab76,2021-07-29_23h10.41.255,Simcolourproject_2stim_asymm_v5,2020.2.10,MacIntel,60,61025ae37ef11b136ea224fe,,,,,,,,,1372,32,52,1,0,0,response1disk,,7,-3,1,1,0,0,rectangle,-3,1,1,0,0,-3,1,1,0,0,0,156,156,11,1,,,,,,,,
,,,,,,,,,,,,,FF,,,,,,,,0.434,,,,,,,,,,,,,,,,,,,,,,6101a914523b50e7c767b00e,61036d9194c7d8bd8f5eab76,2021-07-29_23h10.41.255,Simcolourproject_2stim_asymm_v5,2020.2.10,MacIntel,60,61025ae37ef11b136ea224fe,,,,,,,,,2534,31,70,1,0,0,response1disk,,7,8,4,1,0,0,rectangle,8,4,1,0,0,8,4,1,0,0,0,157,157,59,1,,,,,,,,
,,,,,,,,,,,,,FF,,,,,,,,0.633,,,,,,,,,,,,,,,,,,,,,,6101a914523b50e7c767b00e,61036d9194c7d8bd8f5eab76,2021-07-29_23h10.41.255,Simcolourproject_2stim_asymm_v5,2020.2.10,MacIntel,60,61025ae37ef11b136ea224fe,,,,,,,,,121,31,60,1,0,0,response1disk,,7,7,4,1,0,0,rectangle,7,4,1,0,0,7,4,1,0,0,0,158,158,143,1,,,,,,,,
,,,,,,,,,,,,,FF,,,,,,,,0.784,,,,,,,,,,,,,,,,,,,,,,6101a914523b50e7c767b00e,61036d9194c7d8bd8f5eab76,2021-07-29_23h10.41.255,Simcolourproject_2stim_asymm_v5,2020.2.10,MacIntel,60,61025ae37ef11b136ea224fe,,,,,,,,,3761,70,51,1,0,0,response1disk,,6,14,11,1,0,0,rectangle,14,11,1,0,0,14,11,1,0,0,0,159,159,147,1,,,,,,,,
,,,,,,,,,,,,,FF,,,,,,,,0.549,,,,,,,,,,,,,,,,,,,,,,6101a914523b50e7c767b00e,61036d9194c7d8bd8f5eab76,2021-07-29_23h10.41.255,Simcolourproject_2stim_asymm_v5,2020.2.10,MacIntel,60,61025ae37ef11b136ea224fe,,,,,,,,,2569,39,85,1,0,0,response1disk,,7,-3,2,1,0,0,rectangle,-3,2,1,0,0,-3,2,1,0,0,1,0,160,79,1,,,,,,,,
,,,,,,,,,,,,,FF,,,,,,,,0.55,,,,,,,,,,,,,,,,,,,,,,6101a914523b50e7c767b00e,61036d9194c7d8bd8f5eab76,2021-07-29_23h10.41.255,Simcolourproject_2stim_asymm_v5,2020.2.10,MacIntel,60,61025ae37ef11b136ea224fe,,,,,,,,,2965,38,83,1,0,0,response1disk,,7,-2,14,1,0,0,rectangle,-2,14,1,0,0,-2,14,1,0,0,1,1,161,23,1,,,,,,,,
,,,,,,,,,,,,,FF,,,,,,,,0.883,,,,,,,,,,,,,,,,,,,,,,6101a914523b50e7c767b00e,61036d9194c7d8bd8f5eab76,2021-07-29_23h10.41.255,Simcolourproject_2stim_asymm_v5,2020.2.10,MacIntel,60,61025ae37ef11b136ea224fe,,,,,,,,,3404,85,57,1,0,0,response1disk,,6,18,14,1,0,0,rectangle,18,14,1,0,0,18,14,1,0,0,1,2,162,70,1,,,,,,,,
,,,,,,,,,,,,,FF,,,,,,,,0.484,,,,,,,,,,,,,,,,,,,,,,6101a914523b50e7c767b00e,61036d9194c7d8bd8f5eab76,2021-07-29_23h10.41.255,Simcolourproject_2stim_asymm_v5,2020.2.10,MacIntel,60,61025ae37ef11b136ea224fe,,,,,,,,,270,36,93,1,0,0,response1disk,,7,7,3,1,0,0,rectangle,7,3,1,0,0,7,3,1,0,0,1,3,163,16,1,,,,,,,,
,,,,,,,,,,,,,FF,,,,,,,,1.299,,,,,,,,,,,,,,,,,,,,,,6101a914523b50e7c767b00e,61036d9194c7d8bd8f5eab76,2021-07-29_23h10.41.255,Simcolourproject_2stim_asymm_v5,2020.2.10,MacIntel,60,61025ae37ef11b136ea224fe,,,,,,,,,3204,83,-25,1,0,0,response3disk,,5,18,-13,1,0,0,rectangle,18,-13,1,0,0,18,-13,1,0,0,1,4,164,43,1,,,,,,,,
,,,,,,,,,,,,,FF,,,,,,,,1.749,,,,,,,,,,,,,,,,,,,,,,6101a914523b50e7c767b00e,61036d9194c7d8bd8f5eab76,2021-07-29_23h10.41.255,Simcolourproject_2stim_asymm_v5,2020.2.10,MacIntel,60,61025ae37ef11b136ea224fe,,,,,,,,,2355,-79,-35,1,0,0,response5disk,,2,-13,-9,1,0,0,rectangle,-13,-9,1,0,0,-13,-9,1,0,0,1,5,165,27,1,,,,,,,,
,,,,,,,,,,,,,FF,,,,,,,,1.8,,,,,,,,,,,,,,,,,,,,,,6101a914523b50e7c767b00e,61036d9194c7d8bd8f5eab76,2021-07-29_23h10.41.255,Simcolourproject_2stim_asymm_v5,2020.2.10,MacIntel,60,61025ae37ef11b136ea224fe,,,,,,,,,2998,68,44,1,0,0,response1disk,,6,-3,6,1,0,0,rectangle,-3,6,1,0,0,-3,6,1,0,0,1,6,166,24,1,,,,,,,,
,,,,,,,,,,,,,FF,,,,,,,,1.333,,,,,,,,,,,,,,,,,,,,,,6101a914523b50e7c767b00e,61036d9194c7d8bd8f5eab76,2021-07-29_23h10.41.255,Simcolourproject_2stim_asymm_v5,2020.2.10,MacIntel,60,61025ae37ef11b136ea224fe,,,,,,,,,638,29,73,1,0,0,response1disk,,7,-9,4,1,0,0,rectangle,-9,4,1,0,0,-9,4,1,0,0,1,7,167,117,1,,,,,,,,
,,,,,,,,,,,,,FF,,,,,,,,0.5,,,,,,,,,,,,,,,,,,,,,,6101a914523b50e7c767b00e,61036d9194c7d8bd8f5eab76,2021-07-29_23h10.41.255,Simcolourproject_2stim_asymm_v5,2020.2.10,MacIntel,60,61025ae37ef11b136ea224fe,,,,,,,,,2862,25,68,1,0,0,response1disk,,7,-2,13,1,0,0,rectangle,-2,13,1,0,0,-2,13,1,0,0,1,8,168,51,1,,,,,,,,
,,,,,,,,,,,,,FF,,,,,,,,0.452,,,,,,,,,,,,,,,,,,,,,,6101a914523b50e7c767b00e,61036d9194c7d8bd8f5eab76,2021-07-29_23h10.41.255,Simcolourproject_2stim_asymm_v5,2020.2.10,MacIntel,60,61025ae37ef11b136ea224fe,,,,,,,,,3667,22,59,1,0,0,response1disk,,7,-3,1,1,0,0,rectangle,-3,1,1,0,0,-3,1,1,0,0,1,9,169,5,1,,,,,,,,
,,,,,,,,,,,,,FF,,,,,,,,0.401,,,,,,,,,,,,,,,,,,,,,,6101a914523b50e7c767b00e,61036d9194c7d8bd8f5eab76,2021-07-29_23h10.41.255,Simcolourproject_2stim_asymm_v5,2020.2.10,MacIntel,60,61025ae37ef11b136ea224fe,,,,,,,,,2061,28,73,1,0,0,response1disk,,7,2,9,1,0,0,rectangle,2,9,1,0,0,2,9,1,0,0,1,10,170,142,1,,,,,,,,
,,,,,,,,,,,,,FF,,,,,,,,3.35,,,,,,,,,,,,,,,,,,,,,,6101a914523b50e7c767b00e,61036d9194c7d8bd8f5eab76,2021-07-29_23h10.41.255,Simcolourproject_2stim_asymm_v5,2020.2.10,MacIntel,60,61025ae37ef11b136ea224fe,,,,,,,,,4105,93,62,1,0,0,response1disk,,6,23,4,1,0,0,rectangle,23,4,1,0,0,23,4,1,0,0,1,11,171,35,1,,,,,,,,
,,,,,,,,,,,,,FF,,,,,,,,3.399,,,,,,,,,,,,,,,,,,,,,,6101a914523b50e7c767b00e,61036d9194c7d8bd8f5eab76,2021-07-29_23h10.41.255,Simcolourproject_2stim_asymm_v5,2020.2.10,MacIntel,60,61025ae37ef11b136ea224fe,,,,,,,,,2056,77,49,1,0,0,response1disk,,6,5,-4,1,0,0,rectangle,5,-4,1,0,0,5,-4,1,0,0,1,12,172,145,1,,,,,,,,
,,,,,,,,,,,,,FF,,,,,,,,1.717,,,,,,,,,,,,,,,,,,,,,,6101a914523b50e7c767b00e,61036d9194c7d8bd8f5eab76,2021-07-29_23h10.41.255,Simcolourproject_2stim_asymm_v5,2020.2.10,MacIntel,60,61025ae37ef11b136ea224fe,,,,,,,,,3436,85,-55,1,0,0,response3disk,,5,22,-11,1,0,0,rectangle,22,-11,1,0,0,22,-11,1,0,0,1,13,173,30,1,,,,,,,,
,,,,,,,,,,,,,FF,,,,,,,,1.416,,,,,,,,,,,,,,,,,,,,,,6101a914523b50e7c767b00e,61036d9194c7d8bd8f5eab76,2021-07-29_23h10.41.255,Simcolourproject_2stim_asymm_v5,2020.2.10,MacIntel,60,61025ae37ef11b136ea224fe,,,,,,,,,4143,75,47,1,0,0,response1disk,,6,1,-4,1,0,0,rectangle,1,-4,1,0,0,1,-4,1,0,0,1,14,174,101,1,,,,,,,,
,,,,,,,,,,,,,FF,,,,,,,,1.233,,,,,,,,,,,,,,,,,,,,,,6101a914523b50e7c767b00e,61036d9194c7d8bd8f5eab76,2021-07-29_23h10.41.255,Simcolourproject_2stim_asymm_v5,2020.2.10,MacIntel,60,61025ae37ef11b136ea224fe,,,,,,,,,1049,34,74,1,0,0,response1disk,,7,0,-7,1,0,0,rectangle,0,-7,1,0,0,0,-7,1,0,0,1,15,175,149,1,,,,,,,,
,,,,,,,,,,,,,FF,,,,,,,,1.001,,,,,,,,,,,,,,,,,,,,,,6101a914523b50e7c767b00e,61036d9194c7d8bd8f5eab76,2021-07-29_23h10.41.255,Simcolourproject_2stim_asymm_v5,2020.2.10,MacIntel,60,61025ae37ef11b136ea224fe,,,,,,,,,53,38,78,1,0,0,response1disk,,7,6,7,1,0,0,rectangle,6,7,1,0,0,6,7,1,0,0,1,16,176,128,1,,,,,,,,
,,,,,,,,,,,,,FF,,,,,,,,0.5,,,,,,,,,,,,,,,,,,,,,,6101a914523b50e7c767b00e,61036d9194c7d8bd8f5eab76,2021-07-29_23h10.41.255,Simcolourproject_2stim_asymm_v5,2020.2.10,MacIntel,60,61025ae37ef11b136ea224fe,,,,,,,,,770,30,69,1,0,0,response1disk,,7,8,-5,1,0,0,rectangle,8,-5,1,0,0,8,-5,1,0,0,1,17,177,68,1,,,,,,,,
,,,,,,,,,,,,,FF,,,,,,,,0.733,,,,,,,,,,,,,,,,,,,,,,6101a914523b50e7c767b00e,61036d9194c7d8bd8f5eab76,2021-07-29_23h10.41.255,Simcolourproject_2stim_asymm_v5,2020.2.10,MacIntel,60,61025ae37ef11b136ea224fe,,,,,,,,,2295,61,34,1,0,0,response1disk,,6,-10,5,1,0,0,rectangle,-10,5,1,0,0,-10,5,1,0,0,1,18,178,98,1,,,,,,,,
,,,,,,,,,,,,,FF,,,,,,,,0.833,,,,,,,,,,,,,,,,,,,,,,6101a914523b50e7c767b00e,61036d9194c7d8bd8f5eab76,2021-07-29_23h10.41.255,Simcolourproject_2stim_asymm_v5,2020.2.10,MacIntel,60,61025ae37ef11b136ea224fe,,,,,,,,,120,61,38,1,0,0,response1disk,,6,18,-3,1,0,0,rectangle,18,-3,1,0,0,18,-3,1,0,0,1,19,179,152,1,,,,,,,,
,,,,,,,,,,,,,FF,,,,,,,,1.166,,,,,,,,,,,,,,,,,,,,,,6101a914523b50e7c767b00e,61036d9194c7d8bd8f5eab76,2021-07-29_23h10.41.255,Simcolourproject_2stim_asymm_v5,2020.2.10,MacIntel,60,61025ae37ef11b136ea224fe,,,,,,,,,1285,38,67,1,0,0,response1disk,,7,19,2,1,0,0,rectangle,35,77,1,0,0,3,-6,1,0,0,1,20,180,100,1,,response1disk_3,TRUE,7,7,"[196,206,132,251,39,221,181,296,218,252,199,317,57,223,42,205,83,64,141,43]",5.915,rectangle
,,,,,,,,,,,,,FF,,,,,,,,1.149,,,,,,,,,,,,,,,,,,,,,,6101a914523b50e7c767b00e,61036d9194c7d8bd8f5eab76,2021-07-29_23h10.41.255,Simcolourproject_2stim_asymm_v5,2020.2.10,MacIntel,60,61025ae37ef11b136ea224fe,,,,,,,,,3773,30,72,1,0,0,response1disk,,7,9,-2,1,0,0,rectangle,9,-2,1,0,0,9,-2,1,0,0,1,21,181,105,1,,,,,,,,
,,,,,,,,,,,,,FF,,,,,,,,0.6,,,,,,,,,,,,,,,,,,,,,,6101a914523b50e7c767b00e,61036d9194c7d8bd8f5eab76,2021-07-29_23h10.41.255,Simcolourproject_2stim_asymm_v5,2020.2.10,MacIntel,60,61025ae37ef11b136ea224fe,,,,,,,,,2181,36,61,1,0,0,response1disk,,7,17,-5,1,0,0,rectangle,17,-5,1,0,0,17,-5,1,0,0,1,22,182,112,1,,,,,,,,
,,,,,,,,,,,,,FF,,,,,,,,0.733,,,,,,,,,,,,,,,,,,,,,,6101a914523b50e7c767b00e,61036d9194c7d8bd8f5eab76,2021-07-29_23h10.41.255,Simcolourproject_2stim_asymm_v5,2020.2.10,MacIntel,60,61025ae37ef11b136ea224fe,,,,,,,,,2741,93,59,1,0,0,response1disk,,6,16,0,1,0,0,rectangle,16,0,1,0,0,16,0,1,0,0,1,23,183,158,1,,,,,,,,
,,,,,,,,,,,,,FF,,,,,,,,0.568,,,,,,,,,,,,,,,,,,,,,,6101a914523b50e7c767b00e,61036d9194c7d8bd8f5eab76,2021-07-29_23h10.41.255,Simcolourproject_2stim_asymm_v5,2020.2.10,MacIntel,60,61025ae37ef11b136ea224fe,,,,,,,,,1011,27,62,1,0,0,response1disk,,7,-6,-2,1,0,0,rectangle,-6,-2,1,0,0,-6,-2,1,0,0,1,24,184,38,1,,,,,,,,
,,,,,,,,,,,,,FF,,,,,,,,1.116,,,,,,,,,,,,,,,,,,,,,,6101a914523b50e7c767b00e,61036d9194c7d8bd8f5eab76,2021-07-29_23h10.41.255,Simcolourproject_2stim_asymm_v5,2020.2.10,MacIntel,60,61025ae37ef11b136ea224fe,,,,,,,,,2089,79,44,1,0,0,response1disk,,6,-8,1,1,0,0,rectangle,-8,1,1,0,0,-8,1,1,0,0,1,25,185,146,1,,,,,,,,
,,,,,,,,,,,,,FF,,,,,,,,0.549,,,,,,,,,,,,,,,,,,,,,,6101a914523b50e7c767b00e,61036d9194c7d8bd8f5eab76,2021-07-29_23h10.41.255,Simcolourproject_2stim_asymm_v5,2020.2.10,MacIntel,60,61025ae37ef11b136ea224fe,,,,,,,,,1538,32,58,1,0,0,response1disk,,7,6,7,1,0,0,rectangle,6,7,1,0,0,6,7,1,0,0,1,26,186,49,1,,,,,,,,
,,,,,,,,,,,,,FF,,,,,,,,0.467,,,,,,,,,,,,,,,,,,,,,,6101a914523b50e7c767b00e,61036d9194c7d8bd8f5eab76,2021-07-29_23h10.41.255,Simcolourproject_2stim_asymm_v5,2020.2.10,MacIntel,60,61025ae37ef11b136ea224fe,,,,,,,,,1565,29,47,1,0,0,response1disk,,7,5,1,1,0,0,rectangle,5,1,1,0,0,5,1,1,0,0,1,27,187,87,1,,,,,,,,
,,,,,,,,,,,,,FF,,,,,,,,0.836,,,,,,,,,,,,,,,,,,,,,,6101a914523b50e7c767b00e,61036d9194c7d8bd8f5eab76,2021-07-29_23h10.41.255,Simcolourproject_2stim_asymm_v5,2020.2.10,MacIntel,60,61025ae37ef11b136ea224fe,,,,,,,,,1300,73,46,1,0,0,response1disk,,6,10,-2,1,0,0,rectangle,10,-2,1,0,0,10,-2,1,0,0,1,28,188,99,1,,,,,,,,
,,,,,,,,,,,,,FF,,,,,,,,0.882,,,,,,,,,,,,,,,,,,,,,,6101a914523b50e7c767b00e,61036d9194c7d8bd8f5eab76,2021-07-29_23h10.41.255,Simcolourproject_2stim_asymm_v5,2020.2.10,MacIntel,60,61025ae37ef11b136ea224fe,,,,,,,,,3795,45,58,1,0,0,response1disk,,7,-1,6,1,0,0,rectangle,-1,6,1,0,0,-1,6,1,0,0,1,29,189,50,1,,,,,,,,
,,,,,,,,,,,,,FF,,,,,,,,0.684,,,,,,,,,,,,,,,,,,,,,,6101a914523b50e7c767b00e,61036d9194c7d8bd8f5eab76,2021-07-29_23h10.41.255,Simcolourproject_2stim_asymm_v5,2020.2.10,MacIntel,60,61025ae37ef11b136ea224fe,,,,,,,,,1021,85,49,1,0,0,response1disk,,6,24,8,1,0,0,rectangle,24,8,1,0,0,24,8,1,0,0,1,30,190,132,1,,,,,,,,
,,,,,,,,,,,,,FF,,,,,,,,0.549,,,,,,,,,,,,,,,,,,,,,,6101a914523b50e7c767b00e,61036d9194c7d8bd8f5eab76,2021-07-29_23h10.41.255,Simcolourproject_2stim_asymm_v5,2020.2.10,MacIntel,60,61025ae37ef11b136ea224fe,,,,,,,,,2219,32,53,1,0,0,response1disk,,7,4,-5,1,0,0,rectangle,4,-5,1,0,0,4,-5,1,0,0,1,31,191,33,1,,,,,,,,
,,,,,,,,,,,,,FF,,,,,,,,0.534,,,,,,,,,,,,,,,,,,,,,,6101a914523b50e7c767b00e,61036d9194c7d8bd8f5eab76,2021-07-29_23h10.41.255,Simcolourproject_2stim_asymm_v5,2020.2.10,MacIntel,60,61025ae37ef11b136ea224fe,,,,,,,,,866,48,36,1,0,0,response1disk,,6,15,13,1,0,0,rectangle,15,13,1,0,0,15,13,1,0,0,1,32,192,91,1,,,,,,,,
,,,,,,,,,,,,,FF,,,,,,,,0.917,,,,,,,,,,,,,,,,,,,,,,6101a914523b50e7c767b00e,61036d9194c7d8bd8f5eab76,2021-07-29_23h10.41.255,Simcolourproject_2stim_asymm_v5,2020.2.10,MacIntel,60,61025ae37ef11b136ea224fe,,,,,,,,,82,36,76,1,0,0,response1disk,,7,10,-3,1,0,0,rectangle,10,-3,1,0,0,10,-3,1,0,0,1,33,193,159,1,,,,,,,,
,,,,,,,,,,,,,FF,,,,,,,,0.85,,,,,,,,,,,,,,,,,,,,,,6101a914523b50e7c767b00e,61036d9194c7d8bd8f5eab76,2021-07-29_23h10.41.255,Simcolourproject_2stim_asymm_v5,2020.2.10,MacIntel,60,61025ae37ef11b136ea224fe,,,,,,,,,2784,70,39,1,0,0,response1disk,,6,-2,-1,1,0,0,rectangle,-2,-1,1,0,0,-2,-1,1,0,0,1,34,194,127,1,,,,,,,,
,,,,,,,,,,,,,FF,,,,,,,,1.1,,,,,,,,,,,,,,,,,,,,,,6101a914523b50e7c767b00e,61036d9194c7d8bd8f5eab76,2021-07-29_23h10.41.255,Simcolourproject_2stim_asymm_v5,2020.2.10,MacIntel,60,61025ae37ef11b136ea224fe,,,,,,,,,2872,28,57,1,0,0,response1disk,,7,-2,5,1,0,0,rectangle,-70,-26,1,0,0,-5,12,1,0,0,1,35,195,83,1,,response5disk_3,TRUE,2,2,"[196,206,132,251,39,221,181,296,218,252,199,317,57,223,42,205,83,64,141,43]",1.882,rectangle
,,,,,,,,,,,,,FF,,,,,,,,1.166,,,,,,,,,,,,,,,,,,,,,,6101a914523b50e7c767b00e,61036d9194c7d8bd8f5eab76,2021-07-29_23h10.41.255,Simcolourproject_2stim_asymm_v5,2020.2.10,MacIntel,60,61025ae37ef11b136ea224fe,,,,,,,,,2805,75,51,1,0,0,response1disk,,6,-9,9,1,0,0,rectangle,-9,9,1,0,0,-9,9,1,0,0,1,36,196,80,1,,,,,,,,
,,,,,,,,,,,,,FF,,,,,,,,1.983,,,,,,,,,,,,,,,,,,,,,,6101a914523b50e7c767b00e,61036d9194c7d8bd8f5eab76,2021-07-29_23h10.41.255,Simcolourproject_2stim_asymm_v5,2020.2.10,MacIntel,60,61025ae37ef11b136ea224fe,,,,,,,,,1312,72,34,1,0,0,response1disk,,6,21,6,1,0,0,rectangle,21,6,1,0,0,21,6,1,0,0,1,37,197,89,1,,,,,,,,
,,,,,,,,,,,,,FF,,,,,,,,1.516,,,,,,,,,,,,,,,,,,,,,,6101a914523b50e7c767b00e,61036d9194c7d8bd8f5eab76,2021-07-29_23h10.41.255,Simcolourproject_2stim_asymm_v5,2020.2.10,MacIntel,60,61025ae37ef11b136ea224fe,,,,,,,,,648,96,51,1,0,0,response1disk,,6,13,5,1,0,0,rectangle,-46,85,1,0,0,4,-1,1,0,0,1,38,198,2,1,,response7disk_3,TRUE,0,0,"[196,206,132,251,39,221,181,296,218,252,199,317,57,223,42,205,83,64,141,43]",2.148,rectangle
,,,,,,,,,,,,,FF,,,,,,,,2.5,,,,,,,,,,,,,,,,,,,,,,6101a914523b50e7c767b00e,61036d9194c7d8bd8f5eab76,2021-07-29_23h10.41.255,Simcolourproject_2stim_asymm_v5,2020.2.10,MacIntel,60,61025ae37ef11b136ea224fe,,,,,,,,,55,54,32,1,0,0,response1disk,,6,-3,-12,1,0,0,rectangle,-3,-12,1,0,0,-3,-12,1,0,0,1,39,199,107,1,,,,,,,,
,,,,,,,,,,,,,FF,,,,,,,,1.267,,,,,,,,,,,,,,,,,,,,,,6101a914523b50e7c767b00e,61036d9194c7d8bd8f5eab76,2021-07-29_23h10.41.255,Simcolourproject_2stim_asymm_v5,2020.2.10,MacIntel,60,61025ae37ef11b136ea224fe,,,,,,,,,1670,-35,83,1,0,0,response7disk,,0,2,4,1,0,0,rectangle,2,4,1,0,0,2,4,1,0,0,1,40,200,53,1,,,,,,,,
,,,,,,,,,,,,,FF,,,,,,,,1.583,,,,,,,,,,,,,,,,,,,,,,6101a914523b50e7c767b00e,61036d9194c7d8bd8f5eab76,2021-07-29_23h10.41.255,Simcolourproject_2stim_asymm_v5,2020.2.10,MacIntel,60,61025ae37ef11b136ea224fe,,,,,,,,,3529,84,-58,1,0,0,response3disk,,5,9,5,1,0,0,rectangle,9,5,1,0,0,9,5,1,0,0,1,41,201,15,1,,,,,,,,
,,,,,,,,,,,,,FF,,,,,,,,0.949,,,,,,,,,,,,,,,,,,,,,,6101a914523b50e7c767b00e,61036d9194c7d8bd8f5eab76,2021-07-29_23h10.41.255,Simcolourproject_2stim_asymm_v5,2020.2.10,MacIntel,60,61025ae37ef11b136ea224fe,,,,,,,,,3135,40,102,1,0,0,response1disk,,7,7,-1,1,0,0,rectangle,7,-1,1,0,0,7,-1,1,0,0,1,42,202,17,1,,,,,,,,
,,,,,,,,,,,,,FF,,,,,,,,0.817,,,,,,,,,,,,,,,,,,,,,,6101a914523b50e7c767b00e,61036d9194c7d8bd8f5eab76,2021-07-29_23h10.41.255,Simcolourproject_2stim_asymm_v5,2020.2.10,MacIntel,60,61025ae37ef11b136ea224fe,,,,,,,,,1308,82,56,1,0,0,response1disk,,6,16,15,1,0,0,rectangle,16,15,1,0,0,16,15,1,0,0,1,43,203,81,1,,,,,,,,
,,,,,,,,,,,,,FF,,,,,,,,0.883,,,,,,,,,,,,,,,,,,,,,,6101a914523b50e7c767b00e,61036d9194c7d8bd8f5eab76,2021-07-29_23h10.41.255,Simcolourproject_2stim_asymm_v5,2020.2.10,MacIntel,60,61025ae37ef11b136ea224fe,,,,,,,,,2270,60,47,1,0,0,response1disk,,6,16,0,1,0,0,rectangle,-50,-80,1,0,0,-9,6,1,0,0,1,44,204,58,1,,response5disk_3,TRUE,3,3,"[196,206,132,251,39,221,181,296,218,252,199,317,57,223,42,205,83,64,141,43]",2.433,rectangle
,,,,,,,,,,,,,FF,,,,,,,,0.75,,,,,,,,,,,,,,,,,,,,,,6101a914523b50e7c767b00e,61036d9194c7d8bd8f5eab76,2021-07-29_23h10.41.255,Simcolourproject_2stim_asymm_v5,2020.2.10,MacIntel,60,61025ae37ef11b136ea224fe,,,,,,,,,2217,23,50,1,0,0,response1disk,,7,5,6,1,0,0,rectangle,39,-56,1,0,0,9,6,1,0,0,1,45,205,75,1,,response3disk_3,TRUE,4,4,"[196,206,132,251,39,221,181,296,218,252,199,317,57,223,42,205,83,64,141,43]",2.433,rectangle
,,,,,,,,,,,,,FF,,,,,,,,0.783,,,,,,,,,,,,,,,,,,,,,,6101a914523b50e7c767b00e,61036d9194c7d8bd8f5eab76,2021-07-29_23h10.41.255,Simcolourproject_2stim_asymm_v5,2020.2.10,MacIntel,60,61025ae37ef11b136ea224fe,,,,,,,,,996,93,38,1,0,0,response1disk,,6,18,-2,1,0,0,rectangle,18,-2,1,0,0,18,-2,1,0,0,1,46,206,37,1,,,,,,,,
,,,,,,,,,,,,,FF,,,,,,,,0.9,,,,,,,,,,,,,,,,,,,,,,6101a914523b50e7c767b00e,61036d9194c7d8bd8f5eab76,2021-07-29_23h10.41.255,Simcolourproject_2stim_asymm_v5,2020.2.10,MacIntel,60,61025ae37ef11b136ea224fe,,,,,,,,,3693,90,37,1,0,0,response1disk,,6,12,7,1,0,0,rectangle,12,7,1,0,0,12,7,1,0,0,1,47,207,61,1,,,,,,,,
,,,,,,,,,,,,,FF,,,,,,,,0.684,,,,,,,,,,,,,,,,,,,,,,6101a914523b50e7c767b00e,61036d9194c7d8bd8f5eab76,2021-07-29_23h10.41.255,Simcolourproject_2stim_asymm_v5,2020.2.10,MacIntel,60,61025ae37ef11b136ea224fe,,,,,,,,,4302,59,44,1,0,0,response1disk,,6,1,11,1,0,0,rectangle,1,11,1,0,0,1,11,1,0,0,1,48,208,72,1,,,,,,,,
,,,,,,,,,,,,,FF,,,,,,,,1.533,,,,,,,,,,,,,,,,,,,,,,6101a914523b50e7c767b00e,61036d9194c7d8bd8f5eab76,2021-07-29_23h10.41.255,Simcolourproject_2stim_asymm_v5,2020.2.10,MacIntel,60,61025ae37ef11b136ea224fe,,,,,,,,,3551,-68,-25,1,0,0,response5disk,,2,-6,-4,1,0,0,rectangle,-6,-4,1,0,0,-6,-4,1,0,0,1,49,209,131,1,,,,,,,,
,,,,,,,,,,,,,FF,,,,,,,,0.733,,,,,,,,,,,,,,,,,,,,,,6101a914523b50e7c767b00e,61036d9194c7d8bd8f5eab76,2021-07-29_23h10.41.255,Simcolourproject_2stim_asymm_v5,2020.2.10,MacIntel,60,61025ae37ef11b136ea224fe,,,,,,,,,3186,34,79,1,0,0,response1disk,,7,11,-1,1,0,0,rectangle,11,-1,1,0,0,11,-1,1,0,0,1,50,210,118,1,,,,,,,,
,,,,,,,,,,,,,FF,,,,,,,,0.75,,,,,,,,,,,,,,,,,,,,,,6101a914523b50e7c767b00e,61036d9194c7d8bd8f5eab76,2021-07-29_23h10.41.255,Simcolourproject_2stim_asymm_v5,2020.2.10,MacIntel,60,61025ae37ef11b136ea224fe,,,,,,,,,3844,68,40,1,0,0,response1disk,,6,12,-10,1,0,0,rectangle,12,-10,1,0,0,12,-10,1,0,0,1,51,211,11,1,,,,,,,,
,,,,,,,,,,,,,FF,,,,,,,,0.717,,,,,,,,,,,,,,,,,,,,,,6101a914523b50e7c767b00e,61036d9194c7d8bd8f5eab76,2021-07-29_23h10.41.255,Simcolourproject_2stim_asymm_v5,2020.2.10,MacIntel,60,61025ae37ef11b136ea224fe,,,,,,,,,311,33,81,1,0,0,response1disk,,7,6,0,1,0,0,rectangle,6,0,1,0,0,6,0,1,0,0,1,52,212,41,1,,,,,,,,
,,,,,,,,,,,,,FF,,,,,,,,1.184,,,,,,,,,,,,,,,,,,,,,,6101a914523b50e7c767b00e,61036d9194c7d8bd8f5eab76,2021-07-29_23h10.41.255,Simcolourproject_2stim_asymm_v5,2020.2.10,MacIntel,60,61025ae37ef11b136ea224fe,,,,,,,,,43,103,56,1,0,0,response1disk,,6,14,-10,1,0,0,rectangle,14,-10,1,0,0,14,-10,1,0,0,1,53,213,102,1,,,,,,,,
,,,,,,,,,,,,,FF,,,,,,,,1.867,,,,,,,,,,,,,,,,,,,,,,6101a914523b50e7c767b00e,61036d9194c7d8bd8f5eab76,2021-07-29_23h10.41.255,Simcolourproject_2stim_asymm_v5,2020.2.10,MacIntel,60,61025ae37ef11b136ea224fe,,,,,,,,,1015,46,87,1,0,0,response1disk,,7,-7,-4,1,0,0,rectangle,-7,-4,1,0,0,-7,-4,1,0,0,1,54,214,32,1,,,,,,,,
,,,,,,,,,,,,,FF,,,,,,,,1.918,,,,,,,,,,,,,,,,,,,,,,6101a914523b50e7c767b00e,61036d9194c7d8bd8f5eab76,2021-07-29_23h10.41.255,Simcolourproject_2stim_asymm_v5,2020.2.10,MacIntel,60,61025ae37ef11b136ea224fe,,,,,,,,,1785,81,-31,1,0,0,response3disk,,5,3,-11,1,0,0,rectangle,3,-11,1,0,0,3,-11,1,0,0,1,55,215,148,1,,,,,,,,
,,,,,,,,,,,,,FF,,,,,,,,1.25,,,,,,,,,,,,,,,,,,,,,,6101a914523b50e7c767b00e,61036d9194c7d8bd8f5eab76,2021-07-29_23h10.41.255,Simcolourproject_2stim_asymm_v5,2020.2.10,MacIntel,60,61025ae37ef11b136ea224fe,,,,,,,,,3193,80,35,1,0,0,response1disk,,6,17,15,1,0,0,rectangle,17,15,1,0,0,17,15,1,0,0,1,56,216,1,1,,,,,,,,
,,,,,,,,,,,,,FF,,,,,,,,0.701,,,,,,,,,,,,,,,,,,,,,,6101a914523b50e7c767b00e,61036d9194c7d8bd8f5eab76,2021-07-29_23h10.41.255,Simcolourproject_2stim_asymm_v5,2020.2.10,MacIntel,60,61025ae37ef11b136ea224fe,,,,,,,,,2264,31,77,1,0,0,response1disk,,7,11,6,1,0,0,rectangle,-66,-35,1,0,0,-9,-4,1,0,0,1,57,217,46,1,,response5disk_3,TRUE,2,2,"[196,206,132,251,39,221,181,296,218,252,199,317,57,223,42,205,83,64,141,43]",2.033,rectangle
,,,,,,,,,,,,,FF,,,,,,,,0.749,,,,,,,,,,,,,,,,,,,,,,6101a914523b50e7c767b00e,61036d9194c7d8bd8f5eab76,2021-07-29_23h10.41.255,Simcolourproject_2stim_asymm_v5,2020.2.10,MacIntel,60,61025ae37ef11b136ea224fe,,,,,,,,,1427,60,35,1,0,0,response1disk,,6,0,-5,1,0,0,rectangle,0,-5,1,0,0,0,-5,1,0,0,1,58,218,155,1,,,,,,,,
,,,,,,,,,,,,,FF,,,,,,,,1.183,,,,,,,,,,,,,,,,,,,,,,6101a914523b50e7c767b00e,61036d9194c7d8bd8f5eab76,2021-07-29_23h10.41.255,Simcolourproject_2stim_asymm_v5,2020.2.10,MacIntel,60,61025ae37ef11b136ea224fe,,,,,,,,,1661,77,46,1,0,0,response1disk,,6,-8,-3,1,0,0,rectangle,-8,-3,1,0,0,-8,-3,1,0,0,1,59,219,156,1,,,,,,,,
,,,,,,,,,,,,,FF,,,,,,,,1.001,,,,,,,,,,,,,,,,,,,,,,6101a914523b50e7c767b00e,61036d9194c7d8bd8f5eab76,2021-07-29_23h10.41.255,Simcolourproject_2stim_asymm_v5,2020.2.10,MacIntel,60,61025ae37ef11b136ea224fe,,,,,,,,,972,43,76,1,0,0,response1disk,,7,20,3,1,0,0,rectangle,72,-30,1,0,0,1,1,1,0,0,1,60,220,147,1,,response3disk_3,TRUE,5,5,"[196,206,132,251,39,221,181,296,218,252,199,317,57,223,42,205,83,64,141,43]",1.865,rectangle
,,,,,,,,,,,,,FF,,,,,,,,0.933,,,,,,,,,,,,,,,,,,,,,,6101a914523b50e7c767b00e,61036d9194c7d8bd8f5eab76,2021-07-29_23h10.41.255,Simcolourproject_2stim_asymm_v5,2020.2.10,MacIntel,60,61025ae37ef11b136ea224fe,,,,,,,,,975,66,41,1,0,0,response1disk,,6,24,5,1,0,0,rectangle,24,5,1,0,0,24,5,1,0,0,1,61,221,4,1,,,,,,,,
,,,,,,,,,,,,,FF,,,,,,,,0.75,,,,,,,,,,,,,,,,,,,,,,6101a914523b50e7c767b00e,61036d9194c7d8bd8f5eab76,2021-07-29_23h10.41.255,Simcolourproject_2stim_asymm_v5,2020.2.10,MacIntel,60,61025ae37ef11b136ea224fe,,,,,,,,,2145,38,78,1,0,0,response1disk,,7,9,6,1,0,0,rectangle,-68,-24,1,0,0,-1,3,1,0,0,1,62,222,140,1,,response5disk_3,TRUE,2,2,"[196,206,132,251,39,221,181,296,218,252,199,317,57,223,42,205,83,64,141,43]",2.016,rectangle
,,,,,,,,,,,,,FF,,,,,,,,5.101,,,,,,,,,,,,,,,,,,,,,,6101a914523b50e7c767b00e,61036d9194c7d8bd8f5eab76,2021-07-29_23h10.41.255,Simcolourproject_2stim_asymm_v5,2020.2.10,MacIntel,60,61025ae37ef11b136ea224fe,,,,,,,,,1751,-84,-56,1,0,0,response5disk,,2,1,2,1,0,0,rectangle,1,2,1,0,0,1,2,1,0,0,1,63,223,9,1,,,,,,,,
,,,,,,,,,,,,,FF,,,,,,,,0.683,,,,,,,,,,,,,,,,,,,,,,6101a914523b50e7c767b00e,61036d9194c7d8bd8f5eab76,2021-07-29_23h10.41.255,Simcolourproject_2stim_asymm_v5,2020.2.10,MacIntel,60,61025ae37ef11b136ea224fe,,,,,,,,,4136,68,79,1,0,0,response1disk,,7,-2,-2,1,0,0,rectangle,-2,-2,1,0,0,-2,-2,1,0,0,1,64,224,138,1,,,,,,,,
,,,,,,,,,,,,,FF,,,,,,,,0.817,,,,,,,,,,,,,,,,,,,,,,6101a914523b50e7c767b00e,61036d9194c7d8bd8f5eab76,2021-07-29_23h10.41.255,Simcolourproject_2stim_asymm_v5,2020.2.10,MacIntel,60,61025ae37ef11b136ea224fe,,,,,,,,,4073,83,48,1,0,0,response1disk,,6,15,11,1,0,0,rectangle,15,11,1,0,0,15,11,1,0,0,1,65,225,48,1,,,,,,,,
,,,,,,,,,,,,,FF,,,,,,,,0.582,,,,,,,,,,,,,,,,,,,,,,6101a914523b50e7c767b00e,61036d9194c7d8bd8f5eab76,2021-07-29_23h10.41.255,Simcolourproject_2stim_asymm_v5,2020.2.10,MacIntel,60,61025ae37ef11b136ea224fe,,,,,,,,,2168,30,72,1,0,0,response1disk,,7,0,8,1,0,0,rectangle,0,8,1,0,0,0,8,1,0,0,1,66,226,108,1,,,,,,,,
,,,,,,,,,,,,,FF,,,,,,,,0.6,,,,,,,,,,,,,,,,,,,,,,6101a914523b50e7c767b00e,61036d9194c7d8bd8f5eab76,2021-07-29_23h10.41.255,Simcolourproject_2stim_asymm_v5,2020.2.10,MacIntel,60,61025ae37ef11b136ea224fe,,,,,,,,,2207,35,87,1,0,0,response1disk,,7,2,13,1,0,0,rectangle,2,13,1,0,0,2,13,1,0,0,1,67,227,74,1,,,,,,,,
,,,,,,,,,,,,,FF,,,,,,,,0.732,,,,,,,,,,,,,,,,,,,,,,6101a914523b50e7c767b00e,61036d9194c7d8bd8f5eab76,2021-07-29_23h10.41.255,Simcolourproject_2stim_asymm_v5,2020.2.10,MacIntel,60,61025ae37ef11b136ea224fe,,,,,,,,,2007,40,75,1,0,0,response1disk,,7,-3,-3,1,0,0,rectangle,-3,-3,1,0,0,-3,-3,1,0,0,1,68,228,90,1,,,,,,,,
,,,,,,,,,,,,,FF,,,,,,,,1.649,,,,,,,,,,,,,,,,,,,,,,6101a914523b50e7c767b00e,61036d9194c7d8bd8f5eab76,2021-07-29_23h10.41.255,Simcolourproject_2stim_asymm_v5,2020.2.10,MacIntel,60,61025ae37ef11b136ea224fe,,,,,,,,,2300,82,-54,1,0,0,response3disk,,5,-9,-2,1,0,0,rectangle,-9,-2,1,0,0,-9,-2,1,0,0,1,69,229,18,1,,,,,,,,
,,,,,,,,,,,,,FF,,,,,,,,0.718,,,,,,,,,,,,,,,,,,,,,,6101a914523b50e7c767b00e,61036d9194c7d8bd8f5eab76,2021-07-29_23h10.41.255,Simcolourproject_2stim_asymm_v5,2020.2.10,MacIntel,60,61025ae37ef11b136ea224fe,,,,,,,,,1198,19,83,1,0,0,response1disk,,7,8,-3,1,0,0,rectangle,8,-3,1,0,0,8,-3,1,0,0,1,70,230,7,1,,,,,,,,
,,,,,,,,,,,,,FF,,,,,,,,1.249,,,,,,,,,,,,,,,,,,,,,,6101a914523b50e7c767b00e,61036d9194c7d8bd8f5eab76,2021-07-29_23h10.41.255,Simcolourproject_2stim_asymm_v5,2020.2.10,MacIntel,60,61025ae37ef11b136ea224fe,,,,,,,,,3807,18,69,1,0,0,response1disk,,7,1,11,1,0,0,rectangle,1,11,1,0,0,1,11,1,0,0,1,71,231,150,1,,,,,,,,
,,,,,,,,,,,,,FF,,,,,,,,0.517,,,,,,,,,,,,,,,,,,,,,,6101a914523b50e7c767b00e,61036d9194c7d8bd8f5eab76,2021-07-29_23h10.41.255,Simcolourproject_2stim_asymm_v5,2020.2.10,MacIntel,60,61025ae37ef11b136ea224fe,,,,,,,,,1646,25,63,1,0,0,response1disk,,7,-6,6,1,0,0,rectangle,-6,6,1,0,0,-6,6,1,0,0,1,72,232,84,1,,,,,,,,
,,,,,,,,,,,,,FF,,,,,,,,0.533,,,,,,,,,,,,,,,,,,,,,,6101a914523b50e7c767b00e,61036d9194c7d8bd8f5eab76,2021-07-29_23h10.41.255,Simcolourproject_2stim_asymm_v5,2020.2.10,MacIntel,60,61025ae37ef11b136ea224fe,,,,,,,,,2382,26,58,1,0,0,response1disk,,7,-8,4,1,0,0,rectangle,-8,4,1,0,0,-8,4,1,0,0,1,73,233,55,1,,,,,,,,
,,,,,,,,,,,,,FF,,,,,,,,0.684,,,,,,,,,,,,,,,,,,,,,,6101a914523b50e7c767b00e,61036d9194c7d8bd8f5eab76,2021-07-29_23h10.41.255,Simcolourproject_2stim_asymm_v5,2020.2.10,MacIntel,60,61025ae37ef11b136ea224fe,,,,,,,,,1946,27,76,1,0,0,response1disk,,7,-14,8,1,0,0,rectangle,-14,8,1,0,0,-14,8,1,0,0,1,74,234,95,1,,,,,,,,
,,,,,,,,,,,,,FF,,,,,,,,0.95,,,,,,,,,,,,,,,,,,,,,,6101a914523b50e7c767b00e,61036d9194c7d8bd8f5eab76,2021-07-29_23h10.41.255,Simcolourproject_2stim_asymm_v5,2020.2.10,MacIntel,60,61025ae37ef11b136ea224fe,,,,,,,,,1426,67,49,1,0,0,response1disk,,6,-4,-3,1,0,0,rectangle,-4,-3,1,0,0,-4,-3,1,0,0,1,75,235,85,1,,,,,,,,
,,,,,,,,,,,,,FF,,,,,,,,0.8,,,,,,,,,,,,,,,,,,,,,,6101a914523b50e7c767b00e,61036d9194c7d8bd8f5eab76,2021-07-29_23h10.41.255,Simcolourproject_2stim_asymm_v5,2020.2.10,MacIntel,60,61025ae37ef11b136ea224fe,,,,,,,,,2387,87,44,1,0,0,response1disk,,6,12,-5,1,0,0,rectangle,12,-5,1,0,0,12,-5,1,0,0,1,76,236,45,1,,,,,,,,
,,,,,,,,,,,,,FF,,,,,,,,1.968,,,,,,,,,,,,,,,,,,,,,,6101a914523b50e7c767b00e,61036d9194c7d8bd8f5eab76,2021-07-29_23h10.41.255,Simcolourproject_2stim_asymm_v5,2020.2.10,MacIntel,60,61025ae37ef11b136ea224fe,,,,,,,,,3852,62,34,1,0,0,response1disk,,6,-1,10,1,0,0,rectangle,-1,10,1,0,0,-1,10,1,0,0,1,77,237,73,1,,,,,,,,
,,,,,,,,,,,,,FF,,,,,,,,0.983,,,,,,,,,,,,,,,,,,,,,,6101a914523b50e7c767b00e,61036d9194c7d8bd8f5eab76,2021-07-29_23h10.41.255,Simcolourproject_2stim_asymm_v5,2020.2.10,MacIntel,60,61025ae37ef11b136ea224fe,,,,,,,,,1286,72,-28,1,0,0,response3disk,,5,10,10,1,0,0,rectangle,10,10,1,0,0,10,10,1,0,0,1,78,238,77,1,,,,,,,,
,,,,,,,,,,,,,FF,,,,,,,,1.083,,,,,,,,,,,,,,,,,,,,,,6101a914523b50e7c767b00e,61036d9194c7d8bd8f5eab76,2021-07-29_23h10.41.255,Simcolourproject_2stim_asymm_v5,2020.2.10,MacIntel,60,61025ae37ef11b136ea224fe,,,,,,,,,1446,60,31,1,0,0,response1disk,,6,6,-1,1,0,0,rectangle,6,-1,1,0,0,6,-1,1,0,0,1,79,239,120,1,,,,,,,,
,,,,,,,,,,,,,FF,,,,,,,,1.167,,,,,,,,,,,,,,,,,,,,,,6101a914523b50e7c767b00e,61036d9194c7d8bd8f5eab76,2021-07-29_23h10.41.255,Simcolourproject_2stim_asymm_v5,2020.2.10,MacIntel,60,61025ae37ef11b136ea224fe,,,,,,,,,624,82,-45,1,0,0,response3disk,,5,19,-13,1,0,0,rectangle,19,-13,1,0,0,19,-13,1,0,0,1,80,240,141,1,,,,,,,,
,,,,,,,,,,,,,FF,,,,,,,,0.649,,,,,,,,,,,,,,,,,,,,,,6101a914523b50e7c767b00e,61036d9194c7d8bd8f5eab76,2021-07-29_23h10.41.255,Simcolourproject_2stim_asymm_v5,2020.2.10,MacIntel,60,61025ae37ef11b136ea224fe,,,,,,,,,3858,31,39,1,0,0,response1disk,,7,11,7,1,0,0,rectangle,11,7,1,0,0,11,7,1,0,0,1,81,241,52,1,,,,,,,,
,,,,,,,,,,,,,FF,,,,,,,,0.966,,,,,,,,,,,,,,,,,,,,,,6101a914523b50e7c767b00e,61036d9194c7d8bd8f5eab76,2021-07-29_23h10.41.255,Simcolourproject_2stim_asymm_v5,2020.2.10,MacIntel,60,61025ae37ef11b136ea224fe,,,,,,,,,1167,22,56,1,0,0,response1disk,,7,5,-1,1,0,0,rectangle,5,-1,1,0,0,5,-1,1,0,0,1,82,242,86,1,,,,,,,,
,,,,,,,,,,,,,FF,,,,,,,,0.583,,,,,,,,,,,,,,,,,,,,,,6101a914523b50e7c767b00e,61036d9194c7d8bd8f5eab76,2021-07-29_23h10.41.255,Simcolourproject_2stim_asymm_v5,2020.2.10,MacIntel,60,61025ae37ef11b136ea224fe,,,,,,,,,993,63,41,1,0,0,response1disk,,6,3,9,1,0,0,rectangle,3,9,1,0,0,3,9,1,0,0,1,83,243,26,1,,,,,,,,
,,,,,,,,,,,,,FF,,,,,,,,1.249,,,,,,,,,,,,,,,,,,,,,,6101a914523b50e7c767b00e,61036d9194c7d8bd8f5eab76,2021-07-29_23h10.41.255,Simcolourproject_2stim_asymm_v5,2020.2.10,MacIntel,60,61025ae37ef11b136ea224fe,,,,,,,,,2586,58,23,1,0,0,response1disk,,6,-15,3,1,0,0,rectangle,-15,3,1,0,0,-15,3,1,0,0,1,84,244,3,1,,,,,,,,
,,,,,,,,,,,,,FF,,,,,,,,1.451,,,,,,,,,,,,,,,,,,,,,,6101a914523b50e7c767b00e,61036d9194c7d8bd8f5eab76,2021-07-29_23h10.41.255,Simcolourproject_2stim_asymm_v5,2020.2.10,MacIntel,60,61025ae37ef11b136ea224fe,,,,,,,,,4147,-27,-79,1,0,0,response5disk,,3,-1,2,1,0,0,rectangle,-1,2,1,0,0,-1,2,1,0,0,1,85,245,31,1,,,,,,,,
,,,,,,,,,,,,,FF,,,,,,,,1.55,,,,,,,,,,,,,,,,,,,,,,6101a914523b50e7c767b00e,61036d9194c7d8bd8f5eab76,2021-07-29_23h10.41.255,Simcolourproject_2stim_asymm_v5,2020.2.10,MacIntel,60,61025ae37ef11b136ea224fe,,,,,,,,,3923,88,-41,1,0,0,response3disk,,5,12,2,1,0,0,rectangle,12,2,1,0,0,12,2,1,0,0,1,86,246,12,1,,,,,,,,
,,,,,,,,,,,,,FF,,,,,,,,0.767,,,,,,,,,,,,,,,,,,,,,,6101a914523b50e7c767b00e,61036d9194c7d8bd8f5eab76,2021-07-29_23h10.41.255,Simcolourproject_2stim_asymm_v5,2020.2.10,MacIntel,60,61025ae37ef11b136ea224fe,,,,,,,,,2645,46,63,1,0,0,response1disk,,7,9,2,1,0,0,rectangle,9,2,1,0,0,9,2,1,0,0,1,87,247,64,1,,,,,,,,
,,,,,,,,,,,,,FF,,,,,,,,0.517,,,,,,,,,,,,,,,,,,,,,,6101a914523b50e7c767b00e,61036d9194c7d8bd8f5eab76,2021-07-29_23h10.41.255,Simcolourproject_2stim_asymm_v5,2020.2.10,MacIntel,60,61025ae37ef11b136ea224fe,,,,,,,,,3633,58,45,1,0,0,response1disk,,6,13,7,1,0,0,rectangle,13,7,1,0,0,13,7,1,0,0,1,88,248,57,1,,,,,,,,
,,,,,,,,,,,,,FF,,,,,,,,0.565,,,,,,,,,,,,,,,,,,,,,,6101a914523b50e7c767b00e,61036d9194c7d8bd8f5eab76,2021-07-29_23h10.41.255,Simcolourproject_2stim_asymm_v5,2020.2.10,MacIntel,60,61025ae37ef11b136ea224fe,,,,,,,,,2024,32,57,1,0,0,response1disk,,7,3,-8,1,0,0,rectangle,3,-8,1,0,0,3,-8,1,0,0,1,89,249,122,1,,,,,,,,
,,,,,,,,,,,,,FF,,,,,,,,0.6,,,,,,,,,,,,,,,,,,,,,,6101a914523b50e7c767b00e,61036d9194c7d8bd8f5eab76,2021-07-29_23h10.41.255,Simcolourproject_2stim_asymm_v5,2020.2.10,MacIntel,60,61025ae37ef11b136ea224fe,,,,,,,,,1768,68,41,1,0,0,response1disk,,6,9,11,1,0,0,rectangle,-50,63,1,0,0,0,5,1,0,0,1,90,250,40,1,,response7disk_3,TRUE,0,0,"[196,206,132,251,39,221,181,296,218,252,199,317,57,223,42,205,83,64,141,43]",1.766,rectangle
,,,,,,,,,,,,,FF,,,,,,,,0.915,,,,,,,,,,,,,,,,,,,,,,6101a914523b50e7c767b00e,61036d9194c7d8bd8f5eab76,2021-07-29_23h10.41.255,Simcolourproject_2stim_asymm_v5,2020.2.10,MacIntel,60,61025ae37ef11b136ea224fe,,,,,,,,,2553,42,92,1,0,0,response1disk,,7,13,12,1,0,0,rectangle,65,-42,1,0,0,5,14,1,0,0,1,91,251,92,1,,response3disk_3,TRUE,5,5,"[196,206,132,251,39,221,181,296,218,252,199,317,57,223,42,205,83,64,141,43]",2.116,rectangle
,,,,,,,,,,,,,FF,,,,,,,,0.999,,,,,,,,,,,,,,,,,,,,,,6101a914523b50e7c767b00e,61036d9194c7d8bd8f5eab76,2021-07-29_23h10.41.255,Simcolourproject_2stim_asymm_v5,2020.2.10,MacIntel,60,61025ae37ef11b136ea224fe,,,,,,,,,4169,71,47,1,0,0,response1disk,,6,0,2,1,0,0,rectangle,0,2,1,0,0,0,2,1,0,0,1,92,252,21,1,,,,,,,,
,,,,,,,,,,,,,FF,,,,,,,,0.733,,,,,,,,,,,,,,,,,,,,,,6101a914523b50e7c767b00e,61036d9194c7d8bd8f5eab76,2021-07-29_23h10.41.255,Simcolourproject_2stim_asymm_v5,2020.2.10,MacIntel,60,61025ae37ef11b136ea224fe,,,,,,,,,519,28,62,1,0,0,response1disk,,7,11,5,1,0,0,rectangle,11,5,1,0,0,11,5,1,0,0,1,93,253,103,1,,,,,,,,
,,,,,,,,,,,,,FF,,,,,,,,0.716,,,,,,,,,,,,,,,,,,,,,,6101a914523b50e7c767b00e,61036d9194c7d8bd8f5eab76,2021-07-29_23h10.41.255,Simcolourproject_2stim_asymm_v5,2020.2.10,MacIntel,60,61025ae37ef11b136ea224fe,,,,,,,,,3853,64,-31,1,0,0,response3disk,,5,12,-2,1,0,0,rectangle,12,-2,1,0,0,12,-2,1,0,0,1,94,254,28,1,,,,,,,,
,,,,,,,,,,,,,FF,,,,,,,,1.567,,,,,,,,,,,,,,,,,,,,,,6101a914523b50e7c767b00e,61036d9194c7d8bd8f5eab76,2021-07-29_23h10.41.255,Simcolourproject_2stim_asymm_v5,2020.2.10,MacIntel,60,61025ae37ef11b136ea224fe,,,,,,,,,1270,21,57,1,0,0,response1disk,,7,19,10,1,0,0,rectangle,19,10,1,0,0,19,10,1,0,0,1,95,255,113,1,,,,,,,,
,,,,,,,,,,,,,FF,,,,,,,,0.984,,,,,,,,,,,,,,,,,,,,,,6101a914523b50e7c767b00e,61036d9194c7d8bd8f5eab76,2021-07-29_23h10.41.255,Simcolourproject_2stim_asymm_v5,2020.2.10,MacIntel,60,61025ae37ef11b136ea224fe,,,,,,,,,2208,30,75,1,0,0,response1disk,,7,23,-7,1,0,0,rectangle,23,-7,1,0,0,23,-7,1,0,0,1,96,256,71,1,,,,,,,,
,,,,,,,,,,,,,FF,,,,,,,,0.849,,,,,,,,,,,,,,,,,,,,,,6101a914523b50e7c767b00e,61036d9194c7d8bd8f5eab76,2021-07-29_23h10.41.255,Simcolourproject_2stim_asymm_v5,2020.2.10,MacIntel,60,61025ae37ef11b136ea224fe,,,,,,,,,2074,71,-33,1,0,0,response3disk,,5,14,4,1,0,0,rectangle,14,4,1,0,0,14,4,1,0,0,1,97,257,62,1,,,,,,,,
,,,,,,,,,,,,,FF,,,,,,,,0.951,,,,,,,,,,,,,,,,,,,,,,6101a914523b50e7c767b00e,61036d9194c7d8bd8f5eab76,2021-07-29_23h10.41.255,Simcolourproject_2stim_asymm_v5,2020.2.10,MacIntel,60,61025ae37ef11b136ea224fe,,,,,,,,,3752,51,96,1,0,0,response1disk,,7,4,2,1,0,0,rectangle,4,2,1,0,0,4,2,1,0,0,1,98,258,157,1,,,,,,,,
,,,,,,,,,,,,,FF,,,,,,,,0.633,,,,,,,,,,,,,,,,,,,,,,6101a914523b50e7c767b00e,61036d9194c7d8bd8f5eab76,2021-07-29_23h10.41.255,Simcolourproject_2stim_asymm_v5,2020.2.10,MacIntel,60,61025ae37ef11b136ea224fe,,,,,,,,,1652,27,70,1,0,0,response1disk,,7,3,-3,1,0,0,rectangle,3,-3,1,0,0,3,-3,1,0,0,1,99,259,14,1,,,,,,,,
,,,,,,,,,,,,,FF,,,,,,,,0.9,,,,,,,,,,,,,,,,,,,,,,6101a914523b50e7c767b00e,61036d9194c7d8bd8f5eab76,2021-07-29_23h10.41.255,Simcolourproject_2stim_asymm_v5,2020.2.10,MacIntel,60,61025ae37ef11b136ea224fe,,,,,,,,,4067,34,-67,1,0,0,response3disk,,4,10,-3,1,0,0,rectangle,10,-3,1,0,0,10,-3,1,0,0,1,100,260,60,1,,,,,,,,
,,,,,,,,,,,,,FF,,,,,,,,0.484,,,,,,,,,,,,,,,,,,,,,,6101a914523b50e7c767b00e,61036d9194c7d8bd8f5eab76,2021-07-29_23h10.41.255,Simcolourproject_2stim_asymm_v5,2020.2.10,MacIntel,60,61025ae37ef11b136ea224fe,,,,,,,,,389,39,56,1,0,0,response1disk,,7,21,17,1,0,0,rectangle,21,17,1,0,0,21,17,1,0,0,1,101,261,6,1,,,,,,,,
,,,,,,,,,,,,,FF,,,,,,,,0.415,,,,,,,,,,,,,,,,,,,,,,6101a914523b50e7c767b00e,61036d9194c7d8bd8f5eab76,2021-07-29_23h10.41.255,Simcolourproject_2stim_asymm_v5,2020.2.10,MacIntel,60,61025ae37ef11b136ea224fe,,,,,,,,,2811,58,40,1,0,0,response1disk,,6,12,8,1,0,0,rectangle,12,8,1,0,0,12,8,1,0,0,1,102,262,124,1,,,,,,,,
,,,,,,,,,,,,,FF,,,,,,,,0.932,,,,,,,,,,,,,,,,,,,,,,6101a914523b50e7c767b00e,61036d9194c7d8bd8f5eab76,2021-07-29_23h10.41.255,Simcolourproject_2stim_asymm_v5,2020.2.10,MacIntel,60,61025ae37ef11b136ea224fe,,,,,,,,,2959,37,74,1,0,0,response1disk,,7,12,11,1,0,0,rectangle,12,11,1,0,0,12,11,1,0,0,1,103,263,13,1,,,,,,,,
,,,,,,,,,,,,,FF,,,,,,,,0.751,,,,,,,,,,,,,,,,,,,,,,6101a914523b50e7c767b00e,61036d9194c7d8bd8f5eab76,2021-07-29_23h10.41.255,Simcolourproject_2stim_asymm_v5,2020.2.10,MacIntel,60,61025ae37ef11b136ea224fe,,,,,,,,,3539,91,42,1,0,0,response1disk,,6,16,12,1,0,0,rectangle,16,12,1,0,0,16,12,1,0,0,1,104,264,110,1,,,,,,,,
,,,,,,,,,,,,,FF,,,,,,,,0.451,,,,,,,,,,,,,,,,,,,,,,6101a914523b50e7c767b00e,61036d9194c7d8bd8f5eab76,2021-07-29_23h10.41.255,Simcolourproject_2stim_asymm_v5,2020.2.10,MacIntel,60,61025ae37ef11b136ea224fe,,,,,,,,,3034,25,75,1,0,0,response1disk,,7,16,-4,1,0,0,rectangle,16,-4,1,0,0,16,-4,1,0,0,1,105,265,10,1,,,,,,,,
,,,,,,,,,,,,,FF,,,,,,,,0.667,,,,,,,,,,,,,,,,,,,,,,6101a914523b50e7c767b00e,61036d9194c7d8bd8f5eab76,2021-07-29_23h10.41.255,Simcolourproject_2stim_asymm_v5,2020.2.10,MacIntel,60,61025ae37ef11b136ea224fe,,,,,,,,,3346,70,48,1,0,0,response1disk,,6,-4,14,1,0,0,rectangle,-4,14,1,0,0,-4,14,1,0,0,1,106,266,134,1,,,,,,,,
,,,,,,,,,,,,,FF,,,,,,,,1.451,,,,,,,,,,,,,,,,,,,,,,6101a914523b50e7c767b00e,61036d9194c7d8bd8f5eab76,2021-07-29_23h10.41.255,Simcolourproject_2stim_asymm_v5,2020.2.10,MacIntel,60,61025ae37ef11b136ea224fe,,,,,,,,,2244,43,-66,1,0,0,response3disk,,4,16,7,1,0,0,rectangle,16,7,1,0,0,16,7,1,0,0,1,107,267,151,1,,,,,,,,
,,,,,,,,,,,,,FF,,,,,,,,1.451,,,,,,,,,,,,,,,,,,,,,,6101a914523b50e7c767b00e,61036d9194c7d8bd8f5eab76,2021-07-29_23h10.41.255,Simcolourproject_2stim_asymm_v5,2020.2.10,MacIntel,60,61025ae37ef11b136ea224fe,,,,,,,,,669,39,-88,1,0,0,response3disk,,4,18,-10,1,0,0,rectangle,18,-10,1,0,0,18,-10,1,0,0,1,108,268,44,1,,,,,,,,
,,,,,,,,,,,,,FF,,,,,,,,0.716,,,,,,,,,,,,,,,,,,,,,,6101a914523b50e7c767b00e,61036d9194c7d8bd8f5eab76,2021-07-29_23h10.41.255,Simcolourproject_2stim_asymm_v5,2020.2.10,MacIntel,60,61025ae37ef11b136ea224fe,,,,,,,,,1775,-24,-74,1,0,0,response5disk,,3,-7,-10,1,0,0,rectangle,-7,-10,1,0,0,-7,-10,1,0,0,1,109,269,125,1,,,,,,,,
,,,,,,,,,,,,,FF,,,,,,,,0.984,,,,,,,,,,,,,,,,,,,,,,6101a914523b50e7c767b00e,61036d9194c7d8bd8f5eab76,2021-07-29_23h10.41.255,Simcolourproject_2stim_asymm_v5,2020.2.10,MacIntel,60,61025ae37ef11b136ea224fe,,,,,,,,,394,36,62,1,0,0,response1disk,,7,5,12,1,0,0,rectangle,5,12,1,0,0,5,12,1,0,0,1,110,270,143,1,,,,,,,,
,,,,,,,,,,,,,FF,,,,,,,,1.318,,,,,,,,,,,,,,,,,,,,,,6101a914523b50e7c767b00e,61036d9194c7d8bd8f5eab76,2021-07-29_23h10.41.255,Simcolourproject_2stim_asymm_v5,2020.2.10,MacIntel,60,61025ae37ef11b136ea224fe,,,,,,,,,4266,-41,76,1,0,0,response7disk,,0,-5,2,1,0,0,rectangle,-5,2,1,0,0,-5,2,1,0,0,1,111,271,119,1,,,,,,,,
,,,,,,,,,,,,,FF,,,,,,,,1.484,,,,,,,,,,,,,,,,,,,,,,6101a914523b50e7c767b00e,61036d9194c7d8bd8f5eab76,2021-07-29_23h10.41.255,Simcolourproject_2stim_asymm_v5,2020.2.10,MacIntel,60,61025ae37ef11b136ea224fe,,,,,,,,,3292,77,-32,1,0,0,response3disk,,5,-7,7,1,0,0,rectangle,-7,7,1,0,0,-7,7,1,0,0,1,112,272,20,1,,,,,,,,
,,,,,,,,,,,,,FF,,,,,,,,1.067,,,,,,,,,,,,,,,,,,,,,,6101a914523b50e7c767b00e,61036d9194c7d8bd8f5eab76,2021-07-29_23h10.41.255,Simcolourproject_2stim_asymm_v5,2020.2.10,MacIntel,60,61025ae37ef11b136ea224fe,,,,,,,,,1119,25,77,1,0,0,response1disk,,7,4,-7,1,0,0,rectangle,4,-7,1,0,0,4,-7,1,0,0,1,113,273,36,1,,,,,,,,
,,,,,,,,,,,,,FF,,,,,,,,0.9,,,,,,,,,,,,,,,,,,,,,,6101a914523b50e7c767b00e,61036d9194c7d8bd8f5eab76,2021-07-29_23h10.41.255,Simcolourproject_2stim_asymm_v5,2020.2.10,MacIntel,60,61025ae37ef11b136ea224fe,,,,,,,,,2557,26,79,1,0,0,response1disk,,7,5,16,1,0,0,rectangle,5,16,1,0,0,5,16,1,0,0,1,114,274,126,1,,,,,,,,
,,,,,,,,,,,,,FF,,,,,,,,1.499,,,,,,,,,,,,,,,,,,,,,,6101a914523b50e7c767b00e,61036d9194c7d8bd8f5eab76,2021-07-29_23h10.41.255,Simcolourproject_2stim_asymm_v5,2020.2.10,MacIntel,60,61025ae37ef11b136ea224fe,,,,,,,,,3518,90,-43,1,0,0,response3disk,,5,-1,1,1,0,0,rectangle,-1,1,1,0,0,-1,1,1,0,0,1,115,275,65,1,,,,,,,,
,,,,,,,,,,,,,FF,,,,,,,,0.949,,,,,,,,,,,,,,,,,,,,,,6101a914523b50e7c767b00e,61036d9194c7d8bd8f5eab76,2021-07-29_23h10.41.255,Simcolourproject_2stim_asymm_v5,2020.2.10,MacIntel,60,61025ae37ef11b136ea224fe,,,,,,,,,716,-84,44,1,0,0,response7disk,,1,-7,5,1,0,0,rectangle,-7,5,1,0,0,-7,5,1,0,0,1,116,276,56,1,,,,,,,,
,,,,,,,,,,,,,FF,,,,,,,,1.601,,,,,,,,,,,,,,,,,,,,,,6101a914523b50e7c767b00e,61036d9194c7d8bd8f5eab76,2021-07-29_23h10.41.255,Simcolourproject_2stim_asymm_v5,2020.2.10,MacIntel,60,61025ae37ef11b136ea224fe,,,,,,,,,2753,32,-82,1,0,0,response3disk,,4,-8,8,1,0,0,rectangle,-8,8,1,0,0,-8,8,1,0,0,1,117,277,54,1,,,,,,,,
,,,,,,,,,,,,,FF,,,,,,,,0.915,,,,,,,,,,,,,,,,,,,,,,6101a914523b50e7c767b00e,61036d9194c7d8bd8f5eab76,2021-07-29_23h10.41.255,Simcolourproject_2stim_asymm_v5,2020.2.10,MacIntel,60,61025ae37ef11b136ea224fe,,,,,,,,,2976,60,37,1,0,0,response1disk,,6,16,-3,1,0,0,rectangle,16,-3,1,0,0,16,-3,1,0,0,1,118,278,42,1,,,,,,,,
,,,,,,,,,,,,,FF,,,,,,,,0.983,,,,,,,,,,,,,,,,,,,,,,6101a914523b50e7c767b00e,61036d9194c7d8bd8f5eab76,2021-07-29_23h10.41.255,Simcolourproject_2stim_asymm_v5,2020.2.10,MacIntel,60,61025ae37ef11b136ea224fe,,,,,,,,,1076,22,50,1,0,0,response1disk,,7,5,8,1,0,0,rectangle,5,8,1,0,0,5,8,1,0,0,1,119,279,34,1,,,,,,,,
,,,,,,,,,,,,,FF,,,,,,,,1.4,,,,,,,,,,,,,,,,,,,,,,6101a914523b50e7c767b00e,61036d9194c7d8bd8f5eab76,2021-07-29_23h10.41.255,Simcolourproject_2stim_asymm_v5,2020.2.10,MacIntel,60,61025ae37ef11b136ea224fe,,,,,,,,,524,18,50,1,0,0,response1disk,,7,4,8,1,0,0,rectangle,4,8,1,0,0,4,8,1,0,0,1,120,280,111,1,,,,,,,,
,,,,,,,,,,,,,FF,,,,,,,,0.718,,,,,,,,,,,,,,,,,,,,,,6101a914523b50e7c767b00e,61036d9194c7d8bd8f5eab76,2021-07-29_23h10.41.255,Simcolourproject_2stim_asymm_v5,2020.2.10,MacIntel,60,61025ae37ef11b136ea224fe,,,,,,,,,3948,34,62,1,0,0,response1disk,,7,1,8,1,0,0,rectangle,1,8,1,0,0,1,8,1,0,0,1,121,281,154,1,,,,,,,,
,,,,,,,,,,,,,FF,,,,,,,,0.5,,,,,,,,,,,,,,,,,,,,,,6101a914523b50e7c767b00e,61036d9194c7d8bd8f5eab76,2021-07-29_23h10.41.255,Simcolourproject_2stim_asymm_v5,2020.2.10,MacIntel,60,61025ae37ef11b136ea224fe,,,,,,,,,515,24,49,1,0,0,response1disk,,7,-2,4,1,0,0,rectangle,-2,4,1,0,0,-2,4,1,0,0,1,122,282,114,1,,,,,,,,
,,,,,,,,,,,,,FF,,,,,,,,1.167,,,,,,,,,,,,,,,,,,,,,,6101a914523b50e7c767b00e,61036d9194c7d8bd8f5eab76,2021-07-29_23h10.41.255,Simcolourproject_2stim_asymm_v5,2020.2.10,MacIntel,60,61025ae37ef11b136ea224fe,,,,,,,,,3496,60,-35,1,0,0,response3disk,,5,11,-3,1,0,0,rectangle,11,-3,1,0,0,11,-3,1,0,0,1,123,283,69,1,,,,,,,,
,,,,,,,,,,,,,FF,,,,,,,,0.9,,,,,,,,,,,,,,,,,,,,,,6101a914523b50e7c767b00e,61036d9194c7d8bd8f5eab76,2021-07-29_23h10.41.255,Simcolourproject_2stim_asymm_v5,2020.2.10,MacIntel,60,61025ae37ef11b136ea224fe,,,,,,,,,1872,29,-65,1,0,0,response3disk,,4,10,-2,1,0,0,rectangle,10,-2,1,0,0,10,-2,1,0,0,1,124,284,59,1,,,,,,,,
,,,,,,,,,,,,,FF,,,,,,,,0.75,,,,,,,,,,,,,,,,,,,,,,6101a914523b50e7c767b00e,61036d9194c7d8bd8f5eab76,2021-07-29_23h10.41.255,Simcolourproject_2stim_asymm_v5,2020.2.10,MacIntel,60,61025ae37ef11b136ea224fe,,,,,,,,,2439,37,94,1,0,0,response1disk,,7,0,-1,1,0,0,rectangle,0,-1,1,0,0,0,-1,1,0,0,1,125,285,115,1,,,,,,,,
,,,,,,,,,,,,,FF,,,,,,,,0.682,,,,,,,,,,,,,,,,,,,,,,6101a914523b50e7c767b00e,61036d9194c7d8bd8f5eab76,2021-07-29_23h10.41.255,Simcolourproject_2stim_asymm_v5,2020.2.10,MacIntel,60,61025ae37ef11b136ea224fe,,,,,,,,,4129,32,84,1,0,0,response1disk,,7,-3,6,1,0,0,rectangle,-3,6,1,0,0,-3,6,1,0,0,1,126,286,96,1,,,,,,,,
,,,,,,,,,,,,,FF,,,,,,,,1.116,,,,,,,,,,,,,,,,,,,,,,6101a914523b50e7c767b00e,61036d9194c7d8bd8f5eab76,2021-07-29_23h10.41.255,Simcolourproject_2stim_asymm_v5,2020.2.10,MacIntel,60,61025ae37ef11b136ea224fe,,,,,,,,,2979,23,48,1,0,0,response1disk,,7,3,0,1,0,0,rectangle,3,0,1,0,0,3,0,1,0,0,1,127,287,88,1,,,,,,,,
,,,,,,,,,,,,,FF,,,,,,,,1.383,,,,,,,,,,,,,,,,,,,,,,6101a914523b50e7c767b00e,61036d9194c7d8bd8f5eab76,2021-07-29_23h10.41.255,Simcolourproject_2stim_asymm_v5,2020.2.10,MacIntel,60,61025ae37ef11b136ea224fe,,,,,,,,,220,70,-30,1,0,0,response3disk,,5,20,4,1,0,0,rectangle,20,4,1,0,0,20,4,1,0,0,1,128,288,47,1,,,,,,,,
,,,,,,,,,,,,,FF,,,,,,,,0.984,,,,,,,,,,,,,,,,,,,,,,6101a914523b50e7c767b00e,61036d9194c7d8bd8f5eab76,2021-07-29_23h10.41.255,Simcolourproject_2stim_asymm_v5,2020.2.10,MacIntel,60,61025ae37ef11b136ea224fe,,,,,,,,,2900,51,-80,1,0,0,response3disk,,4,13,2,1,0,0,rectangle,13,2,1,0,0,13,2,1,0,0,1,129,289,153,1,,,,,,,,
,,,,,,,,,,,,,FF,,,,,,,,1.383,,,,,,,,,,,,,,,,,,,,,,6101a914523b50e7c767b00e,61036d9194c7d8bd8f5eab76,2021-07-29_23h10.41.255,Simcolourproject_2stim_asymm_v5,2020.2.10,MacIntel,60,61025ae37ef11b136ea224fe,,,,,,,,,1435,28,70,1,0,0,response1disk,,7,-9,5,1,0,0,rectangle,-9,5,1,0,0,-9,5,1,0,0,1,130,290,133,1,,,,,,,,
,,,,,,,,,,,,,FF,,,,,,,,0.733,,,,,,,,,,,,,,,,,,,,,,6101a914523b50e7c767b00e,61036d9194c7d8bd8f5eab76,2021-07-29_23h10.41.255,Simcolourproject_2stim_asymm_v5,2020.2.10,MacIntel,60,61025ae37ef11b136ea224fe,,,,,,,,,3525,25,60,1,0,0,response1disk,,7,7,6,1,0,0,rectangle,7,6,1,0,0,7,6,1,0,0,1,131,291,130,1,,,,,,,,
,,,,,,,,,,,,,FF,,,,,,,,0.7,,,,,,,,,,,,,,,,,,,,,,6101a914523b50e7c767b00e,61036d9194c7d8bd8f5eab76,2021-07-29_23h10.41.255,Simcolourproject_2stim_asymm_v5,2020.2.10,MacIntel,60,61025ae37ef11b136ea224fe,,,,,,,,,980,28,62,1,0,0,response1disk,,7,-1,0,1,0,0,rectangle,-1,0,1,0,0,-1,0,1,0,0,1,132,292,63,1,,,,,,,,
,,,,,,,,,,,,,FF,,,,,,,,0.667,,,,,,,,,,,,,,,,,,,,,,6101a914523b50e7c767b00e,61036d9194c7d8bd8f5eab76,2021-07-29_23h10.41.255,Simcolourproject_2stim_asymm_v5,2020.2.10,MacIntel,60,61025ae37ef11b136ea224fe,,,,,,,,,1666,22,53,1,0,0,response1disk,,7,5,-1,1,0,0,rectangle,5,-1,1,0,0,5,-1,1,0,0,1,133,293,25,1,,,,,,,,
,,,,,,,,,,,,,FF,,,,,,,,0.801,,,,,,,,,,,,,,,,,,,,,,6101a914523b50e7c767b00e,61036d9194c7d8bd8f5eab76,2021-07-29_23h10.41.255,Simcolourproject_2stim_asymm_v5,2020.2.10,MacIntel,60,61025ae37ef11b136ea224fe,,,,,,,,,837,27,62,1,0,0,response1disk,,7,8,4,1,0,0,rectangle,8,4,1,0,0,8,4,1,0,0,1,134,294,78,1,,,,,,,,
,,,,,,,,,,,,,FF,,,,,,,,0.699,,,,,,,,,,,,,,,,,,,,,,6101a914523b50e7c767b00e,61036d9194c7d8bd8f5eab76,2021-07-29_23h10.41.255,Simcolourproject_2stim_asymm_v5,2020.2.10,MacIntel,60,61025ae37ef11b136ea224fe,,,,,,,,,2755,33,60,1,0,0,response1disk,,7,7,16,1,0,0,rectangle,31,-58,1,0,0,10,10,1,0,0,1,135,295,123,1,,response3disk_3,TRUE,4,4,"[196,206,132,251,39,221,181,296,218,252,199,317,57,223,42,205,83,64,141,43]",1.699,rectangle
,,,,,,,,,,,,,FF,,,,,,,,0.966,,,,,,,,,,,,,,,,,,,,,,6101a914523b50e7c767b00e,61036d9194c7d8bd8f5eab76,2021-07-29_23h10.41.255,Simcolourproject_2stim_asymm_v5,2020.2.10,MacIntel,60,61025ae37ef11b136ea224fe,,,,,,,,,1398,38,-62,1,0,0,response3disk,,4,24,-13,1,0,0,rectangle,24,-13,1,0,0,24,-13,1,0,0,1,136,296,104,1,,,,,,,,
,,,,,,,,,,,,,FF,,,,,,,,0.567,,,,,,,,,,,,,,,,,,,,,,6101a914523b50e7c767b00e,61036d9194c7d8bd8f5eab76,2021-07-29_23h10.41.255,Simcolourproject_2stim_asymm_v5,2020.2.10,MacIntel,60,61025ae37ef11b136ea224fe,,,,,,,,,1876,20,44,1,0,0,response1disk,,7,8,-5,1,0,0,rectangle,8,-5,1,0,0,8,-5,1,0,0,1,137,297,22,1,,,,,,,,
,,,,,,,,,,,,,FF,,,,,,,,0.567,,,,,,,,,,,,,,,,,,,,,,6101a914523b50e7c767b00e,61036d9194c7d8bd8f5eab76,2021-07-29_23h10.41.255,Simcolourproject_2stim_asymm_v5,2020.2.10,MacIntel,60,61025ae37ef11b136ea224fe,,,,,,,,,2150,22,48,1,0,0,response1disk,,7,9,6,1,0,0,rectangle,9,6,1,0,0,9,6,1,0,0,1,138,298,0,1,,,,,,,,
,,,,,,,,,,,,,FF,,,,,,,,0.616,,,,,,,,,,,,,,,,,,,,,,6101a914523b50e7c767b00e,61036d9194c7d8bd8f5eab76,2021-07-29_23h10.41.255,Simcolourproject_2stim_asymm_v5,2020.2.10,MacIntel,60,61025ae37ef11b136ea224fe,,,,,,,,,1149,37,68,1,0,0,response1disk,,7,3,3,1,0,0,rectangle,3,3,1,0,0,3,3,1,0,0,1,139,299,135,1,,,,,,,,
,,,,,,,,,,,,,FF,,,,,,,,0.665,,,,,,,,,,,,,,,,,,,,,,6101a914523b50e7c767b00e,61036d9194c7d8bd8f5eab76,2021-07-29_23h10.41.255,Simcolourproject_2stim_asymm_v5,2020.2.10,MacIntel,60,61025ae37ef11b136ea224fe,,,,,,,,,731,70,33,1,0,0,response1disk,,6,3,0,1,0,0,rectangle,3,0,1,0,0,3,0,1,0,0,1,140,300,116,1,,,,,,,,
,,,,,,,,,,,,,FF,,,,,,,,1,,,,,,,,,,,,,,,,,,,,,,6101a914523b50e7c767b00e,61036d9194c7d8bd8f5eab76,2021-07-29_23h10.41.255,Simcolourproject_2stim_asymm_v5,2020.2.10,MacIntel,60,61025ae37ef11b136ea224fe,,,,,,,,,1795,35,76,1,0,0,response1disk,,7,14,7,1,0,0,rectangle,14,7,1,0,0,14,7,1,0,0,1,141,301,8,1,,,,,,,,
