key_resp.keys,key_resp.rt,key_resp_14.keys,key_resp_14.rt,key_resp_15.keys,key_resp_15.rt,key_resp_17.keys,key_resp_17.rt,key_resp_9.keys,key_resp_9.rt,key_resp_10.keys,key_resp_10.rt,practice_comparison,Ecc,mouse_5.x,mouse_5.y,mouse_5.leftButton,mouse_5.midButton,mouse_5.rightButton,mouse_5.clicked_name,pracsimilarity,response_time,mouse_10.x,mouse_10.y,mouse_10.leftButton,mouse_10.midButton,mouse_10.rightButton,mouse_10.clicked_name,mouse_7.x,mouse_7.y,mouse_7.leftButton,mouse_7.midButton,mouse_7.rightButton,mouse_6.x,mouse_6.y,mouse_6.leftButton,mouse_6.midButton,mouse_6.rightButton,duringprac.thisRepN,duringprac.thisTrialN,duringprac.thisN,duringprac.thisIndex,duringprac.ran,participant,session,date,expName,psychopyVersion,OS,frameRate,study_id,mouse_7.clicked_name,catchpracsimilarity,catch_response_time,catchnumberprac,catchtrialorderprac,mouse_6.clicked_name,key_resp_22.keys,key_resp_22.rt,realcomparison,mouse.x,mouse.y,mouse.leftButton,mouse.midButton,mouse.rightButton,mouse.clicked_name,Colour2,similarity,mouse_2.x,mouse_2.y,mouse_2.leftButton,mouse_2.midButton,mouse_2.rightButton,mouse_2.clicked_name,mouse_3.x,mouse_3.y,mouse_3.leftButton,mouse_3.midButton,mouse_3.rightButton,mouse_11.x,mouse_11.y,mouse_11.leftButton,mouse_11.midButton,mouse_11.rightButton,trials_2.thisRepN,trials_2.thisTrialN,trials_2.thisN,trials_2.thisIndex,trials_2.ran,Colour1,mouse_3.clicked_name,catchornah,catchsimilarity,catchnumber,catchtrialorder,catchRT,mouse_11.clicked_name
space,1.0608,space,6.2965,space,8.9576,space,13.8808,space,1.7087,space,2.9289,153,PF,48.66668719,-72.00001287,1,0,0,response3disk_5,4,4.8111,1.333393137,7.333322823,1,0,0,rectangle_8,1.333393137,7.333322823,1,0,0,1.333393137,7.333322823,1,0,0,0,0,0,1,1,61018ac0b925ce90dfec65ea,61036b86f1dd5187a7b63c51,2021-07-29_23h01.50.520,Simcolourproject_2stim_asymm_v5,2020.2.10,Win32,60,61025ae37ef11b136ea224fe,,,,,,,,,,,,,,,,,,,,,,,,,,,,,,,,,,,,,,,,,,,,,,
,,,,,,,,,,,,102,PF,29.33339397,98.66665888,1,0,0,response1disk_5,7,3.6003,-2.666606983,11.33332294,1,0,0,rectangle_8,96.00002193,35.33330331,1,0,0,-3.999981046,1.333322644,1,0,0,0,1,1,2,1,61018ac0b925ce90dfec65ea,61036b86f1dd5187a7b63c51,2021-07-29_23h01.50.520,Simcolourproject_2stim_asymm_v5,2020.2.10,Win32,60,61025ae37ef11b136ea224fe,response1disk_7,6,2.5175,6,"[2,5]",rectangle_4,,,,,,,,,,,,,,,,,,,,,,,,,,,,,,,,,,,,,,,,
,,,,,,,,,,,,96,PF,36.00002015,95.99999213,1,0,0,response1disk_5,7,2.0699,6.000019252,-2.000010788,1,0,0,rectangle_8,6.000019252,-2.000010788,1,0,0,6.000019252,-2.000010788,1,0,0,0,2,2,4,1,61018ac0b925ce90dfec65ea,61036b86f1dd5187a7b63c51,2021-07-29_23h01.50.520,Simcolourproject_2stim_asymm_v5,2020.2.10,Win32,60,61025ae37ef11b136ea224fe,,,,,,,,,,,,,,,,,,,,,,,,,,,,,,,,,,,,,,,,,,,,,,
,,,,,,,,,,,,47,FF,34.66668677,103.9999924,1,0,0,response1disk_5,7,3.9477,8.666685998,6.666656137,1,0,0,rectangle_8,8.666685998,6.666656137,1,0,0,8.666685998,6.666656137,1,0,0,0,3,3,3,1,61018ac0b925ce90dfec65ea,61036b86f1dd5187a7b63c51,2021-07-29_23h01.50.520,Simcolourproject_2stim_asymm_v5,2020.2.10,Win32,60,61025ae37ef11b136ea224fe,,,,,,,,,,,,,,,,,,,,,,,,,,,,,,,,,,,,,,,,,,,,,,
,,,,,,,,,,,,76,FF,29.33339397,-85.33334661,1,0,0,response3disk_5,4,3.099,-1.999980986,2.666656017,1,0,0,rectangle_8,89.33335507,38.66665709,1,0,0,-7.999981165,-11.3333444,1,0,0,0,4,4,5,1,61018ac0b925ce90dfec65ea,61036b86f1dd5187a7b63c51,2021-07-29_23h01.50.520,Simcolourproject_2stim_asymm_v5,2020.2.10,Win32,60,61025ae37ef11b136ea224fe,response1disk_7,6,1.6512,6,"[2,5]",rectangle_4,,,,,,,,,,,,,,,,,,,,,,,,,,,,,,,,,,,,,,,,
,,,,,,,,,,,,17,PF,-36.666608,-86.66667998,1,0,0,response5disk_5,3,3.6651,-1.999980986,7.99998951,1,0,0,rectangle_8,-1.999980986,7.99998951,1,0,0,-1.999980986,7.99998951,1,0,0,0,5,5,6,1,61018ac0b925ce90dfec65ea,61036b86f1dd5187a7b63c51,2021-07-29_23h01.50.520,Simcolourproject_2stim_asymm_v5,2020.2.10,Win32,60,61025ae37ef11b136ea224fe,,,,,,,,,,,,,,,,,,,,,,,,,,,,,,,,,,,,,,,,,,,,,,
,,,,,,,,,,,,133,FF,84.66668826,-32.00001168,1,0,0,response3disk_5,5,2.2318,-14.66660734,5.333322763,1,0,0,rectangle_8,-14.66660734,5.333322763,1,0,0,-14.66660734,5.333322763,1,0,0,0,6,6,0,1,61018ac0b925ce90dfec65ea,61036b86f1dd5187a7b63c51,2021-07-29_23h01.50.520,Simcolourproject_2stim_asymm_v5,2020.2.10,Win32,60,61025ae37ef11b136ea224fe,,,,,,,,,,,,,,,,,,,,,,,,,,,,,,,,,,,,,,,,,,,,,,
,,,,,,,,,,,,,FF,,,,,,,,2.951,,,,,,,,,,,,,,,,,,,,,,61018ac0b925ce90dfec65ea,61036b86f1dd5187a7b63c51,2021-07-29_23h01.50.520,Simcolourproject_2stim_asymm_v5,2020.2.10,Win32,60,61025ae37ef11b136ea224fe,,,,,,,space,2.0377,2101,-33.33331525,85.3333048,1,0,0,response7disk,,0,-1.999980986,3.333322704,1,0,0,rectangle,-1.999980986,3.333322704,1,0,0,-1.999980986,3.333322704,1,0,0,0,0,0,42,1,,,,,,,,
,,,,,,,,,,,,,FF,,,,,,,,2.0525,,,,,,,,,,,,,,,,,,,,,,61018ac0b925ce90dfec65ea,61036b86f1dd5187a7b63c51,2021-07-29_23h01.50.520,Simcolourproject_2stim_asymm_v5,2020.2.10,Win32,60,61025ae37ef11b136ea224fe,,,,,,,,,3239,-62.66660877,16.66665643,1,0,0,response7disk,,1,0.66668576,-1.333344102,1,0,0,rectangle,0.66668576,-1.333344102,1,0,0,0.66668576,-1.333344102,1,0,0,0,1,1,77,1,,,,,,,,
,,,,,,,,,,,,,FF,,,,,,,,5.0968,,,,,,,,,,,,,,,,,,,,,,61018ac0b925ce90dfec65ea,61036b86f1dd5187a7b63c51,2021-07-29_23h01.50.520,Simcolourproject_2stim_asymm_v5,2020.2.10,Win32,60,61025ae37ef11b136ea224fe,,,,,,,,,603,-79.99998331,40.66665715,1,0,0,response7disk,,1,2.000019133,-1.07288E-05,1,0,0,rectangle,2.000019133,-1.07288E-05,1,0,0,2.000019133,-1.07288E-05,1,0,0,0,2,2,120,1,,,,,,,,
,,,,,,,,,,,,,FF,,,,,,,,1.2007,,,,,,,,,,,,,,,,,,,,,,61018ac0b925ce90dfec65ea,61036b86f1dd5187a7b63c51,2021-07-29_23h01.50.520,Simcolourproject_2stim_asymm_v5,2020.2.10,Win32,60,61025ae37ef11b136ea224fe,,,,,,,,,710,42.00002033,101.3333053,1,0,0,response1disk,,7,-5.333314419,-1.333344102,1,0,0,rectangle,-5.333314419,-1.333344102,1,0,0,-5.333314419,-1.333344102,1,0,0,0,3,3,47,1,,,,,,,,
,,,,,,,,,,,,,FF,,,,,,,,1.7342,,,,,,,,,,,,,,,,,,,,,,61018ac0b925ce90dfec65ea,61036b86f1dd5187a7b63c51,2021-07-29_23h01.50.520,Simcolourproject_2stim_asymm_v5,2020.2.10,Win32,60,61025ae37ef11b136ea224fe,,,,,,,,,1122,62.66668761,-34.66667843,1,0,0,response3disk,,5,-7.999981165,-12.66667777,1,0,0,rectangle,-7.999981165,-12.66667777,1,0,0,-7.999981165,-12.66667777,1,0,0,0,4,4,74,1,,,,,,,,
,,,,,,,,,,,,,FF,,,,,,,,2.6025,,,,,,,,,,,,,,,,,,,,,,61018ac0b925ce90dfec65ea,61036b86f1dd5187a7b63c51,2021-07-29_23h01.50.520,Simcolourproject_2stim_asymm_v5,2020.2.10,Win32,60,61025ae37ef11b136ea224fe,,,,,,,,,979,36.66668683,-80.6666798,1,0,0,response3disk,,4,4.000019193,-1.333344102,1,0,0,rectangle,4.000019193,-1.333344102,1,0,0,4.000019193,-1.333344102,1,0,0,0,5,5,20,1,,,,,,,,
,,,,,,,,,,,,,FF,,,,,,,,1.2174,,,,,,,,,,,,,,,,,,,,,,61018ac0b925ce90dfec65ea,61036b86f1dd5187a7b63c51,2021-07-29_23h01.50.520,Simcolourproject_2stim_asymm_v5,2020.2.10,Win32,60,61025ae37ef11b136ea224fe,,,,,,,,,313,82.6666882,29.33330313,1,0,0,response1disk,,6,7.333393315,4.666656077,1,0,0,rectangle,7.333393315,4.666656077,1,0,0,7.333393315,4.666656077,1,0,0,0,6,6,148,1,,,,,,,,
,,,,,,,,,,,,,FF,,,,,,,,1.2856,,,,,,,,,,,,,,,,,,,,,,61018ac0b925ce90dfec65ea,61036b86f1dd5187a7b63c51,2021-07-29_23h01.50.520,Simcolourproject_2stim_asymm_v5,2020.2.10,Win32,60,61025ae37ef11b136ea224fe,,,,,,,,,1332,60.66668755,-24.66667813,1,0,0,response3disk,,5,-2.666606983,1.333322644,1,0,0,rectangle,-2.666606983,1.333322644,1,0,0,-2.666606983,1.333322644,1,0,0,0,7,7,69,1,,,,,,,,
,,,,,,,,,,,,,FF,,,,,,,,2.6298,,,,,,,,,,,,,,,,,,,,,,61018ac0b925ce90dfec65ea,61036b86f1dd5187a7b63c51,2021-07-29_23h01.50.520,Simcolourproject_2stim_asymm_v5,2020.2.10,Win32,60,61025ae37ef11b136ea224fe,,,,,,,,,2601,-29.99998182,104.6666591,1,0,0,response7disk,,0,-5.999981105,-2.000010788,1,0,0,rectangle,-5.999981105,-2.000010788,1,0,0,-5.999981105,-2.000010788,1,0,0,0,8,8,91,1,,,,,,,,
,,,,,,,,,,,,,FF,,,,,,,,1.071,,,,,,,,,,,,,,,,,,,,,,61018ac0b925ce90dfec65ea,61036b86f1dd5187a7b63c51,2021-07-29_23h01.50.520,Simcolourproject_2stim_asymm_v5,2020.2.10,Win32,60,61025ae37ef11b136ea224fe,,,,,,,,,1072,-53.33331585,-96.66668028,1,0,0,response5disk,,3,3.333393196,-6.666677594,1,0,0,rectangle,3.333393196,-6.666677594,1,0,0,3.333393196,-6.666677594,1,0,0,0,9,9,94,1,,,,,,,,
,,,,,,,,,,,,,FF,,,,,,,,1.6205,,,,,,,,,,,,,,,,,,,,,,61018ac0b925ce90dfec65ea,61036b86f1dd5187a7b63c51,2021-07-29_23h01.50.520,Simcolourproject_2stim_asymm_v5,2020.2.10,Win32,60,61025ae37ef11b136ea224fe,,,,,,,,,3793,88.66668838,33.99999028,1,0,0,response1disk,,6,-5.333314419,-7.333344281,1,0,0,rectangle,-5.333314419,-7.333344281,1,0,0,-5.333314419,-7.333344281,1,0,0,0,10,10,103,1,,,,,,,,
,,,,,,,,,,,,,FF,,,,,,,,2.3997,,,,,,,,,,,,,,,,,,,,,,61018ac0b925ce90dfec65ea,61036b86f1dd5187a7b63c51,2021-07-29_23h01.50.520,Simcolourproject_2stim_asymm_v5,2020.2.10,Win32,60,61025ae37ef11b136ea224fe,,,,,,,,,1274,50.00002056,-100.0000137,1,0,0,response3disk,,4,4.666685879,0.666655958,1,0,0,rectangle,4.666685879,0.666655958,1,0,0,4.666685879,0.666655958,1,0,0,0,11,11,106,1,,,,,,,,
,,,,,,,,,,,,,FF,,,,,,,,0.882,,,,,,,,,,,,,,,,,,,,,,61018ac0b925ce90dfec65ea,61036b86f1dd5187a7b63c51,2021-07-29_23h01.50.520,Simcolourproject_2stim_asymm_v5,2020.2.10,Win32,60,61025ae37ef11b136ea224fe,,,,,,,,,2475,68.66668779,-31.333345,1,0,0,response3disk,,5,15.33339355,6.666656137,1,0,0,rectangle,15.33339355,6.666656137,1,0,0,15.33339355,6.666656137,1,0,0,0,12,12,149,1,,,,,,,,
,,,,,,,,,,,,,FF,,,,,,,,2.0576,,,,,,,,,,,,,,,,,,,,,,61018ac0b925ce90dfec65ea,61036b86f1dd5187a7b63c51,2021-07-29_23h01.50.520,Simcolourproject_2stim_asymm_v5,2020.2.10,Win32,60,61025ae37ef11b136ea224fe,,,,,,,,,3171,95.33335525,25.99999005,1,0,0,response1disk,,6,-4.666607042,4.666656077,1,0,0,rectangle,-4.666607042,4.666656077,1,0,0,-4.666607042,4.666656077,1,0,0,0,13,13,88,1,,,,,,,,
,,,,,,,,,,,,,FF,,,,,,,,0.8366,,,,,,,,,,,,,,,,,,,,,,61018ac0b925ce90dfec65ea,61036b86f1dd5187a7b63c51,2021-07-29_23h01.50.520,Simcolourproject_2stim_asymm_v5,2020.2.10,Win32,60,61025ae37ef11b136ea224fe,,,,,,,,,3734,84.00002158,33.99999028,1,0,0,response1disk,,6,-3.999981046,-2.000010788,1,0,0,rectangle,-3.999981046,-2.000010788,1,0,0,-3.999981046,-2.000010788,1,0,0,0,14,14,138,1,,,,,,,,
,,,,,,,,,,,,,FF,,,,,,,,0.5473,,,,,,,,,,,,,,,,,,,,,,61018ac0b925ce90dfec65ea,61036b86f1dd5187a7b63c51,2021-07-29_23h01.50.520,Simcolourproject_2stim_asymm_v5,2020.2.10,Win32,60,61025ae37ef11b136ea224fe,,,,,,,,,1624,79.33335477,-42.66667867,1,0,0,response3disk,,5,1.9735E-05,0.666655958,1,0,0,rectangle,1.9735E-05,0.666655958,1,0,0,1.9735E-05,0.666655958,1,0,0,0,15,15,85,1,,,,,,,,
,,,,,,,,,,,,,FF,,,,,,,,1.4315,,,,,,,,,,,,,,,,,,,,,,61018ac0b925ce90dfec65ea,61036b86f1dd5187a7b63c51,2021-07-29_23h01.50.520,Simcolourproject_2stim_asymm_v5,2020.2.10,Win32,60,61025ae37ef11b136ea224fe,,,,,,,,,2791,-25.9999817,-76.66667968,1,0,0,response5disk,,3,-8.666607161,-14.00001115,1,0,0,rectangle,-8.666607161,-14.00001115,1,0,0,-8.666607161,-14.00001115,1,0,0,0,16,16,29,1,,,,,,,,
,,,,,,,,,,,,,FF,,,,,,,,0.7489,,,,,,,,,,,,,,,,,,,,,,61018ac0b925ce90dfec65ea,61036b86f1dd5187a7b63c51,2021-07-29_23h01.50.520,Simcolourproject_2stim_asymm_v5,2020.2.10,Win32,60,61025ae37ef11b136ea224fe,,,,,,,,,1784,40.66668695,-64.66667932,1,0,0,response3disk,,4,-5.999981105,-2.666677475,1,0,0,rectangle,-5.999981105,-2.666677475,1,0,0,-5.999981105,-2.666677475,1,0,0,0,17,17,107,1,,,,,,,,
,,,,,,,,,,,,,FF,,,,,,,,0.7172,,,,,,,,,,,,,,,,,,,,,,61018ac0b925ce90dfec65ea,61036b86f1dd5187a7b63c51,2021-07-29_23h01.50.520,Simcolourproject_2stim_asymm_v5,2020.2.10,Win32,60,61025ae37ef11b136ea224fe,,,,,,,,,3797,70.66668785,-38.66667855,1,0,0,response3disk,,5,8.000019312,4.666656077,1,0,0,rectangle,-49.33331573,-89.33334672,1,0,0,0.66668576,5.333322763,1,0,0,0,18,18,56,1,,response5disk_3,TRUE,3,3,"[156,251,144,309,292,236,294,298,235,63,19,194,168,77,217,76,41,102,44,44]",2.1043,rectangle
,,,,,,,,,,,,,FF,,,,,,,,1.1684,,,,,,,,,,,,,,,,,,,,,,61018ac0b925ce90dfec65ea,61036b86f1dd5187a7b63c51,2021-07-29_23h01.50.520,Simcolourproject_2stim_asymm_v5,2020.2.10,Win32,60,61025ae37ef11b136ea224fe,,,,,,,,,2979,32.00002003,-89.33334672,1,0,0,response3disk,,4,2.66668582,12.66665632,1,0,0,rectangle,2.66668582,12.66665632,1,0,0,2.66668582,12.66665632,1,0,0,0,19,19,86,1,,,,,,,,
,,,,,,,,,,,,,FF,,,,,,,,1.287,,,,,,,,,,,,,,,,,,,,,,61018ac0b925ce90dfec65ea,61036b86f1dd5187a7b63c51,2021-07-29_23h01.50.520,Simcolourproject_2stim_asymm_v5,2020.2.10,Win32,60,61025ae37ef11b136ea224fe,,,,,,,,,1281,58.0000208,-30.66667831,1,0,0,response3disk,,5,21.33339373,3.333322704,1,0,0,rectangle,21.33339373,3.333322704,1,0,0,21.33339373,3.333322704,1,0,0,0,20,20,92,1,,,,,,,,
,,,,,,,,,,,,,FF,,,,,,,,1.1698,,,,,,,,,,,,,,,,,,,,,,61018ac0b925ce90dfec65ea,61036b86f1dd5187a7b63c51,2021-07-29_23h01.50.520,Simcolourproject_2stim_asymm_v5,2020.2.10,Win32,60,61025ae37ef11b136ea224fe,,,,,,,,,2893,-70.66660901,27.33330307,1,0,0,response7disk,,1,7.333393315,6.666656137,1,0,0,rectangle,7.333393315,6.666656137,1,0,0,7.333393315,6.666656137,1,0,0,0,21,21,146,1,,,,,,,,
,,,,,,,,,,,,,FF,,,,,,,,1.1226,,,,,,,,,,,,,,,,,,,,,,61018ac0b925ce90dfec65ea,61036b86f1dd5187a7b63c51,2021-07-29_23h01.50.520,Simcolourproject_2stim_asymm_v5,2020.2.10,Win32,60,61025ae37ef11b136ea224fe,,,,,,,,,266,-63.33331615,-45.33334541,1,0,0,response5disk,,2,6.000019252,11.99998963,1,0,0,rectangle,6.000019252,11.99998963,1,0,0,6.000019252,11.99998963,1,0,0,0,22,22,133,1,,,,,,,,
,,,,,,,,,,,,,FF,,,,,,,,0.8164,,,,,,,,,,,,,,,,,,,,,,61018ac0b925ce90dfec65ea,61036b86f1dd5187a7b63c51,2021-07-29_23h01.50.520,Simcolourproject_2stim_asymm_v5,2020.2.10,Win32,60,61025ae37ef11b136ea224fe,,,,,,,,,4099,-38.66660806,-70.00001281,1,0,0,response5disk,,3,-15.9999814,-9.33334434,1,0,0,rectangle,-15.9999814,-9.33334434,1,0,0,-15.9999814,-9.33334434,1,0,0,0,23,23,110,1,,,,,,,,
,,,,,,,,,,,,,FF,,,,,,,,1.0863,,,,,,,,,,,,,,,,,,,,,,61018ac0b925ce90dfec65ea,61036b86f1dd5187a7b63c51,2021-07-29_23h01.50.520,Simcolourproject_2stim_asymm_v5,2020.2.10,Win32,60,61025ae37ef11b136ea224fe,,,,,,,,,479,57.33335412,-23.33334476,1,0,0,response3disk,,5,-7.999981165,-1.333344102,1,0,0,rectangle,-7.999981165,-1.333344102,1,0,0,-7.999981165,-1.333344102,1,0,0,0,24,24,76,1,,,,,,,,
,,,,,,,,,,,,,FF,,,,,,,,1.2611,,,,,,,,,,,,,,,,,,,,,,61018ac0b925ce90dfec65ea,61036b86f1dd5187a7b63c51,2021-07-29_23h01.50.520,Simcolourproject_2stim_asymm_v5,2020.2.10,Win32,60,61025ae37ef11b136ea224fe,,,,,,,,,3503,-17.33331478,-68.00001276,1,0,0,response5disk,,3,-2.666606983,7.333322823,1,0,0,rectangle,-2.666606983,7.333322823,1,0,0,-2.666606983,7.333322823,1,0,0,0,25,25,49,1,,,,,,,,
,,,,,,,,,,,,,FF,,,,,,,,0.8134,,,,,,,,,,,,,,,,,,,,,,61018ac0b925ce90dfec65ea,61036b86f1dd5187a7b63c51,2021-07-29_23h01.50.520,Simcolourproject_2stim_asymm_v5,2020.2.10,Win32,60,61025ae37ef11b136ea224fe,,,,,,,,,1396,61.33335423,89.99999195,1,0,0,response1disk,,7,6.000019252,-4.000010848,1,0,0,rectangle,6.000019252,-4.000010848,1,0,0,6.000019252,-4.000010848,1,0,0,0,26,26,11,1,,,,,,,,
,,,,,,,,,,,,,FF,,,,,,,,0.6561,,,,,,,,,,,,,,,,,,,,,,61018ac0b925ce90dfec65ea,61036b86f1dd5187a7b63c51,2021-07-29_23h01.50.520,Simcolourproject_2stim_asymm_v5,2020.2.10,Win32,60,61025ae37ef11b136ea224fe,,,,,,,,,283,74.66668797,18.66665649,1,0,0,response1disk,,6,-1.999980986,-2.666677475,1,0,0,rectangle,-1.999980986,-2.666677475,1,0,0,-1.999980986,-2.666677475,1,0,0,0,27,27,25,1,,,,,,,,
,,,,,,,,,,,,,FF,,,,,,,,0.8007,,,,,,,,,,,,,,,,,,,,,,61018ac0b925ce90dfec65ea,61036b86f1dd5187a7b63c51,2021-07-29_23h01.50.520,Simcolourproject_2stim_asymm_v5,2020.2.10,Win32,60,61025ae37ef11b136ea224fe,,,,,,,,,36,63.33335429,-34.00001174,1,0,0,response3disk,,5,6.000019252,-10.00001103,1,0,0,rectangle,6.000019252,-10.00001103,1,0,0,6.000019252,-10.00001103,1,0,0,0,28,28,118,1,,,,,,,,
,,,,,,,,,,,,,FF,,,,,,,,0.8864,,,,,,,,,,,,,,,,,,,,,,61018ac0b925ce90dfec65ea,61036b86f1dd5187a7b63c51,2021-07-29_23h01.50.520,Simcolourproject_2stim_asymm_v5,2020.2.10,Win32,60,61025ae37ef11b136ea224fe,,,,,,,,,3148,-55.9999826,-32.00001168,1,0,0,response5disk,,2,-5.999981105,7.333322823,1,0,0,rectangle,-5.999981105,7.333322823,1,0,0,-5.999981105,7.333322823,1,0,0,0,29,29,81,1,,,,,,,,
,,,,,,,,,,,,,FF,,,,,,,,0.9512,,,,,,,,,,,,,,,,,,,,,,61018ac0b925ce90dfec65ea,61036b86f1dd5187a7b63c51,2021-07-29_23h01.50.520,Simcolourproject_2stim_asymm_v5,2020.2.10,Win32,60,61025ae37ef11b136ea224fe,,,,,,,,,3052,-32.66660788,-71.33334619,1,0,0,response5disk,,3,-12.66660728,-4.666677535,1,0,0,rectangle,-12.66660728,-4.666677535,1,0,0,-12.66660728,-4.666677535,1,0,0,0,30,30,43,1,,,,,,,,
,,,,,,,,,,,,,FF,,,,,,,,1.0003,,,,,,,,,,,,,,,,,,,,,,61018ac0b925ce90dfec65ea,61036b86f1dd5187a7b63c51,2021-07-29_23h01.50.520,Simcolourproject_2stim_asymm_v5,2020.2.10,Win32,60,61025ae37ef11b136ea224fe,,,,,,,,,3987,76.66668802,-32.66667837,1,0,0,response3disk,,5,4.000019193,1.999989331,1,0,0,rectangle,4.000019193,1.999989331,1,0,0,4.000019193,1.999989331,1,0,0,0,31,31,0,1,,,,,,,,
,,,,,,,,,,,,,FF,,,,,,,,1.5827,,,,,,,,,,,,,,,,,,,,,,61018ac0b925ce90dfec65ea,61036b86f1dd5187a7b63c51,2021-07-29_23h01.50.520,Simcolourproject_2stim_asymm_v5,2020.2.10,Win32,60,61025ae37ef11b136ea224fe,,,,,,,,,2579,58.0000208,75.3333045,1,0,0,response1disk,,7,-1.3333143,-7.333344281,1,0,0,rectangle,-1.3333143,-7.333344281,1,0,0,-1.3333143,-7.333344281,1,0,0,0,32,32,53,1,,,,,,,,
,,,,,,,,,,,,,FF,,,,,,,,0.899,,,,,,,,,,,,,,,,,,,,,,61018ac0b925ce90dfec65ea,61036b86f1dd5187a7b63c51,2021-07-29_23h01.50.520,Simcolourproject_2stim_asymm_v5,2020.2.10,Win32,60,61025ae37ef11b136ea224fe,,,,,,,,,998,68.0000211,29.33330313,1,0,0,response1disk,,6,11.33339343,3.333322704,1,0,0,rectangle,11.33339343,3.333322704,1,0,0,11.33339343,3.333322704,1,0,0,0,33,33,12,1,,,,,,,,
,,,,,,,,,,,,,FF,,,,,,,,1.2912,,,,,,,,,,,,,,,,,,,,,,61018ac0b925ce90dfec65ea,61036b86f1dd5187a7b63c51,2021-07-29_23h01.50.520,Simcolourproject_2stim_asymm_v5,2020.2.10,Win32,60,61025ae37ef11b136ea224fe,,,,,,,,,2551,58.66668749,-26.0000115,1,0,0,response3disk,,5,-7.333314478,4.666656077,1,0,0,rectangle,-7.333314478,4.666656077,1,0,0,-7.333314478,4.666656077,1,0,0,0,34,34,37,1,,,,,,,,
,,,,,,,,,,,,,FF,,,,,,,,0.7235,,,,,,,,,,,,,,,,,,,,,,61018ac0b925ce90dfec65ea,61036b86f1dd5187a7b63c51,2021-07-29_23h01.50.520,Simcolourproject_2stim_asymm_v5,2020.2.10,Win32,60,61025ae37ef11b136ea224fe,,,,,,,,,2145,45.33335376,-22.66667807,1,0,0,response3disk,,5,5.333393256,-4.000010848,1,0,0,rectangle,5.333393256,-4.000010848,1,0,0,5.333393256,-4.000010848,1,0,0,0,35,35,64,1,,,,,,,,
,,,,,,,,,,,,,FF,,,,,,,,0.8886,,,,,,,,,,,,,,,,,,,,,,61018ac0b925ce90dfec65ea,61036b86f1dd5187a7b63c51,2021-07-29_23h01.50.520,Simcolourproject_2stim_asymm_v5,2020.2.10,Win32,60,61025ae37ef11b136ea224fe,,,,,,,,,1119,73.33335459,25.99999005,1,0,0,response1disk,,6,3.333393196,-2.666677475,1,0,0,rectangle,3.333393196,-2.666677475,1,0,0,3.333393196,-2.666677475,1,0,0,0,36,36,59,1,,,,,,,,
,,,,,,,,,,,,,FF,,,,,,,,1.3499,,,,,,,,,,,,,,,,,,,,,,61018ac0b925ce90dfec65ea,61036b86f1dd5187a7b63c51,2021-07-29_23h01.50.520,Simcolourproject_2stim_asymm_v5,2020.2.10,Win32,60,61025ae37ef11b136ea224fe,,,,,,,,,2314,66.66668773,36.66665703,1,0,0,response1disk,,6,8.000019312,2.666656017,1,0,0,rectangle,8.000019312,2.666656017,1,0,0,8.000019312,2.666656017,1,0,0,0,37,37,108,1,,,,,,,,
,,,,,,,,,,,,,FF,,,,,,,,0.7852,,,,,,,,,,,,,,,,,,,,,,61018ac0b925ce90dfec65ea,61036b86f1dd5187a7b63c51,2021-07-29_23h01.50.520,Simcolourproject_2stim_asymm_v5,2020.2.10,Win32,60,61025ae37ef11b136ea224fe,,,,,,,,,3770,42.66668701,-24.66667813,1,0,0,response3disk,,5,-1.3333143,-6.666677594,1,0,0,rectangle,-1.3333143,-6.666677594,1,0,0,-1.3333143,-6.666677594,1,0,0,0,38,38,119,1,,,,,,,,
,,,,,,,,,,,,,FF,,,,,,,,1.1479,,,,,,,,,,,,,,,,,,,,,,61018ac0b925ce90dfec65ea,61036b86f1dd5187a7b63c51,2021-07-29_23h01.50.520,Simcolourproject_2stim_asymm_v5,2020.2.10,Win32,60,61025ae37ef11b136ea224fe,,,,,,,,,3145,52.00002062,-32.00001168,1,0,0,response3disk,,5,18.00001961,-10.66667771,1,0,0,rectangle,18.00001961,-10.66667771,1,0,0,18.00001961,-10.66667771,1,0,0,0,39,39,105,1,,,,,,,,
,,,,,,,,,,,,,FF,,,,,,,,0.7173,,,,,,,,,,,,,,,,,,,,,,61018ac0b925ce90dfec65ea,61036b86f1dd5187a7b63c51,2021-07-29_23h01.50.520,Simcolourproject_2stim_asymm_v5,2020.2.10,Win32,60,61025ae37ef11b136ea224fe,,,,,,,,,221,61.33335423,-31.333345,1,0,0,response3disk,,5,1.9735E-05,-7.333344281,1,0,0,rectangle,-72.66660907,41.99999052,1,0,0,3.333393196,3.99998939,1,0,0,0,40,40,137,1,,response7disk_3,TRUE,1,1,"[156,251,144,309,292,236,294,298,235,63,19,194,168,77,217,76,41,102,44,44]",1.8042,rectangle
,,,,,,,,,,,,,FF,,,,,,,,1.3366,,,,,,,,,,,,,,,,,,,,,,61018ac0b925ce90dfec65ea,61036b86f1dd5187a7b63c51,2021-07-29_23h01.50.520,Simcolourproject_2stim_asymm_v5,2020.2.10,Win32,60,61025ae37ef11b136ea224fe,,,,,,,,,3969,-48.66660835,-52.00001228,1,0,0,response5disk,,3,-9.999981225,4.666656077,1,0,0,rectangle,-9.999981225,4.666656077,1,0,0,-9.999981225,4.666656077,1,0,0,0,41,41,80,1,,,,,,,,
,,,,,,,,,,,,,FF,,,,,,,,0.817,,,,,,,,,,,,,,,,,,,,,,61018ac0b925ce90dfec65ea,61036b86f1dd5187a7b63c51,2021-07-29_23h01.50.520,Simcolourproject_2stim_asymm_v5,2020.2.10,Win32,60,61025ae37ef11b136ea224fe,,,,,,,,,43,64.66668767,41.33330349,1,0,0,response1disk,,6,4.000019193,7.333322823,1,0,0,rectangle,4.000019193,7.333322823,1,0,0,4.000019193,7.333322823,1,0,0,0,42,42,44,1,,,,,,,,
,,,,,,,,,,,,,FF,,,,,,,,0.7406,,,,,,,,,,,,,,,,,,,,,,61018ac0b925ce90dfec65ea,61036b86f1dd5187a7b63c51,2021-07-29_23h01.50.520,Simcolourproject_2stim_asymm_v5,2020.2.10,Win32,60,61025ae37ef11b136ea224fe,,,,,,,,,413,68.66668779,20.66665655,1,0,0,response1disk,,6,2.000019133,-6.666677594,1,0,0,rectangle,-34.66660794,85.3333048,1,0,0,-5.333314419,4.666656077,1,0,0,0,43,43,24,1,,response7disk_3,TRUE,0,0,"[156,251,144,309,292,236,294,298,235,63,19,194,168,77,217,76,41,102,44,44]",1.5823,rectangle
,,,,,,,,,,,,,FF,,,,,,,,0.7821,,,,,,,,,,,,,,,,,,,,,,61018ac0b925ce90dfec65ea,61036b86f1dd5187a7b63c51,2021-07-29_23h01.50.520,Simcolourproject_2stim_asymm_v5,2020.2.10,Win32,60,61025ae37ef11b136ea224fe,,,,,,,,,2312,36.00002015,58.66665769,1,0,0,response1disk,,7,9.333393375,-7.333344281,1,0,0,rectangle,9.333393375,-7.333344281,1,0,0,9.333393375,-7.333344281,1,0,0,0,44,44,150,1,,,,,,,,
,,,,,,,,,,,,,FF,,,,,,,,0.6802,,,,,,,,,,,,,,,,,,,,,,61018ac0b925ce90dfec65ea,61036b86f1dd5187a7b63c51,2021-07-29_23h01.50.520,Simcolourproject_2stim_asymm_v5,2020.2.10,Win32,60,61025ae37ef11b136ea224fe,,,,,,,,,3564,31.33339403,60.66665775,1,0,0,response1disk,,7,2.000019133,3.99998939,1,0,0,rectangle,2.000019133,3.99998939,1,0,0,2.000019133,3.99998939,1,0,0,0,45,45,134,1,,,,,,,,
,,,,,,,,,,,,,FF,,,,,,,,1.2503,,,,,,,,,,,,,,,,,,,,,,61018ac0b925ce90dfec65ea,61036b86f1dd5187a7b63c51,2021-07-29_23h01.50.520,Simcolourproject_2stim_asymm_v5,2020.2.10,Win32,60,61025ae37ef11b136ea224fe,,,,,,,,,2299,-41.99998218,-70.6666795,1,0,0,response5disk,,3,-5.333314419,3.333322704,1,0,0,rectangle,-5.333314419,3.333322704,1,0,0,-5.333314419,3.333322704,1,0,0,0,46,46,22,1,,,,,,,,
,,,,,,,,,,,,,FF,,,,,,,,1.2674,,,,,,,,,,,,,,,,,,,,,,61018ac0b925ce90dfec65ea,61036b86f1dd5187a7b63c51,2021-07-29_23h01.50.520,Simcolourproject_2stim_asymm_v5,2020.2.10,Win32,60,61025ae37ef11b136ea224fe,,,,,,,,,1721,66.00002104,63.99999118,1,0,0,response1disk,,6,-2.666606983,-12.00001109,1,0,0,rectangle,-2.666606983,-12.00001109,1,0,0,-2.666606983,-12.00001109,1,0,0,0,47,47,152,1,,,,,,,,
,,,,,,,,,,,,,FF,,,,,,,,0.6573,,,,,,,,,,,,,,,,,,,,,,61018ac0b925ce90dfec65ea,61036b86f1dd5187a7b63c51,2021-07-29_23h01.50.520,Simcolourproject_2stim_asymm_v5,2020.2.10,Win32,60,61025ae37ef11b136ea224fe,,,,,,,,,3467,31.33339403,73.99999148,1,0,0,response1disk,,7,6.000019252,9.333322883,1,0,0,rectangle,6.000019252,9.333322883,1,0,0,6.000019252,9.333322883,1,0,0,0,48,48,30,1,,,,,,,,
,,,,,,,,,,,,,FF,,,,,,,,0.8812,,,,,,,,,,,,,,,,,,,,,,61018ac0b925ce90dfec65ea,61036b86f1dd5187a7b63c51,2021-07-29_23h01.50.520,Simcolourproject_2stim_asymm_v5,2020.2.10,Win32,60,61025ae37ef11b136ea224fe,,,,,,,,,162,32.00002003,-61.33334589,1,0,0,response3disk,,4,3.333393196,-4.000010848,1,0,0,rectangle,3.333393196,-4.000010848,1,0,0,3.333393196,-4.000010848,1,0,0,0,49,49,8,1,,,,,,,,
,,,,,,,,,,,,,FF,,,,,,,,0.6147,,,,,,,,,,,,,,,,,,,,,,61018ac0b925ce90dfec65ea,61036b86f1dd5187a7b63c51,2021-07-29_23h01.50.520,Simcolourproject_2stim_asymm_v5,2020.2.10,Win32,60,61025ae37ef11b136ea224fe,,,,,,,,,2848,63.33335429,19.33330284,1,0,0,response1disk,,6,8.666685998,-7.333344281,1,0,0,rectangle,8.666685998,-7.333344281,1,0,0,8.666685998,-7.333344281,1,0,0,0,50,50,90,1,,,,,,,,
,,,,,,,,,,,,,FF,,,,,,,,1.516,,,,,,,,,,,,,,,,,,,,,,61018ac0b925ce90dfec65ea,61036b86f1dd5187a7b63c51,2021-07-29_23h01.50.520,Simcolourproject_2stim_asymm_v5,2020.2.10,Win32,60,61025ae37ef11b136ea224fe,,,,,,,,,2033,-83.99998343,31.99999022,1,0,0,response7disk,,1,-13.33331466,-1.07288E-05,1,0,0,rectangle,-13.33331466,-1.07288E-05,1,0,0,-13.33331466,-1.07288E-05,1,0,0,0,51,51,129,1,,,,,,,,
,,,,,,,,,,,,,FF,,,,,,,,0.9174,,,,,,,,,,,,,,,,,,,,,,61018ac0b925ce90dfec65ea,61036b86f1dd5187a7b63c51,2021-07-29_23h01.50.520,Simcolourproject_2stim_asymm_v5,2020.2.10,Win32,60,61025ae37ef11b136ea224fe,,,,,,,,,4301,30.66668665,53.33330385,1,0,0,response1disk,,7,2.000019133,0.666655958,1,0,0,rectangle,2.000019133,0.666655958,1,0,0,2.000019133,0.666655958,1,0,0,0,52,52,101,1,,,,,,,,
,,,,,,,,,,,,,FF,,,,,,,,0.7021,,,,,,,,,,,,,,,,,,,,,,61018ac0b925ce90dfec65ea,61036b86f1dd5187a7b63c51,2021-07-29_23h01.50.520,Simcolourproject_2stim_asymm_v5,2020.2.10,Win32,60,61025ae37ef11b136ea224fe,,,,,,,,,2523,74.66668797,33.99999028,1,0,0,response1disk,,6,12.00001943,3.99998939,1,0,0,rectangle,12.00001943,3.99998939,1,0,0,12.00001943,3.99998939,1,0,0,0,53,53,145,1,,,,,,,,
,,,,,,,,,,,,,FF,,,,,,,,0.4833,,,,,,,,,,,,,,,,,,,,,,61018ac0b925ce90dfec65ea,61036b86f1dd5187a7b63c51,2021-07-29_23h01.50.520,Simcolourproject_2stim_asymm_v5,2020.2.10,Win32,60,61025ae37ef11b136ea224fe,,,,,,,,,863,39.33339427,52.66665751,1,0,0,response1disk,,7,6.666685939,7.333322823,1,0,0,rectangle,6.666685939,7.333322823,1,0,0,6.666685939,7.333322823,1,0,0,0,54,54,125,1,,,,,,,,
,,,,,,,,,,,,,FF,,,,,,,,1.356,,,,,,,,,,,,,,,,,,,,,,61018ac0b925ce90dfec65ea,61036b86f1dd5187a7b63c51,2021-07-29_23h01.50.520,Simcolourproject_2stim_asymm_v5,2020.2.10,Win32,60,61025ae37ef11b136ea224fe,,,,,,,,,723,-71.33331639,18.66665649,1,0,0,response7disk,,1,-5.333314419,-1.07288E-05,1,0,0,rectangle,-5.333314419,-1.07288E-05,1,0,0,-5.333314419,-1.07288E-05,1,0,0,0,55,55,128,1,,,,,,,,
,,,,,,,,,,,,,FF,,,,,,,,0.7985,,,,,,,,,,,,,,,,,,,,,,61018ac0b925ce90dfec65ea,61036b86f1dd5187a7b63c51,2021-07-29_23h01.50.520,Simcolourproject_2stim_asymm_v5,2020.2.10,Win32,60,61025ae37ef11b136ea224fe,,,,,,,,,3671,-35.999982,61.99999112,1,0,0,response7disk,,0,-9.333314538,1.333322644,1,0,0,rectangle,-9.333314538,1.333322644,1,0,0,-9.333314538,1.333322644,1,0,0,0,56,56,75,1,,,,,,,,
,,,,,,,,,,,,,FF,,,,,,,,0.6914,,,,,,,,,,,,,,,,,,,,,,61018ac0b925ce90dfec65ea,61036b86f1dd5187a7b63c51,2021-07-29_23h01.50.520,Simcolourproject_2stim_asymm_v5,2020.2.10,Win32,60,61025ae37ef11b136ea224fe,,,,,,,,,1840,36.00002015,-66.0000127,1,0,0,response3disk,,4,1.333393137,9.999989569,1,0,0,rectangle,1.333393137,9.999989569,1,0,0,1.333393137,9.999989569,1,0,0,0,57,57,18,1,,,,,,,,
,,,,,,,,,,,,,FF,,,,,,,,0.6686,,,,,,,,,,,,,,,,,,,,,,61018ac0b925ce90dfec65ea,61036b86f1dd5187a7b63c51,2021-07-29_23h01.50.520,Simcolourproject_2stim_asymm_v5,2020.2.10,Win32,60,61025ae37ef11b136ea224fe,,,,,,,,,108,36.66668683,45.99999064,1,0,0,response1disk,,7,8.666685998,5.333322763,1,0,0,rectangle,8.666685998,5.333322763,1,0,0,8.666685998,5.333322763,1,0,0,0,58,58,123,1,,,,,,,,
,,,,,,,,,,,,,FF,,,,,,,,1.0243,,,,,,,,,,,,,,,,,,,,,,61018ac0b925ce90dfec65ea,61036b86f1dd5187a7b63c51,2021-07-29_23h01.50.520,Simcolourproject_2stim_asymm_v5,2020.2.10,Win32,60,61025ae37ef11b136ea224fe,,,,,,,,,1394,35.33339415,83.99999177,1,0,0,response1disk,,7,-3.999981046,-6.000010908,1,0,0,rectangle,-3.999981046,-6.000010908,1,0,0,-3.999981046,-6.000010908,1,0,0,0,59,59,17,1,,,,,,,,
,,,,,,,,,,,,,FF,,,,,,,,0.8744,,,,,,,,,,,,,,,,,,,,,,61018ac0b925ce90dfec65ea,61036b86f1dd5187a7b63c51,2021-07-29_23h01.50.520,Simcolourproject_2stim_asymm_v5,2020.2.10,Win32,60,61025ae37ef11b136ea224fe,,,,,,,,,3151,-59.99998271,-32.00001168,1,0,0,response5disk,,2,-1.999980986,3.99998939,1,0,0,rectangle,-1.999980986,3.99998939,1,0,0,-1.999980986,3.99998939,1,0,0,0,60,60,112,1,,,,,,,,
,,,,,,,,,,,,,FF,,,,,,,,0.7032,,,,,,,,,,,,,,,,,,,,,,61018ac0b925ce90dfec65ea,61036b86f1dd5187a7b63c51,2021-07-29_23h01.50.520,Simcolourproject_2stim_asymm_v5,2020.2.10,Win32,60,61025ae37ef11b136ea224fe,,,,,,,,,1548,40.00002027,81.33330468,1,0,0,response1disk,,7,-0.666606923,5.333322763,1,0,0,rectangle,-0.666606923,5.333322763,1,0,0,-0.666606923,5.333322763,1,0,0,0,61,61,99,1,,,,,,,,
,,,,,,,,,,,,,FF,,,,,,,,1.2655,,,,,,,,,,,,,,,,,,,,,,61018ac0b925ce90dfec65ea,61036b86f1dd5187a7b63c51,2021-07-29_23h01.50.520,Simcolourproject_2stim_asymm_v5,2020.2.10,Win32,60,61025ae37ef11b136ea224fe,,,,,,,,,2085,56.00002074,-44.00001204,1,0,0,response3disk,,5,-0.666606923,3.333322704,1,0,0,rectangle,59.33335418,39.33330343,1,0,0,-10.66660722,-2.666677475,1,0,0,0,62,62,87,1,,response1disk_3,TRUE,6,6,"[156,251,144,309,292,236,294,298,235,63,19,194,168,77,217,76,41,102,44,44]",1.4016,rectangle
,,,,,,,,,,,,,FF,,,,,,,,1.55,,,,,,,,,,,,,,,,,,,,,,61018ac0b925ce90dfec65ea,61036b86f1dd5187a7b63c51,2021-07-29_23h01.50.520,Simcolourproject_2stim_asymm_v5,2020.2.10,Win32,60,61025ae37ef11b136ea224fe,,,,,,,,,1386,58.66668749,38.66665709,1,0,0,response1disk,,6,-3.333314359,-1.333344102,1,0,0,rectangle,-3.333314359,-1.333344102,1,0,0,-3.333314359,-1.333344102,1,0,0,0,63,63,4,1,,,,,,,,
,,,,,,,,,,,,,FF,,,,,,,,1.3345,,,,,,,,,,,,,,,,,,,,,,61018ac0b925ce90dfec65ea,61036b86f1dd5187a7b63c51,2021-07-29_23h01.50.520,Simcolourproject_2stim_asymm_v5,2020.2.10,Win32,60,61025ae37ef11b136ea224fe,,,,,,,,,1811,28.66668659,-56.66667908,1,0,0,response3disk,,4,1.9735E-05,4.666656077,1,0,0,rectangle,1.9735E-05,4.666656077,1,0,0,1.9735E-05,4.666656077,1,0,0,0,64,64,51,1,,,,,,,,
,,,,,,,,,,,,,FF,,,,,,,,0.9879,,,,,,,,,,,,,,,,,,,,,,61018ac0b925ce90dfec65ea,61036b86f1dd5187a7b63c51,2021-07-29_23h01.50.520,Simcolourproject_2stim_asymm_v5,2020.2.10,Win32,60,61025ae37ef11b136ea224fe,,,,,,,,,2325,73.33335459,43.33330355,1,0,0,response1disk,,6,2.000019133,9.333322883,1,0,0,rectangle,2.000019133,9.333322883,1,0,0,2.000019133,9.333322883,1,0,0,0,65,65,156,1,,,,,,,,
,,,,,,,,,,,,,FF,,,,,,,,0.8998,,,,,,,,,,,,,,,,,,,,,,61018ac0b925ce90dfec65ea,61036b86f1dd5187a7b63c51,2021-07-29_23h01.50.520,Simcolourproject_2stim_asymm_v5,2020.2.10,Win32,60,61025ae37ef11b136ea224fe,,,,,,,,,484,31.33339403,-50.66667891,1,0,0,response3disk,,4,5.333393256,-0.666677415,1,0,0,rectangle,5.333393256,-0.666677415,1,0,0,5.333393256,-0.666677415,1,0,0,0,66,66,100,1,,,,,,,,
,,,,,,,,,,,,,FF,,,,,,,,0.6996,,,,,,,,,,,,,,,,,,,,,,61018ac0b925ce90dfec65ea,61036b86f1dd5187a7b63c51,2021-07-29_23h01.50.520,Simcolourproject_2stim_asymm_v5,2020.2.10,Win32,60,61025ae37ef11b136ea224fe,,,,,,,,,1646,37.33339421,62.66665781,1,0,0,response1disk,,7,2.66668582,2.666656017,1,0,0,rectangle,2.66668582,2.666656017,1,0,0,2.66668582,2.666656017,1,0,0,0,67,67,114,1,,,,,,,,
,,,,,,,,,,,,,FF,,,,,,,,0.7392,,,,,,,,,,,,,,,,,,,,,,61018ac0b925ce90dfec65ea,61036b86f1dd5187a7b63c51,2021-07-29_23h01.50.520,Simcolourproject_2stim_asymm_v5,2020.2.10,Win32,60,61025ae37ef11b136ea224fe,,,,,,,,,4200,-30.66660782,72.6666581,1,0,0,response7disk,,0,2.66668582,-7.333344281,1,0,0,rectangle,2.66668582,-7.333344281,1,0,0,2.66668582,-7.333344281,1,0,0,0,68,68,157,1,,,,,,,,
,,,,,,,,,,,,,FF,,,,,,,,1.0514,,,,,,,,,,,,,,,,,,,,,,61018ac0b925ce90dfec65ea,61036b86f1dd5187a7b63c51,2021-07-29_23h01.50.520,Simcolourproject_2stim_asymm_v5,2020.2.10,Win32,60,61025ae37ef11b136ea224fe,,,,,,,,,807,-77.99998325,-24.00001144,1,0,0,response5disk,,2,-0.666606923,-1.07288E-05,1,0,0,rectangle,-0.666606923,-1.07288E-05,1,0,0,-0.666606923,-1.07288E-05,1,0,0,0,69,69,21,1,,,,,,,,
,,,,,,,,,,,,,FF,,,,,,,,0.7414,,,,,,,,,,,,,,,,,,,,,,61018ac0b925ce90dfec65ea,61036b86f1dd5187a7b63c51,2021-07-29_23h01.50.520,Simcolourproject_2stim_asymm_v5,2020.2.10,Win32,60,61025ae37ef11b136ea224fe,,,,,,,,,3568,46.66668713,73.33330444,1,0,0,response1disk,,7,3.333393196,2.666656017,1,0,0,rectangle,3.333393196,2.666656017,1,0,0,3.333393196,2.666656017,1,0,0,0,70,70,95,1,,,,,,,,
,,,,,,,,,,,,,FF,,,,,,,,0.8505,,,,,,,,,,,,,,,,,,,,,,61018ac0b925ce90dfec65ea,61036b86f1dd5187a7b63c51,2021-07-29_23h01.50.520,Simcolourproject_2stim_asymm_v5,2020.2.10,Win32,60,61025ae37ef11b136ea224fe,,,,,,,,,655,-65.33331621,-46.66667879,1,0,0,response5disk,,2,4.666685879,5.99998945,1,0,0,rectangle,4.666685879,5.99998945,1,0,0,4.666685879,5.99998945,1,0,0,0,71,71,72,1,,,,,,,,
,,,,,,,,,,,,,FF,,,,,,,,0.9521,,,,,,,,,,,,,,,,,,,,,,61018ac0b925ce90dfec65ea,61036b86f1dd5187a7b63c51,2021-07-29_23h01.50.520,Simcolourproject_2stim_asymm_v5,2020.2.10,Win32,60,61025ae37ef11b136ea224fe,,,,,,,,,2840,-66.66660889,-54.00001234,1,0,0,response5disk,,2,2.66668582,3.333322704,1,0,0,rectangle,2.66668582,3.333322704,1,0,0,2.66668582,3.333322704,1,0,0,0,72,72,3,1,,,,,,,,
,,,,,,,,,,,,,FF,,,,,,,,0.8333,,,,,,,,,,,,,,,,,,,,,,61018ac0b925ce90dfec65ea,61036b86f1dd5187a7b63c51,2021-07-29_23h01.50.520,Simcolourproject_2stim_asymm_v5,2020.2.10,Win32,60,61025ae37ef11b136ea224fe,,,,,,,,,1537,-29.33331513,-74.66667962,1,0,0,response5disk,,3,-1.999980986,-1.07288E-05,1,0,0,rectangle,-1.999980986,-1.07288E-05,1,0,0,-1.999980986,-1.07288E-05,1,0,0,0,73,73,153,1,,,,,,,,
,,,,,,,,,,,,,FF,,,,,,,,0.6836,,,,,,,,,,,,,,,,,,,,,,61018ac0b925ce90dfec65ea,61036b86f1dd5187a7b63c51,2021-07-29_23h01.50.520,Simcolourproject_2stim_asymm_v5,2020.2.10,Win32,60,61025ae37ef11b136ea224fe,,,,,,,,,3226,40.66668695,85.3333048,1,0,0,response1disk,,7,1.9735E-05,-0.666677415,1,0,0,rectangle,1.9735E-05,-0.666677415,1,0,0,1.9735E-05,-0.666677415,1,0,0,0,74,74,73,1,,,,,,,,
,,,,,,,,,,,,,FF,,,,,,,,0.8726,,,,,,,,,,,,,,,,,,,,,,61018ac0b925ce90dfec65ea,61036b86f1dd5187a7b63c51,2021-07-29_23h01.50.520,Simcolourproject_2stim_asymm_v5,2020.2.10,Win32,60,61025ae37ef11b136ea224fe,,,,,,,,,1173,29.33339397,69.33330433,1,0,0,response1disk,,7,-1.3333143,7.99998951,1,0,0,rectangle,20.66668636,-86.00001329,1,0,0,-7.999981165,3.99998939,1,0,0,0,75,75,127,1,,response3disk_3,TRUE,4,4,"[156,251,144,309,292,236,294,298,235,63,19,194,168,77,217,76,41,102,44,44]",1.4579,rectangle
,,,,,,,,,,,,,FF,,,,,,,,0.9822,,,,,,,,,,,,,,,,,,,,,,61018ac0b925ce90dfec65ea,61036b86f1dd5187a7b63c51,2021-07-29_23h01.50.520,Simcolourproject_2stim_asymm_v5,2020.2.10,Win32,60,61025ae37ef11b136ea224fe,,,,,,,,,3861,30.00001997,-76.66667968,1,0,0,response3disk,,4,-4.666607042,2.666656017,1,0,0,rectangle,86.00002164,43.33330355,1,0,0,2.000019133,-2.666677475,1,0,0,0,76,76,48,1,,response1disk_3,TRUE,6,6,"[156,251,144,309,292,236,294,298,235,63,19,194,168,77,217,76,41,102,44,44]",1.5973,rectangle
,,,,,,,,,,,,,FF,,,,,,,,0.8004,,,,,,,,,,,,,,,,,,,,,,61018ac0b925ce90dfec65ea,61036b86f1dd5187a7b63c51,2021-07-29_23h01.50.520,Simcolourproject_2stim_asymm_v5,2020.2.10,Win32,60,61025ae37ef11b136ea224fe,,,,,,,,,1490,37.33339421,53.99999088,1,0,0,response1disk,,7,-3.333314359,-6.666677594,1,0,0,rectangle,-3.333314359,-6.666677594,1,0,0,-3.333314359,-6.666677594,1,0,0,0,77,77,62,1,,,,,,,,
,,,,,,,,,,,,,FF,,,,,,,,0.707,,,,,,,,,,,,,,,,,,,,,,61018ac0b925ce90dfec65ea,61036b86f1dd5187a7b63c51,2021-07-29_23h01.50.520,Simcolourproject_2stim_asymm_v5,2020.2.10,Win32,60,61025ae37ef11b136ea224fe,,,,,,,,,2197,74.66668797,28.66665679,1,0,0,response1disk,,6,-1.999980986,0.666655958,1,0,0,rectangle,-1.999980986,0.666655958,1,0,0,-1.999980986,0.666655958,1,0,0,0,78,78,45,1,,,,,,,,
,,,,,,,,,,,,,FF,,,,,,,,0.9745,,,,,,,,,,,,,,,,,,,,,,61018ac0b925ce90dfec65ea,61036b86f1dd5187a7b63c51,2021-07-29_23h01.50.520,Simcolourproject_2stim_asymm_v5,2020.2.10,Win32,60,61025ae37ef11b136ea224fe,,,,,,,,,1271,33.33339409,81.33330468,1,0,0,response1disk,,7,-6.666607102,-1.333344102,1,0,0,rectangle,-6.666607102,-1.333344102,1,0,0,-6.666607102,-1.333344102,1,0,0,0,79,79,124,1,,,,,,,,
,,,,,,,,,,,,,FF,,,,,,,,0.7991,,,,,,,,,,,,,,,,,,,,,,61018ac0b925ce90dfec65ea,61036b86f1dd5187a7b63c51,2021-07-29_23h01.50.520,Simcolourproject_2stim_asymm_v5,2020.2.10,Win32,60,61025ae37ef11b136ea224fe,,,,,,,,,3418,-61.33331609,-36.66667849,1,0,0,response5disk,,2,-0.666606923,-13.33334446,1,0,0,rectangle,-0.666606923,-13.33334446,1,0,0,-0.666606923,-13.33334446,1,0,0,0,80,80,136,1,,,,,,,,
,,,,,,,,,,,,,FF,,,,,,,,1.763,,,,,,,,,,,,,,,,,,,,,,61018ac0b925ce90dfec65ea,61036b86f1dd5187a7b63c51,2021-07-29_23h01.50.520,Simcolourproject_2stim_asymm_v5,2020.2.10,Win32,60,61025ae37ef11b136ea224fe,,,,,,,,,1198,22.00001973,-76.66667968,1,0,0,response3disk,,4,-5.333314419,-2.000010788,1,0,0,rectangle,-5.333314419,-2.000010788,1,0,0,-5.333314419,-2.000010788,1,0,0,0,81,81,140,1,,,,,,,,
,,,,,,,,,,,,,FF,,,,,,,,0.7009,,,,,,,,,,,,,,,,,,,,,,61018ac0b925ce90dfec65ea,61036b86f1dd5187a7b63c51,2021-07-29_23h01.50.520,Simcolourproject_2stim_asymm_v5,2020.2.10,Win32,60,61025ae37ef11b136ea224fe,,,,,,,,,2202,42.66668701,75.3333045,1,0,0,response1disk,,7,1.9735E-05,-4.666677535,1,0,0,rectangle,1.9735E-05,-4.666677535,1,0,0,1.9735E-05,-4.666677535,1,0,0,0,82,82,28,1,,,,,,,,
,,,,,,,,,,,,,FF,,,,,,,,1.1384,,,,,,,,,,,,,,,,,,,,,,61018ac0b925ce90dfec65ea,61036b86f1dd5187a7b63c51,2021-07-29_23h01.50.520,Simcolourproject_2stim_asymm_v5,2020.2.10,Win32,60,61025ae37ef11b136ea224fe,,,,,,,,,742,27.33339391,47.33330367,1,0,0,response1disk,,7,4.000019193,11.33332294,1,0,0,rectangle,4.000019193,11.33332294,1,0,0,4.000019193,11.33332294,1,0,0,0,83,83,135,1,,,,,,,,
,,,,,,,,,,,,,FF,,,,,,,,1.1523,,,,,,,,,,,,,,,,,,,,,,61018ac0b925ce90dfec65ea,61036b86f1dd5187a7b63c51,2021-07-29_23h01.50.520,Simcolourproject_2stim_asymm_v5,2020.2.10,Win32,60,61025ae37ef11b136ea224fe,,,,,,,,,3996,-27.33331507,-56.66667908,1,0,0,response5disk,,3,-6.666607102,-6.666677594,1,0,0,rectangle,-6.666607102,-6.666677594,1,0,0,-6.666607102,-6.666677594,1,0,0,0,84,84,113,1,,,,,,,,
,,,,,,,,,,,,,FF,,,,,,,,1.0354,,,,,,,,,,,,,,,,,,,,,,61018ac0b925ce90dfec65ea,61036b86f1dd5187a7b63c51,2021-07-29_23h01.50.520,Simcolourproject_2stim_asymm_v5,2020.2.10,Win32,60,61025ae37ef11b136ea224fe,,,,,,,,,2372,26.66668653,-59.33334583,1,0,0,response3disk,,4,4.000019193,-4.000010848,1,0,0,rectangle,4.000019193,-4.000010848,1,0,0,4.000019193,-4.000010848,1,0,0,0,85,85,111,1,,,,,,,,
,,,,,,,,,,,,,FF,,,,,,,,0.7149,,,,,,,,,,,,,,,,,,,,,,61018ac0b925ce90dfec65ea,61036b86f1dd5187a7b63c51,2021-07-29_23h01.50.520,Simcolourproject_2stim_asymm_v5,2020.2.10,Win32,60,61025ae37ef11b136ea224fe,,,,,,,,,3542,32.66668671,59.99999106,1,0,0,response1disk,,7,-1.3333143,-2.000010788,1,0,0,rectangle,-1.3333143,-2.000010788,1,0,0,-1.3333143,-2.000010788,1,0,0,0,86,86,151,1,,,,,,,,
,,,,,,,,,,,,,FF,,,,,,,,0.7672,,,,,,,,,,,,,,,,,,,,,,61018ac0b925ce90dfec65ea,61036b86f1dd5187a7b63c51,2021-07-29_23h01.50.520,Simcolourproject_2stim_asymm_v5,2020.2.10,Win32,60,61025ae37ef11b136ea224fe,,,,,,,,,2225,42.00002033,81.99999171,1,0,0,response1disk,,7,6.000019252,11.33332294,1,0,0,rectangle,6.000019252,11.33332294,1,0,0,6.000019252,11.33332294,1,0,0,0,87,87,83,1,,,,,,,,
,,,,,,,,,,,,,FF,,,,,,,,0.9698,,,,,,,,,,,,,,,,,,,,,,61018ac0b925ce90dfec65ea,61036b86f1dd5187a7b63c51,2021-07-29_23h01.50.520,Simcolourproject_2stim_asymm_v5,2020.2.10,Win32,60,61025ae37ef11b136ea224fe,,,,,,,,,1058,-43.33331555,-70.6666795,1,0,0,response5disk,,3,-3.333314359,-1.07288E-05,1,0,0,rectangle,-3.333314359,-1.07288E-05,1,0,0,-3.333314359,-1.07288E-05,1,0,0,0,88,88,2,1,,,,,,,,
,,,,,,,,,,,,,FF,,,,,,,,0.697,,,,,,,,,,,,,,,,,,,,,,61018ac0b925ce90dfec65ea,61036b86f1dd5187a7b63c51,2021-07-29_23h01.50.520,Simcolourproject_2stim_asymm_v5,2020.2.10,Win32,60,61025ae37ef11b136ea224fe,,,,,,,,,364,40.66668695,83.99999177,1,0,0,response1disk,,7,2.66668582,-1.333344102,1,0,0,rectangle,2.66668582,-1.333344102,1,0,0,2.66668582,-1.333344102,1,0,0,0,89,89,33,1,,,,,,,,
,,,,,,,,,,,,,FF,,,,,,,,1.2172,,,,,,,,,,,,,,,,,,,,,,61018ac0b925ce90dfec65ea,61036b86f1dd5187a7b63c51,2021-07-29_23h01.50.520,Simcolourproject_2stim_asymm_v5,2020.2.10,Win32,60,61025ae37ef11b136ea224fe,,,,,,,,,4351,-33.99998194,-73.33334625,1,0,0,response5disk,,3,0.66668576,7.99998951,1,0,0,rectangle,0.66668576,7.99998951,1,0,0,0.66668576,7.99998951,1,0,0,0,90,90,132,1,,,,,,,,
,,,,,,,,,,,,,FF,,,,,,,,1.117,,,,,,,,,,,,,,,,,,,,,,61018ac0b925ce90dfec65ea,61036b86f1dd5187a7b63c51,2021-07-29_23h01.50.520,Simcolourproject_2stim_asymm_v5,2020.2.10,Win32,60,61025ae37ef11b136ea224fe,,,,,,,,,367,-61.99998277,39.33330343,1,0,0,response7disk,,1,-4.666607042,-1.333344102,1,0,0,rectangle,-4.666607042,-1.333344102,1,0,0,-4.666607042,-1.333344102,1,0,0,0,91,91,131,1,,,,,,,,
,,,,,,,,,,,,,FF,,,,,,,,0.8494,,,,,,,,,,,,,,,,,,,,,,61018ac0b925ce90dfec65ea,61036b86f1dd5187a7b63c51,2021-07-29_23h01.50.520,Simcolourproject_2stim_asymm_v5,2020.2.10,Win32,60,61025ae37ef11b136ea224fe,,,,,,,,,2468,39.33339427,42.66665721,1,0,0,response1disk,,7,4.666685879,-10.00001103,1,0,0,rectangle,4.666685879,-10.00001103,1,0,0,4.666685879,-10.00001103,1,0,0,0,92,92,41,1,,,,,,,,
,,,,,,,,,,,,,FF,,,,,,,,1.3336,,,,,,,,,,,,,,,,,,,,,,61018ac0b925ce90dfec65ea,61036b86f1dd5187a7b63c51,2021-07-29_23h01.50.520,Simcolourproject_2stim_asymm_v5,2020.2.10,Win32,60,61025ae37ef11b136ea224fe,,,,,,,,,1584,72.66668791,46.66665733,1,0,0,response1disk,,6,-0.666606923,5.99998945,1,0,0,rectangle,-0.666606923,5.99998945,1,0,0,-0.666606923,5.99998945,1,0,0,0,93,93,142,1,,,,,,,,
,,,,,,,,,,,,,FF,,,,,,,,1.1382,,,,,,,,,,,,,,,,,,,,,,61018ac0b925ce90dfec65ea,61036b86f1dd5187a7b63c51,2021-07-29_23h01.50.520,Simcolourproject_2stim_asymm_v5,2020.2.10,Win32,60,61025ae37ef11b136ea224fe,,,,,,,,,2336,22.00001973,-70.00001281,1,0,0,response3disk,,4,4.000019193,2.666656017,1,0,0,rectangle,4.000019193,2.666656017,1,0,0,4.000019193,2.666656017,1,0,0,0,94,94,39,1,,,,,,,,
,,,,,,,,,,,,,FF,,,,,,,,0.7542,,,,,,,,,,,,,,,,,,,,,,61018ac0b925ce90dfec65ea,61036b86f1dd5187a7b63c51,2021-07-29_23h01.50.520,Simcolourproject_2stim_asymm_v5,2020.2.10,Win32,60,61025ae37ef11b136ea224fe,,,,,,,,,3510,-29.99998182,79.99999166,1,0,0,response7disk,,0,2.000019133,-0.666677415,1,0,0,rectangle,2.000019133,-0.666677415,1,0,0,2.000019133,-0.666677415,1,0,0,0,95,95,143,1,,,,,,,,
,,,,,,,,,,,,,FF,,,,,,,,0.6528,,,,,,,,,,,,,,,,,,,,,,61018ac0b925ce90dfec65ea,61036b86f1dd5187a7b63c51,2021-07-29_23h01.50.520,Simcolourproject_2stim_asymm_v5,2020.2.10,Win32,60,61025ae37ef11b136ea224fe,,,,,,,,,959,39.33339427,66.66665792,1,0,0,response1disk,,7,1.333393137,5.333322763,1,0,0,rectangle,1.333393137,5.333322763,1,0,0,1.333393137,5.333322763,1,0,0,0,96,96,58,1,,,,,,,,
,,,,,,,,,,,,,FF,,,,,,,,7.9488,,,,,,,,,,,,,,,,,,,,,,61018ac0b925ce90dfec65ea,61036b86f1dd5187a7b63c51,2021-07-29_23h01.50.520,Simcolourproject_2stim_asymm_v5,2020.2.10,Win32,60,61025ae37ef11b136ea224fe,,,,,,,,,2217,59.33335418,-33.33334506,1,0,0,response3disk,,5,-4.666607042,-7.333344281,1,0,0,rectangle,-4.666607042,-7.333344281,1,0,0,-4.666607042,-7.333344281,1,0,0,0,97,97,82,1,,,,,,,,
,,,,,,,,,,,,,FF,,,,,,,,0.7861,,,,,,,,,,,,,,,,,,,,,,61018ac0b925ce90dfec65ea,61036b86f1dd5187a7b63c51,2021-07-29_23h01.50.520,Simcolourproject_2stim_asymm_v5,2020.2.10,Win32,60,61025ae37ef11b136ea224fe,,,,,,,,,4163,-37.99998206,84.66665846,1,0,0,response7disk,,0,5.333393256,-6.000010908,1,0,0,rectangle,5.333393256,-6.000010908,1,0,0,5.333393256,-6.000010908,1,0,0,0,98,98,13,1,,,,,,,,
,,,,,,,,,,,,,FF,,,,,,,,1.3375,,,,,,,,,,,,,,,,,,,,,,61018ac0b925ce90dfec65ea,61036b86f1dd5187a7b63c51,2021-07-29_23h01.50.520,Simcolourproject_2stim_asymm_v5,2020.2.10,Win32,60,61025ae37ef11b136ea224fe,,,,,,,,,699,77.33335471,21.3333029,1,0,0,response1disk,,6,6.666685939,-7.333344281,1,0,0,rectangle,6.666685939,-7.333344281,1,0,0,6.666685939,-7.333344281,1,0,0,0,99,99,147,1,,,,,,,,
,,,,,,,,,,,,,FF,,,,,,,,11.0467,,,,,,,,,,,,,,,,,,,,,,61018ac0b925ce90dfec65ea,61036b86f1dd5187a7b63c51,2021-07-29_23h01.50.520,Simcolourproject_2stim_asymm_v5,2020.2.10,Win32,60,61025ae37ef11b136ea224fe,,,,,,,,,1088,66.66668773,-24.66667813,1,0,0,response3disk,,5,-1.3333143,2.666656017,1,0,0,rectangle,-1.3333143,2.666656017,1,0,0,-1.3333143,2.666656017,1,0,0,0,100,100,158,1,,,,,,,,
,,,,,,,,,,,,,FF,,,,,,,,2.3666,,,,,,,,,,,,,,,,,,,,,,61018ac0b925ce90dfec65ea,61036b86f1dd5187a7b63c51,2021-07-29_23h01.50.520,Simcolourproject_2stim_asymm_v5,2020.2.10,Win32,60,61025ae37ef11b136ea224fe,,,,,,,,,280,88.66668838,31.99999022,1,0,0,response1disk,,6,2.66668582,-3.333344162,1,0,0,rectangle,25.33339385,-78.66667974,1,0,0,-9.333314538,-4.666677535,1,0,0,0,101,101,121,1,,response3disk_3,TRUE,4,4,"[156,251,144,309,292,236,294,298,235,63,19,194,168,77,217,76,41,102,44,44]",1.572,rectangle
,,,,,,,,,,,,,FF,,,,,,,,2.8336,,,,,,,,,,,,,,,,,,,,,,61018ac0b925ce90dfec65ea,61036b86f1dd5187a7b63c51,2021-07-29_23h01.50.520,Simcolourproject_2stim_asymm_v5,2020.2.10,Win32,60,61025ae37ef11b136ea224fe,,,,,,,,,1188,-71.99998307,-34.66667843,1,0,0,response5disk,,2,1.333393137,-10.00001103,1,0,0,rectangle,1.333393137,-10.00001103,1,0,0,1.333393137,-10.00001103,1,0,0,0,102,102,154,1,,,,,,,,
,,,,,,,,,,,,,FF,,,,,,,,1.1212,,,,,,,,,,,,,,,,,,,,,,61018ac0b925ce90dfec65ea,61036b86f1dd5187a7b63c51,2021-07-29_23h01.50.520,Simcolourproject_2stim_asymm_v5,2020.2.10,Win32,60,61025ae37ef11b136ea224fe,,,,,,,,,1620,40.66668695,77.33330456,1,0,0,response1disk,,7,0.66668576,-3.333344162,1,0,0,rectangle,0.66668576,-3.333344162,1,0,0,0.66668576,-3.333344162,1,0,0,0,103,103,52,1,,,,,,,,
,,,,,,,,,,,,,FF,,,,,,,,5.0674,,,,,,,,,,,,,,,,,,,,,,61018ac0b925ce90dfec65ea,61036b86f1dd5187a7b63c51,2021-07-29_23h01.50.520,Simcolourproject_2stim_asymm_v5,2020.2.10,Win32,60,61025ae37ef11b136ea224fe,,,,,,,,,2345,28.66668659,-91.33334678,1,0,0,response3disk,,4,-2.666606983,-2.666677475,1,0,0,rectangle,-2.666606983,-2.666677475,1,0,0,-2.666606983,-2.666677475,1,0,0,0,104,104,141,1,,,,,,,,
,,,,,,,,,,,,,FF,,,,,,,,3.8682,,,,,,,,,,,,,,,,,,,,,,61018ac0b925ce90dfec65ea,61036b86f1dd5187a7b63c51,2021-07-29_23h01.50.520,Simcolourproject_2stim_asymm_v5,2020.2.10,Win32,60,61025ae37ef11b136ea224fe,,,,,,,,,1459,88.66668838,38.66665709,1,0,0,response1disk,,6,-0.666606923,-2.666677475,1,0,0,rectangle,-0.666606923,-2.666677475,1,0,0,-0.666606923,-2.666677475,1,0,0,0,105,105,14,1,,,,,,,,
,,,,,,,,,,,,,FF,,,,,,,,2.1859,,,,,,,,,,,,,,,,,,,,,,61018ac0b925ce90dfec65ea,61036b86f1dd5187a7b63c51,2021-07-29_23h01.50.520,Simcolourproject_2stim_asymm_v5,2020.2.10,Win32,60,61025ae37ef11b136ea224fe,,,,,,,,,2425,-79.99998331,-32.00001168,1,0,0,response5disk,,2,-2.666606983,1.333322644,1,0,0,rectangle,-2.666606983,1.333322644,1,0,0,-2.666606983,1.333322644,1,0,0,0,106,106,117,1,,,,,,,,
,,,,,,,,,,,,,FF,,,,,,,,2.7162,,,,,,,,,,,,,,,,,,,,,,61018ac0b925ce90dfec65ea,61036b86f1dd5187a7b63c51,2021-07-29_23h01.50.520,Simcolourproject_2stim_asymm_v5,2020.2.10,Win32,60,61025ae37ef11b136ea224fe,,,,,,,,,440,-37.33331537,-70.6666795,1,0,0,response5disk,,3,5.333393256,4.666656077,1,0,0,rectangle,5.333393256,4.666656077,1,0,0,5.333393256,4.666656077,1,0,0,0,107,107,116,1,,,,,,,,
,,,,,,,,,,,,,FF,,,,,,,,1.1223,,,,,,,,,,,,,,,,,,,,,,61018ac0b925ce90dfec65ea,61036b86f1dd5187a7b63c51,2021-07-29_23h01.50.520,Simcolourproject_2stim_asymm_v5,2020.2.10,Win32,60,61025ae37ef11b136ea224fe,,,,,,,,,3060,80.66668814,39.33330343,1,0,0,response1disk,,6,-1.999980986,-1.333344102,1,0,0,rectangle,-1.999980986,-1.333344102,1,0,0,-1.999980986,-1.333344102,1,0,0,0,108,108,84,1,,,,,,,,
,,,,,,,,,,,,,FF,,,,,,,,1.6744,,,,,,,,,,,,,,,,,,,,,,61018ac0b925ce90dfec65ea,61036b86f1dd5187a7b63c51,2021-07-29_23h01.50.520,Simcolourproject_2stim_asymm_v5,2020.2.10,Win32,60,61025ae37ef11b136ea224fe,,,,,,,,,3911,-52.66660847,-89.33334672,1,0,0,response5disk,,3,-2.666606983,-2.666677475,1,0,0,rectangle,-2.666606983,-2.666677475,1,0,0,-2.666606983,-2.666677475,1,0,0,0,109,109,54,1,,,,,,,,
,,,,,,,,,,,,,FF,,,,,,,,1.1055,,,,,,,,,,,,,,,,,,,,,,61018ac0b925ce90dfec65ea,61036b86f1dd5187a7b63c51,2021-07-29_23h01.50.520,Simcolourproject_2stim_asymm_v5,2020.2.10,Win32,60,61025ae37ef11b136ea224fe,,,,,,,,,651,92.6666885,45.33330361,1,0,0,response1disk,,6,0.66668576,-6.000010908,1,0,0,rectangle,0.66668576,-6.000010908,1,0,0,0.66668576,-6.000010908,1,0,0,0,110,110,36,1,,,,,,,,
,,,,,,,,,,,,,FF,,,,,,,,0.9207,,,,,,,,,,,,,,,,,,,,,,61018ac0b925ce90dfec65ea,61036b86f1dd5187a7b63c51,2021-07-29_23h01.50.520,Simcolourproject_2stim_asymm_v5,2020.2.10,Win32,60,61025ae37ef11b136ea224fe,,,,,,,,,3849,-40.66660812,-70.6666795,1,0,0,response5disk,,3,2.66668582,2.666656017,1,0,0,rectangle,2.66668582,2.666656017,1,0,0,2.66668582,2.666656017,1,0,0,0,111,111,109,1,,,,,,,,
,,,,,,,,,,,,,FF,,,,,,,,0.9545,,,,,,,,,,,,,,,,,,,,,,61018ac0b925ce90dfec65ea,61036b86f1dd5187a7b63c51,2021-07-29_23h01.50.520,Simcolourproject_2stim_asymm_v5,2020.2.10,Win32,60,61025ae37ef11b136ea224fe,,,,,,,,,2360,-73.33331645,-54.00001234,1,0,0,response5disk,,2,-4.666607042,1.999989331,1,0,0,rectangle,-4.666607042,1.999989331,1,0,0,-4.666607042,1.999989331,1,0,0,0,112,112,19,1,,,,,,,,
,,,,,,,,,,,,,FF,,,,,,,,0.8607,,,,,,,,,,,,,,,,,,,,,,61018ac0b925ce90dfec65ea,61036b86f1dd5187a7b63c51,2021-07-29_23h01.50.520,Simcolourproject_2stim_asymm_v5,2020.2.10,Win32,60,61025ae37ef11b136ea224fe,,,,,,,,,851,42.00002033,57.33330397,1,0,0,response1disk,,7,1.333393137,-0.666677415,1,0,0,rectangle,1.333393137,-0.666677415,1,0,0,1.333393137,-0.666677415,1,0,0,0,113,113,34,1,,,,,,,,
,,,,,,,,,,,,,FF,,,,,,,,1.0669,,,,,,,,,,,,,,,,,,,,,,61018ac0b925ce90dfec65ea,61036b86f1dd5187a7b63c51,2021-07-29_23h01.50.520,Simcolourproject_2stim_asymm_v5,2020.2.10,Win32,60,61025ae37ef11b136ea224fe,,,,,,,,,4111,74.00002128,31.99999022,1,0,0,response1disk,,6,-8.666607161,-2.000010788,1,0,0,rectangle,-8.666607161,-2.000010788,1,0,0,-8.666607161,-2.000010788,1,0,0,0,114,114,60,1,,,,,,,,
,,,,,,,,,,,,,FF,,,,,,,,1.0709,,,,,,,,,,,,,,,,,,,,,,61018ac0b925ce90dfec65ea,61036b86f1dd5187a7b63c51,2021-07-29_23h01.50.520,Simcolourproject_2stim_asymm_v5,2020.2.10,Win32,60,61025ae37ef11b136ea224fe,,,,,,,,,2614,58.0000208,-38.66667855,1,0,0,response3disk,,5,4.000019193,-6.000010908,1,0,0,rectangle,4.000019193,-6.000010908,1,0,0,4.000019193,-6.000010908,1,0,0,0,115,115,31,1,,,,,,,,
,,,,,,,,,,,,,FF,,,,,,,,1.4229,,,,,,,,,,,,,,,,,,,,,,61018ac0b925ce90dfec65ea,61036b86f1dd5187a7b63c51,2021-07-29_23h01.50.520,Simcolourproject_2stim_asymm_v5,2020.2.10,Win32,60,61025ae37ef11b136ea224fe,,,,,,,,,2995,-33.33331525,-75.33334631,1,0,0,response5disk,,3,-0.666606923,-6.666677594,1,0,0,rectangle,-0.666606923,-6.666677594,1,0,0,-0.666606923,-6.666677594,1,0,0,0,116,116,32,1,,,,,,,,
,,,,,,,,,,,,,FF,,,,,,,,1.201,,,,,,,,,,,,,,,,,,,,,,61018ac0b925ce90dfec65ea,61036b86f1dd5187a7b63c51,2021-07-29_23h01.50.520,Simcolourproject_2stim_asymm_v5,2020.2.10,Win32,60,61025ae37ef11b136ea224fe,,,,,,,,,3713,18.00001961,-80.00001311,1,0,0,response3disk,,4,1.333393137,-12.00001109,1,0,0,rectangle,1.333393137,-12.00001109,1,0,0,1.333393137,-12.00001109,1,0,0,0,117,117,130,1,,,,,,,,
,,,,,,,,,,,,,FF,,,,,,,,0.8169,,,,,,,,,,,,,,,,,,,,,,61018ac0b925ce90dfec65ea,61036b86f1dd5187a7b63c51,2021-07-29_23h01.50.520,Simcolourproject_2stim_asymm_v5,2020.2.10,Win32,60,61025ae37ef11b136ea224fe,,,,,,,,,1691,64.66668767,-21.3333447,1,0,0,response3disk,,5,-10.66660722,10.66665626,1,0,0,rectangle,-10.66660722,10.66665626,1,0,0,-10.66660722,10.66665626,1,0,0,0,118,118,115,1,,,,,,,,
,,,,,,,,,,,,,FF,,,,,,,,0.8165,,,,,,,,,,,,,,,,,,,,,,61018ac0b925ce90dfec65ea,61036b86f1dd5187a7b63c51,2021-07-29_23h01.50.520,Simcolourproject_2stim_asymm_v5,2020.2.10,Win32,60,61025ae37ef11b136ea224fe,,,,,,,,,1802,30.00001997,91.99999201,1,0,0,response1disk,,7,4.000019193,5.333322763,1,0,0,rectangle,4.000019193,5.333322763,1,0,0,4.000019193,5.333322763,1,0,0,0,119,119,104,1,,,,,,,,
,,,,,,,,,,,,,FF,,,,,,,,0.7657,,,,,,,,,,,,,,,,,,,,,,61018ac0b925ce90dfec65ea,61036b86f1dd5187a7b63c51,2021-07-29_23h01.50.520,Simcolourproject_2stim_asymm_v5,2020.2.10,Win32,60,61025ae37ef11b136ea224fe,,,,,,,,,4297,28.66668659,48.66665739,1,0,0,response1disk,,7,4.666685879,5.99998945,1,0,0,rectangle,4.666685879,5.99998945,1,0,0,4.666685879,5.99998945,1,0,0,0,120,120,15,1,,,,,,,,
,,,,,,,,,,,,,FF,,,,,,,,1.0499,,,,,,,,,,,,,,,,,,,,,,61018ac0b925ce90dfec65ea,61036b86f1dd5187a7b63c51,2021-07-29_23h01.50.520,Simcolourproject_2stim_asymm_v5,2020.2.10,Win32,60,61025ae37ef11b136ea224fe,,,,,,,,,1283,66.00002104,39.33330343,1,0,0,response1disk,,6,-1.3333143,1.999989331,1,0,0,rectangle,-1.3333143,1.999989331,1,0,0,-1.3333143,1.999989331,1,0,0,0,121,121,57,1,,,,,,,,
,,,,,,,,,,,,,FF,,,,,,,,0.9192,,,,,,,,,,,,,,,,,,,,,,61018ac0b925ce90dfec65ea,61036b86f1dd5187a7b63c51,2021-07-29_23h01.50.520,Simcolourproject_2stim_asymm_v5,2020.2.10,Win32,60,61025ae37ef11b136ea224fe,,,,,,,,,1844,68.0000211,44.66665727,1,0,0,response1disk,,6,-3.333314359,1.999989331,1,0,0,rectangle,-3.333314359,1.999989331,1,0,0,-3.333314359,1.999989331,1,0,0,0,122,122,6,1,,,,,,,,
,,,,,,,,,,,,,FF,,,,,,,,1.1163,,,,,,,,,,,,,,,,,,,,,,61018ac0b925ce90dfec65ea,61036b86f1dd5187a7b63c51,2021-07-29_23h01.50.520,Simcolourproject_2stim_asymm_v5,2020.2.10,Win32,60,61025ae37ef11b136ea224fe,,,,,,,,,1856,78.66668808,29.33330313,1,0,0,response1disk,,6,12.00001943,-6.666677594,1,0,0,rectangle,12.00001943,-6.666677594,1,0,0,12.00001943,-6.666677594,1,0,0,0,123,123,93,1,,,,,,,,
,,,,,,,,,,,,,FF,,,,,,,,0.7249,,,,,,,,,,,,,,,,,,,,,,61018ac0b925ce90dfec65ea,61036b86f1dd5187a7b63c51,2021-07-29_23h01.50.520,Simcolourproject_2stim_asymm_v5,2020.2.10,Win32,60,61025ae37ef11b136ea224fe,,,,,,,,,3696,38.66668689,73.33330444,1,0,0,response1disk,,7,2.66668582,7.333322823,1,0,0,rectangle,2.66668582,7.333322823,1,0,0,2.66668582,7.333322823,1,0,0,0,124,124,139,1,,,,,,,,
,,,,,,,,,,,,,FF,,,,,,,,0.9166,,,,,,,,,,,,,,,,,,,,,,61018ac0b925ce90dfec65ea,61036b86f1dd5187a7b63c51,2021-07-29_23h01.50.520,Simcolourproject_2stim_asymm_v5,2020.2.10,Win32,60,61025ae37ef11b136ea224fe,,,,,,,,,3936,-53.99998254,81.99999171,1,0,0,response7disk,,0,-2.666606983,5.333322763,1,0,0,rectangle,-2.666606983,5.333322763,1,0,0,-2.666606983,5.333322763,1,0,0,0,125,125,16,1,,,,,,,,
,,,,,,,,,,,,,FF,,,,,,,,0.8353,,,,,,,,,,,,,,,,,,,,,,61018ac0b925ce90dfec65ea,61036b86f1dd5187a7b63c51,2021-07-29_23h01.50.520,Simcolourproject_2stim_asymm_v5,2020.2.10,Win32,60,61025ae37ef11b136ea224fe,,,,,,,,,178,63.33335429,52.66665751,1,0,0,response1disk,,6,-3.999981046,1.999989331,1,0,0,rectangle,-3.999981046,1.999989331,1,0,0,-3.999981046,1.999989331,1,0,0,0,126,126,89,1,,,,,,,,
,,,,,,,,,,,,,FF,,,,,,,,0.7003,,,,,,,,,,,,,,,,,,,,,,61018ac0b925ce90dfec65ea,61036b86f1dd5187a7b63c51,2021-07-29_23h01.50.520,Simcolourproject_2stim_asymm_v5,2020.2.10,Win32,60,61025ae37ef11b136ea224fe,,,,,,,,,4109,30.66668665,70.66665804,1,0,0,response1disk,,7,2.000019133,2.666656017,1,0,0,rectangle,2.000019133,2.666656017,1,0,0,2.000019133,2.666656017,1,0,0,0,127,127,1,1,,,,,,,,
,,,,,,,,,,,,,FF,,,,,,,,1.8839,,,,,,,,,,,,,,,,,,,,,,61018ac0b925ce90dfec65ea,61036b86f1dd5187a7b63c51,2021-07-29_23h01.50.520,Simcolourproject_2stim_asymm_v5,2020.2.10,Win32,60,61025ae37ef11b136ea224fe,,,,,,,,,4149,49.33335388,-97.33334696,1,0,0,response3disk,,4,2.000019133,3.333322704,1,0,0,rectangle,2.000019133,3.333322704,1,0,0,2.000019133,3.333322704,1,0,0,0,128,128,67,1,,,,,,,,
,,,,,,,,,,,,,FF,,,,,,,,0.8496,,,,,,,,,,,,,,,,,,,,,,61018ac0b925ce90dfec65ea,61036b86f1dd5187a7b63c51,2021-07-29_23h01.50.520,Simcolourproject_2stim_asymm_v5,2020.2.10,Win32,60,61025ae37ef11b136ea224fe,,,,,,,,,4018,41.33339433,81.33330468,1,0,0,response1disk,,7,4.000019193,2.666656017,1,0,0,rectangle,4.000019193,2.666656017,1,0,0,4.000019193,2.666656017,1,0,0,0,129,129,126,1,,,,,,,,
,,,,,,,,,,,,,FF,,,,,,,,0.4952,,,,,,,,,,,,,,,,,,,,,,61018ac0b925ce90dfec65ea,61036b86f1dd5187a7b63c51,2021-07-29_23h01.50.520,Simcolourproject_2stim_asymm_v5,2020.2.10,Win32,60,61025ae37ef11b136ea224fe,,,,,,,,,3890,70.66668785,35.99999034,1,0,0,response1disk,,6,-1.3333143,-1.07288E-05,1,0,0,rectangle,-1.3333143,-1.07288E-05,1,0,0,-1.3333143,-1.07288E-05,1,0,0,0,130,130,122,1,,,,,,,,
,,,,,,,,,,,,,FF,,,,,,,,0.8992,,,,,,,,,,,,,,,,,,,,,,61018ac0b925ce90dfec65ea,61036b86f1dd5187a7b63c51,2021-07-29_23h01.50.520,Simcolourproject_2stim_asymm_v5,2020.2.10,Win32,60,61025ae37ef11b136ea224fe,,,,,,,,,4215,28.66668659,64.66665787,1,0,0,response1disk,,7,-1.999980986,-6.000010908,1,0,0,rectangle,-1.999980986,-6.000010908,1,0,0,-1.999980986,-6.000010908,1,0,0,0,131,131,46,1,,,,,,,,
,,,,,,,,,,,,,FF,,,,,,,,0.7291,,,,,,,,,,,,,,,,,,,,,,61018ac0b925ce90dfec65ea,61036b86f1dd5187a7b63c51,2021-07-29_23h01.50.520,Simcolourproject_2stim_asymm_v5,2020.2.10,Win32,60,61025ae37ef11b136ea224fe,,,,,,,,,1539,42.66668701,21.99998993,1,0,0,response1disk,,6,5.333393256,5.333322763,1,0,0,rectangle,5.333393256,5.333322763,1,0,0,5.333393256,5.333322763,1,0,0,0,132,132,50,1,,,,,,,,
,,,,,,,,,,,,,FF,,,,,,,,0.8717,,,,,,,,,,,,,,,,,,,,,,61018ac0b925ce90dfec65ea,61036b86f1dd5187a7b63c51,2021-07-29_23h01.50.520,Simcolourproject_2stim_asymm_v5,2020.2.10,Win32,60,61025ae37ef11b136ea224fe,,,,,,,,,1438,36.66668683,63.99999118,1,0,0,response1disk,,7,-3.999981046,0.666655958,1,0,0,rectangle,-3.999981046,0.666655958,1,0,0,-3.999981046,0.666655958,1,0,0,0,133,133,23,1,,,,,,,,
,,,,,,,,,,,,,FF,,,,,,,,0.7493,,,,,,,,,,,,,,,,,,,,,,61018ac0b925ce90dfec65ea,61036b86f1dd5187a7b63c51,2021-07-29_23h01.50.520,Simcolourproject_2stim_asymm_v5,2020.2.10,Win32,60,61025ae37ef11b136ea224fe,,,,,,,,,2518,69.33335447,45.33330361,1,0,0,response1disk,,6,3.333393196,7.99998951,1,0,0,rectangle,3.333393196,7.99998951,1,0,0,3.333393196,7.99998951,1,0,0,0,134,134,144,1,,,,,,,,
,,,,,,,,,,,,,FF,,,,,,,,0.6728,,,,,,,,,,,,,,,,,,,,,,61018ac0b925ce90dfec65ea,61036b86f1dd5187a7b63c51,2021-07-29_23h01.50.520,Simcolourproject_2stim_asymm_v5,2020.2.10,Win32,60,61025ae37ef11b136ea224fe,,,,,,,,,3774,33.33339409,80.66665834,1,0,0,response1disk,,7,0.66668576,13.99998969,1,0,0,rectangle,0.66668576,13.99998969,1,0,0,0.66668576,13.99998969,1,0,0,0,135,135,96,1,,,,,,,,
,,,,,,,,,,,,,FF,,,,,,,,0.9685,,,,,,,,,,,,,,,,,,,,,,61018ac0b925ce90dfec65ea,61036b86f1dd5187a7b63c51,2021-07-29_23h01.50.520,Simcolourproject_2stim_asymm_v5,2020.2.10,Win32,60,61025ae37ef11b136ea224fe,,,,,,,,,632,-43.33331555,-74.66667962,1,0,0,response5disk,,3,-1.999980986,4.666656077,1,0,0,rectangle,-1.999980986,4.666656077,1,0,0,-1.999980986,4.666656077,1,0,0,0,136,136,10,1,,,,,,,,
,,,,,,,,,,,,,FF,,,,,,,,0.8673,,,,,,,,,,,,,,,,,,,,,,61018ac0b925ce90dfec65ea,61036b86f1dd5187a7b63c51,2021-07-29_23h01.50.520,Simcolourproject_2stim_asymm_v5,2020.2.10,Win32,60,61025ae37ef11b136ea224fe,,,,,,,,,3385,-63.33331615,30.66665685,1,0,0,response7disk,,1,-8.666607161,7.333322823,1,0,0,rectangle,-8.666607161,7.333322823,1,0,0,-8.666607161,7.333322823,1,0,0,0,137,137,102,1,,,,,,,,
,,,,,,,,,,,,,FF,,,,,,,,0.8687,,,,,,,,,,,,,,,,,,,,,,61018ac0b925ce90dfec65ea,61036b86f1dd5187a7b63c51,2021-07-29_23h01.50.520,Simcolourproject_2stim_asymm_v5,2020.2.10,Win32,60,61025ae37ef11b136ea224fe,,,,,,,,,3152,-25.33331501,-56.0000124,1,0,0,response5disk,,3,7.333393315,5.99998945,1,0,0,rectangle,7.333393315,5.99998945,1,0,0,7.333393315,5.99998945,1,0,0,0,138,138,26,1,,,,,,,,
,,,,,,,,,,,,,FF,,,,,,,,0.6378,,,,,,,,,,,,,,,,,,,,,,61018ac0b925ce90dfec65ea,61036b86f1dd5187a7b63c51,2021-07-29_23h01.50.520,Simcolourproject_2stim_asymm_v5,2020.2.10,Win32,60,61025ae37ef11b136ea224fe,,,,,,,,,1494,29.33339397,63.99999118,1,0,0,response1disk,,7,-5.333314419,-3.333344162,1,0,0,rectangle,-5.333314419,-3.333344162,1,0,0,-5.333314419,-3.333344162,1,0,0,0,139,139,9,1,,,,,,,,
,,,,,,,,,,,,,FF,,,,,,,,0.6668,,,,,,,,,,,,,,,,,,,,,,61018ac0b925ce90dfec65ea,61036b86f1dd5187a7b63c51,2021-07-29_23h01.50.520,Simcolourproject_2stim_asymm_v5,2020.2.10,Win32,60,61025ae37ef11b136ea224fe,,,,,,,,,1797,59.33335418,25.33330301,1,0,0,response1disk,,6,6.000019252,-4.000010848,1,0,0,rectangle,6.000019252,-4.000010848,1,0,0,6.000019252,-4.000010848,1,0,0,0,140,140,68,1,,,,,,,,
,,,,,,,,,,,,,FF,,,,,,,,1.318,,,,,,,,,,,,,,,,,,,,,,61018ac0b925ce90dfec65ea,61036b86f1dd5187a7b63c51,2021-07-29_23h01.50.520,Simcolourproject_2stim_asymm_v5,2020.2.10,Win32,60,61025ae37ef11b136ea224fe,,,,,,,,,2939,16.66668624,75.3333045,1,0,0,response1disk,,7,-6.666607102,-9.33334434,1,0,0,rectangle,-6.666607102,-9.33334434,1,0,0,-6.666607102,-9.33334434,1,0,0,0,141,141,78,1,,,,,,,,
,,,,,,,,,,,,,FF,,,,,,,,0.8542,,,,,,,,,,,,,,,,,,,,,,61018ac0b925ce90dfec65ea,61036b86f1dd5187a7b63c51,2021-07-29_23h01.50.520,Simcolourproject_2stim_asymm_v5,2020.2.10,Win32,60,61025ae37ef11b136ea224fe,,,,,,,,,1750,-25.33331501,-64.00001264,1,0,0,response5disk,,3,1.333393137,1.333322644,1,0,0,rectangle,1.333393137,1.333322644,1,0,0,1.333393137,1.333322644,1,0,0,0,142,142,5,1,,,,,,,,
,,,,,,,,,,,,,FF,,,,,,,,0.6856,,,,,,,,,,,,,,,,,,,,,,61018ac0b925ce90dfec65ea,61036b86f1dd5187a7b63c51,2021-07-29_23h01.50.520,Simcolourproject_2stim_asymm_v5,2020.2.10,Win32,60,61025ae37ef11b136ea224fe,,,,,,,,,988,26.66668653,57.33330397,1,0,0,response1disk,,7,0.66668576,-8.666677654,1,0,0,rectangle,55.33335406,-34.00001174,1,0,0,-11.3333146,-6.000010908,1,0,0,0,143,143,63,1,,response3disk_3,TRUE,5,5,"[156,251,144,309,292,236,294,298,235,63,19,194,168,77,217,76,41,102,44,44]",1.4592,rectangle
,,,,,,,,,,,,,FF,,,,,,,,0.9638,,,,,,,,,,,,,,,,,,,,,,61018ac0b925ce90dfec65ea,61036b86f1dd5187a7b63c51,2021-07-29_23h01.50.520,Simcolourproject_2stim_asymm_v5,2020.2.10,Win32,60,61025ae37ef11b136ea224fe,,,,,,,,,3516,-28.66660776,-69.33334613,1,0,0,response5disk,,3,-7.333314478,-6.000010908,1,0,0,rectangle,-7.333314478,-6.000010908,1,0,0,-7.333314478,-6.000010908,1,0,0,0,144,144,40,1,,,,,,,,
,,,,,,,,,,,,,FF,,,,,,,,1.1234,,,,,,,,,,,,,,,,,,,,,,61018ac0b925ce90dfec65ea,61036b86f1dd5187a7b63c51,2021-07-29_23h01.50.520,Simcolourproject_2stim_asymm_v5,2020.2.10,Win32,60,61025ae37ef11b136ea224fe,,,,,,,,,3836,29.33339397,-68.66667944,1,0,0,response3disk,,4,1.333393137,-6.000010908,1,0,0,rectangle,1.333393137,-6.000010908,1,0,0,1.333393137,-6.000010908,1,0,0,0,145,145,155,1,,,,,,,,
,,,,,,,,,,,,,FF,,,,,,,,0.8075,,,,,,,,,,,,,,,,,,,,,,61018ac0b925ce90dfec65ea,61036b86f1dd5187a7b63c51,2021-07-29_23h01.50.520,Simcolourproject_2stim_asymm_v5,2020.2.10,Win32,60,61025ae37ef11b136ea224fe,,,,,,,,,3953,66.66668773,27.33330307,1,0,0,response1disk,,6,0.66668576,-8.666677654,1,0,0,rectangle,0.66668576,-8.666677654,1,0,0,0.66668576,-8.666677654,1,0,0,0,146,146,55,1,,,,,,,,
,,,,,,,,,,,,,FF,,,,,,,,1.5351,,,,,,,,,,,,,,,,,,,,,,61018ac0b925ce90dfec65ea,61036b86f1dd5187a7b63c51,2021-07-29_23h01.50.520,Simcolourproject_2stim_asymm_v5,2020.2.10,Win32,60,61025ae37ef11b136ea224fe,,,,,,,,,2026,24.66668648,-80.6666798,1,0,0,response3disk,,4,2.000019133,1.333322644,1,0,0,rectangle,2.000019133,1.333322644,1,0,0,2.000019133,1.333322644,1,0,0,0,147,147,98,1,,,,,,,,
,,,,,,,,,,,,,FF,,,,,,,,0.8841,,,,,,,,,,,,,,,,,,,,,,61018ac0b925ce90dfec65ea,61036b86f1dd5187a7b63c51,2021-07-29_23h01.50.520,Simcolourproject_2stim_asymm_v5,2020.2.10,Win32,60,61025ae37ef11b136ea224fe,,,,,,,,,151,36.66668683,51.99999082,1,0,0,response1disk,,7,10.66668606,0.666655958,1,0,0,rectangle,10.66668606,0.666655958,1,0,0,10.66668606,0.666655958,1,0,0,0,148,148,38,1,,,,,,,,
,,,,,,,,,,,,,FF,,,,,,,,1.3428,,,,,,,,,,,,,,,,,,,,,,61018ac0b925ce90dfec65ea,61036b86f1dd5187a7b63c51,2021-07-29_23h01.50.520,Simcolourproject_2stim_asymm_v5,2020.2.10,Win32,60,61025ae37ef11b136ea224fe,,,,,,,,,3737,39.33339427,-40.66667861,1,0,0,response3disk,,4,8.666685998,-11.3333444,1,0,0,rectangle,8.666685998,-11.3333444,1,0,0,8.666685998,-11.3333444,1,0,0,0,149,149,79,1,,,,,,,,
,,,,,,,,,,,,,FF,,,,,,,,1.183,,,,,,,,,,,,,,,,,,,,,,61018ac0b925ce90dfec65ea,61036b86f1dd5187a7b63c51,2021-07-29_23h01.50.520,Simcolourproject_2stim_asymm_v5,2020.2.10,Win32,60,61025ae37ef11b136ea224fe,,,,,,,,,693,65.33335435,-18.66667795,1,0,0,response3disk,,5,-7.333314478,9.333322883,1,0,0,rectangle,-7.333314478,9.333322883,1,0,0,-7.333314478,9.333322883,1,0,0,0,150,150,65,1,,,,,,,,
,,,,,,,,,,,,,FF,,,,,,,,1.4855,,,,,,,,,,,,,,,,,,,,,,61018ac0b925ce90dfec65ea,61036b86f1dd5187a7b63c51,2021-07-29_23h01.50.520,Simcolourproject_2stim_asymm_v5,2020.2.10,Win32,60,61025ae37ef11b136ea224fe,,,,,,,,,3508,18.00001961,-90.00001341,1,0,0,response3disk,,4,4.000019193,0.666655958,1,0,0,rectangle,4.000019193,0.666655958,1,0,0,4.000019193,0.666655958,1,0,0,0,151,151,71,1,,,,,,,,
,,,,,,,,,,,,,FF,,,,,,,,4.4569,,,,,,,,,,,,,,,,,,,,,,61018ac0b925ce90dfec65ea,61036b86f1dd5187a7b63c51,2021-07-29_23h01.50.520,Simcolourproject_2stim_asymm_v5,2020.2.10,Win32,60,61025ae37ef11b136ea224fe,,,,,,,,,3605,55.33335406,23.33330295,1,0,0,response1disk,,6,-0.666606923,-4.000010848,1,0,0,rectangle,-0.666606923,-4.000010848,1,0,0,-0.666606923,-4.000010848,1,0,0,0,152,152,66,1,,,,,,,,
,,,,,,,,,,,,,FF,,,,,,,,1.0453,,,,,,,,,,,,,,,,,,,,,,61018ac0b925ce90dfec65ea,61036b86f1dd5187a7b63c51,2021-07-29_23h01.50.520,Simcolourproject_2stim_asymm_v5,2020.2.10,Win32,60,61025ae37ef11b136ea224fe,,,,,,,,,2883,-37.99998206,-71.33334619,1,0,0,response5disk,,3,-3.333314359,-0.666677415,1,0,0,rectangle,-3.333314359,-0.666677415,1,0,0,-3.333314359,-0.666677415,1,0,0,0,153,153,159,1,,,,,,,,
,,,,,,,,,,,,,FF,,,,,,,,1.3992,,,,,,,,,,,,,,,,,,,,,,61018ac0b925ce90dfec65ea,61036b86f1dd5187a7b63c51,2021-07-29_23h01.50.520,Simcolourproject_2stim_asymm_v5,2020.2.10,Win32,60,61025ae37ef11b136ea224fe,,,,,,,,,2884,57.33335412,-34.66667843,1,0,0,response3disk,,5,-5.333314419,-0.666677415,1,0,0,rectangle,-5.333314419,-0.666677415,1,0,0,-5.333314419,-0.666677415,1,0,0,0,154,154,97,1,,,,,,,,
,,,,,,,,,,,,,FF,,,,,,,,1.0825,,,,,,,,,,,,,,,,,,,,,,61018ac0b925ce90dfec65ea,61036b86f1dd5187a7b63c51,2021-07-29_23h01.50.520,Simcolourproject_2stim_asymm_v5,2020.2.10,Win32,60,61025ae37ef11b136ea224fe,,,,,,,,,3504,-52.66660847,-87.33334666,1,0,0,response5disk,,3,-3.999981046,5.333322763,1,0,0,rectangle,-25.9999817,-92.00001347,1,0,0,-2.666606983,-4.000010848,1,0,0,0,155,155,27,1,,response5disk_3,TRUE,3,3,"[156,251,144,309,292,236,294,298,235,63,19,194,168,77,217,76,41,102,44,44]",1.5356,rectangle
,,,,,,,,,,,,,FF,,,,,,,,1.2705,,,,,,,,,,,,,,,,,,,,,,61018ac0b925ce90dfec65ea,61036b86f1dd5187a7b63c51,2021-07-29_23h01.50.520,Simcolourproject_2stim_asymm_v5,2020.2.10,Win32,60,61025ae37ef11b136ea224fe,,,,,,,,,1506,46.66668713,73.33330444,1,0,0,response1disk,,7,1.333393137,-6.666677594,1,0,0,rectangle,1.333393137,-6.666677594,1,0,0,1.333393137,-6.666677594,1,0,0,0,156,156,61,1,,,,,,,,
,,,,,,,,,,,,,FF,,,,,,,,2.8421,,,,,,,,,,,,,,,,,,,,,,61018ac0b925ce90dfec65ea,61036b86f1dd5187a7b63c51,2021-07-29_23h01.50.520,Simcolourproject_2stim_asymm_v5,2020.2.10,Win32,60,61025ae37ef11b136ea224fe,,,,,,,,,2663,-29.33331513,-72.00001287,1,0,0,response5disk,,3,2.66668582,-9.33334434,1,0,0,rectangle,2.66668582,-9.33334434,1,0,0,2.66668582,-9.33334434,1,0,0,0,157,157,7,1,,,,,,,,
,,,,,,,,,,,,,FF,,,,,,,,1.2958,,,,,,,,,,,,,,,,,,,,,,61018ac0b925ce90dfec65ea,61036b86f1dd5187a7b63c51,2021-07-29_23h01.50.520,Simcolourproject_2stim_asymm_v5,2020.2.10,Win32,60,61025ae37ef11b136ea224fe,,,,,,,,,907,32.66668671,-60.6666792,1,0,0,response3disk,,4,2.66668582,2.666656017,1,0,0,rectangle,2.66668582,2.666656017,1,0,0,2.66668582,2.666656017,1,0,0,0,158,158,70,1,,,,,,,,
,,,,,,,,,,,,,FF,,,,,,,,1.2287,,,,,,,,,,,,,,,,,,,,,,61018ac0b925ce90dfec65ea,61036b86f1dd5187a7b63c51,2021-07-29_23h01.50.520,Simcolourproject_2stim_asymm_v5,2020.2.10,Win32,60,61025ae37ef11b136ea224fe,,,,,,,,,621,28.66668659,61.99999112,1,0,0,response1disk,,7,-0.666606923,-2.666677475,1,0,0,rectangle,-0.666606923,-2.666677475,1,0,0,-0.666606923,-2.666677475,1,0,0,0,159,159,35,1,,,,,,,,
,,,,,,,,,,,,,FF,,,,,,,,1.2038,,,,,,,,,,,,,,,,,,,,,,61018ac0b925ce90dfec65ea,61036b86f1dd5187a7b63c51,2021-07-29_23h01.50.520,Simcolourproject_2stim_asymm_v5,2020.2.10,Win32,60,61025ae37ef11b136ea224fe,,,,,,,,,2101,-37.99998206,-77.33334637,1,0,0,response5disk,,3,8.666685998,8.666656196,1,0,0,rectangle,8.666685998,8.666656196,1,0,0,8.666685998,8.666656196,1,0,0,1,0,160,92,1,,,,,,,,
,,,,,,,,,,,,,FF,,,,,,,,1.1329,,,,,,,,,,,,,,,,,,,,,,61018ac0b925ce90dfec65ea,61036b86f1dd5187a7b63c51,2021-07-29_23h01.50.520,Simcolourproject_2stim_asymm_v5,2020.2.10,Win32,60,61025ae37ef11b136ea224fe,,,,,,,,,3239,19.33339367,-81.33334649,1,0,0,response3disk,,4,1.333393137,-10.00001103,1,0,0,rectangle,1.333393137,-10.00001103,1,0,0,1.333393137,-10.00001103,1,0,0,1,1,161,140,1,,,,,,,,
,,,,,,,,,,,,,FF,,,,,,,,0.6676,,,,,,,,,,,,,,,,,,,,,,61018ac0b925ce90dfec65ea,61036b86f1dd5187a7b63c51,2021-07-29_23h01.50.520,Simcolourproject_2stim_asymm_v5,2020.2.10,Win32,60,61025ae37ef11b136ea224fe,,,,,,,,,603,43.3333537,71.99999142,1,0,0,response1disk,,7,-0.666606923,0.666655958,1,0,0,rectangle,-0.666606923,0.666655958,1,0,0,-0.666606923,0.666655958,1,0,0,1,2,162,54,1,,,,,,,,
,,,,,,,,,,,,,FF,,,,,,,,0.7153,,,,,,,,,,,,,,,,,,,,,,61018ac0b925ce90dfec65ea,61036b86f1dd5187a7b63c51,2021-07-29_23h01.50.520,Simcolourproject_2stim_asymm_v5,2020.2.10,Win32,60,61025ae37ef11b136ea224fe,,,,,,,,,710,48.0000205,28.66665679,1,0,0,response1disk,,6,0.66668576,-1.333344102,1,0,0,rectangle,0.66668576,-1.333344102,1,0,0,0.66668576,-1.333344102,1,0,0,1,3,163,134,1,,,,,,,,
,,,,,,,,,,,,,FF,,,,,,,,0.7398,,,,,,,,,,,,,,,,,,,,,,61018ac0b925ce90dfec65ea,61036b86f1dd5187a7b63c51,2021-07-29_23h01.50.520,Simcolourproject_2stim_asymm_v5,2020.2.10,Win32,60,61025ae37ef11b136ea224fe,,,,,,,,,1122,20.66668636,61.33330409,1,0,0,response1disk,,7,-3.333314359,3.333322704,1,0,0,rectangle,-3.333314359,3.333322704,1,0,0,-3.333314359,3.333322704,1,0,0,1,4,164,69,1,,,,,,,,
,,,,,,,,,,,,,FF,,,,,,,,0.9321,,,,,,,,,,,,,,,,,,,,,,61018ac0b925ce90dfec65ea,61036b86f1dd5187a7b63c51,2021-07-29_23h01.50.520,Simcolourproject_2stim_asymm_v5,2020.2.10,Win32,60,61025ae37ef11b136ea224fe,,,,,,,,,979,31.33339403,-78.66667974,1,0,0,response3disk,,4,1.333393137,-2.000010788,1,0,0,rectangle,1.333393137,-2.000010788,1,0,0,1.333393137,-2.000010788,1,0,0,1,5,165,143,1,,,,,,,,
,,,,,,,,,,,,,FF,,,,,,,,1.0062,,,,,,,,,,,,,,,,,,,,,,61018ac0b925ce90dfec65ea,61036b86f1dd5187a7b63c51,2021-07-29_23h01.50.520,Simcolourproject_2stim_asymm_v5,2020.2.10,Win32,60,61025ae37ef11b136ea224fe,,,,,,,,,313,76.00002134,-26.66667819,1,0,0,response3disk,,5,0.66668576,1.999989331,1,0,0,rectangle,0.66668576,1.999989331,1,0,0,0.66668576,1.999989331,1,0,0,1,6,166,111,1,,,,,,,,
,,,,,,,,,,,,,FF,,,,,,,,1.1034,,,,,,,,,,,,,,,,,,,,,,61018ac0b925ce90dfec65ea,61036b86f1dd5187a7b63c51,2021-07-29_23h01.50.520,Simcolourproject_2stim_asymm_v5,2020.2.10,Win32,60,61025ae37ef11b136ea224fe,,,,,,,,,1332,70.66668785,49.33330373,1,0,0,response1disk,,6,-8.666607161,-2.666677475,1,0,0,rectangle,92.00002182,20.66665655,1,0,0,1.333393137,-3.333344162,1,0,0,1,7,167,153,1,,response1disk_3,TRUE,6,6,"[156,251,144,309,292,236,294,298,235,63,19,194,168,77,217,76,41,102,44,44]",3.0366,rectangle
,,,,,,,,,,,,,FF,,,,,,,,0.7685,,,,,,,,,,,,,,,,,,,,,,61018ac0b925ce90dfec65ea,61036b86f1dd5187a7b63c51,2021-07-29_23h01.50.520,Simcolourproject_2stim_asymm_v5,2020.2.10,Win32,60,61025ae37ef11b136ea224fe,,,,,,,,,2601,-35.33331531,64.66665787,1,0,0,response7disk,,0,-5.999981105,13.333323,1,0,0,rectangle,-5.999981105,13.333323,1,0,0,-5.999981105,13.333323,1,0,0,1,8,168,156,1,,,,,,,,
,,,,,,,,,,,,,FF,,,,,,,,3.3058,,,,,,,,,,,,,,,,,,,,,,61018ac0b925ce90dfec65ea,61036b86f1dd5187a7b63c51,2021-07-29_23h01.50.520,Simcolourproject_2stim_asymm_v5,2020.2.10,Win32,60,61025ae37ef11b136ea224fe,,,,,,,,,1072,38.66668689,-55.33334571,1,0,0,response3disk,,4,12.00001943,8.666656196,1,0,0,rectangle,12.00001943,8.666656196,1,0,0,12.00001943,8.666656196,1,0,0,1,9,169,88,1,,,,,,,,
,,,,,,,,,,,,,FF,,,,,,,,3.5461,,,,,,,,,,,,,,,,,,,,,,61018ac0b925ce90dfec65ea,61036b86f1dd5187a7b63c51,2021-07-29_23h01.50.520,Simcolourproject_2stim_asymm_v5,2020.2.10,Win32,60,61025ae37ef11b136ea224fe,,,,,,,,,3793,57.33335412,29.33330313,1,0,0,response1disk,,6,-1.3333143,-8.666677654,1,0,0,rectangle,-1.3333143,-8.666677654,1,0,0,-1.3333143,-8.666677654,1,0,0,1,10,170,87,1,,,,,,,,
,,,,,,,,,,,,,FF,,,,,,,,2.4194,,,,,,,,,,,,,,,,,,,,,,61018ac0b925ce90dfec65ea,61036b86f1dd5187a7b63c51,2021-07-29_23h01.50.520,Simcolourproject_2stim_asymm_v5,2020.2.10,Win32,60,61025ae37ef11b136ea224fe,,,,,,,,,1274,32.00002003,-62.00001258,1,0,0,response3disk,,4,-0.666606923,7.333322823,1,0,0,rectangle,-0.666606923,7.333322823,1,0,0,-0.666606923,7.333322823,1,0,0,1,11,171,157,1,,,,,,,,
,,,,,,,,,,,,,FF,,,,,,,,1.0678,,,,,,,,,,,,,,,,,,,,,,61018ac0b925ce90dfec65ea,61036b86f1dd5187a7b63c51,2021-07-29_23h01.50.520,Simcolourproject_2stim_asymm_v5,2020.2.10,Win32,60,61025ae37ef11b136ea224fe,,,,,,,,,2475,54.66668737,35.33330331,1,0,0,response1disk,,6,-5.999981105,-8.666677654,1,0,0,rectangle,-5.999981105,-8.666677654,1,0,0,-5.999981105,-8.666677654,1,0,0,1,12,172,39,1,,,,,,,,
,,,,,,,,,,,,,FF,,,,,,,,2.0906,,,,,,,,,,,,,,,,,,,,,,61018ac0b925ce90dfec65ea,61036b86f1dd5187a7b63c51,2021-07-29_23h01.50.520,Simcolourproject_2stim_asymm_v5,2020.2.10,Win32,60,61025ae37ef11b136ea224fe,,,,,,,,,3171,66.00002104,38.66665709,1,0,0,response1disk,,6,-3.999981046,-0.666677415,1,0,0,rectangle,-3.999981046,-0.666677415,1,0,0,-3.999981046,-0.666677415,1,0,0,1,13,173,105,1,,,,,,,,
,,,,,,,,,,,,,FF,,,,,,,,0.9876,,,,,,,,,,,,,,,,,,,,,,61018ac0b925ce90dfec65ea,61036b86f1dd5187a7b63c51,2021-07-29_23h01.50.520,Simcolourproject_2stim_asymm_v5,2020.2.10,Win32,60,61025ae37ef11b136ea224fe,,,,,,,,,3734,46.00002044,77.33330456,1,0,0,response1disk,,7,-3.999981046,-6.000010908,1,0,0,rectangle,-3.999981046,-6.000010908,1,0,0,-3.999981046,-6.000010908,1,0,0,1,14,174,131,1,,,,,,,,
,,,,,,,,,,,,,FF,,,,,,,,2.7132,,,,,,,,,,,,,,,,,,,,,,61018ac0b925ce90dfec65ea,61036b86f1dd5187a7b63c51,2021-07-29_23h01.50.520,Simcolourproject_2stim_asymm_v5,2020.2.10,Win32,60,61025ae37ef11b136ea224fe,,,,,,,,,1624,50.66668725,-44.66667873,1,0,0,response3disk,,5,-3.333314359,-11.3333444,1,0,0,rectangle,-3.333314359,-11.3333444,1,0,0,-3.333314359,-11.3333444,1,0,0,1,15,175,16,1,,,,,,,,
,,,,,,,,,,,,,FF,,,,,,,,2.1852,,,,,,,,,,,,,,,,,,,,,,61018ac0b925ce90dfec65ea,61036b86f1dd5187a7b63c51,2021-07-29_23h01.50.520,Simcolourproject_2stim_asymm_v5,2020.2.10,Win32,60,61025ae37ef11b136ea224fe,,,,,,,,,2791,33.33339409,-66.0000127,1,0,0,response3disk,,4,-1.3333143,5.333322763,1,0,0,rectangle,-1.3333143,5.333322763,1,0,0,-1.3333143,5.333322763,1,0,0,1,16,176,51,1,,,,,,,,
,,,,,,,,,,,,,FF,,,,,,,,0.7361,,,,,,,,,,,,,,,,,,,,,,61018ac0b925ce90dfec65ea,61036b86f1dd5187a7b63c51,2021-07-29_23h01.50.520,Simcolourproject_2stim_asymm_v5,2020.2.10,Win32,60,61025ae37ef11b136ea224fe,,,,,,,,,1784,56.66668743,41.33330349,1,0,0,response1disk,,6,0.66668576,5.99998945,1,0,0,rectangle,0.66668576,5.99998945,1,0,0,0.66668576,5.99998945,1,0,0,1,17,177,36,1,,,,,,,,
,,,,,,,,,,,,,FF,,,,,,,,3.2018,,,,,,,,,,,,,,,,,,,,,,61018ac0b925ce90dfec65ea,61036b86f1dd5187a7b63c51,2021-07-29_23h01.50.520,Simcolourproject_2stim_asymm_v5,2020.2.10,Win32,60,61025ae37ef11b136ea224fe,,,,,,,,,3797,39.33339427,70.66665804,1,0,0,response1disk,,7,3.333393196,6.666656137,1,0,0,rectangle,3.333393196,6.666656137,1,0,0,3.333393196,6.666656137,1,0,0,1,18,178,124,1,,,,,,,,
,,,,,,,,,,,,,FF,,,,,,,,1.088,,,,,,,,,,,,,,,,,,,,,,61018ac0b925ce90dfec65ea,61036b86f1dd5187a7b63c51,2021-07-29_23h01.50.520,Simcolourproject_2stim_asymm_v5,2020.2.10,Win32,60,61025ae37ef11b136ea224fe,,,,,,,,,2979,70.66668785,33.33330325,1,0,0,response1disk,,6,-3.999981046,-1.333344102,1,0,0,rectangle,-3.999981046,-1.333344102,1,0,0,-3.999981046,-1.333344102,1,0,0,1,19,179,22,1,,,,,,,,
,,,,,,,,,,,,,FF,,,,,,,,0.6846,,,,,,,,,,,,,,,,,,,,,,61018ac0b925ce90dfec65ea,61036b86f1dd5187a7b63c51,2021-07-29_23h01.50.520,Simcolourproject_2stim_asymm_v5,2020.2.10,Win32,60,61025ae37ef11b136ea224fe,,,,,,,,,1281,35.33339415,70.66665804,1,0,0,response1disk,,7,1.9735E-05,5.333322763,1,0,0,rectangle,1.9735E-05,5.333322763,1,0,0,1.9735E-05,5.333322763,1,0,0,1,20,180,118,1,,,,,,,,
,,,,,,,,,,,,,FF,,,,,,,,1.5515,,,,,,,,,,,,,,,,,,,,,,61018ac0b925ce90dfec65ea,61036b86f1dd5187a7b63c51,2021-07-29_23h01.50.520,Simcolourproject_2stim_asymm_v5,2020.2.10,Win32,60,61025ae37ef11b136ea224fe,,,,,,,,,2893,-39.99998212,-74.66667962,1,0,0,response5disk,,3,3.333393196,0.666655958,1,0,0,rectangle,3.333393196,0.666655958,1,0,0,3.333393196,0.666655958,1,0,0,1,21,181,123,1,,,,,,,,
,,,,,,,,,,,,,FF,,,,,,,,1.7167,,,,,,,,,,,,,,,,,,,,,,61018ac0b925ce90dfec65ea,61036b86f1dd5187a7b63c51,2021-07-29_23h01.50.520,Simcolourproject_2stim_asymm_v5,2020.2.10,Win32,60,61025ae37ef11b136ea224fe,,,,,,,,,266,24.00001979,-73.33334625,1,0,0,response3disk,,4,-5.333314419,1.333322644,1,0,0,rectangle,-5.333314419,1.333322644,1,0,0,-5.333314419,1.333322644,1,0,0,1,22,182,114,1,,,,,,,,
,,,,,,,,,,,,,FF,,,,,,,,1.0028,,,,,,,,,,,,,,,,,,,,,,61018ac0b925ce90dfec65ea,61036b86f1dd5187a7b63c51,2021-07-29_23h01.50.520,Simcolourproject_2stim_asymm_v5,2020.2.10,Win32,60,61025ae37ef11b136ea224fe,,,,,,,,,4099,-36.666608,-83.33334655,1,0,0,response5disk,,3,2.66668582,-1.333344102,1,0,0,rectangle,2.66668582,-1.333344102,1,0,0,2.66668582,-1.333344102,1,0,0,1,23,183,4,1,,,,,,,,
,,,,,,,,,,,,,FF,,,,,,,,1.2216,,,,,,,,,,,,,,,,,,,,,,61018ac0b925ce90dfec65ea,61036b86f1dd5187a7b63c51,2021-07-29_23h01.50.520,Simcolourproject_2stim_asymm_v5,2020.2.10,Win32,60,61025ae37ef11b136ea224fe,,,,,,,,,479,71.33335453,33.33330325,1,0,0,response1disk,,6,1.9735E-05,-1.333344102,1,0,0,rectangle,1.9735E-05,-1.333344102,1,0,0,1.9735E-05,-1.333344102,1,0,0,1,24,184,107,1,,,,,,,,
,,,,,,,,,,,,,FF,,,,,,,,1.3686,,,,,,,,,,,,,,,,,,,,,,61018ac0b925ce90dfec65ea,61036b86f1dd5187a7b63c51,2021-07-29_23h01.50.520,Simcolourproject_2stim_asymm_v5,2020.2.10,Win32,60,61025ae37ef11b136ea224fe,,,,,,,,,3503,-39.99998212,-78.66667974,1,0,0,response5disk,,3,1.9735E-05,-4.666677535,1,0,0,rectangle,1.9735E-05,-4.666677535,1,0,0,1.9735E-05,-4.666677535,1,0,0,1,25,185,55,1,,,,,,,,
,,,,,,,,,,,,,FF,,,,,,,,0.703,,,,,,,,,,,,,,,,,,,,,,61018ac0b925ce90dfec65ea,61036b86f1dd5187a7b63c51,2021-07-29_23h01.50.520,Simcolourproject_2stim_asymm_v5,2020.2.10,Win32,60,61025ae37ef11b136ea224fe,,,,,,,,,1396,68.66668779,-24.66667813,1,0,0,response3disk,,5,-4.666607042,0.666655958,1,0,0,rectangle,-4.666607042,0.666655958,1,0,0,-4.666607042,0.666655958,1,0,0,1,26,186,24,1,,,,,,,,
,,,,,,,,,,,,,FF,,,,,,,,0.95,,,,,,,,,,,,,,,,,,,,,,61018ac0b925ce90dfec65ea,61036b86f1dd5187a7b63c51,2021-07-29_23h01.50.520,Simcolourproject_2stim_asymm_v5,2020.2.10,Win32,60,61025ae37ef11b136ea224fe,,,,,,,,,283,34.66668677,-62.00001258,1,0,0,response3disk,,4,-3.333314359,-1.333344102,1,0,0,rectangle,-3.333314359,-1.333344102,1,0,0,-3.333314359,-1.333344102,1,0,0,1,27,187,113,1,,,,,,,,
,,,,,,,,,,,,,FF,,,,,,,,1.1171,,,,,,,,,,,,,,,,,,,,,,61018ac0b925ce90dfec65ea,61036b86f1dd5187a7b63c51,2021-07-29_23h01.50.520,Simcolourproject_2stim_asymm_v5,2020.2.10,Win32,60,61025ae37ef11b136ea224fe,,,,,,,,,36,34.00002009,-61.33334589,1,0,0,response3disk,,4,1.333393137,11.99998963,1,0,0,rectangle,1.333393137,11.99998963,1,0,0,1.333393137,11.99998963,1,0,0,1,28,188,8,1,,,,,,,,
,,,,,,,,,,,,,FF,,,,,,,,0.833,,,,,,,,,,,,,,,,,,,,,,61018ac0b925ce90dfec65ea,61036b86f1dd5187a7b63c51,2021-07-29_23h01.50.520,Simcolourproject_2stim_asymm_v5,2020.2.10,Win32,60,61025ae37ef11b136ea224fe,,,,,,,,,3148,-39.99998212,-66.0000127,1,0,0,response5disk,,3,-1.3333143,6.666656137,1,0,0,rectangle,-1.3333143,6.666656137,1,0,0,-1.3333143,6.666656137,1,0,0,1,29,189,115,1,,,,,,,,
,,,,,,,,,,,,,FF,,,,,,,,0.9326,,,,,,,,,,,,,,,,,,,,,,61018ac0b925ce90dfec65ea,61036b86f1dd5187a7b63c51,2021-07-29_23h01.50.520,Simcolourproject_2stim_asymm_v5,2020.2.10,Win32,60,61025ae37ef11b136ea224fe,,,,,,,,,3052,-15.33331472,-56.66667908,1,0,0,response5disk,,3,-1.999980986,-12.66667777,1,0,0,rectangle,-1.999980986,-12.66667777,1,0,0,-1.999980986,-12.66667777,1,0,0,1,30,190,33,1,,,,,,,,
,,,,,,,,,,,,,FF,,,,,,,,2.1233,,,,,,,,,,,,,,,,,,,,,,61018ac0b925ce90dfec65ea,61036b86f1dd5187a7b63c51,2021-07-29_23h01.50.520,Simcolourproject_2stim_asymm_v5,2020.2.10,Win32,60,61025ae37ef11b136ea224fe,,,,,,,,,3987,74.00002128,-46.66667879,1,0,0,response3disk,,5,-1.999980986,-10.00001103,1,0,0,rectangle,-1.999980986,-10.00001103,1,0,0,-1.999980986,-10.00001103,1,0,0,1,31,191,47,1,,,,,,,,
,,,,,,,,,,,,,FF,,,,,,,,0.8709,,,,,,,,,,,,,,,,,,,,,,61018ac0b925ce90dfec65ea,61036b86f1dd5187a7b63c51,2021-07-29_23h01.50.520,Simcolourproject_2stim_asymm_v5,2020.2.10,Win32,60,61025ae37ef11b136ea224fe,,,,,,,,,2579,67.33335441,41.99999052,1,0,0,response1disk,,6,-1.999980986,-2.666677475,1,0,0,rectangle,-1.999980986,-2.666677475,1,0,0,-1.999980986,-2.666677475,1,0,0,1,32,192,60,1,,,,,,,,
,,,,,,,,,,,,,FF,,,,,,,,2.3892,,,,,,,,,,,,,,,,,,,,,,61018ac0b925ce90dfec65ea,61036b86f1dd5187a7b63c51,2021-07-29_23h01.50.520,Simcolourproject_2stim_asymm_v5,2020.2.10,Win32,60,61025ae37ef11b136ea224fe,,,,,,,,,998,65.33335435,-37.33334517,1,0,0,response3disk,,5,-5.333314419,1.999989331,1,0,0,rectangle,-39.33331543,75.99999154,1,0,0,-3.333314359,1.999989331,1,0,0,1,33,193,78,1,,response7disk_3,TRUE,0,0,"[156,251,144,309,292,236,294,298,235,63,19,194,168,77,217,76,41,102,44,44]",2.3677,rectangle
,,,,,,,,,,,,,FF,,,,,,,,1.2684,,,,,,,,,,,,,,,,,,,,,,61018ac0b925ce90dfec65ea,61036b86f1dd5187a7b63c51,2021-07-29_23h01.50.520,Simcolourproject_2stim_asymm_v5,2020.2.10,Win32,60,61025ae37ef11b136ea224fe,,,,,,,,,2551,68.0000211,33.99999028,1,0,0,response1disk,,6,2.66668582,-9.33334434,1,0,0,rectangle,2.66668582,-9.33334434,1,0,0,2.66668582,-9.33334434,1,0,0,1,34,194,139,1,,,,,,,,
,,,,,,,,,,,,,FF,,,,,,,,1.2191,,,,,,,,,,,,,,,,,,,,,,61018ac0b925ce90dfec65ea,61036b86f1dd5187a7b63c51,2021-07-29_23h01.50.520,Simcolourproject_2stim_asymm_v5,2020.2.10,Win32,60,61025ae37ef11b136ea224fe,,,,,,,,,2145,54.66668737,-25.33334482,1,0,0,response3disk,,5,-1.3333143,9.333322883,1,0,0,rectangle,-1.3333143,9.333322883,1,0,0,-1.3333143,9.333322883,1,0,0,1,35,195,32,1,,,,,,,,
,,,,,,,,,,,,,FF,,,,,,,,1.2486,,,,,,,,,,,,,,,,,,,,,,61018ac0b925ce90dfec65ea,61036b86f1dd5187a7b63c51,2021-07-29_23h01.50.520,Simcolourproject_2stim_asymm_v5,2020.2.10,Win32,60,61025ae37ef11b136ea224fe,,,,,,,,,1119,68.66668779,31.99999022,1,0,0,response1disk,,6,3.333393196,-7.333344281,1,0,0,rectangle,3.333393196,-7.333344281,1,0,0,3.333393196,-7.333344281,1,0,0,1,36,196,58,1,,,,,,,,
,,,,,,,,,,,,,FF,,,,,,,,1.2957,,,,,,,,,,,,,,,,,,,,,,61018ac0b925ce90dfec65ea,61036b86f1dd5187a7b63c51,2021-07-29_23h01.50.520,Simcolourproject_2stim_asymm_v5,2020.2.10,Win32,60,61025ae37ef11b136ea224fe,,,,,,,,,2314,34.66668677,-72.00001287,1,0,0,response3disk,,4,8.000019312,-8.000010967,1,0,0,rectangle,8.000019312,-8.000010967,1,0,0,8.000019312,-8.000010967,1,0,0,1,37,197,68,1,,,,,,,,
,,,,,,,,,,,,,FF,,,,,,,,0.9658,,,,,,,,,,,,,,,,,,,,,,61018ac0b925ce90dfec65ea,61036b86f1dd5187a7b63c51,2021-07-29_23h01.50.520,Simcolourproject_2stim_asymm_v5,2020.2.10,Win32,60,61025ae37ef11b136ea224fe,,,,,,,,,3770,75.33335465,-27.33334488,1,0,0,response3disk,,5,2.000019133,-10.00001103,1,0,0,rectangle,2.000019133,-10.00001103,1,0,0,2.000019133,-10.00001103,1,0,0,1,38,198,26,1,,,,,,,,
,,,,,,,,,,,,,FF,,,,,,,,0.9833,,,,,,,,,,,,,,,,,,,,,,61018ac0b925ce90dfec65ea,61036b86f1dd5187a7b63c51,2021-07-29_23h01.50.520,Simcolourproject_2stim_asymm_v5,2020.2.10,Win32,60,61025ae37ef11b136ea224fe,,,,,,,,,3145,22.66668642,54.66665757,1,0,0,response1disk,,7,-6.666607102,5.333322763,1,0,0,rectangle,-6.666607102,5.333322763,1,0,0,-6.666607102,5.333322763,1,0,0,1,39,199,66,1,,,,,,,,
,,,,,,,,,,,,,FF,,,,,,,,0.9021,,,,,,,,,,,,,,,,,,,,,,61018ac0b925ce90dfec65ea,61036b86f1dd5187a7b63c51,2021-07-29_23h01.50.520,Simcolourproject_2stim_asymm_v5,2020.2.10,Win32,60,61025ae37ef11b136ea224fe,,,,,,,,,221,72.00002122,-22.66667807,1,0,0,response3disk,,5,-2.666606983,-3.333344162,1,0,0,rectangle,-2.666606983,-3.333344162,1,0,0,-2.666606983,-3.333344162,1,0,0,1,40,200,144,1,,,,,,,,
,,,,,,,,,,,,,FF,,,,,,,,1.5521,,,,,,,,,,,,,,,,,,,,,,61018ac0b925ce90dfec65ea,61036b86f1dd5187a7b63c51,2021-07-29_23h01.50.520,Simcolourproject_2stim_asymm_v5,2020.2.10,Win32,60,61025ae37ef11b136ea224fe,,,,,,,,,3969,-37.33331537,-86.00001329,1,0,0,response5disk,,3,2.66668582,-1.07288E-05,1,0,0,rectangle,2.66668582,-1.07288E-05,1,0,0,2.66668582,-1.07288E-05,1,0,0,1,41,201,91,1,,,,,,,,
,,,,,,,,,,,,,FF,,,,,,,,0.9525,,,,,,,,,,,,,,,,,,,,,,61018ac0b925ce90dfec65ea,61036b86f1dd5187a7b63c51,2021-07-29_23h01.50.520,Simcolourproject_2stim_asymm_v5,2020.2.10,Win32,60,61025ae37ef11b136ea224fe,,,,,,,,,43,55.33335406,-28.66667825,1,0,0,response3disk,,5,-4.666607042,0.666655958,1,0,0,rectangle,-4.666607042,0.666655958,1,0,0,-4.666607042,0.666655958,1,0,0,1,42,202,116,1,,,,,,,,
,,,,,,,,,,,,,FF,,,,,,,,0.8996,,,,,,,,,,,,,,,,,,,,,,61018ac0b925ce90dfec65ea,61036b86f1dd5187a7b63c51,2021-07-29_23h01.50.520,Simcolourproject_2stim_asymm_v5,2020.2.10,Win32,60,61025ae37ef11b136ea224fe,,,,,,,,,413,38.00002021,-40.00001192,1,0,0,response3disk,,4,-5.333314419,-9.33334434,1,0,0,rectangle,-5.333314419,-9.33334434,1,0,0,-5.333314419,-9.33334434,1,0,0,1,43,203,112,1,,,,,,,,
,,,,,,,,,,,,,FF,,,,,,,,1.2998,,,,,,,,,,,,,,,,,,,,,,61018ac0b925ce90dfec65ea,61036b86f1dd5187a7b63c51,2021-07-29_23h01.50.520,Simcolourproject_2stim_asymm_v5,2020.2.10,Win32,60,61025ae37ef11b136ea224fe,,,,,,,,,2312,75.33335465,37.9999904,1,0,0,response1disk,,6,4.000019193,3.333322704,1,0,0,rectangle,4.000019193,3.333322704,1,0,0,4.000019193,3.333322704,1,0,0,1,44,204,43,1,,,,,,,,
,,,,,,,,,,,,,FF,,,,,,,,0.7993,,,,,,,,,,,,,,,,,,,,,,61018ac0b925ce90dfec65ea,61036b86f1dd5187a7b63c51,2021-07-29_23h01.50.520,Simcolourproject_2stim_asymm_v5,2020.2.10,Win32,60,61025ae37ef11b136ea224fe,,,,,,,,,3564,33.33339409,53.33330385,1,0,0,response1disk,,7,-3.333314359,-1.07288E-05,1,0,0,rectangle,-3.333314359,-1.07288E-05,1,0,0,-3.333314359,-1.07288E-05,1,0,0,1,45,205,101,1,,,,,,,,
,,,,,,,,,,,,,FF,,,,,,,,1.1474,,,,,,,,,,,,,,,,,,,,,,61018ac0b925ce90dfec65ea,61036b86f1dd5187a7b63c51,2021-07-29_23h01.50.520,Simcolourproject_2stim_asymm_v5,2020.2.10,Win32,60,61025ae37ef11b136ea224fe,,,,,,,,,2299,30.66668665,-63.33334595,1,0,0,response3disk,,4,0.66668576,-4.666677535,1,0,0,rectangle,0.66668576,-4.666677535,1,0,0,0.66668576,-4.666677535,1,0,0,1,46,206,154,1,,,,,,,,
,,,,,,,,,,,,,FF,,,,,,,,1.0032,,,,,,,,,,,,,,,,,,,,,,61018ac0b925ce90dfec65ea,61036b86f1dd5187a7b63c51,2021-07-29_23h01.50.520,Simcolourproject_2stim_asymm_v5,2020.2.10,Win32,60,61025ae37ef11b136ea224fe,,,,,,,,,1721,74.00002128,39.33330343,1,0,0,response1disk,,6,6.666685939,0.666655958,1,0,0,rectangle,6.666685939,0.666655958,1,0,0,6.666685939,0.666655958,1,0,0,1,47,207,99,1,,,,,,,,
,,,,,,,,,,,,,FF,,,,,,,,1.8054,,,,,,,,,,,,,,,,,,,,,,61018ac0b925ce90dfec65ea,61036b86f1dd5187a7b63c51,2021-07-29_23h01.50.520,Simcolourproject_2stim_asymm_v5,2020.2.10,Win32,60,61025ae37ef11b136ea224fe,,,,,,,,,3467,37.33339421,55.99999094,1,0,0,response1disk,,7,3.333393196,4.666656077,1,0,0,rectangle,3.333393196,4.666656077,1,0,0,3.333393196,4.666656077,1,0,0,1,48,208,90,1,,,,,,,,
,,,,,,,,,,,,,FF,,,,,,,,0.8501,,,,,,,,,,,,,,,,,,,,,,61018ac0b925ce90dfec65ea,61036b86f1dd5187a7b63c51,2021-07-29_23h01.50.520,Simcolourproject_2stim_asymm_v5,2020.2.10,Win32,60,61025ae37ef11b136ea224fe,,,,,,,,,162,-29.33331513,-56.66667908,1,0,0,response5disk,,3,-2.666606983,-6.666677594,1,0,0,rectangle,-2.666606983,-6.666677594,1,0,0,-2.666606983,-6.666677594,1,0,0,1,49,209,104,1,,,,,,,,
,,,,,,,,,,,,,FF,,,,,,,,1.1206,,,,,,,,,,,,,,,,,,,,,,61018ac0b925ce90dfec65ea,61036b86f1dd5187a7b63c51,2021-07-29_23h01.50.520,Simcolourproject_2stim_asymm_v5,2020.2.10,Win32,60,61025ae37ef11b136ea224fe,,,,,,,,,2848,28.00001991,-63.33334595,1,0,0,response3disk,,4,-3.333314359,3.99998939,1,0,0,rectangle,-3.333314359,3.99998939,1,0,0,-3.333314359,3.99998939,1,0,0,1,50,210,145,1,,,,,,,,
,,,,,,,,,,,,,FF,,,,,,,,0.9623,,,,,,,,,,,,,,,,,,,,,,61018ac0b925ce90dfec65ea,61036b86f1dd5187a7b63c51,2021-07-29_23h01.50.520,Simcolourproject_2stim_asymm_v5,2020.2.10,Win32,60,61025ae37ef11b136ea224fe,,,,,,,,,2033,-59.99998271,33.33330325,1,0,0,response7disk,,1,-4.666607042,-3.333344162,1,0,0,rectangle,-4.666607042,-3.333344162,1,0,0,-4.666607042,-3.333344162,1,0,0,1,51,211,108,1,,,,,,,,
,,,,,,,,,,,,,FF,,,,,,,,1.0997,,,,,,,,,,,,,,,,,,,,,,61018ac0b925ce90dfec65ea,61036b86f1dd5187a7b63c51,2021-07-29_23h01.50.520,Simcolourproject_2stim_asymm_v5,2020.2.10,Win32,60,61025ae37ef11b136ea224fe,,,,,,,,,4301,20.66668636,67.33330427,1,0,0,response1disk,,7,3.333393196,9.999989569,1,0,0,rectangle,3.333393196,9.999989569,1,0,0,3.333393196,9.999989569,1,0,0,1,52,212,53,1,,,,,,,,
,,,,,,,,,,,,,FF,,,,,,,,0.6369,,,,,,,,,,,,,,,,,,,,,,61018ac0b925ce90dfec65ea,61036b86f1dd5187a7b63c51,2021-07-29_23h01.50.520,Simcolourproject_2stim_asymm_v5,2020.2.10,Win32,60,61025ae37ef11b136ea224fe,,,,,,,,,2523,50.00002056,20.66665655,1,0,0,response1disk,,6,8.000019312,9.999989569,1,0,0,rectangle,8.000019312,9.999989569,1,0,0,8.000019312,9.999989569,1,0,0,1,53,213,14,1,,,,,,,,
,,,,,,,,,,,,,FF,,,,,,,,0.5457,,,,,,,,,,,,,,,,,,,,,,61018ac0b925ce90dfec65ea,61036b86f1dd5187a7b63c51,2021-07-29_23h01.50.520,Simcolourproject_2stim_asymm_v5,2020.2.10,Win32,60,61025ae37ef11b136ea224fe,,,,,,,,,863,41.33339433,66.66665792,1,0,0,response1disk,,7,5.333393256,9.999989569,1,0,0,rectangle,5.333393256,9.999989569,1,0,0,5.333393256,9.999989569,1,0,0,1,54,214,23,1,,,,,,,,
,,,,,,,,,,,,,FF,,,,,,,,1.3487,,,,,,,,,,,,,,,,,,,,,,61018ac0b925ce90dfec65ea,61036b86f1dd5187a7b63c51,2021-07-29_23h01.50.520,Simcolourproject_2stim_asymm_v5,2020.2.10,Win32,60,61025ae37ef11b136ea224fe,,,,,,,,,723,-81.33331668,-37.33334517,1,0,0,response5disk,,2,-14.66660734,-2.666677475,1,0,0,rectangle,-14.66660734,-2.666677475,1,0,0,-14.66660734,-2.666677475,1,0,0,1,55,215,135,1,,,,,,,,
,,,,,,,,,,,,,FF,,,,,,,,1.3539,,,,,,,,,,,,,,,,,,,,,,61018ac0b925ce90dfec65ea,61036b86f1dd5187a7b63c51,2021-07-29_23h01.50.520,Simcolourproject_2stim_asymm_v5,2020.2.10,Win32,60,61025ae37ef11b136ea224fe,,,,,,,,,3671,-23.33331496,84.66665846,1,0,0,response7disk,,0,2.66668582,3.99998939,1,0,0,rectangle,46.66668713,80.66665834,1,0,0,-0.666606923,2.666656017,1,0,0,1,56,216,137,1,,response1disk_3,TRUE,7,7,"[156,251,144,309,292,236,294,298,235,63,19,194,168,77,217,76,41,102,44,44]",2.054,rectangle
,,,,,,,,,,,,,FF,,,,,,,,0.9523,,,,,,,,,,,,,,,,,,,,,,61018ac0b925ce90dfec65ea,61036b86f1dd5187a7b63c51,2021-07-29_23h01.50.520,Simcolourproject_2stim_asymm_v5,2020.2.10,Win32,60,61025ae37ef11b136ea224fe,,,,,,,,,1840,-34.66660794,-73.33334625,1,0,0,response5disk,,3,7.333393315,-2.000010788,1,0,0,rectangle,7.333393315,-2.000010788,1,0,0,7.333393315,-2.000010788,1,0,0,1,57,217,86,1,,,,,,,,
,,,,,,,,,,,,,FF,,,,,,,,1.1669,,,,,,,,,,,,,,,,,,,,,,61018ac0b925ce90dfec65ea,61036b86f1dd5187a7b63c51,2021-07-29_23h01.50.520,Simcolourproject_2stim_asymm_v5,2020.2.10,Win32,60,61025ae37ef11b136ea224fe,,,,,,,,,108,57.33335412,-33.33334506,1,0,0,response3disk,,5,3.333393196,-8.000010967,1,0,0,rectangle,3.333393196,-8.000010967,1,0,0,3.333393196,-8.000010967,1,0,0,1,58,218,79,1,,,,,,,,
,,,,,,,,,,,,,FF,,,,,,,,2.8868,,,,,,,,,,,,,,,,,,,,,,61018ac0b925ce90dfec65ea,61036b86f1dd5187a7b63c51,2021-07-29_23h01.50.520,Simcolourproject_2stim_asymm_v5,2020.2.10,Win32,60,61025ae37ef11b136ea224fe,,,,,,,,,1394,71.33335453,35.33330331,1,0,0,response1disk,,6,6.666685939,6.666656137,1,0,0,rectangle,6.666685939,6.666656137,1,0,0,6.666685939,6.666656137,1,0,0,1,59,219,81,1,,,,,,,,
,,,,,,,,,,,,,FF,,,,,,,,1.7195,,,,,,,,,,,,,,,,,,,,,,61018ac0b925ce90dfec65ea,61036b86f1dd5187a7b63c51,2021-07-29_23h01.50.520,Simcolourproject_2stim_asymm_v5,2020.2.10,Win32,60,61025ae37ef11b136ea224fe,,,,,,,,,3151,-30.66660782,-84.00001323,1,0,0,response5disk,,3,-1.999980986,-4.666677535,1,0,0,rectangle,-1.999980986,-4.666677535,1,0,0,-1.999980986,-4.666677535,1,0,0,1,60,220,82,1,,,,,,,,
,,,,,,,,,,,,,FF,,,,,,,,0.7863,,,,,,,,,,,,,,,,,,,,,,61018ac0b925ce90dfec65ea,61036b86f1dd5187a7b63c51,2021-07-29_23h01.50.520,Simcolourproject_2stim_asymm_v5,2020.2.10,Win32,60,61025ae37ef11b136ea224fe,,,,,,,,,1548,63.33335429,37.33330337,1,0,0,response1disk,,6,-2.666606983,-4.000010848,1,0,0,rectangle,-2.666606983,-4.000010848,1,0,0,-2.666606983,-4.000010848,1,0,0,1,61,221,83,1,,,,,,,,
,,,,,,,,,,,,,FF,,,,,,,,1.666,,,,,,,,,,,,,,,,,,,,,,61018ac0b925ce90dfec65ea,61036b86f1dd5187a7b63c51,2021-07-29_23h01.50.520,Simcolourproject_2stim_asymm_v5,2020.2.10,Win32,60,61025ae37ef11b136ea224fe,,,,,,,,,2085,28.00001991,-74.66667962,1,0,0,response3disk,,4,2.000019133,13.99998969,1,0,0,rectangle,2.000019133,13.99998969,1,0,0,2.000019133,13.99998969,1,0,0,1,62,222,95,1,,,,,,,,
,,,,,,,,,,,,,FF,,,,,,,,1.5848,,,,,,,,,,,,,,,,,,,,,,61018ac0b925ce90dfec65ea,61036b86f1dd5187a7b63c51,2021-07-29_23h01.50.520,Simcolourproject_2stim_asymm_v5,2020.2.10,Win32,60,61025ae37ef11b136ea224fe,,,,,,,,,1386,62.00002092,-54.66667902,1,0,0,response3disk,,5,2.000019133,-3.333344162,1,0,0,rectangle,2.000019133,-3.333344162,1,0,0,2.000019133,-3.333344162,1,0,0,1,63,223,96,1,,,,,,,,
,,,,,,,,,,,,,FF,,,,,,,,0.941,,,,,,,,,,,,,,,,,,,,,,61018ac0b925ce90dfec65ea,61036b86f1dd5187a7b63c51,2021-07-29_23h01.50.520,Simcolourproject_2stim_asymm_v5,2020.2.10,Win32,60,61025ae37ef11b136ea224fe,,,,,,,,,1811,62.00002092,41.99999052,1,0,0,response1disk,,6,6.666685939,-6.666677594,1,0,0,rectangle,6.666685939,-6.666677594,1,0,0,6.666685939,-6.666677594,1,0,0,1,64,224,67,1,,,,,,,,
,,,,,,,,,,,,,FF,,,,,,,,0.9275,,,,,,,,,,,,,,,,,,,,,,61018ac0b925ce90dfec65ea,61036b86f1dd5187a7b63c51,2021-07-29_23h01.50.520,Simcolourproject_2stim_asymm_v5,2020.2.10,Win32,60,61025ae37ef11b136ea224fe,,,,,,,,,2325,42.66668701,74.66665816,1,0,0,response1disk,,7,6.666685939,5.333322763,1,0,0,rectangle,6.666685939,5.333322763,1,0,0,6.666685939,5.333322763,1,0,0,1,65,225,110,1,,,,,,,,
,,,,,,,,,,,,,FF,,,,,,,,1.2346,,,,,,,,,,,,,,,,,,,,,,61018ac0b925ce90dfec65ea,61036b86f1dd5187a7b63c51,2021-07-29_23h01.50.520,Simcolourproject_2stim_asymm_v5,2020.2.10,Win32,60,61025ae37ef11b136ea224fe,,,,,,,,,484,60.00002086,-42.66667867,1,0,0,response3disk,,5,-1.999980986,-4.666677535,1,0,0,rectangle,-1.999980986,-4.666677535,1,0,0,-1.999980986,-4.666677535,1,0,0,1,66,226,31,1,,,,,,,,
,,,,,,,,,,,,,FF,,,,,,,,0.9506,,,,,,,,,,,,,,,,,,,,,,61018ac0b925ce90dfec65ea,61036b86f1dd5187a7b63c51,2021-07-29_23h01.50.520,Simcolourproject_2stim_asymm_v5,2020.2.10,Win32,60,61025ae37ef11b136ea224fe,,,,,,,,,1646,68.0000211,60.66665775,1,0,0,response1disk,,6,7.333393315,2.666656017,1,0,0,rectangle,7.333393315,2.666656017,1,0,0,7.333393315,2.666656017,1,0,0,1,67,227,89,1,,,,,,,,
,,,,,,,,,,,,,FF,,,,,,,,0.6852,,,,,,,,,,,,,,,,,,,,,,61018ac0b925ce90dfec65ea,61036b86f1dd5187a7b63c51,2021-07-29_23h01.50.520,Simcolourproject_2stim_asymm_v5,2020.2.10,Win32,60,61025ae37ef11b136ea224fe,,,,,,,,,4200,-19.99998152,73.33330444,1,0,0,response7disk,,0,11.33339343,-5.333344221,1,0,0,rectangle,11.33339343,-5.333344221,1,0,0,11.33339343,-5.333344221,1,0,0,1,68,228,117,1,,,,,,,,
,,,,,,,,,,,,,FF,,,,,,,,2.0076,,,,,,,,,,,,,,,,,,,,,,61018ac0b925ce90dfec65ea,61036b86f1dd5187a7b63c51,2021-07-29_23h01.50.520,Simcolourproject_2stim_asymm_v5,2020.2.10,Win32,60,61025ae37ef11b136ea224fe,,,,,,,,,807,52.00002062,-30.66667831,1,0,0,response3disk,,5,-3.333314359,-0.666677415,1,0,0,rectangle,-3.333314359,-0.666677415,1,0,0,-3.333314359,-0.666677415,1,0,0,1,69,229,13,1,,,,,,,,
,,,,,,,,,,,,,FF,,,,,,,,2.1566,,,,,,,,,,,,,,,,,,,,,,61018ac0b925ce90dfec65ea,61036b86f1dd5187a7b63c51,2021-07-29_23h01.50.520,Simcolourproject_2stim_asymm_v5,2020.2.10,Win32,60,61025ae37ef11b136ea224fe,,,,,,,,,3568,62.66668761,25.99999005,1,0,0,response1disk,,6,6.666685939,-4.000010848,1,0,0,rectangle,6.666685939,-4.000010848,1,0,0,6.666685939,-4.000010848,1,0,0,1,70,230,12,1,,,,,,,,
,,,,,,,,,,,,,FF,,,,,,,,1.7428,,,,,,,,,,,,,,,,,,,,,,61018ac0b925ce90dfec65ea,61036b86f1dd5187a7b63c51,2021-07-29_23h01.50.520,Simcolourproject_2stim_asymm_v5,2020.2.10,Win32,60,61025ae37ef11b136ea224fe,,,,,,,,,655,35.33339415,-69.33334613,1,0,0,response3disk,,4,6.000019252,-8.666677654,1,0,0,rectangle,6.000019252,-8.666677654,1,0,0,6.000019252,-8.666677654,1,0,0,1,71,231,72,1,,,,,,,,
,,,,,,,,,,,,,FF,,,,,,,,0.8505,,,,,,,,,,,,,,,,,,,,,,61018ac0b925ce90dfec65ea,61036b86f1dd5187a7b63c51,2021-07-29_23h01.50.520,Simcolourproject_2stim_asymm_v5,2020.2.10,Win32,60,61025ae37ef11b136ea224fe,,,,,,,,,2840,22.66668642,-64.66667932,1,0,0,response3disk,,4,-3.333314359,-4.000010848,1,0,0,rectangle,-3.333314359,-4.000010848,1,0,0,-3.333314359,-4.000010848,1,0,0,1,72,232,71,1,,,,,,,,
,,,,,,,,,,,,,FF,,,,,,,,1.4082,,,,,,,,,,,,,,,,,,,,,,61018ac0b925ce90dfec65ea,61036b86f1dd5187a7b63c51,2021-07-29_23h01.50.520,Simcolourproject_2stim_asymm_v5,2020.2.10,Win32,60,61025ae37ef11b136ea224fe,,,,,,,,,1537,68.0000211,-27.33334488,1,0,0,response3disk,,5,-0.666606923,-6.666677594,1,0,0,rectangle,-0.666606923,-6.666677594,1,0,0,-0.666606923,-6.666677594,1,0,0,1,73,233,138,1,,,,,,,,
,,,,,,,,,,,,,FF,,,,,,,,0.8122,,,,,,,,,,,,,,,,,,,,,,61018ac0b925ce90dfec65ea,61036b86f1dd5187a7b63c51,2021-07-29_23h01.50.520,Simcolourproject_2stim_asymm_v5,2020.2.10,Win32,60,61025ae37ef11b136ea224fe,,,,,,,,,3226,46.66668713,77.9999916,1,0,0,response1disk,,7,-1.3333143,-3.333344162,1,0,0,rectangle,21.33339373,-68.66667944,1,0,0,6.000019252,-7.333344281,1,0,0,1,74,234,129,1,,response3disk_3,TRUE,4,4,"[156,251,144,309,292,236,294,298,235,63,19,194,168,77,217,76,41,102,44,44]",1.6977,rectangle
,,,,,,,,,,,,,FF,,,,,,,,0.8705,,,,,,,,,,,,,,,,,,,,,,61018ac0b925ce90dfec65ea,61036b86f1dd5187a7b63c51,2021-07-29_23h01.50.520,Simcolourproject_2stim_asymm_v5,2020.2.10,Win32,60,61025ae37ef11b136ea224fe,,,,,,,,,1173,38.66668689,74.66665816,1,0,0,response1disk,,7,-3.999981046,-1.333344102,1,0,0,rectangle,-34.66660794,-86.00001329,1,0,0,3.333393196,7.333322823,1,0,0,1,75,235,34,1,,response5disk_3,TRUE,3,3,"[156,251,144,309,292,236,294,298,235,63,19,194,168,77,217,76,41,102,44,44]",1.4559,rectangle
,,,,,,,,,,,,,FF,,,,,,,,0.9839,,,,,,,,,,,,,,,,,,,,,,61018ac0b925ce90dfec65ea,61036b86f1dd5187a7b63c51,2021-07-29_23h01.50.520,Simcolourproject_2stim_asymm_v5,2020.2.10,Win32,60,61025ae37ef11b136ea224fe,,,,,,,,,3861,33.33339409,-52.66667897,1,0,0,response3disk,,4,3.333393196,-8.666677654,1,0,0,rectangle,3.333393196,-8.666677654,1,0,0,3.333393196,-8.666677654,1,0,0,1,76,236,75,1,,,,,,,,
,,,,,,,,,,,,,FF,,,,,,,,0.9492,,,,,,,,,,,,,,,,,,,,,,61018ac0b925ce90dfec65ea,61036b86f1dd5187a7b63c51,2021-07-29_23h01.50.520,Simcolourproject_2stim_asymm_v5,2020.2.10,Win32,60,61025ae37ef11b136ea224fe,,,,,,,,,1490,39.33339427,68.66665798,1,0,0,response1disk,,7,1.333393137,-2.666677475,1,0,0,rectangle,1.333393137,-2.666677475,1,0,0,1.333393137,-2.666677475,1,0,0,1,77,237,48,1,,,,,,,,
,,,,,,,,,,,,,FF,,,,,,,,0.7372,,,,,,,,,,,,,,,,,,,,,,61018ac0b925ce90dfec65ea,61036b86f1dd5187a7b63c51,2021-07-29_23h01.50.520,Simcolourproject_2stim_asymm_v5,2020.2.10,Win32,60,61025ae37ef11b136ea224fe,,,,,,,,,2197,44.66668707,60.66665775,1,0,0,response1disk,,7,5.333393256,8.666656196,1,0,0,rectangle,5.333393256,8.666656196,1,0,0,5.333393256,8.666656196,1,0,0,1,78,238,42,1,,,,,,,,
,,,,,,,,,,,,,FF,,,,,,,,0.7149,,,,,,,,,,,,,,,,,,,,,,61018ac0b925ce90dfec65ea,61036b86f1dd5187a7b63c51,2021-07-29_23h01.50.520,Simcolourproject_2stim_asymm_v5,2020.2.10,Win32,60,61025ae37ef11b136ea224fe,,,,,,,,,1271,31.33339403,67.9999913,1,0,0,response1disk,,7,5.333393256,9.999989569,1,0,0,rectangle,5.333393256,9.999989569,1,0,0,5.333393256,9.999989569,1,0,0,1,79,239,65,1,,,,,,,,
,,,,,,,,,,,,,FF,,,,,,,,0.8224,,,,,,,,,,,,,,,,,,,,,,61018ac0b925ce90dfec65ea,61036b86f1dd5187a7b63c51,2021-07-29_23h01.50.520,Simcolourproject_2stim_asymm_v5,2020.2.10,Win32,60,61025ae37ef11b136ea224fe,,,,,,,,,3418,-31.99998188,-63.33334595,1,0,0,response5disk,,3,2.000019133,2.666656017,1,0,0,rectangle,2.000019133,2.666656017,1,0,0,2.000019133,2.666656017,1,0,0,1,80,240,38,1,,,,,,,,
,,,,,,,,,,,,,FF,,,,,,,,0.8164,,,,,,,,,,,,,,,,,,,,,,61018ac0b925ce90dfec65ea,61036b86f1dd5187a7b63c51,2021-07-29_23h01.50.520,Simcolourproject_2stim_asymm_v5,2020.2.10,Win32,60,61025ae37ef11b136ea224fe,,,,,,,,,1198,21.33339373,-66.66667938,1,0,0,response3disk,,4,-3.999981046,-2.666677475,1,0,0,rectangle,-3.999981046,-2.666677475,1,0,0,-3.999981046,-2.666677475,1,0,0,1,81,241,62,1,,,,,,,,
,,,,,,,,,,,,,FF,,,,,,,,0.6936,,,,,,,,,,,,,,,,,,,,,,61018ac0b925ce90dfec65ea,61036b86f1dd5187a7b63c51,2021-07-29_23h01.50.520,Simcolourproject_2stim_asymm_v5,2020.2.10,Win32,60,61025ae37ef11b136ea224fe,,,,,,,,,2202,42.00002033,78.66665828,1,0,0,response1disk,,7,5.333393256,-6.000010908,1,0,0,rectangle,5.333393256,-6.000010908,1,0,0,5.333393256,-6.000010908,1,0,0,1,82,242,19,1,,,,,,,,
,,,,,,,,,,,,,FF,,,,,,,,0.9357,,,,,,,,,,,,,,,,,,,,,,61018ac0b925ce90dfec65ea,61036b86f1dd5187a7b63c51,2021-07-29_23h01.50.520,Simcolourproject_2stim_asymm_v5,2020.2.10,Win32,60,61025ae37ef11b136ea224fe,,,,,,,,,742,68.0000211,27.33330307,1,0,0,response1disk,,6,12.00001943,-6.666677594,1,0,0,rectangle,12.00001943,-6.666677594,1,0,0,12.00001943,-6.666677594,1,0,0,1,83,243,50,1,,,,,,,,
