key_resp.keys,key_resp.rt,key_resp_14.keys,key_resp_14.rt,key_resp_15.keys,key_resp_15.rt,key_resp_17.keys,key_resp_17.rt,key_resp_9.keys,key_resp_9.rt,key_resp_10.keys,key_resp_10.rt,practice_comparison,Ecc,mouse_5.x,mouse_5.y,mouse_5.leftButton,mouse_5.midButton,mouse_5.rightButton,mouse_5.clicked_name,pracsimilarity,response_time,mouse_10.x,mouse_10.y,mouse_10.leftButton,mouse_10.midButton,mouse_10.rightButton,mouse_10.clicked_name,mouse_7.x,mouse_7.y,mouse_7.leftButton,mouse_7.midButton,mouse_7.rightButton,mouse_6.x,mouse_6.y,mouse_6.leftButton,mouse_6.midButton,mouse_6.rightButton,duringprac.thisRepN,duringprac.thisTrialN,duringprac.thisN,duringprac.thisIndex,duringprac.ran,participant,session,date,expName,psychopyVersion,OS,frameRate,study_id,mouse_7.clicked_name,catchpracsimilarity,catch_response_time,catchnumberprac,catchtrialorderprac,mouse_6.clicked_name,key_resp_22.keys,key_resp_22.rt,realcomparison,mouse.x,mouse.y,mouse.leftButton,mouse.midButton,mouse.rightButton,mouse.clicked_name,Colour2,similarity,mouse_2.x,mouse_2.y,mouse_2.leftButton,mouse_2.midButton,mouse_2.rightButton,mouse_2.clicked_name,mouse_3.x,mouse_3.y,mouse_3.leftButton,mouse_3.midButton,mouse_3.rightButton,mouse_11.x,mouse_11.y,mouse_11.leftButton,mouse_11.midButton,mouse_11.rightButton,trials_2.thisRepN,trials_2.thisTrialN,trials_2.thisN,trials_2.thisIndex,trials_2.ran,Colour1,mouse_3.clicked_name,catchornah,catchsimilarity,catchnumber,catchtrialorder,catchRT,mouse_11.clicked_name
space,250.0831,space,16.0184,space,48.191,space,11.4633,space,2.29,space,4.0177,43,FF,104.6328125,44.68359375,1,0,0,response1disk_5,6,6.7246,-7.32421875,-3.39453125,1,0,0,rectangle_8,-7.32421875,-3.39453125,1,0,0,-7.32421875,-3.39453125,1,0,0,0,0,0,3,1,6101d91477752dbb2e72baa5,61036cd533a41143392f15ec,2021-07-29_23h19.35.331,Simcolourproject_2stim_asymm_v5,2020.2.10,MacIntel,60,61025ae37ef11b136ea224fe,,,,,,,,,,,,,,,,,,,,,,,,,,,,,,,,,,,,,,,,,,,,,,
,,,,,,,,,,,,142,FF,91.65234375,-49.515625,1,0,0,response3disk_5,5,3.7922,14.93359375,-2.1015625,1,0,0,rectangle_8,117.03125,-55.67578125,1,0,0,4.0546875,-1.375,1,0,0,0,1,1,0,1,6101d91477752dbb2e72baa5,61036cd533a41143392f15ec,2021-07-29_23h19.35.331,Simcolourproject_2stim_asymm_v5,2020.2.10,MacIntel,60,61025ae37ef11b136ea224fe,response3disk_7,5,2.8446,5,"[2,5]",rectangle_4,,,,,,,,,,,,,,,,,,,,,,,,,,,,,,,,,,,,,,,,
,,,,,,,,,,,,71,PF,46.796875,77.453125,1,0,0,response1disk_5,7,4.2039,2.85546875,0.09375,1,0,0,rectangle_8,2.85546875,0.09375,1,0,0,2.85546875,0.09375,1,0,0,0,2,2,4,1,6101d91477752dbb2e72baa5,61036cd533a41143392f15ec,2021-07-29_23h19.35.331,Simcolourproject_2stim_asymm_v5,2020.2.10,MacIntel,60,61025ae37ef11b136ea224fe,,,,,,,,,,,,,,,,,,,,,,,,,,,,,,,,,,,,,,,,,,,,,,
,,,,,,,,,,,,118,FF,-39.578125,-89.48046875,1,0,0,response5disk_5,3,4.8807,17.12109375,11.50390625,1,0,0,rectangle_8,17.12109375,11.50390625,1,0,0,17.12109375,11.50390625,1,0,0,0,3,3,5,1,6101d91477752dbb2e72baa5,61036cd533a41143392f15ec,2021-07-29_23h19.35.331,Simcolourproject_2stim_asymm_v5,2020.2.10,MacIntel,60,61025ae37ef11b136ea224fe,,,,,,,,,,,,,,,,,,,,,,,,,,,,,,,,,,,,,,,,,,,,,,
,,,,,,,,,,,,150,PF,-27.82421875,-66.6328125,1,0,0,response5disk_5,3,1.2863,23.4609375,7.44921875,1,0,0,rectangle_8,71.3046875,-50.375,1,0,0,-3.66796875,3.07421875,1,0,0,0,4,4,6,1,6101d91477752dbb2e72baa5,61036cd533a41143392f15ec,2021-07-29_23h19.35.331,Simcolourproject_2stim_asymm_v5,2020.2.10,MacIntel,60,61025ae37ef11b136ea224fe,response3disk_7,5,1.8214,5,"[2,5]",rectangle_4,,,,,,,,,,,,,,,,,,,,,,,,,,,,,,,,,,,,,,,,
,,,,,,,,,,,,36,PF,88.35546875,-44.19140625,1,0,0,response3disk_5,5,3.6779,-31.015625,7.97265625,1,0,0,rectangle_8,-31.015625,7.97265625,1,0,0,-31.015625,7.97265625,1,0,0,0,5,5,1,1,6101d91477752dbb2e72baa5,61036cd533a41143392f15ec,2021-07-29_23h19.35.331,Simcolourproject_2stim_asymm_v5,2020.2.10,MacIntel,60,61025ae37ef11b136ea224fe,,,,,,,,,,,,,,,,,,,,,,,,,,,,,,,,,,,,,,,,,,,,,,
,,,,,,,,,,,,74,PF,-90.60546875,36.703125,1,0,0,response7disk_5,1,1.4525,14.77734375,-5.1640625,1,0,0,rectangle_8,14.77734375,-5.1640625,1,0,0,14.77734375,-5.1640625,1,0,0,0,6,6,2,1,6101d91477752dbb2e72baa5,61036cd533a41143392f15ec,2021-07-29_23h19.35.331,Simcolourproject_2stim_asymm_v5,2020.2.10,MacIntel,60,61025ae37ef11b136ea224fe,,,,,,,,,,,,,,,,,,,,,,,,,,,,,,,,,,,,,,,,,,,,,,
,,,,,,,,,,,,,FF,,,,,,,,3.9915,,,,,,,,,,,,,,,,,,,,,,6101d91477752dbb2e72baa5,61036cd533a41143392f15ec,2021-07-29_23h19.35.331,Simcolourproject_2stim_asymm_v5,2020.2.10,MacIntel,60,61025ae37ef11b136ea224fe,,,,,,,space,2.6383,2852,-37.60546875,-78.05078125,1,0,0,response5disk,,3,8.421875,6.890625,1,0,0,rectangle,8.421875,6.890625,1,0,0,8.421875,6.890625,1,0,0,0,0,0,131,1,,,,,,,,
,,,,,,,,,,,,,FF,,,,,,,,1.2878,,,,,,,,,,,,,,,,,,,,,,6101d91477752dbb2e72baa5,61036cd533a41143392f15ec,2021-07-29_23h19.35.331,Simcolourproject_2stim_asymm_v5,2020.2.10,MacIntel,60,61025ae37ef11b136ea224fe,,,,,,,,,3202,-106.7382813,40.14453125,1,0,0,response7disk,,1,9.83203125,-9.72265625,1,0,0,rectangle,9.83203125,-9.72265625,1,0,0,9.83203125,-9.72265625,1,0,0,0,1,1,82,1,,,,,,,,
,,,,,,,,,,,,,FF,,,,,,,,2.2226,,,,,,,,,,,,,,,,,,,,,,6101d91477752dbb2e72baa5,61036cd533a41143392f15ec,2021-07-29_23h19.35.331,Simcolourproject_2stim_asymm_v5,2020.2.10,MacIntel,60,61025ae37ef11b136ea224fe,,,,,,,,,2310,-32.8671875,-94.44921875,1,0,0,response5disk,,3,10.58203125,3.578125,1,0,0,rectangle,10.58203125,3.578125,1,0,0,10.58203125,3.578125,1,0,0,0,2,2,94,1,,,,,,,,
,,,,,,,,,,,,,FF,,,,,,,,1.989,,,,,,,,,,,,,,,,,,,,,,6101d91477752dbb2e72baa5,61036cd533a41143392f15ec,2021-07-29_23h19.35.331,Simcolourproject_2stim_asymm_v5,2020.2.10,MacIntel,60,61025ae37ef11b136ea224fe,,,,,,,,,1239,91.12890625,-63.51953125,1,0,0,response3disk,,5,3.49609375,-6.59375,1,0,0,rectangle,3.49609375,-6.59375,1,0,0,3.49609375,-6.59375,1,0,0,0,3,3,143,1,,,,,,,,
,,,,,,,,,,,,,FF,,,,,,,,2.4062,,,,,,,,,,,,,,,,,,,,,,6101d91477752dbb2e72baa5,61036cd533a41143392f15ec,2021-07-29_23h19.35.331,Simcolourproject_2stim_asymm_v5,2020.2.10,MacIntel,60,61025ae37ef11b136ea224fe,,,,,,,,,860,35.21484375,-114.1523438,1,0,0,response3disk,,4,10.84765625,2.21875,1,0,0,rectangle,10.84765625,2.21875,1,0,0,10.84765625,2.21875,1,0,0,0,4,4,92,1,,,,,,,,
,,,,,,,,,,,,,FF,,,,,,,,1.035,,,,,,,,,,,,,,,,,,,,,,6101d91477752dbb2e72baa5,61036cd533a41143392f15ec,2021-07-29_23h19.35.331,Simcolourproject_2stim_asymm_v5,2020.2.10,MacIntel,60,61025ae37ef11b136ea224fe,,,,,,,,,3386,-77.4140625,-33.46875,1,0,0,response5disk,,2,21.3828125,2.75390625,1,0,0,rectangle,21.3828125,2.75390625,1,0,0,21.3828125,2.75390625,1,0,0,0,5,5,64,1,,,,,,,,
,,,,,,,,,,,,,FF,,,,,,,,3.1419,,,,,,,,,,,,,,,,,,,,,,6101d91477752dbb2e72baa5,61036cd533a41143392f15ec,2021-07-29_23h19.35.331,Simcolourproject_2stim_asymm_v5,2020.2.10,MacIntel,60,61025ae37ef11b136ea224fe,,,,,,,,,1550,67.15234375,-88.046875,1,0,0,response3disk,,4,2.56640625,5.87109375,1,0,0,rectangle,2.56640625,5.87109375,1,0,0,2.56640625,5.87109375,1,0,0,0,6,6,77,1,,,,,,,,
,,,,,,,,,,,,,FF,,,,,,,,3.4581,,,,,,,,,,,,,,,,,,,,,,6101d91477752dbb2e72baa5,61036cd533a41143392f15ec,2021-07-29_23h19.35.331,Simcolourproject_2stim_asymm_v5,2020.2.10,MacIntel,60,61025ae37ef11b136ea224fe,,,,,,,,,1718,40.13671875,-98.8046875,1,0,0,response3disk,,4,9.56640625,-0.66796875,1,0,0,rectangle,9.56640625,-0.66796875,1,0,0,9.56640625,-0.66796875,1,0,0,0,7,7,19,1,,,,,,,,
,,,,,,,,,,,,,FF,,,,,,,,0.9854,,,,,,,,,,,,,,,,,,,,,,6101d91477752dbb2e72baa5,61036cd533a41143392f15ec,2021-07-29_23h19.35.331,Simcolourproject_2stim_asymm_v5,2020.2.10,MacIntel,60,61025ae37ef11b136ea224fe,,,,,,,,,4254,-80.45703125,32.54296875,1,0,0,response7disk,,1,2.25,-7.12890625,1,0,0,rectangle,2.25,-7.12890625,1,0,0,2.25,-7.12890625,1,0,0,0,8,8,73,1,,,,,,,,
,,,,,,,,,,,,,FF,,,,,,,,1.4031,,,,,,,,,,,,,,,,,,,,,,6101d91477752dbb2e72baa5,61036cd533a41143392f15ec,2021-07-29_23h19.35.331,Simcolourproject_2stim_asymm_v5,2020.2.10,MacIntel,60,61025ae37ef11b136ea224fe,,,,,,,,,2386,64.578125,-39.5859375,1,0,0,response3disk,,5,13.41796875,-8.140625,1,0,0,rectangle,13.41796875,-8.140625,1,0,0,13.41796875,-8.140625,1,0,0,0,9,9,81,1,,,,,,,,
,,,,,,,,,,,,,FF,,,,,,,,1.0363,,,,,,,,,,,,,,,,,,,,,,6101d91477752dbb2e72baa5,61036cd533a41143392f15ec,2021-07-29_23h19.35.331,Simcolourproject_2stim_asymm_v5,2020.2.10,MacIntel,60,61025ae37ef11b136ea224fe,,,,,,,,,1987,24.82421875,-92.1953125,1,0,0,response3disk,,4,-5.25390625,-3.6640625,1,0,0,rectangle,-5.25390625,-3.6640625,1,0,0,-5.25390625,-3.6640625,1,0,0,0,10,10,90,1,,,,,,,,
,,,,,,,,,,,,,FF,,,,,,,,1.9229,,,,,,,,,,,,,,,,,,,,,,6101d91477752dbb2e72baa5,61036cd533a41143392f15ec,2021-07-29_23h19.35.331,Simcolourproject_2stim_asymm_v5,2020.2.10,MacIntel,60,61025ae37ef11b136ea224fe,,,,,,,,,2532,-90.30078125,-52.1484375,1,0,0,response5disk,,2,13.40625,7.37890625,1,0,0,rectangle,13.40625,7.37890625,1,0,0,13.40625,7.37890625,1,0,0,0,11,11,102,1,,,,,,,,
,,,,,,,,,,,,,FF,,,,,,,,1.0529,,,,,,,,,,,,,,,,,,,,,,6101d91477752dbb2e72baa5,61036cd533a41143392f15ec,2021-07-29_23h19.35.331,Simcolourproject_2stim_asymm_v5,2020.2.10,MacIntel,60,61025ae37ef11b136ea224fe,,,,,,,,,3476,-100,36.78515625,1,0,0,response7disk,,1,-4.9921875,-0.52734375,1,0,0,rectangle,-4.9921875,-0.52734375,1,0,0,-4.9921875,-0.52734375,1,0,0,0,12,12,133,1,,,,,,,,
,,,,,,,,,,,,,FF,,,,,,,,0.9691,,,,,,,,,,,,,,,,,,,,,,6101d91477752dbb2e72baa5,61036cd533a41143392f15ec,2021-07-29_23h19.35.331,Simcolourproject_2stim_asymm_v5,2020.2.10,MacIntel,60,61025ae37ef11b136ea224fe,,,,,,,,,637,-92.890625,48.98046875,1,0,0,response7disk,,1,4.91796875,-6.80078125,1,0,0,rectangle,4.91796875,-6.80078125,1,0,0,4.91796875,-6.80078125,1,0,0,0,13,13,45,1,,,,,,,,
,,,,,,,,,,,,,FF,,,,,,,,4.1498,,,,,,,,,,,,,,,,,,,,,,6101d91477752dbb2e72baa5,61036cd533a41143392f15ec,2021-07-29_23h19.35.331,Simcolourproject_2stim_asymm_v5,2020.2.10,MacIntel,60,61025ae37ef11b136ea224fe,,,,,,,,,4032,43.77734375,-77.7578125,1,0,0,response3disk,,4,3.17578125,7.66015625,1,0,0,rectangle,3.17578125,7.66015625,1,0,0,3.17578125,7.66015625,1,0,0,0,14,14,136,1,,,,,,,,
,,,,,,,,,,,,,FF,,,,,,,,3.0739,,,,,,,,,,,,,,,,,,,,,,6101d91477752dbb2e72baa5,61036cd533a41143392f15ec,2021-07-29_23h19.35.331,Simcolourproject_2stim_asymm_v5,2020.2.10,MacIntel,60,61025ae37ef11b136ea224fe,,,,,,,,,1436,100.0351563,-82.69140625,1,0,0,response3disk,,5,-13.1484375,-0.30859375,1,0,0,rectangle,-13.1484375,-0.30859375,1,0,0,-13.1484375,-0.30859375,1,0,0,0,15,15,127,1,,,,,,,,
,,,,,,,,,,,,,FF,,,,,,,,1.2368,,,,,,,,,,,,,,,,,,,,,,6101d91477752dbb2e72baa5,61036cd533a41143392f15ec,2021-07-29_23h19.35.331,Simcolourproject_2stim_asymm_v5,2020.2.10,MacIntel,60,61025ae37ef11b136ea224fe,,,,,,,,,122,97.8046875,-45.66796875,1,0,0,response3disk,,5,28.17578125,-1.8515625,1,0,0,rectangle,28.17578125,-1.8515625,1,0,0,28.17578125,-1.8515625,1,0,0,0,16,16,134,1,,,,,,,,
,,,,,,,,,,,,,FF,,,,,,,,1.1361,,,,,,,,,,,,,,,,,,,,,,6101d91477752dbb2e72baa5,61036cd533a41143392f15ec,2021-07-29_23h19.35.331,Simcolourproject_2stim_asymm_v5,2020.2.10,MacIntel,60,61025ae37ef11b136ea224fe,,,,,,,,,2334,86.296875,28.67578125,1,0,0,response1disk,,6,-4.08984375,3.81640625,1,0,0,rectangle,-4.08984375,3.81640625,1,0,0,-4.08984375,3.81640625,1,0,0,0,17,17,151,1,,,,,,,,
,,,,,,,,,,,,,FF,,,,,,,,1.4197,,,,,,,,,,,,,,,,,,,,,,6101d91477752dbb2e72baa5,61036cd533a41143392f15ec,2021-07-29_23h19.35.331,Simcolourproject_2stim_asymm_v5,2020.2.10,MacIntel,60,61025ae37ef11b136ea224fe,,,,,,,,,2876,95.4609375,-59.6484375,1,0,0,response3disk,,5,-3.8828125,-5.4296875,1,0,0,rectangle,-3.8828125,-5.4296875,1,0,0,-3.8828125,-5.4296875,1,0,0,0,18,18,17,1,,,,,,,,
,,,,,,,,,,,,,FF,,,,,,,,3.159,,,,,,,,,,,,,,,,,,,,,,6101d91477752dbb2e72baa5,61036cd533a41143392f15ec,2021-07-29_23h19.35.331,Simcolourproject_2stim_asymm_v5,2020.2.10,MacIntel,60,61025ae37ef11b136ea224fe,,,,,,,,,1891,-81.36328125,-43.82421875,1,0,0,response5disk,,2,24.84375,0.703125,1,0,0,rectangle,24.84375,0.703125,1,0,0,24.84375,0.703125,1,0,0,0,19,19,12,1,,,,,,,,
,,,,,,,,,,,,,FF,,,,,,,,1.6212,,,,,,,,,,,,,,,,,,,,,,6101d91477752dbb2e72baa5,61036cd533a41143392f15ec,2021-07-29_23h19.35.331,Simcolourproject_2stim_asymm_v5,2020.2.10,MacIntel,60,61025ae37ef11b136ea224fe,,,,,,,,,3028,51.421875,-112.90625,1,0,0,response3disk,,4,8.5390625,2.30078125,1,0,0,rectangle,8.5390625,2.30078125,1,0,0,8.5390625,2.30078125,1,0,0,0,20,20,155,1,,,,,,,,
,,,,,,,,,,,,,FF,,,,,,,,1.2557,,,,,,,,,,,,,,,,,,,,,,6101d91477752dbb2e72baa5,61036cd533a41143392f15ec,2021-07-29_23h19.35.331,Simcolourproject_2stim_asymm_v5,2020.2.10,MacIntel,60,61025ae37ef11b136ea224fe,,,,,,,,,1233,90.02734375,-50.734375,1,0,0,response3disk,,5,6.49609375,6.5390625,1,0,0,rectangle,6.49609375,6.5390625,1,0,0,6.49609375,6.5390625,1,0,0,0,21,21,149,1,,,,,,,,
,,,,,,,,,,,,,FF,,,,,,,,1.805,,,,,,,,,,,,,,,,,,,,,,6101d91477752dbb2e72baa5,61036cd533a41143392f15ec,2021-07-29_23h19.35.331,Simcolourproject_2stim_asymm_v5,2020.2.10,MacIntel,60,61025ae37ef11b136ea224fe,,,,,,,,,420,78.46875,-88.9765625,1,0,0,response3disk,,4,-3.33203125,0.37890625,1,0,0,rectangle,-3.33203125,0.37890625,1,0,0,-3.33203125,0.37890625,1,0,0,0,22,22,93,1,,,,,,,,
,,,,,,,,,,,,,FF,,,,,,,,1.8373,,,,,,,,,,,,,,,,,,,,,,6101d91477752dbb2e72baa5,61036cd533a41143392f15ec,2021-07-29_23h19.35.331,Simcolourproject_2stim_asymm_v5,2020.2.10,MacIntel,60,61025ae37ef11b136ea224fe,,,,,,,,,3710,-82.671875,-57.08203125,1,0,0,response5disk,,2,-4.40625,-3.5,1,0,0,rectangle,-4.40625,-3.5,1,0,0,-4.40625,-3.5,1,0,0,0,23,23,37,1,,,,,,,,
,,,,,,,,,,,,,FF,,,,,,,,0.8185,,,,,,,,,,,,,,,,,,,,,,6101d91477752dbb2e72baa5,61036cd533a41143392f15ec,2021-07-29_23h19.35.331,Simcolourproject_2stim_asymm_v5,2020.2.10,MacIntel,60,61025ae37ef11b136ea224fe,,,,,,,,,4269,-92.5078125,-44.6328125,1,0,0,response5disk,,2,-14.19921875,-0.53515625,1,0,0,rectangle,-14.19921875,-0.53515625,1,0,0,-14.19921875,-0.53515625,1,0,0,0,24,24,24,1,,,,,,,,
,,,,,,,,,,,,,FF,,,,,,,,1.5044,,,,,,,,,,,,,,,,,,,,,,6101d91477752dbb2e72baa5,61036cd533a41143392f15ec,2021-07-29_23h19.35.331,Simcolourproject_2stim_asymm_v5,2020.2.10,MacIntel,60,61025ae37ef11b136ea224fe,,,,,,,,,1492,85.28125,-64.50390625,1,0,0,response3disk,,5,-15.078125,-1.96875,1,0,0,rectangle,-15.078125,-1.96875,1,0,0,-15.078125,-1.96875,1,0,0,0,25,25,13,1,,,,,,,,
,,,,,,,,,,,,,FF,,,,,,,,2.5089,,,,,,,,,,,,,,,,,,,,,,6101d91477752dbb2e72baa5,61036cd533a41143392f15ec,2021-07-29_23h19.35.331,Simcolourproject_2stim_asymm_v5,2020.2.10,MacIntel,60,61025ae37ef11b136ea224fe,,,,,,,,,154,82.12109375,-66.15625,1,0,0,response3disk,,5,7.3828125,-9.58984375,1,0,0,rectangle,7.3828125,-9.58984375,1,0,0,7.3828125,-9.58984375,1,0,0,0,26,26,141,1,,,,,,,,
,,,,,,,,,,,,,FF,,,,,,,,1.9059,,,,,,,,,,,,,,,,,,,,,,6101d91477752dbb2e72baa5,61036cd533a41143392f15ec,2021-07-29_23h19.35.331,Simcolourproject_2stim_asymm_v5,2020.2.10,MacIntel,60,61025ae37ef11b136ea224fe,,,,,,,,,783,-39.76171875,-101.4335938,1,0,0,response5disk,,3,-1.3125,-7.12890625,1,0,0,rectangle,-1.3125,-7.12890625,1,0,0,-1.3125,-7.12890625,1,0,0,0,27,27,107,1,,,,,,,,
,,,,,,,,,,,,,FF,,,,,,,,1.9892,,,,,,,,,,,,,,,,,,,,,,6101d91477752dbb2e72baa5,61036cd533a41143392f15ec,2021-07-29_23h19.35.331,Simcolourproject_2stim_asymm_v5,2020.2.10,MacIntel,60,61025ae37ef11b136ea224fe,,,,,,,,,1263,50.24609375,-94.17578125,1,0,0,response3disk,,4,9.90625,9.56640625,1,0,0,rectangle,9.90625,9.56640625,1,0,0,9.90625,9.56640625,1,0,0,0,28,28,129,1,,,,,,,,
,,,,,,,,,,,,,FF,,,,,,,,0.9193,,,,,,,,,,,,,,,,,,,,,,6101d91477752dbb2e72baa5,61036cd533a41143392f15ec,2021-07-29_23h19.35.331,Simcolourproject_2stim_asymm_v5,2020.2.10,MacIntel,60,61025ae37ef11b136ea224fe,,,,,,,,,4142,-104.0078125,47.58203125,1,0,0,response7disk,,1,-11.15625,9.640625,1,0,0,rectangle,-11.15625,9.640625,1,0,0,-11.15625,9.640625,1,0,0,0,29,29,121,1,,,,,,,,
,,,,,,,,,,,,,FF,,,,,,,,0.9526,,,,,,,,,,,,,,,,,,,,,,6101d91477752dbb2e72baa5,61036cd533a41143392f15ec,2021-07-29_23h19.35.331,Simcolourproject_2stim_asymm_v5,2020.2.10,MacIntel,60,61025ae37ef11b136ea224fe,,,,,,,,,2307,-67.0234375,30.734375,1,0,0,response7disk,,1,9.02734375,2.51953125,1,0,0,rectangle,86.50390625,36.9765625,1,0,0,2.234375,5.1171875,1,0,0,0,30,30,120,1,,response1disk_3,TRUE,6,6,"[99,116,33,250,68,250,261,286,259,230,296,187,176,115,136,31,76,86,79,129]",2.5066,rectangle
,,,,,,,,,,,,,FF,,,,,,,,1.7394,,,,,,,,,,,,,,,,,,,,,,6101d91477752dbb2e72baa5,61036cd533a41143392f15ec,2021-07-29_23h19.35.331,Simcolourproject_2stim_asymm_v5,2020.2.10,MacIntel,60,61025ae37ef11b136ea224fe,,,,,,,,,698,-49.11328125,-104,1,0,0,response5disk,,3,-13.1015625,-2.36328125,1,0,0,rectangle,-13.1015625,-2.36328125,1,0,0,-13.1015625,-2.36328125,1,0,0,0,31,31,52,1,,,,,,,,
,,,,,,,,,,,,,FF,,,,,,,,1.0685,,,,,,,,,,,,,,,,,,,,,,6101d91477752dbb2e72baa5,61036cd533a41143392f15ec,2021-07-29_23h19.35.331,Simcolourproject_2stim_asymm_v5,2020.2.10,MacIntel,60,61025ae37ef11b136ea224fe,,,,,,,,,1085,80.8515625,-107.171875,1,0,0,response3disk,,4,-7.88671875,3.12109375,1,0,0,rectangle,-82.91015625,-43.89453125,1,0,0,-0.71484375,0.94921875,1,0,0,0,32,32,119,1,,response5disk_3,TRUE,2,2,"[99,116,33,250,68,250,261,286,259,230,296,187,176,115,136,31,76,86,79,129]",2.2901,rectangle
,,,,,,,,,,,,,FF,,,,,,,,1.2393,,,,,,,,,,,,,,,,,,,,,,6101d91477752dbb2e72baa5,61036cd533a41143392f15ec,2021-07-29_23h19.35.331,Simcolourproject_2stim_asymm_v5,2020.2.10,MacIntel,60,61025ae37ef11b136ea224fe,,,,,,,,,3329,-51.27734375,-104.7539063,1,0,0,response5disk,,3,10.015625,-0.3671875,1,0,0,rectangle,10.015625,-0.3671875,1,0,0,10.015625,-0.3671875,1,0,0,0,33,33,97,1,,,,,,,,
,,,,,,,,,,,,,FF,,,,,,,,1.2032,,,,,,,,,,,,,,,,,,,,,,6101d91477752dbb2e72baa5,61036cd533a41143392f15ec,2021-07-29_23h19.35.331,Simcolourproject_2stim_asymm_v5,2020.2.10,MacIntel,60,61025ae37ef11b136ea224fe,,,,,,,,,272,104.3164063,-74.8359375,1,0,0,response3disk,,5,4.015625,5.48828125,1,0,0,rectangle,4.015625,5.48828125,1,0,0,4.015625,5.48828125,1,0,0,0,34,34,74,1,,,,,,,,
,,,,,,,,,,,,,FF,,,,,,,,1.5573,,,,,,,,,,,,,,,,,,,,,,6101d91477752dbb2e72baa5,61036cd533a41143392f15ec,2021-07-29_23h19.35.331,Simcolourproject_2stim_asymm_v5,2020.2.10,MacIntel,60,61025ae37ef11b136ea224fe,,,,,,,,,2097,-56.57421875,-81.75,1,0,0,response5disk,,3,6.515625,-0.11328125,1,0,0,rectangle,6.515625,-0.11328125,1,0,0,6.515625,-0.11328125,1,0,0,0,35,35,65,1,,,,,,,,
,,,,,,,,,,,,,FF,,,,,,,,1.2016,,,,,,,,,,,,,,,,,,,,,,6101d91477752dbb2e72baa5,61036cd533a41143392f15ec,2021-07-29_23h19.35.331,Simcolourproject_2stim_asymm_v5,2020.2.10,MacIntel,60,61025ae37ef11b136ea224fe,,,,,,,,,2518,95.6796875,-55.5390625,1,0,0,response3disk,,5,21.8984375,-8.19140625,1,0,0,rectangle,21.8984375,-8.19140625,1,0,0,21.8984375,-8.19140625,1,0,0,0,36,36,91,1,,,,,,,,
,,,,,,,,,,,,,FF,,,,,,,,1.8543,,,,,,,,,,,,,,,,,,,,,,6101d91477752dbb2e72baa5,61036cd533a41143392f15ec,2021-07-29_23h19.35.331,Simcolourproject_2stim_asymm_v5,2020.2.10,MacIntel,60,61025ae37ef11b136ea224fe,,,,,,,,,96,-82.05078125,-29.40234375,1,0,0,response5disk,,2,8.0234375,3.80859375,1,0,0,rectangle,8.0234375,3.80859375,1,0,0,8.0234375,3.80859375,1,0,0,0,37,37,58,1,,,,,,,,
,,,,,,,,,,,,,FF,,,,,,,,1.1528,,,,,,,,,,,,,,,,,,,,,,6101d91477752dbb2e72baa5,61036cd533a41143392f15ec,2021-07-29_23h19.35.331,Simcolourproject_2stim_asymm_v5,2020.2.10,MacIntel,60,61025ae37ef11b136ea224fe,,,,,,,,,1833,-101.5898438,-52.65625,1,0,0,response5disk,,2,16.15234375,-5.5390625,1,0,0,rectangle,16.15234375,-5.5390625,1,0,0,16.15234375,-5.5390625,1,0,0,0,38,38,130,1,,,,,,,,
,,,,,,,,,,,,,FF,,,,,,,,1.0701,,,,,,,,,,,,,,,,,,,,,,6101d91477752dbb2e72baa5,61036cd533a41143392f15ec,2021-07-29_23h19.35.331,Simcolourproject_2stim_asymm_v5,2020.2.10,MacIntel,60,61025ae37ef11b136ea224fe,,,,,,,,,848,38.09765625,-82.9609375,1,0,0,response3disk,,4,8.65625,-2.08984375,1,0,0,rectangle,8.65625,-2.08984375,1,0,0,8.65625,-2.08984375,1,0,0,0,39,39,41,1,,,,,,,,
,,,,,,,,,,,,,FF,,,,,,,,1.3539,,,,,,,,,,,,,,,,,,,,,,6101d91477752dbb2e72baa5,61036cd533a41143392f15ec,2021-07-29_23h19.35.331,Simcolourproject_2stim_asymm_v5,2020.2.10,MacIntel,60,61025ae37ef11b136ea224fe,,,,,,,,,90,56.38671875,-95.48828125,1,0,0,response3disk,,4,4.25,3.3828125,1,0,0,rectangle,4.25,3.3828125,1,0,0,4.25,3.3828125,1,0,0,0,40,40,110,1,,,,,,,,
,,,,,,,,,,,,,FF,,,,,,,,1.0865,,,,,,,,,,,,,,,,,,,,,,6101d91477752dbb2e72baa5,61036cd533a41143392f15ec,2021-07-29_23h19.35.331,Simcolourproject_2stim_asymm_v5,2020.2.10,MacIntel,60,61025ae37ef11b136ea224fe,,,,,,,,,4192,117.6796875,-65.27734375,1,0,0,response3disk,,5,4.6640625,-3.59765625,1,0,0,rectangle,4.6640625,-3.59765625,1,0,0,4.6640625,-3.59765625,1,0,0,0,41,41,10,1,,,,,,,,
,,,,,,,,,,,,,FF,,,,,,,,1.0544,,,,,,,,,,,,,,,,,,,,,,6101d91477752dbb2e72baa5,61036cd533a41143392f15ec,2021-07-29_23h19.35.331,Simcolourproject_2stim_asymm_v5,2020.2.10,MacIntel,60,61025ae37ef11b136ea224fe,,,,,,,,,1913,61.25,-107.46875,1,0,0,response3disk,,4,0.15234375,11.45703125,1,0,0,rectangle,0.15234375,11.45703125,1,0,0,0.15234375,11.45703125,1,0,0,0,42,42,38,1,,,,,,,,
,,,,,,,,,,,,,FF,,,,,,,,1.8562,,,,,,,,,,,,,,,,,,,,,,6101d91477752dbb2e72baa5,61036cd533a41143392f15ec,2021-07-29_23h19.35.331,Simcolourproject_2stim_asymm_v5,2020.2.10,MacIntel,60,61025ae37ef11b136ea224fe,,,,,,,,,3182,104.4804688,42.15625,1,0,0,response1disk,,6,9.8359375,-9.546875,1,0,0,rectangle,9.8359375,-9.546875,1,0,0,9.8359375,-9.546875,1,0,0,0,43,43,87,1,,,,,,,,
,,,,,,,,,,,,,FF,,,,,,,,2.1555,,,,,,,,,,,,,,,,,,,,,,6101d91477752dbb2e72baa5,61036cd533a41143392f15ec,2021-07-29_23h19.35.331,Simcolourproject_2stim_asymm_v5,2020.2.10,MacIntel,60,61025ae37ef11b136ea224fe,,,,,,,,,4182,-88.96875,-47.04296875,1,0,0,response5disk,,2,30.81640625,-0.28125,1,0,0,rectangle,30.81640625,-0.28125,1,0,0,30.81640625,-0.28125,1,0,0,0,44,44,117,1,,,,,,,,
,,,,,,,,,,,,,FF,,,,,,,,1.8371,,,,,,,,,,,,,,,,,,,,,,6101d91477752dbb2e72baa5,61036cd533a41143392f15ec,2021-07-29_23h19.35.331,Simcolourproject_2stim_asymm_v5,2020.2.10,MacIntel,60,61025ae37ef11b136ea224fe,,,,,,,,,2598,-23.171875,-110.5390625,1,0,0,response5disk,,3,19.93359375,0.3671875,1,0,0,rectangle,19.93359375,0.3671875,1,0,0,19.93359375,0.3671875,1,0,0,0,45,45,2,1,,,,,,,,
,,,,,,,,,,,,,FF,,,,,,,,1.1361,,,,,,,,,,,,,,,,,,,,,,6101d91477752dbb2e72baa5,61036cd533a41143392f15ec,2021-07-29_23h19.35.331,Simcolourproject_2stim_asymm_v5,2020.2.10,MacIntel,60,61025ae37ef11b136ea224fe,,,,,,,,,3640,84.32421875,-66.84375,1,0,0,response3disk,,5,6.4609375,-3.9921875,1,0,0,rectangle,6.4609375,-3.9921875,1,0,0,6.4609375,-3.9921875,1,0,0,0,46,46,43,1,,,,,,,,
,,,,,,,,,,,,,FF,,,,,,,,1.3215,,,,,,,,,,,,,,,,,,,,,,6101d91477752dbb2e72baa5,61036cd533a41143392f15ec,2021-07-29_23h19.35.331,Simcolourproject_2stim_asymm_v5,2020.2.10,MacIntel,60,61025ae37ef11b136ea224fe,,,,,,,,,3946,-38.91796875,-92.3125,1,0,0,response5disk,,3,7.2421875,-2.86328125,1,0,0,rectangle,7.2421875,-2.86328125,1,0,0,7.2421875,-2.86328125,1,0,0,0,47,47,88,1,,,,,,,,
,,,,,,,,,,,,,FF,,,,,,,,1.1191,,,,,,,,,,,,,,,,,,,,,,6101d91477752dbb2e72baa5,61036cd533a41143392f15ec,2021-07-29_23h19.35.331,Simcolourproject_2stim_asymm_v5,2020.2.10,MacIntel,60,61025ae37ef11b136ea224fe,,,,,,,,,2164,-97.41796875,43.19140625,1,0,0,response7disk,,1,11.4765625,-5.625,1,0,0,rectangle,11.4765625,-5.625,1,0,0,11.4765625,-5.625,1,0,0,0,48,48,30,1,,,,,,,,
,,,,,,,,,,,,,FF,,,,,,,,1.2363,,,,,,,,,,,,,,,,,,,,,,6101d91477752dbb2e72baa5,61036cd533a41143392f15ec,2021-07-29_23h19.35.331,Simcolourproject_2stim_asymm_v5,2020.2.10,MacIntel,60,61025ae37ef11b136ea224fe,,,,,,,,,733,-35.6875,-72.75390625,1,0,0,response5disk,,3,20.28125,2.80859375,1,0,0,rectangle,20.28125,2.80859375,1,0,0,20.28125,2.80859375,1,0,0,0,49,49,95,1,,,,,,,,
,,,,,,,,,,,,,FF,,,,,,,,1.2206,,,,,,,,,,,,,,,,,,,,,,6101d91477752dbb2e72baa5,61036cd533a41143392f15ec,2021-07-29_23h19.35.331,Simcolourproject_2stim_asymm_v5,2020.2.10,MacIntel,60,61025ae37ef11b136ea224fe,,,,,,,,,2027,-106.4023438,27.44140625,1,0,0,response7disk,,1,13.15625,-3.5,1,0,0,rectangle,13.15625,-3.5,1,0,0,13.15625,-3.5,1,0,0,0,50,50,60,1,,,,,,,,
,,,,,,,,,,,,,FF,,,,,,,,159.7771,,,,,,,,,,,,,,,,,,,,,,6101d91477752dbb2e72baa5,61036cd533a41143392f15ec,2021-07-29_23h19.35.331,Simcolourproject_2stim_asymm_v5,2020.2.10,MacIntel,60,61025ae37ef11b136ea224fe,,,,,,,,,4036,36.43359375,-103.4140625,1,0,0,response3disk,,4,5.33984375,-7.9609375,1,0,0,rectangle,5.33984375,-7.9609375,1,0,0,5.33984375,-7.9609375,1,0,0,0,51,51,125,1,,,,,,,,
,,,,,,,,,,,,,FF,,,,,,,,2.4579,,,,,,,,,,,,,,,,,,,,,,6101d91477752dbb2e72baa5,61036cd533a41143392f15ec,2021-07-29_23h19.35.331,Simcolourproject_2stim_asymm_v5,2020.2.10,MacIntel,60,61025ae37ef11b136ea224fe,,,,,,,,,4063,89.08203125,-67.02734375,1,0,0,response3disk,,5,-6.40234375,4.28515625,1,0,0,rectangle,-6.40234375,4.28515625,1,0,0,-6.40234375,4.28515625,1,0,0,0,52,52,49,1,,,,,,,,
,,,,,,,,,,,,,FF,,,,,,,,0.8848,,,,,,,,,,,,,,,,,,,,,,6101d91477752dbb2e72baa5,61036cd533a41143392f15ec,2021-07-29_23h19.35.331,Simcolourproject_2stim_asymm_v5,2020.2.10,MacIntel,60,61025ae37ef11b136ea224fe,,,,,,,,,1576,67.48046875,-87,1,0,0,response3disk,,4,14.7734375,-8.29296875,1,0,0,rectangle,14.7734375,-8.29296875,1,0,0,14.7734375,-8.29296875,1,0,0,0,53,53,36,1,,,,,,,,
,,,,,,,,,,,,,FF,,,,,,,,1.1014,,,,,,,,,,,,,,,,,,,,,,6101d91477752dbb2e72baa5,61036cd533a41143392f15ec,2021-07-29_23h19.35.331,Simcolourproject_2stim_asymm_v5,2020.2.10,MacIntel,60,61025ae37ef11b136ea224fe,,,,,,,,,953,-53.19140625,-103.6289063,1,0,0,response5disk,,3,-3.74609375,-1.71484375,1,0,0,rectangle,-3.74609375,-1.71484375,1,0,0,-3.74609375,-1.71484375,1,0,0,0,54,54,76,1,,,,,,,,
,,,,,,,,,,,,,FF,,,,,,,,0.9015,,,,,,,,,,,,,,,,,,,,,,6101d91477752dbb2e72baa5,61036cd533a41143392f15ec,2021-07-29_23h19.35.331,Simcolourproject_2stim_asymm_v5,2020.2.10,MacIntel,60,61025ae37ef11b136ea224fe,,,,,,,,,112,45.92578125,-81.125,1,0,0,response3disk,,4,-4.40625,-9.79296875,1,0,0,rectangle,-4.40625,-9.79296875,1,0,0,-4.40625,-9.79296875,1,0,0,0,55,55,113,1,,,,,,,,
,,,,,,,,,,,,,FF,,,,,,,,1.0371,,,,,,,,,,,,,,,,,,,,,,6101d91477752dbb2e72baa5,61036cd533a41143392f15ec,2021-07-29_23h19.35.331,Simcolourproject_2stim_asymm_v5,2020.2.10,MacIntel,60,61025ae37ef11b136ea224fe,,,,,,,,,1374,-46.8671875,-98.515625,1,0,0,response5disk,,3,-3.3203125,9.125,1,0,0,rectangle,-3.3203125,9.125,1,0,0,-3.3203125,9.125,1,0,0,0,56,56,53,1,,,,,,,,
,,,,,,,,,,,,,FF,,,,,,,,0.8204,,,,,,,,,,,,,,,,,,,,,,6101d91477752dbb2e72baa5,61036cd533a41143392f15ec,2021-07-29_23h19.35.331,Simcolourproject_2stim_asymm_v5,2020.2.10,MacIntel,60,61025ae37ef11b136ea224fe,,,,,,,,,3367,86.79296875,-50.5546875,1,0,0,response3disk,,5,1.40625,3.8203125,1,0,0,rectangle,1.40625,3.8203125,1,0,0,1.40625,3.8203125,1,0,0,0,57,57,48,1,,,,,,,,
,,,,,,,,,,,,,FF,,,,,,,,1.0862,,,,,,,,,,,,,,,,,,,,,,6101d91477752dbb2e72baa5,61036cd533a41143392f15ec,2021-07-29_23h19.35.331,Simcolourproject_2stim_asymm_v5,2020.2.10,MacIntel,60,61025ae37ef11b136ea224fe,,,,,,,,,411,63.48046875,-99.96875,1,0,0,response3disk,,4,-2.6015625,-9.55078125,1,0,0,rectangle,-2.6015625,-9.55078125,1,0,0,-2.6015625,-9.55078125,1,0,0,0,58,58,111,1,,,,,,,,
,,,,,,,,,,,,,FF,,,,,,,,0.9852,,,,,,,,,,,,,,,,,,,,,,6101d91477752dbb2e72baa5,61036cd533a41143392f15ec,2021-07-29_23h19.35.331,Simcolourproject_2stim_asymm_v5,2020.2.10,MacIntel,60,61025ae37ef11b136ea224fe,,,,,,,,,1469,96.26171875,-48.23046875,1,0,0,response3disk,,5,-3.46875,-4.01953125,1,0,0,rectangle,-3.46875,-4.01953125,1,0,0,-3.46875,-4.01953125,1,0,0,0,59,59,101,1,,,,,,,,
,,,,,,,,,,,,,FF,,,,,,,,2.825,,,,,,,,,,,,,,,,,,,,,,6101d91477752dbb2e72baa5,61036cd533a41143392f15ec,2021-07-29_23h19.35.331,Simcolourproject_2stim_asymm_v5,2020.2.10,MacIntel,60,61025ae37ef11b136ea224fe,,,,,,,,,571,56.3203125,-92.25390625,1,0,0,response3disk,,4,0.69140625,-5.17578125,1,0,0,rectangle,0.69140625,-5.17578125,1,0,0,0.69140625,-5.17578125,1,0,0,0,60,60,89,1,,,,,,,,
,,,,,,,,,,,,,FF,,,,,,,,1.1869,,,,,,,,,,,,,,,,,,,,,,6101d91477752dbb2e72baa5,61036cd533a41143392f15ec,2021-07-29_23h19.35.331,Simcolourproject_2stim_asymm_v5,2020.2.10,MacIntel,60,61025ae37ef11b136ea224fe,,,,,,,,,977,-41.19921875,-104.8671875,1,0,0,response5disk,,3,8.23046875,-5.47265625,1,0,0,rectangle,8.23046875,-5.47265625,1,0,0,8.23046875,-5.47265625,1,0,0,0,61,61,32,1,,,,,,,,
,,,,,,,,,,,,,FF,,,,,,,,1.0535,,,,,,,,,,,,,,,,,,,,,,6101d91477752dbb2e72baa5,61036cd533a41143392f15ec,2021-07-29_23h19.35.331,Simcolourproject_2stim_asymm_v5,2020.2.10,MacIntel,60,61025ae37ef11b136ea224fe,,,,,,,,,4223,-87.33203125,-59.85546875,1,0,0,response5disk,,2,12.6015625,-8.3125,1,0,0,rectangle,12.6015625,-8.3125,1,0,0,12.6015625,-8.3125,1,0,0,0,62,62,62,1,,,,,,,,
,,,,,,,,,,,,,FF,,,,,,,,0.9011,,,,,,,,,,,,,,,,,,,,,,6101d91477752dbb2e72baa5,61036cd533a41143392f15ec,2021-07-29_23h19.35.331,Simcolourproject_2stim_asymm_v5,2020.2.10,MacIntel,60,61025ae37ef11b136ea224fe,,,,,,,,,2950,-107.8242188,-49.02734375,1,0,0,response5disk,,2,-13.09765625,-4.52734375,1,0,0,rectangle,-13.09765625,-4.52734375,1,0,0,-13.09765625,-4.52734375,1,0,0,0,63,63,150,1,,,,,,,,
,,,,,,,,,,,,,FF,,,,,,,,0.9357,,,,,,,,,,,,,,,,,,,,,,6101d91477752dbb2e72baa5,61036cd533a41143392f15ec,2021-07-29_23h19.35.331,Simcolourproject_2stim_asymm_v5,2020.2.10,MacIntel,60,61025ae37ef11b136ea224fe,,,,,,,,,4281,-75.015625,24.7578125,1,0,0,response7disk,,1,-5.625,-1.171875,1,0,0,rectangle,-5.625,-1.171875,1,0,0,-5.625,-1.171875,1,0,0,0,64,64,86,1,,,,,,,,
,,,,,,,,,,,,,FF,,,,,,,,1.1353,,,,,,,,,,,,,,,,,,,,,,6101d91477752dbb2e72baa5,61036cd533a41143392f15ec,2021-07-29_23h19.35.331,Simcolourproject_2stim_asymm_v5,2020.2.10,MacIntel,60,61025ae37ef11b136ea224fe,,,,,,,,,3883,85.1015625,-46.61328125,1,0,0,response3disk,,5,-17.23046875,-7.453125,1,0,0,rectangle,-17.23046875,-7.453125,1,0,0,-17.23046875,-7.453125,1,0,0,0,65,65,71,1,,,,,,,,
,,,,,,,,,,,,,FF,,,,,,,,1.0356,,,,,,,,,,,,,,,,,,,,,,6101d91477752dbb2e72baa5,61036cd533a41143392f15ec,2021-07-29_23h19.35.331,Simcolourproject_2stim_asymm_v5,2020.2.10,MacIntel,60,61025ae37ef11b136ea224fe,,,,,,,,,3826,63.30859375,-90.8359375,1,0,0,response3disk,,4,-3.59375,0.23046875,1,0,0,rectangle,-3.59375,0.23046875,1,0,0,-3.59375,0.23046875,1,0,0,0,66,66,142,1,,,,,,,,
,,,,,,,,,,,,,FF,,,,,,,,1.1353,,,,,,,,,,,,,,,,,,,,,,6101d91477752dbb2e72baa5,61036cd533a41143392f15ec,2021-07-29_23h19.35.331,Simcolourproject_2stim_asymm_v5,2020.2.10,MacIntel,60,61025ae37ef11b136ea224fe,,,,,,,,,4009,35.7421875,-60.90234375,1,0,0,response3disk,,4,7.97265625,2.76171875,1,0,0,rectangle,40.06640625,87.58203125,1,0,0,10.578125,-4,1,0,0,0,67,67,156,1,,response1disk_3,TRUE,7,7,"[99,116,33,250,68,250,261,286,259,230,296,187,176,115,136,31,76,86,79,129]",1.5878,rectangle
,,,,,,,,,,,,,FF,,,,,,,,1.304,,,,,,,,,,,,,,,,,,,,,,6101d91477752dbb2e72baa5,61036cd533a41143392f15ec,2021-07-29_23h19.35.331,Simcolourproject_2stim_asymm_v5,2020.2.10,MacIntel,60,61025ae37ef11b136ea224fe,,,,,,,,,1079,62.8359375,-82.9140625,1,0,0,response3disk,,4,4.36328125,-0.42578125,1,0,0,rectangle,4.36328125,-0.42578125,1,0,0,4.36328125,-0.42578125,1,0,0,0,68,68,115,1,,,,,,,,
,,,,,,,,,,,,,FF,,,,,,,,4.0279,,,,,,,,,,,,,,,,,,,,,,6101d91477752dbb2e72baa5,61036cd533a41143392f15ec,2021-07-29_23h19.35.331,Simcolourproject_2stim_asymm_v5,2020.2.10,MacIntel,60,61025ae37ef11b136ea224fe,,,,,,,,,3203,26.2421875,-72.21484375,1,0,0,response3disk,,4,3.171875,1.9921875,1,0,0,rectangle,3.171875,1.9921875,1,0,0,3.171875,1.9921875,1,0,0,0,69,69,3,1,,,,,,,,
,,,,,,,,,,,,,FF,,,,,,,,1.1703,,,,,,,,,,,,,,,,,,,,,,6101d91477752dbb2e72baa5,61036cd533a41143392f15ec,2021-07-29_23h19.35.331,Simcolourproject_2stim_asymm_v5,2020.2.10,MacIntel,60,61025ae37ef11b136ea224fe,,,,,,,,,2602,-95.24609375,-53.3125,1,0,0,response5disk,,2,-11.24609375,-7.90234375,1,0,0,rectangle,-11.24609375,-7.90234375,1,0,0,-11.24609375,-7.90234375,1,0,0,0,70,70,11,1,,,,,,,,
,,,,,,,,,,,,,FF,,,,,,,,3.0418,,,,,,,,,,,,,,,,,,,,,,6101d91477752dbb2e72baa5,61036cd533a41143392f15ec,2021-07-29_23h19.35.331,Simcolourproject_2stim_asymm_v5,2020.2.10,MacIntel,60,61025ae37ef11b136ea224fe,,,,,,,,,3272,77.2421875,-41.19921875,1,0,0,response3disk,,5,4.9453125,-5.56640625,1,0,0,rectangle,4.9453125,-5.56640625,1,0,0,4.9453125,-5.56640625,1,0,0,0,71,71,106,1,,,,,,,,
,,,,,,,,,,,,,FF,,,,,,,,1.0515,,,,,,,,,,,,,,,,,,,,,,6101d91477752dbb2e72baa5,61036cd533a41143392f15ec,2021-07-29_23h19.35.331,Simcolourproject_2stim_asymm_v5,2020.2.10,MacIntel,60,61025ae37ef11b136ea224fe,,,,,,,,,2262,106.1328125,-53.59375,1,0,0,response3disk,,5,0.7109375,-0.703125,1,0,0,rectangle,0.7109375,-0.703125,1,0,0,0.7109375,-0.703125,1,0,0,0,72,72,14,1,,,,,,,,
,,,,,,,,,,,,,FF,,,,,,,,2.4072,,,,,,,,,,,,,,,,,,,,,,6101d91477752dbb2e72baa5,61036cd533a41143392f15ec,2021-07-29_23h19.35.331,Simcolourproject_2stim_asymm_v5,2020.2.10,MacIntel,60,61025ae37ef11b136ea224fe,,,,,,,,,2154,103.4257813,-49.8671875,1,0,0,response3disk,,5,-6.5234375,-6.078125,1,0,0,rectangle,-6.5234375,-6.078125,1,0,0,-6.5234375,-6.078125,1,0,0,0,73,73,75,1,,,,,,,,
,,,,,,,,,,,,,FF,,,,,,,,4.0287,,,,,,,,,,,,,,,,,,,,,,6101d91477752dbb2e72baa5,61036cd533a41143392f15ec,2021-07-29_23h19.35.331,Simcolourproject_2stim_asymm_v5,2020.2.10,MacIntel,60,61025ae37ef11b136ea224fe,,,,,,,,,2229,-38.4609375,-81.421875,1,0,0,response5disk,,3,4.28515625,1.76171875,1,0,0,rectangle,4.28515625,1.76171875,1,0,0,4.28515625,1.76171875,1,0,0,0,74,74,27,1,,,,,,,,
,,,,,,,,,,,,,FF,,,,,,,,1.2865,,,,,,,,,,,,,,,,,,,,,,6101d91477752dbb2e72baa5,61036cd533a41143392f15ec,2021-07-29_23h19.35.331,Simcolourproject_2stim_asymm_v5,2020.2.10,MacIntel,60,61025ae37ef11b136ea224fe,,,,,,,,,424,58.04296875,-77.57421875,1,0,0,response3disk,,4,-13.27734375,-7.16015625,1,0,0,rectangle,-51.12109375,89.26953125,1,0,0,6.328125,-6.76953125,1,0,0,0,75,75,59,1,,response7disk_3,TRUE,0,0,"[99,116,33,250,68,250,261,286,259,230,296,187,176,115,136,31,76,86,79,129]",2.4059,rectangle
,,,,,,,,,,,,,FF,,,,,,,,16.5451,,,,,,,,,,,,,,,,,,,,,,6101d91477752dbb2e72baa5,61036cd533a41143392f15ec,2021-07-29_23h19.35.331,Simcolourproject_2stim_asymm_v5,2020.2.10,MacIntel,60,61025ae37ef11b136ea224fe,,,,,,,,,2691,-30.671875,-97.08984375,1,0,0,response5disk,,3,9.265625,-5.65625,1,0,0,rectangle,9.265625,-5.65625,1,0,0,9.265625,-5.65625,1,0,0,0,76,76,112,1,,,,,,,,
,,,,,,,,,,,,,FF,,,,,,,,1.6051,,,,,,,,,,,,,,,,,,,,,,6101d91477752dbb2e72baa5,61036cd533a41143392f15ec,2021-07-29_23h19.35.331,Simcolourproject_2stim_asymm_v5,2020.2.10,MacIntel,60,61025ae37ef11b136ea224fe,,,,,,,,,2799,99.53125,-55.84765625,1,0,0,response3disk,,5,7.73828125,1.44140625,1,0,0,rectangle,7.73828125,1.44140625,1,0,0,7.73828125,1.44140625,1,0,0,0,77,77,122,1,,,,,,,,
,,,,,,,,,,,,,FF,,,,,,,,1.1537,,,,,,,,,,,,,,,,,,,,,,6101d91477752dbb2e72baa5,61036cd533a41143392f15ec,2021-07-29_23h19.35.331,Simcolourproject_2stim_asymm_v5,2020.2.10,MacIntel,60,61025ae37ef11b136ea224fe,,,,,,,,,2658,61.77734375,-85.53515625,1,0,0,response3disk,,4,9.3828125,-4.61328125,1,0,0,rectangle,-32.20703125,-97.703125,1,0,0,-0.22265625,-2.421875,1,0,0,0,78,78,146,1,,response5disk_3,TRUE,3,3,"[99,116,33,250,68,250,261,286,259,230,296,187,176,115,136,31,76,86,79,129]",1.8713,rectangle
,,,,,,,,,,,,,FF,,,,,,,,1.873,,,,,,,,,,,,,,,,,,,,,,6101d91477752dbb2e72baa5,61036cd533a41143392f15ec,2021-07-29_23h19.35.331,Simcolourproject_2stim_asymm_v5,2020.2.10,MacIntel,60,61025ae37ef11b136ea224fe,,,,,,,,,346,-107.5898438,44.4609375,1,0,0,response7disk,,1,-1.69921875,-6.765625,1,0,0,rectangle,-1.69921875,-6.765625,1,0,0,-1.69921875,-6.765625,1,0,0,0,79,79,158,1,,,,,,,,
,,,,,,,,,,,,,FF,,,,,,,,1.9373,,,,,,,,,,,,,,,,,,,,,,6101d91477752dbb2e72baa5,61036cd533a41143392f15ec,2021-07-29_23h19.35.331,Simcolourproject_2stim_asymm_v5,2020.2.10,MacIntel,60,61025ae37ef11b136ea224fe,,,,,,,,,3062,-55.32421875,-81.64453125,1,0,0,response5disk,,3,-9.30859375,3.21875,1,0,0,rectangle,-9.30859375,3.21875,1,0,0,-9.30859375,3.21875,1,0,0,0,80,80,51,1,,,,,,,,
,,,,,,,,,,,,,FF,,,,,,,,2.4919,,,,,,,,,,,,,,,,,,,,,,6101d91477752dbb2e72baa5,61036cd533a41143392f15ec,2021-07-29_23h19.35.331,Simcolourproject_2stim_asymm_v5,2020.2.10,MacIntel,60,61025ae37ef11b136ea224fe,,,,,,,,,1621,93.2890625,-61.65625,1,0,0,response3disk,,5,6.0390625,-7.859375,1,0,0,rectangle,6.0390625,-7.859375,1,0,0,6.0390625,-7.859375,1,0,0,0,81,81,0,1,,,,,,,,
,,,,,,,,,,,,,FF,,,,,,,,1.1307,,,,,,,,,,,,,,,,,,,,,,6101d91477752dbb2e72baa5,61036cd533a41143392f15ec,2021-07-29_23h19.35.331,Simcolourproject_2stim_asymm_v5,2020.2.10,MacIntel,60,61025ae37ef11b136ea224fe,,,,,,,,,1366,47.7734375,-81.77734375,1,0,0,response3disk,,4,-6.0390625,0.984375,1,0,0,rectangle,-6.0390625,0.984375,1,0,0,-6.0390625,0.984375,1,0,0,0,82,82,42,1,,,,,,,,
,,,,,,,,,,,,,FF,,,,,,,,1.4037,,,,,,,,,,,,,,,,,,,,,,6101d91477752dbb2e72baa5,61036cd533a41143392f15ec,2021-07-29_23h19.35.331,Simcolourproject_2stim_asymm_v5,2020.2.10,MacIntel,60,61025ae37ef11b136ea224fe,,,,,,,,,1202,-77.046875,46.28515625,1,0,0,response7disk,,1,6.29296875,-4.96875,1,0,0,rectangle,6.29296875,-4.96875,1,0,0,6.29296875,-4.96875,1,0,0,0,83,83,79,1,,,,,,,,
,,,,,,,,,,,,,FF,,,,,,,,1.0188,,,,,,,,,,,,,,,,,,,,,,6101d91477752dbb2e72baa5,61036cd533a41143392f15ec,2021-07-29_23h19.35.331,Simcolourproject_2stim_asymm_v5,2020.2.10,MacIntel,60,61025ae37ef11b136ea224fe,,,,,,,,,3910,-98.515625,31.9453125,1,0,0,response7disk,,1,-8.265625,-3.6640625,1,0,0,rectangle,-8.265625,-3.6640625,1,0,0,-8.265625,-3.6640625,1,0,0,0,84,84,135,1,,,,,,,,
,,,,,,,,,,,,,FF,,,,,,,,1.12,,,,,,,,,,,,,,,,,,,,,,6101d91477752dbb2e72baa5,61036cd533a41143392f15ec,2021-07-29_23h19.35.331,Simcolourproject_2stim_asymm_v5,2020.2.10,MacIntel,60,61025ae37ef11b136ea224fe,,,,,,,,,4160,-42.796875,-99.3828125,1,0,0,response5disk,,3,-3.62109375,8.65625,1,0,0,rectangle,109.90625,-74.30078125,1,0,0,-5.6171875,2.65234375,1,0,0,0,85,85,16,1,,response3disk_3,TRUE,5,5,"[99,116,33,250,68,250,261,286,259,230,296,187,176,115,136,31,76,86,79,129]",1.7721,rectangle
,,,,,,,,,,,,,FF,,,,,,,,1.9708,,,,,,,,,,,,,,,,,,,,,,6101d91477752dbb2e72baa5,61036cd533a41143392f15ec,2021-07-29_23h19.35.331,Simcolourproject_2stim_asymm_v5,2020.2.10,MacIntel,60,61025ae37ef11b136ea224fe,,,,,,,,,475,65.27734375,-110.3476563,1,0,0,response3disk,,4,-3.13671875,1.43359375,1,0,0,rectangle,-3.13671875,1.43359375,1,0,0,-3.13671875,1.43359375,1,0,0,0,86,86,105,1,,,,,,,,
,,,,,,,,,,,,,FF,,,,,,,,1.1018,,,,,,,,,,,,,,,,,,,,,,6101d91477752dbb2e72baa5,61036cd533a41143392f15ec,2021-07-29_23h19.35.331,Simcolourproject_2stim_asymm_v5,2020.2.10,MacIntel,60,61025ae37ef11b136ea224fe,,,,,,,,,1844,50.1171875,-78.15234375,1,0,0,response3disk,,4,-2.578125,6.99609375,1,0,0,rectangle,-2.578125,6.99609375,1,0,0,-2.578125,6.99609375,1,0,0,0,87,87,100,1,,,,,,,,
,,,,,,,,,,,,,FF,,,,,,,,1.0352,,,,,,,,,,,,,,,,,,,,,,6101d91477752dbb2e72baa5,61036cd533a41143392f15ec,2021-07-29_23h19.35.331,Simcolourproject_2stim_asymm_v5,2020.2.10,MacIntel,60,61025ae37ef11b136ea224fe,,,,,,,,,1375,-88.09765625,-46.7109375,1,0,0,response5disk,,2,-4.17578125,-1.19140625,1,0,0,rectangle,-4.17578125,-1.19140625,1,0,0,-4.17578125,-1.19140625,1,0,0,0,88,88,132,1,,,,,,,,
,,,,,,,,,,,,,FF,,,,,,,,1.2867,,,,,,,,,,,,,,,,,,,,,,6101d91477752dbb2e72baa5,61036cd533a41143392f15ec,2021-07-29_23h19.35.331,Simcolourproject_2stim_asymm_v5,2020.2.10,MacIntel,60,61025ae37ef11b136ea224fe,,,,,,,,,2467,44.875,-107.1914063,1,0,0,response3disk,,4,-9.3671875,-3.921875,1,0,0,rectangle,-9.3671875,-3.921875,1,0,0,-9.3671875,-3.921875,1,0,0,0,89,89,98,1,,,,,,,,
,,,,,,,,,,,,,FF,,,,,,,,1.103,,,,,,,,,,,,,,,,,,,,,,6101d91477752dbb2e72baa5,61036cd533a41143392f15ec,2021-07-29_23h19.35.331,Simcolourproject_2stim_asymm_v5,2020.2.10,MacIntel,60,61025ae37ef11b136ea224fe,,,,,,,,,1063,-34.7890625,-98.5390625,1,0,0,response5disk,,3,-3.33203125,-4.484375,1,0,0,rectangle,-3.33203125,-4.484375,1,0,0,-3.33203125,-4.484375,1,0,0,0,90,90,56,1,,,,,,,,
,,,,,,,,,,,,,FF,,,,,,,,0.9008,,,,,,,,,,,,,,,,,,,,,,6101d91477752dbb2e72baa5,61036cd533a41143392f15ec,2021-07-29_23h19.35.331,Simcolourproject_2stim_asymm_v5,2020.2.10,MacIntel,60,61025ae37ef11b136ea224fe,,,,,,,,,56,-35.984375,-102.046875,1,0,0,response5disk,,3,-0.51171875,-6.30859375,1,0,0,rectangle,-0.51171875,-6.30859375,1,0,0,-0.51171875,-6.30859375,1,0,0,0,91,91,116,1,,,,,,,,
,,,,,,,,,,,,,FF,,,,,,,,1.5373,,,,,,,,,,,,,,,,,,,,,,6101d91477752dbb2e72baa5,61036cd533a41143392f15ec,2021-07-29_23h19.35.331,Simcolourproject_2stim_asymm_v5,2020.2.10,MacIntel,60,61025ae37ef11b136ea224fe,,,,,,,,,3061,55.05078125,-108.5742188,1,0,0,response3disk,,4,5.3515625,9.59765625,1,0,0,rectangle,5.3515625,9.59765625,1,0,0,5.3515625,9.59765625,1,0,0,0,92,92,29,1,,,,,,,,
,,,,,,,,,,,,,FF,,,,,,,,1.7046,,,,,,,,,,,,,,,,,,,,,,6101d91477752dbb2e72baa5,61036cd533a41143392f15ec,2021-07-29_23h19.35.331,Simcolourproject_2stim_asymm_v5,2020.2.10,MacIntel,60,61025ae37ef11b136ea224fe,,,,,,,,,1405,43.04296875,-80.2890625,1,0,0,response3disk,,4,-6.15234375,-4.9765625,1,0,0,rectangle,-6.15234375,-4.9765625,1,0,0,-6.15234375,-4.9765625,1,0,0,0,93,93,154,1,,,,,,,,
,,,,,,,,,,,,,FF,,,,,,,,1.004,,,,,,,,,,,,,,,,,,,,,,6101d91477752dbb2e72baa5,61036cd533a41143392f15ec,2021-07-29_23h19.35.331,Simcolourproject_2stim_asymm_v5,2020.2.10,MacIntel,60,61025ae37ef11b136ea224fe,,,,,,,,,1831,-118.1289063,-53.34765625,1,0,0,response5disk,,2,-5.703125,-3.8515625,1,0,0,rectangle,-5.703125,-3.8515625,1,0,0,-5.703125,-3.8515625,1,0,0,0,94,94,20,1,,,,,,,,
,,,,,,,,,,,,,FF,,,,,,,,0.9874,,,,,,,,,,,,,,,,,,,,,,6101d91477752dbb2e72baa5,61036cd533a41143392f15ec,2021-07-29_23h19.35.331,Simcolourproject_2stim_asymm_v5,2020.2.10,MacIntel,60,61025ae37ef11b136ea224fe,,,,,,,,,4225,-87.59765625,26.31640625,1,0,0,response7disk,,1,6.65625,3.6640625,1,0,0,rectangle,6.65625,3.6640625,1,0,0,6.65625,3.6640625,1,0,0,0,95,95,34,1,,,,,,,,
,,,,,,,,,,,,,FF,,,,,,,,0.9682,,,,,,,,,,,,,,,,,,,,,,6101d91477752dbb2e72baa5,61036cd533a41143392f15ec,2021-07-29_23h19.35.331,Simcolourproject_2stim_asymm_v5,2020.2.10,MacIntel,60,61025ae37ef11b136ea224fe,,,,,,,,,642,-84.87109375,30.86328125,1,0,0,response7disk,,1,-29.37890625,0.98046875,1,0,0,rectangle,-29.37890625,0.98046875,1,0,0,-29.37890625,0.98046875,1,0,0,0,96,96,153,1,,,,,,,,
,,,,,,,,,,,,,FF,,,,,,,,1.2533,,,,,,,,,,,,,,,,,,,,,,6101d91477752dbb2e72baa5,61036cd533a41143392f15ec,2021-07-29_23h19.35.331,Simcolourproject_2stim_asymm_v5,2020.2.10,MacIntel,60,61025ae37ef11b136ea224fe,,,,,,,,,1053,-86.84765625,40.109375,1,0,0,response7disk,,1,-10.8203125,4.05078125,1,0,0,rectangle,-10.8203125,4.05078125,1,0,0,-10.8203125,4.05078125,1,0,0,0,97,97,138,1,,,,,,,,
,,,,,,,,,,,,,FF,,,,,,,,1.4549,,,,,,,,,,,,,,,,,,,,,,6101d91477752dbb2e72baa5,61036cd533a41143392f15ec,2021-07-29_23h19.35.331,Simcolourproject_2stim_asymm_v5,2020.2.10,MacIntel,60,61025ae37ef11b136ea224fe,,,,,,,,,839,41.94921875,-105.5039063,1,0,0,response3disk,,4,4.33203125,-8.609375,1,0,0,rectangle,93.78125,-25.12109375,1,0,0,-4.37890625,1.90234375,1,0,0,0,98,98,50,1,,response3disk_3,TRUE,5,5,"[99,116,33,250,68,250,261,286,259,230,296,187,176,115,136,31,76,86,79,129]",1.6042,rectangle
,,,,,,,,,,,,,FF,,,,,,,,1.1698,,,,,,,,,,,,,,,,,,,,,,6101d91477752dbb2e72baa5,61036cd533a41143392f15ec,2021-07-29_23h19.35.331,Simcolourproject_2stim_asymm_v5,2020.2.10,MacIntel,60,61025ae37ef11b136ea224fe,,,,,,,,,452,107.671875,-74.35546875,1,0,0,response3disk,,5,-1.796875,3.40625,1,0,0,rectangle,-1.796875,3.40625,1,0,0,-1.796875,3.40625,1,0,0,0,99,99,104,1,,,,,,,,
,,,,,,,,,,,,,FF,,,,,,,,0.9197,,,,,,,,,,,,,,,,,,,,,,6101d91477752dbb2e72baa5,61036cd533a41143392f15ec,2021-07-29_23h19.35.331,Simcolourproject_2stim_asymm_v5,2020.2.10,MacIntel,60,61025ae37ef11b136ea224fe,,,,,,,,,3884,126.296875,-64.140625,1,0,0,response3disk,,5,-4.66015625,-8.7421875,1,0,0,rectangle,-4.66015625,-8.7421875,1,0,0,-4.66015625,-8.7421875,1,0,0,0,100,100,15,1,,,,,,,,
,,,,,,,,,,,,,FF,,,,,,,,1.6529,,,,,,,,,,,,,,,,,,,,,,6101d91477752dbb2e72baa5,61036cd533a41143392f15ec,2021-07-29_23h19.35.331,Simcolourproject_2stim_asymm_v5,2020.2.10,MacIntel,60,61025ae37ef11b136ea224fe,,,,,,,,,1166,-91.28515625,-58.6171875,1,0,0,response5disk,,2,-16.62890625,-11.39453125,1,0,0,rectangle,-16.62890625,-11.39453125,1,0,0,-16.62890625,-11.39453125,1,0,0,0,101,101,83,1,,,,,,,,
,,,,,,,,,,,,,FF,,,,,,,,1.0017,,,,,,,,,,,,,,,,,,,,,,6101d91477752dbb2e72baa5,61036cd533a41143392f15ec,2021-07-29_23h19.35.331,Simcolourproject_2stim_asymm_v5,2020.2.10,MacIntel,60,61025ae37ef11b136ea224fe,,,,,,,,,3929,69.390625,-51.77734375,1,0,0,response3disk,,5,17.28515625,-12.703125,1,0,0,rectangle,17.28515625,-12.703125,1,0,0,17.28515625,-12.703125,1,0,0,0,102,102,84,1,,,,,,,,
,,,,,,,,,,,,,FF,,,,,,,,1.2372,,,,,,,,,,,,,,,,,,,,,,6101d91477752dbb2e72baa5,61036cd533a41143392f15ec,2021-07-29_23h19.35.331,Simcolourproject_2stim_asymm_v5,2020.2.10,MacIntel,60,61025ae37ef11b136ea224fe,,,,,,,,,1093,-30.1015625,-108.1328125,1,0,0,response5disk,,3,-6.55859375,1.09375,1,0,0,rectangle,-6.55859375,1.09375,1,0,0,-6.55859375,1.09375,1,0,0,0,103,103,109,1,,,,,,,,
,,,,,,,,,,,,,FF,,,,,,,,1.5042,,,,,,,,,,,,,,,,,,,,,,6101d91477752dbb2e72baa5,61036cd533a41143392f15ec,2021-07-29_23h19.35.331,Simcolourproject_2stim_asymm_v5,2020.2.10,MacIntel,60,61025ae37ef11b136ea224fe,,,,,,,,,841,33.0703125,-103.1992188,1,0,0,response3disk,,4,7.8359375,1.52734375,1,0,0,rectangle,7.8359375,1.52734375,1,0,0,7.8359375,1.52734375,1,0,0,0,104,104,78,1,,,,,,,,
,,,,,,,,,,,,,FF,,,,,,,,1.1045,,,,,,,,,,,,,,,,,,,,,,6101d91477752dbb2e72baa5,61036cd533a41143392f15ec,2021-07-29_23h19.35.331,Simcolourproject_2stim_asymm_v5,2020.2.10,MacIntel,60,61025ae37ef11b136ea224fe,,,,,,,,,491,41.69140625,-102.7539063,1,0,0,response3disk,,4,2.28515625,6.5546875,1,0,0,rectangle,2.28515625,6.5546875,1,0,0,2.28515625,6.5546875,1,0,0,0,105,105,145,1,,,,,,,,
,,,,,,,,,,,,,FF,,,,,,,,1.1367,,,,,,,,,,,,,,,,,,,,,,6101d91477752dbb2e72baa5,61036cd533a41143392f15ec,2021-07-29_23h19.35.331,Simcolourproject_2stim_asymm_v5,2020.2.10,MacIntel,60,61025ae37ef11b136ea224fe,,,,,,,,,4207,-31.4140625,74.1015625,1,0,0,response7disk,,0,16.3984375,-2.8359375,1,0,0,rectangle,16.3984375,-2.8359375,1,0,0,16.3984375,-2.8359375,1,0,0,0,106,106,46,1,,,,,,,,
,,,,,,,,,,,,,FF,,,,,,,,1.2204,,,,,,,,,,,,,,,,,,,,,,6101d91477752dbb2e72baa5,61036cd533a41143392f15ec,2021-07-29_23h19.35.331,Simcolourproject_2stim_asymm_v5,2020.2.10,MacIntel,60,61025ae37ef11b136ea224fe,,,,,,,,,4026,-107.9492188,-62.05078125,1,0,0,response5disk,,2,2.26953125,-6.99609375,1,0,0,rectangle,2.26953125,-6.99609375,1,0,0,2.26953125,-6.99609375,1,0,0,0,107,107,44,1,,,,,,,,
,,,,,,,,,,,,,FF,,,,,,,,3.7421,,,,,,,,,,,,,,,,,,,,,,6101d91477752dbb2e72baa5,61036cd533a41143392f15ec,2021-07-29_23h19.35.331,Simcolourproject_2stim_asymm_v5,2020.2.10,MacIntel,60,61025ae37ef11b136ea224fe,,,,,,,,,748,93.32421875,-82.234375,1,0,0,response3disk,,5,5.30859375,2.45703125,1,0,0,rectangle,5.30859375,2.45703125,1,0,0,5.30859375,2.45703125,1,0,0,0,108,108,157,1,,,,,,,,
,,,,,,,,,,,,,FF,,,,,,,,3.3424,,,,,,,,,,,,,,,,,,,,,,6101d91477752dbb2e72baa5,61036cd533a41143392f15ec,2021-07-29_23h19.35.331,Simcolourproject_2stim_asymm_v5,2020.2.10,MacIntel,60,61025ae37ef11b136ea224fe,,,,,,,,,1174,65.640625,93.28515625,1,0,0,response1disk,,7,17.484375,-7.3828125,1,0,0,rectangle,17.484375,-7.3828125,1,0,0,17.484375,-7.3828125,1,0,0,0,109,109,103,1,,,,,,,,
,,,,,,,,,,,,,FF,,,,,,,,1.7038,,,,,,,,,,,,,,,,,,,,,,6101d91477752dbb2e72baa5,61036cd533a41143392f15ec,2021-07-29_23h19.35.331,Simcolourproject_2stim_asymm_v5,2020.2.10,MacIntel,60,61025ae37ef11b136ea224fe,,,,,,,,,2960,89.59765625,-71.44921875,1,0,0,response3disk,,5,-16.2265625,4.296875,1,0,0,rectangle,-16.2265625,4.296875,1,0,0,-16.2265625,4.296875,1,0,0,0,110,110,5,1,,,,,,,,
,,,,,,,,,,,,,FF,,,,,,,,1.4526,,,,,,,,,,,,,,,,,,,,,,6101d91477752dbb2e72baa5,61036cd533a41143392f15ec,2021-07-29_23h19.35.331,Simcolourproject_2stim_asymm_v5,2020.2.10,MacIntel,60,61025ae37ef11b136ea224fe,,,,,,,,,3766,108.3242188,-73.54296875,1,0,0,response3disk,,5,2.61328125,-4.79296875,1,0,0,rectangle,2.61328125,-4.79296875,1,0,0,2.61328125,-4.79296875,1,0,0,0,111,111,39,1,,,,,,,,
,,,,,,,,,,,,,FF,,,,,,,,0.9023,,,,,,,,,,,,,,,,,,,,,,6101d91477752dbb2e72baa5,61036cd533a41143392f15ec,2021-07-29_23h19.35.331,Simcolourproject_2stim_asymm_v5,2020.2.10,MacIntel,60,61025ae37ef11b136ea224fe,,,,,,,,,2329,86.76953125,-49.43359375,1,0,0,response3disk,,5,-7.33984375,4.828125,1,0,0,rectangle,-7.33984375,4.828125,1,0,0,-7.33984375,4.828125,1,0,0,0,112,112,25,1,,,,,,,,
,,,,,,,,,,,,,FF,,,,,,,,2.2393,,,,,,,,,,,,,,,,,,,,,,6101d91477752dbb2e72baa5,61036cd533a41143392f15ec,2021-07-29_23h19.35.331,Simcolourproject_2stim_asymm_v5,2020.2.10,MacIntel,60,61025ae37ef11b136ea224fe,,,,,,,,,1036,99.34375,-49.63671875,1,0,0,response3disk,,5,3.640625,5.03125,1,0,0,rectangle,3.640625,5.03125,1,0,0,3.640625,5.03125,1,0,0,0,113,113,72,1,,,,,,,,
,,,,,,,,,,,,,FF,,,,,,,,1.0872,,,,,,,,,,,,,,,,,,,,,,6101d91477752dbb2e72baa5,61036cd533a41143392f15ec,2021-07-29_23h19.35.331,Simcolourproject_2stim_asymm_v5,2020.2.10,MacIntel,60,61025ae37ef11b136ea224fe,,,,,,,,,1275,-35.4375,-84.1171875,1,0,0,response5disk,,3,5.9609375,1.8046875,1,0,0,rectangle,-18.92578125,-84.97265625,1,0,0,19.3203125,-1.98828125,1,0,0,0,114,114,28,1,,response5disk_3,TRUE,3,3,"[99,116,33,250,68,250,261,286,259,230,296,187,176,115,136,31,76,86,79,129]",1.5353,rectangle
,,,,,,,,,,,,,FF,,,,,,,,0.9695,,,,,,,,,,,,,,,,,,,,,,6101d91477752dbb2e72baa5,61036cd533a41143392f15ec,2021-07-29_23h19.35.331,Simcolourproject_2stim_asymm_v5,2020.2.10,MacIntel,60,61025ae37ef11b136ea224fe,,,,,,,,,3147,-86.94140625,45.52734375,1,0,0,response7disk,,1,-4.84765625,3.00390625,1,0,0,rectangle,-17.02734375,63.8046875,1,0,0,-3.2265625,0.59765625,1,0,0,0,115,115,63,1,,response7disk_3,TRUE,0,0,"[99,116,33,250,68,250,261,286,259,230,296,187,176,115,136,31,76,86,79,129]",1.6024,rectangle
,,,,,,,,,,,,,FF,,,,,,,,0.8852,,,,,,,,,,,,,,,,,,,,,,6101d91477752dbb2e72baa5,61036cd533a41143392f15ec,2021-07-29_23h19.35.331,Simcolourproject_2stim_asymm_v5,2020.2.10,MacIntel,60,61025ae37ef11b136ea224fe,,,,,,,,,2912,62.82421875,-32.0703125,1,0,0,response3disk,,5,-7.19140625,-4.140625,1,0,0,rectangle,-7.19140625,-4.140625,1,0,0,-7.19140625,-4.140625,1,0,0,0,116,116,61,1,,,,,,,,
,,,,,,,,,,,,,FF,,,,,,,,2.072,,,,,,,,,,,,,,,,,,,,,,6101d91477752dbb2e72baa5,61036cd533a41143392f15ec,2021-07-29_23h19.35.331,Simcolourproject_2stim_asymm_v5,2020.2.10,MacIntel,60,61025ae37ef11b136ea224fe,,,,,,,,,1090,104.953125,-62.359375,1,0,0,response3disk,,5,-10.703125,-0.2109375,1,0,0,rectangle,-10.703125,-0.2109375,1,0,0,-10.703125,-0.2109375,1,0,0,0,117,117,128,1,,,,,,,,
,,,,,,,,,,,,,FF,,,,,,,,1.2377,,,,,,,,,,,,,,,,,,,,,,6101d91477752dbb2e72baa5,61036cd533a41143392f15ec,2021-07-29_23h19.35.331,Simcolourproject_2stim_asymm_v5,2020.2.10,MacIntel,60,61025ae37ef11b136ea224fe,,,,,,,,,3303,120.8203125,-55.7890625,1,0,0,response3disk,,5,14.6171875,3.26171875,1,0,0,rectangle,14.6171875,3.26171875,1,0,0,14.6171875,3.26171875,1,0,0,0,118,118,35,1,,,,,,,,
,,,,,,,,,,,,,FF,,,,,,,,4.5627,,,,,,,,,,,,,,,,,,,,,,6101d91477752dbb2e72baa5,61036cd533a41143392f15ec,2021-07-29_23h19.35.331,Simcolourproject_2stim_asymm_v5,2020.2.10,MacIntel,60,61025ae37ef11b136ea224fe,,,,,,,,,843,95.64453125,-83.86328125,1,0,0,response3disk,,5,-19.69140625,-0.3203125,1,0,0,rectangle,-19.69140625,-0.3203125,1,0,0,-19.69140625,-0.3203125,1,0,0,0,119,119,18,1,,,,,,,,
,,,,,,,,,,,,,FF,,,,,,,,0.9507,,,,,,,,,,,,,,,,,,,,,,6101d91477752dbb2e72baa5,61036cd533a41143392f15ec,2021-07-29_23h19.35.331,Simcolourproject_2stim_asymm_v5,2020.2.10,MacIntel,60,61025ae37ef11b136ea224fe,,,,,,,,,223,113.2148438,-52.5234375,1,0,0,response3disk,,5,1.83203125,-4.74609375,1,0,0,rectangle,1.83203125,-4.74609375,1,0,0,1.83203125,-4.74609375,1,0,0,0,120,120,124,1,,,,,,,,
,,,,,,,,,,,,,FF,,,,,,,,0.8831,,,,,,,,,,,,,,,,,,,,,,6101d91477752dbb2e72baa5,61036cd533a41143392f15ec,2021-07-29_23h19.35.331,Simcolourproject_2stim_asymm_v5,2020.2.10,MacIntel,60,61025ae37ef11b136ea224fe,,,,,,,,,717,-42.63671875,70.5,1,0,0,response7disk,,0,5.9140625,1.28125,1,0,0,rectangle,5.9140625,1.28125,1,0,0,5.9140625,1.28125,1,0,0,0,121,121,54,1,,,,,,,,
,,,,,,,,,,,,,FF,,,,,,,,2.4393,,,,,,,,,,,,,,,,,,,,,,6101d91477752dbb2e72baa5,61036cd533a41143392f15ec,2021-07-29_23h19.35.331,Simcolourproject_2stim_asymm_v5,2020.2.10,MacIntel,60,61025ae37ef11b136ea224fe,,,,,,,,,2694,57.14453125,86.28515625,1,0,0,response1disk,,7,9.01953125,1.625,1,0,0,rectangle,9.01953125,1.625,1,0,0,9.01953125,1.625,1,0,0,0,122,122,80,1,,,,,,,,
,,,,,,,,,,,,,FF,,,,,,,,3.8098,,,,,,,,,,,,,,,,,,,,,,6101d91477752dbb2e72baa5,61036cd533a41143392f15ec,2021-07-29_23h19.35.331,Simcolourproject_2stim_asymm_v5,2020.2.10,MacIntel,60,61025ae37ef11b136ea224fe,,,,,,,,,581,99.125,30.765625,1,0,0,response1disk,,6,-7.171875,-0.296875,1,0,0,rectangle,-7.171875,-0.296875,1,0,0,-7.171875,-0.296875,1,0,0,0,123,123,137,1,,,,,,,,
,,,,,,,,,,,,,FF,,,,,,,,1.2381,,,,,,,,,,,,,,,,,,,,,,6101d91477752dbb2e72baa5,61036cd533a41143392f15ec,2021-07-29_23h19.35.331,Simcolourproject_2stim_asymm_v5,2020.2.10,MacIntel,60,61025ae37ef11b136ea224fe,,,,,,,,,1287,-105.875,-44.78125,1,0,0,response5disk,,2,11.32421875,-6.29296875,1,0,0,rectangle,11.32421875,-6.29296875,1,0,0,11.32421875,-6.29296875,1,0,0,0,124,124,33,1,,,,,,,,
,,,,,,,,,,,,,FF,,,,,,,,1.171,,,,,,,,,,,,,,,,,,,,,,6101d91477752dbb2e72baa5,61036cd533a41143392f15ec,2021-07-29_23h19.35.331,Simcolourproject_2stim_asymm_v5,2020.2.10,MacIntel,60,61025ae37ef11b136ea224fe,,,,,,,,,1105,-31.671875,-108.546875,1,0,0,response5disk,,3,3.93359375,1.390625,1,0,0,rectangle,3.93359375,1.390625,1,0,0,3.93359375,1.390625,1,0,0,0,125,125,21,1,,,,,,,,
,,,,,,,,,,,,,FF,,,,,,,,1.0703,,,,,,,,,,,,,,,,,,,,,,6101d91477752dbb2e72baa5,61036cd533a41143392f15ec,2021-07-29_23h19.35.331,Simcolourproject_2stim_asymm_v5,2020.2.10,MacIntel,60,61025ae37ef11b136ea224fe,,,,,,,,,3201,-78.7109375,43.47265625,1,0,0,response7disk,,1,-16.25,-0.7734375,1,0,0,rectangle,-16.25,-0.7734375,1,0,0,-16.25,-0.7734375,1,0,0,0,126,126,22,1,,,,,,,,
,,,,,,,,,,,,,FF,,,,,,,,2.2222,,,,,,,,,,,,,,,,,,,,,,6101d91477752dbb2e72baa5,61036cd533a41143392f15ec,2021-07-29_23h19.35.331,Simcolourproject_2stim_asymm_v5,2020.2.10,MacIntel,60,61025ae37ef11b136ea224fe,,,,,,,,,2254,18.21875,-113.4414063,1,0,0,response3disk,,4,1.38671875,-10.09765625,1,0,0,rectangle,1.38671875,-10.09765625,1,0,0,1.38671875,-10.09765625,1,0,0,0,127,127,123,1,,,,,,,,
,,,,,,,,,,,,,FF,,,,,,,,1.053,,,,,,,,,,,,,,,,,,,,,,6101d91477752dbb2e72baa5,61036cd533a41143392f15ec,2021-07-29_23h19.35.331,Simcolourproject_2stim_asymm_v5,2020.2.10,MacIntel,60,61025ae37ef11b136ea224fe,,,,,,,,,343,-94.77734375,-38.66796875,1,0,0,response5disk,,2,2.40625,-11.5703125,1,0,0,rectangle,-29.25390625,88.9296875,1,0,0,-4.1796875,2.1015625,1,0,0,0,128,128,148,1,,response7disk_3,TRUE,0,0,"[99,116,33,250,68,250,261,286,259,230,296,187,176,115,136,31,76,86,79,129]",1.4866,rectangle
,,,,,,,,,,,,,FF,,,,,,,,4.7949,,,,,,,,,,,,,,,,,,,,,,6101d91477752dbb2e72baa5,61036cd533a41143392f15ec,2021-07-29_23h19.35.331,Simcolourproject_2stim_asymm_v5,2020.2.10,MacIntel,60,61025ae37ef11b136ea224fe,,,,,,,,,2504,91.140625,29.62109375,1,0,0,response1disk,,6,-18.09375,-7.5,1,0,0,rectangle,-18.09375,-7.5,1,0,0,-18.09375,-7.5,1,0,0,0,129,129,8,1,,,,,,,,
,,,,,,,,,,,,,FF,,,,,,,,1.0526,,,,,,,,,,,,,,,,,,,,,,6101d91477752dbb2e72baa5,61036cd533a41143392f15ec,2021-07-29_23h19.35.331,Simcolourproject_2stim_asymm_v5,2020.2.10,MacIntel,60,61025ae37ef11b136ea224fe,,,,,,,,,3170,115.0976563,-70.9296875,1,0,0,response3disk,,5,12.40234375,-12.6484375,1,0,0,rectangle,12.40234375,-12.6484375,1,0,0,12.40234375,-12.6484375,1,0,0,0,130,130,108,1,,,,,,,,
,,,,,,,,,,,,,FF,,,,,,,,2.0208,,,,,,,,,,,,,,,,,,,,,,6101d91477752dbb2e72baa5,61036cd533a41143392f15ec,2021-07-29_23h19.35.331,Simcolourproject_2stim_asymm_v5,2020.2.10,MacIntel,60,61025ae37ef11b136ea224fe,,,,,,,,,3959,127.1210938,-65.96875,1,0,0,response3disk,,5,-4.1875,1.3203125,1,0,0,rectangle,-4.1875,1.3203125,1,0,0,-4.1875,1.3203125,1,0,0,0,131,131,66,1,,,,,,,,
,,,,,,,,,,,,,FF,,,,,,,,0.8523,,,,,,,,,,,,,,,,,,,,,,6101d91477752dbb2e72baa5,61036cd533a41143392f15ec,2021-07-29_23h19.35.331,Simcolourproject_2stim_asymm_v5,2020.2.10,MacIntel,60,61025ae37ef11b136ea224fe,,,,,,,,,2870,80.4296875,-35.7265625,1,0,0,response3disk,,5,9.109375,-5.76171875,1,0,0,rectangle,9.109375,-5.76171875,1,0,0,9.109375,-5.76171875,1,0,0,0,132,132,118,1,,,,,,,,
,,,,,,,,,,,,,FF,,,,,,,,2.7069,,,,,,,,,,,,,,,,,,,,,,6101d91477752dbb2e72baa5,61036cd533a41143392f15ec,2021-07-29_23h19.35.331,Simcolourproject_2stim_asymm_v5,2020.2.10,MacIntel,60,61025ae37ef11b136ea224fe,,,,,,,,,1689,-68.453125,-28.08984375,1,0,0,response5disk,,2,-21.890625,-9.4609375,1,0,0,rectangle,-21.890625,-9.4609375,1,0,0,-21.890625,-9.4609375,1,0,0,0,133,133,139,1,,,,,,,,
,,,,,,,,,,,,,FF,,,,,,,,0.9206,,,,,,,,,,,,,,,,,,,,,,6101d91477752dbb2e72baa5,61036cd533a41143392f15ec,2021-07-29_23h19.35.331,Simcolourproject_2stim_asymm_v5,2020.2.10,MacIntel,60,61025ae37ef11b136ea224fe,,,,,,,,,2242,-91.90234375,26.25390625,1,0,0,response7disk,,1,-11.01953125,-4.94921875,1,0,0,rectangle,-11.01953125,-4.94921875,1,0,0,-11.01953125,-4.94921875,1,0,0,0,134,134,57,1,,,,,,,,
,,,,,,,,,,,,,FF,,,,,,,,1.0036,,,,,,,,,,,,,,,,,,,,,,6101d91477752dbb2e72baa5,61036cd533a41143392f15ec,2021-07-29_23h19.35.331,Simcolourproject_2stim_asymm_v5,2020.2.10,MacIntel,60,61025ae37ef11b136ea224fe,,,,,,,,,3681,-37.85546875,-106.9023438,1,0,0,response5disk,,3,-17.6484375,-0.4921875,1,0,0,rectangle,-73.671875,-52.76171875,1,0,0,-11.31640625,-6.2890625,1,0,0,0,135,135,55,1,,response5disk_3,TRUE,2,2,"[99,116,33,250,68,250,261,286,259,230,296,187,176,115,136,31,76,86,79,129]",1.6862,rectangle
,,,,,,,,,,,,,FF,,,,,,,,2.6079,,,,,,,,,,,,,,,,,,,,,,6101d91477752dbb2e72baa5,61036cd533a41143392f15ec,2021-07-29_23h19.35.331,Simcolourproject_2stim_asymm_v5,2020.2.10,MacIntel,60,61025ae37ef11b136ea224fe,,,,,,,,,187,-62.32421875,-42.12109375,1,0,0,response5disk,,2,-9.68359375,1.81640625,1,0,0,rectangle,-9.68359375,1.81640625,1,0,0,-9.68359375,1.81640625,1,0,0,0,136,136,7,1,,,,,,,,
,,,,,,,,,,,,,FF,,,,,,,,0.9197,,,,,,,,,,,,,,,,,,,,,,6101d91477752dbb2e72baa5,61036cd533a41143392f15ec,2021-07-29_23h19.35.331,Simcolourproject_2stim_asymm_v5,2020.2.10,MacIntel,60,61025ae37ef11b136ea224fe,,,,,,,,,2032,-83.7109375,-55.984375,1,0,0,response5disk,,2,-8.8828125,6.890625,1,0,0,rectangle,-8.8828125,6.890625,1,0,0,-8.8828125,6.890625,1,0,0,0,137,137,126,1,,,,,,,,
,,,,,,,,,,,,,FF,,,,,,,,0.8533,,,,,,,,,,,,,,,,,,,,,,6101d91477752dbb2e72baa5,61036cd533a41143392f15ec,2021-07-29_23h19.35.331,Simcolourproject_2stim_asymm_v5,2020.2.10,MacIntel,60,61025ae37ef11b136ea224fe,,,,,,,,,2857,88.765625,-45.89453125,1,0,0,response3disk,,5,-1.71875,-1.5703125,1,0,0,rectangle,-1.71875,-1.5703125,1,0,0,-1.71875,-1.5703125,1,0,0,0,138,138,114,1,,,,,,,,
,,,,,,,,,,,,,FF,,,,,,,,0.8869,,,,,,,,,,,,,,,,,,,,,,6101d91477752dbb2e72baa5,61036cd533a41143392f15ec,2021-07-29_23h19.35.331,Simcolourproject_2stim_asymm_v5,2020.2.10,MacIntel,60,61025ae37ef11b136ea224fe,,,,,,,,,2601,-38.3671875,66.35546875,1,0,0,response7disk,,0,12.58203125,-4.10546875,1,0,0,rectangle,12.58203125,-4.10546875,1,0,0,12.58203125,-4.10546875,1,0,0,0,139,139,40,1,,,,,,,,
,,,,,,,,,,,,,FF,,,,,,,,1.6207,,,,,,,,,,,,,,,,,,,,,,6101d91477752dbb2e72baa5,61036cd533a41143392f15ec,2021-07-29_23h19.35.331,Simcolourproject_2stim_asymm_v5,2020.2.10,MacIntel,60,61025ae37ef11b136ea224fe,,,,,,,,,3262,93.328125,52.61328125,1,0,0,response1disk,,6,2.375,1.984375,1,0,0,rectangle,2.375,1.984375,1,0,0,2.375,1.984375,1,0,0,0,140,140,47,1,,,,,,,,
,,,,,,,,,,,,,FF,,,,,,,,1.3523,,,,,,,,,,,,,,,,,,,,,,6101d91477752dbb2e72baa5,61036cd533a41143392f15ec,2021-07-29_23h19.35.331,Simcolourproject_2stim_asymm_v5,2020.2.10,MacIntel,60,61025ae37ef11b136ea224fe,,,,,,,,,4287,87.3828125,37.66796875,1,0,0,response1disk,,6,-7.078125,-4.1015625,1,0,0,rectangle,-7.078125,-4.1015625,1,0,0,-7.078125,-4.1015625,1,0,0,0,141,141,68,1,,,,,,,,
,,,,,,,,,,,,,FF,,,,,,,,1.137,,,,,,,,,,,,,,,,,,,,,,6101d91477752dbb2e72baa5,61036cd533a41143392f15ec,2021-07-29_23h19.35.331,Simcolourproject_2stim_asymm_v5,2020.2.10,MacIntel,60,61025ae37ef11b136ea224fe,,,,,,,,,3581,87.890625,-50.265625,1,0,0,response3disk,,5,-18.671875,-4.98828125,1,0,0,rectangle,-18.671875,-4.98828125,1,0,0,-18.671875,-4.98828125,1,0,0,0,142,142,144,1,,,,,,,,
,,,,,,,,,,,,,FF,,,,,,,,3.9437,,,,,,,,,,,,,,,,,,,,,,6101d91477752dbb2e72baa5,61036cd533a41143392f15ec,2021-07-29_23h19.35.331,Simcolourproject_2stim_asymm_v5,2020.2.10,MacIntel,60,61025ae37ef11b136ea224fe,,,,,,,,,4268,-101.4179688,-33.9375,1,0,0,response5disk,,2,24.35546875,8.8359375,1,0,0,rectangle,24.35546875,8.8359375,1,0,0,24.35546875,8.8359375,1,0,0,0,143,143,85,1,,,,,,,,
,,,,,,,,,,,,,FF,,,,,,,,1.0196,,,,,,,,,,,,,,,,,,,,,,6101d91477752dbb2e72baa5,61036cd533a41143392f15ec,2021-07-29_23h19.35.331,Simcolourproject_2stim_asymm_v5,2020.2.10,MacIntel,60,61025ae37ef11b136ea224fe,,,,,,,,,3661,-83.3515625,-53.4921875,1,0,0,response5disk,,2,-0.3984375,5.92578125,1,0,0,rectangle,-0.3984375,5.92578125,1,0,0,-0.3984375,5.92578125,1,0,0,0,144,144,6,1,,,,,,,,
,,,,,,,,,,,,,FF,,,,,,,,0.9847,,,,,,,,,,,,,,,,,,,,,,6101d91477752dbb2e72baa5,61036cd533a41143392f15ec,2021-07-29_23h19.35.331,Simcolourproject_2stim_asymm_v5,2020.2.10,MacIntel,60,61025ae37ef11b136ea224fe,,,,,,,,,2664,-71.97265625,40.59765625,1,0,0,response7disk,,1,10.30859375,3.26171875,1,0,0,rectangle,10.30859375,3.26171875,1,0,0,10.30859375,3.26171875,1,0,0,0,145,145,152,1,,,,,,,,
,,,,,,,,,,,,,FF,,,,,,,,1.989,,,,,,,,,,,,,,,,,,,,,,6101d91477752dbb2e72baa5,61036cd533a41143392f15ec,2021-07-29_23h19.35.331,Simcolourproject_2stim_asymm_v5,2020.2.10,MacIntel,60,61025ae37ef11b136ea224fe,,,,,,,,,1571,-39.3359375,-118.7109375,1,0,0,response5disk,,3,13.8515625,-3.734375,1,0,0,rectangle,13.8515625,-3.734375,1,0,0,13.8515625,-3.734375,1,0,0,0,146,146,69,1,,,,,,,,
,,,,,,,,,,,,,FF,,,,,,,,2.1726,,,,,,,,,,,,,,,,,,,,,,6101d91477752dbb2e72baa5,61036cd533a41143392f15ec,2021-07-29_23h19.35.331,Simcolourproject_2stim_asymm_v5,2020.2.10,MacIntel,60,61025ae37ef11b136ea224fe,,,,,,,,,1371,-79.75390625,42.17578125,1,0,0,response7disk,,1,7.3671875,-7.234375,1,0,0,rectangle,7.3671875,-7.234375,1,0,0,7.3671875,-7.234375,1,0,0,0,147,147,4,1,,,,,,,,
,,,,,,,,,,,,,FF,,,,,,,,2.4233,,,,,,,,,,,,,,,,,,,,,,6101d91477752dbb2e72baa5,61036cd533a41143392f15ec,2021-07-29_23h19.35.331,Simcolourproject_2stim_asymm_v5,2020.2.10,MacIntel,60,61025ae37ef11b136ea224fe,,,,,,,,,2573,92.9609375,-63,1,0,0,response3disk,,5,-2.87890625,3.54296875,1,0,0,rectangle,-2.87890625,3.54296875,1,0,0,-2.87890625,3.54296875,1,0,0,0,148,148,1,1,,,,,,,,
,,,,,,,,,,,,,FF,,,,,,,,1.5546,,,,,,,,,,,,,,,,,,,,,,6101d91477752dbb2e72baa5,61036cd533a41143392f15ec,2021-07-29_23h19.35.331,Simcolourproject_2stim_asymm_v5,2020.2.10,MacIntel,60,61025ae37ef11b136ea224fe,,,,,,,,,3286,-88.73828125,-73.9765625,1,0,0,response5disk,,2,-13.9765625,-2.5625,1,0,0,rectangle,-13.9765625,-2.5625,1,0,0,-13.9765625,-2.5625,1,0,0,0,149,149,99,1,,,,,,,,
,,,,,,,,,,,,,FF,,,,,,,,0.8383,,,,,,,,,,,,,,,,,,,,,,6101d91477752dbb2e72baa5,61036cd533a41143392f15ec,2021-07-29_23h19.35.331,Simcolourproject_2stim_asymm_v5,2020.2.10,MacIntel,60,61025ae37ef11b136ea224fe,,,,,,,,,1224,-31.84375,-113.2421875,1,0,0,response5disk,,3,-7.87890625,1.69921875,1,0,0,rectangle,-7.87890625,1.69921875,1,0,0,-7.87890625,1.69921875,1,0,0,0,150,150,96,1,,,,,,,,
,,,,,,,,,,,,,FF,,,,,,,,1.0707,,,,,,,,,,,,,,,,,,,,,,6101d91477752dbb2e72baa5,61036cd533a41143392f15ec,2021-07-29_23h19.35.331,Simcolourproject_2stim_asymm_v5,2020.2.10,MacIntel,60,61025ae37ef11b136ea224fe,,,,,,,,,536,84.3515625,-61.06640625,1,0,0,response3disk,,5,1.0546875,-11.3515625,1,0,0,rectangle,1.0546875,-11.3515625,1,0,0,1.0546875,-11.3515625,1,0,0,0,151,151,23,1,,,,,,,,
,,,,,,,,,,,,,FF,,,,,,,,1.0532,,,,,,,,,,,,,,,,,,,,,,6101d91477752dbb2e72baa5,61036cd533a41143392f15ec,2021-07-29_23h19.35.331,Simcolourproject_2stim_asymm_v5,2020.2.10,MacIntel,60,61025ae37ef11b136ea224fe,,,,,,,,,253,-93.8359375,-73.24609375,1,0,0,response5disk,,2,4.703125,5.91796875,1,0,0,rectangle,4.703125,5.91796875,1,0,0,4.703125,5.91796875,1,0,0,0,152,152,70,1,,,,,,,,
,,,,,,,,,,,,,FF,,,,,,,,1.5723,,,,,,,,,,,,,,,,,,,,,,6101d91477752dbb2e72baa5,61036cd533a41143392f15ec,2021-07-29_23h19.35.331,Simcolourproject_2stim_asymm_v5,2020.2.10,MacIntel,60,61025ae37ef11b136ea224fe,,,,,,,,,383,31.02734375,-110.0625,1,0,0,response3disk,,4,-9.15625,2.875,1,0,0,rectangle,-9.15625,2.875,1,0,0,-9.15625,2.875,1,0,0,0,153,153,159,1,,,,,,,,
,,,,,,,,,,,,,FF,,,,,,,,9.5107,,,,,,,,,,,,,,,,,,,,,,6101d91477752dbb2e72baa5,61036cd533a41143392f15ec,2021-07-29_23h19.35.331,Simcolourproject_2stim_asymm_v5,2020.2.10,MacIntel,60,61025ae37ef11b136ea224fe,,,,,,,,,2011,-45.20703125,-119.4453125,1,0,0,response5disk,,3,8.53515625,-9.0390625,1,0,0,rectangle,8.53515625,-9.0390625,1,0,0,8.53515625,-9.0390625,1,0,0,0,154,154,26,1,,,,,,,,
,,,,,,,,,,,,,FF,,,,,,,,1.0297,,,,,,,,,,,,,,,,,,,,,,6101d91477752dbb2e72baa5,61036cd533a41143392f15ec,2021-07-29_23h19.35.331,Simcolourproject_2stim_asymm_v5,2020.2.10,MacIntel,60,61025ae37ef11b136ea224fe,,,,,,,,,958,-80.4140625,-48.8203125,1,0,0,response5disk,,2,13.48828125,-3.15234375,1,0,0,rectangle,13.48828125,-3.15234375,1,0,0,13.48828125,-3.15234375,1,0,0,0,155,155,67,1,,,,,,,,
,,,,,,,,,,,,,FF,,,,,,,,1.0041,,,,,,,,,,,,,,,,,,,,,,6101d91477752dbb2e72baa5,61036cd533a41143392f15ec,2021-07-29_23h19.35.331,Simcolourproject_2stim_asymm_v5,2020.2.10,MacIntel,60,61025ae37ef11b136ea224fe,,,,,,,,,3507,-100.8398438,39.46875,1,0,0,response7disk,,1,-8.1484375,-4.05078125,1,0,0,rectangle,-8.1484375,-4.05078125,1,0,0,-8.1484375,-4.05078125,1,0,0,0,156,156,31,1,,,,,,,,
,,,,,,,,,,,,,FF,,,,,,,,2.1383,,,,,,,,,,,,,,,,,,,,,,6101d91477752dbb2e72baa5,61036cd533a41143392f15ec,2021-07-29_23h19.35.331,Simcolourproject_2stim_asymm_v5,2020.2.10,MacIntel,60,61025ae37ef11b136ea224fe,,,,,,,,,4234,38.8125,-101.6210938,1,0,0,response3disk,,4,-10.56640625,7.78515625,1,0,0,rectangle,-10.56640625,7.78515625,1,0,0,-10.56640625,7.78515625,1,0,0,0,157,157,9,1,,,,,,,,
,,,,,,,,,,,,,FF,,,,,,,,1.9068,,,,,,,,,,,,,,,,,,,,,,6101d91477752dbb2e72baa5,61036cd533a41143392f15ec,2021-07-29_23h19.35.331,Simcolourproject_2stim_asymm_v5,2020.2.10,MacIntel,60,61025ae37ef11b136ea224fe,,,,,,,,,2931,102.4453125,-62.06640625,1,0,0,response3disk,,5,-18.41796875,-9.52734375,1,0,0,rectangle,-18.41796875,-9.52734375,1,0,0,-18.41796875,-9.52734375,1,0,0,0,158,158,140,1,,,,,,,,
,,,,,,,,,,,,,FF,,,,,,,,1.22,,,,,,,,,,,,,,,,,,,,,,6101d91477752dbb2e72baa5,61036cd533a41143392f15ec,2021-07-29_23h19.35.331,Simcolourproject_2stim_asymm_v5,2020.2.10,MacIntel,60,61025ae37ef11b136ea224fe,,,,,,,,,2210,107.6679688,-44.74609375,1,0,0,response3disk,,5,-6.078125,-5.89453125,1,0,0,rectangle,-6.078125,-5.89453125,1,0,0,-6.078125,-5.89453125,1,0,0,0,159,159,147,1,,,,,,,,
,,,,,,,,,,,,,FF,,,,,,,,1.6714,,,,,,,,,,,,,,,,,,,,,,6101d91477752dbb2e72baa5,61036cd533a41143392f15ec,2021-07-29_23h19.35.331,Simcolourproject_2stim_asymm_v5,2020.2.10,MacIntel,60,61025ae37ef11b136ea224fe,,,,,,,,,2852,108.0976563,-48.03515625,1,0,0,response3disk,,5,-6.94921875,-9.97265625,1,0,0,rectangle,-6.94921875,-9.97265625,1,0,0,-6.94921875,-9.97265625,1,0,0,1,0,160,154,1,,,,,,,,
,,,,,,,,,,,,,FF,,,,,,,,1.0715,,,,,,,,,,,,,,,,,,,,,,6101d91477752dbb2e72baa5,61036cd533a41143392f15ec,2021-07-29_23h19.35.331,Simcolourproject_2stim_asymm_v5,2020.2.10,MacIntel,60,61025ae37ef11b136ea224fe,,,,,,,,,3202,-90.5859375,22.3359375,1,0,0,response7disk,,1,-2.56640625,-3.17578125,1,0,0,rectangle,-2.56640625,-3.17578125,1,0,0,-2.56640625,-3.17578125,1,0,0,1,1,161,31,1,,,,,,,,
,,,,,,,,,,,,,FF,,,,,,,,0.9691,,,,,,,,,,,,,,,,,,,,,,6101d91477752dbb2e72baa5,61036cd533a41143392f15ec,2021-07-29_23h19.35.331,Simcolourproject_2stim_asymm_v5,2020.2.10,MacIntel,60,61025ae37ef11b136ea224fe,,,,,,,,,2310,-100.5390625,-44.23046875,1,0,0,response5disk,,2,-12.8828125,-0.55859375,1,0,0,rectangle,-12.8828125,-0.55859375,1,0,0,-12.8828125,-0.55859375,1,0,0,1,2,162,38,1,,,,,,,,
,,,,,,,,,,,,,FF,,,,,,,,1.722,,,,,,,,,,,,,,,,,,,,,,6101d91477752dbb2e72baa5,61036cd533a41143392f15ec,2021-07-29_23h19.35.331,Simcolourproject_2stim_asymm_v5,2020.2.10,MacIntel,60,61025ae37ef11b136ea224fe,,,,,,,,,1239,-30.546875,-94.875,1,0,0,response5disk,,3,6.04296875,3.84765625,1,0,0,rectangle,6.04296875,3.84765625,1,0,0,6.04296875,3.84765625,1,0,0,1,3,163,130,1,,,,,,,,
,,,,,,,,,,,,,FF,,,,,,,,1.2696,,,,,,,,,,,,,,,,,,,,,,6101d91477752dbb2e72baa5,61036cd533a41143392f15ec,2021-07-29_23h19.35.331,Simcolourproject_2stim_asymm_v5,2020.2.10,MacIntel,60,61025ae37ef11b136ea224fe,,,,,,,,,860,-57.61328125,-95.4296875,1,0,0,response5disk,,3,-7.51171875,7.16015625,1,0,0,rectangle,-7.51171875,7.16015625,1,0,0,-7.51171875,7.16015625,1,0,0,1,4,164,3,1,,,,,,,,
,,,,,,,,,,,,,FF,,,,,,,,0.8681,,,,,,,,,,,,,,,,,,,,,,6101d91477752dbb2e72baa5,61036cd533a41143392f15ec,2021-07-29_23h19.35.331,Simcolourproject_2stim_asymm_v5,2020.2.10,MacIntel,60,61025ae37ef11b136ea224fe,,,,,,,,,3386,-54.65234375,-108.9609375,1,0,0,response5disk,,3,7.5859375,-4.671875,1,0,0,rectangle,7.5859375,-4.671875,1,0,0,7.5859375,-4.671875,1,0,0,1,5,165,17,1,,,,,,,,
,,,,,,,,,,,,,FF,,,,,,,,1.0196,,,,,,,,,,,,,,,,,,,,,,6101d91477752dbb2e72baa5,61036cd533a41143392f15ec,2021-07-29_23h19.35.331,Simcolourproject_2stim_asymm_v5,2020.2.10,MacIntel,60,61025ae37ef11b136ea224fe,,,,,,,,,1550,46.2265625,-87.5703125,1,0,0,response3disk,,4,-8.64453125,1.015625,1,0,0,rectangle,-8.64453125,1.015625,1,0,0,-8.64453125,1.015625,1,0,0,1,6,166,81,1,,,,,,,,
,,,,,,,,,,,,,FF,,,,,,,,2.6564,,,,,,,,,,,,,,,,,,,,,,6101d91477752dbb2e72baa5,61036cd533a41143392f15ec,2021-07-29_23h19.35.331,Simcolourproject_2stim_asymm_v5,2020.2.10,MacIntel,60,61025ae37ef11b136ea224fe,,,,,,,,,1718,50.8984375,-95.77734375,1,0,0,response3disk,,4,21.1484375,-4.5625,1,0,0,rectangle,21.1484375,-4.5625,1,0,0,21.1484375,-4.5625,1,0,0,1,7,167,142,1,,,,,,,,
,,,,,,,,,,,,,FF,,,,,,,,2.3726,,,,,,,,,,,,,,,,,,,,,,6101d91477752dbb2e72baa5,61036cd533a41143392f15ec,2021-07-29_23h19.35.331,Simcolourproject_2stim_asymm_v5,2020.2.10,MacIntel,60,61025ae37ef11b136ea224fe,,,,,,,,,4254,-87.3125,34.14453125,1,0,0,response7disk,,1,7.86328125,-2.1484375,1,0,0,rectangle,7.86328125,-2.1484375,1,0,0,7.86328125,-2.1484375,1,0,0,1,8,168,112,1,,,,,,,,
,,,,,,,,,,,,,FF,,,,,,,,1.5036,,,,,,,,,,,,,,,,,,,,,,6101d91477752dbb2e72baa5,61036cd533a41143392f15ec,2021-07-29_23h19.35.331,Simcolourproject_2stim_asymm_v5,2020.2.10,MacIntel,60,61025ae37ef11b136ea224fe,,,,,,,,,2386,62.9765625,-105.46875,1,0,0,response3disk,,4,12.734375,10.6328125,1,0,0,rectangle,12.734375,10.6328125,1,0,0,12.734375,10.6328125,1,0,0,1,9,169,54,1,,,,,,,,
,,,,,,,,,,,,,FF,,,,,,,,2.7574,,,,,,,,,,,,,,,,,,,,,,6101d91477752dbb2e72baa5,61036cd533a41143392f15ec,2021-07-29_23h19.35.331,Simcolourproject_2stim_asymm_v5,2020.2.10,MacIntel,60,61025ae37ef11b136ea224fe,,,,,,,,,1987,-51.4296875,-106.015625,1,0,0,response5disk,,3,-7.80859375,-0.58984375,1,0,0,rectangle,-7.80859375,-0.58984375,1,0,0,-7.80859375,-0.58984375,1,0,0,1,10,170,25,1,,,,,,,,
,,,,,,,,,,,,,FF,,,,,,,,1.1205,,,,,,,,,,,,,,,,,,,,,,6101d91477752dbb2e72baa5,61036cd533a41143392f15ec,2021-07-29_23h19.35.331,Simcolourproject_2stim_asymm_v5,2020.2.10,MacIntel,60,61025ae37ef11b136ea224fe,,,,,,,,,2532,-47.2890625,-98.16796875,1,0,0,response5disk,,3,-2.8828125,9.359375,1,0,0,rectangle,-2.8828125,9.359375,1,0,0,-2.8828125,9.359375,1,0,0,1,11,171,136,1,,,,,,,,
,,,,,,,,,,,,,FF,,,,,,,,0.8866,,,,,,,,,,,,,,,,,,,,,,6101d91477752dbb2e72baa5,61036cd533a41143392f15ec,2021-07-29_23h19.35.331,Simcolourproject_2stim_asymm_v5,2020.2.10,MacIntel,60,61025ae37ef11b136ea224fe,,,,,,,,,3476,-93.6875,-57.7734375,1,0,0,response5disk,,2,-6.51953125,0.08203125,1,0,0,rectangle,-6.51953125,0.08203125,1,0,0,-6.51953125,0.08203125,1,0,0,1,12,172,83,1,,,,,,,,
,,,,,,,,,,,,,FF,,,,,,,,1.0878,,,,,,,,,,,,,,,,,,,,,,6101d91477752dbb2e72baa5,61036cd533a41143392f15ec,2021-07-29_23h19.35.331,Simcolourproject_2stim_asymm_v5,2020.2.10,MacIntel,60,61025ae37ef11b136ea224fe,,,,,,,,,637,-81.35546875,20.94921875,1,0,0,response7disk,,1,-13.859375,-2.19140625,1,0,0,rectangle,-13.859375,-2.19140625,1,0,0,-13.859375,-2.19140625,1,0,0,1,13,173,61,1,,,,,,,,
,,,,,,,,,,,,,FF,,,,,,,,1.0864,,,,,,,,,,,,,,,,,,,,,,6101d91477752dbb2e72baa5,61036cd533a41143392f15ec,2021-07-29_23h19.35.331,Simcolourproject_2stim_asymm_v5,2020.2.10,MacIntel,60,61025ae37ef11b136ea224fe,,,,,,,,,4032,-69.07421875,-61.48046875,1,0,0,response5disk,,2,-11.8515625,-11.2109375,1,0,0,rectangle,-11.8515625,-11.2109375,1,0,0,-11.8515625,-11.2109375,1,0,0,1,14,174,50,1,,,,,,,,
,,,,,,,,,,,,,FF,,,,,,,,1.1889,,,,,,,,,,,,,,,,,,,,,,6101d91477752dbb2e72baa5,61036cd533a41143392f15ec,2021-07-29_23h19.35.331,Simcolourproject_2stim_asymm_v5,2020.2.10,MacIntel,60,61025ae37ef11b136ea224fe,,,,,,,,,1436,-49.33984375,-89.8828125,1,0,0,response5disk,,3,11.0859375,12.5625,1,0,0,rectangle,-53.328125,-117.0039063,1,0,0,-20.7578125,-0.87890625,1,0,0,1,15,175,70,1,,response5disk_3,TRUE,3,3,"[99,116,33,250,68,250,261,286,259,230,296,187,176,115,136,31,76,86,79,129]",1.5707,rectangle
,,,,,,,,,,,,,FF,,,,,,,,1.0528,,,,,,,,,,,,,,,,,,,,,,6101d91477752dbb2e72baa5,61036cd533a41143392f15ec,2021-07-29_23h19.35.331,Simcolourproject_2stim_asymm_v5,2020.2.10,MacIntel,60,61025ae37ef11b136ea224fe,,,,,,,,,122,69.5,-91.17578125,1,0,0,response3disk,,4,-0.57421875,2.00390625,1,0,0,rectangle,-0.57421875,2.00390625,1,0,0,-0.57421875,2.00390625,1,0,0,1,16,176,151,1,,,,,,,,
,,,,,,,,,,,,,FF,,,,,,,,0.8522,,,,,,,,,,,,,,,,,,,,,,6101d91477752dbb2e72baa5,61036cd533a41143392f15ec,2021-07-29_23h19.35.331,Simcolourproject_2stim_asymm_v5,2020.2.10,MacIntel,60,61025ae37ef11b136ea224fe,,,,,,,,,2334,90.234375,-54.72265625,1,0,0,response3disk,,5,3.16015625,1.66796875,1,0,0,rectangle,3.16015625,1.66796875,1,0,0,3.16015625,1.66796875,1,0,0,1,17,177,22,1,,,,,,,,
,,,,,,,,,,,,,FF,,,,,,,,0.8686,,,,,,,,,,,,,,,,,,,,,,6101d91477752dbb2e72baa5,61036cd533a41143392f15ec,2021-07-29_23h19.35.331,Simcolourproject_2stim_asymm_v5,2020.2.10,MacIntel,60,61025ae37ef11b136ea224fe,,,,,,,,,2876,74.44140625,-39.2265625,1,0,0,response3disk,,5,-19.40625,-1.3515625,1,0,0,rectangle,-19.40625,-1.3515625,1,0,0,-19.40625,-1.3515625,1,0,0,1,18,178,35,1,,,,,,,,
,,,,,,,,,,,,,FF,,,,,,,,1.5385,,,,,,,,,,,,,,,,,,,,,,6101d91477752dbb2e72baa5,61036cd533a41143392f15ec,2021-07-29_23h19.35.331,Simcolourproject_2stim_asymm_v5,2020.2.10,MacIntel,60,61025ae37ef11b136ea224fe,,,,,,,,,1891,-72.640625,-32.6484375,1,0,0,response5disk,,2,10.5546875,12.03125,1,0,0,rectangle,10.5546875,12.03125,1,0,0,10.5546875,12.03125,1,0,0,1,19,179,145,1,,,,,,,,
,,,,,,,,,,,,,FF,,,,,,,,1.7198,,,,,,,,,,,,,,,,,,,,,,6101d91477752dbb2e72baa5,61036cd533a41143392f15ec,2021-07-29_23h19.35.331,Simcolourproject_2stim_asymm_v5,2020.2.10,MacIntel,60,61025ae37ef11b136ea224fe,,,,,,,,,3028,101.0273438,-36.7734375,1,0,0,response3disk,,5,-2.5625,0.3359375,1,0,0,rectangle,-2.5625,0.3359375,1,0,0,-2.5625,0.3359375,1,0,0,1,20,180,107,1,,,,,,,,
,,,,,,,,,,,,,FF,,,,,,,,1.0535,,,,,,,,,,,,,,,,,,,,,,6101d91477752dbb2e72baa5,61036cd533a41143392f15ec,2021-07-29_23h19.35.331,Simcolourproject_2stim_asymm_v5,2020.2.10,MacIntel,60,61025ae37ef11b136ea224fe,,,,,,,,,1233,73.54296875,-52.58203125,1,0,0,response3disk,,5,12.83203125,-10.3984375,1,0,0,rectangle,12.83203125,-10.3984375,1,0,0,12.83203125,-10.3984375,1,0,0,1,21,181,115,1,,,,,,,,
,,,,,,,,,,,,,FF,,,,,,,,1.2869,,,,,,,,,,,,,,,,,,,,,,6101d91477752dbb2e72baa5,61036cd533a41143392f15ec,2021-07-29_23h19.35.331,Simcolourproject_2stim_asymm_v5,2020.2.10,MacIntel,60,61025ae37ef11b136ea224fe,,,,,,,,,420,103.015625,-49.7265625,1,0,0,response3disk,,5,19.73046875,-12.8828125,1,0,0,rectangle,19.73046875,-12.8828125,1,0,0,19.73046875,-12.8828125,1,0,0,1,22,182,82,1,,,,,,,,
,,,,,,,,,,,,,FF,,,,,,,,1.2194,,,,,,,,,,,,,,,,,,,,,,6101d91477752dbb2e72baa5,61036cd533a41143392f15ec,2021-07-29_23h19.35.331,Simcolourproject_2stim_asymm_v5,2020.2.10,MacIntel,60,61025ae37ef11b136ea224fe,,,,,,,,,3710,51.80859375,-90.87890625,1,0,0,response3disk,,4,-2.6484375,-0.3515625,1,0,0,rectangle,-2.6484375,-0.3515625,1,0,0,-2.6484375,-0.3515625,1,0,0,1,23,183,114,1,,,,,,,,
,,,,,,,,,,,,,FF,,,,,,,,0.9708,,,,,,,,,,,,,,,,,,,,,,6101d91477752dbb2e72baa5,61036cd533a41143392f15ec,2021-07-29_23h19.35.331,Simcolourproject_2stim_asymm_v5,2020.2.10,MacIntel,60,61025ae37ef11b136ea224fe,,,,,,,,,4269,-42.50390625,-108.71875,1,0,0,response5disk,,3,2.44140625,-2.1015625,1,0,0,rectangle,2.44140625,-2.1015625,1,0,0,2.44140625,-2.1015625,1,0,0,1,24,184,32,1,,,,,,,,
,,,,,,,,,,,,,FF,,,,,,,,2.0573,,,,,,,,,,,,,,,,,,,,,,6101d91477752dbb2e72baa5,61036cd533a41143392f15ec,2021-07-29_23h19.35.331,Simcolourproject_2stim_asymm_v5,2020.2.10,MacIntel,60,61025ae37ef11b136ea224fe,,,,,,,,,1492,77.80859375,-64.109375,1,0,0,response3disk,,5,-23.6796875,4.421875,1,0,0,rectangle,-23.6796875,4.421875,1,0,0,-23.6796875,4.421875,1,0,0,1,25,185,118,1,,,,,,,,
,,,,,,,,,,,,,FF,,,,,,,,1.688,,,,,,,,,,,,,,,,,,,,,,6101d91477752dbb2e72baa5,61036cd533a41143392f15ec,2021-07-29_23h19.35.331,Simcolourproject_2stim_asymm_v5,2020.2.10,MacIntel,60,61025ae37ef11b136ea224fe,,,,,,,,,154,105.953125,62.12109375,1,0,0,response1disk,,6,2.6484375,-8.61328125,1,0,0,rectangle,-90.4609375,-71.08203125,1,0,0,-7.10546875,11.30078125,1,0,0,1,26,186,138,1,,response5disk_3,TRUE,2,2,"[99,116,33,250,68,250,261,286,259,230,296,187,176,115,136,31,76,86,79,129]",1.8726,rectangle
,,,,,,,,,,,,,FF,,,,,,,,1.3035,,,,,,,,,,,,,,,,,,,,,,6101d91477752dbb2e72baa5,61036cd533a41143392f15ec,2021-07-29_23h19.35.331,Simcolourproject_2stim_asymm_v5,2020.2.10,MacIntel,60,61025ae37ef11b136ea224fe,,,,,,,,,783,-94.8359375,-61.9765625,1,0,0,response5disk,,2,-11.17578125,6.58203125,1,0,0,rectangle,-11.17578125,6.58203125,1,0,0,-11.17578125,6.58203125,1,0,0,1,27,187,98,1,,,,,,,,
,,,,,,,,,,,,,FF,,,,,,,,1.3035,,,,,,,,,,,,,,,,,,,,,,6101d91477752dbb2e72baa5,61036cd533a41143392f15ec,2021-07-29_23h19.35.331,Simcolourproject_2stim_asymm_v5,2020.2.10,MacIntel,60,61025ae37ef11b136ea224fe,,,,,,,,,1263,46.140625,-77.96484375,1,0,0,response3disk,,4,1.22265625,4.59375,1,0,0,rectangle,1.22265625,4.59375,1,0,0,1.22265625,4.59375,1,0,0,1,28,188,144,1,,,,,,,,
,,,,,,,,,,,,,FF,,,,,,,,3.9094,,,,,,,,,,,,,,,,,,,,,,6101d91477752dbb2e72baa5,61036cd533a41143392f15ec,2021-07-29_23h19.35.331,Simcolourproject_2stim_asymm_v5,2020.2.10,MacIntel,60,61025ae37ef11b136ea224fe,,,,,,,,,4142,-94.58203125,-70.22265625,1,0,0,response5disk,,2,-0.2421875,-7.14453125,1,0,0,rectangle,-0.2421875,-7.14453125,1,0,0,-0.2421875,-7.14453125,1,0,0,1,29,189,44,1,,,,,,,,
,,,,,,,,,,,,,FF,,,,,,,,1.4526,,,,,,,,,,,,,,,,,,,,,,6101d91477752dbb2e72baa5,61036cd533a41143392f15ec,2021-07-29_23h19.35.331,Simcolourproject_2stim_asymm_v5,2020.2.10,MacIntel,60,61025ae37ef11b136ea224fe,,,,,,,,,2307,-43.6328125,-81.96875,1,0,0,response5disk,,3,-5.22265625,-0.0703125,1,0,0,rectangle,-5.22265625,-0.0703125,1,0,0,-5.22265625,-0.0703125,1,0,0,1,30,190,14,1,,,,,,,,
,,,,,,,,,,,,,FF,,,,,,,,1.0864,,,,,,,,,,,,,,,,,,,,,,6101d91477752dbb2e72baa5,61036cd533a41143392f15ec,2021-07-29_23h19.35.331,Simcolourproject_2stim_asymm_v5,2020.2.10,MacIntel,60,61025ae37ef11b136ea224fe,,,,,,,,,698,-30.30859375,-104.1992188,1,0,0,response5disk,,3,-0.8125,2.8984375,1,0,0,rectangle,-0.8125,2.8984375,1,0,0,-0.8125,2.8984375,1,0,0,1,31,191,40,1,,,,,,,,
,,,,,,,,,,,,,FF,,,,,,,,1.9898,,,,,,,,,,,,,,,,,,,,,,6101d91477752dbb2e72baa5,61036cd533a41143392f15ec,2021-07-29_23h19.35.331,Simcolourproject_2stim_asymm_v5,2020.2.10,MacIntel,60,61025ae37ef11b136ea224fe,,,,,,,,,1085,52.2578125,-85.70703125,1,0,0,response3disk,,4,-2.9609375,-0.44140625,1,0,0,rectangle,-2.9609375,-0.44140625,1,0,0,-2.9609375,-0.44140625,1,0,0,1,32,192,105,1,,,,,,,,
,,,,,,,,,,,,,FF,,,,,,,,1.2031,,,,,,,,,,,,,,,,,,,,,,6101d91477752dbb2e72baa5,61036cd533a41143392f15ec,2021-07-29_23h19.35.331,Simcolourproject_2stim_asymm_v5,2020.2.10,MacIntel,60,61025ae37ef11b136ea224fe,,,,,,,,,3329,-50.69921875,-103.7382813,1,0,0,response5disk,,3,3.6875,4.25,1,0,0,rectangle,3.6875,4.25,1,0,0,3.6875,4.25,1,0,0,1,33,193,77,1,,,,,,,,
,,,,,,,,,,,,,FF,,,,,,,,1.7378,,,,,,,,,,,,,,,,,,,,,,6101d91477752dbb2e72baa5,61036cd533a41143392f15ec,2021-07-29_23h19.35.331,Simcolourproject_2stim_asymm_v5,2020.2.10,MacIntel,60,61025ae37ef11b136ea224fe,,,,,,,,,272,107.4570313,-51.62109375,1,0,0,response3disk,,5,18.640625,-3.78125,1,0,0,rectangle,18.640625,-3.78125,1,0,0,18.640625,-3.78125,1,0,0,1,34,194,113,1,,,,,,,,
,,,,,,,,,,,,,FF,,,,,,,,1.1177,,,,,,,,,,,,,,,,,,,,,,6101d91477752dbb2e72baa5,61036cd533a41143392f15ec,2021-07-29_23h19.35.331,Simcolourproject_2stim_asymm_v5,2020.2.10,MacIntel,60,61025ae37ef11b136ea224fe,,,,,,,,,2097,-68.4375,-42.8984375,1,0,0,response5disk,,2,-10.5625,-10.296875,1,0,0,rectangle,-10.5625,-10.296875,1,0,0,-10.5625,-10.296875,1,0,0,1,35,195,116,1,,,,,,,,
,,,,,,,,,,,,,FF,,,,,,,,1.7594,,,,,,,,,,,,,,,,,,,,,,6101d91477752dbb2e72baa5,61036cd533a41143392f15ec,2021-07-29_23h19.35.331,Simcolourproject_2stim_asymm_v5,2020.2.10,MacIntel,60,61025ae37ef11b136ea224fe,,,,,,,,,2518,85.875,19.5859375,1,0,0,response1disk,,6,4.1328125,-6.21875,1,0,0,rectangle,4.1328125,-6.21875,1,0,0,4.1328125,-6.21875,1,0,0,1,36,196,45,1,,,,,,,,
,,,,,,,,,,,,,FF,,,,,,,,29.6294,,,,,,,,,,,,,,,,,,,,,,6101d91477752dbb2e72baa5,61036cd533a41143392f15ec,2021-07-29_23h19.35.331,Simcolourproject_2stim_asymm_v5,2020.2.10,MacIntel,60,61025ae37ef11b136ea224fe,,,,,,,,,96,38.33984375,-121.0742188,1,0,0,response3disk,,4,14.69921875,-8.2734375,1,0,0,rectangle,14.69921875,-8.2734375,1,0,0,14.69921875,-8.2734375,1,0,0,1,37,197,21,1,,,,,,,,
,,,,,,,,,,,,,FF,,,,,,,,1.7045,,,,,,,,,,,,,,,,,,,,,,6101d91477752dbb2e72baa5,61036cd533a41143392f15ec,2021-07-29_23h19.35.331,Simcolourproject_2stim_asymm_v5,2020.2.10,MacIntel,60,61025ae37ef11b136ea224fe,,,,,,,,,1833,-69.265625,-101.1679688,1,0,0,response5disk,,3,-11.90234375,-0.06640625,1,0,0,rectangle,-11.90234375,-0.06640625,1,0,0,-11.90234375,-0.06640625,1,0,0,1,38,198,87,1,,,,,,,,
,,,,,,,,,,,,,FF,,,,,,,,4.6467,,,,,,,,,,,,,,,,,,,,,,6101d91477752dbb2e72baa5,61036cd533a41143392f15ec,2021-07-29_23h19.35.331,Simcolourproject_2stim_asymm_v5,2020.2.10,MacIntel,60,61025ae37ef11b136ea224fe,,,,,,,,,848,98.6953125,-70.83203125,1,0,0,response3disk,,5,19.8125,-11.0859375,1,0,0,rectangle,19.8125,-11.0859375,1,0,0,19.8125,-11.0859375,1,0,0,1,39,199,126,1,,,,,,,,
,,,,,,,,,,,,,FF,,,,,,,,1.1365,,,,,,,,,,,,,,,,,,,,,,6101d91477752dbb2e72baa5,61036cd533a41143392f15ec,2021-07-29_23h19.35.331,Simcolourproject_2stim_asymm_v5,2020.2.10,MacIntel,60,61025ae37ef11b136ea224fe,,,,,,,,,90,70.09375,-44.27734375,1,0,0,response3disk,,5,33.4921875,-7.140625,1,0,0,rectangle,33.4921875,-7.140625,1,0,0,33.4921875,-7.140625,1,0,0,1,40,200,4,1,,,,,,,,
,,,,,,,,,,,,,FF,,,,,,,,1.2201,,,,,,,,,,,,,,,,,,,,,,6101d91477752dbb2e72baa5,61036cd533a41143392f15ec,2021-07-29_23h19.35.331,Simcolourproject_2stim_asymm_v5,2020.2.10,MacIntel,60,61025ae37ef11b136ea224fe,,,,,,,,,4192,59.9921875,-29.23828125,1,0,0,response3disk,,5,0.76171875,0.21875,1,0,0,rectangle,0.76171875,0.21875,1,0,0,0.76171875,0.21875,1,0,0,1,41,201,111,1,,,,,,,,
,,,,,,,,,,,,,FF,,,,,,,,1.1879,,,,,,,,,,,,,,,,,,,,,,6101d91477752dbb2e72baa5,61036cd533a41143392f15ec,2021-07-29_23h19.35.331,Simcolourproject_2stim_asymm_v5,2020.2.10,MacIntel,60,61025ae37ef11b136ea224fe,,,,,,,,,1913,70.8515625,-19.671875,1,0,0,response3disk,,5,22.58984375,6.15234375,1,0,0,rectangle,22.58984375,6.15234375,1,0,0,22.58984375,6.15234375,1,0,0,1,42,202,47,1,,,,,,,,
,,,,,,,,,,,,,FF,,,,,,,,17.8652,,,,,,,,,,,,,,,,,,,,,,6101d91477752dbb2e72baa5,61036cd533a41143392f15ec,2021-07-29_23h19.35.331,Simcolourproject_2stim_asymm_v5,2020.2.10,MacIntel,60,61025ae37ef11b136ea224fe,,,,,,,,,3182,56.96875,-94.9765625,1,0,0,response3disk,,4,9.92578125,-4.94921875,1,0,0,rectangle,9.92578125,-4.94921875,1,0,0,9.92578125,-4.94921875,1,0,0,1,43,203,2,1,,,,,,,,
,,,,,,,,,,,,,FF,,,,,,,,2.1055,,,,,,,,,,,,,,,,,,,,,,6101d91477752dbb2e72baa5,61036cd533a41143392f15ec,2021-07-29_23h19.35.331,Simcolourproject_2stim_asymm_v5,2020.2.10,MacIntel,60,61025ae37ef11b136ea224fe,,,,,,,,,4182,-101.609375,27.87109375,1,0,0,response7disk,,1,5.05078125,3.9921875,1,0,0,rectangle,5.05078125,3.9921875,1,0,0,5.05078125,3.9921875,1,0,0,1,44,204,52,1,,,,,,,,
,,,,,,,,,,,,,FF,,,,,,,,1.0195,,,,,,,,,,,,,,,,,,,,,,6101d91477752dbb2e72baa5,61036cd533a41143392f15ec,2021-07-29_23h19.35.331,Simcolourproject_2stim_asymm_v5,2020.2.10,MacIntel,60,61025ae37ef11b136ea224fe,,,,,,,,,2598,-82.4375,-77.9453125,1,0,0,response5disk,,2,-12.0390625,0.07421875,1,0,0,rectangle,-12.0390625,0.07421875,1,0,0,-12.0390625,0.07421875,1,0,0,1,45,205,101,1,,,,,,,,
,,,,,,,,,,,,,FF,,,,,,,,1.1875,,,,,,,,,,,,,,,,,,,,,,6101d91477752dbb2e72baa5,61036cd533a41143392f15ec,2021-07-29_23h19.35.331,Simcolourproject_2stim_asymm_v5,2020.2.10,MacIntel,60,61025ae37ef11b136ea224fe,,,,,,,,,3640,89.16796875,-42.88671875,1,0,0,response3disk,,5,33.578125,-7.96875,1,0,0,rectangle,33.578125,-7.96875,1,0,0,33.578125,-7.96875,1,0,0,1,46,206,43,1,,,,,,,,
,,,,,,,,,,,,,FF,,,,,,,,5.6191,,,,,,,,,,,,,,,,,,,,,,6101d91477752dbb2e72baa5,61036cd533a41143392f15ec,2021-07-29_23h19.35.331,Simcolourproject_2stim_asymm_v5,2020.2.10,MacIntel,60,61025ae37ef11b136ea224fe,,,,,,,,,3946,-83.41015625,-80.86328125,1,0,0,response5disk,,2,18.1953125,2.14453125,1,0,0,rectangle,18.1953125,2.14453125,1,0,0,18.1953125,2.14453125,1,0,0,1,47,207,100,1,,,,,,,,
,,,,,,,,,,,,,FF,,,,,,,,2.4234,,,,,,,,,,,,,,,,,,,,,,6101d91477752dbb2e72baa5,61036cd533a41143392f15ec,2021-07-29_23h19.35.331,Simcolourproject_2stim_asymm_v5,2020.2.10,MacIntel,60,61025ae37ef11b136ea224fe,,,,,,,,,2164,-97.91015625,-41.4453125,1,0,0,response5disk,,2,-1.5546875,0.1484375,1,0,0,rectangle,-1.5546875,0.1484375,1,0,0,-1.5546875,0.1484375,1,0,0,1,48,208,127,1,,,,,,,,
,,,,,,,,,,,,,FF,,,,,,,,1.3047,,,,,,,,,,,,,,,,,,,,,,6101d91477752dbb2e72baa5,61036cd533a41143392f15ec,2021-07-29_23h19.35.331,Simcolourproject_2stim_asymm_v5,2020.2.10,MacIntel,60,61025ae37ef11b136ea224fe,,,,,,,,,733,27.73828125,-84.875,1,0,0,response3disk,,4,4.8984375,-8.87109375,1,0,0,rectangle,4.8984375,-8.87109375,1,0,0,4.8984375,-8.87109375,1,0,0,1,49,209,12,1,,,,,,,,
,,,,,,,,,,,,,FF,,,,,,,,5.1791,,,,,,,,,,,,,,,,,,,,,,6101d91477752dbb2e72baa5,61036cd533a41143392f15ec,2021-07-29_23h19.35.331,Simcolourproject_2stim_asymm_v5,2020.2.10,MacIntel,60,61025ae37ef11b136ea224fe,,,,,,,,,2027,-101.4296875,-77.43359375,1,0,0,response5disk,,2,28.75,-1.65625,1,0,0,rectangle,28.75,-1.65625,1,0,0,28.75,-1.65625,1,0,0,1,50,210,11,1,,,,,,,,
,,,,,,,,,,,,,FF,,,,,,,,0.9193,,,,,,,,,,,,,,,,,,,,,,6101d91477752dbb2e72baa5,61036cd533a41143392f15ec,2021-07-29_23h19.35.331,Simcolourproject_2stim_asymm_v5,2020.2.10,MacIntel,60,61025ae37ef11b136ea224fe,,,,,,,,,4036,44.97265625,-107.390625,1,0,0,response3disk,,4,4.14453125,6.484375,1,0,0,rectangle,4.14453125,6.484375,1,0,0,4.14453125,6.484375,1,0,0,1,51,211,1,1,,,,,,,,
,,,,,,,,,,,,,FF,,,,,,,,0.8864,,,,,,,,,,,,,,,,,,,,,,6101d91477752dbb2e72baa5,61036cd533a41143392f15ec,2021-07-29_23h19.35.331,Simcolourproject_2stim_asymm_v5,2020.2.10,MacIntel,60,61025ae37ef11b136ea224fe,,,,,,,,,4063,74.10546875,-28.1484375,1,0,0,response3disk,,5,9.30078125,10.484375,1,0,0,rectangle,9.30078125,10.484375,1,0,0,9.30078125,10.484375,1,0,0,1,52,212,7,1,,,,,,,,
,,,,,,,,,,,,,FF,,,,,,,,1.1529,,,,,,,,,,,,,,,,,,,,,,6101d91477752dbb2e72baa5,61036cd533a41143392f15ec,2021-07-29_23h19.35.331,Simcolourproject_2stim_asymm_v5,2020.2.10,MacIntel,60,61025ae37ef11b136ea224fe,,,,,,,,,1576,70.4765625,-35.8359375,1,0,0,response3disk,,5,-6.07421875,-3.17578125,1,0,0,rectangle,-6.07421875,-3.17578125,1,0,0,-6.07421875,-3.17578125,1,0,0,1,53,213,79,1,,,,,,,,
,,,,,,,,,,,,,FF,,,,,,,,4.1455,,,,,,,,,,,,,,,,,,,,,,6101d91477752dbb2e72baa5,61036cd533a41143392f15ec,2021-07-29_23h19.35.331,Simcolourproject_2stim_asymm_v5,2020.2.10,MacIntel,60,61025ae37ef11b136ea224fe,,,,,,,,,953,50.41796875,-103.8671875,1,0,0,response3disk,,4,-11.58203125,-3.98828125,1,0,0,rectangle,-11.58203125,-3.98828125,1,0,0,-11.58203125,-3.98828125,1,0,0,1,54,214,10,1,,,,,,,,
,,,,,,,,,,,,,FF,,,,,,,,1.8729,,,,,,,,,,,,,,,,,,,,,,6101d91477752dbb2e72baa5,61036cd533a41143392f15ec,2021-07-29_23h19.35.331,Simcolourproject_2stim_asymm_v5,2020.2.10,MacIntel,60,61025ae37ef11b136ea224fe,,,,,,,,,112,82.65234375,43.640625,1,0,0,response1disk,,6,4.328125,-1.41796875,1,0,0,rectangle,4.328125,-1.41796875,1,0,0,4.328125,-1.41796875,1,0,0,1,55,215,27,1,,,,,,,,
,,,,,,,,,,,,,FF,,,,,,,,3.0919,,,,,,,,,,,,,,,,,,,,,,6101d91477752dbb2e72baa5,61036cd533a41143392f15ec,2021-07-29_23h19.35.331,Simcolourproject_2stim_asymm_v5,2020.2.10,MacIntel,60,61025ae37ef11b136ea224fe,,,,,,,,,1374,75.44140625,-27.109375,1,0,0,response3disk,,5,-6.1953125,10.3671875,1,0,0,rectangle,-6.1953125,10.3671875,1,0,0,-6.1953125,10.3671875,1,0,0,1,56,216,64,1,,,,,,,,
,,,,,,,,,,,,,FF,,,,,,,,1.6863,,,,,,,,,,,,,,,,,,,,,,6101d91477752dbb2e72baa5,61036cd533a41143392f15ec,2021-07-29_23h19.35.331,Simcolourproject_2stim_asymm_v5,2020.2.10,MacIntel,60,61025ae37ef11b136ea224fe,,,,,,,,,3367,25.29296875,82.6484375,1,0,0,response1disk,,7,9.3828125,-2.734375,1,0,0,rectangle,9.3828125,-2.734375,1,0,0,9.3828125,-2.734375,1,0,0,1,57,217,96,1,,,,,,,,
,,,,,,,,,,,,,FF,,,,,,,,3.1252,,,,,,,,,,,,,,,,,,,,,,6101d91477752dbb2e72baa5,61036cd533a41143392f15ec,2021-07-29_23h19.35.331,Simcolourproject_2stim_asymm_v5,2020.2.10,MacIntel,60,61025ae37ef11b136ea224fe,,,,,,,,,411,78.609375,-60.7109375,1,0,0,response3disk,,5,3.30859375,-4.52734375,1,0,0,rectangle,3.30859375,-4.52734375,1,0,0,3.30859375,-4.52734375,1,0,0,1,58,218,156,1,,,,,,,,
,,,,,,,,,,,,,FF,,,,,,,,1.0687,,,,,,,,,,,,,,,,,,,,,,6101d91477752dbb2e72baa5,61036cd533a41143392f15ec,2021-07-29_23h19.35.331,Simcolourproject_2stim_asymm_v5,2020.2.10,MacIntel,60,61025ae37ef11b136ea224fe,,,,,,,,,1469,45.30859375,-90.859375,1,0,0,response3disk,,4,-30.29296875,7.609375,1,0,0,rectangle,-30.29296875,7.609375,1,0,0,-30.29296875,7.609375,1,0,0,1,59,219,153,1,,,,,,,,
,,,,,,,,,,,,,FF,,,,,,,,0.986,,,,,,,,,,,,,,,,,,,,,,6101d91477752dbb2e72baa5,61036cd533a41143392f15ec,2021-07-29_23h19.35.331,Simcolourproject_2stim_asymm_v5,2020.2.10,MacIntel,60,61025ae37ef11b136ea224fe,,,,,,,,,571,-26.5234375,-54.30859375,1,0,0,response5disk,,3,3.3359375,-1.20703125,1,0,0,rectangle,3.3359375,-1.20703125,1,0,0,3.3359375,-1.20703125,1,0,0,1,60,220,19,1,,,,,,,,
,,,,,,,,,,,,,FF,,,,,,,,15.5248,,,,,,,,,,,,,,,,,,,,,,6101d91477752dbb2e72baa5,61036cd533a41143392f15ec,2021-07-29_23h19.35.331,Simcolourproject_2stim_asymm_v5,2020.2.10,MacIntel,60,61025ae37ef11b136ea224fe,,,,,,,,,977,85.29296875,-60.6796875,1,0,0,response3disk,,5,-4.54296875,-8.45703125,1,0,0,rectangle,-4.54296875,-8.45703125,1,0,0,-4.54296875,-8.45703125,1,0,0,1,61,221,28,1,,,,,,,,
,,,,,,,,,,,,,FF,,,,,,,,2.2225,,,,,,,,,,,,,,,,,,,,,,6101d91477752dbb2e72baa5,61036cd533a41143392f15ec,2021-07-29_23h19.35.331,Simcolourproject_2stim_asymm_v5,2020.2.10,MacIntel,60,61025ae37ef11b136ea224fe,,,,,,,,,4223,-97.578125,39.9375,1,0,0,response7disk,,1,3.1953125,-2.68359375,1,0,0,rectangle,3.1953125,-2.68359375,1,0,0,3.1953125,-2.68359375,1,0,0,1,62,222,152,1,,,,,,,,
,,,,,,,,,,,,,FF,,,,,,,,1.0187,,,,,,,,,,,,,,,,,,,,,,6101d91477752dbb2e72baa5,61036cd533a41143392f15ec,2021-07-29_23h19.35.331,Simcolourproject_2stim_asymm_v5,2020.2.10,MacIntel,60,61025ae37ef11b136ea224fe,,,,,,,,,2950,-58.69921875,-43.46875,1,0,0,response5disk,,2,2.0234375,-10.09375,1,0,0,rectangle,2.0234375,-10.09375,1,0,0,2.0234375,-10.09375,1,0,0,1,63,223,37,1,,,,,,,,
,,,,,,,,,,,,,FF,,,,,,,,0.9715,,,,,,,,,,,,,,,,,,,,,,6101d91477752dbb2e72baa5,61036cd533a41143392f15ec,2021-07-29_23h19.35.331,Simcolourproject_2stim_asymm_v5,2020.2.10,MacIntel,60,61025ae37ef11b136ea224fe,,,,,,,,,4281,-76.2734375,23.171875,1,0,0,response7disk,,1,5.765625,-10.02734375,1,0,0,rectangle,5.765625,-10.02734375,1,0,0,5.765625,-10.02734375,1,0,0,1,64,224,88,1,,,,,,,,
,,,,,,,,,,,,,FF,,,,,,,,1.272,,,,,,,,,,,,,,,,,,,,,,6101d91477752dbb2e72baa5,61036cd533a41143392f15ec,2021-07-29_23h19.35.331,Simcolourproject_2stim_asymm_v5,2020.2.10,MacIntel,60,61025ae37ef11b136ea224fe,,,,,,,,,3883,83.03515625,34.25,1,0,0,response1disk,,6,8.11328125,-3.0703125,1,0,0,rectangle,8.11328125,-3.0703125,1,0,0,8.11328125,-3.0703125,1,0,0,1,65,225,34,1,,,,,,,,
,,,,,,,,,,,,,FF,,,,,,,,38.686,,,,,,,,,,,,,,,,,,,,,,6101d91477752dbb2e72baa5,61036cd533a41143392f15ec,2021-07-29_23h19.35.331,Simcolourproject_2stim_asymm_v5,2020.2.10,MacIntel,60,61025ae37ef11b136ea224fe,,,,,,,,,3826,75.82421875,-105.3046875,1,0,0,response3disk,,4,-19.34765625,-0.6328125,1,0,0,rectangle,-19.34765625,-0.6328125,1,0,0,-19.34765625,-0.6328125,1,0,0,1,66,226,120,1,,,,,,,,
,,,,,,,,,,,,,FF,,,,,,,,478.8056,,,,,,,,,,,,,,,,,,,,,,6101d91477752dbb2e72baa5,61036cd533a41143392f15ec,2021-07-29_23h19.35.331,Simcolourproject_2stim_asymm_v5,2020.2.10,MacIntel,60,61025ae37ef11b136ea224fe,,,,,,,,,4009,54.63671875,-104.7734375,1,0,0,response3disk,,4,-11.12109375,1.515625,1,0,0,rectangle,-11.12109375,1.515625,1,0,0,-11.12109375,1.515625,1,0,0,1,67,227,72,1,,,,,,,,
,,,,,,,,,,,,,FF,,,,,,,,1.8875,,,,,,,,,,,,,,,,,,,,,,6101d91477752dbb2e72baa5,61036cd533a41143392f15ec,2021-07-29_23h19.35.331,Simcolourproject_2stim_asymm_v5,2020.2.10,MacIntel,60,61025ae37ef11b136ea224fe,,,,,,,,,1079,73.5390625,-85.92578125,1,0,0,response3disk,,4,21.34375,-12.3359375,1,0,0,rectangle,21.34375,-12.3359375,1,0,0,21.34375,-12.3359375,1,0,0,1,68,228,131,1,,,,,,,,
,,,,,,,,,,,,,FF,,,,,,,,1.6051,,,,,,,,,,,,,,,,,,,,,,6101d91477752dbb2e72baa5,61036cd533a41143392f15ec,2021-07-29_23h19.35.331,Simcolourproject_2stim_asymm_v5,2020.2.10,MacIntel,60,61025ae37ef11b136ea224fe,,,,,,,,,3203,-73.67578125,-57.32421875,1,0,0,response5disk,,2,-16.38671875,8.66796875,1,0,0,rectangle,88.80078125,99.734375,1,0,0,14.52734375,-7.58203125,1,0,0,1,69,229,90,1,,response1disk_3,TRUE,7,7,"[99,116,33,250,68,250,261,286,259,230,296,187,176,115,136,31,76,86,79,129]",1.9376,rectangle
,,,,,,,,,,,,,FF,,,,,,,,1.5881,,,,,,,,,,,,,,,,,,,,,,6101d91477752dbb2e72baa5,61036cd533a41143392f15ec,2021-07-29_23h19.35.331,Simcolourproject_2stim_asymm_v5,2020.2.10,MacIntel,60,61025ae37ef11b136ea224fe,,,,,,,,,2602,-69.51953125,-93.05859375,1,0,0,response5disk,,3,-6.80078125,4.19140625,1,0,0,rectangle,-6.80078125,4.19140625,1,0,0,-6.80078125,4.19140625,1,0,0,1,70,230,75,1,,,,,,,,
,,,,,,,,,,,,,FF,,,,,,,,1.8562,,,,,,,,,,,,,,,,,,,,,,6101d91477752dbb2e72baa5,61036cd533a41143392f15ec,2021-07-29_23h19.35.331,Simcolourproject_2stim_asymm_v5,2020.2.10,MacIntel,60,61025ae37ef11b136ea224fe,,,,,,,,,3272,101.0117188,56.52734375,1,0,0,response1disk,,6,-7.203125,-2.171875,1,0,0,rectangle,-7.203125,-2.171875,1,0,0,-7.203125,-2.171875,1,0,0,1,71,231,122,1,,,,,,,,
,,,,,,,,,,,,,FF,,,,,,,,1.2871,,,,,,,,,,,,,,,,,,,,,,6101d91477752dbb2e72baa5,61036cd533a41143392f15ec,2021-07-29_23h19.35.331,Simcolourproject_2stim_asymm_v5,2020.2.10,MacIntel,60,61025ae37ef11b136ea224fe,,,,,,,,,2262,108.3125,-49.1953125,1,0,0,response3disk,,5,5.6640625,-3.0078125,1,0,0,rectangle,5.6640625,-3.0078125,1,0,0,5.6640625,-3.0078125,1,0,0,1,72,232,80,1,,,,,,,,
,,,,,,,,,,,,,FF,,,,,,,,1.5494,,,,,,,,,,,,,,,,,,,,,,6101d91477752dbb2e72baa5,61036cd533a41143392f15ec,2021-07-29_23h19.35.331,Simcolourproject_2stim_asymm_v5,2020.2.10,MacIntel,60,61025ae37ef11b136ea224fe,,,,,,,,,2154,120.8554688,-57.62890625,1,0,0,response3disk,,5,17.12890625,-9.95703125,1,0,0,rectangle,17.12890625,-9.95703125,1,0,0,17.12890625,-9.95703125,1,0,0,1,73,233,68,1,,,,,,,,
,,,,,,,,,,,,,FF,,,,,,,,1.3766,,,,,,,,,,,,,,,,,,,,,,6101d91477752dbb2e72baa5,61036cd533a41143392f15ec,2021-07-29_23h19.35.331,Simcolourproject_2stim_asymm_v5,2020.2.10,MacIntel,60,61025ae37ef11b136ea224fe,,,,,,,,,2229,-97.8828125,-54.2890625,1,0,0,response5disk,,2,5.65234375,-3.00390625,1,0,0,rectangle,5.65234375,-3.00390625,1,0,0,5.65234375,-3.00390625,1,0,0,1,74,234,18,1,,,,,,,,
,,,,,,,,,,,,,FF,,,,,,,,2.8917,,,,,,,,,,,,,,,,,,,,,,6101d91477752dbb2e72baa5,61036cd533a41143392f15ec,2021-07-29_23h19.35.331,Simcolourproject_2stim_asymm_v5,2020.2.10,MacIntel,60,61025ae37ef11b136ea224fe,,,,,,,,,424,-33.49609375,-95.23046875,1,0,0,response5disk,,3,13.69140625,2.17578125,1,0,0,rectangle,13.69140625,2.17578125,1,0,0,13.69140625,2.17578125,1,0,0,1,75,235,159,1,,,,,,,,
,,,,,,,,,,,,,FF,,,,,,,,1.3193,,,,,,,,,,,,,,,,,,,,,,6101d91477752dbb2e72baa5,61036cd533a41143392f15ec,2021-07-29_23h19.35.331,Simcolourproject_2stim_asymm_v5,2020.2.10,MacIntel,60,61025ae37ef11b136ea224fe,,,,,,,,,2691,97.89453125,-96.40234375,1,0,0,response3disk,,5,-2.2578125,5.5390625,1,0,0,rectangle,-2.2578125,5.5390625,1,0,0,-2.2578125,5.5390625,1,0,0,1,76,236,146,1,,,,,,,,
,,,,,,,,,,,,,FF,,,,,,,,1.1352,,,,,,,,,,,,,,,,,,,,,,6101d91477752dbb2e72baa5,61036cd533a41143392f15ec,2021-07-29_23h19.35.331,Simcolourproject_2stim_asymm_v5,2020.2.10,MacIntel,60,61025ae37ef11b136ea224fe,,,,,,,,,2799,37.65625,-103.8398438,1,0,0,response3disk,,4,-2.421875,-3.875,1,0,0,rectangle,-2.421875,-3.875,1,0,0,-2.421875,-3.875,1,0,0,1,77,237,124,1,,,,,,,,
,,,,,,,,,,,,,FF,,,,,,,,1.5217,,,,,,,,,,,,,,,,,,,,,,6101d91477752dbb2e72baa5,61036cd533a41143392f15ec,2021-07-29_23h19.35.331,Simcolourproject_2stim_asymm_v5,2020.2.10,MacIntel,60,61025ae37ef11b136ea224fe,,,,,,,,,2658,60.828125,-112.1484375,1,0,0,response3disk,,4,10.55078125,10.875,1,0,0,rectangle,10.55078125,10.875,1,0,0,10.55078125,10.875,1,0,0,1,78,238,147,1,,,,,,,,
,,,,,,,,,,,,,FF,,,,,,,,23.5642,,,,,,,,,,,,,,,,,,,,,,6101d91477752dbb2e72baa5,61036cd533a41143392f15ec,2021-07-29_23h19.35.331,Simcolourproject_2stim_asymm_v5,2020.2.10,MacIntel,60,61025ae37ef11b136ea224fe,,,,,,,,,346,-98.5,-44.7578125,1,0,0,response5disk,,2,6.3671875,-7.71484375,1,0,0,rectangle,6.3671875,-7.71484375,1,0,0,6.3671875,-7.71484375,1,0,0,1,79,239,60,1,,,,,,,,
,,,,,,,,,,,,,FF,,,,,,,,1.7556,,,,,,,,,,,,,,,,,,,,,,6101d91477752dbb2e72baa5,61036cd533a41143392f15ec,2021-07-29_23h19.35.331,Simcolourproject_2stim_asymm_v5,2020.2.10,MacIntel,60,61025ae37ef11b136ea224fe,,,,,,,,,3062,-89.1875,-47.31640625,1,0,0,response5disk,,2,-5.6328125,1.046875,1,0,0,rectangle,-5.6328125,1.046875,1,0,0,-5.6328125,1.046875,1,0,0,1,80,240,29,1,,,,,,,,
,,,,,,,,,,,,,FF,,,,,,,,1.3361,,,,,,,,,,,,,,,,,,,,,,6101d91477752dbb2e72baa5,61036cd533a41143392f15ec,2021-07-29_23h19.35.331,Simcolourproject_2stim_asymm_v5,2020.2.10,MacIntel,60,61025ae37ef11b136ea224fe,,,,,,,,,1621,53.72265625,-98.4765625,1,0,0,response3disk,,4,11.15625,-6.03515625,1,0,0,rectangle,11.15625,-6.03515625,1,0,0,11.15625,-6.03515625,1,0,0,1,81,241,157,1,,,,,,,,
,,,,,,,,,,,,,FF,,,,,,,,7.2694,,,,,,,,,,,,,,,,,,,,,,6101d91477752dbb2e72baa5,61036cd533a41143392f15ec,2021-07-29_23h19.35.331,Simcolourproject_2stim_asymm_v5,2020.2.10,MacIntel,60,61025ae37ef11b136ea224fe,,,,,,,,,1366,-35.2421875,-103.1328125,1,0,0,response5disk,,3,26.84765625,-1.5859375,1,0,0,rectangle,26.84765625,-1.5859375,1,0,0,26.84765625,-1.5859375,1,0,0,1,82,242,9,1,,,,,,,,
,,,,,,,,,,,,,FF,,,,,,,,1.1686,,,,,,,,,,,,,,,,,,,,,,6101d91477752dbb2e72baa5,61036cd533a41143392f15ec,2021-07-29_23h19.35.331,Simcolourproject_2stim_asymm_v5,2020.2.10,MacIntel,60,61025ae37ef11b136ea224fe,,,,,,,,,1202,-76.1171875,33.48828125,1,0,0,response7disk,,1,22.453125,4.03515625,1,0,0,rectangle,22.453125,4.03515625,1,0,0,22.453125,4.03515625,1,0,0,1,83,243,49,1,,,,,,,,
,,,,,,,,,,,,,FF,,,,,,,,0.9306,,,,,,,,,,,,,,,,,,,,,,6101d91477752dbb2e72baa5,61036cd533a41143392f15ec,2021-07-29_23h19.35.331,Simcolourproject_2stim_asymm_v5,2020.2.10,MacIntel,60,61025ae37ef11b136ea224fe,,,,,,,,,3910,-54.11328125,34.65625,1,0,0,response7disk,,1,5.6484375,8.015625,1,0,0,rectangle,5.6484375,8.015625,1,0,0,5.6484375,8.015625,1,0,0,1,84,244,65,1,,,,,,,,
,,,,,,,,,,,,,FF,,,,,,,,1.4536,,,,,,,,,,,,,,,,,,,,,,6101d91477752dbb2e72baa5,61036cd533a41143392f15ec,2021-07-29_23h19.35.331,Simcolourproject_2stim_asymm_v5,2020.2.10,MacIntel,60,61025ae37ef11b136ea224fe,,,,,,,,,4160,43.43359375,-117.2265625,1,0,0,response3disk,,4,16.7578125,2.875,1,0,0,rectangle,16.7578125,2.875,1,0,0,16.7578125,2.875,1,0,0,1,85,245,103,1,,,,,,,,
,,,,,,,,,,,,,FF,,,,,,,,1.8871,,,,,,,,,,,,,,,,,,,,,,6101d91477752dbb2e72baa5,61036cd533a41143392f15ec,2021-07-29_23h19.35.331,Simcolourproject_2stim_asymm_v5,2020.2.10,MacIntel,60,61025ae37ef11b136ea224fe,,,,,,,,,475,103.0546875,-123.5351563,1,0,0,response3disk,,4,5.11328125,-3.578125,1,0,0,rectangle,5.11328125,-3.578125,1,0,0,5.11328125,-3.578125,1,0,0,1,86,246,23,1,,,,,,,,
,,,,,,,,,,,,,FF,,,,,,,,6.1338,,,,,,,,,,,,,,,,,,,,,,6101d91477752dbb2e72baa5,61036cd533a41143392f15ec,2021-07-29_23h19.35.331,Simcolourproject_2stim_asymm_v5,2020.2.10,MacIntel,60,61025ae37ef11b136ea224fe,,,,,,,,,1844,54.08203125,-105.53125,1,0,0,response3disk,,4,1.546875,-3.3203125,1,0,0,rectangle,1.546875,-3.3203125,1,0,0,1.546875,-3.3203125,1,0,0,1,87,247,133,1,,,,,,,,
,,,,,,,,,,,,,FF,,,,,,,,1.2355,,,,,,,,,,,,,,,,,,,,,,6101d91477752dbb2e72baa5,61036cd533a41143392f15ec,2021-07-29_23h19.35.331,Simcolourproject_2stim_asymm_v5,2020.2.10,MacIntel,60,61025ae37ef11b136ea224fe,,,,,,,,,1375,-87.765625,-56.375,1,0,0,response5disk,,2,-12.953125,-12.19140625,1,0,0,rectangle,-12.953125,-12.19140625,1,0,0,-12.953125,-12.19140625,1,0,0,1,88,248,24,1,,,,,,,,
