key_resp.keys,key_resp.rt,key_resp_14.keys,key_resp_14.rt,key_resp_15.keys,key_resp_15.rt,key_resp_17.keys,key_resp_17.rt,key_resp_9.keys,key_resp_9.rt,key_resp_10.keys,key_resp_10.rt,practice_comparison,Ecc,mouse_5.x,mouse_5.y,mouse_5.leftButton,mouse_5.midButton,mouse_5.rightButton,mouse_5.clicked_name,pracsimilarity,response_time,mouse_10.x,mouse_10.y,mouse_10.leftButton,mouse_10.midButton,mouse_10.rightButton,mouse_10.clicked_name,mouse_7.x,mouse_7.y,mouse_7.leftButton,mouse_7.midButton,mouse_7.rightButton,mouse_6.x,mouse_6.y,mouse_6.leftButton,mouse_6.midButton,mouse_6.rightButton,duringprac.thisRepN,duringprac.thisTrialN,duringprac.thisN,duringprac.thisIndex,duringprac.ran,participant,session,date,expName,psychopyVersion,OS,frameRate,study_id,mouse_7.clicked_name,catchpracsimilarity,catch_response_time,catchnumberprac,catchtrialorderprac,mouse_6.clicked_name,key_resp_22.keys,key_resp_22.rt,realcomparison,mouse.x,mouse.y,mouse.leftButton,mouse.midButton,mouse.rightButton,mouse.clicked_name,Colour2,similarity,mouse_2.x,mouse_2.y,mouse_2.leftButton,mouse_2.midButton,mouse_2.rightButton,mouse_2.clicked_name,mouse_3.x,mouse_3.y,mouse_3.leftButton,mouse_3.midButton,mouse_3.rightButton,mouse_11.x,mouse_11.y,mouse_11.leftButton,mouse_11.midButton,mouse_11.rightButton,trials_2.thisRepN,trials_2.thisTrialN,trials_2.thisN,trials_2.thisIndex,trials_2.ran,Colour1,mouse_3.clicked_name,catchornah,catchsimilarity,catchnumber,catchtrialorder,catchRT,mouse_11.clicked_name
space,1.03,space,9.9988,space,16.0719,space,2.1878,space,1.7867,space,2.6669,123,FF,-76,-38,1,0,0,response5disk_5,2,2.8103,5,-1,1,0,0,rectangle_8,5,-1,1,0,0,5,-1,1,0,0,0,0,0,3,1,6101b539b62e9ab88656497d,61036db3606dd7586d939d0b,2021-07-29_23h11.52.036,Simcolourproject_2stim_asymm_v5,2020.2.10,Win32,60,61025ae37ef11b136ea224fe,,,,,,,,,,,,,,,,,,,,,,,,,,,,,,,,,,,,,,,,,,,,,,
,,,,,,,,,,,,153,FF,-51,-68,1,0,0,response5disk_5,3,2.7841,-4,-1,1,0,0,rectangle_8,44,69,1,0,0,19,-2,1,0,0,0,1,1,0,1,6101b539b62e9ab88656497d,61036db3606dd7586d939d0b,2021-07-29_23h11.52.036,Simcolourproject_2stim_asymm_v5,2020.2.10,Win32,60,61025ae37ef11b136ea224fe,response1disk_7,7,2.2013,5,"[2,5]",rectangle_4,,,,,,,,,,,,,,,,,,,,,,,,,,,,,,,,,,,,,,,,
,,,,,,,,,,,,60,PF,52,109,1,0,0,response1disk_5,7,3.8041,-1,7,1,0,0,rectangle_8,-1,7,1,0,0,-1,7,1,0,0,0,2,2,2,1,6101b539b62e9ab88656497d,61036db3606dd7586d939d0b,2021-07-29_23h11.52.036,Simcolourproject_2stim_asymm_v5,2020.2.10,Win32,60,61025ae37ef11b136ea224fe,,,,,,,,,,,,,,,,,,,,,,,,,,,,,,,,,,,,,,,,,,,,,,
,,,,,,,,,,,,132,FF,55,88,1,0,0,response1disk_5,7,1.1349,4,0,1,0,0,rectangle_8,4,0,1,0,0,4,0,1,0,0,0,3,3,5,1,6101b539b62e9ab88656497d,61036db3606dd7586d939d0b,2021-07-29_23h11.52.036,Simcolourproject_2stim_asymm_v5,2020.2.10,Win32,60,61025ae37ef11b136ea224fe,,,,,,,,,,,,,,,,,,,,,,,,,,,,,,,,,,,,,,,,,,,,,,
,,,,,,,,,,,,52,PF,30,65,1,0,0,response1disk_5,7,1.068,1,3,1,0,0,rectangle_8,43,-17,1,0,0,-5,-10,1,0,0,0,4,4,6,1,6101b539b62e9ab88656497d,61036db3606dd7586d939d0b,2021-07-29_23h11.52.036,Simcolourproject_2stim_asymm_v5,2020.2.10,Win32,60,61025ae37ef11b136ea224fe,response3disk_7,5,1.9867,5,"[2,5]",rectangle_4,,,,,,,,,,,,,,,,,,,,,,,,,,,,,,,,,,,,,,,,
,,,,,,,,,,,,80,PF,94,54,1,0,0,response1disk_5,6,1.4669,26,-4,1,0,0,rectangle_8,26,-4,1,0,0,26,-4,1,0,0,0,5,5,4,1,6101b539b62e9ab88656497d,61036db3606dd7586d939d0b,2021-07-29_23h11.52.036,Simcolourproject_2stim_asymm_v5,2020.2.10,Win32,60,61025ae37ef11b136ea224fe,,,,,,,,,,,,,,,,,,,,,,,,,,,,,,,,,,,,,,,,,,,,,,
,,,,,,,,,,,,5,PF,72,-25,1,0,0,response3disk_5,5,2.2189,10,8,1,0,0,rectangle_8,10,8,1,0,0,10,8,1,0,0,0,6,6,1,1,6101b539b62e9ab88656497d,61036db3606dd7586d939d0b,2021-07-29_23h11.52.036,Simcolourproject_2stim_asymm_v5,2020.2.10,Win32,60,61025ae37ef11b136ea224fe,,,,,,,,,,,,,,,,,,,,,,,,,,,,,,,,,,,,,,,,,,,,,,
,,,,,,,,,,,,,FF,,,,,,,,2.4676,,,,,,,,,,,,,,,,,,,,,,6101b539b62e9ab88656497d,61036db3606dd7586d939d0b,2021-07-29_23h11.52.036,Simcolourproject_2stim_asymm_v5,2020.2.10,Win32,60,61025ae37ef11b136ea224fe,,,,,,,space,2.7171,2807,65,84,1,0,0,response1disk,,7,-1,-5,1,0,0,rectangle,-1,-5,1,0,0,-1,-5,1,0,0,0,0,0,104,1,,,,,,,,
,,,,,,,,,,,,,FF,,,,,,,,1.6665,,,,,,,,,,,,,,,,,,,,,,6101b539b62e9ab88656497d,61036db3606dd7586d939d0b,2021-07-29_23h11.52.036,Simcolourproject_2stim_asymm_v5,2020.2.10,Win32,60,61025ae37ef11b136ea224fe,,,,,,,,,1226,-36,-73,1,0,0,response5disk,,3,1,-3,1,0,0,rectangle,1,-3,1,0,0,1,-3,1,0,0,0,1,1,23,1,,,,,,,,
,,,,,,,,,,,,,FF,,,,,,,,1.4322,,,,,,,,,,,,,,,,,,,,,,6101b539b62e9ab88656497d,61036db3606dd7586d939d0b,2021-07-29_23h11.52.036,Simcolourproject_2stim_asymm_v5,2020.2.10,Win32,60,61025ae37ef11b136ea224fe,,,,,,,,,844,28,51,1,0,0,response1disk,,7,3,-3,1,0,0,rectangle,3,-3,1,0,0,3,-3,1,0,0,0,2,2,100,1,,,,,,,,
,,,,,,,,,,,,,FF,,,,,,,,2.3194,,,,,,,,,,,,,,,,,,,,,,6101b539b62e9ab88656497d,61036db3606dd7586d939d0b,2021-07-29_23h11.52.036,Simcolourproject_2stim_asymm_v5,2020.2.10,Win32,60,61025ae37ef11b136ea224fe,,,,,,,,,3234,42,83,1,0,0,response1disk,,7,10,8,1,0,0,rectangle,10,8,1,0,0,10,8,1,0,0,0,3,3,126,1,,,,,,,,
,,,,,,,,,,,,,FF,,,,,,,,1.5158,,,,,,,,,,,,,,,,,,,,,,6101b539b62e9ab88656497d,61036db3606dd7586d939d0b,2021-07-29_23h11.52.036,Simcolourproject_2stim_asymm_v5,2020.2.10,Win32,60,61025ae37ef11b136ea224fe,,,,,,,,,228,29,61,1,0,0,response1disk,,7,27,6,1,0,0,rectangle,27,6,1,0,0,27,6,1,0,0,0,4,4,26,1,,,,,,,,
,,,,,,,,,,,,,FF,,,,,,,,1.9668,,,,,,,,,,,,,,,,,,,,,,6101b539b62e9ab88656497d,61036db3606dd7586d939d0b,2021-07-29_23h11.52.036,Simcolourproject_2stim_asymm_v5,2020.2.10,Win32,60,61025ae37ef11b136ea224fe,,,,,,,,,2161,31,-74,1,0,0,response3disk,,4,1,-4,1,0,0,rectangle,1,-4,1,0,0,1,-4,1,0,0,0,5,5,154,1,,,,,,,,
,,,,,,,,,,,,,FF,,,,,,,,3.4547,,,,,,,,,,,,,,,,,,,,,,6101b539b62e9ab88656497d,61036db3606dd7586d939d0b,2021-07-29_23h11.52.036,Simcolourproject_2stim_asymm_v5,2020.2.10,Win32,60,61025ae37ef11b136ea224fe,,,,,,,,,3776,-40,67,1,0,0,response7disk,,0,5,2,1,0,0,rectangle,5,2,1,0,0,5,2,1,0,0,0,6,6,8,1,,,,,,,,
,,,,,,,,,,,,,FF,,,,,,,,1.4864,,,,,,,,,,,,,,,,,,,,,,6101b539b62e9ab88656497d,61036db3606dd7586d939d0b,2021-07-29_23h11.52.036,Simcolourproject_2stim_asymm_v5,2020.2.10,Win32,60,61025ae37ef11b136ea224fe,,,,,,,,,2513,34,86,1,0,0,response1disk,,7,-4,-4,1,0,0,rectangle,-4,-4,1,0,0,-4,-4,1,0,0,0,7,7,12,1,,,,,,,,
,,,,,,,,,,,,,FF,,,,,,,,3.0557,,,,,,,,,,,,,,,,,,,,,,6101b539b62e9ab88656497d,61036db3606dd7586d939d0b,2021-07-29_23h11.52.036,Simcolourproject_2stim_asymm_v5,2020.2.10,Win32,60,61025ae37ef11b136ea224fe,,,,,,,,,1615,20,-90,1,0,0,response3disk,,4,-8,4,1,0,0,rectangle,-8,4,1,0,0,-8,4,1,0,0,0,8,8,111,1,,,,,,,,
,,,,,,,,,,,,,FF,,,,,,,,4.0503,,,,,,,,,,,,,,,,,,,,,,6101b539b62e9ab88656497d,61036db3606dd7586d939d0b,2021-07-29_23h11.52.036,Simcolourproject_2stim_asymm_v5,2020.2.10,Win32,60,61025ae37ef11b136ea224fe,,,,,,,,,60,60,52,1,0,0,response1disk,,6,16,9,1,0,0,rectangle,16,9,1,0,0,16,9,1,0,0,0,9,9,101,1,,,,,,,,
,,,,,,,,,,,,,FF,,,,,,,,3.1849,,,,,,,,,,,,,,,,,,,,,,6101b539b62e9ab88656497d,61036db3606dd7586d939d0b,2021-07-29_23h11.52.036,Simcolourproject_2stim_asymm_v5,2020.2.10,Win32,60,61025ae37ef11b136ea224fe,,,,,,,,,4182,29,-69,1,0,0,response3disk,,4,-9,12,1,0,0,rectangle,-9,12,1,0,0,-9,12,1,0,0,0,10,10,68,1,,,,,,,,
,,,,,,,,,,,,,FF,,,,,,,,3.6518,,,,,,,,,,,,,,,,,,,,,,6101b539b62e9ab88656497d,61036db3606dd7586d939d0b,2021-07-29_23h11.52.036,Simcolourproject_2stim_asymm_v5,2020.2.10,Win32,60,61025ae37ef11b136ea224fe,,,,,,,,,1543,-36,-99,1,0,0,response5disk,,3,4,6,1,0,0,rectangle,4,6,1,0,0,4,6,1,0,0,0,11,11,37,1,,,,,,,,
,,,,,,,,,,,,,FF,,,,,,,,1.9507,,,,,,,,,,,,,,,,,,,,,,6101b539b62e9ab88656497d,61036db3606dd7586d939d0b,2021-07-29_23h11.52.036,Simcolourproject_2stim_asymm_v5,2020.2.10,Win32,60,61025ae37ef11b136ea224fe,,,,,,,,,1402,40,60,1,0,0,response1disk,,7,13,0,1,0,0,rectangle,13,0,1,0,0,13,0,1,0,0,0,12,12,53,1,,,,,,,,
,,,,,,,,,,,,,FF,,,,,,,,1.4176,,,,,,,,,,,,,,,,,,,,,,6101b539b62e9ab88656497d,61036db3606dd7586d939d0b,2021-07-29_23h11.52.036,Simcolourproject_2stim_asymm_v5,2020.2.10,Win32,60,61025ae37ef11b136ea224fe,,,,,,,,,2908,59,80,1,0,0,response1disk,,7,16,5,1,0,0,rectangle,16,5,1,0,0,16,5,1,0,0,0,13,13,76,1,,,,,,,,
,,,,,,,,,,,,,FF,,,,,,,,1.5044,,,,,,,,,,,,,,,,,,,,,,6101b539b62e9ab88656497d,61036db3606dd7586d939d0b,2021-07-29_23h11.52.036,Simcolourproject_2stim_asymm_v5,2020.2.10,Win32,60,61025ae37ef11b136ea224fe,,,,,,,,,1387,-29,-68,1,0,0,response5disk,,3,2,-6,1,0,0,rectangle,2,-6,1,0,0,2,-6,1,0,0,0,14,14,95,1,,,,,,,,
,,,,,,,,,,,,,FF,,,,,,,,1.1356,,,,,,,,,,,,,,,,,,,,,,6101b539b62e9ab88656497d,61036db3606dd7586d939d0b,2021-07-29_23h11.52.036,Simcolourproject_2stim_asymm_v5,2020.2.10,Win32,60,61025ae37ef11b136ea224fe,,,,,,,,,2123,28,63,1,0,0,response1disk,,7,-2,6,1,0,0,rectangle,-2,6,1,0,0,-2,6,1,0,0,0,15,15,124,1,,,,,,,,
,,,,,,,,,,,,,FF,,,,,,,,1.8018,,,,,,,,,,,,,,,,,,,,,,6101b539b62e9ab88656497d,61036db3606dd7586d939d0b,2021-07-29_23h11.52.036,Simcolourproject_2stim_asymm_v5,2020.2.10,Win32,60,61025ae37ef11b136ea224fe,,,,,,,,,2111,83,-53,1,0,0,response3disk,,5,8,5,1,0,0,rectangle,8,5,1,0,0,8,5,1,0,0,0,16,16,61,1,,,,,,,,
,,,,,,,,,,,,,FF,,,,,,,,4.0017,,,,,,,,,,,,,,,,,,,,,,6101b539b62e9ab88656497d,61036db3606dd7586d939d0b,2021-07-29_23h11.52.036,Simcolourproject_2stim_asymm_v5,2020.2.10,Win32,60,61025ae37ef11b136ea224fe,,,,,,,,,3786,67,-45,1,0,0,response3disk,,5,13,14,1,0,0,rectangle,13,14,1,0,0,13,14,1,0,0,0,17,17,139,1,,,,,,,,
,,,,,,,,,,,,,FF,,,,,,,,1.5672,,,,,,,,,,,,,,,,,,,,,,6101b539b62e9ab88656497d,61036db3606dd7586d939d0b,2021-07-29_23h11.52.036,Simcolourproject_2stim_asymm_v5,2020.2.10,Win32,60,61025ae37ef11b136ea224fe,,,,,,,,,95,-30,-60,1,0,0,response5disk,,3,4,4,1,0,0,rectangle,4,4,1,0,0,4,4,1,0,0,0,18,18,80,1,,,,,,,,
,,,,,,,,,,,,,FF,,,,,,,,1.9197,,,,,,,,,,,,,,,,,,,,,,6101b539b62e9ab88656497d,61036db3606dd7586d939d0b,2021-07-29_23h11.52.036,Simcolourproject_2stim_asymm_v5,2020.2.10,Win32,60,61025ae37ef11b136ea224fe,,,,,,,,,2231,37,-91,1,0,0,response3disk,,4,6,-11,1,0,0,rectangle,6,-11,1,0,0,6,-11,1,0,0,0,19,19,42,1,,,,,,,,
,,,,,,,,,,,,,FF,,,,,,,,1.0467,,,,,,,,,,,,,,,,,,,,,,6101b539b62e9ab88656497d,61036db3606dd7586d939d0b,2021-07-29_23h11.52.036,Simcolourproject_2stim_asymm_v5,2020.2.10,Win32,60,61025ae37ef11b136ea224fe,,,,,,,,,383,41,75,1,0,0,response1disk,,7,7,-1,1,0,0,rectangle,32,63,1,0,0,12,-3,1,0,0,0,20,20,142,1,,response1disk_3,TRUE,7,7,"[114,266,34,104,21,43,201,187,22,33,149,116,133,84,285,225,251,53,226,241]",2.9684,rectangle
,,,,,,,,,,,,,FF,,,,,,,,1.7342,,,,,,,,,,,,,,,,,,,,,,6101b539b62e9ab88656497d,61036db3606dd7586d939d0b,2021-07-29_23h11.52.036,Simcolourproject_2stim_asymm_v5,2020.2.10,Win32,60,61025ae37ef11b136ea224fe,,,,,,,,,1516,39,84,1,0,0,response1disk,,7,6,8,1,0,0,rectangle,-119,-22,1,0,0,-26,2,1,0,0,0,21,21,78,1,,response5disk_3,TRUE,2,2,"[114,266,34,104,21,43,201,187,22,33,149,116,133,84,285,225,251,53,226,241]",2.1855,rectangle
,,,,,,,,,,,,,FF,,,,,,,,1.0483,,,,,,,,,,,,,,,,,,,,,,6101b539b62e9ab88656497d,61036db3606dd7586d939d0b,2021-07-29_23h11.52.036,Simcolourproject_2stim_asymm_v5,2020.2.10,Win32,60,61025ae37ef11b136ea224fe,,,,,,,,,2833,-28,-66,1,0,0,response5disk,,3,-11,4,1,0,0,rectangle,-11,4,1,0,0,-11,4,1,0,0,0,22,22,144,1,,,,,,,,
,,,,,,,,,,,,,FF,,,,,,,,2.4504,,,,,,,,,,,,,,,,,,,,,,6101b539b62e9ab88656497d,61036db3606dd7586d939d0b,2021-07-29_23h11.52.036,Simcolourproject_2stim_asymm_v5,2020.2.10,Win32,60,61025ae37ef11b136ea224fe,,,,,,,,,2916,76,63,1,0,0,response1disk,,6,12,3,1,0,0,rectangle,12,3,1,0,0,12,3,1,0,0,0,23,23,32,1,,,,,,,,
,,,,,,,,,,,,,FF,,,,,,,,0.9689,,,,,,,,,,,,,,,,,,,,,,6101b539b62e9ab88656497d,61036db3606dd7586d939d0b,2021-07-29_23h11.52.036,Simcolourproject_2stim_asymm_v5,2020.2.10,Win32,60,61025ae37ef11b136ea224fe,,,,,,,,,235,47,74,1,0,0,response1disk,,7,5,4,1,0,0,rectangle,5,4,1,0,0,5,4,1,0,0,0,24,24,123,1,,,,,,,,
,,,,,,,,,,,,,FF,,,,,,,,2.6854,,,,,,,,,,,,,,,,,,,,,,6101b539b62e9ab88656497d,61036db3606dd7586d939d0b,2021-07-29_23h11.52.036,Simcolourproject_2stim_asymm_v5,2020.2.10,Win32,60,61025ae37ef11b136ea224fe,,,,,,,,,287,96,34,1,0,0,response1disk,,6,19,-3,1,0,0,rectangle,19,-3,1,0,0,19,-3,1,0,0,0,25,25,13,1,,,,,,,,
,,,,,,,,,,,,,FF,,,,,,,,1.4837,,,,,,,,,,,,,,,,,,,,,,6101b539b62e9ab88656497d,61036db3606dd7586d939d0b,2021-07-29_23h11.52.036,Simcolourproject_2stim_asymm_v5,2020.2.10,Win32,60,61025ae37ef11b136ea224fe,,,,,,,,,1522,39,-80,1,0,0,response3disk,,4,-9,2,1,0,0,rectangle,-9,2,1,0,0,-9,2,1,0,0,0,26,26,11,1,,,,,,,,
,,,,,,,,,,,,,FF,,,,,,,,0.9341,,,,,,,,,,,,,,,,,,,,,,6101b539b62e9ab88656497d,61036db3606dd7586d939d0b,2021-07-29_23h11.52.036,Simcolourproject_2stim_asymm_v5,2020.2.10,Win32,60,61025ae37ef11b136ea224fe,,,,,,,,,1324,47,91,1,0,0,response1disk,,7,3,1,1,0,0,rectangle,3,1,1,0,0,3,1,1,0,0,0,27,27,15,1,,,,,,,,
,,,,,,,,,,,,,FF,,,,,,,,1.3493,,,,,,,,,,,,,,,,,,,,,,6101b539b62e9ab88656497d,61036db3606dd7586d939d0b,2021-07-29_23h11.52.036,Simcolourproject_2stim_asymm_v5,2020.2.10,Win32,60,61025ae37ef11b136ea224fe,,,,,,,,,2719,-51,29,1,0,0,response7disk,,1,-12,7,1,0,0,rectangle,-12,7,1,0,0,-12,7,1,0,0,0,28,28,16,1,,,,,,,,
,,,,,,,,,,,,,FF,,,,,,,,1.9696,,,,,,,,,,,,,,,,,,,,,,6101b539b62e9ab88656497d,61036db3606dd7586d939d0b,2021-07-29_23h11.52.036,Simcolourproject_2stim_asymm_v5,2020.2.10,Win32,60,61025ae37ef11b136ea224fe,,,,,,,,,809,74,-59,1,0,0,response3disk,,5,6,-3,1,0,0,rectangle,6,-3,1,0,0,6,-3,1,0,0,0,29,29,3,1,,,,,,,,
,,,,,,,,,,,,,FF,,,,,,,,0.9408,,,,,,,,,,,,,,,,,,,,,,6101b539b62e9ab88656497d,61036db3606dd7586d939d0b,2021-07-29_23h11.52.036,Simcolourproject_2stim_asymm_v5,2020.2.10,Win32,60,61025ae37ef11b136ea224fe,,,,,,,,,321,27,75,1,0,0,response1disk,,7,-2,8,1,0,0,rectangle,-2,8,1,0,0,-2,8,1,0,0,0,30,30,62,1,,,,,,,,
,,,,,,,,,,,,,FF,,,,,,,,0.8994,,,,,,,,,,,,,,,,,,,,,,6101b539b62e9ab88656497d,61036db3606dd7586d939d0b,2021-07-29_23h11.52.036,Simcolourproject_2stim_asymm_v5,2020.2.10,Win32,60,61025ae37ef11b136ea224fe,,,,,,,,,3869,78,41,1,0,0,response1disk,,6,14,-2,1,0,0,rectangle,14,-2,1,0,0,14,-2,1,0,0,0,31,31,156,1,,,,,,,,
,,,,,,,,,,,,,FF,,,,,,,,1.0168,,,,,,,,,,,,,,,,,,,,,,6101b539b62e9ab88656497d,61036db3606dd7586d939d0b,2021-07-29_23h11.52.036,Simcolourproject_2stim_asymm_v5,2020.2.10,Win32,60,61025ae37ef11b136ea224fe,,,,,,,,,77,-61,38,1,0,0,response7disk,,1,-9,5,1,0,0,rectangle,-81,-41,1,0,0,-3,0,1,0,0,0,32,32,70,1,,response5disk_3,TRUE,2,2,"[114,266,34,104,21,43,201,187,22,33,149,116,133,84,285,225,251,53,226,241]",2.4518,rectangle
,,,,,,,,,,,,,FF,,,,,,,,1.0166,,,,,,,,,,,,,,,,,,,,,,6101b539b62e9ab88656497d,61036db3606dd7586d939d0b,2021-07-29_23h11.52.036,Simcolourproject_2stim_asymm_v5,2020.2.10,Win32,60,61025ae37ef11b136ea224fe,,,,,,,,,2819,81,41,1,0,0,response1disk,,6,5,3,1,0,0,rectangle,-60,31,1,0,0,-17,-1,1,0,0,0,33,33,36,1,,response7disk_3,TRUE,1,1,"[114,266,34,104,21,43,201,187,22,33,149,116,133,84,285,225,251,53,226,241]",1.4848,rectangle
,,,,,,,,,,,,,FF,,,,,,,,1.7829,,,,,,,,,,,,,,,,,,,,,,6101b539b62e9ab88656497d,61036db3606dd7586d939d0b,2021-07-29_23h11.52.036,Simcolourproject_2stim_asymm_v5,2020.2.10,Win32,60,61025ae37ef11b136ea224fe,,,,,,,,,2670,104,-47,1,0,0,response3disk,,5,-12,7,1,0,0,rectangle,-12,7,1,0,0,-12,7,1,0,0,0,34,34,79,1,,,,,,,,
,,,,,,,,,,,,,FF,,,,,,,,1.4673,,,,,,,,,,,,,,,,,,,,,,6101b539b62e9ab88656497d,61036db3606dd7586d939d0b,2021-07-29_23h11.52.036,Simcolourproject_2stim_asymm_v5,2020.2.10,Win32,60,61025ae37ef11b136ea224fe,,,,,,,,,4239,33,-100,1,0,0,response3disk,,4,-10,-1,1,0,0,rectangle,-10,-1,1,0,0,-10,-1,1,0,0,0,35,35,92,1,,,,,,,,
,,,,,,,,,,,,,FF,,,,,,,,0.9997,,,,,,,,,,,,,,,,,,,,,,6101b539b62e9ab88656497d,61036db3606dd7586d939d0b,2021-07-29_23h11.52.036,Simcolourproject_2stim_asymm_v5,2020.2.10,Win32,60,61025ae37ef11b136ea224fe,,,,,,,,,3940,34,-48,1,0,0,response3disk,,4,9,6,1,0,0,rectangle,9,6,1,0,0,9,6,1,0,0,0,36,36,128,1,,,,,,,,
,,,,,,,,,,,,,FF,,,,,,,,1.4666,,,,,,,,,,,,,,,,,,,,,,6101b539b62e9ab88656497d,61036db3606dd7586d939d0b,2021-07-29_23h11.52.036,Simcolourproject_2stim_asymm_v5,2020.2.10,Win32,60,61025ae37ef11b136ea224fe,,,,,,,,,3495,63,57,1,0,0,response1disk,,6,-6,0,1,0,0,rectangle,-6,0,1,0,0,-6,0,1,0,0,0,37,37,66,1,,,,,,,,
,,,,,,,,,,,,,FF,,,,,,,,1.0503,,,,,,,,,,,,,,,,,,,,,,6101b539b62e9ab88656497d,61036db3606dd7586d939d0b,2021-07-29_23h11.52.036,Simcolourproject_2stim_asymm_v5,2020.2.10,Win32,60,61025ae37ef11b136ea224fe,,,,,,,,,4109,45,82,1,0,0,response1disk,,7,-9,9,1,0,0,rectangle,-9,9,1,0,0,-9,9,1,0,0,0,38,38,125,1,,,,,,,,
,,,,,,,,,,,,,FF,,,,,,,,0.9497,,,,,,,,,,,,,,,,,,,,,,6101b539b62e9ab88656497d,61036db3606dd7586d939d0b,2021-07-29_23h11.52.036,Simcolourproject_2stim_asymm_v5,2020.2.10,Win32,60,61025ae37ef11b136ea224fe,,,,,,,,,1549,55,31,1,0,0,response1disk,,6,8,5,1,0,0,rectangle,8,5,1,0,0,8,5,1,0,0,0,39,39,52,1,,,,,,,,
,,,,,,,,,,,,,FF,,,,,,,,1.9831,,,,,,,,,,,,,,,,,,,,,,6101b539b62e9ab88656497d,61036db3606dd7586d939d0b,2021-07-29_23h11.52.036,Simcolourproject_2stim_asymm_v5,2020.2.10,Win32,60,61025ae37ef11b136ea224fe,,,,,,,,,3819,107,-35,1,0,0,response3disk,,5,8,-1,1,0,0,rectangle,8,-1,1,0,0,8,-1,1,0,0,0,40,40,89,1,,,,,,,,
,,,,,,,,,,,,,FF,,,,,,,,1.0326,,,,,,,,,,,,,,,,,,,,,,6101b539b62e9ab88656497d,61036db3606dd7586d939d0b,2021-07-29_23h11.52.036,Simcolourproject_2stim_asymm_v5,2020.2.10,Win32,60,61025ae37ef11b136ea224fe,,,,,,,,,493,29,67,1,0,0,response1disk,,7,-6,9,1,0,0,rectangle,-6,9,1,0,0,-6,9,1,0,0,0,41,41,113,1,,,,,,,,
,,,,,,,,,,,,,FF,,,,,,,,3.9166,,,,,,,,,,,,,,,,,,,,,,6101b539b62e9ab88656497d,61036db3606dd7586d939d0b,2021-07-29_23h11.52.036,Simcolourproject_2stim_asymm_v5,2020.2.10,Win32,60,61025ae37ef11b136ea224fe,,,,,,,,,1315,42,42,1,0,0,response1disk,,7,2,-5,1,0,0,rectangle,-63,23,1,0,0,-5,-8,1,0,0,0,42,42,82,1,,response7disk_3,TRUE,1,1,"[114,266,34,104,21,43,201,187,22,33,149,116,133,84,285,225,251,53,226,241]",1.5483,rectangle
,,,,,,,,,,,,,FF,,,,,,,,1.0379,,,,,,,,,,,,,,,,,,,,,,6101b539b62e9ab88656497d,61036db3606dd7586d939d0b,2021-07-29_23h11.52.036,Simcolourproject_2stim_asymm_v5,2020.2.10,Win32,60,61025ae37ef11b136ea224fe,,,,,,,,,3023,40,74,1,0,0,response1disk,,7,5,9,1,0,0,rectangle,5,9,1,0,0,5,9,1,0,0,0,43,43,99,1,,,,,,,,
,,,,,,,,,,,,,FF,,,,,,,,0.9525,,,,,,,,,,,,,,,,,,,,,,6101b539b62e9ab88656497d,61036db3606dd7586d939d0b,2021-07-29_23h11.52.036,Simcolourproject_2stim_asymm_v5,2020.2.10,Win32,60,61025ae37ef11b136ea224fe,,,,,,,,,1199,55,34,1,0,0,response1disk,,6,12,2,1,0,0,rectangle,12,2,1,0,0,12,2,1,0,0,0,44,44,34,1,,,,,,,,
,,,,,,,,,,,,,FF,,,,,,,,3.9178,,,,,,,,,,,,,,,,,,,,,,6101b539b62e9ab88656497d,61036db3606dd7586d939d0b,2021-07-29_23h11.52.036,Simcolourproject_2stim_asymm_v5,2020.2.10,Win32,60,61025ae37ef11b136ea224fe,,,,,,,,,64,81,38,1,0,0,response1disk,,6,9,7,1,0,0,rectangle,9,7,1,0,0,9,7,1,0,0,0,45,45,81,1,,,,,,,,
,,,,,,,,,,,,,FF,,,,,,,,1.1337,,,,,,,,,,,,,,,,,,,,,,6101b539b62e9ab88656497d,61036db3606dd7586d939d0b,2021-07-29_23h11.52.036,Simcolourproject_2stim_asymm_v5,2020.2.10,Win32,60,61025ae37ef11b136ea224fe,,,,,,,,,2298,-66,-44,1,0,0,response5disk,,2,-12,-8,1,0,0,rectangle,-12,-8,1,0,0,-12,-8,1,0,0,0,46,46,138,1,,,,,,,,
,,,,,,,,,,,,,FF,,,,,,,,1.2836,,,,,,,,,,,,,,,,,,,,,,6101b539b62e9ab88656497d,61036db3606dd7586d939d0b,2021-07-29_23h11.52.036,Simcolourproject_2stim_asymm_v5,2020.2.10,Win32,60,61025ae37ef11b136ea224fe,,,,,,,,,2173,-24,-97,1,0,0,response5disk,,3,5,-1,1,0,0,rectangle,5,-1,1,0,0,5,-1,1,0,0,0,47,47,48,1,,,,,,,,
,,,,,,,,,,,,,FF,,,,,,,,1.1826,,,,,,,,,,,,,,,,,,,,,,6101b539b62e9ab88656497d,61036db3606dd7586d939d0b,2021-07-29_23h11.52.036,Simcolourproject_2stim_asymm_v5,2020.2.10,Win32,60,61025ae37ef11b136ea224fe,,,,,,,,,2702,32,67,1,0,0,response1disk,,7,-12,3,1,0,0,rectangle,-12,3,1,0,0,-12,3,1,0,0,0,48,48,145,1,,,,,,,,
,,,,,,,,,,,,,FF,,,,,,,,0.6996,,,,,,,,,,,,,,,,,,,,,,6101b539b62e9ab88656497d,61036db3606dd7586d939d0b,2021-07-29_23h11.52.036,Simcolourproject_2stim_asymm_v5,2020.2.10,Win32,60,61025ae37ef11b136ea224fe,,,,,,,,,3314,37,118,1,0,0,response1disk,,7,-2,8,1,0,0,rectangle,-2,8,1,0,0,-2,8,1,0,0,0,49,49,105,1,,,,,,,,
,,,,,,,,,,,,,FF,,,,,,,,0.8552,,,,,,,,,,,,,,,,,,,,,,6101b539b62e9ab88656497d,61036db3606dd7586d939d0b,2021-07-29_23h11.52.036,Simcolourproject_2stim_asymm_v5,2020.2.10,Win32,60,61025ae37ef11b136ea224fe,,,,,,,,,1980,32,63,1,0,0,response1disk,,7,-11,-5,1,0,0,rectangle,-11,-5,1,0,0,-11,-5,1,0,0,0,50,50,63,1,,,,,,,,
,,,,,,,,,,,,,FF,,,,,,,,1.1176,,,,,,,,,,,,,,,,,,,,,,6101b539b62e9ab88656497d,61036db3606dd7586d939d0b,2021-07-29_23h11.52.036,Simcolourproject_2stim_asymm_v5,2020.2.10,Win32,60,61025ae37ef11b136ea224fe,,,,,,,,,2351,67,51,1,0,0,response1disk,,6,11,1,1,0,0,rectangle,11,1,1,0,0,11,1,1,0,0,0,51,51,49,1,,,,,,,,
,,,,,,,,,,,,,FF,,,,,,,,1.517,,,,,,,,,,,,,,,,,,,,,,6101b539b62e9ab88656497d,61036db3606dd7586d939d0b,2021-07-29_23h11.52.036,Simcolourproject_2stim_asymm_v5,2020.2.10,Win32,60,61025ae37ef11b136ea224fe,,,,,,,,,4048,64,-26,1,0,0,response3disk,,5,-8,-4,1,0,0,rectangle,-65,29,1,0,0,-10,8,1,0,0,0,52,52,103,1,,response7disk_3,TRUE,1,1,"[114,266,34,104,21,43,201,187,22,33,149,116,133,84,285,225,251,53,226,241]",1.9505,rectangle
,,,,,,,,,,,,,FF,,,,,,,,1.2171,,,,,,,,,,,,,,,,,,,,,,6101b539b62e9ab88656497d,61036db3606dd7586d939d0b,2021-07-29_23h11.52.036,Simcolourproject_2stim_asymm_v5,2020.2.10,Win32,60,61025ae37ef11b136ea224fe,,,,,,,,,3980,85,-19,1,0,0,response3disk,,5,6,1,1,0,0,rectangle,6,1,1,0,0,6,1,1,0,0,0,53,53,20,1,,,,,,,,
,,,,,,,,,,,,,FF,,,,,,,,1.7335,,,,,,,,,,,,,,,,,,,,,,6101b539b62e9ab88656497d,61036db3606dd7586d939d0b,2021-07-29_23h11.52.036,Simcolourproject_2stim_asymm_v5,2020.2.10,Win32,60,61025ae37ef11b136ea224fe,,,,,,,,,320,32,81,1,0,0,response1disk,,7,-13,-1,1,0,0,rectangle,-13,-1,1,0,0,-13,-1,1,0,0,0,54,54,57,1,,,,,,,,
,,,,,,,,,,,,,FF,,,,,,,,1.1344,,,,,,,,,,,,,,,,,,,,,,6101b539b62e9ab88656497d,61036db3606dd7586d939d0b,2021-07-29_23h11.52.036,Simcolourproject_2stim_asymm_v5,2020.2.10,Win32,60,61025ae37ef11b136ea224fe,,,,,,,,,1235,38,-60,1,0,0,response3disk,,4,4,-2,1,0,0,rectangle,4,-2,1,0,0,4,-2,1,0,0,0,55,55,90,1,,,,,,,,
,,,,,,,,,,,,,FF,,,,,,,,0.8343,,,,,,,,,,,,,,,,,,,,,,6101b539b62e9ab88656497d,61036db3606dd7586d939d0b,2021-07-29_23h11.52.036,Simcolourproject_2stim_asymm_v5,2020.2.10,Win32,60,61025ae37ef11b136ea224fe,,,,,,,,,2978,47,79,1,0,0,response1disk,,7,5,4,1,0,0,rectangle,5,4,1,0,0,5,4,1,0,0,0,56,56,127,1,,,,,,,,
,,,,,,,,,,,,,FF,,,,,,,,1.0338,,,,,,,,,,,,,,,,,,,,,,6101b539b62e9ab88656497d,61036db3606dd7586d939d0b,2021-07-29_23h11.52.036,Simcolourproject_2stim_asymm_v5,2020.2.10,Win32,60,61025ae37ef11b136ea224fe,,,,,,,,,3595,64,-43,1,0,0,response3disk,,5,4,-2,1,0,0,rectangle,4,-2,1,0,0,4,-2,1,0,0,0,57,57,122,1,,,,,,,,
,,,,,,,,,,,,,FF,,,,,,,,1.0001,,,,,,,,,,,,,,,,,,,,,,6101b539b62e9ab88656497d,61036db3606dd7586d939d0b,2021-07-29_23h11.52.036,Simcolourproject_2stim_asymm_v5,2020.2.10,Win32,60,61025ae37ef11b136ea224fe,,,,,,,,,1227,-38,-75,1,0,0,response5disk,,3,-5,-9,1,0,0,rectangle,-5,-9,1,0,0,-5,-9,1,0,0,0,58,58,77,1,,,,,,,,
,,,,,,,,,,,,,FF,,,,,,,,0.9996,,,,,,,,,,,,,,,,,,,,,,6101b539b62e9ab88656497d,61036db3606dd7586d939d0b,2021-07-29_23h11.52.036,Simcolourproject_2stim_asymm_v5,2020.2.10,Win32,60,61025ae37ef11b136ea224fe,,,,,,,,,4338,47,72,1,0,0,response1disk,,7,-9,7,1,0,0,rectangle,-9,7,1,0,0,-9,7,1,0,0,0,59,59,133,1,,,,,,,,
,,,,,,,,,,,,,FF,,,,,,,,0.8337,,,,,,,,,,,,,,,,,,,,,,6101b539b62e9ab88656497d,61036db3606dd7586d939d0b,2021-07-29_23h11.52.036,Simcolourproject_2stim_asymm_v5,2020.2.10,Win32,60,61025ae37ef11b136ea224fe,,,,,,,,,934,48,100,1,0,0,response1disk,,7,-2,2,1,0,0,rectangle,-2,2,1,0,0,-2,2,1,0,0,0,60,60,107,1,,,,,,,,
,,,,,,,,,,,,,FF,,,,,,,,0.8171,,,,,,,,,,,,,,,,,,,,,,6101b539b62e9ab88656497d,61036db3606dd7586d939d0b,2021-07-29_23h11.52.036,Simcolourproject_2stim_asymm_v5,2020.2.10,Win32,60,61025ae37ef11b136ea224fe,,,,,,,,,537,35,71,1,0,0,response1disk,,7,0,0,1,0,0,rectangle,0,0,1,0,0,0,0,1,0,0,0,61,61,55,1,,,,,,,,
,,,,,,,,,,,,,FF,,,,,,,,0.8332,,,,,,,,,,,,,,,,,,,,,,6101b539b62e9ab88656497d,61036db3606dd7586d939d0b,2021-07-29_23h11.52.036,Simcolourproject_2stim_asymm_v5,2020.2.10,Win32,60,61025ae37ef11b136ea224fe,,,,,,,,,977,39,20,1,0,0,response1disk,,6,-6,-10,1,0,0,rectangle,-6,-10,1,0,0,-6,-10,1,0,0,0,62,62,0,1,,,,,,,,
,,,,,,,,,,,,,FF,,,,,,,,1.4178,,,,,,,,,,,,,,,,,,,,,,6101b539b62e9ab88656497d,61036db3606dd7586d939d0b,2021-07-29_23h11.52.036,Simcolourproject_2stim_asymm_v5,2020.2.10,Win32,60,61025ae37ef11b136ea224fe,,,,,,,,,2233,-64,-51,1,0,0,response5disk,,2,-4,7,1,0,0,rectangle,-4,7,1,0,0,-4,7,1,0,0,0,63,63,58,1,,,,,,,,
,,,,,,,,,,,,,FF,,,,,,,,0.7504,,,,,,,,,,,,,,,,,,,,,,6101b539b62e9ab88656497d,61036db3606dd7586d939d0b,2021-07-29_23h11.52.036,Simcolourproject_2stim_asymm_v5,2020.2.10,Win32,60,61025ae37ef11b136ea224fe,,,,,,,,,950,29,69,1,0,0,response1disk,,7,-8,2,1,0,0,rectangle,-8,2,1,0,0,-8,2,1,0,0,0,64,64,108,1,,,,,,,,
,,,,,,,,,,,,,FF,,,,,,,,0.6847,,,,,,,,,,,,,,,,,,,,,,6101b539b62e9ab88656497d,61036db3606dd7586d939d0b,2021-07-29_23h11.52.036,Simcolourproject_2stim_asymm_v5,2020.2.10,Win32,60,61025ae37ef11b136ea224fe,,,,,,,,,3863,25,60,1,0,0,response1disk,,7,8,8,1,0,0,rectangle,8,8,1,0,0,8,8,1,0,0,0,65,65,148,1,,,,,,,,
,,,,,,,,,,,,,FF,,,,,,,,0.9535,,,,,,,,,,,,,,,,,,,,,,6101b539b62e9ab88656497d,61036db3606dd7586d939d0b,2021-07-29_23h11.52.036,Simcolourproject_2stim_asymm_v5,2020.2.10,Win32,60,61025ae37ef11b136ea224fe,,,,,,,,,2728,50,23,1,0,0,response1disk,,6,2,-3,1,0,0,rectangle,2,-3,1,0,0,2,-3,1,0,0,0,66,66,135,1,,,,,,,,
,,,,,,,,,,,,,FF,,,,,,,,0.8674,,,,,,,,,,,,,,,,,,,,,,6101b539b62e9ab88656497d,61036db3606dd7586d939d0b,2021-07-29_23h11.52.036,Simcolourproject_2stim_asymm_v5,2020.2.10,Win32,60,61025ae37ef11b136ea224fe,,,,,,,,,4214,31,49,1,0,0,response1disk,,7,-5,-12,1,0,0,rectangle,-5,-12,1,0,0,-5,-12,1,0,0,0,67,67,46,1,,,,,,,,
,,,,,,,,,,,,,FF,,,,,,,,0.8342,,,,,,,,,,,,,,,,,,,,,,6101b539b62e9ab88656497d,61036db3606dd7586d939d0b,2021-07-29_23h11.52.036,Simcolourproject_2stim_asymm_v5,2020.2.10,Win32,60,61025ae37ef11b136ea224fe,,,,,,,,,1933,43,73,1,0,0,response1disk,,7,3,4,1,0,0,rectangle,3,4,1,0,0,3,4,1,0,0,0,68,68,118,1,,,,,,,,
,,,,,,,,,,,,,FF,,,,,,,,0.8997,,,,,,,,,,,,,,,,,,,,,,6101b539b62e9ab88656497d,61036db3606dd7586d939d0b,2021-07-29_23h11.52.036,Simcolourproject_2stim_asymm_v5,2020.2.10,Win32,60,61025ae37ef11b136ea224fe,,,,,,,,,689,26,56,1,0,0,response1disk,,7,-17,-9,1,0,0,rectangle,-17,-9,1,0,0,-17,-9,1,0,0,0,69,69,151,1,,,,,,,,
,,,,,,,,,,,,,FF,,,,,,,,1.1331,,,,,,,,,,,,,,,,,,,,,,6101b539b62e9ab88656497d,61036db3606dd7586d939d0b,2021-07-29_23h11.52.036,Simcolourproject_2stim_asymm_v5,2020.2.10,Win32,60,61025ae37ef11b136ea224fe,,,,,,,,,2214,27,53,1,0,0,response1disk,,7,-8,7,1,0,0,rectangle,-8,7,1,0,0,-8,7,1,0,0,0,70,70,50,1,,,,,,,,
,,,,,,,,,,,,,FF,,,,,,,,1.2671,,,,,,,,,,,,,,,,,,,,,,6101b539b62e9ab88656497d,61036db3606dd7586d939d0b,2021-07-29_23h11.52.036,Simcolourproject_2stim_asymm_v5,2020.2.10,Win32,60,61025ae37ef11b136ea224fe,,,,,,,,,1575,32,17,1,0,0,response1disk,,6,12,-7,1,0,0,rectangle,12,-7,1,0,0,12,-7,1,0,0,0,71,71,22,1,,,,,,,,
,,,,,,,,,,,,,FF,,,,,,,,0.7514,,,,,,,,,,,,,,,,,,,,,,6101b539b62e9ab88656497d,61036db3606dd7586d939d0b,2021-07-29_23h11.52.036,Simcolourproject_2stim_asymm_v5,2020.2.10,Win32,60,61025ae37ef11b136ea224fe,,,,,,,,,1350,29,38,1,0,0,response1disk,,7,5,-10,1,0,0,rectangle,5,-10,1,0,0,5,-10,1,0,0,0,72,72,24,1,,,,,,,,
,,,,,,,,,,,,,FF,,,,,,,,1.1834,,,,,,,,,,,,,,,,,,,,,,6101b539b62e9ab88656497d,61036db3606dd7586d939d0b,2021-07-29_23h11.52.036,Simcolourproject_2stim_asymm_v5,2020.2.10,Win32,60,61025ae37ef11b136ea224fe,,,,,,,,,670,35,57,1,0,0,response1disk,,7,6,7,1,0,0,rectangle,6,7,1,0,0,6,7,1,0,0,0,73,73,43,1,,,,,,,,
,,,,,,,,,,,,,FF,,,,,,,,0.6842,,,,,,,,,,,,,,,,,,,,,,6101b539b62e9ab88656497d,61036db3606dd7586d939d0b,2021-07-29_23h11.52.036,Simcolourproject_2stim_asymm_v5,2020.2.10,Win32,60,61025ae37ef11b136ea224fe,,,,,,,,,1863,41,80,1,0,0,response1disk,,7,2,10,1,0,0,rectangle,2,10,1,0,0,2,10,1,0,0,0,74,74,157,1,,,,,,,,
,,,,,,,,,,,,,FF,,,,,,,,0.8168,,,,,,,,,,,,,,,,,,,,,,6101b539b62e9ab88656497d,61036db3606dd7586d939d0b,2021-07-29_23h11.52.036,Simcolourproject_2stim_asymm_v5,2020.2.10,Win32,60,61025ae37ef11b136ea224fe,,,,,,,,,4094,39,74,1,0,0,response1disk,,7,0,2,1,0,0,rectangle,0,2,1,0,0,0,2,1,0,0,0,75,75,41,1,,,,,,,,
,,,,,,,,,,,,,FF,,,,,,,,1.6835,,,,,,,,,,,,,,,,,,,,,,6101b539b62e9ab88656497d,61036db3606dd7586d939d0b,2021-07-29_23h11.52.036,Simcolourproject_2stim_asymm_v5,2020.2.10,Win32,60,61025ae37ef11b136ea224fe,,,,,,,,,1062,72,17,1,0,0,response1disk,,6,21,-2,1,0,0,rectangle,21,-2,1,0,0,21,-2,1,0,0,0,76,76,1,1,,,,,,,,
,,,,,,,,,,,,,FF,,,,,,,,0.7665,,,,,,,,,,,,,,,,,,,,,,6101b539b62e9ab88656497d,61036db3606dd7586d939d0b,2021-07-29_23h11.52.036,Simcolourproject_2stim_asymm_v5,2020.2.10,Win32,60,61025ae37ef11b136ea224fe,,,,,,,,,580,36,60,1,0,0,response1disk,,7,8,6,1,0,0,rectangle,8,6,1,0,0,8,6,1,0,0,0,77,77,6,1,,,,,,,,
,,,,,,,,,,,,,FF,,,,,,,,0.5502,,,,,,,,,,,,,,,,,,,,,,6101b539b62e9ab88656497d,61036db3606dd7586d939d0b,2021-07-29_23h11.52.036,Simcolourproject_2stim_asymm_v5,2020.2.10,Win32,60,61025ae37ef11b136ea224fe,,,,,,,,,1348,36,59,1,0,0,response1disk,,7,8,4,1,0,0,rectangle,8,4,1,0,0,8,4,1,0,0,0,78,78,149,1,,,,,,,,
,,,,,,,,,,,,,FF,,,,,,,,0.952,,,,,,,,,,,,,,,,,,,,,,6101b539b62e9ab88656497d,61036db3606dd7586d939d0b,2021-07-29_23h11.52.036,Simcolourproject_2stim_asymm_v5,2020.2.10,Win32,60,61025ae37ef11b136ea224fe,,,,,,,,,2871,35,67,1,0,0,response1disk,,7,-15,-3,1,0,0,rectangle,-15,-3,1,0,0,-15,-3,1,0,0,0,79,79,73,1,,,,,,,,
,,,,,,,,,,,,,FF,,,,,,,,0.6839,,,,,,,,,,,,,,,,,,,,,,6101b539b62e9ab88656497d,61036db3606dd7586d939d0b,2021-07-29_23h11.52.036,Simcolourproject_2stim_asymm_v5,2020.2.10,Win32,60,61025ae37ef11b136ea224fe,,,,,,,,,2200,32,77,1,0,0,response1disk,,7,-6,11,1,0,0,rectangle,-6,11,1,0,0,-6,11,1,0,0,0,80,80,152,1,,,,,,,,
,,,,,,,,,,,,,FF,,,,,,,,2.8671,,,,,,,,,,,,,,,,,,,,,,6101b539b62e9ab88656497d,61036db3606dd7586d939d0b,2021-07-29_23h11.52.036,Simcolourproject_2stim_asymm_v5,2020.2.10,Win32,60,61025ae37ef11b136ea224fe,,,,,,,,,3871,50,37,1,0,0,response1disk,,6,8,8,1,0,0,rectangle,8,8,1,0,0,8,8,1,0,0,0,81,81,64,1,,,,,,,,
,,,,,,,,,,,,,FF,,,,,,,,1.15,,,,,,,,,,,,,,,,,,,,,,6101b539b62e9ab88656497d,61036db3606dd7586d939d0b,2021-07-29_23h11.52.036,Simcolourproject_2stim_asymm_v5,2020.2.10,Win32,60,61025ae37ef11b136ea224fe,,,,,,,,,931,45,51,1,0,0,response1disk,,7,14,6,1,0,0,rectangle,14,6,1,0,0,14,6,1,0,0,0,82,82,71,1,,,,,,,,
,,,,,,,,,,,,,FF,,,,,,,,0.8003,,,,,,,,,,,,,,,,,,,,,,6101b539b62e9ab88656497d,61036db3606dd7586d939d0b,2021-07-29_23h11.52.036,Simcolourproject_2stim_asymm_v5,2020.2.10,Win32,60,61025ae37ef11b136ea224fe,,,,,,,,,488,28,48,1,0,0,response1disk,,7,10,9,1,0,0,rectangle,-29,69,1,0,0,-12,-6,1,0,0,0,83,83,155,1,,response7disk_3,TRUE,0,0,"[114,266,34,104,21,43,201,187,22,33,149,116,133,84,285,225,251,53,226,241]",1.8666,rectangle
,,,,,,,,,,,,,FF,,,,,,,,1.7834,,,,,,,,,,,,,,,,,,,,,,6101b539b62e9ab88656497d,61036db3606dd7586d939d0b,2021-07-29_23h11.52.036,Simcolourproject_2stim_asymm_v5,2020.2.10,Win32,60,61025ae37ef11b136ea224fe,,,,,,,,,601,54,58,1,0,0,response1disk,,7,4,-7,1,0,0,rectangle,4,-7,1,0,0,4,-7,1,0,0,0,84,84,86,1,,,,,,,,
,,,,,,,,,,,,,FF,,,,,,,,1.3166,,,,,,,,,,,,,,,,,,,,,,6101b539b62e9ab88656497d,61036db3606dd7586d939d0b,2021-07-29_23h11.52.036,Simcolourproject_2stim_asymm_v5,2020.2.10,Win32,60,61025ae37ef11b136ea224fe,,,,,,,,,2399,50,90,1,0,0,response1disk,,7,-19,2,1,0,0,rectangle,-19,2,1,0,0,-19,2,1,0,0,0,85,85,75,1,,,,,,,,
,,,,,,,,,,,,,FF,,,,,,,,0.8672,,,,,,,,,,,,,,,,,,,,,,6101b539b62e9ab88656497d,61036db3606dd7586d939d0b,2021-07-29_23h11.52.036,Simcolourproject_2stim_asymm_v5,2020.2.10,Win32,60,61025ae37ef11b136ea224fe,,,,,,,,,2198,41,99,1,0,0,response1disk,,7,0,7,1,0,0,rectangle,0,7,1,0,0,0,7,1,0,0,0,86,86,140,1,,,,,,,,
,,,,,,,,,,,,,FF,,,,,,,,1.0837,,,,,,,,,,,,,,,,,,,,,,6101b539b62e9ab88656497d,61036db3606dd7586d939d0b,2021-07-29_23h11.52.036,Simcolourproject_2stim_asymm_v5,2020.2.10,Win32,60,61025ae37ef11b136ea224fe,,,,,,,,,2864,37,65,1,0,0,response1disk,,7,-1,1,1,0,0,rectangle,-1,1,1,0,0,-1,1,1,0,0,0,87,87,91,1,,,,,,,,
,,,,,,,,,,,,,FF,,,,,,,,1.2338,,,,,,,,,,,,,,,,,,,,,,6101b539b62e9ab88656497d,61036db3606dd7586d939d0b,2021-07-29_23h11.52.036,Simcolourproject_2stim_asymm_v5,2020.2.10,Win32,60,61025ae37ef11b136ea224fe,,,,,,,,,3201,25,-54,1,0,0,response3disk,,4,-3,-7,1,0,0,rectangle,-3,-7,1,0,0,-3,-7,1,0,0,0,88,88,39,1,,,,,,,,
,,,,,,,,,,,,,FF,,,,,,,,1.2171,,,,,,,,,,,,,,,,,,,,,,6101b539b62e9ab88656497d,61036db3606dd7586d939d0b,2021-07-29_23h11.52.036,Simcolourproject_2stim_asymm_v5,2020.2.10,Win32,60,61025ae37ef11b136ea224fe,,,,,,,,,1822,-66,34,1,0,0,response7disk,,1,-3,6,1,0,0,rectangle,-3,6,1,0,0,-3,6,1,0,0,0,89,89,147,1,,,,,,,,
,,,,,,,,,,,,,FF,,,,,,,,1.1344,,,,,,,,,,,,,,,,,,,,,,6101b539b62e9ab88656497d,61036db3606dd7586d939d0b,2021-07-29_23h11.52.036,Simcolourproject_2stim_asymm_v5,2020.2.10,Win32,60,61025ae37ef11b136ea224fe,,,,,,,,,3389,-88,-59,1,0,0,response5disk,,2,-1,-1,1,0,0,rectangle,-1,-1,1,0,0,-1,-1,1,0,0,0,90,90,18,1,,,,,,,,
,,,,,,,,,,,,,FF,,,,,,,,0.9508,,,,,,,,,,,,,,,,,,,,,,6101b539b62e9ab88656497d,61036db3606dd7586d939d0b,2021-07-29_23h11.52.036,Simcolourproject_2stim_asymm_v5,2020.2.10,Win32,60,61025ae37ef11b136ea224fe,,,,,,,,,2185,56,86,1,0,0,response1disk,,7,6,-3,1,0,0,rectangle,6,-3,1,0,0,6,-3,1,0,0,0,91,91,54,1,,,,,,,,
,,,,,,,,,,,,,FF,,,,,,,,1.2348,,,,,,,,,,,,,,,,,,,,,,6101b539b62e9ab88656497d,61036db3606dd7586d939d0b,2021-07-29_23h11.52.036,Simcolourproject_2stim_asymm_v5,2020.2.10,Win32,60,61025ae37ef11b136ea224fe,,,,,,,,,1369,72,-55,1,0,0,response3disk,,5,-5,-4,1,0,0,rectangle,-5,-4,1,0,0,-5,-4,1,0,0,0,92,92,159,1,,,,,,,,
,,,,,,,,,,,,,FF,,,,,,,,1.3002,,,,,,,,,,,,,,,,,,,,,,6101b539b62e9ab88656497d,61036db3606dd7586d939d0b,2021-07-29_23h11.52.036,Simcolourproject_2stim_asymm_v5,2020.2.10,Win32,60,61025ae37ef11b136ea224fe,,,,,,,,,954,51,19,1,0,0,response1disk,,6,20,7,1,0,0,rectangle,20,7,1,0,0,20,7,1,0,0,0,93,93,129,1,,,,,,,,
,,,,,,,,,,,,,FF,,,,,,,,1.2507,,,,,,,,,,,,,,,,,,,,,,6101b539b62e9ab88656497d,61036db3606dd7586d939d0b,2021-07-29_23h11.52.036,Simcolourproject_2stim_asymm_v5,2020.2.10,Win32,60,61025ae37ef11b136ea224fe,,,,,,,,,2210,36,54,1,0,0,response1disk,,7,3,5,1,0,0,rectangle,3,5,1,0,0,3,5,1,0,0,0,94,94,109,1,,,,,,,,
,,,,,,,,,,,,,FF,,,,,,,,0.5672,,,,,,,,,,,,,,,,,,,,,,6101b539b62e9ab88656497d,61036db3606dd7586d939d0b,2021-07-29_23h11.52.036,Simcolourproject_2stim_asymm_v5,2020.2.10,Win32,60,61025ae37ef11b136ea224fe,,,,,,,,,2964,43,73,1,0,0,response1disk,,7,-2,-1,1,0,0,rectangle,-2,-1,1,0,0,-2,-1,1,0,0,0,95,95,4,1,,,,,,,,
,,,,,,,,,,,,,FF,,,,,,,,1.9835,,,,,,,,,,,,,,,,,,,,,,6101b539b62e9ab88656497d,61036db3606dd7586d939d0b,2021-07-29_23h11.52.036,Simcolourproject_2stim_asymm_v5,2020.2.10,Win32,60,61025ae37ef11b136ea224fe,,,,,,,,,368,55,-74,1,0,0,response3disk,,4,9,-1,1,0,0,rectangle,9,-1,1,0,0,9,-1,1,0,0,0,96,96,2,1,,,,,,,,
,,,,,,,,,,,,,FF,,,,,,,,1.1662,,,,,,,,,,,,,,,,,,,,,,6101b539b62e9ab88656497d,61036db3606dd7586d939d0b,2021-07-29_23h11.52.036,Simcolourproject_2stim_asymm_v5,2020.2.10,Win32,60,61025ae37ef11b136ea224fe,,,,,,,,,2797,40,69,1,0,0,response1disk,,7,1,9,1,0,0,rectangle,1,9,1,0,0,1,9,1,0,0,0,97,97,120,1,,,,,,,,
,,,,,,,,,,,,,FF,,,,,,,,0.668,,,,,,,,,,,,,,,,,,,,,,6101b539b62e9ab88656497d,61036db3606dd7586d939d0b,2021-07-29_23h11.52.036,Simcolourproject_2stim_asymm_v5,2020.2.10,Win32,60,61025ae37ef11b136ea224fe,,,,,,,,,1712,34,90,1,0,0,response1disk,,7,-6,12,1,0,0,rectangle,-6,12,1,0,0,-6,12,1,0,0,0,98,98,10,1,,,,,,,,
,,,,,,,,,,,,,FF,,,,,,,,1.5496,,,,,,,,,,,,,,,,,,,,,,6101b539b62e9ab88656497d,61036db3606dd7586d939d0b,2021-07-29_23h11.52.036,Simcolourproject_2stim_asymm_v5,2020.2.10,Win32,60,61025ae37ef11b136ea224fe,,,,,,,,,1118,81,52,1,0,0,response1disk,,6,-5,8,1,0,0,rectangle,-5,8,1,0,0,-5,8,1,0,0,0,99,99,84,1,,,,,,,,
,,,,,,,,,,,,,FF,,,,,,,,1.9336,,,,,,,,,,,,,,,,,,,,,,6101b539b62e9ab88656497d,61036db3606dd7586d939d0b,2021-07-29_23h11.52.036,Simcolourproject_2stim_asymm_v5,2020.2.10,Win32,60,61025ae37ef11b136ea224fe,,,,,,,,,1765,56,30,1,0,0,response1disk,,6,1,-2,1,0,0,rectangle,1,-2,1,0,0,1,-2,1,0,0,0,100,100,116,1,,,,,,,,
,,,,,,,,,,,,,FF,,,,,,,,1.1001,,,,,,,,,,,,,,,,,,,,,,6101b539b62e9ab88656497d,61036db3606dd7586d939d0b,2021-07-29_23h11.52.036,Simcolourproject_2stim_asymm_v5,2020.2.10,Win32,60,61025ae37ef11b136ea224fe,,,,,,,,,3282,44,-58,1,0,0,response3disk,,4,12,-13,1,0,0,rectangle,12,-13,1,0,0,12,-13,1,0,0,0,101,101,45,1,,,,,,,,
,,,,,,,,,,,,,FF,,,,,,,,1.5663,,,,,,,,,,,,,,,,,,,,,,6101b539b62e9ab88656497d,61036db3606dd7586d939d0b,2021-07-29_23h11.52.036,Simcolourproject_2stim_asymm_v5,2020.2.10,Win32,60,61025ae37ef11b136ea224fe,,,,,,,,,421,51,68,1,0,0,response1disk,,7,10,6,1,0,0,rectangle,10,6,1,0,0,10,6,1,0,0,0,102,102,27,1,,,,,,,,
,,,,,,,,,,,,,FF,,,,,,,,0.6345,,,,,,,,,,,,,,,,,,,,,,6101b539b62e9ab88656497d,61036db3606dd7586d939d0b,2021-07-29_23h11.52.036,Simcolourproject_2stim_asymm_v5,2020.2.10,Win32,60,61025ae37ef11b136ea224fe,,,,,,,,,1415,19,53,1,0,0,response1disk,,7,-4,0,1,0,0,rectangle,97,53,1,0,0,8,3,1,0,0,0,103,103,115,1,,response1disk_3,TRUE,6,6,"[114,266,34,104,21,43,201,187,22,33,149,116,133,84,285,225,251,53,226,241]",1.6007,rectangle
,,,,,,,,,,,,,FF,,,,,,,,1.0342,,,,,,,,,,,,,,,,,,,,,,6101b539b62e9ab88656497d,61036db3606dd7586d939d0b,2021-07-29_23h11.52.036,Simcolourproject_2stim_asymm_v5,2020.2.10,Win32,60,61025ae37ef11b136ea224fe,,,,,,,,,4039,73,-51,1,0,0,response3disk,,5,5,-4,1,0,0,rectangle,5,-4,1,0,0,5,-4,1,0,0,0,104,104,132,1,,,,,,,,
,,,,,,,,,,,,,FF,,,,,,,,2.1839,,,,,,,,,,,,,,,,,,,,,,6101b539b62e9ab88656497d,61036db3606dd7586d939d0b,2021-07-29_23h11.52.036,Simcolourproject_2stim_asymm_v5,2020.2.10,Win32,60,61025ae37ef11b136ea224fe,,,,,,,,,3274,39,72,1,0,0,response1disk,,7,6,2,1,0,0,rectangle,6,2,1,0,0,6,2,1,0,0,0,105,105,59,1,,,,,,,,
,,,,,,,,,,,,,FF,,,,,,,,1.1844,,,,,,,,,,,,,,,,,,,,,,6101b539b62e9ab88656497d,61036db3606dd7586d939d0b,2021-07-29_23h11.52.036,Simcolourproject_2stim_asymm_v5,2020.2.10,Win32,60,61025ae37ef11b136ea224fe,,,,,,,,,842,59,32,1,0,0,response1disk,,6,3,-2,1,0,0,rectangle,3,-2,1,0,0,3,-2,1,0,0,0,106,106,137,1,,,,,,,,
,,,,,,,,,,,,,FF,,,,,,,,1.2667,,,,,,,,,,,,,,,,,,,,,,6101b539b62e9ab88656497d,61036db3606dd7586d939d0b,2021-07-29_23h11.52.036,Simcolourproject_2stim_asymm_v5,2020.2.10,Win32,60,61025ae37ef11b136ea224fe,,,,,,,,,1514,24,71,1,0,0,response1disk,,7,-10,3,1,0,0,rectangle,-10,3,1,0,0,-10,3,1,0,0,0,107,107,88,1,,,,,,,,
,,,,,,,,,,,,,FF,,,,,,,,0.7542,,,,,,,,,,,,,,,,,,,,,,6101b539b62e9ab88656497d,61036db3606dd7586d939d0b,2021-07-29_23h11.52.036,Simcolourproject_2stim_asymm_v5,2020.2.10,Win32,60,61025ae37ef11b136ea224fe,,,,,,,,,3277,27,61,1,0,0,response1disk,,7,-4,11,1,0,0,rectangle,-4,11,1,0,0,-4,11,1,0,0,0,108,108,31,1,,,,,,,,
,,,,,,,,,,,,,FF,,,,,,,,0.7501,,,,,,,,,,,,,,,,,,,,,,6101b539b62e9ab88656497d,61036db3606dd7586d939d0b,2021-07-29_23h11.52.036,Simcolourproject_2stim_asymm_v5,2020.2.10,Win32,60,61025ae37ef11b136ea224fe,,,,,,,,,4291,33,62,1,0,0,response1disk,,7,-7,6,1,0,0,rectangle,-7,6,1,0,0,-7,6,1,0,0,0,109,109,110,1,,,,,,,,
,,,,,,,,,,,,,FF,,,,,,,,0.8172,,,,,,,,,,,,,,,,,,,,,,6101b539b62e9ab88656497d,61036db3606dd7586d939d0b,2021-07-29_23h11.52.036,Simcolourproject_2stim_asymm_v5,2020.2.10,Win32,60,61025ae37ef11b136ea224fe,,,,,,,,,3488,45,84,1,0,0,response1disk,,7,7,11,1,0,0,rectangle,7,11,1,0,0,7,11,1,0,0,0,110,110,65,1,,,,,,,,
,,,,,,,,,,,,,FF,,,,,,,,1.483,,,,,,,,,,,,,,,,,,,,,,6101b539b62e9ab88656497d,61036db3606dd7586d939d0b,2021-07-29_23h11.52.036,Simcolourproject_2stim_asymm_v5,2020.2.10,Win32,60,61025ae37ef11b136ea224fe,,,,,,,,,3104,90,-34,1,0,0,response3disk,,5,-8,-2,1,0,0,rectangle,-8,-2,1,0,0,-8,-2,1,0,0,0,111,111,134,1,,,,,,,,
,,,,,,,,,,,,,FF,,,,,,,,0.9167,,,,,,,,,,,,,,,,,,,,,,6101b539b62e9ab88656497d,61036db3606dd7586d939d0b,2021-07-29_23h11.52.036,Simcolourproject_2stim_asymm_v5,2020.2.10,Win32,60,61025ae37ef11b136ea224fe,,,,,,,,,264,-36,-76,1,0,0,response5disk,,3,-2,2,1,0,0,rectangle,-2,2,1,0,0,-2,2,1,0,0,0,112,112,40,1,,,,,,,,
,,,,,,,,,,,,,FF,,,,,,,,1.1166,,,,,,,,,,,,,,,,,,,,,,6101b539b62e9ab88656497d,61036db3606dd7586d939d0b,2021-07-29_23h11.52.036,Simcolourproject_2stim_asymm_v5,2020.2.10,Win32,60,61025ae37ef11b136ea224fe,,,,,,,,,1074,39,-104,1,0,0,response3disk,,4,-2,-8,1,0,0,rectangle,-61,24,1,0,0,-11,8,1,0,0,0,113,113,21,1,,response7disk_3,TRUE,1,1,"[114,266,34,104,21,43,201,187,22,33,149,116,133,84,285,225,251,53,226,241]",1.5677,rectangle
,,,,,,,,,,,,,FF,,,,,,,,1.9167,,,,,,,,,,,,,,,,,,,,,,6101b539b62e9ab88656497d,61036db3606dd7586d939d0b,2021-07-29_23h11.52.036,Simcolourproject_2stim_asymm_v5,2020.2.10,Win32,60,61025ae37ef11b136ea224fe,,,,,,,,,234,99,21,1,0,0,response1disk,,6,4,5,1,0,0,rectangle,4,5,1,0,0,4,5,1,0,0,0,114,114,102,1,,,,,,,,
,,,,,,,,,,,,,FF,,,,,,,,0.9674,,,,,,,,,,,,,,,,,,,,,,6101b539b62e9ab88656497d,61036db3606dd7586d939d0b,2021-07-29_23h11.52.036,Simcolourproject_2stim_asymm_v5,2020.2.10,Win32,60,61025ae37ef11b136ea224fe,,,,,,,,,4350,-54,31,1,0,0,response7disk,,1,-4,13,1,0,0,rectangle,38,-77,1,0,0,0,-1,1,0,0,0,115,115,69,1,,response3disk_3,TRUE,4,4,"[114,266,34,104,21,43,201,187,22,33,149,116,133,84,285,225,251,53,226,241]",2.8007,rectangle
,,,,,,,,,,,,,FF,,,,,,,,1.3674,,,,,,,,,,,,,,,,,,,,,,6101b539b62e9ab88656497d,61036db3606dd7586d939d0b,2021-07-29_23h11.52.036,Simcolourproject_2stim_asymm_v5,2020.2.10,Win32,60,61025ae37ef11b136ea224fe,,,,,,,,,459,31,-96,1,0,0,response3disk,,4,-6,5,1,0,0,rectangle,-6,5,1,0,0,-6,5,1,0,0,0,116,116,25,1,,,,,,,,
,,,,,,,,,,,,,FF,,,,,,,,1.55,,,,,,,,,,,,,,,,,,,,,,6101b539b62e9ab88656497d,61036db3606dd7586d939d0b,2021-07-29_23h11.52.036,Simcolourproject_2stim_asymm_v5,2020.2.10,Win32,60,61025ae37ef11b136ea224fe,,,,,,,,,1260,-62,-39,1,0,0,response5disk,,2,-14,-6,1,0,0,rectangle,-14,-6,1,0,0,-14,-6,1,0,0,0,117,117,47,1,,,,,,,,
,,,,,,,,,,,,,FF,,,,,,,,0.9016,,,,,,,,,,,,,,,,,,,,,,6101b539b62e9ab88656497d,61036db3606dd7586d939d0b,2021-07-29_23h11.52.036,Simcolourproject_2stim_asymm_v5,2020.2.10,Win32,60,61025ae37ef11b136ea224fe,,,,,,,,,2822,34,94,1,0,0,response1disk,,7,1,3,1,0,0,rectangle,1,3,1,0,0,1,3,1,0,0,0,118,118,93,1,,,,,,,,
,,,,,,,,,,,,,FF,,,,,,,,1.7007,,,,,,,,,,,,,,,,,,,,,,6101b539b62e9ab88656497d,61036db3606dd7586d939d0b,2021-07-29_23h11.52.036,Simcolourproject_2stim_asymm_v5,2020.2.10,Win32,60,61025ae37ef11b136ea224fe,,,,,,,,,209,58,32,1,0,0,response1disk,,6,10,5,1,0,0,rectangle,10,5,1,0,0,10,5,1,0,0,0,119,119,85,1,,,,,,,,
,,,,,,,,,,,,,FF,,,,,,,,1.2009,,,,,,,,,,,,,,,,,,,,,,6101b539b62e9ab88656497d,61036db3606dd7586d939d0b,2021-07-29_23h11.52.036,Simcolourproject_2stim_asymm_v5,2020.2.10,Win32,60,61025ae37ef11b136ea224fe,,,,,,,,,3107,107,-61,1,0,0,response3disk,,5,10,-5,1,0,0,rectangle,10,-5,1,0,0,10,-5,1,0,0,0,120,120,51,1,,,,,,,,
,,,,,,,,,,,,,FF,,,,,,,,0.9015,,,,,,,,,,,,,,,,,,,,,,6101b539b62e9ab88656497d,61036db3606dd7586d939d0b,2021-07-29_23h11.52.036,Simcolourproject_2stim_asymm_v5,2020.2.10,Win32,60,61025ae37ef11b136ea224fe,,,,,,,,,3359,31,55,1,0,0,response1disk,,7,2,-1,1,0,0,rectangle,2,-1,1,0,0,2,-1,1,0,0,0,121,121,72,1,,,,,,,,
,,,,,,,,,,,,,FF,,,,,,,,0.9331,,,,,,,,,,,,,,,,,,,,,,6101b539b62e9ab88656497d,61036db3606dd7586d939d0b,2021-07-29_23h11.52.036,Simcolourproject_2stim_asymm_v5,2020.2.10,Win32,60,61025ae37ef11b136ea224fe,,,,,,,,,1337,44,79,1,0,0,response1disk,,7,-6,4,1,0,0,rectangle,-6,4,1,0,0,-6,4,1,0,0,0,122,122,146,1,,,,,,,,
,,,,,,,,,,,,,FF,,,,,,,,0.9163,,,,,,,,,,,,,,,,,,,,,,6101b539b62e9ab88656497d,61036db3606dd7586d939d0b,2021-07-29_23h11.52.036,Simcolourproject_2stim_asymm_v5,2020.2.10,Win32,60,61025ae37ef11b136ea224fe,,,,,,,,,1204,75,43,1,0,0,response1disk,,6,17,3,1,0,0,rectangle,17,3,1,0,0,17,3,1,0,0,0,123,123,9,1,,,,,,,,
,,,,,,,,,,,,,FF,,,,,,,,3.9676,,,,,,,,,,,,,,,,,,,,,,6101b539b62e9ab88656497d,61036db3606dd7586d939d0b,2021-07-29_23h11.52.036,Simcolourproject_2stim_asymm_v5,2020.2.10,Win32,60,61025ae37ef11b136ea224fe,,,,,,,,,1791,86,30,1,0,0,response1disk,,6,8,0,1,0,0,rectangle,8,0,1,0,0,8,0,1,0,0,0,124,124,150,1,,,,,,,,
,,,,,,,,,,,,,FF,,,,,,,,4.7689,,,,,,,,,,,,,,,,,,,,,,6101b539b62e9ab88656497d,61036db3606dd7586d939d0b,2021-07-29_23h11.52.036,Simcolourproject_2stim_asymm_v5,2020.2.10,Win32,60,61025ae37ef11b136ea224fe,,,,,,,,,3934,103,-31,1,0,0,response3disk,,5,-12,14,1,0,0,rectangle,-12,14,1,0,0,-12,14,1,0,0,0,125,125,83,1,,,,,,,,
,,,,,,,,,,,,,FF,,,,,,,,0.9709,,,,,,,,,,,,,,,,,,,,,,6101b539b62e9ab88656497d,61036db3606dd7586d939d0b,2021-07-29_23h11.52.036,Simcolourproject_2stim_asymm_v5,2020.2.10,Win32,60,61025ae37ef11b136ea224fe,,,,,,,,,4318,49,84,1,0,0,response1disk,,7,-18,-5,1,0,0,rectangle,-18,-5,1,0,0,-18,-5,1,0,0,0,126,126,35,1,,,,,,,,
,,,,,,,,,,,,,FF,,,,,,,,0.8504,,,,,,,,,,,,,,,,,,,,,,6101b539b62e9ab88656497d,61036db3606dd7586d939d0b,2021-07-29_23h11.52.036,Simcolourproject_2stim_asymm_v5,2020.2.10,Win32,60,61025ae37ef11b136ea224fe,,,,,,,,,1631,22,56,1,0,0,response1disk,,7,0,-1,1,0,0,rectangle,0,-1,1,0,0,0,-1,1,0,0,0,127,127,136,1,,,,,,,,
,,,,,,,,,,,,,FF,,,,,,,,0.8666,,,,,,,,,,,,,,,,,,,,,,6101b539b62e9ab88656497d,61036db3606dd7586d939d0b,2021-07-29_23h11.52.036,Simcolourproject_2stim_asymm_v5,2020.2.10,Win32,60,61025ae37ef11b136ea224fe,,,,,,,,,859,70,45,1,0,0,response1disk,,6,1,1,1,0,0,rectangle,1,1,1,0,0,1,1,1,0,0,0,128,128,5,1,,,,,,,,
,,,,,,,,,,,,,FF,,,,,,,,2.4837,,,,,,,,,,,,,,,,,,,,,,6101b539b62e9ab88656497d,61036db3606dd7586d939d0b,2021-07-29_23h11.52.036,Simcolourproject_2stim_asymm_v5,2020.2.10,Win32,60,61025ae37ef11b136ea224fe,,,,,,,,,2798,83,29,1,0,0,response1disk,,6,9,0,1,0,0,rectangle,9,0,1,0,0,9,0,1,0,0,0,129,129,56,1,,,,,,,,
,,,,,,,,,,,,,FF,,,,,,,,1.2672,,,,,,,,,,,,,,,,,,,,,,6101b539b62e9ab88656497d,61036db3606dd7586d939d0b,2021-07-29_23h11.52.036,Simcolourproject_2stim_asymm_v5,2020.2.10,Win32,60,61025ae37ef11b136ea224fe,,,,,,,,,4131,36,56,1,0,0,response1disk,,7,-5,-5,1,0,0,rectangle,-5,-5,1,0,0,-5,-5,1,0,0,0,130,130,87,1,,,,,,,,
,,,,,,,,,,,,,FF,,,,,,,,0.7011,,,,,,,,,,,,,,,,,,,,,,6101b539b62e9ab88656497d,61036db3606dd7586d939d0b,2021-07-29_23h11.52.036,Simcolourproject_2stim_asymm_v5,2020.2.10,Win32,60,61025ae37ef11b136ea224fe,,,,,,,,,2452,56,107,1,0,0,response1disk,,7,-5,2,1,0,0,rectangle,-5,2,1,0,0,-5,2,1,0,0,0,131,131,67,1,,,,,,,,
,,,,,,,,,,,,,FF,,,,,,,,3.467,,,,,,,,,,,,,,,,,,,,,,6101b539b62e9ab88656497d,61036db3606dd7586d939d0b,2021-07-29_23h11.52.036,Simcolourproject_2stim_asymm_v5,2020.2.10,Win32,60,61025ae37ef11b136ea224fe,,,,,,,,,1556,79,-27,1,0,0,response3disk,,5,-4,9,1,0,0,rectangle,-20,75,1,0,0,-5,6,1,0,0,0,132,132,117,1,,response7disk_3,TRUE,0,0,"[114,266,34,104,21,43,201,187,22,33,149,116,133,84,285,225,251,53,226,241]",1.7025,rectangle
,,,,,,,,,,,,,FF,,,,,,,,1.1675,,,,,,,,,,,,,,,,,,,,,,6101b539b62e9ab88656497d,61036db3606dd7586d939d0b,2021-07-29_23h11.52.036,Simcolourproject_2stim_asymm_v5,2020.2.10,Win32,60,61025ae37ef11b136ea224fe,,,,,,,,,76,78,-51,1,0,0,response3disk,,5,-8,12,1,0,0,rectangle,-8,12,1,0,0,-8,12,1,0,0,0,133,133,17,1,,,,,,,,
,,,,,,,,,,,,,FF,,,,,,,,0.7512,,,,,,,,,,,,,,,,,,,,,,6101b539b62e9ab88656497d,61036db3606dd7586d939d0b,2021-07-29_23h11.52.036,Simcolourproject_2stim_asymm_v5,2020.2.10,Win32,60,61025ae37ef11b136ea224fe,,,,,,,,,4233,28,75,1,0,0,response1disk,,7,4,11,1,0,0,rectangle,4,11,1,0,0,4,11,1,0,0,0,134,134,19,1,,,,,,,,
,,,,,,,,,,,,,FF,,,,,,,,1.433,,,,,,,,,,,,,,,,,,,,,,6101b539b62e9ab88656497d,61036db3606dd7586d939d0b,2021-07-29_23h11.52.036,Simcolourproject_2stim_asymm_v5,2020.2.10,Win32,60,61025ae37ef11b136ea224fe,,,,,,,,,542,40,72,1,0,0,response1disk,,7,7,8,1,0,0,rectangle,7,8,1,0,0,7,8,1,0,0,0,135,135,33,1,,,,,,,,
,,,,,,,,,,,,,FF,,,,,,,,0.6689,,,,,,,,,,,,,,,,,,,,,,6101b539b62e9ab88656497d,61036db3606dd7586d939d0b,2021-07-29_23h11.52.036,Simcolourproject_2stim_asymm_v5,2020.2.10,Win32,60,61025ae37ef11b136ea224fe,,,,,,,,,1170,48,85,1,0,0,response1disk,,7,7,8,1,0,0,rectangle,7,8,1,0,0,7,8,1,0,0,0,136,136,114,1,,,,,,,,
,,,,,,,,,,,,,FF,,,,,,,,1.4667,,,,,,,,,,,,,,,,,,,,,,6101b539b62e9ab88656497d,61036db3606dd7586d939d0b,2021-07-29_23h11.52.036,Simcolourproject_2stim_asymm_v5,2020.2.10,Win32,60,61025ae37ef11b136ea224fe,,,,,,,,,3426,64,-68,1,0,0,response3disk,,4,17,-5,1,0,0,rectangle,17,-5,1,0,0,17,-5,1,0,0,0,137,137,60,1,,,,,,,,
,,,,,,,,,,,,,FF,,,,,,,,1.2168,,,,,,,,,,,,,,,,,,,,,,6101b539b62e9ab88656497d,61036db3606dd7586d939d0b,2021-07-29_23h11.52.036,Simcolourproject_2stim_asymm_v5,2020.2.10,Win32,60,61025ae37ef11b136ea224fe,,,,,,,,,4008,43,16,1,0,0,response1disk,,6,10,-6,1,0,0,rectangle,10,-6,1,0,0,10,-6,1,0,0,0,138,138,112,1,,,,,,,,
,,,,,,,,,,,,,FF,,,,,,,,0.8169,,,,,,,,,,,,,,,,,,,,,,6101b539b62e9ab88656497d,61036db3606dd7586d939d0b,2021-07-29_23h11.52.036,Simcolourproject_2stim_asymm_v5,2020.2.10,Win32,60,61025ae37ef11b136ea224fe,,,,,,,,,357,40,73,1,0,0,response1disk,,7,1,1,1,0,0,rectangle,1,1,1,0,0,1,1,1,0,0,0,139,139,7,1,,,,,,,,
,,,,,,,,,,,,,FF,,,,,,,,0.9845,,,,,,,,,,,,,,,,,,,,,,6101b539b62e9ab88656497d,61036db3606dd7586d939d0b,2021-07-29_23h11.52.036,Simcolourproject_2stim_asymm_v5,2020.2.10,Win32,60,61025ae37ef11b136ea224fe,,,,,,,,,2326,58,120,1,0,0,response1disk,,7,-3,-2,1,0,0,rectangle,-3,-2,1,0,0,-3,-2,1,0,0,0,140,140,29,1,,,,,,,,
,,,,,,,,,,,,,FF,,,,,,,,0.9176,,,,,,,,,,,,,,,,,,,,,,6101b539b62e9ab88656497d,61036db3606dd7586d939d0b,2021-07-29_23h11.52.036,Simcolourproject_2stim_asymm_v5,2020.2.10,Win32,60,61025ae37ef11b136ea224fe,,,,,,,,,1851,51,25,1,0,0,response1disk,,6,10,5,1,0,0,rectangle,10,5,1,0,0,10,5,1,0,0,0,141,141,28,1,,,,,,,,
,,,,,,,,,,,,,FF,,,,,,,,0.9008,,,,,,,,,,,,,,,,,,,,,,6101b539b62e9ab88656497d,61036db3606dd7586d939d0b,2021-07-29_23h11.52.036,Simcolourproject_2stim_asymm_v5,2020.2.10,Win32,60,61025ae37ef11b136ea224fe,,,,,,,,,2533,34,70,1,0,0,response1disk,,7,-9,-5,1,0,0,rectangle,-9,-5,1,0,0,-9,-5,1,0,0,0,142,142,74,1,,,,,,,,
,,,,,,,,,,,,,FF,,,,,,,,1.1694,,,,,,,,,,,,,,,,,,,,,,6101b539b62e9ab88656497d,61036db3606dd7586d939d0b,2021-07-29_23h11.52.036,Simcolourproject_2stim_asymm_v5,2020.2.10,Win32,60,61025ae37ef11b136ea224fe,,,,,,,,,2411,43,53,1,0,0,response1disk,,7,9,-3,1,0,0,rectangle,9,-3,1,0,0,9,-3,1,0,0,0,143,143,98,1,,,,,,,,
,,,,,,,,,,,,,FF,,,,,,,,1.9516,,,,,,,,,,,,,,,,,,,,,,6101b539b62e9ab88656497d,61036db3606dd7586d939d0b,2021-07-29_23h11.52.036,Simcolourproject_2stim_asymm_v5,2020.2.10,Win32,60,61025ae37ef11b136ea224fe,,,,,,,,,4149,57,-95,1,0,0,response3disk,,4,3,-5,1,0,0,rectangle,3,-5,1,0,0,3,-5,1,0,0,0,144,144,106,1,,,,,,,,
,,,,,,,,,,,,,FF,,,,,,,,0.6839,,,,,,,,,,,,,,,,,,,,,,6101b539b62e9ab88656497d,61036db3606dd7586d939d0b,2021-07-29_23h11.52.036,Simcolourproject_2stim_asymm_v5,2020.2.10,Win32,60,61025ae37ef11b136ea224fe,,,,,,,,,3310,50,68,1,0,0,response1disk,,7,4,-7,1,0,0,rectangle,4,-7,1,0,0,4,-7,1,0,0,0,145,145,158,1,,,,,,,,
,,,,,,,,,,,,,FF,,,,,,,,1.7007,,,,,,,,,,,,,,,,,,,,,,6101b539b62e9ab88656497d,61036db3606dd7586d939d0b,2021-07-29_23h11.52.036,Simcolourproject_2stim_asymm_v5,2020.2.10,Win32,60,61025ae37ef11b136ea224fe,,,,,,,,,2223,98,-35,1,0,0,response3disk,,5,-7,-1,1,0,0,rectangle,-7,-1,1,0,0,-7,-1,1,0,0,0,146,146,143,1,,,,,,,,
,,,,,,,,,,,,,FF,,,,,,,,1.3008,,,,,,,,,,,,,,,,,,,,,,6101b539b62e9ab88656497d,61036db3606dd7586d939d0b,2021-07-29_23h11.52.036,Simcolourproject_2stim_asymm_v5,2020.2.10,Win32,60,61025ae37ef11b136ea224fe,,,,,,,,,1592,23,-88,1,0,0,response3disk,,4,1,-12,1,0,0,rectangle,1,-12,1,0,0,1,-12,1,0,0,0,147,147,14,1,,,,,,,,
,,,,,,,,,,,,,FF,,,,,,,,0.7704,,,,,,,,,,,,,,,,,,,,,,6101b539b62e9ab88656497d,61036db3606dd7586d939d0b,2021-07-29_23h11.52.036,Simcolourproject_2stim_asymm_v5,2020.2.10,Win32,60,61025ae37ef11b136ea224fe,,,,,,,,,4136,36,71,1,0,0,response1disk,,7,-1,4,1,0,0,rectangle,81,-52,1,0,0,-16,-8,1,0,0,0,148,148,94,1,,response3disk_3,TRUE,5,5,"[114,266,34,104,21,43,201,187,22,33,149,116,133,84,285,225,251,53,226,241]",2.0179,rectangle
,,,,,,,,,,,,,FF,,,,,,,,1.2366,,,,,,,,,,,,,,,,,,,,,,6101b539b62e9ab88656497d,61036db3606dd7586d939d0b,2021-07-29_23h11.52.036,Simcolourproject_2stim_asymm_v5,2020.2.10,Win32,60,61025ae37ef11b136ea224fe,,,,,,,,,2108,61,-91,1,0,0,response3disk,,4,12,-5,1,0,0,rectangle,12,-5,1,0,0,12,-5,1,0,0,0,149,149,119,1,,,,,,,,
,,,,,,,,,,,,,FF,,,,,,,,0.9377,,,,,,,,,,,,,,,,,,,,,,6101b539b62e9ab88656497d,61036db3606dd7586d939d0b,2021-07-29_23h11.52.036,Simcolourproject_2stim_asymm_v5,2020.2.10,Win32,60,61025ae37ef11b136ea224fe,,,,,,,,,410,45,77,1,0,0,response1disk,,7,-3,0,1,0,0,rectangle,-3,0,1,0,0,-3,0,1,0,0,0,150,150,30,1,,,,,,,,
,,,,,,,,,,,,,FF,,,,,,,,0.9344,,,,,,,,,,,,,,,,,,,,,,6101b539b62e9ab88656497d,61036db3606dd7586d939d0b,2021-07-29_23h11.52.036,Simcolourproject_2stim_asymm_v5,2020.2.10,Win32,60,61025ae37ef11b136ea224fe,,,,,,,,,3945,79,35,1,0,0,response1disk,,6,17,9,1,0,0,rectangle,17,9,1,0,0,17,9,1,0,0,0,151,151,38,1,,,,,,,,
,,,,,,,,,,,,,FF,,,,,,,,0.7997,,,,,,,,,,,,,,,,,,,,,,6101b539b62e9ab88656497d,61036db3606dd7586d939d0b,2021-07-29_23h11.52.036,Simcolourproject_2stim_asymm_v5,2020.2.10,Win32,60,61025ae37ef11b136ea224fe,,,,,,,,,1409,48,97,1,0,0,response1disk,,7,3,5,1,0,0,rectangle,3,5,1,0,0,3,5,1,0,0,0,152,152,130,1,,,,,,,,
,,,,,,,,,,,,,FF,,,,,,,,1.3551,,,,,,,,,,,,,,,,,,,,,,6101b539b62e9ab88656497d,61036db3606dd7586d939d0b,2021-07-29_23h11.52.036,Simcolourproject_2stim_asymm_v5,2020.2.10,Win32,60,61025ae37ef11b136ea224fe,,,,,,,,,2362,-67,-54,1,0,0,response5disk,,2,5,8,1,0,0,rectangle,5,8,1,0,0,5,8,1,0,0,0,153,153,121,1,,,,,,,,
,,,,,,,,,,,,,FF,,,,,,,,0.7344,,,,,,,,,,,,,,,,,,,,,,6101b539b62e9ab88656497d,61036db3606dd7586d939d0b,2021-07-29_23h11.52.036,Simcolourproject_2stim_asymm_v5,2020.2.10,Win32,60,61025ae37ef11b136ea224fe,,,,,,,,,1098,27,78,1,0,0,response1disk,,7,3,3,1,0,0,rectangle,3,3,1,0,0,3,3,1,0,0,0,154,154,141,1,,,,,,,,
,,,,,,,,,,,,,FF,,,,,,,,1.9832,,,,,,,,,,,,,,,,,,,,,,6101b539b62e9ab88656497d,61036db3606dd7586d939d0b,2021-07-29_23h11.52.036,Simcolourproject_2stim_asymm_v5,2020.2.10,Win32,60,61025ae37ef11b136ea224fe,,,,,,,,,3671,71,-32,1,0,0,response3disk,,5,-5,4,1,0,0,rectangle,-5,4,1,0,0,-5,4,1,0,0,0,155,155,131,1,,,,,,,,
,,,,,,,,,,,,,FF,,,,,,,,1.3844,,,,,,,,,,,,,,,,,,,,,,6101b539b62e9ab88656497d,61036db3606dd7586d939d0b,2021-07-29_23h11.52.036,Simcolourproject_2stim_asymm_v5,2020.2.10,Win32,60,61025ae37ef11b136ea224fe,,,,,,,,,3190,76,-28,1,0,0,response3disk,,5,3,2,1,0,0,rectangle,3,2,1,0,0,3,2,1,0,0,0,156,156,44,1,,,,,,,,
,,,,,,,,,,,,,FF,,,,,,,,0.7362,,,,,,,,,,,,,,,,,,,,,,6101b539b62e9ab88656497d,61036db3606dd7586d939d0b,2021-07-29_23h11.52.036,Simcolourproject_2stim_asymm_v5,2020.2.10,Win32,60,61025ae37ef11b136ea224fe,,,,,,,,,2117,31,69,1,0,0,response1disk,,7,8,5,1,0,0,rectangle,8,5,1,0,0,8,5,1,0,0,0,157,157,153,1,,,,,,,,
,,,,,,,,,,,,,FF,,,,,,,,2.3517,,,,,,,,,,,,,,,,,,,,,,6101b539b62e9ab88656497d,61036db3606dd7586d939d0b,2021-07-29_23h11.52.036,Simcolourproject_2stim_asymm_v5,2020.2.10,Win32,60,61025ae37ef11b136ea224fe,,,,,,,,,2296,104,-38,1,0,0,response3disk,,5,-23,-1,1,0,0,rectangle,-23,-1,1,0,0,-23,-1,1,0,0,0,158,158,96,1,,,,,,,,
,,,,,,,,,,,,,FF,,,,,,,,1.3345,,,,,,,,,,,,,,,,,,,,,,6101b539b62e9ab88656497d,61036db3606dd7586d939d0b,2021-07-29_23h11.52.036,Simcolourproject_2stim_asymm_v5,2020.2.10,Win32,60,61025ae37ef11b136ea224fe,,,,,,,,,778,110,28,1,0,0,response1disk,,6,-14,7,1,0,0,rectangle,-14,7,1,0,0,-14,7,1,0,0,0,159,159,97,1,,,,,,,,
,,,,,,,,,,,,,FF,,,,,,,,1.2009,,,,,,,,,,,,,,,,,,,,,,6101b539b62e9ab88656497d,61036db3606dd7586d939d0b,2021-07-29_23h11.52.036,Simcolourproject_2stim_asymm_v5,2020.2.10,Win32,60,61025ae37ef11b136ea224fe,,,,,,,,,2807,35,76,1,0,0,response1disk,,7,-8,8,1,0,0,rectangle,-8,8,1,0,0,-8,8,1,0,0,1,0,160,157,1,,,,,,,,
,,,,,,,,,,,,,FF,,,,,,,,1.5505,,,,,,,,,,,,,,,,,,,,,,6101b539b62e9ab88656497d,61036db3606dd7586d939d0b,2021-07-29_23h11.52.036,Simcolourproject_2stim_asymm_v5,2020.2.10,Win32,60,61025ae37ef11b136ea224fe,,,,,,,,,1226,87,-58,1,0,0,response3disk,,5,-23,3,1,0,0,rectangle,-23,3,1,0,0,-23,3,1,0,0,1,1,161,28,1,,,,,,,,
,,,,,,,,,,,,,FF,,,,,,,,1.4833,,,,,,,,,,,,,,,,,,,,,,6101b539b62e9ab88656497d,61036db3606dd7586d939d0b,2021-07-29_23h11.52.036,Simcolourproject_2stim_asymm_v5,2020.2.10,Win32,60,61025ae37ef11b136ea224fe,,,,,,,,,844,49,78,1,0,0,response1disk,,7,-1,0,1,0,0,rectangle,-1,0,1,0,0,-1,0,1,0,0,1,2,162,77,1,,,,,,,,
,,,,,,,,,,,,,FF,,,,,,,,0.6859,,,,,,,,,,,,,,,,,,,,,,6101b539b62e9ab88656497d,61036db3606dd7586d939d0b,2021-07-29_23h11.52.036,Simcolourproject_2stim_asymm_v5,2020.2.10,Win32,60,61025ae37ef11b136ea224fe,,,,,,,,,3234,39,71,1,0,0,response1disk,,7,9,6,1,0,0,rectangle,9,6,1,0,0,9,6,1,0,0,1,3,163,26,1,,,,,,,,
,,,,,,,,,,,,,FF,,,,,,,,1.5173,,,,,,,,,,,,,,,,,,,,,,6101b539b62e9ab88656497d,61036db3606dd7586d939d0b,2021-07-29_23h11.52.036,Simcolourproject_2stim_asymm_v5,2020.2.10,Win32,60,61025ae37ef11b136ea224fe,,,,,,,,,228,32,51,1,0,0,response1disk,,7,12,2,1,0,0,rectangle,12,2,1,0,0,12,2,1,0,0,1,4,164,39,1,,,,,,,,
,,,,,,,,,,,,,FF,,,,,,,,1.001,,,,,,,,,,,,,,,,,,,,,,6101b539b62e9ab88656497d,61036db3606dd7586d939d0b,2021-07-29_23h11.52.036,Simcolourproject_2stim_asymm_v5,2020.2.10,Win32,60,61025ae37ef11b136ea224fe,,,,,,,,,2161,76,-31,1,0,0,response3disk,,5,15,-3,1,0,0,rectangle,15,-3,1,0,0,15,-3,1,0,0,1,5,165,129,1,,,,,,,,
,,,,,,,,,,,,,FF,,,,,,,,1.4034,,,,,,,,,,,,,,,,,,,,,,6101b539b62e9ab88656497d,61036db3606dd7586d939d0b,2021-07-29_23h11.52.036,Simcolourproject_2stim_asymm_v5,2020.2.10,Win32,60,61025ae37ef11b136ea224fe,,,,,,,,,3776,-95,-69,1,0,0,response5disk,,2,-6,-3,1,0,0,rectangle,-6,-3,1,0,0,-6,-3,1,0,0,1,6,166,124,1,,,,,,,,
,,,,,,,,,,,,,FF,,,,,,,,2.2676,,,,,,,,,,,,,,,,,,,,,,6101b539b62e9ab88656497d,61036db3606dd7586d939d0b,2021-07-29_23h11.52.036,Simcolourproject_2stim_asymm_v5,2020.2.10,Win32,60,61025ae37ef11b136ea224fe,,,,,,,,,2513,34,64,1,0,0,response1disk,,7,-7,2,1,0,0,rectangle,-7,2,1,0,0,-7,2,1,0,0,1,7,167,59,1,,,,,,,,
,,,,,,,,,,,,,FF,,,,,,,,1.1851,,,,,,,,,,,,,,,,,,,,,,6101b539b62e9ab88656497d,61036db3606dd7586d939d0b,2021-07-29_23h11.52.036,Simcolourproject_2stim_asymm_v5,2020.2.10,Win32,60,61025ae37ef11b136ea224fe,,,,,,,,,1615,81,-44,1,0,0,response3disk,,5,9,1,1,0,0,rectangle,9,1,1,0,0,9,1,1,0,0,1,8,168,53,1,,,,,,,,
,,,,,,,,,,,,,FF,,,,,,,,1.2706,,,,,,,,,,,,,,,,,,,,,,6101b539b62e9ab88656497d,61036db3606dd7586d939d0b,2021-07-29_23h11.52.036,Simcolourproject_2stim_asymm_v5,2020.2.10,Win32,60,61025ae37ef11b136ea224fe,,,,,,,,,60,61,40,1,0,0,response1disk,,6,-6,2,1,0,0,rectangle,-6,2,1,0,0,-6,2,1,0,0,1,9,169,82,1,,,,,,,,
,,,,,,,,,,,,,FF,,,,,,,,1.5674,,,,,,,,,,,,,,,,,,,,,,6101b539b62e9ab88656497d,61036db3606dd7586d939d0b,2021-07-29_23h11.52.036,Simcolourproject_2stim_asymm_v5,2020.2.10,Win32,60,61025ae37ef11b136ea224fe,,,,,,,,,4182,-21,-79,1,0,0,response5disk,,3,9,-8,1,0,0,rectangle,9,-8,1,0,0,9,-8,1,0,0,1,10,170,122,1,,,,,,,,
,,,,,,,,,,,,,FF,,,,,,,,0.8856,,,,,,,,,,,,,,,,,,,,,,6101b539b62e9ab88656497d,61036db3606dd7586d939d0b,2021-07-29_23h11.52.036,Simcolourproject_2stim_asymm_v5,2020.2.10,Win32,60,61025ae37ef11b136ea224fe,,,,,,,,,1543,34,-50,1,0,0,response3disk,,4,3,-9,1,0,0,rectangle,3,-9,1,0,0,3,-9,1,0,0,1,11,171,151,1,,,,,,,,
,,,,,,,,,,,,,FF,,,,,,,,1.5533,,,,,,,,,,,,,,,,,,,,,,6101b539b62e9ab88656497d,61036db3606dd7586d939d0b,2021-07-29_23h11.52.036,Simcolourproject_2stim_asymm_v5,2020.2.10,Win32,60,61025ae37ef11b136ea224fe,,,,,,,,,1402,83,29,1,0,0,response1disk,,6,10,7,1,0,0,rectangle,10,7,1,0,0,10,7,1,0,0,1,12,172,112,1,,,,,,,,
,,,,,,,,,,,,,FF,,,,,,,,0.7029,,,,,,,,,,,,,,,,,,,,,,6101b539b62e9ab88656497d,61036db3606dd7586d939d0b,2021-07-29_23h11.52.036,Simcolourproject_2stim_asymm_v5,2020.2.10,Win32,60,61025ae37ef11b136ea224fe,,,,,,,,,2908,19,43,1,0,0,response1disk,,7,-5,-4,1,0,0,rectangle,-5,-4,1,0,0,-5,-4,1,0,0,1,13,173,154,1,,,,,,,,
,,,,,,,,,,,,,FF,,,,,,,,1.187,,,,,,,,,,,,,,,,,,,,,,6101b539b62e9ab88656497d,61036db3606dd7586d939d0b,2021-07-29_23h11.52.036,Simcolourproject_2stim_asymm_v5,2020.2.10,Win32,60,61025ae37ef11b136ea224fe,,,,,,,,,1387,57,-34,1,0,0,response3disk,,5,16,8,1,0,0,rectangle,16,8,1,0,0,16,8,1,0,0,1,14,174,19,1,,,,,,,,
,,,,,,,,,,,,,FF,,,,,,,,1.8836,,,,,,,,,,,,,,,,,,,,,,6101b539b62e9ab88656497d,61036db3606dd7586d939d0b,2021-07-29_23h11.52.036,Simcolourproject_2stim_asymm_v5,2020.2.10,Win32,60,61025ae37ef11b136ea224fe,,,,,,,,,2123,42,61,1,0,0,response1disk,,7,5,8,1,0,0,rectangle,5,8,1,0,0,5,8,1,0,0,1,15,175,96,1,,,,,,,,
,,,,,,,,,,,,,FF,,,,,,,,0.9363,,,,,,,,,,,,,,,,,,,,,,6101b539b62e9ab88656497d,61036db3606dd7586d939d0b,2021-07-29_23h11.52.036,Simcolourproject_2stim_asymm_v5,2020.2.10,Win32,60,61025ae37ef11b136ea224fe,,,,,,,,,2111,71,27,1,0,0,response1disk,,6,15,5,1,0,0,rectangle,15,5,1,0,0,15,5,1,0,0,1,16,176,87,1,,,,,,,,
,,,,,,,,,,,,,FF,,,,,,,,1.0014,,,,,,,,,,,,,,,,,,,,,,6101b539b62e9ab88656497d,61036db3606dd7586d939d0b,2021-07-29_23h11.52.036,Simcolourproject_2stim_asymm_v5,2020.2.10,Win32,60,61025ae37ef11b136ea224fe,,,,,,,,,3786,45,31,1,0,0,response1disk,,6,9,-4,1,0,0,rectangle,9,-4,1,0,0,9,-4,1,0,0,1,17,177,88,1,,,,,,,,
,,,,,,,,,,,,,FF,,,,,,,,1.1677,,,,,,,,,,,,,,,,,,,,,,6101b539b62e9ab88656497d,61036db3606dd7586d939d0b,2021-07-29_23h11.52.036,Simcolourproject_2stim_asymm_v5,2020.2.10,Win32,60,61025ae37ef11b136ea224fe,,,,,,,,,95,55,-82,1,0,0,response3disk,,4,8,-1,1,0,0,rectangle,8,-1,1,0,0,8,-1,1,0,0,1,18,178,140,1,,,,,,,,
,,,,,,,,,,,,,FF,,,,,,,,0.9015,,,,,,,,,,,,,,,,,,,,,,6101b539b62e9ab88656497d,61036db3606dd7586d939d0b,2021-07-29_23h11.52.036,Simcolourproject_2stim_asymm_v5,2020.2.10,Win32,60,61025ae37ef11b136ea224fe,,,,,,,,,2231,45,-71,1,0,0,response3disk,,4,-4,-2,1,0,0,rectangle,-4,-2,1,0,0,-4,-2,1,0,0,1,19,179,85,1,,,,,,,,
,,,,,,,,,,,,,FF,,,,,,,,1.2828,,,,,,,,,,,,,,,,,,,,,,6101b539b62e9ab88656497d,61036db3606dd7586d939d0b,2021-07-29_23h11.52.036,Simcolourproject_2stim_asymm_v5,2020.2.10,Win32,60,61025ae37ef11b136ea224fe,,,,,,,,,383,71,39,1,0,0,response1disk,,6,4,1,1,0,0,rectangle,4,1,1,0,0,4,1,1,0,0,1,20,180,135,1,,,,,,,,
,,,,,,,,,,,,,FF,,,,,,,,0.9507,,,,,,,,,,,,,,,,,,,,,,6101b539b62e9ab88656497d,61036db3606dd7586d939d0b,2021-07-29_23h11.52.036,Simcolourproject_2stim_asymm_v5,2020.2.10,Win32,60,61025ae37ef11b136ea224fe,,,,,,,,,1516,23,50,1,0,0,response1disk,,7,9,10,1,0,0,rectangle,9,10,1,0,0,9,10,1,0,0,1,21,181,123,1,,,,,,,,
,,,,,,,,,,,,,FF,,,,,,,,1.2835,,,,,,,,,,,,,,,,,,,,,,6101b539b62e9ab88656497d,61036db3606dd7586d939d0b,2021-07-29_23h11.52.036,Simcolourproject_2stim_asymm_v5,2020.2.10,Win32,60,61025ae37ef11b136ea224fe,,,,,,,,,2833,48,-80,1,0,0,response3disk,,4,2,13,1,0,0,rectangle,2,13,1,0,0,2,13,1,0,0,1,22,182,139,1,,,,,,,,
,,,,,,,,,,,,,FF,,,,,,,,1.019,,,,,,,,,,,,,,,,,,,,,,6101b539b62e9ab88656497d,61036db3606dd7586d939d0b,2021-07-29_23h11.52.036,Simcolourproject_2stim_asymm_v5,2020.2.10,Win32,60,61025ae37ef11b136ea224fe,,,,,,,,,2916,26,36,1,0,0,response1disk,,7,6,-6,1,0,0,rectangle,6,-6,1,0,0,6,-6,1,0,0,1,23,183,75,1,,,,,,,,
,,,,,,,,,,,,,FF,,,,,,,,1.1668,,,,,,,,,,,,,,,,,,,,,,6101b539b62e9ab88656497d,61036db3606dd7586d939d0b,2021-07-29_23h11.52.036,Simcolourproject_2stim_asymm_v5,2020.2.10,Win32,60,61025ae37ef11b136ea224fe,,,,,,,,,235,31,81,1,0,0,response1disk,,7,2,2,1,0,0,rectangle,2,2,1,0,0,2,2,1,0,0,1,24,184,8,1,,,,,,,,
,,,,,,,,,,,,,FF,,,,,,,,2.2841,,,,,,,,,,,,,,,,,,,,,,6101b539b62e9ab88656497d,61036db3606dd7586d939d0b,2021-07-29_23h11.52.036,Simcolourproject_2stim_asymm_v5,2020.2.10,Win32,60,61025ae37ef11b136ea224fe,,,,,,,,,287,37,57,1,0,0,response1disk,,7,13,9,1,0,0,rectangle,13,9,1,0,0,13,9,1,0,0,1,25,185,90,1,,,,,,,,
,,,,,,,,,,,,,FF,,,,,,,,1.034,,,,,,,,,,,,,,,,,,,,,,6101b539b62e9ab88656497d,61036db3606dd7586d939d0b,2021-07-29_23h11.52.036,Simcolourproject_2stim_asymm_v5,2020.2.10,Win32,60,61025ae37ef11b136ea224fe,,,,,,,,,1522,78,-36,1,0,0,response3disk,,5,-1,-9,1,0,0,rectangle,28,-54,1,0,0,1,-7,1,0,0,1,26,186,55,1,,response3disk_3,TRUE,4,4,"[114,266,34,104,21,43,201,187,22,33,149,116,133,84,285,225,251,53,226,241]",2.6003,rectangle
,,,,,,,,,,,,,FF,,,,,,,,2.2006,,,,,,,,,,,,,,,,,,,,,,6101b539b62e9ab88656497d,61036db3606dd7586d939d0b,2021-07-29_23h11.52.036,Simcolourproject_2stim_asymm_v5,2020.2.10,Win32,60,61025ae37ef11b136ea224fe,,,,,,,,,1324,44,78,1,0,0,response1disk,,7,10,1,1,0,0,rectangle,10,1,1,0,0,10,1,1,0,0,1,27,187,43,1,,,,,,,,
,,,,,,,,,,,,,FF,,,,,,,,1.3184,,,,,,,,,,,,,,,,,,,,,,6101b539b62e9ab88656497d,61036db3606dd7586d939d0b,2021-07-29_23h11.52.036,Simcolourproject_2stim_asymm_v5,2020.2.10,Win32,60,61025ae37ef11b136ea224fe,,,,,,,,,2719,-82,-63,1,0,0,response5disk,,2,-8,-4,1,0,0,rectangle,-8,-4,1,0,0,-8,-4,1,0,0,1,28,188,134,1,,,,,,,,
,,,,,,,,,,,,,FF,,,,,,,,1.117,,,,,,,,,,,,,,,,,,,,,,6101b539b62e9ab88656497d,61036db3606dd7586d939d0b,2021-07-29_23h11.52.036,Simcolourproject_2stim_asymm_v5,2020.2.10,Win32,60,61025ae37ef11b136ea224fe,,,,,,,,,809,45,65,1,0,0,response1disk,,7,9,10,1,0,0,rectangle,9,10,1,0,0,9,10,1,0,0,1,29,189,34,1,,,,,,,,
,,,,,,,,,,,,,FF,,,,,,,,2.9654,,,,,,,,,,,,,,,,,,,,,,6101b539b62e9ab88656497d,61036db3606dd7586d939d0b,2021-07-29_23h11.52.036,Simcolourproject_2stim_asymm_v5,2020.2.10,Win32,60,61025ae37ef11b136ea224fe,,,,,,,,,321,52,77,1,0,0,response1disk,,7,18,6,1,0,0,rectangle,18,6,1,0,0,18,6,1,0,0,1,30,190,116,1,,,,,,,,
,,,,,,,,,,,,,FF,,,,,,,,0.9345,,,,,,,,,,,,,,,,,,,,,,6101b539b62e9ab88656497d,61036db3606dd7586d939d0b,2021-07-29_23h11.52.036,Simcolourproject_2stim_asymm_v5,2020.2.10,Win32,60,61025ae37ef11b136ea224fe,,,,,,,,,3869,37,52,1,0,0,response1disk,,7,10,5,1,0,0,rectangle,10,5,1,0,0,10,5,1,0,0,1,31,191,126,1,,,,,,,,
,,,,,,,,,,,,,FF,,,,,,,,1.3366,,,,,,,,,,,,,,,,,,,,,,6101b539b62e9ab88656497d,61036db3606dd7586d939d0b,2021-07-29_23h11.52.036,Simcolourproject_2stim_asymm_v5,2020.2.10,Win32,60,61025ae37ef11b136ea224fe,,,,,,,,,77,-36,-63,1,0,0,response5disk,,3,9,11,1,0,0,rectangle,9,11,1,0,0,9,11,1,0,0,1,32,192,37,1,,,,,,,,
,,,,,,,,,,,,,FF,,,,,,,,0.9859,,,,,,,,,,,,,,,,,,,,,,6101b539b62e9ab88656497d,61036db3606dd7586d939d0b,2021-07-29_23h11.52.036,Simcolourproject_2stim_asymm_v5,2020.2.10,Win32,60,61025ae37ef11b136ea224fe,,,,,,,,,2819,26,38,1,0,0,response1disk,,7,6,12,1,0,0,rectangle,6,12,1,0,0,6,12,1,0,0,1,33,193,95,1,,,,,,,,
,,,,,,,,,,,,,FF,,,,,,,,1.0999,,,,,,,,,,,,,,,,,,,,,,6101b539b62e9ab88656497d,61036db3606dd7586d939d0b,2021-07-29_23h11.52.036,Simcolourproject_2stim_asymm_v5,2020.2.10,Win32,60,61025ae37ef11b136ea224fe,,,,,,,,,2670,37,49,1,0,0,response1disk,,7,-11,-4,1,0,0,rectangle,-11,-4,1,0,0,-11,-4,1,0,0,1,34,194,145,1,,,,,,,,
,,,,,,,,,,,,,FF,,,,,,,,1.4678,,,,,,,,,,,,,,,,,,,,,,6101b539b62e9ab88656497d,61036db3606dd7586d939d0b,2021-07-29_23h11.52.036,Simcolourproject_2stim_asymm_v5,2020.2.10,Win32,60,61025ae37ef11b136ea224fe,,,,,,,,,4239,-28,-61,1,0,0,response5disk,,3,-4,5,1,0,0,rectangle,-4,5,1,0,0,-4,5,1,0,0,1,35,195,105,1,,,,,,,,
,,,,,,,,,,,,,FF,,,,,,,,0.8692,,,,,,,,,,,,,,,,,,,,,,6101b539b62e9ab88656497d,61036db3606dd7586d939d0b,2021-07-29_23h11.52.036,Simcolourproject_2stim_asymm_v5,2020.2.10,Win32,60,61025ae37ef11b136ea224fe,,,,,,,,,3940,-25,-61,1,0,0,response5disk,,3,2,-6,1,0,0,rectangle,2,-6,1,0,0,2,-6,1,0,0,1,36,196,6,1,,,,,,,,
,,,,,,,,,,,,,FF,,,,,,,,0.8498,,,,,,,,,,,,,,,,,,,,,,6101b539b62e9ab88656497d,61036db3606dd7586d939d0b,2021-07-29_23h11.52.036,Simcolourproject_2stim_asymm_v5,2020.2.10,Win32,60,61025ae37ef11b136ea224fe,,,,,,,,,3495,23,46,1,0,0,response1disk,,7,-1,10,1,0,0,rectangle,-1,10,1,0,0,-1,10,1,0,0,1,37,197,98,1,,,,,,,,
,,,,,,,,,,,,,FF,,,,,,,,0.85,,,,,,,,,,,,,,,,,,,,,,6101b539b62e9ab88656497d,61036db3606dd7586d939d0b,2021-07-29_23h11.52.036,Simcolourproject_2stim_asymm_v5,2020.2.10,Win32,60,61025ae37ef11b136ea224fe,,,,,,,,,4109,57,100,1,0,0,response1disk,,7,8,5,1,0,0,rectangle,8,5,1,0,0,8,5,1,0,0,1,38,198,156,1,,,,,,,,
,,,,,,,,,,,,,FF,,,,,,,,1.0512,,,,,,,,,,,,,,,,,,,,,,6101b539b62e9ab88656497d,61036db3606dd7586d939d0b,2021-07-29_23h11.52.036,Simcolourproject_2stim_asymm_v5,2020.2.10,Win32,60,61025ae37ef11b136ea224fe,,,,,,,,,1549,66,49,1,0,0,response1disk,,6,1,-2,1,0,0,rectangle,1,-2,1,0,0,1,-2,1,0,0,1,39,199,52,1,,,,,,,,
,,,,,,,,,,,,,FF,,,,,,,,1.3361,,,,,,,,,,,,,,,,,,,,,,6101b539b62e9ab88656497d,61036db3606dd7586d939d0b,2021-07-29_23h11.52.036,Simcolourproject_2stim_asymm_v5,2020.2.10,Win32,60,61025ae37ef11b136ea224fe,,,,,,,,,3819,68,-37,1,0,0,response3disk,,5,11,-2,1,0,0,rectangle,109,68,1,0,0,9,8,1,0,0,1,40,200,130,1,,response1disk_3,TRUE,6,6,"[114,266,34,104,21,43,201,187,22,33,149,116,133,84,285,225,251,53,226,241]",1.8843,rectangle
,,,,,,,,,,,,,FF,,,,,,,,2.5666,,,,,,,,,,,,,,,,,,,,,,6101b539b62e9ab88656497d,61036db3606dd7586d939d0b,2021-07-29_23h11.52.036,Simcolourproject_2stim_asymm_v5,2020.2.10,Win32,60,61025ae37ef11b136ea224fe,,,,,,,,,493,51,71,1,0,0,response1disk,,7,6,-1,1,0,0,rectangle,6,-1,1,0,0,6,-1,1,0,0,1,41,201,69,1,,,,,,,,
,,,,,,,,,,,,,FF,,,,,,,,0.7836,,,,,,,,,,,,,,,,,,,,,,6101b539b62e9ab88656497d,61036db3606dd7586d939d0b,2021-07-29_23h11.52.036,Simcolourproject_2stim_asymm_v5,2020.2.10,Win32,60,61025ae37ef11b136ea224fe,,,,,,,,,1315,54,31,1,0,0,response1disk,,6,-4,-6,1,0,0,rectangle,-4,-6,1,0,0,-4,-6,1,0,0,1,42,202,33,1,,,,,,,,
,,,,,,,,,,,,,FF,,,,,,,,0.7828,,,,,,,,,,,,,,,,,,,,,,6101b539b62e9ab88656497d,61036db3606dd7586d939d0b,2021-07-29_23h11.52.036,Simcolourproject_2stim_asymm_v5,2020.2.10,Win32,60,61025ae37ef11b136ea224fe,,,,,,,,,3023,68,91,1,0,0,response1disk,,7,18,12,1,0,0,rectangle,18,12,1,0,0,18,12,1,0,0,1,43,203,117,1,,,,,,,,
,,,,,,,,,,,,,FF,,,,,,,,0.8335,,,,,,,,,,,,,,,,,,,,,,6101b539b62e9ab88656497d,61036db3606dd7586d939d0b,2021-07-29_23h11.52.036,Simcolourproject_2stim_asymm_v5,2020.2.10,Win32,60,61025ae37ef11b136ea224fe,,,,,,,,,1199,38,60,1,0,0,response1disk,,7,-4,0,1,0,0,rectangle,-4,0,1,0,0,-4,0,1,0,0,1,44,204,72,1,,,,,,,,
,,,,,,,,,,,,,FF,,,,,,,,0.6506,,,,,,,,,,,,,,,,,,,,,,6101b539b62e9ab88656497d,61036db3606dd7586d939d0b,2021-07-29_23h11.52.036,Simcolourproject_2stim_asymm_v5,2020.2.10,Win32,60,61025ae37ef11b136ea224fe,,,,,,,,,64,52,74,1,0,0,response1disk,,7,-2,0,1,0,0,rectangle,-2,0,1,0,0,-2,0,1,0,0,1,45,205,113,1,,,,,,,,
,,,,,,,,,,,,,FF,,,,,,,,1.1514,,,,,,,,,,,,,,,,,,,,,,6101b539b62e9ab88656497d,61036db3606dd7586d939d0b,2021-07-29_23h11.52.036,Simcolourproject_2stim_asymm_v5,2020.2.10,Win32,60,61025ae37ef11b136ea224fe,,,,,,,,,2298,-22,-33,1,0,0,response5disk,,3,3,-1,1,0,0,rectangle,3,-1,1,0,0,3,-1,1,0,0,1,46,206,22,1,,,,,,,,
,,,,,,,,,,,,,FF,,,,,,,,0.8845,,,,,,,,,,,,,,,,,,,,,,6101b539b62e9ab88656497d,61036db3606dd7586d939d0b,2021-07-29_23h11.52.036,Simcolourproject_2stim_asymm_v5,2020.2.10,Win32,60,61025ae37ef11b136ea224fe,,,,,,,,,2173,-42,-79,1,0,0,response5disk,,3,-1,-5,1,0,0,rectangle,-1,-5,1,0,0,-1,-5,1,0,0,1,47,207,97,1,,,,,,,,
,,,,,,,,,,,,,FF,,,,,,,,1.3008,,,,,,,,,,,,,,,,,,,,,,6101b539b62e9ab88656497d,61036db3606dd7586d939d0b,2021-07-29_23h11.52.036,Simcolourproject_2stim_asymm_v5,2020.2.10,Win32,60,61025ae37ef11b136ea224fe,,,,,,,,,2702,31,69,1,0,0,response1disk,,7,-2,4,1,0,0,rectangle,-2,4,1,0,0,-2,4,1,0,0,1,48,208,146,1,,,,,,,,
,,,,,,,,,,,,,FF,,,,,,,,1.1356,,,,,,,,,,,,,,,,,,,,,,6101b539b62e9ab88656497d,61036db3606dd7586d939d0b,2021-07-29_23h11.52.036,Simcolourproject_2stim_asymm_v5,2020.2.10,Win32,60,61025ae37ef11b136ea224fe,,,,,,,,,3314,40,70,1,0,0,response1disk,,7,2,6,1,0,0,rectangle,2,6,1,0,0,2,6,1,0,0,1,49,209,149,1,,,,,,,,
,,,,,,,,,,,,,FF,,,,,,,,0.7341,,,,,,,,,,,,,,,,,,,,,,6101b539b62e9ab88656497d,61036db3606dd7586d939d0b,2021-07-29_23h11.52.036,Simcolourproject_2stim_asymm_v5,2020.2.10,Win32,60,61025ae37ef11b136ea224fe,,,,,,,,,1980,44,79,1,0,0,response1disk,,7,4,7,1,0,0,rectangle,4,7,1,0,0,4,7,1,0,0,1,50,210,118,1,,,,,,,,
,,,,,,,,,,,,,FF,,,,,,,,0.7004,,,,,,,,,,,,,,,,,,,,,,6101b539b62e9ab88656497d,61036db3606dd7586d939d0b,2021-07-29_23h11.52.036,Simcolourproject_2stim_asymm_v5,2020.2.10,Win32,60,61025ae37ef11b136ea224fe,,,,,,,,,2351,35,74,1,0,0,response1disk,,7,0,1,1,0,0,rectangle,0,1,1,0,0,0,1,1,0,0,1,51,211,57,1,,,,,,,,
,,,,,,,,,,,,,FF,,,,,,,,1.0544,,,,,,,,,,,,,,,,,,,,,,6101b539b62e9ab88656497d,61036db3606dd7586d939d0b,2021-07-29_23h11.52.036,Simcolourproject_2stim_asymm_v5,2020.2.10,Win32,60,61025ae37ef11b136ea224fe,,,,,,,,,4048,52,27,1,0,0,response1disk,,6,9,4,1,0,0,rectangle,9,4,1,0,0,9,4,1,0,0,1,52,212,142,1,,,,,,,,
,,,,,,,,,,,,,FF,,,,,,,,1.7502,,,,,,,,,,,,,,,,,,,,,,6101b539b62e9ab88656497d,61036db3606dd7586d939d0b,2021-07-29_23h11.52.036,Simcolourproject_2stim_asymm_v5,2020.2.10,Win32,60,61025ae37ef11b136ea224fe,,,,,,,,,3980,83,16,1,0,0,response1disk,,6,10,-4,1,0,0,rectangle,10,-4,1,0,0,10,-4,1,0,0,1,53,213,24,1,,,,,,,,
,,,,,,,,,,,,,FF,,,,,,,,0.8327,,,,,,,,,,,,,,,,,,,,,,6101b539b62e9ab88656497d,61036db3606dd7586d939d0b,2021-07-29_23h11.52.036,Simcolourproject_2stim_asymm_v5,2020.2.10,Win32,60,61025ae37ef11b136ea224fe,,,,,,,,,320,32,51,1,0,0,response1disk,,7,-5,-4,1,0,0,rectangle,-5,-4,1,0,0,-5,-4,1,0,0,1,54,214,35,1,,,,,,,,
,,,,,,,,,,,,,FF,,,,,,,,1.2332,,,,,,,,,,,,,,,,,,,,,,6101b539b62e9ab88656497d,61036db3606dd7586d939d0b,2021-07-29_23h11.52.036,Simcolourproject_2stim_asymm_v5,2020.2.10,Win32,60,61025ae37ef11b136ea224fe,,,,,,,,,1235,77,-75,1,0,0,response3disk,,5,18,-5,1,0,0,rectangle,18,-5,1,0,0,18,-5,1,0,0,1,55,215,29,1,,,,,,,,
,,,,,,,,,,,,,FF,,,,,,,,0.9825,,,,,,,,,,,,,,,,,,,,,,6101b539b62e9ab88656497d,61036db3606dd7586d939d0b,2021-07-29_23h11.52.036,Simcolourproject_2stim_asymm_v5,2020.2.10,Win32,60,61025ae37ef11b136ea224fe,,,,,,,,,2978,41,60,1,0,0,response1disk,,7,3,5,1,0,0,rectangle,3,5,1,0,0,3,5,1,0,0,1,56,216,66,1,,,,,,,,
,,,,,,,,,,,,,FF,,,,,,,,0.8495,,,,,,,,,,,,,,,,,,,,,,6101b539b62e9ab88656497d,61036db3606dd7586d939d0b,2021-07-29_23h11.52.036,Simcolourproject_2stim_asymm_v5,2020.2.10,Win32,60,61025ae37ef11b136ea224fe,,,,,,,,,3595,65,57,1,0,0,response1disk,,6,15,5,1,0,0,rectangle,15,5,1,0,0,15,5,1,0,0,1,57,217,107,1,,,,,,,,
,,,,,,,,,,,,,FF,,,,,,,,1.0974,,,,,,,,,,,,,,,,,,,,,,6101b539b62e9ab88656497d,61036db3606dd7586d939d0b,2021-07-29_23h11.52.036,Simcolourproject_2stim_asymm_v5,2020.2.10,Win32,60,61025ae37ef11b136ea224fe,,,,,,,,,1227,-37,-90,1,0,0,response5disk,,3,-1,-4,1,0,0,rectangle,-1,-4,1,0,0,-1,-4,1,0,0,1,58,218,150,1,,,,,,,,
,,,,,,,,,,,,,FF,,,,,,,,1.7166,,,,,,,,,,,,,,,,,,,,,,6101b539b62e9ab88656497d,61036db3606dd7586d939d0b,2021-07-29_23h11.52.036,Simcolourproject_2stim_asymm_v5,2020.2.10,Win32,60,61025ae37ef11b136ea224fe,,,,,,,,,4338,68,34,1,0,0,response1disk,,6,17,-1,1,0,0,rectangle,17,-1,1,0,0,17,-1,1,0,0,1,59,219,7,1,,,,,,,,
,,,,,,,,,,,,,FF,,,,,,,,0.8006,,,,,,,,,,,,,,,,,,,,,,6101b539b62e9ab88656497d,61036db3606dd7586d939d0b,2021-07-29_23h11.52.036,Simcolourproject_2stim_asymm_v5,2020.2.10,Win32,60,61025ae37ef11b136ea224fe,,,,,,,,,934,41,64,1,0,0,response1disk,,7,13,7,1,0,0,rectangle,13,7,1,0,0,13,7,1,0,0,1,60,220,106,1,,,,,,,,
,,,,,,,,,,,,,FF,,,,,,,,1.0332,,,,,,,,,,,,,,,,,,,,,,6101b539b62e9ab88656497d,61036db3606dd7586d939d0b,2021-07-29_23h11.52.036,Simcolourproject_2stim_asymm_v5,2020.2.10,Win32,60,61025ae37ef11b136ea224fe,,,,,,,,,537,35,53,1,0,0,response1disk,,7,15,4,1,0,0,rectangle,15,4,1,0,0,15,4,1,0,0,1,61,221,101,1,,,,,,,,
,,,,,,,,,,,,,FF,,,,,,,,1.0829,,,,,,,,,,,,,,,,,,,,,,6101b539b62e9ab88656497d,61036db3606dd7586d939d0b,2021-07-29_23h11.52.036,Simcolourproject_2stim_asymm_v5,2020.2.10,Win32,60,61025ae37ef11b136ea224fe,,,,,,,,,977,83,-53,1,0,0,response3disk,,5,-20,7,1,0,0,rectangle,-20,7,1,0,0,-20,7,1,0,0,1,62,222,51,1,,,,,,,,
,,,,,,,,,,,,,FF,,,,,,,,1.666,,,,,,,,,,,,,,,,,,,,,,6101b539b62e9ab88656497d,61036db3606dd7586d939d0b,2021-07-29_23h11.52.036,Simcolourproject_2stim_asymm_v5,2020.2.10,Win32,60,61025ae37ef11b136ea224fe,,,,,,,,,2233,-61,46,1,0,0,response7disk,,1,-4,-7,1,0,0,rectangle,-4,-7,1,0,0,-4,-7,1,0,0,1,63,223,48,1,,,,,,,,
,,,,,,,,,,,,,FF,,,,,,,,1.4885,,,,,,,,,,,,,,,,,,,,,,6101b539b62e9ab88656497d,61036db3606dd7586d939d0b,2021-07-29_23h11.52.036,Simcolourproject_2stim_asymm_v5,2020.2.10,Win32,60,61025ae37ef11b136ea224fe,,,,,,,,,950,39,87,1,0,0,response1disk,,7,-6,9,1,0,0,rectangle,59,94,1,0,0,-6,-4,1,0,0,1,64,224,1,1,,response1disk_3,TRUE,7,7,"[114,266,34,104,21,43,201,187,22,33,149,116,133,84,285,225,251,53,226,241]",1.4982,rectangle
,,,,,,,,,,,,,FF,,,,,,,,1.7195,,,,,,,,,,,,,,,,,,,,,,6101b539b62e9ab88656497d,61036db3606dd7586d939d0b,2021-07-29_23h11.52.036,Simcolourproject_2stim_asymm_v5,2020.2.10,Win32,60,61025ae37ef11b136ea224fe,,,,,,,,,3863,48,99,1,0,0,response1disk,,7,3,1,1,0,0,rectangle,35,-75,1,0,0,10,-1,1,0,0,1,65,225,128,1,,response3disk_3,TRUE,4,4,"[114,266,34,104,21,43,201,187,22,33,149,116,133,84,285,225,251,53,226,241]",2.1328,rectangle
,,,,,,,,,,,,,FF,,,,,,,,2.7155,,,,,,,,,,,,,,,,,,,,,,6101b539b62e9ab88656497d,61036db3606dd7586d939d0b,2021-07-29_23h11.52.036,Simcolourproject_2stim_asymm_v5,2020.2.10,Win32,60,61025ae37ef11b136ea224fe,,,,,,,,,2728,88,-34,1,0,0,response3disk,,5,20,10,1,0,0,rectangle,20,10,1,0,0,20,10,1,0,0,1,66,226,0,1,,,,,,,,
,,,,,,,,,,,,,FF,,,,,,,,0.9852,,,,,,,,,,,,,,,,,,,,,,6101b539b62e9ab88656497d,61036db3606dd7586d939d0b,2021-07-29_23h11.52.036,Simcolourproject_2stim_asymm_v5,2020.2.10,Win32,60,61025ae37ef11b136ea224fe,,,,,,,,,4214,48,71,1,0,0,response1disk,,7,10,0,1,0,0,rectangle,10,0,1,0,0,10,0,1,0,0,1,67,227,9,1,,,,,,,,
,,,,,,,,,,,,,FF,,,,,,,,0.8496,,,,,,,,,,,,,,,,,,,,,,6101b539b62e9ab88656497d,61036db3606dd7586d939d0b,2021-07-29_23h11.52.036,Simcolourproject_2stim_asymm_v5,2020.2.10,Win32,60,61025ae37ef11b136ea224fe,,,,,,,,,1933,41,114,1,0,0,response1disk,,7,13,6,1,0,0,rectangle,13,6,1,0,0,13,6,1,0,0,1,68,228,49,1,,,,,,,,
,,,,,,,,,,,,,FF,,,,,,,,0.6339,,,,,,,,,,,,,,,,,,,,,,6101b539b62e9ab88656497d,61036db3606dd7586d939d0b,2021-07-29_23h11.52.036,Simcolourproject_2stim_asymm_v5,2020.2.10,Win32,60,61025ae37ef11b136ea224fe,,,,,,,,,689,51,92,1,0,0,response1disk,,7,-2,-6,1,0,0,rectangle,-2,-6,1,0,0,-2,-6,1,0,0,1,69,229,100,1,,,,,,,,
,,,,,,,,,,,,,FF,,,,,,,,0.6491,,,,,,,,,,,,,,,,,,,,,,6101b539b62e9ab88656497d,61036db3606dd7586d939d0b,2021-07-29_23h11.52.036,Simcolourproject_2stim_asymm_v5,2020.2.10,Win32,60,61025ae37ef11b136ea224fe,,,,,,,,,2214,42,53,1,0,0,response1disk,,7,0,-2,1,0,0,rectangle,0,-2,1,0,0,0,-2,1,0,0,1,70,230,20,1,,,,,,,,
,,,,,,,,,,,,,FF,,,,,,,,0.7178,,,,,,,,,,,,,,,,,,,,,,6101b539b62e9ab88656497d,61036db3606dd7586d939d0b,2021-07-29_23h11.52.036,Simcolourproject_2stim_asymm_v5,2020.2.10,Win32,60,61025ae37ef11b136ea224fe,,,,,,,,,1575,84,65,1,0,0,response1disk,,6,14,-3,1,0,0,rectangle,14,-3,1,0,0,14,-3,1,0,0,1,71,231,16,1,,,,,,,,
,,,,,,,,,,,,,FF,,,,,,,,0.6806,,,,,,,,,,,,,,,,,,,,,,6101b539b62e9ab88656497d,61036db3606dd7586d939d0b,2021-07-29_23h11.52.036,Simcolourproject_2stim_asymm_v5,2020.2.10,Win32,60,61025ae37ef11b136ea224fe,,,,,,,,,1350,54,73,1,0,0,response1disk,,7,1,6,1,0,0,rectangle,1,6,1,0,0,1,6,1,0,0,1,72,232,30,1,,,,,,,,
,,,,,,,,,,,,,FF,,,,,,,,0.4995,,,,,,,,,,,,,,,,,,,,,,6101b539b62e9ab88656497d,61036db3606dd7586d939d0b,2021-07-29_23h11.52.036,Simcolourproject_2stim_asymm_v5,2020.2.10,Win32,60,61025ae37ef11b136ea224fe,,,,,,,,,670,68,102,1,0,0,response1disk,,7,11,0,1,0,0,rectangle,11,0,1,0,0,11,0,1,0,0,1,73,233,83,1,,,,,,,,
,,,,,,,,,,,,,FF,,,,,,,,1.0011,,,,,,,,,,,,,,,,,,,,,,6101b539b62e9ab88656497d,61036db3606dd7586d939d0b,2021-07-29_23h11.52.036,Simcolourproject_2stim_asymm_v5,2020.2.10,Win32,60,61025ae37ef11b136ea224fe,,,,,,,,,1863,29,49,1,0,0,response1disk,,7,4,6,1,0,0,rectangle,4,6,1,0,0,4,6,1,0,0,1,74,234,64,1,,,,,,,,
,,,,,,,,,,,,,FF,,,,,,,,0.6987,,,,,,,,,,,,,,,,,,,,,,6101b539b62e9ab88656497d,61036db3606dd7586d939d0b,2021-07-29_23h11.52.036,Simcolourproject_2stim_asymm_v5,2020.2.10,Win32,60,61025ae37ef11b136ea224fe,,,,,,,,,4094,27,55,1,0,0,response1disk,,7,5,14,1,0,0,rectangle,5,14,1,0,0,5,14,1,0,0,1,75,235,11,1,,,,,,,,
,,,,,,,,,,,,,FF,,,,,,,,1.0159,,,,,,,,,,,,,,,,,,,,,,6101b539b62e9ab88656497d,61036db3606dd7586d939d0b,2021-07-29_23h11.52.036,Simcolourproject_2stim_asymm_v5,2020.2.10,Win32,60,61025ae37ef11b136ea224fe,,,,,,,,,1062,89,33,1,0,0,response1disk,,6,-1,6,1,0,0,rectangle,-1,6,1,0,0,-1,6,1,0,0,1,76,236,44,1,,,,,,,,
,,,,,,,,,,,,,FF,,,,,,,,0.7838,,,,,,,,,,,,,,,,,,,,,,6101b539b62e9ab88656497d,61036db3606dd7586d939d0b,2021-07-29_23h11.52.036,Simcolourproject_2stim_asymm_v5,2020.2.10,Win32,60,61025ae37ef11b136ea224fe,,,,,,,,,580,33,81,1,0,0,response1disk,,7,3,11,1,0,0,rectangle,3,11,1,0,0,3,11,1,0,0,1,77,237,147,1,,,,,,,,
,,,,,,,,,,,,,FF,,,,,,,,0.5345,,,,,,,,,,,,,,,,,,,,,,6101b539b62e9ab88656497d,61036db3606dd7586d939d0b,2021-07-29_23h11.52.036,Simcolourproject_2stim_asymm_v5,2020.2.10,Win32,60,61025ae37ef11b136ea224fe,,,,,,,,,1348,45,66,1,0,0,response1disk,,7,12,10,1,0,0,rectangle,12,10,1,0,0,12,10,1,0,0,1,78,238,68,1,,,,,,,,
,,,,,,,,,,,,,FF,,,,,,,,0.4,,,,,,,,,,,,,,,,,,,,,,6101b539b62e9ab88656497d,61036db3606dd7586d939d0b,2021-07-29_23h11.52.036,Simcolourproject_2stim_asymm_v5,2020.2.10,Win32,60,61025ae37ef11b136ea224fe,,,,,,,,,2871,62,84,1,0,0,response1disk,,7,8,0,1,0,0,rectangle,8,0,1,0,0,8,0,1,0,0,1,79,239,109,1,,,,,,,,
,,,,,,,,,,,,,FF,,,,,,,,0.7497,,,,,,,,,,,,,,,,,,,,,,6101b539b62e9ab88656497d,61036db3606dd7586d939d0b,2021-07-29_23h11.52.036,Simcolourproject_2stim_asymm_v5,2020.2.10,Win32,60,61025ae37ef11b136ea224fe,,,,,,,,,2200,38,57,1,0,0,response1disk,,7,14,8,1,0,0,rectangle,79,-34,1,0,0,10,-3,1,0,0,1,80,240,13,1,,response3disk_3,TRUE,5,5,"[114,266,34,104,21,43,201,187,22,33,149,116,133,84,285,225,251,53,226,241]",2.2503,rectangle
,,,,,,,,,,,,,FF,,,,,,,,0.9004,,,,,,,,,,,,,,,,,,,,,,6101b539b62e9ab88656497d,61036db3606dd7586d939d0b,2021-07-29_23h11.52.036,Simcolourproject_2stim_asymm_v5,2020.2.10,Win32,60,61025ae37ef11b136ea224fe,,,,,,,,,3871,33,73,1,0,0,response1disk,,7,-2,0,1,0,0,rectangle,-2,0,1,0,0,-2,0,1,0,0,1,81,241,12,1,,,,,,,,
,,,,,,,,,,,,,FF,,,,,,,,2.0195,,,,,,,,,,,,,,,,,,,,,,6101b539b62e9ab88656497d,61036db3606dd7586d939d0b,2021-07-29_23h11.52.036,Simcolourproject_2stim_asymm_v5,2020.2.10,Win32,60,61025ae37ef11b136ea224fe,,,,,,,,,931,34,57,1,0,0,response1disk,,7,3,7,1,0,0,rectangle,3,7,1,0,0,3,7,1,0,0,1,82,242,70,1,,,,,,,,
,,,,,,,,,,,,,FF,,,,,,,,4.7323,,,,,,,,,,,,,,,,,,,,,,6101b539b62e9ab88656497d,61036db3606dd7586d939d0b,2021-07-29_23h11.52.036,Simcolourproject_2stim_asymm_v5,2020.2.10,Win32,60,61025ae37ef11b136ea224fe,,,,,,,,,488,49,56,1,0,0,response1disk,,7,8,3,1,0,0,rectangle,8,3,1,0,0,8,3,1,0,0,1,83,243,141,1,,,,,,,,
,,,,,,,,,,,,,FF,,,,,,,,0.7666,,,,,,,,,,,,,,,,,,,,,,6101b539b62e9ab88656497d,61036db3606dd7586d939d0b,2021-07-29_23h11.52.036,Simcolourproject_2stim_asymm_v5,2020.2.10,Win32,60,61025ae37ef11b136ea224fe,,,,,,,,,601,38,57,1,0,0,response1disk,,7,-2,0,1,0,0,rectangle,-2,0,1,0,0,-2,0,1,0,0,1,84,244,153,1,,,,,,,,
,,,,,,,,,,,,,FF,,,,,,,,0.6001,,,,,,,,,,,,,,,,,,,,,,6101b539b62e9ab88656497d,61036db3606dd7586d939d0b,2021-07-29_23h11.52.036,Simcolourproject_2stim_asymm_v5,2020.2.10,Win32,60,61025ae37ef11b136ea224fe,,,,,,,,,2399,29,53,1,0,0,response1disk,,7,-4,-5,1,0,0,rectangle,-4,-5,1,0,0,-4,-5,1,0,0,1,85,245,99,1,,,,,,,,
,,,,,,,,,,,,,FF,,,,,,,,0.7159,,,,,,,,,,,,,,,,,,,,,,6101b539b62e9ab88656497d,61036db3606dd7586d939d0b,2021-07-29_23h11.52.036,Simcolourproject_2stim_asymm_v5,2020.2.10,Win32,60,61025ae37ef11b136ea224fe,,,,,,,,,2198,34,78,1,0,0,response1disk,,7,9,15,1,0,0,rectangle,9,15,1,0,0,9,15,1,0,0,1,86,246,2,1,,,,,,,,
,,,,,,,,,,,,,FF,,,,,,,,0.6007,,,,,,,,,,,,,,,,,,,,,,6101b539b62e9ab88656497d,61036db3606dd7586d939d0b,2021-07-29_23h11.52.036,Simcolourproject_2stim_asymm_v5,2020.2.10,Win32,60,61025ae37ef11b136ea224fe,,,,,,,,,2864,38,71,1,0,0,response1disk,,7,1,6,1,0,0,rectangle,1,6,1,0,0,1,6,1,0,0,1,87,247,14,1,,,,,,,,
,,,,,,,,,,,,,FF,,,,,,,,1.0501,,,,,,,,,,,,,,,,,,,,,,6101b539b62e9ab88656497d,61036db3606dd7586d939d0b,2021-07-29_23h11.52.036,Simcolourproject_2stim_asymm_v5,2020.2.10,Win32,60,61025ae37ef11b136ea224fe,,,,,,,,,3201,74,-43,1,0,0,response3disk,,5,13,-5,1,0,0,rectangle,13,-5,1,0,0,13,-5,1,0,0,1,88,248,60,1,,,,,,,,
,,,,,,,,,,,,,FF,,,,,,,,1.0663,,,,,,,,,,,,,,,,,,,,,,6101b539b62e9ab88656497d,61036db3606dd7586d939d0b,2021-07-29_23h11.52.036,Simcolourproject_2stim_asymm_v5,2020.2.10,Win32,60,61025ae37ef11b136ea224fe,,,,,,,,,1822,-30,48,1,0,0,response7disk,,0,-13,15,1,0,0,rectangle,-13,15,1,0,0,-13,15,1,0,0,1,89,249,41,1,,,,,,,,
,,,,,,,,,,,,,FF,,,,,,,,1.1873,,,,,,,,,,,,,,,,,,,,,,6101b539b62e9ab88656497d,61036db3606dd7586d939d0b,2021-07-29_23h11.52.036,Simcolourproject_2stim_asymm_v5,2020.2.10,Win32,60,61025ae37ef11b136ea224fe,,,,,,,,,3389,-49,30,1,0,0,response7disk,,1,-17,6,1,0,0,rectangle,-41,104,1,0,0,-7,-3,1,0,0,1,90,250,5,1,,response7disk_3,TRUE,0,0,"[114,266,34,104,21,43,201,187,22,33,149,116,133,84,285,225,251,53,226,241]",1.5502,rectangle
,,,,,,,,,,,,,FF,,,,,,,,1.1168,,,,,,,,,,,,,,,,,,,,,,6101b539b62e9ab88656497d,61036db3606dd7586d939d0b,2021-07-29_23h11.52.036,Simcolourproject_2stim_asymm_v5,2020.2.10,Win32,60,61025ae37ef11b136ea224fe,,,,,,,,,2185,22,56,1,0,0,response1disk,,7,-2,4,1,0,0,rectangle,-2,4,1,0,0,-2,4,1,0,0,1,91,251,94,1,,,,,,,,
,,,,,,,,,,,,,FF,,,,,,,,1.1167,,,,,,,,,,,,,,,,,,,,,,6101b539b62e9ab88656497d,61036db3606dd7586d939d0b,2021-07-29_23h11.52.036,Simcolourproject_2stim_asymm_v5,2020.2.10,Win32,60,61025ae37ef11b136ea224fe,,,,,,,,,1369,-68,-33,1,0,0,response5disk,,2,-14,-4,1,0,0,rectangle,-14,-4,1,0,0,-14,-4,1,0,0,1,92,252,119,1,,,,,,,,
,,,,,,,,,,,,,FF,,,,,,,,1.8175,,,,,,,,,,,,,,,,,,,,,,6101b539b62e9ab88656497d,61036db3606dd7586d939d0b,2021-07-29_23h11.52.036,Simcolourproject_2stim_asymm_v5,2020.2.10,Win32,60,61025ae37ef11b136ea224fe,,,,,,,,,954,33,-107,1,0,0,response3disk,,4,-12,1,1,0,0,rectangle,-12,1,1,0,0,-12,1,1,0,0,1,93,253,3,1,,,,,,,,
,,,,,,,,,,,,,FF,,,,,,,,2.9841,,,,,,,,,,,,,,,,,,,,,,6101b539b62e9ab88656497d,61036db3606dd7586d939d0b,2021-07-29_23h11.52.036,Simcolourproject_2stim_asymm_v5,2020.2.10,Win32,60,61025ae37ef11b136ea224fe,,,,,,,,,2210,101,44,1,0,0,response1disk,,6,22,7,1,0,0,rectangle,22,7,1,0,0,22,7,1,0,0,1,94,254,74,1,,,,,,,,
,,,,,,,,,,,,,FF,,,,,,,,0.8806,,,,,,,,,,,,,,,,,,,,,,6101b539b62e9ab88656497d,61036db3606dd7586d939d0b,2021-07-29_23h11.52.036,Simcolourproject_2stim_asymm_v5,2020.2.10,Win32,60,61025ae37ef11b136ea224fe,,,,,,,,,2964,78,91,1,0,0,response1disk,,7,33,11,1,0,0,rectangle,33,11,1,0,0,33,11,1,0,0,1,95,255,125,1,,,,,,,,
,,,,,,,,,,,,,FF,,,,,,,,1.5839,,,,,,,,,,,,,,,,,,,,,,6101b539b62e9ab88656497d,61036db3606dd7586d939d0b,2021-07-29_23h11.52.036,Simcolourproject_2stim_asymm_v5,2020.2.10,Win32,60,61025ae37ef11b136ea224fe,,,,,,,,,368,-45,-77,1,0,0,response5disk,,3,-17,-12,1,0,0,rectangle,-17,-12,1,0,0,-17,-12,1,0,0,1,96,256,50,1,,,,,,,,
,,,,,,,,,,,,,FF,,,,,,,,0.7504,,,,,,,,,,,,,,,,,,,,,,6101b539b62e9ab88656497d,61036db3606dd7586d939d0b,2021-07-29_23h11.52.036,Simcolourproject_2stim_asymm_v5,2020.2.10,Win32,60,61025ae37ef11b136ea224fe,,,,,,,,,2797,54,109,1,0,0,response1disk,,7,-12,-3,1,0,0,rectangle,-12,-3,1,0,0,-12,-3,1,0,0,1,97,257,18,1,,,,,,,,
,,,,,,,,,,,,,FF,,,,,,,,0.7503,,,,,,,,,,,,,,,,,,,,,,6101b539b62e9ab88656497d,61036db3606dd7586d939d0b,2021-07-29_23h11.52.036,Simcolourproject_2stim_asymm_v5,2020.2.10,Win32,60,61025ae37ef11b136ea224fe,,,,,,,,,1712,34,53,1,0,0,response1disk,,7,-1,4,1,0,0,rectangle,-1,4,1,0,0,-1,4,1,0,0,1,98,258,108,1,,,,,,,,
,,,,,,,,,,,,,FF,,,,,,,,1.2503,,,,,,,,,,,,,,,,,,,,,,6101b539b62e9ab88656497d,61036db3606dd7586d939d0b,2021-07-29_23h11.52.036,Simcolourproject_2stim_asymm_v5,2020.2.10,Win32,60,61025ae37ef11b136ea224fe,,,,,,,,,1118,94,57,1,0,0,response1disk,,6,4,0,1,0,0,rectangle,4,0,1,0,0,4,0,1,0,0,1,99,259,104,1,,,,,,,,
,,,,,,,,,,,,,FF,,,,,,,,1.8178,,,,,,,,,,,,,,,,,,,,,,6101b539b62e9ab88656497d,61036db3606dd7586d939d0b,2021-07-29_23h11.52.036,Simcolourproject_2stim_asymm_v5,2020.2.10,Win32,60,61025ae37ef11b136ea224fe,,,,,,,,,1765,72,23,1,0,0,response1disk,,6,20,-2,1,0,0,rectangle,20,-2,1,0,0,20,-2,1,0,0,1,100,260,136,1,,,,,,,,
,,,,,,,,,,,,,FF,,,,,,,,0.8656,,,,,,,,,,,,,,,,,,,,,,6101b539b62e9ab88656497d,61036db3606dd7586d939d0b,2021-07-29_23h11.52.036,Simcolourproject_2stim_asymm_v5,2020.2.10,Win32,60,61025ae37ef11b136ea224fe,,,,,,,,,3282,53,74,1,0,0,response1disk,,7,-2,-3,1,0,0,rectangle,-2,-3,1,0,0,-2,-3,1,0,0,1,101,261,58,1,,,,,,,,
,,,,,,,,,,,,,FF,,,,,,,,0.7326,,,,,,,,,,,,,,,,,,,,,,6101b539b62e9ab88656497d,61036db3606dd7586d939d0b,2021-07-29_23h11.52.036,Simcolourproject_2stim_asymm_v5,2020.2.10,Win32,60,61025ae37ef11b136ea224fe,,,,,,,,,421,37,49,1,0,0,response1disk,,7,12,5,1,0,0,rectangle,12,5,1,0,0,12,5,1,0,0,1,102,262,47,1,,,,,,,,
,,,,,,,,,,,,,FF,,,,,,,,1.0673,,,,,,,,,,,,,,,,,,,,,,6101b539b62e9ab88656497d,61036db3606dd7586d939d0b,2021-07-29_23h11.52.036,Simcolourproject_2stim_asymm_v5,2020.2.10,Win32,60,61025ae37ef11b136ea224fe,,,,,,,,,1415,67,32,1,0,0,response1disk,,6,28,7,1,0,0,rectangle,28,7,1,0,0,28,7,1,0,0,1,103,263,80,1,,,,,,,,
,,,,,,,,,,,,,FF,,,,,,,,0.7836,,,,,,,,,,,,,,,,,,,,,,6101b539b62e9ab88656497d,61036db3606dd7586d939d0b,2021-07-29_23h11.52.036,Simcolourproject_2stim_asymm_v5,2020.2.10,Win32,60,61025ae37ef11b136ea224fe,,,,,,,,,4039,66,35,1,0,0,response1disk,,6,15,1,1,0,0,rectangle,15,1,1,0,0,15,1,1,0,0,1,104,264,32,1,,,,,,,,
,,,,,,,,,,,,,FF,,,,,,,,1.0491,,,,,,,,,,,,,,,,,,,,,,6101b539b62e9ab88656497d,61036db3606dd7586d939d0b,2021-07-29_23h11.52.036,Simcolourproject_2stim_asymm_v5,2020.2.10,Win32,60,61025ae37ef11b136ea224fe,,,,,,,,,3274,25,51,1,0,0,response1disk,,7,7,-3,1,0,0,rectangle,-111,52,1,0,0,-9,4,1,0,0,1,105,265,71,1,,response7disk_3,TRUE,1,1,"[114,266,34,104,21,43,201,187,22,33,149,116,133,84,285,225,251,53,226,241]",1.2826,rectangle
,,,,,,,,,,,,,FF,,,,,,,,1.1343,,,,,,,,,,,,,,,,,,,,,,6101b539b62e9ab88656497d,61036db3606dd7586d939d0b,2021-07-29_23h11.52.036,Simcolourproject_2stim_asymm_v5,2020.2.10,Win32,60,61025ae37ef11b136ea224fe,,,,,,,,,842,32,68,1,0,0,response1disk,,7,0,3,1,0,0,rectangle,0,3,1,0,0,0,3,1,0,0,1,106,266,111,1,,,,,,,,
,,,,,,,,,,,,,FF,,,,,,,,0.6829,,,,,,,,,,,,,,,,,,,,,,6101b539b62e9ab88656497d,61036db3606dd7586d939d0b,2021-07-29_23h11.52.036,Simcolourproject_2stim_asymm_v5,2020.2.10,Win32,60,61025ae37ef11b136ea224fe,,,,,,,,,1514,32,54,1,0,0,response1disk,,7,0,2,1,0,0,rectangle,0,2,1,0,0,0,2,1,0,0,1,107,267,23,1,,,,,,,,
,,,,,,,,,,,,,FF,,,,,,,,0.6317,,,,,,,,,,,,,,,,,,,,,,6101b539b62e9ab88656497d,61036db3606dd7586d939d0b,2021-07-29_23h11.52.036,Simcolourproject_2stim_asymm_v5,2020.2.10,Win32,60,61025ae37ef11b136ea224fe,,,,,,,,,3277,31,54,1,0,0,response1disk,,7,4,7,1,0,0,rectangle,4,7,1,0,0,4,7,1,0,0,1,108,268,17,1,,,,,,,,
,,,,,,,,,,,,,FF,,,,,,,,1.466,,,,,,,,,,,,,,,,,,,,,,6101b539b62e9ab88656497d,61036db3606dd7586d939d0b,2021-07-29_23h11.52.036,Simcolourproject_2stim_asymm_v5,2020.2.10,Win32,60,61025ae37ef11b136ea224fe,,,,,,,,,4291,66,56,1,0,0,response1disk,,6,7,9,1,0,0,rectangle,7,9,1,0,0,7,9,1,0,0,1,109,269,31,1,,,,,,,,
,,,,,,,,,,,,,FF,,,,,,,,0.8025,,,,,,,,,,,,,,,,,,,,,,6101b539b62e9ab88656497d,61036db3606dd7586d939d0b,2021-07-29_23h11.52.036,Simcolourproject_2stim_asymm_v5,2020.2.10,Win32,60,61025ae37ef11b136ea224fe,,,,,,,,,3488,32,68,1,0,0,response1disk,,7,-2,-1,1,0,0,rectangle,-2,-1,1,0,0,-2,-1,1,0,0,1,110,270,76,1,,,,,,,,
,,,,,,,,,,,,,FF,,,,,,,,1.6327,,,,,,,,,,,,,,,,,,,,,,6101b539b62e9ab88656497d,61036db3606dd7586d939d0b,2021-07-29_23h11.52.036,Simcolourproject_2stim_asymm_v5,2020.2.10,Win32,60,61025ae37ef11b136ea224fe,,,,,,,,,3104,97,-55,1,0,0,response3disk,,5,21,-6,1,0,0,rectangle,21,-6,1,0,0,21,-6,1,0,0,1,111,271,25,1,,,,,,,,
,,,,,,,,,,,,,FF,,,,,,,,1.1172,,,,,,,,,,,,,,,,,,,,,,6101b539b62e9ab88656497d,61036db3606dd7586d939d0b,2021-07-29_23h11.52.036,Simcolourproject_2stim_asymm_v5,2020.2.10,Win32,60,61025ae37ef11b136ea224fe,,,,,,,,,264,50,-56,1,0,0,response3disk,,4,15,-12,1,0,0,rectangle,15,-12,1,0,0,15,-12,1,0,0,1,112,272,79,1,,,,,,,,
,,,,,,,,,,,,,FF,,,,,,,,1.0167,,,,,,,,,,,,,,,,,,,,,,6101b539b62e9ab88656497d,61036db3606dd7586d939d0b,2021-07-29_23h11.52.036,Simcolourproject_2stim_asymm_v5,2020.2.10,Win32,60,61025ae37ef11b136ea224fe,,,,,,,,,1074,98,-41,1,0,0,response3disk,,5,-1,0,1,0,0,rectangle,-1,0,1,0,0,-1,0,1,0,0,1,113,273,137,1,,,,,,,,
,,,,,,,,,,,,,FF,,,,,,,,0.9678,,,,,,,,,,,,,,,,,,,,,,6101b539b62e9ab88656497d,61036db3606dd7586d939d0b,2021-07-29_23h11.52.036,Simcolourproject_2stim_asymm_v5,2020.2.10,Win32,60,61025ae37ef11b136ea224fe,,,,,,,,,234,33,60,1,0,0,response1disk,,7,22,5,1,0,0,rectangle,22,5,1,0,0,22,5,1,0,0,1,114,274,67,1,,,,,,,,
,,,,,,,,,,,,,FF,,,,,,,,1.0659,,,,,,,,,,,,,,,,,,,,,,6101b539b62e9ab88656497d,61036db3606dd7586d939d0b,2021-07-29_23h11.52.036,Simcolourproject_2stim_asymm_v5,2020.2.10,Win32,60,61025ae37ef11b136ea224fe,,,,,,,,,4350,-30,53,1,0,0,response7disk,,0,-3,0,1,0,0,rectangle,-3,0,1,0,0,-3,0,1,0,0,1,115,275,62,1,,,,,,,,
,,,,,,,,,,,,,FF,,,,,,,,1.8529,,,,,,,,,,,,,,,,,,,,,,6101b539b62e9ab88656497d,61036db3606dd7586d939d0b,2021-07-29_23h11.52.036,Simcolourproject_2stim_asymm_v5,2020.2.10,Win32,60,61025ae37ef11b136ea224fe,,,,,,,,,459,33,-100,1,0,0,response3disk,,4,-10,2,1,0,0,rectangle,-10,2,1,0,0,-10,2,1,0,0,1,116,276,121,1,,,,,,,,
,,,,,,,,,,,,,FF,,,,,,,,1.1003,,,,,,,,,,,,,,,,,,,,,,6101b539b62e9ab88656497d,61036db3606dd7586d939d0b,2021-07-29_23h11.52.036,Simcolourproject_2stim_asymm_v5,2020.2.10,Win32,60,61025ae37ef11b136ea224fe,,,,,,,,,1260,58,112,1,0,0,response1disk,,7,16,11,1,0,0,rectangle,16,11,1,0,0,16,11,1,0,0,1,117,277,46,1,,,,,,,,
,,,,,,,,,,,,,FF,,,,,,,,0.7673,,,,,,,,,,,,,,,,,,,,,,6101b539b62e9ab88656497d,61036db3606dd7586d939d0b,2021-07-29_23h11.52.036,Simcolourproject_2stim_asymm_v5,2020.2.10,Win32,60,61025ae37ef11b136ea224fe,,,,,,,,,2822,41,92,1,0,0,response1disk,,7,11,4,1,0,0,rectangle,11,4,1,0,0,11,4,1,0,0,1,118,278,61,1,,,,,,,,
,,,,,,,,,,,,,FF,,,,,,,,1.1001,,,,,,,,,,,,,,,,,,,,,,6101b539b62e9ab88656497d,61036db3606dd7586d939d0b,2021-07-29_23h11.52.036,Simcolourproject_2stim_asymm_v5,2020.2.10,Win32,60,61025ae37ef11b136ea224fe,,,,,,,,,209,27,68,1,0,0,response1disk,,7,-1,-6,1,0,0,rectangle,-1,-6,1,0,0,-1,-6,1,0,0,1,119,279,84,1,,,,,,,,
,,,,,,,,,,,,,FF,,,,,,,,1.3342,,,,,,,,,,,,,,,,,,,,,,6101b539b62e9ab88656497d,61036db3606dd7586d939d0b,2021-07-29_23h11.52.036,Simcolourproject_2stim_asymm_v5,2020.2.10,Win32,60,61025ae37ef11b136ea224fe,,,,,,,,,3107,78,40,1,0,0,response1disk,,6,15,-4,1,0,0,rectangle,15,-4,1,0,0,15,-4,1,0,0,1,120,280,56,1,,,,,,,,
,,,,,,,,,,,,,FF,,,,,,,,0.6501,,,,,,,,,,,,,,,,,,,,,,6101b539b62e9ab88656497d,61036db3606dd7586d939d0b,2021-07-29_23h11.52.036,Simcolourproject_2stim_asymm_v5,2020.2.10,Win32,60,61025ae37ef11b136ea224fe,,,,,,,,,3359,38,48,1,0,0,response1disk,,7,20,11,1,0,0,rectangle,20,11,1,0,0,20,11,1,0,0,1,121,281,103,1,,,,,,,,
,,,,,,,,,,,,,FF,,,,,,,,0.7668,,,,,,,,,,,,,,,,,,,,,,6101b539b62e9ab88656497d,61036db3606dd7586d939d0b,2021-07-29_23h11.52.036,Simcolourproject_2stim_asymm_v5,2020.2.10,Win32,60,61025ae37ef11b136ea224fe,,,,,,,,,1337,29,47,1,0,0,response1disk,,7,16,-2,1,0,0,rectangle,16,-2,1,0,0,16,-2,1,0,0,1,122,282,15,1,,,,,,,,
,,,,,,,,,,,,,FF,,,,,,,,0.8838,,,,,,,,,,,,,,,,,,,,,,6101b539b62e9ab88656497d,61036db3606dd7586d939d0b,2021-07-29_23h11.52.036,Simcolourproject_2stim_asymm_v5,2020.2.10,Win32,60,61025ae37ef11b136ea224fe,,,,,,,,,1204,62,39,1,0,0,response1disk,,6,14,0,1,0,0,rectangle,14,0,1,0,0,14,0,1,0,0,1,123,283,42,1,,,,,,,,
,,,,,,,,,,,,,FF,,,,,,,,0.6535,,,,,,,,,,,,,,,,,,,,,,6101b539b62e9ab88656497d,61036db3606dd7586d939d0b,2021-07-29_23h11.52.036,Simcolourproject_2stim_asymm_v5,2020.2.10,Win32,60,61025ae37ef11b136ea224fe,,,,,,,,,1791,35,56,1,0,0,response1disk,,7,9,11,1,0,0,rectangle,46,-21,1,0,0,10,-4,1,0,0,1,124,284,93,1,,response3disk_3,TRUE,5,5,"[114,266,34,104,21,43,201,187,22,33,149,116,133,84,285,225,251,53,226,241]",2.5495,rectangle
,,,,,,,,,,,,,FF,,,,,,,,1.085,,,,,,,,,,,,,,,,,,,,,,6101b539b62e9ab88656497d,61036db3606dd7586d939d0b,2021-07-29_23h11.52.036,Simcolourproject_2stim_asymm_v5,2020.2.10,Win32,60,61025ae37ef11b136ea224fe,,,,,,,,,3934,44,32,1,0,0,response1disk,,6,8,3,1,0,0,rectangle,8,3,1,0,0,8,3,1,0,0,1,125,285,127,1,,,,,,,,
,,,,,,,,,,,,,FF,,,,,,,,0.9509,,,,,,,,,,,,,,,,,,,,,,6101b539b62e9ab88656497d,61036db3606dd7586d939d0b,2021-07-29_23h11.52.036,Simcolourproject_2stim_asymm_v5,2020.2.10,Win32,60,61025ae37ef11b136ea224fe,,,,,,,,,4318,24,49,1,0,0,response1disk,,7,-2,5,1,0,0,rectangle,-2,5,1,0,0,-2,5,1,0,0,1,126,286,158,1,,,,,,,,
,,,,,,,,,,,,,FF,,,,,,,,0.8017,,,,,,,,,,,,,,,,,,,,,,6101b539b62e9ab88656497d,61036db3606dd7586d939d0b,2021-07-29_23h11.52.036,Simcolourproject_2stim_asymm_v5,2020.2.10,Win32,60,61025ae37ef11b136ea224fe,,,,,,,,,1631,33,64,1,0,0,response1disk,,7,-5,6,1,0,0,rectangle,-5,6,1,0,0,-5,6,1,0,0,1,127,287,40,1,,,,,,,,
,,,,,,,,,,,,,FF,,,,,,,,0.5659,,,,,,,,,,,,,,,,,,,,,,6101b539b62e9ab88656497d,61036db3606dd7586d939d0b,2021-07-29_23h11.52.036,Simcolourproject_2stim_asymm_v5,2020.2.10,Win32,60,61025ae37ef11b136ea224fe,,,,,,,,,859,25,51,1,0,0,response1disk,,7,-9,-3,1,0,0,rectangle,-9,-3,1,0,0,-9,-3,1,0,0,1,128,288,120,1,,,,,,,,
,,,,,,,,,,,,,FF,,,,,,,,0.7337,,,,,,,,,,,,,,,,,,,,,,6101b539b62e9ab88656497d,61036db3606dd7586d939d0b,2021-07-29_23h11.52.036,Simcolourproject_2stim_asymm_v5,2020.2.10,Win32,60,61025ae37ef11b136ea224fe,,,,,,,,,2798,23,42,1,0,0,response1disk,,7,1,12,1,0,0,rectangle,1,12,1,0,0,1,12,1,0,0,1,129,289,63,1,,,,,,,,
,,,,,,,,,,,,,FF,,,,,,,,0.7342,,,,,,,,,,,,,,,,,,,,,,6101b539b62e9ab88656497d,61036db3606dd7586d939d0b,2021-07-29_23h11.52.036,Simcolourproject_2stim_asymm_v5,2020.2.10,Win32,60,61025ae37ef11b136ea224fe,,,,,,,,,4131,31,61,1,0,0,response1disk,,7,3,12,1,0,0,rectangle,3,12,1,0,0,3,12,1,0,0,1,130,290,54,1,,,,,,,,
,,,,,,,,,,,,,FF,,,,,,,,0.7503,,,,,,,,,,,,,,,,,,,,,,6101b539b62e9ab88656497d,61036db3606dd7586d939d0b,2021-07-29_23h11.52.036,Simcolourproject_2stim_asymm_v5,2020.2.10,Win32,60,61025ae37ef11b136ea224fe,,,,,,,,,2452,29,61,1,0,0,response1disk,,7,-5,8,1,0,0,rectangle,-5,8,1,0,0,-5,8,1,0,0,1,131,291,4,1,,,,,,,,
,,,,,,,,,,,,,FF,,,,,,,,0.7169,,,,,,,,,,,,,,,,,,,,,,6101b539b62e9ab88656497d,61036db3606dd7586d939d0b,2021-07-29_23h11.52.036,Simcolourproject_2stim_asymm_v5,2020.2.10,Win32,60,61025ae37ef11b136ea224fe,,,,,,,,,1556,35,73,1,0,0,response1disk,,7,2,5,1,0,0,rectangle,2,5,1,0,0,2,5,1,0,0,1,132,292,65,1,,,,,,,,
,,,,,,,,,,,,,FF,,,,,,,,0.817,,,,,,,,,,,,,,,,,,,,,,6101b539b62e9ab88656497d,61036db3606dd7586d939d0b,2021-07-29_23h11.52.036,Simcolourproject_2stim_asymm_v5,2020.2.10,Win32,60,61025ae37ef11b136ea224fe,,,,,,,,,76,63,34,1,0,0,response1disk,,6,10,-6,1,0,0,rectangle,10,-6,1,0,0,10,-6,1,0,0,1,133,293,81,1,,,,,,,,
,,,,,,,,,,,,,FF,,,,,,,,0.6665,,,,,,,,,,,,,,,,,,,,,,6101b539b62e9ab88656497d,61036db3606dd7586d939d0b,2021-07-29_23h11.52.036,Simcolourproject_2stim_asymm_v5,2020.2.10,Win32,60,61025ae37ef11b136ea224fe,,,,,,,,,4233,28,53,1,0,0,response1disk,,7,3,3,1,0,0,rectangle,3,3,1,0,0,3,3,1,0,0,1,134,294,10,1,,,,,,,,
,,,,,,,,,,,,,FF,,,,,,,,0.5835,,,,,,,,,,,,,,,,,,,,,,6101b539b62e9ab88656497d,61036db3606dd7586d939d0b,2021-07-29_23h11.52.036,Simcolourproject_2stim_asymm_v5,2020.2.10,Win32,60,61025ae37ef11b136ea224fe,,,,,,,,,542,36,77,1,0,0,response1disk,,7,4,1,1,0,0,rectangle,4,1,1,0,0,4,1,1,0,0,1,135,295,132,1,,,,,,,,
,,,,,,,,,,,,,FF,,,,,,,,0.5205,,,,,,,,,,,,,,,,,,,,,,6101b539b62e9ab88656497d,61036db3606dd7586d939d0b,2021-07-29_23h11.52.036,Simcolourproject_2stim_asymm_v5,2020.2.10,Win32,60,61025ae37ef11b136ea224fe,,,,,,,,,1170,40,68,1,0,0,response1disk,,7,8,2,1,0,0,rectangle,8,2,1,0,0,8,2,1,0,0,1,136,296,131,1,,,,,,,,
,,,,,,,,,,,,,FF,,,,,,,,1.0373,,,,,,,,,,,,,,,,,,,,,,6101b539b62e9ab88656497d,61036db3606dd7586d939d0b,2021-07-29_23h11.52.036,Simcolourproject_2stim_asymm_v5,2020.2.10,Win32,60,61025ae37ef11b136ea224fe,,,,,,,,,3426,93,-31,1,0,0,response3disk,,5,1,5,1,0,0,rectangle,1,5,1,0,0,1,5,1,0,0,1,137,297,114,1,,,,,,,,
,,,,,,,,,,,,,FF,,,,,,,,0.616,,,,,,,,,,,,,,,,,,,,,,6101b539b62e9ab88656497d,61036db3606dd7586d939d0b,2021-07-29_23h11.52.036,Simcolourproject_2stim_asymm_v5,2020.2.10,Win32,60,61025ae37ef11b136ea224fe,,,,,,,,,4008,34,64,1,0,0,response1disk,,7,16,10,1,0,0,rectangle,16,10,1,0,0,16,10,1,0,0,1,138,298,148,1,,,,,,,,
,,,,,,,,,,,,,FF,,,,,,,,0.5159,,,,,,,,,,,,,,,,,,,,,,6101b539b62e9ab88656497d,61036db3606dd7586d939d0b,2021-07-29_23h11.52.036,Simcolourproject_2stim_asymm_v5,2020.2.10,Win32,60,61025ae37ef11b136ea224fe,,,,,,,,,357,28,47,1,0,0,response1disk,,7,11,9,1,0,0,rectangle,11,9,1,0,0,11,9,1,0,0,1,139,299,144,1,,,,,,,,
,,,,,,,,,,,,,FF,,,,,,,,0.6499,,,,,,,,,,,,,,,,,,,,,,6101b539b62e9ab88656497d,61036db3606dd7586d939d0b,2021-07-29_23h11.52.036,Simcolourproject_2stim_asymm_v5,2020.2.10,Win32,60,61025ae37ef11b136ea224fe,,,,,,,,,2326,34,61,1,0,0,response1disk,,7,-3,-7,1,0,0,rectangle,-3,-7,1,0,0,-3,-7,1,0,0,1,140,300,115,1,,,,,,,,
,,,,,,,,,,,,,FF,,,,,,,,0.6006,,,,,,,,,,,,,,,,,,,,,,6101b539b62e9ab88656497d,61036db3606dd7586d939d0b,2021-07-29_23h11.52.036,Simcolourproject_2stim_asymm_v5,2020.2.10,Win32,60,61025ae37ef11b136ea224fe,,,,,,,,,1851,28,73,1,0,0,response1disk,,7,5,12,1,0,0,rectangle,5,12,1,0,0,5,12,1,0,0,1,141,301,78,1,,,,,,,,
,,,,,,,,,,,,,FF,,,,,,,,0.9502,,,,,,,,,,,,,,,,,,,,,,6101b539b62e9ab88656497d,61036db3606dd7586d939d0b,2021-07-29_23h11.52.036,Simcolourproject_2stim_asymm_v5,2020.2.10,Win32,60,61025ae37ef11b136ea224fe,,,,,,,,,2533,72,40,1,0,0,response1disk,,6,10,5,1,0,0,rectangle,10,5,1,0,0,10,5,1,0,0,1,142,302,27,1,,,,,,,,
,,,,,,,,,,,,,FF,,,,,,,,1.4322,,,,,,,,,,,,,,,,,,,,,,6101b539b62e9ab88656497d,61036db3606dd7586d939d0b,2021-07-29_23h11.52.036,Simcolourproject_2stim_asymm_v5,2020.2.10,Win32,60,61025ae37ef11b136ea224fe,,,,,,,,,2411,72,41,1,0,0,response1disk,,6,13,11,1,0,0,rectangle,13,11,1,0,0,13,11,1,0,0,1,143,303,21,1,,,,,,,,
