key_resp.keys,key_resp.rt,key_resp_14.keys,key_resp_14.rt,key_resp_15.keys,key_resp_15.rt,key_resp_17.keys,key_resp_17.rt,key_resp_9.keys,key_resp_9.rt,key_resp_10.keys,key_resp_10.rt,practice_comparison,Ecc,mouse_5.x,mouse_5.y,mouse_5.leftButton,mouse_5.midButton,mouse_5.rightButton,mouse_5.clicked_name,pracsimilarity,response_time,mouse_10.x,mouse_10.y,mouse_10.leftButton,mouse_10.midButton,mouse_10.rightButton,mouse_10.clicked_name,mouse_7.x,mouse_7.y,mouse_7.leftButton,mouse_7.midButton,mouse_7.rightButton,mouse_6.x,mouse_6.y,mouse_6.leftButton,mouse_6.midButton,mouse_6.rightButton,duringprac.thisRepN,duringprac.thisTrialN,duringprac.thisN,duringprac.thisIndex,duringprac.ran,participant,session,date,expName,psychopyVersion,OS,frameRate,study_id,mouse_7.clicked_name,catchpracsimilarity,catch_response_time,catchnumberprac,catchtrialorderprac,mouse_6.clicked_name,key_resp_22.keys,key_resp_22.rt,realcomparison,mouse.x,mouse.y,mouse.leftButton,mouse.midButton,mouse.rightButton,mouse.clicked_name,Colour2,similarity,mouse_2.x,mouse_2.y,mouse_2.leftButton,mouse_2.midButton,mouse_2.rightButton,mouse_2.clicked_name,mouse_3.x,mouse_3.y,mouse_3.leftButton,mouse_3.midButton,mouse_3.rightButton,mouse_11.x,mouse_11.y,mouse_11.leftButton,mouse_11.midButton,mouse_11.rightButton,trials_2.thisRepN,trials_2.thisTrialN,trials_2.thisN,trials_2.thisIndex,trials_2.ran,Colour1,mouse_3.clicked_name,catchornah,catchsimilarity,catchnumber,catchtrialorder,catchRT,mouse_11.clicked_name
space,2.7695,space,45.2989,space,51.5602,space,9.0102,space,3.8255,space,2.736,48,PF,77.76281738,-40.4052124,1,0,0,response3disk_5,5,10.58,-6.410583496,-0.303649902,1,0,0,rectangle_8,-6.410583496,-0.303649902,1,0,0,-6.410583496,-0.303649902,1,0,0,0,0,0,2,1,6101c1622c420e21591e1b96,61036be322fd58b8152497be,2021-07-29_20h03.42.324,Simcolourproject_2stim_asymm_v5,2020.2.10,MacIntel,60,61025ae37ef11b136ea224fe,,,,,,,,,,,,,,,,,,,,,,,,,,,,,,,,,,,,,,,,,,,,,,
,,,,,,,,,,,,56,FF,34.95574951,73.48922729,1,0,0,response1disk_5,7,7.0088,-1.281555176,-9.422821045,1,0,0,rectangle_8,-48.05999756,-97.36254883,1,0,0,1.362976074,-2.943084717,1,0,0,0,1,1,0,1,6101c1622c420e21591e1b96,61036be322fd58b8152497be,2021-07-29_20h03.42.324,Simcolourproject_2stim_asymm_v5,2020.2.10,MacIntel,60,61025ae37ef11b136ea224fe,response5disk_7,3,3.711,3,"[2,5]",rectangle_4,,,,,,,,,,,,,,,,,,,,,,,,,,,,,,,,,,,,,,,,
,,,,,,,,,,,,153,PF,44.51367188,77.40719604,1,0,0,response1disk_5,7,5.9116,-4.287780762,1.26071167,1,0,0,rectangle_8,-4.287780762,1.26071167,1,0,0,-4.287780762,1.26071167,1,0,0,0,2,2,6,1,6101c1622c420e21591e1b96,61036be322fd58b8152497be,2021-07-29_20h03.42.324,Simcolourproject_2stim_asymm_v5,2020.2.10,MacIntel,60,61025ae37ef11b136ea224fe,,,,,,,,,,,,,,,,,,,,,,,,,,,,,,,,,,,,,,,,,,,,,,
,,,,,,,,,,,,54,PF,53.98516846,32.3314209,1,0,0,response1disk_5,6,10.4033,-6.253051758,-7.781738281,1,0,0,rectangle_8,-6.253051758,-7.781738281,1,0,0,-6.253051758,-7.781738281,1,0,0,0,3,3,1,1,6101c1622c420e21591e1b96,61036be322fd58b8152497be,2021-07-29_20h03.42.324,Simcolourproject_2stim_asymm_v5,2020.2.10,MacIntel,60,61025ae37ef11b136ea224fe,,,,,,,,,,,,,,,,,,,,,,,,,,,,,,,,,,,,,,,,,,,,,,
,,,,,,,,,,,,32,FF,39.22460938,-104.0343018,1,0,0,response3disk_5,4,4.303,3.793273926,2.867736816,1,0,0,rectangle_8,-39.50585938,-102.7229614,1,0,0,0.041320801,-2.978912354,1,0,0,0,4,4,3,1,6101c1622c420e21591e1b96,61036be322fd58b8152497be,2021-07-29_20h03.42.324,Simcolourproject_2stim_asymm_v5,2020.2.10,MacIntel,60,61025ae37ef11b136ea224fe,response5disk_7,3,1.8844,3,"[2,5]",rectangle_4,,,,,,,,,,,,,,,,,,,,,,,,,,,,,,,,,,,,,,,,
,,,,,,,,,,,,54,PF,68.16424561,22.2789917,1,0,0,response1disk_5,6,5.2129,-7.693664551,-10.60983276,1,0,0,rectangle_8,-7.693664551,-10.60983276,1,0,0,-7.693664551,-10.60983276,1,0,0,0,5,5,4,1,6101c1622c420e21591e1b96,61036be322fd58b8152497be,2021-07-29_20h03.42.324,Simcolourproject_2stim_asymm_v5,2020.2.10,MacIntel,60,61025ae37ef11b136ea224fe,,,,,,,,,,,,,,,,,,,,,,,,,,,,,,,,,,,,,,,,,,,,,,
,,,,,,,,,,,,36,FF,112.0216675,-37.04907227,1,0,0,response3disk_5,5,5.4987,2.006835938,5.106567383,1,0,0,rectangle_8,2.006835938,5.106567383,1,0,0,2.006835938,5.106567383,1,0,0,0,6,6,5,1,6101c1622c420e21591e1b96,61036be322fd58b8152497be,2021-07-29_20h03.42.324,Simcolourproject_2stim_asymm_v5,2020.2.10,MacIntel,60,61025ae37ef11b136ea224fe,,,,,,,,,,,,,,,,,,,,,,,,,,,,,,,,,,,,,,,,,,,,,,
,,,,,,,,,,,,,FF,,,,,,,,5.9226,,,,,,,,,,,,,,,,,,,,,,6101c1622c420e21591e1b96,61036be322fd58b8152497be,2021-07-29_20h03.42.324,Simcolourproject_2stim_asymm_v5,2020.2.10,MacIntel,60,61025ae37ef11b136ea224fe,,,,,,,space,3.3019,4119,-71.61578369,-49.61413574,1,0,0,response5disk,,2,-18.89746094,-2.116027832,1,0,0,rectangle,-18.89746094,-2.116027832,1,0,0,-18.89746094,-2.116027832,1,0,0,0,0,0,59,1,,,,,,,,
,,,,,,,,,,,,,FF,,,,,,,,9.3244,,,,,,,,,,,,,,,,,,,,,,6101c1622c420e21591e1b96,61036be322fd58b8152497be,2021-07-29_20h03.42.324,Simcolourproject_2stim_asymm_v5,2020.2.10,MacIntel,60,61025ae37ef11b136ea224fe,,,,,,,,,2507,98.1864624,35.53729248,1,0,0,response1disk,,6,9.032653809,-8.900695801,1,0,0,rectangle,9.032653809,-8.900695801,1,0,0,9.032653809,-8.900695801,1,0,0,0,1,1,148,1,,,,,,,,
,,,,,,,,,,,,,FF,,,,,,,,2.2346,,,,,,,,,,,,,,,,,,,,,,6101c1622c420e21591e1b96,61036be322fd58b8152497be,2021-07-29_20h03.42.324,Simcolourproject_2stim_asymm_v5,2020.2.10,MacIntel,60,61025ae37ef11b136ea224fe,,,,,,,,,3184,70.2364502,38.54406738,1,0,0,response1disk,,6,6.925842285,-16.77813721,1,0,0,rectangle,6.925842285,-16.77813721,1,0,0,6.925842285,-16.77813721,1,0,0,0,2,2,26,1,,,,,,,,
,,,,,,,,,,,,,FF,,,,,,,,1.8621,,,,,,,,,,,,,,,,,,,,,,6101c1622c420e21591e1b96,61036be322fd58b8152497be,2021-07-29_20h03.42.324,Simcolourproject_2stim_asymm_v5,2020.2.10,MacIntel,60,61025ae37ef11b136ea224fe,,,,,,,,,2470,30.2833252,73.875,1,0,0,response1disk,,7,1.459594727,-4.245239258,1,0,0,rectangle,1.459594727,-4.245239258,1,0,0,1.459594727,-4.245239258,1,0,0,0,3,3,16,1,,,,,,,,
,,,,,,,,,,,,,FF,,,,,,,,2.493,,,,,,,,,,,,,,,,,,,,,,6101c1622c420e21591e1b96,61036be322fd58b8152497be,2021-07-29_20h03.42.324,Simcolourproject_2stim_asymm_v5,2020.2.10,MacIntel,60,61025ae37ef11b136ea224fe,,,,,,,,,2113,-37.54919434,-85.17834473,1,0,0,response5disk,,3,-8.863525391,4.215698242,1,0,0,rectangle,-8.863525391,4.215698242,1,0,0,-8.863525391,4.215698242,1,0,0,0,4,4,92,1,,,,,,,,
,,,,,,,,,,,,,FF,,,,,,,,4.2666,,,,,,,,,,,,,,,,,,,,,,6101c1622c420e21591e1b96,61036be322fd58b8152497be,2021-07-29_20h03.42.324,Simcolourproject_2stim_asymm_v5,2020.2.10,MacIntel,60,61025ae37ef11b136ea224fe,,,,,,,,,1366,54.14758301,-36.13153076,1,0,0,response3disk,,5,-5.900695801,1.264587402,1,0,0,rectangle,34.5869751,87.82922363,1,0,0,4.08001709,-4.073059082,1,0,0,0,5,5,63,1,,response1disk_3,TRUE,7,7,"[316,323,6,185,252,28,236,154,85,134,184,55,275,253,138,134,42,263,150,203]",1.8375,rectangle
,,,,,,,,,,,,,FF,,,,,,,,2.0395,,,,,,,,,,,,,,,,,,,,,,6101c1622c420e21591e1b96,61036be322fd58b8152497be,2021-07-29_20h03.42.324,Simcolourproject_2stim_asymm_v5,2020.2.10,MacIntel,60,61025ae37ef11b136ea224fe,,,,,,,,,1896,-90.73461914,-38.85717773,1,0,0,response5disk,,2,-16.98376465,4.551757813,1,0,0,rectangle,-16.98376465,4.551757813,1,0,0,-16.98376465,4.551757813,1,0,0,0,6,6,33,1,,,,,,,,
,,,,,,,,,,,,,FF,,,,,,,,5.3863,,,,,,,,,,,,,,,,,,,,,,6101c1622c420e21591e1b96,61036be322fd58b8152497be,2021-07-29_20h03.42.324,Simcolourproject_2stim_asymm_v5,2020.2.10,MacIntel,60,61025ae37ef11b136ea224fe,,,,,,,,,3409,77.03015137,-46.45196533,1,0,0,response3disk,,5,-14.11968994,1.822021484,1,0,0,rectangle,-14.11968994,1.822021484,1,0,0,-14.11968994,1.822021484,1,0,0,0,7,7,76,1,,,,,,,,
,,,,,,,,,,,,,FF,,,,,,,,2.5661,,,,,,,,,,,,,,,,,,,,,,6101c1622c420e21591e1b96,61036be322fd58b8152497be,2021-07-29_20h03.42.324,Simcolourproject_2stim_asymm_v5,2020.2.10,MacIntel,60,61025ae37ef11b136ea224fe,,,,,,,,,2963,61.18035889,50.39489746,1,0,0,response1disk,,6,1.229858398,3.523986816,1,0,0,rectangle,1.229858398,3.523986816,1,0,0,1.229858398,3.523986816,1,0,0,0,8,8,143,1,,,,,,,,
,,,,,,,,,,,,,FF,,,,,,,,1.5202,,,,,,,,,,,,,,,,,,,,,,6101c1622c420e21591e1b96,61036be322fd58b8152497be,2021-07-29_20h03.42.324,Simcolourproject_2stim_asymm_v5,2020.2.10,MacIntel,60,61025ae37ef11b136ea224fe,,,,,,,,,1712,-38.02246094,-66.21350098,1,0,0,response5disk,,3,-1.806396484,-0.530395508,1,0,0,rectangle,-1.806396484,-0.530395508,1,0,0,-1.806396484,-0.530395508,1,0,0,0,9,9,47,1,,,,,,,,
,,,,,,,,,,,,,FF,,,,,,,,2.6846,,,,,,,,,,,,,,,,,,,,,,6101c1622c420e21591e1b96,61036be322fd58b8152497be,2021-07-29_20h03.42.324,Simcolourproject_2stim_asymm_v5,2020.2.10,MacIntel,60,61025ae37ef11b136ea224fe,,,,,,,,,1992,47.08117676,-75.47473145,1,0,0,response3disk,,4,7.022644043,7.50390625,1,0,0,rectangle,7.022644043,7.50390625,1,0,0,7.022644043,7.50390625,1,0,0,0,10,10,150,1,,,,,,,,
,,,,,,,,,,,,,FF,,,,,,,,2.7741,,,,,,,,,,,,,,,,,,,,,,6101c1622c420e21591e1b96,61036be322fd58b8152497be,2021-07-29_20h03.42.324,Simcolourproject_2stim_asymm_v5,2020.2.10,MacIntel,60,61025ae37ef11b136ea224fe,,,,,,,,,2308,33.01318359,-97.45812988,1,0,0,response3disk,,4,-1.094299316,4.175140381,1,0,0,rectangle,-1.094299316,4.175140381,1,0,0,-1.094299316,4.175140381,1,0,0,0,11,11,14,1,,,,,,,,
,,,,,,,,,,,,,FF,,,,,,,,5.0048,,,,,,,,,,,,,,,,,,,,,,6101c1622c420e21591e1b96,61036be322fd58b8152497be,2021-07-29_20h03.42.324,Simcolourproject_2stim_asymm_v5,2020.2.10,MacIntel,60,61025ae37ef11b136ea224fe,,,,,,,,,193,40.92077637,-75.6307373,1,0,0,response3disk,,4,-8.761291504,3.873840332,1,0,0,rectangle,-8.761291504,3.873840332,1,0,0,-8.761291504,3.873840332,1,0,0,0,12,12,82,1,,,,,,,,
,,,,,,,,,,,,,FF,,,,,,,,7.9735,,,,,,,,,,,,,,,,,,,,,,6101c1622c420e21591e1b96,61036be322fd58b8152497be,2021-07-29_20h03.42.324,Simcolourproject_2stim_asymm_v5,2020.2.10,MacIntel,60,61025ae37ef11b136ea224fe,,,,,,,,,4041,88.28704834,-31.7618103,1,0,0,response3disk,,5,14.36108398,-4.144714355,1,0,0,rectangle,14.36108398,-4.144714355,1,0,0,14.36108398,-4.144714355,1,0,0,0,13,13,141,1,,,,,,,,
,,,,,,,,,,,,,FF,,,,,,,,7.6437,,,,,,,,,,,,,,,,,,,,,,6101c1622c420e21591e1b96,61036be322fd58b8152497be,2021-07-29_20h03.42.324,Simcolourproject_2stim_asymm_v5,2020.2.10,MacIntel,60,61025ae37ef11b136ea224fe,,,,,,,,,2490,32.97320557,-96.18676758,1,0,0,response3disk,,4,6.648925781,2.43927002,1,0,0,rectangle,6.648925781,2.43927002,1,0,0,6.648925781,2.43927002,1,0,0,0,14,14,108,1,,,,,,,,
,,,,,,,,,,,,,FF,,,,,,,,2.7391,,,,,,,,,,,,,,,,,,,,,,6101c1622c420e21591e1b96,61036be322fd58b8152497be,2021-07-29_20h03.42.324,Simcolourproject_2stim_asymm_v5,2020.2.10,MacIntel,60,61025ae37ef11b136ea224fe,,,,,,,,,3230,44.33105469,73.27807617,1,0,0,response1disk,,7,-3.84588623,-11.37750244,1,0,0,rectangle,-3.84588623,-11.37750244,1,0,0,-3.84588623,-11.37750244,1,0,0,0,15,15,25,1,,,,,,,,
,,,,,,,,,,,,,FF,,,,,,,,4.8832,,,,,,,,,,,,,,,,,,,,,,6101c1622c420e21591e1b96,61036be322fd58b8152497be,2021-07-29_20h03.42.324,Simcolourproject_2stim_asymm_v5,2020.2.10,MacIntel,60,61025ae37ef11b136ea224fe,,,,,,,,,2375,62.09564209,35.10421753,1,0,0,response1disk,,6,-9.645690918,-9.640014648,1,0,0,rectangle,-9.645690918,-9.640014648,1,0,0,-9.645690918,-9.640014648,1,0,0,0,16,16,38,1,,,,,,,,
,,,,,,,,,,,,,FF,,,,,,,,5.5676,,,,,,,,,,,,,,,,,,,,,,6101c1622c420e21591e1b96,61036be322fd58b8152497be,2021-07-29_20h03.42.324,Simcolourproject_2stim_asymm_v5,2020.2.10,MacIntel,60,61025ae37ef11b136ea224fe,,,,,,,,,1106,77.41363525,-58.63812256,1,0,0,response3disk,,5,-19.46453857,-4.567077637,1,0,0,rectangle,-19.46453857,-4.567077637,1,0,0,-19.46453857,-4.567077637,1,0,0,0,17,17,129,1,,,,,,,,
,,,,,,,,,,,,,FF,,,,,,,,2.5058,,,,,,,,,,,,,,,,,,,,,,6101c1622c420e21591e1b96,61036be322fd58b8152497be,2021-07-29_20h03.42.324,Simcolourproject_2stim_asymm_v5,2020.2.10,MacIntel,60,61025ae37ef11b136ea224fe,,,,,,,,,3321,72.56719971,32.62033081,1,0,0,response1disk,,6,11.80249023,2.277191162,1,0,0,rectangle,11.80249023,2.277191162,1,0,0,11.80249023,2.277191162,1,0,0,0,18,18,89,1,,,,,,,,
,,,,,,,,,,,,,FF,,,,,,,,2.7317,,,,,,,,,,,,,,,,,,,,,,6101c1622c420e21591e1b96,61036be322fd58b8152497be,2021-07-29_20h03.42.324,Simcolourproject_2stim_asymm_v5,2020.2.10,MacIntel,60,61025ae37ef11b136ea224fe,,,,,,,,,3554,-63.78344727,-38.55456543,1,0,0,response5disk,,2,-0.703125,4.457824707,1,0,0,rectangle,-0.703125,4.457824707,1,0,0,-0.703125,4.457824707,1,0,0,0,19,19,1,1,,,,,,,,
,,,,,,,,,,,,,FF,,,,,,,,3.2656,,,,,,,,,,,,,,,,,,,,,,6101c1622c420e21591e1b96,61036be322fd58b8152497be,2021-07-29_20h03.42.324,Simcolourproject_2stim_asymm_v5,2020.2.10,MacIntel,60,61025ae37ef11b136ea224fe,,,,,,,,,3650,46.69659424,27.66748047,1,0,0,response1disk,,6,-5.718505859,2.15838623,1,0,0,rectangle,-5.718505859,2.15838623,1,0,0,-5.718505859,2.15838623,1,0,0,0,20,20,130,1,,,,,,,,
,,,,,,,,,,,,,FF,,,,,,,,2.1338,,,,,,,,,,,,,,,,,,,,,,6101c1622c420e21591e1b96,61036be322fd58b8152497be,2021-07-29_20h03.42.324,Simcolourproject_2stim_asymm_v5,2020.2.10,MacIntel,60,61025ae37ef11b136ea224fe,,,,,,,,,3717,66.64672852,-39.12197876,1,0,0,response3disk,,5,1.290771484,0.379150391,1,0,0,rectangle,1.290771484,0.379150391,1,0,0,1.290771484,0.379150391,1,0,0,0,21,21,8,1,,,,,,,,
,,,,,,,,,,,,,FF,,,,,,,,3.3163,,,,,,,,,,,,,,,,,,,,,,6101c1622c420e21591e1b96,61036be322fd58b8152497be,2021-07-29_20h03.42.324,Simcolourproject_2stim_asymm_v5,2020.2.10,MacIntel,60,61025ae37ef11b136ea224fe,,,,,,,,,3398,-57.56304932,-79.35211182,1,0,0,response5disk,,3,-12.53387451,6.606201172,1,0,0,rectangle,-12.53387451,6.606201172,1,0,0,-12.53387451,6.606201172,1,0,0,0,22,22,53,1,,,,,,,,
,,,,,,,,,,,,,FF,,,,,,,,1.8793,,,,,,,,,,,,,,,,,,,,,,6101c1622c420e21591e1b96,61036be322fd58b8152497be,2021-07-29_20h03.42.324,Simcolourproject_2stim_asymm_v5,2020.2.10,MacIntel,60,61025ae37ef11b136ea224fe,,,,,,,,,2119,59.93884277,30.35540771,1,0,0,response1disk,,6,15.94030762,10.76776123,1,0,0,rectangle,15.94030762,10.76776123,1,0,0,15.94030762,10.76776123,1,0,0,0,23,23,46,1,,,,,,,,
,,,,,,,,,,,,,FF,,,,,,,,2.0394,,,,,,,,,,,,,,,,,,,,,,6101c1622c420e21591e1b96,61036be322fd58b8152497be,2021-07-29_20h03.42.324,Simcolourproject_2stim_asymm_v5,2020.2.10,MacIntel,60,61025ae37ef11b136ea224fe,,,,,,,,,1166,-24.94000244,-92.37030029,1,0,0,response5disk,,3,-8.114440918,5.120483398,1,0,0,rectangle,-8.114440918,5.120483398,1,0,0,-8.114440918,5.120483398,1,0,0,0,24,24,15,1,,,,,,,,
,,,,,,,,,,,,,FF,,,,,,,,1.918,,,,,,,,,,,,,,,,,,,,,,6101c1622c420e21591e1b96,61036be322fd58b8152497be,2021-07-29_20h03.42.324,Simcolourproject_2stim_asymm_v5,2020.2.10,MacIntel,60,61025ae37ef11b136ea224fe,,,,,,,,,185,-56.42956543,90.75177002,1,0,0,response7disk,,0,-16.75982666,5.144470215,1,0,0,rectangle,-16.75982666,5.144470215,1,0,0,-16.75982666,5.144470215,1,0,0,0,25,25,2,1,,,,,,,,
,,,,,,,,,,,,,FF,,,,,,,,2.6185,,,,,,,,,,,,,,,,,,,,,,6101c1622c420e21591e1b96,61036be322fd58b8152497be,2021-07-29_20h03.42.324,Simcolourproject_2stim_asymm_v5,2020.2.10,MacIntel,60,61025ae37ef11b136ea224fe,,,,,,,,,1975,69.47540283,-47.90618896,1,0,0,response3disk,,5,-8.695556641,-4.006591797,1,0,0,rectangle,-8.695556641,-4.006591797,1,0,0,-8.695556641,-4.006591797,1,0,0,0,26,26,128,1,,,,,,,,
,,,,,,,,,,,,,FF,,,,,,,,1.5417,,,,,,,,,,,,,,,,,,,,,,6101c1622c420e21591e1b96,61036be322fd58b8152497be,2021-07-29_20h03.42.324,Simcolourproject_2stim_asymm_v5,2020.2.10,MacIntel,60,61025ae37ef11b136ea224fe,,,,,,,,,4345,-70.98406982,-38.76992798,1,0,0,response5disk,,2,-10.40545654,-7.231750488,1,0,0,rectangle,-41.8939209,-91.5501709,1,0,0,0.519226074,7.471557617,1,0,0,0,27,27,98,1,,response5disk_3,TRUE,3,3,"[316,323,6,185,252,28,236,154,85,134,184,55,275,253,138,134,42,263,150,203]",1.4394,rectangle
,,,,,,,,,,,,,FF,,,,,,,,4.8576,,,,,,,,,,,,,,,,,,,,,,6101c1622c420e21591e1b96,61036be322fd58b8152497be,2021-07-29_20h03.42.324,Simcolourproject_2stim_asymm_v5,2020.2.10,MacIntel,60,61025ae37ef11b136ea224fe,,,,,,,,,3929,87.94708252,38.23327637,1,0,0,response1disk,,6,8.82220459,-9.764404297,1,0,0,rectangle,8.82220459,-9.764404297,1,0,0,8.82220459,-9.764404297,1,0,0,0,28,28,35,1,,,,,,,,
,,,,,,,,,,,,,FF,,,,,,,,7.1471,,,,,,,,,,,,,,,,,,,,,,6101c1622c420e21591e1b96,61036be322fd58b8152497be,2021-07-29_20h03.42.324,Simcolourproject_2stim_asymm_v5,2020.2.10,MacIntel,60,61025ae37ef11b136ea224fe,,,,,,,,,1653,88.18841553,27.46911621,1,0,0,response1disk,,6,11.83435059,-14.99310303,1,0,0,rectangle,11.83435059,-14.99310303,1,0,0,11.83435059,-14.99310303,1,0,0,0,29,29,40,1,,,,,,,,
,,,,,,,,,,,,,FF,,,,,,,,2.8172,,,,,,,,,,,,,,,,,,,,,,6101c1622c420e21591e1b96,61036be322fd58b8152497be,2021-07-29_20h03.42.324,Simcolourproject_2stim_asymm_v5,2020.2.10,MacIntel,60,61025ae37ef11b136ea224fe,,,,,,,,,3798,43.52288818,24.87469482,1,0,0,response1disk,,6,-0.494628906,9.408874512,1,0,0,rectangle,-0.494628906,9.408874512,1,0,0,-0.494628906,9.408874512,1,0,0,0,30,30,41,1,,,,,,,,
,,,,,,,,,,,,,FF,,,,,,,,3.3682,,,,,,,,,,,,,,,,,,,,,,6101c1622c420e21591e1b96,61036be322fd58b8152497be,2021-07-29_20h03.42.324,Simcolourproject_2stim_asymm_v5,2020.2.10,MacIntel,60,61025ae37ef11b136ea224fe,,,,,,,,,2216,32.87036133,-107.1768799,1,0,0,response3disk,,4,6.959777832,-8.268432617,1,0,0,rectangle,6.959777832,-8.268432617,1,0,0,6.959777832,-8.268432617,1,0,0,0,31,31,105,1,,,,,,,,
,,,,,,,,,,,,,FF,,,,,,,,2.52,,,,,,,,,,,,,,,,,,,,,,6101c1622c420e21591e1b96,61036be322fd58b8152497be,2021-07-29_20h03.42.324,Simcolourproject_2stim_asymm_v5,2020.2.10,MacIntel,60,61025ae37ef11b136ea224fe,,,,,,,,,101,42.47247314,-95.52459717,1,0,0,response3disk,,4,10.41766357,-13.25634766,1,0,0,rectangle,10.41766357,-13.25634766,1,0,0,10.41766357,-13.25634766,1,0,0,0,32,32,154,1,,,,,,,,
,,,,,,,,,,,,,FF,,,,,,,,2.5513,,,,,,,,,,,,,,,,,,,,,,6101c1622c420e21591e1b96,61036be322fd58b8152497be,2021-07-29_20h03.42.324,Simcolourproject_2stim_asymm_v5,2020.2.10,MacIntel,60,61025ae37ef11b136ea224fe,,,,,,,,,1059,104.0533447,-50.88531494,1,0,0,response3disk,,5,21.1807251,12.28649902,1,0,0,rectangle,21.1807251,12.28649902,1,0,0,21.1807251,12.28649902,1,0,0,0,33,33,42,1,,,,,,,,
,,,,,,,,,,,,,FF,,,,,,,,2.0069,,,,,,,,,,,,,,,,,,,,,,6101c1622c420e21591e1b96,61036be322fd58b8152497be,2021-07-29_20h03.42.324,Simcolourproject_2stim_asymm_v5,2020.2.10,MacIntel,60,61025ae37ef11b136ea224fe,,,,,,,,,758,93.46368408,34.07702637,1,0,0,response1disk,,6,-10.0826416,-1.171234131,1,0,0,rectangle,-10.0826416,-1.171234131,1,0,0,-10.0826416,-1.171234131,1,0,0,0,34,34,65,1,,,,,,,,
,,,,,,,,,,,,,FF,,,,,,,,5.8596,,,,,,,,,,,,,,,,,,,,,,6101c1622c420e21591e1b96,61036be322fd58b8152497be,2021-07-29_20h03.42.324,Simcolourproject_2stim_asymm_v5,2020.2.10,MacIntel,60,61025ae37ef11b136ea224fe,,,,,,,,,129,89.07250977,28.87683105,1,0,0,response1disk,,6,6.571655273,3.884033203,1,0,0,rectangle,6.571655273,3.884033203,1,0,0,6.571655273,3.884033203,1,0,0,0,35,35,49,1,,,,,,,,
,,,,,,,,,,,,,FF,,,,,,,,3.064,,,,,,,,,,,,,,,,,,,,,,6101c1622c420e21591e1b96,61036be322fd58b8152497be,2021-07-29_20h03.42.324,Simcolourproject_2stim_asymm_v5,2020.2.10,MacIntel,60,61025ae37ef11b136ea224fe,,,,,,,,,2070,84.43115234,32.38635254,1,0,0,response1disk,,6,10.43121338,-3.884033203,1,0,0,rectangle,10.43121338,-3.884033203,1,0,0,10.43121338,-3.884033203,1,0,0,0,36,36,61,1,,,,,,,,
,,,,,,,,,,,,,FF,,,,,,,,1.3229,,,,,,,,,,,,,,,,,,,,,,6101c1622c420e21591e1b96,61036be322fd58b8152497be,2021-07-29_20h03.42.324,Simcolourproject_2stim_asymm_v5,2020.2.10,MacIntel,60,61025ae37ef11b136ea224fe,,,,,,,,,310,48.55639648,34.87695313,1,0,0,response1disk,,6,0.546325684,-0.373809814,1,0,0,rectangle,0.546325684,-0.373809814,1,0,0,0.546325684,-0.373809814,1,0,0,0,37,37,151,1,,,,,,,,
,,,,,,,,,,,,,FF,,,,,,,,1.1666,,,,,,,,,,,,,,,,,,,,,,6101c1622c420e21591e1b96,61036be322fd58b8152497be,2021-07-29_20h03.42.324,Simcolourproject_2stim_asymm_v5,2020.2.10,MacIntel,60,61025ae37ef11b136ea224fe,,,,,,,,,1409,36.53240967,97.22381592,1,0,0,response1disk,,7,-14.71594238,-10.47705078,1,0,0,rectangle,-14.71594238,-10.47705078,1,0,0,-14.71594238,-10.47705078,1,0,0,0,38,38,55,1,,,,,,,,
,,,,,,,,,,,,,FF,,,,,,,,4.7197,,,,,,,,,,,,,,,,,,,,,,6101c1622c420e21591e1b96,61036be322fd58b8152497be,2021-07-29_20h03.42.324,Simcolourproject_2stim_asymm_v5,2020.2.10,MacIntel,60,61025ae37ef11b136ea224fe,,,,,,,,,2139,50.53405762,29.50201416,1,0,0,response1disk,,6,15.8449707,3.659790039,1,0,0,rectangle,15.8449707,3.659790039,1,0,0,15.8449707,3.659790039,1,0,0,0,39,39,117,1,,,,,,,,
,,,,,,,,,,,,,FF,,,,,,,,0.9154,,,,,,,,,,,,,,,,,,,,,,6101c1622c420e21591e1b96,61036be322fd58b8152497be,2021-07-29_20h03.42.324,Simcolourproject_2stim_asymm_v5,2020.2.10,MacIntel,60,61025ae37ef11b136ea224fe,,,,,,,,,3668,-36.37963867,76.85687256,1,0,0,response7disk,,0,-10.16143799,3.93939209,1,0,0,rectangle,-10.16143799,3.93939209,1,0,0,-10.16143799,3.93939209,1,0,0,0,40,40,159,1,,,,,,,,
,,,,,,,,,,,,,FF,,,,,,,,1.6012,,,,,,,,,,,,,,,,,,,,,,6101c1622c420e21591e1b96,61036be322fd58b8152497be,2021-07-29_20h03.42.324,Simcolourproject_2stim_asymm_v5,2020.2.10,MacIntel,60,61025ae37ef11b136ea224fe,,,,,,,,,2132,26.44927979,85.13531494,1,0,0,response1disk,,7,1.272705078,16.37973022,1,0,0,rectangle,65.96343994,47.55709839,1,0,0,-10.38690186,-8.538513184,1,0,0,0,41,41,104,1,,response1disk_3,TRUE,6,6,"[316,323,6,185,252,28,236,154,85,134,184,55,275,253,138,134,42,263,150,203]",1.5005,rectangle
,,,,,,,,,,,,,FF,,,,,,,,3.2852,,,,,,,,,,,,,,,,,,,,,,6101c1622c420e21591e1b96,61036be322fd58b8152497be,2021-07-29_20h03.42.324,Simcolourproject_2stim_asymm_v5,2020.2.10,MacIntel,60,61025ae37ef11b136ea224fe,,,,,,,,,20,70.85302734,22.65020752,1,0,0,response1disk,,6,20.76715088,3.819030762,1,0,0,rectangle,20.76715088,3.819030762,1,0,0,20.76715088,3.819030762,1,0,0,0,42,42,48,1,,,,,,,,
,,,,,,,,,,,,,FF,,,,,,,,2.9005,,,,,,,,,,,,,,,,,,,,,,6101c1622c420e21591e1b96,61036be322fd58b8152497be,2021-07-29_20h03.42.324,Simcolourproject_2stim_asymm_v5,2020.2.10,MacIntel,60,61025ae37ef11b136ea224fe,,,,,,,,,147,86.30810547,-36.03955078,1,0,0,response3disk,,5,13.7779541,-5.851806641,1,0,0,rectangle,13.7779541,-5.851806641,1,0,0,13.7779541,-5.851806641,1,0,0,0,43,43,10,1,,,,,,,,
,,,,,,,,,,,,,FF,,,,,,,,1.1286,,,,,,,,,,,,,,,,,,,,,,6101c1622c420e21591e1b96,61036be322fd58b8152497be,2021-07-29_20h03.42.324,Simcolourproject_2stim_asymm_v5,2020.2.10,MacIntel,60,61025ae37ef11b136ea224fe,,,,,,,,,1344,55.29675293,72.43743896,1,0,0,response1disk,,7,11.61761475,3.50012207,1,0,0,rectangle,11.61761475,3.50012207,1,0,0,11.61761475,3.50012207,1,0,0,0,44,44,156,1,,,,,,,,
,,,,,,,,,,,,,FF,,,,,,,,0.8177,,,,,,,,,,,,,,,,,,,,,,6101c1622c420e21591e1b96,61036be322fd58b8152497be,2021-07-29_20h03.42.324,Simcolourproject_2stim_asymm_v5,2020.2.10,MacIntel,60,61025ae37ef11b136ea224fe,,,,,,,,,2071,34.59954834,64.89251709,1,0,0,response1disk,,7,8.773376465,13.91577148,1,0,0,rectangle,8.773376465,13.91577148,1,0,0,8.773376465,13.91577148,1,0,0,0,45,45,138,1,,,,,,,,
,,,,,,,,,,,,,FF,,,,,,,,4.7185,,,,,,,,,,,,,,,,,,,,,,6101c1622c420e21591e1b96,61036be322fd58b8152497be,2021-07-29_20h03.42.324,Simcolourproject_2stim_asymm_v5,2020.2.10,MacIntel,60,61025ae37ef11b136ea224fe,,,,,,,,,2773,80.48101807,-47.35748291,1,0,0,response3disk,,5,0.565612793,-1.542175293,1,0,0,rectangle,0.565612793,-1.542175293,1,0,0,0.565612793,-1.542175293,1,0,0,0,46,46,125,1,,,,,,,,
,,,,,,,,,,,,,FF,,,,,,,,2.3948,,,,,,,,,,,,,,,,,,,,,,6101c1622c420e21591e1b96,61036be322fd58b8152497be,2021-07-29_20h03.42.324,Simcolourproject_2stim_asymm_v5,2020.2.10,MacIntel,60,61025ae37ef11b136ea224fe,,,,,,,,,2630,103.534729,25.93768311,1,0,0,response1disk,,6,1.557434082,-1.718933105,1,0,0,rectangle,1.557434082,-1.718933105,1,0,0,1.557434082,-1.718933105,1,0,0,0,47,47,91,1,,,,,,,,
,,,,,,,,,,,,,FF,,,,,,,,1.4544,,,,,,,,,,,,,,,,,,,,,,6101c1622c420e21591e1b96,61036be322fd58b8152497be,2021-07-29_20h03.42.324,Simcolourproject_2stim_asymm_v5,2020.2.10,MacIntel,60,61025ae37ef11b136ea224fe,,,,,,,,,651,41.40679932,-94.47064209,1,0,0,response3disk,,4,5.121765137,2.161437988,1,0,0,rectangle,5.121765137,2.161437988,1,0,0,5.121765137,2.161437988,1,0,0,0,48,48,32,1,,,,,,,,
,,,,,,,,,,,,,FF,,,,,,,,2.1224,,,,,,,,,,,,,,,,,,,,,,6101c1622c420e21591e1b96,61036be322fd58b8152497be,2021-07-29_20h03.42.324,Simcolourproject_2stim_asymm_v5,2020.2.10,MacIntel,60,61025ae37ef11b136ea224fe,,,,,,,,,2865,58.79266357,-52.1762085,1,0,0,response3disk,,5,8.781738281,-8.762634277,1,0,0,rectangle,8.781738281,-8.762634277,1,0,0,8.781738281,-8.762634277,1,0,0,0,49,49,142,1,,,,,,,,
,,,,,,,,,,,,,FF,,,,,,,,2.2778,,,,,,,,,,,,,,,,,,,,,,6101c1622c420e21591e1b96,61036be322fd58b8152497be,2021-07-29_20h03.42.324,Simcolourproject_2stim_asymm_v5,2020.2.10,MacIntel,60,61025ae37ef11b136ea224fe,,,,,,,,,3236,-43.22265625,-94.00134277,1,0,0,response5disk,,3,-14.52490234,-8.202697754,1,0,0,rectangle,-14.52490234,-8.202697754,1,0,0,-14.52490234,-8.202697754,1,0,0,0,50,50,126,1,,,,,,,,
,,,,,,,,,,,,,FF,,,,,,,,2.3617,,,,,,,,,,,,,,,,,,,,,,6101c1622c420e21591e1b96,61036be322fd58b8152497be,2021-07-29_20h03.42.324,Simcolourproject_2stim_asymm_v5,2020.2.10,MacIntel,60,61025ae37ef11b136ea224fe,,,,,,,,,1795,94.25012207,35.70770264,1,0,0,response1disk,,6,3.613708496,1.951538086,1,0,0,rectangle,3.613708496,1.951538086,1,0,0,3.613708496,1.951538086,1,0,0,0,51,51,131,1,,,,,,,,
,,,,,,,,,,,,,FF,,,,,,,,1.7741,,,,,,,,,,,,,,,,,,,,,,6101c1622c420e21591e1b96,61036be322fd58b8152497be,2021-07-29_20h03.42.324,Simcolourproject_2stim_asymm_v5,2020.2.10,MacIntel,60,61025ae37ef11b136ea224fe,,,,,,,,,3719,39.32769775,-104.2802734,1,0,0,response3disk,,4,4.14074707,-9.900787354,1,0,0,rectangle,4.14074707,-9.900787354,1,0,0,4.14074707,-9.900787354,1,0,0,0,52,52,116,1,,,,,,,,
,,,,,,,,,,,,,FF,,,,,,,,6.3074,,,,,,,,,,,,,,,,,,,,,,6101c1622c420e21591e1b96,61036be322fd58b8152497be,2021-07-29_20h03.42.324,Simcolourproject_2stim_asymm_v5,2020.2.10,MacIntel,60,61025ae37ef11b136ea224fe,,,,,,,,,1940,85.84222412,-57.78918457,1,0,0,response3disk,,5,13.77435303,-13.98278809,1,0,0,rectangle,13.77435303,-13.98278809,1,0,0,13.77435303,-13.98278809,1,0,0,0,53,53,106,1,,,,,,,,
,,,,,,,,,,,,,FF,,,,,,,,2.4019,,,,,,,,,,,,,,,,,,,,,,6101c1622c420e21591e1b96,61036be322fd58b8152497be,2021-07-29_20h03.42.324,Simcolourproject_2stim_asymm_v5,2020.2.10,MacIntel,60,61025ae37ef11b136ea224fe,,,,,,,,,323,64.12872314,24.88687134,1,0,0,response1disk,,6,11.8973999,-2.037963867,1,0,0,rectangle,72.60906982,-33.43780518,1,0,0,20.58117676,-2.513671875,1,0,0,0,54,54,18,1,,response3disk_3,TRUE,5,5,"[316,323,6,185,252,28,236,154,85,134,184,55,275,253,138,134,42,263,150,203]",1.1734,rectangle
,,,,,,,,,,,,,FF,,,,,,,,7.5357,,,,,,,,,,,,,,,,,,,,,,6101c1622c420e21591e1b96,61036be322fd58b8152497be,2021-07-29_20h03.42.324,Simcolourproject_2stim_asymm_v5,2020.2.10,MacIntel,60,61025ae37ef11b136ea224fe,,,,,,,,,1800,78.35650635,-54.06640625,1,0,0,response3disk,,5,0.856079102,-6.77734375,1,0,0,rectangle,0.856079102,-6.77734375,1,0,0,0.856079102,-6.77734375,1,0,0,0,55,55,135,1,,,,,,,,
,,,,,,,,,,,,,FF,,,,,,,,1.5157,,,,,,,,,,,,,,,,,,,,,,6101c1622c420e21591e1b96,61036be322fd58b8152497be,2021-07-29_20h03.42.324,Simcolourproject_2stim_asymm_v5,2020.2.10,MacIntel,60,61025ae37ef11b136ea224fe,,,,,,,,,2267,81.65637207,44.49172974,1,0,0,response1disk,,6,-5.953613281,-13.96780396,1,0,0,rectangle,-5.953613281,-13.96780396,1,0,0,-5.953613281,-13.96780396,1,0,0,0,56,56,97,1,,,,,,,,
,,,,,,,,,,,,,FF,,,,,,,,1.2544,,,,,,,,,,,,,,,,,,,,,,6101c1622c420e21591e1b96,61036be322fd58b8152497be,2021-07-29_20h03.42.324,Simcolourproject_2stim_asymm_v5,2020.2.10,MacIntel,60,61025ae37ef11b136ea224fe,,,,,,,,,1737,-45.53857422,-86.14489746,1,0,0,response5disk,,3,-8.06652832,-4.419586182,1,0,0,rectangle,-8.06652832,-4.419586182,1,0,0,-8.06652832,-4.419586182,1,0,0,0,57,57,70,1,,,,,,,,
,,,,,,,,,,,,,FF,,,,,,,,2.8681,,,,,,,,,,,,,,,,,,,,,,6101c1622c420e21591e1b96,61036be322fd58b8152497be,2021-07-29_20h03.42.324,Simcolourproject_2stim_asymm_v5,2020.2.10,MacIntel,60,61025ae37ef11b136ea224fe,,,,,,,,,2396,60.83459473,86.61584473,1,0,0,response1disk,,7,-13.13366699,-4.726623535,1,0,0,rectangle,-13.13366699,-4.726623535,1,0,0,-13.13366699,-4.726623535,1,0,0,0,58,58,39,1,,,,,,,,
,,,,,,,,,,,,,FF,,,,,,,,3.632,,,,,,,,,,,,,,,,,,,,,,6101c1622c420e21591e1b96,61036be322fd58b8152497be,2021-07-29_20h03.42.324,Simcolourproject_2stim_asymm_v5,2020.2.10,MacIntel,60,61025ae37ef11b136ea224fe,,,,,,,,,2528,91.88909912,-54.8057251,1,0,0,response3disk,,5,28.47912598,-0.635192871,1,0,0,rectangle,28.47912598,-0.635192871,1,0,0,28.47912598,-0.635192871,1,0,0,0,59,59,72,1,,,,,,,,
,,,,,,,,,,,,,FF,,,,,,,,1.4564,,,,,,,,,,,,,,,,,,,,,,6101c1622c420e21591e1b96,61036be322fd58b8152497be,2021-07-29_20h03.42.324,Simcolourproject_2stim_asymm_v5,2020.2.10,MacIntel,60,61025ae37ef11b136ea224fe,,,,,,,,,2449,54.12371826,19.01092529,1,0,0,response1disk,,6,-3.949035645,-7.235321045,1,0,0,rectangle,-3.949035645,-7.235321045,1,0,0,-3.949035645,-7.235321045,1,0,0,0,60,60,12,1,,,,,,,,
,,,,,,,,,,,,,FF,,,,,,,,1.934,,,,,,,,,,,,,,,,,,,,,,6101c1622c420e21591e1b96,61036be322fd58b8152497be,2021-07-29_20h03.42.324,Simcolourproject_2stim_asymm_v5,2020.2.10,MacIntel,60,61025ae37ef11b136ea224fe,,,,,,,,,1452,-86.79931641,22.84179688,1,0,0,response7disk,,1,-32.13287354,2.989990234,1,0,0,rectangle,-32.13287354,2.989990234,1,0,0,-32.13287354,2.989990234,1,0,0,0,61,61,77,1,,,,,,,,
,,,,,,,,,,,,,FF,,,,,,,,1.7015,,,,,,,,,,,,,,,,,,,,,,6101c1622c420e21591e1b96,61036be322fd58b8152497be,2021-07-29_20h03.42.324,Simcolourproject_2stim_asymm_v5,2020.2.10,MacIntel,60,61025ae37ef11b136ea224fe,,,,,,,,,2471,33.68249512,81.58468628,1,0,0,response1disk,,7,-14.64990234,-8.587127686,1,0,0,rectangle,-14.64990234,-8.587127686,1,0,0,-14.64990234,-8.587127686,1,0,0,0,62,62,96,1,,,,,,,,
,,,,,,,,,,,,,FF,,,,,,,,3.1165,,,,,,,,,,,,,,,,,,,,,,6101c1622c420e21591e1b96,61036be322fd58b8152497be,2021-07-29_20h03.42.324,Simcolourproject_2stim_asymm_v5,2020.2.10,MacIntel,60,61025ae37ef11b136ea224fe,,,,,,,,,3276,80.19561768,50.50631714,1,0,0,response1disk,,6,10.10125732,-10.02764893,1,0,0,rectangle,10.10125732,-10.02764893,1,0,0,10.10125732,-10.02764893,1,0,0,0,63,63,140,1,,,,,,,,
,,,,,,,,,,,,,FF,,,,,,,,2.0798,,,,,,,,,,,,,,,,,,,,,,6101c1622c420e21591e1b96,61036be322fd58b8152497be,2021-07-29_20h03.42.324,Simcolourproject_2stim_asymm_v5,2020.2.10,MacIntel,60,61025ae37ef11b136ea224fe,,,,,,,,,4242,43.36975098,73.75888062,1,0,0,response1disk,,7,11.85070801,12.38781738,1,0,0,rectangle,11.85070801,12.38781738,1,0,0,11.85070801,12.38781738,1,0,0,0,64,64,37,1,,,,,,,,
,,,,,,,,,,,,,FF,,,,,,,,1.1552,,,,,,,,,,,,,,,,,,,,,,6101c1622c420e21591e1b96,61036be322fd58b8152497be,2021-07-29_20h03.42.324,Simcolourproject_2stim_asymm_v5,2020.2.10,MacIntel,60,61025ae37ef11b136ea224fe,,,,,,,,,900,-34.33605957,-72.77124023,1,0,0,response5disk,,3,11.04742432,11.82049561,1,0,0,rectangle,11.04742432,11.82049561,1,0,0,11.04742432,11.82049561,1,0,0,0,65,65,83,1,,,,,,,,
,,,,,,,,,,,,,FF,,,,,,,,1.4047,,,,,,,,,,,,,,,,,,,,,,6101c1622c420e21591e1b96,61036be322fd58b8152497be,2021-07-29_20h03.42.324,Simcolourproject_2stim_asymm_v5,2020.2.10,MacIntel,60,61025ae37ef11b136ea224fe,,,,,,,,,281,52.07415771,-80.84454346,1,0,0,response3disk,,4,13.11346436,-8.804016113,1,0,0,rectangle,13.11346436,-8.804016113,1,0,0,13.11346436,-8.804016113,1,0,0,0,66,66,144,1,,,,,,,,
,,,,,,,,,,,,,FF,,,,,,,,1.228,,,,,,,,,,,,,,,,,,,,,,6101c1622c420e21591e1b96,61036be322fd58b8152497be,2021-07-29_20h03.42.324,Simcolourproject_2stim_asymm_v5,2020.2.10,MacIntel,60,61025ae37ef11b136ea224fe,,,,,,,,,2899,37.9362793,-77.47821045,1,0,0,response3disk,,4,11.9586792,-4.785461426,1,0,0,rectangle,11.9586792,-4.785461426,1,0,0,11.9586792,-4.785461426,1,0,0,0,67,67,102,1,,,,,,,,
,,,,,,,,,,,,,FF,,,,,,,,2.1,,,,,,,,,,,,,,,,,,,,,,6101c1622c420e21591e1b96,61036be322fd58b8152497be,2021-07-29_20h03.42.324,Simcolourproject_2stim_asymm_v5,2020.2.10,MacIntel,60,61025ae37ef11b136ea224fe,,,,,,,,,161,84.29754639,23.47735596,1,0,0,response1disk,,6,1.167602539,4.425842285,1,0,0,rectangle,1.167602539,4.425842285,1,0,0,1.167602539,4.425842285,1,0,0,0,68,68,95,1,,,,,,,,
,,,,,,,,,,,,,FF,,,,,,,,2.0019,,,,,,,,,,,,,,,,,,,,,,6101c1622c420e21591e1b96,61036be322fd58b8152497be,2021-07-29_20h03.42.324,Simcolourproject_2stim_asymm_v5,2020.2.10,MacIntel,60,61025ae37ef11b136ea224fe,,,,,,,,,177,70.25616455,25.15533447,1,0,0,response1disk,,6,10.81335449,0.822143555,1,0,0,rectangle,10.81335449,0.822143555,1,0,0,10.81335449,0.822143555,1,0,0,0,69,69,54,1,,,,,,,,
,,,,,,,,,,,,,FF,,,,,,,,3.7669,,,,,,,,,,,,,,,,,,,,,,6101c1622c420e21591e1b96,61036be322fd58b8152497be,2021-07-29_20h03.42.324,Simcolourproject_2stim_asymm_v5,2020.2.10,MacIntel,60,61025ae37ef11b136ea224fe,,,,,,,,,3179,80.09716797,35.83099365,1,0,0,response1disk,,6,-14.61407471,-10.08267212,1,0,0,rectangle,-14.61407471,-10.08267212,1,0,0,-14.61407471,-10.08267212,1,0,0,0,70,70,158,1,,,,,,,,
,,,,,,,,,,,,,FF,,,,,,,,2.6665,,,,,,,,,,,,,,,,,,,,,,6101c1622c420e21591e1b96,61036be322fd58b8152497be,2021-07-29_20h03.42.324,Simcolourproject_2stim_asymm_v5,2020.2.10,MacIntel,60,61025ae37ef11b136ea224fe,,,,,,,,,2270,77.79626465,-41.38577271,1,0,0,response3disk,,5,6.348327637,17.27575684,1,0,0,rectangle,6.348327637,17.27575684,1,0,0,6.348327637,17.27575684,1,0,0,0,71,71,119,1,,,,,,,,
,,,,,,,,,,,,,FF,,,,,,,,1.9969,,,,,,,,,,,,,,,,,,,,,,6101c1622c420e21591e1b96,61036be322fd58b8152497be,2021-07-29_20h03.42.324,Simcolourproject_2stim_asymm_v5,2020.2.10,MacIntel,60,61025ae37ef11b136ea224fe,,,,,,,,,149,54.58416748,26.02838135,1,0,0,response1disk,,6,-2.522155762,-6.870666504,1,0,0,rectangle,-2.522155762,-6.870666504,1,0,0,-2.522155762,-6.870666504,1,0,0,0,72,72,28,1,,,,,,,,
,,,,,,,,,,,,,FF,,,,,,,,1.8168,,,,,,,,,,,,,,,,,,,,,,6101c1622c420e21591e1b96,61036be322fd58b8152497be,2021-07-29_20h03.42.324,Simcolourproject_2stim_asymm_v5,2020.2.10,MacIntel,60,61025ae37ef11b136ea224fe,,,,,,,,,808,-52.31237793,-76.25366211,1,0,0,response5disk,,3,-8.84185791,-7.646484375,1,0,0,rectangle,-8.84185791,-7.646484375,1,0,0,-8.84185791,-7.646484375,1,0,0,0,73,73,24,1,,,,,,,,
,,,,,,,,,,,,,FF,,,,,,,,1.5742,,,,,,,,,,,,,,,,,,,,,,6101c1622c420e21591e1b96,61036be322fd58b8152497be,2021-07-29_20h03.42.324,Simcolourproject_2stim_asymm_v5,2020.2.10,MacIntel,60,61025ae37ef11b136ea224fe,,,,,,,,,4299,18.62445068,-62.46325684,1,0,0,response3disk,,4,-1.592773438,-9.87902832,1,0,0,rectangle,-1.592773438,-9.87902832,1,0,0,-1.592773438,-9.87902832,1,0,0,0,74,74,27,1,,,,,,,,
,,,,,,,,,,,,,FF,,,,,,,,5.057,,,,,,,,,,,,,,,,,,,,,,6101c1622c420e21591e1b96,61036be322fd58b8152497be,2021-07-29_20h03.42.324,Simcolourproject_2stim_asymm_v5,2020.2.10,MacIntel,60,61025ae37ef11b136ea224fe,,,,,,,,,3571,91.09161377,42.98348999,1,0,0,response1disk,,6,18.25476074,1.047851563,1,0,0,rectangle,18.25476074,1.047851563,1,0,0,18.25476074,1.047851563,1,0,0,0,75,75,136,1,,,,,,,,
,,,,,,,,,,,,,FF,,,,,,,,1.8827,,,,,,,,,,,,,,,,,,,,,,6101c1622c420e21591e1b96,61036be322fd58b8152497be,2021-07-29_20h03.42.324,Simcolourproject_2stim_asymm_v5,2020.2.10,MacIntel,60,61025ae37ef11b136ea224fe,,,,,,,,,2841,-37.51159668,-86.17736816,1,0,0,response5disk,,3,-8.107788086,1.6222229,1,0,0,rectangle,-8.107788086,1.6222229,1,0,0,-8.107788086,1.6222229,1,0,0,0,76,76,123,1,,,,,,,,
,,,,,,,,,,,,,FF,,,,,,,,0.8832,,,,,,,,,,,,,,,,,,,,,,6101c1622c420e21591e1b96,61036be322fd58b8152497be,2021-07-29_20h03.42.324,Simcolourproject_2stim_asymm_v5,2020.2.10,MacIntel,60,61025ae37ef11b136ea224fe,,,,,,,,,2346,30.89941406,69.28533936,1,0,0,response1disk,,7,3.463867188,6.592071533,1,0,0,rectangle,3.463867188,6.592071533,1,0,0,3.463867188,6.592071533,1,0,0,0,77,77,90,1,,,,,,,,
,,,,,,,,,,,,,FF,,,,,,,,1.3328,,,,,,,,,,,,,,,,,,,,,,6101c1622c420e21591e1b96,61036be322fd58b8152497be,2021-07-29_20h03.42.324,Simcolourproject_2stim_asymm_v5,2020.2.10,MacIntel,60,61025ae37ef11b136ea224fe,,,,,,,,,3441,30.89349365,-86.5480957,1,0,0,response3disk,,4,-0.991149902,-2.991821289,1,0,0,rectangle,-0.991149902,-2.991821289,1,0,0,-0.991149902,-2.991821289,1,0,0,0,78,78,153,1,,,,,,,,
,,,,,,,,,,,,,FF,,,,,,,,2.3171,,,,,,,,,,,,,,,,,,,,,,6101c1622c420e21591e1b96,61036be322fd58b8152497be,2021-07-29_20h03.42.324,Simcolourproject_2stim_asymm_v5,2020.2.10,MacIntel,60,61025ae37ef11b136ea224fe,,,,,,,,,962,74.12249756,-50.23876953,1,0,0,response3disk,,5,-7.950317383,-7.462921143,1,0,0,rectangle,-7.950317383,-7.462921143,1,0,0,-7.950317383,-7.462921143,1,0,0,0,79,79,133,1,,,,,,,,
,,,,,,,,,,,,,FF,,,,,,,,2.1503,,,,,,,,,,,,,,,,,,,,,,6101c1622c420e21591e1b96,61036be322fd58b8152497be,2021-07-29_20h03.42.324,Simcolourproject_2stim_asymm_v5,2020.2.10,MacIntel,60,61025ae37ef11b136ea224fe,,,,,,,,,517,63.5423584,-42.91992188,1,0,0,response3disk,,5,6.971435547,-11.28515625,1,0,0,rectangle,6.971435547,-11.28515625,1,0,0,6.971435547,-11.28515625,1,0,0,0,80,80,86,1,,,,,,,,
,,,,,,,,,,,,,FF,,,,,,,,0.6153,,,,,,,,,,,,,,,,,,,,,,6101c1622c420e21591e1b96,61036be322fd58b8152497be,2021-07-29_20h03.42.324,Simcolourproject_2stim_asymm_v5,2020.2.10,MacIntel,60,61025ae37ef11b136ea224fe,,,,,,,,,84,28.70428467,88.12493896,1,0,0,response1disk,,7,-3.234619141,-14.93963623,1,0,0,rectangle,-3.234619141,-14.93963623,1,0,0,-3.234619141,-14.93963623,1,0,0,0,81,81,139,1,,,,,,,,
,,,,,,,,,,,,,FF,,,,,,,,3.4526,,,,,,,,,,,,,,,,,,,,,,6101c1622c420e21591e1b96,61036be322fd58b8152497be,2021-07-29_20h03.42.324,Simcolourproject_2stim_asymm_v5,2020.2.10,MacIntel,60,61025ae37ef11b136ea224fe,,,,,,,,,2354,41.44995117,87.13061523,1,0,0,response1disk,,7,13.42559814,1.933563232,1,0,0,rectangle,13.42559814,1.933563232,1,0,0,13.42559814,1.933563232,1,0,0,0,82,82,88,1,,,,,,,,
,,,,,,,,,,,,,FF,,,,,,,,3.7334,,,,,,,,,,,,,,,,,,,,,,6101c1622c420e21591e1b96,61036be322fd58b8152497be,2021-07-29_20h03.42.324,Simcolourproject_2stim_asymm_v5,2020.2.10,MacIntel,60,61025ae37ef11b136ea224fe,,,,,,,,,4032,62.64874268,37.90887451,1,0,0,response1disk,,6,11.4699707,-9.914093018,1,0,0,rectangle,11.4699707,-9.914093018,1,0,0,11.4699707,-9.914093018,1,0,0,0,83,83,115,1,,,,,,,,
,,,,,,,,,,,,,FF,,,,,,,,0.7499,,,,,,,,,,,,,,,,,,,,,,6101c1622c420e21591e1b96,61036be322fd58b8152497be,2021-07-29_20h03.42.324,Simcolourproject_2stim_asymm_v5,2020.2.10,MacIntel,60,61025ae37ef11b136ea224fe,,,,,,,,,3956,32.51745605,72.86364746,1,0,0,response1disk,,7,0.477722168,-11.57543945,1,0,0,rectangle,-75.22235107,33.43890381,1,0,0,-2.545288086,-4.038696289,1,0,0,0,84,84,134,1,,response7disk_3,TRUE,1,1,"[316,323,6,185,252,28,236,154,85,134,184,55,275,253,138,134,42,263,150,203]",1.4668,rectangle
,,,,,,,,,,,,,FF,,,,,,,,3.6833,,,,,,,,,,,,,,,,,,,,,,6101c1622c420e21591e1b96,61036be322fd58b8152497be,2021-07-29_20h03.42.324,Simcolourproject_2stim_asymm_v5,2020.2.10,MacIntel,60,61025ae37ef11b136ea224fe,,,,,,,,,1914,72.07244873,-49.51202393,1,0,0,response3disk,,5,12.93432617,-2.962646484,1,0,0,rectangle,12.93432617,-2.962646484,1,0,0,12.93432617,-2.962646484,1,0,0,0,85,85,17,1,,,,,,,,
,,,,,,,,,,,,,FF,,,,,,,,1.9474,,,,,,,,,,,,,,,,,,,,,,6101c1622c420e21591e1b96,61036be322fd58b8152497be,2021-07-29_20h03.42.324,Simcolourproject_2stim_asymm_v5,2020.2.10,MacIntel,60,61025ae37ef11b136ea224fe,,,,,,,,,2116,56.82897949,39.45880127,1,0,0,response1disk,,6,0.558532715,-15.50286865,1,0,0,rectangle,0.558532715,-15.50286865,1,0,0,0.558532715,-15.50286865,1,0,0,0,86,86,6,1,,,,,,,,
,,,,,,,,,,,,,FF,,,,,,,,5.4557,,,,,,,,,,,,,,,,,,,,,,6101c1622c420e21591e1b96,61036be322fd58b8152497be,2021-07-29_20h03.42.324,Simcolourproject_2stim_asymm_v5,2020.2.10,MacIntel,60,61025ae37ef11b136ea224fe,,,,,,,,,2063,68.8895874,33.2980957,1,0,0,response1disk,,6,21.29510498,-6.411987305,1,0,0,rectangle,21.29510498,-6.411987305,1,0,0,21.29510498,-6.411987305,1,0,0,0,87,87,114,1,,,,,,,,
,,,,,,,,,,,,,FF,,,,,,,,1.7654,,,,,,,,,,,,,,,,,,,,,,6101c1622c420e21591e1b96,61036be322fd58b8152497be,2021-07-29_20h03.42.324,Simcolourproject_2stim_asymm_v5,2020.2.10,MacIntel,60,61025ae37ef11b136ea224fe,,,,,,,,,1707,68.97137451,35.10302734,1,0,0,response1disk,,6,12.82983398,0.628540039,1,0,0,rectangle,12.82983398,0.628540039,1,0,0,12.82983398,0.628540039,1,0,0,0,88,88,56,1,,,,,,,,
,,,,,,,,,,,,,FF,,,,,,,,0.7835,,,,,,,,,,,,,,,,,,,,,,6101c1622c420e21591e1b96,61036be322fd58b8152497be,2021-07-29_20h03.42.324,Simcolourproject_2stim_asymm_v5,2020.2.10,MacIntel,60,61025ae37ef11b136ea224fe,,,,,,,,,1492,48.90234375,86.09747314,1,0,0,response1disk,,7,13.85522461,9.22744751,1,0,0,rectangle,13.85522461,9.22744751,1,0,0,13.85522461,9.22744751,1,0,0,0,89,89,31,1,,,,,,,,
,,,,,,,,,,,,,FF,,,,,,,,5.3527,,,,,,,,,,,,,,,,,,,,,,6101c1622c420e21591e1b96,61036be322fd58b8152497be,2021-07-29_20h03.42.324,Simcolourproject_2stim_asymm_v5,2020.2.10,MacIntel,60,61025ae37ef11b136ea224fe,,,,,,,,,55,90.23284912,-18.67651367,1,0,0,response3disk,,5,10.47003174,-8.678100586,1,0,0,rectangle,10.47003174,-8.678100586,1,0,0,10.47003174,-8.678100586,1,0,0,0,90,90,69,1,,,,,,,,
,,,,,,,,,,,,,FF,,,,,,,,1.4331,,,,,,,,,,,,,,,,,,,,,,6101c1622c420e21591e1b96,61036be322fd58b8152497be,2021-07-29_20h03.42.324,Simcolourproject_2stim_asymm_v5,2020.2.10,MacIntel,60,61025ae37ef11b136ea224fe,,,,,,,,,434,27.85186768,-63.05578613,1,0,0,response3disk,,4,-7.374816895,-15.08740234,1,0,0,rectangle,-7.374816895,-15.08740234,1,0,0,-7.374816895,-15.08740234,1,0,0,0,91,91,21,1,,,,,,,,
,,,,,,,,,,,,,FF,,,,,,,,0.9488,,,,,,,,,,,,,,,,,,,,,,6101c1622c420e21591e1b96,61036be322fd58b8152497be,2021-07-29_20h03.42.324,Simcolourproject_2stim_asymm_v5,2020.2.10,MacIntel,60,61025ae37ef11b136ea224fe,,,,,,,,,2999,-58.3994751,-84.72735596,1,0,0,response5disk,,3,-6.947692871,-4.16394043,1,0,0,rectangle,-6.947692871,-4.16394043,1,0,0,-6.947692871,-4.16394043,1,0,0,0,92,92,7,1,,,,,,,,
,,,,,,,,,,,,,FF,,,,,,,,1.3341,,,,,,,,,,,,,,,,,,,,,,6101c1622c420e21591e1b96,61036be322fd58b8152497be,2021-07-29_20h03.42.324,Simcolourproject_2stim_asymm_v5,2020.2.10,MacIntel,60,61025ae37ef11b136ea224fe,,,,,,,,,1224,40.17358398,-65.20996094,1,0,0,response3disk,,4,22.73199463,-9.731201172,1,0,0,rectangle,22.73199463,-9.731201172,1,0,0,22.73199463,-9.731201172,1,0,0,0,93,93,3,1,,,,,,,,
,,,,,,,,,,,,,FF,,,,,,,,2.1036,,,,,,,,,,,,,,,,,,,,,,6101c1622c420e21591e1b96,61036be322fd58b8152497be,2021-07-29_20h03.42.324,Simcolourproject_2stim_asymm_v5,2020.2.10,MacIntel,60,61025ae37ef11b136ea224fe,,,,,,,,,3942,53.54180908,-33.52679443,1,0,0,response3disk,,5,21.99597168,3.378601074,1,0,0,rectangle,21.99597168,3.378601074,1,0,0,21.99597168,3.378601074,1,0,0,0,94,94,122,1,,,,,,,,
,,,,,,,,,,,,,FF,,,,,,,,1.7336,,,,,,,,,,,,,,,,,,,,,,6101c1622c420e21591e1b96,61036be322fd58b8152497be,2021-07-29_20h03.42.324,Simcolourproject_2stim_asymm_v5,2020.2.10,MacIntel,60,61025ae37ef11b136ea224fe,,,,,,,,,1881,49.86810303,18.10083008,1,0,0,response1disk,,6,5.945922852,4.376708984,1,0,0,rectangle,5.945922852,4.376708984,1,0,0,5.945922852,4.376708984,1,0,0,0,95,95,157,1,,,,,,,,
,,,,,,,,,,,,,FF,,,,,,,,1.6346,,,,,,,,,,,,,,,,,,,,,,6101c1622c420e21591e1b96,61036be322fd58b8152497be,2021-07-29_20h03.42.324,Simcolourproject_2stim_asymm_v5,2020.2.10,MacIntel,60,61025ae37ef11b136ea224fe,,,,,,,,,4249,72.31958008,23.86535645,1,0,0,response1disk,,6,7.445861816,-5.594848633,1,0,0,rectangle,7.445861816,-5.594848633,1,0,0,7.445861816,-5.594848633,1,0,0,0,96,96,145,1,,,,,,,,
,,,,,,,,,,,,,FF,,,,,,,,1.6796,,,,,,,,,,,,,,,,,,,,,,6101c1622c420e21591e1b96,61036be322fd58b8152497be,2021-07-29_20h03.42.324,Simcolourproject_2stim_asymm_v5,2020.2.10,MacIntel,60,61025ae37ef11b136ea224fe,,,,,,,,,4049,-53.89233398,-75.13201904,1,0,0,response5disk,,3,-16.87762451,2.018554688,1,0,0,rectangle,-16.87762451,2.018554688,1,0,0,-16.87762451,2.018554688,1,0,0,0,97,97,71,1,,,,,,,,
,,,,,,,,,,,,,FF,,,,,,,,2.4665,,,,,,,,,,,,,,,,,,,,,,6101c1622c420e21591e1b96,61036be322fd58b8152497be,2021-07-29_20h03.42.324,Simcolourproject_2stim_asymm_v5,2020.2.10,MacIntel,60,61025ae37ef11b136ea224fe,,,,,,,,,1017,87.16326904,-45.21179199,1,0,0,response3disk,,5,4.313476563,14.71832275,1,0,0,rectangle,4.313476563,14.71832275,1,0,0,4.313476563,14.71832275,1,0,0,0,98,98,94,1,,,,,,,,
,,,,,,,,,,,,,FF,,,,,,,,0.7675,,,,,,,,,,,,,,,,,,,,,,6101c1622c420e21591e1b96,61036be322fd58b8152497be,2021-07-29_20h03.42.324,Simcolourproject_2stim_asymm_v5,2020.2.10,MacIntel,60,61025ae37ef11b136ea224fe,,,,,,,,,2003,41.75848389,88.61630249,1,0,0,response1disk,,7,15.18383789,15.71490479,1,0,0,rectangle,15.18383789,15.71490479,1,0,0,15.18383789,15.71490479,1,0,0,0,99,99,34,1,,,,,,,,
,,,,,,,,,,,,,FF,,,,,,,,1.7007,,,,,,,,,,,,,,,,,,,,,,6101c1622c420e21591e1b96,61036be322fd58b8152497be,2021-07-29_20h03.42.324,Simcolourproject_2stim_asymm_v5,2020.2.10,MacIntel,60,61025ae37ef11b136ea224fe,,,,,,,,,869,-38.64813232,-75.67138672,1,0,0,response5disk,,3,-9.608886719,1.240234375,1,0,0,rectangle,-9.608886719,1.240234375,1,0,0,-9.608886719,1.240234375,1,0,0,0,100,100,155,1,,,,,,,,
,,,,,,,,,,,,,FF,,,,,,,,4.0108,,,,,,,,,,,,,,,,,,,,,,6101c1622c420e21591e1b96,61036be322fd58b8152497be,2021-07-29_20h03.42.324,Simcolourproject_2stim_asymm_v5,2020.2.10,MacIntel,60,61025ae37ef11b136ea224fe,,,,,,,,,2111,57.47418213,-41.23657227,1,0,0,response3disk,,5,3.501831055,5.847991943,1,0,0,rectangle,3.501831055,5.847991943,1,0,0,3.501831055,5.847991943,1,0,0,0,101,101,99,1,,,,,,,,
,,,,,,,,,,,,,FF,,,,,,,,5.7005,,,,,,,,,,,,,,,,,,,,,,6101c1622c420e21591e1b96,61036be322fd58b8152497be,2021-07-29_20h03.42.324,Simcolourproject_2stim_asymm_v5,2020.2.10,MacIntel,60,61025ae37ef11b136ea224fe,,,,,,,,,1432,30.96502686,-90.81054688,1,0,0,response3disk,,4,-2.290039063,12.9609375,1,0,0,rectangle,-2.290039063,12.9609375,1,0,0,-2.290039063,12.9609375,1,0,0,0,102,102,4,1,,,,,,,,
,,,,,,,,,,,,,FF,,,,,,,,0.7839,,,,,,,,,,,,,,,,,,,,,,6101c1622c420e21591e1b96,61036be322fd58b8152497be,2021-07-29_20h03.42.324,Simcolourproject_2stim_asymm_v5,2020.2.10,MacIntel,60,61025ae37ef11b136ea224fe,,,,,,,,,2291,-46.54541016,73.35595703,1,0,0,response7disk,,0,-9.743896484,-1.362243652,1,0,0,rectangle,-9.743896484,-1.362243652,1,0,0,-9.743896484,-1.362243652,1,0,0,0,103,103,78,1,,,,,,,,
,,,,,,,,,,,,,FF,,,,,,,,1.8687,,,,,,,,,,,,,,,,,,,,,,6101c1622c420e21591e1b96,61036be322fd58b8152497be,2021-07-29_20h03.42.324,Simcolourproject_2stim_asymm_v5,2020.2.10,MacIntel,60,61025ae37ef11b136ea224fe,,,,,,,,,523,-38.08831787,-84.23760986,1,0,0,response5disk,,3,1.658752441,-7.848632813,1,0,0,rectangle,1.658752441,-7.848632813,1,0,0,1.658752441,-7.848632813,1,0,0,0,104,104,81,1,,,,,,,,
,,,,,,,,,,,,,FF,,,,,,,,1.8821,,,,,,,,,,,,,,,,,,,,,,6101c1622c420e21591e1b96,61036be322fd58b8152497be,2021-07-29_20h03.42.324,Simcolourproject_2stim_asymm_v5,2020.2.10,MacIntel,60,61025ae37ef11b136ea224fe,,,,,,,,,29,77.56890869,46.16867065,1,0,0,response1disk,,6,-1.303955078,-7.705749512,1,0,0,rectangle,-1.303955078,-7.705749512,1,0,0,-1.303955078,-7.705749512,1,0,0,0,105,105,110,1,,,,,,,,
,,,,,,,,,,,,,FF,,,,,,,,1.1664,,,,,,,,,,,,,,,,,,,,,,6101c1622c420e21591e1b96,61036be322fd58b8152497be,2021-07-29_20h03.42.324,Simcolourproject_2stim_asymm_v5,2020.2.10,MacIntel,60,61025ae37ef11b136ea224fe,,,,,,,,,1156,33.76342773,-63.01135254,1,0,0,response3disk,,4,8.321105957,-2.021118164,1,0,0,rectangle,8.321105957,-2.021118164,1,0,0,8.321105957,-2.021118164,1,0,0,0,106,106,67,1,,,,,,,,
,,,,,,,,,,,,,FF,,,,,,,,1.5319,,,,,,,,,,,,,,,,,,,,,,6101c1622c420e21591e1b96,61036be322fd58b8152497be,2021-07-29_20h03.42.324,Simcolourproject_2stim_asymm_v5,2020.2.10,MacIntel,60,61025ae37ef11b136ea224fe,,,,,,,,,2510,41.184021,17.70397949,1,0,0,response1disk,,6,15.2355957,2.117340088,1,0,0,rectangle,15.2355957,2.117340088,1,0,0,15.2355957,2.117340088,1,0,0,0,107,107,52,1,,,,,,,,
,,,,,,,,,,,,,FF,,,,,,,,2.6458,,,,,,,,,,,,,,,,,,,,,,6101c1622c420e21591e1b96,61036be322fd58b8152497be,2021-07-29_20h03.42.324,Simcolourproject_2stim_asymm_v5,2020.2.10,MacIntel,60,61025ae37ef11b136ea224fe,,,,,,,,,659,61.18377686,-36.85784912,1,0,0,response3disk,,5,-21.83502197,-5.275878906,1,0,0,rectangle,-21.83502197,-5.275878906,1,0,0,-21.83502197,-5.275878906,1,0,0,0,108,108,64,1,,,,,,,,
,,,,,,,,,,,,,FF,,,,,,,,2.0496,,,,,,,,,,,,,,,,,,,,,,6101c1622c420e21591e1b96,61036be322fd58b8152497be,2021-07-29_20h03.42.324,Simcolourproject_2stim_asymm_v5,2020.2.10,MacIntel,60,61025ae37ef11b136ea224fe,,,,,,,,,39,47.46496582,32.27838135,1,0,0,response1disk,,6,-5.734741211,17.9447937,1,0,0,rectangle,-5.734741211,17.9447937,1,0,0,-5.734741211,17.9447937,1,0,0,0,109,109,80,1,,,,,,,,
,,,,,,,,,,,,,FF,,,,,,,,1.7567,,,,,,,,,,,,,,,,,,,,,,6101c1622c420e21591e1b96,61036be322fd58b8152497be,2021-07-29_20h03.42.324,Simcolourproject_2stim_asymm_v5,2020.2.10,MacIntel,60,61025ae37ef11b136ea224fe,,,,,,,,,1126,63.03387451,-39.67193604,1,0,0,response3disk,,5,-11.55755615,8.782928467,1,0,0,rectangle,-11.55755615,8.782928467,1,0,0,-11.55755615,8.782928467,1,0,0,0,110,110,137,1,,,,,,,,
,,,,,,,,,,,,,FF,,,,,,,,1.1653,,,,,,,,,,,,,,,,,,,,,,6101c1622c420e21591e1b96,61036be322fd58b8152497be,2021-07-29_20h03.42.324,Simcolourproject_2stim_asymm_v5,2020.2.10,MacIntel,60,61025ae37ef11b136ea224fe,,,,,,,,,2484,51.15319824,-85.33886719,1,0,0,response3disk,,4,9.121826172,-16.20108032,1,0,0,rectangle,9.121826172,-16.20108032,1,0,0,9.121826172,-16.20108032,1,0,0,0,111,111,120,1,,,,,,,,
,,,,,,,,,,,,,FF,,,,,,,,0.8043,,,,,,,,,,,,,,,,,,,,,,6101c1622c420e21591e1b96,61036be322fd58b8152497be,2021-07-29_20h03.42.324,Simcolourproject_2stim_asymm_v5,2020.2.10,MacIntel,60,61025ae37ef11b136ea224fe,,,,,,,,,1104,51.08099365,106.5431213,1,0,0,response1disk,,7,10.39776611,7.762268066,1,0,0,rectangle,10.39776611,7.762268066,1,0,0,10.39776611,7.762268066,1,0,0,0,112,112,20,1,,,,,,,,
,,,,,,,,,,,,,FF,,,,,,,,1.6836,,,,,,,,,,,,,,,,,,,,,,6101c1622c420e21591e1b96,61036be322fd58b8152497be,2021-07-29_20h03.42.324,Simcolourproject_2stim_asymm_v5,2020.2.10,MacIntel,60,61025ae37ef11b136ea224fe,,,,,,,,,951,87.36102295,40.99728394,1,0,0,response1disk,,6,-7.385437012,-4.279907227,1,0,0,rectangle,-7.385437012,-4.279907227,1,0,0,-7.385437012,-4.279907227,1,0,0,0,113,113,29,1,,,,,,,,
,,,,,,,,,,,,,FF,,,,,,,,1.6153,,,,,,,,,,,,,,,,,,,,,,6101c1622c420e21591e1b96,61036be322fd58b8152497be,2021-07-29_20h03.42.324,Simcolourproject_2stim_asymm_v5,2020.2.10,MacIntel,60,61025ae37ef11b136ea224fe,,,,,,,,,696,42.54986572,87.20715332,1,0,0,response1disk,,7,-7.902038574,-2.10256958,1,0,0,rectangle,-7.902038574,-2.10256958,1,0,0,-7.902038574,-2.10256958,1,0,0,0,114,114,132,1,,,,,,,,
,,,,,,,,,,,,,FF,,,,,,,,1.7702,,,,,,,,,,,,,,,,,,,,,,6101c1622c420e21591e1b96,61036be322fd58b8152497be,2021-07-29_20h03.42.324,Simcolourproject_2stim_asymm_v5,2020.2.10,MacIntel,60,61025ae37ef11b136ea224fe,,,,,,,,,1087,74.38494873,33.48419189,1,0,0,response1disk,,6,15.08227539,-9.260406494,1,0,0,rectangle,15.08227539,-9.260406494,1,0,0,15.08227539,-9.260406494,1,0,0,0,115,115,111,1,,,,,,,,
,,,,,,,,,,,,,FF,,,,,,,,1.4001,,,,,,,,,,,,,,,,,,,,,,6101c1622c420e21591e1b96,61036be322fd58b8152497be,2021-07-29_20h03.42.324,Simcolourproject_2stim_asymm_v5,2020.2.10,MacIntel,60,61025ae37ef11b136ea224fe,,,,,,,,,3577,69.75689697,31.99029541,1,0,0,response1disk,,6,27.16717529,-5.654846191,1,0,0,rectangle,27.16717529,-5.654846191,1,0,0,27.16717529,-5.654846191,1,0,0,0,116,116,13,1,,,,,,,,
,,,,,,,,,,,,,FF,,,,,,,,1.666,,,,,,,,,,,,,,,,,,,,,,6101c1622c420e21591e1b96,61036be322fd58b8152497be,2021-07-29_20h03.42.324,Simcolourproject_2stim_asymm_v5,2020.2.10,MacIntel,60,61025ae37ef11b136ea224fe,,,,,,,,,2935,-67.40100098,-33.756073,1,0,0,response5disk,,2,-6.134155273,7.573547363,1,0,0,rectangle,-6.134155273,7.573547363,1,0,0,-6.134155273,7.573547363,1,0,0,0,117,117,51,1,,,,,,,,
,,,,,,,,,,,,,FF,,,,,,,,0.883,,,,,,,,,,,,,,,,,,,,,,6101c1622c420e21591e1b96,61036be322fd58b8152497be,2021-07-29_20h03.42.324,Simcolourproject_2stim_asymm_v5,2020.2.10,MacIntel,60,61025ae37ef11b136ea224fe,,,,,,,,,1370,-57.30596924,-31.92498779,1,0,0,response5disk,,2,0.007446289,-4.901062012,1,0,0,rectangle,0.007446289,-4.901062012,1,0,0,0.007446289,-4.901062012,1,0,0,0,118,118,75,1,,,,,,,,
,,,,,,,,,,,,,FF,,,,,,,,2.7557,,,,,,,,,,,,,,,,,,,,,,6101c1622c420e21591e1b96,61036be322fd58b8152497be,2021-07-29_20h03.42.324,Simcolourproject_2stim_asymm_v5,2020.2.10,MacIntel,60,61025ae37ef11b136ea224fe,,,,,,,,,1583,71.43585205,-29.40762329,1,0,0,response3disk,,5,-3.815368652,-3.71194458,1,0,0,rectangle,-3.815368652,-3.71194458,1,0,0,-3.815368652,-3.71194458,1,0,0,0,119,119,103,1,,,,,,,,
,,,,,,,,,,,,,FF,,,,,,,,0.9692,,,,,,,,,,,,,,,,,,,,,,6101c1622c420e21591e1b96,61036be322fd58b8152497be,2021-07-29_20h03.42.324,Simcolourproject_2stim_asymm_v5,2020.2.10,MacIntel,60,61025ae37ef11b136ea224fe,,,,,,,,,2558,87.59277344,44.54699707,1,0,0,response1disk,,6,22.35095215,4.606903076,1,0,0,rectangle,22.35095215,4.606903076,1,0,0,22.35095215,4.606903076,1,0,0,0,120,120,5,1,,,,,,,,
,,,,,,,,,,,,,FF,,,,,,,,2.0006,,,,,,,,,,,,,,,,,,,,,,6101c1622c420e21591e1b96,61036be322fd58b8152497be,2021-07-29_20h03.42.324,Simcolourproject_2stim_asymm_v5,2020.2.10,MacIntel,60,61025ae37ef11b136ea224fe,,,,,,,,,4309,85.86645508,42.88378906,1,0,0,response1disk,,6,-1.335632324,-16.78912354,1,0,0,rectangle,-1.335632324,-16.78912354,1,0,0,-1.335632324,-16.78912354,1,0,0,0,121,121,84,1,,,,,,,,
,,,,,,,,,,,,,FF,,,,,,,,1.5347,,,,,,,,,,,,,,,,,,,,,,6101c1622c420e21591e1b96,61036be322fd58b8152497be,2021-07-29_20h03.42.324,Simcolourproject_2stim_asymm_v5,2020.2.10,MacIntel,60,61025ae37ef11b136ea224fe,,,,,,,,,2478,81.41290283,41.19232178,1,0,0,response1disk,,6,15.04486084,5.061340332,1,0,0,rectangle,15.04486084,5.061340332,1,0,0,15.04486084,5.061340332,1,0,0,0,122,122,57,1,,,,,,,,
,,,,,,,,,,,,,FF,,,,,,,,2.6851,,,,,,,,,,,,,,,,,,,,,,6101c1622c420e21591e1b96,61036be322fd58b8152497be,2021-07-29_20h03.42.324,Simcolourproject_2stim_asymm_v5,2020.2.10,MacIntel,60,61025ae37ef11b136ea224fe,,,,,,,,,1726,72.37402344,-37.04516602,1,0,0,response3disk,,5,-7.770507813,5.711730957,1,0,0,rectangle,-7.770507813,5.711730957,1,0,0,-7.770507813,5.711730957,1,0,0,0,123,123,45,1,,,,,,,,
,,,,,,,,,,,,,FF,,,,,,,,1.333,,,,,,,,,,,,,,,,,,,,,,6101c1622c420e21591e1b96,61036be322fd58b8152497be,2021-07-29_20h03.42.324,Simcolourproject_2stim_asymm_v5,2020.2.10,MacIntel,60,61025ae37ef11b136ea224fe,,,,,,,,,4141,-23.95257568,-85.97772217,1,0,0,response5disk,,3,12.03674316,5.432189941,1,0,0,rectangle,12.03674316,5.432189941,1,0,0,12.03674316,5.432189941,1,0,0,0,124,124,149,1,,,,,,,,
,,,,,,,,,,,,,FF,,,,,,,,1.8664,,,,,,,,,,,,,,,,,,,,,,6101c1622c420e21591e1b96,61036be322fd58b8152497be,2021-07-29_20h03.42.324,Simcolourproject_2stim_asymm_v5,2020.2.10,MacIntel,60,61025ae37ef11b136ea224fe,,,,,,,,,111,57.16375732,-28.15905762,1,0,0,response3disk,,5,2.059692383,13.09222412,1,0,0,rectangle,2.059692383,13.09222412,1,0,0,2.059692383,13.09222412,1,0,0,0,125,125,0,1,,,,,,,,
,,,,,,,,,,,,,FF,,,,,,,,3.0021,,,,,,,,,,,,,,,,,,,,,,6101c1622c420e21591e1b96,61036be322fd58b8152497be,2021-07-29_20h03.42.324,Simcolourproject_2stim_asymm_v5,2020.2.10,MacIntel,60,61025ae37ef11b136ea224fe,,,,,,,,,3181,67.4005127,51.87237549,1,0,0,response1disk,,6,1.374755859,-10.89425659,1,0,0,rectangle,1.374755859,-10.89425659,1,0,0,1.374755859,-10.89425659,1,0,0,0,126,126,85,1,,,,,,,,
,,,,,,,,,,,,,FF,,,,,,,,1.4835,,,,,,,,,,,,,,,,,,,,,,6101c1622c420e21591e1b96,61036be322fd58b8152497be,2021-07-29_20h03.42.324,Simcolourproject_2stim_asymm_v5,2020.2.10,MacIntel,60,61025ae37ef11b136ea224fe,,,,,,,,,1398,24.48956299,-73.36047363,1,0,0,response3disk,,4,-0.121520996,2.786071777,1,0,0,rectangle,-0.121520996,2.786071777,1,0,0,-0.121520996,2.786071777,1,0,0,0,127,127,147,1,,,,,,,,
,,,,,,,,,,,,,FF,,,,,,,,0.917,,,,,,,,,,,,,,,,,,,,,,6101c1622c420e21591e1b96,61036be322fd58b8152497be,2021-07-29_20h03.42.324,Simcolourproject_2stim_asymm_v5,2020.2.10,MacIntel,60,61025ae37ef11b136ea224fe,,,,,,,,,4335,-35.24212646,86.71020508,1,0,0,response7disk,,0,0.38684082,2.807434082,1,0,0,rectangle,0.38684082,2.807434082,1,0,0,0.38684082,2.807434082,1,0,0,0,128,128,87,1,,,,,,,,
,,,,,,,,,,,,,FF,,,,,,,,5.2058,,,,,,,,,,,,,,,,,,,,,,6101c1622c420e21591e1b96,61036be322fd58b8152497be,2021-07-29_20h03.42.324,Simcolourproject_2stim_asymm_v5,2020.2.10,MacIntel,60,61025ae37ef11b136ea224fe,,,,,,,,,3575,108.7495728,31.21490479,1,0,0,response1disk,,6,12.28198242,-14.54684448,1,0,0,rectangle,12.28198242,-14.54684448,1,0,0,12.28198242,-14.54684448,1,0,0,0,129,129,127,1,,,,,,,,
,,,,,,,,,,,,,FF,,,,,,,,1.3509,,,,,,,,,,,,,,,,,,,,,,6101c1622c420e21591e1b96,61036be322fd58b8152497be,2021-07-29_20h03.42.324,Simcolourproject_2stim_asymm_v5,2020.2.10,MacIntel,60,61025ae37ef11b136ea224fe,,,,,,,,,2045,49.49041748,-57.91186523,1,0,0,response3disk,,4,-18.47113037,-3.860687256,1,0,0,rectangle,-18.47113037,-3.860687256,1,0,0,-18.47113037,-3.860687256,1,0,0,0,130,130,107,1,,,,,,,,
,,,,,,,,,,,,,FF,,,,,,,,3.3506,,,,,,,,,,,,,,,,,,,,,,6101c1622c420e21591e1b96,61036be322fd58b8152497be,2021-07-29_20h03.42.324,Simcolourproject_2stim_asymm_v5,2020.2.10,MacIntel,60,61025ae37ef11b136ea224fe,,,,,,,,,3260,90.35095215,31.24917603,1,0,0,response1disk,,6,25.52685547,-2.458465576,1,0,0,rectangle,25.52685547,-2.458465576,1,0,0,25.52685547,-2.458465576,1,0,0,0,131,131,121,1,,,,,,,,
,,,,,,,,,,,,,FF,,,,,,,,0.9987,,,,,,,,,,,,,,,,,,,,,,6101c1622c420e21591e1b96,61036be322fd58b8152497be,2021-07-29_20h03.42.324,Simcolourproject_2stim_asymm_v5,2020.2.10,MacIntel,60,61025ae37ef11b136ea224fe,,,,,,,,,4050,37.36505127,-97.57196045,1,0,0,response3disk,,4,12.86029053,-9.789367676,1,0,0,rectangle,12.86029053,-9.789367676,1,0,0,12.86029053,-9.789367676,1,0,0,0,132,132,44,1,,,,,,,,
,,,,,,,,,,,,,FF,,,,,,,,1.5885,,,,,,,,,,,,,,,,,,,,,,6101c1622c420e21591e1b96,61036be322fd58b8152497be,2021-07-29_20h03.42.324,Simcolourproject_2stim_asymm_v5,2020.2.10,MacIntel,60,61025ae37ef11b136ea224fe,,,,,,,,,3547,-32.35028076,-87.15887451,1,0,0,response5disk,,3,-2.897827148,-13.62783813,1,0,0,rectangle,-55.66992188,-104.2803955,1,0,0,8.382629395,-2.153015137,1,0,0,0,133,133,60,1,,response5disk_3,TRUE,3,3,"[316,323,6,185,252,28,236,154,85,134,184,55,275,253,138,134,42,263,150,203]",1.3997,rectangle
,,,,,,,,,,,,,FF,,,,,,,,3.4666,,,,,,,,,,,,,,,,,,,,,,6101c1622c420e21591e1b96,61036be322fd58b8152497be,2021-07-29_20h03.42.324,Simcolourproject_2stim_asymm_v5,2020.2.10,MacIntel,60,61025ae37ef11b136ea224fe,,,,,,,,,2457,91.36309814,-43.25256348,1,0,0,response3disk,,5,14.5793457,-9.539093018,1,0,0,rectangle,14.5793457,-9.539093018,1,0,0,14.5793457,-9.539093018,1,0,0,0,134,134,93,1,,,,,,,,
,,,,,,,,,,,,,FF,,,,,,,,1.1843,,,,,,,,,,,,,,,,,,,,,,6101c1622c420e21591e1b96,61036be322fd58b8152497be,2021-07-29_20h03.42.324,Simcolourproject_2stim_asymm_v5,2020.2.10,MacIntel,60,61025ae37ef11b136ea224fe,,,,,,,,,1382,-31.46105957,-72.31713867,1,0,0,response5disk,,3,-0.080444336,1.562255859,1,0,0,rectangle,-0.080444336,1.562255859,1,0,0,-0.080444336,1.562255859,1,0,0,0,135,135,11,1,,,,,,,,
,,,,,,,,,,,,,FF,,,,,,,,2.0826,,,,,,,,,,,,,,,,,,,,,,6101c1622c420e21591e1b96,61036be322fd58b8152497be,2021-07-29_20h03.42.324,Simcolourproject_2stim_asymm_v5,2020.2.10,MacIntel,60,61025ae37ef11b136ea224fe,,,,,,,,,2964,54.9586792,28.76928711,1,0,0,response1disk,,6,10.32165527,-3.144714355,1,0,0,rectangle,10.32165527,-3.144714355,1,0,0,10.32165527,-3.144714355,1,0,0,0,136,136,79,1,,,,,,,,
,,,,,,,,,,,,,FF,,,,,,,,1.0168,,,,,,,,,,,,,,,,,,,,,,6101c1622c420e21591e1b96,61036be322fd58b8152497be,2021-07-29_20h03.42.324,Simcolourproject_2stim_asymm_v5,2020.2.10,MacIntel,60,61025ae37ef11b136ea224fe,,,,,,,,,9,-36.98339844,-90.7387085,1,0,0,response5disk,,3,-3.723693848,-0.955352783,1,0,0,rectangle,35.66033936,71.14886475,1,0,0,13.54498291,8.684204102,1,0,0,0,137,137,146,1,,response1disk_3,TRUE,7,7,"[316,323,6,185,252,28,236,154,85,134,184,55,275,253,138,134,42,263,150,203]",1.8816,rectangle
,,,,,,,,,,,,,FF,,,,,,,,5.5874,,,,,,,,,,,,,,,,,,,,,,6101c1622c420e21591e1b96,61036be322fd58b8152497be,2021-07-29_20h03.42.324,Simcolourproject_2stim_asymm_v5,2020.2.10,MacIntel,60,61025ae37ef11b136ea224fe,,,,,,,,,2930,116.3875732,42.40032959,1,0,0,response1disk,,6,24.07391357,-5.420806885,1,0,0,rectangle,24.07391357,-5.420806885,1,0,0,24.07391357,-5.420806885,1,0,0,0,138,138,30,1,,,,,,,,
,,,,,,,,,,,,,FF,,,,,,,,1.3193,,,,,,,,,,,,,,,,,,,,,,6101c1622c420e21591e1b96,61036be322fd58b8152497be,2021-07-29_20h03.42.324,Simcolourproject_2stim_asymm_v5,2020.2.10,MacIntel,60,61025ae37ef11b136ea224fe,,,,,,,,,51,89.456604,-27.68518066,1,0,0,response3disk,,5,6.440124512,2.529449463,1,0,0,rectangle,6.440124512,2.529449463,1,0,0,6.440124512,2.529449463,1,0,0,0,139,139,74,1,,,,,,,,
,,,,,,,,,,,,,FF,,,,,,,,1.0159,,,,,,,,,,,,,,,,,,,,,,6101c1622c420e21591e1b96,61036be322fd58b8152497be,2021-07-29_20h03.42.324,Simcolourproject_2stim_asymm_v5,2020.2.10,MacIntel,60,61025ae37ef11b136ea224fe,,,,,,,,,2338,64.72235107,23.88195801,1,0,0,response1disk,,6,5.199523926,-13.28118896,1,0,0,rectangle,5.199523926,-13.28118896,1,0,0,5.199523926,-13.28118896,1,0,0,0,140,140,23,1,,,,,,,,
,,,,,,,,,,,,,FF,,,,,,,,1.934,,,,,,,,,,,,,,,,,,,,,,6101c1622c420e21591e1b96,61036be322fd58b8152497be,2021-07-29_20h03.42.324,Simcolourproject_2stim_asymm_v5,2020.2.10,MacIntel,60,61025ae37ef11b136ea224fe,,,,,,,,,1602,-38.18182373,-65.39074707,1,0,0,response5disk,,3,10.25701904,-3.539123535,1,0,0,rectangle,10.25701904,-3.539123535,1,0,0,10.25701904,-3.539123535,1,0,0,0,141,141,73,1,,,,,,,,
,,,,,,,,,,,,,FF,,,,,,,,1.403,,,,,,,,,,,,,,,,,,,,,,6101c1622c420e21591e1b96,61036be322fd58b8152497be,2021-07-29_20h03.42.324,Simcolourproject_2stim_asymm_v5,2020.2.10,MacIntel,60,61025ae37ef11b136ea224fe,,,,,,,,,963,77.55914307,34.52072144,1,0,0,response1disk,,6,24.29919434,8.303649902,1,0,0,rectangle,24.29919434,8.303649902,1,0,0,24.29919434,8.303649902,1,0,0,0,142,142,36,1,,,,,,,,
,,,,,,,,,,,,,FF,,,,,,,,0.8525,,,,,,,,,,,,,,,,,,,,,,6101c1622c420e21591e1b96,61036be322fd58b8152497be,2021-07-29_20h03.42.324,Simcolourproject_2stim_asymm_v5,2020.2.10,MacIntel,60,61025ae37ef11b136ea224fe,,,,,,,,,2498,53.05401611,93.78137207,1,0,0,response1disk,,7,6.537719727,9.164093018,1,0,0,rectangle,6.537719727,9.164093018,1,0,0,6.537719727,9.164093018,1,0,0,0,143,143,19,1,,,,,,,,
,,,,,,,,,,,,,FF,,,,,,,,2.767,,,,,,,,,,,,,,,,,,,,,,6101c1622c420e21591e1b96,61036be322fd58b8152497be,2021-07-29_20h03.42.324,Simcolourproject_2stim_asymm_v5,2020.2.10,MacIntel,60,61025ae37ef11b136ea224fe,,,,,,,,,2636,77.18328857,34.55987549,1,0,0,response1disk,,6,25.85571289,-4.024780273,1,0,0,rectangle,25.85571289,-4.024780273,1,0,0,25.85571289,-4.024780273,1,0,0,0,144,144,50,1,,,,,,,,
,,,,,,,,,,,,,FF,,,,,,,,1.4658,,,,,,,,,,,,,,,,,,,,,,6101c1622c420e21591e1b96,61036be322fd58b8152497be,2021-07-29_20h03.42.324,Simcolourproject_2stim_asymm_v5,2020.2.10,MacIntel,60,61025ae37ef11b136ea224fe,,,,,,,,,3374,-67.94995117,-36.21697998,1,0,0,response5disk,,2,1.191345215,13.6262207,1,0,0,rectangle,1.191345215,13.6262207,1,0,0,1.191345215,13.6262207,1,0,0,0,145,145,62,1,,,,,,,,
,,,,,,,,,,,,,FF,,,,,,,,1.1461,,,,,,,,,,,,,,,,,,,,,,6101c1622c420e21591e1b96,61036be322fd58b8152497be,2021-07-29_20h03.42.324,Simcolourproject_2stim_asymm_v5,2020.2.10,MacIntel,60,61025ae37ef11b136ea224fe,,,,,,,,,2020,69.59088135,29.73577881,1,0,0,response1disk,,6,11.74212646,2.377960205,1,0,0,rectangle,11.74212646,2.377960205,1,0,0,11.74212646,2.377960205,1,0,0,0,146,146,152,1,,,,,,,,
,,,,,,,,,,,,,FF,,,,,,,,3.1643,,,,,,,,,,,,,,,,,,,,,,6101c1622c420e21591e1b96,61036be322fd58b8152497be,2021-07-29_20h03.42.324,Simcolourproject_2stim_asymm_v5,2020.2.10,MacIntel,60,61025ae37ef11b136ea224fe,,,,,,,,,832,74.53405762,-39.56439209,1,0,0,response3disk,,5,-0.002258301,-6.301330566,1,0,0,rectangle,-0.002258301,-6.301330566,1,0,0,-0.002258301,-6.301330566,1,0,0,0,147,147,22,1,,,,,,,,
,,,,,,,,,,,,,FF,,,,,,,,1.2166,,,,,,,,,,,,,,,,,,,,,,6101c1622c420e21591e1b96,61036be322fd58b8152497be,2021-07-29_20h03.42.324,Simcolourproject_2stim_asymm_v5,2020.2.10,MacIntel,60,61025ae37ef11b136ea224fe,,,,,,,,,4068,48.6083374,30.20593262,1,0,0,response1disk,,6,10.84698486,7.482879639,1,0,0,rectangle,10.84698486,7.482879639,1,0,0,10.84698486,7.482879639,1,0,0,0,148,148,113,1,,,,,,,,
,,,,,,,,,,,,,FF,,,,,,,,1.7465,,,,,,,,,,,,,,,,,,,,,,6101c1622c420e21591e1b96,61036be322fd58b8152497be,2021-07-29_20h03.42.324,Simcolourproject_2stim_asymm_v5,2020.2.10,MacIntel,60,61025ae37ef11b136ea224fe,,,,,,,,,1327,67.24633789,28.5246582,1,0,0,response1disk,,6,17.3449707,10.56240845,1,0,0,rectangle,91.8302002,48.44082642,1,0,0,13.05999756,-4.34487915,1,0,0,0,149,149,101,1,,response1disk_3,TRUE,6,6,"[316,323,6,185,252,28,236,154,85,134,184,55,275,253,138,134,42,263,150,203]",1.2864,rectangle
,,,,,,,,,,,,,FF,,,,,,,,1.4488,,,,,,,,,,,,,,,,,,,,,,6101c1622c420e21591e1b96,61036be322fd58b8152497be,2021-07-29_20h03.42.324,Simcolourproject_2stim_asymm_v5,2020.2.10,MacIntel,60,61025ae37ef11b136ea224fe,,,,,,,,,2182,72.25640869,30.61499023,1,0,0,response1disk,,6,14.41815186,-9.551452637,1,0,0,rectangle,14.41815186,-9.551452637,1,0,0,14.41815186,-9.551452637,1,0,0,0,150,150,66,1,,,,,,,,
,,,,,,,,,,,,,FF,,,,,,,,2.0998,,,,,,,,,,,,,,,,,,,,,,6101c1622c420e21591e1b96,61036be322fd58b8152497be,2021-07-29_20h03.42.324,Simcolourproject_2stim_asymm_v5,2020.2.10,MacIntel,60,61025ae37ef11b136ea224fe,,,,,,,,,2645,40.88806152,24.11169434,1,0,0,response1disk,,6,8.01184082,9.113220215,1,0,0,rectangle,8.01184082,9.113220215,1,0,0,8.01184082,9.113220215,1,0,0,0,151,151,68,1,,,,,,,,
,,,,,,,,,,,,,FF,,,,,,,,0.9046,,,,,,,,,,,,,,,,,,,,,,6101c1622c420e21591e1b96,61036be322fd58b8152497be,2021-07-29_20h03.42.324,Simcolourproject_2stim_asymm_v5,2020.2.10,MacIntel,60,61025ae37ef11b136ea224fe,,,,,,,,,1114,54.57385254,-27.69769287,1,0,0,response3disk,,5,12.30749512,-8.71307373,1,0,0,rectangle,12.30749512,-8.71307373,1,0,0,12.30749512,-8.71307373,1,0,0,0,152,152,58,1,,,,,,,,
,,,,,,,,,,,,,FF,,,,,,,,1.3672,,,,,,,,,,,,,,,,,,,,,,6101c1622c420e21591e1b96,61036be322fd58b8152497be,2021-07-29_20h03.42.324,Simcolourproject_2stim_asymm_v5,2020.2.10,MacIntel,60,61025ae37ef11b136ea224fe,,,,,,,,,2463,89.82427979,45.38311768,1,0,0,response1disk,,6,13.59509277,0.876037598,1,0,0,rectangle,87.3548584,47.19134521,1,0,0,15.01818848,-7.946289063,1,0,0,0,153,153,118,1,,response1disk_3,TRUE,6,6,"[316,323,6,185,252,28,236,154,85,134,184,55,275,253,138,134,42,263,150,203]",1.1537,rectangle
,,,,,,,,,,,,,FF,,,,,,,,2.0158,,,,,,,,,,,,,,,,,,,,,,6101c1622c420e21591e1b96,61036be322fd58b8152497be,2021-07-29_20h03.42.324,Simcolourproject_2stim_asymm_v5,2020.2.10,MacIntel,60,61025ae37ef11b136ea224fe,,,,,,,,,3024,72.62036133,35.96505737,1,0,0,response1disk,,6,7.79876709,8.226379395,1,0,0,rectangle,7.79876709,8.226379395,1,0,0,7.79876709,8.226379395,1,0,0,0,154,154,100,1,,,,,,,,
,,,,,,,,,,,,,FF,,,,,,,,1.0171,,,,,,,,,,,,,,,,,,,,,,6101c1622c420e21591e1b96,61036be322fd58b8152497be,2021-07-29_20h03.42.324,Simcolourproject_2stim_asymm_v5,2020.2.10,MacIntel,60,61025ae37ef11b136ea224fe,,,,,,,,,375,-33.84069824,-67.98126221,1,0,0,response5disk,,3,3.173095703,-11.60650635,1,0,0,rectangle,3.173095703,-11.60650635,1,0,0,3.173095703,-11.60650635,1,0,0,0,155,155,9,1,,,,,,,,
,,,,,,,,,,,,,FF,,,,,,,,0.8938,,,,,,,,,,,,,,,,,,,,,,6101c1622c420e21591e1b96,61036be322fd58b8152497be,2021-07-29_20h03.42.324,Simcolourproject_2stim_asymm_v5,2020.2.10,MacIntel,60,61025ae37ef11b136ea224fe,,,,,,,,,931,29.87139893,53.32293701,1,0,0,response1disk,,7,7.688171387,11.27667236,1,0,0,rectangle,7.688171387,11.27667236,1,0,0,7.688171387,11.27667236,1,0,0,0,156,156,43,1,,,,,,,,
,,,,,,,,,,,,,FF,,,,,,,,5.4735,,,,,,,,,,,,,,,,,,,,,,6101c1622c420e21591e1b96,61036be322fd58b8152497be,2021-07-29_20h03.42.324,Simcolourproject_2stim_asymm_v5,2020.2.10,MacIntel,60,61025ae37ef11b136ea224fe,,,,,,,,,1074,72.26239014,-32.76757813,1,0,0,response3disk,,5,-11.73516846,1.034179688,1,0,0,rectangle,-11.73516846,1.034179688,1,0,0,-11.73516846,1.034179688,1,0,0,0,157,157,112,1,,,,,,,,
,,,,,,,,,,,,,FF,,,,,,,,5.0329,,,,,,,,,,,,,,,,,,,,,,6101c1622c420e21591e1b96,61036be322fd58b8152497be,2021-07-29_20h03.42.324,Simcolourproject_2stim_asymm_v5,2020.2.10,MacIntel,60,61025ae37ef11b136ea224fe,,,,,,,,,1845,100.5427246,35.29360962,1,0,0,response1disk,,6,25.37530518,3.894775391,1,0,0,rectangle,25.37530518,3.894775391,1,0,0,25.37530518,3.894775391,1,0,0,0,158,158,124,1,,,,,,,,
,,,,,,,,,,,,,FF,,,,,,,,1.0547,,,,,,,,,,,,,,,,,,,,,,6101c1622c420e21591e1b96,61036be322fd58b8152497be,2021-07-29_20h03.42.324,Simcolourproject_2stim_asymm_v5,2020.2.10,MacIntel,60,61025ae37ef11b136ea224fe,,,,,,,,,3158,33.89971924,-70.68768311,1,0,0,response3disk,,4,9.360473633,-7.005859375,1,0,0,rectangle,9.360473633,-7.005859375,1,0,0,9.360473633,-7.005859375,1,0,0,0,159,159,109,1,,,,,,,,
,,,,,,,,,,,,,FF,,,,,,,,1.2494,,,,,,,,,,,,,,,,,,,,,,6101c1622c420e21591e1b96,61036be322fd58b8152497be,2021-07-29_20h03.42.324,Simcolourproject_2stim_asymm_v5,2020.2.10,MacIntel,60,61025ae37ef11b136ea224fe,,,,,,,,,4119,-26.14953613,-60.60336304,1,0,0,response5disk,,3,3.837158203,-0.598175049,1,0,0,rectangle,3.837158203,-0.598175049,1,0,0,3.837158203,-0.598175049,1,0,0,1,0,160,63,1,,,,,,,,
,,,,,,,,,,,,,FF,,,,,,,,1.5825,,,,,,,,,,,,,,,,,,,,,,6101c1622c420e21591e1b96,61036be322fd58b8152497be,2021-07-29_20h03.42.324,Simcolourproject_2stim_asymm_v5,2020.2.10,MacIntel,60,61025ae37ef11b136ea224fe,,,,,,,,,2507,89.46136475,-44.86248779,1,0,0,response3disk,,5,14.87976074,-1.272644043,1,0,0,rectangle,14.87976074,-1.272644043,1,0,0,14.87976074,-1.272644043,1,0,0,1,1,161,112,1,,,,,,,,
,,,,,,,,,,,,,FF,,,,,,,,1.166,,,,,,,,,,,,,,,,,,,,,,6101c1622c420e21591e1b96,61036be322fd58b8152497be,2021-07-29_20h03.42.324,Simcolourproject_2stim_asymm_v5,2020.2.10,MacIntel,60,61025ae37ef11b136ea224fe,,,,,,,,,3184,76.73675537,32.00469971,1,0,0,response1disk,,6,11.53302002,-7.089233398,1,0,0,rectangle,11.53302002,-7.089233398,1,0,0,11.53302002,-7.089233398,1,0,0,1,2,162,64,1,,,,,,,,
,,,,,,,,,,,,,FF,,,,,,,,1.2677,,,,,,,,,,,,,,,,,,,,,,6101c1622c420e21591e1b96,61036be322fd58b8152497be,2021-07-29_20h03.42.324,Simcolourproject_2stim_asymm_v5,2020.2.10,MacIntel,60,61025ae37ef11b136ea224fe,,,,,,,,,2470,69.75469971,-33.49383545,1,0,0,response3disk,,5,-2.099975586,-5.790924072,1,0,0,rectangle,-2.099975586,-5.790924072,1,0,0,-2.099975586,-5.790924072,1,0,0,1,3,163,57,1,,,,,,,,
,,,,,,,,,,,,,FF,,,,,,,,1.3826,,,,,,,,,,,,,,,,,,,,,,6101c1622c420e21591e1b96,61036be322fd58b8152497be,2021-07-29_20h03.42.324,Simcolourproject_2stim_asymm_v5,2020.2.10,MacIntel,60,61025ae37ef11b136ea224fe,,,,,,,,,2113,31.75671387,-69.79156494,1,0,0,response3disk,,4,-0.106201172,3.841827393,1,0,0,rectangle,-0.106201172,3.841827393,1,0,0,-0.106201172,3.841827393,1,0,0,1,4,164,28,1,,,,,,,,
,,,,,,,,,,,,,FF,,,,,,,,1.0993,,,,,,,,,,,,,,,,,,,,,,6101c1622c420e21591e1b96,61036be322fd58b8152497be,2021-07-29_20h03.42.324,Simcolourproject_2stim_asymm_v5,2020.2.10,MacIntel,60,61025ae37ef11b136ea224fe,,,,,,,,,1366,62.87133789,45.61663818,1,0,0,response1disk,,6,12.22283936,7.135375977,1,0,0,rectangle,12.22283936,7.135375977,1,0,0,12.22283936,7.135375977,1,0,0,1,5,165,101,1,,,,,,,,
,,,,,,,,,,,,,FF,,,,,,,,2.6086,,,,,,,,,,,,,,,,,,,,,,6101c1622c420e21591e1b96,61036be322fd58b8152497be,2021-07-29_20h03.42.324,Simcolourproject_2stim_asymm_v5,2020.2.10,MacIntel,60,61025ae37ef11b136ea224fe,,,,,,,,,1896,-26.77484131,-72.72509766,1,0,0,response5disk,,3,-2.267089844,-5.782043457,1,0,0,rectangle,-2.267089844,-5.782043457,1,0,0,-2.267089844,-5.782043457,1,0,0,1,6,166,62,1,,,,,,,,
,,,,,,,,,,,,,FF,,,,,,,,2.9311,,,,,,,,,,,,,,,,,,,,,,6101c1622c420e21591e1b96,61036be322fd58b8152497be,2021-07-29_20h03.42.324,Simcolourproject_2stim_asymm_v5,2020.2.10,MacIntel,60,61025ae37ef11b136ea224fe,,,,,,,,,3409,76.16571045,-25.88616943,1,0,0,response3disk,,5,-17.74334717,-11.73626709,1,0,0,rectangle,-17.74334717,-11.73626709,1,0,0,-17.74334717,-11.73626709,1,0,0,1,7,167,119,1,,,,,,,,
,,,,,,,,,,,,,FF,,,,,,,,1.0992,,,,,,,,,,,,,,,,,,,,,,6101c1622c420e21591e1b96,61036be322fd58b8152497be,2021-07-29_20h03.42.324,Simcolourproject_2stim_asymm_v5,2020.2.10,MacIntel,60,61025ae37ef11b136ea224fe,,,,,,,,,2963,52.05615234,-33.85070801,1,0,0,response3disk,,5,-11.00830078,-5.554473877,1,0,0,rectangle,-11.00830078,-5.554473877,1,0,0,-11.00830078,-5.554473877,1,0,0,1,8,168,98,1,,,,,,,,
,,,,,,,,,,,,,FF,,,,,,,,1.3857,,,,,,,,,,,,,,,,,,,,,,6101c1622c420e21591e1b96,61036be322fd58b8152497be,2021-07-29_20h03.42.324,Simcolourproject_2stim_asymm_v5,2020.2.10,MacIntel,60,61025ae37ef11b136ea224fe,,,,,,,,,1712,25.57025146,-57.97888184,1,0,0,response3disk,,4,-7.635192871,-10.35375977,1,0,0,rectangle,-7.635192871,-10.35375977,1,0,0,-7.635192871,-10.35375977,1,0,0,1,9,169,72,1,,,,,,,,
,,,,,,,,,,,,,FF,,,,,,,,2.0159,,,,,,,,,,,,,,,,,,,,,,6101c1622c420e21591e1b96,61036be322fd58b8152497be,2021-07-29_20h03.42.324,Simcolourproject_2stim_asymm_v5,2020.2.10,MacIntel,60,61025ae37ef11b136ea224fe,,,,,,,,,1992,56.24285889,-32.784729,1,0,0,response3disk,,5,13.1194458,13.43283081,1,0,0,rectangle,13.1194458,13.43283081,1,0,0,13.1194458,13.43283081,1,0,0,1,10,170,158,1,,,,,,,,
,,,,,,,,,,,,,FF,,,,,,,,1.4377,,,,,,,,,,,,,,,,,,,,,,6101c1622c420e21591e1b96,61036be322fd58b8152497be,2021-07-29_20h03.42.324,Simcolourproject_2stim_asymm_v5,2020.2.10,MacIntel,60,61025ae37ef11b136ea224fe,,,,,,,,,2308,28.36029053,-66.39562988,1,0,0,response3disk,,4,-5.873535156,-17.39672852,1,0,0,rectangle,-5.873535156,-17.39672852,1,0,0,-5.873535156,-17.39672852,1,0,0,1,11,171,44,1,,,,,,,,
,,,,,,,,,,,,,FF,,,,,,,,0.8489,,,,,,,,,,,,,,,,,,,,,,6101c1622c420e21591e1b96,61036be322fd58b8152497be,2021-07-29_20h03.42.324,Simcolourproject_2stim_asymm_v5,2020.2.10,MacIntel,60,61025ae37ef11b136ea224fe,,,,,,,,,193,33.66882324,-62.52935791,1,0,0,response3disk,,4,14.12121582,-0.281311035,1,0,0,rectangle,14.12121582,-0.281311035,1,0,0,14.12121582,-0.281311035,1,0,0,1,12,172,140,1,,,,,,,,
,,,,,,,,,,,,,FF,,,,,,,,1.9832,,,,,,,,,,,,,,,,,,,,,,6101c1622c420e21591e1b96,61036be322fd58b8152497be,2021-07-29_20h03.42.324,Simcolourproject_2stim_asymm_v5,2020.2.10,MacIntel,60,61025ae37ef11b136ea224fe,,,,,,,,,4041,61.87219238,-29.2255249,1,0,0,response3disk,,5,7.975280762,-2.323638916,1,0,0,rectangle,7.975280762,-2.323638916,1,0,0,7.975280762,-2.323638916,1,0,0,1,13,173,118,1,,,,,,,,
,,,,,,,,,,,,,FF,,,,,,,,0.7835,,,,,,,,,,,,,,,,,,,,,,6101c1622c420e21591e1b96,61036be322fd58b8152497be,2021-07-29_20h03.42.324,Simcolourproject_2stim_asymm_v5,2020.2.10,MacIntel,60,61025ae37ef11b136ea224fe,,,,,,,,,2490,63.40856934,-39.43798828,1,0,0,response3disk,,5,0.343261719,6.536773682,1,0,0,rectangle,0.343261719,6.536773682,1,0,0,0.343261719,6.536773682,1,0,0,1,14,174,21,1,,,,,,,,
,,,,,,,,,,,,,FF,,,,,,,,0.8408,,,,,,,,,,,,,,,,,,,,,,6101c1622c420e21591e1b96,61036be322fd58b8152497be,2021-07-29_20h03.42.324,Simcolourproject_2stim_asymm_v5,2020.2.10,MacIntel,60,61025ae37ef11b136ea224fe,,,,,,,,,3230,43.61175537,78.42379761,1,0,0,response1disk,,7,-5.313232422,5.772644043,1,0,0,rectangle,-5.313232422,5.772644043,1,0,0,-5.313232422,5.772644043,1,0,0,1,15,175,114,1,,,,,,,,
,,,,,,,,,,,,,FF,,,,,,,,2.0038,,,,,,,,,,,,,,,,,,,,,,6101c1622c420e21591e1b96,61036be322fd58b8152497be,2021-07-29_20h03.42.324,Simcolourproject_2stim_asymm_v5,2020.2.10,MacIntel,60,61025ae37ef11b136ea224fe,,,,,,,,,2375,65.96325684,18.19638062,1,0,0,response1disk,,6,3.896118164,-2.727142334,1,0,0,rectangle,3.896118164,-2.727142334,1,0,0,3.896118164,-2.727142334,1,0,0,1,16,176,144,1,,,,,,,,
,,,,,,,,,,,,,FF,,,,,,,,2.7834,,,,,,,,,,,,,,,,,,,,,,6101c1622c420e21591e1b96,61036be322fd58b8152497be,2021-07-29_20h03.42.324,Simcolourproject_2stim_asymm_v5,2020.2.10,MacIntel,60,61025ae37ef11b136ea224fe,,,,,,,,,1106,78.17156982,53.03155518,1,0,0,response1disk,,6,9.596069336,-11.05181885,1,0,0,rectangle,9.596069336,-11.05181885,1,0,0,9.596069336,-11.05181885,1,0,0,1,17,177,55,1,,,,,,,,
,,,,,,,,,,,,,FF,,,,,,,,1.9662,,,,,,,,,,,,,,,,,,,,,,6101c1622c420e21591e1b96,61036be322fd58b8152497be,2021-07-29_20h03.42.324,Simcolourproject_2stim_asymm_v5,2020.2.10,MacIntel,60,61025ae37ef11b136ea224fe,,,,,,,,,3321,49.62213135,23.93225098,1,0,0,response1disk,,6,9.392822266,14.76055908,1,0,0,rectangle,9.392822266,14.76055908,1,0,0,9.392822266,14.76055908,1,0,0,1,18,178,97,1,,,,,,,,
,,,,,,,,,,,,,FF,,,,,,,,1.3331,,,,,,,,,,,,,,,,,,,,,,6101c1622c420e21591e1b96,61036be322fd58b8152497be,2021-07-29_20h03.42.324,Simcolourproject_2stim_asymm_v5,2020.2.10,MacIntel,60,61025ae37ef11b136ea224fe,,,,,,,,,3554,-59.8729248,-42.03485107,1,0,0,response5disk,,2,9.092285156,-9.851806641,1,0,0,rectangle,9.092285156,-9.851806641,1,0,0,9.092285156,-9.851806641,1,0,0,1,19,179,115,1,,,,,,,,
,,,,,,,,,,,,,FF,,,,,,,,2.6504,,,,,,,,,,,,,,,,,,,,,,6101c1622c420e21591e1b96,61036be322fd58b8152497be,2021-07-29_20h03.42.324,Simcolourproject_2stim_asymm_v5,2020.2.10,MacIntel,60,61025ae37ef11b136ea224fe,,,,,,,,,3650,64.39013672,41.06744385,1,0,0,response1disk,,6,-4.764160156,-0.278259277,1,0,0,rectangle,-4.764160156,-0.278259277,1,0,0,-4.764160156,-0.278259277,1,0,0,1,20,180,5,1,,,,,,,,
,,,,,,,,,,,,,FF,,,,,,,,1.522,,,,,,,,,,,,,,,,,,,,,,6101c1622c420e21591e1b96,61036be322fd58b8152497be,2021-07-29_20h03.42.324,Simcolourproject_2stim_asymm_v5,2020.2.10,MacIntel,60,61025ae37ef11b136ea224fe,,,,,,,,,3717,63.66748047,-22.34689331,1,0,0,response3disk,,5,3.377746582,-11.59143066,1,0,0,rectangle,3.377746582,-11.59143066,1,0,0,3.377746582,-11.59143066,1,0,0,1,21,181,53,1,,,,,,,,
,,,,,,,,,,,,,FF,,,,,,,,1.517,,,,,,,,,,,,,,,,,,,,,,6101c1622c420e21591e1b96,61036be322fd58b8152497be,2021-07-29_20h03.42.324,Simcolourproject_2stim_asymm_v5,2020.2.10,MacIntel,60,61025ae37ef11b136ea224fe,,,,,,,,,3398,-38.21948242,-78.51843262,1,0,0,response5disk,,3,-3.294311523,2.729064941,1,0,0,rectangle,-3.294311523,2.729064941,1,0,0,-3.294311523,2.729064941,1,0,0,1,22,182,59,1,,,,,,,,
,,,,,,,,,,,,,FF,,,,,,,,3.0546,,,,,,,,,,,,,,,,,,,,,,6101c1622c420e21591e1b96,61036be322fd58b8152497be,2021-07-29_20h03.42.324,Simcolourproject_2stim_asymm_v5,2020.2.10,MacIntel,60,61025ae37ef11b136ea224fe,,,,,,,,,2119,65.05505371,26.20230103,1,0,0,response1disk,,6,7.818054199,-10.10455322,1,0,0,rectangle,38.08435059,81.06982422,1,0,0,12.26275635,-3.332702637,1,0,0,1,23,183,71,1,,response1disk_3,TRUE,7,7,"[316,323,6,185,252,28,236,154,85,134,184,55,275,253,138,134,42,263,150,203]",1.1321,rectangle
,,,,,,,,,,,,,FF,,,,,,,,1.401,,,,,,,,,,,,,,,,,,,,,,6101c1622c420e21591e1b96,61036be322fd58b8152497be,2021-07-29_20h03.42.324,Simcolourproject_2stim_asymm_v5,2020.2.10,MacIntel,60,61025ae37ef11b136ea224fe,,,,,,,,,1166,28.98077393,-70.10144043,1,0,0,response3disk,,4,-2.172546387,-10.11532593,1,0,0,rectangle,66.38555908,-30.31835938,1,0,0,12.67785645,-3.383056641,1,0,0,1,24,184,49,1,,response3disk_3,TRUE,5,5,"[316,323,6,185,252,28,236,154,85,134,184,55,275,253,138,134,42,263,150,203]",1.15,rectangle
,,,,,,,,,,,,,FF,,,,,,,,0.7907,,,,,,,,,,,,,,,,,,,,,,6101c1622c420e21591e1b96,61036be322fd58b8152497be,2021-07-29_20h03.42.324,Simcolourproject_2stim_asymm_v5,2020.2.10,MacIntel,60,61025ae37ef11b136ea224fe,,,,,,,,,185,-29.13183594,72.34796143,1,0,0,response7disk,,0,-3.645935059,-0.485107422,1,0,0,rectangle,-3.645935059,-0.485107422,1,0,0,-3.645935059,-0.485107422,1,0,0,1,25,185,31,1,,,,,,,,
,,,,,,,,,,,,,FF,,,,,,,,1.9662,,,,,,,,,,,,,,,,,,,,,,6101c1622c420e21591e1b96,61036be322fd58b8152497be,2021-07-29_20h03.42.324,Simcolourproject_2stim_asymm_v5,2020.2.10,MacIntel,60,61025ae37ef11b136ea224fe,,,,,,,,,1975,25.2890625,-74.02008057,1,0,0,response3disk,,4,-4.262695313,7.515441895,1,0,0,rectangle,-4.262695313,7.515441895,1,0,0,-4.262695313,7.515441895,1,0,0,1,26,186,82,1,,,,,,,,
,,,,,,,,,,,,,FF,,,,,,,,2.3339,,,,,,,,,,,,,,,,,,,,,,6101c1622c420e21591e1b96,61036be322fd58b8152497be,2021-07-29_20h03.42.324,Simcolourproject_2stim_asymm_v5,2020.2.10,MacIntel,60,61025ae37ef11b136ea224fe,,,,,,,,,4345,-75.75305176,-30.46936035,1,0,0,response5disk,,2,-10.03302002,-9.852752686,1,0,0,rectangle,-10.03302002,-9.852752686,1,0,0,-10.03302002,-9.852752686,1,0,0,1,27,187,70,1,,,,,,,,
,,,,,,,,,,,,,FF,,,,,,,,1.6321,,,,,,,,,,,,,,,,,,,,,,6101c1622c420e21591e1b96,61036be322fd58b8152497be,2021-07-29_20h03.42.324,Simcolourproject_2stim_asymm_v5,2020.2.10,MacIntel,60,61025ae37ef11b136ea224fe,,,,,,,,,3929,72.84869385,-24.56335449,1,0,0,response3disk,,5,11.53363037,3.097717285,1,0,0,rectangle,11.53363037,3.097717285,1,0,0,11.53363037,3.097717285,1,0,0,1,28,188,76,1,,,,,,,,
,,,,,,,,,,,,,FF,,,,,,,,2.0577,,,,,,,,,,,,,,,,,,,,,,6101c1622c420e21591e1b96,61036be322fd58b8152497be,2021-07-29_20h03.42.324,Simcolourproject_2stim_asymm_v5,2020.2.10,MacIntel,60,61025ae37ef11b136ea224fe,,,,,,,,,1653,78.77453613,-24.88110352,1,0,0,response3disk,,5,10.63189697,-6.198577881,1,0,0,rectangle,10.63189697,-6.198577881,1,0,0,10.63189697,-6.198577881,1,0,0,1,29,189,123,1,,,,,,,,
,,,,,,,,,,,,,FF,,,,,,,,0.8876,,,,,,,,,,,,,,,,,,,,,,6101c1622c420e21591e1b96,61036be322fd58b8152497be,2021-07-29_20h03.42.324,Simcolourproject_2stim_asymm_v5,2020.2.10,MacIntel,60,61025ae37ef11b136ea224fe,,,,,,,,,3798,63.0234375,32.77392578,1,0,0,response1disk,,6,17.69586182,7.018676758,1,0,0,rectangle,17.69586182,7.018676758,1,0,0,17.69586182,7.018676758,1,0,0,1,30,190,61,1,,,,,,,,
,,,,,,,,,,,,,FF,,,,,,,,1.7162,,,,,,,,,,,,,,,,,,,,,,6101c1622c420e21591e1b96,61036be322fd58b8152497be,2021-07-29_20h03.42.324,Simcolourproject_2stim_asymm_v5,2020.2.10,MacIntel,60,61025ae37ef11b136ea224fe,,,,,,,,,2216,32.31610107,-77.21166992,1,0,0,response3disk,,4,0.803894043,-11.24365234,1,0,0,rectangle,0.803894043,-11.24365234,1,0,0,0.803894043,-11.24365234,1,0,0,1,31,191,102,1,,,,,,,,
,,,,,,,,,,,,,FF,,,,,,,,1.6343,,,,,,,,,,,,,,,,,,,,,,6101c1622c420e21591e1b96,61036be322fd58b8152497be,2021-07-29_20h03.42.324,Simcolourproject_2stim_asymm_v5,2020.2.10,MacIntel,60,61025ae37ef11b136ea224fe,,,,,,,,,101,-26.91827393,-66.41711426,1,0,0,response5disk,,3,9.637451172,8.74621582,1,0,0,rectangle,9.637451172,8.74621582,1,0,0,9.637451172,8.74621582,1,0,0,1,32,192,83,1,,,,,,,,
,,,,,,,,,,,,,FF,,,,,,,,1.424,,,,,,,,,,,,,,,,,,,,,,6101c1622c420e21591e1b96,61036be322fd58b8152497be,2021-07-29_20h03.42.324,Simcolourproject_2stim_asymm_v5,2020.2.10,MacIntel,60,61025ae37ef11b136ea224fe,,,,,,,,,1059,30.3772583,-53.15887451,1,0,0,response3disk,,4,2.728942871,10.13726807,1,0,0,rectangle,2.728942871,10.13726807,1,0,0,2.728942871,10.13726807,1,0,0,1,33,193,20,1,,,,,,,,
,,,,,,,,,,,,,FF,,,,,,,,2.1516,,,,,,,,,,,,,,,,,,,,,,6101c1622c420e21591e1b96,61036be322fd58b8152497be,2021-07-29_20h03.42.324,Simcolourproject_2stim_asymm_v5,2020.2.10,MacIntel,60,61025ae37ef11b136ea224fe,,,,,,,,,758,54.26690674,23.16848755,1,0,0,response1disk,,6,-2.938537598,3.037231445,1,0,0,rectangle,-2.938537598,3.037231445,1,0,0,-2.938537598,3.037231445,1,0,0,1,34,194,132,1,,,,,,,,
,,,,,,,,,,,,,FF,,,,,,,,1.666,,,,,,,,,,,,,,,,,,,,,,6101c1622c420e21591e1b96,61036be322fd58b8152497be,2021-07-29_20h03.42.324,Simcolourproject_2stim_asymm_v5,2020.2.10,MacIntel,60,61025ae37ef11b136ea224fe,,,,,,,,,129,28.65026855,-58.96255493,1,0,0,response3disk,,4,-9.113525391,-3.298400879,1,0,0,rectangle,-9.113525391,-3.298400879,1,0,0,-9.113525391,-3.298400879,1,0,0,1,35,195,124,1,,,,,,,,
,,,,,,,,,,,,,FF,,,,,,,,3.3513,,,,,,,,,,,,,,,,,,,,,,6101c1622c420e21591e1b96,61036be322fd58b8152497be,2021-07-29_20h03.42.324,Simcolourproject_2stim_asymm_v5,2020.2.10,MacIntel,60,61025ae37ef11b136ea224fe,,,,,,,,,2070,23.51965332,-44.55743408,1,0,0,response3disk,,4,-13.99206543,6.849487305,1,0,0,rectangle,-13.99206543,6.849487305,1,0,0,-13.99206543,6.849487305,1,0,0,1,36,196,69,1,,,,,,,,
,,,,,,,,,,,,,FF,,,,,,,,1.4336,,,,,,,,,,,,,,,,,,,,,,6101c1622c420e21591e1b96,61036be322fd58b8152497be,2021-07-29_20h03.42.324,Simcolourproject_2stim_asymm_v5,2020.2.10,MacIntel,60,61025ae37ef11b136ea224fe,,,,,,,,,310,21.28277588,-47.28027344,1,0,0,response3disk,,4,1.60534668,0.885498047,1,0,0,rectangle,1.60534668,0.885498047,1,0,0,1.60534668,0.885498047,1,0,0,1,37,197,6,1,,,,,,,,
,,,,,,,,,,,,,FF,,,,,,,,2.7337,,,,,,,,,,,,,,,,,,,,,,6101c1622c420e21591e1b96,61036be322fd58b8152497be,2021-07-29_20h03.42.324,Simcolourproject_2stim_asymm_v5,2020.2.10,MacIntel,60,61025ae37ef11b136ea224fe,,,,,,,,,1409,38.83477783,66.63018799,1,0,0,response1disk,,7,4.863098145,-0.008850098,1,0,0,rectangle,4.863098145,-0.008850098,1,0,0,4.863098145,-0.008850098,1,0,0,1,38,198,135,1,,,,,,,,
,,,,,,,,,,,,,FF,,,,,,,,1.4663,,,,,,,,,,,,,,,,,,,,,,6101c1622c420e21591e1b96,61036be322fd58b8152497be,2021-07-29_20h03.42.324,Simcolourproject_2stim_asymm_v5,2020.2.10,MacIntel,60,61025ae37ef11b136ea224fe,,,,,,,,,2139,69.76721191,-22.9395752,1,0,0,response3disk,,5,8.865112305,0.544250488,1,0,0,rectangle,8.865112305,0.544250488,1,0,0,8.865112305,0.544250488,1,0,0,1,39,199,111,1,,,,,,,,
,,,,,,,,,,,,,FF,,,,,,,,0.7123,,,,,,,,,,,,,,,,,,,,,,6101c1622c420e21591e1b96,61036be322fd58b8152497be,2021-07-29_20h03.42.324,Simcolourproject_2stim_asymm_v5,2020.2.10,MacIntel,60,61025ae37ef11b136ea224fe,,,,,,,,,3668,-34.22839355,72.26824951,1,0,0,response7disk,,0,-4.61151123,2.552490234,1,0,0,rectangle,-4.61151123,2.552490234,1,0,0,-4.61151123,2.552490234,1,0,0,1,40,200,74,1,,,,,,,,
,,,,,,,,,,,,,FF,,,,,,,,2.1465,,,,,,,,,,,,,,,,,,,,,,6101c1622c420e21591e1b96,61036be322fd58b8152497be,2021-07-29_20h03.42.324,Simcolourproject_2stim_asymm_v5,2020.2.10,MacIntel,60,61025ae37ef11b136ea224fe,,,,,,,,,2132,42.35961914,69.29779053,1,0,0,response1disk,,7,4.611755371,0.714050293,1,0,0,rectangle,4.611755371,0.714050293,1,0,0,4.611755371,0.714050293,1,0,0,1,41,201,45,1,,,,,,,,
,,,,,,,,,,,,,FF,,,,,,,,2.6458,,,,,,,,,,,,,,,,,,,,,,6101c1622c420e21591e1b96,61036be322fd58b8152497be,2021-07-29_20h03.42.324,Simcolourproject_2stim_asymm_v5,2020.2.10,MacIntel,60,61025ae37ef11b136ea224fe,,,,,,,,,20,48.84204102,-25.86602783,1,0,0,response3disk,,5,3.201660156,-4.886810303,1,0,0,rectangle,79.00268555,-34.12042236,1,0,0,15.96154785,-2.353210449,1,0,0,1,42,202,150,1,,response3disk_3,TRUE,5,5,"[316,323,6,185,252,28,236,154,85,134,184,55,275,253,138,134,42,263,150,203]",1.1001,rectangle
,,,,,,,,,,,,,FF,,,,,,,,1.4073,,,,,,,,,,,,,,,,,,,,,,6101c1622c420e21591e1b96,61036be322fd58b8152497be,2021-07-29_20h03.42.324,Simcolourproject_2stim_asymm_v5,2020.2.10,MacIntel,60,61025ae37ef11b136ea224fe,,,,,,,,,147,64.53582764,41.82714844,1,0,0,response1disk,,6,15.10534668,6.512817383,1,0,0,rectangle,15.10534668,6.512817383,1,0,0,15.10534668,6.512817383,1,0,0,1,43,203,152,1,,,,,,,,
,,,,,,,,,,,,,FF,,,,,,,,1.0339,,,,,,,,,,,,,,,,,,,,,,6101c1622c420e21591e1b96,61036be322fd58b8152497be,2021-07-29_20h03.42.324,Simcolourproject_2stim_asymm_v5,2020.2.10,MacIntel,60,61025ae37ef11b136ea224fe,,,,,,,,,1344,75.75897217,29.24395752,1,0,0,response1disk,,6,21.04016113,-1.246490479,1,0,0,rectangle,21.04016113,-1.246490479,1,0,0,21.04016113,-1.246490479,1,0,0,1,44,204,12,1,,,,,,,,
,,,,,,,,,,,,,FF,,,,,,,,0.8007,,,,,,,,,,,,,,,,,,,,,,6101c1622c420e21591e1b96,61036be322fd58b8152497be,2021-07-29_20h03.42.324,Simcolourproject_2stim_asymm_v5,2020.2.10,MacIntel,60,61025ae37ef11b136ea224fe,,,,,,,,,2071,45.11322021,88.50692749,1,0,0,response1disk,,7,8.469116211,9.781188965,1,0,0,rectangle,8.469116211,9.781188965,1,0,0,8.469116211,9.781188965,1,0,0,1,45,205,8,1,,,,,,,,
,,,,,,,,,,,,,FF,,,,,,,,1.7992,,,,,,,,,,,,,,,,,,,,,,6101c1622c420e21591e1b96,61036be322fd58b8152497be,2021-07-29_20h03.42.324,Simcolourproject_2stim_asymm_v5,2020.2.10,MacIntel,60,61025ae37ef11b136ea224fe,,,,,,,,,2773,39.78192139,-59.88739014,1,0,0,response3disk,,4,9.228149414,-16.52502441,1,0,0,rectangle,9.228149414,-16.52502441,1,0,0,9.228149414,-16.52502441,1,0,0,1,46,206,78,1,,,,,,,,
,,,,,,,,,,,,,FF,,,,,,,,2.5457,,,,,,,,,,,,,,,,,,,,,,6101c1622c420e21591e1b96,61036be322fd58b8152497be,2021-07-29_20h03.42.324,Simcolourproject_2stim_asymm_v5,2020.2.10,MacIntel,60,61025ae37ef11b136ea224fe,,,,,,,,,2630,64.23742676,28.18280029,1,0,0,response1disk,,6,-1.648193359,-11.58724976,1,0,0,rectangle,-1.648193359,-11.58724976,1,0,0,-1.648193359,-11.58724976,1,0,0,1,47,207,81,1,,,,,,,,
,,,,,,,,,,,,,FF,,,,,,,,1.8826,,,,,,,,,,,,,,,,,,,,,,6101c1622c420e21591e1b96,61036be322fd58b8152497be,2021-07-29_20h03.42.324,Simcolourproject_2stim_asymm_v5,2020.2.10,MacIntel,60,61025ae37ef11b136ea224fe,,,,,,,,,651,42.58129883,-82.64147949,1,0,0,response3disk,,4,6.089233398,-0.559814453,1,0,0,rectangle,6.089233398,-0.559814453,1,0,0,6.089233398,-0.559814453,1,0,0,1,48,208,88,1,,,,,,,,
,,,,,,,,,,,,,FF,,,,,,,,1.9495,,,,,,,,,,,,,,,,,,,,,,6101c1622c420e21591e1b96,61036be322fd58b8152497be,2021-07-29_20h03.42.324,Simcolourproject_2stim_asymm_v5,2020.2.10,MacIntel,60,61025ae37ef11b136ea224fe,,,,,,,,,2865,60.27178955,-30.94439697,1,0,0,response3disk,,5,5.724060059,2.586608887,1,0,0,rectangle,5.724060059,2.586608887,1,0,0,5.724060059,2.586608887,1,0,0,1,49,209,68,1,,,,,,,,
,,,,,,,,,,,,,FF,,,,,,,,0.7503,,,,,,,,,,,,,,,,,,,,,,6101c1622c420e21591e1b96,61036be322fd58b8152497be,2021-07-29_20h03.42.324,Simcolourproject_2stim_asymm_v5,2020.2.10,MacIntel,60,61025ae37ef11b136ea224fe,,,,,,,,,3236,-27.64367676,-67.78320313,1,0,0,response5disk,,3,-23.35766602,11.52105713,1,0,0,rectangle,-23.35766602,11.52105713,1,0,0,-23.35766602,11.52105713,1,0,0,1,50,210,86,1,,,,,,,,
,,,,,,,,,,,,,FF,,,,,,,,0.9031,,,,,,,,,,,,,,,,,,,,,,6101c1622c420e21591e1b96,61036be322fd58b8152497be,2021-07-29_20h03.42.324,Simcolourproject_2stim_asymm_v5,2020.2.10,MacIntel,60,61025ae37ef11b136ea224fe,,,,,,,,,1795,21.44970703,62.19216919,1,0,0,response1disk,,7,-7.985778809,-5.946746826,1,0,0,rectangle,-7.985778809,-5.946746826,1,0,0,-7.985778809,-5.946746826,1,0,0,1,51,211,110,1,,,,,,,,
,,,,,,,,,,,,,FF,,,,,,,,1.2221,,,,,,,,,,,,,,,,,,,,,,6101c1622c420e21591e1b96,61036be322fd58b8152497be,2021-07-29_20h03.42.324,Simcolourproject_2stim_asymm_v5,2020.2.10,MacIntel,60,61025ae37ef11b136ea224fe,,,,,,,,,3719,25.00592041,-72.10791016,1,0,0,response3disk,,4,-6.982727051,-10.17974854,1,0,0,rectangle,-6.982727051,-10.17974854,1,0,0,-6.982727051,-10.17974854,1,0,0,1,52,212,40,1,,,,,,,,
,,,,,,,,,,,,,FF,,,,,,,,2.2505,,,,,,,,,,,,,,,,,,,,,,6101c1622c420e21591e1b96,61036be322fd58b8152497be,2021-07-29_20h03.42.324,Simcolourproject_2stim_asymm_v5,2020.2.10,MacIntel,60,61025ae37ef11b136ea224fe,,,,,,,,,1940,33.13122559,-69.05419922,1,0,0,response3disk,,4,5.183166504,-9.459014893,1,0,0,rectangle,5.183166504,-9.459014893,1,0,0,5.183166504,-9.459014893,1,0,0,1,53,213,47,1,,,,,,,,
,,,,,,,,,,,,,FF,,,,,,,,1.8158,,,,,,,,,,,,,,,,,,,,,,6101c1622c420e21591e1b96,61036be322fd58b8152497be,2021-07-29_20h03.42.324,Simcolourproject_2stim_asymm_v5,2020.2.10,MacIntel,60,61025ae37ef11b136ea224fe,,,,,,,,,323,43.90246582,27.78530884,1,0,0,response1disk,,6,4.097167969,2.163452148,1,0,0,rectangle,4.097167969,2.163452148,1,0,0,4.097167969,2.163452148,1,0,0,1,54,214,139,1,,,,,,,,
,,,,,,,,,,,,,FF,,,,,,,,1.1749,,,,,,,,,,,,,,,,,,,,,,6101c1622c420e21591e1b96,61036be322fd58b8152497be,2021-07-29_20h03.42.324,Simcolourproject_2stim_asymm_v5,2020.2.10,MacIntel,60,61025ae37ef11b136ea224fe,,,,,,,,,1800,18.16955566,-56.8024292,1,0,0,response3disk,,4,4.106201172,-4.328063965,1,0,0,rectangle,4.106201172,-4.328063965,1,0,0,4.106201172,-4.328063965,1,0,0,1,55,215,46,1,,,,,,,,
,,,,,,,,,,,,,FF,,,,,,,,3.515,,,,,,,,,,,,,,,,,,,,,,6101c1622c420e21591e1b96,61036be322fd58b8152497be,2021-07-29_20h03.42.324,Simcolourproject_2stim_asymm_v5,2020.2.10,MacIntel,60,61025ae37ef11b136ea224fe,,,,,,,,,2267,71.64978027,39.83435059,1,0,0,response1disk,,6,11.68127441,10.26361084,1,0,0,rectangle,11.68127441,10.26361084,1,0,0,11.68127441,10.26361084,1,0,0,1,56,216,58,1,,,,,,,,
,,,,,,,,,,,,,FF,,,,,,,,1.2504,,,,,,,,,,,,,,,,,,,,,,6101c1622c420e21591e1b96,61036be322fd58b8152497be,2021-07-29_20h03.42.324,Simcolourproject_2stim_asymm_v5,2020.2.10,MacIntel,60,61025ae37ef11b136ea224fe,,,,,,,,,1737,65.30072021,-31.03216553,1,0,0,response3disk,,5,0.616210938,-3.933837891,1,0,0,rectangle,0.616210938,-3.933837891,1,0,0,0.616210938,-3.933837891,1,0,0,1,57,217,138,1,,,,,,,,
,,,,,,,,,,,,,FF,,,,,,,,2.2308,,,,,,,,,,,,,,,,,,,,,,6101c1622c420e21591e1b96,61036be322fd58b8152497be,2021-07-29_20h03.42.324,Simcolourproject_2stim_asymm_v5,2020.2.10,MacIntel,60,61025ae37ef11b136ea224fe,,,,,,,,,2396,78.58032227,55.34552002,1,0,0,response1disk,,6,24.63043213,11.20996094,1,0,0,rectangle,24.63043213,11.20996094,1,0,0,24.63043213,11.20996094,1,0,0,1,58,218,30,1,,,,,,,,
,,,,,,,,,,,,,FF,,,,,,,,1.5671,,,,,,,,,,,,,,,,,,,,,,6101c1622c420e21591e1b96,61036be322fd58b8152497be,2021-07-29_20h03.42.324,Simcolourproject_2stim_asymm_v5,2020.2.10,MacIntel,60,61025ae37ef11b136ea224fe,,,,,,,,,2528,48.91430664,-28.699646,1,0,0,response3disk,,5,-0.453918457,14.7880249,1,0,0,rectangle,-0.453918457,14.7880249,1,0,0,-0.453918457,14.7880249,1,0,0,1,59,219,36,1,,,,,,,,
,,,,,,,,,,,,,FF,,,,,,,,1.1336,,,,,,,,,,,,,,,,,,,,,,6101c1622c420e21591e1b96,61036be322fd58b8152497be,2021-07-29_20h03.42.324,Simcolourproject_2stim_asymm_v5,2020.2.10,MacIntel,60,61025ae37ef11b136ea224fe,,,,,,,,,2449,56.45581055,35.64709473,1,0,0,response1disk,,6,18.4743042,-0.264709473,1,0,0,rectangle,18.4743042,-0.264709473,1,0,0,18.4743042,-0.264709473,1,0,0,1,60,220,117,1,,,,,,,,
,,,,,,,,,,,,,FF,,,,,,,,2.1347,,,,,,,,,,,,,,,,,,,,,,6101c1622c420e21591e1b96,61036be322fd58b8152497be,2021-07-29_20h03.42.324,Simcolourproject_2stim_asymm_v5,2020.2.10,MacIntel,60,61025ae37ef11b136ea224fe,,,,,,,,,1452,-79.59552002,-30.63000488,1,0,0,response5disk,,2,-27.01263428,-10.65432739,1,0,0,rectangle,-27.01263428,-10.65432739,1,0,0,-27.01263428,-10.65432739,1,0,0,1,61,221,18,1,,,,,,,,
,,,,,,,,,,,,,FF,,,,,,,,0.6759,,,,,,,,,,,,,,,,,,,,,,6101c1622c420e21591e1b96,61036be322fd58b8152497be,2021-07-29_20h03.42.324,Simcolourproject_2stim_asymm_v5,2020.2.10,MacIntel,60,61025ae37ef11b136ea224fe,,,,,,,,,2471,36.88745117,67.25738525,1,0,0,response1disk,,7,0.931091309,-8.121459961,1,0,0,rectangle,0.931091309,-8.121459961,1,0,0,0.931091309,-8.121459961,1,0,0,1,62,222,48,1,,,,,,,,
,,,,,,,,,,,,,FF,,,,,,,,1.451,,,,,,,,,,,,,,,,,,,,,,6101c1622c420e21591e1b96,61036be322fd58b8152497be,2021-07-29_20h03.42.324,Simcolourproject_2stim_asymm_v5,2020.2.10,MacIntel,60,61025ae37ef11b136ea224fe,,,,,,,,,3276,45.33624268,-23.01019287,1,0,0,response3disk,,5,12.72680664,13.3079834,1,0,0,rectangle,12.72680664,13.3079834,1,0,0,12.72680664,13.3079834,1,0,0,1,63,223,136,1,,,,,,,,
,,,,,,,,,,,,,FF,,,,,,,,1.2839,,,,,,,,,,,,,,,,,,,,,,6101c1622c420e21591e1b96,61036be322fd58b8152497be,2021-07-29_20h03.42.324,Simcolourproject_2stim_asymm_v5,2020.2.10,MacIntel,60,61025ae37ef11b136ea224fe,,,,,,,,,4242,38.44061279,78.17285156,1,0,0,response1disk,,7,6.403503418,-7.330322266,1,0,0,rectangle,6.403503418,-7.330322266,1,0,0,6.403503418,-7.330322266,1,0,0,1,64,224,15,1,,,,,,,,
,,,,,,,,,,,,,FF,,,,,,,,2.5027,,,,,,,,,,,,,,,,,,,,,,6101c1622c420e21591e1b96,61036be322fd58b8152497be,2021-07-29_20h03.42.324,Simcolourproject_2stim_asymm_v5,2020.2.10,MacIntel,60,61025ae37ef11b136ea224fe,,,,,,,,,900,-53.45526123,-82.76452637,1,0,0,response5disk,,3,-22.96020508,-8.239624023,1,0,0,rectangle,-22.96020508,-8.239624023,1,0,0,-22.96020508,-8.239624023,1,0,0,1,65,225,120,1,,,,,,,,
,,,,,,,,,,,,,FF,,,,,,,,1.366,,,,,,,,,,,,,,,,,,,,,,6101c1622c420e21591e1b96,61036be322fd58b8152497be,2021-07-29_20h03.42.324,Simcolourproject_2stim_asymm_v5,2020.2.10,MacIntel,60,61025ae37ef11b136ea224fe,,,,,,,,,281,-35.67901611,-58.84631348,1,0,0,response5disk,,3,-8.382202148,6.636962891,1,0,0,rectangle,-8.382202148,6.636962891,1,0,0,-8.382202148,6.636962891,1,0,0,1,66,226,128,1,,,,,,,,
,,,,,,,,,,,,,FF,,,,,,,,1.2507,,,,,,,,,,,,,,,,,,,,,,6101c1622c420e21591e1b96,61036be322fd58b8152497be,2021-07-29_20h03.42.324,Simcolourproject_2stim_asymm_v5,2020.2.10,MacIntel,60,61025ae37ef11b136ea224fe,,,,,,,,,2899,36.54901123,-53.41278076,1,0,0,response3disk,,4,11.11700439,10.84979248,1,0,0,rectangle,11.11700439,10.84979248,1,0,0,11.11700439,10.84979248,1,0,0,1,67,227,154,1,,,,,,,,
,,,,,,,,,,,,,FF,,,,,,,,0.8373,,,,,,,,,,,,,,,,,,,,,,6101c1622c420e21591e1b96,61036be322fd58b8152497be,2021-07-29_20h03.42.324,Simcolourproject_2stim_asymm_v5,2020.2.10,MacIntel,60,61025ae37ef11b136ea224fe,,,,,,,,,161,65.1204834,38.99926758,1,0,0,response1disk,,6,10.53240967,0.872161865,1,0,0,rectangle,10.53240967,0.872161865,1,0,0,10.53240967,0.872161865,1,0,0,1,68,228,129,1,,,,,,,,
,,,,,,,,,,,,,FF,,,,,,,,1.767,,,,,,,,,,,,,,,,,,,,,,6101c1622c420e21591e1b96,61036be322fd58b8152497be,2021-07-29_20h03.42.324,Simcolourproject_2stim_asymm_v5,2020.2.10,MacIntel,60,61025ae37ef11b136ea224fe,,,,,,,,,177,50.52264404,26.06265259,1,0,0,response1disk,,6,6.657043457,-6.558990479,1,0,0,rectangle,6.657043457,-6.558990479,1,0,0,6.657043457,-6.558990479,1,0,0,1,69,229,43,1,,,,,,,,
,,,,,,,,,,,,,FF,,,,,,,,1.888,,,,,,,,,,,,,,,,,,,,,,6101c1622c420e21591e1b96,61036be322fd58b8152497be,2021-07-29_20h03.42.324,Simcolourproject_2stim_asymm_v5,2020.2.10,MacIntel,60,61025ae37ef11b136ea224fe,,,,,,,,,3179,44.92181396,-24.96582031,1,0,0,response3disk,,5,8.973205566,-1.704528809,1,0,0,rectangle,8.973205566,-1.704528809,1,0,0,8.973205566,-1.704528809,1,0,0,1,70,230,80,1,,,,,,,,
,,,,,,,,,,,,,FF,,,,,,,,2.8783,,,,,,,,,,,,,,,,,,,,,,6101c1622c420e21591e1b96,61036be322fd58b8152497be,2021-07-29_20h03.42.324,Simcolourproject_2stim_asymm_v5,2020.2.10,MacIntel,60,61025ae37ef11b136ea224fe,,,,,,,,,2270,66.00769043,-37.67163086,1,0,0,response3disk,,5,-0.449645996,-1.478210449,1,0,0,rectangle,-0.449645996,-1.478210449,1,0,0,-0.449645996,-1.478210449,1,0,0,1,71,231,33,1,,,,,,,,
,,,,,,,,,,,,,FF,,,,,,,,2.5157,,,,,,,,,,,,,,,,,,,,,,6101c1622c420e21591e1b96,61036be322fd58b8152497be,2021-07-29_20h03.42.324,Simcolourproject_2stim_asymm_v5,2020.2.10,MacIntel,60,61025ae37ef11b136ea224fe,,,,,,,,,149,57.07342529,35.78338623,1,0,0,response1disk,,6,-4.299377441,5.544311523,1,0,0,rectangle,-4.299377441,5.544311523,1,0,0,-4.299377441,5.544311523,1,0,0,1,72,232,24,1,,,,,,,,
,,,,,,,,,,,,,FF,,,,,,,,1.3329,,,,,,,,,,,,,,,,,,,,,,6101c1622c420e21591e1b96,61036be322fd58b8152497be,2021-07-29_20h03.42.324,Simcolourproject_2stim_asymm_v5,2020.2.10,MacIntel,60,61025ae37ef11b136ea224fe,,,,,,,,,808,-74.6050415,-36.19891357,1,0,0,response5disk,,2,4.508056641,-3.083251953,1,0,0,rectangle,4.508056641,-3.083251953,1,0,0,4.508056641,-3.083251953,1,0,0,1,73,233,130,1,,,,,,,,
,,,,,,,,,,,,,FF,,,,,,,,1.2519,,,,,,,,,,,,,,,,,,,,,,6101c1622c420e21591e1b96,61036be322fd58b8152497be,2021-07-29_20h03.42.324,Simcolourproject_2stim_asymm_v5,2020.2.10,MacIntel,60,61025ae37ef11b136ea224fe,,,,,,,,,4299,19.88012695,-93.39318848,1,0,0,response3disk,,4,7.613525391,-4.145111084,1,0,0,rectangle,7.613525391,-4.145111084,1,0,0,7.613525391,-4.145111084,1,0,0,1,74,234,85,1,,,,,,,,
,,,,,,,,,,,,,FF,,,,,,,,1.7527,,,,,,,,,,,,,,,,,,,,,,6101c1622c420e21591e1b96,61036be322fd58b8152497be,2021-07-29_20h03.42.324,Simcolourproject_2stim_asymm_v5,2020.2.10,MacIntel,60,61025ae37ef11b136ea224fe,,,,,,,,,3571,77.40063477,68.61587524,1,0,0,response1disk,,6,10.78118896,3.475799561,1,0,0,rectangle,-40.97283936,-88.14538574,1,0,0,-4.830078125,0.581970215,1,0,0,1,75,235,3,1,,response5disk_3,TRUE,3,3,"[316,323,6,185,252,28,236,154,85,134,184,55,275,253,138,134,42,263,150,203]",1.5182,rectangle
,,,,,,,,,,,,,FF,,,,,,,,1.0034,,,,,,,,,,,,,,,,,,,,,,6101c1622c420e21591e1b96,61036be322fd58b8152497be,2021-07-29_20h03.42.324,Simcolourproject_2stim_asymm_v5,2020.2.10,MacIntel,60,61025ae37ef11b136ea224fe,,,,,,,,,2841,-30.84375,-82.65454102,1,0,0,response5disk,,3,-15.61364746,-5.002471924,1,0,0,rectangle,-15.61364746,-5.002471924,1,0,0,-15.61364746,-5.002471924,1,0,0,1,76,236,32,1,,,,,,,,
,,,,,,,,,,,,,FF,,,,,,,,0.7668,,,,,,,,,,,,,,,,,,,,,,6101c1622c420e21591e1b96,61036be322fd58b8152497be,2021-07-29_20h03.42.324,Simcolourproject_2stim_asymm_v5,2020.2.10,MacIntel,60,61025ae37ef11b136ea224fe,,,,,,,,,2346,47.45556641,82.15118408,1,0,0,response1disk,,7,15.55310059,3.752990723,1,0,0,rectangle,15.55310059,3.752990723,1,0,0,15.55310059,3.752990723,1,0,0,1,77,237,93,1,,,,,,,,
,,,,,,,,,,,,,FF,,,,,,,,0.818,,,,,,,,,,,,,,,,,,,,,,6101c1622c420e21591e1b96,61036be322fd58b8152497be,2021-07-29_20h03.42.324,Simcolourproject_2stim_asymm_v5,2020.2.10,MacIntel,60,61025ae37ef11b136ea224fe,,,,,,,,,3441,46.61895752,-77.2791748,1,0,0,response3disk,,4,21.48181152,-13.75689697,1,0,0,rectangle,21.48181152,-13.75689697,1,0,0,21.48181152,-13.75689697,1,0,0,1,78,238,17,1,,,,,,,,
,,,,,,,,,,,,,FF,,,,,,,,0.9436,,,,,,,,,,,,,,,,,,,,,,6101c1622c420e21591e1b96,61036be322fd58b8152497be,2021-07-29_20h03.42.324,Simcolourproject_2stim_asymm_v5,2020.2.10,MacIntel,60,61025ae37ef11b136ea224fe,,,,,,,,,962,49.69683838,-26.35949707,1,0,0,response3disk,,5,-3.84362793,1.084960938,1,0,0,rectangle,-3.84362793,1.084960938,1,0,0,-3.84362793,1.084960938,1,0,0,1,79,239,134,1,,,,,,,,
,,,,,,,,,,,,,FF,,,,,,,,1.1384,,,,,,,,,,,,,,,,,,,,,,6101c1622c420e21591e1b96,61036be322fd58b8152497be,2021-07-29_20h03.42.324,Simcolourproject_2stim_asymm_v5,2020.2.10,MacIntel,60,61025ae37ef11b136ea224fe,,,,,,,,,517,55.39117432,40.48455811,1,0,0,response1disk,,6,8.225891113,4.208190918,1,0,0,rectangle,8.225891113,4.208190918,1,0,0,8.225891113,4.208190918,1,0,0,1,80,240,38,1,,,,,,,,
,,,,,,,,,,,,,FF,,,,,,,,0.5924,,,,,,,,,,,,,,,,,,,,,,6101c1622c420e21591e1b96,61036be322fd58b8152497be,2021-07-29_20h03.42.324,Simcolourproject_2stim_asymm_v5,2020.2.10,MacIntel,60,61025ae37ef11b136ea224fe,,,,,,,,,84,45.10754395,67.11218262,1,0,0,response1disk,,7,7.927490234,0.780578613,1,0,0,rectangle,7.927490234,0.780578613,1,0,0,7.927490234,0.780578613,1,0,0,1,81,241,37,1,,,,,,,,
