key_resp.keys,key_resp.rt,key_resp_14.keys,key_resp_14.rt,key_resp_15.keys,key_resp_15.rt,key_resp_17.keys,key_resp_17.rt,key_resp_9.keys,key_resp_9.rt,key_resp_10.keys,key_resp_10.rt,practice_comparison,Ecc,mouse_5.x,mouse_5.y,mouse_5.leftButton,mouse_5.midButton,mouse_5.rightButton,mouse_5.clicked_name,pracsimilarity,response_time,mouse_10.x,mouse_10.y,mouse_10.leftButton,mouse_10.midButton,mouse_10.rightButton,mouse_10.clicked_name,mouse_7.x,mouse_7.y,mouse_7.leftButton,mouse_7.midButton,mouse_7.rightButton,mouse_6.x,mouse_6.y,mouse_6.leftButton,mouse_6.midButton,mouse_6.rightButton,duringprac.thisRepN,duringprac.thisTrialN,duringprac.thisN,duringprac.thisIndex,duringprac.ran,participant,session,date,expName,psychopyVersion,OS,frameRate,study_id,mouse_7.clicked_name,catchpracsimilarity,catch_response_time,catchnumberprac,catchtrialorderprac,mouse_6.clicked_name,key_resp_22.keys,key_resp_22.rt,realcomparison,mouse.x,mouse.y,mouse.leftButton,mouse.midButton,mouse.rightButton,mouse.clicked_name,Colour2,similarity,mouse_2.x,mouse_2.y,mouse_2.leftButton,mouse_2.midButton,mouse_2.rightButton,mouse_2.clicked_name,mouse_3.x,mouse_3.y,mouse_3.leftButton,mouse_3.midButton,mouse_3.rightButton,mouse_11.x,mouse_11.y,mouse_11.leftButton,mouse_11.midButton,mouse_11.rightButton,trials_2.thisRepN,trials_2.thisTrialN,trials_2.thisN,trials_2.thisIndex,trials_2.ran,Colour1,mouse_3.clicked_name,catchornah,catchsimilarity,catchnumber,catchtrialorder,catchRT,mouse_11.clicked_name
space,4.222,space,28.155,space,36.236,space,13.599,space,2.566,space,6.928,97,PF,53,75,1,0,0,response1disk_5,7,9.132,-4,0,1,0,0,rectangle_8,-4,0,1,0,0,-4,0,1,0,0,0,0,0,2,1,6101b6d51040dd4205b86c28,61036d06f428419531f2ed7c,2021-07-29_22h09.07.656,Simcolourproject_2stim_asymm_v5,2020.2.10,MacIntel,60,61025ae37ef11b136ea224fe,,,,,,,,,,,,,,,,,,,,,,,,,,,,,,,,,,,,,,,,,,,,,,
,,,,,,,,,,,,135,FF,-95,35,1,0,0,response7disk_5,1,5.051,-8,1,1,0,0,rectangle_8,-85,-48,1,0,0,6,0,1,0,0,0,1,1,0,1,6101b6d51040dd4205b86c28,61036d06f428419531f2ed7c,2021-07-29_22h09.07.656,Simcolourproject_2stim_asymm_v5,2020.2.10,MacIntel,60,61025ae37ef11b136ea224fe,response5disk_7,2,3.417,2,"[2,5]",rectangle_4,,,,,,,,,,,,,,,,,,,,,,,,,,,,,,,,,,,,,,,,
,,,,,,,,,,,,118,FF,-62,-38,1,0,0,response5disk_5,2,6.434,5,7,1,0,0,rectangle_8,5,7,1,0,0,5,7,1,0,0,0,2,2,3,1,6101b6d51040dd4205b86c28,61036d06f428419531f2ed7c,2021-07-29_22h09.07.656,Simcolourproject_2stim_asymm_v5,2020.2.10,MacIntel,60,61025ae37ef11b136ea224fe,,,,,,,,,,,,,,,,,,,,,,,,,,,,,,,,,,,,,,,,,,,,,,
,,,,,,,,,,,,56,PF,43,62,1,0,0,response1disk_5,7,4.018,5,-1,1,0,0,rectangle_8,5,-1,1,0,0,5,-1,1,0,0,0,3,3,6,1,6101b6d51040dd4205b86c28,61036d06f428419531f2ed7c,2021-07-29_22h09.07.656,Simcolourproject_2stim_asymm_v5,2020.2.10,MacIntel,60,61025ae37ef11b136ea224fe,,,,,,,,,,,,,,,,,,,,,,,,,,,,,,,,,,,,,,,,,,,,,,
,,,,,,,,,,,,131,PF,-30,-75,1,0,0,response5disk_5,3,1.683,9,-5,1,0,0,rectangle_8,-76,-41,1,0,0,-11,-6,1,0,0,0,4,4,1,1,6101b6d51040dd4205b86c28,61036d06f428419531f2ed7c,2021-07-29_22h09.07.656,Simcolourproject_2stim_asymm_v5,2020.2.10,MacIntel,60,61025ae37ef11b136ea224fe,response5disk_7,2,2.085,2,"[2,5]",rectangle_4,,,,,,,,,,,,,,,,,,,,,,,,,,,,,,,,,,,,,,,,
,,,,,,,,,,,,159,PF,38,66,1,0,0,response1disk_5,7,2.75,0,-4,1,0,0,rectangle_8,0,-4,1,0,0,0,-4,1,0,0,0,5,5,4,1,6101b6d51040dd4205b86c28,61036d06f428419531f2ed7c,2021-07-29_22h09.07.656,Simcolourproject_2stim_asymm_v5,2020.2.10,MacIntel,60,61025ae37ef11b136ea224fe,,,,,,,,,,,,,,,,,,,,,,,,,,,,,,,,,,,,,,,,,,,,,,
,,,,,,,,,,,,106,FF,33,-68,1,0,0,response3disk_5,4,1.865,-10,7,1,0,0,rectangle_8,-10,7,1,0,0,-10,7,1,0,0,0,6,6,5,1,6101b6d51040dd4205b86c28,61036d06f428419531f2ed7c,2021-07-29_22h09.07.656,Simcolourproject_2stim_asymm_v5,2020.2.10,MacIntel,60,61025ae37ef11b136ea224fe,,,,,,,,,,,,,,,,,,,,,,,,,,,,,,,,,,,,,,,,,,,,,,
,,,,,,,,,,,,,FF,,,,,,,,6.35,,,,,,,,,,,,,,,,,,,,,,6101b6d51040dd4205b86c28,61036d06f428419531f2ed7c,2021-07-29_22h09.07.656,Simcolourproject_2stim_asymm_v5,2020.2.10,MacIntel,60,61025ae37ef11b136ea224fe,,,,,,,space,2.855,1367,85,22,1,0,0,response1disk,,6,-3,-6,1,0,0,rectangle,-3,-6,1,0,0,-3,-6,1,0,0,0,0,0,67,1,,,,,,,,
,,,,,,,,,,,,,FF,,,,,,,,1.684,,,,,,,,,,,,,,,,,,,,,,6101b6d51040dd4205b86c28,61036d06f428419531f2ed7c,2021-07-29_22h09.07.656,Simcolourproject_2stim_asymm_v5,2020.2.10,MacIntel,60,61025ae37ef11b136ea224fe,,,,,,,,,3198,-42,-69,1,0,0,response5disk,,3,-10,0,1,0,0,rectangle,-10,0,1,0,0,-10,0,1,0,0,0,1,1,9,1,,,,,,,,
,,,,,,,,,,,,,FF,,,,,,,,1.75,,,,,,,,,,,,,,,,,,,,,,6101b6d51040dd4205b86c28,61036d06f428419531f2ed7c,2021-07-29_22h09.07.656,Simcolourproject_2stim_asymm_v5,2020.2.10,MacIntel,60,61025ae37ef11b136ea224fe,,,,,,,,,108,57,-37,1,0,0,response3disk,,5,7,7,1,0,0,rectangle,7,7,1,0,0,7,7,1,0,0,0,2,2,156,1,,,,,,,,
,,,,,,,,,,,,,FF,,,,,,,,1.267,,,,,,,,,,,,,,,,,,,,,,6101b6d51040dd4205b86c28,61036d06f428419531f2ed7c,2021-07-29_22h09.07.656,Simcolourproject_2stim_asymm_v5,2020.2.10,MacIntel,60,61025ae37ef11b136ea224fe,,,,,,,,,2615,-23,59,1,0,0,response7disk,,0,-6,3,1,0,0,rectangle,-6,3,1,0,0,-6,3,1,0,0,0,3,3,58,1,,,,,,,,
,,,,,,,,,,,,,FF,,,,,,,,1.533,,,,,,,,,,,,,,,,,,,,,,6101b6d51040dd4205b86c28,61036d06f428419531f2ed7c,2021-07-29_22h09.07.656,Simcolourproject_2stim_asymm_v5,2020.2.10,MacIntel,60,61025ae37ef11b136ea224fe,,,,,,,,,1523,-80,-51,1,0,0,response5disk,,2,-3,17,1,0,0,rectangle,40,89,1,0,0,-6,-8,1,0,0,0,4,4,125,1,,response1disk_3,TRUE,7,7,"[292,219,58,180,149,99,27,161,206,77,312,102,171,200,50,44,236,136,5,26]",2.918,rectangle
,,,,,,,,,,,,,FF,,,,,,,,1.518,,,,,,,,,,,,,,,,,,,,,,6101b6d51040dd4205b86c28,61036d06f428419531f2ed7c,2021-07-29_22h09.07.656,Simcolourproject_2stim_asymm_v5,2020.2.10,MacIntel,60,61025ae37ef11b136ea224fe,,,,,,,,,3926,30,-74,1,0,0,response3disk,,4,-6,-10,1,0,0,rectangle,-6,-10,1,0,0,-6,-10,1,0,0,0,5,5,66,1,,,,,,,,
,,,,,,,,,,,,,FF,,,,,,,,2.101,,,,,,,,,,,,,,,,,,,,,,6101b6d51040dd4205b86c28,61036d06f428419531f2ed7c,2021-07-29_22h09.07.656,Simcolourproject_2stim_asymm_v5,2020.2.10,MacIntel,60,61025ae37ef11b136ea224fe,,,,,,,,,180,60,80,1,0,0,response1disk,,7,-5,-15,1,0,0,rectangle,-5,-15,1,0,0,-5,-15,1,0,0,0,6,6,46,1,,,,,,,,
,,,,,,,,,,,,,FF,,,,,,,,2.301,,,,,,,,,,,,,,,,,,,,,,6101b6d51040dd4205b86c28,61036d06f428419531f2ed7c,2021-07-29_22h09.07.656,Simcolourproject_2stim_asymm_v5,2020.2.10,MacIntel,60,61025ae37ef11b136ea224fe,,,,,,,,,454,66,34,1,0,0,response1disk,,6,1,0,1,0,0,rectangle,1,0,1,0,0,1,0,1,0,0,0,7,7,126,1,,,,,,,,
,,,,,,,,,,,,,FF,,,,,,,,1.534,,,,,,,,,,,,,,,,,,,,,,6101b6d51040dd4205b86c28,61036d06f428419531f2ed7c,2021-07-29_22h09.07.656,Simcolourproject_2stim_asymm_v5,2020.2.10,MacIntel,60,61025ae37ef11b136ea224fe,,,,,,,,,1864,44,61,1,0,0,response1disk,,7,3,4,1,0,0,rectangle,3,4,1,0,0,3,4,1,0,0,0,8,8,80,1,,,,,,,,
,,,,,,,,,,,,,FF,,,,,,,,1.567,,,,,,,,,,,,,,,,,,,,,,6101b6d51040dd4205b86c28,61036d06f428419531f2ed7c,2021-07-29_22h09.07.656,Simcolourproject_2stim_asymm_v5,2020.2.10,MacIntel,60,61025ae37ef11b136ea224fe,,,,,,,,,2370,22,-69,1,0,0,response3disk,,4,1,15,1,0,0,rectangle,1,15,1,0,0,1,15,1,0,0,0,9,9,88,1,,,,,,,,
,,,,,,,,,,,,,FF,,,,,,,,1.468,,,,,,,,,,,,,,,,,,,,,,6101b6d51040dd4205b86c28,61036d06f428419531f2ed7c,2021-07-29_22h09.07.656,Simcolourproject_2stim_asymm_v5,2020.2.10,MacIntel,60,61025ae37ef11b136ea224fe,,,,,,,,,2139,49,35,1,0,0,response1disk,,6,1,7,1,0,0,rectangle,1,7,1,0,0,1,7,1,0,0,0,10,10,27,1,,,,,,,,
,,,,,,,,,,,,,FF,,,,,,,,1.582,,,,,,,,,,,,,,,,,,,,,,6101b6d51040dd4205b86c28,61036d06f428419531f2ed7c,2021-07-29_22h09.07.656,Simcolourproject_2stim_asymm_v5,2020.2.10,MacIntel,60,61025ae37ef11b136ea224fe,,,,,,,,,1125,51,21,1,0,0,response1disk,,6,-3,12,1,0,0,rectangle,-3,12,1,0,0,-3,12,1,0,0,0,11,11,60,1,,,,,,,,
,,,,,,,,,,,,,FF,,,,,,,,2.316,,,,,,,,,,,,,,,,,,,,,,6101b6d51040dd4205b86c28,61036d06f428419531f2ed7c,2021-07-29_22h09.07.656,Simcolourproject_2stim_asymm_v5,2020.2.10,MacIntel,60,61025ae37ef11b136ea224fe,,,,,,,,,767,62,33,1,0,0,response1disk,,6,16,-5,1,0,0,rectangle,16,-5,1,0,0,16,-5,1,0,0,0,12,12,97,1,,,,,,,,
,,,,,,,,,,,,,FF,,,,,,,,1.699,,,,,,,,,,,,,,,,,,,,,,6101b6d51040dd4205b86c28,61036d06f428419531f2ed7c,2021-07-29_22h09.07.656,Simcolourproject_2stim_asymm_v5,2020.2.10,MacIntel,60,61025ae37ef11b136ea224fe,,,,,,,,,3868,65,-40,1,0,0,response3disk,,5,11,-12,1,0,0,rectangle,11,-12,1,0,0,11,-12,1,0,0,0,13,13,138,1,,,,,,,,
,,,,,,,,,,,,,FF,,,,,,,,1.385,,,,,,,,,,,,,,,,,,,,,,6101b6d51040dd4205b86c28,61036d06f428419531f2ed7c,2021-07-29_22h09.07.656,Simcolourproject_2stim_asymm_v5,2020.2.10,MacIntel,60,61025ae37ef11b136ea224fe,,,,,,,,,1903,-18,-49,1,0,0,response5disk,,3,-11,-11,1,0,0,rectangle,-11,-11,1,0,0,-11,-11,1,0,0,0,14,14,84,1,,,,,,,,
,,,,,,,,,,,,,FF,,,,,,,,1.233,,,,,,,,,,,,,,,,,,,,,,6101b6d51040dd4205b86c28,61036d06f428419531f2ed7c,2021-07-29_22h09.07.656,Simcolourproject_2stim_asymm_v5,2020.2.10,MacIntel,60,61025ae37ef11b136ea224fe,,,,,,,,,466,50,-40,1,0,0,response3disk,,5,6,3,1,0,0,rectangle,6,3,1,0,0,6,3,1,0,0,0,15,15,140,1,,,,,,,,
,,,,,,,,,,,,,FF,,,,,,,,1.467,,,,,,,,,,,,,,,,,,,,,,6101b6d51040dd4205b86c28,61036d06f428419531f2ed7c,2021-07-29_22h09.07.656,Simcolourproject_2stim_asymm_v5,2020.2.10,MacIntel,60,61025ae37ef11b136ea224fe,,,,,,,,,4215,49,26,1,0,0,response1disk,,6,-4,-6,1,0,0,rectangle,-4,-6,1,0,0,-4,-6,1,0,0,0,16,16,59,1,,,,,,,,
,,,,,,,,,,,,,FF,,,,,,,,1.051,,,,,,,,,,,,,,,,,,,,,,6101b6d51040dd4205b86c28,61036d06f428419531f2ed7c,2021-07-29_22h09.07.656,Simcolourproject_2stim_asymm_v5,2020.2.10,MacIntel,60,61025ae37ef11b136ea224fe,,,,,,,,,3645,30,54,1,0,0,response1disk,,7,-5,6,1,0,0,rectangle,-5,6,1,0,0,-5,6,1,0,0,0,17,17,17,1,,,,,,,,
,,,,,,,,,,,,,FF,,,,,,,,1.599,,,,,,,,,,,,,,,,,,,,,,6101b6d51040dd4205b86c28,61036d06f428419531f2ed7c,2021-07-29_22h09.07.656,Simcolourproject_2stim_asymm_v5,2020.2.10,MacIntel,60,61025ae37ef11b136ea224fe,,,,,,,,,101,-20,-77,1,0,0,response5disk,,3,0,5,1,0,0,rectangle,0,5,1,0,0,0,5,1,0,0,0,18,18,62,1,,,,,,,,
,,,,,,,,,,,,,FF,,,,,,,,1.282,,,,,,,,,,,,,,,,,,,,,,6101b6d51040dd4205b86c28,61036d06f428419531f2ed7c,2021-07-29_22h09.07.656,Simcolourproject_2stim_asymm_v5,2020.2.10,MacIntel,60,61025ae37ef11b136ea224fe,,,,,,,,,3475,-59,28,1,0,0,response7disk,,1,-12,-5,1,0,0,rectangle,-12,-5,1,0,0,-12,-5,1,0,0,0,19,19,15,1,,,,,,,,
,,,,,,,,,,,,,FF,,,,,,,,1.499,,,,,,,,,,,,,,,,,,,,,,6101b6d51040dd4205b86c28,61036d06f428419531f2ed7c,2021-07-29_22h09.07.656,Simcolourproject_2stim_asymm_v5,2020.2.10,MacIntel,60,61025ae37ef11b136ea224fe,,,,,,,,,2045,-23,-67,1,0,0,response5disk,,3,11,-5,1,0,0,rectangle,11,-5,1,0,0,11,-5,1,0,0,0,20,20,52,1,,,,,,,,
,,,,,,,,,,,,,FF,,,,,,,,1.084,,,,,,,,,,,,,,,,,,,,,,6101b6d51040dd4205b86c28,61036d06f428419531f2ed7c,2021-07-29_22h09.07.656,Simcolourproject_2stim_asymm_v5,2020.2.10,MacIntel,60,61025ae37ef11b136ea224fe,,,,,,,,,1199,56,-33,1,0,0,response3disk,,5,9,-4,1,0,0,rectangle,9,-4,1,0,0,9,-4,1,0,0,0,21,21,42,1,,,,,,,,
,,,,,,,,,,,,,FF,,,,,,,,0.967,,,,,,,,,,,,,,,,,,,,,,6101b6d51040dd4205b86c28,61036d06f428419531f2ed7c,2021-07-29_22h09.07.656,Simcolourproject_2stim_asymm_v5,2020.2.10,MacIntel,60,61025ae37ef11b136ea224fe,,,,,,,,,2254,44,26,1,0,0,response1disk,,6,-8,12,1,0,0,rectangle,-8,12,1,0,0,-8,12,1,0,0,0,22,22,69,1,,,,,,,,
,,,,,,,,,,,,,FF,,,,,,,,1.549,,,,,,,,,,,,,,,,,,,,,,6101b6d51040dd4205b86c28,61036d06f428419531f2ed7c,2021-07-29_22h09.07.656,Simcolourproject_2stim_asymm_v5,2020.2.10,MacIntel,60,61025ae37ef11b136ea224fe,,,,,,,,,2672,-40,-50,1,0,0,response5disk,,3,-20,-3,1,0,0,rectangle,-20,-3,1,0,0,-20,-3,1,0,0,0,23,23,103,1,,,,,,,,
,,,,,,,,,,,,,FF,,,,,,,,1.434,,,,,,,,,,,,,,,,,,,,,,6101b6d51040dd4205b86c28,61036d06f428419531f2ed7c,2021-07-29_22h09.07.656,Simcolourproject_2stim_asymm_v5,2020.2.10,MacIntel,60,61025ae37ef11b136ea224fe,,,,,,,,,3829,69,-50,1,0,0,response3disk,,5,22,-9,1,0,0,rectangle,22,-9,1,0,0,22,-9,1,0,0,0,24,24,96,1,,,,,,,,
,,,,,,,,,,,,,FF,,,,,,,,0.95,,,,,,,,,,,,,,,,,,,,,,6101b6d51040dd4205b86c28,61036d06f428419531f2ed7c,2021-07-29_22h09.07.656,Simcolourproject_2stim_asymm_v5,2020.2.10,MacIntel,60,61025ae37ef11b136ea224fe,,,,,,,,,2033,-72,-17,1,0,0,response5disk,,2,-9,3,1,0,0,rectangle,-35,-95,1,0,0,8,1,1,0,0,0,25,25,18,1,,response5disk_3,TRUE,3,3,"[292,219,58,180,149,99,27,161,206,77,312,102,171,200,50,44,236,136,5,26]",1.899,rectangle
,,,,,,,,,,,,,FF,,,,,,,,3.667,,,,,,,,,,,,,,,,,,,,,,6101b6d51040dd4205b86c28,61036d06f428419531f2ed7c,2021-07-29_22h09.07.656,Simcolourproject_2stim_asymm_v5,2020.2.10,MacIntel,60,61025ae37ef11b136ea224fe,,,,,,,,,2609,-32,-74,1,0,0,response5disk,,3,10,-10,1,0,0,rectangle,39,74,1,0,0,10,-2,1,0,0,0,26,26,19,1,,response1disk_3,TRUE,7,7,"[292,219,58,180,149,99,27,161,206,77,312,102,171,200,50,44,236,136,5,26]",2.033,rectangle
,,,,,,,,,,,,,FF,,,,,,,,1.916,,,,,,,,,,,,,,,,,,,,,,6101b6d51040dd4205b86c28,61036d06f428419531f2ed7c,2021-07-29_22h09.07.656,Simcolourproject_2stim_asymm_v5,2020.2.10,MacIntel,60,61025ae37ef11b136ea224fe,,,,,,,,,4226,19,-71,1,0,0,response3disk,,4,11,-2,1,0,0,rectangle,11,-2,1,0,0,11,-2,1,0,0,0,27,27,112,1,,,,,,,,
,,,,,,,,,,,,,FF,,,,,,,,1.351,,,,,,,,,,,,,,,,,,,,,,6101b6d51040dd4205b86c28,61036d06f428419531f2ed7c,2021-07-29_22h09.07.656,Simcolourproject_2stim_asymm_v5,2020.2.10,MacIntel,60,61025ae37ef11b136ea224fe,,,,,,,,,2648,53,-18,1,0,0,response3disk,,5,11,2,1,0,0,rectangle,11,2,1,0,0,11,2,1,0,0,0,28,28,91,1,,,,,,,,
,,,,,,,,,,,,,FF,,,,,,,,1.233,,,,,,,,,,,,,,,,,,,,,,6101b6d51040dd4205b86c28,61036d06f428419531f2ed7c,2021-07-29_22h09.07.656,Simcolourproject_2stim_asymm_v5,2020.2.10,MacIntel,60,61025ae37ef11b136ea224fe,,,,,,,,,1582,27,-49,1,0,0,response3disk,,4,6,-2,1,0,0,rectangle,6,-2,1,0,0,6,-2,1,0,0,0,29,29,48,1,,,,,,,,
,,,,,,,,,,,,,FF,,,,,,,,1.3,,,,,,,,,,,,,,,,,,,,,,6101b6d51040dd4205b86c28,61036d06f428419531f2ed7c,2021-07-29_22h09.07.656,Simcolourproject_2stim_asymm_v5,2020.2.10,MacIntel,60,61025ae37ef11b136ea224fe,,,,,,,,,2352,52,20,1,0,0,response1disk,,6,4,8,1,0,0,rectangle,4,8,1,0,0,4,8,1,0,0,0,30,30,119,1,,,,,,,,
,,,,,,,,,,,,,FF,,,,,,,,1.816,,,,,,,,,,,,,,,,,,,,,,6101b6d51040dd4205b86c28,61036d06f428419531f2ed7c,2021-07-29_22h09.07.656,Simcolourproject_2stim_asymm_v5,2020.2.10,MacIntel,60,61025ae37ef11b136ea224fe,,,,,,,,,2765,60,42,1,0,0,response1disk,,6,3,13,1,0,0,rectangle,3,13,1,0,0,3,13,1,0,0,0,31,31,77,1,,,,,,,,
,,,,,,,,,,,,,FF,,,,,,,,1.349,,,,,,,,,,,,,,,,,,,,,,6101b6d51040dd4205b86c28,61036d06f428419531f2ed7c,2021-07-29_22h09.07.656,Simcolourproject_2stim_asymm_v5,2020.2.10,MacIntel,60,61025ae37ef11b136ea224fe,,,,,,,,,1423,49,20,1,0,0,response1disk,,6,-1,6,1,0,0,rectangle,-1,6,1,0,0,-1,6,1,0,0,0,32,32,40,1,,,,,,,,
,,,,,,,,,,,,,FF,,,,,,,,1.116,,,,,,,,,,,,,,,,,,,,,,6101b6d51040dd4205b86c28,61036d06f428419531f2ed7c,2021-07-29_22h09.07.656,Simcolourproject_2stim_asymm_v5,2020.2.10,MacIntel,60,61025ae37ef11b136ea224fe,,,,,,,,,3305,21,-57,1,0,0,response3disk,,4,-7,-1,1,0,0,rectangle,-7,-1,1,0,0,-7,-1,1,0,0,0,33,33,101,1,,,,,,,,
,,,,,,,,,,,,,FF,,,,,,,,1.034,,,,,,,,,,,,,,,,,,,,,,6101b6d51040dd4205b86c28,61036d06f428419531f2ed7c,2021-07-29_22h09.07.656,Simcolourproject_2stim_asymm_v5,2020.2.10,MacIntel,60,61025ae37ef11b136ea224fe,,,,,,,,,1610,-40,54,1,0,0,response7disk,,0,-1,-7,1,0,0,rectangle,-1,-7,1,0,0,-1,-7,1,0,0,0,34,34,78,1,,,,,,,,
,,,,,,,,,,,,,FF,,,,,,,,2.901,,,,,,,,,,,,,,,,,,,,,,6101b6d51040dd4205b86c28,61036d06f428419531f2ed7c,2021-07-29_22h09.07.656,Simcolourproject_2stim_asymm_v5,2020.2.10,MacIntel,60,61025ae37ef11b136ea224fe,,,,,,,,,1434,63,-37,1,0,0,response3disk,,5,2,10,1,0,0,rectangle,2,10,1,0,0,2,10,1,0,0,0,35,35,65,1,,,,,,,,
,,,,,,,,,,,,,FF,,,,,,,,1.467,,,,,,,,,,,,,,,,,,,,,,6101b6d51040dd4205b86c28,61036d06f428419531f2ed7c,2021-07-29_22h09.07.656,Simcolourproject_2stim_asymm_v5,2020.2.10,MacIntel,60,61025ae37ef11b136ea224fe,,,,,,,,,3700,44,68,1,0,0,response1disk,,7,20,14,1,0,0,rectangle,20,14,1,0,0,20,14,1,0,0,0,36,36,34,1,,,,,,,,
,,,,,,,,,,,,,FF,,,,,,,,1.568,,,,,,,,,,,,,,,,,,,,,,6101b6d51040dd4205b86c28,61036d06f428419531f2ed7c,2021-07-29_22h09.07.656,Simcolourproject_2stim_asymm_v5,2020.2.10,MacIntel,60,61025ae37ef11b136ea224fe,,,,,,,,,3863,53,-42,1,0,0,response3disk,,5,14,-13,1,0,0,rectangle,14,-13,1,0,0,14,-13,1,0,0,0,37,37,21,1,,,,,,,,
,,,,,,,,,,,,,FF,,,,,,,,2,,,,,,,,,,,,,,,,,,,,,,6101b6d51040dd4205b86c28,61036d06f428419531f2ed7c,2021-07-29_22h09.07.656,Simcolourproject_2stim_asymm_v5,2020.2.10,MacIntel,60,61025ae37ef11b136ea224fe,,,,,,,,,3968,-61,-53,1,0,0,response5disk,,2,-21,1,1,0,0,rectangle,-21,1,1,0,0,-21,1,1,0,0,0,38,38,49,1,,,,,,,,
,,,,,,,,,,,,,FF,,,,,,,,1.451,,,,,,,,,,,,,,,,,,,,,,6101b6d51040dd4205b86c28,61036d06f428419531f2ed7c,2021-07-29_22h09.07.656,Simcolourproject_2stim_asymm_v5,2020.2.10,MacIntel,60,61025ae37ef11b136ea224fe,,,,,,,,,1732,35,-70,1,0,0,response3disk,,4,21,-17,1,0,0,rectangle,21,-17,1,0,0,21,-17,1,0,0,0,39,39,25,1,,,,,,,,
,,,,,,,,,,,,,FF,,,,,,,,1.583,,,,,,,,,,,,,,,,,,,,,,6101b6d51040dd4205b86c28,61036d06f428419531f2ed7c,2021-07-29_22h09.07.656,Simcolourproject_2stim_asymm_v5,2020.2.10,MacIntel,60,61025ae37ef11b136ea224fe,,,,,,,,,2545,-31,-51,1,0,0,response5disk,,3,-18,-16,1,0,0,rectangle,-18,-16,1,0,0,-18,-16,1,0,0,0,40,40,128,1,,,,,,,,
,,,,,,,,,,,,,FF,,,,,,,,1.333,,,,,,,,,,,,,,,,,,,,,,6101b6d51040dd4205b86c28,61036d06f428419531f2ed7c,2021-07-29_22h09.07.656,Simcolourproject_2stim_asymm_v5,2020.2.10,MacIntel,60,61025ae37ef11b136ea224fe,,,,,,,,,3780,-60,-22,1,0,0,response5disk,,2,-20,1,1,0,0,rectangle,-20,1,1,0,0,-20,1,1,0,0,0,41,41,86,1,,,,,,,,
,,,,,,,,,,,,,FF,,,,,,,,1.616,,,,,,,,,,,,,,,,,,,,,,6101b6d51040dd4205b86c28,61036d06f428419531f2ed7c,2021-07-29_22h09.07.656,Simcolourproject_2stim_asymm_v5,2020.2.10,MacIntel,60,61025ae37ef11b136ea224fe,,,,,,,,,3463,61,-44,1,0,0,response3disk,,5,7,-8,1,0,0,rectangle,7,-8,1,0,0,7,-8,1,0,0,0,42,42,37,1,,,,,,,,
,,,,,,,,,,,,,FF,,,,,,,,1.867,,,,,,,,,,,,,,,,,,,,,,6101b6d51040dd4205b86c28,61036d06f428419531f2ed7c,2021-07-29_22h09.07.656,Simcolourproject_2stim_asymm_v5,2020.2.10,MacIntel,60,61025ae37ef11b136ea224fe,,,,,,,,,206,61,37,1,0,0,response1disk,,6,10,-8,1,0,0,rectangle,-64,36,1,0,0,3,2,1,0,0,0,43,43,2,1,,response7disk_3,TRUE,1,1,"[292,219,58,180,149,99,27,161,206,77,312,102,171,200,50,44,236,136,5,26]",1.716,rectangle
,,,,,,,,,,,,,FF,,,,,,,,1.2,,,,,,,,,,,,,,,,,,,,,,6101b6d51040dd4205b86c28,61036d06f428419531f2ed7c,2021-07-29_22h09.07.656,Simcolourproject_2stim_asymm_v5,2020.2.10,MacIntel,60,61025ae37ef11b136ea224fe,,,,,,,,,298,88,22,1,0,0,response1disk,,6,2,11,1,0,0,rectangle,2,11,1,0,0,2,11,1,0,0,0,44,44,4,1,,,,,,,,
,,,,,,,,,,,,,FF,,,,,,,,1.55,,,,,,,,,,,,,,,,,,,,,,6101b6d51040dd4205b86c28,61036d06f428419531f2ed7c,2021-07-29_22h09.07.656,Simcolourproject_2stim_asymm_v5,2020.2.10,MacIntel,60,61025ae37ef11b136ea224fe,,,,,,,,,1510,75,34,1,0,0,response1disk,,6,-18,-7,1,0,0,rectangle,-18,-7,1,0,0,-18,-7,1,0,0,0,45,45,98,1,,,,,,,,
,,,,,,,,,,,,,FF,,,,,,,,1.533,,,,,,,,,,,,,,,,,,,,,,6101b6d51040dd4205b86c28,61036d06f428419531f2ed7c,2021-07-29_22h09.07.656,Simcolourproject_2stim_asymm_v5,2020.2.10,MacIntel,60,61025ae37ef11b136ea224fe,,,,,,,,,3212,20,-64,1,0,0,response3disk,,4,-11,-3,1,0,0,rectangle,-11,-3,1,0,0,-11,-3,1,0,0,0,46,46,145,1,,,,,,,,
,,,,,,,,,,,,,FF,,,,,,,,1.367,,,,,,,,,,,,,,,,,,,,,,6101b6d51040dd4205b86c28,61036d06f428419531f2ed7c,2021-07-29_22h09.07.656,Simcolourproject_2stim_asymm_v5,2020.2.10,MacIntel,60,61025ae37ef11b136ea224fe,,,,,,,,,4277,67,-28,1,0,0,response3disk,,5,5,0,1,0,0,rectangle,5,0,1,0,0,5,0,1,0,0,0,47,47,36,1,,,,,,,,
,,,,,,,,,,,,,FF,,,,,,,,1.001,,,,,,,,,,,,,,,,,,,,,,6101b6d51040dd4205b86c28,61036d06f428419531f2ed7c,2021-07-29_22h09.07.656,Simcolourproject_2stim_asymm_v5,2020.2.10,MacIntel,60,61025ae37ef11b136ea224fe,,,,,,,,,3049,-28,-56,1,0,0,response5disk,,3,4,-8,1,0,0,rectangle,4,-8,1,0,0,4,-8,1,0,0,0,48,48,118,1,,,,,,,,
,,,,,,,,,,,,,FF,,,,,,,,1.782,,,,,,,,,,,,,,,,,,,,,,6101b6d51040dd4205b86c28,61036d06f428419531f2ed7c,2021-07-29_22h09.07.656,Simcolourproject_2stim_asymm_v5,2020.2.10,MacIntel,60,61025ae37ef11b136ea224fe,,,,,,,,,3076,66,19,1,0,0,response1disk,,6,17,17,1,0,0,rectangle,-80,-33,1,0,0,13,2,1,0,0,0,49,49,153,1,,response5disk_3,TRUE,2,2,"[292,219,58,180,149,99,27,161,206,77,312,102,171,200,50,44,236,136,5,26]",1.967,rectangle
,,,,,,,,,,,,,FF,,,,,,,,4.45,,,,,,,,,,,,,,,,,,,,,,6101b6d51040dd4205b86c28,61036d06f428419531f2ed7c,2021-07-29_22h09.07.656,Simcolourproject_2stim_asymm_v5,2020.2.10,MacIntel,60,61025ae37ef11b136ea224fe,,,,,,,,,3758,-55,-56,1,0,0,response5disk,,3,-6,17,1,0,0,rectangle,-6,17,1,0,0,-6,17,1,0,0,0,50,50,94,1,,,,,,,,
,,,,,,,,,,,,,FF,,,,,,,,18.269,,,,,,,,,,,,,,,,,,,,,,6101b6d51040dd4205b86c28,61036d06f428419531f2ed7c,2021-07-29_22h09.07.656,Simcolourproject_2stim_asymm_v5,2020.2.10,MacIntel,60,61025ae37ef11b136ea224fe,,,,,,,,,884,-52,-75,1,0,0,response5disk,,3,-16,-10,1,0,0,rectangle,-16,-10,1,0,0,-16,-10,1,0,0,0,51,51,106,1,,,,,,,,
,,,,,,,,,,,,,FF,,,,,,,,1.133,,,,,,,,,,,,,,,,,,,,,,6101b6d51040dd4205b86c28,61036d06f428419531f2ed7c,2021-07-29_22h09.07.656,Simcolourproject_2stim_asymm_v5,2020.2.10,MacIntel,60,61025ae37ef11b136ea224fe,,,,,,,,,2917,81,-43,1,0,0,response3disk,,5,15,-15,1,0,0,rectangle,15,-15,1,0,0,15,-15,1,0,0,0,52,52,124,1,,,,,,,,
,,,,,,,,,,,,,FF,,,,,,,,1.518,,,,,,,,,,,,,,,,,,,,,,6101b6d51040dd4205b86c28,61036d06f428419531f2ed7c,2021-07-29_22h09.07.656,Simcolourproject_2stim_asymm_v5,2020.2.10,MacIntel,60,61025ae37ef11b136ea224fe,,,,,,,,,1326,44,24,1,0,0,response1disk,,6,-8,3,1,0,0,rectangle,-8,3,1,0,0,-8,3,1,0,0,0,53,53,54,1,,,,,,,,
,,,,,,,,,,,,,FF,,,,,,,,0.934,,,,,,,,,,,,,,,,,,,,,,6101b6d51040dd4205b86c28,61036d06f428419531f2ed7c,2021-07-29_22h09.07.656,Simcolourproject_2stim_asymm_v5,2020.2.10,MacIntel,60,61025ae37ef11b136ea224fe,,,,,,,,,1908,38,-63,1,0,0,response3disk,,4,-5,-13,1,0,0,rectangle,-5,-13,1,0,0,-5,-13,1,0,0,0,54,54,141,1,,,,,,,,
,,,,,,,,,,,,,FF,,,,,,,,1.201,,,,,,,,,,,,,,,,,,,,,,6101b6d51040dd4205b86c28,61036d06f428419531f2ed7c,2021-07-29_22h09.07.656,Simcolourproject_2stim_asymm_v5,2020.2.10,MacIntel,60,61025ae37ef11b136ea224fe,,,,,,,,,1393,73,44,1,0,0,response1disk,,6,16,-4,1,0,0,rectangle,16,-4,1,0,0,16,-4,1,0,0,0,55,55,104,1,,,,,,,,
,,,,,,,,,,,,,FF,,,,,,,,0.85,,,,,,,,,,,,,,,,,,,,,,6101b6d51040dd4205b86c28,61036d06f428419531f2ed7c,2021-07-29_22h09.07.656,Simcolourproject_2stim_asymm_v5,2020.2.10,MacIntel,60,61025ae37ef11b136ea224fe,,,,,,,,,208,51,26,1,0,0,response1disk,,6,-5,3,1,0,0,rectangle,-5,3,1,0,0,-5,3,1,0,0,0,56,56,12,1,,,,,,,,
,,,,,,,,,,,,,FF,,,,,,,,1.733,,,,,,,,,,,,,,,,,,,,,,6101b6d51040dd4205b86c28,61036d06f428419531f2ed7c,2021-07-29_22h09.07.656,Simcolourproject_2stim_asymm_v5,2020.2.10,MacIntel,60,61025ae37ef11b136ea224fe,,,,,,,,,3485,73,43,1,0,0,response1disk,,6,14,-3,1,0,0,rectangle,-66,36,1,0,0,10,-2,1,0,0,0,57,57,90,1,,response7disk_3,TRUE,1,1,"[292,219,58,180,149,99,27,161,206,77,312,102,171,200,50,44,236,136,5,26]",1.584,rectangle
,,,,,,,,,,,,,FF,,,,,,,,1.167,,,,,,,,,,,,,,,,,,,,,,6101b6d51040dd4205b86c28,61036d06f428419531f2ed7c,2021-07-29_22h09.07.656,Simcolourproject_2stim_asymm_v5,2020.2.10,MacIntel,60,61025ae37ef11b136ea224fe,,,,,,,,,921,65,29,1,0,0,response1disk,,6,-3,7,1,0,0,rectangle,-3,7,1,0,0,-3,7,1,0,0,0,58,58,93,1,,,,,,,,
,,,,,,,,,,,,,FF,,,,,,,,0.949,,,,,,,,,,,,,,,,,,,,,,6101b6d51040dd4205b86c28,61036d06f428419531f2ed7c,2021-07-29_22h09.07.656,Simcolourproject_2stim_asymm_v5,2020.2.10,MacIntel,60,61025ae37ef11b136ea224fe,,,,,,,,,864,55,30,1,0,0,response1disk,,6,4,14,1,0,0,rectangle,4,14,1,0,0,4,14,1,0,0,0,59,59,22,1,,,,,,,,
,,,,,,,,,,,,,FF,,,,,,,,1.166,,,,,,,,,,,,,,,,,,,,,,6101b6d51040dd4205b86c28,61036d06f428419531f2ed7c,2021-07-29_22h09.07.656,Simcolourproject_2stim_asymm_v5,2020.2.10,MacIntel,60,61025ae37ef11b136ea224fe,,,,,,,,,1545,70,-31,1,0,0,response3disk,,5,2,-7,1,0,0,rectangle,2,-7,1,0,0,2,-7,1,0,0,0,60,60,133,1,,,,,,,,
,,,,,,,,,,,,,FF,,,,,,,,1.049,,,,,,,,,,,,,,,,,,,,,,6101b6d51040dd4205b86c28,61036d06f428419531f2ed7c,2021-07-29_22h09.07.656,Simcolourproject_2stim_asymm_v5,2020.2.10,MacIntel,60,61025ae37ef11b136ea224fe,,,,,,,,,2445,65,41,1,0,0,response1disk,,6,4,9,1,0,0,rectangle,4,9,1,0,0,4,9,1,0,0,0,61,61,136,1,,,,,,,,
,,,,,,,,,,,,,FF,,,,,,,,1.4,,,,,,,,,,,,,,,,,,,,,,6101b6d51040dd4205b86c28,61036d06f428419531f2ed7c,2021-07-29_22h09.07.656,Simcolourproject_2stim_asymm_v5,2020.2.10,MacIntel,60,61025ae37ef11b136ea224fe,,,,,,,,,763,75,-61,1,0,0,response3disk,,5,-2,-9,1,0,0,rectangle,-2,-9,1,0,0,-2,-9,1,0,0,0,62,62,159,1,,,,,,,,
,,,,,,,,,,,,,FF,,,,,,,,1.065,,,,,,,,,,,,,,,,,,,,,,6101b6d51040dd4205b86c28,61036d06f428419531f2ed7c,2021-07-29_22h09.07.656,Simcolourproject_2stim_asymm_v5,2020.2.10,MacIntel,60,61025ae37ef11b136ea224fe,,,,,,,,,1059,31,-68,1,0,0,response3disk,,4,-2,0,1,0,0,rectangle,-2,0,1,0,0,-2,0,1,0,0,0,63,63,131,1,,,,,,,,
,,,,,,,,,,,,,FF,,,,,,,,1.35,,,,,,,,,,,,,,,,,,,,,,6101b6d51040dd4205b86c28,61036d06f428419531f2ed7c,2021-07-29_22h09.07.656,Simcolourproject_2stim_asymm_v5,2020.2.10,MacIntel,60,61025ae37ef11b136ea224fe,,,,,,,,,2305,74,-44,1,0,0,response3disk,,5,1,-13,1,0,0,rectangle,1,-13,1,0,0,1,-13,1,0,0,0,64,64,81,1,,,,,,,,
,,,,,,,,,,,,,FF,,,,,,,,1.118,,,,,,,,,,,,,,,,,,,,,,6101b6d51040dd4205b86c28,61036d06f428419531f2ed7c,2021-07-29_22h09.07.656,Simcolourproject_2stim_asymm_v5,2020.2.10,MacIntel,60,61025ae37ef11b136ea224fe,,,,,,,,,1528,-55,-34,1,0,0,response5disk,,2,0,3,1,0,0,rectangle,0,3,1,0,0,0,3,1,0,0,0,65,65,45,1,,,,,,,,
,,,,,,,,,,,,,FF,,,,,,,,0.982,,,,,,,,,,,,,,,,,,,,,,6101b6d51040dd4205b86c28,61036d06f428419531f2ed7c,2021-07-29_22h09.07.656,Simcolourproject_2stim_asymm_v5,2020.2.10,MacIntel,60,61025ae37ef11b136ea224fe,,,,,,,,,2904,40,-71,1,0,0,response3disk,,4,11,-8,1,0,0,rectangle,11,-8,1,0,0,11,-8,1,0,0,0,66,66,56,1,,,,,,,,
,,,,,,,,,,,,,FF,,,,,,,,1.5,,,,,,,,,,,,,,,,,,,,,,6101b6d51040dd4205b86c28,61036d06f428419531f2ed7c,2021-07-29_22h09.07.656,Simcolourproject_2stim_asymm_v5,2020.2.10,MacIntel,60,61025ae37ef11b136ea224fe,,,,,,,,,902,46,-56,1,0,0,response3disk,,4,18,-8,1,0,0,rectangle,18,-8,1,0,0,18,-8,1,0,0,0,67,67,41,1,,,,,,,,
,,,,,,,,,,,,,FF,,,,,,,,1.233,,,,,,,,,,,,,,,,,,,,,,6101b6d51040dd4205b86c28,61036d06f428419531f2ed7c,2021-07-29_22h09.07.656,Simcolourproject_2stim_asymm_v5,2020.2.10,MacIntel,60,61025ae37ef11b136ea224fe,,,,,,,,,3330,-34,47,1,0,0,response7disk,,0,-16,-8,1,0,0,rectangle,-16,-8,1,0,0,-16,-8,1,0,0,0,68,68,154,1,,,,,,,,
,,,,,,,,,,,,,FF,,,,,,,,1.884,,,,,,,,,,,,,,,,,,,,,,6101b6d51040dd4205b86c28,61036d06f428419531f2ed7c,2021-07-29_22h09.07.656,Simcolourproject_2stim_asymm_v5,2020.2.10,MacIntel,60,61025ae37ef11b136ea224fe,,,,,,,,,2324,39,-77,1,0,0,response3disk,,4,15,-2,1,0,0,rectangle,15,-2,1,0,0,15,-2,1,0,0,0,69,69,24,1,,,,,,,,
,,,,,,,,,,,,,FF,,,,,,,,1.1,,,,,,,,,,,,,,,,,,,,,,6101b6d51040dd4205b86c28,61036d06f428419531f2ed7c,2021-07-29_22h09.07.656,Simcolourproject_2stim_asymm_v5,2020.2.10,MacIntel,60,61025ae37ef11b136ea224fe,,,,,,,,,440,-32,-74,1,0,0,response5disk,,3,4,3,1,0,0,rectangle,4,3,1,0,0,4,3,1,0,0,0,70,70,120,1,,,,,,,,
,,,,,,,,,,,,,FF,,,,,,,,0.9,,,,,,,,,,,,,,,,,,,,,,6101b6d51040dd4205b86c28,61036d06f428419531f2ed7c,2021-07-29_22h09.07.656,Simcolourproject_2stim_asymm_v5,2020.2.10,MacIntel,60,61025ae37ef11b136ea224fe,,,,,,,,,2639,76,-29,1,0,0,response3disk,,5,12,7,1,0,0,rectangle,12,7,1,0,0,12,7,1,0,0,0,71,71,0,1,,,,,,,,
,,,,,,,,,,,,,FF,,,,,,,,0.851,,,,,,,,,,,,,,,,,,,,,,6101b6d51040dd4205b86c28,61036d06f428419531f2ed7c,2021-07-29_22h09.07.656,Simcolourproject_2stim_asymm_v5,2020.2.10,MacIntel,60,61025ae37ef11b136ea224fe,,,,,,,,,1097,45,58,1,0,0,response1disk,,7,7,-5,1,0,0,rectangle,7,-5,1,0,0,7,-5,1,0,0,0,72,72,147,1,,,,,,,,
,,,,,,,,,,,,,FF,,,,,,,,1.199,,,,,,,,,,,,,,,,,,,,,,6101b6d51040dd4205b86c28,61036d06f428419531f2ed7c,2021-07-29_22h09.07.656,Simcolourproject_2stim_asymm_v5,2020.2.10,MacIntel,60,61025ae37ef11b136ea224fe,,,,,,,,,3455,66,26,1,0,0,response1disk,,6,5,5,1,0,0,rectangle,5,5,1,0,0,5,5,1,0,0,0,73,73,105,1,,,,,,,,
,,,,,,,,,,,,,FF,,,,,,,,1.202,,,,,,,,,,,,,,,,,,,,,,6101b6d51040dd4205b86c28,61036d06f428419531f2ed7c,2021-07-29_22h09.07.656,Simcolourproject_2stim_asymm_v5,2020.2.10,MacIntel,60,61025ae37ef11b136ea224fe,,,,,,,,,3487,43,-62,1,0,0,response3disk,,4,3,3,1,0,0,rectangle,3,3,1,0,0,3,3,1,0,0,0,74,74,73,1,,,,,,,,
,,,,,,,,,,,,,FF,,,,,,,,1.8,,,,,,,,,,,,,,,,,,,,,,6101b6d51040dd4205b86c28,61036d06f428419531f2ed7c,2021-07-29_22h09.07.656,Simcolourproject_2stim_asymm_v5,2020.2.10,MacIntel,60,61025ae37ef11b136ea224fe,,,,,,,,,3625,-77,-50,1,0,0,response5disk,,2,-2,7,1,0,0,rectangle,-2,7,1,0,0,-2,7,1,0,0,0,75,75,111,1,,,,,,,,
,,,,,,,,,,,,,FF,,,,,,,,1.018,,,,,,,,,,,,,,,,,,,,,,6101b6d51040dd4205b86c28,61036d06f428419531f2ed7c,2021-07-29_22h09.07.656,Simcolourproject_2stim_asymm_v5,2020.2.10,MacIntel,60,61025ae37ef11b136ea224fe,,,,,,,,,3222,38,-83,1,0,0,response3disk,,4,9,5,1,0,0,rectangle,-42,-80,1,0,0,-3,4,1,0,0,0,76,76,26,1,,response5disk_3,TRUE,3,3,"[292,219,58,180,149,99,27,161,206,77,312,102,171,200,50,44,236,136,5,26]",1.784,rectangle
,,,,,,,,,,,,,FF,,,,,,,,1.384,,,,,,,,,,,,,,,,,,,,,,6101b6d51040dd4205b86c28,61036d06f428419531f2ed7c,2021-07-29_22h09.07.656,Simcolourproject_2stim_asymm_v5,2020.2.10,MacIntel,60,61025ae37ef11b136ea224fe,,,,,,,,,4317,-55,24,1,0,0,response7disk,,1,-7,-1,1,0,0,rectangle,-7,-1,1,0,0,-7,-1,1,0,0,0,77,77,31,1,,,,,,,,
,,,,,,,,,,,,,FF,,,,,,,,1.134,,,,,,,,,,,,,,,,,,,,,,6101b6d51040dd4205b86c28,61036d06f428419531f2ed7c,2021-07-29_22h09.07.656,Simcolourproject_2stim_asymm_v5,2020.2.10,MacIntel,60,61025ae37ef11b136ea224fe,,,,,,,,,2691,70,49,1,0,0,response1disk,,6,0,2,1,0,0,rectangle,0,2,1,0,0,0,2,1,0,0,0,78,78,87,1,,,,,,,,
,,,,,,,,,,,,,FF,,,,,,,,1.016,,,,,,,,,,,,,,,,,,,,,,6101b6d51040dd4205b86c28,61036d06f428419531f2ed7c,2021-07-29_22h09.07.656,Simcolourproject_2stim_asymm_v5,2020.2.10,MacIntel,60,61025ae37ef11b136ea224fe,,,,,,,,,1783,74,20,1,0,0,response1disk,,6,-1,-5,1,0,0,rectangle,-1,-5,1,0,0,-1,-5,1,0,0,0,79,79,132,1,,,,,,,,
,,,,,,,,,,,,,FF,,,,,,,,0.8,,,,,,,,,,,,,,,,,,,,,,6101b6d51040dd4205b86c28,61036d06f428419531f2ed7c,2021-07-29_22h09.07.656,Simcolourproject_2stim_asymm_v5,2020.2.10,MacIntel,60,61025ae37ef11b136ea224fe,,,,,,,,,145,55,-23,1,0,0,response3disk,,5,6,6,1,0,0,rectangle,6,6,1,0,0,6,6,1,0,0,0,80,80,95,1,,,,,,,,
,,,,,,,,,,,,,FF,,,,,,,,1,,,,,,,,,,,,,,,,,,,,,,6101b6d51040dd4205b86c28,61036d06f428419531f2ed7c,2021-07-29_22h09.07.656,Simcolourproject_2stim_asymm_v5,2020.2.10,MacIntel,60,61025ae37ef11b136ea224fe,,,,,,,,,898,61,-35,1,0,0,response3disk,,5,11,-8,1,0,0,rectangle,11,-8,1,0,0,11,-8,1,0,0,0,81,81,43,1,,,,,,,,
,,,,,,,,,,,,,FF,,,,,,,,1.25,,,,,,,,,,,,,,,,,,,,,,6101b6d51040dd4205b86c28,61036d06f428419531f2ed7c,2021-07-29_22h09.07.656,Simcolourproject_2stim_asymm_v5,2020.2.10,MacIntel,60,61025ae37ef11b136ea224fe,,,,,,,,,1068,-27,-68,1,0,0,response5disk,,3,-2,-1,1,0,0,rectangle,-2,-1,1,0,0,-2,-1,1,0,0,0,82,82,143,1,,,,,,,,
,,,,,,,,,,,,,FF,,,,,,,,1.017,,,,,,,,,,,,,,,,,,,,,,6101b6d51040dd4205b86c28,61036d06f428419531f2ed7c,2021-07-29_22h09.07.656,Simcolourproject_2stim_asymm_v5,2020.2.10,MacIntel,60,61025ae37ef11b136ea224fe,,,,,,,,,3298,-62,22,1,0,0,response7disk,,1,-3,1,1,0,0,rectangle,-3,1,1,0,0,-3,1,1,0,0,0,83,83,85,1,,,,,,,,
,,,,,,,,,,,,,FF,,,,,,,,1.132,,,,,,,,,,,,,,,,,,,,,,6101b6d51040dd4205b86c28,61036d06f428419531f2ed7c,2021-07-29_22h09.07.656,Simcolourproject_2stim_asymm_v5,2020.2.10,MacIntel,60,61025ae37ef11b136ea224fe,,,,,,,,,4177,27,-70,1,0,0,response3disk,,4,16,-5,1,0,0,rectangle,16,-5,1,0,0,16,-5,1,0,0,0,84,84,75,1,,,,,,,,
,,,,,,,,,,,,,FF,,,,,,,,0.935,,,,,,,,,,,,,,,,,,,,,,6101b6d51040dd4205b86c28,61036d06f428419531f2ed7c,2021-07-29_22h09.07.656,Simcolourproject_2stim_asymm_v5,2020.2.10,MacIntel,60,61025ae37ef11b136ea224fe,,,,,,,,,3035,-35,66,1,0,0,response7disk,,0,-2,-8,1,0,0,rectangle,-2,-8,1,0,0,-2,-8,1,0,0,0,85,85,155,1,,,,,,,,
,,,,,,,,,,,,,FF,,,,,,,,2.1,,,,,,,,,,,,,,,,,,,,,,6101b6d51040dd4205b86c28,61036d06f428419531f2ed7c,2021-07-29_22h09.07.656,Simcolourproject_2stim_asymm_v5,2020.2.10,MacIntel,60,61025ae37ef11b136ea224fe,,,,,,,,,1226,-62,-24,1,0,0,response5disk,,2,-15,0,1,0,0,rectangle,-15,0,1,0,0,-15,0,1,0,0,0,86,86,146,1,,,,,,,,
,,,,,,,,,,,,,FF,,,,,,,,1.335,,,,,,,,,,,,,,,,,,,,,,6101b6d51040dd4205b86c28,61036d06f428419531f2ed7c,2021-07-29_22h09.07.656,Simcolourproject_2stim_asymm_v5,2020.2.10,MacIntel,60,61025ae37ef11b136ea224fe,,,,,,,,,4044,91,-30,1,0,0,response3disk,,5,17,-2,1,0,0,rectangle,17,-2,1,0,0,17,-2,1,0,0,0,87,87,150,1,,,,,,,,
,,,,,,,,,,,,,FF,,,,,,,,1.035,,,,,,,,,,,,,,,,,,,,,,6101b6d51040dd4205b86c28,61036d06f428419531f2ed7c,2021-07-29_22h09.07.656,Simcolourproject_2stim_asymm_v5,2020.2.10,MacIntel,60,61025ae37ef11b136ea224fe,,,,,,,,,1369,-27,-78,1,0,0,response5disk,,3,17,-10,1,0,0,rectangle,17,-10,1,0,0,17,-10,1,0,0,0,88,88,121,1,,,,,,,,
,,,,,,,,,,,,,FF,,,,,,,,1.05,,,,,,,,,,,,,,,,,,,,,,6101b6d51040dd4205b86c28,61036d06f428419531f2ed7c,2021-07-29_22h09.07.656,Simcolourproject_2stim_asymm_v5,2020.2.10,MacIntel,60,61025ae37ef11b136ea224fe,,,,,,,,,345,-54,-34,1,0,0,response5disk,,2,-5,-13,1,0,0,rectangle,-5,-13,1,0,0,-5,-13,1,0,0,0,89,89,144,1,,,,,,,,
,,,,,,,,,,,,,FF,,,,,,,,0.95,,,,,,,,,,,,,,,,,,,,,,6101b6d51040dd4205b86c28,61036d06f428419531f2ed7c,2021-07-29_22h09.07.656,Simcolourproject_2stim_asymm_v5,2020.2.10,MacIntel,60,61025ae37ef11b136ea224fe,,,,,,,,,3350,-38,55,1,0,0,response7disk,,0,-19,-1,1,0,0,rectangle,-19,-1,1,0,0,-19,-1,1,0,0,0,90,90,108,1,,,,,,,,
,,,,,,,,,,,,,FF,,,,,,,,0.9,,,,,,,,,,,,,,,,,,,,,,6101b6d51040dd4205b86c28,61036d06f428419531f2ed7c,2021-07-29_22h09.07.656,Simcolourproject_2stim_asymm_v5,2020.2.10,MacIntel,60,61025ae37ef11b136ea224fe,,,,,,,,,27,44,-60,1,0,0,response3disk,,4,15,0,1,0,0,rectangle,15,0,1,0,0,15,0,1,0,0,0,91,91,117,1,,,,,,,,
,,,,,,,,,,,,,FF,,,,,,,,1.217,,,,,,,,,,,,,,,,,,,,,,6101b6d51040dd4205b86c28,61036d06f428419531f2ed7c,2021-07-29_22h09.07.656,Simcolourproject_2stim_asymm_v5,2020.2.10,MacIntel,60,61025ae37ef11b136ea224fe,,,,,,,,,1249,27,-58,1,0,0,response3disk,,4,12,-2,1,0,0,rectangle,12,-2,1,0,0,12,-2,1,0,0,0,92,92,137,1,,,,,,,,
,,,,,,,,,,,,,FF,,,,,,,,0.817,,,,,,,,,,,,,,,,,,,,,,6101b6d51040dd4205b86c28,61036d06f428419531f2ed7c,2021-07-29_22h09.07.656,Simcolourproject_2stim_asymm_v5,2020.2.10,MacIntel,60,61025ae37ef11b136ea224fe,,,,,,,,,2465,65,-38,1,0,0,response3disk,,5,13,2,1,0,0,rectangle,13,2,1,0,0,13,2,1,0,0,0,93,93,14,1,,,,,,,,
,,,,,,,,,,,,,FF,,,,,,,,1.25,,,,,,,,,,,,,,,,,,,,,,6101b6d51040dd4205b86c28,61036d06f428419531f2ed7c,2021-07-29_22h09.07.656,Simcolourproject_2stim_asymm_v5,2020.2.10,MacIntel,60,61025ae37ef11b136ea224fe,,,,,,,,,513,32,-51,1,0,0,response3disk,,4,10,1,1,0,0,rectangle,10,1,1,0,0,10,1,1,0,0,0,94,94,47,1,,,,,,,,
,,,,,,,,,,,,,FF,,,,,,,,0.816,,,,,,,,,,,,,,,,,,,,,,6101b6d51040dd4205b86c28,61036d06f428419531f2ed7c,2021-07-29_22h09.07.656,Simcolourproject_2stim_asymm_v5,2020.2.10,MacIntel,60,61025ae37ef11b136ea224fe,,,,,,,,,845,70,31,1,0,0,response1disk,,6,18,15,1,0,0,rectangle,18,15,1,0,0,18,15,1,0,0,0,95,95,53,1,,,,,,,,
,,,,,,,,,,,,,FF,,,,,,,,1.767,,,,,,,,,,,,,,,,,,,,,,6101b6d51040dd4205b86c28,61036d06f428419531f2ed7c,2021-07-29_22h09.07.656,Simcolourproject_2stim_asymm_v5,2020.2.10,MacIntel,60,61025ae37ef11b136ea224fe,,,,,,,,,3525,58,-49,1,0,0,response3disk,,5,17,2,1,0,0,rectangle,17,2,1,0,0,17,2,1,0,0,0,96,96,11,1,,,,,,,,
,,,,,,,,,,,,,FF,,,,,,,,0.9,,,,,,,,,,,,,,,,,,,,,,6101b6d51040dd4205b86c28,61036d06f428419531f2ed7c,2021-07-29_22h09.07.656,Simcolourproject_2stim_asymm_v5,2020.2.10,MacIntel,60,61025ae37ef11b136ea224fe,,,,,,,,,677,55,-24,1,0,0,response3disk,,5,0,2,1,0,0,rectangle,0,2,1,0,0,0,2,1,0,0,0,97,97,16,1,,,,,,,,
,,,,,,,,,,,,,FF,,,,,,,,1.017,,,,,,,,,,,,,,,,,,,,,,6101b6d51040dd4205b86c28,61036d06f428419531f2ed7c,2021-07-29_22h09.07.656,Simcolourproject_2stim_asymm_v5,2020.2.10,MacIntel,60,61025ae37ef11b136ea224fe,,,,,,,,,3784,34,-57,1,0,0,response3disk,,4,-1,-8,1,0,0,rectangle,-59,91,1,0,0,-13,7,1,0,0,0,98,98,79,1,,response7disk_3,TRUE,0,0,"[292,219,58,180,149,99,27,161,206,77,312,102,171,200,50,44,236,136,5,26]",1.817,rectangle
,,,,,,,,,,,,,FF,,,,,,,,1.167,,,,,,,,,,,,,,,,,,,,,,6101b6d51040dd4205b86c28,61036d06f428419531f2ed7c,2021-07-29_22h09.07.656,Simcolourproject_2stim_asymm_v5,2020.2.10,MacIntel,60,61025ae37ef11b136ea224fe,,,,,,,,,2177,-30,-50,1,0,0,response5disk,,3,-13,1,1,0,0,rectangle,-13,1,1,0,0,-13,1,1,0,0,0,99,99,122,1,,,,,,,,
,,,,,,,,,,,,,FF,,,,,,,,0.783,,,,,,,,,,,,,,,,,,,,,,6101b6d51040dd4205b86c28,61036d06f428419531f2ed7c,2021-07-29_22h09.07.656,Simcolourproject_2stim_asymm_v5,2020.2.10,MacIntel,60,61025ae37ef11b136ea224fe,,,,,,,,,2022,29,-51,1,0,0,response3disk,,4,14,-4,1,0,0,rectangle,14,-4,1,0,0,14,-4,1,0,0,0,100,100,135,1,,,,,,,,
,,,,,,,,,,,,,FF,,,,,,,,1.283,,,,,,,,,,,,,,,,,,,,,,6101b6d51040dd4205b86c28,61036d06f428419531f2ed7c,2021-07-29_22h09.07.656,Simcolourproject_2stim_asymm_v5,2020.2.10,MacIntel,60,61025ae37ef11b136ea224fe,,,,,,,,,423,-57,-77,1,0,0,response5disk,,3,-3,2,1,0,0,rectangle,-36,-76,1,0,0,0,1,1,0,0,0,101,101,57,1,,response5disk_3,TRUE,3,3,"[292,219,58,180,149,99,27,161,206,77,312,102,171,200,50,44,236,136,5,26]",1.7,rectangle
,,,,,,,,,,,,,FF,,,,,,,,1.384,,,,,,,,,,,,,,,,,,,,,,6101b6d51040dd4205b86c28,61036d06f428419531f2ed7c,2021-07-29_22h09.07.656,Simcolourproject_2stim_asymm_v5,2020.2.10,MacIntel,60,61025ae37ef11b136ea224fe,,,,,,,,,4012,40,-97,1,0,0,response3disk,,4,2,-2,1,0,0,rectangle,2,-2,1,0,0,2,-2,1,0,0,0,102,102,129,1,,,,,,,,
,,,,,,,,,,,,,FF,,,,,,,,0.883,,,,,,,,,,,,,,,,,,,,,,6101b6d51040dd4205b86c28,61036d06f428419531f2ed7c,2021-07-29_22h09.07.656,Simcolourproject_2stim_asymm_v5,2020.2.10,MacIntel,60,61025ae37ef11b136ea224fe,,,,,,,,,1445,-32,75,1,0,0,response7disk,,0,-2,10,1,0,0,rectangle,-2,10,1,0,0,-2,10,1,0,0,0,103,103,20,1,,,,,,,,
,,,,,,,,,,,,,FF,,,,,,,,0.95,,,,,,,,,,,,,,,,,,,,,,6101b6d51040dd4205b86c28,61036d06f428419531f2ed7c,2021-07-29_22h09.07.656,Simcolourproject_2stim_asymm_v5,2020.2.10,MacIntel,60,61025ae37ef11b136ea224fe,,,,,,,,,1500,47,-44,1,0,0,response3disk,,5,15,14,1,0,0,rectangle,15,14,1,0,0,15,14,1,0,0,0,104,104,158,1,,,,,,,,
,,,,,,,,,,,,,FF,,,,,,,,0.85,,,,,,,,,,,,,,,,,,,,,,6101b6d51040dd4205b86c28,61036d06f428419531f2ed7c,2021-07-29_22h09.07.656,Simcolourproject_2stim_asymm_v5,2020.2.10,MacIntel,60,61025ae37ef11b136ea224fe,,,,,,,,,2884,33,-63,1,0,0,response3disk,,4,3,5,1,0,0,rectangle,3,5,1,0,0,3,5,1,0,0,0,105,105,76,1,,,,,,,,
,,,,,,,,,,,,,FF,,,,,,,,0.917,,,,,,,,,,,,,,,,,,,,,,6101b6d51040dd4205b86c28,61036d06f428419531f2ed7c,2021-07-29_22h09.07.656,Simcolourproject_2stim_asymm_v5,2020.2.10,MacIntel,60,61025ae37ef11b136ea224fe,,,,,,,,,3710,-29,-56,1,0,0,response5disk,,3,4,1,1,0,0,rectangle,4,1,1,0,0,4,1,1,0,0,0,106,106,114,1,,,,,,,,
,,,,,,,,,,,,,FF,,,,,,,,0.9,,,,,,,,,,,,,,,,,,,,,,6101b6d51040dd4205b86c28,61036d06f428419531f2ed7c,2021-07-29_22h09.07.656,Simcolourproject_2stim_asymm_v5,2020.2.10,MacIntel,60,61025ae37ef11b136ea224fe,,,,,,,,,3637,-32,77,1,0,0,response7disk,,0,-14,-2,1,0,0,rectangle,-14,-2,1,0,0,-14,-2,1,0,0,0,107,107,151,1,,,,,,,,
,,,,,,,,,,,,,FF,,,,,,,,0.75,,,,,,,,,,,,,,,,,,,,,,6101b6d51040dd4205b86c28,61036d06f428419531f2ed7c,2021-07-29_22h09.07.656,Simcolourproject_2stim_asymm_v5,2020.2.10,MacIntel,60,61025ae37ef11b136ea224fe,,,,,,,,,1695,-28,-48,1,0,0,response5disk,,3,-21,-10,1,0,0,rectangle,-21,-10,1,0,0,-21,-10,1,0,0,0,108,108,32,1,,,,,,,,
,,,,,,,,,,,,,FF,,,,,,,,1.1,,,,,,,,,,,,,,,,,,,,,,6101b6d51040dd4205b86c28,61036d06f428419531f2ed7c,2021-07-29_22h09.07.656,Simcolourproject_2stim_asymm_v5,2020.2.10,MacIntel,60,61025ae37ef11b136ea224fe,,,,,,,,,3515,-44,-62,1,0,0,response5disk,,3,-10,-8,1,0,0,rectangle,-10,-8,1,0,0,-10,-8,1,0,0,0,109,109,3,1,,,,,,,,
,,,,,,,,,,,,,FF,,,,,,,,0.717,,,,,,,,,,,,,,,,,,,,,,6101b6d51040dd4205b86c28,61036d06f428419531f2ed7c,2021-07-29_22h09.07.656,Simcolourproject_2stim_asymm_v5,2020.2.10,MacIntel,60,61025ae37ef11b136ea224fe,,,,,,,,,3987,46,-60,1,0,0,response3disk,,4,33,8,1,0,0,rectangle,33,8,1,0,0,33,8,1,0,0,0,110,110,152,1,,,,,,,,
,,,,,,,,,,,,,FF,,,,,,,,0.683,,,,,,,,,,,,,,,,,,,,,,6101b6d51040dd4205b86c28,61036d06f428419531f2ed7c,2021-07-29_22h09.07.656,Simcolourproject_2stim_asymm_v5,2020.2.10,MacIntel,60,61025ae37ef11b136ea224fe,,,,,,,,,1857,71,-30,1,0,0,response3disk,,5,22,-2,1,0,0,rectangle,22,-2,1,0,0,22,-2,1,0,0,0,111,111,30,1,,,,,,,,
,,,,,,,,,,,,,FF,,,,,,,,0.799,,,,,,,,,,,,,,,,,,,,,,6101b6d51040dd4205b86c28,61036d06f428419531f2ed7c,2021-07-29_22h09.07.656,Simcolourproject_2stim_asymm_v5,2020.2.10,MacIntel,60,61025ae37ef11b136ea224fe,,,,,,,,,1944,53,41,1,0,0,response1disk,,6,10,-5,1,0,0,rectangle,10,-5,1,0,0,10,-5,1,0,0,0,112,112,110,1,,,,,,,,
,,,,,,,,,,,,,FF,,,,,,,,0.667,,,,,,,,,,,,,,,,,,,,,,6101b6d51040dd4205b86c28,61036d06f428419531f2ed7c,2021-07-29_22h09.07.656,Simcolourproject_2stim_asymm_v5,2020.2.10,MacIntel,60,61025ae37ef11b136ea224fe,,,,,,,,,2601,-36,63,1,0,0,response7disk,,0,-16,7,1,0,0,rectangle,-16,7,1,0,0,-16,7,1,0,0,0,113,113,149,1,,,,,,,,
,,,,,,,,,,,,,FF,,,,,,,,1.183,,,,,,,,,,,,,,,,,,,,,,6101b6d51040dd4205b86c28,61036d06f428419531f2ed7c,2021-07-29_22h09.07.656,Simcolourproject_2stim_asymm_v5,2020.2.10,MacIntel,60,61025ae37ef11b136ea224fe,,,,,,,,,1996,66,-21,1,0,0,response3disk,,5,2,6,1,0,0,rectangle,2,6,1,0,0,2,6,1,0,0,0,114,114,5,1,,,,,,,,
,,,,,,,,,,,,,FF,,,,,,,,0.767,,,,,,,,,,,,,,,,,,,,,,6101b6d51040dd4205b86c28,61036d06f428419531f2ed7c,2021-07-29_22h09.07.656,Simcolourproject_2stim_asymm_v5,2020.2.10,MacIntel,60,61025ae37ef11b136ea224fe,,,,,,,,,3074,48,-36,1,0,0,response3disk,,5,-2,-1,1,0,0,rectangle,-2,-1,1,0,0,-2,-1,1,0,0,0,115,115,115,1,,,,,,,,
,,,,,,,,,,,,,FF,,,,,,,,0.8,,,,,,,,,,,,,,,,,,,,,,6101b6d51040dd4205b86c28,61036d06f428419531f2ed7c,2021-07-29_22h09.07.656,Simcolourproject_2stim_asymm_v5,2020.2.10,MacIntel,60,61025ae37ef11b136ea224fe,,,,,,,,,3672,-34,-61,1,0,0,response5disk,,3,10,-7,1,0,0,rectangle,10,-7,1,0,0,10,-7,1,0,0,0,116,116,50,1,,,,,,,,
,,,,,,,,,,,,,FF,,,,,,,,0.768,,,,,,,,,,,,,,,,,,,,,,6101b6d51040dd4205b86c28,61036d06f428419531f2ed7c,2021-07-29_22h09.07.656,Simcolourproject_2stim_asymm_v5,2020.2.10,MacIntel,60,61025ae37ef11b136ea224fe,,,,,,,,,818,52,-33,1,0,0,response3disk,,5,8,-6,1,0,0,rectangle,8,-6,1,0,0,8,-6,1,0,0,0,117,117,134,1,,,,,,,,
,,,,,,,,,,,,,FF,,,,,,,,1.016,,,,,,,,,,,,,,,,,,,,,,6101b6d51040dd4205b86c28,61036d06f428419531f2ed7c,2021-07-29_22h09.07.656,Simcolourproject_2stim_asymm_v5,2020.2.10,MacIntel,60,61025ae37ef11b136ea224fe,,,,,,,,,1475,-20,-51,1,0,0,response5disk,,3,10,-10,1,0,0,rectangle,10,-10,1,0,0,10,-10,1,0,0,0,118,118,29,1,,,,,,,,
,,,,,,,,,,,,,FF,,,,,,,,0.751,,,,,,,,,,,,,,,,,,,,,,6101b6d51040dd4205b86c28,61036d06f428419531f2ed7c,2021-07-29_22h09.07.656,Simcolourproject_2stim_asymm_v5,2020.2.10,MacIntel,60,61025ae37ef11b136ea224fe,,,,,,,,,1353,63,-45,1,0,0,response3disk,,5,-1,-4,1,0,0,rectangle,-1,-4,1,0,0,-1,-4,1,0,0,0,119,119,89,1,,,,,,,,
,,,,,,,,,,,,,FF,,,,,,,,0.984,,,,,,,,,,,,,,,,,,,,,,6101b6d51040dd4205b86c28,61036d06f428419531f2ed7c,2021-07-29_22h09.07.656,Simcolourproject_2stim_asymm_v5,2020.2.10,MacIntel,60,61025ae37ef11b136ea224fe,,,,,,,,,3759,43,-57,1,0,0,response3disk,,4,6,-13,1,0,0,rectangle,6,-13,1,0,0,6,-13,1,0,0,0,120,120,82,1,,,,,,,,
,,,,,,,,,,,,,FF,,,,,,,,1.034,,,,,,,,,,,,,,,,,,,,,,6101b6d51040dd4205b86c28,61036d06f428419531f2ed7c,2021-07-29_22h09.07.656,Simcolourproject_2stim_asymm_v5,2020.2.10,MacIntel,60,61025ae37ef11b136ea224fe,,,,,,,,,318,62,-51,1,0,0,response3disk,,5,9,-13,1,0,0,rectangle,9,-13,1,0,0,9,-13,1,0,0,0,121,121,130,1,,,,,,,,
,,,,,,,,,,,,,FF,,,,,,,,1.184,,,,,,,,,,,,,,,,,,,,,,6101b6d51040dd4205b86c28,61036d06f428419531f2ed7c,2021-07-29_22h09.07.656,Simcolourproject_2stim_asymm_v5,2020.2.10,MacIntel,60,61025ae37ef11b136ea224fe,,,,,,,,,2180,-53,-70,1,0,0,response5disk,,3,-24,-3,1,0,0,rectangle,-24,-3,1,0,0,-24,-3,1,0,0,0,122,122,6,1,,,,,,,,
,,,,,,,,,,,,,FF,,,,,,,,0.683,,,,,,,,,,,,,,,,,,,,,,6101b6d51040dd4205b86c28,61036d06f428419531f2ed7c,2021-07-29_22h09.07.656,Simcolourproject_2stim_asymm_v5,2020.2.10,MacIntel,60,61025ae37ef11b136ea224fe,,,,,,,,,3488,51,-60,1,0,0,response3disk,,4,14,-7,1,0,0,rectangle,14,-7,1,0,0,14,-7,1,0,0,0,123,123,64,1,,,,,,,,
,,,,,,,,,,,,,FF,,,,,,,,0.65,,,,,,,,,,,,,,,,,,,,,,6101b6d51040dd4205b86c28,61036d06f428419531f2ed7c,2021-07-29_22h09.07.656,Simcolourproject_2stim_asymm_v5,2020.2.10,MacIntel,60,61025ae37ef11b136ea224fe,,,,,,,,,648,65,-47,1,0,0,response3disk,,5,10,-7,1,0,0,rectangle,10,-7,1,0,0,10,-7,1,0,0,0,124,124,142,1,,,,,,,,
,,,,,,,,,,,,,FF,,,,,,,,0.984,,,,,,,,,,,,,,,,,,,,,,6101b6d51040dd4205b86c28,61036d06f428419531f2ed7c,2021-07-29_22h09.07.656,Simcolourproject_2stim_asymm_v5,2020.2.10,MacIntel,60,61025ae37ef11b136ea224fe,,,,,,,,,2172,-28,-57,1,0,0,response5disk,,3,-4,14,1,0,0,rectangle,-4,14,1,0,0,-4,14,1,0,0,0,125,125,33,1,,,,,,,,
,,,,,,,,,,,,,FF,,,,,,,,0.8,,,,,,,,,,,,,,,,,,,,,,6101b6d51040dd4205b86c28,61036d06f428419531f2ed7c,2021-07-29_22h09.07.656,Simcolourproject_2stim_asymm_v5,2020.2.10,MacIntel,60,61025ae37ef11b136ea224fe,,,,,,,,,1887,27,-77,1,0,0,response3disk,,4,2,-3,1,0,0,rectangle,2,-3,1,0,0,2,-3,1,0,0,0,126,126,74,1,,,,,,,,
,,,,,,,,,,,,,FF,,,,,,,,0.883,,,,,,,,,,,,,,,,,,,,,,6101b6d51040dd4205b86c28,61036d06f428419531f2ed7c,2021-07-29_22h09.07.656,Simcolourproject_2stim_asymm_v5,2020.2.10,MacIntel,60,61025ae37ef11b136ea224fe,,,,,,,,,4168,-28,50,1,0,0,response7disk,,0,-3,8,1,0,0,rectangle,-3,8,1,0,0,-3,8,1,0,0,0,127,127,55,1,,,,,,,,
,,,,,,,,,,,,,FF,,,,,,,,0.733,,,,,,,,,,,,,,,,,,,,,,6101b6d51040dd4205b86c28,61036d06f428419531f2ed7c,2021-07-29_22h09.07.656,Simcolourproject_2stim_asymm_v5,2020.2.10,MacIntel,60,61025ae37ef11b136ea224fe,,,,,,,,,3217,-23,-52,1,0,0,response5disk,,3,-15,-4,1,0,0,rectangle,-15,-4,1,0,0,-15,-4,1,0,0,0,128,128,63,1,,,,,,,,
,,,,,,,,,,,,,FF,,,,,,,,1.816,,,,,,,,,,,,,,,,,,,,,,6101b6d51040dd4205b86c28,61036d06f428419531f2ed7c,2021-07-29_22h09.07.656,Simcolourproject_2stim_asymm_v5,2020.2.10,MacIntel,60,61025ae37ef11b136ea224fe,,,,,,,,,3897,-44,-39,1,0,0,response5disk,,2,-24,-12,1,0,0,rectangle,-24,-12,1,0,0,-24,-12,1,0,0,0,129,129,107,1,,,,,,,,
,,,,,,,,,,,,,FF,,,,,,,,0.835,,,,,,,,,,,,,,,,,,,,,,6101b6d51040dd4205b86c28,61036d06f428419531f2ed7c,2021-07-29_22h09.07.656,Simcolourproject_2stim_asymm_v5,2020.2.10,MacIntel,60,61025ae37ef11b136ea224fe,,,,,,,,,769,81,-44,1,0,0,response3disk,,5,32,-7,1,0,0,rectangle,32,-7,1,0,0,32,-7,1,0,0,0,130,130,1,1,,,,,,,,
,,,,,,,,,,,,,FF,,,,,,,,1.2,,,,,,,,,,,,,,,,,,,,,,6101b6d51040dd4205b86c28,61036d06f428419531f2ed7c,2021-07-29_22h09.07.656,Simcolourproject_2stim_asymm_v5,2020.2.10,MacIntel,60,61025ae37ef11b136ea224fe,,,,,,,,,3521,-26,-65,1,0,0,response5disk,,3,-12,15,1,0,0,rectangle,-12,15,1,0,0,-12,15,1,0,0,0,131,131,35,1,,,,,,,,
,,,,,,,,,,,,,FF,,,,,,,,0.766,,,,,,,,,,,,,,,,,,,,,,6101b6d51040dd4205b86c28,61036d06f428419531f2ed7c,2021-07-29_22h09.07.656,Simcolourproject_2stim_asymm_v5,2020.2.10,MacIntel,60,61025ae37ef11b136ea224fe,,,,,,,,,3514,-31,-82,1,0,0,response5disk,,3,-15,1,1,0,0,rectangle,-15,1,1,0,0,-15,1,1,0,0,0,132,132,109,1,,,,,,,,
,,,,,,,,,,,,,FF,,,,,,,,1.318,,,,,,,,,,,,,,,,,,,,,,6101b6d51040dd4205b86c28,61036d06f428419531f2ed7c,2021-07-29_22h09.07.656,Simcolourproject_2stim_asymm_v5,2020.2.10,MacIntel,60,61025ae37ef11b136ea224fe,,,,,,,,,3618,76,-36,1,0,0,response3disk,,5,-9,11,1,0,0,rectangle,-9,11,1,0,0,-9,11,1,0,0,0,133,133,148,1,,,,,,,,
,,,,,,,,,,,,,FF,,,,,,,,1.082,,,,,,,,,,,,,,,,,,,,,,6101b6d51040dd4205b86c28,61036d06f428419531f2ed7c,2021-07-29_22h09.07.656,Simcolourproject_2stim_asymm_v5,2020.2.10,MacIntel,60,61025ae37ef11b136ea224fe,,,,,,,,,99,-33,60,1,0,0,response7disk,,0,1,6,1,0,0,rectangle,1,6,1,0,0,1,6,1,0,0,0,134,134,72,1,,,,,,,,
,,,,,,,,,,,,,FF,,,,,,,,0.667,,,,,,,,,,,,,,,,,,,,,,6101b6d51040dd4205b86c28,61036d06f428419531f2ed7c,2021-07-29_22h09.07.656,Simcolourproject_2stim_asymm_v5,2020.2.10,MacIntel,60,61025ae37ef11b136ea224fe,,,,,,,,,4266,-25,44,1,0,0,response7disk,,0,-12,8,1,0,0,rectangle,-67,-47,1,0,0,1,-2,1,0,0,0,135,135,92,1,,response5disk_3,TRUE,2,2,"[292,219,58,180,149,99,27,161,206,77,312,102,171,200,50,44,236,136,5,26]",1.734,rectangle
,,,,,,,,,,,,,FF,,,,,,,,1.166,,,,,,,,,,,,,,,,,,,,,,6101b6d51040dd4205b86c28,61036d06f428419531f2ed7c,2021-07-29_22h09.07.656,Simcolourproject_2stim_asymm_v5,2020.2.10,MacIntel,60,61025ae37ef11b136ea224fe,,,,,,,,,3434,-38,53,1,0,0,response7disk,,0,-13,2,1,0,0,rectangle,-13,2,1,0,0,-13,2,1,0,0,0,136,136,99,1,,,,,,,,
,,,,,,,,,,,,,FF,,,,,,,,1.049,,,,,,,,,,,,,,,,,,,,,,6101b6d51040dd4205b86c28,61036d06f428419531f2ed7c,2021-07-29_22h09.07.656,Simcolourproject_2stim_asymm_v5,2020.2.10,MacIntel,60,61025ae37ef11b136ea224fe,,,,,,,,,1322,57,59,1,0,0,response1disk,,7,-7,4,1,0,0,rectangle,-7,4,1,0,0,-7,4,1,0,0,0,137,137,7,1,,,,,,,,
,,,,,,,,,,,,,FF,,,,,,,,0.817,,,,,,,,,,,,,,,,,,,,,,6101b6d51040dd4205b86c28,61036d06f428419531f2ed7c,2021-07-29_22h09.07.656,Simcolourproject_2stim_asymm_v5,2020.2.10,MacIntel,60,61025ae37ef11b136ea224fe,,,,,,,,,2259,52,32,1,0,0,response1disk,,6,7,7,1,0,0,rectangle,7,7,1,0,0,7,7,1,0,0,0,138,138,38,1,,,,,,,,
,,,,,,,,,,,,,FF,,,,,,,,1.433,,,,,,,,,,,,,,,,,,,,,,6101b6d51040dd4205b86c28,61036d06f428419531f2ed7c,2021-07-29_22h09.07.656,Simcolourproject_2stim_asymm_v5,2020.2.10,MacIntel,60,61025ae37ef11b136ea224fe,,,,,,,,,3349,79,-47,1,0,0,response3disk,,5,-2,-13,1,0,0,rectangle,-2,-13,1,0,0,-2,-13,1,0,0,0,139,139,123,1,,,,,,,,
,,,,,,,,,,,,,FF,,,,,,,,1.084,,,,,,,,,,,,,,,,,,,,,,6101b6d51040dd4205b86c28,61036d06f428419531f2ed7c,2021-07-29_22h09.07.656,Simcolourproject_2stim_asymm_v5,2020.2.10,MacIntel,60,61025ae37ef11b136ea224fe,,,,,,,,,311,40,-59,1,0,0,response3disk,,4,7,-2,1,0,0,rectangle,7,-2,1,0,0,7,-2,1,0,0,0,140,140,113,1,,,,,,,,
,,,,,,,,,,,,,FF,,,,,,,,0.933,,,,,,,,,,,,,,,,,,,,,,6101b6d51040dd4205b86c28,61036d06f428419531f2ed7c,2021-07-29_22h09.07.656,Simcolourproject_2stim_asymm_v5,2020.2.10,MacIntel,60,61025ae37ef11b136ea224fe,,,,,,,,,2091,71,-30,1,0,0,response3disk,,5,17,-2,1,0,0,rectangle,17,-2,1,0,0,17,-2,1,0,0,0,141,141,71,1,,,,,,,,
,,,,,,,,,,,,,FF,,,,,,,,0.9,,,,,,,,,,,,,,,,,,,,,,6101b6d51040dd4205b86c28,61036d06f428419531f2ed7c,2021-07-29_22h09.07.656,Simcolourproject_2stim_asymm_v5,2020.2.10,MacIntel,60,61025ae37ef11b136ea224fe,,,,,,,,,2129,55,-37,1,0,0,response3disk,,5,19,2,1,0,0,rectangle,19,2,1,0,0,19,2,1,0,0,0,142,142,23,1,,,,,,,,
,,,,,,,,,,,,,FF,,,,,,,,0.633,,,,,,,,,,,,,,,,,,,,,,6101b6d51040dd4205b86c28,61036d06f428419531f2ed7c,2021-07-29_22h09.07.656,Simcolourproject_2stim_asymm_v5,2020.2.10,MacIntel,60,61025ae37ef11b136ea224fe,,,,,,,,,2347,63,-45,1,0,0,response3disk,,5,22,-7,1,0,0,rectangle,22,-7,1,0,0,22,-7,1,0,0,0,143,143,44,1,,,,,,,,
,,,,,,,,,,,,,FF,,,,,,,,0.699,,,,,,,,,,,,,,,,,,,,,,6101b6d51040dd4205b86c28,61036d06f428419531f2ed7c,2021-07-29_22h09.07.656,Simcolourproject_2stim_asymm_v5,2020.2.10,MacIntel,60,61025ae37ef11b136ea224fe,,,,,,,,,995,55,-32,1,0,0,response3disk,,5,10,-1,1,0,0,rectangle,10,-1,1,0,0,10,-1,1,0,0,0,144,144,139,1,,,,,,,,
,,,,,,,,,,,,,FF,,,,,,,,0.934,,,,,,,,,,,,,,,,,,,,,,6101b6d51040dd4205b86c28,61036d06f428419531f2ed7c,2021-07-29_22h09.07.656,Simcolourproject_2stim_asymm_v5,2020.2.10,MacIntel,60,61025ae37ef11b136ea224fe,,,,,,,,,3660,-29,43,1,0,0,response7disk,,0,3,5,1,0,0,rectangle,3,5,1,0,0,3,5,1,0,0,0,145,145,10,1,,,,,,,,
,,,,,,,,,,,,,FF,,,,,,,,1.549,,,,,,,,,,,,,,,,,,,,,,6101b6d51040dd4205b86c28,61036d06f428419531f2ed7c,2021-07-29_22h09.07.656,Simcolourproject_2stim_asymm_v5,2020.2.10,MacIntel,60,61025ae37ef11b136ea224fe,,,,,,,,,1625,-51,27,1,0,0,response7disk,,1,-18,0,1,0,0,rectangle,-18,0,1,0,0,-18,0,1,0,0,0,146,146,28,1,,,,,,,,
,,,,,,,,,,,,,FF,,,,,,,,2.699,,,,,,,,,,,,,,,,,,,,,,6101b6d51040dd4205b86c28,61036d06f428419531f2ed7c,2021-07-29_22h09.07.656,Simcolourproject_2stim_asymm_v5,2020.2.10,MacIntel,60,61025ae37ef11b136ea224fe,,,,,,,,,4053,-40,-87,1,0,0,response5disk,,3,-2,2,1,0,0,rectangle,-2,2,1,0,0,-2,2,1,0,0,0,147,147,61,1,,,,,,,,
,,,,,,,,,,,,,FF,,,,,,,,1.534,,,,,,,,,,,,,,,,,,,,,,6101b6d51040dd4205b86c28,61036d06f428419531f2ed7c,2021-07-29_22h09.07.656,Simcolourproject_2stim_asymm_v5,2020.2.10,MacIntel,60,61025ae37ef11b136ea224fe,,,,,,,,,2505,62,-22,1,0,0,response3disk,,5,6,4,1,0,0,rectangle,22,-71,1,0,0,-3,-5,1,0,0,0,148,148,83,1,,response3disk_3,TRUE,4,4,"[292,219,58,180,149,99,27,161,206,77,312,102,171,200,50,44,236,136,5,26]",1.868,rectangle
,,,,,,,,,,,,,FF,,,,,,,,0.9,,,,,,,,,,,,,,,,,,,,,,6101b6d51040dd4205b86c28,61036d06f428419531f2ed7c,2021-07-29_22h09.07.656,Simcolourproject_2stim_asymm_v5,2020.2.10,MacIntel,60,61025ae37ef11b136ea224fe,,,,,,,,,4362,-35,68,1,0,0,response7disk,,0,-10,14,1,0,0,rectangle,-10,14,1,0,0,-10,14,1,0,0,0,149,149,127,1,,,,,,,,
,,,,,,,,,,,,,FF,,,,,,,,1.017,,,,,,,,,,,,,,,,,,,,,,6101b6d51040dd4205b86c28,61036d06f428419531f2ed7c,2021-07-29_22h09.07.656,Simcolourproject_2stim_asymm_v5,2020.2.10,MacIntel,60,61025ae37ef11b136ea224fe,,,,,,,,,1482,71,-17,1,0,0,response3disk,,5,7,7,1,0,0,rectangle,7,7,1,0,0,7,7,1,0,0,0,150,150,157,1,,,,,,,,
,,,,,,,,,,,,,FF,,,,,,,,0.899,,,,,,,,,,,,,,,,,,,,,,6101b6d51040dd4205b86c28,61036d06f428419531f2ed7c,2021-07-29_22h09.07.656,Simcolourproject_2stim_asymm_v5,2020.2.10,MacIntel,60,61025ae37ef11b136ea224fe,,,,,,,,,2965,37,-58,1,0,0,response3disk,,4,11,-10,1,0,0,rectangle,11,-10,1,0,0,11,-10,1,0,0,0,151,151,100,1,,,,,,,,
,,,,,,,,,,,,,FF,,,,,,,,0.935,,,,,,,,,,,,,,,,,,,,,,6101b6d51040dd4205b86c28,61036d06f428419531f2ed7c,2021-07-29_22h09.07.656,Simcolourproject_2stim_asymm_v5,2020.2.10,MacIntel,60,61025ae37ef11b136ea224fe,,,,,,,,,3553,-27,-47,1,0,0,response5disk,,3,6,-6,1,0,0,rectangle,6,-6,1,0,0,6,-6,1,0,0,0,152,152,102,1,,,,,,,,
,,,,,,,,,,,,,FF,,,,,,,,0.767,,,,,,,,,,,,,,,,,,,,,,6101b6d51040dd4205b86c28,61036d06f428419531f2ed7c,2021-07-29_22h09.07.656,Simcolourproject_2stim_asymm_v5,2020.2.10,MacIntel,60,61025ae37ef11b136ea224fe,,,,,,,,,1147,49,-61,1,0,0,response3disk,,4,1,-4,1,0,0,rectangle,1,-4,1,0,0,1,-4,1,0,0,0,153,153,51,1,,,,,,,,
,,,,,,,,,,,,,FF,,,,,,,,0.633,,,,,,,,,,,,,,,,,,,,,,6101b6d51040dd4205b86c28,61036d06f428419531f2ed7c,2021-07-29_22h09.07.656,Simcolourproject_2stim_asymm_v5,2020.2.10,MacIntel,60,61025ae37ef11b136ea224fe,,,,,,,,,1124,-24,-36,1,0,0,response5disk,,3,-12,4,1,0,0,rectangle,-12,4,1,0,0,-12,4,1,0,0,0,154,154,39,1,,,,,,,,
,,,,,,,,,,,,,FF,,,,,,,,1.081,,,,,,,,,,,,,,,,,,,,,,6101b6d51040dd4205b86c28,61036d06f428419531f2ed7c,2021-07-29_22h09.07.656,Simcolourproject_2stim_asymm_v5,2020.2.10,MacIntel,60,61025ae37ef11b136ea224fe,,,,,,,,,3924,-28,69,1,0,0,response7disk,,0,-5,6,1,0,0,rectangle,-5,6,1,0,0,-5,6,1,0,0,0,155,155,13,1,,,,,,,,
,,,,,,,,,,,,,FF,,,,,,,,1.2,,,,,,,,,,,,,,,,,,,,,,6101b6d51040dd4205b86c28,61036d06f428419531f2ed7c,2021-07-29_22h09.07.656,Simcolourproject_2stim_asymm_v5,2020.2.10,MacIntel,60,61025ae37ef11b136ea224fe,,,,,,,,,2689,62,23,1,0,0,response1disk,,6,7,-8,1,0,0,rectangle,7,-8,1,0,0,7,-8,1,0,0,0,156,156,70,1,,,,,,,,
,,,,,,,,,,,,,FF,,,,,,,,1.984,,,,,,,,,,,,,,,,,,,,,,6101b6d51040dd4205b86c28,61036d06f428419531f2ed7c,2021-07-29_22h09.07.656,Simcolourproject_2stim_asymm_v5,2020.2.10,MacIntel,60,61025ae37ef11b136ea224fe,,,,,,,,,3859,51,-82,1,0,0,response3disk,,4,12,-5,1,0,0,rectangle,12,-5,1,0,0,12,-5,1,0,0,0,157,157,68,1,,,,,,,,
,,,,,,,,,,,,,FF,,,,,,,,1.301,,,,,,,,,,,,,,,,,,,,,,6101b6d51040dd4205b86c28,61036d06f428419531f2ed7c,2021-07-29_22h09.07.656,Simcolourproject_2stim_asymm_v5,2020.2.10,MacIntel,60,61025ae37ef11b136ea224fe,,,,,,,,,4283,-29,-54,1,0,0,response5disk,,3,-21,13,1,0,0,rectangle,-21,13,1,0,0,-21,13,1,0,0,0,158,158,8,1,,,,,,,,
,,,,,,,,,,,,,FF,,,,,,,,0.833,,,,,,,,,,,,,,,,,,,,,,6101b6d51040dd4205b86c28,61036d06f428419531f2ed7c,2021-07-29_22h09.07.656,Simcolourproject_2stim_asymm_v5,2020.2.10,MacIntel,60,61025ae37ef11b136ea224fe,,,,,,,,,4175,43,-56,1,0,0,response3disk,,4,17,-9,1,0,0,rectangle,17,-9,1,0,0,17,-9,1,0,0,0,159,159,116,1,,,,,,,,
,,,,,,,,,,,,,FF,,,,,,,,0.716,,,,,,,,,,,,,,,,,,,,,,6101b6d51040dd4205b86c28,61036d06f428419531f2ed7c,2021-07-29_22h09.07.656,Simcolourproject_2stim_asymm_v5,2020.2.10,MacIntel,60,61025ae37ef11b136ea224fe,,,,,,,,,1367,61,-32,1,0,0,response3disk,,5,19,-2,1,0,0,rectangle,-88,40,1,0,0,1,4,1,0,0,1,0,160,131,1,,response7disk_3,TRUE,1,1,"[292,219,58,180,149,99,27,161,206,77,312,102,171,200,50,44,236,136,5,26]",1.951,rectangle
,,,,,,,,,,,,,FF,,,,,,,,0.851,,,,,,,,,,,,,,,,,,,,,,6101b6d51040dd4205b86c28,61036d06f428419531f2ed7c,2021-07-29_22h09.07.656,Simcolourproject_2stim_asymm_v5,2020.2.10,MacIntel,60,61025ae37ef11b136ea224fe,,,,,,,,,3198,-21,-51,1,0,0,response5disk,,3,-19,3,1,0,0,rectangle,-19,3,1,0,0,-19,3,1,0,0,1,1,161,96,1,,,,,,,,
,,,,,,,,,,,,,FF,,,,,,,,0.668,,,,,,,,,,,,,,,,,,,,,,6101b6d51040dd4205b86c28,61036d06f428419531f2ed7c,2021-07-29_22h09.07.656,Simcolourproject_2stim_asymm_v5,2020.2.10,MacIntel,60,61025ae37ef11b136ea224fe,,,,,,,,,108,-37,-51,1,0,0,response5disk,,3,-24,-3,1,0,0,rectangle,-24,-3,1,0,0,-24,-3,1,0,0,1,2,162,51,1,,,,,,,,
,,,,,,,,,,,,,FF,,,,,,,,0.717,,,,,,,,,,,,,,,,,,,,,,6101b6d51040dd4205b86c28,61036d06f428419531f2ed7c,2021-07-29_22h09.07.656,Simcolourproject_2stim_asymm_v5,2020.2.10,MacIntel,60,61025ae37ef11b136ea224fe,,,,,,,,,2615,-27,44,1,0,0,response7disk,,0,-2,1,1,0,0,rectangle,-2,1,1,0,0,-2,1,1,0,0,1,3,163,124,1,,,,,,,,
,,,,,,,,,,,,,FF,,,,,,,,0.967,,,,,,,,,,,,,,,,,,,,,,6101b6d51040dd4205b86c28,61036d06f428419531f2ed7c,2021-07-29_22h09.07.656,Simcolourproject_2stim_asymm_v5,2020.2.10,MacIntel,60,61025ae37ef11b136ea224fe,,,,,,,,,1523,-59,33,1,0,0,response7disk,,1,-14,10,1,0,0,rectangle,-14,10,1,0,0,-14,10,1,0,0,1,4,164,8,1,,,,,,,,
,,,,,,,,,,,,,FF,,,,,,,,1.082,,,,,,,,,,,,,,,,,,,,,,6101b6d51040dd4205b86c28,61036d06f428419531f2ed7c,2021-07-29_22h09.07.656,Simcolourproject_2stim_asymm_v5,2020.2.10,MacIntel,60,61025ae37ef11b136ea224fe,,,,,,,,,3926,67,-70,1,0,0,response3disk,,4,17,-10,1,0,0,rectangle,17,-10,1,0,0,17,-10,1,0,0,1,5,165,126,1,,,,,,,,
,,,,,,,,,,,,,FF,,,,,,,,1.266,,,,,,,,,,,,,,,,,,,,,,6101b6d51040dd4205b86c28,61036d06f428419531f2ed7c,2021-07-29_22h09.07.656,Simcolourproject_2stim_asymm_v5,2020.2.10,MacIntel,60,61025ae37ef11b136ea224fe,,,,,,,,,180,41,69,1,0,0,response1disk,,7,19,-9,1,0,0,rectangle,19,-9,1,0,0,19,-9,1,0,0,1,6,166,36,1,,,,,,,,
,,,,,,,,,,,,,FF,,,,,,,,1.067,,,,,,,,,,,,,,,,,,,,,,6101b6d51040dd4205b86c28,61036d06f428419531f2ed7c,2021-07-29_22h09.07.656,Simcolourproject_2stim_asymm_v5,2020.2.10,MacIntel,60,61025ae37ef11b136ea224fe,,,,,,,,,454,23,40,1,0,0,response1disk,,7,12,-9,1,0,0,rectangle,12,-9,1,0,0,12,-9,1,0,0,1,7,167,99,1,,,,,,,,
,,,,,,,,,,,,,FF,,,,,,,,0.968,,,,,,,,,,,,,,,,,,,,,,6101b6d51040dd4205b86c28,61036d06f428419531f2ed7c,2021-07-29_22h09.07.656,Simcolourproject_2stim_asymm_v5,2020.2.10,MacIntel,60,61025ae37ef11b136ea224fe,,,,,,,,,1864,37,-23,1,0,0,response3disk,,5,2,7,1,0,0,rectangle,2,7,1,0,0,2,7,1,0,0,1,8,168,110,1,,,,,,,,
,,,,,,,,,,,,,FF,,,,,,,,1.117,,,,,,,,,,,,,,,,,,,,,,6101b6d51040dd4205b86c28,61036d06f428419531f2ed7c,2021-07-29_22h09.07.656,Simcolourproject_2stim_asymm_v5,2020.2.10,MacIntel,60,61025ae37ef11b136ea224fe,,,,,,,,,2370,42,65,1,0,0,response1disk,,7,15,7,1,0,0,rectangle,15,7,1,0,0,15,7,1,0,0,1,9,169,47,1,,,,,,,,
,,,,,,,,,,,,,FF,,,,,,,,0.717,,,,,,,,,,,,,,,,,,,,,,6101b6d51040dd4205b86c28,61036d06f428419531f2ed7c,2021-07-29_22h09.07.656,Simcolourproject_2stim_asymm_v5,2020.2.10,MacIntel,60,61025ae37ef11b136ea224fe,,,,,,,,,2139,52,-25,1,0,0,response3disk,,5,8,10,1,0,0,rectangle,-55,-39,1,0,0,2,-3,1,0,0,1,10,170,100,1,,response5disk_3,TRUE,2,2,"[292,219,58,180,149,99,27,161,206,77,312,102,171,200,50,44,236,136,5,26]",1.649,rectangle
,,,,,,,,,,,,,FF,,,,,,,,0.901,,,,,,,,,,,,,,,,,,,,,,6101b6d51040dd4205b86c28,61036d06f428419531f2ed7c,2021-07-29_22h09.07.656,Simcolourproject_2stim_asymm_v5,2020.2.10,MacIntel,60,61025ae37ef11b136ea224fe,,,,,,,,,1125,-30,-59,1,0,0,response5disk,,3,6,5,1,0,0,rectangle,6,5,1,0,0,6,5,1,0,0,1,11,171,72,1,,,,,,,,
,,,,,,,,,,,,,FF,,,,,,,,0.767,,,,,,,,,,,,,,,,,,,,,,6101b6d51040dd4205b86c28,61036d06f428419531f2ed7c,2021-07-29_22h09.07.656,Simcolourproject_2stim_asymm_v5,2020.2.10,MacIntel,60,61025ae37ef11b136ea224fe,,,,,,,,,767,54,-22,1,0,0,response3disk,,5,18,14,1,0,0,rectangle,18,14,1,0,0,18,14,1,0,0,1,12,172,81,1,,,,,,,,
,,,,,,,,,,,,,FF,,,,,,,,0.916,,,,,,,,,,,,,,,,,,,,,,6101b6d51040dd4205b86c28,61036d06f428419531f2ed7c,2021-07-29_22h09.07.656,Simcolourproject_2stim_asymm_v5,2020.2.10,MacIntel,60,61025ae37ef11b136ea224fe,,,,,,,,,3868,29,-43,1,0,0,response3disk,,4,18,-6,1,0,0,rectangle,18,-6,1,0,0,18,-6,1,0,0,1,13,173,94,1,,,,,,,,
,,,,,,,,,,,,,FF,,,,,,,,0.634,,,,,,,,,,,,,,,,,,,,,,6101b6d51040dd4205b86c28,61036d06f428419531f2ed7c,2021-07-29_22h09.07.656,Simcolourproject_2stim_asymm_v5,2020.2.10,MacIntel,60,61025ae37ef11b136ea224fe,,,,,,,,,1903,32,-71,1,0,0,response3disk,,4,20,-11,1,0,0,rectangle,20,-11,1,0,0,20,-11,1,0,0,1,14,174,16,1,,,,,,,,
,,,,,,,,,,,,,FF,,,,,,,,0.766,,,,,,,,,,,,,,,,,,,,,,6101b6d51040dd4205b86c28,61036d06f428419531f2ed7c,2021-07-29_22h09.07.656,Simcolourproject_2stim_asymm_v5,2020.2.10,MacIntel,60,61025ae37ef11b136ea224fe,,,,,,,,,466,64,-35,1,0,0,response3disk,,5,0,-5,1,0,0,rectangle,0,-5,1,0,0,0,-5,1,0,0,1,15,175,116,1,,,,,,,,
,,,,,,,,,,,,,FF,,,,,,,,0.6,,,,,,,,,,,,,,,,,,,,,,6101b6d51040dd4205b86c28,61036d06f428419531f2ed7c,2021-07-29_22h09.07.656,Simcolourproject_2stim_asymm_v5,2020.2.10,MacIntel,60,61025ae37ef11b136ea224fe,,,,,,,,,4215,61,-27,1,0,0,response3disk,,5,5,3,1,0,0,rectangle,5,3,1,0,0,5,3,1,0,0,1,16,176,61,1,,,,,,,,
,,,,,,,,,,,,,FF,,,,,,,,0.966,,,,,,,,,,,,,,,,,,,,,,6101b6d51040dd4205b86c28,61036d06f428419531f2ed7c,2021-07-29_22h09.07.656,Simcolourproject_2stim_asymm_v5,2020.2.10,MacIntel,60,61025ae37ef11b136ea224fe,,,,,,,,,3645,59,46,1,0,0,response1disk,,6,-3,-3,1,0,0,rectangle,-3,-3,1,0,0,-3,-3,1,0,0,1,17,177,145,1,,,,,,,,
,,,,,,,,,,,,,FF,,,,,,,,0.566,,,,,,,,,,,,,,,,,,,,,,6101b6d51040dd4205b86c28,61036d06f428419531f2ed7c,2021-07-29_22h09.07.656,Simcolourproject_2stim_asymm_v5,2020.2.10,MacIntel,60,61025ae37ef11b136ea224fe,,,,,,,,,101,60,29,1,0,0,response1disk,,6,16,5,1,0,0,rectangle,16,5,1,0,0,16,5,1,0,0,1,18,178,82,1,,,,,,,,
,,,,,,,,,,,,,FF,,,,,,,,0.783,,,,,,,,,,,,,,,,,,,,,,6101b6d51040dd4205b86c28,61036d06f428419531f2ed7c,2021-07-29_22h09.07.656,Simcolourproject_2stim_asymm_v5,2020.2.10,MacIntel,60,61025ae37ef11b136ea224fe,,,,,,,,,3475,-21,59,1,0,0,response7disk,,0,-1,-3,1,0,0,rectangle,36,-88,1,0,0,11,-3,1,0,0,1,19,179,158,1,,response3disk_3,TRUE,4,4,"[292,219,58,180,149,99,27,161,206,77,312,102,171,200,50,44,236,136,5,26]",1.817,rectangle
,,,,,,,,,,,,,FF,,,,,,,,1.315,,,,,,,,,,,,,,,,,,,,,,6101b6d51040dd4205b86c28,61036d06f428419531f2ed7c,2021-07-29_22h09.07.656,Simcolourproject_2stim_asymm_v5,2020.2.10,MacIntel,60,61025ae37ef11b136ea224fe,,,,,,,,,2045,27,-61,1,0,0,response3disk,,4,4,-13,1,0,0,rectangle,4,-13,1,0,0,4,-13,1,0,0,1,20,180,79,1,,,,,,,,
,,,,,,,,,,,,,FF,,,,,,,,0.733,,,,,,,,,,,,,,,,,,,,,,6101b6d51040dd4205b86c28,61036d06f428419531f2ed7c,2021-07-29_22h09.07.656,Simcolourproject_2stim_asymm_v5,2020.2.10,MacIntel,60,61025ae37ef11b136ea224fe,,,,,,,,,1199,36,-51,1,0,0,response3disk,,4,22,-10,1,0,0,rectangle,22,-10,1,0,0,22,-10,1,0,0,1,21,181,111,1,,,,,,,,
,,,,,,,,,,,,,FF,,,,,,,,0.75,,,,,,,,,,,,,,,,,,,,,,6101b6d51040dd4205b86c28,61036d06f428419531f2ed7c,2021-07-29_22h09.07.656,Simcolourproject_2stim_asymm_v5,2020.2.10,MacIntel,60,61025ae37ef11b136ea224fe,,,,,,,,,2254,49,-26,1,0,0,response3disk,,5,23,1,1,0,0,rectangle,23,1,1,0,0,23,1,1,0,0,1,22,182,137,1,,,,,,,,
,,,,,,,,,,,,,FF,,,,,,,,0.567,,,,,,,,,,,,,,,,,,,,,,6101b6d51040dd4205b86c28,61036d06f428419531f2ed7c,2021-07-29_22h09.07.656,Simcolourproject_2stim_asymm_v5,2020.2.10,MacIntel,60,61025ae37ef11b136ea224fe,,,,,,,,,2672,55,-30,1,0,0,response3disk,,5,25,-11,1,0,0,rectangle,25,-11,1,0,0,25,-11,1,0,0,1,23,183,40,1,,,,,,,,
,,,,,,,,,,,,,FF,,,,,,,,0.6,,,,,,,,,,,,,,,,,,,,,,6101b6d51040dd4205b86c28,61036d06f428419531f2ed7c,2021-07-29_22h09.07.656,Simcolourproject_2stim_asymm_v5,2020.2.10,MacIntel,60,61025ae37ef11b136ea224fe,,,,,,,,,3829,51,-37,1,0,0,response3disk,,5,7,-1,1,0,0,rectangle,7,-1,1,0,0,7,-1,1,0,0,1,24,184,87,1,,,,,,,,
,,,,,,,,,,,,,FF,,,,,,,,0.85,,,,,,,,,,,,,,,,,,,,,,6101b6d51040dd4205b86c28,61036d06f428419531f2ed7c,2021-07-29_22h09.07.656,Simcolourproject_2stim_asymm_v5,2020.2.10,MacIntel,60,61025ae37ef11b136ea224fe,,,,,,,,,2033,-17,49,1,0,0,response7disk,,0,-9,-1,1,0,0,rectangle,-9,-1,1,0,0,-9,-1,1,0,0,1,25,185,92,1,,,,,,,,
,,,,,,,,,,,,,FF,,,,,,,,1.384,,,,,,,,,,,,,,,,,,,,,,6101b6d51040dd4205b86c28,61036d06f428419531f2ed7c,2021-07-29_22h09.07.656,Simcolourproject_2stim_asymm_v5,2020.2.10,MacIntel,60,61025ae37ef11b136ea224fe,,,,,,,,,2609,56,16,1,0,0,response1disk,,6,-2,-15,1,0,0,rectangle,-2,-15,1,0,0,-2,-15,1,0,0,1,26,186,25,1,,,,,,,,
,,,,,,,,,,,,,FF,,,,,,,,0.85,,,,,,,,,,,,,,,,,,,,,,6101b6d51040dd4205b86c28,61036d06f428419531f2ed7c,2021-07-29_22h09.07.656,Simcolourproject_2stim_asymm_v5,2020.2.10,MacIntel,60,61025ae37ef11b136ea224fe,,,,,,,,,4226,25,-51,1,0,0,response3disk,,4,9,-6,1,0,0,rectangle,9,-6,1,0,0,9,-6,1,0,0,1,27,187,135,1,,,,,,,,
,,,,,,,,,,,,,FF,,,,,,,,0.667,,,,,,,,,,,,,,,,,,,,,,6101b6d51040dd4205b86c28,61036d06f428419531f2ed7c,2021-07-29_22h09.07.656,Simcolourproject_2stim_asymm_v5,2020.2.10,MacIntel,60,61025ae37ef11b136ea224fe,,,,,,,,,2648,-19,-54,1,0,0,response5disk,,3,-7,9,1,0,0,rectangle,-7,9,1,0,0,-7,9,1,0,0,1,28,188,115,1,,,,,,,,
,,,,,,,,,,,,,FF,,,,,,,,0.734,,,,,,,,,,,,,,,,,,,,,,6101b6d51040dd4205b86c28,61036d06f428419531f2ed7c,2021-07-29_22h09.07.656,Simcolourproject_2stim_asymm_v5,2020.2.10,MacIntel,60,61025ae37ef11b136ea224fe,,,,,,,,,1582,-35,-49,1,0,0,response5disk,,3,-14,1,1,0,0,rectangle,-14,1,1,0,0,-14,1,1,0,0,1,29,189,123,1,,,,,,,,
,,,,,,,,,,,,,FF,,,,,,,,0.735,,,,,,,,,,,,,,,,,,,,,,6101b6d51040dd4205b86c28,61036d06f428419531f2ed7c,2021-07-29_22h09.07.656,Simcolourproject_2stim_asymm_v5,2020.2.10,MacIntel,60,61025ae37ef11b136ea224fe,,,,,,,,,2352,26,-48,1,0,0,response3disk,,4,8,-4,1,0,0,rectangle,8,-4,1,0,0,8,-4,1,0,0,1,30,190,130,1,,,,,,,,
,,,,,,,,,,,,,FF,,,,,,,,0.617,,,,,,,,,,,,,,,,,,,,,,6101b6d51040dd4205b86c28,61036d06f428419531f2ed7c,2021-07-29_22h09.07.656,Simcolourproject_2stim_asymm_v5,2020.2.10,MacIntel,60,61025ae37ef11b136ea224fe,,,,,,,,,2765,53,-31,1,0,0,response3disk,,5,8,4,1,0,0,rectangle,8,4,1,0,0,8,4,1,0,0,1,31,191,157,1,,,,,,,,
,,,,,,,,,,,,,FF,,,,,,,,0.684,,,,,,,,,,,,,,,,,,,,,,6101b6d51040dd4205b86c28,61036d06f428419531f2ed7c,2021-07-29_22h09.07.656,Simcolourproject_2stim_asymm_v5,2020.2.10,MacIntel,60,61025ae37ef11b136ea224fe,,,,,,,,,1423,60,33,1,0,0,response1disk,,6,1,0,1,0,0,rectangle,1,0,1,0,0,1,0,1,0,0,1,32,192,86,1,,,,,,,,
,,,,,,,,,,,,,FF,,,,,,,,1.101,,,,,,,,,,,,,,,,,,,,,,6101b6d51040dd4205b86c28,61036d06f428419531f2ed7c,2021-07-29_22h09.07.656,Simcolourproject_2stim_asymm_v5,2020.2.10,MacIntel,60,61025ae37ef11b136ea224fe,,,,,,,,,3305,-23,-59,1,0,0,response5disk,,3,-14,1,1,0,0,rectangle,-14,1,1,0,0,-14,1,1,0,0,1,33,193,22,1,,,,,,,,
,,,,,,,,,,,,,FF,,,,,,,,0.734,,,,,,,,,,,,,,,,,,,,,,6101b6d51040dd4205b86c28,61036d06f428419531f2ed7c,2021-07-29_22h09.07.656,Simcolourproject_2stim_asymm_v5,2020.2.10,MacIntel,60,61025ae37ef11b136ea224fe,,,,,,,,,1610,-33,60,1,0,0,response7disk,,0,-9,4,1,0,0,rectangle,-9,4,1,0,0,-9,4,1,0,0,1,34,194,113,1,,,,,,,,
,,,,,,,,,,,,,FF,,,,,,,,1.533,,,,,,,,,,,,,,,,,,,,,,6101b6d51040dd4205b86c28,61036d06f428419531f2ed7c,2021-07-29_22h09.07.656,Simcolourproject_2stim_asymm_v5,2020.2.10,MacIntel,60,61025ae37ef11b136ea224fe,,,,,,,,,1434,-35,-77,1,0,0,response5disk,,3,-9,-4,1,0,0,rectangle,-9,-4,1,0,0,-9,-4,1,0,0,1,35,195,32,1,,,,,,,,
,,,,,,,,,,,,,FF,,,,,,,,1.082,,,,,,,,,,,,,,,,,,,,,,6101b6d51040dd4205b86c28,61036d06f428419531f2ed7c,2021-07-29_22h09.07.656,Simcolourproject_2stim_asymm_v5,2020.2.10,MacIntel,60,61025ae37ef11b136ea224fe,,,,,,,,,3700,-35,78,1,0,0,response7disk,,0,18,4,1,0,0,rectangle,18,4,1,0,0,18,4,1,0,0,1,36,196,66,1,,,,,,,,
,,,,,,,,,,,,,FF,,,,,,,,1.034,,,,,,,,,,,,,,,,,,,,,,6101b6d51040dd4205b86c28,61036d06f428419531f2ed7c,2021-07-29_22h09.07.656,Simcolourproject_2stim_asymm_v5,2020.2.10,MacIntel,60,61025ae37ef11b136ea224fe,,,,,,,,,3863,42,-63,1,0,0,response3disk,,4,18,0,1,0,0,rectangle,18,0,1,0,0,18,0,1,0,0,1,37,197,76,1,,,,,,,,
,,,,,,,,,,,,,FF,,,,,,,,1.1,,,,,,,,,,,,,,,,,,,,,,6101b6d51040dd4205b86c28,61036d06f428419531f2ed7c,2021-07-29_22h09.07.656,Simcolourproject_2stim_asymm_v5,2020.2.10,MacIntel,60,61025ae37ef11b136ea224fe,,,,,,,,,3968,-28,-50,1,0,0,response5disk,,3,11,11,1,0,0,rectangle,11,11,1,0,0,11,11,1,0,0,1,38,198,142,1,,,,,,,,
,,,,,,,,,,,,,FF,,,,,,,,1.166,,,,,,,,,,,,,,,,,,,,,,6101b6d51040dd4205b86c28,61036d06f428419531f2ed7c,2021-07-29_22h09.07.656,Simcolourproject_2stim_asymm_v5,2020.2.10,MacIntel,60,61025ae37ef11b136ea224fe,,,,,,,,,1732,65,-23,1,0,0,response3disk,,5,21,1,1,0,0,rectangle,-26,-66,1,0,0,8,-2,1,0,0,1,39,199,4,1,,response5disk_3,TRUE,3,3,"[292,219,58,180,149,99,27,161,206,77,312,102,171,200,50,44,236,136,5,26]",1.5,rectangle
,,,,,,,,,,,,,FF,,,,,,,,1.467,,,,,,,,,,,,,,,,,,,,,,6101b6d51040dd4205b86c28,61036d06f428419531f2ed7c,2021-07-29_22h09.07.656,Simcolourproject_2stim_asymm_v5,2020.2.10,MacIntel,60,61025ae37ef11b136ea224fe,,,,,,,,,2545,-62,-38,1,0,0,response5disk,,2,0,-4,1,0,0,rectangle,0,-4,1,0,0,0,-4,1,0,0,1,40,200,93,1,,,,,,,,
,,,,,,,,,,,,,FF,,,,,,,,0.866,,,,,,,,,,,,,,,,,,,,,,6101b6d51040dd4205b86c28,61036d06f428419531f2ed7c,2021-07-29_22h09.07.656,Simcolourproject_2stim_asymm_v5,2020.2.10,MacIntel,60,61025ae37ef11b136ea224fe,,,,,,,,,3780,-48,-35,1,0,0,response5disk,,2,-1,-13,1,0,0,rectangle,-1,-13,1,0,0,-1,-13,1,0,0,1,41,201,155,1,,,,,,,,
,,,,,,,,,,,,,FF,,,,,,,,1.1,,,,,,,,,,,,,,,,,,,,,,6101b6d51040dd4205b86c28,61036d06f428419531f2ed7c,2021-07-29_22h09.07.656,Simcolourproject_2stim_asymm_v5,2020.2.10,MacIntel,60,61025ae37ef11b136ea224fe,,,,,,,,,3463,38,83,1,0,0,response1disk,,7,-1,-3,1,0,0,rectangle,-1,-3,1,0,0,-1,-3,1,0,0,1,42,202,119,1,,,,,,,,
,,,,,,,,,,,,,FF,,,,,,,,1.05,,,,,,,,,,,,,,,,,,,,,,6101b6d51040dd4205b86c28,61036d06f428419531f2ed7c,2021-07-29_22h09.07.656,Simcolourproject_2stim_asymm_v5,2020.2.10,MacIntel,60,61025ae37ef11b136ea224fe,,,,,,,,,206,-27,-50,1,0,0,response5disk,,3,-6,15,1,0,0,rectangle,-6,15,1,0,0,-6,15,1,0,0,1,43,203,147,1,,,,,,,,
,,,,,,,,,,,,,FF,,,,,,,,0.668,,,,,,,,,,,,,,,,,,,,,,6101b6d51040dd4205b86c28,61036d06f428419531f2ed7c,2021-07-29_22h09.07.656,Simcolourproject_2stim_asymm_v5,2020.2.10,MacIntel,60,61025ae37ef11b136ea224fe,,,,,,,,,298,-40,-65,1,0,0,response5disk,,3,-11,9,1,0,0,rectangle,-11,9,1,0,0,-11,9,1,0,0,1,44,204,151,1,,,,,,,,
,,,,,,,,,,,,,FF,,,,,,,,0.749,,,,,,,,,,,,,,,,,,,,,,6101b6d51040dd4205b86c28,61036d06f428419531f2ed7c,2021-07-29_22h09.07.656,Simcolourproject_2stim_asymm_v5,2020.2.10,MacIntel,60,61025ae37ef11b136ea224fe,,,,,,,,,1510,62,-27,1,0,0,response3disk,,5,-4,3,1,0,0,rectangle,-40,-68,1,0,0,9,-6,1,0,0,1,45,205,60,1,,response5disk_3,TRUE,3,3,"[292,219,58,180,149,99,27,161,206,77,312,102,171,200,50,44,236,136,5,26]",1.383,rectangle
,,,,,,,,,,,,,FF,,,,,,,,1.149,,,,,,,,,,,,,,,,,,,,,,6101b6d51040dd4205b86c28,61036d06f428419531f2ed7c,2021-07-29_22h09.07.656,Simcolourproject_2stim_asymm_v5,2020.2.10,MacIntel,60,61025ae37ef11b136ea224fe,,,,,,,,,3212,72,18,1,0,0,response1disk,,6,1,-2,1,0,0,rectangle,1,-2,1,0,0,1,-2,1,0,0,1,46,206,156,1,,,,,,,,
,,,,,,,,,,,,,FF,,,,,,,,1.001,,,,,,,,,,,,,,,,,,,,,,6101b6d51040dd4205b86c28,61036d06f428419531f2ed7c,2021-07-29_22h09.07.656,Simcolourproject_2stim_asymm_v5,2020.2.10,MacIntel,60,61025ae37ef11b136ea224fe,,,,,,,,,4277,32,-64,1,0,0,response3disk,,4,7,3,1,0,0,rectangle,7,3,1,0,0,7,3,1,0,0,1,47,207,29,1,,,,,,,,
,,,,,,,,,,,,,FF,,,,,,,,0.716,,,,,,,,,,,,,,,,,,,,,,6101b6d51040dd4205b86c28,61036d06f428419531f2ed7c,2021-07-29_22h09.07.656,Simcolourproject_2stim_asymm_v5,2020.2.10,MacIntel,60,61025ae37ef11b136ea224fe,,,,,,,,,3049,-23,-55,1,0,0,response5disk,,3,-15,-2,1,0,0,rectangle,-15,-2,1,0,0,-15,-2,1,0,0,1,48,208,43,1,,,,,,,,
,,,,,,,,,,,,,FF,,,,,,,,1.068,,,,,,,,,,,,,,,,,,,,,,6101b6d51040dd4205b86c28,61036d06f428419531f2ed7c,2021-07-29_22h09.07.656,Simcolourproject_2stim_asymm_v5,2020.2.10,MacIntel,60,61025ae37ef11b136ea224fe,,,,,,,,,3076,61,54,1,0,0,response1disk,,6,15,16,1,0,0,rectangle,15,16,1,0,0,15,16,1,0,0,1,49,209,3,1,,,,,,,,
,,,,,,,,,,,,,FF,,,,,,,,0.65,,,,,,,,,,,,,,,,,,,,,,6101b6d51040dd4205b86c28,61036d06f428419531f2ed7c,2021-07-29_22h09.07.656,Simcolourproject_2stim_asymm_v5,2020.2.10,MacIntel,60,61025ae37ef11b136ea224fe,,,,,,,,,3758,28,66,1,0,0,response1disk,,7,15,5,1,0,0,rectangle,15,5,1,0,0,15,5,1,0,0,1,50,210,89,1,,,,,,,,
,,,,,,,,,,,,,FF,,,,,,,,0.783,,,,,,,,,,,,,,,,,,,,,,6101b6d51040dd4205b86c28,61036d06f428419531f2ed7c,2021-07-29_22h09.07.656,Simcolourproject_2stim_asymm_v5,2020.2.10,MacIntel,60,61025ae37ef11b136ea224fe,,,,,,,,,884,20,70,1,0,0,response1disk,,7,11,4,1,0,0,rectangle,11,4,1,0,0,11,4,1,0,0,1,51,211,65,1,,,,,,,,
,,,,,,,,,,,,,FF,,,,,,,,1.133,,,,,,,,,,,,,,,,,,,,,,6101b6d51040dd4205b86c28,61036d06f428419531f2ed7c,2021-07-29_22h09.07.656,Simcolourproject_2stim_asymm_v5,2020.2.10,MacIntel,60,61025ae37ef11b136ea224fe,,,,,,,,,2917,32,72,1,0,0,response1disk,,7,5,11,1,0,0,rectangle,5,11,1,0,0,5,11,1,0,0,1,52,212,7,1,,,,,,,,
,,,,,,,,,,,,,FF,,,,,,,,0.766,,,,,,,,,,,,,,,,,,,,,,6101b6d51040dd4205b86c28,61036d06f428419531f2ed7c,2021-07-29_22h09.07.656,Simcolourproject_2stim_asymm_v5,2020.2.10,MacIntel,60,61025ae37ef11b136ea224fe,,,,,,,,,1326,34,73,1,0,0,response1disk,,7,8,8,1,0,0,rectangle,8,8,1,0,0,8,8,1,0,0,1,53,213,31,1,,,,,,,,
,,,,,,,,,,,,,FF,,,,,,,,1.066,,,,,,,,,,,,,,,,,,,,,,6101b6d51040dd4205b86c28,61036d06f428419531f2ed7c,2021-07-29_22h09.07.656,Simcolourproject_2stim_asymm_v5,2020.2.10,MacIntel,60,61025ae37ef11b136ea224fe,,,,,,,,,1908,58,42,1,0,0,response1disk,,6,12,15,1,0,0,rectangle,12,15,1,0,0,12,15,1,0,0,1,54,214,150,1,,,,,,,,
,,,,,,,,,,,,,FF,,,,,,,,0.767,,,,,,,,,,,,,,,,,,,,,,6101b6d51040dd4205b86c28,61036d06f428419531f2ed7c,2021-07-29_22h09.07.656,Simcolourproject_2stim_asymm_v5,2020.2.10,MacIntel,60,61025ae37ef11b136ea224fe,,,,,,,,,1393,68,-35,1,0,0,response3disk,,5,4,-7,1,0,0,rectangle,4,-7,1,0,0,4,-7,1,0,0,1,55,215,149,1,,,,,,,,
,,,,,,,,,,,,,FF,,,,,,,,1.75,,,,,,,,,,,,,,,,,,,,,,6101b6d51040dd4205b86c28,61036d06f428419531f2ed7c,2021-07-29_22h09.07.656,Simcolourproject_2stim_asymm_v5,2020.2.10,MacIntel,60,61025ae37ef11b136ea224fe,,,,,,,,,208,34,-66,1,0,0,response3disk,,4,20,0,1,0,0,rectangle,20,0,1,0,0,20,0,1,0,0,1,56,216,55,1,,,,,,,,
,,,,,,,,,,,,,FF,,,,,,,,0.999,,,,,,,,,,,,,,,,,,,,,,6101b6d51040dd4205b86c28,61036d06f428419531f2ed7c,2021-07-29_22h09.07.656,Simcolourproject_2stim_asymm_v5,2020.2.10,MacIntel,60,61025ae37ef11b136ea224fe,,,,,,,,,3485,45,-26,1,0,0,response3disk,,5,9,-11,1,0,0,rectangle,9,-11,1,0,0,9,-11,1,0,0,1,57,217,129,1,,,,,,,,
,,,,,,,,,,,,,FF,,,,,,,,0.767,,,,,,,,,,,,,,,,,,,,,,6101b6d51040dd4205b86c28,61036d06f428419531f2ed7c,2021-07-29_22h09.07.656,Simcolourproject_2stim_asymm_v5,2020.2.10,MacIntel,60,61025ae37ef11b136ea224fe,,,,,,,,,921,57,-38,1,0,0,response3disk,,5,5,-8,1,0,0,rectangle,51,-25,1,0,0,8,-3,1,0,0,1,58,218,136,1,,response3disk_3,TRUE,5,5,"[292,219,58,180,149,99,27,161,206,77,312,102,171,200,50,44,236,136,5,26]",1.601,rectangle
,,,,,,,,,,,,,FF,,,,,,,,0.933,,,,,,,,,,,,,,,,,,,,,,6101b6d51040dd4205b86c28,61036d06f428419531f2ed7c,2021-07-29_22h09.07.656,Simcolourproject_2stim_asymm_v5,2020.2.10,MacIntel,60,61025ae37ef11b136ea224fe,,,,,,,,,864,79,32,1,0,0,response1disk,,6,3,11,1,0,0,rectangle,3,11,1,0,0,3,11,1,0,0,1,59,219,101,1,,,,,,,,
,,,,,,,,,,,,,FF,,,,,,,,0.633,,,,,,,,,,,,,,,,,,,,,,6101b6d51040dd4205b86c28,61036d06f428419531f2ed7c,2021-07-29_22h09.07.656,Simcolourproject_2stim_asymm_v5,2020.2.10,MacIntel,60,61025ae37ef11b136ea224fe,,,,,,,,,1545,55,25,1,0,0,response1disk,,6,12,14,1,0,0,rectangle,12,14,1,0,0,12,14,1,0,0,1,60,220,73,1,,,,,,,,
,,,,,,,,,,,,,FF,,,,,,,,0.7,,,,,,,,,,,,,,,,,,,,,,6101b6d51040dd4205b86c28,61036d06f428419531f2ed7c,2021-07-29_22h09.07.656,Simcolourproject_2stim_asymm_v5,2020.2.10,MacIntel,60,61025ae37ef11b136ea224fe,,,,,,,,,2445,61,25,1,0,0,response1disk,,6,15,14,1,0,0,rectangle,15,14,1,0,0,15,14,1,0,0,1,61,221,95,1,,,,,,,,
,,,,,,,,,,,,,FF,,,,,,,,0.949,,,,,,,,,,,,,,,,,,,,,,6101b6d51040dd4205b86c28,61036d06f428419531f2ed7c,2021-07-29_22h09.07.656,Simcolourproject_2stim_asymm_v5,2020.2.10,MacIntel,60,61025ae37ef11b136ea224fe,,,,,,,,,763,57,33,1,0,0,response1disk,,6,12,8,1,0,0,rectangle,12,8,1,0,0,12,8,1,0,0,1,62,222,30,1,,,,,,,,
,,,,,,,,,,,,,FF,,,,,,,,0.601,,,,,,,,,,,,,,,,,,,,,,6101b6d51040dd4205b86c28,61036d06f428419531f2ed7c,2021-07-29_22h09.07.656,Simcolourproject_2stim_asymm_v5,2020.2.10,MacIntel,60,61025ae37ef11b136ea224fe,,,,,,,,,1059,28,75,1,0,0,response1disk,,7,14,1,1,0,0,rectangle,14,1,1,0,0,14,1,1,0,0,1,63,223,106,1,,,,,,,,
,,,,,,,,,,,,,FF,,,,,,,,0.684,,,,,,,,,,,,,,,,,,,,,,6101b6d51040dd4205b86c28,61036d06f428419531f2ed7c,2021-07-29_22h09.07.656,Simcolourproject_2stim_asymm_v5,2020.2.10,MacIntel,60,61025ae37ef11b136ea224fe,,,,,,,,,2305,25,71,1,0,0,response1disk,,7,14,-1,1,0,0,rectangle,14,-1,1,0,0,14,-1,1,0,0,1,64,224,23,1,,,,,,,,
,,,,,,,,,,,,,FF,,,,,,,,1.068,,,,,,,,,,,,,,,,,,,,,,6101b6d51040dd4205b86c28,61036d06f428419531f2ed7c,2021-07-29_22h09.07.656,Simcolourproject_2stim_asymm_v5,2020.2.10,MacIntel,60,61025ae37ef11b136ea224fe,,,,,,,,,1528,-43,86,1,0,0,response7disk,,0,-12,10,1,0,0,rectangle,-12,10,1,0,0,-12,10,1,0,0,1,65,225,141,1,,,,,,,,
,,,,,,,,,,,,,FF,,,,,,,,0.766,,,,,,,,,,,,,,,,,,,,,,6101b6d51040dd4205b86c28,61036d06f428419531f2ed7c,2021-07-29_22h09.07.656,Simcolourproject_2stim_asymm_v5,2020.2.10,MacIntel,60,61025ae37ef11b136ea224fe,,,,,,,,,2904,-21,-34,1,0,0,response5disk,,3,-10,4,1,0,0,rectangle,-10,4,1,0,0,-10,4,1,0,0,1,66,226,39,1,,,,,,,,
,,,,,,,,,,,,,FF,,,,,,,,1.765,,,,,,,,,,,,,,,,,,,,,,6101b6d51040dd4205b86c28,61036d06f428419531f2ed7c,2021-07-29_22h09.07.656,Simcolourproject_2stim_asymm_v5,2020.2.10,MacIntel,60,61025ae37ef11b136ea224fe,,,,,,,,,902,42,-63,1,0,0,response3disk,,4,9,1,1,0,0,rectangle,9,1,1,0,0,9,1,1,0,0,1,67,227,75,1,,,,,,,,
,,,,,,,,,,,,,FF,,,,,,,,0.818,,,,,,,,,,,,,,,,,,,,,,6101b6d51040dd4205b86c28,61036d06f428419531f2ed7c,2021-07-29_22h09.07.656,Simcolourproject_2stim_asymm_v5,2020.2.10,MacIntel,60,61025ae37ef11b136ea224fe,,,,,,,,,3330,-42,79,1,0,0,response7disk,,0,-5,3,1,0,0,rectangle,-5,3,1,0,0,-5,3,1,0,0,1,68,228,97,1,,,,,,,,
,,,,,,,,,,,,,FF,,,,,,,,1.334,,,,,,,,,,,,,,,,,,,,,,6101b6d51040dd4205b86c28,61036d06f428419531f2ed7c,2021-07-29_22h09.07.656,Simcolourproject_2stim_asymm_v5,2020.2.10,MacIntel,60,61025ae37ef11b136ea224fe,,,,,,,,,2324,-29,-43,1,0,0,response5disk,,3,-6,13,1,0,0,rectangle,-6,13,1,0,0,-6,13,1,0,0,1,69,229,154,1,,,,,,,,
,,,,,,,,,,,,,FF,,,,,,,,1.1,,,,,,,,,,,,,,,,,,,,,,6101b6d51040dd4205b86c28,61036d06f428419531f2ed7c,2021-07-29_22h09.07.656,Simcolourproject_2stim_asymm_v5,2020.2.10,MacIntel,60,61025ae37ef11b136ea224fe,,,,,,,,,440,63,-33,1,0,0,response3disk,,5,14,-4,1,0,0,rectangle,14,-4,1,0,0,14,-4,1,0,0,1,70,230,80,1,,,,,,,,
,,,,,,,,,,,,,FF,,,,,,,,1.616,,,,,,,,,,,,,,,,,,,,,,6101b6d51040dd4205b86c28,61036d06f428419531f2ed7c,2021-07-29_22h09.07.656,Simcolourproject_2stim_asymm_v5,2020.2.10,MacIntel,60,61025ae37ef11b136ea224fe,,,,,,,,,2639,77,54,1,0,0,response1disk,,6,12,8,1,0,0,rectangle,12,8,1,0,0,12,8,1,0,0,1,71,231,112,1,,,,,,,,
,,,,,,,,,,,,,FF,,,,,,,,0.951,,,,,,,,,,,,,,,,,,,,,,6101b6d51040dd4205b86c28,61036d06f428419531f2ed7c,2021-07-29_22h09.07.656,Simcolourproject_2stim_asymm_v5,2020.2.10,MacIntel,60,61025ae37ef11b136ea224fe,,,,,,,,,1097,47,89,1,0,0,response1disk,,7,17,0,1,0,0,rectangle,17,0,1,0,0,17,0,1,0,0,1,72,232,11,1,,,,,,,,
,,,,,,,,,,,,,FF,,,,,,,,0.667,,,,,,,,,,,,,,,,,,,,,,6101b6d51040dd4205b86c28,61036d06f428419531f2ed7c,2021-07-29_22h09.07.656,Simcolourproject_2stim_asymm_v5,2020.2.10,MacIntel,60,61025ae37ef11b136ea224fe,,,,,,,,,3455,26,95,1,0,0,response1disk,,7,19,-1,1,0,0,rectangle,19,-1,1,0,0,19,-1,1,0,0,1,73,233,1,1,,,,,,,,
,,,,,,,,,,,,,FF,,,,,,,,1.3,,,,,,,,,,,,,,,,,,,,,,6101b6d51040dd4205b86c28,61036d06f428419531f2ed7c,2021-07-29_22h09.07.656,Simcolourproject_2stim_asymm_v5,2020.2.10,MacIntel,60,61025ae37ef11b136ea224fe,,,,,,,,,3487,-16,-59,1,0,0,response5disk,,3,-1,0,1,0,0,rectangle,-1,0,1,0,0,-1,0,1,0,0,1,74,234,2,1,,,,,,,,
,,,,,,,,,,,,,FF,,,,,,,,1.034,,,,,,,,,,,,,,,,,,,,,,6101b6d51040dd4205b86c28,61036d06f428419531f2ed7c,2021-07-29_22h09.07.656,Simcolourproject_2stim_asymm_v5,2020.2.10,MacIntel,60,61025ae37ef11b136ea224fe,,,,,,,,,3625,-38,51,1,0,0,response7disk,,0,-15,-3,1,0,0,rectangle,-79,34,1,0,0,-15,17,1,0,0,1,75,235,117,1,,response7disk_3,TRUE,1,1,"[292,219,58,180,149,99,27,161,206,77,312,102,171,200,50,44,236,136,5,26]",1.583,rectangle
,,,,,,,,,,,,,FF,,,,,,,,1.85,,,,,,,,,,,,,,,,,,,,,,6101b6d51040dd4205b86c28,61036d06f428419531f2ed7c,2021-07-29_22h09.07.656,Simcolourproject_2stim_asymm_v5,2020.2.10,MacIntel,60,61025ae37ef11b136ea224fe,,,,,,,,,3222,24,-75,1,0,0,response3disk,,4,5,3,1,0,0,rectangle,5,3,1,0,0,5,3,1,0,0,1,76,236,56,1,,,,,,,,
,,,,,,,,,,,,,FF,,,,,,,,1.151,,,,,,,,,,,,,,,,,,,,,,6101b6d51040dd4205b86c28,61036d06f428419531f2ed7c,2021-07-29_22h09.07.656,Simcolourproject_2stim_asymm_v5,2020.2.10,MacIntel,60,61025ae37ef11b136ea224fe,,,,,,,,,4317,-57,24,1,0,0,response7disk,,1,18,-10,1,0,0,rectangle,18,-10,1,0,0,18,-10,1,0,0,1,77,237,133,1,,,,,,,,
,,,,,,,,,,,,,FF,,,,,,,,1.5,,,,,,,,,,,,,,,,,,,,,,6101b6d51040dd4205b86c28,61036d06f428419531f2ed7c,2021-07-29_22h09.07.656,Simcolourproject_2stim_asymm_v5,2020.2.10,MacIntel,60,61025ae37ef11b136ea224fe,,,,,,,,,2691,-38,-52,1,0,0,response5disk,,3,-14,4,1,0,0,rectangle,-14,4,1,0,0,-14,4,1,0,0,1,78,238,159,1,,,,,,,,
,,,,,,,,,,,,,FF,,,,,,,,1.032,,,,,,,,,,,,,,,,,,,,,,6101b6d51040dd4205b86c28,61036d06f428419531f2ed7c,2021-07-29_22h09.07.656,Simcolourproject_2stim_asymm_v5,2020.2.10,MacIntel,60,61025ae37ef11b136ea224fe,,,,,,,,,1783,33,75,1,0,0,response1disk,,7,16,-14,1,0,0,rectangle,16,-14,1,0,0,16,-14,1,0,0,1,79,239,14,1,,,,,,,,
,,,,,,,,,,,,,FF,,,,,,,,0.784,,,,,,,,,,,,,,,,,,,,,,6101b6d51040dd4205b86c28,61036d06f428419531f2ed7c,2021-07-29_22h09.07.656,Simcolourproject_2stim_asymm_v5,2020.2.10,MacIntel,60,61025ae37ef11b136ea224fe,,,,,,,,,145,58,34,1,0,0,response1disk,,6,11,1,1,0,0,rectangle,11,1,1,0,0,11,1,1,0,0,1,80,240,42,1,,,,,,,,
,,,,,,,,,,,,,FF,,,,,,,,0.65,,,,,,,,,,,,,,,,,,,,,,6101b6d51040dd4205b86c28,61036d06f428419531f2ed7c,2021-07-29_22h09.07.656,Simcolourproject_2stim_asymm_v5,2020.2.10,MacIntel,60,61025ae37ef11b136ea224fe,,,,,,,,,898,67,35,1,0,0,response1disk,,6,23,15,1,0,0,rectangle,23,15,1,0,0,23,15,1,0,0,1,81,241,35,1,,,,,,,,
,,,,,,,,,,,,,FF,,,,,,,,0.8,,,,,,,,,,,,,,,,,,,,,,6101b6d51040dd4205b86c28,61036d06f428419531f2ed7c,2021-07-29_22h09.07.656,Simcolourproject_2stim_asymm_v5,2020.2.10,MacIntel,60,61025ae37ef11b136ea224fe,,,,,,,,,1068,54,-19,1,0,0,response3disk,,5,12,-3,1,0,0,rectangle,12,-3,1,0,0,12,-3,1,0,0,1,82,242,71,1,,,,,,,,
,,,,,,,,,,,,,FF,,,,,,,,0.717,,,,,,,,,,,,,,,,,,,,,,6101b6d51040dd4205b86c28,61036d06f428419531f2ed7c,2021-07-29_22h09.07.656,Simcolourproject_2stim_asymm_v5,2020.2.10,MacIntel,60,61025ae37ef11b136ea224fe,,,,,,,,,3298,-39,74,1,0,0,response7disk,,0,-1,10,1,0,0,rectangle,-1,10,1,0,0,-1,10,1,0,0,1,83,243,63,1,,,,,,,,
,,,,,,,,,,,,,FF,,,,,,,,2.199,,,,,,,,,,,,,,,,,,,,,,6101b6d51040dd4205b86c28,61036d06f428419531f2ed7c,2021-07-29_22h09.07.656,Simcolourproject_2stim_asymm_v5,2020.2.10,MacIntel,60,61025ae37ef11b136ea224fe,,,,,,,,,4177,42,95,1,0,0,response1disk,,7,13,-4,1,0,0,rectangle,13,-4,1,0,0,13,-4,1,0,0,1,84,244,98,1,,,,,,,,
,,,,,,,,,,,,,FF,,,,,,,,0.651,,,,,,,,,,,,,,,,,,,,,,6101b6d51040dd4205b86c28,61036d06f428419531f2ed7c,2021-07-29_22h09.07.656,Simcolourproject_2stim_asymm_v5,2020.2.10,MacIntel,60,61025ae37ef11b136ea224fe,,,,,,,,,3035,-36,80,1,0,0,response7disk,,0,-11,8,1,0,0,rectangle,-11,8,1,0,0,-11,8,1,0,0,1,85,245,114,1,,,,,,,,
,,,,,,,,,,,,,FF,,,,,,,,0.616,,,,,,,,,,,,,,,,,,,,,,6101b6d51040dd4205b86c28,61036d06f428419531f2ed7c,2021-07-29_22h09.07.656,Simcolourproject_2stim_asymm_v5,2020.2.10,MacIntel,60,61025ae37ef11b136ea224fe,,,,,,,,,1226,-31,58,1,0,0,response7disk,,0,-14,14,1,0,0,rectangle,-14,14,1,0,0,-14,14,1,0,0,1,86,246,54,1,,,,,,,,
,,,,,,,,,,,,,FF,,,,,,,,1.134,,,,,,,,,,,,,,,,,,,,,,6101b6d51040dd4205b86c28,61036d06f428419531f2ed7c,2021-07-29_22h09.07.656,Simcolourproject_2stim_asymm_v5,2020.2.10,MacIntel,60,61025ae37ef11b136ea224fe,,,,,,,,,4044,37,-57,1,0,0,response3disk,,4,23,-1,1,0,0,rectangle,23,-1,1,0,0,23,-1,1,0,0,1,87,247,58,1,,,,,,,,
,,,,,,,,,,,,,FF,,,,,,,,1.016,,,,,,,,,,,,,,,,,,,,,,6101b6d51040dd4205b86c28,61036d06f428419531f2ed7c,2021-07-29_22h09.07.656,Simcolourproject_2stim_asymm_v5,2020.2.10,MacIntel,60,61025ae37ef11b136ea224fe,,,,,,,,,1369,-25,-49,1,0,0,response5disk,,3,6,-10,1,0,0,rectangle,6,-10,1,0,0,6,-10,1,0,0,1,88,248,104,1,,,,,,,,
,,,,,,,,,,,,,FF,,,,,,,,0.717,,,,,,,,,,,,,,,,,,,,,,6101b6d51040dd4205b86c28,61036d06f428419531f2ed7c,2021-07-29_22h09.07.656,Simcolourproject_2stim_asymm_v5,2020.2.10,MacIntel,60,61025ae37ef11b136ea224fe,,,,,,,,,345,-28,-54,1,0,0,response5disk,,3,-4,6,1,0,0,rectangle,-4,6,1,0,0,-4,6,1,0,0,1,89,249,103,1,,,,,,,,
,,,,,,,,,,,,,FF,,,,,,,,0.75,,,,,,,,,,,,,,,,,,,,,,6101b6d51040dd4205b86c28,61036d06f428419531f2ed7c,2021-07-29_22h09.07.656,Simcolourproject_2stim_asymm_v5,2020.2.10,MacIntel,60,61025ae37ef11b136ea224fe,,,,,,,,,3350,-33,70,1,0,0,response7disk,,0,-7,12,1,0,0,rectangle,-7,12,1,0,0,-7,12,1,0,0,1,90,250,148,1,,,,,,,,
,,,,,,,,,,,,,FF,,,,,,,,1.183,,,,,,,,,,,,,,,,,,,,,,6101b6d51040dd4205b86c28,61036d06f428419531f2ed7c,2021-07-29_22h09.07.656,Simcolourproject_2stim_asymm_v5,2020.2.10,MacIntel,60,61025ae37ef11b136ea224fe,,,,,,,,,27,63,37,1,0,0,response1disk,,6,-5,-12,1,0,0,rectangle,-5,-12,1,0,0,-5,-12,1,0,0,1,91,251,45,1,,,,,,,,
,,,,,,,,,,,,,FF,,,,,,,,0.918,,,,,,,,,,,,,,,,,,,,,,6101b6d51040dd4205b86c28,61036d06f428419531f2ed7c,2021-07-29_22h09.07.656,Simcolourproject_2stim_asymm_v5,2020.2.10,MacIntel,60,61025ae37ef11b136ea224fe,,,,,,,,,1249,-45,47,1,0,0,response7disk,,0,10,-16,1,0,0,rectangle,10,-16,1,0,0,10,-16,1,0,0,1,92,252,41,1,,,,,,,,
,,,,,,,,,,,,,FF,,,,,,,,1.217,,,,,,,,,,,,,,,,,,,,,,6101b6d51040dd4205b86c28,61036d06f428419531f2ed7c,2021-07-29_22h09.07.656,Simcolourproject_2stim_asymm_v5,2020.2.10,MacIntel,60,61025ae37ef11b136ea224fe,,,,,,,,,2465,-37,-61,1,0,0,response5disk,,3,-10,10,1,0,0,rectangle,-10,10,1,0,0,-10,10,1,0,0,1,93,253,105,1,,,,,,,,
,,,,,,,,,,,,,FF,,,,,,,,1.132,,,,,,,,,,,,,,,,,,,,,,6101b6d51040dd4205b86c28,61036d06f428419531f2ed7c,2021-07-29_22h09.07.656,Simcolourproject_2stim_asymm_v5,2020.2.10,MacIntel,60,61025ae37ef11b136ea224fe,,,,,,,,,513,-59,-36,1,0,0,response5disk,,2,-4,0,1,0,0,rectangle,-4,0,1,0,0,-4,0,1,0,0,1,94,254,34,1,,,,,,,,
,,,,,,,,,,,,,FF,,,,,,,,0.7,,,,,,,,,,,,,,,,,,,,,,6101b6d51040dd4205b86c28,61036d06f428419531f2ed7c,2021-07-29_22h09.07.656,Simcolourproject_2stim_asymm_v5,2020.2.10,MacIntel,60,61025ae37ef11b136ea224fe,,,,,,,,,845,40,-31,1,0,0,response3disk,,5,3,-6,1,0,0,rectangle,3,-6,1,0,0,3,-6,1,0,0,1,95,255,5,1,,,,,,,,
,,,,,,,,,,,,,FF,,,,,,,,0.533,,,,,,,,,,,,,,,,,,,,,,6101b6d51040dd4205b86c28,61036d06f428419531f2ed7c,2021-07-29_22h09.07.656,Simcolourproject_2stim_asymm_v5,2020.2.10,MacIntel,60,61025ae37ef11b136ea224fe,,,,,,,,,3525,45,-22,1,0,0,response3disk,,5,12,-11,1,0,0,rectangle,12,-11,1,0,0,12,-11,1,0,0,1,96,256,18,1,,,,,,,,
,,,,,,,,,,,,,FF,,,,,,,,0.566,,,,,,,,,,,,,,,,,,,,,,6101b6d51040dd4205b86c28,61036d06f428419531f2ed7c,2021-07-29_22h09.07.656,Simcolourproject_2stim_asymm_v5,2020.2.10,MacIntel,60,61025ae37ef11b136ea224fe,,,,,,,,,677,63,37,1,0,0,response1disk,,6,11,5,1,0,0,rectangle,11,5,1,0,0,11,5,1,0,0,1,97,257,121,1,,,,,,,,
,,,,,,,,,,,,,FF,,,,,,,,1.251,,,,,,,,,,,,,,,,,,,,,,6101b6d51040dd4205b86c28,61036d06f428419531f2ed7c,2021-07-29_22h09.07.656,Simcolourproject_2stim_asymm_v5,2020.2.10,MacIntel,60,61025ae37ef11b136ea224fe,,,,,,,,,3784,-24,-65,1,0,0,response5disk,,3,-9,16,1,0,0,rectangle,-9,16,1,0,0,-9,16,1,0,0,1,98,258,37,1,,,,,,,,
,,,,,,,,,,,,,FF,,,,,,,,0.883,,,,,,,,,,,,,,,,,,,,,,6101b6d51040dd4205b86c28,61036d06f428419531f2ed7c,2021-07-29_22h09.07.656,Simcolourproject_2stim_asymm_v5,2020.2.10,MacIntel,60,61025ae37ef11b136ea224fe,,,,,,,,,2177,-37,-69,1,0,0,response5disk,,3,-9,7,1,0,0,rectangle,-9,7,1,0,0,-9,7,1,0,0,1,99,259,78,1,,,,,,,,
,,,,,,,,,,,,,FF,,,,,,,,0.817,,,,,,,,,,,,,,,,,,,,,,6101b6d51040dd4205b86c28,61036d06f428419531f2ed7c,2021-07-29_22h09.07.656,Simcolourproject_2stim_asymm_v5,2020.2.10,MacIntel,60,61025ae37ef11b136ea224fe,,,,,,,,,2022,38,82,1,0,0,response1disk,,7,6,-13,1,0,0,rectangle,6,-13,1,0,0,6,-13,1,0,0,1,100,260,132,1,,,,,,,,
,,,,,,,,,,,,,FF,,,,,,,,0.883,,,,,,,,,,,,,,,,,,,,,,6101b6d51040dd4205b86c28,61036d06f428419531f2ed7c,2021-07-29_22h09.07.656,Simcolourproject_2stim_asymm_v5,2020.2.10,MacIntel,60,61025ae37ef11b136ea224fe,,,,,,,,,423,27,-54,1,0,0,response3disk,,4,12,-8,1,0,0,rectangle,12,-8,1,0,0,12,-8,1,0,0,1,101,261,91,1,,,,,,,,
,,,,,,,,,,,,,FF,,,,,,,,1.017,,,,,,,,,,,,,,,,,,,,,,6101b6d51040dd4205b86c28,61036d06f428419531f2ed7c,2021-07-29_22h09.07.656,Simcolourproject_2stim_asymm_v5,2020.2.10,MacIntel,60,61025ae37ef11b136ea224fe,,,,,,,,,4012,74,-32,1,0,0,response3disk,,5,12,5,1,0,0,rectangle,12,5,1,0,0,12,5,1,0,0,1,102,262,0,1,,,,,,,,
,,,,,,,,,,,,,FF,,,,,,,,0.766,,,,,,,,,,,,,,,,,,,,,,6101b6d51040dd4205b86c28,61036d06f428419531f2ed7c,2021-07-29_22h09.07.656,Simcolourproject_2stim_asymm_v5,2020.2.10,MacIntel,60,61025ae37ef11b136ea224fe,,,,,,,,,1445,-49,85,1,0,0,response7disk,,0,-10,10,1,0,0,rectangle,-10,10,1,0,0,-10,10,1,0,0,1,103,263,90,1,,,,,,,,
,,,,,,,,,,,,,FF,,,,,,,,0.866,,,,,,,,,,,,,,,,,,,,,,6101b6d51040dd4205b86c28,61036d06f428419531f2ed7c,2021-07-29_22h09.07.656,Simcolourproject_2stim_asymm_v5,2020.2.10,MacIntel,60,61025ae37ef11b136ea224fe,,,,,,,,,1500,-33,-64,1,0,0,response5disk,,3,-15,-2,1,0,0,rectangle,-15,-2,1,0,0,-15,-2,1,0,0,1,104,264,64,1,,,,,,,,
,,,,,,,,,,,,,FF,,,,,,,,1.182,,,,,,,,,,,,,,,,,,,,,,6101b6d51040dd4205b86c28,61036d06f428419531f2ed7c,2021-07-29_22h09.07.656,Simcolourproject_2stim_asymm_v5,2020.2.10,MacIntel,60,61025ae37ef11b136ea224fe,,,,,,,,,2884,-27,-72,1,0,0,response5disk,,3,-11,-6,1,0,0,rectangle,-11,-6,1,0,0,-11,-6,1,0,0,1,105,265,67,1,,,,,,,,
,,,,,,,,,,,,,FF,,,,,,,,0.733,,,,,,,,,,,,,,,,,,,,,,6101b6d51040dd4205b86c28,61036d06f428419531f2ed7c,2021-07-29_22h09.07.656,Simcolourproject_2stim_asymm_v5,2020.2.10,MacIntel,60,61025ae37ef11b136ea224fe,,,,,,,,,3710,25,-56,1,0,0,response3disk,,4,10,-3,1,0,0,rectangle,10,-3,1,0,0,10,-3,1,0,0,1,106,266,9,1,,,,,,,,
,,,,,,,,,,,,,FF,,,,,,,,0.733,,,,,,,,,,,,,,,,,,,,,,6101b6d51040dd4205b86c28,61036d06f428419531f2ed7c,2021-07-29_22h09.07.656,Simcolourproject_2stim_asymm_v5,2020.2.10,MacIntel,60,61025ae37ef11b136ea224fe,,,,,,,,,3637,-41,87,1,0,0,response7disk,,0,2,11,1,0,0,rectangle,2,11,1,0,0,2,11,1,0,0,1,107,267,153,1,,,,,,,,
,,,,,,,,,,,,,FF,,,,,,,,0.967,,,,,,,,,,,,,,,,,,,,,,6101b6d51040dd4205b86c28,61036d06f428419531f2ed7c,2021-07-29_22h09.07.656,Simcolourproject_2stim_asymm_v5,2020.2.10,MacIntel,60,61025ae37ef11b136ea224fe,,,,,,,,,1695,32,-55,1,0,0,response3disk,,4,10,-3,1,0,0,rectangle,10,-3,1,0,0,10,-3,1,0,0,1,108,268,62,1,,,,,,,,
,,,,,,,,,,,,,FF,,,,,,,,0.584,,,,,,,,,,,,,,,,,,,,,,6101b6d51040dd4205b86c28,61036d06f428419531f2ed7c,2021-07-29_22h09.07.656,Simcolourproject_2stim_asymm_v5,2020.2.10,MacIntel,60,61025ae37ef11b136ea224fe,,,,,,,,,3515,-28,69,1,0,0,response7disk,,0,-11,6,1,0,0,rectangle,-11,6,1,0,0,-11,6,1,0,0,1,109,269,83,1,,,,,,,,
,,,,,,,,,,,,,FF,,,,,,,,0.834,,,,,,,,,,,,,,,,,,,,,,6101b6d51040dd4205b86c28,61036d06f428419531f2ed7c,2021-07-29_22h09.07.656,Simcolourproject_2stim_asymm_v5,2020.2.10,MacIntel,60,61025ae37ef11b136ea224fe,,,,,,,,,3987,61,-21,1,0,0,response3disk,,5,1,13,1,0,0,rectangle,1,13,1,0,0,1,13,1,0,0,1,110,270,152,1,,,,,,,,
,,,,,,,,,,,,,FF,,,,,,,,0.766,,,,,,,,,,,,,,,,,,,,,,6101b6d51040dd4205b86c28,61036d06f428419531f2ed7c,2021-07-29_22h09.07.656,Simcolourproject_2stim_asymm_v5,2020.2.10,MacIntel,60,61025ae37ef11b136ea224fe,,,,,,,,,1857,-47,-37,1,0,0,response5disk,,2,-6,-2,1,0,0,rectangle,-6,-2,1,0,0,-6,-2,1,0,0,1,111,271,33,1,,,,,,,,
,,,,,,,,,,,,,FF,,,,,,,,0.899,,,,,,,,,,,,,,,,,,,,,,6101b6d51040dd4205b86c28,61036d06f428419531f2ed7c,2021-07-29_22h09.07.656,Simcolourproject_2stim_asymm_v5,2020.2.10,MacIntel,60,61025ae37ef11b136ea224fe,,,,,,,,,1944,-26,-61,1,0,0,response5disk,,3,-13,9,1,0,0,rectangle,-13,9,1,0,0,-13,9,1,0,0,1,112,272,118,1,,,,,,,,
,,,,,,,,,,,,,FF,,,,,,,,0.567,,,,,,,,,,,,,,,,,,,,,,6101b6d51040dd4205b86c28,61036d06f428419531f2ed7c,2021-07-29_22h09.07.656,Simcolourproject_2stim_asymm_v5,2020.2.10,MacIntel,60,61025ae37ef11b136ea224fe,,,,,,,,,2601,-40,73,1,0,0,response7disk,,0,-11,0,1,0,0,rectangle,-11,0,1,0,0,-11,0,1,0,0,1,113,273,49,1,,,,,,,,
,,,,,,,,,,,,,FF,,,,,,,,0.833,,,,,,,,,,,,,,,,,,,,,,6101b6d51040dd4205b86c28,61036d06f428419531f2ed7c,2021-07-29_22h09.07.656,Simcolourproject_2stim_asymm_v5,2020.2.10,MacIntel,60,61025ae37ef11b136ea224fe,,,,,,,,,1996,43,-23,1,0,0,response3disk,,5,3,-4,1,0,0,rectangle,3,-4,1,0,0,3,-4,1,0,0,1,114,274,48,1,,,,,,,,
,,,,,,,,,,,,,FF,,,,,,,,0.933,,,,,,,,,,,,,,,,,,,,,,6101b6d51040dd4205b86c28,61036d06f428419531f2ed7c,2021-07-29_22h09.07.656,Simcolourproject_2stim_asymm_v5,2020.2.10,MacIntel,60,61025ae37ef11b136ea224fe,,,,,,,,,3074,51,-35,1,0,0,response3disk,,5,3,-8,1,0,0,rectangle,3,-8,1,0,0,3,-8,1,0,0,1,115,275,50,1,,,,,,,,
,,,,,,,,,,,,,FF,,,,,,,,0.766,,,,,,,,,,,,,,,,,,,,,,6101b6d51040dd4205b86c28,61036d06f428419531f2ed7c,2021-07-29_22h09.07.656,Simcolourproject_2stim_asymm_v5,2020.2.10,MacIntel,60,61025ae37ef11b136ea224fe,,,,,,,,,3672,-29,75,1,0,0,response7disk,,0,-16,12,1,0,0,rectangle,-16,12,1,0,0,-16,12,1,0,0,1,116,276,77,1,,,,,,,,
,,,,,,,,,,,,,FF,,,,,,,,0.716,,,,,,,,,,,,,,,,,,,,,,6101b6d51040dd4205b86c28,61036d06f428419531f2ed7c,2021-07-29_22h09.07.656,Simcolourproject_2stim_asymm_v5,2020.2.10,MacIntel,60,61025ae37ef11b136ea224fe,,,,,,,,,818,-19,-68,1,0,0,response5disk,,3,-6,-2,1,0,0,rectangle,-6,-2,1,0,0,-6,-2,1,0,0,1,117,277,17,1,,,,,,,,
,,,,,,,,,,,,,FF,,,,,,,,0.917,,,,,,,,,,,,,,,,,,,,,,6101b6d51040dd4205b86c28,61036d06f428419531f2ed7c,2021-07-29_22h09.07.656,Simcolourproject_2stim_asymm_v5,2020.2.10,MacIntel,60,61025ae37ef11b136ea224fe,,,,,,,,,1475,-59,-38,1,0,0,response5disk,,2,-4,-14,1,0,0,rectangle,-4,-14,1,0,0,-4,-14,1,0,0,1,118,278,102,1,,,,,,,,
,,,,,,,,,,,,,FF,,,,,,,,0.633,,,,,,,,,,,,,,,,,,,,,,6101b6d51040dd4205b86c28,61036d06f428419531f2ed7c,2021-07-29_22h09.07.656,Simcolourproject_2stim_asymm_v5,2020.2.10,MacIntel,60,61025ae37ef11b136ea224fe,,,,,,,,,1353,54,-25,1,0,0,response3disk,,5,4,-5,1,0,0,rectangle,4,-5,1,0,0,4,-5,1,0,0,1,119,279,28,1,,,,,,,,
,,,,,,,,,,,,,FF,,,,,,,,0.884,,,,,,,,,,,,,,,,,,,,,,6101b6d51040dd4205b86c28,61036d06f428419531f2ed7c,2021-07-29_22h09.07.656,Simcolourproject_2stim_asymm_v5,2020.2.10,MacIntel,60,61025ae37ef11b136ea224fe,,,,,,,,,3759,52,-24,1,0,0,response3disk,,5,3,2,1,0,0,rectangle,3,2,1,0,0,3,2,1,0,0,1,120,280,138,1,,,,,,,,
,,,,,,,,,,,,,FF,,,,,,,,0.583,,,,,,,,,,,,,,,,,,,,,,6101b6d51040dd4205b86c28,61036d06f428419531f2ed7c,2021-07-29_22h09.07.656,Simcolourproject_2stim_asymm_v5,2020.2.10,MacIntel,60,61025ae37ef11b136ea224fe,,,,,,,,,318,48,40,1,0,0,response1disk,,6,-6,11,1,0,0,rectangle,-6,11,1,0,0,-6,11,1,0,0,1,121,281,127,1,,,,,,,,
,,,,,,,,,,,,,FF,,,,,,,,0.684,,,,,,,,,,,,,,,,,,,,,,6101b6d51040dd4205b86c28,61036d06f428419531f2ed7c,2021-07-29_22h09.07.656,Simcolourproject_2stim_asymm_v5,2020.2.10,MacIntel,60,61025ae37ef11b136ea224fe,,,,,,,,,2180,36,41,1,0,0,response1disk,,7,7,-9,1,0,0,rectangle,7,-9,1,0,0,7,-9,1,0,0,1,122,282,146,1,,,,,,,,
,,,,,,,,,,,,,FF,,,,,,,,0.717,,,,,,,,,,,,,,,,,,,,,,6101b6d51040dd4205b86c28,61036d06f428419531f2ed7c,2021-07-29_22h09.07.656,Simcolourproject_2stim_asymm_v5,2020.2.10,MacIntel,60,61025ae37ef11b136ea224fe,,,,,,,,,3488,41,51,1,0,0,response1disk,,7,13,13,1,0,0,rectangle,13,13,1,0,0,13,13,1,0,0,1,123,283,144,1,,,,,,,,
,,,,,,,,,,,,,FF,,,,,,,,0.668,,,,,,,,,,,,,,,,,,,,,,6101b6d51040dd4205b86c28,61036d06f428419531f2ed7c,2021-07-29_22h09.07.656,Simcolourproject_2stim_asymm_v5,2020.2.10,MacIntel,60,61025ae37ef11b136ea224fe,,,,,,,,,648,26,72,1,0,0,response1disk,,7,9,12,1,0,0,rectangle,9,12,1,0,0,9,12,1,0,0,1,124,284,13,1,,,,,,,,
,,,,,,,,,,,,,FF,,,,,,,,1.267,,,,,,,,,,,,,,,,,,,,,,6101b6d51040dd4205b86c28,61036d06f428419531f2ed7c,2021-07-29_22h09.07.656,Simcolourproject_2stim_asymm_v5,2020.2.10,MacIntel,60,61025ae37ef11b136ea224fe,,,,,,,,,2172,-28,-61,1,0,0,response5disk,,3,-14,1,1,0,0,rectangle,-14,1,1,0,0,-14,1,1,0,0,1,125,285,122,1,,,,,,,,
,,,,,,,,,,,,,FF,,,,,,,,0.866,,,,,,,,,,,,,,,,,,,,,,6101b6d51040dd4205b86c28,61036d06f428419531f2ed7c,2021-07-29_22h09.07.656,Simcolourproject_2stim_asymm_v5,2020.2.10,MacIntel,60,61025ae37ef11b136ea224fe,,,,,,,,,1887,-26,-70,1,0,0,response5disk,,3,11,10,1,0,0,rectangle,11,10,1,0,0,11,10,1,0,0,1,126,286,19,1,,,,,,,,
,,,,,,,,,,,,,FF,,,,,,,,0.934,,,,,,,,,,,,,,,,,,,,,,6101b6d51040dd4205b86c28,61036d06f428419531f2ed7c,2021-07-29_22h09.07.656,Simcolourproject_2stim_asymm_v5,2020.2.10,MacIntel,60,61025ae37ef11b136ea224fe,,,,,,,,,4168,-39,93,1,0,0,response7disk,,0,-10,6,1,0,0,rectangle,-10,6,1,0,0,-10,6,1,0,0,1,127,287,12,1,,,,,,,,
,,,,,,,,,,,,,FF,,,,,,,,0.851,,,,,,,,,,,,,,,,,,,,,,6101b6d51040dd4205b86c28,61036d06f428419531f2ed7c,2021-07-29_22h09.07.656,Simcolourproject_2stim_asymm_v5,2020.2.10,MacIntel,60,61025ae37ef11b136ea224fe,,,,,,,,,3217,-32,-52,1,0,0,response5disk,,3,0,3,1,0,0,rectangle,0,3,1,0,0,0,3,1,0,0,1,128,288,26,1,,,,,,,,
,,,,,,,,,,,,,FF,,,,,,,,0.633,,,,,,,,,,,,,,,,,,,,,,6101b6d51040dd4205b86c28,61036d06f428419531f2ed7c,2021-07-29_22h09.07.656,Simcolourproject_2stim_asymm_v5,2020.2.10,MacIntel,60,61025ae37ef11b136ea224fe,,,,,,,,,3897,-38,-49,1,0,0,response5disk,,3,-5,-3,1,0,0,rectangle,-5,-3,1,0,0,-5,-3,1,0,0,1,129,289,27,1,,,,,,,,
,,,,,,,,,,,,,FF,,,,,,,,0.882,,,,,,,,,,,,,,,,,,,,,,6101b6d51040dd4205b86c28,61036d06f428419531f2ed7c,2021-07-29_22h09.07.656,Simcolourproject_2stim_asymm_v5,2020.2.10,MacIntel,60,61025ae37ef11b136ea224fe,,,,,,,,,769,55,-31,1,0,0,response3disk,,5,5,-15,1,0,0,rectangle,5,-15,1,0,0,5,-15,1,0,0,1,130,290,139,1,,,,,,,,
,,,,,,,,,,,,,FF,,,,,,,,0.599,,,,,,,,,,,,,,,,,,,,,,6101b6d51040dd4205b86c28,61036d06f428419531f2ed7c,2021-07-29_22h09.07.656,Simcolourproject_2stim_asymm_v5,2020.2.10,MacIntel,60,61025ae37ef11b136ea224fe,,,,,,,,,3521,58,-38,1,0,0,response3disk,,5,-1,16,1,0,0,rectangle,-67,42,1,0,0,2,-5,1,0,0,1,131,291,21,1,,response7disk_3,TRUE,1,1,"[292,219,58,180,149,99,27,161,206,77,312,102,171,200,50,44,236,136,5,26]",1.601,rectangle
,,,,,,,,,,,,,FF,,,,,,,,0.901,,,,,,,,,,,,,,,,,,,,,,6101b6d51040dd4205b86c28,61036d06f428419531f2ed7c,2021-07-29_22h09.07.656,Simcolourproject_2stim_asymm_v5,2020.2.10,MacIntel,60,61025ae37ef11b136ea224fe,,,,,,,,,3514,-37,-73,1,0,0,response5disk,,3,20,-10,1,0,0,rectangle,20,-10,1,0,0,20,-10,1,0,0,1,132,292,88,1,,,,,,,,
,,,,,,,,,,,,,FF,,,,,,,,0.836,,,,,,,,,,,,,,,,,,,,,,6101b6d51040dd4205b86c28,61036d06f428419531f2ed7c,2021-07-29_22h09.07.656,Simcolourproject_2stim_asymm_v5,2020.2.10,MacIntel,60,61025ae37ef11b136ea224fe,,,,,,,,,3618,40,-49,1,0,0,response3disk,,4,26,-2,1,0,0,rectangle,26,-2,1,0,0,26,-2,1,0,0,1,133,293,6,1,,,,,,,,
,,,,,,,,,,,,,FF,,,,,,,,0.565,,,,,,,,,,,,,,,,,,,,,,6101b6d51040dd4205b86c28,61036d06f428419531f2ed7c,2021-07-29_22h09.07.656,Simcolourproject_2stim_asymm_v5,2020.2.10,MacIntel,60,61025ae37ef11b136ea224fe,,,,,,,,,99,52,-32,1,0,0,response3disk,,5,18,0,1,0,0,rectangle,18,0,1,0,0,18,0,1,0,0,1,134,294,57,1,,,,,,,,
,,,,,,,,,,,,,FF,,,,,,,,0.584,,,,,,,,,,,,,,,,,,,,,,6101b6d51040dd4205b86c28,61036d06f428419531f2ed7c,2021-07-29_22h09.07.656,Simcolourproject_2stim_asymm_v5,2020.2.10,MacIntel,60,61025ae37ef11b136ea224fe,,,,,,,,,4266,55,-31,1,0,0,response3disk,,5,3,7,1,0,0,rectangle,3,7,1,0,0,3,7,1,0,0,1,135,295,109,1,,,,,,,,
,,,,,,,,,,,,,FF,,,,,,,,0.851,,,,,,,,,,,,,,,,,,,,,,6101b6d51040dd4205b86c28,61036d06f428419531f2ed7c,2021-07-29_22h09.07.656,Simcolourproject_2stim_asymm_v5,2020.2.10,MacIntel,60,61025ae37ef11b136ea224fe,,,,,,,,,3434,-24,78,1,0,0,response7disk,,0,-17,13,1,0,0,rectangle,-17,13,1,0,0,-17,13,1,0,0,1,136,296,140,1,,,,,,,,
,,,,,,,,,,,,,FF,,,,,,,,0.683,,,,,,,,,,,,,,,,,,,,,,6101b6d51040dd4205b86c28,61036d06f428419531f2ed7c,2021-07-29_22h09.07.656,Simcolourproject_2stim_asymm_v5,2020.2.10,MacIntel,60,61025ae37ef11b136ea224fe,,,,,,,,,1322,51,-26,1,0,0,response3disk,,5,-5,5,1,0,0,rectangle,-5,5,1,0,0,-5,5,1,0,0,1,137,297,24,1,,,,,,,,
,,,,,,,,,,,,,FF,,,,,,,,0.6,,,,,,,,,,,,,,,,,,,,,,6101b6d51040dd4205b86c28,61036d06f428419531f2ed7c,2021-07-29_22h09.07.656,Simcolourproject_2stim_asymm_v5,2020.2.10,MacIntel,60,61025ae37ef11b136ea224fe,,,,,,,,,2259,68,50,1,0,0,response1disk,,6,7,9,1,0,0,rectangle,7,9,1,0,0,7,9,1,0,0,1,138,298,84,1,,,,,,,,
,,,,,,,,,,,,,FF,,,,,,,,0.567,,,,,,,,,,,,,,,,,,,,,,6101b6d51040dd4205b86c28,61036d06f428419531f2ed7c,2021-07-29_22h09.07.656,Simcolourproject_2stim_asymm_v5,2020.2.10,MacIntel,60,61025ae37ef11b136ea224fe,,,,,,,,,3349,65,36,1,0,0,response1disk,,6,9,15,1,0,0,rectangle,9,15,1,0,0,9,15,1,0,0,1,139,299,52,1,,,,,,,,
