key_resp.keys,key_resp.rt,key_resp_14.keys,key_resp_14.rt,key_resp_15.keys,key_resp_15.rt,key_resp_17.keys,key_resp_17.rt,key_resp_9.keys,key_resp_9.rt,key_resp_10.keys,key_resp_10.rt,practice_comparison,Ecc,mouse_5.x,mouse_5.y,mouse_5.leftButton,mouse_5.midButton,mouse_5.rightButton,mouse_5.clicked_name,pracsimilarity,response_time,mouse_10.x,mouse_10.y,mouse_10.leftButton,mouse_10.midButton,mouse_10.rightButton,mouse_10.clicked_name,mouse_7.x,mouse_7.y,mouse_7.leftButton,mouse_7.midButton,mouse_7.rightButton,mouse_6.x,mouse_6.y,mouse_6.leftButton,mouse_6.midButton,mouse_6.rightButton,duringprac.thisRepN,duringprac.thisTrialN,duringprac.thisN,duringprac.thisIndex,duringprac.ran,participant,session,date,expName,psychopyVersion,OS,frameRate,study_id,mouse_7.clicked_name,catchpracsimilarity,catch_response_time,catchnumberprac,catchtrialorderprac,mouse_6.clicked_name,key_resp_22.keys,key_resp_22.rt,realcomparison,mouse.x,mouse.y,mouse.leftButton,mouse.midButton,mouse.rightButton,mouse.clicked_name,Colour2,similarity,mouse_2.x,mouse_2.y,mouse_2.leftButton,mouse_2.midButton,mouse_2.rightButton,mouse_2.clicked_name,mouse_3.x,mouse_3.y,mouse_3.leftButton,mouse_3.midButton,mouse_3.rightButton,mouse_11.x,mouse_11.y,mouse_11.leftButton,mouse_11.midButton,mouse_11.rightButton,trials_2.thisRepN,trials_2.thisTrialN,trials_2.thisN,trials_2.thisIndex,trials_2.ran,Colour1,mouse_3.clicked_name,catchornah,catchsimilarity,catchnumber,catchtrialorder,catchRT,mouse_11.clicked_name
space,1.676085,space,26.394065,space,42.14508,n,5.555675,space,1.30062,space,5.14208,129,PF,-29.26171875,67.12890625,1,0,0,response7disk_5,0,6.13421,1.7578125,1.859375,1,0,0,rectangle_8,1.7578125,1.859375,1,0,0,1.7578125,1.859375,1,0,0,0,0,0,6,1,61010bd98095d440ada024e4,61036c1396564cde52710f53,2021-07-29_20h05.15.927,Simcolourproject_2stim_asymm_v5,2020.2.10,MacIntel,60,61025ae37ef11b136ea224fe,,,,,,,,,,,,,,,,,,,,,,,,,,,,,,,,,,,,,,,,,,,,,,
,,,,,,,,,,,,68,FF,-82.20703125,-44.46484375,1,0,0,response5disk_5,2,10.79515,-0.05078125,-0.08984375,1,0,0,rectangle_8,44.44140625,-97.09375,1,0,0,6.09375,-12.734375,1,0,0,0,1,1,3,1,61010bd98095d440ada024e4,61036c1396564cde52710f53,2021-07-29_20h05.15.927,Simcolourproject_2stim_asymm_v5,2020.2.10,MacIntel,60,61025ae37ef11b136ea224fe,response3disk_7,4,8.20503,4,"[2,5]",rectangle_4,,,,,,,,,,,,,,,,,,,,,,,,,,,,,,,,,,,,,,,,
,,,,,,,,,,,,81,PF,46.84375,94.96484375,1,0,0,response1disk_5,7,10.96238,-3.62890625,4.77734375,1,0,0,rectangle_8,-3.62890625,4.77734375,1,0,0,-3.62890625,4.77734375,1,0,0,0,2,2,4,1,61010bd98095d440ada024e4,61036c1396564cde52710f53,2021-07-29_20h05.15.927,Simcolourproject_2stim_asymm_v5,2020.2.10,MacIntel,60,61025ae37ef11b136ea224fe,,,,,,,,,,,,,,,,,,,,,,,,,,,,,,,,,,,,,,,,,,,,,,
,,,,,,,,,,,,54,FF,-46.15625,-103.5429688,1,0,0,response5disk_5,3,8.923795,-1.859375,0.62890625,1,0,0,rectangle_8,-1.859375,0.62890625,1,0,0,-1.859375,0.62890625,1,0,0,0,3,3,0,1,61010bd98095d440ada024e4,61036c1396564cde52710f53,2021-07-29_20h05.15.927,Simcolourproject_2stim_asymm_v5,2020.2.10,MacIntel,60,61025ae37ef11b136ea224fe,,,,,,,,,,,,,,,,,,,,,,,,,,,,,,,,,,,,,,,,,,,,,,
,,,,,,,,,,,,159,FF,98.7109375,38.1484375,1,0,0,response1disk_5,6,3.84392,0.6796875,-7.1796875,1,0,0,rectangle_8,43.125,-82.10546875,1,0,0,-4.44140625,5.640625,1,0,0,0,4,4,5,1,61010bd98095d440ada024e4,61036c1396564cde52710f53,2021-07-29_20h05.15.927,Simcolourproject_2stim_asymm_v5,2020.2.10,MacIntel,60,61025ae37ef11b136ea224fe,response3disk_7,4,1.773195,4,"[2,5]",rectangle_4,,,,,,,,,,,,,,,,,,,,,,,,,,,,,,,,,,,,,,,,
,,,,,,,,,,,,148,PF,-103.3984375,-44.703125,1,0,0,response5disk_5,2,2.17101,1.47265625,-3.59765625,1,0,0,rectangle_8,1.47265625,-3.59765625,1,0,0,1.47265625,-3.59765625,1,0,0,0,5,5,2,1,61010bd98095d440ada024e4,61036c1396564cde52710f53,2021-07-29_20h05.15.927,Simcolourproject_2stim_asymm_v5,2020.2.10,MacIntel,60,61025ae37ef11b136ea224fe,,,,,,,,,,,,,,,,,,,,,,,,,,,,,,,,,,,,,,,,,,,,,,
,,,,,,,,,,,,11,PF,115.078125,61.421875,1,0,0,response1disk_5,6,5.75027,3.8046875,0.484375,1,0,0,rectangle_8,3.8046875,0.484375,1,0,0,3.8046875,0.484375,1,0,0,0,6,6,1,1,61010bd98095d440ada024e4,61036c1396564cde52710f53,2021-07-29_20h05.15.927,Simcolourproject_2stim_asymm_v5,2020.2.10,MacIntel,60,61025ae37ef11b136ea224fe,,,,,,,,,,,,,,,,,,,,,,,,,,,,,,,,,,,,,,,,,,,,,,
,,,,,,,,,,,,,FF,,,,,,,,5.49866,,,,,,,,,,,,,,,,,,,,,,61010bd98095d440ada024e4,61036c1396564cde52710f53,2021-07-29_20h05.15.927,Simcolourproject_2stim_asymm_v5,2020.2.10,MacIntel,60,61025ae37ef11b136ea224fe,,,,,,,space,3.559605,4047,-57.84765625,-85.66796875,1,0,0,response5disk,,3,-19.48046875,-5.796875,1,0,0,rectangle,-19.48046875,-5.796875,1,0,0,-19.48046875,-5.796875,1,0,0,0,0,0,67,1,,,,,,,,
,,,,,,,,,,,,,FF,,,,,,,,4.12752,,,,,,,,,,,,,,,,,,,,,,61010bd98095d440ada024e4,61036c1396564cde52710f53,2021-07-29_20h05.15.927,Simcolourproject_2stim_asymm_v5,2020.2.10,MacIntel,60,61025ae37ef11b136ea224fe,,,,,,,,,1671,-64.28515625,-114.3945313,1,0,0,response5disk,,3,1.4765625,5.7109375,1,0,0,rectangle,-100.5976563,40.0078125,1,0,0,9.71484375,5.59765625,1,0,0,0,1,1,134,1,,response7disk_3,TRUE,1,1,"[227,92,307,310,288,4,92,130,69,119,95,118,298,95,219,305,251,270,2,254]",6.115075,rectangle
,,,,,,,,,,,,,FF,,,,,,,,3.86004,,,,,,,,,,,,,,,,,,,,,,61010bd98095d440ada024e4,61036c1396564cde52710f53,2021-07-29_20h05.15.927,Simcolourproject_2stim_asymm_v5,2020.2.10,MacIntel,60,61025ae37ef11b136ea224fe,,,,,,,,,3356,64.95703125,93.3828125,1,0,0,response1disk,,7,4.06640625,2.125,1,0,0,rectangle,4.06640625,2.125,1,0,0,4.06640625,2.125,1,0,0,0,2,2,15,1,,,,,,,,
,,,,,,,,,,,,,FF,,,,,,,,2.240655,,,,,,,,,,,,,,,,,,,,,,61010bd98095d440ada024e4,61036c1396564cde52710f53,2021-07-29_20h05.15.927,Simcolourproject_2stim_asymm_v5,2020.2.10,MacIntel,60,61025ae37ef11b136ea224fe,,,,,,,,,1036,32.87109375,-60.69921875,1,0,0,response3disk,,4,8.9609375,-0.0625,1,0,0,rectangle,64.67578125,92.8984375,1,0,0,-6.69921875,4.37109375,1,0,0,0,3,3,20,1,,response1disk_3,TRUE,7,7,"[227,92,307,310,288,4,92,130,69,119,95,118,298,95,219,305,251,270,2,254]",1.604335,rectangle
,,,,,,,,,,,,,FF,,,,,,,,4.744325,,,,,,,,,,,,,,,,,,,,,,61010bd98095d440ada024e4,61036c1396564cde52710f53,2021-07-29_20h05.15.927,Simcolourproject_2stim_asymm_v5,2020.2.10,MacIntel,60,61025ae37ef11b136ea224fe,,,,,,,,,3410,85.75390625,-35.8515625,1,0,0,response3disk,,5,13.62890625,-9.98828125,1,0,0,rectangle,13.62890625,-9.98828125,1,0,0,13.62890625,-9.98828125,1,0,0,0,4,4,62,1,,,,,,,,
,,,,,,,,,,,,,FF,,,,,,,,1.454565,,,,,,,,,,,,,,,,,,,,,,61010bd98095d440ada024e4,61036c1396564cde52710f53,2021-07-29_20h05.15.927,Simcolourproject_2stim_asymm_v5,2020.2.10,MacIntel,60,61025ae37ef11b136ea224fe,,,,,,,,,1172,40.0390625,93.62109375,1,0,0,response1disk,,7,-7.6796875,0.578125,1,0,0,rectangle,-7.6796875,0.578125,1,0,0,-7.6796875,0.578125,1,0,0,0,5,5,115,1,,,,,,,,
,,,,,,,,,,,,,FF,,,,,,,,2.606995,,,,,,,,,,,,,,,,,,,,,,61010bd98095d440ada024e4,61036c1396564cde52710f53,2021-07-29_20h05.15.927,Simcolourproject_2stim_asymm_v5,2020.2.10,MacIntel,60,61025ae37ef11b136ea224fe,,,,,,,,,2793,98.44921875,-70.53125,1,0,0,response3disk,,5,-20.2890625,5.8828125,1,0,0,rectangle,-20.2890625,5.8828125,1,0,0,-20.2890625,5.8828125,1,0,0,0,6,6,97,1,,,,,,,,
,,,,,,,,,,,,,FF,,,,,,,,3.058635,,,,,,,,,,,,,,,,,,,,,,61010bd98095d440ada024e4,61036c1396564cde52710f53,2021-07-29_20h05.15.927,Simcolourproject_2stim_asymm_v5,2020.2.10,MacIntel,60,61025ae37ef11b136ea224fe,,,,,,,,,1026,44.0546875,-75.3671875,1,0,0,response3disk,,4,5.7734375,9.4375,1,0,0,rectangle,5.7734375,9.4375,1,0,0,5.7734375,9.4375,1,0,0,0,7,7,103,1,,,,,,,,
,,,,,,,,,,,,,FF,,,,,,,,2.656105,,,,,,,,,,,,,,,,,,,,,,61010bd98095d440ada024e4,61036c1396564cde52710f53,2021-07-29_20h05.15.927,Simcolourproject_2stim_asymm_v5,2020.2.10,MacIntel,60,61025ae37ef11b136ea224fe,,,,,,,,,1814,46.66015625,89.15625,1,0,0,response1disk,,7,3.40625,1.30078125,1,0,0,rectangle,3.40625,1.30078125,1,0,0,3.40625,1.30078125,1,0,0,0,8,8,148,1,,,,,,,,
,,,,,,,,,,,,,FF,,,,,,,,5.03043,,,,,,,,,,,,,,,,,,,,,,61010bd98095d440ada024e4,61036c1396564cde52710f53,2021-07-29_20h05.15.927,Simcolourproject_2stim_asymm_v5,2020.2.10,MacIntel,60,61025ae37ef11b136ea224fe,,,,,,,,,2598,60.39453125,-78.60546875,1,0,0,response3disk,,4,5.890625,-8.1484375,1,0,0,rectangle,5.890625,-8.1484375,1,0,0,5.890625,-8.1484375,1,0,0,0,9,9,102,1,,,,,,,,
,,,,,,,,,,,,,FF,,,,,,,,5.31417,,,,,,,,,,,,,,,,,,,,,,61010bd98095d440ada024e4,61036c1396564cde52710f53,2021-07-29_20h05.15.927,Simcolourproject_2stim_asymm_v5,2020.2.10,MacIntel,60,61025ae37ef11b136ea224fe,,,,,,,,,3917,-33.1875,-74.6484375,1,0,0,response5disk,,3,1.0625,4.47265625,1,0,0,rectangle,1.0625,4.47265625,1,0,0,1.0625,4.47265625,1,0,0,0,10,10,112,1,,,,,,,,
,,,,,,,,,,,,,FF,,,,,,,,4.061005,,,,,,,,,,,,,,,,,,,,,,61010bd98095d440ada024e4,61036c1396564cde52710f53,2021-07-29_20h05.15.927,Simcolourproject_2stim_asymm_v5,2020.2.10,MacIntel,60,61025ae37ef11b136ea224fe,,,,,,,,,2742,90.8828125,40.91015625,1,0,0,response1disk,,6,-5.07421875,-8.9921875,1,0,0,rectangle,-5.07421875,-8.9921875,1,0,0,-5.07421875,-8.9921875,1,0,0,0,11,11,63,1,,,,,,,,
,,,,,,,,,,,,,FF,,,,,,,,3.976915,,,,,,,,,,,,,,,,,,,,,,61010bd98095d440ada024e4,61036c1396564cde52710f53,2021-07-29_20h05.15.927,Simcolourproject_2stim_asymm_v5,2020.2.10,MacIntel,60,61025ae37ef11b136ea224fe,,,,,,,,,297,105.4960938,56.5390625,1,0,0,response1disk,,6,-4.609375,-0.5703125,1,0,0,rectangle,-4.609375,-0.5703125,1,0,0,-4.609375,-0.5703125,1,0,0,0,12,12,17,1,,,,,,,,
,,,,,,,,,,,,,FF,,,,,,,,1.854435,,,,,,,,,,,,,,,,,,,,,,61010bd98095d440ada024e4,61036c1396564cde52710f53,2021-07-29_20h05.15.927,Simcolourproject_2stim_asymm_v5,2020.2.10,MacIntel,60,61025ae37ef11b136ea224fe,,,,,,,,,2748,80.85546875,42.49609375,1,0,0,response1disk,,6,-2.61328125,2.12109375,1,0,0,rectangle,-2.61328125,2.12109375,1,0,0,-2.61328125,2.12109375,1,0,0,0,13,13,117,1,,,,,,,,
,,,,,,,,,,,,,FF,,,,,,,,2.72442,,,,,,,,,,,,,,,,,,,,,,61010bd98095d440ada024e4,61036c1396564cde52710f53,2021-07-29_20h05.15.927,Simcolourproject_2stim_asymm_v5,2020.2.10,MacIntel,60,61025ae37ef11b136ea224fe,,,,,,,,,607,-52.7421875,-104.4375,1,0,0,response5disk,,3,11.62109375,-11.78515625,1,0,0,rectangle,11.62109375,-11.78515625,1,0,0,11.62109375,-11.78515625,1,0,0,0,14,14,50,1,,,,,,,,
,,,,,,,,,,,,,FF,,,,,,,,2.991145,,,,,,,,,,,,,,,,,,,,,,61010bd98095d440ada024e4,61036c1396564cde52710f53,2021-07-29_20h05.15.927,Simcolourproject_2stim_asymm_v5,2020.2.10,MacIntel,60,61025ae37ef11b136ea224fe,,,,,,,,,930,104.0976563,60.24609375,1,0,0,response1disk,,6,12.90234375,0.265625,1,0,0,rectangle,12.90234375,0.265625,1,0,0,12.90234375,0.265625,1,0,0,0,15,15,25,1,,,,,,,,
,,,,,,,,,,,,,FF,,,,,,,,3.4094,,,,,,,,,,,,,,,,,,,,,,61010bd98095d440ada024e4,61036c1396564cde52710f53,2021-07-29_20h05.15.927,Simcolourproject_2stim_asymm_v5,2020.2.10,MacIntel,60,61025ae37ef11b136ea224fe,,,,,,,,,4196,83.9765625,-56.96484375,1,0,0,response3disk,,5,-0.44140625,-9.58203125,1,0,0,rectangle,-0.44140625,-9.58203125,1,0,0,-0.44140625,-9.58203125,1,0,0,0,16,16,157,1,,,,,,,,
,,,,,,,,,,,,,FF,,,,,,,,2.056685,,,,,,,,,,,,,,,,,,,,,,61010bd98095d440ada024e4,61036c1396564cde52710f53,2021-07-29_20h05.15.927,Simcolourproject_2stim_asymm_v5,2020.2.10,MacIntel,60,61025ae37ef11b136ea224fe,,,,,,,,,2442,35.1796875,-89.44921875,1,0,0,response3disk,,4,-2.1171875,-12.88671875,1,0,0,rectangle,-2.1171875,-12.88671875,1,0,0,-2.1171875,-12.88671875,1,0,0,0,17,17,11,1,,,,,,,,
,,,,,,,,,,,,,FF,,,,,,,,2.53935,,,,,,,,,,,,,,,,,,,,,,61010bd98095d440ada024e4,61036c1396564cde52710f53,2021-07-29_20h05.15.927,Simcolourproject_2stim_asymm_v5,2020.2.10,MacIntel,60,61025ae37ef11b136ea224fe,,,,,,,,,1567,48.3125,-91.63671875,1,0,0,response3disk,,4,3.30859375,-5.56640625,1,0,0,rectangle,3.30859375,-5.56640625,1,0,0,3.30859375,-5.56640625,1,0,0,0,18,18,45,1,,,,,,,,
,,,,,,,,,,,,,FF,,,,,,,,3.359415,,,,,,,,,,,,,,,,,,,,,,61010bd98095d440ada024e4,61036c1396564cde52710f53,2021-07-29_20h05.15.927,Simcolourproject_2stim_asymm_v5,2020.2.10,MacIntel,60,61025ae37ef11b136ea224fe,,,,,,,,,2703,85.45703125,45.9921875,1,0,0,response1disk,,6,0.33203125,2.0390625,1,0,0,rectangle,0.33203125,2.0390625,1,0,0,0.33203125,2.0390625,1,0,0,0,19,19,91,1,,,,,,,,
,,,,,,,,,,,,,FF,,,,,,,,3.05834,,,,,,,,,,,,,,,,,,,,,,61010bd98095d440ada024e4,61036c1396564cde52710f53,2021-07-29_20h05.15.927,Simcolourproject_2stim_asymm_v5,2020.2.10,MacIntel,60,61025ae37ef11b136ea224fe,,,,,,,,,1578,43.90625,-86.72265625,1,0,0,response3disk,,4,10.2265625,8.2421875,1,0,0,rectangle,10.2265625,8.2421875,1,0,0,10.2265625,8.2421875,1,0,0,0,20,20,80,1,,,,,,,,
,,,,,,,,,,,,,FF,,,,,,,,5.799035,,,,,,,,,,,,,,,,,,,,,,61010bd98095d440ada024e4,61036c1396564cde52710f53,2021-07-29_20h05.15.927,Simcolourproject_2stim_asymm_v5,2020.2.10,MacIntel,60,61025ae37ef11b136ea224fe,,,,,,,,,3423,34.75,-83.0703125,1,0,0,response3disk,,4,10.609375,-8.83203125,1,0,0,rectangle,10.609375,-8.83203125,1,0,0,10.609375,-8.83203125,1,0,0,0,21,21,75,1,,,,,,,,
,,,,,,,,,,,,,FF,,,,,,,,1.72379,,,,,,,,,,,,,,,,,,,,,,61010bd98095d440ada024e4,61036c1396564cde52710f53,2021-07-29_20h05.15.927,Simcolourproject_2stim_asymm_v5,2020.2.10,MacIntel,60,61025ae37ef11b136ea224fe,,,,,,,,,1770,99.20703125,59.26953125,1,0,0,response1disk,,6,-3.52734375,-4.28515625,1,0,0,rectangle,-3.52734375,-4.28515625,1,0,0,-3.52734375,-4.28515625,1,0,0,0,22,22,41,1,,,,,,,,
,,,,,,,,,,,,,FF,,,,,,,,3.37555,,,,,,,,,,,,,,,,,,,,,,61010bd98095d440ada024e4,61036c1396564cde52710f53,2021-07-29_20h05.15.927,Simcolourproject_2stim_asymm_v5,2020.2.10,MacIntel,60,61025ae37ef11b136ea224fe,,,,,,,,,2744,74.2265625,-49.56640625,1,0,0,response3disk,,5,20.234375,-5.08203125,1,0,0,rectangle,20.234375,-5.08203125,1,0,0,20.234375,-5.08203125,1,0,0,0,23,23,36,1,,,,,,,,
,,,,,,,,,,,,,FF,,,,,,,,2.072855,,,,,,,,,,,,,,,,,,,,,,61010bd98095d440ada024e4,61036c1396564cde52710f53,2021-07-29_20h05.15.927,Simcolourproject_2stim_asymm_v5,2020.2.10,MacIntel,60,61025ae37ef11b136ea224fe,,,,,,,,,668,98.859375,55.63671875,1,0,0,response1disk,,6,-7.7421875,-6.4609375,1,0,0,rectangle,-7.7421875,-6.4609375,1,0,0,-7.7421875,-6.4609375,1,0,0,0,24,24,152,1,,,,,,,,
,,,,,,,,,,,,,FF,,,,,,,,1.102445,,,,,,,,,,,,,,,,,,,,,,61010bd98095d440ada024e4,61036c1396564cde52710f53,2021-07-29_20h05.15.927,Simcolourproject_2stim_asymm_v5,2020.2.10,MacIntel,60,61025ae37ef11b136ea224fe,,,,,,,,,1716,45.12109375,104.7382813,1,0,0,response1disk,,7,-8.640625,-10.07421875,1,0,0,rectangle,-8.640625,-10.07421875,1,0,0,-8.640625,-10.07421875,1,0,0,0,25,25,32,1,,,,,,,,
,,,,,,,,,,,,,FF,,,,,,,,2.05594,,,,,,,,,,,,,,,,,,,,,,61010bd98095d440ada024e4,61036c1396564cde52710f53,2021-07-29_20h05.15.927,Simcolourproject_2stim_asymm_v5,2020.2.10,MacIntel,60,61025ae37ef11b136ea224fe,,,,,,,,,2351,-40.74609375,-95.22265625,1,0,0,response5disk,,3,-4.875,10.4453125,1,0,0,rectangle,-4.875,10.4453125,1,0,0,-4.875,10.4453125,1,0,0,0,26,26,113,1,,,,,,,,
,,,,,,,,,,,,,FF,,,,,,,,4.412145,,,,,,,,,,,,,,,,,,,,,,61010bd98095d440ada024e4,61036c1396564cde52710f53,2021-07-29_20h05.15.927,Simcolourproject_2stim_asymm_v5,2020.2.10,MacIntel,60,61025ae37ef11b136ea224fe,,,,,,,,,2738,37,-69.33203125,1,0,0,response3disk,,4,17.140625,-12.17578125,1,0,0,rectangle,17.140625,-12.17578125,1,0,0,17.140625,-12.17578125,1,0,0,0,27,27,131,1,,,,,,,,
,,,,,,,,,,,,,FF,,,,,,,,3.15879,,,,,,,,,,,,,,,,,,,,,,61010bd98095d440ada024e4,61036c1396564cde52710f53,2021-07-29_20h05.15.927,Simcolourproject_2stim_asymm_v5,2020.2.10,MacIntel,60,61025ae37ef11b136ea224fe,,,,,,,,,3425,-85.046875,60.5625,1,0,0,response7disk,,1,6.85546875,5.3046875,1,0,0,rectangle,6.85546875,5.3046875,1,0,0,6.85546875,5.3046875,1,0,0,0,28,28,144,1,,,,,,,,
,,,,,,,,,,,,,FF,,,,,,,,1.87161,,,,,,,,,,,,,,,,,,,,,,61010bd98095d440ada024e4,61036c1396564cde52710f53,2021-07-29_20h05.15.927,Simcolourproject_2stim_asymm_v5,2020.2.10,MacIntel,60,61025ae37ef11b136ea224fe,,,,,,,,,1324,34.234375,-109.8710938,1,0,0,response3disk,,4,13.42578125,-7.9921875,1,0,0,rectangle,13.42578125,-7.9921875,1,0,0,13.42578125,-7.9921875,1,0,0,0,29,29,23,1,,,,,,,,
,,,,,,,,,,,,,FF,,,,,,,,1.26993,,,,,,,,,,,,,,,,,,,,,,61010bd98095d440ada024e4,61036c1396564cde52710f53,2021-07-29_20h05.15.927,Simcolourproject_2stim_asymm_v5,2020.2.10,MacIntel,60,61025ae37ef11b136ea224fe,,,,,,,,,1459,-106.921875,-46.98046875,1,0,0,response5disk,,2,-13.83984375,1.70703125,1,0,0,rectangle,-13.83984375,1.70703125,1,0,0,-13.83984375,1.70703125,1,0,0,0,30,30,153,1,,,,,,,,
,,,,,,,,,,,,,FF,,,,,,,,3.928245,,,,,,,,,,,,,,,,,,,,,,61010bd98095d440ada024e4,61036c1396564cde52710f53,2021-07-29_20h05.15.927,Simcolourproject_2stim_asymm_v5,2020.2.10,MacIntel,60,61025ae37ef11b136ea224fe,,,,,,,,,1236,100.2148438,-49.17578125,1,0,0,response3disk,,5,7.796875,-6.8984375,1,0,0,rectangle,7.796875,-6.8984375,1,0,0,7.796875,-6.8984375,1,0,0,0,31,31,0,1,,,,,,,,
,,,,,,,,,,,,,FF,,,,,,,,1.50393,,,,,,,,,,,,,,,,,,,,,,61010bd98095d440ada024e4,61036c1396564cde52710f53,2021-07-29_20h05.15.927,Simcolourproject_2stim_asymm_v5,2020.2.10,MacIntel,60,61025ae37ef11b136ea224fe,,,,,,,,,699,47.6796875,-93.32421875,1,0,0,response3disk,,4,4.890625,8.8046875,1,0,0,rectangle,4.890625,8.8046875,1,0,0,4.890625,8.8046875,1,0,0,0,32,32,9,1,,,,,,,,
,,,,,,,,,,,,,FF,,,,,,,,2.775255,,,,,,,,,,,,,,,,,,,,,,61010bd98095d440ada024e4,61036c1396564cde52710f53,2021-07-29_20h05.15.927,Simcolourproject_2stim_asymm_v5,2020.2.10,MacIntel,60,61025ae37ef11b136ea224fe,,,,,,,,,3073,105.96875,-56.5078125,1,0,0,response3disk,,5,12.1875,-3.6875,1,0,0,rectangle,12.1875,-3.6875,1,0,0,12.1875,-3.6875,1,0,0,0,33,33,1,1,,,,,,,,
,,,,,,,,,,,,,FF,,,,,,,,1.28623,,,,,,,,,,,,,,,,,,,,,,61010bd98095d440ada024e4,61036c1396564cde52710f53,2021-07-29_20h05.15.927,Simcolourproject_2stim_asymm_v5,2020.2.10,MacIntel,60,61025ae37ef11b136ea224fe,,,,,,,,,3205,-63.20703125,-100.6367188,1,0,0,response5disk,,3,1.94921875,0.72265625,1,0,0,rectangle,1.94921875,0.72265625,1,0,0,1.94921875,0.72265625,1,0,0,0,34,34,114,1,,,,,,,,
,,,,,,,,,,,,,FF,,,,,,,,1.12501,,,,,,,,,,,,,,,,,,,,,,61010bd98095d440ada024e4,61036c1396564cde52710f53,2021-07-29_20h05.15.927,Simcolourproject_2stim_asymm_v5,2020.2.10,MacIntel,60,61025ae37ef11b136ea224fe,,,,,,,,,3045,-42.2890625,81.83203125,1,0,0,response7disk,,0,9.08203125,-0.41796875,1,0,0,rectangle,9.08203125,-0.41796875,1,0,0,9.08203125,-0.41796875,1,0,0,0,35,35,111,1,,,,,,,,
,,,,,,,,,,,,,FF,,,,,,,,4.24533,,,,,,,,,,,,,,,,,,,,,,61010bd98095d440ada024e4,61036c1396564cde52710f53,2021-07-29_20h05.15.927,Simcolourproject_2stim_asymm_v5,2020.2.10,MacIntel,60,61025ae37ef11b136ea224fe,,,,,,,,,768,96.140625,-43.1640625,1,0,0,response3disk,,5,3.109375,1.26953125,1,0,0,rectangle,3.109375,1.26953125,1,0,0,3.109375,1.26953125,1,0,0,0,36,36,156,1,,,,,,,,
,,,,,,,,,,,,,FF,,,,,,,,1.87159,,,,,,,,,,,,,,,,,,,,,,61010bd98095d440ada024e4,61036c1396564cde52710f53,2021-07-29_20h05.15.927,Simcolourproject_2stim_asymm_v5,2020.2.10,MacIntel,60,61025ae37ef11b136ea224fe,,,,,,,,,3452,85.9140625,-50.734375,1,0,0,response3disk,,5,1.7890625,-3.27734375,1,0,0,rectangle,1.7890625,-3.27734375,1,0,0,1.7890625,-3.27734375,1,0,0,0,37,37,56,1,,,,,,,,
,,,,,,,,,,,,,FF,,,,,,,,5.013525,,,,,,,,,,,,,,,,,,,,,,61010bd98095d440ada024e4,61036c1396564cde52710f53,2021-07-29_20h05.15.927,Simcolourproject_2stim_asymm_v5,2020.2.10,MacIntel,60,61025ae37ef11b136ea224fe,,,,,,,,,1733,36.52734375,-86.37109375,1,0,0,response3disk,,4,10.0546875,-3.390625,1,0,0,rectangle,10.0546875,-3.390625,1,0,0,10.0546875,-3.390625,1,0,0,0,38,38,126,1,,,,,,,,
,,,,,,,,,,,,,FF,,,,,,,,2.289475,,,,,,,,,,,,,,,,,,,,,,61010bd98095d440ada024e4,61036c1396564cde52710f53,2021-07-29_20h05.15.927,Simcolourproject_2stim_asymm_v5,2020.2.10,MacIntel,60,61025ae37ef11b136ea224fe,,,,,,,,,315,104.5507813,48.94921875,1,0,0,response1disk,,6,1.26953125,2.99609375,1,0,0,rectangle,1.26953125,2.99609375,1,0,0,1.26953125,2.99609375,1,0,0,0,39,39,143,1,,,,,,,,
,,,,,,,,,,,,,FF,,,,,,,,1.22048,,,,,,,,,,,,,,,,,,,,,,61010bd98095d440ada024e4,61036c1396564cde52710f53,2021-07-29_20h05.15.927,Simcolourproject_2stim_asymm_v5,2020.2.10,MacIntel,60,61025ae37ef11b136ea224fe,,,,,,,,,906,91.78515625,53.515625,1,0,0,response1disk,,6,1.0625,9.2734375,1,0,0,rectangle,1.0625,9.2734375,1,0,0,1.0625,9.2734375,1,0,0,0,40,40,27,1,,,,,,,,
,,,,,,,,,,,,,FF,,,,,,,,1.15329,,,,,,,,,,,,,,,,,,,,,,61010bd98095d440ada024e4,61036c1396564cde52710f53,2021-07-29_20h05.15.927,Simcolourproject_2stim_asymm_v5,2020.2.10,MacIntel,60,61025ae37ef11b136ea224fe,,,,,,,,,3087,48.4140625,97.65234375,1,0,0,response1disk,,7,4.78125,2.92578125,1,0,0,rectangle,4.78125,2.92578125,1,0,0,4.78125,2.92578125,1,0,0,0,41,41,151,1,,,,,,,,
,,,,,,,,,,,,,FF,,,,,,,,2.3392,,,,,,,,,,,,,,,,,,,,,,61010bd98095d440ada024e4,61036c1396564cde52710f53,2021-07-29_20h05.15.927,Simcolourproject_2stim_asymm_v5,2020.2.10,MacIntel,60,61025ae37ef11b136ea224fe,,,,,,,,,1829,-54.80078125,-84.26171875,1,0,0,response5disk,,3,2.99609375,-1.875,1,0,0,rectangle,2.99609375,-1.875,1,0,0,2.99609375,-1.875,1,0,0,0,42,42,109,1,,,,,,,,
,,,,,,,,,,,,,FF,,,,,,,,1.4704,,,,,,,,,,,,,,,,,,,,,,61010bd98095d440ada024e4,61036c1396564cde52710f53,2021-07-29_20h05.15.927,Simcolourproject_2stim_asymm_v5,2020.2.10,MacIntel,60,61025ae37ef11b136ea224fe,,,,,,,,,913,42.94921875,-84.59765625,1,0,0,response3disk,,4,6.203125,6.03125,1,0,0,rectangle,6.203125,6.03125,1,0,0,6.203125,6.03125,1,0,0,0,43,43,129,1,,,,,,,,
,,,,,,,,,,,,,FF,,,,,,,,1.90783,,,,,,,,,,,,,,,,,,,,,,61010bd98095d440ada024e4,61036c1396564cde52710f53,2021-07-29_20h05.15.927,Simcolourproject_2stim_asymm_v5,2020.2.10,MacIntel,60,61025ae37ef11b136ea224fe,,,,,,,,,1965,-93.70703125,-40.9609375,1,0,0,response5disk,,2,7.49609375,-0.5234375,1,0,0,rectangle,7.49609375,-0.5234375,1,0,0,7.49609375,-0.5234375,1,0,0,0,44,44,65,1,,,,,,,,
,,,,,,,,,,,,,FF,,,,,,,,1.62025,,,,,,,,,,,,,,,,,,,,,,61010bd98095d440ada024e4,61036c1396564cde52710f53,2021-07-29_20h05.15.927,Simcolourproject_2stim_asymm_v5,2020.2.10,MacIntel,60,61025ae37ef11b136ea224fe,,,,,,,,,463,-55.5,-86.875,1,0,0,response5disk,,3,-12.7265625,-8.3828125,1,0,0,rectangle,-12.7265625,-8.3828125,1,0,0,-12.7265625,-8.3828125,1,0,0,0,45,45,125,1,,,,,,,,
,,,,,,,,,,,,,FF,,,,,,,,1.068965,,,,,,,,,,,,,,,,,,,,,,61010bd98095d440ada024e4,61036c1396564cde52710f53,2021-07-29_20h05.15.927,Simcolourproject_2stim_asymm_v5,2020.2.10,MacIntel,60,61025ae37ef11b136ea224fe,,,,,,,,,2149,112.7421875,-64.5078125,1,0,0,response3disk,,5,10.671875,7.27734375,1,0,0,rectangle,10.671875,7.27734375,1,0,0,10.671875,7.27734375,1,0,0,0,46,46,120,1,,,,,,,,
,,,,,,,,,,,,,FF,,,,,,,,2.056725,,,,,,,,,,,,,,,,,,,,,,61010bd98095d440ada024e4,61036c1396564cde52710f53,2021-07-29_20h05.15.927,Simcolourproject_2stim_asymm_v5,2020.2.10,MacIntel,60,61025ae37ef11b136ea224fe,,,,,,,,,3691,46.57421875,-107.953125,1,0,0,response3disk,,4,-12.71484375,4.18359375,1,0,0,rectangle,-12.71484375,4.18359375,1,0,0,-12.71484375,4.18359375,1,0,0,0,47,47,47,1,,,,,,,,
,,,,,,,,,,,,,FF,,,,,,,,1.403785,,,,,,,,,,,,,,,,,,,,,,61010bd98095d440ada024e4,61036c1396564cde52710f53,2021-07-29_20h05.15.927,Simcolourproject_2stim_asymm_v5,2020.2.10,MacIntel,60,61025ae37ef11b136ea224fe,,,,,,,,,747,88.48828125,-56.48828125,1,0,0,response3disk,,5,-1.22265625,-9.96875,1,0,0,rectangle,-1.22265625,-9.96875,1,0,0,-1.22265625,-9.96875,1,0,0,0,48,48,85,1,,,,,,,,
,,,,,,,,,,,,,FF,,,,,,,,2.84071,,,,,,,,,,,,,,,,,,,,,,61010bd98095d440ada024e4,61036c1396564cde52710f53,2021-07-29_20h05.15.927,Simcolourproject_2stim_asymm_v5,2020.2.10,MacIntel,60,61025ae37ef11b136ea224fe,,,,,,,,,1499,96.8984375,65.40625,1,0,0,response1disk,,6,-5.3046875,3.99609375,1,0,0,rectangle,-5.3046875,3.99609375,1,0,0,-5.3046875,3.99609375,1,0,0,0,49,49,99,1,,,,,,,,
,,,,,,,,,,,,,FF,,,,,,,,1.57029,,,,,,,,,,,,,,,,,,,,,,61010bd98095d440ada024e4,61036c1396564cde52710f53,2021-07-29_20h05.15.927,Simcolourproject_2stim_asymm_v5,2020.2.10,MacIntel,60,61025ae37ef11b136ea224fe,,,,,,,,,883,-56.8125,-92.18359375,1,0,0,response5disk,,3,-0.71875,0.01171875,1,0,0,rectangle,-0.71875,0.01171875,1,0,0,-0.71875,0.01171875,1,0,0,0,50,50,108,1,,,,,,,,
,,,,,,,,,,,,,FF,,,,,,,,0.987325,,,,,,,,,,,,,,,,,,,,,,61010bd98095d440ada024e4,61036c1396564cde52710f53,2021-07-29_20h05.15.927,Simcolourproject_2stim_asymm_v5,2020.2.10,MacIntel,60,61025ae37ef11b136ea224fe,,,,,,,,,2782,-107.9648438,-41.67578125,1,0,0,response5disk,,2,2.36328125,-0.484375,1,0,0,rectangle,2.36328125,-0.484375,1,0,0,2.36328125,-0.484375,1,0,0,0,51,51,135,1,,,,,,,,
,,,,,,,,,,,,,FF,,,,,,,,1.23663,,,,,,,,,,,,,,,,,,,,,,61010bd98095d440ada024e4,61036c1396564cde52710f53,2021-07-29_20h05.15.927,Simcolourproject_2stim_asymm_v5,2020.2.10,MacIntel,60,61025ae37ef11b136ea224fe,,,,,,,,,2458,96.41796875,51.97265625,1,0,0,response1disk,,6,3.93359375,-1.4140625,1,0,0,rectangle,3.93359375,-1.4140625,1,0,0,3.93359375,-1.4140625,1,0,0,0,52,52,44,1,,,,,,,,
,,,,,,,,,,,,,FF,,,,,,,,1.219505,,,,,,,,,,,,,,,,,,,,,,61010bd98095d440ada024e4,61036c1396564cde52710f53,2021-07-29_20h05.15.927,Simcolourproject_2stim_asymm_v5,2020.2.10,MacIntel,60,61025ae37ef11b136ea224fe,,,,,,,,,1618,45.93359375,-87.1328125,1,0,0,response3disk,,4,1.1328125,0.15234375,1,0,0,rectangle,1.1328125,0.15234375,1,0,0,1.1328125,0.15234375,1,0,0,0,53,53,92,1,,,,,,,,
,,,,,,,,,,,,,FF,,,,,,,,1.07117,,,,,,,,,,,,,,,,,,,,,,61010bd98095d440ada024e4,61036c1396564cde52710f53,2021-07-29_20h05.15.927,Simcolourproject_2stim_asymm_v5,2020.2.10,MacIntel,60,61025ae37ef11b136ea224fe,,,,,,,,,2608,-52.375,-81.23046875,1,0,0,response5disk,,3,10.3828125,3.11328125,1,0,0,rectangle,10.3828125,3.11328125,1,0,0,10.3828125,3.11328125,1,0,0,0,54,54,149,1,,,,,,,,
,,,,,,,,,,,,,FF,,,,,,,,2.45683,,,,,,,,,,,,,,,,,,,,,,61010bd98095d440ada024e4,61036c1396564cde52710f53,2021-07-29_20h05.15.927,Simcolourproject_2stim_asymm_v5,2020.2.10,MacIntel,60,61025ae37ef11b136ea224fe,,,,,,,,,1695,90.99609375,-39.76953125,1,0,0,response3disk,,5,9.23828125,-2.48828125,1,0,0,rectangle,9.23828125,-2.48828125,1,0,0,9.23828125,-2.48828125,1,0,0,0,55,55,18,1,,,,,,,,
,,,,,,,,,,,,,FF,,,,,,,,2.08935,,,,,,,,,,,,,,,,,,,,,,61010bd98095d440ada024e4,61036c1396564cde52710f53,2021-07-29_20h05.15.927,Simcolourproject_2stim_asymm_v5,2020.2.10,MacIntel,60,61025ae37ef11b136ea224fe,,,,,,,,,1270,97.19140625,44.41796875,1,0,0,response1disk,,6,7.0625,10.97265625,1,0,0,rectangle,7.0625,10.97265625,1,0,0,7.0625,10.97265625,1,0,0,0,56,56,58,1,,,,,,,,
,,,,,,,,,,,,,FF,,,,,,,,1.118805,,,,,,,,,,,,,,,,,,,,,,61010bd98095d440ada024e4,61036c1396564cde52710f53,2021-07-29_20h05.15.927,Simcolourproject_2stim_asymm_v5,2020.2.10,MacIntel,60,61025ae37ef11b136ea224fe,,,,,,,,,1476,43.67578125,-85.30859375,1,0,0,response3disk,,4,-3.20703125,0.31640625,1,0,0,rectangle,-3.20703125,0.31640625,1,0,0,-3.20703125,0.31640625,1,0,0,0,57,57,38,1,,,,,,,,
,,,,,,,,,,,,,FF,,,,,,,,2.97443,,,,,,,,,,,,,,,,,,,,,,61010bd98095d440ada024e4,61036c1396564cde52710f53,2021-07-29_20h05.15.927,Simcolourproject_2stim_asymm_v5,2020.2.10,MacIntel,60,61025ae37ef11b136ea224fe,,,,,,,,,1880,98.89453125,-47.046875,1,0,0,response3disk,,5,11.16796875,-2.5859375,1,0,0,rectangle,11.16796875,-2.5859375,1,0,0,11.16796875,-2.5859375,1,0,0,0,58,58,33,1,,,,,,,,
,,,,,,,,,,,,,FF,,,,,,,,1.472435,,,,,,,,,,,,,,,,,,,,,,61010bd98095d440ada024e4,61036c1396564cde52710f53,2021-07-29_20h05.15.927,Simcolourproject_2stim_asymm_v5,2020.2.10,MacIntel,60,61025ae37ef11b136ea224fe,,,,,,,,,3586,-105,-38.63671875,1,0,0,response5disk,,2,9.640625,-1.21875,1,0,0,rectangle,9.640625,-1.21875,1,0,0,9.640625,-1.21875,1,0,0,0,59,59,19,1,,,,,,,,
,,,,,,,,,,,,,FF,,,,,,,,4.63028,,,,,,,,,,,,,,,,,,,,,,61010bd98095d440ada024e4,61036c1396564cde52710f53,2021-07-29_20h05.15.927,Simcolourproject_2stim_asymm_v5,2020.2.10,MacIntel,60,61025ae37ef11b136ea224fe,,,,,,,,,2724,-62.90234375,-105.0703125,1,0,0,response5disk,,3,0.2265625,10.171875,1,0,0,rectangle,0.2265625,10.171875,1,0,0,0.2265625,10.171875,1,0,0,0,60,60,66,1,,,,,,,,
,,,,,,,,,,,,,FF,,,,,,,,4.094685,,,,,,,,,,,,,,,,,,,,,,61010bd98095d440ada024e4,61036c1396564cde52710f53,2021-07-29_20h05.15.927,Simcolourproject_2stim_asymm_v5,2020.2.10,MacIntel,60,61025ae37ef11b136ea224fe,,,,,,,,,1532,69.66796875,-40.953125,1,0,0,response3disk,,5,-4.67578125,4.3125,1,0,0,rectangle,-4.67578125,4.3125,1,0,0,-4.67578125,4.3125,1,0,0,0,61,61,106,1,,,,,,,,
,,,,,,,,,,,,,FF,,,,,,,,2.05501,,,,,,,,,,,,,,,,,,,,,,61010bd98095d440ada024e4,61036c1396564cde52710f53,2021-07-29_20h05.15.927,Simcolourproject_2stim_asymm_v5,2020.2.10,MacIntel,60,61025ae37ef11b136ea224fe,,,,,,,,,887,-96.99609375,-51.6875,1,0,0,response5disk,,2,-18.125,8.05859375,1,0,0,rectangle,-18.125,8.05859375,1,0,0,-18.125,8.05859375,1,0,0,0,62,62,158,1,,,,,,,,
,,,,,,,,,,,,,FF,,,,,,,,1.152265,,,,,,,,,,,,,,,,,,,,,,61010bd98095d440ada024e4,61036c1396564cde52710f53,2021-07-29_20h05.15.927,Simcolourproject_2stim_asymm_v5,2020.2.10,MacIntel,60,61025ae37ef11b136ea224fe,,,,,,,,,3487,-37.87109375,-89.90625,1,0,0,response5disk,,3,-5.4765625,1.328125,1,0,0,rectangle,-5.4765625,1.328125,1,0,0,-5.4765625,1.328125,1,0,0,0,63,63,46,1,,,,,,,,
,,,,,,,,,,,,,FF,,,,,,,,3.192,,,,,,,,,,,,,,,,,,,,,,61010bd98095d440ada024e4,61036c1396564cde52710f53,2021-07-29_20h05.15.927,Simcolourproject_2stim_asymm_v5,2020.2.10,MacIntel,60,61025ae37ef11b136ea224fe,,,,,,,,,1821,-49.4765625,-95.50390625,1,0,0,response5disk,,3,-5.87890625,-5.37890625,1,0,0,rectangle,-5.87890625,-5.37890625,1,0,0,-5.87890625,-5.37890625,1,0,0,0,64,64,49,1,,,,,,,,
,,,,,,,,,,,,,FF,,,,,,,,1.52173,,,,,,,,,,,,,,,,,,,,,,61010bd98095d440ada024e4,61036c1396564cde52710f53,2021-07-29_20h05.15.927,Simcolourproject_2stim_asymm_v5,2020.2.10,MacIntel,60,61025ae37ef11b136ea224fe,,,,,,,,,2046,95.22265625,-57.82421875,1,0,0,response3disk,,5,12.91796875,-6.0078125,1,0,0,rectangle,12.91796875,-6.0078125,1,0,0,12.91796875,-6.0078125,1,0,0,0,65,65,69,1,,,,,,,,
,,,,,,,,,,,,,FF,,,,,,,,1.671225,,,,,,,,,,,,,,,,,,,,,,61010bd98095d440ada024e4,61036c1396564cde52710f53,2021-07-29_20h05.15.927,Simcolourproject_2stim_asymm_v5,2020.2.10,MacIntel,60,61025ae37ef11b136ea224fe,,,,,,,,,3489,86.65234375,-45.42578125,1,0,0,response3disk,,5,10.1328125,-1.95703125,1,0,0,rectangle,10.1328125,-1.95703125,1,0,0,10.1328125,-1.95703125,1,0,0,0,66,66,16,1,,,,,,,,
,,,,,,,,,,,,,FF,,,,,,,,2.00441,,,,,,,,,,,,,,,,,,,,,,61010bd98095d440ada024e4,61036c1396564cde52710f53,2021-07-29_20h05.15.927,Simcolourproject_2stim_asymm_v5,2020.2.10,MacIntel,60,61025ae37ef11b136ea224fe,,,,,,,,,649,101.4414063,56.98828125,1,0,0,response1disk,,6,1.14453125,7.57421875,1,0,0,rectangle,1.14453125,7.57421875,1,0,0,1.14453125,7.57421875,1,0,0,0,67,67,61,1,,,,,,,,
,,,,,,,,,,,,,FF,,,,,,,,1.971845,,,,,,,,,,,,,,,,,,,,,,61010bd98095d440ada024e4,61036c1396564cde52710f53,2021-07-29_20h05.15.927,Simcolourproject_2stim_asymm_v5,2020.2.10,MacIntel,60,61025ae37ef11b136ea224fe,,,,,,,,,376,-29.140625,-113.7695313,1,0,0,response5disk,,3,4.87890625,4.37890625,1,0,0,rectangle,-80.80859375,48.94921875,1,0,0,-8.7421875,0.23046875,1,0,0,0,68,68,96,1,,response7disk_3,TRUE,1,1,"[227,92,307,310,288,4,92,130,69,119,95,118,298,95,219,305,251,270,2,254]",8.923035,rectangle
,,,,,,,,,,,,,FF,,,,,,,,1.589805,,,,,,,,,,,,,,,,,,,,,,61010bd98095d440ada024e4,61036c1396564cde52710f53,2021-07-29_20h05.15.927,Simcolourproject_2stim_asymm_v5,2020.2.10,MacIntel,60,61025ae37ef11b136ea224fe,,,,,,,,,3308,83.82421875,54.65625,1,0,0,response1disk,,6,9.6484375,-1.62109375,1,0,0,rectangle,9.6484375,-1.62109375,1,0,0,9.6484375,-1.62109375,1,0,0,0,69,69,127,1,,,,,,,,
,,,,,,,,,,,,,FF,,,,,,,,1.55335,,,,,,,,,,,,,,,,,,,,,,61010bd98095d440ada024e4,61036c1396564cde52710f53,2021-07-29_20h05.15.927,Simcolourproject_2stim_asymm_v5,2020.2.10,MacIntel,60,61025ae37ef11b136ea224fe,,,,,,,,,29,90.78515625,-46.859375,1,0,0,response3disk,,5,1.87890625,-1.46875,1,0,0,rectangle,1.87890625,-1.46875,1,0,0,1.87890625,-1.46875,1,0,0,0,70,70,139,1,,,,,,,,
,,,,,,,,,,,,,FF,,,,,,,,2.826375,,,,,,,,,,,,,,,,,,,,,,61010bd98095d440ada024e4,61036c1396564cde52710f53,2021-07-29_20h05.15.927,Simcolourproject_2stim_asymm_v5,2020.2.10,MacIntel,60,61025ae37ef11b136ea224fe,,,,,,,,,1519,97.5234375,46.65234375,1,0,0,response1disk,,6,2.40625,2.25390625,1,0,0,rectangle,2.40625,2.25390625,1,0,0,2.40625,2.25390625,1,0,0,0,71,71,119,1,,,,,,,,
,,,,,,,,,,,,,FF,,,,,,,,1.5216,,,,,,,,,,,,,,,,,,,,,,61010bd98095d440ada024e4,61036c1396564cde52710f53,2021-07-29_20h05.15.927,Simcolourproject_2stim_asymm_v5,2020.2.10,MacIntel,60,61025ae37ef11b136ea224fe,,,,,,,,,569,40.37109375,-78.875,1,0,0,response3disk,,4,1,-8.5859375,1,0,0,rectangle,1,-8.5859375,1,0,0,1,-8.5859375,1,0,0,0,72,72,95,1,,,,,,,,
,,,,,,,,,,,,,FF,,,,,,,,2.57369,,,,,,,,,,,,,,,,,,,,,,61010bd98095d440ada024e4,61036c1396564cde52710f53,2021-07-29_20h05.15.927,Simcolourproject_2stim_asymm_v5,2020.2.10,MacIntel,60,61025ae37ef11b136ea224fe,,,,,,,,,2903,105.453125,46.171875,1,0,0,response1disk,,6,-10.19140625,2.78515625,1,0,0,rectangle,-10.19140625,2.78515625,1,0,0,-10.19140625,2.78515625,1,0,0,0,73,73,79,1,,,,,,,,
,,,,,,,,,,,,,FF,,,,,,,,2.68975,,,,,,,,,,,,,,,,,,,,,,61010bd98095d440ada024e4,61036c1396564cde52710f53,2021-07-29_20h05.15.927,Simcolourproject_2stim_asymm_v5,2020.2.10,MacIntel,60,61025ae37ef11b136ea224fe,,,,,,,,,936,111.6367188,55.41796875,1,0,0,response1disk,,6,2.92578125,1.14453125,1,0,0,rectangle,2.92578125,1.14453125,1,0,0,2.92578125,1.14453125,1,0,0,0,74,74,51,1,,,,,,,,
,,,,,,,,,,,,,FF,,,,,,,,1.38547,,,,,,,,,,,,,,,,,,,,,,61010bd98095d440ada024e4,61036c1396564cde52710f53,2021-07-29_20h05.15.927,Simcolourproject_2stim_asymm_v5,2020.2.10,MacIntel,60,61025ae37ef11b136ea224fe,,,,,,,,,2480,-98.35546875,39.9609375,1,0,0,response7disk,,1,-5.87109375,0.80078125,1,0,0,rectangle,-5.87109375,0.80078125,1,0,0,-5.87109375,0.80078125,1,0,0,0,75,75,73,1,,,,,,,,
,,,,,,,,,,,,,FF,,,,,,,,1.922295,,,,,,,,,,,,,,,,,,,,,,61010bd98095d440ada024e4,61036c1396564cde52710f53,2021-07-29_20h05.15.927,Simcolourproject_2stim_asymm_v5,2020.2.10,MacIntel,60,61025ae37ef11b136ea224fe,,,,,,,,,3071,92.35546875,-52.765625,1,0,0,response3disk,,5,-7.59765625,-0.125,1,0,0,rectangle,-7.59765625,-0.125,1,0,0,-7.59765625,-0.125,1,0,0,0,76,76,136,1,,,,,,,,
,,,,,,,,,,,,,FF,,,,,,,,1.170185,,,,,,,,,,,,,,,,,,,,,,61010bd98095d440ada024e4,61036c1396564cde52710f53,2021-07-29_20h05.15.927,Simcolourproject_2stim_asymm_v5,2020.2.10,MacIntel,60,61025ae37ef11b136ea224fe,,,,,,,,,3503,-56.91015625,-107.421875,1,0,0,response5disk,,3,-1.00390625,-3.58203125,1,0,0,rectangle,-1.00390625,-3.58203125,1,0,0,-1.00390625,-3.58203125,1,0,0,0,77,77,72,1,,,,,,,,
,,,,,,,,,,,,,FF,,,,,,,,1.41989,,,,,,,,,,,,,,,,,,,,,,61010bd98095d440ada024e4,61036c1396564cde52710f53,2021-07-29_20h05.15.927,Simcolourproject_2stim_asymm_v5,2020.2.10,MacIntel,60,61025ae37ef11b136ea224fe,,,,,,,,,3976,98.671875,-43.1875,1,0,0,response3disk,,5,1.36328125,-5.609375,1,0,0,rectangle,1.36328125,-5.609375,1,0,0,1.36328125,-5.609375,1,0,0,0,78,78,10,1,,,,,,,,
,,,,,,,,,,,,,FF,,,,,,,,1.236425,,,,,,,,,,,,,,,,,,,,,,61010bd98095d440ada024e4,61036c1396564cde52710f53,2021-07-29_20h05.15.927,Simcolourproject_2stim_asymm_v5,2020.2.10,MacIntel,60,61025ae37ef11b136ea224fe,,,,,,,,,2013,106.6796875,-45.234375,1,0,0,response3disk,,5,-8.3125,-1.28515625,1,0,0,rectangle,-8.3125,-1.28515625,1,0,0,-8.3125,-1.28515625,1,0,0,0,79,79,68,1,,,,,,,,
,,,,,,,,,,,,,FF,,,,,,,,1.83839,,,,,,,,,,,,,,,,,,,,,,61010bd98095d440ada024e4,61036c1396564cde52710f53,2021-07-29_20h05.15.927,Simcolourproject_2stim_asymm_v5,2020.2.10,MacIntel,60,61025ae37ef11b136ea224fe,,,,,,,,,2801,92.8671875,-34.59375,1,0,0,response3disk,,5,6.4765625,-5.62890625,1,0,0,rectangle,6.4765625,-5.62890625,1,0,0,6.4765625,-5.62890625,1,0,0,0,80,80,133,1,,,,,,,,
,,,,,,,,,,,,,FF,,,,,,,,1.58706,,,,,,,,,,,,,,,,,,,,,,61010bd98095d440ada024e4,61036c1396564cde52710f53,2021-07-29_20h05.15.927,Simcolourproject_2stim_asymm_v5,2020.2.10,MacIntel,60,61025ae37ef11b136ea224fe,,,,,,,,,1857,99.51171875,46.6953125,1,0,0,response1disk,,6,-10.8359375,-3.23046875,1,0,0,rectangle,-10.8359375,-3.23046875,1,0,0,-10.8359375,-3.23046875,1,0,0,0,81,81,4,1,,,,,,,,
,,,,,,,,,,,,,FF,,,,,,,,2.3735,,,,,,,,,,,,,,,,,,,,,,61010bd98095d440ada024e4,61036c1396564cde52710f53,2021-07-29_20h05.15.927,Simcolourproject_2stim_asymm_v5,2020.2.10,MacIntel,60,61025ae37ef11b136ea224fe,,,,,,,,,2383,114.0117188,-56.75,1,0,0,response3disk,,5,12.96875,-4.8984375,1,0,0,rectangle,12.96875,-4.8984375,1,0,0,12.96875,-4.8984375,1,0,0,0,82,82,43,1,,,,,,,,
,,,,,,,,,,,,,FF,,,,,,,,1.22054,,,,,,,,,,,,,,,,,,,,,,61010bd98095d440ada024e4,61036c1396564cde52710f53,2021-07-29_20h05.15.927,Simcolourproject_2stim_asymm_v5,2020.2.10,MacIntel,60,61025ae37ef11b136ea224fe,,,,,,,,,2564,102.140625,35.703125,1,0,0,response1disk,,6,-4.09765625,-4.9609375,1,0,0,rectangle,-4.09765625,-4.9609375,1,0,0,-4.09765625,-4.9609375,1,0,0,0,83,83,5,1,,,,,,,,
,,,,,,,,,,,,,FF,,,,,,,,3.69342,,,,,,,,,,,,,,,,,,,,,,61010bd98095d440ada024e4,61036c1396564cde52710f53,2021-07-29_20h05.15.927,Simcolourproject_2stim_asymm_v5,2020.2.10,MacIntel,60,61025ae37ef11b136ea224fe,,,,,,,,,4332,-62.90625,-96.3125,1,0,0,response5disk,,3,-14.36328125,-6.046875,1,0,0,rectangle,-14.36328125,-6.046875,1,0,0,-14.36328125,-6.046875,1,0,0,0,84,84,150,1,,,,,,,,
,,,,,,,,,,,,,FF,,,,,,,,1.38757,,,,,,,,,,,,,,,,,,,,,,61010bd98095d440ada024e4,61036c1396564cde52710f53,2021-07-29_20h05.15.927,Simcolourproject_2stim_asymm_v5,2020.2.10,MacIntel,60,61025ae37ef11b136ea224fe,,,,,,,,,3939,-97.1015625,-48.9140625,1,0,0,response5disk,,2,0.2578125,1.5859375,1,0,0,rectangle,0.2578125,1.5859375,1,0,0,0.2578125,1.5859375,1,0,0,0,85,85,34,1,,,,,,,,
,,,,,,,,,,,,,FF,,,,,,,,7.3022,,,,,,,,,,,,,,,,,,,,,,61010bd98095d440ada024e4,61036c1396564cde52710f53,2021-07-29_20h05.15.927,Simcolourproject_2stim_asymm_v5,2020.2.10,MacIntel,60,61025ae37ef11b136ea224fe,,,,,,,,,4090,93.234375,-49.1484375,1,0,0,response3disk,,5,8.66015625,-2.62890625,1,0,0,rectangle,8.66015625,-2.62890625,1,0,0,8.66015625,-2.62890625,1,0,0,0,86,86,90,1,,,,,,,,
,,,,,,,,,,,,,FF,,,,,,,,4.34539,,,,,,,,,,,,,,,,,,,,,,61010bd98095d440ada024e4,61036c1396564cde52710f53,2021-07-29_20h05.15.927,Simcolourproject_2stim_asymm_v5,2020.2.10,MacIntel,60,61025ae37ef11b136ea224fe,,,,,,,,,3351,99.39453125,53.765625,1,0,0,response1disk,,6,4.984375,-6.046875,1,0,0,rectangle,4.984375,-6.046875,1,0,0,4.984375,-6.046875,1,0,0,0,87,87,22,1,,,,,,,,
,,,,,,,,,,,,,FF,,,,,,,,2.640495,,,,,,,,,,,,,,,,,,,,,,61010bd98095d440ada024e4,61036c1396564cde52710f53,2021-07-29_20h05.15.927,Simcolourproject_2stim_asymm_v5,2020.2.10,MacIntel,60,61025ae37ef11b136ea224fe,,,,,,,,,1781,93.109375,-48.921875,1,0,0,response3disk,,5,12.81640625,-3.7421875,1,0,0,rectangle,12.81640625,-3.7421875,1,0,0,12.81640625,-3.7421875,1,0,0,0,88,88,83,1,,,,,,,,
,,,,,,,,,,,,,FF,,,,,,,,1.33697,,,,,,,,,,,,,,,,,,,,,,61010bd98095d440ada024e4,61036c1396564cde52710f53,2021-07-29_20h05.15.927,Simcolourproject_2stim_asymm_v5,2020.2.10,MacIntel,60,61025ae37ef11b136ea224fe,,,,,,,,,587,85.14453125,32.7578125,1,0,0,response1disk,,6,7.74609375,-9.71875,1,0,0,rectangle,7.74609375,-9.71875,1,0,0,7.74609375,-9.71875,1,0,0,0,89,89,101,1,,,,,,,,
,,,,,,,,,,,,,FF,,,,,,,,1.80124,,,,,,,,,,,,,,,,,,,,,,61010bd98095d440ada024e4,61036c1396564cde52710f53,2021-07-29_20h05.15.927,Simcolourproject_2stim_asymm_v5,2020.2.10,MacIntel,60,61025ae37ef11b136ea224fe,,,,,,,,,2264,84.73046875,-45.0546875,1,0,0,response3disk,,5,18.125,-4.984375,1,0,0,rectangle,18.125,-4.984375,1,0,0,18.125,-4.984375,1,0,0,0,90,90,128,1,,,,,,,,
,,,,,,,,,,,,,FF,,,,,,,,2.42346,,,,,,,,,,,,,,,,,,,,,,61010bd98095d440ada024e4,61036c1396564cde52710f53,2021-07-29_20h05.15.927,Simcolourproject_2stim_asymm_v5,2020.2.10,MacIntel,60,61025ae37ef11b136ea224fe,,,,,,,,,3218,89.48046875,-38.84765625,1,0,0,response3disk,,5,25.7265625,3.9453125,1,0,0,rectangle,-113.2460938,-70.6484375,1,0,0,-10.65625,1.51171875,1,0,0,0,91,91,55,1,,response5disk_3,TRUE,2,2,"[227,92,307,310,288,4,92,130,69,119,95,118,298,95,219,305,251,270,2,254]",2.65715,rectangle
,,,,,,,,,,,,,FF,,,,,,,,3.27522,,,,,,,,,,,,,,,,,,,,,,61010bd98095d440ada024e4,61036c1396564cde52710f53,2021-07-29_20h05.15.927,Simcolourproject_2stim_asymm_v5,2020.2.10,MacIntel,60,61025ae37ef11b136ea224fe,,,,,,,,,838,106.265625,-45.30078125,1,0,0,response3disk,,5,12.46875,4.23046875,1,0,0,rectangle,12.46875,4.23046875,1,0,0,12.46875,4.23046875,1,0,0,0,92,92,82,1,,,,,,,,
,,,,,,,,,,,,,FF,,,,,,,,1.28697,,,,,,,,,,,,,,,,,,,,,,61010bd98095d440ada024e4,61036c1396564cde52710f53,2021-07-29_20h05.15.927,Simcolourproject_2stim_asymm_v5,2020.2.10,MacIntel,60,61025ae37ef11b136ea224fe,,,,,,,,,3311,61.71484375,-89.515625,1,0,0,response3disk,,4,9.7265625,-2.40625,1,0,0,rectangle,9.7265625,-2.40625,1,0,0,9.7265625,-2.40625,1,0,0,0,93,93,2,1,,,,,,,,
,,,,,,,,,,,,,FF,,,,,,,,1.219555,,,,,,,,,,,,,,,,,,,,,,61010bd98095d440ada024e4,61036c1396564cde52710f53,2021-07-29_20h05.15.927,Simcolourproject_2stim_asymm_v5,2020.2.10,MacIntel,60,61025ae37ef11b136ea224fe,,,,,,,,,4078,-46.34375,-86.671875,1,0,0,response5disk,,3,-3.23046875,0.09375,1,0,0,rectangle,-38.9375,-87.296875,1,0,0,-1.3671875,-9.11328125,1,0,0,0,94,94,24,1,,response5disk_3,TRUE,3,3,"[227,92,307,310,288,4,92,130,69,119,95,118,298,95,219,305,251,270,2,254]",2.6241,rectangle
,,,,,,,,,,,,,FF,,,,,,,,1.655785,,,,,,,,,,,,,,,,,,,,,,61010bd98095d440ada024e4,61036c1396564cde52710f53,2021-07-29_20h05.15.927,Simcolourproject_2stim_asymm_v5,2020.2.10,MacIntel,60,61025ae37ef11b136ea224fe,,,,,,,,,3690,31.6875,-91.1640625,1,0,0,response3disk,,4,17.7265625,-6.4453125,1,0,0,rectangle,17.7265625,-6.4453125,1,0,0,17.7265625,-6.4453125,1,0,0,0,95,95,121,1,,,,,,,,
,,,,,,,,,,,,,FF,,,,,,,,1.820535,,,,,,,,,,,,,,,,,,,,,,61010bd98095d440ada024e4,61036c1396564cde52710f53,2021-07-29_20h05.15.927,Simcolourproject_2stim_asymm_v5,2020.2.10,MacIntel,60,61025ae37ef11b136ea224fe,,,,,,,,,4226,93.9765625,52.046875,1,0,0,response1disk,,6,12.25390625,-0.734375,1,0,0,rectangle,12.25390625,-0.734375,1,0,0,12.25390625,-0.734375,1,0,0,0,96,96,154,1,,,,,,,,
,,,,,,,,,,,,,FF,,,,,,,,1.454125,,,,,,,,,,,,,,,,,,,,,,61010bd98095d440ada024e4,61036c1396564cde52710f53,2021-07-29_20h05.15.927,Simcolourproject_2stim_asymm_v5,2020.2.10,MacIntel,60,61025ae37ef11b136ea224fe,,,,,,,,,2209,45.90234375,-89.55859375,1,0,0,response3disk,,4,6.66015625,-8.01171875,1,0,0,rectangle,6.66015625,-8.01171875,1,0,0,6.66015625,-8.01171875,1,0,0,0,97,97,132,1,,,,,,,,
,,,,,,,,,,,,,FF,,,,,,,,1.588485,,,,,,,,,,,,,,,,,,,,,,61010bd98095d440ada024e4,61036c1396564cde52710f53,2021-07-29_20h05.15.927,Simcolourproject_2stim_asymm_v5,2020.2.10,MacIntel,60,61025ae37ef11b136ea224fe,,,,,,,,,4254,-97.40234375,-59.96484375,1,0,0,response5disk,,2,0.9453125,0.5390625,1,0,0,rectangle,0.9453125,0.5390625,1,0,0,0.9453125,0.5390625,1,0,0,0,98,98,118,1,,,,,,,,
,,,,,,,,,,,,,FF,,,,,,,,2.0055,,,,,,,,,,,,,,,,,,,,,,61010bd98095d440ada024e4,61036c1396564cde52710f53,2021-07-29_20h05.15.927,Simcolourproject_2stim_asymm_v5,2020.2.10,MacIntel,60,61025ae37ef11b136ea224fe,,,,,,,,,1034,39.20703125,-84.83203125,1,0,0,response3disk,,4,4.3046875,-5.65234375,1,0,0,rectangle,4.3046875,-5.65234375,1,0,0,4.3046875,-5.65234375,1,0,0,0,99,99,107,1,,,,,,,,
,,,,,,,,,,,,,FF,,,,,,,,1.3364,,,,,,,,,,,,,,,,,,,,,,61010bd98095d440ada024e4,61036c1396564cde52710f53,2021-07-29_20h05.15.927,Simcolourproject_2stim_asymm_v5,2020.2.10,MacIntel,60,61025ae37ef11b136ea224fe,,,,,,,,,2012,92.34375,54.0234375,1,0,0,response1disk,,6,-0.49609375,4.2109375,1,0,0,rectangle,-0.49609375,4.2109375,1,0,0,-0.49609375,4.2109375,1,0,0,0,100,100,141,1,,,,,,,,
,,,,,,,,,,,,,FF,,,,,,,,2.47287,,,,,,,,,,,,,,,,,,,,,,61010bd98095d440ada024e4,61036c1396564cde52710f53,2021-07-29_20h05.15.927,Simcolourproject_2stim_asymm_v5,2020.2.10,MacIntel,60,61025ae37ef11b136ea224fe,,,,,,,,,1200,-47.91015625,-105.171875,1,0,0,response5disk,,3,-13.671875,-1.2890625,1,0,0,rectangle,-13.671875,-1.2890625,1,0,0,-13.671875,-1.2890625,1,0,0,0,101,101,88,1,,,,,,,,
,,,,,,,,,,,,,FF,,,,,,,,1.570795,,,,,,,,,,,,,,,,,,,,,,61010bd98095d440ada024e4,61036c1396564cde52710f53,2021-07-29_20h05.15.927,Simcolourproject_2stim_asymm_v5,2020.2.10,MacIntel,60,61025ae37ef11b136ea224fe,,,,,,,,,1040,43.3203125,-83.81640625,1,0,0,response3disk,,4,29.359375,-8.08203125,1,0,0,rectangle,29.359375,-8.08203125,1,0,0,29.359375,-8.08203125,1,0,0,0,102,102,13,1,,,,,,,,
,,,,,,,,,,,,,FF,,,,,,,,1.07138,,,,,,,,,,,,,,,,,,,,,,61010bd98095d440ada024e4,61036c1396564cde52710f53,2021-07-29_20h05.15.927,Simcolourproject_2stim_asymm_v5,2020.2.10,MacIntel,60,61025ae37ef11b136ea224fe,,,,,,,,,3715,-49.55078125,-77.8125,1,0,0,response5disk,,3,-8.61328125,-2.08203125,1,0,0,rectangle,-8.61328125,-2.08203125,1,0,0,-8.61328125,-2.08203125,1,0,0,0,103,103,138,1,,,,,,,,
,,,,,,,,,,,,,FF,,,,,,,,1.67145,,,,,,,,,,,,,,,,,,,,,,61010bd98095d440ada024e4,61036c1396564cde52710f53,2021-07-29_20h05.15.927,Simcolourproject_2stim_asymm_v5,2020.2.10,MacIntel,60,61025ae37ef11b136ea224fe,,,,,,,,,4119,-98.14453125,-49.04296875,1,0,0,response5disk,,2,-20.0859375,-5.22265625,1,0,0,rectangle,-20.0859375,-5.22265625,1,0,0,-20.0859375,-5.22265625,1,0,0,0,104,104,31,1,,,,,,,,
,,,,,,,,,,,,,FF,,,,,,,,1.286855,,,,,,,,,,,,,,,,,,,,,,61010bd98095d440ada024e4,61036c1396564cde52710f53,2021-07-29_20h05.15.927,Simcolourproject_2stim_asymm_v5,2020.2.10,MacIntel,60,61025ae37ef11b136ea224fe,,,,,,,,,2555,52.14453125,-64.46484375,1,0,0,response3disk,,4,12.328125,-8.45703125,1,0,0,rectangle,12.328125,-8.45703125,1,0,0,12.328125,-8.45703125,1,0,0,0,105,105,100,1,,,,,,,,
,,,,,,,,,,,,,FF,,,,,,,,1.253305,,,,,,,,,,,,,,,,,,,,,,61010bd98095d440ada024e4,61036c1396564cde52710f53,2021-07-29_20h05.15.927,Simcolourproject_2stim_asymm_v5,2020.2.10,MacIntel,60,61025ae37ef11b136ea224fe,,,,,,,,,2099,-94.92578125,-43.9375,1,0,0,response5disk,,2,-16.76171875,-6,1,0,0,rectangle,-16.76171875,-6,1,0,0,-16.76171875,-6,1,0,0,0,106,106,89,1,,,,,,,,
,,,,,,,,,,,,,FF,,,,,,,,1.57169,,,,,,,,,,,,,,,,,,,,,,61010bd98095d440ada024e4,61036c1396564cde52710f53,2021-07-29_20h05.15.927,Simcolourproject_2stim_asymm_v5,2020.2.10,MacIntel,60,61025ae37ef11b136ea224fe,,,,,,,,,2636,92.8125,-62.69921875,1,0,0,response3disk,,5,24.9921875,-7.53125,1,0,0,rectangle,24.9921875,-7.53125,1,0,0,24.9921875,-7.53125,1,0,0,0,107,107,87,1,,,,,,,,
,,,,,,,,,,,,,FF,,,,,,,,6.050005,,,,,,,,,,,,,,,,,,,,,,61010bd98095d440ada024e4,61036c1396564cde52710f53,2021-07-29_20h05.15.927,Simcolourproject_2stim_asymm_v5,2020.2.10,MacIntel,60,61025ae37ef11b136ea224fe,,,,,,,,,1795,60.546875,-31.921875,1,0,0,response3disk,,5,28.15625,-11.3203125,1,0,0,rectangle,28.15625,-11.3203125,1,0,0,28.15625,-11.3203125,1,0,0,0,108,108,116,1,,,,,,,,
,,,,,,,,,,,,,FF,,,,,,,,3.14307,,,,,,,,,,,,,,,,,,,,,,61010bd98095d440ada024e4,61036c1396564cde52710f53,2021-07-29_20h05.15.927,Simcolourproject_2stim_asymm_v5,2020.2.10,MacIntel,60,61025ae37ef11b136ea224fe,,,,,,,,,1672,-36.45703125,-79.78125,1,0,0,response5disk,,3,3.91796875,-8.015625,1,0,0,rectangle,3.91796875,-8.015625,1,0,0,3.91796875,-8.015625,1,0,0,0,109,109,7,1,,,,,,,,
,,,,,,,,,,,,,FF,,,,,,,,1.30376,,,,,,,,,,,,,,,,,,,,,,61010bd98095d440ada024e4,61036c1396564cde52710f53,2021-07-29_20h05.15.927,Simcolourproject_2stim_asymm_v5,2020.2.10,MacIntel,60,61025ae37ef11b136ea224fe,,,,,,,,,1526,-50.578125,-89.91796875,1,0,0,response5disk,,3,1.703125,10.8359375,1,0,0,rectangle,1.703125,10.8359375,1,0,0,1.703125,10.8359375,1,0,0,0,110,110,77,1,,,,,,,,
,,,,,,,,,,,,,FF,,,,,,,,5.932795,,,,,,,,,,,,,,,,,,,,,,61010bd98095d440ada024e4,61036c1396564cde52710f53,2021-07-29_20h05.15.927,Simcolourproject_2stim_asymm_v5,2020.2.10,MacIntel,60,61025ae37ef11b136ea224fe,,,,,,,,,2874,103.0625,-44.265625,1,0,0,response3disk,,5,1.375,-10.52734375,1,0,0,rectangle,1.375,-10.52734375,1,0,0,1.375,-10.52734375,1,0,0,0,111,111,94,1,,,,,,,,
,,,,,,,,,,,,,FF,,,,,,,,1.20377,,,,,,,,,,,,,,,,,,,,,,61010bd98095d440ada024e4,61036c1396564cde52710f53,2021-07-29_20h05.15.927,Simcolourproject_2stim_asymm_v5,2020.2.10,MacIntel,60,61025ae37ef11b136ea224fe,,,,,,,,,2282,63.94921875,96.6171875,1,0,0,response1disk,,7,-8.66796875,-3.4609375,1,0,0,rectangle,-8.66796875,-3.4609375,1,0,0,-8.66796875,-3.4609375,1,0,0,0,112,112,123,1,,,,,,,,
,,,,,,,,,,,,,FF,,,,,,,,4.077645,,,,,,,,,,,,,,,,,,,,,,61010bd98095d440ada024e4,61036c1396564cde52710f53,2021-07-29_20h05.15.927,Simcolourproject_2stim_asymm_v5,2020.2.10,MacIntel,60,61025ae37ef11b136ea224fe,,,,,,,,,494,103.921875,68.2421875,1,0,0,response1disk,,6,-5.25390625,3.11328125,1,0,0,rectangle,-5.25390625,3.11328125,1,0,0,-5.25390625,3.11328125,1,0,0,0,113,113,14,1,,,,,,,,
,,,,,,,,,,,,,FF,,,,,,,,1.67018,,,,,,,,,,,,,,,,,,,,,,61010bd98095d440ada024e4,61036c1396564cde52710f53,2021-07-29_20h05.15.927,Simcolourproject_2stim_asymm_v5,2020.2.10,MacIntel,60,61025ae37ef11b136ea224fe,,,,,,,,,4325,94.5078125,58.8515625,1,0,0,response1disk,,6,16.484375,3.48046875,1,0,0,rectangle,16.484375,3.48046875,1,0,0,16.484375,3.48046875,1,0,0,0,114,114,76,1,,,,,,,,
,,,,,,,,,,,,,FF,,,,,,,,1.93773,,,,,,,,,,,,,,,,,,,,,,61010bd98095d440ada024e4,61036c1396564cde52710f53,2021-07-29_20h05.15.927,Simcolourproject_2stim_asymm_v5,2020.2.10,MacIntel,60,61025ae37ef11b136ea224fe,,,,,,,,,385,40.515625,-104.1953125,1,0,0,response3disk,,4,17.78125,-6.5546875,1,0,0,rectangle,17.78125,-6.5546875,1,0,0,17.78125,-6.5546875,1,0,0,0,115,115,26,1,,,,,,,,
,,,,,,,,,,,,,FF,,,,,,,,1.688015,,,,,,,,,,,,,,,,,,,,,,61010bd98095d440ada024e4,61036c1396564cde52710f53,2021-07-29_20h05.15.927,Simcolourproject_2stim_asymm_v5,2020.2.10,MacIntel,60,61025ae37ef11b136ea224fe,,,,,,,,,364,76.34765625,44.5859375,1,0,0,response1disk,,6,27.796875,4.96484375,1,0,0,rectangle,27.796875,4.96484375,1,0,0,27.796875,4.96484375,1,0,0,0,116,116,124,1,,,,,,,,
,,,,,,,,,,,,,FF,,,,,,,,1.5373,,,,,,,,,,,,,,,,,,,,,,61010bd98095d440ada024e4,61036c1396564cde52710f53,2021-07-29_20h05.15.927,Simcolourproject_2stim_asymm_v5,2020.2.10,MacIntel,60,61025ae37ef11b136ea224fe,,,,,,,,,424,36.47265625,-88.0390625,1,0,0,response3disk,,4,12.99609375,-7.48828125,1,0,0,rectangle,-92.9453125,-66.95703125,1,0,0,-11.7109375,2.61328125,1,0,0,0,117,117,159,1,,response5disk_3,TRUE,2,2,"[227,92,307,310,288,4,92,130,69,119,95,118,298,95,219,305,251,270,2,254]",2.138425,rectangle
,,,,,,,,,,,,,FF,,,,,,,,3.559195,,,,,,,,,,,,,,,,,,,,,,61010bd98095d440ada024e4,61036c1396564cde52710f53,2021-07-29_20h05.15.927,Simcolourproject_2stim_asymm_v5,2020.2.10,MacIntel,60,61025ae37ef11b136ea224fe,,,,,,,,,2542,-26.5859375,-68.8828125,1,0,0,response5disk,,3,7.47265625,-1.4609375,1,0,0,rectangle,-64.671875,-42.56640625,1,0,0,-8.421875,-4.15625,1,0,0,0,118,118,137,1,,response5disk_3,TRUE,2,2,"[227,92,307,310,288,4,92,130,69,119,95,118,298,95,219,305,251,270,2,254]",1.75386,rectangle
,,,,,,,,,,,,,FF,,,,,,,,1.252375,,,,,,,,,,,,,,,,,,,,,,61010bd98095d440ada024e4,61036c1396564cde52710f53,2021-07-29_20h05.15.927,Simcolourproject_2stim_asymm_v5,2020.2.10,MacIntel,60,61025ae37ef11b136ea224fe,,,,,,,,,3476,-80.49609375,-57.76171875,1,0,0,response5disk,,2,-1.0625,-4.3125,1,0,0,rectangle,-1.0625,-4.3125,1,0,0,-1.0625,-4.3125,1,0,0,0,119,119,104,1,,,,,,,,
,,,,,,,,,,,,,FF,,,,,,,,1.08614,,,,,,,,,,,,,,,,,,,,,,61010bd98095d440ada024e4,61036c1396564cde52710f53,2021-07-29_20h05.15.927,Simcolourproject_2stim_asymm_v5,2020.2.10,MacIntel,60,61025ae37ef11b136ea224fe,,,,,,,,,3024,88.83984375,-39.58984375,1,0,0,response3disk,,5,22.515625,-6.0390625,1,0,0,rectangle,22.515625,-6.0390625,1,0,0,22.515625,-6.0390625,1,0,0,0,120,120,28,1,,,,,,,,
,,,,,,,,,,,,,FF,,,,,,,,1.236605,,,,,,,,,,,,,,,,,,,,,,61010bd98095d440ada024e4,61036c1396564cde52710f53,2021-07-29_20h05.15.927,Simcolourproject_2stim_asymm_v5,2020.2.10,MacIntel,60,61025ae37ef11b136ea224fe,,,,,,,,,993,80.609375,-31.984375,1,0,0,response3disk,,5,23.26171875,-8.87109375,1,0,0,rectangle,23.26171875,-8.87109375,1,0,0,23.26171875,-8.87109375,1,0,0,0,121,121,40,1,,,,,,,,
,,,,,,,,,,,,,FF,,,,,,,,1.052855,,,,,,,,,,,,,,,,,,,,,,61010bd98095d440ada024e4,61036c1396564cde52710f53,2021-07-29_20h05.15.927,Simcolourproject_2stim_asymm_v5,2020.2.10,MacIntel,60,61025ae37ef11b136ea224fe,,,,,,,,,3956,71.96875,122.2929688,1,0,0,response1disk,,7,-15.0703125,-8.94921875,1,0,0,rectangle,-15.0703125,-8.94921875,1,0,0,-15.0703125,-8.94921875,1,0,0,0,122,122,93,1,,,,,,,,
,,,,,,,,,,,,,FF,,,,,,,,1.12017,,,,,,,,,,,,,,,,,,,,,,61010bd98095d440ada024e4,61036c1396564cde52710f53,2021-07-29_20h05.15.927,Simcolourproject_2stim_asymm_v5,2020.2.10,MacIntel,60,61025ae37ef11b136ea224fe,,,,,,,,,3762,48.51171875,-82.21875,1,0,0,response3disk,,4,5.90625,-4.64453125,1,0,0,rectangle,5.90625,-4.64453125,1,0,0,5.90625,-4.64453125,1,0,0,0,123,123,42,1,,,,,,,,
,,,,,,,,,,,,,FF,,,,,,,,0.96996,,,,,,,,,,,,,,,,,,,,,,61010bd98095d440ada024e4,61036c1396564cde52710f53,2021-07-29_20h05.15.927,Simcolourproject_2stim_asymm_v5,2020.2.10,MacIntel,60,61025ae37ef11b136ea224fe,,,,,,,,,3692,89.51171875,-41.5546875,1,0,0,response3disk,,5,9.53515625,-8.515625,1,0,0,rectangle,9.53515625,-8.515625,1,0,0,9.53515625,-8.515625,1,0,0,0,124,124,12,1,,,,,,,,
,,,,,,,,,,,,,FF,,,,,,,,1.26983,,,,,,,,,,,,,,,,,,,,,,61010bd98095d440ada024e4,61036c1396564cde52710f53,2021-07-29_20h05.15.927,Simcolourproject_2stim_asymm_v5,2020.2.10,MacIntel,60,61025ae37ef11b136ea224fe,,,,,,,,,1480,75.42578125,-53.93359375,1,0,0,response3disk,,5,16.13671875,4.5625,1,0,0,rectangle,16.13671875,4.5625,1,0,0,16.13671875,4.5625,1,0,0,0,125,125,147,1,,,,,,,,
,,,,,,,,,,,,,FF,,,,,,,,1.57092,,,,,,,,,,,,,,,,,,,,,,61010bd98095d440ada024e4,61036c1396564cde52710f53,2021-07-29_20h05.15.927,Simcolourproject_2stim_asymm_v5,2020.2.10,MacIntel,60,61025ae37ef11b136ea224fe,,,,,,,,,3502,59.21484375,-91.625,1,0,0,response3disk,,4,9.98828125,1.359375,1,0,0,rectangle,9.98828125,1.359375,1,0,0,9.98828125,1.359375,1,0,0,0,126,126,110,1,,,,,,,,
,,,,,,,,,,,,,FF,,,,,,,,1.43705,,,,,,,,,,,,,,,,,,,,,,61010bd98095d440ada024e4,61036c1396564cde52710f53,2021-07-29_20h05.15.927,Simcolourproject_2stim_asymm_v5,2020.2.10,MacIntel,60,61025ae37ef11b136ea224fe,,,,,,,,,3993,-45.6875,95.05078125,1,0,0,response7disk,,0,-13.15234375,0.92578125,1,0,0,rectangle,-13.15234375,0.92578125,1,0,0,-13.15234375,0.92578125,1,0,0,0,127,127,145,1,,,,,,,,
,,,,,,,,,,,,,FF,,,,,,,,3.174895,,,,,,,,,,,,,,,,,,,,,,61010bd98095d440ada024e4,61036c1396564cde52710f53,2021-07-29_20h05.15.927,Simcolourproject_2stim_asymm_v5,2020.2.10,MacIntel,60,61025ae37ef11b136ea224fe,,,,,,,,,872,48.7265625,-89,1,0,0,response3disk,,4,9.09765625,8.15625,1,0,0,rectangle,9.09765625,8.15625,1,0,0,9.09765625,8.15625,1,0,0,0,128,128,39,1,,,,,,,,
,,,,,,,,,,,,,FF,,,,,,,,1.236565,,,,,,,,,,,,,,,,,,,,,,61010bd98095d440ada024e4,61036c1396564cde52710f53,2021-07-29_20h05.15.927,Simcolourproject_2stim_asymm_v5,2020.2.10,MacIntel,60,61025ae37ef11b136ea224fe,,,,,,,,,1549,34.98828125,-59.93359375,1,0,0,response3disk,,4,11.0078125,-13.02734375,1,0,0,rectangle,34.47265625,-93.41796875,1,0,0,-5.6875,-8.8515625,1,0,0,0,129,129,53,1,,response3disk_3,TRUE,4,4,"[227,92,307,310,288,4,92,130,69,119,95,118,298,95,219,305,251,270,2,254]",1.654255,rectangle
,,,,,,,,,,,,,FF,,,,,,,,3.22446,,,,,,,,,,,,,,,,,,,,,,61010bd98095d440ada024e4,61036c1396564cde52710f53,2021-07-29_20h05.15.927,Simcolourproject_2stim_asymm_v5,2020.2.10,MacIntel,60,61025ae37ef11b136ea224fe,,,,,,,,,2616,88.6015625,-49.09375,1,0,0,response3disk,,5,5.171875,-16.76953125,1,0,0,rectangle,5.171875,-16.76953125,1,0,0,5.171875,-16.76953125,1,0,0,0,130,130,60,1,,,,,,,,
,,,,,,,,,,,,,FF,,,,,,,,1.957295,,,,,,,,,,,,,,,,,,,,,,61010bd98095d440ada024e4,61036c1396564cde52710f53,2021-07-29_20h05.15.927,Simcolourproject_2stim_asymm_v5,2020.2.10,MacIntel,60,61025ae37ef11b136ea224fe,,,,,,,,,2820,91.42578125,39.078125,1,0,0,response1disk,,6,10.89453125,10.98828125,1,0,0,rectangle,10.89453125,10.98828125,1,0,0,10.89453125,10.98828125,1,0,0,0,131,131,78,1,,,,,,,,
,,,,,,,,,,,,,FF,,,,,,,,1.771385,,,,,,,,,,,,,,,,,,,,,,61010bd98095d440ada024e4,61036c1396564cde52710f53,2021-07-29_20h05.15.927,Simcolourproject_2stim_asymm_v5,2020.2.10,MacIntel,60,61025ae37ef11b136ea224fe,,,,,,,,,105,20.98828125,-111.3671875,1,0,0,response3disk,,4,-8.0546875,-14.640625,1,0,0,rectangle,-8.0546875,-14.640625,1,0,0,-8.0546875,-14.640625,1,0,0,0,132,132,6,1,,,,,,,,
,,,,,,,,,,,,,FF,,,,,,,,1.55467,,,,,,,,,,,,,,,,,,,,,,61010bd98095d440ada024e4,61036c1396564cde52710f53,2021-07-29_20h05.15.927,Simcolourproject_2stim_asymm_v5,2020.2.10,MacIntel,60,61025ae37ef11b136ea224fe,,,,,,,,,2141,104.1445313,54.59765625,1,0,0,response1disk,,6,4.109375,-10.58203125,1,0,0,rectangle,4.109375,-10.58203125,1,0,0,4.109375,-10.58203125,1,0,0,0,133,133,74,1,,,,,,,,
,,,,,,,,,,,,,FF,,,,,,,,1.3374,,,,,,,,,,,,,,,,,,,,,,61010bd98095d440ada024e4,61036c1396564cde52710f53,2021-07-29_20h05.15.927,Simcolourproject_2stim_asymm_v5,2020.2.10,MacIntel,60,61025ae37ef11b136ea224fe,,,,,,,,,2898,36.6640625,-91.8125,1,0,0,response3disk,,4,6.46875,-14.9140625,1,0,0,rectangle,6.46875,-14.9140625,1,0,0,6.46875,-14.9140625,1,0,0,0,134,134,142,1,,,,,,,,
,,,,,,,,,,,,,FF,,,,,,,,1.287915,,,,,,,,,,,,,,,,,,,,,,61010bd98095d440ada024e4,61036c1396564cde52710f53,2021-07-29_20h05.15.927,Simcolourproject_2stim_asymm_v5,2020.2.10,MacIntel,60,61025ae37ef11b136ea224fe,,,,,,,,,1935,94.19921875,42.7265625,1,0,0,response1disk,,6,14.91015625,0.9140625,1,0,0,rectangle,14.91015625,0.9140625,1,0,0,14.91015625,0.9140625,1,0,0,0,135,135,130,1,,,,,,,,
,,,,,,,,,,,,,FF,,,,,,,,1.6874,,,,,,,,,,,,,,,,,,,,,,61010bd98095d440ada024e4,61036c1396564cde52710f53,2021-07-29_20h05.15.927,Simcolourproject_2stim_asymm_v5,2020.2.10,MacIntel,60,61025ae37ef11b136ea224fe,,,,,,,,,81,-58.28515625,-83.6875,1,0,0,response5disk,,3,-21.71875,-3.390625,1,0,0,rectangle,-21.71875,-3.390625,1,0,0,-21.71875,-3.390625,1,0,0,0,136,136,122,1,,,,,,,,
,,,,,,,,,,,,,FF,,,,,,,,1.25447,,,,,,,,,,,,,,,,,,,,,,61010bd98095d440ada024e4,61036c1396564cde52710f53,2021-07-29_20h05.15.927,Simcolourproject_2stim_asymm_v5,2020.2.10,MacIntel,60,61025ae37ef11b136ea224fe,,,,,,,,,716,-42.578125,75.03515625,1,0,0,response7disk,,0,2.4921875,2.30859375,1,0,0,rectangle,2.4921875,2.30859375,1,0,0,2.4921875,2.30859375,1,0,0,0,137,137,98,1,,,,,,,,
,,,,,,,,,,,,,FF,,,,,,,,3.04174,,,,,,,,,,,,,,,,,,,,,,61010bd98095d440ada024e4,61036c1396564cde52710f53,2021-07-29_20h05.15.927,Simcolourproject_2stim_asymm_v5,2020.2.10,MacIntel,60,61025ae37ef11b136ea224fe,,,,,,,,,4018,105.0820313,67.1328125,1,0,0,response1disk,,6,9.55859375,3.30859375,1,0,0,rectangle,9.55859375,3.30859375,1,0,0,9.55859375,3.30859375,1,0,0,0,138,138,54,1,,,,,,,,
,,,,,,,,,,,,,FF,,,,,,,,1.169755,,,,,,,,,,,,,,,,,,,,,,61010bd98095d440ada024e4,61036c1396564cde52710f53,2021-07-29_20h05.15.927,Simcolourproject_2stim_asymm_v5,2020.2.10,MacIntel,60,61025ae37ef11b136ea224fe,,,,,,,,,1300,-31.46875,-73.0859375,1,0,0,response5disk,,3,-7.33203125,-3.68359375,1,0,0,rectangle,-7.33203125,-3.68359375,1,0,0,-7.33203125,-3.68359375,1,0,0,0,139,139,57,1,,,,,,,,
,,,,,,,,,,,,,FF,,,,,,,,1.60364,,,,,,,,,,,,,,,,,,,,,,61010bd98095d440ada024e4,61036c1396564cde52710f53,2021-07-29_20h05.15.927,Simcolourproject_2stim_asymm_v5,2020.2.10,MacIntel,60,61025ae37ef11b136ea224fe,,,,,,,,,2417,63.49609375,99.69921875,1,0,0,response1disk,,7,3.25390625,5.05859375,1,0,0,rectangle,3.25390625,5.05859375,1,0,0,3.25390625,5.05859375,1,0,0,0,140,140,21,1,,,,,,,,
,,,,,,,,,,,,,FF,,,,,,,,2.105095,,,,,,,,,,,,,,,,,,,,,,61010bd98095d440ada024e4,61036c1396564cde52710f53,2021-07-29_20h05.15.927,Simcolourproject_2stim_asymm_v5,2020.2.10,MacIntel,60,61025ae37ef11b136ea224fe,,,,,,,,,3,-46.453125,-102.3125,1,0,0,response5disk,,3,5.984375,-9.0234375,1,0,0,rectangle,5.984375,-9.0234375,1,0,0,5.984375,-9.0234375,1,0,0,0,141,141,105,1,,,,,,,,
,,,,,,,,,,,,,FF,,,,,,,,1.652875,,,,,,,,,,,,,,,,,,,,,,61010bd98095d440ada024e4,61036c1396564cde52710f53,2021-07-29_20h05.15.927,Simcolourproject_2stim_asymm_v5,2020.2.10,MacIntel,60,61025ae37ef11b136ea224fe,,,,,,,,,969,-69.75390625,-48.02734375,1,0,0,response5disk,,2,-21.453125,3.41796875,1,0,0,rectangle,-21.453125,3.41796875,1,0,0,-21.453125,3.41796875,1,0,0,0,142,142,8,1,,,,,,,,
,,,,,,,,,,,,,FF,,,,,,,,1.37063,,,,,,,,,,,,,,,,,,,,,,61010bd98095d440ada024e4,61036c1396564cde52710f53,2021-07-29_20h05.15.927,Simcolourproject_2stim_asymm_v5,2020.2.10,MacIntel,60,61025ae37ef11b136ea224fe,,,,,,,,,2064,93.28125,44.7890625,1,0,0,response1disk,,6,25.4921875,-3.82421875,1,0,0,rectangle,25.4921875,-3.82421875,1,0,0,25.4921875,-3.82421875,1,0,0,0,143,143,3,1,,,,,,,,
,,,,,,,,,,,,,FF,,,,,,,,2.055385,,,,,,,,,,,,,,,,,,,,,,61010bd98095d440ada024e4,61036c1396564cde52710f53,2021-07-29_20h05.15.927,Simcolourproject_2stim_asymm_v5,2020.2.10,MacIntel,60,61025ae37ef11b136ea224fe,,,,,,,,,3025,79.953125,37.2734375,1,0,0,response1disk,,6,1.49609375,-7.77734375,1,0,0,rectangle,1.49609375,-7.77734375,1,0,0,1.49609375,-7.77734375,1,0,0,0,144,144,35,1,,,,,,,,
,,,,,,,,,,,,,FF,,,,,,,,2.09011,,,,,,,,,,,,,,,,,,,,,,61010bd98095d440ada024e4,61036c1396564cde52710f53,2021-07-29_20h05.15.927,Simcolourproject_2stim_asymm_v5,2020.2.10,MacIntel,60,61025ae37ef11b136ea224fe,,,,,,,,,2710,87.47265625,-58.5234375,1,0,0,response3disk,,5,18.25,-7.59765625,1,0,0,rectangle,18.25,-7.59765625,1,0,0,18.25,-7.59765625,1,0,0,0,145,145,146,1,,,,,,,,
,,,,,,,,,,,,,FF,,,,,,,,1.7724,,,,,,,,,,,,,,,,,,,,,,61010bd98095d440ada024e4,61036c1396564cde52710f53,2021-07-29_20h05.15.927,Simcolourproject_2stim_asymm_v5,2020.2.10,MacIntel,60,61025ae37ef11b136ea224fe,,,,,,,,,2581,92.06640625,40.94140625,1,0,0,response1disk,,6,13.12890625,2.76171875,1,0,0,rectangle,13.12890625,2.76171875,1,0,0,13.12890625,2.76171875,1,0,0,0,146,146,155,1,,,,,,,,
,,,,,,,,,,,,,FF,,,,,,,,1.437395,,,,,,,,,,,,,,,,,,,,,,61010bd98095d440ada024e4,61036c1396564cde52710f53,2021-07-29_20h05.15.927,Simcolourproject_2stim_asymm_v5,2020.2.10,MacIntel,60,61025ae37ef11b136ea224fe,,,,,,,,,120,92.89453125,46.4296875,1,0,0,response1disk,,6,15.328125,3.49609375,1,0,0,rectangle,15.328125,3.49609375,1,0,0,15.328125,3.49609375,1,0,0,0,147,147,48,1,,,,,,,,
,,,,,,,,,,,,,FF,,,,,,,,1.085835,,,,,,,,,,,,,,,,,,,,,,61010bd98095d440ada024e4,61036c1396564cde52710f53,2021-07-29_20h05.15.927,Simcolourproject_2stim_asymm_v5,2020.2.10,MacIntel,60,61025ae37ef11b136ea224fe,,,,,,,,,3709,-59.01171875,-107.2890625,1,0,0,response5disk,,3,1.37109375,9.19921875,1,0,0,rectangle,1.37109375,9.19921875,1,0,0,1.37109375,9.19921875,1,0,0,0,148,148,59,1,,,,,,,,
,,,,,,,,,,,,,FF,,,,,,,,2.05589,,,,,,,,,,,,,,,,,,,,,,61010bd98095d440ada024e4,61036c1396564cde52710f53,2021-07-29_20h05.15.927,Simcolourproject_2stim_asymm_v5,2020.2.10,MacIntel,60,61025ae37ef11b136ea224fe,,,,,,,,,2694,97.8828125,81.10546875,1,0,0,response1disk,,6,-4.03515625,-1.640625,1,0,0,rectangle,-4.03515625,-1.640625,1,0,0,-4.03515625,-1.640625,1,0,0,0,149,149,84,1,,,,,,,,
,,,,,,,,,,,,,FF,,,,,,,,1.253545,,,,,,,,,,,,,,,,,,,,,,61010bd98095d440ada024e4,61036c1396564cde52710f53,2021-07-29_20h05.15.927,Simcolourproject_2stim_asymm_v5,2020.2.10,MacIntel,60,61025ae37ef11b136ea224fe,,,,,,,,,3757,61.34765625,-87.4296875,1,0,0,response3disk,,4,14.63671875,-5.96484375,1,0,0,rectangle,14.63671875,-5.96484375,1,0,0,14.63671875,-5.96484375,1,0,0,0,150,150,71,1,,,,,,,,
,,,,,,,,,,,,,FF,,,,,,,,2.723805,,,,,,,,,,,,,,,,,,,,,,61010bd98095d440ada024e4,61036c1396564cde52710f53,2021-07-29_20h05.15.927,Simcolourproject_2stim_asymm_v5,2020.2.10,MacIntel,60,61025ae37ef11b136ea224fe,,,,,,,,,3246,52.1953125,-91.5234375,1,0,0,response3disk,,4,9.359375,-7.7109375,1,0,0,rectangle,9.359375,-7.7109375,1,0,0,9.359375,-7.7109375,1,0,0,0,151,151,140,1,,,,,,,,
,,,,,,,,,,,,,FF,,,,,,,,1.32172,,,,,,,,,,,,,,,,,,,,,,61010bd98095d440ada024e4,61036c1396564cde52710f53,2021-07-29_20h05.15.927,Simcolourproject_2stim_asymm_v5,2020.2.10,MacIntel,60,61025ae37ef11b136ea224fe,,,,,,,,,2737,-48.1484375,-101.3125,1,0,0,response5disk,,3,8.453125,-6.796875,1,0,0,rectangle,8.453125,-6.796875,1,0,0,8.453125,-6.796875,1,0,0,0,152,152,30,1,,,,,,,,
,,,,,,,,,,,,,FF,,,,,,,,1.23789,,,,,,,,,,,,,,,,,,,,,,61010bd98095d440ada024e4,61036c1396564cde52710f53,2021-07-29_20h05.15.927,Simcolourproject_2stim_asymm_v5,2020.2.10,MacIntel,60,61025ae37ef11b136ea224fe,,,,,,,,,183,102.15625,42.8203125,1,0,0,response1disk,,6,27.0390625,0.953125,1,0,0,rectangle,27.0390625,0.953125,1,0,0,27.0390625,0.953125,1,0,0,0,153,153,64,1,,,,,,,,
,,,,,,,,,,,,,FF,,,,,,,,2.371985,,,,,,,,,,,,,,,,,,,,,,61010bd98095d440ada024e4,61036c1396564cde52710f53,2021-07-29_20h05.15.927,Simcolourproject_2stim_asymm_v5,2020.2.10,MacIntel,60,61025ae37ef11b136ea224fe,,,,,,,,,1794,100.453125,-59.4296875,1,0,0,response3disk,,5,23.29296875,-6.0390625,1,0,0,rectangle,23.29296875,-6.0390625,1,0,0,23.29296875,-6.0390625,1,0,0,0,154,154,37,1,,,,,,,,
,,,,,,,,,,,,,FF,,,,,,,,1.03615,,,,,,,,,,,,,,,,,,,,,,61010bd98095d440ada024e4,61036c1396564cde52710f53,2021-07-29_20h05.15.927,Simcolourproject_2stim_asymm_v5,2020.2.10,MacIntel,60,61025ae37ef11b136ea224fe,,,,,,,,,229,44.14453125,-26.6171875,1,0,0,response3disk,,5,18.359375,-5.74609375,1,0,0,rectangle,18.359375,-5.74609375,1,0,0,18.359375,-5.74609375,1,0,0,0,155,155,29,1,,,,,,,,
,,,,,,,,,,,,,FF,,,,,,,,1.11993,,,,,,,,,,,,,,,,,,,,,,61010bd98095d440ada024e4,61036c1396564cde52710f53,2021-07-29_20h05.15.927,Simcolourproject_2stim_asymm_v5,2020.2.10,MacIntel,60,61025ae37ef11b136ea224fe,,,,,,,,,2235,-40.10546875,-91.66015625,1,0,0,response5disk,,3,12.89453125,0.6875,1,0,0,rectangle,12.89453125,0.6875,1,0,0,12.89453125,0.6875,1,0,0,0,156,156,70,1,,,,,,,,
,,,,,,,,,,,,,FF,,,,,,,,1.23515,,,,,,,,,,,,,,,,,,,,,,61010bd98095d440ada024e4,61036c1396564cde52710f53,2021-07-29_20h05.15.927,Simcolourproject_2stim_asymm_v5,2020.2.10,MacIntel,60,61025ae37ef11b136ea224fe,,,,,,,,,2804,89.61328125,45.06640625,1,0,0,response1disk,,6,18.1953125,5.8125,1,0,0,rectangle,18.1953125,5.8125,1,0,0,18.1953125,5.8125,1,0,0,0,157,157,81,1,,,,,,,,
,,,,,,,,,,,,,FF,,,,,,,,1.1202,,,,,,,,,,,,,,,,,,,,,,61010bd98095d440ada024e4,61036c1396564cde52710f53,2021-07-29_20h05.15.927,Simcolourproject_2stim_asymm_v5,2020.2.10,MacIntel,60,61025ae37ef11b136ea224fe,,,,,,,,,3989,75.19140625,39.0234375,1,0,0,response1disk,,6,9.45703125,4.19921875,1,0,0,rectangle,9.45703125,4.19921875,1,0,0,9.45703125,4.19921875,1,0,0,0,158,158,86,1,,,,,,,,
,,,,,,,,,,,,,FF,,,,,,,,2.05493,,,,,,,,,,,,,,,,,,,,,,61010bd98095d440ada024e4,61036c1396564cde52710f53,2021-07-29_20h05.15.927,Simcolourproject_2stim_asymm_v5,2020.2.10,MacIntel,60,61025ae37ef11b136ea224fe,,,,,,,,,230,72.43359375,40.59765625,1,0,0,response1disk,,6,13.4140625,-7,1,0,0,rectangle,13.4140625,-7,1,0,0,13.4140625,-7,1,0,0,0,159,159,52,1,,,,,,,,
,,,,,,,,,,,,,FF,,,,,,,,2.105295,,,,,,,,,,,,,,,,,,,,,,61010bd98095d440ada024e4,61036c1396564cde52710f53,2021-07-29_20h05.15.927,Simcolourproject_2stim_asymm_v5,2020.2.10,MacIntel,60,61025ae37ef11b136ea224fe,,,,,,,,,4047,-37.05859375,-76.80078125,1,0,0,response5disk,,3,-0.875,-10.8828125,1,0,0,rectangle,-0.875,-10.8828125,1,0,0,-0.875,-10.8828125,1,0,0,1,0,160,30,1,,,,,,,,
,,,,,,,,,,,,,FF,,,,,,,,4.54678,,,,,,,,,,,,,,,,,,,,,,61010bd98095d440ada024e4,61036c1396564cde52710f53,2021-07-29_20h05.15.927,Simcolourproject_2stim_asymm_v5,2020.2.10,MacIntel,60,61025ae37ef11b136ea224fe,,,,,,,,,1671,27.12109375,-92.45703125,1,0,0,response3disk,,4,-1.640625,-10.39453125,1,0,0,rectangle,-1.640625,-10.39453125,1,0,0,-1.640625,-10.39453125,1,0,0,1,1,161,66,1,,,,,,,,
,,,,,,,,,,,,,FF,,,,,,,,1.28789,,,,,,,,,,,,,,,,,,,,,,61010bd98095d440ada024e4,61036c1396564cde52710f53,2021-07-29_20h05.15.927,Simcolourproject_2stim_asymm_v5,2020.2.10,MacIntel,60,61025ae37ef11b136ea224fe,,,,,,,,,3356,70.703125,27.5546875,1,0,0,response1disk,,6,20.41796875,-4.24609375,1,0,0,rectangle,20.41796875,-4.24609375,1,0,0,20.41796875,-4.24609375,1,0,0,1,2,162,26,1,,,,,,,,
,,,,,,,,,,,,,FF,,,,,,,,1.32065,,,,,,,,,,,,,,,,,,,,,,61010bd98095d440ada024e4,61036c1396564cde52710f53,2021-07-29_20h05.15.927,Simcolourproject_2stim_asymm_v5,2020.2.10,MacIntel,60,61025ae37ef11b136ea224fe,,,,,,,,,1036,47.90625,-71.78125,1,0,0,response3disk,,4,13.7109375,-6.53125,1,0,0,rectangle,13.7109375,-6.53125,1,0,0,13.7109375,-6.53125,1,0,0,1,3,163,101,1,,,,,,,,
,,,,,,,,,,,,,FF,,,,,,,,1.820585,,,,,,,,,,,,,,,,,,,,,,61010bd98095d440ada024e4,61036c1396564cde52710f53,2021-07-29_20h05.15.927,Simcolourproject_2stim_asymm_v5,2020.2.10,MacIntel,60,61025ae37ef11b136ea224fe,,,,,,,,,3410,59.17578125,-31.83203125,1,0,0,response3disk,,5,5.47265625,-7.265625,1,0,0,rectangle,5.47265625,-7.265625,1,0,0,5.47265625,-7.265625,1,0,0,1,4,164,21,1,,,,,,,,
,,,,,,,,,,,,,FF,,,,,,,,2.50635,,,,,,,,,,,,,,,,,,,,,,61010bd98095d440ada024e4,61036c1396564cde52710f53,2021-07-29_20h05.15.927,Simcolourproject_2stim_asymm_v5,2020.2.10,MacIntel,60,61025ae37ef11b136ea224fe,,,,,,,,,1172,69.57421875,-34.15625,1,0,0,response3disk,,5,16.06640625,-3.94921875,1,0,0,rectangle,16.06640625,-3.94921875,1,0,0,16.06640625,-3.94921875,1,0,0,1,5,165,121,1,,,,,,,,
,,,,,,,,,,,,,FF,,,,,,,,2.18896,,,,,,,,,,,,,,,,,,,,,,61010bd98095d440ada024e4,61036c1396564cde52710f53,2021-07-29_20h05.15.927,Simcolourproject_2stim_asymm_v5,2020.2.10,MacIntel,60,61025ae37ef11b136ea224fe,,,,,,,,,2793,24.3046875,-83.81640625,1,0,0,response3disk,,4,1.03515625,-5.41796875,1,0,0,rectangle,1.03515625,-5.41796875,1,0,0,1.03515625,-5.41796875,1,0,0,1,6,166,111,1,,,,,,,,
,,,,,,,,,,,,,FF,,,,,,,,2.12263,,,,,,,,,,,,,,,,,,,,,,61010bd98095d440ada024e4,61036c1396564cde52710f53,2021-07-29_20h05.15.927,Simcolourproject_2stim_asymm_v5,2020.2.10,MacIntel,60,61025ae37ef11b136ea224fe,,,,,,,,,1026,48.30078125,-21.8828125,1,0,0,response3disk,,5,18.265625,-4.42578125,1,0,0,rectangle,18.265625,-4.42578125,1,0,0,18.265625,-4.42578125,1,0,0,1,7,167,51,1,,,,,,,,
,,,,,,,,,,,,,FF,,,,,,,,2.52288,,,,,,,,,,,,,,,,,,,,,,61010bd98095d440ada024e4,61036c1396564cde52710f53,2021-07-29_20h05.15.927,Simcolourproject_2stim_asymm_v5,2020.2.10,MacIntel,60,61025ae37ef11b136ea224fe,,,,,,,,,1814,79.33203125,29.48828125,1,0,0,response1disk,,6,17.88671875,3.875,1,0,0,rectangle,17.88671875,3.875,1,0,0,17.88671875,3.875,1,0,0,1,8,168,20,1,,,,,,,,
,,,,,,,,,,,,,FF,,,,,,,,1.95509,,,,,,,,,,,,,,,,,,,,,,61010bd98095d440ada024e4,61036c1396564cde52710f53,2021-07-29_20h05.15.927,Simcolourproject_2stim_asymm_v5,2020.2.10,MacIntel,60,61025ae37ef11b136ea224fe,,,,,,,,,2598,92.87109375,55.34765625,1,0,0,response1disk,,6,-3.33203125,-11.09375,1,0,0,rectangle,-3.33203125,-11.09375,1,0,0,-3.33203125,-11.09375,1,0,0,1,9,169,8,1,,,,,,,,
,,,,,,,,,,,,,FF,,,,,,,,2.52366,,,,,,,,,,,,,,,,,,,,,,61010bd98095d440ada024e4,61036c1396564cde52710f53,2021-07-29_20h05.15.927,Simcolourproject_2stim_asymm_v5,2020.2.10,MacIntel,60,61025ae37ef11b136ea224fe,,,,,,,,,3917,34.65625,-68.31640625,1,0,0,response3disk,,4,22.56640625,9.3203125,1,0,0,rectangle,22.56640625,9.3203125,1,0,0,22.56640625,9.3203125,1,0,0,1,10,170,92,1,,,,,,,,
,,,,,,,,,,,,,FF,,,,,,,,2.15647,,,,,,,,,,,,,,,,,,,,,,61010bd98095d440ada024e4,61036c1396564cde52710f53,2021-07-29_20h05.15.927,Simcolourproject_2stim_asymm_v5,2020.2.10,MacIntel,60,61025ae37ef11b136ea224fe,,,,,,,,,2742,97.6328125,-53.3359375,1,0,0,response3disk,,5,0.14453125,-2.859375,1,0,0,rectangle,0.14453125,-2.859375,1,0,0,0.14453125,-2.859375,1,0,0,1,11,171,142,1,,,,,,,,
,,,,,,,,,,,,,FF,,,,,,,,1.45274,,,,,,,,,,,,,,,,,,,,,,61010bd98095d440ada024e4,61036c1396564cde52710f53,2021-07-29_20h05.15.927,Simcolourproject_2stim_asymm_v5,2020.2.10,MacIntel,60,61025ae37ef11b136ea224fe,,,,,,,,,297,86.8203125,49.36328125,1,0,0,response1disk,,6,12.6171875,2.84375,1,0,0,rectangle,12.6171875,2.84375,1,0,0,12.6171875,2.84375,1,0,0,1,12,172,25,1,,,,,,,,
,,,,,,,,,,,,,FF,,,,,,,,1.05391,,,,,,,,,,,,,,,,,,,,,,61010bd98095d440ada024e4,61036c1396564cde52710f53,2021-07-29_20h05.15.927,Simcolourproject_2stim_asymm_v5,2020.2.10,MacIntel,60,61025ae37ef11b136ea224fe,,,,,,,,,2748,81.94921875,36.76171875,1,0,0,response1disk,,6,10.6796875,4.546875,1,0,0,rectangle,10.6796875,4.546875,1,0,0,10.6796875,4.546875,1,0,0,1,13,173,65,1,,,,,,,,
,,,,,,,,,,,,,FF,,,,,,,,1.37017,,,,,,,,,,,,,,,,,,,,,,61010bd98095d440ada024e4,61036c1396564cde52710f53,2021-07-29_20h05.15.927,Simcolourproject_2stim_asymm_v5,2020.2.10,MacIntel,60,61025ae37ef11b136ea224fe,,,,,,,,,607,20.5,-91.61328125,1,0,0,response3disk,,4,3.234375,-4.29296875,1,0,0,rectangle,3.234375,-4.29296875,1,0,0,3.234375,-4.29296875,1,0,0,1,14,174,70,1,,,,,,,,
,,,,,,,,,,,,,FF,,,,,,,,0.817675,,,,,,,,,,,,,,,,,,,,,,61010bd98095d440ada024e4,61036c1396564cde52710f53,2021-07-29_20h05.15.927,Simcolourproject_2stim_asymm_v5,2020.2.10,MacIntel,60,61025ae37ef11b136ea224fe,,,,,,,,,930,100.890625,32.640625,1,0,0,response1disk,,6,7.87109375,-6.07421875,1,0,0,rectangle,7.87109375,-6.07421875,1,0,0,7.87109375,-6.07421875,1,0,0,1,15,175,72,1,,,,,,,,
,,,,,,,,,,,,,FF,,,,,,,,2.7075,,,,,,,,,,,,,,,,,,,,,,61010bd98095d440ada024e4,61036c1396564cde52710f53,2021-07-29_20h05.15.927,Simcolourproject_2stim_asymm_v5,2020.2.10,MacIntel,60,61025ae37ef11b136ea224fe,,,,,,,,,4196,90.3359375,-25.5546875,1,0,0,response3disk,,5,1.0546875,3.1953125,1,0,0,rectangle,1.0546875,3.1953125,1,0,0,1.0546875,3.1953125,1,0,0,1,16,176,75,1,,,,,,,,
,,,,,,,,,,,,,FF,,,,,,,,1.20272,,,,,,,,,,,,,,,,,,,,,,61010bd98095d440ada024e4,61036c1396564cde52710f53,2021-07-29_20h05.15.927,Simcolourproject_2stim_asymm_v5,2020.2.10,MacIntel,60,61025ae37ef11b136ea224fe,,,,,,,,,2442,67.0546875,41.6015625,1,0,0,response1disk,,6,9.92578125,-7.11328125,1,0,0,rectangle,9.92578125,-7.11328125,1,0,0,9.92578125,-7.11328125,1,0,0,1,17,177,87,1,,,,,,,,
,,,,,,,,,,,,,FF,,,,,,,,1.73697,,,,,,,,,,,,,,,,,,,,,,61010bd98095d440ada024e4,61036c1396564cde52710f53,2021-07-29_20h05.15.927,Simcolourproject_2stim_asymm_v5,2020.2.10,MacIntel,60,61025ae37ef11b136ea224fe,,,,,,,,,1567,107.7421875,35.828125,1,0,0,response1disk,,6,27.48046875,8.3125,1,0,0,rectangle,27.48046875,8.3125,1,0,0,27.48046875,8.3125,1,0,0,1,18,178,39,1,,,,,,,,
,,,,,,,,,,,,,FF,,,,,,,,1.252175,,,,,,,,,,,,,,,,,,,,,,61010bd98095d440ada024e4,61036c1396564cde52710f53,2021-07-29_20h05.15.927,Simcolourproject_2stim_asymm_v5,2020.2.10,MacIntel,60,61025ae37ef11b136ea224fe,,,,,,,,,2703,73.5390625,-30.2421875,1,0,0,response3disk,,5,28.37890625,-10.08984375,1,0,0,rectangle,28.37890625,-10.08984375,1,0,0,28.37890625,-10.08984375,1,0,0,1,19,179,114,1,,,,,,,,
,,,,,,,,,,,,,FF,,,,,,,,1.33696,,,,,,,,,,,,,,,,,,,,,,61010bd98095d440ada024e4,61036c1396564cde52710f53,2021-07-29_20h05.15.927,Simcolourproject_2stim_asymm_v5,2020.2.10,MacIntel,60,61025ae37ef11b136ea224fe,,,,,,,,,1578,40.125,-77.453125,1,0,0,response3disk,,4,-5.03125,-11.60546875,1,0,0,rectangle,-5.03125,-11.60546875,1,0,0,-5.03125,-11.60546875,1,0,0,1,20,180,154,1,,,,,,,,
,,,,,,,,,,,,,FF,,,,,,,,2.3063,,,,,,,,,,,,,,,,,,,,,,61010bd98095d440ada024e4,61036c1396564cde52710f53,2021-07-29_20h05.15.927,Simcolourproject_2stim_asymm_v5,2020.2.10,MacIntel,60,61025ae37ef11b136ea224fe,,,,,,,,,3423,-58.02734375,-87.71484375,1,0,0,response5disk,,3,-0.60546875,-9.09765625,1,0,0,rectangle,-0.60546875,-9.09765625,1,0,0,-0.60546875,-9.09765625,1,0,0,1,21,181,83,1,,,,,,,,
,,,,,,,,,,,,,FF,,,,,,,,2.90822,,,,,,,,,,,,,,,,,,,,,,61010bd98095d440ada024e4,61036c1396564cde52710f53,2021-07-29_20h05.15.927,Simcolourproject_2stim_asymm_v5,2020.2.10,MacIntel,60,61025ae37ef11b136ea224fe,,,,,,,,,1770,72.4921875,25.09375,1,0,0,response1disk,,6,26.0078125,-3.078125,1,0,0,rectangle,26.0078125,-3.078125,1,0,0,26.0078125,-3.078125,1,0,0,1,22,182,125,1,,,,,,,,
,,,,,,,,,,,,,FF,,,,,,,,1.3372,,,,,,,,,,,,,,,,,,,,,,61010bd98095d440ada024e4,61036c1396564cde52710f53,2021-07-29_20h05.15.927,Simcolourproject_2stim_asymm_v5,2020.2.10,MacIntel,60,61025ae37ef11b136ea224fe,,,,,,,,,2744,72.4453125,-31.1640625,1,0,0,response3disk,,5,18.8125,-10.96484375,1,0,0,rectangle,18.8125,-10.96484375,1,0,0,18.8125,-10.96484375,1,0,0,1,23,183,77,1,,,,,,,,
,,,,,,,,,,,,,FF,,,,,,,,1.085895,,,,,,,,,,,,,,,,,,,,,,61010bd98095d440ada024e4,61036c1396564cde52710f53,2021-07-29_20h05.15.927,Simcolourproject_2stim_asymm_v5,2020.2.10,MacIntel,60,61025ae37ef11b136ea224fe,,,,,,,,,668,68.6015625,39.22265625,1,0,0,response1disk,,6,23.01171875,13.22265625,1,0,0,rectangle,23.01171875,13.22265625,1,0,0,23.01171875,13.22265625,1,0,0,1,24,184,94,1,,,,,,,,
,,,,,,,,,,,,,FF,,,,,,,,1.103865,,,,,,,,,,,,,,,,,,,,,,61010bd98095d440ada024e4,61036c1396564cde52710f53,2021-07-29_20h05.15.927,Simcolourproject_2stim_asymm_v5,2020.2.10,MacIntel,60,61025ae37ef11b136ea224fe,,,,,,,,,1716,44.96875,82.03515625,1,0,0,response1disk,,7,15.0078125,5.7734375,1,0,0,rectangle,15.0078125,5.7734375,1,0,0,15.0078125,5.7734375,1,0,0,1,25,185,120,1,,,,,,,,
,,,,,,,,,,,,,FF,,,,,,,,1.404155,,,,,,,,,,,,,,,,,,,,,,61010bd98095d440ada024e4,61036c1396564cde52710f53,2021-07-29_20h05.15.927,Simcolourproject_2stim_asymm_v5,2020.2.10,MacIntel,60,61025ae37ef11b136ea224fe,,,,,,,,,2351,104.75,33.109375,1,0,0,response1disk,,6,7.421875,-6.2734375,1,0,0,rectangle,7.421875,-6.2734375,1,0,0,7.421875,-6.2734375,1,0,0,1,26,186,79,1,,,,,,,,
,,,,,,,,,,,,,FF,,,,,,,,2.52511,,,,,,,,,,,,,,,,,,,,,,61010bd98095d440ada024e4,61036c1396564cde52710f53,2021-07-29_20h05.15.927,Simcolourproject_2stim_asymm_v5,2020.2.10,MacIntel,60,61025ae37ef11b136ea224fe,,,,,,,,,2738,77.6171875,-31.67578125,1,0,0,response3disk,,5,21.91796875,-7.23828125,1,0,0,rectangle,21.91796875,-7.23828125,1,0,0,21.91796875,-7.23828125,1,0,0,1,27,187,144,1,,,,,,,,
,,,,,,,,,,,,,FF,,,,,,,,2.50621,,,,,,,,,,,,,,,,,,,,,,61010bd98095d440ada024e4,61036c1396564cde52710f53,2021-07-29_20h05.15.927,Simcolourproject_2stim_asymm_v5,2020.2.10,MacIntel,60,61025ae37ef11b136ea224fe,,,,,,,,,3425,-67.24609375,76.43359375,1,0,0,response7disk,,0,-12.1328125,2.20703125,1,0,0,rectangle,-12.1328125,2.20703125,1,0,0,-12.1328125,2.20703125,1,0,0,1,28,188,13,1,,,,,,,,
,,,,,,,,,,,,,FF,,,,,,,,1.571085,,,,,,,,,,,,,,,,,,,,,,61010bd98095d440ada024e4,61036c1396564cde52710f53,2021-07-29_20h05.15.927,Simcolourproject_2stim_asymm_v5,2020.2.10,MacIntel,60,61025ae37ef11b136ea224fe,,,,,,,,,1324,48.046875,-73.45703125,1,0,0,response3disk,,4,2.72265625,1.13671875,1,0,0,rectangle,2.72265625,1.13671875,1,0,0,2.72265625,1.13671875,1,0,0,1,29,189,140,1,,,,,,,,
,,,,,,,,,,,,,FF,,,,,,,,1.488885,,,,,,,,,,,,,,,,,,,,,,61010bd98095d440ada024e4,61036c1396564cde52710f53,2021-07-29_20h05.15.927,Simcolourproject_2stim_asymm_v5,2020.2.10,MacIntel,60,61025ae37ef11b136ea224fe,,,,,,,,,1459,-90.24609375,-64.8359375,1,0,0,response5disk,,2,5.078125,9.41015625,1,0,0,rectangle,5.078125,9.41015625,1,0,0,5.078125,9.41015625,1,0,0,1,30,190,156,1,,,,,,,,
,,,,,,,,,,,,,FF,,,,,,,,1.68907,,,,,,,,,,,,,,,,,,,,,,61010bd98095d440ada024e4,61036c1396564cde52710f53,2021-07-29_20h05.15.927,Simcolourproject_2stim_asymm_v5,2020.2.10,MacIntel,60,61025ae37ef11b136ea224fe,,,,,,,,,1236,37.37109375,-80.59375,1,0,0,response3disk,,4,12.00390625,-7.0625,1,0,0,rectangle,12.00390625,-7.0625,1,0,0,12.00390625,-7.0625,1,0,0,1,31,191,105,1,,,,,,,,
,,,,,,,,,,,,,FF,,,,,,,,3.49223,,,,,,,,,,,,,,,,,,,,,,61010bd98095d440ada024e4,61036c1396564cde52710f53,2021-07-29_20h05.15.927,Simcolourproject_2stim_asymm_v5,2020.2.10,MacIntel,60,61025ae37ef11b136ea224fe,,,,,,,,,699,32.49609375,-97.8671875,1,0,0,response3disk,,4,-1.62890625,-1.47265625,1,0,0,rectangle,-1.62890625,-1.47265625,1,0,0,-1.62890625,-1.47265625,1,0,0,1,32,192,58,1,,,,,,,,
,,,,,,,,,,,,,FF,,,,,,,,7.637385,,,,,,,,,,,,,,,,,,,,,,61010bd98095d440ada024e4,61036c1396564cde52710f53,2021-07-29_20h05.15.927,Simcolourproject_2stim_asymm_v5,2020.2.10,MacIntel,60,61025ae37ef11b136ea224fe,,,,,,,,,3073,106.3671875,-23.77734375,1,0,0,response3disk,,5,14.0234375,0.78515625,1,0,0,rectangle,14.0234375,0.78515625,1,0,0,14.0234375,0.78515625,1,0,0,1,33,193,93,1,,,,,,,,
,,,,,,,,,,,,,FF,,,,,,,,1.48747,,,,,,,,,,,,,,,,,,,,,,61010bd98095d440ada024e4,61036c1396564cde52710f53,2021-07-29_20h05.15.927,Simcolourproject_2stim_asymm_v5,2020.2.10,MacIntel,60,61025ae37ef11b136ea224fe,,,,,,,,,3205,29.09765625,-63.09375,1,0,0,response3disk,,4,-7.6484375,-7.9921875,1,0,0,rectangle,-7.6484375,-7.9921875,1,0,0,-7.6484375,-7.9921875,1,0,0,1,34,194,64,1,,,,,,,,
,,,,,,,,,,,,,FF,,,,,,,,3.709255,,,,,,,,,,,,,,,,,,,,,,61010bd98095d440ada024e4,61036c1396564cde52710f53,2021-07-29_20h05.15.927,Simcolourproject_2stim_asymm_v5,2020.2.10,MacIntel,60,61025ae37ef11b136ea224fe,,,,,,,,,3045,-63.8046875,72.3203125,1,0,0,response7disk,,0,-6.9765625,6.03515625,1,0,0,rectangle,-6.9765625,6.03515625,1,0,0,-6.9765625,6.03515625,1,0,0,1,35,195,118,1,,,,,,,,
,,,,,,,,,,,,,FF,,,,,,,,1.521605,,,,,,,,,,,,,,,,,,,,,,61010bd98095d440ada024e4,61036c1396564cde52710f53,2021-07-29_20h05.15.927,Simcolourproject_2stim_asymm_v5,2020.2.10,MacIntel,60,61025ae37ef11b136ea224fe,,,,,,,,,768,25.04296875,-49.7265625,1,0,0,response3disk,,4,6.9453125,-1.4609375,1,0,0,rectangle,6.9453125,-1.4609375,1,0,0,6.9453125,-1.4609375,1,0,0,1,36,196,9,1,,,,,,,,
,,,,,,,,,,,,,FF,,,,,,,,5.546935,,,,,,,,,,,,,,,,,,,,,,61010bd98095d440ada024e4,61036c1396564cde52710f53,2021-07-29_20h05.15.927,Simcolourproject_2stim_asymm_v5,2020.2.10,MacIntel,60,61025ae37ef11b136ea224fe,,,,,,,,,3452,51.12890625,-77.91015625,1,0,0,response3disk,,4,-1.10546875,-0.21484375,1,0,0,rectangle,-1.10546875,-0.21484375,1,0,0,-1.10546875,-0.21484375,1,0,0,1,37,197,97,1,,,,,,,,
,,,,,,,,,,,,,FF,,,,,,,,2.908435,,,,,,,,,,,,,,,,,,,,,,61010bd98095d440ada024e4,61036c1396564cde52710f53,2021-07-29_20h05.15.927,Simcolourproject_2stim_asymm_v5,2020.2.10,MacIntel,60,61025ae37ef11b136ea224fe,,,,,,,,,1733,38.81640625,-77.93359375,1,0,0,response3disk,,4,6.3125,-5.03515625,1,0,0,rectangle,6.3125,-5.03515625,1,0,0,6.3125,-5.03515625,1,0,0,1,38,198,89,1,,,,,,,,
,,,,,,,,,,,,,FF,,,,,,,,1.32021,,,,,,,,,,,,,,,,,,,,,,61010bd98095d440ada024e4,61036c1396564cde52710f53,2021-07-29_20h05.15.927,Simcolourproject_2stim_asymm_v5,2020.2.10,MacIntel,60,61025ae37ef11b136ea224fe,,,,,,,,,315,92.40625,-41.12109375,1,0,0,response3disk,,5,16.83203125,2.40625,1,0,0,rectangle,16.83203125,2.40625,1,0,0,16.83203125,2.40625,1,0,0,1,39,199,81,1,,,,,,,,
,,,,,,,,,,,,,FF,,,,,,,,1.203305,,,,,,,,,,,,,,,,,,,,,,61010bd98095d440ada024e4,61036c1396564cde52710f53,2021-07-29_20h05.15.927,Simcolourproject_2stim_asymm_v5,2020.2.10,MacIntel,60,61025ae37ef11b136ea224fe,,,,,,,,,906,75.37890625,-42,1,0,0,response3disk,,5,14.4921875,0.8828125,1,0,0,rectangle,14.4921875,0.8828125,1,0,0,14.4921875,0.8828125,1,0,0,1,40,200,12,1,,,,,,,,
,,,,,,,,,,,,,FF,,,,,,,,1.0024,,,,,,,,,,,,,,,,,,,,,,61010bd98095d440ada024e4,61036c1396564cde52710f53,2021-07-29_20h05.15.927,Simcolourproject_2stim_asymm_v5,2020.2.10,MacIntel,60,61025ae37ef11b136ea224fe,,,,,,,,,3087,51.7265625,92.53125,1,0,0,response1disk,,7,11.67578125,2.265625,1,0,0,rectangle,11.67578125,2.265625,1,0,0,11.67578125,2.265625,1,0,0,1,41,201,19,1,,,,,,,,
,,,,,,,,,,,,,FF,,,,,,,,0.9858,,,,,,,,,,,,,,,,,,,,,,61010bd98095d440ada024e4,61036c1396564cde52710f53,2021-07-29_20h05.15.927,Simcolourproject_2stim_asymm_v5,2020.2.10,MacIntel,60,61025ae37ef11b136ea224fe,,,,,,,,,1829,41.16796875,-73.0078125,1,0,0,response3disk,,4,19.52734375,-7.40625,1,0,0,rectangle,19.52734375,-7.40625,1,0,0,19.52734375,-7.40625,1,0,0,1,42,202,33,1,,,,,,,,
,,,,,,,,,,,,,FF,,,,,,,,0.97126,,,,,,,,,,,,,,,,,,,,,,61010bd98095d440ada024e4,61036c1396564cde52710f53,2021-07-29_20h05.15.927,Simcolourproject_2stim_asymm_v5,2020.2.10,MacIntel,60,61025ae37ef11b136ea224fe,,,,,,,,,913,73.46875,35.9921875,1,0,0,response1disk,,6,18.4140625,-7.7890625,1,0,0,rectangle,18.4140625,-7.7890625,1,0,0,18.4140625,-7.7890625,1,0,0,1,43,203,50,1,,,,,,,,
,,,,,,,,,,,,,FF,,,,,,,,1.62126,,,,,,,,,,,,,,,,,,,,,,61010bd98095d440ada024e4,61036c1396564cde52710f53,2021-07-29_20h05.15.927,Simcolourproject_2stim_asymm_v5,2020.2.10,MacIntel,60,61025ae37ef11b136ea224fe,,,,,,,,,1965,38.53515625,-112.7070313,1,0,0,response3disk,,4,8.07421875,-13.69921875,1,0,0,rectangle,8.07421875,-13.69921875,1,0,0,8.07421875,-13.69921875,1,0,0,1,44,204,5,1,,,,,,,,
,,,,,,,,,,,,,FF,,,,,,,,1.187025,,,,,,,,,,,,,,,,,,,,,,61010bd98095d440ada024e4,61036c1396564cde52710f53,2021-07-29_20h05.15.927,Simcolourproject_2stim_asymm_v5,2020.2.10,MacIntel,60,61025ae37ef11b136ea224fe,,,,,,,,,463,33.2265625,-65.3984375,1,0,0,response3disk,,4,7.8515625,-3.26171875,1,0,0,rectangle,7.8515625,-3.26171875,1,0,0,7.8515625,-3.26171875,1,0,0,1,45,205,122,1,,,,,,,,
,,,,,,,,,,,,,FF,,,,,,,,1.9067,,,,,,,,,,,,,,,,,,,,,,61010bd98095d440ada024e4,61036c1396564cde52710f53,2021-07-29_20h05.15.927,Simcolourproject_2stim_asymm_v5,2020.2.10,MacIntel,60,61025ae37ef11b136ea224fe,,,,,,,,,2149,94.30859375,33,1,0,0,response1disk,,6,25.7421875,4.08203125,1,0,0,rectangle,25.7421875,4.08203125,1,0,0,25.7421875,4.08203125,1,0,0,1,46,206,110,1,,,,,,,,
,,,,,,,,,,,,,FF,,,,,,,,2.038825,,,,,,,,,,,,,,,,,,,,,,61010bd98095d440ada024e4,61036c1396564cde52710f53,2021-07-29_20h05.15.927,Simcolourproject_2stim_asymm_v5,2020.2.10,MacIntel,60,61025ae37ef11b136ea224fe,,,,,,,,,3691,100.9375,-59.375,1,0,0,response3disk,,5,26.625,-12.4765625,1,0,0,rectangle,26.625,-12.4765625,1,0,0,26.625,-12.4765625,1,0,0,1,47,207,150,1,,,,,,,,
,,,,,,,,,,,,,FF,,,,,,,,1.01991,,,,,,,,,,,,,,,,,,,,,,61010bd98095d440ada024e4,61036c1396564cde52710f53,2021-07-29_20h05.15.927,Simcolourproject_2stim_asymm_v5,2020.2.10,MacIntel,60,61025ae37ef11b136ea224fe,,,,,,,,,747,52.6875,-33.875,1,0,0,response3disk,,5,13.453125,9.86328125,1,0,0,rectangle,13.453125,9.86328125,1,0,0,13.453125,9.86328125,1,0,0,1,48,208,112,1,,,,,,,,
,,,,,,,,,,,,,FF,,,,,,,,0.952515,,,,,,,,,,,,,,,,,,,,,,61010bd98095d440ada024e4,61036c1396564cde52710f53,2021-07-29_20h05.15.927,Simcolourproject_2stim_asymm_v5,2020.2.10,MacIntel,60,61025ae37ef11b136ea224fe,,,,,,,,,1499,86.66015625,41.125,1,0,0,response1disk,,6,6.76953125,1.48046875,1,0,0,rectangle,6.76953125,1.48046875,1,0,0,6.76953125,1.48046875,1,0,0,1,49,209,145,1,,,,,,,,
,,,,,,,,,,,,,FF,,,,,,,,2.039915,,,,,,,,,,,,,,,,,,,,,,61010bd98095d440ada024e4,61036c1396564cde52710f53,2021-07-29_20h05.15.927,Simcolourproject_2stim_asymm_v5,2020.2.10,MacIntel,60,61025ae37ef11b136ea224fe,,,,,,,,,883,91.00390625,32.12109375,1,0,0,response1disk,,6,0.91796875,8.38671875,1,0,0,rectangle,0.91796875,8.38671875,1,0,0,0.91796875,8.38671875,1,0,0,1,50,210,143,1,,,,,,,,
,,,,,,,,,,,,,FF,,,,,,,,1.07084,,,,,,,,,,,,,,,,,,,,,,61010bd98095d440ada024e4,61036c1396564cde52710f53,2021-07-29_20h05.15.927,Simcolourproject_2stim_asymm_v5,2020.2.10,MacIntel,60,61025ae37ef11b136ea224fe,,,,,,,,,2782,-34.91015625,-86.07421875,1,0,0,response5disk,,3,6.14453125,1.10546875,1,0,0,rectangle,6.14453125,1.10546875,1,0,0,6.14453125,1.10546875,1,0,0,1,51,211,73,1,,,,,,,,
,,,,,,,,,,,,,FF,,,,,,,,1.168765,,,,,,,,,,,,,,,,,,,,,,61010bd98095d440ada024e4,61036c1396564cde52710f53,2021-07-29_20h05.15.927,Simcolourproject_2stim_asymm_v5,2020.2.10,MacIntel,60,61025ae37ef11b136ea224fe,,,,,,,,,2458,74.53515625,27.74609375,1,0,0,response1disk,,6,7.53515625,4.171875,1,0,0,rectangle,7.53515625,4.171875,1,0,0,7.53515625,4.171875,1,0,0,1,52,212,60,1,,,,,,,,
,,,,,,,,,,,,,FF,,,,,,,,2.19051,,,,,,,,,,,,,,,,,,,,,,61010bd98095d440ada024e4,61036c1396564cde52710f53,2021-07-29_20h05.15.927,Simcolourproject_2stim_asymm_v5,2020.2.10,MacIntel,60,61025ae37ef11b136ea224fe,,,,,,,,,1618,-46.26171875,-92.31640625,1,0,0,response5disk,,3,-5.9765625,-3.34375,1,0,0,rectangle,-5.9765625,-3.34375,1,0,0,-5.9765625,-3.34375,1,0,0,1,53,213,136,1,,,,,,,,
,,,,,,,,,,,,,FF,,,,,,,,2.67281,,,,,,,,,,,,,,,,,,,,,,61010bd98095d440ada024e4,61036c1396564cde52710f53,2021-07-29_20h05.15.927,Simcolourproject_2stim_asymm_v5,2020.2.10,MacIntel,60,61025ae37ef11b136ea224fe,,,,,,,,,2608,-85.734375,-45.75,1,0,0,response5disk,,2,-2.1640625,8.53515625,1,0,0,rectangle,-2.1640625,8.53515625,1,0,0,-2.1640625,8.53515625,1,0,0,1,54,214,80,1,,,,,,,,
,,,,,,,,,,,,,FF,,,,,,,,1.27042,,,,,,,,,,,,,,,,,,,,,,61010bd98095d440ada024e4,61036c1396564cde52710f53,2021-07-29_20h05.15.927,Simcolourproject_2stim_asymm_v5,2020.2.10,MacIntel,60,61025ae37ef11b136ea224fe,,,,,,,,,1695,69.15625,-44.38671875,1,0,0,response3disk,,5,15.99609375,6.03515625,1,0,0,rectangle,15.99609375,6.03515625,1,0,0,15.99609375,6.03515625,1,0,0,1,55,215,76,1,,,,,,,,
,,,,,,,,,,,,,FF,,,,,,,,1.21922,,,,,,,,,,,,,,,,,,,,,,61010bd98095d440ada024e4,61036c1396564cde52710f53,2021-07-29_20h05.15.927,Simcolourproject_2stim_asymm_v5,2020.2.10,MacIntel,60,61025ae37ef11b136ea224fe,,,,,,,,,1270,69.05078125,-51.4140625,1,0,0,response3disk,,5,13.8984375,-11.42578125,1,0,0,rectangle,13.8984375,-11.42578125,1,0,0,13.8984375,-11.42578125,1,0,0,1,56,216,82,1,,,,,,,,
,,,,,,,,,,,,,FF,,,,,,,,2.82385,,,,,,,,,,,,,,,,,,,,,,61010bd98095d440ada024e4,61036c1396564cde52710f53,2021-07-29_20h05.15.927,Simcolourproject_2stim_asymm_v5,2020.2.10,MacIntel,60,61025ae37ef11b136ea224fe,,,,,,,,,1476,79.546875,-36.80859375,1,0,0,response3disk,,5,8.8828125,8.89453125,1,0,0,rectangle,8.8828125,8.89453125,1,0,0,8.8828125,8.89453125,1,0,0,1,57,217,62,1,,,,,,,,
,,,,,,,,,,,,,FF,,,,,,,,1.23713,,,,,,,,,,,,,,,,,,,,,,61010bd98095d440ada024e4,61036c1396564cde52710f53,2021-07-29_20h05.15.927,Simcolourproject_2stim_asymm_v5,2020.2.10,MacIntel,60,61025ae37ef11b136ea224fe,,,,,,,,,1880,89.13671875,-54.328125,1,0,0,response3disk,,5,11.546875,0.05078125,1,0,0,rectangle,-22.33984375,-83.515625,1,0,0,8.06640625,-12.8515625,1,0,0,1,58,218,95,1,,response5disk_3,TRUE,3,3,"[227,92,307,310,288,4,92,130,69,119,95,118,298,95,219,305,251,270,2,254]",2.10697,rectangle
,,,,,,,,,,,,,FF,,,,,,,,2.106955,,,,,,,,,,,,,,,,,,,,,,61010bd98095d440ada024e4,61036c1396564cde52710f53,2021-07-29_20h05.15.927,Simcolourproject_2stim_asymm_v5,2020.2.10,MacIntel,60,61025ae37ef11b136ea224fe,,,,,,,,,3586,-63.86328125,-83.5234375,1,0,0,response5disk,,3,0.57421875,5.68359375,1,0,0,rectangle,0.57421875,5.68359375,1,0,0,0.57421875,5.68359375,1,0,0,1,59,219,127,1,,,,,,,,
,,,,,,,,,,,,,FF,,,,,,,,1.136005,,,,,,,,,,,,,,,,,,,,,,61010bd98095d440ada024e4,61036c1396564cde52710f53,2021-07-29_20h05.15.927,Simcolourproject_2stim_asymm_v5,2020.2.10,MacIntel,60,61025ae37ef11b136ea224fe,,,,,,,,,2724,-22.1953125,-68.984375,1,0,0,response5disk,,3,3.171875,-1.21484375,1,0,0,rectangle,3.171875,-1.21484375,1,0,0,3.171875,-1.21484375,1,0,0,1,60,220,42,1,,,,,,,,
,,,,,,,,,,,,,FF,,,,,,,,3.143485,,,,,,,,,,,,,,,,,,,,,,61010bd98095d440ada024e4,61036c1396564cde52710f53,2021-07-29_20h05.15.927,Simcolourproject_2stim_asymm_v5,2020.2.10,MacIntel,60,61025ae37ef11b136ea224fe,,,,,,,,,1532,42.07421875,-89.9140625,1,0,0,response3disk,,4,10.06640625,-14.89453125,1,0,0,rectangle,10.06640625,-14.89453125,1,0,0,10.06640625,-14.89453125,1,0,0,1,61,221,109,1,,,,,,,,
,,,,,,,,,,,,,FF,,,,,,,,1.35408,,,,,,,,,,,,,,,,,,,,,,61010bd98095d440ada024e4,61036c1396564cde52710f53,2021-07-29_20h05.15.927,Simcolourproject_2stim_asymm_v5,2020.2.10,MacIntel,60,61025ae37ef11b136ea224fe,,,,,,,,,887,-91.078125,-59.56640625,1,0,0,response5disk,,2,-21.5546875,2.1328125,1,0,0,rectangle,-21.5546875,2.1328125,1,0,0,-21.5546875,2.1328125,1,0,0,1,62,222,36,1,,,,,,,,
,,,,,,,,,,,,,FF,,,,,,,,0.969265,,,,,,,,,,,,,,,,,,,,,,61010bd98095d440ada024e4,61036c1396564cde52710f53,2021-07-29_20h05.15.927,Simcolourproject_2stim_asymm_v5,2020.2.10,MacIntel,60,61025ae37ef11b136ea224fe,,,,,,,,,3487,34.80078125,-61.55078125,1,0,0,response3disk,,4,3.453125,-7.67578125,1,0,0,rectangle,3.453125,-7.67578125,1,0,0,3.453125,-7.67578125,1,0,0,1,63,223,131,1,,,,,,,,
,,,,,,,,,,,,,FF,,,,,,,,2.27248,,,,,,,,,,,,,,,,,,,,,,61010bd98095d440ada024e4,61036c1396564cde52710f53,2021-07-29_20h05.15.927,Simcolourproject_2stim_asymm_v5,2020.2.10,MacIntel,60,61025ae37ef11b136ea224fe,,,,,,,,,1821,-50.828125,-92.1875,1,0,0,response5disk,,3,10.2890625,4.1328125,1,0,0,rectangle,10.2890625,4.1328125,1,0,0,10.2890625,4.1328125,1,0,0,1,64,224,4,1,,,,,,,,
,,,,,,,,,,,,,FF,,,,,,,,1.135605,,,,,,,,,,,,,,,,,,,,,,61010bd98095d440ada024e4,61036c1396564cde52710f53,2021-07-29_20h05.15.927,Simcolourproject_2stim_asymm_v5,2020.2.10,MacIntel,60,61025ae37ef11b136ea224fe,,,,,,,,,2046,29.921875,-75.44140625,1,0,0,response3disk,,4,10.38671875,-5.73046875,1,0,0,rectangle,10.38671875,-5.73046875,1,0,0,10.38671875,-5.73046875,1,0,0,1,65,225,133,1,,,,,,,,
,,,,,,,,,,,,,FF,,,,,,,,1.12027,,,,,,,,,,,,,,,,,,,,,,61010bd98095d440ada024e4,61036c1396564cde52710f53,2021-07-29_20h05.15.927,Simcolourproject_2stim_asymm_v5,2020.2.10,MacIntel,60,61025ae37ef11b136ea224fe,,,,,,,,,3489,31.91796875,-78.2890625,1,0,0,response3disk,,4,16.10546875,-16.1875,1,0,0,rectangle,33.61328125,-50.87890625,1,0,0,-1.3671875,6.74609375,1,0,0,1,66,226,128,1,,response3disk_3,TRUE,4,4,"[227,92,307,310,288,4,92,130,69,119,95,118,298,95,219,305,251,270,2,254]",1.555305,rectangle
,,,,,,,,,,,,,FF,,,,,,,,1.152695,,,,,,,,,,,,,,,,,,,,,,61010bd98095d440ada024e4,61036c1396564cde52710f53,2021-07-29_20h05.15.927,Simcolourproject_2stim_asymm_v5,2020.2.10,MacIntel,60,61025ae37ef11b136ea224fe,,,,,,,,,649,65.546875,-39.64453125,1,0,0,response3disk,,5,18.609375,-2.9765625,1,0,0,rectangle,18.609375,-2.9765625,1,0,0,18.609375,-2.9765625,1,0,0,1,67,227,102,1,,,,,,,,
,,,,,,,,,,,,,FF,,,,,,,,1.119275,,,,,,,,,,,,,,,,,,,,,,61010bd98095d440ada024e4,61036c1396564cde52710f53,2021-07-29_20h05.15.927,Simcolourproject_2stim_asymm_v5,2020.2.10,MacIntel,60,61025ae37ef11b136ea224fe,,,,,,,,,376,69.68359375,-42.53125,1,0,0,response3disk,,5,16.2421875,-5.3515625,1,0,0,rectangle,16.2421875,-5.3515625,1,0,0,16.2421875,-5.3515625,1,0,0,1,68,228,59,1,,,,,,,,
,,,,,,,,,,,,,FF,,,,,,,,1.671465,,,,,,,,,,,,,,,,,,,,,,61010bd98095d440ada024e4,61036c1396564cde52710f53,2021-07-29_20h05.15.927,Simcolourproject_2stim_asymm_v5,2020.2.10,MacIntel,60,61025ae37ef11b136ea224fe,,,,,,,,,3308,69.09375,-34.3046875,1,0,0,response3disk,,5,9.1171875,4.17578125,1,0,0,rectangle,9.1171875,4.17578125,1,0,0,9.1171875,4.17578125,1,0,0,1,69,229,78,1,,,,,,,,
,,,,,,,,,,,,,FF,,,,,,,,1.420135,,,,,,,,,,,,,,,,,,,,,,61010bd98095d440ada024e4,61036c1396564cde52710f53,2021-07-29_20h05.15.927,Simcolourproject_2stim_asymm_v5,2020.2.10,MacIntel,60,61025ae37ef11b136ea224fe,,,,,,,,,29,79.8046875,31.53125,1,0,0,response1disk,,6,16.609375,10.21484375,1,0,0,rectangle,16.609375,10.21484375,1,0,0,16.609375,10.21484375,1,0,0,1,70,230,24,1,,,,,,,,
,,,,,,,,,,,,,FF,,,,,,,,2.105035,,,,,,,,,,,,,,,,,,,,,,61010bd98095d440ada024e4,61036c1396564cde52710f53,2021-07-29_20h05.15.927,Simcolourproject_2stim_asymm_v5,2020.2.10,MacIntel,60,61025ae37ef11b136ea224fe,,,,,,,,,1519,99.25390625,55.14453125,1,0,0,response1disk,,6,11.4765625,1.04296875,1,0,0,rectangle,11.4765625,1.04296875,1,0,0,11.4765625,1.04296875,1,0,0,1,71,231,27,1,,,,,,,,
,,,,,,,,,,,,,FF,,,,,,,,1.70426,,,,,,,,,,,,,,,,,,,,,,61010bd98095d440ada024e4,61036c1396564cde52710f53,2021-07-29_20h05.15.927,Simcolourproject_2stim_asymm_v5,2020.2.10,MacIntel,60,61025ae37ef11b136ea224fe,,,,,,,,,569,42.578125,-67.8125,1,0,0,response3disk,,4,-3.76953125,-6.15625,1,0,0,rectangle,-3.76953125,-6.15625,1,0,0,-3.76953125,-6.15625,1,0,0,1,72,232,149,1,,,,,,,,
,,,,,,,,,,,,,FF,,,,,,,,1.08625,,,,,,,,,,,,,,,,,,,,,,61010bd98095d440ada024e4,61036c1396564cde52710f53,2021-07-29_20h05.15.927,Simcolourproject_2stim_asymm_v5,2020.2.10,MacIntel,60,61025ae37ef11b136ea224fe,,,,,,,,,2903,98.73828125,-41.2890625,1,0,0,response3disk,,5,27.32421875,-2.1484375,1,0,0,rectangle,27.32421875,-2.1484375,1,0,0,27.32421875,-2.1484375,1,0,0,1,73,233,14,1,,,,,,,,
,,,,,,,,,,,,,FF,,,,,,,,1.988695,,,,,,,,,,,,,,,,,,,,,,61010bd98095d440ada024e4,61036c1396564cde52710f53,2021-07-29_20h05.15.927,Simcolourproject_2stim_asymm_v5,2020.2.10,MacIntel,60,61025ae37ef11b136ea224fe,,,,,,,,,936,49.40234375,-70.6484375,1,0,0,response3disk,,4,7.08984375,3.59765625,1,0,0,rectangle,7.08984375,3.59765625,1,0,0,7.08984375,3.59765625,1,0,0,1,74,234,22,1,,,,,,,,
,,,,,,,,,,,,,FF,,,,,,,,1.70442,,,,,,,,,,,,,,,,,,,,,,61010bd98095d440ada024e4,61036c1396564cde52710f53,2021-07-29_20h05.15.927,Simcolourproject_2stim_asymm_v5,2020.2.10,MacIntel,60,61025ae37ef11b136ea224fe,,,,,,,,,2480,-78.40625,38.328125,1,0,0,response7disk,,1,13.640625,8.51953125,1,0,0,rectangle,13.640625,8.51953125,1,0,0,13.640625,8.51953125,1,0,0,1,75,235,98,1,,,,,,,,
,,,,,,,,,,,,,FF,,,,,,,,1.872885,,,,,,,,,,,,,,,,,,,,,,61010bd98095d440ada024e4,61036c1396564cde52710f53,2021-07-29_20h05.15.927,Simcolourproject_2stim_asymm_v5,2020.2.10,MacIntel,60,61025ae37ef11b136ea224fe,,,,,,,,,3071,83.5859375,44.95703125,1,0,0,response1disk,,6,28.10546875,5.20703125,1,0,0,rectangle,28.10546875,5.20703125,1,0,0,28.10546875,5.20703125,1,0,0,1,76,236,49,1,,,,,,,,
,,,,,,,,,,,,,FF,,,,,,,,1.03639,,,,,,,,,,,,,,,,,,,,,,61010bd98095d440ada024e4,61036c1396564cde52710f53,2021-07-29_20h05.15.927,Simcolourproject_2stim_asymm_v5,2020.2.10,MacIntel,60,61025ae37ef11b136ea224fe,,,,,,,,,3503,-40.82421875,-111.6367188,1,0,0,response5disk,,3,-7.39453125,0.15234375,1,0,0,rectangle,-7.39453125,0.15234375,1,0,0,-7.39453125,0.15234375,1,0,0,1,77,237,141,1,,,,,,,,
,,,,,,,,,,,,,FF,,,,,,,,1.10309,,,,,,,,,,,,,,,,,,,,,,61010bd98095d440ada024e4,61036c1396564cde52710f53,2021-07-29_20h05.15.927,Simcolourproject_2stim_asymm_v5,2020.2.10,MacIntel,60,61025ae37ef11b136ea224fe,,,,,,,,,3976,-22.4609375,-70.859375,1,0,0,response5disk,,3,7.18359375,12.79296875,1,0,0,rectangle,7.18359375,12.79296875,1,0,0,7.18359375,12.79296875,1,0,0,1,78,238,71,1,,,,,,,,
,,,,,,,,,,,,,FF,,,,,,,,1.97293,,,,,,,,,,,,,,,,,,,,,,61010bd98095d440ada024e4,61036c1396564cde52710f53,2021-07-29_20h05.15.927,Simcolourproject_2stim_asymm_v5,2020.2.10,MacIntel,60,61025ae37ef11b136ea224fe,,,,,,,,,2013,108.9609375,44.22265625,1,0,0,response1disk,,6,-3.67578125,-5.46484375,1,0,0,rectangle,-3.67578125,-5.46484375,1,0,0,-3.67578125,-5.46484375,1,0,0,1,79,239,126,1,,,,,,,,
,,,,,,,,,,,,,FF,,,,,,,,1.75416,,,,,,,,,,,,,,,,,,,,,,61010bd98095d440ada024e4,61036c1396564cde52710f53,2021-07-29_20h05.15.927,Simcolourproject_2stim_asymm_v5,2020.2.10,MacIntel,60,61025ae37ef11b136ea224fe,,,,,,,,,2801,107.2578125,-30.0703125,1,0,0,response3disk,,5,21.55078125,-13.43359375,1,0,0,rectangle,21.55078125,-13.43359375,1,0,0,21.55078125,-13.43359375,1,0,0,1,80,240,41,1,,,,,,,,
,,,,,,,,,,,,,FF,,,,,,,,1.5695,,,,,,,,,,,,,,,,,,,,,,61010bd98095d440ada024e4,61036c1396564cde52710f53,2021-07-29_20h05.15.927,Simcolourproject_2stim_asymm_v5,2020.2.10,MacIntel,60,61025ae37ef11b136ea224fe,,,,,,,,,1857,102.7929688,74.66796875,1,0,0,response1disk,,6,4.23828125,-2.484375,1,0,0,rectangle,4.23828125,-2.484375,1,0,0,4.23828125,-2.484375,1,0,0,1,81,241,47,1,,,,,,,,
,,,,,,,,,,,,,FF,,,,,,,,3.00725,,,,,,,,,,,,,,,,,,,,,,61010bd98095d440ada024e4,61036c1396564cde52710f53,2021-07-29_20h05.15.927,Simcolourproject_2stim_asymm_v5,2020.2.10,MacIntel,60,61025ae37ef11b136ea224fe,,,,,,,,,2383,101.8476563,41.09375,1,0,0,response1disk,,6,-0.3359375,-7.8515625,1,0,0,rectangle,-0.3359375,-7.8515625,1,0,0,-0.3359375,-7.8515625,1,0,0,1,82,242,86,1,,,,,,,,
,,,,,,,,,,,,,FF,,,,,,,,1.771525,,,,,,,,,,,,,,,,,,,,,,61010bd98095d440ada024e4,61036c1396564cde52710f53,2021-07-29_20h05.15.927,Simcolourproject_2stim_asymm_v5,2020.2.10,MacIntel,60,61025ae37ef11b136ea224fe,,,,,,,,,2564,69.8359375,27.0234375,1,0,0,response1disk,,6,11.0703125,6.78515625,1,0,0,rectangle,11.0703125,6.78515625,1,0,0,11.0703125,6.78515625,1,0,0,1,83,243,85,1,,,,,,,,
,,,,,,,,,,,,,FF,,,,,,,,2.557585,,,,,,,,,,,,,,,,,,,,,,61010bd98095d440ada024e4,61036c1396564cde52710f53,2021-07-29_20h05.15.927,Simcolourproject_2stim_asymm_v5,2020.2.10,MacIntel,60,61025ae37ef11b136ea224fe,,,,,,,,,4332,54.58203125,-70.88671875,1,0,0,response3disk,,4,0.4375,-15.71875,1,0,0,rectangle,0.4375,-15.71875,1,0,0,0.4375,-15.71875,1,0,0,1,84,244,28,1,,,,,,,,
,,,,,,,,,,,,,FF,,,,,,,,1.2034,,,,,,,,,,,,,,,,,,,,,,61010bd98095d440ada024e4,61036c1396564cde52710f53,2021-07-29_20h05.15.927,Simcolourproject_2stim_asymm_v5,2020.2.10,MacIntel,60,61025ae37ef11b136ea224fe,,,,,,,,,3939,-61.93359375,-97.59765625,1,0,0,response5disk,,3,-3.24609375,8.234375,1,0,0,rectangle,-3.24609375,8.234375,1,0,0,-3.24609375,8.234375,1,0,0,1,85,245,6,1,,,,,,,,
,,,,,,,,,,,,,FF,,,,,,,,1.08691,,,,,,,,,,,,,,,,,,,,,,61010bd98095d440ada024e4,61036c1396564cde52710f53,2021-07-29_20h05.15.927,Simcolourproject_2stim_asymm_v5,2020.2.10,MacIntel,60,61025ae37ef11b136ea224fe,,,,,,,,,4090,-29.48828125,-66.00390625,1,0,0,response5disk,,3,-0.66015625,-14.57421875,1,0,0,rectangle,-0.66015625,-14.57421875,1,0,0,-0.66015625,-14.57421875,1,0,0,1,86,246,157,1,,,,,,,,
,,,,,,,,,,,,,FF,,,,,,,,2.99145,,,,,,,,,,,,,,,,,,,,,,61010bd98095d440ada024e4,61036c1396564cde52710f53,2021-07-29_20h05.15.927,Simcolourproject_2stim_asymm_v5,2020.2.10,MacIntel,60,61025ae37ef11b136ea224fe,,,,,,,,,3351,112.9023438,42.890625,1,0,0,response1disk,,6,-0.234375,6.20703125,1,0,0,rectangle,-0.234375,6.20703125,1,0,0,-0.234375,6.20703125,1,0,0,1,87,247,147,1,,,,,,,,
,,,,,,,,,,,,,FF,,,,,,,,7.45295,,,,,,,,,,,,,,,,,,,,,,61010bd98095d440ada024e4,61036c1396564cde52710f53,2021-07-29_20h05.15.927,Simcolourproject_2stim_asymm_v5,2020.2.10,MacIntel,60,61025ae37ef11b136ea224fe,,,,,,,,,1781,117.7890625,60.26953125,1,0,0,response1disk,,6,19.015625,-6.61328125,1,0,0,rectangle,19.015625,-6.61328125,1,0,0,19.015625,-6.61328125,1,0,0,1,88,248,34,1,,,,,,,,
,,,,,,,,,,,,,FF,,,,,,,,5.29883,,,,,,,,,,,,,,,,,,,,,,61010bd98095d440ada024e4,61036c1396564cde52710f53,2021-07-29_20h05.15.927,Simcolourproject_2stim_asymm_v5,2020.2.10,MacIntel,60,61025ae37ef11b136ea224fe,,,,,,,,,587,99.74609375,72.65234375,1,0,0,response1disk,,6,16.69921875,8.4609375,1,0,0,rectangle,16.69921875,8.4609375,1,0,0,16.69921875,8.4609375,1,0,0,1,89,249,129,1,,,,,,,,
