key_resp.keys,key_resp.rt,key_resp_14.keys,key_resp_14.rt,key_resp_15.keys,key_resp_15.rt,key_resp_17.keys,key_resp_17.rt,key_resp_9.keys,key_resp_9.rt,key_resp_10.keys,key_resp_10.rt,practice_comparison,Ecc,mouse_5.x,mouse_5.y,mouse_5.leftButton,mouse_5.midButton,mouse_5.rightButton,mouse_5.clicked_name,pracsimilarity,response_time,mouse_10.x,mouse_10.y,mouse_10.leftButton,mouse_10.midButton,mouse_10.rightButton,mouse_10.clicked_name,mouse_7.x,mouse_7.y,mouse_7.leftButton,mouse_7.midButton,mouse_7.rightButton,mouse_6.x,mouse_6.y,mouse_6.leftButton,mouse_6.midButton,mouse_6.rightButton,duringprac.thisRepN,duringprac.thisTrialN,duringprac.thisN,duringprac.thisIndex,duringprac.ran,participant,session,date,expName,psychopyVersion,OS,frameRate,study_id,mouse_7.clicked_name,catchpracsimilarity,catch_response_time,catchnumberprac,catchtrialorderprac,mouse_6.clicked_name,key_resp_22.keys,key_resp_22.rt,realcomparison,mouse.x,mouse.y,mouse.leftButton,mouse.midButton,mouse.rightButton,mouse.clicked_name,Colour2,similarity,mouse_2.x,mouse_2.y,mouse_2.leftButton,mouse_2.midButton,mouse_2.rightButton,mouse_2.clicked_name,mouse_3.x,mouse_3.y,mouse_3.leftButton,mouse_3.midButton,mouse_3.rightButton,mouse_11.x,mouse_11.y,mouse_11.leftButton,mouse_11.midButton,mouse_11.rightButton,trials_2.thisRepN,trials_2.thisTrialN,trials_2.thisN,trials_2.thisIndex,trials_2.ran,Colour1,mouse_3.clicked_name,catchornah,catchsimilarity,catchnumber,catchtrialorder,catchRT,mouse_11.clicked_name
space,0.9305,space,0.8298,space,16.899,space,0.8505,space,0.5835,space,3.4165,150,FF,44.87890625,88.546875,1,0,0,response1disk_5,7,8.8048,-10.7734375,-5.0546875,1,0,0,rectangle_8,-10.7734375,-5.0546875,1,0,0,-10.7734375,-5.0546875,1,0,0,0,0,0,3,1,610174a8f8a591e240e77be0,61036d05ada89aa3a7128e62,2021-07-29_23h09.12.527,Simcolourproject_2stim_asymm_v5,2020.2.10,MacIntel,60,61025ae37ef11b136ea224fe,,,,,,,,,,,,,,,,,,,,,,,,,,,,,,,,,,,,,,,,,,,,,,
,,,,,,,,,,,,26,PF,-38.29296875,-94.8046875,1,0,0,response5disk_5,3,2.3324,6.04296875,-5.734375,1,0,0,rectangle_8,113.3125,49.90234375,1,0,0,12.97265625,-5.0390625,1,0,0,0,1,1,2,1,610174a8f8a591e240e77be0,61036d05ada89aa3a7128e62,2021-07-29_23h09.12.527,Simcolourproject_2stim_asymm_v5,2020.2.10,MacIntel,60,61025ae37ef11b136ea224fe,response1disk_7,6,2.4676,6,"[2,5]",rectangle_4,,,,,,,,,,,,,,,,,,,,,,,,,,,,,,,,,,,,,,,,
,,,,,,,,,,,,160,PF,-90.58984375,-38.65625,1,0,0,response5disk_5,2,4.0169,-0.7265625,13.50390625,1,0,0,rectangle_8,-0.7265625,13.50390625,1,0,0,-0.7265625,13.50390625,1,0,0,0,2,2,4,1,610174a8f8a591e240e77be0,61036d05ada89aa3a7128e62,2021-07-29_23h09.12.527,Simcolourproject_2stim_asymm_v5,2020.2.10,MacIntel,60,61025ae37ef11b136ea224fe,,,,,,,,,,,,,,,,,,,,,,,,,,,,,,,,,,,,,,,,,,,,,,
,,,,,,,,,,,,115,PF,-89.34375,-49.00390625,1,0,0,response5disk_5,2,0.9668,14.25,5.39453125,1,0,0,rectangle_8,14.25,5.39453125,1,0,0,14.25,5.39453125,1,0,0,0,3,3,1,1,610174a8f8a591e240e77be0,61036d05ada89aa3a7128e62,2021-07-29_23h09.12.527,Simcolourproject_2stim_asymm_v5,2020.2.10,MacIntel,60,61025ae37ef11b136ea224fe,,,,,,,,,,,,,,,,,,,,,,,,,,,,,,,,,,,,,,,,,,,,,,
,,,,,,,,,,,,29,FF,64.3984375,-113.1484375,1,0,0,response3disk_5,4,0.9997,-0.9296875,11.10546875,1,0,0,rectangle_8,99.34765625,42.10546875,1,0,0,1.4140625,12.41015625,1,0,0,0,4,4,0,1,610174a8f8a591e240e77be0,61036d05ada89aa3a7128e62,2021-07-29_23h09.12.527,Simcolourproject_2stim_asymm_v5,2020.2.10,MacIntel,60,61025ae37ef11b136ea224fe,response1disk_7,6,2.3842,6,"[2,5]",rectangle_4,,,,,,,,,,,,,,,,,,,,,,,,,,,,,,,,,,,,,,,,
,,,,,,,,,,,,31,FF,42.87890625,63.765625,1,0,0,response1disk_5,7,1.3826,15.29296875,-5.4765625,1,0,0,rectangle_8,15.29296875,-5.4765625,1,0,0,15.29296875,-5.4765625,1,0,0,0,5,5,5,1,610174a8f8a591e240e77be0,61036d05ada89aa3a7128e62,2021-07-29_23h09.12.527,Simcolourproject_2stim_asymm_v5,2020.2.10,MacIntel,60,61025ae37ef11b136ea224fe,,,,,,,,,,,,,,,,,,,,,,,,,,,,,,,,,,,,,,,,,,,,,,
,,,,,,,,,,,,6,PF,-43.5625,-110.7539063,1,0,0,response5disk_5,3,1.5331,13.42578125,-2.21875,1,0,0,rectangle_8,13.42578125,-2.21875,1,0,0,13.42578125,-2.21875,1,0,0,0,6,6,6,1,610174a8f8a591e240e77be0,61036d05ada89aa3a7128e62,2021-07-29_23h09.12.527,Simcolourproject_2stim_asymm_v5,2020.2.10,MacIntel,60,61025ae37ef11b136ea224fe,,,,,,,,,,,,,,,,,,,,,,,,,,,,,,,,,,,,,,,,,,,,,,
,,,,,,,,,,,,,FF,,,,,,,,3.9872,,,,,,,,,,,,,,,,,,,,,,610174a8f8a591e240e77be0,61036d05ada89aa3a7128e62,2021-07-29_23h09.12.527,Simcolourproject_2stim_asymm_v5,2020.2.10,MacIntel,60,61025ae37ef11b136ea224fe,,,,,,,space,1.5506,732,-85.703125,-46.375,1,0,0,response5disk,,2,9.01953125,5.81640625,1,0,0,rectangle,9.01953125,5.81640625,1,0,0,9.01953125,5.81640625,1,0,0,0,0,0,63,1,,,,,,,,
,,,,,,,,,,,,,FF,,,,,,,,0.8011,,,,,,,,,,,,,,,,,,,,,,610174a8f8a591e240e77be0,61036d05ada89aa3a7128e62,2021-07-29_23h09.12.527,Simcolourproject_2stim_asymm_v5,2020.2.10,MacIntel,60,61025ae37ef11b136ea224fe,,,,,,,,,3623,-85.4609375,-33.640625,1,0,0,response5disk,,2,-18.921875,-6.90625,1,0,0,rectangle,-18.921875,-6.90625,1,0,0,-18.921875,-6.90625,1,0,0,0,1,1,117,1,,,,,,,,
,,,,,,,,,,,,,FF,,,,,,,,0.8826,,,,,,,,,,,,,,,,,,,,,,610174a8f8a591e240e77be0,61036d05ada89aa3a7128e62,2021-07-29_23h09.12.527,Simcolourproject_2stim_asymm_v5,2020.2.10,MacIntel,60,61025ae37ef11b136ea224fe,,,,,,,,,3316,23.7265625,65.5390625,1,0,0,response1disk,,7,19.1015625,-2.31640625,1,0,0,rectangle,19.1015625,-2.31640625,1,0,0,19.1015625,-2.31640625,1,0,0,0,2,2,155,1,,,,,,,,
,,,,,,,,,,,,,FF,,,,,,,,0.9522,,,,,,,,,,,,,,,,,,,,,,610174a8f8a591e240e77be0,61036d05ada89aa3a7128e62,2021-07-29_23h09.12.527,Simcolourproject_2stim_asymm_v5,2020.2.10,MacIntel,60,61025ae37ef11b136ea224fe,,,,,,,,,2547,-82.8671875,38.39453125,1,0,0,response7disk,,1,7.15234375,-4.72265625,1,0,0,rectangle,7.15234375,-4.72265625,1,0,0,7.15234375,-4.72265625,1,0,0,0,3,3,8,1,,,,,,,,
,,,,,,,,,,,,,FF,,,,,,,,1,,,,,,,,,,,,,,,,,,,,,,610174a8f8a591e240e77be0,61036d05ada89aa3a7128e62,2021-07-29_23h09.12.527,Simcolourproject_2stim_asymm_v5,2020.2.10,MacIntel,60,61025ae37ef11b136ea224fe,,,,,,,,,1087,64.375,54.875,1,0,0,response1disk,,6,22.171875,9.3203125,1,0,0,rectangle,22.171875,9.3203125,1,0,0,22.171875,9.3203125,1,0,0,0,4,4,87,1,,,,,,,,
,,,,,,,,,,,,,FF,,,,,,,,0.9337,,,,,,,,,,,,,,,,,,,,,,610174a8f8a591e240e77be0,61036d05ada89aa3a7128e62,2021-07-29_23h09.12.527,Simcolourproject_2stim_asymm_v5,2020.2.10,MacIntel,60,61025ae37ef11b136ea224fe,,,,,,,,,369,-68.88671875,-74.328125,1,0,0,response5disk,,3,7.19140625,0.5234375,1,0,0,rectangle,7.19140625,0.5234375,1,0,0,7.19140625,0.5234375,1,0,0,0,5,5,72,1,,,,,,,,
,,,,,,,,,,,,,FF,,,,,,,,1.1179,,,,,,,,,,,,,,,,,,,,,,610174a8f8a591e240e77be0,61036d05ada89aa3a7128e62,2021-07-29_23h09.12.527,Simcolourproject_2stim_asymm_v5,2020.2.10,MacIntel,60,61025ae37ef11b136ea224fe,,,,,,,,,1158,37.59375,-79.921875,1,0,0,response3disk,,4,17.609375,-16.64453125,1,0,0,rectangle,17.609375,-16.64453125,1,0,0,17.609375,-16.64453125,1,0,0,0,6,6,122,1,,,,,,,,
,,,,,,,,,,,,,FF,,,,,,,,1.1992,,,,,,,,,,,,,,,,,,,,,,610174a8f8a591e240e77be0,61036d05ada89aa3a7128e62,2021-07-29_23h09.12.527,Simcolourproject_2stim_asymm_v5,2020.2.10,MacIntel,60,61025ae37ef11b136ea224fe,,,,,,,,,4045,41.11328125,77.1328125,1,0,0,response1disk,,7,5.5859375,4.97265625,1,0,0,rectangle,5.5859375,4.97265625,1,0,0,5.5859375,4.97265625,1,0,0,0,7,7,3,1,,,,,,,,
,,,,,,,,,,,,,FF,,,,,,,,0.9002,,,,,,,,,,,,,,,,,,,,,,610174a8f8a591e240e77be0,61036d05ada89aa3a7128e62,2021-07-29_23h09.12.527,Simcolourproject_2stim_asymm_v5,2020.2.10,MacIntel,60,61025ae37ef11b136ea224fe,,,,,,,,,3267,81.2421875,49.609375,1,0,0,response1disk,,6,-3.890625,-1.05078125,1,0,0,rectangle,-3.890625,-1.05078125,1,0,0,-3.890625,-1.05078125,1,0,0,0,8,8,77,1,,,,,,,,
,,,,,,,,,,,,,FF,,,,,,,,0.9661,,,,,,,,,,,,,,,,,,,,,,610174a8f8a591e240e77be0,61036d05ada89aa3a7128e62,2021-07-29_23h09.12.527,Simcolourproject_2stim_asymm_v5,2020.2.10,MacIntel,60,61025ae37ef11b136ea224fe,,,,,,,,,320,65.34765625,36.80078125,1,0,0,response1disk,,6,8.62109375,-0.43359375,1,0,0,rectangle,8.62109375,-0.43359375,1,0,0,8.62109375,-0.43359375,1,0,0,0,9,9,100,1,,,,,,,,
,,,,,,,,,,,,,FF,,,,,,,,0.8505,,,,,,,,,,,,,,,,,,,,,,610174a8f8a591e240e77be0,61036d05ada89aa3a7128e62,2021-07-29_23h09.12.527,Simcolourproject_2stim_asymm_v5,2020.2.10,MacIntel,60,61025ae37ef11b136ea224fe,,,,,,,,,1425,33.45703125,-88.86328125,1,0,0,response3disk,,4,4.69921875,-8.45703125,1,0,0,rectangle,4.69921875,-8.45703125,1,0,0,4.69921875,-8.45703125,1,0,0,0,10,10,105,1,,,,,,,,
,,,,,,,,,,,,,FF,,,,,,,,2.3999,,,,,,,,,,,,,,,,,,,,,,610174a8f8a591e240e77be0,61036d05ada89aa3a7128e62,2021-07-29_23h09.12.527,Simcolourproject_2stim_asymm_v5,2020.2.10,MacIntel,60,61025ae37ef11b136ea224fe,,,,,,,,,4095,-53.5546875,-108.4296875,1,0,0,response5disk,,3,2.11328125,-12.859375,1,0,0,rectangle,2.11328125,-12.859375,1,0,0,2.11328125,-12.859375,1,0,0,0,11,11,20,1,,,,,,,,
,,,,,,,,,,,,,FF,,,,,,,,0.783,,,,,,,,,,,,,,,,,,,,,,610174a8f8a591e240e77be0,61036d05ada89aa3a7128e62,2021-07-29_23h09.12.527,Simcolourproject_2stim_asymm_v5,2020.2.10,MacIntel,60,61025ae37ef11b136ea224fe,,,,,,,,,2519,48.10546875,91.95703125,1,0,0,response1disk,,7,4.7578125,-9.75390625,1,0,0,rectangle,4.7578125,-9.75390625,1,0,0,4.7578125,-9.75390625,1,0,0,0,12,12,150,1,,,,,,,,
,,,,,,,,,,,,,FF,,,,,,,,0.7995,,,,,,,,,,,,,,,,,,,,,,610174a8f8a591e240e77be0,61036d05ada89aa3a7128e62,2021-07-29_23h09.12.527,Simcolourproject_2stim_asymm_v5,2020.2.10,MacIntel,60,61025ae37ef11b136ea224fe,,,,,,,,,2686,-49.2734375,-98.9140625,1,0,0,response5disk,,3,-6.20703125,1.4375,1,0,0,rectangle,-6.20703125,1.4375,1,0,0,-6.20703125,1.4375,1,0,0,0,13,13,133,1,,,,,,,,
,,,,,,,,,,,,,FF,,,,,,,,1.0162,,,,,,,,,,,,,,,,,,,,,,610174a8f8a591e240e77be0,61036d05ada89aa3a7128e62,2021-07-29_23h09.12.527,Simcolourproject_2stim_asymm_v5,2020.2.10,MacIntel,60,61025ae37ef11b136ea224fe,,,,,,,,,631,-77.8984375,79.35546875,1,0,0,response7disk,,0,-28.48046875,-5.90234375,1,0,0,rectangle,-28.48046875,-5.90234375,1,0,0,-28.48046875,-5.90234375,1,0,0,0,14,14,65,1,,,,,,,,
,,,,,,,,,,,,,FF,,,,,,,,1.249,,,,,,,,,,,,,,,,,,,,,,610174a8f8a591e240e77be0,61036d05ada89aa3a7128e62,2021-07-29_23h09.12.527,Simcolourproject_2stim_asymm_v5,2020.2.10,MacIntel,60,61025ae37ef11b136ea224fe,,,,,,,,,1136,-48.828125,62.78125,1,0,0,response7disk,,0,5.28515625,2.8125,1,0,0,rectangle,102.3242188,20.62109375,1,0,0,-6.14453125,-12.78515625,1,0,0,0,15,15,14,1,,response1disk_3,TRUE,6,6,"[170,262,144,247,157,279,98,97,16,187,296,259,94,111,294,247,62,144,195,143]",1.9011,rectangle
,,,,,,,,,,,,,FF,,,,,,,,0.7666,,,,,,,,,,,,,,,,,,,,,,610174a8f8a591e240e77be0,61036d05ada89aa3a7128e62,2021-07-29_23h09.12.527,Simcolourproject_2stim_asymm_v5,2020.2.10,MacIntel,60,61025ae37ef11b136ea224fe,,,,,,,,,3345,78.93359375,60.3359375,1,0,0,response1disk,,6,29.8671875,15.93359375,1,0,0,rectangle,29.8671875,15.93359375,1,0,0,29.8671875,15.93359375,1,0,0,0,16,16,60,1,,,,,,,,
,,,,,,,,,,,,,FF,,,,,,,,2.4004,,,,,,,,,,,,,,,,,,,,,,610174a8f8a591e240e77be0,61036d05ada89aa3a7128e62,2021-07-29_23h09.12.527,Simcolourproject_2stim_asymm_v5,2020.2.10,MacIntel,60,61025ae37ef11b136ea224fe,,,,,,,,,992,41.37890625,91.23828125,1,0,0,response1disk,,7,9.66015625,-1.79296875,1,0,0,rectangle,9.66015625,-1.79296875,1,0,0,9.66015625,-1.79296875,1,0,0,0,17,17,68,1,,,,,,,,
,,,,,,,,,,,,,FF,,,,,,,,0.983,,,,,,,,,,,,,,,,,,,,,,610174a8f8a591e240e77be0,61036d05ada89aa3a7128e62,2021-07-29_23h09.12.527,Simcolourproject_2stim_asymm_v5,2020.2.10,MacIntel,60,61025ae37ef11b136ea224fe,,,,,,,,,4020,19.68359375,90.33203125,1,0,0,response1disk,,7,-7.12109375,11.5625,1,0,0,rectangle,-7.12109375,11.5625,1,0,0,-7.12109375,11.5625,1,0,0,0,18,18,76,1,,,,,,,,
,,,,,,,,,,,,,FF,,,,,,,,0.6167,,,,,,,,,,,,,,,,,,,,,,610174a8f8a591e240e77be0,61036d05ada89aa3a7128e62,2021-07-29_23h09.12.527,Simcolourproject_2stim_asymm_v5,2020.2.10,MacIntel,60,61025ae37ef11b136ea224fe,,,,,,,,,492,-49.56640625,33.0546875,1,0,0,response7disk,,1,6.22265625,4.24609375,1,0,0,rectangle,6.22265625,4.24609375,1,0,0,6.22265625,4.24609375,1,0,0,0,19,19,146,1,,,,,,,,
,,,,,,,,,,,,,FF,,,,,,,,1.2158,,,,,,,,,,,,,,,,,,,,,,610174a8f8a591e240e77be0,61036d05ada89aa3a7128e62,2021-07-29_23h09.12.527,Simcolourproject_2stim_asymm_v5,2020.2.10,MacIntel,60,61025ae37ef11b136ea224fe,,,,,,,,,2369,-63.37109375,-97.18359375,1,0,0,response5disk,,3,-1.05859375,11.9453125,1,0,0,rectangle,-1.05859375,11.9453125,1,0,0,-1.05859375,11.9453125,1,0,0,0,20,20,23,1,,,,,,,,
,,,,,,,,,,,,,FF,,,,,,,,0.8177,,,,,,,,,,,,,,,,,,,,,,610174a8f8a591e240e77be0,61036d05ada89aa3a7128e62,2021-07-29_23h09.12.527,Simcolourproject_2stim_asymm_v5,2020.2.10,MacIntel,60,61025ae37ef11b136ea224fe,,,,,,,,,765,106.2421875,64.90625,1,0,0,response1disk,,6,-6.6953125,-17.015625,1,0,0,rectangle,-6.6953125,-17.015625,1,0,0,-6.6953125,-17.015625,1,0,0,0,21,21,88,1,,,,,,,,
,,,,,,,,,,,,,FF,,,,,,,,0.9667,,,,,,,,,,,,,,,,,,,,,,610174a8f8a591e240e77be0,61036d05ada89aa3a7128e62,2021-07-29_23h09.12.527,Simcolourproject_2stim_asymm_v5,2020.2.10,MacIntel,60,61025ae37ef11b136ea224fe,,,,,,,,,999,-59.78125,-72.6484375,1,0,0,response5disk,,3,-2.53515625,2.50390625,1,0,0,rectangle,-2.53515625,2.50390625,1,0,0,-2.53515625,2.50390625,1,0,0,0,22,22,132,1,,,,,,,,
,,,,,,,,,,,,,FF,,,,,,,,0.7499,,,,,,,,,,,,,,,,,,,,,,610174a8f8a591e240e77be0,61036d05ada89aa3a7128e62,2021-07-29_23h09.12.527,Simcolourproject_2stim_asymm_v5,2020.2.10,MacIntel,60,61025ae37ef11b136ea224fe,,,,,,,,,4254,-48.328125,-72.15625,1,0,0,response5disk,,3,16.08984375,-7.453125,1,0,0,rectangle,16.08984375,-7.453125,1,0,0,16.08984375,-7.453125,1,0,0,0,23,23,7,1,,,,,,,,
,,,,,,,,,,,,,FF,,,,,,,,2.0657,,,,,,,,,,,,,,,,,,,,,,610174a8f8a591e240e77be0,61036d05ada89aa3a7128e62,2021-07-29_23h09.12.527,Simcolourproject_2stim_asymm_v5,2020.2.10,MacIntel,60,61025ae37ef11b136ea224fe,,,,,,,,,3892,70.26953125,82.93359375,1,0,0,response1disk,,7,18.953125,14.84375,1,0,0,rectangle,18.953125,14.84375,1,0,0,18.953125,14.84375,1,0,0,0,24,24,131,1,,,,,,,,
,,,,,,,,,,,,,FF,,,,,,,,0.6159,,,,,,,,,,,,,,,,,,,,,,610174a8f8a591e240e77be0,61036d05ada89aa3a7128e62,2021-07-29_23h09.12.527,Simcolourproject_2stim_asymm_v5,2020.2.10,MacIntel,60,61025ae37ef11b136ea224fe,,,,,,,,,1790,77.7734375,62.76171875,1,0,0,response1disk,,6,4.1953125,4.2890625,1,0,0,rectangle,4.1953125,4.2890625,1,0,0,4.1953125,4.2890625,1,0,0,0,25,25,21,1,,,,,,,,
,,,,,,,,,,,,,FF,,,,,,,,0.8838,,,,,,,,,,,,,,,,,,,,,,610174a8f8a591e240e77be0,61036d05ada89aa3a7128e62,2021-07-29_23h09.12.527,Simcolourproject_2stim_asymm_v5,2020.2.10,MacIntel,60,61025ae37ef11b136ea224fe,,,,,,,,,3870,-53.8125,-108.3164063,1,0,0,response5disk,,3,16.078125,4.58203125,1,0,0,rectangle,16.078125,4.58203125,1,0,0,16.078125,4.58203125,1,0,0,0,26,26,119,1,,,,,,,,
,,,,,,,,,,,,,FF,,,,,,,,1.5002,,,,,,,,,,,,,,,,,,,,,,610174a8f8a591e240e77be0,61036d05ada89aa3a7128e62,2021-07-29_23h09.12.527,Simcolourproject_2stim_asymm_v5,2020.2.10,MacIntel,60,61025ae37ef11b136ea224fe,,,,,,,,,2453,23.7578125,-68.32421875,1,0,0,response3disk,,4,-3.44921875,-12.015625,1,0,0,rectangle,-3.44921875,-12.015625,1,0,0,-3.44921875,-12.015625,1,0,0,0,27,27,73,1,,,,,,,,
,,,,,,,,,,,,,FF,,,,,,,,0.816,,,,,,,,,,,,,,,,,,,,,,610174a8f8a591e240e77be0,61036d05ada89aa3a7128e62,2021-07-29_23h09.12.527,Simcolourproject_2stim_asymm_v5,2020.2.10,MacIntel,60,61025ae37ef11b136ea224fe,,,,,,,,,1709,77.984375,34.67578125,1,0,0,response1disk,,6,-2.6640625,10.41015625,1,0,0,rectangle,-2.6640625,10.41015625,1,0,0,-2.6640625,10.41015625,1,0,0,0,28,28,113,1,,,,,,,,
,,,,,,,,,,,,,FF,,,,,,,,0.6835,,,,,,,,,,,,,,,,,,,,,,610174a8f8a591e240e77be0,61036d05ada89aa3a7128e62,2021-07-29_23h09.12.527,Simcolourproject_2stim_asymm_v5,2020.2.10,MacIntel,60,61025ae37ef11b136ea224fe,,,,,,,,,3479,-48.78125,-86.2109375,1,0,0,response5disk,,3,8.87890625,3.32421875,1,0,0,rectangle,8.87890625,3.32421875,1,0,0,8.87890625,3.32421875,1,0,0,0,29,29,116,1,,,,,,,,
,,,,,,,,,,,,,FF,,,,,,,,1.2001,,,,,,,,,,,,,,,,,,,,,,610174a8f8a591e240e77be0,61036d05ada89aa3a7128e62,2021-07-29_23h09.12.527,Simcolourproject_2stim_asymm_v5,2020.2.10,MacIntel,60,61025ae37ef11b136ea224fe,,,,,,,,,1240,42.4921875,-108.1328125,1,0,0,response3disk,,4,1.84765625,-3.3359375,1,0,0,rectangle,1.84765625,-3.3359375,1,0,0,1.84765625,-3.3359375,1,0,0,0,30,30,49,1,,,,,,,,
,,,,,,,,,,,,,FF,,,,,,,,1.0829,,,,,,,,,,,,,,,,,,,,,,610174a8f8a591e240e77be0,61036d05ada89aa3a7128e62,2021-07-29_23h09.12.527,Simcolourproject_2stim_asymm_v5,2020.2.10,MacIntel,60,61025ae37ef11b136ea224fe,,,,,,,,,1272,107.4492188,44.60546875,1,0,0,response1disk,,6,15.7421875,7.87890625,1,0,0,rectangle,15.7421875,7.87890625,1,0,0,15.7421875,7.87890625,1,0,0,0,31,31,45,1,,,,,,,,
,,,,,,,,,,,,,FF,,,,,,,,0.7329,,,,,,,,,,,,,,,,,,,,,,610174a8f8a591e240e77be0,61036d05ada89aa3a7128e62,2021-07-29_23h09.12.527,Simcolourproject_2stim_asymm_v5,2020.2.10,MacIntel,60,61025ae37ef11b136ea224fe,,,,,,,,,2916,96.421875,34.0234375,1,0,0,response1disk,,6,8.87109375,7.25,1,0,0,rectangle,8.87109375,7.25,1,0,0,8.87109375,7.25,1,0,0,0,32,32,108,1,,,,,,,,
,,,,,,,,,,,,,FF,,,,,,,,0.5821,,,,,,,,,,,,,,,,,,,,,,610174a8f8a591e240e77be0,61036d05ada89aa3a7128e62,2021-07-29_23h09.12.527,Simcolourproject_2stim_asymm_v5,2020.2.10,MacIntel,60,61025ae37ef11b136ea224fe,,,,,,,,,842,107.1953125,53.86328125,1,0,0,response1disk,,6,-5.734375,12.70703125,1,0,0,rectangle,-5.734375,12.70703125,1,0,0,-5.734375,12.70703125,1,0,0,0,33,33,109,1,,,,,,,,
,,,,,,,,,,,,,FF,,,,,,,,0.6336,,,,,,,,,,,,,,,,,,,,,,610174a8f8a591e240e77be0,61036d05ada89aa3a7128e62,2021-07-29_23h09.12.527,Simcolourproject_2stim_asymm_v5,2020.2.10,MacIntel,60,61025ae37ef11b136ea224fe,,,,,,,,,2898,-45.94140625,-114.921875,1,0,0,response5disk,,3,-0.875,7.9921875,1,0,0,rectangle,-0.875,7.9921875,1,0,0,-0.875,7.9921875,1,0,0,0,34,34,37,1,,,,,,,,
,,,,,,,,,,,,,FF,,,,,,,,1.0004,,,,,,,,,,,,,,,,,,,,,,610174a8f8a591e240e77be0,61036d05ada89aa3a7128e62,2021-07-29_23h09.12.527,Simcolourproject_2stim_asymm_v5,2020.2.10,MacIntel,60,61025ae37ef11b136ea224fe,,,,,,,,,3468,-73.8515625,40.49609375,1,0,0,response7disk,,1,-22.3046875,17.1328125,1,0,0,rectangle,-22.3046875,17.1328125,1,0,0,-22.3046875,17.1328125,1,0,0,0,35,35,103,1,,,,,,,,
,,,,,,,,,,,,,FF,,,,,,,,0.6661,,,,,,,,,,,,,,,,,,,,,,610174a8f8a591e240e77be0,61036d05ada89aa3a7128e62,2021-07-29_23h09.12.527,Simcolourproject_2stim_asymm_v5,2020.2.10,MacIntel,60,61025ae37ef11b136ea224fe,,,,,,,,,318,84.16015625,30.19140625,1,0,0,response1disk,,6,0.6484375,1.55078125,1,0,0,rectangle,0.6484375,1.55078125,1,0,0,0.6484375,1.55078125,1,0,0,0,36,36,29,1,,,,,,,,
,,,,,,,,,,,,,FF,,,,,,,,0.6508,,,,,,,,,,,,,,,,,,,,,,610174a8f8a591e240e77be0,61036d05ada89aa3a7128e62,2021-07-29_23h09.12.527,Simcolourproject_2stim_asymm_v5,2020.2.10,MacIntel,60,61025ae37ef11b136ea224fe,,,,,,,,,2313,35.48046875,-75.83984375,1,0,0,response3disk,,4,8.14453125,-16.80078125,1,0,0,rectangle,8.14453125,-16.80078125,1,0,0,8.14453125,-16.80078125,1,0,0,0,37,37,148,1,,,,,,,,
,,,,,,,,,,,,,FF,,,,,,,,0.8501,,,,,,,,,,,,,,,,,,,,,,610174a8f8a591e240e77be0,61036d05ada89aa3a7128e62,2021-07-29_23h09.12.527,Simcolourproject_2stim_asymm_v5,2020.2.10,MacIntel,60,61025ae37ef11b136ea224fe,,,,,,,,,1933,82.890625,-24.90234375,1,0,0,response3disk,,5,26.484375,-9.265625,1,0,0,rectangle,26.484375,-9.265625,1,0,0,26.484375,-9.265625,1,0,0,0,38,38,64,1,,,,,,,,
,,,,,,,,,,,,,FF,,,,,,,,1.0332,,,,,,,,,,,,,,,,,,,,,,610174a8f8a591e240e77be0,61036d05ada89aa3a7128e62,2021-07-29_23h09.12.527,Simcolourproject_2stim_asymm_v5,2020.2.10,MacIntel,60,61025ae37ef11b136ea224fe,,,,,,,,,4230,88.51171875,42.296875,1,0,0,response1disk,,6,-13.1796875,9.54296875,1,0,0,rectangle,-13.1796875,9.54296875,1,0,0,-13.1796875,9.54296875,1,0,0,0,39,39,16,1,,,,,,,,
,,,,,,,,,,,,,FF,,,,,,,,2.7998,,,,,,,,,,,,,,,,,,,,,,610174a8f8a591e240e77be0,61036d05ada89aa3a7128e62,2021-07-29_23h09.12.527,Simcolourproject_2stim_asymm_v5,2020.2.10,MacIntel,60,61025ae37ef11b136ea224fe,,,,,,,,,525,-62.421875,46.765625,1,0,0,response7disk,,1,-7.03515625,-3.91015625,1,0,0,rectangle,-7.03515625,-3.91015625,1,0,0,-7.03515625,-3.91015625,1,0,0,0,40,40,32,1,,,,,,,,
,,,,,,,,,,,,,FF,,,,,,,,1.1829,,,,,,,,,,,,,,,,,,,,,,610174a8f8a591e240e77be0,61036d05ada89aa3a7128e62,2021-07-29_23h09.12.527,Simcolourproject_2stim_asymm_v5,2020.2.10,MacIntel,60,61025ae37ef11b136ea224fe,,,,,,,,,3369,34.125,-96.00390625,1,0,0,response3disk,,4,0.43359375,2.515625,1,0,0,rectangle,0.43359375,2.515625,1,0,0,0.43359375,2.515625,1,0,0,0,41,41,75,1,,,,,,,,
,,,,,,,,,,,,,FF,,,,,,,,0.7343,,,,,,,,,,,,,,,,,,,,,,610174a8f8a591e240e77be0,61036d05ada89aa3a7128e62,2021-07-29_23h09.12.527,Simcolourproject_2stim_asymm_v5,2020.2.10,MacIntel,60,61025ae37ef11b136ea224fe,,,,,,,,,3397,-58.23828125,-79.16015625,1,0,0,response5disk,,3,-6.66015625,-11.2890625,1,0,0,rectangle,-6.66015625,-11.2890625,1,0,0,-6.66015625,-11.2890625,1,0,0,0,42,42,107,1,,,,,,,,
,,,,,,,,,,,,,FF,,,,,,,,0.6657,,,,,,,,,,,,,,,,,,,,,,610174a8f8a591e240e77be0,61036d05ada89aa3a7128e62,2021-07-29_23h09.12.527,Simcolourproject_2stim_asymm_v5,2020.2.10,MacIntel,60,61025ae37ef11b136ea224fe,,,,,,,,,1629,63.2109375,-48.4609375,1,0,0,response3disk,,5,11.6875,-12.25,1,0,0,rectangle,11.6875,-12.25,1,0,0,11.6875,-12.25,1,0,0,0,43,43,53,1,,,,,,,,
,,,,,,,,,,,,,FF,,,,,,,,2.3171,,,,,,,,,,,,,,,,,,,,,,610174a8f8a591e240e77be0,61036d05ada89aa3a7128e62,2021-07-29_23h09.12.527,Simcolourproject_2stim_asymm_v5,2020.2.10,MacIntel,60,61025ae37ef11b136ea224fe,,,,,,,,,3534,-30.37109375,-113.4492188,1,0,0,response5disk,,3,-11.171875,-8.125,1,0,0,rectangle,-11.171875,-8.125,1,0,0,-11.171875,-8.125,1,0,0,0,44,44,81,1,,,,,,,,
,,,,,,,,,,,,,FF,,,,,,,,0.9361,,,,,,,,,,,,,,,,,,,,,,610174a8f8a591e240e77be0,61036d05ada89aa3a7128e62,2021-07-29_23h09.12.527,Simcolourproject_2stim_asymm_v5,2020.2.10,MacIntel,60,61025ae37ef11b136ea224fe,,,,,,,,,649,-44.43359375,-106.5976563,1,0,0,response5disk,,3,-18.07421875,-13.43359375,1,0,0,rectangle,-18.07421875,-13.43359375,1,0,0,-18.07421875,-13.43359375,1,0,0,0,45,45,112,1,,,,,,,,
,,,,,,,,,,,,,FF,,,,,,,,1.0156,,,,,,,,,,,,,,,,,,,,,,610174a8f8a591e240e77be0,61036d05ada89aa3a7128e62,2021-07-29_23h09.12.527,Simcolourproject_2stim_asymm_v5,2020.2.10,MacIntel,60,61025ae37ef11b136ea224fe,,,,,,,,,1269,-115.1679688,-38.5,1,0,0,response5disk,,2,-8.921875,-10.05859375,1,0,0,rectangle,-8.921875,-10.05859375,1,0,0,-8.921875,-10.05859375,1,0,0,0,46,46,50,1,,,,,,,,
,,,,,,,,,,,,,FF,,,,,,,,0.8661,,,,,,,,,,,,,,,,,,,,,,610174a8f8a591e240e77be0,61036d05ada89aa3a7128e62,2021-07-29_23h09.12.527,Simcolourproject_2stim_asymm_v5,2020.2.10,MacIntel,60,61025ae37ef11b136ea224fe,,,,,,,,,2628,115.328125,-51.1953125,1,0,0,response3disk,,5,8.81640625,3.99609375,1,0,0,rectangle,8.81640625,3.99609375,1,0,0,8.81640625,3.99609375,1,0,0,0,47,47,55,1,,,,,,,,
,,,,,,,,,,,,,FF,,,,,,,,1.2169,,,,,,,,,,,,,,,,,,,,,,610174a8f8a591e240e77be0,61036d05ada89aa3a7128e62,2021-07-29_23h09.12.527,Simcolourproject_2stim_asymm_v5,2020.2.10,MacIntel,60,61025ae37ef11b136ea224fe,,,,,,,,,1131,-39.59375,89.875,1,0,0,response7disk,,0,-10.10546875,6.73828125,1,0,0,rectangle,-10.10546875,6.73828125,1,0,0,-10.10546875,6.73828125,1,0,0,0,48,48,12,1,,,,,,,,
,,,,,,,,,,,,,FF,,,,,,,,1.2665,,,,,,,,,,,,,,,,,,,,,,610174a8f8a591e240e77be0,61036d05ada89aa3a7128e62,2021-07-29_23h09.12.527,Simcolourproject_2stim_asymm_v5,2020.2.10,MacIntel,60,61025ae37ef11b136ea224fe,,,,,,,,,2920,-87.70703125,-78.37109375,1,0,0,response5disk,,2,5.16015625,2.91015625,1,0,0,rectangle,5.16015625,2.91015625,1,0,0,5.16015625,2.91015625,1,0,0,0,49,49,9,1,,,,,,,,
,,,,,,,,,,,,,FF,,,,,,,,1.6497,,,,,,,,,,,,,,,,,,,,,,610174a8f8a591e240e77be0,61036d05ada89aa3a7128e62,2021-07-29_23h09.12.527,Simcolourproject_2stim_asymm_v5,2020.2.10,MacIntel,60,61025ae37ef11b136ea224fe,,,,,,,,,3618,83.921875,35.84375,1,0,0,response1disk,,6,13.35546875,-12.78125,1,0,0,rectangle,13.35546875,-12.78125,1,0,0,13.35546875,-12.78125,1,0,0,0,50,50,1,1,,,,,,,,
,,,,,,,,,,,,,FF,,,,,,,,0.5504,,,,,,,,,,,,,,,,,,,,,,610174a8f8a591e240e77be0,61036d05ada89aa3a7128e62,2021-07-29_23h09.12.527,Simcolourproject_2stim_asymm_v5,2020.2.10,MacIntel,60,61025ae37ef11b136ea224fe,,,,,,,,,2458,72.89453125,-57.29296875,1,0,0,response3disk,,5,12.2109375,-2.625,1,0,0,rectangle,12.2109375,-2.625,1,0,0,12.2109375,-2.625,1,0,0,0,51,51,97,1,,,,,,,,
,,,,,,,,,,,,,FF,,,,,,,,1.0834,,,,,,,,,,,,,,,,,,,,,,610174a8f8a591e240e77be0,61036d05ada89aa3a7128e62,2021-07-29_23h09.12.527,Simcolourproject_2stim_asymm_v5,2020.2.10,MacIntel,60,61025ae37ef11b136ea224fe,,,,,,,,,2715,45.046875,-91.29296875,1,0,0,response3disk,,4,30.82421875,-3.03515625,1,0,0,rectangle,30.82421875,-3.03515625,1,0,0,30.82421875,-3.03515625,1,0,0,0,52,52,145,1,,,,,,,,
,,,,,,,,,,,,,FF,,,,,,,,1.1662,,,,,,,,,,,,,,,,,,,,,,610174a8f8a591e240e77be0,61036d05ada89aa3a7128e62,2021-07-29_23h09.12.527,Simcolourproject_2stim_asymm_v5,2020.2.10,MacIntel,60,61025ae37ef11b136ea224fe,,,,,,,,,3515,-95.0625,39.3203125,1,0,0,response7disk,,1,-26.015625,-6.66015625,1,0,0,rectangle,-26.015625,-6.66015625,1,0,0,-26.015625,-6.66015625,1,0,0,0,53,53,28,1,,,,,,,,
,,,,,,,,,,,,,FF,,,,,,,,0.5994,,,,,,,,,,,,,,,,,,,,,,610174a8f8a591e240e77be0,61036d05ada89aa3a7128e62,2021-07-29_23h09.12.527,Simcolourproject_2stim_asymm_v5,2020.2.10,MacIntel,60,61025ae37ef11b136ea224fe,,,,,,,,,4038,90.32421875,40.01171875,1,0,0,response1disk,,6,0.765625,8.51953125,1,0,0,rectangle,0.765625,8.51953125,1,0,0,0.765625,8.51953125,1,0,0,0,54,54,129,1,,,,,,,,
,,,,,,,,,,,,,FF,,,,,,,,0.8011,,,,,,,,,,,,,,,,,,,,,,610174a8f8a591e240e77be0,61036d05ada89aa3a7128e62,2021-07-29_23h09.12.527,Simcolourproject_2stim_asymm_v5,2020.2.10,MacIntel,60,61025ae37ef11b136ea224fe,,,,,,,,,2932,-43.27734375,-98.328125,1,0,0,response5disk,,3,-7.828125,10.43359375,1,0,0,rectangle,-7.828125,10.43359375,1,0,0,-7.828125,10.43359375,1,0,0,0,55,55,99,1,,,,,,,,
,,,,,,,,,,,,,FF,,,,,,,,0.8536,,,,,,,,,,,,,,,,,,,,,,610174a8f8a591e240e77be0,61036d05ada89aa3a7128e62,2021-07-29_23h09.12.527,Simcolourproject_2stim_asymm_v5,2020.2.10,MacIntel,60,61025ae37ef11b136ea224fe,,,,,,,,,671,37.78125,84.375,1,0,0,response1disk,,7,-0.95703125,8.84765625,1,0,0,rectangle,-0.95703125,8.84765625,1,0,0,-0.95703125,8.84765625,1,0,0,0,56,56,118,1,,,,,,,,
,,,,,,,,,,,,,FF,,,,,,,,0.5327,,,,,,,,,,,,,,,,,,,,,,610174a8f8a591e240e77be0,61036d05ada89aa3a7128e62,2021-07-29_23h09.12.527,Simcolourproject_2stim_asymm_v5,2020.2.10,MacIntel,60,61025ae37ef11b136ea224fe,,,,,,,,,3314,51.05859375,91.81640625,1,0,0,response1disk,,7,-1.15234375,4.91796875,1,0,0,rectangle,-1.15234375,4.91796875,1,0,0,-1.15234375,4.91796875,1,0,0,0,57,57,124,1,,,,,,,,
,,,,,,,,,,,,,FF,,,,,,,,0.5172,,,,,,,,,,,,,,,,,,,,,,610174a8f8a591e240e77be0,61036d05ada89aa3a7128e62,2021-07-29_23h09.12.527,Simcolourproject_2stim_asymm_v5,2020.2.10,MacIntel,60,61025ae37ef11b136ea224fe,,,,,,,,,1707,56.30078125,112.0585938,1,0,0,response1disk,,7,30.5234375,-4.1171875,1,0,0,rectangle,30.5234375,-4.1171875,1,0,0,30.5234375,-4.1171875,1,0,0,0,58,58,46,1,,,,,,,,
,,,,,,,,,,,,,FF,,,,,,,,0.8672,,,,,,,,,,,,,,,,,,,,,,610174a8f8a591e240e77be0,61036d05ada89aa3a7128e62,2021-07-29_23h09.12.527,Simcolourproject_2stim_asymm_v5,2020.2.10,MacIntel,60,61025ae37ef11b136ea224fe,,,,,,,,,1623,-38.9921875,-74.1953125,1,0,0,response5disk,,3,-9.47265625,-5.1796875,1,0,0,rectangle,-9.47265625,-5.1796875,1,0,0,-9.47265625,-5.1796875,1,0,0,0,59,59,156,1,,,,,,,,
,,,,,,,,,,,,,FF,,,,,,,,0.8671,,,,,,,,,,,,,,,,,,,,,,610174a8f8a591e240e77be0,61036d05ada89aa3a7128e62,2021-07-29_23h09.12.527,Simcolourproject_2stim_asymm_v5,2020.2.10,MacIntel,60,61025ae37ef11b136ea224fe,,,,,,,,,1951,53.1171875,-111.9335938,1,0,0,response3disk,,4,11.53515625,2.71484375,1,0,0,rectangle,11.53515625,2.71484375,1,0,0,11.53515625,2.71484375,1,0,0,0,60,60,51,1,,,,,,,,
,,,,,,,,,,,,,FF,,,,,,,,1.6173,,,,,,,,,,,,,,,,,,,,,,610174a8f8a591e240e77be0,61036d05ada89aa3a7128e62,2021-07-29_23h09.12.527,Simcolourproject_2stim_asymm_v5,2020.2.10,MacIntel,60,61025ae37ef11b136ea224fe,,,,,,,,,998,-36.53515625,-99.19921875,1,0,0,response5disk,,3,-28.484375,-4.43359375,1,0,0,rectangle,27.109375,-79.57421875,1,0,0,-3.78515625,14.08984375,1,0,0,0,61,61,89,1,,response3disk_3,TRUE,4,4,"[170,262,144,247,157,279,98,97,16,187,296,259,94,111,294,247,62,144,195,143]",1.9335,rectangle
,,,,,,,,,,,,,FF,,,,,,,,0.9002,,,,,,,,,,,,,,,,,,,,,,610174a8f8a591e240e77be0,61036d05ada89aa3a7128e62,2021-07-29_23h09.12.527,Simcolourproject_2stim_asymm_v5,2020.2.10,MacIntel,60,61025ae37ef11b136ea224fe,,,,,,,,,1486,71.0546875,31.0859375,1,0,0,response1disk,,6,-8.875,14.6015625,1,0,0,rectangle,-8.875,14.6015625,1,0,0,-8.875,14.6015625,1,0,0,0,62,62,19,1,,,,,,,,
,,,,,,,,,,,,,FF,,,,,,,,0.8844,,,,,,,,,,,,,,,,,,,,,,610174a8f8a591e240e77be0,61036d05ada89aa3a7128e62,2021-07-29_23h09.12.527,Simcolourproject_2stim_asymm_v5,2020.2.10,MacIntel,60,61025ae37ef11b136ea224fe,,,,,,,,,570,73.99609375,-61.1953125,1,0,0,response3disk,,5,-2.77734375,8.921875,1,0,0,rectangle,-2.77734375,8.921875,1,0,0,-2.77734375,8.921875,1,0,0,0,63,63,158,1,,,,,,,,
,,,,,,,,,,,,,FF,,,,,,,,0.6484,,,,,,,,,,,,,,,,,,,,,,610174a8f8a591e240e77be0,61036d05ada89aa3a7128e62,2021-07-29_23h09.12.527,Simcolourproject_2stim_asymm_v5,2020.2.10,MacIntel,60,61025ae37ef11b136ea224fe,,,,,,,,,252,43.53515625,117.234375,1,0,0,response1disk,,7,-9.88671875,8.7265625,1,0,0,rectangle,-9.88671875,8.7265625,1,0,0,-9.88671875,8.7265625,1,0,0,0,64,64,92,1,,,,,,,,
,,,,,,,,,,,,,FF,,,,,,,,0.6329,,,,,,,,,,,,,,,,,,,,,,610174a8f8a591e240e77be0,61036d05ada89aa3a7128e62,2021-07-29_23h09.12.527,Simcolourproject_2stim_asymm_v5,2020.2.10,MacIntel,60,61025ae37ef11b136ea224fe,,,,,,,,,2922,36.5078125,87.05859375,1,0,0,response1disk,,7,7.37109375,-6.140625,1,0,0,rectangle,7.37109375,-6.140625,1,0,0,7.37109375,-6.140625,1,0,0,0,65,65,139,1,,,,,,,,
,,,,,,,,,,,,,FF,,,,,,,,1.8167,,,,,,,,,,,,,,,,,,,,,,610174a8f8a591e240e77be0,61036d05ada89aa3a7128e62,2021-07-29_23h09.12.527,Simcolourproject_2stim_asymm_v5,2020.2.10,MacIntel,60,61025ae37ef11b136ea224fe,,,,,,,,,2532,43.2265625,-85.51953125,1,0,0,response3disk,,4,23.46875,7.15234375,1,0,0,rectangle,23.46875,7.15234375,1,0,0,23.46875,7.15234375,1,0,0,0,66,66,151,1,,,,,,,,
,,,,,,,,,,,,,FF,,,,,,,,0.9996,,,,,,,,,,,,,,,,,,,,,,610174a8f8a591e240e77be0,61036d05ada89aa3a7128e62,2021-07-29_23h09.12.527,Simcolourproject_2stim_asymm_v5,2020.2.10,MacIntel,60,61025ae37ef11b136ea224fe,,,,,,,,,4099,44.83203125,-81.41796875,1,0,0,response3disk,,4,11.6875,-3.9609375,1,0,0,rectangle,11.6875,-3.9609375,1,0,0,11.6875,-3.9609375,1,0,0,0,67,67,69,1,,,,,,,,
,,,,,,,,,,,,,FF,,,,,,,,1.0003,,,,,,,,,,,,,,,,,,,,,,610174a8f8a591e240e77be0,61036d05ada89aa3a7128e62,2021-07-29_23h09.12.527,Simcolourproject_2stim_asymm_v5,2020.2.10,MacIntel,60,61025ae37ef11b136ea224fe,,,,,,,,,1488,20.34375,67.81640625,1,0,0,response1disk,,7,-13.41015625,2.80078125,1,0,0,rectangle,-13.41015625,2.80078125,1,0,0,-13.41015625,2.80078125,1,0,0,0,68,68,78,1,,,,,,,,
,,,,,,,,,,,,,FF,,,,,,,,0.8022,,,,,,,,,,,,,,,,,,,,,,610174a8f8a591e240e77be0,61036d05ada89aa3a7128e62,2021-07-29_23h09.12.527,Simcolourproject_2stim_asymm_v5,2020.2.10,MacIntel,60,61025ae37ef11b136ea224fe,,,,,,,,,837,83.2421875,33.2265625,1,0,0,response1disk,,6,15.53515625,0.50390625,1,0,0,rectangle,15.53515625,0.50390625,1,0,0,15.53515625,0.50390625,1,0,0,0,69,69,83,1,,,,,,,,
,,,,,,,,,,,,,FF,,,,,,,,0.8832,,,,,,,,,,,,,,,,,,,,,,610174a8f8a591e240e77be0,61036d05ada89aa3a7128e62,2021-07-29_23h09.12.527,Simcolourproject_2stim_asymm_v5,2020.2.10,MacIntel,60,61025ae37ef11b136ea224fe,,,,,,,,,3039,-48.4375,-95.58203125,1,0,0,response5disk,,3,-10.8984375,0.56640625,1,0,0,rectangle,-10.8984375,0.56640625,1,0,0,-10.8984375,0.56640625,1,0,0,0,70,70,6,1,,,,,,,,
,,,,,,,,,,,,,FF,,,,,,,,1.1172,,,,,,,,,,,,,,,,,,,,,,610174a8f8a591e240e77be0,61036d05ada89aa3a7128e62,2021-07-29_23h09.12.527,Simcolourproject_2stim_asymm_v5,2020.2.10,MacIntel,60,61025ae37ef11b136ea224fe,,,,,,,,,2227,-72.68359375,31.01953125,1,0,0,response7disk,,1,-6.69921875,1.5703125,1,0,0,rectangle,-6.69921875,1.5703125,1,0,0,-6.69921875,1.5703125,1,0,0,0,71,71,90,1,,,,,,,,
,,,,,,,,,,,,,FF,,,,,,,,0.5657,,,,,,,,,,,,,,,,,,,,,,610174a8f8a591e240e77be0,61036d05ada89aa3a7128e62,2021-07-29_23h09.12.527,Simcolourproject_2stim_asymm_v5,2020.2.10,MacIntel,60,61025ae37ef11b136ea224fe,,,,,,,,,1946,104.4570313,-50.1875,1,0,0,response3disk,,5,2.91796875,8.50390625,1,0,0,rectangle,2.91796875,8.50390625,1,0,0,2.91796875,8.50390625,1,0,0,0,72,72,56,1,,,,,,,,
,,,,,,,,,,,,,FF,,,,,,,,0.9009,,,,,,,,,,,,,,,,,,,,,,610174a8f8a591e240e77be0,61036d05ada89aa3a7128e62,2021-07-29_23h09.12.527,Simcolourproject_2stim_asymm_v5,2020.2.10,MacIntel,60,61025ae37ef11b136ea224fe,,,,,,,,,3845,-95.16015625,-30.8515625,1,0,0,response5disk,,2,-4.5078125,-1.109375,1,0,0,rectangle,-4.5078125,-1.109375,1,0,0,-4.5078125,-1.109375,1,0,0,0,73,73,136,1,,,,,,,,
,,,,,,,,,,,,,FF,,,,,,,,1.0824,,,,,,,,,,,,,,,,,,,,,,610174a8f8a591e240e77be0,61036d05ada89aa3a7128e62,2021-07-29_23h09.12.527,Simcolourproject_2stim_asymm_v5,2020.2.10,MacIntel,60,61025ae37ef11b136ea224fe,,,,,,,,,349,-52.12890625,95.4921875,1,0,0,response7disk,,0,-12.75,1.7421875,1,0,0,rectangle,-12.75,1.7421875,1,0,0,-12.75,1.7421875,1,0,0,0,74,74,115,1,,,,,,,,
,,,,,,,,,,,,,FF,,,,,,,,0.8836,,,,,,,,,,,,,,,,,,,,,,610174a8f8a591e240e77be0,61036d05ada89aa3a7128e62,2021-07-29_23h09.12.527,Simcolourproject_2stim_asymm_v5,2020.2.10,MacIntel,60,61025ae37ef11b136ea224fe,,,,,,,,,2002,57.125,53.84765625,1,0,0,response1disk,,6,6.9453125,16.48828125,1,0,0,rectangle,6.9453125,16.48828125,1,0,0,6.9453125,16.48828125,1,0,0,0,75,75,4,1,,,,,,,,
,,,,,,,,,,,,,FF,,,,,,,,0.7838,,,,,,,,,,,,,,,,,,,,,,610174a8f8a591e240e77be0,61036d05ada89aa3a7128e62,2021-07-29_23h09.12.527,Simcolourproject_2stim_asymm_v5,2020.2.10,MacIntel,60,61025ae37ef11b136ea224fe,,,,,,,,,3153,-28.06640625,105.15625,1,0,0,response7disk,,0,-0.33203125,-3.06640625,1,0,0,rectangle,-0.33203125,-3.06640625,1,0,0,-0.33203125,-3.06640625,1,0,0,0,76,76,91,1,,,,,,,,
,,,,,,,,,,,,,FF,,,,,,,,0.6168,,,,,,,,,,,,,,,,,,,,,,610174a8f8a591e240e77be0,61036d05ada89aa3a7128e62,2021-07-29_23h09.12.527,Simcolourproject_2stim_asymm_v5,2020.2.10,MacIntel,60,61025ae37ef11b136ea224fe,,,,,,,,,136,78.57421875,-116.5351563,1,0,0,response3disk,,4,12.93359375,-12.4296875,1,0,0,rectangle,12.93359375,-12.4296875,1,0,0,12.93359375,-12.4296875,1,0,0,0,77,77,34,1,,,,,,,,
,,,,,,,,,,,,,FF,,,,,,,,0.8005,,,,,,,,,,,,,,,,,,,,,,610174a8f8a591e240e77be0,61036d05ada89aa3a7128e62,2021-07-29_23h09.12.527,Simcolourproject_2stim_asymm_v5,2020.2.10,MacIntel,60,61025ae37ef11b136ea224fe,,,,,,,,,1261,93.5,52.953125,1,0,0,response1disk,,6,12.171875,3.1015625,1,0,0,rectangle,12.171875,3.1015625,1,0,0,12.171875,3.1015625,1,0,0,0,78,78,27,1,,,,,,,,
,,,,,,,,,,,,,FF,,,,,,,,0.6502,,,,,,,,,,,,,,,,,,,,,,610174a8f8a591e240e77be0,61036d05ada89aa3a7128e62,2021-07-29_23h09.12.527,Simcolourproject_2stim_asymm_v5,2020.2.10,MacIntel,60,61025ae37ef11b136ea224fe,,,,,,,,,3702,29.9609375,52.9921875,1,0,0,response1disk,,7,4.15625,-15.32421875,1,0,0,rectangle,4.15625,-15.32421875,1,0,0,4.15625,-15.32421875,1,0,0,0,79,79,61,1,,,,,,,,
,,,,,,,,,,,,,FF,,,,,,,,0.8002,,,,,,,,,,,,,,,,,,,,,,610174a8f8a591e240e77be0,61036d05ada89aa3a7128e62,2021-07-29_23h09.12.527,Simcolourproject_2stim_asymm_v5,2020.2.10,MacIntel,60,61025ae37ef11b136ea224fe,,,,,,,,,3901,-71.953125,-46.28125,1,0,0,response5disk,,2,-22.19921875,-6.0546875,1,0,0,rectangle,-22.19921875,-6.0546875,1,0,0,-22.19921875,-6.0546875,1,0,0,0,80,80,152,1,,,,,,,,
,,,,,,,,,,,,,FF,,,,,,,,1.1661,,,,,,,,,,,,,,,,,,,,,,610174a8f8a591e240e77be0,61036d05ada89aa3a7128e62,2021-07-29_23h09.12.527,Simcolourproject_2stim_asymm_v5,2020.2.10,MacIntel,60,61025ae37ef11b136ea224fe,,,,,,,,,1041,-74.45703125,-36.65625,1,0,0,response5disk,,2,9.5546875,-6.72265625,1,0,0,rectangle,9.5546875,-6.72265625,1,0,0,9.5546875,-6.72265625,1,0,0,0,81,81,84,1,,,,,,,,
,,,,,,,,,,,,,FF,,,,,,,,0.8654,,,,,,,,,,,,,,,,,,,,,,610174a8f8a591e240e77be0,61036d05ada89aa3a7128e62,2021-07-29_23h09.12.527,Simcolourproject_2stim_asymm_v5,2020.2.10,MacIntel,60,61025ae37ef11b136ea224fe,,,,,,,,,3432,-41.87890625,62.55859375,1,0,0,response7disk,,0,-5.44921875,10.25390625,1,0,0,rectangle,-5.44921875,10.25390625,1,0,0,-5.44921875,10.25390625,1,0,0,0,82,82,74,1,,,,,,,,
,,,,,,,,,,,,,FF,,,,,,,,1.6999,,,,,,,,,,,,,,,,,,,,,,610174a8f8a591e240e77be0,61036d05ada89aa3a7128e62,2021-07-29_23h09.12.527,Simcolourproject_2stim_asymm_v5,2020.2.10,MacIntel,60,61025ae37ef11b136ea224fe,,,,,,,,,11,-74.7890625,-47.8046875,1,0,0,response5disk,,2,-5.58203125,5.3671875,1,0,0,rectangle,-5.58203125,5.3671875,1,0,0,-5.58203125,5.3671875,1,0,0,0,83,83,121,1,,,,,,,,
,,,,,,,,,,,,,FF,,,,,,,,0.6998,,,,,,,,,,,,,,,,,,,,,,610174a8f8a591e240e77be0,61036d05ada89aa3a7128e62,2021-07-29_23h09.12.527,Simcolourproject_2stim_asymm_v5,2020.2.10,MacIntel,60,61025ae37ef11b136ea224fe,,,,,,,,,861,63.50390625,108.1796875,1,0,0,response1disk,,7,1.03515625,-5.67578125,1,0,0,rectangle,1.03515625,-5.67578125,1,0,0,1.03515625,-5.67578125,1,0,0,0,84,84,128,1,,,,,,,,
,,,,,,,,,,,,,FF,,,,,,,,0.5492,,,,,,,,,,,,,,,,,,,,,,610174a8f8a591e240e77be0,61036d05ada89aa3a7128e62,2021-07-29_23h09.12.527,Simcolourproject_2stim_asymm_v5,2020.2.10,MacIntel,60,61025ae37ef11b136ea224fe,,,,,,,,,2124,25.76171875,69.08984375,1,0,0,response1disk,,7,-9.69921875,1.4140625,1,0,0,rectangle,-9.69921875,1.4140625,1,0,0,-9.69921875,1.4140625,1,0,0,0,85,85,70,1,,,,,,,,
,,,,,,,,,,,,,FF,,,,,,,,0.9329,,,,,,,,,,,,,,,,,,,,,,610174a8f8a591e240e77be0,61036d05ada89aa3a7128e62,2021-07-29_23h09.12.527,Simcolourproject_2stim_asymm_v5,2020.2.10,MacIntel,60,61025ae37ef11b136ea224fe,,,,,,,,,1543,-89.67578125,74.59765625,1,0,0,response7disk,,1,-9.1796875,11.03515625,1,0,0,rectangle,-9.1796875,11.03515625,1,0,0,-9.1796875,11.03515625,1,0,0,0,86,86,95,1,,,,,,,,
,,,,,,,,,,,,,FF,,,,,,,,0.8168,,,,,,,,,,,,,,,,,,,,,,610174a8f8a591e240e77be0,61036d05ada89aa3a7128e62,2021-07-29_23h09.12.527,Simcolourproject_2stim_asymm_v5,2020.2.10,MacIntel,60,61025ae37ef11b136ea224fe,,,,,,,,,3886,48.453125,95.3359375,1,0,0,response1disk,,7,20.44921875,13.6484375,1,0,0,rectangle,20.44921875,13.6484375,1,0,0,20.44921875,13.6484375,1,0,0,0,87,87,94,1,,,,,,,,
,,,,,,,,,,,,,FF,,,,,,,,0.6334,,,,,,,,,,,,,,,,,,,,,,610174a8f8a591e240e77be0,61036d05ada89aa3a7128e62,2021-07-29_23h09.12.527,Simcolourproject_2stim_asymm_v5,2020.2.10,MacIntel,60,61025ae37ef11b136ea224fe,,,,,,,,,3168,90.79296875,45.03515625,1,0,0,response1disk,,6,18.3203125,6.98828125,1,0,0,rectangle,18.3203125,6.98828125,1,0,0,18.3203125,6.98828125,1,0,0,0,88,88,102,1,,,,,,,,
,,,,,,,,,,,,,FF,,,,,,,,0.834,,,,,,,,,,,,,,,,,,,,,,610174a8f8a591e240e77be0,61036d05ada89aa3a7128e62,2021-07-29_23h09.12.527,Simcolourproject_2stim_asymm_v5,2020.2.10,MacIntel,60,61025ae37ef11b136ea224fe,,,,,,,,,1838,-66.3203125,-84.17578125,1,0,0,response5disk,,3,7.1171875,-4.1171875,1,0,0,rectangle,7.1171875,-4.1171875,1,0,0,7.1171875,-4.1171875,1,0,0,0,89,89,130,1,,,,,,,,
,,,,,,,,,,,,,FF,,,,,,,,0.8463,,,,,,,,,,,,,,,,,,,,,,610174a8f8a591e240e77be0,61036d05ada89aa3a7128e62,2021-07-29_23h09.12.527,Simcolourproject_2stim_asymm_v5,2020.2.10,MacIntel,60,61025ae37ef11b136ea224fe,,,,,,,,,905,-87.234375,-27.23046875,1,0,0,response5disk,,2,-16.9609375,9.62890625,1,0,0,rectangle,-16.9609375,9.62890625,1,0,0,-16.9609375,9.62890625,1,0,0,0,90,90,35,1,,,,,,,,
,,,,,,,,,,,,,FF,,,,,,,,0.6355,,,,,,,,,,,,,,,,,,,,,,610174a8f8a591e240e77be0,61036d05ada89aa3a7128e62,2021-07-29_23h09.12.527,Simcolourproject_2stim_asymm_v5,2020.2.10,MacIntel,60,61025ae37ef11b136ea224fe,,,,,,,,,3165,57.73046875,38.171875,1,0,0,response1disk,,6,-4.87890625,2.453125,1,0,0,rectangle,-4.87890625,2.453125,1,0,0,-4.87890625,2.453125,1,0,0,0,91,91,67,1,,,,,,,,
,,,,,,,,,,,,,FF,,,,,,,,0.7161,,,,,,,,,,,,,,,,,,,,,,610174a8f8a591e240e77be0,61036d05ada89aa3a7128e62,2021-07-29_23h09.12.527,Simcolourproject_2stim_asymm_v5,2020.2.10,MacIntel,60,61025ae37ef11b136ea224fe,,,,,,,,,417,81.4765625,-51.140625,1,0,0,response3disk,,5,9.6171875,-6.828125,1,0,0,rectangle,9.6171875,-6.828125,1,0,0,9.6171875,-6.828125,1,0,0,0,92,92,15,1,,,,,,,,
,,,,,,,,,,,,,FF,,,,,,,,0.9685,,,,,,,,,,,,,,,,,,,,,,610174a8f8a591e240e77be0,61036d05ada89aa3a7128e62,2021-07-29_23h09.12.527,Simcolourproject_2stim_asymm_v5,2020.2.10,MacIntel,60,61025ae37ef11b136ea224fe,,,,,,,,,3043,91.6015625,26.5859375,1,0,0,response1disk,,6,7.27734375,-9.8984375,1,0,0,rectangle,-39.20703125,82.78125,1,0,0,-3.21484375,-6,1,0,0,0,93,93,52,1,,response7disk_3,TRUE,0,0,"[170,262,144,247,157,279,98,97,16,187,296,259,94,111,294,247,62,144,195,143]",1.4826,rectangle
,,,,,,,,,,,,,FF,,,,,,,,0.6676,,,,,,,,,,,,,,,,,,,,,,610174a8f8a591e240e77be0,61036d05ada89aa3a7128e62,2021-07-29_23h09.12.527,Simcolourproject_2stim_asymm_v5,2020.2.10,MacIntel,60,61025ae37ef11b136ea224fe,,,,,,,,,2786,-59.15625,-44.2734375,1,0,0,response5disk,,2,-8.0390625,-5.65234375,1,0,0,rectangle,-8.0390625,-5.65234375,1,0,0,-8.0390625,-5.65234375,1,0,0,0,94,94,140,1,,,,,,,,
,,,,,,,,,,,,,FF,,,,,,,,0.884,,,,,,,,,,,,,,,,,,,,,,610174a8f8a591e240e77be0,61036d05ada89aa3a7128e62,2021-07-29_23h09.12.527,Simcolourproject_2stim_asymm_v5,2020.2.10,MacIntel,60,61025ae37ef11b136ea224fe,,,,,,,,,3504,-91.19921875,19.859375,1,0,0,response7disk,,1,-25.99609375,-4.91796875,1,0,0,rectangle,-25.99609375,-4.91796875,1,0,0,-25.99609375,-4.91796875,1,0,0,0,95,95,154,1,,,,,,,,
,,,,,,,,,,,,,FF,,,,,,,,0.566,,,,,,,,,,,,,,,,,,,,,,610174a8f8a591e240e77be0,61036d05ada89aa3a7128e62,2021-07-29_23h09.12.527,Simcolourproject_2stim_asymm_v5,2020.2.10,MacIntel,60,61025ae37ef11b136ea224fe,,,,,,,,,1180,40.6640625,-84.36328125,1,0,0,response3disk,,4,10.96875,-4.1953125,1,0,0,rectangle,-39.71484375,-91.4296875,1,0,0,-8.83203125,9.3984375,1,0,0,0,96,96,147,1,,response5disk_3,TRUE,3,3,"[170,262,144,247,157,279,98,97,16,187,296,259,94,111,294,247,62,144,195,143]",1.9503,rectangle
,,,,,,,,,,,,,FF,,,,,,,,0.9832,,,,,,,,,,,,,,,,,,,,,,610174a8f8a591e240e77be0,61036d05ada89aa3a7128e62,2021-07-29_23h09.12.527,Simcolourproject_2stim_asymm_v5,2020.2.10,MacIntel,60,61025ae37ef11b136ea224fe,,,,,,,,,608,39.6484375,-91.890625,1,0,0,response3disk,,4,-0.34765625,-14.1015625,1,0,0,rectangle,-34.96484375,58.671875,1,0,0,-13.078125,-5.61328125,1,0,0,0,97,97,142,1,,response7disk_3,TRUE,0,0,"[170,262,144,247,157,279,98,97,16,187,296,259,94,111,294,247,62,144,195,143]",1.3007,rectangle
,,,,,,,,,,,,,FF,,,,,,,,1.1159,,,,,,,,,,,,,,,,,,,,,,610174a8f8a591e240e77be0,61036d05ada89aa3a7128e62,2021-07-29_23h09.12.527,Simcolourproject_2stim_asymm_v5,2020.2.10,MacIntel,60,61025ae37ef11b136ea224fe,,,,,,,,,3021,-37.73828125,-62.21875,1,0,0,response5disk,,3,-7.890625,-2.29296875,1,0,0,rectangle,-7.890625,-2.29296875,1,0,0,-7.890625,-2.29296875,1,0,0,0,98,98,25,1,,,,,,,,
,,,,,,,,,,,,,FF,,,,,,,,0.8327,,,,,,,,,,,,,,,,,,,,,,610174a8f8a591e240e77be0,61036d05ada89aa3a7128e62,2021-07-29_23h09.12.527,Simcolourproject_2stim_asymm_v5,2020.2.10,MacIntel,60,61025ae37ef11b136ea224fe,,,,,,,,,485,87.921875,-40.5703125,1,0,0,response3disk,,5,6.55859375,2.7890625,1,0,0,rectangle,6.55859375,2.7890625,1,0,0,6.55859375,2.7890625,1,0,0,0,99,99,123,1,,,,,,,,
,,,,,,,,,,,,,FF,,,,,,,,1.1336,,,,,,,,,,,,,,,,,,,,,,610174a8f8a591e240e77be0,61036d05ada89aa3a7128e62,2021-07-29_23h09.12.527,Simcolourproject_2stim_asymm_v5,2020.2.10,MacIntel,60,61025ae37ef11b136ea224fe,,,,,,,,,3524,-33.34375,-91.2109375,1,0,0,response5disk,,3,-23.484375,-1.92578125,1,0,0,rectangle,-23.484375,-1.92578125,1,0,0,-23.484375,-1.92578125,1,0,0,0,100,100,62,1,,,,,,,,
,,,,,,,,,,,,,FF,,,,,,,,1.0507,,,,,,,,,,,,,,,,,,,,,,610174a8f8a591e240e77be0,61036d05ada89aa3a7128e62,2021-07-29_23h09.12.527,Simcolourproject_2stim_asymm_v5,2020.2.10,MacIntel,60,61025ae37ef11b136ea224fe,,,,,,,,,3792,83.296875,47.21875,1,0,0,response1disk,,6,19.25,5.265625,1,0,0,rectangle,19.25,5.265625,1,0,0,19.25,5.265625,1,0,0,0,101,101,104,1,,,,,,,,
,,,,,,,,,,,,,FF,,,,,,,,0.8831,,,,,,,,,,,,,,,,,,,,,,610174a8f8a591e240e77be0,61036d05ada89aa3a7128e62,2021-07-29_23h09.12.527,Simcolourproject_2stim_asymm_v5,2020.2.10,MacIntel,60,61025ae37ef11b136ea224fe,,,,,,,,,3000,-76.50390625,90.85546875,1,0,0,response7disk,,0,0.75,-6.171875,1,0,0,rectangle,0.75,-6.171875,1,0,0,0.75,-6.171875,1,0,0,0,102,102,141,1,,,,,,,,
,,,,,,,,,,,,,FF,,,,,,,,0.933,,,,,,,,,,,,,,,,,,,,,,610174a8f8a591e240e77be0,61036d05ada89aa3a7128e62,2021-07-29_23h09.12.527,Simcolourproject_2stim_asymm_v5,2020.2.10,MacIntel,60,61025ae37ef11b136ea224fe,,,,,,,,,4105,-51.9296875,-56.421875,1,0,0,response5disk,,3,-18.78125,11.671875,1,0,0,rectangle,-18.78125,11.671875,1,0,0,-18.78125,11.671875,1,0,0,0,103,103,59,1,,,,,,,,
,,,,,,,,,,,,,FF,,,,,,,,0.9172,,,,,,,,,,,,,,,,,,,,,,610174a8f8a591e240e77be0,61036d05ada89aa3a7128e62,2021-07-29_23h09.12.527,Simcolourproject_2stim_asymm_v5,2020.2.10,MacIntel,60,61025ae37ef11b136ea224fe,,,,,,,,,4,-80.84765625,-40.8984375,1,0,0,response5disk,,2,-1.16796875,-12.91015625,1,0,0,rectangle,-1.16796875,-12.91015625,1,0,0,-1.16796875,-12.91015625,1,0,0,0,104,104,44,1,,,,,,,,
,,,,,,,,,,,,,FF,,,,,,,,1.2175,,,,,,,,,,,,,,,,,,,,,,610174a8f8a591e240e77be0,61036d05ada89aa3a7128e62,2021-07-29_23h09.12.527,Simcolourproject_2stim_asymm_v5,2020.2.10,MacIntel,60,61025ae37ef11b136ea224fe,,,,,,,,,633,-96.04296875,-47.171875,1,0,0,response5disk,,2,-10.04296875,4.19140625,1,0,0,rectangle,-10.04296875,4.19140625,1,0,0,-10.04296875,4.19140625,1,0,0,0,105,105,30,1,,,,,,,,
,,,,,,,,,,,,,FF,,,,,,,,0.8833,,,,,,,,,,,,,,,,,,,,,,610174a8f8a591e240e77be0,61036d05ada89aa3a7128e62,2021-07-29_23h09.12.527,Simcolourproject_2stim_asymm_v5,2020.2.10,MacIntel,60,61025ae37ef11b136ea224fe,,,,,,,,,1588,-89.7890625,-43.6484375,1,0,0,response5disk,,2,-14.3046875,3.1953125,1,0,0,rectangle,-14.3046875,3.1953125,1,0,0,-14.3046875,3.1953125,1,0,0,0,106,106,48,1,,,,,,,,
,,,,,,,,,,,,,FF,,,,,,,,0.7326,,,,,,,,,,,,,,,,,,,,,,610174a8f8a591e240e77be0,61036d05ada89aa3a7128e62,2021-07-29_23h09.12.527,Simcolourproject_2stim_asymm_v5,2020.2.10,MacIntel,60,61025ae37ef11b136ea224fe,,,,,,,,,106,-43.453125,-75.97265625,1,0,0,response5disk,,3,-22.10546875,-16.6796875,1,0,0,rectangle,-22.10546875,-16.6796875,1,0,0,-22.10546875,-16.6796875,1,0,0,0,107,107,17,1,,,,,,,,
,,,,,,,,,,,,,FF,,,,,,,,0.7506,,,,,,,,,,,,,,,,,,,,,,610174a8f8a591e240e77be0,61036d05ada89aa3a7128e62,2021-07-29_23h09.12.527,Simcolourproject_2stim_asymm_v5,2020.2.10,MacIntel,60,61025ae37ef11b136ea224fe,,,,,,,,,1424,56.140625,-66.80859375,1,0,0,response3disk,,4,16.9609375,-6.484375,1,0,0,rectangle,16.9609375,-6.484375,1,0,0,16.9609375,-6.484375,1,0,0,0,108,108,135,1,,,,,,,,
,,,,,,,,,,,,,FF,,,,,,,,0.5667,,,,,,,,,,,,,,,,,,,,,,610174a8f8a591e240e77be0,61036d05ada89aa3a7128e62,2021-07-29_23h09.12.527,Simcolourproject_2stim_asymm_v5,2020.2.10,MacIntel,60,61025ae37ef11b136ea224fe,,,,,,,,,45,73.703125,38.40234375,1,0,0,response1disk,,6,12.7109375,6.48046875,1,0,0,rectangle,12.7109375,6.48046875,1,0,0,12.7109375,6.48046875,1,0,0,0,109,109,71,1,,,,,,,,
,,,,,,,,,,,,,FF,,,,,,,,0.7337,,,,,,,,,,,,,,,,,,,,,,610174a8f8a591e240e77be0,61036d05ada89aa3a7128e62,2021-07-29_23h09.12.527,Simcolourproject_2stim_asymm_v5,2020.2.10,MacIntel,60,61025ae37ef11b136ea224fe,,,,,,,,,3056,-57.1171875,32.53125,1,0,0,response7disk,,1,-6.41015625,9.93359375,1,0,0,rectangle,-88.4453125,45.78125,1,0,0,-2.9765625,-7.45703125,1,0,0,0,110,110,126,1,,response7disk_3,TRUE,1,1,"[170,262,144,247,157,279,98,97,16,187,296,259,94,111,294,247,62,144,195,143]",1.2674,rectangle
,,,,,,,,,,,,,FF,,,,,,,,0.783,,,,,,,,,,,,,,,,,,,,,,610174a8f8a591e240e77be0,61036d05ada89aa3a7128e62,2021-07-29_23h09.12.527,Simcolourproject_2stim_asymm_v5,2020.2.10,MacIntel,60,61025ae37ef11b136ea224fe,,,,,,,,,2675,-61.02734375,-36.10546875,1,0,0,response5disk,,2,-14.3671875,-0.97265625,1,0,0,rectangle,-14.3671875,-0.97265625,1,0,0,-14.3671875,-0.97265625,1,0,0,0,111,111,41,1,,,,,,,,
,,,,,,,,,,,,,FF,,,,,,,,0.9178,,,,,,,,,,,,,,,,,,,,,,610174a8f8a591e240e77be0,61036d05ada89aa3a7128e62,2021-07-29_23h09.12.527,Simcolourproject_2stim_asymm_v5,2020.2.10,MacIntel,60,61025ae37ef11b136ea224fe,,,,,,,,,56,38.30078125,-97.31640625,1,0,0,response3disk,,4,0.484375,11.5703125,1,0,0,rectangle,0.484375,11.5703125,1,0,0,0.484375,11.5703125,1,0,0,0,112,112,5,1,,,,,,,,
,,,,,,,,,,,,,FF,,,,,,,,0.7512,,,,,,,,,,,,,,,,,,,,,,610174a8f8a591e240e77be0,61036d05ada89aa3a7128e62,2021-07-29_23h09.12.527,Simcolourproject_2stim_asymm_v5,2020.2.10,MacIntel,60,61025ae37ef11b136ea224fe,,,,,,,,,3743,-103.3984375,-19.2734375,1,0,0,response5disk,,2,-33.78125,8.17578125,1,0,0,rectangle,-33.78125,8.17578125,1,0,0,-33.78125,8.17578125,1,0,0,0,113,113,153,1,,,,,,,,
,,,,,,,,,,,,,FF,,,,,,,,1.1008,,,,,,,,,,,,,,,,,,,,,,610174a8f8a591e240e77be0,61036d05ada89aa3a7128e62,2021-07-29_23h09.12.527,Simcolourproject_2stim_asymm_v5,2020.2.10,MacIntel,60,61025ae37ef11b136ea224fe,,,,,,,,,1385,-84.34765625,-37.76171875,1,0,0,response5disk,,2,-8.1328125,-11.86328125,1,0,0,rectangle,-8.1328125,-11.86328125,1,0,0,-8.1328125,-11.86328125,1,0,0,0,114,114,93,1,,,,,,,,
,,,,,,,,,,,,,FF,,,,,,,,0.567,,,,,,,,,,,,,,,,,,,,,,610174a8f8a591e240e77be0,61036d05ada89aa3a7128e62,2021-07-29_23h09.12.527,Simcolourproject_2stim_asymm_v5,2020.2.10,MacIntel,60,61025ae37ef11b136ea224fe,,,,,,,,,3814,-39.5859375,-77.7734375,1,0,0,response5disk,,3,10.8671875,-0.67578125,1,0,0,rectangle,10.8671875,-0.67578125,1,0,0,10.8671875,-0.67578125,1,0,0,0,115,115,24,1,,,,,,,,
,,,,,,,,,,,,,FF,,,,,,,,0.8184,,,,,,,,,,,,,,,,,,,,,,610174a8f8a591e240e77be0,61036d05ada89aa3a7128e62,2021-07-29_23h09.12.527,Simcolourproject_2stim_asymm_v5,2020.2.10,MacIntel,60,61025ae37ef11b136ea224fe,,,,,,,,,2997,-33.49609375,-84.79296875,1,0,0,response5disk,,3,4.58203125,6.38671875,1,0,0,rectangle,4.58203125,6.38671875,1,0,0,4.58203125,6.38671875,1,0,0,0,116,116,31,1,,,,,,,,
,,,,,,,,,,,,,FF,,,,,,,,0.7176,,,,,,,,,,,,,,,,,,,,,,610174a8f8a591e240e77be0,61036d05ada89aa3a7128e62,2021-07-29_23h09.12.527,Simcolourproject_2stim_asymm_v5,2020.2.10,MacIntel,60,61025ae37ef11b136ea224fe,,,,,,,,,2267,42.07421875,69.109375,1,0,0,response1disk,,7,1.09765625,-2.8984375,1,0,0,rectangle,1.09765625,-2.8984375,1,0,0,1.09765625,-2.8984375,1,0,0,0,117,117,22,1,,,,,,,,
,,,,,,,,,,,,,FF,,,,,,,,0.6987,,,,,,,,,,,,,,,,,,,,,,610174a8f8a591e240e77be0,61036d05ada89aa3a7128e62,2021-07-29_23h09.12.527,Simcolourproject_2stim_asymm_v5,2020.2.10,MacIntel,60,61025ae37ef11b136ea224fe,,,,,,,,,859,54.6015625,95.12109375,1,0,0,response1disk,,7,5.81640625,15.16796875,1,0,0,rectangle,5.81640625,15.16796875,1,0,0,5.81640625,15.16796875,1,0,0,0,118,118,33,1,,,,,,,,
,,,,,,,,,,,,,FF,,,,,,,,0.6497,,,,,,,,,,,,,,,,,,,,,,610174a8f8a591e240e77be0,61036d05ada89aa3a7128e62,2021-07-29_23h09.12.527,Simcolourproject_2stim_asymm_v5,2020.2.10,MacIntel,60,61025ae37ef11b136ea224fe,,,,,,,,,2361,-65.90234375,43.4765625,1,0,0,response7disk,,1,16.078125,16.96484375,1,0,0,rectangle,16.078125,16.96484375,1,0,0,16.078125,16.96484375,1,0,0,0,119,119,54,1,,,,,,,,
,,,,,,,,,,,,,FF,,,,,,,,0.5829,,,,,,,,,,,,,,,,,,,,,,610174a8f8a591e240e77be0,61036d05ada89aa3a7128e62,2021-07-29_23h09.12.527,Simcolourproject_2stim_asymm_v5,2020.2.10,MacIntel,60,61025ae37ef11b136ea224fe,,,,,,,,,4313,68.16015625,71.76953125,1,0,0,response1disk,,7,1.53515625,12.68359375,1,0,0,rectangle,1.53515625,12.68359375,1,0,0,1.53515625,12.68359375,1,0,0,0,120,120,42,1,,,,,,,,
,,,,,,,,,,,,,FF,,,,,,,,0.6009,,,,,,,,,,,,,,,,,,,,,,610174a8f8a591e240e77be0,61036d05ada89aa3a7128e62,2021-07-29_23h09.12.527,Simcolourproject_2stim_asymm_v5,2020.2.10,MacIntel,60,61025ae37ef11b136ea224fe,,,,,,,,,3622,-78.53125,-37.0546875,1,0,0,response5disk,,2,3.3359375,-0.109375,1,0,0,rectangle,3.3359375,-0.109375,1,0,0,3.3359375,-0.109375,1,0,0,0,121,121,159,1,,,,,,,,
,,,,,,,,,,,,,FF,,,,,,,,0.6168,,,,,,,,,,,,,,,,,,,,,,610174a8f8a591e240e77be0,61036d05ada89aa3a7128e62,2021-07-29_23h09.12.527,Simcolourproject_2stim_asymm_v5,2020.2.10,MacIntel,60,61025ae37ef11b136ea224fe,,,,,,,,,1920,93.04296875,35.453125,1,0,0,response1disk,,6,5.5546875,12.2109375,1,0,0,rectangle,5.5546875,12.2109375,1,0,0,5.5546875,12.2109375,1,0,0,0,122,122,85,1,,,,,,,,
,,,,,,,,,,,,,FF,,,,,,,,0.983,,,,,,,,,,,,,,,,,,,,,,610174a8f8a591e240e77be0,61036d05ada89aa3a7128e62,2021-07-29_23h09.12.527,Simcolourproject_2stim_asymm_v5,2020.2.10,MacIntel,60,61025ae37ef11b136ea224fe,,,,,,,,,3529,50.46875,74.73046875,1,0,0,response1disk,,7,29.1015625,-15.734375,1,0,0,rectangle,29.1015625,-15.734375,1,0,0,29.1015625,-15.734375,1,0,0,0,123,123,143,1,,,,,,,,
,,,,,,,,,,,,,FF,,,,,,,,0.7001,,,,,,,,,,,,,,,,,,,,,,610174a8f8a591e240e77be0,61036d05ada89aa3a7128e62,2021-07-29_23h09.12.527,Simcolourproject_2stim_asymm_v5,2020.2.10,MacIntel,60,61025ae37ef11b136ea224fe,,,,,,,,,605,38.31640625,-88.4921875,1,0,0,response3disk,,4,21.578125,-4.23828125,1,0,0,rectangle,21.578125,-4.23828125,1,0,0,21.578125,-4.23828125,1,0,0,0,124,124,26,1,,,,,,,,
,,,,,,,,,,,,,FF,,,,,,,,0.6493,,,,,,,,,,,,,,,,,,,,,,610174a8f8a591e240e77be0,61036d05ada89aa3a7128e62,2021-07-29_23h09.12.527,Simcolourproject_2stim_asymm_v5,2020.2.10,MacIntel,60,61025ae37ef11b136ea224fe,,,,,,,,,3284,-78.8671875,-53.99609375,1,0,0,response5disk,,2,-16.09375,6.82421875,1,0,0,rectangle,-16.09375,6.82421875,1,0,0,-16.09375,6.82421875,1,0,0,0,125,125,66,1,,,,,,,,
,,,,,,,,,,,,,FF,,,,,,,,0.784,,,,,,,,,,,,,,,,,,,,,,610174a8f8a591e240e77be0,61036d05ada89aa3a7128e62,2021-07-29_23h09.12.527,Simcolourproject_2stim_asymm_v5,2020.2.10,MacIntel,60,61025ae37ef11b136ea224fe,,,,,,,,,3052,-78.73046875,-37.16015625,1,0,0,response5disk,,2,-28.5,-5.19140625,1,0,0,rectangle,-28.5,-5.19140625,1,0,0,-28.5,-5.19140625,1,0,0,0,126,126,2,1,,,,,,,,
,,,,,,,,,,,,,FF,,,,,,,,0.6507,,,,,,,,,,,,,,,,,,,,,,610174a8f8a591e240e77be0,61036d05ada89aa3a7128e62,2021-07-29_23h09.12.527,Simcolourproject_2stim_asymm_v5,2020.2.10,MacIntel,60,61025ae37ef11b136ea224fe,,,,,,,,,959,89.77734375,27.828125,1,0,0,response1disk,,6,-2.5390625,-2.5234375,1,0,0,rectangle,-2.5390625,-2.5234375,1,0,0,-2.5390625,-2.5234375,1,0,0,0,127,127,149,1,,,,,,,,
,,,,,,,,,,,,,FF,,,,,,,,0.6,,,,,,,,,,,,,,,,,,,,,,610174a8f8a591e240e77be0,61036d05ada89aa3a7128e62,2021-07-29_23h09.12.527,Simcolourproject_2stim_asymm_v5,2020.2.10,MacIntel,60,61025ae37ef11b136ea224fe,,,,,,,,,3469,-60.96484375,-33.3046875,1,0,0,response5disk,,2,13.09765625,11.765625,1,0,0,rectangle,13.09765625,11.765625,1,0,0,13.09765625,11.765625,1,0,0,0,128,128,134,1,,,,,,,,
,,,,,,,,,,,,,FF,,,,,,,,0.6501,,,,,,,,,,,,,,,,,,,,,,610174a8f8a591e240e77be0,61036d05ada89aa3a7128e62,2021-07-29_23h09.12.527,Simcolourproject_2stim_asymm_v5,2020.2.10,MacIntel,60,61025ae37ef11b136ea224fe,,,,,,,,,3655,31.61328125,62.02734375,1,0,0,response1disk,,7,-7.46484375,0.29296875,1,0,0,rectangle,-7.46484375,0.29296875,1,0,0,-7.46484375,0.29296875,1,0,0,0,129,129,43,1,,,,,,,,
,,,,,,,,,,,,,FF,,,,,,,,0.633,,,,,,,,,,,,,,,,,,,,,,610174a8f8a591e240e77be0,61036d05ada89aa3a7128e62,2021-07-29_23h09.12.527,Simcolourproject_2stim_asymm_v5,2020.2.10,MacIntel,60,61025ae37ef11b136ea224fe,,,,,,,,,2,-60.83203125,34.828125,1,0,0,response7disk,,1,-2.203125,10.453125,1,0,0,rectangle,-2.203125,10.453125,1,0,0,-2.203125,10.453125,1,0,0,0,130,130,157,1,,,,,,,,
,,,,,,,,,,,,,FF,,,,,,,,1.5011,,,,,,,,,,,,,,,,,,,,,,610174a8f8a591e240e77be0,61036d05ada89aa3a7128e62,2021-07-29_23h09.12.527,Simcolourproject_2stim_asymm_v5,2020.2.10,MacIntel,60,61025ae37ef11b136ea224fe,,,,,,,,,845,110.78125,41.39453125,1,0,0,response1disk,,6,4.5234375,4.24609375,1,0,0,rectangle,4.5234375,4.24609375,1,0,0,4.5234375,4.24609375,1,0,0,0,131,131,120,1,,,,,,,,
,,,,,,,,,,,,,FF,,,,,,,,0.6348,,,,,,,,,,,,,,,,,,,,,,610174a8f8a591e240e77be0,61036d05ada89aa3a7128e62,2021-07-29_23h09.12.527,Simcolourproject_2stim_asymm_v5,2020.2.10,MacIntel,60,61025ae37ef11b136ea224fe,,,,,,,,,858,-86.1015625,-65.7421875,1,0,0,response5disk,,2,-23.50390625,1.703125,1,0,0,rectangle,-23.50390625,1.703125,1,0,0,-23.50390625,1.703125,1,0,0,0,132,132,0,1,,,,,,,,
,,,,,,,,,,,,,FF,,,,,,,,0.9341,,,,,,,,,,,,,,,,,,,,,,610174a8f8a591e240e77be0,61036d05ada89aa3a7128e62,2021-07-29_23h09.12.527,Simcolourproject_2stim_asymm_v5,2020.2.10,MacIntel,60,61025ae37ef11b136ea224fe,,,,,,,,,3647,56.34375,-75.59765625,1,0,0,response3disk,,4,-26.52734375,-6.2421875,1,0,0,rectangle,-26.52734375,-6.2421875,1,0,0,-26.52734375,-6.2421875,1,0,0,0,133,133,96,1,,,,,,,,
,,,,,,,,,,,,,FF,,,,,,,,0.8333,,,,,,,,,,,,,,,,,,,,,,610174a8f8a591e240e77be0,61036d05ada89aa3a7128e62,2021-07-29_23h09.12.527,Simcolourproject_2stim_asymm_v5,2020.2.10,MacIntel,60,61025ae37ef11b136ea224fe,,,,,,,,,841,102.4335938,62.19921875,1,0,0,response1disk,,6,5.66015625,2.33203125,1,0,0,rectangle,5.66015625,2.33203125,1,0,0,5.66015625,2.33203125,1,0,0,0,134,134,137,1,,,,,,,,
,,,,,,,,,,,,,FF,,,,,,,,1.0824,,,,,,,,,,,,,,,,,,,,,,610174a8f8a591e240e77be0,61036d05ada89aa3a7128e62,2021-07-29_23h09.12.527,Simcolourproject_2stim_asymm_v5,2020.2.10,MacIntel,60,61025ae37ef11b136ea224fe,,,,,,,,,1256,88.63671875,34.47265625,1,0,0,response1disk,,6,21.875,0.65625,1,0,0,rectangle,21.875,0.65625,1,0,0,21.875,0.65625,1,0,0,0,135,135,36,1,,,,,,,,
,,,,,,,,,,,,,FF,,,,,,,,0.617,,,,,,,,,,,,,,,,,,,,,,610174a8f8a591e240e77be0,61036d05ada89aa3a7128e62,2021-07-29_23h09.12.527,Simcolourproject_2stim_asymm_v5,2020.2.10,MacIntel,60,61025ae37ef11b136ea224fe,,,,,,,,,1078,-70.2734375,-49.9921875,1,0,0,response5disk,,2,-11.40625,-8.53515625,1,0,0,rectangle,-11.40625,-8.53515625,1,0,0,-11.40625,-8.53515625,1,0,0,0,136,136,114,1,,,,,,,,
,,,,,,,,,,,,,FF,,,,,,,,0.7166,,,,,,,,,,,,,,,,,,,,,,610174a8f8a591e240e77be0,61036d05ada89aa3a7128e62,2021-07-29_23h09.12.527,Simcolourproject_2stim_asymm_v5,2020.2.10,MacIntel,60,61025ae37ef11b136ea224fe,,,,,,,,,1905,-92.02734375,-44.62109375,1,0,0,response5disk,,2,-26.5390625,-8.4921875,1,0,0,rectangle,-26.5390625,-8.4921875,1,0,0,-26.5390625,-8.4921875,1,0,0,0,137,137,57,1,,,,,,,,
,,,,,,,,,,,,,FF,,,,,,,,0.8045,,,,,,,,,,,,,,,,,,,,,,610174a8f8a591e240e77be0,61036d05ada89aa3a7128e62,2021-07-29_23h09.12.527,Simcolourproject_2stim_asymm_v5,2020.2.10,MacIntel,60,61025ae37ef11b136ea224fe,,,,,,,,,1406,-46.7578125,-81.27734375,1,0,0,response5disk,,3,-17.9375,-2.45703125,1,0,0,rectangle,-17.9375,-2.45703125,1,0,0,-17.9375,-2.45703125,1,0,0,0,138,138,79,1,,,,,,,,
,,,,,,,,,,,,,FF,,,,,,,,0.7006,,,,,,,,,,,,,,,,,,,,,,610174a8f8a591e240e77be0,61036d05ada89aa3a7128e62,2021-07-29_23h09.12.527,Simcolourproject_2stim_asymm_v5,2020.2.10,MacIntel,60,61025ae37ef11b136ea224fe,,,,,,,,,4231,62.0703125,90.62109375,1,0,0,response1disk,,7,-14.31640625,13.29296875,1,0,0,rectangle,-14.31640625,13.29296875,1,0,0,-14.31640625,13.29296875,1,0,0,0,139,139,125,1,,,,,,,,
,,,,,,,,,,,,,FF,,,,,,,,0.5162,,,,,,,,,,,,,,,,,,,,,,610174a8f8a591e240e77be0,61036d05ada89aa3a7128e62,2021-07-29_23h09.12.527,Simcolourproject_2stim_asymm_v5,2020.2.10,MacIntel,60,61025ae37ef11b136ea224fe,,,,,,,,,3279,44.046875,62.30078125,1,0,0,response1disk,,7,-20.90234375,-10.70703125,1,0,0,rectangle,-20.90234375,-10.70703125,1,0,0,-20.90234375,-10.70703125,1,0,0,0,140,140,127,1,,,,,,,,
,,,,,,,,,,,,,FF,,,,,,,,0.4834,,,,,,,,,,,,,,,,,,,,,,610174a8f8a591e240e77be0,61036d05ada89aa3a7128e62,2021-07-29_23h09.12.527,Simcolourproject_2stim_asymm_v5,2020.2.10,MacIntel,60,61025ae37ef11b136ea224fe,,,,,,,,,2633,57.6328125,84.60546875,1,0,0,response1disk,,7,22.9765625,4.7734375,1,0,0,rectangle,22.9765625,4.7734375,1,0,0,22.9765625,4.7734375,1,0,0,0,141,141,11,1,,,,,,,,
,,,,,,,,,,,,,FF,,,,,,,,0.5674,,,,,,,,,,,,,,,,,,,,,,610174a8f8a591e240e77be0,61036d05ada89aa3a7128e62,2021-07-29_23h09.12.527,Simcolourproject_2stim_asymm_v5,2020.2.10,MacIntel,60,61025ae37ef11b136ea224fe,,,,,,,,,1857,41.52734375,64.92578125,1,0,0,response1disk,,7,7.34765625,-16.82421875,1,0,0,rectangle,35.84765625,-84.4296875,1,0,0,-4.52734375,15.453125,1,0,0,0,142,142,110,1,,response3disk_3,TRUE,4,4,"[170,262,144,247,157,279,98,97,16,187,296,259,94,111,294,247,62,144,195,143]",1.5674,rectangle
,,,,,,,,,,,,,FF,,,,,,,,0.767,,,,,,,,,,,,,,,,,,,,,,610174a8f8a591e240e77be0,61036d05ada89aa3a7128e62,2021-07-29_23h09.12.527,Simcolourproject_2stim_asymm_v5,2020.2.10,MacIntel,60,61025ae37ef11b136ea224fe,,,,,,,,,3059,-50.7734375,-88.9453125,1,0,0,response5disk,,3,-12.75390625,-12.8828125,1,0,0,rectangle,-88.5234375,44.75,1,0,0,-29.91015625,-0.7421875,1,0,0,0,143,143,82,1,,response7disk_3,TRUE,1,1,"[170,262,144,247,157,279,98,97,16,187,296,259,94,111,294,247,62,144,195,143]",1.2836,rectangle
,,,,,,,,,,,,,FF,,,,,,,,0.7675,,,,,,,,,,,,,,,,,,,,,,610174a8f8a591e240e77be0,61036d05ada89aa3a7128e62,2021-07-29_23h09.12.527,Simcolourproject_2stim_asymm_v5,2020.2.10,MacIntel,60,61025ae37ef11b136ea224fe,,,,,,,,,384,-33.2421875,-89.80078125,1,0,0,response5disk,,3,2.546875,-0.74609375,1,0,0,rectangle,2.546875,-0.74609375,1,0,0,2.546875,-0.74609375,1,0,0,0,144,144,58,1,,,,,,,,
,,,,,,,,,,,,,FF,,,,,,,,0.8341,,,,,,,,,,,,,,,,,,,,,,610174a8f8a591e240e77be0,61036d05ada89aa3a7128e62,2021-07-29_23h09.12.527,Simcolourproject_2stim_asymm_v5,2020.2.10,MacIntel,60,61025ae37ef11b136ea224fe,,,,,,,,,3576,85.390625,42.16796875,1,0,0,response1disk,,6,17.7890625,-14,1,0,0,rectangle,17.7890625,-14,1,0,0,17.7890625,-14,1,0,0,0,145,145,98,1,,,,,,,,
,,,,,,,,,,,,,FF,,,,,,,,0.7335,,,,,,,,,,,,,,,,,,,,,,610174a8f8a591e240e77be0,61036d05ada89aa3a7128e62,2021-07-29_23h09.12.527,Simcolourproject_2stim_asymm_v5,2020.2.10,MacIntel,60,61025ae37ef11b136ea224fe,,,,,,,,,3932,-49.609375,-96.94140625,1,0,0,response5disk,,3,-6.67578125,-10.546875,1,0,0,rectangle,-6.67578125,-10.546875,1,0,0,-6.67578125,-10.546875,1,0,0,0,146,146,101,1,,,,,,,,
,,,,,,,,,,,,,FF,,,,,,,,0.6671,,,,,,,,,,,,,,,,,,,,,,610174a8f8a591e240e77be0,61036d05ada89aa3a7128e62,2021-07-29_23h09.12.527,Simcolourproject_2stim_asymm_v5,2020.2.10,MacIntel,60,61025ae37ef11b136ea224fe,,,,,,,,,1117,-68.421875,-91.328125,1,0,0,response5disk,,3,-18.26171875,-0.02734375,1,0,0,rectangle,-18.26171875,-0.02734375,1,0,0,-18.26171875,-0.02734375,1,0,0,0,147,147,47,1,,,,,,,,
,,,,,,,,,,,,,FF,,,,,,,,1.3666,,,,,,,,,,,,,,,,,,,,,,610174a8f8a591e240e77be0,61036d05ada89aa3a7128e62,2021-07-29_23h09.12.527,Simcolourproject_2stim_asymm_v5,2020.2.10,MacIntel,60,61025ae37ef11b136ea224fe,,,,,,,,,2604,-88.63671875,35.76953125,1,0,0,response7disk,,1,-11.40625,5.1015625,1,0,0,rectangle,-11.40625,5.1015625,1,0,0,-11.40625,5.1015625,1,0,0,0,148,148,111,1,,,,,,,,
,,,,,,,,,,,,,FF,,,,,,,,0.6152,,,,,,,,,,,,,,,,,,,,,,610174a8f8a591e240e77be0,61036d05ada89aa3a7128e62,2021-07-29_23h09.12.527,Simcolourproject_2stim_asymm_v5,2020.2.10,MacIntel,60,61025ae37ef11b136ea224fe,,,,,,,,,4012,44.3203125,105.84375,1,0,0,response1disk,,7,-11.8515625,2.66796875,1,0,0,rectangle,-11.8515625,2.66796875,1,0,0,-11.8515625,2.66796875,1,0,0,0,149,149,106,1,,,,,,,,
,,,,,,,,,,,,,FF,,,,,,,,0.8665,,,,,,,,,,,,,,,,,,,,,,610174a8f8a591e240e77be0,61036d05ada89aa3a7128e62,2021-07-29_23h09.12.527,Simcolourproject_2stim_asymm_v5,2020.2.10,MacIntel,60,61025ae37ef11b136ea224fe,,,,,,,,,2158,86.52734375,37.29296875,1,0,0,response1disk,,6,-12.0390625,-12.52734375,1,0,0,rectangle,-12.0390625,-12.52734375,1,0,0,-12.0390625,-12.52734375,1,0,0,0,150,150,144,1,,,,,,,,
,,,,,,,,,,,,,FF,,,,,,,,0.7334,,,,,,,,,,,,,,,,,,,,,,610174a8f8a591e240e77be0,61036d05ada89aa3a7128e62,2021-07-29_23h09.12.527,Simcolourproject_2stim_asymm_v5,2020.2.10,MacIntel,60,61025ae37ef11b136ea224fe,,,,,,,,,3136,38.1875,64.42578125,1,0,0,response1disk,,7,5.8515625,-2.0390625,1,0,0,rectangle,5.8515625,-2.0390625,1,0,0,5.8515625,-2.0390625,1,0,0,0,151,151,138,1,,,,,,,,
,,,,,,,,,,,,,FF,,,,,,,,0.5677,,,,,,,,,,,,,,,,,,,,,,610174a8f8a591e240e77be0,61036d05ada89aa3a7128e62,2021-07-29_23h09.12.527,Simcolourproject_2stim_asymm_v5,2020.2.10,MacIntel,60,61025ae37ef11b136ea224fe,,,,,,,,,3320,52.1328125,55.98046875,1,0,0,response1disk,,7,10.67578125,-1.12109375,1,0,0,rectangle,10.67578125,-1.12109375,1,0,0,10.67578125,-1.12109375,1,0,0,0,152,152,38,1,,,,,,,,
,,,,,,,,,,,,,FF,,,,,,,,0.5844,,,,,,,,,,,,,,,,,,,,,,610174a8f8a591e240e77be0,61036d05ada89aa3a7128e62,2021-07-29_23h09.12.527,Simcolourproject_2stim_asymm_v5,2020.2.10,MacIntel,60,61025ae37ef11b136ea224fe,,,,,,,,,3125,31.56640625,-87.37890625,1,0,0,response3disk,,4,-0.08203125,13.375,1,0,0,rectangle,-0.08203125,13.375,1,0,0,-0.08203125,13.375,1,0,0,0,153,153,10,1,,,,,,,,
,,,,,,,,,,,,,FF,,,,,,,,0.6833,,,,,,,,,,,,,,,,,,,,,,610174a8f8a591e240e77be0,61036d05ada89aa3a7128e62,2021-07-29_23h09.12.527,Simcolourproject_2stim_asymm_v5,2020.2.10,MacIntel,60,61025ae37ef11b136ea224fe,,,,,,,,,3868,105.4453125,-26.76953125,1,0,0,response3disk,,5,9.21484375,-0.98828125,1,0,0,rectangle,9.21484375,-0.98828125,1,0,0,9.21484375,-0.98828125,1,0,0,0,154,154,18,1,,,,,,,,
,,,,,,,,,,,,,FF,,,,,,,,0.9666,,,,,,,,,,,,,,,,,,,,,,610174a8f8a591e240e77be0,61036d05ada89aa3a7128e62,2021-07-29_23h09.12.527,Simcolourproject_2stim_asymm_v5,2020.2.10,MacIntel,60,61025ae37ef11b136ea224fe,,,,,,,,,3899,96.76953125,31.03125,1,0,0,response1disk,,6,13.2890625,11.91796875,1,0,0,rectangle,13.2890625,11.91796875,1,0,0,13.2890625,11.91796875,1,0,0,0,155,155,86,1,,,,,,,,
,,,,,,,,,,,,,FF,,,,,,,,0.4989,,,,,,,,,,,,,,,,,,,,,,610174a8f8a591e240e77be0,61036d05ada89aa3a7128e62,2021-07-29_23h09.12.527,Simcolourproject_2stim_asymm_v5,2020.2.10,MacIntel,60,61025ae37ef11b136ea224fe,,,,,,,,,851,50.15625,71.00390625,1,0,0,response1disk,,7,-8.05078125,-12.7421875,1,0,0,rectangle,36.328125,72.52734375,1,0,0,13.6484375,-10.15234375,1,0,0,0,156,156,80,1,,response1disk_3,TRUE,7,7,"[170,262,144,247,157,279,98,97,16,187,296,259,94,111,294,247,62,144,195,143]",1.8342,rectangle
,,,,,,,,,,,,,FF,,,,,,,,1.9158,,,,,,,,,,,,,,,,,,,,,,610174a8f8a591e240e77be0,61036d05ada89aa3a7128e62,2021-07-29_23h09.12.527,Simcolourproject_2stim_asymm_v5,2020.2.10,MacIntel,60,61025ae37ef11b136ea224fe,,,,,,,,,3823,32.1328125,-84.35546875,1,0,0,response3disk,,4,-13.2890625,-5.78125,1,0,0,rectangle,-13.2890625,-5.78125,1,0,0,-13.2890625,-5.78125,1,0,0,0,157,157,40,1,,,,,,,,
,,,,,,,,,,,,,FF,,,,,,,,0.6844,,,,,,,,,,,,,,,,,,,,,,610174a8f8a591e240e77be0,61036d05ada89aa3a7128e62,2021-07-29_23h09.12.527,Simcolourproject_2stim_asymm_v5,2020.2.10,MacIntel,60,61025ae37ef11b136ea224fe,,,,,,,,,1037,-30.953125,-102.03125,1,0,0,response5disk,,3,-12.5,-2.41015625,1,0,0,rectangle,-12.5,-2.41015625,1,0,0,-12.5,-2.41015625,1,0,0,0,158,158,39,1,,,,,,,,
,,,,,,,,,,,,,FF,,,,,,,,0.5339,,,,,,,,,,,,,,,,,,,,,,610174a8f8a591e240e77be0,61036d05ada89aa3a7128e62,2021-07-29_23h09.12.527,Simcolourproject_2stim_asymm_v5,2020.2.10,MacIntel,60,61025ae37ef11b136ea224fe,,,,,,,,,2857,41.390625,72.6328125,1,0,0,response1disk,,7,11.29296875,-0.37890625,1,0,0,rectangle,11.29296875,-0.37890625,1,0,0,11.29296875,-0.37890625,1,0,0,0,159,159,13,1,,,,,,,,
,,,,,,,,,,,,,FF,,,,,,,,1.3657,,,,,,,,,,,,,,,,,,,,,,610174a8f8a591e240e77be0,61036d05ada89aa3a7128e62,2021-07-29_23h09.12.527,Simcolourproject_2stim_asymm_v5,2020.2.10,MacIntel,60,61025ae37ef11b136ea224fe,,,,,,,,,732,26.21875,-110.1757813,1,0,0,response3disk,,4,15.06640625,7.9609375,1,0,0,rectangle,15.06640625,7.9609375,1,0,0,15.06640625,7.9609375,1,0,0,1,0,160,76,1,,,,,,,,
,,,,,,,,,,,,,FF,,,,,,,,0.6999,,,,,,,,,,,,,,,,,,,,,,610174a8f8a591e240e77be0,61036d05ada89aa3a7128e62,2021-07-29_23h09.12.527,Simcolourproject_2stim_asymm_v5,2020.2.10,MacIntel,60,61025ae37ef11b136ea224fe,,,,,,,,,3623,-49.25,-107.3671875,1,0,0,response5disk,,3,-0.484375,-8.33984375,1,0,0,rectangle,-0.484375,-8.33984375,1,0,0,-0.484375,-8.33984375,1,0,0,1,1,161,111,1,,,,,,,,
,,,,,,,,,,,,,FF,,,,,,,,0.5671,,,,,,,,,,,,,,,,,,,,,,610174a8f8a591e240e77be0,61036d05ada89aa3a7128e62,2021-07-29_23h09.12.527,Simcolourproject_2stim_asymm_v5,2020.2.10,MacIntel,60,61025ae37ef11b136ea224fe,,,,,,,,,3316,41.3671875,80.21484375,1,0,0,response1disk,,7,-4.56640625,11.45703125,1,0,0,rectangle,-4.56640625,11.45703125,1,0,0,-4.56640625,11.45703125,1,0,0,1,2,162,25,1,,,,,,,,
,,,,,,,,,,,,,FF,,,,,,,,2.634,,,,,,,,,,,,,,,,,,,,,,610174a8f8a591e240e77be0,61036d05ada89aa3a7128e62,2021-07-29_23h09.12.527,Simcolourproject_2stim_asymm_v5,2020.2.10,MacIntel,60,61025ae37ef11b136ea224fe,,,,,,,,,2547,38.20703125,-70.16796875,1,0,0,response3disk,,4,15.4296875,-11.21875,1,0,0,rectangle,15.4296875,-11.21875,1,0,0,15.4296875,-11.21875,1,0,0,1,3,163,74,1,,,,,,,,
,,,,,,,,,,,,,FF,,,,,,,,7.5179,,,,,,,,,,,,,,,,,,,,,,610174a8f8a591e240e77be0,61036d05ada89aa3a7128e62,2021-07-29_23h09.12.527,Simcolourproject_2stim_asymm_v5,2020.2.10,MacIntel,60,61025ae37ef11b136ea224fe,,,,,,,,,1087,49.03515625,87.7890625,1,0,0,response1disk,,7,-10.20703125,-12.8515625,1,0,0,rectangle,-10.20703125,-12.8515625,1,0,0,-10.20703125,-12.8515625,1,0,0,1,4,164,125,1,,,,,,,,
,,,,,,,,,,,,,FF,,,,,,,,0.5501,,,,,,,,,,,,,,,,,,,,,,610174a8f8a591e240e77be0,61036d05ada89aa3a7128e62,2021-07-29_23h09.12.527,Simcolourproject_2stim_asymm_v5,2020.2.10,MacIntel,60,61025ae37ef11b136ea224fe,,,,,,,,,369,-51.66015625,-114.8554688,1,0,0,response5disk,,3,-19.27734375,-6.54296875,1,0,0,rectangle,-19.27734375,-6.54296875,1,0,0,-19.27734375,-6.54296875,1,0,0,1,5,165,47,1,,,,,,,,
,,,,,,,,,,,,,FF,,,,,,,,0.7662,,,,,,,,,,,,,,,,,,,,,,610174a8f8a591e240e77be0,61036d05ada89aa3a7128e62,2021-07-29_23h09.12.527,Simcolourproject_2stim_asymm_v5,2020.2.10,MacIntel,60,61025ae37ef11b136ea224fe,,,,,,,,,1158,-40.703125,-105.8671875,1,0,0,response5disk,,3,-11.18359375,9.26171875,1,0,0,rectangle,-11.18359375,9.26171875,1,0,0,-11.18359375,9.26171875,1,0,0,1,6,166,143,1,,,,,,,,
,,,,,,,,,,,,,FF,,,,,,,,0.7162,,,,,,,,,,,,,,,,,,,,,,610174a8f8a591e240e77be0,61036d05ada89aa3a7128e62,2021-07-29_23h09.12.527,Simcolourproject_2stim_asymm_v5,2020.2.10,MacIntel,60,61025ae37ef11b136ea224fe,,,,,,,,,4045,83.89453125,61.0390625,1,0,0,response1disk,,6,-1.9140625,8.9296875,1,0,0,rectangle,-1.9140625,8.9296875,1,0,0,-1.9140625,8.9296875,1,0,0,1,7,167,135,1,,,,,,,,
,,,,,,,,,,,,,FF,,,,,,,,0.6502,,,,,,,,,,,,,,,,,,,,,,610174a8f8a591e240e77be0,61036d05ada89aa3a7128e62,2021-07-29_23h09.12.527,Simcolourproject_2stim_asymm_v5,2020.2.10,MacIntel,60,61025ae37ef11b136ea224fe,,,,,,,,,3267,60.34375,-51.41015625,1,0,0,response3disk,,5,2.0703125,-13.84375,1,0,0,rectangle,2.0703125,-13.84375,1,0,0,2.0703125,-13.84375,1,0,0,1,8,168,3,1,,,,,,,,
,,,,,,,,,,,,,FF,,,,,,,,0.9167,,,,,,,,,,,,,,,,,,,,,,610174a8f8a591e240e77be0,61036d05ada89aa3a7128e62,2021-07-29_23h09.12.527,Simcolourproject_2stim_asymm_v5,2020.2.10,MacIntel,60,61025ae37ef11b136ea224fe,,,,,,,,,320,43.12109375,-40.37890625,1,0,0,response3disk,,5,13.2421875,5.8046875,1,0,0,rectangle,-21.9296875,-81.24609375,1,0,0,-13.13671875,-4.29296875,1,0,0,1,9,169,122,1,,response5disk_3,TRUE,3,3,"[170,262,144,247,157,279,98,97,16,187,296,259,94,111,294,247,62,144,195,143]",1.6495,rectangle
,,,,,,,,,,,,,FF,,,,,,,,1.6172,,,,,,,,,,,,,,,,,,,,,,610174a8f8a591e240e77be0,61036d05ada89aa3a7128e62,2021-07-29_23h09.12.527,Simcolourproject_2stim_asymm_v5,2020.2.10,MacIntel,60,61025ae37ef11b136ea224fe,,,,,,,,,1425,98.09765625,-42.44140625,1,0,0,response3disk,,5,26.15234375,-0.59375,1,0,0,rectangle,26.15234375,-0.59375,1,0,0,26.15234375,-0.59375,1,0,0,1,10,170,139,1,,,,,,,,
,,,,,,,,,,,,,FF,,,,,,,,0.9334,,,,,,,,,,,,,,,,,,,,,,610174a8f8a591e240e77be0,61036d05ada89aa3a7128e62,2021-07-29_23h09.12.527,Simcolourproject_2stim_asymm_v5,2020.2.10,MacIntel,60,61025ae37ef11b136ea224fe,,,,,,,,,4095,-52.08984375,92.97265625,1,0,0,response7disk,,0,-13.09375,0.28125,1,0,0,rectangle,-13.09375,0.28125,1,0,0,-13.09375,0.28125,1,0,0,1,11,171,105,1,,,,,,,,
,,,,,,,,,,,,,FF,,,,,,,,0.6331,,,,,,,,,,,,,,,,,,,,,,610174a8f8a591e240e77be0,61036d05ada89aa3a7128e62,2021-07-29_23h09.12.527,Simcolourproject_2stim_asymm_v5,2020.2.10,MacIntel,60,61025ae37ef11b136ea224fe,,,,,,,,,2519,51.6875,90.24609375,1,0,0,response1disk,,7,19.1328125,1.9140625,1,0,0,rectangle,19.1328125,1.9140625,1,0,0,19.1328125,1.9140625,1,0,0,1,12,172,134,1,,,,,,,,
,,,,,,,,,,,,,FF,,,,,,,,0.7661,,,,,,,,,,,,,,,,,,,,,,610174a8f8a591e240e77be0,61036d05ada89aa3a7128e62,2021-07-29_23h09.12.527,Simcolourproject_2stim_asymm_v5,2020.2.10,MacIntel,60,61025ae37ef11b136ea224fe,,,,,,,,,2686,41.8359375,-69.14453125,1,0,0,response3disk,,4,23.953125,2.76953125,1,0,0,rectangle,23.953125,2.76953125,1,0,0,23.953125,2.76953125,1,0,0,1,13,173,52,1,,,,,,,,
,,,,,,,,,,,,,FF,,,,,,,,0.9496,,,,,,,,,,,,,,,,,,,,,,610174a8f8a591e240e77be0,61036d05ada89aa3a7128e62,2021-07-29_23h09.12.527,Simcolourproject_2stim_asymm_v5,2020.2.10,MacIntel,60,61025ae37ef11b136ea224fe,,,,,,,,,631,-82.7578125,-54.12109375,1,0,0,response5disk,,2,-17.0703125,-0.3984375,1,0,0,rectangle,-17.0703125,-0.3984375,1,0,0,-17.0703125,-0.3984375,1,0,0,1,14,174,23,1,,,,,,,,
,,,,,,,,,,,,,FF,,,,,,,,0.9676,,,,,,,,,,,,,,,,,,,,,,610174a8f8a591e240e77be0,61036d05ada89aa3a7128e62,2021-07-29_23h09.12.527,Simcolourproject_2stim_asymm_v5,2020.2.10,MacIntel,60,61025ae37ef11b136ea224fe,,,,,,,,,1136,-70.1640625,45.57421875,1,0,0,response7disk,,1,-8.05078125,5.078125,1,0,0,rectangle,-8.05078125,5.078125,1,0,0,-8.05078125,5.078125,1,0,0,1,15,175,129,1,,,,,,,,
,,,,,,,,,,,,,FF,,,,,,,,0.7328,,,,,,,,,,,,,,,,,,,,,,610174a8f8a591e240e77be0,61036d05ada89aa3a7128e62,2021-07-29_23h09.12.527,Simcolourproject_2stim_asymm_v5,2020.2.10,MacIntel,60,61025ae37ef11b136ea224fe,,,,,,,,,3345,83.83984375,46.66015625,1,0,0,response1disk,,6,8.7265625,7.3828125,1,0,0,rectangle,8.7265625,7.3828125,1,0,0,8.7265625,7.3828125,1,0,0,1,16,176,90,1,,,,,,,,
,,,,,,,,,,,,,FF,,,,,,,,0.8499,,,,,,,,,,,,,,,,,,,,,,610174a8f8a591e240e77be0,61036d05ada89aa3a7128e62,2021-07-29_23h09.12.527,Simcolourproject_2stim_asymm_v5,2020.2.10,MacIntel,60,61025ae37ef11b136ea224fe,,,,,,,,,992,-42.515625,-98.70703125,1,0,0,response5disk,,3,-13.3671875,5.30859375,1,0,0,rectangle,-13.3671875,5.30859375,1,0,0,-13.3671875,5.30859375,1,0,0,1,17,177,159,1,,,,,,,,
,,,,,,,,,,,,,FF,,,,,,,,0.6181,,,,,,,,,,,,,,,,,,,,,,610174a8f8a591e240e77be0,61036d05ada89aa3a7128e62,2021-07-29_23h09.12.527,Simcolourproject_2stim_asymm_v5,2020.2.10,MacIntel,60,61025ae37ef11b136ea224fe,,,,,,,,,4020,-74.76171875,47.6875,1,0,0,response7disk,,1,-7.35546875,-3.05078125,1,0,0,rectangle,-7.35546875,-3.05078125,1,0,0,-7.35546875,-3.05078125,1,0,0,1,18,178,116,1,,,,,,,,
,,,,,,,,,,,,,FF,,,,,,,,0.6512,,,,,,,,,,,,,,,,,,,,,,610174a8f8a591e240e77be0,61036d05ada89aa3a7128e62,2021-07-29_23h09.12.527,Simcolourproject_2stim_asymm_v5,2020.2.10,MacIntel,60,61025ae37ef11b136ea224fe,,,,,,,,,492,59.17578125,16.53515625,1,0,0,response1disk,,6,23.890625,-11.109375,1,0,0,rectangle,23.890625,-11.109375,1,0,0,23.890625,-11.109375,1,0,0,1,19,179,7,1,,,,,,,,
,,,,,,,,,,,,,FF,,,,,,,,0.9508,,,,,,,,,,,,,,,,,,,,,,610174a8f8a591e240e77be0,61036d05ada89aa3a7128e62,2021-07-29_23h09.12.527,Simcolourproject_2stim_asymm_v5,2020.2.10,MacIntel,60,61025ae37ef11b136ea224fe,,,,,,,,,2369,40.03125,-47.0703125,1,0,0,response3disk,,4,5.09765625,0.12890625,1,0,0,rectangle,5.09765625,0.12890625,1,0,0,5.09765625,0.12890625,1,0,0,1,20,180,34,1,,,,,,,,
,,,,,,,,,,,,,FF,,,,,,,,1.3332,,,,,,,,,,,,,,,,,,,,,,610174a8f8a591e240e77be0,61036d05ada89aa3a7128e62,2021-07-29_23h09.12.527,Simcolourproject_2stim_asymm_v5,2020.2.10,MacIntel,60,61025ae37ef11b136ea224fe,,,,,,,,,765,62.1484375,48.13671875,1,0,0,response1disk,,6,2.82421875,-4.9140625,1,0,0,rectangle,2.82421875,-4.9140625,1,0,0,2.82421875,-4.9140625,1,0,0,1,21,181,82,1,,,,,,,,
,,,,,,,,,,,,,FF,,,,,,,,0.716,,,,,,,,,,,,,,,,,,,,,,610174a8f8a591e240e77be0,61036d05ada89aa3a7128e62,2021-07-29_23h09.12.527,Simcolourproject_2stim_asymm_v5,2020.2.10,MacIntel,60,61025ae37ef11b136ea224fe,,,,,,,,,999,33.05859375,-66.078125,1,0,0,response3disk,,4,-3.3125,-15.82421875,1,0,0,rectangle,-3.3125,-15.82421875,1,0,0,-3.3125,-15.82421875,1,0,0,1,22,182,26,1,,,,,,,,
,,,,,,,,,,,,,FF,,,,,,,,0.9007,,,,,,,,,,,,,,,,,,,,,,610174a8f8a591e240e77be0,61036d05ada89aa3a7128e62,2021-07-29_23h09.12.527,Simcolourproject_2stim_asymm_v5,2020.2.10,MacIntel,60,61025ae37ef11b136ea224fe,,,,,,,,,4254,-106.3046875,-36.3359375,1,0,0,response5disk,,2,-14.421875,-0.71875,1,0,0,rectangle,-14.421875,-0.71875,1,0,0,-14.421875,-0.71875,1,0,0,1,23,183,145,1,,,,,,,,
,,,,,,,,,,,,,FF,,,,,,,,0.7826,,,,,,,,,,,,,,,,,,,,,,610174a8f8a591e240e77be0,61036d05ada89aa3a7128e62,2021-07-29_23h09.12.527,Simcolourproject_2stim_asymm_v5,2020.2.10,MacIntel,60,61025ae37ef11b136ea224fe,,,,,,,,,3892,72.2421875,-27.7109375,1,0,0,response3disk,,5,7.81640625,13.10546875,1,0,0,rectangle,7.81640625,13.10546875,1,0,0,7.81640625,13.10546875,1,0,0,1,24,184,153,1,,,,,,,,
,,,,,,,,,,,,,FF,,,,,,,,0.5825,,,,,,,,,,,,,,,,,,,,,,610174a8f8a591e240e77be0,61036d05ada89aa3a7128e62,2021-07-29_23h09.12.527,Simcolourproject_2stim_asymm_v5,2020.2.10,MacIntel,60,61025ae37ef11b136ea224fe,,,,,,,,,1790,92.80859375,-37.15234375,1,0,0,response3disk,,5,10.20703125,-8.515625,1,0,0,rectangle,10.20703125,-8.515625,1,0,0,10.20703125,-8.515625,1,0,0,1,25,185,156,1,,,,,,,,
,,,,,,,,,,,,,FF,,,,,,,,1.4995,,,,,,,,,,,,,,,,,,,,,,610174a8f8a591e240e77be0,61036d05ada89aa3a7128e62,2021-07-29_23h09.12.527,Simcolourproject_2stim_asymm_v5,2020.2.10,MacIntel,60,61025ae37ef11b136ea224fe,,,,,,,,,3870,-39.87890625,-63.99609375,1,0,0,response5disk,,3,-12.48046875,-7.60546875,1,0,0,rectangle,-80.66796875,48.61328125,1,0,0,-12.5703125,2.79296875,1,0,0,1,26,186,127,1,,response7disk_3,TRUE,1,1,"[170,262,144,247,157,279,98,97,16,187,296,259,94,111,294,247,62,144,195,143]",1.1823,rectangle
,,,,,,,,,,,,,FF,,,,,,,,0.8789,,,,,,,,,,,,,,,,,,,,,,610174a8f8a591e240e77be0,61036d05ada89aa3a7128e62,2021-07-29_23h09.12.527,Simcolourproject_2stim_asymm_v5,2020.2.10,MacIntel,60,61025ae37ef11b136ea224fe,,,,,,,,,2453,32.203125,72.71875,1,0,0,response1disk,,7,-20.078125,-4.4765625,1,0,0,rectangle,-20.078125,-4.4765625,1,0,0,-20.078125,-4.4765625,1,0,0,1,27,187,132,1,,,,,,,,
,,,,,,,,,,,,,FF,,,,,,,,0.5152,,,,,,,,,,,,,,,,,,,,,,610174a8f8a591e240e77be0,61036d05ada89aa3a7128e62,2021-07-29_23h09.12.527,Simcolourproject_2stim_asymm_v5,2020.2.10,MacIntel,60,61025ae37ef11b136ea224fe,,,,,,,,,1709,27.94140625,80.4921875,1,0,0,response1disk,,7,3.07421875,-3.1953125,1,0,0,rectangle,3.07421875,-3.1953125,1,0,0,3.07421875,-3.1953125,1,0,0,1,28,188,137,1,,,,,,,,
,,,,,,,,,,,,,FF,,,,,,,,0.6342,,,,,,,,,,,,,,,,,,,,,,610174a8f8a591e240e77be0,61036d05ada89aa3a7128e62,2021-07-29_23h09.12.527,Simcolourproject_2stim_asymm_v5,2020.2.10,MacIntel,60,61025ae37ef11b136ea224fe,,,,,,,,,3479,-112.1601563,-59.1328125,1,0,0,response5disk,,2,-1.7265625,2.234375,1,0,0,rectangle,-1.7265625,2.234375,1,0,0,-1.7265625,2.234375,1,0,0,1,29,189,124,1,,,,,,,,
,,,,,,,,,,,,,FF,,,,,,,,0.6499,,,,,,,,,,,,,,,,,,,,,,610174a8f8a591e240e77be0,61036d05ada89aa3a7128e62,2021-07-29_23h09.12.527,Simcolourproject_2stim_asymm_v5,2020.2.10,MacIntel,60,61025ae37ef11b136ea224fe,,,,,,,,,1240,56.38671875,-79.71875,1,0,0,response3disk,,4,15.4375,5.23828125,1,0,0,rectangle,15.4375,5.23828125,1,0,0,15.4375,5.23828125,1,0,0,1,30,190,119,1,,,,,,,,
,,,,,,,,,,,,,FF,,,,,,,,0.5659,,,,,,,,,,,,,,,,,,,,,,610174a8f8a591e240e77be0,61036d05ada89aa3a7128e62,2021-07-29_23h09.12.527,Simcolourproject_2stim_asymm_v5,2020.2.10,MacIntel,60,61025ae37ef11b136ea224fe,,,,,,,,,1272,46.2890625,80.0625,1,0,0,response1disk,,7,0.30859375,-14.94921875,1,0,0,rectangle,0.30859375,-14.94921875,1,0,0,0.30859375,-14.94921875,1,0,0,1,31,191,55,1,,,,,,,,
,,,,,,,,,,,,,FF,,,,,,,,1.2821,,,,,,,,,,,,,,,,,,,,,,610174a8f8a591e240e77be0,61036d05ada89aa3a7128e62,2021-07-29_23h09.12.527,Simcolourproject_2stim_asymm_v5,2020.2.10,MacIntel,60,61025ae37ef11b136ea224fe,,,,,,,,,2916,63.92578125,-38.02734375,1,0,0,response3disk,,5,3.37890625,1.44140625,1,0,0,rectangle,3.37890625,1.44140625,1,0,0,3.37890625,1.44140625,1,0,0,1,32,192,54,1,,,,,,,,
,,,,,,,,,,,,,FF,,,,,,,,0.6673,,,,,,,,,,,,,,,,,,,,,,610174a8f8a591e240e77be0,61036d05ada89aa3a7128e62,2021-07-29_23h09.12.527,Simcolourproject_2stim_asymm_v5,2020.2.10,MacIntel,60,61025ae37ef11b136ea224fe,,,,,,,,,842,65.65234375,95.79296875,1,0,0,response1disk,,7,12.08984375,7.82421875,1,0,0,rectangle,12.08984375,7.82421875,1,0,0,12.08984375,7.82421875,1,0,0,1,33,193,80,1,,,,,,,,
,,,,,,,,,,,,,FF,,,,,,,,0.75,,,,,,,,,,,,,,,,,,,,,,610174a8f8a591e240e77be0,61036d05ada89aa3a7128e62,2021-07-29_23h09.12.527,Simcolourproject_2stim_asymm_v5,2020.2.10,MacIntel,60,61025ae37ef11b136ea224fe,,,,,,,,,2898,-56.0078125,-52.515625,1,0,0,response5disk,,2,-14.234375,4.34375,1,0,0,rectangle,16.80859375,109.6132813,1,0,0,8.49609375,-3.41796875,1,0,0,1,34,194,158,1,,response1disk_3,TRUE,7,7,"[170,262,144,247,157,279,98,97,16,187,296,259,94,111,294,247,62,144,195,143]",1.4,rectangle
,,,,,,,,,,,,,FF,,,,,,,,0.8014,,,,,,,,,,,,,,,,,,,,,,610174a8f8a591e240e77be0,61036d05ada89aa3a7128e62,2021-07-29_23h09.12.527,Simcolourproject_2stim_asymm_v5,2020.2.10,MacIntel,60,61025ae37ef11b136ea224fe,,,,,,,,,3468,-58.046875,96.875,1,0,0,response7disk,,0,-21.94921875,15.71875,1,0,0,rectangle,-21.94921875,15.71875,1,0,0,-21.94921875,15.71875,1,0,0,1,35,195,86,1,,,,,,,,
,,,,,,,,,,,,,FF,,,,,,,,0.9165,,,,,,,,,,,,,,,,,,,,,,610174a8f8a591e240e77be0,61036d05ada89aa3a7128e62,2021-07-29_23h09.12.527,Simcolourproject_2stim_asymm_v5,2020.2.10,MacIntel,60,61025ae37ef11b136ea224fe,,,,,,,,,318,50.7421875,-66.6484375,1,0,0,response3disk,,4,18.97265625,2.63671875,1,0,0,rectangle,18.97265625,2.63671875,1,0,0,18.97265625,2.63671875,1,0,0,1,36,196,91,1,,,,,,,,
,,,,,,,,,,,,,FF,,,,,,,,0.7346,,,,,,,,,,,,,,,,,,,,,,610174a8f8a591e240e77be0,61036d05ada89aa3a7128e62,2021-07-29_23h09.12.527,Simcolourproject_2stim_asymm_v5,2020.2.10,MacIntel,60,61025ae37ef11b136ea224fe,,,,,,,,,2313,-35.390625,-103.265625,1,0,0,response5disk,,3,-9.1171875,-1.3203125,1,0,0,rectangle,-9.1171875,-1.3203125,1,0,0,-9.1171875,-1.3203125,1,0,0,1,37,197,71,1,,,,,,,,
,,,,,,,,,,,,,FF,,,,,,,,0.7655,,,,,,,,,,,,,,,,,,,,,,610174a8f8a591e240e77be0,61036d05ada89aa3a7128e62,2021-07-29_23h09.12.527,Simcolourproject_2stim_asymm_v5,2020.2.10,MacIntel,60,61025ae37ef11b136ea224fe,,,,,,,,,1933,70.10546875,-60.1875,1,0,0,response3disk,,5,-1.48046875,-7.41796875,1,0,0,rectangle,-1.48046875,-7.41796875,1,0,0,-1.48046875,-7.41796875,1,0,0,1,38,198,8,1,,,,,,,,
,,,,,,,,,,,,,FF,,,,,,,,1.1507,,,,,,,,,,,,,,,,,,,,,,610174a8f8a591e240e77be0,61036d05ada89aa3a7128e62,2021-07-29_23h09.12.527,Simcolourproject_2stim_asymm_v5,2020.2.10,MacIntel,60,61025ae37ef11b136ea224fe,,,,,,,,,4230,91.27734375,-29.1875,1,0,0,response3disk,,5,-6.46484375,9.00390625,1,0,0,rectangle,-6.46484375,9.00390625,1,0,0,-6.46484375,9.00390625,1,0,0,1,39,199,63,1,,,,,,,,
,,,,,,,,,,,,,FF,,,,,,,,0.8152,,,,,,,,,,,,,,,,,,,,,,610174a8f8a591e240e77be0,61036d05ada89aa3a7128e62,2021-07-29_23h09.12.527,Simcolourproject_2stim_asymm_v5,2020.2.10,MacIntel,60,61025ae37ef11b136ea224fe,,,,,,,,,525,-92.18359375,-57.359375,1,0,0,response5disk,,2,-5.2734375,11.46875,1,0,0,rectangle,-5.2734375,11.46875,1,0,0,-5.2734375,11.46875,1,0,0,1,40,200,72,1,,,,,,,,
,,,,,,,,,,,,,FF,,,,,,,,1.2177,,,,,,,,,,,,,,,,,,,,,,610174a8f8a591e240e77be0,61036d05ada89aa3a7128e62,2021-07-29_23h09.12.527,Simcolourproject_2stim_asymm_v5,2020.2.10,MacIntel,60,61025ae37ef11b136ea224fe,,,,,,,,,3369,46.21875,-87.515625,1,0,0,response3disk,,4,12.3671875,-13.375,1,0,0,rectangle,12.3671875,-13.375,1,0,0,12.3671875,-13.375,1,0,0,1,41,201,95,1,,,,,,,,
,,,,,,,,,,,,,FF,,,,,,,,0.982,,,,,,,,,,,,,,,,,,,,,,610174a8f8a591e240e77be0,61036d05ada89aa3a7128e62,2021-07-29_23h09.12.527,Simcolourproject_2stim_asymm_v5,2020.2.10,MacIntel,60,61025ae37ef11b136ea224fe,,,,,,,,,3397,-84.4609375,50.94140625,1,0,0,response7disk,,1,-16.0390625,0.890625,1,0,0,rectangle,-16.0390625,0.890625,1,0,0,-16.0390625,0.890625,1,0,0,1,42,202,58,1,,,,,,,,
,,,,,,,,,,,,,FF,,,,,,,,0.5343,,,,,,,,,,,,,,,,,,,,,,610174a8f8a591e240e77be0,61036d05ada89aa3a7128e62,2021-07-29_23h09.12.527,Simcolourproject_2stim_asymm_v5,2020.2.10,MacIntel,60,61025ae37ef11b136ea224fe,,,,,,,,,1629,115.7734375,31.12109375,1,0,0,response1disk,,6,-16.32421875,-12.0078125,1,0,0,rectangle,-16.32421875,-12.0078125,1,0,0,-16.32421875,-12.0078125,1,0,0,1,43,203,38,1,,,,,,,,
,,,,,,,,,,,,,FF,,,,,,,,1.034,,,,,,,,,,,,,,,,,,,,,,610174a8f8a591e240e77be0,61036d05ada89aa3a7128e62,2021-07-29_23h09.12.527,Simcolourproject_2stim_asymm_v5,2020.2.10,MacIntel,60,61025ae37ef11b136ea224fe,,,,,,,,,3534,38.47265625,101.1132813,1,0,0,response1disk,,7,9.09375,11.78125,1,0,0,rectangle,9.09375,11.78125,1,0,0,9.09375,11.78125,1,0,0,1,44,204,131,1,,,,,,,,
,,,,,,,,,,,,,FF,,,,,,,,0.7837,,,,,,,,,,,,,,,,,,,,,,610174a8f8a591e240e77be0,61036d05ada89aa3a7128e62,2021-07-29_23h09.12.527,Simcolourproject_2stim_asymm_v5,2020.2.10,MacIntel,60,61025ae37ef11b136ea224fe,,,,,,,,,649,-69.95703125,-77.296875,1,0,0,response5disk,,3,-6.53515625,-9.2109375,1,0,0,rectangle,-6.53515625,-9.2109375,1,0,0,-6.53515625,-9.2109375,1,0,0,1,45,205,117,1,,,,,,,,
,,,,,,,,,,,,,FF,,,,,,,,1.2172,,,,,,,,,,,,,,,,,,,,,,610174a8f8a591e240e77be0,61036d05ada89aa3a7128e62,2021-07-29_23h09.12.527,Simcolourproject_2stim_asymm_v5,2020.2.10,MacIntel,60,61025ae37ef11b136ea224fe,,,,,,,,,1269,-34.1015625,-117.15625,1,0,0,response5disk,,3,-10.06640625,3.05859375,1,0,0,rectangle,-10.06640625,3.05859375,1,0,0,-10.06640625,3.05859375,1,0,0,1,46,206,46,1,,,,,,,,
,,,,,,,,,,,,,FF,,,,,,,,0.8167,,,,,,,,,,,,,,,,,,,,,,610174a8f8a591e240e77be0,61036d05ada89aa3a7128e62,2021-07-29_23h09.12.527,Simcolourproject_2stim_asymm_v5,2020.2.10,MacIntel,60,61025ae37ef11b136ea224fe,,,,,,,,,2628,107.40625,-68.32421875,1,0,0,response3disk,,5,22.01953125,-16,1,0,0,rectangle,22.01953125,-16,1,0,0,22.01953125,-16,1,0,0,1,47,207,78,1,,,,,,,,
,,,,,,,,,,,,,FF,,,,,,,,1.2823,,,,,,,,,,,,,,,,,,,,,,610174a8f8a591e240e77be0,61036d05ada89aa3a7128e62,2021-07-29_23h09.12.527,Simcolourproject_2stim_asymm_v5,2020.2.10,MacIntel,60,61025ae37ef11b136ea224fe,,,,,,,,,1131,-36.7265625,77.1171875,1,0,0,response7disk,,0,-11.796875,15.94140625,1,0,0,rectangle,-11.796875,15.94140625,1,0,0,-11.796875,15.94140625,1,0,0,1,48,208,97,1,,,,,,,,
,,,,,,,,,,,,,FF,,,,,,,,0.9669,,,,,,,,,,,,,,,,,,,,,,610174a8f8a591e240e77be0,61036d05ada89aa3a7128e62,2021-07-29_23h09.12.527,Simcolourproject_2stim_asymm_v5,2020.2.10,MacIntel,60,61025ae37ef11b136ea224fe,,,,,,,,,2920,99.765625,-63.71875,1,0,0,response3disk,,5,-7.984375,10.4765625,1,0,0,rectangle,-7.984375,10.4765625,1,0,0,-7.984375,10.4765625,1,0,0,1,49,209,114,1,,,,,,,,
,,,,,,,,,,,,,FF,,,,,,,,0.883,,,,,,,,,,,,,,,,,,,,,,610174a8f8a591e240e77be0,61036d05ada89aa3a7128e62,2021-07-29_23h09.12.527,Simcolourproject_2stim_asymm_v5,2020.2.10,MacIntel,60,61025ae37ef11b136ea224fe,,,,,,,,,3618,60.3046875,81.66015625,1,0,0,response1disk,,7,-0.3828125,-16.73046875,1,0,0,rectangle,-0.3828125,-16.73046875,1,0,0,-0.3828125,-16.73046875,1,0,0,1,50,210,45,1,,,,,,,,
,,,,,,,,,,,,,FF,,,,,,,,0.5328,,,,,,,,,,,,,,,,,,,,,,610174a8f8a591e240e77be0,61036d05ada89aa3a7128e62,2021-07-29_23h09.12.527,Simcolourproject_2stim_asymm_v5,2020.2.10,MacIntel,60,61025ae37ef11b136ea224fe,,,,,,,,,2458,50.42578125,96.296875,1,0,0,response1disk,,7,12.64453125,5.00390625,1,0,0,rectangle,12.64453125,5.00390625,1,0,0,12.64453125,5.00390625,1,0,0,1,51,211,22,1,,,,,,,,
,,,,,,,,,,,,,FF,,,,,,,,0.6672,,,,,,,,,,,,,,,,,,,,,,610174a8f8a591e240e77be0,61036d05ada89aa3a7128e62,2021-07-29_23h09.12.527,Simcolourproject_2stim_asymm_v5,2020.2.10,MacIntel,60,61025ae37ef11b136ea224fe,,,,,,,,,2715,-61.46484375,-36.9609375,1,0,0,response5disk,,2,-15.20703125,0.95703125,1,0,0,rectangle,-15.20703125,0.95703125,1,0,0,-15.20703125,0.95703125,1,0,0,1,52,212,68,1,,,,,,,,
,,,,,,,,,,,,,FF,,,,,,,,0.9668,,,,,,,,,,,,,,,,,,,,,,610174a8f8a591e240e77be0,61036d05ada89aa3a7128e62,2021-07-29_23h09.12.527,Simcolourproject_2stim_asymm_v5,2020.2.10,MacIntel,60,61025ae37ef11b136ea224fe,,,,,,,,,3515,-80.16796875,22.2421875,1,0,0,response7disk,,1,-13.984375,4.421875,1,0,0,rectangle,-13.984375,4.421875,1,0,0,-13.984375,4.421875,1,0,0,1,53,213,112,1,,,,,,,,
,,,,,,,,,,,,,FF,,,,,,,,0.8496,,,,,,,,,,,,,,,,,,,,,,610174a8f8a591e240e77be0,61036d05ada89aa3a7128e62,2021-07-29_23h09.12.527,Simcolourproject_2stim_asymm_v5,2020.2.10,MacIntel,60,61025ae37ef11b136ea224fe,,,,,,,,,4038,84.3203125,-50.60546875,1,0,0,response3disk,,5,-11.26171875,9.51953125,1,0,0,rectangle,-11.26171875,9.51953125,1,0,0,-11.26171875,9.51953125,1,0,0,1,54,214,108,1,,,,,,,,
,,,,,,,,,,,,,FF,,,,,,,,0.8497,,,,,,,,,,,,,,,,,,,,,,610174a8f8a591e240e77be0,61036d05ada89aa3a7128e62,2021-07-29_23h09.12.527,Simcolourproject_2stim_asymm_v5,2020.2.10,MacIntel,60,61025ae37ef11b136ea224fe,,,,,,,,,2932,-41.6875,-68.65625,1,0,0,response5disk,,3,1.66015625,5.28515625,1,0,0,rectangle,1.66015625,5.28515625,1,0,0,1.66015625,5.28515625,1,0,0,1,55,215,11,1,,,,,,,,
,,,,,,,,,,,,,FF,,,,,,,,0.5836,,,,,,,,,,,,,,,,,,,,,,610174a8f8a591e240e77be0,61036d05ada89aa3a7128e62,2021-07-29_23h09.12.527,Simcolourproject_2stim_asymm_v5,2020.2.10,MacIntel,60,61025ae37ef11b136ea224fe,,,,,,,,,671,34.6328125,64.4765625,1,0,0,response1disk,,7,3.3984375,-0.41796875,1,0,0,rectangle,3.3984375,-0.41796875,1,0,0,3.3984375,-0.41796875,1,0,0,1,56,216,115,1,,,,,,,,
,,,,,,,,,,,,,FF,,,,,,,,0.6163,,,,,,,,,,,,,,,,,,,,,,610174a8f8a591e240e77be0,61036d05ada89aa3a7128e62,2021-07-29_23h09.12.527,Simcolourproject_2stim_asymm_v5,2020.2.10,MacIntel,60,61025ae37ef11b136ea224fe,,,,,,,,,3314,36.13671875,84.046875,1,0,0,response1disk,,7,13.18359375,6.68359375,1,0,0,rectangle,13.18359375,6.68359375,1,0,0,13.18359375,6.68359375,1,0,0,1,57,217,50,1,,,,,,,,
,,,,,,,,,,,,,FF,,,,,,,,0.5816,,,,,,,,,,,,,,,,,,,,,,610174a8f8a591e240e77be0,61036d05ada89aa3a7128e62,2021-07-29_23h09.12.527,Simcolourproject_2stim_asymm_v5,2020.2.10,MacIntel,60,61025ae37ef11b136ea224fe,,,,,,,,,1707,32.4609375,61.9765625,1,0,0,response1disk,,7,14.62890625,-9.609375,1,0,0,rectangle,14.62890625,-9.609375,1,0,0,14.62890625,-9.609375,1,0,0,1,58,218,118,1,,,,,,,,
,,,,,,,,,,,,,FF,,,,,,,,1.0672,,,,,,,,,,,,,,,,,,,,,,610174a8f8a591e240e77be0,61036d05ada89aa3a7128e62,2021-07-29_23h09.12.527,Simcolourproject_2stim_asymm_v5,2020.2.10,MacIntel,60,61025ae37ef11b136ea224fe,,,,,,,,,1623,55.48828125,-99.8046875,1,0,0,response3disk,,4,7.73828125,11.51171875,1,0,0,rectangle,7.73828125,11.51171875,1,0,0,7.73828125,11.51171875,1,0,0,1,59,219,152,1,,,,,,,,
,,,,,,,,,,,,,FF,,,,,,,,0.6835,,,,,,,,,,,,,,,,,,,,,,610174a8f8a591e240e77be0,61036d05ada89aa3a7128e62,2021-07-29_23h09.12.527,Simcolourproject_2stim_asymm_v5,2020.2.10,MacIntel,60,61025ae37ef11b136ea224fe,,,,,,,,,1951,-29.265625,-84.19921875,1,0,0,response5disk,,3,-3.71875,3.01171875,1,0,0,rectangle,-3.71875,3.01171875,1,0,0,-3.71875,3.01171875,1,0,0,1,60,220,81,1,,,,,,,,
,,,,,,,,,,,,,FF,,,,,,,,0.9703,,,,,,,,,,,,,,,,,,,,,,610174a8f8a591e240e77be0,61036d05ada89aa3a7128e62,2021-07-29_23h09.12.527,Simcolourproject_2stim_asymm_v5,2020.2.10,MacIntel,60,61025ae37ef11b136ea224fe,,,,,,,,,998,-87.859375,-40.2421875,1,0,0,response5disk,,2,-9.5234375,-10.2421875,1,0,0,rectangle,-9.5234375,-10.2421875,1,0,0,-9.5234375,-10.2421875,1,0,0,1,61,221,128,1,,,,,,,,
,,,,,,,,,,,,,FF,,,,,,,,0.5998,,,,,,,,,,,,,,,,,,,,,,610174a8f8a591e240e77be0,61036d05ada89aa3a7128e62,2021-07-29_23h09.12.527,Simcolourproject_2stim_asymm_v5,2020.2.10,MacIntel,60,61025ae37ef11b136ea224fe,,,,,,,,,1486,55.55078125,58.3984375,1,0,0,response1disk,,7,13.6328125,6.0703125,1,0,0,rectangle,13.6328125,6.0703125,1,0,0,13.6328125,6.0703125,1,0,0,1,62,222,18,1,,,,,,,,
,,,,,,,,,,,,,FF,,,,,,,,1.0334,,,,,,,,,,,,,,,,,,,,,,610174a8f8a591e240e77be0,61036d05ada89aa3a7128e62,2021-07-29_23h09.12.527,Simcolourproject_2stim_asymm_v5,2020.2.10,MacIntel,60,61025ae37ef11b136ea224fe,,,,,,,,,570,74.25,-19.11328125,1,0,0,response3disk,,5,12.328125,2.4296875,1,0,0,rectangle,12.328125,2.4296875,1,0,0,12.328125,2.4296875,1,0,0,1,63,223,9,1,,,,,,,,
,,,,,,,,,,,,,FF,,,,,,,,0.799,,,,,,,,,,,,,,,,,,,,,,610174a8f8a591e240e77be0,61036d05ada89aa3a7128e62,2021-07-29_23h09.12.527,Simcolourproject_2stim_asymm_v5,2020.2.10,MacIntel,60,61025ae37ef11b136ea224fe,,,,,,,,,252,38.10546875,-73.14453125,1,0,0,response3disk,,4,9.8046875,4.36328125,1,0,0,rectangle,9.8046875,4.36328125,1,0,0,9.8046875,4.36328125,1,0,0,1,64,224,130,1,,,,,,,,
,,,,,,,,,,,,,FF,,,,,,,,0.6507,,,,,,,,,,,,,,,,,,,,,,610174a8f8a591e240e77be0,61036d05ada89aa3a7128e62,2021-07-29_23h09.12.527,Simcolourproject_2stim_asymm_v5,2020.2.10,MacIntel,60,61025ae37ef11b136ea224fe,,,,,,,,,2922,40.5625,81.27734375,1,0,0,response1disk,,7,12.578125,8.73046875,1,0,0,rectangle,12.578125,8.73046875,1,0,0,12.578125,8.73046875,1,0,0,1,65,225,88,1,,,,,,,,
,,,,,,,,,,,,,FF,,,,,,,,0.7487,,,,,,,,,,,,,,,,,,,,,,610174a8f8a591e240e77be0,61036d05ada89aa3a7128e62,2021-07-29_23h09.12.527,Simcolourproject_2stim_asymm_v5,2020.2.10,MacIntel,60,61025ae37ef11b136ea224fe,,,,,,,,,2532,26.5390625,78.125,1,0,0,response1disk,,7,10.828125,6.3046875,1,0,0,rectangle,10.828125,6.3046875,1,0,0,10.828125,6.3046875,1,0,0,1,66,226,147,1,,,,,,,,
,,,,,,,,,,,,,FF,,,,,,,,0.783,,,,,,,,,,,,,,,,,,,,,,610174a8f8a591e240e77be0,61036d05ada89aa3a7128e62,2021-07-29_23h09.12.527,Simcolourproject_2stim_asymm_v5,2020.2.10,MacIntel,60,61025ae37ef11b136ea224fe,,,,,,,,,4099,-45.4921875,-87.64453125,1,0,0,response5disk,,3,-12.12890625,13.7890625,1,0,0,rectangle,-12.12890625,13.7890625,1,0,0,-12.12890625,13.7890625,1,0,0,1,67,227,92,1,,,,,,,,
,,,,,,,,,,,,,FF,,,,,,,,0.8333,,,,,,,,,,,,,,,,,,,,,,610174a8f8a591e240e77be0,61036d05ada89aa3a7128e62,2021-07-29_23h09.12.527,Simcolourproject_2stim_asymm_v5,2020.2.10,MacIntel,60,61025ae37ef11b136ea224fe,,,,,,,,,1488,87.47265625,55.6015625,1,0,0,response1disk,,6,4.48046875,-5.62109375,1,0,0,rectangle,4.48046875,-5.62109375,1,0,0,4.48046875,-5.62109375,1,0,0,1,68,228,65,1,,,,,,,,
,,,,,,,,,,,,,FF,,,,,,,,0.8335,,,,,,,,,,,,,,,,,,,,,,610174a8f8a591e240e77be0,61036d05ada89aa3a7128e62,2021-07-29_23h09.12.527,Simcolourproject_2stim_asymm_v5,2020.2.10,MacIntel,60,61025ae37ef11b136ea224fe,,,,,,,,,837,67.20703125,-81.93359375,1,0,0,response3disk,,4,0.5,-3.00390625,1,0,0,rectangle,0.5,-3.00390625,1,0,0,0.5,-3.00390625,1,0,0,1,69,229,29,1,,,,,,,,
,,,,,,,,,,,,,FF,,,,,,,,0.7831,,,,,,,,,,,,,,,,,,,,,,610174a8f8a591e240e77be0,61036d05ada89aa3a7128e62,2021-07-29_23h09.12.527,Simcolourproject_2stim_asymm_v5,2020.2.10,MacIntel,60,61025ae37ef11b136ea224fe,,,,,,,,,3039,-78.21484375,-39.3046875,1,0,0,response5disk,,2,-1.203125,15.11328125,1,0,0,rectangle,-1.203125,15.11328125,1,0,0,-1.203125,15.11328125,1,0,0,1,70,230,136,1,,,,,,,,
,,,,,,,,,,,,,FF,,,,,,,,1.1505,,,,,,,,,,,,,,,,,,,,,,610174a8f8a591e240e77be0,61036d05ada89aa3a7128e62,2021-07-29_23h09.12.527,Simcolourproject_2stim_asymm_v5,2020.2.10,MacIntel,60,61025ae37ef11b136ea224fe,,,,,,,,,2227,-41.48828125,64.47265625,1,0,0,response7disk,,0,-9.40234375,-16.37890625,1,0,0,rectangle,-9.40234375,-16.37890625,1,0,0,-9.40234375,-16.37890625,1,0,0,1,71,231,85,1,,,,,,,,
,,,,,,,,,,,,,FF,,,,,,,,0.5831,,,,,,,,,,,,,,,,,,,,,,610174a8f8a591e240e77be0,61036d05ada89aa3a7128e62,2021-07-29_23h09.12.527,Simcolourproject_2stim_asymm_v5,2020.2.10,MacIntel,60,61025ae37ef11b136ea224fe,,,,,,,,,1946,99.01171875,-22.453125,1,0,0,response3disk,,5,14.33203125,-6.08984375,1,0,0,rectangle,14.33203125,-6.08984375,1,0,0,14.33203125,-6.08984375,1,0,0,1,72,232,21,1,,,,,,,,
,,,,,,,,,,,,,FF,,,,,,,,0.8206,,,,,,,,,,,,,,,,,,,,,,610174a8f8a591e240e77be0,61036d05ada89aa3a7128e62,2021-07-29_23h09.12.527,Simcolourproject_2stim_asymm_v5,2020.2.10,MacIntel,60,61025ae37ef11b136ea224fe,,,,,,,,,3845,-29.33984375,-112.7109375,1,0,0,response5disk,,3,-0.1484375,-6.4453125,1,0,0,rectangle,-0.1484375,-6.4453125,1,0,0,-0.1484375,-6.4453125,1,0,0,1,73,233,104,1,,,,,,,,
,,,,,,,,,,,,,FF,,,,,,,,0.9491,,,,,,,,,,,,,,,,,,,,,,610174a8f8a591e240e77be0,61036d05ada89aa3a7128e62,2021-07-29_23h09.12.527,Simcolourproject_2stim_asymm_v5,2020.2.10,MacIntel,60,61025ae37ef11b136ea224fe,,,,,,,,,349,-70.0703125,33.51171875,1,0,0,response7disk,,1,-22.04296875,-1.703125,1,0,0,rectangle,-22.04296875,-1.703125,1,0,0,-22.04296875,-1.703125,1,0,0,1,74,234,28,1,,,,,,,,
,,,,,,,,,,,,,FF,,,,,,,,0.7991,,,,,,,,,,,,,,,,,,,,,,610174a8f8a591e240e77be0,61036d05ada89aa3a7128e62,2021-07-29_23h09.12.527,Simcolourproject_2stim_asymm_v5,2020.2.10,MacIntel,60,61025ae37ef11b136ea224fe,,,,,,,,,2002,53.5390625,102.9570313,1,0,0,response1disk,,7,-12.1796875,9.2734375,1,0,0,rectangle,-12.1796875,9.2734375,1,0,0,-12.1796875,9.2734375,1,0,0,1,75,235,36,1,,,,,,,,
,,,,,,,,,,,,,FF,,,,,,,,0.6504,,,,,,,,,,,,,,,,,,,,,,610174a8f8a591e240e77be0,61036d05ada89aa3a7128e62,2021-07-29_23h09.12.527,Simcolourproject_2stim_asymm_v5,2020.2.10,MacIntel,60,61025ae37ef11b136ea224fe,,,,,,,,,3153,26.296875,69.921875,1,0,0,response1disk,,7,-14.69921875,3.32421875,1,0,0,rectangle,-14.69921875,3.32421875,1,0,0,-14.69921875,3.32421875,1,0,0,1,76,236,15,1,,,,,,,,
,,,,,,,,,,,,,FF,,,,,,,,0.6671,,,,,,,,,,,,,,,,,,,,,,610174a8f8a591e240e77be0,61036d05ada89aa3a7128e62,2021-07-29_23h09.12.527,Simcolourproject_2stim_asymm_v5,2020.2.10,MacIntel,60,61025ae37ef11b136ea224fe,,,,,,,,,136,114.265625,-57.1171875,1,0,0,response3disk,,5,5.2265625,-3.24609375,1,0,0,rectangle,5.2265625,-3.24609375,1,0,0,5.2265625,-3.24609375,1,0,0,1,77,237,33,1,,,,,,,,
,,,,,,,,,,,,,FF,,,,,,,,0.8499,,,,,,,,,,,,,,,,,,,,,,610174a8f8a591e240e77be0,61036d05ada89aa3a7128e62,2021-07-29_23h09.12.527,Simcolourproject_2stim_asymm_v5,2020.2.10,MacIntel,60,61025ae37ef11b136ea224fe,,,,,,,,,1261,83.6328125,56.55078125,1,0,0,response1disk,,6,2.12109375,3.7421875,1,0,0,rectangle,2.12109375,3.7421875,1,0,0,2.12109375,3.7421875,1,0,0,1,78,238,140,1,,,,,,,,
,,,,,,,,,,,,,FF,,,,,,,,0.7374,,,,,,,,,,,,,,,,,,,,,,610174a8f8a591e240e77be0,61036d05ada89aa3a7128e62,2021-07-29_23h09.12.527,Simcolourproject_2stim_asymm_v5,2020.2.10,MacIntel,60,61025ae37ef11b136ea224fe,,,,,,,,,3702,-28.15234375,-74.8515625,1,0,0,response5disk,,3,-6.01171875,-14.55859375,1,0,0,rectangle,-6.01171875,-14.55859375,1,0,0,-6.01171875,-14.55859375,1,0,0,1,79,239,14,1,,,,,,,,
,,,,,,,,,,,,,FF,,,,,,,,0.7673,,,,,,,,,,,,,,,,,,,,,,610174a8f8a591e240e77be0,61036d05ada89aa3a7128e62,2021-07-29_23h09.12.527,Simcolourproject_2stim_asymm_v5,2020.2.10,MacIntel,60,61025ae37ef11b136ea224fe,,,,,,,,,3901,-37.7421875,-75.4921875,1,0,0,response5disk,,3,-7.2890625,-5.2109375,1,0,0,rectangle,-7.2890625,-5.2109375,1,0,0,-7.2890625,-5.2109375,1,0,0,1,80,240,142,1,,,,,,,,
,,,,,,,,,,,,,FF,,,,,,,,1.1,,,,,,,,,,,,,,,,,,,,,,610174a8f8a591e240e77be0,61036d05ada89aa3a7128e62,2021-07-29_23h09.12.527,Simcolourproject_2stim_asymm_v5,2020.2.10,MacIntel,60,61025ae37ef11b136ea224fe,,,,,,,,,1041,57.7265625,-37.53125,1,0,0,response3disk,,5,10.4375,-8.6796875,1,0,0,rectangle,10.4375,-8.6796875,1,0,0,10.4375,-8.6796875,1,0,0,1,81,241,107,1,,,,,,,,
,,,,,,,,,,,,,FF,,,,,,,,0.7006,,,,,,,,,,,,,,,,,,,,,,610174a8f8a591e240e77be0,61036d05ada89aa3a7128e62,2021-07-29_23h09.12.527,Simcolourproject_2stim_asymm_v5,2020.2.10,MacIntel,60,61025ae37ef11b136ea224fe,,,,,,,,,3432,-121.7226563,82.40234375,1,0,0,response7disk,,1,-9.17578125,-11.35546875,1,0,0,rectangle,-9.17578125,-11.35546875,1,0,0,-9.17578125,-11.35546875,1,0,0,1,82,242,48,1,,,,,,,,
,,,,,,,,,,,,,FF,,,,,,,,0.6834,,,,,,,,,,,,,,,,,,,,,,610174a8f8a591e240e77be0,61036d05ada89aa3a7128e62,2021-07-29_23h09.12.527,Simcolourproject_2stim_asymm_v5,2020.2.10,MacIntel,60,61025ae37ef11b136ea224fe,,,,,,,,,11,27.83984375,-39.26171875,1,0,0,response3disk,,4,7.1640625,-9.328125,1,0,0,rectangle,7.1640625,-9.328125,1,0,0,7.1640625,-9.328125,1,0,0,1,83,243,89,1,,,,,,,,
,,,,,,,,,,,,,FF,,,,,,,,0.7674,,,,,,,,,,,,,,,,,,,,,,610174a8f8a591e240e77be0,61036d05ada89aa3a7128e62,2021-07-29_23h09.12.527,Simcolourproject_2stim_asymm_v5,2020.2.10,MacIntel,60,61025ae37ef11b136ea224fe,,,,,,,,,861,73.06640625,-45.19140625,1,0,0,response3disk,,5,-6.6015625,13.84375,1,0,0,rectangle,-6.6015625,13.84375,1,0,0,-6.6015625,13.84375,1,0,0,1,84,244,109,1,,,,,,,,
,,,,,,,,,,,,,FF,,,,,,,,0.5999,,,,,,,,,,,,,,,,,,,,,,610174a8f8a591e240e77be0,61036d05ada89aa3a7128e62,2021-07-29_23h09.12.527,Simcolourproject_2stim_asymm_v5,2020.2.10,MacIntel,60,61025ae37ef11b136ea224fe,,,,,,,,,2124,20.5859375,80.74609375,1,0,0,response1disk,,7,-1.2734375,-10.15625,1,0,0,rectangle,-1.2734375,-10.15625,1,0,0,-1.2734375,-10.15625,1,0,0,1,85,245,61,1,,,,,,,,
,,,,,,,,,,,,,FF,,,,,,,,0.7996,,,,,,,,,,,,,,,,,,,,,,610174a8f8a591e240e77be0,61036d05ada89aa3a7128e62,2021-07-29_23h09.12.527,Simcolourproject_2stim_asymm_v5,2020.2.10,MacIntel,60,61025ae37ef11b136ea224fe,,,,,,,,,1543,57.00390625,-24.18359375,1,0,0,response3disk,,5,14.296875,8.37109375,1,0,0,rectangle,-33.84765625,-104.1835938,1,0,0,-8.375,2.6171875,1,0,0,1,86,246,155,1,,response5disk_3,TRUE,3,3,"[170,262,144,247,157,279,98,97,16,187,296,259,94,111,294,247,62,144,195,143]",1.484,rectangle
,,,,,,,,,,,,,FF,,,,,,,,0.8009,,,,,,,,,,,,,,,,,,,,,,610174a8f8a591e240e77be0,61036d05ada89aa3a7128e62,2021-07-29_23h09.12.527,Simcolourproject_2stim_asymm_v5,2020.2.10,MacIntel,60,61025ae37ef11b136ea224fe,,,,,,,,,3886,74.640625,-56.8671875,1,0,0,response3disk,,5,14.37890625,9.74609375,1,0,0,rectangle,14.37890625,9.74609375,1,0,0,14.37890625,9.74609375,1,0,0,1,87,247,64,1,,,,,,,,
,,,,,,,,,,,,,FF,,,,,,,,0.6992,,,,,,,,,,,,,,,,,,,,,,610174a8f8a591e240e77be0,61036d05ada89aa3a7128e62,2021-07-29_23h09.12.527,Simcolourproject_2stim_asymm_v5,2020.2.10,MacIntel,60,61025ae37ef11b136ea224fe,,,,,,,,,3168,63.16796875,-108.3789063,1,0,0,response3disk,,4,19.8671875,-13.9921875,1,0,0,rectangle,19.8671875,-13.9921875,1,0,0,19.8671875,-13.9921875,1,0,0,1,88,248,10,1,,,,,,,,
