key_resp.keys,key_resp.rt,key_resp_14.keys,key_resp_14.rt,key_resp_15.keys,key_resp_15.rt,key_resp_17.keys,key_resp_17.rt,key_resp_9.keys,key_resp_9.rt,key_resp_10.keys,key_resp_10.rt,practice_comparison,Ecc,mouse_5.x,mouse_5.y,mouse_5.leftButton,mouse_5.midButton,mouse_5.rightButton,mouse_5.clicked_name,pracsimilarity,response_time,mouse_10.x,mouse_10.y,mouse_10.leftButton,mouse_10.midButton,mouse_10.rightButton,mouse_10.clicked_name,mouse_7.x,mouse_7.y,mouse_7.leftButton,mouse_7.midButton,mouse_7.rightButton,mouse_6.x,mouse_6.y,mouse_6.leftButton,mouse_6.midButton,mouse_6.rightButton,duringprac.thisRepN,duringprac.thisTrialN,duringprac.thisN,duringprac.thisIndex,duringprac.ran,participant,session,date,expName,psychopyVersion,OS,frameRate,study_id,mouse_7.clicked_name,catchpracsimilarity,catch_response_time,catchnumberprac,catchtrialorderprac,mouse_6.clicked_name,key_resp_22.keys,key_resp_22.rt,realcomparison,mouse.x,mouse.y,mouse.leftButton,mouse.midButton,mouse.rightButton,mouse.clicked_name,Colour2,similarity,mouse_2.x,mouse_2.y,mouse_2.leftButton,mouse_2.midButton,mouse_2.rightButton,mouse_2.clicked_name,mouse_3.x,mouse_3.y,mouse_3.leftButton,mouse_3.midButton,mouse_3.rightButton,mouse_11.x,mouse_11.y,mouse_11.leftButton,mouse_11.midButton,mouse_11.rightButton,trials_2.thisRepN,trials_2.thisTrialN,trials_2.thisN,trials_2.thisIndex,trials_2.ran,Colour1,mouse_3.clicked_name,catchornah,catchsimilarity,catchnumber,catchtrialorder,catchRT,mouse_11.clicked_name
space,31.61,space,2.852,space,4.516,space,4.728,space,1.075,space,4.347,84,FF,-51,96,1,0,0,response7disk_5,0,23.061,-7,-2,1,0,0,rectangle_8,-7,-2,1,0,0,-7,-2,1,0,0,0,0,0,5,1,6101fa06a9c401859f5a40e4,61036bb2bb1416c61fa9c1d0,2021-07-29_20h02.41.128,Simcolourproject_2stim_asymm_v5,2020.2.10,MacIntel,60,61025ae37ef11b136ea224fe,,,,,,,,,,,,,,,,,,,,,,,,,,,,,,,,,,,,,,,,,,,,,,
,,,,,,,,,,,,89,FF,73,-43,1,0,0,response3disk_5,5,8.715,-12,-1,1,0,0,rectangle_8,46,-92,1,0,0,-7,-5,1,0,0,0,1,1,3,1,6101fa06a9c401859f5a40e4,61036bb2bb1416c61fa9c1d0,2021-07-29_20h02.41.128,Simcolourproject_2stim_asymm_v5,2020.2.10,MacIntel,60,61025ae37ef11b136ea224fe,response3disk_7,4,2.999,4,"[2,5]",rectangle_4,,,,,,,,,,,,,,,,,,,,,,,,,,,,,,,,,,,,,,,,
,,,,,,,,,,,,29,FF,89,-34,1,0,0,response3disk_5,5,3.587,12,-5,1,0,0,rectangle_8,12,-5,1,0,0,12,-5,1,0,0,0,2,2,0,1,6101fa06a9c401859f5a40e4,61036bb2bb1416c61fa9c1d0,2021-07-29_20h02.41.128,Simcolourproject_2stim_asymm_v5,2020.2.10,MacIntel,60,61025ae37ef11b136ea224fe,,,,,,,,,,,,,,,,,,,,,,,,,,,,,,,,,,,,,,,,,,,,,,
,,,,,,,,,,,,86,PF,53,73,1,0,0,response1disk_5,7,2.524,-1,-7,1,0,0,rectangle_8,-1,-7,1,0,0,-1,-7,1,0,0,0,3,3,4,1,6101fa06a9c401859f5a40e4,61036bb2bb1416c61fa9c1d0,2021-07-29_20h02.41.128,Simcolourproject_2stim_asymm_v5,2020.2.10,MacIntel,60,61025ae37ef11b136ea224fe,,,,,,,,,,,,,,,,,,,,,,,,,,,,,,,,,,,,,,,,,,,,,,
,,,,,,,,,,,,89,PF,71,-39,1,0,0,response3disk_5,5,2.081,-15,1,1,0,0,rectangle_8,56,-83,1,0,0,1,-3,1,0,0,0,4,4,6,1,6101fa06a9c401859f5a40e4,61036bb2bb1416c61fa9c1d0,2021-07-29_20h02.41.128,Simcolourproject_2stim_asymm_v5,2020.2.10,MacIntel,60,61025ae37ef11b136ea224fe,response3disk_7,4,2.441,4,"[2,5]",rectangle_4,,,,,,,,,,,,,,,,,,,,,,,,,,,,,,,,,,,,,,,,
,,,,,,,,,,,,11,PF,62,-86,1,0,0,response3disk_5,4,3.397,-18,3,1,0,0,rectangle_8,-18,3,1,0,0,-18,3,1,0,0,0,5,5,1,1,6101fa06a9c401859f5a40e4,61036bb2bb1416c61fa9c1d0,2021-07-29_20h02.41.128,Simcolourproject_2stim_asymm_v5,2020.2.10,MacIntel,60,61025ae37ef11b136ea224fe,,,,,,,,,,,,,,,,,,,,,,,,,,,,,,,,,,,,,,,,,,,,,,
,,,,,,,,,,,,102,PF,82,-47,1,0,0,response3disk_5,5,6.806,0,7,1,0,0,rectangle_8,0,7,1,0,0,0,7,1,0,0,0,6,6,2,1,6101fa06a9c401859f5a40e4,61036bb2bb1416c61fa9c1d0,2021-07-29_20h02.41.128,Simcolourproject_2stim_asymm_v5,2020.2.10,MacIntel,60,61025ae37ef11b136ea224fe,,,,,,,,,,,,,,,,,,,,,,,,,,,,,,,,,,,,,,,,,,,,,,
,,,,,,,,,,,,,FF,,,,,,,,7.471,,,,,,,,,,,,,,,,,,,,,,6101fa06a9c401859f5a40e4,61036bb2bb1416c61fa9c1d0,2021-07-29_20h02.41.128,Simcolourproject_2stim_asymm_v5,2020.2.10,MacIntel,60,61025ae37ef11b136ea224fe,,,,,,,space,3.231,199,49,-101,1,0,0,response3disk,,4,-13,0,1,0,0,rectangle,-13,0,1,0,0,-13,0,1,0,0,0,0,0,137,1,,,,,,,,
,,,,,,,,,,,,,FF,,,,,,,,2.267,,,,,,,,,,,,,,,,,,,,,,6101fa06a9c401859f5a40e4,61036bb2bb1416c61fa9c1d0,2021-07-29_20h02.41.128,Simcolourproject_2stim_asymm_v5,2020.2.10,MacIntel,60,61025ae37ef11b136ea224fe,,,,,,,,,1075,71,49,1,0,0,response1disk,,6,22,1,1,0,0,rectangle,22,1,1,0,0,22,1,1,0,0,0,1,1,75,1,,,,,,,,
,,,,,,,,,,,,,FF,,,,,,,,2.92,,,,,,,,,,,,,,,,,,,,,,6101fa06a9c401859f5a40e4,61036bb2bb1416c61fa9c1d0,2021-07-29_20h02.41.128,Simcolourproject_2stim_asymm_v5,2020.2.10,MacIntel,60,61025ae37ef11b136ea224fe,,,,,,,,,414,29,102,1,0,0,response1disk,,7,12,-8,1,0,0,rectangle,62,-100,1,0,0,-25,-1,1,0,0,0,2,2,147,1,,response3disk_3,TRUE,4,4,"[220,282,3,176,145,59,61,14,107,204,143,291,182,138,306,0,106,9,37,48]",1.917,rectangle
,,,,,,,,,,,,,FF,,,,,,,,1.112,,,,,,,,,,,,,,,,,,,,,,6101fa06a9c401859f5a40e4,61036bb2bb1416c61fa9c1d0,2021-07-29_20h02.41.128,Simcolourproject_2stim_asymm_v5,2020.2.10,MacIntel,60,61025ae37ef11b136ea224fe,,,,,,,,,3730,44,89,1,0,0,response1disk,,7,11,0,1,0,0,rectangle,11,0,1,0,0,11,0,1,0,0,0,3,3,36,1,,,,,,,,
,,,,,,,,,,,,,FF,,,,,,,,1.251,,,,,,,,,,,,,,,,,,,,,,6101fa06a9c401859f5a40e4,61036bb2bb1416c61fa9c1d0,2021-07-29_20h02.41.128,Simcolourproject_2stim_asymm_v5,2020.2.10,MacIntel,60,61025ae37ef11b136ea224fe,,,,,,,,,2142,24,82,1,0,0,response1disk,,7,7,-3,1,0,0,rectangle,7,-3,1,0,0,7,-3,1,0,0,0,4,4,131,1,,,,,,,,
,,,,,,,,,,,,,FF,,,,,,,,1.013,,,,,,,,,,,,,,,,,,,,,,6101fa06a9c401859f5a40e4,61036bb2bb1416c61fa9c1d0,2021-07-29_20h02.41.128,Simcolourproject_2stim_asymm_v5,2020.2.10,MacIntel,60,61025ae37ef11b136ea224fe,,,,,,,,,3636,33,-86,1,0,0,response3disk,,4,9,5,1,0,0,rectangle,9,5,1,0,0,9,5,1,0,0,0,5,5,139,1,,,,,,,,
,,,,,,,,,,,,,FF,,,,,,,,1.327,,,,,,,,,,,,,,,,,,,,,,6101fa06a9c401859f5a40e4,61036bb2bb1416c61fa9c1d0,2021-07-29_20h02.41.128,Simcolourproject_2stim_asymm_v5,2020.2.10,MacIntel,60,61025ae37ef11b136ea224fe,,,,,,,,,3021,61,43,1,0,0,response1disk,,6,0,-5,1,0,0,rectangle,0,-5,1,0,0,0,-5,1,0,0,0,6,6,19,1,,,,,,,,
,,,,,,,,,,,,,FF,,,,,,,,0.916,,,,,,,,,,,,,,,,,,,,,,6101fa06a9c401859f5a40e4,61036bb2bb1416c61fa9c1d0,2021-07-29_20h02.41.128,Simcolourproject_2stim_asymm_v5,2020.2.10,MacIntel,60,61025ae37ef11b136ea224fe,,,,,,,,,3335,45,91,1,0,0,response1disk,,7,17,-2,1,0,0,rectangle,17,-2,1,0,0,17,-2,1,0,0,0,7,7,62,1,,,,,,,,
,,,,,,,,,,,,,FF,,,,,,,,2.126,,,,,,,,,,,,,,,,,,,,,,6101fa06a9c401859f5a40e4,61036bb2bb1416c61fa9c1d0,2021-07-29_20h02.41.128,Simcolourproject_2stim_asymm_v5,2020.2.10,MacIntel,60,61025ae37ef11b136ea224fe,,,,,,,,,1481,82,33,1,0,0,response1disk,,6,17,-3,1,0,0,rectangle,-42,-82,1,0,0,-6,-4,1,0,0,0,8,8,104,1,,response5disk_3,TRUE,3,3,"[220,282,3,176,145,59,61,14,107,204,143,291,182,138,306,0,106,9,37,48]",2.267,rectangle
,,,,,,,,,,,,,FF,,,,,,,,4.108,,,,,,,,,,,,,,,,,,,,,,6101fa06a9c401859f5a40e4,61036bb2bb1416c61fa9c1d0,2021-07-29_20h02.41.128,Simcolourproject_2stim_asymm_v5,2020.2.10,MacIntel,60,61025ae37ef11b136ea224fe,,,,,,,,,3237,-60,-74,1,0,0,response5disk,,3,-11,17,1,0,0,rectangle,-11,17,1,0,0,-11,17,1,0,0,0,9,9,140,1,,,,,,,,
,,,,,,,,,,,,,FF,,,,,,,,1.082,,,,,,,,,,,,,,,,,,,,,,6101fa06a9c401859f5a40e4,61036bb2bb1416c61fa9c1d0,2021-07-29_20h02.41.128,Simcolourproject_2stim_asymm_v5,2020.2.10,MacIntel,60,61025ae37ef11b136ea224fe,,,,,,,,,2896,30,-53,1,0,0,response3disk,,4,-8,11,1,0,0,rectangle,-8,11,1,0,0,-8,11,1,0,0,0,10,10,129,1,,,,,,,,
,,,,,,,,,,,,,FF,,,,,,,,1.017,,,,,,,,,,,,,,,,,,,,,,6101fa06a9c401859f5a40e4,61036bb2bb1416c61fa9c1d0,2021-07-29_20h02.41.128,Simcolourproject_2stim_asymm_v5,2020.2.10,MacIntel,60,61025ae37ef11b136ea224fe,,,,,,,,,3594,38,-74,1,0,0,response3disk,,4,3,-8,1,0,0,rectangle,3,-8,1,0,0,3,-8,1,0,0,0,11,11,120,1,,,,,,,,
,,,,,,,,,,,,,FF,,,,,,,,1.633,,,,,,,,,,,,,,,,,,,,,,6101fa06a9c401859f5a40e4,61036bb2bb1416c61fa9c1d0,2021-07-29_20h02.41.128,Simcolourproject_2stim_asymm_v5,2020.2.10,MacIntel,60,61025ae37ef11b136ea224fe,,,,,,,,,1766,68,-34,1,0,0,response3disk,,5,14,-1,1,0,0,rectangle,14,-1,1,0,0,14,-1,1,0,0,0,12,12,121,1,,,,,,,,
,,,,,,,,,,,,,FF,,,,,,,,1.328,,,,,,,,,,,,,,,,,,,,,,6101fa06a9c401859f5a40e4,61036bb2bb1416c61fa9c1d0,2021-07-29_20h02.41.128,Simcolourproject_2stim_asymm_v5,2020.2.10,MacIntel,60,61025ae37ef11b136ea224fe,,,,,,,,,3219,44,24,1,0,0,response1disk,,6,-6,4,1,0,0,rectangle,79,44,1,0,0,15,4,1,0,0,0,13,13,133,1,,response1disk_3,TRUE,6,6,"[220,282,3,176,145,59,61,14,107,204,143,291,182,138,306,0,106,9,37,48]",2.001,rectangle
,,,,,,,,,,,,,FF,,,,,,,,1.751,,,,,,,,,,,,,,,,,,,,,,6101fa06a9c401859f5a40e4,61036bb2bb1416c61fa9c1d0,2021-07-29_20h02.41.128,Simcolourproject_2stim_asymm_v5,2020.2.10,MacIntel,60,61025ae37ef11b136ea224fe,,,,,,,,,496,83,41,1,0,0,response1disk,,6,-6,4,1,0,0,rectangle,-6,4,1,0,0,-6,4,1,0,0,0,14,14,16,1,,,,,,,,
,,,,,,,,,,,,,FF,,,,,,,,2.684,,,,,,,,,,,,,,,,,,,,,,6101fa06a9c401859f5a40e4,61036bb2bb1416c61fa9c1d0,2021-07-29_20h02.41.128,Simcolourproject_2stim_asymm_v5,2020.2.10,MacIntel,60,61025ae37ef11b136ea224fe,,,,,,,,,2098,-54,83,1,0,0,response7disk,,0,11,-14,1,0,0,rectangle,11,-14,1,0,0,11,-14,1,0,0,0,15,15,100,1,,,,,,,,
,,,,,,,,,,,,,FF,,,,,,,,1.633,,,,,,,,,,,,,,,,,,,,,,6101fa06a9c401859f5a40e4,61036bb2bb1416c61fa9c1d0,2021-07-29_20h02.41.128,Simcolourproject_2stim_asymm_v5,2020.2.10,MacIntel,60,61025ae37ef11b136ea224fe,,,,,,,,,1592,28,-62,1,0,0,response3disk,,4,0,9,1,0,0,rectangle,0,9,1,0,0,0,9,1,0,0,0,16,16,1,1,,,,,,,,
,,,,,,,,,,,,,FF,,,,,,,,1.5,,,,,,,,,,,,,,,,,,,,,,6101fa06a9c401859f5a40e4,61036bb2bb1416c61fa9c1d0,2021-07-29_20h02.41.128,Simcolourproject_2stim_asymm_v5,2020.2.10,MacIntel,60,61025ae37ef11b136ea224fe,,,,,,,,,4068,41,-64,1,0,0,response3disk,,4,23,-6,1,0,0,rectangle,23,-6,1,0,0,23,-6,1,0,0,0,17,17,15,1,,,,,,,,
,,,,,,,,,,,,,FF,,,,,,,,0.951,,,,,,,,,,,,,,,,,,,,,,6101fa06a9c401859f5a40e4,61036bb2bb1416c61fa9c1d0,2021-07-29_20h02.41.128,Simcolourproject_2stim_asymm_v5,2020.2.10,MacIntel,60,61025ae37ef11b136ea224fe,,,,,,,,,354,-49,87,1,0,0,response7disk,,0,-14,11,1,0,0,rectangle,-14,11,1,0,0,-14,11,1,0,0,0,18,18,127,1,,,,,,,,
,,,,,,,,,,,,,FF,,,,,,,,1.234,,,,,,,,,,,,,,,,,,,,,,6101fa06a9c401859f5a40e4,61036bb2bb1416c61fa9c1d0,2021-07-29_20h02.41.128,Simcolourproject_2stim_asymm_v5,2020.2.10,MacIntel,60,61025ae37ef11b136ea224fe,,,,,,,,,1175,43,87,1,0,0,response1disk,,7,7,-2,1,0,0,rectangle,7,-2,1,0,0,7,-2,1,0,0,0,19,19,142,1,,,,,,,,
,,,,,,,,,,,,,FF,,,,,,,,2.051,,,,,,,,,,,,,,,,,,,,,,6101fa06a9c401859f5a40e4,61036bb2bb1416c61fa9c1d0,2021-07-29_20h02.41.128,Simcolourproject_2stim_asymm_v5,2020.2.10,MacIntel,60,61025ae37ef11b136ea224fe,,,,,,,,,3808,-52,-74,1,0,0,response5disk,,3,4,-7,1,0,0,rectangle,4,-7,1,0,0,4,-7,1,0,0,0,20,20,77,1,,,,,,,,
,,,,,,,,,,,,,FF,,,,,,,,1.434,,,,,,,,,,,,,,,,,,,,,,6101fa06a9c401859f5a40e4,61036bb2bb1416c61fa9c1d0,2021-07-29_20h02.41.128,Simcolourproject_2stim_asymm_v5,2020.2.10,MacIntel,60,61025ae37ef11b136ea224fe,,,,,,,,,178,34,-59,1,0,0,response3disk,,4,15,-8,1,0,0,rectangle,15,-8,1,0,0,15,-8,1,0,0,0,21,21,60,1,,,,,,,,
,,,,,,,,,,,,,FF,,,,,,,,1.283,,,,,,,,,,,,,,,,,,,,,,6101fa06a9c401859f5a40e4,61036bb2bb1416c61fa9c1d0,2021-07-29_20h02.41.128,Simcolourproject_2stim_asymm_v5,2020.2.10,MacIntel,60,61025ae37ef11b136ea224fe,,,,,,,,,321,57,42,1,0,0,response1disk,,6,4,-2,1,0,0,rectangle,4,-2,1,0,0,4,-2,1,0,0,0,22,22,116,1,,,,,,,,
,,,,,,,,,,,,,FF,,,,,,,,1.05,,,,,,,,,,,,,,,,,,,,,,6101fa06a9c401859f5a40e4,61036bb2bb1416c61fa9c1d0,2021-07-29_20h02.41.128,Simcolourproject_2stim_asymm_v5,2020.2.10,MacIntel,60,61025ae37ef11b136ea224fe,,,,,,,,,2059,27,-61,1,0,0,response3disk,,4,-6,14,1,0,0,rectangle,-6,14,1,0,0,-6,14,1,0,0,0,23,23,99,1,,,,,,,,
,,,,,,,,,,,,,FF,,,,,,,,1.584,,,,,,,,,,,,,,,,,,,,,,6101fa06a9c401859f5a40e4,61036bb2bb1416c61fa9c1d0,2021-07-29_20h02.41.128,Simcolourproject_2stim_asymm_v5,2020.2.10,MacIntel,60,61025ae37ef11b136ea224fe,,,,,,,,,4359,-87,35,1,0,0,response7disk,,1,3,7,1,0,0,rectangle,3,7,1,0,0,3,7,1,0,0,0,24,24,68,1,,,,,,,,
,,,,,,,,,,,,,FF,,,,,,,,1.399,,,,,,,,,,,,,,,,,,,,,,6101fa06a9c401859f5a40e4,61036bb2bb1416c61fa9c1d0,2021-07-29_20h02.41.128,Simcolourproject_2stim_asymm_v5,2020.2.10,MacIntel,60,61025ae37ef11b136ea224fe,,,,,,,,,4221,-68,-39,1,0,0,response5disk,,2,-14,15,1,0,0,rectangle,-14,15,1,0,0,-14,15,1,0,0,0,25,25,112,1,,,,,,,,
,,,,,,,,,,,,,FF,,,,,,,,1.202,,,,,,,,,,,,,,,,,,,,,,6101fa06a9c401859f5a40e4,61036bb2bb1416c61fa9c1d0,2021-07-29_20h02.41.128,Simcolourproject_2stim_asymm_v5,2020.2.10,MacIntel,60,61025ae37ef11b136ea224fe,,,,,,,,,1354,-39,-67,1,0,0,response5disk,,3,8,4,1,0,0,rectangle,8,4,1,0,0,8,4,1,0,0,0,26,26,90,1,,,,,,,,
,,,,,,,,,,,,,FF,,,,,,,,1.136,,,,,,,,,,,,,,,,,,,,,,6101fa06a9c401859f5a40e4,61036bb2bb1416c61fa9c1d0,2021-07-29_20h02.41.128,Simcolourproject_2stim_asymm_v5,2020.2.10,MacIntel,60,61025ae37ef11b136ea224fe,,,,,,,,,3623,-72,48,1,0,0,response7disk,,1,-1,3,1,0,0,rectangle,-1,3,1,0,0,-1,3,1,0,0,0,27,27,141,1,,,,,,,,
,,,,,,,,,,,,,FF,,,,,,,,1.15,,,,,,,,,,,,,,,,,,,,,,6101fa06a9c401859f5a40e4,61036bb2bb1416c61fa9c1d0,2021-07-29_20h02.41.128,Simcolourproject_2stim_asymm_v5,2020.2.10,MacIntel,60,61025ae37ef11b136ea224fe,,,,,,,,,2219,87,-34,1,0,0,response3disk,,5,5,-7,1,0,0,rectangle,5,-7,1,0,0,5,-7,1,0,0,0,28,28,24,1,,,,,,,,
,,,,,,,,,,,,,FF,,,,,,,,1.167,,,,,,,,,,,,,,,,,,,,,,6101fa06a9c401859f5a40e4,61036bb2bb1416c61fa9c1d0,2021-07-29_20h02.41.128,Simcolourproject_2stim_asymm_v5,2020.2.10,MacIntel,60,61025ae37ef11b136ea224fe,,,,,,,,,638,-86,58,1,0,0,response7disk,,1,-8,14,1,0,0,rectangle,-8,14,1,0,0,-8,14,1,0,0,0,29,29,134,1,,,,,,,,
,,,,,,,,,,,,,FF,,,,,,,,0.699,,,,,,,,,,,,,,,,,,,,,,6101fa06a9c401859f5a40e4,61036bb2bb1416c61fa9c1d0,2021-07-29_20h02.41.128,Simcolourproject_2stim_asymm_v5,2020.2.10,MacIntel,60,61025ae37ef11b136ea224fe,,,,,,,,,4161,-42,82,1,0,0,response7disk,,0,-13,9,1,0,0,rectangle,-13,9,1,0,0,-13,9,1,0,0,0,30,30,92,1,,,,,,,,
,,,,,,,,,,,,,FF,,,,,,,,2.217,,,,,,,,,,,,,,,,,,,,,,6101fa06a9c401859f5a40e4,61036bb2bb1416c61fa9c1d0,2021-07-29_20h02.41.128,Simcolourproject_2stim_asymm_v5,2020.2.10,MacIntel,60,61025ae37ef11b136ea224fe,,,,,,,,,1045,86,-27,1,0,0,response3disk,,5,11,-3,1,0,0,rectangle,11,-3,1,0,0,11,-3,1,0,0,0,31,31,64,1,,,,,,,,
,,,,,,,,,,,,,FF,,,,,,,,1.184,,,,,,,,,,,,,,,,,,,,,,6101fa06a9c401859f5a40e4,61036bb2bb1416c61fa9c1d0,2021-07-29_20h02.41.128,Simcolourproject_2stim_asymm_v5,2020.2.10,MacIntel,60,61025ae37ef11b136ea224fe,,,,,,,,,2334,31,-79,1,0,0,response3disk,,4,-10,5,1,0,0,rectangle,-10,5,1,0,0,-10,5,1,0,0,0,32,32,159,1,,,,,,,,
,,,,,,,,,,,,,FF,,,,,,,,1.084,,,,,,,,,,,,,,,,,,,,,,6101fa06a9c401859f5a40e4,61036bb2bb1416c61fa9c1d0,2021-07-29_20h02.41.128,Simcolourproject_2stim_asymm_v5,2020.2.10,MacIntel,60,61025ae37ef11b136ea224fe,,,,,,,,,3164,73,33,1,0,0,response1disk,,6,6,1,1,0,0,rectangle,6,1,1,0,0,6,1,1,0,0,0,33,33,110,1,,,,,,,,
,,,,,,,,,,,,,FF,,,,,,,,0.87,,,,,,,,,,,,,,,,,,,,,,6101fa06a9c401859f5a40e4,61036bb2bb1416c61fa9c1d0,2021-07-29_20h02.41.128,Simcolourproject_2stim_asymm_v5,2020.2.10,MacIntel,60,61025ae37ef11b136ea224fe,,,,,,,,,2280,45,76,1,0,0,response1disk,,7,14,4,1,0,0,rectangle,14,4,1,0,0,14,4,1,0,0,0,34,34,41,1,,,,,,,,
,,,,,,,,,,,,,FF,,,,,,,,1.405,,,,,,,,,,,,,,,,,,,,,,6101fa06a9c401859f5a40e4,61036bb2bb1416c61fa9c1d0,2021-07-29_20h02.41.128,Simcolourproject_2stim_asymm_v5,2020.2.10,MacIntel,60,61025ae37ef11b136ea224fe,,,,,,,,,22,42,-67,1,0,0,response3disk,,4,22,-7,1,0,0,rectangle,22,-7,1,0,0,22,-7,1,0,0,0,35,35,150,1,,,,,,,,
,,,,,,,,,,,,,FF,,,,,,,,1.084,,,,,,,,,,,,,,,,,,,,,,6101fa06a9c401859f5a40e4,61036bb2bb1416c61fa9c1d0,2021-07-29_20h02.41.128,Simcolourproject_2stim_asymm_v5,2020.2.10,MacIntel,60,61025ae37ef11b136ea224fe,,,,,,,,,2454,65,-43,1,0,0,response3disk,,5,20,-5,1,0,0,rectangle,41,-79,1,0,0,-1,-5,1,0,0,0,36,36,73,1,,response3disk_3,TRUE,4,4,"[220,282,3,176,145,59,61,14,107,204,143,291,182,138,306,0,106,9,37,48]",1.387,rectangle
,,,,,,,,,,,,,FF,,,,,,,,1.633,,,,,,,,,,,,,,,,,,,,,,6101fa06a9c401859f5a40e4,61036bb2bb1416c61fa9c1d0,2021-07-29_20h02.41.128,Simcolourproject_2stim_asymm_v5,2020.2.10,MacIntel,60,61025ae37ef11b136ea224fe,,,,,,,,,4051,-82,-36,1,0,0,response5disk,,2,-21,-1,1,0,0,rectangle,-21,-1,1,0,0,-21,-1,1,0,0,0,37,37,123,1,,,,,,,,
,,,,,,,,,,,,,FF,,,,,,,,2.084,,,,,,,,,,,,,,,,,,,,,,6101fa06a9c401859f5a40e4,61036bb2bb1416c61fa9c1d0,2021-07-29_20h02.41.128,Simcolourproject_2stim_asymm_v5,2020.2.10,MacIntel,60,61025ae37ef11b136ea224fe,,,,,,,,,2933,-85,-38,1,0,0,response5disk,,2,-16,1,1,0,0,rectangle,-16,1,1,0,0,-16,1,1,0,0,0,38,38,50,1,,,,,,,,
,,,,,,,,,,,,,FF,,,,,,,,1.037,,,,,,,,,,,,,,,,,,,,,,6101fa06a9c401859f5a40e4,61036bb2bb1416c61fa9c1d0,2021-07-29_20h02.41.128,Simcolourproject_2stim_asymm_v5,2020.2.10,MacIntel,60,61025ae37ef11b136ea224fe,,,,,,,,,217,80,-39,1,0,0,response3disk,,5,-6,-4,1,0,0,rectangle,-6,-4,1,0,0,-6,-4,1,0,0,0,39,39,8,1,,,,,,,,
,,,,,,,,,,,,,FF,,,,,,,,1.103,,,,,,,,,,,,,,,,,,,,,,6101fa06a9c401859f5a40e4,61036bb2bb1416c61fa9c1d0,2021-07-29_20h02.41.128,Simcolourproject_2stim_asymm_v5,2020.2.10,MacIntel,60,61025ae37ef11b136ea224fe,,,,,,,,,2464,93,-44,1,0,0,response3disk,,5,-15,6,1,0,0,rectangle,-15,6,1,0,0,-15,6,1,0,0,0,40,40,108,1,,,,,,,,
,,,,,,,,,,,,,FF,,,,,,,,1.834,,,,,,,,,,,,,,,,,,,,,,6101fa06a9c401859f5a40e4,61036bb2bb1416c61fa9c1d0,2021-07-29_20h02.41.128,Simcolourproject_2stim_asymm_v5,2020.2.10,MacIntel,60,61025ae37ef11b136ea224fe,,,,,,,,,4087,-57,-82,1,0,0,response5disk,,3,1,8,1,0,0,rectangle,1,8,1,0,0,1,8,1,0,0,0,41,41,144,1,,,,,,,,
,,,,,,,,,,,,,FF,,,,,,,,2.267,,,,,,,,,,,,,,,,,,,,,,6101fa06a9c401859f5a40e4,61036bb2bb1416c61fa9c1d0,2021-07-29_20h02.41.128,Simcolourproject_2stim_asymm_v5,2020.2.10,MacIntel,60,61025ae37ef11b136ea224fe,,,,,,,,,3975,71,-46,1,0,0,response3disk,,5,5,0,1,0,0,rectangle,5,0,1,0,0,5,0,1,0,0,0,42,42,43,1,,,,,,,,
,,,,,,,,,,,,,FF,,,,,,,,0.924,,,,,,,,,,,,,,,,,,,,,,6101fa06a9c401859f5a40e4,61036bb2bb1416c61fa9c1d0,2021-07-29_20h02.41.128,Simcolourproject_2stim_asymm_v5,2020.2.10,MacIntel,60,61025ae37ef11b136ea224fe,,,,,,,,,4012,34,78,1,0,0,response1disk,,7,18,-5,1,0,0,rectangle,18,-5,1,0,0,18,-5,1,0,0,0,43,43,11,1,,,,,,,,
,,,,,,,,,,,,,FF,,,,,,,,1.267,,,,,,,,,,,,,,,,,,,,,,6101fa06a9c401859f5a40e4,61036bb2bb1416c61fa9c1d0,2021-07-29_20h02.41.128,Simcolourproject_2stim_asymm_v5,2020.2.10,MacIntel,60,61025ae37ef11b136ea224fe,,,,,,,,,1646,31,-87,1,0,0,response3disk,,4,-5,-15,1,0,0,rectangle,-5,-15,1,0,0,-5,-15,1,0,0,0,44,44,149,1,,,,,,,,
,,,,,,,,,,,,,FF,,,,,,,,1.22,,,,,,,,,,,,,,,,,,,,,,6101fa06a9c401859f5a40e4,61036bb2bb1416c61fa9c1d0,2021-07-29_20h02.41.128,Simcolourproject_2stim_asymm_v5,2020.2.10,MacIntel,60,61025ae37ef11b136ea224fe,,,,,,,,,3854,-109,68,1,0,0,response7disk,,1,10,-12,1,0,0,rectangle,10,-12,1,0,0,10,-12,1,0,0,0,45,45,32,1,,,,,,,,
,,,,,,,,,,,,,FF,,,,,,,,1.049,,,,,,,,,,,,,,,,,,,,,,6101fa06a9c401859f5a40e4,61036bb2bb1416c61fa9c1d0,2021-07-29_20h02.41.128,Simcolourproject_2stim_asymm_v5,2020.2.10,MacIntel,60,61025ae37ef11b136ea224fe,,,,,,,,,759,54,30,1,0,0,response1disk,,6,20,0,1,0,0,rectangle,20,0,1,0,0,20,0,1,0,0,0,46,46,3,1,,,,,,,,
,,,,,,,,,,,,,FF,,,,,,,,1.016,,,,,,,,,,,,,,,,,,,,,,6101fa06a9c401859f5a40e4,61036bb2bb1416c61fa9c1d0,2021-07-29_20h02.41.128,Simcolourproject_2stim_asymm_v5,2020.2.10,MacIntel,60,61025ae37ef11b136ea224fe,,,,,,,,,95,-89,49,1,0,0,response7disk,,1,11,1,1,0,0,rectangle,87,-50,1,0,0,-12,-6,1,0,0,0,47,47,93,1,,response3disk_3,TRUE,5,5,"[220,282,3,176,145,59,61,14,107,204,143,291,182,138,306,0,106,9,37,48]",1.435,rectangle
,,,,,,,,,,,,,FF,,,,,,,,1.25,,,,,,,,,,,,,,,,,,,,,,6101fa06a9c401859f5a40e4,61036bb2bb1416c61fa9c1d0,2021-07-29_20h02.41.128,Simcolourproject_2stim_asymm_v5,2020.2.10,MacIntel,60,61025ae37ef11b136ea224fe,,,,,,,,,3829,-64,-65,1,0,0,response5disk,,3,-11,-3,1,0,0,rectangle,-11,-3,1,0,0,-11,-3,1,0,0,0,48,48,145,1,,,,,,,,
,,,,,,,,,,,,,FF,,,,,,,,1.333,,,,,,,,,,,,,,,,,,,,,,6101fa06a9c401859f5a40e4,61036bb2bb1416c61fa9c1d0,2021-07-29_20h02.41.128,Simcolourproject_2stim_asymm_v5,2020.2.10,MacIntel,60,61025ae37ef11b136ea224fe,,,,,,,,,3173,76,-41,1,0,0,response3disk,,5,-9,0,1,0,0,rectangle,-9,0,1,0,0,-9,0,1,0,0,0,49,49,153,1,,,,,,,,
,,,,,,,,,,,,,FF,,,,,,,,1.084,,,,,,,,,,,,,,,,,,,,,,6101fa06a9c401859f5a40e4,61036bb2bb1416c61fa9c1d0,2021-07-29_20h02.41.128,Simcolourproject_2stim_asymm_v5,2020.2.10,MacIntel,60,61025ae37ef11b136ea224fe,,,,,,,,,3932,-78,-39,1,0,0,response5disk,,2,-17,-2,1,0,0,rectangle,-17,-2,1,0,0,-17,-2,1,0,0,0,50,50,38,1,,,,,,,,
,,,,,,,,,,,,,FF,,,,,,,,1.651,,,,,,,,,,,,,,,,,,,,,,6101fa06a9c401859f5a40e4,61036bb2bb1416c61fa9c1d0,2021-07-29_20h02.41.128,Simcolourproject_2stim_asymm_v5,2020.2.10,MacIntel,60,61025ae37ef11b136ea224fe,,,,,,,,,994,69,36,1,0,0,response1disk,,6,14,-6,1,0,0,rectangle,14,-6,1,0,0,14,-6,1,0,0,0,51,51,71,1,,,,,,,,
,,,,,,,,,,,,,FF,,,,,,,,1.033,,,,,,,,,,,,,,,,,,,,,,6101fa06a9c401859f5a40e4,61036bb2bb1416c61fa9c1d0,2021-07-29_20h02.41.128,Simcolourproject_2stim_asymm_v5,2020.2.10,MacIntel,60,61025ae37ef11b136ea224fe,,,,,,,,,4194,-92,49,1,0,0,response7disk,,1,9,4,1,0,0,rectangle,9,4,1,0,0,9,4,1,0,0,0,52,52,158,1,,,,,,,,
,,,,,,,,,,,,,FF,,,,,,,,1.049,,,,,,,,,,,,,,,,,,,,,,6101fa06a9c401859f5a40e4,61036bb2bb1416c61fa9c1d0,2021-07-29_20h02.41.128,Simcolourproject_2stim_asymm_v5,2020.2.10,MacIntel,60,61025ae37ef11b136ea224fe,,,,,,,,,1923,-41,-72,1,0,0,response5disk,,3,-4,-12,1,0,0,rectangle,-4,-12,1,0,0,-4,-12,1,0,0,0,53,53,148,1,,,,,,,,
,,,,,,,,,,,,,FF,,,,,,,,0.935,,,,,,,,,,,,,,,,,,,,,,6101fa06a9c401859f5a40e4,61036bb2bb1416c61fa9c1d0,2021-07-29_20h02.41.128,Simcolourproject_2stim_asymm_v5,2020.2.10,MacIntel,60,61025ae37ef11b136ea224fe,,,,,,,,,235,44,-75,1,0,0,response3disk,,4,18,-14,1,0,0,rectangle,18,-14,1,0,0,18,-14,1,0,0,0,54,54,126,1,,,,,,,,
,,,,,,,,,,,,,FF,,,,,,,,1.566,,,,,,,,,,,,,,,,,,,,,,6101fa06a9c401859f5a40e4,61036bb2bb1416c61fa9c1d0,2021-07-29_20h02.41.128,Simcolourproject_2stim_asymm_v5,2020.2.10,MacIntel,60,61025ae37ef11b136ea224fe,,,,,,,,,1781,55,-39,1,0,0,response3disk,,5,18,-8,1,0,0,rectangle,18,-8,1,0,0,18,-8,1,0,0,0,55,55,61,1,,,,,,,,
,,,,,,,,,,,,,FF,,,,,,,,1.067,,,,,,,,,,,,,,,,,,,,,,6101fa06a9c401859f5a40e4,61036bb2bb1416c61fa9c1d0,2021-07-29_20h02.41.128,Simcolourproject_2stim_asymm_v5,2020.2.10,MacIntel,60,61025ae37ef11b136ea224fe,,,,,,,,,3824,-78,29,1,0,0,response7disk,,1,1,0,1,0,0,rectangle,1,0,1,0,0,1,0,1,0,0,0,56,56,29,1,,,,,,,,
,,,,,,,,,,,,,FF,,,,,,,,0.818,,,,,,,,,,,,,,,,,,,,,,6101fa06a9c401859f5a40e4,61036bb2bb1416c61fa9c1d0,2021-07-29_20h02.41.128,Simcolourproject_2stim_asymm_v5,2020.2.10,MacIntel,60,61025ae37ef11b136ea224fe,,,,,,,,,583,64,55,1,0,0,response1disk,,6,11,13,1,0,0,rectangle,11,13,1,0,0,11,13,1,0,0,0,57,57,105,1,,,,,,,,
,,,,,,,,,,,,,FF,,,,,,,,1.82,,,,,,,,,,,,,,,,,,,,,,6101fa06a9c401859f5a40e4,61036bb2bb1416c61fa9c1d0,2021-07-29_20h02.41.128,Simcolourproject_2stim_asymm_v5,2020.2.10,MacIntel,60,61025ae37ef11b136ea224fe,,,,,,,,,1845,87,-80,1,0,0,response3disk,,5,-2,2,1,0,0,rectangle,18,94,1,0,0,6,-1,1,0,0,0,58,58,37,1,,response1disk_3,TRUE,7,7,"[220,282,3,176,145,59,61,14,107,204,143,291,182,138,306,0,106,9,37,48]",1.695,rectangle
,,,,,,,,,,,,,FF,,,,,,,,0.899,,,,,,,,,,,,,,,,,,,,,,6101fa06a9c401859f5a40e4,61036bb2bb1416c61fa9c1d0,2021-07-29_20h02.41.128,Simcolourproject_2stim_asymm_v5,2020.2.10,MacIntel,60,61025ae37ef11b136ea224fe,,,,,,,,,2095,-84,33,1,0,0,response7disk,,1,-9,6,1,0,0,rectangle,-9,6,1,0,0,-9,6,1,0,0,0,59,59,84,1,,,,,,,,
,,,,,,,,,,,,,FF,,,,,,,,0.916,,,,,,,,,,,,,,,,,,,,,,6101fa06a9c401859f5a40e4,61036bb2bb1416c61fa9c1d0,2021-07-29_20h02.41.128,Simcolourproject_2stim_asymm_v5,2020.2.10,MacIntel,60,61025ae37ef11b136ea224fe,,,,,,,,,2868,-16,-84,1,0,0,response5disk,,3,-13,-2,1,0,0,rectangle,-100,65,1,0,0,7,-10,1,0,0,0,60,60,152,1,,response7disk_3,TRUE,1,1,"[220,282,3,176,145,59,61,14,107,204,143,291,182,138,306,0,106,9,37,48]",1.45,rectangle
,,,,,,,,,,,,,FF,,,,,,,,1.102,,,,,,,,,,,,,,,,,,,,,,6101fa06a9c401859f5a40e4,61036bb2bb1416c61fa9c1d0,2021-07-29_20h02.41.128,Simcolourproject_2stim_asymm_v5,2020.2.10,MacIntel,60,61025ae37ef11b136ea224fe,,,,,,,,,3933,-63,79,1,0,0,response7disk,,0,4,-7,1,0,0,rectangle,4,-7,1,0,0,4,-7,1,0,0,0,61,61,33,1,,,,,,,,
,,,,,,,,,,,,,FF,,,,,,,,1.033,,,,,,,,,,,,,,,,,,,,,,6101fa06a9c401859f5a40e4,61036bb2bb1416c61fa9c1d0,2021-07-29_20h02.41.128,Simcolourproject_2stim_asymm_v5,2020.2.10,MacIntel,60,61025ae37ef11b136ea224fe,,,,,,,,,3604,-47,-66,1,0,0,response5disk,,3,-2,0,1,0,0,rectangle,-2,0,1,0,0,-2,0,1,0,0,0,62,62,26,1,,,,,,,,
,,,,,,,,,,,,,FF,,,,,,,,1,,,,,,,,,,,,,,,,,,,,,,6101fa06a9c401859f5a40e4,61036bb2bb1416c61fa9c1d0,2021-07-29_20h02.41.128,Simcolourproject_2stim_asymm_v5,2020.2.10,MacIntel,60,61025ae37ef11b136ea224fe,,,,,,,,,1939,72,-23,1,0,0,response3disk,,5,23,-3,1,0,0,rectangle,23,-3,1,0,0,23,-3,1,0,0,0,63,63,47,1,,,,,,,,
,,,,,,,,,,,,,FF,,,,,,,,1.055,,,,,,,,,,,,,,,,,,,,,,6101fa06a9c401859f5a40e4,61036bb2bb1416c61fa9c1d0,2021-07-29_20h02.41.128,Simcolourproject_2stim_asymm_v5,2020.2.10,MacIntel,60,61025ae37ef11b136ea224fe,,,,,,,,,3357,19,88,1,0,0,response1disk,,7,12,0,1,0,0,rectangle,12,0,1,0,0,12,0,1,0,0,0,64,64,18,1,,,,,,,,
,,,,,,,,,,,,,FF,,,,,,,,0.959,,,,,,,,,,,,,,,,,,,,,,6101fa06a9c401859f5a40e4,61036bb2bb1416c61fa9c1d0,2021-07-29_20h02.41.128,Simcolourproject_2stim_asymm_v5,2020.2.10,MacIntel,60,61025ae37ef11b136ea224fe,,,,,,,,,2428,-95,60,1,0,0,response7disk,,1,-1,8,1,0,0,rectangle,-1,8,1,0,0,-1,8,1,0,0,0,65,65,57,1,,,,,,,,
,,,,,,,,,,,,,FF,,,,,,,,0.848,,,,,,,,,,,,,,,,,,,,,,6101fa06a9c401859f5a40e4,61036bb2bb1416c61fa9c1d0,2021-07-29_20h02.41.128,Simcolourproject_2stim_asymm_v5,2020.2.10,MacIntel,60,61025ae37ef11b136ea224fe,,,,,,,,,1989,71,-46,1,0,0,response3disk,,5,13,-11,1,0,0,rectangle,13,-11,1,0,0,13,-11,1,0,0,0,66,66,107,1,,,,,,,,
,,,,,,,,,,,,,FF,,,,,,,,1.018,,,,,,,,,,,,,,,,,,,,,,6101fa06a9c401859f5a40e4,61036bb2bb1416c61fa9c1d0,2021-07-29_20h02.41.128,Simcolourproject_2stim_asymm_v5,2020.2.10,MacIntel,60,61025ae37ef11b136ea224fe,,,,,,,,,676,39,-92,1,0,0,response3disk,,4,-7,-10,1,0,0,rectangle,-7,-10,1,0,0,-7,-10,1,0,0,0,67,67,48,1,,,,,,,,
,,,,,,,,,,,,,FF,,,,,,,,2.823,,,,,,,,,,,,,,,,,,,,,,6101fa06a9c401859f5a40e4,61036bb2bb1416c61fa9c1d0,2021-07-29_20h02.41.128,Simcolourproject_2stim_asymm_v5,2020.2.10,MacIntel,60,61025ae37ef11b136ea224fe,,,,,,,,,3085,90,47,1,0,0,response1disk,,6,11,1,1,0,0,rectangle,11,1,1,0,0,11,1,1,0,0,0,68,68,91,1,,,,,,,,
,,,,,,,,,,,,,FF,,,,,,,,2.503,,,,,,,,,,,,,,,,,,,,,,6101fa06a9c401859f5a40e4,61036bb2bb1416c61fa9c1d0,2021-07-29_20h02.41.128,Simcolourproject_2stim_asymm_v5,2020.2.10,MacIntel,60,61025ae37ef11b136ea224fe,,,,,,,,,973,72,49,1,0,0,response1disk,,6,1,8,1,0,0,rectangle,1,8,1,0,0,1,8,1,0,0,0,69,69,17,1,,,,,,,,
,,,,,,,,,,,,,FF,,,,,,,,0.848,,,,,,,,,,,,,,,,,,,,,,6101fa06a9c401859f5a40e4,61036bb2bb1416c61fa9c1d0,2021-07-29_20h02.41.128,Simcolourproject_2stim_asymm_v5,2020.2.10,MacIntel,60,61025ae37ef11b136ea224fe,,,,,,,,,1454,-93,67,1,0,0,response7disk,,1,-15,3,1,0,0,rectangle,-15,3,1,0,0,-15,3,1,0,0,0,70,70,155,1,,,,,,,,
,,,,,,,,,,,,,FF,,,,,,,,1.475,,,,,,,,,,,,,,,,,,,,,,6101fa06a9c401859f5a40e4,61036bb2bb1416c61fa9c1d0,2021-07-29_20h02.41.128,Simcolourproject_2stim_asymm_v5,2020.2.10,MacIntel,60,61025ae37ef11b136ea224fe,,,,,,,,,2730,-85,-41,1,0,0,response5disk,,2,-11,-14,1,0,0,rectangle,-11,-14,1,0,0,-11,-14,1,0,0,0,71,71,4,1,,,,,,,,
,,,,,,,,,,,,,FF,,,,,,,,0.904,,,,,,,,,,,,,,,,,,,,,,6101fa06a9c401859f5a40e4,61036bb2bb1416c61fa9c1d0,2021-07-29_20h02.41.128,Simcolourproject_2stim_asymm_v5,2020.2.10,MacIntel,60,61025ae37ef11b136ea224fe,,,,,,,,,1864,56,-22,1,0,0,response3disk,,5,23,0,1,0,0,rectangle,23,0,1,0,0,23,0,1,0,0,0,72,72,115,1,,,,,,,,
,,,,,,,,,,,,,FF,,,,,,,,3.18,,,,,,,,,,,,,,,,,,,,,,6101fa06a9c401859f5a40e4,61036bb2bb1416c61fa9c1d0,2021-07-29_20h02.41.128,Simcolourproject_2stim_asymm_v5,2020.2.10,MacIntel,60,61025ae37ef11b136ea224fe,,,,,,,,,631,32,-79,1,0,0,response3disk,,4,-9,8,1,0,0,rectangle,-9,8,1,0,0,-9,8,1,0,0,0,73,73,151,1,,,,,,,,
,,,,,,,,,,,,,FF,,,,,,,,0.788,,,,,,,,,,,,,,,,,,,,,,6101fa06a9c401859f5a40e4,61036bb2bb1416c61fa9c1d0,2021-07-29_20h02.41.128,Simcolourproject_2stim_asymm_v5,2020.2.10,MacIntel,60,61025ae37ef11b136ea224fe,,,,,,,,,1883,-103,38,1,0,0,response7disk,,1,-11,5,1,0,0,rectangle,-11,5,1,0,0,-11,5,1,0,0,0,74,74,76,1,,,,,,,,
,,,,,,,,,,,,,FF,,,,,,,,1.001,,,,,,,,,,,,,,,,,,,,,,6101fa06a9c401859f5a40e4,61036bb2bb1416c61fa9c1d0,2021-07-29_20h02.41.128,Simcolourproject_2stim_asymm_v5,2020.2.10,MacIntel,60,61025ae37ef11b136ea224fe,,,,,,,,,1892,-104,37,1,0,0,response7disk,,1,8,4,1,0,0,rectangle,8,4,1,0,0,8,4,1,0,0,0,75,75,58,1,,,,,,,,
,,,,,,,,,,,,,FF,,,,,,,,1.299,,,,,,,,,,,,,,,,,,,,,,6101fa06a9c401859f5a40e4,61036bb2bb1416c61fa9c1d0,2021-07-29_20h02.41.128,Simcolourproject_2stim_asymm_v5,2020.2.10,MacIntel,60,61025ae37ef11b136ea224fe,,,,,,,,,1937,61,-45,1,0,0,response3disk,,5,-7,-18,1,0,0,rectangle,-7,-18,1,0,0,-7,-18,1,0,0,0,76,76,130,1,,,,,,,,
,,,,,,,,,,,,,FF,,,,,,,,1.265,,,,,,,,,,,,,,,,,,,,,,6101fa06a9c401859f5a40e4,61036bb2bb1416c61fa9c1d0,2021-07-29_20h02.41.128,Simcolourproject_2stim_asymm_v5,2020.2.10,MacIntel,60,61025ae37ef11b136ea224fe,,,,,,,,,3513,-98,53,1,0,0,response7disk,,1,-3,-3,1,0,0,rectangle,-3,-3,1,0,0,-3,-3,1,0,0,0,77,77,118,1,,,,,,,,
,,,,,,,,,,,,,FF,,,,,,,,0.906,,,,,,,,,,,,,,,,,,,,,,6101fa06a9c401859f5a40e4,61036bb2bb1416c61fa9c1d0,2021-07-29_20h02.41.128,Simcolourproject_2stim_asymm_v5,2020.2.10,MacIntel,60,61025ae37ef11b136ea224fe,,,,,,,,,3325,81,23,1,0,0,response1disk,,6,26,11,1,0,0,rectangle,26,11,1,0,0,26,11,1,0,0,0,78,78,72,1,,,,,,,,
,,,,,,,,,,,,,FF,,,,,,,,1.425,,,,,,,,,,,,,,,,,,,,,,6101fa06a9c401859f5a40e4,61036bb2bb1416c61fa9c1d0,2021-07-29_20h02.41.128,Simcolourproject_2stim_asymm_v5,2020.2.10,MacIntel,60,61025ae37ef11b136ea224fe,,,,,,,,,2348,84,-37,1,0,0,response3disk,,5,9,-1,1,0,0,rectangle,9,-1,1,0,0,9,-1,1,0,0,0,79,79,34,1,,,,,,,,
,,,,,,,,,,,,,FF,,,,,,,,0.923,,,,,,,,,,,,,,,,,,,,,,6101fa06a9c401859f5a40e4,61036bb2bb1416c61fa9c1d0,2021-07-29_20h02.41.128,Simcolourproject_2stim_asymm_v5,2020.2.10,MacIntel,60,61025ae37ef11b136ea224fe,,,,,,,,,2516,-52,-85,1,0,0,response5disk,,3,-12,4,1,0,0,rectangle,-12,4,1,0,0,-12,4,1,0,0,0,80,80,20,1,,,,,,,,
,,,,,,,,,,,,,FF,,,,,,,,1.078,,,,,,,,,,,,,,,,,,,,,,6101fa06a9c401859f5a40e4,61036bb2bb1416c61fa9c1d0,2021-07-29_20h02.41.128,Simcolourproject_2stim_asymm_v5,2020.2.10,MacIntel,60,61025ae37ef11b136ea224fe,,,,,,,,,4355,-92,45,1,0,0,response7disk,,1,5,-12,1,0,0,rectangle,5,-12,1,0,0,5,-12,1,0,0,0,81,81,106,1,,,,,,,,
,,,,,,,,,,,,,FF,,,,,,,,1.554,,,,,,,,,,,,,,,,,,,,,,6101fa06a9c401859f5a40e4,61036bb2bb1416c61fa9c1d0,2021-07-29_20h02.41.128,Simcolourproject_2stim_asymm_v5,2020.2.10,MacIntel,60,61025ae37ef11b136ea224fe,,,,,,,,,4093,71,-40,1,0,0,response3disk,,5,-6,2,1,0,0,rectangle,-6,2,1,0,0,-6,2,1,0,0,0,82,82,28,1,,,,,,,,
,,,,,,,,,,,,,FF,,,,,,,,1.001,,,,,,,,,,,,,,,,,,,,,,6101fa06a9c401859f5a40e4,61036bb2bb1416c61fa9c1d0,2021-07-29_20h02.41.128,Simcolourproject_2stim_asymm_v5,2020.2.10,MacIntel,60,61025ae37ef11b136ea224fe,,,,,,,,,1903,-87,33,1,0,0,response7disk,,1,-14,-9,1,0,0,rectangle,-14,-9,1,0,0,-14,-9,1,0,0,0,83,83,81,1,,,,,,,,
,,,,,,,,,,,,,FF,,,,,,,,1.16,,,,,,,,,,,,,,,,,,,,,,6101fa06a9c401859f5a40e4,61036bb2bb1416c61fa9c1d0,2021-07-29_20h02.41.128,Simcolourproject_2stim_asymm_v5,2020.2.10,MacIntel,60,61025ae37ef11b136ea224fe,,,,,,,,,4135,71,56,1,0,0,response1disk,,6,-8,-4,1,0,0,rectangle,-8,-4,1,0,0,-8,-4,1,0,0,0,84,84,14,1,,,,,,,,
,,,,,,,,,,,,,FF,,,,,,,,1.583,,,,,,,,,,,,,,,,,,,,,,6101fa06a9c401859f5a40e4,61036bb2bb1416c61fa9c1d0,2021-07-29_20h02.41.128,Simcolourproject_2stim_asymm_v5,2020.2.10,MacIntel,60,61025ae37ef11b136ea224fe,,,,,,,,,2288,-67,39,1,0,0,response7disk,,1,-8,5,1,0,0,rectangle,-8,5,1,0,0,-8,5,1,0,0,0,85,85,66,1,,,,,,,,
,,,,,,,,,,,,,FF,,,,,,,,1.056,,,,,,,,,,,,,,,,,,,,,,6101fa06a9c401859f5a40e4,61036bb2bb1416c61fa9c1d0,2021-07-29_20h02.41.128,Simcolourproject_2stim_asymm_v5,2020.2.10,MacIntel,60,61025ae37ef11b136ea224fe,,,,,,,,,916,86,46,1,0,0,response1disk,,6,20,6,1,0,0,rectangle,20,6,1,0,0,20,6,1,0,0,0,86,86,128,1,,,,,,,,
,,,,,,,,,,,,,FF,,,,,,,,1.65,,,,,,,,,,,,,,,,,,,,,,6101fa06a9c401859f5a40e4,61036bb2bb1416c61fa9c1d0,2021-07-29_20h02.41.128,Simcolourproject_2stim_asymm_v5,2020.2.10,MacIntel,60,61025ae37ef11b136ea224fe,,,,,,,,,4074,-57,-79,1,0,0,response5disk,,3,-19,1,1,0,0,rectangle,-19,1,1,0,0,-19,1,1,0,0,0,87,87,74,1,,,,,,,,
,,,,,,,,,,,,,FF,,,,,,,,0.98,,,,,,,,,,,,,,,,,,,,,,6101fa06a9c401859f5a40e4,61036bb2bb1416c61fa9c1d0,2021-07-29_20h02.41.128,Simcolourproject_2stim_asymm_v5,2020.2.10,MacIntel,60,61025ae37ef11b136ea224fe,,,,,,,,,4317,-80,26,1,0,0,response7disk,,1,5,-5,1,0,0,rectangle,5,-5,1,0,0,5,-5,1,0,0,0,88,88,42,1,,,,,,,,
,,,,,,,,,,,,,FF,,,,,,,,1.185,,,,,,,,,,,,,,,,,,,,,,6101fa06a9c401859f5a40e4,61036bb2bb1416c61fa9c1d0,2021-07-29_20h02.41.128,Simcolourproject_2stim_asymm_v5,2020.2.10,MacIntel,60,61025ae37ef11b136ea224fe,,,,,,,,,1215,-58,-76,1,0,0,response5disk,,3,-1,-5,1,0,0,rectangle,-1,-5,1,0,0,-1,-5,1,0,0,0,89,89,35,1,,,,,,,,
,,,,,,,,,,,,,FF,,,,,,,,1.134,,,,,,,,,,,,,,,,,,,,,,6101fa06a9c401859f5a40e4,61036bb2bb1416c61fa9c1d0,2021-07-29_20h02.41.128,Simcolourproject_2stim_asymm_v5,2020.2.10,MacIntel,60,61025ae37ef11b136ea224fe,,,,,,,,,1318,97,-47,1,0,0,response3disk,,5,3,-9,1,0,0,rectangle,3,-9,1,0,0,3,-9,1,0,0,0,90,90,86,1,,,,,,,,
,,,,,,,,,,,,,FF,,,,,,,,0.85,,,,,,,,,,,,,,,,,,,,,,6101fa06a9c401859f5a40e4,61036bb2bb1416c61fa9c1d0,2021-07-29_20h02.41.128,Simcolourproject_2stim_asymm_v5,2020.2.10,MacIntel,60,61025ae37ef11b136ea224fe,,,,,,,,,3535,105,-62,1,0,0,response3disk,,5,-18,-10,1,0,0,rectangle,-18,-10,1,0,0,-18,-10,1,0,0,0,91,91,12,1,,,,,,,,
,,,,,,,,,,,,,FF,,,,,,,,1.057,,,,,,,,,,,,,,,,,,,,,,6101fa06a9c401859f5a40e4,61036bb2bb1416c61fa9c1d0,2021-07-29_20h02.41.128,Simcolourproject_2stim_asymm_v5,2020.2.10,MacIntel,60,61025ae37ef11b136ea224fe,,,,,,,,,3243,-57,84,1,0,0,response7disk,,0,-16,-1,1,0,0,rectangle,-16,-1,1,0,0,-16,-1,1,0,0,0,92,92,143,1,,,,,,,,
,,,,,,,,,,,,,FF,,,,,,,,0.736,,,,,,,,,,,,,,,,,,,,,,6101fa06a9c401859f5a40e4,61036bb2bb1416c61fa9c1d0,2021-07-29_20h02.41.128,Simcolourproject_2stim_asymm_v5,2020.2.10,MacIntel,60,61025ae37ef11b136ea224fe,,,,,,,,,1466,85,-49,1,0,0,response3disk,,5,-1,-3,1,0,0,rectangle,-1,-3,1,0,0,-1,-3,1,0,0,0,93,93,31,1,,,,,,,,
,,,,,,,,,,,,,FF,,,,,,,,0.828,,,,,,,,,,,,,,,,,,,,,,6101fa06a9c401859f5a40e4,61036bb2bb1416c61fa9c1d0,2021-07-29_20h02.41.128,Simcolourproject_2stim_asymm_v5,2020.2.10,MacIntel,60,61025ae37ef11b136ea224fe,,,,,,,,,3148,-104,49,1,0,0,response7disk,,1,10,-1,1,0,0,rectangle,10,-1,1,0,0,10,-1,1,0,0,0,94,94,146,1,,,,,,,,
,,,,,,,,,,,,,FF,,,,,,,,0.917,,,,,,,,,,,,,,,,,,,,,,6101fa06a9c401859f5a40e4,61036bb2bb1416c61fa9c1d0,2021-07-29_20h02.41.128,Simcolourproject_2stim_asymm_v5,2020.2.10,MacIntel,60,61025ae37ef11b136ea224fe,,,,,,,,,2269,-36,-85,1,0,0,response5disk,,3,-13,11,1,0,0,rectangle,-13,11,1,0,0,-13,11,1,0,0,0,95,95,21,1,,,,,,,,
,,,,,,,,,,,,,FF,,,,,,,,0.782,,,,,,,,,,,,,,,,,,,,,,6101fa06a9c401859f5a40e4,61036bb2bb1416c61fa9c1d0,2021-07-29_20h02.41.128,Simcolourproject_2stim_asymm_v5,2020.2.10,MacIntel,60,61025ae37ef11b136ea224fe,,,,,,,,,2886,-41,77,1,0,0,response7disk,,0,-3,0,1,0,0,rectangle,-3,0,1,0,0,-3,0,1,0,0,0,96,96,103,1,,,,,,,,
,,,,,,,,,,,,,FF,,,,,,,,0.751,,,,,,,,,,,,,,,,,,,,,,6101fa06a9c401859f5a40e4,61036bb2bb1416c61fa9c1d0,2021-07-29_20h02.41.128,Simcolourproject_2stim_asymm_v5,2020.2.10,MacIntel,60,61025ae37ef11b136ea224fe,,,,,,,,,1182,77,34,1,0,0,response1disk,,6,8,-6,1,0,0,rectangle,8,-6,1,0,0,8,-6,1,0,0,0,97,97,44,1,,,,,,,,
,,,,,,,,,,,,,FF,,,,,,,,0.703,,,,,,,,,,,,,,,,,,,,,,6101fa06a9c401859f5a40e4,61036bb2bb1416c61fa9c1d0,2021-07-29_20h02.41.128,Simcolourproject_2stim_asymm_v5,2020.2.10,MacIntel,60,61025ae37ef11b136ea224fe,,,,,,,,,3800,35,75,1,0,0,response1disk,,7,12,4,1,0,0,rectangle,12,4,1,0,0,12,4,1,0,0,0,98,98,95,1,,,,,,,,
,,,,,,,,,,,,,FF,,,,,,,,1.466,,,,,,,,,,,,,,,,,,,,,,6101fa06a9c401859f5a40e4,61036bb2bb1416c61fa9c1d0,2021-07-29_20h02.41.128,Simcolourproject_2stim_asymm_v5,2020.2.10,MacIntel,60,61025ae37ef11b136ea224fe,,,,,,,,,3581,78,-53,1,0,0,response3disk,,5,-11,-8,1,0,0,rectangle,-11,-8,1,0,0,-11,-8,1,0,0,0,99,99,53,1,,,,,,,,
,,,,,,,,,,,,,FF,,,,,,,,1.665,,,,,,,,,,,,,,,,,,,,,,6101fa06a9c401859f5a40e4,61036bb2bb1416c61fa9c1d0,2021-07-29_20h02.41.128,Simcolourproject_2stim_asymm_v5,2020.2.10,MacIntel,60,61025ae37ef11b136ea224fe,,,,,,,,,3170,63,-28,1,0,0,response3disk,,5,-6,-10,1,0,0,rectangle,-6,-10,1,0,0,-6,-10,1,0,0,0,100,100,65,1,,,,,,,,
,,,,,,,,,,,,,FF,,,,,,,,1.05,,,,,,,,,,,,,,,,,,,,,,6101fa06a9c401859f5a40e4,61036bb2bb1416c61fa9c1d0,2021-07-29_20h02.41.128,Simcolourproject_2stim_asymm_v5,2020.2.10,MacIntel,60,61025ae37ef11b136ea224fe,,,,,,,,,1729,59,41,1,0,0,response1disk,,6,-7,5,1,0,0,rectangle,-7,5,1,0,0,-7,5,1,0,0,0,101,101,54,1,,,,,,,,
,,,,,,,,,,,,,FF,,,,,,,,1.167,,,,,,,,,,,,,,,,,,,,,,6101fa06a9c401859f5a40e4,61036bb2bb1416c61fa9c1d0,2021-07-29_20h02.41.128,Simcolourproject_2stim_asymm_v5,2020.2.10,MacIntel,60,61025ae37ef11b136ea224fe,,,,,,,,,1467,-50,-87,1,0,0,response5disk,,3,-15,1,1,0,0,rectangle,-15,1,1,0,0,-15,1,1,0,0,0,102,102,111,1,,,,,,,,
,,,,,,,,,,,,,FF,,,,,,,,1.314,,,,,,,,,,,,,,,,,,,,,,6101fa06a9c401859f5a40e4,61036bb2bb1416c61fa9c1d0,2021-07-29_20h02.41.128,Simcolourproject_2stim_asymm_v5,2020.2.10,MacIntel,60,61025ae37ef11b136ea224fe,,,,,,,,,3618,29,-69,1,0,0,response3disk,,4,-12,-6,1,0,0,rectangle,-12,-6,1,0,0,-12,-6,1,0,0,0,103,103,136,1,,,,,,,,
,,,,,,,,,,,,,FF,,,,,,,,0.801,,,,,,,,,,,,,,,,,,,,,,6101fa06a9c401859f5a40e4,61036bb2bb1416c61fa9c1d0,2021-07-29_20h02.41.128,Simcolourproject_2stim_asymm_v5,2020.2.10,MacIntel,60,61025ae37ef11b136ea224fe,,,,,,,,,852,93,-50,1,0,0,response3disk,,5,-9,-2,1,0,0,rectangle,-9,-2,1,0,0,-9,-2,1,0,0,0,104,104,109,1,,,,,,,,
,,,,,,,,,,,,,FF,,,,,,,,1.333,,,,,,,,,,,,,,,,,,,,,,6101fa06a9c401859f5a40e4,61036bb2bb1416c61fa9c1d0,2021-07-29_20h02.41.128,Simcolourproject_2stim_asymm_v5,2020.2.10,MacIntel,60,61025ae37ef11b136ea224fe,,,,,,,,,3270,77,46,1,0,0,response1disk,,6,17,-5,1,0,0,rectangle,-97,41,1,0,0,15,-14,1,0,0,0,105,105,22,1,,response7disk_3,TRUE,1,1,"[220,282,3,176,145,59,61,14,107,204,143,291,182,138,306,0,106,9,37,48]",1.567,rectangle
,,,,,,,,,,,,,FF,,,,,,,,0.721,,,,,,,,,,,,,,,,,,,,,,6101fa06a9c401859f5a40e4,61036bb2bb1416c61fa9c1d0,2021-07-29_20h02.41.128,Simcolourproject_2stim_asymm_v5,2020.2.10,MacIntel,60,61025ae37ef11b136ea224fe,,,,,,,,,3027,61,34,1,0,0,response1disk,,6,-3,8,1,0,0,rectangle,-29,-90,1,0,0,9,-5,1,0,0,0,106,106,70,1,,response5disk_3,TRUE,3,3,"[220,282,3,176,145,59,61,14,107,204,143,291,182,138,306,0,106,9,37,48]",1.867,rectangle
,,,,,,,,,,,,,FF,,,,,,,,1.068,,,,,,,,,,,,,,,,,,,,,,6101fa06a9c401859f5a40e4,61036bb2bb1416c61fa9c1d0,2021-07-29_20h02.41.128,Simcolourproject_2stim_asymm_v5,2020.2.10,MacIntel,60,61025ae37ef11b136ea224fe,,,,,,,,,907,-92,60,1,0,0,response7disk,,1,1,-1,1,0,0,rectangle,1,-1,1,0,0,1,-1,1,0,0,0,107,107,6,1,,,,,,,,
,,,,,,,,,,,,,FF,,,,,,,,1.834,,,,,,,,,,,,,,,,,,,,,,6101fa06a9c401859f5a40e4,61036bb2bb1416c61fa9c1d0,2021-07-29_20h02.41.128,Simcolourproject_2stim_asymm_v5,2020.2.10,MacIntel,60,61025ae37ef11b136ea224fe,,,,,,,,,82,-66,-33,1,0,0,response5disk,,2,1,11,1,0,0,rectangle,1,11,1,0,0,1,11,1,0,0,0,108,108,13,1,,,,,,,,
,,,,,,,,,,,,,FF,,,,,,,,1.286,,,,,,,,,,,,,,,,,,,,,,6101fa06a9c401859f5a40e4,61036bb2bb1416c61fa9c1d0,2021-07-29_20h02.41.128,Simcolourproject_2stim_asymm_v5,2020.2.10,MacIntel,60,61025ae37ef11b136ea224fe,,,,,,,,,2259,-87,-35,1,0,0,response5disk,,2,1,-1,1,0,0,rectangle,1,-1,1,0,0,1,-1,1,0,0,0,109,109,51,1,,,,,,,,
,,,,,,,,,,,,,FF,,,,,,,,1.442,,,,,,,,,,,,,,,,,,,,,,6101fa06a9c401859f5a40e4,61036bb2bb1416c61fa9c1d0,2021-07-29_20h02.41.128,Simcolourproject_2stim_asymm_v5,2020.2.10,MacIntel,60,61025ae37ef11b136ea224fe,,,,,,,,,3141,88,-44,1,0,0,response3disk,,5,1,-5,1,0,0,rectangle,1,-5,1,0,0,1,-5,1,0,0,0,110,110,154,1,,,,,,,,
,,,,,,,,,,,,,FF,,,,,,,,0.783,,,,,,,,,,,,,,,,,,,,,,6101fa06a9c401859f5a40e4,61036bb2bb1416c61fa9c1d0,2021-07-29_20h02.41.128,Simcolourproject_2stim_asymm_v5,2020.2.10,MacIntel,60,61025ae37ef11b136ea224fe,,,,,,,,,2102,-82,56,1,0,0,response7disk,,1,6,-16,1,0,0,rectangle,6,-16,1,0,0,6,-16,1,0,0,0,111,111,59,1,,,,,,,,
,,,,,,,,,,,,,FF,,,,,,,,0.767,,,,,,,,,,,,,,,,,,,,,,6101fa06a9c401859f5a40e4,61036bb2bb1416c61fa9c1d0,2021-07-29_20h02.41.128,Simcolourproject_2stim_asymm_v5,2020.2.10,MacIntel,60,61025ae37ef11b136ea224fe,,,,,,,,,1709,59,48,1,0,0,response1disk,,6,7,-4,1,0,0,rectangle,7,-4,1,0,0,7,-4,1,0,0,0,112,112,97,1,,,,,,,,
,,,,,,,,,,,,,FF,,,,,,,,0.801,,,,,,,,,,,,,,,,,,,,,,6101fa06a9c401859f5a40e4,61036bb2bb1416c61fa9c1d0,2021-07-29_20h02.41.128,Simcolourproject_2stim_asymm_v5,2020.2.10,MacIntel,60,61025ae37ef11b136ea224fe,,,,,,,,,3617,28,44,1,0,0,response1disk,,7,12,3,1,0,0,rectangle,12,3,1,0,0,12,3,1,0,0,0,113,113,80,1,,,,,,,,
,,,,,,,,,,,,,FF,,,,,,,,0.949,,,,,,,,,,,,,,,,,,,,,,6101fa06a9c401859f5a40e4,61036bb2bb1416c61fa9c1d0,2021-07-29_20h02.41.128,Simcolourproject_2stim_asymm_v5,2020.2.10,MacIntel,60,61025ae37ef11b136ea224fe,,,,,,,,,1509,60,34,1,0,0,response1disk,,6,19,6,1,0,0,rectangle,19,6,1,0,0,19,6,1,0,0,0,114,114,30,1,,,,,,,,
,,,,,,,,,,,,,FF,,,,,,,,1.184,,,,,,,,,,,,,,,,,,,,,,6101fa06a9c401859f5a40e4,61036bb2bb1416c61fa9c1d0,2021-07-29_20h02.41.128,Simcolourproject_2stim_asymm_v5,2020.2.10,MacIntel,60,61025ae37ef11b136ea224fe,,,,,,,,,1355,70,-39,1,0,0,response3disk,,5,-18,10,1,0,0,rectangle,-18,10,1,0,0,-18,10,1,0,0,0,115,115,102,1,,,,,,,,
,,,,,,,,,,,,,FF,,,,,,,,1.301,,,,,,,,,,,,,,,,,,,,,,6101fa06a9c401859f5a40e4,61036bb2bb1416c61fa9c1d0,2021-07-29_20h02.41.128,Simcolourproject_2stim_asymm_v5,2020.2.10,MacIntel,60,61025ae37ef11b136ea224fe,,,,,,,,,3523,-35,-80,1,0,0,response5disk,,3,-15,-2,1,0,0,rectangle,-15,-2,1,0,0,-15,-2,1,0,0,0,116,116,52,1,,,,,,,,
,,,,,,,,,,,,,FF,,,,,,,,0.882,,,,,,,,,,,,,,,,,,,,,,6101fa06a9c401859f5a40e4,61036bb2bb1416c61fa9c1d0,2021-07-29_20h02.41.128,Simcolourproject_2stim_asymm_v5,2020.2.10,MacIntel,60,61025ae37ef11b136ea224fe,,,,,,,,,3846,-68,48,1,0,0,response7disk,,1,5,-1,1,0,0,rectangle,5,-1,1,0,0,5,-1,1,0,0,0,117,117,9,1,,,,,,,,
,,,,,,,,,,,,,FF,,,,,,,,0.85,,,,,,,,,,,,,,,,,,,,,,6101fa06a9c401859f5a40e4,61036bb2bb1416c61fa9c1d0,2021-07-29_20h02.41.128,Simcolourproject_2stim_asymm_v5,2020.2.10,MacIntel,60,61025ae37ef11b136ea224fe,,,,,,,,,662,-37,-67,1,0,0,response5disk,,3,-16,-2,1,0,0,rectangle,-16,-2,1,0,0,-16,-2,1,0,0,0,118,118,56,1,,,,,,,,
,,,,,,,,,,,,,FF,,,,,,,,0.783,,,,,,,,,,,,,,,,,,,,,,6101fa06a9c401859f5a40e4,61036bb2bb1416c61fa9c1d0,2021-07-29_20h02.41.128,Simcolourproject_2stim_asymm_v5,2020.2.10,MacIntel,60,61025ae37ef11b136ea224fe,,,,,,,,,1312,42,-61,1,0,0,response3disk,,4,2,-17,1,0,0,rectangle,2,-17,1,0,0,2,-17,1,0,0,0,119,119,23,1,,,,,,,,
,,,,,,,,,,,,,FF,,,,,,,,1.103,,,,,,,,,,,,,,,,,,,,,,6101fa06a9c401859f5a40e4,61036bb2bb1416c61fa9c1d0,2021-07-29_20h02.41.128,Simcolourproject_2stim_asymm_v5,2020.2.10,MacIntel,60,61025ae37ef11b136ea224fe,,,,,,,,,1996,35,-73,1,0,0,response3disk,,4,1,4,1,0,0,rectangle,1,4,1,0,0,1,4,1,0,0,0,120,120,45,1,,,,,,,,
,,,,,,,,,,,,,FF,,,,,,,,0.708,,,,,,,,,,,,,,,,,,,,,,6101fa06a9c401859f5a40e4,61036bb2bb1416c61fa9c1d0,2021-07-29_20h02.41.128,Simcolourproject_2stim_asymm_v5,2020.2.10,MacIntel,60,61025ae37ef11b136ea224fe,,,,,,,,,4069,-46,-61,1,0,0,response5disk,,3,-24,-2,1,0,0,rectangle,-24,-2,1,0,0,-24,-2,1,0,0,0,121,121,39,1,,,,,,,,
,,,,,,,,,,,,,FF,,,,,,,,1.248,,,,,,,,,,,,,,,,,,,,,,6101fa06a9c401859f5a40e4,61036bb2bb1416c61fa9c1d0,2021-07-29_20h02.41.128,Simcolourproject_2stim_asymm_v5,2020.2.10,MacIntel,60,61025ae37ef11b136ea224fe,,,,,,,,,3896,74,-37,1,0,0,response3disk,,5,-7,2,1,0,0,rectangle,-7,2,1,0,0,-7,2,1,0,0,0,122,122,83,1,,,,,,,,
,,,,,,,,,,,,,FF,,,,,,,,0.917,,,,,,,,,,,,,,,,,,,,,,6101fa06a9c401859f5a40e4,61036bb2bb1416c61fa9c1d0,2021-07-29_20h02.41.128,Simcolourproject_2stim_asymm_v5,2020.2.10,MacIntel,60,61025ae37ef11b136ea224fe,,,,,,,,,2919,-27,-71,1,0,0,response5disk,,3,-19,2,1,0,0,rectangle,-19,2,1,0,0,-19,2,1,0,0,0,123,123,124,1,,,,,,,,
,,,,,,,,,,,,,FF,,,,,,,,2.133,,,,,,,,,,,,,,,,,,,,,,6101fa06a9c401859f5a40e4,61036bb2bb1416c61fa9c1d0,2021-07-29_20h02.41.128,Simcolourproject_2stim_asymm_v5,2020.2.10,MacIntel,60,61025ae37ef11b136ea224fe,,,,,,,,,210,89,-29,1,0,0,response3disk,,5,14,8,1,0,0,rectangle,14,8,1,0,0,14,8,1,0,0,0,124,124,88,1,,,,,,,,
,,,,,,,,,,,,,FF,,,,,,,,1.517,,,,,,,,,,,,,,,,,,,,,,6101fa06a9c401859f5a40e4,61036bb2bb1416c61fa9c1d0,2021-07-29_20h02.41.128,Simcolourproject_2stim_asymm_v5,2020.2.10,MacIntel,60,61025ae37ef11b136ea224fe,,,,,,,,,134,45,-84,1,0,0,response3disk,,4,17,-8,1,0,0,rectangle,17,-8,1,0,0,17,-8,1,0,0,0,125,125,122,1,,,,,,,,
,,,,,,,,,,,,,FF,,,,,,,,1.135,,,,,,,,,,,,,,,,,,,,,,6101fa06a9c401859f5a40e4,61036bb2bb1416c61fa9c1d0,2021-07-29_20h02.41.128,Simcolourproject_2stim_asymm_v5,2020.2.10,MacIntel,60,61025ae37ef11b136ea224fe,,,,,,,,,3060,-107,-36,1,0,0,response5disk,,2,-10,-6,1,0,0,rectangle,-10,-6,1,0,0,-10,-6,1,0,0,0,126,126,82,1,,,,,,,,
,,,,,,,,,,,,,FF,,,,,,,,1.183,,,,,,,,,,,,,,,,,,,,,,6101fa06a9c401859f5a40e4,61036bb2bb1416c61fa9c1d0,2021-07-29_20h02.41.128,Simcolourproject_2stim_asymm_v5,2020.2.10,MacIntel,60,61025ae37ef11b136ea224fe,,,,,,,,,3481,-52,-64,1,0,0,response5disk,,3,-31,1,1,0,0,rectangle,-31,1,1,0,0,-31,1,1,0,0,0,127,127,55,1,,,,,,,,
,,,,,,,,,,,,,FF,,,,,,,,0.993,,,,,,,,,,,,,,,,,,,,,,6101fa06a9c401859f5a40e4,61036bb2bb1416c61fa9c1d0,2021-07-29_20h02.41.128,Simcolourproject_2stim_asymm_v5,2020.2.10,MacIntel,60,61025ae37ef11b136ea224fe,,,,,,,,,64,-59,-28,1,0,0,response5disk,,2,6,-15,1,0,0,rectangle,6,-15,1,0,0,6,-15,1,0,0,0,128,128,27,1,,,,,,,,
,,,,,,,,,,,,,FF,,,,,,,,0.867,,,,,,,,,,,,,,,,,,,,,,6101fa06a9c401859f5a40e4,61036bb2bb1416c61fa9c1d0,2021-07-29_20h02.41.128,Simcolourproject_2stim_asymm_v5,2020.2.10,MacIntel,60,61025ae37ef11b136ea224fe,,,,,,,,,405,65,-30,1,0,0,response3disk,,5,-2,0,1,0,0,rectangle,-2,0,1,0,0,-2,0,1,0,0,0,129,129,0,1,,,,,,,,
,,,,,,,,,,,,,FF,,,,,,,,0.684,,,,,,,,,,,,,,,,,,,,,,6101fa06a9c401859f5a40e4,61036bb2bb1416c61fa9c1d0,2021-07-29_20h02.41.128,Simcolourproject_2stim_asymm_v5,2020.2.10,MacIntel,60,61025ae37ef11b136ea224fe,,,,,,,,,666,59,38,1,0,0,response1disk,,6,11,8,1,0,0,rectangle,11,8,1,0,0,11,8,1,0,0,0,130,130,96,1,,,,,,,,
,,,,,,,,,,,,,FF,,,,,,,,0.785,,,,,,,,,,,,,,,,,,,,,,6101fa06a9c401859f5a40e4,61036bb2bb1416c61fa9c1d0,2021-07-29_20h02.41.128,Simcolourproject_2stim_asymm_v5,2020.2.10,MacIntel,60,61025ae37ef11b136ea224fe,,,,,,,,,1003,79,35,1,0,0,response1disk,,6,18,4,1,0,0,rectangle,18,4,1,0,0,18,4,1,0,0,0,131,131,79,1,,,,,,,,
,,,,,,,,,,,,,FF,,,,,,,,1.649,,,,,,,,,,,,,,,,,,,,,,6101fa06a9c401859f5a40e4,61036bb2bb1416c61fa9c1d0,2021-07-29_20h02.41.128,Simcolourproject_2stim_asymm_v5,2020.2.10,MacIntel,60,61025ae37ef11b136ea224fe,,,,,,,,,83,-37,-80,1,0,0,response5disk,,3,-6,-4,1,0,0,rectangle,-6,-4,1,0,0,-6,-4,1,0,0,0,132,132,78,1,,,,,,,,
,,,,,,,,,,,,,FF,,,,,,,,1.067,,,,,,,,,,,,,,,,,,,,,,6101fa06a9c401859f5a40e4,61036bb2bb1416c61fa9c1d0,2021-07-29_20h02.41.128,Simcolourproject_2stim_asymm_v5,2020.2.10,MacIntel,60,61025ae37ef11b136ea224fe,,,,,,,,,262,-41,68,1,0,0,response7disk,,0,-22,6,1,0,0,rectangle,-22,6,1,0,0,-22,6,1,0,0,0,133,133,5,1,,,,,,,,
,,,,,,,,,,,,,FF,,,,,,,,0.906,,,,,,,,,,,,,,,,,,,,,,6101fa06a9c401859f5a40e4,61036bb2bb1416c61fa9c1d0,2021-07-29_20h02.41.128,Simcolourproject_2stim_asymm_v5,2020.2.10,MacIntel,60,61025ae37ef11b136ea224fe,,,,,,,,,203,76,-18,1,0,0,response3disk,,5,13,1,1,0,0,rectangle,13,1,1,0,0,13,1,1,0,0,0,134,134,2,1,,,,,,,,
,,,,,,,,,,,,,FF,,,,,,,,1.516,,,,,,,,,,,,,,,,,,,,,,6101fa06a9c401859f5a40e4,61036bb2bb1416c61fa9c1d0,2021-07-29_20h02.41.128,Simcolourproject_2stim_asymm_v5,2020.2.10,MacIntel,60,61025ae37ef11b136ea224fe,,,,,,,,,902,47,-78,1,0,0,response3disk,,4,1,12,1,0,0,rectangle,1,12,1,0,0,1,12,1,0,0,0,135,135,157,1,,,,,,,,
,,,,,,,,,,,,,FF,,,,,,,,1.218,,,,,,,,,,,,,,,,,,,,,,6101fa06a9c401859f5a40e4,61036bb2bb1416c61fa9c1d0,2021-07-29_20h02.41.128,Simcolourproject_2stim_asymm_v5,2020.2.10,MacIntel,60,61025ae37ef11b136ea224fe,,,,,,,,,683,49,29,1,0,0,response1disk,,6,3,5,1,0,0,rectangle,3,5,1,0,0,3,5,1,0,0,0,136,136,132,1,,,,,,,,
,,,,,,,,,,,,,FF,,,,,,,,1.767,,,,,,,,,,,,,,,,,,,,,,6101fa06a9c401859f5a40e4,61036bb2bb1416c61fa9c1d0,2021-07-29_20h02.41.128,Simcolourproject_2stim_asymm_v5,2020.2.10,MacIntel,60,61025ae37ef11b136ea224fe,,,,,,,,,1545,52,35,1,0,0,response1disk,,6,-12,10,1,0,0,rectangle,-32,-100,1,0,0,-10,5,1,0,0,0,137,137,7,1,,response5disk_3,TRUE,3,3,"[220,282,3,176,145,59,61,14,107,204,143,291,182,138,306,0,106,9,37,48]",1.491,rectangle
,,,,,,,,,,,,,FF,,,,,,,,1.146,,,,,,,,,,,,,,,,,,,,,,6101fa06a9c401859f5a40e4,61036bb2bb1416c61fa9c1d0,2021-07-29_20h02.41.128,Simcolourproject_2stim_asymm_v5,2020.2.10,MacIntel,60,61025ae37ef11b136ea224fe,,,,,,,,,4311,-43,-74,1,0,0,response5disk,,3,-18,1,1,0,0,rectangle,-18,1,1,0,0,-18,1,1,0,0,0,138,138,94,1,,,,,,,,
,,,,,,,,,,,,,FF,,,,,,,,0.826,,,,,,,,,,,,,,,,,,,,,,6101fa06a9c401859f5a40e4,61036bb2bb1416c61fa9c1d0,2021-07-29_20h02.41.128,Simcolourproject_2stim_asymm_v5,2020.2.10,MacIntel,60,61025ae37ef11b136ea224fe,,,,,,,,,2764,69,-39,1,0,0,response3disk,,5,4,-1,1,0,0,rectangle,4,-1,1,0,0,4,-1,1,0,0,0,139,139,119,1,,,,,,,,
,,,,,,,,,,,,,FF,,,,,,,,0.79,,,,,,,,,,,,,,,,,,,,,,6101fa06a9c401859f5a40e4,61036bb2bb1416c61fa9c1d0,2021-07-29_20h02.41.128,Simcolourproject_2stim_asymm_v5,2020.2.10,MacIntel,60,61025ae37ef11b136ea224fe,,,,,,,,,3112,30,-93,1,0,0,response3disk,,4,0,-17,1,0,0,rectangle,0,-17,1,0,0,0,-17,1,0,0,0,140,140,156,1,,,,,,,,
,,,,,,,,,,,,,FF,,,,,,,,0.666,,,,,,,,,,,,,,,,,,,,,,6101fa06a9c401859f5a40e4,61036bb2bb1416c61fa9c1d0,2021-07-29_20h02.41.128,Simcolourproject_2stim_asymm_v5,2020.2.10,MacIntel,60,61025ae37ef11b136ea224fe,,,,,,,,,4138,64,-28,1,0,0,response3disk,,5,-1,-1,1,0,0,rectangle,-1,-1,1,0,0,-1,-1,1,0,0,0,141,141,135,1,,,,,,,,
,,,,,,,,,,,,,FF,,,,,,,,0.866,,,,,,,,,,,,,,,,,,,,,,6101fa06a9c401859f5a40e4,61036bb2bb1416c61fa9c1d0,2021-07-29_20h02.41.128,Simcolourproject_2stim_asymm_v5,2020.2.10,MacIntel,60,61025ae37ef11b136ea224fe,,,,,,,,,1823,-55,35,1,0,0,response7disk,,1,-9,9,1,0,0,rectangle,-86,46,1,0,0,1,8,1,0,0,0,142,142,25,1,,response7disk_3,TRUE,1,1,"[220,282,3,176,145,59,61,14,107,204,143,291,182,138,306,0,106,9,37,48]",1.599,rectangle
,,,,,,,,,,,,,FF,,,,,,,,0.966,,,,,,,,,,,,,,,,,,,,,,6101fa06a9c401859f5a40e4,61036bb2bb1416c61fa9c1d0,2021-07-29_20h02.41.128,Simcolourproject_2stim_asymm_v5,2020.2.10,MacIntel,60,61025ae37ef11b136ea224fe,,,,,,,,,2153,-38,-61,1,0,0,response5disk,,3,-14,-5,1,0,0,rectangle,-14,-5,1,0,0,-14,-5,1,0,0,0,143,143,98,1,,,,,,,,
,,,,,,,,,,,,,FF,,,,,,,,1.179,,,,,,,,,,,,,,,,,,,,,,6101fa06a9c401859f5a40e4,61036bb2bb1416c61fa9c1d0,2021-07-29_20h02.41.128,Simcolourproject_2stim_asymm_v5,2020.2.10,MacIntel,60,61025ae37ef11b136ea224fe,,,,,,,,,1319,-33,-48,1,0,0,response5disk,,3,-30,-1,1,0,0,rectangle,27,85,1,0,0,-9,3,1,0,0,0,144,144,87,1,,response1disk_3,TRUE,7,7,"[220,282,3,176,145,59,61,14,107,204,143,291,182,138,306,0,106,9,37,48]",3.163,rectangle
,,,,,,,,,,,,,FF,,,,,,,,2.785,,,,,,,,,,,,,,,,,,,,,,6101fa06a9c401859f5a40e4,61036bb2bb1416c61fa9c1d0,2021-07-29_20h02.41.128,Simcolourproject_2stim_asymm_v5,2020.2.10,MacIntel,60,61025ae37ef11b136ea224fe,,,,,,,,,2538,-40,-91,1,0,0,response5disk,,3,-9,-3,1,0,0,rectangle,-9,-3,1,0,0,-9,-3,1,0,0,0,145,145,69,1,,,,,,,,
,,,,,,,,,,,,,FF,,,,,,,,0.893,,,,,,,,,,,,,,,,,,,,,,6101fa06a9c401859f5a40e4,61036bb2bb1416c61fa9c1d0,2021-07-29_20h02.41.128,Simcolourproject_2stim_asymm_v5,2020.2.10,MacIntel,60,61025ae37ef11b136ea224fe,,,,,,,,,3373,-47,66,1,0,0,response7disk,,0,1,-12,1,0,0,rectangle,1,-12,1,0,0,1,-12,1,0,0,0,146,146,10,1,,,,,,,,
,,,,,,,,,,,,,FF,,,,,,,,0.965,,,,,,,,,,,,,,,,,,,,,,6101fa06a9c401859f5a40e4,61036bb2bb1416c61fa9c1d0,2021-07-29_20h02.41.128,Simcolourproject_2stim_asymm_v5,2020.2.10,MacIntel,60,61025ae37ef11b136ea224fe,,,,,,,,,1655,-26,-57,1,0,0,response5disk,,3,8,-9,1,0,0,rectangle,8,-9,1,0,0,8,-9,1,0,0,0,147,147,101,1,,,,,,,,
,,,,,,,,,,,,,FF,,,,,,,,0.692,,,,,,,,,,,,,,,,,,,,,,6101fa06a9c401859f5a40e4,61036bb2bb1416c61fa9c1d0,2021-07-29_20h02.41.128,Simcolourproject_2stim_asymm_v5,2020.2.10,MacIntel,60,61025ae37ef11b136ea224fe,,,,,,,,,540,75,-39,1,0,0,response3disk,,5,6,0,1,0,0,rectangle,6,0,1,0,0,6,0,1,0,0,0,148,148,138,1,,,,,,,,
,,,,,,,,,,,,,FF,,,,,,,,0.634,,,,,,,,,,,,,,,,,,,,,,6101fa06a9c401859f5a40e4,61036bb2bb1416c61fa9c1d0,2021-07-29_20h02.41.128,Simcolourproject_2stim_asymm_v5,2020.2.10,MacIntel,60,61025ae37ef11b136ea224fe,,,,,,,,,2957,56,26,1,0,0,response1disk,,6,9,-1,1,0,0,rectangle,9,-1,1,0,0,9,-1,1,0,0,0,149,149,67,1,,,,,,,,
,,,,,,,,,,,,,FF,,,,,,,,1.183,,,,,,,,,,,,,,,,,,,,,,6101fa06a9c401859f5a40e4,61036bb2bb1416c61fa9c1d0,2021-07-29_20h02.41.128,Simcolourproject_2stim_asymm_v5,2020.2.10,MacIntel,60,61025ae37ef11b136ea224fe,,,,,,,,,1617,-54,-59,1,0,0,response5disk,,3,-3,3,1,0,0,rectangle,-3,3,1,0,0,-3,3,1,0,0,0,150,150,63,1,,,,,,,,
,,,,,,,,,,,,,FF,,,,,,,,0.955,,,,,,,,,,,,,,,,,,,,,,6101fa06a9c401859f5a40e4,61036bb2bb1416c61fa9c1d0,2021-07-29_20h02.41.128,Simcolourproject_2stim_asymm_v5,2020.2.10,MacIntel,60,61025ae37ef11b136ea224fe,,,,,,,,,4240,-66,-28,1,0,0,response5disk,,2,-12,1,1,0,0,rectangle,-12,1,1,0,0,-12,1,1,0,0,0,151,151,113,1,,,,,,,,
,,,,,,,,,,,,,FF,,,,,,,,0.752,,,,,,,,,,,,,,,,,,,,,,6101fa06a9c401859f5a40e4,61036bb2bb1416c61fa9c1d0,2021-07-29_20h02.41.128,Simcolourproject_2stim_asymm_v5,2020.2.10,MacIntel,60,61025ae37ef11b136ea224fe,,,,,,,,,1483,32,-55,1,0,0,response3disk,,4,9,-10,1,0,0,rectangle,9,-10,1,0,0,9,-10,1,0,0,0,152,152,114,1,,,,,,,,
,,,,,,,,,,,,,FF,,,,,,,,1.154,,,,,,,,,,,,,,,,,,,,,,6101fa06a9c401859f5a40e4,61036bb2bb1416c61fa9c1d0,2021-07-29_20h02.41.128,Simcolourproject_2stim_asymm_v5,2020.2.10,MacIntel,60,61025ae37ef11b136ea224fe,,,,,,,,,277,-72,49,1,0,0,response7disk,,1,-4,-3,1,0,0,rectangle,-4,-3,1,0,0,-4,-3,1,0,0,0,153,153,49,1,,,,,,,,
,,,,,,,,,,,,,FF,,,,,,,,1.471,,,,,,,,,,,,,,,,,,,,,,6101fa06a9c401859f5a40e4,61036bb2bb1416c61fa9c1d0,2021-07-29_20h02.41.128,Simcolourproject_2stim_asymm_v5,2020.2.10,MacIntel,60,61025ae37ef11b136ea224fe,,,,,,,,,1733,-71,38,1,0,0,response7disk,,1,15,-16,1,0,0,rectangle,15,-16,1,0,0,15,-16,1,0,0,0,154,154,85,1,,,,,,,,
,,,,,,,,,,,,,FF,,,,,,,,0.765,,,,,,,,,,,,,,,,,,,,,,6101fa06a9c401859f5a40e4,61036bb2bb1416c61fa9c1d0,2021-07-29_20h02.41.128,Simcolourproject_2stim_asymm_v5,2020.2.10,MacIntel,60,61025ae37ef11b136ea224fe,,,,,,,,,1869,-50,-68,1,0,0,response5disk,,3,-14,0,1,0,0,rectangle,-14,0,1,0,0,-14,0,1,0,0,0,155,155,46,1,,,,,,,,
,,,,,,,,,,,,,FF,,,,,,,,0.884,,,,,,,,,,,,,,,,,,,,,,6101fa06a9c401859f5a40e4,61036bb2bb1416c61fa9c1d0,2021-07-29_20h02.41.128,Simcolourproject_2stim_asymm_v5,2020.2.10,MacIntel,60,61025ae37ef11b136ea224fe,,,,,,,,,1054,-69,27,1,0,0,response7disk,,1,-9,13,1,0,0,rectangle,-9,13,1,0,0,-9,13,1,0,0,0,156,156,89,1,,,,,,,,
,,,,,,,,,,,,,FF,,,,,,,,0.728,,,,,,,,,,,,,,,,,,,,,,6101fa06a9c401859f5a40e4,61036bb2bb1416c61fa9c1d0,2021-07-29_20h02.41.128,Simcolourproject_2stim_asymm_v5,2020.2.10,MacIntel,60,61025ae37ef11b136ea224fe,,,,,,,,,3273,-30,-60,1,0,0,response5disk,,3,-6,4,1,0,0,rectangle,-6,4,1,0,0,-6,4,1,0,0,0,157,157,40,1,,,,,,,,
,,,,,,,,,,,,,FF,,,,,,,,0.85,,,,,,,,,,,,,,,,,,,,,,6101fa06a9c401859f5a40e4,61036bb2bb1416c61fa9c1d0,2021-07-29_20h02.41.128,Simcolourproject_2stim_asymm_v5,2020.2.10,MacIntel,60,61025ae37ef11b136ea224fe,,,,,,,,,3748,-73,26,1,0,0,response7disk,,1,5,1,1,0,0,rectangle,5,1,1,0,0,5,1,1,0,0,0,158,158,125,1,,,,,,,,
,,,,,,,,,,,,,FF,,,,,,,,0.88,,,,,,,,,,,,,,,,,,,,,,6101fa06a9c401859f5a40e4,61036bb2bb1416c61fa9c1d0,2021-07-29_20h02.41.128,Simcolourproject_2stim_asymm_v5,2020.2.10,MacIntel,60,61025ae37ef11b136ea224fe,,,,,,,,,456,-55,88,1,0,0,response7disk,,0,-21,12,1,0,0,rectangle,-21,12,1,0,0,-21,12,1,0,0,0,159,159,117,1,,,,,,,,
,,,,,,,,,,,,,FF,,,,,,,,0.8,,,,,,,,,,,,,,,,,,,,,,6101fa06a9c401859f5a40e4,61036bb2bb1416c61fa9c1d0,2021-07-29_20h02.41.128,Simcolourproject_2stim_asymm_v5,2020.2.10,MacIntel,60,61025ae37ef11b136ea224fe,,,,,,,,,199,-45,-71,1,0,0,response5disk,,3,-16,-10,1,0,0,rectangle,-16,-10,1,0,0,-16,-10,1,0,0,1,0,160,48,1,,,,,,,,
,,,,,,,,,,,,,FF,,,,,,,,1.085,,,,,,,,,,,,,,,,,,,,,,6101fa06a9c401859f5a40e4,61036bb2bb1416c61fa9c1d0,2021-07-29_20h02.41.128,Simcolourproject_2stim_asymm_v5,2020.2.10,MacIntel,60,61025ae37ef11b136ea224fe,,,,,,,,,1075,-58,-31,1,0,0,response5disk,,2,-13,-2,1,0,0,rectangle,-13,-2,1,0,0,-13,-2,1,0,0,1,1,161,45,1,,,,,,,,
,,,,,,,,,,,,,FF,,,,,,,,1.165,,,,,,,,,,,,,,,,,,,,,,6101fa06a9c401859f5a40e4,61036bb2bb1416c61fa9c1d0,2021-07-29_20h02.41.128,Simcolourproject_2stim_asymm_v5,2020.2.10,MacIntel,60,61025ae37ef11b136ea224fe,,,,,,,,,414,50,-62,1,0,0,response3disk,,4,-1,8,1,0,0,rectangle,-1,8,1,0,0,-1,8,1,0,0,1,2,162,63,1,,,,,,,,
,,,,,,,,,,,,,FF,,,,,,,,1.433,,,,,,,,,,,,,,,,,,,,,,6101fa06a9c401859f5a40e4,61036bb2bb1416c61fa9c1d0,2021-07-29_20h02.41.128,Simcolourproject_2stim_asymm_v5,2020.2.10,MacIntel,60,61025ae37ef11b136ea224fe,,,,,,,,,3730,66,-35,1,0,0,response3disk,,5,4,3,1,0,0,rectangle,4,3,1,0,0,4,3,1,0,0,1,3,163,76,1,,,,,,,,
,,,,,,,,,,,,,FF,,,,,,,,2,,,,,,,,,,,,,,,,,,,,,,6101fa06a9c401859f5a40e4,61036bb2bb1416c61fa9c1d0,2021-07-29_20h02.41.128,Simcolourproject_2stim_asymm_v5,2020.2.10,MacIntel,60,61025ae37ef11b136ea224fe,,,,,,,,,2142,73,-18,1,0,0,response3disk,,5,-11,13,1,0,0,rectangle,-11,13,1,0,0,-11,13,1,0,0,1,4,164,15,1,,,,,,,,
,,,,,,,,,,,,,FF,,,,,,,,1.212,,,,,,,,,,,,,,,,,,,,,,6101fa06a9c401859f5a40e4,61036bb2bb1416c61fa9c1d0,2021-07-29_20h02.41.128,Simcolourproject_2stim_asymm_v5,2020.2.10,MacIntel,60,61025ae37ef11b136ea224fe,,,,,,,,,3636,-40,-62,1,0,0,response5disk,,3,-17,-6,1,0,0,rectangle,-17,-6,1,0,0,-17,-6,1,0,0,1,5,165,39,1,,,,,,,,
,,,,,,,,,,,,,FF,,,,,,,,1.823,,,,,,,,,,,,,,,,,,,,,,6101fa06a9c401859f5a40e4,61036bb2bb1416c61fa9c1d0,2021-07-29_20h02.41.128,Simcolourproject_2stim_asymm_v5,2020.2.10,MacIntel,60,61025ae37ef11b136ea224fe,,,,,,,,,3021,26,-54,1,0,0,response3disk,,4,4,-10,1,0,0,rectangle,4,-10,1,0,0,4,-10,1,0,0,1,6,166,44,1,,,,,,,,
,,,,,,,,,,,,,FF,,,,,,,,1.321,,,,,,,,,,,,,,,,,,,,,,6101fa06a9c401859f5a40e4,61036bb2bb1416c61fa9c1d0,2021-07-29_20h02.41.128,Simcolourproject_2stim_asymm_v5,2020.2.10,MacIntel,60,61025ae37ef11b136ea224fe,,,,,,,,,3335,38,25,1,0,0,response1disk,,6,3,1,1,0,0,rectangle,3,1,1,0,0,3,1,1,0,0,1,7,167,115,1,,,,,,,,
,,,,,,,,,,,,,FF,,,,,,,,0.918,,,,,,,,,,,,,,,,,,,,,,6101fa06a9c401859f5a40e4,61036bb2bb1416c61fa9c1d0,2021-07-29_20h02.41.128,Simcolourproject_2stim_asymm_v5,2020.2.10,MacIntel,60,61025ae37ef11b136ea224fe,,,,,,,,,1481,62,-30,1,0,0,response3disk,,5,-2,9,1,0,0,rectangle,-2,9,1,0,0,-2,9,1,0,0,1,8,168,109,1,,,,,,,,
,,,,,,,,,,,,,FF,,,,,,,,1.22,,,,,,,,,,,,,,,,,,,,,,6101fa06a9c401859f5a40e4,61036bb2bb1416c61fa9c1d0,2021-07-29_20h02.41.128,Simcolourproject_2stim_asymm_v5,2020.2.10,MacIntel,60,61025ae37ef11b136ea224fe,,,,,,,,,3237,-55,-43,1,0,0,response5disk,,2,-19,-9,1,0,0,rectangle,-19,-9,1,0,0,-19,-9,1,0,0,1,9,169,141,1,,,,,,,,
,,,,,,,,,,,,,FF,,,,,,,,2.884,,,,,,,,,,,,,,,,,,,,,,6101fa06a9c401859f5a40e4,61036bb2bb1416c61fa9c1d0,2021-07-29_20h02.41.128,Simcolourproject_2stim_asymm_v5,2020.2.10,MacIntel,60,61025ae37ef11b136ea224fe,,,,,,,,,2896,-25,-66,1,0,0,response5disk,,3,-12,-1,1,0,0,rectangle,-12,-1,1,0,0,-12,-1,1,0,0,1,10,170,1,1,,,,,,,,
,,,,,,,,,,,,,FF,,,,,,,,1.013,,,,,,,,,,,,,,,,,,,,,,6101fa06a9c401859f5a40e4,61036bb2bb1416c61fa9c1d0,2021-07-29_20h02.41.128,Simcolourproject_2stim_asymm_v5,2020.2.10,MacIntel,60,61025ae37ef11b136ea224fe,,,,,,,,,3594,-47,-75,1,0,0,response5disk,,3,-28,8,1,0,0,rectangle,-28,8,1,0,0,-28,8,1,0,0,1,11,171,0,1,,,,,,,,
,,,,,,,,,,,,,FF,,,,,,,,0.733,,,,,,,,,,,,,,,,,,,,,,6101fa06a9c401859f5a40e4,61036bb2bb1416c61fa9c1d0,2021-07-29_20h02.41.128,Simcolourproject_2stim_asymm_v5,2020.2.10,MacIntel,60,61025ae37ef11b136ea224fe,,,,,,,,,1766,36,-71,1,0,0,response3disk,,4,5,0,1,0,0,rectangle,5,0,1,0,0,5,0,1,0,0,1,12,172,121,1,,,,,,,,
,,,,,,,,,,,,,FF,,,,,,,,1.05,,,,,,,,,,,,,,,,,,,,,,6101fa06a9c401859f5a40e4,61036bb2bb1416c61fa9c1d0,2021-07-29_20h02.41.128,Simcolourproject_2stim_asymm_v5,2020.2.10,MacIntel,60,61025ae37ef11b136ea224fe,,,,,,,,,3219,57,-30,1,0,0,response3disk,,5,11,3,1,0,0,rectangle,11,3,1,0,0,11,3,1,0,0,1,13,173,36,1,,,,,,,,
,,,,,,,,,,,,,FF,,,,,,,,0.801,,,,,,,,,,,,,,,,,,,,,,6101fa06a9c401859f5a40e4,61036bb2bb1416c61fa9c1d0,2021-07-29_20h02.41.128,Simcolourproject_2stim_asymm_v5,2020.2.10,MacIntel,60,61025ae37ef11b136ea224fe,,,,,,,,,496,81,-53,1,0,0,response3disk,,5,-1,15,1,0,0,rectangle,-1,15,1,0,0,-1,15,1,0,0,1,14,174,145,1,,,,,,,,
,,,,,,,,,,,,,FF,,,,,,,,0.95,,,,,,,,,,,,,,,,,,,,,,6101fa06a9c401859f5a40e4,61036bb2bb1416c61fa9c1d0,2021-07-29_20h02.41.128,Simcolourproject_2stim_asymm_v5,2020.2.10,MacIntel,60,61025ae37ef11b136ea224fe,,,,,,,,,2098,-56,92,1,0,0,response7disk,,0,-4,-3,1,0,0,rectangle,34,67,1,0,0,-4,0,1,0,0,1,15,175,86,1,,response1disk_3,TRUE,7,7,"[220,282,3,176,145,59,61,14,107,204,143,291,182,138,306,0,106,9,37,48]",1.733,rectangle
,,,,,,,,,,,,,FF,,,,,,,,1.15,,,,,,,,,,,,,,,,,,,,,,6101fa06a9c401859f5a40e4,61036bb2bb1416c61fa9c1d0,2021-07-29_20h02.41.128,Simcolourproject_2stim_asymm_v5,2020.2.10,MacIntel,60,61025ae37ef11b136ea224fe,,,,,,,,,1592,-30,-48,1,0,0,response5disk,,3,-8,-4,1,0,0,rectangle,-8,-4,1,0,0,-8,-4,1,0,0,1,16,176,94,1,,,,,,,,
,,,,,,,,,,,,,FF,,,,,,,,0.734,,,,,,,,,,,,,,,,,,,,,,6101fa06a9c401859f5a40e4,61036bb2bb1416c61fa9c1d0,2021-07-29_20h02.41.128,Simcolourproject_2stim_asymm_v5,2020.2.10,MacIntel,60,61025ae37ef11b136ea224fe,,,,,,,,,4068,50,-26,1,0,0,response3disk,,5,-6,6,1,0,0,rectangle,-6,6,1,0,0,-6,6,1,0,0,1,17,177,57,1,,,,,,,,
,,,,,,,,,,,,,FF,,,,,,,,0.909,,,,,,,,,,,,,,,,,,,,,,6101fa06a9c401859f5a40e4,61036bb2bb1416c61fa9c1d0,2021-07-29_20h02.41.128,Simcolourproject_2stim_asymm_v5,2020.2.10,MacIntel,60,61025ae37ef11b136ea224fe,,,,,,,,,354,-35,55,1,0,0,response7disk,,0,-5,-7,1,0,0,rectangle,-5,-7,1,0,0,-5,-7,1,0,0,1,18,178,32,1,,,,,,,,
,,,,,,,,,,,,,FF,,,,,,,,0.877,,,,,,,,,,,,,,,,,,,,,,6101fa06a9c401859f5a40e4,61036bb2bb1416c61fa9c1d0,2021-07-29_20h02.41.128,Simcolourproject_2stim_asymm_v5,2020.2.10,MacIntel,60,61025ae37ef11b136ea224fe,,,,,,,,,1175,58,-41,1,0,0,response3disk,,5,-8,13,1,0,0,rectangle,-8,13,1,0,0,-8,13,1,0,0,1,19,179,64,1,,,,,,,,
,,,,,,,,,,,,,FF,,,,,,,,1.185,,,,,,,,,,,,,,,,,,,,,,6101fa06a9c401859f5a40e4,61036bb2bb1416c61fa9c1d0,2021-07-29_20h02.41.128,Simcolourproject_2stim_asymm_v5,2020.2.10,MacIntel,60,61025ae37ef11b136ea224fe,,,,,,,,,3808,34,-54,1,0,0,response3disk,,4,16,-3,1,0,0,rectangle,16,-3,1,0,0,16,-3,1,0,0,1,20,180,10,1,,,,,,,,
,,,,,,,,,,,,,FF,,,,,,,,1.3,,,,,,,,,,,,,,,,,,,,,,6101fa06a9c401859f5a40e4,61036bb2bb1416c61fa9c1d0,2021-07-29_20h02.41.128,Simcolourproject_2stim_asymm_v5,2020.2.10,MacIntel,60,61025ae37ef11b136ea224fe,,,,,,,,,178,52,21,1,0,0,response1disk,,6,9,8,1,0,0,rectangle,40,-82,1,0,0,6,4,1,0,0,1,21,181,13,1,,response3disk_3,TRUE,4,4,"[220,282,3,176,145,59,61,14,107,204,143,291,182,138,306,0,106,9,37,48]",1.453,rectangle
,,,,,,,,,,,,,FF,,,,,,,,0.847,,,,,,,,,,,,,,,,,,,,,,6101fa06a9c401859f5a40e4,61036bb2bb1416c61fa9c1d0,2021-07-29_20h02.41.128,Simcolourproject_2stim_asymm_v5,2020.2.10,MacIntel,60,61025ae37ef11b136ea224fe,,,,,,,,,321,67,-45,1,0,0,response3disk,,5,-5,-7,1,0,0,rectangle,-5,-7,1,0,0,-5,-7,1,0,0,1,22,182,106,1,,,,,,,,
,,,,,,,,,,,,,FF,,,,,,,,0.599,,,,,,,,,,,,,,,,,,,,,,6101fa06a9c401859f5a40e4,61036bb2bb1416c61fa9c1d0,2021-07-29_20h02.41.128,Simcolourproject_2stim_asymm_v5,2020.2.10,MacIntel,60,61025ae37ef11b136ea224fe,,,,,,,,,2059,25,-61,1,0,0,response3disk,,4,4,-6,1,0,0,rectangle,4,-6,1,0,0,4,-6,1,0,0,1,23,183,124,1,,,,,,,,
,,,,,,,,,,,,,FF,,,,,,,,1.501,,,,,,,,,,,,,,,,,,,,,,6101fa06a9c401859f5a40e4,61036bb2bb1416c61fa9c1d0,2021-07-29_20h02.41.128,Simcolourproject_2stim_asymm_v5,2020.2.10,MacIntel,60,61025ae37ef11b136ea224fe,,,,,,,,,4359,-72,51,1,0,0,response7disk,,1,-9,1,1,0,0,rectangle,-9,1,1,0,0,-9,1,1,0,0,1,24,184,90,1,,,,,,,,
,,,,,,,,,,,,,FF,,,,,,,,1.1,,,,,,,,,,,,,,,,,,,,,,6101fa06a9c401859f5a40e4,61036bb2bb1416c61fa9c1d0,2021-07-29_20h02.41.128,Simcolourproject_2stim_asymm_v5,2020.2.10,MacIntel,60,61025ae37ef11b136ea224fe,,,,,,,,,4221,-61,-55,1,0,0,response5disk,,2,-10,-5,1,0,0,rectangle,-10,-5,1,0,0,-10,-5,1,0,0,1,25,185,11,1,,,,,,,,
,,,,,,,,,,,,,FF,,,,,,,,0.7,,,,,,,,,,,,,,,,,,,,,,6101fa06a9c401859f5a40e4,61036bb2bb1416c61fa9c1d0,2021-07-29_20h02.41.128,Simcolourproject_2stim_asymm_v5,2020.2.10,MacIntel,60,61025ae37ef11b136ea224fe,,,,,,,,,1354,56,-32,1,0,0,response3disk,,5,-20,5,1,0,0,rectangle,-20,5,1,0,0,-20,5,1,0,0,1,26,186,88,1,,,,,,,,
,,,,,,,,,,,,,FF,,,,,,,,1.601,,,,,,,,,,,,,,,,,,,,,,6101fa06a9c401859f5a40e4,61036bb2bb1416c61fa9c1d0,2021-07-29_20h02.41.128,Simcolourproject_2stim_asymm_v5,2020.2.10,MacIntel,60,61025ae37ef11b136ea224fe,,,,,,,,,3623,-50,-68,1,0,0,response5disk,,3,-20,-5,1,0,0,rectangle,-20,-5,1,0,0,-20,-5,1,0,0,1,27,187,110,1,,,,,,,,
,,,,,,,,,,,,,FF,,,,,,,,0.834,,,,,,,,,,,,,,,,,,,,,,6101fa06a9c401859f5a40e4,61036bb2bb1416c61fa9c1d0,2021-07-29_20h02.41.128,Simcolourproject_2stim_asymm_v5,2020.2.10,MacIntel,60,61025ae37ef11b136ea224fe,,,,,,,,,2219,35,-66,1,0,0,response3disk,,4,5,13,1,0,0,rectangle,5,13,1,0,0,5,13,1,0,0,1,28,188,144,1,,,,,,,,
,,,,,,,,,,,,,FF,,,,,,,,0.8,,,,,,,,,,,,,,,,,,,,,,6101fa06a9c401859f5a40e4,61036bb2bb1416c61fa9c1d0,2021-07-29_20h02.41.128,Simcolourproject_2stim_asymm_v5,2020.2.10,MacIntel,60,61025ae37ef11b136ea224fe,,,,,,,,,638,-63,-43,1,0,0,response5disk,,2,-13,-7,1,0,0,rectangle,-13,-7,1,0,0,-13,-7,1,0,0,1,29,189,8,1,,,,,,,,
,,,,,,,,,,,,,FF,,,,,,,,0.866,,,,,,,,,,,,,,,,,,,,,,6101fa06a9c401859f5a40e4,61036bb2bb1416c61fa9c1d0,2021-07-29_20h02.41.128,Simcolourproject_2stim_asymm_v5,2020.2.10,MacIntel,60,61025ae37ef11b136ea224fe,,,,,,,,,4161,-46,79,1,0,0,response7disk,,0,-12,5,1,0,0,rectangle,-12,5,1,0,0,-12,5,1,0,0,1,30,190,92,1,,,,,,,,
,,,,,,,,,,,,,FF,,,,,,,,0.95,,,,,,,,,,,,,,,,,,,,,,6101fa06a9c401859f5a40e4,61036bb2bb1416c61fa9c1d0,2021-07-29_20h02.41.128,Simcolourproject_2stim_asymm_v5,2020.2.10,MacIntel,60,61025ae37ef11b136ea224fe,,,,,,,,,1045,55,-41,1,0,0,response3disk,,5,6,-9,1,0,0,rectangle,6,-9,1,0,0,6,-9,1,0,0,1,31,191,69,1,,,,,,,,
,,,,,,,,,,,,,FF,,,,,,,,0.799,,,,,,,,,,,,,,,,,,,,,,6101fa06a9c401859f5a40e4,61036bb2bb1416c61fa9c1d0,2021-07-29_20h02.41.128,Simcolourproject_2stim_asymm_v5,2020.2.10,MacIntel,60,61025ae37ef11b136ea224fe,,,,,,,,,2334,25,-68,1,0,0,response3disk,,4,-9,6,1,0,0,rectangle,-9,6,1,0,0,-9,6,1,0,0,1,32,192,82,1,,,,,,,,
,,,,,,,,,,,,,FF,,,,,,,,0.749,,,,,,,,,,,,,,,,,,,,,,6101fa06a9c401859f5a40e4,61036bb2bb1416c61fa9c1d0,2021-07-29_20h02.41.128,Simcolourproject_2stim_asymm_v5,2020.2.10,MacIntel,60,61025ae37ef11b136ea224fe,,,,,,,,,3164,44,-71,1,0,0,response3disk,,4,22,-12,1,0,0,rectangle,22,-12,1,0,0,22,-12,1,0,0,1,33,193,129,1,,,,,,,,
,,,,,,,,,,,,,FF,,,,,,,,0.736,,,,,,,,,,,,,,,,,,,,,,6101fa06a9c401859f5a40e4,61036bb2bb1416c61fa9c1d0,2021-07-29_20h02.41.128,Simcolourproject_2stim_asymm_v5,2020.2.10,MacIntel,60,61025ae37ef11b136ea224fe,,,,,,,,,2280,64,37,1,0,0,response1disk,,6,17,1,1,0,0,rectangle,17,1,1,0,0,17,1,1,0,0,1,34,194,126,1,,,,,,,,
,,,,,,,,,,,,,FF,,,,,,,,0.635,,,,,,,,,,,,,,,,,,,,,,6101fa06a9c401859f5a40e4,61036bb2bb1416c61fa9c1d0,2021-07-29_20h02.41.128,Simcolourproject_2stim_asymm_v5,2020.2.10,MacIntel,60,61025ae37ef11b136ea224fe,,,,,,,,,22,59,-51,1,0,0,response3disk,,5,8,-11,1,0,0,rectangle,8,-11,1,0,0,8,-11,1,0,0,1,35,195,27,1,,,,,,,,
,,,,,,,,,,,,,FF,,,,,,,,0.616,,,,,,,,,,,,,,,,,,,,,,6101fa06a9c401859f5a40e4,61036bb2bb1416c61fa9c1d0,2021-07-29_20h02.41.128,Simcolourproject_2stim_asymm_v5,2020.2.10,MacIntel,60,61025ae37ef11b136ea224fe,,,,,,,,,2454,32,-60,1,0,0,response3disk,,4,-10,3,1,0,0,rectangle,-10,3,1,0,0,-10,3,1,0,0,1,36,196,143,1,,,,,,,,
,,,,,,,,,,,,,FF,,,,,,,,0.686,,,,,,,,,,,,,,,,,,,,,,6101fa06a9c401859f5a40e4,61036bb2bb1416c61fa9c1d0,2021-07-29_20h02.41.128,Simcolourproject_2stim_asymm_v5,2020.2.10,MacIntel,60,61025ae37ef11b136ea224fe,,,,,,,,,4051,36,-47,1,0,0,response3disk,,4,7,-1,1,0,0,rectangle,7,-1,1,0,0,7,-1,1,0,0,1,37,197,155,1,,,,,,,,
,,,,,,,,,,,,,FF,,,,,,,,0.868,,,,,,,,,,,,,,,,,,,,,,6101fa06a9c401859f5a40e4,61036bb2bb1416c61fa9c1d0,2021-07-29_20h02.41.128,Simcolourproject_2stim_asymm_v5,2020.2.10,MacIntel,60,61025ae37ef11b136ea224fe,,,,,,,,,2933,68,-37,1,0,0,response3disk,,5,7,-1,1,0,0,rectangle,7,-1,1,0,0,7,-1,1,0,0,1,38,198,99,1,,,,,,,,
,,,,,,,,,,,,,FF,,,,,,,,0.867,,,,,,,,,,,,,,,,,,,,,,6101fa06a9c401859f5a40e4,61036bb2bb1416c61fa9c1d0,2021-07-29_20h02.41.128,Simcolourproject_2stim_asymm_v5,2020.2.10,MacIntel,60,61025ae37ef11b136ea224fe,,,,,,,,,217,59,-30,1,0,0,response3disk,,5,-4,1,1,0,0,rectangle,-4,1,1,0,0,-4,1,1,0,0,1,39,199,135,1,,,,,,,,
,,,,,,,,,,,,,FF,,,,,,,,1.267,,,,,,,,,,,,,,,,,,,,,,6101fa06a9c401859f5a40e4,61036bb2bb1416c61fa9c1d0,2021-07-29_20h02.41.128,Simcolourproject_2stim_asymm_v5,2020.2.10,MacIntel,60,61025ae37ef11b136ea224fe,,,,,,,,,2464,63,30,1,0,0,response1disk,,6,18,6,1,0,0,rectangle,18,6,1,0,0,18,6,1,0,0,1,40,200,59,1,,,,,,,,
,,,,,,,,,,,,,FF,,,,,,,,0.966,,,,,,,,,,,,,,,,,,,,,,6101fa06a9c401859f5a40e4,61036bb2bb1416c61fa9c1d0,2021-07-29_20h02.41.128,Simcolourproject_2stim_asymm_v5,2020.2.10,MacIntel,60,61025ae37ef11b136ea224fe,,,,,,,,,4087,-50,-28,1,0,0,response5disk,,2,5,1,1,0,0,rectangle,5,1,1,0,0,5,1,1,0,0,1,41,201,130,1,,,,,,,,
,,,,,,,,,,,,,FF,,,,,,,,1.001,,,,,,,,,,,,,,,,,,,,,,6101fa06a9c401859f5a40e4,61036bb2bb1416c61fa9c1d0,2021-07-29_20h02.41.128,Simcolourproject_2stim_asymm_v5,2020.2.10,MacIntel,60,61025ae37ef11b136ea224fe,,,,,,,,,3975,31,-62,1,0,0,response3disk,,4,15,-18,1,0,0,rectangle,15,-18,1,0,0,15,-18,1,0,0,1,42,202,131,1,,,,,,,,
,,,,,,,,,,,,,FF,,,,,,,,1.333,,,,,,,,,,,,,,,,,,,,,,6101fa06a9c401859f5a40e4,61036bb2bb1416c61fa9c1d0,2021-07-29_20h02.41.128,Simcolourproject_2stim_asymm_v5,2020.2.10,MacIntel,60,61025ae37ef11b136ea224fe,,,,,,,,,4012,35,39,1,0,0,response1disk,,7,18,0,1,0,0,rectangle,46,-101,1,0,0,-1,-1,1,0,0,1,43,203,133,1,,response3disk_3,TRUE,4,4,"[220,282,3,176,145,59,61,14,107,204,143,291,182,138,306,0,106,9,37,48]",1.547,rectangle
,,,,,,,,,,,,,FF,,,,,,,,1.148,,,,,,,,,,,,,,,,,,,,,,6101fa06a9c401859f5a40e4,61036bb2bb1416c61fa9c1d0,2021-07-29_20h02.41.128,Simcolourproject_2stim_asymm_v5,2020.2.10,MacIntel,60,61025ae37ef11b136ea224fe,,,,,,,,,1646,53,-47,1,0,0,response3disk,,5,13,-1,1,0,0,rectangle,13,-1,1,0,0,13,-1,1,0,0,1,44,204,128,1,,,,,,,,
,,,,,,,,,,,,,FF,,,,,,,,1.516,,,,,,,,,,,,,,,,,,,,,,6101fa06a9c401859f5a40e4,61036bb2bb1416c61fa9c1d0,2021-07-29_20h02.41.128,Simcolourproject_2stim_asymm_v5,2020.2.10,MacIntel,60,61025ae37ef11b136ea224fe,,,,,,,,,3854,-36,-60,1,0,0,response5disk,,3,-13,-17,1,0,0,rectangle,-13,-17,1,0,0,-13,-17,1,0,0,1,45,205,58,1,,,,,,,,
,,,,,,,,,,,,,FF,,,,,,,,2.183,,,,,,,,,,,,,,,,,,,,,,6101fa06a9c401859f5a40e4,61036bb2bb1416c61fa9c1d0,2021-07-29_20h02.41.128,Simcolourproject_2stim_asymm_v5,2020.2.10,MacIntel,60,61025ae37ef11b136ea224fe,,,,,,,,,759,104,-44,1,0,0,response3disk,,5,29,-7,1,0,0,rectangle,29,-7,1,0,0,29,-7,1,0,0,1,46,206,30,1,,,,,,,,
,,,,,,,,,,,,,FF,,,,,,,,1.158,,,,,,,,,,,,,,,,,,,,,,6101fa06a9c401859f5a40e4,61036bb2bb1416c61fa9c1d0,2021-07-29_20h02.41.128,Simcolourproject_2stim_asymm_v5,2020.2.10,MacIntel,60,61025ae37ef11b136ea224fe,,,,,,,,,95,-76,40,1,0,0,response7disk,,1,-1,5,1,0,0,rectangle,-1,5,1,0,0,-1,5,1,0,0,1,47,207,3,1,,,,,,,,
,,,,,,,,,,,,,FF,,,,,,,,1.089,,,,,,,,,,,,,,,,,,,,,,6101fa06a9c401859f5a40e4,61036bb2bb1416c61fa9c1d0,2021-07-29_20h02.41.128,Simcolourproject_2stim_asymm_v5,2020.2.10,MacIntel,60,61025ae37ef11b136ea224fe,,,,,,,,,3829,35,-64,1,0,0,response3disk,,4,4,-9,1,0,0,rectangle,4,-9,1,0,0,4,-9,1,0,0,1,48,208,89,1,,,,,,,,
,,,,,,,,,,,,,FF,,,,,,,,1.45,,,,,,,,,,,,,,,,,,,,,,6101fa06a9c401859f5a40e4,61036bb2bb1416c61fa9c1d0,2021-07-29_20h02.41.128,Simcolourproject_2stim_asymm_v5,2020.2.10,MacIntel,60,61025ae37ef11b136ea224fe,,,,,,,,,3173,43,-20,1,0,0,response3disk,,5,3,2,1,0,0,rectangle,3,2,1,0,0,3,2,1,0,0,1,49,209,77,1,,,,,,,,
,,,,,,,,,,,,,FF,,,,,,,,0.835,,,,,,,,,,,,,,,,,,,,,,6101fa06a9c401859f5a40e4,61036bb2bb1416c61fa9c1d0,2021-07-29_20h02.41.128,Simcolourproject_2stim_asymm_v5,2020.2.10,MacIntel,60,61025ae37ef11b136ea224fe,,,,,,,,,3932,-72,34,1,0,0,response7disk,,1,-9,-5,1,0,0,rectangle,-9,-5,1,0,0,-9,-5,1,0,0,1,50,210,105,1,,,,,,,,
,,,,,,,,,,,,,FF,,,,,,,,1.055,,,,,,,,,,,,,,,,,,,,,,6101fa06a9c401859f5a40e4,61036bb2bb1416c61fa9c1d0,2021-07-29_20h02.41.128,Simcolourproject_2stim_asymm_v5,2020.2.10,MacIntel,60,61025ae37ef11b136ea224fe,,,,,,,,,994,81,-40,1,0,0,response3disk,,5,-10,-5,1,0,0,rectangle,-10,-5,1,0,0,-10,-5,1,0,0,1,51,211,101,1,,,,,,,,
,,,,,,,,,,,,,FF,,,,,,,,1.55,,,,,,,,,,,,,,,,,,,,,,6101fa06a9c401859f5a40e4,61036bb2bb1416c61fa9c1d0,2021-07-29_20h02.41.128,Simcolourproject_2stim_asymm_v5,2020.2.10,MacIntel,60,61025ae37ef11b136ea224fe,,,,,,,,,4194,42,-73,1,0,0,response3disk,,4,24,-15,1,0,0,rectangle,24,-15,1,0,0,24,-15,1,0,0,1,52,212,87,1,,,,,,,,
,,,,,,,,,,,,,FF,,,,,,,,0.899,,,,,,,,,,,,,,,,,,,,,,6101fa06a9c401859f5a40e4,61036bb2bb1416c61fa9c1d0,2021-07-29_20h02.41.128,Simcolourproject_2stim_asymm_v5,2020.2.10,MacIntel,60,61025ae37ef11b136ea224fe,,,,,,,,,1923,42,-72,1,0,0,response3disk,,4,-8,17,1,0,0,rectangle,-8,17,1,0,0,-8,17,1,0,0,1,53,213,96,1,,,,,,,,
,,,,,,,,,,,,,FF,,,,,,,,1.299,,,,,,,,,,,,,,,,,,,,,,6101fa06a9c401859f5a40e4,61036bb2bb1416c61fa9c1d0,2021-07-29_20h02.41.128,Simcolourproject_2stim_asymm_v5,2020.2.10,MacIntel,60,61025ae37ef11b136ea224fe,,,,,,,,,235,-35,-85,1,0,0,response5disk,,3,-6,5,1,0,0,rectangle,-6,5,1,0,0,-6,5,1,0,0,1,54,214,34,1,,,,,,,,
,,,,,,,,,,,,,FF,,,,,,,,0.782,,,,,,,,,,,,,,,,,,,,,,6101fa06a9c401859f5a40e4,61036bb2bb1416c61fa9c1d0,2021-07-29_20h02.41.128,Simcolourproject_2stim_asymm_v5,2020.2.10,MacIntel,60,61025ae37ef11b136ea224fe,,,,,,,,,1781,85,-54,1,0,0,response3disk,,5,22,1,1,0,0,rectangle,22,1,1,0,0,22,1,1,0,0,1,55,215,66,1,,,,,,,,
,,,,,,,,,,,,,FF,,,,,,,,1.25,,,,,,,,,,,,,,,,,,,,,,6101fa06a9c401859f5a40e4,61036bb2bb1416c61fa9c1d0,2021-07-29_20h02.41.128,Simcolourproject_2stim_asymm_v5,2020.2.10,MacIntel,60,61025ae37ef11b136ea224fe,,,,,,,,,3824,55,-36,1,0,0,response3disk,,5,5,6,1,0,0,rectangle,5,6,1,0,0,5,6,1,0,0,1,56,216,102,1,,,,,,,,
,,,,,,,,,,,,,FF,,,,,,,,0.695,,,,,,,,,,,,,,,,,,,,,,6101fa06a9c401859f5a40e4,61036bb2bb1416c61fa9c1d0,2021-07-29_20h02.41.128,Simcolourproject_2stim_asymm_v5,2020.2.10,MacIntel,60,61025ae37ef11b136ea224fe,,,,,,,,,583,38,-71,1,0,0,response3disk,,4,-5,2,1,0,0,rectangle,-5,2,1,0,0,-5,2,1,0,0,1,57,217,113,1,,,,,,,,
,,,,,,,,,,,,,FF,,,,,,,,1.52,,,,,,,,,,,,,,,,,,,,,,6101fa06a9c401859f5a40e4,61036bb2bb1416c61fa9c1d0,2021-07-29_20h02.41.128,Simcolourproject_2stim_asymm_v5,2020.2.10,MacIntel,60,61025ae37ef11b136ea224fe,,,,,,,,,1845,-44,-85,1,0,0,response5disk,,3,10,3,1,0,0,rectangle,10,3,1,0,0,10,3,1,0,0,1,58,218,56,1,,,,,,,,
,,,,,,,,,,,,,FF,,,,,,,,1.685,,,,,,,,,,,,,,,,,,,,,,6101fa06a9c401859f5a40e4,61036bb2bb1416c61fa9c1d0,2021-07-29_20h02.41.128,Simcolourproject_2stim_asymm_v5,2020.2.10,MacIntel,60,61025ae37ef11b136ea224fe,,,,,,,,,2095,46,-30,1,0,0,response3disk,,5,6,-2,1,0,0,rectangle,-88,45,1,0,0,-5,-13,1,0,0,1,59,219,127,1,,response7disk_3,TRUE,1,1,"[220,282,3,176,145,59,61,14,107,204,143,291,182,138,306,0,106,9,37,48]",1.297,rectangle
,,,,,,,,,,,,,FF,,,,,,,,2.167,,,,,,,,,,,,,,,,,,,,,,6101fa06a9c401859f5a40e4,61036bb2bb1416c61fa9c1d0,2021-07-29_20h02.41.128,Simcolourproject_2stim_asymm_v5,2020.2.10,MacIntel,60,61025ae37ef11b136ea224fe,,,,,,,,,2868,-34,-55,1,0,0,response5disk,,3,-6,2,1,0,0,rectangle,-6,2,1,0,0,-6,2,1,0,0,1,60,220,120,1,,,,,,,,
,,,,,,,,,,,,,FF,,,,,,,,0.893,,,,,,,,,,,,,,,,,,,,,,6101fa06a9c401859f5a40e4,61036bb2bb1416c61fa9c1d0,2021-07-29_20h02.41.128,Simcolourproject_2stim_asymm_v5,2020.2.10,MacIntel,60,61025ae37ef11b136ea224fe,,,,,,,,,3933,-90,20,1,0,0,response7disk,,1,5,-14,1,0,0,rectangle,5,-14,1,0,0,5,-14,1,0,0,1,61,221,33,1,,,,,,,,
,,,,,,,,,,,,,FF,,,,,,,,1.15,,,,,,,,,,,,,,,,,,,,,,6101fa06a9c401859f5a40e4,61036bb2bb1416c61fa9c1d0,2021-07-29_20h02.41.128,Simcolourproject_2stim_asymm_v5,2020.2.10,MacIntel,60,61025ae37ef11b136ea224fe,,,,,,,,,3604,31,-51,1,0,0,response3disk,,4,0,-15,1,0,0,rectangle,0,-15,1,0,0,0,-15,1,0,0,1,62,222,54,1,,,,,,,,
,,,,,,,,,,,,,FF,,,,,,,,1.016,,,,,,,,,,,,,,,,,,,,,,6101fa06a9c401859f5a40e4,61036bb2bb1416c61fa9c1d0,2021-07-29_20h02.41.128,Simcolourproject_2stim_asymm_v5,2020.2.10,MacIntel,60,61025ae37ef11b136ea224fe,,,,,,,,,1939,59,-23,1,0,0,response3disk,,5,-4,17,1,0,0,rectangle,-4,17,1,0,0,-4,17,1,0,0,1,63,223,74,1,,,,,,,,
,,,,,,,,,,,,,FF,,,,,,,,0.755,,,,,,,,,,,,,,,,,,,,,,6101fa06a9c401859f5a40e4,61036bb2bb1416c61fa9c1d0,2021-07-29_20h02.41.128,Simcolourproject_2stim_asymm_v5,2020.2.10,MacIntel,60,61025ae37ef11b136ea224fe,,,,,,,,,3357,54,26,1,0,0,response1disk,,6,2,-3,1,0,0,rectangle,2,-3,1,0,0,2,-3,1,0,0,1,64,224,108,1,,,,,,,,
,,,,,,,,,,,,,FF,,,,,,,,1.017,,,,,,,,,,,,,,,,,,,,,,6101fa06a9c401859f5a40e4,61036bb2bb1416c61fa9c1d0,2021-07-29_20h02.41.128,Simcolourproject_2stim_asymm_v5,2020.2.10,MacIntel,60,61025ae37ef11b136ea224fe,,,,,,,,,2428,-68,37,1,0,0,response7disk,,1,-2,-8,1,0,0,rectangle,-2,-8,1,0,0,-2,-8,1,0,0,1,65,225,71,1,,,,,,,,
,,,,,,,,,,,,,FF,,,,,,,,0.831,,,,,,,,,,,,,,,,,,,,,,6101fa06a9c401859f5a40e4,61036bb2bb1416c61fa9c1d0,2021-07-29_20h02.41.128,Simcolourproject_2stim_asymm_v5,2020.2.10,MacIntel,60,61025ae37ef11b136ea224fe,,,,,,,,,1989,47,-62,1,0,0,response3disk,,4,19,-9,1,0,0,rectangle,19,-9,1,0,0,19,-9,1,0,0,1,66,226,4,1,,,,,,,,
,,,,,,,,,,,,,FF,,,,,,,,0.929,,,,,,,,,,,,,,,,,,,,,,6101fa06a9c401859f5a40e4,61036bb2bb1416c61fa9c1d0,2021-07-29_20h02.41.128,Simcolourproject_2stim_asymm_v5,2020.2.10,MacIntel,60,61025ae37ef11b136ea224fe,,,,,,,,,676,50,-51,1,0,0,response3disk,,4,-7,4,1,0,0,rectangle,-7,4,1,0,0,-7,4,1,0,0,1,67,227,50,1,,,,,,,,
,,,,,,,,,,,,,FF,,,,,,,,1.343,,,,,,,,,,,,,,,,,,,,,,6101fa06a9c401859f5a40e4,61036bb2bb1416c61fa9c1d0,2021-07-29_20h02.41.128,Simcolourproject_2stim_asymm_v5,2020.2.10,MacIntel,60,61025ae37ef11b136ea224fe,,,,,,,,,3085,50,-31,1,0,0,response3disk,,5,5,2,1,0,0,rectangle,5,2,1,0,0,5,2,1,0,0,1,68,228,23,1,,,,,,,,
,,,,,,,,,,,,,FF,,,,,,,,1.201,,,,,,,,,,,,,,,,,,,,,,6101fa06a9c401859f5a40e4,61036bb2bb1416c61fa9c1d0,2021-07-29_20h02.41.128,Simcolourproject_2stim_asymm_v5,2020.2.10,MacIntel,60,61025ae37ef11b136ea224fe,,,,,,,,,973,-76,-43,1,0,0,response5disk,,2,-3,-5,1,0,0,rectangle,-3,-5,1,0,0,-3,-5,1,0,0,1,69,229,22,1,,,,,,,,
,,,,,,,,,,,,,FF,,,,,,,,1.149,,,,,,,,,,,,,,,,,,,,,,6101fa06a9c401859f5a40e4,61036bb2bb1416c61fa9c1d0,2021-07-29_20h02.41.128,Simcolourproject_2stim_asymm_v5,2020.2.10,MacIntel,60,61025ae37ef11b136ea224fe,,,,,,,,,1454,-68,41,1,0,0,response7disk,,1,-12,-3,1,0,0,rectangle,-12,-3,1,0,0,-12,-3,1,0,0,1,70,230,43,1,,,,,,,,
,,,,,,,,,,,,,FF,,,,,,,,1.388,,,,,,,,,,,,,,,,,,,,,,6101fa06a9c401859f5a40e4,61036bb2bb1416c61fa9c1d0,2021-07-29_20h02.41.128,Simcolourproject_2stim_asymm_v5,2020.2.10,MacIntel,60,61025ae37ef11b136ea224fe,,,,,,,,,2730,34,-60,1,0,0,response3disk,,4,18,5,1,0,0,rectangle,18,5,1,0,0,18,5,1,0,0,1,71,231,51,1,,,,,,,,
,,,,,,,,,,,,,FF,,,,,,,,0.821,,,,,,,,,,,,,,,,,,,,,,6101fa06a9c401859f5a40e4,61036bb2bb1416c61fa9c1d0,2021-07-29_20h02.41.128,Simcolourproject_2stim_asymm_v5,2020.2.10,MacIntel,60,61025ae37ef11b136ea224fe,,,,,,,,,1864,48,-25,1,0,0,response3disk,,5,20,3,1,0,0,rectangle,20,3,1,0,0,20,3,1,0,0,1,72,232,79,1,,,,,,,,
,,,,,,,,,,,,,FF,,,,,,,,1.017,,,,,,,,,,,,,,,,,,,,,,6101fa06a9c401859f5a40e4,61036bb2bb1416c61fa9c1d0,2021-07-29_20h02.41.128,Simcolourproject_2stim_asymm_v5,2020.2.10,MacIntel,60,61025ae37ef11b136ea224fe,,,,,,,,,631,-32,-54,1,0,0,response5disk,,3,-9,2,1,0,0,rectangle,-9,2,1,0,0,-9,2,1,0,0,1,73,233,93,1,,,,,,,,
,,,,,,,,,,,,,FF,,,,,,,,1.045,,,,,,,,,,,,,,,,,,,,,,6101fa06a9c401859f5a40e4,61036bb2bb1416c61fa9c1d0,2021-07-29_20h02.41.128,Simcolourproject_2stim_asymm_v5,2020.2.10,MacIntel,60,61025ae37ef11b136ea224fe,,,,,,,,,1883,47,18,1,0,0,response1disk,,6,5,0,1,0,0,rectangle,5,0,1,0,0,5,0,1,0,0,1,74,234,152,1,,,,,,,,
,,,,,,,,,,,,,FF,,,,,,,,0.908,,,,,,,,,,,,,,,,,,,,,,6101fa06a9c401859f5a40e4,61036bb2bb1416c61fa9c1d0,2021-07-29_20h02.41.128,Simcolourproject_2stim_asymm_v5,2020.2.10,MacIntel,60,61025ae37ef11b136ea224fe,,,,,,,,,1892,-31,-69,1,0,0,response5disk,,3,-6,-9,1,0,0,rectangle,-6,-9,1,0,0,-6,-9,1,0,0,1,75,235,18,1,,,,,,,,
,,,,,,,,,,,,,FF,,,,,,,,1.117,,,,,,,,,,,,,,,,,,,,,,6101fa06a9c401859f5a40e4,61036bb2bb1416c61fa9c1d0,2021-07-29_20h02.41.128,Simcolourproject_2stim_asymm_v5,2020.2.10,MacIntel,60,61025ae37ef11b136ea224fe,,,,,,,,,1937,85,-49,1,0,0,response3disk,,5,7,6,1,0,0,rectangle,7,6,1,0,0,7,6,1,0,0,1,76,236,114,1,,,,,,,,
,,,,,,,,,,,,,FF,,,,,,,,1.447,,,,,,,,,,,,,,,,,,,,,,6101fa06a9c401859f5a40e4,61036bb2bb1416c61fa9c1d0,2021-07-29_20h02.41.128,Simcolourproject_2stim_asymm_v5,2020.2.10,MacIntel,60,61025ae37ef11b136ea224fe,,,,,,,,,3513,-35,-91,1,0,0,response5disk,,3,4,4,1,0,0,rectangle,4,4,1,0,0,4,4,1,0,0,1,77,237,140,1,,,,,,,,
,,,,,,,,,,,,,FF,,,,,,,,1.333,,,,,,,,,,,,,,,,,,,,,,6101fa06a9c401859f5a40e4,61036bb2bb1416c61fa9c1d0,2021-07-29_20h02.41.128,Simcolourproject_2stim_asymm_v5,2020.2.10,MacIntel,60,61025ae37ef11b136ea224fe,,,,,,,,,3325,40,35,1,0,0,response1disk,,6,14,8,1,0,0,rectangle,14,8,1,0,0,14,8,1,0,0,1,78,238,98,1,,,,,,,,
,,,,,,,,,,,,,FF,,,,,,,,2.117,,,,,,,,,,,,,,,,,,,,,,6101fa06a9c401859f5a40e4,61036bb2bb1416c61fa9c1d0,2021-07-29_20h02.41.128,Simcolourproject_2stim_asymm_v5,2020.2.10,MacIntel,60,61025ae37ef11b136ea224fe,,,,,,,,,2348,-35,-90,1,0,0,response5disk,,3,-4,-13,1,0,0,rectangle,-4,-13,1,0,0,-4,-13,1,0,0,1,79,239,84,1,,,,,,,,
,,,,,,,,,,,,,FF,,,,,,,,0.983,,,,,,,,,,,,,,,,,,,,,,6101fa06a9c401859f5a40e4,61036bb2bb1416c61fa9c1d0,2021-07-29_20h02.41.128,Simcolourproject_2stim_asymm_v5,2020.2.10,MacIntel,60,61025ae37ef11b136ea224fe,,,,,,,,,2516,85,-51,1,0,0,response3disk,,5,21,0,1,0,0,rectangle,21,0,1,0,0,21,0,1,0,0,1,80,240,153,1,,,,,,,,
,,,,,,,,,,,,,FF,,,,,,,,3.461,,,,,,,,,,,,,,,,,,,,,,6101fa06a9c401859f5a40e4,61036bb2bb1416c61fa9c1d0,2021-07-29_20h02.41.128,Simcolourproject_2stim_asymm_v5,2020.2.10,MacIntel,60,61025ae37ef11b136ea224fe,,,,,,,,,4355,81,-29,1,0,0,response3disk,,5,17,-7,1,0,0,rectangle,17,-7,1,0,0,17,-7,1,0,0,1,81,241,75,1,,,,,,,,
,,,,,,,,,,,,,FF,,,,,,,,2.201,,,,,,,,,,,,,,,,,,,,,,6101fa06a9c401859f5a40e4,61036bb2bb1416c61fa9c1d0,2021-07-29_20h02.41.128,Simcolourproject_2stim_asymm_v5,2020.2.10,MacIntel,60,61025ae37ef11b136ea224fe,,,,,,,,,4093,67,64,1,0,0,response1disk,,6,22,15,1,0,0,rectangle,22,15,1,0,0,22,15,1,0,0,1,82,242,85,1,,,,,,,,
,,,,,,,,,,,,,FF,,,,,,,,0.775,,,,,,,,,,,,,,,,,,,,,,6101fa06a9c401859f5a40e4,61036bb2bb1416c61fa9c1d0,2021-07-29_20h02.41.128,Simcolourproject_2stim_asymm_v5,2020.2.10,MacIntel,60,61025ae37ef11b136ea224fe,,,,,,,,,1903,-32,-54,1,0,0,response5disk,,3,-18,1,1,0,0,rectangle,-18,1,1,0,0,-18,1,1,0,0,1,83,243,73,1,,,,,,,,
,,,,,,,,,,,,,FF,,,,,,,,0.709,,,,,,,,,,,,,,,,,,,,,,6101fa06a9c401859f5a40e4,61036bb2bb1416c61fa9c1d0,2021-07-29_20h02.41.128,Simcolourproject_2stim_asymm_v5,2020.2.10,MacIntel,60,61025ae37ef11b136ea224fe,,,,,,,,,4135,42,-77,1,0,0,response3disk,,4,19,3,1,0,0,rectangle,19,3,1,0,0,19,3,1,0,0,1,84,244,16,1,,,,,,,,
,,,,,,,,,,,,,FF,,,,,,,,1.605,,,,,,,,,,,,,,,,,,,,,,6101fa06a9c401859f5a40e4,61036bb2bb1416c61fa9c1d0,2021-07-29_20h02.41.128,Simcolourproject_2stim_asymm_v5,2020.2.10,MacIntel,60,61025ae37ef11b136ea224fe,,,,,,,,,2288,39,-81,1,0,0,response3disk,,4,8,6,1,0,0,rectangle,8,6,1,0,0,8,6,1,0,0,1,85,245,136,1,,,,,,,,
,,,,,,,,,,,,,FF,,,,,,,,0.784,,,,,,,,,,,,,,,,,,,,,,6101fa06a9c401859f5a40e4,61036bb2bb1416c61fa9c1d0,2021-07-29_20h02.41.128,Simcolourproject_2stim_asymm_v5,2020.2.10,MacIntel,60,61025ae37ef11b136ea224fe,,,,,,,,,916,61,72,1,0,0,response1disk,,7,5,-5,1,0,0,rectangle,5,-5,1,0,0,5,-5,1,0,0,1,86,246,118,1,,,,,,,,
,,,,,,,,,,,,,FF,,,,,,,,1.65,,,,,,,,,,,,,,,,,,,,,,6101fa06a9c401859f5a40e4,61036bb2bb1416c61fa9c1d0,2021-07-29_20h02.41.128,Simcolourproject_2stim_asymm_v5,2020.2.10,MacIntel,60,61025ae37ef11b136ea224fe,,,,,,,,,4074,55,27,1,0,0,response1disk,,6,12,6,1,0,0,rectangle,12,6,1,0,0,12,6,1,0,0,1,87,247,95,1,,,,,,,,
,,,,,,,,,,,,,FF,,,,,,,,0.845,,,,,,,,,,,,,,,,,,,,,,6101fa06a9c401859f5a40e4,61036bb2bb1416c61fa9c1d0,2021-07-29_20h02.41.128,Simcolourproject_2stim_asymm_v5,2020.2.10,MacIntel,60,61025ae37ef11b136ea224fe,,,,,,,,,4317,-36,-81,1,0,0,response5disk,,3,0,0,1,0,0,rectangle,0,0,1,0,0,0,0,1,0,0,1,88,248,24,1,,,,,,,,
,,,,,,,,,,,,,FF,,,,,,,,1.154,,,,,,,,,,,,,,,,,,,,,,6101fa06a9c401859f5a40e4,61036bb2bb1416c61fa9c1d0,2021-07-29_20h02.41.128,Simcolourproject_2stim_asymm_v5,2020.2.10,MacIntel,60,61025ae37ef11b136ea224fe,,,,,,,,,1215,-44,-68,1,0,0,response5disk,,3,-8,10,1,0,0,rectangle,-8,10,1,0,0,-8,10,1,0,0,1,89,249,158,1,,,,,,,,
,,,,,,,,,,,,,FF,,,,,,,,0.766,,,,,,,,,,,,,,,,,,,,,,6101fa06a9c401859f5a40e4,61036bb2bb1416c61fa9c1d0,2021-07-29_20h02.41.128,Simcolourproject_2stim_asymm_v5,2020.2.10,MacIntel,60,61025ae37ef11b136ea224fe,,,,,,,,,1318,89,-51,1,0,0,response3disk,,5,23,2,1,0,0,rectangle,23,2,1,0,0,23,2,1,0,0,1,90,250,154,1,,,,,,,,
,,,,,,,,,,,,,FF,,,,,,,,0.8,,,,,,,,,,,,,,,,,,,,,,6101fa06a9c401859f5a40e4,61036bb2bb1416c61fa9c1d0,2021-07-29_20h02.41.128,Simcolourproject_2stim_asymm_v5,2020.2.10,MacIntel,60,61025ae37ef11b136ea224fe,,,,,,,,,3535,31,80,1,0,0,response1disk,,7,9,2,1,0,0,rectangle,9,2,1,0,0,9,2,1,0,0,1,91,251,65,1,,,,,,,,
,,,,,,,,,,,,,FF,,,,,,,,0.767,,,,,,,,,,,,,,,,,,,,,,6101fa06a9c401859f5a40e4,61036bb2bb1416c61fa9c1d0,2021-07-29_20h02.41.128,Simcolourproject_2stim_asymm_v5,2020.2.10,MacIntel,60,61025ae37ef11b136ea224fe,,,,,,,,,3243,-21,66,1,0,0,response7disk,,0,-18,-2,1,0,0,rectangle,-18,-2,1,0,0,-18,-2,1,0,0,1,92,252,119,1,,,,,,,,
,,,,,,,,,,,,,FF,,,,,,,,0.702,,,,,,,,,,,,,,,,,,,,,,6101fa06a9c401859f5a40e4,61036bb2bb1416c61fa9c1d0,2021-07-29_20h02.41.128,Simcolourproject_2stim_asymm_v5,2020.2.10,MacIntel,60,61025ae37ef11b136ea224fe,,,,,,,,,1466,82,19,1,0,0,response1disk,,6,18,5,1,0,0,rectangle,18,5,1,0,0,18,5,1,0,0,1,93,253,112,1,,,,,,,,
,,,,,,,,,,,,,FF,,,,,,,,1.156,,,,,,,,,,,,,,,,,,,,,,6101fa06a9c401859f5a40e4,61036bb2bb1416c61fa9c1d0,2021-07-29_20h02.41.128,Simcolourproject_2stim_asymm_v5,2020.2.10,MacIntel,60,61025ae37ef11b136ea224fe,,,,,,,,,3148,-55,-62,1,0,0,response5disk,,3,-5,3,1,0,0,rectangle,-5,3,1,0,0,-5,3,1,0,0,1,94,254,47,1,,,,,,,,
,,,,,,,,,,,,,FF,,,,,,,,0.651,,,,,,,,,,,,,,,,,,,,,,6101fa06a9c401859f5a40e4,61036bb2bb1416c61fa9c1d0,2021-07-29_20h02.41.128,Simcolourproject_2stim_asymm_v5,2020.2.10,MacIntel,60,61025ae37ef11b136ea224fe,,,,,,,,,2269,83,-51,1,0,0,response3disk,,5,-13,3,1,0,0,rectangle,-13,3,1,0,0,-13,3,1,0,0,1,95,255,138,1,,,,,,,,
,,,,,,,,,,,,,FF,,,,,,,,0.867,,,,,,,,,,,,,,,,,,,,,,6101fa06a9c401859f5a40e4,61036bb2bb1416c61fa9c1d0,2021-07-29_20h02.41.128,Simcolourproject_2stim_asymm_v5,2020.2.10,MacIntel,60,61025ae37ef11b136ea224fe,,,,,,,,,2886,-54,84,1,0,0,response7disk,,0,0,-5,1,0,0,rectangle,0,-5,1,0,0,0,-5,1,0,0,1,96,256,78,1,,,,,,,,
,,,,,,,,,,,,,FF,,,,,,,,0.783,,,,,,,,,,,,,,,,,,,,,,6101fa06a9c401859f5a40e4,61036bb2bb1416c61fa9c1d0,2021-07-29_20h02.41.128,Simcolourproject_2stim_asymm_v5,2020.2.10,MacIntel,60,61025ae37ef11b136ea224fe,,,,,,,,,1182,51,65,1,0,0,response1disk,,7,15,-2,1,0,0,rectangle,15,-2,1,0,0,15,-2,1,0,0,1,97,257,97,1,,,,,,,,
,,,,,,,,,,,,,FF,,,,,,,,0.815,,,,,,,,,,,,,,,,,,,,,,6101fa06a9c401859f5a40e4,61036bb2bb1416c61fa9c1d0,2021-07-29_20h02.41.128,Simcolourproject_2stim_asymm_v5,2020.2.10,MacIntel,60,61025ae37ef11b136ea224fe,,,,,,,,,3800,29,71,1,0,0,response1disk,,7,20,2,1,0,0,rectangle,20,2,1,0,0,20,2,1,0,0,1,98,258,157,1,,,,,,,,
,,,,,,,,,,,,,FF,,,,,,,,0.733,,,,,,,,,,,,,,,,,,,,,,6101fa06a9c401859f5a40e4,61036bb2bb1416c61fa9c1d0,2021-07-29_20h02.41.128,Simcolourproject_2stim_asymm_v5,2020.2.10,MacIntel,60,61025ae37ef11b136ea224fe,,,,,,,,,3581,63,-38,1,0,0,response3disk,,5,6,2,1,0,0,rectangle,6,2,1,0,0,6,2,1,0,0,1,99,259,26,1,,,,,,,,
,,,,,,,,,,,,,FF,,,,,,,,0.646,,,,,,,,,,,,,,,,,,,,,,6101fa06a9c401859f5a40e4,61036bb2bb1416c61fa9c1d0,2021-07-29_20h02.41.128,Simcolourproject_2stim_asymm_v5,2020.2.10,MacIntel,60,61025ae37ef11b136ea224fe,,,,,,,,,3170,53,28,1,0,0,response1disk,,6,13,7,1,0,0,rectangle,13,7,1,0,0,13,7,1,0,0,1,100,260,81,1,,,,,,,,
,,,,,,,,,,,,,FF,,,,,,,,0.51,,,,,,,,,,,,,,,,,,,,,,6101fa06a9c401859f5a40e4,61036bb2bb1416c61fa9c1d0,2021-07-29_20h02.41.128,Simcolourproject_2stim_asymm_v5,2020.2.10,MacIntel,60,61025ae37ef11b136ea224fe,,,,,,,,,1729,23,-70,1,0,0,response3disk,,4,-6,-8,1,0,0,rectangle,-6,-8,1,0,0,-6,-8,1,0,0,1,101,261,14,1,,,,,,,,
,,,,,,,,,,,,,FF,,,,,,,,1.65,,,,,,,,,,,,,,,,,,,,,,6101fa06a9c401859f5a40e4,61036bb2bb1416c61fa9c1d0,2021-07-29_20h02.41.128,Simcolourproject_2stim_asymm_v5,2020.2.10,MacIntel,60,61025ae37ef11b136ea224fe,,,,,,,,,1467,-24,-68,1,0,0,response5disk,,3,6,-3,1,0,0,rectangle,6,-3,1,0,0,6,-3,1,0,0,1,102,262,150,1,,,,,,,,
,,,,,,,,,,,,,FF,,,,,,,,1.08,,,,,,,,,,,,,,,,,,,,,,6101fa06a9c401859f5a40e4,61036bb2bb1416c61fa9c1d0,2021-07-29_20h02.41.128,Simcolourproject_2stim_asymm_v5,2020.2.10,MacIntel,60,61025ae37ef11b136ea224fe,,,,,,,,,3618,48,-75,1,0,0,response3disk,,4,12,-5,1,0,0,rectangle,12,-5,1,0,0,12,-5,1,0,0,1,103,263,159,1,,,,,,,,
,,,,,,,,,,,,,FF,,,,,,,,0.63,,,,,,,,,,,,,,,,,,,,,,6101fa06a9c401859f5a40e4,61036bb2bb1416c61fa9c1d0,2021-07-29_20h02.41.128,Simcolourproject_2stim_asymm_v5,2020.2.10,MacIntel,60,61025ae37ef11b136ea224fe,,,,,,,,,852,31,-65,1,0,0,response3disk,,4,4,-4,1,0,0,rectangle,4,-4,1,0,0,4,-4,1,0,0,1,104,264,29,1,,,,,,,,
,,,,,,,,,,,,,FF,,,,,,,,0.521,,,,,,,,,,,,,,,,,,,,,,6101fa06a9c401859f5a40e4,61036bb2bb1416c61fa9c1d0,2021-07-29_20h02.41.128,Simcolourproject_2stim_asymm_v5,2020.2.10,MacIntel,60,61025ae37ef11b136ea224fe,,,,,,,,,3270,68,-38,1,0,0,response3disk,,5,-1,14,1,0,0,rectangle,-1,14,1,0,0,-1,14,1,0,0,1,105,265,2,1,,,,,,,,
,,,,,,,,,,,,,FF,,,,,,,,0.738,,,,,,,,,,,,,,,,,,,,,,6101fa06a9c401859f5a40e4,61036bb2bb1416c61fa9c1d0,2021-07-29_20h02.41.128,Simcolourproject_2stim_asymm_v5,2020.2.10,MacIntel,60,61025ae37ef11b136ea224fe,,,,,,,,,3027,36,59,1,0,0,response1disk,,7,10,11,1,0,0,rectangle,10,11,1,0,0,10,11,1,0,0,1,106,266,21,1,,,,,,,,
,,,,,,,,,,,,,FF,,,,,,,,0.819,,,,,,,,,,,,,,,,,,,,,,6101fa06a9c401859f5a40e4,61036bb2bb1416c61fa9c1d0,2021-07-29_20h02.41.128,Simcolourproject_2stim_asymm_v5,2020.2.10,MacIntel,60,61025ae37ef11b136ea224fe,,,,,,,,,907,-48,-75,1,0,0,response5disk,,3,-12,-12,1,0,0,rectangle,-12,-12,1,0,0,-12,-12,1,0,0,1,107,267,37,1,,,,,,,,
,,,,,,,,,,,,,FF,,,,,,,,1.053,,,,,,,,,,,,,,,,,,,,,,6101fa06a9c401859f5a40e4,61036bb2bb1416c61fa9c1d0,2021-07-29_20h02.41.128,Simcolourproject_2stim_asymm_v5,2020.2.10,MacIntel,60,61025ae37ef11b136ea224fe,,,,,,,,,82,72,28,1,0,0,response1disk,,6,23,-5,1,0,0,rectangle,23,-5,1,0,0,23,-5,1,0,0,1,108,268,149,1,,,,,,,,
,,,,,,,,,,,,,FF,,,,,,,,2.179,,,,,,,,,,,,,,,,,,,,,,6101fa06a9c401859f5a40e4,61036bb2bb1416c61fa9c1d0,2021-07-29_20h02.41.128,Simcolourproject_2stim_asymm_v5,2020.2.10,MacIntel,60,61025ae37ef11b136ea224fe,,,,,,,,,2259,-33,-55,1,0,0,response5disk,,3,-8,2,1,0,0,rectangle,-8,2,1,0,0,-8,2,1,0,0,1,109,269,28,1,,,,,,,,
,,,,,,,,,,,,,FF,,,,,,,,0.951,,,,,,,,,,,,,,,,,,,,,,6101fa06a9c401859f5a40e4,61036bb2bb1416c61fa9c1d0,2021-07-29_20h02.41.128,Simcolourproject_2stim_asymm_v5,2020.2.10,MacIntel,60,61025ae37ef11b136ea224fe,,,,,,,,,3141,26,-55,1,0,0,response3disk,,4,-4,0,1,0,0,rectangle,-4,0,1,0,0,-4,0,1,0,0,1,110,270,7,1,,,,,,,,
,,,,,,,,,,,,,FF,,,,,,,,1.735,,,,,,,,,,,,,,,,,,,,,,6101fa06a9c401859f5a40e4,61036bb2bb1416c61fa9c1d0,2021-07-29_20h02.41.128,Simcolourproject_2stim_asymm_v5,2020.2.10,MacIntel,60,61025ae37ef11b136ea224fe,,,,,,,,,2102,-36,-92,1,0,0,response5disk,,3,-8,-13,1,0,0,rectangle,-8,-13,1,0,0,-8,-13,1,0,0,1,111,271,62,1,,,,,,,,
,,,,,,,,,,,,,FF,,,,,,,,0.709,,,,,,,,,,,,,,,,,,,,,,6101fa06a9c401859f5a40e4,61036bb2bb1416c61fa9c1d0,2021-07-29_20h02.41.128,Simcolourproject_2stim_asymm_v5,2020.2.10,MacIntel,60,61025ae37ef11b136ea224fe,,,,,,,,,1709,54,-49,1,0,0,response3disk,,5,-36,9,1,0,0,rectangle,-36,9,1,0,0,-36,9,1,0,0,1,112,272,60,1,,,,,,,,
,,,,,,,,,,,,,FF,,,,,,,,0.778,,,,,,,,,,,,,,,,,,,,,,6101fa06a9c401859f5a40e4,61036bb2bb1416c61fa9c1d0,2021-07-29_20h02.41.128,Simcolourproject_2stim_asymm_v5,2020.2.10,MacIntel,60,61025ae37ef11b136ea224fe,,,,,,,,,3617,58,17,1,0,0,response1disk,,6,2,13,1,0,0,rectangle,2,13,1,0,0,2,13,1,0,0,1,113,273,151,1,,,,,,,,
,,,,,,,,,,,,,FF,,,,,,,,0.852,,,,,,,,,,,,,,,,,,,,,,6101fa06a9c401859f5a40e4,61036bb2bb1416c61fa9c1d0,2021-07-29_20h02.41.128,Simcolourproject_2stim_asymm_v5,2020.2.10,MacIntel,60,61025ae37ef11b136ea224fe,,,,,,,,,1509,59,-34,1,0,0,response3disk,,5,5,-13,1,0,0,rectangle,5,-13,1,0,0,5,-13,1,0,0,1,114,274,20,1,,,,,,,,
,,,,,,,,,,,,,FF,,,,,,,,1.178,,,,,,,,,,,,,,,,,,,,,,6101fa06a9c401859f5a40e4,61036bb2bb1416c61fa9c1d0,2021-07-29_20h02.41.128,Simcolourproject_2stim_asymm_v5,2020.2.10,MacIntel,60,61025ae37ef11b136ea224fe,,,,,,,,,1355,57,-40,1,0,0,response3disk,,5,4,1,1,0,0,rectangle,4,1,1,0,0,4,1,1,0,0,1,115,275,68,1,,,,,,,,
,,,,,,,,,,,,,FF,,,,,,,,0.79,,,,,,,,,,,,,,,,,,,,,,6101fa06a9c401859f5a40e4,61036bb2bb1416c61fa9c1d0,2021-07-29_20h02.41.128,Simcolourproject_2stim_asymm_v5,2020.2.10,MacIntel,60,61025ae37ef11b136ea224fe,,,,,,,,,3523,38,-79,1,0,0,response3disk,,4,2,-7,1,0,0,rectangle,2,-7,1,0,0,2,-7,1,0,0,1,116,276,123,1,,,,,,,,
,,,,,,,,,,,,,FF,,,,,,,,1.546,,,,,,,,,,,,,,,,,,,,,,6101fa06a9c401859f5a40e4,61036bb2bb1416c61fa9c1d0,2021-07-29_20h02.41.128,Simcolourproject_2stim_asymm_v5,2020.2.10,MacIntel,60,61025ae37ef11b136ea224fe,,,,,,,,,3846,33,-77,1,0,0,response3disk,,4,1,-16,1,0,0,rectangle,1,-16,1,0,0,1,-16,1,0,0,1,117,277,91,1,,,,,,,,
,,,,,,,,,,,,,FF,,,,,,,,1.368,,,,,,,,,,,,,,,,,,,,,,6101fa06a9c401859f5a40e4,61036bb2bb1416c61fa9c1d0,2021-07-29_20h02.41.128,Simcolourproject_2stim_asymm_v5,2020.2.10,MacIntel,60,61025ae37ef11b136ea224fe,,,,,,,,,662,41,-56,1,0,0,response3disk,,4,22,-15,1,0,0,rectangle,22,-15,1,0,0,22,-15,1,0,0,1,118,278,80,1,,,,,,,,
,,,,,,,,,,,,,FF,,,,,,,,0.729,,,,,,,,,,,,,,,,,,,,,,6101fa06a9c401859f5a40e4,61036bb2bb1416c61fa9c1d0,2021-07-29_20h02.41.128,Simcolourproject_2stim_asymm_v5,2020.2.10,MacIntel,60,61025ae37ef11b136ea224fe,,,,,,,,,1312,-48,-39,1,0,0,response5disk,,2,-27,6,1,0,0,rectangle,-27,6,1,0,0,-27,6,1,0,0,1,119,279,38,1,,,,,,,,
,,,,,,,,,,,,,FF,,,,,,,,0.895,,,,,,,,,,,,,,,,,,,,,,6101fa06a9c401859f5a40e4,61036bb2bb1416c61fa9c1d0,2021-07-29_20h02.41.128,Simcolourproject_2stim_asymm_v5,2020.2.10,MacIntel,60,61025ae37ef11b136ea224fe,,,,,,,,,1996,66,28,1,0,0,response1disk,,6,9,-8,1,0,0,rectangle,9,-8,1,0,0,9,-8,1,0,0,1,120,280,25,1,,,,,,,,
,,,,,,,,,,,,,FF,,,,,,,,0.783,,,,,,,,,,,,,,,,,,,,,,6101fa06a9c401859f5a40e4,61036bb2bb1416c61fa9c1d0,2021-07-29_20h02.41.128,Simcolourproject_2stim_asymm_v5,2020.2.10,MacIntel,60,61025ae37ef11b136ea224fe,,,,,,,,,4069,66,38,1,0,0,response1disk,,6,7,-10,1,0,0,rectangle,90,-52,1,0,0,16,1,1,0,0,1,121,281,146,1,,response3disk_3,TRUE,5,5,"[220,282,3,176,145,59,61,14,107,204,143,291,182,138,306,0,106,9,37,48]",2.208,rectangle
,,,,,,,,,,,,,FF,,,,,,,,0.815,,,,,,,,,,,,,,,,,,,,,,6101fa06a9c401859f5a40e4,61036bb2bb1416c61fa9c1d0,2021-07-29_20h02.41.128,Simcolourproject_2stim_asymm_v5,2020.2.10,MacIntel,60,61025ae37ef11b136ea224fe,,,,,,,,,3896,-28,-54,1,0,0,response5disk,,3,-15,1,1,0,0,rectangle,-15,1,1,0,0,-15,1,1,0,0,1,122,282,100,1,,,,,,,,
,,,,,,,,,,,,,FF,,,,,,,,1.575,,,,,,,,,,,,,,,,,,,,,,6101fa06a9c401859f5a40e4,61036bb2bb1416c61fa9c1d0,2021-07-29_20h02.41.128,Simcolourproject_2stim_asymm_v5,2020.2.10,MacIntel,60,61025ae37ef11b136ea224fe,,,,,,,,,2919,51,-75,1,0,0,response3disk,,4,-11,-2,1,0,0,rectangle,-11,-2,1,0,0,-11,-2,1,0,0,1,123,283,35,1,,,,,,,,
,,,,,,,,,,,,,FF,,,,,,,,0.801,,,,,,,,,,,,,,,,,,,,,,6101fa06a9c401859f5a40e4,61036bb2bb1416c61fa9c1d0,2021-07-29_20h02.41.128,Simcolourproject_2stim_asymm_v5,2020.2.10,MacIntel,60,61025ae37ef11b136ea224fe,,,,,,,,,210,58,-34,1,0,0,response3disk,,5,5,9,1,0,0,rectangle,5,9,1,0,0,5,9,1,0,0,1,124,284,147,1,,,,,,,,
,,,,,,,,,,,,,FF,,,,,,,,1.166,,,,,,,,,,,,,,,,,,,,,,6101fa06a9c401859f5a40e4,61036bb2bb1416c61fa9c1d0,2021-07-29_20h02.41.128,Simcolourproject_2stim_asymm_v5,2020.2.10,MacIntel,60,61025ae37ef11b136ea224fe,,,,,,,,,134,28,-71,1,0,0,response3disk,,4,4,-1,1,0,0,rectangle,4,-1,1,0,0,4,-1,1,0,0,1,125,285,41,1,,,,,,,,
,,,,,,,,,,,,,FF,,,,,,,,1.254,,,,,,,,,,,,,,,,,,,,,,6101fa06a9c401859f5a40e4,61036bb2bb1416c61fa9c1d0,2021-07-29_20h02.41.128,Simcolourproject_2stim_asymm_v5,2020.2.10,MacIntel,60,61025ae37ef11b136ea224fe,,,,,,,,,3060,-43,-70,1,0,0,response5disk,,3,-23,-1,1,0,0,rectangle,-23,-1,1,0,0,-23,-1,1,0,0,1,126,286,104,1,,,,,,,,
,,,,,,,,,,,,,FF,,,,,,,,0.687,,,,,,,,,,,,,,,,,,,,,,6101fa06a9c401859f5a40e4,61036bb2bb1416c61fa9c1d0,2021-07-29_20h02.41.128,Simcolourproject_2stim_asymm_v5,2020.2.10,MacIntel,60,61025ae37ef11b136ea224fe,,,,,,,,,3481,-41,-60,1,0,0,response5disk,,3,-8,8,1,0,0,rectangle,-8,8,1,0,0,-8,8,1,0,0,1,127,287,5,1,,,,,,,,
,,,,,,,,,,,,,FF,,,,,,,,0.611,,,,,,,,,,,,,,,,,,,,,,6101fa06a9c401859f5a40e4,61036bb2bb1416c61fa9c1d0,2021-07-29_20h02.41.128,Simcolourproject_2stim_asymm_v5,2020.2.10,MacIntel,60,61025ae37ef11b136ea224fe,,,,,,,,,64,-64,-50,1,0,0,response5disk,,2,-5,5,1,0,0,rectangle,-5,5,1,0,0,-5,5,1,0,0,1,128,288,139,1,,,,,,,,
,,,,,,,,,,,,,FF,,,,,,,,0.722,,,,,,,,,,,,,,,,,,,,,,6101fa06a9c401859f5a40e4,61036bb2bb1416c61fa9c1d0,2021-07-29_20h02.41.128,Simcolourproject_2stim_asymm_v5,2020.2.10,MacIntel,60,61025ae37ef11b136ea224fe,,,,,,,,,405,58,-21,1,0,0,response3disk,,5,-15,-1,1,0,0,rectangle,-15,-1,1,0,0,-15,-1,1,0,0,1,129,289,117,1,,,,,,,,
,,,,,,,,,,,,,FF,,,,,,,,0.955,,,,,,,,,,,,,,,,,,,,,,6101fa06a9c401859f5a40e4,61036bb2bb1416c61fa9c1d0,2021-07-29_20h02.41.128,Simcolourproject_2stim_asymm_v5,2020.2.10,MacIntel,60,61025ae37ef11b136ea224fe,,,,,,,,,666,56,66,1,0,0,response1disk,,7,16,-4,1,0,0,rectangle,-47,85,1,0,0,-4,-7,1,0,0,1,130,290,134,1,,response7disk_3,TRUE,0,0,"[220,282,3,176,145,59,61,14,107,204,143,291,182,138,306,0,106,9,37,48]",1.822,rectangle
,,,,,,,,,,,,,FF,,,,,,,,0.765,,,,,,,,,,,,,,,,,,,,,,6101fa06a9c401859f5a40e4,61036bb2bb1416c61fa9c1d0,2021-07-29_20h02.41.128,Simcolourproject_2stim_asymm_v5,2020.2.10,MacIntel,60,61025ae37ef11b136ea224fe,,,,,,,,,1003,82,-39,1,0,0,response3disk,,5,4,-6,1,0,0,rectangle,4,-6,1,0,0,4,-6,1,0,0,1,131,291,52,1,,,,,,,,
,,,,,,,,,,,,,FF,,,,,,,,0.743,,,,,,,,,,,,,,,,,,,,,,6101fa06a9c401859f5a40e4,61036bb2bb1416c61fa9c1d0,2021-07-29_20h02.41.128,Simcolourproject_2stim_asymm_v5,2020.2.10,MacIntel,60,61025ae37ef11b136ea224fe,,,,,,,,,83,-28,-67,1,0,0,response5disk,,3,-20,17,1,0,0,rectangle,-20,17,1,0,0,-20,17,1,0,0,1,132,292,103,1,,,,,,,,
,,,,,,,,,,,,,FF,,,,,,,,0.821,,,,,,,,,,,,,,,,,,,,,,6101fa06a9c401859f5a40e4,61036bb2bb1416c61fa9c1d0,2021-07-29_20h02.41.128,Simcolourproject_2stim_asymm_v5,2020.2.10,MacIntel,60,61025ae37ef11b136ea224fe,,,,,,,,,262,-30,90,1,0,0,response7disk,,0,0,7,1,0,0,rectangle,0,7,1,0,0,0,7,1,0,0,1,133,293,46,1,,,,,,,,
,,,,,,,,,,,,,FF,,,,,,,,3.93,,,,,,,,,,,,,,,,,,,,,,6101fa06a9c401859f5a40e4,61036bb2bb1416c61fa9c1d0,2021-07-29_20h02.41.128,Simcolourproject_2stim_asymm_v5,2020.2.10,MacIntel,60,61025ae37ef11b136ea224fe,,,,,,,,,203,52,-91,1,0,0,response3disk,,4,5,2,1,0,0,rectangle,5,2,1,0,0,5,2,1,0,0,1,134,294,70,1,,,,,,,,
,,,,,,,,,,,,,FF,,,,,,,,1.208,,,,,,,,,,,,,,,,,,,,,,6101fa06a9c401859f5a40e4,61036bb2bb1416c61fa9c1d0,2021-07-29_20h02.41.128,Simcolourproject_2stim_asymm_v5,2020.2.10,MacIntel,60,61025ae37ef11b136ea224fe,,,,,,,,,902,-35,-76,1,0,0,response5disk,,3,-13,-2,1,0,0,rectangle,-13,-2,1,0,0,-13,-2,1,0,0,1,135,295,111,1,,,,,,,,
,,,,,,,,,,,,,FF,,,,,,,,1.075,,,,,,,,,,,,,,,,,,,,,,6101fa06a9c401859f5a40e4,61036bb2bb1416c61fa9c1d0,2021-07-29_20h02.41.128,Simcolourproject_2stim_asymm_v5,2020.2.10,MacIntel,60,61025ae37ef11b136ea224fe,,,,,,,,,683,42,-70,1,0,0,response3disk,,4,15,-8,1,0,0,rectangle,15,-8,1,0,0,15,-8,1,0,0,1,136,296,49,1,,,,,,,,
,,,,,,,,,,,,,FF,,,,,,,,1.146,,,,,,,,,,,,,,,,,,,,,,6101fa06a9c401859f5a40e4,61036bb2bb1416c61fa9c1d0,2021-07-29_20h02.41.128,Simcolourproject_2stim_asymm_v5,2020.2.10,MacIntel,60,61025ae37ef11b136ea224fe,,,,,,,,,1545,106,-30,1,0,0,response3disk,,5,18,-15,1,0,0,rectangle,18,-15,1,0,0,18,-15,1,0,0,1,137,297,9,1,,,,,,,,
,,,,,,,,,,,,,FF,,,,,,,,1.184,,,,,,,,,,,,,,,,,,,,,,6101fa06a9c401859f5a40e4,61036bb2bb1416c61fa9c1d0,2021-07-29_20h02.41.128,Simcolourproject_2stim_asymm_v5,2020.2.10,MacIntel,60,61025ae37ef11b136ea224fe,,,,,,,,,4311,40,28,1,0,0,response1disk,,6,-3,4,1,0,0,rectangle,-3,4,1,0,0,-3,4,1,0,0,1,138,298,31,1,,,,,,,,
,,,,,,,,,,,,,FF,,,,,,,,0.7,,,,,,,,,,,,,,,,,,,,,,6101fa06a9c401859f5a40e4,61036bb2bb1416c61fa9c1d0,2021-07-29_20h02.41.128,Simcolourproject_2stim_asymm_v5,2020.2.10,MacIntel,60,61025ae37ef11b136ea224fe,,,,,,,,,2764,54,-32,1,0,0,response3disk,,5,15,-5,1,0,0,rectangle,15,-5,1,0,0,15,-5,1,0,0,1,139,299,142,1,,,,,,,,
,,,,,,,,,,,,,FF,,,,,,,,1.025,,,,,,,,,,,,,,,,,,,,,,6101fa06a9c401859f5a40e4,61036bb2bb1416c61fa9c1d0,2021-07-29_20h02.41.128,Simcolourproject_2stim_asymm_v5,2020.2.10,MacIntel,60,61025ae37ef11b136ea224fe,,,,,,,,,3112,-38,-56,1,0,0,response5disk,,3,-31,-11,1,0,0,rectangle,-31,-11,1,0,0,-31,-11,1,0,0,1,140,300,137,1,,,,,,,,
