key_resp.keys,key_resp.rt,key_resp_14.keys,key_resp_14.rt,key_resp_15.keys,key_resp_15.rt,key_resp_17.keys,key_resp_17.rt,key_resp_9.keys,key_resp_9.rt,key_resp_10.keys,key_resp_10.rt,practice_comparison,Ecc,mouse_5.x,mouse_5.y,mouse_5.leftButton,mouse_5.midButton,mouse_5.rightButton,mouse_5.clicked_name,pracsimilarity,response_time,mouse_10.x,mouse_10.y,mouse_10.leftButton,mouse_10.midButton,mouse_10.rightButton,mouse_10.clicked_name,mouse_7.x,mouse_7.y,mouse_7.leftButton,mouse_7.midButton,mouse_7.rightButton,mouse_6.x,mouse_6.y,mouse_6.leftButton,mouse_6.midButton,mouse_6.rightButton,duringprac.thisRepN,duringprac.thisTrialN,duringprac.thisN,duringprac.thisIndex,duringprac.ran,participant,session,date,expName,psychopyVersion,OS,frameRate,study_id,mouse_7.clicked_name,catchpracsimilarity,catch_response_time,catchnumberprac,catchtrialorderprac,mouse_6.clicked_name,key_resp_22.keys,key_resp_22.rt,realcomparison,mouse.x,mouse.y,mouse.leftButton,mouse.midButton,mouse.rightButton,mouse.clicked_name,Colour2,similarity,mouse_2.x,mouse_2.y,mouse_2.leftButton,mouse_2.midButton,mouse_2.rightButton,mouse_2.clicked_name,mouse_3.x,mouse_3.y,mouse_3.leftButton,mouse_3.midButton,mouse_3.rightButton,mouse_11.x,mouse_11.y,mouse_11.leftButton,mouse_11.midButton,mouse_11.rightButton,trials_2.thisRepN,trials_2.thisTrialN,trials_2.thisN,trials_2.thisIndex,trials_2.ran,Colour1,mouse_3.clicked_name,catchornah,catchsimilarity,catchnumber,catchtrialorder,catchRT,mouse_11.clicked_name
space,1.0964,space,9.3631,space,10.3008,space,3.8855,space,0.3551,space,3.8834,3,PF,87.2890625,45.35546875,1,0,0,response1disk_5,6,1.6162,0.6328125,-13.58203125,1,0,0,rectangle_8,0.6328125,-13.58203125,1,0,0,0.6328125,-13.58203125,1,0,0,0,0,0,6,1,6101122085410e70ca020a04,61037521f670281226f4e08e,2021-07-29_21h00.51.345,Simcolourproject_2stim_asymm_v5,2020.2.10,MacIntel,60,61025ae37ef11b136ea224fe,,,,,,,,,,,,,,,,,,,,,,,,,,,,,,,,,,,,,,,,,,,,,,
,,,,,,,,,,,,19,FF,-55.2578125,25.69140625,1,0,0,response7disk_5,1,5.6657,-6.73046875,-3.65234375,1,0,0,rectangle_8,38.94921875,78.28515625,1,0,0,16.26953125,2.9765625,1,0,0,0,1,1,3,1,6101122085410e70ca020a04,61037521f670281226f4e08e,2021-07-29_21h00.51.345,Simcolourproject_2stim_asymm_v5,2020.2.10,MacIntel,60,61025ae37ef11b136ea224fe,response1disk_7,7,3.3836,7,"[2,5]",rectangle_4,,,,,,,,,,,,,,,,,,,,,,,,,,,,,,,,,,,,,,,,
,,,,,,,,,,,,11,PF,87.015625,33.75390625,1,0,0,response1disk_5,6,5.9668,16.05078125,-2.34375,1,0,0,rectangle_8,16.05078125,-2.34375,1,0,0,16.05078125,-2.34375,1,0,0,0,2,2,4,1,6101122085410e70ca020a04,61037521f670281226f4e08e,2021-07-29_21h00.51.345,Simcolourproject_2stim_asymm_v5,2020.2.10,MacIntel,60,61025ae37ef11b136ea224fe,,,,,,,,,,,,,,,,,,,,,,,,,,,,,,,,,,,,,,,,,,,,,,
,,,,,,,,,,,,76,PF,-68.10546875,31.51171875,1,0,0,response7disk_5,1,7.9827,-15.4609375,-6.46484375,1,0,0,rectangle_8,-15.4609375,-6.46484375,1,0,0,-15.4609375,-6.46484375,1,0,0,0,3,3,1,1,6101122085410e70ca020a04,61037521f670281226f4e08e,2021-07-29_21h00.51.345,Simcolourproject_2stim_asymm_v5,2020.2.10,MacIntel,60,61025ae37ef11b136ea224fe,,,,,,,,,,,,,,,,,,,,,,,,,,,,,,,,,,,,,,,,,,,,,,
,,,,,,,,,,,,22,PF,33.73828125,58.8515625,1,0,0,response1disk_5,7,10.1157,5.08203125,0.65234375,1,0,0,rectangle_8,34.06640625,83.37109375,1,0,0,-13.421875,4.06640625,1,0,0,0,4,4,2,1,6101122085410e70ca020a04,61037521f670281226f4e08e,2021-07-29_21h00.51.345,Simcolourproject_2stim_asymm_v5,2020.2.10,MacIntel,60,61025ae37ef11b136ea224fe,response1disk_7,7,2.8326,7,"[2,5]",rectangle_4,,,,,,,,,,,,,,,,,,,,,,,,,,,,,,,,,,,,,,,,
,,,,,,,,,,,,53,FF,45.3671875,87.84375,1,0,0,response1disk_5,7,2.8483,1.66796875,-5.765625,1,0,0,rectangle_8,1.66796875,-5.765625,1,0,0,1.66796875,-5.765625,1,0,0,0,5,5,5,1,6101122085410e70ca020a04,61037521f670281226f4e08e,2021-07-29_21h00.51.345,Simcolourproject_2stim_asymm_v5,2020.2.10,MacIntel,60,61025ae37ef11b136ea224fe,,,,,,,,,,,,,,,,,,,,,,,,,,,,,,,,,,,,,,,,,,,,,,
,,,,,,,,,,,,65,FF,44.3515625,55.03515625,1,0,0,response1disk_5,7,6.6509,15.4921875,13.52734375,1,0,0,rectangle_8,15.4921875,13.52734375,1,0,0,15.4921875,13.52734375,1,0,0,0,6,6,0,1,6101122085410e70ca020a04,61037521f670281226f4e08e,2021-07-29_21h00.51.345,Simcolourproject_2stim_asymm_v5,2020.2.10,MacIntel,60,61025ae37ef11b136ea224fe,,,,,,,,,,,,,,,,,,,,,,,,,,,,,,,,,,,,,,,,,,,,,,
,,,,,,,,,,,,,FF,,,,,,,,3.3838,,,,,,,,,,,,,,,,,,,,,,6101122085410e70ca020a04,61037521f670281226f4e08e,2021-07-29_21h00.51.345,Simcolourproject_2stim_asymm_v5,2020.2.10,MacIntel,60,61025ae37ef11b136ea224fe,,,,,,,space,2.5095,1598,75.390625,-49.7734375,1,0,0,response3disk,,5,0.48828125,0.0859375,1,0,0,rectangle,0.48828125,0.0859375,1,0,0,0.48828125,0.0859375,1,0,0,0,0,0,50,1,,,,,,,,
,,,,,,,,,,,,,FF,,,,,,,,1.267,,,,,,,,,,,,,,,,,,,,,,6101122085410e70ca020a04,61037521f670281226f4e08e,2021-07-29_21h00.51.345,Simcolourproject_2stim_asymm_v5,2020.2.10,MacIntel,60,61025ae37ef11b136ea224fe,,,,,,,,,2766,39.03125,77.953125,1,0,0,response1disk,,7,4.17578125,0.85546875,1,0,0,rectangle,4.17578125,0.85546875,1,0,0,4.17578125,0.85546875,1,0,0,0,1,1,104,1,,,,,,,,
,,,,,,,,,,,,,FF,,,,,,,,1.9327,,,,,,,,,,,,,,,,,,,,,,6101122085410e70ca020a04,61037521f670281226f4e08e,2021-07-29_21h00.51.345,Simcolourproject_2stim_asymm_v5,2020.2.10,MacIntel,60,61025ae37ef11b136ea224fe,,,,,,,,,2313,72.02734375,28.28125,1,0,0,response1disk,,6,7.09765625,-6.07421875,1,0,0,rectangle,7.09765625,-6.07421875,1,0,0,7.09765625,-6.07421875,1,0,0,0,2,2,7,1,,,,,,,,
,,,,,,,,,,,,,FF,,,,,,,,3.7994,,,,,,,,,,,,,,,,,,,,,,6101122085410e70ca020a04,61037521f670281226f4e08e,2021-07-29_21h00.51.345,Simcolourproject_2stim_asymm_v5,2020.2.10,MacIntel,60,61025ae37ef11b136ea224fe,,,,,,,,,3495,31.64453125,49.61328125,1,0,0,response1disk,,7,-1.1875,-16.8046875,1,0,0,rectangle,-1.1875,-16.8046875,1,0,0,-1.1875,-16.8046875,1,0,0,0,3,3,118,1,,,,,,,,
,,,,,,,,,,,,,FF,,,,,,,,1.7512,,,,,,,,,,,,,,,,,,,,,,6101122085410e70ca020a04,61037521f670281226f4e08e,2021-07-29_21h00.51.345,Simcolourproject_2stim_asymm_v5,2020.2.10,MacIntel,60,61025ae37ef11b136ea224fe,,,,,,,,,542,34.94921875,53.5625,1,0,0,response1disk,,7,12.6640625,0.59765625,1,0,0,rectangle,12.6640625,0.59765625,1,0,0,12.6640625,0.59765625,1,0,0,0,4,4,48,1,,,,,,,,
,,,,,,,,,,,,,FF,,,,,,,,2.066,,,,,,,,,,,,,,,,,,,,,,6101122085410e70ca020a04,61037521f670281226f4e08e,2021-07-29_21h00.51.345,Simcolourproject_2stim_asymm_v5,2020.2.10,MacIntel,60,61025ae37ef11b136ea224fe,,,,,,,,,2260,63.77734375,49.234375,1,0,0,response1disk,,6,18.671875,3.00390625,1,0,0,rectangle,18.671875,3.00390625,1,0,0,18.671875,3.00390625,1,0,0,0,5,5,0,1,,,,,,,,
,,,,,,,,,,,,,FF,,,,,,,,27.116,,,,,,,,,,,,,,,,,,,,,,6101122085410e70ca020a04,61037521f670281226f4e08e,2021-07-29_21h00.51.345,Simcolourproject_2stim_asymm_v5,2020.2.10,MacIntel,60,61025ae37ef11b136ea224fe,,,,,,,,,931,65.40234375,41.35546875,1,0,0,response1disk,,6,12.296875,-2.8125,1,0,0,rectangle,36.21484375,89.7265625,1,0,0,-15.27734375,-8.87109375,1,0,0,0,6,6,25,1,,response1disk_3,TRUE,7,7,"[127,167,7,170,266,268,318,170,78,73,42,193,14,105,160,190,165,182,99,280]",1.6339,rectangle
,,,,,,,,,,,,,FF,,,,,,,,2.6493,,,,,,,,,,,,,,,,,,,,,,6101122085410e70ca020a04,61037521f670281226f4e08e,2021-07-29_21h00.51.345,Simcolourproject_2stim_asymm_v5,2020.2.10,MacIntel,60,61025ae37ef11b136ea224fe,,,,,,,,,239,36.30859375,73.87109375,1,0,0,response1disk,,7,3.50390625,8.3515625,1,0,0,rectangle,3.50390625,8.3515625,1,0,0,3.50390625,8.3515625,1,0,0,0,7,7,83,1,,,,,,,,
,,,,,,,,,,,,,FF,,,,,,,,4.7001,,,,,,,,,,,,,,,,,,,,,,6101122085410e70ca020a04,61037521f670281226f4e08e,2021-07-29_21h00.51.345,Simcolourproject_2stim_asymm_v5,2020.2.10,MacIntel,60,61025ae37ef11b136ea224fe,,,,,,,,,1939,35.2265625,56.5,1,0,0,response1disk,,7,16.81640625,6.390625,1,0,0,rectangle,16.81640625,6.390625,1,0,0,16.81640625,6.390625,1,0,0,0,8,8,54,1,,,,,,,,
,,,,,,,,,,,,,FF,,,,,,,,7.5496,,,,,,,,,,,,,,,,,,,,,,6101122085410e70ca020a04,61037521f670281226f4e08e,2021-07-29_21h00.51.345,Simcolourproject_2stim_asymm_v5,2020.2.10,MacIntel,60,61025ae37ef11b136ea224fe,,,,,,,,,3420,35.5078125,46.26171875,1,0,0,response1disk,,7,9.89453125,1.234375,1,0,0,rectangle,9.89453125,1.234375,1,0,0,9.89453125,1.234375,1,0,0,0,9,9,53,1,,,,,,,,
,,,,,,,,,,,,,FF,,,,,,,,3.9997,,,,,,,,,,,,,,,,,,,,,,6101122085410e70ca020a04,61037521f670281226f4e08e,2021-07-29_21h00.51.345,Simcolourproject_2stim_asymm_v5,2020.2.10,MacIntel,60,61025ae37ef11b136ea224fe,,,,,,,,,3238,55.5703125,35.24609375,1,0,0,response1disk,,6,9.48828125,3.390625,1,0,0,rectangle,9.48828125,3.390625,1,0,0,9.48828125,3.390625,1,0,0,0,10,10,95,1,,,,,,,,
,,,,,,,,,,,,,FF,,,,,,,,2.001,,,,,,,,,,,,,,,,,,,,,,6101122085410e70ca020a04,61037521f670281226f4e08e,2021-07-29_21h00.51.345,Simcolourproject_2stim_asymm_v5,2020.2.10,MacIntel,60,61025ae37ef11b136ea224fe,,,,,,,,,4099,33.51953125,-85.8671875,1,0,0,response3disk,,4,22.9921875,-6.23828125,1,0,0,rectangle,22.9921875,-6.23828125,1,0,0,22.9921875,-6.23828125,1,0,0,0,11,11,138,1,,,,,,,,
,,,,,,,,,,,,,FF,,,,,,,,1.4008,,,,,,,,,,,,,,,,,,,,,,6101122085410e70ca020a04,61037521f670281226f4e08e,2021-07-29_21h00.51.345,Simcolourproject_2stim_asymm_v5,2020.2.10,MacIntel,60,61025ae37ef11b136ea224fe,,,,,,,,,2894,-47.21875,-82.69921875,1,0,0,response5disk,,3,0.23046875,-6.1171875,1,0,0,rectangle,0.23046875,-6.1171875,1,0,0,0.23046875,-6.1171875,1,0,0,0,12,12,14,1,,,,,,,,
,,,,,,,,,,,,,FF,,,,,,,,1.2329,,,,,,,,,,,,,,,,,,,,,,6101122085410e70ca020a04,61037521f670281226f4e08e,2021-07-29_21h00.51.345,Simcolourproject_2stim_asymm_v5,2020.2.10,MacIntel,60,61025ae37ef11b136ea224fe,,,,,,,,,395,79.4765625,28.703125,1,0,0,response1disk,,6,11.30859375,1.49609375,1,0,0,rectangle,46.72265625,-107.3710938,1,0,0,2.734375,1.1171875,1,0,0,0,13,13,34,1,,response3disk_3,TRUE,4,4,"[127,167,7,170,266,268,318,170,78,73,42,193,14,105,160,190,165,182,99,280]",1.9832,rectangle
,,,,,,,,,,,,,FF,,,,,,,,1.5502,,,,,,,,,,,,,,,,,,,,,,6101122085410e70ca020a04,61037521f670281226f4e08e,2021-07-29_21h00.51.345,Simcolourproject_2stim_asymm_v5,2020.2.10,MacIntel,60,61025ae37ef11b136ea224fe,,,,,,,,,3574,35.66796875,74.72265625,1,0,0,response1disk,,7,13.7265625,-7.6328125,1,0,0,rectangle,13.7265625,-7.6328125,1,0,0,13.7265625,-7.6328125,1,0,0,0,14,14,84,1,,,,,,,,
,,,,,,,,,,,,,FF,,,,,,,,5.0841,,,,,,,,,,,,,,,,,,,,,,6101122085410e70ca020a04,61037521f670281226f4e08e,2021-07-29_21h00.51.345,Simcolourproject_2stim_asymm_v5,2020.2.10,MacIntel,60,61025ae37ef11b136ea224fe,,,,,,,,,3344,47.05859375,53.78125,1,0,0,response1disk,,7,2.5703125,-2.3984375,1,0,0,rectangle,2.5703125,-2.3984375,1,0,0,2.5703125,-2.3984375,1,0,0,0,15,15,17,1,,,,,,,,
,,,,,,,,,,,,,FF,,,,,,,,25.3494,,,,,,,,,,,,,,,,,,,,,,6101122085410e70ca020a04,61037521f670281226f4e08e,2021-07-29_21h00.51.345,Simcolourproject_2stim_asymm_v5,2020.2.10,MacIntel,60,61025ae37ef11b136ea224fe,,,,,,,,,1558,69.55078125,45.46875,1,0,0,response1disk,,6,14.98828125,-3.41796875,1,0,0,rectangle,14.98828125,-3.41796875,1,0,0,14.98828125,-3.41796875,1,0,0,0,16,16,153,1,,,,,,,,
,,,,,,,,,,,,,FF,,,,,,,,1.4339,,,,,,,,,,,,,,,,,,,,,,6101122085410e70ca020a04,61037521f670281226f4e08e,2021-07-29_21h00.51.345,Simcolourproject_2stim_asymm_v5,2020.2.10,MacIntel,60,61025ae37ef11b136ea224fe,,,,,,,,,1354,84.56640625,-35.9453125,1,0,0,response3disk,,5,9.8671875,4.90234375,1,0,0,rectangle,9.8671875,4.90234375,1,0,0,9.8671875,4.90234375,1,0,0,0,17,17,129,1,,,,,,,,
,,,,,,,,,,,,,FF,,,,,,,,1.2161,,,,,,,,,,,,,,,,,,,,,,6101122085410e70ca020a04,61037521f670281226f4e08e,2021-07-29_21h00.51.345,Simcolourproject_2stim_asymm_v5,2020.2.10,MacIntel,60,61025ae37ef11b136ea224fe,,,,,,,,,3679,37.7109375,-80.984375,1,0,0,response3disk,,4,24.62890625,-8.18359375,1,0,0,rectangle,24.62890625,-8.18359375,1,0,0,24.62890625,-8.18359375,1,0,0,0,18,18,139,1,,,,,,,,
,,,,,,,,,,,,,FF,,,,,,,,0.8992,,,,,,,,,,,,,,,,,,,,,,6101122085410e70ca020a04,61037521f670281226f4e08e,2021-07-29_21h00.51.345,Simcolourproject_2stim_asymm_v5,2020.2.10,MacIntel,60,61025ae37ef11b136ea224fe,,,,,,,,,829,61.8984375,32.82421875,1,0,0,response1disk,,6,8.8515625,10.84765625,1,0,0,rectangle,8.8515625,10.84765625,1,0,0,8.8515625,10.84765625,1,0,0,0,19,19,9,1,,,,,,,,
,,,,,,,,,,,,,FF,,,,,,,,1.349,,,,,,,,,,,,,,,,,,,,,,6101122085410e70ca020a04,61037521f670281226f4e08e,2021-07-29_21h00.51.345,Simcolourproject_2stim_asymm_v5,2020.2.10,MacIntel,60,61025ae37ef11b136ea224fe,,,,,,,,,2269,41.9375,79.83203125,1,0,0,response1disk,,7,17.2734375,15.0078125,1,0,0,rectangle,17.2734375,15.0078125,1,0,0,17.2734375,15.0078125,1,0,0,0,20,20,30,1,,,,,,,,
,,,,,,,,,,,,,FF,,,,,,,,8.0492,,,,,,,,,,,,,,,,,,,,,,6101122085410e70ca020a04,61037521f670281226f4e08e,2021-07-29_21h00.51.345,Simcolourproject_2stim_asymm_v5,2020.2.10,MacIntel,60,61025ae37ef11b136ea224fe,,,,,,,,,1774,68.3125,29.8125,1,0,0,response1disk,,6,17.265625,9.22265625,1,0,0,rectangle,17.265625,9.22265625,1,0,0,17.265625,9.22265625,1,0,0,0,21,21,109,1,,,,,,,,
,,,,,,,,,,,,,FF,,,,,,,,5.2336,,,,,,,,,,,,,,,,,,,,,,6101122085410e70ca020a04,61037521f670281226f4e08e,2021-07-29_21h00.51.345,Simcolourproject_2stim_asymm_v5,2020.2.10,MacIntel,60,61025ae37ef11b136ea224fe,,,,,,,,,644,35.42578125,47.828125,1,0,0,response1disk,,7,8.63671875,2.58984375,1,0,0,rectangle,8.63671875,2.58984375,1,0,0,8.63671875,2.58984375,1,0,0,0,22,22,44,1,,,,,,,,
,,,,,,,,,,,,,FF,,,,,,,,3.866,,,,,,,,,,,,,,,,,,,,,,6101122085410e70ca020a04,61037521f670281226f4e08e,2021-07-29_21h00.51.345,Simcolourproject_2stim_asymm_v5,2020.2.10,MacIntel,60,61025ae37ef11b136ea224fe,,,,,,,,,59,40.71484375,55.64453125,1,0,0,response1disk,,7,-0.50390625,-3.25390625,1,0,0,rectangle,-0.50390625,-3.25390625,1,0,0,-0.50390625,-3.25390625,1,0,0,0,23,23,75,1,,,,,,,,
,,,,,,,,,,,,,FF,,,,,,,,1.9491,,,,,,,,,,,,,,,,,,,,,,6101122085410e70ca020a04,61037521f670281226f4e08e,2021-07-29_21h00.51.345,Simcolourproject_2stim_asymm_v5,2020.2.10,MacIntel,60,61025ae37ef11b136ea224fe,,,,,,,,,2572,24.1484375,43.03125,1,0,0,response1disk,,7,8.453125,-0.48828125,1,0,0,rectangle,8.453125,-0.48828125,1,0,0,8.453125,-0.48828125,1,0,0,0,24,24,15,1,,,,,,,,
,,,,,,,,,,,,,FF,,,,,,,,2.0992,,,,,,,,,,,,,,,,,,,,,,6101122085410e70ca020a04,61037521f670281226f4e08e,2021-07-29_21h00.51.345,Simcolourproject_2stim_asymm_v5,2020.2.10,MacIntel,60,61025ae37ef11b136ea224fe,,,,,,,,,3288,39.35546875,62.26171875,1,0,0,response1disk,,7,13.03125,-0.4609375,1,0,0,rectangle,13.03125,-0.4609375,1,0,0,13.03125,-0.4609375,1,0,0,0,25,25,155,1,,,,,,,,
,,,,,,,,,,,,,FF,,,,,,,,3.9492,,,,,,,,,,,,,,,,,,,,,,6101122085410e70ca020a04,61037521f670281226f4e08e,2021-07-29_21h00.51.345,Simcolourproject_2stim_asymm_v5,2020.2.10,MacIntel,60,61025ae37ef11b136ea224fe,,,,,,,,,1509,64.15234375,79.57421875,1,0,0,response1disk,,7,25.609375,-1.3359375,1,0,0,rectangle,25.609375,-1.3359375,1,0,0,25.609375,-1.3359375,1,0,0,0,26,26,124,1,,,,,,,,
,,,,,,,,,,,,,FF,,,,,,,,2.0505,,,,,,,,,,,,,,,,,,,,,,6101122085410e70ca020a04,61037521f670281226f4e08e,2021-07-29_21h00.51.345,Simcolourproject_2stim_asymm_v5,2020.2.10,MacIntel,60,61025ae37ef11b136ea224fe,,,,,,,,,1159,103.9648438,21.84375,1,0,0,response1disk,,6,2.80078125,-7.77734375,1,0,0,rectangle,2.80078125,-7.77734375,1,0,0,2.80078125,-7.77734375,1,0,0,0,27,27,35,1,,,,,,,,
,,,,,,,,,,,,,FF,,,,,,,,1.9322,,,,,,,,,,,,,,,,,,,,,,6101122085410e70ca020a04,61037521f670281226f4e08e,2021-07-29_21h00.51.345,Simcolourproject_2stim_asymm_v5,2020.2.10,MacIntel,60,61025ae37ef11b136ea224fe,,,,,,,,,952,75.58984375,-49.3203125,1,0,0,response3disk,,5,11.9921875,-2.35546875,1,0,0,rectangle,11.9921875,-2.35546875,1,0,0,11.9921875,-2.35546875,1,0,0,0,28,28,21,1,,,,,,,,
,,,,,,,,,,,,,FF,,,,,,,,1.8995,,,,,,,,,,,,,,,,,,,,,,6101122085410e70ca020a04,61037521f670281226f4e08e,2021-07-29_21h00.51.345,Simcolourproject_2stim_asymm_v5,2020.2.10,MacIntel,60,61025ae37ef11b136ea224fe,,,,,,,,,2731,89.546875,-33.8203125,1,0,0,response3disk,,5,8.71875,-0.28515625,1,0,0,rectangle,8.71875,-0.28515625,1,0,0,8.71875,-0.28515625,1,0,0,0,29,29,147,1,,,,,,,,
,,,,,,,,,,,,,FF,,,,,,,,1.483,,,,,,,,,,,,,,,,,,,,,,6101122085410e70ca020a04,61037521f670281226f4e08e,2021-07-29_21h00.51.345,Simcolourproject_2stim_asymm_v5,2020.2.10,MacIntel,60,61025ae37ef11b136ea224fe,,,,,,,,,2195,58.20703125,-35.92578125,1,0,0,response3disk,,5,-5.515625,0.1875,1,0,0,rectangle,-5.515625,0.1875,1,0,0,-5.515625,0.1875,1,0,0,0,30,30,85,1,,,,,,,,
,,,,,,,,,,,,,FF,,,,,,,,1.1666,,,,,,,,,,,,,,,,,,,,,,6101122085410e70ca020a04,61037521f670281226f4e08e,2021-07-29_21h00.51.345,Simcolourproject_2stim_asymm_v5,2020.2.10,MacIntel,60,61025ae37ef11b136ea224fe,,,,,,,,,543,-68.8671875,-33.71484375,1,0,0,response5disk,,2,11.45703125,10.83984375,1,0,0,rectangle,11.45703125,10.83984375,1,0,0,11.45703125,10.83984375,1,0,0,0,31,31,20,1,,,,,,,,
,,,,,,,,,,,,,FF,,,,,,,,1.7339,,,,,,,,,,,,,,,,,,,,,,6101122085410e70ca020a04,61037521f670281226f4e08e,2021-07-29_21h00.51.345,Simcolourproject_2stim_asymm_v5,2020.2.10,MacIntel,60,61025ae37ef11b136ea224fe,,,,,,,,,190,-29.21484375,-47.85546875,1,0,0,response5disk,,3,-5.859375,-0.87109375,1,0,0,rectangle,-5.859375,-0.87109375,1,0,0,-5.859375,-0.87109375,1,0,0,0,32,32,157,1,,,,,,,,
,,,,,,,,,,,,,FF,,,,,,,,2.2,,,,,,,,,,,,,,,,,,,,,,6101122085410e70ca020a04,61037521f670281226f4e08e,2021-07-29_21h00.51.345,Simcolourproject_2stim_asymm_v5,2020.2.10,MacIntel,60,61025ae37ef11b136ea224fe,,,,,,,,,1314,85.765625,-59.65625,1,0,0,response3disk,,5,3.04296875,-10.55078125,1,0,0,rectangle,3.04296875,-10.55078125,1,0,0,3.04296875,-10.55078125,1,0,0,0,33,33,23,1,,,,,,,,
,,,,,,,,,,,,,FF,,,,,,,,1.0497,,,,,,,,,,,,,,,,,,,,,,6101122085410e70ca020a04,61037521f670281226f4e08e,2021-07-29_21h00.51.345,Simcolourproject_2stim_asymm_v5,2020.2.10,MacIntel,60,61025ae37ef11b136ea224fe,,,,,,,,,1215,-30.8828125,-73.61328125,1,0,0,response5disk,,3,-4.265625,-1.8203125,1,0,0,rectangle,-4.265625,-1.8203125,1,0,0,-4.265625,-1.8203125,1,0,0,0,34,34,22,1,,,,,,,,
,,,,,,,,,,,,,FF,,,,,,,,0.9327,,,,,,,,,,,,,,,,,,,,,,6101122085410e70ca020a04,61037521f670281226f4e08e,2021-07-29_21h00.51.345,Simcolourproject_2stim_asymm_v5,2020.2.10,MacIntel,60,61025ae37ef11b136ea224fe,,,,,,,,,2698,35.29296875,56.6875,1,0,0,response1disk,,7,12.27734375,0.59765625,1,0,0,rectangle,12.27734375,0.59765625,1,0,0,12.27734375,0.59765625,1,0,0,0,35,35,123,1,,,,,,,,
,,,,,,,,,,,,,FF,,,,,,,,1.1502,,,,,,,,,,,,,,,,,,,,,,6101122085410e70ca020a04,61037521f670281226f4e08e,2021-07-29_21h00.51.345,Simcolourproject_2stim_asymm_v5,2020.2.10,MacIntel,60,61025ae37ef11b136ea224fe,,,,,,,,,3144,47.36328125,64.96484375,1,0,0,response1disk,,7,10.39453125,6.84375,1,0,0,rectangle,10.39453125,6.84375,1,0,0,10.39453125,6.84375,1,0,0,0,36,36,120,1,,,,,,,,
,,,,,,,,,,,,,FF,,,,,,,,2.8842,,,,,,,,,,,,,,,,,,,,,,6101122085410e70ca020a04,61037521f670281226f4e08e,2021-07-29_21h00.51.345,Simcolourproject_2stim_asymm_v5,2020.2.10,MacIntel,60,61025ae37ef11b136ea224fe,,,,,,,,,1992,33.09765625,65.2734375,1,0,0,response1disk,,7,1.94140625,-10.81640625,1,0,0,rectangle,1.94140625,-10.81640625,1,0,0,1.94140625,-10.81640625,1,0,0,0,37,37,158,1,,,,,,,,
,,,,,,,,,,,,,FF,,,,,,,,2.4327,,,,,,,,,,,,,,,,,,,,,,6101122085410e70ca020a04,61037521f670281226f4e08e,2021-07-29_21h00.51.345,Simcolourproject_2stim_asymm_v5,2020.2.10,MacIntel,60,61025ae37ef11b136ea224fe,,,,,,,,,4358,-50.7890625,31.58203125,1,0,0,response7disk,,1,-1.9453125,2.69140625,1,0,0,rectangle,-1.9453125,2.69140625,1,0,0,-1.9453125,2.69140625,1,0,0,0,38,38,3,1,,,,,,,,
,,,,,,,,,,,,,FF,,,,,,,,1.1498,,,,,,,,,,,,,,,,,,,,,,6101122085410e70ca020a04,61037521f670281226f4e08e,2021-07-29_21h00.51.345,Simcolourproject_2stim_asymm_v5,2020.2.10,MacIntel,60,61025ae37ef11b136ea224fe,,,,,,,,,2998,-40.06640625,-61.76171875,1,0,0,response5disk,,3,20.45703125,-4.18359375,1,0,0,rectangle,20.45703125,-4.18359375,1,0,0,20.45703125,-4.18359375,1,0,0,0,39,39,148,1,,,,,,,,
,,,,,,,,,,,,,FF,,,,,,,,1.0344,,,,,,,,,,,,,,,,,,,,,,6101122085410e70ca020a04,61037521f670281226f4e08e,2021-07-29_21h00.51.345,Simcolourproject_2stim_asymm_v5,2020.2.10,MacIntel,60,61025ae37ef11b136ea224fe,,,,,,,,,1835,18.03515625,-54.60546875,1,0,0,response3disk,,4,15.4765625,-14.48828125,1,0,0,rectangle,15.4765625,-14.48828125,1,0,0,15.4765625,-14.48828125,1,0,0,0,40,40,82,1,,,,,,,,
,,,,,,,,,,,,,FF,,,,,,,,1.4672,,,,,,,,,,,,,,,,,,,,,,6101122085410e70ca020a04,61037521f670281226f4e08e,2021-07-29_21h00.51.345,Simcolourproject_2stim_asymm_v5,2020.2.10,MacIntel,60,61025ae37ef11b136ea224fe,,,,,,,,,4319,33.35546875,60.30078125,1,0,0,response1disk,,7,9.74609375,11.6640625,1,0,0,rectangle,-80.69140625,43.0703125,1,0,0,-8.1171875,-9.17578125,1,0,0,0,41,41,111,1,,response7disk_3,TRUE,1,1,"[127,167,7,170,266,268,318,170,78,73,42,193,14,105,160,190,165,182,99,280]",1.9505,rectangle
,,,,,,,,,,,,,FF,,,,,,,,1.2334,,,,,,,,,,,,,,,,,,,,,,6101122085410e70ca020a04,61037521f670281226f4e08e,2021-07-29_21h00.51.345,Simcolourproject_2stim_asymm_v5,2020.2.10,MacIntel,60,61025ae37ef11b136ea224fe,,,,,,,,,638,-71.46484375,-51.87890625,1,0,0,response5disk,,2,3.06640625,-6.125,1,0,0,rectangle,3.06640625,-6.125,1,0,0,3.06640625,-6.125,1,0,0,0,42,42,47,1,,,,,,,,
,,,,,,,,,,,,,FF,,,,,,,,0.9169,,,,,,,,,,,,,,,,,,,,,,6101122085410e70ca020a04,61037521f670281226f4e08e,2021-07-29_21h00.51.345,Simcolourproject_2stim_asymm_v5,2020.2.10,MacIntel,60,61025ae37ef11b136ea224fe,,,,,,,,,185,-42.84765625,75.703125,1,0,0,response7disk,,0,-12.4375,-5.69921875,1,0,0,rectangle,-12.4375,-5.69921875,1,0,0,-12.4375,-5.69921875,1,0,0,0,43,43,144,1,,,,,,,,
,,,,,,,,,,,,,FF,,,,,,,,0.9831,,,,,,,,,,,,,,,,,,,,,,6101122085410e70ca020a04,61037521f670281226f4e08e,2021-07-29_21h00.51.345,Simcolourproject_2stim_asymm_v5,2020.2.10,MacIntel,60,61025ae37ef11b136ea224fe,,,,,,,,,2449,76.64453125,44.1484375,1,0,0,response1disk,,6,12.5,16.1328125,1,0,0,rectangle,12.5,16.1328125,1,0,0,12.5,16.1328125,1,0,0,0,44,44,91,1,,,,,,,,
,,,,,,,,,,,,,FF,,,,,,,,0.7325,,,,,,,,,,,,,,,,,,,,,,6101122085410e70ca020a04,61037521f670281226f4e08e,2021-07-29_21h00.51.345,Simcolourproject_2stim_asymm_v5,2020.2.10,MacIntel,60,61025ae37ef11b136ea224fe,,,,,,,,,1281,46.8671875,86.1953125,1,0,0,response1disk,,7,24.12109375,13.26953125,1,0,0,rectangle,24.12109375,13.26953125,1,0,0,24.12109375,13.26953125,1,0,0,0,45,45,152,1,,,,,,,,
,,,,,,,,,,,,,FF,,,,,,,,1.4822,,,,,,,,,,,,,,,,,,,,,,6101122085410e70ca020a04,61037521f670281226f4e08e,2021-07-29_21h00.51.345,Simcolourproject_2stim_asymm_v5,2020.2.10,MacIntel,60,61025ae37ef11b136ea224fe,,,,,,,,,4308,35.2109375,72.4140625,1,0,0,response1disk,,7,0.484375,-9.015625,1,0,0,rectangle,0.484375,-9.015625,1,0,0,0.484375,-9.015625,1,0,0,0,46,46,128,1,,,,,,,,
,,,,,,,,,,,,,FF,,,,,,,,1.0334,,,,,,,,,,,,,,,,,,,,,,6101122085410e70ca020a04,61037521f670281226f4e08e,2021-07-29_21h00.51.345,Simcolourproject_2stim_asymm_v5,2020.2.10,MacIntel,60,61025ae37ef11b136ea224fe,,,,,,,,,694,-30.609375,-96.26171875,1,0,0,response5disk,,3,2.94921875,0.27734375,1,0,0,rectangle,2.94921875,0.27734375,1,0,0,2.94921875,0.27734375,1,0,0,0,47,47,16,1,,,,,,,,
,,,,,,,,,,,,,FF,,,,,,,,30.7993,,,,,,,,,,,,,,,,,,,,,,6101122085410e70ca020a04,61037521f670281226f4e08e,2021-07-29_21h00.51.345,Simcolourproject_2stim_asymm_v5,2020.2.10,MacIntel,60,61025ae37ef11b136ea224fe,,,,,,,,,1910,75.7265625,42.37890625,1,0,0,response1disk,,6,-11.29296875,-13.7734375,1,0,0,rectangle,-11.29296875,-13.7734375,1,0,0,-11.29296875,-13.7734375,1,0,0,0,48,48,58,1,,,,,,,,
,,,,,,,,,,,,,FF,,,,,,,,1.5001,,,,,,,,,,,,,,,,,,,,,,6101122085410e70ca020a04,61037521f670281226f4e08e,2021-07-29_21h00.51.345,Simcolourproject_2stim_asymm_v5,2020.2.10,MacIntel,60,61025ae37ef11b136ea224fe,,,,,,,,,3929,50.4375,61.31640625,1,0,0,response1disk,,7,-6.09375,-7.625,1,0,0,rectangle,-6.09375,-7.625,1,0,0,-6.09375,-7.625,1,0,0,0,49,49,99,1,,,,,,,,
,,,,,,,,,,,,,FF,,,,,,,,1.3829,,,,,,,,,,,,,,,,,,,,,,6101122085410e70ca020a04,61037521f670281226f4e08e,2021-07-29_21h00.51.345,Simcolourproject_2stim_asymm_v5,2020.2.10,MacIntel,60,61025ae37ef11b136ea224fe,,,,,,,,,3910,-95.4609375,-31.015625,1,0,0,response5disk,,2,-0.25390625,-2.25,1,0,0,rectangle,-0.25390625,-2.25,1,0,0,-0.25390625,-2.25,1,0,0,0,50,50,90,1,,,,,,,,
,,,,,,,,,,,,,FF,,,,,,,,0.7994,,,,,,,,,,,,,,,,,,,,,,6101122085410e70ca020a04,61037521f670281226f4e08e,2021-07-29_21h00.51.345,Simcolourproject_2stim_asymm_v5,2020.2.10,MacIntel,60,61025ae37ef11b136ea224fe,,,,,,,,,3664,-50.42578125,-96.88671875,1,0,0,response5disk,,3,16.6328125,-2.59375,1,0,0,rectangle,16.6328125,-2.59375,1,0,0,16.6328125,-2.59375,1,0,0,0,51,51,86,1,,,,,,,,
,,,,,,,,,,,,,FF,,,,,,,,1.2344,,,,,,,,,,,,,,,,,,,,,,6101122085410e70ca020a04,61037521f670281226f4e08e,2021-07-29_21h00.51.345,Simcolourproject_2stim_asymm_v5,2020.2.10,MacIntel,60,61025ae37ef11b136ea224fe,,,,,,,,,110,30.08984375,-68.5546875,1,0,0,response3disk,,4,8.46875,-5.625,1,0,0,rectangle,8.46875,-5.625,1,0,0,8.46875,-5.625,1,0,0,0,52,52,56,1,,,,,,,,
,,,,,,,,,,,,,FF,,,,,,,,0.9835,,,,,,,,,,,,,,,,,,,,,,6101122085410e70ca020a04,61037521f670281226f4e08e,2021-07-29_21h00.51.345,Simcolourproject_2stim_asymm_v5,2020.2.10,MacIntel,60,61025ae37ef11b136ea224fe,,,,,,,,,496,48.8359375,70.9921875,1,0,0,response1disk,,7,-0.015625,-4.7578125,1,0,0,rectangle,-0.015625,-4.7578125,1,0,0,-0.015625,-4.7578125,1,0,0,0,53,53,154,1,,,,,,,,
,,,,,,,,,,,,,FF,,,,,,,,1.4677,,,,,,,,,,,,,,,,,,,,,,6101122085410e70ca020a04,61037521f670281226f4e08e,2021-07-29_21h00.51.345,Simcolourproject_2stim_asymm_v5,2020.2.10,MacIntel,60,61025ae37ef11b136ea224fe,,,,,,,,,1419,29.0859375,99.09375,1,0,0,response1disk,,7,1.85546875,-12.94140625,1,0,0,rectangle,1.85546875,-12.94140625,1,0,0,1.85546875,-12.94140625,1,0,0,0,54,54,52,1,,,,,,,,
,,,,,,,,,,,,,FF,,,,,,,,1.1655,,,,,,,,,,,,,,,,,,,,,,6101122085410e70ca020a04,61037521f670281226f4e08e,2021-07-29_21h00.51.345,Simcolourproject_2stim_asymm_v5,2020.2.10,MacIntel,60,61025ae37ef11b136ea224fe,,,,,,,,,601,55.44140625,83.015625,1,0,0,response1disk,,7,9.203125,-1.12109375,1,0,0,rectangle,9.203125,-1.12109375,1,0,0,9.203125,-1.12109375,1,0,0,0,55,55,88,1,,,,,,,,
,,,,,,,,,,,,,FF,,,,,,,,0.7502,,,,,,,,,,,,,,,,,,,,,,6101122085410e70ca020a04,61037521f670281226f4e08e,2021-07-29_21h00.51.345,Simcolourproject_2stim_asymm_v5,2020.2.10,MacIntel,60,61025ae37ef11b136ea224fe,,,,,,,,,112,37.93359375,79.015625,1,0,0,response1disk,,7,4.83984375,-5.62890625,1,0,0,rectangle,4.83984375,-5.62890625,1,0,0,4.83984375,-5.62890625,1,0,0,0,56,56,110,1,,,,,,,,
,,,,,,,,,,,,,FF,,,,,,,,1.8327,,,,,,,,,,,,,,,,,,,,,,6101122085410e70ca020a04,61037521f670281226f4e08e,2021-07-29_21h00.51.345,Simcolourproject_2stim_asymm_v5,2020.2.10,MacIntel,60,61025ae37ef11b136ea224fe,,,,,,,,,2135,44.140625,73.80078125,1,0,0,response1disk,,7,12.57421875,3.1875,1,0,0,rectangle,12.57421875,3.1875,1,0,0,12.57421875,3.1875,1,0,0,0,57,57,31,1,,,,,,,,
,,,,,,,,,,,,,FF,,,,,,,,0.7822,,,,,,,,,,,,,,,,,,,,,,6101122085410e70ca020a04,61037521f670281226f4e08e,2021-07-29_21h00.51.345,Simcolourproject_2stim_asymm_v5,2020.2.10,MacIntel,60,61025ae37ef11b136ea224fe,,,,,,,,,3671,-85.44140625,36.35546875,1,0,0,response7disk,,1,-28.85546875,-1.8125,1,0,0,rectangle,-28.85546875,-1.8125,1,0,0,-28.85546875,-1.8125,1,0,0,0,58,58,134,1,,,,,,,,
,,,,,,,,,,,,,FF,,,,,,,,1.4171,,,,,,,,,,,,,,,,,,,,,,6101122085410e70ca020a04,61037521f670281226f4e08e,2021-07-29_21h00.51.345,Simcolourproject_2stim_asymm_v5,2020.2.10,MacIntel,60,61025ae37ef11b136ea224fe,,,,,,,,,1988,105.2109375,36.78125,1,0,0,response1disk,,6,24.10546875,6.23828125,1,0,0,rectangle,24.10546875,6.23828125,1,0,0,24.10546875,6.23828125,1,0,0,0,59,59,12,1,,,,,,,,
,,,,,,,,,,,,,FF,,,,,,,,0.683,,,,,,,,,,,,,,,,,,,,,,6101122085410e70ca020a04,61037521f670281226f4e08e,2021-07-29_21h00.51.345,Simcolourproject_2stim_asymm_v5,2020.2.10,MacIntel,60,61025ae37ef11b136ea224fe,,,,,,,,,1360,38.11328125,69.3359375,1,0,0,response1disk,,7,20.9609375,11.203125,1,0,0,rectangle,20.9609375,11.203125,1,0,0,20.9609375,11.203125,1,0,0,0,60,60,93,1,,,,,,,,
,,,,,,,,,,,,,FF,,,,,,,,1.1135,,,,,,,,,,,,,,,,,,,,,,6101122085410e70ca020a04,61037521f670281226f4e08e,2021-07-29_21h00.51.345,Simcolourproject_2stim_asymm_v5,2020.2.10,MacIntel,60,61025ae37ef11b136ea224fe,,,,,,,,,2942,-40.984375,-75.5625,1,0,0,response5disk,,3,6.17578125,-3.671875,1,0,0,rectangle,6.17578125,-3.671875,1,0,0,6.17578125,-3.671875,1,0,0,0,61,61,5,1,,,,,,,,
,,,,,,,,,,,,,FF,,,,,,,,1.6671,,,,,,,,,,,,,,,,,,,,,,6101122085410e70ca020a04,61037521f670281226f4e08e,2021-07-29_21h00.51.345,Simcolourproject_2stim_asymm_v5,2020.2.10,MacIntel,60,61025ae37ef11b136ea224fe,,,,,,,,,1667,36,69.484375,1,0,0,response1disk,,7,-26.05859375,-3.34765625,1,0,0,rectangle,-26.05859375,-3.34765625,1,0,0,-26.05859375,-3.34765625,1,0,0,0,62,62,61,1,,,,,,,,
,,,,,,,,,,,,,FF,,,,,,,,1.3992,,,,,,,,,,,,,,,,,,,,,,6101122085410e70ca020a04,61037521f670281226f4e08e,2021-07-29_21h00.51.345,Simcolourproject_2stim_asymm_v5,2020.2.10,MacIntel,60,61025ae37ef11b136ea224fe,,,,,,,,,3299,30.4765625,-83.0078125,1,0,0,response3disk,,4,23.28125,1.21875,1,0,0,rectangle,23.28125,1.21875,1,0,0,23.28125,1.21875,1,0,0,0,63,63,41,1,,,,,,,,
,,,,,,,,,,,,,FF,,,,,,,,1.2835,,,,,,,,,,,,,,,,,,,,,,6101122085410e70ca020a04,61037521f670281226f4e08e,2021-07-29_21h00.51.345,Simcolourproject_2stim_asymm_v5,2020.2.10,MacIntel,60,61025ae37ef11b136ea224fe,,,,,,,,,2598,61.2578125,-36.44921875,1,0,0,response3disk,,5,2.65234375,3.34765625,1,0,0,rectangle,2.65234375,3.34765625,1,0,0,2.65234375,3.34765625,1,0,0,0,64,64,132,1,,,,,,,,
,,,,,,,,,,,,,FF,,,,,,,,0.9503,,,,,,,,,,,,,,,,,,,,,,6101122085410e70ca020a04,61037521f670281226f4e08e,2021-07-29_21h00.51.345,Simcolourproject_2stim_asymm_v5,2020.2.10,MacIntel,60,61025ae37ef11b136ea224fe,,,,,,,,,2046,89.921875,-61.109375,1,0,0,response3disk,,5,13.296875,-4.71484375,1,0,0,rectangle,13.296875,-4.71484375,1,0,0,13.296875,-4.71484375,1,0,0,0,65,65,72,1,,,,,,,,
,,,,,,,,,,,,,FF,,,,,,,,1.5661,,,,,,,,,,,,,,,,,,,,,,6101122085410e70ca020a04,61037521f670281226f4e08e,2021-07-29_21h00.51.345,Simcolourproject_2stim_asymm_v5,2020.2.10,MacIntel,60,61025ae37ef11b136ea224fe,,,,,,,,,2348,89.49609375,40.37109375,1,0,0,response1disk,,6,11.15625,3.64453125,1,0,0,rectangle,11.15625,3.64453125,1,0,0,11.15625,3.64453125,1,0,0,0,66,66,156,1,,,,,,,,
,,,,,,,,,,,,,FF,,,,,,,,0.8522,,,,,,,,,,,,,,,,,,,,,,6101122085410e70ca020a04,61037521f670281226f4e08e,2021-07-29_21h00.51.345,Simcolourproject_2stim_asymm_v5,2020.2.10,MacIntel,60,61025ae37ef11b136ea224fe,,,,,,,,,447,54.64453125,81.0546875,1,0,0,response1disk,,7,25.64453125,11.5546875,1,0,0,rectangle,25.64453125,11.5546875,1,0,0,25.64453125,11.5546875,1,0,0,0,67,67,146,1,,,,,,,,
,,,,,,,,,,,,,FF,,,,,,,,1.816,,,,,,,,,,,,,,,,,,,,,,6101122085410e70ca020a04,61037521f670281226f4e08e,2021-07-29_21h00.51.345,Simcolourproject_2stim_asymm_v5,2020.2.10,MacIntel,60,61025ae37ef11b136ea224fe,,,,,,,,,1915,48.66796875,86.10546875,1,0,0,response1disk,,7,17.75390625,10.63671875,1,0,0,rectangle,17.75390625,10.63671875,1,0,0,17.75390625,10.63671875,1,0,0,0,68,68,28,1,,,,,,,,
,,,,,,,,,,,,,FF,,,,,,,,7.6332,,,,,,,,,,,,,,,,,,,,,,6101122085410e70ca020a04,61037521f670281226f4e08e,2021-07-29_21h00.51.345,Simcolourproject_2stim_asymm_v5,2020.2.10,MacIntel,60,61025ae37ef11b136ea224fe,,,,,,,,,2111,55.25390625,85.63671875,1,0,0,response1disk,,7,-6.10546875,-11.25390625,1,0,0,rectangle,-6.10546875,-11.25390625,1,0,0,-6.10546875,-11.25390625,1,0,0,0,69,69,116,1,,,,,,,,
,,,,,,,,,,,,,FF,,,,,,,,47.7494,,,,,,,,,,,,,,,,,,,,,,6101122085410e70ca020a04,61037521f670281226f4e08e,2021-07-29_21h00.51.345,Simcolourproject_2stim_asymm_v5,2020.2.10,MacIntel,60,61025ae37ef11b136ea224fe,,,,,,,,,3748,52.01953125,82.80078125,1,0,0,response1disk,,7,9.09765625,0.5703125,1,0,0,rectangle,9.09765625,0.5703125,1,0,0,9.09765625,0.5703125,1,0,0,0,70,70,38,1,,,,,,,,
,,,,,,,,,,,,,FF,,,,,,,,0.8506,,,,,,,,,,,,,,,,,,,,,,6101122085410e70ca020a04,61037521f670281226f4e08e,2021-07-29_21h00.51.345,Simcolourproject_2stim_asymm_v5,2020.2.10,MacIntel,60,61025ae37ef11b136ea224fe,,,,,,,,,2167,-56.46484375,32.546875,1,0,0,response7disk,,1,-13.55078125,-4.08203125,1,0,0,rectangle,-13.55078125,-4.08203125,1,0,0,-13.55078125,-4.08203125,1,0,0,0,71,71,149,1,,,,,,,,
,,,,,,,,,,,,,FF,,,,,,,,0.7999,,,,,,,,,,,,,,,,,,,,,,6101122085410e70ca020a04,61037521f670281226f4e08e,2021-07-29_21h00.51.345,Simcolourproject_2stim_asymm_v5,2020.2.10,MacIntel,60,61025ae37ef11b136ea224fe,,,,,,,,,1453,-38.66796875,-64.21875,1,0,0,response5disk,,3,-0.1484375,-3.06640625,1,0,0,rectangle,-41.9921875,106.171875,1,0,0,-3.97265625,9.796875,1,0,0,0,72,72,11,1,,response7disk_3,TRUE,0,0,"[127,167,7,170,266,268,318,170,78,73,42,193,14,105,160,190,165,182,99,280]",1.4669,rectangle
,,,,,,,,,,,,,FF,,,,,,,,1.0161,,,,,,,,,,,,,,,,,,,,,,6101122085410e70ca020a04,61037521f670281226f4e08e,2021-07-29_21h00.51.345,Simcolourproject_2stim_asymm_v5,2020.2.10,MacIntel,60,61025ae37ef11b136ea224fe,,,,,,,,,731,-46.5234375,-55.796875,1,0,0,response5disk,,3,-5.07421875,-3.43359375,1,0,0,rectangle,-5.07421875,-3.43359375,1,0,0,-5.07421875,-3.43359375,1,0,0,0,73,73,79,1,,,,,,,,
,,,,,,,,,,,,,FF,,,,,,,,2.1837,,,,,,,,,,,,,,,,,,,,,,6101122085410e70ca020a04,61037521f670281226f4e08e,2021-07-29_21h00.51.345,Simcolourproject_2stim_asymm_v5,2020.2.10,MacIntel,60,61025ae37ef11b136ea224fe,,,,,,,,,1889,-29.1328125,-58.22265625,1,0,0,response5disk,,3,-10.43359375,-5.19921875,1,0,0,rectangle,-10.43359375,-5.19921875,1,0,0,-10.43359375,-5.19921875,1,0,0,0,74,74,97,1,,,,,,,,
,,,,,,,,,,,,,FF,,,,,,,,1.6158,,,,,,,,,,,,,,,,,,,,,,6101122085410e70ca020a04,61037521f670281226f4e08e,2021-07-29_21h00.51.345,Simcolourproject_2stim_asymm_v5,2020.2.10,MacIntel,60,61025ae37ef11b136ea224fe,,,,,,,,,3577,110.4453125,65.76171875,1,0,0,response1disk,,6,5.37109375,-3.54296875,1,0,0,rectangle,5.37109375,-3.54296875,1,0,0,5.37109375,-3.54296875,1,0,0,0,75,75,62,1,,,,,,,,
,,,,,,,,,,,,,FF,,,,,,,,1.35,,,,,,,,,,,,,,,,,,,,,,6101122085410e70ca020a04,61037521f670281226f4e08e,2021-07-29_21h00.51.345,Simcolourproject_2stim_asymm_v5,2020.2.10,MacIntel,60,61025ae37ef11b136ea224fe,,,,,,,,,587,24.94921875,42.51953125,1,0,0,response1disk,,7,18.109375,6.6953125,1,0,0,rectangle,18.109375,6.6953125,1,0,0,18.109375,6.6953125,1,0,0,0,76,76,159,1,,,,,,,,
,,,,,,,,,,,,,FF,,,,,,,,0.5173,,,,,,,,,,,,,,,,,,,,,,6101122085410e70ca020a04,61037521f670281226f4e08e,2021-07-29_21h00.51.345,Simcolourproject_2stim_asymm_v5,2020.2.10,MacIntel,60,61025ae37ef11b136ea224fe,,,,,,,,,300,37.48046875,60.07421875,1,0,0,response1disk,,7,19.60546875,-0.44140625,1,0,0,rectangle,46.921875,80.98828125,1,0,0,8.0859375,-1.6640625,1,0,0,0,77,77,18,1,,response1disk_3,TRUE,7,7,"[127,167,7,170,266,268,318,170,78,73,42,193,14,105,160,190,165,182,99,280]",1.2158,rectangle
,,,,,,,,,,,,,FF,,,,,,,,3.1634,,,,,,,,,,,,,,,,,,,,,,6101122085410e70ca020a04,61037521f670281226f4e08e,2021-07-29_21h00.51.345,Simcolourproject_2stim_asymm_v5,2020.2.10,MacIntel,60,61025ae37ef11b136ea224fe,,,,,,,,,929,36.45703125,59.03125,1,0,0,response1disk,,7,15.21484375,-0.203125,1,0,0,rectangle,15.21484375,-0.203125,1,0,0,15.21484375,-0.203125,1,0,0,0,78,78,39,1,,,,,,,,
,,,,,,,,,,,,,FF,,,,,,,,3.8166,,,,,,,,,,,,,,,,,,,,,,6101122085410e70ca020a04,61037521f670281226f4e08e,2021-07-29_21h00.51.345,Simcolourproject_2stim_asymm_v5,2020.2.10,MacIntel,60,61025ae37ef11b136ea224fe,,,,,,,,,2628,36.5390625,56.9765625,1,0,0,response1disk,,7,11.00390625,0.21484375,1,0,0,rectangle,11.00390625,0.21484375,1,0,0,11.00390625,0.21484375,1,0,0,0,79,79,121,1,,,,,,,,
,,,,,,,,,,,,,FF,,,,,,,,1.55,,,,,,,,,,,,,,,,,,,,,,6101122085410e70ca020a04,61037521f670281226f4e08e,2021-07-29_21h00.51.345,Simcolourproject_2stim_asymm_v5,2020.2.10,MacIntel,60,61025ae37ef11b136ea224fe,,,,,,,,,1498,80.59375,31.6171875,1,0,0,response1disk,,6,17.40234375,1.09765625,1,0,0,rectangle,17.40234375,1.09765625,1,0,0,17.40234375,1.09765625,1,0,0,0,80,80,136,1,,,,,,,,
,,,,,,,,,,,,,FF,,,,,,,,1.1666,,,,,,,,,,,,,,,,,,,,,,6101122085410e70ca020a04,61037521f670281226f4e08e,2021-07-29_21h00.51.345,Simcolourproject_2stim_asymm_v5,2020.2.10,MacIntel,60,61025ae37ef11b136ea224fe,,,,,,,,,1866,64.91796875,24.1328125,1,0,0,response1disk,,6,9.625,-2.09375,1,0,0,rectangle,9.625,-2.09375,1,0,0,9.625,-2.09375,1,0,0,0,81,81,13,1,,,,,,,,
,,,,,,,,,,,,,FF,,,,,,,,1.2493,,,,,,,,,,,,,,,,,,,,,,6101122085410e70ca020a04,61037521f670281226f4e08e,2021-07-29_21h00.51.345,Simcolourproject_2stim_asymm_v5,2020.2.10,MacIntel,60,61025ae37ef11b136ea224fe,,,,,,,,,2202,95.74609375,49.9921875,1,0,0,response1disk,,6,-0.890625,-17.2421875,1,0,0,rectangle,-0.890625,-17.2421875,1,0,0,-0.890625,-17.2421875,1,0,0,0,82,82,45,1,,,,,,,,
,,,,,,,,,,,,,FF,,,,,,,,0.7505,,,,,,,,,,,,,,,,,,,,,,6101122085410e70ca020a04,61037521f670281226f4e08e,2021-07-29_21h00.51.345,Simcolourproject_2stim_asymm_v5,2020.2.10,MacIntel,60,61025ae37ef11b136ea224fe,,,,,,,,,3243,-65.328125,43.1328125,1,0,0,response7disk,,1,-7.73828125,11.48828125,1,0,0,rectangle,-7.73828125,11.48828125,1,0,0,-7.73828125,11.48828125,1,0,0,0,83,83,151,1,,,,,,,,
,,,,,,,,,,,,,FF,,,,,,,,1.7009,,,,,,,,,,,,,,,,,,,,,,6101122085410e70ca020a04,61037521f670281226f4e08e,2021-07-29_21h00.51.345,Simcolourproject_2stim_asymm_v5,2020.2.10,MacIntel,60,61025ae37ef11b136ea224fe,,,,,,,,,1087,30.328125,54.40625,1,0,0,response1disk,,7,29.0546875,14.63671875,1,0,0,rectangle,29.0546875,14.63671875,1,0,0,29.0546875,14.63671875,1,0,0,0,84,84,94,1,,,,,,,,
,,,,,,,,,,,,,FF,,,,,,,,0.8998,,,,,,,,,,,,,,,,,,,,,,6101122085410e70ca020a04,61037521f670281226f4e08e,2021-07-29_21h00.51.345,Simcolourproject_2stim_asymm_v5,2020.2.10,MacIntel,60,61025ae37ef11b136ea224fe,,,,,,,,,3054,-49.46875,-73.73828125,1,0,0,response5disk,,3,-15.46484375,-15.39453125,1,0,0,rectangle,-15.46484375,-15.39453125,1,0,0,-15.46484375,-15.39453125,1,0,0,0,85,85,105,1,,,,,,,,
,,,,,,,,,,,,,FF,,,,,,,,1.2832,,,,,,,,,,,,,,,,,,,,,,6101122085410e70ca020a04,61037521f670281226f4e08e,2021-07-29_21h00.51.345,Simcolourproject_2stim_asymm_v5,2020.2.10,MacIntel,60,61025ae37ef11b136ea224fe,,,,,,,,,1562,16.953125,-94.625,1,0,0,response3disk,,4,15.65234375,8.81640625,1,0,0,rectangle,15.65234375,8.81640625,1,0,0,15.65234375,8.81640625,1,0,0,0,86,86,80,1,,,,,,,,
,,,,,,,,,,,,,FF,,,,,,,,1.4666,,,,,,,,,,,,,,,,,,,,,,6101122085410e70ca020a04,61037521f670281226f4e08e,2021-07-29_21h00.51.345,Simcolourproject_2stim_asymm_v5,2020.2.10,MacIntel,60,61025ae37ef11b136ea224fe,,,,,,,,,309,38.39453125,44.2109375,1,0,0,response1disk,,7,13.0546875,-3.5390625,1,0,0,rectangle,13.0546875,-3.5390625,1,0,0,13.0546875,-3.5390625,1,0,0,0,87,87,64,1,,,,,,,,
,,,,,,,,,,,,,FF,,,,,,,,6.8153,,,,,,,,,,,,,,,,,,,,,,6101122085410e70ca020a04,61037521f670281226f4e08e,2021-07-29_21h00.51.345,Simcolourproject_2stim_asymm_v5,2020.2.10,MacIntel,60,61025ae37ef11b136ea224fe,,,,,,,,,2534,71.05078125,36.5625,1,0,0,response1disk,,6,10.08984375,16.59375,1,0,0,rectangle,10.08984375,16.59375,1,0,0,10.08984375,16.59375,1,0,0,0,88,88,69,1,,,,,,,,
,,,,,,,,,,,,,FF,,,,,,,,0.9505,,,,,,,,,,,,,,,,,,,,,,6101122085410e70ca020a04,61037521f670281226f4e08e,2021-07-29_21h00.51.345,Simcolourproject_2stim_asymm_v5,2020.2.10,MacIntel,60,61025ae37ef11b136ea224fe,,,,,,,,,3729,23.5703125,74.8671875,1,0,0,response1disk,,7,16.39453125,-9.60546875,1,0,0,rectangle,16.39453125,-9.60546875,1,0,0,16.39453125,-9.60546875,1,0,0,0,89,89,55,1,,,,,,,,
,,,,,,,,,,,,,FF,,,,,,,,0.9141,,,,,,,,,,,,,,,,,,,,,,6101122085410e70ca020a04,61037521f670281226f4e08e,2021-07-29_21h00.51.345,Simcolourproject_2stim_asymm_v5,2020.2.10,MacIntel,60,61025ae37ef11b136ea224fe,,,,,,,,,121,50.86328125,-42.81640625,1,0,0,response3disk,,5,10.5078125,-11,1,0,0,rectangle,10.5078125,-11,1,0,0,10.5078125,-11,1,0,0,0,90,90,49,1,,,,,,,,
,,,,,,,,,,,,,FF,,,,,,,,0.8661,,,,,,,,,,,,,,,,,,,,,,6101122085410e70ca020a04,61037521f670281226f4e08e,2021-07-29_21h00.51.345,Simcolourproject_2stim_asymm_v5,2020.2.10,MacIntel,60,61025ae37ef11b136ea224fe,,,,,,,,,998,95.19140625,-38.42578125,1,0,0,response3disk,,5,-11.09375,-7.6171875,1,0,0,rectangle,-11.09375,-7.6171875,1,0,0,-11.09375,-7.6171875,1,0,0,0,91,91,122,1,,,,,,,,
,,,,,,,,,,,,,FF,,,,,,,,3.3157,,,,,,,,,,,,,,,,,,,,,,6101122085410e70ca020a04,61037521f670281226f4e08e,2021-07-29_21h00.51.345,Simcolourproject_2stim_asymm_v5,2020.2.10,MacIntel,60,61025ae37ef11b136ea224fe,,,,,,,,,1925,45.08984375,60.9140625,1,0,0,response1disk,,7,6.3125,-13,1,0,0,rectangle,6.3125,-13,1,0,0,6.3125,-13,1,0,0,0,92,92,126,1,,,,,,,,
,,,,,,,,,,,,,FF,,,,,,,,1.45,,,,,,,,,,,,,,,,,,,,,,6101122085410e70ca020a04,61037521f670281226f4e08e,2021-07-29_21h00.51.345,Simcolourproject_2stim_asymm_v5,2020.2.10,MacIntel,60,61025ae37ef11b136ea224fe,,,,,,,,,2431,46.375,-68.30859375,1,0,0,response3disk,,4,12.9140625,-7.5625,1,0,0,rectangle,12.9140625,-7.5625,1,0,0,12.9140625,-7.5625,1,0,0,0,93,93,51,1,,,,,,,,
,,,,,,,,,,,,,FF,,,,,,,,0.9168,,,,,,,,,,,,,,,,,,,,,,6101122085410e70ca020a04,61037521f670281226f4e08e,2021-07-29_21h00.51.345,Simcolourproject_2stim_asymm_v5,2020.2.10,MacIntel,60,61025ae37ef11b136ea224fe,,,,,,,,,2343,35.24609375,48.96875,1,0,0,response1disk,,7,21.390625,11.9375,1,0,0,rectangle,21.390625,11.9375,1,0,0,21.390625,11.9375,1,0,0,0,94,94,37,1,,,,,,,,
,,,,,,,,,,,,,FF,,,,,,,,4.6662,,,,,,,,,,,,,,,,,,,,,,6101122085410e70ca020a04,61037521f670281226f4e08e,2021-07-29_21h00.51.345,Simcolourproject_2stim_asymm_v5,2020.2.10,MacIntel,60,61025ae37ef11b136ea224fe,,,,,,,,,3100,-50.2890625,-82.1640625,1,0,0,response5disk,,3,-8.5859375,-0.21875,1,0,0,rectangle,-8.5859375,-0.21875,1,0,0,-8.5859375,-0.21875,1,0,0,0,95,95,102,1,,,,,,,,
,,,,,,,,,,,,,FF,,,,,,,,1.457,,,,,,,,,,,,,,,,,,,,,,6101122085410e70ca020a04,61037521f670281226f4e08e,2021-07-29_21h00.51.345,Simcolourproject_2stim_asymm_v5,2020.2.10,MacIntel,60,61025ae37ef11b136ea224fe,,,,,,,,,4306,-45.2265625,-99.84375,1,0,0,response5disk,,3,-26.89453125,1.16796875,1,0,0,rectangle,-26.89453125,1.16796875,1,0,0,-26.89453125,1.16796875,1,0,0,0,96,96,40,1,,,,,,,,
,,,,,,,,,,,,,FF,,,,,,,,0.6,,,,,,,,,,,,,,,,,,,,,,6101122085410e70ca020a04,61037521f670281226f4e08e,2021-07-29_21h00.51.345,Simcolourproject_2stim_asymm_v5,2020.2.10,MacIntel,60,61025ae37ef11b136ea224fe,,,,,,,,,4296,32.9140625,65.51171875,1,0,0,response1disk,,7,16.7109375,8.27734375,1,0,0,rectangle,16.7109375,8.27734375,1,0,0,16.7109375,8.27734375,1,0,0,0,97,97,43,1,,,,,,,,
,,,,,,,,,,,,,FF,,,,,,,,1.2506,,,,,,,,,,,,,,,,,,,,,,6101122085410e70ca020a04,61037521f670281226f4e08e,2021-07-29_21h00.51.345,Simcolourproject_2stim_asymm_v5,2020.2.10,MacIntel,60,61025ae37ef11b136ea224fe,,,,,,,,,68,57.8203125,-99.3828125,1,0,0,response3disk,,4,30.97265625,5.00390625,1,0,0,rectangle,-33.47265625,89.4140625,1,0,0,-10.41015625,-3.953125,1,0,0,0,98,98,112,1,,response7disk_3,TRUE,0,0,"[127,167,7,170,266,268,318,170,78,73,42,193,14,105,160,190,165,182,99,280]",1.5326,rectangle
,,,,,,,,,,,,,FF,,,,,,,,2.3833,,,,,,,,,,,,,,,,,,,,,,6101122085410e70ca020a04,61037521f670281226f4e08e,2021-07-29_21h00.51.345,Simcolourproject_2stim_asymm_v5,2020.2.10,MacIntel,60,61025ae37ef11b136ea224fe,,,,,,,,,2161,63.09765625,-33.19921875,1,0,0,response3disk,,5,17.203125,-10.44921875,1,0,0,rectangle,17.203125,-10.44921875,1,0,0,17.203125,-10.44921875,1,0,0,0,99,99,137,1,,,,,,,,
,,,,,,,,,,,,,FF,,,,,,,,0.8827,,,,,,,,,,,,,,,,,,,,,,6101122085410e70ca020a04,61037521f670281226f4e08e,2021-07-29_21h00.51.345,Simcolourproject_2stim_asymm_v5,2020.2.10,MacIntel,60,61025ae37ef11b136ea224fe,,,,,,,,,2421,-25.69140625,-85.4140625,1,0,0,response5disk,,3,3.03515625,8.46484375,1,0,0,rectangle,3.03515625,8.46484375,1,0,0,3.03515625,8.46484375,1,0,0,0,100,100,74,1,,,,,,,,
,,,,,,,,,,,,,FF,,,,,,,,1.1997,,,,,,,,,,,,,,,,,,,,,,6101122085410e70ca020a04,61037521f670281226f4e08e,2021-07-29_21h00.51.345,Simcolourproject_2stim_asymm_v5,2020.2.10,MacIntel,60,61025ae37ef11b136ea224fe,,,,,,,,,3953,23.3671875,-35.7734375,1,0,0,response3disk,,4,7.3203125,-1.80078125,1,0,0,rectangle,7.3203125,-1.80078125,1,0,0,7.3203125,-1.80078125,1,0,0,0,101,101,6,1,,,,,,,,
,,,,,,,,,,,,,FF,,,,,,,,0.9331,,,,,,,,,,,,,,,,,,,,,,6101122085410e70ca020a04,61037521f670281226f4e08e,2021-07-29_21h00.51.345,Simcolourproject_2stim_asymm_v5,2020.2.10,MacIntel,60,61025ae37ef11b136ea224fe,,,,,,,,,562,67.5078125,40.8125,1,0,0,response1disk,,6,1.83984375,9.953125,1,0,0,rectangle,1.83984375,9.953125,1,0,0,1.83984375,9.953125,1,0,0,0,102,102,26,1,,,,,,,,
,,,,,,,,,,,,,FF,,,,,,,,3.7337,,,,,,,,,,,,,,,,,,,,,,6101122085410e70ca020a04,61037521f670281226f4e08e,2021-07-29_21h00.51.345,Simcolourproject_2stim_asymm_v5,2020.2.10,MacIntel,60,61025ae37ef11b136ea224fe,,,,,,,,,2285,83.30859375,46.69921875,1,0,0,response1disk,,6,21.75390625,2.56640625,1,0,0,rectangle,21.75390625,2.56640625,1,0,0,21.75390625,2.56640625,1,0,0,0,103,103,114,1,,,,,,,,
,,,,,,,,,,,,,FF,,,,,,,,3.2343,,,,,,,,,,,,,,,,,,,,,,6101122085410e70ca020a04,61037521f670281226f4e08e,2021-07-29_21h00.51.345,Simcolourproject_2stim_asymm_v5,2020.2.10,MacIntel,60,61025ae37ef11b136ea224fe,,,,,,,,,539,45.44921875,63.96484375,1,0,0,response1disk,,7,-5.36328125,-5.92578125,1,0,0,rectangle,-34.59765625,-97.90625,1,0,0,3.296875,-3.0625,1,0,0,0,104,104,27,1,,response5disk_3,TRUE,3,3,"[127,167,7,170,266,268,318,170,78,73,42,193,14,105,160,190,165,182,99,280]",2.0507,rectangle
,,,,,,,,,,,,,FF,,,,,,,,3.1662,,,,,,,,,,,,,,,,,,,,,,6101122085410e70ca020a04,61037521f670281226f4e08e,2021-07-29_21h00.51.345,Simcolourproject_2stim_asymm_v5,2020.2.10,MacIntel,60,61025ae37ef11b136ea224fe,,,,,,,,,1183,16.93359375,62.98828125,1,0,0,response1disk,,7,16.93359375,1.37890625,1,0,0,rectangle,16.93359375,1.37890625,1,0,0,16.93359375,1.37890625,1,0,0,0,105,105,141,1,,,,,,,,
,,,,,,,,,,,,,FF,,,,,,,,1.6174,,,,,,,,,,,,,,,,,,,,,,6101122085410e70ca020a04,61037521f670281226f4e08e,2021-07-29_21h00.51.345,Simcolourproject_2stim_asymm_v5,2020.2.10,MacIntel,60,61025ae37ef11b136ea224fe,,,,,,,,,1799,94.3828125,-20.984375,1,0,0,response3disk,,5,22.36328125,5.62109375,1,0,0,rectangle,22.36328125,5.62109375,1,0,0,22.36328125,5.62109375,1,0,0,0,106,106,73,1,,,,,,,,
,,,,,,,,,,,,,FF,,,,,,,,0.7988,,,,,,,,,,,,,,,,,,,,,,6101122085410e70ca020a04,61037521f670281226f4e08e,2021-07-29_21h00.51.345,Simcolourproject_2stim_asymm_v5,2020.2.10,MacIntel,60,61025ae37ef11b136ea224fe,,,,,,,,,473,31.3125,52.05859375,1,0,0,response1disk,,7,14.890625,-2.0703125,1,0,0,rectangle,14.890625,-2.0703125,1,0,0,14.890625,-2.0703125,1,0,0,0,107,107,2,1,,,,,,,,
,,,,,,,,,,,,,FF,,,,,,,,0.5492,,,,,,,,,,,,,,,,,,,,,,6101122085410e70ca020a04,61037521f670281226f4e08e,2021-07-29_21h00.51.345,Simcolourproject_2stim_asymm_v5,2020.2.10,MacIntel,60,61025ae37ef11b136ea224fe,,,,,,,,,3501,37.96484375,57.2734375,1,0,0,response1disk,,7,12.2265625,3.40234375,1,0,0,rectangle,12.2265625,3.40234375,1,0,0,12.2265625,3.40234375,1,0,0,0,108,108,89,1,,,,,,,,
,,,,,,,,,,,,,FF,,,,,,,,0.9001,,,,,,,,,,,,,,,,,,,,,,6101122085410e70ca020a04,61037521f670281226f4e08e,2021-07-29_21h00.51.345,Simcolourproject_2stim_asymm_v5,2020.2.10,MacIntel,60,61025ae37ef11b136ea224fe,,,,,,,,,1874,38.078125,56.90234375,1,0,0,response1disk,,7,19.90625,-0.0625,1,0,0,rectangle,19.90625,-0.0625,1,0,0,19.90625,-0.0625,1,0,0,0,109,109,59,1,,,,,,,,
,,,,,,,,,,,,,FF,,,,,,,,1.067,,,,,,,,,,,,,,,,,,,,,,6101122085410e70ca020a04,61037521f670281226f4e08e,2021-07-29_21h00.51.345,Simcolourproject_2stim_asymm_v5,2020.2.10,MacIntel,60,61025ae37ef11b136ea224fe,,,,,,,,,401,54.3125,59.78515625,1,0,0,response1disk,,7,9.1328125,-15.48828125,1,0,0,rectangle,9.1328125,-15.48828125,1,0,0,9.1328125,-15.48828125,1,0,0,0,110,110,57,1,,,,,,,,
,,,,,,,,,,,,,FF,,,,,,,,1.9838,,,,,,,,,,,,,,,,,,,,,,6101122085410e70ca020a04,61037521f670281226f4e08e,2021-07-29_21h00.51.345,Simcolourproject_2stim_asymm_v5,2020.2.10,MacIntel,60,61025ae37ef11b136ea224fe,,,,,,,,,230,36.34375,59.171875,1,0,0,response1disk,,7,9.17578125,-0.67578125,1,0,0,rectangle,9.17578125,-0.67578125,1,0,0,9.17578125,-0.67578125,1,0,0,0,111,111,33,1,,,,,,,,
,,,,,,,,,,,,,FF,,,,,,,,0.7153,,,,,,,,,,,,,,,,,,,,,,6101122085410e70ca020a04,61037521f670281226f4e08e,2021-07-29_21h00.51.345,Simcolourproject_2stim_asymm_v5,2020.2.10,MacIntel,60,61025ae37ef11b136ea224fe,,,,,,,,,2642,47.17578125,74.88671875,1,0,0,response1disk,,7,20.52734375,12.46875,1,0,0,rectangle,20.52734375,12.46875,1,0,0,20.52734375,12.46875,1,0,0,0,112,112,10,1,,,,,,,,
,,,,,,,,,,,,,FF,,,,,,,,1.8832,,,,,,,,,,,,,,,,,,,,,,6101122085410e70ca020a04,61037521f670281226f4e08e,2021-07-29_21h00.51.345,Simcolourproject_2stim_asymm_v5,2020.2.10,MacIntel,60,61025ae37ef11b136ea224fe,,,,,,,,,4089,87.6640625,18.73828125,1,0,0,response1disk,,6,15.34375,-9.72265625,1,0,0,rectangle,15.34375,-9.72265625,1,0,0,15.34375,-9.72265625,1,0,0,0,113,113,145,1,,,,,,,,
,,,,,,,,,,,,,FF,,,,,,,,33.0186,,,,,,,,,,,,,,,,,,,,,,6101122085410e70ca020a04,61037521f670281226f4e08e,2021-07-29_21h00.51.345,Simcolourproject_2stim_asymm_v5,2020.2.10,MacIntel,60,61025ae37ef11b136ea224fe,,,,,,,,,378,67.01171875,33.53125,1,0,0,response1disk,,6,-13.87890625,-6.41015625,1,0,0,rectangle,-13.87890625,-6.41015625,1,0,0,-13.87890625,-6.41015625,1,0,0,0,114,114,60,1,,,,,,,,
,,,,,,,,,,,,,FF,,,,,,,,1.7163,,,,,,,,,,,,,,,,,,,,,,6101122085410e70ca020a04,61037521f670281226f4e08e,2021-07-29_21h00.51.345,Simcolourproject_2stim_asymm_v5,2020.2.10,MacIntel,60,61025ae37ef11b136ea224fe,,,,,,,,,958,40.640625,-83.5234375,1,0,0,response3disk,,4,10.5546875,-2.05859375,1,0,0,rectangle,10.5546875,-2.05859375,1,0,0,10.5546875,-2.05859375,1,0,0,0,115,115,142,1,,,,,,,,
,,,,,,,,,,,,,FF,,,,,,,,0.8194,,,,,,,,,,,,,,,,,,,,,,6101122085410e70ca020a04,61037521f670281226f4e08e,2021-07-29_21h00.51.345,Simcolourproject_2stim_asymm_v5,2020.2.10,MacIntel,60,61025ae37ef11b136ea224fe,,,,,,,,,358,29.578125,53.06640625,1,0,0,response1disk,,7,19.90234375,15.53125,1,0,0,rectangle,19.90234375,15.53125,1,0,0,19.90234375,15.53125,1,0,0,0,116,116,113,1,,,,,,,,
,,,,,,,,,,,,,FF,,,,,,,,1.3335,,,,,,,,,,,,,,,,,,,,,,6101122085410e70ca020a04,61037521f670281226f4e08e,2021-07-29_21h00.51.345,Simcolourproject_2stim_asymm_v5,2020.2.10,MacIntel,60,61025ae37ef11b136ea224fe,,,,,,,,,1089,66.234375,48.33984375,1,0,0,response1disk,,6,13.5625,1.39453125,1,0,0,rectangle,13.5625,1.39453125,1,0,0,13.5625,1.39453125,1,0,0,0,117,117,103,1,,,,,,,,
,,,,,,,,,,,,,FF,,,,,,,,0.8518,,,,,,,,,,,,,,,,,,,,,,6101122085410e70ca020a04,61037521f670281226f4e08e,2021-07-29_21h00.51.345,Simcolourproject_2stim_asymm_v5,2020.2.10,MacIntel,60,61025ae37ef11b136ea224fe,,,,,,,,,700,-60.5,-45.6953125,1,0,0,response5disk,,2,-7.55078125,2.328125,1,0,0,rectangle,-7.55078125,2.328125,1,0,0,-7.55078125,2.328125,1,0,0,0,118,118,92,1,,,,,,,,
,,,,,,,,,,,,,FF,,,,,,,,1.5659,,,,,,,,,,,,,,,,,,,,,,6101122085410e70ca020a04,61037521f670281226f4e08e,2021-07-29_21h00.51.345,Simcolourproject_2stim_asymm_v5,2020.2.10,MacIntel,60,61025ae37ef11b136ea224fe,,,,,,,,,1913,74.23828125,95,1,0,0,response1disk,,7,-24.796875,-9.171875,1,0,0,rectangle,-24.796875,-9.171875,1,0,0,-24.796875,-9.171875,1,0,0,0,119,119,65,1,,,,,,,,
,,,,,,,,,,,,,FF,,,,,,,,1.0671,,,,,,,,,,,,,,,,,,,,,,6101122085410e70ca020a04,61037521f670281226f4e08e,2021-07-29_21h00.51.345,Simcolourproject_2stim_asymm_v5,2020.2.10,MacIntel,60,61025ae37ef11b136ea224fe,,,,,,,,,1322,28.8828125,-46.0703125,1,0,0,response3disk,,4,22.40234375,2.07421875,1,0,0,rectangle,22.40234375,2.07421875,1,0,0,22.40234375,2.07421875,1,0,0,0,120,120,67,1,,,,,,,,
,,,,,,,,,,,,,FF,,,,,,,,2.3823,,,,,,,,,,,,,,,,,,,,,,6101122085410e70ca020a04,61037521f670281226f4e08e,2021-07-29_21h00.51.345,Simcolourproject_2stim_asymm_v5,2020.2.10,MacIntel,60,61025ae37ef11b136ea224fe,,,,,,,,,3648,33.55859375,-23.9453125,1,0,0,response3disk,,5,6.234375,-3.32421875,1,0,0,rectangle,6.234375,-3.32421875,1,0,0,6.234375,-3.32421875,1,0,0,0,121,121,77,1,,,,,,,,
,,,,,,,,,,,,,FF,,,,,,,,3.45,,,,,,,,,,,,,,,,,,,,,,6101122085410e70ca020a04,61037521f670281226f4e08e,2021-07-29_21h00.51.345,Simcolourproject_2stim_asymm_v5,2020.2.10,MacIntel,60,61025ae37ef11b136ea224fe,,,,,,,,,2447,61.16796875,34.1171875,1,0,0,response1disk,,6,25.32421875,9.66015625,1,0,0,rectangle,25.32421875,9.66015625,1,0,0,25.32421875,9.66015625,1,0,0,0,122,122,29,1,,,,,,,,
,,,,,,,,,,,,,FF,,,,,,,,3.6168,,,,,,,,,,,,,,,,,,,,,,6101122085410e70ca020a04,61037521f670281226f4e08e,2021-07-29_21h00.51.345,Simcolourproject_2stim_asymm_v5,2020.2.10,MacIntel,60,61025ae37ef11b136ea224fe,,,,,,,,,1951,76.8046875,30.59765625,1,0,0,response1disk,,6,3.99609375,6.50390625,1,0,0,rectangle,3.99609375,6.50390625,1,0,0,3.99609375,6.50390625,1,0,0,0,123,123,63,1,,,,,,,,
,,,,,,,,,,,,,FF,,,,,,,,4.8177,,,,,,,,,,,,,,,,,,,,,,6101122085410e70ca020a04,61037521f670281226f4e08e,2021-07-29_21h00.51.345,Simcolourproject_2stim_asymm_v5,2020.2.10,MacIntel,60,61025ae37ef11b136ea224fe,,,,,,,,,3764,88.6796875,34.09375,1,0,0,response1disk,,6,8.7734375,0.609375,1,0,0,rectangle,8.7734375,0.609375,1,0,0,8.7734375,0.609375,1,0,0,0,124,124,1,1,,,,,,,,
,,,,,,,,,,,,,FF,,,,,,,,4.1343,,,,,,,,,,,,,,,,,,,,,,6101122085410e70ca020a04,61037521f670281226f4e08e,2021-07-29_21h00.51.345,Simcolourproject_2stim_asymm_v5,2020.2.10,MacIntel,60,61025ae37ef11b136ea224fe,,,,,,,,,4265,40.515625,89.18359375,1,0,0,response1disk,,7,3.01171875,8.26171875,1,0,0,rectangle,3.01171875,8.26171875,1,0,0,3.01171875,8.26171875,1,0,0,0,125,125,87,1,,,,,,,,
,,,,,,,,,,,,,FF,,,,,,,,0.8174,,,,,,,,,,,,,,,,,,,,,,6101122085410e70ca020a04,61037521f670281226f4e08e,2021-07-29_21h00.51.345,Simcolourproject_2stim_asymm_v5,2020.2.10,MacIntel,60,61025ae37ef11b136ea224fe,,,,,,,,,4303,32.29296875,46.015625,1,0,0,response1disk,,7,10.51171875,-1.390625,1,0,0,rectangle,48.34375,-86.5234375,1,0,0,1.65234375,-6.27734375,1,0,0,0,126,126,81,1,,response3disk_3,TRUE,4,4,"[127,167,7,170,266,268,318,170,78,73,42,193,14,105,160,190,165,182,99,280]",2.2484,rectangle
,,,,,,,,,,,,,FF,,,,,,,,0.6997,,,,,,,,,,,,,,,,,,,,,,6101122085410e70ca020a04,61037521f670281226f4e08e,2021-07-29_21h00.51.345,Simcolourproject_2stim_asymm_v5,2020.2.10,MacIntel,60,61025ae37ef11b136ea224fe,,,,,,,,,3886,20.75,47.14453125,1,0,0,response1disk,,7,14.015625,5.66796875,1,0,0,rectangle,14.015625,5.66796875,1,0,0,14.015625,5.66796875,1,0,0,0,127,127,119,1,,,,,,,,
,,,,,,,,,,,,,FF,,,,,,,,1.6163,,,,,,,,,,,,,,,,,,,,,,6101122085410e70ca020a04,61037521f670281226f4e08e,2021-07-29_21h00.51.345,Simcolourproject_2stim_asymm_v5,2020.2.10,MacIntel,60,61025ae37ef11b136ea224fe,,,,,,,,,3081,37.24609375,45.265625,1,0,0,response1disk,,7,19.88671875,4.0234375,1,0,0,rectangle,19.88671875,4.0234375,1,0,0,19.88671875,4.0234375,1,0,0,0,128,128,71,1,,,,,,,,
,,,,,,,,,,,,,FF,,,,,,,,0.6158,,,,,,,,,,,,,,,,,,,,,,6101122085410e70ca020a04,61037521f670281226f4e08e,2021-07-29_21h00.51.345,Simcolourproject_2stim_asymm_v5,2020.2.10,MacIntel,60,61025ae37ef11b136ea224fe,,,,,,,,,2866,28.9765625,45.7890625,1,0,0,response1disk,,7,17.15234375,-3.72265625,1,0,0,rectangle,17.15234375,-3.72265625,1,0,0,17.15234375,-3.72265625,1,0,0,0,129,129,108,1,,,,,,,,
,,,,,,,,,,,,,FF,,,,,,,,1.4665,,,,,,,,,,,,,,,,,,,,,,6101122085410e70ca020a04,61037521f670281226f4e08e,2021-07-29_21h00.51.345,Simcolourproject_2stim_asymm_v5,2020.2.10,MacIntel,60,61025ae37ef11b136ea224fe,,,,,,,,,462,-31.30859375,-57.8203125,1,0,0,response5disk,,3,-19.09765625,-11.3515625,1,0,0,rectangle,-19.09765625,-11.3515625,1,0,0,-19.09765625,-11.3515625,1,0,0,0,130,130,68,1,,,,,,,,
,,,,,,,,,,,,,FF,,,,,,,,7.5006,,,,,,,,,,,,,,,,,,,,,,6101122085410e70ca020a04,61037521f670281226f4e08e,2021-07-29_21h00.51.345,Simcolourproject_2stim_asymm_v5,2020.2.10,MacIntel,60,61025ae37ef11b136ea224fe,,,,,,,,,3853,58.828125,75.71875,1,0,0,response1disk,,7,14.421875,15.03125,1,0,0,rectangle,14.421875,15.03125,1,0,0,14.421875,15.03125,1,0,0,0,131,131,76,1,,,,,,,,
,,,,,,,,,,,,,FF,,,,,,,,4.3008,,,,,,,,,,,,,,,,,,,,,,6101122085410e70ca020a04,61037521f670281226f4e08e,2021-07-29_21h00.51.345,Simcolourproject_2stim_asymm_v5,2020.2.10,MacIntel,60,61025ae37ef11b136ea224fe,,,,,,,,,1305,32.609375,59.26171875,1,0,0,response1disk,,7,6.71875,0.23046875,1,0,0,rectangle,6.71875,0.23046875,1,0,0,6.71875,0.23046875,1,0,0,0,132,132,150,1,,,,,,,,
,,,,,,,,,,,,,FF,,,,,,,,1.3175,,,,,,,,,,,,,,,,,,,,,,6101122085410e70ca020a04,61037521f670281226f4e08e,2021-07-29_21h00.51.345,Simcolourproject_2stim_asymm_v5,2020.2.10,MacIntel,60,61025ae37ef11b136ea224fe,,,,,,,,,1984,39.28125,47.3828125,1,0,0,response1disk,,7,17.49609375,15.375,1,0,0,rectangle,17.49609375,15.375,1,0,0,17.49609375,15.375,1,0,0,0,133,133,106,1,,,,,,,,
,,,,,,,,,,,,,FF,,,,,,,,1.4843,,,,,,,,,,,,,,,,,,,,,,6101122085410e70ca020a04,61037521f670281226f4e08e,2021-07-29_21h00.51.345,Simcolourproject_2stim_asymm_v5,2020.2.10,MacIntel,60,61025ae37ef11b136ea224fe,,,,,,,,,1439,74.96875,-51.67578125,1,0,0,response3disk,,5,12.9140625,-12.390625,1,0,0,rectangle,12.9140625,-12.390625,1,0,0,12.9140625,-12.390625,1,0,0,0,134,134,42,1,,,,,,,,
,,,,,,,,,,,,,FF,,,,,,,,2.6018,,,,,,,,,,,,,,,,,,,,,,6101122085410e70ca020a04,61037521f670281226f4e08e,2021-07-29_21h00.51.345,Simcolourproject_2stim_asymm_v5,2020.2.10,MacIntel,60,61025ae37ef11b136ea224fe,,,,,,,,,3592,37.0703125,50.30859375,1,0,0,response1disk,,7,15.60546875,17.8671875,1,0,0,rectangle,15.60546875,17.8671875,1,0,0,15.60546875,17.8671875,1,0,0,0,135,135,96,1,,,,,,,,
,,,,,,,,,,,,,FF,,,,,,,,1.083,,,,,,,,,,,,,,,,,,,,,,6101122085410e70ca020a04,61037521f670281226f4e08e,2021-07-29_21h00.51.345,Simcolourproject_2stim_asymm_v5,2020.2.10,MacIntel,60,61025ae37ef11b136ea224fe,,,,,,,,,143,21.62890625,47.58984375,1,0,0,response1disk,,7,6.328125,6.171875,1,0,0,rectangle,6.328125,6.171875,1,0,0,6.328125,6.171875,1,0,0,0,136,136,131,1,,,,,,,,
,,,,,,,,,,,,,FF,,,,,,,,59.6317,,,,,,,,,,,,,,,,,,,,,,6101122085410e70ca020a04,61037521f670281226f4e08e,2021-07-29_21h00.51.345,Simcolourproject_2stim_asymm_v5,2020.2.10,MacIntel,60,61025ae37ef11b136ea224fe,,,,,,,,,2314,58.09375,25.734375,1,0,0,response1disk,,6,17.80078125,-7.3359375,1,0,0,rectangle,17.80078125,-7.3359375,1,0,0,17.80078125,-7.3359375,1,0,0,0,137,137,19,1,,,,,,,,
,,,,,,,,,,,,,FF,,,,,,,,1.3503,,,,,,,,,,,,,,,,,,,,,,6101122085410e70ca020a04,61037521f670281226f4e08e,2021-07-29_21h00.51.345,Simcolourproject_2stim_asymm_v5,2020.2.10,MacIntel,60,61025ae37ef11b136ea224fe,,,,,,,,,859,77.94140625,-50.4609375,1,0,0,response3disk,,5,9.51953125,-13.2265625,1,0,0,rectangle,9.51953125,-13.2265625,1,0,0,9.51953125,-13.2265625,1,0,0,0,138,138,66,1,,,,,,,,
,,,,,,,,,,,,,FF,,,,,,,,1.5663,,,,,,,,,,,,,,,,,,,,,,6101122085410e70ca020a04,61037521f670281226f4e08e,2021-07-29_21h00.51.345,Simcolourproject_2stim_asymm_v5,2020.2.10,MacIntel,60,61025ae37ef11b136ea224fe,,,,,,,,,890,44.63671875,-72.53125,1,0,0,response3disk,,4,12.52734375,-2.7109375,1,0,0,rectangle,12.52734375,-2.7109375,1,0,0,12.52734375,-2.7109375,1,0,0,0,139,139,107,1,,,,,,,,
,,,,,,,,,,,,,FF,,,,,,,,2.6974,,,,,,,,,,,,,,,,,,,,,,6101122085410e70ca020a04,61037521f670281226f4e08e,2021-07-29_21h00.51.345,Simcolourproject_2stim_asymm_v5,2020.2.10,MacIntel,60,61025ae37ef11b136ea224fe,,,,,,,,,3063,66.66015625,59.22265625,1,0,0,response1disk,,6,9.4765625,14.80078125,1,0,0,rectangle,9.4765625,14.80078125,1,0,0,9.4765625,14.80078125,1,0,0,0,140,140,125,1,,,,,,,,
,,,,,,,,,,,,,FF,,,,,,,,1.2166,,,,,,,,,,,,,,,,,,,,,,6101122085410e70ca020a04,61037521f670281226f4e08e,2021-07-29_21h00.51.345,Simcolourproject_2stim_asymm_v5,2020.2.10,MacIntel,60,61025ae37ef11b136ea224fe,,,,,,,,,2754,79.46875,30.71875,1,0,0,response1disk,,6,23.32421875,-7.515625,1,0,0,rectangle,23.32421875,-7.515625,1,0,0,23.32421875,-7.515625,1,0,0,0,141,141,78,1,,,,,,,,
,,,,,,,,,,,,,FF,,,,,,,,1.4335,,,,,,,,,,,,,,,,,,,,,,6101122085410e70ca020a04,61037521f670281226f4e08e,2021-07-29_21h00.51.345,Simcolourproject_2stim_asymm_v5,2020.2.10,MacIntel,60,61025ae37ef11b136ea224fe,,,,,,,,,3188,18.125,-95.21875,1,0,0,response3disk,,4,18.125,0.16796875,1,0,0,rectangle,18.125,0.16796875,1,0,0,18.125,0.16796875,1,0,0,0,142,142,143,1,,,,,,,,
,,,,,,,,,,,,,FF,,,,,,,,1.3336,,,,,,,,,,,,,,,,,,,,,,6101122085410e70ca020a04,61037521f670281226f4e08e,2021-07-29_21h00.51.345,Simcolourproject_2stim_asymm_v5,2020.2.10,MacIntel,60,61025ae37ef11b136ea224fe,,,,,,,,,2163,76.4765625,-44.3203125,1,0,0,response3disk,,5,19.1328125,-11.19921875,1,0,0,rectangle,19.1328125,-11.19921875,1,0,0,19.1328125,-11.19921875,1,0,0,0,143,143,140,1,,,,,,,,
,,,,,,,,,,,,,FF,,,,,,,,1.3344,,,,,,,,,,,,,,,,,,,,,,6101122085410e70ca020a04,61037521f670281226f4e08e,2021-07-29_21h00.51.345,Simcolourproject_2stim_asymm_v5,2020.2.10,MacIntel,60,61025ae37ef11b136ea224fe,,,,,,,,,454,35.375,82.96875,1,0,0,response1disk,,7,-2.49609375,-8.67578125,1,0,0,rectangle,-2.49609375,-8.67578125,1,0,0,-2.49609375,-8.67578125,1,0,0,0,144,144,100,1,,,,,,,,
,,,,,,,,,,,,,FF,,,,,,,,1.0835,,,,,,,,,,,,,,,,,,,,,,6101122085410e70ca020a04,61037521f670281226f4e08e,2021-07-29_21h00.51.345,Simcolourproject_2stim_asymm_v5,2020.2.10,MacIntel,60,61025ae37ef11b136ea224fe,,,,,,,,,2369,53.34375,-86.26953125,1,0,0,response3disk,,4,15.9921875,-16.4921875,1,0,0,rectangle,15.9921875,-16.4921875,1,0,0,15.9921875,-16.4921875,1,0,0,0,145,145,130,1,,,,,,,,
,,,,,,,,,,,,,FF,,,,,,,,1.1658,,,,,,,,,,,,,,,,,,,,,,6101122085410e70ca020a04,61037521f670281226f4e08e,2021-07-29_21h00.51.345,Simcolourproject_2stim_asymm_v5,2020.2.10,MacIntel,60,61025ae37ef11b136ea224fe,,,,,,,,,2684,101.7109375,38.3984375,1,0,0,response1disk,,6,14.2578125,-3.26171875,1,0,0,rectangle,14.2578125,-3.26171875,1,0,0,14.2578125,-3.26171875,1,0,0,0,146,146,98,1,,,,,,,,
,,,,,,,,,,,,,FF,,,,,,,,0.8991,,,,,,,,,,,,,,,,,,,,,,6101122085410e70ca020a04,61037521f670281226f4e08e,2021-07-29_21h00.51.345,Simcolourproject_2stim_asymm_v5,2020.2.10,MacIntel,60,61025ae37ef11b136ea224fe,,,,,,,,,207,49.109375,69.984375,1,0,0,response1disk,,7,17.7265625,-4.87890625,1,0,0,rectangle,17.7265625,-4.87890625,1,0,0,17.7265625,-4.87890625,1,0,0,0,147,147,133,1,,,,,,,,
,,,,,,,,,,,,,FF,,,,,,,,0.7141,,,,,,,,,,,,,,,,,,,,,,6101122085410e70ca020a04,61037521f670281226f4e08e,2021-07-29_21h00.51.345,Simcolourproject_2stim_asymm_v5,2020.2.10,MacIntel,60,61025ae37ef11b136ea224fe,,,,,,,,,1473,32.421875,63.734375,1,0,0,response1disk,,7,20.46875,3.4140625,1,0,0,rectangle,20.46875,3.4140625,1,0,0,20.46875,3.4140625,1,0,0,0,148,148,4,1,,,,,,,,
,,,,,,,,,,,,,FF,,,,,,,,1.2336,,,,,,,,,,,,,,,,,,,,,,6101122085410e70ca020a04,61037521f670281226f4e08e,2021-07-29_21h00.51.345,Simcolourproject_2stim_asymm_v5,2020.2.10,MacIntel,60,61025ae37ef11b136ea224fe,,,,,,,,,520,52.57421875,-36.3125,1,0,0,response3disk,,5,8.421875,-0.33203125,1,0,0,rectangle,8.421875,-0.33203125,1,0,0,8.421875,-0.33203125,1,0,0,0,149,149,46,1,,,,,,,,
,,,,,,,,,,,,,FF,,,,,,,,1.1659,,,,,,,,,,,,,,,,,,,,,,6101122085410e70ca020a04,61037521f670281226f4e08e,2021-07-29_21h00.51.345,Simcolourproject_2stim_asymm_v5,2020.2.10,MacIntel,60,61025ae37ef11b136ea224fe,,,,,,,,,1118,69.54296875,32.8125,1,0,0,response1disk,,6,28.28125,8.31640625,1,0,0,rectangle,28.28125,8.31640625,1,0,0,28.28125,8.31640625,1,0,0,0,150,150,32,1,,,,,,,,
,,,,,,,,,,,,,FF,,,,,,,,0.8487,,,,,,,,,,,,,,,,,,,,,,6101122085410e70ca020a04,61037521f670281226f4e08e,2021-07-29_21h00.51.345,Simcolourproject_2stim_asymm_v5,2020.2.10,MacIntel,60,61025ae37ef11b136ea224fe,,,,,,,,,3493,48.81640625,61.19140625,1,0,0,response1disk,,7,15.82421875,-11.20703125,1,0,0,rectangle,15.82421875,-11.20703125,1,0,0,15.82421875,-11.20703125,1,0,0,0,151,151,117,1,,,,,,,,
,,,,,,,,,,,,,FF,,,,,,,,1.601,,,,,,,,,,,,,,,,,,,,,,6101122085410e70ca020a04,61037521f670281226f4e08e,2021-07-29_21h00.51.345,Simcolourproject_2stim_asymm_v5,2020.2.10,MacIntel,60,61025ae37ef11b136ea224fe,,,,,,,,,2792,-27.8359375,-81.48046875,1,0,0,response5disk,,3,-0.72265625,-3.0546875,1,0,0,rectangle,-0.72265625,-3.0546875,1,0,0,-0.72265625,-3.0546875,1,0,0,0,152,152,135,1,,,,,,,,
,,,,,,,,,,,,,FF,,,,,,,,1.1998,,,,,,,,,,,,,,,,,,,,,,6101122085410e70ca020a04,61037521f670281226f4e08e,2021-07-29_21h00.51.345,Simcolourproject_2stim_asymm_v5,2020.2.10,MacIntel,60,61025ae37ef11b136ea224fe,,,,,,,,,1738,27.30078125,79.01171875,1,0,0,response1disk,,7,6.7265625,1.92578125,1,0,0,rectangle,6.7265625,1.92578125,1,0,0,6.7265625,1.92578125,1,0,0,0,153,153,127,1,,,,,,,,
,,,,,,,,,,,,,FF,,,,,,,,1.0827,,,,,,,,,,,,,,,,,,,,,,6101122085410e70ca020a04,61037521f670281226f4e08e,2021-07-29_21h00.51.345,Simcolourproject_2stim_asymm_v5,2020.2.10,MacIntel,60,61025ae37ef11b136ea224fe,,,,,,,,,4286,46.28515625,99.10546875,1,0,0,response1disk,,7,9.82421875,0.08984375,1,0,0,rectangle,9.82421875,0.08984375,1,0,0,9.82421875,0.08984375,1,0,0,0,154,154,36,1,,,,,,,,
,,,,,,,,,,,,,FF,,,,,,,,0.7497,,,,,,,,,,,,,,,,,,,,,,6101122085410e70ca020a04,61037521f670281226f4e08e,2021-07-29_21h00.51.345,Simcolourproject_2stim_asymm_v5,2020.2.10,MacIntel,60,61025ae37ef11b136ea224fe,,,,,,,,,2338,31.7578125,52.73828125,1,0,0,response1disk,,7,14.234375,4.83984375,1,0,0,rectangle,14.234375,4.83984375,1,0,0,14.234375,4.83984375,1,0,0,0,155,155,115,1,,,,,,,,
,,,,,,,,,,,,,FF,,,,,,,,1.2486,,,,,,,,,,,,,,,,,,,,,,6101122085410e70ca020a04,61037521f670281226f4e08e,2021-07-29_21h00.51.345,Simcolourproject_2stim_asymm_v5,2020.2.10,MacIntel,60,61025ae37ef11b136ea224fe,,,,,,,,,1530,48.98828125,78.7578125,1,0,0,response1disk,,7,26.79296875,7.3984375,1,0,0,rectangle,26.79296875,7.3984375,1,0,0,26.79296875,7.3984375,1,0,0,0,156,156,101,1,,,,,,,,
,,,,,,,,,,,,,FF,,,,,,,,0.7517,,,,,,,,,,,,,,,,,,,,,,6101122085410e70ca020a04,61037521f670281226f4e08e,2021-07-29_21h00.51.345,Simcolourproject_2stim_asymm_v5,2020.2.10,MacIntel,60,61025ae37ef11b136ea224fe,,,,,,,,,1538,41.84375,65.7578125,1,0,0,response1disk,,7,29.078125,15.69921875,1,0,0,rectangle,29.078125,15.69921875,1,0,0,29.078125,15.69921875,1,0,0,0,157,157,8,1,,,,,,,,
,,,,,,,,,,,,,FF,,,,,,,,1.0501,,,,,,,,,,,,,,,,,,,,,,6101122085410e70ca020a04,61037521f670281226f4e08e,2021-07-29_21h00.51.345,Simcolourproject_2stim_asymm_v5,2020.2.10,MacIntel,60,61025ae37ef11b136ea224fe,,,,,,,,,1139,62.20703125,-58.0078125,1,0,0,response3disk,,5,19.0078125,-6.4296875,1,0,0,rectangle,19.0078125,-6.4296875,1,0,0,19.0078125,-6.4296875,1,0,0,0,158,158,24,1,,,,,,,,
,,,,,,,,,,,,,FF,,,,,,,,1.0989,,,,,,,,,,,,,,,,,,,,,,6101122085410e70ca020a04,61037521f670281226f4e08e,2021-07-29_21h00.51.345,Simcolourproject_2stim_asymm_v5,2020.2.10,MacIntel,60,61025ae37ef11b136ea224fe,,,,,,,,,1409,55.203125,29.41015625,1,0,0,response1disk,,6,13.32421875,13.609375,1,0,0,rectangle,-36.5390625,-91.359375,1,0,0,-17.78125,-11.125,1,0,0,0,159,159,70,1,,response5disk_3,TRUE,3,3,"[127,167,7,170,266,268,318,170,78,73,42,193,14,105,160,190,165,182,99,280]",1.8332,rectangle
,,,,,,,,,,,,,FF,,,,,,,,1.2174,,,,,,,,,,,,,,,,,,,,,,6101122085410e70ca020a04,61037521f670281226f4e08e,2021-07-29_21h00.51.345,Simcolourproject_2stim_asymm_v5,2020.2.10,MacIntel,60,61025ae37ef11b136ea224fe,,,,,,,,,1598,52.30859375,-81.68359375,1,0,0,response3disk,,4,30.3046875,1.75390625,1,0,0,rectangle,30.3046875,1.75390625,1,0,0,30.3046875,1.75390625,1,0,0,1,0,160,72,1,,,,,,,,
,,,,,,,,,,,,,FF,,,,,,,,0.7494,,,,,,,,,,,,,,,,,,,,,,6101122085410e70ca020a04,61037521f670281226f4e08e,2021-07-29_21h00.51.345,Simcolourproject_2stim_asymm_v5,2020.2.10,MacIntel,60,61025ae37ef11b136ea224fe,,,,,,,,,2766,42.1328125,83.3125,1,0,0,response1disk,,7,12.6796875,-8.953125,1,0,0,rectangle,12.6796875,-8.953125,1,0,0,12.6796875,-8.953125,1,0,0,1,1,161,4,1,,,,,,,,
,,,,,,,,,,,,,FF,,,,,,,,0.8828,,,,,,,,,,,,,,,,,,,,,,6101122085410e70ca020a04,61037521f670281226f4e08e,2021-07-29_21h00.51.345,Simcolourproject_2stim_asymm_v5,2020.2.10,MacIntel,60,61025ae37ef11b136ea224fe,,,,,,,,,2313,76.78515625,29.8203125,1,0,0,response1disk,,6,20.2109375,6.2734375,1,0,0,rectangle,20.2109375,6.2734375,1,0,0,20.2109375,6.2734375,1,0,0,1,2,162,125,1,,,,,,,,
,,,,,,,,,,,,,FF,,,,,,,,1.0844,,,,,,,,,,,,,,,,,,,,,,6101122085410e70ca020a04,61037521f670281226f4e08e,2021-07-29_21h00.51.345,Simcolourproject_2stim_asymm_v5,2020.2.10,MacIntel,60,61025ae37ef11b136ea224fe,,,,,,,,,3495,35.90625,53.0859375,1,0,0,response1disk,,7,25.5390625,8.33984375,1,0,0,rectangle,25.5390625,8.33984375,1,0,0,25.5390625,8.33984375,1,0,0,1,3,163,97,1,,,,,,,,
,,,,,,,,,,,,,FF,,,,,,,,0.5167,,,,,,,,,,,,,,,,,,,,,,6101122085410e70ca020a04,61037521f670281226f4e08e,2021-07-29_21h00.51.345,Simcolourproject_2stim_asymm_v5,2020.2.10,MacIntel,60,61025ae37ef11b136ea224fe,,,,,,,,,542,35.86328125,64.7109375,1,0,0,response1disk,,7,26.7265625,10.3203125,1,0,0,rectangle,98,37.37109375,1,0,0,18.26171875,-1.6875,1,0,0,1,4,164,47,1,,response1disk_3,TRUE,6,6,"[127,167,7,170,266,268,318,170,78,73,42,193,14,105,160,190,165,182,99,280]",1.4827,rectangle
,,,,,,,,,,,,,FF,,,,,,,,2.7002,,,,,,,,,,,,,,,,,,,,,,6101122085410e70ca020a04,61037521f670281226f4e08e,2021-07-29_21h00.51.345,Simcolourproject_2stim_asymm_v5,2020.2.10,MacIntel,60,61025ae37ef11b136ea224fe,,,,,,,,,2260,76.77734375,36.890625,1,0,0,response1disk,,6,16.125,11.6953125,1,0,0,rectangle,16.125,11.6953125,1,0,0,16.125,11.6953125,1,0,0,1,5,165,99,1,,,,,,,,
,,,,,,,,,,,,,FF,,,,,,,,0.6338,,,,,,,,,,,,,,,,,,,,,,6101122085410e70ca020a04,61037521f670281226f4e08e,2021-07-29_21h00.51.345,Simcolourproject_2stim_asymm_v5,2020.2.10,MacIntel,60,61025ae37ef11b136ea224fe,,,,,,,,,931,49.40625,51.86328125,1,0,0,response1disk,,7,6.67578125,2.390625,1,0,0,rectangle,-43.26171875,74.20703125,1,0,0,2.125,-3.5625,1,0,0,1,6,166,156,1,,response7disk_3,TRUE,0,0,"[127,167,7,170,266,268,318,170,78,73,42,193,14,105,160,190,165,182,99,280]",1.6168,rectangle
,,,,,,,,,,,,,FF,,,,,,,,4.8163,,,,,,,,,,,,,,,,,,,,,,6101122085410e70ca020a04,61037521f670281226f4e08e,2021-07-29_21h00.51.345,Simcolourproject_2stim_asymm_v5,2020.2.10,MacIntel,60,61025ae37ef11b136ea224fe,,,,,,,,,239,30.9609375,67.6875,1,0,0,response1disk,,7,-13.40625,-3.703125,1,0,0,rectangle,-13.40625,-3.703125,1,0,0,-13.40625,-3.703125,1,0,0,1,7,167,144,1,,,,,,,,
,,,,,,,,,,,,,FF,,,,,,,,1.617,,,,,,,,,,,,,,,,,,,,,,6101122085410e70ca020a04,61037521f670281226f4e08e,2021-07-29_21h00.51.345,Simcolourproject_2stim_asymm_v5,2020.2.10,MacIntel,60,61025ae37ef11b136ea224fe,,,,,,,,,1939,41.34765625,79.72265625,1,0,0,response1disk,,7,1.4921875,-8.40234375,1,0,0,rectangle,1.4921875,-8.40234375,1,0,0,1.4921875,-8.40234375,1,0,0,1,8,168,20,1,,,,,,,,
,,,,,,,,,,,,,FF,,,,,,,,1.4667,,,,,,,,,,,,,,,,,,,,,,6101122085410e70ca020a04,61037521f670281226f4e08e,2021-07-29_21h00.51.345,Simcolourproject_2stim_asymm_v5,2020.2.10,MacIntel,60,61025ae37ef11b136ea224fe,,,,,,,,,3420,66.4921875,-51.58203125,1,0,0,response3disk,,5,18.62890625,-8.80859375,1,0,0,rectangle,49.890625,103.6171875,1,0,0,10.375,9.15625,1,0,0,1,9,169,140,1,,response1disk_3,TRUE,7,7,"[127,167,7,170,266,268,318,170,78,73,42,193,14,105,160,190,165,182,99,280]",1.2663,rectangle
,,,,,,,,,,,,,FF,,,,,,,,1.2155,,,,,,,,,,,,,,,,,,,,,,6101122085410e70ca020a04,61037521f670281226f4e08e,2021-07-29_21h00.51.345,Simcolourproject_2stim_asymm_v5,2020.2.10,MacIntel,60,61025ae37ef11b136ea224fe,,,,,,,,,3238,74.65234375,-29.484375,1,0,0,response3disk,,5,31.54296875,-2.93359375,1,0,0,rectangle,31.54296875,-2.93359375,1,0,0,31.54296875,-2.93359375,1,0,0,1,10,170,13,1,,,,,,,,
,,,,,,,,,,,,,FF,,,,,,,,0.982,,,,,,,,,,,,,,,,,,,,,,6101122085410e70ca020a04,61037521f670281226f4e08e,2021-07-29_21h00.51.345,Simcolourproject_2stim_asymm_v5,2020.2.10,MacIntel,60,61025ae37ef11b136ea224fe,,,,,,,,,4099,56.34765625,-73.92578125,1,0,0,response3disk,,4,12.76171875,6.47265625,1,0,0,rectangle,12.76171875,6.47265625,1,0,0,12.76171875,6.47265625,1,0,0,1,11,171,117,1,,,,,,,,
,,,,,,,,,,,,,FF,,,,,,,,0.9169,,,,,,,,,,,,,,,,,,,,,,6101122085410e70ca020a04,61037521f670281226f4e08e,2021-07-29_21h00.51.345,Simcolourproject_2stim_asymm_v5,2020.2.10,MacIntel,60,61025ae37ef11b136ea224fe,,,,,,,,,2894,-55.828125,-35.19921875,1,0,0,response5disk,,2,-9.54296875,0.9921875,1,0,0,rectangle,-9.54296875,0.9921875,1,0,0,-9.54296875,0.9921875,1,0,0,1,12,172,68,1,,,,,,,,
,,,,,,,,,,,,,FF,,,,,,,,3.2516,,,,,,,,,,,,,,,,,,,,,,6101122085410e70ca020a04,61037521f670281226f4e08e,2021-07-29_21h00.51.345,Simcolourproject_2stim_asymm_v5,2020.2.10,MacIntel,60,61025ae37ef11b136ea224fe,,,,,,,,,395,76.50390625,28.7578125,1,0,0,response1disk,,6,21.88671875,15.59765625,1,0,0,rectangle,21.88671875,15.59765625,1,0,0,21.88671875,15.59765625,1,0,0,1,13,173,79,1,,,,,,,,
,,,,,,,,,,,,,FF,,,,,,,,1.4338,,,,,,,,,,,,,,,,,,,,,,6101122085410e70ca020a04,61037521f670281226f4e08e,2021-07-29_21h00.51.345,Simcolourproject_2stim_asymm_v5,2020.2.10,MacIntel,60,61025ae37ef11b136ea224fe,,,,,,,,,3574,29.1953125,68.2421875,1,0,0,response1disk,,7,8.1484375,-16.9453125,1,0,0,rectangle,8.1484375,-16.9453125,1,0,0,8.1484375,-16.9453125,1,0,0,1,14,174,57,1,,,,,,,,
,,,,,,,,,,,,,FF,,,,,,,,0.7989,,,,,,,,,,,,,,,,,,,,,,6101122085410e70ca020a04,61037521f670281226f4e08e,2021-07-29_21h00.51.345,Simcolourproject_2stim_asymm_v5,2020.2.10,MacIntel,60,61025ae37ef11b136ea224fe,,,,,,,,,3344,21.2890625,53.74609375,1,0,0,response1disk,,7,13.1796875,0.1640625,1,0,0,rectangle,13.1796875,0.1640625,1,0,0,13.1796875,0.1640625,1,0,0,1,15,175,24,1,,,,,,,,
,,,,,,,,,,,,,FF,,,,,,,,2.0828,,,,,,,,,,,,,,,,,,,,,,6101122085410e70ca020a04,61037521f670281226f4e08e,2021-07-29_21h00.51.345,Simcolourproject_2stim_asymm_v5,2020.2.10,MacIntel,60,61025ae37ef11b136ea224fe,,,,,,,,,1558,32.44140625,45.30859375,1,0,0,response1disk,,7,15.72265625,11.359375,1,0,0,rectangle,15.72265625,11.359375,1,0,0,15.72265625,11.359375,1,0,0,1,16,176,74,1,,,,,,,,
,,,,,,,,,,,,,FF,,,,,,,,0.8166,,,,,,,,,,,,,,,,,,,,,,6101122085410e70ca020a04,61037521f670281226f4e08e,2021-07-29_21h00.51.345,Simcolourproject_2stim_asymm_v5,2020.2.10,MacIntel,60,61025ae37ef11b136ea224fe,,,,,,,,,1354,86.6953125,-40.52734375,1,0,0,response3disk,,5,21.296875,-6.6796875,1,0,0,rectangle,21.296875,-6.6796875,1,0,0,21.296875,-6.6796875,1,0,0,1,17,177,6,1,,,,,,,,
,,,,,,,,,,,,,FF,,,,,,,,0.7338,,,,,,,,,,,,,,,,,,,,,,6101122085410e70ca020a04,61037521f670281226f4e08e,2021-07-29_21h00.51.345,Simcolourproject_2stim_asymm_v5,2020.2.10,MacIntel,60,61025ae37ef11b136ea224fe,,,,,,,,,3679,89.37109375,-43.34765625,1,0,0,response3disk,,5,4.5390625,-3.1796875,1,0,0,rectangle,4.5390625,-3.1796875,1,0,0,4.5390625,-3.1796875,1,0,0,1,18,178,143,1,,,,,,,,
,,,,,,,,,,,,,FF,,,,,,,,0.8819,,,,,,,,,,,,,,,,,,,,,,6101122085410e70ca020a04,61037521f670281226f4e08e,2021-07-29_21h00.51.345,Simcolourproject_2stim_asymm_v5,2020.2.10,MacIntel,60,61025ae37ef11b136ea224fe,,,,,,,,,829,76.4609375,30.45703125,1,0,0,response1disk,,6,-7.73828125,-1,1,0,0,rectangle,-7.73828125,-1,1,0,0,-7.73828125,-1,1,0,0,1,19,179,26,1,,,,,,,,
,,,,,,,,,,,,,FF,,,,,,,,0.8323,,,,,,,,,,,,,,,,,,,,,,6101122085410e70ca020a04,61037521f670281226f4e08e,2021-07-29_21h00.51.345,Simcolourproject_2stim_asymm_v5,2020.2.10,MacIntel,60,61025ae37ef11b136ea224fe,,,,,,,,,2269,32.91796875,58.75390625,1,0,0,response1disk,,7,21.5703125,3.72265625,1,0,0,rectangle,21.5703125,3.72265625,1,0,0,21.5703125,3.72265625,1,0,0,1,20,180,127,1,,,,,,,,
,,,,,,,,,,,,,FF,,,,,,,,1.0006,,,,,,,,,,,,,,,,,,,,,,6101122085410e70ca020a04,61037521f670281226f4e08e,2021-07-29_21h00.51.345,Simcolourproject_2stim_asymm_v5,2020.2.10,MacIntel,60,61025ae37ef11b136ea224fe,,,,,,,,,1774,74.36328125,-52.734375,1,0,0,response3disk,,5,5.34765625,-7.421875,1,0,0,rectangle,-44.390625,-89.2578125,1,0,0,-8.51953125,-7.6171875,1,0,0,1,21,181,14,1,,response5disk_3,TRUE,3,3,"[127,167,7,170,266,268,318,170,78,73,42,193,14,105,160,190,165,182,99,280]",1.7688,rectangle
,,,,,,,,,,,,,FF,,,,,,,,0.9184,,,,,,,,,,,,,,,,,,,,,,6101122085410e70ca020a04,61037521f670281226f4e08e,2021-07-29_21h00.51.345,Simcolourproject_2stim_asymm_v5,2020.2.10,MacIntel,60,61025ae37ef11b136ea224fe,,,,,,,,,644,38.36328125,-74.25,1,0,0,response3disk,,4,19.0859375,-0.44921875,1,0,0,rectangle,19.0859375,-0.44921875,1,0,0,19.0859375,-0.44921875,1,0,0,1,22,182,90,1,,,,,,,,
,,,,,,,,,,,,,FF,,,,,,,,1.2492,,,,,,,,,,,,,,,,,,,,,,6101122085410e70ca020a04,61037521f670281226f4e08e,2021-07-29_21h00.51.345,Simcolourproject_2stim_asymm_v5,2020.2.10,MacIntel,60,61025ae37ef11b136ea224fe,,,,,,,,,59,93.01171875,32.68359375,1,0,0,response1disk,,6,29.46484375,0.12109375,1,0,0,rectangle,29.46484375,0.12109375,1,0,0,29.46484375,0.12109375,1,0,0,1,23,183,70,1,,,,,,,,
,,,,,,,,,,,,,FF,,,,,,,,1.8671,,,,,,,,,,,,,,,,,,,,,,6101122085410e70ca020a04,61037521f670281226f4e08e,2021-07-29_21h00.51.345,Simcolourproject_2stim_asymm_v5,2020.2.10,MacIntel,60,61025ae37ef11b136ea224fe,,,,,,,,,2572,49.21875,80.3046875,1,0,0,response1disk,,7,27.30859375,9.42578125,1,0,0,rectangle,27.30859375,9.42578125,1,0,0,27.30859375,9.42578125,1,0,0,1,24,184,16,1,,,,,,,,
,,,,,,,,,,,,,FF,,,,,,,,3.0669,,,,,,,,,,,,,,,,,,,,,,6101122085410e70ca020a04,61037521f670281226f4e08e,2021-07-29_21h00.51.345,Simcolourproject_2stim_asymm_v5,2020.2.10,MacIntel,60,61025ae37ef11b136ea224fe,,,,,,,,,3288,40.30078125,46.07421875,1,0,0,response1disk,,7,-23.94140625,-8.91796875,1,0,0,rectangle,-23.94140625,-8.91796875,1,0,0,-23.94140625,-8.91796875,1,0,0,1,25,185,66,1,,,,,,,,
,,,,,,,,,,,,,FF,,,,,,,,12.7196,,,,,,,,,,,,,,,,,,,,,,6101122085410e70ca020a04,61037521f670281226f4e08e,2021-07-29_21h00.51.345,Simcolourproject_2stim_asymm_v5,2020.2.10,MacIntel,60,61025ae37ef11b136ea224fe,,,,,,,,,1509,30.8359375,48.2578125,1,0,0,response1disk,,7,18.15625,11.11328125,1,0,0,rectangle,18.15625,11.11328125,1,0,0,18.15625,11.11328125,1,0,0,1,26,186,80,1,,,,,,,,
,,,,,,,,,,,,,FF,,,,,,,,5.9151,,,,,,,,,,,,,,,,,,,,,,6101122085410e70ca020a04,61037521f670281226f4e08e,2021-07-29_21h00.51.345,Simcolourproject_2stim_asymm_v5,2020.2.10,MacIntel,60,61025ae37ef11b136ea224fe,,,,,,,,,1159,32.41796875,50.66796875,1,0,0,response1disk,,7,20.5,8.98046875,1,0,0,rectangle,20.5,8.98046875,1,0,0,20.5,8.98046875,1,0,0,1,27,187,30,1,,,,,,,,
,,,,,,,,,,,,,FF,,,,,,,,1.4344,,,,,,,,,,,,,,,,,,,,,,6101122085410e70ca020a04,61037521f670281226f4e08e,2021-07-29_21h00.51.345,Simcolourproject_2stim_asymm_v5,2020.2.10,MacIntel,60,61025ae37ef11b136ea224fe,,,,,,,,,952,49.7890625,-91.01171875,1,0,0,response3disk,,4,26.0390625,14.80078125,1,0,0,rectangle,26.0390625,14.80078125,1,0,0,26.0390625,14.80078125,1,0,0,1,28,188,63,1,,,,,,,,
,,,,,,,,,,,,,FF,,,,,,,,1.0498,,,,,,,,,,,,,,,,,,,,,,6101122085410e70ca020a04,61037521f670281226f4e08e,2021-07-29_21h00.51.345,Simcolourproject_2stim_asymm_v5,2020.2.10,MacIntel,60,61025ae37ef11b136ea224fe,,,,,,,,,2731,33.1484375,-61.4921875,1,0,0,response3disk,,4,21.26171875,-3.19921875,1,0,0,rectangle,42.49609375,87.91796875,1,0,0,2.59765625,-0.26171875,1,0,0,1,29,189,10,1,,response1disk_3,TRUE,7,7,"[127,167,7,170,266,268,318,170,78,73,42,193,14,105,160,190,165,182,99,280]",1.1831,rectangle
,,,,,,,,,,,,,FF,,,,,,,,2.7507,,,,,,,,,,,,,,,,,,,,,,6101122085410e70ca020a04,61037521f670281226f4e08e,2021-07-29_21h00.51.345,Simcolourproject_2stim_asymm_v5,2020.2.10,MacIntel,60,61025ae37ef11b136ea224fe,,,,,,,,,2195,41.46875,77.7734375,1,0,0,response1disk,,7,-6.84375,4,1,0,0,rectangle,-6.84375,4,1,0,0,-6.84375,4,1,0,0,1,30,190,134,1,,,,,,,,
,,,,,,,,,,,,,FF,,,,,,,,4.7836,,,,,,,,,,,,,,,,,,,,,,6101122085410e70ca020a04,61037521f670281226f4e08e,2021-07-29_21h00.51.345,Simcolourproject_2stim_asymm_v5,2020.2.10,MacIntel,60,61025ae37ef11b136ea224fe,,,,,,,,,543,-70.8359375,24.97265625,1,0,0,response7disk,,1,-14.93359375,-4.52734375,1,0,0,rectangle,-14.93359375,-4.52734375,1,0,0,-14.93359375,-4.52734375,1,0,0,1,31,191,110,1,,,,,,,,
,,,,,,,,,,,,,FF,,,,,,,,0.9161,,,,,,,,,,,,,,,,,,,,,,6101122085410e70ca020a04,61037521f670281226f4e08e,2021-07-29_21h00.51.345,Simcolourproject_2stim_asymm_v5,2020.2.10,MacIntel,60,61025ae37ef11b136ea224fe,,,,,,,,,190,-72.25,-45.63671875,1,0,0,response5disk,,2,-2.71875,-8.76171875,1,0,0,rectangle,54.73828125,102.921875,1,0,0,8.12109375,7.7109375,1,0,0,1,32,192,147,1,,response1disk_3,TRUE,7,7,"[127,167,7,170,266,268,318,170,78,73,42,193,14,105,160,190,165,182,99,280]",1.1007,rectangle
,,,,,,,,,,,,,FF,,,,,,,,1.4332,,,,,,,,,,,,,,,,,,,,,,6101122085410e70ca020a04,61037521f670281226f4e08e,2021-07-29_21h00.51.345,Simcolourproject_2stim_asymm_v5,2020.2.10,MacIntel,60,61025ae37ef11b136ea224fe,,,,,,,,,1314,95.69921875,22.41015625,1,0,0,response1disk,,6,21.16796875,-12.02734375,1,0,0,rectangle,21.16796875,-12.02734375,1,0,0,21.16796875,-12.02734375,1,0,0,1,33,193,25,1,,,,,,,,
,,,,,,,,,,,,,FF,,,,,,,,0.9498,,,,,,,,,,,,,,,,,,,,,,6101122085410e70ca020a04,61037521f670281226f4e08e,2021-07-29_21h00.51.345,Simcolourproject_2stim_asymm_v5,2020.2.10,MacIntel,60,61025ae37ef11b136ea224fe,,,,,,,,,1215,-58.68359375,-34.43359375,1,0,0,response5disk,,2,-10.015625,-6.57421875,1,0,0,rectangle,-10.015625,-6.57421875,1,0,0,-10.015625,-6.57421875,1,0,0,1,34,194,108,1,,,,,,,,
,,,,,,,,,,,,,FF,,,,,,,,0.735,,,,,,,,,,,,,,,,,,,,,,6101122085410e70ca020a04,61037521f670281226f4e08e,2021-07-29_21h00.51.345,Simcolourproject_2stim_asymm_v5,2020.2.10,MacIntel,60,61025ae37ef11b136ea224fe,,,,,,,,,2698,32.71875,87.31640625,1,0,0,response1disk,,7,13.91015625,-3.00390625,1,0,0,rectangle,13.91015625,-3.00390625,1,0,0,13.91015625,-3.00390625,1,0,0,1,35,195,21,1,,,,,,,,
,,,,,,,,,,,,,FF,,,,,,,,0.7005,,,,,,,,,,,,,,,,,,,,,,6101122085410e70ca020a04,61037521f670281226f4e08e,2021-07-29_21h00.51.345,Simcolourproject_2stim_asymm_v5,2020.2.10,MacIntel,60,61025ae37ef11b136ea224fe,,,,,,,,,3144,46.171875,93.02734375,1,0,0,response1disk,,7,18.92578125,3.5390625,1,0,0,rectangle,18.92578125,3.5390625,1,0,0,18.92578125,3.5390625,1,0,0,1,36,196,136,1,,,,,,,,
,,,,,,,,,,,,,FF,,,,,,,,0.7012,,,,,,,,,,,,,,,,,,,,,,6101122085410e70ca020a04,61037521f670281226f4e08e,2021-07-29_21h00.51.345,Simcolourproject_2stim_asymm_v5,2020.2.10,MacIntel,60,61025ae37ef11b136ea224fe,,,,,,,,,1992,40.515625,87.890625,1,0,0,response1disk,,7,14.171875,3.72265625,1,0,0,rectangle,14.171875,3.72265625,1,0,0,14.171875,3.72265625,1,0,0,1,37,197,8,1,,,,,,,,
,,,,,,,,,,,,,FF,,,,,,,,1.4176,,,,,,,,,,,,,,,,,,,,,,6101122085410e70ca020a04,61037521f670281226f4e08e,2021-07-29_21h00.51.345,Simcolourproject_2stim_asymm_v5,2020.2.10,MacIntel,60,61025ae37ef11b136ea224fe,,,,,,,,,4358,-73.57421875,-50.4375,1,0,0,response5disk,,2,-18.5390625,-13.44140625,1,0,0,rectangle,-18.5390625,-13.44140625,1,0,0,-18.5390625,-13.44140625,1,0,0,1,38,198,122,1,,,,,,,,
,,,,,,,,,,,,,FF,,,,,,,,0.7145,,,,,,,,,,,,,,,,,,,,,,6101122085410e70ca020a04,61037521f670281226f4e08e,2021-07-29_21h00.51.345,Simcolourproject_2stim_asymm_v5,2020.2.10,MacIntel,60,61025ae37ef11b136ea224fe,,,,,,,,,2998,-36.9765625,-56.53515625,1,0,0,response5disk,,3,-15.8046875,-10.6953125,1,0,0,rectangle,-15.8046875,-10.6953125,1,0,0,-15.8046875,-10.6953125,1,0,0,1,39,199,154,1,,,,,,,,
,,,,,,,,,,,,,FF,,,,,,,,1.8496,,,,,,,,,,,,,,,,,,,,,,6101122085410e70ca020a04,61037521f670281226f4e08e,2021-07-29_21h00.51.345,Simcolourproject_2stim_asymm_v5,2020.2.10,MacIntel,60,61025ae37ef11b136ea224fe,,,,,,,,,1835,47.14453125,-83.56640625,1,0,0,response3disk,,4,26.55859375,-5.68359375,1,0,0,rectangle,26.55859375,-5.68359375,1,0,0,26.55859375,-5.68359375,1,0,0,1,40,200,153,1,,,,,,,,
,,,,,,,,,,,,,FF,,,,,,,,0.7646,,,,,,,,,,,,,,,,,,,,,,6101122085410e70ca020a04,61037521f670281226f4e08e,2021-07-29_21h00.51.345,Simcolourproject_2stim_asymm_v5,2020.2.10,MacIntel,60,61025ae37ef11b136ea224fe,,,,,,,,,4319,36.50390625,75.77734375,1,0,0,response1disk,,7,27.28125,2.83203125,1,0,0,rectangle,27.28125,2.83203125,1,0,0,27.28125,2.83203125,1,0,0,1,41,201,32,1,,,,,,,,
,,,,,,,,,,,,,FF,,,,,,,,0.9335,,,,,,,,,,,,,,,,,,,,,,6101122085410e70ca020a04,61037521f670281226f4e08e,2021-07-29_21h00.51.345,Simcolourproject_2stim_asymm_v5,2020.2.10,MacIntel,60,61025ae37ef11b136ea224fe,,,,,,,,,638,-41.4921875,-75.99609375,1,0,0,response5disk,,3,-13.125,-2.7734375,1,0,0,rectangle,-13.125,-2.7734375,1,0,0,-13.125,-2.7734375,1,0,0,1,42,202,19,1,,,,,,,,
,,,,,,,,,,,,,FF,,,,,,,,1.0328,,,,,,,,,,,,,,,,,,,,,,6101122085410e70ca020a04,61037521f670281226f4e08e,2021-07-29_21h00.51.345,Simcolourproject_2stim_asymm_v5,2020.2.10,MacIntel,60,61025ae37ef11b136ea224fe,,,,,,,,,185,-44.20703125,71.859375,1,0,0,response7disk,,0,-12.9765625,-2.578125,1,0,0,rectangle,-12.9765625,-2.578125,1,0,0,-12.9765625,-2.578125,1,0,0,1,43,203,151,1,,,,,,,,
,,,,,,,,,,,,,FF,,,,,,,,0.6829,,,,,,,,,,,,,,,,,,,,,,6101122085410e70ca020a04,61037521f670281226f4e08e,2021-07-29_21h00.51.345,Simcolourproject_2stim_asymm_v5,2020.2.10,MacIntel,60,61025ae37ef11b136ea224fe,,,,,,,,,2449,42.55859375,87.65625,1,0,0,response1disk,,7,20.203125,6.90234375,1,0,0,rectangle,20.203125,6.90234375,1,0,0,20.203125,6.90234375,1,0,0,1,44,204,17,1,,,,,,,,
,,,,,,,,,,,,,FF,,,,,,,,0.6329,,,,,,,,,,,,,,,,,,,,,,6101122085410e70ca020a04,61037521f670281226f4e08e,2021-07-29_21h00.51.345,Simcolourproject_2stim_asymm_v5,2020.2.10,MacIntel,60,61025ae37ef11b136ea224fe,,,,,,,,,1281,47.30078125,103.6132813,1,0,0,response1disk,,7,23.734375,-0.21875,1,0,0,rectangle,23.734375,-0.21875,1,0,0,23.734375,-0.21875,1,0,0,1,45,205,100,1,,,,,,,,
,,,,,,,,,,,,,FF,,,,,,,,0.6346,,,,,,,,,,,,,,,,,,,,,,6101122085410e70ca020a04,61037521f670281226f4e08e,2021-07-29_21h00.51.345,Simcolourproject_2stim_asymm_v5,2020.2.10,MacIntel,60,61025ae37ef11b136ea224fe,,,,,,,,,4308,36.4140625,82.8359375,1,0,0,response1disk,,7,-15.515625,-7.78125,1,0,0,rectangle,-15.515625,-7.78125,1,0,0,-15.515625,-7.78125,1,0,0,1,46,206,35,1,,,,,,,,
,,,,,,,,,,,,,FF,,,,,,,,1.1331,,,,,,,,,,,,,,,,,,,,,,6101122085410e70ca020a04,61037521f670281226f4e08e,2021-07-29_21h00.51.345,Simcolourproject_2stim_asymm_v5,2020.2.10,MacIntel,60,61025ae37ef11b136ea224fe,,,,,,,,,694,79.1875,37.15234375,1,0,0,response1disk,,6,5.625,-9.0625,1,0,0,rectangle,5.625,-9.0625,1,0,0,5.625,-9.0625,1,0,0,1,47,207,133,1,,,,,,,,
,,,,,,,,,,,,,FF,,,,,,,,1.4171,,,,,,,,,,,,,,,,,,,,,,6101122085410e70ca020a04,61037521f670281226f4e08e,2021-07-29_21h00.51.345,Simcolourproject_2stim_asymm_v5,2020.2.10,MacIntel,60,61025ae37ef11b136ea224fe,,,,,,,,,1910,84.8984375,29.8125,1,0,0,response1disk,,6,5.20703125,-0.25390625,1,0,0,rectangle,5.20703125,-0.25390625,1,0,0,5.20703125,-0.25390625,1,0,0,1,48,208,129,1,,,,,,,,
,,,,,,,,,,,,,FF,,,,,,,,0.6487,,,,,,,,,,,,,,,,,,,,,,6101122085410e70ca020a04,61037521f670281226f4e08e,2021-07-29_21h00.51.345,Simcolourproject_2stim_asymm_v5,2020.2.10,MacIntel,60,61025ae37ef11b136ea224fe,,,,,,,,,3929,44.33984375,100.0234375,1,0,0,response1disk,,7,20.52734375,9.828125,1,0,0,rectangle,20.52734375,9.828125,1,0,0,20.52734375,9.828125,1,0,0,1,49,209,0,1,,,,,,,,
,,,,,,,,,,,,,FF,,,,,,,,0.8653,,,,,,,,,,,,,,,,,,,,,,6101122085410e70ca020a04,61037521f670281226f4e08e,2021-07-29_21h00.51.345,Simcolourproject_2stim_asymm_v5,2020.2.10,MacIntel,60,61025ae37ef11b136ea224fe,,,,,,,,,3910,-47.96484375,-63.65625,1,0,0,response5disk,,3,1.10546875,-7.578125,1,0,0,rectangle,1.10546875,-7.578125,1,0,0,1.10546875,-7.578125,1,0,0,1,50,210,58,1,,,,,,,,
,,,,,,,,,,,,,FF,,,,,,,,0.8335,,,,,,,,,,,,,,,,,,,,,,6101122085410e70ca020a04,61037521f670281226f4e08e,2021-07-29_21h00.51.345,Simcolourproject_2stim_asymm_v5,2020.2.10,MacIntel,60,61025ae37ef11b136ea224fe,,,,,,,,,3664,-39.77734375,-95.0078125,1,0,0,response5disk,,3,-4.94921875,-12.5546875,1,0,0,rectangle,-4.94921875,-12.5546875,1,0,0,-4.94921875,-12.5546875,1,0,0,1,51,211,69,1,,,,,,,,
,,,,,,,,,,,,,FF,,,,,,,,0.7325,,,,,,,,,,,,,,,,,,,,,,6101122085410e70ca020a04,61037521f670281226f4e08e,2021-07-29_21h00.51.345,Simcolourproject_2stim_asymm_v5,2020.2.10,MacIntel,60,61025ae37ef11b136ea224fe,,,,,,,,,110,37.6796875,74,1,0,0,response1disk,,7,5.79296875,-6.77734375,1,0,0,rectangle,5.79296875,-6.77734375,1,0,0,5.79296875,-6.77734375,1,0,0,1,52,212,38,1,,,,,,,,
,,,,,,,,,,,,,FF,,,,,,,,0.9492,,,,,,,,,,,,,,,,,,,,,,6101122085410e70ca020a04,61037521f670281226f4e08e,2021-07-29_21h00.51.345,Simcolourproject_2stim_asymm_v5,2020.2.10,MacIntel,60,61025ae37ef11b136ea224fe,,,,,,,,,496,30.9609375,66.0546875,1,0,0,response1disk,,7,20.93359375,-0.5625,1,0,0,rectangle,20.93359375,-0.5625,1,0,0,20.93359375,-0.5625,1,0,0,1,53,213,95,1,,,,,,,,
,,,,,,,,,,,,,FF,,,,,,,,0.8497,,,,,,,,,,,,,,,,,,,,,,6101122085410e70ca020a04,61037521f670281226f4e08e,2021-07-29_21h00.51.345,Simcolourproject_2stim_asymm_v5,2020.2.10,MacIntel,60,61025ae37ef11b136ea224fe,,,,,,,,,1419,37.5859375,63.74609375,1,0,0,response1disk,,7,18.61328125,5.2734375,1,0,0,rectangle,18.61328125,5.2734375,1,0,0,18.61328125,5.2734375,1,0,0,1,54,214,76,1,,,,,,,,
,,,,,,,,,,,,,FF,,,,,,,,0.6336,,,,,,,,,,,,,,,,,,,,,,6101122085410e70ca020a04,61037521f670281226f4e08e,2021-07-29_21h00.51.345,Simcolourproject_2stim_asymm_v5,2020.2.10,MacIntel,60,61025ae37ef11b136ea224fe,,,,,,,,,601,34.21875,64.59375,1,0,0,response1disk,,7,15.86328125,-3.625,1,0,0,rectangle,15.86328125,-3.625,1,0,0,15.86328125,-3.625,1,0,0,1,55,215,131,1,,,,,,,,
,,,,,,,,,,,,,FF,,,,,,,,0.5497,,,,,,,,,,,,,,,,,,,,,,6101122085410e70ca020a04,61037521f670281226f4e08e,2021-07-29_21h00.51.345,Simcolourproject_2stim_asymm_v5,2020.2.10,MacIntel,60,61025ae37ef11b136ea224fe,,,,,,,,,112,43.0234375,79.1171875,1,0,0,response1disk,,7,26.15234375,15.05078125,1,0,0,rectangle,26.15234375,15.05078125,1,0,0,26.15234375,15.05078125,1,0,0,1,56,216,60,1,,,,,,,,
,,,,,,,,,,,,,FF,,,,,,,,1.9,,,,,,,,,,,,,,,,,,,,,,6101122085410e70ca020a04,61037521f670281226f4e08e,2021-07-29_21h00.51.345,Simcolourproject_2stim_asymm_v5,2020.2.10,MacIntel,60,61025ae37ef11b136ea224fe,,,,,,,,,2135,35.7734375,79.84765625,1,0,0,response1disk,,7,15.56640625,-1.1328125,1,0,0,rectangle,15.56640625,-1.1328125,1,0,0,15.56640625,-1.1328125,1,0,0,1,57,217,103,1,,,,,,,,
,,,,,,,,,,,,,FF,,,,,,,,1.0172,,,,,,,,,,,,,,,,,,,,,,6101122085410e70ca020a04,61037521f670281226f4e08e,2021-07-29_21h00.51.345,Simcolourproject_2stim_asymm_v5,2020.2.10,MacIntel,60,61025ae37ef11b136ea224fe,,,,,,,,,3671,-75.50390625,-45.55078125,1,0,0,response5disk,,2,-10.015625,-0.86328125,1,0,0,rectangle,-10.015625,-0.86328125,1,0,0,-10.015625,-0.86328125,1,0,0,1,58,218,37,1,,,,,,,,
,,,,,,,,,,,,,FF,,,,,,,,0.8149,,,,,,,,,,,,,,,,,,,,,,6101122085410e70ca020a04,61037521f670281226f4e08e,2021-07-29_21h00.51.345,Simcolourproject_2stim_asymm_v5,2020.2.10,MacIntel,60,61025ae37ef11b136ea224fe,,,,,,,,,1988,37.21484375,81.07421875,1,0,0,response1disk,,7,15.71875,11.07421875,1,0,0,rectangle,15.71875,11.07421875,1,0,0,15.71875,11.07421875,1,0,0,1,59,219,67,1,,,,,,,,
,,,,,,,,,,,,,FF,,,,,,,,0.585,,,,,,,,,,,,,,,,,,,,,,6101122085410e70ca020a04,61037521f670281226f4e08e,2021-07-29_21h00.51.345,Simcolourproject_2stim_asymm_v5,2020.2.10,MacIntel,60,61025ae37ef11b136ea224fe,,,,,,,,,1360,38.4765625,73.9375,1,0,0,response1disk,,7,5.32421875,-1.765625,1,0,0,rectangle,5.32421875,-1.765625,1,0,0,5.32421875,-1.765625,1,0,0,1,60,220,123,1,,,,,,,,
,,,,,,,,,,,,,FF,,,,,,,,0.8166,,,,,,,,,,,,,,,,,,,,,,6101122085410e70ca020a04,61037521f670281226f4e08e,2021-07-29_21h00.51.345,Simcolourproject_2stim_asymm_v5,2020.2.10,MacIntel,60,61025ae37ef11b136ea224fe,,,,,,,,,2942,34.6171875,-69.10546875,1,0,0,response3disk,,4,23.91015625,-15.9453125,1,0,0,rectangle,23.91015625,-15.9453125,1,0,0,23.91015625,-15.9453125,1,0,0,1,61,221,112,1,,,,,,,,
,,,,,,,,,,,,,FF,,,,,,,,1.3172,,,,,,,,,,,,,,,,,,,,,,6101122085410e70ca020a04,61037521f670281226f4e08e,2021-07-29_21h00.51.345,Simcolourproject_2stim_asymm_v5,2020.2.10,MacIntel,60,61025ae37ef11b136ea224fe,,,,,,,,,1667,30.8046875,58.125,1,0,0,response1disk,,7,15.76171875,-8.55078125,1,0,0,rectangle,15.76171875,-8.55078125,1,0,0,15.76171875,-8.55078125,1,0,0,1,62,222,113,1,,,,,,,,
,,,,,,,,,,,,,FF,,,,,,,,1.2679,,,,,,,,,,,,,,,,,,,,,,6101122085410e70ca020a04,61037521f670281226f4e08e,2021-07-29_21h00.51.345,Simcolourproject_2stim_asymm_v5,2020.2.10,MacIntel,60,61025ae37ef11b136ea224fe,,,,,,,,,3299,97.6796875,-43.8203125,1,0,0,response3disk,,5,16.9375,-1.71484375,1,0,0,rectangle,16.9375,-1.71484375,1,0,0,16.9375,-1.71484375,1,0,0,1,63,223,114,1,,,,,,,,
,,,,,,,,,,,,,FF,,,,,,,,2.1493,,,,,,,,,,,,,,,,,,,,,,6101122085410e70ca020a04,61037521f670281226f4e08e,2021-07-29_21h00.51.345,Simcolourproject_2stim_asymm_v5,2020.2.10,MacIntel,60,61025ae37ef11b136ea224fe,,,,,,,,,2598,38.6796875,64.15234375,1,0,0,response1disk,,7,6.28125,-13.33984375,1,0,0,rectangle,6.28125,-13.33984375,1,0,0,6.28125,-13.33984375,1,0,0,1,64,224,141,1,,,,,,,,
,,,,,,,,,,,,,FF,,,,,,,,2.0501,,,,,,,,,,,,,,,,,,,,,,6101122085410e70ca020a04,61037521f670281226f4e08e,2021-07-29_21h00.51.345,Simcolourproject_2stim_asymm_v5,2020.2.10,MacIntel,60,61025ae37ef11b136ea224fe,,,,,,,,,2046,111.7460938,34.22265625,1,0,0,response1disk,,6,13.37890625,6.19921875,1,0,0,rectangle,13.37890625,6.19921875,1,0,0,13.37890625,6.19921875,1,0,0,1,65,225,121,1,,,,,,,,
,,,,,,,,,,,,,FF,,,,,,,,1.1169,,,,,,,,,,,,,,,,,,,,,,6101122085410e70ca020a04,61037521f670281226f4e08e,2021-07-29_21h00.51.345,Simcolourproject_2stim_asymm_v5,2020.2.10,MacIntel,60,61025ae37ef11b136ea224fe,,,,,,,,,2348,71.4140625,45.6015625,1,0,0,response1disk,,6,26.0625,4.11328125,1,0,0,rectangle,26.0625,4.11328125,1,0,0,26.0625,4.11328125,1,0,0,1,66,226,29,1,,,,,,,,
,,,,,,,,,,,,,FF,,,,,,,,0.5329,,,,,,,,,,,,,,,,,,,,,,6101122085410e70ca020a04,61037521f670281226f4e08e,2021-07-29_21h00.51.345,Simcolourproject_2stim_asymm_v5,2020.2.10,MacIntel,60,61025ae37ef11b136ea224fe,,,,,,,,,447,27.546875,80.41796875,1,0,0,response1disk,,7,3.8125,-0.76171875,1,0,0,rectangle,3.8125,-0.76171875,1,0,0,3.8125,-0.76171875,1,0,0,1,67,227,92,1,,,,,,,,
,,,,,,,,,,,,,FF,,,,,,,,0.9836,,,,,,,,,,,,,,,,,,,,,,6101122085410e70ca020a04,61037521f670281226f4e08e,2021-07-29_21h00.51.345,Simcolourproject_2stim_asymm_v5,2020.2.10,MacIntel,60,61025ae37ef11b136ea224fe,,,,,,,,,1915,79.9453125,-33.37890625,1,0,0,response3disk,,5,31.5546875,-14.86328125,1,0,0,rectangle,31.5546875,-14.86328125,1,0,0,31.5546875,-14.86328125,1,0,0,1,68,228,105,1,,,,,,,,
,,,,,,,,,,,,,FF,,,,,,,,1.0993,,,,,,,,,,,,,,,,,,,,,,6101122085410e70ca020a04,61037521f670281226f4e08e,2021-07-29_21h00.51.345,Simcolourproject_2stim_asymm_v5,2020.2.10,MacIntel,60,61025ae37ef11b136ea224fe,,,,,,,,,2111,91.96875,41.0625,1,0,0,response1disk,,6,31.73046875,3.98828125,1,0,0,rectangle,31.73046875,3.98828125,1,0,0,31.73046875,3.98828125,1,0,0,1,69,229,28,1,,,,,,,,
,,,,,,,,,,,,,FF,,,,,,,,0.9332,,,,,,,,,,,,,,,,,,,,,,6101122085410e70ca020a04,61037521f670281226f4e08e,2021-07-29_21h00.51.345,Simcolourproject_2stim_asymm_v5,2020.2.10,MacIntel,60,61025ae37ef11b136ea224fe,,,,,,,,,3748,30.8671875,-83.7890625,1,0,0,response3disk,,4,24.31640625,-12.1015625,1,0,0,rectangle,24.31640625,-12.1015625,1,0,0,24.31640625,-12.1015625,1,0,0,1,70,230,54,1,,,,,,,,
,,,,,,,,,,,,,FF,,,,,,,,0.8495,,,,,,,,,,,,,,,,,,,,,,6101122085410e70ca020a04,61037521f670281226f4e08e,2021-07-29_21h00.51.345,Simcolourproject_2stim_asymm_v5,2020.2.10,MacIntel,60,61025ae37ef11b136ea224fe,,,,,,,,,2167,-51.65234375,28.71875,1,0,0,response7disk,,1,-1.6328125,-3.015625,1,0,0,rectangle,-1.6328125,-3.015625,1,0,0,-1.6328125,-3.015625,1,0,0,1,71,231,116,1,,,,,,,,
,,,,,,,,,,,,,FF,,,,,,,,1.2507,,,,,,,,,,,,,,,,,,,,,,6101122085410e70ca020a04,61037521f670281226f4e08e,2021-07-29_21h00.51.345,Simcolourproject_2stim_asymm_v5,2020.2.10,MacIntel,60,61025ae37ef11b136ea224fe,,,,,,,,,1453,-76.06640625,-52.81640625,1,0,0,response5disk,,2,-9.7421875,-13.57421875,1,0,0,rectangle,-9.7421875,-13.57421875,1,0,0,-9.7421875,-13.57421875,1,0,0,1,72,232,152,1,,,,,,,,
,,,,,,,,,,,,,FF,,,,,,,,1.4669,,,,,,,,,,,,,,,,,,,,,,6101122085410e70ca020a04,61037521f670281226f4e08e,2021-07-29_21h00.51.345,Simcolourproject_2stim_asymm_v5,2020.2.10,MacIntel,60,61025ae37ef11b136ea224fe,,,,,,,,,731,80.5546875,39.7734375,1,0,0,response1disk,,6,19.05859375,11.9140625,1,0,0,rectangle,19.05859375,11.9140625,1,0,0,19.05859375,11.9140625,1,0,0,1,73,233,22,1,,,,,,,,
,,,,,,,,,,,,,FF,,,,,,,,1.3646,,,,,,,,,,,,,,,,,,,,,,6101122085410e70ca020a04,61037521f670281226f4e08e,2021-07-29_21h00.51.345,Simcolourproject_2stim_asymm_v5,2020.2.10,MacIntel,60,61025ae37ef11b136ea224fe,,,,,,,,,1889,43.53515625,-78.21484375,1,0,0,response3disk,,4,21.37890625,6.48828125,1,0,0,rectangle,21.37890625,6.48828125,1,0,0,21.37890625,6.48828125,1,0,0,1,74,234,43,1,,,,,,,,
,,,,,,,,,,,,,FF,,,,,,,,0.5829,,,,,,,,,,,,,,,,,,,,,,6101122085410e70ca020a04,61037521f670281226f4e08e,2021-07-29_21h00.51.345,Simcolourproject_2stim_asymm_v5,2020.2.10,MacIntel,60,61025ae37ef11b136ea224fe,,,,,,,,,3577,28.296875,58.8671875,1,0,0,response1disk,,7,6.41796875,-15.9921875,1,0,0,rectangle,6.41796875,-15.9921875,1,0,0,6.41796875,-15.9921875,1,0,0,1,75,235,85,1,,,,,,,,
,,,,,,,,,,,,,FF,,,,,,,,2.2337,,,,,,,,,,,,,,,,,,,,,,6101122085410e70ca020a04,61037521f670281226f4e08e,2021-07-29_21h00.51.345,Simcolourproject_2stim_asymm_v5,2020.2.10,MacIntel,60,61025ae37ef11b136ea224fe,,,,,,,,,587,31.09765625,51.78125,1,0,0,response1disk,,7,1.6015625,-13.2265625,1,0,0,rectangle,1.6015625,-13.2265625,1,0,0,1.6015625,-13.2265625,1,0,0,1,76,236,73,1,,,,,,,,
,,,,,,,,,,,,,FF,,,,,,,,1.0328,,,,,,,,,,,,,,,,,,,,,,6101122085410e70ca020a04,61037521f670281226f4e08e,2021-07-29_21h00.51.345,Simcolourproject_2stim_asymm_v5,2020.2.10,MacIntel,60,61025ae37ef11b136ea224fe,,,,,,,,,300,37.05078125,64.95703125,1,0,0,response1disk,,7,8.32421875,-0.6640625,1,0,0,rectangle,8.32421875,-0.6640625,1,0,0,8.32421875,-0.6640625,1,0,0,1,77,237,1,1,,,,,,,,
,,,,,,,,,,,,,FF,,,,,,,,0.8494,,,,,,,,,,,,,,,,,,,,,,6101122085410e70ca020a04,61037521f670281226f4e08e,2021-07-29_21h00.51.345,Simcolourproject_2stim_asymm_v5,2020.2.10,MacIntel,60,61025ae37ef11b136ea224fe,,,,,,,,,929,37.24609375,75.51171875,1,0,0,response1disk,,7,11.41796875,5.3125,1,0,0,rectangle,11.41796875,5.3125,1,0,0,11.41796875,5.3125,1,0,0,1,78,238,142,1,,,,,,,,
,,,,,,,,,,,,,FF,,,,,,,,2.0835,,,,,,,,,,,,,,,,,,,,,,6101122085410e70ca020a04,61037521f670281226f4e08e,2021-07-29_21h00.51.345,Simcolourproject_2stim_asymm_v5,2020.2.10,MacIntel,60,61025ae37ef11b136ea224fe,,,,,,,,,2628,53.31640625,81.20703125,1,0,0,response1disk,,7,20.2265625,2.66796875,1,0,0,rectangle,20.2265625,2.66796875,1,0,0,20.2265625,2.66796875,1,0,0,1,79,239,148,1,,,,,,,,
,,,,,,,,,,,,,FF,,,,,,,,0.9504,,,,,,,,,,,,,,,,,,,,,,6101122085410e70ca020a04,61037521f670281226f4e08e,2021-07-29_21h00.51.345,Simcolourproject_2stim_asymm_v5,2020.2.10,MacIntel,60,61025ae37ef11b136ea224fe,,,,,,,,,1498,28.8984375,57.19140625,1,0,0,response1disk,,7,5.9140625,3.40234375,1,0,0,rectangle,5.9140625,3.40234375,1,0,0,5.9140625,3.40234375,1,0,0,1,80,240,119,1,,,,,,,,
,,,,,,,,,,,,,FF,,,,,,,,0.7333,,,,,,,,,,,,,,,,,,,,,,6101122085410e70ca020a04,61037521f670281226f4e08e,2021-07-29_21h00.51.345,Simcolourproject_2stim_asymm_v5,2020.2.10,MacIntel,60,61025ae37ef11b136ea224fe,,,,,,,,,1866,38.6875,68.859375,1,0,0,response1disk,,7,8.43359375,3.34375,1,0,0,rectangle,8.43359375,3.34375,1,0,0,8.43359375,3.34375,1,0,0,1,81,241,102,1,,,,,,,,
,,,,,,,,,,,,,FF,,,,,,,,0.8505,,,,,,,,,,,,,,,,,,,,,,6101122085410e70ca020a04,61037521f670281226f4e08e,2021-07-29_21h00.51.345,Simcolourproject_2stim_asymm_v5,2020.2.10,MacIntel,60,61025ae37ef11b136ea224fe,,,,,,,,,2202,43.9609375,81.61328125,1,0,0,response1disk,,7,10.47265625,12.6484375,1,0,0,rectangle,10.47265625,12.6484375,1,0,0,10.47265625,12.6484375,1,0,0,1,82,242,61,1,,,,,,,,
,,,,,,,,,,,,,FF,,,,,,,,0.9835,,,,,,,,,,,,,,,,,,,,,,6101122085410e70ca020a04,61037521f670281226f4e08e,2021-07-29_21h00.51.345,Simcolourproject_2stim_asymm_v5,2020.2.10,MacIntel,60,61025ae37ef11b136ea224fe,,,,,,,,,3243,-65.2734375,-49.03515625,1,0,0,response5disk,,2,-2.09765625,-4.1875,1,0,0,rectangle,-2.09765625,-4.1875,1,0,0,-2.09765625,-4.1875,1,0,0,1,83,243,124,1,,,,,,,,
,,,,,,,,,,,,,FF,,,,,,,,0.7168,,,,,,,,,,,,,,,,,,,,,,6101122085410e70ca020a04,61037521f670281226f4e08e,2021-07-29_21h00.51.345,Simcolourproject_2stim_asymm_v5,2020.2.10,MacIntel,60,61025ae37ef11b136ea224fe,,,,,,,,,1087,34.2578125,62.5546875,1,0,0,response1disk,,7,-6.76953125,-7.1328125,1,0,0,rectangle,-6.76953125,-7.1328125,1,0,0,-6.76953125,-7.1328125,1,0,0,1,84,244,45,1,,,,,,,,
,,,,,,,,,,,,,FF,,,,,,,,1.0331,,,,,,,,,,,,,,,,,,,,,,6101122085410e70ca020a04,61037521f670281226f4e08e,2021-07-29_21h00.51.345,Simcolourproject_2stim_asymm_v5,2020.2.10,MacIntel,60,61025ae37ef11b136ea224fe,,,,,,,,,3054,-44.7265625,-61.22265625,1,0,0,response5disk,,3,-6.53515625,1.27734375,1,0,0,rectangle,-6.53515625,1.27734375,1,0,0,-6.53515625,1.27734375,1,0,0,1,85,245,158,1,,,,,,,,
,,,,,,,,,,,,,FF,,,,,,,,0.7164,,,,,,,,,,,,,,,,,,,,,,6101122085410e70ca020a04,61037521f670281226f4e08e,2021-07-29_21h00.51.345,Simcolourproject_2stim_asymm_v5,2020.2.10,MacIntel,60,61025ae37ef11b136ea224fe,,,,,,,,,1562,31.484375,64.01171875,1,0,0,response1disk,,7,9.23828125,5.42578125,1,0,0,rectangle,9.23828125,5.42578125,1,0,0,9.23828125,5.42578125,1,0,0,1,86,246,34,1,,,,,,,,
,,,,,,,,,,,,,FF,,,,,,,,0.6152,,,,,,,,,,,,,,,,,,,,,,6101122085410e70ca020a04,61037521f670281226f4e08e,2021-07-29_21h00.51.345,Simcolourproject_2stim_asymm_v5,2020.2.10,MacIntel,60,61025ae37ef11b136ea224fe,,,,,,,,,309,42.67578125,65.16796875,1,0,0,response1disk,,7,17.24609375,1.78515625,1,0,0,rectangle,17.24609375,1.78515625,1,0,0,17.24609375,1.78515625,1,0,0,1,87,247,150,1,,,,,,,,
,,,,,,,,,,,,,FF,,,,,,,,0.5676,,,,,,,,,,,,,,,,,,,,,,6101122085410e70ca020a04,61037521f670281226f4e08e,2021-07-29_21h00.51.345,Simcolourproject_2stim_asymm_v5,2020.2.10,MacIntel,60,61025ae37ef11b136ea224fe,,,,,,,,,2534,31.1953125,83.2890625,1,0,0,response1disk,,7,1.73046875,0.87890625,1,0,0,rectangle,1.73046875,0.87890625,1,0,0,1.73046875,0.87890625,1,0,0,1,88,248,65,1,,,,,,,,
