key_resp.keys,key_resp.rt,key_resp_14.keys,key_resp_14.rt,key_resp_15.keys,key_resp_15.rt,key_resp_17.keys,key_resp_17.rt,key_resp_9.keys,key_resp_9.rt,key_resp_10.keys,key_resp_10.rt,practice_comparison,Ecc,mouse_5.x,mouse_5.y,mouse_5.leftButton,mouse_5.midButton,mouse_5.rightButton,mouse_5.clicked_name,pracsimilarity,response_time,mouse_10.x,mouse_10.y,mouse_10.leftButton,mouse_10.midButton,mouse_10.rightButton,mouse_10.clicked_name,mouse_7.x,mouse_7.y,mouse_7.leftButton,mouse_7.midButton,mouse_7.rightButton,mouse_6.x,mouse_6.y,mouse_6.leftButton,mouse_6.midButton,mouse_6.rightButton,duringprac.thisRepN,duringprac.thisTrialN,duringprac.thisN,duringprac.thisIndex,duringprac.ran,participant,session,date,expName,psychopyVersion,OS,frameRate,study_id,mouse_7.clicked_name,catchpracsimilarity,catch_response_time,catchnumberprac,catchtrialorderprac,mouse_6.clicked_name,key_resp_22.keys,key_resp_22.rt,realcomparison,mouse.x,mouse.y,mouse.leftButton,mouse.midButton,mouse.rightButton,mouse.clicked_name,Colour2,similarity,mouse_2.x,mouse_2.y,mouse_2.leftButton,mouse_2.midButton,mouse_2.rightButton,mouse_2.clicked_name,mouse_3.x,mouse_3.y,mouse_3.leftButton,mouse_3.midButton,mouse_3.rightButton,mouse_11.x,mouse_11.y,mouse_11.leftButton,mouse_11.midButton,mouse_11.rightButton,trials_2.thisRepN,trials_2.thisTrialN,trials_2.thisN,trials_2.thisIndex,trials_2.ran,Colour1,mouse_3.clicked_name,catchornah,catchsimilarity,catchnumber,catchtrialorder,catchRT,mouse_11.clicked_name
space,0.634,space,2.859,space,19.86,space,14.191,space,0.212,space,4.022,36,PF,69,-105,1,0,0,response3disk_5,4,20.15,2,-3,1,0,0,rectangle_8,2,-3,1,0,0,2,-3,1,0,0,0,0,0,1,1,610102b7f7493eff26309a1f,61036beccac522081aa98126,2021-07-29_23h03.39.730,Simcolourproject_2stim_asymm_v5,2020.2.10,MacIntel,60,61025ae37ef11b136ea224fe,,,,,,,,,,,,,,,,,,,,,,,,,,,,,,,,,,,,,,,,,,,,,,
,,,,,,,,,,,,28,FF,-80,-70,1,0,0,response5disk_5,2,6.394,4,-6,1,0,0,rectangle_8,-95,41,1,0,0,1,-7,1,0,0,0,1,1,0,1,610102b7f7493eff26309a1f,61036beccac522081aa98126,2021-07-29_23h03.39.730,Simcolourproject_2stim_asymm_v5,2020.2.10,MacIntel,60,61025ae37ef11b136ea224fe,response7disk_7,1,4.827,1,"[2,5]",rectangle_4,,,,,,,,,,,,,,,,,,,,,,,,,,,,,,,,,,,,,,,,
,,,,,,,,,,,,113,PF,-43,54,1,0,0,response7disk_5,0,2.247,-1,-1,1,0,0,rectangle_8,-1,-1,1,0,0,-1,-1,1,0,0,0,2,2,2,1,610102b7f7493eff26309a1f,61036beccac522081aa98126,2021-07-29_23h03.39.730,Simcolourproject_2stim_asymm_v5,2020.2.10,MacIntel,60,61025ae37ef11b136ea224fe,,,,,,,,,,,,,,,,,,,,,,,,,,,,,,,,,,,,,,,,,,,,,,
,,,,,,,,,,,,22,FF,-36,70,1,0,0,response7disk_5,0,1.738,-3,-1,1,0,0,rectangle_8,-3,-1,1,0,0,-3,-1,1,0,0,0,3,3,5,1,610102b7f7493eff26309a1f,61036beccac522081aa98126,2021-07-29_23h03.39.730,Simcolourproject_2stim_asymm_v5,2020.2.10,MacIntel,60,61025ae37ef11b136ea224fe,,,,,,,,,,,,,,,,,,,,,,,,,,,,,,,,,,,,,,,,,,,,,,
,,,,,,,,,,,,95,PF,52,-62,1,0,0,response3disk_5,4,1.316,17,-12,1,0,0,rectangle_8,48,94,1,0,0,-7,-8,1,0,0,0,4,4,6,1,610102b7f7493eff26309a1f,61036beccac522081aa98126,2021-07-29_23h03.39.730,Simcolourproject_2stim_asymm_v5,2020.2.10,MacIntel,60,61025ae37ef11b136ea224fe,response1disk_7,7,4.201,1,"[2,5]",rectangle_4,,,,,,,,,,,,,,,,,,,,,,,,,,,,,,,,,,,,,,,,
,,,,,,,,,,,,57,PF,78,30,1,0,0,response1disk_5,6,3.524,13,-7,1,0,0,rectangle_8,13,-7,1,0,0,13,-7,1,0,0,0,5,5,4,1,610102b7f7493eff26309a1f,61036beccac522081aa98126,2021-07-29_23h03.39.730,Simcolourproject_2stim_asymm_v5,2020.2.10,MacIntel,60,61025ae37ef11b136ea224fe,,,,,,,,,,,,,,,,,,,,,,,,,,,,,,,,,,,,,,,,,,,,,,
,,,,,,,,,,,,13,FF,102,48,1,0,0,response1disk_5,6,2.132,13,-3,1,0,0,rectangle_8,13,-3,1,0,0,13,-3,1,0,0,0,6,6,3,1,610102b7f7493eff26309a1f,61036beccac522081aa98126,2021-07-29_23h03.39.730,Simcolourproject_2stim_asymm_v5,2020.2.10,MacIntel,60,61025ae37ef11b136ea224fe,,,,,,,,,,,,,,,,,,,,,,,,,,,,,,,,,,,,,,,,,,,,,,
,,,,,,,,,,,,,FF,,,,,,,,2.531,,,,,,,,,,,,,,,,,,,,,,610102b7f7493eff26309a1f,61036beccac522081aa98126,2021-07-29_23h03.39.730,Simcolourproject_2stim_asymm_v5,2020.2.10,MacIntel,60,61025ae37ef11b136ea224fe,,,,,,,space,1.795,2523,-40,-78,1,0,0,response5disk,,3,7,-16,1,0,0,rectangle,7,-16,1,0,0,7,-16,1,0,0,0,0,0,3,1,,,,,,,,
,,,,,,,,,,,,,FF,,,,,,,,3.797,,,,,,,,,,,,,,,,,,,,,,610102b7f7493eff26309a1f,61036beccac522081aa98126,2021-07-29_23h03.39.730,Simcolourproject_2stim_asymm_v5,2020.2.10,MacIntel,60,61025ae37ef11b136ea224fe,,,,,,,,,1682,-93,42,1,0,0,response7disk,,1,-6,-5,1,0,0,rectangle,-6,-5,1,0,0,-6,-5,1,0,0,0,1,1,63,1,,,,,,,,
,,,,,,,,,,,,,FF,,,,,,,,7.017,,,,,,,,,,,,,,,,,,,,,,610102b7f7493eff26309a1f,61036beccac522081aa98126,2021-07-29_23h03.39.730,Simcolourproject_2stim_asymm_v5,2020.2.10,MacIntel,60,61025ae37ef11b136ea224fe,,,,,,,,,4352,-76,39,1,0,0,response7disk,,1,-33,8,1,0,0,rectangle,-33,8,1,0,0,-33,8,1,0,0,0,2,2,94,1,,,,,,,,
,,,,,,,,,,,,,FF,,,,,,,,2.287,,,,,,,,,,,,,,,,,,,,,,610102b7f7493eff26309a1f,61036beccac522081aa98126,2021-07-29_23h03.39.730,Simcolourproject_2stim_asymm_v5,2020.2.10,MacIntel,60,61025ae37ef11b136ea224fe,,,,,,,,,138,46,71,1,0,0,response1disk,,7,1,-15,1,0,0,rectangle,1,-15,1,0,0,1,-15,1,0,0,0,3,3,136,1,,,,,,,,
,,,,,,,,,,,,,FF,,,,,,,,1.024,,,,,,,,,,,,,,,,,,,,,,610102b7f7493eff26309a1f,61036beccac522081aa98126,2021-07-29_23h03.39.730,Simcolourproject_2stim_asymm_v5,2020.2.10,MacIntel,60,61025ae37ef11b136ea224fe,,,,,,,,,2973,32,81,1,0,0,response1disk,,7,0,11,1,0,0,rectangle,0,11,1,0,0,0,11,1,0,0,0,4,4,111,1,,,,,,,,
,,,,,,,,,,,,,FF,,,,,,,,0.926,,,,,,,,,,,,,,,,,,,,,,610102b7f7493eff26309a1f,61036beccac522081aa98126,2021-07-29_23h03.39.730,Simcolourproject_2stim_asymm_v5,2020.2.10,MacIntel,60,61025ae37ef11b136ea224fe,,,,,,,,,3453,52,79,1,0,0,response1disk,,7,11,6,1,0,0,rectangle,11,6,1,0,0,11,6,1,0,0,0,5,5,6,1,,,,,,,,
,,,,,,,,,,,,,FF,,,,,,,,2.549,,,,,,,,,,,,,,,,,,,,,,610102b7f7493eff26309a1f,61036beccac522081aa98126,2021-07-29_23h03.39.730,Simcolourproject_2stim_asymm_v5,2020.2.10,MacIntel,60,61025ae37ef11b136ea224fe,,,,,,,,,2306,25,-85,1,0,0,response3disk,,4,-2,-13,1,0,0,rectangle,-2,-13,1,0,0,-2,-13,1,0,0,0,6,6,81,1,,,,,,,,
,,,,,,,,,,,,,FF,,,,,,,,1.43,,,,,,,,,,,,,,,,,,,,,,610102b7f7493eff26309a1f,61036beccac522081aa98126,2021-07-29_23h03.39.730,Simcolourproject_2stim_asymm_v5,2020.2.10,MacIntel,60,61025ae37ef11b136ea224fe,,,,,,,,,4253,-72,-26,1,0,0,response5disk,,2,-19,-3,1,0,0,rectangle,-19,-3,1,0,0,-19,-3,1,0,0,0,7,7,150,1,,,,,,,,
,,,,,,,,,,,,,FF,,,,,,,,1.304,,,,,,,,,,,,,,,,,,,,,,610102b7f7493eff26309a1f,61036beccac522081aa98126,2021-07-29_23h03.39.730,Simcolourproject_2stim_asymm_v5,2020.2.10,MacIntel,60,61025ae37ef11b136ea224fe,,,,,,,,,1159,45,47,1,0,0,response1disk,,7,8,-6,1,0,0,rectangle,8,-6,1,0,0,8,-6,1,0,0,0,8,8,158,1,,,,,,,,
,,,,,,,,,,,,,FF,,,,,,,,2.266,,,,,,,,,,,,,,,,,,,,,,610102b7f7493eff26309a1f,61036beccac522081aa98126,2021-07-29_23h03.39.730,Simcolourproject_2stim_asymm_v5,2020.2.10,MacIntel,60,61025ae37ef11b136ea224fe,,,,,,,,,4240,79,-55,1,0,0,response3disk,,5,13,-17,1,0,0,rectangle,13,-17,1,0,0,13,-17,1,0,0,0,9,9,109,1,,,,,,,,
,,,,,,,,,,,,,FF,,,,,,,,1.345,,,,,,,,,,,,,,,,,,,,,,610102b7f7493eff26309a1f,61036beccac522081aa98126,2021-07-29_23h03.39.730,Simcolourproject_2stim_asymm_v5,2020.2.10,MacIntel,60,61025ae37ef11b136ea224fe,,,,,,,,,1816,-83,29,1,0,0,response7disk,,1,-5,-15,1,0,0,rectangle,-5,-15,1,0,0,-5,-15,1,0,0,0,10,10,92,1,,,,,,,,
,,,,,,,,,,,,,FF,,,,,,,,1.029,,,,,,,,,,,,,,,,,,,,,,610102b7f7493eff26309a1f,61036beccac522081aa98126,2021-07-29_23h03.39.730,Simcolourproject_2stim_asymm_v5,2020.2.10,MacIntel,60,61025ae37ef11b136ea224fe,,,,,,,,,278,-76,37,1,0,0,response7disk,,1,-22,3,1,0,0,rectangle,-22,3,1,0,0,-22,3,1,0,0,0,11,11,124,1,,,,,,,,
,,,,,,,,,,,,,FF,,,,,,,,1.569,,,,,,,,,,,,,,,,,,,,,,610102b7f7493eff26309a1f,61036beccac522081aa98126,2021-07-29_23h03.39.730,Simcolourproject_2stim_asymm_v5,2020.2.10,MacIntel,60,61025ae37ef11b136ea224fe,,,,,,,,,3451,42,74,1,0,0,response1disk,,7,9,11,1,0,0,rectangle,9,11,1,0,0,9,11,1,0,0,0,12,12,128,1,,,,,,,,
,,,,,,,,,,,,,FF,,,,,,,,1.267,,,,,,,,,,,,,,,,,,,,,,610102b7f7493eff26309a1f,61036beccac522081aa98126,2021-07-29_23h03.39.730,Simcolourproject_2stim_asymm_v5,2020.2.10,MacIntel,60,61025ae37ef11b136ea224fe,,,,,,,,,3460,47,89,1,0,0,response1disk,,7,2,10,1,0,0,rectangle,2,10,1,0,0,2,10,1,0,0,0,13,13,64,1,,,,,,,,
,,,,,,,,,,,,,FF,,,,,,,,1.083,,,,,,,,,,,,,,,,,,,,,,610102b7f7493eff26309a1f,61036beccac522081aa98126,2021-07-29_23h03.39.730,Simcolourproject_2stim_asymm_v5,2020.2.10,MacIntel,60,61025ae37ef11b136ea224fe,,,,,,,,,2831,-72,26,1,0,0,response7disk,,1,-10,-6,1,0,0,rectangle,-10,-6,1,0,0,-10,-6,1,0,0,0,14,14,146,1,,,,,,,,
,,,,,,,,,,,,,FF,,,,,,,,1.822,,,,,,,,,,,,,,,,,,,,,,610102b7f7493eff26309a1f,61036beccac522081aa98126,2021-07-29_23h03.39.730,Simcolourproject_2stim_asymm_v5,2020.2.10,MacIntel,60,61025ae37ef11b136ea224fe,,,,,,,,,162,-26,-78,1,0,0,response5disk,,3,10,5,1,0,0,rectangle,10,5,1,0,0,10,5,1,0,0,0,15,15,86,1,,,,,,,,
,,,,,,,,,,,,,FF,,,,,,,,3.176,,,,,,,,,,,,,,,,,,,,,,610102b7f7493eff26309a1f,61036beccac522081aa98126,2021-07-29_23h03.39.730,Simcolourproject_2stim_asymm_v5,2020.2.10,MacIntel,60,61025ae37ef11b136ea224fe,,,,,,,,,1242,69,27,1,0,0,response1disk,,6,4,-7,1,0,0,rectangle,4,-7,1,0,0,4,-7,1,0,0,0,16,16,134,1,,,,,,,,
,,,,,,,,,,,,,FF,,,,,,,,1.399,,,,,,,,,,,,,,,,,,,,,,610102b7f7493eff26309a1f,61036beccac522081aa98126,2021-07-29_23h03.39.730,Simcolourproject_2stim_asymm_v5,2020.2.10,MacIntel,60,61025ae37ef11b136ea224fe,,,,,,,,,4305,-82,33,1,0,0,response7disk,,1,-26,12,1,0,0,rectangle,-26,12,1,0,0,-26,12,1,0,0,0,17,17,149,1,,,,,,,,
,,,,,,,,,,,,,FF,,,,,,,,1.843,,,,,,,,,,,,,,,,,,,,,,610102b7f7493eff26309a1f,61036beccac522081aa98126,2021-07-29_23h03.39.730,Simcolourproject_2stim_asymm_v5,2020.2.10,MacIntel,60,61025ae37ef11b136ea224fe,,,,,,,,,2788,34,-100,1,0,0,response3disk,,4,4,9,1,0,0,rectangle,4,9,1,0,0,4,9,1,0,0,0,18,18,16,1,,,,,,,,
,,,,,,,,,,,,,FF,,,,,,,,0.849,,,,,,,,,,,,,,,,,,,,,,610102b7f7493eff26309a1f,61036beccac522081aa98126,2021-07-29_23h03.39.730,Simcolourproject_2stim_asymm_v5,2020.2.10,MacIntel,60,61025ae37ef11b136ea224fe,,,,,,,,,414,34,-70,1,0,0,response3disk,,4,16,-9,1,0,0,rectangle,16,-9,1,0,0,16,-9,1,0,0,0,19,19,101,1,,,,,,,,
,,,,,,,,,,,,,FF,,,,,,,,1.242,,,,,,,,,,,,,,,,,,,,,,610102b7f7493eff26309a1f,61036beccac522081aa98126,2021-07-29_23h03.39.730,Simcolourproject_2stim_asymm_v5,2020.2.10,MacIntel,60,61025ae37ef11b136ea224fe,,,,,,,,,3478,-25,-71,1,0,0,response5disk,,3,-14,-17,1,0,0,rectangle,-14,-17,1,0,0,-14,-17,1,0,0,0,20,20,113,1,,,,,,,,
,,,,,,,,,,,,,FF,,,,,,,,1.354,,,,,,,,,,,,,,,,,,,,,,610102b7f7493eff26309a1f,61036beccac522081aa98126,2021-07-29_23h03.39.730,Simcolourproject_2stim_asymm_v5,2020.2.10,MacIntel,60,61025ae37ef11b136ea224fe,,,,,,,,,4220,-57,-43,1,0,0,response5disk,,2,6,12,1,0,0,rectangle,6,12,1,0,0,6,12,1,0,0,0,21,21,106,1,,,,,,,,
,,,,,,,,,,,,,FF,,,,,,,,1.033,,,,,,,,,,,,,,,,,,,,,,610102b7f7493eff26309a1f,61036beccac522081aa98126,2021-07-29_23h03.39.730,Simcolourproject_2stim_asymm_v5,2020.2.10,MacIntel,60,61025ae37ef11b136ea224fe,,,,,,,,,2601,-54,73,1,0,0,response7disk,,0,-27,2,1,0,0,rectangle,-27,2,1,0,0,-27,2,1,0,0,0,22,22,142,1,,,,,,,,
,,,,,,,,,,,,,FF,,,,,,,,1.338,,,,,,,,,,,,,,,,,,,,,,610102b7f7493eff26309a1f,61036beccac522081aa98126,2021-07-29_23h03.39.730,Simcolourproject_2stim_asymm_v5,2020.2.10,MacIntel,60,61025ae37ef11b136ea224fe,,,,,,,,,2874,71,33,1,0,0,response1disk,,6,8,0,1,0,0,rectangle,8,0,1,0,0,8,0,1,0,0,0,23,23,34,1,,,,,,,,
,,,,,,,,,,,,,FF,,,,,,,,1.672,,,,,,,,,,,,,,,,,,,,,,610102b7f7493eff26309a1f,61036beccac522081aa98126,2021-07-29_23h03.39.730,Simcolourproject_2stim_asymm_v5,2020.2.10,MacIntel,60,61025ae37ef11b136ea224fe,,,,,,,,,2127,22,90,1,0,0,response1disk,,7,4,1,1,0,0,rectangle,4,1,1,0,0,4,1,1,0,0,0,24,24,14,1,,,,,,,,
,,,,,,,,,,,,,FF,,,,,,,,1.583,,,,,,,,,,,,,,,,,,,,,,610102b7f7493eff26309a1f,61036beccac522081aa98126,2021-07-29_23h03.39.730,Simcolourproject_2stim_asymm_v5,2020.2.10,MacIntel,60,61025ae37ef11b136ea224fe,,,,,,,,,167,85,-53,1,0,0,response3disk,,5,-14,3,1,0,0,rectangle,-14,3,1,0,0,-14,3,1,0,0,0,25,25,73,1,,,,,,,,
,,,,,,,,,,,,,FF,,,,,,,,1.226,,,,,,,,,,,,,,,,,,,,,,610102b7f7493eff26309a1f,61036beccac522081aa98126,2021-07-29_23h03.39.730,Simcolourproject_2stim_asymm_v5,2020.2.10,MacIntel,60,61025ae37ef11b136ea224fe,,,,,,,,,1364,49,70,1,0,0,response1disk,,7,15,1,1,0,0,rectangle,15,1,1,0,0,15,1,1,0,0,0,26,26,7,1,,,,,,,,
,,,,,,,,,,,,,FF,,,,,,,,1.669,,,,,,,,,,,,,,,,,,,,,,610102b7f7493eff26309a1f,61036beccac522081aa98126,2021-07-29_23h03.39.730,Simcolourproject_2stim_asymm_v5,2020.2.10,MacIntel,60,61025ae37ef11b136ea224fe,,,,,,,,,2372,76,-43,1,0,0,response3disk,,5,13,-6,1,0,0,rectangle,13,-6,1,0,0,13,-6,1,0,0,0,27,27,97,1,,,,,,,,
,,,,,,,,,,,,,FF,,,,,,,,1.821,,,,,,,,,,,,,,,,,,,,,,610102b7f7493eff26309a1f,61036beccac522081aa98126,2021-07-29_23h03.39.730,Simcolourproject_2stim_asymm_v5,2020.2.10,MacIntel,60,61025ae37ef11b136ea224fe,,,,,,,,,1374,-38,-74,1,0,0,response5disk,,3,-17,-7,1,0,0,rectangle,-17,-7,1,0,0,-17,-7,1,0,0,0,28,28,133,1,,,,,,,,
,,,,,,,,,,,,,FF,,,,,,,,3.348,,,,,,,,,,,,,,,,,,,,,,610102b7f7493eff26309a1f,61036beccac522081aa98126,2021-07-29_23h03.39.730,Simcolourproject_2stim_asymm_v5,2020.2.10,MacIntel,60,61025ae37ef11b136ea224fe,,,,,,,,,3180,25,-94,1,0,0,response3disk,,4,-7,-16,1,0,0,rectangle,-7,-16,1,0,0,-7,-16,1,0,0,0,29,29,88,1,,,,,,,,
,,,,,,,,,,,,,FF,,,,,,,,1.391,,,,,,,,,,,,,,,,,,,,,,610102b7f7493eff26309a1f,61036beccac522081aa98126,2021-07-29_23h03.39.730,Simcolourproject_2stim_asymm_v5,2020.2.10,MacIntel,60,61025ae37ef11b136ea224fe,,,,,,,,,3371,51,89,1,0,0,response1disk,,7,12,4,1,0,0,rectangle,12,4,1,0,0,12,4,1,0,0,0,30,30,19,1,,,,,,,,
,,,,,,,,,,,,,FF,,,,,,,,2.529,,,,,,,,,,,,,,,,,,,,,,610102b7f7493eff26309a1f,61036beccac522081aa98126,2021-07-29_23h03.39.730,Simcolourproject_2stim_asymm_v5,2020.2.10,MacIntel,60,61025ae37ef11b136ea224fe,,,,,,,,,3631,61,29,1,0,0,response1disk,,6,10,-4,1,0,0,rectangle,10,-4,1,0,0,10,-4,1,0,0,0,31,31,9,1,,,,,,,,
,,,,,,,,,,,,,FF,,,,,,,,1.417,,,,,,,,,,,,,,,,,,,,,,610102b7f7493eff26309a1f,61036beccac522081aa98126,2021-07-29_23h03.39.730,Simcolourproject_2stim_asymm_v5,2020.2.10,MacIntel,60,61025ae37ef11b136ea224fe,,,,,,,,,2600,33,105,1,0,0,response1disk,,7,6,-10,1,0,0,rectangle,6,-10,1,0,0,6,-10,1,0,0,0,32,32,56,1,,,,,,,,
,,,,,,,,,,,,,FF,,,,,,,,4.232,,,,,,,,,,,,,,,,,,,,,,610102b7f7493eff26309a1f,61036beccac522081aa98126,2021-07-29_23h03.39.730,Simcolourproject_2stim_asymm_v5,2020.2.10,MacIntel,60,61025ae37ef11b136ea224fe,,,,,,,,,365,64,-96,1,0,0,response3disk,,4,0,6,1,0,0,rectangle,49,76,1,0,0,11,-1,1,0,0,0,33,33,57,1,,response1disk_3,TRUE,7,1,"[282,96,260,165,220,179,255,38,34,88,287,85,222,100,170,248,219,304,107,160]",1.84,rectangle
,,,,,,,,,,,,,FF,,,,,,,,1.65,,,,,,,,,,,,,,,,,,,,,,610102b7f7493eff26309a1f,61036beccac522081aa98126,2021-07-29_23h03.39.730,Simcolourproject_2stim_asymm_v5,2020.2.10,MacIntel,60,61025ae37ef11b136ea224fe,,,,,,,,,1432,52,77,1,0,0,response1disk,,7,18,-9,1,0,0,rectangle,18,-9,1,0,0,18,-9,1,0,0,0,34,34,145,1,,,,,,,,
,,,,,,,,,,,,,FF,,,,,,,,0.884,,,,,,,,,,,,,,,,,,,,,,610102b7f7493eff26309a1f,61036beccac522081aa98126,2021-07-29_23h03.39.730,Simcolourproject_2stim_asymm_v5,2020.2.10,MacIntel,60,61025ae37ef11b136ea224fe,,,,,,,,,2981,54,53,1,0,0,response1disk,,6,13,-7,1,0,0,rectangle,13,-7,1,0,0,13,-7,1,0,0,0,35,35,121,1,,,,,,,,
,,,,,,,,,,,,,FF,,,,,,,,2.227,,,,,,,,,,,,,,,,,,,,,,610102b7f7493eff26309a1f,61036beccac522081aa98126,2021-07-29_23h03.39.730,Simcolourproject_2stim_asymm_v5,2020.2.10,MacIntel,60,61025ae37ef11b136ea224fe,,,,,,,,,3678,-82,-38,1,0,0,response5disk,,2,-19,3,1,0,0,rectangle,-19,3,1,0,0,-19,3,1,0,0,0,36,36,91,1,,,,,,,,
,,,,,,,,,,,,,FF,,,,,,,,1.147,,,,,,,,,,,,,,,,,,,,,,610102b7f7493eff26309a1f,61036beccac522081aa98126,2021-07-29_23h03.39.730,Simcolourproject_2stim_asymm_v5,2020.2.10,MacIntel,60,61025ae37ef11b136ea224fe,,,,,,,,,1435,25,53,1,0,0,response1disk,,7,-7,-5,1,0,0,rectangle,58,-78,1,0,0,2,-2,1,0,0,0,37,37,143,1,,response3disk_3,TRUE,4,5,"[282,96,260,165,220,179,255,38,34,88,287,85,222,100,170,248,219,304,107,160]",1.482,rectangle
,,,,,,,,,,,,,FF,,,,,,,,0.846,,,,,,,,,,,,,,,,,,,,,,610102b7f7493eff26309a1f,61036beccac522081aa98126,2021-07-29_23h03.39.730,Simcolourproject_2stim_asymm_v5,2020.2.10,MacIntel,60,61025ae37ef11b136ea224fe,,,,,,,,,919,46,61,1,0,0,response1disk,,7,15,7,1,0,0,rectangle,15,7,1,0,0,15,7,1,0,0,0,38,38,159,1,,,,,,,,
,,,,,,,,,,,,,FF,,,,,,,,1.41,,,,,,,,,,,,,,,,,,,,,,610102b7f7493eff26309a1f,61036beccac522081aa98126,2021-07-29_23h03.39.730,Simcolourproject_2stim_asymm_v5,2020.2.10,MacIntel,60,61025ae37ef11b136ea224fe,,,,,,,,,2253,30,-91,1,0,0,response3disk,,4,14,0,1,0,0,rectangle,14,0,1,0,0,14,0,1,0,0,0,39,39,66,1,,,,,,,,
,,,,,,,,,,,,,FF,,,,,,,,1.436,,,,,,,,,,,,,,,,,,,,,,610102b7f7493eff26309a1f,61036beccac522081aa98126,2021-07-29_23h03.39.730,Simcolourproject_2stim_asymm_v5,2020.2.10,MacIntel,60,61025ae37ef11b136ea224fe,,,,,,,,,2994,50,-88,1,0,0,response3disk,,4,18,5,1,0,0,rectangle,18,5,1,0,0,18,5,1,0,0,0,40,40,46,1,,,,,,,,
,,,,,,,,,,,,,FF,,,,,,,,0.874,,,,,,,,,,,,,,,,,,,,,,610102b7f7493eff26309a1f,61036beccac522081aa98126,2021-07-29_23h03.39.730,Simcolourproject_2stim_asymm_v5,2020.2.10,MacIntel,60,61025ae37ef11b136ea224fe,,,,,,,,,1208,47,76,1,0,0,response1disk,,7,21,8,1,0,0,rectangle,21,8,1,0,0,21,8,1,0,0,0,41,41,20,1,,,,,,,,
,,,,,,,,,,,,,FF,,,,,,,,1.434,,,,,,,,,,,,,,,,,,,,,,610102b7f7493eff26309a1f,61036beccac522081aa98126,2021-07-29_23h03.39.730,Simcolourproject_2stim_asymm_v5,2020.2.10,MacIntel,60,61025ae37ef11b136ea224fe,,,,,,,,,3409,43,88,1,0,0,response1disk,,7,10,11,1,0,0,rectangle,10,11,1,0,0,10,11,1,0,0,0,42,42,95,1,,,,,,,,
,,,,,,,,,,,,,FF,,,,,,,,1.697,,,,,,,,,,,,,,,,,,,,,,610102b7f7493eff26309a1f,61036beccac522081aa98126,2021-07-29_23h03.39.730,Simcolourproject_2stim_asymm_v5,2020.2.10,MacIntel,60,61025ae37ef11b136ea224fe,,,,,,,,,2043,72,25,1,0,0,response1disk,,6,29,5,1,0,0,rectangle,29,5,1,0,0,29,5,1,0,0,0,43,43,75,1,,,,,,,,
,,,,,,,,,,,,,FF,,,,,,,,1.547,,,,,,,,,,,,,,,,,,,,,,610102b7f7493eff26309a1f,61036beccac522081aa98126,2021-07-29_23h03.39.730,Simcolourproject_2stim_asymm_v5,2020.2.10,MacIntel,60,61025ae37ef11b136ea224fe,,,,,,,,,1902,62,-49,1,0,0,response3disk,,5,3,-1,1,0,0,rectangle,3,-1,1,0,0,3,-1,1,0,0,0,44,44,60,1,,,,,,,,
,,,,,,,,,,,,,FF,,,,,,,,2.396,,,,,,,,,,,,,,,,,,,,,,610102b7f7493eff26309a1f,61036beccac522081aa98126,2021-07-29_23h03.39.730,Simcolourproject_2stim_asymm_v5,2020.2.10,MacIntel,60,61025ae37ef11b136ea224fe,,,,,,,,,1299,-32,-80,1,0,0,response5disk,,3,19,-1,1,0,0,rectangle,19,-1,1,0,0,19,-1,1,0,0,0,45,45,43,1,,,,,,,,
,,,,,,,,,,,,,FF,,,,,,,,1.277,,,,,,,,,,,,,,,,,,,,,,610102b7f7493eff26309a1f,61036beccac522081aa98126,2021-07-29_23h03.39.730,Simcolourproject_2stim_asymm_v5,2020.2.10,MacIntel,60,61025ae37ef11b136ea224fe,,,,,,,,,2507,51,72,1,0,0,response1disk,,7,18,-9,1,0,0,rectangle,18,-9,1,0,0,18,-9,1,0,0,0,46,46,65,1,,,,,,,,
,,,,,,,,,,,,,FF,,,,,,,,1.268,,,,,,,,,,,,,,,,,,,,,,610102b7f7493eff26309a1f,61036beccac522081aa98126,2021-07-29_23h03.39.730,Simcolourproject_2stim_asymm_v5,2020.2.10,MacIntel,60,61025ae37ef11b136ea224fe,,,,,,,,,114,32,-89,1,0,0,response3disk,,4,12,-9,1,0,0,rectangle,12,-9,1,0,0,12,-9,1,0,0,0,47,47,51,1,,,,,,,,
,,,,,,,,,,,,,FF,,,,,,,,1.275,,,,,,,,,,,,,,,,,,,,,,610102b7f7493eff26309a1f,61036beccac522081aa98126,2021-07-29_23h03.39.730,Simcolourproject_2stim_asymm_v5,2020.2.10,MacIntel,60,61025ae37ef11b136ea224fe,,,,,,,,,3884,71,30,1,0,0,response1disk,,6,26,0,1,0,0,rectangle,26,0,1,0,0,26,0,1,0,0,0,48,48,155,1,,,,,,,,
,,,,,,,,,,,,,FF,,,,,,,,1.997,,,,,,,,,,,,,,,,,,,,,,610102b7f7493eff26309a1f,61036beccac522081aa98126,2021-07-29_23h03.39.730,Simcolourproject_2stim_asymm_v5,2020.2.10,MacIntel,60,61025ae37ef11b136ea224fe,,,,,,,,,3288,79,-51,1,0,0,response3disk,,5,-18,9,1,0,0,rectangle,-18,9,1,0,0,-18,9,1,0,0,0,49,49,83,1,,,,,,,,
,,,,,,,,,,,,,FF,,,,,,,,0.904,,,,,,,,,,,,,,,,,,,,,,610102b7f7493eff26309a1f,61036beccac522081aa98126,2021-07-29_23h03.39.730,Simcolourproject_2stim_asymm_v5,2020.2.10,MacIntel,60,61025ae37ef11b136ea224fe,,,,,,,,,1877,43,44,1,0,0,response1disk,,7,23,-6,1,0,0,rectangle,23,-6,1,0,0,23,-6,1,0,0,0,50,50,156,1,,,,,,,,
,,,,,,,,,,,,,FF,,,,,,,,1.199,,,,,,,,,,,,,,,,,,,,,,610102b7f7493eff26309a1f,61036beccac522081aa98126,2021-07-29_23h03.39.730,Simcolourproject_2stim_asymm_v5,2020.2.10,MacIntel,60,61025ae37ef11b136ea224fe,,,,,,,,,565,52,69,1,0,0,response1disk,,7,11,15,1,0,0,rectangle,11,15,1,0,0,11,15,1,0,0,0,51,51,135,1,,,,,,,,
,,,,,,,,,,,,,FF,,,,,,,,1.667,,,,,,,,,,,,,,,,,,,,,,610102b7f7493eff26309a1f,61036beccac522081aa98126,2021-07-29_23h03.39.730,Simcolourproject_2stim_asymm_v5,2020.2.10,MacIntel,60,61025ae37ef11b136ea224fe,,,,,,,,,814,55,-27,1,0,0,response3disk,,5,-1,14,1,0,0,rectangle,-1,14,1,0,0,-1,14,1,0,0,0,52,52,50,1,,,,,,,,
,,,,,,,,,,,,,FF,,,,,,,,1.838,,,,,,,,,,,,,,,,,,,,,,610102b7f7493eff26309a1f,61036beccac522081aa98126,2021-07-29_23h03.39.730,Simcolourproject_2stim_asymm_v5,2020.2.10,MacIntel,60,61025ae37ef11b136ea224fe,,,,,,,,,3350,58,-51,1,0,0,response3disk,,5,13,1,1,0,0,rectangle,13,1,1,0,0,13,1,1,0,0,0,53,53,93,1,,,,,,,,
,,,,,,,,,,,,,FF,,,,,,,,1.423,,,,,,,,,,,,,,,,,,,,,,610102b7f7493eff26309a1f,61036beccac522081aa98126,2021-07-29_23h03.39.730,Simcolourproject_2stim_asymm_v5,2020.2.10,MacIntel,60,61025ae37ef11b136ea224fe,,,,,,,,,269,64,30,1,0,0,response1disk,,6,27,3,1,0,0,rectangle,27,3,1,0,0,27,3,1,0,0,0,54,54,151,1,,,,,,,,
,,,,,,,,,,,,,FF,,,,,,,,3.176,,,,,,,,,,,,,,,,,,,,,,610102b7f7493eff26309a1f,61036beccac522081aa98126,2021-07-29_23h03.39.730,Simcolourproject_2stim_asymm_v5,2020.2.10,MacIntel,60,61025ae37ef11b136ea224fe,,,,,,,,,121,33,80,1,0,0,response1disk,,7,13,1,1,0,0,rectangle,13,1,1,0,0,13,1,1,0,0,0,55,55,110,1,,,,,,,,
,,,,,,,,,,,,,FF,,,,,,,,0.915,,,,,,,,,,,,,,,,,,,,,,610102b7f7493eff26309a1f,61036beccac522081aa98126,2021-07-29_23h03.39.730,Simcolourproject_2stim_asymm_v5,2020.2.10,MacIntel,60,61025ae37ef11b136ea224fe,,,,,,,,,1017,51,68,1,0,0,response1disk,,7,15,5,1,0,0,rectangle,15,5,1,0,0,15,5,1,0,0,0,56,56,55,1,,,,,,,,
,,,,,,,,,,,,,FF,,,,,,,,0.771,,,,,,,,,,,,,,,,,,,,,,610102b7f7493eff26309a1f,61036beccac522081aa98126,2021-07-29_23h03.39.730,Simcolourproject_2stim_asymm_v5,2020.2.10,MacIntel,60,61025ae37ef11b136ea224fe,,,,,,,,,884,33,52,1,0,0,response1disk,,7,8,-8,1,0,0,rectangle,8,-8,1,0,0,8,-8,1,0,0,0,57,57,104,1,,,,,,,,
,,,,,,,,,,,,,FF,,,,,,,,1.242,,,,,,,,,,,,,,,,,,,,,,610102b7f7493eff26309a1f,61036beccac522081aa98126,2021-07-29_23h03.39.730,Simcolourproject_2stim_asymm_v5,2020.2.10,MacIntel,60,61025ae37ef11b136ea224fe,,,,,,,,,3172,71,-21,1,0,0,response3disk,,5,23,9,1,0,0,rectangle,23,9,1,0,0,23,9,1,0,0,0,58,58,35,1,,,,,,,,
,,,,,,,,,,,,,FF,,,,,,,,1.461,,,,,,,,,,,,,,,,,,,,,,610102b7f7493eff26309a1f,61036beccac522081aa98126,2021-07-29_23h03.39.730,Simcolourproject_2stim_asymm_v5,2020.2.10,MacIntel,60,61025ae37ef11b136ea224fe,,,,,,,,,1522,-52,-74,1,0,0,response5disk,,3,-16,8,1,0,0,rectangle,-16,8,1,0,0,-16,8,1,0,0,0,59,59,62,1,,,,,,,,
,,,,,,,,,,,,,FF,,,,,,,,1.51,,,,,,,,,,,,,,,,,,,,,,610102b7f7493eff26309a1f,61036beccac522081aa98126,2021-07-29_23h03.39.730,Simcolourproject_2stim_asymm_v5,2020.2.10,MacIntel,60,61025ae37ef11b136ea224fe,,,,,,,,,2151,-48,-54,1,0,0,response5disk,,3,-34,-11,1,0,0,rectangle,-34,-11,1,0,0,-34,-11,1,0,0,0,60,60,48,1,,,,,,,,
,,,,,,,,,,,,,FF,,,,,,,,2.03,,,,,,,,,,,,,,,,,,,,,,610102b7f7493eff26309a1f,61036beccac522081aa98126,2021-07-29_23h03.39.730,Simcolourproject_2stim_asymm_v5,2020.2.10,MacIntel,60,61025ae37ef11b136ea224fe,,,,,,,,,1719,77,36,1,0,0,response1disk,,6,6,-7,1,0,0,rectangle,6,-7,1,0,0,6,-7,1,0,0,0,61,61,8,1,,,,,,,,
,,,,,,,,,,,,,FF,,,,,,,,1.471,,,,,,,,,,,,,,,,,,,,,,610102b7f7493eff26309a1f,61036beccac522081aa98126,2021-07-29_23h03.39.730,Simcolourproject_2stim_asymm_v5,2020.2.10,MacIntel,60,61025ae37ef11b136ea224fe,,,,,,,,,3386,41,-70,1,0,0,response3disk,,4,23,-7,1,0,0,rectangle,23,-7,1,0,0,23,-7,1,0,0,0,62,62,139,1,,,,,,,,
,,,,,,,,,,,,,FF,,,,,,,,4.494,,,,,,,,,,,,,,,,,,,,,,610102b7f7493eff26309a1f,61036beccac522081aa98126,2021-07-29_23h03.39.730,Simcolourproject_2stim_asymm_v5,2020.2.10,MacIntel,60,61025ae37ef11b136ea224fe,,,,,,,,,671,85,-39,1,0,0,response3disk,,5,25,-18,1,0,0,rectangle,25,-18,1,0,0,25,-18,1,0,0,0,63,63,153,1,,,,,,,,
,,,,,,,,,,,,,FF,,,,,,,,1.093,,,,,,,,,,,,,,,,,,,,,,610102b7f7493eff26309a1f,61036beccac522081aa98126,2021-07-29_23h03.39.730,Simcolourproject_2stim_asymm_v5,2020.2.10,MacIntel,60,61025ae37ef11b136ea224fe,,,,,,,,,1033,35,-66,1,0,0,response3disk,,4,19,-15,1,0,0,rectangle,19,-15,1,0,0,19,-15,1,0,0,0,64,64,130,1,,,,,,,,
,,,,,,,,,,,,,FF,,,,,,,,0.926,,,,,,,,,,,,,,,,,,,,,,610102b7f7493eff26309a1f,61036beccac522081aa98126,2021-07-29_23h03.39.730,Simcolourproject_2stim_asymm_v5,2020.2.10,MacIntel,60,61025ae37ef11b136ea224fe,,,,,,,,,3984,20,114,1,0,0,response1disk,,7,5,1,1,0,0,rectangle,5,1,1,0,0,5,1,1,0,0,0,65,65,58,1,,,,,,,,
,,,,,,,,,,,,,FF,,,,,,,,3.004,,,,,,,,,,,,,,,,,,,,,,610102b7f7493eff26309a1f,61036beccac522081aa98126,2021-07-29_23h03.39.730,Simcolourproject_2stim_asymm_v5,2020.2.10,MacIntel,60,61025ae37ef11b136ea224fe,,,,,,,,,2448,70,35,1,0,0,response1disk,,6,17,7,1,0,0,rectangle,17,7,1,0,0,17,7,1,0,0,0,66,66,38,1,,,,,,,,
,,,,,,,,,,,,,FF,,,,,,,,2.914,,,,,,,,,,,,,,,,,,,,,,610102b7f7493eff26309a1f,61036beccac522081aa98126,2021-07-29_23h03.39.730,Simcolourproject_2stim_asymm_v5,2020.2.10,MacIntel,60,61025ae37ef11b136ea224fe,,,,,,,,,1372,64,41,1,0,0,response1disk,,6,20,0,1,0,0,rectangle,20,0,1,0,0,20,0,1,0,0,0,67,67,115,1,,,,,,,,
,,,,,,,,,,,,,FF,,,,,,,,0.839,,,,,,,,,,,,,,,,,,,,,,610102b7f7493eff26309a1f,61036beccac522081aa98126,2021-07-29_23h03.39.730,Simcolourproject_2stim_asymm_v5,2020.2.10,MacIntel,60,61025ae37ef11b136ea224fe,,,,,,,,,1157,25,81,1,0,0,response1disk,,7,9,11,1,0,0,rectangle,9,11,1,0,0,9,11,1,0,0,0,68,68,144,1,,,,,,,,
,,,,,,,,,,,,,FF,,,,,,,,1.906,,,,,,,,,,,,,,,,,,,,,,610102b7f7493eff26309a1f,61036beccac522081aa98126,2021-07-29_23h03.39.730,Simcolourproject_2stim_asymm_v5,2020.2.10,MacIntel,60,61025ae37ef11b136ea224fe,,,,,,,,,4170,-28,-68,1,0,0,response5disk,,3,-21,-8,1,0,0,rectangle,-21,-8,1,0,0,-21,-8,1,0,0,0,69,69,17,1,,,,,,,,
,,,,,,,,,,,,,FF,,,,,,,,1.406,,,,,,,,,,,,,,,,,,,,,,610102b7f7493eff26309a1f,61036beccac522081aa98126,2021-07-29_23h03.39.730,Simcolourproject_2stim_asymm_v5,2020.2.10,MacIntel,60,61025ae37ef11b136ea224fe,,,,,,,,,3817,-89,-40,1,0,0,response5disk,,2,-17,-4,1,0,0,rectangle,-17,-4,1,0,0,-17,-4,1,0,0,0,70,70,148,1,,,,,,,,
,,,,,,,,,,,,,FF,,,,,,,,2.571,,,,,,,,,,,,,,,,,,,,,,610102b7f7493eff26309a1f,61036beccac522081aa98126,2021-07-29_23h03.39.730,Simcolourproject_2stim_asymm_v5,2020.2.10,MacIntel,60,61025ae37ef11b136ea224fe,,,,,,,,,3970,39,-61,1,0,0,response3disk,,4,18,-15,1,0,0,rectangle,18,-15,1,0,0,18,-15,1,0,0,0,71,71,33,1,,,,,,,,
,,,,,,,,,,,,,FF,,,,,,,,3.757,,,,,,,,,,,,,,,,,,,,,,610102b7f7493eff26309a1f,61036beccac522081aa98126,2021-07-29_23h03.39.730,Simcolourproject_2stim_asymm_v5,2020.2.10,MacIntel,60,61025ae37ef11b136ea224fe,,,,,,,,,661,65,-49,1,0,0,response3disk,,5,4,-10,1,0,0,rectangle,4,-10,1,0,0,4,-10,1,0,0,0,72,72,44,1,,,,,,,,
,,,,,,,,,,,,,FF,,,,,,,,1.391,,,,,,,,,,,,,,,,,,,,,,610102b7f7493eff26309a1f,61036beccac522081aa98126,2021-07-29_23h03.39.730,Simcolourproject_2stim_asymm_v5,2020.2.10,MacIntel,60,61025ae37ef11b136ea224fe,,,,,,,,,3568,79,56,1,0,0,response1disk,,6,15,-9,1,0,0,rectangle,15,-9,1,0,0,15,-9,1,0,0,0,73,73,76,1,,,,,,,,
,,,,,,,,,,,,,FF,,,,,,,,1.107,,,,,,,,,,,,,,,,,,,,,,610102b7f7493eff26309a1f,61036beccac522081aa98126,2021-07-29_23h03.39.730,Simcolourproject_2stim_asymm_v5,2020.2.10,MacIntel,60,61025ae37ef11b136ea224fe,,,,,,,,,3601,102,62,1,0,0,response1disk,,6,14,-10,1,0,0,rectangle,14,-10,1,0,0,14,-10,1,0,0,0,74,74,41,1,,,,,,,,
,,,,,,,,,,,,,FF,,,,,,,,1.035,,,,,,,,,,,,,,,,,,,,,,610102b7f7493eff26309a1f,61036beccac522081aa98126,2021-07-29_23h03.39.730,Simcolourproject_2stim_asymm_v5,2020.2.10,MacIntel,60,61025ae37ef11b136ea224fe,,,,,,,,,1966,-86,-41,1,0,0,response5disk,,2,-16,8,1,0,0,rectangle,-16,8,1,0,0,-16,8,1,0,0,0,75,75,80,1,,,,,,,,
,,,,,,,,,,,,,FF,,,,,,,,1.65,,,,,,,,,,,,,,,,,,,,,,610102b7f7493eff26309a1f,61036beccac522081aa98126,2021-07-29_23h03.39.730,Simcolourproject_2stim_asymm_v5,2020.2.10,MacIntel,60,61025ae37ef11b136ea224fe,,,,,,,,,4116,81,46,1,0,0,response1disk,,6,10,3,1,0,0,rectangle,10,3,1,0,0,10,3,1,0,0,0,76,76,82,1,,,,,,,,
,,,,,,,,,,,,,FF,,,,,,,,3.226,,,,,,,,,,,,,,,,,,,,,,610102b7f7493eff26309a1f,61036beccac522081aa98126,2021-07-29_23h03.39.730,Simcolourproject_2stim_asymm_v5,2020.2.10,MacIntel,60,61025ae37ef11b136ea224fe,,,,,,,,,546,78,-19,1,0,0,response3disk,,5,28,-2,1,0,0,rectangle,28,-2,1,0,0,28,-2,1,0,0,0,77,77,12,1,,,,,,,,
,,,,,,,,,,,,,FF,,,,,,,,0.933,,,,,,,,,,,,,,,,,,,,,,610102b7f7493eff26309a1f,61036beccac522081aa98126,2021-07-29_23h03.39.730,Simcolourproject_2stim_asymm_v5,2020.2.10,MacIntel,60,61025ae37ef11b136ea224fe,,,,,,,,,2708,34,80,1,0,0,response1disk,,7,-6,-7,1,0,0,rectangle,-6,-7,1,0,0,-6,-7,1,0,0,0,78,78,24,1,,,,,,,,
,,,,,,,,,,,,,FF,,,,,,,,2.033,,,,,,,,,,,,,,,,,,,,,,610102b7f7493eff26309a1f,61036beccac522081aa98126,2021-07-29_23h03.39.730,Simcolourproject_2stim_asymm_v5,2020.2.10,MacIntel,60,61025ae37ef11b136ea224fe,,,,,,,,,1830,95,27,1,0,0,response1disk,,6,11,-3,1,0,0,rectangle,11,-3,1,0,0,11,-3,1,0,0,0,79,79,69,1,,,,,,,,
,,,,,,,,,,,,,FF,,,,,,,,0.946,,,,,,,,,,,,,,,,,,,,,,610102b7f7493eff26309a1f,61036beccac522081aa98126,2021-07-29_23h03.39.730,Simcolourproject_2stim_asymm_v5,2020.2.10,MacIntel,60,61025ae37ef11b136ea224fe,,,,,,,,,3268,45,80,1,0,0,response1disk,,7,26,10,1,0,0,rectangle,26,10,1,0,0,26,10,1,0,0,0,80,80,114,1,,,,,,,,
,,,,,,,,,,,,,FF,,,,,,,,1.116,,,,,,,,,,,,,,,,,,,,,,610102b7f7493eff26309a1f,61036beccac522081aa98126,2021-07-29_23h03.39.730,Simcolourproject_2stim_asymm_v5,2020.2.10,MacIntel,60,61025ae37ef11b136ea224fe,,,,,,,,,4097,-63,-77,1,0,0,response5disk,,3,-21,-1,1,0,0,rectangle,-21,-1,1,0,0,-21,-1,1,0,0,0,81,81,37,1,,,,,,,,
,,,,,,,,,,,,,FF,,,,,,,,1.689,,,,,,,,,,,,,,,,,,,,,,610102b7f7493eff26309a1f,61036beccac522081aa98126,2021-07-29_23h03.39.730,Simcolourproject_2stim_asymm_v5,2020.2.10,MacIntel,60,61025ae37ef11b136ea224fe,,,,,,,,,2427,33,-72,1,0,0,response3disk,,4,31,-8,1,0,0,rectangle,31,-8,1,0,0,31,-8,1,0,0,0,82,82,39,1,,,,,,,,
,,,,,,,,,,,,,FF,,,,,,,,1.232,,,,,,,,,,,,,,,,,,,,,,610102b7f7493eff26309a1f,61036beccac522081aa98126,2021-07-29_23h03.39.730,Simcolourproject_2stim_asymm_v5,2020.2.10,MacIntel,60,61025ae37ef11b136ea224fe,,,,,,,,,1380,84,52,1,0,0,response1disk,,6,29,17,1,0,0,rectangle,29,17,1,0,0,29,17,1,0,0,0,83,83,138,1,,,,,,,,
,,,,,,,,,,,,,FF,,,,,,,,2.619,,,,,,,,,,,,,,,,,,,,,,610102b7f7493eff26309a1f,61036beccac522081aa98126,2021-07-29_23h03.39.730,Simcolourproject_2stim_asymm_v5,2020.2.10,MacIntel,60,61025ae37ef11b136ea224fe,,,,,,,,,571,74,37,1,0,0,response1disk,,6,21,3,1,0,0,rectangle,-38,-48,1,0,0,14,8,1,0,0,0,84,84,147,1,,response5disk_3,TRUE,3,5,"[282,96,260,165,220,179,255,38,34,88,287,85,222,100,170,248,219,304,107,160]",1.255,rectangle
,,,,,,,,,,,,,FF,,,,,,,,3.001,,,,,,,,,,,,,,,,,,,,,,610102b7f7493eff26309a1f,61036beccac522081aa98126,2021-07-29_23h03.39.730,Simcolourproject_2stim_asymm_v5,2020.2.10,MacIntel,60,61025ae37ef11b136ea224fe,,,,,,,,,3923,63,31,1,0,0,response1disk,,6,29,5,1,0,0,rectangle,29,5,1,0,0,29,5,1,0,0,0,85,85,29,1,,,,,,,,
,,,,,,,,,,,,,FF,,,,,,,,2.896,,,,,,,,,,,,,,,,,,,,,,610102b7f7493eff26309a1f,61036beccac522081aa98126,2021-07-29_23h03.39.730,Simcolourproject_2stim_asymm_v5,2020.2.10,MacIntel,60,61025ae37ef11b136ea224fe,,,,,,,,,2311,61,22,1,0,0,response1disk,,6,10,8,1,0,0,rectangle,10,8,1,0,0,10,8,1,0,0,0,86,86,4,1,,,,,,,,
,,,,,,,,,,,,,FF,,,,,,,,1.566,,,,,,,,,,,,,,,,,,,,,,610102b7f7493eff26309a1f,61036beccac522081aa98126,2021-07-29_23h03.39.730,Simcolourproject_2stim_asymm_v5,2020.2.10,MacIntel,60,61025ae37ef11b136ea224fe,,,,,,,,,2038,57,-26,1,0,0,response3disk,,5,23,-16,1,0,0,rectangle,-32,-61,1,0,0,0,-7,1,0,0,0,87,87,87,1,,response5disk_3,TRUE,3,5,"[282,96,260,165,220,179,255,38,34,88,287,85,222,100,170,248,219,304,107,160]",2.386,rectangle
,,,,,,,,,,,,,FF,,,,,,,,1.233,,,,,,,,,,,,,,,,,,,,,,610102b7f7493eff26309a1f,61036beccac522081aa98126,2021-07-29_23h03.39.730,Simcolourproject_2stim_asymm_v5,2020.2.10,MacIntel,60,61025ae37ef11b136ea224fe,,,,,,,,,3223,52,90,1,0,0,response1disk,,7,10,9,1,0,0,rectangle,10,9,1,0,0,10,9,1,0,0,0,88,88,78,1,,,,,,,,
,,,,,,,,,,,,,FF,,,,,,,,1.31,,,,,,,,,,,,,,,,,,,,,,610102b7f7493eff26309a1f,61036beccac522081aa98126,2021-07-29_23h03.39.730,Simcolourproject_2stim_asymm_v5,2020.2.10,MacIntel,60,61025ae37ef11b136ea224fe,,,,,,,,,1490,57,109,1,0,0,response1disk,,7,8,1,1,0,0,rectangle,8,1,1,0,0,8,1,1,0,0,0,89,89,18,1,,,,,,,,
,,,,,,,,,,,,,FF,,,,,,,,2.483,,,,,,,,,,,,,,,,,,,,,,610102b7f7493eff26309a1f,61036beccac522081aa98126,2021-07-29_23h03.39.730,Simcolourproject_2stim_asymm_v5,2020.2.10,MacIntel,60,61025ae37ef11b136ea224fe,,,,,,,,,3,26,-90,1,0,0,response3disk,,4,3,-3,1,0,0,rectangle,3,-3,1,0,0,3,-3,1,0,0,0,90,90,67,1,,,,,,,,
,,,,,,,,,,,,,FF,,,,,,,,1.992,,,,,,,,,,,,,,,,,,,,,,610102b7f7493eff26309a1f,61036beccac522081aa98126,2021-07-29_23h03.39.730,Simcolourproject_2stim_asymm_v5,2020.2.10,MacIntel,60,61025ae37ef11b136ea224fe,,,,,,,,,246,47,-19,1,0,0,response3disk,,5,19,-5,1,0,0,rectangle,19,-5,1,0,0,19,-5,1,0,0,0,91,91,23,1,,,,,,,,
,,,,,,,,,,,,,FF,,,,,,,,1.172,,,,,,,,,,,,,,,,,,,,,,610102b7f7493eff26309a1f,61036beccac522081aa98126,2021-07-29_23h03.39.730,Simcolourproject_2stim_asymm_v5,2020.2.10,MacIntel,60,61025ae37ef11b136ea224fe,,,,,,,,,3218,32,77,1,0,0,response1disk,,7,20,7,1,0,0,rectangle,20,7,1,0,0,20,7,1,0,0,0,92,92,98,1,,,,,,,,
,,,,,,,,,,,,,FF,,,,,,,,1.134,,,,,,,,,,,,,,,,,,,,,,610102b7f7493eff26309a1f,61036beccac522081aa98126,2021-07-29_23h03.39.730,Simcolourproject_2stim_asymm_v5,2020.2.10,MacIntel,60,61025ae37ef11b136ea224fe,,,,,,,,,3832,31,73,1,0,0,response1disk,,7,13,7,1,0,0,rectangle,13,7,1,0,0,13,7,1,0,0,0,93,93,140,1,,,,,,,,
,,,,,,,,,,,,,FF,,,,,,,,2.414,,,,,,,,,,,,,,,,,,,,,,610102b7f7493eff26309a1f,61036beccac522081aa98126,2021-07-29_23h03.39.730,Simcolourproject_2stim_asymm_v5,2020.2.10,MacIntel,60,61025ae37ef11b136ea224fe,,,,,,,,,3234,45,82,1,0,0,response1disk,,7,5,4,1,0,0,rectangle,5,4,1,0,0,5,4,1,0,0,0,94,94,71,1,,,,,,,,
,,,,,,,,,,,,,FF,,,,,,,,9.407,,,,,,,,,,,,,,,,,,,,,,610102b7f7493eff26309a1f,61036beccac522081aa98126,2021-07-29_23h03.39.730,Simcolourproject_2stim_asymm_v5,2020.2.10,MacIntel,60,61025ae37ef11b136ea224fe,,,,,,,,,2010,42,86,1,0,0,response1disk,,7,13,-4,1,0,0,rectangle,33,-64,1,0,0,11,-9,1,0,0,0,95,95,2,1,,response3disk_3,TRUE,4,1,"[282,96,260,165,220,179,255,38,34,88,287,85,222,100,170,248,219,304,107,160]",2.5,rectangle
,,,,,,,,,,,,,FF,,,,,,,,1.004,,,,,,,,,,,,,,,,,,,,,,610102b7f7493eff26309a1f,61036beccac522081aa98126,2021-07-29_23h03.39.730,Simcolourproject_2stim_asymm_v5,2020.2.10,MacIntel,60,61025ae37ef11b136ea224fe,,,,,,,,,20,35,51,1,0,0,response1disk,,7,27,-3,1,0,0,rectangle,27,-3,1,0,0,27,-3,1,0,0,0,96,96,30,1,,,,,,,,
,,,,,,,,,,,,,FF,,,,,,,,1.522,,,,,,,,,,,,,,,,,,,,,,610102b7f7493eff26309a1f,61036beccac522081aa98126,2021-07-29_23h03.39.730,Simcolourproject_2stim_asymm_v5,2020.2.10,MacIntel,60,61025ae37ef11b136ea224fe,,,,,,,,,3966,-67,-34,1,0,0,response5disk,,2,-23,-10,1,0,0,rectangle,-23,-10,1,0,0,-23,-10,1,0,0,0,97,97,127,1,,,,,,,,
,,,,,,,,,,,,,FF,,,,,,,,1.214,,,,,,,,,,,,,,,,,,,,,,610102b7f7493eff26309a1f,61036beccac522081aa98126,2021-07-29_23h03.39.730,Simcolourproject_2stim_asymm_v5,2020.2.10,MacIntel,60,61025ae37ef11b136ea224fe,,,,,,,,,1671,23,-86,1,0,0,response3disk,,4,6,-11,1,0,0,rectangle,6,-11,1,0,0,6,-11,1,0,0,0,98,98,22,1,,,,,,,,
,,,,,,,,,,,,,FF,,,,,,,,1.872,,,,,,,,,,,,,,,,,,,,,,610102b7f7493eff26309a1f,61036beccac522081aa98126,2021-07-29_23h03.39.730,Simcolourproject_2stim_asymm_v5,2020.2.10,MacIntel,60,61025ae37ef11b136ea224fe,,,,,,,,,4257,37,71,1,0,0,response1disk,,7,13,5,1,0,0,rectangle,-49,63,1,0,0,-13,-5,1,0,0,0,99,99,107,1,,response7disk_3,TRUE,0,3,"[282,96,260,165,220,179,255,38,34,88,287,85,222,100,170,248,219,304,107,160]",1.255,rectangle
,,,,,,,,,,,,,FF,,,,,,,,2.497,,,,,,,,,,,,,,,,,,,,,,610102b7f7493eff26309a1f,61036beccac522081aa98126,2021-07-29_23h03.39.730,Simcolourproject_2stim_asymm_v5,2020.2.10,MacIntel,60,61025ae37ef11b136ea224fe,,,,,,,,,3825,47,67,1,0,0,response1disk,,7,20,1,1,0,0,rectangle,20,1,1,0,0,20,1,1,0,0,0,100,100,77,1,,,,,,,,
,,,,,,,,,,,,,FF,,,,,,,,1.834,,,,,,,,,,,,,,,,,,,,,,610102b7f7493eff26309a1f,61036beccac522081aa98126,2021-07-29_23h03.39.730,Simcolourproject_2stim_asymm_v5,2020.2.10,MacIntel,60,61025ae37ef11b136ea224fe,,,,,,,,,938,51,92,1,0,0,response1disk,,7,10,2,1,0,0,rectangle,10,2,1,0,0,10,2,1,0,0,0,101,101,108,1,,,,,,,,
,,,,,,,,,,,,,FF,,,,,,,,0.799,,,,,,,,,,,,,,,,,,,,,,610102b7f7493eff26309a1f,61036beccac522081aa98126,2021-07-29_23h03.39.730,Simcolourproject_2stim_asymm_v5,2020.2.10,MacIntel,60,61025ae37ef11b136ea224fe,,,,,,,,,499,63,101,1,0,0,response1disk,,7,11,1,1,0,0,rectangle,11,1,1,0,0,11,1,1,0,0,0,102,102,70,1,,,,,,,,
,,,,,,,,,,,,,FF,,,,,,,,1.091,,,,,,,,,,,,,,,,,,,,,,610102b7f7493eff26309a1f,61036beccac522081aa98126,2021-07-29_23h03.39.730,Simcolourproject_2stim_asymm_v5,2020.2.10,MacIntel,60,61025ae37ef11b136ea224fe,,,,,,,,,4177,36,83,1,0,0,response1disk,,7,15,10,1,0,0,rectangle,15,10,1,0,0,15,10,1,0,0,0,103,103,120,1,,,,,,,,
,,,,,,,,,,,,,FF,,,,,,,,0.785,,,,,,,,,,,,,,,,,,,,,,610102b7f7493eff26309a1f,61036beccac522081aa98126,2021-07-29_23h03.39.730,Simcolourproject_2stim_asymm_v5,2020.2.10,MacIntel,60,61025ae37ef11b136ea224fe,,,,,,,,,1627,111,26,1,0,0,response1disk,,6,13,1,1,0,0,rectangle,13,1,1,0,0,13,1,1,0,0,0,104,104,28,1,,,,,,,,
,,,,,,,,,,,,,FF,,,,,,,,1.046,,,,,,,,,,,,,,,,,,,,,,610102b7f7493eff26309a1f,61036beccac522081aa98126,2021-07-29_23h03.39.730,Simcolourproject_2stim_asymm_v5,2020.2.10,MacIntel,60,61025ae37ef11b136ea224fe,,,,,,,,,3397,45,-31,1,0,0,response3disk,,5,8,-12,1,0,0,rectangle,8,-12,1,0,0,8,-12,1,0,0,0,105,105,45,1,,,,,,,,
,,,,,,,,,,,,,FF,,,,,,,,1.131,,,,,,,,,,,,,,,,,,,,,,610102b7f7493eff26309a1f,61036beccac522081aa98126,2021-07-29_23h03.39.730,Simcolourproject_2stim_asymm_v5,2020.2.10,MacIntel,60,61025ae37ef11b136ea224fe,,,,,,,,,3514,-29,-100,1,0,0,response5disk,,3,-4,-6,1,0,0,rectangle,54,82,1,0,0,-4,1,1,0,0,0,106,106,117,1,,response1disk_3,TRUE,7,7,"[282,96,260,165,220,179,255,38,34,88,287,85,222,100,170,248,219,304,107,160]",4.201,rectangle
,,,,,,,,,,,,,FF,,,,,,,,1.457,,,,,,,,,,,,,,,,,,,,,,610102b7f7493eff26309a1f,61036beccac522081aa98126,2021-07-29_23h03.39.730,Simcolourproject_2stim_asymm_v5,2020.2.10,MacIntel,60,61025ae37ef11b136ea224fe,,,,,,,,,421,50,72,1,0,0,response1disk,,7,12,1,1,0,0,rectangle,12,1,1,0,0,12,1,1,0,0,0,107,107,131,1,,,,,,,,
,,,,,,,,,,,,,FF,,,,,,,,0.983,,,,,,,,,,,,,,,,,,,,,,610102b7f7493eff26309a1f,61036beccac522081aa98126,2021-07-29_23h03.39.730,Simcolourproject_2stim_asymm_v5,2020.2.10,MacIntel,60,61025ae37ef11b136ea224fe,,,,,,,,,4070,46,76,1,0,0,response1disk,,7,14,12,1,0,0,rectangle,14,12,1,0,0,14,12,1,0,0,0,108,108,74,1,,,,,,,,
,,,,,,,,,,,,,FF,,,,,,,,0.851,,,,,,,,,,,,,,,,,,,,,,610102b7f7493eff26309a1f,61036beccac522081aa98126,2021-07-29_23h03.39.730,Simcolourproject_2stim_asymm_v5,2020.2.10,MacIntel,60,61025ae37ef11b136ea224fe,,,,,,,,,3435,-36,-71,1,0,0,response5disk,,3,-12,-10,1,0,0,rectangle,-12,-10,1,0,0,-12,-10,1,0,0,0,109,109,102,1,,,,,,,,
,,,,,,,,,,,,,FF,,,,,,,,1.078,,,,,,,,,,,,,,,,,,,,,,610102b7f7493eff26309a1f,61036beccac522081aa98126,2021-07-29_23h03.39.730,Simcolourproject_2stim_asymm_v5,2020.2.10,MacIntel,60,61025ae37ef11b136ea224fe,,,,,,,,,69,84,56,1,0,0,response1disk,,6,21,5,1,0,0,rectangle,21,5,1,0,0,21,5,1,0,0,0,110,110,90,1,,,,,,,,
,,,,,,,,,,,,,FF,,,,,,,,1.774,,,,,,,,,,,,,,,,,,,,,,610102b7f7493eff26309a1f,61036beccac522081aa98126,2021-07-29_23h03.39.730,Simcolourproject_2stim_asymm_v5,2020.2.10,MacIntel,60,61025ae37ef11b136ea224fe,,,,,,,,,3521,78,-49,1,0,0,response3disk,,5,-1,-2,1,0,0,rectangle,-1,-2,1,0,0,-1,-2,1,0,0,0,111,111,112,1,,,,,,,,
,,,,,,,,,,,,,FF,,,,,,,,1.553,,,,,,,,,,,,,,,,,,,,,,610102b7f7493eff26309a1f,61036beccac522081aa98126,2021-07-29_23h03.39.730,Simcolourproject_2stim_asymm_v5,2020.2.10,MacIntel,60,61025ae37ef11b136ea224fe,,,,,,,,,424,73,47,1,0,0,response1disk,,6,-21,-4,1,0,0,rectangle,-21,-4,1,0,0,-21,-4,1,0,0,0,112,112,116,1,,,,,,,,
,,,,,,,,,,,,,FF,,,,,,,,1.447,,,,,,,,,,,,,,,,,,,,,,610102b7f7493eff26309a1f,61036beccac522081aa98126,2021-07-29_23h03.39.730,Simcolourproject_2stim_asymm_v5,2020.2.10,MacIntel,60,61025ae37ef11b136ea224fe,,,,,,,,,3707,-60,58,1,0,0,response7disk,,1,-7,1,1,0,0,rectangle,-7,1,1,0,0,-7,1,1,0,0,0,113,113,31,1,,,,,,,,
,,,,,,,,,,,,,FF,,,,,,,,1.282,,,,,,,,,,,,,,,,,,,,,,610102b7f7493eff26309a1f,61036beccac522081aa98126,2021-07-29_23h03.39.730,Simcolourproject_2stim_asymm_v5,2020.2.10,MacIntel,60,61025ae37ef11b136ea224fe,,,,,,,,,3376,-56,-31,1,0,0,response5disk,,2,-15,-8,1,0,0,rectangle,-15,-8,1,0,0,-15,-8,1,0,0,0,114,114,11,1,,,,,,,,
,,,,,,,,,,,,,FF,,,,,,,,1.89,,,,,,,,,,,,,,,,,,,,,,610102b7f7493eff26309a1f,61036beccac522081aa98126,2021-07-29_23h03.39.730,Simcolourproject_2stim_asymm_v5,2020.2.10,MacIntel,60,61025ae37ef11b136ea224fe,,,,,,,,,1421,77,51,1,0,0,response1disk,,6,5,6,1,0,0,rectangle,5,6,1,0,0,5,6,1,0,0,0,115,115,84,1,,,,,,,,
,,,,,,,,,,,,,FF,,,,,,,,1.559,,,,,,,,,,,,,,,,,,,,,,610102b7f7493eff26309a1f,61036beccac522081aa98126,2021-07-29_23h03.39.730,Simcolourproject_2stim_asymm_v5,2020.2.10,MacIntel,60,61025ae37ef11b136ea224fe,,,,,,,,,3846,-63,-29,1,0,0,response5disk,,2,-1,-11,1,0,0,rectangle,-1,-11,1,0,0,-1,-11,1,0,0,0,116,116,10,1,,,,,,,,
,,,,,,,,,,,,,FF,,,,,,,,1.399,,,,,,,,,,,,,,,,,,,,,,610102b7f7493eff26309a1f,61036beccac522081aa98126,2021-07-29_23h03.39.730,Simcolourproject_2stim_asymm_v5,2020.2.10,MacIntel,60,61025ae37ef11b136ea224fe,,,,,,,,,4299,58,-66,1,0,0,response3disk,,4,20,-14,1,0,0,rectangle,20,-14,1,0,0,20,-14,1,0,0,0,117,117,103,1,,,,,,,,
,,,,,,,,,,,,,FF,,,,,,,,1.439,,,,,,,,,,,,,,,,,,,,,,610102b7f7493eff26309a1f,61036beccac522081aa98126,2021-07-29_23h03.39.730,Simcolourproject_2stim_asymm_v5,2020.2.10,MacIntel,60,61025ae37ef11b136ea224fe,,,,,,,,,2407,99,58,1,0,0,response1disk,,6,23,13,1,0,0,rectangle,23,13,1,0,0,23,13,1,0,0,0,118,118,79,1,,,,,,,,
,,,,,,,,,,,,,FF,,,,,,,,1.925,,,,,,,,,,,,,,,,,,,,,,610102b7f7493eff26309a1f,61036beccac522081aa98126,2021-07-29_23h03.39.730,Simcolourproject_2stim_asymm_v5,2020.2.10,MacIntel,60,61025ae37ef11b136ea224fe,,,,,,,,,3190,19,-73,1,0,0,response3disk,,4,10,1,1,0,0,rectangle,10,1,1,0,0,10,1,1,0,0,0,119,119,99,1,,,,,,,,
,,,,,,,,,,,,,FF,,,,,,,,1.415,,,,,,,,,,,,,,,,,,,,,,610102b7f7493eff26309a1f,61036beccac522081aa98126,2021-07-29_23h03.39.730,Simcolourproject_2stim_asymm_v5,2020.2.10,MacIntel,60,61025ae37ef11b136ea224fe,,,,,,,,,2960,32,-65,1,0,0,response3disk,,4,32,0,1,0,0,rectangle,32,0,1,0,0,32,0,1,0,0,0,120,120,126,1,,,,,,,,
,,,,,,,,,,,,,FF,,,,,,,,1.1,,,,,,,,,,,,,,,,,,,,,,610102b7f7493eff26309a1f,61036beccac522081aa98126,2021-07-29_23h03.39.730,Simcolourproject_2stim_asymm_v5,2020.2.10,MacIntel,60,61025ae37ef11b136ea224fe,,,,,,,,,2157,71,26,1,0,0,response1disk,,6,27,0,1,0,0,rectangle,27,0,1,0,0,27,0,1,0,0,0,121,121,32,1,,,,,,,,
,,,,,,,,,,,,,FF,,,,,,,,2.287,,,,,,,,,,,,,,,,,,,,,,610102b7f7493eff26309a1f,61036beccac522081aa98126,2021-07-29_23h03.39.730,Simcolourproject_2stim_asymm_v5,2020.2.10,MacIntel,60,61025ae37ef11b136ea224fe,,,,,,,,,761,80,59,1,0,0,response1disk,,6,20,10,1,0,0,rectangle,20,10,1,0,0,20,10,1,0,0,0,122,122,42,1,,,,,,,,
,,,,,,,,,,,,,FF,,,,,,,,3.4,,,,,,,,,,,,,,,,,,,,,,610102b7f7493eff26309a1f,61036beccac522081aa98126,2021-07-29_23h03.39.730,Simcolourproject_2stim_asymm_v5,2020.2.10,MacIntel,60,61025ae37ef11b136ea224fe,,,,,,,,,4075,93,92,1,0,0,response1disk,,6,34,0,1,0,0,rectangle,34,0,1,0,0,34,0,1,0,0,0,123,123,157,1,,,,,,,,
,,,,,,,,,,,,,FF,,,,,,,,1.26,,,,,,,,,,,,,,,,,,,,,,610102b7f7493eff26309a1f,61036beccac522081aa98126,2021-07-29_23h03.39.730,Simcolourproject_2stim_asymm_v5,2020.2.10,MacIntel,60,61025ae37ef11b136ea224fe,,,,,,,,,320,56,66,1,0,0,response1disk,,7,17,14,1,0,0,rectangle,17,14,1,0,0,17,14,1,0,0,0,124,124,100,1,,,,,,,,
,,,,,,,,,,,,,FF,,,,,,,,1.1,,,,,,,,,,,,,,,,,,,,,,610102b7f7493eff26309a1f,61036beccac522081aa98126,2021-07-29_23h03.39.730,Simcolourproject_2stim_asymm_v5,2020.2.10,MacIntel,60,61025ae37ef11b136ea224fe,,,,,,,,,2947,-73,-46,1,0,0,response5disk,,2,-22,-5,1,0,0,rectangle,-22,-5,1,0,0,-22,-5,1,0,0,0,125,125,119,1,,,,,,,,
,,,,,,,,,,,,,FF,,,,,,,,0.961,,,,,,,,,,,,,,,,,,,,,,610102b7f7493eff26309a1f,61036beccac522081aa98126,2021-07-29_23h03.39.730,Simcolourproject_2stim_asymm_v5,2020.2.10,MacIntel,60,61025ae37ef11b136ea224fe,,,,,,,,,4071,-33,64,1,0,0,response7disk,,0,-13,11,1,0,0,rectangle,-13,11,1,0,0,-13,11,1,0,0,0,126,126,21,1,,,,,,,,
,,,,,,,,,,,,,FF,,,,,,,,2.41,,,,,,,,,,,,,,,,,,,,,,610102b7f7493eff26309a1f,61036beccac522081aa98126,2021-07-29_23h03.39.730,Simcolourproject_2stim_asymm_v5,2020.2.10,MacIntel,60,61025ae37ef11b136ea224fe,,,,,,,,,1723,78,52,1,0,0,response1disk,,6,22,8,1,0,0,rectangle,22,8,1,0,0,22,8,1,0,0,0,127,127,89,1,,,,,,,,
,,,,,,,,,,,,,FF,,,,,,,,0.993,,,,,,,,,,,,,,,,,,,,,,610102b7f7493eff26309a1f,61036beccac522081aa98126,2021-07-29_23h03.39.730,Simcolourproject_2stim_asymm_v5,2020.2.10,MacIntel,60,61025ae37ef11b136ea224fe,,,,,,,,,1400,40,53,1,0,0,response1disk,,7,11,9,1,0,0,rectangle,11,9,1,0,0,11,9,1,0,0,0,128,128,47,1,,,,,,,,
,,,,,,,,,,,,,FF,,,,,,,,0.947,,,,,,,,,,,,,,,,,,,,,,610102b7f7493eff26309a1f,61036beccac522081aa98126,2021-07-29_23h03.39.730,Simcolourproject_2stim_asymm_v5,2020.2.10,MacIntel,60,61025ae37ef11b136ea224fe,,,,,,,,,892,-45,-65,1,0,0,response5disk,,3,-7,-5,1,0,0,rectangle,-7,-5,1,0,0,-7,-5,1,0,0,0,129,129,27,1,,,,,,,,
,,,,,,,,,,,,,FF,,,,,,,,0.832,,,,,,,,,,,,,,,,,,,,,,610102b7f7493eff26309a1f,61036beccac522081aa98126,2021-07-29_23h03.39.730,Simcolourproject_2stim_asymm_v5,2020.2.10,MacIntel,60,61025ae37ef11b136ea224fe,,,,,,,,,1130,51,49,1,0,0,response1disk,,6,27,-1,1,0,0,rectangle,27,-1,1,0,0,27,-1,1,0,0,0,130,130,85,1,,,,,,,,
,,,,,,,,,,,,,FF,,,,,,,,0.766,,,,,,,,,,,,,,,,,,,,,,610102b7f7493eff26309a1f,61036beccac522081aa98126,2021-07-29_23h03.39.730,Simcolourproject_2stim_asymm_v5,2020.2.10,MacIntel,60,61025ae37ef11b136ea224fe,,,,,,,,,3458,42,53,1,0,0,response1disk,,7,26,17,1,0,0,rectangle,26,17,1,0,0,26,17,1,0,0,0,131,131,52,1,,,,,,,,
,,,,,,,,,,,,,FF,,,,,,,,0.761,,,,,,,,,,,,,,,,,,,,,,610102b7f7493eff26309a1f,61036beccac522081aa98126,2021-07-29_23h03.39.730,Simcolourproject_2stim_asymm_v5,2020.2.10,MacIntel,60,61025ae37ef11b136ea224fe,,,,,,,,,3957,39,76,1,0,0,response1disk,,7,15,9,1,0,0,rectangle,15,9,1,0,0,15,9,1,0,0,0,132,132,61,1,,,,,,,,
,,,,,,,,,,,,,FF,,,,,,,,1.27,,,,,,,,,,,,,,,,,,,,,,610102b7f7493eff26309a1f,61036beccac522081aa98126,2021-07-29_23h03.39.730,Simcolourproject_2stim_asymm_v5,2020.2.10,MacIntel,60,61025ae37ef11b136ea224fe,,,,,,,,,3626,41,-48,1,0,0,response3disk,,4,7,-5,1,0,0,rectangle,7,-5,1,0,0,7,-5,1,0,0,0,133,133,49,1,,,,,,,,
,,,,,,,,,,,,,FF,,,,,,,,1.431,,,,,,,,,,,,,,,,,,,,,,610102b7f7493eff26309a1f,61036beccac522081aa98126,2021-07-29_23h03.39.730,Simcolourproject_2stim_asymm_v5,2020.2.10,MacIntel,60,61025ae37ef11b136ea224fe,,,,,,,,,765,64,32,1,0,0,response1disk,,6,27,4,1,0,0,rectangle,27,4,1,0,0,27,4,1,0,0,0,134,134,152,1,,,,,,,,
,,,,,,,,,,,,,FF,,,,,,,,1.517,,,,,,,,,,,,,,,,,,,,,,610102b7f7493eff26309a1f,61036beccac522081aa98126,2021-07-29_23h03.39.730,Simcolourproject_2stim_asymm_v5,2020.2.10,MacIntel,60,61025ae37ef11b136ea224fe,,,,,,,,,2784,-38,-60,1,0,0,response5disk,,3,-19,-9,1,0,0,rectangle,-19,-9,1,0,0,-19,-9,1,0,0,0,135,135,59,1,,,,,,,,
,,,,,,,,,,,,,FF,,,,,,,,0.96,,,,,,,,,,,,,,,,,,,,,,610102b7f7493eff26309a1f,61036beccac522081aa98126,2021-07-29_23h03.39.730,Simcolourproject_2stim_asymm_v5,2020.2.10,MacIntel,60,61025ae37ef11b136ea224fe,,,,,,,,,2571,37,21,1,0,0,response1disk,,6,8,-9,1,0,0,rectangle,8,-9,1,0,0,8,-9,1,0,0,0,136,136,154,1,,,,,,,,
,,,,,,,,,,,,,FF,,,,,,,,0.901,,,,,,,,,,,,,,,,,,,,,,610102b7f7493eff26309a1f,61036beccac522081aa98126,2021-07-29_23h03.39.730,Simcolourproject_2stim_asymm_v5,2020.2.10,MacIntel,60,61025ae37ef11b136ea224fe,,,,,,,,,3779,46,37,1,0,0,response1disk,,6,10,-9,1,0,0,rectangle,10,-9,1,0,0,10,-9,1,0,0,0,137,137,68,1,,,,,,,,
,,,,,,,,,,,,,FF,,,,,,,,1.665,,,,,,,,,,,,,,,,,,,,,,610102b7f7493eff26309a1f,61036beccac522081aa98126,2021-07-29_23h03.39.730,Simcolourproject_2stim_asymm_v5,2020.2.10,MacIntel,60,61025ae37ef11b136ea224fe,,,,,,,,,1666,42,50,1,0,0,response1disk,,7,31,4,1,0,0,rectangle,31,4,1,0,0,31,4,1,0,0,0,138,138,132,1,,,,,,,,
,,,,,,,,,,,,,FF,,,,,,,,1.203,,,,,,,,,,,,,,,,,,,,,,610102b7f7493eff26309a1f,61036beccac522081aa98126,2021-07-29_23h03.39.730,Simcolourproject_2stim_asymm_v5,2020.2.10,MacIntel,60,61025ae37ef11b136ea224fe,,,,,,,,,296,55,37,1,0,0,response1disk,,6,3,-1,1,0,0,rectangle,3,-1,1,0,0,3,-1,1,0,0,0,139,139,137,1,,,,,,,,
,,,,,,,,,,,,,FF,,,,,,,,1.625,,,,,,,,,,,,,,,,,,,,,,610102b7f7493eff26309a1f,61036beccac522081aa98126,2021-07-29_23h03.39.730,Simcolourproject_2stim_asymm_v5,2020.2.10,MacIntel,60,61025ae37ef11b136ea224fe,,,,,,,,,165,-34,-80,1,0,0,response5disk,,3,12,5,1,0,0,rectangle,12,5,1,0,0,12,5,1,0,0,0,140,140,141,1,,,,,,,,
,,,,,,,,,,,,,FF,,,,,,,,0.98,,,,,,,,,,,,,,,,,,,,,,610102b7f7493eff26309a1f,61036beccac522081aa98126,2021-07-29_23h03.39.730,Simcolourproject_2stim_asymm_v5,2020.2.10,MacIntel,60,61025ae37ef11b136ea224fe,,,,,,,,,130,28,-48,1,0,0,response3disk,,4,23,-12,1,0,0,rectangle,23,-12,1,0,0,23,-12,1,0,0,0,141,141,15,1,,,,,,,,
,,,,,,,,,,,,,FF,,,,,,,,1.867,,,,,,,,,,,,,,,,,,,,,,610102b7f7493eff26309a1f,61036beccac522081aa98126,2021-07-29_23h03.39.730,Simcolourproject_2stim_asymm_v5,2020.2.10,MacIntel,60,61025ae37ef11b136ea224fe,,,,,,,,,376,28,-55,1,0,0,response3disk,,4,19,-11,1,0,0,rectangle,19,-11,1,0,0,19,-11,1,0,0,0,142,142,123,1,,,,,,,,
,,,,,,,,,,,,,FF,,,,,,,,2.854,,,,,,,,,,,,,,,,,,,,,,610102b7f7493eff26309a1f,61036beccac522081aa98126,2021-07-29_23h03.39.730,Simcolourproject_2stim_asymm_v5,2020.2.10,MacIntel,60,61025ae37ef11b136ea224fe,,,,,,,,,3751,-18,-66,1,0,0,response5disk,,3,-3,-13,1,0,0,rectangle,-3,-13,1,0,0,-3,-13,1,0,0,0,143,143,40,1,,,,,,,,
,,,,,,,,,,,,,FF,,,,,,,,2.347,,,,,,,,,,,,,,,,,,,,,,610102b7f7493eff26309a1f,61036beccac522081aa98126,2021-07-29_23h03.39.730,Simcolourproject_2stim_asymm_v5,2020.2.10,MacIntel,60,61025ae37ef11b136ea224fe,,,,,,,,,1001,60,24,1,0,0,response1disk,,6,16,-1,1,0,0,rectangle,16,-1,1,0,0,16,-1,1,0,0,0,144,144,25,1,,,,,,,,
,,,,,,,,,,,,,FF,,,,,,,,1.849,,,,,,,,,,,,,,,,,,,,,,610102b7f7493eff26309a1f,61036beccac522081aa98126,2021-07-29_23h03.39.730,Simcolourproject_2stim_asymm_v5,2020.2.10,MacIntel,60,61025ae37ef11b136ea224fe,,,,,,,,,281,80,37,1,0,0,response1disk,,6,12,6,1,0,0,rectangle,12,6,1,0,0,12,6,1,0,0,0,145,145,36,1,,,,,,,,
,,,,,,,,,,,,,FF,,,,,,,,1.028,,,,,,,,,,,,,,,,,,,,,,610102b7f7493eff26309a1f,61036beccac522081aa98126,2021-07-29_23h03.39.730,Simcolourproject_2stim_asymm_v5,2020.2.10,MacIntel,60,61025ae37ef11b136ea224fe,,,,,,,,,1337,52,71,1,0,0,response1disk,,7,21,6,1,0,0,rectangle,21,6,1,0,0,21,6,1,0,0,0,146,146,96,1,,,,,,,,
,,,,,,,,,,,,,FF,,,,,,,,1.432,,,,,,,,,,,,,,,,,,,,,,610102b7f7493eff26309a1f,61036beccac522081aa98126,2021-07-29_23h03.39.730,Simcolourproject_2stim_asymm_v5,2020.2.10,MacIntel,60,61025ae37ef11b136ea224fe,,,,,,,,,1602,-67,-81,1,0,0,response5disk,,3,-13,-1,1,0,0,rectangle,-13,-1,1,0,0,-13,-1,1,0,0,0,147,147,26,1,,,,,,,,
,,,,,,,,,,,,,FF,,,,,,,,2.272,,,,,,,,,,,,,,,,,,,,,,610102b7f7493eff26309a1f,61036beccac522081aa98126,2021-07-29_23h03.39.730,Simcolourproject_2stim_asymm_v5,2020.2.10,MacIntel,60,61025ae37ef11b136ea224fe,,,,,,,,,2724,-71,-44,1,0,0,response5disk,,2,-26,7,1,0,0,rectangle,-26,7,1,0,0,-26,7,1,0,0,0,148,148,129,1,,,,,,,,
,,,,,,,,,,,,,FF,,,,,,,,0.966,,,,,,,,,,,,,,,,,,,,,,610102b7f7493eff26309a1f,61036beccac522081aa98126,2021-07-29_23h03.39.730,Simcolourproject_2stim_asymm_v5,2020.2.10,MacIntel,60,61025ae37ef11b136ea224fe,,,,,,,,,322,37,52,1,0,0,response1disk,,7,2,10,1,0,0,rectangle,2,10,1,0,0,2,10,1,0,0,0,149,149,72,1,,,,,,,,
,,,,,,,,,,,,,FF,,,,,,,,0.926,,,,,,,,,,,,,,,,,,,,,,610102b7f7493eff26309a1f,61036beccac522081aa98126,2021-07-29_23h03.39.730,Simcolourproject_2stim_asymm_v5,2020.2.10,MacIntel,60,61025ae37ef11b136ea224fe,,,,,,,,,3221,44,64,1,0,0,response1disk,,7,15,13,1,0,0,rectangle,15,13,1,0,0,15,13,1,0,0,0,150,150,122,1,,,,,,,,
,,,,,,,,,,,,,FF,,,,,,,,2.597,,,,,,,,,,,,,,,,,,,,,,610102b7f7493eff26309a1f,61036beccac522081aa98126,2021-07-29_23h03.39.730,Simcolourproject_2stim_asymm_v5,2020.2.10,MacIntel,60,61025ae37ef11b136ea224fe,,,,,,,,,3786,69,35,1,0,0,response1disk,,6,24,13,1,0,0,rectangle,24,13,1,0,0,24,13,1,0,0,0,151,151,1,1,,,,,,,,
,,,,,,,,,,,,,FF,,,,,,,,0.782,,,,,,,,,,,,,,,,,,,,,,610102b7f7493eff26309a1f,61036beccac522081aa98126,2021-07-29_23h03.39.730,Simcolourproject_2stim_asymm_v5,2020.2.10,MacIntel,60,61025ae37ef11b136ea224fe,,,,,,,,,337,38,62,1,0,0,response1disk,,7,9,4,1,0,0,rectangle,9,4,1,0,0,9,4,1,0,0,0,152,152,5,1,,,,,,,,
,,,,,,,,,,,,,FF,,,,,,,,2.332,,,,,,,,,,,,,,,,,,,,,,610102b7f7493eff26309a1f,61036beccac522081aa98126,2021-07-29_23h03.39.730,Simcolourproject_2stim_asymm_v5,2020.2.10,MacIntel,60,61025ae37ef11b136ea224fe,,,,,,,,,4078,41,-65,1,0,0,response3disk,,4,15,-10,1,0,0,rectangle,15,-10,1,0,0,15,-10,1,0,0,0,153,153,53,1,,,,,,,,
,,,,,,,,,,,,,FF,,,,,,,,1.431,,,,,,,,,,,,,,,,,,,,,,610102b7f7493eff26309a1f,61036beccac522081aa98126,2021-07-29_23h03.39.730,Simcolourproject_2stim_asymm_v5,2020.2.10,MacIntel,60,61025ae37ef11b136ea224fe,,,,,,,,,1431,-49,-65,1,0,0,response5disk,,3,-11,-7,1,0,0,rectangle,-11,-7,1,0,0,-11,-7,1,0,0,0,154,154,0,1,,,,,,,,
,,,,,,,,,,,,,FF,,,,,,,,1.083,,,,,,,,,,,,,,,,,,,,,,610102b7f7493eff26309a1f,61036beccac522081aa98126,2021-07-29_23h03.39.730,Simcolourproject_2stim_asymm_v5,2020.2.10,MacIntel,60,61025ae37ef11b136ea224fe,,,,,,,,,3992,65,30,1,0,0,response1disk,,6,12,-13,1,0,0,rectangle,12,-13,1,0,0,12,-13,1,0,0,0,155,155,105,1,,,,,,,,
,,,,,,,,,,,,,FF,,,,,,,,2.193,,,,,,,,,,,,,,,,,,,,,,610102b7f7493eff26309a1f,61036beccac522081aa98126,2021-07-29_23h03.39.730,Simcolourproject_2stim_asymm_v5,2020.2.10,MacIntel,60,61025ae37ef11b136ea224fe,,,,,,,,,2674,43,-60,1,0,0,response3disk,,4,28,-5,1,0,0,rectangle,28,-5,1,0,0,28,-5,1,0,0,0,156,156,13,1,,,,,,,,
,,,,,,,,,,,,,FF,,,,,,,,1.472,,,,,,,,,,,,,,,,,,,,,,610102b7f7493eff26309a1f,61036beccac522081aa98126,2021-07-29_23h03.39.730,Simcolourproject_2stim_asymm_v5,2020.2.10,MacIntel,60,61025ae37ef11b136ea224fe,,,,,,,,,1070,-64,-51,1,0,0,response5disk,,2,7,2,1,0,0,rectangle,7,2,1,0,0,7,2,1,0,0,0,157,157,125,1,,,,,,,,
,,,,,,,,,,,,,FF,,,,,,,,1.95,,,,,,,,,,,,,,,,,,,,,,610102b7f7493eff26309a1f,61036beccac522081aa98126,2021-07-29_23h03.39.730,Simcolourproject_2stim_asymm_v5,2020.2.10,MacIntel,60,61025ae37ef11b136ea224fe,,,,,,,,,3516,-80,-42,1,0,0,response5disk,,2,-7,0,1,0,0,rectangle,-7,0,1,0,0,-7,0,1,0,0,0,158,158,54,1,,,,,,,,
,,,,,,,,,,,,,FF,,,,,,,,1.324,,,,,,,,,,,,,,,,,,,,,,610102b7f7493eff26309a1f,61036beccac522081aa98126,2021-07-29_23h03.39.730,Simcolourproject_2stim_asymm_v5,2020.2.10,MacIntel,60,61025ae37ef11b136ea224fe,,,,,,,,,1736,32,-54,1,0,0,response3disk,,4,29,-2,1,0,0,rectangle,93,-33,1,0,0,31,-6,1,0,0,0,159,159,118,1,,response3disk_3,TRUE,5,5,"[282,96,260,165,220,179,255,38,34,88,287,85,222,100,170,248,219,304,107,160]",1.874,rectangle
,,,,,,,,,,,,,FF,,,,,,,,2.719,,,,,,,,,,,,,,,,,,,,,,610102b7f7493eff26309a1f,61036beccac522081aa98126,2021-07-29_23h03.39.730,Simcolourproject_2stim_asymm_v5,2020.2.10,MacIntel,60,61025ae37ef11b136ea224fe,,,,,,,,,2523,68,40,1,0,0,response1disk,,6,21,10,1,0,0,rectangle,21,10,1,0,0,21,10,1,0,0,1,0,160,152,1,,,,,,,,
,,,,,,,,,,,,,FF,,,,,,,,1.017,,,,,,,,,,,,,,,,,,,,,,610102b7f7493eff26309a1f,61036beccac522081aa98126,2021-07-29_23h03.39.730,Simcolourproject_2stim_asymm_v5,2020.2.10,MacIntel,60,61025ae37ef11b136ea224fe,,,,,,,,,1682,-55,-39,1,0,0,response5disk,,2,-19,10,1,0,0,rectangle,-19,10,1,0,0,-19,10,1,0,0,1,1,161,66,1,,,,,,,,
,,,,,,,,,,,,,FF,,,,,,,,1.049,,,,,,,,,,,,,,,,,,,,,,610102b7f7493eff26309a1f,61036beccac522081aa98126,2021-07-29_23h03.39.730,Simcolourproject_2stim_asymm_v5,2020.2.10,MacIntel,60,61025ae37ef11b136ea224fe,,,,,,,,,4352,-64,22,1,0,0,response7disk,,1,-10,9,1,0,0,rectangle,-10,9,1,0,0,-10,9,1,0,0,1,2,162,79,1,,,,,,,,
,,,,,,,,,,,,,FF,,,,,,,,1.484,,,,,,,,,,,,,,,,,,,,,,610102b7f7493eff26309a1f,61036beccac522081aa98126,2021-07-29_23h03.39.730,Simcolourproject_2stim_asymm_v5,2020.2.10,MacIntel,60,61025ae37ef11b136ea224fe,,,,,,,,,138,62,44,1,0,0,response1disk,,6,12,17,1,0,0,rectangle,12,17,1,0,0,12,17,1,0,0,1,3,163,127,1,,,,,,,,
,,,,,,,,,,,,,FF,,,,,,,,3.13,,,,,,,,,,,,,,,,,,,,,,610102b7f7493eff26309a1f,61036beccac522081aa98126,2021-07-29_23h03.39.730,Simcolourproject_2stim_asymm_v5,2020.2.10,MacIntel,60,61025ae37ef11b136ea224fe,,,,,,,,,2973,27,-60,1,0,0,response3disk,,4,8,-5,1,0,0,rectangle,-82,-43,1,0,0,-1,7,1,0,0,1,4,164,108,1,,response5disk_3,TRUE,2,2,"[282,96,260,165,220,179,255,38,34,88,287,85,222,100,170,248,219,304,107,160]",1.689,rectangle
,,,,,,,,,,,,,FF,,,,,,,,1.446,,,,,,,,,,,,,,,,,,,,,,610102b7f7493eff26309a1f,61036beccac522081aa98126,2021-07-29_23h03.39.730,Simcolourproject_2stim_asymm_v5,2020.2.10,MacIntel,60,61025ae37ef11b136ea224fe,,,,,,,,,3453,43,31,1,0,0,response1disk,,6,-1,-8,1,0,0,rectangle,-1,-8,1,0,0,-1,-8,1,0,0,1,5,165,29,1,,,,,,,,
,,,,,,,,,,,,,FF,,,,,,,,1.59,,,,,,,,,,,,,,,,,,,,,,610102b7f7493eff26309a1f,61036beccac522081aa98126,2021-07-29_23h03.39.730,Simcolourproject_2stim_asymm_v5,2020.2.10,MacIntel,60,61025ae37ef11b136ea224fe,,,,,,,,,2306,-27,-74,1,0,0,response5disk,,3,-4,-2,1,0,0,rectangle,-4,-2,1,0,0,-4,-2,1,0,0,1,6,166,27,1,,,,,,,,
,,,,,,,,,,,,,FF,,,,,,,,1.824,,,,,,,,,,,,,,,,,,,,,,610102b7f7493eff26309a1f,61036beccac522081aa98126,2021-07-29_23h03.39.730,Simcolourproject_2stim_asymm_v5,2020.2.10,MacIntel,60,61025ae37ef11b136ea224fe,,,,,,,,,4253,-40,-38,1,0,0,response5disk,,2,-11,-4,1,0,0,rectangle,-11,-4,1,0,0,-11,-4,1,0,0,1,7,167,155,1,,,,,,,,
,,,,,,,,,,,,,FF,,,,,,,,1.96,,,,,,,,,,,,,,,,,,,,,,610102b7f7493eff26309a1f,61036beccac522081aa98126,2021-07-29_23h03.39.730,Simcolourproject_2stim_asymm_v5,2020.2.10,MacIntel,60,61025ae37ef11b136ea224fe,,,,,,,,,1159,29,-62,1,0,0,response3disk,,4,25,-2,1,0,0,rectangle,25,-2,1,0,0,25,-2,1,0,0,1,8,168,16,1,,,,,,,,
,,,,,,,,,,,,,FF,,,,,,,,1.915,,,,,,,,,,,,,,,,,,,,,,610102b7f7493eff26309a1f,61036beccac522081aa98126,2021-07-29_23h03.39.730,Simcolourproject_2stim_asymm_v5,2020.2.10,MacIntel,60,61025ae37ef11b136ea224fe,,,,,,,,,4240,65,-27,1,0,0,response3disk,,5,8,-3,1,0,0,rectangle,90,-43,1,0,0,-20,-4,1,0,0,1,9,169,96,1,,response3disk_3,TRUE,5,5,"[282,96,260,165,220,179,255,38,34,88,287,85,222,100,170,248,219,304,107,160]",3.254,rectangle
,,,,,,,,,,,,,FF,,,,,,,,0.99,,,,,,,,,,,,,,,,,,,,,,610102b7f7493eff26309a1f,61036beccac522081aa98126,2021-07-29_23h03.39.730,Simcolourproject_2stim_asymm_v5,2020.2.10,MacIntel,60,61025ae37ef11b136ea224fe,,,,,,,,,1816,-52,-46,1,0,0,response5disk,,2,6,0,1,0,0,rectangle,6,0,1,0,0,6,0,1,0,0,1,10,170,34,1,,,,,,,,
,,,,,,,,,,,,,FF,,,,,,,,1.047,,,,,,,,,,,,,,,,,,,,,,610102b7f7493eff26309a1f,61036beccac522081aa98126,2021-07-29_23h03.39.730,Simcolourproject_2stim_asymm_v5,2020.2.10,MacIntel,60,61025ae37ef11b136ea224fe,,,,,,,,,278,-74,-17,1,0,0,response5disk,,2,-7,15,1,0,0,rectangle,-7,15,1,0,0,-7,15,1,0,0,1,11,171,49,1,,,,,,,,
,,,,,,,,,,,,,FF,,,,,,,,0.915,,,,,,,,,,,,,,,,,,,,,,610102b7f7493eff26309a1f,61036beccac522081aa98126,2021-07-29_23h03.39.730,Simcolourproject_2stim_asymm_v5,2020.2.10,MacIntel,60,61025ae37ef11b136ea224fe,,,,,,,,,3451,72,37,1,0,0,response1disk,,6,15,-3,1,0,0,rectangle,15,-3,1,0,0,15,-3,1,0,0,1,12,172,144,1,,,,,,,,
,,,,,,,,,,,,,FF,,,,,,,,1.516,,,,,,,,,,,,,,,,,,,,,,610102b7f7493eff26309a1f,61036beccac522081aa98126,2021-07-29_23h03.39.730,Simcolourproject_2stim_asymm_v5,2020.2.10,MacIntel,60,61025ae37ef11b136ea224fe,,,,,,,,,3460,41,54,1,0,0,response1disk,,7,18,0,1,0,0,rectangle,18,0,1,0,0,18,0,1,0,0,1,13,173,26,1,,,,,,,,
,,,,,,,,,,,,,FF,,,,,,,,0.94,,,,,,,,,,,,,,,,,,,,,,610102b7f7493eff26309a1f,61036beccac522081aa98126,2021-07-29_23h03.39.730,Simcolourproject_2stim_asymm_v5,2020.2.10,MacIntel,60,61025ae37ef11b136ea224fe,,,,,,,,,2831,-60,28,1,0,0,response7disk,,1,-21,7,1,0,0,rectangle,-21,7,1,0,0,-21,7,1,0,0,1,14,174,142,1,,,,,,,,
,,,,,,,,,,,,,FF,,,,,,,,1.044,,,,,,,,,,,,,,,,,,,,,,610102b7f7493eff26309a1f,61036beccac522081aa98126,2021-07-29_23h03.39.730,Simcolourproject_2stim_asymm_v5,2020.2.10,MacIntel,60,61025ae37ef11b136ea224fe,,,,,,,,,162,-49,-31,1,0,0,response5disk,,2,11,7,1,0,0,rectangle,11,7,1,0,0,11,7,1,0,0,1,15,175,53,1,,,,,,,,
,,,,,,,,,,,,,FF,,,,,,,,2.06,,,,,,,,,,,,,,,,,,,,,,610102b7f7493eff26309a1f,61036beccac522081aa98126,2021-07-29_23h03.39.730,Simcolourproject_2stim_asymm_v5,2020.2.10,MacIntel,60,61025ae37ef11b136ea224fe,,,,,,,,,1242,50,70,1,0,0,response1disk,,7,34,16,1,0,0,rectangle,34,16,1,0,0,34,16,1,0,0,1,16,176,36,1,,,,,,,,
,,,,,,,,,,,,,FF,,,,,,,,0.875,,,,,,,,,,,,,,,,,,,,,,610102b7f7493eff26309a1f,61036beccac522081aa98126,2021-07-29_23h03.39.730,Simcolourproject_2stim_asymm_v5,2020.2.10,MacIntel,60,61025ae37ef11b136ea224fe,,,,,,,,,4305,-63,-31,1,0,0,response5disk,,2,-10,3,1,0,0,rectangle,-10,3,1,0,0,-10,3,1,0,0,1,17,177,149,1,,,,,,,,
,,,,,,,,,,,,,FF,,,,,,,,1.081,,,,,,,,,,,,,,,,,,,,,,610102b7f7493eff26309a1f,61036beccac522081aa98126,2021-07-29_23h03.39.730,Simcolourproject_2stim_asymm_v5,2020.2.10,MacIntel,60,61025ae37ef11b136ea224fe,,,,,,,,,2788,88,-37,1,0,0,response3disk,,5,19,-7,1,0,0,rectangle,118,61,1,0,0,10,1,1,0,0,1,18,178,69,1,,response1disk_3,TRUE,6,6,"[282,96,260,165,220,179,255,38,34,88,287,85,222,100,170,248,219,304,107,160]",1.781,rectangle
,,,,,,,,,,,,,FF,,,,,,,,2.165,,,,,,,,,,,,,,,,,,,,,,610102b7f7493eff26309a1f,61036beccac522081aa98126,2021-07-29_23h03.39.730,Simcolourproject_2stim_asymm_v5,2020.2.10,MacIntel,60,61025ae37ef11b136ea224fe,,,,,,,,,414,42,57,1,0,0,response1disk,,7,10,5,1,0,0,rectangle,10,5,1,0,0,10,5,1,0,0,1,19,179,17,1,,,,,,,,
,,,,,,,,,,,,,FF,,,,,,,,1.459,,,,,,,,,,,,,,,,,,,,,,610102b7f7493eff26309a1f,61036beccac522081aa98126,2021-07-29_23h03.39.730,Simcolourproject_2stim_asymm_v5,2020.2.10,MacIntel,60,61025ae37ef11b136ea224fe,,,,,,,,,3478,43,-55,1,0,0,response3disk,,4,24,0,1,0,0,rectangle,24,0,1,0,0,24,0,1,0,0,1,20,180,77,1,,,,,,,,
,,,,,,,,,,,,,FF,,,,,,,,1.12,,,,,,,,,,,,,,,,,,,,,,610102b7f7493eff26309a1f,61036beccac522081aa98126,2021-07-29_23h03.39.730,Simcolourproject_2stim_asymm_v5,2020.2.10,MacIntel,60,61025ae37ef11b136ea224fe,,,,,,,,,4220,78,-28,1,0,0,response3disk,,5,29,6,1,0,0,rectangle,29,6,1,0,0,29,6,1,0,0,1,21,181,129,1,,,,,,,,
,,,,,,,,,,,,,FF,,,,,,,,1.649,,,,,,,,,,,,,,,,,,,,,,610102b7f7493eff26309a1f,61036beccac522081aa98126,2021-07-29_23h03.39.730,Simcolourproject_2stim_asymm_v5,2020.2.10,MacIntel,60,61025ae37ef11b136ea224fe,,,,,,,,,2601,-72,21,1,0,0,response7disk,,1,20,2,1,0,0,rectangle,20,2,1,0,0,20,2,1,0,0,1,22,182,93,1,,,,,,,,
,,,,,,,,,,,,,FF,,,,,,,,2.716,,,,,,,,,,,,,,,,,,,,,,610102b7f7493eff26309a1f,61036beccac522081aa98126,2021-07-29_23h03.39.730,Simcolourproject_2stim_asymm_v5,2020.2.10,MacIntel,60,61025ae37ef11b136ea224fe,,,,,,,,,2874,22,-73,1,0,0,response3disk,,4,31,-4,1,0,0,rectangle,31,-4,1,0,0,31,-4,1,0,0,1,23,183,140,1,,,,,,,,
,,,,,,,,,,,,,FF,,,,,,,,0.947,,,,,,,,,,,,,,,,,,,,,,610102b7f7493eff26309a1f,61036beccac522081aa98126,2021-07-29_23h03.39.730,Simcolourproject_2stim_asymm_v5,2020.2.10,MacIntel,60,61025ae37ef11b136ea224fe,,,,,,,,,2127,70,42,1,0,0,response1disk,,6,-20,-5,1,0,0,rectangle,-20,-5,1,0,0,-20,-5,1,0,0,1,24,184,50,1,,,,,,,,
,,,,,,,,,,,,,FF,,,,,,,,1.371,,,,,,,,,,,,,,,,,,,,,,610102b7f7493eff26309a1f,61036beccac522081aa98126,2021-07-29_23h03.39.730,Simcolourproject_2stim_asymm_v5,2020.2.10,MacIntel,60,61025ae37ef11b136ea224fe,,,,,,,,,167,73,-41,1,0,0,response3disk,,5,19,-4,1,0,0,rectangle,19,-4,1,0,0,19,-4,1,0,0,1,25,185,104,1,,,,,,,,
,,,,,,,,,,,,,FF,,,,,,,,1.79,,,,,,,,,,,,,,,,,,,,,,610102b7f7493eff26309a1f,61036beccac522081aa98126,2021-07-29_23h03.39.730,Simcolourproject_2stim_asymm_v5,2020.2.10,MacIntel,60,61025ae37ef11b136ea224fe,,,,,,,,,1364,-40,-72,1,0,0,response5disk,,3,-4,-10,1,0,0,rectangle,-4,-10,1,0,0,-4,-10,1,0,0,1,26,186,59,1,,,,,,,,
,,,,,,,,,,,,,FF,,,,,,,,1.766,,,,,,,,,,,,,,,,,,,,,,610102b7f7493eff26309a1f,61036beccac522081aa98126,2021-07-29_23h03.39.730,Simcolourproject_2stim_asymm_v5,2020.2.10,MacIntel,60,61025ae37ef11b136ea224fe,,,,,,,,,2372,59,-40,1,0,0,response3disk,,5,24,-12,1,0,0,rectangle,24,-12,1,0,0,24,-12,1,0,0,1,27,187,99,1,,,,,,,,
,,,,,,,,,,,,,FF,,,,,,,,1.987,,,,,,,,,,,,,,,,,,,,,,610102b7f7493eff26309a1f,61036beccac522081aa98126,2021-07-29_23h03.39.730,Simcolourproject_2stim_asymm_v5,2020.2.10,MacIntel,60,61025ae37ef11b136ea224fe,,,,,,,,,1374,111,60,1,0,0,response1disk,,6,1,-2,1,0,0,rectangle,1,-2,1,0,0,1,-2,1,0,0,1,28,188,2,1,,,,,,,,
,,,,,,,,,,,,,FF,,,,,,,,1.979,,,,,,,,,,,,,,,,,,,,,,610102b7f7493eff26309a1f,61036beccac522081aa98126,2021-07-29_23h03.39.730,Simcolourproject_2stim_asymm_v5,2020.2.10,MacIntel,60,61025ae37ef11b136ea224fe,,,,,,,,,3180,-45,-88,1,0,0,response5disk,,3,-10,-10,1,0,0,rectangle,-10,-10,1,0,0,-10,-10,1,0,0,1,29,189,102,1,,,,,,,,
,,,,,,,,,,,,,FF,,,,,,,,0.844,,,,,,,,,,,,,,,,,,,,,,610102b7f7493eff26309a1f,61036beccac522081aa98126,2021-07-29_23h03.39.730,Simcolourproject_2stim_asymm_v5,2020.2.10,MacIntel,60,61025ae37ef11b136ea224fe,,,,,,,,,3371,84,89,1,0,0,response1disk,,7,15,-7,1,0,0,rectangle,15,-7,1,0,0,15,-7,1,0,0,1,30,190,123,1,,,,,,,,
,,,,,,,,,,,,,FF,,,,,,,,1.413,,,,,,,,,,,,,,,,,,,,,,610102b7f7493eff26309a1f,61036beccac522081aa98126,2021-07-29_23h03.39.730,Simcolourproject_2stim_asymm_v5,2020.2.10,MacIntel,60,61025ae37ef11b136ea224fe,,,,,,,,,3631,34,59,1,0,0,response1disk,,7,8,6,1,0,0,rectangle,8,6,1,0,0,8,6,1,0,0,1,31,191,24,1,,,,,,,,
,,,,,,,,,,,,,FF,,,,,,,,0.714,,,,,,,,,,,,,,,,,,,,,,610102b7f7493eff26309a1f,61036beccac522081aa98126,2021-07-29_23h03.39.730,Simcolourproject_2stim_asymm_v5,2020.2.10,MacIntel,60,61025ae37ef11b136ea224fe,,,,,,,,,2600,53,87,1,0,0,response1disk,,7,8,1,1,0,0,rectangle,8,1,1,0,0,8,1,1,0,0,1,32,192,11,1,,,,,,,,
,,,,,,,,,,,,,FF,,,,,,,,0.739,,,,,,,,,,,,,,,,,,,,,,610102b7f7493eff26309a1f,61036beccac522081aa98126,2021-07-29_23h03.39.730,Simcolourproject_2stim_asymm_v5,2020.2.10,MacIntel,60,61025ae37ef11b136ea224fe,,,,,,,,,365,43,73,1,0,0,response1disk,,7,8,8,1,0,0,rectangle,8,8,1,0,0,8,8,1,0,0,1,33,193,110,1,,,,,,,,
,,,,,,,,,,,,,FF,,,,,,,,2.115,,,,,,,,,,,,,,,,,,,,,,610102b7f7493eff26309a1f,61036beccac522081aa98126,2021-07-29_23h03.39.730,Simcolourproject_2stim_asymm_v5,2020.2.10,MacIntel,60,61025ae37ef11b136ea224fe,,,,,,,,,1432,47,56,1,0,0,response1disk,,7,10,9,1,0,0,rectangle,10,9,1,0,0,10,9,1,0,0,1,34,194,44,1,,,,,,,,
,,,,,,,,,,,,,FF,,,,,,,,0.777,,,,,,,,,,,,,,,,,,,,,,610102b7f7493eff26309a1f,61036beccac522081aa98126,2021-07-29_23h03.39.730,Simcolourproject_2stim_asymm_v5,2020.2.10,MacIntel,60,61025ae37ef11b136ea224fe,,,,,,,,,2981,34,81,1,0,0,response1disk,,7,5,6,1,0,0,rectangle,5,6,1,0,0,5,6,1,0,0,1,35,195,42,1,,,,,,,,
,,,,,,,,,,,,,FF,,,,,,,,1.099,,,,,,,,,,,,,,,,,,,,,,610102b7f7493eff26309a1f,61036beccac522081aa98126,2021-07-29_23h03.39.730,Simcolourproject_2stim_asymm_v5,2020.2.10,MacIntel,60,61025ae37ef11b136ea224fe,,,,,,,,,3678,53,91,1,0,0,response1disk,,7,5,17,1,0,0,rectangle,5,17,1,0,0,5,17,1,0,0,1,36,196,73,1,,,,,,,,
,,,,,,,,,,,,,FF,,,,,,,,1.299,,,,,,,,,,,,,,,,,,,,,,610102b7f7493eff26309a1f,61036beccac522081aa98126,2021-07-29_23h03.39.730,Simcolourproject_2stim_asymm_v5,2020.2.10,MacIntel,60,61025ae37ef11b136ea224fe,,,,,,,,,1435,38,74,1,0,0,response1disk,,7,10,2,1,0,0,rectangle,10,2,1,0,0,10,2,1,0,0,1,37,197,97,1,,,,,,,,
,,,,,,,,,,,,,FF,,,,,,,,1.021,,,,,,,,,,,,,,,,,,,,,,610102b7f7493eff26309a1f,61036beccac522081aa98126,2021-07-29_23h03.39.730,Simcolourproject_2stim_asymm_v5,2020.2.10,MacIntel,60,61025ae37ef11b136ea224fe,,,,,,,,,919,72,43,1,0,0,response1disk,,6,21,4,1,0,0,rectangle,21,4,1,0,0,21,4,1,0,0,1,38,198,122,1,,,,,,,,
,,,,,,,,,,,,,FF,,,,,,,,1.229,,,,,,,,,,,,,,,,,,,,,,610102b7f7493eff26309a1f,61036beccac522081aa98126,2021-07-29_23h03.39.730,Simcolourproject_2stim_asymm_v5,2020.2.10,MacIntel,60,61025ae37ef11b136ea224fe,,,,,,,,,2253,46,-30,1,0,0,response3disk,,5,13,-12,1,0,0,rectangle,13,-12,1,0,0,13,-12,1,0,0,1,39,199,84,1,,,,,,,,
,,,,,,,,,,,,,FF,,,,,,,,1.217,,,,,,,,,,,,,,,,,,,,,,610102b7f7493eff26309a1f,61036beccac522081aa98126,2021-07-29_23h03.39.730,Simcolourproject_2stim_asymm_v5,2020.2.10,MacIntel,60,61025ae37ef11b136ea224fe,,,,,,,,,2994,-16,-75,1,0,0,response5disk,,3,21,9,1,0,0,rectangle,21,9,1,0,0,21,9,1,0,0,1,40,200,13,1,,,,,,,,
,,,,,,,,,,,,,FF,,,,,,,,0.88,,,,,,,,,,,,,,,,,,,,,,610102b7f7493eff26309a1f,61036beccac522081aa98126,2021-07-29_23h03.39.730,Simcolourproject_2stim_asymm_v5,2020.2.10,MacIntel,60,61025ae37ef11b136ea224fe,,,,,,,,,1208,36,54,1,0,0,response1disk,,7,5,-3,1,0,0,rectangle,5,-3,1,0,0,5,-3,1,0,0,1,41,201,85,1,,,,,,,,
,,,,,,,,,,,,,FF,,,,,,,,1.685,,,,,,,,,,,,,,,,,,,,,,610102b7f7493eff26309a1f,61036beccac522081aa98126,2021-07-29_23h03.39.730,Simcolourproject_2stim_asymm_v5,2020.2.10,MacIntel,60,61025ae37ef11b136ea224fe,,,,,,,,,3409,42,61,1,0,0,response1disk,,7,-2,-6,1,0,0,rectangle,-2,-6,1,0,0,-2,-6,1,0,0,1,42,202,101,1,,,,,,,,
,,,,,,,,,,,,,FF,,,,,,,,1.199,,,,,,,,,,,,,,,,,,,,,,610102b7f7493eff26309a1f,61036beccac522081aa98126,2021-07-29_23h03.39.730,Simcolourproject_2stim_asymm_v5,2020.2.10,MacIntel,60,61025ae37ef11b136ea224fe,,,,,,,,,2043,40,58,1,0,0,response1disk,,7,24,12,1,0,0,rectangle,24,12,1,0,0,24,12,1,0,0,1,43,203,109,1,,,,,,,,
,,,,,,,,,,,,,FF,,,,,,,,1.915,,,,,,,,,,,,,,,,,,,,,,610102b7f7493eff26309a1f,61036beccac522081aa98126,2021-07-29_23h03.39.730,Simcolourproject_2stim_asymm_v5,2020.2.10,MacIntel,60,61025ae37ef11b136ea224fe,,,,,,,,,1902,72,56,1,0,0,response1disk,,6,27,11,1,0,0,rectangle,27,11,1,0,0,27,11,1,0,0,1,44,204,6,1,,,,,,,,
,,,,,,,,,,,,,FF,,,,,,,,1.301,,,,,,,,,,,,,,,,,,,,,,610102b7f7493eff26309a1f,61036beccac522081aa98126,2021-07-29_23h03.39.730,Simcolourproject_2stim_asymm_v5,2020.2.10,MacIntel,60,61025ae37ef11b136ea224fe,,,,,,,,,1299,57,-28,1,0,0,response3disk,,5,17,-11,1,0,0,rectangle,17,-11,1,0,0,17,-11,1,0,0,1,45,205,125,1,,,,,,,,
,,,,,,,,,,,,,FF,,,,,,,,1.012,,,,,,,,,,,,,,,,,,,,,,610102b7f7493eff26309a1f,61036beccac522081aa98126,2021-07-29_23h03.39.730,Simcolourproject_2stim_asymm_v5,2020.2.10,MacIntel,60,61025ae37ef11b136ea224fe,,,,,,,,,2507,48,58,1,0,0,response1disk,,7,19,14,1,0,0,rectangle,19,14,1,0,0,19,14,1,0,0,1,46,206,112,1,,,,,,,,
,,,,,,,,,,,,,FF,,,,,,,,1.175,,,,,,,,,,,,,,,,,,,,,,610102b7f7493eff26309a1f,61036beccac522081aa98126,2021-07-29_23h03.39.730,Simcolourproject_2stim_asymm_v5,2020.2.10,MacIntel,60,61025ae37ef11b136ea224fe,,,,,,,,,114,71,42,1,0,0,response1disk,,6,20,2,1,0,0,rectangle,20,2,1,0,0,20,2,1,0,0,1,47,207,75,1,,,,,,,,
,,,,,,,,,,,,,FF,,,,,,,,0.634,,,,,,,,,,,,,,,,,,,,,,610102b7f7493eff26309a1f,61036beccac522081aa98126,2021-07-29_23h03.39.730,Simcolourproject_2stim_asymm_v5,2020.2.10,MacIntel,60,61025ae37ef11b136ea224fe,,,,,,,,,3884,45,59,1,0,0,response1disk,,7,19,-5,1,0,0,rectangle,19,-5,1,0,0,19,-5,1,0,0,1,48,208,74,1,,,,,,,,
,,,,,,,,,,,,,FF,,,,,,,,1.08,,,,,,,,,,,,,,,,,,,,,,610102b7f7493eff26309a1f,61036beccac522081aa98126,2021-07-29_23h03.39.730,Simcolourproject_2stim_asymm_v5,2020.2.10,MacIntel,60,61025ae37ef11b136ea224fe,,,,,,,,,3288,43,69,1,0,0,response1disk,,7,19,7,1,0,0,rectangle,19,7,1,0,0,19,7,1,0,0,1,49,209,94,1,,,,,,,,
,,,,,,,,,,,,,FF,,,,,,,,0.732,,,,,,,,,,,,,,,,,,,,,,610102b7f7493eff26309a1f,61036beccac522081aa98126,2021-07-29_23h03.39.730,Simcolourproject_2stim_asymm_v5,2020.2.10,MacIntel,60,61025ae37ef11b136ea224fe,,,,,,,,,1877,46,71,1,0,0,response1disk,,7,21,-2,1,0,0,rectangle,21,-2,1,0,0,21,-2,1,0,0,1,50,210,68,1,,,,,,,,
,,,,,,,,,,,,,FF,,,,,,,,0.725,,,,,,,,,,,,,,,,,,,,,,610102b7f7493eff26309a1f,61036beccac522081aa98126,2021-07-29_23h03.39.730,Simcolourproject_2stim_asymm_v5,2020.2.10,MacIntel,60,61025ae37ef11b136ea224fe,,,,,,,,,565,41,57,1,0,0,response1disk,,7,17,3,1,0,0,rectangle,17,3,1,0,0,17,3,1,0,0,1,51,211,52,1,,,,,,,,
,,,,,,,,,,,,,FF,,,,,,,,1.474,,,,,,,,,,,,,,,,,,,,,,610102b7f7493eff26309a1f,61036beccac522081aa98126,2021-07-29_23h03.39.730,Simcolourproject_2stim_asymm_v5,2020.2.10,MacIntel,60,61025ae37ef11b136ea224fe,,,,,,,,,814,36,-72,1,0,0,response3disk,,4,21,-9,1,0,0,rectangle,21,-9,1,0,0,21,-9,1,0,0,1,52,212,95,1,,,,,,,,
,,,,,,,,,,,,,FF,,,,,,,,0.723,,,,,,,,,,,,,,,,,,,,,,610102b7f7493eff26309a1f,61036beccac522081aa98126,2021-07-29_23h03.39.730,Simcolourproject_2stim_asymm_v5,2020.2.10,MacIntel,60,61025ae37ef11b136ea224fe,,,,,,,,,3350,64,106,1,0,0,response1disk,,7,10,13,1,0,0,rectangle,10,13,1,0,0,10,13,1,0,0,1,53,213,83,1,,,,,,,,
,,,,,,,,,,,,,FF,,,,,,,,0.65,,,,,,,,,,,,,,,,,,,,,,610102b7f7493eff26309a1f,61036beccac522081aa98126,2021-07-29_23h03.39.730,Simcolourproject_2stim_asymm_v5,2020.2.10,MacIntel,60,61025ae37ef11b136ea224fe,,,,,,,,,269,53,90,1,0,0,response1disk,,7,14,4,1,0,0,rectangle,14,4,1,0,0,14,4,1,0,0,1,54,214,23,1,,,,,,,,
,,,,,,,,,,,,,FF,,,,,,,,1.44,,,,,,,,,,,,,,,,,,,,,,610102b7f7493eff26309a1f,61036beccac522081aa98126,2021-07-29_23h03.39.730,Simcolourproject_2stim_asymm_v5,2020.2.10,MacIntel,60,61025ae37ef11b136ea224fe,,,,,,,,,121,86,48,1,0,0,response1disk,,6,3,-6,1,0,0,rectangle,3,-6,1,0,0,3,-6,1,0,0,1,55,215,31,1,,,,,,,,
,,,,,,,,,,,,,FF,,,,,,,,2.6,,,,,,,,,,,,,,,,,,,,,,610102b7f7493eff26309a1f,61036beccac522081aa98126,2021-07-29_23h03.39.730,Simcolourproject_2stim_asymm_v5,2020.2.10,MacIntel,60,61025ae37ef11b136ea224fe,,,,,,,,,1017,47,71,1,0,0,response1disk,,7,-4,3,1,0,0,rectangle,-4,3,1,0,0,-4,3,1,0,0,1,56,216,114,1,,,,,,,,
,,,,,,,,,,,,,FF,,,,,,,,3.345,,,,,,,,,,,,,,,,,,,,,,610102b7f7493eff26309a1f,61036beccac522081aa98126,2021-07-29_23h03.39.730,Simcolourproject_2stim_asymm_v5,2020.2.10,MacIntel,60,61025ae37ef11b136ea224fe,,,,,,,,,884,27,56,1,0,0,response1disk,,7,0,3,1,0,0,rectangle,0,3,1,0,0,0,3,1,0,0,1,57,217,133,1,,,,,,,,
,,,,,,,,,,,,,FF,,,,,,,,5.306,,,,,,,,,,,,,,,,,,,,,,610102b7f7493eff26309a1f,61036beccac522081aa98126,2021-07-29_23h03.39.730,Simcolourproject_2stim_asymm_v5,2020.2.10,MacIntel,60,61025ae37ef11b136ea224fe,,,,,,,,,3172,46,62,1,0,0,response1disk,,7,16,3,1,0,0,rectangle,-30,-86,1,0,0,13,-6,1,0,0,1,58,218,153,1,,response5disk_3,TRUE,3,3,"[282,96,260,165,220,179,255,38,34,88,287,85,222,100,170,248,219,304,107,160]",1.442,rectangle
,,,,,,,,,,,,,FF,,,,,,,,1.113,,,,,,,,,,,,,,,,,,,,,,610102b7f7493eff26309a1f,61036beccac522081aa98126,2021-07-29_23h03.39.730,Simcolourproject_2stim_asymm_v5,2020.2.10,MacIntel,60,61025ae37ef11b136ea224fe,,,,,,,,,1522,-61,-41,1,0,0,response5disk,,2,-17,-5,1,0,0,rectangle,24,61,1,0,0,-1,-2,1,0,0,1,59,219,18,1,,response1disk_3,TRUE,7,7,"[282,96,260,165,220,179,255,38,34,88,287,85,222,100,170,248,219,304,107,160]",2.12,rectangle
,,,,,,,,,,,,,FF,,,,,,,,3.346,,,,,,,,,,,,,,,,,,,,,,610102b7f7493eff26309a1f,61036beccac522081aa98126,2021-07-29_23h03.39.730,Simcolourproject_2stim_asymm_v5,2020.2.10,MacIntel,60,61025ae37ef11b136ea224fe,,,,,,,,,2151,76,-41,1,0,0,response3disk,,5,18,0,1,0,0,rectangle,18,0,1,0,0,18,0,1,0,0,1,60,220,58,1,,,,,,,,
,,,,,,,,,,,,,FF,,,,,,,,1.541,,,,,,,,,,,,,,,,,,,,,,610102b7f7493eff26309a1f,61036beccac522081aa98126,2021-07-29_23h03.39.730,Simcolourproject_2stim_asymm_v5,2020.2.10,MacIntel,60,61025ae37ef11b136ea224fe,,,,,,,,,1719,89,60,1,0,0,response1disk,,6,15,7,1,0,0,rectangle,81,36,1,0,0,11,-2,1,0,0,1,61,221,47,1,,response1disk_3,TRUE,6,6,"[282,96,260,165,220,179,255,38,34,88,287,85,222,100,170,248,219,304,107,160]",1.643,rectangle
,,,,,,,,,,,,,FF,,,,,,,,1.74,,,,,,,,,,,,,,,,,,,,,,610102b7f7493eff26309a1f,61036beccac522081aa98126,2021-07-29_23h03.39.730,Simcolourproject_2stim_asymm_v5,2020.2.10,MacIntel,60,61025ae37ef11b136ea224fe,,,,,,,,,3386,41,-50,1,0,0,response3disk,,4,19,-5,1,0,0,rectangle,19,-5,1,0,0,19,-5,1,0,0,1,62,222,98,1,,,,,,,,
,,,,,,,,,,,,,FF,,,,,,,,2.487,,,,,,,,,,,,,,,,,,,,,,610102b7f7493eff26309a1f,61036beccac522081aa98126,2021-07-29_23h03.39.730,Simcolourproject_2stim_asymm_v5,2020.2.10,MacIntel,60,61025ae37ef11b136ea224fe,,,,,,,,,671,73,34,1,0,0,response1disk,,6,24,-9,1,0,0,rectangle,24,-9,1,0,0,24,-9,1,0,0,1,63,223,28,1,,,,,,,,
,,,,,,,,,,,,,FF,,,,,,,,3.983,,,,,,,,,,,,,,,,,,,,,,610102b7f7493eff26309a1f,61036beccac522081aa98126,2021-07-29_23h03.39.730,Simcolourproject_2stim_asymm_v5,2020.2.10,MacIntel,60,61025ae37ef11b136ea224fe,,,,,,,,,1033,-22,-94,1,0,0,response5disk,,3,-2,-13,1,0,0,rectangle,-2,-13,1,0,0,-2,-13,1,0,0,1,64,224,35,1,,,,,,,,
,,,,,,,,,,,,,FF,,,,,,,,1.392,,,,,,,,,,,,,,,,,,,,,,610102b7f7493eff26309a1f,61036beccac522081aa98126,2021-07-29_23h03.39.730,Simcolourproject_2stim_asymm_v5,2020.2.10,MacIntel,60,61025ae37ef11b136ea224fe,,,,,,,,,3984,38,67,1,0,0,response1disk,,7,28,7,1,0,0,rectangle,28,7,1,0,0,28,7,1,0,0,1,65,225,148,1,,,,,,,,
,,,,,,,,,,,,,FF,,,,,,,,2.09,,,,,,,,,,,,,,,,,,,,,,610102b7f7493eff26309a1f,61036beccac522081aa98126,2021-07-29_23h03.39.730,Simcolourproject_2stim_asymm_v5,2020.2.10,MacIntel,60,61025ae37ef11b136ea224fe,,,,,,,,,2448,62,-25,1,0,0,response3disk,,5,28,-10,1,0,0,rectangle,28,-10,1,0,0,28,-10,1,0,0,1,66,226,88,1,,,,,,,,
,,,,,,,,,,,,,FF,,,,,,,,1.2,,,,,,,,,,,,,,,,,,,,,,610102b7f7493eff26309a1f,61036beccac522081aa98126,2021-07-29_23h03.39.730,Simcolourproject_2stim_asymm_v5,2020.2.10,MacIntel,60,61025ae37ef11b136ea224fe,,,,,,,,,1372,-38,-80,1,0,0,response5disk,,3,-13,-7,1,0,0,rectangle,-13,-7,1,0,0,-13,-7,1,0,0,1,67,227,81,1,,,,,,,,
,,,,,,,,,,,,,FF,,,,,,,,0.95,,,,,,,,,,,,,,,,,,,,,,610102b7f7493eff26309a1f,61036beccac522081aa98126,2021-07-29_23h03.39.730,Simcolourproject_2stim_asymm_v5,2020.2.10,MacIntel,60,61025ae37ef11b136ea224fe,,,,,,,,,1157,58,32,1,0,0,response1disk,,6,21,0,1,0,0,rectangle,21,0,1,0,0,21,0,1,0,0,1,68,228,90,1,,,,,,,,
,,,,,,,,,,,,,FF,,,,,,,,1.459,,,,,,,,,,,,,,,,,,,,,,610102b7f7493eff26309a1f,61036beccac522081aa98126,2021-07-29_23h03.39.730,Simcolourproject_2stim_asymm_v5,2020.2.10,MacIntel,60,61025ae37ef11b136ea224fe,,,,,,,,,4170,31,-60,1,0,0,response3disk,,4,11,16,1,0,0,rectangle,11,16,1,0,0,11,16,1,0,0,1,69,229,12,1,,,,,,,,
,,,,,,,,,,,,,FF,,,,,,,,1.466,,,,,,,,,,,,,,,,,,,,,,610102b7f7493eff26309a1f,61036beccac522081aa98126,2021-07-29_23h03.39.730,Simcolourproject_2stim_asymm_v5,2020.2.10,MacIntel,60,61025ae37ef11b136ea224fe,,,,,,,,,3817,-27,-69,1,0,0,response5disk,,3,-2,0,1,0,0,rectangle,-2,0,1,0,0,-2,0,1,0,0,1,70,230,56,1,,,,,,,,
,,,,,,,,,,,,,FF,,,,,,,,1.764,,,,,,,,,,,,,,,,,,,,,,610102b7f7493eff26309a1f,61036beccac522081aa98126,2021-07-29_23h03.39.730,Simcolourproject_2stim_asymm_v5,2020.2.10,MacIntel,60,61025ae37ef11b136ea224fe,,,,,,,,,3970,88,45,1,0,0,response1disk,,6,13,2,1,0,0,rectangle,13,2,1,0,0,13,2,1,0,0,1,71,231,151,1,,,,,,,,
,,,,,,,,,,,,,FF,,,,,,,,3.149,,,,,,,,,,,,,,,,,,,,,,610102b7f7493eff26309a1f,61036beccac522081aa98126,2021-07-29_23h03.39.730,Simcolourproject_2stim_asymm_v5,2020.2.10,MacIntel,60,61025ae37ef11b136ea224fe,,,,,,,,,661,39,-61,1,0,0,response3disk,,4,1,6,1,0,0,rectangle,1,6,1,0,0,1,6,1,0,0,1,72,232,141,1,,,,,,,,
,,,,,,,,,,,,,FF,,,,,,,,1.809,,,,,,,,,,,,,,,,,,,,,,610102b7f7493eff26309a1f,61036beccac522081aa98126,2021-07-29_23h03.39.730,Simcolourproject_2stim_asymm_v5,2020.2.10,MacIntel,60,61025ae37ef11b136ea224fe,,,,,,,,,3568,82,48,1,0,0,response1disk,,6,1,-10,1,0,0,rectangle,1,-10,1,0,0,1,-10,1,0,0,1,73,233,65,1,,,,,,,,
,,,,,,,,,,,,,FF,,,,,,,,1.1,,,,,,,,,,,,,,,,,,,,,,610102b7f7493eff26309a1f,61036beccac522081aa98126,2021-07-29_23h03.39.730,Simcolourproject_2stim_asymm_v5,2020.2.10,MacIntel,60,61025ae37ef11b136ea224fe,,,,,,,,,3601,47,83,1,0,0,response1disk,,7,14,12,1,0,0,rectangle,14,12,1,0,0,14,12,1,0,0,1,74,234,135,1,,,,,,,,
,,,,,,,,,,,,,FF,,,,,,,,1.02,,,,,,,,,,,,,,,,,,,,,,610102b7f7493eff26309a1f,61036beccac522081aa98126,2021-07-29_23h03.39.730,Simcolourproject_2stim_asymm_v5,2020.2.10,MacIntel,60,61025ae37ef11b136ea224fe,,,,,,,,,1966,-47,-68,1,0,0,response5disk,,3,4,-3,1,0,0,rectangle,4,-3,1,0,0,4,-3,1,0,0,1,75,235,72,1,,,,,,,,
,,,,,,,,,,,,,FF,,,,,,,,2.265,,,,,,,,,,,,,,,,,,,,,,610102b7f7493eff26309a1f,61036beccac522081aa98126,2021-07-29_23h03.39.730,Simcolourproject_2stim_asymm_v5,2020.2.10,MacIntel,60,61025ae37ef11b136ea224fe,,,,,,,,,4116,35,-70,1,0,0,response3disk,,4,24,6,1,0,0,rectangle,24,6,1,0,0,24,6,1,0,0,1,76,236,55,1,,,,,,,,
,,,,,,,,,,,,,FF,,,,,,,,1.79,,,,,,,,,,,,,,,,,,,,,,610102b7f7493eff26309a1f,61036beccac522081aa98126,2021-07-29_23h03.39.730,Simcolourproject_2stim_asymm_v5,2020.2.10,MacIntel,60,61025ae37ef11b136ea224fe,,,,,,,,,546,51,-64,1,0,0,response3disk,,4,8,3,1,0,0,rectangle,8,3,1,0,0,8,3,1,0,0,1,77,237,57,1,,,,,,,,
,,,,,,,,,,,,,FF,,,,,,,,1.851,,,,,,,,,,,,,,,,,,,,,,610102b7f7493eff26309a1f,61036beccac522081aa98126,2021-07-29_23h03.39.730,Simcolourproject_2stim_asymm_v5,2020.2.10,MacIntel,60,61025ae37ef11b136ea224fe,,,,,,,,,2708,41,65,1,0,0,response1disk,,7,17,-1,1,0,0,rectangle,17,-1,1,0,0,17,-1,1,0,0,1,78,238,43,1,,,,,,,,
,,,,,,,,,,,,,FF,,,,,,,,1.037,,,,,,,,,,,,,,,,,,,,,,610102b7f7493eff26309a1f,61036beccac522081aa98126,2021-07-29_23h03.39.730,Simcolourproject_2stim_asymm_v5,2020.2.10,MacIntel,60,61025ae37ef11b136ea224fe,,,,,,,,,1830,55,-40,1,0,0,response3disk,,5,5,2,1,0,0,rectangle,5,2,1,0,0,5,2,1,0,0,1,79,239,67,1,,,,,,,,
,,,,,,,,,,,,,FF,,,,,,,,1.183,,,,,,,,,,,,,,,,,,,,,,610102b7f7493eff26309a1f,61036beccac522081aa98126,2021-07-29_23h03.39.730,Simcolourproject_2stim_asymm_v5,2020.2.10,MacIntel,60,61025ae37ef11b136ea224fe,,,,,,,,,3268,60,111,1,0,0,response1disk,,7,1,9,1,0,0,rectangle,1,9,1,0,0,1,9,1,0,0,1,80,240,157,1,,,,,,,,
,,,,,,,,,,,,,FF,,,,,,,,1.186,,,,,,,,,,,,,,,,,,,,,,610102b7f7493eff26309a1f,61036beccac522081aa98126,2021-07-29_23h03.39.730,Simcolourproject_2stim_asymm_v5,2020.2.10,MacIntel,60,61025ae37ef11b136ea224fe,,,,,,,,,4097,-75,-45,1,0,0,response5disk,,2,-23,-11,1,0,0,rectangle,-23,-11,1,0,0,-23,-11,1,0,0,1,81,241,128,1,,,,,,,,
,,,,,,,,,,,,,FF,,,,,,,,0.934,,,,,,,,,,,,,,,,,,,,,,610102b7f7493eff26309a1f,61036beccac522081aa98126,2021-07-29_23h03.39.730,Simcolourproject_2stim_asymm_v5,2020.2.10,MacIntel,60,61025ae37ef11b136ea224fe,,,,,,,,,2427,-36,-97,1,0,0,response5disk,,3,-12,-9,1,0,0,rectangle,-12,-9,1,0,0,-12,-9,1,0,0,1,82,242,130,1,,,,,,,,
,,,,,,,,,,,,,FF,,,,,,,,1.288,,,,,,,,,,,,,,,,,,,,,,610102b7f7493eff26309a1f,61036beccac522081aa98126,2021-07-29_23h03.39.730,Simcolourproject_2stim_asymm_v5,2020.2.10,MacIntel,60,61025ae37ef11b136ea224fe,,,,,,,,,1380,67,30,1,0,0,response1disk,,6,10,-9,1,0,0,rectangle,10,-9,1,0,0,10,-9,1,0,0,1,83,243,126,1,,,,,,,,
,,,,,,,,,,,,,FF,,,,,,,,1.491,,,,,,,,,,,,,,,,,,,,,,610102b7f7493eff26309a1f,61036beccac522081aa98126,2021-07-29_23h03.39.730,Simcolourproject_2stim_asymm_v5,2020.2.10,MacIntel,60,61025ae37ef11b136ea224fe,,,,,,,,,571,37,-65,1,0,0,response3disk,,4,23,-2,1,0,0,rectangle,23,-2,1,0,0,23,-2,1,0,0,1,84,244,134,1,,,,,,,,
,,,,,,,,,,,,,FF,,,,,,,,1.017,,,,,,,,,,,,,,,,,,,,,,610102b7f7493eff26309a1f,61036beccac522081aa98126,2021-07-29_23h03.39.730,Simcolourproject_2stim_asymm_v5,2020.2.10,MacIntel,60,61025ae37ef11b136ea224fe,,,,,,,,,3923,37,81,1,0,0,response1disk,,7,-2,-9,1,0,0,rectangle,-2,-9,1,0,0,-2,-9,1,0,0,1,85,245,156,1,,,,,,,,
,,,,,,,,,,,,,FF,,,,,,,,0.882,,,,,,,,,,,,,,,,,,,,,,610102b7f7493eff26309a1f,61036beccac522081aa98126,2021-07-29_23h03.39.730,Simcolourproject_2stim_asymm_v5,2020.2.10,MacIntel,60,61025ae37ef11b136ea224fe,,,,,,,,,2311,88,23,1,0,0,response1disk,,6,23,-6,1,0,0,rectangle,23,-6,1,0,0,23,-6,1,0,0,1,86,246,107,1,,,,,,,,
,,,,,,,,,,,,,FF,,,,,,,,1.537,,,,,,,,,,,,,,,,,,,,,,610102b7f7493eff26309a1f,61036beccac522081aa98126,2021-07-29_23h03.39.730,Simcolourproject_2stim_asymm_v5,2020.2.10,MacIntel,60,61025ae37ef11b136ea224fe,,,,,,,,,2038,-64,-92,1,0,0,response5disk,,3,-20,-5,1,0,0,rectangle,44,-32,1,0,0,23,-5,1,0,0,1,87,247,115,1,,response3disk_3,TRUE,5,5,"[282,96,260,165,220,179,255,38,34,88,287,85,222,100,170,248,219,304,107,160]",2.437,rectangle
,,,,,,,,,,,,,FF,,,,,,,,0.905,,,,,,,,,,,,,,,,,,,,,,610102b7f7493eff26309a1f,61036beccac522081aa98126,2021-07-29_23h03.39.730,Simcolourproject_2stim_asymm_v5,2020.2.10,MacIntel,60,61025ae37ef11b136ea224fe,,,,,,,,,3223,39,69,1,0,0,response1disk,,7,5,-3,1,0,0,rectangle,5,-3,1,0,0,5,-3,1,0,0,1,88,248,106,1,,,,,,,,
,,,,,,,,,,,,,FF,,,,,,,,1.011,,,,,,,,,,,,,,,,,,,,,,610102b7f7493eff26309a1f,61036beccac522081aa98126,2021-07-29_23h03.39.730,Simcolourproject_2stim_asymm_v5,2020.2.10,MacIntel,60,61025ae37ef11b136ea224fe,,,,,,,,,1490,38,44,1,0,0,response1disk,,7,10,0,1,0,0,rectangle,10,0,1,0,0,10,0,1,0,0,1,89,249,146,1,,,,,,,,
,,,,,,,,,,,,,FF,,,,,,,,1.179,,,,,,,,,,,,,,,,,,,,,,610102b7f7493eff26309a1f,61036beccac522081aa98126,2021-07-29_23h03.39.730,Simcolourproject_2stim_asymm_v5,2020.2.10,MacIntel,60,61025ae37ef11b136ea224fe,,,,,,,,,3,47,-46,1,0,0,response3disk,,5,21,-10,1,0,0,rectangle,21,-10,1,0,0,21,-10,1,0,0,1,90,250,143,1,,,,,,,,
,,,,,,,,,,,,,FF,,,,,,,,1.292,,,,,,,,,,,,,,,,,,,,,,610102b7f7493eff26309a1f,61036beccac522081aa98126,2021-07-29_23h03.39.730,Simcolourproject_2stim_asymm_v5,2020.2.10,MacIntel,60,61025ae37ef11b136ea224fe,,,,,,,,,246,71,37,1,0,0,response1disk,,6,2,6,1,0,0,rectangle,2,6,1,0,0,2,6,1,0,0,1,91,251,71,1,,,,,,,,
,,,,,,,,,,,,,FF,,,,,,,,0.75,,,,,,,,,,,,,,,,,,,,,,610102b7f7493eff26309a1f,61036beccac522081aa98126,2021-07-29_23h03.39.730,Simcolourproject_2stim_asymm_v5,2020.2.10,MacIntel,60,61025ae37ef11b136ea224fe,,,,,,,,,3218,28,58,1,0,0,response1disk,,7,4,10,1,0,0,rectangle,4,10,1,0,0,4,10,1,0,0,1,92,252,116,1,,,,,,,,
,,,,,,,,,,,,,FF,,,,,,,,1.877,,,,,,,,,,,,,,,,,,,,,,610102b7f7493eff26309a1f,61036beccac522081aa98126,2021-07-29_23h03.39.730,Simcolourproject_2stim_asymm_v5,2020.2.10,MacIntel,60,61025ae37ef11b136ea224fe,,,,,,,,,3832,60,28,1,0,0,response1disk,,6,15,-1,1,0,0,rectangle,15,-1,1,0,0,15,-1,1,0,0,1,93,253,120,1,,,,,,,,
,,,,,,,,,,,,,FF,,,,,,,,0.677,,,,,,,,,,,,,,,,,,,,,,610102b7f7493eff26309a1f,61036beccac522081aa98126,2021-07-29_23h03.39.730,Simcolourproject_2stim_asymm_v5,2020.2.10,MacIntel,60,61025ae37ef11b136ea224fe,,,,,,,,,3234,29,49,1,0,0,response1disk,,7,17,5,1,0,0,rectangle,-26,65,1,0,0,-8,11,1,0,0,1,94,254,150,1,,response7disk_3,TRUE,0,0,"[282,96,260,165,220,179,255,38,34,88,287,85,222,100,170,248,219,304,107,160]",1.769,rectangle
,,,,,,,,,,,,,FF,,,,,,,,2.612,,,,,,,,,,,,,,,,,,,,,,610102b7f7493eff26309a1f,61036beccac522081aa98126,2021-07-29_23h03.39.730,Simcolourproject_2stim_asymm_v5,2020.2.10,MacIntel,60,61025ae37ef11b136ea224fe,,,,,,,,,2010,64,41,1,0,0,response1disk,,6,7,-16,1,0,0,rectangle,7,-16,1,0,0,7,-16,1,0,0,1,95,255,136,1,,,,,,,,
,,,,,,,,,,,,,FF,,,,,,,,1.697,,,,,,,,,,,,,,,,,,,,,,610102b7f7493eff26309a1f,61036beccac522081aa98126,2021-07-29_23h03.39.730,Simcolourproject_2stim_asymm_v5,2020.2.10,MacIntel,60,61025ae37ef11b136ea224fe,,,,,,,,,20,54,32,1,0,0,response1disk,,6,-5,3,1,0,0,rectangle,-5,3,1,0,0,-5,3,1,0,0,1,96,256,41,1,,,,,,,,
,,,,,,,,,,,,,FF,,,,,,,,0.949,,,,,,,,,,,,,,,,,,,,,,610102b7f7493eff26309a1f,61036beccac522081aa98126,2021-07-29_23h03.39.730,Simcolourproject_2stim_asymm_v5,2020.2.10,MacIntel,60,61025ae37ef11b136ea224fe,,,,,,,,,3966,-39,-60,1,0,0,response5disk,,3,-18,-14,1,0,0,rectangle,-18,-14,1,0,0,-18,-14,1,0,0,1,97,257,138,1,,,,,,,,
,,,,,,,,,,,,,FF,,,,,,,,1.074,,,,,,,,,,,,,,,,,,,,,,610102b7f7493eff26309a1f,61036beccac522081aa98126,2021-07-29_23h03.39.730,Simcolourproject_2stim_asymm_v5,2020.2.10,MacIntel,60,61025ae37ef11b136ea224fe,,,,,,,,,1671,-41,-62,1,0,0,response5disk,,3,-2,-2,1,0,0,rectangle,-2,-2,1,0,0,-2,-2,1,0,0,1,98,258,113,1,,,,,,,,
,,,,,,,,,,,,,FF,,,,,,,,1.364,,,,,,,,,,,,,,,,,,,,,,610102b7f7493eff26309a1f,61036beccac522081aa98126,2021-07-29_23h03.39.730,Simcolourproject_2stim_asymm_v5,2020.2.10,MacIntel,60,61025ae37ef11b136ea224fe,,,,,,,,,4257,30,49,1,0,0,response1disk,,7,12,10,1,0,0,rectangle,40,-76,1,0,0,12,-14,1,0,0,1,99,259,103,1,,response3disk_3,TRUE,4,4,"[282,96,260,165,220,179,255,38,34,88,287,85,222,100,170,248,219,304,107,160]",2.642,rectangle
,,,,,,,,,,,,,FF,,,,,,,,1.222,,,,,,,,,,,,,,,,,,,,,,610102b7f7493eff26309a1f,61036beccac522081aa98126,2021-07-29_23h03.39.730,Simcolourproject_2stim_asymm_v5,2020.2.10,MacIntel,60,61025ae37ef11b136ea224fe,,,,,,,,,3825,43,53,1,0,0,response1disk,,7,9,12,1,0,0,rectangle,9,12,1,0,0,9,12,1,0,0,1,100,260,0,1,,,,,,,,
,,,,,,,,,,,,,FF,,,,,,,,0.915,,,,,,,,,,,,,,,,,,,,,,610102b7f7493eff26309a1f,61036beccac522081aa98126,2021-07-29_23h03.39.730,Simcolourproject_2stim_asymm_v5,2020.2.10,MacIntel,60,61025ae37ef11b136ea224fe,,,,,,,,,938,40,57,1,0,0,response1disk,,7,17,13,1,0,0,rectangle,17,13,1,0,0,17,13,1,0,0,1,101,261,5,1,,,,,,,,
,,,,,,,,,,,,,FF,,,,,,,,0.9,,,,,,,,,,,,,,,,,,,,,,610102b7f7493eff26309a1f,61036beccac522081aa98126,2021-07-29_23h03.39.730,Simcolourproject_2stim_asymm_v5,2020.2.10,MacIntel,60,61025ae37ef11b136ea224fe,,,,,,,,,499,40,55,1,0,0,response1disk,,7,11,-7,1,0,0,rectangle,11,-7,1,0,0,11,-7,1,0,0,1,102,262,45,1,,,,,,,,
,,,,,,,,,,,,,FF,,,,,,,,0.837,,,,,,,,,,,,,,,,,,,,,,610102b7f7493eff26309a1f,61036beccac522081aa98126,2021-07-29_23h03.39.730,Simcolourproject_2stim_asymm_v5,2020.2.10,MacIntel,60,61025ae37ef11b136ea224fe,,,,,,,,,4177,53,62,1,0,0,response1disk,,7,29,10,1,0,0,rectangle,29,10,1,0,0,29,10,1,0,0,1,103,263,147,1,,,,,,,,
,,,,,,,,,,,,,FF,,,,,,,,1.515,,,,,,,,,,,,,,,,,,,,,,610102b7f7493eff26309a1f,61036beccac522081aa98126,2021-07-29_23h03.39.730,Simcolourproject_2stim_asymm_v5,2020.2.10,MacIntel,60,61025ae37ef11b136ea224fe,,,,,,,,,1627,74,36,1,0,0,response1disk,,6,32,4,1,0,0,rectangle,32,4,1,0,0,32,4,1,0,0,1,104,264,22,1,,,,,,,,
,,,,,,,,,,,,,FF,,,,,,,,1.94,,,,,,,,,,,,,,,,,,,,,,610102b7f7493eff26309a1f,61036beccac522081aa98126,2021-07-29_23h03.39.730,Simcolourproject_2stim_asymm_v5,2020.2.10,MacIntel,60,61025ae37ef11b136ea224fe,,,,,,,,,3397,19,-72,1,0,0,response3disk,,4,16,-16,1,0,0,rectangle,16,-16,1,0,0,16,-16,1,0,0,1,105,265,7,1,,,,,,,,
,,,,,,,,,,,,,FF,,,,,,,,1.299,,,,,,,,,,,,,,,,,,,,,,610102b7f7493eff26309a1f,61036beccac522081aa98126,2021-07-29_23h03.39.730,Simcolourproject_2stim_asymm_v5,2020.2.10,MacIntel,60,61025ae37ef11b136ea224fe,,,,,,,,,3514,-79,-53,1,0,0,response5disk,,2,-21,-3,1,0,0,rectangle,-21,-3,1,0,0,-21,-3,1,0,0,1,106,266,32,1,,,,,,,,
,,,,,,,,,,,,,FF,,,,,,,,0.982,,,,,,,,,,,,,,,,,,,,,,610102b7f7493eff26309a1f,61036beccac522081aa98126,2021-07-29_23h03.39.730,Simcolourproject_2stim_asymm_v5,2020.2.10,MacIntel,60,61025ae37ef11b136ea224fe,,,,,,,,,421,60,24,1,0,0,response1disk,,6,-2,-5,1,0,0,rectangle,-2,-5,1,0,0,-2,-5,1,0,0,1,107,267,38,1,,,,,,,,
,,,,,,,,,,,,,FF,,,,,,,,0.901,,,,,,,,,,,,,,,,,,,,,,610102b7f7493eff26309a1f,61036beccac522081aa98126,2021-07-29_23h03.39.730,Simcolourproject_2stim_asymm_v5,2020.2.10,MacIntel,60,61025ae37ef11b136ea224fe,,,,,,,,,4070,35,72,1,0,0,response1disk,,7,6,17,1,0,0,rectangle,6,17,1,0,0,6,17,1,0,0,1,108,268,48,1,,,,,,,,
,,,,,,,,,,,,,FF,,,,,,,,0.852,,,,,,,,,,,,,,,,,,,,,,610102b7f7493eff26309a1f,61036beccac522081aa98126,2021-07-29_23h03.39.730,Simcolourproject_2stim_asymm_v5,2020.2.10,MacIntel,60,61025ae37ef11b136ea224fe,,,,,,,,,3435,-56,-80,1,0,0,response5disk,,3,-27,-5,1,0,0,rectangle,-27,-5,1,0,0,-27,-5,1,0,0,1,109,269,92,1,,,,,,,,
,,,,,,,,,,,,,FF,,,,,,,,0.983,,,,,,,,,,,,,,,,,,,,,,610102b7f7493eff26309a1f,61036beccac522081aa98126,2021-07-29_23h03.39.730,Simcolourproject_2stim_asymm_v5,2020.2.10,MacIntel,60,61025ae37ef11b136ea224fe,,,,,,,,,69,47,27,1,0,0,response1disk,,6,-15,-7,1,0,0,rectangle,-15,-7,1,0,0,-15,-7,1,0,0,1,110,270,60,1,,,,,,,,
,,,,,,,,,,,,,FF,,,,,,,,1.635,,,,,,,,,,,,,,,,,,,,,,610102b7f7493eff26309a1f,61036beccac522081aa98126,2021-07-29_23h03.39.730,Simcolourproject_2stim_asymm_v5,2020.2.10,MacIntel,60,61025ae37ef11b136ea224fe,,,,,,,,,3521,49,-21,1,0,0,response3disk,,5,21,-1,1,0,0,rectangle,21,-1,1,0,0,21,-1,1,0,0,1,111,271,118,1,,,,,,,,
,,,,,,,,,,,,,FF,,,,,,,,2.061,,,,,,,,,,,,,,,,,,,,,,610102b7f7493eff26309a1f,61036beccac522081aa98126,2021-07-29_23h03.39.730,Simcolourproject_2stim_asymm_v5,2020.2.10,MacIntel,60,61025ae37ef11b136ea224fe,,,,,,,,,424,-30,-68,1,0,0,response5disk,,3,-16,-5,1,0,0,rectangle,-16,-5,1,0,0,-16,-5,1,0,0,1,112,272,132,1,,,,,,,,
,,,,,,,,,,,,,FF,,,,,,,,1.53,,,,,,,,,,,,,,,,,,,,,,610102b7f7493eff26309a1f,61036beccac522081aa98126,2021-07-29_23h03.39.730,Simcolourproject_2stim_asymm_v5,2020.2.10,MacIntel,60,61025ae37ef11b136ea224fe,,,,,,,,,3707,-61,32,1,0,0,response7disk,,1,-18,7,1,0,0,rectangle,-18,7,1,0,0,-18,7,1,0,0,1,113,273,121,1,,,,,,,,
,,,,,,,,,,,,,FF,,,,,,,,2.392,,,,,,,,,,,,,,,,,,,,,,610102b7f7493eff26309a1f,61036beccac522081aa98126,2021-07-29_23h03.39.730,Simcolourproject_2stim_asymm_v5,2020.2.10,MacIntel,60,61025ae37ef11b136ea224fe,,,,,,,,,3376,78,28,1,0,0,response1disk,,6,23,-1,1,0,0,rectangle,23,-1,1,0,0,23,-1,1,0,0,1,114,274,124,1,,,,,,,,
,,,,,,,,,,,,,FF,,,,,,,,1.189,,,,,,,,,,,,,,,,,,,,,,610102b7f7493eff26309a1f,61036beccac522081aa98126,2021-07-29_23h03.39.730,Simcolourproject_2stim_asymm_v5,2020.2.10,MacIntel,60,61025ae37ef11b136ea224fe,,,,,,,,,1421,60,-26,1,0,0,response3disk,,5,-1,-5,1,0,0,rectangle,-1,-5,1,0,0,-1,-5,1,0,0,1,115,275,91,1,,,,,,,,
,,,,,,,,,,,,,FF,,,,,,,,1.638,,,,,,,,,,,,,,,,,,,,,,610102b7f7493eff26309a1f,61036beccac522081aa98126,2021-07-29_23h03.39.730,Simcolourproject_2stim_asymm_v5,2020.2.10,MacIntel,60,61025ae37ef11b136ea224fe,,,,,,,,,3846,75,41,1,0,0,response1disk,,6,17,9,1,0,0,rectangle,17,9,1,0,0,17,9,1,0,0,1,116,276,8,1,,,,,,,,
,,,,,,,,,,,,,FF,,,,,,,,1.815,,,,,,,,,,,,,,,,,,,,,,610102b7f7493eff26309a1f,61036beccac522081aa98126,2021-07-29_23h03.39.730,Simcolourproject_2stim_asymm_v5,2020.2.10,MacIntel,60,61025ae37ef11b136ea224fe,,,,,,,,,4299,40,48,1,0,0,response1disk,,7,9,3,1,0,0,rectangle,9,3,1,0,0,9,3,1,0,0,1,117,277,61,1,,,,,,,,
,,,,,,,,,,,,,FF,,,,,,,,0.816,,,,,,,,,,,,,,,,,,,,,,610102b7f7493eff26309a1f,61036beccac522081aa98126,2021-07-29_23h03.39.730,Simcolourproject_2stim_asymm_v5,2020.2.10,MacIntel,60,61025ae37ef11b136ea224fe,,,,,,,,,2407,47,72,1,0,0,response1disk,,7,15,12,1,0,0,rectangle,15,12,1,0,0,15,12,1,0,0,1,118,278,9,1,,,,,,,,
,,,,,,,,,,,,,FF,,,,,,,,2.351,,,,,,,,,,,,,,,,,,,,,,610102b7f7493eff26309a1f,61036beccac522081aa98126,2021-07-29_23h03.39.730,Simcolourproject_2stim_asymm_v5,2020.2.10,MacIntel,60,61025ae37ef11b136ea224fe,,,,,,,,,3190,62,-49,1,0,0,response3disk,,5,16,6,1,0,0,rectangle,16,6,1,0,0,16,6,1,0,0,1,119,279,87,1,,,,,,,,
,,,,,,,,,,,,,FF,,,,,,,,2.116,,,,,,,,,,,,,,,,,,,,,,610102b7f7493eff26309a1f,61036beccac522081aa98126,2021-07-29_23h03.39.730,Simcolourproject_2stim_asymm_v5,2020.2.10,MacIntel,60,61025ae37ef11b136ea224fe,,,,,,,,,2960,54,33,1,0,0,response1disk,,6,0,-5,1,0,0,rectangle,0,-5,1,0,0,0,-5,1,0,0,1,120,280,119,1,,,,,,,,
,,,,,,,,,,,,,FF,,,,,,,,0.802,,,,,,,,,,,,,,,,,,,,,,610102b7f7493eff26309a1f,61036beccac522081aa98126,2021-07-29_23h03.39.730,Simcolourproject_2stim_asymm_v5,2020.2.10,MacIntel,60,61025ae37ef11b136ea224fe,,,,,,,,,2157,26,48,1,0,0,response1disk,,7,7,9,1,0,0,rectangle,-33,76,1,0,0,0,12,1,0,0,1,121,281,19,1,,response7disk_3,TRUE,0,0,"[282,96,260,165,220,179,255,38,34,88,287,85,222,100,170,248,219,304,107,160]",1.432,rectangle
,,,,,,,,,,,,,FF,,,,,,,,1.515,,,,,,,,,,,,,,,,,,,,,,610102b7f7493eff26309a1f,61036beccac522081aa98126,2021-07-29_23h03.39.730,Simcolourproject_2stim_asymm_v5,2020.2.10,MacIntel,60,61025ae37ef11b136ea224fe,,,,,,,,,761,72,53,1,0,0,response1disk,,6,26,2,1,0,0,rectangle,26,2,1,0,0,26,2,1,0,0,1,122,282,51,1,,,,,,,,
,,,,,,,,,,,,,FF,,,,,,,,1.435,,,,,,,,,,,,,,,,,,,,,,610102b7f7493eff26309a1f,61036beccac522081aa98126,2021-07-29_23h03.39.730,Simcolourproject_2stim_asymm_v5,2020.2.10,MacIntel,60,61025ae37ef11b136ea224fe,,,,,,,,,4075,35,86,1,0,0,response1disk,,7,-9,0,1,0,0,rectangle,-9,0,1,0,0,-9,0,1,0,0,1,123,283,105,1,,,,,,,,
,,,,,,,,,,,,,FF,,,,,,,,0.706,,,,,,,,,,,,,,,,,,,,,,610102b7f7493eff26309a1f,61036beccac522081aa98126,2021-07-29_23h03.39.730,Simcolourproject_2stim_asymm_v5,2020.2.10,MacIntel,60,61025ae37ef11b136ea224fe,,,,,,,,,320,55,90,1,0,0,response1disk,,7,5,2,1,0,0,rectangle,5,2,1,0,0,5,2,1,0,0,1,124,284,14,1,,,,,,,,
,,,,,,,,,,,,,FF,,,,,,,,1.212,,,,,,,,,,,,,,,,,,,,,,610102b7f7493eff26309a1f,61036beccac522081aa98126,2021-07-29_23h03.39.730,Simcolourproject_2stim_asymm_v5,2020.2.10,MacIntel,60,61025ae37ef11b136ea224fe,,,,,,,,,2947,-57,-45,1,0,0,response5disk,,2,5,10,1,0,0,rectangle,5,10,1,0,0,5,10,1,0,0,1,125,285,3,1,,,,,,,,
,,,,,,,,,,,,,FF,,,,,,,,0.966,,,,,,,,,,,,,,,,,,,,,,610102b7f7493eff26309a1f,61036beccac522081aa98126,2021-07-29_23h03.39.730,Simcolourproject_2stim_asymm_v5,2020.2.10,MacIntel,60,61025ae37ef11b136ea224fe,,,,,,,,,4071,-39,64,1,0,0,response7disk,,0,-30,7,1,0,0,rectangle,100,42,1,0,0,31,4,1,0,0,1,126,286,30,1,,response1disk_3,TRUE,6,6,"[282,96,260,165,220,179,255,38,34,88,287,85,222,100,170,248,219,304,107,160]",2.079,rectangle
,,,,,,,,,,,,,FF,,,,,,,,1.747,,,,,,,,,,,,,,,,,,,,,,610102b7f7493eff26309a1f,61036beccac522081aa98126,2021-07-29_23h03.39.730,Simcolourproject_2stim_asymm_v5,2020.2.10,MacIntel,60,61025ae37ef11b136ea224fe,,,,,,,,,1723,42,62,1,0,0,response1disk,,7,13,10,1,0,0,rectangle,13,10,1,0,0,13,10,1,0,0,1,127,287,64,1,,,,,,,,
,,,,,,,,,,,,,FF,,,,,,,,1.313,,,,,,,,,,,,,,,,,,,,,,610102b7f7493eff26309a1f,61036beccac522081aa98126,2021-07-29_23h03.39.730,Simcolourproject_2stim_asymm_v5,2020.2.10,MacIntel,60,61025ae37ef11b136ea224fe,,,,,,,,,1400,60,30,1,0,0,response1disk,,6,14,-16,1,0,0,rectangle,14,-16,1,0,0,14,-16,1,0,0,1,128,288,80,1,,,,,,,,
,,,,,,,,,,,,,FF,,,,,,,,1.832,,,,,,,,,,,,,,,,,,,,,,610102b7f7493eff26309a1f,61036beccac522081aa98126,2021-07-29_23h03.39.730,Simcolourproject_2stim_asymm_v5,2020.2.10,MacIntel,60,61025ae37ef11b136ea224fe,,,,,,,,,892,-33,-55,1,0,0,response5disk,,3,-13,-11,1,0,0,rectangle,-13,-11,1,0,0,-13,-11,1,0,0,1,129,289,1,1,,,,,,,,
,,,,,,,,,,,,,FF,,,,,,,,0.895,,,,,,,,,,,,,,,,,,,,,,610102b7f7493eff26309a1f,61036beccac522081aa98126,2021-07-29_23h03.39.730,Simcolourproject_2stim_asymm_v5,2020.2.10,MacIntel,60,61025ae37ef11b136ea224fe,,,,,,,,,1130,31,47,1,0,0,response1disk,,7,14,14,1,0,0,rectangle,14,14,1,0,0,14,14,1,0,0,1,130,290,63,1,,,,,,,,
,,,,,,,,,,,,,FF,,,,,,,,0.897,,,,,,,,,,,,,,,,,,,,,,610102b7f7493eff26309a1f,61036beccac522081aa98126,2021-07-29_23h03.39.730,Simcolourproject_2stim_asymm_v5,2020.2.10,MacIntel,60,61025ae37ef11b136ea224fe,,,,,,,,,3458,50,60,1,0,0,response1disk,,7,10,5,1,0,0,rectangle,10,5,1,0,0,10,5,1,0,0,1,131,291,145,1,,,,,,,,
,,,,,,,,,,,,,FF,,,,,,,,0.833,,,,,,,,,,,,,,,,,,,,,,610102b7f7493eff26309a1f,61036beccac522081aa98126,2021-07-29_23h03.39.730,Simcolourproject_2stim_asymm_v5,2020.2.10,MacIntel,60,61025ae37ef11b136ea224fe,,,,,,,,,3957,48,54,1,0,0,response1disk,,7,24,6,1,0,0,rectangle,24,6,1,0,0,24,6,1,0,0,1,132,292,46,1,,,,,,,,
,,,,,,,,,,,,,FF,,,,,,,,1.715,,,,,,,,,,,,,,,,,,,,,,610102b7f7493eff26309a1f,61036beccac522081aa98126,2021-07-29_23h03.39.730,Simcolourproject_2stim_asymm_v5,2020.2.10,MacIntel,60,61025ae37ef11b136ea224fe,,,,,,,,,3626,58,-23,1,0,0,response3disk,,5,25,3,1,0,0,rectangle,25,3,1,0,0,25,3,1,0,0,1,133,293,40,1,,,,,,,,
,,,,,,,,,,,,,FF,,,,,,,,2.653,,,,,,,,,,,,,,,,,,,,,,610102b7f7493eff26309a1f,61036beccac522081aa98126,2021-07-29_23h03.39.730,Simcolourproject_2stim_asymm_v5,2020.2.10,MacIntel,60,61025ae37ef11b136ea224fe,,,,,,,,,765,48,28,1,0,0,response1disk,,6,18,10,1,0,0,rectangle,18,10,1,0,0,18,10,1,0,0,1,134,294,15,1,,,,,,,,
,,,,,,,,,,,,,FF,,,,,,,,0.917,,,,,,,,,,,,,,,,,,,,,,610102b7f7493eff26309a1f,61036beccac522081aa98126,2021-07-29_23h03.39.730,Simcolourproject_2stim_asymm_v5,2020.2.10,MacIntel,60,61025ae37ef11b136ea224fe,,,,,,,,,2784,-47,-60,1,0,0,response5disk,,3,-20,-9,1,0,0,rectangle,-20,-9,1,0,0,-20,-9,1,0,0,1,135,295,159,1,,,,,,,,
,,,,,,,,,,,,,FF,,,,,,,,2.619,,,,,,,,,,,,,,,,,,,,,,610102b7f7493eff26309a1f,61036beccac522081aa98126,2021-07-29_23h03.39.730,Simcolourproject_2stim_asymm_v5,2020.2.10,MacIntel,60,61025ae37ef11b136ea224fe,,,,,,,,,2571,59,32,1,0,0,response1disk,,6,17,-5,1,0,0,rectangle,17,-5,1,0,0,17,-5,1,0,0,1,136,296,70,1,,,,,,,,
,,,,,,,,,,,,,FF,,,,,,,,1.824,,,,,,,,,,,,,,,,,,,,,,610102b7f7493eff26309a1f,61036beccac522081aa98126,2021-07-29_23h03.39.730,Simcolourproject_2stim_asymm_v5,2020.2.10,MacIntel,60,61025ae37ef11b136ea224fe,,,,,,,,,3779,35,-67,1,0,0,response3disk,,4,14,3,1,0,0,rectangle,14,3,1,0,0,14,3,1,0,0,1,137,297,139,1,,,,,,,,
,,,,,,,,,,,,,FF,,,,,,,,0.774,,,,,,,,,,,,,,,,,,,,,,610102b7f7493eff26309a1f,61036beccac522081aa98126,2021-07-29_23h03.39.730,Simcolourproject_2stim_asymm_v5,2020.2.10,MacIntel,60,61025ae37ef11b136ea224fe,,,,,,,,,1666,40,53,1,0,0,response1disk,,7,34,12,1,0,0,rectangle,34,12,1,0,0,34,12,1,0,0,1,138,298,111,1,,,,,,,,
,,,,,,,,,,,,,FF,,,,,,,,1.083,,,,,,,,,,,,,,,,,,,,,,610102b7f7493eff26309a1f,61036beccac522081aa98126,2021-07-29_23h03.39.730,Simcolourproject_2stim_asymm_v5,2020.2.10,MacIntel,60,61025ae37ef11b136ea224fe,,,,,,,,,296,79,37,1,0,0,response1disk,,6,33,7,1,0,0,rectangle,33,7,1,0,0,33,7,1,0,0,1,139,299,137,1,,,,,,,,
