key_resp.keys,key_resp.rt,key_resp_14.keys,key_resp_14.rt,key_resp_15.keys,key_resp_15.rt,key_resp_17.keys,key_resp_17.rt,key_resp_9.keys,key_resp_9.rt,key_resp_10.keys,key_resp_10.rt,practice_comparison,Ecc,mouse_5.x,mouse_5.y,mouse_5.leftButton,mouse_5.midButton,mouse_5.rightButton,mouse_5.clicked_name,pracsimilarity,response_time,mouse_10.x,mouse_10.y,mouse_10.leftButton,mouse_10.midButton,mouse_10.rightButton,mouse_10.clicked_name,mouse_7.x,mouse_7.y,mouse_7.leftButton,mouse_7.midButton,mouse_7.rightButton,mouse_6.x,mouse_6.y,mouse_6.leftButton,mouse_6.midButton,mouse_6.rightButton,duringprac.thisRepN,duringprac.thisTrialN,duringprac.thisN,duringprac.thisIndex,duringprac.ran,participant,session,date,expName,psychopyVersion,OS,frameRate,study_id,mouse_7.clicked_name,catchpracsimilarity,catch_response_time,catchnumberprac,catchtrialorderprac,mouse_6.clicked_name,key_resp_22.keys,key_resp_22.rt,realcomparison,mouse.x,mouse.y,mouse.leftButton,mouse.midButton,mouse.rightButton,mouse.clicked_name,Colour2,similarity,mouse_2.x,mouse_2.y,mouse_2.leftButton,mouse_2.midButton,mouse_2.rightButton,mouse_2.clicked_name,mouse_3.x,mouse_3.y,mouse_3.leftButton,mouse_3.midButton,mouse_3.rightButton,mouse_11.x,mouse_11.y,mouse_11.leftButton,mouse_11.midButton,mouse_11.rightButton,trials_2.thisRepN,trials_2.thisTrialN,trials_2.thisN,trials_2.thisIndex,trials_2.ran,Colour1,mouse_3.clicked_name,catchornah,catchsimilarity,catchnumber,catchtrialorder,catchRT,mouse_11.clicked_name
space,90.3738,space,337.6903,space,36.0906,space,15.3844,space,0.704,space,2.6467,37,FF,-54.55078125,-73.28515625,1,0,0,response5disk_5,3,13.1346,-3.89453125,6.90234375,1,0,0,rectangle_8,-3.89453125,6.90234375,1,0,0,-3.89453125,6.90234375,1,0,0,0,0,0,3,1,6101c5bffd584fdda7def135,61036f3d1cbe328e09cf2634,2021-07-29_22h20.47.271,Simcolourproject_2stim_asymm_v5,2020.2.10,MacIntel,60,61025ae37ef11b136ea224fe,,,,,,,,,,,,,,,,,,,,,,,,,,,,,,,,,,,,,,,,,,,,,,
,,,,,,,,,,,,18,PF,35.5546875,90.421875,1,0,0,response1disk_5,7,8.2343,-4.13671875,-3.28515625,1,0,0,rectangle_8,71.51953125,50.4453125,1,0,0,8.83984375,-0.29296875,1,0,0,0,1,1,6,1,6101c5bffd584fdda7def135,61036f3d1cbe328e09cf2634,2021-07-29_22h20.47.271,Simcolourproject_2stim_asymm_v5,2020.2.10,MacIntel,60,61025ae37ef11b136ea224fe,response1disk_7,6,2.5026,6,"[2,5]",rectangle_4,,,,,,,,,,,,,,,,,,,,,,,,,,,,,,,,,,,,,,,,
,,,,,,,,,,,,37,PF,33.6328125,84.33203125,1,0,0,response1disk_5,7,2.2994,4.72265625,8.1484375,1,0,0,rectangle_8,4.72265625,8.1484375,1,0,0,4.72265625,8.1484375,1,0,0,0,2,2,1,1,6101c5bffd584fdda7def135,61036f3d1cbe328e09cf2634,2021-07-29_22h20.47.271,Simcolourproject_2stim_asymm_v5,2020.2.10,MacIntel,60,61025ae37ef11b136ea224fe,,,,,,,,,,,,,,,,,,,,,,,,,,,,,,,,,,,,,,,,,,,,,,
,,,,,,,,,,,,0,PF,64.7265625,39.6328125,1,0,0,response1disk_5,6,4.0168,16.55078125,-8.546875,1,0,0,rectangle_8,16.55078125,-8.546875,1,0,0,16.55078125,-8.546875,1,0,0,0,3,3,2,1,6101c5bffd584fdda7def135,61036f3d1cbe328e09cf2634,2021-07-29_22h20.47.271,Simcolourproject_2stim_asymm_v5,2020.2.10,MacIntel,60,61025ae37ef11b136ea224fe,,,,,,,,,,,,,,,,,,,,,,,,,,,,,,,,,,,,,,,,,,,,,,
,,,,,,,,,,,,75,PF,44.01171875,-57.6953125,1,0,0,response3disk_5,4,2.8667,9.80078125,-8.7109375,1,0,0,rectangle_8,87.43359375,36.2109375,1,0,0,4.44921875,-6,1,0,0,0,4,4,4,1,6101c5bffd584fdda7def135,61036f3d1cbe328e09cf2634,2021-07-29_22h20.47.271,Simcolourproject_2stim_asymm_v5,2020.2.10,MacIntel,60,61025ae37ef11b136ea224fe,response1disk_7,6,2.35,6,"[2,5]",rectangle_4,,,,,,,,,,,,,,,,,,,,,,,,,,,,,,,,,,,,,,,,
,,,,,,,,,,,,158,FF,-66.80078125,38.31640625,1,0,0,response7disk_5,1,2.1337,-13.953125,2.2578125,1,0,0,rectangle_8,-13.953125,2.2578125,1,0,0,-13.953125,2.2578125,1,0,0,0,5,5,0,1,6101c5bffd584fdda7def135,61036f3d1cbe328e09cf2634,2021-07-29_22h20.47.271,Simcolourproject_2stim_asymm_v5,2020.2.10,MacIntel,60,61025ae37ef11b136ea224fe,,,,,,,,,,,,,,,,,,,,,,,,,,,,,,,,,,,,,,,,,,,,,,
,,,,,,,,,,,,15,FF,-72.2734375,-55.70703125,1,0,0,response5disk_5,2,1.1845,-18.40234375,0.484375,1,0,0,rectangle_8,-18.40234375,0.484375,1,0,0,-18.40234375,0.484375,1,0,0,0,6,6,5,1,6101c5bffd584fdda7def135,61036f3d1cbe328e09cf2634,2021-07-29_22h20.47.271,Simcolourproject_2stim_asymm_v5,2020.2.10,MacIntel,60,61025ae37ef11b136ea224fe,,,,,,,,,,,,,,,,,,,,,,,,,,,,,,,,,,,,,,,,,,,,,,
,,,,,,,,,,,,,FF,,,,,,,,2.1178,,,,,,,,,,,,,,,,,,,,,,6101c5bffd584fdda7def135,61036f3d1cbe328e09cf2634,2021-07-29_22h20.47.271,Simcolourproject_2stim_asymm_v5,2020.2.10,MacIntel,60,61025ae37ef11b136ea224fe,,,,,,,space,3.616,2197,32.5703125,-84.92578125,1,0,0,response3disk,,4,-16.84375,-6.23046875,1,0,0,rectangle,-16.84375,-6.23046875,1,0,0,-16.84375,-6.23046875,1,0,0,0,0,0,14,1,,,,,,,,
,,,,,,,,,,,,,FF,,,,,,,,1.6503,,,,,,,,,,,,,,,,,,,,,,6101c5bffd584fdda7def135,61036f3d1cbe328e09cf2634,2021-07-29_22h20.47.271,Simcolourproject_2stim_asymm_v5,2020.2.10,MacIntel,60,61025ae37ef11b136ea224fe,,,,,,,,,3178,75.2265625,39.9140625,1,0,0,response1disk,,6,3.1484375,-5.1875,1,0,0,rectangle,3.1484375,-5.1875,1,0,0,3.1484375,-5.1875,1,0,0,0,1,1,133,1,,,,,,,,
,,,,,,,,,,,,,FF,,,,,,,,0.9659,,,,,,,,,,,,,,,,,,,,,,6101c5bffd584fdda7def135,61036f3d1cbe328e09cf2634,2021-07-29_22h20.47.271,Simcolourproject_2stim_asymm_v5,2020.2.10,MacIntel,60,61025ae37ef11b136ea224fe,,,,,,,,,2335,30.64453125,17.62109375,1,0,0,response1disk,,6,-4.69921875,13.57421875,1,0,0,rectangle,-4.69921875,13.57421875,1,0,0,-4.69921875,13.57421875,1,0,0,0,2,2,32,1,,,,,,,,
,,,,,,,,,,,,,FF,,,,,,,,1.868,,,,,,,,,,,,,,,,,,,,,,6101c5bffd584fdda7def135,61036f3d1cbe328e09cf2634,2021-07-29_22h20.47.271,Simcolourproject_2stim_asymm_v5,2020.2.10,MacIntel,60,61025ae37ef11b136ea224fe,,,,,,,,,4191,-62.703125,-34.6328125,1,0,0,response5disk,,2,-20.28515625,-7.24609375,1,0,0,rectangle,-20.28515625,-7.24609375,1,0,0,-20.28515625,-7.24609375,1,0,0,0,3,3,8,1,,,,,,,,
,,,,,,,,,,,,,FF,,,,,,,,1.2001,,,,,,,,,,,,,,,,,,,,,,6101c5bffd584fdda7def135,61036f3d1cbe328e09cf2634,2021-07-29_22h20.47.271,Simcolourproject_2stim_asymm_v5,2020.2.10,MacIntel,60,61025ae37ef11b136ea224fe,,,,,,,,,3600,-62.91015625,32.2578125,1,0,0,response7disk,,1,-3.43359375,12.98046875,1,0,0,rectangle,-3.43359375,12.98046875,1,0,0,-3.43359375,12.98046875,1,0,0,0,4,4,12,1,,,,,,,,
,,,,,,,,,,,,,FF,,,,,,,,1.1175,,,,,,,,,,,,,,,,,,,,,,6101c5bffd584fdda7def135,61036f3d1cbe328e09cf2634,2021-07-29_22h20.47.271,Simcolourproject_2stim_asymm_v5,2020.2.10,MacIntel,60,61025ae37ef11b136ea224fe,,,,,,,,,268,73.79296875,-30.78515625,1,0,0,response3disk,,5,-4.18359375,-9.9453125,1,0,0,rectangle,-4.18359375,-9.9453125,1,0,0,-4.18359375,-9.9453125,1,0,0,0,5,5,11,1,,,,,,,,
,,,,,,,,,,,,,FF,,,,,,,,1.0166,,,,,,,,,,,,,,,,,,,,,,6101c5bffd584fdda7def135,61036f3d1cbe328e09cf2634,2021-07-29_22h20.47.271,Simcolourproject_2stim_asymm_v5,2020.2.10,MacIntel,60,61025ae37ef11b136ea224fe,,,,,,,,,854,-23.90234375,-58.40234375,1,0,0,response5disk,,3,-8.04296875,-7.3046875,1,0,0,rectangle,-8.04296875,-7.3046875,1,0,0,-8.04296875,-7.3046875,1,0,0,0,6,6,141,1,,,,,,,,
,,,,,,,,,,,,,FF,,,,,,,,0.8832,,,,,,,,,,,,,,,,,,,,,,6101c5bffd584fdda7def135,61036f3d1cbe328e09cf2634,2021-07-29_22h20.47.271,Simcolourproject_2stim_asymm_v5,2020.2.10,MacIntel,60,61025ae37ef11b136ea224fe,,,,,,,,,4351,-48.70703125,89.6171875,1,0,0,response7disk,,0,-5.4453125,2.703125,1,0,0,rectangle,-5.4453125,2.703125,1,0,0,-5.4453125,2.703125,1,0,0,0,7,7,150,1,,,,,,,,
,,,,,,,,,,,,,FF,,,,,,,,0.5826,,,,,,,,,,,,,,,,,,,,,,6101c5bffd584fdda7def135,61036f3d1cbe328e09cf2634,2021-07-29_22h20.47.271,Simcolourproject_2stim_asymm_v5,2020.2.10,MacIntel,60,61025ae37ef11b136ea224fe,,,,,,,,,3813,-32.6796875,55.58203125,1,0,0,response7disk,,0,-8.18359375,4.12890625,1,0,0,rectangle,-8.18359375,4.12890625,1,0,0,-8.18359375,4.12890625,1,0,0,0,8,8,30,1,,,,,,,,
,,,,,,,,,,,,,FF,,,,,,,,0.649,,,,,,,,,,,,,,,,,,,,,,6101c5bffd584fdda7def135,61036f3d1cbe328e09cf2634,2021-07-29_22h20.47.271,Simcolourproject_2stim_asymm_v5,2020.2.10,MacIntel,60,61025ae37ef11b136ea224fe,,,,,,,,,3191,-45.99609375,25.23046875,1,0,0,response7disk,,1,-0.7890625,0.8671875,1,0,0,rectangle,-0.7890625,0.8671875,1,0,0,-0.7890625,0.8671875,1,0,0,0,9,9,93,1,,,,,,,,
,,,,,,,,,,,,,FF,,,,,,,,0.8651,,,,,,,,,,,,,,,,,,,,,,6101c5bffd584fdda7def135,61036f3d1cbe328e09cf2634,2021-07-29_22h20.47.271,Simcolourproject_2stim_asymm_v5,2020.2.10,MacIntel,60,61025ae37ef11b136ea224fe,,,,,,,,,4174,41.96484375,67.98046875,1,0,0,response1disk,,7,9.95703125,5.69921875,1,0,0,rectangle,9.95703125,5.69921875,1,0,0,9.95703125,5.69921875,1,0,0,0,10,10,4,1,,,,,,,,
,,,,,,,,,,,,,FF,,,,,,,,2.5011,,,,,,,,,,,,,,,,,,,,,,6101c5bffd584fdda7def135,61036f3d1cbe328e09cf2634,2021-07-29_22h20.47.271,Simcolourproject_2stim_asymm_v5,2020.2.10,MacIntel,60,61025ae37ef11b136ea224fe,,,,,,,,,3792,42.125,105.328125,1,0,0,response1disk,,7,8.45703125,8.95703125,1,0,0,rectangle,8.45703125,8.95703125,1,0,0,8.45703125,8.95703125,1,0,0,0,11,11,114,1,,,,,,,,
,,,,,,,,,,,,,FF,,,,,,,,0.9327,,,,,,,,,,,,,,,,,,,,,,6101c5bffd584fdda7def135,61036f3d1cbe328e09cf2634,2021-07-29_22h20.47.271,Simcolourproject_2stim_asymm_v5,2020.2.10,MacIntel,60,61025ae37ef11b136ea224fe,,,,,,,,,4130,-36.5078125,-52.078125,1,0,0,response5disk,,3,-19.15234375,-14.828125,1,0,0,rectangle,-19.15234375,-14.828125,1,0,0,-19.15234375,-14.828125,1,0,0,0,12,12,21,1,,,,,,,,
,,,,,,,,,,,,,FF,,,,,,,,1.1835,,,,,,,,,,,,,,,,,,,,,,6101c5bffd584fdda7def135,61036f3d1cbe328e09cf2634,2021-07-29_22h20.47.271,Simcolourproject_2stim_asymm_v5,2020.2.10,MacIntel,60,61025ae37ef11b136ea224fe,,,,,,,,,827,55.53515625,21.48046875,1,0,0,response1disk,,6,15.88671875,14.09375,1,0,0,rectangle,15.88671875,14.09375,1,0,0,15.88671875,14.09375,1,0,0,0,13,13,29,1,,,,,,,,
,,,,,,,,,,,,,FF,,,,,,,,0.6329,,,,,,,,,,,,,,,,,,,,,,6101c5bffd584fdda7def135,61036f3d1cbe328e09cf2634,2021-07-29_22h20.47.271,Simcolourproject_2stim_asymm_v5,2020.2.10,MacIntel,60,61025ae37ef11b136ea224fe,,,,,,,,,4337,-45.046875,15.9296875,1,0,0,response7disk,,1,-10.96484375,4.14453125,1,0,0,rectangle,-10.96484375,4.14453125,1,0,0,-10.96484375,4.14453125,1,0,0,0,14,14,27,1,,,,,,,,
,,,,,,,,,,,,,FF,,,,,,,,0.583,,,,,,,,,,,,,,,,,,,,,,6101c5bffd584fdda7def135,61036f3d1cbe328e09cf2634,2021-07-29_22h20.47.271,Simcolourproject_2stim_asymm_v5,2020.2.10,MacIntel,60,61025ae37ef11b136ea224fe,,,,,,,,,2773,-30.19140625,19.046875,1,0,0,response7disk,,1,-2.9140625,-0.51171875,1,0,0,rectangle,-2.9140625,-0.51171875,1,0,0,-2.9140625,-0.51171875,1,0,0,0,15,15,148,1,,,,,,,,
,,,,,,,,,,,,,FF,,,,,,,,0.7003,,,,,,,,,,,,,,,,,,,,,,6101c5bffd584fdda7def135,61036f3d1cbe328e09cf2634,2021-07-29_22h20.47.271,Simcolourproject_2stim_asymm_v5,2020.2.10,MacIntel,60,61025ae37ef11b136ea224fe,,,,,,,,,4054,-32.08203125,30.96875,1,0,0,response7disk,,1,5.625,3.10546875,1,0,0,rectangle,5.625,3.10546875,1,0,0,5.625,3.10546875,1,0,0,0,16,16,38,1,,,,,,,,
,,,,,,,,,,,,,FF,,,,,,,,1.2668,,,,,,,,,,,,,,,,,,,,,,6101c5bffd584fdda7def135,61036f3d1cbe328e09cf2634,2021-07-29_22h20.47.271,Simcolourproject_2stim_asymm_v5,2020.2.10,MacIntel,60,61025ae37ef11b136ea224fe,,,,,,,,,2024,53.66796875,17.90625,1,0,0,response1disk,,6,6.71875,2.51953125,1,0,0,rectangle,6.71875,2.51953125,1,0,0,6.71875,2.51953125,1,0,0,0,17,17,108,1,,,,,,,,
,,,,,,,,,,,,,FF,,,,,,,,0.8172,,,,,,,,,,,,,,,,,,,,,,6101c5bffd584fdda7def135,61036f3d1cbe328e09cf2634,2021-07-29_22h20.47.271,Simcolourproject_2stim_asymm_v5,2020.2.10,MacIntel,60,61025ae37ef11b136ea224fe,,,,,,,,,747,48.3203125,23.75390625,1,0,0,response1disk,,6,15.265625,5.77734375,1,0,0,rectangle,15.265625,5.77734375,1,0,0,15.265625,5.77734375,1,0,0,0,18,18,123,1,,,,,,,,
,,,,,,,,,,,,,FF,,,,,,,,0.5674,,,,,,,,,,,,,,,,,,,,,,6101c5bffd584fdda7def135,61036f3d1cbe328e09cf2634,2021-07-29_22h20.47.271,Simcolourproject_2stim_asymm_v5,2020.2.10,MacIntel,60,61025ae37ef11b136ea224fe,,,,,,,,,1402,33.2265625,20.62890625,1,0,0,response1disk,,6,17.6640625,0.796875,1,0,0,rectangle,64.484375,42.9453125,1,0,0,26.71484375,3.62890625,1,0,0,0,19,19,40,1,,response1disk_3,TRUE,6,6,"[51,261,27,74,105,297,144,189,144,158,104,305,284,255,220,185,241,322,286,20]",1.6166,rectangle
,,,,,,,,,,,,,FF,,,,,,,,0.684,,,,,,,,,,,,,,,,,,,,,,6101c5bffd584fdda7def135,61036f3d1cbe328e09cf2634,2021-07-29_22h20.47.271,Simcolourproject_2stim_asymm_v5,2020.2.10,MacIntel,60,61025ae37ef11b136ea224fe,,,,,,,,,4255,-67.65234375,29.30859375,1,0,0,response7disk,,1,-24.3984375,12.59375,1,0,0,rectangle,-24.3984375,12.59375,1,0,0,-24.3984375,12.59375,1,0,0,0,20,20,112,1,,,,,,,,
,,,,,,,,,,,,,FF,,,,,,,,0.6994,,,,,,,,,,,,,,,,,,,,,,6101c5bffd584fdda7def135,61036f3d1cbe328e09cf2634,2021-07-29_22h20.47.271,Simcolourproject_2stim_asymm_v5,2020.2.10,MacIntel,60,61025ae37ef11b136ea224fe,,,,,,,,,1161,30.5859375,63.8046875,1,0,0,response1disk,,7,7.13671875,0.84375,1,0,0,rectangle,7.13671875,0.84375,1,0,0,7.13671875,0.84375,1,0,0,0,21,21,44,1,,,,,,,,
,,,,,,,,,,,,,FF,,,,,,,,0.6,,,,,,,,,,,,,,,,,,,,,,6101c5bffd584fdda7def135,61036f3d1cbe328e09cf2634,2021-07-29_22h20.47.271,Simcolourproject_2stim_asymm_v5,2020.2.10,MacIntel,60,61025ae37ef11b136ea224fe,,,,,,,,,47,18.81640625,50.69921875,1,0,0,response1disk,,7,5.53515625,6.03125,1,0,0,rectangle,5.53515625,6.03125,1,0,0,5.53515625,6.03125,1,0,0,0,22,22,138,1,,,,,,,,
,,,,,,,,,,,,,FF,,,,,,,,0.7509,,,,,,,,,,,,,,,,,,,,,,6101c5bffd584fdda7def135,61036f3d1cbe328e09cf2634,2021-07-29_22h20.47.271,Simcolourproject_2stim_asymm_v5,2020.2.10,MacIntel,60,61025ae37ef11b136ea224fe,,,,,,,,,1226,-51.0234375,27.71875,1,0,0,response7disk,,1,11.265625,1.98828125,1,0,0,rectangle,11.265625,1.98828125,1,0,0,11.265625,1.98828125,1,0,0,0,23,23,75,1,,,,,,,,
,,,,,,,,,,,,,FF,,,,,,,,0.899,,,,,,,,,,,,,,,,,,,,,,6101c5bffd584fdda7def135,61036f3d1cbe328e09cf2634,2021-07-29_22h20.47.271,Simcolourproject_2stim_asymm_v5,2020.2.10,MacIntel,60,61025ae37ef11b136ea224fe,,,,,,,,,2644,59.26953125,27.43359375,1,0,0,response1disk,,6,21.50390625,4.76953125,1,0,0,rectangle,21.50390625,4.76953125,1,0,0,21.50390625,4.76953125,1,0,0,0,24,24,62,1,,,,,,,,
,,,,,,,,,,,,,FF,,,,,,,,1.2338,,,,,,,,,,,,,,,,,,,,,,6101c5bffd584fdda7def135,61036f3d1cbe328e09cf2634,2021-07-29_22h20.47.271,Simcolourproject_2stim_asymm_v5,2020.2.10,MacIntel,60,61025ae37ef11b136ea224fe,,,,,,,,,560,65.13671875,17.5078125,1,0,0,response1disk,,6,19.35546875,6.54296875,1,0,0,rectangle,19.35546875,6.54296875,1,0,0,19.35546875,6.54296875,1,0,0,0,25,25,78,1,,,,,,,,
,,,,,,,,,,,,,FF,,,,,,,,0.733,,,,,,,,,,,,,,,,,,,,,,6101c5bffd584fdda7def135,61036f3d1cbe328e09cf2634,2021-07-29_22h20.47.271,Simcolourproject_2stim_asymm_v5,2020.2.10,MacIntel,60,61025ae37ef11b136ea224fe,,,,,,,,,1554,46.58203125,26.40625,1,0,0,response1disk,,6,26.80859375,12.75390625,1,0,0,rectangle,-49.09765625,-66.8984375,1,0,0,7.015625,-3.984375,1,0,0,0,26,26,28,1,,response5disk_3,TRUE,3,3,"[51,261,27,74,105,297,144,189,144,158,104,305,284,255,220,185,241,322,286,20]",2.3825,rectangle
,,,,,,,,,,,,,FF,,,,,,,,1.2162,,,,,,,,,,,,,,,,,,,,,,6101c5bffd584fdda7def135,61036f3d1cbe328e09cf2634,2021-07-29_22h20.47.271,Simcolourproject_2stim_asymm_v5,2020.2.10,MacIntel,60,61025ae37ef11b136ea224fe,,,,,,,,,1435,39.9921875,28.625,1,0,0,response1disk,,6,-2.34765625,-1.04296875,1,0,0,rectangle,-2.34765625,-1.04296875,1,0,0,-2.34765625,-1.04296875,1,0,0,0,27,27,156,1,,,,,,,,
,,,,,,,,,,,,,FF,,,,,,,,0.7326,,,,,,,,,,,,,,,,,,,,,,6101c5bffd584fdda7def135,61036f3d1cbe328e09cf2634,2021-07-29_22h20.47.271,Simcolourproject_2stim_asymm_v5,2020.2.10,MacIntel,60,61025ae37ef11b136ea224fe,,,,,,,,,2833,-29.86328125,62.0078125,1,0,0,response7disk,,0,-15.3515625,6.453125,1,0,0,rectangle,-15.3515625,6.453125,1,0,0,-15.3515625,6.453125,1,0,0,0,28,28,53,1,,,,,,,,
,,,,,,,,,,,,,FF,,,,,,,,1.2678,,,,,,,,,,,,,,,,,,,,,,6101c5bffd584fdda7def135,61036f3d1cbe328e09cf2634,2021-07-29_22h20.47.271,Simcolourproject_2stim_asymm_v5,2020.2.10,MacIntel,60,61025ae37ef11b136ea224fe,,,,,,,,,4287,45.21484375,49.9765625,1,0,0,response1disk,,7,23.5078125,13.875,1,0,0,rectangle,23.5078125,13.875,1,0,0,23.5078125,13.875,1,0,0,0,29,29,119,1,,,,,,,,
,,,,,,,,,,,,,FF,,,,,,,,0.8333,,,,,,,,,,,,,,,,,,,,,,6101c5bffd584fdda7def135,61036f3d1cbe328e09cf2634,2021-07-29_22h20.47.271,Simcolourproject_2stim_asymm_v5,2020.2.10,MacIntel,60,61025ae37ef11b136ea224fe,,,,,,,,,666,24.8046875,62.24609375,1,0,0,response1disk,,7,5.1171875,7.72265625,1,0,0,rectangle,5.1171875,7.72265625,1,0,0,5.1171875,7.72265625,1,0,0,0,30,30,121,1,,,,,,,,
,,,,,,,,,,,,,FF,,,,,,,,0.6154,,,,,,,,,,,,,,,,,,,,,,6101c5bffd584fdda7def135,61036f3d1cbe328e09cf2634,2021-07-29_22h20.47.271,Simcolourproject_2stim_asymm_v5,2020.2.10,MacIntel,60,61025ae37ef11b136ea224fe,,,,,,,,,2298,-38.921875,48.81640625,1,0,0,response7disk,,0,-16.234375,6.9609375,1,0,0,rectangle,-16.234375,6.9609375,1,0,0,-16.234375,6.9609375,1,0,0,0,31,31,146,1,,,,,,,,
,,,,,,,,,,,,,FF,,,,,,,,0.6323,,,,,,,,,,,,,,,,,,,,,,6101c5bffd584fdda7def135,61036f3d1cbe328e09cf2634,2021-07-29_22h20.47.271,Simcolourproject_2stim_asymm_v5,2020.2.10,MacIntel,60,61025ae37ef11b136ea224fe,,,,,,,,,3259,31.28515625,65.0078125,1,0,0,response1disk,,7,12.515625,14.62109375,1,0,0,rectangle,12.515625,14.62109375,1,0,0,12.515625,14.62109375,1,0,0,0,32,32,92,1,,,,,,,,
,,,,,,,,,,,,,FF,,,,,,,,0.6162,,,,,,,,,,,,,,,,,,,,,,6101c5bffd584fdda7def135,61036f3d1cbe328e09cf2634,2021-07-29_22h20.47.271,Simcolourproject_2stim_asymm_v5,2020.2.10,MacIntel,60,61025ae37ef11b136ea224fe,,,,,,,,,4089,22.3515625,44.125,1,0,0,response1disk,,7,22.3515625,10.68359375,1,0,0,rectangle,22.3515625,10.68359375,1,0,0,22.3515625,10.68359375,1,0,0,0,33,33,46,1,,,,,,,,
,,,,,,,,,,,,,FF,,,,,,,,0.5504,,,,,,,,,,,,,,,,,,,,,,6101c5bffd584fdda7def135,61036f3d1cbe328e09cf2634,2021-07-29_22h20.47.271,Simcolourproject_2stim_asymm_v5,2020.2.10,MacIntel,60,61025ae37ef11b136ea224fe,,,,,,,,,2761,42.9921875,58.83203125,1,0,0,response1disk,,7,23.21875,15.078125,1,0,0,rectangle,23.21875,15.078125,1,0,0,23.21875,15.078125,1,0,0,0,34,34,127,1,,,,,,,,
,,,,,,,,,,,,,FF,,,,,,,,0.5334,,,,,,,,,,,,,,,,,,,,,,6101c5bffd584fdda7def135,61036f3d1cbe328e09cf2634,2021-07-29_22h20.47.271,Simcolourproject_2stim_asymm_v5,2020.2.10,MacIntel,60,61025ae37ef11b136ea224fe,,,,,,,,,236,32.97265625,65.75390625,1,0,0,response1disk,,7,8.02734375,5.8203125,1,0,0,rectangle,8.02734375,5.8203125,1,0,0,8.02734375,5.8203125,1,0,0,0,35,35,82,1,,,,,,,,
,,,,,,,,,,,,,FF,,,,,,,,0.8168,,,,,,,,,,,,,,,,,,,,,,6101c5bffd584fdda7def135,61036f3d1cbe328e09cf2634,2021-07-29_22h20.47.271,Simcolourproject_2stim_asymm_v5,2020.2.10,MacIntel,60,61025ae37ef11b136ea224fe,,,,,,,,,2009,37.23046875,62.25,1,0,0,response1disk,,7,4.55078125,-0.9921875,1,0,0,rectangle,4.55078125,-0.9921875,1,0,0,4.55078125,-0.9921875,1,0,0,0,36,36,158,1,,,,,,,,
,,,,,,,,,,,,,FF,,,,,,,,0.5335,,,,,,,,,,,,,,,,,,,,,,6101c5bffd584fdda7def135,61036f3d1cbe328e09cf2634,2021-07-29_22h20.47.271,Simcolourproject_2stim_asymm_v5,2020.2.10,MacIntel,60,61025ae37ef11b136ea224fe,,,,,,,,,3365,45.94140625,81.484375,1,0,0,response1disk,,7,15.3359375,-5.484375,1,0,0,rectangle,15.3359375,-5.484375,1,0,0,15.3359375,-5.484375,1,0,0,0,37,37,99,1,,,,,,,,
,,,,,,,,,,,,,FF,,,,,,,,0.6656,,,,,,,,,,,,,,,,,,,,,,6101c5bffd584fdda7def135,61036f3d1cbe328e09cf2634,2021-07-29_22h20.47.271,Simcolourproject_2stim_asymm_v5,2020.2.10,MacIntel,60,61025ae37ef11b136ea224fe,,,,,,,,,1340,35.2734375,51.96875,1,0,0,response1disk,,7,12.328125,7.3671875,1,0,0,rectangle,12.328125,7.3671875,1,0,0,12.328125,7.3671875,1,0,0,0,38,38,124,1,,,,,,,,
,,,,,,,,,,,,,FF,,,,,,,,0.9679,,,,,,,,,,,,,,,,,,,,,,6101c5bffd584fdda7def135,61036f3d1cbe328e09cf2634,2021-07-29_22h20.47.271,Simcolourproject_2stim_asymm_v5,2020.2.10,MacIntel,60,61025ae37ef11b136ea224fe,,,,,,,,,1187,-42.578125,-83.3359375,1,0,0,response5disk,,3,-0.48046875,7.4140625,1,0,0,rectangle,-0.48046875,7.4140625,1,0,0,-0.48046875,7.4140625,1,0,0,0,39,39,126,1,,,,,,,,
,,,,,,,,,,,,,FF,,,,,,,,1.0829,,,,,,,,,,,,,,,,,,,,,,6101c5bffd584fdda7def135,61036f3d1cbe328e09cf2634,2021-07-29_22h20.47.271,Simcolourproject_2stim_asymm_v5,2020.2.10,MacIntel,60,61025ae37ef11b136ea224fe,,,,,,,,,410,42.4609375,67.4921875,1,0,0,response1disk,,7,-5.20703125,11.0390625,1,0,0,rectangle,-5.20703125,11.0390625,1,0,0,-5.20703125,11.0390625,1,0,0,0,40,40,39,1,,,,,,,,
,,,,,,,,,,,,,FF,,,,,,,,0.4655,,,,,,,,,,,,,,,,,,,,,,6101c5bffd584fdda7def135,61036f3d1cbe328e09cf2634,2021-07-29_22h20.47.271,Simcolourproject_2stim_asymm_v5,2020.2.10,MacIntel,60,61025ae37ef11b136ea224fe,,,,,,,,,3306,26,44.0859375,1,0,0,response1disk,,7,8.49609375,6.1875,1,0,0,rectangle,8.49609375,6.1875,1,0,0,8.49609375,6.1875,1,0,0,0,41,41,131,1,,,,,,,,
,,,,,,,,,,,,,FF,,,,,,,,1.118,,,,,,,,,,,,,,,,,,,,,,6101c5bffd584fdda7def135,61036f3d1cbe328e09cf2634,2021-07-29_22h20.47.271,Simcolourproject_2stim_asymm_v5,2020.2.10,MacIntel,60,61025ae37ef11b136ea224fe,,,,,,,,,3917,-49.4765625,-30.2421875,1,0,0,response5disk,,2,-16.484375,-14.84375,1,0,0,rectangle,-16.484375,-14.84375,1,0,0,-16.484375,-14.84375,1,0,0,0,42,42,143,1,,,,,,,,
,,,,,,,,,,,,,FF,,,,,,,,1.2182,,,,,,,,,,,,,,,,,,,,,,6101c5bffd584fdda7def135,61036f3d1cbe328e09cf2634,2021-07-29_22h20.47.271,Simcolourproject_2stim_asymm_v5,2020.2.10,MacIntel,60,61025ae37ef11b136ea224fe,,,,,,,,,2640,27.9140625,46.6171875,1,0,0,response1disk,,7,13.25,13.58203125,1,0,0,rectangle,13.25,13.58203125,1,0,0,13.25,13.58203125,1,0,0,0,43,43,7,1,,,,,,,,
,,,,,,,,,,,,,FF,,,,,,,,0.6839,,,,,,,,,,,,,,,,,,,,,,6101c5bffd584fdda7def135,61036f3d1cbe328e09cf2634,2021-07-29_22h20.47.271,Simcolourproject_2stim_asymm_v5,2020.2.10,MacIntel,60,61025ae37ef11b136ea224fe,,,,,,,,,4200,-35.54296875,56.0078125,1,0,0,response7disk,,0,-4.94921875,-3.66015625,1,0,0,rectangle,-4.94921875,-3.66015625,1,0,0,-4.94921875,-3.66015625,1,0,0,0,44,44,102,1,,,,,,,,
,,,,,,,,,,,,,FF,,,,,,,,0.8501,,,,,,,,,,,,,,,,,,,,,,6101c5bffd584fdda7def135,61036f3d1cbe328e09cf2634,2021-07-29_22h20.47.271,Simcolourproject_2stim_asymm_v5,2020.2.10,MacIntel,60,61025ae37ef11b136ea224fe,,,,,,,,,1207,40.12109375,55.96875,1,0,0,response1disk,,7,16.3671875,6.34375,1,0,0,rectangle,16.3671875,6.34375,1,0,0,16.3671875,6.34375,1,0,0,0,45,45,105,1,,,,,,,,
,,,,,,,,,,,,,FF,,,,,,,,0.8331,,,,,,,,,,,,,,,,,,,,,,6101c5bffd584fdda7def135,61036f3d1cbe328e09cf2634,2021-07-29_22h20.47.271,Simcolourproject_2stim_asymm_v5,2020.2.10,MacIntel,60,61025ae37ef11b136ea224fe,,,,,,,,,1825,-45.64453125,-67.3671875,1,0,0,response5disk,,3,-0.39453125,9.16015625,1,0,0,rectangle,-0.39453125,9.16015625,1,0,0,-0.39453125,9.16015625,1,0,0,0,46,46,115,1,,,,,,,,
,,,,,,,,,,,,,FF,,,,,,,,0.7494,,,,,,,,,,,,,,,,,,,,,,6101c5bffd584fdda7def135,61036f3d1cbe328e09cf2634,2021-07-29_22h20.47.271,Simcolourproject_2stim_asymm_v5,2020.2.10,MacIntel,60,61025ae37ef11b136ea224fe,,,,,,,,,3220,42.09375,62.67578125,1,0,0,response1disk,,7,14.34375,16.328125,1,0,0,rectangle,14.34375,16.328125,1,0,0,14.34375,16.328125,1,0,0,0,47,47,128,1,,,,,,,,
,,,,,,,,,,,,,FF,,,,,,,,0.4159,,,,,,,,,,,,,,,,,,,,,,6101c5bffd584fdda7def135,61036f3d1cbe328e09cf2634,2021-07-29_22h20.47.271,Simcolourproject_2stim_asymm_v5,2020.2.10,MacIntel,60,61025ae37ef11b136ea224fe,,,,,,,,,132,36.4765625,63.24609375,1,0,0,response1disk,,7,11.94921875,12.14453125,1,0,0,rectangle,11.94921875,12.14453125,1,0,0,11.94921875,12.14453125,1,0,0,0,48,48,25,1,,,,,,,,
,,,,,,,,,,,,,FF,,,,,,,,1.7174,,,,,,,,,,,,,,,,,,,,,,6101c5bffd584fdda7def135,61036f3d1cbe328e09cf2634,2021-07-29_22h20.47.271,Simcolourproject_2stim_asymm_v5,2020.2.10,MacIntel,60,61025ae37ef11b136ea224fe,,,,,,,,,3125,33.3046875,54.640625,1,0,0,response1disk,,7,14.140625,-13.4375,1,0,0,rectangle,14.140625,-13.4375,1,0,0,14.140625,-13.4375,1,0,0,0,49,49,10,1,,,,,,,,
,,,,,,,,,,,,,FF,,,,,,,,1.9665,,,,,,,,,,,,,,,,,,,,,,6101c5bffd584fdda7def135,61036f3d1cbe328e09cf2634,2021-07-29_22h20.47.271,Simcolourproject_2stim_asymm_v5,2020.2.10,MacIntel,60,61025ae37ef11b136ea224fe,,,,,,,,,3462,-41.5390625,-67.6171875,1,0,0,response5disk,,3,5.23828125,5.4140625,1,0,0,rectangle,49.02734375,-38.87890625,1,0,0,13.609375,11.421875,1,0,0,0,50,50,26,1,,response3disk_3,TRUE,5,5,"[51,261,27,74,105,297,144,189,144,158,104,305,284,255,220,185,241,322,286,20]",1.7679,rectangle
,,,,,,,,,,,,,FF,,,,,,,,0.5504,,,,,,,,,,,,,,,,,,,,,,6101c5bffd584fdda7def135,61036f3d1cbe328e09cf2634,2021-07-29_22h20.47.271,Simcolourproject_2stim_asymm_v5,2020.2.10,MacIntel,60,61025ae37ef11b136ea224fe,,,,,,,,,1459,-24.2734375,59.49609375,1,0,0,response7disk,,0,-17.0078125,8.09765625,1,0,0,rectangle,-17.0078125,8.09765625,1,0,0,-17.0078125,8.09765625,1,0,0,0,51,51,74,1,,,,,,,,
,,,,,,,,,,,,,FF,,,,,,,,0.6178,,,,,,,,,,,,,,,,,,,,,,6101c5bffd584fdda7def135,61036f3d1cbe328e09cf2634,2021-07-29_22h20.47.271,Simcolourproject_2stim_asymm_v5,2020.2.10,MacIntel,60,61025ae37ef11b136ea224fe,,,,,,,,,2753,33.8125,48.30078125,1,0,0,response1disk,,7,15.515625,7.703125,1,0,0,rectangle,15.515625,7.703125,1,0,0,15.515625,7.703125,1,0,0,0,52,52,132,1,,,,,,,,
,,,,,,,,,,,,,FF,,,,,,,,0.4491,,,,,,,,,,,,,,,,,,,,,,6101c5bffd584fdda7def135,61036f3d1cbe328e09cf2634,2021-07-29_22h20.47.271,Simcolourproject_2stim_asymm_v5,2020.2.10,MacIntel,60,61025ae37ef11b136ea224fe,,,,,,,,,1068,45.65234375,68.359375,1,0,0,response1disk,,7,19.52734375,-13.06640625,1,0,0,rectangle,19.52734375,-13.06640625,1,0,0,19.52734375,-13.06640625,1,0,0,0,53,53,85,1,,,,,,,,
,,,,,,,,,,,,,FF,,,,,,,,4.9669,,,,,,,,,,,,,,,,,,,,,,6101c5bffd584fdda7def135,61036f3d1cbe328e09cf2634,2021-07-29_22h20.47.271,Simcolourproject_2stim_asymm_v5,2020.2.10,MacIntel,60,61025ae37ef11b136ea224fe,,,,,,,,,4290,16.82421875,43.83984375,1,0,0,response1disk,,7,1.3515625,3.16015625,1,0,0,rectangle,1.3515625,3.16015625,1,0,0,1.3515625,3.16015625,1,0,0,0,54,54,67,1,,,,,,,,
,,,,,,,,,,,,,FF,,,,,,,,0.6009,,,,,,,,,,,,,,,,,,,,,,6101c5bffd584fdda7def135,61036f3d1cbe328e09cf2634,2021-07-29_22h20.47.271,Simcolourproject_2stim_asymm_v5,2020.2.10,MacIntel,60,61025ae37ef11b136ea224fe,,,,,,,,,2325,42.359375,60.1796875,1,0,0,response1disk,,7,-2.33984375,-6.6875,1,0,0,rectangle,-2.33984375,-6.6875,1,0,0,-2.33984375,-6.6875,1,0,0,0,55,55,71,1,,,,,,,,
,,,,,,,,,,,,,FF,,,,,,,,0.6168,,,,,,,,,,,,,,,,,,,,,,6101c5bffd584fdda7def135,61036f3d1cbe328e09cf2634,2021-07-29_22h20.47.271,Simcolourproject_2stim_asymm_v5,2020.2.10,MacIntel,60,61025ae37ef11b136ea224fe,,,,,,,,,4069,48.96484375,64.78125,1,0,0,response1disk,,7,8.09375,-1.99609375,1,0,0,rectangle,8.09375,-1.99609375,1,0,0,8.09375,-1.99609375,1,0,0,0,56,56,6,1,,,,,,,,
,,,,,,,,,,,,,FF,,,,,,,,0.3001,,,,,,,,,,,,,,,,,,,,,,6101c5bffd584fdda7def135,61036f3d1cbe328e09cf2634,2021-07-29_22h20.47.271,Simcolourproject_2stim_asymm_v5,2020.2.10,MacIntel,60,61025ae37ef11b136ea224fe,,,,,,,,,1284,39.69921875,44.0859375,1,0,0,response1disk,,7,14.16015625,6.78515625,1,0,0,rectangle,14.16015625,6.78515625,1,0,0,14.16015625,6.78515625,1,0,0,0,57,57,135,1,,,,,,,,
,,,,,,,,,,,,,FF,,,,,,,,0.3165,,,,,,,,,,,,,,,,,,,,,,6101c5bffd584fdda7def135,61036f3d1cbe328e09cf2634,2021-07-29_22h20.47.271,Simcolourproject_2stim_asymm_v5,2020.2.10,MacIntel,60,61025ae37ef11b136ea224fe,,,,,,,,,2842,41.765625,59.48046875,1,0,0,response1disk,,7,15.39453125,3.89453125,1,0,0,rectangle,15.39453125,3.89453125,1,0,0,15.39453125,3.89453125,1,0,0,0,58,58,52,1,,,,,,,,
,,,,,,,,,,,,,FF,,,,,,,,0.6653,,,,,,,,,,,,,,,,,,,,,,6101c5bffd584fdda7def135,61036f3d1cbe328e09cf2634,2021-07-29_22h20.47.271,Simcolourproject_2stim_asymm_v5,2020.2.10,MacIntel,60,61025ae37ef11b136ea224fe,,,,,,,,,4305,-39.8984375,53.01171875,1,0,0,response7disk,,0,-10.51953125,-0.16015625,1,0,0,rectangle,-10.51953125,-0.16015625,1,0,0,-10.51953125,-0.16015625,1,0,0,0,59,59,69,1,,,,,,,,
,,,,,,,,,,,,,FF,,,,,,,,0.5009,,,,,,,,,,,,,,,,,,,,,,6101c5bffd584fdda7def135,61036f3d1cbe328e09cf2634,2021-07-29_22h20.47.271,Simcolourproject_2stim_asymm_v5,2020.2.10,MacIntel,60,61025ae37ef11b136ea224fe,,,,,,,,,2125,41.6484375,65.15625,1,0,0,response1disk,,7,6.0078125,-7.875,1,0,0,rectangle,6.0078125,-7.875,1,0,0,6.0078125,-7.875,1,0,0,0,60,60,37,1,,,,,,,,
,,,,,,,,,,,,,FF,,,,,,,,0.6009,,,,,,,,,,,,,,,,,,,,,,6101c5bffd584fdda7def135,61036f3d1cbe328e09cf2634,2021-07-29_22h20.47.271,Simcolourproject_2stim_asymm_v5,2020.2.10,MacIntel,60,61025ae37ef11b136ea224fe,,,,,,,,,3468,-35.3203125,47.79296875,1,0,0,response7disk,,0,-21.90234375,14.55078125,1,0,0,rectangle,-21.90234375,14.55078125,1,0,0,-21.90234375,14.55078125,1,0,0,0,61,61,84,1,,,,,,,,
,,,,,,,,,,,,,FF,,,,,,,,0.5834,,,,,,,,,,,,,,,,,,,,,,6101c5bffd584fdda7def135,61036f3d1cbe328e09cf2634,2021-07-29_22h20.47.271,Simcolourproject_2stim_asymm_v5,2020.2.10,MacIntel,60,61025ae37ef11b136ea224fe,,,,,,,,,3735,33.09375,74.171875,1,0,0,response1disk,,7,3.51953125,-3.0390625,1,0,0,rectangle,3.51953125,-3.0390625,1,0,0,3.51953125,-3.0390625,1,0,0,0,62,62,95,1,,,,,,,,
,,,,,,,,,,,,,FF,,,,,,,,0.4001,,,,,,,,,,,,,,,,,,,,,,6101c5bffd584fdda7def135,61036f3d1cbe328e09cf2634,2021-07-29_22h20.47.271,Simcolourproject_2stim_asymm_v5,2020.2.10,MacIntel,60,61025ae37ef11b136ea224fe,,,,,,,,,684,40.74609375,73.921875,1,0,0,response1disk,,7,1.234375,5.66015625,1,0,0,rectangle,1.234375,5.66015625,1,0,0,1.234375,5.66015625,1,0,0,0,63,63,107,1,,,,,,,,
,,,,,,,,,,,,,FF,,,,,,,,0.6828,,,,,,,,,,,,,,,,,,,,,,6101c5bffd584fdda7def135,61036f3d1cbe328e09cf2634,2021-07-29_22h20.47.271,Simcolourproject_2stim_asymm_v5,2020.2.10,MacIntel,60,61025ae37ef11b136ea224fe,,,,,,,,,2429,30.8203125,57.25390625,1,0,0,response1disk,,7,13.43359375,11.15234375,1,0,0,rectangle,13.43359375,11.15234375,1,0,0,13.43359375,11.15234375,1,0,0,0,64,64,142,1,,,,,,,,
,,,,,,,,,,,,,FF,,,,,,,,0.6839,,,,,,,,,,,,,,,,,,,,,,6101c5bffd584fdda7def135,61036f3d1cbe328e09cf2634,2021-07-29_22h20.47.271,Simcolourproject_2stim_asymm_v5,2020.2.10,MacIntel,60,61025ae37ef11b136ea224fe,,,,,,,,,2096,-32.23046875,64.39453125,1,0,0,response7disk,,0,-15.51171875,9.3515625,1,0,0,rectangle,-15.51171875,9.3515625,1,0,0,-15.51171875,9.3515625,1,0,0,0,65,65,110,1,,,,,,,,
,,,,,,,,,,,,,FF,,,,,,,,0.9347,,,,,,,,,,,,,,,,,,,,,,6101c5bffd584fdda7def135,61036f3d1cbe328e09cf2634,2021-07-29_22h20.47.271,Simcolourproject_2stim_asymm_v5,2020.2.10,MacIntel,60,61025ae37ef11b136ea224fe,,,,,,,,,523,-37.078125,-30.01171875,1,0,0,response5disk,,2,-7.73046875,-7.078125,1,0,0,rectangle,-7.73046875,-7.078125,1,0,0,-7.73046875,-7.078125,1,0,0,0,66,66,15,1,,,,,,,,
,,,,,,,,,,,,,FF,,,,,,,,0.7998,,,,,,,,,,,,,,,,,,,,,,6101c5bffd584fdda7def135,61036f3d1cbe328e09cf2634,2021-07-29_22h20.47.271,Simcolourproject_2stim_asymm_v5,2020.2.10,MacIntel,60,61025ae37ef11b136ea224fe,,,,,,,,,1698,-49.15625,29.76171875,1,0,0,response7disk,,1,-3.7265625,11.48046875,1,0,0,rectangle,-3.7265625,11.48046875,1,0,0,-3.7265625,11.48046875,1,0,0,0,67,67,81,1,,,,,,,,
,,,,,,,,,,,,,FF,,,,,,,,154.5728,,,,,,,,,,,,,,,,,,,,,,6101c5bffd584fdda7def135,61036f3d1cbe328e09cf2634,2021-07-29_22h20.47.271,Simcolourproject_2stim_asymm_v5,2020.2.10,MacIntel,60,61025ae37ef11b136ea224fe,,,,,,,,,1551,29.30859375,46.76171875,1,0,0,response1disk,,7,13.12890625,-2.92578125,1,0,0,rectangle,13.12890625,-2.92578125,1,0,0,13.12890625,-2.92578125,1,0,0,0,68,68,151,1,,,,,,,,
,,,,,,,,,,,,,FF,,,,,,,,1.4677,,,,,,,,,,,,,,,,,,,,,,6101c5bffd584fdda7def135,61036f3d1cbe328e09cf2634,2021-07-29_22h20.47.271,Simcolourproject_2stim_asymm_v5,2020.2.10,MacIntel,60,61025ae37ef11b136ea224fe,,,,,,,,,2112,33.62890625,-58.5859375,1,0,0,response3disk,,4,16.1953125,-5.359375,1,0,0,rectangle,16.1953125,-5.359375,1,0,0,16.1953125,-5.359375,1,0,0,0,69,69,96,1,,,,,,,,
,,,,,,,,,,,,,FF,,,,,,,,0.6991,,,,,,,,,,,,,,,,,,,,,,6101c5bffd584fdda7def135,61036f3d1cbe328e09cf2634,2021-07-29_22h20.47.271,Simcolourproject_2stim_asymm_v5,2020.2.10,MacIntel,60,61025ae37ef11b136ea224fe,,,,,,,,,3394,-31.1484375,-58.4140625,1,0,0,response5disk,,3,-6.390625,-7.578125,1,0,0,rectangle,-6.390625,-7.578125,1,0,0,-6.390625,-7.578125,1,0,0,0,70,70,41,1,,,,,,,,
,,,,,,,,,,,,,FF,,,,,,,,0.5171,,,,,,,,,,,,,,,,,,,,,,6101c5bffd584fdda7def135,61036f3d1cbe328e09cf2634,2021-07-29_22h20.47.271,Simcolourproject_2stim_asymm_v5,2020.2.10,MacIntel,60,61025ae37ef11b136ea224fe,,,,,,,,,1146,46.93359375,45.6953125,1,0,0,response1disk,,6,9.8125,7.99609375,1,0,0,rectangle,9.8125,7.99609375,1,0,0,9.8125,7.99609375,1,0,0,0,71,71,64,1,,,,,,,,
,,,,,,,,,,,,,FF,,,,,,,,0.7166,,,,,,,,,,,,,,,,,,,,,,6101c5bffd584fdda7def135,61036f3d1cbe328e09cf2634,2021-07-29_22h20.47.271,Simcolourproject_2stim_asymm_v5,2020.2.10,MacIntel,60,61025ae37ef11b136ea224fe,,,,,,,,,3519,-52.390625,32.25390625,1,0,0,response7disk,,1,-2.078125,7.9609375,1,0,0,rectangle,-2.078125,7.9609375,1,0,0,-2.078125,7.9609375,1,0,0,0,72,72,70,1,,,,,,,,
,,,,,,,,,,,,,FF,,,,,,,,1.05,,,,,,,,,,,,,,,,,,,,,,6101c5bffd584fdda7def135,61036f3d1cbe328e09cf2634,2021-07-29_22h20.47.271,Simcolourproject_2stim_asymm_v5,2020.2.10,MacIntel,60,61025ae37ef11b136ea224fe,,,,,,,,,715,26.5234375,-73.08203125,1,0,0,response3disk,,4,10.57421875,14.38671875,1,0,0,rectangle,24.18359375,-75.640625,1,0,0,-1.47265625,9.85546875,1,0,0,0,73,73,109,1,,response3disk_3,TRUE,4,4,"[51,261,27,74,105,297,144,189,144,158,104,305,284,255,220,185,241,322,286,20]",1.6825,rectangle
,,,,,,,,,,,,,FF,,,,,,,,1.1496,,,,,,,,,,,,,,,,,,,,,,6101c5bffd584fdda7def135,61036f3d1cbe328e09cf2634,2021-07-29_22h20.47.271,Simcolourproject_2stim_asymm_v5,2020.2.10,MacIntel,60,61025ae37ef11b136ea224fe,,,,,,,,,736,59.3359375,-31.7265625,1,0,0,response3disk,,5,21.10546875,-1.53125,1,0,0,rectangle,21.10546875,-1.53125,1,0,0,21.10546875,-1.53125,1,0,0,0,74,74,17,1,,,,,,,,
,,,,,,,,,,,,,FF,,,,,,,,0.5002,,,,,,,,,,,,,,,,,,,,,,6101c5bffd584fdda7def135,61036f3d1cbe328e09cf2634,2021-07-29_22h20.47.271,Simcolourproject_2stim_asymm_v5,2020.2.10,MacIntel,60,61025ae37ef11b136ea224fe,,,,,,,,,3228,52.69921875,-30.65234375,1,0,0,response3disk,,5,14.96875,2.64453125,1,0,0,rectangle,14.96875,2.64453125,1,0,0,14.96875,2.64453125,1,0,0,0,75,75,79,1,,,,,,,,
,,,,,,,,,,,,,FF,,,,,,,,0.7999,,,,,,,,,,,,,,,,,,,,,,6101c5bffd584fdda7def135,61036f3d1cbe328e09cf2634,2021-07-29_22h20.47.271,Simcolourproject_2stim_asymm_v5,2020.2.10,MacIntel,60,61025ae37ef11b136ea224fe,,,,,,,,,721,-37.57421875,-43.92578125,1,0,0,response5disk,,3,-11.6171875,-6.45703125,1,0,0,rectangle,-11.6171875,-6.45703125,1,0,0,-11.6171875,-6.45703125,1,0,0,0,76,76,0,1,,,,,,,,
,,,,,,,,,,,,,FF,,,,,,,,0.5498,,,,,,,,,,,,,,,,,,,,,,6101c5bffd584fdda7def135,61036f3d1cbe328e09cf2634,2021-07-29_22h20.47.271,Simcolourproject_2stim_asymm_v5,2020.2.10,MacIntel,60,61025ae37ef11b136ea224fe,,,,,,,,,111,53.859375,-31.60546875,1,0,0,response3disk,,5,12.04296875,-4.8515625,1,0,0,rectangle,12.04296875,-4.8515625,1,0,0,12.04296875,-4.8515625,1,0,0,0,77,77,83,1,,,,,,,,
,,,,,,,,,,,,,FF,,,,,,,,0.5676,,,,,,,,,,,,,,,,,,,,,,6101c5bffd584fdda7def135,61036f3d1cbe328e09cf2634,2021-07-29_22h20.47.271,Simcolourproject_2stim_asymm_v5,2020.2.10,MacIntel,60,61025ae37ef11b136ea224fe,,,,,,,,,2799,40.87109375,-28.25,1,0,0,response3disk,,5,17.16015625,-3.1875,1,0,0,rectangle,17.16015625,-3.1875,1,0,0,17.16015625,-3.1875,1,0,0,0,78,78,137,1,,,,,,,,
,,,,,,,,,,,,,FF,,,,,,,,0.634,,,,,,,,,,,,,,,,,,,,,,6101c5bffd584fdda7def135,61036f3d1cbe328e09cf2634,2021-07-29_22h20.47.271,Simcolourproject_2stim_asymm_v5,2020.2.10,MacIntel,60,61025ae37ef11b136ea224fe,,,,,,,,,280,-38.2890625,-45.42578125,1,0,0,response5disk,,3,-13.12109375,4.2890625,1,0,0,rectangle,-13.12109375,4.2890625,1,0,0,-13.12109375,4.2890625,1,0,0,0,79,79,136,1,,,,,,,,
,,,,,,,,,,,,,FF,,,,,,,,1.6172,,,,,,,,,,,,,,,,,,,,,,6101c5bffd584fdda7def135,61036f3d1cbe328e09cf2634,2021-07-29_22h20.47.271,Simcolourproject_2stim_asymm_v5,2020.2.10,MacIntel,60,61025ae37ef11b136ea224fe,,,,,,,,,424,40.2421875,-54.046875,1,0,0,response3disk,,4,8.53125,-2.375,1,0,0,rectangle,8.53125,-2.375,1,0,0,8.53125,-2.375,1,0,0,0,80,80,66,1,,,,,,,,
,,,,,,,,,,,,,FF,,,,,,,,0.633,,,,,,,,,,,,,,,,,,,,,,6101c5bffd584fdda7def135,61036f3d1cbe328e09cf2634,2021-07-29_22h20.47.271,Simcolourproject_2stim_asymm_v5,2020.2.10,MacIntel,60,61025ae37ef11b136ea224fe,,,,,,,,,474,32.05078125,-42.1015625,1,0,0,response3disk,,4,14.66796875,3.484375,1,0,0,rectangle,14.66796875,3.484375,1,0,0,14.66796875,3.484375,1,0,0,0,81,81,94,1,,,,,,,,
,,,,,,,,,,,,,FF,,,,,,,,0.7828,,,,,,,,,,,,,,,,,,,,,,6101c5bffd584fdda7def135,61036f3d1cbe328e09cf2634,2021-07-29_22h20.47.271,Simcolourproject_2stim_asymm_v5,2020.2.10,MacIntel,60,61025ae37ef11b136ea224fe,,,,,,,,,3024,69.07421875,51.01953125,1,0,0,response1disk,,6,-15.30859375,-2.359375,1,0,0,rectangle,-15.30859375,-2.359375,1,0,0,-15.30859375,-2.359375,1,0,0,0,82,82,130,1,,,,,,,,
,,,,,,,,,,,,,FF,,,,,,,,0.8333,,,,,,,,,,,,,,,,,,,,,,6101c5bffd584fdda7def135,61036f3d1cbe328e09cf2634,2021-07-29_22h20.47.271,Simcolourproject_2stim_asymm_v5,2020.2.10,MacIntel,60,61025ae37ef11b136ea224fe,,,,,,,,,3482,-47.15625,-32.71875,1,0,0,response5disk,,2,-14.078125,-9.84375,1,0,0,rectangle,-14.078125,-9.84375,1,0,0,-14.078125,-9.84375,1,0,0,0,83,83,139,1,,,,,,,,
,,,,,,,,,,,,,FF,,,,,,,,0.7344,,,,,,,,,,,,,,,,,,,,,,6101c5bffd584fdda7def135,61036f3d1cbe328e09cf2634,2021-07-29_22h20.47.271,Simcolourproject_2stim_asymm_v5,2020.2.10,MacIntel,60,61025ae37ef11b136ea224fe,,,,,,,,,3741,-30.58984375,64.203125,1,0,0,response7disk,,0,-19.20703125,15.8203125,1,0,0,rectangle,-19.20703125,15.8203125,1,0,0,-19.20703125,15.8203125,1,0,0,0,84,84,88,1,,,,,,,,
,,,,,,,,,,,,,FF,,,,,,,,0.4853,,,,,,,,,,,,,,,,,,,,,,6101c5bffd584fdda7def135,61036f3d1cbe328e09cf2634,2021-07-29_22h20.47.271,Simcolourproject_2stim_asymm_v5,2020.2.10,MacIntel,60,61025ae37ef11b136ea224fe,,,,,,,,,2354,30.05859375,56.8984375,1,0,0,response1disk,,7,3.1875,8.7734375,1,0,0,rectangle,3.1875,8.7734375,1,0,0,3.1875,8.7734375,1,0,0,0,85,85,116,1,,,,,,,,
,,,,,,,,,,,,,FF,,,,,,,,0.468,,,,,,,,,,,,,,,,,,,,,,6101c5bffd584fdda7def135,61036f3d1cbe328e09cf2634,2021-07-29_22h20.47.271,Simcolourproject_2stim_asymm_v5,2020.2.10,MacIntel,60,61025ae37ef11b136ea224fe,,,,,,,,,1270,24.69140625,35.625,1,0,0,response1disk,,7,8.3671875,4.1328125,1,0,0,rectangle,8.3671875,4.1328125,1,0,0,8.3671875,4.1328125,1,0,0,0,86,86,33,1,,,,,,,,
,,,,,,,,,,,,,FF,,,,,,,,0.4002,,,,,,,,,,,,,,,,,,,,,,6101c5bffd584fdda7def135,61036f3d1cbe328e09cf2634,2021-07-29_22h20.47.271,Simcolourproject_2stim_asymm_v5,2020.2.10,MacIntel,60,61025ae37ef11b136ea224fe,,,,,,,,,2909,28.7109375,47.48046875,1,0,0,response1disk,,7,10.08984375,0.6875,1,0,0,rectangle,10.08984375,0.6875,1,0,0,10.08984375,0.6875,1,0,0,0,87,87,1,1,,,,,,,,
,,,,,,,,,,,,,FF,,,,,,,,0.4165,,,,,,,,,,,,,,,,,,,,,,6101c5bffd584fdda7def135,61036f3d1cbe328e09cf2634,2021-07-29_22h20.47.271,Simcolourproject_2stim_asymm_v5,2020.2.10,MacIntel,60,61025ae37ef11b136ea224fe,,,,,,,,,2283,32.796875,31.90234375,1,0,0,response1disk,,6,-9.50390625,-9.4140625,1,0,0,rectangle,-9.50390625,-9.4140625,1,0,0,-9.50390625,-9.4140625,1,0,0,0,88,88,157,1,,,,,,,,
,,,,,,,,,,,,,FF,,,,,,,,0.4676,,,,,,,,,,,,,,,,,,,,,,6101c5bffd584fdda7def135,61036f3d1cbe328e09cf2634,2021-07-29_22h20.47.271,Simcolourproject_2stim_asymm_v5,2020.2.10,MacIntel,60,61025ae37ef11b136ea224fe,,,,,,,,,3986,33.984375,24.91796875,1,0,0,response1disk,,6,4.50390625,9.26171875,1,0,0,rectangle,4.50390625,9.26171875,1,0,0,4.50390625,9.26171875,1,0,0,0,89,89,159,1,,,,,,,,
,,,,,,,,,,,,,FF,,,,,,,,0.5673,,,,,,,,,,,,,,,,,,,,,,6101c5bffd584fdda7def135,61036f3d1cbe328e09cf2634,2021-07-29_22h20.47.271,Simcolourproject_2stim_asymm_v5,2020.2.10,MacIntel,60,61025ae37ef11b136ea224fe,,,,,,,,,1147,39.4140625,30.6015625,1,0,0,response1disk,,6,4.12109375,2.6484375,1,0,0,rectangle,4.12109375,2.6484375,1,0,0,4.12109375,2.6484375,1,0,0,0,90,90,122,1,,,,,,,,
,,,,,,,,,,,,,FF,,,,,,,,0.8664,,,,,,,,,,,,,,,,,,,,,,6101c5bffd584fdda7def135,61036f3d1cbe328e09cf2634,2021-07-29_22h20.47.271,Simcolourproject_2stim_asymm_v5,2020.2.10,MacIntel,60,61025ae37ef11b136ea224fe,,,,,,,,,2823,42.45703125,25.37890625,1,0,0,response1disk,,6,7.7734375,1.0546875,1,0,0,rectangle,7.7734375,1.0546875,1,0,0,7.7734375,1.0546875,1,0,0,0,91,91,129,1,,,,,,,,
,,,,,,,,,,,,,FF,,,,,,,,0.6005,,,,,,,,,,,,,,,,,,,,,,6101c5bffd584fdda7def135,61036f3d1cbe328e09cf2634,2021-07-29_22h20.47.271,Simcolourproject_2stim_asymm_v5,2020.2.10,MacIntel,60,61025ae37ef11b136ea224fe,,,,,,,,,1326,57.46875,29.5078125,1,0,0,response1disk,,6,21.71484375,11.5234375,1,0,0,rectangle,21.71484375,11.5234375,1,0,0,21.71484375,11.5234375,1,0,0,0,92,92,86,1,,,,,,,,
,,,,,,,,,,,,,FF,,,,,,,,1.0177,,,,,,,,,,,,,,,,,,,,,,6101c5bffd584fdda7def135,61036f3d1cbe328e09cf2634,2021-07-29_22h20.47.271,Simcolourproject_2stim_asymm_v5,2020.2.10,MacIntel,60,61025ae37ef11b136ea224fe,,,,,,,,,1584,-68.37890625,-35.4375,1,0,0,response5disk,,2,7.9296875,-3.0078125,1,0,0,rectangle,7.9296875,-3.0078125,1,0,0,7.9296875,-3.0078125,1,0,0,0,93,93,58,1,,,,,,,,
,,,,,,,,,,,,,FF,,,,,,,,1.0332,,,,,,,,,,,,,,,,,,,,,,6101c5bffd584fdda7def135,61036f3d1cbe328e09cf2634,2021-07-29_22h20.47.271,Simcolourproject_2stim_asymm_v5,2020.2.10,MacIntel,60,61025ae37ef11b136ea224fe,,,,,,,,,3825,43.1796875,-78.2734375,1,0,0,response3disk,,4,15.609375,-12.61328125,1,0,0,rectangle,15.609375,-12.61328125,1,0,0,15.609375,-12.61328125,1,0,0,0,94,94,18,1,,,,,,,,
,,,,,,,,,,,,,FF,,,,,,,,0.5168,,,,,,,,,,,,,,,,,,,,,,6101c5bffd584fdda7def135,61036f3d1cbe328e09cf2634,2021-07-29_22h20.47.271,Simcolourproject_2stim_asymm_v5,2020.2.10,MacIntel,60,61025ae37ef11b136ea224fe,,,,,,,,,2348,38.80078125,24.671875,1,0,0,response1disk,,6,13.3515625,10.36328125,1,0,0,rectangle,13.3515625,10.36328125,1,0,0,13.3515625,10.36328125,1,0,0,0,95,95,9,1,,,,,,,,
,,,,,,,,,,,,,FF,,,,,,,,0.5509,,,,,,,,,,,,,,,,,,,,,,6101c5bffd584fdda7def135,61036f3d1cbe328e09cf2634,2021-07-29_22h20.47.271,Simcolourproject_2stim_asymm_v5,2020.2.10,MacIntel,60,61025ae37ef11b136ea224fe,,,,,,,,,93,-39.8359375,57.3046875,1,0,0,response7disk,,0,-16.50390625,16.45703125,1,0,0,rectangle,-16.50390625,16.45703125,1,0,0,-16.50390625,16.45703125,1,0,0,0,96,96,5,1,,,,,,,,
,,,,,,,,,,,,,FF,,,,,,,,0.5844,,,,,,,,,,,,,,,,,,,,,,6101c5bffd584fdda7def135,61036f3d1cbe328e09cf2634,2021-07-29_22h20.47.271,Simcolourproject_2stim_asymm_v5,2020.2.10,MacIntel,60,61025ae37ef11b136ea224fe,,,,,,,,,2643,41.1328125,44.2578125,1,0,0,response1disk,,7,9.05859375,3.296875,1,0,0,rectangle,9.05859375,3.296875,1,0,0,9.05859375,3.296875,1,0,0,0,97,97,149,1,,,,,,,,
,,,,,,,,,,,,,FF,,,,,,,,0.3995,,,,,,,,,,,,,,,,,,,,,,6101c5bffd584fdda7def135,61036f3d1cbe328e09cf2634,2021-07-29_22h20.47.271,Simcolourproject_2stim_asymm_v5,2020.2.10,MacIntel,60,61025ae37ef11b136ea224fe,,,,,,,,,2432,34.01171875,52.625,1,0,0,response1disk,,7,14.34375,11.40625,1,0,0,rectangle,14.34375,11.40625,1,0,0,14.34375,11.40625,1,0,0,0,98,98,50,1,,,,,,,,
,,,,,,,,,,,,,FF,,,,,,,,0.4507,,,,,,,,,,,,,,,,,,,,,,6101c5bffd584fdda7def135,61036f3d1cbe328e09cf2634,2021-07-29_22h20.47.271,Simcolourproject_2stim_asymm_v5,2020.2.10,MacIntel,60,61025ae37ef11b136ea224fe,,,,,,,,,2161,22.421875,43.55078125,1,0,0,response1disk,,7,8.0546875,4.421875,1,0,0,rectangle,8.0546875,4.421875,1,0,0,8.0546875,4.421875,1,0,0,0,99,99,65,1,,,,,,,,
,,,,,,,,,,,,,FF,,,,,,,,1.2838,,,,,,,,,,,,,,,,,,,,,,6101c5bffd584fdda7def135,61036f3d1cbe328e09cf2634,2021-07-29_22h20.47.271,Simcolourproject_2stim_asymm_v5,2020.2.10,MacIntel,60,61025ae37ef11b136ea224fe,,,,,,,,,3950,29.21484375,-83.5625,1,0,0,response3disk,,4,9.65625,-14.10546875,1,0,0,rectangle,9.65625,-14.10546875,1,0,0,9.65625,-14.10546875,1,0,0,0,100,100,89,1,,,,,,,,
,,,,,,,,,,,,,FF,,,,,,,,0.4661,,,,,,,,,,,,,,,,,,,,,,6101c5bffd584fdda7def135,61036f3d1cbe328e09cf2634,2021-07-29_22h20.47.271,Simcolourproject_2stim_asymm_v5,2020.2.10,MacIntel,60,61025ae37ef11b136ea224fe,,,,,,,,,1305,30.7421875,47.61328125,1,0,0,response1disk,,7,15.02734375,16.703125,1,0,0,rectangle,15.02734375,16.703125,1,0,0,15.02734375,16.703125,1,0,0,0,101,101,55,1,,,,,,,,
,,,,,,,,,,,,,FF,,,,,,,,0.5159,,,,,,,,,,,,,,,,,,,,,,6101c5bffd584fdda7def135,61036f3d1cbe328e09cf2634,2021-07-29_22h20.47.271,Simcolourproject_2stim_asymm_v5,2020.2.10,MacIntel,60,61025ae37ef11b136ea224fe,,,,,,,,,2138,21.0078125,53.62109375,1,0,0,response1disk,,7,2.7734375,9.5078125,1,0,0,rectangle,2.7734375,9.5078125,1,0,0,2.7734375,9.5078125,1,0,0,0,102,102,59,1,,,,,,,,
,,,,,,,,,,,,,FF,,,,,,,,0.4331,,,,,,,,,,,,,,,,,,,,,,6101c5bffd584fdda7def135,61036f3d1cbe328e09cf2634,2021-07-29_22h20.47.271,Simcolourproject_2stim_asymm_v5,2020.2.10,MacIntel,60,61025ae37ef11b136ea224fe,,,,,,,,,3851,23.01953125,51.98046875,1,0,0,response1disk,,7,8.37109375,-2.578125,1,0,0,rectangle,40.58984375,64.03125,1,0,0,19.66015625,4.08203125,1,0,0,0,103,103,45,1,,response1disk_3,TRUE,7,7,"[51,261,27,74,105,297,144,189,144,158,104,305,284,255,220,185,241,322,286,20]",1.3835,rectangle
,,,,,,,,,,,,,FF,,,,,,,,1.2162,,,,,,,,,,,,,,,,,,,,,,6101c5bffd584fdda7def135,61036f3d1cbe328e09cf2634,2021-07-29_22h20.47.271,Simcolourproject_2stim_asymm_v5,2020.2.10,MacIntel,60,61025ae37ef11b136ea224fe,,,,,,,,,4029,32.90625,34.921875,1,0,0,response1disk,,7,-8.3359375,1.48046875,1,0,0,rectangle,37.46875,-31.375,1,0,0,7.92578125,-8.8984375,1,0,0,0,104,104,113,1,,response3disk_3,TRUE,5,5,"[51,261,27,74,105,297,144,189,144,158,104,305,284,255,220,185,241,322,286,20]",1.4674,rectangle
,,,,,,,,,,,,,FF,,,,,,,,0.599,,,,,,,,,,,,,,,,,,,,,,6101c5bffd584fdda7def135,61036f3d1cbe328e09cf2634,2021-07-29_22h20.47.271,Simcolourproject_2stim_asymm_v5,2020.2.10,MacIntel,60,61025ae37ef11b136ea224fe,,,,,,,,,1504,40.12109375,17.6953125,1,0,0,response1disk,,6,22.80078125,15.80859375,1,0,0,rectangle,22.80078125,15.80859375,1,0,0,22.80078125,15.80859375,1,0,0,0,105,105,80,1,,,,,,,,
,,,,,,,,,,,,,FF,,,,,,,,1.5997,,,,,,,,,,,,,,,,,,,,,,6101c5bffd584fdda7def135,61036f3d1cbe328e09cf2634,2021-07-29_22h20.47.271,Simcolourproject_2stim_asymm_v5,2020.2.10,MacIntel,60,61025ae37ef11b136ea224fe,,,,,,,,,1877,52.1875,39.35546875,1,0,0,response1disk,,6,8.7734375,1.7734375,1,0,0,rectangle,8.7734375,1.7734375,1,0,0,8.7734375,1.7734375,1,0,0,0,106,106,152,1,,,,,,,,
,,,,,,,,,,,,,FF,,,,,,,,0.783,,,,,,,,,,,,,,,,,,,,,,6101c5bffd584fdda7def135,61036f3d1cbe328e09cf2634,2021-07-29_22h20.47.271,Simcolourproject_2stim_asymm_v5,2020.2.10,MacIntel,60,61025ae37ef11b136ea224fe,,,,,,,,,889,-21.890625,50.83984375,1,0,0,response7disk,,0,-11.55078125,-8.9375,1,0,0,rectangle,-11.55078125,-8.9375,1,0,0,-11.55078125,-8.9375,1,0,0,0,107,107,140,1,,,,,,,,
,,,,,,,,,,,,,FF,,,,,,,,0.7333,,,,,,,,,,,,,,,,,,,,,,6101c5bffd584fdda7def135,61036f3d1cbe328e09cf2634,2021-07-29_22h20.47.271,Simcolourproject_2stim_asymm_v5,2020.2.10,MacIntel,60,61025ae37ef11b136ea224fe,,,,,,,,,330,49.546875,-26.37109375,1,0,0,response3disk,,5,19.1484375,-3.21484375,1,0,0,rectangle,19.1484375,-3.21484375,1,0,0,19.1484375,-3.21484375,1,0,0,0,108,108,61,1,,,,,,,,
,,,,,,,,,,,,,FF,,,,,,,,0.701,,,,,,,,,,,,,,,,,,,,,,6101c5bffd584fdda7def135,61036f3d1cbe328e09cf2634,2021-07-29_22h20.47.271,Simcolourproject_2stim_asymm_v5,2020.2.10,MacIntel,60,61025ae37ef11b136ea224fe,,,,,,,,,3535,38.640625,22.52734375,1,0,0,response1disk,,6,8.38671875,0.890625,1,0,0,rectangle,8.38671875,0.890625,1,0,0,8.38671875,0.890625,1,0,0,0,109,109,134,1,,,,,,,,
,,,,,,,,,,,,,FF,,,,,,,,0.601,,,,,,,,,,,,,,,,,,,,,,6101c5bffd584fdda7def135,61036f3d1cbe328e09cf2634,2021-07-29_22h20.47.271,Simcolourproject_2stim_asymm_v5,2020.2.10,MacIntel,60,61025ae37ef11b136ea224fe,,,,,,,,,3655,25.5390625,29.765625,1,0,0,response1disk,,7,18.87890625,16.72265625,1,0,0,rectangle,18.87890625,16.72265625,1,0,0,18.87890625,16.72265625,1,0,0,0,110,110,117,1,,,,,,,,
,,,,,,,,,,,,,FF,,,,,,,,0.4169,,,,,,,,,,,,,,,,,,,,,,6101c5bffd584fdda7def135,61036f3d1cbe328e09cf2634,2021-07-29_22h20.47.271,Simcolourproject_2stim_asymm_v5,2020.2.10,MacIntel,60,61025ae37ef11b136ea224fe,,,,,,,,,2006,42.125,38.8203125,1,0,0,response1disk,,6,12.546875,6.06640625,1,0,0,rectangle,12.546875,6.06640625,1,0,0,12.546875,6.06640625,1,0,0,0,111,111,2,1,,,,,,,,
,,,,,,,,,,,,,FF,,,,,,,,0.567,,,,,,,,,,,,,,,,,,,,,,6101c5bffd584fdda7def135,61036f3d1cbe328e09cf2634,2021-07-29_22h20.47.271,Simcolourproject_2stim_asymm_v5,2020.2.10,MacIntel,60,61025ae37ef11b136ea224fe,,,,,,,,,3391,-18.70703125,48.02734375,1,0,0,response7disk,,0,-1.42578125,2.30078125,1,0,0,rectangle,-1.42578125,2.30078125,1,0,0,-1.42578125,2.30078125,1,0,0,0,112,112,97,1,,,,,,,,
,,,,,,,,,,,,,FF,,,,,,,,0.466,,,,,,,,,,,,,,,,,,,,,,6101c5bffd584fdda7def135,61036f3d1cbe328e09cf2634,2021-07-29_22h20.47.271,Simcolourproject_2stim_asymm_v5,2020.2.10,MacIntel,60,61025ae37ef11b136ea224fe,,,,,,,,,2120,35.3046875,58.50390625,1,0,0,response1disk,,7,14.4375,17.43359375,1,0,0,rectangle,14.4375,17.43359375,1,0,0,14.4375,17.43359375,1,0,0,0,113,113,87,1,,,,,,,,
,,,,,,,,,,,,,FF,,,,,,,,0.4324,,,,,,,,,,,,,,,,,,,,,,6101c5bffd584fdda7def135,61036f3d1cbe328e09cf2634,2021-07-29_22h20.47.271,Simcolourproject_2stim_asymm_v5,2020.2.10,MacIntel,60,61025ae37ef11b136ea224fe,,,,,,,,,2514,34.5078125,48.3359375,1,0,0,response1disk,,7,13.26171875,7.66796875,1,0,0,rectangle,13.26171875,7.66796875,1,0,0,13.26171875,7.66796875,1,0,0,0,114,114,43,1,,,,,,,,
,,,,,,,,,,,,,FF,,,,,,,,0.4497,,,,,,,,,,,,,,,,,,,,,,6101c5bffd584fdda7def135,61036f3d1cbe328e09cf2634,2021-07-29_22h20.47.271,Simcolourproject_2stim_asymm_v5,2020.2.10,MacIntel,60,61025ae37ef11b136ea224fe,,,,,,,,,1660,32.9765625,48.6171875,1,0,0,response1disk,,7,17.38671875,1.625,1,0,0,rectangle,17.38671875,1.625,1,0,0,17.38671875,1.625,1,0,0,0,115,115,57,1,,,,,,,,
,,,,,,,,,,,,,FF,,,,,,,,0.4007,,,,,,,,,,,,,,,,,,,,,,6101c5bffd584fdda7def135,61036f3d1cbe328e09cf2634,2021-07-29_22h20.47.271,Simcolourproject_2stim_asymm_v5,2020.2.10,MacIntel,60,61025ae37ef11b136ea224fe,,,,,,,,,1166,26.80078125,33.9921875,1,0,0,response1disk,,7,8.01171875,2.1484375,1,0,0,rectangle,8.01171875,2.1484375,1,0,0,8.01171875,2.1484375,1,0,0,0,116,116,125,1,,,,,,,,
,,,,,,,,,,,,,FF,,,,,,,,0.8661,,,,,,,,,,,,,,,,,,,,,,6101c5bffd584fdda7def135,61036f3d1cbe328e09cf2634,2021-07-29_22h20.47.271,Simcolourproject_2stim_asymm_v5,2020.2.10,MacIntel,60,61025ae37ef11b136ea224fe,,,,,,,,,370,28.73046875,-56.00390625,1,0,0,response3disk,,4,8.0703125,0.84375,1,0,0,rectangle,8.0703125,0.84375,1,0,0,8.0703125,0.84375,1,0,0,0,117,117,147,1,,,,,,,,
,,,,,,,,,,,,,FF,,,,,,,,0.433,,,,,,,,,,,,,,,,,,,,,,6101c5bffd584fdda7def135,61036f3d1cbe328e09cf2634,2021-07-29_22h20.47.271,Simcolourproject_2stim_asymm_v5,2020.2.10,MacIntel,60,61025ae37ef11b136ea224fe,,,,,,,,,2074,42.6328125,26.1796875,1,0,0,response1disk,,6,14.921875,7.33203125,1,0,0,rectangle,14.921875,7.33203125,1,0,0,14.921875,7.33203125,1,0,0,0,118,118,73,1,,,,,,,,
,,,,,,,,,,,,,FF,,,,,,,,0.3835,,,,,,,,,,,,,,,,,,,,,,6101c5bffd584fdda7def135,61036f3d1cbe328e09cf2634,2021-07-29_22h20.47.271,Simcolourproject_2stim_asymm_v5,2020.2.10,MacIntel,60,61025ae37ef11b136ea224fe,,,,,,,,,924,24.953125,37.10546875,1,0,0,response1disk,,7,14.61328125,9.69140625,1,0,0,rectangle,14.61328125,9.69140625,1,0,0,14.61328125,9.69140625,1,0,0,0,119,119,155,1,,,,,,,,
,,,,,,,,,,,,,FF,,,,,,,,0.4,,,,,,,,,,,,,,,,,,,,,,6101c5bffd584fdda7def135,61036f3d1cbe328e09cf2634,2021-07-29_22h20.47.271,Simcolourproject_2stim_asymm_v5,2020.2.10,MacIntel,60,61025ae37ef11b136ea224fe,,,,,,,,,899,29.02734375,44.640625,1,0,0,response1disk,,7,15.04296875,4.83203125,1,0,0,rectangle,15.04296875,4.83203125,1,0,0,15.04296875,4.83203125,1,0,0,0,120,120,63,1,,,,,,,,
,,,,,,,,,,,,,FF,,,,,,,,1.149,,,,,,,,,,,,,,,,,,,,,,6101c5bffd584fdda7def135,61036f3d1cbe328e09cf2634,2021-07-29_22h20.47.271,Simcolourproject_2stim_asymm_v5,2020.2.10,MacIntel,60,61025ae37ef11b136ea224fe,,,,,,,,,3702,-49.51171875,-36.35546875,1,0,0,response5disk,,2,0.64453125,13.625,1,0,0,rectangle,0.64453125,13.625,1,0,0,0.64453125,13.625,1,0,0,0,121,121,42,1,,,,,,,,
,,,,,,,,,,,,,FF,,,,,,,,1.2675,,,,,,,,,,,,,,,,,,,,,,6101c5bffd584fdda7def135,61036f3d1cbe328e09cf2634,2021-07-29_22h20.47.271,Simcolourproject_2stim_asymm_v5,2020.2.10,MacIntel,60,61025ae37ef11b136ea224fe,,,,,,,,,4082,44.05078125,-90.625,1,0,0,response3disk,,4,14.26171875,-7.9921875,1,0,0,rectangle,14.26171875,-7.9921875,1,0,0,14.26171875,-7.9921875,1,0,0,0,122,122,23,1,,,,,,,,
,,,,,,,,,,,,,FF,,,,,,,,0.6337,,,,,,,,,,,,,,,,,,,,,,6101c5bffd584fdda7def135,61036f3d1cbe328e09cf2634,2021-07-29_22h20.47.271,Simcolourproject_2stim_asymm_v5,2020.2.10,MacIntel,60,61025ae37ef11b136ea224fe,,,,,,,,,1056,-67.484375,76.57421875,1,0,0,response7disk,,0,-10.59375,-0.80078125,1,0,0,rectangle,-10.59375,-0.80078125,1,0,0,-10.59375,-0.80078125,1,0,0,0,123,123,91,1,,,,,,,,
,,,,,,,,,,,,,FF,,,,,,,,0.4338,,,,,,,,,,,,,,,,,,,,,,6101c5bffd584fdda7def135,61036f3d1cbe328e09cf2634,2021-07-29_22h20.47.271,Simcolourproject_2stim_asymm_v5,2020.2.10,MacIntel,60,61025ae37ef11b136ea224fe,,,,,,,,,1464,-29.265625,33.171875,1,0,0,response7disk,,0,-10.5625,-1.15234375,1,0,0,rectangle,-10.5625,-1.15234375,1,0,0,-10.5625,-1.15234375,1,0,0,0,124,124,120,1,,,,,,,,
,,,,,,,,,,,,,FF,,,,,,,,0.3997,,,,,,,,,,,,,,,,,,,,,,6101c5bffd584fdda7def135,61036f3d1cbe328e09cf2634,2021-07-29_22h20.47.271,Simcolourproject_2stim_asymm_v5,2020.2.10,MacIntel,60,61025ae37ef11b136ea224fe,,,,,,,,,1777,30.58984375,46.06640625,1,0,0,response1disk,,7,11.265625,12.3515625,1,0,0,rectangle,11.265625,12.3515625,1,0,0,11.265625,12.3515625,1,0,0,0,125,125,3,1,,,,,,,,
,,,,,,,,,,,,,FF,,,,,,,,0.9833,,,,,,,,,,,,,,,,,,,,,,6101c5bffd584fdda7def135,61036f3d1cbe328e09cf2634,2021-07-29_22h20.47.271,Simcolourproject_2stim_asymm_v5,2020.2.10,MacIntel,60,61025ae37ef11b136ea224fe,,,,,,,,,3099,-32.40625,44.03515625,1,0,0,response7disk,,0,-12.59375,-0.53125,1,0,0,rectangle,-12.59375,-0.53125,1,0,0,-12.59375,-0.53125,1,0,0,0,126,126,47,1,,,,,,,,
,,,,,,,,,,,,,FF,,,,,,,,2.1834,,,,,,,,,,,,,,,,,,,,,,6101c5bffd584fdda7def135,61036f3d1cbe328e09cf2634,2021-07-29_22h20.47.271,Simcolourproject_2stim_asymm_v5,2020.2.10,MacIntel,60,61025ae37ef11b136ea224fe,,,,,,,,,2608,-25.0546875,63.75,1,0,0,response7disk,,0,-2.625,3.46484375,1,0,0,rectangle,-2.625,3.46484375,1,0,0,-2.625,3.46484375,1,0,0,0,127,127,153,1,,,,,,,,
,,,,,,,,,,,,,FF,,,,,,,,0.4509,,,,,,,,,,,,,,,,,,,,,,6101c5bffd584fdda7def135,61036f3d1cbe328e09cf2634,2021-07-29_22h20.47.271,Simcolourproject_2stim_asymm_v5,2020.2.10,MacIntel,60,61025ae37ef11b136ea224fe,,,,,,,,,4282,-32.14453125,56.09375,1,0,0,response7disk,,0,0.61328125,5.5390625,1,0,0,rectangle,0.61328125,5.5390625,1,0,0,0.61328125,5.5390625,1,0,0,0,128,128,19,1,,,,,,,,
,,,,,,,,,,,,,FF,,,,,,,,0.9844,,,,,,,,,,,,,,,,,,,,,,6101c5bffd584fdda7def135,61036f3d1cbe328e09cf2634,2021-07-29_22h20.47.271,Simcolourproject_2stim_asymm_v5,2020.2.10,MacIntel,60,61025ae37ef11b136ea224fe,,,,,,,,,1587,22.20703125,-63.9453125,1,0,0,response3disk,,4,16.50390625,3.71875,1,0,0,rectangle,16.50390625,3.71875,1,0,0,16.50390625,3.71875,1,0,0,0,129,129,22,1,,,,,,,,
,,,,,,,,,,,,,FF,,,,,,,,0.5673,,,,,,,,,,,,,,,,,,,,,,6101c5bffd584fdda7def135,61036f3d1cbe328e09cf2634,2021-07-29_22h20.47.271,Simcolourproject_2stim_asymm_v5,2020.2.10,MacIntel,60,61025ae37ef11b136ea224fe,,,,,,,,,1222,-21.38671875,45.33203125,1,0,0,response7disk,,0,-8.234375,7.4765625,1,0,0,rectangle,-8.234375,7.4765625,1,0,0,-8.234375,7.4765625,1,0,0,0,130,130,104,1,,,,,,,,
,,,,,,,,,,,,,FF,,,,,,,,0.45,,,,,,,,,,,,,,,,,,,,,,6101c5bffd584fdda7def135,61036f3d1cbe328e09cf2634,2021-07-29_22h20.47.271,Simcolourproject_2stim_asymm_v5,2020.2.10,MacIntel,60,61025ae37ef11b136ea224fe,,,,,,,,,1171,34.53515625,46.03515625,1,0,0,response1disk,,7,16.59765625,5.55859375,1,0,0,rectangle,16.59765625,5.55859375,1,0,0,16.59765625,5.55859375,1,0,0,0,131,131,34,1,,,,,,,,
,,,,,,,,,,,,,FF,,,,,,,,0.2826,,,,,,,,,,,,,,,,,,,,,,6101c5bffd584fdda7def135,61036f3d1cbe328e09cf2634,2021-07-29_22h20.47.271,Simcolourproject_2stim_asymm_v5,2020.2.10,MacIntel,60,61025ae37ef11b136ea224fe,,,,,,,,,1834,39.2578125,45.6015625,1,0,0,response1disk,,7,11.203125,1.72265625,1,0,0,rectangle,11.203125,1.72265625,1,0,0,11.203125,1.72265625,1,0,0,0,132,132,36,1,,,,,,,,
,,,,,,,,,,,,,FF,,,,,,,,0.3498,,,,,,,,,,,,,,,,,,,,,,6101c5bffd584fdda7def135,61036f3d1cbe328e09cf2634,2021-07-29_22h20.47.271,Simcolourproject_2stim_asymm_v5,2020.2.10,MacIntel,60,61025ae37ef11b136ea224fe,,,,,,,,,3164,32.08203125,55.27734375,1,0,0,response1disk,,7,13.96484375,17.6796875,1,0,0,rectangle,13.96484375,17.6796875,1,0,0,13.96484375,17.6796875,1,0,0,0,133,133,31,1,,,,,,,,
,,,,,,,,,,,,,FF,,,,,,,,0.8654,,,,,,,,,,,,,,,,,,,,,,6101c5bffd584fdda7def135,61036f3d1cbe328e09cf2634,2021-07-29_22h20.47.271,Simcolourproject_2stim_asymm_v5,2020.2.10,MacIntel,60,61025ae37ef11b136ea224fe,,,,,,,,,3440,-47.19921875,-29.62109375,1,0,0,response5disk,,2,-9.07421875,-3.56640625,1,0,0,rectangle,-9.07421875,-3.56640625,1,0,0,-9.07421875,-3.56640625,1,0,0,0,134,134,101,1,,,,,,,,
,,,,,,,,,,,,,FF,,,,,,,,6.7339,,,,,,,,,,,,,,,,,,,,,,6101c5bffd584fdda7def135,61036f3d1cbe328e09cf2634,2021-07-29_22h20.47.271,Simcolourproject_2stim_asymm_v5,2020.2.10,MacIntel,60,61025ae37ef11b136ea224fe,,,,,,,,,745,26.24609375,23.2421875,1,0,0,response1disk,,6,6.375,1.80859375,1,0,0,rectangle,6.375,1.80859375,1,0,0,6.375,1.80859375,1,0,0,0,135,135,68,1,,,,,,,,
,,,,,,,,,,,,,FF,,,,,,,,0.5502,,,,,,,,,,,,,,,,,,,,,,6101c5bffd584fdda7def135,61036f3d1cbe328e09cf2634,2021-07-29_22h20.47.271,Simcolourproject_2stim_asymm_v5,2020.2.10,MacIntel,60,61025ae37ef11b136ea224fe,,,,,,,,,2002,34.27734375,43.12890625,1,0,0,response1disk,,7,16.1875,4.2578125,1,0,0,rectangle,16.1875,4.2578125,1,0,0,16.1875,4.2578125,1,0,0,0,136,136,103,1,,,,,,,,
,,,,,,,,,,,,,FF,,,,,,,,0.3662,,,,,,,,,,,,,,,,,,,,,,6101c5bffd584fdda7def135,61036f3d1cbe328e09cf2634,2021-07-29_22h20.47.271,Simcolourproject_2stim_asymm_v5,2020.2.10,MacIntel,60,61025ae37ef11b136ea224fe,,,,,,,,,2008,29.75,41.40625,1,0,0,response1disk,,7,1.11328125,-13.12109375,1,0,0,rectangle,1.11328125,-13.12109375,1,0,0,1.11328125,-13.12109375,1,0,0,0,137,137,24,1,,,,,,,,
,,,,,,,,,,,,,FF,,,,,,,,0.8843,,,,,,,,,,,,,,,,,,,,,,6101c5bffd584fdda7def135,61036f3d1cbe328e09cf2634,2021-07-29_22h20.47.271,Simcolourproject_2stim_asymm_v5,2020.2.10,MacIntel,60,61025ae37ef11b136ea224fe,,,,,,,,,643,37.61328125,31.33203125,1,0,0,response1disk,,6,9.87890625,-5.671875,1,0,0,rectangle,9.87890625,-5.671875,1,0,0,9.87890625,-5.671875,1,0,0,0,138,138,145,1,,,,,,,,
,,,,,,,,,,,,,FF,,,,,,,,1.4325,,,,,,,,,,,,,,,,,,,,,,6101c5bffd584fdda7def135,61036f3d1cbe328e09cf2634,2021-07-29_22h20.47.271,Simcolourproject_2stim_asymm_v5,2020.2.10,MacIntel,60,61025ae37ef11b136ea224fe,,,,,,,,,1517,34.3046875,19.33203125,1,0,0,response1disk,,6,8.8125,6.78125,1,0,0,rectangle,8.8125,6.78125,1,0,0,8.8125,6.78125,1,0,0,0,139,139,118,1,,,,,,,,
,,,,,,,,,,,,,FF,,,,,,,,1.4996,,,,,,,,,,,,,,,,,,,,,,6101c5bffd584fdda7def135,61036f3d1cbe328e09cf2634,2021-07-29_22h20.47.271,Simcolourproject_2stim_asymm_v5,2020.2.10,MacIntel,60,61025ae37ef11b136ea224fe,,,,,,,,,179,27.1796875,25.9609375,1,0,0,response1disk,,6,-0.5078125,-1.984375,1,0,0,rectangle,-0.5078125,-1.984375,1,0,0,-0.5078125,-1.984375,1,0,0,0,140,140,49,1,,,,,,,,
,,,,,,,,,,,,,FF,,,,,,,,2.3669,,,,,,,,,,,,,,,,,,,,,,6101c5bffd584fdda7def135,61036f3d1cbe328e09cf2634,2021-07-29_22h20.47.271,Simcolourproject_2stim_asymm_v5,2020.2.10,MacIntel,60,61025ae37ef11b136ea224fe,,,,,,,,,1309,-21.015625,42.14453125,1,0,0,response7disk,,0,3.3984375,2.890625,1,0,0,rectangle,3.3984375,2.890625,1,0,0,3.3984375,2.890625,1,0,0,0,141,141,90,1,,,,,,,,
,,,,,,,,,,,,,FF,,,,,,,,0.6334,,,,,,,,,,,,,,,,,,,,,,6101c5bffd584fdda7def135,61036f3d1cbe328e09cf2634,2021-07-29_22h20.47.271,Simcolourproject_2stim_asymm_v5,2020.2.10,MacIntel,60,61025ae37ef11b136ea224fe,,,,,,,,,4336,-29.98828125,40.265625,1,0,0,response7disk,,0,-13.4375,12.78125,1,0,0,rectangle,-13.4375,12.78125,1,0,0,-13.4375,12.78125,1,0,0,0,142,142,77,1,,,,,,,,
,,,,,,,,,,,,,FF,,,,,,,,0.416,,,,,,,,,,,,,,,,,,,,,,6101c5bffd584fdda7def135,61036f3d1cbe328e09cf2634,2021-07-29_22h20.47.271,Simcolourproject_2stim_asymm_v5,2020.2.10,MacIntel,60,61025ae37ef11b136ea224fe,,,,,,,,,555,-21.30078125,36.7265625,1,0,0,response7disk,,0,3.98046875,-5.8671875,1,0,0,rectangle,49.890625,-15.328125,1,0,0,16.0234375,5.90234375,1,0,0,0,143,143,144,1,,response3disk_3,TRUE,5,5,"[51,261,27,74,105,297,144,189,144,158,104,305,284,255,220,185,241,322,286,20]",1.6175,rectangle
,,,,,,,,,,,,,FF,,,,,,,,0.5834,,,,,,,,,,,,,,,,,,,,,,6101c5bffd584fdda7def135,61036f3d1cbe328e09cf2634,2021-07-29_22h20.47.271,Simcolourproject_2stim_asymm_v5,2020.2.10,MacIntel,60,61025ae37ef11b136ea224fe,,,,,,,,,2454,43.1796875,27.71484375,1,0,0,response1disk,,6,4.70703125,4.96484375,1,0,0,rectangle,4.70703125,4.96484375,1,0,0,4.70703125,4.96484375,1,0,0,0,144,144,13,1,,,,,,,,
,,,,,,,,,,,,,FF,,,,,,,,0.8679,,,,,,,,,,,,,,,,,,,,,,6101c5bffd584fdda7def135,61036f3d1cbe328e09cf2634,2021-07-29_22h20.47.271,Simcolourproject_2stim_asymm_v5,2020.2.10,MacIntel,60,61025ae37ef11b136ea224fe,,,,,,,,,3040,47.83984375,-43.33203125,1,0,0,response3disk,,5,15.81640625,-8.18359375,1,0,0,rectangle,15.81640625,-8.18359375,1,0,0,15.81640625,-8.18359375,1,0,0,0,145,145,106,1,,,,,,,,
,,,,,,,,,,,,,FF,,,,,,,,0.7009,,,,,,,,,,,,,,,,,,,,,,6101c5bffd584fdda7def135,61036f3d1cbe328e09cf2634,2021-07-29_22h20.47.271,Simcolourproject_2stim_asymm_v5,2020.2.10,MacIntel,60,61025ae37ef11b136ea224fe,,,,,,,,,1687,40.51171875,-44.76953125,1,0,0,response3disk,,4,19.390625,1.08984375,1,0,0,rectangle,19.390625,1.08984375,1,0,0,19.390625,1.08984375,1,0,0,0,146,146,111,1,,,,,,,,
,,,,,,,,,,,,,FF,,,,,,,,1.1172,,,,,,,,,,,,,,,,,,,,,,6101c5bffd584fdda7def135,61036f3d1cbe328e09cf2634,2021-07-29_22h20.47.271,Simcolourproject_2stim_asymm_v5,2020.2.10,MacIntel,60,61025ae37ef11b136ea224fe,,,,,,,,,4116,28.76953125,-41.2578125,1,0,0,response3disk,,4,15.53515625,-12.4609375,1,0,0,rectangle,15.53515625,-12.4609375,1,0,0,15.53515625,-12.4609375,1,0,0,0,147,147,54,1,,,,,,,,
,,,,,,,,,,,,,FF,,,,,,,,0.9508,,,,,,,,,,,,,,,,,,,,,,6101c5bffd584fdda7def135,61036f3d1cbe328e09cf2634,2021-07-29_22h20.47.271,Simcolourproject_2stim_asymm_v5,2020.2.10,MacIntel,60,61025ae37ef11b136ea224fe,,,,,,,,,3622,-22.62890625,-39.98046875,1,0,0,response5disk,,3,-20.01953125,9.09375,1,0,0,rectangle,-20.01953125,9.09375,1,0,0,-20.01953125,9.09375,1,0,0,0,148,148,16,1,,,,,,,,
,,,,,,,,,,,,,FF,,,,,,,,1.3003,,,,,,,,,,,,,,,,,,,,,,6101c5bffd584fdda7def135,61036f3d1cbe328e09cf2634,2021-07-29_22h20.47.271,Simcolourproject_2stim_asymm_v5,2020.2.10,MacIntel,60,61025ae37ef11b136ea224fe,,,,,,,,,3410,28.37109375,24.14453125,1,0,0,response1disk,,6,-2.03125,4.375,1,0,0,rectangle,-2.03125,4.375,1,0,0,-2.03125,4.375,1,0,0,0,149,149,100,1,,,,,,,,
,,,,,,,,,,,,,FF,,,,,,,,0.4346,,,,,,,,,,,,,,,,,,,,,,6101c5bffd584fdda7def135,61036f3d1cbe328e09cf2634,2021-07-29_22h20.47.271,Simcolourproject_2stim_asymm_v5,2020.2.10,MacIntel,60,61025ae37ef11b136ea224fe,,,,,,,,,326,26.59375,26.62109375,1,0,0,response1disk,,7,13.05078125,10.19921875,1,0,0,rectangle,13.05078125,10.19921875,1,0,0,13.05078125,10.19921875,1,0,0,0,150,150,51,1,,,,,,,,
,,,,,,,,,,,,,FF,,,,,,,,0.502,,,,,,,,,,,,,,,,,,,,,,6101c5bffd584fdda7def135,61036f3d1cbe328e09cf2634,2021-07-29_22h20.47.271,Simcolourproject_2stim_asymm_v5,2020.2.10,MacIntel,60,61025ae37ef11b136ea224fe,,,,,,,,,3343,-31.76953125,42.98828125,1,0,0,response7disk,,0,0.33203125,-4.7578125,1,0,0,rectangle,0.33203125,-4.7578125,1,0,0,0.33203125,-4.7578125,1,0,0,0,151,151,72,1,,,,,,,,
,,,,,,,,,,,,,FF,,,,,,,,0.7845,,,,,,,,,,,,,,,,,,,,,,6101c5bffd584fdda7def135,61036f3d1cbe328e09cf2634,2021-07-29_22h20.47.271,Simcolourproject_2stim_asymm_v5,2020.2.10,MacIntel,60,61025ae37ef11b136ea224fe,,,,,,,,,167,-48.4453125,-58.1640625,1,0,0,response5disk,,3,-16.95703125,-3.234375,1,0,0,rectangle,-16.95703125,-3.234375,1,0,0,-16.95703125,-3.234375,1,0,0,0,152,152,35,1,,,,,,,,
,,,,,,,,,,,,,FF,,,,,,,,0.5337,,,,,,,,,,,,,,,,,,,,,,6101c5bffd584fdda7def135,61036f3d1cbe328e09cf2634,2021-07-29_22h20.47.271,Simcolourproject_2stim_asymm_v5,2020.2.10,MacIntel,60,61025ae37ef11b136ea224fe,,,,,,,,,2031,-32.3359375,-41.37109375,1,0,0,response5disk,,3,-14.7265625,-9.36328125,1,0,0,rectangle,-14.7265625,-9.36328125,1,0,0,-14.7265625,-9.36328125,1,0,0,0,153,153,20,1,,,,,,,,
,,,,,,,,,,,,,FF,,,,,,,,0.567,,,,,,,,,,,,,,,,,,,,,,6101c5bffd584fdda7def135,61036f3d1cbe328e09cf2634,2021-07-29_22h20.47.271,Simcolourproject_2stim_asymm_v5,2020.2.10,MacIntel,60,61025ae37ef11b136ea224fe,,,,,,,,,2124,59.65625,43.56640625,1,0,0,response1disk,,6,17.4921875,13.62109375,1,0,0,rectangle,17.4921875,13.62109375,1,0,0,17.4921875,13.62109375,1,0,0,0,154,154,60,1,,,,,,,,
,,,,,,,,,,,,,FF,,,,,,,,0.4341,,,,,,,,,,,,,,,,,,,,,,6101c5bffd584fdda7def135,61036f3d1cbe328e09cf2634,2021-07-29_22h20.47.271,Simcolourproject_2stim_asymm_v5,2020.2.10,MacIntel,60,61025ae37ef11b136ea224fe,,,,,,,,,1867,32.77734375,39.18359375,1,0,0,response1disk,,7,12.29296875,-1.39453125,1,0,0,rectangle,12.29296875,-1.39453125,1,0,0,12.29296875,-1.39453125,1,0,0,0,155,155,56,1,,,,,,,,
,,,,,,,,,,,,,FF,,,,,,,,1.0321,,,,,,,,,,,,,,,,,,,,,,6101c5bffd584fdda7def135,61036f3d1cbe328e09cf2634,2021-07-29_22h20.47.271,Simcolourproject_2stim_asymm_v5,2020.2.10,MacIntel,60,61025ae37ef11b136ea224fe,,,,,,,,,3799,28.90625,34.671875,1,0,0,response1disk,,7,24.1875,15.046875,1,0,0,rectangle,24.1875,15.046875,1,0,0,24.1875,15.046875,1,0,0,0,156,156,98,1,,,,,,,,
,,,,,,,,,,,,,FF,,,,,,,,0.5007,,,,,,,,,,,,,,,,,,,,,,6101c5bffd584fdda7def135,61036f3d1cbe328e09cf2634,2021-07-29_22h20.47.271,Simcolourproject_2stim_asymm_v5,2020.2.10,MacIntel,60,61025ae37ef11b136ea224fe,,,,,,,,,199,-19.6953125,40.140625,1,0,0,response7disk,,0,0.66015625,-1.1328125,1,0,0,rectangle,45.9140625,-36.75,1,0,0,18.3828125,-8.578125,1,0,0,0,157,157,154,1,,response3disk_3,TRUE,5,5,"[51,261,27,74,105,297,144,189,144,158,104,305,284,255,220,185,241,322,286,20]",1.1835,rectangle
,,,,,,,,,,,,,FF,,,,,,,,0.4343,,,,,,,,,,,,,,,,,,,,,,6101c5bffd584fdda7def135,61036f3d1cbe328e09cf2634,2021-07-29_22h20.47.271,Simcolourproject_2stim_asymm_v5,2020.2.10,MacIntel,60,61025ae37ef11b136ea224fe,,,,,,,,,1406,29.21875,41.02734375,1,0,0,response1disk,,7,11.8046875,-3.890625,1,0,0,rectangle,11.8046875,-3.890625,1,0,0,11.8046875,-3.890625,1,0,0,0,158,158,76,1,,,,,,,,
,,,,,,,,,,,,,FF,,,,,,,,0.5658,,,,,,,,,,,,,,,,,,,,,,6101c5bffd584fdda7def135,61036f3d1cbe328e09cf2634,2021-07-29_22h20.47.271,Simcolourproject_2stim_asymm_v5,2020.2.10,MacIntel,60,61025ae37ef11b136ea224fe,,,,,,,,,4053,38.4921875,18.859375,1,0,0,response1disk,,6,1.1171875,-6.23828125,1,0,0,rectangle,1.1171875,-6.23828125,1,0,0,1.1171875,-6.23828125,1,0,0,0,159,159,48,1,,,,,,,,
,,,,,,,,,,,,,FF,,,,,,,,1.4995,,,,,,,,,,,,,,,,,,,,,,6101c5bffd584fdda7def135,61036f3d1cbe328e09cf2634,2021-07-29_22h20.47.271,Simcolourproject_2stim_asymm_v5,2020.2.10,MacIntel,60,61025ae37ef11b136ea224fe,,,,,,,,,2197,21.6328125,33.95703125,1,0,0,response1disk,,7,20.6328125,14.515625,1,0,0,rectangle,20.6328125,14.515625,1,0,0,20.6328125,14.515625,1,0,0,1,0,160,155,1,,,,,,,,
,,,,,,,,,,,,,FF,,,,,,,,0.5332,,,,,,,,,,,,,,,,,,,,,,6101c5bffd584fdda7def135,61036f3d1cbe328e09cf2634,2021-07-29_22h20.47.271,Simcolourproject_2stim_asymm_v5,2020.2.10,MacIntel,60,61025ae37ef11b136ea224fe,,,,,,,,,3178,27.9765625,37.75,1,0,0,response1disk,,7,3.40234375,-5.265625,1,0,0,rectangle,3.40234375,-5.265625,1,0,0,3.40234375,-5.265625,1,0,0,1,1,161,2,1,,,,,,,,
,,,,,,,,,,,,,FF,,,,,,,,0.5951,,,,,,,,,,,,,,,,,,,,,,6101c5bffd584fdda7def135,61036f3d1cbe328e09cf2634,2021-07-29_22h20.47.271,Simcolourproject_2stim_asymm_v5,2020.2.10,MacIntel,60,61025ae37ef11b136ea224fe,,,,,,,,,2335,27.875,37.83203125,1,0,0,response1disk,,7,3.9921875,-3.9921875,1,0,0,rectangle,3.9921875,-3.9921875,1,0,0,3.9921875,-3.9921875,1,0,0,1,2,162,45,1,,,,,,,,
,,,,,,,,,,,,,FF,,,,,,,,2.8998,,,,,,,,,,,,,,,,,,,,,,6101c5bffd584fdda7def135,61036f3d1cbe328e09cf2634,2021-07-29_22h20.47.271,Simcolourproject_2stim_asymm_v5,2020.2.10,MacIntel,60,61025ae37ef11b136ea224fe,,,,,,,,,4191,28.109375,47.0234375,1,0,0,response1disk,,7,3.53125,-1.94140625,1,0,0,rectangle,3.53125,-1.94140625,1,0,0,3.53125,-1.94140625,1,0,0,1,3,163,114,1,,,,,,,,
,,,,,,,,,,,,,FF,,,,,,,,0.9334,,,,,,,,,,,,,,,,,,,,,,6101c5bffd584fdda7def135,61036f3d1cbe328e09cf2634,2021-07-29_22h20.47.271,Simcolourproject_2stim_asymm_v5,2020.2.10,MacIntel,60,61025ae37ef11b136ea224fe,,,,,,,,,3600,-30.4453125,-45.0546875,1,0,0,response5disk,,3,-15.171875,-1.7421875,1,0,0,rectangle,-15.171875,-1.7421875,1,0,0,-15.171875,-1.7421875,1,0,0,1,4,164,17,1,,,,,,,,
,,,,,,,,,,,,,FF,,,,,,,,0.7663,,,,,,,,,,,,,,,,,,,,,,6101c5bffd584fdda7def135,61036f3d1cbe328e09cf2634,2021-07-29_22h20.47.271,Simcolourproject_2stim_asymm_v5,2020.2.10,MacIntel,60,61025ae37ef11b136ea224fe,,,,,,,,,268,56.59375,-40.80859375,1,0,0,response3disk,,5,16.30078125,-12.1015625,1,0,0,rectangle,16.30078125,-12.1015625,1,0,0,16.30078125,-12.1015625,1,0,0,1,5,165,150,1,,,,,,,,
,,,,,,,,,,,,,FF,,,,,,,,0.3838,,,,,,,,,,,,,,,,,,,,,,6101c5bffd584fdda7def135,61036f3d1cbe328e09cf2634,2021-07-29_22h20.47.271,Simcolourproject_2stim_asymm_v5,2020.2.10,MacIntel,60,61025ae37ef11b136ea224fe,,,,,,,,,854,44.85546875,44.6796875,1,0,0,response1disk,,6,5.359375,10.9609375,1,0,0,rectangle,5.359375,10.9609375,1,0,0,5.359375,10.9609375,1,0,0,1,6,166,23,1,,,,,,,,
,,,,,,,,,,,,,FF,,,,,,,,0.7485,,,,,,,,,,,,,,,,,,,,,,6101c5bffd584fdda7def135,61036f3d1cbe328e09cf2634,2021-07-29_22h20.47.271,Simcolourproject_2stim_asymm_v5,2020.2.10,MacIntel,60,61025ae37ef11b136ea224fe,,,,,,,,,4351,-31.89453125,51.12109375,1,0,0,response7disk,,0,-15.26953125,-4.296875,1,0,0,rectangle,-15.26953125,-4.296875,1,0,0,-15.26953125,-4.296875,1,0,0,1,7,167,75,1,,,,,,,,
,,,,,,,,,,,,,FF,,,,,,,,1.4344,,,,,,,,,,,,,,,,,,,,,,6101c5bffd584fdda7def135,61036f3d1cbe328e09cf2634,2021-07-29_22h20.47.271,Simcolourproject_2stim_asymm_v5,2020.2.10,MacIntel,60,61025ae37ef11b136ea224fe,,,,,,,,,3813,-46.0078125,-29.40625,1,0,0,response5disk,,2,-11.328125,-12.31640625,1,0,0,rectangle,-11.328125,-12.31640625,1,0,0,-11.328125,-12.31640625,1,0,0,1,8,168,116,1,,,,,,,,
,,,,,,,,,,,,,FF,,,,,,,,0.4828,,,,,,,,,,,,,,,,,,,,,,6101c5bffd584fdda7def135,61036f3d1cbe328e09cf2634,2021-07-29_22h20.47.271,Simcolourproject_2stim_asymm_v5,2020.2.10,MacIntel,60,61025ae37ef11b136ea224fe,,,,,,,,,3191,-46.30859375,-18.20703125,1,0,0,response5disk,,2,-9.82421875,0.51171875,1,0,0,rectangle,-9.82421875,0.51171875,1,0,0,-9.82421875,0.51171875,1,0,0,1,9,169,126,1,,,,,,,,
,,,,,,,,,,,,,FF,,,,,,,,0.7005,,,,,,,,,,,,,,,,,,,,,,6101c5bffd584fdda7def135,61036f3d1cbe328e09cf2634,2021-07-29_22h20.47.271,Simcolourproject_2stim_asymm_v5,2020.2.10,MacIntel,60,61025ae37ef11b136ea224fe,,,,,,,,,4174,68.15625,55.796875,1,0,0,response1disk,,6,8.3125,-2.53515625,1,0,0,rectangle,8.3125,-2.53515625,1,0,0,8.3125,-2.53515625,1,0,0,1,10,170,60,1,,,,,,,,
,,,,,,,,,,,,,FF,,,,,,,,0.4181,,,,,,,,,,,,,,,,,,,,,,6101c5bffd584fdda7def135,61036f3d1cbe328e09cf2634,2021-07-29_22h20.47.271,Simcolourproject_2stim_asymm_v5,2020.2.10,MacIntel,60,61025ae37ef11b136ea224fe,,,,,,,,,3792,35.28125,53.28515625,1,0,0,response1disk,,7,20.01171875,10.59375,1,0,0,rectangle,20.01171875,10.59375,1,0,0,20.01171875,10.59375,1,0,0,1,11,171,0,1,,,,,,,,
,,,,,,,,,,,,,FF,,,,,,,,0.7506,,,,,,,,,,,,,,,,,,,,,,6101c5bffd584fdda7def135,61036f3d1cbe328e09cf2634,2021-07-29_22h20.47.271,Simcolourproject_2stim_asymm_v5,2020.2.10,MacIntel,60,61025ae37ef11b136ea224fe,,,,,,,,,4130,27.953125,43.41796875,1,0,0,response1disk,,7,13.2578125,11.43359375,1,0,0,rectangle,13.2578125,11.43359375,1,0,0,13.2578125,11.43359375,1,0,0,1,12,172,46,1,,,,,,,,
,,,,,,,,,,,,,FF,,,,,,,,0.3996,,,,,,,,,,,,,,,,,,,,,,6101c5bffd584fdda7def135,61036f3d1cbe328e09cf2634,2021-07-29_22h20.47.271,Simcolourproject_2stim_asymm_v5,2020.2.10,MacIntel,60,61025ae37ef11b136ea224fe,,,,,,,,,827,30.62890625,52.99609375,1,0,0,response1disk,,7,15.8046875,14.25,1,0,0,rectangle,15.8046875,14.25,1,0,0,15.8046875,14.25,1,0,0,1,13,173,33,1,,,,,,,,
,,,,,,,,,,,,,FF,,,,,,,,1.0338,,,,,,,,,,,,,,,,,,,,,,6101c5bffd584fdda7def135,61036f3d1cbe328e09cf2634,2021-07-29_22h20.47.271,Simcolourproject_2stim_asymm_v5,2020.2.10,MacIntel,60,61025ae37ef11b136ea224fe,,,,,,,,,4337,-48.44921875,-72.2734375,1,0,0,response5disk,,3,-7.40625,-6.05078125,1,0,0,rectangle,-7.40625,-6.05078125,1,0,0,-7.40625,-6.05078125,1,0,0,1,14,174,77,1,,,,,,,,
,,,,,,,,,,,,,FF,,,,,,,,0.8836,,,,,,,,,,,,,,,,,,,,,,6101c5bffd584fdda7def135,61036f3d1cbe328e09cf2634,2021-07-29_22h20.47.271,Simcolourproject_2stim_asymm_v5,2020.2.10,MacIntel,60,61025ae37ef11b136ea224fe,,,,,,,,,2773,-55.0390625,-44.99609375,1,0,0,response5disk,,2,-18.48046875,-16.59375,1,0,0,rectangle,-18.48046875,-16.59375,1,0,0,-18.48046875,-16.59375,1,0,0,1,15,175,63,1,,,,,,,,
,,,,,,,,,,,,,FF,,,,,,,,1.0339,,,,,,,,,,,,,,,,,,,,,,6101c5bffd584fdda7def135,61036f3d1cbe328e09cf2634,2021-07-29_22h20.47.271,Simcolourproject_2stim_asymm_v5,2020.2.10,MacIntel,60,61025ae37ef11b136ea224fe,,,,,,,,,4054,-59.26953125,-34.2890625,1,0,0,response5disk,,2,-24.09375,3.41796875,1,0,0,rectangle,-24.09375,3.41796875,1,0,0,-24.09375,3.41796875,1,0,0,1,16,176,127,1,,,,,,,,
,,,,,,,,,,,,,FF,,,,,,,,0.516,,,,,,,,,,,,,,,,,,,,,,6101c5bffd584fdda7def135,61036f3d1cbe328e09cf2634,2021-07-29_22h20.47.271,Simcolourproject_2stim_asymm_v5,2020.2.10,MacIntel,60,61025ae37ef11b136ea224fe,,,,,,,,,2024,21.76171875,49.12890625,1,0,0,response1disk,,7,5.50390625,-1.8359375,1,0,0,rectangle,5.50390625,-1.8359375,1,0,0,5.50390625,-1.8359375,1,0,0,1,17,177,129,1,,,,,,,,
,,,,,,,,,,,,,FF,,,,,,,,0.8822,,,,,,,,,,,,,,,,,,,,,,6101c5bffd584fdda7def135,61036f3d1cbe328e09cf2634,2021-07-29_22h20.47.271,Simcolourproject_2stim_asymm_v5,2020.2.10,MacIntel,60,61025ae37ef11b136ea224fe,,,,,,,,,747,26.54296875,39.5390625,1,0,0,response1disk,,7,1.01953125,-2.48046875,1,0,0,rectangle,1.01953125,-2.48046875,1,0,0,1.01953125,-2.48046875,1,0,0,1,18,178,100,1,,,,,,,,
,,,,,,,,,,,,,FF,,,,,,,,0.75,,,,,,,,,,,,,,,,,,,,,,6101c5bffd584fdda7def135,61036f3d1cbe328e09cf2634,2021-07-29_22h20.47.271,Simcolourproject_2stim_asymm_v5,2020.2.10,MacIntel,60,61025ae37ef11b136ea224fe,,,,,,,,,1402,23.9921875,34.1015625,1,0,0,response1disk,,7,1.1171875,-4.11328125,1,0,0,rectangle,1.1171875,-4.11328125,1,0,0,1.1171875,-4.11328125,1,0,0,1,19,179,136,1,,,,,,,,
,,,,,,,,,,,,,FF,,,,,,,,1.4663,,,,,,,,,,,,,,,,,,,,,,6101c5bffd584fdda7def135,61036f3d1cbe328e09cf2634,2021-07-29_22h20.47.271,Simcolourproject_2stim_asymm_v5,2020.2.10,MacIntel,60,61025ae37ef11b136ea224fe,,,,,,,,,4255,-51.97265625,27.875,1,0,0,response7disk,,1,-13.921875,8.67578125,1,0,0,rectangle,-13.921875,8.67578125,1,0,0,-13.921875,8.67578125,1,0,0,1,20,180,28,1,,,,,,,,
,,,,,,,,,,,,,FF,,,,,,,,0.5669,,,,,,,,,,,,,,,,,,,,,,6101c5bffd584fdda7def135,61036f3d1cbe328e09cf2634,2021-07-29_22h20.47.271,Simcolourproject_2stim_asymm_v5,2020.2.10,MacIntel,60,61025ae37ef11b136ea224fe,,,,,,,,,1161,28.46484375,38.43359375,1,0,0,response1disk,,7,4.54296875,3.83203125,1,0,0,rectangle,4.54296875,3.83203125,1,0,0,4.54296875,3.83203125,1,0,0,1,21,181,1,1,,,,,,,,
,,,,,,,,,,,,,FF,,,,,,,,0.7377,,,,,,,,,,,,,,,,,,,,,,6101c5bffd584fdda7def135,61036f3d1cbe328e09cf2634,2021-07-29_22h20.47.271,Simcolourproject_2stim_asymm_v5,2020.2.10,MacIntel,60,61025ae37ef11b136ea224fe,,,,,,,,,47,27.02734375,60.859375,1,0,0,response1disk,,7,-8.0078125,7.859375,1,0,0,rectangle,-8.0078125,7.859375,1,0,0,-8.0078125,7.859375,1,0,0,1,22,182,16,1,,,,,,,,
,,,,,,,,,,,,,FF,,,,,,,,1.1998,,,,,,,,,,,,,,,,,,,,,,6101c5bffd584fdda7def135,61036f3d1cbe328e09cf2634,2021-07-29_22h20.47.271,Simcolourproject_2stim_asymm_v5,2020.2.10,MacIntel,60,61025ae37ef11b136ea224fe,,,,,,,,,1226,17.3515625,-73.30078125,1,0,0,response3disk,,4,10.91015625,-14.96875,1,0,0,rectangle,10.91015625,-14.96875,1,0,0,10.91015625,-14.96875,1,0,0,1,23,183,40,1,,,,,,,,
,,,,,,,,,,,,,FF,,,,,,,,0.5013,,,,,,,,,,,,,,,,,,,,,,6101c5bffd584fdda7def135,61036f3d1cbe328e09cf2634,2021-07-29_22h20.47.271,Simcolourproject_2stim_asymm_v5,2020.2.10,MacIntel,60,61025ae37ef11b136ea224fe,,,,,,,,,2644,35.24609375,31.8046875,1,0,0,response1disk,,6,21.35546875,-8.09765625,1,0,0,rectangle,52.9453125,-36.05859375,1,0,0,10.4375,-2.84765625,1,0,0,1,24,184,120,1,,response3disk_3,TRUE,5,5,"[51,261,27,74,105,297,144,189,144,158,104,305,284,255,220,185,241,322,286,20]",1.033,rectangle
,,,,,,,,,,,,,FF,,,,,,,,0.9506,,,,,,,,,,,,,,,,,,,,,,6101c5bffd584fdda7def135,61036f3d1cbe328e09cf2634,2021-07-29_22h20.47.271,Simcolourproject_2stim_asymm_v5,2020.2.10,MacIntel,60,61025ae37ef11b136ea224fe,,,,,,,,,560,30.49609375,42.54296875,1,0,0,response1disk,,7,13.20703125,10.671875,1,0,0,rectangle,13.20703125,10.671875,1,0,0,13.20703125,10.671875,1,0,0,1,25,185,41,1,,,,,,,,
,,,,,,,,,,,,,FF,,,,,,,,0.4997,,,,,,,,,,,,,,,,,,,,,,6101c5bffd584fdda7def135,61036f3d1cbe328e09cf2634,2021-07-29_22h20.47.271,Simcolourproject_2stim_asymm_v5,2020.2.10,MacIntel,60,61025ae37ef11b136ea224fe,,,,,,,,,1554,24.22265625,53.54296875,1,0,0,response1disk,,7,-0.0859375,6.7578125,1,0,0,rectangle,-0.0859375,6.7578125,1,0,0,-0.0859375,6.7578125,1,0,0,1,26,186,15,1,,,,,,,,
,,,,,,,,,,,,,FF,,,,,,,,0.5673,,,,,,,,,,,,,,,,,,,,,,6101c5bffd584fdda7def135,61036f3d1cbe328e09cf2634,2021-07-29_22h20.47.271,Simcolourproject_2stim_asymm_v5,2020.2.10,MacIntel,60,61025ae37ef11b136ea224fe,,,,,,,,,1435,21.17578125,49.78125,1,0,0,response1disk,,7,-6.609375,5.55859375,1,0,0,rectangle,-6.609375,5.55859375,1,0,0,-6.609375,5.55859375,1,0,0,1,27,187,98,1,,,,,,,,
,,,,,,,,,,,,,FF,,,,,,,,1.0509,,,,,,,,,,,,,,,,,,,,,,6101c5bffd584fdda7def135,61036f3d1cbe328e09cf2634,2021-07-29_22h20.47.271,Simcolourproject_2stim_asymm_v5,2020.2.10,MacIntel,60,61025ae37ef11b136ea224fe,,,,,,,,,2833,-44.140625,28.140625,1,0,0,response7disk,,1,-8.41015625,10.77734375,1,0,0,rectangle,-70.76171875,-56.484375,1,0,0,-15.15625,-2.11328125,1,0,0,1,28,188,20,1,,response5disk_3,TRUE,2,2,"[51,261,27,74,105,297,144,189,144,158,104,305,284,255,220,185,241,322,286,20]",2.1491,rectangle
,,,,,,,,,,,,,FF,,,,,,,,0.6836,,,,,,,,,,,,,,,,,,,,,,6101c5bffd584fdda7def135,61036f3d1cbe328e09cf2634,2021-07-29_22h20.47.271,Simcolourproject_2stim_asymm_v5,2020.2.10,MacIntel,60,61025ae37ef11b136ea224fe,,,,,,,,,4287,40.38671875,57.58984375,1,0,0,response1disk,,7,9.41796875,14.3046875,1,0,0,rectangle,9.41796875,14.3046875,1,0,0,9.41796875,14.3046875,1,0,0,1,29,189,39,1,,,,,,,,
,,,,,,,,,,,,,FF,,,,,,,,0.6006,,,,,,,,,,,,,,,,,,,,,,6101c5bffd584fdda7def135,61036f3d1cbe328e09cf2634,2021-07-29_22h20.47.271,Simcolourproject_2stim_asymm_v5,2020.2.10,MacIntel,60,61025ae37ef11b136ea224fe,,,,,,,,,666,26.11328125,46.16015625,1,0,0,response1disk,,7,-0.4140625,1.046875,1,0,0,rectangle,-0.4140625,1.046875,1,0,0,-0.4140625,1.046875,1,0,0,1,30,190,58,1,,,,,,,,
,,,,,,,,,,,,,FF,,,,,,,,0.9329,,,,,,,,,,,,,,,,,,,,,,6101c5bffd584fdda7def135,61036f3d1cbe328e09cf2634,2021-07-29_22h20.47.271,Simcolourproject_2stim_asymm_v5,2020.2.10,MacIntel,60,61025ae37ef11b136ea224fe,,,,,,,,,2298,-59.81640625,30.19140625,1,0,0,response7disk,,1,-13.234375,-1.86328125,1,0,0,rectangle,-13.234375,-1.86328125,1,0,0,-13.234375,-1.86328125,1,0,0,1,31,191,22,1,,,,,,,,
,,,,,,,,,,,,,FF,,,,,,,,0.5168,,,,,,,,,,,,,,,,,,,,,,6101c5bffd584fdda7def135,61036f3d1cbe328e09cf2634,2021-07-29_22h20.47.271,Simcolourproject_2stim_asymm_v5,2020.2.10,MacIntel,60,61025ae37ef11b136ea224fe,,,,,,,,,3259,19.93359375,61.125,1,0,0,response1disk,,7,12.7578125,17.03515625,1,0,0,rectangle,12.7578125,17.03515625,1,0,0,12.7578125,17.03515625,1,0,0,1,32,192,82,1,,,,,,,,
,,,,,,,,,,,,,FF,,,,,,,,0.466,,,,,,,,,,,,,,,,,,,,,,6101c5bffd584fdda7def135,61036f3d1cbe328e09cf2634,2021-07-29_22h20.47.271,Simcolourproject_2stim_asymm_v5,2020.2.10,MacIntel,60,61025ae37ef11b136ea224fe,,,,,,,,,4089,31.59375,49.0390625,1,0,0,response1disk,,7,9.5390625,4.39453125,1,0,0,rectangle,9.5390625,4.39453125,1,0,0,9.5390625,4.39453125,1,0,0,1,33,193,42,1,,,,,,,,
,,,,,,,,,,,,,FF,,,,,,,,0.4496,,,,,,,,,,,,,,,,,,,,,,6101c5bffd584fdda7def135,61036f3d1cbe328e09cf2634,2021-07-29_22h20.47.271,Simcolourproject_2stim_asymm_v5,2020.2.10,MacIntel,60,61025ae37ef11b136ea224fe,,,,,,,,,2761,20.05078125,36.2890625,1,0,0,response1disk,,7,10.6171875,14.421875,1,0,0,rectangle,10.6171875,14.421875,1,0,0,10.6171875,14.421875,1,0,0,1,34,194,30,1,,,,,,,,
,,,,,,,,,,,,,FF,,,,,,,,0.2671,,,,,,,,,,,,,,,,,,,,,,6101c5bffd584fdda7def135,61036f3d1cbe328e09cf2634,2021-07-29_22h20.47.271,Simcolourproject_2stim_asymm_v5,2020.2.10,MacIntel,60,61025ae37ef11b136ea224fe,,,,,,,,,236,25.16796875,44.62109375,1,0,0,response1disk,,7,0.23046875,-7.41796875,1,0,0,rectangle,0.23046875,-7.41796875,1,0,0,0.23046875,-7.41796875,1,0,0,1,35,195,138,1,,,,,,,,
,,,,,,,,,,,,,FF,,,,,,,,0.3828,,,,,,,,,,,,,,,,,,,,,,6101c5bffd584fdda7def135,61036f3d1cbe328e09cf2634,2021-07-29_22h20.47.271,Simcolourproject_2stim_asymm_v5,2020.2.10,MacIntel,60,61025ae37ef11b136ea224fe,,,,,,,,,2009,30.90234375,47.38671875,1,0,0,response1disk,,7,11.015625,3.49609375,1,0,0,rectangle,11.015625,3.49609375,1,0,0,11.015625,3.49609375,1,0,0,1,36,196,72,1,,,,,,,,
,,,,,,,,,,,,,FF,,,,,,,,0.4181,,,,,,,,,,,,,,,,,,,,,,6101c5bffd584fdda7def135,61036f3d1cbe328e09cf2634,2021-07-29_22h20.47.271,Simcolourproject_2stim_asymm_v5,2020.2.10,MacIntel,60,61025ae37ef11b136ea224fe,,,,,,,,,3365,36.3359375,45.56640625,1,0,0,response1disk,,7,15.80078125,15.69921875,1,0,0,rectangle,15.80078125,15.69921875,1,0,0,15.80078125,15.69921875,1,0,0,1,37,197,93,1,,,,,,,,
,,,,,,,,,,,,,FF,,,,,,,,0.4171,,,,,,,,,,,,,,,,,,,,,,6101c5bffd584fdda7def135,61036f3d1cbe328e09cf2634,2021-07-29_22h20.47.271,Simcolourproject_2stim_asymm_v5,2020.2.10,MacIntel,60,61025ae37ef11b136ea224fe,,,,,,,,,1340,16.51953125,47.12109375,1,0,0,response1disk,,7,10.05859375,15.11328125,1,0,0,rectangle,10.05859375,15.11328125,1,0,0,10.05859375,15.11328125,1,0,0,1,38,198,67,1,,,,,,,,
,,,,,,,,,,,,,FF,,,,,,,,0.9667,,,,,,,,,,,,,,,,,,,,,,6101c5bffd584fdda7def135,61036f3d1cbe328e09cf2634,2021-07-29_22h20.47.271,Simcolourproject_2stim_asymm_v5,2020.2.10,MacIntel,60,61025ae37ef11b136ea224fe,,,,,,,,,1187,25.6953125,-69.74609375,1,0,0,response3disk,,4,1.19921875,-4.3359375,1,0,0,rectangle,1.19921875,-4.3359375,1,0,0,1.19921875,-4.3359375,1,0,0,1,39,199,74,1,,,,,,,,
,,,,,,,,,,,,,FF,,,,,,,,0.4499,,,,,,,,,,,,,,,,,,,,,,6101c5bffd584fdda7def135,61036f3d1cbe328e09cf2634,2021-07-29_22h20.47.271,Simcolourproject_2stim_asymm_v5,2020.2.10,MacIntel,60,61025ae37ef11b136ea224fe,,,,,,,,,410,25.71484375,48.609375,1,0,0,response1disk,,7,15.33203125,7.890625,1,0,0,rectangle,15.33203125,7.890625,1,0,0,15.33203125,7.890625,1,0,0,1,40,200,19,1,,,,,,,,
,,,,,,,,,,,,,FF,,,,,,,,0.3661,,,,,,,,,,,,,,,,,,,,,,6101c5bffd584fdda7def135,61036f3d1cbe328e09cf2634,2021-07-29_22h20.47.271,Simcolourproject_2stim_asymm_v5,2020.2.10,MacIntel,60,61025ae37ef11b136ea224fe,,,,,,,,,3306,33.12109375,61.828125,1,0,0,response1disk,,7,0.90625,11.90625,1,0,0,rectangle,0.90625,11.90625,1,0,0,0.90625,11.90625,1,0,0,1,41,201,61,1,,,,,,,,
,,,,,,,,,,,,,FF,,,,,,,,0.367,,,,,,,,,,,,,,,,,,,,,,6101c5bffd584fdda7def135,61036f3d1cbe328e09cf2634,2021-07-29_22h20.47.271,Simcolourproject_2stim_asymm_v5,2020.2.10,MacIntel,60,61025ae37ef11b136ea224fe,,,,,,,,,3917,33.31640625,63.94921875,1,0,0,response1disk,,7,7.80078125,14.4453125,1,0,0,rectangle,7.80078125,14.4453125,1,0,0,7.80078125,14.4453125,1,0,0,1,42,202,24,1,,,,,,,,
,,,,,,,,,,,,,FF,,,,,,,,0.4167,,,,,,,,,,,,,,,,,,,,,,6101c5bffd584fdda7def135,61036f3d1cbe328e09cf2634,2021-07-29_22h20.47.271,Simcolourproject_2stim_asymm_v5,2020.2.10,MacIntel,60,61025ae37ef11b136ea224fe,,,,,,,,,2640,21.41796875,46.75,1,0,0,response1disk,,7,0.20703125,11.28125,1,0,0,rectangle,0.20703125,11.28125,1,0,0,0.20703125,11.28125,1,0,0,1,43,203,139,1,,,,,,,,
,,,,,,,,,,,,,FF,,,,,,,,0.6167,,,,,,,,,,,,,,,,,,,,,,6101c5bffd584fdda7def135,61036f3d1cbe328e09cf2634,2021-07-29_22h20.47.271,Simcolourproject_2stim_asymm_v5,2020.2.10,MacIntel,60,61025ae37ef11b136ea224fe,,,,,,,,,4200,-28.90625,34.546875,1,0,0,response7disk,,0,-19.98046875,6.1171875,1,0,0,rectangle,-19.98046875,6.1171875,1,0,0,-19.98046875,6.1171875,1,0,0,1,44,204,52,1,,,,,,,,
,,,,,,,,,,,,,FF,,,,,,,,0.4491,,,,,,,,,,,,,,,,,,,,,,6101c5bffd584fdda7def135,61036f3d1cbe328e09cf2634,2021-07-29_22h20.47.271,Simcolourproject_2stim_asymm_v5,2020.2.10,MacIntel,60,61025ae37ef11b136ea224fe,,,,,,,,,1207,26.37109375,63.25,1,0,0,response1disk,,7,-4.95703125,12.94140625,1,0,0,rectangle,-4.95703125,12.94140625,1,0,0,-4.95703125,12.94140625,1,0,0,1,45,205,4,1,,,,,,,,
,,,,,,,,,,,,,FF,,,,,,,,0.9329,,,,,,,,,,,,,,,,,,,,,,6101c5bffd584fdda7def135,61036f3d1cbe328e09cf2634,2021-07-29_22h20.47.271,Simcolourproject_2stim_asymm_v5,2020.2.10,MacIntel,60,61025ae37ef11b136ea224fe,,,,,,,,,1825,-22.03125,-68.1015625,1,0,0,response5disk,,3,-9.18359375,3.49609375,1,0,0,rectangle,-9.18359375,3.49609375,1,0,0,-9.18359375,3.49609375,1,0,0,1,46,206,124,1,,,,,,,,
,,,,,,,,,,,,,FF,,,,,,,,0.4159,,,,,,,,,,,,,,,,,,,,,,6101c5bffd584fdda7def135,61036f3d1cbe328e09cf2634,2021-07-29_22h20.47.271,Simcolourproject_2stim_asymm_v5,2020.2.10,MacIntel,60,61025ae37ef11b136ea224fe,,,,,,,,,3220,28.90234375,59.04296875,1,0,0,response1disk,,7,-13.9609375,-2.37109375,1,0,0,rectangle,-13.9609375,-2.37109375,1,0,0,-13.9609375,-2.37109375,1,0,0,1,47,207,55,1,,,,,,,,
,,,,,,,,,,,,,FF,,,,,,,,0.3659,,,,,,,,,,,,,,,,,,,,,,6101c5bffd584fdda7def135,61036f3d1cbe328e09cf2634,2021-07-29_22h20.47.271,Simcolourproject_2stim_asymm_v5,2020.2.10,MacIntel,60,61025ae37ef11b136ea224fe,,,,,,,,,132,31.31640625,35.76171875,1,0,0,response1disk,,7,-1.390625,17.29296875,1,0,0,rectangle,-1.390625,17.29296875,1,0,0,-1.390625,17.29296875,1,0,0,1,48,208,158,1,,,,,,,,
,,,,,,,,,,,,,FF,,,,,,,,0.3164,,,,,,,,,,,,,,,,,,,,,,6101c5bffd584fdda7def135,61036f3d1cbe328e09cf2634,2021-07-29_22h20.47.271,Simcolourproject_2stim_asymm_v5,2020.2.10,MacIntel,60,61025ae37ef11b136ea224fe,,,,,,,,,3125,23.14453125,48.7890625,1,0,0,response1disk,,7,8.09765625,4.2890625,1,0,0,rectangle,8.09765625,4.2890625,1,0,0,8.09765625,4.2890625,1,0,0,1,49,209,64,1,,,,,,,,
,,,,,,,,,,,,,FF,,,,,,,,0.3003,,,,,,,,,,,,,,,,,,,,,,6101c5bffd584fdda7def135,61036f3d1cbe328e09cf2634,2021-07-29_22h20.47.271,Simcolourproject_2stim_asymm_v5,2020.2.10,MacIntel,60,61025ae37ef11b136ea224fe,,,,,,,,,3462,29.71484375,38.2265625,1,0,0,response1disk,,7,14.57421875,-3.19921875,1,0,0,rectangle,14.57421875,-3.19921875,1,0,0,14.57421875,-3.19921875,1,0,0,1,50,210,111,1,,,,,,,,
,,,,,,,,,,,,,FF,,,,,,,,0.5507,,,,,,,,,,,,,,,,,,,,,,6101c5bffd584fdda7def135,61036f3d1cbe328e09cf2634,2021-07-29_22h20.47.271,Simcolourproject_2stim_asymm_v5,2020.2.10,MacIntel,60,61025ae37ef11b136ea224fe,,,,,,,,,1459,-28.48046875,43.28515625,1,0,0,response7disk,,0,-13.453125,2.9296875,1,0,0,rectangle,-13.453125,2.9296875,1,0,0,-13.453125,2.9296875,1,0,0,1,51,211,89,1,,,,,,,,
,,,,,,,,,,,,,FF,,,,,,,,2.5328,,,,,,,,,,,,,,,,,,,,,,6101c5bffd584fdda7def135,61036f3d1cbe328e09cf2634,2021-07-29_22h20.47.271,Simcolourproject_2stim_asymm_v5,2020.2.10,MacIntel,60,61025ae37ef11b136ea224fe,,,,,,,,,2753,26.546875,55.50390625,1,0,0,response1disk,,7,-4.97265625,4.0625,1,0,0,rectangle,-4.97265625,4.0625,1,0,0,-4.97265625,4.0625,1,0,0,1,52,212,142,1,,,,,,,,
,,,,,,,,,,,,,FF,,,,,,,,0.8182,,,,,,,,,,,,,,,,,,,,,,6101c5bffd584fdda7def135,61036f3d1cbe328e09cf2634,2021-07-29_22h20.47.271,Simcolourproject_2stim_asymm_v5,2020.2.10,MacIntel,60,61025ae37ef11b136ea224fe,,,,,,,,,1068,24.8515625,42.70703125,1,0,0,response1disk,,7,8.57421875,10.91796875,1,0,0,rectangle,8.57421875,10.91796875,1,0,0,8.57421875,10.91796875,1,0,0,1,53,213,101,1,,,,,,,,
,,,,,,,,,,,,,FF,,,,,,,,0.3677,,,,,,,,,,,,,,,,,,,,,,6101c5bffd584fdda7def135,61036f3d1cbe328e09cf2634,2021-07-29_22h20.47.271,Simcolourproject_2stim_asymm_v5,2020.2.10,MacIntel,60,61025ae37ef11b136ea224fe,,,,,,,,,4290,28.3515625,51.94921875,1,0,0,response1disk,,7,17.4921875,8.95703125,1,0,0,rectangle,17.4921875,8.95703125,1,0,0,17.4921875,8.95703125,1,0,0,1,54,214,95,1,,,,,,,,
,,,,,,,,,,,,,FF,,,,,,,,0.3837,,,,,,,,,,,,,,,,,,,,,,6101c5bffd584fdda7def135,61036f3d1cbe328e09cf2634,2021-07-29_22h20.47.271,Simcolourproject_2stim_asymm_v5,2020.2.10,MacIntel,60,61025ae37ef11b136ea224fe,,,,,,,,,2325,31.8984375,52.71484375,1,0,0,response1disk,,7,12.59375,4.00390625,1,0,0,rectangle,12.59375,4.00390625,1,0,0,12.59375,4.00390625,1,0,0,1,55,215,151,1,,,,,,,,
,,,,,,,,,,,,,FF,,,,,,,,0.5001,,,,,,,,,,,,,,,,,,,,,,6101c5bffd584fdda7def135,61036f3d1cbe328e09cf2634,2021-07-29_22h20.47.271,Simcolourproject_2stim_asymm_v5,2020.2.10,MacIntel,60,61025ae37ef11b136ea224fe,,,,,,,,,4069,23.796875,49.43359375,1,0,0,response1disk,,7,1.40625,6.76171875,1,0,0,rectangle,1.40625,6.76171875,1,0,0,1.40625,6.76171875,1,0,0,1,56,216,26,1,,,,,,,,
,,,,,,,,,,,,,FF,,,,,,,,0.4171,,,,,,,,,,,,,,,,,,,,,,6101c5bffd584fdda7def135,61036f3d1cbe328e09cf2634,2021-07-29_22h20.47.271,Simcolourproject_2stim_asymm_v5,2020.2.10,MacIntel,60,61025ae37ef11b136ea224fe,,,,,,,,,1284,27.953125,54.26171875,1,0,0,response1disk,,7,-0.515625,2.7890625,1,0,0,rectangle,-0.515625,2.7890625,1,0,0,-0.515625,2.7890625,1,0,0,1,57,217,50,1,,,,,,,,
,,,,,,,,,,,,,FF,,,,,,,,0.5505,,,,,,,,,,,,,,,,,,,,,,6101c5bffd584fdda7def135,61036f3d1cbe328e09cf2634,2021-07-29_22h20.47.271,Simcolourproject_2stim_asymm_v5,2020.2.10,MacIntel,60,61025ae37ef11b136ea224fe,,,,,,,,,2842,29.6796875,63.19921875,1,0,0,response1disk,,7,1.09375,13.703125,1,0,0,rectangle,1.09375,13.703125,1,0,0,1.09375,13.703125,1,0,0,1,58,218,56,1,,,,,,,,
,,,,,,,,,,,,,FF,,,,,,,,0.449,,,,,,,,,,,,,,,,,,,,,,6101c5bffd584fdda7def135,61036f3d1cbe328e09cf2634,2021-07-29_22h20.47.271,Simcolourproject_2stim_asymm_v5,2020.2.10,MacIntel,60,61025ae37ef11b136ea224fe,,,,,,,,,4305,-33.97265625,50.1953125,1,0,0,response7disk,,0,-19.18359375,8.80078125,1,0,0,rectangle,-26.59375,67.19140625,1,0,0,-9.71484375,13.44140625,1,0,0,1,59,219,86,1,,response7disk_3,TRUE,0,0,"[51,261,27,74,105,297,144,189,144,158,104,305,284,255,220,185,241,322,286,20]",1.216,rectangle
,,,,,,,,,,,,,FF,,,,,,,,0.4651,,,,,,,,,,,,,,,,,,,,,,6101c5bffd584fdda7def135,61036f3d1cbe328e09cf2634,2021-07-29_22h20.47.271,Simcolourproject_2stim_asymm_v5,2020.2.10,MacIntel,60,61025ae37ef11b136ea224fe,,,,,,,,,2125,17.81640625,62.8515625,1,0,0,response1disk,,7,3.71484375,11.20703125,1,0,0,rectangle,3.71484375,11.20703125,1,0,0,3.71484375,11.20703125,1,0,0,1,60,220,43,1,,,,,,,,
,,,,,,,,,,,,,FF,,,,,,,,0.4681,,,,,,,,,,,,,,,,,,,,,,6101c5bffd584fdda7def135,61036f3d1cbe328e09cf2634,2021-07-29_22h20.47.271,Simcolourproject_2stim_asymm_v5,2020.2.10,MacIntel,60,61025ae37ef11b136ea224fe,,,,,,,,,3468,-27.921875,53.37890625,1,0,0,response7disk,,0,-20.90625,10.29296875,1,0,0,rectangle,-20.90625,10.29296875,1,0,0,-20.90625,10.29296875,1,0,0,1,61,221,35,1,,,,,,,,
,,,,,,,,,,,,,FF,,,,,,,,0.6494,,,,,,,,,,,,,,,,,,,,,,6101c5bffd584fdda7def135,61036f3d1cbe328e09cf2634,2021-07-29_22h20.47.271,Simcolourproject_2stim_asymm_v5,2020.2.10,MacIntel,60,61025ae37ef11b136ea224fe,,,,,,,,,3735,28.9921875,54.19921875,1,0,0,response1disk,,7,-4.45703125,-10.68359375,1,0,0,rectangle,-4.45703125,-10.68359375,1,0,0,-4.45703125,-10.68359375,1,0,0,1,62,222,110,1,,,,,,,,
,,,,,,,,,,,,,FF,,,,,,,,0.5015,,,,,,,,,,,,,,,,,,,,,,6101c5bffd584fdda7def135,61036f3d1cbe328e09cf2634,2021-07-29_22h20.47.271,Simcolourproject_2stim_asymm_v5,2020.2.10,MacIntel,60,61025ae37ef11b136ea224fe,,,,,,,,,684,32.8125,52.13671875,1,0,0,response1disk,,7,12.45703125,2.71875,1,0,0,rectangle,12.45703125,2.71875,1,0,0,12.45703125,2.71875,1,0,0,1,63,223,148,1,,,,,,,,
,,,,,,,,,,,,,FF,,,,,,,,0.3666,,,,,,,,,,,,,,,,,,,,,,6101c5bffd584fdda7def135,61036f3d1cbe328e09cf2634,2021-07-29_22h20.47.271,Simcolourproject_2stim_asymm_v5,2020.2.10,MacIntel,60,61025ae37ef11b136ea224fe,,,,,,,,,2429,22.23046875,39.20703125,1,0,0,response1disk,,7,6.26953125,-7.60546875,1,0,0,rectangle,6.26953125,-7.60546875,1,0,0,6.26953125,-7.60546875,1,0,0,1,64,224,31,1,,,,,,,,
,,,,,,,,,,,,,FF,,,,,,,,0.7657,,,,,,,,,,,,,,,,,,,,,,6101c5bffd584fdda7def135,61036f3d1cbe328e09cf2634,2021-07-29_22h20.47.271,Simcolourproject_2stim_asymm_v5,2020.2.10,MacIntel,60,61025ae37ef11b136ea224fe,,,,,,,,,2096,-23.11328125,50.765625,1,0,0,response7disk,,0,-20.3046875,-1.26953125,1,0,0,rectangle,-20.3046875,-1.26953125,1,0,0,-20.3046875,-1.26953125,1,0,0,1,65,225,48,1,,,,,,,,
,,,,,,,,,,,,,FF,,,,,,,,1.1506,,,,,,,,,,,,,,,,,,,,,,6101c5bffd584fdda7def135,61036f3d1cbe328e09cf2634,2021-07-29_22h20.47.271,Simcolourproject_2stim_asymm_v5,2020.2.10,MacIntel,60,61025ae37ef11b136ea224fe,,,,,,,,,523,-50.73828125,-39.171875,1,0,0,response5disk,,2,-19.64453125,-10.67578125,1,0,0,rectangle,-19.64453125,-10.67578125,1,0,0,-19.64453125,-10.67578125,1,0,0,1,66,226,25,1,,,,,,,,
,,,,,,,,,,,,,FF,,,,,,,,1.8167,,,,,,,,,,,,,,,,,,,,,,6101c5bffd584fdda7def135,61036f3d1cbe328e09cf2634,2021-07-29_22h20.47.271,Simcolourproject_2stim_asymm_v5,2020.2.10,MacIntel,60,61025ae37ef11b136ea224fe,,,,,,,,,1698,-42.28125,-34.12890625,1,0,0,response5disk,,2,-17.08203125,-3.328125,1,0,0,rectangle,-17.08203125,-3.328125,1,0,0,-17.08203125,-3.328125,1,0,0,1,67,227,76,1,,,,,,,,
,,,,,,,,,,,,,FF,,,,,,,,0.4002,,,,,,,,,,,,,,,,,,,,,,6101c5bffd584fdda7def135,61036f3d1cbe328e09cf2634,2021-07-29_22h20.47.271,Simcolourproject_2stim_asymm_v5,2020.2.10,MacIntel,60,61025ae37ef11b136ea224fe,,,,,,,,,1551,22.6015625,60.41796875,1,0,0,response1disk,,7,7.77734375,-1.17578125,1,0,0,rectangle,7.77734375,-1.17578125,1,0,0,7.77734375,-1.17578125,1,0,0,1,68,228,36,1,,,,,,,,
,,,,,,,,,,,,,FF,,,,,,,,0.2495,,,,,,,,,,,,,,,,,,,,,,6101c5bffd584fdda7def135,61036f3d1cbe328e09cf2634,2021-07-29_22h20.47.271,Simcolourproject_2stim_asymm_v5,2020.2.10,MacIntel,60,61025ae37ef11b136ea224fe,,,,,,,,,2112,37.85546875,57.4375,1,0,0,response1disk,,7,13.01953125,-0.23046875,1,0,0,rectangle,13.01953125,-0.23046875,1,0,0,13.01953125,-0.23046875,1,0,0,1,69,229,97,1,,,,,,,,
,,,,,,,,,,,,,FF,,,,,,,,0.2485,,,,,,,,,,,,,,,,,,,,,,6101c5bffd584fdda7def135,61036f3d1cbe328e09cf2634,2021-07-29_22h20.47.271,Simcolourproject_2stim_asymm_v5,2020.2.10,MacIntel,60,61025ae37ef11b136ea224fe,,,,,,,,,3394,35.00390625,32.38671875,1,0,0,response1disk,,6,22.81640625,13.5390625,1,0,0,rectangle,22.81640625,13.5390625,1,0,0,22.81640625,13.5390625,1,0,0,1,70,230,10,1,,,,,,,,
,,,,,,,,,,,,,FF,,,,,,,,0.2993,,,,,,,,,,,,,,,,,,,,,,6101c5bffd584fdda7def135,61036f3d1cbe328e09cf2634,2021-07-29_22h20.47.271,Simcolourproject_2stim_asymm_v5,2020.2.10,MacIntel,60,61025ae37ef11b136ea224fe,,,,,,,,,1146,35.046875,54.796875,1,0,0,response1disk,,7,10.57421875,1.69140625,1,0,0,rectangle,10.57421875,1.69140625,1,0,0,10.57421875,1.69140625,1,0,0,1,71,231,122,1,,,,,,,,
,,,,,,,,,,,,,FF,,,,,,,,0.3338,,,,,,,,,,,,,,,,,,,,,,6101c5bffd584fdda7def135,61036f3d1cbe328e09cf2634,2021-07-29_22h20.47.271,Simcolourproject_2stim_asymm_v5,2020.2.10,MacIntel,60,61025ae37ef11b136ea224fe,,,,,,,,,3519,32.6640625,51.1171875,1,0,0,response1disk,,7,13.3203125,-7.89453125,1,0,0,rectangle,13.3203125,-7.89453125,1,0,0,13.3203125,-7.89453125,1,0,0,1,72,232,54,1,,,,,,,,
,,,,,,,,,,,,,FF,,,,,,,,0.7486,,,,,,,,,,,,,,,,,,,,,,6101c5bffd584fdda7def135,61036f3d1cbe328e09cf2634,2021-07-29_22h20.47.271,Simcolourproject_2stim_asymm_v5,2020.2.10,MacIntel,60,61025ae37ef11b136ea224fe,,,,,,,,,715,23.77734375,30.703125,1,0,0,response1disk,,7,13.46875,12.0859375,1,0,0,rectangle,13.46875,12.0859375,1,0,0,13.46875,12.0859375,1,0,0,1,73,233,81,1,,,,,,,,
,,,,,,,,,,,,,FF,,,,,,,,0.4336,,,,,,,,,,,,,,,,,,,,,,6101c5bffd584fdda7def135,61036f3d1cbe328e09cf2634,2021-07-29_22h20.47.271,Simcolourproject_2stim_asymm_v5,2020.2.10,MacIntel,60,61025ae37ef11b136ea224fe,,,,,,,,,736,25.37109375,46.36328125,1,0,0,response1disk,,7,14.2734375,8.8515625,1,0,0,rectangle,14.2734375,8.8515625,1,0,0,14.2734375,8.8515625,1,0,0,1,74,234,94,1,,,,,,,,
,,,,,,,,,,,,,FF,,,,,,,,0.5497,,,,,,,,,,,,,,,,,,,,,,6101c5bffd584fdda7def135,61036f3d1cbe328e09cf2634,2021-07-29_22h20.47.271,Simcolourproject_2stim_asymm_v5,2020.2.10,MacIntel,60,61025ae37ef11b136ea224fe,,,,,,,,,3228,21.70703125,37.4921875,1,0,0,response1disk,,7,4.19140625,11.0546875,1,0,0,rectangle,4.19140625,11.0546875,1,0,0,4.19140625,11.0546875,1,0,0,1,75,235,132,1,,,,,,,,
,,,,,,,,,,,,,FF,,,,,,,,0.6157,,,,,,,,,,,,,,,,,,,,,,6101c5bffd584fdda7def135,61036f3d1cbe328e09cf2634,2021-07-29_22h20.47.271,Simcolourproject_2stim_asymm_v5,2020.2.10,MacIntel,60,61025ae37ef11b136ea224fe,,,,,,,,,721,-29.79296875,-40.01171875,1,0,0,response5disk,,3,-18.37890625,1.22265625,1,0,0,rectangle,-18.37890625,1.22265625,1,0,0,-18.37890625,1.22265625,1,0,0,1,76,236,27,1,,,,,,,,
,,,,,,,,,,,,,FF,,,,,,,,0.5335,,,,,,,,,,,,,,,,,,,,,,6101c5bffd584fdda7def135,61036f3d1cbe328e09cf2634,2021-07-29_22h20.47.271,Simcolourproject_2stim_asymm_v5,2020.2.10,MacIntel,60,61025ae37ef11b136ea224fe,,,,,,,,,111,15.26171875,41.36328125,1,0,0,response1disk,,7,5.10546875,13.2578125,1,0,0,rectangle,5.10546875,13.2578125,1,0,0,5.10546875,13.2578125,1,0,0,1,77,237,154,1,,,,,,,,
,,,,,,,,,,,,,FF,,,,,,,,0.3,,,,,,,,,,,,,,,,,,,,,,6101c5bffd584fdda7def135,61036f3d1cbe328e09cf2634,2021-07-29_22h20.47.271,Simcolourproject_2stim_asymm_v5,2020.2.10,MacIntel,60,61025ae37ef11b136ea224fe,,,,,,,,,2799,25.06640625,36.8359375,1,0,0,response1disk,,7,12.0703125,7.40234375,1,0,0,rectangle,12.0703125,7.40234375,1,0,0,12.0703125,7.40234375,1,0,0,1,78,238,159,1,,,,,,,,
,,,,,,,,,,,,,FF,,,,,,,,0.8831,,,,,,,,,,,,,,,,,,,,,,6101c5bffd584fdda7def135,61036f3d1cbe328e09cf2634,2021-07-29_22h20.47.271,Simcolourproject_2stim_asymm_v5,2020.2.10,MacIntel,60,61025ae37ef11b136ea224fe,,,,,,,,,280,17.3125,-42.6796875,1,0,0,response3disk,,4,5.515625,3.15234375,1,0,0,rectangle,5.515625,3.15234375,1,0,0,5.515625,3.15234375,1,0,0,1,79,239,44,1,,,,,,,,
,,,,,,,,,,,,,FF,,,,,,,,0.2999,,,,,,,,,,,,,,,,,,,,,,6101c5bffd584fdda7def135,61036f3d1cbe328e09cf2634,2021-07-29_22h20.47.271,Simcolourproject_2stim_asymm_v5,2020.2.10,MacIntel,60,61025ae37ef11b136ea224fe,,,,,,,,,424,29.26171875,36.984375,1,0,0,response1disk,,7,15.1484375,6.58203125,1,0,0,rectangle,-64.3984375,23.3515625,1,0,0,-11.37890625,0.78125,1,0,0,1,80,240,34,1,,response7disk_3,TRUE,1,1,"[51,261,27,74,105,297,144,189,144,158,104,305,284,255,220,185,241,322,286,20]",1.1831,rectangle
,,,,,,,,,,,,,FF,,,,,,,,0.484,,,,,,,,,,,,,,,,,,,,,,6101c5bffd584fdda7def135,61036f3d1cbe328e09cf2634,2021-07-29_22h20.47.271,Simcolourproject_2stim_asymm_v5,2020.2.10,MacIntel,60,61025ae37ef11b136ea224fe,,,,,,,,,474,20.22265625,67.40625,1,0,0,response1disk,,7,-1.04296875,-5.76171875,1,0,0,rectangle,-1.04296875,-5.76171875,1,0,0,-1.04296875,-5.76171875,1,0,0,1,81,241,62,1,,,,,,,,
,,,,,,,,,,,,,FF,,,,,,,,0.3993,,,,,,,,,,,,,,,,,,,,,,6101c5bffd584fdda7def135,61036f3d1cbe328e09cf2634,2021-07-29_22h20.47.271,Simcolourproject_2stim_asymm_v5,2020.2.10,MacIntel,60,61025ae37ef11b136ea224fe,,,,,,,,,3024,26.12109375,33.41796875,1,0,0,response1disk,,7,-0.23828125,-9.7265625,1,0,0,rectangle,-0.23828125,-9.7265625,1,0,0,-0.23828125,-9.7265625,1,0,0,1,82,242,147,1,,,,,,,,
,,,,,,,,,,,,,FF,,,,,,,,0.7334,,,,,,,,,,,,,,,,,,,,,,6101c5bffd584fdda7def135,61036f3d1cbe328e09cf2634,2021-07-29_22h20.47.271,Simcolourproject_2stim_asymm_v5,2020.2.10,MacIntel,60,61025ae37ef11b136ea224fe,,,,,,,,,3482,-45.7421875,24.07421875,1,0,0,response7disk,,1,-8.23046875,0.35546875,1,0,0,rectangle,-8.23046875,0.35546875,1,0,0,-8.23046875,0.35546875,1,0,0,1,83,243,107,1,,,,,,,,
,,,,,,,,,,,,,FF,,,,,,,,0.4997,,,,,,,,,,,,,,,,,,,,,,6101c5bffd584fdda7def135,61036f3d1cbe328e09cf2634,2021-07-29_22h20.47.271,Simcolourproject_2stim_asymm_v5,2020.2.10,MacIntel,60,61025ae37ef11b136ea224fe,,,,,,,,,3741,-54.71875,35.015625,1,0,0,response7disk,,1,-18.9296875,10.8515625,1,0,0,rectangle,-18.9296875,10.8515625,1,0,0,-18.9296875,10.8515625,1,0,0,1,84,244,99,1,,,,,,,,
,,,,,,,,,,,,,FF,,,,,,,,0.8319,,,,,,,,,,,,,,,,,,,,,,6101c5bffd584fdda7def135,61036f3d1cbe328e09cf2634,2021-07-29_22h20.47.271,Simcolourproject_2stim_asymm_v5,2020.2.10,MacIntel,60,61025ae37ef11b136ea224fe,,,,,,,,,2354,41.81640625,62.51953125,1,0,0,response1disk,,7,5.94140625,10.19921875,1,0,0,rectangle,5.94140625,10.19921875,1,0,0,5.94140625,10.19921875,1,0,0,1,85,245,59,1,,,,,,,,
,,,,,,,,,,,,,FF,,,,,,,,139.7155,,,,,,,,,,,,,,,,,,,,,,6101c5bffd584fdda7def135,61036f3d1cbe328e09cf2634,2021-07-29_22h20.47.271,Simcolourproject_2stim_asymm_v5,2020.2.10,MacIntel,60,61025ae37ef11b136ea224fe,,,,,,,,,1270,30.84375,43.41015625,1,0,0,response1disk,,7,8.64453125,6.48046875,1,0,0,rectangle,8.64453125,6.48046875,1,0,0,8.64453125,6.48046875,1,0,0,1,86,246,144,1,,,,,,,,
,,,,,,,,,,,,,FF,,,,,,,,0.516,,,,,,,,,,,,,,,,,,,,,,6101c5bffd584fdda7def135,61036f3d1cbe328e09cf2634,2021-07-29_22h20.47.271,Simcolourproject_2stim_asymm_v5,2020.2.10,MacIntel,60,61025ae37ef11b136ea224fe,,,,,,,,,2909,50.23046875,75.6640625,1,0,0,response1disk,,7,17.953125,10.62890625,1,0,0,rectangle,17.953125,10.62890625,1,0,0,17.953125,10.62890625,1,0,0,1,87,247,103,1,,,,,,,,
,,,,,,,,,,,,,FF,,,,,,,,0.3827,,,,,,,,,,,,,,,,,,,,,,6101c5bffd584fdda7def135,61036f3d1cbe328e09cf2634,2021-07-29_22h20.47.271,Simcolourproject_2stim_asymm_v5,2020.2.10,MacIntel,60,61025ae37ef11b136ea224fe,,,,,,,,,2283,35.921875,46.4296875,1,0,0,response1disk,,7,13.7734375,3.69921875,1,0,0,rectangle,13.7734375,3.69921875,1,0,0,13.7734375,3.69921875,1,0,0,1,88,248,91,1,,,,,,,,
,,,,,,,,,,,,,FF,,,,,,,,0.3825,,,,,,,,,,,,,,,,,,,,,,6101c5bffd584fdda7def135,61036f3d1cbe328e09cf2634,2021-07-29_22h20.47.271,Simcolourproject_2stim_asymm_v5,2020.2.10,MacIntel,60,61025ae37ef11b136ea224fe,,,,,,,,,3986,32.875,47.02734375,1,0,0,response1disk,,7,20.59375,11.58203125,1,0,0,rectangle,20.59375,11.58203125,1,0,0,20.59375,11.58203125,1,0,0,1,89,249,153,1,,,,,,,,
