key_resp.keys,key_resp.rt,key_resp_14.keys,key_resp_14.rt,key_resp_15.keys,key_resp_15.rt,key_resp_17.keys,key_resp_17.rt,key_resp_9.keys,key_resp_9.rt,key_resp_10.keys,key_resp_10.rt,practice_comparison,Ecc,mouse_5.x,mouse_5.y,mouse_5.leftButton,mouse_5.midButton,mouse_5.rightButton,mouse_5.clicked_name,pracsimilarity,response_time,mouse_10.x,mouse_10.y,mouse_10.leftButton,mouse_10.midButton,mouse_10.rightButton,mouse_10.clicked_name,mouse_7.x,mouse_7.y,mouse_7.leftButton,mouse_7.midButton,mouse_7.rightButton,mouse_6.x,mouse_6.y,mouse_6.leftButton,mouse_6.midButton,mouse_6.rightButton,duringprac.thisRepN,duringprac.thisTrialN,duringprac.thisN,duringprac.thisIndex,duringprac.ran,participant,session,date,expName,psychopyVersion,OS,frameRate,study_id,mouse_7.clicked_name,catchpracsimilarity,catch_response_time,catchnumberprac,catchtrialorderprac,mouse_6.clicked_name,key_resp_22.keys,key_resp_22.rt,realcomparison,mouse.x,mouse.y,mouse.leftButton,mouse.midButton,mouse.rightButton,mouse.clicked_name,Colour2,similarity,mouse_2.x,mouse_2.y,mouse_2.leftButton,mouse_2.midButton,mouse_2.rightButton,mouse_2.clicked_name,mouse_3.x,mouse_3.y,mouse_3.leftButton,mouse_3.midButton,mouse_3.rightButton,mouse_11.x,mouse_11.y,mouse_11.leftButton,mouse_11.midButton,mouse_11.rightButton,trials_2.thisRepN,trials_2.thisTrialN,trials_2.thisN,trials_2.thisIndex,trials_2.ran,Colour1,mouse_3.clicked_name,catchornah,catchsimilarity,catchnumber,catchtrialorder,catchRT,mouse_11.clicked_name
space,2.944,space,7.777,space,18.426,space,21.579,space,1.315,space,4.487,21,FF,-86,-48,1,0,0,response5disk_5,2,105.2,0,5,1,0,0,rectangle_8,0,5,1,0,0,0,5,1,0,0,0,0,0,5,1,6101b58d26f47c98e418489e,61036e12edd6c0835ec37ad3,2021-07-29_23h13.57.068,Simcolourproject_2stim_asymm_v5,2020.2.10,MacIntel,60,61025ae37ef11b136ea224fe,,,,,,,,,,,,,,,,,,,,,,,,,,,,,,,,,,,,,,,,,,,,,,
,,,,,,,,,,,,85,PF,37,-70,1,0,0,response3disk_5,4,16.374,-1,0,1,0,0,rectangle_8,-82,34,1,0,0,-5,6,1,0,0,0,1,1,4,1,6101b58d26f47c98e418489e,61036e12edd6c0835ec37ad3,2021-07-29_23h13.57.068,Simcolourproject_2stim_asymm_v5,2020.2.10,MacIntel,60,61025ae37ef11b136ea224fe,response7disk_7,1,3.484,1,"[2,5]",rectangle_4,,,,,,,,,,,,,,,,,,,,,,,,,,,,,,,,,,,,,,,,
,,,,,,,,,,,,34,FF,43,-80,1,0,0,response3disk_5,4,10.806,-1,1,1,0,0,rectangle_8,-1,1,1,0,0,-1,1,1,0,0,0,2,2,0,1,6101b58d26f47c98e418489e,61036e12edd6c0835ec37ad3,2021-07-29_23h13.57.068,Simcolourproject_2stim_asymm_v5,2020.2.10,MacIntel,60,61025ae37ef11b136ea224fe,,,,,,,,,,,,,,,,,,,,,,,,,,,,,,,,,,,,,,,,,,,,,,
,,,,,,,,,,,,84,PF,36,72,1,0,0,response1disk_5,7,5.318,5,-4,1,0,0,rectangle_8,5,-4,1,0,0,5,-4,1,0,0,0,3,3,1,1,6101b58d26f47c98e418489e,61036e12edd6c0835ec37ad3,2021-07-29_23h13.57.068,Simcolourproject_2stim_asymm_v5,2020.2.10,MacIntel,60,61025ae37ef11b136ea224fe,,,,,,,,,,,,,,,,,,,,,,,,,,,,,,,,,,,,,,,,,,,,,,
,,,,,,,,,,,,107,PF,37,86,1,0,0,response1disk_5,7,3.135,8,-6,1,0,0,rectangle_8,-79,54,1,0,0,1,-3,1,0,0,0,4,4,6,1,6101b58d26f47c98e418489e,61036e12edd6c0835ec37ad3,2021-07-29_23h13.57.068,Simcolourproject_2stim_asymm_v5,2020.2.10,MacIntel,60,61025ae37ef11b136ea224fe,response7disk_7,1,3.419,1,"[2,5]",rectangle_4,,,,,,,,,,,,,,,,,,,,,,,,,,,,,,,,,,,,,,,,
,,,,,,,,,,,,81,PF,-42,-76,1,0,0,response5disk_5,3,5.686,0,0,1,0,0,rectangle_8,0,0,1,0,0,0,0,1,0,0,0,5,5,2,1,6101b58d26f47c98e418489e,61036e12edd6c0835ec37ad3,2021-07-29_23h13.57.068,Simcolourproject_2stim_asymm_v5,2020.2.10,MacIntel,60,61025ae37ef11b136ea224fe,,,,,,,,,,,,,,,,,,,,,,,,,,,,,,,,,,,,,,,,,,,,,,
,,,,,,,,,,,,125,FF,28,66,1,0,0,response1disk_5,7,2.135,-6,-4,1,0,0,rectangle_8,-6,-4,1,0,0,-6,-4,1,0,0,0,6,6,3,1,6101b58d26f47c98e418489e,61036e12edd6c0835ec37ad3,2021-07-29_23h13.57.068,Simcolourproject_2stim_asymm_v5,2020.2.10,MacIntel,60,61025ae37ef11b136ea224fe,,,,,,,,,,,,,,,,,,,,,,,,,,,,,,,,,,,,,,,,,,,,,,
,,,,,,,,,,,,,FF,,,,,,,,13.29,,,,,,,,,,,,,,,,,,,,,,6101b58d26f47c98e418489e,61036e12edd6c0835ec37ad3,2021-07-29_23h13.57.068,Simcolourproject_2stim_asymm_v5,2020.2.10,MacIntel,60,61025ae37ef11b136ea224fe,,,,,,,space,7.611,2209,66,-44,1,0,0,response3disk,,5,1,4,1,0,0,rectangle,1,4,1,0,0,1,4,1,0,0,0,0,0,84,1,,,,,,,,
,,,,,,,,,,,,,FF,,,,,,,,7.704,,,,,,,,,,,,,,,,,,,,,,6101b58d26f47c98e418489e,61036e12edd6c0835ec37ad3,2021-07-29_23h13.57.068,Simcolourproject_2stim_asymm_v5,2020.2.10,MacIntel,60,61025ae37ef11b136ea224fe,,,,,,,,,635,42,-85,1,0,0,response3disk,,4,2,-4,1,0,0,rectangle,2,-4,1,0,0,2,-4,1,0,0,0,1,1,12,1,,,,,,,,
,,,,,,,,,,,,,FF,,,,,,,,2.517,,,,,,,,,,,,,,,,,,,,,,6101b58d26f47c98e418489e,61036e12edd6c0835ec37ad3,2021-07-29_23h13.57.068,Simcolourproject_2stim_asymm_v5,2020.2.10,MacIntel,60,61025ae37ef11b136ea224fe,,,,,,,,,367,-42,-82,1,0,0,response5disk,,3,4,2,1,0,0,rectangle,4,2,1,0,0,4,2,1,0,0,0,2,2,34,1,,,,,,,,
,,,,,,,,,,,,,FF,,,,,,,,1.785,,,,,,,,,,,,,,,,,,,,,,6101b58d26f47c98e418489e,61036e12edd6c0835ec37ad3,2021-07-29_23h13.57.068,Simcolourproject_2stim_asymm_v5,2020.2.10,MacIntel,60,61025ae37ef11b136ea224fe,,,,,,,,,2027,-46,-80,1,0,0,response5disk,,3,-6,6,1,0,0,rectangle,-6,6,1,0,0,-6,6,1,0,0,0,3,3,121,1,,,,,,,,
,,,,,,,,,,,,,FF,,,,,,,,1.434,,,,,,,,,,,,,,,,,,,,,,6101b58d26f47c98e418489e,61036e12edd6c0835ec37ad3,2021-07-29_23h13.57.068,Simcolourproject_2stim_asymm_v5,2020.2.10,MacIntel,60,61025ae37ef11b136ea224fe,,,,,,,,,4363,-68,-42,1,0,0,response5disk,,2,-12,-1,1,0,0,rectangle,-12,-1,1,0,0,-12,-1,1,0,0,0,4,4,62,1,,,,,,,,
,,,,,,,,,,,,,FF,,,,,,,,2.985,,,,,,,,,,,,,,,,,,,,,,6101b58d26f47c98e418489e,61036e12edd6c0835ec37ad3,2021-07-29_23h13.57.068,Simcolourproject_2stim_asymm_v5,2020.2.10,MacIntel,60,61025ae37ef11b136ea224fe,,,,,,,,,2688,76,45,1,0,0,response1disk,,6,-5,-5,1,0,0,rectangle,-5,-5,1,0,0,-5,-5,1,0,0,0,5,5,54,1,,,,,,,,
,,,,,,,,,,,,,FF,,,,,,,,4.335,,,,,,,,,,,,,,,,,,,,,,6101b58d26f47c98e418489e,61036e12edd6c0835ec37ad3,2021-07-29_23h13.57.068,Simcolourproject_2stim_asymm_v5,2020.2.10,MacIntel,60,61025ae37ef11b136ea224fe,,,,,,,,,121,59,-32,1,0,0,response3disk,,5,4,2,1,0,0,rectangle,4,2,1,0,0,4,2,1,0,0,0,6,6,27,1,,,,,,,,
,,,,,,,,,,,,,FF,,,,,,,,2.736,,,,,,,,,,,,,,,,,,,,,,6101b58d26f47c98e418489e,61036e12edd6c0835ec37ad3,2021-07-29_23h13.57.068,Simcolourproject_2stim_asymm_v5,2020.2.10,MacIntel,60,61025ae37ef11b136ea224fe,,,,,,,,,3077,83,39,1,0,0,response1disk,,6,12,-3,1,0,0,rectangle,12,-3,1,0,0,12,-3,1,0,0,0,7,7,130,1,,,,,,,,
,,,,,,,,,,,,,FF,,,,,,,,1.383,,,,,,,,,,,,,,,,,,,,,,6101b58d26f47c98e418489e,61036e12edd6c0835ec37ad3,2021-07-29_23h13.57.068,Simcolourproject_2stim_asymm_v5,2020.2.10,MacIntel,60,61025ae37ef11b136ea224fe,,,,,,,,,4118,-37,68,1,0,0,response7disk,,0,-9,0,1,0,0,rectangle,-9,0,1,0,0,-9,0,1,0,0,0,8,8,68,1,,,,,,,,
,,,,,,,,,,,,,FF,,,,,,,,4.386,,,,,,,,,,,,,,,,,,,,,,6101b58d26f47c98e418489e,61036e12edd6c0835ec37ad3,2021-07-29_23h13.57.068,Simcolourproject_2stim_asymm_v5,2020.2.10,MacIntel,60,61025ae37ef11b136ea224fe,,,,,,,,,159,36,-87,1,0,0,response3disk,,4,-3,-4,1,0,0,rectangle,-3,-4,1,0,0,-3,-4,1,0,0,0,9,9,102,1,,,,,,,,
,,,,,,,,,,,,,FF,,,,,,,,4.401,,,,,,,,,,,,,,,,,,,,,,6101b58d26f47c98e418489e,61036e12edd6c0835ec37ad3,2021-07-29_23h13.57.068,Simcolourproject_2stim_asymm_v5,2020.2.10,MacIntel,60,61025ae37ef11b136ea224fe,,,,,,,,,932,47,69,1,0,0,response1disk,,7,3,-10,1,0,0,rectangle,3,-10,1,0,0,3,-10,1,0,0,0,10,10,32,1,,,,,,,,
,,,,,,,,,,,,,FF,,,,,,,,1.034,,,,,,,,,,,,,,,,,,,,,,6101b58d26f47c98e418489e,61036e12edd6c0835ec37ad3,2021-07-29_23h13.57.068,Simcolourproject_2stim_asymm_v5,2020.2.10,MacIntel,60,61025ae37ef11b136ea224fe,,,,,,,,,1664,82,30,1,0,0,response1disk,,6,10,0,1,0,0,rectangle,10,0,1,0,0,10,0,1,0,0,0,11,11,124,1,,,,,,,,
,,,,,,,,,,,,,FF,,,,,,,,5.053,,,,,,,,,,,,,,,,,,,,,,6101b58d26f47c98e418489e,61036e12edd6c0835ec37ad3,2021-07-29_23h13.57.068,Simcolourproject_2stim_asymm_v5,2020.2.10,MacIntel,60,61025ae37ef11b136ea224fe,,,,,,,,,2009,77,28,1,0,0,response1disk,,6,24,5,1,0,0,rectangle,24,5,1,0,0,24,5,1,0,0,0,12,12,103,1,,,,,,,,
,,,,,,,,,,,,,FF,,,,,,,,1.684,,,,,,,,,,,,,,,,,,,,,,6101b58d26f47c98e418489e,61036e12edd6c0835ec37ad3,2021-07-29_23h13.57.068,Simcolourproject_2stim_asymm_v5,2020.2.10,MacIntel,60,61025ae37ef11b136ea224fe,,,,,,,,,4290,30,63,1,0,0,response1disk,,7,18,-2,1,0,0,rectangle,18,-2,1,0,0,18,-2,1,0,0,0,13,13,135,1,,,,,,,,
,,,,,,,,,,,,,FF,,,,,,,,1.033,,,,,,,,,,,,,,,,,,,,,,6101b58d26f47c98e418489e,61036e12edd6c0835ec37ad3,2021-07-29_23h13.57.068,Simcolourproject_2stim_asymm_v5,2020.2.10,MacIntel,60,61025ae37ef11b136ea224fe,,,,,,,,,176,33,67,1,0,0,response1disk,,7,15,6,1,0,0,rectangle,15,6,1,0,0,15,6,1,0,0,0,14,14,38,1,,,,,,,,
,,,,,,,,,,,,,FF,,,,,,,,3.402,,,,,,,,,,,,,,,,,,,,,,6101b58d26f47c98e418489e,61036e12edd6c0835ec37ad3,2021-07-29_23h13.57.068,Simcolourproject_2stim_asymm_v5,2020.2.10,MacIntel,60,61025ae37ef11b136ea224fe,,,,,,,,,1818,-43,-77,1,0,0,response5disk,,3,-19,0,1,0,0,rectangle,-19,0,1,0,0,-19,0,1,0,0,0,15,15,64,1,,,,,,,,
,,,,,,,,,,,,,FF,,,,,,,,1.716,,,,,,,,,,,,,,,,,,,,,,6101b58d26f47c98e418489e,61036e12edd6c0835ec37ad3,2021-07-29_23h13.57.068,Simcolourproject_2stim_asymm_v5,2020.2.10,MacIntel,60,61025ae37ef11b136ea224fe,,,,,,,,,2801,68,-36,1,0,0,response3disk,,5,-6,-1,1,0,0,rectangle,-6,-1,1,0,0,-6,-1,1,0,0,0,16,16,104,1,,,,,,,,
,,,,,,,,,,,,,FF,,,,,,,,0.816,,,,,,,,,,,,,,,,,,,,,,6101b58d26f47c98e418489e,61036e12edd6c0835ec37ad3,2021-07-29_23h13.57.068,Simcolourproject_2stim_asymm_v5,2020.2.10,MacIntel,60,61025ae37ef11b136ea224fe,,,,,,,,,2464,58,-28,1,0,0,response3disk,,5,6,-11,1,0,0,rectangle,27,-82,1,0,0,-1,-1,1,0,0,0,17,17,143,1,,response3disk_3,TRUE,4,4,"[249,147,56,121,210,18,207,168,117,192,222,85,216,188,178,20,207,149,64,196]",2.036,rectangle
,,,,,,,,,,,,,FF,,,,,,,,6.619,,,,,,,,,,,,,,,,,,,,,,6101b58d26f47c98e418489e,61036e12edd6c0835ec37ad3,2021-07-29_23h13.57.068,Simcolourproject_2stim_asymm_v5,2020.2.10,MacIntel,60,61025ae37ef11b136ea224fe,,,,,,,,,3821,-46,-73,1,0,0,response5disk,,3,-9,2,1,0,0,rectangle,-9,2,1,0,0,-9,2,1,0,0,0,18,18,147,1,,,,,,,,
,,,,,,,,,,,,,FF,,,,,,,,1.133,,,,,,,,,,,,,,,,,,,,,,6101b58d26f47c98e418489e,61036e12edd6c0835ec37ad3,2021-07-29_23h13.57.068,Simcolourproject_2stim_asymm_v5,2020.2.10,MacIntel,60,61025ae37ef11b136ea224fe,,,,,,,,,319,38,-42,1,0,0,response3disk,,4,-15,7,1,0,0,rectangle,78,38,1,0,0,-2,-9,1,0,0,0,19,19,125,1,,response1disk_3,TRUE,6,6,"[249,147,56,121,210,18,207,168,117,192,222,85,216,188,178,20,207,149,64,196]",2.635,rectangle
,,,,,,,,,,,,,FF,,,,,,,,4.201,,,,,,,,,,,,,,,,,,,,,,6101b58d26f47c98e418489e,61036e12edd6c0835ec37ad3,2021-07-29_23h13.57.068,Simcolourproject_2stim_asymm_v5,2020.2.10,MacIntel,60,61025ae37ef11b136ea224fe,,,,,,,,,1295,-92,-61,1,0,0,response5disk,,2,-8,-2,1,0,0,rectangle,-8,-2,1,0,0,-8,-2,1,0,0,0,20,20,79,1,,,,,,,,
,,,,,,,,,,,,,FF,,,,,,,,2.784,,,,,,,,,,,,,,,,,,,,,,6101b58d26f47c98e418489e,61036e12edd6c0835ec37ad3,2021-07-29_23h13.57.068,Simcolourproject_2stim_asymm_v5,2020.2.10,MacIntel,60,61025ae37ef11b136ea224fe,,,,,,,,,938,82,66,1,0,0,response1disk,,6,-18,-6,1,0,0,rectangle,-18,-6,1,0,0,-18,-6,1,0,0,0,21,21,72,1,,,,,,,,
,,,,,,,,,,,,,FF,,,,,,,,2.752,,,,,,,,,,,,,,,,,,,,,,6101b58d26f47c98e418489e,61036e12edd6c0835ec37ad3,2021-07-29_23h13.57.068,Simcolourproject_2stim_asymm_v5,2020.2.10,MacIntel,60,61025ae37ef11b136ea224fe,,,,,,,,,3846,-28,-67,1,0,0,response5disk,,3,-2,-6,1,0,0,rectangle,-2,-6,1,0,0,-2,-6,1,0,0,0,22,22,96,1,,,,,,,,
,,,,,,,,,,,,,FF,,,,,,,,1.667,,,,,,,,,,,,,,,,,,,,,,6101b58d26f47c98e418489e,61036e12edd6c0835ec37ad3,2021-07-29_23h13.57.068,Simcolourproject_2stim_asymm_v5,2020.2.10,MacIntel,60,61025ae37ef11b136ea224fe,,,,,,,,,1792,67,-47,1,0,0,response3disk,,5,14,-8,1,0,0,rectangle,14,-8,1,0,0,14,-8,1,0,0,0,23,23,67,1,,,,,,,,
,,,,,,,,,,,,,FF,,,,,,,,2.467,,,,,,,,,,,,,,,,,,,,,,6101b58d26f47c98e418489e,61036e12edd6c0835ec37ad3,2021-07-29_23h13.57.068,Simcolourproject_2stim_asymm_v5,2020.2.10,MacIntel,60,61025ae37ef11b136ea224fe,,,,,,,,,4243,66,50,1,0,0,response1disk,,6,-13,-4,1,0,0,rectangle,-13,-4,1,0,0,-13,-4,1,0,0,0,24,24,87,1,,,,,,,,
,,,,,,,,,,,,,FF,,,,,,,,1.3,,,,,,,,,,,,,,,,,,,,,,6101b58d26f47c98e418489e,61036e12edd6c0835ec37ad3,2021-07-29_23h13.57.068,Simcolourproject_2stim_asymm_v5,2020.2.10,MacIntel,60,61025ae37ef11b136ea224fe,,,,,,,,,2792,35,-63,1,0,0,response3disk,,4,7,-1,1,0,0,rectangle,7,-1,1,0,0,7,-1,1,0,0,0,25,25,118,1,,,,,,,,
,,,,,,,,,,,,,FF,,,,,,,,1.118,,,,,,,,,,,,,,,,,,,,,,6101b58d26f47c98e418489e,61036e12edd6c0835ec37ad3,2021-07-29_23h13.57.068,Simcolourproject_2stim_asymm_v5,2020.2.10,MacIntel,60,61025ae37ef11b136ea224fe,,,,,,,,,91,31,-82,1,0,0,response3disk,,4,19,0,1,0,0,rectangle,19,0,1,0,0,19,0,1,0,0,0,26,26,58,1,,,,,,,,
,,,,,,,,,,,,,FF,,,,,,,,2.469,,,,,,,,,,,,,,,,,,,,,,6101b58d26f47c98e418489e,61036e12edd6c0835ec37ad3,2021-07-29_23h13.57.068,Simcolourproject_2stim_asymm_v5,2020.2.10,MacIntel,60,61025ae37ef11b136ea224fe,,,,,,,,,2368,38,-71,1,0,0,response3disk,,4,24,-12,1,0,0,rectangle,24,-12,1,0,0,24,-12,1,0,0,0,27,27,156,1,,,,,,,,
,,,,,,,,,,,,,FF,,,,,,,,2.384,,,,,,,,,,,,,,,,,,,,,,6101b58d26f47c98e418489e,61036e12edd6c0835ec37ad3,2021-07-29_23h13.57.068,Simcolourproject_2stim_asymm_v5,2020.2.10,MacIntel,60,61025ae37ef11b136ea224fe,,,,,,,,,1574,78,51,1,0,0,response1disk,,6,15,-2,1,0,0,rectangle,15,-2,1,0,0,15,-2,1,0,0,0,28,28,8,1,,,,,,,,
,,,,,,,,,,,,,FF,,,,,,,,2.652,,,,,,,,,,,,,,,,,,,,,,6101b58d26f47c98e418489e,61036e12edd6c0835ec37ad3,2021-07-29_23h13.57.068,Simcolourproject_2stim_asymm_v5,2020.2.10,MacIntel,60,61025ae37ef11b136ea224fe,,,,,,,,,726,30,-63,1,0,0,response3disk,,4,8,-3,1,0,0,rectangle,8,-3,1,0,0,8,-3,1,0,0,0,29,29,158,1,,,,,,,,
,,,,,,,,,,,,,FF,,,,,,,,1.601,,,,,,,,,,,,,,,,,,,,,,6101b58d26f47c98e418489e,61036e12edd6c0835ec37ad3,2021-07-29_23h13.57.068,Simcolourproject_2stim_asymm_v5,2020.2.10,MacIntel,60,61025ae37ef11b136ea224fe,,,,,,,,,2681,58,-28,1,0,0,response3disk,,5,17,-8,1,0,0,rectangle,17,-8,1,0,0,17,-8,1,0,0,0,30,30,6,1,,,,,,,,
,,,,,,,,,,,,,FF,,,,,,,,0.75,,,,,,,,,,,,,,,,,,,,,,6101b58d26f47c98e418489e,61036e12edd6c0835ec37ad3,2021-07-29_23h13.57.068,Simcolourproject_2stim_asymm_v5,2020.2.10,MacIntel,60,61025ae37ef11b136ea224fe,,,,,,,,,3839,88,-41,1,0,0,response3disk,,5,7,1,1,0,0,rectangle,7,1,1,0,0,7,1,1,0,0,0,31,31,51,1,,,,,,,,
,,,,,,,,,,,,,FF,,,,,,,,1.933,,,,,,,,,,,,,,,,,,,,,,6101b58d26f47c98e418489e,61036e12edd6c0835ec37ad3,2021-07-29_23h13.57.068,Simcolourproject_2stim_asymm_v5,2020.2.10,MacIntel,60,61025ae37ef11b136ea224fe,,,,,,,,,909,80,-35,1,0,0,response3disk,,5,15,2,1,0,0,rectangle,15,2,1,0,0,15,2,1,0,0,0,32,32,86,1,,,,,,,,
,,,,,,,,,,,,,FF,,,,,,,,1.399,,,,,,,,,,,,,,,,,,,,,,6101b58d26f47c98e418489e,61036e12edd6c0835ec37ad3,2021-07-29_23h13.57.068,Simcolourproject_2stim_asymm_v5,2020.2.10,MacIntel,60,61025ae37ef11b136ea224fe,,,,,,,,,1305,40,-87,1,0,0,response3disk,,4,13,-2,1,0,0,rectangle,13,-2,1,0,0,13,-2,1,0,0,0,33,33,29,1,,,,,,,,
,,,,,,,,,,,,,FF,,,,,,,,2.9,,,,,,,,,,,,,,,,,,,,,,6101b58d26f47c98e418489e,61036e12edd6c0835ec37ad3,2021-07-29_23h13.57.068,Simcolourproject_2stim_asymm_v5,2020.2.10,MacIntel,60,61025ae37ef11b136ea224fe,,,,,,,,,2942,-45,-53,1,0,0,response5disk,,3,-23,5,1,0,0,rectangle,-23,5,1,0,0,-23,5,1,0,0,0,34,34,114,1,,,,,,,,
,,,,,,,,,,,,,FF,,,,,,,,1.551,,,,,,,,,,,,,,,,,,,,,,6101b58d26f47c98e418489e,61036e12edd6c0835ec37ad3,2021-07-29_23h13.57.068,Simcolourproject_2stim_asymm_v5,2020.2.10,MacIntel,60,61025ae37ef11b136ea224fe,,,,,,,,,1920,44,76,1,0,0,response1disk,,7,5,5,1,0,0,rectangle,5,5,1,0,0,5,5,1,0,0,0,35,35,110,1,,,,,,,,
,,,,,,,,,,,,,FF,,,,,,,,0.732,,,,,,,,,,,,,,,,,,,,,,6101b58d26f47c98e418489e,61036e12edd6c0835ec37ad3,2021-07-29_23h13.57.068,Simcolourproject_2stim_asymm_v5,2020.2.10,MacIntel,60,61025ae37ef11b136ea224fe,,,,,,,,,1853,28,73,1,0,0,response1disk,,7,4,0,1,0,0,rectangle,4,0,1,0,0,4,0,1,0,0,0,36,36,127,1,,,,,,,,
,,,,,,,,,,,,,FF,,,,,,,,1.085,,,,,,,,,,,,,,,,,,,,,,6101b58d26f47c98e418489e,61036e12edd6c0835ec37ad3,2021-07-29_23h13.57.068,Simcolourproject_2stim_asymm_v5,2020.2.10,MacIntel,60,61025ae37ef11b136ea224fe,,,,,,,,,4236,69,-34,1,0,0,response3disk,,5,24,3,1,0,0,rectangle,24,3,1,0,0,24,3,1,0,0,0,37,37,129,1,,,,,,,,
,,,,,,,,,,,,,FF,,,,,,,,1.433,,,,,,,,,,,,,,,,,,,,,,6101b58d26f47c98e418489e,61036e12edd6c0835ec37ad3,2021-07-29_23h13.57.068,Simcolourproject_2stim_asymm_v5,2020.2.10,MacIntel,60,61025ae37ef11b136ea224fe,,,,,,,,,507,42,68,1,0,0,response1disk,,7,8,1,1,0,0,rectangle,8,1,1,0,0,8,1,1,0,0,0,38,38,74,1,,,,,,,,
,,,,,,,,,,,,,FF,,,,,,,,4.252,,,,,,,,,,,,,,,,,,,,,,6101b58d26f47c98e418489e,61036e12edd6c0835ec37ad3,2021-07-29_23h13.57.068,Simcolourproject_2stim_asymm_v5,2020.2.10,MacIntel,60,61025ae37ef11b136ea224fe,,,,,,,,,1029,69,56,1,0,0,response1disk,,6,18,1,1,0,0,rectangle,18,1,1,0,0,18,1,1,0,0,0,39,39,21,1,,,,,,,,
,,,,,,,,,,,,,FF,,,,,,,,3.619,,,,,,,,,,,,,,,,,,,,,,6101b58d26f47c98e418489e,61036e12edd6c0835ec37ad3,2021-07-29_23h13.57.068,Simcolourproject_2stim_asymm_v5,2020.2.10,MacIntel,60,61025ae37ef11b136ea224fe,,,,,,,,,538,63,60,1,0,0,response1disk,,6,3,7,1,0,0,rectangle,3,7,1,0,0,3,7,1,0,0,0,40,40,157,1,,,,,,,,
,,,,,,,,,,,,,FF,,,,,,,,2.068,,,,,,,,,,,,,,,,,,,,,,6101b58d26f47c98e418489e,61036e12edd6c0835ec37ad3,2021-07-29_23h13.57.068,Simcolourproject_2stim_asymm_v5,2020.2.10,MacIntel,60,61025ae37ef11b136ea224fe,,,,,,,,,4275,43,68,1,0,0,response1disk,,7,8,7,1,0,0,rectangle,8,7,1,0,0,8,7,1,0,0,0,41,41,10,1,,,,,,,,
,,,,,,,,,,,,,FF,,,,,,,,1.351,,,,,,,,,,,,,,,,,,,,,,6101b58d26f47c98e418489e,61036e12edd6c0835ec37ad3,2021-07-29_23h13.57.068,Simcolourproject_2stim_asymm_v5,2020.2.10,MacIntel,60,61025ae37ef11b136ea224fe,,,,,,,,,1830,44,-32,1,0,0,response3disk,,5,2,-6,1,0,0,rectangle,2,-6,1,0,0,2,-6,1,0,0,0,42,42,113,1,,,,,,,,
,,,,,,,,,,,,,FF,,,,,,,,2.268,,,,,,,,,,,,,,,,,,,,,,6101b58d26f47c98e418489e,61036e12edd6c0835ec37ad3,2021-07-29_23h13.57.068,Simcolourproject_2stim_asymm_v5,2020.2.10,MacIntel,60,61025ae37ef11b136ea224fe,,,,,,,,,3856,63,35,1,0,0,response1disk,,6,8,3,1,0,0,rectangle,8,3,1,0,0,8,3,1,0,0,0,43,43,80,1,,,,,,,,
,,,,,,,,,,,,,FF,,,,,,,,2.335,,,,,,,,,,,,,,,,,,,,,,6101b58d26f47c98e418489e,61036e12edd6c0835ec37ad3,2021-07-29_23h13.57.068,Simcolourproject_2stim_asymm_v5,2020.2.10,MacIntel,60,61025ae37ef11b136ea224fe,,,,,,,,,3076,39,50,1,0,0,response1disk,,7,4,-2,1,0,0,rectangle,4,-2,1,0,0,4,-2,1,0,0,0,44,44,41,1,,,,,,,,
,,,,,,,,,,,,,FF,,,,,,,,1.219,,,,,,,,,,,,,,,,,,,,,,6101b58d26f47c98e418489e,61036e12edd6c0835ec37ad3,2021-07-29_23h13.57.068,Simcolourproject_2stim_asymm_v5,2020.2.10,MacIntel,60,61025ae37ef11b136ea224fe,,,,,,,,,1911,65,42,1,0,0,response1disk,,6,16,3,1,0,0,rectangle,16,3,1,0,0,16,3,1,0,0,0,45,45,15,1,,,,,,,,
,,,,,,,,,,,,,FF,,,,,,,,0.867,,,,,,,,,,,,,,,,,,,,,,6101b58d26f47c98e418489e,61036e12edd6c0835ec37ad3,2021-07-29_23h13.57.068,Simcolourproject_2stim_asymm_v5,2020.2.10,MacIntel,60,61025ae37ef11b136ea224fe,,,,,,,,,2198,29,57,1,0,0,response1disk,,7,20,-4,1,0,0,rectangle,20,-4,1,0,0,20,-4,1,0,0,0,46,46,60,1,,,,,,,,
,,,,,,,,,,,,,FF,,,,,,,,3.368,,,,,,,,,,,,,,,,,,,,,,6101b58d26f47c98e418489e,61036e12edd6c0835ec37ad3,2021-07-29_23h13.57.068,Simcolourproject_2stim_asymm_v5,2020.2.10,MacIntel,60,61025ae37ef11b136ea224fe,,,,,,,,,4295,19,-65,1,0,0,response3disk,,4,5,0,1,0,0,rectangle,5,0,1,0,0,5,0,1,0,0,0,47,47,46,1,,,,,,,,
,,,,,,,,,,,,,FF,,,,,,,,2.134,,,,,,,,,,,,,,,,,,,,,,6101b58d26f47c98e418489e,61036e12edd6c0835ec37ad3,2021-07-29_23h13.57.068,Simcolourproject_2stim_asymm_v5,2020.2.10,MacIntel,60,61025ae37ef11b136ea224fe,,,,,,,,,397,30,69,1,0,0,response1disk,,7,14,-1,1,0,0,rectangle,14,-1,1,0,0,14,-1,1,0,0,0,48,48,122,1,,,,,,,,
,,,,,,,,,,,,,FF,,,,,,,,2.885,,,,,,,,,,,,,,,,,,,,,,6101b58d26f47c98e418489e,61036e12edd6c0835ec37ad3,2021-07-29_23h13.57.068,Simcolourproject_2stim_asymm_v5,2020.2.10,MacIntel,60,61025ae37ef11b136ea224fe,,,,,,,,,869,74,-27,1,0,0,response3disk,,5,17,-9,1,0,0,rectangle,17,-9,1,0,0,17,-9,1,0,0,0,49,49,134,1,,,,,,,,
,,,,,,,,,,,,,FF,,,,,,,,1.517,,,,,,,,,,,,,,,,,,,,,,6101b58d26f47c98e418489e,61036e12edd6c0835ec37ad3,2021-07-29_23h13.57.068,Simcolourproject_2stim_asymm_v5,2020.2.10,MacIntel,60,61025ae37ef11b136ea224fe,,,,,,,,,2645,24,57,1,0,0,response1disk,,7,19,-5,1,0,0,rectangle,19,-5,1,0,0,19,-5,1,0,0,0,50,50,43,1,,,,,,,,
,,,,,,,,,,,,,FF,,,,,,,,0.95,,,,,,,,,,,,,,,,,,,,,,6101b58d26f47c98e418489e,61036e12edd6c0835ec37ad3,2021-07-29_23h13.57.068,Simcolourproject_2stim_asymm_v5,2020.2.10,MacIntel,60,61025ae37ef11b136ea224fe,,,,,,,,,2023,27,65,1,0,0,response1disk,,7,20,-7,1,0,0,rectangle,20,-7,1,0,0,20,-7,1,0,0,0,51,51,151,1,,,,,,,,
,,,,,,,,,,,,,FF,,,,,,,,2.302,,,,,,,,,,,,,,,,,,,,,,6101b58d26f47c98e418489e,61036e12edd6c0835ec37ad3,2021-07-29_23h13.57.068,Simcolourproject_2stim_asymm_v5,2020.2.10,MacIntel,60,61025ae37ef11b136ea224fe,,,,,,,,,2680,55,-19,1,0,0,response3disk,,5,21,2,1,0,0,rectangle,21,2,1,0,0,21,2,1,0,0,0,52,52,153,1,,,,,,,,
,,,,,,,,,,,,,FF,,,,,,,,1.168,,,,,,,,,,,,,,,,,,,,,,6101b58d26f47c98e418489e,61036e12edd6c0835ec37ad3,2021-07-29_23h13.57.068,Simcolourproject_2stim_asymm_v5,2020.2.10,MacIntel,60,61025ae37ef11b136ea224fe,,,,,,,,,2443,28,53,1,0,0,response1disk,,7,13,0,1,0,0,rectangle,13,0,1,0,0,13,0,1,0,0,0,53,53,126,1,,,,,,,,
,,,,,,,,,,,,,FF,,,,,,,,1.266,,,,,,,,,,,,,,,,,,,,,,6101b58d26f47c98e418489e,61036e12edd6c0835ec37ad3,2021-07-29_23h13.57.068,Simcolourproject_2stim_asymm_v5,2020.2.10,MacIntel,60,61025ae37ef11b136ea224fe,,,,,,,,,3782,-22,-63,1,0,0,response5disk,,3,-3,5,1,0,0,rectangle,-3,5,1,0,0,-3,5,1,0,0,0,54,54,109,1,,,,,,,,
,,,,,,,,,,,,,FF,,,,,,,,1.884,,,,,,,,,,,,,,,,,,,,,,6101b58d26f47c98e418489e,61036e12edd6c0835ec37ad3,2021-07-29_23h13.57.068,Simcolourproject_2stim_asymm_v5,2020.2.10,MacIntel,60,61025ae37ef11b136ea224fe,,,,,,,,,1334,28,50,1,0,0,response1disk,,7,11,3,1,0,0,rectangle,33,75,1,0,0,0,-5,1,0,0,0,55,55,31,1,,response1disk_3,TRUE,7,7,"[249,147,56,121,210,18,207,168,117,192,222,85,216,188,178,20,207,149,64,196]",2.601,rectangle
,,,,,,,,,,,,,FF,,,,,,,,1.051,,,,,,,,,,,,,,,,,,,,,,6101b58d26f47c98e418489e,61036e12edd6c0835ec37ad3,2021-07-29_23h13.57.068,Simcolourproject_2stim_asymm_v5,2020.2.10,MacIntel,60,61025ae37ef11b136ea224fe,,,,,,,,,4305,-41,84,1,0,0,response7disk,,0,-6,2,1,0,0,rectangle,-6,2,1,0,0,-6,2,1,0,0,0,56,56,154,1,,,,,,,,
,,,,,,,,,,,,,FF,,,,,,,,1.935,,,,,,,,,,,,,,,,,,,,,,6101b58d26f47c98e418489e,61036e12edd6c0835ec37ad3,2021-07-29_23h13.57.068,Simcolourproject_2stim_asymm_v5,2020.2.10,MacIntel,60,61025ae37ef11b136ea224fe,,,,,,,,,175,-87,-42,1,0,0,response5disk,,2,-12,-2,1,0,0,rectangle,-12,-2,1,0,0,-12,-2,1,0,0,0,57,57,17,1,,,,,,,,
,,,,,,,,,,,,,FF,,,,,,,,3.701,,,,,,,,,,,,,,,,,,,,,,6101b58d26f47c98e418489e,61036e12edd6c0835ec37ad3,2021-07-29_23h13.57.068,Simcolourproject_2stim_asymm_v5,2020.2.10,MacIntel,60,61025ae37ef11b136ea224fe,,,,,,,,,856,83,30,1,0,0,response1disk,,6,14,0,1,0,0,rectangle,14,0,1,0,0,14,0,1,0,0,0,58,58,35,1,,,,,,,,
,,,,,,,,,,,,,FF,,,,,,,,1.566,,,,,,,,,,,,,,,,,,,,,,6101b58d26f47c98e418489e,61036e12edd6c0835ec37ad3,2021-07-29_23h13.57.068,Simcolourproject_2stim_asymm_v5,2020.2.10,MacIntel,60,61025ae37ef11b136ea224fe,,,,,,,,,1169,76,49,1,0,0,response1disk,,6,-14,-4,1,0,0,rectangle,-14,-4,1,0,0,-14,-4,1,0,0,0,59,59,145,1,,,,,,,,
,,,,,,,,,,,,,FF,,,,,,,,3.735,,,,,,,,,,,,,,,,,,,,,,6101b58d26f47c98e418489e,61036e12edd6c0835ec37ad3,2021-07-29_23h13.57.068,Simcolourproject_2stim_asymm_v5,2020.2.10,MacIntel,60,61025ae37ef11b136ea224fe,,,,,,,,,701,-30,-65,1,0,0,response5disk,,3,4,6,1,0,0,rectangle,4,6,1,0,0,4,6,1,0,0,0,60,60,65,1,,,,,,,,
,,,,,,,,,,,,,FF,,,,,,,,2.251,,,,,,,,,,,,,,,,,,,,,,6101b58d26f47c98e418489e,61036e12edd6c0835ec37ad3,2021-07-29_23h13.57.068,Simcolourproject_2stim_asymm_v5,2020.2.10,MacIntel,60,61025ae37ef11b136ea224fe,,,,,,,,,4294,-84,-23,1,0,0,response5disk,,2,12,-1,1,0,0,rectangle,12,-1,1,0,0,12,-1,1,0,0,0,61,61,159,1,,,,,,,,
,,,,,,,,,,,,,FF,,,,,,,,1.185,,,,,,,,,,,,,,,,,,,,,,6101b58d26f47c98e418489e,61036e12edd6c0835ec37ad3,2021-07-29_23h13.57.068,Simcolourproject_2stim_asymm_v5,2020.2.10,MacIntel,60,61025ae37ef11b136ea224fe,,,,,,,,,4216,54,-24,1,0,0,response3disk,,5,9,-4,1,0,0,rectangle,9,-4,1,0,0,9,-4,1,0,0,0,62,62,42,1,,,,,,,,
,,,,,,,,,,,,,FF,,,,,,,,2.501,,,,,,,,,,,,,,,,,,,,,,6101b58d26f47c98e418489e,61036e12edd6c0835ec37ad3,2021-07-29_23h13.57.068,Simcolourproject_2stim_asymm_v5,2020.2.10,MacIntel,60,61025ae37ef11b136ea224fe,,,,,,,,,3526,61,-35,1,0,0,response3disk,,5,7,-6,1,0,0,rectangle,-87,-50,1,0,0,-7,-2,1,0,0,0,63,63,50,1,,response5disk_3,TRUE,2,2,"[249,147,56,121,210,18,207,168,117,192,222,85,216,188,178,20,207,149,64,196]",2.45,rectangle
,,,,,,,,,,,,,FF,,,,,,,,1.233,,,,,,,,,,,,,,,,,,,,,,6101b58d26f47c98e418489e,61036e12edd6c0835ec37ad3,2021-07-29_23h13.57.068,Simcolourproject_2stim_asymm_v5,2020.2.10,MacIntel,60,61025ae37ef11b136ea224fe,,,,,,,,,1275,-54,-77,1,0,0,response5disk,,3,-19,-6,1,0,0,rectangle,-19,-6,1,0,0,-19,-6,1,0,0,0,64,64,22,1,,,,,,,,
,,,,,,,,,,,,,FF,,,,,,,,1.7,,,,,,,,,,,,,,,,,,,,,,6101b58d26f47c98e418489e,61036e12edd6c0835ec37ad3,2021-07-29_23h13.57.068,Simcolourproject_2stim_asymm_v5,2020.2.10,MacIntel,60,61025ae37ef11b136ea224fe,,,,,,,,,2746,71,65,1,0,0,response1disk,,6,-8,8,1,0,0,rectangle,-8,8,1,0,0,-8,8,1,0,0,0,65,65,66,1,,,,,,,,
,,,,,,,,,,,,,FF,,,,,,,,1.634,,,,,,,,,,,,,,,,,,,,,,6101b58d26f47c98e418489e,61036e12edd6c0835ec37ad3,2021-07-29_23h13.57.068,Simcolourproject_2stim_asymm_v5,2020.2.10,MacIntel,60,61025ae37ef11b136ea224fe,,,,,,,,,578,59,33,1,0,0,response1disk,,6,9,-1,1,0,0,rectangle,9,-1,1,0,0,9,-1,1,0,0,0,66,66,90,1,,,,,,,,
,,,,,,,,,,,,,FF,,,,,,,,2.267,,,,,,,,,,,,,,,,,,,,,,6101b58d26f47c98e418489e,61036e12edd6c0835ec37ad3,2021-07-29_23h13.57.068,Simcolourproject_2stim_asymm_v5,2020.2.10,MacIntel,60,61025ae37ef11b136ea224fe,,,,,,,,,418,37,77,1,0,0,response1disk,,7,21,1,1,0,0,rectangle,21,1,1,0,0,21,1,1,0,0,0,67,67,83,1,,,,,,,,
,,,,,,,,,,,,,FF,,,,,,,,0.617,,,,,,,,,,,,,,,,,,,,,,6101b58d26f47c98e418489e,61036e12edd6c0835ec37ad3,2021-07-29_23h13.57.068,Simcolourproject_2stim_asymm_v5,2020.2.10,MacIntel,60,61025ae37ef11b136ea224fe,,,,,,,,,3986,37,72,1,0,0,response1disk,,7,21,-13,1,0,0,rectangle,21,-13,1,0,0,21,-13,1,0,0,0,68,68,16,1,,,,,,,,
,,,,,,,,,,,,,FF,,,,,,,,1.284,,,,,,,,,,,,,,,,,,,,,,6101b58d26f47c98e418489e,61036e12edd6c0835ec37ad3,2021-07-29_23h13.57.068,Simcolourproject_2stim_asymm_v5,2020.2.10,MacIntel,60,61025ae37ef11b136ea224fe,,,,,,,,,576,77,47,1,0,0,response1disk,,6,16,7,1,0,0,rectangle,16,7,1,0,0,16,7,1,0,0,0,69,69,148,1,,,,,,,,
,,,,,,,,,,,,,FF,,,,,,,,2.818,,,,,,,,,,,,,,,,,,,,,,6101b58d26f47c98e418489e,61036e12edd6c0835ec37ad3,2021-07-29_23h13.57.068,Simcolourproject_2stim_asymm_v5,2020.2.10,MacIntel,60,61025ae37ef11b136ea224fe,,,,,,,,,1269,70,-31,1,0,0,response3disk,,5,19,-8,1,0,0,rectangle,19,-8,1,0,0,19,-8,1,0,0,0,70,70,44,1,,,,,,,,
,,,,,,,,,,,,,FF,,,,,,,,2.602,,,,,,,,,,,,,,,,,,,,,,6101b58d26f47c98e418489e,61036e12edd6c0835ec37ad3,2021-07-29_23h13.57.068,Simcolourproject_2stim_asymm_v5,2020.2.10,MacIntel,60,61025ae37ef11b136ea224fe,,,,,,,,,2839,-57,-59,1,0,0,response5disk,,3,3,5,1,0,0,rectangle,3,5,1,0,0,3,5,1,0,0,0,71,71,150,1,,,,,,,,
,,,,,,,,,,,,,FF,,,,,,,,2.001,,,,,,,,,,,,,,,,,,,,,,6101b58d26f47c98e418489e,61036e12edd6c0835ec37ad3,2021-07-29_23h13.57.068,Simcolourproject_2stim_asymm_v5,2020.2.10,MacIntel,60,61025ae37ef11b136ea224fe,,,,,,,,,2350,30,-77,1,0,0,response3disk,,4,17,-12,1,0,0,rectangle,17,-12,1,0,0,17,-12,1,0,0,0,72,72,47,1,,,,,,,,
,,,,,,,,,,,,,FF,,,,,,,,2.202,,,,,,,,,,,,,,,,,,,,,,6101b58d26f47c98e418489e,61036e12edd6c0835ec37ad3,2021-07-29_23h13.57.068,Simcolourproject_2stim_asymm_v5,2020.2.10,MacIntel,60,61025ae37ef11b136ea224fe,,,,,,,,,2658,73,44,1,0,0,response1disk,,6,12,4,1,0,0,rectangle,12,4,1,0,0,12,4,1,0,0,0,73,73,26,1,,,,,,,,
,,,,,,,,,,,,,FF,,,,,,,,2.101,,,,,,,,,,,,,,,,,,,,,,6101b58d26f47c98e418489e,61036e12edd6c0835ec37ad3,2021-07-29_23h13.57.068,Simcolourproject_2stim_asymm_v5,2020.2.10,MacIntel,60,61025ae37ef11b136ea224fe,,,,,,,,,2670,-74,-55,1,0,0,response5disk,,2,-16,-6,1,0,0,rectangle,-16,-6,1,0,0,-16,-6,1,0,0,0,74,74,106,1,,,,,,,,
,,,,,,,,,,,,,FF,,,,,,,,1.084,,,,,,,,,,,,,,,,,,,,,,6101b58d26f47c98e418489e,61036e12edd6c0835ec37ad3,2021-07-29_23h13.57.068,Simcolourproject_2stim_asymm_v5,2020.2.10,MacIntel,60,61025ae37ef11b136ea224fe,,,,,,,,,4,-44,-49,1,0,0,response5disk,,3,-25,-2,1,0,0,rectangle,-25,-2,1,0,0,-25,-2,1,0,0,0,75,75,30,1,,,,,,,,
,,,,,,,,,,,,,FF,,,,,,,,1.7,,,,,,,,,,,,,,,,,,,,,,6101b58d26f47c98e418489e,61036e12edd6c0835ec37ad3,2021-07-29_23h13.57.068,Simcolourproject_2stim_asymm_v5,2020.2.10,MacIntel,60,61025ae37ef11b136ea224fe,,,,,,,,,825,68,-40,1,0,0,response3disk,,5,7,-1,1,0,0,rectangle,7,-1,1,0,0,7,-1,1,0,0,0,76,76,5,1,,,,,,,,
,,,,,,,,,,,,,FF,,,,,,,,1.783,,,,,,,,,,,,,,,,,,,,,,6101b58d26f47c98e418489e,61036e12edd6c0835ec37ad3,2021-07-29_23h13.57.068,Simcolourproject_2stim_asymm_v5,2020.2.10,MacIntel,60,61025ae37ef11b136ea224fe,,,,,,,,,3789,-60,-46,1,0,0,response5disk,,2,2,-7,1,0,0,rectangle,2,-7,1,0,0,2,-7,1,0,0,0,77,77,142,1,,,,,,,,
,,,,,,,,,,,,,FF,,,,,,,,0.816,,,,,,,,,,,,,,,,,,,,,,6101b58d26f47c98e418489e,61036e12edd6c0835ec37ad3,2021-07-29_23h13.57.068,Simcolourproject_2stim_asymm_v5,2020.2.10,MacIntel,60,61025ae37ef11b136ea224fe,,,,,,,,,2840,-79,-63,1,0,0,response5disk,,2,-1,6,1,0,0,rectangle,-1,6,1,0,0,-1,6,1,0,0,0,78,78,0,1,,,,,,,,
,,,,,,,,,,,,,FF,,,,,,,,1.167,,,,,,,,,,,,,,,,,,,,,,6101b58d26f47c98e418489e,61036e12edd6c0835ec37ad3,2021-07-29_23h13.57.068,Simcolourproject_2stim_asymm_v5,2020.2.10,MacIntel,60,61025ae37ef11b136ea224fe,,,,,,,,,2815,75,-37,1,0,0,response3disk,,5,-7,-4,1,0,0,rectangle,-7,-4,1,0,0,-7,-4,1,0,0,0,79,79,75,1,,,,,,,,
,,,,,,,,,,,,,FF,,,,,,,,1.717,,,,,,,,,,,,,,,,,,,,,,6101b58d26f47c98e418489e,61036e12edd6c0835ec37ad3,2021-07-29_23h13.57.068,Simcolourproject_2stim_asymm_v5,2020.2.10,MacIntel,60,61025ae37ef11b136ea224fe,,,,,,,,,1171,85,32,1,0,0,response1disk,,6,8,-2,1,0,0,rectangle,8,-2,1,0,0,8,-2,1,0,0,0,80,80,73,1,,,,,,,,
,,,,,,,,,,,,,FF,,,,,,,,1,,,,,,,,,,,,,,,,,,,,,,6101b58d26f47c98e418489e,61036e12edd6c0835ec37ad3,2021-07-29_23h13.57.068,Simcolourproject_2stim_asymm_v5,2020.2.10,MacIntel,60,61025ae37ef11b136ea224fe,,,,,,,,,1760,73,-35,1,0,0,response3disk,,5,16,-6,1,0,0,rectangle,16,-6,1,0,0,16,-6,1,0,0,0,81,81,45,1,,,,,,,,
,,,,,,,,,,,,,FF,,,,,,,,1.417,,,,,,,,,,,,,,,,,,,,,,6101b58d26f47c98e418489e,61036e12edd6c0835ec37ad3,2021-07-29_23h13.57.068,Simcolourproject_2stim_asymm_v5,2020.2.10,MacIntel,60,61025ae37ef11b136ea224fe,,,,,,,,,229,51,-33,1,0,0,response3disk,,5,20,-9,1,0,0,rectangle,20,-9,1,0,0,20,-9,1,0,0,0,82,82,116,1,,,,,,,,
,,,,,,,,,,,,,FF,,,,,,,,1.551,,,,,,,,,,,,,,,,,,,,,,6101b58d26f47c98e418489e,61036e12edd6c0835ec37ad3,2021-07-29_23h13.57.068,Simcolourproject_2stim_asymm_v5,2020.2.10,MacIntel,60,61025ae37ef11b136ea224fe,,,,,,,,,1585,65,-43,1,0,0,response3disk,,5,8,0,1,0,0,rectangle,8,0,1,0,0,8,0,1,0,0,0,83,83,40,1,,,,,,,,
,,,,,,,,,,,,,FF,,,,,,,,2.752,,,,,,,,,,,,,,,,,,,,,,6101b58d26f47c98e418489e,61036e12edd6c0835ec37ad3,2021-07-29_23h13.57.068,Simcolourproject_2stim_asymm_v5,2020.2.10,MacIntel,60,61025ae37ef11b136ea224fe,,,,,,,,,228,46,70,1,0,0,response1disk,,7,12,2,1,0,0,rectangle,-42,-82,1,0,0,-6,-5,1,0,0,0,84,84,71,1,,response5disk_3,TRUE,3,3,"[249,147,56,121,210,18,207,168,117,192,222,85,216,188,178,20,207,149,64,196]",2.15,rectangle
,,,,,,,,,,,,,FF,,,,,,,,1.818,,,,,,,,,,,,,,,,,,,,,,6101b58d26f47c98e418489e,61036e12edd6c0835ec37ad3,2021-07-29_23h13.57.068,Simcolourproject_2stim_asymm_v5,2020.2.10,MacIntel,60,61025ae37ef11b136ea224fe,,,,,,,,,1671,-50,-59,1,0,0,response5disk,,3,-19,-3,1,0,0,rectangle,-19,-3,1,0,0,-19,-3,1,0,0,0,85,85,9,1,,,,,,,,
,,,,,,,,,,,,,FF,,,,,,,,0.867,,,,,,,,,,,,,,,,,,,,,,6101b58d26f47c98e418489e,61036e12edd6c0835ec37ad3,2021-07-29_23h13.57.068,Simcolourproject_2stim_asymm_v5,2020.2.10,MacIntel,60,61025ae37ef11b136ea224fe,,,,,,,,,2039,-53,-42,1,0,0,response5disk,,2,5,3,1,0,0,rectangle,5,3,1,0,0,5,3,1,0,0,0,86,86,146,1,,,,,,,,
,,,,,,,,,,,,,FF,,,,,,,,3.602,,,,,,,,,,,,,,,,,,,,,,6101b58d26f47c98e418489e,61036e12edd6c0835ec37ad3,2021-07-29_23h13.57.068,Simcolourproject_2stim_asymm_v5,2020.2.10,MacIntel,60,61025ae37ef11b136ea224fe,,,,,,,,,3463,66,47,1,0,0,response1disk,,6,-9,5,1,0,0,rectangle,-9,5,1,0,0,-9,5,1,0,0,0,87,87,119,1,,,,,,,,
,,,,,,,,,,,,,FF,,,,,,,,1.135,,,,,,,,,,,,,,,,,,,,,,6101b58d26f47c98e418489e,61036e12edd6c0835ec37ad3,2021-07-29_23h13.57.068,Simcolourproject_2stim_asymm_v5,2020.2.10,MacIntel,60,61025ae37ef11b136ea224fe,,,,,,,,,3166,67,-25,1,0,0,response3disk,,5,10,-5,1,0,0,rectangle,10,-5,1,0,0,10,-5,1,0,0,0,88,88,132,1,,,,,,,,
,,,,,,,,,,,,,FF,,,,,,,,1.919,,,,,,,,,,,,,,,,,,,,,,6101b58d26f47c98e418489e,61036e12edd6c0835ec37ad3,2021-07-29_23h13.57.068,Simcolourproject_2stim_asymm_v5,2020.2.10,MacIntel,60,61025ae37ef11b136ea224fe,,,,,,,,,1512,56,-32,1,0,0,response3disk,,5,25,-10,1,0,0,rectangle,25,-10,1,0,0,25,-10,1,0,0,0,89,89,94,1,,,,,,,,
,,,,,,,,,,,,,FF,,,,,,,,1.551,,,,,,,,,,,,,,,,,,,,,,6101b58d26f47c98e418489e,61036e12edd6c0835ec37ad3,2021-07-29_23h13.57.068,Simcolourproject_2stim_asymm_v5,2020.2.10,MacIntel,60,61025ae37ef11b136ea224fe,,,,,,,,,3194,-37,-55,1,0,0,response5disk,,3,-22,-2,1,0,0,rectangle,-22,-2,1,0,0,-22,-2,1,0,0,0,90,90,18,1,,,,,,,,
,,,,,,,,,,,,,FF,,,,,,,,0.818,,,,,,,,,,,,,,,,,,,,,,6101b58d26f47c98e418489e,61036e12edd6c0835ec37ad3,2021-07-29_23h13.57.068,Simcolourproject_2stim_asymm_v5,2020.2.10,MacIntel,60,61025ae37ef11b136ea224fe,,,,,,,,,3512,-83,-37,1,0,0,response5disk,,2,-12,3,1,0,0,rectangle,-12,3,1,0,0,-12,3,1,0,0,0,91,91,117,1,,,,,,,,
,,,,,,,,,,,,,FF,,,,,,,,2.752,,,,,,,,,,,,,,,,,,,,,,6101b58d26f47c98e418489e,61036e12edd6c0835ec37ad3,2021-07-29_23h13.57.068,Simcolourproject_2stim_asymm_v5,2020.2.10,MacIntel,60,61025ae37ef11b136ea224fe,,,,,,,,,1800,29,-71,1,0,0,response3disk,,4,21,5,1,0,0,rectangle,21,5,1,0,0,21,5,1,0,0,0,92,92,70,1,,,,,,,,
,,,,,,,,,,,,,FF,,,,,,,,2.551,,,,,,,,,,,,,,,,,,,,,,6101b58d26f47c98e418489e,61036e12edd6c0835ec37ad3,2021-07-29_23h13.57.068,Simcolourproject_2stim_asymm_v5,2020.2.10,MacIntel,60,61025ae37ef11b136ea224fe,,,,,,,,,2124,52,68,1,0,0,response1disk,,7,-1,7,1,0,0,rectangle,-1,7,1,0,0,-1,7,1,0,0,0,93,93,39,1,,,,,,,,
,,,,,,,,,,,,,FF,,,,,,,,1.234,,,,,,,,,,,,,,,,,,,,,,6101b58d26f47c98e418489e,61036e12edd6c0835ec37ad3,2021-07-29_23h13.57.068,Simcolourproject_2stim_asymm_v5,2020.2.10,MacIntel,60,61025ae37ef11b136ea224fe,,,,,,,,,2889,-70,-32,1,0,0,response5disk,,2,-15,-9,1,0,0,rectangle,-15,-9,1,0,0,-15,-9,1,0,0,0,94,94,53,1,,,,,,,,
,,,,,,,,,,,,,FF,,,,,,,,3.201,,,,,,,,,,,,,,,,,,,,,,6101b58d26f47c98e418489e,61036e12edd6c0835ec37ad3,2021-07-29_23h13.57.068,Simcolourproject_2stim_asymm_v5,2020.2.10,MacIntel,60,61025ae37ef11b136ea224fe,,,,,,,,,4211,83,36,1,0,0,response1disk,,6,-4,1,1,0,0,rectangle,-4,1,1,0,0,-4,1,1,0,0,0,95,95,28,1,,,,,,,,
,,,,,,,,,,,,,FF,,,,,,,,1.368,,,,,,,,,,,,,,,,,,,,,,6101b58d26f47c98e418489e,61036e12edd6c0835ec37ad3,2021-07-29_23h13.57.068,Simcolourproject_2stim_asymm_v5,2020.2.10,MacIntel,60,61025ae37ef11b136ea224fe,,,,,,,,,463,-46,-64,1,0,0,response5disk,,3,-10,0,1,0,0,rectangle,-10,0,1,0,0,-10,0,1,0,0,0,96,96,89,1,,,,,,,,
,,,,,,,,,,,,,FF,,,,,,,,1.684,,,,,,,,,,,,,,,,,,,,,,6101b58d26f47c98e418489e,61036e12edd6c0835ec37ad3,2021-07-29_23h13.57.068,Simcolourproject_2stim_asymm_v5,2020.2.10,MacIntel,60,61025ae37ef11b136ea224fe,,,,,,,,,808,-74,21,1,0,0,response7disk,,1,14,13,1,0,0,rectangle,14,13,1,0,0,14,13,1,0,0,0,97,97,61,1,,,,,,,,
,,,,,,,,,,,,,FF,,,,,,,,1.034,,,,,,,,,,,,,,,,,,,,,,6101b58d26f47c98e418489e,61036e12edd6c0835ec37ad3,2021-07-29_23h13.57.068,Simcolourproject_2stim_asymm_v5,2020.2.10,MacIntel,60,61025ae37ef11b136ea224fe,,,,,,,,,3701,-79,-53,1,0,0,response5disk,,2,-21,-3,1,0,0,rectangle,-21,-3,1,0,0,-21,-3,1,0,0,0,98,98,78,1,,,,,,,,
,,,,,,,,,,,,,FF,,,,,,,,3.435,,,,,,,,,,,,,,,,,,,,,,6101b58d26f47c98e418489e,61036e12edd6c0835ec37ad3,2021-07-29_23h13.57.068,Simcolourproject_2stim_asymm_v5,2020.2.10,MacIntel,60,61025ae37ef11b136ea224fe,,,,,,,,,2953,38,-73,1,0,0,response3disk,,4,5,-14,1,0,0,rectangle,5,-14,1,0,0,5,-14,1,0,0,0,99,99,1,1,,,,,,,,
,,,,,,,,,,,,,FF,,,,,,,,1.318,,,,,,,,,,,,,,,,,,,,,,6101b58d26f47c98e418489e,61036e12edd6c0835ec37ad3,2021-07-29_23h13.57.068,Simcolourproject_2stim_asymm_v5,2020.2.10,MacIntel,60,61025ae37ef11b136ea224fe,,,,,,,,,558,59,-24,1,0,0,response3disk,,5,12,-13,1,0,0,rectangle,12,-13,1,0,0,12,-13,1,0,0,0,100,100,136,1,,,,,,,,
,,,,,,,,,,,,,FF,,,,,,,,2.133,,,,,,,,,,,,,,,,,,,,,,6101b58d26f47c98e418489e,61036e12edd6c0835ec37ad3,2021-07-29_23h13.57.068,Simcolourproject_2stim_asymm_v5,2020.2.10,MacIntel,60,61025ae37ef11b136ea224fe,,,,,,,,,1205,-35,-70,1,0,0,response5disk,,3,-8,-2,1,0,0,rectangle,-8,-2,1,0,0,-8,-2,1,0,0,0,101,101,140,1,,,,,,,,
,,,,,,,,,,,,,FF,,,,,,,,0.802,,,,,,,,,,,,,,,,,,,,,,6101b58d26f47c98e418489e,61036e12edd6c0835ec37ad3,2021-07-29_23h13.57.068,Simcolourproject_2stim_asymm_v5,2020.2.10,MacIntel,60,61025ae37ef11b136ea224fe,,,,,,,,,2987,-62,-42,1,0,0,response5disk,,2,-8,-6,1,0,0,rectangle,-8,-6,1,0,0,-8,-6,1,0,0,0,102,102,107,1,,,,,,,,
,,,,,,,,,,,,,FF,,,,,,,,2.453,,,,,,,,,,,,,,,,,,,,,,6101b58d26f47c98e418489e,61036e12edd6c0835ec37ad3,2021-07-29_23h13.57.068,Simcolourproject_2stim_asymm_v5,2020.2.10,MacIntel,60,61025ae37ef11b136ea224fe,,,,,,,,,709,43,-49,1,0,0,response3disk,,4,18,1,1,0,0,rectangle,18,1,1,0,0,18,1,1,0,0,0,103,103,48,1,,,,,,,,
,,,,,,,,,,,,,FF,,,,,,,,1.267,,,,,,,,,,,,,,,,,,,,,,6101b58d26f47c98e418489e,61036e12edd6c0835ec37ad3,2021-07-29_23h13.57.068,Simcolourproject_2stim_asymm_v5,2020.2.10,MacIntel,60,61025ae37ef11b136ea224fe,,,,,,,,,980,-57,-79,1,0,0,response5disk,,3,-14,-4,1,0,0,rectangle,-14,-4,1,0,0,-14,-4,1,0,0,0,104,104,36,1,,,,,,,,
,,,,,,,,,,,,,FF,,,,,,,,1.151,,,,,,,,,,,,,,,,,,,,,,6101b58d26f47c98e418489e,61036e12edd6c0835ec37ad3,2021-07-29_23h13.57.068,Simcolourproject_2stim_asymm_v5,2020.2.10,MacIntel,60,61025ae37ef11b136ea224fe,,,,,,,,,2730,-37,-48,1,0,0,response5disk,,3,-6,-1,1,0,0,rectangle,-6,-1,1,0,0,-6,-1,1,0,0,0,105,105,52,1,,,,,,,,
,,,,,,,,,,,,,FF,,,,,,,,3.167,,,,,,,,,,,,,,,,,,,,,,6101b58d26f47c98e418489e,61036e12edd6c0835ec37ad3,2021-07-29_23h13.57.068,Simcolourproject_2stim_asymm_v5,2020.2.10,MacIntel,60,61025ae37ef11b136ea224fe,,,,,,,,,3757,38,-58,1,0,0,response3disk,,4,10,-5,1,0,0,rectangle,10,-5,1,0,0,10,-5,1,0,0,0,106,106,11,1,,,,,,,,
,,,,,,,,,,,,,FF,,,,,,,,2.885,,,,,,,,,,,,,,,,,,,,,,6101b58d26f47c98e418489e,61036e12edd6c0835ec37ad3,2021-07-29_23h13.57.068,Simcolourproject_2stim_asymm_v5,2020.2.10,MacIntel,60,61025ae37ef11b136ea224fe,,,,,,,,,2440,85,-53,1,0,0,response3disk,,5,2,-10,1,0,0,rectangle,2,-10,1,0,0,2,-10,1,0,0,0,107,107,120,1,,,,,,,,
,,,,,,,,,,,,,FF,,,,,,,,0.934,,,,,,,,,,,,,,,,,,,,,,6101b58d26f47c98e418489e,61036e12edd6c0835ec37ad3,2021-07-29_23h13.57.068,Simcolourproject_2stim_asymm_v5,2020.2.10,MacIntel,60,61025ae37ef11b136ea224fe,,,,,,,,,2065,84,43,1,0,0,response1disk,,6,8,8,1,0,0,rectangle,8,8,1,0,0,8,8,1,0,0,0,108,108,2,1,,,,,,,,
,,,,,,,,,,,,,FF,,,,,,,,0.966,,,,,,,,,,,,,,,,,,,,,,6101b58d26f47c98e418489e,61036e12edd6c0835ec37ad3,2021-07-29_23h13.57.068,Simcolourproject_2stim_asymm_v5,2020.2.10,MacIntel,60,61025ae37ef11b136ea224fe,,,,,,,,,2351,58,-27,1,0,0,response3disk,,5,25,-14,1,0,0,rectangle,25,-14,1,0,0,25,-14,1,0,0,0,109,109,81,1,,,,,,,,
,,,,,,,,,,,,,FF,,,,,,,,1.067,,,,,,,,,,,,,,,,,,,,,,6101b58d26f47c98e418489e,61036e12edd6c0835ec37ad3,2021-07-29_23h13.57.068,Simcolourproject_2stim_asymm_v5,2020.2.10,MacIntel,60,61025ae37ef11b136ea224fe,,,,,,,,,40,68,34,1,0,0,response1disk,,6,13,-5,1,0,0,rectangle,13,-5,1,0,0,13,-5,1,0,0,0,110,110,93,1,,,,,,,,
,,,,,,,,,,,,,FF,,,,,,,,0.733,,,,,,,,,,,,,,,,,,,,,,6101b58d26f47c98e418489e,61036e12edd6c0835ec37ad3,2021-07-29_23h13.57.068,Simcolourproject_2stim_asymm_v5,2020.2.10,MacIntel,60,61025ae37ef11b136ea224fe,,,,,,,,,2764,39,79,1,0,0,response1disk,,7,12,-16,1,0,0,rectangle,12,-16,1,0,0,12,-16,1,0,0,0,111,111,91,1,,,,,,,,
,,,,,,,,,,,,,FF,,,,,,,,1.568,,,,,,,,,,,,,,,,,,,,,,6101b58d26f47c98e418489e,61036e12edd6c0835ec37ad3,2021-07-29_23h13.57.068,Simcolourproject_2stim_asymm_v5,2020.2.10,MacIntel,60,61025ae37ef11b136ea224fe,,,,,,,,,4213,80,46,1,0,0,response1disk,,6,13,7,1,0,0,rectangle,13,7,1,0,0,13,7,1,0,0,0,112,112,20,1,,,,,,,,
,,,,,,,,,,,,,FF,,,,,,,,0.934,,,,,,,,,,,,,,,,,,,,,,6101b58d26f47c98e418489e,61036e12edd6c0835ec37ad3,2021-07-29_23h13.57.068,Simcolourproject_2stim_asymm_v5,2020.2.10,MacIntel,60,61025ae37ef11b136ea224fe,,,,,,,,,1518,32,66,1,0,0,response1disk,,7,3,5,1,0,0,rectangle,3,5,1,0,0,3,5,1,0,0,0,113,113,152,1,,,,,,,,
,,,,,,,,,,,,,FF,,,,,,,,1.284,,,,,,,,,,,,,,,,,,,,,,6101b58d26f47c98e418489e,61036e12edd6c0835ec37ad3,2021-07-29_23h13.57.068,Simcolourproject_2stim_asymm_v5,2020.2.10,MacIntel,60,61025ae37ef11b136ea224fe,,,,,,,,,732,64,52,1,0,0,response1disk,,6,3,11,1,0,0,rectangle,3,11,1,0,0,3,11,1,0,0,0,114,114,149,1,,,,,,,,
,,,,,,,,,,,,,FF,,,,,,,,3.068,,,,,,,,,,,,,,,,,,,,,,6101b58d26f47c98e418489e,61036e12edd6c0835ec37ad3,2021-07-29_23h13.57.068,Simcolourproject_2stim_asymm_v5,2020.2.10,MacIntel,60,61025ae37ef11b136ea224fe,,,,,,,,,1073,74,58,1,0,0,response1disk,,6,6,1,1,0,0,rectangle,6,1,1,0,0,6,1,1,0,0,0,115,115,76,1,,,,,,,,
,,,,,,,,,,,,,FF,,,,,,,,1.601,,,,,,,,,,,,,,,,,,,,,,6101b58d26f47c98e418489e,61036e12edd6c0835ec37ad3,2021-07-29_23h13.57.068,Simcolourproject_2stim_asymm_v5,2020.2.10,MacIntel,60,61025ae37ef11b136ea224fe,,,,,,,,,4104,-41,-66,1,0,0,response5disk,,3,-5,2,1,0,0,rectangle,-48,-64,1,0,0,-11,-3,1,0,0,0,116,116,49,1,,response5disk_3,TRUE,3,3,"[249,147,56,121,210,18,207,168,117,192,222,85,216,188,178,20,207,149,64,196]",1.951,rectangle
,,,,,,,,,,,,,FF,,,,,,,,1.417,,,,,,,,,,,,,,,,,,,,,,6101b58d26f47c98e418489e,61036e12edd6c0835ec37ad3,2021-07-29_23h13.57.068,Simcolourproject_2stim_asymm_v5,2020.2.10,MacIntel,60,61025ae37ef11b136ea224fe,,,,,,,,,1452,-75,31,1,0,0,response7disk,,1,-10,6,1,0,0,rectangle,-10,6,1,0,0,-10,6,1,0,0,0,117,117,99,1,,,,,,,,
,,,,,,,,,,,,,FF,,,,,,,,2.4,,,,,,,,,,,,,,,,,,,,,,6101b58d26f47c98e418489e,61036e12edd6c0835ec37ad3,2021-07-29_23h13.57.068,Simcolourproject_2stim_asymm_v5,2020.2.10,MacIntel,60,61025ae37ef11b136ea224fe,,,,,,,,,3633,-30,-56,1,0,0,response5disk,,3,-21,-16,1,0,0,rectangle,-21,-16,1,0,0,-21,-16,1,0,0,0,118,118,23,1,,,,,,,,
,,,,,,,,,,,,,FF,,,,,,,,1.333,,,,,,,,,,,,,,,,,,,,,,6101b58d26f47c98e418489e,61036e12edd6c0835ec37ad3,2021-07-29_23h13.57.068,Simcolourproject_2stim_asymm_v5,2020.2.10,MacIntel,60,61025ae37ef11b136ea224fe,,,,,,,,,3645,72,-34,1,0,0,response3disk,,5,20,-9,1,0,0,rectangle,20,-9,1,0,0,20,-9,1,0,0,0,119,119,85,1,,,,,,,,
,,,,,,,,,,,,,FF,,,,,,,,0.9,,,,,,,,,,,,,,,,,,,,,,6101b58d26f47c98e418489e,61036e12edd6c0835ec37ad3,2021-07-29_23h13.57.068,Simcolourproject_2stim_asymm_v5,2020.2.10,MacIntel,60,61025ae37ef11b136ea224fe,,,,,,,,,1771,56,-51,1,0,0,response3disk,,5,-1,2,1,0,0,rectangle,-28,66,1,0,0,0,0,1,0,0,0,120,120,101,1,,response7disk_3,TRUE,0,0,"[249,147,56,121,210,18,207,168,117,192,222,85,216,188,178,20,207,149,64,196]",1.884,rectangle
,,,,,,,,,,,,,FF,,,,,,,,3.952,,,,,,,,,,,,,,,,,,,,,,6101b58d26f47c98e418489e,61036e12edd6c0835ec37ad3,2021-07-29_23h13.57.068,Simcolourproject_2stim_asymm_v5,2020.2.10,MacIntel,60,61025ae37ef11b136ea224fe,,,,,,,,,704,37,-78,1,0,0,response3disk,,4,19,-1,1,0,0,rectangle,19,-1,1,0,0,19,-1,1,0,0,0,121,121,59,1,,,,,,,,
,,,,,,,,,,,,,FF,,,,,,,,1.634,,,,,,,,,,,,,,,,,,,,,,6101b58d26f47c98e418489e,61036e12edd6c0835ec37ad3,2021-07-29_23h13.57.068,Simcolourproject_2stim_asymm_v5,2020.2.10,MacIntel,60,61025ae37ef11b136ea224fe,,,,,,,,,3959,71,37,1,0,0,response1disk,,6,14,0,1,0,0,rectangle,14,0,1,0,0,14,0,1,0,0,0,122,122,4,1,,,,,,,,
,,,,,,,,,,,,,FF,,,,,,,,1.817,,,,,,,,,,,,,,,,,,,,,,6101b58d26f47c98e418489e,61036e12edd6c0835ec37ad3,2021-07-29_23h13.57.068,Simcolourproject_2stim_asymm_v5,2020.2.10,MacIntel,60,61025ae37ef11b136ea224fe,,,,,,,,,1220,-58,26,1,0,0,response7disk,,1,0,8,1,0,0,rectangle,0,8,1,0,0,0,8,1,0,0,0,123,123,55,1,,,,,,,,
,,,,,,,,,,,,,FF,,,,,,,,1.351,,,,,,,,,,,,,,,,,,,,,,6101b58d26f47c98e418489e,61036e12edd6c0835ec37ad3,2021-07-29_23h13.57.068,Simcolourproject_2stim_asymm_v5,2020.2.10,MacIntel,60,61025ae37ef11b136ea224fe,,,,,,,,,694,59,33,1,0,0,response1disk,,6,7,5,1,0,0,rectangle,7,5,1,0,0,7,5,1,0,0,0,124,124,3,1,,,,,,,,
,,,,,,,,,,,,,FF,,,,,,,,0.784,,,,,,,,,,,,,,,,,,,,,,6101b58d26f47c98e418489e,61036e12edd6c0835ec37ad3,2021-07-29_23h13.57.068,Simcolourproject_2stim_asymm_v5,2020.2.10,MacIntel,60,61025ae37ef11b136ea224fe,,,,,,,,,3242,62,30,1,0,0,response1disk,,6,5,3,1,0,0,rectangle,5,3,1,0,0,5,3,1,0,0,0,125,125,141,1,,,,,,,,
,,,,,,,,,,,,,FF,,,,,,,,2.585,,,,,,,,,,,,,,,,,,,,,,6101b58d26f47c98e418489e,61036e12edd6c0835ec37ad3,2021-07-29_23h13.57.068,Simcolourproject_2stim_asymm_v5,2020.2.10,MacIntel,60,61025ae37ef11b136ea224fe,,,,,,,,,2802,60,23,1,0,0,response1disk,,6,14,13,1,0,0,rectangle,14,13,1,0,0,14,13,1,0,0,0,126,126,138,1,,,,,,,,
,,,,,,,,,,,,,FF,,,,,,,,2.351,,,,,,,,,,,,,,,,,,,,,,6101b58d26f47c98e418489e,61036e12edd6c0835ec37ad3,2021-07-29_23h13.57.068,Simcolourproject_2stim_asymm_v5,2020.2.10,MacIntel,60,61025ae37ef11b136ea224fe,,,,,,,,,1726,-36,-61,1,0,0,response5disk,,3,-7,2,1,0,0,rectangle,-7,2,1,0,0,-7,2,1,0,0,0,127,127,56,1,,,,,,,,
,,,,,,,,,,,,,FF,,,,,,,,0.984,,,,,,,,,,,,,,,,,,,,,,6101b58d26f47c98e418489e,61036e12edd6c0835ec37ad3,2021-07-29_23h13.57.068,Simcolourproject_2stim_asymm_v5,2020.2.10,MacIntel,60,61025ae37ef11b136ea224fe,,,,,,,,,2068,-32,-56,1,0,0,response5disk,,3,-16,2,1,0,0,rectangle,-16,2,1,0,0,-16,2,1,0,0,0,128,128,111,1,,,,,,,,
,,,,,,,,,,,,,FF,,,,,,,,1.166,,,,,,,,,,,,,,,,,,,,,,6101b58d26f47c98e418489e,61036e12edd6c0835ec37ad3,2021-07-29_23h13.57.068,Simcolourproject_2stim_asymm_v5,2020.2.10,MacIntel,60,61025ae37ef11b136ea224fe,,,,,,,,,2581,31,-64,1,0,0,response3disk,,4,4,2,1,0,0,rectangle,4,2,1,0,0,4,2,1,0,0,0,129,129,108,1,,,,,,,,
,,,,,,,,,,,,,FF,,,,,,,,0.817,,,,,,,,,,,,,,,,,,,,,,6101b58d26f47c98e418489e,61036e12edd6c0835ec37ad3,2021-07-29_23h13.57.068,Simcolourproject_2stim_asymm_v5,2020.2.10,MacIntel,60,61025ae37ef11b136ea224fe,,,,,,,,,303,64,-31,1,0,0,response3disk,,5,17,-6,1,0,0,rectangle,17,-6,1,0,0,17,-6,1,0,0,0,130,130,131,1,,,,,,,,
,,,,,,,,,,,,,FF,,,,,,,,1.383,,,,,,,,,,,,,,,,,,,,,,6101b58d26f47c98e418489e,61036e12edd6c0835ec37ad3,2021-07-29_23h13.57.068,Simcolourproject_2stim_asymm_v5,2020.2.10,MacIntel,60,61025ae37ef11b136ea224fe,,,,,,,,,3660,-69,-46,1,0,0,response5disk,,2,-15,-2,1,0,0,rectangle,-15,-2,1,0,0,-15,-2,1,0,0,0,131,131,82,1,,,,,,,,
,,,,,,,,,,,,,FF,,,,,,,,1.167,,,,,,,,,,,,,,,,,,,,,,6101b58d26f47c98e418489e,61036e12edd6c0835ec37ad3,2021-07-29_23h13.57.068,Simcolourproject_2stim_asymm_v5,2020.2.10,MacIntel,60,61025ae37ef11b136ea224fe,,,,,,,,,1948,24,-53,1,0,0,response3disk,,4,12,-1,1,0,0,rectangle,12,-1,1,0,0,12,-1,1,0,0,0,132,132,57,1,,,,,,,,
,,,,,,,,,,,,,FF,,,,,,,,1.551,,,,,,,,,,,,,,,,,,,,,,6101b58d26f47c98e418489e,61036e12edd6c0835ec37ad3,2021-07-29_23h13.57.068,Simcolourproject_2stim_asymm_v5,2020.2.10,MacIntel,60,61025ae37ef11b136ea224fe,,,,,,,,,59,78,51,1,0,0,response1disk,,6,10,1,1,0,0,rectangle,10,1,1,0,0,10,1,1,0,0,0,133,133,92,1,,,,,,,,
,,,,,,,,,,,,,FF,,,,,,,,0.883,,,,,,,,,,,,,,,,,,,,,,6101b58d26f47c98e418489e,61036e12edd6c0835ec37ad3,2021-07-29_23h13.57.068,Simcolourproject_2stim_asymm_v5,2020.2.10,MacIntel,60,61025ae37ef11b136ea224fe,,,,,,,,,3453,55,31,1,0,0,response1disk,,6,0,-2,1,0,0,rectangle,0,-2,1,0,0,0,-2,1,0,0,0,134,134,155,1,,,,,,,,
,,,,,,,,,,,,,FF,,,,,,,,1.333,,,,,,,,,,,,,,,,,,,,,,6101b58d26f47c98e418489e,61036e12edd6c0835ec37ad3,2021-07-29_23h13.57.068,Simcolourproject_2stim_asymm_v5,2020.2.10,MacIntel,60,61025ae37ef11b136ea224fe,,,,,,,,,1586,61,-23,1,0,0,response3disk,,5,12,-2,1,0,0,rectangle,12,-2,1,0,0,12,-2,1,0,0,0,135,135,19,1,,,,,,,,
,,,,,,,,,,,,,FF,,,,,,,,1.083,,,,,,,,,,,,,,,,,,,,,,6101b58d26f47c98e418489e,61036e12edd6c0835ec37ad3,2021-07-29_23h13.57.068,Simcolourproject_2stim_asymm_v5,2020.2.10,MacIntel,60,61025ae37ef11b136ea224fe,,,,,,,,,3837,67,28,1,0,0,response1disk,,6,-1,10,1,0,0,rectangle,-1,10,1,0,0,-1,10,1,0,0,0,136,136,24,1,,,,,,,,
,,,,,,,,,,,,,FF,,,,,,,,1.801,,,,,,,,,,,,,,,,,,,,,,6101b58d26f47c98e418489e,61036e12edd6c0835ec37ad3,2021-07-29_23h13.57.068,Simcolourproject_2stim_asymm_v5,2020.2.10,MacIntel,60,61025ae37ef11b136ea224fe,,,,,,,,,180,53,47,1,0,0,response1disk,,6,1,7,1,0,0,rectangle,1,7,1,0,0,1,7,1,0,0,0,137,137,137,1,,,,,,,,
,,,,,,,,,,,,,FF,,,,,,,,1,,,,,,,,,,,,,,,,,,,,,,6101b58d26f47c98e418489e,61036e12edd6c0835ec37ad3,2021-07-29_23h13.57.068,Simcolourproject_2stim_asymm_v5,2020.2.10,MacIntel,60,61025ae37ef11b136ea224fe,,,,,,,,,389,63,44,1,0,0,response1disk,,6,6,4,1,0,0,rectangle,6,4,1,0,0,6,4,1,0,0,0,138,138,133,1,,,,,,,,
,,,,,,,,,,,,,FF,,,,,,,,2.2,,,,,,,,,,,,,,,,,,,,,,6101b58d26f47c98e418489e,61036e12edd6c0835ec37ad3,2021-07-29_23h13.57.068,Simcolourproject_2stim_asymm_v5,2020.2.10,MacIntel,60,61025ae37ef11b136ea224fe,,,,,,,,,1319,27,-63,1,0,0,response3disk,,4,11,-5,1,0,0,rectangle,11,-5,1,0,0,11,-5,1,0,0,0,139,139,13,1,,,,,,,,
,,,,,,,,,,,,,FF,,,,,,,,1.584,,,,,,,,,,,,,,,,,,,,,,6101b58d26f47c98e418489e,61036e12edd6c0835ec37ad3,2021-07-29_23h13.57.068,Simcolourproject_2stim_asymm_v5,2020.2.10,MacIntel,60,61025ae37ef11b136ea224fe,,,,,,,,,309,25,-76,1,0,0,response3disk,,4,20,-14,1,0,0,rectangle,20,-14,1,0,0,20,-14,1,0,0,0,140,140,63,1,,,,,,,,
,,,,,,,,,,,,,FF,,,,,,,,1.8,,,,,,,,,,,,,,,,,,,,,,6101b58d26f47c98e418489e,61036e12edd6c0835ec37ad3,2021-07-29_23h13.57.068,Simcolourproject_2stim_asymm_v5,2020.2.10,MacIntel,60,61025ae37ef11b136ea224fe,,,,,,,,,3703,-45,-61,1,0,0,response5disk,,3,-11,-5,1,0,0,rectangle,-11,-5,1,0,0,-11,-5,1,0,0,0,141,141,69,1,,,,,,,,
,,,,,,,,,,,,,FF,,,,,,,,1.834,,,,,,,,,,,,,,,,,,,,,,6101b58d26f47c98e418489e,61036e12edd6c0835ec37ad3,2021-07-29_23h13.57.068,Simcolourproject_2stim_asymm_v5,2020.2.10,MacIntel,60,61025ae37ef11b136ea224fe,,,,,,,,,4209,-48,-70,1,0,0,response5disk,,3,-21,-9,1,0,0,rectangle,-21,-9,1,0,0,-21,-9,1,0,0,0,142,142,144,1,,,,,,,,
,,,,,,,,,,,,,FF,,,,,,,,2.502,,,,,,,,,,,,,,,,,,,,,,6101b58d26f47c98e418489e,61036e12edd6c0835ec37ad3,2021-07-29_23h13.57.068,Simcolourproject_2stim_asymm_v5,2020.2.10,MacIntel,60,61025ae37ef11b136ea224fe,,,,,,,,,1678,31,-53,1,0,0,response3disk,,4,18,-3,1,0,0,rectangle,18,-3,1,0,0,18,-3,1,0,0,0,143,143,128,1,,,,,,,,
,,,,,,,,,,,,,FF,,,,,,,,4.703,,,,,,,,,,,,,,,,,,,,,,6101b58d26f47c98e418489e,61036e12edd6c0835ec37ad3,2021-07-29_23h13.57.068,Simcolourproject_2stim_asymm_v5,2020.2.10,MacIntel,60,61025ae37ef11b136ea224fe,,,,,,,,,2556,39,-69,1,0,0,response3disk,,4,24,-6,1,0,0,rectangle,24,-6,1,0,0,24,-6,1,0,0,0,144,144,33,1,,,,,,,,
,,,,,,,,,,,,,FF,,,,,,,,1.15,,,,,,,,,,,,,,,,,,,,,,6101b58d26f47c98e418489e,61036e12edd6c0835ec37ad3,2021-07-29_23h13.57.068,Simcolourproject_2stim_asymm_v5,2020.2.10,MacIntel,60,61025ae37ef11b136ea224fe,,,,,,,,,983,30,-58,1,0,0,response3disk,,4,26,1,1,0,0,rectangle,26,1,1,0,0,26,1,1,0,0,0,145,145,88,1,,,,,,,,
,,,,,,,,,,,,,FF,,,,,,,,1.468,,,,,,,,,,,,,,,,,,,,,,6101b58d26f47c98e418489e,61036e12edd6c0835ec37ad3,2021-07-29_23h13.57.068,Simcolourproject_2stim_asymm_v5,2020.2.10,MacIntel,60,61025ae37ef11b136ea224fe,,,,,,,,,1101,77,44,1,0,0,response1disk,,6,-1,-7,1,0,0,rectangle,35,-73,1,0,0,-1,-3,1,0,0,0,146,146,98,1,,response3disk_3,TRUE,4,4,"[249,147,56,121,210,18,207,168,117,192,222,85,216,188,178,20,207,149,64,196]",2.418,rectangle
,,,,,,,,,,,,,FF,,,,,,,,1.168,,,,,,,,,,,,,,,,,,,,,,6101b58d26f47c98e418489e,61036e12edd6c0835ec37ad3,2021-07-29_23h13.57.068,Simcolourproject_2stim_asymm_v5,2020.2.10,MacIntel,60,61025ae37ef11b136ea224fe,,,,,,,,,4172,62,32,1,0,0,response1disk,,6,-5,-2,1,0,0,rectangle,-5,-2,1,0,0,-5,-2,1,0,0,0,147,147,97,1,,,,,,,,
,,,,,,,,,,,,,FF,,,,,,,,1.634,,,,,,,,,,,,,,,,,,,,,,6101b58d26f47c98e418489e,61036e12edd6c0835ec37ad3,2021-07-29_23h13.57.068,Simcolourproject_2stim_asymm_v5,2020.2.10,MacIntel,60,61025ae37ef11b136ea224fe,,,,,,,,,371,31,-83,1,0,0,response3disk,,4,18,-13,1,0,0,rectangle,29,83,1,0,0,14,4,1,0,0,0,148,148,14,1,,response1disk_3,TRUE,7,7,"[249,147,56,121,210,18,207,168,117,192,222,85,216,188,178,20,207,149,64,196]",2.084,rectangle
,,,,,,,,,,,,,FF,,,,,,,,2.951,,,,,,,,,,,,,,,,,,,,,,6101b58d26f47c98e418489e,61036e12edd6c0835ec37ad3,2021-07-29_23h13.57.068,Simcolourproject_2stim_asymm_v5,2020.2.10,MacIntel,60,61025ae37ef11b136ea224fe,,,,,,,,,1996,68,30,1,0,0,response1disk,,6,15,3,1,0,0,rectangle,15,3,1,0,0,15,3,1,0,0,0,149,149,95,1,,,,,,,,
,,,,,,,,,,,,,FF,,,,,,,,2.084,,,,,,,,,,,,,,,,,,,,,,6101b58d26f47c98e418489e,61036e12edd6c0835ec37ad3,2021-07-29_23h13.57.068,Simcolourproject_2stim_asymm_v5,2020.2.10,MacIntel,60,61025ae37ef11b136ea224fe,,,,,,,,,3524,-29,-70,1,0,0,response5disk,,3,2,-6,1,0,0,rectangle,2,-6,1,0,0,2,-6,1,0,0,0,150,150,7,1,,,,,,,,
,,,,,,,,,,,,,FF,,,,,,,,1.167,,,,,,,,,,,,,,,,,,,,,,6101b58d26f47c98e418489e,61036e12edd6c0835ec37ad3,2021-07-29_23h13.57.068,Simcolourproject_2stim_asymm_v5,2020.2.10,MacIntel,60,61025ae37ef11b136ea224fe,,,,,,,,,925,36,56,1,0,0,response1disk,,7,5,7,1,0,0,rectangle,5,7,1,0,0,5,7,1,0,0,0,151,151,115,1,,,,,,,,
,,,,,,,,,,,,,FF,,,,,,,,2.617,,,,,,,,,,,,,,,,,,,,,,6101b58d26f47c98e418489e,61036e12edd6c0835ec37ad3,2021-07-29_23h13.57.068,Simcolourproject_2stim_asymm_v5,2020.2.10,MacIntel,60,61025ae37ef11b136ea224fe,,,,,,,,,290,43,-35,1,0,0,response3disk,,5,10,10,1,0,0,rectangle,10,10,1,0,0,10,10,1,0,0,0,152,152,37,1,,,,,,,,
,,,,,,,,,,,,,FF,,,,,,,,2.268,,,,,,,,,,,,,,,,,,,,,,6101b58d26f47c98e418489e,61036e12edd6c0835ec37ad3,2021-07-29_23h13.57.068,Simcolourproject_2stim_asymm_v5,2020.2.10,MacIntel,60,61025ae37ef11b136ea224fe,,,,,,,,,1193,51,-39,1,0,0,response3disk,,5,16,-5,1,0,0,rectangle,16,-5,1,0,0,16,-5,1,0,0,0,153,153,100,1,,,,,,,,
,,,,,,,,,,,,,FF,,,,,,,,1.517,,,,,,,,,,,,,,,,,,,,,,6101b58d26f47c98e418489e,61036e12edd6c0835ec37ad3,2021-07-29_23h13.57.068,Simcolourproject_2stim_asymm_v5,2020.2.10,MacIntel,60,61025ae37ef11b136ea224fe,,,,,,,,,4078,-55,-37,1,0,0,response5disk,,2,-3,-5,1,0,0,rectangle,-3,-5,1,0,0,-3,-5,1,0,0,0,154,154,112,1,,,,,,,,
,,,,,,,,,,,,,FF,,,,,,,,0.917,,,,,,,,,,,,,,,,,,,,,,6101b58d26f47c98e418489e,61036e12edd6c0835ec37ad3,2021-07-29_23h13.57.068,Simcolourproject_2stim_asymm_v5,2020.2.10,MacIntel,60,61025ae37ef11b136ea224fe,,,,,,,,,3680,-27,-58,1,0,0,response5disk,,3,-14,-11,1,0,0,rectangle,-14,-11,1,0,0,-14,-11,1,0,0,0,155,155,25,1,,,,,,,,
,,,,,,,,,,,,,FF,,,,,,,,1.018,,,,,,,,,,,,,,,,,,,,,,6101b58d26f47c98e418489e,61036e12edd6c0835ec37ad3,2021-07-29_23h13.57.068,Simcolourproject_2stim_asymm_v5,2020.2.10,MacIntel,60,61025ae37ef11b136ea224fe,,,,,,,,,2418,-44,76,1,0,0,response7disk,,0,-12,-2,1,0,0,rectangle,-12,-2,1,0,0,-12,-2,1,0,0,0,156,156,123,1,,,,,,,,
,,,,,,,,,,,,,FF,,,,,,,,1.719,,,,,,,,,,,,,,,,,,,,,,6101b58d26f47c98e418489e,61036e12edd6c0835ec37ad3,2021-07-29_23h13.57.068,Simcolourproject_2stim_asymm_v5,2020.2.10,MacIntel,60,61025ae37ef11b136ea224fe,,,,,,,,,2654,-19,-89,1,0,0,response5disk,,3,-8,-1,1,0,0,rectangle,-8,-1,1,0,0,-8,-1,1,0,0,0,157,157,139,1,,,,,,,,
,,,,,,,,,,,,,FF,,,,,,,,1.318,,,,,,,,,,,,,,,,,,,,,,6101b58d26f47c98e418489e,61036e12edd6c0835ec37ad3,2021-07-29_23h13.57.068,Simcolourproject_2stim_asymm_v5,2020.2.10,MacIntel,60,61025ae37ef11b136ea224fe,,,,,,,,,1702,35,59,1,0,0,response1disk,,7,5,2,1,0,0,rectangle,5,2,1,0,0,5,2,1,0,0,0,158,158,105,1,,,,,,,,
,,,,,,,,,,,,,FF,,,,,,,,1.517,,,,,,,,,,,,,,,,,,,,,,6101b58d26f47c98e418489e,61036e12edd6c0835ec37ad3,2021-07-29_23h13.57.068,Simcolourproject_2stim_asymm_v5,2020.2.10,MacIntel,60,61025ae37ef11b136ea224fe,,,,,,,,,345,70,-40,1,0,0,response3disk,,5,-3,6,1,0,0,rectangle,-3,6,1,0,0,-3,6,1,0,0,0,159,159,77,1,,,,,,,,
,,,,,,,,,,,,,FF,,,,,,,,1,,,,,,,,,,,,,,,,,,,,,,6101b58d26f47c98e418489e,61036e12edd6c0835ec37ad3,2021-07-29_23h13.57.068,Simcolourproject_2stim_asymm_v5,2020.2.10,MacIntel,60,61025ae37ef11b136ea224fe,,,,,,,,,2209,42,75,1,0,0,response1disk,,7,7,0,1,0,0,rectangle,7,0,1,0,0,7,0,1,0,0,1,0,160,140,1,,,,,,,,
,,,,,,,,,,,,,FF,,,,,,,,1.318,,,,,,,,,,,,,,,,,,,,,,6101b58d26f47c98e418489e,61036e12edd6c0835ec37ad3,2021-07-29_23h13.57.068,Simcolourproject_2stim_asymm_v5,2020.2.10,MacIntel,60,61025ae37ef11b136ea224fe,,,,,,,,,635,-36,-67,1,0,0,response5disk,,3,2,-4,1,0,0,rectangle,2,-4,1,0,0,2,-4,1,0,0,1,1,161,26,1,,,,,,,,
,,,,,,,,,,,,,FF,,,,,,,,1.017,,,,,,,,,,,,,,,,,,,,,,6101b58d26f47c98e418489e,61036e12edd6c0835ec37ad3,2021-07-29_23h13.57.068,Simcolourproject_2stim_asymm_v5,2020.2.10,MacIntel,60,61025ae37ef11b136ea224fe,,,,,,,,,367,-63,-37,1,0,0,response5disk,,2,-13,5,1,0,0,rectangle,-13,5,1,0,0,-13,5,1,0,0,1,2,162,22,1,,,,,,,,
,,,,,,,,,,,,,FF,,,,,,,,1.151,,,,,,,,,,,,,,,,,,,,,,6101b58d26f47c98e418489e,61036e12edd6c0835ec37ad3,2021-07-29_23h13.57.068,Simcolourproject_2stim_asymm_v5,2020.2.10,MacIntel,60,61025ae37ef11b136ea224fe,,,,,,,,,2027,-70,-47,1,0,0,response5disk,,2,-18,-13,1,0,0,rectangle,-18,-13,1,0,0,-18,-13,1,0,0,1,3,163,139,1,,,,,,,,
,,,,,,,,,,,,,FF,,,,,,,,1.417,,,,,,,,,,,,,,,,,,,,,,6101b58d26f47c98e418489e,61036e12edd6c0835ec37ad3,2021-07-29_23h13.57.068,Simcolourproject_2stim_asymm_v5,2020.2.10,MacIntel,60,61025ae37ef11b136ea224fe,,,,,,,,,4363,-87,37,1,0,0,response7disk,,1,-10,0,1,0,0,rectangle,-10,0,1,0,0,-10,0,1,0,0,1,4,164,148,1,,,,,,,,
,,,,,,,,,,,,,FF,,,,,,,,1.284,,,,,,,,,,,,,,,,,,,,,,6101b58d26f47c98e418489e,61036e12edd6c0835ec37ad3,2021-07-29_23h13.57.068,Simcolourproject_2stim_asymm_v5,2020.2.10,MacIntel,60,61025ae37ef11b136ea224fe,,,,,,,,,2688,-30,-64,1,0,0,response5disk,,3,-7,-3,1,0,0,rectangle,-7,-3,1,0,0,-7,-3,1,0,0,1,5,165,134,1,,,,,,,,
,,,,,,,,,,,,,FF,,,,,,,,1.218,,,,,,,,,,,,,,,,,,,,,,6101b58d26f47c98e418489e,61036e12edd6c0835ec37ad3,2021-07-29_23h13.57.068,Simcolourproject_2stim_asymm_v5,2020.2.10,MacIntel,60,61025ae37ef11b136ea224fe,,,,,,,,,121,48,-76,1,0,0,response3disk,,4,9,-3,1,0,0,rectangle,9,-3,1,0,0,9,-3,1,0,0,1,6,166,61,1,,,,,,,,
,,,,,,,,,,,,,FF,,,,,,,,2.385,,,,,,,,,,,,,,,,,,,,,,6101b58d26f47c98e418489e,61036e12edd6c0835ec37ad3,2021-07-29_23h13.57.068,Simcolourproject_2stim_asymm_v5,2020.2.10,MacIntel,60,61025ae37ef11b136ea224fe,,,,,,,,,3077,78,-49,1,0,0,response3disk,,5,21,-5,1,0,0,rectangle,79,-36,1,0,0,11,3,1,0,0,1,7,167,86,1,,response3disk_3,TRUE,5,5,"[249,147,56,121,210,18,207,168,117,192,222,85,216,188,178,20,207,149,64,196]",1.632,rectangle
,,,,,,,,,,,,,FF,,,,,,,,0.816,,,,,,,,,,,,,,,,,,,,,,6101b58d26f47c98e418489e,61036e12edd6c0835ec37ad3,2021-07-29_23h13.57.068,Simcolourproject_2stim_asymm_v5,2020.2.10,MacIntel,60,61025ae37ef11b136ea224fe,,,,,,,,,4118,-53,87,1,0,0,response7disk,,0,-19,4,1,0,0,rectangle,-19,4,1,0,0,-19,4,1,0,0,1,8,168,112,1,,,,,,,,
,,,,,,,,,,,,,FF,,,,,,,,0.984,,,,,,,,,,,,,,,,,,,,,,6101b58d26f47c98e418489e,61036e12edd6c0835ec37ad3,2021-07-29_23h13.57.068,Simcolourproject_2stim_asymm_v5,2020.2.10,MacIntel,60,61025ae37ef11b136ea224fe,,,,,,,,,159,-67,-34,1,0,0,response5disk,,2,-14,-4,1,0,0,rectangle,-14,-4,1,0,0,-14,-4,1,0,0,1,9,169,130,1,,,,,,,,
,,,,,,,,,,,,,FF,,,,,,,,1.016,,,,,,,,,,,,,,,,,,,,,,6101b58d26f47c98e418489e,61036e12edd6c0835ec37ad3,2021-07-29_23h13.57.068,Simcolourproject_2stim_asymm_v5,2020.2.10,MacIntel,60,61025ae37ef11b136ea224fe,,,,,,,,,932,30,46,1,0,0,response1disk,,7,13,-6,1,0,0,rectangle,13,-6,1,0,0,13,-6,1,0,0,1,10,170,152,1,,,,,,,,
,,,,,,,,,,,,,FF,,,,,,,,1.167,,,,,,,,,,,,,,,,,,,,,,6101b58d26f47c98e418489e,61036e12edd6c0835ec37ad3,2021-07-29_23h13.57.068,Simcolourproject_2stim_asymm_v5,2020.2.10,MacIntel,60,61025ae37ef11b136ea224fe,,,,,,,,,1664,77,24,1,0,0,response1disk,,6,4,13,1,0,0,rectangle,4,13,1,0,0,4,13,1,0,0,1,11,171,151,1,,,,,,,,
,,,,,,,,,,,,,FF,,,,,,,,1.1,,,,,,,,,,,,,,,,,,,,,,6101b58d26f47c98e418489e,61036e12edd6c0835ec37ad3,2021-07-29_23h13.57.068,Simcolourproject_2stim_asymm_v5,2020.2.10,MacIntel,60,61025ae37ef11b136ea224fe,,,,,,,,,2009,49,57,1,0,0,response1disk,,7,-13,-16,1,0,0,rectangle,-13,-16,1,0,0,-13,-16,1,0,0,1,12,172,101,1,,,,,,,,
,,,,,,,,,,,,,FF,,,,,,,,1.667,,,,,,,,,,,,,,,,,,,,,,6101b58d26f47c98e418489e,61036e12edd6c0835ec37ad3,2021-07-29_23h13.57.068,Simcolourproject_2stim_asymm_v5,2020.2.10,MacIntel,60,61025ae37ef11b136ea224fe,,,,,,,,,4290,57,35,1,0,0,response1disk,,6,17,-1,1,0,0,rectangle,17,-1,1,0,0,17,-1,1,0,0,1,13,173,16,1,,,,,,,,
,,,,,,,,,,,,,FF,,,,,,,,0.701,,,,,,,,,,,,,,,,,,,,,,6101b58d26f47c98e418489e,61036e12edd6c0835ec37ad3,2021-07-29_23h13.57.068,Simcolourproject_2stim_asymm_v5,2020.2.10,MacIntel,60,61025ae37ef11b136ea224fe,,,,,,,,,176,28,67,1,0,0,response1disk,,7,20,-4,1,0,0,rectangle,20,-4,1,0,0,20,-4,1,0,0,1,14,174,3,1,,,,,,,,
,,,,,,,,,,,,,FF,,,,,,,,1.068,,,,,,,,,,,,,,,,,,,,,,6101b58d26f47c98e418489e,61036e12edd6c0835ec37ad3,2021-07-29_23h13.57.068,Simcolourproject_2stim_asymm_v5,2020.2.10,MacIntel,60,61025ae37ef11b136ea224fe,,,,,,,,,1818,-63,-45,1,0,0,response5disk,,2,0,0,1,0,0,rectangle,0,0,1,0,0,0,0,1,0,0,1,15,175,83,1,,,,,,,,
,,,,,,,,,,,,,FF,,,,,,,,1.351,,,,,,,,,,,,,,,,,,,,,,6101b58d26f47c98e418489e,61036e12edd6c0835ec37ad3,2021-07-29_23h13.57.068,Simcolourproject_2stim_asymm_v5,2020.2.10,MacIntel,60,61025ae37ef11b136ea224fe,,,,,,,,,2801,52,-32,1,0,0,response3disk,,5,13,1,1,0,0,rectangle,13,1,1,0,0,13,1,1,0,0,1,16,176,38,1,,,,,,,,
,,,,,,,,,,,,,FF,,,,,,,,1.902,,,,,,,,,,,,,,,,,,,,,,6101b58d26f47c98e418489e,61036e12edd6c0835ec37ad3,2021-07-29_23h13.57.068,Simcolourproject_2stim_asymm_v5,2020.2.10,MacIntel,60,61025ae37ef11b136ea224fe,,,,,,,,,2464,34,54,1,0,0,response1disk,,7,18,11,1,0,0,rectangle,38,63,1,0,0,2,-2,1,0,0,1,17,177,35,1,,response1disk_3,TRUE,7,7,"[249,147,56,121,210,18,207,168,117,192,222,85,216,188,178,20,207,149,64,196]",1.734,rectangle
,,,,,,,,,,,,,FF,,,,,,,,1.201,,,,,,,,,,,,,,,,,,,,,,6101b58d26f47c98e418489e,61036e12edd6c0835ec37ad3,2021-07-29_23h13.57.068,Simcolourproject_2stim_asymm_v5,2020.2.10,MacIntel,60,61025ae37ef11b136ea224fe,,,,,,,,,3821,-83,-25,1,0,0,response5disk,,2,2,0,1,0,0,rectangle,2,0,1,0,0,2,0,1,0,0,1,18,178,87,1,,,,,,,,
,,,,,,,,,,,,,FF,,,,,,,,2.367,,,,,,,,,,,,,,,,,,,,,,6101b58d26f47c98e418489e,61036e12edd6c0835ec37ad3,2021-07-29_23h13.57.068,Simcolourproject_2stim_asymm_v5,2020.2.10,MacIntel,60,61025ae37ef11b136ea224fe,,,,,,,,,319,65,32,1,0,0,response1disk,,6,26,9,1,0,0,rectangle,26,9,1,0,0,26,9,1,0,0,1,19,179,117,1,,,,,,,,
,,,,,,,,,,,,,FF,,,,,,,,1.301,,,,,,,,,,,,,,,,,,,,,,6101b58d26f47c98e418489e,61036e12edd6c0835ec37ad3,2021-07-29_23h13.57.068,Simcolourproject_2stim_asymm_v5,2020.2.10,MacIntel,60,61025ae37ef11b136ea224fe,,,,,,,,,1295,70,36,1,0,0,response1disk,,6,-3,-6,1,0,0,rectangle,-3,-6,1,0,0,-3,-6,1,0,0,1,20,180,15,1,,,,,,,,
,,,,,,,,,,,,,FF,,,,,,,,3.552,,,,,,,,,,,,,,,,,,,,,,6101b58d26f47c98e418489e,61036e12edd6c0835ec37ad3,2021-07-29_23h13.57.068,Simcolourproject_2stim_asymm_v5,2020.2.10,MacIntel,60,61025ae37ef11b136ea224fe,,,,,,,,,938,105,42,1,0,0,response1disk,,6,14,9,1,0,0,rectangle,14,9,1,0,0,14,9,1,0,0,1,21,181,146,1,,,,,,,,
,,,,,,,,,,,,,FF,,,,,,,,1.101,,,,,,,,,,,,,,,,,,,,,,6101b58d26f47c98e418489e,61036e12edd6c0835ec37ad3,2021-07-29_23h13.57.068,Simcolourproject_2stim_asymm_v5,2020.2.10,MacIntel,60,61025ae37ef11b136ea224fe,,,,,,,,,3846,-64,30,1,0,0,response7disk,,1,-13,15,1,0,0,rectangle,-13,15,1,0,0,-13,15,1,0,0,1,22,182,121,1,,,,,,,,
,,,,,,,,,,,,,FF,,,,,,,,1.251,,,,,,,,,,,,,,,,,,,,,,6101b58d26f47c98e418489e,61036e12edd6c0835ec37ad3,2021-07-29_23h13.57.068,Simcolourproject_2stim_asymm_v5,2020.2.10,MacIntel,60,61025ae37ef11b136ea224fe,,,,,,,,,1792,-43,-56,1,0,0,response5disk,,3,-20,-5,1,0,0,rectangle,-20,-5,1,0,0,-20,-5,1,0,0,1,23,183,104,1,,,,,,,,
,,,,,,,,,,,,,FF,,,,,,,,1.235,,,,,,,,,,,,,,,,,,,,,,6101b58d26f47c98e418489e,61036e12edd6c0835ec37ad3,2021-07-29_23h13.57.068,Simcolourproject_2stim_asymm_v5,2020.2.10,MacIntel,60,61025ae37ef11b136ea224fe,,,,,,,,,4243,68,38,1,0,0,response1disk,,6,22,3,1,0,0,rectangle,22,3,1,0,0,22,3,1,0,0,1,24,184,125,1,,,,,,,,
,,,,,,,,,,,,,FF,,,,,,,,1.234,,,,,,,,,,,,,,,,,,,,,,6101b58d26f47c98e418489e,61036e12edd6c0835ec37ad3,2021-07-29_23h13.57.068,Simcolourproject_2stim_asymm_v5,2020.2.10,MacIntel,60,61025ae37ef11b136ea224fe,,,,,,,,,2792,-42,-60,1,0,0,response5disk,,3,7,-5,1,0,0,rectangle,7,-5,1,0,0,7,-5,1,0,0,1,25,185,46,1,,,,,,,,
,,,,,,,,,,,,,FF,,,,,,,,0.85,,,,,,,,,,,,,,,,,,,,,,6101b58d26f47c98e418489e,61036e12edd6c0835ec37ad3,2021-07-29_23h13.57.068,Simcolourproject_2stim_asymm_v5,2020.2.10,MacIntel,60,61025ae37ef11b136ea224fe,,,,,,,,,91,59,22,1,0,0,response1disk,,6,6,-9,1,0,0,rectangle,6,-9,1,0,0,6,-9,1,0,0,1,26,186,89,1,,,,,,,,
,,,,,,,,,,,,,FF,,,,,,,,0.784,,,,,,,,,,,,,,,,,,,,,,6101b58d26f47c98e418489e,61036e12edd6c0835ec37ad3,2021-07-29_23h13.57.068,Simcolourproject_2stim_asymm_v5,2020.2.10,MacIntel,60,61025ae37ef11b136ea224fe,,,,,,,,,2368,-39,-60,1,0,0,response5disk,,3,8,2,1,0,0,rectangle,-46,22,1,0,0,-2,6,1,0,0,1,27,187,23,1,,response7disk_3,TRUE,1,1,"[249,147,56,121,210,18,207,168,117,192,222,85,216,188,178,20,207,149,64,196]",1.35,rectangle
,,,,,,,,,,,,,FF,,,,,,,,2.652,,,,,,,,,,,,,,,,,,,,,,6101b58d26f47c98e418489e,61036e12edd6c0835ec37ad3,2021-07-29_23h13.57.068,Simcolourproject_2stim_asymm_v5,2020.2.10,MacIntel,60,61025ae37ef11b136ea224fe,,,,,,,,,1574,61,37,1,0,0,response1disk,,6,2,6,1,0,0,rectangle,2,6,1,0,0,2,6,1,0,0,1,28,188,20,1,,,,,,,,
,,,,,,,,,,,,,FF,,,,,,,,3.001,,,,,,,,,,,,,,,,,,,,,,6101b58d26f47c98e418489e,61036e12edd6c0835ec37ad3,2021-07-29_23h13.57.068,Simcolourproject_2stim_asymm_v5,2020.2.10,MacIntel,60,61025ae37ef11b136ea224fe,,,,,,,,,726,-29,-77,1,0,0,response5disk,,3,10,-7,1,0,0,rectangle,10,-7,1,0,0,10,-7,1,0,0,1,29,189,6,1,,,,,,,,
,,,,,,,,,,,,,FF,,,,,,,,3.136,,,,,,,,,,,,,,,,,,,,,,6101b58d26f47c98e418489e,61036e12edd6c0835ec37ad3,2021-07-29_23h13.57.068,Simcolourproject_2stim_asymm_v5,2020.2.10,MacIntel,60,61025ae37ef11b136ea224fe,,,,,,,,,2681,30,-97,1,0,0,response3disk,,4,-11,-9,1,0,0,rectangle,-11,-9,1,0,0,-11,-9,1,0,0,1,30,190,108,1,,,,,,,,
,,,,,,,,,,,,,FF,,,,,,,,2.152,,,,,,,,,,,,,,,,,,,,,,6101b58d26f47c98e418489e,61036e12edd6c0835ec37ad3,2021-07-29_23h13.57.068,Simcolourproject_2stim_asymm_v5,2020.2.10,MacIntel,60,61025ae37ef11b136ea224fe,,,,,,,,,3839,-58,-66,1,0,0,response5disk,,3,-2,-2,1,0,0,rectangle,-88,-29,1,0,0,-4,-1,1,0,0,1,31,191,0,1,,response5disk_3,TRUE,2,2,"[249,147,56,121,210,18,207,168,117,192,222,85,216,188,178,20,207,149,64,196]",1.55,rectangle
,,,,,,,,,,,,,FF,,,,,,,,1.8,,,,,,,,,,,,,,,,,,,,,,6101b58d26f47c98e418489e,61036e12edd6c0835ec37ad3,2021-07-29_23h13.57.068,Simcolourproject_2stim_asymm_v5,2020.2.10,MacIntel,60,61025ae37ef11b136ea224fe,,,,,,,,,909,74,-45,1,0,0,response3disk,,5,18,-2,1,0,0,rectangle,18,-2,1,0,0,18,-2,1,0,0,1,32,192,78,1,,,,,,,,
,,,,,,,,,,,,,FF,,,,,,,,1.085,,,,,,,,,,,,,,,,,,,,,,6101b58d26f47c98e418489e,61036e12edd6c0835ec37ad3,2021-07-29_23h13.57.068,Simcolourproject_2stim_asymm_v5,2020.2.10,MacIntel,60,61025ae37ef11b136ea224fe,,,,,,,,,1305,-22,-76,1,0,0,response5disk,,3,-9,5,1,0,0,rectangle,-9,5,1,0,0,-9,5,1,0,0,1,33,193,51,1,,,,,,,,
,,,,,,,,,,,,,FF,,,,,,,,1.535,,,,,,,,,,,,,,,,,,,,,,6101b58d26f47c98e418489e,61036e12edd6c0835ec37ad3,2021-07-29_23h13.57.068,Simcolourproject_2stim_asymm_v5,2020.2.10,MacIntel,60,61025ae37ef11b136ea224fe,,,,,,,,,2942,30,-80,1,0,0,response3disk,,4,23,3,1,0,0,rectangle,23,3,1,0,0,23,3,1,0,0,1,34,194,138,1,,,,,,,,
,,,,,,,,,,,,,FF,,,,,,,,3.051,,,,,,,,,,,,,,,,,,,,,,6101b58d26f47c98e418489e,61036e12edd6c0835ec37ad3,2021-07-29_23h13.57.068,Simcolourproject_2stim_asymm_v5,2020.2.10,MacIntel,60,61025ae37ef11b136ea224fe,,,,,,,,,1920,54,-43,1,0,0,response3disk,,5,23,-8,1,0,0,rectangle,-69,48,1,0,0,-24,-4,1,0,0,1,35,195,80,1,,response7disk_3,TRUE,1,1,"[249,147,56,121,210,18,207,168,117,192,222,85,216,188,178,20,207,149,64,196]",1.302,rectangle
,,,,,,,,,,,,,FF,,,,,,,,1.802,,,,,,,,,,,,,,,,,,,,,,6101b58d26f47c98e418489e,61036e12edd6c0835ec37ad3,2021-07-29_23h13.57.068,Simcolourproject_2stim_asymm_v5,2020.2.10,MacIntel,60,61025ae37ef11b136ea224fe,,,,,,,,,1853,64,23,1,0,0,response1disk,,6,-25,6,1,0,0,rectangle,-25,6,1,0,0,-25,6,1,0,0,1,36,196,67,1,,,,,,,,
,,,,,,,,,,,,,FF,,,,,,,,1.1,,,,,,,,,,,,,,,,,,,,,,6101b58d26f47c98e418489e,61036e12edd6c0835ec37ad3,2021-07-29_23h13.57.068,Simcolourproject_2stim_asymm_v5,2020.2.10,MacIntel,60,61025ae37ef11b136ea224fe,,,,,,,,,4236,-29,-59,1,0,0,response5disk,,3,-1,-15,1,0,0,rectangle,-1,-15,1,0,0,-1,-15,1,0,0,1,37,197,109,1,,,,,,,,
,,,,,,,,,,,,,FF,,,,,,,,0.917,,,,,,,,,,,,,,,,,,,,,,6101b58d26f47c98e418489e,61036e12edd6c0835ec37ad3,2021-07-29_23h13.57.068,Simcolourproject_2stim_asymm_v5,2020.2.10,MacIntel,60,61025ae37ef11b136ea224fe,,,,,,,,,507,79,-65,1,0,0,response3disk,,5,14,-10,1,0,0,rectangle,14,-10,1,0,0,14,-10,1,0,0,1,38,198,60,1,,,,,,,,
,,,,,,,,,,,,,FF,,,,,,,,1.683,,,,,,,,,,,,,,,,,,,,,,6101b58d26f47c98e418489e,61036e12edd6c0835ec37ad3,2021-07-29_23h13.57.068,Simcolourproject_2stim_asymm_v5,2020.2.10,MacIntel,60,61025ae37ef11b136ea224fe,,,,,,,,,1029,62,-19,1,0,0,response3disk,,5,7,0,1,0,0,rectangle,7,0,1,0,0,7,0,1,0,0,1,39,199,105,1,,,,,,,,
,,,,,,,,,,,,,FF,,,,,,,,2.535,,,,,,,,,,,,,,,,,,,,,,6101b58d26f47c98e418489e,61036e12edd6c0835ec37ad3,2021-07-29_23h13.57.068,Simcolourproject_2stim_asymm_v5,2020.2.10,MacIntel,60,61025ae37ef11b136ea224fe,,,,,,,,,538,60,32,1,0,0,response1disk,,6,7,-10,1,0,0,rectangle,7,-10,1,0,0,7,-10,1,0,0,1,40,200,73,1,,,,,,,,
,,,,,,,,,,,,,FF,,,,,,,,2.251,,,,,,,,,,,,,,,,,,,,,,6101b58d26f47c98e418489e,61036e12edd6c0835ec37ad3,2021-07-29_23h13.57.068,Simcolourproject_2stim_asymm_v5,2020.2.10,MacIntel,60,61025ae37ef11b136ea224fe,,,,,,,,,4275,63,34,1,0,0,response1disk,,6,5,1,1,0,0,rectangle,5,1,1,0,0,5,1,1,0,0,1,41,201,95,1,,,,,,,,
,,,,,,,,,,,,,FF,,,,,,,,1.418,,,,,,,,,,,,,,,,,,,,,,6101b58d26f47c98e418489e,61036e12edd6c0835ec37ad3,2021-07-29_23h13.57.068,Simcolourproject_2stim_asymm_v5,2020.2.10,MacIntel,60,61025ae37ef11b136ea224fe,,,,,,,,,1830,42,-77,1,0,0,response3disk,,4,0,-10,1,0,0,rectangle,0,-10,1,0,0,0,-10,1,0,0,1,42,202,76,1,,,,,,,,
,,,,,,,,,,,,,FF,,,,,,,,1.183,,,,,,,,,,,,,,,,,,,,,,6101b58d26f47c98e418489e,61036e12edd6c0835ec37ad3,2021-07-29_23h13.57.068,Simcolourproject_2stim_asymm_v5,2020.2.10,MacIntel,60,61025ae37ef11b136ea224fe,,,,,,,,,3856,-28,-93,1,0,0,response5disk,,3,-14,-6,1,0,0,rectangle,-14,-6,1,0,0,-14,-6,1,0,0,1,43,203,19,1,,,,,,,,
,,,,,,,,,,,,,FF,,,,,,,,1.8,,,,,,,,,,,,,,,,,,,,,,6101b58d26f47c98e418489e,61036e12edd6c0835ec37ad3,2021-07-29_23h13.57.068,Simcolourproject_2stim_asymm_v5,2020.2.10,MacIntel,60,61025ae37ef11b136ea224fe,,,,,,,,,3076,40,50,1,0,0,response1disk,,7,6,-2,1,0,0,rectangle,6,-2,1,0,0,6,-2,1,0,0,1,44,204,124,1,,,,,,,,
,,,,,,,,,,,,,FF,,,,,,,,1.451,,,,,,,,,,,,,,,,,,,,,,6101b58d26f47c98e418489e,61036e12edd6c0835ec37ad3,2021-07-29_23h13.57.068,Simcolourproject_2stim_asymm_v5,2020.2.10,MacIntel,60,61025ae37ef11b136ea224fe,,,,,,,,,1911,59,-32,1,0,0,response3disk,,5,10,3,1,0,0,rectangle,10,3,1,0,0,10,3,1,0,0,1,45,205,98,1,,,,,,,,
,,,,,,,,,,,,,FF,,,,,,,,1.266,,,,,,,,,,,,,,,,,,,,,,6101b58d26f47c98e418489e,61036e12edd6c0835ec37ad3,2021-07-29_23h13.57.068,Simcolourproject_2stim_asymm_v5,2020.2.10,MacIntel,60,61025ae37ef11b136ea224fe,,,,,,,,,2198,24,43,1,0,0,response1disk,,7,4,-10,1,0,0,rectangle,66,-23,1,0,0,-9,-9,1,0,0,1,46,206,50,1,,response3disk_3,TRUE,5,5,"[249,147,56,121,210,18,207,168,117,192,222,85,216,188,178,20,207,149,64,196]",1.817,rectangle
,,,,,,,,,,,,,FF,,,,,,,,1.184,,,,,,,,,,,,,,,,,,,,,,6101b58d26f47c98e418489e,61036e12edd6c0835ec37ad3,2021-07-29_23h13.57.068,Simcolourproject_2stim_asymm_v5,2020.2.10,MacIntel,60,61025ae37ef11b136ea224fe,,,,,,,,,4295,-57,-36,1,0,0,response5disk,,2,0,-5,1,0,0,rectangle,0,-5,1,0,0,0,-5,1,0,0,1,47,207,44,1,,,,,,,,
,,,,,,,,,,,,,FF,,,,,,,,1.334,,,,,,,,,,,,,,,,,,,,,,6101b58d26f47c98e418489e,61036e12edd6c0835ec37ad3,2021-07-29_23h13.57.068,Simcolourproject_2stim_asymm_v5,2020.2.10,MacIntel,60,61025ae37ef11b136ea224fe,,,,,,,,,397,75,25,1,0,0,response1disk,,6,-11,6,1,0,0,rectangle,-11,6,1,0,0,-11,6,1,0,0,1,48,208,110,1,,,,,,,,
,,,,,,,,,,,,,FF,,,,,,,,3.602,,,,,,,,,,,,,,,,,,,,,,6101b58d26f47c98e418489e,61036e12edd6c0835ec37ad3,2021-07-29_23h13.57.068,Simcolourproject_2stim_asymm_v5,2020.2.10,MacIntel,60,61025ae37ef11b136ea224fe,,,,,,,,,869,28,-93,1,0,0,response3disk,,4,6,-8,1,0,0,rectangle,-63,52,1,0,0,-4,-1,1,0,0,1,49,209,27,1,,response7disk_3,TRUE,1,1,"[249,147,56,121,210,18,207,168,117,192,222,85,216,188,178,20,207,149,64,196]",1.718,rectangle
,,,,,,,,,,,,,FF,,,,,,,,1.619,,,,,,,,,,,,,,,,,,,,,,6101b58d26f47c98e418489e,61036e12edd6c0835ec37ad3,2021-07-29_23h13.57.068,Simcolourproject_2stim_asymm_v5,2020.2.10,MacIntel,60,61025ae37ef11b136ea224fe,,,,,,,,,2645,33,57,1,0,0,response1disk,,7,-10,3,1,0,0,rectangle,-10,3,1,0,0,-10,3,1,0,0,1,50,210,153,1,,,,,,,,
,,,,,,,,,,,,,FF,,,,,,,,1.067,,,,,,,,,,,,,,,,,,,,,,6101b58d26f47c98e418489e,61036e12edd6c0835ec37ad3,2021-07-29_23h13.57.068,Simcolourproject_2stim_asymm_v5,2020.2.10,MacIntel,60,61025ae37ef11b136ea224fe,,,,,,,,,2023,22,59,1,0,0,response1disk,,7,0,-1,1,0,0,rectangle,0,-1,1,0,0,0,-1,1,0,0,1,51,211,144,1,,,,,,,,
,,,,,,,,,,,,,FF,,,,,,,,1.034,,,,,,,,,,,,,,,,,,,,,,6101b58d26f47c98e418489e,61036e12edd6c0835ec37ad3,2021-07-29_23h13.57.068,Simcolourproject_2stim_asymm_v5,2020.2.10,MacIntel,60,61025ae37ef11b136ea224fe,,,,,,,,,2680,65,-24,1,0,0,response3disk,,5,11,0,1,0,0,rectangle,11,0,1,0,0,11,0,1,0,0,1,52,212,1,1,,,,,,,,
,,,,,,,,,,,,,FF,,,,,,,,0.867,,,,,,,,,,,,,,,,,,,,,,6101b58d26f47c98e418489e,61036e12edd6c0835ec37ad3,2021-07-29_23h13.57.068,Simcolourproject_2stim_asymm_v5,2020.2.10,MacIntel,60,61025ae37ef11b136ea224fe,,,,,,,,,2443,31,54,1,0,0,response1disk,,7,14,11,1,0,0,rectangle,14,11,1,0,0,14,11,1,0,0,1,53,213,28,1,,,,,,,,
,,,,,,,,,,,,,FF,,,,,,,,1.867,,,,,,,,,,,,,,,,,,,,,,6101b58d26f47c98e418489e,61036e12edd6c0835ec37ad3,2021-07-29_23h13.57.068,Simcolourproject_2stim_asymm_v5,2020.2.10,MacIntel,60,61025ae37ef11b136ea224fe,,,,,,,,,3782,-39,-80,1,0,0,response5disk,,3,4,1,1,0,0,rectangle,4,1,1,0,0,4,1,1,0,0,1,54,214,21,1,,,,,,,,
,,,,,,,,,,,,,FF,,,,,,,,1.25,,,,,,,,,,,,,,,,,,,,,,6101b58d26f47c98e418489e,61036e12edd6c0835ec37ad3,2021-07-29_23h13.57.068,Simcolourproject_2stim_asymm_v5,2020.2.10,MacIntel,60,61025ae37ef11b136ea224fe,,,,,,,,,1334,28,54,1,0,0,response1disk,,7,9,-8,1,0,0,rectangle,26,-72,1,0,0,9,6,1,0,0,1,55,215,70,1,,response3disk_3,TRUE,4,4,"[249,147,56,121,210,18,207,168,117,192,222,85,216,188,178,20,207,149,64,196]",1.602,rectangle
,,,,,,,,,,,,,FF,,,,,,,,1.35,,,,,,,,,,,,,,,,,,,,,,6101b58d26f47c98e418489e,61036e12edd6c0835ec37ad3,2021-07-29_23h13.57.068,Simcolourproject_2stim_asymm_v5,2020.2.10,MacIntel,60,61025ae37ef11b136ea224fe,,,,,,,,,4305,-42,72,1,0,0,response7disk,,0,-16,0,1,0,0,rectangle,-16,0,1,0,0,-16,0,1,0,0,1,56,216,41,1,,,,,,,,
,,,,,,,,,,,,,FF,,,,,,,,0.933,,,,,,,,,,,,,,,,,,,,,,6101b58d26f47c98e418489e,61036e12edd6c0835ec37ad3,2021-07-29_23h13.57.068,Simcolourproject_2stim_asymm_v5,2020.2.10,MacIntel,60,61025ae37ef11b136ea224fe,,,,,,,,,175,-67,-33,1,0,0,response5disk,,2,-13,-6,1,0,0,rectangle,-13,-6,1,0,0,-13,-6,1,0,0,1,57,217,123,1,,,,,,,,
,,,,,,,,,,,,,FF,,,,,,,,1.634,,,,,,,,,,,,,,,,,,,,,,6101b58d26f47c98e418489e,61036e12edd6c0835ec37ad3,2021-07-29_23h13.57.068,Simcolourproject_2stim_asymm_v5,2020.2.10,MacIntel,60,61025ae37ef11b136ea224fe,,,,,,,,,856,64,-34,1,0,0,response3disk,,5,17,2,1,0,0,rectangle,17,2,1,0,0,17,2,1,0,0,1,58,218,34,1,,,,,,,,
,,,,,,,,,,,,,FF,,,,,,,,1.049,,,,,,,,,,,,,,,,,,,,,,6101b58d26f47c98e418489e,61036e12edd6c0835ec37ad3,2021-07-29_23h13.57.068,Simcolourproject_2stim_asymm_v5,2020.2.10,MacIntel,60,61025ae37ef11b136ea224fe,,,,,,,,,1169,28,56,1,0,0,response1disk,,7,12,10,1,0,0,rectangle,12,10,1,0,0,12,10,1,0,0,1,59,219,97,1,,,,,,,,
,,,,,,,,,,,,,FF,,,,,,,,1.067,,,,,,,,,,,,,,,,,,,,,,6101b58d26f47c98e418489e,61036e12edd6c0835ec37ad3,2021-07-29_23h13.57.068,Simcolourproject_2stim_asymm_v5,2020.2.10,MacIntel,60,61025ae37ef11b136ea224fe,,,,,,,,,701,36,-73,1,0,0,response3disk,,4,20,-12,1,0,0,rectangle,20,-12,1,0,0,20,-12,1,0,0,1,60,220,127,1,,,,,,,,
,,,,,,,,,,,,,FF,,,,,,,,1.05,,,,,,,,,,,,,,,,,,,,,,6101b58d26f47c98e418489e,61036e12edd6c0835ec37ad3,2021-07-29_23h13.57.068,Simcolourproject_2stim_asymm_v5,2020.2.10,MacIntel,60,61025ae37ef11b136ea224fe,,,,,,,,,4294,-30,-86,1,0,0,response5disk,,3,-11,5,1,0,0,rectangle,26,-82,1,0,0,21,-5,1,0,0,1,61,221,94,1,,response3disk_3,TRUE,4,4,"[249,147,56,121,210,18,207,168,117,192,222,85,216,188,178,20,207,149,64,196]",1.933,rectangle
,,,,,,,,,,,,,FF,,,,,,,,1.034,,,,,,,,,,,,,,,,,,,,,,6101b58d26f47c98e418489e,61036e12edd6c0835ec37ad3,2021-07-29_23h13.57.068,Simcolourproject_2stim_asymm_v5,2020.2.10,MacIntel,60,61025ae37ef11b136ea224fe,,,,,,,,,4216,24,64,1,0,0,response1disk,,7,18,-1,1,0,0,rectangle,18,-1,1,0,0,18,-1,1,0,0,1,62,222,128,1,,,,,,,,
,,,,,,,,,,,,,FF,,,,,,,,3.286,,,,,,,,,,,,,,,,,,,,,,6101b58d26f47c98e418489e,61036e12edd6c0835ec37ad3,2021-07-29_23h13.57.068,Simcolourproject_2stim_asymm_v5,2020.2.10,MacIntel,60,61025ae37ef11b136ea224fe,,,,,,,,,3526,79,27,1,0,0,response1disk,,6,22,14,1,0,0,rectangle,22,14,1,0,0,22,14,1,0,0,1,63,223,64,1,,,,,,,,
,,,,,,,,,,,,,FF,,,,,,,,3.335,,,,,,,,,,,,,,,,,,,,,,6101b58d26f47c98e418489e,61036e12edd6c0835ec37ad3,2021-07-29_23h13.57.068,Simcolourproject_2stim_asymm_v5,2020.2.10,MacIntel,60,61025ae37ef11b136ea224fe,,,,,,,,,1275,-43,-94,1,0,0,response5disk,,3,-11,-7,1,0,0,rectangle,-11,-7,1,0,0,-11,-7,1,0,0,1,64,224,119,1,,,,,,,,
,,,,,,,,,,,,,FF,,,,,,,,1.035,,,,,,,,,,,,,,,,,,,,,,6101b58d26f47c98e418489e,61036e12edd6c0835ec37ad3,2021-07-29_23h13.57.068,Simcolourproject_2stim_asymm_v5,2020.2.10,MacIntel,60,61025ae37ef11b136ea224fe,,,,,,,,,2746,55,24,1,0,0,response1disk,,6,10,6,1,0,0,rectangle,10,6,1,0,0,10,6,1,0,0,1,65,225,4,1,,,,,,,,
,,,,,,,,,,,,,FF,,,,,,,,0.884,,,,,,,,,,,,,,,,,,,,,,6101b58d26f47c98e418489e,61036e12edd6c0835ec37ad3,2021-07-29_23h13.57.068,Simcolourproject_2stim_asymm_v5,2020.2.10,MacIntel,60,61025ae37ef11b136ea224fe,,,,,,,,,578,64,-54,1,0,0,response3disk,,5,16,-5,1,0,0,rectangle,16,-5,1,0,0,16,-5,1,0,0,1,66,226,29,1,,,,,,,,
,,,,,,,,,,,,,FF,,,,,,,,2.183,,,,,,,,,,,,,,,,,,,,,,6101b58d26f47c98e418489e,61036e12edd6c0835ec37ad3,2021-07-29_23h13.57.068,Simcolourproject_2stim_asymm_v5,2020.2.10,MacIntel,60,61025ae37ef11b136ea224fe,,,,,,,,,418,32,57,1,0,0,response1disk,,7,1,0,1,0,0,rectangle,1,0,1,0,0,1,0,1,0,0,1,67,227,120,1,,,,,,,,
,,,,,,,,,,,,,FF,,,,,,,,0.668,,,,,,,,,,,,,,,,,,,,,,6101b58d26f47c98e418489e,61036e12edd6c0835ec37ad3,2021-07-29_23h13.57.068,Simcolourproject_2stim_asymm_v5,2020.2.10,MacIntel,60,61025ae37ef11b136ea224fe,,,,,,,,,3986,32,61,1,0,0,response1disk,,7,19,2,1,0,0,rectangle,19,2,1,0,0,19,2,1,0,0,1,68,228,59,1,,,,,,,,
,,,,,,,,,,,,,FF,,,,,,,,2.435,,,,,,,,,,,,,,,,,,,,,,6101b58d26f47c98e418489e,61036e12edd6c0835ec37ad3,2021-07-29_23h13.57.068,Simcolourproject_2stim_asymm_v5,2020.2.10,MacIntel,60,61025ae37ef11b136ea224fe,,,,,,,,,576,77,33,1,0,0,response1disk,,6,25,10,1,0,0,rectangle,25,10,1,0,0,25,10,1,0,0,1,69,229,5,1,,,,,,,,
,,,,,,,,,,,,,FF,,,,,,,,1.535,,,,,,,,,,,,,,,,,,,,,,6101b58d26f47c98e418489e,61036e12edd6c0835ec37ad3,2021-07-29_23h13.57.068,Simcolourproject_2stim_asymm_v5,2020.2.10,MacIntel,60,61025ae37ef11b136ea224fe,,,,,,,,,1269,72,58,1,0,0,response1disk,,6,23,7,1,0,0,rectangle,23,7,1,0,0,23,7,1,0,0,1,70,230,54,1,,,,,,,,
,,,,,,,,,,,,,FF,,,,,,,,1.535,,,,,,,,,,,,,,,,,,,,,,6101b58d26f47c98e418489e,61036e12edd6c0835ec37ad3,2021-07-29_23h13.57.068,Simcolourproject_2stim_asymm_v5,2020.2.10,MacIntel,60,61025ae37ef11b136ea224fe,,,,,,,,,2839,26,-84,1,0,0,response3disk,,4,12,-7,1,0,0,rectangle,12,-7,1,0,0,12,-7,1,0,0,1,71,231,43,1,,,,,,,,
,,,,,,,,,,,,,FF,,,,,,,,1.801,,,,,,,,,,,,,,,,,,,,,,6101b58d26f47c98e418489e,61036e12edd6c0835ec37ad3,2021-07-29_23h13.57.068,Simcolourproject_2stim_asymm_v5,2020.2.10,MacIntel,60,61025ae37ef11b136ea224fe,,,,,,,,,2350,26,-66,1,0,0,response3disk,,4,26,-11,1,0,0,rectangle,26,-11,1,0,0,26,-11,1,0,0,1,72,232,142,1,,,,,,,,
,,,,,,,,,,,,,FF,,,,,,,,1.967,,,,,,,,,,,,,,,,,,,,,,6101b58d26f47c98e418489e,61036e12edd6c0835ec37ad3,2021-07-29_23h13.57.068,Simcolourproject_2stim_asymm_v5,2020.2.10,MacIntel,60,61025ae37ef11b136ea224fe,,,,,,,,,2658,64,-34,1,0,0,response3disk,,5,26,-10,1,0,0,rectangle,26,-10,1,0,0,26,-10,1,0,0,1,73,233,82,1,,,,,,,,
,,,,,,,,,,,,,FF,,,,,,,,1.217,,,,,,,,,,,,,,,,,,,,,,6101b58d26f47c98e418489e,61036e12edd6c0835ec37ad3,2021-07-29_23h13.57.068,Simcolourproject_2stim_asymm_v5,2020.2.10,MacIntel,60,61025ae37ef11b136ea224fe,,,,,,,,,2670,39,-76,1,0,0,response3disk,,4,17,-9,1,0,0,rectangle,17,-9,1,0,0,17,-9,1,0,0,1,74,234,8,1,,,,,,,,
,,,,,,,,,,,,,FF,,,,,,,,1.001,,,,,,,,,,,,,,,,,,,,,,6101b58d26f47c98e418489e,61036e12edd6c0835ec37ad3,2021-07-29_23h13.57.068,Simcolourproject_2stim_asymm_v5,2020.2.10,MacIntel,60,61025ae37ef11b136ea224fe,,,,,,,,,4,-29,-60,1,0,0,response5disk,,3,-21,4,1,0,0,rectangle,-21,4,1,0,0,-21,4,1,0,0,1,75,235,133,1,,,,,,,,
,,,,,,,,,,,,,FF,,,,,,,,1.567,,,,,,,,,,,,,,,,,,,,,,6101b58d26f47c98e418489e,61036e12edd6c0835ec37ad3,2021-07-29_23h13.57.068,Simcolourproject_2stim_asymm_v5,2020.2.10,MacIntel,60,61025ae37ef11b136ea224fe,,,,,,,,,825,70,-41,1,0,0,response3disk,,5,11,-11,1,0,0,rectangle,11,-11,1,0,0,11,-11,1,0,0,1,76,236,39,1,,,,,,,,
,,,,,,,,,,,,,FF,,,,,,,,4.437,,,,,,,,,,,,,,,,,,,,,,6101b58d26f47c98e418489e,61036e12edd6c0835ec37ad3,2021-07-29_23h13.57.068,Simcolourproject_2stim_asymm_v5,2020.2.10,MacIntel,60,61025ae37ef11b136ea224fe,,,,,,,,,3789,65,33,1,0,0,response1disk,,6,7,4,1,0,0,rectangle,7,4,1,0,0,7,4,1,0,0,1,77,237,102,1,,,,,,,,
,,,,,,,,,,,,,FF,,,,,,,,3.434,,,,,,,,,,,,,,,,,,,,,,6101b58d26f47c98e418489e,61036e12edd6c0835ec37ad3,2021-07-29_23h13.57.068,Simcolourproject_2stim_asymm_v5,2020.2.10,MacIntel,60,61025ae37ef11b136ea224fe,,,,,,,,,2840,-36,-45,1,0,0,response5disk,,3,-13,13,1,0,0,rectangle,-13,13,1,0,0,-13,13,1,0,0,1,78,238,91,1,,,,,,,,
,,,,,,,,,,,,,FF,,,,,,,,1.05,,,,,,,,,,,,,,,,,,,,,,6101b58d26f47c98e418489e,61036e12edd6c0835ec37ad3,2021-07-29_23h13.57.068,Simcolourproject_2stim_asymm_v5,2020.2.10,MacIntel,60,61025ae37ef11b136ea224fe,,,,,,,,,2815,24,-64,1,0,0,response3disk,,4,14,-8,1,0,0,rectangle,14,-8,1,0,0,14,-8,1,0,0,1,79,239,93,1,,,,,,,,
,,,,,,,,,,,,,FF,,,,,,,,1.068,,,,,,,,,,,,,,,,,,,,,,6101b58d26f47c98e418489e,61036e12edd6c0835ec37ad3,2021-07-29_23h13.57.068,Simcolourproject_2stim_asymm_v5,2020.2.10,MacIntel,60,61025ae37ef11b136ea224fe,,,,,,,,,1171,53,-25,1,0,0,response3disk,,5,25,-8,1,0,0,rectangle,25,-8,1,0,0,25,-8,1,0,0,1,80,240,131,1,,,,,,,,
,,,,,,,,,,,,,FF,,,,,,,,1.299,,,,,,,,,,,,,,,,,,,,,,6101b58d26f47c98e418489e,61036e12edd6c0835ec37ad3,2021-07-29_23h13.57.068,Simcolourproject_2stim_asymm_v5,2020.2.10,MacIntel,60,61025ae37ef11b136ea224fe,,,,,,,,,1760,50,-73,1,0,0,response3disk,,4,20,10,1,0,0,rectangle,20,10,1,0,0,20,10,1,0,0,1,81,241,7,1,,,,,,,,
,,,,,,,,,,,,,FF,,,,,,,,1.167,,,,,,,,,,,,,,,,,,,,,,6101b58d26f47c98e418489e,61036e12edd6c0835ec37ad3,2021-07-29_23h13.57.068,Simcolourproject_2stim_asymm_v5,2020.2.10,MacIntel,60,61025ae37ef11b136ea224fe,,,,,,,,,229,73,15,1,0,0,response1disk,,6,13,3,1,0,0,rectangle,13,3,1,0,0,13,3,1,0,0,1,82,242,137,1,,,,,,,,
,,,,,,,,,,,,,FF,,,,,,,,2.235,,,,,,,,,,,,,,,,,,,,,,6101b58d26f47c98e418489e,61036e12edd6c0835ec37ad3,2021-07-29_23h13.57.068,Simcolourproject_2stim_asymm_v5,2020.2.10,MacIntel,60,61025ae37ef11b136ea224fe,,,,,,,,,1585,49,37,1,0,0,response1disk,,6,-4,3,1,0,0,rectangle,-4,3,1,0,0,-4,3,1,0,0,1,83,243,75,1,,,,,,,,
,,,,,,,,,,,,,FF,,,,,,,,0.8,,,,,,,,,,,,,,,,,,,,,,6101b58d26f47c98e418489e,61036e12edd6c0835ec37ad3,2021-07-29_23h13.57.068,Simcolourproject_2stim_asymm_v5,2020.2.10,MacIntel,60,61025ae37ef11b136ea224fe,,,,,,,,,228,29,75,1,0,0,response1disk,,7,7,7,1,0,0,rectangle,7,7,1,0,0,7,7,1,0,0,1,84,244,74,1,,,,,,,,
,,,,,,,,,,,,,FF,,,,,,,,1.885,,,,,,,,,,,,,,,,,,,,,,6101b58d26f47c98e418489e,61036e12edd6c0835ec37ad3,2021-07-29_23h13.57.068,Simcolourproject_2stim_asymm_v5,2020.2.10,MacIntel,60,61025ae37ef11b136ea224fe,,,,,,,,,1671,41,-81,1,0,0,response3disk,,4,-6,-8,1,0,0,rectangle,-6,-8,1,0,0,-6,-8,1,0,0,1,85,245,157,1,,,,,,,,
,,,,,,,,,,,,,FF,,,,,,,,1.116,,,,,,,,,,,,,,,,,,,,,,6101b58d26f47c98e418489e,61036e12edd6c0835ec37ad3,2021-07-29_23h13.57.068,Simcolourproject_2stim_asymm_v5,2020.2.10,MacIntel,60,61025ae37ef11b136ea224fe,,,,,,,,,2039,-29,-55,1,0,0,response5disk,,3,-4,-6,1,0,0,rectangle,-4,-6,1,0,0,-4,-6,1,0,0,1,86,246,52,1,,,,,,,,
,,,,,,,,,,,,,FF,,,,,,,,1.885,,,,,,,,,,,,,,,,,,,,,,6101b58d26f47c98e418489e,61036e12edd6c0835ec37ad3,2021-07-29_23h13.57.068,Simcolourproject_2stim_asymm_v5,2020.2.10,MacIntel,60,61025ae37ef11b136ea224fe,,,,,,,,,3463,45,21,1,0,0,response1disk,,6,1,-5,1,0,0,rectangle,1,-5,1,0,0,1,-5,1,0,0,1,87,247,85,1,,,,,,,,
,,,,,,,,,,,,,FF,,,,,,,,1.467,,,,,,,,,,,,,,,,,,,,,,6101b58d26f47c98e418489e,61036e12edd6c0835ec37ad3,2021-07-29_23h13.57.068,Simcolourproject_2stim_asymm_v5,2020.2.10,MacIntel,60,61025ae37ef11b136ea224fe,,,,,,,,,3166,56,42,1,0,0,response1disk,,6,4,-2,1,0,0,rectangle,33,-67,1,0,0,-6,5,1,0,0,1,88,248,100,1,,response3disk_3,TRUE,4,4,"[249,147,56,121,210,18,207,168,117,192,222,85,216,188,178,20,207,149,64,196]",1.316,rectangle
,,,,,,,,,,,,,FF,,,,,,,,3.885,,,,,,,,,,,,,,,,,,,,,,6101b58d26f47c98e418489e,61036e12edd6c0835ec37ad3,2021-07-29_23h13.57.068,Simcolourproject_2stim_asymm_v5,2020.2.10,MacIntel,60,61025ae37ef11b136ea224fe,,,,,,,,,1512,59,31,1,0,0,response1disk,,6,15,3,1,0,0,rectangle,15,3,1,0,0,15,3,1,0,0,1,89,249,122,1,,,,,,,,
,,,,,,,,,,,,,FF,,,,,,,,1.551,,,,,,,,,,,,,,,,,,,,,,6101b58d26f47c98e418489e,61036e12edd6c0835ec37ad3,2021-07-29_23h13.57.068,Simcolourproject_2stim_asymm_v5,2020.2.10,MacIntel,60,61025ae37ef11b136ea224fe,,,,,,,,,3194,-49,-88,1,0,0,response5disk,,3,-17,-6,1,0,0,rectangle,-17,-6,1,0,0,-17,-6,1,0,0,1,90,250,68,1,,,,,,,,
,,,,,,,,,,,,,FF,,,,,,,,1.334,,,,,,,,,,,,,,,,,,,,,,6101b58d26f47c98e418489e,61036e12edd6c0835ec37ad3,2021-07-29_23h13.57.068,Simcolourproject_2stim_asymm_v5,2020.2.10,MacIntel,60,61025ae37ef11b136ea224fe,,,,,,,,,3512,-81,-37,1,0,0,response5disk,,2,-16,-4,1,0,0,rectangle,-16,-4,1,0,0,-16,-4,1,0,0,1,91,251,2,1,,,,,,,,
,,,,,,,,,,,,,FF,,,,,,,,3.568,,,,,,,,,,,,,,,,,,,,,,6101b58d26f47c98e418489e,61036e12edd6c0835ec37ad3,2021-07-29_23h13.57.068,Simcolourproject_2stim_asymm_v5,2020.2.10,MacIntel,60,61025ae37ef11b136ea224fe,,,,,,,,,1800,68,-48,1,0,0,response3disk,,5,14,-16,1,0,0,rectangle,14,-16,1,0,0,14,-16,1,0,0,1,92,252,129,1,,,,,,,,
,,,,,,,,,,,,,FF,,,,,,,,0.951,,,,,,,,,,,,,,,,,,,,,,6101b58d26f47c98e418489e,61036e12edd6c0835ec37ad3,2021-07-29_23h13.57.068,Simcolourproject_2stim_asymm_v5,2020.2.10,MacIntel,60,61025ae37ef11b136ea224fe,,,,,,,,,2124,33,100,1,0,0,response1disk,,7,18,5,1,0,0,rectangle,18,5,1,0,0,18,5,1,0,0,1,93,253,92,1,,,,,,,,
,,,,,,,,,,,,,FF,,,,,,,,1.835,,,,,,,,,,,,,,,,,,,,,,6101b58d26f47c98e418489e,61036e12edd6c0835ec37ad3,2021-07-29_23h13.57.068,Simcolourproject_2stim_asymm_v5,2020.2.10,MacIntel,60,61025ae37ef11b136ea224fe,,,,,,,,,2889,-35,-76,1,0,0,response5disk,,3,14,4,1,0,0,rectangle,14,4,1,0,0,14,4,1,0,0,1,94,254,42,1,,,,,,,,
,,,,,,,,,,,,,FF,,,,,,,,1.049,,,,,,,,,,,,,,,,,,,,,,6101b58d26f47c98e418489e,61036e12edd6c0835ec37ad3,2021-07-29_23h13.57.068,Simcolourproject_2stim_asymm_v5,2020.2.10,MacIntel,60,61025ae37ef11b136ea224fe,,,,,,,,,4211,60,24,1,0,0,response1disk,,6,9,-8,1,0,0,rectangle,9,-8,1,0,0,9,-8,1,0,0,1,95,255,114,1,,,,,,,,
,,,,,,,,,,,,,FF,,,,,,,,1.667,,,,,,,,,,,,,,,,,,,,,,6101b58d26f47c98e418489e,61036e12edd6c0835ec37ad3,2021-07-29_23h13.57.068,Simcolourproject_2stim_asymm_v5,2020.2.10,MacIntel,60,61025ae37ef11b136ea224fe,,,,,,,,,463,44,-61,1,0,0,response3disk,,4,8,-1,1,0,0,rectangle,8,-1,1,0,0,8,-1,1,0,0,1,96,256,56,1,,,,,,,,
,,,,,,,,,,,,,FF,,,,,,,,0.95,,,,,,,,,,,,,,,,,,,,,,6101b58d26f47c98e418489e,61036e12edd6c0835ec37ad3,2021-07-29_23h13.57.068,Simcolourproject_2stim_asymm_v5,2020.2.10,MacIntel,60,61025ae37ef11b136ea224fe,,,,,,,,,808,-23,-69,1,0,0,response5disk,,3,-7,-11,1,0,0,rectangle,-7,-11,1,0,0,-7,-11,1,0,0,1,97,257,106,1,,,,,,,,
,,,,,,,,,,,,,FF,,,,,,,,1.434,,,,,,,,,,,,,,,,,,,,,,6101b58d26f47c98e418489e,61036e12edd6c0835ec37ad3,2021-07-29_23h13.57.068,Simcolourproject_2stim_asymm_v5,2020.2.10,MacIntel,60,61025ae37ef11b136ea224fe,,,,,,,,,3701,33,-58,1,0,0,response3disk,,4,15,-12,1,0,0,rectangle,15,-12,1,0,0,15,-12,1,0,0,1,98,258,103,1,,,,,,,,
,,,,,,,,,,,,,FF,,,,,,,,1.516,,,,,,,,,,,,,,,,,,,,,,6101b58d26f47c98e418489e,61036e12edd6c0835ec37ad3,2021-07-29_23h13.57.068,Simcolourproject_2stim_asymm_v5,2020.2.10,MacIntel,60,61025ae37ef11b136ea224fe,,,,,,,,,2953,-24,-78,1,0,0,response5disk,,3,-6,-5,1,0,0,rectangle,-6,-5,1,0,0,-6,-5,1,0,0,1,99,259,135,1,,,,,,,,
,,,,,,,,,,,,,FF,,,,,,,,3.851,,,,,,,,,,,,,,,,,,,,,,6101b58d26f47c98e418489e,61036e12edd6c0835ec37ad3,2021-07-29_23h13.57.068,Simcolourproject_2stim_asymm_v5,2020.2.10,MacIntel,60,61025ae37ef11b136ea224fe,,,,,,,,,558,72,-63,1,0,0,response3disk,,5,7,-6,1,0,0,rectangle,7,-6,1,0,0,7,-6,1,0,0,1,100,260,12,1,,,,,,,,
,,,,,,,,,,,,,FF,,,,,,,,1.051,,,,,,,,,,,,,,,,,,,,,,6101b58d26f47c98e418489e,61036e12edd6c0835ec37ad3,2021-07-29_23h13.57.068,Simcolourproject_2stim_asymm_v5,2020.2.10,MacIntel,60,61025ae37ef11b136ea224fe,,,,,,,,,1205,85,-31,1,0,0,response3disk,,5,24,2,1,0,0,rectangle,24,2,1,0,0,24,2,1,0,0,1,101,261,58,1,,,,,,,,
,,,,,,,,,,,,,FF,,,,,,,,0.766,,,,,,,,,,,,,,,,,,,,,,6101b58d26f47c98e418489e,61036e12edd6c0835ec37ad3,2021-07-29_23h13.57.068,Simcolourproject_2stim_asymm_v5,2020.2.10,MacIntel,60,61025ae37ef11b136ea224fe,,,,,,,,,2987,61,-39,1,0,0,response3disk,,5,22,-5,1,0,0,rectangle,22,-5,1,0,0,22,-5,1,0,0,1,102,262,149,1,,,,,,,,
,,,,,,,,,,,,,FF,,,,,,,,1.166,,,,,,,,,,,,,,,,,,,,,,6101b58d26f47c98e418489e,61036e12edd6c0835ec37ad3,2021-07-29_23h13.57.068,Simcolourproject_2stim_asymm_v5,2020.2.10,MacIntel,60,61025ae37ef11b136ea224fe,,,,,,,,,709,67,29,1,0,0,response1disk,,6,11,1,1,0,0,rectangle,11,1,1,0,0,11,1,1,0,0,1,103,263,99,1,,,,,,,,
,,,,,,,,,,,,,FF,,,,,,,,1.902,,,,,,,,,,,,,,,,,,,,,,6101b58d26f47c98e418489e,61036e12edd6c0835ec37ad3,2021-07-29_23h13.57.068,Simcolourproject_2stim_asymm_v5,2020.2.10,MacIntel,60,61025ae37ef11b136ea224fe,,,,,,,,,980,32,-86,1,0,0,response3disk,,4,11,-1,1,0,0,rectangle,11,-1,1,0,0,11,-1,1,0,0,1,104,264,158,1,,,,,,,,
,,,,,,,,,,,,,FF,,,,,,,,1.334,,,,,,,,,,,,,,,,,,,,,,6101b58d26f47c98e418489e,61036e12edd6c0835ec37ad3,2021-07-29_23h13.57.068,Simcolourproject_2stim_asymm_v5,2020.2.10,MacIntel,60,61025ae37ef11b136ea224fe,,,,,,,,,2730,43,-87,1,0,0,response3disk,,4,15,-7,1,0,0,rectangle,15,-7,1,0,0,15,-7,1,0,0,1,105,265,36,1,,,,,,,,
,,,,,,,,,,,,,FF,,,,,,,,1.202,,,,,,,,,,,,,,,,,,,,,,6101b58d26f47c98e418489e,61036e12edd6c0835ec37ad3,2021-07-29_23h13.57.068,Simcolourproject_2stim_asymm_v5,2020.2.10,MacIntel,60,61025ae37ef11b136ea224fe,,,,,,,,,3757,-26,-75,1,0,0,response5disk,,3,7,11,1,0,0,rectangle,7,11,1,0,0,7,11,1,0,0,1,106,266,88,1,,,,,,,,
,,,,,,,,,,,,,FF,,,,,,,,1.101,,,,,,,,,,,,,,,,,,,,,,6101b58d26f47c98e418489e,61036e12edd6c0835ec37ad3,2021-07-29_23h13.57.068,Simcolourproject_2stim_asymm_v5,2020.2.10,MacIntel,60,61025ae37ef11b136ea224fe,,,,,,,,,2440,59,32,1,0,0,response1disk,,6,-4,0,1,0,0,rectangle,-4,0,1,0,0,-4,0,1,0,0,1,107,267,155,1,,,,,,,,
,,,,,,,,,,,,,FF,,,,,,,,2.217,,,,,,,,,,,,,,,,,,,,,,6101b58d26f47c98e418489e,61036e12edd6c0835ec37ad3,2021-07-29_23h13.57.068,Simcolourproject_2stim_asymm_v5,2020.2.10,MacIntel,60,61025ae37ef11b136ea224fe,,,,,,,,,2065,30,61,1,0,0,response1disk,,7,6,7,1,0,0,rectangle,6,7,1,0,0,6,7,1,0,0,1,108,268,10,1,,,,,,,,
,,,,,,,,,,,,,FF,,,,,,,,1,,,,,,,,,,,,,,,,,,,,,,6101b58d26f47c98e418489e,61036e12edd6c0835ec37ad3,2021-07-29_23h13.57.068,Simcolourproject_2stim_asymm_v5,2020.2.10,MacIntel,60,61025ae37ef11b136ea224fe,,,,,,,,,2351,70,-27,1,0,0,response3disk,,5,25,-8,1,0,0,rectangle,25,-8,1,0,0,25,-8,1,0,0,1,109,269,147,1,,,,,,,,
,,,,,,,,,,,,,FF,,,,,,,,0.932,,,,,,,,,,,,,,,,,,,,,,6101b58d26f47c98e418489e,61036e12edd6c0835ec37ad3,2021-07-29_23h13.57.068,Simcolourproject_2stim_asymm_v5,2020.2.10,MacIntel,60,61025ae37ef11b136ea224fe,,,,,,,,,40,39,74,1,0,0,response1disk,,7,19,0,1,0,0,rectangle,19,0,1,0,0,19,0,1,0,0,1,110,270,31,1,,,,,,,,
,,,,,,,,,,,,,FF,,,,,,,,0.7,,,,,,,,,,,,,,,,,,,,,,6101b58d26f47c98e418489e,61036e12edd6c0835ec37ad3,2021-07-29_23h13.57.068,Simcolourproject_2stim_asymm_v5,2020.2.10,MacIntel,60,61025ae37ef11b136ea224fe,,,,,,,,,2764,31,70,1,0,0,response1disk,,7,15,-8,1,0,0,rectangle,15,-8,1,0,0,15,-8,1,0,0,1,111,271,69,1,,,,,,,,
,,,,,,,,,,,,,FF,,,,,,,,1.734,,,,,,,,,,,,,,,,,,,,,,6101b58d26f47c98e418489e,61036e12edd6c0835ec37ad3,2021-07-29_23h13.57.068,Simcolourproject_2stim_asymm_v5,2020.2.10,MacIntel,60,61025ae37ef11b136ea224fe,,,,,,,,,4213,50,70,1,0,0,response1disk,,7,18,-1,1,0,0,rectangle,18,-1,1,0,0,18,-1,1,0,0,1,112,272,79,1,,,,,,,,
,,,,,,,,,,,,,FF,,,,,,,,0.901,,,,,,,,,,,,,,,,,,,,,,6101b58d26f47c98e418489e,61036e12edd6c0835ec37ad3,2021-07-29_23h13.57.068,Simcolourproject_2stim_asymm_v5,2020.2.10,MacIntel,60,61025ae37ef11b136ea224fe,,,,,,,,,1518,25,53,1,0,0,response1disk,,7,16,-8,1,0,0,rectangle,16,-8,1,0,0,16,-8,1,0,0,1,113,273,63,1,,,,,,,,
,,,,,,,,,,,,,FF,,,,,,,,0.884,,,,,,,,,,,,,,,,,,,,,,6101b58d26f47c98e418489e,61036e12edd6c0835ec37ad3,2021-07-29_23h13.57.068,Simcolourproject_2stim_asymm_v5,2020.2.10,MacIntel,60,61025ae37ef11b136ea224fe,,,,,,,,,732,79,54,1,0,0,response1disk,,6,28,9,1,0,0,rectangle,28,9,1,0,0,28,9,1,0,0,1,114,274,65,1,,,,,,,,
,,,,,,,,,,,,,FF,,,,,,,,0.783,,,,,,,,,,,,,,,,,,,,,,6101b58d26f47c98e418489e,61036e12edd6c0835ec37ad3,2021-07-29_23h13.57.068,Simcolourproject_2stim_asymm_v5,2020.2.10,MacIntel,60,61025ae37ef11b136ea224fe,,,,,,,,,1073,24,84,1,0,0,response1disk,,7,18,0,1,0,0,rectangle,18,0,1,0,0,18,0,1,0,0,1,115,275,72,1,,,,,,,,
,,,,,,,,,,,,,FF,,,,,,,,1.13,,,,,,,,,,,,,,,,,,,,,,6101b58d26f47c98e418489e,61036e12edd6c0835ec37ad3,2021-07-29_23h13.57.068,Simcolourproject_2stim_asymm_v5,2020.2.10,MacIntel,60,61025ae37ef11b136ea224fe,,,,,,,,,4104,-34,-74,1,0,0,response5disk,,3,5,-1,1,0,0,rectangle,5,-1,1,0,0,5,-1,1,0,0,1,116,276,132,1,,,,,,,,
,,,,,,,,,,,,,FF,,,,,,,,1.284,,,,,,,,,,,,,,,,,,,,,,6101b58d26f47c98e418489e,61036e12edd6c0835ec37ad3,2021-07-29_23h13.57.068,Simcolourproject_2stim_asymm_v5,2020.2.10,MacIntel,60,61025ae37ef11b136ea224fe,,,,,,,,,1452,-52,28,1,0,0,response7disk,,1,-15,2,1,0,0,rectangle,-15,2,1,0,0,-15,2,1,0,0,1,117,277,53,1,,,,,,,,
,,,,,,,,,,,,,FF,,,,,,,,1.318,,,,,,,,,,,,,,,,,,,,,,6101b58d26f47c98e418489e,61036e12edd6c0835ec37ad3,2021-07-29_23h13.57.068,Simcolourproject_2stim_asymm_v5,2020.2.10,MacIntel,60,61025ae37ef11b136ea224fe,,,,,,,,,3633,24,-50,1,0,0,response3disk,,4,6,-2,1,0,0,rectangle,6,-2,1,0,0,6,-2,1,0,0,1,118,278,40,1,,,,,,,,
,,,,,,,,,,,,,FF,,,,,,,,2.567,,,,,,,,,,,,,,,,,,,,,,6101b58d26f47c98e418489e,61036e12edd6c0835ec37ad3,2021-07-29_23h13.57.068,Simcolourproject_2stim_asymm_v5,2020.2.10,MacIntel,60,61025ae37ef11b136ea224fe,,,,,,,,,3645,54,-40,1,0,0,response3disk,,5,9,-3,1,0,0,rectangle,9,-3,1,0,0,9,-3,1,0,0,1,119,279,96,1,,,,,,,,
,,,,,,,,,,,,,FF,,,,,,,,2.317,,,,,,,,,,,,,,,,,,,,,,6101b58d26f47c98e418489e,61036e12edd6c0835ec37ad3,2021-07-29_23h13.57.068,Simcolourproject_2stim_asymm_v5,2020.2.10,MacIntel,60,61025ae37ef11b136ea224fe,,,,,,,,,1771,74,-48,1,0,0,response3disk,,5,27,-1,1,0,0,rectangle,27,-1,1,0,0,27,-1,1,0,0,1,120,280,33,1,,,,,,,,
,,,,,,,,,,,,,FF,,,,,,,,2.934,,,,,,,,,,,,,,,,,,,,,,6101b58d26f47c98e418489e,61036e12edd6c0835ec37ad3,2021-07-29_23h13.57.068,Simcolourproject_2stim_asymm_v5,2020.2.10,MacIntel,60,61025ae37ef11b136ea224fe,,,,,,,,,704,38,-79,1,0,0,response3disk,,4,11,2,1,0,0,rectangle,11,2,1,0,0,11,2,1,0,0,1,121,281,49,1,,,,,,,,
,,,,,,,,,,,,,FF,,,,,,,,1.316,,,,,,,,,,,,,,,,,,,,,,6101b58d26f47c98e418489e,61036e12edd6c0835ec37ad3,2021-07-29_23h13.57.068,Simcolourproject_2stim_asymm_v5,2020.2.10,MacIntel,60,61025ae37ef11b136ea224fe,,,,,,,,,3959,54,28,1,0,0,response1disk,,6,9,-3,1,0,0,rectangle,9,-3,1,0,0,9,-3,1,0,0,1,122,282,18,1,,,,,,,,
,,,,,,,,,,,,,FF,,,,,,,,0.951,,,,,,,,,,,,,,,,,,,,,,6101b58d26f47c98e418489e,61036e12edd6c0835ec37ad3,2021-07-29_23h13.57.068,Simcolourproject_2stim_asymm_v5,2020.2.10,MacIntel,60,61025ae37ef11b136ea224fe,,,,,,,,,1220,-32,-60,1,0,0,response5disk,,3,-4,-5,1,0,0,rectangle,-4,-5,1,0,0,-4,-5,1,0,0,1,123,283,25,1,,,,,,,,
,,,,,,,,,,,,,FF,,,,,,,,1,,,,,,,,,,,,,,,,,,,,,,6101b58d26f47c98e418489e,61036e12edd6c0835ec37ad3,2021-07-29_23h13.57.068,Simcolourproject_2stim_asymm_v5,2020.2.10,MacIntel,60,61025ae37ef11b136ea224fe,,,,,,,,,694,51,-18,1,0,0,response3disk,,5,18,-6,1,0,0,rectangle,18,-6,1,0,0,18,-6,1,0,0,1,124,284,14,1,,,,,,,,
,,,,,,,,,,,,,FF,,,,,,,,1.735,,,,,,,,,,,,,,,,,,,,,,6101b58d26f47c98e418489e,61036e12edd6c0835ec37ad3,2021-07-29_23h13.57.068,Simcolourproject_2stim_asymm_v5,2020.2.10,MacIntel,60,61025ae37ef11b136ea224fe,,,,,,,,,3242,60,31,1,0,0,response1disk,,6,15,-4,1,0,0,rectangle,15,-4,1,0,0,15,-4,1,0,0,1,125,285,11,1,,,,,,,,
,,,,,,,,,,,,,FF,,,,,,,,0.917,,,,,,,,,,,,,,,,,,,,,,6101b58d26f47c98e418489e,61036e12edd6c0835ec37ad3,2021-07-29_23h13.57.068,Simcolourproject_2stim_asymm_v5,2020.2.10,MacIntel,60,61025ae37ef11b136ea224fe,,,,,,,,,2802,38,61,1,0,0,response1disk,,7,4,-9,1,0,0,rectangle,4,-9,1,0,0,4,-9,1,0,0,1,126,286,118,1,,,,,,,,
,,,,,,,,,,,,,FF,,,,,,,,2.336,,,,,,,,,,,,,,,,,,,,,,6101b58d26f47c98e418489e,61036e12edd6c0835ec37ad3,2021-07-29_23h13.57.068,Simcolourproject_2stim_asymm_v5,2020.2.10,MacIntel,60,61025ae37ef11b136ea224fe,,,,,,,,,1726,70,-34,1,0,0,response3disk,,5,23,3,1,0,0,rectangle,23,3,1,0,0,23,3,1,0,0,1,127,287,113,1,,,,,,,,
,,,,,,,,,,,,,FF,,,,,,,,1.352,,,,,,,,,,,,,,,,,,,,,,6101b58d26f47c98e418489e,61036e12edd6c0835ec37ad3,2021-07-29_23h13.57.068,Simcolourproject_2stim_asymm_v5,2020.2.10,MacIntel,60,61025ae37ef11b136ea224fe,,,,,,,,,2068,83,30,1,0,0,response1disk,,6,19,-2,1,0,0,rectangle,19,-2,1,0,0,19,-2,1,0,0,1,128,288,57,1,,,,,,,,
,,,,,,,,,,,,,FF,,,,,,,,1.083,,,,,,,,,,,,,,,,,,,,,,6101b58d26f47c98e418489e,61036e12edd6c0835ec37ad3,2021-07-29_23h13.57.068,Simcolourproject_2stim_asymm_v5,2020.2.10,MacIntel,60,61025ae37ef11b136ea224fe,,,,,,,,,2581,25,72,1,0,0,response1disk,,7,8,1,1,0,0,rectangle,8,1,1,0,0,8,1,1,0,0,1,129,289,115,1,,,,,,,,
,,,,,,,,,,,,,FF,,,,,,,,1.333,,,,,,,,,,,,,,,,,,,,,,6101b58d26f47c98e418489e,61036e12edd6c0835ec37ad3,2021-07-29_23h13.57.068,Simcolourproject_2stim_asymm_v5,2020.2.10,MacIntel,60,61025ae37ef11b136ea224fe,,,,,,,,,303,97,31,1,0,0,response1disk,,6,16,8,1,0,0,rectangle,16,8,1,0,0,16,8,1,0,0,1,130,290,156,1,,,,,,,,
,,,,,,,,,,,,,FF,,,,,,,,1.084,,,,,,,,,,,,,,,,,,,,,,6101b58d26f47c98e418489e,61036e12edd6c0835ec37ad3,2021-07-29_23h13.57.068,Simcolourproject_2stim_asymm_v5,2020.2.10,MacIntel,60,61025ae37ef11b136ea224fe,,,,,,,,,3660,26,-61,1,0,0,response3disk,,4,17,-6,1,0,0,rectangle,17,-6,1,0,0,17,-6,1,0,0,1,131,291,24,1,,,,,,,,
,,,,,,,,,,,,,FF,,,,,,,,1.666,,,,,,,,,,,,,,,,,,,,,,6101b58d26f47c98e418489e,61036e12edd6c0835ec37ad3,2021-07-29_23h13.57.068,Simcolourproject_2stim_asymm_v5,2020.2.10,MacIntel,60,61025ae37ef11b136ea224fe,,,,,,,,,1948,72,-16,1,0,0,response3disk,,5,14,1,1,0,0,rectangle,14,1,1,0,0,14,1,1,0,0,1,132,292,141,1,,,,,,,,
,,,,,,,,,,,,,FF,,,,,,,,1.284,,,,,,,,,,,,,,,,,,,,,,6101b58d26f47c98e418489e,61036e12edd6c0835ec37ad3,2021-07-29_23h13.57.068,Simcolourproject_2stim_asymm_v5,2020.2.10,MacIntel,60,61025ae37ef11b136ea224fe,,,,,,,,,59,76,40,1,0,0,response1disk,,6,20,2,1,0,0,rectangle,20,2,1,0,0,20,2,1,0,0,1,133,293,17,1,,,,,,,,
,,,,,,,,,,,,,FF,,,,,,,,1.733,,,,,,,,,,,,,,,,,,,,,,6101b58d26f47c98e418489e,61036e12edd6c0835ec37ad3,2021-07-29_23h13.57.068,Simcolourproject_2stim_asymm_v5,2020.2.10,MacIntel,60,61025ae37ef11b136ea224fe,,,,,,,,,3453,36,107,1,0,0,response1disk,,7,6,4,1,0,0,rectangle,6,4,1,0,0,6,4,1,0,0,1,134,294,71,1,,,,,,,,
,,,,,,,,,,,,,FF,,,,,,,,1.617,,,,,,,,,,,,,,,,,,,,,,6101b58d26f47c98e418489e,61036e12edd6c0835ec37ad3,2021-07-29_23h13.57.068,Simcolourproject_2stim_asymm_v5,2020.2.10,MacIntel,60,61025ae37ef11b136ea224fe,,,,,,,,,1586,30,-42,1,0,0,response3disk,,4,25,-12,1,0,0,rectangle,25,-12,1,0,0,25,-12,1,0,0,1,135,295,90,1,,,,,,,,
,,,,,,,,,,,,,FF,,,,,,,,3.084,,,,,,,,,,,,,,,,,,,,,,6101b58d26f47c98e418489e,61036e12edd6c0835ec37ad3,2021-07-29_23h13.57.068,Simcolourproject_2stim_asymm_v5,2020.2.10,MacIntel,60,61025ae37ef11b136ea224fe,,,,,,,,,3837,44,-57,1,0,0,response3disk,,4,1,5,1,0,0,rectangle,1,5,1,0,0,1,5,1,0,0,1,136,296,84,1,,,,,,,,
,,,,,,,,,,,,,FF,,,,,,,,2.151,,,,,,,,,,,,,,,,,,,,,,6101b58d26f47c98e418489e,61036e12edd6c0835ec37ad3,2021-07-29_23h13.57.068,Simcolourproject_2stim_asymm_v5,2020.2.10,MacIntel,60,61025ae37ef11b136ea224fe,,,,,,,,,180,72,-33,1,0,0,response3disk,,5,10,-5,1,0,0,rectangle,10,-5,1,0,0,10,-5,1,0,0,1,137,297,81,1,,,,,,,,
,,,,,,,,,,,,,FF,,,,,,,,0.967,,,,,,,,,,,,,,,,,,,,,,6101b58d26f47c98e418489e,61036e12edd6c0835ec37ad3,2021-07-29_23h13.57.068,Simcolourproject_2stim_asymm_v5,2020.2.10,MacIntel,60,61025ae37ef11b136ea224fe,,,,,,,,,389,68,25,1,0,0,response1disk,,6,-18,-4,1,0,0,rectangle,-18,-4,1,0,0,-18,-4,1,0,0,1,138,298,159,1,,,,,,,,
,,,,,,,,,,,,,FF,,,,,,,,2.818,,,,,,,,,,,,,,,,,,,,,,6101b58d26f47c98e418489e,61036e12edd6c0835ec37ad3,2021-07-29_23h13.57.068,Simcolourproject_2stim_asymm_v5,2020.2.10,MacIntel,60,61025ae37ef11b136ea224fe,,,,,,,,,1319,-46,-72,1,0,0,response5disk,,3,-11,-4,1,0,0,rectangle,-11,-4,1,0,0,-11,-4,1,0,0,1,139,299,9,1,,,,,,,,
,,,,,,,,,,,,,FF,,,,,,,,1.3,,,,,,,,,,,,,,,,,,,,,,6101b58d26f47c98e418489e,61036e12edd6c0835ec37ad3,2021-07-29_23h13.57.068,Simcolourproject_2stim_asymm_v5,2020.2.10,MacIntel,60,61025ae37ef11b136ea224fe,,,,,,,,,309,38,54,1,0,0,response1disk,,7,-3,-11,1,0,0,rectangle,-3,-11,1,0,0,-3,-11,1,0,0,1,140,300,55,1,,,,,,,,
