key_resp.keys,key_resp.rt,key_resp_14.keys,key_resp_14.rt,key_resp_15.keys,key_resp_15.rt,key_resp_17.keys,key_resp_17.rt,key_resp_9.keys,key_resp_9.rt,key_resp_10.keys,key_resp_10.rt,practice_comparison,Ecc,mouse_5.x,mouse_5.y,mouse_5.leftButton,mouse_5.midButton,mouse_5.rightButton,mouse_5.clicked_name,pracsimilarity,response_time,mouse_10.x,mouse_10.y,mouse_10.leftButton,mouse_10.midButton,mouse_10.rightButton,mouse_10.clicked_name,mouse_7.x,mouse_7.y,mouse_7.leftButton,mouse_7.midButton,mouse_7.rightButton,mouse_6.x,mouse_6.y,mouse_6.leftButton,mouse_6.midButton,mouse_6.rightButton,duringprac.thisRepN,duringprac.thisTrialN,duringprac.thisN,duringprac.thisIndex,duringprac.ran,participant,session,date,expName,psychopyVersion,OS,frameRate,study_id,mouse_7.clicked_name,catchpracsimilarity,catch_response_time,catchnumberprac,catchtrialorderprac,mouse_6.clicked_name,key_resp_22.keys,key_resp_22.rt,realcomparison,mouse.x,mouse.y,mouse.leftButton,mouse.midButton,mouse.rightButton,mouse.clicked_name,Colour2,similarity,mouse_2.x,mouse_2.y,mouse_2.leftButton,mouse_2.midButton,mouse_2.rightButton,mouse_2.clicked_name,mouse_3.x,mouse_3.y,mouse_3.leftButton,mouse_3.midButton,mouse_3.rightButton,mouse_11.x,mouse_11.y,mouse_11.leftButton,mouse_11.midButton,mouse_11.rightButton,trials_2.thisRepN,trials_2.thisTrialN,trials_2.thisN,trials_2.thisIndex,trials_2.ran,Colour1,mouse_3.clicked_name,catchornah,catchsimilarity,catchnumber,catchtrialorder,catchRT,mouse_11.clicked_name
space,0.9625,space,1.3127,space,11.2764,space,6.0181,space,0.6496,space,6.3998,23,PF,-74.984375,-34.921875,1,0,0,response5disk_5,2,10.6564,-3.171875,-6.8359375,1,0,0,rectangle_8,-3.171875,-6.8359375,1,0,0,-3.171875,-6.8359375,1,0,0,0,0,0,2,1,61018830046d35da29ee579c,610377ec8309e0dd6f532a11,2021-07-29_20h56.50.597,Simcolourproject_2stim_asymm_v5,2020.2.10,MacIntel,60,61025ae37ef11b136ea224fe,,,,,,,,,,,,,,,,,,,,,,,,,,,,,,,,,,,,,,,,,,,,,,
,,,,,,,,,,,,4,FF,20.328125,-63.44140625,1,0,0,response3disk_5,4,7.5181,-10.921875,2.76171875,1,0,0,rectangle_8,33.90234375,70.7890625,1,0,0,-7.703125,-4.0625,1,0,0,0,1,1,5,1,61018830046d35da29ee579c,610377ec8309e0dd6f532a11,2021-07-29_20h56.50.597,Simcolourproject_2stim_asymm_v5,2020.2.10,MacIntel,60,61025ae37ef11b136ea224fe,response1disk_7,7,3.6527,7,"[2,5]",rectangle_4,,,,,,,,,,,,,,,,,,,,,,,,,,,,,,,,,,,,,,,,
,,,,,,,,,,,,52,FF,51.37109375,-70.62109375,1,0,0,response3disk_5,4,5.7504,-4.6953125,5.7890625,1,0,0,rectangle_8,-4.6953125,5.7890625,1,0,0,-4.6953125,5.7890625,1,0,0,0,2,2,0,1,61018830046d35da29ee579c,610377ec8309e0dd6f532a11,2021-07-29_20h56.50.597,Simcolourproject_2stim_asymm_v5,2020.2.10,MacIntel,60,61025ae37ef11b136ea224fe,,,,,,,,,,,,,,,,,,,,,,,,,,,,,,,,,,,,,,,,,,,,,,
,,,,,,,,,,,,70,FF,79.28515625,43.7734375,1,0,0,response1disk_5,6,1.7832,-6.89453125,2.2890625,1,0,0,rectangle_8,-6.89453125,2.2890625,1,0,0,-6.89453125,2.2890625,1,0,0,0,3,3,3,1,61018830046d35da29ee579c,610377ec8309e0dd6f532a11,2021-07-29_20h56.50.597,Simcolourproject_2stim_asymm_v5,2020.2.10,MacIntel,60,61025ae37ef11b136ea224fe,,,,,,,,,,,,,,,,,,,,,,,,,,,,,,,,,,,,,,,,,,,,,,
,,,,,,,,,,,,46,PF,42.3125,72.41796875,1,0,0,response1disk_5,7,2.1003,4.41796875,-0.53515625,1,0,0,rectangle_8,44.71875,78.88671875,1,0,0,-0.99609375,3.52734375,1,0,0,0,4,4,4,1,61018830046d35da29ee579c,610377ec8309e0dd6f532a11,2021-07-29_20h56.50.597,Simcolourproject_2stim_asymm_v5,2020.2.10,MacIntel,60,61025ae37ef11b136ea224fe,response1disk_7,7,4.1216,7,"[2,5]",rectangle_4,,,,,,,,,,,,,,,,,,,,,,,,,,,,,,,,,,,,,,,,
,,,,,,,,,,,,12,PF,-32.7578125,-65.67578125,1,0,0,response5disk_5,3,1.6323,5.78515625,3.30859375,1,0,0,rectangle_8,5.78515625,3.30859375,1,0,0,5.78515625,3.30859375,1,0,0,0,5,5,1,1,61018830046d35da29ee579c,610377ec8309e0dd6f532a11,2021-07-29_20h56.50.597,Simcolourproject_2stim_asymm_v5,2020.2.10,MacIntel,60,61025ae37ef11b136ea224fe,,,,,,,,,,,,,,,,,,,,,,,,,,,,,,,,,,,,,,,,,,,,,,
,,,,,,,,,,,,151,PF,-73.71875,-17.0703125,1,0,0,response5disk_5,2,2.4837,-26.27734375,-4.7265625,1,0,0,rectangle_8,-26.27734375,-4.7265625,1,0,0,-26.27734375,-4.7265625,1,0,0,0,6,6,6,1,61018830046d35da29ee579c,610377ec8309e0dd6f532a11,2021-07-29_20h56.50.597,Simcolourproject_2stim_asymm_v5,2020.2.10,MacIntel,60,61025ae37ef11b136ea224fe,,,,,,,,,,,,,,,,,,,,,,,,,,,,,,,,,,,,,,,,,,,,,,
,,,,,,,,,,,,,FF,,,,,,,,2.3663,,,,,,,,,,,,,,,,,,,,,,61018830046d35da29ee579c,610377ec8309e0dd6f532a11,2021-07-29_20h56.50.597,Simcolourproject_2stim_asymm_v5,2020.2.10,MacIntel,60,61025ae37ef11b136ea224fe,,,,,,,space,2.3226,522,32.66015625,-69.08203125,1,0,0,response3disk,,4,-6.1953125,1.26171875,1,0,0,rectangle,-6.1953125,1.26171875,1,0,0,-6.1953125,1.26171875,1,0,0,0,0,0,156,1,,,,,,,,
,,,,,,,,,,,,,FF,,,,,,,,1.0852,,,,,,,,,,,,,,,,,,,,,,61018830046d35da29ee579c,610377ec8309e0dd6f532a11,2021-07-29_20h56.50.597,Simcolourproject_2stim_asymm_v5,2020.2.10,MacIntel,60,61025ae37ef11b136ea224fe,,,,,,,,,3340,-38.265625,-68.30859375,1,0,0,response5disk,,3,-11.93359375,-0.22265625,1,0,0,rectangle,-11.93359375,-0.22265625,1,0,0,-11.93359375,-0.22265625,1,0,0,0,1,1,35,1,,,,,,,,
,,,,,,,,,,,,,FF,,,,,,,,1.9325,,,,,,,,,,,,,,,,,,,,,,61018830046d35da29ee579c,610377ec8309e0dd6f532a11,2021-07-29_20h56.50.597,Simcolourproject_2stim_asymm_v5,2020.2.10,MacIntel,60,61025ae37ef11b136ea224fe,,,,,,,,,2996,56.58203125,-67.87109375,1,0,0,response3disk,,4,11.703125,3.53125,1,0,0,rectangle,11.703125,3.53125,1,0,0,11.703125,3.53125,1,0,0,0,2,2,3,1,,,,,,,,
,,,,,,,,,,,,,FF,,,,,,,,1.1817,,,,,,,,,,,,,,,,,,,,,,61018830046d35da29ee579c,610377ec8309e0dd6f532a11,2021-07-29_20h56.50.597,Simcolourproject_2stim_asymm_v5,2020.2.10,MacIntel,60,61025ae37ef11b136ea224fe,,,,,,,,,1309,64.2421875,-35.4609375,1,0,0,response3disk,,5,15.57421875,-6.18359375,1,0,0,rectangle,15.57421875,-6.18359375,1,0,0,15.57421875,-6.18359375,1,0,0,0,3,3,89,1,,,,,,,,
,,,,,,,,,,,,,FF,,,,,,,,1.3463,,,,,,,,,,,,,,,,,,,,,,61018830046d35da29ee579c,610377ec8309e0dd6f532a11,2021-07-29_20h56.50.597,Simcolourproject_2stim_asymm_v5,2020.2.10,MacIntel,60,61025ae37ef11b136ea224fe,,,,,,,,,1836,57.171875,-21.5703125,1,0,0,response3disk,,5,13.55859375,-3.3203125,1,0,0,rectangle,70.15625,23.19140625,1,0,0,3.390625,-3.28515625,1,0,0,0,4,4,103,1,,response1disk_3,TRUE,6,6,"[278,10,168,290,321,9,209,238,169,128,192,44,74,185,171,268,279,5,76,41]",4.5987,rectangle
,,,,,,,,,,,,,FF,,,,,,,,2.4324,,,,,,,,,,,,,,,,,,,,,,61018830046d35da29ee579c,610377ec8309e0dd6f532a11,2021-07-29_20h56.50.597,Simcolourproject_2stim_asymm_v5,2020.2.10,MacIntel,60,61025ae37ef11b136ea224fe,,,,,,,,,1223,83.33203125,43.9609375,1,0,0,response1disk,,6,-7.375,-9.60546875,1,0,0,rectangle,-7.375,-9.60546875,1,0,0,-7.375,-9.60546875,1,0,0,0,5,5,135,1,,,,,,,,
,,,,,,,,,,,,,FF,,,,,,,,1.7005,,,,,,,,,,,,,,,,,,,,,,61018830046d35da29ee579c,610377ec8309e0dd6f532a11,2021-07-29_20h56.50.597,Simcolourproject_2stim_asymm_v5,2020.2.10,MacIntel,60,61025ae37ef11b136ea224fe,,,,,,,,,3096,-39.11328125,82.30078125,1,0,0,response7disk,,0,-16.5546875,7.76171875,1,0,0,rectangle,-16.5546875,7.76171875,1,0,0,-16.5546875,7.76171875,1,0,0,0,6,6,133,1,,,,,,,,
,,,,,,,,,,,,,FF,,,,,,,,1.5522,,,,,,,,,,,,,,,,,,,,,,61018830046d35da29ee579c,610377ec8309e0dd6f532a11,2021-07-29_20h56.50.597,Simcolourproject_2stim_asymm_v5,2020.2.10,MacIntel,60,61025ae37ef11b136ea224fe,,,,,,,,,4044,81.54296875,54.6015625,1,0,0,response1disk,,6,28.1875,12.82421875,1,0,0,rectangle,28.1875,12.82421875,1,0,0,28.1875,12.82421875,1,0,0,0,7,7,100,1,,,,,,,,
,,,,,,,,,,,,,FF,,,,,,,,1.4163,,,,,,,,,,,,,,,,,,,,,,61018830046d35da29ee579c,610377ec8309e0dd6f532a11,2021-07-29_20h56.50.597,Simcolourproject_2stim_asymm_v5,2020.2.10,MacIntel,60,61025ae37ef11b136ea224fe,,,,,,,,,3428,-78.63671875,-32.04296875,1,0,0,response5disk,,2,-22.6953125,-4.48046875,1,0,0,rectangle,-91.20703125,-66.73828125,1,0,0,16.87109375,1.453125,1,0,0,0,8,8,155,1,,response5disk_3,TRUE,2,2,"[278,10,168,290,321,9,209,238,169,128,192,44,74,185,171,268,279,5,76,41]",4.1163,rectangle
,,,,,,,,,,,,,FF,,,,,,,,1.4994,,,,,,,,,,,,,,,,,,,,,,61018830046d35da29ee579c,610377ec8309e0dd6f532a11,2021-07-29_20h56.50.597,Simcolourproject_2stim_asymm_v5,2020.2.10,MacIntel,60,61025ae37ef11b136ea224fe,,,,,,,,,589,59.1015625,62.4453125,1,0,0,response1disk,,7,14.08984375,5.9375,1,0,0,rectangle,-36.421875,-88.2734375,1,0,0,-5.69140625,13.17578125,1,0,0,0,9,9,71,1,,response5disk_3,TRUE,3,3,"[278,10,168,290,321,9,209,238,169,128,192,44,74,185,171,268,279,5,76,41]",1.9336,rectangle
,,,,,,,,,,,,,FF,,,,,,,,1.2827,,,,,,,,,,,,,,,,,,,,,,61018830046d35da29ee579c,610377ec8309e0dd6f532a11,2021-07-29_20h56.50.597,Simcolourproject_2stim_asymm_v5,2020.2.10,MacIntel,60,61025ae37ef11b136ea224fe,,,,,,,,,2850,73.66796875,25.72265625,1,0,0,response1disk,,6,34.08203125,-3,1,0,0,rectangle,34.08203125,-3,1,0,0,34.08203125,-3,1,0,0,0,10,10,110,1,,,,,,,,
,,,,,,,,,,,,,FF,,,,,,,,1.0326,,,,,,,,,,,,,,,,,,,,,,61018830046d35da29ee579c,610377ec8309e0dd6f532a11,2021-07-29_20h56.50.597,Simcolourproject_2stim_asymm_v5,2020.2.10,MacIntel,60,61025ae37ef11b136ea224fe,,,,,,,,,1730,70.04296875,33.83203125,1,0,0,response1disk,,6,-3.21484375,-2.2890625,1,0,0,rectangle,-3.21484375,-2.2890625,1,0,0,-3.21484375,-2.2890625,1,0,0,0,11,11,40,1,,,,,,,,
,,,,,,,,,,,,,FF,,,,,,,,2.216,,,,,,,,,,,,,,,,,,,,,,61018830046d35da29ee579c,610377ec8309e0dd6f532a11,2021-07-29_20h56.50.597,Simcolourproject_2stim_asymm_v5,2020.2.10,MacIntel,60,61025ae37ef11b136ea224fe,,,,,,,,,2825,29.1640625,-75.04296875,1,0,0,response3disk,,4,-18.94921875,4.296875,1,0,0,rectangle,-18.94921875,4.296875,1,0,0,-18.94921875,4.296875,1,0,0,0,12,12,62,1,,,,,,,,
,,,,,,,,,,,,,FF,,,,,,,,2.7155,,,,,,,,,,,,,,,,,,,,,,61018830046d35da29ee579c,610377ec8309e0dd6f532a11,2021-07-29_20h56.50.597,Simcolourproject_2stim_asymm_v5,2020.2.10,MacIntel,60,61025ae37ef11b136ea224fe,,,,,,,,,4077,54.56640625,-70.6953125,1,0,0,response3disk,,4,8.01171875,-4.71875,1,0,0,rectangle,8.01171875,-4.71875,1,0,0,8.01171875,-4.71875,1,0,0,0,13,13,66,1,,,,,,,,
,,,,,,,,,,,,,FF,,,,,,,,2.7849,,,,,,,,,,,,,,,,,,,,,,61018830046d35da29ee579c,610377ec8309e0dd6f532a11,2021-07-29_20h56.50.597,Simcolourproject_2stim_asymm_v5,2020.2.10,MacIntel,60,61025ae37ef11b136ea224fe,,,,,,,,,1153,23.1875,92.125,1,0,0,response1disk,,7,-17.41015625,3.1875,1,0,0,rectangle,-17.41015625,3.1875,1,0,0,-17.41015625,3.1875,1,0,0,0,14,14,47,1,,,,,,,,
,,,,,,,,,,,,,FF,,,,,,,,2.1665,,,,,,,,,,,,,,,,,,,,,,61018830046d35da29ee579c,610377ec8309e0dd6f532a11,2021-07-29_20h56.50.597,Simcolourproject_2stim_asymm_v5,2020.2.10,MacIntel,60,61025ae37ef11b136ea224fe,,,,,,,,,1724,76.140625,21.99609375,1,0,0,response1disk,,6,18.4921875,6.08984375,1,0,0,rectangle,18.4921875,6.08984375,1,0,0,18.4921875,6.08984375,1,0,0,0,15,15,12,1,,,,,,,,
,,,,,,,,,,,,,FF,,,,,,,,1.6329,,,,,,,,,,,,,,,,,,,,,,61018830046d35da29ee579c,610377ec8309e0dd6f532a11,2021-07-29_20h56.50.597,Simcolourproject_2stim_asymm_v5,2020.2.10,MacIntel,60,61025ae37ef11b136ea224fe,,,,,,,,,4188,-78.6171875,-22.05078125,1,0,0,response5disk,,2,-26.16015625,0.49609375,1,0,0,rectangle,-26.16015625,0.49609375,1,0,0,-26.16015625,0.49609375,1,0,0,0,16,16,130,1,,,,,,,,
,,,,,,,,,,,,,FF,,,,,,,,2.2836,,,,,,,,,,,,,,,,,,,,,,61018830046d35da29ee579c,610377ec8309e0dd6f532a11,2021-07-29_20h56.50.597,Simcolourproject_2stim_asymm_v5,2020.2.10,MacIntel,60,61025ae37ef11b136ea224fe,,,,,,,,,2118,81.94140625,72.35546875,1,0,0,response1disk,,6,20.4296875,11.96875,1,0,0,rectangle,20.4296875,11.96875,1,0,0,20.4296875,11.96875,1,0,0,0,17,17,91,1,,,,,,,,
,,,,,,,,,,,,,FF,,,,,,,,1.1994,,,,,,,,,,,,,,,,,,,,,,61018830046d35da29ee579c,610377ec8309e0dd6f532a11,2021-07-29_20h56.50.597,Simcolourproject_2stim_asymm_v5,2020.2.10,MacIntel,60,61025ae37ef11b136ea224fe,,,,,,,,,3461,20.6953125,-65.7890625,1,0,0,response3disk,,4,-8.80078125,6.546875,1,0,0,rectangle,-8.80078125,6.546875,1,0,0,-8.80078125,6.546875,1,0,0,0,18,18,98,1,,,,,,,,
,,,,,,,,,,,,,FF,,,,,,,,1.7677,,,,,,,,,,,,,,,,,,,,,,61018830046d35da29ee579c,610377ec8309e0dd6f532a11,2021-07-29_20h56.50.597,Simcolourproject_2stim_asymm_v5,2020.2.10,MacIntel,60,61025ae37ef11b136ea224fe,,,,,,,,,879,44.88671875,-73.48828125,1,0,0,response3disk,,4,6.625,1.19921875,1,0,0,rectangle,6.625,1.19921875,1,0,0,6.625,1.19921875,1,0,0,0,19,19,92,1,,,,,,,,
,,,,,,,,,,,,,FF,,,,,,,,1.8276,,,,,,,,,,,,,,,,,,,,,,61018830046d35da29ee579c,610377ec8309e0dd6f532a11,2021-07-29_20h56.50.597,Simcolourproject_2stim_asymm_v5,2020.2.10,MacIntel,60,61025ae37ef11b136ea224fe,,,,,,,,,2204,65.0859375,76.79296875,1,0,0,response1disk,,7,-8.75,-2.65625,1,0,0,rectangle,-8.75,-2.65625,1,0,0,-8.75,-2.65625,1,0,0,0,20,20,39,1,,,,,,,,
,,,,,,,,,,,,,FF,,,,,,,,2.2669,,,,,,,,,,,,,,,,,,,,,,61018830046d35da29ee579c,610377ec8309e0dd6f532a11,2021-07-29_20h56.50.597,Simcolourproject_2stim_asymm_v5,2020.2.10,MacIntel,60,61025ae37ef11b136ea224fe,,,,,,,,,932,50.18359375,63.12890625,1,0,0,response1disk,,7,3.86328125,8.8046875,1,0,0,rectangle,3.86328125,8.8046875,1,0,0,3.86328125,8.8046875,1,0,0,0,21,21,38,1,,,,,,,,
,,,,,,,,,,,,,FF,,,,,,,,1.017,,,,,,,,,,,,,,,,,,,,,,61018830046d35da29ee579c,610377ec8309e0dd6f532a11,2021-07-29_20h56.50.597,Simcolourproject_2stim_asymm_v5,2020.2.10,MacIntel,60,61025ae37ef11b136ea224fe,,,,,,,,,373,-26.9140625,-63.13671875,1,0,0,response5disk,,3,-4.140625,8.26953125,1,0,0,rectangle,-4.140625,8.26953125,1,0,0,-4.140625,8.26953125,1,0,0,0,22,22,105,1,,,,,,,,
,,,,,,,,,,,,,FF,,,,,,,,0.9676,,,,,,,,,,,,,,,,,,,,,,61018830046d35da29ee579c,610377ec8309e0dd6f532a11,2021-07-29_20h56.50.597,Simcolourproject_2stim_asymm_v5,2020.2.10,MacIntel,60,61025ae37ef11b136ea224fe,,,,,,,,,1751,-72.875,-37.24609375,1,0,0,response5disk,,2,-22.890625,-6.20703125,1,0,0,rectangle,-22.890625,-6.20703125,1,0,0,-22.890625,-6.20703125,1,0,0,0,23,23,151,1,,,,,,,,
,,,,,,,,,,,,,FF,,,,,,,,0.866,,,,,,,,,,,,,,,,,,,,,,61018830046d35da29ee579c,610377ec8309e0dd6f532a11,2021-07-29_20h56.50.597,Simcolourproject_2stim_asymm_v5,2020.2.10,MacIntel,60,61025ae37ef11b136ea224fe,,,,,,,,,3764,76.1484375,-41.19140625,1,0,0,response3disk,,5,-15.3984375,14.33203125,1,0,0,rectangle,-15.3984375,14.33203125,1,0,0,-15.3984375,14.33203125,1,0,0,0,24,24,138,1,,,,,,,,
,,,,,,,,,,,,,FF,,,,,,,,1.4677,,,,,,,,,,,,,,,,,,,,,,61018830046d35da29ee579c,610377ec8309e0dd6f532a11,2021-07-29_20h56.50.597,Simcolourproject_2stim_asymm_v5,2020.2.10,MacIntel,60,61025ae37ef11b136ea224fe,,,,,,,,,2179,-30.38671875,-66.44921875,1,0,0,response5disk,,3,6.86328125,-6.29296875,1,0,0,rectangle,6.86328125,-6.29296875,1,0,0,6.86328125,-6.29296875,1,0,0,0,25,25,139,1,,,,,,,,
,,,,,,,,,,,,,FF,,,,,,,,3.7487,,,,,,,,,,,,,,,,,,,,,,61018830046d35da29ee579c,610377ec8309e0dd6f532a11,2021-07-29_20h56.50.597,Simcolourproject_2stim_asymm_v5,2020.2.10,MacIntel,60,61025ae37ef11b136ea224fe,,,,,,,,,2593,70.64453125,-29.53515625,1,0,0,response3disk,,5,2.4609375,4.66015625,1,0,0,rectangle,2.4609375,4.66015625,1,0,0,2.4609375,4.66015625,1,0,0,0,26,26,126,1,,,,,,,,
,,,,,,,,,,,,,FF,,,,,,,,2.1661,,,,,,,,,,,,,,,,,,,,,,61018830046d35da29ee579c,610377ec8309e0dd6f532a11,2021-07-29_20h56.50.597,Simcolourproject_2stim_asymm_v5,2020.2.10,MacIntel,60,61025ae37ef11b136ea224fe,,,,,,,,,854,70.71875,64.37109375,1,0,0,response1disk,,6,-12.05859375,-0.59765625,1,0,0,rectangle,-12.05859375,-0.59765625,1,0,0,-12.05859375,-0.59765625,1,0,0,0,27,27,63,1,,,,,,,,
,,,,,,,,,,,,,FF,,,,,,,,2.183,,,,,,,,,,,,,,,,,,,,,,61018830046d35da29ee579c,610377ec8309e0dd6f532a11,2021-07-29_20h56.50.597,Simcolourproject_2stim_asymm_v5,2020.2.10,MacIntel,60,61025ae37ef11b136ea224fe,,,,,,,,,2924,67.12109375,55.87890625,1,0,0,response1disk,,6,-5.31640625,-3.5078125,1,0,0,rectangle,-5.31640625,-3.5078125,1,0,0,-5.31640625,-3.5078125,1,0,0,0,28,28,34,1,,,,,,,,
,,,,,,,,,,,,,FF,,,,,,,,3.4162,,,,,,,,,,,,,,,,,,,,,,61018830046d35da29ee579c,610377ec8309e0dd6f532a11,2021-07-29_20h56.50.597,Simcolourproject_2stim_asymm_v5,2020.2.10,MacIntel,60,61025ae37ef11b136ea224fe,,,,,,,,,4017,78.1953125,43.96484375,1,0,0,response1disk,,6,-16.24609375,-6.609375,1,0,0,rectangle,-16.24609375,-6.609375,1,0,0,-16.24609375,-6.609375,1,0,0,0,29,29,11,1,,,,,,,,
,,,,,,,,,,,,,FF,,,,,,,,1.3524,,,,,,,,,,,,,,,,,,,,,,61018830046d35da29ee579c,610377ec8309e0dd6f532a11,2021-07-29_20h56.50.597,Simcolourproject_2stim_asymm_v5,2020.2.10,MacIntel,60,61025ae37ef11b136ea224fe,,,,,,,,,1310,79.9453125,-46.078125,1,0,0,response3disk,,5,-11.3671875,6.125,1,0,0,rectangle,-11.3671875,6.125,1,0,0,-11.3671875,6.125,1,0,0,0,30,30,27,1,,,,,,,,
,,,,,,,,,,,,,FF,,,,,,,,1.6835,,,,,,,,,,,,,,,,,,,,,,61018830046d35da29ee579c,610377ec8309e0dd6f532a11,2021-07-29_20h56.50.597,Simcolourproject_2stim_asymm_v5,2020.2.10,MacIntel,60,61025ae37ef11b136ea224fe,,,,,,,,,1402,86.50390625,51.32421875,1,0,0,response1disk,,6,18.06640625,1.9296875,1,0,0,rectangle,18.06640625,1.9296875,1,0,0,18.06640625,1.9296875,1,0,0,0,31,31,99,1,,,,,,,,
,,,,,,,,,,,,,FF,,,,,,,,0.8666,,,,,,,,,,,,,,,,,,,,,,61018830046d35da29ee579c,610377ec8309e0dd6f532a11,2021-07-29_20h56.50.597,Simcolourproject_2stim_asymm_v5,2020.2.10,MacIntel,60,61025ae37ef11b136ea224fe,,,,,,,,,794,81.30859375,40.63671875,1,0,0,response1disk,,6,23.67578125,5.578125,1,0,0,rectangle,23.67578125,5.578125,1,0,0,23.67578125,5.578125,1,0,0,0,32,32,81,1,,,,,,,,
,,,,,,,,,,,,,FF,,,,,,,,0.8822,,,,,,,,,,,,,,,,,,,,,,61018830046d35da29ee579c,610377ec8309e0dd6f532a11,2021-07-29_20h56.50.597,Simcolourproject_2stim_asymm_v5,2020.2.10,MacIntel,60,61025ae37ef11b136ea224fe,,,,,,,,,3940,-94.09765625,-51.0859375,1,0,0,response5disk,,2,-18.6796875,2.27734375,1,0,0,rectangle,-18.6796875,2.27734375,1,0,0,-18.6796875,2.27734375,1,0,0,0,33,33,4,1,,,,,,,,
,,,,,,,,,,,,,FF,,,,,,,,2.0334,,,,,,,,,,,,,,,,,,,,,,61018830046d35da29ee579c,610377ec8309e0dd6f532a11,2021-07-29_20h56.50.597,Simcolourproject_2stim_asymm_v5,2020.2.10,MacIntel,60,61025ae37ef11b136ea224fe,,,,,,,,,3236,-30.72265625,-40.9375,1,0,0,response5disk,,3,-5.34375,-7.72265625,1,0,0,rectangle,-5.34375,-7.72265625,1,0,0,-5.34375,-7.72265625,1,0,0,0,34,34,102,1,,,,,,,,
,,,,,,,,,,,,,FF,,,,,,,,0.7985,,,,,,,,,,,,,,,,,,,,,,61018830046d35da29ee579c,610377ec8309e0dd6f532a11,2021-07-29_20h56.50.597,Simcolourproject_2stim_asymm_v5,2020.2.10,MacIntel,60,61025ae37ef11b136ea224fe,,,,,,,,,693,-76.55078125,-32.1796875,1,0,0,response5disk,,2,-10.71484375,-8.76953125,1,0,0,rectangle,-10.71484375,-8.76953125,1,0,0,-10.71484375,-8.76953125,1,0,0,0,35,35,132,1,,,,,,,,
,,,,,,,,,,,,,FF,,,,,,,,1.8824,,,,,,,,,,,,,,,,,,,,,,61018830046d35da29ee579c,610377ec8309e0dd6f532a11,2021-07-29_20h56.50.597,Simcolourproject_2stim_asymm_v5,2020.2.10,MacIntel,60,61025ae37ef11b136ea224fe,,,,,,,,,341,31.9296875,-63.33203125,1,0,0,response3disk,,4,6.22265625,-3.76171875,1,0,0,rectangle,6.22265625,-3.76171875,1,0,0,6.22265625,-3.76171875,1,0,0,0,36,36,5,1,,,,,,,,
,,,,,,,,,,,,,FF,,,,,,,,2.1827,,,,,,,,,,,,,,,,,,,,,,61018830046d35da29ee579c,610377ec8309e0dd6f532a11,2021-07-29_20h56.50.597,Simcolourproject_2stim_asymm_v5,2020.2.10,MacIntel,60,61025ae37ef11b136ea224fe,,,,,,,,,3162,78.00390625,-48.4921875,1,0,0,response3disk,,5,3.96484375,3.90234375,1,0,0,rectangle,3.96484375,3.90234375,1,0,0,3.96484375,3.90234375,1,0,0,0,37,37,31,1,,,,,,,,
,,,,,,,,,,,,,FF,,,,,,,,1.3988,,,,,,,,,,,,,,,,,,,,,,61018830046d35da29ee579c,610377ec8309e0dd6f532a11,2021-07-29_20h56.50.597,Simcolourproject_2stim_asymm_v5,2020.2.10,MacIntel,60,61025ae37ef11b136ea224fe,,,,,,,,,858,53.703125,19.1953125,1,0,0,response1disk,,6,15.2578125,5.5546875,1,0,0,rectangle,15.2578125,5.5546875,1,0,0,15.2578125,5.5546875,1,0,0,0,38,38,57,1,,,,,,,,
,,,,,,,,,,,,,FF,,,,,,,,1.5195,,,,,,,,,,,,,,,,,,,,,,61018830046d35da29ee579c,610377ec8309e0dd6f532a11,2021-07-29_20h56.50.597,Simcolourproject_2stim_asymm_v5,2020.2.10,MacIntel,60,61025ae37ef11b136ea224fe,,,,,,,,,3304,-29.0859375,-72.13671875,1,0,0,response5disk,,3,-14.48046875,-6.59375,1,0,0,rectangle,-14.48046875,-6.59375,1,0,0,-14.48046875,-6.59375,1,0,0,0,39,39,69,1,,,,,,,,
,,,,,,,,,,,,,FF,,,,,,,,1.1335,,,,,,,,,,,,,,,,,,,,,,61018830046d35da29ee579c,610377ec8309e0dd6f532a11,2021-07-29_20h56.50.597,Simcolourproject_2stim_asymm_v5,2020.2.10,MacIntel,60,61025ae37ef11b136ea224fe,,,,,,,,,3692,65.4375,21.12890625,1,0,0,response1disk,,6,15.296875,-2.828125,1,0,0,rectangle,85.421875,-30.65234375,1,0,0,2.421875,-1.84765625,1,0,0,0,40,40,96,1,,response3disk_3,TRUE,5,5,"[278,10,168,290,321,9,209,238,169,128,192,44,74,185,171,268,279,5,76,41]",3.3849,rectangle
,,,,,,,,,,,,,FF,,,,,,,,4.3006,,,,,,,,,,,,,,,,,,,,,,61018830046d35da29ee579c,610377ec8309e0dd6f532a11,2021-07-29_20h56.50.597,Simcolourproject_2stim_asymm_v5,2020.2.10,MacIntel,60,61025ae37ef11b136ea224fe,,,,,,,,,1343,72.45703125,24.953125,1,0,0,response1disk,,6,-5.2109375,0.35546875,1,0,0,rectangle,-5.2109375,0.35546875,1,0,0,-5.2109375,0.35546875,1,0,0,0,41,41,85,1,,,,,,,,
,,,,,,,,,,,,,FF,,,,,,,,0.7992,,,,,,,,,,,,,,,,,,,,,,61018830046d35da29ee579c,610377ec8309e0dd6f532a11,2021-07-29_20h56.50.597,Simcolourproject_2stim_asymm_v5,2020.2.10,MacIntel,60,61025ae37ef11b136ea224fe,,,,,,,,,245,90.02734375,50.66796875,1,0,0,response1disk,,6,-14.21875,-15.17578125,1,0,0,rectangle,-14.21875,-15.17578125,1,0,0,-14.21875,-15.17578125,1,0,0,0,42,42,84,1,,,,,,,,
,,,,,,,,,,,,,FF,,,,,,,,2.067,,,,,,,,,,,,,,,,,,,,,,61018830046d35da29ee579c,610377ec8309e0dd6f532a11,2021-07-29_20h56.50.597,Simcolourproject_2stim_asymm_v5,2020.2.10,MacIntel,60,61025ae37ef11b136ea224fe,,,,,,,,,2629,25.26171875,-82.57421875,1,0,0,response3disk,,4,-0.9140625,14.18359375,1,0,0,rectangle,-91.9375,38.1875,1,0,0,-17.9296875,13.375,1,0,0,0,43,43,65,1,,response7disk_3,TRUE,1,1,"[278,10,168,290,321,9,209,238,169,128,192,44,74,185,171,268,279,5,76,41]",2.0986,rectangle
,,,,,,,,,,,,,FF,,,,,,,,5.5203,,,,,,,,,,,,,,,,,,,,,,61018830046d35da29ee579c,610377ec8309e0dd6f532a11,2021-07-29_20h56.50.597,Simcolourproject_2stim_asymm_v5,2020.2.10,MacIntel,60,61025ae37ef11b136ea224fe,,,,,,,,,2557,84.63671875,29.69921875,1,0,0,response1disk,,6,30.953125,-10.37109375,1,0,0,rectangle,30.953125,-10.37109375,1,0,0,30.953125,-10.37109375,1,0,0,0,44,44,122,1,,,,,,,,
,,,,,,,,,,,,,FF,,,,,,,,0.9855,,,,,,,,,,,,,,,,,,,,,,61018830046d35da29ee579c,610377ec8309e0dd6f532a11,2021-07-29_20h56.50.597,Simcolourproject_2stim_asymm_v5,2020.2.10,MacIntel,60,61025ae37ef11b136ea224fe,,,,,,,,,302,61.90625,78.0078125,1,0,0,response1disk,,7,2.58984375,0.1015625,1,0,0,rectangle,2.58984375,0.1015625,1,0,0,2.58984375,0.1015625,1,0,0,0,45,45,50,1,,,,,,,,
,,,,,,,,,,,,,FF,,,,,,,,0.9501,,,,,,,,,,,,,,,,,,,,,,61018830046d35da29ee579c,610377ec8309e0dd6f532a11,2021-07-29_20h56.50.597,Simcolourproject_2stim_asymm_v5,2020.2.10,MacIntel,60,61025ae37ef11b136ea224fe,,,,,,,,,1710,58.140625,84.09765625,1,0,0,response1disk,,7,-15.12890625,9.34375,1,0,0,rectangle,-15.12890625,9.34375,1,0,0,-15.12890625,9.34375,1,0,0,0,46,46,93,1,,,,,,,,
,,,,,,,,,,,,,FF,,,,,,,,0.9831,,,,,,,,,,,,,,,,,,,,,,61018830046d35da29ee579c,610377ec8309e0dd6f532a11,2021-07-29_20h56.50.597,Simcolourproject_2stim_asymm_v5,2020.2.10,MacIntel,60,61025ae37ef11b136ea224fe,,,,,,,,,3370,67.73828125,81.10546875,1,0,0,response1disk,,7,-7.37109375,-9.453125,1,0,0,rectangle,-7.37109375,-9.453125,1,0,0,-7.37109375,-9.453125,1,0,0,0,47,47,148,1,,,,,,,,
,,,,,,,,,,,,,FF,,,,,,,,1.1173,,,,,,,,,,,,,,,,,,,,,,61018830046d35da29ee579c,610377ec8309e0dd6f532a11,2021-07-29_20h56.50.597,Simcolourproject_2stim_asymm_v5,2020.2.10,MacIntel,60,61025ae37ef11b136ea224fe,,,,,,,,,4326,-48.26953125,68.625,1,0,0,response7disk,,0,-25.07421875,10.41015625,1,0,0,rectangle,-25.07421875,10.41015625,1,0,0,-25.07421875,10.41015625,1,0,0,0,48,48,142,1,,,,,,,,
,,,,,,,,,,,,,FF,,,,,,,,1.3834,,,,,,,,,,,,,,,,,,,,,,61018830046d35da29ee579c,610377ec8309e0dd6f532a11,2021-07-29_20h56.50.597,Simcolourproject_2stim_asymm_v5,2020.2.10,MacIntel,60,61025ae37ef11b136ea224fe,,,,,,,,,1108,84.125,-39.54296875,1,0,0,response3disk,,5,17.22265625,-11.13671875,1,0,0,rectangle,17.22265625,-11.13671875,1,0,0,17.22265625,-11.13671875,1,0,0,0,49,49,77,1,,,,,,,,
,,,,,,,,,,,,,FF,,,,,,,,2.018,,,,,,,,,,,,,,,,,,,,,,61018830046d35da29ee579c,610377ec8309e0dd6f532a11,2021-07-29_20h56.50.597,Simcolourproject_2stim_asymm_v5,2020.2.10,MacIntel,60,61025ae37ef11b136ea224fe,,,,,,,,,3229,72.640625,58.12109375,1,0,0,response1disk,,6,-2.8515625,7.5859375,1,0,0,rectangle,-2.8515625,7.5859375,1,0,0,-2.8515625,7.5859375,1,0,0,0,50,50,8,1,,,,,,,,
,,,,,,,,,,,,,FF,,,,,,,,1.6155,,,,,,,,,,,,,,,,,,,,,,61018830046d35da29ee579c,610377ec8309e0dd6f532a11,2021-07-29_20h56.50.597,Simcolourproject_2stim_asymm_v5,2020.2.10,MacIntel,60,61025ae37ef11b136ea224fe,,,,,,,,,1029,30.85546875,-79.38671875,1,0,0,response3disk,,4,-19.54296875,8.9609375,1,0,0,rectangle,-19.54296875,8.9609375,1,0,0,-19.54296875,8.9609375,1,0,0,0,51,51,46,1,,,,,,,,
,,,,,,,,,,,,,FF,,,,,,,,1.201,,,,,,,,,,,,,,,,,,,,,,61018830046d35da29ee579c,610377ec8309e0dd6f532a11,2021-07-29_20h56.50.597,Simcolourproject_2stim_asymm_v5,2020.2.10,MacIntel,60,61025ae37ef11b136ea224fe,,,,,,,,,1811,-39.44140625,-95.72265625,1,0,0,response5disk,,3,-7.6875,-5.39453125,1,0,0,rectangle,-7.6875,-5.39453125,1,0,0,-7.6875,-5.39453125,1,0,0,0,52,52,149,1,,,,,,,,
,,,,,,,,,,,,,FF,,,,,,,,1.1673,,,,,,,,,,,,,,,,,,,,,,61018830046d35da29ee579c,610377ec8309e0dd6f532a11,2021-07-29_20h56.50.597,Simcolourproject_2stim_asymm_v5,2020.2.10,MacIntel,60,61025ae37ef11b136ea224fe,,,,,,,,,2881,76.16015625,49.80078125,1,0,0,response1disk,,6,18.57421875,-2.51953125,1,0,0,rectangle,18.57421875,-2.51953125,1,0,0,18.57421875,-2.51953125,1,0,0,0,53,53,120,1,,,,,,,,
,,,,,,,,,,,,,FF,,,,,,,,0.9827,,,,,,,,,,,,,,,,,,,,,,61018830046d35da29ee579c,610377ec8309e0dd6f532a11,2021-07-29_20h56.50.597,Simcolourproject_2stim_asymm_v5,2020.2.10,MacIntel,60,61025ae37ef11b136ea224fe,,,,,,,,,3599,-79.96484375,-41.18359375,1,0,0,response5disk,,2,-12.84765625,-6.71875,1,0,0,rectangle,-12.84765625,-6.71875,1,0,0,-12.84765625,-6.71875,1,0,0,0,54,54,41,1,,,,,,,,
,,,,,,,,,,,,,FF,,,,,,,,0.7837,,,,,,,,,,,,,,,,,,,,,,61018830046d35da29ee579c,610377ec8309e0dd6f532a11,2021-07-29_20h56.50.597,Simcolourproject_2stim_asymm_v5,2020.2.10,MacIntel,60,61025ae37ef11b136ea224fe,,,,,,,,,1252,78.578125,44.171875,1,0,0,response1disk,,6,26.8671875,9.76953125,1,0,0,rectangle,26.8671875,9.76953125,1,0,0,26.8671875,9.76953125,1,0,0,0,55,55,6,1,,,,,,,,
,,,,,,,,,,,,,FF,,,,,,,,1.4008,,,,,,,,,,,,,,,,,,,,,,61018830046d35da29ee579c,610377ec8309e0dd6f532a11,2021-07-29_20h56.50.597,Simcolourproject_2stim_asymm_v5,2020.2.10,MacIntel,60,61025ae37ef11b136ea224fe,,,,,,,,,1136,-70.1484375,45.26171875,1,0,0,response7disk,,1,-10.359375,-16.71875,1,0,0,rectangle,-10.359375,-16.71875,1,0,0,-10.359375,-16.71875,1,0,0,0,56,56,1,1,,,,,,,,
,,,,,,,,,,,,,FF,,,,,,,,0.8498,,,,,,,,,,,,,,,,,,,,,,61018830046d35da29ee579c,610377ec8309e0dd6f532a11,2021-07-29_20h56.50.597,Simcolourproject_2stim_asymm_v5,2020.2.10,MacIntel,60,61025ae37ef11b136ea224fe,,,,,,,,,2733,-17.80859375,-58.078125,1,0,0,response5disk,,3,7.4296875,-7.4140625,1,0,0,rectangle,7.4296875,-7.4140625,1,0,0,7.4296875,-7.4140625,1,0,0,0,57,57,26,1,,,,,,,,
,,,,,,,,,,,,,FF,,,,,,,,1.3001,,,,,,,,,,,,,,,,,,,,,,61018830046d35da29ee579c,610377ec8309e0dd6f532a11,2021-07-29_20h56.50.597,Simcolourproject_2stim_asymm_v5,2020.2.10,MacIntel,60,61025ae37ef11b136ea224fe,,,,,,,,,1178,74.40625,42.8046875,1,0,0,response1disk,,6,-2.57421875,-11.87890625,1,0,0,rectangle,-2.57421875,-11.87890625,1,0,0,-2.57421875,-11.87890625,1,0,0,0,58,58,18,1,,,,,,,,
,,,,,,,,,,,,,FF,,,,,,,,2.5846,,,,,,,,,,,,,,,,,,,,,,61018830046d35da29ee579c,610377ec8309e0dd6f532a11,2021-07-29_20h56.50.597,Simcolourproject_2stim_asymm_v5,2020.2.10,MacIntel,60,61025ae37ef11b136ea224fe,,,,,,,,,2977,74.859375,53.4375,1,0,0,response1disk,,6,8.15625,4.41015625,1,0,0,rectangle,8.15625,4.41015625,1,0,0,8.15625,4.41015625,1,0,0,0,59,59,22,1,,,,,,,,
,,,,,,,,,,,,,FF,,,,,,,,0.7825,,,,,,,,,,,,,,,,,,,,,,61018830046d35da29ee579c,610377ec8309e0dd6f532a11,2021-07-29_20h56.50.597,Simcolourproject_2stim_asymm_v5,2020.2.10,MacIntel,60,61025ae37ef11b136ea224fe,,,,,,,,,566,30.33203125,67.94140625,1,0,0,response1disk,,7,1.921875,4.8984375,1,0,0,rectangle,1.921875,4.8984375,1,0,0,1.921875,4.8984375,1,0,0,0,60,60,10,1,,,,,,,,
,,,,,,,,,,,,,FF,,,,,,,,5.1652,,,,,,,,,,,,,,,,,,,,,,61018830046d35da29ee579c,610377ec8309e0dd6f532a11,2021-07-29_20h56.50.597,Simcolourproject_2stim_asymm_v5,2020.2.10,MacIntel,60,61025ae37ef11b136ea224fe,,,,,,,,,273,42.16015625,80.296875,1,0,0,response1disk,,7,-1.3984375,-6.8984375,1,0,0,rectangle,-1.3984375,-6.8984375,1,0,0,-1.3984375,-6.8984375,1,0,0,0,61,61,159,1,,,,,,,,
,,,,,,,,,,,,,FF,,,,,,,,0.8012,,,,,,,,,,,,,,,,,,,,,,61018830046d35da29ee579c,610377ec8309e0dd6f532a11,2021-07-29_20h56.50.597,Simcolourproject_2stim_asymm_v5,2020.2.10,MacIntel,60,61025ae37ef11b136ea224fe,,,,,,,,,3276,97.96875,40.20703125,1,0,0,response1disk,,6,8.75,-5.71875,1,0,0,rectangle,8.75,-5.71875,1,0,0,8.75,-5.71875,1,0,0,0,62,62,119,1,,,,,,,,
,,,,,,,,,,,,,FF,,,,,,,,12.2814,,,,,,,,,,,,,,,,,,,,,,61018830046d35da29ee579c,610377ec8309e0dd6f532a11,2021-07-29_20h56.50.597,Simcolourproject_2stim_asymm_v5,2020.2.10,MacIntel,60,61025ae37ef11b136ea224fe,,,,,,,,,2648,78.796875,37.44140625,1,0,0,response1disk,,6,18.84765625,-4.44140625,1,0,0,rectangle,18.84765625,-4.44140625,1,0,0,18.84765625,-4.44140625,1,0,0,0,63,63,67,1,,,,,,,,
,,,,,,,,,,,,,FF,,,,,,,,1.1162,,,,,,,,,,,,,,,,,,,,,,61018830046d35da29ee579c,610377ec8309e0dd6f532a11,2021-07-29_20h56.50.597,Simcolourproject_2stim_asymm_v5,2020.2.10,MacIntel,60,61025ae37ef11b136ea224fe,,,,,,,,,235,80.91015625,42.3671875,1,0,0,response1disk,,6,-6.56640625,-11.1875,1,0,0,rectangle,-6.56640625,-11.1875,1,0,0,-6.56640625,-11.1875,1,0,0,0,64,64,88,1,,,,,,,,
,,,,,,,,,,,,,FF,,,,,,,,1.4836,,,,,,,,,,,,,,,,,,,,,,61018830046d35da29ee579c,610377ec8309e0dd6f532a11,2021-07-29_20h56.50.597,Simcolourproject_2stim_asymm_v5,2020.2.10,MacIntel,60,61025ae37ef11b136ea224fe,,,,,,,,,3466,27.15625,49.515625,1,0,0,response1disk,,7,-2.1171875,3.578125,1,0,0,rectangle,-2.1171875,3.578125,1,0,0,-2.1171875,3.578125,1,0,0,0,65,65,56,1,,,,,,,,
,,,,,,,,,,,,,FF,,,,,,,,2.5832,,,,,,,,,,,,,,,,,,,,,,61018830046d35da29ee579c,610377ec8309e0dd6f532a11,2021-07-29_20h56.50.597,Simcolourproject_2stim_asymm_v5,2020.2.10,MacIntel,60,61025ae37ef11b136ea224fe,,,,,,,,,393,74.8828125,-45.78125,1,0,0,response3disk,,5,8.71484375,-0.92578125,1,0,0,rectangle,8.71484375,-0.92578125,1,0,0,8.71484375,-0.92578125,1,0,0,0,66,66,72,1,,,,,,,,
,,,,,,,,,,,,,FF,,,,,,,,1.25,,,,,,,,,,,,,,,,,,,,,,61018830046d35da29ee579c,610377ec8309e0dd6f532a11,2021-07-29_20h56.50.597,Simcolourproject_2stim_asymm_v5,2020.2.10,MacIntel,60,61025ae37ef11b136ea224fe,,,,,,,,,1917,23.94921875,-81.60546875,1,0,0,response3disk,,4,-5.34375,-2.32421875,1,0,0,rectangle,-5.34375,-2.32421875,1,0,0,-5.34375,-2.32421875,1,0,0,0,67,67,7,1,,,,,,,,
,,,,,,,,,,,,,FF,,,,,,,,1.2671,,,,,,,,,,,,,,,,,,,,,,61018830046d35da29ee579c,610377ec8309e0dd6f532a11,2021-07-29_20h56.50.597,Simcolourproject_2stim_asymm_v5,2020.2.10,MacIntel,60,61025ae37ef11b136ea224fe,,,,,,,,,3436,-66.51171875,-33.8046875,1,0,0,response5disk,,2,16.78515625,-11.29296875,1,0,0,rectangle,16.78515625,-11.29296875,1,0,0,16.78515625,-11.29296875,1,0,0,0,68,68,117,1,,,,,,,,
,,,,,,,,,,,,,FF,,,,,,,,0.8008,,,,,,,,,,,,,,,,,,,,,,61018830046d35da29ee579c,610377ec8309e0dd6f532a11,2021-07-29_20h56.50.597,Simcolourproject_2stim_asymm_v5,2020.2.10,MacIntel,60,61025ae37ef11b136ea224fe,,,,,,,,,1775,13.1484375,-49.265625,1,0,0,response3disk,,4,5.359375,2.87890625,1,0,0,rectangle,5.359375,2.87890625,1,0,0,5.359375,2.87890625,1,0,0,0,69,69,116,1,,,,,,,,
,,,,,,,,,,,,,FF,,,,,,,,1.8167,,,,,,,,,,,,,,,,,,,,,,61018830046d35da29ee579c,610377ec8309e0dd6f532a11,2021-07-29_20h56.50.597,Simcolourproject_2stim_asymm_v5,2020.2.10,MacIntel,60,61025ae37ef11b136ea224fe,,,,,,,,,2471,83.875,-45.6953125,1,0,0,response3disk,,5,27.16796875,-0.48828125,1,0,0,rectangle,27.16796875,-0.48828125,1,0,0,27.16796875,-0.48828125,1,0,0,0,70,70,33,1,,,,,,,,
,,,,,,,,,,,,,FF,,,,,,,,0.9996,,,,,,,,,,,,,,,,,,,,,,61018830046d35da29ee579c,610377ec8309e0dd6f532a11,2021-07-29_20h56.50.597,Simcolourproject_2stim_asymm_v5,2020.2.10,MacIntel,60,61025ae37ef11b136ea224fe,,,,,,,,,3695,49.49609375,79.15625,1,0,0,response1disk,,7,16.32421875,-0.63671875,1,0,0,rectangle,16.32421875,-0.63671875,1,0,0,16.32421875,-0.63671875,1,0,0,0,71,71,29,1,,,,,,,,
,,,,,,,,,,,,,FF,,,,,,,,0.9017,,,,,,,,,,,,,,,,,,,,,,61018830046d35da29ee579c,610377ec8309e0dd6f532a11,2021-07-29_20h56.50.597,Simcolourproject_2stim_asymm_v5,2020.2.10,MacIntel,60,61025ae37ef11b136ea224fe,,,,,,,,,3851,-52.8671875,-30.98046875,1,0,0,response5disk,,2,-4.8671875,-11.53125,1,0,0,rectangle,-4.8671875,-11.53125,1,0,0,-4.8671875,-11.53125,1,0,0,0,72,72,125,1,,,,,,,,
,,,,,,,,,,,,,FF,,,,,,,,0.9176,,,,,,,,,,,,,,,,,,,,,,61018830046d35da29ee579c,610377ec8309e0dd6f532a11,2021-07-29_20h56.50.597,Simcolourproject_2stim_asymm_v5,2020.2.10,MacIntel,60,61025ae37ef11b136ea224fe,,,,,,,,,2430,19.0703125,-58.20703125,1,0,0,response3disk,,4,3.8671875,0.94921875,1,0,0,rectangle,-43.890625,82.234375,1,0,0,-2.41796875,7.9296875,1,0,0,0,73,73,79,1,,response7disk_3,TRUE,0,0,"[278,10,168,290,321,9,209,238,169,128,192,44,74,185,171,268,279,5,76,41]",2.7179,rectangle
,,,,,,,,,,,,,FF,,,,,,,,1.7321,,,,,,,,,,,,,,,,,,,,,,61018830046d35da29ee579c,610377ec8309e0dd6f532a11,2021-07-29_20h56.50.597,Simcolourproject_2stim_asymm_v5,2020.2.10,MacIntel,60,61025ae37ef11b136ea224fe,,,,,,,,,2080,66.265625,33.87109375,1,0,0,response1disk,,6,23.94921875,2.7109375,1,0,0,rectangle,23.94921875,2.7109375,1,0,0,23.94921875,2.7109375,1,0,0,0,74,74,24,1,,,,,,,,
,,,,,,,,,,,,,FF,,,,,,,,1.7168,,,,,,,,,,,,,,,,,,,,,,61018830046d35da29ee579c,610377ec8309e0dd6f532a11,2021-07-29_20h56.50.597,Simcolourproject_2stim_asymm_v5,2020.2.10,MacIntel,60,61025ae37ef11b136ea224fe,,,,,,,,,3467,55.8671875,-37.68359375,1,0,0,response3disk,,5,11.3359375,-7.4609375,1,0,0,rectangle,29.3125,-78.03515625,1,0,0,-1.96484375,3.9296875,1,0,0,0,75,75,13,1,,response3disk_3,TRUE,4,4,"[278,10,168,290,321,9,209,238,169,128,192,44,74,185,171,268,279,5,76,41]",2.5513,rectangle
,,,,,,,,,,,,,FF,,,,,,,,1.2331,,,,,,,,,,,,,,,,,,,,,,61018830046d35da29ee579c,610377ec8309e0dd6f532a11,2021-07-29_20h56.50.597,Simcolourproject_2stim_asymm_v5,2020.2.10,MacIntel,60,61025ae37ef11b136ea224fe,,,,,,,,,2902,-33.71484375,-74.36328125,1,0,0,response5disk,,3,3.19140625,-8.03125,1,0,0,rectangle,3.19140625,-8.03125,1,0,0,3.19140625,-8.03125,1,0,0,0,76,76,140,1,,,,,,,,
,,,,,,,,,,,,,FF,,,,,,,,1.2342,,,,,,,,,,,,,,,,,,,,,,61018830046d35da29ee579c,610377ec8309e0dd6f532a11,2021-07-29_20h56.50.597,Simcolourproject_2stim_asymm_v5,2020.2.10,MacIntel,60,61025ae37ef11b136ea224fe,,,,,,,,,3588,-49.203125,-19.7734375,1,0,0,response5disk,,2,-24.99609375,-4.359375,1,0,0,rectangle,-24.99609375,-4.359375,1,0,0,-24.99609375,-4.359375,1,0,0,0,77,77,131,1,,,,,,,,
,,,,,,,,,,,,,FF,,,,,,,,1.9688,,,,,,,,,,,,,,,,,,,,,,61018830046d35da29ee579c,610377ec8309e0dd6f532a11,2021-07-29_20h56.50.597,Simcolourproject_2stim_asymm_v5,2020.2.10,MacIntel,60,61025ae37ef11b136ea224fe,,,,,,,,,3345,74.40625,35.05859375,1,0,0,response1disk,,6,15.90625,6.25390625,1,0,0,rectangle,15.90625,6.25390625,1,0,0,15.90625,6.25390625,1,0,0,0,78,78,15,1,,,,,,,,
,,,,,,,,,,,,,FF,,,,,,,,0.6655,,,,,,,,,,,,,,,,,,,,,,61018830046d35da29ee579c,610377ec8309e0dd6f532a11,2021-07-29_20h56.50.597,Simcolourproject_2stim_asymm_v5,2020.2.10,MacIntel,60,61025ae37ef11b136ea224fe,,,,,,,,,4271,41.640625,70.74609375,1,0,0,response1disk,,7,5.046875,8.28125,1,0,0,rectangle,5.046875,8.28125,1,0,0,5.046875,8.28125,1,0,0,0,79,79,49,1,,,,,,,,
,,,,,,,,,,,,,FF,,,,,,,,0.982,,,,,,,,,,,,,,,,,,,,,,61018830046d35da29ee579c,610377ec8309e0dd6f532a11,2021-07-29_20h56.50.597,Simcolourproject_2stim_asymm_v5,2020.2.10,MacIntel,60,61025ae37ef11b136ea224fe,,,,,,,,,264,-101.5351563,39.32421875,1,0,0,response7disk,,1,-18.87890625,-5.6796875,1,0,0,rectangle,-18.87890625,-5.6796875,1,0,0,-18.87890625,-5.6796875,1,0,0,0,80,80,137,1,,,,,,,,
,,,,,,,,,,,,,FF,,,,,,,,2.0503,,,,,,,,,,,,,,,,,,,,,,61018830046d35da29ee579c,610377ec8309e0dd6f532a11,2021-07-29_20h56.50.597,Simcolourproject_2stim_asymm_v5,2020.2.10,MacIntel,60,61025ae37ef11b136ea224fe,,,,,,,,,222,91.3828125,-64.25390625,1,0,0,response3disk,,5,-17.1484375,-1.06640625,1,0,0,rectangle,-17.1484375,-1.06640625,1,0,0,-17.1484375,-1.06640625,1,0,0,0,81,81,23,1,,,,,,,,
,,,,,,,,,,,,,FF,,,,,,,,1.8857,,,,,,,,,,,,,,,,,,,,,,61018830046d35da29ee579c,610377ec8309e0dd6f532a11,2021-07-29_20h56.50.597,Simcolourproject_2stim_asymm_v5,2020.2.10,MacIntel,60,61025ae37ef11b136ea224fe,,,,,,,,,2332,47.4921875,18.58984375,1,0,0,response1disk,,6,21.92578125,7.36328125,1,0,0,rectangle,21.92578125,7.36328125,1,0,0,21.92578125,7.36328125,1,0,0,0,82,82,74,1,,,,,,,,
,,,,,,,,,,,,,FF,,,,,,,,0.8835,,,,,,,,,,,,,,,,,,,,,,61018830046d35da29ee579c,610377ec8309e0dd6f532a11,2021-07-29_20h56.50.597,Simcolourproject_2stim_asymm_v5,2020.2.10,MacIntel,60,61025ae37ef11b136ea224fe,,,,,,,,,3116,29.2265625,-46.60546875,1,0,0,response3disk,,4,16.359375,-9.5234375,1,0,0,rectangle,16.359375,-9.5234375,1,0,0,16.359375,-9.5234375,1,0,0,0,83,83,20,1,,,,,,,,
,,,,,,,,,,,,,FF,,,,,,,,0.801,,,,,,,,,,,,,,,,,,,,,,61018830046d35da29ee579c,610377ec8309e0dd6f532a11,2021-07-29_20h56.50.597,Simcolourproject_2stim_asymm_v5,2020.2.10,MacIntel,60,61025ae37ef11b136ea224fe,,,,,,,,,3578,47.70703125,63.7265625,1,0,0,response1disk,,7,6.32421875,-3.25390625,1,0,0,rectangle,6.32421875,-3.25390625,1,0,0,6.32421875,-3.25390625,1,0,0,0,84,84,114,1,,,,,,,,
,,,,,,,,,,,,,FF,,,,,,,,0.9833,,,,,,,,,,,,,,,,,,,,,,61018830046d35da29ee579c,610377ec8309e0dd6f532a11,2021-07-29_20h56.50.597,Simcolourproject_2stim_asymm_v5,2020.2.10,MacIntel,60,61025ae37ef11b136ea224fe,,,,,,,,,1358,-24.6796875,-57.8515625,1,0,0,response5disk,,3,-17.7578125,-6.78515625,1,0,0,rectangle,-17.7578125,-6.78515625,1,0,0,-17.7578125,-6.78515625,1,0,0,0,85,85,147,1,,,,,,,,
,,,,,,,,,,,,,FF,,,,,,,,1.816,,,,,,,,,,,,,,,,,,,,,,61018830046d35da29ee579c,610377ec8309e0dd6f532a11,2021-07-29_20h56.50.597,Simcolourproject_2stim_asymm_v5,2020.2.10,MacIntel,60,61025ae37ef11b136ea224fe,,,,,,,,,1005,-18.71875,-63.07421875,1,0,0,response5disk,,3,-11.6796875,3.3203125,1,0,0,rectangle,-11.6796875,3.3203125,1,0,0,-11.6796875,3.3203125,1,0,0,0,86,86,145,1,,,,,,,,
,,,,,,,,,,,,,FF,,,,,,,,1.5502,,,,,,,,,,,,,,,,,,,,,,61018830046d35da29ee579c,610377ec8309e0dd6f532a11,2021-07-29_20h56.50.597,Simcolourproject_2stim_asymm_v5,2020.2.10,MacIntel,60,61025ae37ef11b136ea224fe,,,,,,,,,4218,-62.40234375,81.29296875,1,0,0,response7disk,,0,-4.5859375,4.6640625,1,0,0,rectangle,-4.5859375,4.6640625,1,0,0,-4.5859375,4.6640625,1,0,0,0,87,87,153,1,,,,,,,,
,,,,,,,,,,,,,FF,,,,,,,,0.634,,,,,,,,,,,,,,,,,,,,,,61018830046d35da29ee579c,610377ec8309e0dd6f532a11,2021-07-29_20h56.50.597,Simcolourproject_2stim_asymm_v5,2020.2.10,MacIntel,60,61025ae37ef11b136ea224fe,,,,,,,,,3630,-33.0859375,53.328125,1,0,0,response7disk,,0,-24.04296875,15.08203125,1,0,0,rectangle,-24.04296875,15.08203125,1,0,0,-24.04296875,15.08203125,1,0,0,0,88,88,94,1,,,,,,,,
,,,,,,,,,,,,,FF,,,,,,,,1.6326,,,,,,,,,,,,,,,,,,,,,,61018830046d35da29ee579c,610377ec8309e0dd6f532a11,2021-07-29_20h56.50.597,Simcolourproject_2stim_asymm_v5,2020.2.10,MacIntel,60,61025ae37ef11b136ea224fe,,,,,,,,,1242,76.53515625,-47.37109375,1,0,0,response3disk,,5,21.58984375,-5.87890625,1,0,0,rectangle,21.58984375,-5.87890625,1,0,0,21.58984375,-5.87890625,1,0,0,0,89,89,14,1,,,,,,,,
,,,,,,,,,,,,,FF,,,,,,,,1.0998,,,,,,,,,,,,,,,,,,,,,,61018830046d35da29ee579c,610377ec8309e0dd6f532a11,2021-07-29_20h56.50.597,Simcolourproject_2stim_asymm_v5,2020.2.10,MacIntel,60,61025ae37ef11b136ea224fe,,,,,,,,,2772,-24.89453125,-63.37890625,1,0,0,response5disk,,3,-20.90625,-11.23046875,1,0,0,rectangle,-20.90625,-11.23046875,1,0,0,-20.90625,-11.23046875,1,0,0,0,90,90,48,1,,,,,,,,
,,,,,,,,,,,,,FF,,,,,,,,1.0986,,,,,,,,,,,,,,,,,,,,,,61018830046d35da29ee579c,610377ec8309e0dd6f532a11,2021-07-29_20h56.50.597,Simcolourproject_2stim_asymm_v5,2020.2.10,MacIntel,60,61025ae37ef11b136ea224fe,,,,,,,,,69,40.6875,53.3359375,1,0,0,response1disk,,7,13.53515625,10.42578125,1,0,0,rectangle,13.53515625,10.42578125,1,0,0,13.53515625,10.42578125,1,0,0,0,91,91,106,1,,,,,,,,
,,,,,,,,,,,,,FF,,,,,,,,1.0193,,,,,,,,,,,,,,,,,,,,,,61018830046d35da29ee579c,610377ec8309e0dd6f532a11,2021-07-29_20h56.50.597,Simcolourproject_2stim_asymm_v5,2020.2.10,MacIntel,60,61025ae37ef11b136ea224fe,,,,,,,,,3317,51.06640625,69.74609375,1,0,0,response1disk,,7,10.9375,-4.9453125,1,0,0,rectangle,10.9375,-4.9453125,1,0,0,10.9375,-4.9453125,1,0,0,0,92,92,64,1,,,,,,,,
,,,,,,,,,,,,,FF,,,,,,,,1.0507,,,,,,,,,,,,,,,,,,,,,,61018830046d35da29ee579c,610377ec8309e0dd6f532a11,2021-07-29_20h56.50.597,Simcolourproject_2stim_asymm_v5,2020.2.10,MacIntel,60,61025ae37ef11b136ea224fe,,,,,,,,,4107,-28.015625,-64.87109375,1,0,0,response5disk,,3,3.87890625,-0.41015625,1,0,0,rectangle,3.87890625,-0.41015625,1,0,0,3.87890625,-0.41015625,1,0,0,0,93,93,109,1,,,,,,,,
,,,,,,,,,,,,,FF,,,,,,,,2.0868,,,,,,,,,,,,,,,,,,,,,,61018830046d35da29ee579c,610377ec8309e0dd6f532a11,2021-07-29_20h56.50.597,Simcolourproject_2stim_asymm_v5,2020.2.10,MacIntel,60,61025ae37ef11b136ea224fe,,,,,,,,,991,56.4453125,24.0078125,1,0,0,response1disk,,6,23.66015625,-1.5859375,1,0,0,rectangle,23.66015625,-1.5859375,1,0,0,23.66015625,-1.5859375,1,0,0,0,94,94,154,1,,,,,,,,
,,,,,,,,,,,,,FF,,,,,,,,2.8335,,,,,,,,,,,,,,,,,,,,,,61018830046d35da29ee579c,610377ec8309e0dd6f532a11,2021-07-29_20h56.50.597,Simcolourproject_2stim_asymm_v5,2020.2.10,MacIntel,60,61025ae37ef11b136ea224fe,,,,,,,,,844,48.67578125,82.50390625,1,0,0,response1disk,,7,-3.84765625,0.3671875,1,0,0,rectangle,-3.84765625,0.3671875,1,0,0,-3.84765625,0.3671875,1,0,0,0,95,95,53,1,,,,,,,,
,,,,,,,,,,,,,FF,,,,,,,,1.0118,,,,,,,,,,,,,,,,,,,,,,61018830046d35da29ee579c,610377ec8309e0dd6f532a11,2021-07-29_20h56.50.597,Simcolourproject_2stim_asymm_v5,2020.2.10,MacIntel,60,61025ae37ef11b136ea224fe,,,,,,,,,3632,80.7578125,-41.97265625,1,0,0,response3disk,,5,-12.67578125,-2.85546875,1,0,0,rectangle,-12.67578125,-2.85546875,1,0,0,-12.67578125,-2.85546875,1,0,0,0,96,96,86,1,,,,,,,,
,,,,,,,,,,,,,FF,,,,,,,,1.0176,,,,,,,,,,,,,,,,,,,,,,61018830046d35da29ee579c,610377ec8309e0dd6f532a11,2021-07-29_20h56.50.597,Simcolourproject_2stim_asymm_v5,2020.2.10,MacIntel,60,61025ae37ef11b136ea224fe,,,,,,,,,121,43.3515625,-74.6015625,1,0,0,response3disk,,4,13.7421875,15.01171875,1,0,0,rectangle,13.7421875,15.01171875,1,0,0,13.7421875,15.01171875,1,0,0,0,97,97,68,1,,,,,,,,
,,,,,,,,,,,,,FF,,,,,,,,1.5349,,,,,,,,,,,,,,,,,,,,,,61018830046d35da29ee579c,610377ec8309e0dd6f532a11,2021-07-29_20h56.50.597,Simcolourproject_2stim_asymm_v5,2020.2.10,MacIntel,60,61025ae37ef11b136ea224fe,,,,,,,,,2688,68.0703125,-19.87890625,1,0,0,response3disk,,5,25.73828125,-1.359375,1,0,0,rectangle,25.73828125,-1.359375,1,0,0,25.73828125,-1.359375,1,0,0,0,98,98,111,1,,,,,,,,
,,,,,,,,,,,,,FF,,,,,,,,0.8171,,,,,,,,,,,,,,,,,,,,,,61018830046d35da29ee579c,610377ec8309e0dd6f532a11,2021-07-29_20h56.50.597,Simcolourproject_2stim_asymm_v5,2020.2.10,MacIntel,60,61025ae37ef11b136ea224fe,,,,,,,,,369,-77.57421875,-29.3125,1,0,0,response5disk,,2,-34.125,-15.50390625,1,0,0,rectangle,-34.125,-15.50390625,1,0,0,-34.125,-15.50390625,1,0,0,0,99,99,112,1,,,,,,,,
,,,,,,,,,,,,,FF,,,,,,,,1.2166,,,,,,,,,,,,,,,,,,,,,,61018830046d35da29ee579c,610377ec8309e0dd6f532a11,2021-07-29_20h56.50.597,Simcolourproject_2stim_asymm_v5,2020.2.10,MacIntel,60,61025ae37ef11b136ea224fe,,,,,,,,,2353,-45.95703125,-27.28125,1,0,0,response5disk,,2,-18.390625,-2.4453125,1,0,0,rectangle,-18.390625,-2.4453125,1,0,0,-18.390625,-2.4453125,1,0,0,0,100,100,54,1,,,,,,,,
,,,,,,,,,,,,,FF,,,,,,,,1.2037,,,,,,,,,,,,,,,,,,,,,,61018830046d35da29ee579c,610377ec8309e0dd6f532a11,2021-07-29_20h56.50.597,Simcolourproject_2stim_asymm_v5,2020.2.10,MacIntel,60,61025ae37ef11b136ea224fe,,,,,,,,,710,44.24609375,-72.234375,1,0,0,response3disk,,4,11.9296875,-7.12109375,1,0,0,rectangle,11.9296875,-7.12109375,1,0,0,11.9296875,-7.12109375,1,0,0,0,101,101,152,1,,,,,,,,
,,,,,,,,,,,,,FF,,,,,,,,1.4013,,,,,,,,,,,,,,,,,,,,,,61018830046d35da29ee579c,610377ec8309e0dd6f532a11,2021-07-29_20h56.50.597,Simcolourproject_2stim_asymm_v5,2020.2.10,MacIntel,60,61025ae37ef11b136ea224fe,,,,,,,,,3638,66.77734375,36.27734375,1,0,0,response1disk,,6,11.0078125,-0.5,1,0,0,rectangle,11.0078125,-0.5,1,0,0,11.0078125,-0.5,1,0,0,0,102,102,80,1,,,,,,,,
,,,,,,,,,,,,,FF,,,,,,,,1.4835,,,,,,,,,,,,,,,,,,,,,,61018830046d35da29ee579c,610377ec8309e0dd6f532a11,2021-07-29_20h56.50.597,Simcolourproject_2stim_asymm_v5,2020.2.10,MacIntel,60,61025ae37ef11b136ea224fe,,,,,,,,,1799,68.94140625,30.45703125,1,0,0,response1disk,,6,23.72265625,0.515625,1,0,0,rectangle,23.72265625,0.515625,1,0,0,23.72265625,0.515625,1,0,0,0,103,103,101,1,,,,,,,,
,,,,,,,,,,,,,FF,,,,,,,,1.0829,,,,,,,,,,,,,,,,,,,,,,61018830046d35da29ee579c,610377ec8309e0dd6f532a11,2021-07-29_20h56.50.597,Simcolourproject_2stim_asymm_v5,2020.2.10,MacIntel,60,61025ae37ef11b136ea224fe,,,,,,,,,1367,37.62109375,68.00390625,1,0,0,response1disk,,7,8.7265625,12.6640625,1,0,0,rectangle,8.7265625,12.6640625,1,0,0,8.7265625,12.6640625,1,0,0,0,104,104,60,1,,,,,,,,
,,,,,,,,,,,,,FF,,,,,,,,0.9984,,,,,,,,,,,,,,,,,,,,,,61018830046d35da29ee579c,610377ec8309e0dd6f532a11,2021-07-29_20h56.50.597,Simcolourproject_2stim_asymm_v5,2020.2.10,MacIntel,60,61025ae37ef11b136ea224fe,,,,,,,,,3101,-22.81640625,-24.37890625,1,0,0,response5disk,,3,-7.4921875,0.39453125,1,0,0,rectangle,-7.4921875,0.39453125,1,0,0,-7.4921875,0.39453125,1,0,0,0,105,105,118,1,,,,,,,,
,,,,,,,,,,,,,FF,,,,,,,,1.1165,,,,,,,,,,,,,,,,,,,,,,61018830046d35da29ee579c,610377ec8309e0dd6f532a11,2021-07-29_20h56.50.597,Simcolourproject_2stim_asymm_v5,2020.2.10,MacIntel,60,61025ae37ef11b136ea224fe,,,,,,,,,770,38.42578125,-54.50390625,1,0,0,response3disk,,4,22.671875,-12.91015625,1,0,0,rectangle,22.671875,-12.91015625,1,0,0,22.671875,-12.91015625,1,0,0,0,106,106,44,1,,,,,,,,
,,,,,,,,,,,,,FF,,,,,,,,0.8494,,,,,,,,,,,,,,,,,,,,,,61018830046d35da29ee579c,610377ec8309e0dd6f532a11,2021-07-29_20h56.50.597,Simcolourproject_2stim_asymm_v5,2020.2.10,MacIntel,60,61025ae37ef11b136ea224fe,,,,,,,,,2482,-55.20703125,30.69921875,1,0,0,response7disk,,1,-6.546875,-12.62890625,1,0,0,rectangle,-6.546875,-12.62890625,1,0,0,-6.546875,-12.62890625,1,0,0,0,107,107,9,1,,,,,,,,
,,,,,,,,,,,,,FF,,,,,,,,0.9494,,,,,,,,,,,,,,,,,,,,,,61018830046d35da29ee579c,610377ec8309e0dd6f532a11,2021-07-29_20h56.50.597,Simcolourproject_2stim_asymm_v5,2020.2.10,MacIntel,60,61025ae37ef11b136ea224fe,,,,,,,,,4269,24.69140625,-77.3984375,1,0,0,response3disk,,4,4.7578125,-6.1796875,1,0,0,rectangle,4.7578125,-6.1796875,1,0,0,4.7578125,-6.1796875,1,0,0,0,108,108,52,1,,,,,,,,
,,,,,,,,,,,,,FF,,,,,,,,0.8671,,,,,,,,,,,,,,,,,,,,,,61018830046d35da29ee579c,610377ec8309e0dd6f532a11,2021-07-29_20h56.50.597,Simcolourproject_2stim_asymm_v5,2020.2.10,MacIntel,60,61025ae37ef11b136ea224fe,,,,,,,,,4255,-37.12890625,-22.72265625,1,0,0,response5disk,,2,-7.08984375,-3.3125,1,0,0,rectangle,-7.08984375,-3.3125,1,0,0,-7.08984375,-3.3125,1,0,0,0,109,109,146,1,,,,,,,,
,,,,,,,,,,,,,FF,,,,,,,,0.9996,,,,,,,,,,,,,,,,,,,,,,61018830046d35da29ee579c,610377ec8309e0dd6f532a11,2021-07-29_20h56.50.597,Simcolourproject_2stim_asymm_v5,2020.2.10,MacIntel,60,61025ae37ef11b136ea224fe,,,,,,,,,524,-26.16015625,-57.140625,1,0,0,response5disk,,3,-3.52734375,1.31640625,1,0,0,rectangle,-3.52734375,1.31640625,1,0,0,-3.52734375,1.31640625,1,0,0,0,110,110,97,1,,,,,,,,
,,,,,,,,,,,,,FF,,,,,,,,1.0493,,,,,,,,,,,,,,,,,,,,,,61018830046d35da29ee579c,610377ec8309e0dd6f532a11,2021-07-29_20h56.50.597,Simcolourproject_2stim_asymm_v5,2020.2.10,MacIntel,60,61025ae37ef11b136ea224fe,,,,,,,,,4053,88.63671875,-53.17578125,1,0,0,response3disk,,5,15.65234375,-4.62109375,1,0,0,rectangle,15.65234375,-4.62109375,1,0,0,15.65234375,-4.62109375,1,0,0,0,111,111,115,1,,,,,,,,
,,,,,,,,,,,,,FF,,,,,,,,0.834,,,,,,,,,,,,,,,,,,,,,,61018830046d35da29ee579c,610377ec8309e0dd6f532a11,2021-07-29_20h56.50.597,Simcolourproject_2stim_asymm_v5,2020.2.10,MacIntel,60,61025ae37ef11b136ea224fe,,,,,,,,,1480,79.1875,37.640625,1,0,0,response1disk,,6,10.41015625,0.00390625,1,0,0,rectangle,10.41015625,0.00390625,1,0,0,10.41015625,0.00390625,1,0,0,0,112,112,129,1,,,,,,,,
,,,,,,,,,,,,,FF,,,,,,,,0.6493,,,,,,,,,,,,,,,,,,,,,,61018830046d35da29ee579c,610377ec8309e0dd6f532a11,2021-07-29_20h56.50.597,Simcolourproject_2stim_asymm_v5,2020.2.10,MacIntel,60,61025ae37ef11b136ea224fe,,,,,,,,,4011,33.05859375,74.0390625,1,0,0,response1disk,,7,7.95703125,6.7734375,1,0,0,rectangle,7.95703125,6.7734375,1,0,0,7.95703125,6.7734375,1,0,0,0,113,113,58,1,,,,,,,,
,,,,,,,,,,,,,FF,,,,,,,,0.7331,,,,,,,,,,,,,,,,,,,,,,61018830046d35da29ee579c,610377ec8309e0dd6f532a11,2021-07-29_20h56.50.597,Simcolourproject_2stim_asymm_v5,2020.2.10,MacIntel,60,61025ae37ef11b136ea224fe,,,,,,,,,4253,-45.7890625,23.25390625,1,0,0,response7disk,,1,-2.52734375,-1.58203125,1,0,0,rectangle,-2.52734375,-1.58203125,1,0,0,-2.52734375,-1.58203125,1,0,0,0,114,114,73,1,,,,,,,,
,,,,,,,,,,,,,FF,,,,,,,,0.7508,,,,,,,,,,,,,,,,,,,,,,61018830046d35da29ee579c,610377ec8309e0dd6f532a11,2021-07-29_20h56.50.597,Simcolourproject_2stim_asymm_v5,2020.2.10,MacIntel,60,61025ae37ef11b136ea224fe,,,,,,,,,2786,-18.90234375,-63.0078125,1,0,0,response5disk,,3,-3.63671875,-12.20703125,1,0,0,rectangle,-3.63671875,-12.20703125,1,0,0,-3.63671875,-12.20703125,1,0,0,0,115,115,104,1,,,,,,,,
,,,,,,,,,,,,,FF,,,,,,,,1.1666,,,,,,,,,,,,,,,,,,,,,,61018830046d35da29ee579c,610377ec8309e0dd6f532a11,2021-07-29_20h56.50.597,Simcolourproject_2stim_asymm_v5,2020.2.10,MacIntel,60,61025ae37ef11b136ea224fe,,,,,,,,,644,-41.734375,-59.9765625,1,0,0,response5disk,,3,-2.29296875,-6.76171875,1,0,0,rectangle,-2.29296875,-6.76171875,1,0,0,-2.29296875,-6.76171875,1,0,0,0,116,116,108,1,,,,,,,,
,,,,,,,,,,,,,FF,,,,,,,,0.7674,,,,,,,,,,,,,,,,,,,,,,61018830046d35da29ee579c,610377ec8309e0dd6f532a11,2021-07-29_20h56.50.597,Simcolourproject_2stim_asymm_v5,2020.2.10,MacIntel,60,61025ae37ef11b136ea224fe,,,,,,,,,1348,68.78125,36.65234375,1,0,0,response1disk,,6,-2.05078125,1.80078125,1,0,0,rectangle,-2.05078125,1.80078125,1,0,0,-2.05078125,1.80078125,1,0,0,0,117,117,127,1,,,,,,,,
,,,,,,,,,,,,,FF,,,,,,,,0.7674,,,,,,,,,,,,,,,,,,,,,,61018830046d35da29ee579c,610377ec8309e0dd6f532a11,2021-07-29_20h56.50.597,Simcolourproject_2stim_asymm_v5,2020.2.10,MacIntel,60,61025ae37ef11b136ea224fe,,,,,,,,,3475,-75.01953125,29.47265625,1,0,0,response7disk,,1,-16.453125,4.66796875,1,0,0,rectangle,-16.453125,4.66796875,1,0,0,-16.453125,4.66796875,1,0,0,0,118,118,128,1,,,,,,,,
,,,,,,,,,,,,,FF,,,,,,,,0.7666,,,,,,,,,,,,,,,,,,,,,,61018830046d35da29ee579c,610377ec8309e0dd6f532a11,2021-07-29_20h56.50.597,Simcolourproject_2stim_asymm_v5,2020.2.10,MacIntel,60,61025ae37ef11b136ea224fe,,,,,,,,,980,-26.7578125,-73.5234375,1,0,0,response5disk,,3,-8.30859375,-9.2109375,1,0,0,rectangle,-8.30859375,-9.2109375,1,0,0,-8.30859375,-9.2109375,1,0,0,0,119,119,17,1,,,,,,,,
,,,,,,,,,,,,,FF,,,,,,,,0.7002,,,,,,,,,,,,,,,,,,,,,,61018830046d35da29ee579c,610377ec8309e0dd6f532a11,2021-07-29_20h56.50.597,Simcolourproject_2stim_asymm_v5,2020.2.10,MacIntel,60,61025ae37ef11b136ea224fe,,,,,,,,,757,100.2734375,-29.2578125,1,0,0,response3disk,,5,26.56640625,2.40625,1,0,0,rectangle,26.56640625,2.40625,1,0,0,26.56640625,2.40625,1,0,0,0,120,120,45,1,,,,,,,,
,,,,,,,,,,,,,FF,,,,,,,,0.7675,,,,,,,,,,,,,,,,,,,,,,61018830046d35da29ee579c,610377ec8309e0dd6f532a11,2021-07-29_20h56.50.597,Simcolourproject_2stim_asymm_v5,2020.2.10,MacIntel,60,61025ae37ef11b136ea224fe,,,,,,,,,1507,81.18359375,44.9609375,1,0,0,response1disk,,6,23.4765625,8.21484375,1,0,0,rectangle,23.4765625,8.21484375,1,0,0,23.4765625,8.21484375,1,0,0,0,121,121,87,1,,,,,,,,
,,,,,,,,,,,,,FF,,,,,,,,1.0498,,,,,,,,,,,,,,,,,,,,,,61018830046d35da29ee579c,610377ec8309e0dd6f532a11,2021-07-29_20h56.50.597,Simcolourproject_2stim_asymm_v5,2020.2.10,MacIntel,60,61025ae37ef11b136ea224fe,,,,,,,,,1581,72.61328125,-29.77734375,1,0,0,response3disk,,5,-8.234375,9.55078125,1,0,0,rectangle,-8.234375,9.55078125,1,0,0,-8.234375,9.55078125,1,0,0,0,122,122,78,1,,,,,,,,
,,,,,,,,,,,,,FF,,,,,,,,0.6655,,,,,,,,,,,,,,,,,,,,,,61018830046d35da29ee579c,610377ec8309e0dd6f532a11,2021-07-29_20h56.50.597,Simcolourproject_2stim_asymm_v5,2020.2.10,MacIntel,60,61025ae37ef11b136ea224fe,,,,,,,,,1404,43.3671875,79.3671875,1,0,0,response1disk,,7,-0.87109375,-2.14453125,1,0,0,rectangle,-0.87109375,-2.14453125,1,0,0,-0.87109375,-2.14453125,1,0,0,0,123,123,121,1,,,,,,,,
,,,,,,,,,,,,,FF,,,,,,,,0.8696,,,,,,,,,,,,,,,,,,,,,,61018830046d35da29ee579c,610377ec8309e0dd6f532a11,2021-07-29_20h56.50.597,Simcolourproject_2stim_asymm_v5,2020.2.10,MacIntel,60,61025ae37ef11b136ea224fe,,,,,,,,,429,-25.125,-68.1640625,1,0,0,response5disk,,3,-14.671875,-5.72265625,1,0,0,rectangle,-14.671875,-5.72265625,1,0,0,-14.671875,-5.72265625,1,0,0,0,124,124,134,1,,,,,,,,
,,,,,,,,,,,,,FF,,,,,,,,1.1818,,,,,,,,,,,,,,,,,,,,,,61018830046d35da29ee579c,610377ec8309e0dd6f532a11,2021-07-29_20h56.50.597,Simcolourproject_2stim_asymm_v5,2020.2.10,MacIntel,60,61025ae37ef11b136ea224fe,,,,,,,,,2559,65.62109375,-63.421875,1,0,0,response3disk,,5,0.921875,-8.62890625,1,0,0,rectangle,0.921875,-8.62890625,1,0,0,0.921875,-8.62890625,1,0,0,0,125,125,61,1,,,,,,,,
,,,,,,,,,,,,,FF,,,,,,,,1.5846,,,,,,,,,,,,,,,,,,,,,,61018830046d35da29ee579c,610377ec8309e0dd6f532a11,2021-07-29_20h56.50.597,Simcolourproject_2stim_asymm_v5,2020.2.10,MacIntel,60,61025ae37ef11b136ea224fe,,,,,,,,,3050,-29.640625,-73.12109375,1,0,0,response5disk,,3,-21.5390625,-4.43359375,1,0,0,rectangle,-21.5390625,-4.43359375,1,0,0,-21.5390625,-4.43359375,1,0,0,0,126,126,59,1,,,,,,,,
,,,,,,,,,,,,,FF,,,,,,,,1.4185,,,,,,,,,,,,,,,,,,,,,,61018830046d35da29ee579c,610377ec8309e0dd6f532a11,2021-07-29_20h56.50.597,Simcolourproject_2stim_asymm_v5,2020.2.10,MacIntel,60,61025ae37ef11b136ea224fe,,,,,,,,,1388,81.7421875,-32.75390625,1,0,0,response3disk,,5,-0.5625,-4.73828125,1,0,0,rectangle,72.52734375,-39.55078125,1,0,0,0.65234375,-2.76171875,1,0,0,0,127,127,70,1,,response3disk_3,TRUE,5,5,"[278,10,168,290,321,9,209,238,169,128,192,44,74,185,171,268,279,5,76,41]",2.234,rectangle
,,,,,,,,,,,,,FF,,,,,,,,2.0319,,,,,,,,,,,,,,,,,,,,,,61018830046d35da29ee579c,610377ec8309e0dd6f532a11,2021-07-29_20h56.50.597,Simcolourproject_2stim_asymm_v5,2020.2.10,MacIntel,60,61025ae37ef11b136ea224fe,,,,,,,,,1229,38.43359375,-74.1171875,1,0,0,response3disk,,4,3.8046875,1.4921875,1,0,0,rectangle,3.8046875,1.4921875,1,0,0,3.8046875,1.4921875,1,0,0,0,128,128,55,1,,,,,,,,
,,,,,,,,,,,,,FF,,,,,,,,1.8171,,,,,,,,,,,,,,,,,,,,,,61018830046d35da29ee579c,610377ec8309e0dd6f532a11,2021-07-29_20h56.50.597,Simcolourproject_2stim_asymm_v5,2020.2.10,MacIntel,60,61025ae37ef11b136ea224fe,,,,,,,,,89,-56.1171875,-71.31640625,1,0,0,response5disk,,3,-5.69140625,3.3671875,1,0,0,rectangle,-5.69140625,3.3671875,1,0,0,-5.69140625,3.3671875,1,0,0,0,129,129,90,1,,,,,,,,
,,,,,,,,,,,,,FF,,,,,,,,2.0326,,,,,,,,,,,,,,,,,,,,,,61018830046d35da29ee579c,610377ec8309e0dd6f532a11,2021-07-29_20h56.50.597,Simcolourproject_2stim_asymm_v5,2020.2.10,MacIntel,60,61025ae37ef11b136ea224fe,,,,,,,,,1594,79.0390625,54.05078125,1,0,0,response1disk,,6,0.3203125,-13.078125,1,0,0,rectangle,0.3203125,-13.078125,1,0,0,0.3203125,-13.078125,1,0,0,0,130,130,144,1,,,,,,,,
,,,,,,,,,,,,,FF,,,,,,,,1.0005,,,,,,,,,,,,,,,,,,,,,,61018830046d35da29ee579c,610377ec8309e0dd6f532a11,2021-07-29_20h56.50.597,Simcolourproject_2stim_asymm_v5,2020.2.10,MacIntel,60,61025ae37ef11b136ea224fe,,,,,,,,,1925,70.421875,-38.44140625,1,0,0,response3disk,,5,-9.91015625,-11.2734375,1,0,0,rectangle,-9.91015625,-11.2734375,1,0,0,-9.91015625,-11.2734375,1,0,0,0,131,131,42,1,,,,,,,,
,,,,,,,,,,,,,FF,,,,,,,,0.7042,,,,,,,,,,,,,,,,,,,,,,61018830046d35da29ee579c,610377ec8309e0dd6f532a11,2021-07-29_20h56.50.597,Simcolourproject_2stim_asymm_v5,2020.2.10,MacIntel,60,61025ae37ef11b136ea224fe,,,,,,,,,3540,34.72265625,70.359375,1,0,0,response1disk,,7,-5.83203125,0.3828125,1,0,0,rectangle,-5.83203125,0.3828125,1,0,0,-5.83203125,0.3828125,1,0,0,0,132,132,51,1,,,,,,,,
,,,,,,,,,,,,,FF,,,,,,,,2.2832,,,,,,,,,,,,,,,,,,,,,,61018830046d35da29ee579c,610377ec8309e0dd6f532a11,2021-07-29_20h56.50.597,Simcolourproject_2stim_asymm_v5,2020.2.10,MacIntel,60,61025ae37ef11b136ea224fe,,,,,,,,,669,32.61328125,94.953125,1,0,0,response1disk,,7,-15.546875,-15.7421875,1,0,0,rectangle,-15.546875,-15.7421875,1,0,0,-15.546875,-15.7421875,1,0,0,0,133,133,30,1,,,,,,,,
,,,,,,,,,,,,,FF,,,,,,,,0.7025,,,,,,,,,,,,,,,,,,,,,,61018830046d35da29ee579c,610377ec8309e0dd6f532a11,2021-07-29_20h56.50.597,Simcolourproject_2stim_asymm_v5,2020.2.10,MacIntel,60,61025ae37ef11b136ea224fe,,,,,,,,,3462,52.90234375,82.97265625,1,0,0,response1disk,,7,-5.046875,-9.984375,1,0,0,rectangle,-5.046875,-9.984375,1,0,0,-5.046875,-9.984375,1,0,0,0,134,134,136,1,,,,,,,,
,,,,,,,,,,,,,FF,,,,,,,,0.8318,,,,,,,,,,,,,,,,,,,,,,61018830046d35da29ee579c,610377ec8309e0dd6f532a11,2021-07-29_20h56.50.597,Simcolourproject_2stim_asymm_v5,2020.2.10,MacIntel,60,61025ae37ef11b136ea224fe,,,,,,,,,2099,-86.01953125,51.41015625,1,0,0,response7disk,,1,-2.5,-3.5234375,1,0,0,rectangle,-2.5,-3.5234375,1,0,0,-2.5,-3.5234375,1,0,0,0,135,135,25,1,,,,,,,,
,,,,,,,,,,,,,FF,,,,,,,,1.0831,,,,,,,,,,,,,,,,,,,,,,61018830046d35da29ee579c,610377ec8309e0dd6f532a11,2021-07-29_20h56.50.597,Simcolourproject_2stim_asymm_v5,2020.2.10,MacIntel,60,61025ae37ef11b136ea224fe,,,,,,,,,3892,62.0859375,70.1640625,1,0,0,response1disk,,7,26.40234375,6.08203125,1,0,0,rectangle,26.40234375,6.08203125,1,0,0,26.40234375,6.08203125,1,0,0,0,136,136,19,1,,,,,,,,
,,,,,,,,,,,,,FF,,,,,,,,0.6846,,,,,,,,,,,,,,,,,,,,,,61018830046d35da29ee579c,610377ec8309e0dd6f532a11,2021-07-29_20h56.50.597,Simcolourproject_2stim_asymm_v5,2020.2.10,MacIntel,60,61025ae37ef11b136ea224fe,,,,,,,,,4222,-30.89453125,23.48046875,1,0,0,response7disk,,1,1.5234375,-8.703125,1,0,0,rectangle,1.5234375,-8.703125,1,0,0,1.5234375,-8.703125,1,0,0,0,137,137,113,1,,,,,,,,
,,,,,,,,,,,,,FF,,,,,,,,0.9163,,,,,,,,,,,,,,,,,,,,,,61018830046d35da29ee579c,610377ec8309e0dd6f532a11,2021-07-29_20h56.50.597,Simcolourproject_2stim_asymm_v5,2020.2.10,MacIntel,60,61025ae37ef11b136ea224fe,,,,,,,,,1874,61.828125,39.328125,1,0,0,response1disk,,6,17.3828125,2.16796875,1,0,0,rectangle,17.3828125,2.16796875,1,0,0,17.3828125,2.16796875,1,0,0,0,138,138,75,1,,,,,,,,
,,,,,,,,,,,,,FF,,,,,,,,1.1164,,,,,,,,,,,,,,,,,,,,,,61018830046d35da29ee579c,610377ec8309e0dd6f532a11,2021-07-29_20h56.50.597,Simcolourproject_2stim_asymm_v5,2020.2.10,MacIntel,60,61025ae37ef11b136ea224fe,,,,,,,,,2738,50.76953125,74.296875,1,0,0,response1disk,,7,3.1640625,-2.39453125,1,0,0,rectangle,3.1640625,-2.39453125,1,0,0,3.1640625,-2.39453125,1,0,0,0,139,139,107,1,,,,,,,,
,,,,,,,,,,,,,FF,,,,,,,,0.8157,,,,,,,,,,,,,,,,,,,,,,61018830046d35da29ee579c,610377ec8309e0dd6f532a11,2021-07-29_20h56.50.597,Simcolourproject_2stim_asymm_v5,2020.2.10,MacIntel,60,61025ae37ef11b136ea224fe,,,,,,,,,843,84.44140625,48.63671875,1,0,0,response1disk,,6,4.7578125,2.171875,1,0,0,rectangle,4.7578125,2.171875,1,0,0,4.7578125,2.171875,1,0,0,0,140,140,36,1,,,,,,,,
,,,,,,,,,,,,,FF,,,,,,,,0.6849,,,,,,,,,,,,,,,,,,,,,,61018830046d35da29ee579c,610377ec8309e0dd6f532a11,2021-07-29_20h56.50.597,Simcolourproject_2stim_asymm_v5,2020.2.10,MacIntel,60,61025ae37ef11b136ea224fe,,,,,,,,,3637,-40.71875,37.66796875,1,0,0,response7disk,,1,0.16015625,9.671875,1,0,0,rectangle,0.16015625,9.671875,1,0,0,0.16015625,9.671875,1,0,0,0,141,141,2,1,,,,,,,,
,,,,,,,,,,,,,FF,,,,,,,,1.005,,,,,,,,,,,,,,,,,,,,,,61018830046d35da29ee579c,610377ec8309e0dd6f532a11,2021-07-29_20h56.50.597,Simcolourproject_2stim_asymm_v5,2020.2.10,MacIntel,60,61025ae37ef11b136ea224fe,,,,,,,,,1519,61.4609375,65.93359375,1,0,0,response1disk,,7,29.2578125,-7.28515625,1,0,0,rectangle,29.2578125,-7.28515625,1,0,0,29.2578125,-7.28515625,1,0,0,0,142,142,158,1,,,,,,,,
,,,,,,,,,,,,,FF,,,,,,,,1.165,,,,,,,,,,,,,,,,,,,,,,61018830046d35da29ee579c,610377ec8309e0dd6f532a11,2021-07-29_20h56.50.597,Simcolourproject_2stim_asymm_v5,2020.2.10,MacIntel,60,61025ae37ef11b136ea224fe,,,,,,,,,790,30.4609375,-65.18359375,1,0,0,response3disk,,4,12.09375,-6.73828125,1,0,0,rectangle,12.09375,-6.73828125,1,0,0,12.09375,-6.73828125,1,0,0,0,143,143,43,1,,,,,,,,
,,,,,,,,,,,,,FF,,,,,,,,1.0503,,,,,,,,,,,,,,,,,,,,,,61018830046d35da29ee579c,610377ec8309e0dd6f532a11,2021-07-29_20h56.50.597,Simcolourproject_2stim_asymm_v5,2020.2.10,MacIntel,60,61025ae37ef11b136ea224fe,,,,,,,,,4230,88.8671875,46.5390625,1,0,0,response1disk,,6,20.91015625,-8.6796875,1,0,0,rectangle,20.91015625,-8.6796875,1,0,0,20.91015625,-8.6796875,1,0,0,0,144,144,0,1,,,,,,,,
,,,,,,,,,,,,,FF,,,,,,,,1.0496,,,,,,,,,,,,,,,,,,,,,,61018830046d35da29ee579c,610377ec8309e0dd6f532a11,2021-07-29_20h56.50.597,Simcolourproject_2stim_asymm_v5,2020.2.10,MacIntel,60,61025ae37ef11b136ea224fe,,,,,,,,,3272,83.69140625,86.58984375,1,0,0,response1disk,,7,22.44140625,1.23046875,1,0,0,rectangle,22.44140625,1.23046875,1,0,0,22.44140625,1.23046875,1,0,0,0,145,145,28,1,,,,,,,,
,,,,,,,,,,,,,FF,,,,,,,,1.2681,,,,,,,,,,,,,,,,,,,,,,61018830046d35da29ee579c,610377ec8309e0dd6f532a11,2021-07-29_20h56.50.597,Simcolourproject_2stim_asymm_v5,2020.2.10,MacIntel,60,61025ae37ef11b136ea224fe,,,,,,,,,3307,68.44921875,-33.3125,1,0,0,response3disk,,5,4.1640625,5.84765625,1,0,0,rectangle,4.1640625,5.84765625,1,0,0,4.1640625,5.84765625,1,0,0,0,146,146,95,1,,,,,,,,
,,,,,,,,,,,,,FF,,,,,,,,1.1846,,,,,,,,,,,,,,,,,,,,,,61018830046d35da29ee579c,610377ec8309e0dd6f532a11,2021-07-29_20h56.50.597,Simcolourproject_2stim_asymm_v5,2020.2.10,MacIntel,60,61025ae37ef11b136ea224fe,,,,,,,,,3082,71.5703125,30.390625,1,0,0,response1disk,,6,24.04296875,-2.3515625,1,0,0,rectangle,24.04296875,-2.3515625,1,0,0,24.04296875,-2.3515625,1,0,0,0,147,147,37,1,,,,,,,,
,,,,,,,,,,,,,FF,,,,,,,,0.9063,,,,,,,,,,,,,,,,,,,,,,61018830046d35da29ee579c,610377ec8309e0dd6f532a11,2021-07-29_20h56.50.597,Simcolourproject_2stim_asymm_v5,2020.2.10,MacIntel,60,61025ae37ef11b136ea224fe,,,,,,,,,510,44.95703125,69.42578125,1,0,0,response1disk,,7,8.53515625,3.69140625,1,0,0,rectangle,8.53515625,3.69140625,1,0,0,8.53515625,3.69140625,1,0,0,0,148,148,76,1,,,,,,,,
,,,,,,,,,,,,,FF,,,,,,,,2.183,,,,,,,,,,,,,,,,,,,,,,61018830046d35da29ee579c,610377ec8309e0dd6f532a11,2021-07-29_20h56.50.597,Simcolourproject_2stim_asymm_v5,2020.2.10,MacIntel,60,61025ae37ef11b136ea224fe,,,,,,,,,3167,84.1875,73.57421875,1,0,0,response1disk,,6,17.40234375,12.359375,1,0,0,rectangle,17.40234375,12.359375,1,0,0,17.40234375,12.359375,1,0,0,0,149,149,83,1,,,,,,,,
,,,,,,,,,,,,,FF,,,,,,,,0.8319,,,,,,,,,,,,,,,,,,,,,,61018830046d35da29ee579c,610377ec8309e0dd6f532a11,2021-07-29_20h56.50.597,Simcolourproject_2stim_asymm_v5,2020.2.10,MacIntel,60,61025ae37ef11b136ea224fe,,,,,,,,,2628,40.16796875,64.6484375,1,0,0,response1disk,,7,-5.03125,-4.0703125,1,0,0,rectangle,-5.03125,-4.0703125,1,0,0,-5.03125,-4.0703125,1,0,0,0,150,150,82,1,,,,,,,,
,,,,,,,,,,,,,FF,,,,,,,,1.2832,,,,,,,,,,,,,,,,,,,,,,61018830046d35da29ee579c,610377ec8309e0dd6f532a11,2021-07-29_20h56.50.597,Simcolourproject_2stim_asymm_v5,2020.2.10,MacIntel,60,61025ae37ef11b136ea224fe,,,,,,,,,1962,-71.96484375,-23.7578125,1,0,0,response5disk,,2,-15.92578125,3.94140625,1,0,0,rectangle,-15.92578125,3.94140625,1,0,0,-15.92578125,3.94140625,1,0,0,0,151,151,141,1,,,,,,,,
,,,,,,,,,,,,,FF,,,,,,,,0.8014,,,,,,,,,,,,,,,,,,,,,,61018830046d35da29ee579c,610377ec8309e0dd6f532a11,2021-07-29_20h56.50.597,Simcolourproject_2stim_asymm_v5,2020.2.10,MacIntel,60,61025ae37ef11b136ea224fe,,,,,,,,,4086,52.1171875,89.5234375,1,0,0,response1disk,,7,20.0234375,10.3359375,1,0,0,rectangle,20.0234375,10.3359375,1,0,0,20.0234375,10.3359375,1,0,0,0,152,152,124,1,,,,,,,,
,,,,,,,,,,,,,FF,,,,,,,,1.6338,,,,,,,,,,,,,,,,,,,,,,61018830046d35da29ee579c,610377ec8309e0dd6f532a11,2021-07-29_20h56.50.597,Simcolourproject_2stim_asymm_v5,2020.2.10,MacIntel,60,61025ae37ef11b136ea224fe,,,,,,,,,1472,23.91015625,-54.62109375,1,0,0,response3disk,,4,-1.46875,1.94140625,1,0,0,rectangle,-1.46875,1.94140625,1,0,0,-1.46875,1.94140625,1,0,0,0,153,153,157,1,,,,,,,,
,,,,,,,,,,,,,FF,,,,,,,,1.0157,,,,,,,,,,,,,,,,,,,,,,61018830046d35da29ee579c,610377ec8309e0dd6f532a11,2021-07-29_20h56.50.597,Simcolourproject_2stim_asymm_v5,2020.2.10,MacIntel,60,61025ae37ef11b136ea224fe,,,,,,,,,1853,65.14453125,61.94140625,1,0,0,response1disk,,6,15.03125,8.9453125,1,0,0,rectangle,15.03125,8.9453125,1,0,0,15.03125,8.9453125,1,0,0,0,154,154,123,1,,,,,,,,
,,,,,,,,,,,,,FF,,,,,,,,0.9652,,,,,,,,,,,,,,,,,,,,,,61018830046d35da29ee579c,610377ec8309e0dd6f532a11,2021-07-29_20h56.50.597,Simcolourproject_2stim_asymm_v5,2020.2.10,MacIntel,60,61025ae37ef11b136ea224fe,,,,,,,,,783,47.04296875,-42.6953125,1,0,0,response3disk,,5,19.8359375,-8.953125,1,0,0,rectangle,19.8359375,-8.953125,1,0,0,19.8359375,-8.953125,1,0,0,0,155,155,143,1,,,,,,,,
,,,,,,,,,,,,,FF,,,,,,,,0.7338,,,,,,,,,,,,,,,,,,,,,,61018830046d35da29ee579c,610377ec8309e0dd6f532a11,2021-07-29_20h56.50.597,Simcolourproject_2stim_asymm_v5,2020.2.10,MacIntel,60,61025ae37ef11b136ea224fe,,,,,,,,,2916,34.68359375,55.515625,1,0,0,response1disk,,7,14.95703125,6.6875,1,0,0,rectangle,14.95703125,6.6875,1,0,0,14.95703125,6.6875,1,0,0,0,156,156,32,1,,,,,,,,
,,,,,,,,,,,,,FF,,,,,,,,1.2163,,,,,,,,,,,,,,,,,,,,,,61018830046d35da29ee579c,610377ec8309e0dd6f532a11,2021-07-29_20h56.50.597,Simcolourproject_2stim_asymm_v5,2020.2.10,MacIntel,60,61025ae37ef11b136ea224fe,,,,,,,,,58,51.8671875,-20.85546875,1,0,0,response3disk,,5,26.51953125,-9.41796875,1,0,0,rectangle,26.51953125,-9.41796875,1,0,0,26.51953125,-9.41796875,1,0,0,0,157,157,21,1,,,,,,,,
,,,,,,,,,,,,,FF,,,,,,,,0.7181,,,,,,,,,,,,,,,,,,,,,,61018830046d35da29ee579c,610377ec8309e0dd6f532a11,2021-07-29_20h56.50.597,Simcolourproject_2stim_asymm_v5,2020.2.10,MacIntel,60,61025ae37ef11b136ea224fe,,,,,,,,,2299,-57.015625,-22.4296875,1,0,0,response5disk,,2,-23.29296875,-8.73046875,1,0,0,rectangle,-23.29296875,-8.73046875,1,0,0,-23.29296875,-8.73046875,1,0,0,0,158,158,150,1,,,,,,,,
,,,,,,,,,,,,,FF,,,,,,,,0.7831,,,,,,,,,,,,,,,,,,,,,,61018830046d35da29ee579c,610377ec8309e0dd6f532a11,2021-07-29_20h56.50.597,Simcolourproject_2stim_asymm_v5,2020.2.10,MacIntel,60,61025ae37ef11b136ea224fe,,,,,,,,,4134,32.56640625,69.0078125,1,0,0,response1disk,,7,1.6328125,-11.86328125,1,0,0,rectangle,1.6328125,-11.86328125,1,0,0,1.6328125,-11.86328125,1,0,0,0,159,159,16,1,,,,,,,,
,,,,,,,,,,,,,FF,,,,,,,,0.6833,,,,,,,,,,,,,,,,,,,,,,61018830046d35da29ee579c,610377ec8309e0dd6f532a11,2021-07-29_20h56.50.597,Simcolourproject_2stim_asymm_v5,2020.2.10,MacIntel,60,61025ae37ef11b136ea224fe,,,,,,,,,522,-22.06640625,-60.22265625,1,0,0,response5disk,,3,-11.54296875,6.21875,1,0,0,rectangle,-11.54296875,6.21875,1,0,0,-11.54296875,6.21875,1,0,0,1,0,160,14,1,,,,,,,,
,,,,,,,,,,,,,FF,,,,,,,,3.016,,,,,,,,,,,,,,,,,,,,,,61018830046d35da29ee579c,610377ec8309e0dd6f532a11,2021-07-29_20h56.50.597,Simcolourproject_2stim_asymm_v5,2020.2.10,MacIntel,60,61025ae37ef11b136ea224fe,,,,,,,,,3340,-34.9453125,-58.4453125,1,0,0,response5disk,,3,13.1484375,14.8984375,1,0,0,rectangle,13.1484375,14.8984375,1,0,0,13.1484375,14.8984375,1,0,0,1,1,161,35,1,,,,,,,,
,,,,,,,,,,,,,FF,,,,,,,,1.05,,,,,,,,,,,,,,,,,,,,,,61018830046d35da29ee579c,610377ec8309e0dd6f532a11,2021-07-29_20h56.50.597,Simcolourproject_2stim_asymm_v5,2020.2.10,MacIntel,60,61025ae37ef11b136ea224fe,,,,,,,,,2996,29.1015625,-56.1953125,1,0,0,response3disk,,4,14.33984375,4.23828125,1,0,0,rectangle,14.33984375,4.23828125,1,0,0,14.33984375,4.23828125,1,0,0,1,2,162,39,1,,,,,,,,
,,,,,,,,,,,,,FF,,,,,,,,1.2333,,,,,,,,,,,,,,,,,,,,,,61018830046d35da29ee579c,610377ec8309e0dd6f532a11,2021-07-29_20h56.50.597,Simcolourproject_2stim_asymm_v5,2020.2.10,MacIntel,60,61025ae37ef11b136ea224fe,,,,,,,,,1309,48.60546875,86.78125,1,0,0,response1disk,,7,-13.4453125,-10.0234375,1,0,0,rectangle,-13.4453125,-10.0234375,1,0,0,-13.4453125,-10.0234375,1,0,0,1,3,163,94,1,,,,,,,,
,,,,,,,,,,,,,FF,,,,,,,,2.4013,,,,,,,,,,,,,,,,,,,,,,61018830046d35da29ee579c,610377ec8309e0dd6f532a11,2021-07-29_20h56.50.597,Simcolourproject_2stim_asymm_v5,2020.2.10,MacIntel,60,61025ae37ef11b136ea224fe,,,,,,,,,1836,67.40234375,49.54296875,1,0,0,response1disk,,6,-10.76953125,-3.05859375,1,0,0,rectangle,-10.76953125,-3.05859375,1,0,0,-10.76953125,-3.05859375,1,0,0,1,4,164,93,1,,,,,,,,
,,,,,,,,,,,,,FF,,,,,,,,0.9502,,,,,,,,,,,,,,,,,,,,,,61018830046d35da29ee579c,610377ec8309e0dd6f532a11,2021-07-29_20h56.50.597,Simcolourproject_2stim_asymm_v5,2020.2.10,MacIntel,60,61025ae37ef11b136ea224fe,,,,,,,,,1223,68.01953125,-19.76171875,1,0,0,response3disk,,5,24.2265625,-4.53125,1,0,0,rectangle,24.2265625,-4.53125,1,0,0,24.2265625,-4.53125,1,0,0,1,5,165,36,1,,,,,,,,
,,,,,,,,,,,,,FF,,,,,,,,1.0003,,,,,,,,,,,,,,,,,,,,,,61018830046d35da29ee579c,610377ec8309e0dd6f532a11,2021-07-29_20h56.50.597,Simcolourproject_2stim_asymm_v5,2020.2.10,MacIntel,60,61025ae37ef11b136ea224fe,,,,,,,,,3096,-39.01953125,66.2421875,1,0,0,response7disk,,0,-16.29296875,5.328125,1,0,0,rectangle,-16.29296875,5.328125,1,0,0,-16.29296875,5.328125,1,0,0,1,6,166,146,1,,,,,,,,
,,,,,,,,,,,,,FF,,,,,,,,0.8928,,,,,,,,,,,,,,,,,,,,,,61018830046d35da29ee579c,610377ec8309e0dd6f532a11,2021-07-29_20h56.50.597,Simcolourproject_2stim_asymm_v5,2020.2.10,MacIntel,60,61025ae37ef11b136ea224fe,,,,,,,,,4044,83.91015625,56.16796875,1,0,0,response1disk,,6,15.7421875,5.28515625,1,0,0,rectangle,-67.20703125,-27.30078125,1,0,0,-11.76171875,8.01171875,1,0,0,1,7,167,13,1,,response5disk_3,TRUE,2,2,"[278,10,168,290,321,9,209,238,169,128,192,44,74,185,171,268,279,5,76,41]",2.1662,rectangle
,,,,,,,,,,,,,FF,,,,,,,,6.5352,,,,,,,,,,,,,,,,,,,,,,61018830046d35da29ee579c,610377ec8309e0dd6f532a11,2021-07-29_20h56.50.597,Simcolourproject_2stim_asymm_v5,2020.2.10,MacIntel,60,61025ae37ef11b136ea224fe,,,,,,,,,3428,85.22265625,40.45703125,1,0,0,response1disk,,6,4.80859375,11.3203125,1,0,0,rectangle,-91.50390625,-41.3828125,1,0,0,-27.81640625,2.94921875,1,0,0,1,8,168,149,1,,response5disk_3,TRUE,2,2,"[278,10,168,290,321,9,209,238,169,128,192,44,74,185,171,268,279,5,76,41]",1.8321,rectangle
,,,,,,,,,,,,,FF,,,,,,,,1.9831,,,,,,,,,,,,,,,,,,,,,,61018830046d35da29ee579c,610377ec8309e0dd6f532a11,2021-07-29_20h56.50.597,Simcolourproject_2stim_asymm_v5,2020.2.10,MacIntel,60,61025ae37ef11b136ea224fe,,,,,,,,,589,36.12890625,70.703125,1,0,0,response1disk,,7,11.2421875,-9.1015625,1,0,0,rectangle,11.2421875,-9.1015625,1,0,0,11.2421875,-9.1015625,1,0,0,1,9,169,103,1,,,,,,,,
,,,,,,,,,,,,,FF,,,,,,,,0.6851,,,,,,,,,,,,,,,,,,,,,,61018830046d35da29ee579c,610377ec8309e0dd6f532a11,2021-07-29_20h56.50.597,Simcolourproject_2stim_asymm_v5,2020.2.10,MacIntel,60,61025ae37ef11b136ea224fe,,,,,,,,,2850,75.75390625,-43.1171875,1,0,0,response3disk,,5,-13.49609375,15.1171875,1,0,0,rectangle,45.8984375,-57.23046875,1,0,0,-17.58203125,3.765625,1,0,0,1,10,170,83,1,,response3disk_3,TRUE,4,4,"[278,10,168,290,321,9,209,238,169,128,192,44,74,185,171,268,279,5,76,41]",1.949,rectangle
,,,,,,,,,,,,,FF,,,,,,,,1.6681,,,,,,,,,,,,,,,,,,,,,,61018830046d35da29ee579c,610377ec8309e0dd6f532a11,2021-07-29_20h56.50.597,Simcolourproject_2stim_asymm_v5,2020.2.10,MacIntel,60,61025ae37ef11b136ea224fe,,,,,,,,,1730,43.6796875,73.99609375,1,0,0,response1disk,,7,7.20703125,-2.05078125,1,0,0,rectangle,7.20703125,-2.05078125,1,0,0,7.20703125,-2.05078125,1,0,0,1,11,171,157,1,,,,,,,,
,,,,,,,,,,,,,FF,,,,,,,,1.4493,,,,,,,,,,,,,,,,,,,,,,61018830046d35da29ee579c,610377ec8309e0dd6f532a11,2021-07-29_20h56.50.597,Simcolourproject_2stim_asymm_v5,2020.2.10,MacIntel,60,61025ae37ef11b136ea224fe,,,,,,,,,2825,-39.64453125,-89.18359375,1,0,0,response5disk,,3,-20.6328125,3.19921875,1,0,0,rectangle,-20.6328125,3.19921875,1,0,0,-20.6328125,3.19921875,1,0,0,1,12,172,41,1,,,,,,,,
,,,,,,,,,,,,,FF,,,,,,,,1.3665,,,,,,,,,,,,,,,,,,,,,,61018830046d35da29ee579c,610377ec8309e0dd6f532a11,2021-07-29_20h56.50.597,Simcolourproject_2stim_asymm_v5,2020.2.10,MacIntel,60,61025ae37ef11b136ea224fe,,,,,,,,,4077,-53.25,-88.90625,1,0,0,response5disk,,3,-20.78515625,-2.1953125,1,0,0,rectangle,-20.78515625,-2.1953125,1,0,0,-20.78515625,-2.1953125,1,0,0,1,13,173,31,1,,,,,,,,
,,,,,,,,,,,,,FF,,,,,,,,0.9174,,,,,,,,,,,,,,,,,,,,,,61018830046d35da29ee579c,610377ec8309e0dd6f532a11,2021-07-29_20h56.50.597,Simcolourproject_2stim_asymm_v5,2020.2.10,MacIntel,60,61025ae37ef11b136ea224fe,,,,,,,,,1153,52.72265625,34.1796875,1,0,0,response1disk,,6,-5.5625,2.62109375,1,0,0,rectangle,-5.5625,2.62109375,1,0,0,-5.5625,2.62109375,1,0,0,1,14,174,132,1,,,,,,,,
,,,,,,,,,,,,,FF,,,,,,,,1.101,,,,,,,,,,,,,,,,,,,,,,61018830046d35da29ee579c,610377ec8309e0dd6f532a11,2021-07-29_20h56.50.597,Simcolourproject_2stim_asymm_v5,2020.2.10,MacIntel,60,61025ae37ef11b136ea224fe,,,,,,,,,1724,16.10546875,-75.8515625,1,0,0,response3disk,,4,-7.47265625,-1.03125,1,0,0,rectangle,-7.47265625,-1.03125,1,0,0,-7.47265625,-1.03125,1,0,0,1,15,175,101,1,,,,,,,,
,,,,,,,,,,,,,FF,,,,,,,,0.5994,,,,,,,,,,,,,,,,,,,,,,61018830046d35da29ee579c,610377ec8309e0dd6f532a11,2021-07-29_20h56.50.597,Simcolourproject_2stim_asymm_v5,2020.2.10,MacIntel,60,61025ae37ef11b136ea224fe,,,,,,,,,4188,-95.70703125,-45.234375,1,0,0,response5disk,,2,-31.37109375,2.0703125,1,0,0,rectangle,-31.37109375,2.0703125,1,0,0,-31.37109375,2.0703125,1,0,0,1,16,176,120,1,,,,,,,,
,,,,,,,,,,,,,FF,,,,,,,,1.185,,,,,,,,,,,,,,,,,,,,,,61018830046d35da29ee579c,610377ec8309e0dd6f532a11,2021-07-29_20h56.50.597,Simcolourproject_2stim_asymm_v5,2020.2.10,MacIntel,60,61025ae37ef11b136ea224fe,,,,,,,,,2118,42.30078125,-70.14453125,1,0,0,response3disk,,4,-18.0234375,0.29296875,1,0,0,rectangle,-18.0234375,0.29296875,1,0,0,-18.0234375,0.29296875,1,0,0,1,17,177,76,1,,,,,,,,
,,,,,,,,,,,,,FF,,,,,,,,1.0168,,,,,,,,,,,,,,,,,,,,,,61018830046d35da29ee579c,610377ec8309e0dd6f532a11,2021-07-29_20h56.50.597,Simcolourproject_2stim_asymm_v5,2020.2.10,MacIntel,60,61025ae37ef11b136ea224fe,,,,,,,,,3461,81.59765625,-13.4765625,1,0,0,response3disk,,5,27.66796875,-13.9609375,1,0,0,rectangle,27.66796875,-13.9609375,1,0,0,27.66796875,-13.9609375,1,0,0,1,18,178,87,1,,,,,,,,
,,,,,,,,,,,,,FF,,,,,,,,0.8829,,,,,,,,,,,,,,,,,,,,,,61018830046d35da29ee579c,610377ec8309e0dd6f532a11,2021-07-29_20h56.50.597,Simcolourproject_2stim_asymm_v5,2020.2.10,MacIntel,60,61025ae37ef11b136ea224fe,,,,,,,,,879,73.70703125,58.07421875,1,0,0,response1disk,,6,12.28125,-7.01171875,1,0,0,rectangle,12.28125,-7.01171875,1,0,0,12.28125,-7.01171875,1,0,0,1,19,179,97,1,,,,,,,,
,,,,,,,,,,,,,FF,,,,,,,,1.2672,,,,,,,,,,,,,,,,,,,,,,61018830046d35da29ee579c,610377ec8309e0dd6f532a11,2021-07-29_20h56.50.597,Simcolourproject_2stim_asymm_v5,2020.2.10,MacIntel,60,61025ae37ef11b136ea224fe,,,,,,,,,2204,33.78125,57.94140625,1,0,0,response1disk,,7,14.4765625,10.37109375,1,0,0,rectangle,14.4765625,10.37109375,1,0,0,14.4765625,10.37109375,1,0,0,1,20,180,155,1,,,,,,,,
,,,,,,,,,,,,,FF,,,,,,,,0.7846,,,,,,,,,,,,,,,,,,,,,,61018830046d35da29ee579c,610377ec8309e0dd6f532a11,2021-07-29_20h56.50.597,Simcolourproject_2stim_asymm_v5,2020.2.10,MacIntel,60,61025ae37ef11b136ea224fe,,,,,,,,,932,43.7890625,65.890625,1,0,0,response1disk,,7,18.9375,0.875,1,0,0,rectangle,18.9375,0.875,1,0,0,18.9375,0.875,1,0,0,1,21,181,61,1,,,,,,,,
,,,,,,,,,,,,,FF,,,,,,,,1.166,,,,,,,,,,,,,,,,,,,,,,61018830046d35da29ee579c,610377ec8309e0dd6f532a11,2021-07-29_20h56.50.597,Simcolourproject_2stim_asymm_v5,2020.2.10,MacIntel,60,61025ae37ef11b136ea224fe,,,,,,,,,373,-61.67578125,-42.01171875,1,0,0,response5disk,,2,-7.1640625,10.3125,1,0,0,rectangle,-7.1640625,10.3125,1,0,0,-7.1640625,10.3125,1,0,0,1,22,182,99,1,,,,,,,,
,,,,,,,,,,,,,FF,,,,,,,,0.7994,,,,,,,,,,,,,,,,,,,,,,61018830046d35da29ee579c,610377ec8309e0dd6f532a11,2021-07-29_20h56.50.597,Simcolourproject_2stim_asymm_v5,2020.2.10,MacIntel,60,61025ae37ef11b136ea224fe,,,,,,,,,1751,-71.61328125,32.23046875,1,0,0,response7disk,,1,3.9453125,10.5234375,1,0,0,rectangle,3.9453125,10.5234375,1,0,0,3.9453125,10.5234375,1,0,0,1,23,183,139,1,,,,,,,,
,,,,,,,,,,,,,FF,,,,,,,,0.7493,,,,,,,,,,,,,,,,,,,,,,61018830046d35da29ee579c,610377ec8309e0dd6f532a11,2021-07-29_20h56.50.597,Simcolourproject_2stim_asymm_v5,2020.2.10,MacIntel,60,61025ae37ef11b136ea224fe,,,,,,,,,3764,74.28515625,23.41015625,1,0,0,response1disk,,6,12.71875,-0.41015625,1,0,0,rectangle,-24.81640625,-81.984375,1,0,0,6.7421875,-1.8203125,1,0,0,1,24,184,77,1,,response5disk_3,TRUE,3,3,"[278,10,168,290,321,9,209,238,169,128,192,44,74,185,171,268,279,5,76,41]",1.7488,rectangle
,,,,,,,,,,,,,FF,,,,,,,,1.6507,,,,,,,,,,,,,,,,,,,,,,61018830046d35da29ee579c,610377ec8309e0dd6f532a11,2021-07-29_20h56.50.597,Simcolourproject_2stim_asymm_v5,2020.2.10,MacIntel,60,61025ae37ef11b136ea224fe,,,,,,,,,2179,37.76953125,-67.51171875,1,0,0,response3disk,,4,9.67578125,-2.55859375,1,0,0,rectangle,9.67578125,-2.55859375,1,0,0,9.67578125,-2.55859375,1,0,0,1,25,185,104,1,,,,,,,,
,,,,,,,,,,,,,FF,,,,,,,,0.9868,,,,,,,,,,,,,,,,,,,,,,61018830046d35da29ee579c,610377ec8309e0dd6f532a11,2021-07-29_20h56.50.597,Simcolourproject_2stim_asymm_v5,2020.2.10,MacIntel,60,61025ae37ef11b136ea224fe,,,,,,,,,2593,-51.14453125,-35.16015625,1,0,0,response5disk,,2,9.453125,0.69140625,1,0,0,rectangle,9.453125,0.69140625,1,0,0,9.453125,0.69140625,1,0,0,1,26,186,27,1,,,,,,,,
,,,,,,,,,,,,,FF,,,,,,,,0.7496,,,,,,,,,,,,,,,,,,,,,,61018830046d35da29ee579c,610377ec8309e0dd6f532a11,2021-07-29_20h56.50.597,Simcolourproject_2stim_asymm_v5,2020.2.10,MacIntel,60,61025ae37ef11b136ea224fe,,,,,,,,,854,81.33984375,34.2421875,1,0,0,response1disk,,6,12.0078125,3.23828125,1,0,0,rectangle,12.0078125,3.23828125,1,0,0,12.0078125,3.23828125,1,0,0,1,27,187,56,1,,,,,,,,
,,,,,,,,,,,,,FF,,,,,,,,0.7504,,,,,,,,,,,,,,,,,,,,,,61018830046d35da29ee579c,610377ec8309e0dd6f532a11,2021-07-29_20h56.50.597,Simcolourproject_2stim_asymm_v5,2020.2.10,MacIntel,60,61025ae37ef11b136ea224fe,,,,,,,,,2924,38.87890625,73.6953125,1,0,0,response1disk,,7,22.203125,11.16015625,1,0,0,rectangle,22.203125,11.16015625,1,0,0,22.203125,11.16015625,1,0,0,1,28,188,20,1,,,,,,,,
,,,,,,,,,,,,,FF,,,,,,,,0.6331,,,,,,,,,,,,,,,,,,,,,,61018830046d35da29ee579c,610377ec8309e0dd6f532a11,2021-07-29_20h56.50.597,Simcolourproject_2stim_asymm_v5,2020.2.10,MacIntel,60,61025ae37ef11b136ea224fe,,,,,,,,,4017,37.71875,55.8515625,1,0,0,response1disk,,7,19.07421875,-7.1484375,1,0,0,rectangle,19.07421875,-7.1484375,1,0,0,19.07421875,-7.1484375,1,0,0,1,29,189,95,1,,,,,,,,
,,,,,,,,,,,,,FF,,,,,,,,0.8654,,,,,,,,,,,,,,,,,,,,,,61018830046d35da29ee579c,610377ec8309e0dd6f532a11,2021-07-29_20h56.50.597,Simcolourproject_2stim_asymm_v5,2020.2.10,MacIntel,60,61025ae37ef11b136ea224fe,,,,,,,,,1310,52.40625,-25.95703125,1,0,0,response3disk,,5,-10.72265625,15.046875,1,0,0,rectangle,-10.72265625,15.046875,1,0,0,-10.72265625,15.046875,1,0,0,1,30,190,68,1,,,,,,,,
,,,,,,,,,,,,,FF,,,,,,,,0.768,,,,,,,,,,,,,,,,,,,,,,61018830046d35da29ee579c,610377ec8309e0dd6f532a11,2021-07-29_20h56.50.597,Simcolourproject_2stim_asymm_v5,2020.2.10,MacIntel,60,61025ae37ef11b136ea224fe,,,,,,,,,1402,34.47265625,51.77734375,1,0,0,response1disk,,7,17.1171875,-3.4375,1,0,0,rectangle,-36.328125,43.8984375,1,0,0,-35.515625,11.7734375,1,0,0,1,31,191,15,1,,response7disk_3,TRUE,0,0,"[278,10,168,290,321,9,209,238,169,128,192,44,74,185,171,268,279,5,76,41]",1.5336,rectangle
,,,,,,,,,,,,,FF,,,,,,,,1.2671,,,,,,,,,,,,,,,,,,,,,,61018830046d35da29ee579c,610377ec8309e0dd6f532a11,2021-07-29_20h56.50.597,Simcolourproject_2stim_asymm_v5,2020.2.10,MacIntel,60,61025ae37ef11b136ea224fe,,,,,,,,,794,52.64453125,-27.9375,1,0,0,response3disk,,5,16.2421875,-1.47265625,1,0,0,rectangle,16.2421875,-1.47265625,1,0,0,16.2421875,-1.47265625,1,0,0,1,32,192,98,1,,,,,,,,
,,,,,,,,,,,,,FF,,,,,,,,0.783,,,,,,,,,,,,,,,,,,,,,,61018830046d35da29ee579c,610377ec8309e0dd6f532a11,2021-07-29_20h56.50.597,Simcolourproject_2stim_asymm_v5,2020.2.10,MacIntel,60,61025ae37ef11b136ea224fe,,,,,,,,,3940,-84.91015625,-26.140625,1,0,0,response5disk,,2,-26.09765625,-3.33984375,1,0,0,rectangle,-26.09765625,-3.33984375,1,0,0,-26.09765625,-3.33984375,1,0,0,1,33,193,75,1,,,,,,,,
,,,,,,,,,,,,,FF,,,,,,,,0.7344,,,,,,,,,,,,,,,,,,,,,,61018830046d35da29ee579c,610377ec8309e0dd6f532a11,2021-07-29_20h56.50.597,Simcolourproject_2stim_asymm_v5,2020.2.10,MacIntel,60,61025ae37ef11b136ea224fe,,,,,,,,,3236,-94.89453125,-49.11328125,1,0,0,response5disk,,2,-16.46875,-1.98828125,1,0,0,rectangle,-16.46875,-1.98828125,1,0,0,-16.46875,-1.98828125,1,0,0,1,34,194,11,1,,,,,,,,
,,,,,,,,,,,,,FF,,,,,,,,1.2519,,,,,,,,,,,,,,,,,,,,,,61018830046d35da29ee579c,610377ec8309e0dd6f532a11,2021-07-29_20h56.50.597,Simcolourproject_2stim_asymm_v5,2020.2.10,MacIntel,60,61025ae37ef11b136ea224fe,,,,,,,,,693,21.59375,-61.0703125,1,0,0,response3disk,,4,-0.26171875,-1.5859375,1,0,0,rectangle,-0.26171875,-1.5859375,1,0,0,-0.26171875,-1.5859375,1,0,0,1,35,195,47,1,,,,,,,,
,,,,,,,,,,,,,FF,,,,,,,,0.7499,,,,,,,,,,,,,,,,,,,,,,61018830046d35da29ee579c,610377ec8309e0dd6f532a11,2021-07-29_20h56.50.597,Simcolourproject_2stim_asymm_v5,2020.2.10,MacIntel,60,61025ae37ef11b136ea224fe,,,,,,,,,341,-48.36328125,-29.8671875,1,0,0,response5disk,,2,-6.3046875,-4.67578125,1,0,0,rectangle,-6.3046875,-4.67578125,1,0,0,-6.3046875,-4.67578125,1,0,0,1,36,196,62,1,,,,,,,,
,,,,,,,,,,,,,FF,,,,,,,,0.6666,,,,,,,,,,,,,,,,,,,,,,61018830046d35da29ee579c,610377ec8309e0dd6f532a11,2021-07-29_20h56.50.597,Simcolourproject_2stim_asymm_v5,2020.2.10,MacIntel,60,61025ae37ef11b136ea224fe,,,,,,,,,3162,-31.578125,-58.6953125,1,0,0,response5disk,,3,-23.92578125,-1.92578125,1,0,0,rectangle,-23.92578125,-1.92578125,1,0,0,-23.92578125,-1.92578125,1,0,0,1,37,197,45,1,,,,,,,,
,,,,,,,,,,,,,FF,,,,,,,,0.9824,,,,,,,,,,,,,,,,,,,,,,61018830046d35da29ee579c,610377ec8309e0dd6f532a11,2021-07-29_20h56.50.597,Simcolourproject_2stim_asymm_v5,2020.2.10,MacIntel,60,61025ae37ef11b136ea224fe,,,,,,,,,858,88.39453125,50.8125,1,0,0,response1disk,,6,11.4296875,-8.8828125,1,0,0,rectangle,11.4296875,-8.8828125,1,0,0,11.4296875,-8.8828125,1,0,0,1,38,198,105,1,,,,,,,,
,,,,,,,,,,,,,FF,,,,,,,,0.9328,,,,,,,,,,,,,,,,,,,,,,61018830046d35da29ee579c,610377ec8309e0dd6f532a11,2021-07-29_20h56.50.597,Simcolourproject_2stim_asymm_v5,2020.2.10,MacIntel,60,61025ae37ef11b136ea224fe,,,,,,,,,3304,-67.76953125,-30.00390625,1,0,0,response5disk,,2,-10.20703125,12.78515625,1,0,0,rectangle,-10.20703125,12.78515625,1,0,0,-10.20703125,12.78515625,1,0,0,1,39,199,121,1,,,,,,,,
,,,,,,,,,,,,,FF,,,,,,,,0.6833,,,,,,,,,,,,,,,,,,,,,,61018830046d35da29ee579c,610377ec8309e0dd6f532a11,2021-07-29_20h56.50.597,Simcolourproject_2stim_asymm_v5,2020.2.10,MacIntel,60,61025ae37ef11b136ea224fe,,,,,,,,,3692,49.97265625,78.71484375,1,0,0,response1disk,,7,8.41015625,-3.77734375,1,0,0,rectangle,8.41015625,-3.77734375,1,0,0,8.41015625,-3.77734375,1,0,0,1,40,200,89,1,,,,,,,,
,,,,,,,,,,,,,FF,,,,,,,,0.8004,,,,,,,,,,,,,,,,,,,,,,61018830046d35da29ee579c,610377ec8309e0dd6f532a11,2021-07-29_20h56.50.597,Simcolourproject_2stim_asymm_v5,2020.2.10,MacIntel,60,61025ae37ef11b136ea224fe,,,,,,,,,1343,74.19921875,-32.70703125,1,0,0,response3disk,,5,-8.5859375,11.19140625,1,0,0,rectangle,-8.5859375,11.19140625,1,0,0,-8.5859375,11.19140625,1,0,0,1,41,201,57,1,,,,,,,,
,,,,,,,,,,,,,FF,,,,,,,,0.6664,,,,,,,,,,,,,,,,,,,,,,61018830046d35da29ee579c,610377ec8309e0dd6f532a11,2021-07-29_20h56.50.597,Simcolourproject_2stim_asymm_v5,2020.2.10,MacIntel,60,61025ae37ef11b136ea224fe,,,,,,,,,245,36.7421875,68.765625,1,0,0,response1disk,,7,19.984375,7.47265625,1,0,0,rectangle,19.984375,7.47265625,1,0,0,19.984375,7.47265625,1,0,0,1,42,202,154,1,,,,,,,,
,,,,,,,,,,,,,FF,,,,,,,,1.2169,,,,,,,,,,,,,,,,,,,,,,61018830046d35da29ee579c,610377ec8309e0dd6f532a11,2021-07-29_20h56.50.597,Simcolourproject_2stim_asymm_v5,2020.2.10,MacIntel,60,61025ae37ef11b136ea224fe,,,,,,,,,2629,49.7890625,-51.5390625,1,0,0,response3disk,,4,6.44921875,-9.08203125,1,0,0,rectangle,6.44921875,-9.08203125,1,0,0,6.44921875,-9.08203125,1,0,0,1,43,203,65,1,,,,,,,,
,,,,,,,,,,,,,FF,,,,,,,,1.7001,,,,,,,,,,,,,,,,,,,,,,61018830046d35da29ee579c,610377ec8309e0dd6f532a11,2021-07-29_20h56.50.597,Simcolourproject_2stim_asymm_v5,2020.2.10,MacIntel,60,61025ae37ef11b136ea224fe,,,,,,,,,2557,95.8828125,-34.37890625,1,0,0,response3disk,,5,22.88671875,-4.671875,1,0,0,rectangle,22.88671875,-4.671875,1,0,0,22.88671875,-4.671875,1,0,0,1,44,204,133,1,,,,,,,,
,,,,,,,,,,,,,FF,,,,,,,,1.3662,,,,,,,,,,,,,,,,,,,,,,61018830046d35da29ee579c,610377ec8309e0dd6f532a11,2021-07-29_20h56.50.597,Simcolourproject_2stim_asymm_v5,2020.2.10,MacIntel,60,61025ae37ef11b136ea224fe,,,,,,,,,302,88.36328125,38.765625,1,0,0,response1disk,,6,3.83203125,6.8671875,1,0,0,rectangle,3.83203125,6.8671875,1,0,0,3.83203125,6.8671875,1,0,0,1,45,205,33,1,,,,,,,,
,,,,,,,,,,,,,FF,,,,,,,,0.6008,,,,,,,,,,,,,,,,,,,,,,61018830046d35da29ee579c,610377ec8309e0dd6f532a11,2021-07-29_20h56.50.597,Simcolourproject_2stim_asymm_v5,2020.2.10,MacIntel,60,61025ae37ef11b136ea224fe,,,,,,,,,1710,44.73046875,46.12890625,1,0,0,response1disk,,7,7.28515625,5.7265625,1,0,0,rectangle,7.28515625,5.7265625,1,0,0,7.28515625,5.7265625,1,0,0,1,46,206,158,1,,,,,,,,
,,,,,,,,,,,,,FF,,,,,,,,0.933,,,,,,,,,,,,,,,,,,,,,,61018830046d35da29ee579c,610377ec8309e0dd6f532a11,2021-07-29_20h56.50.597,Simcolourproject_2stim_asymm_v5,2020.2.10,MacIntel,60,61025ae37ef11b136ea224fe,,,,,,,,,3370,32.11328125,51.921875,1,0,0,response1disk,,7,11.80859375,10.84375,1,0,0,rectangle,11.80859375,10.84375,1,0,0,11.80859375,10.84375,1,0,0,1,47,207,80,1,,,,,,,,
,,,,,,,,,,,,,FF,,,,,,,,0.7163,,,,,,,,,,,,,,,,,,,,,,61018830046d35da29ee579c,610377ec8309e0dd6f532a11,2021-07-29_20h56.50.597,Simcolourproject_2stim_asymm_v5,2020.2.10,MacIntel,60,61025ae37ef11b136ea224fe,,,,,,,,,4326,-60.15234375,71.7890625,1,0,0,response7disk,,0,-22.8203125,9.3359375,1,0,0,rectangle,63.00390625,26.16796875,1,0,0,18.875,0.80078125,1,0,0,1,48,208,78,1,,response1disk_3,TRUE,6,6,"[278,10,168,290,321,9,209,238,169,128,192,44,74,185,171,268,279,5,76,41]",1.9338,rectangle
,,,,,,,,,,,,,FF,,,,,,,,1.0676,,,,,,,,,,,,,,,,,,,,,,61018830046d35da29ee579c,610377ec8309e0dd6f532a11,2021-07-29_20h56.50.597,Simcolourproject_2stim_asymm_v5,2020.2.10,MacIntel,60,61025ae37ef11b136ea224fe,,,,,,,,,1108,47.828125,41.08984375,1,0,0,response1disk,,6,7.8125,9,1,0,0,rectangle,7.8125,9,1,0,0,7.8125,9,1,0,0,1,49,209,150,1,,,,,,,,
,,,,,,,,,,,,,FF,,,,,,,,1.0168,,,,,,,,,,,,,,,,,,,,,,61018830046d35da29ee579c,610377ec8309e0dd6f532a11,2021-07-29_20h56.50.597,Simcolourproject_2stim_asymm_v5,2020.2.10,MacIntel,60,61025ae37ef11b136ea224fe,,,,,,,,,3229,69.390625,30.1953125,1,0,0,response1disk,,6,26.1015625,9.22265625,1,0,0,rectangle,26.1015625,9.22265625,1,0,0,26.1015625,9.22265625,1,0,0,1,50,210,44,1,,,,,,,,
,,,,,,,,,,,,,FF,,,,,,,,0.934,,,,,,,,,,,,,,,,,,,,,,61018830046d35da29ee579c,610377ec8309e0dd6f532a11,2021-07-29_20h56.50.597,Simcolourproject_2stim_asymm_v5,2020.2.10,MacIntel,60,61025ae37ef11b136ea224fe,,,,,,,,,1029,44.63671875,-68.203125,1,0,0,response3disk,,4,-2.32421875,2.828125,1,0,0,rectangle,-2.32421875,2.828125,1,0,0,-2.32421875,2.828125,1,0,0,1,51,211,129,1,,,,,,,,
,,,,,,,,,,,,,FF,,,,,,,,0.8352,,,,,,,,,,,,,,,,,,,,,,61018830046d35da29ee579c,610377ec8309e0dd6f532a11,2021-07-29_20h56.50.597,Simcolourproject_2stim_asymm_v5,2020.2.10,MacIntel,60,61025ae37ef11b136ea224fe,,,,,,,,,1811,-73.953125,-31.578125,1,0,0,response5disk,,2,4.88671875,5.5625,1,0,0,rectangle,4.88671875,5.5625,1,0,0,4.88671875,5.5625,1,0,0,1,52,212,55,1,,,,,,,,
,,,,,,,,,,,,,FF,,,,,,,,1.0166,,,,,,,,,,,,,,,,,,,,,,61018830046d35da29ee579c,610377ec8309e0dd6f532a11,2021-07-29_20h56.50.597,Simcolourproject_2stim_asymm_v5,2020.2.10,MacIntel,60,61025ae37ef11b136ea224fe,,,,,,,,,2881,37.9375,-79.2578125,1,0,0,response3disk,,4,1.98046875,-3.359375,1,0,0,rectangle,1.98046875,-3.359375,1,0,0,1.98046875,-3.359375,1,0,0,1,53,213,117,1,,,,,,,,
,,,,,,,,,,,,,FF,,,,,,,,0.7663,,,,,,,,,,,,,,,,,,,,,,61018830046d35da29ee579c,610377ec8309e0dd6f532a11,2021-07-29_20h56.50.597,Simcolourproject_2stim_asymm_v5,2020.2.10,MacIntel,60,61025ae37ef11b136ea224fe,,,,,,,,,3599,-32.1953125,-33.4609375,1,0,0,response5disk,,3,-6.1015625,-6.2734375,1,0,0,rectangle,-6.1015625,-6.2734375,1,0,0,-6.1015625,-6.2734375,1,0,0,1,54,214,115,1,,,,,,,,
,,,,,,,,,,,,,FF,,,,,,,,0.6698,,,,,,,,,,,,,,,,,,,,,,61018830046d35da29ee579c,610377ec8309e0dd6f532a11,2021-07-29_20h56.50.597,Simcolourproject_2stim_asymm_v5,2020.2.10,MacIntel,60,61025ae37ef11b136ea224fe,,,,,,,,,1252,49.3984375,27.37109375,1,0,0,response1disk,,6,4.08203125,-6.98828125,1,0,0,rectangle,4.08203125,-6.98828125,1,0,0,4.08203125,-6.98828125,1,0,0,1,55,215,30,1,,,,,,,,
,,,,,,,,,,,,,FF,,,,,,,,0.6501,,,,,,,,,,,,,,,,,,,,,,61018830046d35da29ee579c,610377ec8309e0dd6f532a11,2021-07-29_20h56.50.597,Simcolourproject_2stim_asymm_v5,2020.2.10,MacIntel,60,61025ae37ef11b136ea224fe,,,,,,,,,1136,-60.34765625,-23.96484375,1,0,0,response5disk,,2,-15.6953125,-10.9453125,1,0,0,rectangle,-15.6953125,-10.9453125,1,0,0,-15.6953125,-10.9453125,1,0,0,1,56,216,28,1,,,,,,,,
,,,,,,,,,,,,,FF,,,,,,,,1.0665,,,,,,,,,,,,,,,,,,,,,,61018830046d35da29ee579c,610377ec8309e0dd6f532a11,2021-07-29_20h56.50.597,Simcolourproject_2stim_asymm_v5,2020.2.10,MacIntel,60,61025ae37ef11b136ea224fe,,,,,,,,,2733,-49.578125,-72.6328125,1,0,0,response5disk,,3,0.6953125,10.9453125,1,0,0,rectangle,0.6953125,10.9453125,1,0,0,0.6953125,10.9453125,1,0,0,1,57,217,152,1,,,,,,,,
,,,,,,,,,,,,,FF,,,,,,,,1.0152,,,,,,,,,,,,,,,,,,,,,,61018830046d35da29ee579c,610377ec8309e0dd6f532a11,2021-07-29_20h56.50.597,Simcolourproject_2stim_asymm_v5,2020.2.10,MacIntel,60,61025ae37ef11b136ea224fe,,,,,,,,,1178,35.671875,60.3828125,1,0,0,response1disk,,7,0.36328125,-0.77734375,1,0,0,rectangle,0.36328125,-0.77734375,1,0,0,0.36328125,-0.77734375,1,0,0,1,58,218,1,1,,,,,,,,
,,,,,,,,,,,,,FF,,,,,,,,1.9349,,,,,,,,,,,,,,,,,,,,,,61018830046d35da29ee579c,610377ec8309e0dd6f532a11,2021-07-29_20h56.50.597,Simcolourproject_2stim_asymm_v5,2020.2.10,MacIntel,60,61025ae37ef11b136ea224fe,,,,,,,,,2977,61.51953125,27.75390625,1,0,0,response1disk,,6,18.27734375,-6.296875,1,0,0,rectangle,18.27734375,-6.296875,1,0,0,18.27734375,-6.296875,1,0,0,1,59,219,106,1,,,,,,,,
,,,,,,,,,,,,,FF,,,,,,,,1.586,,,,,,,,,,,,,,,,,,,,,,61018830046d35da29ee579c,610377ec8309e0dd6f532a11,2021-07-29_20h56.50.597,Simcolourproject_2stim_asymm_v5,2020.2.10,MacIntel,60,61025ae37ef11b136ea224fe,,,,,,,,,566,57.61328125,85.00390625,1,0,0,response1disk,,7,17.2890625,7.84765625,1,0,0,rectangle,17.2890625,7.84765625,1,0,0,17.2890625,7.84765625,1,0,0,1,60,220,5,1,,,,,,,,
,,,,,,,,,,,,,FF,,,,,,,,1.019,,,,,,,,,,,,,,,,,,,,,,61018830046d35da29ee579c,610377ec8309e0dd6f532a11,2021-07-29_20h56.50.597,Simcolourproject_2stim_asymm_v5,2020.2.10,MacIntel,60,61025ae37ef11b136ea224fe,,,,,,,,,273,27.77734375,-65.12890625,1,0,0,response3disk,,4,13.63671875,-10.79296875,1,0,0,rectangle,13.63671875,-10.79296875,1,0,0,13.63671875,-10.79296875,1,0,0,1,61,221,58,1,,,,,,,,
,,,,,,,,,,,,,FF,,,,,,,,1.3323,,,,,,,,,,,,,,,,,,,,,,61018830046d35da29ee579c,610377ec8309e0dd6f532a11,2021-07-29_20h56.50.597,Simcolourproject_2stim_asymm_v5,2020.2.10,MacIntel,60,61025ae37ef11b136ea224fe,,,,,,,,,3276,57.30078125,-31.7265625,1,0,0,response3disk,,5,11.48046875,-5.9609375,1,0,0,rectangle,11.48046875,-5.9609375,1,0,0,11.48046875,-5.9609375,1,0,0,1,62,222,69,1,,,,,,,,
,,,,,,,,,,,,,FF,,,,,,,,1.2345,,,,,,,,,,,,,,,,,,,,,,61018830046d35da29ee579c,610377ec8309e0dd6f532a11,2021-07-29_20h56.50.597,Simcolourproject_2stim_asymm_v5,2020.2.10,MacIntel,60,61025ae37ef11b136ea224fe,,,,,,,,,2648,71.12890625,17.23046875,1,0,0,response1disk,,6,10.26171875,-3.3203125,1,0,0,rectangle,10.26171875,-3.3203125,1,0,0,10.26171875,-3.3203125,1,0,0,1,63,223,107,1,,,,,,,,
,,,,,,,,,,,,,FF,,,,,,,,1.0837,,,,,,,,,,,,,,,,,,,,,,61018830046d35da29ee579c,610377ec8309e0dd6f532a11,2021-07-29_20h56.50.597,Simcolourproject_2stim_asymm_v5,2020.2.10,MacIntel,60,61025ae37ef11b136ea224fe,,,,,,,,,235,67.94140625,44.57421875,1,0,0,response1disk,,6,14.86328125,0.07421875,1,0,0,rectangle,14.86328125,0.07421875,1,0,0,14.86328125,0.07421875,1,0,0,1,64,224,73,1,,,,,,,,
,,,,,,,,,,,,,FF,,,,,,,,1.0001,,,,,,,,,,,,,,,,,,,,,,61018830046d35da29ee579c,610377ec8309e0dd6f532a11,2021-07-29_20h56.50.597,Simcolourproject_2stim_asymm_v5,2020.2.10,MacIntel,60,61025ae37ef11b136ea224fe,,,,,,,,,3466,76.8671875,19.44921875,1,0,0,response1disk,,6,18.7109375,6.56640625,1,0,0,rectangle,18.7109375,6.56640625,1,0,0,18.7109375,6.56640625,1,0,0,1,65,225,151,1,,,,,,,,
,,,,,,,,,,,,,FF,,,,,,,,0.8514,,,,,,,,,,,,,,,,,,,,,,61018830046d35da29ee579c,610377ec8309e0dd6f532a11,2021-07-29_20h56.50.597,Simcolourproject_2stim_asymm_v5,2020.2.10,MacIntel,60,61025ae37ef11b136ea224fe,,,,,,,,,393,33.02734375,50.69921875,1,0,0,response1disk,,7,12.8125,-9.48046875,1,0,0,rectangle,12.8125,-9.48046875,1,0,0,12.8125,-9.48046875,1,0,0,1,66,226,9,1,,,,,,,,
,,,,,,,,,,,,,FF,,,,,,,,0.8001,,,,,,,,,,,,,,,,,,,,,,61018830046d35da29ee579c,610377ec8309e0dd6f532a11,2021-07-29_20h56.50.597,Simcolourproject_2stim_asymm_v5,2020.2.10,MacIntel,60,61025ae37ef11b136ea224fe,,,,,,,,,1917,34.67578125,-44.6015625,1,0,0,response3disk,,4,22.3359375,-7.484375,1,0,0,rectangle,22.3359375,-7.484375,1,0,0,22.3359375,-7.484375,1,0,0,1,67,227,6,1,,,,,,,,
,,,,,,,,,,,,,FF,,,,,,,,1.2016,,,,,,,,,,,,,,,,,,,,,,61018830046d35da29ee579c,610377ec8309e0dd6f532a11,2021-07-29_20h56.50.597,Simcolourproject_2stim_asymm_v5,2020.2.10,MacIntel,60,61025ae37ef11b136ea224fe,,,,,,,,,3436,-64.265625,-53.15625,1,0,0,response5disk,,2,-17.9765625,1.05859375,1,0,0,rectangle,-17.9765625,1.05859375,1,0,0,-17.9765625,1.05859375,1,0,0,1,68,228,135,1,,,,,,,,
,,,,,,,,,,,,,FF,,,,,,,,0.8177,,,,,,,,,,,,,,,,,,,,,,61018830046d35da29ee579c,610377ec8309e0dd6f532a11,2021-07-29_20h56.50.597,Simcolourproject_2stim_asymm_v5,2020.2.10,MacIntel,60,61025ae37ef11b136ea224fe,,,,,,,,,1775,15.984375,-58.609375,1,0,0,response3disk,,4,9.9296875,-10.77734375,1,0,0,rectangle,9.9296875,-10.77734375,1,0,0,9.9296875,-10.77734375,1,0,0,1,69,229,24,1,,,,,,,,
,,,,,,,,,,,,,FF,,,,,,,,0.9015,,,,,,,,,,,,,,,,,,,,,,61018830046d35da29ee579c,610377ec8309e0dd6f532a11,2021-07-29_20h56.50.597,Simcolourproject_2stim_asymm_v5,2020.2.10,MacIntel,60,61025ae37ef11b136ea224fe,,,,,,,,,2471,57.12109375,24.8515625,1,0,0,response1disk,,6,17.62109375,2.53515625,1,0,0,rectangle,17.62109375,2.53515625,1,0,0,17.62109375,2.53515625,1,0,0,1,70,230,34,1,,,,,,,,
,,,,,,,,,,,,,FF,,,,,,,,0.7321,,,,,,,,,,,,,,,,,,,,,,61018830046d35da29ee579c,610377ec8309e0dd6f532a11,2021-07-29_20h56.50.597,Simcolourproject_2stim_asymm_v5,2020.2.10,MacIntel,60,61025ae37ef11b136ea224fe,,,,,,,,,3695,32.16015625,54.046875,1,0,0,response1disk,,7,7.87890625,-8.0390625,1,0,0,rectangle,7.87890625,-8.0390625,1,0,0,7.87890625,-8.0390625,1,0,0,1,71,231,138,1,,,,,,,,
,,,,,,,,,,,,,FF,,,,,,,,1.0666,,,,,,,,,,,,,,,,,,,,,,61018830046d35da29ee579c,610377ec8309e0dd6f532a11,2021-07-29_20h56.50.597,Simcolourproject_2stim_asymm_v5,2020.2.10,MacIntel,60,61025ae37ef11b136ea224fe,,,,,,,,,3851,-35.65234375,-76.15625,1,0,0,response5disk,,3,-19.68359375,-3.56640625,1,0,0,rectangle,-19.68359375,-3.56640625,1,0,0,-19.68359375,-3.56640625,1,0,0,1,72,232,25,1,,,,,,,,
,,,,,,,,,,,,,FF,,,,,,,,0.8813,,,,,,,,,,,,,,,,,,,,,,61018830046d35da29ee579c,610377ec8309e0dd6f532a11,2021-07-29_20h56.50.597,Simcolourproject_2stim_asymm_v5,2020.2.10,MacIntel,60,61025ae37ef11b136ea224fe,,,,,,,,,2430,18.71484375,-45.3046875,1,0,0,response3disk,,4,0.92578125,-12.1328125,1,0,0,rectangle,0.92578125,-12.1328125,1,0,0,0.92578125,-12.1328125,1,0,0,1,73,233,66,1,,,,,,,,
,,,,,,,,,,,,,FF,,,,,,,,1.9991,,,,,,,,,,,,,,,,,,,,,,61018830046d35da29ee579c,610377ec8309e0dd6f532a11,2021-07-29_20h56.50.597,Simcolourproject_2stim_asymm_v5,2020.2.10,MacIntel,60,61025ae37ef11b136ea224fe,,,,,,,,,2080,28.8515625,45.99609375,1,0,0,response1disk,,7,10.05859375,12.67578125,1,0,0,rectangle,10.05859375,12.67578125,1,0,0,10.05859375,12.67578125,1,0,0,1,74,234,42,1,,,,,,,,
,,,,,,,,,,,,,FF,,,,,,,,1.7155,,,,,,,,,,,,,,,,,,,,,,61018830046d35da29ee579c,610377ec8309e0dd6f532a11,2021-07-29_20h56.50.597,Simcolourproject_2stim_asymm_v5,2020.2.10,MacIntel,60,61025ae37ef11b136ea224fe,,,,,,,,,3467,65.41015625,28.203125,1,0,0,response1disk,,6,-0.21875,-5.484375,1,0,0,rectangle,-0.21875,-5.484375,1,0,0,-0.21875,-5.484375,1,0,0,1,75,235,7,1,,,,,,,,
,,,,,,,,,,,,,FF,,,,,,,,1.2351,,,,,,,,,,,,,,,,,,,,,,61018830046d35da29ee579c,610377ec8309e0dd6f532a11,2021-07-29_20h56.50.597,Simcolourproject_2stim_asymm_v5,2020.2.10,MacIntel,60,61025ae37ef11b136ea224fe,,,,,,,,,2902,23.234375,-37.8046875,1,0,0,response3disk,,4,15.31640625,-14.57421875,1,0,0,rectangle,15.31640625,-14.57421875,1,0,0,15.31640625,-14.57421875,1,0,0,1,76,236,134,1,,,,,,,,
,,,,,,,,,,,,,FF,,,,,,,,1.616,,,,,,,,,,,,,,,,,,,,,,61018830046d35da29ee579c,610377ec8309e0dd6f532a11,2021-07-29_20h56.50.597,Simcolourproject_2stim_asymm_v5,2020.2.10,MacIntel,60,61025ae37ef11b136ea224fe,,,,,,,,,3588,-24.828125,-49.203125,1,0,0,response5disk,,3,0.29296875,6.49609375,1,0,0,rectangle,68.29296875,31.07421875,1,0,0,20.82421875,-3.21484375,1,0,0,1,77,237,29,1,,response1disk_3,TRUE,6,6,"[278,10,168,290,321,9,209,238,169,128,192,44,74,185,171,268,279,5,76,41]",1.9328,rectangle
,,,,,,,,,,,,,FF,,,,,,,,0.7836,,,,,,,,,,,,,,,,,,,,,,61018830046d35da29ee579c,610377ec8309e0dd6f532a11,2021-07-29_20h56.50.597,Simcolourproject_2stim_asymm_v5,2020.2.10,MacIntel,60,61025ae37ef11b136ea224fe,,,,,,,,,3345,51.4921875,71.0546875,1,0,0,response1disk,,7,8.8046875,3.69140625,1,0,0,rectangle,8.8046875,3.69140625,1,0,0,8.8046875,3.69140625,1,0,0,1,78,238,145,1,,,,,,,,
,,,,,,,,,,,,,FF,,,,,,,,0.6662,,,,,,,,,,,,,,,,,,,,,,61018830046d35da29ee579c,610377ec8309e0dd6f532a11,2021-07-29_20h56.50.597,Simcolourproject_2stim_asymm_v5,2020.2.10,MacIntel,60,61025ae37ef11b136ea224fe,,,,,,,,,4271,34.765625,54.359375,1,0,0,response1disk,,7,23.37109375,8.4453125,1,0,0,rectangle,23.37109375,8.4453125,1,0,0,23.37109375,8.4453125,1,0,0,1,79,239,40,1,,,,,,,,
,,,,,,,,,,,,,FF,,,,,,,,0.9184,,,,,,,,,,,,,,,,,,,,,,61018830046d35da29ee579c,610377ec8309e0dd6f532a11,2021-07-29_20h56.50.597,Simcolourproject_2stim_asymm_v5,2020.2.10,MacIntel,60,61025ae37ef11b136ea224fe,,,,,,,,,264,-67.97265625,-30.09765625,1,0,0,response5disk,,2,-12.453125,7.17578125,1,0,0,rectangle,-12.453125,7.17578125,1,0,0,-12.453125,7.17578125,1,0,0,1,80,240,17,1,,,,,,,,
,,,,,,,,,,,,,FF,,,,,,,,1.4484,,,,,,,,,,,,,,,,,,,,,,61018830046d35da29ee579c,610377ec8309e0dd6f532a11,2021-07-29_20h56.50.597,Simcolourproject_2stim_asymm_v5,2020.2.10,MacIntel,60,61025ae37ef11b136ea224fe,,,,,,,,,222,65.24609375,40.3984375,1,0,0,response1disk,,6,11.62109375,8.82421875,1,0,0,rectangle,11.62109375,8.82421875,1,0,0,11.62109375,8.82421875,1,0,0,1,81,241,112,1,,,,,,,,
,,,,,,,,,,,,,FF,,,,,,,,0.9011,,,,,,,,,,,,,,,,,,,,,,61018830046d35da29ee579c,610377ec8309e0dd6f532a11,2021-07-29_20h56.50.597,Simcolourproject_2stim_asymm_v5,2020.2.10,MacIntel,60,61025ae37ef11b136ea224fe,,,,,,,,,2332,28.5703125,50.609375,1,0,0,response1disk,,7,16.30859375,14.69921875,1,0,0,rectangle,16.30859375,14.69921875,1,0,0,16.30859375,14.69921875,1,0,0,1,82,242,127,1,,,,,,,,
,,,,,,,,,,,,,FF,,,,,,,,0.9341,,,,,,,,,,,,,,,,,,,,,,61018830046d35da29ee579c,610377ec8309e0dd6f532a11,2021-07-29_20h56.50.597,Simcolourproject_2stim_asymm_v5,2020.2.10,MacIntel,60,61025ae37ef11b136ea224fe,,,,,,,,,3116,42.078125,29.66015625,1,0,0,response1disk,,6,23.53515625,-0.30859375,1,0,0,rectangle,23.53515625,-0.30859375,1,0,0,23.53515625,-0.30859375,1,0,0,1,83,243,50,1,,,,,,,,
,,,,,,,,,,,,,FF,,,,,,,,1.1712,,,,,,,,,,,,,,,,,,,,,,61018830046d35da29ee579c,610377ec8309e0dd6f532a11,2021-07-29_20h56.50.597,Simcolourproject_2stim_asymm_v5,2020.2.10,MacIntel,60,61025ae37ef11b136ea224fe,,,,,,,,,3578,32.49609375,72.82421875,1,0,0,response1disk,,7,17.24609375,9.2734375,1,0,0,rectangle,17.24609375,9.2734375,1,0,0,17.24609375,9.2734375,1,0,0,1,84,244,23,1,,,,,,,,
,,,,,,,,,,,,,FF,,,,,,,,1.2168,,,,,,,,,,,,,,,,,,,,,,61018830046d35da29ee579c,610377ec8309e0dd6f532a11,2021-07-29_20h56.50.597,Simcolourproject_2stim_asymm_v5,2020.2.10,MacIntel,60,61025ae37ef11b136ea224fe,,,,,,,,,1358,47.71484375,55.51171875,1,0,0,response1disk,,7,20.03515625,1.53125,1,0,0,rectangle,20.03515625,1.53125,1,0,0,20.03515625,1.53125,1,0,0,1,85,245,131,1,,,,,,,,
,,,,,,,,,,,,,FF,,,,,,,,0.9162,,,,,,,,,,,,,,,,,,,,,,61018830046d35da29ee579c,610377ec8309e0dd6f532a11,2021-07-29_20h56.50.597,Simcolourproject_2stim_asymm_v5,2020.2.10,MacIntel,60,61025ae37ef11b136ea224fe,,,,,,,,,1005,54.30078125,36.1484375,1,0,0,response1disk,,6,17.171875,6.13671875,1,0,0,rectangle,17.171875,6.13671875,1,0,0,17.171875,6.13671875,1,0,0,1,86,246,84,1,,,,,,,,
,,,,,,,,,,,,,FF,,,,,,,,0.9159,,,,,,,,,,,,,,,,,,,,,,61018830046d35da29ee579c,610377ec8309e0dd6f532a11,2021-07-29_20h56.50.597,Simcolourproject_2stim_asymm_v5,2020.2.10,MacIntel,60,61025ae37ef11b136ea224fe,,,,,,,,,4218,-68.94140625,51.79296875,1,0,0,response7disk,,1,-0.31640625,-4.12109375,1,0,0,rectangle,-0.31640625,-4.12109375,1,0,0,-0.31640625,-4.12109375,1,0,0,1,87,247,37,1,,,,,,,,
