key_resp.keys,key_resp.rt,key_resp_14.keys,key_resp_14.rt,key_resp_15.keys,key_resp_15.rt,key_resp_17.keys,key_resp_17.rt,key_resp_9.keys,key_resp_9.rt,key_resp_10.keys,key_resp_10.rt,practice_comparison,Ecc,mouse_5.x,mouse_5.y,mouse_5.leftButton,mouse_5.midButton,mouse_5.rightButton,mouse_5.clicked_name,pracsimilarity,response_time,mouse_10.x,mouse_10.y,mouse_10.leftButton,mouse_10.midButton,mouse_10.rightButton,mouse_10.clicked_name,mouse_7.x,mouse_7.y,mouse_7.leftButton,mouse_7.midButton,mouse_7.rightButton,mouse_6.x,mouse_6.y,mouse_6.leftButton,mouse_6.midButton,mouse_6.rightButton,duringprac.thisRepN,duringprac.thisTrialN,duringprac.thisN,duringprac.thisIndex,duringprac.ran,participant,session,date,expName,psychopyVersion,OS,frameRate,study_id,mouse_7.clicked_name,catchpracsimilarity,catch_response_time,catchnumberprac,catchtrialorderprac,mouse_6.clicked_name,key_resp_22.keys,key_resp_22.rt,realcomparison,mouse.x,mouse.y,mouse.leftButton,mouse.midButton,mouse.rightButton,mouse.clicked_name,Colour2,similarity,mouse_2.x,mouse_2.y,mouse_2.leftButton,mouse_2.midButton,mouse_2.rightButton,mouse_2.clicked_name,mouse_3.x,mouse_3.y,mouse_3.leftButton,mouse_3.midButton,mouse_3.rightButton,mouse_11.x,mouse_11.y,mouse_11.leftButton,mouse_11.midButton,mouse_11.rightButton,trials_2.thisRepN,trials_2.thisTrialN,trials_2.thisN,trials_2.thisIndex,trials_2.ran,Colour1,mouse_3.clicked_name,catchornah,catchsimilarity,catchnumber,catchtrialorder,catchRT,mouse_11.clicked_name
space,1.507,space,4.423,space,15.211,space,13.154,space,1.667,space,3.132,151,FF,78,89,1,0,0,response1disk_5,7,7.95,-2,-3,1,0,0,rectangle_8,-2,-3,1,0,0,-2,-3,1,0,0,0,0,0,3,1,610183ffbfe2d8b4c94fcf01,61036f10daa485dd0859af5b,2021-07-29_23h17.27.561,Simcolourproject_2stim_asymm_v5,2020.2.10,MacIntel,60,61025ae37ef11b136ea224fe,,,,,,,,,,,,,,,,,,,,,,,,,,,,,,,,,,,,,,,,,,,,,,
,,,,,,,,,,,,143,PF,35,69,1,0,0,response1disk_5,7,6.033,1,-4,1,0,0,rectangle_8,-84,34,1,0,0,8,0,1,0,0,0,1,1,4,1,610183ffbfe2d8b4c94fcf01,61036f10daa485dd0859af5b,2021-07-29_23h17.27.561,Simcolourproject_2stim_asymm_v5,2020.2.10,MacIntel,60,61025ae37ef11b136ea224fe,response7disk_7,1,3.333,1,"[2,5]",rectangle_4,,,,,,,,,,,,,,,,,,,,,,,,,,,,,,,,,,,,,,,,
,,,,,,,,,,,,45,PF,41,85,1,0,0,response1disk_5,7,4.032,-2,-1,1,0,0,rectangle_8,-2,-1,1,0,0,-2,-1,1,0,0,0,2,2,6,1,610183ffbfe2d8b4c94fcf01,61036f10daa485dd0859af5b,2021-07-29_23h17.27.561,Simcolourproject_2stim_asymm_v5,2020.2.10,MacIntel,60,61025ae37ef11b136ea224fe,,,,,,,,,,,,,,,,,,,,,,,,,,,,,,,,,,,,,,,,,,,,,,
,,,,,,,,,,,,50,FF,40,-82,1,0,0,response3disk_5,4,3.016,-7,-4,1,0,0,rectangle_8,-7,-4,1,0,0,-7,-4,1,0,0,0,3,3,0,1,610183ffbfe2d8b4c94fcf01,61036f10daa485dd0859af5b,2021-07-29_23h17.27.561,Simcolourproject_2stim_asymm_v5,2020.2.10,MacIntel,60,61025ae37ef11b136ea224fe,,,,,,,,,,,,,,,,,,,,,,,,,,,,,,,,,,,,,,,,,,,,,,
,,,,,,,,,,,,126,PF,-37,-91,1,0,0,response5disk_5,3,2.95,6,3,1,0,0,rectangle_8,-87,33,1,0,0,-4,0,1,0,0,0,4,4,2,1,610183ffbfe2d8b4c94fcf01,61036f10daa485dd0859af5b,2021-07-29_23h17.27.561,Simcolourproject_2stim_asymm_v5,2020.2.10,MacIntel,60,61025ae37ef11b136ea224fe,response7disk_7,1,1.799,1,"[2,5]",rectangle_4,,,,,,,,,,,,,,,,,,,,,,,,,,,,,,,,,,,,,,,,
,,,,,,,,,,,,34,FF,-40,-93,1,0,0,response5disk_5,3,2.5,-7,3,1,0,0,rectangle_8,-7,3,1,0,0,-7,3,1,0,0,0,5,5,5,1,610183ffbfe2d8b4c94fcf01,61036f10daa485dd0859af5b,2021-07-29_23h17.27.561,Simcolourproject_2stim_asymm_v5,2020.2.10,MacIntel,60,61025ae37ef11b136ea224fe,,,,,,,,,,,,,,,,,,,,,,,,,,,,,,,,,,,,,,,,,,,,,,
,,,,,,,,,,,,135,PF,-54,-93,1,0,0,response5disk_5,3,2.467,-5,-1,1,0,0,rectangle_8,-5,-1,1,0,0,-5,-1,1,0,0,0,6,6,1,1,610183ffbfe2d8b4c94fcf01,61036f10daa485dd0859af5b,2021-07-29_23h17.27.561,Simcolourproject_2stim_asymm_v5,2020.2.10,MacIntel,60,61025ae37ef11b136ea224fe,,,,,,,,,,,,,,,,,,,,,,,,,,,,,,,,,,,,,,,,,,,,,,
,,,,,,,,,,,,,FF,,,,,,,,2.299,,,,,,,,,,,,,,,,,,,,,,610183ffbfe2d8b4c94fcf01,61036f10daa485dd0859af5b,2021-07-29_23h17.27.561,Simcolourproject_2stim_asymm_v5,2020.2.10,MacIntel,60,61025ae37ef11b136ea224fe,,,,,,,space,2.259,2694,98,41,1,0,0,response1disk,,6,7,3,1,0,0,rectangle,7,3,1,0,0,7,3,1,0,0,0,0,0,52,1,,,,,,,,
,,,,,,,,,,,,,FF,,,,,,,,1.367,,,,,,,,,,,,,,,,,,,,,,610183ffbfe2d8b4c94fcf01,61036f10daa485dd0859af5b,2021-07-29_23h17.27.561,Simcolourproject_2stim_asymm_v5,2020.2.10,MacIntel,60,61025ae37ef11b136ea224fe,,,,,,,,,718,-74,-43,1,0,0,response5disk,,2,-4,-7,1,0,0,rectangle,-4,-7,1,0,0,-4,-7,1,0,0,0,1,1,37,1,,,,,,,,
,,,,,,,,,,,,,FF,,,,,,,,2.25,,,,,,,,,,,,,,,,,,,,,,610183ffbfe2d8b4c94fcf01,61036f10daa485dd0859af5b,2021-07-29_23h17.27.561,Simcolourproject_2stim_asymm_v5,2020.2.10,MacIntel,60,61025ae37ef11b136ea224fe,,,,,,,,,4332,33,-105,1,0,0,response3disk,,4,-8,0,1,0,0,rectangle,-8,0,1,0,0,-8,0,1,0,0,0,2,2,74,1,,,,,,,,
,,,,,,,,,,,,,FF,,,,,,,,2.584,,,,,,,,,,,,,,,,,,,,,,610183ffbfe2d8b4c94fcf01,61036f10daa485dd0859af5b,2021-07-29_23h17.27.561,Simcolourproject_2stim_asymm_v5,2020.2.10,MacIntel,60,61025ae37ef11b136ea224fe,,,,,,,,,3033,74,-35,1,0,0,response3disk,,5,-4,-3,1,0,0,rectangle,-4,-3,1,0,0,-4,-3,1,0,0,0,3,3,89,1,,,,,,,,
,,,,,,,,,,,,,FF,,,,,,,,2.616,,,,,,,,,,,,,,,,,,,,,,610183ffbfe2d8b4c94fcf01,61036f10daa485dd0859af5b,2021-07-29_23h17.27.561,Simcolourproject_2stim_asymm_v5,2020.2.10,MacIntel,60,61025ae37ef11b136ea224fe,,,,,,,,,355,-93,-50,1,0,0,response5disk,,2,1,-8,1,0,0,rectangle,1,-8,1,0,0,1,-8,1,0,0,0,4,4,53,1,,,,,,,,
,,,,,,,,,,,,,FF,,,,,,,,1.783,,,,,,,,,,,,,,,,,,,,,,610183ffbfe2d8b4c94fcf01,61036f10daa485dd0859af5b,2021-07-29_23h17.27.561,Simcolourproject_2stim_asymm_v5,2020.2.10,MacIntel,60,61025ae37ef11b136ea224fe,,,,,,,,,1346,92,-50,1,0,0,response3disk,,5,-2,2,1,0,0,rectangle,-2,2,1,0,0,-2,2,1,0,0,0,5,5,128,1,,,,,,,,
,,,,,,,,,,,,,FF,,,,,,,,1,,,,,,,,,,,,,,,,,,,,,,610183ffbfe2d8b4c94fcf01,61036f10daa485dd0859af5b,2021-07-29_23h17.27.561,Simcolourproject_2stim_asymm_v5,2020.2.10,MacIntel,60,61025ae37ef11b136ea224fe,,,,,,,,,311,74,37,1,0,0,response1disk,,6,-5,-5,1,0,0,rectangle,-5,-5,1,0,0,-5,-5,1,0,0,0,6,6,153,1,,,,,,,,
,,,,,,,,,,,,,FF,,,,,,,,1.066,,,,,,,,,,,,,,,,,,,,,,610183ffbfe2d8b4c94fcf01,61036f10daa485dd0859af5b,2021-07-29_23h17.27.561,Simcolourproject_2stim_asymm_v5,2020.2.10,MacIntel,60,61025ae37ef11b136ea224fe,,,,,,,,,1946,68,39,1,0,0,response1disk,,6,3,3,1,0,0,rectangle,3,3,1,0,0,3,3,1,0,0,0,7,7,12,1,,,,,,,,
,,,,,,,,,,,,,FF,,,,,,,,0.916,,,,,,,,,,,,,,,,,,,,,,610183ffbfe2d8b4c94fcf01,61036f10daa485dd0859af5b,2021-07-29_23h17.27.561,Simcolourproject_2stim_asymm_v5,2020.2.10,MacIntel,60,61025ae37ef11b136ea224fe,,,,,,,,,2674,47,-79,1,0,0,response3disk,,4,-8,-2,1,0,0,rectangle,-8,-2,1,0,0,-8,-2,1,0,0,0,8,8,42,1,,,,,,,,
,,,,,,,,,,,,,FF,,,,,,,,1.95,,,,,,,,,,,,,,,,,,,,,,610183ffbfe2d8b4c94fcf01,61036f10daa485dd0859af5b,2021-07-29_23h17.27.561,Simcolourproject_2stim_asymm_v5,2020.2.10,MacIntel,60,61025ae37ef11b136ea224fe,,,,,,,,,952,80,-29,1,0,0,response3disk,,5,-16,0,1,0,0,rectangle,-16,0,1,0,0,-16,0,1,0,0,0,9,9,150,1,,,,,,,,
,,,,,,,,,,,,,FF,,,,,,,,1.066,,,,,,,,,,,,,,,,,,,,,,610183ffbfe2d8b4c94fcf01,61036f10daa485dd0859af5b,2021-07-29_23h17.27.561,Simcolourproject_2stim_asymm_v5,2020.2.10,MacIntel,60,61025ae37ef11b136ea224fe,,,,,,,,,829,71,51,1,0,0,response1disk,,6,4,-1,1,0,0,rectangle,4,-1,1,0,0,4,-1,1,0,0,0,10,10,30,1,,,,,,,,
,,,,,,,,,,,,,FF,,,,,,,,0.933,,,,,,,,,,,,,,,,,,,,,,610183ffbfe2d8b4c94fcf01,61036f10daa485dd0859af5b,2021-07-29_23h17.27.561,Simcolourproject_2stim_asymm_v5,2020.2.10,MacIntel,60,61025ae37ef11b136ea224fe,,,,,,,,,4155,24,48,1,0,0,response1disk,,7,8,6,1,0,0,rectangle,8,6,1,0,0,8,6,1,0,0,0,11,11,72,1,,,,,,,,
,,,,,,,,,,,,,FF,,,,,,,,0.681,,,,,,,,,,,,,,,,,,,,,,610183ffbfe2d8b4c94fcf01,61036f10daa485dd0859af5b,2021-07-29_23h17.27.561,Simcolourproject_2stim_asymm_v5,2020.2.10,MacIntel,60,61025ae37ef11b136ea224fe,,,,,,,,,1245,39,66,1,0,0,response1disk,,7,3,-4,1,0,0,rectangle,3,-4,1,0,0,3,-4,1,0,0,0,12,12,145,1,,,,,,,,
,,,,,,,,,,,,,FF,,,,,,,,0.683,,,,,,,,,,,,,,,,,,,,,,610183ffbfe2d8b4c94fcf01,61036f10daa485dd0859af5b,2021-07-29_23h17.27.561,Simcolourproject_2stim_asymm_v5,2020.2.10,MacIntel,60,61025ae37ef11b136ea224fe,,,,,,,,,1341,31,59,1,0,0,response1disk,,7,1,-7,1,0,0,rectangle,1,-7,1,0,0,1,-7,1,0,0,0,13,13,155,1,,,,,,,,
,,,,,,,,,,,,,FF,,,,,,,,0.983,,,,,,,,,,,,,,,,,,,,,,610183ffbfe2d8b4c94fcf01,61036f10daa485dd0859af5b,2021-07-29_23h17.27.561,Simcolourproject_2stim_asymm_v5,2020.2.10,MacIntel,60,61025ae37ef11b136ea224fe,,,,,,,,,2911,34,66,1,0,0,response1disk,,7,-6,-11,1,0,0,rectangle,-6,-11,1,0,0,-6,-11,1,0,0,0,14,14,142,1,,,,,,,,
,,,,,,,,,,,,,FF,,,,,,,,1.249,,,,,,,,,,,,,,,,,,,,,,610183ffbfe2d8b4c94fcf01,61036f10daa485dd0859af5b,2021-07-29_23h17.27.561,Simcolourproject_2stim_asymm_v5,2020.2.10,MacIntel,60,61025ae37ef11b136ea224fe,,,,,,,,,3877,53,-44,1,0,0,response3disk,,5,1,0,1,0,0,rectangle,1,0,1,0,0,1,0,1,0,0,0,15,15,47,1,,,,,,,,
,,,,,,,,,,,,,FF,,,,,,,,0.749,,,,,,,,,,,,,,,,,,,,,,610183ffbfe2d8b4c94fcf01,61036f10daa485dd0859af5b,2021-07-29_23h17.27.561,Simcolourproject_2stim_asymm_v5,2020.2.10,MacIntel,60,61025ae37ef11b136ea224fe,,,,,,,,,337,77,48,1,0,0,response1disk,,6,9,9,1,0,0,rectangle,9,9,1,0,0,9,9,1,0,0,0,16,16,65,1,,,,,,,,
,,,,,,,,,,,,,FF,,,,,,,,0.751,,,,,,,,,,,,,,,,,,,,,,610183ffbfe2d8b4c94fcf01,61036f10daa485dd0859af5b,2021-07-29_23h17.27.561,Simcolourproject_2stim_asymm_v5,2020.2.10,MacIntel,60,61025ae37ef11b136ea224fe,,,,,,,,,3950,76,26,1,0,0,response1disk,,6,11,4,1,0,0,rectangle,11,4,1,0,0,11,4,1,0,0,0,17,17,60,1,,,,,,,,
,,,,,,,,,,,,,FF,,,,,,,,0.734,,,,,,,,,,,,,,,,,,,,,,610183ffbfe2d8b4c94fcf01,61036f10daa485dd0859af5b,2021-07-29_23h17.27.561,Simcolourproject_2stim_asymm_v5,2020.2.10,MacIntel,60,61025ae37ef11b136ea224fe,,,,,,,,,239,41,55,1,0,0,response1disk,,7,13,1,1,0,0,rectangle,13,1,1,0,0,13,1,1,0,0,0,18,18,10,1,,,,,,,,
,,,,,,,,,,,,,FF,,,,,,,,1.683,,,,,,,,,,,,,,,,,,,,,,610183ffbfe2d8b4c94fcf01,61036f10daa485dd0859af5b,2021-07-29_23h17.27.561,Simcolourproject_2stim_asymm_v5,2020.2.10,MacIntel,60,61025ae37ef11b136ea224fe,,,,,,,,,475,55,98,1,0,0,response1disk,,7,-4,-10,1,0,0,rectangle,-4,-10,1,0,0,-4,-10,1,0,0,0,19,19,113,1,,,,,,,,
,,,,,,,,,,,,,FF,,,,,,,,0.783,,,,,,,,,,,,,,,,,,,,,,610183ffbfe2d8b4c94fcf01,61036f10daa485dd0859af5b,2021-07-29_23h17.27.561,Simcolourproject_2stim_asymm_v5,2020.2.10,MacIntel,60,61025ae37ef11b136ea224fe,,,,,,,,,3358,42,82,1,0,0,response1disk,,7,8,-2,1,0,0,rectangle,8,-2,1,0,0,8,-2,1,0,0,0,20,20,54,1,,,,,,,,
,,,,,,,,,,,,,FF,,,,,,,,0.867,,,,,,,,,,,,,,,,,,,,,,610183ffbfe2d8b4c94fcf01,61036f10daa485dd0859af5b,2021-07-29_23h17.27.561,Simcolourproject_2stim_asymm_v5,2020.2.10,MacIntel,60,61025ae37ef11b136ea224fe,,,,,,,,,1220,-39,-80,1,0,0,response5disk,,3,13,-2,1,0,0,rectangle,13,-2,1,0,0,13,-2,1,0,0,0,21,21,33,1,,,,,,,,
,,,,,,,,,,,,,FF,,,,,,,,1.149,,,,,,,,,,,,,,,,,,,,,,610183ffbfe2d8b4c94fcf01,61036f10daa485dd0859af5b,2021-07-29_23h17.27.561,Simcolourproject_2stim_asymm_v5,2020.2.10,MacIntel,60,61025ae37ef11b136ea224fe,,,,,,,,,3850,-45,-103,1,0,0,response5disk,,3,-6,2,1,0,0,rectangle,-6,2,1,0,0,-6,2,1,0,0,0,22,22,45,1,,,,,,,,
,,,,,,,,,,,,,FF,,,,,,,,1.567,,,,,,,,,,,,,,,,,,,,,,610183ffbfe2d8b4c94fcf01,61036f10daa485dd0859af5b,2021-07-29_23h17.27.561,Simcolourproject_2stim_asymm_v5,2020.2.10,MacIntel,60,61025ae37ef11b136ea224fe,,,,,,,,,3388,-74,40,1,0,0,response7disk,,1,-2,3,1,0,0,rectangle,-2,3,1,0,0,-2,3,1,0,0,0,23,23,159,1,,,,,,,,
,,,,,,,,,,,,,FF,,,,,,,,0.816,,,,,,,,,,,,,,,,,,,,,,610183ffbfe2d8b4c94fcf01,61036f10daa485dd0859af5b,2021-07-29_23h17.27.561,Simcolourproject_2stim_asymm_v5,2020.2.10,MacIntel,60,61025ae37ef11b136ea224fe,,,,,,,,,2968,32,58,1,0,0,response1disk,,7,11,2,1,0,0,rectangle,11,2,1,0,0,11,2,1,0,0,0,24,24,147,1,,,,,,,,
,,,,,,,,,,,,,FF,,,,,,,,1.184,,,,,,,,,,,,,,,,,,,,,,610183ffbfe2d8b4c94fcf01,61036f10daa485dd0859af5b,2021-07-29_23h17.27.561,Simcolourproject_2stim_asymm_v5,2020.2.10,MacIntel,60,61025ae37ef11b136ea224fe,,,,,,,,,824,33,-81,1,0,0,response3disk,,4,0,12,1,0,0,rectangle,0,12,1,0,0,0,12,1,0,0,0,25,25,78,1,,,,,,,,
,,,,,,,,,,,,,FF,,,,,,,,1.049,,,,,,,,,,,,,,,,,,,,,,610183ffbfe2d8b4c94fcf01,61036f10daa485dd0859af5b,2021-07-29_23h17.27.561,Simcolourproject_2stim_asymm_v5,2020.2.10,MacIntel,60,61025ae37ef11b136ea224fe,,,,,,,,,2052,87,28,1,0,0,response1disk,,6,20,12,1,0,0,rectangle,20,12,1,0,0,20,12,1,0,0,0,26,26,99,1,,,,,,,,
,,,,,,,,,,,,,FF,,,,,,,,0.649,,,,,,,,,,,,,,,,,,,,,,610183ffbfe2d8b4c94fcf01,61036f10daa485dd0859af5b,2021-07-29_23h17.27.561,Simcolourproject_2stim_asymm_v5,2020.2.10,MacIntel,60,61025ae37ef11b136ea224fe,,,,,,,,,3613,39,39,1,0,0,response1disk,,7,21,-8,1,0,0,rectangle,21,-8,1,0,0,21,-8,1,0,0,0,27,27,11,1,,,,,,,,
,,,,,,,,,,,,,FF,,,,,,,,0.616,,,,,,,,,,,,,,,,,,,,,,610183ffbfe2d8b4c94fcf01,61036f10daa485dd0859af5b,2021-07-29_23h17.27.561,Simcolourproject_2stim_asymm_v5,2020.2.10,MacIntel,60,61025ae37ef11b136ea224fe,,,,,,,,,2126,30,53,1,0,0,response1disk,,7,14,12,1,0,0,rectangle,14,12,1,0,0,14,12,1,0,0,0,28,28,14,1,,,,,,,,
,,,,,,,,,,,,,FF,,,,,,,,0.817,,,,,,,,,,,,,,,,,,,,,,610183ffbfe2d8b4c94fcf01,61036f10daa485dd0859af5b,2021-07-29_23h17.27.561,Simcolourproject_2stim_asymm_v5,2020.2.10,MacIntel,60,61025ae37ef11b136ea224fe,,,,,,,,,2728,-24,-78,1,0,0,response5disk,,3,6,5,1,0,0,rectangle,6,5,1,0,0,6,5,1,0,0,0,29,29,28,1,,,,,,,,
,,,,,,,,,,,,,FF,,,,,,,,0.832,,,,,,,,,,,,,,,,,,,,,,610183ffbfe2d8b4c94fcf01,61036f10daa485dd0859af5b,2021-07-29_23h17.27.561,Simcolourproject_2stim_asymm_v5,2020.2.10,MacIntel,60,61025ae37ef11b136ea224fe,,,,,,,,,36,79,-51,1,0,0,response3disk,,5,-7,-2,1,0,0,rectangle,-7,-2,1,0,0,-7,-2,1,0,0,0,30,30,75,1,,,,,,,,
,,,,,,,,,,,,,FF,,,,,,,,0.719,,,,,,,,,,,,,,,,,,,,,,610183ffbfe2d8b4c94fcf01,61036f10daa485dd0859af5b,2021-07-29_23h17.27.561,Simcolourproject_2stim_asymm_v5,2020.2.10,MacIntel,60,61025ae37ef11b136ea224fe,,,,,,,,,966,46,54,1,0,0,response1disk,,7,10,3,1,0,0,rectangle,10,3,1,0,0,10,3,1,0,0,0,31,31,5,1,,,,,,,,
,,,,,,,,,,,,,FF,,,,,,,,0.682,,,,,,,,,,,,,,,,,,,,,,610183ffbfe2d8b4c94fcf01,61036f10daa485dd0859af5b,2021-07-29_23h17.27.561,Simcolourproject_2stim_asymm_v5,2020.2.10,MacIntel,60,61025ae37ef11b136ea224fe,,,,,,,,,2149,23,49,1,0,0,response1disk,,7,5,4,1,0,0,rectangle,5,4,1,0,0,5,4,1,0,0,0,32,32,7,1,,,,,,,,
,,,,,,,,,,,,,FF,,,,,,,,0.732,,,,,,,,,,,,,,,,,,,,,,610183ffbfe2d8b4c94fcf01,61036f10daa485dd0859af5b,2021-07-29_23h17.27.561,Simcolourproject_2stim_asymm_v5,2020.2.10,MacIntel,60,61025ae37ef11b136ea224fe,,,,,,,,,2842,57,32,1,0,0,response1disk,,6,14,12,1,0,0,rectangle,14,12,1,0,0,14,12,1,0,0,0,33,33,2,1,,,,,,,,
,,,,,,,,,,,,,FF,,,,,,,,1.201,,,,,,,,,,,,,,,,,,,,,,610183ffbfe2d8b4c94fcf01,61036f10daa485dd0859af5b,2021-07-29_23h17.27.561,Simcolourproject_2stim_asymm_v5,2020.2.10,MacIntel,60,61025ae37ef11b136ea224fe,,,,,,,,,1373,-46,-120,1,0,0,response5disk,,3,-5,-1,1,0,0,rectangle,-5,-1,1,0,0,-5,-1,1,0,0,0,34,34,139,1,,,,,,,,
,,,,,,,,,,,,,FF,,,,,,,,0.867,,,,,,,,,,,,,,,,,,,,,,610183ffbfe2d8b4c94fcf01,61036f10daa485dd0859af5b,2021-07-29_23h17.27.561,Simcolourproject_2stim_asymm_v5,2020.2.10,MacIntel,60,61025ae37ef11b136ea224fe,,,,,,,,,2681,65,-28,1,0,0,response3disk,,5,-5,-3,1,0,0,rectangle,-5,-3,1,0,0,-5,-3,1,0,0,0,35,35,119,1,,,,,,,,
,,,,,,,,,,,,,FF,,,,,,,,1.649,,,,,,,,,,,,,,,,,,,,,,610183ffbfe2d8b4c94fcf01,61036f10daa485dd0859af5b,2021-07-29_23h17.27.561,Simcolourproject_2stim_asymm_v5,2020.2.10,MacIntel,60,61025ae37ef11b136ea224fe,,,,,,,,,78,-25,-87,1,0,0,response5disk,,3,3,-4,1,0,0,rectangle,3,-4,1,0,0,3,-4,1,0,0,0,36,36,135,1,,,,,,,,
,,,,,,,,,,,,,FF,,,,,,,,0.733,,,,,,,,,,,,,,,,,,,,,,610183ffbfe2d8b4c94fcf01,61036f10daa485dd0859af5b,2021-07-29_23h17.27.561,Simcolourproject_2stim_asymm_v5,2020.2.10,MacIntel,60,61025ae37ef11b136ea224fe,,,,,,,,,3816,-38,-74,1,0,0,response5disk,,3,-5,-10,1,0,0,rectangle,-5,-10,1,0,0,-5,-10,1,0,0,0,37,37,136,1,,,,,,,,
,,,,,,,,,,,,,FF,,,,,,,,0.698,,,,,,,,,,,,,,,,,,,,,,610183ffbfe2d8b4c94fcf01,61036f10daa485dd0859af5b,2021-07-29_23h17.27.561,Simcolourproject_2stim_asymm_v5,2020.2.10,MacIntel,60,61025ae37ef11b136ea224fe,,,,,,,,,1387,44,-59,1,0,0,response3disk,,4,-14,0,1,0,0,rectangle,-14,0,1,0,0,-14,0,1,0,0,0,38,38,140,1,,,,,,,,
,,,,,,,,,,,,,FF,,,,,,,,0.699,,,,,,,,,,,,,,,,,,,,,,610183ffbfe2d8b4c94fcf01,61036f10daa485dd0859af5b,2021-07-29_23h17.27.561,Simcolourproject_2stim_asymm_v5,2020.2.10,MacIntel,60,61025ae37ef11b136ea224fe,,,,,,,,,667,81,-30,1,0,0,response3disk,,5,17,7,1,0,0,rectangle,17,7,1,0,0,17,7,1,0,0,0,39,39,92,1,,,,,,,,
,,,,,,,,,,,,,FF,,,,,,,,0.716,,,,,,,,,,,,,,,,,,,,,,610183ffbfe2d8b4c94fcf01,61036f10daa485dd0859af5b,2021-07-29_23h17.27.561,Simcolourproject_2stim_asymm_v5,2020.2.10,MacIntel,60,61025ae37ef11b136ea224fe,,,,,,,,,575,75,-42,1,0,0,response3disk,,5,18,0,1,0,0,rectangle,18,0,1,0,0,18,0,1,0,0,0,40,40,146,1,,,,,,,,
,,,,,,,,,,,,,FF,,,,,,,,2.418,,,,,,,,,,,,,,,,,,,,,,610183ffbfe2d8b4c94fcf01,61036f10daa485dd0859af5b,2021-07-29_23h17.27.561,Simcolourproject_2stim_asymm_v5,2020.2.10,MacIntel,60,61025ae37ef11b136ea224fe,,,,,,,,,2173,40,-69,1,0,0,response3disk,,4,-13,16,1,0,0,rectangle,-13,16,1,0,0,-13,16,1,0,0,0,41,41,114,1,,,,,,,,
,,,,,,,,,,,,,FF,,,,,,,,1.483,,,,,,,,,,,,,,,,,,,,,,610183ffbfe2d8b4c94fcf01,61036f10daa485dd0859af5b,2021-07-29_23h17.27.561,Simcolourproject_2stim_asymm_v5,2020.2.10,MacIntel,60,61025ae37ef11b136ea224fe,,,,,,,,,4036,30,79,1,0,0,response1disk,,7,9,11,1,0,0,rectangle,9,11,1,0,0,9,11,1,0,0,0,42,42,138,1,,,,,,,,
,,,,,,,,,,,,,FF,,,,,,,,0.733,,,,,,,,,,,,,,,,,,,,,,610183ffbfe2d8b4c94fcf01,61036f10daa485dd0859af5b,2021-07-29_23h17.27.561,Simcolourproject_2stim_asymm_v5,2020.2.10,MacIntel,60,61025ae37ef11b136ea224fe,,,,,,,,,1342,26,47,1,0,0,response1disk,,7,4,2,1,0,0,rectangle,4,2,1,0,0,4,2,1,0,0,0,43,43,123,1,,,,,,,,
,,,,,,,,,,,,,FF,,,,,,,,0.5,,,,,,,,,,,,,,,,,,,,,,610183ffbfe2d8b4c94fcf01,61036f10daa485dd0859af5b,2021-07-29_23h17.27.561,Simcolourproject_2stim_asymm_v5,2020.2.10,MacIntel,60,61025ae37ef11b136ea224fe,,,,,,,,,1651,32,51,1,0,0,response1disk,,7,13,5,1,0,0,rectangle,13,5,1,0,0,13,5,1,0,0,0,44,44,154,1,,,,,,,,
,,,,,,,,,,,,,FF,,,,,,,,0.6,,,,,,,,,,,,,,,,,,,,,,610183ffbfe2d8b4c94fcf01,61036f10daa485dd0859af5b,2021-07-29_23h17.27.561,Simcolourproject_2stim_asymm_v5,2020.2.10,MacIntel,60,61025ae37ef11b136ea224fe,,,,,,,,,200,30,69,1,0,0,response1disk,,7,13,1,1,0,0,rectangle,13,1,1,0,0,13,1,1,0,0,0,45,45,108,1,,,,,,,,
,,,,,,,,,,,,,FF,,,,,,,,0.6,,,,,,,,,,,,,,,,,,,,,,610183ffbfe2d8b4c94fcf01,61036f10daa485dd0859af5b,2021-07-29_23h17.27.561,Simcolourproject_2stim_asymm_v5,2020.2.10,MacIntel,60,61025ae37ef11b136ea224fe,,,,,,,,,605,26,65,1,0,0,response1disk,,7,14,-3,1,0,0,rectangle,14,-3,1,0,0,14,-3,1,0,0,0,46,46,137,1,,,,,,,,
,,,,,,,,,,,,,FF,,,,,,,,0.549,,,,,,,,,,,,,,,,,,,,,,610183ffbfe2d8b4c94fcf01,61036f10daa485dd0859af5b,2021-07-29_23h17.27.561,Simcolourproject_2stim_asymm_v5,2020.2.10,MacIntel,60,61025ae37ef11b136ea224fe,,,,,,,,,2504,28,58,1,0,0,response1disk,,7,17,11,1,0,0,rectangle,17,11,1,0,0,17,11,1,0,0,0,47,47,86,1,,,,,,,,
,,,,,,,,,,,,,FF,,,,,,,,0.583,,,,,,,,,,,,,,,,,,,,,,610183ffbfe2d8b4c94fcf01,61036f10daa485dd0859af5b,2021-07-29_23h17.27.561,Simcolourproject_2stim_asymm_v5,2020.2.10,MacIntel,60,61025ae37ef11b136ea224fe,,,,,,,,,3401,28,67,1,0,0,response1disk,,7,11,3,1,0,0,rectangle,11,3,1,0,0,11,3,1,0,0,0,48,48,13,1,,,,,,,,
,,,,,,,,,,,,,FF,,,,,,,,0.483,,,,,,,,,,,,,,,,,,,,,,610183ffbfe2d8b4c94fcf01,61036f10daa485dd0859af5b,2021-07-29_23h17.27.561,Simcolourproject_2stim_asymm_v5,2020.2.10,MacIntel,60,61025ae37ef11b136ea224fe,,,,,,,,,1652,34,82,1,0,0,response1disk,,7,12,10,1,0,0,rectangle,12,10,1,0,0,12,10,1,0,0,0,49,49,125,1,,,,,,,,
,,,,,,,,,,,,,FF,,,,,,,,0.85,,,,,,,,,,,,,,,,,,,,,,610183ffbfe2d8b4c94fcf01,61036f10daa485dd0859af5b,2021-07-29_23h17.27.561,Simcolourproject_2stim_asymm_v5,2020.2.10,MacIntel,60,61025ae37ef11b136ea224fe,,,,,,,,,3682,100,-42,1,0,0,response3disk,,5,-3,-5,1,0,0,rectangle,-3,-5,1,0,0,-3,-5,1,0,0,0,50,50,44,1,,,,,,,,
,,,,,,,,,,,,,FF,,,,,,,,0.817,,,,,,,,,,,,,,,,,,,,,,610183ffbfe2d8b4c94fcf01,61036f10daa485dd0859af5b,2021-07-29_23h17.27.561,Simcolourproject_2stim_asymm_v5,2020.2.10,MacIntel,60,61025ae37ef11b136ea224fe,,,,,,,,,1658,35,58,1,0,0,response1disk,,7,7,14,1,0,0,rectangle,7,14,1,0,0,7,14,1,0,0,0,51,51,46,1,,,,,,,,
,,,,,,,,,,,,,FF,,,,,,,,0.549,,,,,,,,,,,,,,,,,,,,,,610183ffbfe2d8b4c94fcf01,61036f10daa485dd0859af5b,2021-07-29_23h17.27.561,Simcolourproject_2stim_asymm_v5,2020.2.10,MacIntel,60,61025ae37ef11b136ea224fe,,,,,,,,,2811,29,48,1,0,0,response1disk,,7,14,12,1,0,0,rectangle,14,12,1,0,0,14,12,1,0,0,0,52,52,126,1,,,,,,,,
,,,,,,,,,,,,,FF,,,,,,,,1.383,,,,,,,,,,,,,,,,,,,,,,610183ffbfe2d8b4c94fcf01,61036f10daa485dd0859af5b,2021-07-29_23h17.27.561,Simcolourproject_2stim_asymm_v5,2020.2.10,MacIntel,60,61025ae37ef11b136ea224fe,,,,,,,,,3010,42,25,1,0,0,response1disk,,6,6,9,1,0,0,rectangle,6,9,1,0,0,6,9,1,0,0,0,53,53,133,1,,,,,,,,
,,,,,,,,,,,,,FF,,,,,,,,0.717,,,,,,,,,,,,,,,,,,,,,,610183ffbfe2d8b4c94fcf01,61036f10daa485dd0859af5b,2021-07-29_23h17.27.561,Simcolourproject_2stim_asymm_v5,2020.2.10,MacIntel,60,61025ae37ef11b136ea224fe,,,,,,,,,3314,39,66,1,0,0,response1disk,,7,13,4,1,0,0,rectangle,13,4,1,0,0,13,4,1,0,0,0,54,54,6,1,,,,,,,,
,,,,,,,,,,,,,FF,,,,,,,,0.7,,,,,,,,,,,,,,,,,,,,,,610183ffbfe2d8b4c94fcf01,61036f10daa485dd0859af5b,2021-07-29_23h17.27.561,Simcolourproject_2stim_asymm_v5,2020.2.10,MacIntel,60,61025ae37ef11b136ea224fe,,,,,,,,,3554,-56,-86,1,0,0,response5disk,,3,10,-1,1,0,0,rectangle,10,-1,1,0,0,10,-1,1,0,0,0,55,55,21,1,,,,,,,,
,,,,,,,,,,,,,FF,,,,,,,,0.533,,,,,,,,,,,,,,,,,,,,,,610183ffbfe2d8b4c94fcf01,61036f10daa485dd0859af5b,2021-07-29_23h17.27.561,Simcolourproject_2stim_asymm_v5,2020.2.10,MacIntel,60,61025ae37ef11b136ea224fe,,,,,,,,,1110,87,-35,1,0,0,response3disk,,5,5,5,1,0,0,rectangle,5,5,1,0,0,5,5,1,0,0,0,56,56,122,1,,,,,,,,
,,,,,,,,,,,,,FF,,,,,,,,0.783,,,,,,,,,,,,,,,,,,,,,,610183ffbfe2d8b4c94fcf01,61036f10daa485dd0859af5b,2021-07-29_23h17.27.561,Simcolourproject_2stim_asymm_v5,2020.2.10,MacIntel,60,61025ae37ef11b136ea224fe,,,,,,,,,2111,44,68,1,0,0,response1disk,,7,19,8,1,0,0,rectangle,19,8,1,0,0,19,8,1,0,0,0,57,57,148,1,,,,,,,,
,,,,,,,,,,,,,FF,,,,,,,,0.533,,,,,,,,,,,,,,,,,,,,,,610183ffbfe2d8b4c94fcf01,61036f10daa485dd0859af5b,2021-07-29_23h17.27.561,Simcolourproject_2stim_asymm_v5,2020.2.10,MacIntel,60,61025ae37ef11b136ea224fe,,,,,,,,,3119,30,45,1,0,0,response1disk,,7,15,9,1,0,0,rectangle,15,9,1,0,0,15,9,1,0,0,0,58,58,94,1,,,,,,,,
,,,,,,,,,,,,,FF,,,,,,,,1.216,,,,,,,,,,,,,,,,,,,,,,610183ffbfe2d8b4c94fcf01,61036f10daa485dd0859af5b,2021-07-29_23h17.27.561,Simcolourproject_2stim_asymm_v5,2020.2.10,MacIntel,60,61025ae37ef11b136ea224fe,,,,,,,,,615,43,-98,1,0,0,response3disk,,4,-4,-4,1,0,0,rectangle,-4,-4,1,0,0,-4,-4,1,0,0,0,59,59,143,1,,,,,,,,
,,,,,,,,,,,,,FF,,,,,,,,1.301,,,,,,,,,,,,,,,,,,,,,,610183ffbfe2d8b4c94fcf01,61036f10daa485dd0859af5b,2021-07-29_23h17.27.561,Simcolourproject_2stim_asymm_v5,2020.2.10,MacIntel,60,61025ae37ef11b136ea224fe,,,,,,,,,2007,23,41,1,0,0,response1disk,,7,12,13,1,0,0,rectangle,12,13,1,0,0,12,13,1,0,0,0,60,60,117,1,,,,,,,,
,,,,,,,,,,,,,FF,,,,,,,,0.667,,,,,,,,,,,,,,,,,,,,,,610183ffbfe2d8b4c94fcf01,61036f10daa485dd0859af5b,2021-07-29_23h17.27.561,Simcolourproject_2stim_asymm_v5,2020.2.10,MacIntel,60,61025ae37ef11b136ea224fe,,,,,,,,,2339,35,70,1,0,0,response1disk,,7,16,14,1,0,0,rectangle,16,14,1,0,0,16,14,1,0,0,0,61,61,96,1,,,,,,,,
,,,,,,,,,,,,,FF,,,,,,,,0.616,,,,,,,,,,,,,,,,,,,,,,610183ffbfe2d8b4c94fcf01,61036f10daa485dd0859af5b,2021-07-29_23h17.27.561,Simcolourproject_2stim_asymm_v5,2020.2.10,MacIntel,60,61025ae37ef11b136ea224fe,,,,,,,,,4093,53,28,1,0,0,response1disk,,6,11,13,1,0,0,rectangle,11,13,1,0,0,11,13,1,0,0,0,62,62,82,1,,,,,,,,
,,,,,,,,,,,,,FF,,,,,,,,0.7,,,,,,,,,,,,,,,,,,,,,,610183ffbfe2d8b4c94fcf01,61036f10daa485dd0859af5b,2021-07-29_23h17.27.561,Simcolourproject_2stim_asymm_v5,2020.2.10,MacIntel,60,61025ae37ef11b136ea224fe,,,,,,,,,4064,36,51,1,0,0,response1disk,,7,22,-4,1,0,0,rectangle,-91,-22,1,0,0,-3,-12,1,0,0,0,63,63,98,1,,response5disk_3,TRUE,2,2,"[64,318,103,90,286,166,300,300,73,303,285,257,65,239,95,184,105,185,189,168]",1.65,rectangle
,,,,,,,,,,,,,FF,,,,,,,,1.016,,,,,,,,,,,,,,,,,,,,,,610183ffbfe2d8b4c94fcf01,61036f10daa485dd0859af5b,2021-07-29_23h17.27.561,Simcolourproject_2stim_asymm_v5,2020.2.10,MacIntel,60,61025ae37ef11b136ea224fe,,,,,,,,,634,30,-99,1,0,0,response3disk,,4,8,3,1,0,0,rectangle,34,88,1,0,0,-6,-3,1,0,0,0,64,64,64,1,,response1disk_3,TRUE,7,7,"[64,318,103,90,286,166,300,300,73,303,285,257,65,239,95,184,105,185,189,168]",2.015,rectangle
,,,,,,,,,,,,,FF,,,,,,,,0.816,,,,,,,,,,,,,,,,,,,,,,610183ffbfe2d8b4c94fcf01,61036f10daa485dd0859af5b,2021-07-29_23h17.27.561,Simcolourproject_2stim_asymm_v5,2020.2.10,MacIntel,60,61025ae37ef11b136ea224fe,,,,,,,,,2583,70,-43,1,0,0,response3disk,,5,-8,4,1,0,0,rectangle,-8,4,1,0,0,-8,4,1,0,0,0,65,65,22,1,,,,,,,,
,,,,,,,,,,,,,FF,,,,,,,,0.751,,,,,,,,,,,,,,,,,,,,,,610183ffbfe2d8b4c94fcf01,61036f10daa485dd0859af5b,2021-07-29_23h17.27.561,Simcolourproject_2stim_asymm_v5,2020.2.10,MacIntel,60,61025ae37ef11b136ea224fe,,,,,,,,,3459,43,83,1,0,0,response1disk,,7,16,8,1,0,0,rectangle,16,8,1,0,0,16,8,1,0,0,0,66,66,9,1,,,,,,,,
,,,,,,,,,,,,,FF,,,,,,,,1.183,,,,,,,,,,,,,,,,,,,,,,610183ffbfe2d8b4c94fcf01,61036f10daa485dd0859af5b,2021-07-29_23h17.27.561,Simcolourproject_2stim_asymm_v5,2020.2.10,MacIntel,60,61025ae37ef11b136ea224fe,,,,,,,,,473,69,-38,1,0,0,response3disk,,5,1,-3,1,0,0,rectangle,1,-3,1,0,0,1,-3,1,0,0,0,67,67,49,1,,,,,,,,
,,,,,,,,,,,,,FF,,,,,,,,0.583,,,,,,,,,,,,,,,,,,,,,,610183ffbfe2d8b4c94fcf01,61036f10daa485dd0859af5b,2021-07-29_23h17.27.561,Simcolourproject_2stim_asymm_v5,2020.2.10,MacIntel,60,61025ae37ef11b136ea224fe,,,,,,,,,2970,44,66,1,0,0,response1disk,,7,26,14,1,0,0,rectangle,26,14,1,0,0,26,14,1,0,0,0,68,68,87,1,,,,,,,,
,,,,,,,,,,,,,FF,,,,,,,,0.583,,,,,,,,,,,,,,,,,,,,,,610183ffbfe2d8b4c94fcf01,61036f10daa485dd0859af5b,2021-07-29_23h17.27.561,Simcolourproject_2stim_asymm_v5,2020.2.10,MacIntel,60,61025ae37ef11b136ea224fe,,,,,,,,,669,29,41,1,0,0,response1disk,,7,17,8,1,0,0,rectangle,17,8,1,0,0,17,8,1,0,0,0,69,69,48,1,,,,,,,,
,,,,,,,,,,,,,FF,,,,,,,,0.583,,,,,,,,,,,,,,,,,,,,,,610183ffbfe2d8b4c94fcf01,61036f10daa485dd0859af5b,2021-07-29_23h17.27.561,Simcolourproject_2stim_asymm_v5,2020.2.10,MacIntel,60,61025ae37ef11b136ea224fe,,,,,,,,,919,43,75,1,0,0,response1disk,,7,20,10,1,0,0,rectangle,20,10,1,0,0,20,10,1,0,0,0,70,70,134,1,,,,,,,,
,,,,,,,,,,,,,FF,,,,,,,,0.716,,,,,,,,,,,,,,,,,,,,,,610183ffbfe2d8b4c94fcf01,61036f10daa485dd0859af5b,2021-07-29_23h17.27.561,Simcolourproject_2stim_asymm_v5,2020.2.10,MacIntel,60,61025ae37ef11b136ea224fe,,,,,,,,,3323,40,49,1,0,0,response1disk,,7,15,-12,1,0,0,rectangle,15,-12,1,0,0,15,-12,1,0,0,0,71,71,141,1,,,,,,,,
,,,,,,,,,,,,,FF,,,,,,,,0.834,,,,,,,,,,,,,,,,,,,,,,610183ffbfe2d8b4c94fcf01,61036f10daa485dd0859af5b,2021-07-29_23h17.27.561,Simcolourproject_2stim_asymm_v5,2020.2.10,MacIntel,60,61025ae37ef11b136ea224fe,,,,,,,,,1214,-39,-96,1,0,0,response5disk,,3,0,1,1,0,0,rectangle,-31,-90,1,0,0,17,9,1,0,0,0,72,72,3,1,,response5disk_3,TRUE,3,3,"[64,318,103,90,286,166,300,300,73,303,285,257,65,239,95,184,105,185,189,168]",4.599,rectangle
,,,,,,,,,,,,,FF,,,,,,,,0.715,,,,,,,,,,,,,,,,,,,,,,610183ffbfe2d8b4c94fcf01,61036f10daa485dd0859af5b,2021-07-29_23h17.27.561,Simcolourproject_2stim_asymm_v5,2020.2.10,MacIntel,60,61025ae37ef11b136ea224fe,,,,,,,,,1177,26,46,1,0,0,response1disk,,7,13,1,1,0,0,rectangle,13,1,1,0,0,13,1,1,0,0,0,73,73,80,1,,,,,,,,
,,,,,,,,,,,,,FF,,,,,,,,1.648,,,,,,,,,,,,,,,,,,,,,,610183ffbfe2d8b4c94fcf01,61036f10daa485dd0859af5b,2021-07-29_23h17.27.561,Simcolourproject_2stim_asymm_v5,2020.2.10,MacIntel,60,61025ae37ef11b136ea224fe,,,,,,,,,3245,-91,-53,1,0,0,response5disk,,2,-15,6,1,0,0,rectangle,-15,6,1,0,0,-15,6,1,0,0,0,74,74,127,1,,,,,,,,
,,,,,,,,,,,,,FF,,,,,,,,0.949,,,,,,,,,,,,,,,,,,,,,,610183ffbfe2d8b4c94fcf01,61036f10daa485dd0859af5b,2021-07-29_23h17.27.561,Simcolourproject_2stim_asymm_v5,2020.2.10,MacIntel,60,61025ae37ef11b136ea224fe,,,,,,,,,1941,74,38,1,0,0,response1disk,,6,-2,-4,1,0,0,rectangle,-2,-4,1,0,0,-2,-4,1,0,0,0,75,75,131,1,,,,,,,,
,,,,,,,,,,,,,FF,,,,,,,,0.666,,,,,,,,,,,,,,,,,,,,,,610183ffbfe2d8b4c94fcf01,61036f10daa485dd0859af5b,2021-07-29_23h17.27.561,Simcolourproject_2stim_asymm_v5,2020.2.10,MacIntel,60,61025ae37ef11b136ea224fe,,,,,,,,,4194,30,55,1,0,0,response1disk,,7,16,17,1,0,0,rectangle,16,17,1,0,0,16,17,1,0,0,0,76,76,63,1,,,,,,,,
,,,,,,,,,,,,,FF,,,,,,,,1.333,,,,,,,,,,,,,,,,,,,,,,610183ffbfe2d8b4c94fcf01,61036f10daa485dd0859af5b,2021-07-29_23h17.27.561,Simcolourproject_2stim_asymm_v5,2020.2.10,MacIntel,60,61025ae37ef11b136ea224fe,,,,,,,,,2901,-37,-84,1,0,0,response5disk,,3,1,4,1,0,0,rectangle,1,4,1,0,0,1,4,1,0,0,0,77,77,50,1,,,,,,,,
,,,,,,,,,,,,,FF,,,,,,,,0.799,,,,,,,,,,,,,,,,,,,,,,610183ffbfe2d8b4c94fcf01,61036f10daa485dd0859af5b,2021-07-29_23h17.27.561,Simcolourproject_2stim_asymm_v5,2020.2.10,MacIntel,60,61025ae37ef11b136ea224fe,,,,,,,,,4251,-42,57,1,0,0,response7disk,,0,-8,2,1,0,0,rectangle,-8,2,1,0,0,-8,2,1,0,0,0,78,78,24,1,,,,,,,,
,,,,,,,,,,,,,FF,,,,,,,,0.733,,,,,,,,,,,,,,,,,,,,,,610183ffbfe2d8b4c94fcf01,61036f10daa485dd0859af5b,2021-07-29_23h17.27.561,Simcolourproject_2stim_asymm_v5,2020.2.10,MacIntel,60,61025ae37ef11b136ea224fe,,,,,,,,,3275,32,59,1,0,0,response1disk,,7,14,-8,1,0,0,rectangle,14,-8,1,0,0,14,-8,1,0,0,0,79,79,59,1,,,,,,,,
,,,,,,,,,,,,,FF,,,,,,,,0.583,,,,,,,,,,,,,,,,,,,,,,610183ffbfe2d8b4c94fcf01,61036f10daa485dd0859af5b,2021-07-29_23h17.27.561,Simcolourproject_2stim_asymm_v5,2020.2.10,MacIntel,60,61025ae37ef11b136ea224fe,,,,,,,,,31,29,42,1,0,0,response1disk,,7,21,7,1,0,0,rectangle,21,7,1,0,0,21,7,1,0,0,0,80,80,104,1,,,,,,,,
,,,,,,,,,,,,,FF,,,,,,,,0.816,,,,,,,,,,,,,,,,,,,,,,610183ffbfe2d8b4c94fcf01,61036f10daa485dd0859af5b,2021-07-29_23h17.27.561,Simcolourproject_2stim_asymm_v5,2020.2.10,MacIntel,60,61025ae37ef11b136ea224fe,,,,,,,,,1418,33,55,1,0,0,response1disk,,7,20,5,1,0,0,rectangle,20,5,1,0,0,20,5,1,0,0,0,81,81,93,1,,,,,,,,
,,,,,,,,,,,,,FF,,,,,,,,0.983,,,,,,,,,,,,,,,,,,,,,,610183ffbfe2d8b4c94fcf01,61036f10daa485dd0859af5b,2021-07-29_23h17.27.561,Simcolourproject_2stim_asymm_v5,2020.2.10,MacIntel,60,61025ae37ef11b136ea224fe,,,,,,,,,4097,-75,-30,1,0,0,response5disk,,2,-20,-3,1,0,0,rectangle,-20,-3,1,0,0,-20,-3,1,0,0,0,82,82,110,1,,,,,,,,
,,,,,,,,,,,,,FF,,,,,,,,0.632,,,,,,,,,,,,,,,,,,,,,,610183ffbfe2d8b4c94fcf01,61036f10daa485dd0859af5b,2021-07-29_23h17.27.561,Simcolourproject_2stim_asymm_v5,2020.2.10,MacIntel,60,61025ae37ef11b136ea224fe,,,,,,,,,1732,45,63,1,0,0,response1disk,,7,20,-9,1,0,0,rectangle,20,-9,1,0,0,20,-9,1,0,0,0,83,83,121,1,,,,,,,,
,,,,,,,,,,,,,FF,,,,,,,,0.682,,,,,,,,,,,,,,,,,,,,,,610183ffbfe2d8b4c94fcf01,61036f10daa485dd0859af5b,2021-07-29_23h17.27.561,Simcolourproject_2stim_asymm_v5,2020.2.10,MacIntel,60,61025ae37ef11b136ea224fe,,,,,,,,,478,56,31,1,0,0,response1disk,,6,15,-2,1,0,0,rectangle,15,-2,1,0,0,15,-2,1,0,0,0,84,84,81,1,,,,,,,,
,,,,,,,,,,,,,FF,,,,,,,,1.101,,,,,,,,,,,,,,,,,,,,,,610183ffbfe2d8b4c94fcf01,61036f10daa485dd0859af5b,2021-07-29_23h17.27.561,Simcolourproject_2stim_asymm_v5,2020.2.10,MacIntel,60,61025ae37ef11b136ea224fe,,,,,,,,,4205,-85,-40,1,0,0,response5disk,,2,-18,-6,1,0,0,rectangle,-18,-6,1,0,0,-18,-6,1,0,0,0,85,85,77,1,,,,,,,,
,,,,,,,,,,,,,FF,,,,,,,,1.299,,,,,,,,,,,,,,,,,,,,,,610183ffbfe2d8b4c94fcf01,61036f10daa485dd0859af5b,2021-07-29_23h17.27.561,Simcolourproject_2stim_asymm_v5,2020.2.10,MacIntel,60,61025ae37ef11b136ea224fe,,,,,,,,,3541,33,71,1,0,0,response1disk,,7,5,14,1,0,0,rectangle,5,14,1,0,0,5,14,1,0,0,0,86,86,31,1,,,,,,,,
,,,,,,,,,,,,,FF,,,,,,,,0.966,,,,,,,,,,,,,,,,,,,,,,610183ffbfe2d8b4c94fcf01,61036f10daa485dd0859af5b,2021-07-29_23h17.27.561,Simcolourproject_2stim_asymm_v5,2020.2.10,MacIntel,60,61025ae37ef11b136ea224fe,,,,,,,,,1970,-70,-46,1,0,0,response5disk,,2,-16,-13,1,0,0,rectangle,-16,-13,1,0,0,-16,-13,1,0,0,0,87,87,51,1,,,,,,,,
,,,,,,,,,,,,,FF,,,,,,,,1.366,,,,,,,,,,,,,,,,,,,,,,610183ffbfe2d8b4c94fcf01,61036f10daa485dd0859af5b,2021-07-29_23h17.27.561,Simcolourproject_2stim_asymm_v5,2020.2.10,MacIntel,60,61025ae37ef11b136ea224fe,,,,,,,,,2424,59,-46,1,0,0,response3disk,,5,-11,0,1,0,0,rectangle,-11,0,1,0,0,-11,0,1,0,0,0,88,88,66,1,,,,,,,,
,,,,,,,,,,,,,FF,,,,,,,,0.584,,,,,,,,,,,,,,,,,,,,,,610183ffbfe2d8b4c94fcf01,61036f10daa485dd0859af5b,2021-07-29_23h17.27.561,Simcolourproject_2stim_asymm_v5,2020.2.10,MacIntel,60,61025ae37ef11b136ea224fe,,,,,,,,,2450,32,69,1,0,0,response1disk,,7,13,15,1,0,0,rectangle,-73,30,1,0,0,-15,6,1,0,0,0,89,89,88,1,,response7disk_3,TRUE,1,1,"[64,318,103,90,286,166,300,300,73,303,285,257,65,239,95,184,105,185,189,168]",1.365,rectangle
,,,,,,,,,,,,,FF,,,,,,,,1.3,,,,,,,,,,,,,,,,,,,,,,610183ffbfe2d8b4c94fcf01,61036f10daa485dd0859af5b,2021-07-29_23h17.27.561,Simcolourproject_2stim_asymm_v5,2020.2.10,MacIntel,60,61025ae37ef11b136ea224fe,,,,,,,,,1991,64,37,1,0,0,response1disk,,6,-3,-12,1,0,0,rectangle,-3,-12,1,0,0,-3,-12,1,0,0,0,90,90,41,1,,,,,,,,
,,,,,,,,,,,,,FF,,,,,,,,1.216,,,,,,,,,,,,,,,,,,,,,,610183ffbfe2d8b4c94fcf01,61036f10daa485dd0859af5b,2021-07-29_23h17.27.561,Simcolourproject_2stim_asymm_v5,2020.2.10,MacIntel,60,61025ae37ef11b136ea224fe,,,,,,,,,354,-44,-87,1,0,0,response5disk,,3,-2,2,1,0,0,rectangle,-2,2,1,0,0,-2,2,1,0,0,0,91,91,19,1,,,,,,,,
,,,,,,,,,,,,,FF,,,,,,,,1.833,,,,,,,,,,,,,,,,,,,,,,610183ffbfe2d8b4c94fcf01,61036f10daa485dd0859af5b,2021-07-29_23h17.27.561,Simcolourproject_2stim_asymm_v5,2020.2.10,MacIntel,60,61025ae37ef11b136ea224fe,,,,,,,,,1681,-86,-53,1,0,0,response5disk,,2,-28,-12,1,0,0,rectangle,-28,-12,1,0,0,-28,-12,1,0,0,0,92,92,115,1,,,,,,,,
,,,,,,,,,,,,,FF,,,,,,,,0.75,,,,,,,,,,,,,,,,,,,,,,610183ffbfe2d8b4c94fcf01,61036f10daa485dd0859af5b,2021-07-29_23h17.27.561,Simcolourproject_2stim_asymm_v5,2020.2.10,MacIntel,60,61025ae37ef11b136ea224fe,,,,,,,,,2873,28,61,1,0,0,response1disk,,7,2,15,1,0,0,rectangle,2,15,1,0,0,2,15,1,0,0,0,93,93,32,1,,,,,,,,
,,,,,,,,,,,,,FF,,,,,,,,0.816,,,,,,,,,,,,,,,,,,,,,,610183ffbfe2d8b4c94fcf01,61036f10daa485dd0859af5b,2021-07-29_23h17.27.561,Simcolourproject_2stim_asymm_v5,2020.2.10,MacIntel,60,61025ae37ef11b136ea224fe,,,,,,,,,4104,-83,-49,1,0,0,response5disk,,2,-22,-4,1,0,0,rectangle,-38,-82,1,0,0,-1,10,1,0,0,0,94,94,18,1,,response5disk_3,TRUE,3,3,"[64,318,103,90,286,166,300,300,73,303,285,257,65,239,95,184,105,185,189,168]",2.098,rectangle
,,,,,,,,,,,,,FF,,,,,,,,0.782,,,,,,,,,,,,,,,,,,,,,,610183ffbfe2d8b4c94fcf01,61036f10daa485dd0859af5b,2021-07-29_23h17.27.561,Simcolourproject_2stim_asymm_v5,2020.2.10,MacIntel,60,61025ae37ef11b136ea224fe,,,,,,,,,3027,33,67,1,0,0,response1disk,,7,15,-3,1,0,0,rectangle,15,-3,1,0,0,15,-3,1,0,0,0,95,95,105,1,,,,,,,,
,,,,,,,,,,,,,FF,,,,,,,,0.751,,,,,,,,,,,,,,,,,,,,,,610183ffbfe2d8b4c94fcf01,61036f10daa485dd0859af5b,2021-07-29_23h17.27.561,Simcolourproject_2stim_asymm_v5,2020.2.10,MacIntel,60,61025ae37ef11b136ea224fe,,,,,,,,,2525,22,35,1,0,0,response1disk,,7,0,-6,1,0,0,rectangle,0,-6,1,0,0,0,-6,1,0,0,0,96,96,25,1,,,,,,,,
,,,,,,,,,,,,,FF,,,,,,,,0.766,,,,,,,,,,,,,,,,,,,,,,610183ffbfe2d8b4c94fcf01,61036f10daa485dd0859af5b,2021-07-29_23h17.27.561,Simcolourproject_2stim_asymm_v5,2020.2.10,MacIntel,60,61025ae37ef11b136ea224fe,,,,,,,,,1741,22,39,1,0,0,response1disk,,7,6,1,1,0,0,rectangle,6,1,1,0,0,6,1,1,0,0,0,97,97,85,1,,,,,,,,
,,,,,,,,,,,,,FF,,,,,,,,1.466,,,,,,,,,,,,,,,,,,,,,,610183ffbfe2d8b4c94fcf01,61036f10daa485dd0859af5b,2021-07-29_23h17.27.561,Simcolourproject_2stim_asymm_v5,2020.2.10,MacIntel,60,61025ae37ef11b136ea224fe,,,,,,,,,612,40,-77,1,0,0,response3disk,,4,-3,8,1,0,0,rectangle,-3,8,1,0,0,-3,8,1,0,0,0,98,98,61,1,,,,,,,,
,,,,,,,,,,,,,FF,,,,,,,,0.615,,,,,,,,,,,,,,,,,,,,,,610183ffbfe2d8b4c94fcf01,61036f10daa485dd0859af5b,2021-07-29_23h17.27.561,Simcolourproject_2stim_asymm_v5,2020.2.10,MacIntel,60,61025ae37ef11b136ea224fe,,,,,,,,,917,32,58,1,0,0,response1disk,,7,5,6,1,0,0,rectangle,5,6,1,0,0,5,6,1,0,0,0,99,99,112,1,,,,,,,,
,,,,,,,,,,,,,FF,,,,,,,,0.666,,,,,,,,,,,,,,,,,,,,,,610183ffbfe2d8b4c94fcf01,61036f10daa485dd0859af5b,2021-07-29_23h17.27.561,Simcolourproject_2stim_asymm_v5,2020.2.10,MacIntel,60,61025ae37ef11b136ea224fe,,,,,,,,,1836,33,48,1,0,0,response1disk,,7,23,15,1,0,0,rectangle,23,15,1,0,0,23,15,1,0,0,0,100,100,103,1,,,,,,,,
,,,,,,,,,,,,,FF,,,,,,,,0.481,,,,,,,,,,,,,,,,,,,,,,610183ffbfe2d8b4c94fcf01,61036f10daa485dd0859af5b,2021-07-29_23h17.27.561,Simcolourproject_2stim_asymm_v5,2020.2.10,MacIntel,60,61025ae37ef11b136ea224fe,,,,,,,,,3550,28,44,1,0,0,response1disk,,7,23,3,1,0,0,rectangle,23,3,1,0,0,23,3,1,0,0,0,101,101,71,1,,,,,,,,
,,,,,,,,,,,,,FF,,,,,,,,0.633,,,,,,,,,,,,,,,,,,,,,,610183ffbfe2d8b4c94fcf01,61036f10daa485dd0859af5b,2021-07-29_23h17.27.561,Simcolourproject_2stim_asymm_v5,2020.2.10,MacIntel,60,61025ae37ef11b136ea224fe,,,,,,,,,1184,36,57,1,0,0,response1disk,,7,14,-7,1,0,0,rectangle,77,44,1,0,0,9,2,1,0,0,0,102,102,118,1,,response1disk_3,TRUE,6,6,"[64,318,103,90,286,166,300,300,73,303,285,257,65,239,95,184,105,185,189,168]",2.066,rectangle
,,,,,,,,,,,,,FF,,,,,,,,0.865,,,,,,,,,,,,,,,,,,,,,,610183ffbfe2d8b4c94fcf01,61036f10daa485dd0859af5b,2021-07-29_23h17.27.561,Simcolourproject_2stim_asymm_v5,2020.2.10,MacIntel,60,61025ae37ef11b136ea224fe,,,,,,,,,2074,62,-27,1,0,0,response3disk,,5,2,3,1,0,0,rectangle,2,3,1,0,0,2,3,1,0,0,0,103,103,111,1,,,,,,,,
,,,,,,,,,,,,,FF,,,,,,,,2.233,,,,,,,,,,,,,,,,,,,,,,610183ffbfe2d8b4c94fcf01,61036f10daa485dd0859af5b,2021-07-29_23h17.27.561,Simcolourproject_2stim_asymm_v5,2020.2.10,MacIntel,60,61025ae37ef11b136ea224fe,,,,,,,,,2826,36,-68,1,0,0,response3disk,,4,17,-18,1,0,0,rectangle,-86,45,1,0,0,-8,1,1,0,0,0,104,104,100,1,,response7disk_3,TRUE,1,1,"[64,318,103,90,286,166,300,300,73,303,285,257,65,239,95,184,105,185,189,168]",1.766,rectangle
,,,,,,,,,,,,,FF,,,,,,,,0.9,,,,,,,,,,,,,,,,,,,,,,610183ffbfe2d8b4c94fcf01,61036f10daa485dd0859af5b,2021-07-29_23h17.27.561,Simcolourproject_2stim_asymm_v5,2020.2.10,MacIntel,60,61025ae37ef11b136ea224fe,,,,,,,,,849,69,24,1,0,0,response1disk,,6,23,14,1,0,0,rectangle,23,14,1,0,0,23,14,1,0,0,0,105,105,0,1,,,,,,,,
,,,,,,,,,,,,,FF,,,,,,,,0.95,,,,,,,,,,,,,,,,,,,,,,610183ffbfe2d8b4c94fcf01,61036f10daa485dd0859af5b,2021-07-29_23h17.27.561,Simcolourproject_2stim_asymm_v5,2020.2.10,MacIntel,60,61025ae37ef11b136ea224fe,,,,,,,,,286,37,-75,1,0,0,response3disk,,4,-1,-6,1,0,0,rectangle,-1,-6,1,0,0,-1,-6,1,0,0,0,106,106,109,1,,,,,,,,
,,,,,,,,,,,,,FF,,,,,,,,0.7,,,,,,,,,,,,,,,,,,,,,,610183ffbfe2d8b4c94fcf01,61036f10daa485dd0859af5b,2021-07-29_23h17.27.561,Simcolourproject_2stim_asymm_v5,2020.2.10,MacIntel,60,61025ae37ef11b136ea224fe,,,,,,,,,301,20,51,1,0,0,response1disk,,7,6,2,1,0,0,rectangle,6,2,1,0,0,6,2,1,0,0,0,107,107,1,1,,,,,,,,
,,,,,,,,,,,,,FF,,,,,,,,0.6,,,,,,,,,,,,,,,,,,,,,,610183ffbfe2d8b4c94fcf01,61036f10daa485dd0859af5b,2021-07-29_23h17.27.561,Simcolourproject_2stim_asymm_v5,2020.2.10,MacIntel,60,61025ae37ef11b136ea224fe,,,,,,,,,1487,26,52,1,0,0,response1disk,,7,11,10,1,0,0,rectangle,11,10,1,0,0,11,10,1,0,0,0,108,108,40,1,,,,,,,,
,,,,,,,,,,,,,FF,,,,,,,,1.267,,,,,,,,,,,,,,,,,,,,,,610183ffbfe2d8b4c94fcf01,61036f10daa485dd0859af5b,2021-07-29_23h17.27.561,Simcolourproject_2stim_asymm_v5,2020.2.10,MacIntel,60,61025ae37ef11b136ea224fe,,,,,,,,,455,-31,83,1,0,0,response7disk,,0,1,-12,1,0,0,rectangle,1,-12,1,0,0,1,-12,1,0,0,0,109,109,57,1,,,,,,,,
,,,,,,,,,,,,,FF,,,,,,,,0.767,,,,,,,,,,,,,,,,,,,,,,610183ffbfe2d8b4c94fcf01,61036f10daa485dd0859af5b,2021-07-29_23h17.27.561,Simcolourproject_2stim_asymm_v5,2020.2.10,MacIntel,60,61025ae37ef11b136ea224fe,,,,,,,,,32,63,30,1,0,0,response1disk,,6,15,-1,1,0,0,rectangle,15,-1,1,0,0,15,-1,1,0,0,0,110,110,76,1,,,,,,,,
,,,,,,,,,,,,,FF,,,,,,,,0.65,,,,,,,,,,,,,,,,,,,,,,610183ffbfe2d8b4c94fcf01,61036f10daa485dd0859af5b,2021-07-29_23h17.27.561,Simcolourproject_2stim_asymm_v5,2020.2.10,MacIntel,60,61025ae37ef11b136ea224fe,,,,,,,,,3279,28,43,1,0,0,response1disk,,7,21,5,1,0,0,rectangle,21,5,1,0,0,21,5,1,0,0,0,111,111,129,1,,,,,,,,
,,,,,,,,,,,,,FF,,,,,,,,0.818,,,,,,,,,,,,,,,,,,,,,,610183ffbfe2d8b4c94fcf01,61036f10daa485dd0859af5b,2021-07-29_23h17.27.561,Simcolourproject_2stim_asymm_v5,2020.2.10,MacIntel,60,61025ae37ef11b136ea224fe,,,,,,,,,142,32,64,1,0,0,response1disk,,7,18,2,1,0,0,rectangle,18,2,1,0,0,18,2,1,0,0,0,112,112,90,1,,,,,,,,
,,,,,,,,,,,,,FF,,,,,,,,0.882,,,,,,,,,,,,,,,,,,,,,,610183ffbfe2d8b4c94fcf01,61036f10daa485dd0859af5b,2021-07-29_23h17.27.561,Simcolourproject_2stim_asymm_v5,2020.2.10,MacIntel,60,61025ae37ef11b136ea224fe,,,,,,,,,1143,-65,-31,1,0,0,response5disk,,2,9,-3,1,0,0,rectangle,9,-3,1,0,0,9,-3,1,0,0,0,113,113,26,1,,,,,,,,
,,,,,,,,,,,,,FF,,,,,,,,1.316,,,,,,,,,,,,,,,,,,,,,,610183ffbfe2d8b4c94fcf01,61036f10daa485dd0859af5b,2021-07-29_23h17.27.561,Simcolourproject_2stim_asymm_v5,2020.2.10,MacIntel,60,61025ae37ef11b136ea224fe,,,,,,,,,2613,36,-106,1,0,0,response3disk,,4,-12,16,1,0,0,rectangle,-12,16,1,0,0,-12,16,1,0,0,0,114,114,107,1,,,,,,,,
,,,,,,,,,,,,,FF,,,,,,,,1.467,,,,,,,,,,,,,,,,,,,,,,610183ffbfe2d8b4c94fcf01,61036f10daa485dd0859af5b,2021-07-29_23h17.27.561,Simcolourproject_2stim_asymm_v5,2020.2.10,MacIntel,60,61025ae37ef11b136ea224fe,,,,,,,,,2571,83,35,1,0,0,response1disk,,6,-18,-7,1,0,0,rectangle,-18,-7,1,0,0,-18,-7,1,0,0,0,115,115,130,1,,,,,,,,
,,,,,,,,,,,,,FF,,,,,,,,1.534,,,,,,,,,,,,,,,,,,,,,,610183ffbfe2d8b4c94fcf01,61036f10daa485dd0859af5b,2021-07-29_23h17.27.561,Simcolourproject_2stim_asymm_v5,2020.2.10,MacIntel,60,61025ae37ef11b136ea224fe,,,,,,,,,1308,31,-82,1,0,0,response3disk,,4,1,-1,1,0,0,rectangle,1,-1,1,0,0,1,-1,1,0,0,0,116,116,67,1,,,,,,,,
,,,,,,,,,,,,,FF,,,,,,,,0.982,,,,,,,,,,,,,,,,,,,,,,610183ffbfe2d8b4c94fcf01,61036f10daa485dd0859af5b,2021-07-29_23h17.27.561,Simcolourproject_2stim_asymm_v5,2020.2.10,MacIntel,60,61025ae37ef11b136ea224fe,,,,,,,,,2175,76,-24,1,0,0,response3disk,,5,-15,3,1,0,0,rectangle,-15,3,1,0,0,-15,3,1,0,0,0,117,117,68,1,,,,,,,,
,,,,,,,,,,,,,FF,,,,,,,,1.033,,,,,,,,,,,,,,,,,,,,,,610183ffbfe2d8b4c94fcf01,61036f10daa485dd0859af5b,2021-07-29_23h17.27.561,Simcolourproject_2stim_asymm_v5,2020.2.10,MacIntel,60,61025ae37ef11b136ea224fe,,,,,,,,,2678,60,-30,1,0,0,response3disk,,5,13,-11,1,0,0,rectangle,13,-11,1,0,0,13,-11,1,0,0,0,118,118,157,1,,,,,,,,
,,,,,,,,,,,,,FF,,,,,,,,1.9,,,,,,,,,,,,,,,,,,,,,,610183ffbfe2d8b4c94fcf01,61036f10daa485dd0859af5b,2021-07-29_23h17.27.561,Simcolourproject_2stim_asymm_v5,2020.2.10,MacIntel,60,61025ae37ef11b136ea224fe,,,,,,,,,793,28,38,1,0,0,response1disk,,7,-17,4,1,0,0,rectangle,-17,4,1,0,0,-17,4,1,0,0,0,119,119,70,1,,,,,,,,
,,,,,,,,,,,,,FF,,,,,,,,0.949,,,,,,,,,,,,,,,,,,,,,,610183ffbfe2d8b4c94fcf01,61036f10daa485dd0859af5b,2021-07-29_23h17.27.561,Simcolourproject_2stim_asymm_v5,2020.2.10,MacIntel,60,61025ae37ef11b136ea224fe,,,,,,,,,2380,55,31,1,0,0,response1disk,,6,7,6,1,0,0,rectangle,7,6,1,0,0,7,6,1,0,0,0,120,120,20,1,,,,,,,,
,,,,,,,,,,,,,FF,,,,,,,,0.766,,,,,,,,,,,,,,,,,,,,,,610183ffbfe2d8b4c94fcf01,61036f10daa485dd0859af5b,2021-07-29_23h17.27.561,Simcolourproject_2stim_asymm_v5,2020.2.10,MacIntel,60,61025ae37ef11b136ea224fe,,,,,,,,,2495,65,27,1,0,0,response1disk,,6,19,6,1,0,0,rectangle,19,6,1,0,0,19,6,1,0,0,0,121,121,158,1,,,,,,,,
,,,,,,,,,,,,,FF,,,,,,,,0.967,,,,,,,,,,,,,,,,,,,,,,610183ffbfe2d8b4c94fcf01,61036f10daa485dd0859af5b,2021-07-29_23h17.27.561,Simcolourproject_2stim_asymm_v5,2020.2.10,MacIntel,60,61025ae37ef11b136ea224fe,,,,,,,,,1750,-49,-92,1,0,0,response5disk,,3,-4,1,1,0,0,rectangle,-4,1,1,0,0,-4,1,1,0,0,0,122,122,27,1,,,,,,,,
,,,,,,,,,,,,,FF,,,,,,,,0.733,,,,,,,,,,,,,,,,,,,,,,610183ffbfe2d8b4c94fcf01,61036f10daa485dd0859af5b,2021-07-29_23h17.27.561,Simcolourproject_2stim_asymm_v5,2020.2.10,MacIntel,60,61025ae37ef11b136ea224fe,,,,,,,,,2021,58,39,1,0,0,response1disk,,6,9,7,1,0,0,rectangle,9,7,1,0,0,9,7,1,0,0,0,123,123,39,1,,,,,,,,
,,,,,,,,,,,,,FF,,,,,,,,0.884,,,,,,,,,,,,,,,,,,,,,,610183ffbfe2d8b4c94fcf01,61036f10daa485dd0859af5b,2021-07-29_23h17.27.561,Simcolourproject_2stim_asymm_v5,2020.2.10,MacIntel,60,61025ae37ef11b136ea224fe,,,,,,,,,3085,29,59,1,0,0,response1disk,,7,18,1,1,0,0,rectangle,18,1,1,0,0,18,1,1,0,0,0,124,124,73,1,,,,,,,,
,,,,,,,,,,,,,FF,,,,,,,,0.866,,,,,,,,,,,,,,,,,,,,,,610183ffbfe2d8b4c94fcf01,61036f10daa485dd0859af5b,2021-07-29_23h17.27.561,Simcolourproject_2stim_asymm_v5,2020.2.10,MacIntel,60,61025ae37ef11b136ea224fe,,,,,,,,,2963,25,51,1,0,0,response1disk,,7,21,12,1,0,0,rectangle,21,12,1,0,0,21,12,1,0,0,0,125,125,144,1,,,,,,,,
,,,,,,,,,,,,,FF,,,,,,,,1.167,,,,,,,,,,,,,,,,,,,,,,610183ffbfe2d8b4c94fcf01,61036f10daa485dd0859af5b,2021-07-29_23h17.27.561,Simcolourproject_2stim_asymm_v5,2020.2.10,MacIntel,60,61025ae37ef11b136ea224fe,,,,,,,,,438,-69,-30,1,0,0,response5disk,,2,-8,-14,1,0,0,rectangle,-8,-14,1,0,0,-8,-14,1,0,0,0,126,126,91,1,,,,,,,,
,,,,,,,,,,,,,FF,,,,,,,,1.15,,,,,,,,,,,,,,,,,,,,,,610183ffbfe2d8b4c94fcf01,61036f10daa485dd0859af5b,2021-07-29_23h17.27.561,Simcolourproject_2stim_asymm_v5,2020.2.10,MacIntel,60,61025ae37ef11b136ea224fe,,,,,,,,,1786,55,25,1,0,0,response1disk,,6,9,5,1,0,0,rectangle,9,5,1,0,0,9,5,1,0,0,0,127,127,106,1,,,,,,,,
,,,,,,,,,,,,,FF,,,,,,,,0.751,,,,,,,,,,,,,,,,,,,,,,610183ffbfe2d8b4c94fcf01,61036f10daa485dd0859af5b,2021-07-29_23h17.27.561,Simcolourproject_2stim_asymm_v5,2020.2.10,MacIntel,60,61025ae37ef11b136ea224fe,,,,,,,,,115,46,27,1,0,0,response1disk,,6,17,2,1,0,0,rectangle,17,2,1,0,0,17,2,1,0,0,0,128,128,4,1,,,,,,,,
,,,,,,,,,,,,,FF,,,,,,,,0.583,,,,,,,,,,,,,,,,,,,,,,610183ffbfe2d8b4c94fcf01,61036f10daa485dd0859af5b,2021-07-29_23h17.27.561,Simcolourproject_2stim_asymm_v5,2020.2.10,MacIntel,60,61025ae37ef11b136ea224fe,,,,,,,,,1005,37,70,1,0,0,response1disk,,7,-4,-10,1,0,0,rectangle,-4,-10,1,0,0,-4,-10,1,0,0,0,129,129,34,1,,,,,,,,
,,,,,,,,,,,,,FF,,,,,,,,0.966,,,,,,,,,,,,,,,,,,,,,,610183ffbfe2d8b4c94fcf01,61036f10daa485dd0859af5b,2021-07-29_23h17.27.561,Simcolourproject_2stim_asymm_v5,2020.2.10,MacIntel,60,61025ae37ef11b136ea224fe,,,,,,,,,683,60,46,1,0,0,response1disk,,6,12,3,1,0,0,rectangle,12,3,1,0,0,12,3,1,0,0,0,130,130,156,1,,,,,,,,
,,,,,,,,,,,,,FF,,,,,,,,0.884,,,,,,,,,,,,,,,,,,,,,,610183ffbfe2d8b4c94fcf01,61036f10daa485dd0859af5b,2021-07-29_23h17.27.561,Simcolourproject_2stim_asymm_v5,2020.2.10,MacIntel,60,61025ae37ef11b136ea224fe,,,,,,,,,350,47,-38,1,0,0,response3disk,,5,-20,4,1,0,0,rectangle,-20,4,1,0,0,-20,4,1,0,0,0,131,131,132,1,,,,,,,,
,,,,,,,,,,,,,FF,,,,,,,,0.816,,,,,,,,,,,,,,,,,,,,,,610183ffbfe2d8b4c94fcf01,61036f10daa485dd0859af5b,2021-07-29_23h17.27.561,Simcolourproject_2stim_asymm_v5,2020.2.10,MacIntel,60,61025ae37ef11b136ea224fe,,,,,,,,,2170,78,-28,1,0,0,response3disk,,5,21,-10,1,0,0,rectangle,21,-10,1,0,0,21,-10,1,0,0,0,132,132,149,1,,,,,,,,
,,,,,,,,,,,,,FF,,,,,,,,1.283,,,,,,,,,,,,,,,,,,,,,,610183ffbfe2d8b4c94fcf01,61036f10daa485dd0859af5b,2021-07-29_23h17.27.561,Simcolourproject_2stim_asymm_v5,2020.2.10,MacIntel,60,61025ae37ef11b136ea224fe,,,,,,,,,4276,48,28,1,0,0,response1disk,,6,10,4,1,0,0,rectangle,10,4,1,0,0,10,4,1,0,0,0,133,133,56,1,,,,,,,,
,,,,,,,,,,,,,FF,,,,,,,,0.8,,,,,,,,,,,,,,,,,,,,,,610183ffbfe2d8b4c94fcf01,61036f10daa485dd0859af5b,2021-07-29_23h17.27.561,Simcolourproject_2stim_asymm_v5,2020.2.10,MacIntel,60,61025ae37ef11b136ea224fe,,,,,,,,,4247,61,-35,1,0,0,response3disk,,5,8,-18,1,0,0,rectangle,8,-18,1,0,0,8,-18,1,0,0,0,134,134,58,1,,,,,,,,
,,,,,,,,,,,,,FF,,,,,,,,0.75,,,,,,,,,,,,,,,,,,,,,,610183ffbfe2d8b4c94fcf01,61036f10daa485dd0859af5b,2021-07-29_23h17.27.561,Simcolourproject_2stim_asymm_v5,2020.2.10,MacIntel,60,61025ae37ef11b136ea224fe,,,,,,,,,96,-39,-74,1,0,0,response5disk,,3,6,-4,1,0,0,rectangle,6,-4,1,0,0,6,-4,1,0,0,0,135,135,29,1,,,,,,,,
,,,,,,,,,,,,,FF,,,,,,,,0.75,,,,,,,,,,,,,,,,,,,,,,610183ffbfe2d8b4c94fcf01,61036f10daa485dd0859af5b,2021-07-29_23h17.27.561,Simcolourproject_2stim_asymm_v5,2020.2.10,MacIntel,60,61025ae37ef11b136ea224fe,,,,,,,,,1391,37,-55,1,0,0,response3disk,,4,5,-5,1,0,0,rectangle,5,-5,1,0,0,5,-5,1,0,0,0,136,136,84,1,,,,,,,,
,,,,,,,,,,,,,FF,,,,,,,,0.583,,,,,,,,,,,,,,,,,,,,,,610183ffbfe2d8b4c94fcf01,61036f10daa485dd0859af5b,2021-07-29_23h17.27.561,Simcolourproject_2stim_asymm_v5,2020.2.10,MacIntel,60,61025ae37ef11b136ea224fe,,,,,,,,,2900,25,-66,1,0,0,response3disk,,4,-4,11,1,0,0,rectangle,-4,11,1,0,0,-4,11,1,0,0,0,137,137,151,1,,,,,,,,
,,,,,,,,,,,,,FF,,,,,,,,1.266,,,,,,,,,,,,,,,,,,,,,,610183ffbfe2d8b4c94fcf01,61036f10daa485dd0859af5b,2021-07-29_23h17.27.561,Simcolourproject_2stim_asymm_v5,2020.2.10,MacIntel,60,61025ae37ef11b136ea224fe,,,,,,,,,3356,56,34,1,0,0,response1disk,,6,-2,4,1,0,0,rectangle,-2,4,1,0,0,-2,4,1,0,0,0,138,138,124,1,,,,,,,,
,,,,,,,,,,,,,FF,,,,,,,,0.917,,,,,,,,,,,,,,,,,,,,,,610183ffbfe2d8b4c94fcf01,61036f10daa485dd0859af5b,2021-07-29_23h17.27.561,Simcolourproject_2stim_asymm_v5,2020.2.10,MacIntel,60,61025ae37ef11b136ea224fe,,,,,,,,,3747,-73,-42,1,0,0,response5disk,,2,2,-1,1,0,0,rectangle,2,-1,1,0,0,2,-1,1,0,0,0,139,139,120,1,,,,,,,,
,,,,,,,,,,,,,FF,,,,,,,,1.616,,,,,,,,,,,,,,,,,,,,,,610183ffbfe2d8b4c94fcf01,61036f10daa485dd0859af5b,2021-07-29_23h17.27.561,Simcolourproject_2stim_asymm_v5,2020.2.10,MacIntel,60,61025ae37ef11b136ea224fe,,,,,,,,,71,78,-43,1,0,0,response3disk,,5,12,-3,1,0,0,rectangle,12,-3,1,0,0,12,-3,1,0,0,0,140,140,102,1,,,,,,,,
,,,,,,,,,,,,,FF,,,,,,,,1.116,,,,,,,,,,,,,,,,,,,,,,610183ffbfe2d8b4c94fcf01,61036f10daa485dd0859af5b,2021-07-29_23h17.27.561,Simcolourproject_2stim_asymm_v5,2020.2.10,MacIntel,60,61025ae37ef11b136ea224fe,,,,,,,,,2443,23,49,1,0,0,response1disk,,7,4,0,1,0,0,rectangle,4,0,1,0,0,4,0,1,0,0,0,141,141,95,1,,,,,,,,
,,,,,,,,,,,,,FF,,,,,,,,0.633,,,,,,,,,,,,,,,,,,,,,,610183ffbfe2d8b4c94fcf01,61036f10daa485dd0859af5b,2021-07-29_23h17.27.561,Simcolourproject_2stim_asymm_v5,2020.2.10,MacIntel,60,61025ae37ef11b136ea224fe,,,,,,,,,3413,27,64,1,0,0,response1disk,,7,10,2,1,0,0,rectangle,10,2,1,0,0,10,2,1,0,0,0,142,142,38,1,,,,,,,,
,,,,,,,,,,,,,FF,,,,,,,,0.801,,,,,,,,,,,,,,,,,,,,,,610183ffbfe2d8b4c94fcf01,61036f10daa485dd0859af5b,2021-07-29_23h17.27.561,Simcolourproject_2stim_asymm_v5,2020.2.10,MacIntel,60,61025ae37ef11b136ea224fe,,,,,,,,,1503,28,52,1,0,0,response1disk,,7,15,2,1,0,0,rectangle,15,2,1,0,0,15,2,1,0,0,0,143,143,152,1,,,,,,,,
,,,,,,,,,,,,,FF,,,,,,,,0.7,,,,,,,,,,,,,,,,,,,,,,610183ffbfe2d8b4c94fcf01,61036f10daa485dd0859af5b,2021-07-29_23h17.27.561,Simcolourproject_2stim_asymm_v5,2020.2.10,MacIntel,60,61025ae37ef11b136ea224fe,,,,,,,,,3842,37,53,1,0,0,response1disk,,7,17,-7,1,0,0,rectangle,17,-7,1,0,0,17,-7,1,0,0,0,144,144,101,1,,,,,,,,
,,,,,,,,,,,,,FF,,,,,,,,0.666,,,,,,,,,,,,,,,,,,,,,,610183ffbfe2d8b4c94fcf01,61036f10daa485dd0859af5b,2021-07-29_23h17.27.561,Simcolourproject_2stim_asymm_v5,2020.2.10,MacIntel,60,61025ae37ef11b136ea224fe,,,,,,,,,2079,44,65,1,0,0,response1disk,,7,25,-6,1,0,0,rectangle,25,-6,1,0,0,25,-6,1,0,0,0,145,145,17,1,,,,,,,,
,,,,,,,,,,,,,FF,,,,,,,,0.633,,,,,,,,,,,,,,,,,,,,,,610183ffbfe2d8b4c94fcf01,61036f10daa485dd0859af5b,2021-07-29_23h17.27.561,Simcolourproject_2stim_asymm_v5,2020.2.10,MacIntel,60,61025ae37ef11b136ea224fe,,,,,,,,,135,20,50,1,0,0,response1disk,,7,2,-14,1,0,0,rectangle,2,-14,1,0,0,2,-14,1,0,0,0,146,146,23,1,,,,,,,,
,,,,,,,,,,,,,FF,,,,,,,,0.649,,,,,,,,,,,,,,,,,,,,,,610183ffbfe2d8b4c94fcf01,61036f10daa485dd0859af5b,2021-07-29_23h17.27.561,Simcolourproject_2stim_asymm_v5,2020.2.10,MacIntel,60,61025ae37ef11b136ea224fe,,,,,,,,,1709,42,70,1,0,0,response1disk,,7,16,-11,1,0,0,rectangle,16,-11,1,0,0,16,-11,1,0,0,0,147,147,16,1,,,,,,,,
,,,,,,,,,,,,,FF,,,,,,,,2.133,,,,,,,,,,,,,,,,,,,,,,610183ffbfe2d8b4c94fcf01,61036f10daa485dd0859af5b,2021-07-29_23h17.27.561,Simcolourproject_2stim_asymm_v5,2020.2.10,MacIntel,60,61025ae37ef11b136ea224fe,,,,,,,,,2777,-40,-76,1,0,0,response5disk,,3,6,16,1,0,0,rectangle,6,16,1,0,0,6,16,1,0,0,0,148,148,8,1,,,,,,,,
,,,,,,,,,,,,,FF,,,,,,,,1.501,,,,,,,,,,,,,,,,,,,,,,610183ffbfe2d8b4c94fcf01,61036f10daa485dd0859af5b,2021-07-29_23h17.27.561,Simcolourproject_2stim_asymm_v5,2020.2.10,MacIntel,60,61025ae37ef11b136ea224fe,,,,,,,,,93,-42,71,1,0,0,response7disk,,0,6,5,1,0,0,rectangle,6,5,1,0,0,6,5,1,0,0,0,149,149,55,1,,,,,,,,
,,,,,,,,,,,,,FF,,,,,,,,1.517,,,,,,,,,,,,,,,,,,,,,,610183ffbfe2d8b4c94fcf01,61036f10daa485dd0859af5b,2021-07-29_23h17.27.561,Simcolourproject_2stim_asymm_v5,2020.2.10,MacIntel,60,61025ae37ef11b136ea224fe,,,,,,,,,3565,44,-81,1,0,0,response3disk,,4,-3,8,1,0,0,rectangle,-3,8,1,0,0,-3,8,1,0,0,0,150,150,116,1,,,,,,,,
,,,,,,,,,,,,,FF,,,,,,,,1.2,,,,,,,,,,,,,,,,,,,,,,610183ffbfe2d8b4c94fcf01,61036f10daa485dd0859af5b,2021-07-29_23h17.27.561,Simcolourproject_2stim_asymm_v5,2020.2.10,MacIntel,60,61025ae37ef11b136ea224fe,,,,,,,,,410,66,19,1,0,0,response1disk,,6,1,-5,1,0,0,rectangle,1,-5,1,0,0,1,-5,1,0,0,0,151,151,35,1,,,,,,,,
,,,,,,,,,,,,,FF,,,,,,,,0.533,,,,,,,,,,,,,,,,,,,,,,610183ffbfe2d8b4c94fcf01,61036f10daa485dd0859af5b,2021-07-29_23h17.27.561,Simcolourproject_2stim_asymm_v5,2020.2.10,MacIntel,60,61025ae37ef11b136ea224fe,,,,,,,,,3795,30,58,1,0,0,response1disk,,7,-3,-2,1,0,0,rectangle,-3,-2,1,0,0,-3,-2,1,0,0,0,152,152,43,1,,,,,,,,
,,,,,,,,,,,,,FF,,,,,,,,0.65,,,,,,,,,,,,,,,,,,,,,,610183ffbfe2d8b4c94fcf01,61036f10daa485dd0859af5b,2021-07-29_23h17.27.561,Simcolourproject_2stim_asymm_v5,2020.2.10,MacIntel,60,61025ae37ef11b136ea224fe,,,,,,,,,2065,28,55,1,0,0,response1disk,,7,3,-3,1,0,0,rectangle,3,-3,1,0,0,3,-3,1,0,0,0,153,153,15,1,,,,,,,,
,,,,,,,,,,,,,FF,,,,,,,,1.067,,,,,,,,,,,,,,,,,,,,,,610183ffbfe2d8b4c94fcf01,61036f10daa485dd0859af5b,2021-07-29_23h17.27.561,Simcolourproject_2stim_asymm_v5,2020.2.10,MacIntel,60,61025ae37ef11b136ea224fe,,,,,,,,,1585,75,25,1,0,0,response1disk,,6,0,0,1,0,0,rectangle,0,0,1,0,0,0,0,1,0,0,0,154,154,79,1,,,,,,,,
,,,,,,,,,,,,,FF,,,,,,,,0.784,,,,,,,,,,,,,,,,,,,,,,610183ffbfe2d8b4c94fcf01,61036f10daa485dd0859af5b,2021-07-29_23h17.27.561,Simcolourproject_2stim_asymm_v5,2020.2.10,MacIntel,60,61025ae37ef11b136ea224fe,,,,,,,,,2305,83,52,1,0,0,response1disk,,6,19,11,1,0,0,rectangle,19,11,1,0,0,19,11,1,0,0,0,155,155,97,1,,,,,,,,
,,,,,,,,,,,,,FF,,,,,,,,1.883,,,,,,,,,,,,,,,,,,,,,,610183ffbfe2d8b4c94fcf01,61036f10daa485dd0859af5b,2021-07-29_23h17.27.561,Simcolourproject_2stim_asymm_v5,2020.2.10,MacIntel,60,61025ae37ef11b136ea224fe,,,,,,,,,1453,43,-90,1,0,0,response3disk,,4,6,11,1,0,0,rectangle,6,11,1,0,0,6,11,1,0,0,0,156,156,69,1,,,,,,,,
,,,,,,,,,,,,,FF,,,,,,,,0.783,,,,,,,,,,,,,,,,,,,,,,610183ffbfe2d8b4c94fcf01,61036f10daa485dd0859af5b,2021-07-29_23h17.27.561,Simcolourproject_2stim_asymm_v5,2020.2.10,MacIntel,60,61025ae37ef11b136ea224fe,,,,,,,,,229,33,-65,1,0,0,response3disk,,4,25,-9,1,0,0,rectangle,25,-9,1,0,0,25,-9,1,0,0,0,157,157,83,1,,,,,,,,
,,,,,,,,,,,,,FF,,,,,,,,0.899,,,,,,,,,,,,,,,,,,,,,,610183ffbfe2d8b4c94fcf01,61036f10daa485dd0859af5b,2021-07-29_23h17.27.561,Simcolourproject_2stim_asymm_v5,2020.2.10,MacIntel,60,61025ae37ef11b136ea224fe,,,,,,,,,4007,54,-33,1,0,0,response3disk,,5,11,-13,1,0,0,rectangle,11,-13,1,0,0,11,-13,1,0,0,0,158,158,62,1,,,,,,,,
,,,,,,,,,,,,,FF,,,,,,,,0.983,,,,,,,,,,,,,,,,,,,,,,610183ffbfe2d8b4c94fcf01,61036f10daa485dd0859af5b,2021-07-29_23h17.27.561,Simcolourproject_2stim_asymm_v5,2020.2.10,MacIntel,60,61025ae37ef11b136ea224fe,,,,,,,,,4089,56,20,1,0,0,response1disk,,6,10,0,1,0,0,rectangle,10,0,1,0,0,10,0,1,0,0,0,159,159,36,1,,,,,,,,
,,,,,,,,,,,,,FF,,,,,,,,0.634,,,,,,,,,,,,,,,,,,,,,,610183ffbfe2d8b4c94fcf01,61036f10daa485dd0859af5b,2021-07-29_23h17.27.561,Simcolourproject_2stim_asymm_v5,2020.2.10,MacIntel,60,61025ae37ef11b136ea224fe,,,,,,,,,2694,45,72,1,0,0,response1disk,,7,19,6,1,0,0,rectangle,19,6,1,0,0,19,6,1,0,0,1,0,160,0,1,,,,,,,,
,,,,,,,,,,,,,FF,,,,,,,,1.033,,,,,,,,,,,,,,,,,,,,,,610183ffbfe2d8b4c94fcf01,61036f10daa485dd0859af5b,2021-07-29_23h17.27.561,Simcolourproject_2stim_asymm_v5,2020.2.10,MacIntel,60,61025ae37ef11b136ea224fe,,,,,,,,,718,-75,-39,1,0,0,response5disk,,2,-7,-2,1,0,0,rectangle,-7,-2,1,0,0,-7,-2,1,0,0,1,1,161,18,1,,,,,,,,
,,,,,,,,,,,,,FF,,,,,,,,1.634,,,,,,,,,,,,,,,,,,,,,,610183ffbfe2d8b4c94fcf01,61036f10daa485dd0859af5b,2021-07-29_23h17.27.561,Simcolourproject_2stim_asymm_v5,2020.2.10,MacIntel,60,61025ae37ef11b136ea224fe,,,,,,,,,4332,16,30,1,0,0,response1disk,,7,25,-3,1,0,0,rectangle,25,-3,1,0,0,25,-3,1,0,0,1,2,162,36,1,,,,,,,,
,,,,,,,,,,,,,FF,,,,,,,,0.617,,,,,,,,,,,,,,,,,,,,,,610183ffbfe2d8b4c94fcf01,61036f10daa485dd0859af5b,2021-07-29_23h17.27.561,Simcolourproject_2stim_asymm_v5,2020.2.10,MacIntel,60,61025ae37ef11b136ea224fe,,,,,,,,,3033,25,36,1,0,0,response1disk,,7,16,3,1,0,0,rectangle,16,3,1,0,0,16,3,1,0,0,1,3,163,4,1,,,,,,,,
,,,,,,,,,,,,,FF,,,,,,,,1.1,,,,,,,,,,,,,,,,,,,,,,610183ffbfe2d8b4c94fcf01,61036f10daa485dd0859af5b,2021-07-29_23h17.27.561,Simcolourproject_2stim_asymm_v5,2020.2.10,MacIntel,60,61025ae37ef11b136ea224fe,,,,,,,,,355,-66,-35,1,0,0,response5disk,,2,-5,-7,1,0,0,rectangle,-5,-7,1,0,0,-5,-7,1,0,0,1,4,164,153,1,,,,,,,,
,,,,,,,,,,,,,FF,,,,,,,,1.449,,,,,,,,,,,,,,,,,,,,,,610183ffbfe2d8b4c94fcf01,61036f10daa485dd0859af5b,2021-07-29_23h17.27.561,Simcolourproject_2stim_asymm_v5,2020.2.10,MacIntel,60,61025ae37ef11b136ea224fe,,,,,,,,,1346,49,-34,1,0,0,response3disk,,5,-10,-11,1,0,0,rectangle,38,87,1,0,0,7,0,1,0,0,1,5,165,61,1,,response1disk_3,TRUE,7,7,"[64,318,103,90,286,166,300,300,73,303,285,257,65,239,95,184,105,185,189,168]",1.365,rectangle
,,,,,,,,,,,,,FF,,,,,,,,1.183,,,,,,,,,,,,,,,,,,,,,,610183ffbfe2d8b4c94fcf01,61036f10daa485dd0859af5b,2021-07-29_23h17.27.561,Simcolourproject_2stim_asymm_v5,2020.2.10,MacIntel,60,61025ae37ef11b136ea224fe,,,,,,,,,311,62,23,1,0,0,response1disk,,6,11,-1,1,0,0,rectangle,11,-1,1,0,0,11,-1,1,0,0,1,6,166,87,1,,,,,,,,
,,,,,,,,,,,,,FF,,,,,,,,0.701,,,,,,,,,,,,,,,,,,,,,,610183ffbfe2d8b4c94fcf01,61036f10daa485dd0859af5b,2021-07-29_23h17.27.561,Simcolourproject_2stim_asymm_v5,2020.2.10,MacIntel,60,61025ae37ef11b136ea224fe,,,,,,,,,1946,63,26,1,0,0,response1disk,,6,15,2,1,0,0,rectangle,95,56,1,0,0,10,2,1,0,0,1,7,167,56,1,,response1disk_3,TRUE,6,6,"[64,318,103,90,286,166,300,300,73,303,285,257,65,239,95,184,105,185,189,168]",1.383,rectangle
,,,,,,,,,,,,,FF,,,,,,,,0.966,,,,,,,,,,,,,,,,,,,,,,610183ffbfe2d8b4c94fcf01,61036f10daa485dd0859af5b,2021-07-29_23h17.27.561,Simcolourproject_2stim_asymm_v5,2020.2.10,MacIntel,60,61025ae37ef11b136ea224fe,,,,,,,,,2674,34,-77,1,0,0,response3disk,,4,5,-4,1,0,0,rectangle,5,-4,1,0,0,5,-4,1,0,0,1,8,168,24,1,,,,,,,,
,,,,,,,,,,,,,FF,,,,,,,,0.916,,,,,,,,,,,,,,,,,,,,,,610183ffbfe2d8b4c94fcf01,61036f10daa485dd0859af5b,2021-07-29_23h17.27.561,Simcolourproject_2stim_asymm_v5,2020.2.10,MacIntel,60,61025ae37ef11b136ea224fe,,,,,,,,,952,84,-36,1,0,0,response3disk,,5,11,-14,1,0,0,rectangle,11,-14,1,0,0,11,-14,1,0,0,1,9,169,148,1,,,,,,,,
,,,,,,,,,,,,,FF,,,,,,,,0.783,,,,,,,,,,,,,,,,,,,,,,610183ffbfe2d8b4c94fcf01,61036f10daa485dd0859af5b,2021-07-29_23h17.27.561,Simcolourproject_2stim_asymm_v5,2020.2.10,MacIntel,60,61025ae37ef11b136ea224fe,,,,,,,,,829,60,47,1,0,0,response1disk,,6,5,7,1,0,0,rectangle,5,7,1,0,0,5,7,1,0,0,1,10,170,10,1,,,,,,,,
,,,,,,,,,,,,,FF,,,,,,,,0.716,,,,,,,,,,,,,,,,,,,,,,610183ffbfe2d8b4c94fcf01,61036f10daa485dd0859af5b,2021-07-29_23h17.27.561,Simcolourproject_2stim_asymm_v5,2020.2.10,MacIntel,60,61025ae37ef11b136ea224fe,,,,,,,,,4155,87,48,1,0,0,response1disk,,6,20,7,1,0,0,rectangle,20,7,1,0,0,20,7,1,0,0,1,11,171,43,1,,,,,,,,
,,,,,,,,,,,,,FF,,,,,,,,0.666,,,,,,,,,,,,,,,,,,,,,,610183ffbfe2d8b4c94fcf01,61036f10daa485dd0859af5b,2021-07-29_23h17.27.561,Simcolourproject_2stim_asymm_v5,2020.2.10,MacIntel,60,61025ae37ef11b136ea224fe,,,,,,,,,1245,54,22,1,0,0,response1disk,,6,13,7,1,0,0,rectangle,13,7,1,0,0,13,7,1,0,0,1,12,172,88,1,,,,,,,,
,,,,,,,,,,,,,FF,,,,,,,,0.583,,,,,,,,,,,,,,,,,,,,,,610183ffbfe2d8b4c94fcf01,61036f10daa485dd0859af5b,2021-07-29_23h17.27.561,Simcolourproject_2stim_asymm_v5,2020.2.10,MacIntel,60,61025ae37ef11b136ea224fe,,,,,,,,,1341,29,63,1,0,0,response1disk,,7,17,6,1,0,0,rectangle,17,6,1,0,0,17,6,1,0,0,1,13,173,114,1,,,,,,,,
,,,,,,,,,,,,,FF,,,,,,,,0.649,,,,,,,,,,,,,,,,,,,,,,610183ffbfe2d8b4c94fcf01,61036f10daa485dd0859af5b,2021-07-29_23h17.27.561,Simcolourproject_2stim_asymm_v5,2020.2.10,MacIntel,60,61025ae37ef11b136ea224fe,,,,,,,,,2911,31,60,1,0,0,response1disk,,7,23,-3,1,0,0,rectangle,23,-3,1,0,0,23,-3,1,0,0,1,14,174,5,1,,,,,,,,
,,,,,,,,,,,,,FF,,,,,,,,0.517,,,,,,,,,,,,,,,,,,,,,,610183ffbfe2d8b4c94fcf01,61036f10daa485dd0859af5b,2021-07-29_23h17.27.561,Simcolourproject_2stim_asymm_v5,2020.2.10,MacIntel,60,61025ae37ef11b136ea224fe,,,,,,,,,3877,51,-25,1,0,0,response3disk,,5,6,-7,1,0,0,rectangle,6,-7,1,0,0,6,-7,1,0,0,1,15,175,119,1,,,,,,,,
,,,,,,,,,,,,,FF,,,,,,,,0.765,,,,,,,,,,,,,,,,,,,,,,610183ffbfe2d8b4c94fcf01,61036f10daa485dd0859af5b,2021-07-29_23h17.27.561,Simcolourproject_2stim_asymm_v5,2020.2.10,MacIntel,60,61025ae37ef11b136ea224fe,,,,,,,,,337,39,75,1,0,0,response1disk,,7,16,-4,1,0,0,rectangle,16,-4,1,0,0,16,-4,1,0,0,1,16,176,142,1,,,,,,,,
,,,,,,,,,,,,,FF,,,,,,,,0.516,,,,,,,,,,,,,,,,,,,,,,610183ffbfe2d8b4c94fcf01,61036f10daa485dd0859af5b,2021-07-29_23h17.27.561,Simcolourproject_2stim_asymm_v5,2020.2.10,MacIntel,60,61025ae37ef11b136ea224fe,,,,,,,,,3950,84,50,1,0,0,response1disk,,6,25,14,1,0,0,rectangle,25,14,1,0,0,25,14,1,0,0,1,17,177,59,1,,,,,,,,
,,,,,,,,,,,,,FF,,,,,,,,1.084,,,,,,,,,,,,,,,,,,,,,,610183ffbfe2d8b4c94fcf01,61036f10daa485dd0859af5b,2021-07-29_23h17.27.561,Simcolourproject_2stim_asymm_v5,2020.2.10,MacIntel,60,61025ae37ef11b136ea224fe,,,,,,,,,239,61,17,1,0,0,response1disk,,6,5,7,1,0,0,rectangle,5,7,1,0,0,5,7,1,0,0,1,18,178,104,1,,,,,,,,
,,,,,,,,,,,,,FF,,,,,,,,0.85,,,,,,,,,,,,,,,,,,,,,,610183ffbfe2d8b4c94fcf01,61036f10daa485dd0859af5b,2021-07-29_23h17.27.561,Simcolourproject_2stim_asymm_v5,2020.2.10,MacIntel,60,61025ae37ef11b136ea224fe,,,,,,,,,475,35,-69,1,0,0,response3disk,,4,11,-7,1,0,0,rectangle,11,-7,1,0,0,11,-7,1,0,0,1,19,179,124,1,,,,,,,,
,,,,,,,,,,,,,FF,,,,,,,,0.816,,,,,,,,,,,,,,,,,,,,,,610183ffbfe2d8b4c94fcf01,61036f10daa485dd0859af5b,2021-07-29_23h17.27.561,Simcolourproject_2stim_asymm_v5,2020.2.10,MacIntel,60,61025ae37ef11b136ea224fe,,,,,,,,,3358,74,-35,1,0,0,response3disk,,5,7,-7,1,0,0,rectangle,7,-7,1,0,0,7,-7,1,0,0,1,20,180,20,1,,,,,,,,
,,,,,,,,,,,,,FF,,,,,,,,0.683,,,,,,,,,,,,,,,,,,,,,,610183ffbfe2d8b4c94fcf01,61036f10daa485dd0859af5b,2021-07-29_23h17.27.561,Simcolourproject_2stim_asymm_v5,2020.2.10,MacIntel,60,61025ae37ef11b136ea224fe,,,,,,,,,1220,-47,-63,1,0,0,response5disk,,3,-14,-10,1,0,0,rectangle,-14,-10,1,0,0,-14,-10,1,0,0,1,21,181,37,1,,,,,,,,
,,,,,,,,,,,,,FF,,,,,,,,0.651,,,,,,,,,,,,,,,,,,,,,,610183ffbfe2d8b4c94fcf01,61036f10daa485dd0859af5b,2021-07-29_23h17.27.561,Simcolourproject_2stim_asymm_v5,2020.2.10,MacIntel,60,61025ae37ef11b136ea224fe,,,,,,,,,3850,-38,-84,1,0,0,response5disk,,3,1,-8,1,0,0,rectangle,1,-8,1,0,0,1,-8,1,0,0,1,22,182,80,1,,,,,,,,
,,,,,,,,,,,,,FF,,,,,,,,0.7,,,,,,,,,,,,,,,,,,,,,,610183ffbfe2d8b4c94fcf01,61036f10daa485dd0859af5b,2021-07-29_23h17.27.561,Simcolourproject_2stim_asymm_v5,2020.2.10,MacIntel,60,61025ae37ef11b136ea224fe,,,,,,,,,3388,-46,102,1,0,0,response7disk,,0,-7,4,1,0,0,rectangle,28,85,1,0,0,5,10,1,0,0,1,23,183,112,1,,response1disk_3,TRUE,7,7,"[64,318,103,90,286,166,300,300,73,303,285,257,65,239,95,184,105,185,189,168]",2.198,rectangle
,,,,,,,,,,,,,FF,,,,,,,,0.815,,,,,,,,,,,,,,,,,,,,,,610183ffbfe2d8b4c94fcf01,61036f10daa485dd0859af5b,2021-07-29_23h17.27.561,Simcolourproject_2stim_asymm_v5,2020.2.10,MacIntel,60,61025ae37ef11b136ea224fe,,,,,,,,,2968,45,62,1,0,0,response1disk,,7,24,5,1,0,0,rectangle,37,79,1,0,0,24,12,1,0,0,1,24,184,90,1,,response1disk_3,TRUE,7,7,"[64,318,103,90,286,166,300,300,73,303,285,257,65,239,95,184,105,185,189,168]",1.531,rectangle
,,,,,,,,,,,,,FF,,,,,,,,1.515,,,,,,,,,,,,,,,,,,,,,,610183ffbfe2d8b4c94fcf01,61036f10daa485dd0859af5b,2021-07-29_23h17.27.561,Simcolourproject_2stim_asymm_v5,2020.2.10,MacIntel,60,61025ae37ef11b136ea224fe,,,,,,,,,824,29,-87,1,0,0,response3disk,,4,-3,1,1,0,0,rectangle,-3,1,1,0,0,-3,1,1,0,0,1,25,185,101,1,,,,,,,,
,,,,,,,,,,,,,FF,,,,,,,,0.782,,,,,,,,,,,,,,,,,,,,,,610183ffbfe2d8b4c94fcf01,61036f10daa485dd0859af5b,2021-07-29_23h17.27.561,Simcolourproject_2stim_asymm_v5,2020.2.10,MacIntel,60,61025ae37ef11b136ea224fe,,,,,,,,,2052,41,-64,1,0,0,response3disk,,4,19,-7,1,0,0,rectangle,19,-7,1,0,0,19,-7,1,0,0,1,26,186,133,1,,,,,,,,
,,,,,,,,,,,,,FF,,,,,,,,0.733,,,,,,,,,,,,,,,,,,,,,,610183ffbfe2d8b4c94fcf01,61036f10daa485dd0859af5b,2021-07-29_23h17.27.561,Simcolourproject_2stim_asymm_v5,2020.2.10,MacIntel,60,61025ae37ef11b136ea224fe,,,,,,,,,3613,55,24,1,0,0,response1disk,,6,10,10,1,0,0,rectangle,10,10,1,0,0,10,10,1,0,0,1,27,187,26,1,,,,,,,,
,,,,,,,,,,,,,FF,,,,,,,,0.634,,,,,,,,,,,,,,,,,,,,,,610183ffbfe2d8b4c94fcf01,61036f10daa485dd0859af5b,2021-07-29_23h17.27.561,Simcolourproject_2stim_asymm_v5,2020.2.10,MacIntel,60,61025ae37ef11b136ea224fe,,,,,,,,,2126,31,59,1,0,0,response1disk,,7,9,2,1,0,0,rectangle,89,-52,1,0,0,0,0,1,0,0,1,28,188,147,1,,response3disk_3,TRUE,5,5,"[64,318,103,90,286,166,300,300,73,303,285,257,65,239,95,184,105,185,189,168]",1.916,rectangle
,,,,,,,,,,,,,FF,,,,,,,,1.216,,,,,,,,,,,,,,,,,,,,,,610183ffbfe2d8b4c94fcf01,61036f10daa485dd0859af5b,2021-07-29_23h17.27.561,Simcolourproject_2stim_asymm_v5,2020.2.10,MacIntel,60,61025ae37ef11b136ea224fe,,,,,,,,,2728,-49,-101,1,0,0,response5disk,,3,-2,0,1,0,0,rectangle,-2,0,1,0,0,-2,0,1,0,0,1,29,189,155,1,,,,,,,,
,,,,,,,,,,,,,FF,,,,,,,,1.132,,,,,,,,,,,,,,,,,,,,,,610183ffbfe2d8b4c94fcf01,61036f10daa485dd0859af5b,2021-07-29_23h17.27.561,Simcolourproject_2stim_asymm_v5,2020.2.10,MacIntel,60,61025ae37ef11b136ea224fe,,,,,,,,,36,71,-52,1,0,0,response3disk,,5,13,-13,1,0,0,rectangle,13,-13,1,0,0,13,-13,1,0,0,1,30,190,93,1,,,,,,,,
,,,,,,,,,,,,,FF,,,,,,,,1.183,,,,,,,,,,,,,,,,,,,,,,610183ffbfe2d8b4c94fcf01,61036f10daa485dd0859af5b,2021-07-29_23h17.27.561,Simcolourproject_2stim_asymm_v5,2020.2.10,MacIntel,60,61025ae37ef11b136ea224fe,,,,,,,,,966,60,33,1,0,0,response1disk,,6,1,-12,1,0,0,rectangle,1,-12,1,0,0,1,-12,1,0,0,1,31,191,111,1,,,,,,,,
,,,,,,,,,,,,,FF,,,,,,,,0.633,,,,,,,,,,,,,,,,,,,,,,610183ffbfe2d8b4c94fcf01,61036f10daa485dd0859af5b,2021-07-29_23h17.27.561,Simcolourproject_2stim_asymm_v5,2020.2.10,MacIntel,60,61025ae37ef11b136ea224fe,,,,,,,,,2149,28,69,1,0,0,response1disk,,7,8,2,1,0,0,rectangle,8,2,1,0,0,8,2,1,0,0,1,32,192,137,1,,,,,,,,
,,,,,,,,,,,,,FF,,,,,,,,0.867,,,,,,,,,,,,,,,,,,,,,,610183ffbfe2d8b4c94fcf01,61036f10daa485dd0859af5b,2021-07-29_23h17.27.561,Simcolourproject_2stim_asymm_v5,2020.2.10,MacIntel,60,61025ae37ef11b136ea224fe,,,,,,,,,2842,64,37,1,0,0,response1disk,,6,14,-4,1,0,0,rectangle,14,-4,1,0,0,14,-4,1,0,0,1,33,193,29,1,,,,,,,,
,,,,,,,,,,,,,FF,,,,,,,,1.233,,,,,,,,,,,,,,,,,,,,,,610183ffbfe2d8b4c94fcf01,61036f10daa485dd0859af5b,2021-07-29_23h17.27.561,Simcolourproject_2stim_asymm_v5,2020.2.10,MacIntel,60,61025ae37ef11b136ea224fe,,,,,,,,,1373,-66,-36,1,0,0,response5disk,,2,-5,-7,1,0,0,rectangle,-5,-7,1,0,0,-5,-7,1,0,0,1,34,194,89,1,,,,,,,,
,,,,,,,,,,,,,FF,,,,,,,,0.734,,,,,,,,,,,,,,,,,,,,,,610183ffbfe2d8b4c94fcf01,61036f10daa485dd0859af5b,2021-07-29_23h17.27.561,Simcolourproject_2stim_asymm_v5,2020.2.10,MacIntel,60,61025ae37ef11b136ea224fe,,,,,,,,,2681,23,41,1,0,0,response1disk,,7,30,5,1,0,0,rectangle,30,5,1,0,0,30,5,1,0,0,1,35,195,27,1,,,,,,,,
,,,,,,,,,,,,,FF,,,,,,,,1,,,,,,,,,,,,,,,,,,,,,,610183ffbfe2d8b4c94fcf01,61036f10daa485dd0859af5b,2021-07-29_23h17.27.561,Simcolourproject_2stim_asymm_v5,2020.2.10,MacIntel,60,61025ae37ef11b136ea224fe,,,,,,,,,78,-56,-25,1,0,0,response5disk,,2,-1,-5,1,0,0,rectangle,-1,-5,1,0,0,-1,-5,1,0,0,1,36,196,21,1,,,,,,,,
,,,,,,,,,,,,,FF,,,,,,,,0.932,,,,,,,,,,,,,,,,,,,,,,610183ffbfe2d8b4c94fcf01,61036f10daa485dd0859af5b,2021-07-29_23h17.27.561,Simcolourproject_2stim_asymm_v5,2020.2.10,MacIntel,60,61025ae37ef11b136ea224fe,,,,,,,,,3816,-53,-24,1,0,0,response5disk,,2,-4,-5,1,0,0,rectangle,-4,-5,1,0,0,-4,-5,1,0,0,1,37,197,14,1,,,,,,,,
,,,,,,,,,,,,,FF,,,,,,,,1.1,,,,,,,,,,,,,,,,,,,,,,610183ffbfe2d8b4c94fcf01,61036f10daa485dd0859af5b,2021-07-29_23h17.27.561,Simcolourproject_2stim_asymm_v5,2020.2.10,MacIntel,60,61025ae37ef11b136ea224fe,,,,,,,,,1387,75,-49,1,0,0,response3disk,,5,9,-14,1,0,0,rectangle,9,-14,1,0,0,9,-14,1,0,0,1,38,198,55,1,,,,,,,,
,,,,,,,,,,,,,FF,,,,,,,,0.583,,,,,,,,,,,,,,,,,,,,,,610183ffbfe2d8b4c94fcf01,61036f10daa485dd0859af5b,2021-07-29_23h17.27.561,Simcolourproject_2stim_asymm_v5,2020.2.10,MacIntel,60,61025ae37ef11b136ea224fe,,,,,,,,,667,65,-34,1,0,0,response3disk,,5,17,-9,1,0,0,rectangle,17,-9,1,0,0,17,-9,1,0,0,1,39,199,115,1,,,,,,,,
,,,,,,,,,,,,,FF,,,,,,,,1.215,,,,,,,,,,,,,,,,,,,,,,610183ffbfe2d8b4c94fcf01,61036f10daa485dd0859af5b,2021-07-29_23h17.27.561,Simcolourproject_2stim_asymm_v5,2020.2.10,MacIntel,60,61025ae37ef11b136ea224fe,,,,,,,,,575,60,20,1,0,0,response1disk,,6,5,6,1,0,0,rectangle,5,6,1,0,0,5,6,1,0,0,1,40,200,159,1,,,,,,,,
,,,,,,,,,,,,,FF,,,,,,,,1.965,,,,,,,,,,,,,,,,,,,,,,610183ffbfe2d8b4c94fcf01,61036f10daa485dd0859af5b,2021-07-29_23h17.27.561,Simcolourproject_2stim_asymm_v5,2020.2.10,MacIntel,60,61025ae37ef11b136ea224fe,,,,,,,,,2173,35,-97,1,0,0,response3disk,,4,2,-9,1,0,0,rectangle,2,-9,1,0,0,2,-9,1,0,0,1,41,201,52,1,,,,,,,,
,,,,,,,,,,,,,FF,,,,,,,,0.649,,,,,,,,,,,,,,,,,,,,,,610183ffbfe2d8b4c94fcf01,61036f10daa485dd0859af5b,2021-07-29_23h17.27.561,Simcolourproject_2stim_asymm_v5,2020.2.10,MacIntel,60,61025ae37ef11b136ea224fe,,,,,,,,,4036,78,47,1,0,0,response1disk,,6,19,14,1,0,0,rectangle,19,14,1,0,0,19,14,1,0,0,1,42,202,109,1,,,,,,,,
,,,,,,,,,,,,,FF,,,,,,,,0.633,,,,,,,,,,,,,,,,,,,,,,610183ffbfe2d8b4c94fcf01,61036f10daa485dd0859af5b,2021-07-29_23h17.27.561,Simcolourproject_2stim_asymm_v5,2020.2.10,MacIntel,60,61025ae37ef11b136ea224fe,,,,,,,,,1342,24,38,1,0,0,response1disk,,7,20,5,1,0,0,rectangle,20,5,1,0,0,20,5,1,0,0,1,43,203,31,1,,,,,,,,
,,,,,,,,,,,,,FF,,,,,,,,0.534,,,,,,,,,,,,,,,,,,,,,,610183ffbfe2d8b4c94fcf01,61036f10daa485dd0859af5b,2021-07-29_23h17.27.561,Simcolourproject_2stim_asymm_v5,2020.2.10,MacIntel,60,61025ae37ef11b136ea224fe,,,,,,,,,1651,30,57,1,0,0,response1disk,,7,27,0,1,0,0,rectangle,27,0,1,0,0,27,0,1,0,0,1,44,204,156,1,,,,,,,,
,,,,,,,,,,,,,FF,,,,,,,,0.75,,,,,,,,,,,,,,,,,,,,,,610183ffbfe2d8b4c94fcf01,61036f10daa485dd0859af5b,2021-07-29_23h17.27.561,Simcolourproject_2stim_asymm_v5,2020.2.10,MacIntel,60,61025ae37ef11b136ea224fe,,,,,,,,,200,21,45,1,0,0,response1disk,,7,9,-4,1,0,0,rectangle,9,-4,1,0,0,9,-4,1,0,0,1,45,205,108,1,,,,,,,,
,,,,,,,,,,,,,FF,,,,,,,,0.716,,,,,,,,,,,,,,,,,,,,,,610183ffbfe2d8b4c94fcf01,61036f10daa485dd0859af5b,2021-07-29_23h17.27.561,Simcolourproject_2stim_asymm_v5,2020.2.10,MacIntel,60,61025ae37ef11b136ea224fe,,,,,,,,,605,32,56,1,0,0,response1disk,,7,21,5,1,0,0,rectangle,21,5,1,0,0,21,5,1,0,0,1,46,206,116,1,,,,,,,,
,,,,,,,,,,,,,FF,,,,,,,,0.517,,,,,,,,,,,,,,,,,,,,,,610183ffbfe2d8b4c94fcf01,61036f10daa485dd0859af5b,2021-07-29_23h17.27.561,Simcolourproject_2stim_asymm_v5,2020.2.10,MacIntel,60,61025ae37ef11b136ea224fe,,,,,,,,,2504,29,39,1,0,0,response1disk,,7,18,-4,1,0,0,rectangle,18,-4,1,0,0,18,-4,1,0,0,1,47,207,86,1,,,,,,,,
,,,,,,,,,,,,,FF,,,,,,,,0.617,,,,,,,,,,,,,,,,,,,,,,610183ffbfe2d8b4c94fcf01,61036f10daa485dd0859af5b,2021-07-29_23h17.27.561,Simcolourproject_2stim_asymm_v5,2020.2.10,MacIntel,60,61025ae37ef11b136ea224fe,,,,,,,,,3401,31,69,1,0,0,response1disk,,7,16,5,1,0,0,rectangle,16,5,1,0,0,16,5,1,0,0,1,48,208,34,1,,,,,,,,
,,,,,,,,,,,,,FF,,,,,,,,0.75,,,,,,,,,,,,,,,,,,,,,,610183ffbfe2d8b4c94fcf01,61036f10daa485dd0859af5b,2021-07-29_23h17.27.561,Simcolourproject_2stim_asymm_v5,2020.2.10,MacIntel,60,61025ae37ef11b136ea224fe,,,,,,,,,1652,28,74,1,0,0,response1disk,,7,13,-1,1,0,0,rectangle,13,-1,1,0,0,13,-1,1,0,0,1,49,209,152,1,,,,,,,,
,,,,,,,,,,,,,FF,,,,,,,,0.717,,,,,,,,,,,,,,,,,,,,,,610183ffbfe2d8b4c94fcf01,61036f10daa485dd0859af5b,2021-07-29_23h17.27.561,Simcolourproject_2stim_asymm_v5,2020.2.10,MacIntel,60,61025ae37ef11b136ea224fe,,,,,,,,,3682,90,35,1,0,0,response1disk,,6,14,13,1,0,0,rectangle,14,13,1,0,0,14,13,1,0,0,1,50,210,135,1,,,,,,,,
,,,,,,,,,,,,,FF,,,,,,,,0.867,,,,,,,,,,,,,,,,,,,,,,610183ffbfe2d8b4c94fcf01,61036f10daa485dd0859af5b,2021-07-29_23h17.27.561,Simcolourproject_2stim_asymm_v5,2020.2.10,MacIntel,60,61025ae37ef11b136ea224fe,,,,,,,,,1658,23,71,1,0,0,response1disk,,7,6,-7,1,0,0,rectangle,6,-7,1,0,0,6,-7,1,0,0,1,51,211,100,1,,,,,,,,
,,,,,,,,,,,,,FF,,,,,,,,0.85,,,,,,,,,,,,,,,,,,,,,,610183ffbfe2d8b4c94fcf01,61036f10daa485dd0859af5b,2021-07-29_23h17.27.561,Simcolourproject_2stim_asymm_v5,2020.2.10,MacIntel,60,61025ae37ef11b136ea224fe,,,,,,,,,2811,25,74,1,0,0,response1disk,,7,9,-1,1,0,0,rectangle,9,-1,1,0,0,9,-1,1,0,0,1,52,212,77,1,,,,,,,,
,,,,,,,,,,,,,FF,,,,,,,,0.584,,,,,,,,,,,,,,,,,,,,,,610183ffbfe2d8b4c94fcf01,61036f10daa485dd0859af5b,2021-07-29_23h17.27.561,Simcolourproject_2stim_asymm_v5,2020.2.10,MacIntel,60,61025ae37ef11b136ea224fe,,,,,,,,,3010,30,56,1,0,0,response1disk,,7,21,15,1,0,0,rectangle,21,15,1,0,0,21,15,1,0,0,1,53,213,66,1,,,,,,,,
,,,,,,,,,,,,,FF,,,,,,,,0.633,,,,,,,,,,,,,,,,,,,,,,610183ffbfe2d8b4c94fcf01,61036f10daa485dd0859af5b,2021-07-29_23h17.27.561,Simcolourproject_2stim_asymm_v5,2020.2.10,MacIntel,60,61025ae37ef11b136ea224fe,,,,,,,,,3314,25,64,1,0,0,response1disk,,7,14,6,1,0,0,rectangle,14,6,1,0,0,14,6,1,0,0,1,54,214,65,1,,,,,,,,
,,,,,,,,,,,,,FF,,,,,,,,1.667,,,,,,,,,,,,,,,,,,,,,,610183ffbfe2d8b4c94fcf01,61036f10daa485dd0859af5b,2021-07-29_23h17.27.561,Simcolourproject_2stim_asymm_v5,2020.2.10,MacIntel,60,61025ae37ef11b136ea224fe,,,,,,,,,3554,51,-82,1,0,0,response3disk,,4,8,-11,1,0,0,rectangle,8,-11,1,0,0,8,-11,1,0,0,1,55,215,23,1,,,,,,,,
,,,,,,,,,,,,,FF,,,,,,,,0.618,,,,,,,,,,,,,,,,,,,,,,610183ffbfe2d8b4c94fcf01,61036f10daa485dd0859af5b,2021-07-29_23h17.27.561,Simcolourproject_2stim_asymm_v5,2020.2.10,MacIntel,60,61025ae37ef11b136ea224fe,,,,,,,,,1110,57,39,1,0,0,response1disk,,6,1,13,1,0,0,rectangle,1,13,1,0,0,1,13,1,0,0,1,56,216,70,1,,,,,,,,
,,,,,,,,,,,,,FF,,,,,,,,0.749,,,,,,,,,,,,,,,,,,,,,,610183ffbfe2d8b4c94fcf01,61036f10daa485dd0859af5b,2021-07-29_23h17.27.561,Simcolourproject_2stim_asymm_v5,2020.2.10,MacIntel,60,61025ae37ef11b136ea224fe,,,,,,,,,2111,29,57,1,0,0,response1disk,,7,3,-4,1,0,0,rectangle,3,-4,1,0,0,3,-4,1,0,0,1,57,217,46,1,,,,,,,,
,,,,,,,,,,,,,FF,,,,,,,,0.599,,,,,,,,,,,,,,,,,,,,,,610183ffbfe2d8b4c94fcf01,61036f10daa485dd0859af5b,2021-07-29_23h17.27.561,Simcolourproject_2stim_asymm_v5,2020.2.10,MacIntel,60,61025ae37ef11b136ea224fe,,,,,,,,,3119,28,75,1,0,0,response1disk,,7,9,-8,1,0,0,rectangle,9,-8,1,0,0,9,-8,1,0,0,1,58,218,33,1,,,,,,,,
,,,,,,,,,,,,,FF,,,,,,,,0.917,,,,,,,,,,,,,,,,,,,,,,610183ffbfe2d8b4c94fcf01,61036f10daa485dd0859af5b,2021-07-29_23h17.27.561,Simcolourproject_2stim_asymm_v5,2020.2.10,MacIntel,60,61025ae37ef11b136ea224fe,,,,,,,,,615,77,-51,1,0,0,response3disk,,5,2,-10,1,0,0,rectangle,2,-10,1,0,0,2,-10,1,0,0,1,59,219,154,1,,,,,,,,
,,,,,,,,,,,,,FF,,,,,,,,0.733,,,,,,,,,,,,,,,,,,,,,,610183ffbfe2d8b4c94fcf01,61036f10daa485dd0859af5b,2021-07-29_23h17.27.561,Simcolourproject_2stim_asymm_v5,2020.2.10,MacIntel,60,61025ae37ef11b136ea224fe,,,,,,,,,2007,84,46,1,0,0,response1disk,,6,-7,-4,1,0,0,rectangle,-7,-4,1,0,0,-7,-4,1,0,0,1,60,220,2,1,,,,,,,,
,,,,,,,,,,,,,FF,,,,,,,,0.533,,,,,,,,,,,,,,,,,,,,,,610183ffbfe2d8b4c94fcf01,61036f10daa485dd0859af5b,2021-07-29_23h17.27.561,Simcolourproject_2stim_asymm_v5,2020.2.10,MacIntel,60,61025ae37ef11b136ea224fe,,,,,,,,,2339,57,28,1,0,0,response1disk,,6,3,15,1,0,0,rectangle,3,15,1,0,0,3,15,1,0,0,1,61,221,107,1,,,,,,,,
,,,,,,,,,,,,,FF,,,,,,,,0.433,,,,,,,,,,,,,,,,,,,,,,610183ffbfe2d8b4c94fcf01,61036f10daa485dd0859af5b,2021-07-29_23h17.27.561,Simcolourproject_2stim_asymm_v5,2020.2.10,MacIntel,60,61025ae37ef11b136ea224fe,,,,,,,,,4093,39,82,1,0,0,response1disk,,7,5,-10,1,0,0,rectangle,5,-10,1,0,0,5,-10,1,0,0,1,62,222,73,1,,,,,,,,
,,,,,,,,,,,,,FF,,,,,,,,0.782,,,,,,,,,,,,,,,,,,,,,,610183ffbfe2d8b4c94fcf01,61036f10daa485dd0859af5b,2021-07-29_23h17.27.561,Simcolourproject_2stim_asymm_v5,2020.2.10,MacIntel,60,61025ae37ef11b136ea224fe,,,,,,,,,4064,85,30,1,0,0,response1disk,,6,11,-12,1,0,0,rectangle,11,-12,1,0,0,11,-12,1,0,0,1,63,223,79,1,,,,,,,,
,,,,,,,,,,,,,FF,,,,,,,,1.083,,,,,,,,,,,,,,,,,,,,,,610183ffbfe2d8b4c94fcf01,61036f10daa485dd0859af5b,2021-07-29_23h17.27.561,Simcolourproject_2stim_asymm_v5,2020.2.10,MacIntel,60,61025ae37ef11b136ea224fe,,,,,,,,,634,-68,-41,1,0,0,response5disk,,2,7,5,1,0,0,rectangle,7,5,1,0,0,7,5,1,0,0,1,64,224,22,1,,,,,,,,
,,,,,,,,,,,,,FF,,,,,,,,1.367,,,,,,,,,,,,,,,,,,,,,,610183ffbfe2d8b4c94fcf01,61036f10daa485dd0859af5b,2021-07-29_23h17.27.561,Simcolourproject_2stim_asymm_v5,2020.2.10,MacIntel,60,61025ae37ef11b136ea224fe,,,,,,,,,2583,79,-46,1,0,0,response3disk,,5,-8,-14,1,0,0,rectangle,-8,-14,1,0,0,-8,-14,1,0,0,1,65,225,3,1,,,,,,,,
,,,,,,,,,,,,,FF,,,,,,,,0.649,,,,,,,,,,,,,,,,,,,,,,610183ffbfe2d8b4c94fcf01,61036f10daa485dd0859af5b,2021-07-29_23h17.27.561,Simcolourproject_2stim_asymm_v5,2020.2.10,MacIntel,60,61025ae37ef11b136ea224fe,,,,,,,,,3459,32,66,1,0,0,response1disk,,7,-4,-8,1,0,0,rectangle,-4,-8,1,0,0,-4,-8,1,0,0,1,66,226,105,1,,,,,,,,
,,,,,,,,,,,,,FF,,,,,,,,0.666,,,,,,,,,,,,,,,,,,,,,,610183ffbfe2d8b4c94fcf01,61036f10daa485dd0859af5b,2021-07-29_23h17.27.561,Simcolourproject_2stim_asymm_v5,2020.2.10,MacIntel,60,61025ae37ef11b136ea224fe,,,,,,,,,473,71,45,1,0,0,response1disk,,6,9,8,1,0,0,rectangle,9,8,1,0,0,9,8,1,0,0,1,67,227,125,1,,,,,,,,
,,,,,,,,,,,,,FF,,,,,,,,0.666,,,,,,,,,,,,,,,,,,,,,,610183ffbfe2d8b4c94fcf01,61036f10daa485dd0859af5b,2021-07-29_23h17.27.561,Simcolourproject_2stim_asymm_v5,2020.2.10,MacIntel,60,61025ae37ef11b136ea224fe,,,,,,,,,2970,36,74,1,0,0,response1disk,,7,17,-1,1,0,0,rectangle,17,-1,1,0,0,17,-1,1,0,0,1,68,228,113,1,,,,,,,,
,,,,,,,,,,,,,FF,,,,,,,,0.483,,,,,,,,,,,,,,,,,,,,,,610183ffbfe2d8b4c94fcf01,61036f10daa485dd0859af5b,2021-07-29_23h17.27.561,Simcolourproject_2stim_asymm_v5,2020.2.10,MacIntel,60,61025ae37ef11b136ea224fe,,,,,,,,,669,31,53,1,0,0,response1disk,,7,20,13,1,0,0,rectangle,20,13,1,0,0,20,13,1,0,0,1,69,229,45,1,,,,,,,,
,,,,,,,,,,,,,FF,,,,,,,,0.983,,,,,,,,,,,,,,,,,,,,,,610183ffbfe2d8b4c94fcf01,61036f10daa485dd0859af5b,2021-07-29_23h17.27.561,Simcolourproject_2stim_asymm_v5,2020.2.10,MacIntel,60,61025ae37ef11b136ea224fe,,,,,,,,,919,54,33,1,0,0,response1disk,,6,6,8,1,0,0,rectangle,6,8,1,0,0,6,8,1,0,0,1,70,230,149,1,,,,,,,,
,,,,,,,,,,,,,FF,,,,,,,,0.45,,,,,,,,,,,,,,,,,,,,,,610183ffbfe2d8b4c94fcf01,61036f10daa485dd0859af5b,2021-07-29_23h17.27.561,Simcolourproject_2stim_asymm_v5,2020.2.10,MacIntel,60,61025ae37ef11b136ea224fe,,,,,,,,,3323,48,72,1,0,0,response1disk,,7,24,14,1,0,0,rectangle,24,14,1,0,0,24,14,1,0,0,1,71,231,54,1,,,,,,,,
,,,,,,,,,,,,,FF,,,,,,,,0.849,,,,,,,,,,,,,,,,,,,,,,610183ffbfe2d8b4c94fcf01,61036f10daa485dd0859af5b,2021-07-29_23h17.27.561,Simcolourproject_2stim_asymm_v5,2020.2.10,MacIntel,60,61025ae37ef11b136ea224fe,,,,,,,,,1214,40,-96,1,0,0,response3disk,,4,-1,0,1,0,0,rectangle,-1,0,1,0,0,-1,0,1,0,0,1,72,232,138,1,,,,,,,,
,,,,,,,,,,,,,FF,,,,,,,,0.565,,,,,,,,,,,,,,,,,,,,,,610183ffbfe2d8b4c94fcf01,61036f10daa485dd0859af5b,2021-07-29_23h17.27.561,Simcolourproject_2stim_asymm_v5,2020.2.10,MacIntel,60,61025ae37ef11b136ea224fe,,,,,,,,,1177,26,62,1,0,0,response1disk,,7,2,-7,1,0,0,rectangle,2,-7,1,0,0,2,-7,1,0,0,1,73,233,35,1,,,,,,,,
,,,,,,,,,,,,,FF,,,,,,,,1.067,,,,,,,,,,,,,,,,,,,,,,610183ffbfe2d8b4c94fcf01,61036f10daa485dd0859af5b,2021-07-29_23h17.27.561,Simcolourproject_2stim_asymm_v5,2020.2.10,MacIntel,60,61025ae37ef11b136ea224fe,,,,,,,,,3245,-59,29,1,0,0,response7disk,,1,-14,10,1,0,0,rectangle,-14,10,1,0,0,-14,10,1,0,0,1,74,234,64,1,,,,,,,,
,,,,,,,,,,,,,FF,,,,,,,,1.849,,,,,,,,,,,,,,,,,,,,,,610183ffbfe2d8b4c94fcf01,61036f10daa485dd0859af5b,2021-07-29_23h17.27.561,Simcolourproject_2stim_asymm_v5,2020.2.10,MacIntel,60,61025ae37ef11b136ea224fe,,,,,,,,,1941,68,-39,1,0,0,response3disk,,5,7,-17,1,0,0,rectangle,7,-17,1,0,0,7,-17,1,0,0,1,75,235,39,1,,,,,,,,
,,,,,,,,,,,,,FF,,,,,,,,1.116,,,,,,,,,,,,,,,,,,,,,,610183ffbfe2d8b4c94fcf01,61036f10daa485dd0859af5b,2021-07-29_23h17.27.561,Simcolourproject_2stim_asymm_v5,2020.2.10,MacIntel,60,61025ae37ef11b136ea224fe,,,,,,,,,4194,32,63,1,0,0,response1disk,,7,12,-9,1,0,0,rectangle,12,-9,1,0,0,12,-9,1,0,0,1,76,236,69,1,,,,,,,,
,,,,,,,,,,,,,FF,,,,,,,,0.883,,,,,,,,,,,,,,,,,,,,,,610183ffbfe2d8b4c94fcf01,61036f10daa485dd0859af5b,2021-07-29_23h17.27.561,Simcolourproject_2stim_asymm_v5,2020.2.10,MacIntel,60,61025ae37ef11b136ea224fe,,,,,,,,,2901,23,-83,1,0,0,response3disk,,4,-11,-5,1,0,0,rectangle,-11,-5,1,0,0,-11,-5,1,0,0,1,77,237,131,1,,,,,,,,
,,,,,,,,,,,,,FF,,,,,,,,1.45,,,,,,,,,,,,,,,,,,,,,,610183ffbfe2d8b4c94fcf01,61036f10daa485dd0859af5b,2021-07-29_23h17.27.561,Simcolourproject_2stim_asymm_v5,2020.2.10,MacIntel,60,61025ae37ef11b136ea224fe,,,,,,,,,4251,-49,22,1,0,0,response7disk,,1,6,7,1,0,0,rectangle,-42,-96,1,0,0,2,-9,1,0,0,1,78,238,48,1,,response5disk_3,TRUE,3,3,"[64,318,103,90,286,166,300,300,73,303,285,257,65,239,95,184,105,185,189,168]",2.317,rectangle
,,,,,,,,,,,,,FF,,,,,,,,1.483,,,,,,,,,,,,,,,,,,,,,,610183ffbfe2d8b4c94fcf01,61036f10daa485dd0859af5b,2021-07-29_23h17.27.561,Simcolourproject_2stim_asymm_v5,2020.2.10,MacIntel,60,61025ae37ef11b136ea224fe,,,,,,,,,3275,74,36,1,0,0,response1disk,,6,5,-1,1,0,0,rectangle,5,-1,1,0,0,5,-1,1,0,0,1,79,239,71,1,,,,,,,,
,,,,,,,,,,,,,FF,,,,,,,,0.865,,,,,,,,,,,,,,,,,,,,,,610183ffbfe2d8b4c94fcf01,61036f10daa485dd0859af5b,2021-07-29_23h17.27.561,Simcolourproject_2stim_asymm_v5,2020.2.10,MacIntel,60,61025ae37ef11b136ea224fe,,,,,,,,,31,36,51,1,0,0,response1disk,,7,19,0,1,0,0,rectangle,19,0,1,0,0,19,0,1,0,0,1,80,240,151,1,,,,,,,,
,,,,,,,,,,,,,FF,,,,,,,,0.634,,,,,,,,,,,,,,,,,,,,,,610183ffbfe2d8b4c94fcf01,61036f10daa485dd0859af5b,2021-07-29_23h17.27.561,Simcolourproject_2stim_asymm_v5,2020.2.10,MacIntel,60,61025ae37ef11b136ea224fe,,,,,,,,,1418,25,69,1,0,0,response1disk,,7,6,6,1,0,0,rectangle,6,6,1,0,0,6,6,1,0,0,1,81,241,28,1,,,,,,,,
,,,,,,,,,,,,,FF,,,,,,,,1.117,,,,,,,,,,,,,,,,,,,,,,610183ffbfe2d8b4c94fcf01,61036f10daa485dd0859af5b,2021-07-29_23h17.27.561,Simcolourproject_2stim_asymm_v5,2020.2.10,MacIntel,60,61025ae37ef11b136ea224fe,,,,,,,,,4097,-38,-71,1,0,0,response5disk,,3,-4,0,1,0,0,rectangle,-4,0,1,0,0,-4,0,1,0,0,1,82,242,130,1,,,,,,,,
,,,,,,,,,,,,,FF,,,,,,,,1.167,,,,,,,,,,,,,,,,,,,,,,610183ffbfe2d8b4c94fcf01,61036f10daa485dd0859af5b,2021-07-29_23h17.27.561,Simcolourproject_2stim_asymm_v5,2020.2.10,MacIntel,60,61025ae37ef11b136ea224fe,,,,,,,,,1732,67,35,1,0,0,response1disk,,6,-18,-8,1,0,0,rectangle,-18,-8,1,0,0,-18,-8,1,0,0,1,83,243,145,1,,,,,,,,
,,,,,,,,,,,,,FF,,,,,,,,0.799,,,,,,,,,,,,,,,,,,,,,,610183ffbfe2d8b4c94fcf01,61036f10daa485dd0859af5b,2021-07-29_23h17.27.561,Simcolourproject_2stim_asymm_v5,2020.2.10,MacIntel,60,61025ae37ef11b136ea224fe,,,,,,,,,478,35,75,1,0,0,response1disk,,7,-3,-9,1,0,0,rectangle,-3,-9,1,0,0,-3,-9,1,0,0,1,84,244,8,1,,,,,,,,
,,,,,,,,,,,,,FF,,,,,,,,0.884,,,,,,,,,,,,,,,,,,,,,,610183ffbfe2d8b4c94fcf01,61036f10daa485dd0859af5b,2021-07-29_23h17.27.561,Simcolourproject_2stim_asymm_v5,2020.2.10,MacIntel,60,61025ae37ef11b136ea224fe,,,,,,,,,4205,-58,-37,1,0,0,response5disk,,2,-4,-8,1,0,0,rectangle,-4,-8,1,0,0,-4,-8,1,0,0,1,85,245,140,1,,,,,,,,
,,,,,,,,,,,,,FF,,,,,,,,0.65,,,,,,,,,,,,,,,,,,,,,,610183ffbfe2d8b4c94fcf01,61036f10daa485dd0859af5b,2021-07-29_23h17.27.561,Simcolourproject_2stim_asymm_v5,2020.2.10,MacIntel,60,61025ae37ef11b136ea224fe,,,,,,,,,3541,26,38,1,0,0,response1disk,,7,6,-8,1,0,0,rectangle,6,-8,1,0,0,6,-8,1,0,0,1,86,246,121,1,,,,,,,,
,,,,,,,,,,,,,FF,,,,,,,,1.35,,,,,,,,,,,,,,,,,,,,,,610183ffbfe2d8b4c94fcf01,61036f10daa485dd0859af5b,2021-07-29_23h17.27.561,Simcolourproject_2stim_asymm_v5,2020.2.10,MacIntel,60,61025ae37ef11b136ea224fe,,,,,,,,,1970,-43,-92,1,0,0,response5disk,,3,6,0,1,0,0,rectangle,6,0,1,0,0,6,0,1,0,0,1,87,247,78,1,,,,,,,,
,,,,,,,,,,,,,FF,,,,,,,,0.651,,,,,,,,,,,,,,,,,,,,,,610183ffbfe2d8b4c94fcf01,61036f10daa485dd0859af5b,2021-07-29_23h17.27.561,Simcolourproject_2stim_asymm_v5,2020.2.10,MacIntel,60,61025ae37ef11b136ea224fe,,,,,,,,,2424,35,-67,1,0,0,response3disk,,4,-11,2,1,0,0,rectangle,-11,2,1,0,0,-11,2,1,0,0,1,88,248,98,1,,,,,,,,
,,,,,,,,,,,,,FF,,,,,,,,0.634,,,,,,,,,,,,,,,,,,,,,,610183ffbfe2d8b4c94fcf01,61036f10daa485dd0859af5b,2021-07-29_23h17.27.561,Simcolourproject_2stim_asymm_v5,2020.2.10,MacIntel,60,61025ae37ef11b136ea224fe,,,,,,,,,2450,27,46,1,0,0,response1disk,,7,4,-5,1,0,0,rectangle,4,-5,1,0,0,4,-5,1,0,0,1,89,249,12,1,,,,,,,,
,,,,,,,,,,,,,FF,,,,,,,,0.6,,,,,,,,,,,,,,,,,,,,,,610183ffbfe2d8b4c94fcf01,61036f10daa485dd0859af5b,2021-07-29_23h17.27.561,Simcolourproject_2stim_asymm_v5,2020.2.10,MacIntel,60,61025ae37ef11b136ea224fe,,,,,,,,,1991,23,60,1,0,0,response1disk,,7,0,3,1,0,0,rectangle,0,3,1,0,0,0,3,1,0,0,1,90,250,19,1,,,,,,,,
,,,,,,,,,,,,,FF,,,,,,,,7.083,,,,,,,,,,,,,,,,,,,,,,610183ffbfe2d8b4c94fcf01,61036f10daa485dd0859af5b,2021-07-29_23h17.27.561,Simcolourproject_2stim_asymm_v5,2020.2.10,MacIntel,60,61025ae37ef11b136ea224fe,,,,,,,,,354,63,21,1,0,0,response1disk,,6,10,-3,1,0,0,rectangle,10,-3,1,0,0,10,-3,1,0,0,1,91,251,134,1,,,,,,,,
,,,,,,,,,,,,,FF,,,,,,,,1.516,,,,,,,,,,,,,,,,,,,,,,610183ffbfe2d8b4c94fcf01,61036f10daa485dd0859af5b,2021-07-29_23h17.27.561,Simcolourproject_2stim_asymm_v5,2020.2.10,MacIntel,60,61025ae37ef11b136ea224fe,,,,,,,,,1681,85,-57,1,0,0,response3disk,,5,9,-7,1,0,0,rectangle,9,-7,1,0,0,9,-7,1,0,0,1,92,252,83,1,,,,,,,,
,,,,,,,,,,,,,FF,,,,,,,,0.667,,,,,,,,,,,,,,,,,,,,,,610183ffbfe2d8b4c94fcf01,61036f10daa485dd0859af5b,2021-07-29_23h17.27.561,Simcolourproject_2stim_asymm_v5,2020.2.10,MacIntel,60,61025ae37ef11b136ea224fe,,,,,,,,,2873,39,68,1,0,0,response1disk,,7,23,15,1,0,0,rectangle,23,15,1,0,0,23,15,1,0,0,1,93,253,68,1,,,,,,,,
,,,,,,,,,,,,,FF,,,,,,,,1.266,,,,,,,,,,,,,,,,,,,,,,610183ffbfe2d8b4c94fcf01,61036f10daa485dd0859af5b,2021-07-29_23h17.27.561,Simcolourproject_2stim_asymm_v5,2020.2.10,MacIntel,60,61025ae37ef11b136ea224fe,,,,,,,,,4104,-62,-36,1,0,0,response5disk,,2,-7,5,1,0,0,rectangle,-7,5,1,0,0,-7,5,1,0,0,1,94,254,127,1,,,,,,,,
,,,,,,,,,,,,,FF,,,,,,,,0.75,,,,,,,,,,,,,,,,,,,,,,610183ffbfe2d8b4c94fcf01,61036f10daa485dd0859af5b,2021-07-29_23h17.27.561,Simcolourproject_2stim_asymm_v5,2020.2.10,MacIntel,60,61025ae37ef11b136ea224fe,,,,,,,,,3027,48,34,1,0,0,response1disk,,6,6,10,1,0,0,rectangle,6,10,1,0,0,6,10,1,0,0,1,95,255,57,1,,,,,,,,
,,,,,,,,,,,,,FF,,,,,,,,0.965,,,,,,,,,,,,,,,,,,,,,,610183ffbfe2d8b4c94fcf01,61036f10daa485dd0859af5b,2021-07-29_23h17.27.561,Simcolourproject_2stim_asymm_v5,2020.2.10,MacIntel,60,61025ae37ef11b136ea224fe,,,,,,,,,2525,76,46,1,0,0,response1disk,,6,27,7,1,0,0,rectangle,-52,71,1,0,0,-8,-2,1,0,0,1,96,256,117,1,,response7disk_3,TRUE,0,0,"[64,318,103,90,286,166,300,300,73,303,285,257,65,239,95,184,105,185,189,168]",1.65,rectangle
,,,,,,,,,,,,,FF,,,,,,,,1.233,,,,,,,,,,,,,,,,,,,,,,610183ffbfe2d8b4c94fcf01,61036f10daa485dd0859af5b,2021-07-29_23h17.27.561,Simcolourproject_2stim_asymm_v5,2020.2.10,MacIntel,60,61025ae37ef11b136ea224fe,,,,,,,,,1741,76,-50,1,0,0,response3disk,,5,19,-16,1,0,0,rectangle,19,-16,1,0,0,19,-16,1,0,0,1,97,257,15,1,,,,,,,,
,,,,,,,,,,,,,FF,,,,,,,,0.816,,,,,,,,,,,,,,,,,,,,,,610183ffbfe2d8b4c94fcf01,61036f10daa485dd0859af5b,2021-07-29_23h17.27.561,Simcolourproject_2stim_asymm_v5,2020.2.10,MacIntel,60,61025ae37ef11b136ea224fe,,,,,,,,,612,56,-38,1,0,0,response3disk,,5,5,-15,1,0,0,rectangle,5,-15,1,0,0,5,-15,1,0,0,1,98,258,63,1,,,,,,,,
,,,,,,,,,,,,,FF,,,,,,,,0.633,,,,,,,,,,,,,,,,,,,,,,610183ffbfe2d8b4c94fcf01,61036f10daa485dd0859af5b,2021-07-29_23h17.27.561,Simcolourproject_2stim_asymm_v5,2020.2.10,MacIntel,60,61025ae37ef11b136ea224fe,,,,,,,,,917,73,54,1,0,0,response1disk,,6,10,2,1,0,0,rectangle,10,2,1,0,0,10,2,1,0,0,1,99,259,128,1,,,,,,,,
,,,,,,,,,,,,,FF,,,,,,,,0.566,,,,,,,,,,,,,,,,,,,,,,610183ffbfe2d8b4c94fcf01,61036f10daa485dd0859af5b,2021-07-29_23h17.27.561,Simcolourproject_2stim_asymm_v5,2020.2.10,MacIntel,60,61025ae37ef11b136ea224fe,,,,,,,,,1836,50,20,1,0,0,response1disk,,6,20,6,1,0,0,rectangle,20,6,1,0,0,20,6,1,0,0,1,100,260,1,1,,,,,,,,
,,,,,,,,,,,,,FF,,,,,,,,0.582,,,,,,,,,,,,,,,,,,,,,,610183ffbfe2d8b4c94fcf01,61036f10daa485dd0859af5b,2021-07-29_23h17.27.561,Simcolourproject_2stim_asymm_v5,2020.2.10,MacIntel,60,61025ae37ef11b136ea224fe,,,,,,,,,3550,16,54,1,0,0,response1disk,,7,9,3,1,0,0,rectangle,9,3,1,0,0,9,3,1,0,0,1,101,261,94,1,,,,,,,,
,,,,,,,,,,,,,FF,,,,,,,,0.683,,,,,,,,,,,,,,,,,,,,,,610183ffbfe2d8b4c94fcf01,61036f10daa485dd0859af5b,2021-07-29_23h17.27.561,Simcolourproject_2stim_asymm_v5,2020.2.10,MacIntel,60,61025ae37ef11b136ea224fe,,,,,,,,,1184,30,58,1,0,0,response1disk,,7,18,3,1,0,0,rectangle,18,3,1,0,0,18,3,1,0,0,1,102,262,97,1,,,,,,,,
,,,,,,,,,,,,,FF,,,,,,,,0.617,,,,,,,,,,,,,,,,,,,,,,610183ffbfe2d8b4c94fcf01,61036f10daa485dd0859af5b,2021-07-29_23h17.27.561,Simcolourproject_2stim_asymm_v5,2020.2.10,MacIntel,60,61025ae37ef11b136ea224fe,,,,,,,,,2074,55,30,1,0,0,response1disk,,6,9,4,1,0,0,rectangle,9,4,1,0,0,9,4,1,0,0,1,103,263,16,1,,,,,,,,
,,,,,,,,,,,,,FF,,,,,,,,3,,,,,,,,,,,,,,,,,,,,,,610183ffbfe2d8b4c94fcf01,61036f10daa485dd0859af5b,2021-07-29_23h17.27.561,Simcolourproject_2stim_asymm_v5,2020.2.10,MacIntel,60,61025ae37ef11b136ea224fe,,,,,,,,,2826,36,-84,1,0,0,response3disk,,4,13,-2,1,0,0,rectangle,13,-2,1,0,0,13,-2,1,0,0,1,104,264,51,1,,,,,,,,
,,,,,,,,,,,,,FF,,,,,,,,0.983,,,,,,,,,,,,,,,,,,,,,,610183ffbfe2d8b4c94fcf01,61036f10daa485dd0859af5b,2021-07-29_23h17.27.561,Simcolourproject_2stim_asymm_v5,2020.2.10,MacIntel,60,61025ae37ef11b136ea224fe,,,,,,,,,849,41,77,1,0,0,response1disk,,7,0,2,1,0,0,rectangle,0,2,1,0,0,0,2,1,0,0,1,105,265,72,1,,,,,,,,
,,,,,,,,,,,,,FF,,,,,,,,0.834,,,,,,,,,,,,,,,,,,,,,,610183ffbfe2d8b4c94fcf01,61036f10daa485dd0859af5b,2021-07-29_23h17.27.561,Simcolourproject_2stim_asymm_v5,2020.2.10,MacIntel,60,61025ae37ef11b136ea224fe,,,,,,,,,286,82,30,1,0,0,response1disk,,6,7,-4,1,0,0,rectangle,7,-4,1,0,0,7,-4,1,0,0,1,106,266,120,1,,,,,,,,
,,,,,,,,,,,,,FF,,,,,,,,0.717,,,,,,,,,,,,,,,,,,,,,,610183ffbfe2d8b4c94fcf01,61036f10daa485dd0859af5b,2021-07-29_23h17.27.561,Simcolourproject_2stim_asymm_v5,2020.2.10,MacIntel,60,61025ae37ef11b136ea224fe,,,,,,,,,301,35,56,1,0,0,response1disk,,7,14,-5,1,0,0,rectangle,14,-5,1,0,0,14,-5,1,0,0,1,107,267,76,1,,,,,,,,
,,,,,,,,,,,,,FF,,,,,,,,0.6,,,,,,,,,,,,,,,,,,,,,,610183ffbfe2d8b4c94fcf01,61036f10daa485dd0859af5b,2021-07-29_23h17.27.561,Simcolourproject_2stim_asymm_v5,2020.2.10,MacIntel,60,61025ae37ef11b136ea224fe,,,,,,,,,1487,31,48,1,0,0,response1disk,,7,10,-12,1,0,0,rectangle,10,-12,1,0,0,10,-12,1,0,0,1,108,268,41,1,,,,,,,,
,,,,,,,,,,,,,FF,,,,,,,,1.817,,,,,,,,,,,,,,,,,,,,,,610183ffbfe2d8b4c94fcf01,61036f10daa485dd0859af5b,2021-07-29_23h17.27.561,Simcolourproject_2stim_asymm_v5,2020.2.10,MacIntel,60,61025ae37ef11b136ea224fe,,,,,,,,,455,-39,53,1,0,0,response7disk,,0,-8,8,1,0,0,rectangle,-8,8,1,0,0,-8,8,1,0,0,1,109,269,82,1,,,,,,,,
,,,,,,,,,,,,,FF,,,,,,,,0.8,,,,,,,,,,,,,,,,,,,,,,610183ffbfe2d8b4c94fcf01,61036f10daa485dd0859af5b,2021-07-29_23h17.27.561,Simcolourproject_2stim_asymm_v5,2020.2.10,MacIntel,60,61025ae37ef11b136ea224fe,,,,,,,,,32,47,25,1,0,0,response1disk,,6,13,6,1,0,0,rectangle,13,6,1,0,0,13,6,1,0,0,1,110,270,75,1,,,,,,,,
,,,,,,,,,,,,,FF,,,,,,,,0.55,,,,,,,,,,,,,,,,,,,,,,610183ffbfe2d8b4c94fcf01,61036f10daa485dd0859af5b,2021-07-29_23h17.27.561,Simcolourproject_2stim_asymm_v5,2020.2.10,MacIntel,60,61025ae37ef11b136ea224fe,,,,,,,,,3279,28,47,1,0,0,response1disk,,7,20,9,1,0,0,rectangle,20,9,1,0,0,20,9,1,0,0,1,111,271,58,1,,,,,,,,
,,,,,,,,,,,,,FF,,,,,,,,0.468,,,,,,,,,,,,,,,,,,,,,,610183ffbfe2d8b4c94fcf01,61036f10daa485dd0859af5b,2021-07-29_23h17.27.561,Simcolourproject_2stim_asymm_v5,2020.2.10,MacIntel,60,61025ae37ef11b136ea224fe,,,,,,,,,142,35,65,1,0,0,response1disk,,7,22,9,1,0,0,rectangle,22,9,1,0,0,22,9,1,0,0,1,112,272,38,1,,,,,,,,
,,,,,,,,,,,,,FF,,,,,,,,1.1,,,,,,,,,,,,,,,,,,,,,,610183ffbfe2d8b4c94fcf01,61036f10daa485dd0859af5b,2021-07-29_23h17.27.561,Simcolourproject_2stim_asymm_v5,2020.2.10,MacIntel,60,61025ae37ef11b136ea224fe,,,,,,,,,1143,37,-79,1,0,0,response3disk,,4,1,7,1,0,0,rectangle,1,7,1,0,0,1,7,1,0,0,1,113,273,103,1,,,,,,,,
,,,,,,,,,,,,,FF,,,,,,,,1.099,,,,,,,,,,,,,,,,,,,,,,610183ffbfe2d8b4c94fcf01,61036f10daa485dd0859af5b,2021-07-29_23h17.27.561,Simcolourproject_2stim_asymm_v5,2020.2.10,MacIntel,60,61025ae37ef11b136ea224fe,,,,,,,,,2613,37,-74,1,0,0,response3disk,,4,-2,-6,1,0,0,rectangle,-2,-6,1,0,0,-2,-6,1,0,0,1,114,274,62,1,,,,,,,,
,,,,,,,,,,,,,FF,,,,,,,,1.016,,,,,,,,,,,,,,,,,,,,,,610183ffbfe2d8b4c94fcf01,61036f10daa485dd0859af5b,2021-07-29_23h17.27.561,Simcolourproject_2stim_asymm_v5,2020.2.10,MacIntel,60,61025ae37ef11b136ea224fe,,,,,,,,,2571,26,49,1,0,0,response1disk,,7,4,-3,1,0,0,rectangle,4,-3,1,0,0,4,-3,1,0,0,1,115,275,102,1,,,,,,,,
,,,,,,,,,,,,,FF,,,,,,,,1.517,,,,,,,,,,,,,,,,,,,,,,610183ffbfe2d8b4c94fcf01,61036f10daa485dd0859af5b,2021-07-29_23h17.27.561,Simcolourproject_2stim_asymm_v5,2020.2.10,MacIntel,60,61025ae37ef11b136ea224fe,,,,,,,,,1308,59,-41,1,0,0,response3disk,,5,4,-4,1,0,0,rectangle,4,-4,1,0,0,4,-4,1,0,0,1,116,276,95,1,,,,,,,,
,,,,,,,,,,,,,FF,,,,,,,,1.049,,,,,,,,,,,,,,,,,,,,,,610183ffbfe2d8b4c94fcf01,61036f10daa485dd0859af5b,2021-07-29_23h17.27.561,Simcolourproject_2stim_asymm_v5,2020.2.10,MacIntel,60,61025ae37ef11b136ea224fe,,,,,,,,,2175,44,25,1,0,0,response1disk,,6,6,7,1,0,0,rectangle,6,7,1,0,0,6,7,1,0,0,1,117,277,25,1,,,,,,,,
,,,,,,,,,,,,,FF,,,,,,,,1.15,,,,,,,,,,,,,,,,,,,,,,610183ffbfe2d8b4c94fcf01,61036f10daa485dd0859af5b,2021-07-29_23h17.27.561,Simcolourproject_2stim_asymm_v5,2020.2.10,MacIntel,60,61025ae37ef11b136ea224fe,,,,,,,,,2678,24,-94,1,0,0,response3disk,,4,8,-10,1,0,0,rectangle,8,-10,1,0,0,8,-10,1,0,0,1,118,278,81,1,,,,,,,,
,,,,,,,,,,,,,FF,,,,,,,,0.75,,,,,,,,,,,,,,,,,,,,,,610183ffbfe2d8b4c94fcf01,61036f10daa485dd0859af5b,2021-07-29_23h17.27.561,Simcolourproject_2stim_asymm_v5,2020.2.10,MacIntel,60,61025ae37ef11b136ea224fe,,,,,,,,,793,46,33,1,0,0,response1disk,,6,2,-5,1,0,0,rectangle,2,-5,1,0,0,2,-5,1,0,0,1,119,279,11,1,,,,,,,,
,,,,,,,,,,,,,FF,,,,,,,,0.917,,,,,,,,,,,,,,,,,,,,,,610183ffbfe2d8b4c94fcf01,61036f10daa485dd0859af5b,2021-07-29_23h17.27.561,Simcolourproject_2stim_asymm_v5,2020.2.10,MacIntel,60,61025ae37ef11b136ea224fe,,,,,,,,,2380,23,41,1,0,0,response1disk,,7,13,-2,1,0,0,rectangle,13,-2,1,0,0,13,-2,1,0,0,1,120,280,146,1,,,,,,,,
,,,,,,,,,,,,,FF,,,,,,,,0.734,,,,,,,,,,,,,,,,,,,,,,610183ffbfe2d8b4c94fcf01,61036f10daa485dd0859af5b,2021-07-29_23h17.27.561,Simcolourproject_2stim_asymm_v5,2020.2.10,MacIntel,60,61025ae37ef11b136ea224fe,,,,,,,,,2495,42,24,1,0,0,response1disk,,6,7,2,1,0,0,rectangle,7,2,1,0,0,7,2,1,0,0,1,121,281,96,1,,,,,,,,
,,,,,,,,,,,,,FF,,,,,,,,0.933,,,,,,,,,,,,,,,,,,,,,,610183ffbfe2d8b4c94fcf01,61036f10daa485dd0859af5b,2021-07-29_23h17.27.561,Simcolourproject_2stim_asymm_v5,2020.2.10,MacIntel,60,61025ae37ef11b136ea224fe,,,,,,,,,1750,-33,-70,1,0,0,response5disk,,3,-4,-1,1,0,0,rectangle,-4,-1,1,0,0,-4,-1,1,0,0,1,122,282,9,1,,,,,,,,
,,,,,,,,,,,,,FF,,,,,,,,1.132,,,,,,,,,,,,,,,,,,,,,,610183ffbfe2d8b4c94fcf01,61036f10daa485dd0859af5b,2021-07-29_23h17.27.561,Simcolourproject_2stim_asymm_v5,2020.2.10,MacIntel,60,61025ae37ef11b136ea224fe,,,,,,,,,2021,47,23,1,0,0,response1disk,,6,-1,12,1,0,0,rectangle,-1,12,1,0,0,-1,12,1,0,0,1,123,283,150,1,,,,,,,,
,,,,,,,,,,,,,FF,,,,,,,,0.916,,,,,,,,,,,,,,,,,,,,,,610183ffbfe2d8b4c94fcf01,61036f10daa485dd0859af5b,2021-07-29_23h17.27.561,Simcolourproject_2stim_asymm_v5,2020.2.10,MacIntel,60,61025ae37ef11b136ea224fe,,,,,,,,,3085,59,31,1,0,0,response1disk,,6,6,6,1,0,0,rectangle,39,-93,1,0,0,-2,9,1,0,0,1,124,284,84,1,,response3disk_3,TRUE,4,4,"[64,318,103,90,286,166,300,300,73,303,285,257,65,239,95,184,105,185,189,168]",1.732,rectangle
,,,,,,,,,,,,,FF,,,,,,,,0.616,,,,,,,,,,,,,,,,,,,,,,610183ffbfe2d8b4c94fcf01,61036f10daa485dd0859af5b,2021-07-29_23h17.27.561,Simcolourproject_2stim_asymm_v5,2020.2.10,MacIntel,60,61025ae37ef11b136ea224fe,,,,,,,,,2963,21,42,1,0,0,response1disk,,7,12,2,1,0,0,rectangle,60,-74,1,0,0,9,10,1,0,0,1,125,285,141,1,,response3disk_3,TRUE,4,4,"[64,318,103,90,286,166,300,300,73,303,285,257,65,239,95,184,105,185,189,168]",1.45,rectangle
,,,,,,,,,,,,,FF,,,,,,,,1.117,,,,,,,,,,,,,,,,,,,,,,610183ffbfe2d8b4c94fcf01,61036f10daa485dd0859af5b,2021-07-29_23h17.27.561,Simcolourproject_2stim_asymm_v5,2020.2.10,MacIntel,60,61025ae37ef11b136ea224fe,,,,,,,,,438,-82,-40,1,0,0,response5disk,,2,-20,-10,1,0,0,rectangle,-20,-10,1,0,0,-20,-10,1,0,0,1,126,286,144,1,,,,,,,,
,,,,,,,,,,,,,FF,,,,,,,,0.832,,,,,,,,,,,,,,,,,,,,,,610183ffbfe2d8b4c94fcf01,61036f10daa485dd0859af5b,2021-07-29_23h17.27.561,Simcolourproject_2stim_asymm_v5,2020.2.10,MacIntel,60,61025ae37ef11b136ea224fe,,,,,,,,,1786,50,-27,1,0,0,response3disk,,5,-1,-7,1,0,0,rectangle,-1,-7,1,0,0,-1,-7,1,0,0,1,127,287,129,1,,,,,,,,
,,,,,,,,,,,,,FF,,,,,,,,0.799,,,,,,,,,,,,,,,,,,,,,,610183ffbfe2d8b4c94fcf01,61036f10daa485dd0859af5b,2021-07-29_23h17.27.561,Simcolourproject_2stim_asymm_v5,2020.2.10,MacIntel,60,61025ae37ef11b136ea224fe,,,,,,,,,115,63,-26,1,0,0,response3disk,,5,15,-7,1,0,0,rectangle,15,-7,1,0,0,15,-7,1,0,0,1,128,288,91,1,,,,,,,,
,,,,,,,,,,,,,FF,,,,,,,,1.399,,,,,,,,,,,,,,,,,,,,,,610183ffbfe2d8b4c94fcf01,61036f10daa485dd0859af5b,2021-07-29_23h17.27.561,Simcolourproject_2stim_asymm_v5,2020.2.10,MacIntel,60,61025ae37ef11b136ea224fe,,,,,,,,,1005,76,27,1,0,0,response1disk,,6,17,3,1,0,0,rectangle,17,3,1,0,0,17,3,1,0,0,1,129,289,6,1,,,,,,,,
,,,,,,,,,,,,,FF,,,,,,,,0.616,,,,,,,,,,,,,,,,,,,,,,610183ffbfe2d8b4c94fcf01,61036f10daa485dd0859af5b,2021-07-29_23h17.27.561,Simcolourproject_2stim_asymm_v5,2020.2.10,MacIntel,60,61025ae37ef11b136ea224fe,,,,,,,,,683,32,63,1,0,0,response1disk,,7,9,1,1,0,0,rectangle,9,1,1,0,0,9,1,1,0,0,1,130,290,30,1,,,,,,,,
,,,,,,,,,,,,,FF,,,,,,,,1.082,,,,,,,,,,,,,,,,,,,,,,610183ffbfe2d8b4c94fcf01,61036f10daa485dd0859af5b,2021-07-29_23h17.27.561,Simcolourproject_2stim_asymm_v5,2020.2.10,MacIntel,60,61025ae37ef11b136ea224fe,,,,,,,,,350,69,-31,1,0,0,response3disk,,5,8,-5,1,0,0,rectangle,8,-5,1,0,0,8,-5,1,0,0,1,131,291,40,1,,,,,,,,
,,,,,,,,,,,,,FF,,,,,,,,0.767,,,,,,,,,,,,,,,,,,,,,,610183ffbfe2d8b4c94fcf01,61036f10daa485dd0859af5b,2021-07-29_23h17.27.561,Simcolourproject_2stim_asymm_v5,2020.2.10,MacIntel,60,61025ae37ef11b136ea224fe,,,,,,,,,2170,35,-57,1,0,0,response3disk,,4,18,2,1,0,0,rectangle,18,2,1,0,0,18,2,1,0,0,1,132,292,42,1,,,,,,,,
,,,,,,,,,,,,,FF,,,,,,,,1.016,,,,,,,,,,,,,,,,,,,,,,610183ffbfe2d8b4c94fcf01,61036f10daa485dd0859af5b,2021-07-29_23h17.27.561,Simcolourproject_2stim_asymm_v5,2020.2.10,MacIntel,60,61025ae37ef11b136ea224fe,,,,,,,,,4276,69,43,1,0,0,response1disk,,6,-3,9,1,0,0,rectangle,-3,9,1,0,0,-3,9,1,0,0,1,133,293,157,1,,,,,,,,
,,,,,,,,,,,,,FF,,,,,,,,0.583,,,,,,,,,,,,,,,,,,,,,,610183ffbfe2d8b4c94fcf01,61036f10daa485dd0859af5b,2021-07-29_23h17.27.561,Simcolourproject_2stim_asymm_v5,2020.2.10,MacIntel,60,61025ae37ef11b136ea224fe,,,,,,,,,4247,57,25,1,0,0,response1disk,,6,2,-6,1,0,0,rectangle,2,-6,1,0,0,2,-6,1,0,0,1,134,294,139,1,,,,,,,,
,,,,,,,,,,,,,FF,,,,,,,,0.866,,,,,,,,,,,,,,,,,,,,,,610183ffbfe2d8b4c94fcf01,61036f10daa485dd0859af5b,2021-07-29_23h17.27.561,Simcolourproject_2stim_asymm_v5,2020.2.10,MacIntel,60,61025ae37ef11b136ea224fe,,,,,,,,,96,43,-72,1,0,0,response3disk,,4,11,-13,1,0,0,rectangle,11,-13,1,0,0,11,-13,1,0,0,1,135,295,136,1,,,,,,,,
,,,,,,,,,,,,,FF,,,,,,,,0.765,,,,,,,,,,,,,,,,,,,,,,610183ffbfe2d8b4c94fcf01,61036f10daa485dd0859af5b,2021-07-29_23h17.27.561,Simcolourproject_2stim_asymm_v5,2020.2.10,MacIntel,60,61025ae37ef11b136ea224fe,,,,,,,,,1391,63,-29,1,0,0,response3disk,,5,11,-9,1,0,0,rectangle,11,-9,1,0,0,11,-9,1,0,0,1,136,296,50,1,,,,,,,,
,,,,,,,,,,,,,FF,,,,,,,,1.25,,,,,,,,,,,,,,,,,,,,,,610183ffbfe2d8b4c94fcf01,61036f10daa485dd0859af5b,2021-07-29_23h17.27.561,Simcolourproject_2stim_asymm_v5,2020.2.10,MacIntel,60,61025ae37ef11b136ea224fe,,,,,,,,,2900,33,-58,1,0,0,response3disk,,4,11,-13,1,0,0,rectangle,11,-13,1,0,0,11,-13,1,0,0,1,137,297,106,1,,,,,,,,
,,,,,,,,,,,,,FF,,,,,,,,0.616,,,,,,,,,,,,,,,,,,,,,,610183ffbfe2d8b4c94fcf01,61036f10daa485dd0859af5b,2021-07-29_23h17.27.561,Simcolourproject_2stim_asymm_v5,2020.2.10,MacIntel,60,61025ae37ef11b136ea224fe,,,,,,,,,3356,55,40,1,0,0,response1disk,,6,10,16,1,0,0,rectangle,10,16,1,0,0,10,16,1,0,0,1,138,298,122,1,,,,,,,,
,,,,,,,,,,,,,FF,,,,,,,,0.716,,,,,,,,,,,,,,,,,,,,,,610183ffbfe2d8b4c94fcf01,61036f10daa485dd0859af5b,2021-07-29_23h17.27.561,Simcolourproject_2stim_asymm_v5,2020.2.10,MacIntel,60,61025ae37ef11b136ea224fe,,,,,,,,,3747,-47,-92,1,0,0,response5disk,,3,-13,-3,1,0,0,rectangle,-41,-92,1,0,0,1,0,1,0,0,1,139,299,126,1,,response5disk_3,TRUE,3,3,"[64,318,103,90,286,166,300,300,73,303,285,257,65,239,95,184,105,185,189,168]",1.366,rectangle
,,,,,,,,,,,,,FF,,,,,,,,0.749,,,,,,,,,,,,,,,,,,,,,,610183ffbfe2d8b4c94fcf01,61036f10daa485dd0859af5b,2021-07-29_23h17.27.561,Simcolourproject_2stim_asymm_v5,2020.2.10,MacIntel,60,61025ae37ef11b136ea224fe,,,,,,,,,71,54,-18,1,0,0,response3disk,,5,-10,3,1,0,0,rectangle,-10,3,1,0,0,-10,3,1,0,0,1,140,300,99,1,,,,,,,,
,,,,,,,,,,,,,FF,,,,,,,,1,,,,,,,,,,,,,,,,,,,,,,610183ffbfe2d8b4c94fcf01,61036f10daa485dd0859af5b,2021-07-29_23h17.27.561,Simcolourproject_2stim_asymm_v5,2020.2.10,MacIntel,60,61025ae37ef11b136ea224fe,,,,,,,,,2443,54,28,1,0,0,response1disk,,6,-12,-11,1,0,0,rectangle,-12,-11,1,0,0,-12,-11,1,0,0,1,141,301,143,1,,,,,,,,
