key_resp.keys,key_resp.rt,key_resp_14.keys,key_resp_14.rt,key_resp_15.keys,key_resp_15.rt,key_resp_17.keys,key_resp_17.rt,key_resp_9.keys,key_resp_9.rt,key_resp_10.keys,key_resp_10.rt,practice_comparison,Ecc,mouse_5.x,mouse_5.y,mouse_5.leftButton,mouse_5.midButton,mouse_5.rightButton,mouse_5.clicked_name,pracsimilarity,response_time,mouse_10.x,mouse_10.y,mouse_10.leftButton,mouse_10.midButton,mouse_10.rightButton,mouse_10.clicked_name,mouse_7.x,mouse_7.y,mouse_7.leftButton,mouse_7.midButton,mouse_7.rightButton,mouse_6.x,mouse_6.y,mouse_6.leftButton,mouse_6.midButton,mouse_6.rightButton,duringprac.thisRepN,duringprac.thisTrialN,duringprac.thisN,duringprac.thisIndex,duringprac.ran,participant,session,date,expName,psychopyVersion,OS,frameRate,study_id,mouse_7.clicked_name,catchpracsimilarity,catch_response_time,catchnumberprac,catchtrialorderprac,mouse_6.clicked_name,key_resp_22.keys,key_resp_22.rt,realcomparison,mouse.x,mouse.y,mouse.leftButton,mouse.midButton,mouse.rightButton,mouse.clicked_name,Colour2,similarity,mouse_2.x,mouse_2.y,mouse_2.leftButton,mouse_2.midButton,mouse_2.rightButton,mouse_2.clicked_name,mouse_3.x,mouse_3.y,mouse_3.leftButton,mouse_3.midButton,mouse_3.rightButton,mouse_11.x,mouse_11.y,mouse_11.leftButton,mouse_11.midButton,mouse_11.rightButton,trials_2.thisRepN,trials_2.thisTrialN,trials_2.thisN,trials_2.thisIndex,trials_2.ran,Colour1,mouse_3.clicked_name,catchornah,catchsimilarity,catchnumber,catchtrialorder,catchRT,mouse_11.clicked_name
space,1.2363,space,19.7239,space,40.193,space,27.5938,space,3.0311,space,4.8245,103,PF,113.9905396,-53.82104492,1,0,0,response3disk_5,5,11.2334,7.389099121,-1.10446167,1,0,0,rectangle_8,7.389099121,-1.10446167,1,0,0,7.389099121,-1.10446167,1,0,0,0,0,0,2,1,6101ed0ef8c205170a3e22cc,61036bbaa53d4131b64c860d,2021-07-29_22h02.48.182,Simcolourproject_2stim_asymm_v5,2020.2.10,MacIntel,60,61025ae37ef11b136ea224fe,,,,,,,,,,,,,,,,,,,,,,,,,,,,,,,,,,,,,,,,,,,,,,
,,,,,,,,,,,,85,PF,49.57788086,-92.88024902,1,0,0,response3disk_5,4,4.2931,-3.669189453,0.37689209,1,0,0,rectangle_8,97.56787109,-74.04925537,1,0,0,-0.703186035,1.001647949,1,0,0,0,1,1,4,1,6101ed0ef8c205170a3e22cc,61036bbaa53d4131b64c860d,2021-07-29_22h02.48.182,Simcolourproject_2stim_asymm_v5,2020.2.10,MacIntel,60,61025ae37ef11b136ea224fe,response3disk_7,5,2.8736,5,"[2,5]",rectangle_4,,,,,,,,,,,,,,,,,,,,,,,,,,,,,,,,,,,,,,,,
,,,,,,,,,,,,117,FF,47.13793945,67.66421509,1,0,0,response1disk_5,7,5.1616,7.986938477,0.933654785,1,0,0,rectangle_8,7.986938477,0.933654785,1,0,0,7.986938477,0.933654785,1,0,0,0,2,2,0,1,6101ed0ef8c205170a3e22cc,61036bbaa53d4131b64c860d,2021-07-29_22h02.48.182,Simcolourproject_2stim_asymm_v5,2020.2.10,MacIntel,60,61025ae37ef11b136ea224fe,,,,,,,,,,,,,,,,,,,,,,,,,,,,,,,,,,,,,,,,,,,,,,
,,,,,,,,,,,,159,FF,42.70544434,63.58096313,1,0,0,response1disk_5,7,1.5641,-0.376525879,-2.51739502,1,0,0,rectangle_8,-0.376525879,-2.51739502,1,0,0,-0.376525879,-2.51739502,1,0,0,0,3,3,3,1,6101ed0ef8c205170a3e22cc,61036bbaa53d4131b64c860d,2021-07-29_22h02.48.182,Simcolourproject_2stim_asymm_v5,2020.2.10,MacIntel,60,61025ae37ef11b136ea224fe,,,,,,,,,,,,,,,,,,,,,,,,,,,,,,,,,,,,,,,,,,,,,,
,,,,,,,,,,,,21,PF,96.44763184,45.65756226,1,0,0,response1disk_5,6,5.9673,-6.443603516,0.293518066,1,0,0,rectangle_8,71.52124023,-45.14593506,1,0,0,-3.061584473,5.039367676,1,0,0,0,4,4,1,1,6101ed0ef8c205170a3e22cc,61036bbaa53d4131b64c860d,2021-07-29_22h02.48.182,Simcolourproject_2stim_asymm_v5,2020.2.10,MacIntel,60,61025ae37ef11b136ea224fe,response3disk_7,5,2.1614,5,"[2,5]",rectangle_4,,,,,,,,,,,,,,,,,,,,,,,,,,,,,,,,,,,,,,,,
,,,,,,,,,,,,152,FF,34.11914063,77.23101807,1,0,0,response1disk_5,7,1.3397,-4.750366211,-1.810791016,1,0,0,rectangle_8,-4.750366211,-1.810791016,1,0,0,-4.750366211,-1.810791016,1,0,0,0,5,5,5,1,6101ed0ef8c205170a3e22cc,61036bbaa53d4131b64c860d,2021-07-29_22h02.48.182,Simcolourproject_2stim_asymm_v5,2020.2.10,MacIntel,60,61025ae37ef11b136ea224fe,,,,,,,,,,,,,,,,,,,,,,,,,,,,,,,,,,,,,,,,,,,,,,
,,,,,,,,,,,,13,PF,-53.0569458,-39.70501709,1,0,0,response5disk_5,2,2.9326,-7.962890625,1.407897949,1,0,0,rectangle_8,-7.962890625,1.407897949,1,0,0,-7.962890625,1.407897949,1,0,0,0,6,6,6,1,6101ed0ef8c205170a3e22cc,61036bbaa53d4131b64c860d,2021-07-29_22h02.48.182,Simcolourproject_2stim_asymm_v5,2020.2.10,MacIntel,60,61025ae37ef11b136ea224fe,,,,,,,,,,,,,,,,,,,,,,,,,,,,,,,,,,,,,,,,,,,,,,
,,,,,,,,,,,,,FF,,,,,,,,1.2733,,,,,,,,,,,,,,,,,,,,,,6101ed0ef8c205170a3e22cc,61036bbaa53d4131b64c860d,2021-07-29_22h02.48.182,Simcolourproject_2stim_asymm_v5,2020.2.10,MacIntel,60,61025ae37ef11b136ea224fe,,,,,,,space,3.5495,2857,33.2164917,101.0525208,1,0,0,response1disk,,7,-16.05474854,1.24420166,1,0,0,rectangle,-16.05474854,1.24420166,1,0,0,-16.05474854,1.24420166,1,0,0,0,0,0,94,1,,,,,,,,
,,,,,,,,,,,,,FF,,,,,,,,2.3319,,,,,,,,,,,,,,,,,,,,,,6101ed0ef8c205170a3e22cc,61036bbaa53d4131b64c860d,2021-07-29_22h02.48.182,Simcolourproject_2stim_asymm_v5,2020.2.10,MacIntel,60,61025ae37ef11b136ea224fe,,,,,,,,,607,-44.2701416,-62.9163208,1,0,0,response5disk,,3,-1.678100586,-1.739013672,1,0,0,rectangle,-1.678100586,-1.739013672,1,0,0,-1.678100586,-1.739013672,1,0,0,0,1,1,159,1,,,,,,,,
,,,,,,,,,,,,,FF,,,,,,,,6.5605,,,,,,,,,,,,,,,,,,,,,,6101ed0ef8c205170a3e22cc,61036bbaa53d4131b64c860d,2021-07-29_22h02.48.182,Simcolourproject_2stim_asymm_v5,2020.2.10,MacIntel,60,61025ae37ef11b136ea224fe,,,,,,,,,3868,48.00842285,-81.76000977,1,0,0,response3disk,,4,-7.513427734,0.823455811,1,0,0,rectangle,-7.513427734,0.823455811,1,0,0,-7.513427734,0.823455811,1,0,0,0,2,2,82,1,,,,,,,,
,,,,,,,,,,,,,FF,,,,,,,,1.0937,,,,,,,,,,,,,,,,,,,,,,6101ed0ef8c205170a3e22cc,61036bbaa53d4131b64c860d,2021-07-29_22h02.48.182,Simcolourproject_2stim_asymm_v5,2020.2.10,MacIntel,60,61025ae37ef11b136ea224fe,,,,,,,,,1097,47.94012451,105.8292847,1,0,0,response1disk,,7,-13.62030029,-13.71429443,1,0,0,rectangle,-13.62030029,-13.71429443,1,0,0,-13.62030029,-13.71429443,1,0,0,0,3,3,108,1,,,,,,,,
,,,,,,,,,,,,,FF,,,,,,,,1.1898,,,,,,,,,,,,,,,,,,,,,,6101ed0ef8c205170a3e22cc,61036bbaa53d4131b64c860d,2021-07-29_22h02.48.182,Simcolourproject_2stim_asymm_v5,2020.2.10,MacIntel,60,61025ae37ef11b136ea224fe,,,,,,,,,1669,44.0222168,83.54248047,1,0,0,response1disk,,7,7.854858398,4.804260254,1,0,0,rectangle,7.854858398,4.804260254,1,0,0,7.854858398,4.804260254,1,0,0,0,4,4,124,1,,,,,,,,
,,,,,,,,,,,,,FF,,,,,,,,0.8679,,,,,,,,,,,,,,,,,,,,,,6101ed0ef8c205170a3e22cc,61036bbaa53d4131b64c860d,2021-07-29_22h02.48.182,Simcolourproject_2stim_asymm_v5,2020.2.10,MacIntel,60,61025ae37ef11b136ea224fe,,,,,,,,,2692,32.44580078,80.34143066,1,0,0,response1disk,,7,-12.73260498,-6.766418457,1,0,0,rectangle,-12.73260498,-6.766418457,1,0,0,-12.73260498,-6.766418457,1,0,0,0,5,5,140,1,,,,,,,,
,,,,,,,,,,,,,FF,,,,,,,,1.3693,,,,,,,,,,,,,,,,,,,,,,6101ed0ef8c205170a3e22cc,61036bbaa53d4131b64c860d,2021-07-29_22h02.48.182,Simcolourproject_2stim_asymm_v5,2020.2.10,MacIntel,60,61025ae37ef11b136ea224fe,,,,,,,,,3409,42.24841309,59.90765381,1,0,0,response1disk,,7,-8.976074219,-9.496948242,1,0,0,rectangle,-8.976074219,-9.496948242,1,0,0,-8.976074219,-9.496948242,1,0,0,0,6,6,19,1,,,,,,,,
,,,,,,,,,,,,,FF,,,,,,,,0.9781,,,,,,,,,,,,,,,,,,,,,,6101ed0ef8c205170a3e22cc,61036bbaa53d4131b64c860d,2021-07-29_22h02.48.182,Simcolourproject_2stim_asymm_v5,2020.2.10,MacIntel,60,61025ae37ef11b136ea224fe,,,,,,,,,2090,42.1998291,74.90307617,1,0,0,response1disk,,7,10.13909912,17.68927002,1,0,0,rectangle,10.13909912,17.68927002,1,0,0,10.13909912,17.68927002,1,0,0,0,7,7,154,1,,,,,,,,
,,,,,,,,,,,,,FF,,,,,,,,2.5171,,,,,,,,,,,,,,,,,,,,,,6101ed0ef8c205170a3e22cc,61036bbaa53d4131b64c860d,2021-07-29_22h02.48.182,Simcolourproject_2stim_asymm_v5,2020.2.10,MacIntel,60,61025ae37ef11b136ea224fe,,,,,,,,,1145,45.93884277,-82.02807617,1,0,0,response3disk,,4,8.102172852,-2.628967285,1,0,0,rectangle,8.102172852,-2.628967285,1,0,0,8.102172852,-2.628967285,1,0,0,0,8,8,95,1,,,,,,,,
,,,,,,,,,,,,,FF,,,,,,,,5.8173,,,,,,,,,,,,,,,,,,,,,,6101ed0ef8c205170a3e22cc,61036bbaa53d4131b64c860d,2021-07-29_22h02.48.182,Simcolourproject_2stim_asymm_v5,2020.2.10,MacIntel,60,61025ae37ef11b136ea224fe,,,,,,,,,687,101.8405762,41.08197021,1,0,0,response1disk,,6,2.790344238,-11.67584229,1,0,0,rectangle,2.790344238,-11.67584229,1,0,0,2.790344238,-11.67584229,1,0,0,0,9,9,80,1,,,,,,,,
,,,,,,,,,,,,,FF,,,,,,,,1.4925,,,,,,,,,,,,,,,,,,,,,,6101ed0ef8c205170a3e22cc,61036bbaa53d4131b64c860d,2021-07-29_22h02.48.182,Simcolourproject_2stim_asymm_v5,2020.2.10,MacIntel,60,61025ae37ef11b136ea224fe,,,,,,,,,4242,48.24438477,108.2416687,1,0,0,response1disk,,7,-1.674682617,13.81814575,1,0,0,rectangle,-1.674682617,13.81814575,1,0,0,-1.674682617,13.81814575,1,0,0,0,10,10,137,1,,,,,,,,
,,,,,,,,,,,,,FF,,,,,,,,1.6167,,,,,,,,,,,,,,,,,,,,,,6101ed0ef8c205170a3e22cc,61036bbaa53d4131b64c860d,2021-07-29_22h02.48.182,Simcolourproject_2stim_asymm_v5,2020.2.10,MacIntel,60,61025ae37ef11b136ea224fe,,,,,,,,,1848,65.25024414,29.35125732,1,0,0,response1disk,,6,-1.965209961,-2.151489258,1,0,0,rectangle,-1.965209961,-2.151489258,1,0,0,-1.965209961,-2.151489258,1,0,0,0,11,11,66,1,,,,,,,,
,,,,,,,,,,,,,FF,,,,,,,,0.7835,,,,,,,,,,,,,,,,,,,,,,6101ed0ef8c205170a3e22cc,61036bbaa53d4131b64c860d,2021-07-29_22h02.48.182,Simcolourproject_2stim_asymm_v5,2020.2.10,MacIntel,60,61025ae37ef11b136ea224fe,,,,,,,,,3688,35.32043457,76.97610474,1,0,0,response1disk,,7,-2.395385742,-1.20111084,1,0,0,rectangle,-2.395385742,-1.20111084,1,0,0,-2.395385742,-1.20111084,1,0,0,0,12,12,123,1,,,,,,,,
,,,,,,,,,,,,,FF,,,,,,,,3.067,,,,,,,,,,,,,,,,,,,,,,6101ed0ef8c205170a3e22cc,61036bbaa53d4131b64c860d,2021-07-29_22h02.48.182,Simcolourproject_2stim_asymm_v5,2020.2.10,MacIntel,60,61025ae37ef11b136ea224fe,,,,,,,,,348,-67.79284668,38.04272461,1,0,0,response7disk,,1,-0.882446289,-9.223144531,1,0,0,rectangle,-0.882446289,-9.223144531,1,0,0,-0.882446289,-9.223144531,1,0,0,0,13,13,37,1,,,,,,,,
,,,,,,,,,,,,,FF,,,,,,,,2.2846,,,,,,,,,,,,,,,,,,,,,,6101ed0ef8c205170a3e22cc,61036bbaa53d4131b64c860d,2021-07-29_22h02.48.182,Simcolourproject_2stim_asymm_v5,2020.2.10,MacIntel,60,61025ae37ef11b136ea224fe,,,,,,,,,4318,87.81567383,-67.24963379,1,0,0,response3disk,,5,2.024841309,13.31542969,1,0,0,rectangle,2.024841309,13.31542969,1,0,0,2.024841309,13.31542969,1,0,0,0,14,14,102,1,,,,,,,,
,,,,,,,,,,,,,FF,,,,,,,,0.9309,,,,,,,,,,,,,,,,,,,,,,6101ed0ef8c205170a3e22cc,61036bbaa53d4131b64c860d,2021-07-29_22h02.48.182,Simcolourproject_2stim_asymm_v5,2020.2.10,MacIntel,60,61025ae37ef11b136ea224fe,,,,,,,,,3234,27.67895508,99.26611328,1,0,0,response1disk,,7,-11.38928223,-1.906036377,1,0,0,rectangle,-11.38928223,-1.906036377,1,0,0,-11.38928223,-1.906036377,1,0,0,0,15,15,61,1,,,,,,,,
,,,,,,,,,,,,,FF,,,,,,,,0.8338,,,,,,,,,,,,,,,,,,,,,,6101ed0ef8c205170a3e22cc,61036bbaa53d4131b64c860d,2021-07-29_22h02.48.182,Simcolourproject_2stim_asymm_v5,2020.2.10,MacIntel,60,61025ae37ef11b136ea224fe,,,,,,,,,2643,42.31988525,92.52520752,1,0,0,response1disk,,7,-0.480712891,-1.667602539,1,0,0,rectangle,-0.480712891,-1.667602539,1,0,0,-0.480712891,-1.667602539,1,0,0,0,16,16,130,1,,,,,,,,
,,,,,,,,,,,,,FF,,,,,,,,3.717,,,,,,,,,,,,,,,,,,,,,,6101ed0ef8c205170a3e22cc,61036bbaa53d4131b64c860d,2021-07-29_22h02.48.182,Simcolourproject_2stim_asymm_v5,2020.2.10,MacIntel,60,61025ae37ef11b136ea224fe,,,,,,,,,533,-62.26477051,52.50970459,1,0,0,response7disk,,1,6.864379883,3.053466797,1,0,0,rectangle,6.864379883,3.053466797,1,0,0,6.864379883,3.053466797,1,0,0,0,17,17,45,1,,,,,,,,
,,,,,,,,,,,,,FF,,,,,,,,0.8051,,,,,,,,,,,,,,,,,,,,,,6101ed0ef8c205170a3e22cc,61036bbaa53d4131b64c860d,2021-07-29_22h02.48.182,Simcolourproject_2stim_asymm_v5,2020.2.10,MacIntel,60,61025ae37ef11b136ea224fe,,,,,,,,,2530,51.37988281,89.01049805,1,0,0,response1disk,,7,6.774108887,5.55645752,1,0,0,rectangle,6.774108887,5.55645752,1,0,0,6.774108887,5.55645752,1,0,0,0,18,18,89,1,,,,,,,,
,,,,,,,,,,,,,FF,,,,,,,,0.7094,,,,,,,,,,,,,,,,,,,,,,6101ed0ef8c205170a3e22cc,61036bbaa53d4131b64c860d,2021-07-29_22h02.48.182,Simcolourproject_2stim_asymm_v5,2020.2.10,MacIntel,60,61025ae37ef11b136ea224fe,,,,,,,,,2397,37.53283691,88.78607178,1,0,0,response1disk,,7,4.436218262,1.423400879,1,0,0,rectangle,4.436218262,1.423400879,1,0,0,4.436218262,1.423400879,1,0,0,0,19,19,69,1,,,,,,,,
,,,,,,,,,,,,,FF,,,,,,,,1.3671,,,,,,,,,,,,,,,,,,,,,,6101ed0ef8c205170a3e22cc,61036bbaa53d4131b64c860d,2021-07-29_22h02.48.182,Simcolourproject_2stim_asymm_v5,2020.2.10,MacIntel,60,61025ae37ef11b136ea224fe,,,,,,,,,3283,-54.72875977,86.03634644,1,0,0,response7disk,,0,4.831970215,7.213409424,1,0,0,rectangle,4.831970215,7.213409424,1,0,0,4.831970215,7.213409424,1,0,0,0,20,20,117,1,,,,,,,,
,,,,,,,,,,,,,FF,,,,,,,,1.1159,,,,,,,,,,,,,,,,,,,,,,6101ed0ef8c205170a3e22cc,61036bbaa53d4131b64c860d,2021-07-29_22h02.48.182,Simcolourproject_2stim_asymm_v5,2020.2.10,MacIntel,60,61025ae37ef11b136ea224fe,,,,,,,,,3259,-73.79968262,42.79907227,1,0,0,response7disk,,1,3.843444824,-6.500671387,1,0,0,rectangle,3.843444824,-6.500671387,1,0,0,3.843444824,-6.500671387,1,0,0,0,21,21,75,1,,,,,,,,
,,,,,,,,,,,,,FF,,,,,,,,0.6913,,,,,,,,,,,,,,,,,,,,,,6101ed0ef8c205170a3e22cc,61036bbaa53d4131b64c860d,2021-07-29_22h02.48.182,Simcolourproject_2stim_asymm_v5,2020.2.10,MacIntel,60,61025ae37ef11b136ea224fe,,,,,,,,,1096,42.65527344,100.7023315,1,0,0,response1disk,,7,5.657043457,7.753356934,1,0,0,rectangle,5.657043457,7.753356934,1,0,0,5.657043457,7.753356934,1,0,0,0,22,22,142,1,,,,,,,,
,,,,,,,,,,,,,FF,,,,,,,,1.6828,,,,,,,,,,,,,,,,,,,,,,6101ed0ef8c205170a3e22cc,61036bbaa53d4131b64c860d,2021-07-29_22h02.48.182,Simcolourproject_2stim_asymm_v5,2020.2.10,MacIntel,60,61025ae37ef11b136ea224fe,,,,,,,,,788,60.7409668,-37.12115479,1,0,0,response3disk,,5,-15.04016113,8.934265137,1,0,0,rectangle,-15.04016113,8.934265137,1,0,0,-15.04016113,8.934265137,1,0,0,0,23,23,15,1,,,,,,,,
,,,,,,,,,,,,,FF,,,,,,,,0.8544,,,,,,,,,,,,,,,,,,,,,,6101ed0ef8c205170a3e22cc,61036bbaa53d4131b64c860d,2021-07-29_22h02.48.182,Simcolourproject_2stim_asymm_v5,2020.2.10,MacIntel,60,61025ae37ef11b136ea224fe,,,,,,,,,3826,27.22705078,124.6924438,1,0,0,response1disk,,7,-0.677246094,4.243286133,1,0,0,rectangle,-0.677246094,4.243286133,1,0,0,-0.677246094,4.243286133,1,0,0,0,24,24,52,1,,,,,,,,
,,,,,,,,,,,,,FF,,,,,,,,1.5825,,,,,,,,,,,,,,,,,,,,,,6101ed0ef8c205170a3e22cc,61036bbaa53d4131b64c860d,2021-07-29_22h02.48.182,Simcolourproject_2stim_asymm_v5,2020.2.10,MacIntel,60,61025ae37ef11b136ea224fe,,,,,,,,,2237,-100.8416748,49.21072388,1,0,0,response7disk,,1,7.482299805,-5.023925781,1,0,0,rectangle,7.482299805,-5.023925781,1,0,0,7.482299805,-5.023925781,1,0,0,0,25,25,21,1,,,,,,,,
,,,,,,,,,,,,,FF,,,,,,,,0.7593,,,,,,,,,,,,,,,,,,,,,,6101ed0ef8c205170a3e22cc,61036bbaa53d4131b64c860d,2021-07-29_22h02.48.182,Simcolourproject_2stim_asymm_v5,2020.2.10,MacIntel,60,61025ae37ef11b136ea224fe,,,,,,,,,1707,38.21594238,113.9212036,1,0,0,response1disk,,7,7.922912598,9.483032227,1,0,0,rectangle,7.922912598,9.483032227,1,0,0,7.922912598,9.483032227,1,0,0,0,26,26,47,1,,,,,,,,
,,,,,,,,,,,,,FF,,,,,,,,0.8273,,,,,,,,,,,,,,,,,,,,,,6101ed0ef8c205170a3e22cc,61036bbaa53d4131b64c860d,2021-07-29_22h02.48.182,Simcolourproject_2stim_asymm_v5,2020.2.10,MacIntel,60,61025ae37ef11b136ea224fe,,,,,,,,,1249,41.47888184,93.52227783,1,0,0,response1disk,,7,12.79840088,10.7036438,1,0,0,rectangle,12.79840088,10.7036438,1,0,0,12.79840088,10.7036438,1,0,0,0,27,27,143,1,,,,,,,,
,,,,,,,,,,,,,FF,,,,,,,,0.752,,,,,,,,,,,,,,,,,,,,,,6101ed0ef8c205170a3e22cc,61036bbaa53d4131b64c860d,2021-07-29_22h02.48.182,Simcolourproject_2stim_asymm_v5,2020.2.10,MacIntel,60,61025ae37ef11b136ea224fe,,,,,,,,,2738,52.784729,114.6550903,1,0,0,response1disk,,7,-4.860778809,2.513305664,1,0,0,rectangle,-4.860778809,2.513305664,1,0,0,-4.860778809,2.513305664,1,0,0,0,28,28,32,1,,,,,,,,
,,,,,,,,,,,,,FF,,,,,,,,0.6163,,,,,,,,,,,,,,,,,,,,,,6101ed0ef8c205170a3e22cc,61036bbaa53d4131b64c860d,2021-07-29_22h02.48.182,Simcolourproject_2stim_asymm_v5,2020.2.10,MacIntel,60,61025ae37ef11b136ea224fe,,,,,,,,,468,42.61523438,106.274353,1,0,0,response1disk,,7,11.52734375,6.92779541,1,0,0,rectangle,11.52734375,6.92779541,1,0,0,11.52734375,6.92779541,1,0,0,0,29,29,81,1,,,,,,,,
,,,,,,,,,,,,,FF,,,,,,,,0.7997,,,,,,,,,,,,,,,,,,,,,,6101ed0ef8c205170a3e22cc,61036bbaa53d4131b64c860d,2021-07-29_22h02.48.182,Simcolourproject_2stim_asymm_v5,2020.2.10,MacIntel,60,61025ae37ef11b136ea224fe,,,,,,,,,2531,59.00744629,97.96362305,1,0,0,response1disk,,7,1.67401123,-4.809753418,1,0,0,rectangle,1.67401123,-4.809753418,1,0,0,1.67401123,-4.809753418,1,0,0,0,30,30,50,1,,,,,,,,
,,,,,,,,,,,,,FF,,,,,,,,0.6257,,,,,,,,,,,,,,,,,,,,,,6101ed0ef8c205170a3e22cc,61036bbaa53d4131b64c860d,2021-07-29_22h02.48.182,Simcolourproject_2stim_asymm_v5,2020.2.10,MacIntel,60,61025ae37ef11b136ea224fe,,,,,,,,,2328,41.1171875,86.17910767,1,0,0,response1disk,,7,-2.263671875,-13.11480713,1,0,0,rectangle,-2.263671875,-13.11480713,1,0,0,-2.263671875,-13.11480713,1,0,0,0,31,31,85,1,,,,,,,,
,,,,,,,,,,,,,FF,,,,,,,,1.3507,,,,,,,,,,,,,,,,,,,,,,6101ed0ef8c205170a3e22cc,61036bbaa53d4131b64c860d,2021-07-29_22h02.48.182,Simcolourproject_2stim_asymm_v5,2020.2.10,MacIntel,60,61025ae37ef11b136ea224fe,,,,,,,,,1969,85.63342285,-32.91345215,1,0,0,response3disk,,5,4.48815918,-0.296905518,1,0,0,rectangle,49.32263184,-93.47851563,1,0,0,-0.879272461,4.358642578,1,0,0,0,32,32,110,1,,response3disk_3,TRUE,4,4,"[173,189,184,219,118,167,294,33,44,189,277,177,185,173,206,66,187,59,253,236]",2.3182,rectangle
,,,,,,,,,,,,,FF,,,,,,,,1.9689,,,,,,,,,,,,,,,,,,,,,,6101ed0ef8c205170a3e22cc,61036bbaa53d4131b64c860d,2021-07-29_22h02.48.182,Simcolourproject_2stim_asymm_v5,2020.2.10,MacIntel,60,61025ae37ef11b136ea224fe,,,,,,,,,1578,82.66015625,43.81478882,1,0,0,response1disk,,6,-9.964538574,-1.628051758,1,0,0,rectangle,-9.964538574,-1.628051758,1,0,0,-9.964538574,-1.628051758,1,0,0,0,33,33,101,1,,,,,,,,
,,,,,,,,,,,,,FF,,,,,,,,0.7676,,,,,,,,,,,,,,,,,,,,,,6101ed0ef8c205170a3e22cc,61036bbaa53d4131b64c860d,2021-07-29_22h02.48.182,Simcolourproject_2stim_asymm_v5,2020.2.10,MacIntel,60,61025ae37ef11b136ea224fe,,,,,,,,,2118,38.68725586,99.80630493,1,0,0,response1disk,,7,-3.270324707,-10.85778809,1,0,0,rectangle,-3.270324707,-10.85778809,1,0,0,-3.270324707,-10.85778809,1,0,0,0,34,34,146,1,,,,,,,,
,,,,,,,,,,,,,FF,,,,,,,,1.016,,,,,,,,,,,,,,,,,,,,,,6101ed0ef8c205170a3e22cc,61036bbaa53d4131b64c860d,2021-07-29_22h02.48.182,Simcolourproject_2stim_asymm_v5,2020.2.10,MacIntel,60,61025ae37ef11b136ea224fe,,,,,,,,,2412,86.64868164,29.64068604,1,0,0,response1disk,,6,0.719970703,9.692199707,1,0,0,rectangle,0.719970703,9.692199707,1,0,0,0.719970703,9.692199707,1,0,0,0,35,35,84,1,,,,,,,,
,,,,,,,,,,,,,FF,,,,,,,,0.9167,,,,,,,,,,,,,,,,,,,,,,6101ed0ef8c205170a3e22cc,61036bbaa53d4131b64c860d,2021-07-29_22h02.48.182,Simcolourproject_2stim_asymm_v5,2020.2.10,MacIntel,60,61025ae37ef11b136ea224fe,,,,,,,,,3351,44.07806396,105.1655579,1,0,0,response1disk,,7,3.68560791,2.500244141,1,0,0,rectangle,3.68560791,2.500244141,1,0,0,3.68560791,2.500244141,1,0,0,0,36,36,29,1,,,,,,,,
,,,,,,,,,,,,,FF,,,,,,,,0.6958,,,,,,,,,,,,,,,,,,,,,,6101ed0ef8c205170a3e22cc,61036bbaa53d4131b64c860d,2021-07-29_22h02.48.182,Simcolourproject_2stim_asymm_v5,2020.2.10,MacIntel,60,61025ae37ef11b136ea224fe,,,,,,,,,3454,58.96459961,95.05377197,1,0,0,response1disk,,7,7.659423828,9.219055176,1,0,0,rectangle,7.659423828,9.219055176,1,0,0,7.659423828,9.219055176,1,0,0,0,37,37,86,1,,,,,,,,
,,,,,,,,,,,,,FF,,,,,,,,0.9312,,,,,,,,,,,,,,,,,,,,,,6101ed0ef8c205170a3e22cc,61036bbaa53d4131b64c860d,2021-07-29_22h02.48.182,Simcolourproject_2stim_asymm_v5,2020.2.10,MacIntel,60,61025ae37ef11b136ea224fe,,,,,,,,,950,102.0551147,37.5512085,1,0,0,response1disk,,6,-3.328857422,12.31103516,1,0,0,rectangle,-3.328857422,12.31103516,1,0,0,-3.328857422,12.31103516,1,0,0,0,38,38,111,1,,,,,,,,
,,,,,,,,,,,,,FF,,,,,,,,0.8678,,,,,,,,,,,,,,,,,,,,,,6101ed0ef8c205170a3e22cc,61036bbaa53d4131b64c860d,2021-07-29_22h02.48.182,Simcolourproject_2stim_asymm_v5,2020.2.10,MacIntel,60,61025ae37ef11b136ea224fe,,,,,,,,,2045,97.35321045,26.71484375,1,0,0,response1disk,,6,5.151794434,4.368164063,1,0,0,rectangle,5.151794434,4.368164063,1,0,0,5.151794434,4.368164063,1,0,0,0,39,39,41,1,,,,,,,,
,,,,,,,,,,,,,FF,,,,,,,,0.9017,,,,,,,,,,,,,,,,,,,,,,6101ed0ef8c205170a3e22cc,61036bbaa53d4131b64c860d,2021-07-29_22h02.48.182,Simcolourproject_2stim_asymm_v5,2020.2.10,MacIntel,60,61025ae37ef11b136ea224fe,,,,,,,,,4329,85.58740234,-40.46875,1,0,0,response3disk,,5,-7.459350586,-0.087768555,1,0,0,rectangle,-7.459350586,-0.087768555,1,0,0,-7.459350586,-0.087768555,1,0,0,0,40,40,9,1,,,,,,,,
,,,,,,,,,,,,,FF,,,,,,,,1.1014,,,,,,,,,,,,,,,,,,,,,,6101ed0ef8c205170a3e22cc,61036bbaa53d4131b64c860d,2021-07-29_22h02.48.182,Simcolourproject_2stim_asymm_v5,2020.2.10,MacIntel,60,61025ae37ef11b136ea224fe,,,,,,,,,3532,43.12475586,107.8984985,1,0,0,response1disk,,7,-12.19500732,5.25201416,1,0,0,rectangle,-12.19500732,5.25201416,1,0,0,-12.19500732,5.25201416,1,0,0,0,41,41,30,1,,,,,,,,
,,,,,,,,,,,,,FF,,,,,,,,1.3347,,,,,,,,,,,,,,,,,,,,,,6101ed0ef8c205170a3e22cc,61036bbaa53d4131b64c860d,2021-07-29_22h02.48.182,Simcolourproject_2stim_asymm_v5,2020.2.10,MacIntel,60,61025ae37ef11b136ea224fe,,,,,,,,,4240,97.70300293,-38.99414063,1,0,0,response3disk,,5,14.85424805,-4.298950195,1,0,0,rectangle,14.85424805,-4.298950195,1,0,0,14.85424805,-4.298950195,1,0,0,0,42,42,100,1,,,,,,,,
,,,,,,,,,,,,,FF,,,,,,,,0.7683,,,,,,,,,,,,,,,,,,,,,,6101ed0ef8c205170a3e22cc,61036bbaa53d4131b64c860d,2021-07-29_22h02.48.182,Simcolourproject_2stim_asymm_v5,2020.2.10,MacIntel,60,61025ae37ef11b136ea224fe,,,,,,,,,1850,38.89019775,106.3087158,1,0,0,response1disk,,7,3.941589355,14.93450928,1,0,0,rectangle,-48.27636719,103.0611572,1,0,0,-0.825866699,-0.752929688,1,0,0,0,43,43,109,1,,response7disk_3,TRUE,0,0,"[173,189,184,219,118,167,294,33,44,189,277,177,185,173,206,66,187,59,253,236]",2.2989,rectangle
,,,,,,,,,,,,,FF,,,,,,,,1.7003,,,,,,,,,,,,,,,,,,,,,,6101ed0ef8c205170a3e22cc,61036bbaa53d4131b64c860d,2021-07-29_22h02.48.182,Simcolourproject_2stim_asymm_v5,2020.2.10,MacIntel,60,61025ae37ef11b136ea224fe,,,,,,,,,3373,48.13989258,-65.23327637,1,0,0,response3disk,,4,-8.631347656,-6.286560059,1,0,0,rectangle,-8.631347656,-6.286560059,1,0,0,-8.631347656,-6.286560059,1,0,0,0,44,44,49,1,,,,,,,,
,,,,,,,,,,,,,FF,,,,,,,,1.597,,,,,,,,,,,,,,,,,,,,,,6101ed0ef8c205170a3e22cc,61036bbaa53d4131b64c860d,2021-07-29_22h02.48.182,Simcolourproject_2stim_asymm_v5,2020.2.10,MacIntel,60,61025ae37ef11b136ea224fe,,,,,,,,,895,32.39434814,-72.95800781,1,0,0,response3disk,,4,-3.56439209,3.294494629,1,0,0,rectangle,-3.56439209,3.294494629,1,0,0,-3.56439209,3.294494629,1,0,0,0,45,45,91,1,,,,,,,,
,,,,,,,,,,,,,FF,,,,,,,,0.6633,,,,,,,,,,,,,,,,,,,,,,6101ed0ef8c205170a3e22cc,61036bbaa53d4131b64c860d,2021-07-29_22h02.48.182,Simcolourproject_2stim_asymm_v5,2020.2.10,MacIntel,60,61025ae37ef11b136ea224fe,,,,,,,,,2002,37.83166504,82.56774902,1,0,0,response1disk,,7,17.12780762,9.162963867,1,0,0,rectangle,17.12780762,9.162963867,1,0,0,17.12780762,9.162963867,1,0,0,0,46,46,129,1,,,,,,,,
,,,,,,,,,,,,,FF,,,,,,,,1.3355,,,,,,,,,,,,,,,,,,,,,,6101ed0ef8c205170a3e22cc,61036bbaa53d4131b64c860d,2021-07-29_22h02.48.182,Simcolourproject_2stim_asymm_v5,2020.2.10,MacIntel,60,61025ae37ef11b136ea224fe,,,,,,,,,4254,-43.05444336,-109.2630615,1,0,0,response5disk,,3,-8.481689453,-12.86538696,1,0,0,rectangle,-8.481689453,-12.86538696,1,0,0,-8.481689453,-12.86538696,1,0,0,0,47,47,141,1,,,,,,,,
,,,,,,,,,,,,,FF,,,,,,,,0.9365,,,,,,,,,,,,,,,,,,,,,,6101ed0ef8c205170a3e22cc,61036bbaa53d4131b64c860d,2021-07-29_22h02.48.182,Simcolourproject_2stim_asymm_v5,2020.2.10,MacIntel,60,61025ae37ef11b136ea224fe,,,,,,,,,1252,42.08514404,104.6100464,1,0,0,response1disk,,7,2.165710449,3.973632813,1,0,0,rectangle,2.165710449,3.973632813,1,0,0,2.165710449,3.973632813,1,0,0,0,48,48,152,1,,,,,,,,
,,,,,,,,,,,,,FF,,,,,,,,0.9674,,,,,,,,,,,,,,,,,,,,,,6101ed0ef8c205170a3e22cc,61036bbaa53d4131b64c860d,2021-07-29_22h02.48.182,Simcolourproject_2stim_asymm_v5,2020.2.10,MacIntel,60,61025ae37ef11b136ea224fe,,,,,,,,,3591,-40.75384521,95.20007324,1,0,0,response7disk,,0,5.220581055,8.69644165,1,0,0,rectangle,5.220581055,8.69644165,1,0,0,5.220581055,8.69644165,1,0,0,0,49,49,131,1,,,,,,,,
,,,,,,,,,,,,,FF,,,,,,,,0.6309,,,,,,,,,,,,,,,,,,,,,,6101ed0ef8c205170a3e22cc,61036bbaa53d4131b64c860d,2021-07-29_22h02.48.182,Simcolourproject_2stim_asymm_v5,2020.2.10,MacIntel,60,61025ae37ef11b136ea224fe,,,,,,,,,115,44.4420166,97.03335571,1,0,0,response1disk,,7,8.269042969,16.15405273,1,0,0,rectangle,8.269042969,16.15405273,1,0,0,8.269042969,16.15405273,1,0,0,0,50,50,99,1,,,,,,,,
,,,,,,,,,,,,,FF,,,,,,,,1.549,,,,,,,,,,,,,,,,,,,,,,6101ed0ef8c205170a3e22cc,61036bbaa53d4131b64c860d,2021-07-29_22h02.48.182,Simcolourproject_2stim_asymm_v5,2020.2.10,MacIntel,60,61025ae37ef11b136ea224fe,,,,,,,,,1960,-34.33898926,-95.45391846,1,0,0,response5disk,,3,-12.58825684,-13.41503906,1,0,0,rectangle,-12.58825684,-13.41503906,1,0,0,-12.58825684,-13.41503906,1,0,0,0,51,51,16,1,,,,,,,,
,,,,,,,,,,,,,FF,,,,,,,,1.5777,,,,,,,,,,,,,,,,,,,,,,6101ed0ef8c205170a3e22cc,61036bbaa53d4131b64c860d,2021-07-29_22h02.48.182,Simcolourproject_2stim_asymm_v5,2020.2.10,MacIntel,60,61025ae37ef11b136ea224fe,,,,,,,,,81,94.96600342,-63.21832275,1,0,0,response3disk,,5,-2.295776367,-5.724975586,1,0,0,rectangle,-2.295776367,-5.724975586,1,0,0,-2.295776367,-5.724975586,1,0,0,0,52,52,23,1,,,,,,,,
,,,,,,,,,,,,,FF,,,,,,,,0.9676,,,,,,,,,,,,,,,,,,,,,,6101ed0ef8c205170a3e22cc,61036bbaa53d4131b64c860d,2021-07-29_22h02.48.182,Simcolourproject_2stim_asymm_v5,2020.2.10,MacIntel,60,61025ae37ef11b136ea224fe,,,,,,,,,3025,41.19885254,101.243042,1,0,0,response1disk,,7,-4.280883789,5.372070313,1,0,0,rectangle,-4.280883789,5.372070313,1,0,0,-4.280883789,5.372070313,1,0,0,0,53,53,148,1,,,,,,,,
,,,,,,,,,,,,,FF,,,,,,,,0.694,,,,,,,,,,,,,,,,,,,,,,6101ed0ef8c205170a3e22cc,61036bbaa53d4131b64c860d,2021-07-29_22h02.48.182,Simcolourproject_2stim_asymm_v5,2020.2.10,MacIntel,60,61025ae37ef11b136ea224fe,,,,,,,,,1076,35.55194092,116.3029785,1,0,0,response1disk,,7,11.37518311,4.145080566,1,0,0,rectangle,11.37518311,4.145080566,1,0,0,11.37518311,4.145080566,1,0,0,0,54,54,72,1,,,,,,,,
,,,,,,,,,,,,,FF,,,,,,,,0.6671,,,,,,,,,,,,,,,,,,,,,,6101ed0ef8c205170a3e22cc,61036bbaa53d4131b64c860d,2021-07-29_22h02.48.182,Simcolourproject_2stim_asymm_v5,2020.2.10,MacIntel,60,61025ae37ef11b136ea224fe,,,,,,,,,57,55.81091309,106.8953857,1,0,0,response1disk,,7,9.34387207,14.21020508,1,0,0,rectangle,9.34387207,14.21020508,1,0,0,9.34387207,14.21020508,1,0,0,0,55,55,76,1,,,,,,,,
,,,,,,,,,,,,,FF,,,,,,,,2.1505,,,,,,,,,,,,,,,,,,,,,,6101ed0ef8c205170a3e22cc,61036bbaa53d4131b64c860d,2021-07-29_22h02.48.182,Simcolourproject_2stim_asymm_v5,2020.2.10,MacIntel,60,61025ae37ef11b136ea224fe,,,,,,,,,1285,74.98675537,-44.78518677,1,0,0,response3disk,,5,-7.337158203,7.522216797,1,0,0,rectangle,-7.337158203,7.522216797,1,0,0,-7.337158203,7.522216797,1,0,0,0,56,56,103,1,,,,,,,,
,,,,,,,,,,,,,FF,,,,,,,,0.8167,,,,,,,,,,,,,,,,,,,,,,6101ed0ef8c205170a3e22cc,61036bbaa53d4131b64c860d,2021-07-29_22h02.48.182,Simcolourproject_2stim_asymm_v5,2020.2.10,MacIntel,60,61025ae37ef11b136ea224fe,,,,,,,,,3185,30.64416504,120.194397,1,0,0,response1disk,,7,-12.18041992,1.520782471,1,0,0,rectangle,-12.18041992,1.520782471,1,0,0,-12.18041992,1.520782471,1,0,0,0,57,57,150,1,,,,,,,,
,,,,,,,,,,,,,FF,,,,,,,,0.7174,,,,,,,,,,,,,,,,,,,,,,6101ed0ef8c205170a3e22cc,61036bbaa53d4131b64c860d,2021-07-29_22h02.48.182,Simcolourproject_2stim_asymm_v5,2020.2.10,MacIntel,60,61025ae37ef11b136ea224fe,,,,,,,,,948,48.76660156,100.7833252,1,0,0,response1disk,,7,6.373779297,16.85427856,1,0,0,rectangle,47.95874023,-91.72009277,1,0,0,2.077758789,4.319915771,1,0,0,0,58,58,10,1,,response3disk_3,TRUE,4,4,"[173,189,184,219,118,167,294,33,44,189,277,177,185,173,206,66,187,59,253,236]",1.3661,rectangle
,,,,,,,,,,,,,FF,,,,,,,,0.769,,,,,,,,,,,,,,,,,,,,,,6101ed0ef8c205170a3e22cc,61036bbaa53d4131b64c860d,2021-07-29_22h02.48.182,Simcolourproject_2stim_asymm_v5,2020.2.10,MacIntel,60,61025ae37ef11b136ea224fe,,,,,,,,,4173,37.08850098,94.08050537,1,0,0,response1disk,,7,-5.416992188,5.744384766,1,0,0,rectangle,-5.416992188,5.744384766,1,0,0,-5.416992188,5.744384766,1,0,0,0,59,59,2,1,,,,,,,,
,,,,,,,,,,,,,FF,,,,,,,,1.0173,,,,,,,,,,,,,,,,,,,,,,6101ed0ef8c205170a3e22cc,61036bbaa53d4131b64c860d,2021-07-29_22h02.48.182,Simcolourproject_2stim_asymm_v5,2020.2.10,MacIntel,60,61025ae37ef11b136ea224fe,,,,,,,,,1544,40.32080078,96.48913574,1,0,0,response1disk,,7,-1.356689453,8.741027832,1,0,0,rectangle,-1.356689453,8.741027832,1,0,0,-1.356689453,8.741027832,1,0,0,0,60,60,5,1,,,,,,,,
,,,,,,,,,,,,,FF,,,,,,,,0.8012,,,,,,,,,,,,,,,,,,,,,,6101ed0ef8c205170a3e22cc,61036bbaa53d4131b64c860d,2021-07-29_22h02.48.182,Simcolourproject_2stim_asymm_v5,2020.2.10,MacIntel,60,61025ae37ef11b136ea224fe,,,,,,,,,4266,-52.12884521,109.1856689,1,0,0,response7disk,,0,9.974243164,7.769775391,1,0,0,rectangle,9.974243164,7.769775391,1,0,0,9.974243164,7.769775391,1,0,0,0,61,61,157,1,,,,,,,,
,,,,,,,,,,,,,FF,,,,,,,,0.6588,,,,,,,,,,,,,,,,,,,,,,6101ed0ef8c205170a3e22cc,61036bbaa53d4131b64c860d,2021-07-29_22h02.48.182,Simcolourproject_2stim_asymm_v5,2020.2.10,MacIntel,60,61025ae37ef11b136ea224fe,,,,,,,,,365,55.13934326,96.02526855,1,0,0,response1disk,,7,10.57305908,8.360015869,1,0,0,rectangle,10.57305908,8.360015869,1,0,0,10.57305908,8.360015869,1,0,0,0,62,62,4,1,,,,,,,,
,,,,,,,,,,,,,FF,,,,,,,,1.0334,,,,,,,,,,,,,,,,,,,,,,6101ed0ef8c205170a3e22cc,61036bbaa53d4131b64c860d,2021-07-29_22h02.48.182,Simcolourproject_2stim_asymm_v5,2020.2.10,MacIntel,60,61025ae37ef11b136ea224fe,,,,,,,,,982,53.77331543,101.2024536,1,0,0,response1disk,,7,6.070068359,-6.55859375,1,0,0,rectangle,6.070068359,-6.55859375,1,0,0,6.070068359,-6.55859375,1,0,0,0,63,63,74,1,,,,,,,,
,,,,,,,,,,,,,FF,,,,,,,,0.7511,,,,,,,,,,,,,,,,,,,,,,6101ed0ef8c205170a3e22cc,61036bbaa53d4131b64c860d,2021-07-29_22h02.48.182,Simcolourproject_2stim_asymm_v5,2020.2.10,MacIntel,60,61025ae37ef11b136ea224fe,,,,,,,,,2941,-45.19140625,97.51629639,1,0,0,response7disk,,0,-10.82763672,4.551818848,1,0,0,rectangle,-10.82763672,4.551818848,1,0,0,-10.82763672,4.551818848,1,0,0,0,64,64,139,1,,,,,,,,
,,,,,,,,,,,,,FF,,,,,,,,2.2773,,,,,,,,,,,,,,,,,,,,,,6101ed0ef8c205170a3e22cc,61036bbaa53d4131b64c860d,2021-07-29_22h02.48.182,Simcolourproject_2stim_asymm_v5,2020.2.10,MacIntel,60,61025ae37ef11b136ea224fe,,,,,,,,,1230,81.54431152,49.80737305,1,0,0,response1disk,,6,1.983642578,-7.769744873,1,0,0,rectangle,-96.08984375,43.32061768,1,0,0,-4.582214355,-4.383789063,1,0,0,0,65,65,39,1,,response7disk_3,TRUE,1,1,"[173,189,184,219,118,167,294,33,44,189,277,177,185,173,206,66,187,59,253,236]",1.5811,rectangle
,,,,,,,,,,,,,FF,,,,,,,,1.7831,,,,,,,,,,,,,,,,,,,,,,6101ed0ef8c205170a3e22cc,61036bbaa53d4131b64c860d,2021-07-29_22h02.48.182,Simcolourproject_2stim_asymm_v5,2020.2.10,MacIntel,60,61025ae37ef11b136ea224fe,,,,,,,,,2620,32.92163086,-69.4197998,1,0,0,response3disk,,4,7.650634766,-8.437988281,1,0,0,rectangle,7.650634766,-8.437988281,1,0,0,7.650634766,-8.437988281,1,0,0,0,66,66,56,1,,,,,,,,
,,,,,,,,,,,,,FF,,,,,,,,1.2188,,,,,,,,,,,,,,,,,,,,,,6101ed0ef8c205170a3e22cc,61036bbaa53d4131b64c860d,2021-07-29_22h02.48.182,Simcolourproject_2stim_asymm_v5,2020.2.10,MacIntel,60,61025ae37ef11b136ea224fe,,,,,,,,,2677,87.49456787,-43.34716797,1,0,0,response3disk,,5,-7.926879883,0.533843994,1,0,0,rectangle,-7.926879883,0.533843994,1,0,0,-7.926879883,0.533843994,1,0,0,0,67,67,67,1,,,,,,,,
,,,,,,,,,,,,,FF,,,,,,,,0.8337,,,,,,,,,,,,,,,,,,,,,,6101ed0ef8c205170a3e22cc,61036bbaa53d4131b64c860d,2021-07-29_22h02.48.182,Simcolourproject_2stim_asymm_v5,2020.2.10,MacIntel,60,61025ae37ef11b136ea224fe,,,,,,,,,682,31.76373291,93.15063477,1,0,0,response1disk,,7,0.325317383,-13.62774658,1,0,0,rectangle,0.325317383,-13.62774658,1,0,0,0.325317383,-13.62774658,1,0,0,0,68,68,59,1,,,,,,,,
,,,,,,,,,,,,,FF,,,,,,,,2.3012,,,,,,,,,,,,,,,,,,,,,,6101ed0ef8c205170a3e22cc,61036bbaa53d4131b64c860d,2021-07-29_22h02.48.182,Simcolourproject_2stim_asymm_v5,2020.2.10,MacIntel,60,61025ae37ef11b136ea224fe,,,,,,,,,4342,92.58276367,-51.55072021,1,0,0,response3disk,,5,-7.768188477,-0.634399414,1,0,0,rectangle,-7.768188477,-0.634399414,1,0,0,-7.768188477,-0.634399414,1,0,0,0,69,69,6,1,,,,,,,,
,,,,,,,,,,,,,FF,,,,,,,,0.6864,,,,,,,,,,,,,,,,,,,,,,6101ed0ef8c205170a3e22cc,61036bbaa53d4131b64c860d,2021-07-29_22h02.48.182,Simcolourproject_2stim_asymm_v5,2020.2.10,MacIntel,60,61025ae37ef11b136ea224fe,,,,,,,,,1083,23.99383545,89.96908569,1,0,0,response1disk,,7,5.979187012,7.602722168,1,0,0,rectangle,5.979187012,7.602722168,1,0,0,5.979187012,7.602722168,1,0,0,0,70,70,135,1,,,,,,,,
,,,,,,,,,,,,,FF,,,,,,,,0.6695,,,,,,,,,,,,,,,,,,,,,,6101ed0ef8c205170a3e22cc,61036bbaa53d4131b64c860d,2021-07-29_22h02.48.182,Simcolourproject_2stim_asymm_v5,2020.2.10,MacIntel,60,61025ae37ef11b136ea224fe,,,,,,,,,2582,40.41870117,111.956665,1,0,0,response1disk,,7,13.8092041,6.47668457,1,0,0,rectangle,13.8092041,6.47668457,1,0,0,13.8092041,6.47668457,1,0,0,0,71,71,24,1,,,,,,,,
,,,,,,,,,,,,,FF,,,,,,,,0.7338,,,,,,,,,,,,,,,,,,,,,,6101ed0ef8c205170a3e22cc,61036bbaa53d4131b64c860d,2021-07-29_22h02.48.182,Simcolourproject_2stim_asymm_v5,2020.2.10,MacIntel,60,61025ae37ef11b136ea224fe,,,,,,,,,1264,47.5859375,102.973999,1,0,0,response1disk,,7,17.45581055,17.70843506,1,0,0,rectangle,17.45581055,17.70843506,1,0,0,17.45581055,17.70843506,1,0,0,0,72,72,22,1,,,,,,,,
,,,,,,,,,,,,,FF,,,,,,,,0.935,,,,,,,,,,,,,,,,,,,,,,6101ed0ef8c205170a3e22cc,61036bbaa53d4131b64c860d,2021-07-29_22h02.48.182,Simcolourproject_2stim_asymm_v5,2020.2.10,MacIntel,60,61025ae37ef11b136ea224fe,,,,,,,,,2417,46.27130127,128.6510315,1,0,0,response1disk,,7,-1.788146973,7.986907959,1,0,0,rectangle,-1.788146973,7.986907959,1,0,0,-1.788146973,7.986907959,1,0,0,0,73,73,73,1,,,,,,,,
,,,,,,,,,,,,,FF,,,,,,,,0.7509,,,,,,,,,,,,,,,,,,,,,,6101ed0ef8c205170a3e22cc,61036bbaa53d4131b64c860d,2021-07-29_22h02.48.182,Simcolourproject_2stim_asymm_v5,2020.2.10,MacIntel,60,61025ae37ef11b136ea224fe,,,,,,,,,1737,63.46691895,115.6361084,1,0,0,response1disk,,7,9.850585938,13.47070313,1,0,0,rectangle,9.850585938,13.47070313,1,0,0,9.850585938,13.47070313,1,0,0,0,74,74,113,1,,,,,,,,
,,,,,,,,,,,,,FF,,,,,,,,0.5524,,,,,,,,,,,,,,,,,,,,,,6101ed0ef8c205170a3e22cc,61036bbaa53d4131b64c860d,2021-07-29_22h02.48.182,Simcolourproject_2stim_asymm_v5,2020.2.10,MacIntel,60,61025ae37ef11b136ea224fe,,,,,,,,,2553,63.26171875,119.9762268,1,0,0,response1disk,,7,-6.029052734,7.24987793,1,0,0,rectangle,-6.029052734,7.24987793,1,0,0,-6.029052734,7.24987793,1,0,0,0,75,75,79,1,,,,,,,,
,,,,,,,,,,,,,FF,,,,,,,,1.4524,,,,,,,,,,,,,,,,,,,,,,6101ed0ef8c205170a3e22cc,61036bbaa53d4131b64c860d,2021-07-29_22h02.48.182,Simcolourproject_2stim_asymm_v5,2020.2.10,MacIntel,60,61025ae37ef11b136ea224fe,,,,,,,,,3470,-70.43621826,-40.46923828,1,0,0,response5disk,,2,-0.776000977,8.010925293,1,0,0,rectangle,-0.776000977,8.010925293,1,0,0,-0.776000977,8.010925293,1,0,0,0,76,76,93,1,,,,,,,,
,,,,,,,,,,,,,FF,,,,,,,,0.8411,,,,,,,,,,,,,,,,,,,,,,6101ed0ef8c205170a3e22cc,61036bbaa53d4131b64c860d,2021-07-29_22h02.48.182,Simcolourproject_2stim_asymm_v5,2020.2.10,MacIntel,60,61025ae37ef11b136ea224fe,,,,,,,,,378,53.66101074,101.6175537,1,0,0,response1disk,,7,4.394897461,-3.960845947,1,0,0,rectangle,4.394897461,-3.960845947,1,0,0,4.394897461,-3.960845947,1,0,0,0,77,77,54,1,,,,,,,,
,,,,,,,,,,,,,FF,,,,,,,,0.6175,,,,,,,,,,,,,,,,,,,,,,6101ed0ef8c205170a3e22cc,61036bbaa53d4131b64c860d,2021-07-29_22h02.48.182,Simcolourproject_2stim_asymm_v5,2020.2.10,MacIntel,60,61025ae37ef11b136ea224fe,,,,,,,,,579,37.68945313,113.7616577,1,0,0,response1disk,,7,3.020751953,5.344055176,1,0,0,rectangle,3.020751953,5.344055176,1,0,0,3.020751953,5.344055176,1,0,0,0,78,78,11,1,,,,,,,,
,,,,,,,,,,,,,FF,,,,,,,,0.5501,,,,,,,,,,,,,,,,,,,,,,6101ed0ef8c205170a3e22cc,61036bbaa53d4131b64c860d,2021-07-29_22h02.48.182,Simcolourproject_2stim_asymm_v5,2020.2.10,MacIntel,60,61025ae37ef11b136ea224fe,,,,,,,,,3529,55.74609375,110.4206543,1,0,0,response1disk,,7,-2.269836426,-6.873413086,1,0,0,rectangle,-2.269836426,-6.873413086,1,0,0,-2.269836426,-6.873413086,1,0,0,0,79,79,133,1,,,,,,,,
,,,,,,,,,,,,,FF,,,,,,,,0.6337,,,,,,,,,,,,,,,,,,,,,,6101ed0ef8c205170a3e22cc,61036bbaa53d4131b64c860d,2021-07-29_22h02.48.182,Simcolourproject_2stim_asymm_v5,2020.2.10,MacIntel,60,61025ae37ef11b136ea224fe,,,,,,,,,778,52.45166016,114.1451416,1,0,0,response1disk,,7,8.276977539,-1.195373535,1,0,0,rectangle,8.276977539,-1.195373535,1,0,0,8.276977539,-1.195373535,1,0,0,0,80,80,58,1,,,,,,,,
,,,,,,,,,,,,,FF,,,,,,,,0.5847,,,,,,,,,,,,,,,,,,,,,,6101ed0ef8c205170a3e22cc,61036bbaa53d4131b64c860d,2021-07-29_22h02.48.182,Simcolourproject_2stim_asymm_v5,2020.2.10,MacIntel,60,61025ae37ef11b136ea224fe,,,,,,,,,3309,62.32397461,114.3419495,1,0,0,response1disk,,7,-6.019897461,-9.629882813,1,0,0,rectangle,-6.019897461,-9.629882813,1,0,0,-6.019897461,-9.629882813,1,0,0,0,81,81,107,1,,,,,,,,
,,,,,,,,,,,,,FF,,,,,,,,0.7354,,,,,,,,,,,,,,,,,,,,,,6101ed0ef8c205170a3e22cc,61036bbaa53d4131b64c860d,2021-07-29_22h02.48.182,Simcolourproject_2stim_asymm_v5,2020.2.10,MacIntel,60,61025ae37ef11b136ea224fe,,,,,,,,,1863,61.7980957,111.5510559,1,0,0,response1disk,,7,0.192321777,6.430236816,1,0,0,rectangle,0.192321777,6.430236816,1,0,0,0.192321777,6.430236816,1,0,0,0,82,82,134,1,,,,,,,,
,,,,,,,,,,,,,FF,,,,,,,,0.7694,,,,,,,,,,,,,,,,,,,,,,6101ed0ef8c205170a3e22cc,61036bbaa53d4131b64c860d,2021-07-29_22h02.48.182,Simcolourproject_2stim_asymm_v5,2020.2.10,MacIntel,60,61025ae37ef11b136ea224fe,,,,,,,,,2832,-23.93237305,87.56781006,1,0,0,response7disk,,0,-6.752502441,-6.441223145,1,0,0,rectangle,-6.752502441,-6.441223145,1,0,0,-6.752502441,-6.441223145,1,0,0,0,83,83,43,1,,,,,,,,
,,,,,,,,,,,,,FF,,,,,,,,1.3839,,,,,,,,,,,,,,,,,,,,,,6101ed0ef8c205170a3e22cc,61036bbaa53d4131b64c860d,2021-07-29_22h02.48.182,Simcolourproject_2stim_asymm_v5,2020.2.10,MacIntel,60,61025ae37ef11b136ea224fe,,,,,,,,,2546,-51.48449707,83.97409058,1,0,0,response7disk,,0,-8.466247559,14.85662842,1,0,0,rectangle,-8.466247559,14.85662842,1,0,0,-8.466247559,14.85662842,1,0,0,0,84,84,63,1,,,,,,,,
,,,,,,,,,,,,,FF,,,,,,,,1.7781,,,,,,,,,,,,,,,,,,,,,,6101ed0ef8c205170a3e22cc,61036bbaa53d4131b64c860d,2021-07-29_22h02.48.182,Simcolourproject_2stim_asymm_v5,2020.2.10,MacIntel,60,61025ae37ef11b136ea224fe,,,,,,,,,3476,-30.74249268,-102.2561035,1,0,0,response5disk,,3,0.125549316,-14.21734619,1,0,0,rectangle,0.125549316,-14.21734619,1,0,0,0.125549316,-14.21734619,1,0,0,0,85,85,138,1,,,,,,,,
,,,,,,,,,,,,,FF,,,,,,,,0.6377,,,,,,,,,,,,,,,,,,,,,,6101ed0ef8c205170a3e22cc,61036bbaa53d4131b64c860d,2021-07-29_22h02.48.182,Simcolourproject_2stim_asymm_v5,2020.2.10,MacIntel,60,61025ae37ef11b136ea224fe,,,,,,,,,945,56.20593262,108.2055054,1,0,0,response1disk,,7,-3.078308105,8.812194824,1,0,0,rectangle,-3.078308105,8.812194824,1,0,0,-3.078308105,8.812194824,1,0,0,0,86,86,68,1,,,,,,,,
,,,,,,,,,,,,,FF,,,,,,,,0.9503,,,,,,,,,,,,,,,,,,,,,,6101ed0ef8c205170a3e22cc,61036bbaa53d4131b64c860d,2021-07-29_22h02.48.182,Simcolourproject_2stim_asymm_v5,2020.2.10,MacIntel,60,61025ae37ef11b136ea224fe,,,,,,,,,3156,-41.27740479,-97.62268066,1,0,0,response5disk,,3,16.59118652,3.310241699,1,0,0,rectangle,16.59118652,3.310241699,1,0,0,16.59118652,3.310241699,1,0,0,0,87,87,51,1,,,,,,,,
,,,,,,,,,,,,,FF,,,,,,,,0.5173,,,,,,,,,,,,,,,,,,,,,,6101ed0ef8c205170a3e22cc,61036bbaa53d4131b64c860d,2021-07-29_22h02.48.182,Simcolourproject_2stim_asymm_v5,2020.2.10,MacIntel,60,61025ae37ef11b136ea224fe,,,,,,,,,2013,40.42834473,95.38916016,1,0,0,response1disk,,7,19.16113281,8.161773682,1,0,0,rectangle,19.16113281,8.161773682,1,0,0,19.16113281,8.161773682,1,0,0,0,88,88,144,1,,,,,,,,
,,,,,,,,,,,,,FF,,,,,,,,1.3252,,,,,,,,,,,,,,,,,,,,,,6101ed0ef8c205170a3e22cc,61036bbaa53d4131b64c860d,2021-07-29_22h02.48.182,Simcolourproject_2stim_asymm_v5,2020.2.10,MacIntel,60,61025ae37ef11b136ea224fe,,,,,,,,,3682,41.63574219,76.18481445,1,0,0,response1disk,,7,-4.938476563,-10.31240845,1,0,0,rectangle,-4.938476563,-10.31240845,1,0,0,-4.938476563,-10.31240845,1,0,0,0,89,89,122,1,,,,,,,,
,,,,,,,,,,,,,FF,,,,,,,,0.7337,,,,,,,,,,,,,,,,,,,,,,6101ed0ef8c205170a3e22cc,61036bbaa53d4131b64c860d,2021-07-29_22h02.48.182,Simcolourproject_2stim_asymm_v5,2020.2.10,MacIntel,60,61025ae37ef11b136ea224fe,,,,,,,,,3480,45.9029541,89.33267212,1,0,0,response1disk,,7,9.377441406,-4.361328125,1,0,0,rectangle,9.377441406,-4.361328125,1,0,0,9.377441406,-4.361328125,1,0,0,0,90,90,71,1,,,,,,,,
,,,,,,,,,,,,,FF,,,,,,,,0.6835,,,,,,,,,,,,,,,,,,,,,,6101ed0ef8c205170a3e22cc,61036bbaa53d4131b64c860d,2021-07-29_22h02.48.182,Simcolourproject_2stim_asymm_v5,2020.2.10,MacIntel,60,61025ae37ef11b136ea224fe,,,,,,,,,1113,52.92834473,103.1835632,1,0,0,response1disk,,7,5.276000977,-5.229370117,1,0,0,rectangle,5.276000977,-5.229370117,1,0,0,5.276000977,-5.229370117,1,0,0,0,91,91,38,1,,,,,,,,
,,,,,,,,,,,,,FF,,,,,,,,1.5005,,,,,,,,,,,,,,,,,,,,,,6101ed0ef8c205170a3e22cc,61036bbaa53d4131b64c860d,2021-07-29_22h02.48.182,Simcolourproject_2stim_asymm_v5,2020.2.10,MacIntel,60,61025ae37ef11b136ea224fe,,,,,,,,,2350,57.62329102,101.2786255,1,0,0,response1disk,,7,12.52557373,6.505310059,1,0,0,rectangle,12.52557373,6.505310059,1,0,0,12.52557373,6.505310059,1,0,0,0,92,92,0,1,,,,,,,,
,,,,,,,,,,,,,FF,,,,,,,,1.7343,,,,,,,,,,,,,,,,,,,,,,6101ed0ef8c205170a3e22cc,61036bbaa53d4131b64c860d,2021-07-29_22h02.48.182,Simcolourproject_2stim_asymm_v5,2020.2.10,MacIntel,60,61025ae37ef11b136ea224fe,,,,,,,,,2171,24.65124512,-113.4910889,1,0,0,response3disk,,4,-2.72076416,16.59973145,1,0,0,rectangle,-2.72076416,16.59973145,1,0,0,-2.72076416,16.59973145,1,0,0,0,93,93,13,1,,,,,,,,
,,,,,,,,,,,,,FF,,,,,,,,0.7328,,,,,,,,,,,,,,,,,,,,,,6101ed0ef8c205170a3e22cc,61036bbaa53d4131b64c860d,2021-07-29_22h02.48.182,Simcolourproject_2stim_asymm_v5,2020.2.10,MacIntel,60,61025ae37ef11b136ea224fe,,,,,,,,,2573,32.72332764,85.47097778,1,0,0,response1disk,,7,-7.263793945,0.395385742,1,0,0,rectangle,-7.263793945,0.395385742,1,0,0,-7.263793945,0.395385742,1,0,0,0,94,94,147,1,,,,,,,,
,,,,,,,,,,,,,FF,,,,,,,,1.7525,,,,,,,,,,,,,,,,,,,,,,6101ed0ef8c205170a3e22cc,61036bbaa53d4131b64c860d,2021-07-29_22h02.48.182,Simcolourproject_2stim_asymm_v5,2020.2.10,MacIntel,60,61025ae37ef11b136ea224fe,,,,,,,,,98,94.82861328,34.32055664,1,0,0,response1disk,,6,-10.29736328,8.079467773,1,0,0,rectangle,-10.29736328,8.079467773,1,0,0,-10.29736328,8.079467773,1,0,0,0,95,95,132,1,,,,,,,,
,,,,,,,,,,,,,FF,,,,,,,,0.7008,,,,,,,,,,,,,,,,,,,,,,6101ed0ef8c205170a3e22cc,61036bbaa53d4131b64c860d,2021-07-29_22h02.48.182,Simcolourproject_2stim_asymm_v5,2020.2.10,MacIntel,60,61025ae37ef11b136ea224fe,,,,,,,,,3209,37.79376221,77.48828125,1,0,0,response1disk,,7,0.915283203,9.290100098,1,0,0,rectangle,0.915283203,9.290100098,1,0,0,0.915283203,9.290100098,1,0,0,0,96,96,158,1,,,,,,,,
,,,,,,,,,,,,,FF,,,,,,,,0.6174,,,,,,,,,,,,,,,,,,,,,,6101ed0ef8c205170a3e22cc,61036bbaa53d4131b64c860d,2021-07-29_22h02.48.182,Simcolourproject_2stim_asymm_v5,2020.2.10,MacIntel,60,61025ae37ef11b136ea224fe,,,,,,,,,2883,32.77679443,79.69696045,1,0,0,response1disk,,7,-3.046142578,-3.094299316,1,0,0,rectangle,-3.046142578,-3.094299316,1,0,0,-3.046142578,-3.094299316,1,0,0,0,97,97,25,1,,,,,,,,
,,,,,,,,,,,,,FF,,,,,,,,6.1187,,,,,,,,,,,,,,,,,,,,,,6101ed0ef8c205170a3e22cc,61036bbaa53d4131b64c860d,2021-07-29_22h02.48.182,Simcolourproject_2stim_asymm_v5,2020.2.10,MacIntel,60,61025ae37ef11b136ea224fe,,,,,,,,,1766,38.89477539,89.52539063,1,0,0,response1disk,,7,12.171875,8.788330078,1,0,0,rectangle,12.171875,8.788330078,1,0,0,12.171875,8.788330078,1,0,0,0,98,98,87,1,,,,,,,,
,,,,,,,,,,,,,FF,,,,,,,,0.7513,,,,,,,,,,,,,,,,,,,,,,6101ed0ef8c205170a3e22cc,61036bbaa53d4131b64c860d,2021-07-29_22h02.48.182,Simcolourproject_2stim_asymm_v5,2020.2.10,MacIntel,60,61025ae37ef11b136ea224fe,,,,,,,,,1409,41.83795166,80.48861694,1,0,0,response1disk,,7,-2.275878906,-1.358703613,1,0,0,rectangle,-2.275878906,-1.358703613,1,0,0,-2.275878906,-1.358703613,1,0,0,0,99,99,70,1,,,,,,,,
,,,,,,,,,,,,,FF,,,,,,,,0.7349,,,,,,,,,,,,,,,,,,,,,,6101ed0ef8c205170a3e22cc,61036bbaa53d4131b64c860d,2021-07-29_22h02.48.182,Simcolourproject_2stim_asymm_v5,2020.2.10,MacIntel,60,61025ae37ef11b136ea224fe,,,,,,,,,195,42.51159668,84.18756104,1,0,0,response1disk,,7,1.986206055,2.082275391,1,0,0,rectangle,1.986206055,2.082275391,1,0,0,1.986206055,2.082275391,1,0,0,0,100,100,136,1,,,,,,,,
,,,,,,,,,,,,,FF,,,,,,,,1.1324,,,,,,,,,,,,,,,,,,,,,,6101ed0ef8c205170a3e22cc,61036bbaa53d4131b64c860d,2021-07-29_22h02.48.182,Simcolourproject_2stim_asymm_v5,2020.2.10,MacIntel,60,61025ae37ef11b136ea224fe,,,,,,,,,4363,-67.06268311,50.94268799,1,0,0,response7disk,,1,-5.979370117,15.17041016,1,0,0,rectangle,-5.979370117,15.17041016,1,0,0,-5.979370117,15.17041016,1,0,0,0,101,101,112,1,,,,,,,,
,,,,,,,,,,,,,FF,,,,,,,,0.6829,,,,,,,,,,,,,,,,,,,,,,6101ed0ef8c205170a3e22cc,61036bbaa53d4131b64c860d,2021-07-29_22h02.48.182,Simcolourproject_2stim_asymm_v5,2020.2.10,MacIntel,60,61025ae37ef11b136ea224fe,,,,,,,,,489,57.86962891,95.83129883,1,0,0,response1disk,,7,-2.972351074,12.63452148,1,0,0,rectangle,-2.972351074,12.63452148,1,0,0,-2.972351074,12.63452148,1,0,0,0,102,102,119,1,,,,,,,,
,,,,,,,,,,,,,FF,,,,,,,,1.0002,,,,,,,,,,,,,,,,,,,,,,6101ed0ef8c205170a3e22cc,61036bbaa53d4131b64c860d,2021-07-29_22h02.48.182,Simcolourproject_2stim_asymm_v5,2020.2.10,MacIntel,60,61025ae37ef11b136ea224fe,,,,,,,,,4352,-76.10400391,39.21017456,1,0,0,response7disk,,1,-6.3046875,0.482788086,1,0,0,rectangle,-6.3046875,0.482788086,1,0,0,-6.3046875,0.482788086,1,0,0,0,103,103,48,1,,,,,,,,
,,,,,,,,,,,,,FF,,,,,,,,1.2341,,,,,,,,,,,,,,,,,,,,,,6101ed0ef8c205170a3e22cc,61036bbaa53d4131b64c860d,2021-07-29_22h02.48.182,Simcolourproject_2stim_asymm_v5,2020.2.10,MacIntel,60,61025ae37ef11b136ea224fe,,,,,,,,,3297,-74.38867188,-53.93136597,1,0,0,response5disk,,2,9.795837402,-13.4302063,1,0,0,rectangle,9.795837402,-13.4302063,1,0,0,9.795837402,-13.4302063,1,0,0,0,104,104,116,1,,,,,,,,
,,,,,,,,,,,,,FF,,,,,,,,0.6698,,,,,,,,,,,,,,,,,,,,,,6101ed0ef8c205170a3e22cc,61036bbaa53d4131b64c860d,2021-07-29_22h02.48.182,Simcolourproject_2stim_asymm_v5,2020.2.10,MacIntel,60,61025ae37ef11b136ea224fe,,,,,,,,,377,59.10717773,94.10015869,1,0,0,response1disk,,7,1.570739746,2.403137207,1,0,0,rectangle,1.570739746,2.403137207,1,0,0,1.570739746,2.403137207,1,0,0,0,105,105,115,1,,,,,,,,
,,,,,,,,,,,,,FF,,,,,,,,0.7188,,,,,,,,,,,,,,,,,,,,,,6101ed0ef8c205170a3e22cc,61036bbaa53d4131b64c860d,2021-07-29_22h02.48.182,Simcolourproject_2stim_asymm_v5,2020.2.10,MacIntel,60,61025ae37ef11b136ea224fe,,,,,,,,,1228,37.87390137,89.78744507,1,0,0,response1disk,,7,6.821044922,6.829467773,1,0,0,rectangle,6.821044922,6.829467773,1,0,0,6.821044922,6.829467773,1,0,0,0,106,106,7,1,,,,,,,,
,,,,,,,,,,,,,FF,,,,,,,,0.6729,,,,,,,,,,,,,,,,,,,,,,6101ed0ef8c205170a3e22cc,61036bbaa53d4131b64c860d,2021-07-29_22h02.48.182,Simcolourproject_2stim_asymm_v5,2020.2.10,MacIntel,60,61025ae37ef11b136ea224fe,,,,,,,,,309,43.61706543,85.88842773,1,0,0,response1disk,,7,17.48486328,1.305206299,1,0,0,rectangle,17.48486328,1.305206299,1,0,0,17.48486328,1.305206299,1,0,0,0,107,107,64,1,,,,,,,,
,,,,,,,,,,,,,FF,,,,,,,,0.6318,,,,,,,,,,,,,,,,,,,,,,6101ed0ef8c205170a3e22cc,61036bbaa53d4131b64c860d,2021-07-29_22h02.48.182,Simcolourproject_2stim_asymm_v5,2020.2.10,MacIntel,60,61025ae37ef11b136ea224fe,,,,,,,,,2059,41.88067627,75.01022339,1,0,0,response1disk,,7,5.486206055,-7.706237793,1,0,0,rectangle,5.486206055,-7.706237793,1,0,0,5.486206055,-7.706237793,1,0,0,0,108,108,92,1,,,,,,,,
,,,,,,,,,,,,,FF,,,,,,,,0.7053,,,,,,,,,,,,,,,,,,,,,,6101ed0ef8c205170a3e22cc,61036bbaa53d4131b64c860d,2021-07-29_22h02.48.182,Simcolourproject_2stim_asymm_v5,2020.2.10,MacIntel,60,61025ae37ef11b136ea224fe,,,,,,,,,3322,53.8548584,101.6433716,1,0,0,response1disk,,7,-9.787353516,2.489959717,1,0,0,rectangle,-9.787353516,2.489959717,1,0,0,-9.787353516,2.489959717,1,0,0,0,109,109,77,1,,,,,,,,
,,,,,,,,,,,,,FF,,,,,,,,0.6031,,,,,,,,,,,,,,,,,,,,,,6101ed0ef8c205170a3e22cc,61036bbaa53d4131b64c860d,2021-07-29_22h02.48.182,Simcolourproject_2stim_asymm_v5,2020.2.10,MacIntel,60,61025ae37ef11b136ea224fe,,,,,,,,,2213,49.55700684,90.57546997,1,0,0,response1disk,,7,-0.294128418,-5.47869873,1,0,0,rectangle,-0.294128418,-5.47869873,1,0,0,-0.294128418,-5.47869873,1,0,0,0,110,110,104,1,,,,,,,,
,,,,,,,,,,,,,FF,,,,,,,,0.6626,,,,,,,,,,,,,,,,,,,,,,6101ed0ef8c205170a3e22cc,61036bbaa53d4131b64c860d,2021-07-29_22h02.48.182,Simcolourproject_2stim_asymm_v5,2020.2.10,MacIntel,60,61025ae37ef11b136ea224fe,,,,,,,,,4228,62.55371094,117.9602661,1,0,0,response1disk,,7,7.175415039,7.577392578,1,0,0,rectangle,7.175415039,7.577392578,1,0,0,7.175415039,7.577392578,1,0,0,0,111,111,1,1,,,,,,,,
,,,,,,,,,,,,,FF,,,,,,,,0.6259,,,,,,,,,,,,,,,,,,,,,,6101ed0ef8c205170a3e22cc,61036bbaa53d4131b64c860d,2021-07-29_22h02.48.182,Simcolourproject_2stim_asymm_v5,2020.2.10,MacIntel,60,61025ae37ef11b136ea224fe,,,,,,,,,4309,53.84411621,93.36560059,1,0,0,response1disk,,7,0.403869629,-0.571228027,1,0,0,rectangle,0.403869629,-0.571228027,1,0,0,0.403869629,-0.571228027,1,0,0,0,112,112,106,1,,,,,,,,
,,,,,,,,,,,,,FF,,,,,,,,0.8453,,,,,,,,,,,,,,,,,,,,,,6101ed0ef8c205170a3e22cc,61036bbaa53d4131b64c860d,2021-07-29_22h02.48.182,Simcolourproject_2stim_asymm_v5,2020.2.10,MacIntel,60,61025ae37ef11b136ea224fe,,,,,,,,,2292,-40.18225098,88.88586426,1,0,0,response7disk,,0,-6.30255127,8.057220459,1,0,0,rectangle,-6.30255127,8.057220459,1,0,0,-6.30255127,8.057220459,1,0,0,0,113,113,33,1,,,,,,,,
,,,,,,,,,,,,,FF,,,,,,,,0.6043,,,,,,,,,,,,,,,,,,,,,,6101ed0ef8c205170a3e22cc,61036bbaa53d4131b64c860d,2021-07-29_22h02.48.182,Simcolourproject_2stim_asymm_v5,2020.2.10,MacIntel,60,61025ae37ef11b136ea224fe,,,,,,,,,2437,55.42797852,103.3545837,1,0,0,response1disk,,7,4.735046387,14.59191895,1,0,0,rectangle,4.735046387,14.59191895,1,0,0,4.735046387,14.59191895,1,0,0,0,114,114,145,1,,,,,,,,
,,,,,,,,,,,,,FF,,,,,,,,2.5333,,,,,,,,,,,,,,,,,,,,,,6101ed0ef8c205170a3e22cc,61036bbaa53d4131b64c860d,2021-07-29_22h02.48.182,Simcolourproject_2stim_asymm_v5,2020.2.10,MacIntel,60,61025ae37ef11b136ea224fe,,,,,,,,,429,104.0474243,-46.71453857,1,0,0,response3disk,,5,-2.303100586,15.01513672,1,0,0,rectangle,-2.303100586,15.01513672,1,0,0,-2.303100586,15.01513672,1,0,0,0,115,115,31,1,,,,,,,,
,,,,,,,,,,,,,FF,,,,,,,,0.6646,,,,,,,,,,,,,,,,,,,,,,6101ed0ef8c205170a3e22cc,61036bbaa53d4131b64c860d,2021-07-29_22h02.48.182,Simcolourproject_2stim_asymm_v5,2020.2.10,MacIntel,60,61025ae37ef11b136ea224fe,,,,,,,,,1787,41.83679199,78.84805298,1,0,0,response1disk,,7,-4.256835938,-8.919799805,1,0,0,rectangle,-4.256835938,-8.919799805,1,0,0,-4.256835938,-8.919799805,1,0,0,0,116,116,118,1,,,,,,,,
,,,,,,,,,,,,,FF,,,,,,,,0.703,,,,,,,,,,,,,,,,,,,,,,6101ed0ef8c205170a3e22cc,61036bbaa53d4131b64c860d,2021-07-29_22h02.48.182,Simcolourproject_2stim_asymm_v5,2020.2.10,MacIntel,60,61025ae37ef11b136ea224fe,,,,,,,,,360,42.94348145,103.1451416,1,0,0,response1disk,,7,7.52154541,-3.179260254,1,0,0,rectangle,89.33666992,-62.33074951,1,0,0,-2.757080078,-4.390563965,1,0,0,0,117,117,88,1,,response3disk_3,TRUE,5,5,"[173,189,184,219,118,167,294,33,44,189,277,177,185,173,206,66,187,59,253,236]",1.4685,rectangle
,,,,,,,,,,,,,FF,,,,,,,,0.7159,,,,,,,,,,,,,,,,,,,,,,6101ed0ef8c205170a3e22cc,61036bbaa53d4131b64c860d,2021-07-29_22h02.48.182,Simcolourproject_2stim_asymm_v5,2020.2.10,MacIntel,60,61025ae37ef11b136ea224fe,,,,,,,,,50,44.75408936,106.4349976,1,0,0,response1disk,,7,4.518066406,1.829956055,1,0,0,rectangle,4.518066406,1.829956055,1,0,0,4.518066406,1.829956055,1,0,0,0,118,118,20,1,,,,,,,,
,,,,,,,,,,,,,FF,,,,,,,,0.9343,,,,,,,,,,,,,,,,,,,,,,6101ed0ef8c205170a3e22cc,61036bbaa53d4131b64c860d,2021-07-29_22h02.48.182,Simcolourproject_2stim_asymm_v5,2020.2.10,MacIntel,60,61025ae37ef11b136ea224fe,,,,,,,,,3998,-66.47357178,36.93707275,1,0,0,response7disk,,1,0.085876465,7.351928711,1,0,0,rectangle,0.085876465,7.351928711,1,0,0,0.085876465,7.351928711,1,0,0,0,119,119,125,1,,,,,,,,
,,,,,,,,,,,,,FF,,,,,,,,0.6365,,,,,,,,,,,,,,,,,,,,,,6101ed0ef8c205170a3e22cc,61036bbaa53d4131b64c860d,2021-07-29_22h02.48.182,Simcolourproject_2stim_asymm_v5,2020.2.10,MacIntel,60,61025ae37ef11b136ea224fe,,,,,,,,,4284,53.83758545,89.58685303,1,0,0,response1disk,,7,2.669311523,4.171661377,1,0,0,rectangle,2.669311523,4.171661377,1,0,0,2.669311523,4.171661377,1,0,0,0,120,120,3,1,,,,,,,,
,,,,,,,,,,,,,FF,,,,,,,,0.7206,,,,,,,,,,,,,,,,,,,,,,6101ed0ef8c205170a3e22cc,61036bbaa53d4131b64c860d,2021-07-29_22h02.48.182,Simcolourproject_2stim_asymm_v5,2020.2.10,MacIntel,60,61025ae37ef11b136ea224fe,,,,,,,,,1941,45.10284424,89.54681396,1,0,0,response1disk,,7,8.560180664,-5.749389648,1,0,0,rectangle,8.560180664,-5.749389648,1,0,0,8.560180664,-5.749389648,1,0,0,0,121,121,12,1,,,,,,,,
,,,,,,,,,,,,,FF,,,,,,,,3.0846,,,,,,,,,,,,,,,,,,,,,,6101ed0ef8c205170a3e22cc,61036bbaa53d4131b64c860d,2021-07-29_22h02.48.182,Simcolourproject_2stim_asymm_v5,2020.2.10,MacIntel,60,61025ae37ef11b136ea224fe,,,,,,,,,3228,47.05493164,78.71704102,1,0,0,response1disk,,7,8.914672852,4.322509766,1,0,0,rectangle,8.914672852,4.322509766,1,0,0,8.914672852,4.322509766,1,0,0,0,122,122,153,1,,,,,,,,
,,,,,,,,,,,,,FF,,,,,,,,1.1182,,,,,,,,,,,,,,,,,,,,,,6101ed0ef8c205170a3e22cc,61036bbaa53d4131b64c860d,2021-07-29_22h02.48.182,Simcolourproject_2stim_asymm_v5,2020.2.10,MacIntel,60,61025ae37ef11b136ea224fe,,,,,,,,,1975,91.64971924,34.01385498,1,0,0,response1disk,,6,-7.30871582,-10.16445923,1,0,0,rectangle,-7.30871582,-10.16445923,1,0,0,-7.30871582,-10.16445923,1,0,0,0,123,123,96,1,,,,,,,,
,,,,,,,,,,,,,FF,,,,,,,,0.5838,,,,,,,,,,,,,,,,,,,,,,6101ed0ef8c205170a3e22cc,61036bbaa53d4131b64c860d,2021-07-29_22h02.48.182,Simcolourproject_2stim_asymm_v5,2020.2.10,MacIntel,60,61025ae37ef11b136ea224fe,,,,,,,,,4257,54.9486084,107.1834717,1,0,0,response1disk,,7,5.832824707,9.520996094,1,0,0,rectangle,5.832824707,9.520996094,1,0,0,5.832824707,9.520996094,1,0,0,0,124,124,55,1,,,,,,,,
,,,,,,,,,,,,,FF,,,,,,,,0.6085,,,,,,,,,,,,,,,,,,,,,,6101ed0ef8c205170a3e22cc,61036bbaa53d4131b64c860d,2021-07-29_22h02.48.182,Simcolourproject_2stim_asymm_v5,2020.2.10,MacIntel,60,61025ae37ef11b136ea224fe,,,,,,,,,2600,44.39556885,90.63049316,1,0,0,response1disk,,7,18.73193359,8.71661377,1,0,0,rectangle,18.73193359,8.71661377,1,0,0,18.73193359,8.71661377,1,0,0,0,125,125,34,1,,,,,,,,
,,,,,,,,,,,,,FF,,,,,,,,0.6684,,,,,,,,,,,,,,,,,,,,,,6101ed0ef8c205170a3e22cc,61036bbaa53d4131b64c860d,2021-07-29_22h02.48.182,Simcolourproject_2stim_asymm_v5,2020.2.10,MacIntel,60,61025ae37ef11b136ea224fe,,,,,,,,,2454,52.62194824,106.924469,1,0,0,response1disk,,7,-7.993774414,4.421936035,1,0,0,rectangle,-7.993774414,4.421936035,1,0,0,-7.993774414,4.421936035,1,0,0,0,126,126,121,1,,,,,,,,
,,,,,,,,,,,,,FF,,,,,,,,0.6043,,,,,,,,,,,,,,,,,,,,,,6101ed0ef8c205170a3e22cc,61036bbaa53d4131b64c860d,2021-07-29_22h02.48.182,Simcolourproject_2stim_asymm_v5,2020.2.10,MacIntel,60,61025ae37ef11b136ea224fe,,,,,,,,,2384,46.70410156,111.4515381,1,0,0,response1disk,,7,-3.34765625,-13.04611206,1,0,0,rectangle,-3.34765625,-13.04611206,1,0,0,-3.34765625,-13.04611206,1,0,0,0,127,127,42,1,,,,,,,,
,,,,,,,,,,,,,FF,,,,,,,,0.6396,,,,,,,,,,,,,,,,,,,,,,6101ed0ef8c205170a3e22cc,61036bbaa53d4131b64c860d,2021-07-29_22h02.48.182,Simcolourproject_2stim_asymm_v5,2020.2.10,MacIntel,60,61025ae37ef11b136ea224fe,,,,,,,,,3321,52.32336426,85.98513794,1,0,0,response1disk,,7,11.33520508,-4.867218018,1,0,0,rectangle,11.33520508,-4.867218018,1,0,0,11.33520508,-4.867218018,1,0,0,0,128,128,78,1,,,,,,,,
,,,,,,,,,,,,,FF,,,,,,,,1.0666,,,,,,,,,,,,,,,,,,,,,,6101ed0ef8c205170a3e22cc,61036bbaa53d4131b64c860d,2021-07-29_22h02.48.182,Simcolourproject_2stim_asymm_v5,2020.2.10,MacIntel,60,61025ae37ef11b136ea224fe,,,,,,,,,2820,61.12670898,94.63079834,1,0,0,response1disk,,7,-3.143493652,-12.17645264,1,0,0,rectangle,-3.143493652,-12.17645264,1,0,0,-3.143493652,-12.17645264,1,0,0,0,129,129,60,1,,,,,,,,
,,,,,,,,,,,,,FF,,,,,,,,0.8341,,,,,,,,,,,,,,,,,,,,,,6101ed0ef8c205170a3e22cc,61036bbaa53d4131b64c860d,2021-07-29_22h02.48.182,Simcolourproject_2stim_asymm_v5,2020.2.10,MacIntel,60,61025ae37ef11b136ea224fe,,,,,,,,,3104,-83.67279053,30.81066895,1,0,0,response7disk,,1,-0.87512207,3.933654785,1,0,0,rectangle,-0.87512207,3.933654785,1,0,0,-0.87512207,3.933654785,1,0,0,0,130,130,105,1,,,,,,,,
,,,,,,,,,,,,,FF,,,,,,,,1.4504,,,,,,,,,,,,,,,,,,,,,,6101ed0ef8c205170a3e22cc,61036bbaa53d4131b64c860d,2021-07-29_22h02.48.182,Simcolourproject_2stim_asymm_v5,2020.2.10,MacIntel,60,61025ae37ef11b136ea224fe,,,,,,,,,3637,-61.87255859,-74.44763184,1,0,0,response5disk,,3,-11.44317627,-4.490722656,1,0,0,rectangle,-11.44317627,-4.490722656,1,0,0,-11.44317627,-4.490722656,1,0,0,0,131,131,27,1,,,,,,,,
,,,,,,,,,,,,,FF,,,,,,,,1.4502,,,,,,,,,,,,,,,,,,,,,,6101ed0ef8c205170a3e22cc,61036bbaa53d4131b64c860d,2021-07-29_22h02.48.182,Simcolourproject_2stim_asymm_v5,2020.2.10,MacIntel,60,61025ae37ef11b136ea224fe,,,,,,,,,2674,48.72528076,-91.07415771,1,0,0,response3disk,,4,-11.31628418,-3.516662598,1,0,0,rectangle,-11.31628418,-3.516662598,1,0,0,-11.31628418,-3.516662598,1,0,0,0,132,132,151,1,,,,,,,,
,,,,,,,,,,,,,FF,,,,,,,,0.8611,,,,,,,,,,,,,,,,,,,,,,6101ed0ef8c205170a3e22cc,61036bbaa53d4131b64c860d,2021-07-29_22h02.48.182,Simcolourproject_2stim_asymm_v5,2020.2.10,MacIntel,60,61025ae37ef11b136ea224fe,,,,,,,,,4068,51.12548828,80.9446106,1,0,0,response1disk,,7,-5.315612793,-12.36764526,1,0,0,rectangle,-5.315612793,-12.36764526,1,0,0,-5.315612793,-12.36764526,1,0,0,0,133,133,120,1,,,,,,,,
,,,,,,,,,,,,,FF,,,,,,,,0.5144,,,,,,,,,,,,,,,,,,,,,,6101ed0ef8c205170a3e22cc,61036bbaa53d4131b64c860d,2021-07-29_22h02.48.182,Simcolourproject_2stim_asymm_v5,2020.2.10,MacIntel,60,61025ae37ef11b136ea224fe,,,,,,,,,2633,46.14453125,100.1132202,1,0,0,response1disk,,7,2.135192871,11.95690918,1,0,0,rectangle,2.135192871,11.95690918,1,0,0,2.135192871,11.95690918,1,0,0,0,134,134,97,1,,,,,,,,
,,,,,,,,,,,,,FF,,,,,,,,0.705,,,,,,,,,,,,,,,,,,,,,,6101ed0ef8c205170a3e22cc,61036bbaa53d4131b64c860d,2021-07-29_22h02.48.182,Simcolourproject_2stim_asymm_v5,2020.2.10,MacIntel,60,61025ae37ef11b136ea224fe,,,,,,,,,717,-73.64550781,104.9074707,1,0,0,response7disk,,0,-6.463562012,6.227722168,1,0,0,rectangle,-6.463562012,6.227722168,1,0,0,-6.463562012,6.227722168,1,0,0,0,135,135,98,1,,,,,,,,
,,,,,,,,,,,,,FF,,,,,,,,0.6847,,,,,,,,,,,,,,,,,,,,,,6101ed0ef8c205170a3e22cc,61036bbaa53d4131b64c860d,2021-07-29_22h02.48.182,Simcolourproject_2stim_asymm_v5,2020.2.10,MacIntel,60,61025ae37ef11b136ea224fe,,,,,,,,,1815,-22.1819458,82.06793213,1,0,0,response7disk,,0,-4.60925293,-1.111480713,1,0,0,rectangle,-4.60925293,-1.111480713,1,0,0,-4.60925293,-1.111480713,1,0,0,0,136,136,28,1,,,,,,,,
,,,,,,,,,,,,,FF,,,,,,,,1.2503,,,,,,,,,,,,,,,,,,,,,,6101ed0ef8c205170a3e22cc,61036bbaa53d4131b64c860d,2021-07-29_22h02.48.182,Simcolourproject_2stim_asymm_v5,2020.2.10,MacIntel,60,61025ae37ef11b136ea224fe,,,,,,,,,1710,56.46643066,81.7074585,1,0,0,response1disk,,7,6.173339844,4.552154541,1,0,0,rectangle,6.173339844,4.552154541,1,0,0,6.173339844,4.552154541,1,0,0,0,137,137,8,1,,,,,,,,
,,,,,,,,,,,,,FF,,,,,,,,0.5517,,,,,,,,,,,,,,,,,,,,,,6101ed0ef8c205170a3e22cc,61036bbaa53d4131b64c860d,2021-07-29_22h02.48.182,Simcolourproject_2stim_asymm_v5,2020.2.10,MacIntel,60,61025ae37ef11b136ea224fe,,,,,,,,,2811,32.98400879,96.0814209,1,0,0,response1disk,,7,-5.178710938,-7.090209961,1,0,0,rectangle,-5.178710938,-7.090209961,1,0,0,-5.178710938,-7.090209961,1,0,0,0,138,138,26,1,,,,,,,,
,,,,,,,,,,,,,FF,,,,,,,,1.1295,,,,,,,,,,,,,,,,,,,,,,6101ed0ef8c205170a3e22cc,61036bbaa53d4131b64c860d,2021-07-29_22h02.48.182,Simcolourproject_2stim_asymm_v5,2020.2.10,MacIntel,60,61025ae37ef11b136ea224fe,,,,,,,,,189,80.45770264,28.93762207,1,0,0,response1disk,,6,-0.832519531,1.456481934,1,0,0,rectangle,-0.832519531,1.456481934,1,0,0,-0.832519531,1.456481934,1,0,0,0,139,139,36,1,,,,,,,,
,,,,,,,,,,,,,FF,,,,,,,,0.7274,,,,,,,,,,,,,,,,,,,,,,6101ed0ef8c205170a3e22cc,61036bbaa53d4131b64c860d,2021-07-29_22h02.48.182,Simcolourproject_2stim_asymm_v5,2020.2.10,MacIntel,60,61025ae37ef11b136ea224fe,,,,,,,,,130,39.86047363,94.34481812,1,0,0,response1disk,,7,11.66381836,-9.785858154,1,0,0,rectangle,11.66381836,-9.785858154,1,0,0,11.66381836,-9.785858154,1,0,0,0,140,140,18,1,,,,,,,,
,,,,,,,,,,,,,FF,,,,,,,,0.5998,,,,,,,,,,,,,,,,,,,,,,6101ed0ef8c205170a3e22cc,61036bbaa53d4131b64c860d,2021-07-29_22h02.48.182,Simcolourproject_2stim_asymm_v5,2020.2.10,MacIntel,60,61025ae37ef11b136ea224fe,,,,,,,,,322,58.19299316,107.923584,1,0,0,response1disk,,7,-0.924499512,0.316833496,1,0,0,rectangle,-0.924499512,0.316833496,1,0,0,-0.924499512,0.316833496,1,0,0,0,141,141,17,1,,,,,,,,
,,,,,,,,,,,,,FF,,,,,,,,1.4506,,,,,,,,,,,,,,,,,,,,,,6101ed0ef8c205170a3e22cc,61036bbaa53d4131b64c860d,2021-07-29_22h02.48.182,Simcolourproject_2stim_asymm_v5,2020.2.10,MacIntel,60,61025ae37ef11b136ea224fe,,,,,,,,,2425,-87.37347412,44.02062988,1,0,0,response7disk,,1,-18.43182373,3.755493164,1,0,0,rectangle,-18.43182373,3.755493164,1,0,0,-18.43182373,3.755493164,1,0,0,0,142,142,53,1,,,,,,,,
,,,,,,,,,,,,,FF,,,,,,,,0.6279,,,,,,,,,,,,,,,,,,,,,,6101ed0ef8c205170a3e22cc,61036bbaa53d4131b64c860d,2021-07-29_22h02.48.182,Simcolourproject_2stim_asymm_v5,2020.2.10,MacIntel,60,61025ae37ef11b136ea224fe,,,,,,,,,3032,61.27618408,94.800354,1,0,0,response1disk,,7,3.421936035,-0.438262939,1,0,0,rectangle,3.421936035,-0.438262939,1,0,0,3.421936035,-0.438262939,1,0,0,0,143,143,149,1,,,,,,,,
,,,,,,,,,,,,,FF,,,,,,,,0.5831,,,,,,,,,,,,,,,,,,,,,,6101ed0ef8c205170a3e22cc,61036bbaa53d4131b64c860d,2021-07-29_22h02.48.182,Simcolourproject_2stim_asymm_v5,2020.2.10,MacIntel,60,61025ae37ef11b136ea224fe,,,,,,,,,3984,36.95544434,102.5835571,1,0,0,response1disk,,7,7.087463379,6.606536865,1,0,0,rectangle,7.087463379,6.606536865,1,0,0,7.087463379,6.606536865,1,0,0,0,144,144,57,1,,,,,,,,
,,,,,,,,,,,,,FF,,,,,,,,0.6175,,,,,,,,,,,,,,,,,,,,,,6101ed0ef8c205170a3e22cc,61036bbaa53d4131b64c860d,2021-07-29_22h02.48.182,Simcolourproject_2stim_asymm_v5,2020.2.10,MacIntel,60,61025ae37ef11b136ea224fe,,,,,,,,,2818,42.63000488,95.83337402,1,0,0,response1disk,,7,10.98693848,11.92315674,1,0,0,rectangle,10.98693848,11.92315674,1,0,0,10.98693848,11.92315674,1,0,0,0,145,145,114,1,,,,,,,,
,,,,,,,,,,,,,FF,,,,,,,,0.5353,,,,,,,,,,,,,,,,,,,,,,6101ed0ef8c205170a3e22cc,61036bbaa53d4131b64c860d,2021-07-29_22h02.48.182,Simcolourproject_2stim_asymm_v5,2020.2.10,MacIntel,60,61025ae37ef11b136ea224fe,,,,,,,,,1771,40.31298828,87.94061279,1,0,0,response1disk,,7,4.153686523,3.728820801,1,0,0,rectangle,4.153686523,3.728820801,1,0,0,4.153686523,3.728820801,1,0,0,0,146,146,14,1,,,,,,,,
,,,,,,,,,,,,,FF,,,,,,,,0.6038,,,,,,,,,,,,,,,,,,,,,,6101ed0ef8c205170a3e22cc,61036bbaa53d4131b64c860d,2021-07-29_22h02.48.182,Simcolourproject_2stim_asymm_v5,2020.2.10,MacIntel,60,61025ae37ef11b136ea224fe,,,,,,,,,3646,50.05004883,104.1533813,1,0,0,response1disk,,7,9.107421875,16.58111572,1,0,0,rectangle,9.107421875,16.58111572,1,0,0,9.107421875,16.58111572,1,0,0,0,147,147,83,1,,,,,,,,
,,,,,,,,,,,,,FF,,,,,,,,1.051,,,,,,,,,,,,,,,,,,,,,,6101ed0ef8c205170a3e22cc,61036bbaa53d4131b64c860d,2021-07-29_22h02.48.182,Simcolourproject_2stim_asymm_v5,2020.2.10,MacIntel,60,61025ae37ef11b136ea224fe,,,,,,,,,79,-70.43713379,29.06256104,1,0,0,response7disk,,1,2.264770508,-1.463928223,1,0,0,rectangle,2.264770508,-1.463928223,1,0,0,2.264770508,-1.463928223,1,0,0,0,148,148,35,1,,,,,,,,
,,,,,,,,,,,,,FF,,,,,,,,0.635,,,,,,,,,,,,,,,,,,,,,,6101ed0ef8c205170a3e22cc,61036bbaa53d4131b64c860d,2021-07-29_22h02.48.182,Simcolourproject_2stim_asymm_v5,2020.2.10,MacIntel,60,61025ae37ef11b136ea224fe,,,,,,,,,366,-54.06347656,75.18774414,1,0,0,response7disk,,0,-10.70092773,8.182983398,1,0,0,rectangle,-10.70092773,8.182983398,1,0,0,-10.70092773,8.182983398,1,0,0,0,149,149,128,1,,,,,,,,
,,,,,,,,,,,,,FF,,,,,,,,0.9672,,,,,,,,,,,,,,,,,,,,,,6101ed0ef8c205170a3e22cc,61036bbaa53d4131b64c860d,2021-07-29_22h02.48.182,Simcolourproject_2stim_asymm_v5,2020.2.10,MacIntel,60,61025ae37ef11b136ea224fe,,,,,,,,,726,-90.10546875,63.23852539,1,0,0,response7disk,,1,-15.41619873,5.81539917,1,0,0,rectangle,-15.41619873,5.81539917,1,0,0,-15.41619873,5.81539917,1,0,0,0,150,150,126,1,,,,,,,,
,,,,,,,,,,,,,FF,,,,,,,,0.5889,,,,,,,,,,,,,,,,,,,,,,6101ed0ef8c205170a3e22cc,61036bbaa53d4131b64c860d,2021-07-29_22h02.48.182,Simcolourproject_2stim_asymm_v5,2020.2.10,MacIntel,60,61025ae37ef11b136ea224fe,,,,,,,,,3648,60.10906982,85.27423096,1,0,0,response1disk,,7,9.066833496,-5.182006836,1,0,0,rectangle,9.066833496,-5.182006836,1,0,0,9.066833496,-5.182006836,1,0,0,0,151,151,127,1,,,,,,,,
,,,,,,,,,,,,,FF,,,,,,,,0.5128,,,,,,,,,,,,,,,,,,,,,,6101ed0ef8c205170a3e22cc,61036bbaa53d4131b64c860d,2021-07-29_22h02.48.182,Simcolourproject_2stim_asymm_v5,2020.2.10,MacIntel,60,61025ae37ef11b136ea224fe,,,,,,,,,55,48.70483398,72.27236938,1,0,0,response1disk,,7,-5.353027344,-5.879669189,1,0,0,rectangle,-5.353027344,-5.879669189,1,0,0,-5.353027344,-5.879669189,1,0,0,0,152,152,155,1,,,,,,,,
,,,,,,,,,,,,,FF,,,,,,,,0.5527,,,,,,,,,,,,,,,,,,,,,,6101ed0ef8c205170a3e22cc,61036bbaa53d4131b64c860d,2021-07-29_22h02.48.182,Simcolourproject_2stim_asymm_v5,2020.2.10,MacIntel,60,61025ae37ef11b136ea224fe,,,,,,,,,3417,41.13275146,105.1759033,1,0,0,response1disk,,7,6.979675293,7.508117676,1,0,0,rectangle,6.979675293,7.508117676,1,0,0,6.979675293,7.508117676,1,0,0,0,153,153,156,1,,,,,,,,
,,,,,,,,,,,,,FF,,,,,,,,2.2499,,,,,,,,,,,,,,,,,,,,,,6101ed0ef8c205170a3e22cc,61036bbaa53d4131b64c860d,2021-07-29_22h02.48.182,Simcolourproject_2stim_asymm_v5,2020.2.10,MacIntel,60,61025ae37ef11b136ea224fe,,,,,,,,,3912,-41.45953369,-99.32580566,1,0,0,response5disk,,3,3.960083008,-0.829956055,1,0,0,rectangle,3.960083008,-0.829956055,1,0,0,3.960083008,-0.829956055,1,0,0,0,154,154,90,1,,,,,,,,
,,,,,,,,,,,,,FF,,,,,,,,1.6506,,,,,,,,,,,,,,,,,,,,,,6101ed0ef8c205170a3e22cc,61036bbaa53d4131b64c860d,2021-07-29_22h02.48.182,Simcolourproject_2stim_asymm_v5,2020.2.10,MacIntel,60,61025ae37ef11b136ea224fe,,,,,,,,,1362,100.177124,-27.44805908,1,0,0,response3disk,,5,-1.869567871,-0.417724609,1,0,0,rectangle,-1.869567871,-0.417724609,1,0,0,-1.869567871,-0.417724609,1,0,0,0,155,155,44,1,,,,,,,,
,,,,,,,,,,,,,FF,,,,,,,,0.6457,,,,,,,,,,,,,,,,,,,,,,6101ed0ef8c205170a3e22cc,61036bbaa53d4131b64c860d,2021-07-29_22h02.48.182,Simcolourproject_2stim_asymm_v5,2020.2.10,MacIntel,60,61025ae37ef11b136ea224fe,,,,,,,,,3893,41.6138916,81.38366699,1,0,0,response1disk,,7,5.740539551,-4.286682129,1,0,0,rectangle,5.740539551,-4.286682129,1,0,0,5.740539551,-4.286682129,1,0,0,0,156,156,46,1,,,,,,,,
,,,,,,,,,,,,,FF,,,,,,,,0.5344,,,,,,,,,,,,,,,,,,,,,,6101ed0ef8c205170a3e22cc,61036bbaa53d4131b64c860d,2021-07-29_22h02.48.182,Simcolourproject_2stim_asymm_v5,2020.2.10,MacIntel,60,61025ae37ef11b136ea224fe,,,,,,,,,511,36.97418213,87.89575195,1,0,0,response1disk,,7,0.719909668,-6.689819336,1,0,0,rectangle,0.719909668,-6.689819336,1,0,0,0.719909668,-6.689819336,1,0,0,0,157,157,65,1,,,,,,,,
,,,,,,,,,,,,,FF,,,,,,,,0.5175,,,,,,,,,,,,,,,,,,,,,,6101ed0ef8c205170a3e22cc,61036bbaa53d4131b64c860d,2021-07-29_22h02.48.182,Simcolourproject_2stim_asymm_v5,2020.2.10,MacIntel,60,61025ae37ef11b136ea224fe,,,,,,,,,1277,31.29559326,85.08929443,1,0,0,response1disk,,7,1.026611328,-6.894897461,1,0,0,rectangle,1.026611328,-6.894897461,1,0,0,1.026611328,-6.894897461,1,0,0,0,158,158,40,1,,,,,,,,
,,,,,,,,,,,,,FF,,,,,,,,8.3689,,,,,,,,,,,,,,,,,,,,,,6101ed0ef8c205170a3e22cc,61036bbaa53d4131b64c860d,2021-07-29_22h02.48.182,Simcolourproject_2stim_asymm_v5,2020.2.10,MacIntel,60,61025ae37ef11b136ea224fe,,,,,,,,,2772,42.73999023,81.9520874,1,0,0,response1disk,,7,-15.3604126,-0.643768311,1,0,0,rectangle,-15.3604126,-0.643768311,1,0,0,-15.3604126,-0.643768311,1,0,0,0,159,159,62,1,,,,,,,,
,,,,,,,,,,,,,FF,,,,,,,,0.627,,,,,,,,,,,,,,,,,,,,,,6101ed0ef8c205170a3e22cc,61036bbaa53d4131b64c860d,2021-07-29_22h02.48.182,Simcolourproject_2stim_asymm_v5,2020.2.10,MacIntel,60,61025ae37ef11b136ea224fe,,,,,,,,,2857,47.72607422,94.46820068,1,0,0,response1disk,,7,0.310913086,3.868713379,1,0,0,rectangle,0.310913086,3.868713379,1,0,0,0.310913086,3.868713379,1,0,0,1,0,160,25,1,,,,,,,,
,,,,,,,,,,,,,FF,,,,,,,,1.0679,,,,,,,,,,,,,,,,,,,,,,6101ed0ef8c205170a3e22cc,61036bbaa53d4131b64c860d,2021-07-29_22h02.48.182,Simcolourproject_2stim_asymm_v5,2020.2.10,MacIntel,60,61025ae37ef11b136ea224fe,,,,,,,,,607,98.47711182,25.61584473,1,0,0,response1disk,,6,-5.59777832,-8.266448975,1,0,0,rectangle,-5.59777832,-8.266448975,1,0,0,-5.59777832,-8.266448975,1,0,0,1,1,161,101,1,,,,,,,,
,,,,,,,,,,,,,FF,,,,,,,,1.2986,,,,,,,,,,,,,,,,,,,,,,6101ed0ef8c205170a3e22cc,61036bbaa53d4131b64c860d,2021-07-29_22h02.48.182,Simcolourproject_2stim_asymm_v5,2020.2.10,MacIntel,60,61025ae37ef11b136ea224fe,,,,,,,,,3868,68.5526123,40.61642456,1,0,0,response1disk,,6,6.657043457,-9.532196045,1,0,0,rectangle,6.657043457,-9.532196045,1,0,0,6.657043457,-9.532196045,1,0,0,1,2,162,86,1,,,,,,,,
,,,,,,,,,,,,,FF,,,,,,,,0.5676,,,,,,,,,,,,,,,,,,,,,,6101ed0ef8c205170a3e22cc,61036bbaa53d4131b64c860d,2021-07-29_22h02.48.182,Simcolourproject_2stim_asymm_v5,2020.2.10,MacIntel,60,61025ae37ef11b136ea224fe,,,,,,,,,1097,42.8560791,87.61694336,1,0,0,response1disk,,7,8.330810547,3.719970703,1,0,0,rectangle,8.330810547,3.719970703,1,0,0,8.330810547,3.719970703,1,0,0,1,3,163,57,1,,,,,,,,
,,,,,,,,,,,,,FF,,,,,,,,0.566,,,,,,,,,,,,,,,,,,,,,,6101ed0ef8c205170a3e22cc,61036bbaa53d4131b64c860d,2021-07-29_22h02.48.182,Simcolourproject_2stim_asymm_v5,2020.2.10,MacIntel,60,61025ae37ef11b136ea224fe,,,,,,,,,1669,44.07904053,92.2520752,1,0,0,response1disk,,7,13.07757568,13.49194336,1,0,0,rectangle,13.07757568,13.49194336,1,0,0,13.07757568,13.49194336,1,0,0,1,4,164,70,1,,,,,,,,
,,,,,,,,,,,,,FF,,,,,,,,0.5811,,,,,,,,,,,,,,,,,,,,,,6101ed0ef8c205170a3e22cc,61036bbaa53d4131b64c860d,2021-07-29_22h02.48.182,Simcolourproject_2stim_asymm_v5,2020.2.10,MacIntel,60,61025ae37ef11b136ea224fe,,,,,,,,,2692,46.43377686,93.78155518,1,0,0,response1disk,,7,9.534912109,-7.393768311,1,0,0,rectangle,9.534912109,-7.393768311,1,0,0,9.534912109,-7.393768311,1,0,0,1,5,165,66,1,,,,,,,,
,,,,,,,,,,,,,FF,,,,,,,,0.5337,,,,,,,,,,,,,,,,,,,,,,6101ed0ef8c205170a3e22cc,61036bbaa53d4131b64c860d,2021-07-29_22h02.48.182,Simcolourproject_2stim_asymm_v5,2020.2.10,MacIntel,60,61025ae37ef11b136ea224fe,,,,,,,,,3409,40.8527832,80.64105225,1,0,0,response1disk,,7,10.30834961,-3.237365723,1,0,0,rectangle,48.52880859,96.22216797,1,0,0,5.940917969,4.687927246,1,0,0,1,6,166,123,1,,response1disk_3,TRUE,7,7,"[173,189,184,219,118,167,294,33,44,189,277,177,185,173,206,66,187,59,253,236]",1.7468,rectangle
,,,,,,,,,,,,,FF,,,,,,,,0.975,,,,,,,,,,,,,,,,,,,,,,6101ed0ef8c205170a3e22cc,61036bbaa53d4131b64c860d,2021-07-29_22h02.48.182,Simcolourproject_2stim_asymm_v5,2020.2.10,MacIntel,60,61025ae37ef11b136ea224fe,,,,,,,,,2090,77.0300293,40.37704468,1,0,0,response1disk,,6,-0.810302734,3.114868164,1,0,0,rectangle,-0.810302734,3.114868164,1,0,0,-0.810302734,3.114868164,1,0,0,1,7,167,26,1,,,,,,,,
,,,,,,,,,,,,,FF,,,,,,,,1.1837,,,,,,,,,,,,,,,,,,,,,,6101ed0ef8c205170a3e22cc,61036bbaa53d4131b64c860d,2021-07-29_22h02.48.182,Simcolourproject_2stim_asymm_v5,2020.2.10,MacIntel,60,61025ae37ef11b136ea224fe,,,,,,,,,1145,34.56634521,-59.21881104,1,0,0,response3disk,,4,2.364624023,1.392822266,1,0,0,rectangle,2.364624023,1.392822266,1,0,0,2.364624023,1.392822266,1,0,0,1,8,168,30,1,,,,,,,,
,,,,,,,,,,,,,FF,,,,,,,,0.6437,,,,,,,,,,,,,,,,,,,,,,6101ed0ef8c205170a3e22cc,61036bbaa53d4131b64c860d,2021-07-29_22h02.48.182,Simcolourproject_2stim_asymm_v5,2020.2.10,MacIntel,60,61025ae37ef11b136ea224fe,,,,,,,,,687,42.86737061,110.8291321,1,0,0,response1disk,,7,-3.703308105,-5.738891602,1,0,0,rectangle,-3.703308105,-5.738891602,1,0,0,-3.703308105,-5.738891602,1,0,0,1,9,169,111,1,,,,,,,,
,,,,,,,,,,,,,FF,,,,,,,,0.5844,,,,,,,,,,,,,,,,,,,,,,6101ed0ef8c205170a3e22cc,61036bbaa53d4131b64c860d,2021-07-29_22h02.48.182,Simcolourproject_2stim_asymm_v5,2020.2.10,MacIntel,60,61025ae37ef11b136ea224fe,,,,,,,,,4242,35.75012207,104.1604919,1,0,0,response1disk,,7,-3.892700195,-7.594116211,1,0,0,rectangle,-3.892700195,-7.594116211,1,0,0,-3.892700195,-7.594116211,1,0,0,1,10,170,100,1,,,,,,,,
,,,,,,,,,,,,,FF,,,,,,,,0.6012,,,,,,,,,,,,,,,,,,,,,,6101ed0ef8c205170a3e22cc,61036bbaa53d4131b64c860d,2021-07-29_22h02.48.182,Simcolourproject_2stim_asymm_v5,2020.2.10,MacIntel,60,61025ae37ef11b136ea224fe,,,,,,,,,1848,41.62414551,89.75830078,1,0,0,response1disk,,7,19.31115723,5.300476074,1,0,0,rectangle,19.31115723,5.300476074,1,0,0,19.31115723,5.300476074,1,0,0,1,11,171,146,1,,,,,,,,
,,,,,,,,,,,,,FF,,,,,,,,0.5437,,,,,,,,,,,,,,,,,,,,,,6101ed0ef8c205170a3e22cc,61036bbaa53d4131b64c860d,2021-07-29_22h02.48.182,Simcolourproject_2stim_asymm_v5,2020.2.10,MacIntel,60,61025ae37ef11b136ea224fe,,,,,,,,,3688,36.96881104,89.45697021,1,0,0,response1disk,,7,14.20422363,4.296325684,1,0,0,rectangle,101.072937,44.87075806,1,0,0,2.158691406,15.50997925,1,0,0,1,12,172,119,1,,response1disk_3,TRUE,6,6,"[173,189,184,219,118,167,294,33,44,189,277,177,185,173,206,66,187,59,253,236]",1.8172,rectangle
,,,,,,,,,,,,,FF,,,,,,,,0.967,,,,,,,,,,,,,,,,,,,,,,6101ed0ef8c205170a3e22cc,61036bbaa53d4131b64c860d,2021-07-29_22h02.48.182,Simcolourproject_2stim_asymm_v5,2020.2.10,MacIntel,60,61025ae37ef11b136ea224fe,,,,,,,,,348,-79.49914551,44.85482788,1,0,0,response7disk,,1,-4.557800293,13.10128784,1,0,0,rectangle,-4.557800293,13.10128784,1,0,0,-4.557800293,13.10128784,1,0,0,1,13,173,81,1,,,,,,,,
,,,,,,,,,,,,,FF,,,,,,,,0.5631,,,,,,,,,,,,,,,,,,,,,,6101ed0ef8c205170a3e22cc,61036bbaa53d4131b64c860d,2021-07-29_22h02.48.182,Simcolourproject_2stim_asymm_v5,2020.2.10,MacIntel,60,61025ae37ef11b136ea224fe,,,,,,,,,4318,52.65045166,106.1963806,1,0,0,response1disk,,7,-16.08422852,-1.56640625,1,0,0,rectangle,-16.08422852,-1.56640625,1,0,0,-16.08422852,-1.56640625,1,0,0,1,14,174,94,1,,,,,,,,
,,,,,,,,,,,,,FF,,,,,,,,0.6508,,,,,,,,,,,,,,,,,,,,,,6101ed0ef8c205170a3e22cc,61036bbaa53d4131b64c860d,2021-07-29_22h02.48.182,Simcolourproject_2stim_asymm_v5,2020.2.10,MacIntel,60,61025ae37ef11b136ea224fe,,,,,,,,,3234,19.50891113,80.83099365,1,0,0,response1disk,,7,4.789001465,1.202575684,1,0,0,rectangle,4.789001465,1.202575684,1,0,0,4.789001465,1.202575684,1,0,0,1,15,175,28,1,,,,,,,,
,,,,,,,,,,,,,FF,,,,,,,,0.6081,,,,,,,,,,,,,,,,,,,,,,6101ed0ef8c205170a3e22cc,61036bbaa53d4131b64c860d,2021-07-29_22h02.48.182,Simcolourproject_2stim_asymm_v5,2020.2.10,MacIntel,60,61025ae37ef11b136ea224fe,,,,,,,,,2643,53.18371582,98.21862793,1,0,0,response1disk,,7,12.06530762,-1.87713623,1,0,0,rectangle,114.1818848,-61.51287842,1,0,0,-9.598754883,-2.662567139,1,0,0,1,16,176,65,1,,response3disk_3,TRUE,5,5,"[173,189,184,219,118,167,294,33,44,189,277,177,185,173,206,66,187,59,253,236]",1.3224,rectangle
,,,,,,,,,,,,,FF,,,,,,,,0.8159,,,,,,,,,,,,,,,,,,,,,,6101ed0ef8c205170a3e22cc,61036bbaa53d4131b64c860d,2021-07-29_22h02.48.182,Simcolourproject_2stim_asymm_v5,2020.2.10,MacIntel,60,61025ae37ef11b136ea224fe,,,,,,,,,533,-67.25891113,39.36602783,1,0,0,response7disk,,1,4.999450684,3.634643555,1,0,0,rectangle,4.999450684,3.634643555,1,0,0,4.999450684,3.634643555,1,0,0,1,17,177,12,1,,,,,,,,
,,,,,,,,,,,,,FF,,,,,,,,0.6333,,,,,,,,,,,,,,,,,,,,,,6101ed0ef8c205170a3e22cc,61036bbaa53d4131b64c860d,2021-07-29_22h02.48.182,Simcolourproject_2stim_asymm_v5,2020.2.10,MacIntel,60,61025ae37ef11b136ea224fe,,,,,,,,,2530,43.06658936,91.32824707,1,0,0,response1disk,,7,11.54864502,-11.25604248,1,0,0,rectangle,11.54864502,-11.25604248,1,0,0,11.54864502,-11.25604248,1,0,0,1,18,178,140,1,,,,,,,,
,,,,,,,,,,,,,FF,,,,,,,,0.6549,,,,,,,,,,,,,,,,,,,,,,6101ed0ef8c205170a3e22cc,61036bbaa53d4131b64c860d,2021-07-29_22h02.48.182,Simcolourproject_2stim_asymm_v5,2020.2.10,MacIntel,60,61025ae37ef11b136ea224fe,,,,,,,,,2397,50.78912354,89.80871582,1,0,0,response1disk,,7,2.466491699,7.146209717,1,0,0,rectangle,2.466491699,7.146209717,1,0,0,2.466491699,7.146209717,1,0,0,1,19,179,137,1,,,,,,,,
,,,,,,,,,,,,,FF,,,,,,,,1.8169,,,,,,,,,,,,,,,,,,,,,,6101ed0ef8c205170a3e22cc,61036bbaa53d4131b64c860d,2021-07-29_22h02.48.182,Simcolourproject_2stim_asymm_v5,2020.2.10,MacIntel,60,61025ae37ef11b136ea224fe,,,,,,,,,3283,42.68682861,-60.05783081,1,0,0,response3disk,,4,10.86303711,0.203155518,1,0,0,rectangle,10.86303711,0.203155518,1,0,0,10.86303711,0.203155518,1,0,0,1,20,180,118,1,,,,,,,,
,,,,,,,,,,,,,FF,,,,,,,,1.0848,,,,,,,,,,,,,,,,,,,,,,6101ed0ef8c205170a3e22cc,61036bbaa53d4131b64c860d,2021-07-29_22h02.48.182,Simcolourproject_2stim_asymm_v5,2020.2.10,MacIntel,60,61025ae37ef11b136ea224fe,,,,,,,,,3259,58.70379639,-61.38165283,1,0,0,response3disk,,4,13.75354004,-4.528991699,1,0,0,rectangle,13.75354004,-4.528991699,1,0,0,13.75354004,-4.528991699,1,0,0,1,21,181,158,1,,,,,,,,
,,,,,,,,,,,,,FF,,,,,,,,0.5714,,,,,,,,,,,,,,,,,,,,,,6101ed0ef8c205170a3e22cc,61036bbaa53d4131b64c860d,2021-07-29_22h02.48.182,Simcolourproject_2stim_asymm_v5,2020.2.10,MacIntel,60,61025ae37ef11b136ea224fe,,,,,,,,,1096,21.04174805,85.78872681,1,0,0,response1disk,,7,2.952941895,0.308227539,1,0,0,rectangle,2.952941895,0.308227539,1,0,0,2.952941895,0.308227539,1,0,0,1,22,182,143,1,,,,,,,,
,,,,,,,,,,,,,FF,,,,,,,,0.8968,,,,,,,,,,,,,,,,,,,,,,6101ed0ef8c205170a3e22cc,61036bbaa53d4131b64c860d,2021-07-29_22h02.48.182,Simcolourproject_2stim_asymm_v5,2020.2.10,MacIntel,60,61025ae37ef11b136ea224fe,,,,,,,,,788,37.89086914,52.41943359,1,0,0,response1disk,,7,8.426757813,4.840454102,1,0,0,rectangle,106.0546265,-40.58892822,1,0,0,16.14135742,-9.143768311,1,0,0,1,23,183,136,1,,response3disk_3,TRUE,5,5,"[173,189,184,219,118,167,294,33,44,189,277,177,185,173,206,66,187,59,253,236]",1.2739,rectangle
,,,,,,,,,,,,,FF,,,,,,,,0.7062,,,,,,,,,,,,,,,,,,,,,,6101ed0ef8c205170a3e22cc,61036bbaa53d4131b64c860d,2021-07-29_22h02.48.182,Simcolourproject_2stim_asymm_v5,2020.2.10,MacIntel,60,61025ae37ef11b136ea224fe,,,,,,,,,3826,39.73553467,77.21405029,1,0,0,response1disk,,7,0.835876465,-4.586364746,1,0,0,rectangle,-42.29217529,-90.41864014,1,0,0,5.28894043,-6.017059326,1,0,0,1,24,184,35,1,,response5disk_3,TRUE,3,3,"[173,189,184,219,118,167,294,33,44,189,277,177,185,173,206,66,187,59,253,236]",1.4845,rectangle
,,,,,,,,,,,,,FF,,,,,,,,1.3332,,,,,,,,,,,,,,,,,,,,,,6101ed0ef8c205170a3e22cc,61036bbaa53d4131b64c860d,2021-07-29_22h02.48.182,Simcolourproject_2stim_asymm_v5,2020.2.10,MacIntel,60,61025ae37ef11b136ea224fe,,,,,,,,,2237,-33.5022583,-79.27642822,1,0,0,response5disk,,3,-2.799987793,0.673583984,1,0,0,rectangle,-2.799987793,0.673583984,1,0,0,-2.799987793,0.673583984,1,0,0,1,25,185,4,1,,,,,,,,
,,,,,,,,,,,,,FF,,,,,,,,0.6625,,,,,,,,,,,,,,,,,,,,,,6101ed0ef8c205170a3e22cc,61036bbaa53d4131b64c860d,2021-07-29_22h02.48.182,Simcolourproject_2stim_asymm_v5,2020.2.10,MacIntel,60,61025ae37ef11b136ea224fe,,,,,,,,,1707,27.71276855,63.46179199,1,0,0,response1disk,,7,-5.592895508,-1.987640381,1,0,0,rectangle,97.99353027,-54.70343018,1,0,0,8.561340332,0.29296875,1,0,0,1,26,186,145,1,,response3disk_3,TRUE,5,5,"[173,189,184,219,118,167,294,33,44,189,277,177,185,173,206,66,187,59,253,236]",1.3504,rectangle
,,,,,,,,,,,,,FF,,,,,,,,0.6765,,,,,,,,,,,,,,,,,,,,,,6101ed0ef8c205170a3e22cc,61036bbaa53d4131b64c860d,2021-07-29_22h02.48.182,Simcolourproject_2stim_asymm_v5,2020.2.10,MacIntel,60,61025ae37ef11b136ea224fe,,,,,,,,,1249,38.46630859,100.4639282,1,0,0,response1disk,,7,0.059570313,-5.166137695,1,0,0,rectangle,0.059570313,-5.166137695,1,0,0,0.059570313,-5.166137695,1,0,0,1,27,187,48,1,,,,,,,,
,,,,,,,,,,,,,FF,,,,,,,,1.4344,,,,,,,,,,,,,,,,,,,,,,6101ed0ef8c205170a3e22cc,61036bbaa53d4131b64c860d,2021-07-29_22h02.48.182,Simcolourproject_2stim_asymm_v5,2020.2.10,MacIntel,60,61025ae37ef11b136ea224fe,,,,,,,,,2738,68.0925293,44.77966309,1,0,0,response1disk,,6,-11.38574219,-4.3465271,1,0,0,rectangle,104.2470703,50.96347046,1,0,0,-2.890258789,-0.386169434,1,0,0,1,28,188,134,1,,response1disk_3,TRUE,6,6,"[173,189,184,219,118,167,294,33,44,189,277,177,185,173,206,66,187,59,253,236]",1.745,rectangle
,,,,,,,,,,,,,FF,,,,,,,,0.8691,,,,,,,,,,,,,,,,,,,,,,6101ed0ef8c205170a3e22cc,61036bbaa53d4131b64c860d,2021-07-29_22h02.48.182,Simcolourproject_2stim_asymm_v5,2020.2.10,MacIntel,60,61025ae37ef11b136ea224fe,,,,,,,,,468,70.18902588,28.46011353,1,0,0,response1disk,,6,-2.179321289,9.26763916,1,0,0,rectangle,-2.179321289,9.26763916,1,0,0,-2.179321289,9.26763916,1,0,0,1,29,189,58,1,,,,,,,,
,,,,,,,,,,,,,FF,,,,,,,,0.8399,,,,,,,,,,,,,,,,,,,,,,6101ed0ef8c205170a3e22cc,61036bbaa53d4131b64c860d,2021-07-29_22h02.48.182,Simcolourproject_2stim_asymm_v5,2020.2.10,MacIntel,60,61025ae37ef11b136ea224fe,,,,,,,,,2531,75.63458252,37.79406738,1,0,0,response1disk,,6,6.564086914,-1.792907715,1,0,0,rectangle,6.564086914,-1.792907715,1,0,0,6.564086914,-1.792907715,1,0,0,1,30,190,77,1,,,,,,,,
,,,,,,,,,,,,,FF,,,,,,,,0.5395,,,,,,,,,,,,,,,,,,,,,,6101ed0ef8c205170a3e22cc,61036bbaa53d4131b64c860d,2021-07-29_22h02.48.182,Simcolourproject_2stim_asymm_v5,2020.2.10,MacIntel,60,61025ae37ef11b136ea224fe,,,,,,,,,2328,31.59301758,92.15365601,1,0,0,response1disk,,7,13.42590332,-9.190795898,1,0,0,rectangle,13.42590332,-9.190795898,1,0,0,13.42590332,-9.190795898,1,0,0,1,31,191,133,1,,,,,,,,
,,,,,,,,,,,,,FF,,,,,,,,1.2174,,,,,,,,,,,,,,,,,,,,,,6101ed0ef8c205170a3e22cc,61036bbaa53d4131b64c860d,2021-07-29_22h02.48.182,Simcolourproject_2stim_asymm_v5,2020.2.10,MacIntel,60,61025ae37ef11b136ea224fe,,,,,,,,,1969,79.96533203,-45.72381592,1,0,0,response3disk,,5,8.717346191,-8.103790283,1,0,0,rectangle,8.717346191,-8.103790283,1,0,0,8.717346191,-8.103790283,1,0,0,1,32,192,74,1,,,,,,,,
,,,,,,,,,,,,,FF,,,,,,,,1.0858,,,,,,,,,,,,,,,,,,,,,,6101ed0ef8c205170a3e22cc,61036bbaa53d4131b64c860d,2021-07-29_22h02.48.182,Simcolourproject_2stim_asymm_v5,2020.2.10,MacIntel,60,61025ae37ef11b136ea224fe,,,,,,,,,1578,85.22802734,22.7640686,1,0,0,response1disk,,6,2.397277832,-5.441650391,1,0,0,rectangle,2.397277832,-5.441650391,1,0,0,2.397277832,-5.441650391,1,0,0,1,33,193,10,1,,,,,,,,
,,,,,,,,,,,,,FF,,,,,,,,0.6222,,,,,,,,,,,,,,,,,,,,,,6101ed0ef8c205170a3e22cc,61036bbaa53d4131b64c860d,2021-07-29_22h02.48.182,Simcolourproject_2stim_asymm_v5,2020.2.10,MacIntel,60,61025ae37ef11b136ea224fe,,,,,,,,,2118,55.99078369,90.2281189,1,0,0,response1disk,,7,16.78759766,14.96459961,1,0,0,rectangle,16.78759766,14.96459961,1,0,0,16.78759766,14.96459961,1,0,0,1,34,194,159,1,,,,,,,,
,,,,,,,,,,,,,FF,,,,,,,,0.8511,,,,,,,,,,,,,,,,,,,,,,6101ed0ef8c205170a3e22cc,61036bbaa53d4131b64c860d,2021-07-29_22h02.48.182,Simcolourproject_2stim_asymm_v5,2020.2.10,MacIntel,60,61025ae37ef11b136ea224fe,,,,,,,,,2412,40.11816406,87.82861328,1,0,0,response1disk,,7,3.026733398,9.802185059,1,0,0,rectangle,3.026733398,9.802185059,1,0,0,3.026733398,9.802185059,1,0,0,1,35,195,23,1,,,,,,,,
,,,,,,,,,,,,,FF,,,,,,,,0.5028,,,,,,,,,,,,,,,,,,,,,,6101ed0ef8c205170a3e22cc,61036bbaa53d4131b64c860d,2021-07-29_22h02.48.182,Simcolourproject_2stim_asymm_v5,2020.2.10,MacIntel,60,61025ae37ef11b136ea224fe,,,,,,,,,3351,33.59985352,99.6232605,1,0,0,response1disk,,7,1.759521484,9.290283203,1,0,0,rectangle,1.759521484,9.290283203,1,0,0,1.759521484,9.290283203,1,0,0,1,36,196,142,1,,,,,,,,
,,,,,,,,,,,,,FF,,,,,,,,0.534,,,,,,,,,,,,,,,,,,,,,,6101ed0ef8c205170a3e22cc,61036bbaa53d4131b64c860d,2021-07-29_22h02.48.182,Simcolourproject_2stim_asymm_v5,2020.2.10,MacIntel,60,61025ae37ef11b136ea224fe,,,,,,,,,3454,52.94976807,104.5601196,1,0,0,response1disk,,7,2.101196289,1.629089355,1,0,0,rectangle,2.101196289,1.629089355,1,0,0,2.101196289,1.629089355,1,0,0,1,37,197,131,1,,,,,,,,
,,,,,,,,,,,,,FF,,,,,,,,1.0995,,,,,,,,,,,,,,,,,,,,,,6101ed0ef8c205170a3e22cc,61036bbaa53d4131b64c860d,2021-07-29_22h02.48.182,Simcolourproject_2stim_asymm_v5,2020.2.10,MacIntel,60,61025ae37ef11b136ea224fe,,,,,,,,,950,78.68951416,49.10473633,1,0,0,response1disk,,6,15.75274658,7.786132813,1,0,0,rectangle,15.75274658,7.786132813,1,0,0,15.75274658,7.786132813,1,0,0,1,38,198,106,1,,,,,,,,
,,,,,,,,,,,,,FF,,,,,,,,0.5181,,,,,,,,,,,,,,,,,,,,,,6101ed0ef8c205170a3e22cc,61036bbaa53d4131b64c860d,2021-07-29_22h02.48.182,Simcolourproject_2stim_asymm_v5,2020.2.10,MacIntel,60,61025ae37ef11b136ea224fe,,,,,,,,,2045,46.86016846,92.04354858,1,0,0,response1disk,,7,8.266967773,-17.7795105,1,0,0,rectangle,8.266967773,-17.7795105,1,0,0,8.266967773,-17.7795105,1,0,0,1,39,199,55,1,,,,,,,,
,,,,,,,,,,,,,FF,,,,,,,,0.9849,,,,,,,,,,,,,,,,,,,,,,6101ed0ef8c205170a3e22cc,61036bbaa53d4131b64c860d,2021-07-29_22h02.48.182,Simcolourproject_2stim_asymm_v5,2020.2.10,MacIntel,60,61025ae37ef11b136ea224fe,,,,,,,,,4329,33.05535889,87.80297852,1,0,0,response1disk,,7,-13.19775391,-5.045227051,1,0,0,rectangle,-13.19775391,-5.045227051,1,0,0,-13.19775391,-5.045227051,1,0,0,1,40,200,87,1,,,,,,,,
,,,,,,,,,,,,,FF,,,,,,,,0.5507,,,,,,,,,,,,,,,,,,,,,,6101ed0ef8c205170a3e22cc,61036bbaa53d4131b64c860d,2021-07-29_22h02.48.182,Simcolourproject_2stim_asymm_v5,2020.2.10,MacIntel,60,61025ae37ef11b136ea224fe,,,,,,,,,3532,25.1416626,92.89077759,1,0,0,response1disk,,7,3.540222168,4.608337402,1,0,0,rectangle,3.540222168,4.608337402,1,0,0,3.540222168,4.608337402,1,0,0,1,41,201,127,1,,,,,,,,
,,,,,,,,,,,,,FF,,,,,,,,1.0831,,,,,,,,,,,,,,,,,,,,,,6101ed0ef8c205170a3e22cc,61036bbaa53d4131b64c860d,2021-07-29_22h02.48.182,Simcolourproject_2stim_asymm_v5,2020.2.10,MacIntel,60,61025ae37ef11b136ea224fe,,,,,,,,,4240,99.14520264,22.85339355,1,0,0,response1disk,,6,-11.78417969,2.828338623,1,0,0,rectangle,-11.78417969,2.828338623,1,0,0,-11.78417969,2.828338623,1,0,0,1,42,202,141,1,,,,,,,,
,,,,,,,,,,,,,FF,,,,,,,,0.4886,,,,,,,,,,,,,,,,,,,,,,6101ed0ef8c205170a3e22cc,61036bbaa53d4131b64c860d,2021-07-29_22h02.48.182,Simcolourproject_2stim_asymm_v5,2020.2.10,MacIntel,60,61025ae37ef11b136ea224fe,,,,,,,,,1850,18.22277832,114.0756836,1,0,0,response1disk,,7,-16.40484619,-4.840026855,1,0,0,rectangle,-16.40484619,-4.840026855,1,0,0,-16.40484619,-4.840026855,1,0,0,1,43,203,82,1,,,,,,,,
,,,,,,,,,,,,,FF,,,,,,,,1.3146,,,,,,,,,,,,,,,,,,,,,,6101ed0ef8c205170a3e22cc,61036bbaa53d4131b64c860d,2021-07-29_22h02.48.182,Simcolourproject_2stim_asymm_v5,2020.2.10,MacIntel,60,61025ae37ef11b136ea224fe,,,,,,,,,3373,37.8548584,-69.49542236,1,0,0,response3disk,,4,16.56610107,9.617675781,1,0,0,rectangle,16.56610107,9.617675781,1,0,0,16.56610107,9.617675781,1,0,0,1,44,204,126,1,,,,,,,,
,,,,,,,,,,,,,FF,,,,,,,,0.967,,,,,,,,,,,,,,,,,,,,,,6101ed0ef8c205170a3e22cc,61036bbaa53d4131b64c860d,2021-07-29_22h02.48.182,Simcolourproject_2stim_asymm_v5,2020.2.10,MacIntel,60,61025ae37ef11b136ea224fe,,,,,,,,,895,78.51464844,-49.81564331,1,0,0,response3disk,,5,-5.08581543,-10.66577148,1,0,0,rectangle,55.28930664,93.86462402,1,0,0,2.185546875,-12.3347168,1,0,0,1,45,205,129,1,,response1disk_3,TRUE,7,7,"[173,189,184,219,118,167,294,33,44,189,277,177,185,173,206,66,187,59,253,236]",1.3191,rectangle
,,,,,,,,,,,,,FF,,,,,,,,0.5937,,,,,,,,,,,,,,,,,,,,,,6101ed0ef8c205170a3e22cc,61036bbaa53d4131b64c860d,2021-07-29_22h02.48.182,Simcolourproject_2stim_asymm_v5,2020.2.10,MacIntel,60,61025ae37ef11b136ea224fe,,,,,,,,,2002,34.63977051,106.4883423,1,0,0,response1disk,,7,-3.074768066,8.435028076,1,0,0,rectangle,-3.074768066,8.435028076,1,0,0,-3.074768066,8.435028076,1,0,0,1,46,206,7,1,,,,,,,,
,,,,,,,,,,,,,FF,,,,,,,,1.1019,,,,,,,,,,,,,,,,,,,,,,6101ed0ef8c205170a3e22cc,61036bbaa53d4131b64c860d,2021-07-29_22h02.48.182,Simcolourproject_2stim_asymm_v5,2020.2.10,MacIntel,60,61025ae37ef11b136ea224fe,,,,,,,,,4254,22.90759277,-55.78152466,1,0,0,response3disk,,4,18.32470703,-0.018676758,1,0,0,rectangle,18.32470703,-0.018676758,1,0,0,18.32470703,-0.018676758,1,0,0,1,47,207,33,1,,,,,,,,
,,,,,,,,,,,,,FF,,,,,,,,0.5949,,,,,,,,,,,,,,,,,,,,,,6101ed0ef8c205170a3e22cc,61036bbaa53d4131b64c860d,2021-07-29_22h02.48.182,Simcolourproject_2stim_asymm_v5,2020.2.10,MacIntel,60,61025ae37ef11b136ea224fe,,,,,,,,,1252,61.71459961,105.5780029,1,0,0,response1disk,,7,13.18713379,9.458068848,1,0,0,rectangle,13.18713379,9.458068848,1,0,0,13.18713379,9.458068848,1,0,0,1,48,208,130,1,,,,,,,,
,,,,,,,,,,,,,FF,,,,,,,,0.7843,,,,,,,,,,,,,,,,,,,,,,6101ed0ef8c205170a3e22cc,61036bbaa53d4131b64c860d,2021-07-29_22h02.48.182,Simcolourproject_2stim_asymm_v5,2020.2.10,MacIntel,60,61025ae37ef11b136ea224fe,,,,,,,,,3591,-40.35742188,81.77584839,1,0,0,response7disk,,0,-4.860168457,9.552581787,1,0,0,rectangle,-4.860168457,9.552581787,1,0,0,-4.860168457,9.552581787,1,0,0,1,49,209,90,1,,,,,,,,
,,,,,,,,,,,,,FF,,,,,,,,0.6458,,,,,,,,,,,,,,,,,,,,,,6101ed0ef8c205170a3e22cc,61036bbaa53d4131b64c860d,2021-07-29_22h02.48.182,Simcolourproject_2stim_asymm_v5,2020.2.10,MacIntel,60,61025ae37ef11b136ea224fe,,,,,,,,,115,51.96679688,101.4267883,1,0,0,response1disk,,7,-12.59204102,2.896911621,1,0,0,rectangle,-12.59204102,2.896911621,1,0,0,-12.59204102,2.896911621,1,0,0,1,50,210,125,1,,,,,,,,
,,,,,,,,,,,,,FF,,,,,,,,1.5201,,,,,,,,,,,,,,,,,,,,,,6101ed0ef8c205170a3e22cc,61036bbaa53d4131b64c860d,2021-07-29_22h02.48.182,Simcolourproject_2stim_asymm_v5,2020.2.10,MacIntel,60,61025ae37ef11b136ea224fe,,,,,,,,,1960,-34.91723633,-44.15420532,1,0,0,response5disk,,3,-2.532836914,5.79675293,1,0,0,rectangle,-2.532836914,5.79675293,1,0,0,-2.532836914,5.79675293,1,0,0,1,51,211,79,1,,,,,,,,
,,,,,,,,,,,,,FF,,,,,,,,1.7344,,,,,,,,,,,,,,,,,,,,,,6101ed0ef8c205170a3e22cc,61036bbaa53d4131b64c860d,2021-07-29_22h02.48.182,Simcolourproject_2stim_asymm_v5,2020.2.10,MacIntel,60,61025ae37ef11b136ea224fe,,,,,,,,,81,35.05334473,-54.95483398,1,0,0,response3disk,,4,7.207214355,10.54980469,1,0,0,rectangle,7.207214355,10.54980469,1,0,0,7.207214355,10.54980469,1,0,0,1,52,212,63,1,,,,,,,,
,,,,,,,,,,,,,FF,,,,,,,,0.7182,,,,,,,,,,,,,,,,,,,,,,6101ed0ef8c205170a3e22cc,61036bbaa53d4131b64c860d,2021-07-29_22h02.48.182,Simcolourproject_2stim_asymm_v5,2020.2.10,MacIntel,60,61025ae37ef11b136ea224fe,,,,,,,,,3025,35.89453125,91.38024902,1,0,0,response1disk,,7,5.05847168,1.479919434,1,0,0,rectangle,5.05847168,1.479919434,1,0,0,5.05847168,1.479919434,1,0,0,1,53,213,2,1,,,,,,,,
,,,,,,,,,,,,,FF,,,,,,,,0.7255,,,,,,,,,,,,,,,,,,,,,,6101ed0ef8c205170a3e22cc,61036bbaa53d4131b64c860d,2021-07-29_22h02.48.182,Simcolourproject_2stim_asymm_v5,2020.2.10,MacIntel,60,61025ae37ef11b136ea224fe,,,,,,,,,1076,26.67626953,94.02896118,1,0,0,response1disk,,7,-12.28668213,-10.46966553,1,0,0,rectangle,-12.28668213,-10.46966553,1,0,0,-12.28668213,-10.46966553,1,0,0,1,54,214,105,1,,,,,,,,
,,,,,,,,,,,,,FF,,,,,,,,0.6433,,,,,,,,,,,,,,,,,,,,,,6101ed0ef8c205170a3e22cc,61036bbaa53d4131b64c860d,2021-07-29_22h02.48.182,Simcolourproject_2stim_asymm_v5,2020.2.10,MacIntel,60,61025ae37ef11b136ea224fe,,,,,,,,,57,36.97601318,84.12194824,1,0,0,response1disk,,7,-3.229614258,1.800964355,1,0,0,rectangle,-3.229614258,1.800964355,1,0,0,-3.229614258,1.800964355,1,0,0,1,55,215,29,1,,,,,,,,
,,,,,,,,,,,,,FF,,,,,,,,0.8492,,,,,,,,,,,,,,,,,,,,,,6101ed0ef8c205170a3e22cc,61036bbaa53d4131b64c860d,2021-07-29_22h02.48.182,Simcolourproject_2stim_asymm_v5,2020.2.10,MacIntel,60,61025ae37ef11b136ea224fe,,,,,,,,,1285,49.32781982,103.6878052,1,0,0,response1disk,,7,2.629272461,-1.305450439,1,0,0,rectangle,2.629272461,-1.305450439,1,0,0,2.629272461,-1.305450439,1,0,0,1,56,216,71,1,,,,,,,,
,,,,,,,,,,,,,FF,,,,,,,,0.6143,,,,,,,,,,,,,,,,,,,,,,6101ed0ef8c205170a3e22cc,61036bbaa53d4131b64c860d,2021-07-29_22h02.48.182,Simcolourproject_2stim_asymm_v5,2020.2.10,MacIntel,60,61025ae37ef11b136ea224fe,,,,,,,,,3185,57.60681152,114.7202148,1,0,0,response1disk,,7,3.439086914,-10.6987915,1,0,0,rectangle,3.439086914,-10.6987915,1,0,0,3.439086914,-10.6987915,1,0,0,1,57,217,14,1,,,,,,,,
,,,,,,,,,,,,,FF,,,,,,,,0.6024,,,,,,,,,,,,,,,,,,,,,,6101ed0ef8c205170a3e22cc,61036bbaa53d4131b64c860d,2021-07-29_22h02.48.182,Simcolourproject_2stim_asymm_v5,2020.2.10,MacIntel,60,61025ae37ef11b136ea224fe,,,,,,,,,948,51.27331543,99.44714355,1,0,0,response1disk,,7,1.126953125,-3.151367188,1,0,0,rectangle,-55.16204834,-99.38165283,1,0,0,0.892089844,2.340393066,1,0,0,1,58,218,93,1,,response5disk_3,TRUE,3,3,"[173,189,184,219,118,167,294,33,44,189,277,177,185,173,206,66,187,59,253,236]",1.5159,rectangle
,,,,,,,,,,,,,FF,,,,,,,,0.656,,,,,,,,,,,,,,,,,,,,,,6101ed0ef8c205170a3e22cc,61036bbaa53d4131b64c860d,2021-07-29_22h02.48.182,Simcolourproject_2stim_asymm_v5,2020.2.10,MacIntel,60,61025ae37ef11b136ea224fe,,,,,,,,,4173,42.9765625,99.5612793,1,0,0,response1disk,,7,1.0625,0.504211426,1,0,0,rectangle,1.0625,0.504211426,1,0,0,1.0625,0.504211426,1,0,0,1,59,219,60,1,,,,,,,,
,,,,,,,,,,,,,FF,,,,,,,,0.5673,,,,,,,,,,,,,,,,,,,,,,6101ed0ef8c205170a3e22cc,61036bbaa53d4131b64c860d,2021-07-29_22h02.48.182,Simcolourproject_2stim_asymm_v5,2020.2.10,MacIntel,60,61025ae37ef11b136ea224fe,,,,,,,,,1544,37.76818848,109.580658,1,0,0,response1disk,,7,3.120117188,0.997009277,1,0,0,rectangle,3.120117188,0.997009277,1,0,0,3.120117188,0.997009277,1,0,0,1,60,220,37,1,,,,,,,,
,,,,,,,,,,,,,FF,,,,,,,,0.7006,,,,,,,,,,,,,,,,,,,,,,6101ed0ef8c205170a3e22cc,61036bbaa53d4131b64c860d,2021-07-29_22h02.48.182,Simcolourproject_2stim_asymm_v5,2020.2.10,MacIntel,60,61025ae37ef11b136ea224fe,,,,,,,,,4266,-44.20922852,75.43731689,1,0,0,response7disk,,0,0.684631348,16.81008911,1,0,0,rectangle,0.684631348,16.81008911,1,0,0,0.684631348,16.81008911,1,0,0,1,61,221,91,1,,,,,,,,
,,,,,,,,,,,,,FF,,,,,,,,0.4838,,,,,,,,,,,,,,,,,,,,,,6101ed0ef8c205170a3e22cc,61036bbaa53d4131b64c860d,2021-07-29_22h02.48.182,Simcolourproject_2stim_asymm_v5,2020.2.10,MacIntel,60,61025ae37ef11b136ea224fe,,,,,,,,,365,49.52392578,100.7907715,1,0,0,response1disk,,7,6.843994141,11.2401123,1,0,0,rectangle,6.843994141,11.2401123,1,0,0,6.843994141,11.2401123,1,0,0,1,62,222,16,1,,,,,,,,
,,,,,,,,,,,,,FF,,,,,,,,1.2838,,,,,,,,,,,,,,,,,,,,,,6101ed0ef8c205170a3e22cc,61036bbaa53d4131b64c860d,2021-07-29_22h02.48.182,Simcolourproject_2stim_asymm_v5,2020.2.10,MacIntel,60,61025ae37ef11b136ea224fe,,,,,,,,,982,41.33886719,-20.956604,1,0,0,response3disk,,5,-3.900085449,1.212463379,1,0,0,rectangle,-3.900085449,1.212463379,1,0,0,-3.900085449,1.212463379,1,0,0,1,63,223,53,1,,,,,,,,
,,,,,,,,,,,,,FF,,,,,,,,0.6667,,,,,,,,,,,,,,,,,,,,,,6101ed0ef8c205170a3e22cc,61036bbaa53d4131b64c860d,2021-07-29_22h02.48.182,Simcolourproject_2stim_asymm_v5,2020.2.10,MacIntel,60,61025ae37ef11b136ea224fe,,,,,,,,,2941,-31.96508789,83.65802002,1,0,0,response7disk,,0,7.006652832,0.559295654,1,0,0,rectangle,7.006652832,0.559295654,1,0,0,7.006652832,0.559295654,1,0,0,1,64,224,38,1,,,,,,,,
,,,,,,,,,,,,,FF,,,,,,,,1.2508,,,,,,,,,,,,,,,,,,,,,,6101ed0ef8c205170a3e22cc,61036bbaa53d4131b64c860d,2021-07-29_22h02.48.182,Simcolourproject_2stim_asymm_v5,2020.2.10,MacIntel,60,61025ae37ef11b136ea224fe,,,,,,,,,1230,40.94732666,-61.51147461,1,0,0,response3disk,,4,20.80627441,17.72277832,1,0,0,rectangle,20.80627441,17.72277832,1,0,0,20.80627441,17.72277832,1,0,0,1,65,225,113,1,,,,,,,,
,,,,,,,,,,,,,FF,,,,,,,,4.8723,,,,,,,,,,,,,,,,,,,,,,6101ed0ef8c205170a3e22cc,61036bbaa53d4131b64c860d,2021-07-29_22h02.48.182,Simcolourproject_2stim_asymm_v5,2020.2.10,MacIntel,60,61025ae37ef11b136ea224fe,,,,,,,,,2620,25.94140625,69.96664429,1,0,0,response1disk,,7,-6.689697266,-6.656524658,1,0,0,rectangle,-6.689697266,-6.656524658,1,0,0,-6.689697266,-6.656524658,1,0,0,1,66,226,116,1,,,,,,,,
,,,,,,,,,,,,,FF,,,,,,,,2.4493,,,,,,,,,,,,,,,,,,,,,,6101ed0ef8c205170a3e22cc,61036bbaa53d4131b64c860d,2021-07-29_22h02.48.182,Simcolourproject_2stim_asymm_v5,2020.2.10,MacIntel,60,61025ae37ef11b136ea224fe,,,,,,,,,2677,102.2670898,47.31585693,1,0,0,response1disk,,6,9.632629395,8.251831055,1,0,0,rectangle,9.632629395,8.251831055,1,0,0,9.632629395,8.251831055,1,0,0,1,67,227,138,1,,,,,,,,
,,,,,,,,,,,,,FF,,,,,,,,0.5857,,,,,,,,,,,,,,,,,,,,,,6101ed0ef8c205170a3e22cc,61036bbaa53d4131b64c860d,2021-07-29_22h02.48.182,Simcolourproject_2stim_asymm_v5,2020.2.10,MacIntel,60,61025ae37ef11b136ea224fe,,,,,,,,,682,32.27191162,84.79888916,1,0,0,response1disk,,7,7.282043457,3.550872803,1,0,0,rectangle,7.282043457,3.550872803,1,0,0,7.282043457,3.550872803,1,0,0,1,68,228,85,1,,,,,,,,
,,,,,,,,,,,,,FF,,,,,,,,0.935,,,,,,,,,,,,,,,,,,,,,,6101ed0ef8c205170a3e22cc,61036bbaa53d4131b64c860d,2021-07-29_22h02.48.182,Simcolourproject_2stim_asymm_v5,2020.2.10,MacIntel,60,61025ae37ef11b136ea224fe,,,,,,,,,4342,37.02838135,89.91619873,1,0,0,response1disk,,7,-7.852905273,-9.164733887,1,0,0,rectangle,-7.852905273,-9.164733887,1,0,0,-7.852905273,-9.164733887,1,0,0,1,69,229,27,1,,,,,,,,
,,,,,,,,,,,,,FF,,,,,,,,0.4697,,,,,,,,,,,,,,,,,,,,,,6101ed0ef8c205170a3e22cc,61036bbaa53d4131b64c860d,2021-07-29_22h02.48.182,Simcolourproject_2stim_asymm_v5,2020.2.10,MacIntel,60,61025ae37ef11b136ea224fe,,,,,,,,,1083,31.21264648,102.4959717,1,0,0,response1disk,,7,12.4465332,9.712463379,1,0,0,rectangle,12.4465332,9.712463379,1,0,0,12.4465332,9.712463379,1,0,0,1,70,230,147,1,,,,,,,,
,,,,,,,,,,,,,FF,,,,,,,,0.52,,,,,,,,,,,,,,,,,,,,,,6101ed0ef8c205170a3e22cc,61036bbaa53d4131b64c860d,2021-07-29_22h02.48.182,Simcolourproject_2stim_asymm_v5,2020.2.10,MacIntel,60,61025ae37ef11b136ea224fe,,,,,,,,,2582,43.31982422,104.8560791,1,0,0,response1disk,,7,13.12164307,16.83508301,1,0,0,rectangle,13.12164307,16.83508301,1,0,0,13.12164307,16.83508301,1,0,0,1,71,231,19,1,,,,,,,,
,,,,,,,,,,,,,FF,,,,,,,,0.4834,,,,,,,,,,,,,,,,,,,,,,6101ed0ef8c205170a3e22cc,61036bbaa53d4131b64c860d,2021-07-29_22h02.48.182,Simcolourproject_2stim_asymm_v5,2020.2.10,MacIntel,60,61025ae37ef11b136ea224fe,,,,,,,,,1264,34.00384521,77.82995605,1,0,0,response1disk,,7,12.01043701,-0.561096191,1,0,0,rectangle,12.01043701,-0.561096191,1,0,0,12.01043701,-0.561096191,1,0,0,1,72,232,88,1,,,,,,,,
,,,,,,,,,,,,,FF,,,,,,,,0.4183,,,,,,,,,,,,,,,,,,,,,,6101ed0ef8c205170a3e22cc,61036bbaa53d4131b64c860d,2021-07-29_22h02.48.182,Simcolourproject_2stim_asymm_v5,2020.2.10,MacIntel,60,61025ae37ef11b136ea224fe,,,,,,,,,2417,43.4710083,56.65118408,1,0,0,response1disk,,7,-0.737121582,-6.979003906,1,0,0,rectangle,-0.737121582,-6.979003906,1,0,0,-0.737121582,-6.979003906,1,0,0,1,73,233,115,1,,,,,,,,
,,,,,,,,,,,,,FF,,,,,,,,1.2003,,,,,,,,,,,,,,,,,,,,,,6101ed0ef8c205170a3e22cc,61036bbaa53d4131b64c860d,2021-07-29_22h02.48.182,Simcolourproject_2stim_asymm_v5,2020.2.10,MacIntel,60,61025ae37ef11b136ea224fe,,,,,,,,,1737,70.86352539,37.42492676,1,0,0,response1disk,,6,6.327758789,-1.500244141,1,0,0,rectangle,6.327758789,-1.500244141,1,0,0,6.327758789,-1.500244141,1,0,0,1,74,234,13,1,,,,,,,,
,,,,,,,,,,,,,FF,,,,,,,,0.5004,,,,,,,,,,,,,,,,,,,,,,6101ed0ef8c205170a3e22cc,61036bbaa53d4131b64c860d,2021-07-29_22h02.48.182,Simcolourproject_2stim_asymm_v5,2020.2.10,MacIntel,60,61025ae37ef11b136ea224fe,,,,,,,,,2553,44.15081787,103.5636597,1,0,0,response1disk,,7,12.76391602,14.54962158,1,0,0,rectangle,-85.41204834,58.12338257,1,0,0,-1.176452637,2.866729736,1,0,0,1,75,235,109,1,,response7disk_3,TRUE,1,1,"[173,189,184,219,118,167,294,33,44,189,277,177,185,173,206,66,187,59,253,236]",1.6658,rectangle
,,,,,,,,,,,,,FF,,,,,,,,0.9996,,,,,,,,,,,,,,,,,,,,,,6101ed0ef8c205170a3e22cc,61036bbaa53d4131b64c860d,2021-07-29_22h02.48.182,Simcolourproject_2stim_asymm_v5,2020.2.10,MacIntel,60,61025ae37ef11b136ea224fe,,,,,,,,,3470,-66.70977783,24.73132324,1,0,0,response7disk,,1,1.776184082,-5.89654541,1,0,0,rectangle,1.776184082,-5.89654541,1,0,0,1.776184082,-5.89654541,1,0,0,1,76,236,41,1,,,,,,,,
,,,,,,,,,,,,,FF,,,,,,,,0.7191,,,,,,,,,,,,,,,,,,,,,,6101ed0ef8c205170a3e22cc,61036bbaa53d4131b64c860d,2021-07-29_22h02.48.182,Simcolourproject_2stim_asymm_v5,2020.2.10,MacIntel,60,61025ae37ef11b136ea224fe,,,,,,,,,378,59.54907227,92.73233032,1,0,0,response1disk,,7,10.55963135,2.553100586,1,0,0,rectangle,10.55963135,2.553100586,1,0,0,10.55963135,2.553100586,1,0,0,1,77,237,34,1,,,,,,,,
,,,,,,,,,,,,,FF,,,,,,,,0.4835,,,,,,,,,,,,,,,,,,,,,,6101ed0ef8c205170a3e22cc,61036bbaa53d4131b64c860d,2021-07-29_22h02.48.182,Simcolourproject_2stim_asymm_v5,2020.2.10,MacIntel,60,61025ae37ef11b136ea224fe,,,,,,,,,579,43.67645264,88.11682129,1,0,0,response1disk,,7,10.91888428,5.145507813,1,0,0,rectangle,10.91888428,5.145507813,1,0,0,10.91888428,5.145507813,1,0,0,1,78,238,31,1,,,,,,,,
,,,,,,,,,,,,,FF,,,,,,,,0.4674,,,,,,,,,,,,,,,,,,,,,,6101ed0ef8c205170a3e22cc,61036bbaa53d4131b64c860d,2021-07-29_22h02.48.182,Simcolourproject_2stim_asymm_v5,2020.2.10,MacIntel,60,61025ae37ef11b136ea224fe,,,,,,,,,3529,42.52124023,84.11956787,1,0,0,response1disk,,7,1.943847656,2.471740723,1,0,0,rectangle,1.943847656,2.471740723,1,0,0,1.943847656,2.471740723,1,0,0,1,79,239,104,1,,,,,,,,
,,,,,,,,,,,,,FF,,,,,,,,0.6059,,,,,,,,,,,,,,,,,,,,,,6101ed0ef8c205170a3e22cc,61036bbaa53d4131b64c860d,2021-07-29_22h02.48.182,Simcolourproject_2stim_asymm_v5,2020.2.10,MacIntel,60,61025ae37ef11b136ea224fe,,,,,,,,,778,50.48175049,115.2105103,1,0,0,response1disk,,7,8.397338867,7.10446167,1,0,0,rectangle,8.397338867,7.10446167,1,0,0,8.397338867,7.10446167,1,0,0,1,80,240,121,1,,,,,,,,
,,,,,,,,,,,,,FF,,,,,,,,0.6807,,,,,,,,,,,,,,,,,,,,,,6101ed0ef8c205170a3e22cc,61036bbaa53d4131b64c860d,2021-07-29_22h02.48.182,Simcolourproject_2stim_asymm_v5,2020.2.10,MacIntel,60,61025ae37ef11b136ea224fe,,,,,,,,,3309,57.94299316,128.505127,1,0,0,response1disk,,7,-1.006347656,5.328491211,1,0,0,rectangle,-1.006347656,5.328491211,1,0,0,-1.006347656,5.328491211,1,0,0,1,81,241,50,1,,,,,,,,
