key_resp.keys,key_resp.rt,key_resp_14.keys,key_resp_14.rt,key_resp_15.keys,key_resp_15.rt,key_resp_17.keys,key_resp_17.rt,key_resp_9.keys,key_resp_9.rt,key_resp_10.keys,key_resp_10.rt,practice_comparison,Ecc,mouse_5.x,mouse_5.y,mouse_5.leftButton,mouse_5.midButton,mouse_5.rightButton,mouse_5.clicked_name,pracsimilarity,response_time,mouse_10.x,mouse_10.y,mouse_10.leftButton,mouse_10.midButton,mouse_10.rightButton,mouse_10.clicked_name,mouse_7.x,mouse_7.y,mouse_7.leftButton,mouse_7.midButton,mouse_7.rightButton,mouse_6.x,mouse_6.y,mouse_6.leftButton,mouse_6.midButton,mouse_6.rightButton,duringprac.thisRepN,duringprac.thisTrialN,duringprac.thisN,duringprac.thisIndex,duringprac.ran,participant,session,date,expName,psychopyVersion,OS,frameRate,study_id,mouse_7.clicked_name,catchpracsimilarity,catch_response_time,catchnumberprac,catchtrialorderprac,mouse_6.clicked_name,key_resp_22.keys,key_resp_22.rt,realcomparison,mouse.x,mouse.y,mouse.leftButton,mouse.midButton,mouse.rightButton,mouse.clicked_name,Colour2,similarity,mouse_2.x,mouse_2.y,mouse_2.leftButton,mouse_2.midButton,mouse_2.rightButton,mouse_2.clicked_name,mouse_3.x,mouse_3.y,mouse_3.leftButton,mouse_3.midButton,mouse_3.rightButton,mouse_11.x,mouse_11.y,mouse_11.leftButton,mouse_11.midButton,mouse_11.rightButton,trials_2.thisRepN,trials_2.thisTrialN,trials_2.thisN,trials_2.thisIndex,trials_2.ran,Colour1,mouse_3.clicked_name,catchornah,catchsimilarity,catchnumber,catchtrialorder,catchRT,mouse_11.clicked_name
space,2.0013,space,32.1788,space,47.2941,space,15.7623,space,3.8116,space,6.6026,147,PF,-59.99998945,-99.20000792,1,0,0,response5disk_5,3,9.2502,4.000011504,7.999993682,1,0,0,rectangle_8,4.000011504,7.999993682,1,0,0,4.000011504,7.999993682,1,0,0,0,0,0,4,1,6101cecdcad088615357832c,61036e79f7839d9d6cf59057,2021-07-29_22h16.11.011,Simcolourproject_2stim_asymm_v5,2020.2.10,Win32,60,61025ae37ef11b136ea224fe,,,,,,,,,,,,,,,,,,,,,,,,,,,,,,,,,,,,,,,,,,,,,,
,,,,,,,,,,,,2,PF,-43.1999892,-59.20000732,1,0,0,response5disk_5,3,4.1793,-3.199988604,-4.000006497,1,0,0,rectangle_8,-31.99998903,76.79999471,1,0,0,-1.59998858,-6.400006533,1,0,0,0,1,1,6,1,6101cecdcad088615357832c,61036e79f7839d9d6cf59057,2021-07-29_22h16.11.011,Simcolourproject_2stim_asymm_v5,2020.2.10,Win32,60,61025ae37ef11b136ea224fe,response7disk_7,0,3.8879,0,"[2,5]",rectangle_4,,,,,,,,,,,,,,,,,,,,,,,,,,,,,,,,,,,,,,,,
,,,,,,,,,,,,0,PF,65.60001242,84.79999483,1,0,0,response1disk_5,7,2.8833,12.00001162,-1.600006461,1,0,0,rectangle_8,12.00001162,-1.600006461,1,0,0,12.00001162,-1.600006461,1,0,0,0,2,2,2,1,6101cecdcad088615357832c,61036e79f7839d9d6cf59057,2021-07-29_22h16.11.011,Simcolourproject_2stim_asymm_v5,2020.2.10,Win32,60,61025ae37ef11b136ea224fe,,,,,,,,,,,,,,,,,,,,,,,,,,,,,,,,,,,,,,,,,,,,,,
,,,,,,,,,,,,41,FF,84.0000127,-62.40000737,1,0,0,response3disk_5,5,5.2153,0.800011456,-4.800006509,1,0,0,rectangle_8,0.800011456,-4.800006509,1,0,0,0.800011456,-4.800006509,1,0,0,0,3,3,3,1,6101cecdcad088615357832c,61036e79f7839d9d6cf59057,2021-07-29_22h16.11.011,Simcolourproject_2stim_asymm_v5,2020.2.10,Win32,60,61025ae37ef11b136ea224fe,,,,,,,,,,,,,,,,,,,,,,,,,,,,,,,,,,,,,,,,,,,,,,
,,,,,,,,,,,,127,PF,72.00001252,37.59999412,1,0,0,response1disk_5,6,3.8325,21.60006059,-2.400006473,1,0,0,rectangle_8,-27.19998896,62.39999449,1,0,0,-2.399939764,-5.600006521,1,0,0,0,4,4,1,1,6101cecdcad088615357832c,61036e79f7839d9d6cf59057,2021-07-29_22h16.11.011,Simcolourproject_2stim_asymm_v5,2020.2.10,Win32,60,61025ae37ef11b136ea224fe,response7disk_7,0,3.0655,0,"[2,5]",rectangle_4,,,,,,,,,,,,,,,,,,,,,,,,,,,,,,,,,,,,,,,,
,,,,,,,,,,,,51,FF,-67.19998956,-48.00000715,1,0,0,response5disk_5,2,2.4994,8.800011575,-9.60000658,1,0,0,rectangle_8,8.800011575,-9.60000658,1,0,0,8.800011575,-9.60000658,1,0,0,0,5,5,0,1,6101cecdcad088615357832c,61036e79f7839d9d6cf59057,2021-07-29_22h16.11.011,Simcolourproject_2stim_asymm_v5,2020.2.10,Win32,60,61025ae37ef11b136ea224fe,,,,,,,,,,,,,,,,,,,,,,,,,,,,,,,,,,,,,,,,,,,,,,
,,,,,,,,,,,,116,FF,-37.59998912,-93.60005666,1,0,0,response5disk_5,3,4.4323,3.200011492,-5.600006521,1,0,0,rectangle_8,3.200011492,-5.600006521,1,0,0,3.200011492,-5.600006521,1,0,0,0,6,6,5,1,6101cecdcad088615357832c,61036e79f7839d9d6cf59057,2021-07-29_22h16.11.011,Simcolourproject_2stim_asymm_v5,2020.2.10,Win32,60,61025ae37ef11b136ea224fe,,,,,,,,,,,,,,,,,,,,,,,,,,,,,,,,,,,,,,,,,,,,,,
,,,,,,,,,,,,,FF,,,,,,,,4.1162,,,,,,,,,,,,,,,,,,,,,,6101cecdcad088615357832c,61036e79f7839d9d6cf59057,2021-07-29_22h16.11.011,Simcolourproject_2stim_asymm_v5,2020.2.10,Win32,60,61025ae37ef11b136ea224fe,,,,,,,space,4.5816,2578,87.20001274,-113.600057,1,0,0,response3disk,,4,-8.799988687,0.799993575,1,0,0,rectangle,-8.799988687,0.799993575,1,0,0,-8.799988687,0.799993575,1,0,0,0,0,0,119,1,,,,,,,,
,,,,,,,,,,,,,FF,,,,,,,,7.1478,,,,,,,,,,,,,,,,,,,,,,6101cecdcad088615357832c,61036e79f7839d9d6cf59057,2021-07-29_22h16.11.011,Simcolourproject_2stim_asymm_v5,2020.2.10,Win32,60,61025ae37ef11b136ea224fe,,,,,,,,,2411,25.60006065,-85.60005654,1,0,0,response3disk,,4,-8.799988687,-4.800006509,1,0,0,rectangle,-8.799988687,-4.800006509,1,0,0,-8.799988687,-4.800006509,1,0,0,0,1,1,31,1,,,,,,,,
,,,,,,,,,,,,,FF,,,,,,,,2.2659,,,,,,,,,,,,,,,,,,,,,,6101cecdcad088615357832c,61036e79f7839d9d6cf59057,2021-07-29_22h16.11.011,Simcolourproject_2stim_asymm_v5,2020.2.10,Win32,60,61025ae37ef11b136ea224fe,,,,,,,,,3813,-81.59998977,-45.60000712,1,0,0,response5disk,,2,-4.799988627,2.399993598,1,0,0,rectangle,-4.799988627,2.399993598,1,0,0,-4.799988627,2.399993598,1,0,0,0,2,2,30,1,,,,,,,,
,,,,,,,,,,,,,FF,,,,,,,,9.0929,,,,,,,,,,,,,,,,,,,,,,6101cecdcad088615357832c,61036e79f7839d9d6cf59057,2021-07-29_22h16.11.011,Simcolourproject_2stim_asymm_v5,2020.2.10,Win32,60,61025ae37ef11b136ea224fe,,,,,,,,,4098,-55.19998938,-88.80000776,1,0,0,response5disk,,3,-6.399939823,-8.000006557,1,0,0,rectangle,-6.399939823,-8.000006557,1,0,0,-6.399939823,-8.000006557,1,0,0,0,3,3,81,1,,,,,,,,
,,,,,,,,,,,,,FF,,,,,,,,3.9985,,,,,,,,,,,,,,,,,,,,,,6101cecdcad088615357832c,61036e79f7839d9d6cf59057,2021-07-29_22h16.11.011,Simcolourproject_2stim_asymm_v5,2020.2.10,Win32,60,61025ae37ef11b136ea224fe,,,,,,,,,2619,-37.59998912,-84.8000077,1,0,0,response5disk,,3,-3.999988616,-7.200006545,1,0,0,rectangle,-43.1999892,-86.40000772,1,0,0,-3.999988616,-6.4373E-06,1,0,0,0,4,4,8,1,,response5disk_3,TRUE,3,3,"[25,85,145,5,181,82,76,244,118,188,201,229,33,180,135,287,103,229,198,174]",2.7329,rectangle
,,,,,,,,,,,,,FF,,,,,,,,2.4994,,,,,,,,,,,,,,,,,,,,,,6101cecdcad088615357832c,61036e79f7839d9d6cf59057,2021-07-29_22h16.11.011,Simcolourproject_2stim_asymm_v5,2020.2.10,Win32,60,61025ae37ef11b136ea224fe,,,,,,,,,1873,67.20001245,28.79999399,1,0,0,response1disk,,6,4.800011516,-8.000006557,1,0,0,rectangle,4.800011516,-8.000006557,1,0,0,4.800011516,-8.000006557,1,0,0,0,5,5,70,1,,,,,,,,
,,,,,,,,,,,,,FF,,,,,,,,1.7994,,,,,,,,,,,,,,,,,,,,,,6101cecdcad088615357832c,61036e79f7839d9d6cf59057,2021-07-29_22h16.11.011,Simcolourproject_2stim_asymm_v5,2020.2.10,Win32,60,61025ae37ef11b136ea224fe,,,,,,,,,673,74.40001255,-38.40000701,1,0,0,response3disk,,5,0.800011456,-3.200006485,1,0,0,rectangle,0.800011456,-3.200006485,1,0,0,0.800011456,-3.200006485,1,0,0,0,6,6,2,1,,,,,,,,
,,,,,,,,,,,,,FF,,,,,,,,2.0659,,,,,,,,,,,,,,,,,,,,,,6101cecdcad088615357832c,61036e79f7839d9d6cf59057,2021-07-29_22h16.11.011,Simcolourproject_2stim_asymm_v5,2020.2.10,Win32,60,61025ae37ef11b136ea224fe,,,,,,,,,63,-91.19998991,-44.00000709,1,0,0,response5disk,,2,-14.39993994,-6.4373E-06,1,0,0,rectangle,-14.39993994,-6.4373E-06,1,0,0,-14.39993994,-6.4373E-06,1,0,0,0,7,7,158,1,,,,,,,,
,,,,,,,,,,,,,FF,,,,,,,,1.1826,,,,,,,,,,,,,,,,,,,,,,6101cecdcad088615357832c,61036e79f7839d9d6cf59057,2021-07-29_22h16.11.011,Simcolourproject_2stim_asymm_v5,2020.2.10,Win32,60,61025ae37ef11b136ea224fe,,,,,,,,,4184,-64.79998952,-47.20000714,1,0,0,response5disk,,2,3.200011492,-4.800006509,1,0,0,rectangle,3.200011492,-4.800006509,1,0,0,3.200011492,-4.800006509,1,0,0,0,8,8,17,1,,,,,,,,
,,,,,,,,,,,,,FF,,,,,,,,6.1156,,,,,,,,,,,,,,,,,,,,,,6101cecdcad088615357832c,61036e79f7839d9d6cf59057,2021-07-29_22h16.11.011,Simcolourproject_2stim_asymm_v5,2020.2.10,Win32,60,61025ae37ef11b136ea224fe,,,,,,,,,3446,61.60001236,-79.20000762,1,0,0,response3disk,,4,0.800011456,-2.400006473,1,0,0,rectangle,0.800011456,-2.400006473,1,0,0,0.800011456,-2.400006473,1,0,0,0,9,9,118,1,,,,,,,,
,,,,,,,,,,,,,FF,,,,,,,,4.5818,,,,,,,,,,,,,,,,,,,,,,6101cecdcad088615357832c,61036e79f7839d9d6cf59057,2021-07-29_22h16.11.011,Simcolourproject_2stim_asymm_v5,2020.2.10,Win32,60,61025ae37ef11b136ea224fe,,,,,,,,,343,-64.79998952,-91.2000078,1,0,0,response5disk,,3,-2.399939764,-1.600006461,1,0,0,rectangle,-2.399939764,-1.600006461,1,0,0,-2.399939764,-1.600006461,1,0,0,0,10,10,91,1,,,,,,,,
,,,,,,,,,,,,,FF,,,,,,,,1.1666,,,,,,,,,,,,,,,,,,,,,,6101cecdcad088615357832c,61036e79f7839d9d6cf59057,2021-07-29_22h16.11.011,Simcolourproject_2stim_asymm_v5,2020.2.10,Win32,60,61025ae37ef11b136ea224fe,,,,,,,,,4347,-73.59998965,-43.20000708,1,0,0,response5disk,,2,4.800011516,5.599993646,1,0,0,rectangle,4.800011516,5.599993646,1,0,0,4.800011516,5.599993646,1,0,0,0,11,11,16,1,,,,,,,,
,,,,,,,,,,,,,FF,,,,,,,,3.116,,,,,,,,,,,,,,,,,,,,,,6101cecdcad088615357832c,61036e79f7839d9d6cf59057,2021-07-29_22h16.11.011,Simcolourproject_2stim_asymm_v5,2020.2.10,Win32,60,61025ae37ef11b136ea224fe,,,,,,,,,1736,-65.59998953,-83.20000768,1,0,0,response5disk,,3,0.800011456,3.999993622,1,0,0,rectangle,0.800011456,3.999993622,1,0,0,0.800011456,3.999993622,1,0,0,0,12,12,143,1,,,,,,,,
,,,,,,,,,,,,,FF,,,,,,,,4.1323,,,,,,,,,,,,,,,,,,,,,,6101cecdcad088615357832c,61036e79f7839d9d6cf59057,2021-07-29_22h16.11.011,Simcolourproject_2stim_asymm_v5,2020.2.10,Win32,60,61025ae37ef11b136ea224fe,,,,,,,,,1953,-37.59998912,-65.60000741,1,0,0,response5disk,,3,-1.59998858,-5.600006521,1,0,0,rectangle,-1.59998858,-5.600006521,1,0,0,-1.59998858,-5.600006521,1,0,0,0,13,13,153,1,,,,,,,,
,,,,,,,,,,,,,FF,,,,,,,,2.5827,,,,,,,,,,,,,,,,,,,,,,6101cecdcad088615357832c,61036e79f7839d9d6cf59057,2021-07-29_22h16.11.011,Simcolourproject_2stim_asymm_v5,2020.2.10,Win32,60,61025ae37ef11b136ea224fe,,,,,,,,,1290,-75.19998968,32.79999405,1,0,0,response7disk,,1,-19.19998884,10.39999372,1,0,0,rectangle,-19.19998884,10.39999372,1,0,0,-19.19998884,10.39999372,1,0,0,0,14,14,84,1,,,,,,,,
,,,,,,,,,,,,,FF,,,,,,,,1.483,,,,,,,,,,,,,,,,,,,,,,6101cecdcad088615357832c,61036e79f7839d9d6cf59057,2021-07-29_22h16.11.011,Simcolourproject_2stim_asymm_v5,2020.2.10,Win32,60,61025ae37ef11b136ea224fe,,,,,,,,,2420,-86.39994102,-52.00000721,1,0,0,response5disk,,2,-5.599988639,-4.000006497,1,0,0,rectangle,-5.599988639,-4.000006497,1,0,0,-5.599988639,-4.000006497,1,0,0,0,15,15,37,1,,,,,,,,
,,,,,,,,,,,,,FF,,,,,,,,1.7162,,,,,,,,,,,,,,,,,,,,,,6101cecdcad088615357832c,61036e79f7839d9d6cf59057,2021-07-29_22h16.11.011,Simcolourproject_2stim_asymm_v5,2020.2.10,Win32,60,61025ae37ef11b136ea224fe,,,,,,,,,2264,76.80001259,40.79999417,1,0,0,response1disk,,6,9.600060415,-9.60000658,1,0,0,rectangle,9.600060415,-9.60000658,1,0,0,9.600060415,-9.60000658,1,0,0,0,16,16,6,1,,,,,,,,
,,,,,,,,,,,,,FF,,,,,,,,1.5495,,,,,,,,,,,,,,,,,,,,,,6101cecdcad088615357832c,61036e79f7839d9d6cf59057,2021-07-29_22h16.11.011,Simcolourproject_2stim_asymm_v5,2020.2.10,Win32,60,61025ae37ef11b136ea224fe,,,,,,,,,4369,-67.99998957,-37.600007,1,0,0,response5disk,,2,-22.39994006,-10.40000659,1,0,0,rectangle,-22.39994006,-10.40000659,1,0,0,-22.39994006,-10.40000659,1,0,0,0,17,17,98,1,,,,,,,,
,,,,,,,,,,,,,FF,,,,,,,,3.666,,,,,,,,,,,,,,,,,,,,,,6101cecdcad088615357832c,61036e79f7839d9d6cf59057,2021-07-29_22h16.11.011,Simcolourproject_2stim_asymm_v5,2020.2.10,Win32,60,61025ae37ef11b136ea224fe,,,,,,,,,1433,65.60001242,-43.20000708,1,0,0,response3disk,,5,-3.999988616,-3.200006485,1,0,0,rectangle,-3.999988616,-3.200006485,1,0,0,-3.999988616,-3.200006485,1,0,0,0,18,18,18,1,,,,,,,,
,,,,,,,,,,,,,FF,,,,,,,,1.2995,,,,,,,,,,,,,,,,,,,,,,6101cecdcad088615357832c,61036e79f7839d9d6cf59057,2021-07-29_22h16.11.011,Simcolourproject_2stim_asymm_v5,2020.2.10,Win32,60,61025ae37ef11b136ea224fe,,,,,,,,,2819,75.20001256,-33.60000694,1,0,0,response3disk,,5,20.00001174,-7.200006545,1,0,0,rectangle,20.00001174,-7.200006545,1,0,0,20.00001174,-7.200006545,1,0,0,0,19,19,141,1,,,,,,,,
,,,,,,,,,,,,,FF,,,,,,,,2.5824,,,,,,,,,,,,,,,,,,,,,,6101cecdcad088615357832c,61036e79f7839d9d6cf59057,2021-07-29_22h16.11.011,Simcolourproject_2stim_asymm_v5,2020.2.10,Win32,60,61025ae37ef11b136ea224fe,,,,,,,,,1302,-55.99998939,-68.00000745,1,0,0,response5disk,,3,-3.999988616,-11.2000066,1,0,0,rectangle,-3.999988616,-11.2000066,1,0,0,-3.999988616,-11.2000066,1,0,0,0,20,20,100,1,,,,,,,,
,,,,,,,,,,,,,FF,,,,,,,,1.3831,,,,,,,,,,,,,,,,,,,,,,6101cecdcad088615357832c,61036e79f7839d9d6cf59057,2021-07-29_22h16.11.011,Simcolourproject_2stim_asymm_v5,2020.2.10,Win32,60,61025ae37ef11b136ea224fe,,,,,,,,,670,73.60001254,32.79999405,1,0,0,response1disk,,6,20.00001174,-8.000006557,1,0,0,rectangle,20.00001174,-8.000006557,1,0,0,20.00001174,-8.000006557,1,0,0,0,21,21,11,1,,,,,,,,
,,,,,,,,,,,,,FF,,,,,,,,3.7487,,,,,,,,,,,,,,,,,,,,,,6101cecdcad088615357832c,61036e79f7839d9d6cf59057,2021-07-29_22h16.11.011,Simcolourproject_2stim_asymm_v5,2020.2.10,Win32,60,61025ae37ef11b136ea224fe,,,,,,,,,2945,-73.59998965,-55.20000726,1,0,0,response5disk,,2,-22.39994006,-6.4373E-06,1,0,0,rectangle,-22.39994006,-6.4373E-06,1,0,0,-22.39994006,-6.4373E-06,1,0,0,0,22,22,35,1,,,,,,,,
,,,,,,,,,,,,,FF,,,,,,,,4.5157,,,,,,,,,,,,,,,,,,,,,,6101cecdcad088615357832c,61036e79f7839d9d6cf59057,2021-07-29_22h16.11.011,Simcolourproject_2stim_asymm_v5,2020.2.10,Win32,60,61025ae37ef11b136ea224fe,,,,,,,,,1715,90.40001279,42.39999419,1,0,0,response1disk,,6,17.60006053,3.19999361,1,0,0,rectangle,17.60006053,3.19999361,1,0,0,17.60006053,3.19999361,1,0,0,0,23,23,111,1,,,,,,,,
,,,,,,,,,,,,,FF,,,,,,,,1.8662,,,,,,,,,,,,,,,,,,,,,,6101cecdcad088615357832c,61036e79f7839d9d6cf59057,2021-07-29_22h16.11.011,Simcolourproject_2stim_asymm_v5,2020.2.10,Win32,60,61025ae37ef11b136ea224fe,,,,,,,,,2996,-62.39994066,-75.20000756,1,0,0,response5disk,,3,4.800011516,-0.800006449,1,0,0,rectangle,-25.59998894,82.39999479,1,0,0,1.600060296,11.19999373,1,0,0,0,24,24,90,1,,response7disk_3,TRUE,0,0,"[25,85,145,5,181,82,76,244,118,188,201,229,33,180,135,287,103,229,198,174]",1.4994,rectangle
,,,,,,,,,,,,,FF,,,,,,,,2.3492,,,,,,,,,,,,,,,,,,,,,,6101cecdcad088615357832c,61036e79f7839d9d6cf59057,2021-07-29_22h16.11.011,Simcolourproject_2stim_asymm_v5,2020.2.10,Win32,60,61025ae37ef11b136ea224fe,,,,,,,,,2084,89.60001278,37.59999412,1,0,0,response1disk,,6,14.40001166,-12.80000663,1,0,0,rectangle,14.40001166,-12.80000663,1,0,0,14.40001166,-12.80000663,1,0,0,0,25,25,38,1,,,,,,,,
,,,,,,,,,,,,,FF,,,,,,,,1.7329,,,,,,,,,,,,,,,,,,,,,,6101cecdcad088615357832c,61036e79f7839d9d6cf59057,2021-07-29_22h16.11.011,Simcolourproject_2stim_asymm_v5,2020.2.10,Win32,60,61025ae37ef11b136ea224fe,,,,,,,,,2357,-61.59998947,-85.60005654,1,0,0,response5disk,,3,-3.999988616,-6.400006533,1,0,0,rectangle,-3.999988616,-6.400006533,1,0,0,-3.999988616,-6.400006533,1,0,0,0,26,26,42,1,,,,,,,,
,,,,,,,,,,,,,FF,,,,,,,,1.7664,,,,,,,,,,,,,,,,,,,,,,6101cecdcad088615357832c,61036e79f7839d9d6cf59057,2021-07-29_22h16.11.011,Simcolourproject_2stim_asymm_v5,2020.2.10,Win32,60,61025ae37ef11b136ea224fe,,,,,,,,,976,83.20001268,-108.000008,1,0,0,response3disk,,4,12.00001162,-4.800006509,1,0,0,rectangle,12.00001162,-4.800006509,1,0,0,12.00001162,-4.800006509,1,0,0,0,27,27,36,1,,,,,,,,
,,,,,,,,,,,,,FF,,,,,,,,1.3832,,,,,,,,,,,,,,,,,,,,,,6101cecdcad088615357832c,61036e79f7839d9d6cf59057,2021-07-29_22h16.11.011,Simcolourproject_2stim_asymm_v5,2020.2.10,Win32,60,61025ae37ef11b136ea224fe,,,,,,,,,1565,84.80001271,-32.00000691,1,0,0,response3disk,,5,11.20001161,-1.600006461,1,0,0,rectangle,11.20001161,-1.600006461,1,0,0,11.20001161,-1.600006461,1,0,0,0,28,28,10,1,,,,,,,,
,,,,,,,,,,,,,FF,,,,,,,,1.7833,,,,,,,,,,,,,,,,,,,,,,6101cecdcad088615357832c,61036e79f7839d9d6cf59057,2021-07-29_22h16.11.011,Simcolourproject_2stim_asymm_v5,2020.2.10,Win32,60,61025ae37ef11b136ea224fe,,,,,,,,,1782,78.40001261,23.99999392,1,0,0,response1disk,,6,34.40001196,0.799993575,1,0,0,rectangle,34.40001196,0.799993575,1,0,0,34.40001196,0.799993575,1,0,0,0,29,29,115,1,,,,,,,,
,,,,,,,,,,,,,FF,,,,,,,,2.1328,,,,,,,,,,,,,,,,,,,,,,6101cecdcad088615357832c,61036e79f7839d9d6cf59057,2021-07-29_22h16.11.011,Simcolourproject_2stim_asymm_v5,2020.2.10,Win32,60,61025ae37ef11b136ea224fe,,,,,,,,,2790,36.00001198,-80.00000763,1,0,0,response3disk,,4,-4.799988627,-4.800006509,1,0,0,rectangle,-4.799988627,-4.800006509,1,0,0,-4.799988627,-4.800006509,1,0,0,0,30,30,105,1,,,,,,,,
,,,,,,,,,,,,,FF,,,,,,,,2.4991,,,,,,,,,,,,,,,,,,,,,,6101cecdcad088615357832c,61036e79f7839d9d6cf59057,2021-07-29_22h16.11.011,Simcolourproject_2stim_asymm_v5,2020.2.10,Win32,60,61025ae37ef11b136ea224fe,,,,,,,,,146,49.60006101,-34.40000695,1,0,0,response3disk,,5,8.000011563,-6.400006533,1,0,0,rectangle,8.000011563,-6.400006533,1,0,0,8.000011563,-6.400006533,1,0,0,0,31,31,67,1,,,,,,,,
,,,,,,,,,,,,,FF,,,,,,,,1.2666,,,,,,,,,,,,,,,,,,,,,,6101cecdcad088615357832c,61036e79f7839d9d6cf59057,2021-07-29_22h16.11.011,Simcolourproject_2stim_asymm_v5,2020.2.10,Win32,60,61025ae37ef11b136ea224fe,,,,,,,,,2838,-51.99998933,-68.00000745,1,0,0,response5disk,,3,-15.99998879,3.19999361,1,0,0,rectangle,-98.39994119,36.79999411,1,0,0,-29.599989,-1.600006461,1,0,0,0,32,32,110,1,,response7disk_3,TRUE,1,1,"[25,85,145,5,181,82,76,244,118,188,201,229,33,180,135,287,103,229,198,174]",1.5156,rectangle
,,,,,,,,,,,,,FF,,,,,,,,4.849,,,,,,,,,,,,,,,,,,,,,,6101cecdcad088615357832c,61036e79f7839d9d6cf59057,2021-07-29_22h16.11.011,Simcolourproject_2stim_asymm_v5,2020.2.10,Win32,60,61025ae37ef11b136ea224fe,,,,,,,,,4065,44.0000121,-74.40000755,1,0,0,response3disk,,4,-5.599988639,-6.400006533,1,0,0,rectangle,-5.599988639,-6.400006533,1,0,0,-5.599988639,-6.400006533,1,0,0,0,33,33,127,1,,,,,,,,
,,,,,,,,,,,,,FF,,,,,,,,1.9161,,,,,,,,,,,,,,,,,,,,,,6101cecdcad088615357832c,61036e79f7839d9d6cf59057,2021-07-29_22h16.11.011,Simcolourproject_2stim_asymm_v5,2020.2.10,Win32,60,61025ae37ef11b136ea224fe,,,,,,,,,2910,72.80001253,-46.40000713,1,0,0,response3disk,,5,2.40001148,-4.000006497,1,0,0,rectangle,2.40001148,-4.000006497,1,0,0,2.40001148,-4.000006497,1,0,0,0,34,34,114,1,,,,,,,,
,,,,,,,,,,,,,FF,,,,,,,,1.4329,,,,,,,,,,,,,,,,,,,,,,6101cecdcad088615357832c,61036e79f7839d9d6cf59057,2021-07-29_22h16.11.011,Simcolourproject_2stim_asymm_v5,2020.2.10,Win32,60,61025ae37ef11b136ea224fe,,,,,,,,,3515,-31.19998902,-73.60000753,1,0,0,response5disk,,3,-3.199988604,-6.400006533,1,0,0,rectangle,-3.199988604,-6.400006533,1,0,0,-3.199988604,-6.400006533,1,0,0,0,35,35,82,1,,,,,,,,
,,,,,,,,,,,,,FF,,,,,,,,1.2165,,,,,,,,,,,,,,,,,,,,,,6101cecdcad088615357832c,61036e79f7839d9d6cf59057,2021-07-29_22h16.11.011,Simcolourproject_2stim_asymm_v5,2020.2.10,Win32,60,61025ae37ef11b136ea224fe,,,,,,,,,1249,64.80001241,-40.00000703,1,0,0,response3disk,,5,0.800011456,-3.200006485,1,0,0,rectangle,0.800011456,-3.200006485,1,0,0,0.800011456,-3.200006485,1,0,0,0,36,36,113,1,,,,,,,,
,,,,,,,,,,,,,FF,,,,,,,,1.6661,,,,,,,,,,,,,,,,,,,,,,6101cecdcad088615357832c,61036e79f7839d9d6cf59057,2021-07-29_22h16.11.011,Simcolourproject_2stim_asymm_v5,2020.2.10,Win32,60,61025ae37ef11b136ea224fe,,,,,,,,,2904,47.20001215,31.19996961,1,0,0,response1disk,,6,-8.799988687,-16.00000668,1,0,0,rectangle,-8.799988687,-16.00000668,1,0,0,-8.799988687,-16.00000668,1,0,0,0,37,37,23,1,,,,,,,,
,,,,,,,,,,,,,FF,,,,,,,,1.2161,,,,,,,,,,,,,,,,,,,,,,6101cecdcad088615357832c,61036e79f7839d9d6cf59057,2021-07-29_22h16.11.011,Simcolourproject_2stim_asymm_v5,2020.2.10,Win32,60,61025ae37ef11b136ea224fe,,,,,,,,,3846,-71.19998962,-45.60000712,1,0,0,response5disk,,2,2.40001148,-4.000006497,1,0,0,rectangle,2.40001148,-4.000006497,1,0,0,2.40001148,-4.000006497,1,0,0,0,38,38,75,1,,,,,,,,
,,,,,,,,,,,,,FF,,,,,,,,1.8495,,,,,,,,,,,,,,,,,,,,,,6101cecdcad088615357832c,61036e79f7839d9d6cf59057,2021-07-29_22h16.11.011,Simcolourproject_2stim_asymm_v5,2020.2.10,Win32,60,61025ae37ef11b136ea224fe,,,,,,,,,1049,64.0000124,18.39999384,1,0,0,response1disk,,6,16.80001169,-16.00000668,1,0,0,rectangle,16.80001169,-16.00000668,1,0,0,16.80001169,-16.00000668,1,0,0,0,39,39,133,1,,,,,,,,
,,,,,,,,,,,,,FF,,,,,,,,4.6154,,,,,,,,,,,,,,,,,,,,,,6101cecdcad088615357832c,61036e79f7839d9d6cf59057,2021-07-29_22h16.11.011,Simcolourproject_2stim_asymm_v5,2020.2.10,Win32,60,61025ae37ef11b136ea224fe,,,,,,,,,1063,30.4000119,-84.8000077,1,0,0,response3disk,,4,10.4000116,-6.400006533,1,0,0,rectangle,10.4000116,-6.400006533,1,0,0,10.4000116,-6.400006533,1,0,0,0,40,40,21,1,,,,,,,,
,,,,,,,,,,,,,FF,,,,,,,,1.1001,,,,,,,,,,,,,,,,,,,,,,6101cecdcad088615357832c,61036e79f7839d9d6cf59057,2021-07-29_22h16.11.011,Simcolourproject_2stim_asymm_v5,2020.2.10,Win32,60,61025ae37ef11b136ea224fe,,,,,,,,,1434,76.00001258,-43.20000708,1,0,0,response3disk,,5,-3.199988604,-4.800006509,1,0,0,rectangle,-3.199988604,-4.800006509,1,0,0,-3.199988604,-4.800006509,1,0,0,0,41,41,154,1,,,,,,,,
,,,,,,,,,,,,,FF,,,,,,,,1.2667,,,,,,,,,,,,,,,,,,,,,,6101cecdcad088615357832c,61036e79f7839d9d6cf59057,2021-07-29_22h16.11.011,Simcolourproject_2stim_asymm_v5,2020.2.10,Win32,60,61025ae37ef11b136ea224fe,,,,,,,,,516,-36.7999891,-77.60000759,1,0,0,response5disk,,3,-2.399939764,-10.40000659,1,0,0,rectangle,-2.399939764,-10.40000659,1,0,0,-2.399939764,-10.40000659,1,0,0,0,42,42,136,1,,,,,,,,
,,,,,,,,,,,,,FF,,,,,,,,0.9667,,,,,,,,,,,,,,,,,,,,,,6101cecdcad088615357832c,61036e79f7839d9d6cf59057,2021-07-29_22h16.11.011,Simcolourproject_2stim_asymm_v5,2020.2.10,Win32,60,61025ae37ef11b136ea224fe,,,,,,,,,2588,60.80001235,28.79999399,1,0,0,response1disk,,6,13.60006047,-10.40000659,1,0,0,rectangle,13.60006047,-10.40000659,1,0,0,13.60006047,-10.40000659,1,0,0,0,43,43,33,1,,,,,,,,
,,,,,,,,,,,,,FF,,,,,,,,1.2663,,,,,,,,,,,,,,,,,,,,,,6101cecdcad088615357832c,61036e79f7839d9d6cf59057,2021-07-29_22h16.11.011,Simcolourproject_2stim_asymm_v5,2020.2.10,Win32,60,61025ae37ef11b136ea224fe,,,,,,,,,2934,-28.79998899,-58.40000731,1,0,0,response5disk,,3,-4.799988627,-15.20000666,1,0,0,rectangle,-4.799988627,-15.20000666,1,0,0,-4.799988627,-15.20000666,1,0,0,0,44,44,126,1,,,,,,,,
,,,,,,,,,,,,,FF,,,,,,,,1.8665,,,,,,,,,,,,,,,,,,,,,,6101cecdcad088615357832c,61036e79f7839d9d6cf59057,2021-07-29_22h16.11.011,Simcolourproject_2stim_asymm_v5,2020.2.10,Win32,60,61025ae37ef11b136ea224fe,,,,,,,,,1141,26.40001184,-50.40000719,1,0,0,response3disk,,4,3.200011492,-6.400006533,1,0,0,rectangle,3.200011492,-6.400006533,1,0,0,3.200011492,-6.400006533,1,0,0,0,45,45,125,1,,,,,,,,
,,,,,,,,,,,,,FF,,,,,,,,2.9326,,,,,,,,,,,,,,,,,,,,,,6101cecdcad088615357832c,61036e79f7839d9d6cf59057,2021-07-29_22h16.11.011,Simcolourproject_2stim_asymm_v5,2020.2.10,Win32,60,61025ae37ef11b136ea224fe,,,,,,,,,741,42.40001208,-50.40000719,1,0,0,response3disk,,4,16.00001168,-10.40000659,1,0,0,rectangle,16.00001168,-10.40000659,1,0,0,16.00001168,-10.40000659,1,0,0,0,46,46,155,1,,,,,,,,
,,,,,,,,,,,,,FF,,,,,,,,1.8158,,,,,,,,,,,,,,,,,,,,,,6101cecdcad088615357832c,61036e79f7839d9d6cf59057,2021-07-29_22h16.11.011,Simcolourproject_2stim_asymm_v5,2020.2.10,Win32,60,61025ae37ef11b136ea224fe,,,,,,,,,3400,32.00001192,-56.00000727,1,0,0,response3disk,,4,-0.799988568,-8.000006557,1,0,0,rectangle,-0.799988568,-8.000006557,1,0,0,-0.799988568,-8.000006557,1,0,0,0,47,47,48,1,,,,,,,,
,,,,,,,,,,,,,FF,,,,,,,,3.4326,,,,,,,,,,,,,,,,,,,,,,6101cecdcad088615357832c,61036e79f7839d9d6cf59057,2021-07-29_22h16.11.011,Simcolourproject_2stim_asymm_v5,2020.2.10,Win32,60,61025ae37ef11b136ea224fe,,,,,,,,,2473,93.60001284,28.79999399,1,0,0,response1disk,,6,32.80001193,-8.000006557,1,0,0,rectangle,32.80001193,-8.000006557,1,0,0,32.80001193,-8.000006557,1,0,0,0,48,48,122,1,,,,,,,,
,,,,,,,,,,,,,FF,,,,,,,,1.1662,,,,,,,,,,,,,,,,,,,,,,6101cecdcad088615357832c,61036e79f7839d9d6cf59057,2021-07-29_22h16.11.011,Simcolourproject_2stim_asymm_v5,2020.2.10,Win32,60,61025ae37ef11b136ea224fe,,,,,,,,,1208,87.20001274,21.59999388,1,0,0,response1disk,,6,29.60006071,-2.400006473,1,0,0,rectangle,29.60006071,-2.400006473,1,0,0,29.60006071,-2.400006473,1,0,0,0,49,49,80,1,,,,,,,,
,,,,,,,,,,,,,FF,,,,,,,,2.1163,,,,,,,,,,,,,,,,,,,,,,6101cecdcad088615357832c,61036e79f7839d9d6cf59057,2021-07-29_22h16.11.011,Simcolourproject_2stim_asymm_v5,2020.2.10,Win32,60,61025ae37ef11b136ea224fe,,,,,,,,,161,44.80001211,-65.60000741,1,0,0,response3disk,,4,12.00001162,-14.40000665,1,0,0,rectangle,12.00001162,-14.40000665,1,0,0,12.00001162,-14.40000665,1,0,0,0,50,50,97,1,,,,,,,,
,,,,,,,,,,,,,FF,,,,,,,,5.9982,,,,,,,,,,,,,,,,,,,,,,6101cecdcad088615357832c,61036e79f7839d9d6cf59057,2021-07-29_22h16.11.011,Simcolourproject_2stim_asymm_v5,2020.2.10,Win32,60,61025ae37ef11b136ea224fe,,,,,,,,,4106,44.80001211,-73.60000753,1,0,0,response3disk,,4,7.200011551,-11.2000066,1,0,0,rectangle,7.200011551,-11.2000066,1,0,0,7.200011551,-11.2000066,1,0,0,0,51,51,121,1,,,,,,,,
,,,,,,,,,,,,,FF,,,,,,,,1.2162,,,,,,,,,,,,,,,,,,,,,,6101cecdcad088615357832c,61036e79f7839d9d6cf59057,2021-07-29_22h16.11.011,Simcolourproject_2stim_asymm_v5,2020.2.10,Win32,60,61025ae37ef11b136ea224fe,,,,,,,,,3609,72.00001252,-31.2000069,1,0,0,response3disk,,5,-0.799988568,-0.800006449,1,0,0,rectangle,-0.799988568,-0.800006449,1,0,0,-0.799988568,-0.800006449,1,0,0,0,52,52,62,1,,,,,,,,
,,,,,,,,,,,,,FF,,,,,,,,1.1658,,,,,,,,,,,,,,,,,,,,,,6101cecdcad088615357832c,61036e79f7839d9d6cf59057,2021-07-29_22h16.11.011,Simcolourproject_2stim_asymm_v5,2020.2.10,Win32,60,61025ae37ef11b136ea224fe,,,,,,,,,2865,72.80001253,25.59999394,1,0,0,response1disk,,6,30.4000119,-6.4373E-06,1,0,0,rectangle,30.4000119,-6.4373E-06,1,0,0,30.4000119,-6.4373E-06,1,0,0,0,53,53,32,1,,,,,,,,
,,,,,,,,,,,,,FF,,,,,,,,11.4137,,,,,,,,,,,,,,,,,,,,,,6101cecdcad088615357832c,61036e79f7839d9d6cf59057,2021-07-29_22h16.11.011,Simcolourproject_2stim_asymm_v5,2020.2.10,Win32,60,61025ae37ef11b136ea224fe,,,,,,,,,1471,32.00001192,-56.80000728,1,0,0,response3disk,,4,-11.99998873,-7.200006545,1,0,0,rectangle,-11.99998873,-7.200006545,1,0,0,-11.99998873,-7.200006545,1,0,0,0,54,54,7,1,,,,,,,,
,,,,,,,,,,,,,FF,,,,,,,,3.4825,,,,,,,,,,,,,,,,,,,,,,6101cecdcad088615357832c,61036e79f7839d9d6cf59057,2021-07-29_22h16.11.011,Simcolourproject_2stim_asymm_v5,2020.2.10,Win32,60,61025ae37ef11b136ea224fe,,,,,,,,,2389,53.60001224,-31.2000069,1,0,0,response3disk,,5,18.40001172,-6.4373E-06,1,0,0,rectangle,18.40001172,-6.4373E-06,1,0,0,18.40001172,-6.4373E-06,1,0,0,0,55,55,116,1,,,,,,,,
,,,,,,,,,,,,,FF,,,,,,,,2.266,,,,,,,,,,,,,,,,,,,,,,6101cecdcad088615357832c,61036e79f7839d9d6cf59057,2021-07-29_22h16.11.011,Simcolourproject_2stim_asymm_v5,2020.2.10,Win32,60,61025ae37ef11b136ea224fe,,,,,,,,,1144,-29.599989,-78.40000761,1,0,0,response5disk,,3,13.60006047,14.39999378,1,0,0,rectangle,13.60006047,14.39999378,1,0,0,13.60006047,14.39999378,1,0,0,0,56,56,83,1,,,,,,,,
,,,,,,,,,,,,,FF,,,,,,,,2.6161,,,,,,,,,,,,,,,,,,,,,,6101cecdcad088615357832c,61036e79f7839d9d6cf59057,2021-07-29_22h16.11.011,Simcolourproject_2stim_asymm_v5,2020.2.10,Win32,60,61025ae37ef11b136ea224fe,,,,,,,,,2700,94.40001285,-52.80000722,1,0,0,response3disk,,5,8.800011575,4.799993634,1,0,0,rectangle,8.800011575,4.799993634,1,0,0,8.800011575,4.799993634,1,0,0,0,57,57,92,1,,,,,,,,
,,,,,,,,,,,,,FF,,,,,,,,1.6333,,,,,,,,,,,,,,,,,,,,,,6101cecdcad088615357832c,61036e79f7839d9d6cf59057,2021-07-29_22h16.11.011,Simcolourproject_2stim_asymm_v5,2020.2.10,Win32,60,61025ae37ef11b136ea224fe,,,,,,,,,2241,-31.19998902,-90.40000778,1,0,0,response5disk,,3,-2.399939764,-9.60000658,1,0,0,rectangle,-2.399939764,-9.60000658,1,0,0,-2.399939764,-9.60000658,1,0,0,0,58,58,43,1,,,,,,,,
,,,,,,,,,,,,,FF,,,,,,,,1.3999,,,,,,,,,,,,,,,,,,,,,,6101cecdcad088615357832c,61036e79f7839d9d6cf59057,2021-07-29_22h16.11.011,Simcolourproject_2stim_asymm_v5,2020.2.10,Win32,60,61025ae37ef11b136ea224fe,,,,,,,,,4026,-36.7999891,-88.00000775,1,0,0,response5disk,,3,-5.599988639,-8.800006568,1,0,0,rectangle,-5.599988639,-8.800006568,1,0,0,-5.599988639,-8.800006568,1,0,0,0,59,59,128,1,,,,,,,,
,,,,,,,,,,,,,FF,,,,,,,,0.8334,,,,,,,,,,,,,,,,,,,,,,6101cecdcad088615357832c,61036e79f7839d9d6cf59057,2021-07-29_22h16.11.011,Simcolourproject_2stim_asymm_v5,2020.2.10,Win32,60,61025ae37ef11b136ea224fe,,,,,,,,,3821,-58.3999406,-77.60000759,1,0,0,response5disk,,3,-16.79998881,-2.400006473,1,0,0,rectangle,-16.79998881,-2.400006473,1,0,0,-16.79998881,-2.400006473,1,0,0,0,60,60,5,1,,,,,,,,
,,,,,,,,,,,,,FF,,,,,,,,1.0501,,,,,,,,,,,,,,,,,,,,,,6101cecdcad088615357832c,61036e79f7839d9d6cf59057,2021-07-29_22h16.11.011,Simcolourproject_2stim_asymm_v5,2020.2.10,Win32,60,61025ae37ef11b136ea224fe,,,,,,,,,3203,-69.59998959,-45.60000712,1,0,0,response5disk,,2,4.000011504,-4.000006497,1,0,0,rectangle,4.000011504,-4.000006497,1,0,0,4.000011504,-4.000006497,1,0,0,0,61,61,93,1,,,,,,,,
,,,,,,,,,,,,,FF,,,,,,,,2.3159,,,,,,,,,,,,,,,,,,,,,,6101cecdcad088615357832c,61036e79f7839d9d6cf59057,2021-07-29_22h16.11.011,Simcolourproject_2stim_asymm_v5,2020.2.10,Win32,60,61025ae37ef11b136ea224fe,,,,,,,,,536,36.80001199,-88.00000775,1,0,0,response3disk,,4,1.600060296,3.999993622,1,0,0,rectangle,1.600060296,3.999993622,1,0,0,1.600060296,3.999993622,1,0,0,0,62,62,134,1,,,,,,,,
,,,,,,,,,,,,,FF,,,,,,,,1.6492,,,,,,,,,,,,,,,,,,,,,,6101cecdcad088615357832c,61036e79f7839d9d6cf59057,2021-07-29_22h16.11.011,Simcolourproject_2stim_asymm_v5,2020.2.10,Win32,60,61025ae37ef11b136ea224fe,,,,,,,,,3043,38.40001202,-60.80000734,1,0,0,response3disk,,4,6.400011539,-1.600006461,1,0,0,rectangle,6.400011539,-1.600006461,1,0,0,6.400011539,-1.600006461,1,0,0,0,63,63,29,1,,,,,,,,
,,,,,,,,,,,,,FF,,,,,,,,0.983,,,,,,,,,,,,,,,,,,,,,,6101cecdcad088615357832c,61036e79f7839d9d6cf59057,2021-07-29_22h16.11.011,Simcolourproject_2stim_asymm_v5,2020.2.10,Win32,60,61025ae37ef11b136ea224fe,,,,,,,,,754,90.40001279,-37.600007,1,0,0,response3disk,,5,16.80001169,-5.600006521,1,0,0,rectangle,16.80001169,-5.600006521,1,0,0,16.80001169,-5.600006521,1,0,0,0,64,64,104,1,,,,,,,,
,,,,,,,,,,,,,FF,,,,,,,,1.3493,,,,,,,,,,,,,,,,,,,,,,6101cecdcad088615357832c,61036e79f7839d9d6cf59057,2021-07-29_22h16.11.011,Simcolourproject_2stim_asymm_v5,2020.2.10,Win32,60,61025ae37ef11b136ea224fe,,,,,,,,,3686,49.60006101,-28.00000685,1,0,0,response3disk,,5,17.60006053,-4.800006509,1,0,0,rectangle,17.60006053,-4.800006509,1,0,0,17.60006053,-4.800006509,1,0,0,0,65,65,52,1,,,,,,,,
,,,,,,,,,,,,,FF,,,,,,,,1.0163,,,,,,,,,,,,,,,,,,,,,,6101cecdcad088615357832c,61036e79f7839d9d6cf59057,2021-07-29_22h16.11.011,Simcolourproject_2stim_asymm_v5,2020.2.10,Win32,60,61025ae37ef11b136ea224fe,,,,,,,,,3764,44.0000121,-28.00000685,1,0,0,response3disk,,5,12.80001163,-5.600006521,1,0,0,rectangle,12.80001163,-5.600006521,1,0,0,12.80001163,-5.600006521,1,0,0,0,66,66,101,1,,,,,,,,
,,,,,,,,,,,,,FF,,,,,,,,1.2328,,,,,,,,,,,,,,,,,,,,,,6101cecdcad088615357832c,61036e79f7839d9d6cf59057,2021-07-29_22h16.11.011,Simcolourproject_2stim_asymm_v5,2020.2.10,Win32,60,61025ae37ef11b136ea224fe,,,,,,,,,4240,-27.19998896,-86.40000772,1,0,0,response5disk,,3,15.20001167,-9.60000658,1,0,0,rectangle,15.20001167,-9.60000658,1,0,0,15.20001167,-9.60000658,1,0,0,0,67,67,96,1,,,,,,,,
,,,,,,,,,,,,,FF,,,,,,,,1.2331,,,,,,,,,,,,,,,,,,,,,,6101cecdcad088615357832c,61036e79f7839d9d6cf59057,2021-07-29_22h16.11.011,Simcolourproject_2stim_asymm_v5,2020.2.10,Win32,60,61025ae37ef11b136ea224fe,,,,,,,,,2064,98.40001291,22.3999939,1,0,0,response1disk,,6,22.40001178,-3.200006485,1,0,0,rectangle,22.40001178,-3.200006485,1,0,0,22.40001178,-3.200006485,1,0,0,0,68,68,159,1,,,,,,,,
,,,,,,,,,,,,,FF,,,,,,,,1.183,,,,,,,,,,,,,,,,,,,,,,6101cecdcad088615357832c,61036e79f7839d9d6cf59057,2021-07-29_22h16.11.011,Simcolourproject_2stim_asymm_v5,2020.2.10,Win32,60,61025ae37ef11b136ea224fe,,,,,,,,,4367,-75.19998968,-40.80000705,1,0,0,response5disk,,2,-9.599988699,-6.4373E-06,1,0,0,rectangle,-9.599988699,-6.4373E-06,1,0,0,-9.599988699,-6.4373E-06,1,0,0,0,69,69,54,1,,,,,,,,
,,,,,,,,,,,,,FF,,,,,,,,1.2494,,,,,,,,,,,,,,,,,,,,,,6101cecdcad088615357832c,61036e79f7839d9d6cf59057,2021-07-29_22h16.11.011,Simcolourproject_2stim_asymm_v5,2020.2.10,Win32,60,61025ae37ef11b136ea224fe,,,,,,,,,2863,94.40001285,-39.20000702,1,0,0,response3disk,,5,24.0000118,1.599993587,1,0,0,rectangle,24.0000118,1.599993587,1,0,0,24.0000118,1.599993587,1,0,0,0,70,70,56,1,,,,,,,,
,,,,,,,,,,,,,FF,,,,,,,,0.7498,,,,,,,,,,,,,,,,,,,,,,6101cecdcad088615357832c,61036e79f7839d9d6cf59057,2021-07-29_22h16.11.011,Simcolourproject_2stim_asymm_v5,2020.2.10,Win32,60,61025ae37ef11b136ea224fe,,,,,,,,,3024,76.80001259,-47.20000714,1,0,0,response3disk,,5,13.60006047,-8.000006557,1,0,0,rectangle,13.60006047,-8.000006557,1,0,0,13.60006047,-8.000006557,1,0,0,0,71,71,60,1,,,,,,,,
,,,,,,,,,,,,,FF,,,,,,,,2.4662,,,,,,,,,,,,,,,,,,,,,,6101cecdcad088615357832c,61036e79f7839d9d6cf59057,2021-07-29_22h16.11.011,Simcolourproject_2stim_asymm_v5,2020.2.10,Win32,60,61025ae37ef11b136ea224fe,,,,,,,,,535,83.20001268,34.39999408,1,0,0,response1disk,,6,32.00001192,0.799993575,1,0,0,rectangle,32.00001192,0.799993575,1,0,0,32.00001192,0.799993575,1,0,0,0,72,72,55,1,,,,,,,,
,,,,,,,,,,,,,FF,,,,,,,,2.9656,,,,,,,,,,,,,,,,,,,,,,6101cecdcad088615357832c,61036e79f7839d9d6cf59057,2021-07-29_22h16.11.011,Simcolourproject_2stim_asymm_v5,2020.2.10,Win32,60,61025ae37ef11b136ea224fe,,,,,,,,,1584,40.00001204,-106.400008,1,0,0,response3disk,,4,4.800011516,-5.600006521,1,0,0,rectangle,4.800011516,-5.600006521,1,0,0,4.800011516,-5.600006521,1,0,0,0,73,73,71,1,,,,,,,,
,,,,,,,,,,,,,FF,,,,,,,,1.0828,,,,,,,,,,,,,,,,,,,,,,6101cecdcad088615357832c,61036e79f7839d9d6cf59057,2021-07-29_22h16.11.011,Simcolourproject_2stim_asymm_v5,2020.2.10,Win32,60,61025ae37ef11b136ea224fe,,,,,,,,,2804,116.8000132,-39.20000702,1,0,0,response3disk,,5,16.80001169,-1.600006461,1,0,0,rectangle,16.80001169,-1.600006461,1,0,0,16.80001169,-1.600006461,1,0,0,0,74,74,13,1,,,,,,,,
,,,,,,,,,,,,,FF,,,,,,,,0.933,,,,,,,,,,,,,,,,,,,,,,6101cecdcad088615357832c,61036e79f7839d9d6cf59057,2021-07-29_22h16.11.011,Simcolourproject_2stim_asymm_v5,2020.2.10,Win32,60,61025ae37ef11b136ea224fe,,,,,,,,,1504,72.00001252,-49.60000718,1,0,0,response3disk,,5,4.000011504,-4.000006497,1,0,0,rectangle,-96.79999,-45.60000712,1,0,0,-28.79998899,1.599993587,1,0,0,0,75,75,26,1,,response5disk_3,TRUE,2,2,"[25,85,145,5,181,82,76,244,118,188,201,229,33,180,135,287,103,229,198,174]",1.7833,rectangle
,,,,,,,,,,,,,FF,,,,,,,,1.1834,,,,,,,,,,,,,,,,,,,,,,6101cecdcad088615357832c,61036e79f7839d9d6cf59057,2021-07-29_22h16.11.011,Simcolourproject_2stim_asymm_v5,2020.2.10,Win32,60,61025ae37ef11b136ea224fe,,,,,,,,,3816,-34.39994024,-81.60005648,1,0,0,response5disk,,3,12.00001162,-15.20000666,1,0,0,rectangle,12.00001162,-15.20000666,1,0,0,12.00001162,-15.20000666,1,0,0,0,76,76,124,1,,,,,,,,
,,,,,,,,,,,,,FF,,,,,,,,1.7662,,,,,,,,,,,,,,,,,,,,,,6101cecdcad088615357832c,61036e79f7839d9d6cf59057,2021-07-29_22h16.11.011,Simcolourproject_2stim_asymm_v5,2020.2.10,Win32,60,61025ae37ef11b136ea224fe,,,,,,,,,3443,74.40001255,-82.40000767,1,0,0,response3disk,,4,12.00001162,-6.400006533,1,0,0,rectangle,12.00001162,-6.400006533,1,0,0,12.00001162,-6.400006533,1,0,0,0,77,77,103,1,,,,,,,,
,,,,,,,,,,,,,FF,,,,,,,,1.4162,,,,,,,,,,,,,,,,,,,,,,6101cecdcad088615357832c,61036e79f7839d9d6cf59057,2021-07-29_22h16.11.011,Simcolourproject_2stim_asymm_v5,2020.2.10,Win32,60,61025ae37ef11b136ea224fe,,,,,,,,,411,35.20001197,-67.20000744,1,0,0,response3disk,,4,4.000011504,-2.400006473,1,0,0,rectangle,4.000011504,-2.400006473,1,0,0,4.000011504,-2.400006473,1,0,0,0,78,78,34,1,,,,,,,,
,,,,,,,,,,,,,FF,,,,,,,,1.6496,,,,,,,,,,,,,,,,,,,,,,6101cecdcad088615357832c,61036e79f7839d9d6cf59057,2021-07-29_22h16.11.011,Simcolourproject_2stim_asymm_v5,2020.2.10,Win32,60,61025ae37ef11b136ea224fe,,,,,,,,,3627,36.80001199,-64.00000739,1,0,0,response3disk,,4,2.40001148,-6.4373E-06,1,0,0,rectangle,2.40001148,-6.4373E-06,1,0,0,2.40001148,-6.4373E-06,1,0,0,0,79,79,51,1,,,,,,,,
,,,,,,,,,,,,,FF,,,,,,,,4.0154,,,,,,,,,,,,,,,,,,,,,,6101cecdcad088615357832c,61036e79f7839d9d6cf59057,2021-07-29_22h16.11.011,Simcolourproject_2stim_asymm_v5,2020.2.10,Win32,60,61025ae37ef11b136ea224fe,,,,,,,,,544,-23.1999889,-70.40000749,1,0,0,response5disk,,3,2.40001148,-8.800006568,1,0,0,rectangle,2.40001148,-8.800006568,1,0,0,2.40001148,-8.800006568,1,0,0,0,80,80,157,1,,,,,,,,
,,,,,,,,,,,,,FF,,,,,,,,0.9831,,,,,,,,,,,,,,,,,,,,,,6101cecdcad088615357832c,61036e79f7839d9d6cf59057,2021-07-29_22h16.11.011,Simcolourproject_2stim_asymm_v5,2020.2.10,Win32,60,61025ae37ef11b136ea224fe,,,,,,,,,820,35.20001197,-80.00000763,1,0,0,response3disk,,4,22.40001178,-2.400006473,1,0,0,rectangle,112.0000131,31.99999404,1,0,0,24.0000118,-5.600006521,1,0,0,0,81,81,88,1,,response1disk_3,TRUE,6,6,"[25,85,145,5,181,82,76,244,118,188,201,229,33,180,135,287,103,229,198,174]",1.7326,rectangle
,,,,,,,,,,,,,FF,,,,,,,,2.8326,,,,,,,,,,,,,,,,,,,,,,6101cecdcad088615357832c,61036e79f7839d9d6cf59057,2021-07-29_22h16.11.011,Simcolourproject_2stim_asymm_v5,2020.2.10,Win32,60,61025ae37ef11b136ea224fe,,,,,,,,,160,35.20001197,-74.40000755,1,0,0,response3disk,,4,-2.399939764,-10.40000659,1,0,0,rectangle,-2.399939764,-10.40000659,1,0,0,-2.399939764,-10.40000659,1,0,0,0,82,82,25,1,,,,,,,,
,,,,,,,,,,,,,FF,,,,,,,,1.0998,,,,,,,,,,,,,,,,,,,,,,6101cecdcad088615357832c,61036e79f7839d9d6cf59057,2021-07-29_22h16.11.011,Simcolourproject_2stim_asymm_v5,2020.2.10,Win32,60,61025ae37ef11b136ea224fe,,,,,,,,,1401,72.00001252,-32.00000691,1,0,0,response3disk,,5,30.4000119,-1.600006461,1,0,0,rectangle,30.4000119,-1.600006461,1,0,0,30.4000119,-1.600006461,1,0,0,0,83,83,78,1,,,,,,,,
,,,,,,,,,,,,,FF,,,,,,,,1.083,,,,,,,,,,,,,,,,,,,,,,6101cecdcad088615357832c,61036e79f7839d9d6cf59057,2021-07-29_22h16.11.011,Simcolourproject_2stim_asymm_v5,2020.2.10,Win32,60,61025ae37ef11b136ea224fe,,,,,,,,,1431,79.20001262,23.99999392,1,0,0,response1disk,,6,35.20001197,2.399993598,1,0,0,rectangle,-90.39994107,-40.80000705,1,0,0,-31.19998902,-1.600006461,1,0,0,0,84,84,15,1,,response5disk_3,TRUE,2,2,"[25,85,145,5,181,82,76,244,118,188,201,229,33,180,135,287,103,229,198,174]",1.7825,rectangle
,,,,,,,,,,,,,FF,,,,,,,,1.5664,,,,,,,,,,,,,,,,,,,,,,6101cecdcad088615357832c,61036e79f7839d9d6cf59057,2021-07-29_22h16.11.011,Simcolourproject_2stim_asymm_v5,2020.2.10,Win32,60,61025ae37ef11b136ea224fe,,,,,,,,,84,67.20001245,43.99999422,1,0,0,response1disk,,6,22.40001178,-7.200006545,1,0,0,rectangle,22.40001178,-7.200006545,1,0,0,22.40001178,-7.200006545,1,0,0,0,85,85,3,1,,,,,,,,
,,,,,,,,,,,,,FF,,,,,,,,2.4991,,,,,,,,,,,,,,,,,,,,,,6101cecdcad088615357832c,61036e79f7839d9d6cf59057,2021-07-29_22h16.11.011,Simcolourproject_2stim_asymm_v5,2020.2.10,Win32,60,61025ae37ef11b136ea224fe,,,,,,,,,4122,-27.99998897,-112.8000081,1,0,0,response5disk,,3,15.20001167,-1.600006461,1,0,0,rectangle,15.20001167,-1.600006461,1,0,0,15.20001167,-1.600006461,1,0,0,0,86,86,73,1,,,,,,,,
,,,,,,,,,,,,,FF,,,,,,,,2.049,,,,,,,,,,,,,,,,,,,,,,6101cecdcad088615357832c,61036e79f7839d9d6cf59057,2021-07-29_22h16.11.011,Simcolourproject_2stim_asymm_v5,2020.2.10,Win32,60,61025ae37ef11b136ea224fe,,,,,,,,,2650,29.60006071,-65.60000741,1,0,0,response3disk,,4,3.200011492,-13.60000664,1,0,0,rectangle,3.200011492,-13.60000664,1,0,0,3.200011492,-13.60000664,1,0,0,0,87,87,149,1,,,,,,,,
,,,,,,,,,,,,,FF,,,,,,,,3.4493,,,,,,,,,,,,,,,,,,,,,,6101cecdcad088615357832c,61036e79f7839d9d6cf59057,2021-07-29_22h16.11.011,Simcolourproject_2stim_asymm_v5,2020.2.10,Win32,60,61025ae37ef11b136ea224fe,,,,,,,,,766,74.40001255,-50.40000719,1,0,0,response3disk,,5,20.80001175,-8.000006557,1,0,0,rectangle,20.80001175,-8.000006557,1,0,0,20.80001175,-8.000006557,1,0,0,0,88,88,135,1,,,,,,,,
,,,,,,,,,,,,,FF,,,,,,,,0.7501,,,,,,,,,,,,,,,,,,,,,,6101cecdcad088615357832c,61036e79f7839d9d6cf59057,2021-07-29_22h16.11.011,Simcolourproject_2stim_asymm_v5,2020.2.10,Win32,60,61025ae37ef11b136ea224fe,,,,,,,,,3026,58.40001231,-44.8000071,1,0,0,response3disk,,5,19.20001173,-8.000006557,1,0,0,rectangle,19.20001173,-8.000006557,1,0,0,19.20001173,-8.000006557,1,0,0,0,89,89,44,1,,,,,,,,
,,,,,,,,,,,,,FF,,,,,,,,2.2165,,,,,,,,,,,,,,,,,,,,,,6101cecdcad088615357832c,61036e79f7839d9d6cf59057,2021-07-29_22h16.11.011,Simcolourproject_2stim_asymm_v5,2020.2.10,Win32,60,61025ae37ef11b136ea224fe,,,,,,,,,3864,47.20001215,-35.20000696,1,0,0,response3disk,,5,8.000011563,0.799993575,1,0,0,rectangle,8.000011563,0.799993575,1,0,0,8.000011563,0.799993575,1,0,0,0,90,90,74,1,,,,,,,,
,,,,,,,,,,,,,FF,,,,,,,,1.1495,,,,,,,,,,,,,,,,,,,,,,6101cecdcad088615357832c,61036e79f7839d9d6cf59057,2021-07-29_22h16.11.011,Simcolourproject_2stim_asymm_v5,2020.2.10,Win32,60,61025ae37ef11b136ea224fe,,,,,,,,,2111,65.60001242,-32.00000691,1,0,0,response3disk,,5,29.60006071,-8.000006557,1,0,0,rectangle,29.60006071,-8.000006557,1,0,0,29.60006071,-8.000006557,1,0,0,0,91,91,20,1,,,,,,,,
,,,,,,,,,,,,,FF,,,,,,,,1.2833,,,,,,,,,,,,,,,,,,,,,,6101cecdcad088615357832c,61036e79f7839d9d6cf59057,2021-07-29_22h16.11.011,Simcolourproject_2stim_asymm_v5,2020.2.10,Win32,60,61025ae37ef11b136ea224fe,,,,,,,,,3709,-34.39994024,-96.80000788,1,0,0,response5disk,,3,13.60006047,-8.800006568,1,0,0,rectangle,13.60006047,-8.800006568,1,0,0,13.60006047,-8.800006568,1,0,0,0,92,92,106,1,,,,,,,,
,,,,,,,,,,,,,FF,,,,,,,,1.8658,,,,,,,,,,,,,,,,,,,,,,6101cecdcad088615357832c,61036e79f7839d9d6cf59057,2021-07-29_22h16.11.011,Simcolourproject_2stim_asymm_v5,2020.2.10,Win32,60,61025ae37ef11b136ea224fe,,,,,,,,,1987,81.60001266,-42.40000707,1,0,0,response3disk,,5,21.60006059,-6.400006533,1,0,0,rectangle,21.60006059,-6.400006533,1,0,0,21.60006059,-6.400006533,1,0,0,0,93,93,129,1,,,,,,,,
,,,,,,,,,,,,,FF,,,,,,,,1.0666,,,,,,,,,,,,,,,,,,,,,,6101cecdcad088615357832c,61036e79f7839d9d6cf59057,2021-07-29_22h16.11.011,Simcolourproject_2stim_asymm_v5,2020.2.10,Win32,60,61025ae37ef11b136ea224fe,,,,,,,,,97,-42.39994036,-84.00000769,1,0,0,response5disk,,3,-6.399939823,-8.800006568,1,0,0,rectangle,-6.399939823,-8.800006568,1,0,0,-6.399939823,-8.800006568,1,0,0,0,94,94,41,1,,,,,,,,
,,,,,,,,,,,,,FF,,,,,,,,1.15,,,,,,,,,,,,,,,,,,,,,,6101cecdcad088615357832c,61036e79f7839d9d6cf59057,2021-07-29_22h16.11.011,Simcolourproject_2stim_asymm_v5,2020.2.10,Win32,60,61025ae37ef11b136ea224fe,,,,,,,,,1578,67.20001245,-32.00000691,1,0,0,response3disk,,5,21.60006059,-1.600006461,1,0,0,rectangle,21.60006059,-1.600006461,1,0,0,21.60006059,-1.600006461,1,0,0,0,95,95,61,1,,,,,,,,
,,,,,,,,,,,,,FF,,,,,,,,1.3663,,,,,,,,,,,,,,,,,,,,,,6101cecdcad088615357832c,61036e79f7839d9d6cf59057,2021-07-29_22h16.11.011,Simcolourproject_2stim_asymm_v5,2020.2.10,Win32,60,61025ae37ef11b136ea224fe,,,,,,,,,2694,64.0000124,25.59999394,1,0,0,response1disk,,6,12.80001163,-8.000006557,1,0,0,rectangle,12.80001163,-8.000006557,1,0,0,12.80001163,-8.000006557,1,0,0,0,96,96,24,1,,,,,,,,
,,,,,,,,,,,,,FF,,,,,,,,1.1665,,,,,,,,,,,,,,,,,,,,,,6101cecdcad088615357832c,61036e79f7839d9d6cf59057,2021-07-29_22h16.11.011,Simcolourproject_2stim_asymm_v5,2020.2.10,Win32,60,61025ae37ef11b136ea224fe,,,,,,,,,1488,75.20001256,34.39999408,1,0,0,response1disk,,6,24.80001181,-7.200006545,1,0,0,rectangle,24.80001181,-7.200006545,1,0,0,24.80001181,-7.200006545,1,0,0,0,97,97,138,1,,,,,,,,
,,,,,,,,,,,,,FF,,,,,,,,4.8321,,,,,,,,,,,,,,,,,,,,,,6101cecdcad088615357832c,61036e79f7839d9d6cf59057,2021-07-29_22h16.11.011,Simcolourproject_2stim_asymm_v5,2020.2.10,Win32,60,61025ae37ef11b136ea224fe,,,,,,,,,318,77.6000126,31.19996961,1,0,0,response1disk,,6,24.80001181,-12.00000662,1,0,0,rectangle,24.80001181,-12.00000662,1,0,0,24.80001181,-12.00000662,1,0,0,0,98,98,87,1,,,,,,,,
,,,,,,,,,,,,,FF,,,,,,,,1.3332,,,,,,,,,,,,,,,,,,,,,,6101cecdcad088615357832c,61036e79f7839d9d6cf59057,2021-07-29_22h16.11.011,Simcolourproject_2stim_asymm_v5,2020.2.10,Win32,60,61025ae37ef11b136ea224fe,,,,,,,,,3037,-64.79998952,-41.60000706,1,0,0,response5disk,,2,-0.799988568,10.39999372,1,0,0,rectangle,-0.799988568,10.39999372,1,0,0,-0.799988568,10.39999372,1,0,0,0,99,99,22,1,,,,,,,,
,,,,,,,,,,,,,FF,,,,,,,,1.25,,,,,,,,,,,,,,,,,,,,,,6101cecdcad088615357832c,61036e79f7839d9d6cf59057,2021-07-29_22h16.11.011,Simcolourproject_2stim_asymm_v5,2020.2.10,Win32,60,61025ae37ef11b136ea224fe,,,,,,,,,1228,-51.19998932,-38.40000701,1,0,0,response5disk,,2,6.400011539,2.399993598,1,0,0,rectangle,6.400011539,2.399993598,1,0,0,6.400011539,2.399993598,1,0,0,0,100,100,112,1,,,,,,,,
,,,,,,,,,,,,,FF,,,,,,,,0.883,,,,,,,,,,,,,,,,,,,,,,6101cecdcad088615357832c,61036e79f7839d9d6cf59057,2021-07-29_22h16.11.011,Simcolourproject_2stim_asymm_v5,2020.2.10,Win32,60,61025ae37ef11b136ea224fe,,,,,,,,,441,-59.99998945,-43.20000708,1,0,0,response5disk,,2,-2.399939764,-8.800006568,1,0,0,rectangle,-2.399939764,-8.800006568,1,0,0,-2.399939764,-8.800006568,1,0,0,0,101,101,123,1,,,,,,,,
,,,,,,,,,,,,,FF,,,,,,,,1.1995,,,,,,,,,,,,,,,,,,,,,,6101cecdcad088615357832c,61036e79f7839d9d6cf59057,2021-07-29_22h16.11.011,Simcolourproject_2stim_asymm_v5,2020.2.10,Win32,60,61025ae37ef11b136ea224fe,,,,,,,,,0,-80.79998976,31.99999404,1,0,0,response7disk,,1,-8.799988687,3.19999361,1,0,0,rectangle,68.80001247,-30.40000689,1,0,0,5.600060356,-4.000006497,1,0,0,0,102,102,147,1,,response3disk_3,TRUE,5,5,"[25,85,145,5,181,82,76,244,118,188,201,229,33,180,135,287,103,229,198,174]",2.3326,rectangle
,,,,,,,,,,,,,FF,,,,,,,,1.3662,,,,,,,,,,,,,,,,,,,,,,6101cecdcad088615357832c,61036e79f7839d9d6cf59057,2021-07-29_22h16.11.011,Simcolourproject_2stim_asymm_v5,2020.2.10,Win32,60,61025ae37ef11b136ea224fe,,,,,,,,,1602,-81.59998977,-60.80000734,1,0,0,response5disk,,2,-8.799988687,-11.2000066,1,0,0,rectangle,-8.799988687,-11.2000066,1,0,0,-8.799988687,-11.2000066,1,0,0,0,103,103,145,1,,,,,,,,
,,,,,,,,,,,,,FF,,,,,,,,1.35,,,,,,,,,,,,,,,,,,,,,,6101cecdcad088615357832c,61036e79f7839d9d6cf59057,2021-07-29_22h16.11.011,Simcolourproject_2stim_asymm_v5,2020.2.10,Win32,60,61025ae37ef11b136ea224fe,,,,,,,,,1197,26.40001184,-69.60000747,1,0,0,response3disk,,4,3.200011492,-2.400006473,1,0,0,rectangle,3.200011492,-2.400006473,1,0,0,3.200011492,-2.400006473,1,0,0,0,104,104,27,1,,,,,,,,
,,,,,,,,,,,,,FF,,,,,,,,1.3831,,,,,,,,,,,,,,,,,,,,,,6101cecdcad088615357832c,61036e79f7839d9d6cf59057,2021-07-29_22h16.11.011,Simcolourproject_2stim_asymm_v5,2020.2.10,Win32,60,61025ae37ef11b136ea224fe,,,,,,,,,3858,64.80001241,-39.20000702,1,0,0,response3disk,,5,13.60006047,-4.000006497,1,0,0,rectangle,13.60006047,-4.000006497,1,0,0,13.60006047,-4.000006497,1,0,0,0,105,105,140,1,,,,,,,,
,,,,,,,,,,,,,FF,,,,,,,,1.1996,,,,,,,,,,,,,,,,,,,,,,6101cecdcad088615357832c,61036e79f7839d9d6cf59057,2021-07-29_22h16.11.011,Simcolourproject_2stim_asymm_v5,2020.2.10,Win32,60,61025ae37ef11b136ea224fe,,,,,,,,,2000,75.20001256,28.79999399,1,0,0,response1disk,,6,19.20001173,-6.400006533,1,0,0,rectangle,19.20001173,-6.400006533,1,0,0,19.20001173,-6.400006533,1,0,0,0,106,106,102,1,,,,,,,,
,,,,,,,,,,,,,FF,,,,,,,,1.4829,,,,,,,,,,,,,,,,,,,,,,6101cecdcad088615357832c,61036e79f7839d9d6cf59057,2021-07-29_22h16.11.011,Simcolourproject_2stim_asymm_v5,2020.2.10,Win32,60,61025ae37ef11b136ea224fe,,,,,,,,,1930,-25.59998894,-87.20000774,1,0,0,response5disk,,3,10.4000116,-15.20000666,1,0,0,rectangle,10.4000116,-15.20000666,1,0,0,10.4000116,-15.20000666,1,0,0,0,107,107,4,1,,,,,,,,
,,,,,,,,,,,,,FF,,,,,,,,0.8004,,,,,,,,,,,,,,,,,,,,,,6101cecdcad088615357832c,61036e79f7839d9d6cf59057,2021-07-29_22h16.11.011,Simcolourproject_2stim_asymm_v5,2020.2.10,Win32,60,61025ae37ef11b136ea224fe,,,,,,,,,1775,-32.79998904,-73.60000753,1,0,0,response5disk,,3,3.200011492,9.599993706,1,0,0,rectangle,3.200011492,9.599993706,1,0,0,3.200011492,9.599993706,1,0,0,0,108,108,50,1,,,,,,,,
,,,,,,,,,,,,,FF,,,,,,,,1.8989,,,,,,,,,,,,,,,,,,,,,,6101cecdcad088615357832c,61036e79f7839d9d6cf59057,2021-07-29_22h16.11.011,Simcolourproject_2stim_asymm_v5,2020.2.10,Win32,60,61025ae37ef11b136ea224fe,,,,,,,,,1980,66.40001243,-50.40000719,1,0,0,response3disk,,5,4.000011504,-8.800006568,1,0,0,rectangle,4.000011504,-8.800006568,1,0,0,4.000011504,-8.800006568,1,0,0,0,109,109,151,1,,,,,,,,
,,,,,,,,,,,,,FF,,,,,,,,2.1502,,,,,,,,,,,,,,,,,,,,,,6101cecdcad088615357832c,61036e79f7839d9d6cf59057,2021-07-29_22h16.11.011,Simcolourproject_2stim_asymm_v5,2020.2.10,Win32,60,61025ae37ef11b136ea224fe,,,,,,,,,4342,62.40001237,-36.80000699,1,0,0,response3disk,,5,-0.799988568,-13.60000664,1,0,0,rectangle,-0.799988568,-13.60000664,1,0,0,-0.799988568,-13.60000664,1,0,0,0,110,110,89,1,,,,,,,,
,,,,,,,,,,,,,FF,,,,,,,,2.3159,,,,,,,,,,,,,,,,,,,,,,6101cecdcad088615357832c,61036e79f7839d9d6cf59057,2021-07-29_22h16.11.011,Simcolourproject_2stim_asymm_v5,2020.2.10,Win32,60,61025ae37ef11b136ea224fe,,,,,,,,,439,-34.39994024,-92.80000782,1,0,0,response5disk,,3,-15.99998879,-4.000006497,1,0,0,rectangle,-15.99998879,-4.000006497,1,0,0,-15.99998879,-4.000006497,1,0,0,0,111,111,14,1,,,,,,,,
,,,,,,,,,,,,,FF,,,,,,,,1.8163,,,,,,,,,,,,,,,,,,,,,,6101cecdcad088615357832c,61036e79f7839d9d6cf59057,2021-07-29_22h16.11.011,Simcolourproject_2stim_asymm_v5,2020.2.10,Win32,60,61025ae37ef11b136ea224fe,,,,,,,,,3278,25.60006065,-68.80000746,1,0,0,response3disk,,4,7.200011551,-5.600006521,1,0,0,rectangle,7.200011551,-5.600006521,1,0,0,7.200011551,-5.600006521,1,0,0,0,112,112,66,1,,,,,,,,
,,,,,,,,,,,,,FF,,,,,,,,0.8497,,,,,,,,,,,,,,,,,,,,,,6101cecdcad088615357832c,61036e79f7839d9d6cf59057,2021-07-29_22h16.11.011,Simcolourproject_2stim_asymm_v5,2020.2.10,Win32,60,61025ae37ef11b136ea224fe,,,,,,,,,4052,-59.19998944,-83.20000768,1,0,0,response5disk,,3,3.200011492,-14.40000665,1,0,0,rectangle,3.200011492,-14.40000665,1,0,0,3.200011492,-14.40000665,1,0,0,0,113,113,65,1,,,,,,,,
,,,,,,,,,,,,,FF,,,,,,,,1.9824,,,,,,,,,,,,,,,,,,,,,,6101cecdcad088615357832c,61036e79f7839d9d6cf59057,2021-07-29_22h16.11.011,Simcolourproject_2stim_asymm_v5,2020.2.10,Win32,60,61025ae37ef11b136ea224fe,,,,,,,,,1633,91.2000128,35.9999941,1,0,0,response1disk,,6,11.20001161,1.599993587,1,0,0,rectangle,11.20001161,1.599993587,1,0,0,11.20001161,1.599993587,1,0,0,0,114,114,53,1,,,,,,,,
,,,,,,,,,,,,,FF,,,,,,,,2.2323,,,,,,,,,,,,,,,,,,,,,,6101cecdcad088615357832c,61036e79f7839d9d6cf59057,2021-07-29_22h16.11.011,Simcolourproject_2stim_asymm_v5,2020.2.10,Win32,60,61025ae37ef11b136ea224fe,,,,,,,,,4044,65.60001242,-46.40000713,1,0,0,response3disk,,5,24.80001181,-14.40000665,1,0,0,rectangle,24.80001181,-14.40000665,1,0,0,24.80001181,-14.40000665,1,0,0,0,115,115,137,1,,,,,,,,
,,,,,,,,,,,,,FF,,,,,,,,1.0332,,,,,,,,,,,,,,,,,,,,,,6101cecdcad088615357832c,61036e79f7839d9d6cf59057,2021-07-29_22h16.11.011,Simcolourproject_2stim_asymm_v5,2020.2.10,Win32,60,61025ae37ef11b136ea224fe,,,,,,,,,993,62.40001237,-28.00000685,1,0,0,response3disk,,5,14.40001166,3.19999361,1,0,0,rectangle,14.40001166,3.19999361,1,0,0,14.40001166,3.19999361,1,0,0,0,116,116,156,1,,,,,,,,
,,,,,,,,,,,,,FF,,,,,,,,1.3496,,,,,,,,,,,,,,,,,,,,,,6101cecdcad088615357832c,61036e79f7839d9d6cf59057,2021-07-29_22h16.11.011,Simcolourproject_2stim_asymm_v5,2020.2.10,Win32,60,61025ae37ef11b136ea224fe,,,,,,,,,1199,47.20001215,-79.20000762,1,0,0,response3disk,,4,-1.59998858,0.799993575,1,0,0,rectangle,43.20001209,96.79999501,1,0,0,23.20001179,7.999993682,1,0,0,0,117,117,99,1,,response1disk_3,TRUE,7,7,"[25,85,145,5,181,82,76,244,118,188,201,229,33,180,135,287,103,229,198,174]",1.4156,rectangle
,,,,,,,,,,,,,FF,,,,,,,,1.7995,,,,,,,,,,,,,,,,,,,,,,6101cecdcad088615357832c,61036e79f7839d9d6cf59057,2021-07-29_22h16.11.011,Simcolourproject_2stim_asymm_v5,2020.2.10,Win32,60,61025ae37ef11b136ea224fe,,,,,,,,,3072,74.40001255,-45.60000712,1,0,0,response3disk,,5,11.20001161,-13.60000664,1,0,0,rectangle,11.20001161,-13.60000664,1,0,0,11.20001161,-13.60000664,1,0,0,0,118,118,47,1,,,,,,,,
,,,,,,,,,,,,,FF,,,,,,,,3.999,,,,,,,,,,,,,,,,,,,,,,6101cecdcad088615357832c,61036e79f7839d9d6cf59057,2021-07-29_22h16.11.011,Simcolourproject_2stim_asymm_v5,2020.2.10,Win32,60,61025ae37ef11b136ea224fe,,,,,,,,,2078,62.40001237,-34.40000695,1,0,0,response3disk,,5,8.000011563,7.999993682,1,0,0,rectangle,8.000011563,7.999993682,1,0,0,8.000011563,7.999993682,1,0,0,0,119,119,131,1,,,,,,,,
,,,,,,,,,,,,,FF,,,,,,,,1.8991,,,,,,,,,,,,,,,,,,,,,,6101cecdcad088615357832c,61036e79f7839d9d6cf59057,2021-07-29_22h16.11.011,Simcolourproject_2stim_asymm_v5,2020.2.10,Win32,60,61025ae37ef11b136ea224fe,,,,,,,,,3103,24.80001181,-79.20000762,1,0,0,response3disk,,4,-15.19998878,1.599993587,1,0,0,rectangle,-15.19998878,1.599993587,1,0,0,-15.19998878,1.599993587,1,0,0,0,120,120,130,1,,,,,,,,
,,,,,,,,,,,,,FF,,,,,,,,1.1333,,,,,,,,,,,,,,,,,,,,,,6101cecdcad088615357832c,61036e79f7839d9d6cf59057,2021-07-29_22h16.11.011,Simcolourproject_2stim_asymm_v5,2020.2.10,Win32,60,61025ae37ef11b136ea224fe,,,,,,,,,3523,38.40001202,-60.80000734,1,0,0,response3disk,,4,3.200011492,-7.200006545,1,0,0,rectangle,3.200011492,-7.200006545,1,0,0,3.200011492,-7.200006545,1,0,0,0,121,121,45,1,,,,,,,,
,,,,,,,,,,,,,FF,,,,,,,,1.6493,,,,,,,,,,,,,,,,,,,,,,6101cecdcad088615357832c,61036e79f7839d9d6cf59057,2021-07-29_22h16.11.011,Simcolourproject_2stim_asymm_v5,2020.2.10,Win32,60,61025ae37ef11b136ea224fe,,,,,,,,,2046,30.4000119,-45.60000712,1,0,0,response3disk,,4,14.40001166,-4.800006509,1,0,0,rectangle,14.40001166,-4.800006509,1,0,0,14.40001166,-4.800006509,1,0,0,0,122,122,144,1,,,,,,,,
,,,,,,,,,,,,,FF,,,,,,,,1.8824,,,,,,,,,,,,,,,,,,,,,,6101cecdcad088615357832c,61036e79f7839d9d6cf59057,2021-07-29_22h16.11.011,Simcolourproject_2stim_asymm_v5,2020.2.10,Win32,60,61025ae37ef11b136ea224fe,,,,,,,,,2987,-53.59998935,-86.40000772,1,0,0,response5disk,,3,-7.199988663,-11.2000066,1,0,0,rectangle,-7.199988663,-11.2000066,1,0,0,-7.199988663,-11.2000066,1,0,0,0,123,123,69,1,,,,,,,,
,,,,,,,,,,,,,FF,,,,,,,,0.9662,,,,,,,,,,,,,,,,,,,,,,6101cecdcad088615357832c,61036e79f7839d9d6cf59057,2021-07-29_22h16.11.011,Simcolourproject_2stim_asymm_v5,2020.2.10,Win32,60,61025ae37ef11b136ea224fe,,,,,,,,,2743,38.40001202,-73.60000753,1,0,0,response3disk,,4,20.00001174,-5.600006521,1,0,0,rectangle,20.00001174,-5.600006521,1,0,0,20.00001174,-5.600006521,1,0,0,0,124,124,63,1,,,,,,,,
,,,,,,,,,,,,,FF,,,,,,,,1.1168,,,,,,,,,,,,,,,,,,,,,,6101cecdcad088615357832c,61036e79f7839d9d6cf59057,2021-07-29_22h16.11.011,Simcolourproject_2stim_asymm_v5,2020.2.10,Win32,60,61025ae37ef11b136ea224fe,,,,,,,,,2466,84.0000127,-25.60000682,1,0,0,response3disk,,5,36.80001199,-0.800006449,1,0,0,rectangle,36.80001199,-0.800006449,1,0,0,36.80001199,-0.800006449,1,0,0,0,125,125,76,1,,,,,,,,
,,,,,,,,,,,,,FF,,,,,,,,1.5999,,,,,,,,,,,,,,,,,,,,,,6101cecdcad088615357832c,61036e79f7839d9d6cf59057,2021-07-29_22h16.11.011,Simcolourproject_2stim_asymm_v5,2020.2.10,Win32,60,61025ae37ef11b136ea224fe,,,,,,,,,3930,78.40001261,36.79999411,1,0,0,response1disk,,6,26.40001184,0.799993575,1,0,0,rectangle,26.40001184,0.799993575,1,0,0,26.40001184,0.799993575,1,0,0,0,126,126,120,1,,,,,,,,
,,,,,,,,,,,,,FF,,,,,,,,0.6832,,,,,,,,,,,,,,,,,,,,,,6101cecdcad088615357832c,61036e79f7839d9d6cf59057,2021-07-29_22h16.11.011,Simcolourproject_2stim_asymm_v5,2020.2.10,Win32,60,61025ae37ef11b136ea224fe,,,,,,,,,1168,56.00001228,32.79999405,1,0,0,response1disk,,6,9.600060415,-4.800006509,1,0,0,rectangle,9.600060415,-4.800006509,1,0,0,9.600060415,-4.800006509,1,0,0,0,127,127,77,1,,,,,,,,
,,,,,,,,,,,,,FF,,,,,,,,1.1162,,,,,,,,,,,,,,,,,,,,,,6101cecdcad088615357832c,61036e79f7839d9d6cf59057,2021-07-29_22h16.11.011,Simcolourproject_2stim_asymm_v5,2020.2.10,Win32,60,61025ae37ef11b136ea224fe,,,,,,,,,3441,70.40001249,31.19996961,1,0,0,response1disk,,6,35.20001197,-3.200006485,1,0,0,rectangle,35.20001197,-3.200006485,1,0,0,35.20001197,-3.200006485,1,0,0,0,128,128,64,1,,,,,,,,
,,,,,,,,,,,,,FF,,,,,,,,1.8162,,,,,,,,,,,,,,,,,,,,,,6101cecdcad088615357832c,61036e79f7839d9d6cf59057,2021-07-29_22h16.11.011,Simcolourproject_2stim_asymm_v5,2020.2.10,Win32,60,61025ae37ef11b136ea224fe,,,,,,,,,2164,-25.59998894,-94.40000784,1,0,0,response5disk,,3,16.80001169,-11.2000066,1,0,0,rectangle,16.80001169,-11.2000066,1,0,0,16.80001169,-11.2000066,1,0,0,0,129,129,107,1,,,,,,,,
,,,,,,,,,,,,,FF,,,,,,,,1.6658,,,,,,,,,,,,,,,,,,,,,,6101cecdcad088615357832c,61036e79f7839d9d6cf59057,2021-07-29_22h16.11.011,Simcolourproject_2stim_asymm_v5,2020.2.10,Win32,60,61025ae37ef11b136ea224fe,,,,,,,,,538,67.20001245,-44.00000709,1,0,0,response3disk,,5,1.14441E-05,-4.000006497,1,0,0,rectangle,1.14441E-05,-4.000006497,1,0,0,1.14441E-05,-4.000006497,1,0,0,0,130,130,58,1,,,,,,,,
,,,,,,,,,,,,,FF,,,,,,,,0.9827,,,,,,,,,,,,,,,,,,,,,,6101cecdcad088615357832c,61036e79f7839d9d6cf59057,2021-07-29_22h16.11.011,Simcolourproject_2stim_asymm_v5,2020.2.10,Win32,60,61025ae37ef11b136ea224fe,,,,,,,,,1724,45.60006095,-34.40000695,1,0,0,response3disk,,5,11.20001161,-9.60000658,1,0,0,rectangle,11.20001161,-9.60000658,1,0,0,11.20001161,-9.60000658,1,0,0,0,131,131,49,1,,,,,,,,
,,,,,,,,,,,,,FF,,,,,,,,2.3829,,,,,,,,,,,,,,,,,,,,,,6101cecdcad088615357832c,61036e79f7839d9d6cf59057,2021-07-29_22h16.11.011,Simcolourproject_2stim_asymm_v5,2020.2.10,Win32,60,61025ae37ef11b136ea224fe,,,,,,,,,3746,-72.79998964,-61.60000736,1,0,0,response5disk,,2,-14.39993994,-0.800006449,1,0,0,rectangle,-14.39993994,-0.800006449,1,0,0,-14.39993994,-0.800006449,1,0,0,0,132,132,95,1,,,,,,,,
,,,,,,,,,,,,,FF,,,,,,,,0.8498,,,,,,,,,,,,,,,,,,,,,,6101cecdcad088615357832c,61036e79f7839d9d6cf59057,2021-07-29_22h16.11.011,Simcolourproject_2stim_asymm_v5,2020.2.10,Win32,60,61025ae37ef11b136ea224fe,,,,,,,,,1629,88.00001276,-51.2000072,1,0,0,response3disk,,5,14.40001166,-8.000006557,1,0,0,rectangle,14.40001166,-8.000006557,1,0,0,14.40001166,-8.000006557,1,0,0,0,133,133,59,1,,,,,,,,
,,,,,,,,,,,,,FF,,,,,,,,1.016,,,,,,,,,,,,,,,,,,,,,,6101cecdcad088615357832c,61036e79f7839d9d6cf59057,2021-07-29_22h16.11.011,Simcolourproject_2stim_asymm_v5,2020.2.10,Win32,60,61025ae37ef11b136ea224fe,,,,,,,,,3122,60.80001235,31.99999404,1,0,0,response1disk,,6,20.00001174,-7.200006545,1,0,0,rectangle,-81.59998977,30.39999402,1,0,0,-15.19998878,3.19999361,1,0,0,0,134,134,28,1,,response7disk_3,TRUE,1,1,"[25,85,145,5,181,82,76,244,118,188,201,229,33,180,135,287,103,229,198,174]",1.4657,rectangle
,,,,,,,,,,,,,FF,,,,,,,,2.749,,,,,,,,,,,,,,,,,,,,,,6101cecdcad088615357832c,61036e79f7839d9d6cf59057,2021-07-29_22h16.11.011,Simcolourproject_2stim_asymm_v5,2020.2.10,Win32,60,61025ae37ef11b136ea224fe,,,,,,,,,1920,56.80001229,-26.40000683,1,0,0,response3disk,,5,1.14441E-05,-6.4373E-06,1,0,0,rectangle,1.14441E-05,-6.4373E-06,1,0,0,1.14441E-05,-6.4373E-06,1,0,0,0,135,135,12,1,,,,,,,,
,,,,,,,,,,,,,FF,,,,,,,,0.8678,,,,,,,,,,,,,,,,,,,,,,6101cecdcad088615357832c,61036e79f7839d9d6cf59057,2021-07-29_22h16.11.011,Simcolourproject_2stim_asymm_v5,2020.2.10,Win32,60,61025ae37ef11b136ea224fe,,,,,,,,,2913,60.80001235,-36.00000697,1,0,0,response3disk,,5,9.600060415,-8.000006557,1,0,0,rectangle,9.600060415,-8.000006557,1,0,0,9.600060415,-8.000006557,1,0,0,0,136,136,94,1,,,,,,,,
,,,,,,,,,,,,,FF,,,,,,,,1.0993,,,,,,,,,,,,,,,,,,,,,,6101cecdcad088615357832c,61036e79f7839d9d6cf59057,2021-07-29_22h16.11.011,Simcolourproject_2stim_asymm_v5,2020.2.10,Win32,60,61025ae37ef11b136ea224fe,,,,,,,,,2665,24.80001181,-64.8000074,1,0,0,response3disk,,4,-11.19998872,-4.800006509,1,0,0,rectangle,-11.19998872,-4.800006509,1,0,0,-11.19998872,-4.800006509,1,0,0,0,137,137,150,1,,,,,,,,
,,,,,,,,,,,,,FF,,,,,,,,0.9834,,,,,,,,,,,,,,,,,,,,,,6101cecdcad088615357832c,61036e79f7839d9d6cf59057,2021-07-29_22h16.11.011,Simcolourproject_2stim_asymm_v5,2020.2.10,Win32,60,61025ae37ef11b136ea224fe,,,,,,,,,1375,-45.59998924,-89.6000566,1,0,0,response5disk,,3,-14.39993994,-4.000006497,1,0,0,rectangle,-14.39993994,-4.000006497,1,0,0,-14.39993994,-4.000006497,1,0,0,0,138,138,57,1,,,,,,,,
,,,,,,,,,,,,,FF,,,,,,,,2.4658,,,,,,,,,,,,,,,,,,,,,,6101cecdcad088615357832c,61036e79f7839d9d6cf59057,2021-07-29_22h16.11.011,Simcolourproject_2stim_asymm_v5,2020.2.10,Win32,60,61025ae37ef11b136ea224fe,,,,,,,,,3888,68.80001247,-44.8000071,1,0,0,response3disk,,5,20.00001174,-5.600006521,1,0,0,rectangle,20.00001174,-5.600006521,1,0,0,20.00001174,-5.600006521,1,0,0,0,139,139,86,1,,,,,,,,
,,,,,,,,,,,,,FF,,,,,,,,0.6167,,,,,,,,,,,,,,,,,,,,,,6101cecdcad088615357832c,61036e79f7839d9d6cf59057,2021-07-29_22h16.11.011,Simcolourproject_2stim_asymm_v5,2020.2.10,Win32,60,61025ae37ef11b136ea224fe,,,,,,,,,2805,47.20001215,-32.80000693,1,0,0,response3disk,,5,-11.99998873,8.799993694,1,0,0,rectangle,-11.99998873,8.799993694,1,0,0,-11.99998873,8.799993694,1,0,0,0,140,140,72,1,,,,,,,,
,,,,,,,,,,,,,FF,,,,,,,,1.7167,,,,,,,,,,,,,,,,,,,,,,6101cecdcad088615357832c,61036e79f7839d9d6cf59057,2021-07-29_22h16.11.011,Simcolourproject_2stim_asymm_v5,2020.2.10,Win32,60,61025ae37ef11b136ea224fe,,,,,,,,,3951,44.0000121,-24.00000679,1,0,0,response3disk,,5,10.4000116,7.19999367,1,0,0,rectangle,10.4000116,7.19999367,1,0,0,10.4000116,7.19999367,1,0,0,0,141,141,152,1,,,,,,,,
,,,,,,,,,,,,,FF,,,,,,,,1.0329,,,,,,,,,,,,,,,,,,,,,,6101cecdcad088615357832c,61036e79f7839d9d6cf59057,2021-07-29_22h16.11.011,Simcolourproject_2stim_asymm_v5,2020.2.10,Win32,60,61025ae37ef11b136ea224fe,,,,,,,,,2003,67.20001245,31.19996961,1,0,0,response1disk,,6,13.60006047,-2.400006473,1,0,0,rectangle,13.60006047,-2.400006473,1,0,0,13.60006047,-2.400006473,1,0,0,0,142,142,39,1,,,,,,,,
,,,,,,,,,,,,,FF,,,,,,,,4.965,,,,,,,,,,,,,,,,,,,,,,6101cecdcad088615357832c,61036e79f7839d9d6cf59057,2021-07-29_22h16.11.011,Simcolourproject_2stim_asymm_v5,2020.2.10,Win32,60,61025ae37ef11b136ea224fe,,,,,,,,,2638,68.80001247,37.59999412,1,0,0,response1disk,,6,15.20001167,0.799993575,1,0,0,rectangle,15.20001167,0.799993575,1,0,0,15.20001167,0.799993575,1,0,0,0,143,143,148,1,,,,,,,,
,,,,,,,,,,,,,FF,,,,,,,,0.6335,,,,,,,,,,,,,,,,,,,,,,6101cecdcad088615357832c,61036e79f7839d9d6cf59057,2021-07-29_22h16.11.011,Simcolourproject_2stim_asymm_v5,2020.2.10,Win32,60,61025ae37ef11b136ea224fe,,,,,,,,,2567,64.80001241,27.99999398,1,0,0,response1disk,,6,20.00001174,-4.000006497,1,0,0,rectangle,-30.39994018,90.39999491,1,0,0,13.60006047,3.999993622,1,0,0,0,144,144,0,1,,response7disk_3,TRUE,0,0,"[25,85,145,5,181,82,76,244,118,188,201,229,33,180,135,287,103,229,198,174]",1.3494,rectangle
,,,,,,,,,,,,,FF,,,,,,,,2.1666,,,,,,,,,,,,,,,,,,,,,,6101cecdcad088615357832c,61036e79f7839d9d6cf59057,2021-07-29_22h16.11.011,Simcolourproject_2stim_asymm_v5,2020.2.10,Win32,60,61025ae37ef11b136ea224fe,,,,,,,,,1245,65.60001242,36.79999411,1,0,0,response1disk,,6,4.800011516,4.799993634,1,0,0,rectangle,4.800011516,4.799993634,1,0,0,4.800011516,4.799993634,1,0,0,0,145,145,132,1,,,,,,,,
,,,,,,,,,,,,,FF,,,,,,,,1.1997,,,,,,,,,,,,,,,,,,,,,,6101cecdcad088615357832c,61036e79f7839d9d6cf59057,2021-07-29_22h16.11.011,Simcolourproject_2stim_asymm_v5,2020.2.10,Win32,60,61025ae37ef11b136ea224fe,,,,,,,,,2200,69.60001248,32.79999405,1,0,0,response1disk,,6,18.40001172,-4.800006509,1,0,0,rectangle,18.40001172,-4.800006509,1,0,0,18.40001172,-4.800006509,1,0,0,0,146,146,146,1,,,,,,,,
,,,,,,,,,,,,,FF,,,,,,,,3.1161,,,,,,,,,,,,,,,,,,,,,,6101cecdcad088615357832c,61036e79f7839d9d6cf59057,2021-07-29_22h16.11.011,Simcolourproject_2stim_asymm_v5,2020.2.10,Win32,60,61025ae37ef11b136ea224fe,,,,,,,,,370,112.8000131,-42.40000707,1,0,0,response3disk,,5,20.00001174,-4.000006497,1,0,0,rectangle,20.00001174,-4.000006497,1,0,0,20.00001174,-4.000006497,1,0,0,0,147,147,68,1,,,,,,,,
,,,,,,,,,,,,,FF,,,,,,,,1.0998,,,,,,,,,,,,,,,,,,,,,,6101cecdcad088615357832c,61036e79f7839d9d6cf59057,2021-07-29_22h16.11.011,Simcolourproject_2stim_asymm_v5,2020.2.10,Win32,60,61025ae37ef11b136ea224fe,,,,,,,,,1634,88.80001277,34.39999408,1,0,0,response1disk,,6,28.00001186,-4.000006497,1,0,0,rectangle,28.00001186,-4.000006497,1,0,0,28.00001186,-4.000006497,1,0,0,0,148,148,46,1,,,,,,,,
,,,,,,,,,,,,,FF,,,,,,,,2.4326,,,,,,,,,,,,,,,,,,,,,,6101cecdcad088615357832c,61036e79f7839d9d6cf59057,2021-07-29_22h16.11.011,Simcolourproject_2stim_asymm_v5,2020.2.10,Win32,60,61025ae37ef11b136ea224fe,,,,,,,,,3241,73.60001254,-28.80000687,1,0,0,response3disk,,5,29.60006071,-15.20000666,1,0,0,rectangle,29.60006071,-15.20000666,1,0,0,29.60006071,-15.20000666,1,0,0,0,149,149,85,1,,,,,,,,
,,,,,,,,,,,,,FF,,,,,,,,1.0165,,,,,,,,,,,,,,,,,,,,,,6101cecdcad088615357832c,61036e79f7839d9d6cf59057,2021-07-29_22h16.11.011,Simcolourproject_2stim_asymm_v5,2020.2.10,Win32,60,61025ae37ef11b136ea224fe,,,,,,,,,336,36.80001199,-73.60000753,1,0,0,response3disk,,4,4.000011504,-12.00000662,1,0,0,rectangle,4.000011504,-12.00000662,1,0,0,4.000011504,-12.00000662,1,0,0,0,150,150,79,1,,,,,,,,
,,,,,,,,,,,,,FF,,,,,,,,1.0669,,,,,,,,,,,,,,,,,,,,,,6101cecdcad088615357832c,61036e79f7839d9d6cf59057,2021-07-29_22h16.11.011,Simcolourproject_2stim_asymm_v5,2020.2.10,Win32,60,61025ae37ef11b136ea224fe,,,,,,,,,4187,36.00001198,-62.40000737,1,0,0,response3disk,,4,19.20001173,-7.200006545,1,0,0,rectangle,19.20001173,-7.200006545,1,0,0,19.20001173,-7.200006545,1,0,0,0,151,151,117,1,,,,,,,,
,,,,,,,,,,,,,FF,,,,,,,,1.1992,,,,,,,,,,,,,,,,,,,,,,6101cecdcad088615357832c,61036e79f7839d9d6cf59057,2021-07-29_22h16.11.011,Simcolourproject_2stim_asymm_v5,2020.2.10,Win32,60,61025ae37ef11b136ea224fe,,,,,,,,,2224,81.60001266,20.79999387,1,0,0,response1disk,,6,31.20001191,-8.000006557,1,0,0,rectangle,31.20001191,-8.000006557,1,0,0,31.20001191,-8.000006557,1,0,0,0,152,152,1,1,,,,,,,,
,,,,,,,,,,,,,FF,,,,,,,,2.9663,,,,,,,,,,,,,,,,,,,,,,6101cecdcad088615357832c,61036e79f7839d9d6cf59057,2021-07-29_22h16.11.011,Simcolourproject_2stim_asymm_v5,2020.2.10,Win32,60,61025ae37ef11b136ea224fe,,,,,,,,,1523,33.60006077,-84.8000077,1,0,0,response3disk,,4,12.80001163,-11.2000066,1,0,0,rectangle,12.80001163,-11.2000066,1,0,0,12.80001163,-11.2000066,1,0,0,0,153,153,19,1,,,,,,,,
,,,,,,,,,,,,,FF,,,,,,,,1.0498,,,,,,,,,,,,,,,,,,,,,,6101cecdcad088615357832c,61036e79f7839d9d6cf59057,2021-07-29_22h16.11.011,Simcolourproject_2stim_asymm_v5,2020.2.10,Win32,60,61025ae37ef11b136ea224fe,,,,,,,,,1051,-93.59998995,-55.20000726,1,0,0,response5disk,,2,-35.99998909,-0.800006449,1,0,0,rectangle,-35.99998909,-0.800006449,1,0,0,-35.99998909,-0.800006449,1,0,0,0,154,154,40,1,,,,,,,,
,,,,,,,,,,,,,FF,,,,,,,,1.1831,,,,,,,,,,,,,,,,,,,,,,6101cecdcad088615357832c,61036e79f7839d9d6cf59057,2021-07-29_22h16.11.011,Simcolourproject_2stim_asymm_v5,2020.2.10,Win32,60,61025ae37ef11b136ea224fe,,,,,,,,,3150,-64.79998952,-49.60000718,1,0,0,response5disk,,2,1.14441E-05,-4.000006497,1,0,0,rectangle,1.14441E-05,-4.000006497,1,0,0,1.14441E-05,-4.000006497,1,0,0,0,155,155,108,1,,,,,,,,
,,,,,,,,,,,,,FF,,,,,,,,0.7501,,,,,,,,,,,,,,,,,,,,,,6101cecdcad088615357832c,61036e79f7839d9d6cf59057,2021-07-29_22h16.11.011,Simcolourproject_2stim_asymm_v5,2020.2.10,Win32,60,61025ae37ef11b136ea224fe,,,,,,,,,95,-58.3999406,-37.600007,1,0,0,response5disk,,2,4.800011516,0.799993575,1,0,0,rectangle,4.800011516,0.799993575,1,0,0,4.800011516,0.799993575,1,0,0,0,156,156,139,1,,,,,,,,
,,,,,,,,,,,,,FF,,,,,,,,1.2831,,,,,,,,,,,,,,,,,,,,,,6101cecdcad088615357832c,61036e79f7839d9d6cf59057,2021-07-29_22h16.11.011,Simcolourproject_2stim_asymm_v5,2020.2.10,Win32,60,61025ae37ef11b136ea224fe,,,,,,,,,1239,39.20001203,-66.40000743,1,0,0,response3disk,,4,3.200011492,-2.400006473,1,0,0,rectangle,3.200011492,-2.400006473,1,0,0,3.200011492,-2.400006473,1,0,0,0,157,157,142,1,,,,,,,,
,,,,,,,,,,,,,FF,,,,,,,,0.7004,,,,,,,,,,,,,,,,,,,,,,6101cecdcad088615357832c,61036e79f7839d9d6cf59057,2021-07-29_22h16.11.011,Simcolourproject_2stim_asymm_v5,2020.2.10,Win32,60,61025ae37ef11b136ea224fe,,,,,,,,,1540,22.40001178,-63.20000738,1,0,0,response3disk,,4,1.14441E-05,-5.600006521,1,0,0,rectangle,1.14441E-05,-5.600006521,1,0,0,1.14441E-05,-5.600006521,1,0,0,0,158,158,109,1,,,,,,,,
,,,,,,,,,,,,,FF,,,,,,,,1.6661,,,,,,,,,,,,,,,,,,,,,,6101cecdcad088615357832c,61036e79f7839d9d6cf59057,2021-07-29_22h16.11.011,Simcolourproject_2stim_asymm_v5,2020.2.10,Win32,60,61025ae37ef11b136ea224fe,,,,,,,,,3661,-68.79998958,-92.00000781,1,0,0,response5disk,,3,-8.799988687,-16.00000668,1,0,0,rectangle,-8.799988687,-16.00000668,1,0,0,-8.799988687,-16.00000668,1,0,0,0,159,159,9,1,,,,,,,,
,,,,,,,,,,,,,FF,,,,,,,,1.6323,,,,,,,,,,,,,,,,,,,,,,6101cecdcad088615357832c,61036e79f7839d9d6cf59057,2021-07-29_22h16.11.011,Simcolourproject_2stim_asymm_v5,2020.2.10,Win32,60,61025ae37ef11b136ea224fe,,,,,,,,,2578,102.400013,-42.40000707,1,0,0,response3disk,,5,5.600060356,-4.800006509,1,0,0,rectangle,5.600060356,-4.800006509,1,0,0,5.600060356,-4.800006509,1,0,0,1,0,160,42,1,,,,,,,,
,,,,,,,,,,,,,FF,,,,,,,,0.8331,,,,,,,,,,,,,,,,,,,,,,6101cecdcad088615357832c,61036e79f7839d9d6cf59057,2021-07-29_22h16.11.011,Simcolourproject_2stim_asymm_v5,2020.2.10,Win32,60,61025ae37ef11b136ea224fe,,,,,,,,,2411,55.20001227,-29.60000688,1,0,0,response3disk,,5,4.000011504,-6.400006533,1,0,0,rectangle,4.000011504,-6.400006533,1,0,0,4.000011504,-6.400006533,1,0,0,1,1,161,78,1,,,,,,,,
,,,,,,,,,,,,,FF,,,,,,,,0.9666,,,,,,,,,,,,,,,,,,,,,,6101cecdcad088615357832c,61036e79f7839d9d6cf59057,2021-07-29_22h16.11.011,Simcolourproject_2stim_asymm_v5,2020.2.10,Win32,60,61025ae37ef11b136ea224fe,,,,,,,,,3813,-49.5999893,-82.40000767,1,0,0,response5disk,,3,0.800011456,-4.800006509,1,0,0,rectangle,0.800011456,-4.800006509,1,0,0,0.800011456,-4.800006509,1,0,0,1,2,162,9,1,,,,,,,,
,,,,,,,,,,,,,FF,,,,,,,,3.4827,,,,,,,,,,,,,,,,,,,,,,6101cecdcad088615357832c,61036e79f7839d9d6cf59057,2021-07-29_22h16.11.011,Simcolourproject_2stim_asymm_v5,2020.2.10,Win32,60,61025ae37ef11b136ea224fe,,,,,,,,,4098,-55.19998938,-88.80000776,1,0,0,response5disk,,3,1.14441E-05,-13.60000664,1,0,0,rectangle,1.14441E-05,-13.60000664,1,0,0,1.14441E-05,-13.60000664,1,0,0,1,3,163,127,1,,,,,,,,
,,,,,,,,,,,,,FF,,,,,,,,1.1667,,,,,,,,,,,,,,,,,,,,,,6101cecdcad088615357832c,61036e79f7839d9d6cf59057,2021-07-29_22h16.11.011,Simcolourproject_2stim_asymm_v5,2020.2.10,Win32,60,61025ae37ef11b136ea224fe,,,,,,,,,2619,57.6000123,-32.80000693,1,0,0,response3disk,,5,25.60006065,-10.40000659,1,0,0,rectangle,25.60006065,-10.40000659,1,0,0,25.60006065,-10.40000659,1,0,0,1,4,164,130,1,,,,,,,,
,,,,,,,,,,,,,FF,,,,,,,,0.8503,,,,,,,,,,,,,,,,,,,,,,6101cecdcad088615357832c,61036e79f7839d9d6cf59057,2021-07-29_22h16.11.011,Simcolourproject_2stim_asymm_v5,2020.2.10,Win32,60,61025ae37ef11b136ea224fe,,,,,,,,,1873,81.60001266,-25.60000682,1,0,0,response3disk,,5,22.40001178,1.599993587,1,0,0,rectangle,22.40001178,1.599993587,1,0,0,22.40001178,1.599993587,1,0,0,1,5,165,120,1,,,,,,,,
,,,,,,,,,,,,,FF,,,,,,,,0.9159,,,,,,,,,,,,,,,,,,,,,,6101cecdcad088615357832c,61036e79f7839d9d6cf59057,2021-07-29_22h16.11.011,Simcolourproject_2stim_asymm_v5,2020.2.10,Win32,60,61025ae37ef11b136ea224fe,,,,,,,,,673,84.0000127,28.79999399,1,0,0,response1disk,,6,23.20001179,-12.00000662,1,0,0,rectangle,23.20001179,-12.00000662,1,0,0,23.20001179,-12.00000662,1,0,0,1,6,166,52,1,,,,,,,,
,,,,,,,,,,,,,FF,,,,,,,,1.4159,,,,,,,,,,,,,,,,,,,,,,6101cecdcad088615357832c,61036e79f7839d9d6cf59057,2021-07-29_22h16.11.011,Simcolourproject_2stim_asymm_v5,2020.2.10,Win32,60,61025ae37ef11b136ea224fe,,,,,,,,,63,25.60006065,-68.80000746,1,0,0,response3disk,,4,-8.799988687,0.799993575,1,0,0,rectangle,-8.799988687,0.799993575,1,0,0,-8.799988687,0.799993575,1,0,0,1,7,167,85,1,,,,,,,,
,,,,,,,,,,,,,FF,,,,,,,,0.7499,,,,,,,,,,,,,,,,,,,,,,6101cecdcad088615357832c,61036e79f7839d9d6cf59057,2021-07-29_22h16.11.011,Simcolourproject_2stim_asymm_v5,2020.2.10,Win32,60,61025ae37ef11b136ea224fe,,,,,,,,,4184,28.80001187,-48.80000716,1,0,0,response3disk,,4,8.800011575,1.599993587,1,0,0,rectangle,8.800011575,1.599993587,1,0,0,8.800011575,1.599993587,1,0,0,1,8,168,73,1,,,,,,,,
,,,,,,,,,,,,,FF,,,,,,,,1.3498,,,,,,,,,,,,,,,,,,,,,,6101cecdcad088615357832c,61036e79f7839d9d6cf59057,2021-07-29_22h16.11.011,Simcolourproject_2stim_asymm_v5,2020.2.10,Win32,60,61025ae37ef11b136ea224fe,,,,,,,,,3446,76.80001259,-30.40000689,1,0,0,response3disk,,5,16.00001168,12.79999375,1,0,0,rectangle,16.00001168,12.79999375,1,0,0,16.00001168,12.79999375,1,0,0,1,9,169,143,1,,,,,,,,
,,,,,,,,,,,,,FF,,,,,,,,1.8496,,,,,,,,,,,,,,,,,,,,,,6101cecdcad088615357832c,61036e79f7839d9d6cf59057,2021-07-29_22h16.11.011,Simcolourproject_2stim_asymm_v5,2020.2.10,Win32,60,61025ae37ef11b136ea224fe,,,,,,,,,343,33.60006077,-69.60000747,1,0,0,response3disk,,4,-3.199988604,-7.200006545,1,0,0,rectangle,-3.199988604,-7.200006545,1,0,0,-3.199988604,-7.200006545,1,0,0,1,10,170,159,1,,,,,,,,
,,,,,,,,,,,,,FF,,,,,,,,0.9662,,,,,,,,,,,,,,,,,,,,,,6101cecdcad088615357832c,61036e79f7839d9d6cf59057,2021-07-29_22h16.11.011,Simcolourproject_2stim_asymm_v5,2020.2.10,Win32,60,61025ae37ef11b136ea224fe,,,,,,,,,4347,-37.59998912,-77.60000759,1,0,0,response5disk,,3,-6.399939823,-4.000006497,1,0,0,rectangle,-6.399939823,-4.000006497,1,0,0,-6.399939823,-4.000006497,1,0,0,1,11,171,25,1,,,,,,,,
,,,,,,,,,,,,,FF,,,,,,,,2.2495,,,,,,,,,,,,,,,,,,,,,,6101cecdcad088615357832c,61036e79f7839d9d6cf59057,2021-07-29_22h16.11.011,Simcolourproject_2stim_asymm_v5,2020.2.10,Win32,60,61025ae37ef11b136ea224fe,,,,,,,,,1736,62.40001237,-26.40000683,1,0,0,response3disk,,5,12.00001162,0.799993575,1,0,0,rectangle,12.00001162,0.799993575,1,0,0,12.00001162,0.799993575,1,0,0,1,12,172,63,1,,,,,,,,
,,,,,,,,,,,,,FF,,,,,,,,1.3327,,,,,,,,,,,,,,,,,,,,,,6101cecdcad088615357832c,61036e79f7839d9d6cf59057,2021-07-29_22h16.11.011,Simcolourproject_2stim_asymm_v5,2020.2.10,Win32,60,61025ae37ef11b136ea224fe,,,,,,,,,1953,26.40001184,-43.20000708,1,0,0,response3disk,,4,4.000011504,-11.2000066,1,0,0,rectangle,-79.99998975,-26.40000683,1,0,0,8.000011563,-11.2000066,1,0,0,1,13,173,101,1,,response5disk_3,TRUE,2,2,"[25,85,145,5,181,82,76,244,118,188,201,229,33,180,135,287,103,229,198,174]",1.6656,rectangle
,,,,,,,,,,,,,FF,,,,,,,,1.2999,,,,,,,,,,,,,,,,,,,,,,6101cecdcad088615357832c,61036e79f7839d9d6cf59057,2021-07-29_22h16.11.011,Simcolourproject_2stim_asymm_v5,2020.2.10,Win32,60,61025ae37ef11b136ea224fe,,,,,,,,,1290,-81.59998977,-60.00000733,1,0,0,response5disk,,2,-11.19998872,-8.000006557,1,0,0,rectangle,-11.19998872,-8.000006557,1,0,0,-11.19998872,-8.000006557,1,0,0,1,14,174,39,1,,,,,,,,
,,,,,,,,,,,,,FF,,,,,,,,1.4833,,,,,,,,,,,,,,,,,,,,,,6101cecdcad088615357832c,61036e79f7839d9d6cf59057,2021-07-29_22h16.11.011,Simcolourproject_2stim_asymm_v5,2020.2.10,Win32,60,61025ae37ef11b136ea224fe,,,,,,,,,2420,-76.7999897,-55.20000726,1,0,0,response5disk,,2,-1.59998858,-12.80000663,1,0,0,rectangle,-1.59998858,-12.80000663,1,0,0,-1.59998858,-12.80000663,1,0,0,1,15,175,24,1,,,,,,,,
,,,,,,,,,,,,,FF,,,,,,,,0.9161,,,,,,,,,,,,,,,,,,,,,,6101cecdcad088615357832c,61036e79f7839d9d6cf59057,2021-07-29_22h16.11.011,Simcolourproject_2stim_asymm_v5,2020.2.10,Win32,60,61025ae37ef11b136ea224fe,,,,,,,,,2264,84.0000127,-27.20000684,1,0,0,response3disk,,5,17.60006053,4.799993634,1,0,0,rectangle,17.60006053,4.799993634,1,0,0,17.60006053,4.799993634,1,0,0,1,16,176,58,1,,,,,,,,
,,,,,,,,,,,,,FF,,,,,,,,1.1164,,,,,,,,,,,,,,,,,,,,,,6101cecdcad088615357832c,61036e79f7839d9d6cf59057,2021-07-29_22h16.11.011,Simcolourproject_2stim_asymm_v5,2020.2.10,Win32,60,61025ae37ef11b136ea224fe,,,,,,,,,4369,-71.99998963,-32.80000693,1,0,0,response5disk,,2,4.800011516,6.399993658,1,0,0,rectangle,4.800011516,6.399993658,1,0,0,4.800011516,6.399993658,1,0,0,1,17,177,95,1,,,,,,,,
,,,,,,,,,,,,,FF,,,,,,,,2.9993,,,,,,,,,,,,,,,,,,,,,,6101cecdcad088615357832c,61036e79f7839d9d6cf59057,2021-07-29_22h16.11.011,Simcolourproject_2stim_asymm_v5,2020.2.10,Win32,60,61025ae37ef11b136ea224fe,,,,,,,,,1433,24.80001181,-73.60000753,1,0,0,response3disk,,4,15.20001167,-5.600006521,1,0,0,rectangle,15.20001167,-5.600006521,1,0,0,15.20001167,-5.600006521,1,0,0,1,18,178,146,1,,,,,,,,
,,,,,,,,,,,,,FF,,,,,,,,0.8999,,,,,,,,,,,,,,,,,,,,,,6101cecdcad088615357832c,61036e79f7839d9d6cf59057,2021-07-29_22h16.11.011,Simcolourproject_2stim_asymm_v5,2020.2.10,Win32,60,61025ae37ef11b136ea224fe,,,,,,,,,2819,58.40001231,-33.60000694,1,0,0,response3disk,,5,16.00001168,-9.60000658,1,0,0,rectangle,-90.39994107,-24.00000679,1,0,0,12.80001163,2.399993598,1,0,0,1,19,179,158,1,,response5disk_3,TRUE,2,2,"[25,85,145,5,181,82,76,244,118,188,201,229,33,180,135,287,103,229,198,174]",2.016,rectangle
,,,,,,,,,,,,,FF,,,,,,,,1.133,,,,,,,,,,,,,,,,,,,,,,6101cecdcad088615357832c,61036e79f7839d9d6cf59057,2021-07-29_22h16.11.011,Simcolourproject_2stim_asymm_v5,2020.2.10,Win32,60,61025ae37ef11b136ea224fe,,,,,,,,,1302,-50.39994048,-94.40000784,1,0,0,response5disk,,3,-4.799988627,-16.80000669,1,0,0,rectangle,-41.59998918,-99.20000792,1,0,0,4.800011516,-4.800006509,1,0,0,1,20,180,96,1,,response5disk_3,TRUE,3,3,"[25,85,145,5,181,82,76,244,118,188,201,229,33,180,135,287,103,229,198,174]",1.7153,rectangle
,,,,,,,,,,,,,FF,,,,,,,,5.4983,,,,,,,,,,,,,,,,,,,,,,6101cecdcad088615357832c,61036e79f7839d9d6cf59057,2021-07-29_22h16.11.011,Simcolourproject_2stim_asymm_v5,2020.2.10,Win32,60,61025ae37ef11b136ea224fe,,,,,,,,,670,77.6000126,-40.00000703,1,0,0,response3disk,,5,12.00001162,-3.200006485,1,0,0,rectangle,12.00001162,-3.200006485,1,0,0,12.00001162,-3.200006485,1,0,0,1,21,181,5,1,,,,,,,,
,,,,,,,,,,,,,FF,,,,,,,,1.0332,,,,,,,,,,,,,,,,,,,,,,6101cecdcad088615357832c,61036e79f7839d9d6cf59057,2021-07-29_22h16.11.011,Simcolourproject_2stim_asymm_v5,2020.2.10,Win32,60,61025ae37ef11b136ea224fe,,,,,,,,,2945,-35.99998909,-86.40000772,1,0,0,response5disk,,3,1.600060296,-6.400006533,1,0,0,rectangle,1.600060296,-6.400006533,1,0,0,1.600060296,-6.400006533,1,0,0,1,22,182,40,1,,,,,,,,
,,,,,,,,,,,,,FF,,,,,,,,1.083,,,,,,,,,,,,,,,,,,,,,,6101cecdcad088615357832c,61036e79f7839d9d6cf59057,2021-07-29_22h16.11.011,Simcolourproject_2stim_asymm_v5,2020.2.10,Win32,60,61025ae37ef11b136ea224fe,,,,,,,,,1715,65.60001242,-32.80000693,1,0,0,response3disk,,5,14.40001166,3.999993622,1,0,0,rectangle,14.40001166,3.999993622,1,0,0,14.40001166,3.999993622,1,0,0,1,23,183,29,1,,,,,,,,
,,,,,,,,,,,,,FF,,,,,,,,0.8831,,,,,,,,,,,,,,,,,,,,,,6101cecdcad088615357832c,61036e79f7839d9d6cf59057,2021-07-29_22h16.11.011,Simcolourproject_2stim_asymm_v5,2020.2.10,Win32,60,61025ae37ef11b136ea224fe,,,,,,,,,2996,-42.39994036,-88.00000775,1,0,0,response5disk,,3,-4.799988627,1.599993587,1,0,0,rectangle,-4.799988627,1.599993587,1,0,0,-4.799988627,1.599993587,1,0,0,1,24,184,126,1,,,,,,,,
,,,,,,,,,,,,,FF,,,,,,,,2.9829,,,,,,,,,,,,,,,,,,,,,,6101cecdcad088615357832c,61036e79f7839d9d6cf59057,2021-07-29_22h16.11.011,Simcolourproject_2stim_asymm_v5,2020.2.10,Win32,60,61025ae37ef11b136ea224fe,,,,,,,,,2084,32.00001192,-65.60000741,1,0,0,response3disk,,4,6.400011539,-8.000006557,1,0,0,rectangle,6.400011539,-8.000006557,1,0,0,6.400011539,-8.000006557,1,0,0,1,25,185,154,1,,,,,,,,
,,,,,,,,,,,,,FF,,,,,,,,3.2323,,,,,,,,,,,,,,,,,,,,,,6101cecdcad088615357832c,61036e79f7839d9d6cf59057,2021-07-29_22h16.11.011,Simcolourproject_2stim_asymm_v5,2020.2.10,Win32,60,61025ae37ef11b136ea224fe,,,,,,,,,2357,-27.99998897,-80.80000764,1,0,0,response5disk,,3,23.20001179,-7.200006545,1,0,0,rectangle,23.20001179,-7.200006545,1,0,0,23.20001179,-7.200006545,1,0,0,1,26,186,57,1,,,,,,,,
,,,,,,,,,,,,,FF,,,,,,,,1.1665,,,,,,,,,,,,,,,,,,,,,,6101cecdcad088615357832c,61036e79f7839d9d6cf59057,2021-07-29_22h16.11.011,Simcolourproject_2stim_asymm_v5,2020.2.10,Win32,60,61025ae37ef11b136ea224fe,,,,,,,,,976,28.00001186,-48.00000715,1,0,0,response3disk,,4,14.40001166,-6.4373E-06,1,0,0,rectangle,-26.39994012,85.59999484,1,0,0,12.80001163,-1.600006461,1,0,0,1,27,187,100,1,,response7disk_3,TRUE,0,0,"[25,85,145,5,181,82,76,244,118,188,201,229,33,180,135,287,103,229,198,174]",1.3318,rectangle
,,,,,,,,,,,,,FF,,,,,,,,1.1167,,,,,,,,,,,,,,,,,,,,,,6101cecdcad088615357832c,61036e79f7839d9d6cf59057,2021-07-29_22h16.11.011,Simcolourproject_2stim_asymm_v5,2020.2.10,Win32,60,61025ae37ef11b136ea224fe,,,,,,,,,1565,67.20001245,-36.00000697,1,0,0,response3disk,,5,5.600060356,-3.200006485,1,0,0,rectangle,5.600060356,-3.200006485,1,0,0,5.600060356,-3.200006485,1,0,0,1,28,188,81,1,,,,,,,,
,,,,,,,,,,,,,FF,,,,,,,,1.8664,,,,,,,,,,,,,,,,,,,,,,6101cecdcad088615357832c,61036e79f7839d9d6cf59057,2021-07-29_22h16.11.011,Simcolourproject_2stim_asymm_v5,2020.2.10,Win32,60,61025ae37ef11b136ea224fe,,,,,,,,,1782,60.80001235,-24.00000679,1,0,0,response3disk,,5,31.20001191,9.599993706,1,0,0,rectangle,31.20001191,9.599993706,1,0,0,31.20001191,9.599993706,1,0,0,1,29,189,35,1,,,,,,,,
,,,,,,,,,,,,,FF,,,,,,,,1.116,,,,,,,,,,,,,,,,,,,,,,6101cecdcad088615357832c,61036e79f7839d9d6cf59057,2021-07-29_22h16.11.011,Simcolourproject_2stim_asymm_v5,2020.2.10,Win32,60,61025ae37ef11b136ea224fe,,,,,,,,,2790,31.20001191,-58.40000731,1,0,0,response3disk,,4,12.00001162,-8.800006568,1,0,0,rectangle,12.00001162,-8.800006568,1,0,0,12.00001162,-8.800006568,1,0,0,1,30,190,135,1,,,,,,,,
,,,,,,,,,,,,,FF,,,,,,,,1.0664,,,,,,,,,,,,,,,,,,,,,,6101cecdcad088615357832c,61036e79f7839d9d6cf59057,2021-07-29_22h16.11.011,Simcolourproject_2stim_asymm_v5,2020.2.10,Win32,60,61025ae37ef11b136ea224fe,,,,,,,,,146,72.00001252,-28.00000685,1,0,0,response3disk,,5,18.40001172,6.399993658,1,0,0,rectangle,18.40001172,6.399993658,1,0,0,18.40001172,6.399993658,1,0,0,1,31,191,119,1,,,,,,,,
,,,,,,,,,,,,,FF,,,,,,,,1.5499,,,,,,,,,,,,,,,,,,,,,,6101cecdcad088615357832c,61036e79f7839d9d6cf59057,2021-07-29_22h16.11.011,Simcolourproject_2stim_asymm_v5,2020.2.10,Win32,60,61025ae37ef11b136ea224fe,,,,,,,,,2838,-22.39994006,-84.8000077,1,0,0,response5disk,,3,10.4000116,-16.80000669,1,0,0,rectangle,10.4000116,-16.80000669,1,0,0,10.4000116,-16.80000669,1,0,0,1,32,192,6,1,,,,,,,,
,,,,,,,,,,,,,FF,,,,,,,,1.3495,,,,,,,,,,,,,,,,,,,,,,6101cecdcad088615357832c,61036e79f7839d9d6cf59057,2021-07-29_22h16.11.011,Simcolourproject_2stim_asymm_v5,2020.2.10,Win32,60,61025ae37ef11b136ea224fe,,,,,,,,,4065,70.40001249,-41.60000706,1,0,0,response3disk,,5,21.60006059,-4.000006497,1,0,0,rectangle,21.60006059,-4.000006497,1,0,0,21.60006059,-4.000006497,1,0,0,1,33,193,83,1,,,,,,,,
,,,,,,,,,,,,,FF,,,,,,,,0.7164,,,,,,,,,,,,,,,,,,,,,,6101cecdcad088615357832c,61036e79f7839d9d6cf59057,2021-07-29_22h16.11.011,Simcolourproject_2stim_asymm_v5,2020.2.10,Win32,60,61025ae37ef11b136ea224fe,,,,,,,,,2910,67.20001245,-36.80000699,1,0,0,response3disk,,5,23.20001179,7.999993682,1,0,0,rectangle,23.20001179,7.999993682,1,0,0,23.20001179,7.999993682,1,0,0,1,34,194,114,1,,,,,,,,
,,,,,,,,,,,,,FF,,,,,,,,0.967,,,,,,,,,,,,,,,,,,,,,,6101cecdcad088615357832c,61036e79f7839d9d6cf59057,2021-07-29_22h16.11.011,Simcolourproject_2stim_asymm_v5,2020.2.10,Win32,60,61025ae37ef11b136ea224fe,,,,,,,,,3515,-31.19998902,-89.6000566,1,0,0,response5disk,,3,13.60006047,-7.200006545,1,0,0,rectangle,13.60006047,-7.200006545,1,0,0,13.60006047,-7.200006545,1,0,0,1,35,195,37,1,,,,,,,,
,,,,,,,,,,,,,FF,,,,,,,,0.9665,,,,,,,,,,,,,,,,,,,,,,6101cecdcad088615357832c,61036e79f7839d9d6cf59057,2021-07-29_22h16.11.011,Simcolourproject_2stim_asymm_v5,2020.2.10,Win32,60,61025ae37ef11b136ea224fe,,,,,,,,,1249,29.60006071,-37.600007,1,0,0,response3disk,,4,14.40001166,-2.400006473,1,0,0,rectangle,14.40001166,-2.400006473,1,0,0,14.40001166,-2.400006473,1,0,0,1,36,196,47,1,,,,,,,,
,,,,,,,,,,,,,FF,,,,,,,,1.033,,,,,,,,,,,,,,,,,,,,,,6101cecdcad088615357832c,61036e79f7839d9d6cf59057,2021-07-29_22h16.11.011,Simcolourproject_2stim_asymm_v5,2020.2.10,Win32,60,61025ae37ef11b136ea224fe,,,,,,,,,2904,59.20001233,-29.60000688,1,0,0,response3disk,,5,31.20001191,1.599993587,1,0,0,rectangle,-72.79998964,38.39999413,1,0,0,-11.99998873,0.799993575,1,0,0,1,37,197,102,1,,response7disk_3,TRUE,1,1,"[25,85,145,5,181,82,76,244,118,188,201,229,33,180,135,287,103,229,198,174]",1.6998,rectangle
,,,,,,,,,,,,,FF,,,,,,,,1.2497,,,,,,,,,,,,,,,,,,,,,,6101cecdcad088615357832c,61036e79f7839d9d6cf59057,2021-07-29_22h16.11.011,Simcolourproject_2stim_asymm_v5,2020.2.10,Win32,60,61025ae37ef11b136ea224fe,,,,,,,,,3846,-36.7999891,-100.8000079,1,0,0,response5disk,,3,-3.999988616,-14.40000665,1,0,0,rectangle,-3.999988616,-14.40000665,1,0,0,-3.999988616,-14.40000665,1,0,0,1,38,198,112,1,,,,,,,,
,,,,,,,,,,,,,FF,,,,,,,,0.9662,,,,,,,,,,,,,,,,,,,,,,6101cecdcad088615357832c,61036e79f7839d9d6cf59057,2021-07-29_22h16.11.011,Simcolourproject_2stim_asymm_v5,2020.2.10,Win32,60,61025ae37ef11b136ea224fe,,,,,,,,,1049,84.0000127,35.9999941,1,0,0,response1disk,,6,26.40001184,-12.00000662,1,0,0,rectangle,26.40001184,-12.00000662,1,0,0,26.40001184,-12.00000662,1,0,0,1,39,199,26,1,,,,,,,,
,,,,,,,,,,,,,FF,,,,,,,,0.9829,,,,,,,,,,,,,,,,,,,,,,6101cecdcad088615357832c,61036e79f7839d9d6cf59057,2021-07-29_22h16.11.011,Simcolourproject_2stim_asymm_v5,2020.2.10,Win32,60,61025ae37ef11b136ea224fe,,,,,,,,,1063,75.20001256,-32.80000693,1,0,0,response3disk,,5,5.600060356,-4.800006509,1,0,0,rectangle,-79.99998975,-44.8000071,1,0,0,-14.39993994,-1.600006461,1,0,0,1,40,200,23,1,,response5disk_3,TRUE,2,2,"[25,85,145,5,181,82,76,244,118,188,201,229,33,180,135,287,103,229,198,174]",1.5654,rectangle
,,,,,,,,,,,,,FF,,,,,,,,1.7327,,,,,,,,,,,,,,,,,,,,,,6101cecdcad088615357832c,61036e79f7839d9d6cf59057,2021-07-29_22h16.11.011,Simcolourproject_2stim_asymm_v5,2020.2.10,Win32,60,61025ae37ef11b136ea224fe,,,,,,,,,1434,83.20001268,-44.8000071,1,0,0,response3disk,,5,-0.799988568,-8.800006568,1,0,0,rectangle,-0.799988568,-8.800006568,1,0,0,-0.799988568,-8.800006568,1,0,0,1,41,201,55,1,,,,,,,,
,,,,,,,,,,,,,FF,,,,,,,,1.4994,,,,,,,,,,,,,,,,,,,,,,6101cecdcad088615357832c,61036e79f7839d9d6cf59057,2021-07-29_22h16.11.011,Simcolourproject_2stim_asymm_v5,2020.2.10,Win32,60,61025ae37ef11b136ea224fe,,,,,,,,,516,68.80001247,-35.20000696,1,0,0,response3disk,,5,13.60006047,-13.60000664,1,0,0,rectangle,13.60006047,-13.60000664,1,0,0,13.60006047,-13.60000664,1,0,0,1,42,202,82,1,,,,,,,,
,,,,,,,,,,,,,FF,,,,,,,,0.9999,,,,,,,,,,,,,,,,,,,,,,6101cecdcad088615357832c,61036e79f7839d9d6cf59057,2021-07-29_22h16.11.011,Simcolourproject_2stim_asymm_v5,2020.2.10,Win32,60,61025ae37ef11b136ea224fe,,,,,,,,,2588,73.60001254,19.99999386,1,0,0,response1disk,,6,17.60006053,-12.80000663,1,0,0,rectangle,17.60006053,-12.80000663,1,0,0,17.60006053,-12.80000663,1,0,0,1,43,203,90,1,,,,,,,,
,,,,,,,,,,,,,FF,,,,,,,,1.3666,,,,,,,,,,,,,,,,,,,,,,6101cecdcad088615357832c,61036e79f7839d9d6cf59057,2021-07-29_22h16.11.011,Simcolourproject_2stim_asymm_v5,2020.2.10,Win32,60,61025ae37ef11b136ea224fe,,,,,,,,,2934,-39.19998914,-90.40000778,1,0,0,response5disk,,3,5.600060356,-10.40000659,1,0,0,rectangle,5.600060356,-10.40000659,1,0,0,5.600060356,-10.40000659,1,0,0,1,44,204,2,1,,,,,,,,
,,,,,,,,,,,,,FF,,,,,,,,1.2831,,,,,,,,,,,,,,,,,,,,,,6101cecdcad088615357832c,61036e79f7839d9d6cf59057,2021-07-29_22h16.11.011,Simcolourproject_2stim_asymm_v5,2020.2.10,Win32,60,61025ae37ef11b136ea224fe,,,,,,,,,1141,27.20001185,-48.00000715,1,0,0,response3disk,,4,2.40001148,-1.600006461,1,0,0,rectangle,2.40001148,-1.600006461,1,0,0,2.40001148,-1.600006461,1,0,0,1,45,205,136,1,,,,,,,,
,,,,,,,,,,,,,FF,,,,,,,,0.7329,,,,,,,,,,,,,,,,,,,,,,6101cecdcad088615357832c,61036e79f7839d9d6cf59057,2021-07-29_22h16.11.011,Simcolourproject_2stim_asymm_v5,2020.2.10,Win32,60,61025ae37ef11b136ea224fe,,,,,,,,,741,33.60006077,-56.80000728,1,0,0,response3disk,,4,16.00001168,-6.400006533,1,0,0,rectangle,16.00001168,-6.400006533,1,0,0,16.00001168,-6.400006533,1,0,0,1,46,206,70,1,,,,,,,,
,,,,,,,,,,,,,FF,,,,,,,,1.6663,,,,,,,,,,,,,,,,,,,,,,6101cecdcad088615357832c,61036e79f7839d9d6cf59057,2021-07-29_22h16.11.011,Simcolourproject_2stim_asymm_v5,2020.2.10,Win32,60,61025ae37ef11b136ea224fe,,,,,,,,,3400,31.20001191,-48.00000715,1,0,0,response3disk,,4,15.20001167,-2.400006473,1,0,0,rectangle,15.20001167,-2.400006473,1,0,0,15.20001167,-2.400006473,1,0,0,1,47,207,77,1,,,,,,,,
,,,,,,,,,,,,,FF,,,,,,,,1.6331,,,,,,,,,,,,,,,,,,,,,,6101cecdcad088615357832c,61036e79f7839d9d6cf59057,2021-07-29_22h16.11.011,Simcolourproject_2stim_asymm_v5,2020.2.10,Win32,60,61025ae37ef11b136ea224fe,,,,,,,,,2473,64.80001241,-32.80000693,1,0,0,response3disk,,5,12.00001162,-3.200006485,1,0,0,rectangle,12.00001162,-3.200006485,1,0,0,12.00001162,-3.200006485,1,0,0,1,48,208,93,1,,,,,,,,
,,,,,,,,,,,,,FF,,,,,,,,1.1997,,,,,,,,,,,,,,,,,,,,,,6101cecdcad088615357832c,61036e79f7839d9d6cf59057,2021-07-29_22h16.11.011,Simcolourproject_2stim_asymm_v5,2020.2.10,Win32,60,61025ae37ef11b136ea224fe,,,,,,,,,1208,69.60001248,-28.80000687,1,0,0,response3disk,,5,29.60006071,-3.200006485,1,0,0,rectangle,29.60006071,-3.200006485,1,0,0,29.60006071,-3.200006485,1,0,0,1,49,209,109,1,,,,,,,,
,,,,,,,,,,,,,FF,,,,,,,,0.8493,,,,,,,,,,,,,,,,,,,,,,6101cecdcad088615357832c,61036e79f7839d9d6cf59057,2021-07-29_22h16.11.011,Simcolourproject_2stim_asymm_v5,2020.2.10,Win32,60,61025ae37ef11b136ea224fe,,,,,,,,,161,59.20001233,-36.80000699,1,0,0,response3disk,,5,20.00001174,-4.000006497,1,0,0,rectangle,20.00001174,-4.000006497,1,0,0,20.00001174,-4.000006497,1,0,0,1,50,210,12,1,,,,,,,,
,,,,,,,,,,,,,FF,,,,,,,,1.0504,,,,,,,,,,,,,,,,,,,,,,6101cecdcad088615357832c,61036e79f7839d9d6cf59057,2021-07-29_22h16.11.011,Simcolourproject_2stim_asymm_v5,2020.2.10,Win32,60,61025ae37ef11b136ea224fe,,,,,,,,,4106,26.40001184,-61.60000736,1,0,0,response3disk,,4,0.800011456,-8.000006557,1,0,0,rectangle,0.800011456,-8.000006557,1,0,0,0.800011456,-8.000006557,1,0,0,1,51,211,117,1,,,,,,,,
,,,,,,,,,,,,,FF,,,,,,,,1.1329,,,,,,,,,,,,,,,,,,,,,,6101cecdcad088615357832c,61036e79f7839d9d6cf59057,2021-07-29_22h16.11.011,Simcolourproject_2stim_asymm_v5,2020.2.10,Win32,60,61025ae37ef11b136ea224fe,,,,,,,,,3609,92.00001281,34.39999408,1,0,0,response1disk,,6,30.4000119,7.999993682,1,0,0,rectangle,30.4000119,7.999993682,1,0,0,30.4000119,7.999993682,1,0,0,1,52,212,46,1,,,,,,,,
,,,,,,,,,,,,,FF,,,,,,,,0.766,,,,,,,,,,,,,,,,,,,,,,6101cecdcad088615357832c,61036e79f7839d9d6cf59057,2021-07-29_22h16.11.011,Simcolourproject_2stim_asymm_v5,2020.2.10,Win32,60,61025ae37ef11b136ea224fe,,,,,,,,,2865,56.80001229,30.39999402,1,0,0,response1disk,,6,19.20001173,3.19999361,1,0,0,rectangle,19.20001173,3.19999361,1,0,0,19.20001173,3.19999361,1,0,0,1,53,213,65,1,,,,,,,,
,,,,,,,,,,,,,FF,,,,,,,,1.0834,,,,,,,,,,,,,,,,,,,,,,6101cecdcad088615357832c,61036e79f7839d9d6cf59057,2021-07-29_22h16.11.011,Simcolourproject_2stim_asymm_v5,2020.2.10,Win32,60,61025ae37ef11b136ea224fe,,,,,,,,,1471,72.00001252,30.39999402,1,0,0,response1disk,,6,26.40001184,3.19999361,1,0,0,rectangle,26.40001184,3.19999361,1,0,0,26.40001184,3.19999361,1,0,0,1,54,214,99,1,,,,,,,,
,,,,,,,,,,,,,FF,,,,,,,,1.2325,,,,,,,,,,,,,,,,,,,,,,6101cecdcad088615357832c,61036e79f7839d9d6cf59057,2021-07-29_22h16.11.011,Simcolourproject_2stim_asymm_v5,2020.2.10,Win32,60,61025ae37ef11b136ea224fe,,,,,,,,,2389,66.40001243,-37.600007,1,0,0,response3disk,,5,15.20001167,-2.400006473,1,0,0,rectangle,15.20001167,-2.400006473,1,0,0,15.20001167,-2.400006473,1,0,0,1,55,215,133,1,,,,,,,,
,,,,,,,,,,,,,FF,,,,,,,,1.1664,,,,,,,,,,,,,,,,,,,,,,6101cecdcad088615357832c,61036e79f7839d9d6cf59057,2021-07-29_22h16.11.011,Simcolourproject_2stim_asymm_v5,2020.2.10,Win32,60,61025ae37ef11b136ea224fe,,,,,,,,,1144,34.40001196,-62.40000737,1,0,0,response3disk,,4,-7.199988663,-7.200006545,1,0,0,rectangle,-7.199988663,-7.200006545,1,0,0,-7.199988663,-7.200006545,1,0,0,1,56,216,75,1,,,,,,,,
,,,,,,,,,,,,,FF,,,,,,,,1.4164,,,,,,,,,,,,,,,,,,,,,,6101cecdcad088615357832c,61036e79f7839d9d6cf59057,2021-07-29_22h16.11.011,Simcolourproject_2stim_asymm_v5,2020.2.10,Win32,60,61025ae37ef11b136ea224fe,,,,,,,,,2700,52.80001223,-27.20000684,1,0,0,response3disk,,5,5.600060356,4.799993634,1,0,0,rectangle,5.600060356,4.799993634,1,0,0,5.600060356,4.799993634,1,0,0,1,57,217,61,1,,,,,,,,
,,,,,,,,,,,,,FF,,,,,,,,1.3496,,,,,,,,,,,,,,,,,,,,,,6101cecdcad088615357832c,61036e79f7839d9d6cf59057,2021-07-29_22h16.11.011,Simcolourproject_2stim_asymm_v5,2020.2.10,Win32,60,61025ae37ef11b136ea224fe,,,,,,,,,2241,-29.599989,-64.00000739,1,0,0,response5disk,,3,-13.59998876,-12.00000662,1,0,0,rectangle,-13.59998876,-12.00000662,1,0,0,-13.59998876,-12.00000662,1,0,0,1,58,218,149,1,,,,,,,,
,,,,,,,,,,,,,FF,,,,,,,,1.049,,,,,,,,,,,,,,,,,,,,,,6101cecdcad088615357832c,61036e79f7839d9d6cf59057,2021-07-29_22h16.11.011,Simcolourproject_2stim_asymm_v5,2020.2.10,Win32,60,61025ae37ef11b136ea224fe,,,,,,,,,4026,-41.59998918,-100.8000079,1,0,0,response5disk,,3,8.000011563,-5.600006521,1,0,0,rectangle,8.000011563,-5.600006521,1,0,0,8.000011563,-5.600006521,1,0,0,1,59,219,43,1,,,,,,,,
,,,,,,,,,,,,,FF,,,,,,,,0.7166,,,,,,,,,,,,,,,,,,,,,,6101cecdcad088615357832c,61036e79f7839d9d6cf59057,2021-07-29_22h16.11.011,Simcolourproject_2stim_asymm_v5,2020.2.10,Win32,60,61025ae37ef11b136ea224fe,,,,,,,,,3821,-46.39994042,-92.80000782,1,0,0,response5disk,,3,7.200011551,-10.40000659,1,0,0,rectangle,7.200011551,-10.40000659,1,0,0,7.200011551,-10.40000659,1,0,0,1,60,220,69,1,,,,,,,,
,,,,,,,,,,,,,FF,,,,,,,,1.4498,,,,,,,,,,,,,,,,,,,,,,6101cecdcad088615357832c,61036e79f7839d9d6cf59057,2021-07-29_22h16.11.011,Simcolourproject_2stim_asymm_v5,2020.2.10,Win32,60,61025ae37ef11b136ea224fe,,,,,,,,,3203,-33.59998906,-73.60000753,1,0,0,response5disk,,3,-7.199988663,-14.40000665,1,0,0,rectangle,-7.199988663,-14.40000665,1,0,0,-7.199988663,-14.40000665,1,0,0,1,61,221,86,1,,,,,,,,
,,,,,,,,,,,,,FF,,,,,,,,0.9164,,,,,,,,,,,,,,,,,,,,,,6101cecdcad088615357832c,61036e79f7839d9d6cf59057,2021-07-29_22h16.11.011,Simcolourproject_2stim_asymm_v5,2020.2.10,Win32,60,61025ae37ef11b136ea224fe,,,,,,,,,536,28.00001186,-67.20000744,1,0,0,response3disk,,4,6.400011539,0.799993575,1,0,0,rectangle,6.400011539,0.799993575,1,0,0,6.400011539,0.799993575,1,0,0,1,62,222,157,1,,,,,,,,
,,,,,,,,,,,,,FF,,,,,,,,0.8993,,,,,,,,,,,,,,,,,,,,,,6101cecdcad088615357832c,61036e79f7839d9d6cf59057,2021-07-29_22h16.11.011,Simcolourproject_2stim_asymm_v5,2020.2.10,Win32,60,61025ae37ef11b136ea224fe,,,,,,,,,3043,90.40001279,-40.80000705,1,0,0,response3disk,,5,1.600060296,-8.000006557,1,0,0,rectangle,1.600060296,-8.000006557,1,0,0,1.600060296,-8.000006557,1,0,0,1,63,223,14,1,,,,,,,,
,,,,,,,,,,,,,FF,,,,,,,,1.1693,,,,,,,,,,,,,,,,,,,,,,6101cecdcad088615357832c,61036e79f7839d9d6cf59057,2021-07-29_22h16.11.011,Simcolourproject_2stim_asymm_v5,2020.2.10,Win32,60,61025ae37ef11b136ea224fe,,,,,,,,,754,52.00001222,-32.80000693,1,0,0,response3disk,,5,11.20001161,1.599993587,1,0,0,rectangle,11.20001161,1.599993587,1,0,0,11.20001161,1.599993587,1,0,0,1,64,224,140,1,,,,,,,,
,,,,,,,,,,,,,FF,,,,,,,,1.6164,,,,,,,,,,,,,,,,,,,,,,6101cecdcad088615357832c,61036e79f7839d9d6cf59057,2021-07-29_22h16.11.011,Simcolourproject_2stim_asymm_v5,2020.2.10,Win32,60,61025ae37ef11b136ea224fe,,,,,,,,,3686,42.40001208,-72.00000751,1,0,0,response3disk,,4,-1.59998858,-3.200006485,1,0,0,rectangle,-1.59998858,-3.200006485,1,0,0,-1.59998858,-3.200006485,1,0,0,1,65,225,108,1,,,,,,,,
,,,,,,,,,,,,,FF,,,,,,,,3.1154,,,,,,,,,,,,,,,,,,,,,,6101cecdcad088615357832c,61036e79f7839d9d6cf59057,2021-07-29_22h16.11.011,Simcolourproject_2stim_asymm_v5,2020.2.10,Win32,60,61025ae37ef11b136ea224fe,,,,,,,,,3764,32.00001192,-48.80000716,1,0,0,response3disk,,4,8.800011575,-0.800006449,1,0,0,rectangle,8.800011575,-0.800006449,1,0,0,8.800011575,-0.800006449,1,0,0,1,66,226,105,1,,,,,,,,
,,,,,,,,,,,,,FF,,,,,,,,2.4993,,,,,,,,,,,,,,,,,,,,,,6101cecdcad088615357832c,61036e79f7839d9d6cf59057,2021-07-29_22h16.11.011,Simcolourproject_2stim_asymm_v5,2020.2.10,Win32,60,61025ae37ef11b136ea224fe,,,,,,,,,4240,-31.99998903,-74.40000755,1,0,0,response5disk,,3,-9.599988699,-12.00000662,1,0,0,rectangle,-9.599988699,-12.00000662,1,0,0,-9.599988699,-12.00000662,1,0,0,1,67,227,121,1,,,,,,,,
,,,,,,,,,,,,,FF,,,,,,,,0.7333,,,,,,,,,,,,,,,,,,,,,,6101cecdcad088615357832c,61036e79f7839d9d6cf59057,2021-07-29_22h16.11.011,Simcolourproject_2stim_asymm_v5,2020.2.10,Win32,60,61025ae37ef11b136ea224fe,,,,,,,,,2064,62.40001237,-44.00000709,1,0,0,response3disk,,5,7.200011551,-4.800006509,1,0,0,rectangle,94.40001285,31.19996961,1,0,0,26.40001184,-16.00000668,1,0,0,1,68,228,60,1,,response1disk_3,TRUE,6,6,"[25,85,145,5,181,82,76,244,118,188,201,229,33,180,135,287,103,229,198,174]",1.7984,rectangle
,,,,,,,,,,,,,FF,,,,,,,,1.8495,,,,,,,,,,,,,,,,,,,,,,6101cecdcad088615357832c,61036e79f7839d9d6cf59057,2021-07-29_22h16.11.011,Simcolourproject_2stim_asymm_v5,2020.2.10,Win32,60,61025ae37ef11b136ea224fe,,,,,,,,,4367,-76.7999897,-42.40000707,1,0,0,response5disk,,2,-15.99998879,0.799993575,1,0,0,rectangle,-15.99998879,0.799993575,1,0,0,-15.99998879,0.799993575,1,0,0,1,69,229,87,1,,,,,,,,
,,,,,,,,,,,,,FF,,,,,,,,1.3663,,,,,,,,,,,,,,,,,,,,,,6101cecdcad088615357832c,61036e79f7839d9d6cf59057,2021-07-29_22h16.11.011,Simcolourproject_2stim_asymm_v5,2020.2.10,Win32,60,61025ae37ef11b136ea224fe,,,,,,,,,2863,68.80001247,-34.40000695,1,0,0,response3disk,,5,16.00001168,-3.200006485,1,0,0,rectangle,16.00001168,-3.200006485,1,0,0,16.00001168,-3.200006485,1,0,0,1,70,230,110,1,,,,,,,,
,,,,,,,,,,,,,FF,,,,,,,,1.0665,,,,,,,,,,,,,,,,,,,,,,6101cecdcad088615357832c,61036e79f7839d9d6cf59057,2021-07-29_22h16.11.011,Simcolourproject_2stim_asymm_v5,2020.2.10,Win32,60,61025ae37ef11b136ea224fe,,,,,,,,,3024,65.60001242,-40.00000703,1,0,0,response3disk,,5,22.40001178,-2.400006473,1,0,0,rectangle,22.40001178,-2.400006473,1,0,0,22.40001178,-2.400006473,1,0,0,1,71,231,41,1,,,,,,,,
,,,,,,,,,,,,,FF,,,,,,,,1.4993,,,,,,,,,,,,,,,,,,,,,,6101cecdcad088615357832c,61036e79f7839d9d6cf59057,2021-07-29_22h16.11.011,Simcolourproject_2stim_asymm_v5,2020.2.10,Win32,60,61025ae37ef11b136ea224fe,,,,,,,,,535,56.00001228,-27.20000684,1,0,0,response3disk,,5,9.600060415,-4.000006497,1,0,0,rectangle,9.600060415,-4.000006497,1,0,0,9.600060415,-4.000006497,1,0,0,1,72,232,62,1,,,,,,,,
,,,,,,,,,,,,,FF,,,,,,,,1.8542,,,,,,,,,,,,,,,,,,,,,,6101cecdcad088615357832c,61036e79f7839d9d6cf59057,2021-07-29_22h16.11.011,Simcolourproject_2stim_asymm_v5,2020.2.10,Win32,60,61025ae37ef11b136ea224fe,,,,,,,,,1584,66.40001243,-28.00000685,1,0,0,response3disk,,5,4.000011504,-0.800006449,1,0,0,rectangle,4.000011504,-0.800006449,1,0,0,4.000011504,-0.800006449,1,0,0,1,73,233,147,1,,,,,,,,
,,,,,,,,,,,,,FF,,,,,,,,1.866,,,,,,,,,,,,,,,,,,,,,,6101cecdcad088615357832c,61036e79f7839d9d6cf59057,2021-07-29_22h16.11.011,Simcolourproject_2stim_asymm_v5,2020.2.10,Win32,60,61025ae37ef11b136ea224fe,,,,,,,,,2804,112.0000131,33.59999406,1,0,0,response1disk,,6,17.60006053,-9.60000658,1,0,0,rectangle,17.60006053,-9.60000658,1,0,0,17.60006053,-9.60000658,1,0,0,1,74,234,38,1,,,,,,,,
,,,,,,,,,,,,,FF,,,,,,,,0.9827,,,,,,,,,,,,,,,,,,,,,,6101cecdcad088615357832c,61036e79f7839d9d6cf59057,2021-07-29_22h16.11.011,Simcolourproject_2stim_asymm_v5,2020.2.10,Win32,60,61025ae37ef11b136ea224fe,,,,,,,,,1504,76.80001259,31.99999404,1,0,0,response1disk,,6,30.4000119,-1.600006461,1,0,0,rectangle,30.4000119,-1.600006461,1,0,0,30.4000119,-1.600006461,1,0,0,1,75,235,152,1,,,,,,,,
,,,,,,,,,,,,,FF,,,,,,,,1.3163,,,,,,,,,,,,,,,,,,,,,,6101cecdcad088615357832c,61036e79f7839d9d6cf59057,2021-07-29_22h16.11.011,Simcolourproject_2stim_asymm_v5,2020.2.10,Win32,60,61025ae37ef11b136ea224fe,,,,,,,,,3816,-43.99998921,-77.60000759,1,0,0,response5disk,,3,1.600060296,-5.600006521,1,0,0,rectangle,1.600060296,-5.600006521,1,0,0,1.600060296,-5.600006521,1,0,0,1,76,236,22,1,,,,,,,,
,,,,,,,,,,,,,FF,,,,,,,,1.2493,,,,,,,,,,,,,,,,,,,,,,6101cecdcad088615357832c,61036e79f7839d9d6cf59057,2021-07-29_22h16.11.011,Simcolourproject_2stim_asymm_v5,2020.2.10,Win32,60,61025ae37ef11b136ea224fe,,,,,,,,,3443,65.60001242,-38.40000701,1,0,0,response3disk,,5,20.00001174,-6.4373E-06,1,0,0,rectangle,20.00001174,-6.4373E-06,1,0,0,20.00001174,-6.4373E-06,1,0,0,1,77,237,153,1,,,,,,,,
,,,,,,,,,,,,,FF,,,,,,,,0.6835,,,,,,,,,,,,,,,,,,,,,,6101cecdcad088615357832c,61036e79f7839d9d6cf59057,2021-07-29_22h16.11.011,Simcolourproject_2stim_asymm_v5,2020.2.10,Win32,60,61025ae37ef11b136ea224fe,,,,,,,,,411,68.00001246,-33.60000694,1,0,0,response3disk,,5,28.00001186,-2.400006473,1,0,0,rectangle,28.00001186,-2.400006473,1,0,0,28.00001186,-2.400006473,1,0,0,1,78,238,48,1,,,,,,,,
,,,,,,,,,,,,,FF,,,,,,,,1.2324,,,,,,,,,,,,,,,,,,,,,,6101cecdcad088615357832c,61036e79f7839d9d6cf59057,2021-07-29_22h16.11.011,Simcolourproject_2stim_asymm_v5,2020.2.10,Win32,60,61025ae37ef11b136ea224fe,,,,,,,,,3627,45.60006095,-55.20000726,1,0,0,response3disk,,4,8.000011563,-9.60000658,1,0,0,rectangle,8.000011563,-9.60000658,1,0,0,8.000011563,-9.60000658,1,0,0,1,79,239,16,1,,,,,,,,
,,,,,,,,,,,,,FF,,,,,,,,1.2663,,,,,,,,,,,,,,,,,,,,,,6101cecdcad088615357832c,61036e79f7839d9d6cf59057,2021-07-29_22h16.11.011,Simcolourproject_2stim_asymm_v5,2020.2.10,Win32,60,61025ae37ef11b136ea224fe,,,,,,,,,544,-31.19998902,-68.00000745,1,0,0,response5disk,,3,9.600060415,3.999993622,1,0,0,rectangle,9.600060415,3.999993622,1,0,0,9.600060415,3.999993622,1,0,0,1,80,240,53,1,,,,,,,,
,,,,,,,,,,,,,FF,,,,,,,,1.6494,,,,,,,,,,,,,,,,,,,,,,6101cecdcad088615357832c,61036e79f7839d9d6cf59057,2021-07-29_22h16.11.011,Simcolourproject_2stim_asymm_v5,2020.2.10,Win32,60,61025ae37ef11b136ea224fe,,,,,,,,,820,37.60006083,-60.00000733,1,0,0,response3disk,,4,12.00001162,-13.60000664,1,0,0,rectangle,12.00001162,-13.60000664,1,0,0,12.00001162,-13.60000664,1,0,0,1,81,241,54,1,,,,,,,,
