key_resp.keys,key_resp.rt,key_resp_14.keys,key_resp_14.rt,key_resp_15.keys,key_resp_15.rt,key_resp_17.keys,key_resp_17.rt,key_resp_9.keys,key_resp_9.rt,key_resp_10.keys,key_resp_10.rt,practice_comparison,Ecc,mouse_5.x,mouse_5.y,mouse_5.leftButton,mouse_5.midButton,mouse_5.rightButton,mouse_5.clicked_name,pracsimilarity,response_time,mouse_10.x,mouse_10.y,mouse_10.leftButton,mouse_10.midButton,mouse_10.rightButton,mouse_10.clicked_name,mouse_7.x,mouse_7.y,mouse_7.leftButton,mouse_7.midButton,mouse_7.rightButton,mouse_6.x,mouse_6.y,mouse_6.leftButton,mouse_6.midButton,mouse_6.rightButton,duringprac.thisRepN,duringprac.thisTrialN,duringprac.thisN,duringprac.thisIndex,duringprac.ran,participant,session,date,expName,psychopyVersion,OS,frameRate,study_id,mouse_7.clicked_name,catchpracsimilarity,catch_response_time,catchnumberprac,catchtrialorderprac,mouse_6.clicked_name,key_resp_22.keys,key_resp_22.rt,realcomparison,mouse.x,mouse.y,mouse.leftButton,mouse.midButton,mouse.rightButton,mouse.clicked_name,Colour2,similarity,mouse_2.x,mouse_2.y,mouse_2.leftButton,mouse_2.midButton,mouse_2.rightButton,mouse_2.clicked_name,mouse_3.x,mouse_3.y,mouse_3.leftButton,mouse_3.midButton,mouse_3.rightButton,mouse_11.x,mouse_11.y,mouse_11.leftButton,mouse_11.midButton,mouse_11.rightButton,trials_2.thisRepN,trials_2.thisTrialN,trials_2.thisN,trials_2.thisIndex,trials_2.ran,Colour1,mouse_3.clicked_name,catchornah,catchsimilarity,catchnumber,catchtrialorder,catchRT,mouse_11.clicked_name
space,1.388414999,space,7.851640001,space,9.473805001,space,4.54968,space,0.584005,space,2.86437,68,FF,40.00001204,-67.20000744,1,0,0,response3disk_5,4,6.247564999,-5.599988639,7.999993682,1,0,0,rectangle_8,-5.599988639,7.999993682,1,0,0,-5.599988639,7.999993682,1,0,0,0,0,0,0,1,6101698f1094df2f82ab8a5e,61036ba738f9927b499bc126,2021-07-29_22h04.03.328,Simcolourproject_2stim_asymm_v5,2020.2.10,Win32,60,61025ae37ef11b136ea224fe,,,,,,,,,,,,,,,,,,,,,,,,,,,,,,,,,,,,,,,,,,,,,,
,,,,,,,,,,,,134,PF,25.60006065,80.79999477,1,0,0,response1disk_5,7,1.565525001,-5.599988639,3.19999361,1,0,0,rectangle_8,59.20001233,39.99999416,1,0,0,-0.799988568,5.599993646,1,0,0,0,1,1,1,1,6101698f1094df2f82ab8a5e,61036ba738f9927b499bc126,2021-07-29_22h04.03.328,Simcolourproject_2stim_asymm_v5,2020.2.10,Win32,60,61025ae37ef11b136ea224fe,response1disk_7,6,2.771430001,6,"[2,5]",rectangle_4,,,,,,,,,,,,,,,,,,,,,,,,,,,,,,,,,,,,,,,,
,,,,,,,,,,,,98,FF,-73.59998965,-47.20000714,1,0,0,response5disk_5,2,3.76354,-3.199988604,-1.600006461,1,0,0,rectangle_8,-3.199988604,-1.600006461,1,0,0,-3.199988604,-1.600006461,1,0,0,0,2,2,3,1,6101698f1094df2f82ab8a5e,61036ba738f9927b499bc126,2021-07-29_22h04.03.328,Simcolourproject_2stim_asymm_v5,2020.2.10,Win32,60,61025ae37ef11b136ea224fe,,,,,,,,,,,,,,,,,,,,,,,,,,,,,,,,,,,,,,,,,,,,,,
,,,,,,,,,,,,15,FF,36.00001198,-56.80000728,1,0,0,response3disk_5,4,2.680875,-1.59998858,1.599993587,1,0,0,rectangle_8,-1.59998858,1.599993587,1,0,0,-1.59998858,1.599993587,1,0,0,0,3,3,5,1,6101698f1094df2f82ab8a5e,61036ba738f9927b499bc126,2021-07-29_22h04.03.328,Simcolourproject_2stim_asymm_v5,2020.2.10,Win32,60,61025ae37ef11b136ea224fe,,,,,,,,,,,,,,,,,,,,,,,,,,,,,,,,,,,,,,,,,,,,,,
,,,,,,,,,,,,93,PF,36.00001198,52.79999435,1,0,0,response1disk_5,7,1.84874,0.800011456,-6.4373E-06,1,0,0,rectangle_8,100.8000129,36.79999411,1,0,0,-2.399939764,5.599993646,1,0,0,0,4,4,4,1,6101698f1094df2f82ab8a5e,61036ba738f9927b499bc126,2021-07-29_22h04.03.328,Simcolourproject_2stim_asymm_v5,2020.2.10,Win32,60,61025ae37ef11b136ea224fe,response1disk_7,6,2.381105,6,"[2,5]",rectangle_4,,,,,,,,,,,,,,,,,,,,,,,,,,,,,,,,,,,,,,,,
,,,,,,,,,,,,7,PF,26.40001184,60.79999447,1,0,0,response1disk_5,7,1.54847,-5.599988639,-5.600006521,1,0,0,rectangle_8,-5.599988639,-5.600006521,1,0,0,-5.599988639,-5.600006521,1,0,0,0,5,5,2,1,6101698f1094df2f82ab8a5e,61036ba738f9927b499bc126,2021-07-29_22h04.03.328,Simcolourproject_2stim_asymm_v5,2020.2.10,Win32,60,61025ae37ef11b136ea224fe,,,,,,,,,,,,,,,,,,,,,,,,,,,,,,,,,,,,,,,,,,,,,,
,,,,,,,,,,,,133,PF,-42.39994036,-26.40000683,1,0,0,response5disk_5,2,1.144480001,0.800011456,3.999993622,1,0,0,rectangle_8,0.800011456,3.999993622,1,0,0,0.800011456,3.999993622,1,0,0,0,6,6,6,1,6101698f1094df2f82ab8a5e,61036ba738f9927b499bc126,2021-07-29_22h04.03.328,Simcolourproject_2stim_asymm_v5,2020.2.10,Win32,60,61025ae37ef11b136ea224fe,,,,,,,,,,,,,,,,,,,,,,,,,,,,,,,,,,,,,,,,,,,,,,
,,,,,,,,,,,,,FF,,,,,,,,3.033799998,,,,,,,,,,,,,,,,,,,,,,6101698f1094df2f82ab8a5e,61036ba738f9927b499bc126,2021-07-29_22h04.03.328,Simcolourproject_2stim_asymm_v5,2020.2.10,Win32,60,61025ae37ef11b136ea224fe,,,,,,,space,2.88243,2178,60.80001235,-21.60000676,1,0,0,response3disk,,5,-5.599988639,11.19999373,1,0,0,rectangle,-5.599988639,11.19999373,1,0,0,-5.599988639,11.19999373,1,0,0,0,0,0,75,1,,,,,,,,
,,,,,,,,,,,,,FF,,,,,,,,1.830905,,,,,,,,,,,,,,,,,,,,,,6101698f1094df2f82ab8a5e,61036ba738f9927b499bc126,2021-07-29_22h04.03.328,Simcolourproject_2stim_asymm_v5,2020.2.10,Win32,60,61025ae37ef11b136ea224fe,,,,,,,,,2965,40.80001205,28.79999399,1,0,0,response1disk,,6,0.800011456,2.399993598,1,0,0,rectangle,0.800011456,2.399993598,1,0,0,0.800011456,2.399993598,1,0,0,0,1,1,81,1,,,,,,,,
,,,,,,,,,,,,,FF,,,,,,,,1.099100001,,,,,,,,,,,,,,,,,,,,,,6101698f1094df2f82ab8a5e,61036ba738f9927b499bc126,2021-07-29_22h04.03.328,Simcolourproject_2stim_asymm_v5,2020.2.10,Win32,60,61025ae37ef11b136ea224fe,,,,,,,,,1324,20.80001175,46.39999425,1,0,0,response1disk,,7,3.200011492,11.99999374,1,0,0,rectangle,3.200011492,11.99999374,1,0,0,3.200011492,11.99999374,1,0,0,0,2,2,85,1,,,,,,,,
,,,,,,,,,,,,,FF,,,,,,,,1.948560001,,,,,,,,,,,,,,,,,,,,,,6101698f1094df2f82ab8a5e,61036ba738f9927b499bc126,2021-07-29_22h04.03.328,Simcolourproject_2stim_asymm_v5,2020.2.10,Win32,60,61025ae37ef11b136ea224fe,,,,,,,,,1715,28.80001187,63.19997009,1,0,0,response1disk,,7,-0.799988568,8.799993694,1,0,0,rectangle,-0.799988568,8.799993694,1,0,0,-0.799988568,8.799993694,1,0,0,0,3,3,95,1,,,,,,,,
,,,,,,,,,,,,,FF,,,,,,,,2.081495,,,,,,,,,,,,,,,,,,,,,,6101698f1094df2f82ab8a5e,61036ba738f9927b499bc126,2021-07-29_22h04.03.328,Simcolourproject_2stim_asymm_v5,2020.2.10,Win32,60,61025ae37ef11b136ea224fe,,,,,,,,,466,-29.599989,-65.60000741,1,0,0,response5disk,,3,1.14441E-05,6.399993658,1,0,0,rectangle,1.14441E-05,6.399993658,1,0,0,1.14441E-05,6.399993658,1,0,0,0,4,4,120,1,,,,,,,,
,,,,,,,,,,,,,FF,,,,,,,,1.215755001,,,,,,,,,,,,,,,,,,,,,,6101698f1094df2f82ab8a5e,61036ba738f9927b499bc126,2021-07-29_22h04.03.328,Simcolourproject_2stim_asymm_v5,2020.2.10,Win32,60,61025ae37ef11b136ea224fe,,,,,,,,,4275,22.40001178,51.99999434,1,0,0,response1disk,,7,0.800011456,5.599993646,1,0,0,rectangle,0.800011456,5.599993646,1,0,0,0.800011456,5.599993646,1,0,0,0,5,5,34,1,,,,,,,,
,,,,,,,,,,,,,FF,,,,,,,,2.248160001,,,,,,,,,,,,,,,,,,,,,,6101698f1094df2f82ab8a5e,61036ba738f9927b499bc126,2021-07-29_22h04.03.328,Simcolourproject_2stim_asymm_v5,2020.2.10,Win32,60,61025ae37ef11b136ea224fe,,,,,,,,,2145,20.80001175,39.19996973,1,0,0,response1disk,,7,9.600060415,3.19999361,1,0,0,rectangle,9.600060415,3.19999361,1,0,0,9.600060415,3.19999361,1,0,0,0,6,6,125,1,,,,,,,,
,,,,,,,,,,,,,FF,,,,,,,,1.348925,,,,,,,,,,,,,,,,,,,,,,6101698f1094df2f82ab8a5e,61036ba738f9927b499bc126,2021-07-29_22h04.03.328,Simcolourproject_2stim_asymm_v5,2020.2.10,Win32,60,61025ae37ef11b136ea224fe,,,,,,,,,3173,18.40001172,51.19996991,1,0,0,response1disk,,7,-1.59998858,3.999993622,1,0,0,rectangle,-1.59998858,3.999993622,1,0,0,-1.59998858,3.999993622,1,0,0,0,7,7,127,1,,,,,,,,
,,,,,,,,,,,,,FF,,,,,,,,2.464685,,,,,,,,,,,,,,,,,,,,,,6101698f1094df2f82ab8a5e,61036ba738f9927b499bc126,2021-07-29_22h04.03.328,Simcolourproject_2stim_asymm_v5,2020.2.10,Win32,60,61025ae37ef11b136ea224fe,,,,,,,,,2568,54.40001225,43.99999422,1,0,0,response1disk,,6,3.200011492,7.999993682,1,0,0,rectangle,3.200011492,7.999993682,1,0,0,3.200011492,7.999993682,1,0,0,0,8,8,12,1,,,,,,,,
,,,,,,,,,,,,,FF,,,,,,,,1.731944999,,,,,,,,,,,,,,,,,,,,,,6101698f1094df2f82ab8a5e,61036ba738f9927b499bc126,2021-07-29_22h04.03.328,Simcolourproject_2stim_asymm_v5,2020.2.10,Win32,60,61025ae37ef11b136ea224fe,,,,,,,,,1415,52.00001222,97.59999502,1,0,0,response1disk,,7,-2.399939764,5.599993646,1,0,0,rectangle,32.00001192,-62.40000737,1,0,0,4.000011504,7.19999367,1,0,0,0,9,9,116,1,,response3disk_3,TRUE,4,4,"[164,307,286,10,258,119,294,226,173,195,45,148,308,323,122,43,15,91,103,82]",1.315780001,rectangle
,,,,,,,,,,,,,FF,,,,,,,,4.297414999,,,,,,,,,,,,,,,,,,,,,,6101698f1094df2f82ab8a5e,61036ba738f9927b499bc126,2021-07-29_22h04.03.328,Simcolourproject_2stim_asymm_v5,2020.2.10,Win32,60,61025ae37ef11b136ea224fe,,,,,,,,,2434,71.20001251,27.19996955,1,0,0,response1disk,,6,0.800011456,6.399993658,1,0,0,rectangle,0.800011456,6.399993658,1,0,0,0.800011456,6.399993658,1,0,0,0,10,10,142,1,,,,,,,,
,,,,,,,,,,,,,FF,,,,,,,,3.696125001,,,,,,,,,,,,,,,,,,,,,,6101698f1094df2f82ab8a5e,61036ba738f9927b499bc126,2021-07-29_22h04.03.328,Simcolourproject_2stim_asymm_v5,2020.2.10,Win32,60,61025ae37ef11b136ea224fe,,,,,,,,,536,56.80001229,128.7999955,1,0,0,response1disk,,7,-9.599988699,9.599993706,1,0,0,rectangle,-9.599988699,9.599993706,1,0,0,-9.599988699,9.599993706,1,0,0,0,11,11,69,1,,,,,,,,
,,,,,,,,,,,,,FF,,,,,,,,1.149385,,,,,,,,,,,,,,,,,,,,,,6101698f1094df2f82ab8a5e,61036ba738f9927b499bc126,2021-07-29_22h04.03.328,Simcolourproject_2stim_asymm_v5,2020.2.10,Win32,60,61025ae37ef11b136ea224fe,,,,,,,,,1054,-66.39994072,-35.20000696,1,0,0,response5disk,,2,-1.59998858,11.19999373,1,0,0,rectangle,-1.59998858,11.19999373,1,0,0,-1.59998858,11.19999373,1,0,0,0,12,12,121,1,,,,,,,,
,,,,,,,,,,,,,FF,,,,,,,,1.231719999,,,,,,,,,,,,,,,,,,,,,,6101698f1094df2f82ab8a5e,61036ba738f9927b499bc126,2021-07-29_22h04.03.328,Simcolourproject_2stim_asymm_v5,2020.2.10,Win32,60,61025ae37ef11b136ea224fe,,,,,,,,,1445,-34.39994024,99.99999505,1,0,0,response7disk,,0,1.14441E-05,-0.800006449,1,0,0,rectangle,1.14441E-05,-0.800006449,1,0,0,1.14441E-05,-0.800006449,1,0,0,0,13,13,118,1,,,,,,,,
,,,,,,,,,,,,,FF,,,,,,,,1.51498,,,,,,,,,,,,,,,,,,,,,,6101698f1094df2f82ab8a5e,61036ba738f9927b499bc126,2021-07-29_22h04.03.328,Simcolourproject_2stim_asymm_v5,2020.2.10,Win32,60,61025ae37ef11b136ea224fe,,,,,,,,,233,26.40001184,72.79999465,1,0,0,response1disk,,7,-1.59998858,8.799993694,1,0,0,rectangle,71.20001251,-26.40000683,1,0,0,-3.999988616,3.999993622,1,0,0,0,14,14,21,1,,response3disk_3,TRUE,5,5,"[164,307,286,10,258,119,294,226,173,195,45,148,308,323,122,43,15,91,103,82]",1.478984999,rectangle
,,,,,,,,,,,,,FF,,,,,,,,1.64817,,,,,,,,,,,,,,,,,,,,,,6101698f1094df2f82ab8a5e,61036ba738f9927b499bc126,2021-07-29_22h04.03.328,Simcolourproject_2stim_asymm_v5,2020.2.10,Win32,60,61025ae37ef11b136ea224fe,,,,,,,,,1883,-31.99998903,-46.40000713,1,0,0,response5disk,,3,-0.799988568,2.399993598,1,0,0,rectangle,-0.799988568,2.399993598,1,0,0,-0.799988568,2.399993598,1,0,0,0,15,15,46,1,,,,,,,,
,,,,,,,,,,,,,FF,,,,,,,,1.149455,,,,,,,,,,,,,,,,,,,,,,6101698f1094df2f82ab8a5e,61036ba738f9927b499bc126,2021-07-29_22h04.03.328,Simcolourproject_2stim_asymm_v5,2020.2.10,Win32,60,61025ae37ef11b136ea224fe,,,,,,,,,4105,-54.39994054,-39.20000702,1,0,0,response5disk,,2,-7.199988663,3.19999361,1,0,0,rectangle,-7.199988663,3.19999361,1,0,0,-7.199988663,3.19999361,1,0,0,0,16,16,90,1,,,,,,,,
,,,,,,,,,,,,,FF,,,,,,,,1.315965001,,,,,,,,,,,,,,,,,,,,,,6101698f1094df2f82ab8a5e,61036ba738f9927b499bc126,2021-07-29_22h04.03.328,Simcolourproject_2stim_asymm_v5,2020.2.10,Win32,60,61025ae37ef11b136ea224fe,,,,,,,,,3500,40.00001204,75.9999947,1,0,0,response1disk,,7,-5.599988639,4.799993634,1,0,0,rectangle,-5.599988639,4.799993634,1,0,0,-5.599988639,4.799993634,1,0,0,0,17,17,25,1,,,,,,,,
,,,,,,,,,,,,,FF,,,,,,,,1.39934,,,,,,,,,,,,,,,,,,,,,,6101698f1094df2f82ab8a5e,61036ba738f9927b499bc126,2021-07-29_22h04.03.328,Simcolourproject_2stim_asymm_v5,2020.2.10,Win32,60,61025ae37ef11b136ea224fe,,,,,,,,,2327,44.0000121,74.39999467,1,0,0,response1disk,,7,-3.199988604,-3.200006485,1,0,0,rectangle,-3.199988604,-3.200006485,1,0,0,-3.199988604,-3.200006485,1,0,0,0,18,18,102,1,,,,,,,,
,,,,,,,,,,,,,FF,,,,,,,,2.36483,,,,,,,,,,,,,,,,,,,,,,6101698f1094df2f82ab8a5e,61036ba738f9927b499bc126,2021-07-29_22h04.03.328,Simcolourproject_2stim_asymm_v5,2020.2.10,Win32,60,61025ae37ef11b136ea224fe,,,,,,,,,3597,-76.7999897,-38.40000701,1,0,0,response5disk,,2,0.800011456,13.59999377,1,0,0,rectangle,0.800011456,13.59999377,1,0,0,0.800011456,13.59999377,1,0,0,0,19,19,128,1,,,,,,,,
,,,,,,,,,,,,,FF,,,,,,,,0.849090001,,,,,,,,,,,,,,,,,,,,,,6101698f1094df2f82ab8a5e,61036ba738f9927b499bc126,2021-07-29_22h04.03.328,Simcolourproject_2stim_asymm_v5,2020.2.10,Win32,60,61025ae37ef11b136ea224fe,,,,,,,,,3290,-34.39994024,67.19997015,1,0,0,response7disk,,0,-6.399939823,3.19999361,1,0,0,rectangle,-6.399939823,3.19999361,1,0,0,-6.399939823,3.19999361,1,0,0,0,20,20,43,1,,,,,,,,
,,,,,,,,,,,,,FF,,,,,,,,2.997515,,,,,,,,,,,,,,,,,,,,,,6101698f1094df2f82ab8a5e,61036ba738f9927b499bc126,2021-07-29_22h04.03.328,Simcolourproject_2stim_asymm_v5,2020.2.10,Win32,60,61025ae37ef11b136ea224fe,,,,,,,,,1091,56.00001228,95.99999499,1,0,0,response1disk,,7,4.000011504,0.799993575,1,0,0,rectangle,4.000011504,0.799993575,1,0,0,4.000011504,0.799993575,1,0,0,0,21,21,70,1,,,,,,,,
,,,,,,,,,,,,,FF,,,,,,,,1.948334999,,,,,,,,,,,,,,,,,,,,,,6101698f1094df2f82ab8a5e,61036ba738f9927b499bc126,2021-07-29_22h04.03.328,Simcolourproject_2stim_asymm_v5,2020.2.10,Win32,60,61025ae37ef11b136ea224fe,,,,,,,,,2055,36.00001198,83.99999481,1,0,0,response1disk,,7,-6.399939823,-6.4373E-06,1,0,0,rectangle,-6.399939823,-6.4373E-06,1,0,0,-6.399939823,-6.4373E-06,1,0,0,0,22,22,48,1,,,,,,,,
,,,,,,,,,,,,,FF,,,,,,,,1.532384999,,,,,,,,,,,,,,,,,,,,,,6101698f1094df2f82ab8a5e,61036ba738f9927b499bc126,2021-07-29_22h04.03.328,Simcolourproject_2stim_asymm_v5,2020.2.10,Win32,60,61025ae37ef11b136ea224fe,,,,,,,,,1347,36.80001199,72.79999465,1,0,0,response1disk,,7,-2.399939764,-4.000006497,1,0,0,rectangle,-2.399939764,-4.000006497,1,0,0,-2.399939764,-4.000006497,1,0,0,0,23,23,31,1,,,,,,,,
,,,,,,,,,,,,,FF,,,,,,,,1.398984998,,,,,,,,,,,,,,,,,,,,,,6101698f1094df2f82ab8a5e,61036ba738f9927b499bc126,2021-07-29_22h04.03.328,Simcolourproject_2stim_asymm_v5,2020.2.10,Win32,60,61025ae37ef11b136ea224fe,,,,,,,,,226,34.40001196,65.59999454,1,0,0,response1disk,,7,1.14441E-05,4.799993634,1,0,0,rectangle,1.14441E-05,4.799993634,1,0,0,1.14441E-05,4.799993634,1,0,0,0,24,24,122,1,,,,,,,,
,,,,,,,,,,,,,FF,,,,,,,,1.781639999,,,,,,,,,,,,,,,,,,,,,,6101698f1094df2f82ab8a5e,61036ba738f9927b499bc126,2021-07-29_22h04.03.328,Simcolourproject_2stim_asymm_v5,2020.2.10,Win32,60,61025ae37ef11b136ea224fe,,,,,,,,,1990,89.60001278,39.99999416,1,0,0,response1disk,,6,0.800011456,-6.4373E-06,1,0,0,rectangle,0.800011456,-6.4373E-06,1,0,0,0.800011456,-6.4373E-06,1,0,0,0,25,25,54,1,,,,,,,,
,,,,,,,,,,,,,FF,,,,,,,,1.065964999,,,,,,,,,,,,,,,,,,,,,,6101698f1094df2f82ab8a5e,61036ba738f9927b499bc126,2021-07-29_22h04.03.328,Simcolourproject_2stim_asymm_v5,2020.2.10,Win32,60,61025ae37ef11b136ea224fe,,,,,,,,,4295,-69.59998959,-46.40000713,1,0,0,response5disk,,2,1.600060296,-0.800006449,1,0,0,rectangle,1.600060296,-0.800006449,1,0,0,1.600060296,-0.800006449,1,0,0,0,26,26,27,1,,,,,,,,
,,,,,,,,,,,,,FF,,,,,,,,1.099370001,,,,,,,,,,,,,,,,,,,,,,6101698f1094df2f82ab8a5e,61036ba738f9927b499bc126,2021-07-29_22h04.03.328,Simcolourproject_2stim_asymm_v5,2020.2.10,Win32,60,61025ae37ef11b136ea224fe,,,,,,,,,4284,33.60006077,67.99999458,1,0,0,response1disk,,7,-7.199988663,-10.40000659,1,0,0,rectangle,-7.199988663,-10.40000659,1,0,0,-7.199988663,-10.40000659,1,0,0,0,27,27,67,1,,,,,,,,
,,,,,,,,,,,,,FF,,,,,,,,4.746055,,,,,,,,,,,,,,,,,,,,,,6101698f1094df2f82ab8a5e,61036ba738f9927b499bc126,2021-07-29_22h04.03.328,Simcolourproject_2stim_asymm_v5,2020.2.10,Win32,60,61025ae37ef11b136ea224fe,,,,,,,,,564,97.6000129,-32.00000691,1,0,0,response3disk,,5,0.800011456,8.799993694,1,0,0,rectangle,0.800011456,8.799993694,1,0,0,0.800011456,8.799993694,1,0,0,0,28,28,152,1,,,,,,,,
,,,,,,,,,,,,,FF,,,,,,,,1.853765002,,,,,,,,,,,,,,,,,,,,,,6101698f1094df2f82ab8a5e,61036ba738f9927b499bc126,2021-07-29_22h04.03.328,Simcolourproject_2stim_asymm_v5,2020.2.10,Win32,60,61025ae37ef11b136ea224fe,,,,,,,,,2504,41.60006089,114.3999953,1,0,0,response1disk,,7,-4.799988627,4.799993634,1,0,0,rectangle,-4.799988627,4.799993634,1,0,0,-4.799988627,4.799993634,1,0,0,0,29,29,29,1,,,,,,,,
,,,,,,,,,,,,,FF,,,,,,,,1.982185001,,,,,,,,,,,,,,,,,,,,,,6101698f1094df2f82ab8a5e,61036ba738f9927b499bc126,2021-07-29_22h04.03.328,Simcolourproject_2stim_asymm_v5,2020.2.10,Win32,60,61025ae37ef11b136ea224fe,,,,,,,,,2153,92.80001283,33.59999406,1,0,0,response1disk,,6,-4.799988627,6.399993658,1,0,0,rectangle,-4.799988627,6.399993658,1,0,0,-4.799988627,6.399993658,1,0,0,0,30,30,64,1,,,,,,,,
,,,,,,,,,,,,,FF,,,,,,,,1.182164999,,,,,,,,,,,,,,,,,,,,,,6101698f1094df2f82ab8a5e,61036ba738f9927b499bc126,2021-07-29_22h04.03.328,Simcolourproject_2stim_asymm_v5,2020.2.10,Win32,60,61025ae37ef11b136ea224fe,,,,,,,,,4220,-68.79998958,-43.20000708,1,0,0,response5disk,,2,-1.59998858,-0.800006449,1,0,0,rectangle,-1.59998858,-0.800006449,1,0,0,-1.59998858,-0.800006449,1,0,0,0,31,31,100,1,,,,,,,,
,,,,,,,,,,,,,FF,,,,,,,,2.115274999,,,,,,,,,,,,,,,,,,,,,,6101698f1094df2f82ab8a5e,61036ba738f9927b499bc126,2021-07-29_22h04.03.328,Simcolourproject_2stim_asymm_v5,2020.2.10,Win32,60,61025ae37ef11b136ea224fe,,,,,,,,,541,48.80001217,100.7999951,1,0,0,response1disk,,7,1.14441E-05,4.799993634,1,0,0,rectangle,1.14441E-05,4.799993634,1,0,0,1.14441E-05,4.799993634,1,0,0,0,32,32,140,1,,,,,,,,
,,,,,,,,,,,,,FF,,,,,,,,4.67946,,,,,,,,,,,,,,,,,,,,,,6101698f1094df2f82ab8a5e,61036ba738f9927b499bc126,2021-07-29_22h04.03.328,Simcolourproject_2stim_asymm_v5,2020.2.10,Win32,60,61025ae37ef11b136ea224fe,,,,,,,,,608,30.4000119,-91.2000078,1,0,0,response3disk,,4,-3.199988604,14.39999378,1,0,0,rectangle,-3.199988604,14.39999378,1,0,0,-3.199988604,14.39999378,1,0,0,0,33,33,79,1,,,,,,,,
,,,,,,,,,,,,,FF,,,,,,,,1.265505001,,,,,,,,,,,,,,,,,,,,,,6101698f1094df2f82ab8a5e,61036ba738f9927b499bc126,2021-07-29_22h04.03.328,Simcolourproject_2stim_asymm_v5,2020.2.10,Win32,60,61025ae37ef11b136ea224fe,,,,,,,,,1966,-74.39994084,-32.80000693,1,0,0,response5disk,,2,-3.199988604,3.19999361,1,0,0,rectangle,-3.199988604,3.19999361,1,0,0,-3.199988604,3.19999361,1,0,0,0,34,34,92,1,,,,,,,,
,,,,,,,,,,,,,FF,,,,,,,,1.015969999,,,,,,,,,,,,,,,,,,,,,,6101698f1094df2f82ab8a5e,61036ba738f9927b499bc126,2021-07-29_22h04.03.328,Simcolourproject_2stim_asymm_v5,2020.2.10,Win32,60,61025ae37ef11b136ea224fe,,,,,,,,,3884,45.60006095,84.79999483,1,0,0,response1disk,,7,7.200011551,9.599993706,1,0,0,rectangle,7.200011551,9.599993706,1,0,0,7.200011551,9.599993706,1,0,0,0,35,35,68,1,,,,,,,,
,,,,,,,,,,,,,FF,,,,,,,,2.531135,,,,,,,,,,,,,,,,,,,,,,6101698f1094df2f82ab8a5e,61036ba738f9927b499bc126,2021-07-29_22h04.03.328,Simcolourproject_2stim_asymm_v5,2020.2.10,Win32,60,61025ae37ef11b136ea224fe,,,,,,,,,962,21.60006059,87.99999487,1,0,0,response1disk,,7,4.000011504,10.39999372,1,0,0,rectangle,4.000011504,10.39999372,1,0,0,4.000011504,10.39999372,1,0,0,0,36,36,7,1,,,,,,,,
,,,,,,,,,,,,,FF,,,,,,,,1.648884999,,,,,,,,,,,,,,,,,,,,,,6101698f1094df2f82ab8a5e,61036ba738f9927b499bc126,2021-07-29_22h04.03.328,Simcolourproject_2stim_asymm_v5,2020.2.10,Win32,60,61025ae37ef11b136ea224fe,,,,,,,,,3028,37.60006083,60.79999447,1,0,0,response1disk,,7,-2.399939764,-1.600006461,1,0,0,rectangle,-2.399939764,-1.600006461,1,0,0,-2.399939764,-1.600006461,1,0,0,0,37,37,62,1,,,,,,,,
,,,,,,,,,,,,,FF,,,,,,,,1.048784999,,,,,,,,,,,,,,,,,,,,,,6101698f1094df2f82ab8a5e,61036ba738f9927b499bc126,2021-07-29_22h04.03.328,Simcolourproject_2stim_asymm_v5,2020.2.10,Win32,60,61025ae37ef11b136ea224fe,,,,,,,,,2426,-51.99998933,-88.80000776,1,0,0,response5disk,,3,0.800011456,-0.800006449,1,0,0,rectangle,0.800011456,-0.800006449,1,0,0,0.800011456,-0.800006449,1,0,0,0,38,38,111,1,,,,,,,,
,,,,,,,,,,,,,FF,,,,,,,,1.615319999,,,,,,,,,,,,,,,,,,,,,,6101698f1094df2f82ab8a5e,61036ba738f9927b499bc126,2021-07-29_22h04.03.328,Simcolourproject_2stim_asymm_v5,2020.2.10,Win32,60,61025ae37ef11b136ea224fe,,,,,,,,,3237,-76.7999897,-28.00000685,1,0,0,response5disk,,2,-3.999988616,-3.200006485,1,0,0,rectangle,-3.999988616,-3.200006485,1,0,0,-3.999988616,-3.200006485,1,0,0,0,39,39,1,1,,,,,,,,
,,,,,,,,,,,,,FF,,,,,,,,1.332365001,,,,,,,,,,,,,,,,,,,,,,6101698f1094df2f82ab8a5e,61036ba738f9927b499bc126,2021-07-29_22h04.03.328,Simcolourproject_2stim_asymm_v5,2020.2.10,Win32,60,61025ae37ef11b136ea224fe,,,,,,,,,2149,34.40001196,87.99999487,1,0,0,response1disk,,7,-2.399939764,3.999993622,1,0,0,rectangle,-2.399939764,3.999993622,1,0,0,-2.399939764,3.999993622,1,0,0,0,40,40,38,1,,,,,,,,
,,,,,,,,,,,,,FF,,,,,,,,1.265614999,,,,,,,,,,,,,,,,,,,,,,6101698f1094df2f82ab8a5e,61036ba738f9927b499bc126,2021-07-29_22h04.03.328,Simcolourproject_2stim_asymm_v5,2020.2.10,Win32,60,61025ae37ef11b136ea224fe,,,,,,,,,4176,51.20001221,83.19997039,1,0,0,response1disk,,7,-2.399939764,6.399993658,1,0,0,rectangle,-2.399939764,6.399993658,1,0,0,-2.399939764,6.399993658,1,0,0,0,41,41,93,1,,,,,,,,
,,,,,,,,,,,,,FF,,,,,,,,1.21542,,,,,,,,,,,,,,,,,,,,,,6101698f1094df2f82ab8a5e,61036ba738f9927b499bc126,2021-07-29_22h04.03.328,Simcolourproject_2stim_asymm_v5,2020.2.10,Win32,60,61025ae37ef11b136ea224fe,,,,,,,,,171,-85.59998983,43.19996979,1,0,0,response7disk,,1,1.14441E-05,2.399993598,1,0,0,rectangle,-68.79998958,-41.60000706,1,0,0,2.40001148,7.19999367,1,0,0,0,42,42,0,1,,response5disk_3,TRUE,2,2,"[164,307,286,10,258,119,294,226,173,195,45,148,308,323,122,43,15,91,103,82]",1.498360001,rectangle
,,,,,,,,,,,,,FF,,,,,,,,1.848960001,,,,,,,,,,,,,,,,,,,,,,6101698f1094df2f82ab8a5e,61036ba738f9927b499bc126,2021-07-29_22h04.03.328,Simcolourproject_2stim_asymm_v5,2020.2.10,Win32,60,61025ae37ef11b136ea224fe,,,,,,,,,923,88.00001276,-41.60000706,1,0,0,response3disk,,5,-7.199988663,6.399993658,1,0,0,rectangle,-7.199988663,6.399993658,1,0,0,-7.199988663,6.399993658,1,0,0,0,43,43,13,1,,,,,,,,
,,,,,,,,,,,,,FF,,,,,,,,1.532915,,,,,,,,,,,,,,,,,,,,,,6101698f1094df2f82ab8a5e,61036ba738f9927b499bc126,2021-07-29_22h04.03.328,Simcolourproject_2stim_asymm_v5,2020.2.10,Win32,60,61025ae37ef11b136ea224fe,,,,,,,,,1254,42.40001208,89.5999949,1,0,0,response1disk,,7,-4.799988627,2.399993598,1,0,0,rectangle,52.80001223,43.19996979,1,0,0,-3.999988616,7.19999367,1,0,0,0,44,44,66,1,,response1disk_3,TRUE,6,6,"[164,307,286,10,258,119,294,226,173,195,45,148,308,323,122,43,15,91,103,82]",1.347959999,rectangle
,,,,,,,,,,,,,FF,,,,,,,,1.448954999,,,,,,,,,,,,,,,,,,,,,,6101698f1094df2f82ab8a5e,61036ba738f9927b499bc126,2021-07-29_22h04.03.328,Simcolourproject_2stim_asymm_v5,2020.2.10,Win32,60,61025ae37ef11b136ea224fe,,,,,,,,,4156,40.80001205,71.99999464,1,0,0,response1disk,,7,-0.799988568,8.799993694,1,0,0,rectangle,-0.799988568,8.799993694,1,0,0,-0.799988568,8.799993694,1,0,0,0,45,45,18,1,,,,,,,,
,,,,,,,,,,,,,FF,,,,,,,,1.81512,,,,,,,,,,,,,,,,,,,,,,6101698f1094df2f82ab8a5e,61036ba738f9927b499bc126,2021-07-29_22h04.03.328,Simcolourproject_2stim_asymm_v5,2020.2.10,Win32,60,61025ae37ef11b136ea224fe,,,,,,,,,1916,89.60001278,-32.80000693,1,0,0,response3disk,,5,-7.999988675,13.59999377,1,0,0,rectangle,-7.999988675,13.59999377,1,0,0,-7.999988675,13.59999377,1,0,0,0,46,46,55,1,,,,,,,,
,,,,,,,,,,,,,FF,,,,,,,,0.93684,,,,,,,,,,,,,,,,,,,,,,6101698f1094df2f82ab8a5e,61036ba738f9927b499bc126,2021-07-29_22h04.03.328,Simcolourproject_2stim_asymm_v5,2020.2.10,Win32,60,61025ae37ef11b136ea224fe,,,,,,,,,501,33.60006077,79.19997033,1,0,0,response1disk,,7,-5.599988639,-0.800006449,1,0,0,rectangle,-5.599988639,-0.800006449,1,0,0,-5.599988639,-0.800006449,1,0,0,0,47,47,157,1,,,,,,,,
,,,,,,,,,,,,,FF,,,,,,,,1.631620001,,,,,,,,,,,,,,,,,,,,,,6101698f1094df2f82ab8a5e,61036ba738f9927b499bc126,2021-07-29_22h04.03.328,Simcolourproject_2stim_asymm_v5,2020.2.10,Win32,60,61025ae37ef11b136ea224fe,,,,,,,,,227,37.60006083,71.99999464,1,0,0,response1disk,,7,-1.59998858,9.599993706,1,0,0,rectangle,-1.59998858,9.599993706,1,0,0,-1.59998858,9.599993706,1,0,0,0,48,48,145,1,,,,,,,,
,,,,,,,,,,,,,FF,,,,,,,,1.115414999,,,,,,,,,,,,,,,,,,,,,,6101698f1094df2f82ab8a5e,61036ba738f9927b499bc126,2021-07-29_22h04.03.328,Simcolourproject_2stim_asymm_v5,2020.2.10,Win32,60,61025ae37ef11b136ea224fe,,,,,,,,,3712,-71.19998962,-21.60000676,1,0,0,response5disk,,2,7.200011551,8.799993694,1,0,0,rectangle,7.200011551,8.799993694,1,0,0,7.200011551,8.799993694,1,0,0,0,49,49,119,1,,,,,,,,
,,,,,,,,,,,,,FF,,,,,,,,1.132129999,,,,,,,,,,,,,,,,,,,,,,6101698f1094df2f82ab8a5e,61036ba738f9927b499bc126,2021-07-29_22h04.03.328,Simcolourproject_2stim_asymm_v5,2020.2.10,Win32,60,61025ae37ef11b136ea224fe,,,,,,,,,1972,-65.59998953,-20.00000674,1,0,0,response5disk,,2,-1.59998858,9.599993706,1,0,0,rectangle,-1.59998858,9.599993706,1,0,0,-1.59998858,9.599993706,1,0,0,0,50,50,154,1,,,,,,,,
,,,,,,,,,,,,,FF,,,,,,,,3.080765,,,,,,,,,,,,,,,,,,,,,,6101698f1094df2f82ab8a5e,61036ba738f9927b499bc126,2021-07-29_22h04.03.328,Simcolourproject_2stim_asymm_v5,2020.2.10,Win32,60,61025ae37ef11b136ea224fe,,,,,,,,,112,-97.59999001,-30.40000689,1,0,0,response5disk,,2,1.600060296,-6.4373E-06,1,0,0,rectangle,1.600060296,-6.4373E-06,1,0,0,1.600060296,-6.4373E-06,1,0,0,0,51,51,30,1,,,,,,,,
,,,,,,,,,,,,,FF,,,,,,,,2.16506,,,,,,,,,,,,,,,,,,,,,,6101698f1094df2f82ab8a5e,61036ba738f9927b499bc126,2021-07-29_22h04.03.328,Simcolourproject_2stim_asymm_v5,2020.2.10,Win32,60,61025ae37ef11b136ea224fe,,,,,,,,,2294,-46.39994042,-106.400008,1,0,0,response5disk,,3,-10.39993988,11.19999373,1,0,0,rectangle,-10.39993988,11.19999373,1,0,0,-10.39993988,11.19999373,1,0,0,0,52,52,65,1,,,,,,,,
,,,,,,,,,,,,,FF,,,,,,,,1.898234999,,,,,,,,,,,,,,,,,,,,,,6101698f1094df2f82ab8a5e,61036ba738f9927b499bc126,2021-07-29_22h04.03.328,Simcolourproject_2stim_asymm_v5,2020.2.10,Win32,60,61025ae37ef11b136ea224fe,,,,,,,,,3666,-40.79998916,-72.80000752,1,0,0,response5disk,,3,0.800011456,-6.400006533,1,0,0,rectangle,0.800011456,-6.400006533,1,0,0,0.800011456,-6.400006533,1,0,0,0,53,53,123,1,,,,,,,,
,,,,,,,,,,,,,FF,,,,,,,,1.249144999,,,,,,,,,,,,,,,,,,,,,,6101698f1094df2f82ab8a5e,61036ba738f9927b499bc126,2021-07-29_22h04.03.328,Simcolourproject_2stim_asymm_v5,2020.2.10,Win32,60,61025ae37ef11b136ea224fe,,,,,,,,,2265,35.20001197,75.19997027,1,0,0,response1disk,,7,-2.399939764,-10.40000659,1,0,0,rectangle,-2.399939764,-10.40000659,1,0,0,-2.399939764,-10.40000659,1,0,0,0,54,54,56,1,,,,,,,,
,,,,,,,,,,,,,FF,,,,,,,,1.382445,,,,,,,,,,,,,,,,,,,,,,6101698f1094df2f82ab8a5e,61036ba738f9927b499bc126,2021-07-29_22h04.03.328,Simcolourproject_2stim_asymm_v5,2020.2.10,Win32,60,61025ae37ef11b136ea224fe,,,,,,,,,681,48.80001217,71.19997021,1,0,0,response1disk,,7,-7.199988663,-0.800006449,1,0,0,rectangle,-7.199988663,-0.800006449,1,0,0,-7.199988663,-0.800006449,1,0,0,0,55,55,61,1,,,,,,,,
,,,,,,,,,,,,,FF,,,,,,,,1.565524999,,,,,,,,,,,,,,,,,,,,,,6101698f1094df2f82ab8a5e,61036ba738f9927b499bc126,2021-07-29_22h04.03.328,Simcolourproject_2stim_asymm_v5,2020.2.10,Win32,60,61025ae37ef11b136ea224fe,,,,,,,,,2411,61.60001236,-72.00000751,1,0,0,response3disk,,4,6.400011539,16.79999381,1,0,0,rectangle,6.400011539,16.79999381,1,0,0,6.400011539,16.79999381,1,0,0,0,56,56,129,1,,,,,,,,
,,,,,,,,,,,,,FF,,,,,,,,1.665379999,,,,,,,,,,,,,,,,,,,,,,6101698f1094df2f82ab8a5e,61036ba738f9927b499bc126,2021-07-29_22h04.03.328,Simcolourproject_2stim_asymm_v5,2020.2.10,Win32,60,61025ae37ef11b136ea224fe,,,,,,,,,1729,49.60006101,-30.40000689,1,0,0,response3disk,,5,12.80001163,-6.400006533,1,0,0,rectangle,12.80001163,-6.400006533,1,0,0,12.80001163,-6.400006533,1,0,0,0,57,57,88,1,,,,,,,,
,,,,,,,,,,,,,FF,,,,,,,,0.782775,,,,,,,,,,,,,,,,,,,,,,6101698f1094df2f82ab8a5e,61036ba738f9927b499bc126,2021-07-29_22h04.03.328,Simcolourproject_2stim_asymm_v5,2020.2.10,Win32,60,61025ae37ef11b136ea224fe,,,,,,,,,3137,49.60006101,120.7999954,1,0,0,response1disk,,7,-2.399939764,-6.4373E-06,1,0,0,rectangle,-2.399939764,-6.4373E-06,1,0,0,-2.399939764,-6.4373E-06,1,0,0,0,58,58,143,1,,,,,,,,
,,,,,,,,,,,,,FF,,,,,,,,1.782085,,,,,,,,,,,,,,,,,,,,,,6101698f1094df2f82ab8a5e,61036ba738f9927b499bc126,2021-07-29_22h04.03.328,Simcolourproject_2stim_asymm_v5,2020.2.10,Win32,60,61025ae37ef11b136ea224fe,,,,,,,,,2188,60.00001234,-42.40000707,1,0,0,response3disk,,5,1.600060296,-5.600006521,1,0,0,rectangle,1.600060296,-5.600006521,1,0,0,1.600060296,-5.600006521,1,0,0,0,59,59,103,1,,,,,,,,
,,,,,,,,,,,,,FF,,,,,,,,2.41471,,,,,,,,,,,,,,,,,,,,,,6101698f1094df2f82ab8a5e,61036ba738f9927b499bc126,2021-07-29_22h04.03.328,Simcolourproject_2stim_asymm_v5,2020.2.10,Win32,60,61025ae37ef11b136ea224fe,,,,,,,,,1469,-51.99998933,-108.000008,1,0,0,response5disk,,3,1.14441E-05,-0.800006449,1,0,0,rectangle,1.14441E-05,-0.800006449,1,0,0,1.14441E-05,-0.800006449,1,0,0,0,60,60,134,1,,,,,,,,
,,,,,,,,,,,,,FF,,,,,,,,1.132379999,,,,,,,,,,,,,,,,,,,,,,6101698f1094df2f82ab8a5e,61036ba738f9927b499bc126,2021-07-29_22h04.03.328,Simcolourproject_2stim_asymm_v5,2020.2.10,Win32,60,61025ae37ef11b136ea224fe,,,,,,,,,1394,40.00001204,75.9999947,1,0,0,response1disk,,7,1.600060296,-4.000006497,1,0,0,rectangle,1.600060296,-4.000006497,1,0,0,1.600060296,-4.000006497,1,0,0,0,61,61,104,1,,,,,,,,
,,,,,,,,,,,,,FF,,,,,,,,2.514464999,,,,,,,,,,,,,,,,,,,,,,6101698f1094df2f82ab8a5e,61036ba738f9927b499bc126,2021-07-29_22h04.03.328,Simcolourproject_2stim_asymm_v5,2020.2.10,Win32,60,61025ae37ef11b136ea224fe,,,,,,,,,2495,107.200013,33.59999406,1,0,0,response1disk,,6,-3.199988604,2.399993598,1,0,0,rectangle,-3.199988604,2.399993598,1,0,0,-3.199988604,2.399993598,1,0,0,0,62,62,149,1,,,,,,,,
,,,,,,,,,,,,,FF,,,,,,,,1.199075,,,,,,,,,,,,,,,,,,,,,,6101698f1094df2f82ab8a5e,61036ba738f9927b499bc126,2021-07-29_22h04.03.328,Simcolourproject_2stim_asymm_v5,2020.2.10,Win32,60,61025ae37ef11b136ea224fe,,,,,,,,,3312,40.80001205,99.99999505,1,0,0,response1disk,,7,-7.999988675,-3.200006485,1,0,0,rectangle,-7.999988675,-3.200006485,1,0,0,-7.999988675,-3.200006485,1,0,0,0,63,63,45,1,,,,,,,,
,,,,,,,,,,,,,FF,,,,,,,,0.849355001,,,,,,,,,,,,,,,,,,,,,,6101698f1094df2f82ab8a5e,61036ba738f9927b499bc126,2021-07-29_22h04.03.328,Simcolourproject_2stim_asymm_v5,2020.2.10,Win32,60,61025ae37ef11b136ea224fe,,,,,,,,,3146,-36.7999891,73.59999466,1,0,0,response7disk,,0,-0.799988568,-4.000006497,1,0,0,rectangle,-0.799988568,-4.000006497,1,0,0,-0.799988568,-4.000006497,1,0,0,0,64,64,39,1,,,,,,,,
,,,,,,,,,,,,,FF,,,,,,,,1.315580001,,,,,,,,,,,,,,,,,,,,,,6101698f1094df2f82ab8a5e,61036ba738f9927b499bc126,2021-07-29_22h04.03.328,Simcolourproject_2stim_asymm_v5,2020.2.10,Win32,60,61025ae37ef11b136ea224fe,,,,,,,,,1307,-82.39994096,-48.80000716,1,0,0,response5disk,,2,-6.399939823,-4.800006509,1,0,0,rectangle,-6.399939823,-4.800006509,1,0,0,-6.399939823,-4.800006509,1,0,0,0,65,65,139,1,,,,,,,,
,,,,,,,,,,,,,FF,,,,,,,,0.865835,,,,,,,,,,,,,,,,,,,,,,6101698f1094df2f82ab8a5e,61036ba738f9927b499bc126,2021-07-29_22h04.03.328,Simcolourproject_2stim_asymm_v5,2020.2.10,Win32,60,61025ae37ef11b136ea224fe,,,,,,,,,1308,-88.79998988,-45.60000712,1,0,0,response5disk,,2,6.400011539,-3.200006485,1,0,0,rectangle,6.400011539,-3.200006485,1,0,0,6.400011539,-3.200006485,1,0,0,0,66,66,6,1,,,,,,,,
,,,,,,,,,,,,,FF,,,,,,,,2.281409999,,,,,,,,,,,,,,,,,,,,,,6101698f1094df2f82ab8a5e,61036ba738f9927b499bc126,2021-07-29_22h04.03.328,Simcolourproject_2stim_asymm_v5,2020.2.10,Win32,60,61025ae37ef11b136ea224fe,,,,,,,,,644,28.80001187,-76.80000758,1,0,0,response3disk,,4,-3.199988604,4.799993634,1,0,0,rectangle,-3.199988604,4.799993634,1,0,0,-3.199988604,4.799993634,1,0,0,0,67,67,112,1,,,,,,,,
,,,,,,,,,,,,,FF,,,,,,,,1.315885,,,,,,,,,,,,,,,,,,,,,,6101698f1094df2f82ab8a5e,61036ba738f9927b499bc126,2021-07-29_22h04.03.328,Simcolourproject_2stim_asymm_v5,2020.2.10,Win32,60,61025ae37ef11b136ea224fe,,,,,,,,,871,-43.99998921,-96.80000788,1,0,0,response5disk,,3,5.600060356,14.39999378,1,0,0,rectangle,5.600060356,14.39999378,1,0,0,5.600060356,14.39999378,1,0,0,0,68,68,53,1,,,,,,,,
,,,,,,,,,,,,,FF,,,,,,,,2.864320001,,,,,,,,,,,,,,,,,,,,,,6101698f1094df2f82ab8a5e,61036ba738f9927b499bc126,2021-07-29_22h04.03.328,Simcolourproject_2stim_asymm_v5,2020.2.10,Win32,60,61025ae37ef11b136ea224fe,,,,,,,,,4058,101.600013,-43.20000708,1,0,0,response3disk,,5,2.40001148,-0.800006449,1,0,0,rectangle,2.40001148,-0.800006449,1,0,0,2.40001148,-0.800006449,1,0,0,0,69,69,51,1,,,,,,,,
,,,,,,,,,,,,,FF,,,,,,,,2.33667,,,,,,,,,,,,,,,,,,,,,,6101698f1094df2f82ab8a5e,61036ba738f9927b499bc126,2021-07-29_22h04.03.328,Simcolourproject_2stim_asymm_v5,2020.2.10,Win32,60,61025ae37ef11b136ea224fe,,,,,,,,,3401,104.800013,-32.00000691,1,0,0,response3disk,,5,5.600060356,-3.200006485,1,0,0,rectangle,5.600060356,-3.200006485,1,0,0,5.600060356,-3.200006485,1,0,0,0,70,70,8,1,,,,,,,,
,,,,,,,,,,,,,FF,,,,,,,,1.54456,,,,,,,,,,,,,,,,,,,,,,6101698f1094df2f82ab8a5e,61036ba738f9927b499bc126,2021-07-29_22h04.03.328,Simcolourproject_2stim_asymm_v5,2020.2.10,Win32,60,61025ae37ef11b136ea224fe,,,,,,,,,3445,100.8000129,58.39999443,1,0,0,response1disk,,6,-5.599988639,-3.200006485,1,0,0,rectangle,-5.599988639,-3.200006485,1,0,0,-5.599988639,-3.200006485,1,0,0,0,71,71,16,1,,,,,,,,
,,,,,,,,,,,,,FF,,,,,,,,1.332899999,,,,,,,,,,,,,,,,,,,,,,6101698f1094df2f82ab8a5e,61036ba738f9927b499bc126,2021-07-29_22h04.03.328,Simcolourproject_2stim_asymm_v5,2020.2.10,Win32,60,61025ae37ef11b136ea224fe,,,,,,,,,3074,38.40001202,95.19997057,1,0,0,response1disk,,7,4.800011516,-6.4373E-06,1,0,0,rectangle,4.800011516,-6.4373E-06,1,0,0,4.800011516,-6.4373E-06,1,0,0,0,72,72,107,1,,,,,,,,
,,,,,,,,,,,,,FF,,,,,,,,0.88208,,,,,,,,,,,,,,,,,,,,,,6101698f1094df2f82ab8a5e,61036ba738f9927b499bc126,2021-07-29_22h04.03.328,Simcolourproject_2stim_asymm_v5,2020.2.10,Win32,60,61025ae37ef11b136ea224fe,,,,,,,,,3434,-43.1999892,59.99999446,1,0,0,response7disk,,0,-9.599988699,1.599993587,1,0,0,rectangle,-9.599988699,1.599993587,1,0,0,-9.599988699,1.599993587,1,0,0,0,73,73,146,1,,,,,,,,
,,,,,,,,,,,,,FF,,,,,,,,1.74894,,,,,,,,,,,,,,,,,,,,,,6101698f1094df2f82ab8a5e,61036ba738f9927b499bc126,2021-07-29_22h04.03.328,Simcolourproject_2stim_asymm_v5,2020.2.10,Win32,60,61025ae37ef11b136ea224fe,,,,,,,,,1035,-43.1999892,-80.80000764,1,0,0,response5disk,,3,4.800011516,14.39999378,1,0,0,rectangle,4.800011516,14.39999378,1,0,0,4.800011516,14.39999378,1,0,0,0,74,74,148,1,,,,,,,,
,,,,,,,,,,,,,FF,,,,,,,,1.515595,,,,,,,,,,,,,,,,,,,,,,6101698f1094df2f82ab8a5e,61036ba738f9927b499bc126,2021-07-29_22h04.03.328,Simcolourproject_2stim_asymm_v5,2020.2.10,Win32,60,61025ae37ef11b136ea224fe,,,,,,,,,4346,-78.3999409,-40.80000705,1,0,0,response5disk,,2,-2.399939764,4.799993634,1,0,0,rectangle,-2.399939764,4.799993634,1,0,0,-2.399939764,4.799993634,1,0,0,0,75,75,113,1,,,,,,,,
,,,,,,,,,,,,,FF,,,,,,,,0.799795002,,,,,,,,,,,,,,,,,,,,,,6101698f1094df2f82ab8a5e,61036ba738f9927b499bc126,2021-07-29_22h04.03.328,Simcolourproject_2stim_asymm_v5,2020.2.10,Win32,60,61025ae37ef11b136ea224fe,,,,,,,,,2160,-66.39994072,123.9999954,1,0,0,response7disk,,0,-8.799988687,7.19999367,1,0,0,rectangle,-8.799988687,7.19999367,1,0,0,-8.799988687,7.19999367,1,0,0,0,76,76,24,1,,,,,,,,
,,,,,,,,,,,,,FF,,,,,,,,1.315499999,,,,,,,,,,,,,,,,,,,,,,6101698f1094df2f82ab8a5e,61036ba738f9927b499bc126,2021-07-29_22h04.03.328,Simcolourproject_2stim_asymm_v5,2020.2.10,Win32,60,61025ae37ef11b136ea224fe,,,,,,,,,873,-41.59998918,-114.4000081,1,0,0,response5disk,,3,11.20001161,11.19999373,1,0,0,rectangle,11.20001161,11.19999373,1,0,0,11.20001161,11.19999373,1,0,0,0,77,77,96,1,,,,,,,,
,,,,,,,,,,,,,FF,,,,,,,,2.398670001,,,,,,,,,,,,,,,,,,,,,,6101698f1094df2f82ab8a5e,61036ba738f9927b499bc126,2021-07-29_22h04.03.328,Simcolourproject_2stim_asymm_v5,2020.2.10,Win32,60,61025ae37ef11b136ea224fe,,,,,,,,,2077,90.40001279,-28.80000687,1,0,0,response3disk,,5,6.400011539,-2.400006473,1,0,0,rectangle,6.400011539,-2.400006473,1,0,0,6.400011539,-2.400006473,1,0,0,0,78,78,47,1,,,,,,,,
,,,,,,,,,,,,,FF,,,,,,,,0.783004999,,,,,,,,,,,,,,,,,,,,,,6101698f1094df2f82ab8a5e,61036ba738f9927b499bc126,2021-07-29_22h04.03.328,Simcolourproject_2stim_asymm_v5,2020.2.10,Win32,60,61025ae37ef11b136ea224fe,,,,,,,,,4071,-37.59998912,73.59999466,1,0,0,response7disk,,0,1.600060296,6.399993658,1,0,0,rectangle,1.600060296,6.399993658,1,0,0,1.600060296,6.399993658,1,0,0,0,79,79,78,1,,,,,,,,
,,,,,,,,,,,,,FF,,,,,,,,1.265745001,,,,,,,,,,,,,,,,,,,,,,6101698f1094df2f82ab8a5e,61036ba738f9927b499bc126,2021-07-29_22h04.03.328,Simcolourproject_2stim_asymm_v5,2020.2.10,Win32,60,61025ae37ef11b136ea224fe,,,,,,,,,943,50.4000122,81.59999478,1,0,0,response1disk,,7,8.800011575,2.399993598,1,0,0,rectangle,8.800011575,2.399993598,1,0,0,8.800011575,2.399993598,1,0,0,0,80,80,153,1,,,,,,,,
,,,,,,,,,,,,,FF,,,,,,,,2.21462,,,,,,,,,,,,,,,,,,,,,,6101698f1094df2f82ab8a5e,61036ba738f9927b499bc126,2021-07-29_22h04.03.328,Simcolourproject_2stim_asymm_v5,2020.2.10,Win32,60,61025ae37ef11b136ea224fe,,,,,,,,,828,40.00001204,95.19997057,1,0,0,response1disk,,7,1.14441E-05,1.599993587,1,0,0,rectangle,-73.59998965,46.39999425,1,0,0,1.600060296,7.19999367,1,0,0,0,81,81,89,1,,response7disk_3,TRUE,1,1,"[164,307,286,10,258,119,294,226,173,195,45,148,308,323,122,43,15,91,103,82]",1.58378,rectangle
,,,,,,,,,,,,,FF,,,,,,,,2.56913,,,,,,,,,,,,,,,,,,,,,,6101698f1094df2f82ab8a5e,61036ba738f9927b499bc126,2021-07-29_22h04.03.328,Simcolourproject_2stim_asymm_v5,2020.2.10,Win32,60,61025ae37ef11b136ea224fe,,,,,,,,,1898,-105.5999901,-30.40000689,1,0,0,response5disk,,2,1.600060296,3.999993622,1,0,0,rectangle,1.600060296,3.999993622,1,0,0,1.600060296,3.999993622,1,0,0,0,82,82,106,1,,,,,,,,
,,,,,,,,,,,,,FF,,,,,,,,2.281280002,,,,,,,,,,,,,,,,,,,,,,6101698f1094df2f82ab8a5e,61036ba738f9927b499bc126,2021-07-29_22h04.03.328,Simcolourproject_2stim_asymm_v5,2020.2.10,Win32,60,61025ae37ef11b136ea224fe,,,,,,,,,1552,95.20001286,41.59999418,1,0,0,response1disk,,6,10.4000116,-6.4373E-06,1,0,0,rectangle,10.4000116,-6.4373E-06,1,0,0,10.4000116,-6.4373E-06,1,0,0,0,83,83,23,1,,,,,,,,
,,,,,,,,,,,,,FF,,,,,,,,4.696045,,,,,,,,,,,,,,,,,,,,,,6101698f1094df2f82ab8a5e,61036ba738f9927b499bc126,2021-07-29_22h04.03.328,Simcolourproject_2stim_asymm_v5,2020.2.10,Win32,60,61025ae37ef11b136ea224fe,,,,,,,,,661,94.40001285,-31.2000069,1,0,0,response3disk,,5,11.20001161,-2.400006473,1,0,0,rectangle,11.20001161,-2.400006473,1,0,0,11.20001161,-2.400006473,1,0,0,0,84,84,150,1,,,,,,,,
,,,,,,,,,,,,,FF,,,,,,,,1.149704998,,,,,,,,,,,,,,,,,,,,,,6101698f1094df2f82ab8a5e,61036ba738f9927b499bc126,2021-07-29_22h04.03.328,Simcolourproject_2stim_asymm_v5,2020.2.10,Win32,60,61025ae37ef11b136ea224fe,,,,,,,,,636,-50.39994048,-86.40000772,1,0,0,response5disk,,3,-3.199988604,1.599993587,1,0,0,rectangle,-3.199988604,1.599993587,1,0,0,-3.199988604,1.599993587,1,0,0,0,85,85,58,1,,,,,,,,
,,,,,,,,,,,,,FF,,,,,,,,1.765705001,,,,,,,,,,,,,,,,,,,,,,6101698f1094df2f82ab8a5e,61036ba738f9927b499bc126,2021-07-29_22h04.03.328,Simcolourproject_2stim_asymm_v5,2020.2.10,Win32,60,61025ae37ef11b136ea224fe,,,,,,,,,1369,-79.19998974,-34.40000695,1,0,0,response5disk,,2,-1.59998858,-1.600006461,1,0,0,rectangle,-1.59998858,-1.600006461,1,0,0,-1.59998858,-1.600006461,1,0,0,0,86,86,40,1,,,,,,,,
,,,,,,,,,,,,,FF,,,,,,,,2.648085,,,,,,,,,,,,,,,,,,,,,,6101698f1094df2f82ab8a5e,61036ba738f9927b499bc126,2021-07-29_22h04.03.328,Simcolourproject_2stim_asymm_v5,2020.2.10,Win32,60,61025ae37ef11b136ea224fe,,,,,,,,,3752,48.00001216,-87.20000774,1,0,0,response3disk,,4,-6.399939823,10.39999372,1,0,0,rectangle,-6.399939823,10.39999372,1,0,0,-6.399939823,10.39999372,1,0,0,0,87,87,124,1,,,,,,,,
,,,,,,,,,,,,,FF,,,,,,,,1.831705,,,,,,,,,,,,,,,,,,,,,,6101698f1094df2f82ab8a5e,61036ba738f9927b499bc126,2021-07-29_22h04.03.328,Simcolourproject_2stim_asymm_v5,2020.2.10,Win32,60,61025ae37ef11b136ea224fe,,,,,,,,,3299,69.60001248,-103.200008,1,0,0,response3disk,,4,3.200011492,3.19999361,1,0,0,rectangle,3.200011492,3.19999361,1,0,0,3.200011492,3.19999361,1,0,0,0,88,88,158,1,,,,,,,,
,,,,,,,,,,,,,FF,,,,,,,,1.515545001,,,,,,,,,,,,,,,,,,,,,,6101698f1094df2f82ab8a5e,61036ba738f9927b499bc126,2021-07-29_22h04.03.328,Simcolourproject_2stim_asymm_v5,2020.2.10,Win32,60,61025ae37ef11b136ea224fe,,,,,,,,,464,-28.79998899,-120.0000082,1,0,0,response5disk,,3,-4.799988627,5.599993646,1,0,0,rectangle,-4.799988627,5.599993646,1,0,0,-4.799988627,5.599993646,1,0,0,0,89,89,138,1,,,,,,,,
,,,,,,,,,,,,,FF,,,,,,,,0.999244999,,,,,,,,,,,,,,,,,,,,,,6101698f1094df2f82ab8a5e,61036ba738f9927b499bc126,2021-07-29_22h04.03.328,Simcolourproject_2stim_asymm_v5,2020.2.10,Win32,60,61025ae37ef11b136ea224fe,,,,,,,,,2035,-60.79998946,-42.40000707,1,0,0,response5disk,,2,1.600060296,10.39999372,1,0,0,rectangle,98.40001291,45.59999424,1,0,0,-15.19998878,3.999993622,1,0,0,0,90,90,155,1,,response1disk_3,TRUE,6,6,"[164,307,286,10,258,119,294,226,173,195,45,148,308,323,122,43,15,91,103,82]",1.581460001,rectangle
,,,,,,,,,,,,,FF,,,,,,,,0.832505001,,,,,,,,,,,,,,,,,,,,,,6101698f1094df2f82ab8a5e,61036ba738f9927b499bc126,2021-07-29_22h04.03.328,Simcolourproject_2stim_asymm_v5,2020.2.10,Win32,60,61025ae37ef11b136ea224fe,,,,,,,,,2292,-31.99998903,61.59999448,1,0,0,response7disk,,0,-10.39993988,0.799993575,1,0,0,rectangle,-10.39993988,0.799993575,1,0,0,-10.39993988,0.799993575,1,0,0,0,91,91,74,1,,,,,,,,
,,,,,,,,,,,,,FF,,,,,,,,2.464925,,,,,,,,,,,,,,,,,,,,,,6101698f1094df2f82ab8a5e,61036ba738f9927b499bc126,2021-07-29_22h04.03.328,Simcolourproject_2stim_asymm_v5,2020.2.10,Win32,60,61025ae37ef11b136ea224fe,,,,,,,,,394,62.40001237,-108.000008,1,0,0,response3disk,,4,2.40001148,4.799993634,1,0,0,rectangle,2.40001148,4.799993634,1,0,0,2.40001148,4.799993634,1,0,0,0,92,92,135,1,,,,,,,,
,,,,,,,,,,,,,FF,,,,,,,,0.899195001,,,,,,,,,,,,,,,,,,,,,,6101698f1094df2f82ab8a5e,61036ba738f9927b499bc126,2021-07-29_22h04.03.328,Simcolourproject_2stim_asymm_v5,2020.2.10,Win32,60,61025ae37ef11b136ea224fe,,,,,,,,,3186,39.20001203,88.79999489,1,0,0,response1disk,,7,1.600060296,10.39999372,1,0,0,rectangle,1.600060296,10.39999372,1,0,0,1.600060296,10.39999372,1,0,0,0,93,93,126,1,,,,,,,,
,,,,,,,,,,,,,FF,,,,,,,,3.430120001,,,,,,,,,,,,,,,,,,,,,,6101698f1094df2f82ab8a5e,61036ba738f9927b499bc126,2021-07-29_22h04.03.328,Simcolourproject_2stim_asymm_v5,2020.2.10,Win32,60,61025ae37ef11b136ea224fe,,,,,,,,,2143,42.40001208,71.99999464,1,0,0,response1disk,,7,-1.59998858,-3.200006485,1,0,0,rectangle,-1.59998858,-3.200006485,1,0,0,-1.59998858,-3.200006485,1,0,0,0,94,94,132,1,,,,,,,,
,,,,,,,,,,,,,FF,,,,,,,,1.099280002,,,,,,,,,,,,,,,,,,,,,,6101698f1094df2f82ab8a5e,61036ba738f9927b499bc126,2021-07-29_22h04.03.328,Simcolourproject_2stim_asymm_v5,2020.2.10,Win32,60,61025ae37ef11b136ea224fe,,,,,,,,,1745,-78.3999409,-48.80000716,1,0,0,response5disk,,2,-0.799988568,2.399993598,1,0,0,rectangle,-0.799988568,2.399993598,1,0,0,-0.799988568,2.399993598,1,0,0,0,95,95,97,1,,,,,,,,
,,,,,,,,,,,,,FF,,,,,,,,3.863575,,,,,,,,,,,,,,,,,,,,,,6101698f1094df2f82ab8a5e,61036ba738f9927b499bc126,2021-07-29_22h04.03.328,Simcolourproject_2stim_asymm_v5,2020.2.10,Win32,60,61025ae37ef11b136ea224fe,,,,,,,,,4203,-88.79998988,-41.60000706,1,0,0,response5disk,,2,-4.799988627,3.999993622,1,0,0,rectangle,-4.799988627,3.999993622,1,0,0,-4.799988627,3.999993622,1,0,0,0,96,96,101,1,,,,,,,,
,,,,,,,,,,,,,FF,,,,,,,,3.281065,,,,,,,,,,,,,,,,,,,,,,6101698f1094df2f82ab8a5e,61036ba738f9927b499bc126,2021-07-29_22h04.03.328,Simcolourproject_2stim_asymm_v5,2020.2.10,Win32,60,61025ae37ef11b136ea224fe,,,,,,,,,4296,64.0000124,34.39999408,1,0,0,response1disk,,6,-5.599988639,6.399993658,1,0,0,rectangle,-5.599988639,6.399993658,1,0,0,-5.599988639,6.399993658,1,0,0,0,97,97,49,1,,,,,,,,
,,,,,,,,,,,,,FF,,,,,,,,1.59897,,,,,,,,,,,,,,,,,,,,,,6101698f1094df2f82ab8a5e,61036ba738f9927b499bc126,2021-07-29_22h04.03.328,Simcolourproject_2stim_asymm_v5,2020.2.10,Win32,60,61025ae37ef11b136ea224fe,,,,,,,,,2171,-51.99998933,-88.80000776,1,0,0,response5disk,,3,-6.399939823,-4.800006509,1,0,0,rectangle,-6.399939823,-4.800006509,1,0,0,-6.399939823,-4.800006509,1,0,0,0,98,98,114,1,,,,,,,,
,,,,,,,,,,,,,FF,,,,,,,,1.04943,,,,,,,,,,,,,,,,,,,,,,6101698f1094df2f82ab8a5e,61036ba738f9927b499bc126,2021-07-29_22h04.03.328,Simcolourproject_2stim_asymm_v5,2020.2.10,Win32,60,61025ae37ef11b136ea224fe,,,,,,,,,2229,-93.59998995,-47.20000714,1,0,0,response5disk,,2,-1.59998858,0.799993575,1,0,0,rectangle,-1.59998858,0.799993575,1,0,0,-1.59998858,0.799993575,1,0,0,0,99,99,91,1,,,,,,,,
,,,,,,,,,,,,,FF,,,,,,,,1.732154999,,,,,,,,,,,,,,,,,,,,,,6101698f1094df2f82ab8a5e,61036ba738f9927b499bc126,2021-07-29_22h04.03.328,Simcolourproject_2stim_asymm_v5,2020.2.10,Win32,60,61025ae37ef11b136ea224fe,,,,,,,,,2547,-91.19998991,-52.00000721,1,0,0,response5disk,,2,-7.199988663,7.19999367,1,0,0,rectangle,-7.199988663,7.19999367,1,0,0,-7.199988663,7.19999367,1,0,0,0,100,100,130,1,,,,,,,,
,,,,,,,,,,,,,FF,,,,,,,,1.586985001,,,,,,,,,,,,,,,,,,,,,,6101698f1094df2f82ab8a5e,61036ba738f9927b499bc126,2021-07-29_22h04.03.328,Simcolourproject_2stim_asymm_v5,2020.2.10,Win32,60,61025ae37ef11b136ea224fe,,,,,,,,,410,80.80001265,-52.00000721,1,0,0,response3disk,,5,-2.399939764,3.999993622,1,0,0,rectangle,-2.399939764,3.999993622,1,0,0,-2.399939764,3.999993622,1,0,0,0,101,101,144,1,,,,,,,,
,,,,,,,,,,,,,FF,,,,,,,,1.182714999,,,,,,,,,,,,,,,,,,,,,,6101698f1094df2f82ab8a5e,61036ba738f9927b499bc126,2021-07-29_22h04.03.328,Simcolourproject_2stim_asymm_v5,2020.2.10,Win32,60,61025ae37ef11b136ea224fe,,,,,,,,,3744,-70.39994078,45.59999424,1,0,0,response7disk,,1,8.000011563,-11.2000066,1,0,0,rectangle,28.80001187,-95.20000786,1,0,0,2.40001148,2.399993598,1,0,0,0,102,102,72,1,,response3disk_3,TRUE,4,4,"[164,307,286,10,258,119,294,226,173,195,45,148,308,323,122,43,15,91,103,82]",2.011295,rectangle
,,,,,,,,,,,,,FF,,,,,,,,0.933045,,,,,,,,,,,,,,,,,,,,,,6101698f1094df2f82ab8a5e,61036ba738f9927b499bc126,2021-07-29_22h04.03.328,Simcolourproject_2stim_asymm_v5,2020.2.10,Win32,60,61025ae37ef11b136ea224fe,,,,,,,,,886,-40.79998916,75.19997027,1,0,0,response7disk,,0,1.600060296,-0.800006449,1,0,0,rectangle,1.600060296,-0.800006449,1,0,0,1.600060296,-0.800006449,1,0,0,0,103,103,50,1,,,,,,,,
,,,,,,,,,,,,,FF,,,,,,,,1.998265,,,,,,,,,,,,,,,,,,,,,,6101698f1094df2f82ab8a5e,61036ba738f9927b499bc126,2021-07-29_22h04.03.328,Simcolourproject_2stim_asymm_v5,2020.2.10,Win32,60,61025ae37ef11b136ea224fe,,,,,,,,,3190,-89.59998989,21.59999388,1,0,0,response7disk,,1,-20.79998887,5.599993646,1,0,0,rectangle,-20.79998887,5.599993646,1,0,0,-20.79998887,5.599993646,1,0,0,0,104,104,32,1,,,,,,,,
,,,,,,,,,,,,,FF,,,,,,,,1.782204999,,,,,,,,,,,,,,,,,,,,,,6101698f1094df2f82ab8a5e,61036ba738f9927b499bc126,2021-07-29_22h04.03.328,Simcolourproject_2stim_asymm_v5,2020.2.10,Win32,60,61025ae37ef11b136ea224fe,,,,,,,,,3959,69.60001248,-24.00000679,1,0,0,response3disk,,5,6.400011539,-2.400006473,1,0,0,rectangle,6.400011539,-2.400006473,1,0,0,6.400011539,-2.400006473,1,0,0,0,105,105,115,1,,,,,,,,
,,,,,,,,,,,,,FF,,,,,,,,0.833250001,,,,,,,,,,,,,,,,,,,,,,6101698f1094df2f82ab8a5e,61036ba738f9927b499bc126,2021-07-29_22h04.03.328,Simcolourproject_2stim_asymm_v5,2020.2.10,Win32,60,61025ae37ef11b136ea224fe,,,,,,,,,3671,-51.19998932,57.59999442,1,0,0,response7disk,,0,-9.599988699,-0.800006449,1,0,0,rectangle,-9.599988699,-0.800006449,1,0,0,-9.599988699,-0.800006449,1,0,0,0,106,106,159,1,,,,,,,,
,,,,,,,,,,,,,FF,,,,,,,,2.631645,,,,,,,,,,,,,,,,,,,,,,6101698f1094df2f82ab8a5e,61036ba738f9927b499bc126,2021-07-29_22h04.03.328,Simcolourproject_2stim_asymm_v5,2020.2.10,Win32,60,61025ae37ef11b136ea224fe,,,,,,,,,2308,88.80001277,33.59999406,1,0,0,response1disk,,6,-2.399939764,1.599993587,1,0,0,rectangle,-2.399939764,1.599993587,1,0,0,-2.399939764,1.599993587,1,0,0,0,107,107,35,1,,,,,,,,
,,,,,,,,,,,,,FF,,,,,,,,1.881974999,,,,,,,,,,,,,,,,,,,,,,6101698f1094df2f82ab8a5e,61036ba738f9927b499bc126,2021-07-29_22h04.03.328,Simcolourproject_2stim_asymm_v5,2020.2.10,Win32,60,61025ae37ef11b136ea224fe,,,,,,,,,23,43.20001209,-63.20000738,1,0,0,response3disk,,4,-7.999988675,2.399993598,1,0,0,rectangle,-7.999988675,2.399993598,1,0,0,-7.999988675,2.399993598,1,0,0,0,108,108,22,1,,,,,,,,
,,,,,,,,,,,,,FF,,,,,,,,1.53232,,,,,,,,,,,,,,,,,,,,,,6101698f1094df2f82ab8a5e,61036ba738f9927b499bc126,2021-07-29_22h04.03.328,Simcolourproject_2stim_asymm_v5,2020.2.10,Win32,60,61025ae37ef11b136ea224fe,,,,,,,,,4250,27.20001185,-60.80000734,1,0,0,response3disk,,4,-5.599988639,1.599993587,1,0,0,rectangle,-5.599988639,1.599993587,1,0,0,-5.599988639,1.599993587,1,0,0,0,109,109,131,1,,,,,,,,
,,,,,,,,,,,,,FF,,,,,,,,1.43255,,,,,,,,,,,,,,,,,,,,,,6101698f1094df2f82ab8a5e,61036ba738f9927b499bc126,2021-07-29_22h04.03.328,Simcolourproject_2stim_asymm_v5,2020.2.10,Win32,60,61025ae37ef11b136ea224fe,,,,,,,,,2767,-39.99998915,-78.40000761,1,0,0,response5disk,,3,-3.199988604,4.799993634,1,0,0,rectangle,-3.199988604,4.799993634,1,0,0,-3.199988604,4.799993634,1,0,0,0,110,110,33,1,,,,,,,,
,,,,,,,,,,,,,FF,,,,,,,,1.194800001,,,,,,,,,,,,,,,,,,,,,,6101698f1094df2f82ab8a5e,61036ba738f9927b499bc126,2021-07-29_22h04.03.328,Simcolourproject_2stim_asymm_v5,2020.2.10,Win32,60,61025ae37ef11b136ea224fe,,,,,,,,,859,51.20001221,33.59999406,1,0,0,response1disk,,6,-9.599988699,2.399993598,1,0,0,rectangle,-9.599988699,2.399993598,1,0,0,-9.599988699,2.399993598,1,0,0,0,111,111,87,1,,,,,,,,
,,,,,,,,,,,,,FF,,,,,,,,1.032825001,,,,,,,,,,,,,,,,,,,,,,6101698f1094df2f82ab8a5e,61036ba738f9927b499bc126,2021-07-29_22h04.03.328,Simcolourproject_2stim_asymm_v5,2020.2.10,Win32,60,61025ae37ef11b136ea224fe,,,,,,,,,3121,46.40001214,115.1999709,1,0,0,response1disk,,7,4.000011504,14.39999378,1,0,0,rectangle,4.000011504,14.39999378,1,0,0,4.000011504,14.39999378,1,0,0,0,112,112,60,1,,,,,,,,
,,,,,,,,,,,,,FF,,,,,,,,1.115455,,,,,,,,,,,,,,,,,,,,,,6101698f1094df2f82ab8a5e,61036ba738f9927b499bc126,2021-07-29_22h04.03.328,Simcolourproject_2stim_asymm_v5,2020.2.10,Win32,60,61025ae37ef11b136ea224fe,,,,,,,,,573,40.00001204,73.59999466,1,0,0,response1disk,,7,-0.799988568,8.799993694,1,0,0,rectangle,-0.799988568,8.799993694,1,0,0,-0.799988568,8.799993694,1,0,0,0,113,113,83,1,,,,,,,,
,,,,,,,,,,,,,FF,,,,,,,,0.966090001,,,,,,,,,,,,,,,,,,,,,,6101698f1094df2f82ab8a5e,61036ba738f9927b499bc126,2021-07-29_22h04.03.328,Simcolourproject_2stim_asymm_v5,2020.2.10,Win32,60,61025ae37ef11b136ea224fe,,,,,,,,,2008,26.40001184,64.79999453,1,0,0,response1disk,,7,1.14441E-05,11.99999374,1,0,0,rectangle,1.14441E-05,11.99999374,1,0,0,1.14441E-05,11.99999374,1,0,0,0,114,114,10,1,,,,,,,,
,,,,,,,,,,,,,FF,,,,,,,,0.999295,,,,,,,,,,,,,,,,,,,,,,6101698f1094df2f82ab8a5e,61036ba738f9927b499bc126,2021-07-29_22h04.03.328,Simcolourproject_2stim_asymm_v5,2020.2.10,Win32,60,61025ae37ef11b136ea224fe,,,,,,,,,3580,30.4000119,72.79999465,1,0,0,response1disk,,7,2.40001148,7.999993682,1,0,0,rectangle,2.40001148,7.999993682,1,0,0,2.40001148,7.999993682,1,0,0,0,115,115,98,1,,,,,,,,
,,,,,,,,,,,,,FF,,,,,,,,1.948535001,,,,,,,,,,,,,,,,,,,,,,6101698f1094df2f82ab8a5e,61036ba738f9927b499bc126,2021-07-29_22h04.03.328,Simcolourproject_2stim_asymm_v5,2020.2.10,Win32,60,61025ae37ef11b136ea224fe,,,,,,,,,126,88.00001276,32.79999405,1,0,0,response1disk,,6,-3.999988616,6.399993658,1,0,0,rectangle,-3.999988616,6.399993658,1,0,0,-3.999988616,6.399993658,1,0,0,0,116,116,3,1,,,,,,,,
,,,,,,,,,,,,,FF,,,,,,,,1.149045002,,,,,,,,,,,,,,,,,,,,,,6101698f1094df2f82ab8a5e,61036ba738f9927b499bc126,2021-07-29_22h04.03.328,Simcolourproject_2stim_asymm_v5,2020.2.10,Win32,60,61025ae37ef11b136ea224fe,,,,,,,,,2606,-59.99998945,31.99999404,1,0,0,response7disk,,1,-9.599988699,5.599993646,1,0,0,rectangle,-9.599988699,5.599993646,1,0,0,-9.599988699,5.599993646,1,0,0,0,117,117,15,1,,,,,,,,
,,,,,,,,,,,,,FF,,,,,,,,1.615390001,,,,,,,,,,,,,,,,,,,,,,6101698f1094df2f82ab8a5e,61036ba738f9927b499bc126,2021-07-29_22h04.03.328,Simcolourproject_2stim_asymm_v5,2020.2.10,Win32,60,61025ae37ef11b136ea224fe,,,,,,,,,425,36.00001198,-26.40000683,1,0,0,response3disk,,5,1.14441E-05,-2.400006473,1,0,0,rectangle,-57.59998941,27.19996955,1,0,0,-13.59998876,-6.4373E-06,1,0,0,0,118,118,42,1,,response7disk_3,TRUE,1,1,"[164,307,286,10,258,119,294,226,173,195,45,148,308,323,122,43,15,91,103,82]",1.248815,rectangle
,,,,,,,,,,,,,FF,,,,,,,,1.98164,,,,,,,,,,,,,,,,,,,,,,6101698f1094df2f82ab8a5e,61036ba738f9927b499bc126,2021-07-29_22h04.03.328,Simcolourproject_2stim_asymm_v5,2020.2.10,Win32,60,61025ae37ef11b136ea224fe,,,,,,,,,577,60.80001235,40.79999417,1,0,0,response1disk,,6,-7.999988675,7.19999367,1,0,0,rectangle,-7.999988675,7.19999367,1,0,0,-7.999988675,7.19999367,1,0,0,0,119,119,80,1,,,,,,,,
,,,,,,,,,,,,,FF,,,,,,,,1.132575,,,,,,,,,,,,,,,,,,,,,,6101698f1094df2f82ab8a5e,61036ba738f9927b499bc126,2021-07-29_22h04.03.328,Simcolourproject_2stim_asymm_v5,2020.2.10,Win32,60,61025ae37ef11b136ea224fe,,,,,,,,,2873,40.00001204,52.79999435,1,0,0,response1disk,,7,3.200011492,3.999993622,1,0,0,rectangle,3.200011492,3.999993622,1,0,0,3.200011492,3.999993622,1,0,0,0,120,120,9,1,,,,,,,,
,,,,,,,,,,,,,FF,,,,,,,,2.114994999,,,,,,,,,,,,,,,,,,,,,,6101698f1094df2f82ab8a5e,61036ba738f9927b499bc126,2021-07-29_22h04.03.328,Simcolourproject_2stim_asymm_v5,2020.2.10,Win32,60,61025ae37ef11b136ea224fe,,,,,,,,,4193,102.400013,-42.40000707,1,0,0,response3disk,,5,3.200011492,7.19999367,1,0,0,rectangle,80.80001265,-22.40000677,1,0,0,-0.799988568,5.599993646,1,0,0,0,121,121,82,1,,response3disk_3,TRUE,5,5,"[164,307,286,10,258,119,294,226,173,195,45,148,308,323,122,43,15,91,103,82]",1.31532,rectangle
,,,,,,,,,,,,,FF,,,,,,,,1.332870001,,,,,,,,,,,,,,,,,,,,,,6101698f1094df2f82ab8a5e,61036ba738f9927b499bc126,2021-07-29_22h04.03.328,Simcolourproject_2stim_asymm_v5,2020.2.10,Win32,60,61025ae37ef11b136ea224fe,,,,,,,,,1589,75.20001256,30.39999402,1,0,0,response1disk,,6,0.800011456,3.999993622,1,0,0,rectangle,0.800011456,3.999993622,1,0,0,0.800011456,3.999993622,1,0,0,0,122,122,2,1,,,,,,,,
,,,,,,,,,,,,,FF,,,,,,,,1.149429999,,,,,,,,,,,,,,,,,,,,,,6101698f1094df2f82ab8a5e,61036ba738f9927b499bc126,2021-07-29_22h04.03.328,Simcolourproject_2stim_asymm_v5,2020.2.10,Win32,60,61025ae37ef11b136ea224fe,,,,,,,,,3522,-59.19998944,38.39999413,1,0,0,response7disk,,1,-3.999988616,5.599993646,1,0,0,rectangle,-3.999988616,5.599993646,1,0,0,-3.999988616,5.599993646,1,0,0,0,123,123,141,1,,,,,,,,
,,,,,,,,,,,,,FF,,,,,,,,0.71627,,,,,,,,,,,,,,,,,,,,,,6101698f1094df2f82ab8a5e,61036ba738f9927b499bc126,2021-07-29_22h04.03.328,Simcolourproject_2stim_asymm_v5,2020.2.10,Win32,60,61025ae37ef11b136ea224fe,,,,,,,,,3748,-63.1999895,31.99999404,1,0,0,response7disk,,1,-11.99998873,5.599993646,1,0,0,rectangle,-11.99998873,5.599993646,1,0,0,-11.99998873,5.599993646,1,0,0,0,124,124,71,1,,,,,,,,
,,,,,,,,,,,,,FF,,,,,,,,1.265725,,,,,,,,,,,,,,,,,,,,,,6101698f1094df2f82ab8a5e,61036ba738f9927b499bc126,2021-07-29_22h04.03.328,Simcolourproject_2stim_asymm_v5,2020.2.10,Win32,60,61025ae37ef11b136ea224fe,,,,,,,,,758,37.60006083,48.79999429,1,0,0,response1disk,,7,-0.799988568,12.79999375,1,0,0,rectangle,-0.799988568,12.79999375,1,0,0,-0.799988568,12.79999375,1,0,0,0,125,125,84,1,,,,,,,,
,,,,,,,,,,,,,FF,,,,,,,,1.815535,,,,,,,,,,,,,,,,,,,,,,6101698f1094df2f82ab8a5e,61036ba738f9927b499bc126,2021-07-29_22h04.03.328,Simcolourproject_2stim_asymm_v5,2020.2.10,Win32,60,61025ae37ef11b136ea224fe,,,,,,,,,1904,-64.79998952,-66.40000743,1,0,0,response5disk,,3,7.200011551,7.19999367,1,0,0,rectangle,7.200011551,7.19999367,1,0,0,7.200011551,7.19999367,1,0,0,0,126,126,37,1,,,,,,,,
,,,,,,,,,,,,,FF,,,,,,,,1.582180001,,,,,,,,,,,,,,,,,,,,,,6101698f1094df2f82ab8a5e,61036ba738f9927b499bc126,2021-07-29_22h04.03.328,Simcolourproject_2stim_asymm_v5,2020.2.10,Win32,60,61025ae37ef11b136ea224fe,,,,,,,,,2594,94.40001285,38.39999413,1,0,0,response1disk,,6,4.800011516,4.799993634,1,0,0,rectangle,4.800011516,4.799993634,1,0,0,4.800011516,4.799993634,1,0,0,0,127,127,17,1,,,,,,,,
,,,,,,,,,,,,,FF,,,,,,,,1.748565,,,,,,,,,,,,,,,,,,,,,,6101698f1094df2f82ab8a5e,61036ba738f9927b499bc126,2021-07-29_22h04.03.328,Simcolourproject_2stim_asymm_v5,2020.2.10,Win32,60,61025ae37ef11b136ea224fe,,,,,,,,,815,26.40001184,-46.40000713,1,0,0,response3disk,,4,4.000011504,-8.800006568,1,0,0,rectangle,4.000011504,-8.800006568,1,0,0,4.000011504,-8.800006568,1,0,0,0,128,128,26,1,,,,,,,,
,,,,,,,,,,,,,FF,,,,,,,,1.148865001,,,,,,,,,,,,,,,,,,,,,,6101698f1094df2f82ab8a5e,61036ba738f9927b499bc126,2021-07-29_22h04.03.328,Simcolourproject_2stim_asymm_v5,2020.2.10,Win32,60,61025ae37ef11b136ea224fe,,,,,,,,,405,62.40001237,31.99999404,1,0,0,response1disk,,6,9.600060415,12.79999375,1,0,0,rectangle,9.600060415,12.79999375,1,0,0,9.600060415,12.79999375,1,0,0,0,129,129,147,1,,,,,,,,
,,,,,,,,,,,,,FF,,,,,,,,1.049325,,,,,,,,,,,,,,,,,,,,,,6101698f1094df2f82ab8a5e,61036ba738f9927b499bc126,2021-07-29_22h04.03.328,Simcolourproject_2stim_asymm_v5,2020.2.10,Win32,60,61025ae37ef11b136ea224fe,,,,,,,,,2654,-54.39994054,-35.20000696,1,0,0,response5disk,,2,-13.59998876,1.599993587,1,0,0,rectangle,-13.59998876,1.599993587,1,0,0,-13.59998876,1.599993587,1,0,0,0,130,130,14,1,,,,,,,,
,,,,,,,,,,,,,FF,,,,,,,,1.298885001,,,,,,,,,,,,,,,,,,,,,,6101698f1094df2f82ab8a5e,61036ba738f9927b499bc126,2021-07-29_22h04.03.328,Simcolourproject_2stim_asymm_v5,2020.2.10,Win32,60,61025ae37ef11b136ea224fe,,,,,,,,,1392,80.80001265,20.79999387,1,0,0,response1disk,,6,-4.799988627,2.399993598,1,0,0,rectangle,-4.799988627,2.399993598,1,0,0,-4.799988627,2.399993598,1,0,0,0,131,131,19,1,,,,,,,,
,,,,,,,,,,,,,FF,,,,,,,,0.74955,,,,,,,,,,,,,,,,,,,,,,6101698f1094df2f82ab8a5e,61036ba738f9927b499bc126,2021-07-29_22h04.03.328,Simcolourproject_2stim_asymm_v5,2020.2.10,Win32,60,61025ae37ef11b136ea224fe,,,,,,,,,2692,47.20001215,125.5999954,1,0,0,response1disk,,7,6.400011539,3.19999361,1,0,0,rectangle,6.400011539,3.19999361,1,0,0,6.400011539,3.19999361,1,0,0,0,132,132,109,1,,,,,,,,
,,,,,,,,,,,,,FF,,,,,,,,0.949615,,,,,,,,,,,,,,,,,,,,,,6101698f1094df2f82ab8a5e,61036ba738f9927b499bc126,2021-07-29_22h04.03.328,Simcolourproject_2stim_asymm_v5,2020.2.10,Win32,60,61025ae37ef11b136ea224fe,,,,,,,,,1295,-60.79998946,-24.00000679,1,0,0,response5disk,,2,-10.39993988,0.799993575,1,0,0,rectangle,-10.39993988,0.799993575,1,0,0,-10.39993988,0.799993575,1,0,0,0,133,133,28,1,,,,,,,,
,,,,,,,,,,,,,FF,,,,,,,,1.09914,,,,,,,,,,,,,,,,,,,,,,6101698f1094df2f82ab8a5e,61036ba738f9927b499bc126,2021-07-29_22h04.03.328,Simcolourproject_2stim_asymm_v5,2020.2.10,Win32,60,61025ae37ef11b136ea224fe,,,,,,,,,1576,26.40001184,71.99999464,1,0,0,response1disk,,7,-2.399939764,-3.200006485,1,0,0,rectangle,-2.399939764,-3.200006485,1,0,0,-2.399939764,-3.200006485,1,0,0,0,134,134,44,1,,,,,,,,
,,,,,,,,,,,,,FF,,,,,,,,2.231690001,,,,,,,,,,,,,,,,,,,,,,6101698f1094df2f82ab8a5e,61036ba738f9927b499bc126,2021-07-29_22h04.03.328,Simcolourproject_2stim_asymm_v5,2020.2.10,Win32,60,61025ae37ef11b136ea224fe,,,,,,,,,2464,26.40001184,63.99999452,1,0,0,response1disk,,7,8.000011563,9.599993706,1,0,0,rectangle,8.000011563,9.599993706,1,0,0,8.000011563,9.599993706,1,0,0,0,135,135,57,1,,,,,,,,
,,,,,,,,,,,,,FF,,,,,,,,1.915325001,,,,,,,,,,,,,,,,,,,,,,6101698f1094df2f82ab8a5e,61036ba738f9927b499bc126,2021-07-29_22h04.03.328,Simcolourproject_2stim_asymm_v5,2020.2.10,Win32,60,61025ae37ef11b136ea224fe,,,,,,,,,2389,29.60006071,71.99999464,1,0,0,response1disk,,7,-4.799988627,-3.200006485,1,0,0,rectangle,-4.799988627,-3.200006485,1,0,0,-4.799988627,-3.200006485,1,0,0,0,136,136,59,1,,,,,,,,
,,,,,,,,,,,,,FF,,,,,,,,1.915395001,,,,,,,,,,,,,,,,,,,,,,6101698f1094df2f82ab8a5e,61036ba738f9927b499bc126,2021-07-29_22h04.03.328,Simcolourproject_2stim_asymm_v5,2020.2.10,Win32,60,61025ae37ef11b136ea224fe,,,,,,,,,2280,37.60006083,87.19997045,1,0,0,response1disk,,7,-4.799988627,9.599993706,1,0,0,rectangle,-4.799988627,9.599993706,1,0,0,-4.799988627,9.599993706,1,0,0,0,137,137,77,1,,,,,,,,
,,,,,,,,,,,,,FF,,,,,,,,1.149309998,,,,,,,,,,,,,,,,,,,,,,6101698f1094df2f82ab8a5e,61036ba738f9927b499bc126,2021-07-29_22h04.03.328,Simcolourproject_2stim_asymm_v5,2020.2.10,Win32,60,61025ae37ef11b136ea224fe,,,,,,,,,3310,-30.39994018,-61.60000736,1,0,0,response5disk,,3,7.200011551,5.599993646,1,0,0,rectangle,7.200011551,5.599993646,1,0,0,7.200011551,5.599993646,1,0,0,0,138,138,133,1,,,,,,,,
,,,,,,,,,,,,,FF,,,,,,,,1.032749999,,,,,,,,,,,,,,,,,,,,,,6101698f1094df2f82ab8a5e,61036ba738f9927b499bc126,2021-07-29_22h04.03.328,Simcolourproject_2stim_asymm_v5,2020.2.10,Win32,60,61025ae37ef11b136ea224fe,,,,,,,,,825,-44.79998922,-75.20000756,1,0,0,response5disk,,3,-7.199988663,-9.60000658,1,0,0,rectangle,-7.199988663,-9.60000658,1,0,0,-7.199988663,-9.60000658,1,0,0,0,139,139,99,1,,,,,,,,
,,,,,,,,,,,,,FF,,,,,,,,1.41561,,,,,,,,,,,,,,,,,,,,,,6101698f1094df2f82ab8a5e,61036ba738f9927b499bc126,2021-07-29_22h04.03.328,Simcolourproject_2stim_asymm_v5,2020.2.10,Win32,60,61025ae37ef11b136ea224fe,,,,,,,,,1920,28.80001187,35.19996967,1,0,0,response1disk,,7,2.40001148,-8.800006568,1,0,0,rectangle,2.40001148,-8.800006568,1,0,0,2.40001148,-8.800006568,1,0,0,0,140,140,156,1,,,,,,,,
,,,,,,,,,,,,,FF,,,,,,,,2.1315,,,,,,,,,,,,,,,,,,,,,,6101698f1094df2f82ab8a5e,61036ba738f9927b499bc126,2021-07-29_22h04.03.328,Simcolourproject_2stim_asymm_v5,2020.2.10,Win32,60,61025ae37ef11b136ea224fe,,,,,,,,,4034,74.40001255,-29.60000688,1,0,0,response3disk,,5,-12.79998875,-8.800006568,1,0,0,rectangle,-12.79998875,-8.800006568,1,0,0,-12.79998875,-8.800006568,1,0,0,0,141,141,20,1,,,,,,,,
,,,,,,,,,,,,,FF,,,,,,,,1.09905,,,,,,,,,,,,,,,,,,,,,,6101698f1094df2f82ab8a5e,61036ba738f9927b499bc126,2021-07-29_22h04.03.328,Simcolourproject_2stim_asymm_v5,2020.2.10,Win32,60,61025ae37ef11b136ea224fe,,,,,,,,,3024,18.40001172,34.39999408,1,0,0,response1disk,,7,4.800011516,12.79999375,1,0,0,rectangle,4.800011516,12.79999375,1,0,0,4.800011516,12.79999375,1,0,0,0,142,142,5,1,,,,,,,,
,,,,,,,,,,,,,FF,,,,,,,,0.749605,,,,,,,,,,,,,,,,,,,,,,6101698f1094df2f82ab8a5e,61036ba738f9927b499bc126,2021-07-29_22h04.03.328,Simcolourproject_2stim_asymm_v5,2020.2.10,Win32,60,61025ae37ef11b136ea224fe,,,,,,,,,1670,-18.39994,42.39999419,1,0,0,response7disk,,0,-1.59998858,7.999993682,1,0,0,rectangle,-1.59998858,7.999993682,1,0,0,-1.59998858,7.999993682,1,0,0,0,143,143,4,1,,,,,,,,
,,,,,,,,,,,,,FF,,,,,,,,1.71535,,,,,,,,,,,,,,,,,,,,,,6101698f1094df2f82ab8a5e,61036ba738f9927b499bc126,2021-07-29_22h04.03.328,Simcolourproject_2stim_asymm_v5,2020.2.10,Win32,60,61025ae37ef11b136ea224fe,,,,,,,,,242,58.40001231,29.599994,1,0,0,response1disk,,6,7.200011551,10.39999372,1,0,0,rectangle,7.200011551,10.39999372,1,0,0,7.200011551,10.39999372,1,0,0,0,144,144,110,1,,,,,,,,
,,,,,,,,,,,,,FF,,,,,,,,1.182665,,,,,,,,,,,,,,,,,,,,,,6101698f1094df2f82ab8a5e,61036ba738f9927b499bc126,2021-07-29_22h04.03.328,Simcolourproject_2stim_asymm_v5,2020.2.10,Win32,60,61025ae37ef11b136ea224fe,,,,,,,,,778,-48.79998928,-84.8000077,1,0,0,response5disk,,3,3.200011492,11.99999374,1,0,0,rectangle,3.200011492,11.99999374,1,0,0,3.200011492,11.99999374,1,0,0,0,145,145,41,1,,,,,,,,
,,,,,,,,,,,,,FF,,,,,,,,0.916300001,,,,,,,,,,,,,,,,,,,,,,6101698f1094df2f82ab8a5e,61036ba738f9927b499bc126,2021-07-29_22h04.03.328,Simcolourproject_2stim_asymm_v5,2020.2.10,Win32,60,61025ae37ef11b136ea224fe,,,,,,,,,4101,-32.79998904,-70.40000749,1,0,0,response5disk,,3,0.800011456,-12.00000662,1,0,0,rectangle,0.800011456,-12.00000662,1,0,0,0.800011456,-12.00000662,1,0,0,0,146,146,36,1,,,,,,,,
,,,,,,,,,,,,,FF,,,,,,,,0.81617,,,,,,,,,,,,,,,,,,,,,,6101698f1094df2f82ab8a5e,61036ba738f9927b499bc126,2021-07-29_22h04.03.328,Simcolourproject_2stim_asymm_v5,2020.2.10,Win32,60,61025ae37ef11b136ea224fe,,,,,,,,,3591,-38.3999403,91.99999493,1,0,0,response7disk,,0,-7.999988675,13.59999377,1,0,0,rectangle,24.0000118,-44.00000709,1,0,0,-7.999988675,0.799993575,1,0,0,0,147,147,105,1,,response3disk_3,TRUE,4,4,"[164,307,286,10,258,119,294,226,173,195,45,148,308,323,122,43,15,91,103,82]",1.231955001,rectangle
,,,,,,,,,,,,,FF,,,,,,,,2.348030001,,,,,,,,,,,,,,,,,,,,,,6101698f1094df2f82ab8a5e,61036ba738f9927b499bc126,2021-07-29_22h04.03.328,Simcolourproject_2stim_asymm_v5,2020.2.10,Win32,60,61025ae37ef11b136ea224fe,,,,,,,,,2208,77.6000126,23.99999392,1,0,0,response1disk,,6,8.800011575,-4.000006497,1,0,0,rectangle,8.800011575,-4.000006497,1,0,0,8.800011575,-4.000006497,1,0,0,0,148,148,11,1,,,,,,,,
,,,,,,,,,,,,,FF,,,,,,,,1.03272,,,,,,,,,,,,,,,,,,,,,,6101698f1094df2f82ab8a5e,61036ba738f9927b499bc126,2021-07-29_22h04.03.328,Simcolourproject_2stim_asymm_v5,2020.2.10,Win32,60,61025ae37ef11b136ea224fe,,,,,,,,,1922,26.40001184,50.39999431,1,0,0,response1disk,,7,-3.999988616,-7.200006545,1,0,0,rectangle,-3.999988616,-7.200006545,1,0,0,-3.999988616,-7.200006545,1,0,0,0,149,149,63,1,,,,,,,,
,,,,,,,,,,,,,FF,,,,,,,,0.916169999,,,,,,,,,,,,,,,,,,,,,,6101698f1094df2f82ab8a5e,61036ba738f9927b499bc126,2021-07-29_22h04.03.328,Simcolourproject_2stim_asymm_v5,2020.2.10,Win32,60,61025ae37ef11b136ea224fe,,,,,,,,,4309,32.80001193,45.59999424,1,0,0,response1disk,,7,5.600060356,11.19999373,1,0,0,rectangle,5.600060356,11.19999373,1,0,0,5.600060356,11.19999373,1,0,0,0,150,150,86,1,,,,,,,,
,,,,,,,,,,,,,FF,,,,,,,,1.382200001,,,,,,,,,,,,,,,,,,,,,,6101698f1094df2f82ab8a5e,61036ba738f9927b499bc126,2021-07-29_22h04.03.328,Simcolourproject_2stim_asymm_v5,2020.2.10,Win32,60,61025ae37ef11b136ea224fe,,,,,,,,,491,62.40001237,31.99999404,1,0,0,response1disk,,6,-2.399939764,1.599993587,1,0,0,rectangle,-2.399939764,1.599993587,1,0,0,-2.399939764,1.599993587,1,0,0,0,151,151,117,1,,,,,,,,
,,,,,,,,,,,,,FF,,,,,,,,0.94936,,,,,,,,,,,,,,,,,,,,,,6101698f1094df2f82ab8a5e,61036ba738f9927b499bc126,2021-07-29_22h04.03.328,Simcolourproject_2stim_asymm_v5,2020.2.10,Win32,60,61025ae37ef11b136ea224fe,,,,,,,,,500,28.00001186,86.39999485,1,0,0,response1disk,,7,-3.199988604,11.19999373,1,0,0,rectangle,-3.199988604,11.19999373,1,0,0,-3.199988604,11.19999373,1,0,0,0,152,152,76,1,,,,,,,,
,,,,,,,,,,,,,FF,,,,,,,,1.315704999,,,,,,,,,,,,,,,,,,,,,,6101698f1094df2f82ab8a5e,61036ba738f9927b499bc126,2021-07-29_22h04.03.328,Simcolourproject_2stim_asymm_v5,2020.2.10,Win32,60,61025ae37ef11b136ea224fe,,,,,,,,,1755,-35.19998908,-52.00000721,1,0,0,response5disk,,3,-0.799988568,-1.600006461,1,0,0,rectangle,-0.799988568,-1.600006461,1,0,0,-0.799988568,-1.600006461,1,0,0,0,153,153,94,1,,,,,,,,
,,,,,,,,,,,,,FF,,,,,,,,1.23247,,,,,,,,,,,,,,,,,,,,,,6101698f1094df2f82ab8a5e,61036ba738f9927b499bc126,2021-07-29_22h04.03.328,Simcolourproject_2stim_asymm_v5,2020.2.10,Win32,60,61025ae37ef11b136ea224fe,,,,,,,,,2107,-40.79998916,-79.20000762,1,0,0,response5disk,,3,1.14441E-05,-4.000006497,1,0,0,rectangle,1.14441E-05,-4.000006497,1,0,0,1.14441E-05,-4.000006497,1,0,0,0,154,154,137,1,,,,,,,,
,,,,,,,,,,,,,FF,,,,,,,,0.916069999,,,,,,,,,,,,,,,,,,,,,,6101698f1094df2f82ab8a5e,61036ba738f9927b499bc126,2021-07-29_22h04.03.328,Simcolourproject_2stim_asymm_v5,2020.2.10,Win32,60,61025ae37ef11b136ea224fe,,,,,,,,,1533,-31.19998902,-64.00000739,1,0,0,response5disk,,3,3.200011492,-4.800006509,1,0,0,rectangle,3.200011492,-4.800006509,1,0,0,3.200011492,-4.800006509,1,0,0,0,155,155,108,1,,,,,,,,
,,,,,,,,,,,,,FF,,,,,,,,1.032734999,,,,,,,,,,,,,,,,,,,,,,6101698f1094df2f82ab8a5e,61036ba738f9927b499bc126,2021-07-29_22h04.03.328,Simcolourproject_2stim_asymm_v5,2020.2.10,Win32,60,61025ae37ef11b136ea224fe,,,,,,,,,1676,-91.19998991,-57.6000073,1,0,0,response5disk,,2,-4.799988627,-4.000006497,1,0,0,rectangle,-4.799988627,-4.000006497,1,0,0,-4.799988627,-4.000006497,1,0,0,0,156,156,151,1,,,,,,,,
,,,,,,,,,,,,,FF,,,,,,,,2.930889999,,,,,,,,,,,,,,,,,,,,,,6101698f1094df2f82ab8a5e,61036ba738f9927b499bc126,2021-07-29_22h04.03.328,Simcolourproject_2stim_asymm_v5,2020.2.10,Win32,60,61025ae37ef11b136ea224fe,,,,,,,,,522,21.60006059,-57.6000073,1,0,0,response3disk,,4,-5.599988639,13.59999377,0,0,1,rectangle,-5.599988639,13.59999377,0,0,1,-5.599988639,13.59999377,0,0,1,0,157,157,73,1,,,,,,,,
,,,,,,,,,,,,,FF,,,,,,,,1.73247,,,,,,,,,,,,,,,,,,,,,,6101698f1094df2f82ab8a5e,61036ba738f9927b499bc126,2021-07-29_22h04.03.328,Simcolourproject_2stim_asymm_v5,2020.2.10,Win32,60,61025ae37ef11b136ea224fe,,,,,,,,,2885,-33.59998906,-61.60000736,1,0,0,response5disk,,3,-3.999988616,0.799993575,1,0,0,rectangle,-3.999988616,0.799993575,1,0,0,-3.999988616,0.799993575,1,0,0,0,158,158,136,1,,,,,,,,
,,,,,,,,,,,,,FF,,,,,,,,1.63264,,,,,,,,,,,,,,,,,,,,,,6101698f1094df2f82ab8a5e,61036ba738f9927b499bc126,2021-07-29_22h04.03.328,Simcolourproject_2stim_asymm_v5,2020.2.10,Win32,60,61025ae37ef11b136ea224fe,,,,,,,,,4300,50.4000122,-22.40000677,1,0,0,response3disk,,5,15.20001167,-6.400006533,1,0,0,rectangle,15.20001167,-6.400006533,1,0,0,15.20001167,-6.400006533,1,0,0,0,159,159,52,1,,,,,,,,
,,,,,,,,,,,,,FF,,,,,,,,1.84908,,,,,,,,,,,,,,,,,,,,,,6101698f1094df2f82ab8a5e,61036ba738f9927b499bc126,2021-07-29_22h04.03.328,Simcolourproject_2stim_asymm_v5,2020.2.10,Win32,60,61025ae37ef11b136ea224fe,,,,,,,,,2178,60.80001235,27.19996955,1,0,0,response1disk,,6,12.80001163,8.799993694,1,0,0,rectangle,12.80001163,8.799993694,1,0,0,12.80001163,8.799993694,1,0,0,1,0,160,31,1,,,,,,,,
,,,,,,,,,,,,,FF,,,,,,,,0.749985,,,,,,,,,,,,,,,,,,,,,,6101698f1094df2f82ab8a5e,61036ba738f9927b499bc126,2021-07-29_22h04.03.328,Simcolourproject_2stim_asymm_v5,2020.2.10,Win32,60,61025ae37ef11b136ea224fe,,,,,,,,,2965,41.60006089,59.99999446,1,0,0,response1disk,,7,1.14441E-05,7.999993682,1,0,0,rectangle,1.14441E-05,7.999993682,1,0,0,1.14441E-05,7.999993682,1,0,0,1,1,161,62,1,,,,,,,,
,,,,,,,,,,,,,FF,,,,,,,,0.966074999,,,,,,,,,,,,,,,,,,,,,,6101698f1094df2f82ab8a5e,61036ba738f9927b499bc126,2021-07-29_22h04.03.328,Simcolourproject_2stim_asymm_v5,2020.2.10,Win32,60,61025ae37ef11b136ea224fe,,,,,,,,,1324,24.0000118,48.79999429,1,0,0,response1disk,,7,-4.799988627,-3.200006485,1,0,0,rectangle,-4.799988627,-3.200006485,1,0,0,-4.799988627,-3.200006485,1,0,0,1,2,162,3,1,,,,,,,,
,,,,,,,,,,,,,FF,,,,,,,,1.015865,,,,,,,,,,,,,,,,,,,,,,6101698f1094df2f82ab8a5e,61036ba738f9927b499bc126,2021-07-29_22h04.03.328,Simcolourproject_2stim_asymm_v5,2020.2.10,Win32,60,61025ae37ef11b136ea224fe,,,,,,,,,1715,32.80001193,68.79999459,1,0,0,response1disk,,7,-3.999988616,9.599993706,1,0,0,rectangle,83.20001268,35.9999941,1,0,0,4.800011516,0.799993575,1,0,0,1,3,163,138,1,,response1disk_3,TRUE,6,6,"[164,307,286,10,258,119,294,226,173,195,45,148,308,323,122,43,15,91,103,82]",1.632145001,rectangle
,,,,,,,,,,,,,FF,,,,,,,,1.53224,,,,,,,,,,,,,,,,,,,,,,6101698f1094df2f82ab8a5e,61036ba738f9927b499bc126,2021-07-29_22h04.03.328,Simcolourproject_2stim_asymm_v5,2020.2.10,Win32,60,61025ae37ef11b136ea224fe,,,,,,,,,466,-38.3999403,-72.80000752,1,0,0,response5disk,,3,-3.199988604,-4.000006497,1,0,0,rectangle,-3.199988604,-4.000006497,1,0,0,-3.199988604,-4.000006497,1,0,0,1,4,164,113,1,,,,,,,,
,,,,,,,,,,,,,FF,,,,,,,,1.56562,,,,,,,,,,,,,,,,,,,,,,6101698f1094df2f82ab8a5e,61036ba738f9927b499bc126,2021-07-29_22h04.03.328,Simcolourproject_2stim_asymm_v5,2020.2.10,Win32,60,61025ae37ef11b136ea224fe,,,,,,,,,4275,31.20001191,54.39999437,1,0,0,response1disk,,7,-5.599988639,1.599993587,1,0,0,rectangle,-5.599988639,1.599993587,1,0,0,-5.599988639,1.599993587,1,0,0,1,5,165,137,1,,,,,,,,
,,,,,,,,,,,,,FF,,,,,,,,0.949345,,,,,,,,,,,,,,,,,,,,,,6101698f1094df2f82ab8a5e,61036ba738f9927b499bc126,2021-07-29_22h04.03.328,Simcolourproject_2stim_asymm_v5,2020.2.10,Win32,60,61025ae37ef11b136ea224fe,,,,,,,,,2145,19.20001173,50.39999431,1,0,0,response1disk,,7,-3.199988604,-7.200006545,1,0,0,rectangle,-3.199988604,-7.200006545,1,0,0,-3.199988604,-7.200006545,1,0,0,1,6,166,157,1,,,,,,,,
,,,,,,,,,,,,,FF,,,,,,,,1.06621,,,,,,,,,,,,,,,,,,,,,,6101698f1094df2f82ab8a5e,61036ba738f9927b499bc126,2021-07-29_22h04.03.328,Simcolourproject_2stim_asymm_v5,2020.2.10,Win32,60,61025ae37ef11b136ea224fe,,,,,,,,,3173,40.80001205,61.59999448,1,0,0,response1disk,,7,2.40001148,-4.000006497,1,0,0,rectangle,2.40001148,-4.000006497,1,0,0,2.40001148,-4.000006497,1,0,0,1,7,167,55,1,,,,,,,,
,,,,,,,,,,,,,FF,,,,,,,,1.216529999,,,,,,,,,,,,,,,,,,,,,,6101698f1094df2f82ab8a5e,61036ba738f9927b499bc126,2021-07-29_22h04.03.328,Simcolourproject_2stim_asymm_v5,2020.2.10,Win32,60,61025ae37ef11b136ea224fe,,,,,,,,,2568,38.40001202,31.19996961,1,0,0,response1disk,,6,5.600060356,3.999993622,1,0,0,rectangle,5.600060356,3.999993622,1,0,0,5.600060356,3.999993622,1,0,0,1,8,168,142,1,,,,,,,,
,,,,,,,,,,,,,FF,,,,,,,,1.215745,,,,,,,,,,,,,,,,,,,,,,6101698f1094df2f82ab8a5e,61036ba738f9927b499bc126,2021-07-29_22h04.03.328,Simcolourproject_2stim_asymm_v5,2020.2.10,Win32,60,61025ae37ef11b136ea224fe,,,,,,,,,1415,44.0000121,-32.00000691,1,0,0,response3disk,,5,4.800011516,-6.400006533,1,0,0,rectangle,4.800011516,-6.400006533,1,0,0,4.800011516,-6.400006533,1,0,0,1,9,169,33,1,,,,,,,,
,,,,,,,,,,,,,FF,,,,,,,,0.915659999,,,,,,,,,,,,,,,,,,,,,,6101698f1094df2f82ab8a5e,61036ba738f9927b499bc126,2021-07-29_22h04.03.328,Simcolourproject_2stim_asymm_v5,2020.2.10,Win32,60,61025ae37ef11b136ea224fe,,,,,,,,,2434,36.80001199,59.99999446,1,0,0,response1disk,,7,1.600060296,6.399993658,1,0,0,rectangle,1.600060296,6.399993658,1,0,0,1.600060296,6.399993658,1,0,0,1,10,170,89,1,,,,,,,,
,,,,,,,,,,,,,FF,,,,,,,,1.698659999,,,,,,,,,,,,,,,,,,,,,,6101698f1094df2f82ab8a5e,61036ba738f9927b499bc126,2021-07-29_22h04.03.328,Simcolourproject_2stim_asymm_v5,2020.2.10,Win32,60,61025ae37ef11b136ea224fe,,,,,,,,,536,43.20001209,31.99999404,1,0,0,response1disk,,6,6.400011539,12.79999375,1,0,0,rectangle,6.400011539,12.79999375,1,0,0,6.400011539,12.79999375,1,0,0,1,11,171,78,1,,,,,,,,
,,,,,,,,,,,,,FF,,,,,,,,0.89921,,,,,,,,,,,,,,,,,,,,,,6101698f1094df2f82ab8a5e,61036ba738f9927b499bc126,2021-07-29_22h04.03.328,Simcolourproject_2stim_asymm_v5,2020.2.10,Win32,60,61025ae37ef11b136ea224fe,,,,,,,,,1054,-54.39994054,-32.00000691,1,0,0,response5disk,,2,-14.39993994,-0.800006449,1,0,0,rectangle,28.80001187,79.99999475,1,0,0,2.40001148,9.599993706,1,0,0,1,12,172,108,1,,response1disk_3,TRUE,7,7,"[164,307,286,10,258,119,294,226,173,195,45,148,308,323,122,43,15,91,103,82]",1.165725,rectangle
,,,,,,,,,,,,,FF,,,,,,,,0.733035,,,,,,,,,,,,,,,,,,,,,,6101698f1094df2f82ab8a5e,61036ba738f9927b499bc126,2021-07-29_22h04.03.328,Simcolourproject_2stim_asymm_v5,2020.2.10,Win32,60,61025ae37ef11b136ea224fe,,,,,,,,,1445,-21.59998888,48.79999429,1,0,0,response7disk,,0,-3.199988604,12.79999375,1,0,0,rectangle,-3.199988604,12.79999375,1,0,0,-3.199988604,12.79999375,1,0,0,1,13,173,98,1,,,,,,,,
,,,,,,,,,,,,,FF,,,,,,,,1.532204999,,,,,,,,,,,,,,,,,,,,,,6101698f1094df2f82ab8a5e,61036ba738f9927b499bc126,2021-07-29_22h04.03.328,Simcolourproject_2stim_asymm_v5,2020.2.10,Win32,60,61025ae37ef11b136ea224fe,,,,,,,,,233,28.00001186,40.79999417,1,0,0,response1disk,,7,5.600060356,12.79999375,1,0,0,rectangle,5.600060356,12.79999375,1,0,0,5.600060356,12.79999375,1,0,0,1,14,174,133,1,,,,,,,,
,,,,,,,,,,,,,FF,,,,,,,,1.36616,,,,,,,,,,,,,,,,,,,,,,6101698f1094df2f82ab8a5e,61036ba738f9927b499bc126,2021-07-29_22h04.03.328,Simcolourproject_2stim_asymm_v5,2020.2.10,Win32,60,61025ae37ef11b136ea224fe,,,,,,,,,1883,-61.59998947,-21.60000676,1,0,0,response5disk,,2,-18.39994,5.599993646,1,0,0,rectangle,-18.39994,5.599993646,1,0,0,-18.39994,5.599993646,1,0,0,1,15,175,155,1,,,,,,,,
,,,,,,,,,,,,,FF,,,,,,,,0.84969,,,,,,,,,,,,,,,,,,,,,,6101698f1094df2f82ab8a5e,61036ba738f9927b499bc126,2021-07-29_22h04.03.328,Simcolourproject_2stim_asymm_v5,2020.2.10,Win32,60,61025ae37ef11b136ea224fe,,,,,,,,,4105,-47.19998926,-27.20000684,1,0,0,response5disk,,2,-2.399939764,-8.000006557,1,0,0,rectangle,-2.399939764,-8.000006557,1,0,0,-2.399939764,-8.000006557,1,0,0,1,16,176,128,1,,,,,,,,
,,,,,,,,,,,,,FF,,,,,,,,1.398939999,,,,,,,,,,,,,,,,,,,,,,6101698f1094df2f82ab8a5e,61036ba738f9927b499bc126,2021-07-29_22h04.03.328,Simcolourproject_2stim_asymm_v5,2020.2.10,Win32,60,61025ae37ef11b136ea224fe,,,,,,,,,3500,36.80001199,26.39999396,1,0,0,response1disk,,6,9.600060415,9.599993706,1,0,0,rectangle,9.600060415,9.599993706,1,0,0,9.600060415,9.599993706,1,0,0,1,17,177,135,1,,,,,,,,
,,,,,,,,,,,,,FF,,,,,,,,0.999074999,,,,,,,,,,,,,,,,,,,,,,6101698f1094df2f82ab8a5e,61036ba738f9927b499bc126,2021-07-29_22h04.03.328,Simcolourproject_2stim_asymm_v5,2020.2.10,Win32,60,61025ae37ef11b136ea224fe,,,,,,,,,2327,47.20001215,86.39999485,1,0,0,response1disk,,7,-3.199988604,2.399993598,1,0,0,rectangle,-3.199988604,2.399993598,1,0,0,-3.199988604,2.399993598,1,0,0,1,18,178,148,1,,,,,,,,
,,,,,,,,,,,,,FF,,,,,,,,1.148840001,,,,,,,,,,,,,,,,,,,,,,6101698f1094df2f82ab8a5e,61036ba738f9927b499bc126,2021-07-29_22h04.03.328,Simcolourproject_2stim_asymm_v5,2020.2.10,Win32,60,61025ae37ef11b136ea224fe,,,,,,,,,3597,-29.599989,43.19996979,1,0,0,response7disk,,0,-7.199988663,14.39999378,1,0,0,rectangle,-7.199988663,14.39999378,1,0,0,-7.199988663,14.39999378,1,0,0,1,19,179,23,1,,,,,,,,
,,,,,,,,,,,,,FF,,,,,,,,0.699685,,,,,,,,,,,,,,,,,,,,,,6101698f1094df2f82ab8a5e,61036ba738f9927b499bc126,2021-07-29_22h04.03.328,Simcolourproject_2stim_asymm_v5,2020.2.10,Win32,60,61025ae37ef11b136ea224fe,,,,,,,,,3290,-27.19998896,44.79999423,1,0,0,response7disk,,0,-7.199988663,7.999993682,1,0,0,rectangle,-7.199988663,7.999993682,1,0,0,-7.199988663,7.999993682,1,0,0,1,20,180,43,1,,,,,,,,
,,,,,,,,,,,,,FF,,,,,,,,0.949520001,,,,,,,,,,,,,,,,,,,,,,6101698f1094df2f82ab8a5e,61036ba738f9927b499bc126,2021-07-29_22h04.03.328,Simcolourproject_2stim_asymm_v5,2020.2.10,Win32,60,61025ae37ef11b136ea224fe,,,,,,,,,1091,36.80001199,61.59999448,1,0,0,response1disk,,7,-0.799988568,9.599993706,1,0,0,rectangle,-0.799988568,9.599993706,1,0,0,-0.799988568,9.599993706,1,0,0,1,21,181,42,1,,,,,,,,
,,,,,,,,,,,,,FF,,,,,,,,1.082495,,,,,,,,,,,,,,,,,,,,,,6101698f1094df2f82ab8a5e,61036ba738f9927b499bc126,2021-07-29_22h04.03.328,Simcolourproject_2stim_asymm_v5,2020.2.10,Win32,60,61025ae37ef11b136ea224fe,,,,,,,,,2055,36.00001198,29.599994,1,0,0,response1disk,,6,1.600060296,15.9999938,1,0,0,rectangle,1.600060296,15.9999938,1,0,0,1.600060296,15.9999938,1,0,0,1,22,182,83,1,,,,,,,,
,,,,,,,,,,,,,FF,,,,,,,,1.398949999,,,,,,,,,,,,,,,,,,,,,,6101698f1094df2f82ab8a5e,61036ba738f9927b499bc126,2021-07-29_22h04.03.328,Simcolourproject_2stim_asymm_v5,2020.2.10,Win32,60,61025ae37ef11b136ea224fe,,,,,,,,,1347,48.80001217,-28.80000687,1,0,0,response3disk,,5,8.800011575,-1.600006461,1,0,0,rectangle,8.800011575,-1.600006461,1,0,0,8.800011575,-1.600006461,1,0,0,1,23,183,58,1,,,,,,,,
,,,,,,,,,,,,,FF,,,,,,,,0.84949,,,,,,,,,,,,,,,,,,,,,,6101698f1094df2f82ab8a5e,61036ba738f9927b499bc126,2021-07-29_22h04.03.328,Simcolourproject_2stim_asymm_v5,2020.2.10,Win32,60,61025ae37ef11b136ea224fe,,,,,,,,,226,28.80001187,57.59999442,1,0,0,response1disk,,7,-5.599988639,-8.800006568,1,0,0,rectangle,-5.599988639,-8.800006568,1,0,0,-5.599988639,-8.800006568,1,0,0,1,24,184,139,1,,,,,,,,
,,,,,,,,,,,,,FF,,,,,,,,1.565284999,,,,,,,,,,,,,,,,,,,,,,6101698f1094df2f82ab8a5e,61036ba738f9927b499bc126,2021-07-29_22h04.03.328,Simcolourproject_2stim_asymm_v5,2020.2.10,Win32,60,61025ae37ef11b136ea224fe,,,,,,,,,1990,40.00001204,-43.20000708,1,0,0,response3disk,,4,6.400011539,3.19999361,1,0,0,rectangle,6.400011539,3.19999361,1,0,0,6.400011539,3.19999361,1,0,0,1,25,185,110,1,,,,,,,,
,,,,,,,,,,,,,FF,,,,,,,,0.94933,,,,,,,,,,,,,,,,,,,,,,6101698f1094df2f82ab8a5e,61036ba738f9927b499bc126,2021-07-29_22h04.03.328,Simcolourproject_2stim_asymm_v5,2020.2.10,Win32,60,61025ae37ef11b136ea224fe,,,,,,,,,4295,-74.39994084,-37.600007,1,0,0,response5disk,,2,-1.59998858,3.19999361,1,0,0,rectangle,-1.59998858,3.19999361,1,0,0,-1.59998858,3.19999361,1,0,0,1,26,186,120,1,,,,,,,,
,,,,,,,,,,,,,FF,,,,,,,,0.783015,,,,,,,,,,,,,,,,,,,,,,6101698f1094df2f82ab8a5e,61036ba738f9927b499bc126,2021-07-29_22h04.03.328,Simcolourproject_2stim_asymm_v5,2020.2.10,Win32,60,61025ae37ef11b136ea224fe,,,,,,,,,4284,32.00001192,75.19997027,1,0,0,response1disk,,7,4.800011516,16.79999381,1,0,0,rectangle,4.800011516,16.79999381,1,0,0,4.800011516,16.79999381,1,0,0,1,27,187,49,1,,,,,,,,
,,,,,,,,,,,,,FF,,,,,,,,0.816365,,,,,,,,,,,,,,,,,,,,,,6101698f1094df2f82ab8a5e,61036ba738f9927b499bc126,2021-07-29_22h04.03.328,Simcolourproject_2stim_asymm_v5,2020.2.10,Win32,60,61025ae37ef11b136ea224fe,,,,,,,,,564,36.00001198,69.5999946,1,0,0,response1disk,,7,7.200011551,3.999993622,1,0,0,rectangle,7.200011551,3.999993622,1,0,0,7.200011551,3.999993622,1,0,0,1,28,188,114,1,,,,,,,,
,,,,,,,,,,,,,FF,,,,,,,,0.782624999,,,,,,,,,,,,,,,,,,,,,,6101698f1094df2f82ab8a5e,61036ba738f9927b499bc126,2021-07-29_22h04.03.328,Simcolourproject_2stim_asymm_v5,2020.2.10,Win32,60,61025ae37ef11b136ea224fe,,,,,,,,,2504,32.00001192,41.59999418,1,0,0,response1disk,,7,4.800011516,-4.000006497,1,0,0,rectangle,4.800011516,-4.000006497,1,0,0,4.800011516,-4.000006497,1,0,0,1,29,189,53,1,,,,,,,,
,,,,,,,,,,,,,FF,,,,,,,,1.14969,,,,,,,,,,,,,,,,,,,,,,6101698f1094df2f82ab8a5e,61036ba738f9927b499bc126,2021-07-29_22h04.03.328,Simcolourproject_2stim_asymm_v5,2020.2.10,Win32,60,61025ae37ef11b136ea224fe,,,,,,,,,2153,25.60006065,-51.2000072,1,0,0,response3disk,,4,-11.99998873,-4.000006497,1,0,0,rectangle,-11.99998873,-4.000006497,1,0,0,-11.99998873,-4.000006497,1,0,0,1,30,190,10,1,,,,,,,,
,,,,,,,,,,,,,FF,,,,,,,,1.099549999,,,,,,,,,,,,,,,,,,,,,,6101698f1094df2f82ab8a5e,61036ba738f9927b499bc126,2021-07-29_22h04.03.328,Simcolourproject_2stim_asymm_v5,2020.2.10,Win32,60,61025ae37ef11b136ea224fe,,,,,,,,,4220,-27.99998897,-73.60000753,1,0,0,response5disk,,3,-2.399939764,5.599993646,1,0,0,rectangle,-2.399939764,5.599993646,1,0,0,-2.399939764,5.599993646,1,0,0,1,31,191,32,1,,,,,,,,
,,,,,,,,,,,,,FF,,,,,,,,1.782089999,,,,,,,,,,,,,,,,,,,,,,6101698f1094df2f82ab8a5e,61036ba738f9927b499bc126,2021-07-29_22h04.03.328,Simcolourproject_2stim_asymm_v5,2020.2.10,Win32,60,61025ae37ef11b136ea224fe,,,,,,,,,541,32.00001192,55.19996997,1,0,0,response1disk,,7,-1.59998858,-3.200006485,1,0,0,rectangle,-1.59998858,-3.200006485,1,0,0,-1.59998858,-3.200006485,1,0,0,1,32,192,2,1,,,,,,,,
,,,,,,,,,,,,,FF,,,,,,,,1.199235,,,,,,,,,,,,,,,,,,,,,,6101698f1094df2f82ab8a5e,61036ba738f9927b499bc126,2021-07-29_22h04.03.328,Simcolourproject_2stim_asymm_v5,2020.2.10,Win32,60,61025ae37ef11b136ea224fe,,,,,,,,,608,28.80001187,64.79999453,1,0,0,response1disk,,7,1.14441E-05,4.799993634,1,0,0,rectangle,1.14441E-05,4.799993634,1,0,0,1.14441E-05,4.799993634,1,0,0,1,33,193,102,1,,,,,,,,
,,,,,,,,,,,,,FF,,,,,,,,0.882749999,,,,,,,,,,,,,,,,,,,,,,6101698f1094df2f82ab8a5e,61036ba738f9927b499bc126,2021-07-29_22h04.03.328,Simcolourproject_2stim_asymm_v5,2020.2.10,Win32,60,61025ae37ef11b136ea224fe,,,,,,,,,1966,-52.79998934,-22.40000677,1,0,0,response5disk,,2,0.800011456,6.399993658,1,0,0,rectangle,55.20001227,-28.00000685,1,0,0,1.600060296,9.599993706,1,0,0,1,34,194,107,1,,response3disk_3,TRUE,5,5,"[164,307,286,10,258,119,294,226,173,195,45,148,308,323,122,43,15,91,103,82]",1.265575001,rectangle
,,,,,,,,,,,,,FF,,,,,,,,1.71508,,,,,,,,,,,,,,,,,,,,,,6101698f1094df2f82ab8a5e,61036ba738f9927b499bc126,2021-07-29_22h04.03.328,Simcolourproject_2stim_asymm_v5,2020.2.10,Win32,60,61025ae37ef11b136ea224fe,,,,,,,,,3884,42.40001208,-19.20000672,1,0,0,response3disk,,5,6.400011539,4.799993634,1,0,0,rectangle,6.400011539,4.799993634,1,0,0,6.400011539,4.799993634,1,0,0,1,35,195,47,1,,,,,,,,
,,,,,,,,,,,,,FF,,,,,,,,1.065925,,,,,,,,,,,,,,,,,,,,,,6101698f1094df2f82ab8a5e,61036ba738f9927b499bc126,2021-07-29_22h04.03.328,Simcolourproject_2stim_asymm_v5,2020.2.10,Win32,60,61025ae37ef11b136ea224fe,,,,,,,,,962,61.60001236,38.39999413,1,0,0,response1disk,,6,-7.999988675,-6.400006533,1,0,0,rectangle,-7.999988675,-6.400006533,1,0,0,-7.999988675,-6.400006533,1,0,0,1,36,196,68,1,,,,,,,,
,,,,,,,,,,,,,FF,,,,,,,,1.365879999,,,,,,,,,,,,,,,,,,,,,,6101698f1094df2f82ab8a5e,61036ba738f9927b499bc126,2021-07-29_22h04.03.328,Simcolourproject_2stim_asymm_v5,2020.2.10,Win32,60,61025ae37ef11b136ea224fe,,,,,,,,,3028,46.40001214,35.19996967,1,0,0,response1disk,,6,0.800011456,11.99999374,1,0,0,rectangle,0.800011456,11.99999374,1,0,0,0.800011456,11.99999374,1,0,0,1,37,197,88,1,,,,,,,,
,,,,,,,,,,,,,FF,,,,,,,,0.816029999,,,,,,,,,,,,,,,,,,,,,,6101698f1094df2f82ab8a5e,61036ba738f9927b499bc126,2021-07-29_22h04.03.328,Simcolourproject_2stim_asymm_v5,2020.2.10,Win32,60,61025ae37ef11b136ea224fe,,,,,,,,,2426,-66.39994072,-32.80000693,1,0,0,response5disk,,2,1.14441E-05,1.599993587,1,0,0,rectangle,1.14441E-05,1.599993587,1,0,0,1.14441E-05,1.599993587,1,0,0,1,38,198,118,1,,,,,,,,
,,,,,,,,,,,,,FF,,,,,,,,0.933045,,,,,,,,,,,,,,,,,,,,,,6101698f1094df2f82ab8a5e,61036ba738f9927b499bc126,2021-07-29_22h04.03.328,Simcolourproject_2stim_asymm_v5,2020.2.10,Win32,60,61025ae37ef11b136ea224fe,,,,,,,,,3237,-62.39994066,-52.00000721,1,0,0,response5disk,,2,-0.799988568,-8.800006568,1,0,0,rectangle,-0.799988568,-8.800006568,1,0,0,-0.799988568,-8.800006568,1,0,0,1,39,199,74,1,,,,,,,,
,,,,,,,,,,,,,FF,,,,,,,,0.866010001,,,,,,,,,,,,,,,,,,,,,,6101698f1094df2f82ab8a5e,61036ba738f9927b499bc126,2021-07-29_22h04.03.328,Simcolourproject_2stim_asymm_v5,2020.2.10,Win32,60,61025ae37ef11b136ea224fe,,,,,,,,,2149,28.80001187,59.19997003,1,0,0,response1disk,,7,0.800011456,16.79999381,1,0,0,rectangle,0.800011456,16.79999381,1,0,0,0.800011456,16.79999381,1,0,0,1,40,200,0,1,,,,,,,,
,,,,,,,,,,,,,FF,,,,,,,,0.849485001,,,,,,,,,,,,,,,,,,,,,,6101698f1094df2f82ab8a5e,61036ba738f9927b499bc126,2021-07-29_22h04.03.328,Simcolourproject_2stim_asymm_v5,2020.2.10,Win32,60,61025ae37ef11b136ea224fe,,,,,,,,,4176,21.60006059,53.59999436,1,0,0,response1disk,,7,-4.799988627,11.19999373,1,0,0,rectangle,-4.799988627,11.19999373,1,0,0,-4.799988627,11.19999373,1,0,0,1,41,201,6,1,,,,,,,,
,,,,,,,,,,,,,FF,,,,,,,,0.86568,,,,,,,,,,,,,,,,,,,,,,6101698f1094df2f82ab8a5e,61036ba738f9927b499bc126,2021-07-29_22h04.03.328,Simcolourproject_2stim_asymm_v5,2020.2.10,Win32,60,61025ae37ef11b136ea224fe,,,,,,,,,171,-43.99998921,49.5999943,1,0,0,response7disk,,0,-5.599988639,4.799993634,1,0,0,rectangle,-5.599988639,4.799993634,1,0,0,-5.599988639,4.799993634,1,0,0,1,42,202,21,1,,,,,,,,
,,,,,,,,,,,,,FF,,,,,,,,0.83257,,,,,,,,,,,,,,,,,,,,,,6101698f1094df2f82ab8a5e,61036ba738f9927b499bc126,2021-07-29_22h04.03.328,Simcolourproject_2stim_asymm_v5,2020.2.10,Win32,60,61025ae37ef11b136ea224fe,,,,,,,,,923,36.00001198,71.19997021,1,0,0,response1disk,,7,-18.39994,-14.40000665,1,0,0,rectangle,-18.39994,-14.40000665,1,0,0,-18.39994,-14.40000665,1,0,0,1,43,203,100,1,,,,,,,,
,,,,,,,,,,,,,FF,,,,,,,,1.865474999,,,,,,,,,,,,,,,,,,,,,,6101698f1094df2f82ab8a5e,61036ba738f9927b499bc126,2021-07-29_22h04.03.328,Simcolourproject_2stim_asymm_v5,2020.2.10,Win32,60,61025ae37ef11b136ea224fe,,,,,,,,,1254,33.60006077,55.9999944,1,0,0,response1disk,,7,-7.999988675,-8.000006557,1,0,0,rectangle,-7.999988675,-8.000006557,1,0,0,-7.999988675,-8.000006557,1,0,0,1,44,204,127,1,,,,,,,,
,,,,,,,,,,,,,FF,,,,,,,,1.398934999,,,,,,,,,,,,,,,,,,,,,,6101698f1094df2f82ab8a5e,61036ba738f9927b499bc126,2021-07-29_22h04.03.328,Simcolourproject_2stim_asymm_v5,2020.2.10,Win32,60,61025ae37ef11b136ea224fe,,,,,,,,,4156,46.40001214,-30.40000689,1,0,0,response3disk,,5,9.600060415,-0.800006449,1,0,0,rectangle,9.600060415,-0.800006449,1,0,0,9.600060415,-0.800006449,1,0,0,1,45,205,156,1,,,,,,,,
,,,,,,,,,,,,,FF,,,,,,,,1.032755001,,,,,,,,,,,,,,,,,,,,,,6101698f1094df2f82ab8a5e,61036ba738f9927b499bc126,2021-07-29_22h04.03.328,Simcolourproject_2stim_asymm_v5,2020.2.10,Win32,60,61025ae37ef11b136ea224fe,,,,,,,,,1916,33.60006077,-21.60000676,1,0,0,response3disk,,5,17.60006053,-8.000006557,1,0,0,rectangle,17.60006053,-8.000006557,1,0,0,17.60006053,-8.000006557,1,0,0,1,46,206,111,1,,,,,,,,
,,,,,,,,,,,,,FF,,,,,,,,1.082544999,,,,,,,,,,,,,,,,,,,,,,6101698f1094df2f82ab8a5e,61036ba738f9927b499bc126,2021-07-29_22h04.03.328,Simcolourproject_2stim_asymm_v5,2020.2.10,Win32,60,61025ae37ef11b136ea224fe,,,,,,,,,501,39.20001203,28.79999399,1,0,0,response1disk,,6,11.20001161,11.99999374,1,0,0,rectangle,11.20001161,11.99999374,1,0,0,11.20001161,11.99999374,1,0,0,1,47,207,141,1,,,,,,,,
,,,,,,,,,,,,,FF,,,,,,,,1.29902,,,,,,,,,,,,,,,,,,,,,,6101698f1094df2f82ab8a5e,61036ba738f9927b499bc126,2021-07-29_22h04.03.328,Simcolourproject_2stim_asymm_v5,2020.2.10,Win32,60,61025ae37ef11b136ea224fe,,,,,,,,,227,66.40001243,22.3999939,1,0,0,response1disk,,6,6.400011539,11.99999374,1,0,0,rectangle,6.400011539,11.99999374,1,0,0,6.400011539,11.99999374,1,0,0,1,48,208,152,1,,,,,,,,
,,,,,,,,,,,,,FF,,,,,,,,0.78253,,,,,,,,,,,,,,,,,,,,,,6101698f1094df2f82ab8a5e,61036ba738f9927b499bc126,2021-07-29_22h04.03.328,Simcolourproject_2stim_asymm_v5,2020.2.10,Win32,60,61025ae37ef11b136ea224fe,,,,,,,,,3712,-39.99998915,65.59999454,1,0,0,response7disk,,0,-9.599988699,4.799993634,1,0,0,rectangle,-9.599988699,4.799993634,1,0,0,-9.599988699,4.799993634,1,0,0,1,49,209,125,1,,,,,,,,
,,,,,,,,,,,,,FF,,,,,,,,0.682905002,,,,,,,,,,,,,,,,,,,,,,6101698f1094df2f82ab8a5e,61036ba738f9927b499bc126,2021-07-29_22h04.03.328,Simcolourproject_2stim_asymm_v5,2020.2.10,Win32,60,61025ae37ef11b136ea224fe,,,,,,,,,1972,-33.59998906,55.9999944,1,0,0,response7disk,,0,-5.599988639,10.39999372,1,0,0,rectangle,-5.599988639,10.39999372,1,0,0,-5.599988639,10.39999372,1,0,0,1,50,210,95,1,,,,,,,,
,,,,,,,,,,,,,FF,,,,,,,,2.38112,,,,,,,,,,,,,,,,,,,,,,6101698f1094df2f82ab8a5e,61036ba738f9927b499bc126,2021-07-29_22h04.03.328,Simcolourproject_2stim_asymm_v5,2020.2.10,Win32,60,61025ae37ef11b136ea224fe,,,,,,,,,112,57.6000123,-35.20000696,1,0,0,response3disk,,5,-14.39993994,4.799993634,1,0,0,rectangle,-14.39993994,4.799993634,1,0,0,-14.39993994,4.799993634,1,0,0,1,51,211,11,1,,,,,,,,
,,,,,,,,,,,,,FF,,,,,,,,1.165694999,,,,,,,,,,,,,,,,,,,,,,6101698f1094df2f82ab8a5e,61036ba738f9927b499bc126,2021-07-29_22h04.03.328,Simcolourproject_2stim_asymm_v5,2020.2.10,Win32,60,61025ae37ef11b136ea224fe,,,,,,,,,2294,-86.39994102,-38.40000701,1,0,0,response5disk,,2,-11.99998873,6.399993658,1,0,0,rectangle,-11.99998873,6.399993658,1,0,0,-11.99998873,6.399993658,1,0,0,1,52,212,76,1,,,,,,,,
,,,,,,,,,,,,,FF,,,,,,,,1.299075,,,,,,,,,,,,,,,,,,,,,,6101698f1094df2f82ab8a5e,61036ba738f9927b499bc126,2021-07-29_22h04.03.328,Simcolourproject_2stim_asymm_v5,2020.2.10,Win32,60,61025ae37ef11b136ea224fe,,,,,,,,,3666,-34.39994024,-64.00000739,1,0,0,response5disk,,3,1.600060296,15.19999379,1,0,0,rectangle,1.600060296,15.19999379,1,0,0,1.600060296,15.19999379,1,0,0,1,53,213,45,1,,,,,,,,
,,,,,,,,,,,,,FF,,,,,,,,0.865894999,,,,,,,,,,,,,,,,,,,,,,6101698f1094df2f82ab8a5e,61036ba738f9927b499bc126,2021-07-29_22h04.03.328,Simcolourproject_2stim_asymm_v5,2020.2.10,Win32,60,61025ae37ef11b136ea224fe,,,,,,,,,2265,31.20001191,40.79999417,1,0,0,response1disk,,7,3.200011492,0.799993575,1,0,0,rectangle,3.200011492,0.799993575,1,0,0,3.200011492,0.799993575,1,0,0,1,54,214,92,1,,,,,,,,
,,,,,,,,,,,,,FF,,,,,,,,1.16594,,,,,,,,,,,,,,,,,,,,,,6101698f1094df2f82ab8a5e,61036ba738f9927b499bc126,2021-07-29_22h04.03.328,Simcolourproject_2stim_asymm_v5,2020.2.10,Win32,60,61025ae37ef11b136ea224fe,,,,,,,,,681,20.00001174,61.59999448,1,0,0,response1disk,,7,-3.999988616,7.19999367,1,0,0,rectangle,-3.999988616,7.19999367,1,0,0,-3.999988616,7.19999367,1,0,0,1,55,215,151,1,,,,,,,,
,,,,,,,,,,,,,FF,,,,,,,,0.999285001,,,,,,,,,,,,,,,,,,,,,,6101698f1094df2f82ab8a5e,61036ba738f9927b499bc126,2021-07-29_22h04.03.328,Simcolourproject_2stim_asymm_v5,2020.2.10,Win32,60,61025ae37ef11b136ea224fe,,,,,,,,,2411,-28.79998899,-72.80000752,1,0,0,response5disk,,3,-0.799988568,6.399993658,1,0,0,rectangle,-0.799988568,6.399993658,1,0,0,-0.799988568,6.399993658,1,0,0,1,56,216,66,1,,,,,,,,
,,,,,,,,,,,,,FF,,,,,,,,1.182495002,,,,,,,,,,,,,,,,,,,,,,6101698f1094df2f82ab8a5e,61036ba738f9927b499bc126,2021-07-29_22h04.03.328,Simcolourproject_2stim_asymm_v5,2020.2.10,Win32,60,61025ae37ef11b136ea224fe,,,,,,,,,1729,28.80001187,-53.60000724,1,0,0,response3disk,,4,-3.199988604,1.599993587,1,0,0,rectangle,-3.199988604,1.599993587,1,0,0,-3.199988604,1.599993587,1,0,0,1,57,217,149,1,,,,,,,,
,,,,,,,,,,,,,FF,,,,,,,,0.682955001,,,,,,,,,,,,,,,,,,,,,,6101698f1094df2f82ab8a5e,61036ba738f9927b499bc126,2021-07-29_22h04.03.328,Simcolourproject_2stim_asymm_v5,2020.2.10,Win32,60,61025ae37ef11b136ea224fe,,,,,,,,,3137,40.00001204,110.3999952,1,0,0,response1disk,,7,-2.399939764,6.399993658,1,0,0,rectangle,-2.399939764,6.399993658,1,0,0,-2.399939764,6.399993658,1,0,0,1,58,218,15,1,,,,,,,,
,,,,,,,,,,,,,FF,,,,,,,,1.432605,,,,,,,,,,,,,,,,,,,,,,6101698f1094df2f82ab8a5e,61036ba738f9927b499bc126,2021-07-29_22h04.03.328,Simcolourproject_2stim_asymm_v5,2020.2.10,Win32,60,61025ae37ef11b136ea224fe,,,,,,,,,2188,23.20001179,-71.2000075,1,0,0,response3disk,,4,-3.999988616,-7.200006545,1,0,0,rectangle,-3.999988616,-7.200006545,1,0,0,-3.999988616,-7.200006545,1,0,0,1,59,219,81,1,,,,,,,,
,,,,,,,,,,,,,FF,,,,,,,,0.832759999,,,,,,,,,,,,,,,,,,,,,,6101698f1094df2f82ab8a5e,61036ba738f9927b499bc126,2021-07-29_22h04.03.328,Simcolourproject_2stim_asymm_v5,2020.2.10,Win32,60,61025ae37ef11b136ea224fe,,,,,,,,,1469,-34.39994024,-66.40000743,1,0,0,response5disk,,3,-4.799988627,-8.800006568,1,0,0,rectangle,-4.799988627,-8.800006568,1,0,0,-4.799988627,-8.800006568,1,0,0,1,60,220,85,1,,,,,,,,
,,,,,,,,,,,,,FF,,,,,,,,1.16619,,,,,,,,,,,,,,,,,,,,,,6101698f1094df2f82ab8a5e,61036ba738f9927b499bc126,2021-07-29_22h04.03.328,Simcolourproject_2stim_asymm_v5,2020.2.10,Win32,60,61025ae37ef11b136ea224fe,,,,,,,,,1394,29.60006071,68.79999459,1,0,0,response1disk,,7,0.800011456,2.399993598,1,0,0,rectangle,0.800011456,2.399993598,1,0,0,0.800011456,2.399993598,1,0,0,1,61,221,44,1,,,,,,,,
,,,,,,,,,,,,,FF,,,,,,,,1.565214999,,,,,,,,,,,,,,,,,,,,,,6101698f1094df2f82ab8a5e,61036ba738f9927b499bc126,2021-07-29_22h04.03.328,Simcolourproject_2stim_asymm_v5,2020.2.10,Win32,60,61025ae37ef11b136ea224fe,,,,,,,,,2495,50.4000122,38.39999413,1,0,0,response1disk,,6,-8.799988687,-12.00000662,1,0,0,rectangle,-8.799988687,-12.00000662,1,0,0,-8.799988687,-12.00000662,1,0,0,1,62,222,19,1,,,,,,,,
,,,,,,,,,,,,,FF,,,,,,,,1.98569,,,,,,,,,,,,,,,,,,,,,,6101698f1094df2f82ab8a5e,61036ba738f9927b499bc126,2021-07-29_22h04.03.328,Simcolourproject_2stim_asymm_v5,2020.2.10,Win32,60,61025ae37ef11b136ea224fe,,,,,,,,,3312,28.80001187,50.39999431,1,0,0,response1disk,,7,1.600060296,9.599993706,1,0,0,rectangle,1.600060296,9.599993706,1,0,0,1.600060296,9.599993706,1,0,0,1,63,223,34,1,,,,,,,,
,,,,,,,,,,,,,FF,,,,,,,,0.716335,,,,,,,,,,,,,,,,,,,,,,6101698f1094df2f82ab8a5e,61036ba738f9927b499bc126,2021-07-29_22h04.03.328,Simcolourproject_2stim_asymm_v5,2020.2.10,Win32,60,61025ae37ef11b136ea224fe,,,,,,,,,3146,-25.59998894,35.9999941,1,0,0,response7disk,,0,-7.999988675,6.399993658,1,0,0,rectangle,-7.999988675,6.399993658,1,0,0,-7.999988675,6.399993658,1,0,0,1,64,224,51,1,,,,,,,,
,,,,,,,,,,,,,FF,,,,,,,,0.882900001,,,,,,,,,,,,,,,,,,,,,,6101698f1094df2f82ab8a5e,61036ba738f9927b499bc126,2021-07-29_22h04.03.328,Simcolourproject_2stim_asymm_v5,2020.2.10,Win32,60,61025ae37ef11b136ea224fe,,,,,,,,,1307,-59.19998944,28.79999399,1,0,0,response7disk,,1,-6.399939823,4.799993634,1,0,0,rectangle,27.20001185,-46.40000713,1,0,0,-1.59998858,-4.800006509,1,0,0,1,65,225,75,1,,response3disk_3,TRUE,4,4,"[164,307,286,10,258,119,294,226,173,195,45,148,308,323,122,43,15,91,103,82]",1.115455002,rectangle
,,,,,,,,,,,,,FF,,,,,,,,1.132650001,,,,,,,,,,,,,,,,,,,,,,6101698f1094df2f82ab8a5e,61036ba738f9927b499bc126,2021-07-29_22h04.03.328,Simcolourproject_2stim_asymm_v5,2020.2.10,Win32,60,61025ae37ef11b136ea224fe,,,,,,,,,1308,-68.79998958,-24.00000679,1,0,0,response5disk,,2,0.800011456,16.79999381,1,0,0,rectangle,0.800011456,16.79999381,1,0,0,0.800011456,16.79999381,1,0,0,1,66,226,38,1,,,,,,,,
,,,,,,,,,,,,,FF,,,,,,,,1.44795,,,,,,,,,,,,,,,,,,,,,,6101698f1094df2f82ab8a5e,61036ba738f9927b499bc126,2021-07-29_22h04.03.328,Simcolourproject_2stim_asymm_v5,2020.2.10,Win32,60,61025ae37ef11b136ea224fe,,,,,,,,,644,-19.99998885,-62.40000737,1,0,0,response5disk,,3,-3.999988616,-9.60000658,1,0,0,rectangle,-3.999988616,-9.60000658,1,0,0,-3.999988616,-9.60000658,1,0,0,1,67,227,124,1,,,,,,,,
,,,,,,,,,,,,,FF,,,,,,,,0.748810001,,,,,,,,,,,,,,,,,,,,,,6101698f1094df2f82ab8a5e,61036ba738f9927b499bc126,2021-07-29_22h04.03.328,Simcolourproject_2stim_asymm_v5,2020.2.10,Win32,60,61025ae37ef11b136ea224fe,,,,,,,,,871,-39.19998914,-50.40000719,1,0,0,response5disk,,3,-18.39994,5.599993646,1,0,0,rectangle,-18.39994,5.599993646,1,0,0,-18.39994,5.599993646,1,0,0,1,68,228,145,1,,,,,,,,
,,,,,,,,,,,,,FF,,,,,,,,1.315229999,,,,,,,,,,,,,,,,,,,,,,6101698f1094df2f82ab8a5e,61036ba738f9927b499bc126,2021-07-29_22h04.03.328,Simcolourproject_2stim_asymm_v5,2020.2.10,Win32,60,61025ae37ef11b136ea224fe,,,,,,,,,4058,25.60006065,-37.600007,1,0,0,response3disk,,4,-3.199988604,-5.600006521,1,0,0,rectangle,-3.199988604,-5.600006521,1,0,0,-3.199988604,-5.600006521,1,0,0,1,69,229,93,1,,,,,,,,
,,,,,,,,,,,,,FF,,,,,,,,1.415859999,,,,,,,,,,,,,,,,,,,,,,6101698f1094df2f82ab8a5e,61036ba738f9927b499bc126,2021-07-29_22h04.03.328,Simcolourproject_2stim_asymm_v5,2020.2.10,Win32,60,61025ae37ef11b136ea224fe,,,,,,,,,3401,52.80001223,23.19996949,1,0,0,response1disk,,6,-6.399939823,-5.600006521,1,0,0,rectangle,-6.399939823,-5.600006521,1,0,0,-6.399939823,-5.600006521,1,0,0,1,70,230,35,1,,,,,,,,
,,,,,,,,,,,,,FF,,,,,,,,3.297525,,,,,,,,,,,,,,,,,,,,,,6101698f1094df2f82ab8a5e,61036ba738f9927b499bc126,2021-07-29_22h04.03.328,Simcolourproject_2stim_asymm_v5,2020.2.10,Win32,60,61025ae37ef11b136ea224fe,,,,,,,,,3445,53.60001224,-22.40000677,1,0,0,response3disk,,5,0.800011456,-0.800006449,1,0,0,rectangle,0.800011456,-0.800006449,1,0,0,0.800011456,-0.800006449,1,0,0,1,71,231,122,1,,,,,,,,
,,,,,,,,,,,,,FF,,,,,,,,1.165874999,,,,,,,,,,,,,,,,,,,,,,6101698f1094df2f82ab8a5e,61036ba738f9927b499bc126,2021-07-29_22h04.03.328,Simcolourproject_2stim_asymm_v5,2020.2.10,Win32,60,61025ae37ef11b136ea224fe,,,,,,,,,3074,40.00001204,25.59999394,1,0,0,response1disk,,6,16.00001168,11.99999374,1,0,0,rectangle,16.00001168,11.99999374,1,0,0,16.00001168,11.99999374,1,0,0,1,72,232,82,1,,,,,,,,
,,,,,,,,,,,,,FF,,,,,,,,0.849410001,,,,,,,,,,,,,,,,,,,,,,6101698f1094df2f82ab8a5e,61036ba738f9927b499bc126,2021-07-29_22h04.03.328,Simcolourproject_2stim_asymm_v5,2020.2.10,Win32,60,61025ae37ef11b136ea224fe,,,,,,,,,3434,-34.39994024,59.99999446,1,0,0,response7disk,,0,-4.799988627,2.399993598,1,0,0,rectangle,-4.799988627,2.399993598,1,0,0,-4.799988627,2.399993598,1,0,0,1,73,233,112,1,,,,,,,,
,,,,,,,,,,,,,FF,,,,,,,,1.29988,,,,,,,,,,,,,,,,,,,,,,6101698f1094df2f82ab8a5e,61036ba738f9927b499bc126,2021-07-29_22h04.03.328,Simcolourproject_2stim_asymm_v5,2020.2.10,Win32,60,61025ae37ef11b136ea224fe,,,,,,,,,1035,-43.1999892,-57.6000073,1,0,0,response5disk,,3,-4.799988627,-5.600006521,1,0,0,rectangle,-4.799988627,-5.600006521,1,0,0,-4.799988627,-5.600006521,1,0,0,1,74,234,22,1,,,,,,,,
,,,,,,,,,,,,,FF,,,,,,,,1.565310001,,,,,,,,,,,,,,,,,,,,,,6101698f1094df2f82ab8a5e,61036ba738f9927b499bc126,2021-07-29_22h04.03.328,Simcolourproject_2stim_asymm_v5,2020.2.10,Win32,60,61025ae37ef11b136ea224fe,,,,,,,,,4346,-64.79998952,-37.600007,1,0,0,response5disk,,2,-5.599988639,10.39999372,1,0,0,rectangle,-5.599988639,10.39999372,1,0,0,-5.599988639,10.39999372,1,0,0,1,75,235,24,1,,,,,,,,
,,,,,,,,,,,,,FF,,,,,,,,0.699100001,,,,,,,,,,,,,,,,,,,,,,6101698f1094df2f82ab8a5e,61036ba738f9927b499bc126,2021-07-29_22h04.03.328,Simcolourproject_2stim_asymm_v5,2020.2.10,Win32,60,61025ae37ef11b136ea224fe,,,,,,,,,2160,-40.79998916,68.79999459,1,0,0,response7disk,,0,-10.39993988,6.399993658,1,0,0,rectangle,-10.39993988,6.399993658,1,0,0,-10.39993988,6.399993658,1,0,0,1,76,236,59,1,,,,,,,,
,,,,,,,,,,,,,FF,,,,,,,,1.004014999,,,,,,,,,,,,,,,,,,,,,,6101698f1094df2f82ab8a5e,61036ba738f9927b499bc126,2021-07-29_22h04.03.328,Simcolourproject_2stim_asymm_v5,2020.2.10,Win32,60,61025ae37ef11b136ea224fe,,,,,,,,,873,-60.79998946,-41.60000706,1,0,0,response5disk,,2,-8.799988687,3.19999361,1,0,0,rectangle,-8.799988687,3.19999361,1,0,0,-8.799988687,3.19999361,1,0,0,1,77,237,140,1,,,,,,,,
,,,,,,,,,,,,,FF,,,,,,,,1.132554999,,,,,,,,,,,,,,,,,,,,,,6101698f1094df2f82ab8a5e,61036ba738f9927b499bc126,2021-07-29_22h04.03.328,Simcolourproject_2stim_asymm_v5,2020.2.10,Win32,60,61025ae37ef11b136ea224fe,,,,,,,,,2077,46.40001214,-21.60000676,1,0,0,response3disk,,5,1.14441E-05,-1.600006461,1,0,0,rectangle,1.14441E-05,-1.600006461,1,0,0,1.14441E-05,-1.600006461,1,0,0,1,78,238,84,1,,,,,,,,
,,,,,,,,,,,,,FF,,,,,,,,0.766275,,,,,,,,,,,,,,,,,,,,,,6101698f1094df2f82ab8a5e,61036ba738f9927b499bc126,2021-07-29_22h04.03.328,Simcolourproject_2stim_asymm_v5,2020.2.10,Win32,60,61025ae37ef11b136ea224fe,,,,,,,,,4071,-25.59998894,43.99999422,1,0,0,response7disk,,0,-5.599988639,-8.800006568,1,0,0,rectangle,-5.599988639,-8.800006568,1,0,0,-5.599988639,-8.800006568,1,0,0,1,79,239,5,1,,,,,,,,
,,,,,,,,,,,,,FF,,,,,,,,0.982224999,,,,,,,,,,,,,,,,,,,,,,6101698f1094df2f82ab8a5e,61036ba738f9927b499bc126,2021-07-29_22h04.03.328,Simcolourproject_2stim_asymm_v5,2020.2.10,Win32,60,61025ae37ef11b136ea224fe,,,,,,,,,943,56.80001229,89.5999949,1,0,0,response1disk,,7,1.14441E-05,-4.000006497,1,0,0,rectangle,1.14441E-05,-4.000006497,1,0,0,1.14441E-05,-4.000006497,1,0,0,1,80,240,86,1,,,,,,,,
