key_resp.keys,key_resp.rt,key_resp_14.keys,key_resp_14.rt,key_resp_15.keys,key_resp_15.rt,key_resp_17.keys,key_resp_17.rt,key_resp_9.keys,key_resp_9.rt,key_resp_10.keys,key_resp_10.rt,practice_comparison,Ecc,mouse_5.x,mouse_5.y,mouse_5.leftButton,mouse_5.midButton,mouse_5.rightButton,mouse_5.clicked_name,pracsimilarity,response_time,mouse_10.x,mouse_10.y,mouse_10.leftButton,mouse_10.midButton,mouse_10.rightButton,mouse_10.clicked_name,mouse_7.x,mouse_7.y,mouse_7.leftButton,mouse_7.midButton,mouse_7.rightButton,mouse_6.x,mouse_6.y,mouse_6.leftButton,mouse_6.midButton,mouse_6.rightButton,duringprac.thisRepN,duringprac.thisTrialN,duringprac.thisN,duringprac.thisIndex,duringprac.ran,participant,session,date,expName,psychopyVersion,OS,frameRate,study_id,mouse_7.clicked_name,catchpracsimilarity,catch_response_time,catchnumberprac,catchtrialorderprac,mouse_6.clicked_name,key_resp_22.keys,key_resp_22.rt,realcomparison,mouse.x,mouse.y,mouse.leftButton,mouse.midButton,mouse.rightButton,mouse.clicked_name,Colour2,similarity,mouse_2.x,mouse_2.y,mouse_2.leftButton,mouse_2.midButton,mouse_2.rightButton,mouse_2.clicked_name,mouse_3.x,mouse_3.y,mouse_3.leftButton,mouse_3.midButton,mouse_3.rightButton,mouse_3.clicked_name,catchornah,catchsimilarity,catchnumber,catchtrialorder,catchRT,mouse_11.x,mouse_11.y,mouse_11.leftButton,mouse_11.midButton,mouse_11.rightButton,mouse_11.clicked_name,trials_2.thisRepN,trials_2.thisTrialN,trials_2.thisN,trials_2.thisIndex,trials_2.ran,Colour1
space,1.131,space,15.064,space,28.281,space,5.702,space,7.425,space,3.441,118,FF,92,30,1,0,0,response1disk_5,6,8.097,-6,2,1,0,0,rectangle_8,-6,2,1,0,0,-6,2,1,0,0,0,0,0,5,1,6101bf7dd34564c349a734ff,6103766327d2dbabdc37323d,2021-07-29_23h02.36.301,Simcolourproject_2stim_asymm_v5,2020.2.10,Win32,60,61025ae37ef11b136ea224fe,,,,,,,,,,,,,,,,,,,,,,,,,,,,,,,,,,,,,,,,,,,,,,
,,,,,,,,,,,,85,PF,-83,-40,1,0,0,response5disk_5,2,1.582,-3,-3,1,0,0,rectangle_8,49,98,1,0,0,-2,15,1,0,0,0,1,1,4,1,6101bf7dd34564c349a734ff,6103766327d2dbabdc37323d,2021-07-29_23h02.36.301,Simcolourproject_2stim_asymm_v5,2020.2.10,Win32,60,61025ae37ef11b136ea224fe,response1disk_7,7,2.297,7,"[2,5]",rectangle_4,,,,,,,,,,,,,,,,,,,,,,,,,,,,,,,,,,,,,,,,
,,,,,,,,,,,,12,FF,85,-59,1,0,0,response3disk_5,5,5.128,-12,6,1,0,0,rectangle_8,-12,6,1,0,0,-12,6,1,0,0,0,2,2,3,1,6101bf7dd34564c349a734ff,6103766327d2dbabdc37323d,2021-07-29_23h02.36.301,Simcolourproject_2stim_asymm_v5,2020.2.10,Win32,60,61025ae37ef11b136ea224fe,,,,,,,,,,,,,,,,,,,,,,,,,,,,,,,,,,,,,,,,,,,,,,
,,,,,,,,,,,,124,FF,-30,-66,1,0,0,response5disk_5,3,4.385,-17,4,1,0,0,rectangle_8,-17,4,1,0,0,-17,4,1,0,0,0,3,3,0,1,6101bf7dd34564c349a734ff,6103766327d2dbabdc37323d,2021-07-29_23h02.36.301,Simcolourproject_2stim_asymm_v5,2020.2.10,Win32,60,61025ae37ef11b136ea224fe,,,,,,,,,,,,,,,,,,,,,,,,,,,,,,,,,,,,,,,,,,,,,,
,,,,,,,,,,,,96,PF,-71,-26,1,0,0,response5disk_5,2,3.664,11,9,1,0,0,rectangle_8,43,78,1,0,0,-3,10,1,0,0,0,4,4,6,1,6101bf7dd34564c349a734ff,6103766327d2dbabdc37323d,2021-07-29_23h02.36.301,Simcolourproject_2stim_asymm_v5,2020.2.10,Win32,60,61025ae37ef11b136ea224fe,response1disk_7,7,1.882,7,"[2,5]",rectangle_4,,,,,,,,,,,,,,,,,,,,,,,,,,,,,,,,,,,,,,,,
,,,,,,,,,,,,32,PF,-62,37,1,0,0,response7disk_5,1,3.946,-9,5,1,0,0,rectangle_8,-9,5,1,0,0,-9,5,1,0,0,0,5,5,1,1,6101bf7dd34564c349a734ff,6103766327d2dbabdc37323d,2021-07-29_23h02.36.301,Simcolourproject_2stim_asymm_v5,2020.2.10,Win32,60,61025ae37ef11b136ea224fe,,,,,,,,,,,,,,,,,,,,,,,,,,,,,,,,,,,,,,,,,,,,,,
,,,,,,,,,,,,40,PF,61,36,1,0,0,response1disk_5,6,4.48,15,4,1,0,0,rectangle_8,15,4,1,0,0,15,4,1,0,0,0,6,6,2,1,6101bf7dd34564c349a734ff,6103766327d2dbabdc37323d,2021-07-29_23h02.36.301,Simcolourproject_2stim_asymm_v5,2020.2.10,Win32,60,61025ae37ef11b136ea224fe,,,,,,,,,,,,,,,,,,,,,,,,,,,,,,,,,,,,,,,,,,,,,,
,,,,,,,,,,,,,FF,,,,,,,,6.095,,,,,,,,,,,,,,,,,,,,,,6101bf7dd34564c349a734ff,6103766327d2dbabdc37323d,2021-07-29_23h02.36.301,Simcolourproject_2stim_asymm_v5,2020.2.10,Win32,60,61025ae37ef11b136ea224fe,,,,,,,space,2.906,3219,29,-60,1,0,0,response3disk,,4,-4,-1,1,0,0,rectangle,36,101,1,0,0,response1disk_3,TRUE,7,7,"[51,105,1,5,25,216,206,15,168,65,129,76,262,135,98,208,128,204,196,233]",1.748,8,8,1,0,0,rectangle,0,0,0,28,1,
,,,,,,,,,,,,,FF,,,,,,,,2.947,,,,,,,,,,,,,,,,,,,,,,6101bf7dd34564c349a734ff,6103766327d2dbabdc37323d,2021-07-29_23h02.36.301,Simcolourproject_2stim_asymm_v5,2020.2.10,Win32,60,61025ae37ef11b136ea224fe,,,,,,,,,3278,29,-69,1,0,0,response3disk,,4,-7,1,1,0,0,rectangle,-7,1,1,0,0,,,,,,,-7,1,1,0,0,,0,1,1,55,1,
,,,,,,,,,,,,,FF,,,,,,,,4.679,,,,,,,,,,,,,,,,,,,,,,6101bf7dd34564c349a734ff,6103766327d2dbabdc37323d,2021-07-29_23h02.36.301,Simcolourproject_2stim_asymm_v5,2020.2.10,Win32,60,61025ae37ef11b136ea224fe,,,,,,,,,1838,-92,-36,1,0,0,response5disk,,2,-14,5,1,0,0,rectangle,-14,5,1,0,0,,,,,,,-14,5,1,0,0,,0,2,2,110,1,
,,,,,,,,,,,,,FF,,,,,,,,1.231,,,,,,,,,,,,,,,,,,,,,,6101bf7dd34564c349a734ff,6103766327d2dbabdc37323d,2021-07-29_23h02.36.301,Simcolourproject_2stim_asymm_v5,2020.2.10,Win32,60,61025ae37ef11b136ea224fe,,,,,,,,,1350,54,26,1,0,0,response1disk,,6,4,3,1,0,0,rectangle,4,3,1,0,0,,,,,,,4,3,1,0,0,,0,3,3,96,1,
,,,,,,,,,,,,,FF,,,,,,,,3.164,,,,,,,,,,,,,,,,,,,,,,6101bf7dd34564c349a734ff,6103766327d2dbabdc37323d,2021-07-29_23h02.36.301,Simcolourproject_2stim_asymm_v5,2020.2.10,Win32,60,61025ae37ef11b136ea224fe,,,,,,,,,438,83,-36,1,0,0,response3disk,,5,-6,9,1,0,0,rectangle,-28,-66,1,0,0,response5disk_3,TRUE,3,3,"[51,105,1,5,25,216,206,15,168,65,129,76,262,135,98,208,128,204,196,233]",2.299,-5,1,1,0,0,rectangle,0,4,4,65,1,
,,,,,,,,,,,,,FF,,,,,,,,1.482,,,,,,,,,,,,,,,,,,,,,,6101bf7dd34564c349a734ff,6103766327d2dbabdc37323d,2021-07-29_23h02.36.301,Simcolourproject_2stim_asymm_v5,2020.2.10,Win32,60,61025ae37ef11b136ea224fe,,,,,,,,,2368,-75,-32,1,0,0,response5disk,,2,2,-6,1,0,0,rectangle,2,-6,1,0,0,,,,,,,2,-6,1,0,0,,0,5,5,95,1,
,,,,,,,,,,,,,FF,,,,,,,,4.279,,,,,,,,,,,,,,,,,,,,,,6101bf7dd34564c349a734ff,6103766327d2dbabdc37323d,2021-07-29_23h02.36.301,Simcolourproject_2stim_asymm_v5,2020.2.10,Win32,60,61025ae37ef11b136ea224fe,,,,,,,,,1208,75,27,1,0,0,response1disk,,6,-18,5,1,0,0,rectangle,-18,5,1,0,0,,,,,,,-18,5,1,0,0,,0,6,6,59,1,
,,,,,,,,,,,,,FF,,,,,,,,1.782,,,,,,,,,,,,,,,,,,,,,,6101bf7dd34564c349a734ff,6103766327d2dbabdc37323d,2021-07-29_23h02.36.301,Simcolourproject_2stim_asymm_v5,2020.2.10,Win32,60,61025ae37ef11b136ea224fe,,,,,,,,,1595,66,-19,1,0,0,response3disk,,5,-6,3,1,0,0,rectangle,-6,3,1,0,0,,,,,,,-6,3,1,0,0,,0,7,7,54,1,
,,,,,,,,,,,,,FF,,,,,,,,1.285,,,,,,,,,,,,,,,,,,,,,,6101bf7dd34564c349a734ff,6103766327d2dbabdc37323d,2021-07-29_23h02.36.301,Simcolourproject_2stim_asymm_v5,2020.2.10,Win32,60,61025ae37ef11b136ea224fe,,,,,,,,,817,-79,-32,1,0,0,response5disk,,2,-7,-6,1,0,0,rectangle,-7,-6,1,0,0,,,,,,,-7,-6,1,0,0,,0,8,8,84,1,
,,,,,,,,,,,,,FF,,,,,,,,1.481,,,,,,,,,,,,,,,,,,,,,,6101bf7dd34564c349a734ff,6103766327d2dbabdc37323d,2021-07-29_23h02.36.301,Simcolourproject_2stim_asymm_v5,2020.2.10,Win32,60,61025ae37ef11b136ea224fe,,,,,,,,,2453,52,21,1,0,0,response1disk,,6,-9,3,1,0,0,rectangle,-9,3,1,0,0,,,,,,,-9,3,1,0,0,,0,9,9,122,1,
,,,,,,,,,,,,,FF,,,,,,,,4.695,,,,,,,,,,,,,,,,,,,,,,6101bf7dd34564c349a734ff,6103766327d2dbabdc37323d,2021-07-29_23h02.36.301,Simcolourproject_2stim_asymm_v5,2020.2.10,Win32,60,61025ae37ef11b136ea224fe,,,,,,,,,1146,21,-74,1,0,0,response3disk,,4,-10,10,1,0,0,rectangle,-10,10,1,0,0,,,,,,,-10,10,1,0,0,,0,10,10,89,1,
,,,,,,,,,,,,,FF,,,,,,,,1.831,,,,,,,,,,,,,,,,,,,,,,6101bf7dd34564c349a734ff,6103766327d2dbabdc37323d,2021-07-29_23h02.36.301,Simcolourproject_2stim_asymm_v5,2020.2.10,Win32,60,61025ae37ef11b136ea224fe,,,,,,,,,2078,70,37,1,0,0,response1disk,,6,-19,7,1,0,0,rectangle,-19,7,1,0,0,,,,,,,-19,7,1,0,0,,0,11,11,33,1,
,,,,,,,,,,,,,FF,,,,,,,,4.281,,,,,,,,,,,,,,,,,,,,,,6101bf7dd34564c349a734ff,6103766327d2dbabdc37323d,2021-07-29_23h02.36.301,Simcolourproject_2stim_asymm_v5,2020.2.10,Win32,60,61025ae37ef11b136ea224fe,,,,,,,,,1084,69,-24,1,0,0,response3disk,,5,-13,7,1,0,0,rectangle,-13,7,1,0,0,,,,,,,-13,7,1,0,0,,0,12,12,142,1,
,,,,,,,,,,,,,FF,,,,,,,,2.282,,,,,,,,,,,,,,,,,,,,,,6101bf7dd34564c349a734ff,6103766327d2dbabdc37323d,2021-07-29_23h02.36.301,Simcolourproject_2stim_asymm_v5,2020.2.10,Win32,60,61025ae37ef11b136ea224fe,,,,,,,,,2908,31,-84,1,0,0,response3disk,,4,6,3,1,0,0,rectangle,6,3,1,0,0,,,,,,,6,3,1,0,0,,0,13,13,68,1,
,,,,,,,,,,,,,FF,,,,,,,,1.149,,,,,,,,,,,,,,,,,,,,,,6101bf7dd34564c349a734ff,6103766327d2dbabdc37323d,2021-07-29_23h02.36.301,Simcolourproject_2stim_asymm_v5,2020.2.10,Win32,60,61025ae37ef11b136ea224fe,,,,,,,,,2750,72,44,1,0,0,response1disk,,6,-16,0,1,0,0,rectangle,38,86,1,0,0,response1disk_3,TRUE,7,7,"[51,105,1,5,25,216,206,15,168,65,129,76,262,135,98,208,128,204,196,233]",1.431,5,-1,1,0,0,rectangle,0,14,14,4,1,
,,,,,,,,,,,,,FF,,,,,,,,2.797,,,,,,,,,,,,,,,,,,,,,,6101bf7dd34564c349a734ff,6103766327d2dbabdc37323d,2021-07-29_23h02.36.301,Simcolourproject_2stim_asymm_v5,2020.2.10,Win32,60,61025ae37ef11b136ea224fe,,,,,,,,,1232,-80,-42,1,0,0,response5disk,,2,6,7,1,0,0,rectangle,6,7,1,0,0,,,,,,,6,7,1,0,0,,0,15,15,5,1,
,,,,,,,,,,,,,FF,,,,,,,,3.93,,,,,,,,,,,,,,,,,,,,,,6101bf7dd34564c349a734ff,6103766327d2dbabdc37323d,2021-07-29_23h02.36.301,Simcolourproject_2stim_asymm_v5,2020.2.10,Win32,60,61025ae37ef11b136ea224fe,,,,,,,,,871,16,-57,1,0,0,response3disk,,4,-15,-6,1,0,0,rectangle,-15,-6,1,0,0,,,,,,,-15,-6,1,0,0,,0,16,16,70,1,
,,,,,,,,,,,,,FF,,,,,,,,3.197,,,,,,,,,,,,,,,,,,,,,,6101bf7dd34564c349a734ff,6103766327d2dbabdc37323d,2021-07-29_23h02.36.301,Simcolourproject_2stim_asymm_v5,2020.2.10,Win32,60,61025ae37ef11b136ea224fe,,,,,,,,,1686,-55,-90,1,0,0,response5disk,,3,-1,2,1,0,0,rectangle,-1,2,1,0,0,,,,,,,-1,2,1,0,0,,0,17,17,148,1,
,,,,,,,,,,,,,FF,,,,,,,,1.1,,,,,,,,,,,,,,,,,,,,,,6101bf7dd34564c349a734ff,6103766327d2dbabdc37323d,2021-07-29_23h02.36.301,Simcolourproject_2stim_asymm_v5,2020.2.10,Win32,60,61025ae37ef11b136ea224fe,,,,,,,,,1113,83,50,1,0,0,response1disk,,6,6,-3,1,0,0,rectangle,6,-3,1,0,0,,,,,,,6,-3,1,0,0,,0,18,18,98,1,
,,,,,,,,,,,,,FF,,,,,,,,3.81,,,,,,,,,,,,,,,,,,,,,,6101bf7dd34564c349a734ff,6103766327d2dbabdc37323d,2021-07-29_23h02.36.301,Simcolourproject_2stim_asymm_v5,2020.2.10,Win32,60,61025ae37ef11b136ea224fe,,,,,,,,,1486,70,-43,1,0,0,response3disk,,5,5,-3,1,0,0,rectangle,5,-3,1,0,0,,,,,,,5,-3,1,0,0,,0,19,19,135,1,
,,,,,,,,,,,,,FF,,,,,,,,2.631,,,,,,,,,,,,,,,,,,,,,,6101bf7dd34564c349a734ff,6103766327d2dbabdc37323d,2021-07-29_23h02.36.301,Simcolourproject_2stim_asymm_v5,2020.2.10,Win32,60,61025ae37ef11b136ea224fe,,,,,,,,,2800,-44,-65,1,0,0,response5disk,,3,-3,1,1,0,0,rectangle,-3,1,1,0,0,,,,,,,-3,1,1,0,0,,0,20,20,48,1,
,,,,,,,,,,,,,FF,,,,,,,,1.065,,,,,,,,,,,,,,,,,,,,,,6101bf7dd34564c349a734ff,6103766327d2dbabdc37323d,2021-07-29_23h02.36.301,Simcolourproject_2stim_asymm_v5,2020.2.10,Win32,60,61025ae37ef11b136ea224fe,,,,,,,,,3007,-29,-74,1,0,0,response5disk,,3,-20,-15,1,0,0,rectangle,-20,-15,1,0,0,,,,,,,-20,-15,1,0,0,,0,21,21,6,1,
,,,,,,,,,,,,,FF,,,,,,,,1.132,,,,,,,,,,,,,,,,,,,,,,6101bf7dd34564c349a734ff,6103766327d2dbabdc37323d,2021-07-29_23h02.36.301,Simcolourproject_2stim_asymm_v5,2020.2.10,Win32,60,61025ae37ef11b136ea224fe,,,,,,,,,2638,89,20,1,0,0,response1disk,,6,4,-13,1,0,0,rectangle,4,-13,1,0,0,,,,,,,4,-13,1,0,0,,0,22,22,93,1,
,,,,,,,,,,,,,FF,,,,,,,,1.731,,,,,,,,,,,,,,,,,,,,,,6101bf7dd34564c349a734ff,6103766327d2dbabdc37323d,2021-07-29_23h02.36.301,Simcolourproject_2stim_asymm_v5,2020.2.10,Win32,60,61025ae37ef11b136ea224fe,,,,,,,,,744,-48,-68,1,0,0,response5disk,,3,-11,7,1,0,0,rectangle,-11,7,1,0,0,,,,,,,-11,7,1,0,0,,0,23,23,11,1,
,,,,,,,,,,,,,FF,,,,,,,,0.985,,,,,,,,,,,,,,,,,,,,,,6101bf7dd34564c349a734ff,6103766327d2dbabdc37323d,2021-07-29_23h02.36.301,Simcolourproject_2stim_asymm_v5,2020.2.10,Win32,60,61025ae37ef11b136ea224fe,,,,,,,,,3020,95,49,1,0,0,response1disk,,6,-4,-1,1,0,0,rectangle,-86,-51,1,0,0,response5disk_3,TRUE,2,2,"[51,105,1,5,25,216,206,15,168,65,129,76,262,135,98,208,128,204,196,233]",3.18,7,8,1,0,0,rectangle,0,24,24,118,1,
,,,,,,,,,,,,,FF,,,,,,,,1.283,,,,,,,,,,,,,,,,,,,,,,6101bf7dd34564c349a734ff,6103766327d2dbabdc37323d,2021-07-29_23h02.36.301,Simcolourproject_2stim_asymm_v5,2020.2.10,Win32,60,61025ae37ef11b136ea224fe,,,,,,,,,501,96,25,1,0,0,response1disk,,6,10,5,1,0,0,rectangle,10,5,1,0,0,,,,,,,10,5,1,0,0,,0,25,25,92,1,
,,,,,,,,,,,,,FF,,,,,,,,4.929,,,,,,,,,,,,,,,,,,,,,,6101bf7dd34564c349a734ff,6103766327d2dbabdc37323d,2021-07-29_23h02.36.301,Simcolourproject_2stim_asymm_v5,2020.2.10,Win32,60,61025ae37ef11b136ea224fe,,,,,,,,,4356,95,46,1,0,0,response1disk,,6,-8,0,1,0,0,rectangle,-8,0,1,0,0,,,,,,,-8,0,1,0,0,,0,26,26,125,1,
,,,,,,,,,,,,,FF,,,,,,,,5.312,,,,,,,,,,,,,,,,,,,,,,6101bf7dd34564c349a734ff,6103766327d2dbabdc37323d,2021-07-29_23h02.36.301,Simcolourproject_2stim_asymm_v5,2020.2.10,Win32,60,61025ae37ef11b136ea224fe,,,,,,,,,2145,78,43,1,0,0,response1disk,,6,4,7,1,0,0,rectangle,4,7,1,0,0,,,,,,,4,7,1,0,0,,0,27,27,129,1,
,,,,,,,,,,,,,FF,,,,,,,,0.966,,,,,,,,,,,,,,,,,,,,,,6101bf7dd34564c349a734ff,6103766327d2dbabdc37323d,2021-07-29_23h02.36.301,Simcolourproject_2stim_asymm_v5,2020.2.10,Win32,60,61025ae37ef11b136ea224fe,,,,,,,,,2567,80,37,1,0,0,response1disk,,6,10,10,1,0,0,rectangle,10,10,1,0,0,,,,,,,10,10,1,0,0,,0,28,28,154,1,
,,,,,,,,,,,,,FF,,,,,,,,1.067,,,,,,,,,,,,,,,,,,,,,,6101bf7dd34564c349a734ff,6103766327d2dbabdc37323d,2021-07-29_23h02.36.301,Simcolourproject_2stim_asymm_v5,2020.2.10,Win32,60,61025ae37ef11b136ea224fe,,,,,,,,,1377,-66,-46,1,0,0,response5disk,,2,-6,2,1,0,0,rectangle,-6,2,1,0,0,,,,,,,-6,2,1,0,0,,0,29,29,99,1,
,,,,,,,,,,,,,FF,,,,,,,,1.484,,,,,,,,,,,,,,,,,,,,,,6101bf7dd34564c349a734ff,6103766327d2dbabdc37323d,2021-07-29_23h02.36.301,Simcolourproject_2stim_asymm_v5,2020.2.10,Win32,60,61025ae37ef11b136ea224fe,,,,,,,,,94,-62,34,1,0,0,response7disk,,1,11,3,1,0,0,rectangle,11,3,1,0,0,,,,,,,11,3,1,0,0,,0,30,30,104,1,
,,,,,,,,,,,,,FF,,,,,,,,1.033,,,,,,,,,,,,,,,,,,,,,,6101bf7dd34564c349a734ff,6103766327d2dbabdc37323d,2021-07-29_23h02.36.301,Simcolourproject_2stim_asymm_v5,2020.2.10,Win32,60,61025ae37ef11b136ea224fe,,,,,,,,,1106,70,30,1,0,0,response1disk,,6,0,7,1,0,0,rectangle,0,7,1,0,0,,,,,,,0,7,1,0,0,,0,31,31,100,1,
,,,,,,,,,,,,,FF,,,,,,,,1.331,,,,,,,,,,,,,,,,,,,,,,6101bf7dd34564c349a734ff,6103766327d2dbabdc37323d,2021-07-29_23h02.36.301,Simcolourproject_2stim_asymm_v5,2020.2.10,Win32,60,61025ae37ef11b136ea224fe,,,,,,,,,2831,-73,33,1,0,0,response7disk,,1,13,8,1,0,0,rectangle,13,8,1,0,0,,,,,,,13,8,1,0,0,,0,32,32,53,1,
,,,,,,,,,,,,,FF,,,,,,,,2.5,,,,,,,,,,,,,,,,,,,,,,6101bf7dd34564c349a734ff,6103766327d2dbabdc37323d,2021-07-29_23h02.36.301,Simcolourproject_2stim_asymm_v5,2020.2.10,Win32,60,61025ae37ef11b136ea224fe,,,,,,,,,3495,67,-39,1,0,0,response3disk,,5,-2,10,1,0,0,rectangle,-2,10,1,0,0,,,,,,,-2,10,1,0,0,,0,33,33,64,1,
,,,,,,,,,,,,,FF,,,,,,,,1.382,,,,,,,,,,,,,,,,,,,,,,6101bf7dd34564c349a734ff,6103766327d2dbabdc37323d,2021-07-29_23h02.36.301,Simcolourproject_2stim_asymm_v5,2020.2.10,Win32,60,61025ae37ef11b136ea224fe,,,,,,,,,1116,33,-85,1,0,0,response3disk,,4,-6,4,1,0,0,rectangle,-6,4,1,0,0,,,,,,,-6,4,1,0,0,,0,34,34,82,1,
,,,,,,,,,,,,,FF,,,,,,,,0.965,,,,,,,,,,,,,,,,,,,,,,6101bf7dd34564c349a734ff,6103766327d2dbabdc37323d,2021-07-29_23h02.36.301,Simcolourproject_2stim_asymm_v5,2020.2.10,Win32,60,61025ae37ef11b136ea224fe,,,,,,,,,140,98,34,1,0,0,response1disk,,6,-13,-2,1,0,0,rectangle,-13,-2,1,0,0,,,,,,,-13,-2,1,0,0,,0,35,35,17,1,
,,,,,,,,,,,,,FF,,,,,,,,3.113,,,,,,,,,,,,,,,,,,,,,,6101bf7dd34564c349a734ff,6103766327d2dbabdc37323d,2021-07-29_23h02.36.301,Simcolourproject_2stim_asymm_v5,2020.2.10,Win32,60,61025ae37ef11b136ea224fe,,,,,,,,,3041,76,-48,1,0,0,response3disk,,5,-8,5,1,0,0,rectangle,-8,5,1,0,0,,,,,,,-8,5,1,0,0,,0,36,36,47,1,
,,,,,,,,,,,,,FF,,,,,,,,2.066,,,,,,,,,,,,,,,,,,,,,,6101bf7dd34564c349a734ff,6103766327d2dbabdc37323d,2021-07-29_23h02.36.301,Simcolourproject_2stim_asymm_v5,2020.2.10,Win32,60,61025ae37ef11b136ea224fe,,,,,,,,,2735,-86,-57,1,0,0,response5disk,,2,-4,-2,1,0,0,rectangle,-4,-2,1,0,0,,,,,,,-4,-2,1,0,0,,0,37,37,51,1,
,,,,,,,,,,,,,FF,,,,,,,,0.982,,,,,,,,,,,,,,,,,,,,,,6101bf7dd34564c349a734ff,6103766327d2dbabdc37323d,2021-07-29_23h02.36.301,Simcolourproject_2stim_asymm_v5,2020.2.10,Win32,60,61025ae37ef11b136ea224fe,,,,,,,,,2775,-86,44,1,0,0,response7disk,,1,15,5,1,0,0,rectangle,15,5,1,0,0,,,,,,,15,5,1,0,0,,0,38,38,81,1,
,,,,,,,,,,,,,FF,,,,,,,,3.246,,,,,,,,,,,,,,,,,,,,,,6101bf7dd34564c349a734ff,6103766327d2dbabdc37323d,2021-07-29_23h02.36.301,Simcolourproject_2stim_asymm_v5,2020.2.10,Win32,60,61025ae37ef11b136ea224fe,,,,,,,,,2186,-48,-70,1,0,0,response5disk,,3,0,-5,1,0,0,rectangle,0,-5,1,0,0,,,,,,,0,-5,1,0,0,,0,39,39,46,1,
,,,,,,,,,,,,,FF,,,,,,,,1.332,,,,,,,,,,,,,,,,,,,,,,6101bf7dd34564c349a734ff,6103766327d2dbabdc37323d,2021-07-29_23h02.36.301,Simcolourproject_2stim_asymm_v5,2020.2.10,Win32,60,61025ae37ef11b136ea224fe,,,,,,,,,1927,68,-38,1,0,0,response3disk,,5,14,-4,1,0,0,rectangle,14,-4,1,0,0,,,,,,,14,-4,1,0,0,,0,40,40,16,1,
,,,,,,,,,,,,,FF,,,,,,,,2.413,,,,,,,,,,,,,,,,,,,,,,6101bf7dd34564c349a734ff,6103766327d2dbabdc37323d,2021-07-29_23h02.36.301,Simcolourproject_2stim_asymm_v5,2020.2.10,Win32,60,61025ae37ef11b136ea224fe,,,,,,,,,709,87,-30,1,0,0,response3disk,,5,14,4,1,0,0,rectangle,14,4,1,0,0,,,,,,,14,4,1,0,0,,0,41,41,101,1,
,,,,,,,,,,,,,FF,,,,,,,,1.316,,,,,,,,,,,,,,,,,,,,,,6101bf7dd34564c349a734ff,6103766327d2dbabdc37323d,2021-07-29_23h02.36.301,Simcolourproject_2stim_asymm_v5,2020.2.10,Win32,60,61025ae37ef11b136ea224fe,,,,,,,,,905,29,-95,1,0,0,response3disk,,4,3,-3,1,0,0,rectangle,3,-3,1,0,0,,,,,,,3,-3,1,0,0,,0,42,42,136,1,
,,,,,,,,,,,,,FF,,,,,,,,1.032,,,,,,,,,,,,,,,,,,,,,,6101bf7dd34564c349a734ff,6103766327d2dbabdc37323d,2021-07-29_23h02.36.301,Simcolourproject_2stim_asymm_v5,2020.2.10,Win32,60,61025ae37ef11b136ea224fe,,,,,,,,,1132,-35,-85,1,0,0,response5disk,,3,6,-1,1,0,0,rectangle,6,-1,1,0,0,,,,,,,6,-1,1,0,0,,0,43,43,2,1,
,,,,,,,,,,,,,FF,,,,,,,,3.896,,,,,,,,,,,,,,,,,,,,,,6101bf7dd34564c349a734ff,6103766327d2dbabdc37323d,2021-07-29_23h02.36.301,Simcolourproject_2stim_asymm_v5,2020.2.10,Win32,60,61025ae37ef11b136ea224fe,,,,,,,,,1200,97,31,1,0,0,response1disk,,6,-16,-8,1,0,0,rectangle,-16,-8,1,0,0,,,,,,,-16,-8,1,0,0,,0,44,44,42,1,
,,,,,,,,,,,,,FF,,,,,,,,0.965,,,,,,,,,,,,,,,,,,,,,,6101bf7dd34564c349a734ff,6103766327d2dbabdc37323d,2021-07-29_23h02.36.301,Simcolourproject_2stim_asymm_v5,2020.2.10,Win32,60,61025ae37ef11b136ea224fe,,,,,,,,,4036,67,24,1,0,0,response1disk,,6,0,9,1,0,0,rectangle,0,9,1,0,0,,,,,,,0,9,1,0,0,,0,45,45,19,1,
,,,,,,,,,,,,,FF,,,,,,,,0.782,,,,,,,,,,,,,,,,,,,,,,6101bf7dd34564c349a734ff,6103766327d2dbabdc37323d,2021-07-29_23h02.36.301,Simcolourproject_2stim_asymm_v5,2020.2.10,Win32,60,61025ae37ef11b136ea224fe,,,,,,,,,4232,65,35,1,0,0,response1disk,,6,4,13,1,0,0,rectangle,4,13,1,0,0,,,,,,,4,13,1,0,0,,0,46,46,107,1,
,,,,,,,,,,,,,FF,,,,,,,,1.881,,,,,,,,,,,,,,,,,,,,,,6101bf7dd34564c349a734ff,6103766327d2dbabdc37323d,2021-07-29_23h02.36.301,Simcolourproject_2stim_asymm_v5,2020.2.10,Win32,60,61025ae37ef11b136ea224fe,,,,,,,,,1598,25,-72,1,0,0,response3disk,,4,6,7,1,0,0,rectangle,6,7,1,0,0,,,,,,,6,7,1,0,0,,0,47,47,102,1,
,,,,,,,,,,,,,FF,,,,,,,,0.882,,,,,,,,,,,,,,,,,,,,,,6101bf7dd34564c349a734ff,6103766327d2dbabdc37323d,2021-07-29_23h02.36.301,Simcolourproject_2stim_asymm_v5,2020.2.10,Win32,60,61025ae37ef11b136ea224fe,,,,,,,,,2057,84,26,1,0,0,response1disk,,6,4,1,1,0,0,rectangle,4,1,1,0,0,,,,,,,4,1,1,0,0,,0,48,48,29,1,
,,,,,,,,,,,,,FF,,,,,,,,0.735,,,,,,,,,,,,,,,,,,,,,,6101bf7dd34564c349a734ff,6103766327d2dbabdc37323d,2021-07-29_23h02.36.301,Simcolourproject_2stim_asymm_v5,2020.2.10,Win32,60,61025ae37ef11b136ea224fe,,,,,,,,,3363,76,28,1,0,0,response1disk,,6,12,2,1,0,0,rectangle,12,2,1,0,0,,,,,,,12,2,1,0,0,,0,49,49,30,1,
,,,,,,,,,,,,,FF,,,,,,,,1.998,,,,,,,,,,,,,,,,,,,,,,6101bf7dd34564c349a734ff,6103766327d2dbabdc37323d,2021-07-29_23h02.36.301,Simcolourproject_2stim_asymm_v5,2020.2.10,Win32,60,61025ae37ef11b136ea224fe,,,,,,,,,672,46,-23,1,0,0,response3disk,,5,3,12,1,0,0,rectangle,46,54,1,0,0,response1disk_3,TRUE,7,7,"[51,105,1,5,25,216,206,15,168,65,129,76,262,135,98,208,128,204,196,233]",1.466,-5,3,1,0,0,rectangle,0,50,50,153,1,
,,,,,,,,,,,,,FF,,,,,,,,3.397,,,,,,,,,,,,,,,,,,,,,,6101bf7dd34564c349a734ff,6103766327d2dbabdc37323d,2021-07-29_23h02.36.301,Simcolourproject_2stim_asymm_v5,2020.2.10,Win32,60,61025ae37ef11b136ea224fe,,,,,,,,,906,27,-77,1,0,0,response3disk,,4,3,-5,1,0,0,rectangle,3,-5,1,0,0,,,,,,,3,-5,1,0,0,,0,51,51,91,1,
,,,,,,,,,,,,,FF,,,,,,,,0.983,,,,,,,,,,,,,,,,,,,,,,6101bf7dd34564c349a734ff,6103766327d2dbabdc37323d,2021-07-29_23h02.36.301,Simcolourproject_2stim_asymm_v5,2020.2.10,Win32,60,61025ae37ef11b136ea224fe,,,,,,,,,3005,-32,-71,1,0,0,response5disk,,3,-6,0,1,0,0,rectangle,-6,0,1,0,0,,,,,,,-6,0,1,0,0,,0,52,52,83,1,
,,,,,,,,,,,,,FF,,,,,,,,0.949,,,,,,,,,,,,,,,,,,,,,,6101bf7dd34564c349a734ff,6103766327d2dbabdc37323d,2021-07-29_23h02.36.301,Simcolourproject_2stim_asymm_v5,2020.2.10,Win32,60,61025ae37ef11b136ea224fe,,,,,,,,,1204,56,24,1,0,0,response1disk,,6,-2,4,1,0,0,rectangle,-2,4,1,0,0,,,,,,,-2,4,1,0,0,,0,53,53,85,1,
,,,,,,,,,,,,,FF,,,,,,,,1.549,,,,,,,,,,,,,,,,,,,,,,6101bf7dd34564c349a734ff,6103766327d2dbabdc37323d,2021-07-29_23h02.36.301,Simcolourproject_2stim_asymm_v5,2020.2.10,Win32,60,61025ae37ef11b136ea224fe,,,,,,,,,1848,84,35,1,0,0,response1disk,,6,-1,-2,1,0,0,rectangle,-1,-2,1,0,0,,,,,,,-1,-2,1,0,0,,0,54,54,78,1,
,,,,,,,,,,,,,FF,,,,,,,,1.249,,,,,,,,,,,,,,,,,,,,,,6101bf7dd34564c349a734ff,6103766327d2dbabdc37323d,2021-07-29_23h02.36.301,Simcolourproject_2stim_asymm_v5,2020.2.10,Win32,60,61025ae37ef11b136ea224fe,,,,,,,,,1683,-24,-50,1,0,0,response5disk,,3,-12,1,1,0,0,rectangle,-12,1,1,0,0,,,,,,,-12,1,1,0,0,,0,55,55,20,1,
,,,,,,,,,,,,,FF,,,,,,,,1.998,,,,,,,,,,,,,,,,,,,,,,6101bf7dd34564c349a734ff,6103766327d2dbabdc37323d,2021-07-29_23h02.36.301,Simcolourproject_2stim_asymm_v5,2020.2.10,Win32,60,61025ae37ef11b136ea224fe,,,,,,,,,2289,72,-43,1,0,0,response3disk,,5,-1,-13,1,0,0,rectangle,-1,-13,1,0,0,,,,,,,-1,-13,1,0,0,,0,56,56,27,1,
,,,,,,,,,,,,,FF,,,,,,,,1.166,,,,,,,,,,,,,,,,,,,,,,6101bf7dd34564c349a734ff,6103766327d2dbabdc37323d,2021-07-29_23h02.36.301,Simcolourproject_2stim_asymm_v5,2020.2.10,Win32,60,61025ae37ef11b136ea224fe,,,,,,,,,3310,80,-27,1,0,0,response3disk,,5,-8,11,1,0,0,rectangle,-8,11,1,0,0,,,,,,,-8,11,1,0,0,,0,57,57,103,1,
,,,,,,,,,,,,,FF,,,,,,,,2.064,,,,,,,,,,,,,,,,,,,,,,6101bf7dd34564c349a734ff,6103766327d2dbabdc37323d,2021-07-29_23h02.36.301,Simcolourproject_2stim_asymm_v5,2020.2.10,Win32,60,61025ae37ef11b136ea224fe,,,,,,,,,135,95,25,1,0,0,response1disk,,6,15,9,1,0,0,rectangle,15,9,1,0,0,,,,,,,15,9,1,0,0,,0,58,58,61,1,
,,,,,,,,,,,,,FF,,,,,,,,2.281,,,,,,,,,,,,,,,,,,,,,,6101bf7dd34564c349a734ff,6103766327d2dbabdc37323d,2021-07-29_23h02.36.301,Simcolourproject_2stim_asymm_v5,2020.2.10,Win32,60,61025ae37ef11b136ea224fe,,,,,,,,,3331,67,27,1,0,0,response1disk,,6,-4,8,1,0,0,rectangle,-4,8,1,0,0,,,,,,,-4,8,1,0,0,,0,59,59,76,1,
,,,,,,,,,,,,,FF,,,,,,,,4.396,,,,,,,,,,,,,,,,,,,,,,6101bf7dd34564c349a734ff,6103766327d2dbabdc37323d,2021-07-29_23h02.36.301,Simcolourproject_2stim_asymm_v5,2020.2.10,Win32,60,61025ae37ef11b136ea224fe,,,,,,,,,3201,39,-64,1,0,0,response3disk,,4,-4,-4,1,0,0,rectangle,-4,-4,1,0,0,,,,,,,-4,-4,1,0,0,,0,60,60,57,1,
,,,,,,,,,,,,,FF,,,,,,,,0.967,,,,,,,,,,,,,,,,,,,,,,6101bf7dd34564c349a734ff,6103766327d2dbabdc37323d,2021-07-29_23h02.36.301,Simcolourproject_2stim_asymm_v5,2020.2.10,Win32,60,61025ae37ef11b136ea224fe,,,,,,,,,3329,74,49,1,0,0,response1disk,,6,-7,7,1,0,0,rectangle,-7,7,1,0,0,,,,,,,-7,7,1,0,0,,0,61,61,147,1,
,,,,,,,,,,,,,FF,,,,,,,,4.53,,,,,,,,,,,,,,,,,,,,,,6101bf7dd34564c349a734ff,6103766327d2dbabdc37323d,2021-07-29_23h02.36.301,Simcolourproject_2stim_asymm_v5,2020.2.10,Win32,60,61025ae37ef11b136ea224fe,,,,,,,,,3179,69,24,1,0,0,response1disk,,6,14,1,1,0,0,rectangle,14,1,1,0,0,,,,,,,14,1,1,0,0,,0,62,62,127,1,
,,,,,,,,,,,,,FF,,,,,,,,1.182,,,,,,,,,,,,,,,,,,,,,,6101bf7dd34564c349a734ff,6103766327d2dbabdc37323d,2021-07-29_23h02.36.301,Simcolourproject_2stim_asymm_v5,2020.2.10,Win32,60,61025ae37ef11b136ea224fe,,,,,,,,,4120,-39,-64,1,0,0,response5disk,,3,-2,-1,1,0,0,rectangle,-2,-1,1,0,0,,,,,,,-2,-1,1,0,0,,0,63,63,37,1,
,,,,,,,,,,,,,FF,,,,,,,,1.232,,,,,,,,,,,,,,,,,,,,,,6101bf7dd34564c349a734ff,6103766327d2dbabdc37323d,2021-07-29_23h02.36.301,Simcolourproject_2stim_asymm_v5,2020.2.10,Win32,60,61025ae37ef11b136ea224fe,,,,,,,,,1823,-62,-29,1,0,0,response5disk,,2,-15,-3,1,0,0,rectangle,-93,35,1,0,0,response7disk_3,TRUE,1,1,"[51,105,1,5,25,216,206,15,168,65,129,76,262,135,98,208,128,204,196,233]",1.599,-4,-1,1,0,0,rectangle,0,64,64,137,1,
,,,,,,,,,,,,,FF,,,,,,,,1.465,,,,,,,,,,,,,,,,,,,,,,6101bf7dd34564c349a734ff,6103766327d2dbabdc37323d,2021-07-29_23h02.36.301,Simcolourproject_2stim_asymm_v5,2020.2.10,Win32,60,61025ae37ef11b136ea224fe,,,,,,,,,20,87,29,1,0,0,response1disk,,6,-6,3,1,0,0,rectangle,-6,3,1,0,0,,,,,,,-6,3,1,0,0,,0,65,65,86,1,
,,,,,,,,,,,,,FF,,,,,,,,1.049,,,,,,,,,,,,,,,,,,,,,,6101bf7dd34564c349a734ff,6103766327d2dbabdc37323d,2021-07-29_23h02.36.301,Simcolourproject_2stim_asymm_v5,2020.2.10,Win32,60,61025ae37ef11b136ea224fe,,,,,,,,,3199,74,25,1,0,0,response1disk,,6,0,6,1,0,0,rectangle,0,6,1,0,0,,,,,,,0,6,1,0,0,,0,66,66,8,1,
,,,,,,,,,,,,,FF,,,,,,,,2.198,,,,,,,,,,,,,,,,,,,,,,6101bf7dd34564c349a734ff,6103766327d2dbabdc37323d,2021-07-29_23h02.36.301,Simcolourproject_2stim_asymm_v5,2020.2.10,Win32,60,61025ae37ef11b136ea224fe,,,,,,,,,3388,-30,94,1,0,0,response7disk,,0,-5,-9,1,0,0,rectangle,-5,-9,1,0,0,,,,,,,-5,-9,1,0,0,,0,67,67,38,1,
,,,,,,,,,,,,,FF,,,,,,,,1.714,,,,,,,,,,,,,,,,,,,,,,6101bf7dd34564c349a734ff,6103766327d2dbabdc37323d,2021-07-29_23h02.36.301,Simcolourproject_2stim_asymm_v5,2020.2.10,Win32,60,61025ae37ef11b136ea224fe,,,,,,,,,2369,-67,-28,1,0,0,response5disk,,2,-1,4,1,0,0,rectangle,-1,4,1,0,0,,,,,,,-1,4,1,0,0,,0,68,68,126,1,
,,,,,,,,,,,,,FF,,,,,,,,0.799,,,,,,,,,,,,,,,,,,,,,,6101bf7dd34564c349a734ff,6103766327d2dbabdc37323d,2021-07-29_23h02.36.301,Simcolourproject_2stim_asymm_v5,2020.2.10,Win32,60,61025ae37ef11b136ea224fe,,,,,,,,,2002,96,52,1,0,0,response1disk,,6,-6,6,1,0,0,rectangle,-6,6,1,0,0,,,,,,,-6,6,1,0,0,,0,69,69,63,1,
,,,,,,,,,,,,,FF,,,,,,,,1.448,,,,,,,,,,,,,,,,,,,,,,6101bf7dd34564c349a734ff,6103766327d2dbabdc37323d,2021-07-29_23h02.36.301,Simcolourproject_2stim_asymm_v5,2020.2.10,Win32,60,61025ae37ef11b136ea224fe,,,,,,,,,2441,77,-31,1,0,0,response3disk,,5,-3,-8,1,0,0,rectangle,-3,-8,1,0,0,,,,,,,-3,-8,1,0,0,,0,70,70,36,1,
,,,,,,,,,,,,,FF,,,,,,,,1.465,,,,,,,,,,,,,,,,,,,,,,6101bf7dd34564c349a734ff,6103766327d2dbabdc37323d,2021-07-29_23h02.36.301,Simcolourproject_2stim_asymm_v5,2020.2.10,Win32,60,61025ae37ef11b136ea224fe,,,,,,,,,3761,88,-34,1,0,0,response3disk,,5,6,0,1,0,0,rectangle,6,0,1,0,0,,,,,,,6,0,1,0,0,,0,71,71,108,1,
,,,,,,,,,,,,,FF,,,,,,,,1.316,,,,,,,,,,,,,,,,,,,,,,6101bf7dd34564c349a734ff,6103766327d2dbabdc37323d,2021-07-29_23h02.36.301,Simcolourproject_2stim_asymm_v5,2020.2.10,Win32,60,61025ae37ef11b136ea224fe,,,,,,,,,2660,-30,96,1,0,0,response7disk,,0,-21,-1,1,0,0,rectangle,-21,-1,1,0,0,,,,,,,-21,-1,1,0,0,,0,72,72,77,1,
,,,,,,,,,,,,,FF,,,,,,,,1.298,,,,,,,,,,,,,,,,,,,,,,6101bf7dd34564c349a734ff,6103766327d2dbabdc37323d,2021-07-29_23h02.36.301,Simcolourproject_2stim_asymm_v5,2020.2.10,Win32,60,61025ae37ef11b136ea224fe,,,,,,,,,718,-94,-20,1,0,0,response5disk,,2,-3,4,1,0,0,rectangle,-3,4,1,0,0,,,,,,,-3,4,1,0,0,,0,73,73,40,1,
,,,,,,,,,,,,,FF,,,,,,,,1.098,,,,,,,,,,,,,,,,,,,,,,6101bf7dd34564c349a734ff,6103766327d2dbabdc37323d,2021-07-29_23h02.36.301,Simcolourproject_2stim_asymm_v5,2020.2.10,Win32,60,61025ae37ef11b136ea224fe,,,,,,,,,4052,-66,-32,1,0,0,response5disk,,2,2,-1,1,0,0,rectangle,2,-1,1,0,0,,,,,,,2,-1,1,0,0,,0,74,74,35,1,
,,,,,,,,,,,,,FF,,,,,,,,3.647,,,,,,,,,,,,,,,,,,,,,,6101bf7dd34564c349a734ff,6103766327d2dbabdc37323d,2021-07-29_23h02.36.301,Simcolourproject_2stim_asymm_v5,2020.2.10,Win32,60,61025ae37ef11b136ea224fe,,,,,,,,,4339,26,-91,1,0,0,response3disk,,4,-6,8,1,0,0,rectangle,-61,-96,1,0,0,response5disk_3,TRUE,3,3,"[51,105,1,5,25,216,206,15,168,65,129,76,262,135,98,208,128,204,196,233]",2.132,-12,-2,1,0,0,rectangle,0,75,75,114,1,
,,,,,,,,,,,,,FF,,,,,,,,1.683,,,,,,,,,,,,,,,,,,,,,,6101bf7dd34564c349a734ff,6103766327d2dbabdc37323d,2021-07-29_23h02.36.301,Simcolourproject_2stim_asymm_v5,2020.2.10,Win32,60,61025ae37ef11b136ea224fe,,,,,,,,,3540,97,21,1,0,0,response1disk,,6,-7,-4,1,0,0,rectangle,-7,-4,1,0,0,,,,,,,-7,-4,1,0,0,,0,76,76,119,1,
,,,,,,,,,,,,,FF,,,,,,,,1.033,,,,,,,,,,,,,,,,,,,,,,6101bf7dd34564c349a734ff,6103766327d2dbabdc37323d,2021-07-29_23h02.36.301,Simcolourproject_2stim_asymm_v5,2020.2.10,Win32,60,61025ae37ef11b136ea224fe,,,,,,,,,1450,-60,-32,1,0,0,response5disk,,2,-10,-3,1,0,0,rectangle,-10,-3,1,0,0,,,,,,,-10,-3,1,0,0,,0,77,77,41,1,
,,,,,,,,,,,,,FF,,,,,,,,1.068,,,,,,,,,,,,,,,,,,,,,,6101bf7dd34564c349a734ff,6103766327d2dbabdc37323d,2021-07-29_23h02.36.301,Simcolourproject_2stim_asymm_v5,2020.2.10,Win32,60,61025ae37ef11b136ea224fe,,,,,,,,,2802,47,26,1,0,0,response1disk,,6,-8,-1,1,0,0,rectangle,-8,-1,1,0,0,,,,,,,-8,-1,1,0,0,,0,78,78,134,1,
,,,,,,,,,,,,,FF,,,,,,,,2.847,,,,,,,,,,,,,,,,,,,,,,6101bf7dd34564c349a734ff,6103766327d2dbabdc37323d,2021-07-29_23h02.36.301,Simcolourproject_2stim_asymm_v5,2020.2.10,Win32,60,61025ae37ef11b136ea224fe,,,,,,,,,487,68,-24,1,0,0,response3disk,,5,12,-6,1,0,0,rectangle,12,-6,1,0,0,,,,,,,12,-6,1,0,0,,0,79,79,111,1,
,,,,,,,,,,,,,FF,,,,,,,,3.147,,,,,,,,,,,,,,,,,,,,,,6101bf7dd34564c349a734ff,6103766327d2dbabdc37323d,2021-07-29_23h02.36.301,Simcolourproject_2stim_asymm_v5,2020.2.10,Win32,60,61025ae37ef11b136ea224fe,,,,,,,,,2494,21,-60,1,0,0,response3disk,,4,-8,15,1,0,0,rectangle,-8,15,1,0,0,,,,,,,-8,15,1,0,0,,0,80,80,45,1,
,,,,,,,,,,,,,FF,,,,,,,,1.565,,,,,,,,,,,,,,,,,,,,,,6101bf7dd34564c349a734ff,6103766327d2dbabdc37323d,2021-07-29_23h02.36.301,Simcolourproject_2stim_asymm_v5,2020.2.10,Win32,60,61025ae37ef11b136ea224fe,,,,,,,,,2798,28,-62,1,0,0,response3disk,,4,-8,-12,1,0,0,rectangle,-8,-12,1,0,0,,,,,,,-8,-12,1,0,0,,0,81,81,109,1,
,,,,,,,,,,,,,FF,,,,,,,,1.232,,,,,,,,,,,,,,,,,,,,,,6101bf7dd34564c349a734ff,6103766327d2dbabdc37323d,2021-07-29_23h02.36.301,Simcolourproject_2stim_asymm_v5,2020.2.10,Win32,60,61025ae37ef11b136ea224fe,,,,,,,,,3619,84,53,1,0,0,response1disk,,6,-28,-2,1,0,0,rectangle,-28,-2,1,0,0,,,,,,,-28,-2,1,0,0,,0,82,82,158,1,
,,,,,,,,,,,,,FF,,,,,,,,1.182,,,,,,,,,,,,,,,,,,,,,,6101bf7dd34564c349a734ff,6103766327d2dbabdc37323d,2021-07-29_23h02.36.301,Simcolourproject_2stim_asymm_v5,2020.2.10,Win32,60,61025ae37ef11b136ea224fe,,,,,,,,,3553,-66,-42,1,0,0,response5disk,,2,-16,-3,1,0,0,rectangle,-16,-3,1,0,0,,,,,,,-16,-3,1,0,0,,0,83,83,145,1,
,,,,,,,,,,,,,FF,,,,,,,,1.065,,,,,,,,,,,,,,,,,,,,,,6101bf7dd34564c349a734ff,6103766327d2dbabdc37323d,2021-07-29_23h02.36.301,Simcolourproject_2stim_asymm_v5,2020.2.10,Win32,60,61025ae37ef11b136ea224fe,,,,,,,,,2601,-19,65,1,0,0,response7disk,,0,-4,11,1,0,0,rectangle,-4,11,1,0,0,,,,,,,-4,11,1,0,0,,0,84,84,60,1,
,,,,,,,,,,,,,FF,,,,,,,,4.645,,,,,,,,,,,,,,,,,,,,,,6101bf7dd34564c349a734ff,6103766327d2dbabdc37323d,2021-07-29_23h02.36.301,Simcolourproject_2stim_asymm_v5,2020.2.10,Win32,60,61025ae37ef11b136ea224fe,,,,,,,,,2107,-41,-52,1,0,0,response5disk,,3,-21,5,1,0,0,rectangle,-21,5,1,0,0,,,,,,,-21,5,1,0,0,,0,85,85,26,1,
,,,,,,,,,,,,,FF,,,,,,,,1.898,,,,,,,,,,,,,,,,,,,,,,6101bf7dd34564c349a734ff,6103766327d2dbabdc37323d,2021-07-29_23h02.36.301,Simcolourproject_2stim_asymm_v5,2020.2.10,Win32,60,61025ae37ef11b136ea224fe,,,,,,,,,2383,86,-53,1,0,0,response3disk,,5,8,2,1,0,0,rectangle,8,2,1,0,0,,,,,,,8,2,1,0,0,,0,86,86,97,1,
,,,,,,,,,,,,,FF,,,,,,,,1.132,,,,,,,,,,,,,,,,,,,,,,6101bf7dd34564c349a734ff,6103766327d2dbabdc37323d,2021-07-29_23h02.36.301,Simcolourproject_2stim_asymm_v5,2020.2.10,Win32,60,61025ae37ef11b136ea224fe,,,,,,,,,845,42,-20,1,0,0,response3disk,,5,18,-11,1,0,0,rectangle,18,-11,1,0,0,,,,,,,18,-11,1,0,0,,0,87,87,12,1,
,,,,,,,,,,,,,FF,,,,,,,,1.048,,,,,,,,,,,,,,,,,,,,,,6101bf7dd34564c349a734ff,6103766327d2dbabdc37323d,2021-07-29_23h02.36.301,Simcolourproject_2stim_asymm_v5,2020.2.10,Win32,60,61025ae37ef11b136ea224fe,,,,,,,,,2118,105,-27,1,0,0,response3disk,,5,6,4,1,0,0,rectangle,6,4,1,0,0,,,,,,,6,4,1,0,0,,0,88,88,131,1,
,,,,,,,,,,,,,FF,,,,,,,,1.232,,,,,,,,,,,,,,,,,,,,,,6101bf7dd34564c349a734ff,6103766327d2dbabdc37323d,2021-07-29_23h02.36.301,Simcolourproject_2stim_asymm_v5,2020.2.10,Win32,60,61025ae37ef11b136ea224fe,,,,,,,,,965,80,54,1,0,0,response1disk,,6,1,15,1,0,0,rectangle,1,15,1,0,0,,,,,,,1,15,1,0,0,,0,89,89,128,1,
,,,,,,,,,,,,,FF,,,,,,,,1.616,,,,,,,,,,,,,,,,,,,,,,6101bf7dd34564c349a734ff,6103766327d2dbabdc37323d,2021-07-29_23h02.36.301,Simcolourproject_2stim_asymm_v5,2020.2.10,Win32,60,61025ae37ef11b136ea224fe,,,,,,,,,444,68,-32,1,0,0,response3disk,,5,14,-9,1,0,0,rectangle,14,-9,1,0,0,,,,,,,14,-9,1,0,0,,0,90,90,112,1,
,,,,,,,,,,,,,FF,,,,,,,,1.748,,,,,,,,,,,,,,,,,,,,,,6101bf7dd34564c349a734ff,6103766327d2dbabdc37323d,2021-07-29_23h02.36.301,Simcolourproject_2stim_asymm_v5,2020.2.10,Win32,60,61025ae37ef11b136ea224fe,,,,,,,,,3816,-42,-74,1,0,0,response5disk,,3,12,3,1,0,0,rectangle,12,3,1,0,0,,,,,,,12,3,1,0,0,,0,91,91,15,1,
,,,,,,,,,,,,,FF,,,,,,,,2.798,,,,,,,,,,,,,,,,,,,,,,6101bf7dd34564c349a734ff,6103766327d2dbabdc37323d,2021-07-29_23h02.36.301,Simcolourproject_2stim_asymm_v5,2020.2.10,Win32,60,61025ae37ef11b136ea224fe,,,,,,,,,1405,80,-36,1,0,0,response3disk,,5,15,-4,1,0,0,rectangle,15,-4,1,0,0,,,,,,,15,-4,1,0,0,,0,92,92,9,1,
,,,,,,,,,,,,,FF,,,,,,,,1.048,,,,,,,,,,,,,,,,,,,,,,6101bf7dd34564c349a734ff,6103766327d2dbabdc37323d,2021-07-29_23h02.36.301,Simcolourproject_2stim_asymm_v5,2020.2.10,Win32,60,61025ae37ef11b136ea224fe,,,,,,,,,3668,-17,69,1,0,0,response7disk,,0,-10,3,1,0,0,rectangle,-10,3,1,0,0,,,,,,,-10,3,1,0,0,,0,93,93,71,1,
,,,,,,,,,,,,,FF,,,,,,,,1.666,,,,,,,,,,,,,,,,,,,,,,6101bf7dd34564c349a734ff,6103766327d2dbabdc37323d,2021-07-29_23h02.36.301,Simcolourproject_2stim_asymm_v5,2020.2.10,Win32,60,61025ae37ef11b136ea224fe,,,,,,,,,90,56,-44,1,0,0,response3disk,,5,16,-7,1,0,0,rectangle,16,-7,1,0,0,,,,,,,16,-7,1,0,0,,0,94,94,39,1,
,,,,,,,,,,,,,FF,,,,,,,,1.165,,,,,,,,,,,,,,,,,,,,,,6101bf7dd34564c349a734ff,6103766327d2dbabdc37323d,2021-07-29_23h02.36.301,Simcolourproject_2stim_asymm_v5,2020.2.10,Win32,60,61025ae37ef11b136ea224fe,,,,,,,,,521,44,25,1,0,0,response1disk,,6,-2,9,1,0,0,rectangle,-2,9,1,0,0,,,,,,,-2,9,1,0,0,,0,95,95,23,1,
,,,,,,,,,,,,,FF,,,,,,,,2.048,,,,,,,,,,,,,,,,,,,,,,6101bf7dd34564c349a734ff,6103766327d2dbabdc37323d,2021-07-29_23h02.36.301,Simcolourproject_2stim_asymm_v5,2020.2.10,Win32,60,61025ae37ef11b136ea224fe,,,,,,,,,277,-48,-69,1,0,0,response5disk,,3,-5,-13,1,0,0,rectangle,-5,-13,1,0,0,,,,,,,-5,-13,1,0,0,,0,96,96,105,1,
,,,,,,,,,,,,,FF,,,,,,,,1.331,,,,,,,,,,,,,,,,,,,,,,6101bf7dd34564c349a734ff,6103766327d2dbabdc37323d,2021-07-29_23h02.36.301,Simcolourproject_2stim_asymm_v5,2020.2.10,Win32,60,61025ae37ef11b136ea224fe,,,,,,,,,1561,99,42,1,0,0,response1disk,,6,1,12,1,0,0,rectangle,83,-56,1,0,0,response3disk_3,TRUE,5,5,"[51,105,1,5,25,216,206,15,168,65,129,76,262,135,98,208,128,204,196,233]",1.837,8,-3,1,0,0,rectangle,0,97,97,52,1,
,,,,,,,,,,,,,FF,,,,,,,,1.599,,,,,,,,,,,,,,,,,,,,,,6101bf7dd34564c349a734ff,6103766327d2dbabdc37323d,2021-07-29_23h02.36.301,Simcolourproject_2stim_asymm_v5,2020.2.10,Win32,60,61025ae37ef11b136ea224fe,,,,,,,,,3393,-22,-57,1,0,0,response5disk,,3,1,10,1,0,0,rectangle,1,10,1,0,0,,,,,,,1,10,1,0,0,,0,98,98,159,1,
,,,,,,,,,,,,,FF,,,,,,,,2.215,,,,,,,,,,,,,,,,,,,,,,6101bf7dd34564c349a734ff,6103766327d2dbabdc37323d,2021-07-29_23h02.36.301,Simcolourproject_2stim_asymm_v5,2020.2.10,Win32,60,61025ae37ef11b136ea224fe,,,,,,,,,3006,69,-35,1,0,0,response3disk,,5,8,-2,1,0,0,rectangle,8,-2,1,0,0,,,,,,,8,-2,1,0,0,,0,99,99,139,1,
,,,,,,,,,,,,,FF,,,,,,,,1.215,,,,,,,,,,,,,,,,,,,,,,6101bf7dd34564c349a734ff,6103766327d2dbabdc37323d,2021-07-29_23h02.36.301,Simcolourproject_2stim_asymm_v5,2020.2.10,Win32,60,61025ae37ef11b136ea224fe,,,,,,,,,2472,60,-40,1,0,0,response3disk,,5,8,-5,1,0,0,rectangle,8,-5,1,0,0,,,,,,,8,-5,1,0,0,,0,100,100,43,1,
,,,,,,,,,,,,,FF,,,,,,,,1.682,,,,,,,,,,,,,,,,,,,,,,6101bf7dd34564c349a734ff,6103766327d2dbabdc37323d,2021-07-29_23h02.36.301,Simcolourproject_2stim_asymm_v5,2020.2.10,Win32,60,61025ae37ef11b136ea224fe,,,,,,,,,1990,106,25,1,0,0,response1disk,,6,13,1,1,0,0,rectangle,13,1,1,0,0,,,,,,,13,1,1,0,0,,0,101,101,13,1,
,,,,,,,,,,,,,FF,,,,,,,,1.198,,,,,,,,,,,,,,,,,,,,,,6101bf7dd34564c349a734ff,6103766327d2dbabdc37323d,2021-07-29_23h02.36.301,Simcolourproject_2stim_asymm_v5,2020.2.10,Win32,60,61025ae37ef11b136ea224fe,,,,,,,,,1278,68,-39,1,0,0,response3disk,,5,-4,5,1,0,0,rectangle,-4,5,1,0,0,,,,,,,-4,5,1,0,0,,0,102,102,10,1,
,,,,,,,,,,,,,FF,,,,,,,,2.082,,,,,,,,,,,,,,,,,,,,,,6101bf7dd34564c349a734ff,6103766327d2dbabdc37323d,2021-07-29_23h02.36.301,Simcolourproject_2stim_asymm_v5,2020.2.10,Win32,60,61025ae37ef11b136ea224fe,,,,,,,,,2185,77,-28,1,0,0,response3disk,,5,6,1,1,0,0,rectangle,6,1,1,0,0,,,,,,,6,1,1,0,0,,0,103,103,117,1,
,,,,,,,,,,,,,FF,,,,,,,,2.217,,,,,,,,,,,,,,,,,,,,,,6101bf7dd34564c349a734ff,6103766327d2dbabdc37323d,2021-07-29_23h02.36.301,Simcolourproject_2stim_asymm_v5,2020.2.10,Win32,60,61025ae37ef11b136ea224fe,,,,,,,,,529,-31,-62,1,0,0,response5disk,,3,-15,-2,1,0,0,rectangle,-83,48,1,0,0,response7disk_3,TRUE,1,1,"[51,105,1,5,25,216,206,15,168,65,129,76,262,135,98,208,128,204,196,233]",1.815,-18,-13,1,0,0,rectangle,0,104,104,116,1,
,,,,,,,,,,,,,FF,,,,,,,,1.532,,,,,,,,,,,,,,,,,,,,,,6101bf7dd34564c349a734ff,6103766327d2dbabdc37323d,2021-07-29_23h02.36.301,Simcolourproject_2stim_asymm_v5,2020.2.10,Win32,60,61025ae37ef11b136ea224fe,,,,,,,,,959,76,33,1,0,0,response1disk,,6,-30,4,1,0,0,rectangle,-30,4,1,0,0,,,,,,,-30,4,1,0,0,,0,105,105,156,1,
,,,,,,,,,,,,,FF,,,,,,,,1.282,,,,,,,,,,,,,,,,,,,,,,6101bf7dd34564c349a734ff,6103766327d2dbabdc37323d,2021-07-29_23h02.36.301,Simcolourproject_2stim_asymm_v5,2020.2.10,Win32,60,61025ae37ef11b136ea224fe,,,,,,,,,1402,87,45,1,0,0,response1disk,,6,4,6,1,0,0,rectangle,4,6,1,0,0,,,,,,,4,6,1,0,0,,0,106,106,31,1,
,,,,,,,,,,,,,FF,,,,,,,,1.449,,,,,,,,,,,,,,,,,,,,,,6101bf7dd34564c349a734ff,6103766327d2dbabdc37323d,2021-07-29_23h02.36.301,Simcolourproject_2stim_asymm_v5,2020.2.10,Win32,60,61025ae37ef11b136ea224fe,,,,,,,,,4364,-77,37,1,0,0,response7disk,,1,-11,-4,1,0,0,rectangle,-11,-4,1,0,0,,,,,,,-11,-4,1,0,0,,0,107,107,149,1,
,,,,,,,,,,,,,FF,,,,,,,,1.699,,,,,,,,,,,,,,,,,,,,,,6101bf7dd34564c349a734ff,6103766327d2dbabdc37323d,2021-07-29_23h02.36.301,Simcolourproject_2stim_asymm_v5,2020.2.10,Win32,60,61025ae37ef11b136ea224fe,,,,,,,,,1557,69,25,1,0,0,response1disk,,6,-18,3,1,0,0,rectangle,-18,3,1,0,0,,,,,,,-18,3,1,0,0,,0,108,108,106,1,
,,,,,,,,,,,,,FF,,,,,,,,1.332,,,,,,,,,,,,,,,,,,,,,,6101bf7dd34564c349a734ff,6103766327d2dbabdc37323d,2021-07-29_23h02.36.301,Simcolourproject_2stim_asymm_v5,2020.2.10,Win32,60,61025ae37ef11b136ea224fe,,,,,,,,,2897,-23,-52,1,0,0,response5disk,,3,6,-4,1,0,0,rectangle,6,-4,1,0,0,,,,,,,6,-4,1,0,0,,0,109,109,73,1,
,,,,,,,,,,,,,FF,,,,,,,,0.983,,,,,,,,,,,,,,,,,,,,,,6101bf7dd34564c349a734ff,6103766327d2dbabdc37323d,2021-07-29_23h02.36.301,Simcolourproject_2stim_asymm_v5,2020.2.10,Win32,60,61025ae37ef11b136ea224fe,,,,,,,,,3961,60,20,1,0,0,response1disk,,6,10,8,1,0,0,rectangle,10,8,1,0,0,,,,,,,10,8,1,0,0,,0,110,110,0,1,
,,,,,,,,,,,,,FF,,,,,,,,2.749,,,,,,,,,,,,,,,,,,,,,,6101bf7dd34564c349a734ff,6103766327d2dbabdc37323d,2021-07-29_23h02.36.301,Simcolourproject_2stim_asymm_v5,2020.2.10,Win32,60,61025ae37ef11b136ea224fe,,,,,,,,,579,50,-61,1,0,0,response3disk,,4,13,-8,1,0,0,rectangle,13,-8,1,0,0,,,,,,,13,-8,1,0,0,,0,111,111,120,1,
,,,,,,,,,,,,,FF,,,,,,,,0.883,,,,,,,,,,,,,,,,,,,,,,6101bf7dd34564c349a734ff,6103766327d2dbabdc37323d,2021-07-29_23h02.36.301,Simcolourproject_2stim_asymm_v5,2020.2.10,Win32,60,61025ae37ef11b136ea224fe,,,,,,,,,939,58,33,1,0,0,response1disk,,6,3,-1,1,0,0,rectangle,3,-1,1,0,0,,,,,,,3,-1,1,0,0,,0,112,112,157,1,
,,,,,,,,,,,,,FF,,,,,,,,1.149,,,,,,,,,,,,,,,,,,,,,,6101bf7dd34564c349a734ff,6103766327d2dbabdc37323d,2021-07-29_23h02.36.301,Simcolourproject_2stim_asymm_v5,2020.2.10,Win32,60,61025ae37ef11b136ea224fe,,,,,,,,,3616,105,56,1,0,0,response1disk,,6,-2,6,1,0,0,rectangle,-2,6,1,0,0,,,,,,,-2,6,1,0,0,,0,113,113,56,1,
,,,,,,,,,,,,,FF,,,,,,,,0.833,,,,,,,,,,,,,,,,,,,,,,6101bf7dd34564c349a734ff,6103766327d2dbabdc37323d,2021-07-29_23h02.36.301,Simcolourproject_2stim_asymm_v5,2020.2.10,Win32,60,61025ae37ef11b136ea224fe,,,,,,,,,3654,79,34,1,0,0,response1disk,,6,5,5,1,0,0,rectangle,5,5,1,0,0,,,,,,,5,5,1,0,0,,0,114,114,22,1,
,,,,,,,,,,,,,FF,,,,,,,,2.115,,,,,,,,,,,,,,,,,,,,,,6101bf7dd34564c349a734ff,6103766327d2dbabdc37323d,2021-07-29_23h02.36.301,Simcolourproject_2stim_asymm_v5,2020.2.10,Win32,60,61025ae37ef11b136ea224fe,,,,,,,,,4351,-92,-27,1,0,0,response5disk,,2,-26,3,1,0,0,rectangle,-26,3,1,0,0,,,,,,,-26,3,1,0,0,,0,115,115,58,1,
,,,,,,,,,,,,,FF,,,,,,,,1.132,,,,,,,,,,,,,,,,,,,,,,6101bf7dd34564c349a734ff,6103766327d2dbabdc37323d,2021-07-29_23h02.36.301,Simcolourproject_2stim_asymm_v5,2020.2.10,Win32,60,61025ae37ef11b136ea224fe,,,,,,,,,1225,-70,-41,1,0,0,response5disk,,2,-15,-5,1,0,0,rectangle,-15,-5,1,0,0,,,,,,,-15,-5,1,0,0,,0,116,116,79,1,
,,,,,,,,,,,,,FF,,,,,,,,1.382,,,,,,,,,,,,,,,,,,,,,,6101bf7dd34564c349a734ff,6103766327d2dbabdc37323d,2021-07-29_23h02.36.301,Simcolourproject_2stim_asymm_v5,2020.2.10,Win32,60,61025ae37ef11b136ea224fe,,,,,,,,,2322,37,-50,1,0,0,response3disk,,4,2,-12,1,0,0,rectangle,2,-12,1,0,0,,,,,,,2,-12,1,0,0,,0,117,117,141,1,
,,,,,,,,,,,,,FF,,,,,,,,0.966,,,,,,,,,,,,,,,,,,,,,,6101bf7dd34564c349a734ff,6103766327d2dbabdc37323d,2021-07-29_23h02.36.301,Simcolourproject_2stim_asymm_v5,2020.2.10,Win32,60,61025ae37ef11b136ea224fe,,,,,,,,,433,45,15,1,0,0,response1disk,,6,25,3,1,0,0,rectangle,25,3,1,0,0,,,,,,,25,3,1,0,0,,0,118,118,146,1,
,,,,,,,,,,,,,FF,,,,,,,,1.559,,,,,,,,,,,,,,,,,,,,,,6101bf7dd34564c349a734ff,6103766327d2dbabdc37323d,2021-07-29_23h02.36.301,Simcolourproject_2stim_asymm_v5,2020.2.10,Win32,60,61025ae37ef11b136ea224fe,,,,,,,,,2207,87,50,1,0,0,response1disk,,6,3,6,1,0,0,rectangle,3,6,1,0,0,,,,,,,3,6,1,0,0,,0,119,119,69,1,
,,,,,,,,,,,,,FF,,,,,,,,1.116,,,,,,,,,,,,,,,,,,,,,,6101bf7dd34564c349a734ff,6103766327d2dbabdc37323d,2021-07-29_23h02.36.301,Simcolourproject_2stim_asymm_v5,2020.2.10,Win32,60,61025ae37ef11b136ea224fe,,,,,,,,,2751,66,24,1,0,0,response1disk,,6,20,3,1,0,0,rectangle,20,3,1,0,0,,,,,,,20,3,1,0,0,,0,120,120,144,1,
,,,,,,,,,,,,,FF,,,,,,,,4.629,,,,,,,,,,,,,,,,,,,,,,6101bf7dd34564c349a734ff,6103766327d2dbabdc37323d,2021-07-29_23h02.36.301,Simcolourproject_2stim_asymm_v5,2020.2.10,Win32,60,61025ae37ef11b136ea224fe,,,,,,,,,3031,58,35,1,0,0,response1disk,,6,-7,4,1,0,0,rectangle,-7,4,1,0,0,,,,,,,-7,4,1,0,0,,0,121,121,138,1,
,,,,,,,,,,,,,FF,,,,,,,,1.416,,,,,,,,,,,,,,,,,,,,,,6101bf7dd34564c349a734ff,6103766327d2dbabdc37323d,2021-07-29_23h02.36.301,Simcolourproject_2stim_asymm_v5,2020.2.10,Win32,60,61025ae37ef11b136ea224fe,,,,,,,,,3193,-28,-66,1,0,0,response5disk,,3,-7,-7,1,0,0,rectangle,-7,-7,1,0,0,,,,,,,-7,-7,1,0,0,,0,122,122,49,1,
,,,,,,,,,,,,,FF,,,,,,,,1.116,,,,,,,,,,,,,,,,,,,,,,6101bf7dd34564c349a734ff,6103766327d2dbabdc37323d,2021-07-29_23h02.36.301,Simcolourproject_2stim_asymm_v5,2020.2.10,Win32,60,61025ae37ef11b136ea224fe,,,,,,,,,2162,-30,-47,1,0,0,response5disk,,3,-17,-7,1,0,0,rectangle,-17,-7,1,0,0,,,,,,,-17,-7,1,0,0,,0,123,123,133,1,
,,,,,,,,,,,,,FF,,,,,,,,1.282,,,,,,,,,,,,,,,,,,,,,,6101bf7dd34564c349a734ff,6103766327d2dbabdc37323d,2021-07-29_23h02.36.301,Simcolourproject_2stim_asymm_v5,2020.2.10,Win32,60,61025ae37ef11b136ea224fe,,,,,,,,,298,35,-37,1,0,0,response3disk,,4,23,-13,1,0,0,rectangle,23,-13,1,0,0,,,,,,,23,-13,1,0,0,,0,124,124,24,1,
,,,,,,,,,,,,,FF,,,,,,,,1.216,,,,,,,,,,,,,,,,,,,,,,6101bf7dd34564c349a734ff,6103766327d2dbabdc37323d,2021-07-29_23h02.36.301,Simcolourproject_2stim_asymm_v5,2020.2.10,Win32,60,61025ae37ef11b136ea224fe,,,,,,,,,4017,87,22,1,0,0,response1disk,,6,13,-6,1,0,0,rectangle,13,-6,1,0,0,,,,,,,13,-6,1,0,0,,0,125,125,140,1,
,,,,,,,,,,,,,FF,,,,,,,,1.798,,,,,,,,,,,,,,,,,,,,,,6101bf7dd34564c349a734ff,6103766327d2dbabdc37323d,2021-07-29_23h02.36.301,Simcolourproject_2stim_asymm_v5,2020.2.10,Win32,60,61025ae37ef11b136ea224fe,,,,,,,,,4086,48,-16,1,0,0,response3disk,,5,10,2,1,0,0,rectangle,10,2,1,0,0,,,,,,,10,2,1,0,0,,0,126,126,123,1,
,,,,,,,,,,,,,FF,,,,,,,,2.115,,,,,,,,,,,,,,,,,,,,,,6101bf7dd34564c349a734ff,6103766327d2dbabdc37323d,2021-07-29_23h02.36.301,Simcolourproject_2stim_asymm_v5,2020.2.10,Win32,60,61025ae37ef11b136ea224fe,,,,,,,,,2823,30,-43,1,0,0,response3disk,,4,17,-1,1,0,0,rectangle,75,-64,1,0,0,response3disk_3,TRUE,5,5,"[51,105,1,5,25,216,206,15,168,65,129,76,262,135,98,208,128,204,196,233]",2.214,4,1,1,0,0,rectangle,0,127,127,44,1,
,,,,,,,,,,,,,FF,,,,,,,,1.117,,,,,,,,,,,,,,,,,,,,,,6101bf7dd34564c349a734ff,6103766327d2dbabdc37323d,2021-07-29_23h02.36.301,Simcolourproject_2stim_asymm_v5,2020.2.10,Win32,60,61025ae37ef11b136ea224fe,,,,,,,,,1831,-37,-71,1,0,0,response5disk,,3,-4,-2,1,0,0,rectangle,109,-40,1,0,0,response3disk_3,TRUE,5,5,"[51,105,1,5,25,216,206,15,168,65,129,76,262,135,98,208,128,204,196,233]",2.315,31,-1,1,0,0,rectangle,0,128,128,121,1,
,,,,,,,,,,,,,FF,,,,,,,,1.515,,,,,,,,,,,,,,,,,,,,,,6101bf7dd34564c349a734ff,6103766327d2dbabdc37323d,2021-07-29_23h02.36.301,Simcolourproject_2stim_asymm_v5,2020.2.10,Win32,60,61025ae37ef11b136ea224fe,,,,,,,,,2630,84,-32,1,0,0,response3disk,,5,23,-4,1,0,0,rectangle,23,-4,1,0,0,,,,,,,23,-4,1,0,0,,0,129,129,80,1,
,,,,,,,,,,,,,FF,,,,,,,,1.282,,,,,,,,,,,,,,,,,,,,,,6101bf7dd34564c349a734ff,6103766327d2dbabdc37323d,2021-07-29_23h02.36.301,Simcolourproject_2stim_asymm_v5,2020.2.10,Win32,60,61025ae37ef11b136ea224fe,,,,,,,,,686,-63,-93,1,0,0,response5disk,,3,-5,-13,1,0,0,rectangle,-5,-13,1,0,0,,,,,,,-5,-13,1,0,0,,0,130,130,115,1,
,,,,,,,,,,,,,FF,,,,,,,,1.266,,,,,,,,,,,,,,,,,,,,,,6101bf7dd34564c349a734ff,6103766327d2dbabdc37323d,2021-07-29_23h02.36.301,Simcolourproject_2stim_asymm_v5,2020.2.10,Win32,60,61025ae37ef11b136ea224fe,,,,,,,,,877,69,-35,1,0,0,response3disk,,5,24,4,1,0,0,rectangle,24,4,1,0,0,,,,,,,24,4,1,0,0,,0,131,131,152,1,
,,,,,,,,,,,,,FF,,,,,,,,1.233,,,,,,,,,,,,,,,,,,,,,,6101bf7dd34564c349a734ff,6103766327d2dbabdc37323d,2021-07-29_23h02.36.301,Simcolourproject_2stim_asymm_v5,2020.2.10,Win32,60,61025ae37ef11b136ea224fe,,,,,,,,,3897,55,-30,1,0,0,response3disk,,5,27,-8,1,0,0,rectangle,27,-8,1,0,0,,,,,,,27,-8,1,0,0,,0,132,132,66,1,
,,,,,,,,,,,,,FF,,,,,,,,2.314,,,,,,,,,,,,,,,,,,,,,,6101bf7dd34564c349a734ff,6103766327d2dbabdc37323d,2021-07-29_23h02.36.301,Simcolourproject_2stim_asymm_v5,2020.2.10,Win32,60,61025ae37ef11b136ea224fe,,,,,,,,,1255,40,-86,1,0,0,response3disk,,4,13,-14,1,0,0,rectangle,13,-14,1,0,0,,,,,,,13,-14,1,0,0,,0,133,133,90,1,
,,,,,,,,,,,,,FF,,,,,,,,2.281,,,,,,,,,,,,,,,,,,,,,,6101bf7dd34564c349a734ff,6103766327d2dbabdc37323d,2021-07-29_23h02.36.301,Simcolourproject_2stim_asymm_v5,2020.2.10,Win32,60,61025ae37ef11b136ea224fe,,,,,,,,,2004,89,46,1,0,0,response1disk,,6,4,2,1,0,0,rectangle,45,-68,1,0,0,response3disk_3,TRUE,4,4,"[51,105,1,5,25,216,206,15,168,65,129,76,262,135,98,208,128,204,196,233]",2.18,13,-9,1,0,0,rectangle,0,134,134,124,1,
,,,,,,,,,,,,,FF,,,,,,,,1.099,,,,,,,,,,,,,,,,,,,,,,6101bf7dd34564c349a734ff,6103766327d2dbabdc37323d,2021-07-29_23h02.36.301,Simcolourproject_2stim_asymm_v5,2020.2.10,Win32,60,61025ae37ef11b136ea224fe,,,,,,,,,3441,-48,-52,1,0,0,response5disk,,3,-7,-1,1,0,0,rectangle,-7,-1,1,0,0,,,,,,,-7,-1,1,0,0,,0,135,135,62,1,
,,,,,,,,,,,,,FF,,,,,,,,1.483,,,,,,,,,,,,,,,,,,,,,,6101bf7dd34564c349a734ff,6103766327d2dbabdc37323d,2021-07-29_23h02.36.301,Simcolourproject_2stim_asymm_v5,2020.2.10,Win32,60,61025ae37ef11b136ea224fe,,,,,,,,,464,33,-60,1,0,0,response3disk,,4,2,-4,1,0,0,rectangle,2,-4,1,0,0,,,,,,,2,-4,1,0,0,,0,136,136,132,1,
,,,,,,,,,,,,,FF,,,,,,,,1.516,,,,,,,,,,,,,,,,,,,,,,6101bf7dd34564c349a734ff,6103766327d2dbabdc37323d,2021-07-29_23h02.36.301,Simcolourproject_2stim_asymm_v5,2020.2.10,Win32,60,61025ae37ef11b136ea224fe,,,,,,,,,2583,91,43,1,0,0,response1disk,,6,-3,1,1,0,0,rectangle,-3,1,1,0,0,,,,,,,-3,1,1,0,0,,0,137,137,34,1,
,,,,,,,,,,,,,FF,,,,,,,,2.799,,,,,,,,,,,,,,,,,,,,,,6101bf7dd34564c349a734ff,6103766327d2dbabdc37323d,2021-07-29_23h02.36.301,Simcolourproject_2stim_asymm_v5,2020.2.10,Win32,60,61025ae37ef11b136ea224fe,,,,,,,,,4258,74,37,1,0,0,response1disk,,6,11,4,1,0,0,rectangle,11,4,1,0,0,,,,,,,11,4,1,0,0,,0,138,138,25,1,
,,,,,,,,,,,,,FF,,,,,,,,1.431,,,,,,,,,,,,,,,,,,,,,,6101bf7dd34564c349a734ff,6103766327d2dbabdc37323d,2021-07-29_23h02.36.301,Simcolourproject_2stim_asymm_v5,2020.2.10,Win32,60,61025ae37ef11b136ea224fe,,,,,,,,,2501,62,-35,1,0,0,response3disk,,5,-1,-1,1,0,0,rectangle,-1,-1,1,0,0,,,,,,,-1,-1,1,0,0,,0,139,139,113,1,
,,,,,,,,,,,,,FF,,,,,,,,1.148,,,,,,,,,,,,,,,,,,,,,,6101bf7dd34564c349a734ff,6103766327d2dbabdc37323d,2021-07-29_23h02.36.301,Simcolourproject_2stim_asymm_v5,2020.2.10,Win32,60,61025ae37ef11b136ea224fe,,,,,,,,,1164,35,-41,1,0,0,response3disk,,4,3,-10,1,0,0,rectangle,3,-10,1,0,0,,,,,,,3,-10,1,0,0,,0,140,140,18,1,
,,,,,,,,,,,,,FF,,,,,,,,1.033,,,,,,,,,,,,,,,,,,,,,,6101bf7dd34564c349a734ff,6103766327d2dbabdc37323d,2021-07-29_23h02.36.301,Simcolourproject_2stim_asymm_v5,2020.2.10,Win32,60,61025ae37ef11b136ea224fe,,,,,,,,,1111,69,38,1,0,0,response1disk,,6,-9,6,1,0,0,rectangle,-9,6,1,0,0,,,,,,,-9,6,1,0,0,,0,141,141,150,1,
,,,,,,,,,,,,,FF,,,,,,,,2.065,,,,,,,,,,,,,,,,,,,,,,6101bf7dd34564c349a734ff,6103766327d2dbabdc37323d,2021-07-29_23h02.36.301,Simcolourproject_2stim_asymm_v5,2020.2.10,Win32,60,61025ae37ef11b136ea224fe,,,,,,,,,4110,61,39,1,0,0,response1disk,,6,6,12,1,0,0,rectangle,6,12,1,0,0,,,,,,,6,12,1,0,0,,0,142,142,130,1,
,,,,,,,,,,,,,FF,,,,,,,,1.032,,,,,,,,,,,,,,,,,,,,,,6101bf7dd34564c349a734ff,6103766327d2dbabdc37323d,2021-07-29_23h02.36.301,Simcolourproject_2stim_asymm_v5,2020.2.10,Win32,60,61025ae37ef11b136ea224fe,,,,,,,,,793,62,32,1,0,0,response1disk,,6,2,1,1,0,0,rectangle,2,1,1,0,0,,,,,,,2,1,1,0,0,,0,143,143,72,1,
,,,,,,,,,,,,,FF,,,,,,,,0.999,,,,,,,,,,,,,,,,,,,,,,6101bf7dd34564c349a734ff,6103766327d2dbabdc37323d,2021-07-29_23h02.36.301,Simcolourproject_2stim_asymm_v5,2020.2.10,Win32,60,61025ae37ef11b136ea224fe,,,,,,,,,3400,47,-31,1,0,0,response3disk,,5,-3,-3,1,0,0,rectangle,-3,-3,1,0,0,,,,,,,-3,-3,1,0,0,,0,144,144,3,1,
,,,,,,,,,,,,,FF,,,,,,,,1.266,,,,,,,,,,,,,,,,,,,,,,6101bf7dd34564c349a734ff,6103766327d2dbabdc37323d,2021-07-29_23h02.36.301,Simcolourproject_2stim_asymm_v5,2020.2.10,Win32,60,61025ae37ef11b136ea224fe,,,,,,,,,1520,80,35,1,0,0,response1disk,,6,-9,-3,1,0,0,rectangle,-9,-3,1,0,0,,,,,,,-9,-3,1,0,0,,0,145,145,1,1,
,,,,,,,,,,,,,FF,,,,,,,,0.999,,,,,,,,,,,,,,,,,,,,,,6101bf7dd34564c349a734ff,6103766327d2dbabdc37323d,2021-07-29_23h02.36.301,Simcolourproject_2stim_asymm_v5,2020.2.10,Win32,60,61025ae37ef11b136ea224fe,,,,,,,,,2143,61,35,1,0,0,response1disk,,6,4,2,1,0,0,rectangle,4,2,1,0,0,,,,,,,4,2,1,0,0,,0,146,146,75,1,
,,,,,,,,,,,,,FF,,,,,,,,1,,,,,,,,,,,,,,,,,,,,,,6101bf7dd34564c349a734ff,6103766327d2dbabdc37323d,2021-07-29_23h02.36.301,Simcolourproject_2stim_asymm_v5,2020.2.10,Win32,60,61025ae37ef11b136ea224fe,,,,,,,,,2753,66,-32,1,0,0,response3disk,,5,18,-5,1,0,0,rectangle,18,-5,1,0,0,,,,,,,18,-5,1,0,0,,0,147,147,7,1,
,,,,,,,,,,,,,FF,,,,,,,,1.515,,,,,,,,,,,,,,,,,,,,,,6101bf7dd34564c349a734ff,6103766327d2dbabdc37323d,2021-07-29_23h02.36.301,Simcolourproject_2stim_asymm_v5,2020.2.10,Win32,60,61025ae37ef11b136ea224fe,,,,,,,,,389,69,-26,1,0,0,response3disk,,5,6,0,1,0,0,rectangle,6,0,1,0,0,,,,,,,6,0,1,0,0,,0,148,148,155,1,
,,,,,,,,,,,,,FF,,,,,,,,0.999,,,,,,,,,,,,,,,,,,,,,,6101bf7dd34564c349a734ff,6103766327d2dbabdc37323d,2021-07-29_23h02.36.301,Simcolourproject_2stim_asymm_v5,2020.2.10,Win32,60,61025ae37ef11b136ea224fe,,,,,,,,,2634,94,22,1,0,0,response1disk,,6,11,-6,1,0,0,rectangle,11,-6,1,0,0,,,,,,,11,-6,1,0,0,,0,149,149,88,1,
,,,,,,,,,,,,,FF,,,,,,,,1.399,,,,,,,,,,,,,,,,,,,,,,6101bf7dd34564c349a734ff,6103766327d2dbabdc37323d,2021-07-29_23h02.36.301,Simcolourproject_2stim_asymm_v5,2020.2.10,Win32,60,61025ae37ef11b136ea224fe,,,,,,,,,212,30,-47,1,0,0,response3disk,,4,0,-5,1,0,0,rectangle,0,-5,1,0,0,,,,,,,0,-5,1,0,0,,0,150,150,14,1,
,,,,,,,,,,,,,FF,,,,,,,,0.966,,,,,,,,,,,,,,,,,,,,,,6101bf7dd34564c349a734ff,6103766327d2dbabdc37323d,2021-07-29_23h02.36.301,Simcolourproject_2stim_asymm_v5,2020.2.10,Win32,60,61025ae37ef11b136ea224fe,,,,,,,,,3035,66,20,1,0,0,response1disk,,6,-2,-7,1,0,0,rectangle,-2,-7,1,0,0,,,,,,,-2,-7,1,0,0,,0,151,151,143,1,
,,,,,,,,,,,,,FF,,,,,,,,1.014,,,,,,,,,,,,,,,,,,,,,,6101bf7dd34564c349a734ff,6103766327d2dbabdc37323d,2021-07-29_23h02.36.301,Simcolourproject_2stim_asymm_v5,2020.2.10,Win32,60,61025ae37ef11b136ea224fe,,,,,,,,,87,66,45,1,0,0,response1disk,,6,-4,-2,1,0,0,rectangle,-4,-2,1,0,0,,,,,,,-4,-2,1,0,0,,0,152,152,94,1,
,,,,,,,,,,,,,FF,,,,,,,,1.981,,,,,,,,,,,,,,,,,,,,,,6101bf7dd34564c349a734ff,6103766327d2dbabdc37323d,2021-07-29_23h02.36.301,Simcolourproject_2stim_asymm_v5,2020.2.10,Win32,60,61025ae37ef11b136ea224fe,,,,,,,,,3877,73,-21,1,0,0,response3disk,,5,-3,0,1,0,0,rectangle,-3,0,1,0,0,,,,,,,-3,0,1,0,0,,0,153,153,74,1,
,,,,,,,,,,,,,FF,,,,,,,,1.099,,,,,,,,,,,,,,,,,,,,,,6101bf7dd34564c349a734ff,6103766327d2dbabdc37323d,2021-07-29_23h02.36.301,Simcolourproject_2stim_asymm_v5,2020.2.10,Win32,60,61025ae37ef11b136ea224fe,,,,,,,,,2263,45,-57,1,0,0,response3disk,,4,2,-5,1,0,0,rectangle,2,-5,1,0,0,,,,,,,2,-5,1,0,0,,0,154,154,87,1,
,,,,,,,,,,,,,FF,,,,,,,,1.331,,,,,,,,,,,,,,,,,,,,,,6101bf7dd34564c349a734ff,6103766327d2dbabdc37323d,2021-07-29_23h02.36.301,Simcolourproject_2stim_asymm_v5,2020.2.10,Win32,60,61025ae37ef11b136ea224fe,,,,,,,,,1053,-49,-71,1,0,0,response5disk,,3,1,7,1,0,0,rectangle,1,7,1,0,0,,,,,,,1,7,1,0,0,,0,155,155,32,1,
,,,,,,,,,,,,,FF,,,,,,,,2.732,,,,,,,,,,,,,,,,,,,,,,6101bf7dd34564c349a734ff,6103766327d2dbabdc37323d,2021-07-29_23h02.36.301,Simcolourproject_2stim_asymm_v5,2020.2.10,Win32,60,61025ae37ef11b136ea224fe,,,,,,,,,3024,51,23,1,0,0,response1disk,,6,-10,-9,1,0,0,rectangle,-10,-9,1,0,0,,,,,,,-10,-9,1,0,0,,0,156,156,151,1,
,,,,,,,,,,,,,FF,,,,,,,,1.331,,,,,,,,,,,,,,,,,,,,,,6101bf7dd34564c349a734ff,6103766327d2dbabdc37323d,2021-07-29_23h02.36.301,Simcolourproject_2stim_asymm_v5,2020.2.10,Win32,60,61025ae37ef11b136ea224fe,,,,,,,,,762,57,33,1,0,0,response1disk,,6,-16,-1,1,0,0,rectangle,-16,-1,1,0,0,,,,,,,-16,-1,1,0,0,,0,157,157,21,1,
,,,,,,,,,,,,,FF,,,,,,,,0.998,,,,,,,,,,,,,,,,,,,,,,6101bf7dd34564c349a734ff,6103766327d2dbabdc37323d,2021-07-29_23h02.36.301,Simcolourproject_2stim_asymm_v5,2020.2.10,Win32,60,61025ae37ef11b136ea224fe,,,,,,,,,2641,91,47,1,0,0,response1disk,,6,5,14,1,0,0,rectangle,5,14,1,0,0,,,,,,,5,14,1,0,0,,0,158,158,67,1,
,,,,,,,,,,,,,FF,,,,,,,,1.066,,,,,,,,,,,,,,,,,,,,,,6101bf7dd34564c349a734ff,6103766327d2dbabdc37323d,2021-07-29_23h02.36.301,Simcolourproject_2stim_asymm_v5,2020.2.10,Win32,60,61025ae37ef11b136ea224fe,,,,,,,,,604,65,37,1,0,0,response1disk,,6,-7,12,1,0,0,rectangle,-7,12,1,0,0,,,,,,,-7,12,1,0,0,,0,159,159,50,1,
,,,,,,,,,,,,,FF,,,,,,,,1.765,,,,,,,,,,,,,,,,,,,,,,6101bf7dd34564c349a734ff,6103766327d2dbabdc37323d,2021-07-29_23h02.36.301,Simcolourproject_2stim_asymm_v5,2020.2.10,Win32,60,61025ae37ef11b136ea224fe,,,,,,,,,3219,94,-31,1,0,0,response3disk,,5,30,3,1,0,0,rectangle,30,3,1,0,0,,,,,,,30,3,1,0,0,,1,0,160,32,1,
,,,,,,,,,,,,,FF,,,,,,,,1.132,,,,,,,,,,,,,,,,,,,,,,6101bf7dd34564c349a734ff,6103766327d2dbabdc37323d,2021-07-29_23h02.36.301,Simcolourproject_2stim_asymm_v5,2020.2.10,Win32,60,61025ae37ef11b136ea224fe,,,,,,,,,3278,68,-49,1,0,0,response3disk,,5,16,-3,1,0,0,rectangle,16,-3,1,0,0,,,,,,,16,-3,1,0,0,,1,1,161,46,1,
,,,,,,,,,,,,,FF,,,,,,,,31.403,,,,,,,,,,,,,,,,,,,,,,6101bf7dd34564c349a734ff,6103766327d2dbabdc37323d,2021-07-29_23h02.36.301,Simcolourproject_2stim_asymm_v5,2020.2.10,Win32,60,61025ae37ef11b136ea224fe,,,,,,,,,1838,33,-68,1,0,0,response3disk,,4,-16,0,1,0,0,rectangle,-16,0,1,0,0,,,,,,,-16,0,1,0,0,,1,2,162,135,1,
,,,,,,,,,,,,,FF,,,,,,,,1.697,,,,,,,,,,,,,,,,,,,,,,6101bf7dd34564c349a734ff,6103766327d2dbabdc37323d,2021-07-29_23h02.36.301,Simcolourproject_2stim_asymm_v5,2020.2.10,Win32,60,61025ae37ef11b136ea224fe,,,,,,,,,1350,87,36,1,0,0,response1disk,,6,13,3,1,0,0,rectangle,13,3,1,0,0,,,,,,,13,3,1,0,0,,1,3,163,47,1,
,,,,,,,,,,,,,FF,,,,,,,,1.016,,,,,,,,,,,,,,,,,,,,,,6101bf7dd34564c349a734ff,6103766327d2dbabdc37323d,2021-07-29_23h02.36.301,Simcolourproject_2stim_asymm_v5,2020.2.10,Win32,60,61025ae37ef11b136ea224fe,,,,,,,,,438,60,-38,1,0,0,response3disk,,5,-1,7,1,0,0,rectangle,-1,7,1,0,0,,,,,,,-1,7,1,0,0,,1,4,164,100,1,
,,,,,,,,,,,,,FF,,,,,,,,1.115,,,,,,,,,,,,,,,,,,,,,,6101bf7dd34564c349a734ff,6103766327d2dbabdc37323d,2021-07-29_23h02.36.301,Simcolourproject_2stim_asymm_v5,2020.2.10,Win32,60,61025ae37ef11b136ea224fe,,,,,,,,,2368,-38,-58,1,0,0,response5disk,,3,1,2,1,0,0,rectangle,1,2,1,0,0,,,,,,,1,2,1,0,0,,1,5,165,50,1,
,,,,,,,,,,,,,FF,,,,,,,,0.916,,,,,,,,,,,,,,,,,,,,,,6101bf7dd34564c349a734ff,6103766327d2dbabdc37323d,2021-07-29_23h02.36.301,Simcolourproject_2stim_asymm_v5,2020.2.10,Win32,60,61025ae37ef11b136ea224fe,,,,,,,,,1208,48,16,1,0,0,response1disk,,6,-17,-13,1,0,0,rectangle,-17,-13,1,0,0,,,,,,,-17,-13,1,0,0,,1,6,166,17,1,
,,,,,,,,,,,,,FF,,,,,,,,0.999,,,,,,,,,,,,,,,,,,,,,,6101bf7dd34564c349a734ff,6103766327d2dbabdc37323d,2021-07-29_23h02.36.301,Simcolourproject_2stim_asymm_v5,2020.2.10,Win32,60,61025ae37ef11b136ea224fe,,,,,,,,,1595,67,26,1,0,0,response1disk,,6,-4,1,1,0,0,rectangle,51,-72,1,0,0,response3disk_3,TRUE,4,4,"[51,105,1,5,25,216,206,15,168,65,129,76,262,135,98,208,128,204,196,233]",1.948,-2,-12,1,0,0,rectangle,1,7,167,89,1,
,,,,,,,,,,,,,FF,,,,,,,,1.083,,,,,,,,,,,,,,,,,,,,,,6101bf7dd34564c349a734ff,6103766327d2dbabdc37323d,2021-07-29_23h02.36.301,Simcolourproject_2stim_asymm_v5,2020.2.10,Win32,60,61025ae37ef11b136ea224fe,,,,,,,,,817,-34,-59,1,0,0,response5disk,,3,-3,7,1,0,0,rectangle,-3,7,1,0,0,,,,,,,-3,7,1,0,0,,1,8,168,144,1,
,,,,,,,,,,,,,FF,,,,,,,,1.032,,,,,,,,,,,,,,,,,,,,,,6101bf7dd34564c349a734ff,6103766327d2dbabdc37323d,2021-07-29_23h02.36.301,Simcolourproject_2stim_asymm_v5,2020.2.10,Win32,60,61025ae37ef11b136ea224fe,,,,,,,,,2453,88,34,1,0,0,response1disk,,6,-13,1,1,0,0,rectangle,-13,1,1,0,0,,,,,,,-13,1,1,0,0,,1,9,169,40,1,
,,,,,,,,,,,,,FF,,,,,,,,1.216,,,,,,,,,,,,,,,,,,,,,,6101bf7dd34564c349a734ff,6103766327d2dbabdc37323d,2021-07-29_23h02.36.301,Simcolourproject_2stim_asymm_v5,2020.2.10,Win32,60,61025ae37ef11b136ea224fe,,,,,,,,,1146,-24,-53,1,0,0,response5disk,,3,5,-10,1,0,0,rectangle,5,-10,1,0,0,,,,,,,5,-10,1,0,0,,1,10,170,19,1,
,,,,,,,,,,,,,FF,,,,,,,,1.25,,,,,,,,,,,,,,,,,,,,,,6101bf7dd34564c349a734ff,6103766327d2dbabdc37323d,2021-07-29_23h02.36.301,Simcolourproject_2stim_asymm_v5,2020.2.10,Win32,60,61025ae37ef11b136ea224fe,,,,,,,,,2078,107,46,1,0,0,response1disk,,6,-20,3,1,0,0,rectangle,-20,3,1,0,0,,,,,,,-20,3,1,0,0,,1,11,171,70,1,
,,,,,,,,,,,,,FF,,,,,,,,2.347,,,,,,,,,,,,,,,,,,,,,,6101bf7dd34564c349a734ff,6103766327d2dbabdc37323d,2021-07-29_23h02.36.301,Simcolourproject_2stim_asymm_v5,2020.2.10,Win32,60,61025ae37ef11b136ea224fe,,,,,,,,,1084,87,39,1,0,0,response1disk,,6,10,9,1,0,0,rectangle,10,9,1,0,0,,,,,,,10,9,1,0,0,,1,12,172,80,1,
,,,,,,,,,,,,,FF,,,,,,,,1.382,,,,,,,,,,,,,,,,,,,,,,6101bf7dd34564c349a734ff,6103766327d2dbabdc37323d,2021-07-29_23h02.36.301,Simcolourproject_2stim_asymm_v5,2020.2.10,Win32,60,61025ae37ef11b136ea224fe,,,,,,,,,2908,77,-40,1,0,0,response3disk,,5,15,-3,1,0,0,rectangle,15,-3,1,0,0,,,,,,,15,-3,1,0,0,,1,13,173,93,1,
,,,,,,,,,,,,,FF,,,,,,,,1.564,,,,,,,,,,,,,,,,,,,,,,6101bf7dd34564c349a734ff,6103766327d2dbabdc37323d,2021-07-29_23h02.36.301,Simcolourproject_2stim_asymm_v5,2020.2.10,Win32,60,61025ae37ef11b136ea224fe,,,,,,,,,2750,104,40,1,0,0,response1disk,,6,-3,-10,1,0,0,rectangle,-3,-10,1,0,0,,,,,,,-3,-10,1,0,0,,1,14,174,95,1,
,,,,,,,,,,,,,FF,,,,,,,,2.548,,,,,,,,,,,,,,,,,,,,,,6101bf7dd34564c349a734ff,6103766327d2dbabdc37323d,2021-07-29_23h02.36.301,Simcolourproject_2stim_asymm_v5,2020.2.10,Win32,60,61025ae37ef11b136ea224fe,,,,,,,,,1232,-34,-74,1,0,0,response5disk,,3,-16,-9,1,0,0,rectangle,-16,-9,1,0,0,,,,,,,-16,-9,1,0,0,,1,15,175,82,1,
,,,,,,,,,,,,,FF,,,,,,,,1.083,,,,,,,,,,,,,,,,,,,,,,6101bf7dd34564c349a734ff,6103766327d2dbabdc37323d,2021-07-29_23h02.36.301,Simcolourproject_2stim_asymm_v5,2020.2.10,Win32,60,61025ae37ef11b136ea224fe,,,,,,,,,871,-29,-46,1,0,0,response5disk,,3,-17,10,1,0,0,rectangle,-17,10,1,0,0,,,,,,,-17,10,1,0,0,,1,16,176,77,1,
,,,,,,,,,,,,,FF,,,,,,,,0.989,,,,,,,,,,,,,,,,,,,,,,6101bf7dd34564c349a734ff,6103766327d2dbabdc37323d,2021-07-29_23h02.36.301,Simcolourproject_2stim_asymm_v5,2020.2.10,Win32,60,61025ae37ef11b136ea224fe,,,,,,,,,1686,-38,-68,1,0,0,response5disk,,3,-13,-3,1,0,0,rectangle,-13,-3,1,0,0,,,,,,,-13,-3,1,0,0,,1,17,177,72,1,
,,,,,,,,,,,,,FF,,,,,,,,1,,,,,,,,,,,,,,,,,,,,,,6101bf7dd34564c349a734ff,6103766327d2dbabdc37323d,2021-07-29_23h02.36.301,Simcolourproject_2stim_asymm_v5,2020.2.10,Win32,60,61025ae37ef11b136ea224fe,,,,,,,,,1113,76,42,1,0,0,response1disk,,6,0,2,1,0,0,rectangle,0,2,1,0,0,,,,,,,0,2,1,0,0,,1,18,178,157,1,
,,,,,,,,,,,,,FF,,,,,,,,1.048,,,,,,,,,,,,,,,,,,,,,,6101bf7dd34564c349a734ff,6103766327d2dbabdc37323d,2021-07-29_23h02.36.301,Simcolourproject_2stim_asymm_v5,2020.2.10,Win32,60,61025ae37ef11b136ea224fe,,,,,,,,,1486,87,47,1,0,0,response1disk,,6,12,-5,1,0,0,rectangle,12,-5,1,0,0,,,,,,,12,-5,1,0,0,,1,19,179,78,1,
,,,,,,,,,,,,,FF,,,,,,,,1.132,,,,,,,,,,,,,,,,,,,,,,6101bf7dd34564c349a734ff,6103766327d2dbabdc37323d,2021-07-29_23h02.36.301,Simcolourproject_2stim_asymm_v5,2020.2.10,Win32,60,61025ae37ef11b136ea224fe,,,,,,,,,2800,78,-31,1,0,0,response3disk,,5,0,5,1,0,0,rectangle,0,5,1,0,0,,,,,,,0,5,1,0,0,,1,20,180,79,1,
,,,,,,,,,,,,,FF,,,,,,,,1.648,,,,,,,,,,,,,,,,,,,,,,6101bf7dd34564c349a734ff,6103766327d2dbabdc37323d,2021-07-29_23h02.36.301,Simcolourproject_2stim_asymm_v5,2020.2.10,Win32,60,61025ae37ef11b136ea224fe,,,,,,,,,3007,42,-65,1,0,0,response3disk,,4,-12,-4,1,0,0,rectangle,-12,-4,1,0,0,,,,,,,-12,-4,1,0,0,,1,21,181,4,1,
,,,,,,,,,,,,,FF,,,,,,,,0.916,,,,,,,,,,,,,,,,,,,,,,6101bf7dd34564c349a734ff,6103766327d2dbabdc37323d,2021-07-29_23h02.36.301,Simcolourproject_2stim_asymm_v5,2020.2.10,Win32,60,61025ae37ef11b136ea224fe,,,,,,,,,2638,81,53,1,0,0,response1disk,,6,-10,3,1,0,0,rectangle,-10,3,1,0,0,,,,,,,-10,3,1,0,0,,1,22,182,75,1,
,,,,,,,,,,,,,FF,,,,,,,,1.999,,,,,,,,,,,,,,,,,,,,,,6101bf7dd34564c349a734ff,6103766327d2dbabdc37323d,2021-07-29_23h02.36.301,Simcolourproject_2stim_asymm_v5,2020.2.10,Win32,60,61025ae37ef11b136ea224fe,,,,,,,,,744,-34,-51,1,0,0,response5disk,,3,-5,10,1,0,0,rectangle,-5,10,1,0,0,,,,,,,-5,10,1,0,0,,1,23,183,3,1,
,,,,,,,,,,,,,FF,,,,,,,,0.849,,,,,,,,,,,,,,,,,,,,,,6101bf7dd34564c349a734ff,6103766327d2dbabdc37323d,2021-07-29_23h02.36.301,Simcolourproject_2stim_asymm_v5,2020.2.10,Win32,60,61025ae37ef11b136ea224fe,,,,,,,,,3020,81,51,1,0,0,response1disk,,6,-11,3,1,0,0,rectangle,-11,3,1,0,0,,,,,,,-11,3,1,0,0,,1,24,184,115,1,
,,,,,,,,,,,,,FF,,,,,,,,0.816,,,,,,,,,,,,,,,,,,,,,,6101bf7dd34564c349a734ff,6103766327d2dbabdc37323d,2021-07-29_23h02.36.301,Simcolourproject_2stim_asymm_v5,2020.2.10,Win32,60,61025ae37ef11b136ea224fe,,,,,,,,,501,71,37,1,0,0,response1disk,,6,-26,-4,1,0,0,rectangle,-26,-4,1,0,0,,,,,,,-26,-4,1,0,0,,1,25,185,41,1,
,,,,,,,,,,,,,FF,,,,,,,,2.881,,,,,,,,,,,,,,,,,,,,,,6101bf7dd34564c349a734ff,6103766327d2dbabdc37323d,2021-07-29_23h02.36.301,Simcolourproject_2stim_asymm_v5,2020.2.10,Win32,60,61025ae37ef11b136ea224fe,,,,,,,,,4356,-42,64,1,0,0,response7disk,,0,-11,-4,1,0,0,rectangle,-11,-4,1,0,0,,,,,,,-11,-4,1,0,0,,1,26,186,150,1,
,,,,,,,,,,,,,FF,,,,,,,,1.382,,,,,,,,,,,,,,,,,,,,,,6101bf7dd34564c349a734ff,6103766327d2dbabdc37323d,2021-07-29_23h02.36.301,Simcolourproject_2stim_asymm_v5,2020.2.10,Win32,60,61025ae37ef11b136ea224fe,,,,,,,,,2145,108,56,1,0,0,response1disk,,6,-4,5,1,0,0,rectangle,-4,5,1,0,0,,,,,,,-4,5,1,0,0,,1,27,187,99,1,
,,,,,,,,,,,,,FF,,,,,,,,1.183,,,,,,,,,,,,,,,,,,,,,,6101bf7dd34564c349a734ff,6103766327d2dbabdc37323d,2021-07-29_23h02.36.301,Simcolourproject_2stim_asymm_v5,2020.2.10,Win32,60,61025ae37ef11b136ea224fe,,,,,,,,,2567,121,50,1,0,0,response1disk,,6,4,11,1,0,0,rectangle,4,11,1,0,0,,,,,,,4,11,1,0,0,,1,28,188,149,1,
,,,,,,,,,,,,,FF,,,,,,,,1.215,,,,,,,,,,,,,,,,,,,,,,6101bf7dd34564c349a734ff,6103766327d2dbabdc37323d,2021-07-29_23h02.36.301,Simcolourproject_2stim_asymm_v5,2020.2.10,Win32,60,61025ae37ef11b136ea224fe,,,,,,,,,1377,-20,-56,1,0,0,response5disk,,3,-21,-9,1,0,0,rectangle,-21,-9,1,0,0,,,,,,,-21,-9,1,0,0,,1,29,189,64,1,
,,,,,,,,,,,,,FF,,,,,,,,1.497,,,,,,,,,,,,,,,,,,,,,,6101bf7dd34564c349a734ff,6103766327d2dbabdc37323d,2021-07-29_23h02.36.301,Simcolourproject_2stim_asymm_v5,2020.2.10,Win32,60,61025ae37ef11b136ea224fe,,,,,,,,,94,-81,46,1,0,0,response7disk,,1,-32,5,1,0,0,rectangle,-32,5,1,0,0,,,,,,,-32,5,1,0,0,,1,30,190,103,1,
,,,,,,,,,,,,,FF,,,,,,,,1.026,,,,,,,,,,,,,,,,,,,,,,6101bf7dd34564c349a734ff,6103766327d2dbabdc37323d,2021-07-29_23h02.36.301,Simcolourproject_2stim_asymm_v5,2020.2.10,Win32,60,61025ae37ef11b136ea224fe,,,,,,,,,1106,88,53,1,0,0,response1disk,,6,1,3,1,0,0,rectangle,1,3,1,0,0,,,,,,,1,3,1,0,0,,1,31,191,121,1,
,,,,,,,,,,,,,FF,,,,,,,,1.065,,,,,,,,,,,,,,,,,,,,,,6101bf7dd34564c349a734ff,6103766327d2dbabdc37323d,2021-07-29_23h02.36.301,Simcolourproject_2stim_asymm_v5,2020.2.10,Win32,60,61025ae37ef11b136ea224fe,,,,,,,,,2831,-47,68,1,0,0,response7disk,,0,-24,9,1,0,0,rectangle,-24,9,1,0,0,,,,,,,-24,9,1,0,0,,1,32,192,2,1,
,,,,,,,,,,,,,FF,,,,,,,,1.249,,,,,,,,,,,,,,,,,,,,,,6101bf7dd34564c349a734ff,6103766327d2dbabdc37323d,2021-07-29_23h02.36.301,Simcolourproject_2stim_asymm_v5,2020.2.10,Win32,60,61025ae37ef11b136ea224fe,,,,,,,,,3495,-38,-46,1,0,0,response5disk,,3,-15,7,1,0,0,rectangle,-15,7,1,0,0,,,,,,,-15,7,1,0,0,,1,33,193,119,1,
,,,,,,,,,,,,,FF,,,,,,,,0.882,,,,,,,,,,,,,,,,,,,,,,6101bf7dd34564c349a734ff,6103766327d2dbabdc37323d,2021-07-29_23h02.36.301,Simcolourproject_2stim_asymm_v5,2020.2.10,Win32,60,61025ae37ef11b136ea224fe,,,,,,,,,1116,77,45,1,0,0,response1disk,,6,-22,-8,1,0,0,rectangle,-22,-8,1,0,0,,,,,,,-22,-8,1,0,0,,1,34,194,53,1,
,,,,,,,,,,,,,FF,,,,,,,,0.899,,,,,,,,,,,,,,,,,,,,,,6101bf7dd34564c349a734ff,6103766327d2dbabdc37323d,2021-07-29_23h02.36.301,Simcolourproject_2stim_asymm_v5,2020.2.10,Win32,60,61025ae37ef11b136ea224fe,,,,,,,,,140,92,41,1,0,0,response1disk,,6,2,9,1,0,0,rectangle,-31,80,1,0,0,response7disk_3,TRUE,0,0,"[51,105,1,5,25,216,206,15,168,65,129,76,262,135,98,208,128,204,196,233]",1.699,-15,4,1,0,0,rectangle,1,35,195,8,1,
,,,,,,,,,,,,,FF,,,,,,,,1.331,,,,,,,,,,,,,,,,,,,,,,6101bf7dd34564c349a734ff,6103766327d2dbabdc37323d,2021-07-29_23h02.36.301,Simcolourproject_2stim_asymm_v5,2020.2.10,Win32,60,61025ae37ef11b136ea224fe,,,,,,,,,3041,72,20,1,0,0,response1disk,,6,-6,2,1,0,0,rectangle,-6,2,1,0,0,,,,,,,-6,2,1,0,0,,1,36,196,133,1,
,,,,,,,,,,,,,FF,,,,,,,,1.216,,,,,,,,,,,,,,,,,,,,,,6101bf7dd34564c349a734ff,6103766327d2dbabdc37323d,2021-07-29_23h02.36.301,Simcolourproject_2stim_asymm_v5,2020.2.10,Win32,60,61025ae37ef11b136ea224fe,,,,,,,,,2735,-30,-58,1,0,0,response5disk,,3,-8,-2,1,0,0,rectangle,-8,-2,1,0,0,,,,,,,-8,-2,1,0,0,,1,37,197,134,1,
,,,,,,,,,,,,,FF,,,,,,,,1.432,,,,,,,,,,,,,,,,,,,,,,6101bf7dd34564c349a734ff,6103766327d2dbabdc37323d,2021-07-29_23h02.36.301,Simcolourproject_2stim_asymm_v5,2020.2.10,Win32,60,61025ae37ef11b136ea224fe,,,,,,,,,2775,-62,75,1,0,0,response7disk,,0,-16,15,1,0,0,rectangle,-16,15,1,0,0,,,,,,,-16,15,1,0,0,,1,38,198,62,1,
,,,,,,,,,,,,,FF,,,,,,,,2.064,,,,,,,,,,,,,,,,,,,,,,6101bf7dd34564c349a734ff,6103766327d2dbabdc37323d,2021-07-29_23h02.36.301,Simcolourproject_2stim_asymm_v5,2020.2.10,Win32,60,61025ae37ef11b136ea224fe,,,,,,,,,2186,78,-62,1,0,0,response3disk,,5,23,4,1,0,0,rectangle,23,4,1,0,0,,,,,,,23,4,1,0,0,,1,39,199,30,1,
,,,,,,,,,,,,,FF,,,,,,,,1.249,,,,,,,,,,,,,,,,,,,,,,6101bf7dd34564c349a734ff,6103766327d2dbabdc37323d,2021-07-29_23h02.36.301,Simcolourproject_2stim_asymm_v5,2020.2.10,Win32,60,61025ae37ef11b136ea224fe,,,,,,,,,1927,45,-25,1,0,0,response3disk,,5,-13,6,1,0,0,rectangle,-13,6,1,0,0,,,,,,,-13,6,1,0,0,,1,40,200,155,1,
,,,,,,,,,,,,,FF,,,,,,,,0.999,,,,,,,,,,,,,,,,,,,,,,6101bf7dd34564c349a734ff,6103766327d2dbabdc37323d,2021-07-29_23h02.36.301,Simcolourproject_2stim_asymm_v5,2020.2.10,Win32,60,61025ae37ef11b136ea224fe,,,,,,,,,709,80,-49,1,0,0,response3disk,,5,11,10,1,0,0,rectangle,11,10,1,0,0,,,,,,,11,10,1,0,0,,1,41,201,131,1,
,,,,,,,,,,,,,FF,,,,,,,,1.132,,,,,,,,,,,,,,,,,,,,,,6101bf7dd34564c349a734ff,6103766327d2dbabdc37323d,2021-07-29_23h02.36.301,Simcolourproject_2stim_asymm_v5,2020.2.10,Win32,60,61025ae37ef11b136ea224fe,,,,,,,,,905,35,-59,1,0,0,response3disk,,4,-9,12,1,0,0,rectangle,-9,12,1,0,0,,,,,,,-9,12,1,0,0,,1,42,202,11,1,
,,,,,,,,,,,,,FF,,,,,,,,1.199,,,,,,,,,,,,,,,,,,,,,,6101bf7dd34564c349a734ff,6103766327d2dbabdc37323d,2021-07-29_23h02.36.301,Simcolourproject_2stim_asymm_v5,2020.2.10,Win32,60,61025ae37ef11b136ea224fe,,,,,,,,,1132,35,-57,1,0,0,response3disk,,4,-7,9,1,0,0,rectangle,-103,-36,1,0,0,response5disk_3,TRUE,2,2,"[51,105,1,5,25,216,206,15,168,65,129,76,262,135,98,208,128,204,196,233]",2.287,-33,-4,1,0,0,rectangle,1,43,203,43,1,
,,,,,,,,,,,,,FF,,,,,,,,2.049,,,,,,,,,,,,,,,,,,,,,,6101bf7dd34564c349a734ff,6103766327d2dbabdc37323d,2021-07-29_23h02.36.301,Simcolourproject_2stim_asymm_v5,2020.2.10,Win32,60,61025ae37ef11b136ea224fe,,,,,,,,,1200,64,-32,1,0,0,response3disk,,5,21,2,1,0,0,rectangle,21,2,1,0,0,,,,,,,21,2,1,0,0,,1,44,204,102,1,
,,,,,,,,,,,,,FF,,,,,,,,1.282,,,,,,,,,,,,,,,,,,,,,,6101bf7dd34564c349a734ff,6103766327d2dbabdc37323d,2021-07-29_23h02.36.301,Simcolourproject_2stim_asymm_v5,2020.2.10,Win32,60,61025ae37ef11b136ea224fe,,,,,,,,,4036,24,-48,1,0,0,response3disk,,4,-3,-2,1,0,0,rectangle,-82,57,1,0,0,response7disk_3,TRUE,1,1,"[51,105,1,5,25,216,206,15,168,65,129,76,262,135,98,208,128,204,196,233]",1.566,3,7,1,0,0,rectangle,1,45,205,34,1,
,,,,,,,,,,,,,FF,,,,,,,,1.449,,,,,,,,,,,,,,,,,,,,,,6101bf7dd34564c349a734ff,6103766327d2dbabdc37323d,2021-07-29_23h02.36.301,Simcolourproject_2stim_asymm_v5,2020.2.10,Win32,60,61025ae37ef11b136ea224fe,,,,,,,,,4232,72,61,1,0,0,response1disk,,6,-13,15,1,0,0,rectangle,-13,15,1,0,0,,,,,,,-13,15,1,0,0,,1,46,206,96,1,
,,,,,,,,,,,,,FF,,,,,,,,1.599,,,,,,,,,,,,,,,,,,,,,,6101bf7dd34564c349a734ff,6103766327d2dbabdc37323d,2021-07-29_23h02.36.301,Simcolourproject_2stim_asymm_v5,2020.2.10,Win32,60,61025ae37ef11b136ea224fe,,,,,,,,,1598,-35,-67,1,0,0,response5disk,,3,-15,-1,1,0,0,rectangle,73,42,1,0,0,response1disk_3,TRUE,6,6,"[51,105,1,5,25,216,206,15,168,65,129,76,262,135,98,208,128,204,196,233]",1.753,-2,0,1,0,0,rectangle,1,47,207,113,1,
,,,,,,,,,,,,,FF,,,,,,,,1.633,,,,,,,,,,,,,,,,,,,,,,6101bf7dd34564c349a734ff,6103766327d2dbabdc37323d,2021-07-29_23h02.36.301,Simcolourproject_2stim_asymm_v5,2020.2.10,Win32,60,61025ae37ef11b136ea224fe,,,,,,,,,2057,58,24,1,0,0,response1disk,,6,7,12,1,0,0,rectangle,7,12,1,0,0,,,,,,,7,12,1,0,0,,1,48,208,67,1,
,,,,,,,,,,,,,FF,,,,,,,,0.933,,,,,,,,,,,,,,,,,,,,,,6101bf7dd34564c349a734ff,6103766327d2dbabdc37323d,2021-07-29_23h02.36.301,Simcolourproject_2stim_asymm_v5,2020.2.10,Win32,60,61025ae37ef11b136ea224fe,,,,,,,,,3363,78,44,1,0,0,response1disk,,6,-11,-3,1,0,0,rectangle,-11,-3,1,0,0,,,,,,,-11,-3,1,0,0,,1,49,209,36,1,
,,,,,,,,,,,,,FF,,,,,,,,1.066,,,,,,,,,,,,,,,,,,,,,,6101bf7dd34564c349a734ff,6103766327d2dbabdc37323d,2021-07-29_23h02.36.301,Simcolourproject_2stim_asymm_v5,2020.2.10,Win32,60,61025ae37ef11b136ea224fe,,,,,,,,,672,46,-26,1,0,0,response3disk,,5,1,14,1,0,0,rectangle,1,14,1,0,0,,,,,,,1,14,1,0,0,,1,50,210,154,1,
,,,,,,,,,,,,,FF,,,,,,,,1.565,,,,,,,,,,,,,,,,,,,,,,6101bf7dd34564c349a734ff,6103766327d2dbabdc37323d,2021-07-29_23h02.36.301,Simcolourproject_2stim_asymm_v5,2020.2.10,Win32,60,61025ae37ef11b136ea224fe,,,,,,,,,906,66,-24,1,0,0,response3disk,,5,23,-1,1,0,0,rectangle,23,-1,1,0,0,,,,,,,23,-1,1,0,0,,1,51,211,38,1,
,,,,,,,,,,,,,FF,,,,,,,,1.882,,,,,,,,,,,,,,,,,,,,,,6101bf7dd34564c349a734ff,6103766327d2dbabdc37323d,2021-07-29_23h02.36.301,Simcolourproject_2stim_asymm_v5,2020.2.10,Win32,60,61025ae37ef11b136ea224fe,,,,,,,,,3005,30,-55,1,0,0,response3disk,,4,5,-4,1,0,0,rectangle,5,-4,1,0,0,,,,,,,5,-4,1,0,0,,1,52,212,145,1,
,,,,,,,,,,,,,FF,,,,,,,,0.999,,,,,,,,,,,,,,,,,,,,,,6101bf7dd34564c349a734ff,6103766327d2dbabdc37323d,2021-07-29_23h02.36.301,Simcolourproject_2stim_asymm_v5,2020.2.10,Win32,60,61025ae37ef11b136ea224fe,,,,,,,,,1204,30,-47,1,0,0,response3disk,,4,4,-3,1,0,0,rectangle,4,-3,1,0,0,,,,,,,4,-3,1,0,0,,1,53,213,1,1,
,,,,,,,,,,,,,FF,,,,,,,,1.315,,,,,,,,,,,,,,,,,,,,,,6101bf7dd34564c349a734ff,6103766327d2dbabdc37323d,2021-07-29_23h02.36.301,Simcolourproject_2stim_asymm_v5,2020.2.10,Win32,60,61025ae37ef11b136ea224fe,,,,,,,,,1848,109,31,1,0,0,response1disk,,6,16,-7,1,0,0,rectangle,16,-7,1,0,0,,,,,,,16,-7,1,0,0,,1,54,214,122,1,
,,,,,,,,,,,,,FF,,,,,,,,1.083,,,,,,,,,,,,,,,,,,,,,,6101bf7dd34564c349a734ff,6103766327d2dbabdc37323d,2021-07-29_23h02.36.301,Simcolourproject_2stim_asymm_v5,2020.2.10,Win32,60,61025ae37ef11b136ea224fe,,,,,,,,,1683,20,-60,1,0,0,response3disk,,4,-3,-5,1,0,0,rectangle,77,41,1,0,0,response1disk_3,TRUE,6,6,"[51,105,1,5,25,216,206,15,168,65,129,76,262,135,98,208,128,204,196,233]",1.514,3,-4,1,0,0,rectangle,1,55,215,158,1,
,,,,,,,,,,,,,FF,,,,,,,,1.682,,,,,,,,,,,,,,,,,,,,,,6101bf7dd34564c349a734ff,6103766327d2dbabdc37323d,2021-07-29_23h02.36.301,Simcolourproject_2stim_asymm_v5,2020.2.10,Win32,60,61025ae37ef11b136ea224fe,,,,,,,,,2289,-38,-84,1,0,0,response5disk,,3,11,5,1,0,0,rectangle,11,5,1,0,0,,,,,,,11,5,1,0,0,,1,56,216,26,1,
,,,,,,,,,,,,,FF,,,,,,,,1.715,,,,,,,,,,,,,,,,,,,,,,6101bf7dd34564c349a734ff,6103766327d2dbabdc37323d,2021-07-29_23h02.36.301,Simcolourproject_2stim_asymm_v5,2020.2.10,Win32,60,61025ae37ef11b136ea224fe,,,,,,,,,3310,102,-21,1,0,0,response3disk,,5,-25,11,1,0,0,rectangle,-25,11,1,0,0,,,,,,,-25,11,1,0,0,,1,57,217,29,1,
,,,,,,,,,,,,,FF,,,,,,,,1.082,,,,,,,,,,,,,,,,,,,,,,6101bf7dd34564c349a734ff,6103766327d2dbabdc37323d,2021-07-29_23h02.36.301,Simcolourproject_2stim_asymm_v5,2020.2.10,Win32,60,61025ae37ef11b136ea224fe,,,,,,,,,135,70,-33,1,0,0,response3disk,,5,11,13,1,0,0,rectangle,11,13,1,0,0,,,,,,,11,13,1,0,0,,1,58,218,48,1,
,,,,,,,,,,,,,FF,,,,,,,,5.628,,,,,,,,,,,,,,,,,,,,,,6101bf7dd34564c349a734ff,6103766327d2dbabdc37323d,2021-07-29_23h02.36.301,Simcolourproject_2stim_asymm_v5,2020.2.10,Win32,60,61025ae37ef11b136ea224fe,,,,,,,,,3331,112,53,1,0,0,response1disk,,6,-16,10,1,0,0,rectangle,-16,10,1,0,0,,,,,,,-16,10,1,0,0,,1,59,219,60,1,
,,,,,,,,,,,,,FF,,,,,,,,2.513,,,,,,,,,,,,,,,,,,,,,,6101bf7dd34564c349a734ff,6103766327d2dbabdc37323d,2021-07-29_23h02.36.301,Simcolourproject_2stim_asymm_v5,2020.2.10,Win32,60,61025ae37ef11b136ea224fe,,,,,,,,,3201,-86,-35,1,0,0,response5disk,,2,-4,-4,1,0,0,rectangle,-4,-4,1,0,0,,,,,,,-4,-4,1,0,0,,1,60,220,20,1,
,,,,,,,,,,,,,FF,,,,,,,,1.782,,,,,,,,,,,,,,,,,,,,,,6101bf7dd34564c349a734ff,6103766327d2dbabdc37323d,2021-07-29_23h02.36.301,Simcolourproject_2stim_asymm_v5,2020.2.10,Win32,60,61025ae37ef11b136ea224fe,,,,,,,,,3329,28,-80,1,0,0,response3disk,,4,-7,3,1,0,0,rectangle,-7,3,1,0,0,,,,,,,-7,3,1,0,0,,1,61,221,92,1,
,,,,,,,,,,,,,FF,,,,,,,,1.865,,,,,,,,,,,,,,,,,,,,,,6101bf7dd34564c349a734ff,6103766327d2dbabdc37323d,2021-07-29_23h02.36.301,Simcolourproject_2stim_asymm_v5,2020.2.10,Win32,60,61025ae37ef11b136ea224fe,,,,,,,,,3179,105,-20,1,0,0,response3disk,,5,9,-5,1,0,0,rectangle,9,-5,1,0,0,,,,,,,9,-5,1,0,0,,1,62,222,112,1,
,,,,,,,,,,,,,FF,,,,,,,,1.183,,,,,,,,,,,,,,,,,,,,,,6101bf7dd34564c349a734ff,6103766327d2dbabdc37323d,2021-07-29_23h02.36.301,Simcolourproject_2stim_asymm_v5,2020.2.10,Win32,60,61025ae37ef11b136ea224fe,,,,,,,,,4120,-58,-43,1,0,0,response5disk,,2,-4,-2,1,0,0,rectangle,-4,-2,1,0,0,,,,,,,-4,-2,1,0,0,,1,63,223,128,1,
,,,,,,,,,,,,,FF,,,,,,,,1.748,,,,,,,,,,,,,,,,,,,,,,6101bf7dd34564c349a734ff,6103766327d2dbabdc37323d,2021-07-29_23h02.36.301,Simcolourproject_2stim_asymm_v5,2020.2.10,Win32,60,61025ae37ef11b136ea224fe,,,,,,,,,1823,-72,-26,1,0,0,response5disk,,2,-11,8,1,0,0,rectangle,-11,8,1,0,0,,,,,,,-11,8,1,0,0,,1,64,224,88,1,
,,,,,,,,,,,,,FF,,,,,,,,0.933,,,,,,,,,,,,,,,,,,,,,,6101bf7dd34564c349a734ff,6103766327d2dbabdc37323d,2021-07-29_23h02.36.301,Simcolourproject_2stim_asymm_v5,2020.2.10,Win32,60,61025ae37ef11b136ea224fe,,,,,,,,,20,113,50,1,0,0,response1disk,,6,-5,4,1,0,0,rectangle,-5,4,1,0,0,,,,,,,-5,4,1,0,0,,1,65,225,130,1,
,,,,,,,,,,,,,FF,,,,,,,,2.581,,,,,,,,,,,,,,,,,,,,,,6101bf7dd34564c349a734ff,6103766327d2dbabdc37323d,2021-07-29_23h02.36.301,Simcolourproject_2stim_asymm_v5,2020.2.10,Win32,60,61025ae37ef11b136ea224fe,,,,,,,,,3199,21,-79,1,0,0,response3disk,,4,-8,1,1,0,0,rectangle,-8,1,1,0,0,,,,,,,-8,1,1,0,0,,1,66,226,140,1,
,,,,,,,,,,,,,FF,,,,,,,,1.499,,,,,,,,,,,,,,,,,,,,,,6101bf7dd34564c349a734ff,6103766327d2dbabdc37323d,2021-07-29_23h02.36.301,Simcolourproject_2stim_asymm_v5,2020.2.10,Win32,60,61025ae37ef11b136ea224fe,,,,,,,,,3388,-87,20,1,0,0,response7disk,,1,13,-8,1,0,0,rectangle,13,-8,1,0,0,,,,,,,13,-8,1,0,0,,1,67,227,123,1,
,,,,,,,,,,,,,FF,,,,,,,,1.316,,,,,,,,,,,,,,,,,,,,,,6101bf7dd34564c349a734ff,6103766327d2dbabdc37323d,2021-07-29_23h02.36.301,Simcolourproject_2stim_asymm_v5,2020.2.10,Win32,60,61025ae37ef11b136ea224fe,,,,,,,,,2369,-30,-91,1,0,0,response5disk,,3,-1,-12,1,0,0,rectangle,-1,-12,1,0,0,,,,,,,-1,-12,1,0,0,,1,68,228,21,1,
,,,,,,,,,,,,,FF,,,,,,,,0.933,,,,,,,,,,,,,,,,,,,,,,6101bf7dd34564c349a734ff,6103766327d2dbabdc37323d,2021-07-29_23h02.36.301,Simcolourproject_2stim_asymm_v5,2020.2.10,Win32,60,61025ae37ef11b136ea224fe,,,,,,,,,2002,60,29,1,0,0,response1disk,,6,0,5,1,0,0,rectangle,0,5,1,0,0,,,,,,,0,5,1,0,0,,1,69,229,81,1,
,,,,,,,,,,,,,FF,,,,,,,,1.664,,,,,,,,,,,,,,,,,,,,,,6101bf7dd34564c349a734ff,6103766327d2dbabdc37323d,2021-07-29_23h02.36.301,Simcolourproject_2stim_asymm_v5,2020.2.10,Win32,60,61025ae37ef11b136ea224fe,,,,,,,,,2441,57,-31,1,0,0,response3disk,,5,8,-4,1,0,0,rectangle,8,-4,1,0,0,,,,,,,8,-4,1,0,0,,1,70,230,127,1,
,,,,,,,,,,,,,FF,,,,,,,,1.382,,,,,,,,,,,,,,,,,,,,,,6101bf7dd34564c349a734ff,6103766327d2dbabdc37323d,2021-07-29_23h02.36.301,Simcolourproject_2stim_asymm_v5,2020.2.10,Win32,60,61025ae37ef11b136ea224fe,,,,,,,,,3761,109,43,1,0,0,response1disk,,6,9,8,1,0,0,rectangle,9,8,1,0,0,,,,,,,9,8,1,0,0,,1,71,231,14,1,
,,,,,,,,,,,,,FF,,,,,,,,1.782,,,,,,,,,,,,,,,,,,,,,,6101bf7dd34564c349a734ff,6103766327d2dbabdc37323d,2021-07-29_23h02.36.301,Simcolourproject_2stim_asymm_v5,2020.2.10,Win32,60,61025ae37ef11b136ea224fe,,,,,,,,,2660,-41,94,1,0,0,response7disk,,0,-8,-3,1,0,0,rectangle,31,73,1,0,0,response1disk_3,TRUE,7,7,"[51,105,1,5,25,216,206,15,168,65,129,76,262,135,98,208,128,204,196,233]",1.681,-13,2,1,0,0,rectangle,1,72,232,151,1,
,,,,,,,,,,,,,FF,,,,,,,,1.265,,,,,,,,,,,,,,,,,,,,,,6101bf7dd34564c349a734ff,6103766327d2dbabdc37323d,2021-07-29_23h02.36.301,Simcolourproject_2stim_asymm_v5,2020.2.10,Win32,60,61025ae37ef11b136ea224fe,,,,,,,,,718,-57,-48,1,0,0,response5disk,,2,-15,-1,1,0,0,rectangle,-15,-1,1,0,0,,,,,,,-15,-1,1,0,0,,1,73,233,117,1,
,,,,,,,,,,,,,FF,,,,,,,,2.433,,,,,,,,,,,,,,,,,,,,,,6101bf7dd34564c349a734ff,6103766327d2dbabdc37323d,2021-07-29_23h02.36.301,Simcolourproject_2stim_asymm_v5,2020.2.10,Win32,60,61025ae37ef11b136ea224fe,,,,,,,,,4052,-57,44,1,0,0,response7disk,,1,1,-4,1,0,0,rectangle,1,-4,1,0,0,,,,,,,1,-4,1,0,0,,1,74,234,147,1,
,,,,,,,,,,,,,FF,,,,,,,,1.631,,,,,,,,,,,,,,,,,,,,,,6101bf7dd34564c349a734ff,6103766327d2dbabdc37323d,2021-07-29_23h02.36.301,Simcolourproject_2stim_asymm_v5,2020.2.10,Win32,60,61025ae37ef11b136ea224fe,,,,,,,,,4339,72,22,1,0,0,response1disk,,6,-7,7,1,0,0,rectangle,-7,7,1,0,0,,,,,,,-7,7,1,0,0,,1,75,235,139,1,
,,,,,,,,,,,,,FF,,,,,,,,1.848,,,,,,,,,,,,,,,,,,,,,,6101bf7dd34564c349a734ff,6103766327d2dbabdc37323d,2021-07-29_23h02.36.301,Simcolourproject_2stim_asymm_v5,2020.2.10,Win32,60,61025ae37ef11b136ea224fe,,,,,,,,,3540,76,52,1,0,0,response1disk,,6,7,6,1,0,0,rectangle,7,6,1,0,0,,,,,,,7,6,1,0,0,,1,76,236,65,1,
,,,,,,,,,,,,,FF,,,,,,,,1.399,,,,,,,,,,,,,,,,,,,,,,6101bf7dd34564c349a734ff,6103766327d2dbabdc37323d,2021-07-29_23h02.36.301,Simcolourproject_2stim_asymm_v5,2020.2.10,Win32,60,61025ae37ef11b136ea224fe,,,,,,,,,1450,-41,-46,1,0,0,response5disk,,3,-2,8,1,0,0,rectangle,-2,8,1,0,0,,,,,,,-2,8,1,0,0,,1,77,237,63,1,
,,,,,,,,,,,,,FF,,,,,,,,1.299,,,,,,,,,,,,,,,,,,,,,,6101bf7dd34564c349a734ff,6103766327d2dbabdc37323d,2021-07-29_23h02.36.301,Simcolourproject_2stim_asymm_v5,2020.2.10,Win32,60,61025ae37ef11b136ea224fe,,,,,,,,,2802,48,-28,1,0,0,response3disk,,5,16,5,1,0,0,rectangle,16,5,1,0,0,,,,,,,16,5,1,0,0,,1,78,238,143,1,
,,,,,,,,,,,,,FF,,,,,,,,1.331,,,,,,,,,,,,,,,,,,,,,,6101bf7dd34564c349a734ff,6103766327d2dbabdc37323d,2021-07-29_23h02.36.301,Simcolourproject_2stim_asymm_v5,2020.2.10,Win32,60,61025ae37ef11b136ea224fe,,,,,,,,,487,41,-18,1,0,0,response3disk,,5,9,-3,1,0,0,rectangle,9,-3,1,0,0,,,,,,,9,-3,1,0,0,,1,79,239,120,1,
,,,,,,,,,,,,,FF,,,,,,,,1.033,,,,,,,,,,,,,,,,,,,,,,6101bf7dd34564c349a734ff,6103766327d2dbabdc37323d,2021-07-29_23h02.36.301,Simcolourproject_2stim_asymm_v5,2020.2.10,Win32,60,61025ae37ef11b136ea224fe,,,,,,,,,2494,57,-16,1,0,0,response3disk,,5,13,13,1,0,0,rectangle,13,13,1,0,0,,,,,,,13,13,1,0,0,,1,80,240,110,1,
,,,,,,,,,,,,,FF,,,,,,,,0.999,,,,,,,,,,,,,,,,,,,,,,6101bf7dd34564c349a734ff,6103766327d2dbabdc37323d,2021-07-29_23h02.36.301,Simcolourproject_2stim_asymm_v5,2020.2.10,Win32,60,61025ae37ef11b136ea224fe,,,,,,,,,2798,82,-35,1,0,0,response3disk,,5,15,1,1,0,0,rectangle,15,1,1,0,0,,,,,,,15,1,1,0,0,,1,81,241,42,1,
,,,,,,,,,,,,,FF,,,,,,,,1.299,,,,,,,,,,,,,,,,,,,,,,6101bf7dd34564c349a734ff,6103766327d2dbabdc37323d,2021-07-29_23h02.36.301,Simcolourproject_2stim_asymm_v5,2020.2.10,Win32,60,61025ae37ef11b136ea224fe,,,,,,,,,3619,60,-21,1,0,0,response3disk,,5,5,14,1,0,0,rectangle,5,14,1,0,0,,,,,,,5,14,1,0,0,,1,82,242,59,1,
,,,,,,,,,,,,,FF,,,,,,,,1.232,,,,,,,,,,,,,,,,,,,,,,6101bf7dd34564c349a734ff,6103766327d2dbabdc37323d,2021-07-29_23h02.36.301,Simcolourproject_2stim_asymm_v5,2020.2.10,Win32,60,61025ae37ef11b136ea224fe,,,,,,,,,3553,-34,-47,1,0,0,response5disk,,3,-3,2,1,0,0,rectangle,-3,2,1,0,0,,,,,,,-3,2,1,0,0,,1,83,243,5,1,
,,,,,,,,,,,,,FF,,,,,,,,1.049,,,,,,,,,,,,,,,,,,,,,,6101bf7dd34564c349a734ff,6103766327d2dbabdc37323d,2021-07-29_23h02.36.301,Simcolourproject_2stim_asymm_v5,2020.2.10,Win32,60,61025ae37ef11b136ea224fe,,,,,,,,,2601,-55,90,1,0,0,response7disk,,0,-5,10,1,0,0,rectangle,-5,10,1,0,0,,,,,,,-5,10,1,0,0,,1,84,244,39,1,
,,,,,,,,,,,,,FF,,,,,,,,1.183,,,,,,,,,,,,,,,,,,,,,,6101bf7dd34564c349a734ff,6103766327d2dbabdc37323d,2021-07-29_23h02.36.301,Simcolourproject_2stim_asymm_v5,2020.2.10,Win32,60,61025ae37ef11b136ea224fe,,,,,,,,,2107,22,-38,1,0,0,response3disk,,4,-7,8,1,0,0,rectangle,-7,8,1,0,0,,,,,,,-7,8,1,0,0,,1,85,245,111,1,
,,,,,,,,,,,,,FF,,,,,,,,1.215,,,,,,,,,,,,,,,,,,,,,,6101bf7dd34564c349a734ff,6103766327d2dbabdc37323d,2021-07-29_23h02.36.301,Simcolourproject_2stim_asymm_v5,2020.2.10,Win32,60,61025ae37ef11b136ea224fe,,,,,,,,,2383,25,-53,1,0,0,response3disk,,4,3,5,1,0,0,rectangle,3,5,1,0,0,,,,,,,3,5,1,0,0,,1,86,246,91,1,
,,,,,,,,,,,,,FF,,,,,,,,1.049,,,,,,,,,,,,,,,,,,,,,,6101bf7dd34564c349a734ff,6103766327d2dbabdc37323d,2021-07-29_23h02.36.301,Simcolourproject_2stim_asymm_v5,2020.2.10,Win32,60,61025ae37ef11b136ea224fe,,,,,,,,,845,83,-36,1,0,0,response3disk,,5,19,5,1,0,0,rectangle,19,5,1,0,0,,,,,,,19,5,1,0,0,,1,87,247,66,1,
,,,,,,,,,,,,,FF,,,,,,,,1.066,,,,,,,,,,,,,,,,,,,,,,6101bf7dd34564c349a734ff,6103766327d2dbabdc37323d,2021-07-29_23h02.36.301,Simcolourproject_2stim_asymm_v5,2020.2.10,Win32,60,61025ae37ef11b136ea224fe,,,,,,,,,2118,87,24,1,0,0,response1disk,,6,14,-2,1,0,0,rectangle,14,-2,1,0,0,,,,,,,14,-2,1,0,0,,1,88,248,61,1,
,,,,,,,,,,,,,FF,,,,,,,,1.648,,,,,,,,,,,,,,,,,,,,,,6101bf7dd34564c349a734ff,6103766327d2dbabdc37323d,2021-07-29_23h02.36.301,Simcolourproject_2stim_asymm_v5,2020.2.10,Win32,60,61025ae37ef11b136ea224fe,,,,,,,,,965,94,29,1,0,0,response1disk,,6,1,4,1,0,0,rectangle,1,4,1,0,0,,,,,,,1,4,1,0,0,,1,89,249,101,1,
,,,,,,,,,,,,,FF,,,,,,,,1.148,,,,,,,,,,,,,,,,,,,,,,6101bf7dd34564c349a734ff,6103766327d2dbabdc37323d,2021-07-29_23h02.36.301,Simcolourproject_2stim_asymm_v5,2020.2.10,Win32,60,61025ae37ef11b136ea224fe,,,,,,,,,444,52,-31,1,0,0,response3disk,,5,8,13,1,0,0,rectangle,8,13,1,0,0,,,,,,,8,13,1,0,0,,1,90,250,153,1,
,,,,,,,,,,,,,FF,,,,,,,,1.132,,,,,,,,,,,,,,,,,,,,,,6101bf7dd34564c349a734ff,6103766327d2dbabdc37323d,2021-07-29_23h02.36.301,Simcolourproject_2stim_asymm_v5,2020.2.10,Win32,60,61025ae37ef11b136ea224fe,,,,,,,,,3816,41,-15,1,0,0,response3disk,,5,-5,0,1,0,0,rectangle,-5,0,1,0,0,,,,,,,-5,0,1,0,0,,1,91,251,142,1,
,,,,,,,,,,,,,FF,,,,,,,,1.084,,,,,,,,,,,,,,,,,,,,,,6101bf7dd34564c349a734ff,6103766327d2dbabdc37323d,2021-07-29_23h02.36.301,Simcolourproject_2stim_asymm_v5,2020.2.10,Win32,60,61025ae37ef11b136ea224fe,,,,,,,,,1405,37,-27,1,0,0,response3disk,,5,-1,8,1,0,0,rectangle,-1,8,1,0,0,,,,,,,-1,8,1,0,0,,1,92,252,56,1,
,,,,,,,,,,,,,FF,,,,,,,,0.933,,,,,,,,,,,,,,,,,,,,,,6101bf7dd34564c349a734ff,6103766327d2dbabdc37323d,2021-07-29_23h02.36.301,Simcolourproject_2stim_asymm_v5,2020.2.10,Win32,60,61025ae37ef11b136ea224fe,,,,,,,,,3668,-37,48,1,0,0,response7disk,,0,-10,3,1,0,0,rectangle,-10,3,1,0,0,,,,,,,-10,3,1,0,0,,1,93,253,28,1,
,,,,,,,,,,,,,FF,,,,,,,,1.2,,,,,,,,,,,,,,,,,,,,,,6101bf7dd34564c349a734ff,6103766327d2dbabdc37323d,2021-07-29_23h02.36.301,Simcolourproject_2stim_asymm_v5,2020.2.10,Win32,60,61025ae37ef11b136ea224fe,,,,,,,,,90,83,28,1,0,0,response1disk,,6,0,14,1,0,0,rectangle,0,14,1,0,0,,,,,,,0,14,1,0,0,,1,94,254,44,1,
,,,,,,,,,,,,,FF,,,,,,,,1.166,,,,,,,,,,,,,,,,,,,,,,6101bf7dd34564c349a734ff,6103766327d2dbabdc37323d,2021-07-29_23h02.36.301,Simcolourproject_2stim_asymm_v5,2020.2.10,Win32,60,61025ae37ef11b136ea224fe,,,,,,,,,521,52,44,1,0,0,response1disk,,6,20,13,1,0,0,rectangle,20,13,1,0,0,,,,,,,20,13,1,0,0,,1,95,255,90,1,
,,,,,,,,,,,,,FF,,,,,,,,1.199,,,,,,,,,,,,,,,,,,,,,,6101bf7dd34564c349a734ff,6103766327d2dbabdc37323d,2021-07-29_23h02.36.301,Simcolourproject_2stim_asymm_v5,2020.2.10,Win32,60,61025ae37ef11b136ea224fe,,,,,,,,,277,42,-29,1,0,0,response3disk,,5,9,1,1,0,0,rectangle,9,1,1,0,0,,,,,,,9,1,1,0,0,,1,96,256,9,1,
,,,,,,,,,,,,,FF,,,,,,,,1.033,,,,,,,,,,,,,,,,,,,,,,6101bf7dd34564c349a734ff,6103766327d2dbabdc37323d,2021-07-29_23h02.36.301,Simcolourproject_2stim_asymm_v5,2020.2.10,Win32,60,61025ae37ef11b136ea224fe,,,,,,,,,1561,82,27,1,0,0,response1disk,,6,16,-3,1,0,0,rectangle,16,-3,1,0,0,,,,,,,16,-3,1,0,0,,1,97,257,148,1,
,,,,,,,,,,,,,FF,,,,,,,,1.881,,,,,,,,,,,,,,,,,,,,,,6101bf7dd34564c349a734ff,6103766327d2dbabdc37323d,2021-07-29_23h02.36.301,Simcolourproject_2stim_asymm_v5,2020.2.10,Win32,60,61025ae37ef11b136ea224fe,,,,,,,,,3393,-26,-79,1,0,0,response5disk,,3,18,8,1,0,0,rectangle,18,8,1,0,0,,,,,,,18,8,1,0,0,,1,98,258,33,1,
,,,,,,,,,,,,,FF,,,,,,,,0.916,,,,,,,,,,,,,,,,,,,,,,6101bf7dd34564c349a734ff,6103766327d2dbabdc37323d,2021-07-29_23h02.36.301,Simcolourproject_2stim_asymm_v5,2020.2.10,Win32,60,61025ae37ef11b136ea224fe,,,,,,,,,3006,75,36,1,0,0,response1disk,,6,12,7,1,0,0,rectangle,12,7,1,0,0,,,,,,,12,7,1,0,0,,1,99,259,126,1,
,,,,,,,,,,,,,FF,,,,,,,,0.982,,,,,,,,,,,,,,,,,,,,,,6101bf7dd34564c349a734ff,6103766327d2dbabdc37323d,2021-07-29_23h02.36.301,Simcolourproject_2stim_asymm_v5,2020.2.10,Win32,60,61025ae37ef11b136ea224fe,,,,,,,,,2472,75,24,1,0,0,response1disk,,6,20,4,1,0,0,rectangle,20,4,1,0,0,,,,,,,20,4,1,0,0,,1,100,260,76,1,
,,,,,,,,,,,,,FF,,,,,,,,0.849,,,,,,,,,,,,,,,,,,,,,,6101bf7dd34564c349a734ff,6103766327d2dbabdc37323d,2021-07-29_23h02.36.301,Simcolourproject_2stim_asymm_v5,2020.2.10,Win32,60,61025ae37ef11b136ea224fe,,,,,,,,,1990,58,29,1,0,0,response1disk,,6,21,-2,1,0,0,rectangle,86,-25,1,0,0,response3disk_3,TRUE,5,5,"[51,105,1,5,25,216,206,15,168,65,129,76,262,135,98,208,128,204,196,233]",1.784,7,9,1,0,0,rectangle,1,101,261,141,1,
,,,,,,,,,,,,,FF,,,,,,,,1.65,,,,,,,,,,,,,,,,,,,,,,6101bf7dd34564c349a734ff,6103766327d2dbabdc37323d,2021-07-29_23h02.36.301,Simcolourproject_2stim_asymm_v5,2020.2.10,Win32,60,61025ae37ef11b136ea224fe,,,,,,,,,1278,67,-18,1,0,0,response3disk,,5,-8,10,1,0,0,rectangle,-8,10,1,0,0,,,,,,,-8,10,1,0,0,,1,102,262,116,1,
,,,,,,,,,,,,,FF,,,,,,,,1.166,,,,,,,,,,,,,,,,,,,,,,6101bf7dd34564c349a734ff,6103766327d2dbabdc37323d,2021-07-29_23h02.36.301,Simcolourproject_2stim_asymm_v5,2020.2.10,Win32,60,61025ae37ef11b136ea224fe,,,,,,,,,2185,62,31,1,0,0,response1disk,,6,16,8,1,0,0,rectangle,16,8,1,0,0,,,,,,,16,8,1,0,0,,1,103,263,6,1,
,,,,,,,,,,,,,FF,,,,,,,,1.181,,,,,,,,,,,,,,,,,,,,,,6101bf7dd34564c349a734ff,6103766327d2dbabdc37323d,2021-07-29_23h02.36.301,Simcolourproject_2stim_asymm_v5,2020.2.10,Win32,60,61025ae37ef11b136ea224fe,,,,,,,,,529,35,-40,1,0,0,response3disk,,4,6,-2,1,0,0,rectangle,6,-2,1,0,0,,,,,,,6,-2,1,0,0,,1,104,264,107,1,
,,,,,,,,,,,,,FF,,,,,,,,0.899,,,,,,,,,,,,,,,,,,,,,,6101bf7dd34564c349a734ff,6103766327d2dbabdc37323d,2021-07-29_23h02.36.301,Simcolourproject_2stim_asymm_v5,2020.2.10,Win32,60,61025ae37ef11b136ea224fe,,,,,,,,,959,80,50,1,0,0,response1disk,,6,-3,2,1,0,0,rectangle,-3,2,1,0,0,,,,,,,-3,2,1,0,0,,1,105,265,106,1,
,,,,,,,,,,,,,FF,,,,,,,,1.585,,,,,,,,,,,,,,,,,,,,,,6101bf7dd34564c349a734ff,6103766327d2dbabdc37323d,2021-07-29_23h02.36.301,Simcolourproject_2stim_asymm_v5,2020.2.10,Win32,60,61025ae37ef11b136ea224fe,,,,,,,,,1402,61,-17,1,0,0,response3disk,,5,25,-4,1,0,0,rectangle,25,-4,1,0,0,,,,,,,25,-4,1,0,0,,1,106,266,71,1,
,,,,,,,,,,,,,FF,,,,,,,,1.965,,,,,,,,,,,,,,,,,,,,,,6101bf7dd34564c349a734ff,6103766327d2dbabdc37323d,2021-07-29_23h02.36.301,Simcolourproject_2stim_asymm_v5,2020.2.10,Win32,60,61025ae37ef11b136ea224fe,,,,,,,,,4364,51,-60,1,0,0,response3disk,,4,20,0,1,0,0,rectangle,20,0,1,0,0,,,,,,,20,0,1,0,0,,1,107,267,85,1,
,,,,,,,,,,,,,FF,,,,,,,,1.882,,,,,,,,,,,,,,,,,,,,,,6101bf7dd34564c349a734ff,6103766327d2dbabdc37323d,2021-07-29_23h02.36.301,Simcolourproject_2stim_asymm_v5,2020.2.10,Win32,60,61025ae37ef11b136ea224fe,,,,,,,,,1557,60,-28,1,0,0,response3disk,,5,17,0,1,0,0,rectangle,17,0,1,0,0,,,,,,,17,0,1,0,0,,1,108,268,137,1,
,,,,,,,,,,,,,FF,,,,,,,,1.881,,,,,,,,,,,,,,,,,,,,,,6101bf7dd34564c349a734ff,6103766327d2dbabdc37323d,2021-07-29_23h02.36.301,Simcolourproject_2stim_asymm_v5,2020.2.10,Win32,60,61025ae37ef11b136ea224fe,,,,,,,,,2897,-25,-81,1,0,0,response5disk,,3,-3,-10,1,0,0,rectangle,-3,-10,1,0,0,,,,,,,-3,-10,1,0,0,,1,109,269,87,1,
,,,,,,,,,,,,,FF,,,,,,,,0.949,,,,,,,,,,,,,,,,,,,,,,6101bf7dd34564c349a734ff,6103766327d2dbabdc37323d,2021-07-29_23h02.36.301,Simcolourproject_2stim_asymm_v5,2020.2.10,Win32,60,61025ae37ef11b136ea224fe,,,,,,,,,3961,63,34,1,0,0,response1disk,,6,14,-2,1,0,0,rectangle,14,-2,1,0,0,,,,,,,14,-2,1,0,0,,1,110,270,129,1,
,,,,,,,,,,,,,FF,,,,,,,,1.032,,,,,,,,,,,,,,,,,,,,,,6101bf7dd34564c349a734ff,6103766327d2dbabdc37323d,2021-07-29_23h02.36.301,Simcolourproject_2stim_asymm_v5,2020.2.10,Win32,60,61025ae37ef11b136ea224fe,,,,,,,,,579,68,35,1,0,0,response1disk,,6,25,9,1,0,0,rectangle,25,9,1,0,0,,,,,,,25,9,1,0,0,,1,111,271,156,1,
,,,,,,,,,,,,,FF,,,,,,,,0.9,,,,,,,,,,,,,,,,,,,,,,6101bf7dd34564c349a734ff,6103766327d2dbabdc37323d,2021-07-29_23h02.36.301,Simcolourproject_2stim_asymm_v5,2020.2.10,Win32,60,61025ae37ef11b136ea224fe,,,,,,,,,939,76,35,1,0,0,response1disk,,6,27,3,1,0,0,rectangle,27,3,1,0,0,,,,,,,27,3,1,0,0,,1,112,272,16,1,
,,,,,,,,,,,,,FF,,,,,,,,0.999,,,,,,,,,,,,,,,,,,,,,,6101bf7dd34564c349a734ff,6103766327d2dbabdc37323d,2021-07-29_23h02.36.301,Simcolourproject_2stim_asymm_v5,2020.2.10,Win32,60,61025ae37ef11b136ea224fe,,,,,,,,,3616,40,-18,1,0,0,response3disk,,5,2,6,1,0,0,rectangle,2,6,1,0,0,,,,,,,2,6,1,0,0,,1,113,273,18,1,
,,,,,,,,,,,,,FF,,,,,,,,1.267,,,,,,,,,,,,,,,,,,,,,,6101bf7dd34564c349a734ff,6103766327d2dbabdc37323d,2021-07-29_23h02.36.301,Simcolourproject_2stim_asymm_v5,2020.2.10,Win32,60,61025ae37ef11b136ea224fe,,,,,,,,,3654,78,25,1,0,0,response1disk,,6,26,5,1,0,0,rectangle,26,5,1,0,0,,,,,,,26,5,1,0,0,,1,114,274,54,1,
,,,,,,,,,,,,,FF,,,,,,,,1.482,,,,,,,,,,,,,,,,,,,,,,6101bf7dd34564c349a734ff,6103766327d2dbabdc37323d,2021-07-29_23h02.36.301,Simcolourproject_2stim_asymm_v5,2020.2.10,Win32,60,61025ae37ef11b136ea224fe,,,,,,,,,4351,-25,-63,1,0,0,response5disk,,3,-2,7,1,0,0,rectangle,-2,7,1,0,0,,,,,,,-2,7,1,0,0,,1,115,275,24,1,
,,,,,,,,,,,,,FF,,,,,,,,2.363,,,,,,,,,,,,,,,,,,,,,,6101bf7dd34564c349a734ff,6103766327d2dbabdc37323d,2021-07-29_23h02.36.301,Simcolourproject_2stim_asymm_v5,2020.2.10,Win32,60,61025ae37ef11b136ea224fe,,,,,,,,,1225,29,-70,1,0,0,response3disk,,4,6,5,1,0,0,rectangle,6,5,1,0,0,,,,,,,6,5,1,0,0,,1,116,276,0,1,
,,,,,,,,,,,,,FF,,,,,,,,0.999,,,,,,,,,,,,,,,,,,,,,,6101bf7dd34564c349a734ff,6103766327d2dbabdc37323d,2021-07-29_23h02.36.301,Simcolourproject_2stim_asymm_v5,2020.2.10,Win32,60,61025ae37ef11b136ea224fe,,,,,,,,,2322,64,40,1,0,0,response1disk,,6,18,2,1,0,0,rectangle,18,2,1,0,0,,,,,,,18,2,1,0,0,,1,117,277,104,1,
,,,,,,,,,,,,,FF,,,,,,,,1.183,,,,,,,,,,,,,,,,,,,,,,6101bf7dd34564c349a734ff,6103766327d2dbabdc37323d,2021-07-29_23h02.36.301,Simcolourproject_2stim_asymm_v5,2020.2.10,Win32,60,61025ae37ef11b136ea224fe,,,,,,,,,433,65,-23,1,0,0,response3disk,,5,15,-7,1,0,0,rectangle,15,-7,1,0,0,,,,,,,15,-7,1,0,0,,1,118,278,37,1,
,,,,,,,,,,,,,FF,,,,,,,,2.098,,,,,,,,,,,,,,,,,,,,,,6101bf7dd34564c349a734ff,6103766327d2dbabdc37323d,2021-07-29_23h02.36.301,Simcolourproject_2stim_asymm_v5,2020.2.10,Win32,60,61025ae37ef11b136ea224fe,,,,,,,,,2207,63,43,1,0,0,response1disk,,6,20,11,1,0,0,rectangle,20,11,1,0,0,,,,,,,20,11,1,0,0,,1,119,279,94,1,
,,,,,,,,,,,,,FF,,,,,,,,0.949,,,,,,,,,,,,,,,,,,,,,,6101bf7dd34564c349a734ff,6103766327d2dbabdc37323d,2021-07-29_23h02.36.301,Simcolourproject_2stim_asymm_v5,2020.2.10,Win32,60,61025ae37ef11b136ea224fe,,,,,,,,,2751,76,42,1,0,0,response1disk,,6,24,5,1,0,0,rectangle,24,5,1,0,0,,,,,,,24,5,1,0,0,,1,120,280,118,1,
,,,,,,,,,,,,,FF,,,,,,,,0.966,,,,,,,,,,,,,,,,,,,,,,6101bf7dd34564c349a734ff,6103766327d2dbabdc37323d,2021-07-29_23h02.36.301,Simcolourproject_2stim_asymm_v5,2020.2.10,Win32,60,61025ae37ef11b136ea224fe,,,,,,,,,3031,81,33,1,0,0,response1disk,,6,6,4,1,0,0,rectangle,6,4,1,0,0,,,,,,,6,4,1,0,0,,1,121,281,58,1,
,,,,,,,,,,,,,FF,,,,,,,,1.183,,,,,,,,,,,,,,,,,,,,,,6101bf7dd34564c349a734ff,6103766327d2dbabdc37323d,2021-07-29_23h02.36.301,Simcolourproject_2stim_asymm_v5,2020.2.10,Win32,60,61025ae37ef11b136ea224fe,,,,,,,,,3193,19,-24,1,0,0,response3disk,,4,3,5,1,0,0,rectangle,3,5,1,0,0,,,,,,,3,5,1,0,0,,1,122,282,98,1,
,,,,,,,,,,,,,FF,,,,,,,,1.033,,,,,,,,,,,,,,,,,,,,,,6101bf7dd34564c349a734ff,6103766327d2dbabdc37323d,2021-07-29_23h02.36.301,Simcolourproject_2stim_asymm_v5,2020.2.10,Win32,60,61025ae37ef11b136ea224fe,,,,,,,,,2162,19,-33,1,0,0,response3disk,,4,1,2,1,0,0,rectangle,1,2,1,0,0,,,,,,,1,2,1,0,0,,1,123,283,31,1,
,,,,,,,,,,,,,FF,,,,,,,,1.266,,,,,,,,,,,,,,,,,,,,,,6101bf7dd34564c349a734ff,6103766327d2dbabdc37323d,2021-07-29_23h02.36.301,Simcolourproject_2stim_asymm_v5,2020.2.10,Win32,60,61025ae37ef11b136ea224fe,,,,,,,,,298,39,-26,1,0,0,response3disk,,5,-11,9,1,0,0,rectangle,-11,9,1,0,0,,,,,,,-11,9,1,0,0,,1,124,284,45,1,
,,,,,,,,,,,,,FF,,,,,,,,2.93,,,,,,,,,,,,,,,,,,,,,,6101bf7dd34564c349a734ff,6103766327d2dbabdc37323d,2021-07-29_23h02.36.301,Simcolourproject_2stim_asymm_v5,2020.2.10,Win32,60,61025ae37ef11b136ea224fe,,,,,,,,,4017,83,36,1,0,0,response1disk,,6,8,3,1,0,0,rectangle,8,3,1,0,0,,,,,,,8,3,1,0,0,,1,125,285,86,1,
,,,,,,,,,,,,,FF,,,,,,,,3.914,,,,,,,,,,,,,,,,,,,,,,6101bf7dd34564c349a734ff,6103766327d2dbabdc37323d,2021-07-29_23h02.36.301,Simcolourproject_2stim_asymm_v5,2020.2.10,Win32,60,61025ae37ef11b136ea224fe,,,,,,,,,4086,26,-64,1,0,0,response3disk,,4,12,-3,1,0,0,rectangle,12,-3,1,0,0,,,,,,,12,-3,1,0,0,,1,126,286,132,1,
,,,,,,,,,,,,,FF,,,,,,,,1.648,,,,,,,,,,,,,,,,,,,,,,6101bf7dd34564c349a734ff,6103766327d2dbabdc37323d,2021-07-29_23h02.36.301,Simcolourproject_2stim_asymm_v5,2020.2.10,Win32,60,61025ae37ef11b136ea224fe,,,,,,,,,2823,51,-23,1,0,0,response3disk,,5,13,2,1,0,0,rectangle,13,2,1,0,0,,,,,,,13,2,1,0,0,,1,127,287,13,1,
,,,,,,,,,,,,,FF,,,,,,,,1.05,,,,,,,,,,,,,,,,,,,,,,6101bf7dd34564c349a734ff,6103766327d2dbabdc37323d,2021-07-29_23h02.36.301,Simcolourproject_2stim_asymm_v5,2020.2.10,Win32,60,61025ae37ef11b136ea224fe,,,,,,,,,1831,-42,-58,1,0,0,response5disk,,3,-2,5,1,0,0,rectangle,-2,5,1,0,0,,,,,,,-2,5,1,0,0,,1,128,288,7,1,
,,,,,,,,,,,,,FF,,,,,,,,1.049,,,,,,,,,,,,,,,,,,,,,,6101bf7dd34564c349a734ff,6103766327d2dbabdc37323d,2021-07-29_23h02.36.301,Simcolourproject_2stim_asymm_v5,2020.2.10,Win32,60,61025ae37ef11b136ea224fe,,,,,,,,,2630,84,48,1,0,0,response1disk,,6,-8,-5,1,0,0,rectangle,-8,-5,1,0,0,,,,,,,-8,-5,1,0,0,,1,129,289,83,1,
,,,,,,,,,,,,,FF,,,,,,,,1.248,,,,,,,,,,,,,,,,,,,,,,6101bf7dd34564c349a734ff,6103766327d2dbabdc37323d,2021-07-29_23h02.36.301,Simcolourproject_2stim_asymm_v5,2020.2.10,Win32,60,61025ae37ef11b136ea224fe,,,,,,,,,686,25,-32,1,0,0,response3disk,,4,-1,13,1,0,0,rectangle,-1,13,1,0,0,,,,,,,-1,13,1,0,0,,1,130,290,97,1,
,,,,,,,,,,,,,FF,,,,,,,,0.866,,,,,,,,,,,,,,,,,,,,,,6101bf7dd34564c349a734ff,6103766327d2dbabdc37323d,2021-07-29_23h02.36.301,Simcolourproject_2stim_asymm_v5,2020.2.10,Win32,60,61025ae37ef11b136ea224fe,,,,,,,,,877,71,36,1,0,0,response1disk,,6,23,8,1,0,0,rectangle,23,8,1,0,0,,,,,,,23,8,1,0,0,,1,131,291,68,1,
,,,,,,,,,,,,,FF,,,,,,,,1.199,,,,,,,,,,,,,,,,,,,,,,6101bf7dd34564c349a734ff,6103766327d2dbabdc37323d,2021-07-29_23h02.36.301,Simcolourproject_2stim_asymm_v5,2020.2.10,Win32,60,61025ae37ef11b136ea224fe,,,,,,,,,3897,25,-49,1,0,0,response3disk,,4,6,-10,1,0,0,rectangle,6,-10,1,0,0,,,,,,,6,-10,1,0,0,,1,132,292,35,1,
,,,,,,,,,,,,,FF,,,,,,,,1.199,,,,,,,,,,,,,,,,,,,,,,6101bf7dd34564c349a734ff,6103766327d2dbabdc37323d,2021-07-29_23h02.36.301,Simcolourproject_2stim_asymm_v5,2020.2.10,Win32,60,61025ae37ef11b136ea224fe,,,,,,,,,1255,29,-39,1,0,0,response3disk,,4,-14,9,1,0,0,rectangle,-14,9,1,0,0,,,,,,,-14,9,1,0,0,,1,133,293,23,1,
,,,,,,,,,,,,,FF,,,,,,,,0.849,,,,,,,,,,,,,,,,,,,,,,6101bf7dd34564c349a734ff,6103766327d2dbabdc37323d,2021-07-29_23h02.36.301,Simcolourproject_2stim_asymm_v5,2020.2.10,Win32,60,61025ae37ef11b136ea224fe,,,,,,,,,2004,47,26,1,0,0,response1disk,,6,-10,2,1,0,0,rectangle,-10,2,1,0,0,,,,,,,-10,2,1,0,0,,1,134,294,109,1,
,,,,,,,,,,,,,FF,,,,,,,,1.25,,,,,,,,,,,,,,,,,,,,,,6101bf7dd34564c349a734ff,6103766327d2dbabdc37323d,2021-07-29_23h02.36.301,Simcolourproject_2stim_asymm_v5,2020.2.10,Win32,60,61025ae37ef11b136ea224fe,,,,,,,,,3441,27,26,1,0,0,response1disk,,6,-1,1,1,0,0,rectangle,-1,1,1,0,0,,,,,,,-1,1,1,0,0,,1,135,295,10,1,
,,,,,,,,,,,,,FF,,,,,,,,1.066,,,,,,,,,,,,,,,,,,,,,,6101bf7dd34564c349a734ff,6103766327d2dbabdc37323d,2021-07-29_23h02.36.301,Simcolourproject_2stim_asymm_v5,2020.2.10,Win32,60,61025ae37ef11b136ea224fe,,,,,,,,,464,68,18,1,0,0,response1disk,,6,-8,-2,1,0,0,rectangle,-8,-2,1,0,0,,,,,,,-8,-2,1,0,0,,1,136,296,12,1,
,,,,,,,,,,,,,FF,,,,,,,,0.834,,,,,,,,,,,,,,,,,,,,,,6101bf7dd34564c349a734ff,6103766327d2dbabdc37323d,2021-07-29_23h02.36.301,Simcolourproject_2stim_asymm_v5,2020.2.10,Win32,60,61025ae37ef11b136ea224fe,,,,,,,,,2583,64,33,1,0,0,response1disk,,6,-1,12,1,0,0,rectangle,-1,12,1,0,0,,,,,,,-1,12,1,0,0,,1,137,297,22,1,
,,,,,,,,,,,,,FF,,,,,,,,0.816,,,,,,,,,,,,,,,,,,,,,,6101bf7dd34564c349a734ff,6103766327d2dbabdc37323d,2021-07-29_23h02.36.301,Simcolourproject_2stim_asymm_v5,2020.2.10,Win32,60,61025ae37ef11b136ea224fe,,,,,,,,,4258,56,38,1,0,0,response1disk,,6,0,-5,1,0,0,rectangle,0,-5,1,0,0,,,,,,,0,-5,1,0,0,,1,138,298,52,1,
,,,,,,,,,,,,,FF,,,,,,,,1.015,,,,,,,,,,,,,,,,,,,,,,6101bf7dd34564c349a734ff,6103766327d2dbabdc37323d,2021-07-29_23h02.36.301,Simcolourproject_2stim_asymm_v5,2020.2.10,Win32,60,61025ae37ef11b136ea224fe,,,,,,,,,2501,15,-41,1,0,0,response3disk,,4,-9,12,1,0,0,rectangle,-9,12,1,0,0,,,,,,,-9,12,1,0,0,,1,139,299,69,1,
,,,,,,,,,,,,,FF,,,,,,,,1.565,,,,,,,,,,,,,,,,,,,,,,6101bf7dd34564c349a734ff,6103766327d2dbabdc37323d,2021-07-29_23h02.36.301,Simcolourproject_2stim_asymm_v5,2020.2.10,Win32,60,61025ae37ef11b136ea224fe,,,,,,,,,1164,22,-27,1,0,0,response3disk,,4,-4,-7,1,0,0,rectangle,-4,-7,1,0,0,,,,,,,-4,-7,1,0,0,,1,140,300,138,1,
,,,,,,,,,,,,,FF,,,,,,,,1.082,,,,,,,,,,,,,,,,,,,,,,6101bf7dd34564c349a734ff,6103766327d2dbabdc37323d,2021-07-29_23h02.36.301,Simcolourproject_2stim_asymm_v5,2020.2.10,Win32,60,61025ae37ef11b136ea224fe,,,,,,,,,1111,59,43,1,0,0,response1disk,,6,-8,14,1,0,0,rectangle,-8,14,1,0,0,,,,,,,-8,14,1,0,0,,1,141,301,125,1,
,,,,,,,,,,,,,FF,,,,,,,,0.843,,,,,,,,,,,,,,,,,,,,,,6101bf7dd34564c349a734ff,6103766327d2dbabdc37323d,2021-07-29_23h02.36.301,Simcolourproject_2stim_asymm_v5,2020.2.10,Win32,60,61025ae37ef11b136ea224fe,,,,,,,,,4110,51,31,1,0,0,response1disk,,6,0,7,1,0,0,rectangle,0,7,1,0,0,,,,,,,0,7,1,0,0,,1,142,302,15,1,
,,,,,,,,,,,,,FF,,,,,,,,0.866,,,,,,,,,,,,,,,,,,,,,,6101bf7dd34564c349a734ff,6103766327d2dbabdc37323d,2021-07-29_23h02.36.301,Simcolourproject_2stim_asymm_v5,2020.2.10,Win32,60,61025ae37ef11b136ea224fe,,,,,,,,,793,71,37,1,0,0,response1disk,,6,4,12,1,0,0,rectangle,4,12,1,0,0,,,,,,,4,12,1,0,0,,1,143,303,49,1,
