key_resp.keys,key_resp.rt,key_resp_14.keys,key_resp_14.rt,key_resp_15.keys,key_resp_15.rt,key_resp_17.keys,key_resp_17.rt,key_resp_9.keys,key_resp_9.rt,key_resp_10.keys,key_resp_10.rt,practice_comparison,Ecc,mouse_5.x,mouse_5.y,mouse_5.leftButton,mouse_5.midButton,mouse_5.rightButton,mouse_5.clicked_name,pracsimilarity,response_time,mouse_10.x,mouse_10.y,mouse_10.leftButton,mouse_10.midButton,mouse_10.rightButton,mouse_10.clicked_name,mouse_7.x,mouse_7.y,mouse_7.leftButton,mouse_7.midButton,mouse_7.rightButton,mouse_6.x,mouse_6.y,mouse_6.leftButton,mouse_6.midButton,mouse_6.rightButton,duringprac.thisRepN,duringprac.thisTrialN,duringprac.thisN,duringprac.thisIndex,duringprac.ran,participant,session,date,expName,psychopyVersion,OS,frameRate,study_id,mouse_7.clicked_name,catchpracsimilarity,catch_response_time,catchnumberprac,catchtrialorderprac,mouse_6.clicked_name,key_resp_22.keys,key_resp_22.rt,realcomparison,mouse.x,mouse.y,mouse.leftButton,mouse.midButton,mouse.rightButton,mouse.clicked_name,Colour2,similarity,mouse_2.x,mouse_2.y,mouse_2.leftButton,mouse_2.midButton,mouse_2.rightButton,mouse_2.clicked_name,mouse_3.x,mouse_3.y,mouse_3.leftButton,mouse_3.midButton,mouse_3.rightButton,mouse_11.x,mouse_11.y,mouse_11.leftButton,mouse_11.midButton,mouse_11.rightButton,trials_2.thisRepN,trials_2.thisTrialN,trials_2.thisN,trials_2.thisIndex,trials_2.ran,Colour1,mouse_3.clicked_name,catchornah,catchsimilarity,catchnumber,catchtrialorder,catchRT,mouse_11.clicked_name
space,0.959,space,9.149,space,21.451,space,5.439,space,0.792,space,2.884,36,PF,36,114,1,0,0,response1disk_5,7,11.667,-4,6,1,0,0,rectangle_8,-4,6,1,0,0,-4,6,1,0,0,0,0,0,6,1,61018f3269df71dfbea45098,61036a83ac7ff1e9063ecfe8,2021-07-29_22h57.47.983,Simcolourproject_2stim_asymm_v5,2020.2.10,MacIntel,60,61025ae37ef11b136ea224fe,,,,,,,,,,,,,,,,,,,,,,,,,,,,,,,,,,,,,,,,,,,,,,
,,,,,,,,,,,,105,FF,51,75,1,0,0,response1disk_5,7,3.934,8,-13,1,0,0,rectangle_8,-103,44,1,0,0,-14,-8,1,0,0,0,1,1,0,1,61018f3269df71dfbea45098,61036a83ac7ff1e9063ecfe8,2021-07-29_22h57.47.983,Simcolourproject_2stim_asymm_v5,2020.2.10,MacIntel,60,61025ae37ef11b136ea224fe,response7disk_7,1,3.452,1,"[2,5]",rectangle_4,,,,,,,,,,,,,,,,,,,,,,,,,,,,,,,,,,,,,,,,
,,,,,,,,,,,,8,PF,90,50,1,0,0,response1disk_5,6,3.551,13,-3,1,0,0,rectangle_8,13,-3,1,0,0,13,-3,1,0,0,0,2,2,4,1,61018f3269df71dfbea45098,61036a83ac7ff1e9063ecfe8,2021-07-29_22h57.47.983,Simcolourproject_2stim_asymm_v5,2020.2.10,MacIntel,60,61025ae37ef11b136ea224fe,,,,,,,,,,,,,,,,,,,,,,,,,,,,,,,,,,,,,,,,,,,,,,
,,,,,,,,,,,,125,PF,45,-114,1,0,0,response3disk_5,4,3.967,7,9,1,0,0,rectangle_8,7,9,1,0,0,7,9,1,0,0,0,3,3,1,1,61018f3269df71dfbea45098,61036a83ac7ff1e9063ecfe8,2021-07-29_22h57.47.983,Simcolourproject_2stim_asymm_v5,2020.2.10,MacIntel,60,61025ae37ef11b136ea224fe,,,,,,,,,,,,,,,,,,,,,,,,,,,,,,,,,,,,,,,,,,,,,,
,,,,,,,,,,,,61,PF,89,-56,1,0,0,response3disk_5,5,1.9,16,-11,1,0,0,rectangle_8,-41,-78,1,0,0,-9,10,1,0,0,0,4,4,2,1,61018f3269df71dfbea45098,61036a83ac7ff1e9063ecfe8,2021-07-29_22h57.47.983,Simcolourproject_2stim_asymm_v5,2020.2.10,MacIntel,60,61025ae37ef11b136ea224fe,response5disk_7,3,2.666,1,"[2,5]",rectangle_4,,,,,,,,,,,,,,,,,,,,,,,,,,,,,,,,,,,,,,,,
,,,,,,,,,,,,159,FF,40,78,1,0,0,response1disk_5,7,3.651,2,-13,1,0,0,rectangle_8,2,-13,1,0,0,2,-13,1,0,0,0,5,5,3,1,61018f3269df71dfbea45098,61036a83ac7ff1e9063ecfe8,2021-07-29_22h57.47.983,Simcolourproject_2stim_asymm_v5,2020.2.10,MacIntel,60,61025ae37ef11b136ea224fe,,,,,,,,,,,,,,,,,,,,,,,,,,,,,,,,,,,,,,,,,,,,,,
,,,,,,,,,,,,123,FF,80,18,1,0,0,response1disk_5,6,2.116,-16,-17,1,0,0,rectangle_8,-16,-17,1,0,0,-16,-17,1,0,0,0,6,6,5,1,61018f3269df71dfbea45098,61036a83ac7ff1e9063ecfe8,2021-07-29_22h57.47.983,Simcolourproject_2stim_asymm_v5,2020.2.10,MacIntel,60,61025ae37ef11b136ea224fe,,,,,,,,,,,,,,,,,,,,,,,,,,,,,,,,,,,,,,,,,,,,,,
,,,,,,,,,,,,,FF,,,,,,,,3.085,,,,,,,,,,,,,,,,,,,,,,61018f3269df71dfbea45098,61036a83ac7ff1e9063ecfe8,2021-07-29_22h57.47.983,Simcolourproject_2stim_asymm_v5,2020.2.10,MacIntel,60,61025ae37ef11b136ea224fe,,,,,,,space,2.453,3738,-40,-85,1,0,0,response5disk,,3,12,0,1,0,0,rectangle,12,0,1,0,0,12,0,1,0,0,0,0,0,133,1,,,,,,,,
,,,,,,,,,,,,,FF,,,,,,,,2.169,,,,,,,,,,,,,,,,,,,,,,61018f3269df71dfbea45098,61036a83ac7ff1e9063ecfe8,2021-07-29_22h57.47.983,Simcolourproject_2stim_asymm_v5,2020.2.10,MacIntel,60,61025ae37ef11b136ea224fe,,,,,,,,,2954,-81,-43,1,0,0,response5disk,,2,25,5,1,0,0,rectangle,25,5,1,0,0,25,5,1,0,0,0,1,1,13,1,,,,,,,,
,,,,,,,,,,,,,FF,,,,,,,,1.766,,,,,,,,,,,,,,,,,,,,,,61018f3269df71dfbea45098,61036a83ac7ff1e9063ecfe8,2021-07-29_22h57.47.983,Simcolourproject_2stim_asymm_v5,2020.2.10,MacIntel,60,61025ae37ef11b136ea224fe,,,,,,,,,877,99,29,1,0,0,response1disk,,6,14,4,1,0,0,rectangle,14,4,1,0,0,14,4,1,0,0,0,2,2,68,1,,,,,,,,
,,,,,,,,,,,,,FF,,,,,,,,1.518,,,,,,,,,,,,,,,,,,,,,,61018f3269df71dfbea45098,61036a83ac7ff1e9063ecfe8,2021-07-29_22h57.47.983,Simcolourproject_2stim_asymm_v5,2020.2.10,MacIntel,60,61025ae37ef11b136ea224fe,,,,,,,,,4082,-40,-87,1,0,0,response5disk,,3,16,1,1,0,0,rectangle,-34,-103,1,0,0,-8,13,1,0,0,0,3,3,42,1,,response5disk_3,TRUE,3,3,"[112,140,194,113,269,79,104,17,65,4,46,158,176,151,206,96,108,311,200,221]",4.683,rectangle
,,,,,,,,,,,,,FF,,,,,,,,3.217,,,,,,,,,,,,,,,,,,,,,,61018f3269df71dfbea45098,61036a83ac7ff1e9063ecfe8,2021-07-29_22h57.47.983,Simcolourproject_2stim_asymm_v5,2020.2.10,MacIntel,60,61025ae37ef11b136ea224fe,,,,,,,,,3825,31,-94,1,0,0,response3disk,,4,6,12,1,0,0,rectangle,6,12,1,0,0,6,12,1,0,0,0,4,4,89,1,,,,,,,,
,,,,,,,,,,,,,FF,,,,,,,,1.834,,,,,,,,,,,,,,,,,,,,,,61018f3269df71dfbea45098,61036a83ac7ff1e9063ecfe8,2021-07-29_22h57.47.983,Simcolourproject_2stim_asymm_v5,2020.2.10,MacIntel,60,61025ae37ef11b136ea224fe,,,,,,,,,3811,-54,81,1,0,0,response7disk,,0,5,0,1,0,0,rectangle,5,0,1,0,0,5,0,1,0,0,0,5,5,156,1,,,,,,,,
,,,,,,,,,,,,,FF,,,,,,,,1.267,,,,,,,,,,,,,,,,,,,,,,61018f3269df71dfbea45098,61036a83ac7ff1e9063ecfe8,2021-07-29_22h57.47.983,Simcolourproject_2stim_asymm_v5,2020.2.10,MacIntel,60,61025ae37ef11b136ea224fe,,,,,,,,,4214,70,-61,1,0,0,response3disk,,5,5,-3,1,0,0,rectangle,5,-3,1,0,0,5,-3,1,0,0,0,6,6,30,1,,,,,,,,
,,,,,,,,,,,,,FF,,,,,,,,3.317,,,,,,,,,,,,,,,,,,,,,,61018f3269df71dfbea45098,61036a83ac7ff1e9063ecfe8,2021-07-29_22h57.47.983,Simcolourproject_2stim_asymm_v5,2020.2.10,MacIntel,60,61025ae37ef11b136ea224fe,,,,,,,,,2701,41,72,1,0,0,response1disk,,7,2,-17,1,0,0,rectangle,2,-17,1,0,0,2,-17,1,0,0,0,7,7,66,1,,,,,,,,
,,,,,,,,,,,,,FF,,,,,,,,2.549,,,,,,,,,,,,,,,,,,,,,,61018f3269df71dfbea45098,61036a83ac7ff1e9063ecfe8,2021-07-29_22h57.47.983,Simcolourproject_2stim_asymm_v5,2020.2.10,MacIntel,60,61025ae37ef11b136ea224fe,,,,,,,,,653,46,80,1,0,0,response1disk,,7,6,-2,1,0,0,rectangle,6,-2,1,0,0,6,-2,1,0,0,0,8,8,46,1,,,,,,,,
,,,,,,,,,,,,,FF,,,,,,,,1.767,,,,,,,,,,,,,,,,,,,,,,61018f3269df71dfbea45098,61036a83ac7ff1e9063ecfe8,2021-07-29_22h57.47.983,Simcolourproject_2stim_asymm_v5,2020.2.10,MacIntel,60,61025ae37ef11b136ea224fe,,,,,,,,,3200,-51,-86,1,0,0,response5disk,,3,-13,-6,1,0,0,rectangle,-13,-6,1,0,0,-13,-6,1,0,0,0,9,9,16,1,,,,,,,,
,,,,,,,,,,,,,FF,,,,,,,,1.216,,,,,,,,,,,,,,,,,,,,,,61018f3269df71dfbea45098,61036a83ac7ff1e9063ecfe8,2021-07-29_22h57.47.983,Simcolourproject_2stim_asymm_v5,2020.2.10,MacIntel,60,61025ae37ef11b136ea224fe,,,,,,,,,2934,-48,-96,1,0,0,response5disk,,3,5,1,1,0,0,rectangle,5,1,1,0,0,5,1,1,0,0,0,10,10,3,1,,,,,,,,
,,,,,,,,,,,,,FF,,,,,,,,2.033,,,,,,,,,,,,,,,,,,,,,,61018f3269df71dfbea45098,61036a83ac7ff1e9063ecfe8,2021-07-29_22h57.47.983,Simcolourproject_2stim_asymm_v5,2020.2.10,MacIntel,60,61025ae37ef11b136ea224fe,,,,,,,,,694,70,-90,1,0,0,response3disk,,4,11,-4,1,0,0,rectangle,11,-4,1,0,0,11,-4,1,0,0,0,11,11,158,1,,,,,,,,
,,,,,,,,,,,,,FF,,,,,,,,1.117,,,,,,,,,,,,,,,,,,,,,,61018f3269df71dfbea45098,61036a83ac7ff1e9063ecfe8,2021-07-29_22h57.47.983,Simcolourproject_2stim_asymm_v5,2020.2.10,MacIntel,60,61025ae37ef11b136ea224fe,,,,,,,,,2198,25,89,1,0,0,response1disk,,7,-2,-15,1,0,0,rectangle,-2,-15,1,0,0,-2,-15,1,0,0,0,12,12,70,1,,,,,,,,
,,,,,,,,,,,,,FF,,,,,,,,5.034,,,,,,,,,,,,,,,,,,,,,,61018f3269df71dfbea45098,61036a83ac7ff1e9063ecfe8,2021-07-29_22h57.47.983,Simcolourproject_2stim_asymm_v5,2020.2.10,MacIntel,60,61025ae37ef11b136ea224fe,,,,,,,,,1164,99,21,1,0,0,response1disk,,6,-14,-1,1,0,0,rectangle,-14,-1,1,0,0,-14,-1,1,0,0,0,13,13,130,1,,,,,,,,
,,,,,,,,,,,,,FF,,,,,,,,1.916,,,,,,,,,,,,,,,,,,,,,,61018f3269df71dfbea45098,61036a83ac7ff1e9063ecfe8,2021-07-29_22h57.47.983,Simcolourproject_2stim_asymm_v5,2020.2.10,MacIntel,60,61025ae37ef11b136ea224fe,,,,,,,,,548,-87,-71,1,0,0,response5disk,,2,2,5,1,0,0,rectangle,2,5,1,0,0,2,5,1,0,0,0,14,14,109,1,,,,,,,,
,,,,,,,,,,,,,FF,,,,,,,,2.117,,,,,,,,,,,,,,,,,,,,,,61018f3269df71dfbea45098,61036a83ac7ff1e9063ecfe8,2021-07-29_22h57.47.983,Simcolourproject_2stim_asymm_v5,2020.2.10,MacIntel,60,61025ae37ef11b136ea224fe,,,,,,,,,776,33,-107,1,0,0,response3disk,,4,-6,6,1,0,0,rectangle,-6,6,1,0,0,-6,6,1,0,0,0,15,15,4,1,,,,,,,,
,,,,,,,,,,,,,FF,,,,,,,,4.416,,,,,,,,,,,,,,,,,,,,,,61018f3269df71dfbea45098,61036a83ac7ff1e9063ecfe8,2021-07-29_22h57.47.983,Simcolourproject_2stim_asymm_v5,2020.2.10,MacIntel,60,61025ae37ef11b136ea224fe,,,,,,,,,556,-40,-100,1,0,0,response5disk,,3,-10,-1,1,0,0,rectangle,22,-96,1,0,0,8,-13,1,0,0,0,16,16,51,1,,response3disk_3,TRUE,4,4,"[112,140,194,113,269,79,104,17,65,4,46,158,176,151,206,96,108,311,200,221]",1.85,rectangle
,,,,,,,,,,,,,FF,,,,,,,,1.466,,,,,,,,,,,,,,,,,,,,,,61018f3269df71dfbea45098,61036a83ac7ff1e9063ecfe8,2021-07-29_22h57.47.983,Simcolourproject_2stim_asymm_v5,2020.2.10,MacIntel,60,61025ae37ef11b136ea224fe,,,,,,,,,3097,41,-97,1,0,0,response3disk,,4,-15,6,1,0,0,rectangle,-15,6,1,0,0,-15,6,1,0,0,0,17,17,116,1,,,,,,,,
,,,,,,,,,,,,,FF,,,,,,,,1.084,,,,,,,,,,,,,,,,,,,,,,61018f3269df71dfbea45098,61036a83ac7ff1e9063ecfe8,2021-07-29_22h57.47.983,Simcolourproject_2stim_asymm_v5,2020.2.10,MacIntel,60,61025ae37ef11b136ea224fe,,,,,,,,,1705,96,-62,1,0,0,response3disk,,5,-4,-6,1,0,0,rectangle,-4,-6,1,0,0,-4,-6,1,0,0,0,18,18,50,1,,,,,,,,
,,,,,,,,,,,,,FF,,,,,,,,1.183,,,,,,,,,,,,,,,,,,,,,,61018f3269df71dfbea45098,61036a83ac7ff1e9063ecfe8,2021-07-29_22h57.47.983,Simcolourproject_2stim_asymm_v5,2020.2.10,MacIntel,60,61025ae37ef11b136ea224fe,,,,,,,,,2141,76,22,1,0,0,response1disk,,6,10,3,1,0,0,rectangle,10,3,1,0,0,10,3,1,0,0,0,19,19,1,1,,,,,,,,
,,,,,,,,,,,,,FF,,,,,,,,2.465,,,,,,,,,,,,,,,,,,,,,,61018f3269df71dfbea45098,61036a83ac7ff1e9063ecfe8,2021-07-29_22h57.47.983,Simcolourproject_2stim_asymm_v5,2020.2.10,MacIntel,60,61025ae37ef11b136ea224fe,,,,,,,,,2856,65,96,1,0,0,response1disk,,7,0,3,1,0,0,rectangle,0,3,1,0,0,0,3,1,0,0,0,20,20,41,1,,,,,,,,
,,,,,,,,,,,,,FF,,,,,,,,1.467,,,,,,,,,,,,,,,,,,,,,,61018f3269df71dfbea45098,61036a83ac7ff1e9063ecfe8,2021-07-29_22h57.47.983,Simcolourproject_2stim_asymm_v5,2020.2.10,MacIntel,60,61025ae37ef11b136ea224fe,,,,,,,,,2173,81,-72,1,0,0,response3disk,,5,-17,15,1,0,0,rectangle,-17,15,1,0,0,-17,15,1,0,0,0,21,21,75,1,,,,,,,,
,,,,,,,,,,,,,FF,,,,,,,,2.883,,,,,,,,,,,,,,,,,,,,,,61018f3269df71dfbea45098,61036a83ac7ff1e9063ecfe8,2021-07-29_22h57.47.983,Simcolourproject_2stim_asymm_v5,2020.2.10,MacIntel,60,61025ae37ef11b136ea224fe,,,,,,,,,1061,29,98,1,0,0,response1disk,,7,4,-3,1,0,0,rectangle,4,-3,1,0,0,4,-3,1,0,0,0,22,22,48,1,,,,,,,,
,,,,,,,,,,,,,FF,,,,,,,,1.333,,,,,,,,,,,,,,,,,,,,,,61018f3269df71dfbea45098,61036a83ac7ff1e9063ecfe8,2021-07-29_22h57.47.983,Simcolourproject_2stim_asymm_v5,2020.2.10,MacIntel,60,61025ae37ef11b136ea224fe,,,,,,,,,2963,46,78,1,0,0,response1disk,,7,14,-8,1,0,0,rectangle,14,-8,1,0,0,14,-8,1,0,0,0,23,23,12,1,,,,,,,,
,,,,,,,,,,,,,FF,,,,,,,,1.134,,,,,,,,,,,,,,,,,,,,,,61018f3269df71dfbea45098,61036a83ac7ff1e9063ecfe8,2021-07-29_22h57.47.983,Simcolourproject_2stim_asymm_v5,2020.2.10,MacIntel,60,61025ae37ef11b136ea224fe,,,,,,,,,1434,90,-68,1,0,0,response3disk,,5,18,0,1,0,0,rectangle,18,0,1,0,0,18,0,1,0,0,0,24,24,31,1,,,,,,,,
,,,,,,,,,,,,,FF,,,,,,,,2.834,,,,,,,,,,,,,,,,,,,,,,61018f3269df71dfbea45098,61036a83ac7ff1e9063ecfe8,2021-07-29_22h57.47.983,Simcolourproject_2stim_asymm_v5,2020.2.10,MacIntel,60,61025ae37ef11b136ea224fe,,,,,,,,,179,59,31,1,0,0,response1disk,,6,-18,-8,1,0,0,rectangle,-18,-8,1,0,0,-18,-8,1,0,0,0,25,25,23,1,,,,,,,,
,,,,,,,,,,,,,FF,,,,,,,,1.216,,,,,,,,,,,,,,,,,,,,,,61018f3269df71dfbea45098,61036a83ac7ff1e9063ecfe8,2021-07-29_22h57.47.983,Simcolourproject_2stim_asymm_v5,2020.2.10,MacIntel,60,61025ae37ef11b136ea224fe,,,,,,,,,175,33,-114,1,0,0,response3disk,,4,11,-5,1,0,0,rectangle,11,-5,1,0,0,11,-5,1,0,0,0,26,26,40,1,,,,,,,,
,,,,,,,,,,,,,FF,,,,,,,,1.652,,,,,,,,,,,,,,,,,,,,,,61018f3269df71dfbea45098,61036a83ac7ff1e9063ecfe8,2021-07-29_22h57.47.983,Simcolourproject_2stim_asymm_v5,2020.2.10,MacIntel,60,61025ae37ef11b136ea224fe,,,,,,,,,821,90,-30,1,0,0,response3disk,,5,2,-10,1,0,0,rectangle,2,-10,1,0,0,2,-10,1,0,0,0,27,27,64,1,,,,,,,,
,,,,,,,,,,,,,FF,,,,,,,,1.134,,,,,,,,,,,,,,,,,,,,,,61018f3269df71dfbea45098,61036a83ac7ff1e9063ecfe8,2021-07-29_22h57.47.983,Simcolourproject_2stim_asymm_v5,2020.2.10,MacIntel,60,61025ae37ef11b136ea224fe,,,,,,,,,2433,105,-68,1,0,0,response3disk,,5,4,3,1,0,0,rectangle,4,3,1,0,0,4,3,1,0,0,0,28,28,76,1,,,,,,,,
,,,,,,,,,,,,,FF,,,,,,,,1.267,,,,,,,,,,,,,,,,,,,,,,61018f3269df71dfbea45098,61036a83ac7ff1e9063ecfe8,2021-07-29_22h57.47.983,Simcolourproject_2stim_asymm_v5,2020.2.10,MacIntel,60,61025ae37ef11b136ea224fe,,,,,,,,,338,121,-50,1,0,0,response3disk,,5,17,-6,1,0,0,rectangle,17,-6,1,0,0,17,-6,1,0,0,0,29,29,153,1,,,,,,,,
,,,,,,,,,,,,,FF,,,,,,,,0.935,,,,,,,,,,,,,,,,,,,,,,61018f3269df71dfbea45098,61036a83ac7ff1e9063ecfe8,2021-07-29_22h57.47.983,Simcolourproject_2stim_asymm_v5,2020.2.10,MacIntel,60,61025ae37ef11b136ea224fe,,,,,,,,,722,54,-114,1,0,0,response3disk,,4,-6,8,1,0,0,rectangle,-6,8,1,0,0,-6,8,1,0,0,0,30,30,9,1,,,,,,,,
,,,,,,,,,,,,,FF,,,,,,,,0.984,,,,,,,,,,,,,,,,,,,,,,61018f3269df71dfbea45098,61036a83ac7ff1e9063ecfe8,2021-07-29_22h57.47.983,Simcolourproject_2stim_asymm_v5,2020.2.10,MacIntel,60,61025ae37ef11b136ea224fe,,,,,,,,,181,36,79,1,0,0,response1disk,,7,4,5,1,0,0,rectangle,4,5,1,0,0,4,5,1,0,0,0,31,31,18,1,,,,,,,,
,,,,,,,,,,,,,FF,,,,,,,,0.801,,,,,,,,,,,,,,,,,,,,,,61018f3269df71dfbea45098,61036a83ac7ff1e9063ecfe8,2021-07-29_22h57.47.983,Simcolourproject_2stim_asymm_v5,2020.2.10,MacIntel,60,61025ae37ef11b136ea224fe,,,,,,,,,2912,52,91,1,0,0,response1disk,,7,8,-12,1,0,0,rectangle,8,-12,1,0,0,8,-12,1,0,0,0,32,32,22,1,,,,,,,,
,,,,,,,,,,,,,FF,,,,,,,,1.402,,,,,,,,,,,,,,,,,,,,,,61018f3269df71dfbea45098,61036a83ac7ff1e9063ecfe8,2021-07-29_22h57.47.983,Simcolourproject_2stim_asymm_v5,2020.2.10,MacIntel,60,61025ae37ef11b136ea224fe,,,,,,,,,3859,84,-76,1,0,0,response3disk,,5,-17,4,1,0,0,rectangle,-17,4,1,0,0,-17,4,1,0,0,0,33,33,112,1,,,,,,,,
,,,,,,,,,,,,,FF,,,,,,,,1.433,,,,,,,,,,,,,,,,,,,,,,61018f3269df71dfbea45098,61036a83ac7ff1e9063ecfe8,2021-07-29_22h57.47.983,Simcolourproject_2stim_asymm_v5,2020.2.10,MacIntel,60,61025ae37ef11b136ea224fe,,,,,,,,,3885,89,-44,1,0,0,response3disk,,5,11,-9,1,0,0,rectangle,11,-9,1,0,0,11,-9,1,0,0,0,34,34,125,1,,,,,,,,
,,,,,,,,,,,,,FF,,,,,,,,0.767,,,,,,,,,,,,,,,,,,,,,,61018f3269df71dfbea45098,61036a83ac7ff1e9063ecfe8,2021-07-29_22h57.47.983,Simcolourproject_2stim_asymm_v5,2020.2.10,MacIntel,60,61025ae37ef11b136ea224fe,,,,,,,,,3206,31,70,1,0,0,response1disk,,7,11,-1,1,0,0,rectangle,11,-1,1,0,0,11,-1,1,0,0,0,35,35,86,1,,,,,,,,
,,,,,,,,,,,,,FF,,,,,,,,0.733,,,,,,,,,,,,,,,,,,,,,,61018f3269df71dfbea45098,61036a83ac7ff1e9063ecfe8,2021-07-29_22h57.47.983,Simcolourproject_2stim_asymm_v5,2020.2.10,MacIntel,60,61025ae37ef11b136ea224fe,,,,,,,,,2925,40,68,1,0,0,response1disk,,7,11,-16,1,0,0,rectangle,11,-16,1,0,0,11,-16,1,0,0,0,36,36,85,1,,,,,,,,
,,,,,,,,,,,,,FF,,,,,,,,1.65,,,,,,,,,,,,,,,,,,,,,,61018f3269df71dfbea45098,61036a83ac7ff1e9063ecfe8,2021-07-29_22h57.47.983,Simcolourproject_2stim_asymm_v5,2020.2.10,MacIntel,60,61025ae37ef11b136ea224fe,,,,,,,,,1546,31,70,1,0,0,response1disk,,7,10,-9,1,0,0,rectangle,10,-9,1,0,0,10,-9,1,0,0,0,37,37,126,1,,,,,,,,
,,,,,,,,,,,,,FF,,,,,,,,2.968,,,,,,,,,,,,,,,,,,,,,,61018f3269df71dfbea45098,61036a83ac7ff1e9063ecfe8,2021-07-29_22h57.47.983,Simcolourproject_2stim_asymm_v5,2020.2.10,MacIntel,60,61025ae37ef11b136ea224fe,,,,,,,,,1303,26,53,1,0,0,response1disk,,7,1,-2,1,0,0,rectangle,1,-2,1,0,0,1,-2,1,0,0,0,38,38,135,1,,,,,,,,
,,,,,,,,,,,,,FF,,,,,,,,1.384,,,,,,,,,,,,,,,,,,,,,,61018f3269df71dfbea45098,61036a83ac7ff1e9063ecfe8,2021-07-29_22h57.47.983,Simcolourproject_2stim_asymm_v5,2020.2.10,MacIntel,60,61025ae37ef11b136ea224fe,,,,,,,,,3073,31,73,1,0,0,response1disk,,7,-1,-13,1,0,0,rectangle,-1,-13,1,0,0,-1,-13,1,0,0,0,39,39,100,1,,,,,,,,
,,,,,,,,,,,,,FF,,,,,,,,1.067,,,,,,,,,,,,,,,,,,,,,,61018f3269df71dfbea45098,61036a83ac7ff1e9063ecfe8,2021-07-29_22h57.47.983,Simcolourproject_2stim_asymm_v5,2020.2.10,MacIntel,60,61025ae37ef11b136ea224fe,,,,,,,,,1870,19,42,1,0,0,response1disk,,7,5,-4,1,0,0,rectangle,5,-4,1,0,0,5,-4,1,0,0,0,40,40,137,1,,,,,,,,
,,,,,,,,,,,,,FF,,,,,,,,1.033,,,,,,,,,,,,,,,,,,,,,,61018f3269df71dfbea45098,61036a83ac7ff1e9063ecfe8,2021-07-29_22h57.47.983,Simcolourproject_2stim_asymm_v5,2020.2.10,MacIntel,60,61025ae37ef11b136ea224fe,,,,,,,,,915,25,60,1,0,0,response1disk,,7,24,-3,1,0,0,rectangle,24,-3,1,0,0,24,-3,1,0,0,0,41,41,45,1,,,,,,,,
,,,,,,,,,,,,,FF,,,,,,,,1.384,,,,,,,,,,,,,,,,,,,,,,61018f3269df71dfbea45098,61036a83ac7ff1e9063ecfe8,2021-07-29_22h57.47.983,Simcolourproject_2stim_asymm_v5,2020.2.10,MacIntel,60,61025ae37ef11b136ea224fe,,,,,,,,,1673,38,-94,1,0,0,response3disk,,4,-6,-6,1,0,0,rectangle,-6,-6,1,0,0,-6,-6,1,0,0,0,42,42,98,1,,,,,,,,
,,,,,,,,,,,,,FF,,,,,,,,1.083,,,,,,,,,,,,,,,,,,,,,,61018f3269df71dfbea45098,61036a83ac7ff1e9063ecfe8,2021-07-29_22h57.47.983,Simcolourproject_2stim_asymm_v5,2020.2.10,MacIntel,60,61025ae37ef11b136ea224fe,,,,,,,,,577,51,63,1,0,0,response1disk,,7,-12,9,1,0,0,rectangle,-12,9,1,0,0,-12,9,1,0,0,0,43,43,25,1,,,,,,,,
,,,,,,,,,,,,,FF,,,,,,,,1.051,,,,,,,,,,,,,,,,,,,,,,61018f3269df71dfbea45098,61036a83ac7ff1e9063ecfe8,2021-07-29_22h57.47.983,Simcolourproject_2stim_asymm_v5,2020.2.10,MacIntel,60,61025ae37ef11b136ea224fe,,,,,,,,,648,96,29,1,0,0,response1disk,,6,32,16,1,0,0,rectangle,32,16,1,0,0,32,16,1,0,0,0,44,44,57,1,,,,,,,,
,,,,,,,,,,,,,FF,,,,,,,,2.084,,,,,,,,,,,,,,,,,,,,,,61018f3269df71dfbea45098,61036a83ac7ff1e9063ecfe8,2021-07-29_22h57.47.983,Simcolourproject_2stim_asymm_v5,2020.2.10,MacIntel,60,61025ae37ef11b136ea224fe,,,,,,,,,3996,68,44,1,0,0,response1disk,,6,-3,0,1,0,0,rectangle,28,-98,1,0,0,-10,-13,1,0,0,0,45,45,20,1,,response3disk_3,TRUE,4,4,"[112,140,194,113,269,79,104,17,65,4,46,158,176,151,206,96,108,311,200,221]",1.199,rectangle
,,,,,,,,,,,,,FF,,,,,,,,1.434,,,,,,,,,,,,,,,,,,,,,,61018f3269df71dfbea45098,61036a83ac7ff1e9063ecfe8,2021-07-29_22h57.47.983,Simcolourproject_2stim_asymm_v5,2020.2.10,MacIntel,60,61025ae37ef11b136ea224fe,,,,,,,,,1629,64,-55,1,0,0,response3disk,,5,0,-10,1,0,0,rectangle,0,-10,1,0,0,0,-10,1,0,0,0,46,46,104,1,,,,,,,,
,,,,,,,,,,,,,FF,,,,,,,,3.034,,,,,,,,,,,,,,,,,,,,,,61018f3269df71dfbea45098,61036a83ac7ff1e9063ecfe8,2021-07-29_22h57.47.983,Simcolourproject_2stim_asymm_v5,2020.2.10,MacIntel,60,61025ae37ef11b136ea224fe,,,,,,,,,2390,84,50,1,0,0,response1disk,,6,7,-15,1,0,0,rectangle,7,-15,1,0,0,7,-15,1,0,0,0,47,47,73,1,,,,,,,,
,,,,,,,,,,,,,FF,,,,,,,,1.767,,,,,,,,,,,,,,,,,,,,,,61018f3269df71dfbea45098,61036a83ac7ff1e9063ecfe8,2021-07-29_22h57.47.983,Simcolourproject_2stim_asymm_v5,2020.2.10,MacIntel,60,61025ae37ef11b136ea224fe,,,,,,,,,756,54,78,1,0,0,response1disk,,7,-5,2,1,0,0,rectangle,-5,2,1,0,0,-5,2,1,0,0,0,48,48,136,1,,,,,,,,
,,,,,,,,,,,,,FF,,,,,,,,1.35,,,,,,,,,,,,,,,,,,,,,,61018f3269df71dfbea45098,61036a83ac7ff1e9063ecfe8,2021-07-29_22h57.47.983,Simcolourproject_2stim_asymm_v5,2020.2.10,MacIntel,60,61025ae37ef11b136ea224fe,,,,,,,,,794,28,60,1,0,0,response1disk,,7,17,-10,1,0,0,rectangle,17,-10,1,0,0,17,-10,1,0,0,0,49,49,54,1,,,,,,,,
,,,,,,,,,,,,,FF,,,,,,,,3.148,,,,,,,,,,,,,,,,,,,,,,61018f3269df71dfbea45098,61036a83ac7ff1e9063ecfe8,2021-07-29_22h57.47.983,Simcolourproject_2stim_asymm_v5,2020.2.10,MacIntel,60,61025ae37ef11b136ea224fe,,,,,,,,,2459,66,35,1,0,0,response1disk,,6,-14,0,1,0,0,rectangle,-14,0,1,0,0,-14,0,1,0,0,0,50,50,99,1,,,,,,,,
,,,,,,,,,,,,,FF,,,,,,,,1.518,,,,,,,,,,,,,,,,,,,,,,61018f3269df71dfbea45098,61036a83ac7ff1e9063ecfe8,2021-07-29_22h57.47.983,Simcolourproject_2stim_asymm_v5,2020.2.10,MacIntel,60,61025ae37ef11b136ea224fe,,,,,,,,,221,42,67,1,0,0,response1disk,,7,-11,-5,1,0,0,rectangle,-11,-5,1,0,0,-11,-5,1,0,0,0,51,51,6,1,,,,,,,,
,,,,,,,,,,,,,FF,,,,,,,,1.066,,,,,,,,,,,,,,,,,,,,,,61018f3269df71dfbea45098,61036a83ac7ff1e9063ecfe8,2021-07-29_22h57.47.983,Simcolourproject_2stim_asymm_v5,2020.2.10,MacIntel,60,61025ae37ef11b136ea224fe,,,,,,,,,2371,-87,-51,1,0,0,response5disk,,2,6,-2,1,0,0,rectangle,6,-2,1,0,0,6,-2,1,0,0,0,52,52,105,1,,,,,,,,
,,,,,,,,,,,,,FF,,,,,,,,1.367,,,,,,,,,,,,,,,,,,,,,,61018f3269df71dfbea45098,61036a83ac7ff1e9063ecfe8,2021-07-29_22h57.47.983,Simcolourproject_2stim_asymm_v5,2020.2.10,MacIntel,60,61025ae37ef11b136ea224fe,,,,,,,,,1389,73,-58,1,0,0,response3disk,,5,4,-7,1,0,0,rectangle,4,-7,1,0,0,4,-7,1,0,0,0,53,53,36,1,,,,,,,,
,,,,,,,,,,,,,FF,,,,,,,,1.099,,,,,,,,,,,,,,,,,,,,,,61018f3269df71dfbea45098,61036a83ac7ff1e9063ecfe8,2021-07-29_22h57.47.983,Simcolourproject_2stim_asymm_v5,2020.2.10,MacIntel,60,61025ae37ef11b136ea224fe,,,,,,,,,835,16,59,1,0,0,response1disk,,7,0,2,1,0,0,rectangle,0,2,1,0,0,0,2,1,0,0,0,54,54,0,1,,,,,,,,
,,,,,,,,,,,,,FF,,,,,,,,1.75,,,,,,,,,,,,,,,,,,,,,,61018f3269df71dfbea45098,61036a83ac7ff1e9063ecfe8,2021-07-29_22h57.47.983,Simcolourproject_2stim_asymm_v5,2020.2.10,MacIntel,60,61025ae37ef11b136ea224fe,,,,,,,,,1095,32,31,1,0,0,response1disk,,6,-17,-18,1,0,0,rectangle,-17,-18,1,0,0,-17,-18,1,0,0,0,55,55,11,1,,,,,,,,
,,,,,,,,,,,,,FF,,,,,,,,1.333,,,,,,,,,,,,,,,,,,,,,,61018f3269df71dfbea45098,61036a83ac7ff1e9063ecfe8,2021-07-29_22h57.47.983,Simcolourproject_2stim_asymm_v5,2020.2.10,MacIntel,60,61025ae37ef11b136ea224fe,,,,,,,,,2041,-57,-78,1,0,0,response5disk,,3,3,-8,1,0,0,rectangle,3,-8,1,0,0,3,-8,1,0,0,0,56,56,62,1,,,,,,,,
,,,,,,,,,,,,,FF,,,,,,,,0.75,,,,,,,,,,,,,,,,,,,,,,61018f3269df71dfbea45098,61036a83ac7ff1e9063ecfe8,2021-07-29_22h57.47.983,Simcolourproject_2stim_asymm_v5,2020.2.10,MacIntel,60,61025ae37ef11b136ea224fe,,,,,,,,,1485,36,65,1,0,0,response1disk,,7,22,-4,1,0,0,rectangle,22,-4,1,0,0,22,-4,1,0,0,0,57,57,17,1,,,,,,,,
,,,,,,,,,,,,,FF,,,,,,,,1.267,,,,,,,,,,,,,,,,,,,,,,61018f3269df71dfbea45098,61036a83ac7ff1e9063ecfe8,2021-07-29_22h57.47.983,Simcolourproject_2stim_asymm_v5,2020.2.10,MacIntel,60,61025ae37ef11b136ea224fe,,,,,,,,,3079,44,50,1,0,0,response1disk,,7,7,-4,1,0,0,rectangle,7,-4,1,0,0,7,-4,1,0,0,0,58,58,90,1,,,,,,,,
,,,,,,,,,,,,,FF,,,,,,,,1.583,,,,,,,,,,,,,,,,,,,,,,61018f3269df71dfbea45098,61036a83ac7ff1e9063ecfe8,2021-07-29_22h57.47.983,Simcolourproject_2stim_asymm_v5,2020.2.10,MacIntel,60,61025ae37ef11b136ea224fe,,,,,,,,,827,40,73,1,0,0,response1disk,,7,4,6,1,0,0,rectangle,4,6,1,0,0,4,6,1,0,0,0,59,59,49,1,,,,,,,,
,,,,,,,,,,,,,FF,,,,,,,,0.768,,,,,,,,,,,,,,,,,,,,,,61018f3269df71dfbea45098,61036a83ac7ff1e9063ecfe8,2021-07-29_22h57.47.983,Simcolourproject_2stim_asymm_v5,2020.2.10,MacIntel,60,61025ae37ef11b136ea224fe,,,,,,,,,1867,63,35,1,0,0,response1disk,,6,7,-2,1,0,0,rectangle,7,-2,1,0,0,7,-2,1,0,0,0,60,60,138,1,,,,,,,,
,,,,,,,,,,,,,FF,,,,,,,,1.635,,,,,,,,,,,,,,,,,,,,,,61018f3269df71dfbea45098,61036a83ac7ff1e9063ecfe8,2021-07-29_22h57.47.983,Simcolourproject_2stim_asymm_v5,2020.2.10,MacIntel,60,61025ae37ef11b136ea224fe,,,,,,,,,2284,76,-56,1,0,0,response3disk,,5,29,8,1,0,0,rectangle,29,8,1,0,0,29,8,1,0,0,0,61,61,69,1,,,,,,,,
,,,,,,,,,,,,,FF,,,,,,,,0.733,,,,,,,,,,,,,,,,,,,,,,61018f3269df71dfbea45098,61036a83ac7ff1e9063ecfe8,2021-07-29_22h57.47.983,Simcolourproject_2stim_asymm_v5,2020.2.10,MacIntel,60,61025ae37ef11b136ea224fe,,,,,,,,,1900,95,-52,1,0,0,response3disk,,5,-6,-2,1,0,0,rectangle,-6,-2,1,0,0,-6,-2,1,0,0,0,62,62,35,1,,,,,,,,
,,,,,,,,,,,,,FF,,,,,,,,1.016,,,,,,,,,,,,,,,,,,,,,,61018f3269df71dfbea45098,61036a83ac7ff1e9063ecfe8,2021-07-29_22h57.47.983,Simcolourproject_2stim_asymm_v5,2020.2.10,MacIntel,60,61025ae37ef11b136ea224fe,,,,,,,,,4313,79,45,1,0,0,response1disk,,6,9,-7,1,0,0,rectangle,9,-7,1,0,0,9,-7,1,0,0,0,63,63,72,1,,,,,,,,
,,,,,,,,,,,,,FF,,,,,,,,1.116,,,,,,,,,,,,,,,,,,,,,,61018f3269df71dfbea45098,61036a83ac7ff1e9063ecfe8,2021-07-29_22h57.47.983,Simcolourproject_2stim_asymm_v5,2020.2.10,MacIntel,60,61025ae37ef11b136ea224fe,,,,,,,,,3786,43,85,1,0,0,response1disk,,7,-4,7,1,0,0,rectangle,32,93,1,0,0,22,-1,1,0,0,0,64,64,106,1,,response1disk_3,TRUE,7,7,"[112,140,194,113,269,79,104,17,65,4,46,158,176,151,206,96,108,311,200,221]",1.733,rectangle
,,,,,,,,,,,,,FF,,,,,,,,1.4,,,,,,,,,,,,,,,,,,,,,,61018f3269df71dfbea45098,61036a83ac7ff1e9063ecfe8,2021-07-29_22h57.47.983,Simcolourproject_2stim_asymm_v5,2020.2.10,MacIntel,60,61025ae37ef11b136ea224fe,,,,,,,,,2382,18,53,1,0,0,response1disk,,7,1,-14,1,0,0,rectangle,1,-14,1,0,0,1,-14,1,0,0,0,65,65,27,1,,,,,,,,
,,,,,,,,,,,,,FF,,,,,,,,3.184,,,,,,,,,,,,,,,,,,,,,,61018f3269df71dfbea45098,61036a83ac7ff1e9063ecfe8,2021-07-29_22h57.47.983,Simcolourproject_2stim_asymm_v5,2020.2.10,MacIntel,60,61025ae37ef11b136ea224fe,,,,,,,,,3087,92,-67,1,0,0,response3disk,,5,0,0,1,0,0,rectangle,0,0,1,0,0,0,0,1,0,0,0,66,66,127,1,,,,,,,,
,,,,,,,,,,,,,FF,,,,,,,,0.866,,,,,,,,,,,,,,,,,,,,,,61018f3269df71dfbea45098,61036a83ac7ff1e9063ecfe8,2021-07-29_22h57.47.983,Simcolourproject_2stim_asymm_v5,2020.2.10,MacIntel,60,61025ae37ef11b136ea224fe,,,,,,,,,952,72,-22,1,0,0,response3disk,,5,16,-10,1,0,0,rectangle,16,-10,1,0,0,16,-10,1,0,0,0,67,67,78,1,,,,,,,,
,,,,,,,,,,,,,FF,,,,,,,,2.618,,,,,,,,,,,,,,,,,,,,,,61018f3269df71dfbea45098,61036a83ac7ff1e9063ecfe8,2021-07-29_22h57.47.983,Simcolourproject_2stim_asymm_v5,2020.2.10,MacIntel,60,61025ae37ef11b136ea224fe,,,,,,,,,77,-60,24,1,0,0,response7disk,,1,5,7,1,0,0,rectangle,5,7,1,0,0,5,7,1,0,0,0,68,68,32,1,,,,,,,,
,,,,,,,,,,,,,FF,,,,,,,,1.084,,,,,,,,,,,,,,,,,,,,,,61018f3269df71dfbea45098,61036a83ac7ff1e9063ecfe8,2021-07-29_22h57.47.983,Simcolourproject_2stim_asymm_v5,2020.2.10,MacIntel,60,61025ae37ef11b136ea224fe,,,,,,,,,3475,-45,-73,1,0,0,response5disk,,3,-28,8,1,0,0,rectangle,-28,8,1,0,0,-28,8,1,0,0,0,69,69,150,1,,,,,,,,
,,,,,,,,,,,,,FF,,,,,,,,1.067,,,,,,,,,,,,,,,,,,,,,,61018f3269df71dfbea45098,61036a83ac7ff1e9063ecfe8,2021-07-29_22h57.47.983,Simcolourproject_2stim_asymm_v5,2020.2.10,MacIntel,60,61025ae37ef11b136ea224fe,,,,,,,,,905,26,53,1,0,0,response1disk,,7,26,-15,1,0,0,rectangle,26,-15,1,0,0,26,-15,1,0,0,0,70,70,24,1,,,,,,,,
,,,,,,,,,,,,,FF,,,,,,,,1.085,,,,,,,,,,,,,,,,,,,,,,61018f3269df71dfbea45098,61036a83ac7ff1e9063ecfe8,2021-07-29_22h57.47.983,Simcolourproject_2stim_asymm_v5,2020.2.10,MacIntel,60,61025ae37ef11b136ea224fe,,,,,,,,,4267,-83,-46,1,0,0,response5disk,,2,2,-7,1,0,0,rectangle,2,-7,1,0,0,2,-7,1,0,0,0,71,71,119,1,,,,,,,,
,,,,,,,,,,,,,FF,,,,,,,,2.583,,,,,,,,,,,,,,,,,,,,,,61018f3269df71dfbea45098,61036a83ac7ff1e9063ecfe8,2021-07-29_22h57.47.983,Simcolourproject_2stim_asymm_v5,2020.2.10,MacIntel,60,61025ae37ef11b136ea224fe,,,,,,,,,733,49,67,1,0,0,response1disk,,7,6,2,1,0,0,rectangle,6,2,1,0,0,6,2,1,0,0,0,72,72,92,1,,,,,,,,
,,,,,,,,,,,,,FF,,,,,,,,0.652,,,,,,,,,,,,,,,,,,,,,,61018f3269df71dfbea45098,61036a83ac7ff1e9063ecfe8,2021-07-29_22h57.47.983,Simcolourproject_2stim_asymm_v5,2020.2.10,MacIntel,60,61025ae37ef11b136ea224fe,,,,,,,,,1743,-46,75,1,0,0,response7disk,,0,-24,8,1,0,0,rectangle,-24,8,1,0,0,-24,8,1,0,0,0,73,73,128,1,,,,,,,,
,,,,,,,,,,,,,FF,,,,,,,,1.149,,,,,,,,,,,,,,,,,,,,,,61018f3269df71dfbea45098,61036a83ac7ff1e9063ecfe8,2021-07-29_22h57.47.983,Simcolourproject_2stim_asymm_v5,2020.2.10,MacIntel,60,61025ae37ef11b136ea224fe,,,,,,,,,999,92,34,1,0,0,response1disk,,6,16,11,1,0,0,rectangle,16,11,1,0,0,16,11,1,0,0,0,74,74,108,1,,,,,,,,
,,,,,,,,,,,,,FF,,,,,,,,1.2,,,,,,,,,,,,,,,,,,,,,,61018f3269df71dfbea45098,61036a83ac7ff1e9063ecfe8,2021-07-29_22h57.47.983,Simcolourproject_2stim_asymm_v5,2020.2.10,MacIntel,60,61025ae37ef11b136ea224fe,,,,,,,,,1129,-35,-76,1,0,0,response5disk,,3,-25,3,1,0,0,rectangle,-25,3,1,0,0,-25,3,1,0,0,0,75,75,44,1,,,,,,,,
,,,,,,,,,,,,,FF,,,,,,,,2.033,,,,,,,,,,,,,,,,,,,,,,61018f3269df71dfbea45098,61036a83ac7ff1e9063ecfe8,2021-07-29_22h57.47.983,Simcolourproject_2stim_asymm_v5,2020.2.10,MacIntel,60,61025ae37ef11b136ea224fe,,,,,,,,,1240,65,34,1,0,0,response1disk,,6,12,5,1,0,0,rectangle,12,5,1,0,0,12,5,1,0,0,0,76,76,102,1,,,,,,,,
,,,,,,,,,,,,,FF,,,,,,,,0.699,,,,,,,,,,,,,,,,,,,,,,61018f3269df71dfbea45098,61036a83ac7ff1e9063ecfe8,2021-07-29_22h57.47.983,Simcolourproject_2stim_asymm_v5,2020.2.10,MacIntel,60,61025ae37ef11b136ea224fe,,,,,,,,,3697,20,60,1,0,0,response1disk,,7,4,-4,1,0,0,rectangle,4,-4,1,0,0,4,-4,1,0,0,0,77,77,7,1,,,,,,,,
,,,,,,,,,,,,,FF,,,,,,,,1.785,,,,,,,,,,,,,,,,,,,,,,61018f3269df71dfbea45098,61036a83ac7ff1e9063ecfe8,2021-07-29_22h57.47.983,Simcolourproject_2stim_asymm_v5,2020.2.10,MacIntel,60,61025ae37ef11b136ea224fe,,,,,,,,,1735,-106,-20,1,0,0,response5disk,,2,-18,4,1,0,0,rectangle,-122,37,1,0,0,19,9,1,0,0,0,78,78,37,1,,response7disk_3,TRUE,1,1,"[112,140,194,113,269,79,104,17,65,4,46,158,176,151,206,96,108,311,200,221]",1.366,rectangle
,,,,,,,,,,,,,FF,,,,,,,,4.567,,,,,,,,,,,,,,,,,,,,,,61018f3269df71dfbea45098,61036a83ac7ff1e9063ecfe8,2021-07-29_22h57.47.983,Simcolourproject_2stim_asymm_v5,2020.2.10,MacIntel,60,61025ae37ef11b136ea224fe,,,,,,,,,360,88,36,1,0,0,response1disk,,6,-4,7,1,0,0,rectangle,-4,7,1,0,0,-4,7,1,0,0,0,79,79,97,1,,,,,,,,
,,,,,,,,,,,,,FF,,,,,,,,1.734,,,,,,,,,,,,,,,,,,,,,,61018f3269df71dfbea45098,61036a83ac7ff1e9063ecfe8,2021-07-29_22h57.47.983,Simcolourproject_2stim_asymm_v5,2020.2.10,MacIntel,60,61025ae37ef11b136ea224fe,,,,,,,,,390,42,-116,1,0,0,response3disk,,4,-13,-15,1,0,0,rectangle,-13,-15,1,0,0,-13,-15,1,0,0,0,80,80,129,1,,,,,,,,
,,,,,,,,,,,,,FF,,,,,,,,1.085,,,,,,,,,,,,,,,,,,,,,,61018f3269df71dfbea45098,61036a83ac7ff1e9063ecfe8,2021-07-29_22h57.47.983,Simcolourproject_2stim_asymm_v5,2020.2.10,MacIntel,60,61025ae37ef11b136ea224fe,,,,,,,,,1727,30,53,1,0,0,response1disk,,7,-1,-18,1,0,0,rectangle,-1,-18,1,0,0,-1,-18,1,0,0,0,81,81,67,1,,,,,,,,
,,,,,,,,,,,,,FF,,,,,,,,1.066,,,,,,,,,,,,,,,,,,,,,,61018f3269df71dfbea45098,61036a83ac7ff1e9063ecfe8,2021-07-29_22h57.47.983,Simcolourproject_2stim_asymm_v5,2020.2.10,MacIntel,60,61025ae37ef11b136ea224fe,,,,,,,,,616,24,-84,1,0,0,response3disk,,4,-17,-3,1,0,0,rectangle,-17,-3,1,0,0,-17,-3,1,0,0,0,82,82,91,1,,,,,,,,
,,,,,,,,,,,,,FF,,,,,,,,0.768,,,,,,,,,,,,,,,,,,,,,,61018f3269df71dfbea45098,61036a83ac7ff1e9063ecfe8,2021-07-29_22h57.47.983,Simcolourproject_2stim_asymm_v5,2020.2.10,MacIntel,60,61025ae37ef11b136ea224fe,,,,,,,,,2889,-46,-75,1,0,0,response5disk,,3,-33,0,1,0,0,rectangle,-33,0,1,0,0,-33,0,1,0,0,0,83,83,120,1,,,,,,,,
,,,,,,,,,,,,,FF,,,,,,,,0.684,,,,,,,,,,,,,,,,,,,,,,61018f3269df71dfbea45098,61036a83ac7ff1e9063ecfe8,2021-07-29_22h57.47.983,Simcolourproject_2stim_asymm_v5,2020.2.10,MacIntel,60,61025ae37ef11b136ea224fe,,,,,,,,,2361,-61,-53,1,0,0,response5disk,,2,-20,5,1,0,0,rectangle,-20,5,1,0,0,-20,5,1,0,0,0,84,84,134,1,,,,,,,,
,,,,,,,,,,,,,FF,,,,,,,,0.984,,,,,,,,,,,,,,,,,,,,,,61018f3269df71dfbea45098,61036a83ac7ff1e9063ecfe8,2021-07-29_22h57.47.983,Simcolourproject_2stim_asymm_v5,2020.2.10,MacIntel,60,61025ae37ef11b136ea224fe,,,,,,,,,408,117,-38,1,0,0,response3disk,,5,11,-6,1,0,0,rectangle,11,-6,1,0,0,11,-6,1,0,0,0,85,85,56,1,,,,,,,,
,,,,,,,,,,,,,FF,,,,,,,,1.566,,,,,,,,,,,,,,,,,,,,,,61018f3269df71dfbea45098,61036a83ac7ff1e9063ecfe8,2021-07-29_22h57.47.983,Simcolourproject_2stim_asymm_v5,2020.2.10,MacIntel,60,61025ae37ef11b136ea224fe,,,,,,,,,2469,107,33,1,0,0,response1disk,,6,23,6,1,0,0,rectangle,23,6,1,0,0,23,6,1,0,0,0,86,86,123,1,,,,,,,,
,,,,,,,,,,,,,FF,,,,,,,,0.801,,,,,,,,,,,,,,,,,,,,,,61018f3269df71dfbea45098,61036a83ac7ff1e9063ecfe8,2021-07-29_22h57.47.983,Simcolourproject_2stim_asymm_v5,2020.2.10,MacIntel,60,61025ae37ef11b136ea224fe,,,,,,,,,737,35,63,1,0,0,response1disk,,7,-10,-15,1,0,0,rectangle,-10,-15,1,0,0,-10,-15,1,0,0,0,87,87,14,1,,,,,,,,
,,,,,,,,,,,,,FF,,,,,,,,1.317,,,,,,,,,,,,,,,,,,,,,,61018f3269df71dfbea45098,61036a83ac7ff1e9063ecfe8,2021-07-29_22h57.47.983,Simcolourproject_2stim_asymm_v5,2020.2.10,MacIntel,60,61025ae37ef11b136ea224fe,,,,,,,,,1847,-39,-108,1,0,0,response5disk,,3,-14,-8,1,0,0,rectangle,-14,-8,1,0,0,-14,-8,1,0,0,0,88,88,114,1,,,,,,,,
,,,,,,,,,,,,,FF,,,,,,,,1.5,,,,,,,,,,,,,,,,,,,,,,61018f3269df71dfbea45098,61036a83ac7ff1e9063ecfe8,2021-07-29_22h57.47.983,Simcolourproject_2stim_asymm_v5,2020.2.10,MacIntel,60,61025ae37ef11b136ea224fe,,,,,,,,,346,48,-92,1,0,0,response3disk,,4,0,-17,1,0,0,rectangle,0,-17,1,0,0,0,-17,1,0,0,0,89,89,43,1,,,,,,,,
,,,,,,,,,,,,,FF,,,,,,,,1.384,,,,,,,,,,,,,,,,,,,,,,61018f3269df71dfbea45098,61036a83ac7ff1e9063ecfe8,2021-07-29_22h57.47.983,Simcolourproject_2stim_asymm_v5,2020.2.10,MacIntel,60,61025ae37ef11b136ea224fe,,,,,,,,,2931,52,-72,1,0,0,response3disk,,4,15,3,1,0,0,rectangle,15,3,1,0,0,15,3,1,0,0,0,90,90,83,1,,,,,,,,
,,,,,,,,,,,,,FF,,,,,,,,0.767,,,,,,,,,,,,,,,,,,,,,,61018f3269df71dfbea45098,61036a83ac7ff1e9063ecfe8,2021-07-29_22h57.47.983,Simcolourproject_2stim_asymm_v5,2020.2.10,MacIntel,60,61025ae37ef11b136ea224fe,,,,,,,,,46,38,59,1,0,0,response1disk,,7,11,3,1,0,0,rectangle,11,3,1,0,0,11,3,1,0,0,0,91,91,132,1,,,,,,,,
,,,,,,,,,,,,,FF,,,,,,,,1.184,,,,,,,,,,,,,,,,,,,,,,61018f3269df71dfbea45098,61036a83ac7ff1e9063ecfe8,2021-07-29_22h57.47.983,Simcolourproject_2stim_asymm_v5,2020.2.10,MacIntel,60,61025ae37ef11b136ea224fe,,,,,,,,,3562,95,33,1,0,0,response1disk,,6,1,15,1,0,0,rectangle,1,15,1,0,0,1,15,1,0,0,0,92,92,74,1,,,,,,,,
,,,,,,,,,,,,,FF,,,,,,,,1.434,,,,,,,,,,,,,,,,,,,,,,61018f3269df71dfbea45098,61036a83ac7ff1e9063ecfe8,2021-07-29_22h57.47.983,Simcolourproject_2stim_asymm_v5,2020.2.10,MacIntel,60,61025ae37ef11b136ea224fe,,,,,,,,,2687,27,49,1,0,0,response1disk,,7,0,0,1,0,0,rectangle,0,0,1,0,0,0,0,1,0,0,0,93,93,111,1,,,,,,,,
,,,,,,,,,,,,,FF,,,,,,,,1.501,,,,,,,,,,,,,,,,,,,,,,61018f3269df71dfbea45098,61036a83ac7ff1e9063ecfe8,2021-07-29_22h57.47.983,Simcolourproject_2stim_asymm_v5,2020.2.10,MacIntel,60,61025ae37ef11b136ea224fe,,,,,,,,,1305,27,50,1,0,0,response1disk,,7,7,4,1,0,0,rectangle,7,4,1,0,0,7,4,1,0,0,0,94,94,143,1,,,,,,,,
,,,,,,,,,,,,,FF,,,,,,,,0.716,,,,,,,,,,,,,,,,,,,,,,61018f3269df71dfbea45098,61036a83ac7ff1e9063ecfe8,2021-07-29_22h57.47.983,Simcolourproject_2stim_asymm_v5,2020.2.10,MacIntel,60,61025ae37ef11b136ea224fe,,,,,,,,,768,41,60,1,0,0,response1disk,,7,15,-6,1,0,0,rectangle,33,103,1,0,0,10,-15,1,0,0,0,95,95,159,1,,response1disk_3,TRUE,7,7,"[112,140,194,113,269,79,104,17,65,4,46,158,176,151,206,96,108,311,200,221]",1.449,rectangle
,,,,,,,,,,,,,FF,,,,,,,,1.166,,,,,,,,,,,,,,,,,,,,,,61018f3269df71dfbea45098,61036a83ac7ff1e9063ecfe8,2021-07-29_22h57.47.983,Simcolourproject_2stim_asymm_v5,2020.2.10,MacIntel,60,61025ae37ef11b136ea224fe,,,,,,,,,114,72,35,1,0,0,response1disk,,6,17,-7,1,0,0,rectangle,17,-7,1,0,0,17,-7,1,0,0,0,96,96,33,1,,,,,,,,
,,,,,,,,,,,,,FF,,,,,,,,1.133,,,,,,,,,,,,,,,,,,,,,,61018f3269df71dfbea45098,61036a83ac7ff1e9063ecfe8,2021-07-29_22h57.47.983,Simcolourproject_2stim_asymm_v5,2020.2.10,MacIntel,60,61025ae37ef11b136ea224fe,,,,,,,,,1564,-61,-95,1,0,0,response5disk,,3,-8,-2,1,0,0,rectangle,-8,-2,1,0,0,-8,-2,1,0,0,0,97,97,53,1,,,,,,,,
,,,,,,,,,,,,,FF,,,,,,,,1.084,,,,,,,,,,,,,,,,,,,,,,61018f3269df71dfbea45098,61036a83ac7ff1e9063ecfe8,2021-07-29_22h57.47.983,Simcolourproject_2stim_asymm_v5,2020.2.10,MacIntel,60,61025ae37ef11b136ea224fe,,,,,,,,,715,39,76,1,0,0,response1disk,,7,9,6,1,0,0,rectangle,9,6,1,0,0,9,6,1,0,0,0,98,98,122,1,,,,,,,,
,,,,,,,,,,,,,FF,,,,,,,,1.184,,,,,,,,,,,,,,,,,,,,,,61018f3269df71dfbea45098,61036a83ac7ff1e9063ecfe8,2021-07-29_22h57.47.983,Simcolourproject_2stim_asymm_v5,2020.2.10,MacIntel,60,61025ae37ef11b136ea224fe,,,,,,,,,145,25,44,1,0,0,response1disk,,7,20,-6,1,0,0,rectangle,20,-6,1,0,0,20,-6,1,0,0,0,99,99,142,1,,,,,,,,
,,,,,,,,,,,,,FF,,,,,,,,1.168,,,,,,,,,,,,,,,,,,,,,,61018f3269df71dfbea45098,61036a83ac7ff1e9063ecfe8,2021-07-29_22h57.47.983,Simcolourproject_2stim_asymm_v5,2020.2.10,MacIntel,60,61025ae37ef11b136ea224fe,,,,,,,,,2317,-28,-55,1,0,0,response5disk,,3,-16,-13,1,0,0,rectangle,-16,-13,1,0,0,-16,-13,1,0,0,0,100,100,5,1,,,,,,,,
,,,,,,,,,,,,,FF,,,,,,,,1.001,,,,,,,,,,,,,,,,,,,,,,61018f3269df71dfbea45098,61036a83ac7ff1e9063ecfe8,2021-07-29_22h57.47.983,Simcolourproject_2stim_asymm_v5,2020.2.10,MacIntel,60,61025ae37ef11b136ea224fe,,,,,,,,,2556,-54,-60,1,0,0,response5disk,,3,-13,-11,1,0,0,rectangle,-13,-11,1,0,0,-13,-11,1,0,0,0,101,101,47,1,,,,,,,,
,,,,,,,,,,,,,FF,,,,,,,,3.033,,,,,,,,,,,,,,,,,,,,,,61018f3269df71dfbea45098,61036a83ac7ff1e9063ecfe8,2021-07-29_22h57.47.983,Simcolourproject_2stim_asymm_v5,2020.2.10,MacIntel,60,61025ae37ef11b136ea224fe,,,,,,,,,2211,84,64,1,0,0,response1disk,,6,4,3,1,0,0,rectangle,4,3,1,0,0,4,3,1,0,0,0,102,102,19,1,,,,,,,,
,,,,,,,,,,,,,FF,,,,,,,,0.917,,,,,,,,,,,,,,,,,,,,,,61018f3269df71dfbea45098,61036a83ac7ff1e9063ecfe8,2021-07-29_22h57.47.983,Simcolourproject_2stim_asymm_v5,2020.2.10,MacIntel,60,61025ae37ef11b136ea224fe,,,,,,,,,20,95,28,1,0,0,response1disk,,6,1,-8,1,0,0,rectangle,83,18,1,0,0,12,-1,1,0,0,0,103,103,139,1,,response1disk_3,TRUE,6,6,"[112,140,194,113,269,79,104,17,65,4,46,158,176,151,206,96,108,311,200,221]",1.765,rectangle
,,,,,,,,,,,,,FF,,,,,,,,1.767,,,,,,,,,,,,,,,,,,,,,,61018f3269df71dfbea45098,61036a83ac7ff1e9063ecfe8,2021-07-29_22h57.47.983,Simcolourproject_2stim_asymm_v5,2020.2.10,MacIntel,60,61025ae37ef11b136ea224fe,,,,,,,,,2509,41,-89,1,0,0,response3disk,,4,10,-2,1,0,0,rectangle,10,-2,1,0,0,10,-2,1,0,0,0,104,104,38,1,,,,,,,,
,,,,,,,,,,,,,FF,,,,,,,,1.183,,,,,,,,,,,,,,,,,,,,,,61018f3269df71dfbea45098,61036a83ac7ff1e9063ecfe8,2021-07-29_22h57.47.983,Simcolourproject_2stim_asymm_v5,2020.2.10,MacIntel,60,61025ae37ef11b136ea224fe,,,,,,,,,966,30,43,1,0,0,response1disk,,7,3,12,1,0,0,rectangle,3,12,1,0,0,3,12,1,0,0,0,105,105,103,1,,,,,,,,
,,,,,,,,,,,,,FF,,,,,,,,0.933,,,,,,,,,,,,,,,,,,,,,,61018f3269df71dfbea45098,61036a83ac7ff1e9063ecfe8,2021-07-29_22h57.47.983,Simcolourproject_2stim_asymm_v5,2020.2.10,MacIntel,60,61025ae37ef11b136ea224fe,,,,,,,,,3977,-37,100,1,0,0,response7disk,,0,1,17,1,0,0,rectangle,1,17,1,0,0,1,17,1,0,0,0,106,106,145,1,,,,,,,,
,,,,,,,,,,,,,FF,,,,,,,,1.334,,,,,,,,,,,,,,,,,,,,,,61018f3269df71dfbea45098,61036a83ac7ff1e9063ecfe8,2021-07-29_22h57.47.983,Simcolourproject_2stim_asymm_v5,2020.2.10,MacIntel,60,61025ae37ef11b136ea224fe,,,,,,,,,3646,62,21,1,0,0,response1disk,,6,-14,-10,1,0,0,rectangle,-109,-56,1,0,0,11,-10,1,0,0,0,107,107,147,1,,response5disk_3,TRUE,2,2,"[112,140,194,113,269,79,104,17,65,4,46,158,176,151,206,96,108,311,200,221]",1.932,rectangle
,,,,,,,,,,,,,FF,,,,,,,,0.884,,,,,,,,,,,,,,,,,,,,,,61018f3269df71dfbea45098,61036a83ac7ff1e9063ecfe8,2021-07-29_22h57.47.983,Simcolourproject_2stim_asymm_v5,2020.2.10,MacIntel,60,61025ae37ef11b136ea224fe,,,,,,,,,1852,86,-58,1,0,0,response3disk,,5,-13,-4,1,0,0,rectangle,-13,-4,1,0,0,-13,-4,1,0,0,0,108,108,2,1,,,,,,,,
,,,,,,,,,,,,,FF,,,,,,,,1.032,,,,,,,,,,,,,,,,,,,,,,61018f3269df71dfbea45098,61036a83ac7ff1e9063ecfe8,2021-07-29_22h57.47.983,Simcolourproject_2stim_asymm_v5,2020.2.10,MacIntel,60,61025ae37ef11b136ea224fe,,,,,,,,,2368,66,-96,1,0,0,response3disk,,4,-17,8,1,0,0,rectangle,-17,8,1,0,0,-17,8,1,0,0,0,109,109,110,1,,,,,,,,
,,,,,,,,,,,,,FF,,,,,,,,0.984,,,,,,,,,,,,,,,,,,,,,,61018f3269df71dfbea45098,61036a83ac7ff1e9063ecfe8,2021-07-29_22h57.47.983,Simcolourproject_2stim_asymm_v5,2020.2.10,MacIntel,60,61025ae37ef11b136ea224fe,,,,,,,,,189,18,-79,1,0,0,response3disk,,4,-13,1,1,0,0,rectangle,-13,1,1,0,0,-13,1,1,0,0,0,110,110,93,1,,,,,,,,
,,,,,,,,,,,,,FF,,,,,,,,0.915,,,,,,,,,,,,,,,,,,,,,,61018f3269df71dfbea45098,61036a83ac7ff1e9063ecfe8,2021-07-29_22h57.47.983,Simcolourproject_2stim_asymm_v5,2020.2.10,MacIntel,60,61025ae37ef11b136ea224fe,,,,,,,,,4218,-59,68,1,0,0,response7disk,,0,-21,12,1,0,0,rectangle,-89,-50,1,0,0,-4,4,1,0,0,0,111,111,77,1,,response5disk_3,TRUE,2,2,"[112,140,194,113,269,79,104,17,65,4,46,158,176,151,206,96,108,311,200,221]",1.3,rectangle
,,,,,,,,,,,,,FF,,,,,,,,0.833,,,,,,,,,,,,,,,,,,,,,,61018f3269df71dfbea45098,61036a83ac7ff1e9063ecfe8,2021-07-29_22h57.47.983,Simcolourproject_2stim_asymm_v5,2020.2.10,MacIntel,60,61025ae37ef11b136ea224fe,,,,,,,,,1037,57,-96,1,0,0,response3disk,,4,-28,4,1,0,0,rectangle,-53,99,1,0,0,-11,-11,1,0,0,0,112,112,29,1,,response7disk_3,TRUE,0,0,"[112,140,194,113,269,79,104,17,65,4,46,158,176,151,206,96,108,311,200,221]",1.466,rectangle
,,,,,,,,,,,,,FF,,,,,,,,0.799,,,,,,,,,,,,,,,,,,,,,,61018f3269df71dfbea45098,61036a83ac7ff1e9063ecfe8,2021-07-29_22h57.47.983,Simcolourproject_2stim_asymm_v5,2020.2.10,MacIntel,60,61025ae37ef11b136ea224fe,,,,,,,,,3552,-33,-99,1,0,0,response5disk,,3,-9,-1,1,0,0,rectangle,-9,-1,1,0,0,-9,-1,1,0,0,0,113,113,154,1,,,,,,,,
,,,,,,,,,,,,,FF,,,,,,,,1.768,,,,,,,,,,,,,,,,,,,,,,61018f3269df71dfbea45098,61036a83ac7ff1e9063ecfe8,2021-07-29_22h57.47.983,Simcolourproject_2stim_asymm_v5,2020.2.10,MacIntel,60,61025ae37ef11b136ea224fe,,,,,,,,,736,80,-46,1,0,0,response3disk,,5,13,-6,1,0,0,rectangle,13,-6,1,0,0,13,-6,1,0,0,0,114,114,155,1,,,,,,,,
,,,,,,,,,,,,,FF,,,,,,,,0.799,,,,,,,,,,,,,,,,,,,,,,61018f3269df71dfbea45098,61036a83ac7ff1e9063ecfe8,2021-07-29_22h57.47.983,Simcolourproject_2stim_asymm_v5,2020.2.10,MacIntel,60,61025ae37ef11b136ea224fe,,,,,,,,,1876,45,48,1,0,0,response1disk,,7,-4,-11,1,0,0,rectangle,-4,-11,1,0,0,-4,-11,1,0,0,0,115,115,52,1,,,,,,,,
,,,,,,,,,,,,,FF,,,,,,,,0.916,,,,,,,,,,,,,,,,,,,,,,61018f3269df71dfbea45098,61036a83ac7ff1e9063ecfe8,2021-07-29_22h57.47.983,Simcolourproject_2stim_asymm_v5,2020.2.10,MacIntel,60,61025ae37ef11b136ea224fe,,,,,,,,,1327,72,33,1,0,0,response1disk,,6,-1,-18,1,0,0,rectangle,-1,-18,1,0,0,-1,-18,1,0,0,0,116,116,113,1,,,,,,,,
,,,,,,,,,,,,,FF,,,,,,,,1.117,,,,,,,,,,,,,,,,,,,,,,61018f3269df71dfbea45098,61036a83ac7ff1e9063ecfe8,2021-07-29_22h57.47.983,Simcolourproject_2stim_asymm_v5,2020.2.10,MacIntel,60,61025ae37ef11b136ea224fe,,,,,,,,,811,38,-57,1,0,0,response3disk,,4,-17,-3,1,0,0,rectangle,-17,-3,1,0,0,-17,-3,1,0,0,0,117,117,71,1,,,,,,,,
,,,,,,,,,,,,,FF,,,,,,,,0.817,,,,,,,,,,,,,,,,,,,,,,61018f3269df71dfbea45098,61036a83ac7ff1e9063ecfe8,2021-07-29_22h57.47.983,Simcolourproject_2stim_asymm_v5,2020.2.10,MacIntel,60,61025ae37ef11b136ea224fe,,,,,,,,,892,34,-88,1,0,0,response3disk,,4,9,-2,1,0,0,rectangle,9,-2,1,0,0,9,-2,1,0,0,0,118,118,144,1,,,,,,,,
,,,,,,,,,,,,,FF,,,,,,,,0.8,,,,,,,,,,,,,,,,,,,,,,61018f3269df71dfbea45098,61036a83ac7ff1e9063ecfe8,2021-07-29_22h57.47.983,Simcolourproject_2stim_asymm_v5,2020.2.10,MacIntel,60,61025ae37ef11b136ea224fe,,,,,,,,,832,37,80,1,0,0,response1disk,,7,18,7,1,0,0,rectangle,18,7,1,0,0,18,7,1,0,0,0,119,119,28,1,,,,,,,,
,,,,,,,,,,,,,FF,,,,,,,,1.833,,,,,,,,,,,,,,,,,,,,,,61018f3269df71dfbea45098,61036a83ac7ff1e9063ecfe8,2021-07-29_22h57.47.983,Simcolourproject_2stim_asymm_v5,2020.2.10,MacIntel,60,61025ae37ef11b136ea224fe,,,,,,,,,2147,21,45,1,0,0,response1disk,,7,1,9,1,0,0,rectangle,1,9,1,0,0,1,9,1,0,0,0,120,120,26,1,,,,,,,,
,,,,,,,,,,,,,FF,,,,,,,,1.25,,,,,,,,,,,,,,,,,,,,,,61018f3269df71dfbea45098,61036a83ac7ff1e9063ecfe8,2021-07-29_22h57.47.983,Simcolourproject_2stim_asymm_v5,2020.2.10,MacIntel,60,61025ae37ef11b136ea224fe,,,,,,,,,1615,70,-49,1,0,0,response3disk,,5,3,6,1,0,0,rectangle,3,6,1,0,0,3,6,1,0,0,0,121,121,15,1,,,,,,,,
,,,,,,,,,,,,,FF,,,,,,,,0.949,,,,,,,,,,,,,,,,,,,,,,61018f3269df71dfbea45098,61036a83ac7ff1e9063ecfe8,2021-07-29_22h57.47.983,Simcolourproject_2stim_asymm_v5,2020.2.10,MacIntel,60,61025ae37ef11b136ea224fe,,,,,,,,,2656,84,19,1,0,0,response1disk,,6,32,2,1,0,0,rectangle,32,2,1,0,0,32,2,1,0,0,0,122,122,131,1,,,,,,,,
,,,,,,,,,,,,,FF,,,,,,,,0.833,,,,,,,,,,,,,,,,,,,,,,61018f3269df71dfbea45098,61036a83ac7ff1e9063ecfe8,2021-07-29_22h57.47.983,Simcolourproject_2stim_asymm_v5,2020.2.10,MacIntel,60,61025ae37ef11b136ea224fe,,,,,,,,,2810,33,60,1,0,0,response1disk,,7,5,-11,1,0,0,rectangle,5,-11,1,0,0,5,-11,1,0,0,0,123,123,55,1,,,,,,,,
,,,,,,,,,,,,,FF,,,,,,,,0.816,,,,,,,,,,,,,,,,,,,,,,61018f3269df71dfbea45098,61036a83ac7ff1e9063ecfe8,2021-07-29_22h57.47.983,Simcolourproject_2stim_asymm_v5,2020.2.10,MacIntel,60,61025ae37ef11b136ea224fe,,,,,,,,,375,54,33,1,0,0,response1disk,,6,2,2,1,0,0,rectangle,2,2,1,0,0,2,2,1,0,0,0,124,124,58,1,,,,,,,,
,,,,,,,,,,,,,FF,,,,,,,,1.234,,,,,,,,,,,,,,,,,,,,,,61018f3269df71dfbea45098,61036a83ac7ff1e9063ecfe8,2021-07-29_22h57.47.983,Simcolourproject_2stim_asymm_v5,2020.2.10,MacIntel,60,61025ae37ef11b136ea224fe,,,,,,,,,1976,75,-35,1,0,0,response3disk,,5,1,-10,1,0,0,rectangle,1,-10,1,0,0,1,-10,1,0,0,0,125,125,61,1,,,,,,,,
,,,,,,,,,,,,,FF,,,,,,,,0.799,,,,,,,,,,,,,,,,,,,,,,61018f3269df71dfbea45098,61036a83ac7ff1e9063ecfe8,2021-07-29_22h57.47.983,Simcolourproject_2stim_asymm_v5,2020.2.10,MacIntel,60,61025ae37ef11b136ea224fe,,,,,,,,,2427,57,-35,1,0,0,response3disk,,5,7,-10,1,0,0,rectangle,7,-10,1,0,0,7,-10,1,0,0,0,126,126,79,1,,,,,,,,
,,,,,,,,,,,,,FF,,,,,,,,0.817,,,,,,,,,,,,,,,,,,,,,,61018f3269df71dfbea45098,61036a83ac7ff1e9063ecfe8,2021-07-29_22h57.47.983,Simcolourproject_2stim_asymm_v5,2020.2.10,MacIntel,60,61025ae37ef11b136ea224fe,,,,,,,,,2097,63,-41,1,0,0,response3disk,,5,10,-2,1,0,0,rectangle,10,-2,1,0,0,10,-2,1,0,0,0,127,127,65,1,,,,,,,,
,,,,,,,,,,,,,FF,,,,,,,,0.75,,,,,,,,,,,,,,,,,,,,,,61018f3269df71dfbea45098,61036a83ac7ff1e9063ecfe8,2021-07-29_22h57.47.983,Simcolourproject_2stim_asymm_v5,2020.2.10,MacIntel,60,61025ae37ef11b136ea224fe,,,,,,,,,4031,59,-104,1,0,0,response3disk,,4,-23,-4,1,0,0,rectangle,-23,-4,1,0,0,-23,-4,1,0,0,0,128,128,157,1,,,,,,,,
,,,,,,,,,,,,,FF,,,,,,,,1.784,,,,,,,,,,,,,,,,,,,,,,61018f3269df71dfbea45098,61036a83ac7ff1e9063ecfe8,2021-07-29_22h57.47.983,Simcolourproject_2stim_asymm_v5,2020.2.10,MacIntel,60,61025ae37ef11b136ea224fe,,,,,,,,,512,85,-50,1,0,0,response3disk,,5,3,4,1,0,0,rectangle,3,4,1,0,0,3,4,1,0,0,0,129,129,39,1,,,,,,,,
,,,,,,,,,,,,,FF,,,,,,,,0.7,,,,,,,,,,,,,,,,,,,,,,61018f3269df71dfbea45098,61036a83ac7ff1e9063ecfe8,2021-07-29_22h57.47.983,Simcolourproject_2stim_asymm_v5,2020.2.10,MacIntel,60,61025ae37ef11b136ea224fe,,,,,,,,,4070,28,83,1,0,0,response1disk,,7,11,1,1,0,0,rectangle,11,1,1,0,0,11,1,1,0,0,0,130,130,95,1,,,,,,,,
,,,,,,,,,,,,,FF,,,,,,,,1.717,,,,,,,,,,,,,,,,,,,,,,61018f3269df71dfbea45098,61036a83ac7ff1e9063ecfe8,2021-07-29_22h57.47.983,Simcolourproject_2stim_asymm_v5,2020.2.10,MacIntel,60,61025ae37ef11b136ea224fe,,,,,,,,,1583,78,-26,1,0,0,response3disk,,5,-11,7,1,0,0,rectangle,-11,7,1,0,0,-11,7,1,0,0,0,131,131,63,1,,,,,,,,
,,,,,,,,,,,,,FF,,,,,,,,2.416,,,,,,,,,,,,,,,,,,,,,,61018f3269df71dfbea45098,61036a83ac7ff1e9063ecfe8,2021-07-29_22h57.47.983,Simcolourproject_2stim_asymm_v5,2020.2.10,MacIntel,60,61025ae37ef11b136ea224fe,,,,,,,,,3368,59,-45,1,0,0,response3disk,,5,3,-4,1,0,0,rectangle,3,-4,1,0,0,3,-4,1,0,0,0,132,132,82,1,,,,,,,,
,,,,,,,,,,,,,FF,,,,,,,,0.768,,,,,,,,,,,,,,,,,,,,,,61018f3269df71dfbea45098,61036a83ac7ff1e9063ecfe8,2021-07-29_22h57.47.983,Simcolourproject_2stim_asymm_v5,2020.2.10,MacIntel,60,61025ae37ef11b136ea224fe,,,,,,,,,785,39,-101,1,0,0,response3disk,,4,17,14,1,0,0,rectangle,17,14,1,0,0,17,14,1,0,0,0,133,133,94,1,,,,,,,,
,,,,,,,,,,,,,FF,,,,,,,,0.967,,,,,,,,,,,,,,,,,,,,,,61018f3269df71dfbea45098,61036a83ac7ff1e9063ecfe8,2021-07-29_22h57.47.983,Simcolourproject_2stim_asymm_v5,2020.2.10,MacIntel,60,61025ae37ef11b136ea224fe,,,,,,,,,1148,31,61,1,0,0,response1disk,,7,-14,-2,1,0,0,rectangle,-14,-2,1,0,0,-14,-2,1,0,0,0,134,134,59,1,,,,,,,,
,,,,,,,,,,,,,FF,,,,,,,,1,,,,,,,,,,,,,,,,,,,,,,61018f3269df71dfbea45098,61036a83ac7ff1e9063ecfe8,2021-07-29_22h57.47.983,Simcolourproject_2stim_asymm_v5,2020.2.10,MacIntel,60,61025ae37ef11b136ea224fe,,,,,,,,,482,97,-40,1,0,0,response3disk,,5,6,1,1,0,0,rectangle,6,1,1,0,0,6,1,1,0,0,0,135,135,115,1,,,,,,,,
,,,,,,,,,,,,,FF,,,,,,,,0.883,,,,,,,,,,,,,,,,,,,,,,61018f3269df71dfbea45098,61036a83ac7ff1e9063ecfe8,2021-07-29_22h57.47.983,Simcolourproject_2stim_asymm_v5,2020.2.10,MacIntel,60,61025ae37ef11b136ea224fe,,,,,,,,,27,62,36,1,0,0,response1disk,,6,2,-6,1,0,0,rectangle,2,-6,1,0,0,2,-6,1,0,0,0,136,136,146,1,,,,,,,,
,,,,,,,,,,,,,FF,,,,,,,,0.749,,,,,,,,,,,,,,,,,,,,,,61018f3269df71dfbea45098,61036a83ac7ff1e9063ecfe8,2021-07-29_22h57.47.983,Simcolourproject_2stim_asymm_v5,2020.2.10,MacIntel,60,61025ae37ef11b136ea224fe,,,,,,,,,1660,25,-75,1,0,0,response3disk,,4,-32,3,1,0,0,rectangle,-32,3,1,0,0,-32,3,1,0,0,0,137,137,121,1,,,,,,,,
,,,,,,,,,,,,,FF,,,,,,,,0.817,,,,,,,,,,,,,,,,,,,,,,61018f3269df71dfbea45098,61036a83ac7ff1e9063ecfe8,2021-07-29_22h57.47.983,Simcolourproject_2stim_asymm_v5,2020.2.10,MacIntel,60,61025ae37ef11b136ea224fe,,,,,,,,,4365,-29,87,1,0,0,response7disk,,0,-2,3,1,0,0,rectangle,-2,3,1,0,0,-2,3,1,0,0,0,138,138,96,1,,,,,,,,
,,,,,,,,,,,,,FF,,,,,,,,1.185,,,,,,,,,,,,,,,,,,,,,,61018f3269df71dfbea45098,61036a83ac7ff1e9063ecfe8,2021-07-29_22h57.47.983,Simcolourproject_2stim_asymm_v5,2020.2.10,MacIntel,60,61025ae37ef11b136ea224fe,,,,,,,,,3806,43,81,1,0,0,response1disk,,7,12,10,1,0,0,rectangle,-44,98,1,0,0,7,-4,1,0,0,0,139,139,117,1,,response7disk_3,TRUE,0,0,"[112,140,194,113,269,79,104,17,65,4,46,158,176,151,206,96,108,311,200,221]",1.317,rectangle
,,,,,,,,,,,,,FF,,,,,,,,0.75,,,,,,,,,,,,,,,,,,,,,,61018f3269df71dfbea45098,61036a83ac7ff1e9063ecfe8,2021-07-29_22h57.47.983,Simcolourproject_2stim_asymm_v5,2020.2.10,MacIntel,60,61025ae37ef11b136ea224fe,,,,,,,,,2380,-29,-92,1,0,0,response5disk,,3,-14,6,1,0,0,rectangle,-14,6,1,0,0,-14,6,1,0,0,0,140,140,21,1,,,,,,,,
,,,,,,,,,,,,,FF,,,,,,,,1.534,,,,,,,,,,,,,,,,,,,,,,61018f3269df71dfbea45098,61036a83ac7ff1e9063ecfe8,2021-07-29_22h57.47.983,Simcolourproject_2stim_asymm_v5,2020.2.10,MacIntel,60,61025ae37ef11b136ea224fe,,,,,,,,,2274,48,-96,1,0,0,response3disk,,4,18,-3,1,0,0,rectangle,18,-3,1,0,0,18,-3,1,0,0,0,141,141,81,1,,,,,,,,
,,,,,,,,,,,,,FF,,,,,,,,0.667,,,,,,,,,,,,,,,,,,,,,,61018f3269df71dfbea45098,61036a83ac7ff1e9063ecfe8,2021-07-29_22h57.47.983,Simcolourproject_2stim_asymm_v5,2020.2.10,MacIntel,60,61025ae37ef11b136ea224fe,,,,,,,,,1907,48,-84,1,0,0,response3disk,,4,-15,-9,1,0,0,rectangle,-15,-9,1,0,0,-15,-9,1,0,0,0,142,142,10,1,,,,,,,,
,,,,,,,,,,,,,FF,,,,,,,,0.734,,,,,,,,,,,,,,,,,,,,,,61018f3269df71dfbea45098,61036a83ac7ff1e9063ecfe8,2021-07-29_22h57.47.983,Simcolourproject_2stim_asymm_v5,2020.2.10,MacIntel,60,61025ae37ef11b136ea224fe,,,,,,,,,3342,35,-69,1,0,0,response3disk,,4,-21,-5,1,0,0,rectangle,-21,-5,1,0,0,-21,-5,1,0,0,0,143,143,84,1,,,,,,,,
,,,,,,,,,,,,,FF,,,,,,,,1.683,,,,,,,,,,,,,,,,,,,,,,61018f3269df71dfbea45098,61036a83ac7ff1e9063ecfe8,2021-07-29_22h57.47.983,Simcolourproject_2stim_asymm_v5,2020.2.10,MacIntel,60,61025ae37ef11b136ea224fe,,,,,,,,,872,-61,-88,1,0,0,response5disk,,3,-16,2,1,0,0,rectangle,-16,2,1,0,0,-16,2,1,0,0,0,144,144,152,1,,,,,,,,
,,,,,,,,,,,,,FF,,,,,,,,0.751,,,,,,,,,,,,,,,,,,,,,,61018f3269df71dfbea45098,61036a83ac7ff1e9063ecfe8,2021-07-29_22h57.47.983,Simcolourproject_2stim_asymm_v5,2020.2.10,MacIntel,60,61025ae37ef11b136ea224fe,,,,,,,,,1140,121,-74,1,0,0,response3disk,,5,13,-7,1,0,0,rectangle,13,-7,1,0,0,13,-7,1,0,0,0,145,145,148,1,,,,,,,,
,,,,,,,,,,,,,FF,,,,,,,,0.951,,,,,,,,,,,,,,,,,,,,,,61018f3269df71dfbea45098,61036a83ac7ff1e9063ecfe8,2021-07-29_22h57.47.983,Simcolourproject_2stim_asymm_v5,2020.2.10,MacIntel,60,61025ae37ef11b136ea224fe,,,,,,,,,2908,79,48,1,0,0,response1disk,,6,8,-5,1,0,0,rectangle,8,-5,1,0,0,8,-5,1,0,0,0,146,146,151,1,,,,,,,,
,,,,,,,,,,,,,FF,,,,,,,,0.799,,,,,,,,,,,,,,,,,,,,,,61018f3269df71dfbea45098,61036a83ac7ff1e9063ecfe8,2021-07-29_22h57.47.983,Simcolourproject_2stim_asymm_v5,2020.2.10,MacIntel,60,61025ae37ef11b136ea224fe,,,,,,,,,2042,27,-83,1,0,0,response3disk,,4,-18,-5,1,0,0,rectangle,-18,-5,1,0,0,-18,-5,1,0,0,0,147,147,34,1,,,,,,,,
,,,,,,,,,,,,,FF,,,,,,,,0.967,,,,,,,,,,,,,,,,,,,,,,61018f3269df71dfbea45098,61036a83ac7ff1e9063ecfe8,2021-07-29_22h57.47.983,Simcolourproject_2stim_asymm_v5,2020.2.10,MacIntel,60,61025ae37ef11b136ea224fe,,,,,,,,,1642,19,55,1,0,0,response1disk,,7,-6,-3,1,0,0,rectangle,-6,-3,1,0,0,-6,-3,1,0,0,0,148,148,101,1,,,,,,,,
,,,,,,,,,,,,,FF,,,,,,,,1.084,,,,,,,,,,,,,,,,,,,,,,61018f3269df71dfbea45098,61036a83ac7ff1e9063ecfe8,2021-07-29_22h57.47.983,Simcolourproject_2stim_asymm_v5,2020.2.10,MacIntel,60,61025ae37ef11b136ea224fe,,,,,,,,,3683,72,24,1,0,0,response1disk,,6,18,5,1,0,0,rectangle,18,5,1,0,0,18,5,1,0,0,0,149,149,8,1,,,,,,,,
,,,,,,,,,,,,,FF,,,,,,,,1.184,,,,,,,,,,,,,,,,,,,,,,61018f3269df71dfbea45098,61036a83ac7ff1e9063ecfe8,2021-07-29_22h57.47.983,Simcolourproject_2stim_asymm_v5,2020.2.10,MacIntel,60,61025ae37ef11b136ea224fe,,,,,,,,,2615,-56,84,1,0,0,response7disk,,0,-9,-8,1,0,0,rectangle,-21,75,1,0,0,4,5,1,0,0,0,150,150,60,1,,response7disk_3,TRUE,0,0,"[112,140,194,113,269,79,104,17,65,4,46,158,176,151,206,96,108,311,200,221]",1.198,rectangle
,,,,,,,,,,,,,FF,,,,,,,,2.55,,,,,,,,,,,,,,,,,,,,,,61018f3269df71dfbea45098,61036a83ac7ff1e9063ecfe8,2021-07-29_22h57.47.983,Simcolourproject_2stim_asymm_v5,2020.2.10,MacIntel,60,61025ae37ef11b136ea224fe,,,,,,,,,2712,-49,-100,1,0,0,response5disk,,3,-1,-3,1,0,0,rectangle,-1,-3,1,0,0,-1,-3,1,0,0,0,151,151,149,1,,,,,,,,
,,,,,,,,,,,,,FF,,,,,,,,0.633,,,,,,,,,,,,,,,,,,,,,,61018f3269df71dfbea45098,61036a83ac7ff1e9063ecfe8,2021-07-29_22h57.47.983,Simcolourproject_2stim_asymm_v5,2020.2.10,MacIntel,60,61025ae37ef11b136ea224fe,,,,,,,,,1347,69,-17,1,0,0,response3disk,,5,20,-7,1,0,0,rectangle,20,-7,1,0,0,20,-7,1,0,0,0,152,152,107,1,,,,,,,,
,,,,,,,,,,,,,FF,,,,,,,,0.635,,,,,,,,,,,,,,,,,,,,,,61018f3269df71dfbea45098,61036a83ac7ff1e9063ecfe8,2021-07-29_22h57.47.983,Simcolourproject_2stim_asymm_v5,2020.2.10,MacIntel,60,61025ae37ef11b136ea224fe,,,,,,,,,4297,28,63,1,0,0,response1disk,,7,-1,8,1,0,0,rectangle,-1,8,1,0,0,-1,8,1,0,0,0,153,153,88,1,,,,,,,,
,,,,,,,,,,,,,FF,,,,,,,,0.599,,,,,,,,,,,,,,,,,,,,,,61018f3269df71dfbea45098,61036a83ac7ff1e9063ecfe8,2021-07-29_22h57.47.983,Simcolourproject_2stim_asymm_v5,2020.2.10,MacIntel,60,61025ae37ef11b136ea224fe,,,,,,,,,3568,38,79,1,0,0,response1disk,,7,23,4,1,0,0,rectangle,23,4,1,0,0,23,4,1,0,0,0,154,154,118,1,,,,,,,,
,,,,,,,,,,,,,FF,,,,,,,,3.584,,,,,,,,,,,,,,,,,,,,,,61018f3269df71dfbea45098,61036a83ac7ff1e9063ecfe8,2021-07-29_22h57.47.983,Simcolourproject_2stim_asymm_v5,2020.2.10,MacIntel,60,61025ae37ef11b136ea224fe,,,,,,,,,3771,-36,-77,1,0,0,response5disk,,3,1,11,1,0,0,rectangle,1,11,1,0,0,1,11,1,0,0,0,155,155,80,1,,,,,,,,
,,,,,,,,,,,,,FF,,,,,,,,0.933,,,,,,,,,,,,,,,,,,,,,,61018f3269df71dfbea45098,61036a83ac7ff1e9063ecfe8,2021-07-29_22h57.47.983,Simcolourproject_2stim_asymm_v5,2020.2.10,MacIntel,60,61025ae37ef11b136ea224fe,,,,,,,,,3671,-89,-37,1,0,0,response5disk,,2,-33,0,1,0,0,rectangle,-33,0,1,0,0,-33,0,1,0,0,0,156,156,141,1,,,,,,,,
,,,,,,,,,,,,,FF,,,,,,,,0.882,,,,,,,,,,,,,,,,,,,,,,61018f3269df71dfbea45098,61036a83ac7ff1e9063ecfe8,2021-07-29_22h57.47.983,Simcolourproject_2stim_asymm_v5,2020.2.10,MacIntel,60,61025ae37ef11b136ea224fe,,,,,,,,,3147,-47,-83,1,0,0,response5disk,,3,12,-14,1,0,0,rectangle,85,-38,1,0,0,-17,5,1,0,0,0,157,157,124,1,,response3disk_3,TRUE,5,5,"[112,140,194,113,269,79,104,17,65,4,46,158,176,151,206,96,108,311,200,221]",1.265,rectangle
,,,,,,,,,,,,,FF,,,,,,,,2.499,,,,,,,,,,,,,,,,,,,,,,61018f3269df71dfbea45098,61036a83ac7ff1e9063ecfe8,2021-07-29_22h57.47.983,Simcolourproject_2stim_asymm_v5,2020.2.10,MacIntel,60,61025ae37ef11b136ea224fe,,,,,,,,,2025,82,26,1,0,0,response1disk,,6,8,-15,1,0,0,rectangle,8,-15,1,0,0,8,-15,1,0,0,0,158,158,87,1,,,,,,,,
,,,,,,,,,,,,,FF,,,,,,,,0.801,,,,,,,,,,,,,,,,,,,,,,61018f3269df71dfbea45098,61036a83ac7ff1e9063ecfe8,2021-07-29_22h57.47.983,Simcolourproject_2stim_asymm_v5,2020.2.10,MacIntel,60,61025ae37ef11b136ea224fe,,,,,,,,,4318,57,-38,1,0,0,response3disk,,5,1,-9,1,0,0,rectangle,1,-9,1,0,0,1,-9,1,0,0,0,159,159,140,1,,,,,,,,
,,,,,,,,,,,,,FF,,,,,,,,0.849,,,,,,,,,,,,,,,,,,,,,,61018f3269df71dfbea45098,61036a83ac7ff1e9063ecfe8,2021-07-29_22h57.47.983,Simcolourproject_2stim_asymm_v5,2020.2.10,MacIntel,60,61025ae37ef11b136ea224fe,,,,,,,,,3738,26,60,1,0,0,response1disk,,7,4,6,1,0,0,rectangle,4,6,1,0,0,4,6,1,0,0,1,0,160,58,1,,,,,,,,
,,,,,,,,,,,,,FF,,,,,,,,0.716,,,,,,,,,,,,,,,,,,,,,,61018f3269df71dfbea45098,61036a83ac7ff1e9063ecfe8,2021-07-29_22h57.47.983,Simcolourproject_2stim_asymm_v5,2020.2.10,MacIntel,60,61025ae37ef11b136ea224fe,,,,,,,,,2954,-34,-89,1,0,0,response5disk,,3,4,8,1,0,0,rectangle,4,8,1,0,0,4,8,1,0,0,1,1,161,94,1,,,,,,,,
,,,,,,,,,,,,,FF,,,,,,,,1.549,,,,,,,,,,,,,,,,,,,,,,61018f3269df71dfbea45098,61036a83ac7ff1e9063ecfe8,2021-07-29_22h57.47.983,Simcolourproject_2stim_asymm_v5,2020.2.10,MacIntel,60,61025ae37ef11b136ea224fe,,,,,,,,,877,67,-42,1,0,0,response3disk,,5,19,-13,1,0,0,rectangle,19,-13,1,0,0,19,-13,1,0,0,1,2,162,105,1,,,,,,,,
,,,,,,,,,,,,,FF,,,,,,,,0.833,,,,,,,,,,,,,,,,,,,,,,61018f3269df71dfbea45098,61036a83ac7ff1e9063ecfe8,2021-07-29_22h57.47.983,Simcolourproject_2stim_asymm_v5,2020.2.10,MacIntel,60,61025ae37ef11b136ea224fe,,,,,,,,,4082,22,-84,1,0,0,response3disk,,4,7,7,1,0,0,rectangle,7,7,1,0,0,7,7,1,0,0,1,3,163,135,1,,,,,,,,
,,,,,,,,,,,,,FF,,,,,,,,0.75,,,,,,,,,,,,,,,,,,,,,,61018f3269df71dfbea45098,61036a83ac7ff1e9063ecfe8,2021-07-29_22h57.47.983,Simcolourproject_2stim_asymm_v5,2020.2.10,MacIntel,60,61025ae37ef11b136ea224fe,,,,,,,,,3825,24,52,1,0,0,response1disk,,7,22,15,1,0,0,rectangle,22,15,1,0,0,22,15,1,0,0,1,4,164,126,1,,,,,,,,
,,,,,,,,,,,,,FF,,,,,,,,1.15,,,,,,,,,,,,,,,,,,,,,,61018f3269df71dfbea45098,61036a83ac7ff1e9063ecfe8,2021-07-29_22h57.47.983,Simcolourproject_2stim_asymm_v5,2020.2.10,MacIntel,60,61025ae37ef11b136ea224fe,,,,,,,,,3811,-71,-35,1,0,0,response5disk,,2,-34,-10,1,0,0,rectangle,-34,-10,1,0,0,-34,-10,1,0,0,1,5,165,69,1,,,,,,,,
,,,,,,,,,,,,,FF,,,,,,,,0.85,,,,,,,,,,,,,,,,,,,,,,61018f3269df71dfbea45098,61036a83ac7ff1e9063ecfe8,2021-07-29_22h57.47.983,Simcolourproject_2stim_asymm_v5,2020.2.10,MacIntel,60,61025ae37ef11b136ea224fe,,,,,,,,,4214,18,46,1,0,0,response1disk,,7,12,1,1,0,0,rectangle,12,1,1,0,0,12,1,1,0,0,1,6,166,83,1,,,,,,,,
,,,,,,,,,,,,,FF,,,,,,,,1.033,,,,,,,,,,,,,,,,,,,,,,61018f3269df71dfbea45098,61036a83ac7ff1e9063ecfe8,2021-07-29_22h57.47.983,Simcolourproject_2stim_asymm_v5,2020.2.10,MacIntel,60,61025ae37ef11b136ea224fe,,,,,,,,,2701,41,63,1,0,0,response1disk,,7,6,-2,1,0,0,rectangle,6,-2,1,0,0,6,-2,1,0,0,1,7,167,140,1,,,,,,,,
,,,,,,,,,,,,,FF,,,,,,,,1.033,,,,,,,,,,,,,,,,,,,,,,61018f3269df71dfbea45098,61036a83ac7ff1e9063ecfe8,2021-07-29_22h57.47.983,Simcolourproject_2stim_asymm_v5,2020.2.10,MacIntel,60,61025ae37ef11b136ea224fe,,,,,,,,,653,91,34,1,0,0,response1disk,,6,-9,-17,1,0,0,rectangle,-9,-17,1,0,0,-9,-17,1,0,0,1,8,168,131,1,,,,,,,,
,,,,,,,,,,,,,FF,,,,,,,,1.35,,,,,,,,,,,,,,,,,,,,,,61018f3269df71dfbea45098,61036a83ac7ff1e9063ecfe8,2021-07-29_22h57.47.983,Simcolourproject_2stim_asymm_v5,2020.2.10,MacIntel,60,61025ae37ef11b136ea224fe,,,,,,,,,3200,24,-65,1,0,0,response3disk,,4,-21,-10,1,0,0,rectangle,-21,-10,1,0,0,-21,-10,1,0,0,1,9,169,102,1,,,,,,,,
,,,,,,,,,,,,,FF,,,,,,,,10.5,,,,,,,,,,,,,,,,,,,,,,61018f3269df71dfbea45098,61036a83ac7ff1e9063ecfe8,2021-07-29_22h57.47.983,Simcolourproject_2stim_asymm_v5,2020.2.10,MacIntel,60,61025ae37ef11b136ea224fe,,,,,,,,,2934,-36,-79,1,0,0,response5disk,,3,-7,-4,1,0,0,rectangle,-7,-4,1,0,0,-7,-4,1,0,0,1,10,170,132,1,,,,,,,,
,,,,,,,,,,,,,FF,,,,,,,,2.168,,,,,,,,,,,,,,,,,,,,,,61018f3269df71dfbea45098,61036a83ac7ff1e9063ecfe8,2021-07-29_22h57.47.983,Simcolourproject_2stim_asymm_v5,2020.2.10,MacIntel,60,61025ae37ef11b136ea224fe,,,,,,,,,694,31,-93,1,0,0,response3disk,,4,-14,6,1,0,0,rectangle,-14,6,1,0,0,-14,6,1,0,0,1,11,171,125,1,,,,,,,,
,,,,,,,,,,,,,FF,,,,,,,,1.516,,,,,,,,,,,,,,,,,,,,,,61018f3269df71dfbea45098,61036a83ac7ff1e9063ecfe8,2021-07-29_22h57.47.983,Simcolourproject_2stim_asymm_v5,2020.2.10,MacIntel,60,61025ae37ef11b136ea224fe,,,,,,,,,2198,31,-103,1,0,0,response3disk,,4,12,-13,1,0,0,rectangle,12,-13,1,0,0,12,-13,1,0,0,1,12,172,21,1,,,,,,,,
,,,,,,,,,,,,,FF,,,,,,,,1.1,,,,,,,,,,,,,,,,,,,,,,61018f3269df71dfbea45098,61036a83ac7ff1e9063ecfe8,2021-07-29_22h57.47.983,Simcolourproject_2stim_asymm_v5,2020.2.10,MacIntel,60,61025ae37ef11b136ea224fe,,,,,,,,,1164,75,-47,1,0,0,response3disk,,5,-8,12,1,0,0,rectangle,-8,12,1,0,0,-8,12,1,0,0,1,13,173,98,1,,,,,,,,
,,,,,,,,,,,,,FF,,,,,,,,1.332,,,,,,,,,,,,,,,,,,,,,,61018f3269df71dfbea45098,61036a83ac7ff1e9063ecfe8,2021-07-29_22h57.47.983,Simcolourproject_2stim_asymm_v5,2020.2.10,MacIntel,60,61025ae37ef11b136ea224fe,,,,,,,,,548,-105,18,1,0,0,response7disk,,1,-33,-5,1,0,0,rectangle,-33,-5,1,0,0,-33,-5,1,0,0,1,14,174,6,1,,,,,,,,
,,,,,,,,,,,,,FF,,,,,,,,0.866,,,,,,,,,,,,,,,,,,,,,,61018f3269df71dfbea45098,61036a83ac7ff1e9063ecfe8,2021-07-29_22h57.47.983,Simcolourproject_2stim_asymm_v5,2020.2.10,MacIntel,60,61025ae37ef11b136ea224fe,,,,,,,,,776,-126,-61,1,0,0,response5disk,,2,-23,-7,1,0,0,rectangle,111,55,1,0,0,-8,8,1,0,0,1,15,175,79,1,,response1disk_3,TRUE,6,6,"[112,140,194,113,269,79,104,17,65,4,46,158,176,151,206,96,108,311,200,221]",2.284,rectangle
,,,,,,,,,,,,,FF,,,,,,,,1.052,,,,,,,,,,,,,,,,,,,,,,61018f3269df71dfbea45098,61036a83ac7ff1e9063ecfe8,2021-07-29_22h57.47.983,Simcolourproject_2stim_asymm_v5,2020.2.10,MacIntel,60,61025ae37ef11b136ea224fe,,,,,,,,,556,97,-43,1,0,0,response3disk,,5,7,-6,1,0,0,rectangle,7,-6,1,0,0,7,-6,1,0,0,1,16,176,2,1,,,,,,,,
,,,,,,,,,,,,,FF,,,,,,,,0.683,,,,,,,,,,,,,,,,,,,,,,61018f3269df71dfbea45098,61036a83ac7ff1e9063ecfe8,2021-07-29_22h57.47.983,Simcolourproject_2stim_asymm_v5,2020.2.10,MacIntel,60,61025ae37ef11b136ea224fe,,,,,,,,,3097,-48,-72,1,0,0,response5disk,,3,-18,5,1,0,0,rectangle,-18,5,1,0,0,-18,5,1,0,0,1,17,177,152,1,,,,,,,,
,,,,,,,,,,,,,FF,,,,,,,,0.733,,,,,,,,,,,,,,,,,,,,,,61018f3269df71dfbea45098,61036a83ac7ff1e9063ecfe8,2021-07-29_22h57.47.983,Simcolourproject_2stim_asymm_v5,2020.2.10,MacIntel,60,61025ae37ef11b136ea224fe,,,,,,,,,1705,-42,-59,1,0,0,response5disk,,3,-18,2,1,0,0,rectangle,-18,2,1,0,0,-18,2,1,0,0,1,18,178,134,1,,,,,,,,
,,,,,,,,,,,,,FF,,,,,,,,0.999,,,,,,,,,,,,,,,,,,,,,,61018f3269df71dfbea45098,61036a83ac7ff1e9063ecfe8,2021-07-29_22h57.47.983,Simcolourproject_2stim_asymm_v5,2020.2.10,MacIntel,60,61025ae37ef11b136ea224fe,,,,,,,,,2141,89,-50,1,0,0,response3disk,,5,-8,-8,1,0,0,rectangle,-8,-8,1,0,0,-8,-8,1,0,0,1,19,179,85,1,,,,,,,,
,,,,,,,,,,,,,FF,,,,,,,,2.435,,,,,,,,,,,,,,,,,,,,,,61018f3269df71dfbea45098,61036a83ac7ff1e9063ecfe8,2021-07-29_22h57.47.983,Simcolourproject_2stim_asymm_v5,2020.2.10,MacIntel,60,61025ae37ef11b136ea224fe,,,,,,,,,2856,65,38,1,0,0,response1disk,,6,9,-1,1,0,0,rectangle,9,-1,1,0,0,9,-1,1,0,0,1,20,180,84,1,,,,,,,,
,,,,,,,,,,,,,FF,,,,,,,,1.45,,,,,,,,,,,,,,,,,,,,,,61018f3269df71dfbea45098,61036a83ac7ff1e9063ecfe8,2021-07-29_22h57.47.983,Simcolourproject_2stim_asymm_v5,2020.2.10,MacIntel,60,61025ae37ef11b136ea224fe,,,,,,,,,2173,-25,-76,1,0,0,response5disk,,3,-8,0,1,0,0,rectangle,-8,0,1,0,0,-8,0,1,0,0,1,21,181,71,1,,,,,,,,
,,,,,,,,,,,,,FF,,,,,,,,3.434,,,,,,,,,,,,,,,,,,,,,,61018f3269df71dfbea45098,61036a83ac7ff1e9063ecfe8,2021-07-29_22h57.47.983,Simcolourproject_2stim_asymm_v5,2020.2.10,MacIntel,60,61025ae37ef11b136ea224fe,,,,,,,,,1061,45,-90,1,0,0,response3disk,,4,5,2,1,0,0,rectangle,5,2,1,0,0,5,2,1,0,0,1,22,182,128,1,,,,,,,,
,,,,,,,,,,,,,FF,,,,,,,,1.233,,,,,,,,,,,,,,,,,,,,,,61018f3269df71dfbea45098,61036a83ac7ff1e9063ecfe8,2021-07-29_22h57.47.983,Simcolourproject_2stim_asymm_v5,2020.2.10,MacIntel,60,61025ae37ef11b136ea224fe,,,,,,,,,2963,70,28,1,0,0,response1disk,,6,21,14,1,0,0,rectangle,21,14,1,0,0,21,14,1,0,0,1,23,183,78,1,,,,,,,,
,,,,,,,,,,,,,FF,,,,,,,,1.201,,,,,,,,,,,,,,,,,,,,,,61018f3269df71dfbea45098,61036a83ac7ff1e9063ecfe8,2021-07-29_22h57.47.983,Simcolourproject_2stim_asymm_v5,2020.2.10,MacIntel,60,61025ae37ef11b136ea224fe,,,,,,,,,1434,27,-97,1,0,0,response3disk,,4,-4,14,1,0,0,rectangle,-4,14,1,0,0,-4,14,1,0,0,1,24,184,24,1,,,,,,,,
,,,,,,,,,,,,,FF,,,,,,,,1.917,,,,,,,,,,,,,,,,,,,,,,61018f3269df71dfbea45098,61036a83ac7ff1e9063ecfe8,2021-07-29_22h57.47.983,Simcolourproject_2stim_asymm_v5,2020.2.10,MacIntel,60,61025ae37ef11b136ea224fe,,,,,,,,,179,35,73,1,0,0,response1disk,,7,0,-14,1,0,0,rectangle,0,-14,1,0,0,0,-14,1,0,0,1,25,185,88,1,,,,,,,,
,,,,,,,,,,,,,FF,,,,,,,,1.266,,,,,,,,,,,,,,,,,,,,,,61018f3269df71dfbea45098,61036a83ac7ff1e9063ecfe8,2021-07-29_22h57.47.983,Simcolourproject_2stim_asymm_v5,2020.2.10,MacIntel,60,61025ae37ef11b136ea224fe,,,,,,,,,175,49,-88,1,0,0,response3disk,,4,-19,5,1,0,0,rectangle,-19,5,1,0,0,-19,5,1,0,0,1,26,186,139,1,,,,,,,,
,,,,,,,,,,,,,FF,,,,,,,,1.817,,,,,,,,,,,,,,,,,,,,,,61018f3269df71dfbea45098,61036a83ac7ff1e9063ecfe8,2021-07-29_22h57.47.983,Simcolourproject_2stim_asymm_v5,2020.2.10,MacIntel,60,61025ae37ef11b136ea224fe,,,,,,,,,821,43,34,1,0,0,response1disk,,6,7,-10,1,0,0,rectangle,7,-10,1,0,0,7,-10,1,0,0,1,27,187,99,1,,,,,,,,
,,,,,,,,,,,,,FF,,,,,,,,2.049,,,,,,,,,,,,,,,,,,,,,,61018f3269df71dfbea45098,61036a83ac7ff1e9063ecfe8,2021-07-29_22h57.47.983,Simcolourproject_2stim_asymm_v5,2020.2.10,MacIntel,60,61025ae37ef11b136ea224fe,,,,,,,,,2433,-42,-79,1,0,0,response5disk,,3,-3,14,1,0,0,rectangle,-3,14,1,0,0,-3,14,1,0,0,1,28,188,13,1,,,,,,,,
,,,,,,,,,,,,,FF,,,,,,,,1.35,,,,,,,,,,,,,,,,,,,,,,61018f3269df71dfbea45098,61036a83ac7ff1e9063ecfe8,2021-07-29_22h57.47.983,Simcolourproject_2stim_asymm_v5,2020.2.10,MacIntel,60,61025ae37ef11b136ea224fe,,,,,,,,,338,-32,-90,1,0,0,response5disk,,3,-10,-12,1,0,0,rectangle,-10,-12,1,0,0,-10,-12,1,0,0,1,29,189,95,1,,,,,,,,
,,,,,,,,,,,,,FF,,,,,,,,0.802,,,,,,,,,,,,,,,,,,,,,,61018f3269df71dfbea45098,61036a83ac7ff1e9063ecfe8,2021-07-29_22h57.47.983,Simcolourproject_2stim_asymm_v5,2020.2.10,MacIntel,60,61025ae37ef11b136ea224fe,,,,,,,,,722,-49,-95,1,0,0,response5disk,,3,-24,11,1,0,0,rectangle,-24,11,1,0,0,-24,11,1,0,0,1,30,190,62,1,,,,,,,,
,,,,,,,,,,,,,FF,,,,,,,,1.917,,,,,,,,,,,,,,,,,,,,,,61018f3269df71dfbea45098,61036a83ac7ff1e9063ecfe8,2021-07-29_22h57.47.983,Simcolourproject_2stim_asymm_v5,2020.2.10,MacIntel,60,61025ae37ef11b136ea224fe,,,,,,,,,181,33,86,1,0,0,response1disk,,7,8,5,1,0,0,rectangle,8,5,1,0,0,8,5,1,0,0,1,31,191,32,1,,,,,,,,
,,,,,,,,,,,,,FF,,,,,,,,1.249,,,,,,,,,,,,,,,,,,,,,,61018f3269df71dfbea45098,61036a83ac7ff1e9063ecfe8,2021-07-29_22h57.47.983,Simcolourproject_2stim_asymm_v5,2020.2.10,MacIntel,60,61025ae37ef11b136ea224fe,,,,,,,,,2912,76,44,1,0,0,response1disk,,6,3,5,1,0,0,rectangle,3,5,1,0,0,3,5,1,0,0,1,32,192,91,1,,,,,,,,
,,,,,,,,,,,,,FF,,,,,,,,1.15,,,,,,,,,,,,,,,,,,,,,,61018f3269df71dfbea45098,61036a83ac7ff1e9063ecfe8,2021-07-29_22h57.47.983,Simcolourproject_2stim_asymm_v5,2020.2.10,MacIntel,60,61025ae37ef11b136ea224fe,,,,,,,,,3859,27,-88,1,0,0,response3disk,,4,-30,12,1,0,0,rectangle,-39,-97,1,0,0,-7,9,1,0,0,1,33,193,77,1,,response5disk_3,TRUE,3,3,"[112,140,194,113,269,79,104,17,65,4,46,158,176,151,206,96,108,311,200,221]",1.667,rectangle
,,,,,,,,,,,,,FF,,,,,,,,1.735,,,,,,,,,,,,,,,,,,,,,,61018f3269df71dfbea45098,61036a83ac7ff1e9063ecfe8,2021-07-29_22h57.47.983,Simcolourproject_2stim_asymm_v5,2020.2.10,MacIntel,60,61025ae37ef11b136ea224fe,,,,,,,,,3885,53,-84,1,0,0,response3disk,,4,0,15,1,0,0,rectangle,0,15,1,0,0,0,15,1,0,0,1,34,194,65,1,,,,,,,,
,,,,,,,,,,,,,FF,,,,,,,,1.201,,,,,,,,,,,,,,,,,,,,,,61018f3269df71dfbea45098,61036a83ac7ff1e9063ecfe8,2021-07-29_22h57.47.983,Simcolourproject_2stim_asymm_v5,2020.2.10,MacIntel,60,61025ae37ef11b136ea224fe,,,,,,,,,3206,48,41,1,0,0,response1disk,,6,-1,-4,1,0,0,rectangle,-1,-4,1,0,0,-1,-4,1,0,0,1,35,195,18,1,,,,,,,,
,,,,,,,,,,,,,FF,,,,,,,,3.4,,,,,,,,,,,,,,,,,,,,,,61018f3269df71dfbea45098,61036a83ac7ff1e9063ecfe8,2021-07-29_22h57.47.983,Simcolourproject_2stim_asymm_v5,2020.2.10,MacIntel,60,61025ae37ef11b136ea224fe,,,,,,,,,2925,26,63,1,0,0,response1disk,,7,3,10,1,0,0,rectangle,3,10,1,0,0,3,10,1,0,0,1,36,196,115,1,,,,,,,,
,,,,,,,,,,,,,FF,,,,,,,,3.382,,,,,,,,,,,,,,,,,,,,,,61018f3269df71dfbea45098,61036a83ac7ff1e9063ecfe8,2021-07-29_22h57.47.983,Simcolourproject_2stim_asymm_v5,2020.2.10,MacIntel,60,61025ae37ef11b136ea224fe,,,,,,,,,1546,52,-95,1,0,0,response3disk,,4,5,3,1,0,0,rectangle,5,3,1,0,0,5,3,1,0,0,1,37,197,141,1,,,,,,,,
,,,,,,,,,,,,,FF,,,,,,,,1.884,,,,,,,,,,,,,,,,,,,,,,61018f3269df71dfbea45098,61036a83ac7ff1e9063ecfe8,2021-07-29_22h57.47.983,Simcolourproject_2stim_asymm_v5,2020.2.10,MacIntel,60,61025ae37ef11b136ea224fe,,,,,,,,,1303,39,73,1,0,0,response1disk,,7,2,-3,1,0,0,rectangle,2,-3,1,0,0,2,-3,1,0,0,1,38,198,17,1,,,,,,,,
,,,,,,,,,,,,,FF,,,,,,,,1.269,,,,,,,,,,,,,,,,,,,,,,61018f3269df71dfbea45098,61036a83ac7ff1e9063ecfe8,2021-07-29_22h57.47.983,Simcolourproject_2stim_asymm_v5,2020.2.10,MacIntel,60,61025ae37ef11b136ea224fe,,,,,,,,,3073,73,25,1,0,0,response1disk,,6,13,-2,1,0,0,rectangle,31,-122,1,0,0,8,-6,1,0,0,1,39,199,64,1,,response3disk_3,TRUE,4,4,"[112,140,194,113,269,79,104,17,65,4,46,158,176,151,206,96,108,311,200,221]",1.45,rectangle
,,,,,,,,,,,,,FF,,,,,,,,0.783,,,,,,,,,,,,,,,,,,,,,,61018f3269df71dfbea45098,61036a83ac7ff1e9063ecfe8,2021-07-29_22h57.47.983,Simcolourproject_2stim_asymm_v5,2020.2.10,MacIntel,60,61025ae37ef11b136ea224fe,,,,,,,,,1870,95,-26,1,0,0,response3disk,,5,-6,13,1,0,0,rectangle,-6,13,1,0,0,-6,13,1,0,0,1,40,200,59,1,,,,,,,,
,,,,,,,,,,,,,FF,,,,,,,,2.016,,,,,,,,,,,,,,,,,,,,,,61018f3269df71dfbea45098,61036a83ac7ff1e9063ecfe8,2021-07-29_22h57.47.983,Simcolourproject_2stim_asymm_v5,2020.2.10,MacIntel,60,61025ae37ef11b136ea224fe,,,,,,,,,915,94,-47,1,0,0,response3disk,,5,30,3,1,0,0,rectangle,30,3,1,0,0,30,3,1,0,0,1,41,201,144,1,,,,,,,,
,,,,,,,,,,,,,FF,,,,,,,,1.066,,,,,,,,,,,,,,,,,,,,,,61018f3269df71dfbea45098,61036a83ac7ff1e9063ecfe8,2021-07-29_22h57.47.983,Simcolourproject_2stim_asymm_v5,2020.2.10,MacIntel,60,61025ae37ef11b136ea224fe,,,,,,,,,1673,-41,-84,1,0,0,response5disk,,3,-23,-5,1,0,0,rectangle,-23,-5,1,0,0,-23,-5,1,0,0,1,42,202,158,1,,,,,,,,
,,,,,,,,,,,,,FF,,,,,,,,0.918,,,,,,,,,,,,,,,,,,,,,,61018f3269df71dfbea45098,61036a83ac7ff1e9063ecfe8,2021-07-29_22h57.47.983,Simcolourproject_2stim_asymm_v5,2020.2.10,MacIntel,60,61025ae37ef11b136ea224fe,,,,,,,,,577,72,35,1,0,0,response1disk,,6,3,-3,1,0,0,rectangle,3,-3,1,0,0,3,-3,1,0,0,1,43,203,124,1,,,,,,,,
,,,,,,,,,,,,,FF,,,,,,,,0.868,,,,,,,,,,,,,,,,,,,,,,61018f3269df71dfbea45098,61036a83ac7ff1e9063ecfe8,2021-07-29_22h57.47.983,Simcolourproject_2stim_asymm_v5,2020.2.10,MacIntel,60,61025ae37ef11b136ea224fe,,,,,,,,,648,35,83,1,0,0,response1disk,,7,10,-2,1,0,0,rectangle,10,-2,1,0,0,10,-2,1,0,0,1,44,204,41,1,,,,,,,,
,,,,,,,,,,,,,FF,,,,,,,,1.65,,,,,,,,,,,,,,,,,,,,,,61018f3269df71dfbea45098,61036a83ac7ff1e9063ecfe8,2021-07-29_22h57.47.983,Simcolourproject_2stim_asymm_v5,2020.2.10,MacIntel,60,61025ae37ef11b136ea224fe,,,,,,,,,3996,34,-100,1,0,0,response3disk,,4,9,2,1,0,0,rectangle,-121,38,1,0,0,-2,-7,1,0,0,1,45,205,45,1,,response7disk_3,TRUE,1,1,"[112,140,194,113,269,79,104,17,65,4,46,158,176,151,206,96,108,311,200,221]",1.4,rectangle
,,,,,,,,,,,,,FF,,,,,,,,1.934,,,,,,,,,,,,,,,,,,,,,,61018f3269df71dfbea45098,61036a83ac7ff1e9063ecfe8,2021-07-29_22h57.47.983,Simcolourproject_2stim_asymm_v5,2020.2.10,MacIntel,60,61025ae37ef11b136ea224fe,,,,,,,,,1629,95,-27,1,0,0,response3disk,,5,9,-12,1,0,0,rectangle,9,-12,1,0,0,9,-12,1,0,0,1,46,206,113,1,,,,,,,,
,,,,,,,,,,,,,FF,,,,,,,,0.766,,,,,,,,,,,,,,,,,,,,,,61018f3269df71dfbea45098,61036a83ac7ff1e9063ecfe8,2021-07-29_22h57.47.983,Simcolourproject_2stim_asymm_v5,2020.2.10,MacIntel,60,61025ae37ef11b136ea224fe,,,,,,,,,2390,31,52,1,0,0,response1disk,,7,20,3,1,0,0,rectangle,20,3,1,0,0,20,3,1,0,0,1,47,207,104,1,,,,,,,,
,,,,,,,,,,,,,FF,,,,,,,,1.501,,,,,,,,,,,,,,,,,,,,,,61018f3269df71dfbea45098,61036a83ac7ff1e9063ecfe8,2021-07-29_22h57.47.983,Simcolourproject_2stim_asymm_v5,2020.2.10,MacIntel,60,61025ae37ef11b136ea224fe,,,,,,,,,756,59,-83,1,0,0,response3disk,,4,6,-13,1,0,0,rectangle,6,-13,1,0,0,6,-13,1,0,0,1,48,208,149,1,,,,,,,,
,,,,,,,,,,,,,FF,,,,,,,,0.767,,,,,,,,,,,,,,,,,,,,,,61018f3269df71dfbea45098,61036a83ac7ff1e9063ecfe8,2021-07-29_22h57.47.983,Simcolourproject_2stim_asymm_v5,2020.2.10,MacIntel,60,61025ae37ef11b136ea224fe,,,,,,,,,794,71,19,1,0,0,response1disk,,6,5,-8,1,0,0,rectangle,5,-8,1,0,0,5,-8,1,0,0,1,49,209,37,1,,,,,,,,
,,,,,,,,,,,,,FF,,,,,,,,0.75,,,,,,,,,,,,,,,,,,,,,,61018f3269df71dfbea45098,61036a83ac7ff1e9063ecfe8,2021-07-29_22h57.47.983,Simcolourproject_2stim_asymm_v5,2020.2.10,MacIntel,60,61025ae37ef11b136ea224fe,,,,,,,,,2459,35,98,1,0,0,response1disk,,7,-7,-16,1,0,0,rectangle,-7,-16,1,0,0,-7,-16,1,0,0,1,50,210,138,1,,,,,,,,
,,,,,,,,,,,,,FF,,,,,,,,0.716,,,,,,,,,,,,,,,,,,,,,,61018f3269df71dfbea45098,61036a83ac7ff1e9063ecfe8,2021-07-29_22h57.47.983,Simcolourproject_2stim_asymm_v5,2020.2.10,MacIntel,60,61025ae37ef11b136ea224fe,,,,,,,,,221,83,48,1,0,0,response1disk,,6,-2,-13,1,0,0,rectangle,-2,-13,1,0,0,-2,-13,1,0,0,1,51,211,82,1,,,,,,,,
,,,,,,,,,,,,,FF,,,,,,,,1.334,,,,,,,,,,,,,,,,,,,,,,61018f3269df71dfbea45098,61036a83ac7ff1e9063ecfe8,2021-07-29_22h57.47.983,Simcolourproject_2stim_asymm_v5,2020.2.10,MacIntel,60,61025ae37ef11b136ea224fe,,,,,,,,,2371,-53,-68,1,0,0,response5disk,,3,-35,-4,1,0,0,rectangle,-35,-4,1,0,0,-35,-4,1,0,0,1,52,212,148,1,,,,,,,,
,,,,,,,,,,,,,FF,,,,,,,,1.567,,,,,,,,,,,,,,,,,,,,,,61018f3269df71dfbea45098,61036a83ac7ff1e9063ecfe8,2021-07-29_22h57.47.983,Simcolourproject_2stim_asymm_v5,2020.2.10,MacIntel,60,61025ae37ef11b136ea224fe,,,,,,,,,1389,46,73,1,0,0,response1disk,,7,12,-13,1,0,0,rectangle,12,-13,1,0,0,12,-13,1,0,0,1,53,213,120,1,,,,,,,,
,,,,,,,,,,,,,FF,,,,,,,,0.633,,,,,,,,,,,,,,,,,,,,,,61018f3269df71dfbea45098,61036a83ac7ff1e9063ecfe8,2021-07-29_22h57.47.983,Simcolourproject_2stim_asymm_v5,2020.2.10,MacIntel,60,61025ae37ef11b136ea224fe,,,,,,,,,835,59,34,1,0,0,response1disk,,6,8,-1,1,0,0,rectangle,8,-1,1,0,0,8,-1,1,0,0,1,54,214,72,1,,,,,,,,
,,,,,,,,,,,,,FF,,,,,,,,1.583,,,,,,,,,,,,,,,,,,,,,,61018f3269df71dfbea45098,61036a83ac7ff1e9063ecfe8,2021-07-29_22h57.47.983,Simcolourproject_2stim_asymm_v5,2020.2.10,MacIntel,60,61025ae37ef11b136ea224fe,,,,,,,,,1095,66,-52,1,0,0,response3disk,,5,-19,3,1,0,0,rectangle,-19,3,1,0,0,-19,3,1,0,0,1,55,215,150,1,,,,,,,,
,,,,,,,,,,,,,FF,,,,,,,,0.933,,,,,,,,,,,,,,,,,,,,,,61018f3269df71dfbea45098,61036a83ac7ff1e9063ecfe8,2021-07-29_22h57.47.983,Simcolourproject_2stim_asymm_v5,2020.2.10,MacIntel,60,61025ae37ef11b136ea224fe,,,,,,,,,2041,-55,-79,1,0,0,response5disk,,3,-27,-11,1,0,0,rectangle,-27,-11,1,0,0,-27,-11,1,0,0,1,56,216,0,1,,,,,,,,
,,,,,,,,,,,,,FF,,,,,,,,1.884,,,,,,,,,,,,,,,,,,,,,,61018f3269df71dfbea45098,61036a83ac7ff1e9063ecfe8,2021-07-29_22h57.47.983,Simcolourproject_2stim_asymm_v5,2020.2.10,MacIntel,60,61025ae37ef11b136ea224fe,,,,,,,,,1485,19,82,1,0,0,response1disk,,7,-3,10,1,0,0,rectangle,-3,10,1,0,0,-3,10,1,0,0,1,57,217,143,1,,,,,,,,
,,,,,,,,,,,,,FF,,,,,,,,0.867,,,,,,,,,,,,,,,,,,,,,,61018f3269df71dfbea45098,61036a83ac7ff1e9063ecfe8,2021-07-29_22h57.47.983,Simcolourproject_2stim_asymm_v5,2020.2.10,MacIntel,60,61025ae37ef11b136ea224fe,,,,,,,,,3079,95,32,1,0,0,response1disk,,6,13,15,1,0,0,rectangle,13,15,1,0,0,13,15,1,0,0,1,58,218,35,1,,,,,,,,
,,,,,,,,,,,,,FF,,,,,,,,0.6,,,,,,,,,,,,,,,,,,,,,,61018f3269df71dfbea45098,61036a83ac7ff1e9063ecfe8,2021-07-29_22h57.47.983,Simcolourproject_2stim_asymm_v5,2020.2.10,MacIntel,60,61025ae37ef11b136ea224fe,,,,,,,,,827,51,29,1,0,0,response1disk,,6,-2,-6,1,0,0,rectangle,-2,-6,1,0,0,-2,-6,1,0,0,1,59,219,48,1,,,,,,,,
,,,,,,,,,,,,,FF,,,,,,,,0.668,,,,,,,,,,,,,,,,,,,,,,61018f3269df71dfbea45098,61036a83ac7ff1e9063ecfe8,2021-07-29_22h57.47.983,Simcolourproject_2stim_asymm_v5,2020.2.10,MacIntel,60,61025ae37ef11b136ea224fe,,,,,,,,,1867,64,31,1,0,0,response1disk,,6,13,-5,1,0,0,rectangle,72,35,1,0,0,3,-7,1,0,0,1,60,220,53,1,,response1disk_3,TRUE,6,6,"[112,140,194,113,269,79,104,17,65,4,46,158,176,151,206,96,108,311,200,221]",1.284,rectangle
,,,,,,,,,,,,,FF,,,,,,,,1.699,,,,,,,,,,,,,,,,,,,,,,61018f3269df71dfbea45098,61036a83ac7ff1e9063ecfe8,2021-07-29_22h57.47.983,Simcolourproject_2stim_asymm_v5,2020.2.10,MacIntel,60,61025ae37ef11b136ea224fe,,,,,,,,,2284,57,-73,1,0,0,response3disk,,4,33,12,1,0,0,rectangle,33,12,1,0,0,33,12,1,0,0,1,61,221,49,1,,,,,,,,
,,,,,,,,,,,,,FF,,,,,,,,1.217,,,,,,,,,,,,,,,,,,,,,,61018f3269df71dfbea45098,61036a83ac7ff1e9063ecfe8,2021-07-29_22h57.47.983,Simcolourproject_2stim_asymm_v5,2020.2.10,MacIntel,60,61025ae37ef11b136ea224fe,,,,,,,,,1900,29,-85,1,0,0,response3disk,,4,12,-11,1,0,0,rectangle,12,-11,1,0,0,12,-11,1,0,0,1,62,222,19,1,,,,,,,,
,,,,,,,,,,,,,FF,,,,,,,,3.3,,,,,,,,,,,,,,,,,,,,,,61018f3269df71dfbea45098,61036a83ac7ff1e9063ecfe8,2021-07-29_22h57.47.983,Simcolourproject_2stim_asymm_v5,2020.2.10,MacIntel,60,61025ae37ef11b136ea224fe,,,,,,,,,4313,94,23,1,0,0,response1disk,,6,2,-1,1,0,0,rectangle,2,-1,1,0,0,2,-1,1,0,0,1,63,223,108,1,,,,,,,,
,,,,,,,,,,,,,FF,,,,,,,,1.234,,,,,,,,,,,,,,,,,,,,,,61018f3269df71dfbea45098,61036a83ac7ff1e9063ecfe8,2021-07-29_22h57.47.983,Simcolourproject_2stim_asymm_v5,2020.2.10,MacIntel,60,61025ae37ef11b136ea224fe,,,,,,,,,3786,60,-37,1,0,0,response3disk,,5,4,-10,1,0,0,rectangle,4,-10,1,0,0,4,-10,1,0,0,1,64,224,111,1,,,,,,,,
,,,,,,,,,,,,,FF,,,,,,,,0.816,,,,,,,,,,,,,,,,,,,,,,61018f3269df71dfbea45098,61036a83ac7ff1e9063ecfe8,2021-07-29_22h57.47.983,Simcolourproject_2stim_asymm_v5,2020.2.10,MacIntel,60,61025ae37ef11b136ea224fe,,,,,,,,,2382,32,60,1,0,0,response1disk,,7,6,-12,1,0,0,rectangle,6,-12,1,0,0,6,-12,1,0,0,1,65,225,75,1,,,,,,,,
,,,,,,,,,,,,,FF,,,,,,,,1.267,,,,,,,,,,,,,,,,,,,,,,61018f3269df71dfbea45098,61036a83ac7ff1e9063ecfe8,2021-07-29_22h57.47.983,Simcolourproject_2stim_asymm_v5,2020.2.10,MacIntel,60,61025ae37ef11b136ea224fe,,,,,,,,,3087,86,-65,1,0,0,response3disk,,5,9,-10,1,0,0,rectangle,9,-10,1,0,0,9,-10,1,0,0,1,66,226,4,1,,,,,,,,
,,,,,,,,,,,,,FF,,,,,,,,3.066,,,,,,,,,,,,,,,,,,,,,,61018f3269df71dfbea45098,61036a83ac7ff1e9063ecfe8,2021-07-29_22h57.47.983,Simcolourproject_2stim_asymm_v5,2020.2.10,MacIntel,60,61025ae37ef11b136ea224fe,,,,,,,,,952,70,-23,1,0,0,response3disk,,5,17,-7,1,0,0,rectangle,17,-7,1,0,0,17,-7,1,0,0,1,67,227,46,1,,,,,,,,
,,,,,,,,,,,,,FF,,,,,,,,1.101,,,,,,,,,,,,,,,,,,,,,,61018f3269df71dfbea45098,61036a83ac7ff1e9063ecfe8,2021-07-29_22h57.47.983,Simcolourproject_2stim_asymm_v5,2020.2.10,MacIntel,60,61025ae37ef11b136ea224fe,,,,,,,,,77,-24,-82,1,0,0,response5disk,,3,-17,-4,1,0,0,rectangle,-17,-4,1,0,0,-17,-4,1,0,0,1,68,228,142,1,,,,,,,,
,,,,,,,,,,,,,FF,,,,,,,,1.683,,,,,,,,,,,,,,,,,,,,,,61018f3269df71dfbea45098,61036a83ac7ff1e9063ecfe8,2021-07-29_22h57.47.983,Simcolourproject_2stim_asymm_v5,2020.2.10,MacIntel,60,61025ae37ef11b136ea224fe,,,,,,,,,3475,54,-85,1,0,0,response3disk,,4,-4,14,1,0,0,rectangle,-4,14,1,0,0,-4,14,1,0,0,1,69,229,133,1,,,,,,,,
,,,,,,,,,,,,,FF,,,,,,,,0.966,,,,,,,,,,,,,,,,,,,,,,61018f3269df71dfbea45098,61036a83ac7ff1e9063ecfe8,2021-07-29_22h57.47.983,Simcolourproject_2stim_asymm_v5,2020.2.10,MacIntel,60,61025ae37ef11b136ea224fe,,,,,,,,,905,46,26,1,0,0,response1disk,,6,-10,-1,1,0,0,rectangle,-10,-1,1,0,0,-10,-1,1,0,0,1,70,230,156,1,,,,,,,,
,,,,,,,,,,,,,FF,,,,,,,,1.75,,,,,,,,,,,,,,,,,,,,,,61018f3269df71dfbea45098,61036a83ac7ff1e9063ecfe8,2021-07-29_22h57.47.983,Simcolourproject_2stim_asymm_v5,2020.2.10,MacIntel,60,61025ae37ef11b136ea224fe,,,,,,,,,4267,-95,-57,1,0,0,response5disk,,2,-9,-2,1,0,0,rectangle,-9,-2,1,0,0,-9,-2,1,0,0,1,71,231,70,1,,,,,,,,
,,,,,,,,,,,,,FF,,,,,,,,0.884,,,,,,,,,,,,,,,,,,,,,,61018f3269df71dfbea45098,61036a83ac7ff1e9063ecfe8,2021-07-29_22h57.47.983,Simcolourproject_2stim_asymm_v5,2020.2.10,MacIntel,60,61025ae37ef11b136ea224fe,,,,,,,,,733,35,68,1,0,0,response1disk,,7,21,9,1,0,0,rectangle,21,9,1,0,0,21,9,1,0,0,1,72,232,118,1,,,,,,,,
,,,,,,,,,,,,,FF,,,,,,,,0.783,,,,,,,,,,,,,,,,,,,,,,61018f3269df71dfbea45098,61036a83ac7ff1e9063ecfe8,2021-07-29_22h57.47.983,Simcolourproject_2stim_asymm_v5,2020.2.10,MacIntel,60,61025ae37ef11b136ea224fe,,,,,,,,,1743,-33,67,1,0,0,response7disk,,0,-23,-3,1,0,0,rectangle,-23,-3,1,0,0,-23,-3,1,0,0,1,73,233,155,1,,,,,,,,
,,,,,,,,,,,,,FF,,,,,,,,1.268,,,,,,,,,,,,,,,,,,,,,,61018f3269df71dfbea45098,61036a83ac7ff1e9063ecfe8,2021-07-29_22h57.47.983,Simcolourproject_2stim_asymm_v5,2020.2.10,MacIntel,60,61025ae37ef11b136ea224fe,,,,,,,,,999,60,23,1,0,0,response1disk,,6,16,-6,1,0,0,rectangle,16,-6,1,0,0,16,-6,1,0,0,1,74,234,12,1,,,,,,,,
,,,,,,,,,,,,,FF,,,,,,,,1.149,,,,,,,,,,,,,,,,,,,,,,61018f3269df71dfbea45098,61036a83ac7ff1e9063ecfe8,2021-07-29_22h57.47.983,Simcolourproject_2stim_asymm_v5,2020.2.10,MacIntel,60,61025ae37ef11b136ea224fe,,,,,,,,,1129,37,61,1,0,0,response1disk,,7,13,0,1,0,0,rectangle,13,0,1,0,0,13,0,1,0,0,1,75,235,11,1,,,,,,,,
,,,,,,,,,,,,,FF,,,,,,,,0.682,,,,,,,,,,,,,,,,,,,,,,61018f3269df71dfbea45098,61036a83ac7ff1e9063ecfe8,2021-07-29_22h57.47.983,Simcolourproject_2stim_asymm_v5,2020.2.10,MacIntel,60,61025ae37ef11b136ea224fe,,,,,,,,,1240,25,61,1,0,0,response1disk,,7,17,-9,1,0,0,rectangle,17,-9,1,0,0,17,-9,1,0,0,1,76,236,28,1,,,,,,,,
,,,,,,,,,,,,,FF,,,,,,,,1.034,,,,,,,,,,,,,,,,,,,,,,61018f3269df71dfbea45098,61036a83ac7ff1e9063ecfe8,2021-07-29_22h57.47.983,Simcolourproject_2stim_asymm_v5,2020.2.10,MacIntel,60,61025ae37ef11b136ea224fe,,,,,,,,,3697,24,69,1,0,0,response1disk,,7,10,4,1,0,0,rectangle,10,4,1,0,0,10,4,1,0,0,1,77,237,39,1,,,,,,,,
,,,,,,,,,,,,,FF,,,,,,,,0.967,,,,,,,,,,,,,,,,,,,,,,61018f3269df71dfbea45098,61036a83ac7ff1e9063ecfe8,2021-07-29_22h57.47.983,Simcolourproject_2stim_asymm_v5,2020.2.10,MacIntel,60,61025ae37ef11b136ea224fe,,,,,,,,,1735,-57,74,1,0,0,response7disk,,0,-6,-2,1,0,0,rectangle,-6,-2,1,0,0,-6,-2,1,0,0,1,78,238,97,1,,,,,,,,
,,,,,,,,,,,,,FF,,,,,,,,0.667,,,,,,,,,,,,,,,,,,,,,,61018f3269df71dfbea45098,61036a83ac7ff1e9063ecfe8,2021-07-29_22h57.47.983,Simcolourproject_2stim_asymm_v5,2020.2.10,MacIntel,60,61025ae37ef11b136ea224fe,,,,,,,,,360,64,22,1,0,0,response1disk,,6,15,7,1,0,0,rectangle,15,7,1,0,0,15,7,1,0,0,1,79,239,57,1,,,,,,,,
,,,,,,,,,,,,,FF,,,,,,,,1.582,,,,,,,,,,,,,,,,,,,,,,61018f3269df71dfbea45098,61036a83ac7ff1e9063ecfe8,2021-07-29_22h57.47.983,Simcolourproject_2stim_asymm_v5,2020.2.10,MacIntel,60,61025ae37ef11b136ea224fe,,,,,,,,,390,32,49,1,0,0,response1disk,,7,-2,3,1,0,0,rectangle,-2,3,1,0,0,-2,3,1,0,0,1,80,240,136,1,,,,,,,,
,,,,,,,,,,,,,FF,,,,,,,,0.65,,,,,,,,,,,,,,,,,,,,,,61018f3269df71dfbea45098,61036a83ac7ff1e9063ecfe8,2021-07-29_22h57.47.983,Simcolourproject_2stim_asymm_v5,2020.2.10,MacIntel,60,61025ae37ef11b136ea224fe,,,,,,,,,1727,33,92,1,0,0,response1disk,,7,15,11,1,0,0,rectangle,15,11,1,0,0,15,11,1,0,0,1,81,241,146,1,,,,,,,,
,,,,,,,,,,,,,FF,,,,,,,,1.684,,,,,,,,,,,,,,,,,,,,,,61018f3269df71dfbea45098,61036a83ac7ff1e9063ecfe8,2021-07-29_22h57.47.983,Simcolourproject_2stim_asymm_v5,2020.2.10,MacIntel,60,61025ae37ef11b136ea224fe,,,,,,,,,616,-32,-67,1,0,0,response5disk,,3,-17,-9,1,0,0,rectangle,-17,-9,1,0,0,-17,-9,1,0,0,1,82,242,101,1,,,,,,,,
,,,,,,,,,,,,,FF,,,,,,,,0.751,,,,,,,,,,,,,,,,,,,,,,61018f3269df71dfbea45098,61036a83ac7ff1e9063ecfe8,2021-07-29_22h57.47.983,Simcolourproject_2stim_asymm_v5,2020.2.10,MacIntel,60,61025ae37ef11b136ea224fe,,,,,,,,,2889,-45,-64,1,0,0,response5disk,,3,-15,9,1,0,0,rectangle,-15,9,1,0,0,-15,9,1,0,0,1,83,243,54,1,,,,,,,,
,,,,,,,,,,,,,FF,,,,,,,,1,,,,,,,,,,,,,,,,,,,,,,61018f3269df71dfbea45098,61036a83ac7ff1e9063ecfe8,2021-07-29_22h57.47.983,Simcolourproject_2stim_asymm_v5,2020.2.10,MacIntel,60,61025ae37ef11b136ea224fe,,,,,,,,,2361,-73,-43,1,0,0,response5disk,,2,-10,-18,1,0,0,rectangle,-10,-18,1,0,0,-10,-18,1,0,0,1,84,244,74,1,,,,,,,,
,,,,,,,,,,,,,FF,,,,,,,,1.416,,,,,,,,,,,,,,,,,,,,,,61018f3269df71dfbea45098,61036a83ac7ff1e9063ecfe8,2021-07-29_22h57.47.983,Simcolourproject_2stim_asymm_v5,2020.2.10,MacIntel,60,61025ae37ef11b136ea224fe,,,,,,,,,408,63,32,1,0,0,response1disk,,6,-6,-3,1,0,0,rectangle,-6,-3,1,0,0,-6,-3,1,0,0,1,85,245,67,1,,,,,,,,
,,,,,,,,,,,,,FF,,,,,,,,0.634,,,,,,,,,,,,,,,,,,,,,,61018f3269df71dfbea45098,61036a83ac7ff1e9063ecfe8,2021-07-29_22h57.47.983,Simcolourproject_2stim_asymm_v5,2020.2.10,MacIntel,60,61025ae37ef11b136ea224fe,,,,,,,,,2469,23,77,1,0,0,response1disk,,7,20,5,1,0,0,rectangle,20,5,1,0,0,20,5,1,0,0,1,86,246,23,1,,,,,,,,
,,,,,,,,,,,,,FF,,,,,,,,0.65,,,,,,,,,,,,,,,,,,,,,,61018f3269df71dfbea45098,61036a83ac7ff1e9063ecfe8,2021-07-29_22h57.47.983,Simcolourproject_2stim_asymm_v5,2020.2.10,MacIntel,60,61025ae37ef11b136ea224fe,,,,,,,,,737,36,69,1,0,0,response1disk,,7,4,-11,1,0,0,rectangle,4,-11,1,0,0,4,-11,1,0,0,1,87,247,20,1,,,,,,,,
,,,,,,,,,,,,,FF,,,,,,,,1.15,,,,,,,,,,,,,,,,,,,,,,61018f3269df71dfbea45098,61036a83ac7ff1e9063ecfe8,2021-07-29_22h57.47.983,Simcolourproject_2stim_asymm_v5,2020.2.10,MacIntel,60,61025ae37ef11b136ea224fe,,,,,,,,,1847,19,-81,1,0,0,response3disk,,4,-5,-9,1,0,0,rectangle,-5,-9,1,0,0,-5,-9,1,0,0,1,88,248,117,1,,,,,,,,
,,,,,,,,,,,,,FF,,,,,,,,0.667,,,,,,,,,,,,,,,,,,,,,,61018f3269df71dfbea45098,61036a83ac7ff1e9063ecfe8,2021-07-29_22h57.47.983,Simcolourproject_2stim_asymm_v5,2020.2.10,MacIntel,60,61025ae37ef11b136ea224fe,,,,,,,,,346,35,-57,1,0,0,response3disk,,4,4,1,1,0,0,rectangle,4,1,1,0,0,4,1,1,0,0,1,89,249,10,1,,,,,,,,
,,,,,,,,,,,,,FF,,,,,,,,1.8,,,,,,,,,,,,,,,,,,,,,,61018f3269df71dfbea45098,61036a83ac7ff1e9063ecfe8,2021-07-29_22h57.47.983,Simcolourproject_2stim_asymm_v5,2020.2.10,MacIntel,60,61025ae37ef11b136ea224fe,,,,,,,,,2931,47,48,1,0,0,response1disk,,7,20,5,1,0,0,rectangle,20,5,1,0,0,20,5,1,0,0,1,90,250,86,1,,,,,,,,
,,,,,,,,,,,,,FF,,,,,,,,1.168,,,,,,,,,,,,,,,,,,,,,,61018f3269df71dfbea45098,61036a83ac7ff1e9063ecfe8,2021-07-29_22h57.47.983,Simcolourproject_2stim_asymm_v5,2020.2.10,MacIntel,60,61025ae37ef11b136ea224fe,,,,,,,,,46,26,55,1,0,0,response1disk,,7,22,7,1,0,0,rectangle,22,7,1,0,0,22,7,1,0,0,1,91,251,56,1,,,,,,,,
,,,,,,,,,,,,,FF,,,,,,,,0.966,,,,,,,,,,,,,,,,,,,,,,61018f3269df71dfbea45098,61036a83ac7ff1e9063ecfe8,2021-07-29_22h57.47.983,Simcolourproject_2stim_asymm_v5,2020.2.10,MacIntel,60,61025ae37ef11b136ea224fe,,,,,,,,,3562,33,79,1,0,0,response1disk,,7,18,-1,1,0,0,rectangle,18,-1,1,0,0,18,-1,1,0,0,1,92,252,38,1,,,,,,,,
,,,,,,,,,,,,,FF,,,,,,,,1.184,,,,,,,,,,,,,,,,,,,,,,61018f3269df71dfbea45098,61036a83ac7ff1e9063ecfe8,2021-07-29_22h57.47.983,Simcolourproject_2stim_asymm_v5,2020.2.10,MacIntel,60,61025ae37ef11b136ea224fe,,,,,,,,,2687,33,46,1,0,0,response1disk,,7,6,-5,1,0,0,rectangle,6,-5,1,0,0,6,-5,1,0,0,1,93,253,61,1,,,,,,,,
,,,,,,,,,,,,,FF,,,,,,,,0.649,,,,,,,,,,,,,,,,,,,,,,61018f3269df71dfbea45098,61036a83ac7ff1e9063ecfe8,2021-07-29_22h57.47.983,Simcolourproject_2stim_asymm_v5,2020.2.10,MacIntel,60,61025ae37ef11b136ea224fe,,,,,,,,,1305,71,40,1,0,0,response1disk,,6,7,-13,1,0,0,rectangle,7,-13,1,0,0,7,-13,1,0,0,1,94,254,121,1,,,,,,,,
,,,,,,,,,,,,,FF,,,,,,,,0.833,,,,,,,,,,,,,,,,,,,,,,61018f3269df71dfbea45098,61036a83ac7ff1e9063ecfe8,2021-07-29_22h57.47.983,Simcolourproject_2stim_asymm_v5,2020.2.10,MacIntel,60,61025ae37ef11b136ea224fe,,,,,,,,,768,23,-81,1,0,0,response3disk,,4,-5,5,1,0,0,rectangle,-5,5,1,0,0,-5,5,1,0,0,1,95,255,87,1,,,,,,,,
,,,,,,,,,,,,,FF,,,,,,,,1.417,,,,,,,,,,,,,,,,,,,,,,61018f3269df71dfbea45098,61036a83ac7ff1e9063ecfe8,2021-07-29_22h57.47.983,Simcolourproject_2stim_asymm_v5,2020.2.10,MacIntel,60,61025ae37ef11b136ea224fe,,,,,,,,,114,95,29,1,0,0,response1disk,,6,9,-7,1,0,0,rectangle,9,-7,1,0,0,9,-7,1,0,0,1,96,256,63,1,,,,,,,,
,,,,,,,,,,,,,FF,,,,,,,,1.733,,,,,,,,,,,,,,,,,,,,,,61018f3269df71dfbea45098,61036a83ac7ff1e9063ecfe8,2021-07-29_22h57.47.983,Simcolourproject_2stim_asymm_v5,2020.2.10,MacIntel,60,61025ae37ef11b136ea224fe,,,,,,,,,1564,40,-90,1,0,0,response3disk,,4,-4,-1,1,0,0,rectangle,-4,-1,1,0,0,-4,-1,1,0,0,1,97,257,119,1,,,,,,,,
,,,,,,,,,,,,,FF,,,,,,,,1.484,,,,,,,,,,,,,,,,,,,,,,61018f3269df71dfbea45098,61036a83ac7ff1e9063ecfe8,2021-07-29_22h57.47.983,Simcolourproject_2stim_asymm_v5,2020.2.10,MacIntel,60,61025ae37ef11b136ea224fe,,,,,,,,,715,49,32,1,0,0,response1disk,,6,31,3,1,0,0,rectangle,31,3,1,0,0,31,3,1,0,0,1,98,258,52,1,,,,,,,,
,,,,,,,,,,,,,FF,,,,,,,,1.1,,,,,,,,,,,,,,,,,,,,,,61018f3269df71dfbea45098,61036a83ac7ff1e9063ecfe8,2021-07-29_22h57.47.983,Simcolourproject_2stim_asymm_v5,2020.2.10,MacIntel,60,61025ae37ef11b136ea224fe,,,,,,,,,145,36,25,1,0,0,response1disk,,6,11,-16,1,0,0,rectangle,11,-16,1,0,0,11,-16,1,0,0,1,99,259,92,1,,,,,,,,
,,,,,,,,,,,,,FF,,,,,,,,2.767,,,,,,,,,,,,,,,,,,,,,,61018f3269df71dfbea45098,61036a83ac7ff1e9063ecfe8,2021-07-29_22h57.47.983,Simcolourproject_2stim_asymm_v5,2020.2.10,MacIntel,60,61025ae37ef11b136ea224fe,,,,,,,,,2317,-39,-55,1,0,0,response5disk,,3,-21,2,1,0,0,rectangle,-21,2,1,0,0,-21,2,1,0,0,1,100,260,25,1,,,,,,,,
,,,,,,,,,,,,,FF,,,,,,,,1.734,,,,,,,,,,,,,,,,,,,,,,61018f3269df71dfbea45098,61036a83ac7ff1e9063ecfe8,2021-07-29_22h57.47.983,Simcolourproject_2stim_asymm_v5,2020.2.10,MacIntel,60,61025ae37ef11b136ea224fe,,,,,,,,,2556,-83,-40,1,0,0,response5disk,,2,-22,9,1,0,0,rectangle,-22,9,1,0,0,-22,9,1,0,0,1,101,261,50,1,,,,,,,,
,,,,,,,,,,,,,FF,,,,,,,,0.75,,,,,,,,,,,,,,,,,,,,,,61018f3269df71dfbea45098,61036a83ac7ff1e9063ecfe8,2021-07-29_22h57.47.983,Simcolourproject_2stim_asymm_v5,2020.2.10,MacIntel,60,61025ae37ef11b136ea224fe,,,,,,,,,2211,21,70,1,0,0,response1disk,,7,9,9,1,0,0,rectangle,9,9,1,0,0,9,9,1,0,0,1,102,262,29,1,,,,,,,,
,,,,,,,,,,,,,FF,,,,,,,,0.75,,,,,,,,,,,,,,,,,,,,,,61018f3269df71dfbea45098,61036a83ac7ff1e9063ecfe8,2021-07-29_22h57.47.983,Simcolourproject_2stim_asymm_v5,2020.2.10,MacIntel,60,61025ae37ef11b136ea224fe,,,,,,,,,20,29,50,1,0,0,response1disk,,7,22,-9,1,0,0,rectangle,22,-9,1,0,0,22,-9,1,0,0,1,103,263,103,1,,,,,,,,
,,,,,,,,,,,,,FF,,,,,,,,1.167,,,,,,,,,,,,,,,,,,,,,,61018f3269df71dfbea45098,61036a83ac7ff1e9063ecfe8,2021-07-29_22h57.47.983,Simcolourproject_2stim_asymm_v5,2020.2.10,MacIntel,60,61025ae37ef11b136ea224fe,,,,,,,,,2509,31,-82,1,0,0,response3disk,,4,-21,3,1,0,0,rectangle,-21,3,1,0,0,-21,3,1,0,0,1,104,264,27,1,,,,,,,,
,,,,,,,,,,,,,FF,,,,,,,,0.716,,,,,,,,,,,,,,,,,,,,,,61018f3269df71dfbea45098,61036a83ac7ff1e9063ecfe8,2021-07-29_22h57.47.983,Simcolourproject_2stim_asymm_v5,2020.2.10,MacIntel,60,61025ae37ef11b136ea224fe,,,,,,,,,966,34,75,1,0,0,response1disk,,7,23,-12,1,0,0,rectangle,23,-12,1,0,0,23,-12,1,0,0,1,105,265,90,1,,,,,,,,
,,,,,,,,,,,,,FF,,,,,,,,0.95,,,,,,,,,,,,,,,,,,,,,,61018f3269df71dfbea45098,61036a83ac7ff1e9063ecfe8,2021-07-29_22h57.47.983,Simcolourproject_2stim_asymm_v5,2020.2.10,MacIntel,60,61025ae37ef11b136ea224fe,,,,,,,,,3977,-61,-34,1,0,0,response5disk,,2,23,-4,1,0,0,rectangle,23,-4,1,0,0,23,-4,1,0,0,1,106,266,22,1,,,,,,,,
,,,,,,,,,,,,,FF,,,,,,,,1.333,,,,,,,,,,,,,,,,,,,,,,61018f3269df71dfbea45098,61036a83ac7ff1e9063ecfe8,2021-07-29_22h57.47.983,Simcolourproject_2stim_asymm_v5,2020.2.10,MacIntel,60,61025ae37ef11b136ea224fe,,,,,,,,,3646,41,-70,1,0,0,response3disk,,4,12,-10,1,0,0,rectangle,12,-10,1,0,0,12,-10,1,0,0,1,107,267,5,1,,,,,,,,
,,,,,,,,,,,,,FF,,,,,,,,1.633,,,,,,,,,,,,,,,,,,,,,,61018f3269df71dfbea45098,61036a83ac7ff1e9063ecfe8,2021-07-29_22h57.47.983,Simcolourproject_2stim_asymm_v5,2020.2.10,MacIntel,60,61025ae37ef11b136ea224fe,,,,,,,,,1852,34,-62,1,0,0,response3disk,,4,17,5,1,0,0,rectangle,37,-90,1,0,0,-5,-7,1,0,0,1,108,268,153,1,,response3disk_3,TRUE,4,4,"[112,140,194,113,269,79,104,17,65,4,46,158,176,151,206,96,108,311,200,221]",1.3,rectangle
,,,,,,,,,,,,,FF,,,,,,,,0.817,,,,,,,,,,,,,,,,,,,,,,61018f3269df71dfbea45098,61036a83ac7ff1e9063ecfe8,2021-07-29_22h57.47.983,Simcolourproject_2stim_asymm_v5,2020.2.10,MacIntel,60,61025ae37ef11b136ea224fe,,,,,,,,,2368,-31,-100,1,0,0,response5disk,,3,1,4,1,0,0,rectangle,1,4,1,0,0,1,4,1,0,0,1,109,269,15,1,,,,,,,,
,,,,,,,,,,,,,FF,,,,,,,,0.933,,,,,,,,,,,,,,,,,,,,,,61018f3269df71dfbea45098,61036a83ac7ff1e9063ecfe8,2021-07-29_22h57.47.983,Simcolourproject_2stim_asymm_v5,2020.2.10,MacIntel,60,61025ae37ef11b136ea224fe,,,,,,,,,189,23,-56,1,0,0,response3disk,,4,1,5,1,0,0,rectangle,1,5,1,0,0,1,5,1,0,0,1,110,270,107,1,,,,,,,,
,,,,,,,,,,,,,FF,,,,,,,,1.449,,,,,,,,,,,,,,,,,,,,,,61018f3269df71dfbea45098,61036a83ac7ff1e9063ecfe8,2021-07-29_22h57.47.983,Simcolourproject_2stim_asymm_v5,2020.2.10,MacIntel,60,61025ae37ef11b136ea224fe,,,,,,,,,4218,-71,42,1,0,0,response7disk,,1,2,-15,1,0,0,rectangle,2,-15,1,0,0,2,-15,1,0,0,1,111,271,114,1,,,,,,,,
,,,,,,,,,,,,,FF,,,,,,,,0.984,,,,,,,,,,,,,,,,,,,,,,61018f3269df71dfbea45098,61036a83ac7ff1e9063ecfe8,2021-07-29_22h57.47.983,Simcolourproject_2stim_asymm_v5,2020.2.10,MacIntel,60,61025ae37ef11b136ea224fe,,,,,,,,,1037,-72,-32,1,0,0,response5disk,,2,6,-1,1,0,0,rectangle,6,-1,1,0,0,6,-1,1,0,0,1,112,272,14,1,,,,,,,,
,,,,,,,,,,,,,FF,,,,,,,,0.9,,,,,,,,,,,,,,,,,,,,,,61018f3269df71dfbea45098,61036a83ac7ff1e9063ecfe8,2021-07-29_22h57.47.983,Simcolourproject_2stim_asymm_v5,2020.2.10,MacIntel,60,61025ae37ef11b136ea224fe,,,,,,,,,3552,-71,30,1,0,0,response7disk,,1,-4,-4,1,0,0,rectangle,-4,-4,1,0,0,-4,-4,1,0,0,1,113,273,43,1,,,,,,,,
,,,,,,,,,,,,,FF,,,,,,,,2.284,,,,,,,,,,,,,,,,,,,,,,61018f3269df71dfbea45098,61036a83ac7ff1e9063ecfe8,2021-07-29_22h57.47.983,Simcolourproject_2stim_asymm_v5,2020.2.10,MacIntel,60,61025ae37ef11b136ea224fe,,,,,,,,,736,69,-49,1,0,0,response3disk,,5,-8,11,1,0,0,rectangle,-8,11,1,0,0,-8,11,1,0,0,1,114,274,73,1,,,,,,,,
,,,,,,,,,,,,,FF,,,,,,,,0.883,,,,,,,,,,,,,,,,,,,,,,61018f3269df71dfbea45098,61036a83ac7ff1e9063ecfe8,2021-07-29_22h57.47.983,Simcolourproject_2stim_asymm_v5,2020.2.10,MacIntel,60,61025ae37ef11b136ea224fe,,,,,,,,,1876,45,33,1,0,0,response1disk,,6,-9,-7,1,0,0,rectangle,-9,-7,1,0,0,-9,-7,1,0,0,1,115,275,154,1,,,,,,,,
,,,,,,,,,,,,,FF,,,,,,,,0.65,,,,,,,,,,,,,,,,,,,,,,61018f3269df71dfbea45098,61036a83ac7ff1e9063ecfe8,2021-07-29_22h57.47.983,Simcolourproject_2stim_asymm_v5,2020.2.10,MacIntel,60,61025ae37ef11b136ea224fe,,,,,,,,,1327,38,24,1,0,0,response1disk,,6,12,-9,1,0,0,rectangle,12,-9,1,0,0,12,-9,1,0,0,1,116,276,66,1,,,,,,,,
,,,,,,,,,,,,,FF,,,,,,,,1.066,,,,,,,,,,,,,,,,,,,,,,61018f3269df71dfbea45098,61036a83ac7ff1e9063ecfe8,2021-07-29_22h57.47.983,Simcolourproject_2stim_asymm_v5,2020.2.10,MacIntel,60,61025ae37ef11b136ea224fe,,,,,,,,,811,51,-95,1,0,0,response3disk,,4,3,-8,1,0,0,rectangle,3,-8,1,0,0,3,-8,1,0,0,1,117,277,137,1,,,,,,,,
,,,,,,,,,,,,,FF,,,,,,,,0.651,,,,,,,,,,,,,,,,,,,,,,61018f3269df71dfbea45098,61036a83ac7ff1e9063ecfe8,2021-07-29_22h57.47.983,Simcolourproject_2stim_asymm_v5,2020.2.10,MacIntel,60,61025ae37ef11b136ea224fe,,,,,,,,,892,31,-87,1,0,0,response3disk,,4,0,-13,1,0,0,rectangle,0,-13,1,0,0,0,-13,1,0,0,1,118,278,116,1,,,,,,,,
,,,,,,,,,,,,,FF,,,,,,,,1.401,,,,,,,,,,,,,,,,,,,,,,61018f3269df71dfbea45098,61036a83ac7ff1e9063ecfe8,2021-07-29_22h57.47.983,Simcolourproject_2stim_asymm_v5,2020.2.10,MacIntel,60,61025ae37ef11b136ea224fe,,,,,,,,,832,50,63,1,0,0,response1disk,,7,-10,1,1,0,0,rectangle,-10,1,1,0,0,-10,1,1,0,0,1,119,279,26,1,,,,,,,,
,,,,,,,,,,,,,FF,,,,,,,,1.3,,,,,,,,,,,,,,,,,,,,,,61018f3269df71dfbea45098,61036a83ac7ff1e9063ecfe8,2021-07-29_22h57.47.983,Simcolourproject_2stim_asymm_v5,2020.2.10,MacIntel,60,61025ae37ef11b136ea224fe,,,,,,,,,2147,23,44,1,0,0,response1disk,,7,4,-18,1,0,0,rectangle,4,-18,1,0,0,4,-18,1,0,0,1,120,280,151,1,,,,,,,,
,,,,,,,,,,,,,FF,,,,,,,,2.6,,,,,,,,,,,,,,,,,,,,,,61018f3269df71dfbea45098,61036a83ac7ff1e9063ecfe8,2021-07-29_22h57.47.983,Simcolourproject_2stim_asymm_v5,2020.2.10,MacIntel,60,61025ae37ef11b136ea224fe,,,,,,,,,1615,52,-101,1,0,0,response3disk,,4,-1,-8,1,0,0,rectangle,-1,-8,1,0,0,-1,-8,1,0,0,1,121,281,80,1,,,,,,,,
,,,,,,,,,,,,,FF,,,,,,,,2.632,,,,,,,,,,,,,,,,,,,,,,61018f3269df71dfbea45098,61036a83ac7ff1e9063ecfe8,2021-07-29_22h57.47.983,Simcolourproject_2stim_asymm_v5,2020.2.10,MacIntel,60,61025ae37ef11b136ea224fe,,,,,,,,,2656,32,-75,1,0,0,response3disk,,4,7,9,1,0,0,rectangle,7,9,1,0,0,7,9,1,0,0,1,122,282,96,1,,,,,,,,
,,,,,,,,,,,,,FF,,,,,,,,0.817,,,,,,,,,,,,,,,,,,,,,,61018f3269df71dfbea45098,61036a83ac7ff1e9063ecfe8,2021-07-29_22h57.47.983,Simcolourproject_2stim_asymm_v5,2020.2.10,MacIntel,60,61025ae37ef11b136ea224fe,,,,,,,,,2810,88,37,1,0,0,response1disk,,6,16,10,1,0,0,rectangle,16,10,1,0,0,16,10,1,0,0,1,123,283,81,1,,,,,,,,
,,,,,,,,,,,,,FF,,,,,,,,0.967,,,,,,,,,,,,,,,,,,,,,,61018f3269df71dfbea45098,61036a83ac7ff1e9063ecfe8,2021-07-29_22h57.47.983,Simcolourproject_2stim_asymm_v5,2020.2.10,MacIntel,60,61025ae37ef11b136ea224fe,,,,,,,,,375,41,-103,1,0,0,response3disk,,4,-8,-13,1,0,0,rectangle,-8,-13,1,0,0,-8,-13,1,0,0,1,124,284,110,1,,,,,,,,
,,,,,,,,,,,,,FF,,,,,,,,0.933,,,,,,,,,,,,,,,,,,,,,,61018f3269df71dfbea45098,61036a83ac7ff1e9063ecfe8,2021-07-29_22h57.47.983,Simcolourproject_2stim_asymm_v5,2020.2.10,MacIntel,60,61025ae37ef11b136ea224fe,,,,,,,,,1976,-25,-83,1,0,0,response5disk,,3,-17,-8,1,0,0,rectangle,-17,-8,1,0,0,-17,-8,1,0,0,1,125,285,36,1,,,,,,,,
,,,,,,,,,,,,,FF,,,,,,,,0.917,,,,,,,,,,,,,,,,,,,,,,61018f3269df71dfbea45098,61036a83ac7ff1e9063ecfe8,2021-07-29_22h57.47.983,Simcolourproject_2stim_asymm_v5,2020.2.10,MacIntel,60,61025ae37ef11b136ea224fe,,,,,,,,,2427,-77,-58,1,0,0,response5disk,,2,-4,-4,1,0,0,rectangle,-4,-4,1,0,0,-4,-4,1,0,0,1,126,286,34,1,,,,,,,,
,,,,,,,,,,,,,FF,,,,,,,,0.818,,,,,,,,,,,,,,,,,,,,,,61018f3269df71dfbea45098,61036a83ac7ff1e9063ecfe8,2021-07-29_22h57.47.983,Simcolourproject_2stim_asymm_v5,2020.2.10,MacIntel,60,61025ae37ef11b136ea224fe,,,,,,,,,2097,97,35,1,0,0,response1disk,,6,21,1,1,0,0,rectangle,21,1,1,0,0,21,1,1,0,0,1,127,287,9,1,,,,,,,,
,,,,,,,,,,,,,FF,,,,,,,,1.234,,,,,,,,,,,,,,,,,,,,,,61018f3269df71dfbea45098,61036a83ac7ff1e9063ecfe8,2021-07-29_22h57.47.983,Simcolourproject_2stim_asymm_v5,2020.2.10,MacIntel,60,61025ae37ef11b136ea224fe,,,,,,,,,4031,-58,-80,1,0,0,response5disk,,3,-16,-7,1,0,0,rectangle,-16,-7,1,0,0,-16,-7,1,0,0,1,128,288,47,1,,,,,,,,
,,,,,,,,,,,,,FF,,,,,,,,0.634,,,,,,,,,,,,,,,,,,,,,,61018f3269df71dfbea45098,61036a83ac7ff1e9063ecfe8,2021-07-29_22h57.47.983,Simcolourproject_2stim_asymm_v5,2020.2.10,MacIntel,60,61025ae37ef11b136ea224fe,,,,,,,,,512,55,-97,1,0,0,response3disk,,4,4,-6,1,0,0,rectangle,4,-6,1,0,0,4,-6,1,0,0,1,129,289,122,1,,,,,,,,
,,,,,,,,,,,,,FF,,,,,,,,2.184,,,,,,,,,,,,,,,,,,,,,,61018f3269df71dfbea45098,61036a83ac7ff1e9063ecfe8,2021-07-29_22h57.47.983,Simcolourproject_2stim_asymm_v5,2020.2.10,MacIntel,60,61025ae37ef11b136ea224fe,,,,,,,,,4070,70,-82,1,0,0,response3disk,,4,25,-10,1,0,0,rectangle,25,-10,1,0,0,25,-10,1,0,0,1,130,290,42,1,,,,,,,,
,,,,,,,,,,,,,FF,,,,,,,,1.183,,,,,,,,,,,,,,,,,,,,,,61018f3269df71dfbea45098,61036a83ac7ff1e9063ecfe8,2021-07-29_22h57.47.983,Simcolourproject_2stim_asymm_v5,2020.2.10,MacIntel,60,61025ae37ef11b136ea224fe,,,,,,,,,1583,44,-74,1,0,0,response3disk,,4,12,-2,1,0,0,rectangle,12,-2,1,0,0,12,-2,1,0,0,1,131,291,16,1,,,,,,,,
,,,,,,,,,,,,,FF,,,,,,,,0.717,,,,,,,,,,,,,,,,,,,,,,61018f3269df71dfbea45098,61036a83ac7ff1e9063ecfe8,2021-07-29_22h57.47.983,Simcolourproject_2stim_asymm_v5,2020.2.10,MacIntel,60,61025ae37ef11b136ea224fe,,,,,,,,,3368,25,40,1,0,0,response1disk,,7,11,-12,1,0,0,rectangle,11,-12,1,0,0,11,-12,1,0,0,1,132,292,147,1,,,,,,,,
,,,,,,,,,,,,,FF,,,,,,,,1.032,,,,,,,,,,,,,,,,,,,,,,61018f3269df71dfbea45098,61036a83ac7ff1e9063ecfe8,2021-07-29_22h57.47.983,Simcolourproject_2stim_asymm_v5,2020.2.10,MacIntel,60,61025ae37ef11b136ea224fe,,,,,,,,,785,71,-32,1,0,0,response3disk,,5,2,0,1,0,0,rectangle,2,0,1,0,0,2,0,1,0,0,1,133,293,145,1,,,,,,,,
,,,,,,,,,,,,,FF,,,,,,,,1.45,,,,,,,,,,,,,,,,,,,,,,61018f3269df71dfbea45098,61036a83ac7ff1e9063ecfe8,2021-07-29_22h57.47.983,Simcolourproject_2stim_asymm_v5,2020.2.10,MacIntel,60,61025ae37ef11b136ea224fe,,,,,,,,,1148,23,45,1,0,0,response1disk,,7,8,2,1,0,0,rectangle,8,2,1,0,0,8,2,1,0,0,1,134,294,123,1,,,,,,,,
,,,,,,,,,,,,,FF,,,,,,,,1.449,,,,,,,,,,,,,,,,,,,,,,61018f3269df71dfbea45098,61036a83ac7ff1e9063ecfe8,2021-07-29_22h57.47.983,Simcolourproject_2stim_asymm_v5,2020.2.10,MacIntel,60,61025ae37ef11b136ea224fe,,,,,,,,,482,42,60,1,0,0,response1disk,,7,11,-13,1,0,0,rectangle,11,-13,1,0,0,11,-13,1,0,0,1,135,295,30,1,,,,,,,,
,,,,,,,,,,,,,FF,,,,,,,,1.115,,,,,,,,,,,,,,,,,,,,,,61018f3269df71dfbea45098,61036a83ac7ff1e9063ecfe8,2021-07-29_22h57.47.983,Simcolourproject_2stim_asymm_v5,2020.2.10,MacIntel,60,61025ae37ef11b136ea224fe,,,,,,,,,27,30,61,1,0,0,response1disk,,7,27,-3,1,0,0,rectangle,27,-3,1,0,0,27,-3,1,0,0,1,136,296,106,1,,,,,,,,
,,,,,,,,,,,,,FF,,,,,,,,1.283,,,,,,,,,,,,,,,,,,,,,,61018f3269df71dfbea45098,61036a83ac7ff1e9063ecfe8,2021-07-29_22h57.47.983,Simcolourproject_2stim_asymm_v5,2020.2.10,MacIntel,60,61025ae37ef11b136ea224fe,,,,,,,,,1660,31,-85,1,0,0,response3disk,,4,-15,-11,1,0,0,rectangle,-15,-11,1,0,0,-15,-11,1,0,0,1,137,297,33,1,,,,,,,,
,,,,,,,,,,,,,FF,,,,,,,,0.851,,,,,,,,,,,,,,,,,,,,,,61018f3269df71dfbea45098,61036a83ac7ff1e9063ecfe8,2021-07-29_22h57.47.983,Simcolourproject_2stim_asymm_v5,2020.2.10,MacIntel,60,61025ae37ef11b136ea224fe,,,,,,,,,4365,-53,61,1,0,0,response7disk,,0,-12,-2,1,0,0,rectangle,-12,-2,1,0,0,-12,-2,1,0,0,1,138,298,130,1,,,,,,,,
,,,,,,,,,,,,,FF,,,,,,,,1.232,,,,,,,,,,,,,,,,,,,,,,61018f3269df71dfbea45098,61036a83ac7ff1e9063ecfe8,2021-07-29_22h57.47.983,Simcolourproject_2stim_asymm_v5,2020.2.10,MacIntel,60,61025ae37ef11b136ea224fe,,,,,,,,,3806,22,59,1,0,0,response1disk,,7,18,0,1,0,0,rectangle,18,0,1,0,0,18,0,1,0,0,1,139,299,7,1,,,,,,,,
