key_resp.keys,key_resp.rt,key_resp_14.keys,key_resp_14.rt,key_resp_15.keys,key_resp_15.rt,key_resp_17.keys,key_resp_17.rt,key_resp_9.keys,key_resp_9.rt,key_resp_10.keys,key_resp_10.rt,practice_comparison,Ecc,mouse_5.x,mouse_5.y,mouse_5.leftButton,mouse_5.midButton,mouse_5.rightButton,mouse_5.clicked_name,pracsimilarity,response_time,mouse_10.x,mouse_10.y,mouse_10.leftButton,mouse_10.midButton,mouse_10.rightButton,mouse_10.clicked_name,mouse_7.x,mouse_7.y,mouse_7.leftButton,mouse_7.midButton,mouse_7.rightButton,mouse_6.x,mouse_6.y,mouse_6.leftButton,mouse_6.midButton,mouse_6.rightButton,duringprac.thisRepN,duringprac.thisTrialN,duringprac.thisN,duringprac.thisIndex,duringprac.ran,participant,session,date,expName,psychopyVersion,OS,frameRate,study_id,mouse_7.clicked_name,catchpracsimilarity,catch_response_time,catchnumberprac,catchtrialorderprac,mouse_6.clicked_name,key_resp_22.keys,key_resp_22.rt,realcomparison,mouse.x,mouse.y,mouse.leftButton,mouse.midButton,mouse.rightButton,mouse.clicked_name,Colour2,similarity,mouse_2.x,mouse_2.y,mouse_2.leftButton,mouse_2.midButton,mouse_2.rightButton,mouse_2.clicked_name,mouse_3.x,mouse_3.y,mouse_3.leftButton,mouse_3.midButton,mouse_3.rightButton,mouse_11.x,mouse_11.y,mouse_11.leftButton,mouse_11.midButton,mouse_11.rightButton,trials_2.thisRepN,trials_2.thisTrialN,trials_2.thisN,trials_2.thisIndex,trials_2.ran,Colour1,mouse_3.clicked_name,catchornah,catchsimilarity,catchnumber,catchtrialorder,catchRT,mouse_11.clicked_name
space,2.097,space,4.928,space,14.277,space,5.267,space,0.047,space,2.824,5,PF,50,74,1,0,0,response1disk_5,7,6.459,2,-7,1,0,0,rectangle_8,2,-7,1,0,0,2,-7,1,0,0,0,0,0,2,1,61027ef48b6608d0126bab31,61036dfac4ea71d23f9fd660,2021-07-30_13h13.41.114,Simcolourproject_2stim_asymm_v5,2020.2.10,MacIntel,60,61025ae37ef11b136ea224fe,,,,,,,,,,,,,,,,,,,,,,,,,,,,,,,,,,,,,,,,,,,,,,
,,,,,,,,,,,,123,FF,34,63,1,0,0,response1disk_5,7,3.035,9,7,1,0,0,rectangle_8,-23,61,1,0,0,21,14,1,0,0,0,1,1,5,1,61027ef48b6608d0126bab31,61036dfac4ea71d23f9fd660,2021-07-30_13h13.41.114,Simcolourproject_2stim_asymm_v5,2020.2.10,MacIntel,60,61025ae37ef11b136ea224fe,response7disk_7,0,2.667,0,"[2,5]",rectangle_4,,,,,,,,,,,,,,,,,,,,,,,,,,,,,,,,,,,,,,,,
,,,,,,,,,,,,52,FF,87,-25,1,0,0,response3disk_5,5,4.847,12,11,1,0,0,rectangle_8,12,11,1,0,0,12,11,1,0,0,0,2,2,3,1,61027ef48b6608d0126bab31,61036dfac4ea71d23f9fd660,2021-07-30_13h13.41.114,Simcolourproject_2stim_asymm_v5,2020.2.10,MacIntel,60,61025ae37ef11b136ea224fe,,,,,,,,,,,,,,,,,,,,,,,,,,,,,,,,,,,,,,,,,,,,,,
,,,,,,,,,,,,4,PF,39,81,1,0,0,response1disk_5,7,1.816,8,-4,1,0,0,rectangle_8,8,-4,1,0,0,8,-4,1,0,0,0,3,3,4,1,61027ef48b6608d0126bab31,61036dfac4ea71d23f9fd660,2021-07-30_13h13.41.114,Simcolourproject_2stim_asymm_v5,2020.2.10,MacIntel,60,61025ae37ef11b136ea224fe,,,,,,,,,,,,,,,,,,,,,,,,,,,,,,,,,,,,,,,,,,,,,,
,,,,,,,,,,,,24,PF,30,49,1,0,0,response1disk_5,7,1.1,21,-7,1,0,0,rectangle_8,-26,63,1,0,0,8,-8,1,0,0,0,4,4,1,1,61027ef48b6608d0126bab31,61036dfac4ea71d23f9fd660,2021-07-30_13h13.41.114,Simcolourproject_2stim_asymm_v5,2020.2.10,MacIntel,60,61025ae37ef11b136ea224fe,response7disk_7,0,1.682,0,"[2,5]",rectangle_4,,,,,,,,,,,,,,,,,,,,,,,,,,,,,,,,,,,,,,,,
,,,,,,,,,,,,113,PF,-28,62,1,0,0,response7disk_5,0,1.867,3,-8,1,0,0,rectangle_8,3,-8,1,0,0,3,-8,1,0,0,0,5,5,6,1,61027ef48b6608d0126bab31,61036dfac4ea71d23f9fd660,2021-07-30_13h13.41.114,Simcolourproject_2stim_asymm_v5,2020.2.10,MacIntel,60,61025ae37ef11b136ea224fe,,,,,,,,,,,,,,,,,,,,,,,,,,,,,,,,,,,,,,,,,,,,,,
,,,,,,,,,,,,74,FF,38,53,1,0,0,response1disk_5,7,1.849,16,5,1,0,0,rectangle_8,16,5,1,0,0,16,5,1,0,0,0,6,6,0,1,61027ef48b6608d0126bab31,61036dfac4ea71d23f9fd660,2021-07-30_13h13.41.114,Simcolourproject_2stim_asymm_v5,2020.2.10,MacIntel,60,61025ae37ef11b136ea224fe,,,,,,,,,,,,,,,,,,,,,,,,,,,,,,,,,,,,,,,,,,,,,,
,,,,,,,,,,,,,FF,,,,,,,,1.501,,,,,,,,,,,,,,,,,,,,,,61027ef48b6608d0126bab31,61036dfac4ea71d23f9fd660,2021-07-30_13h13.41.114,Simcolourproject_2stim_asymm_v5,2020.2.10,MacIntel,60,61025ae37ef11b136ea224fe,,,,,,,space,2.103,666,29,58,1,0,0,response1disk,,7,1,8,1,0,0,rectangle,1,8,1,0,0,1,8,1,0,0,0,0,0,0,1,,,,,,,,
,,,,,,,,,,,,,FF,,,,,,,,4.183,,,,,,,,,,,,,,,,,,,,,,61027ef48b6608d0126bab31,61036dfac4ea71d23f9fd660,2021-07-30_13h13.41.114,Simcolourproject_2stim_asymm_v5,2020.2.10,MacIntel,60,61025ae37ef11b136ea224fe,,,,,,,,,4283,29,48,1,0,0,response1disk,,7,12,4,1,0,0,rectangle,12,4,1,0,0,12,4,1,0,0,0,1,1,66,1,,,,,,,,
,,,,,,,,,,,,,FF,,,,,,,,2.552,,,,,,,,,,,,,,,,,,,,,,61027ef48b6608d0126bab31,61036dfac4ea71d23f9fd660,2021-07-30_13h13.41.114,Simcolourproject_2stim_asymm_v5,2020.2.10,MacIntel,60,61025ae37ef11b136ea224fe,,,,,,,,,1059,39,64,1,0,0,response1disk,,7,14,5,1,0,0,rectangle,14,5,1,0,0,14,5,1,0,0,0,2,2,156,1,,,,,,,,
,,,,,,,,,,,,,FF,,,,,,,,2.368,,,,,,,,,,,,,,,,,,,,,,61027ef48b6608d0126bab31,61036dfac4ea71d23f9fd660,2021-07-30_13h13.41.114,Simcolourproject_2stim_asymm_v5,2020.2.10,MacIntel,60,61025ae37ef11b136ea224fe,,,,,,,,,1902,31,63,1,0,0,response1disk,,7,1,-6,1,0,0,rectangle,1,-6,1,0,0,1,-6,1,0,0,0,3,3,157,1,,,,,,,,
,,,,,,,,,,,,,FF,,,,,,,,1.566,,,,,,,,,,,,,,,,,,,,,,61027ef48b6608d0126bab31,61036dfac4ea71d23f9fd660,2021-07-30_13h13.41.114,Simcolourproject_2stim_asymm_v5,2020.2.10,MacIntel,60,61025ae37ef11b136ea224fe,,,,,,,,,3876,33,49,1,0,0,response1disk,,7,13,-6,1,0,0,rectangle,13,-6,1,0,0,13,-6,1,0,0,0,4,4,113,1,,,,,,,,
,,,,,,,,,,,,,FF,,,,,,,,1.23,,,,,,,,,,,,,,,,,,,,,,61027ef48b6608d0126bab31,61036dfac4ea71d23f9fd660,2021-07-30_13h13.41.114,Simcolourproject_2stim_asymm_v5,2020.2.10,MacIntel,60,61025ae37ef11b136ea224fe,,,,,,,,,590,34,52,1,0,0,response1disk,,7,12,12,1,0,0,rectangle,12,12,1,0,0,12,12,1,0,0,0,5,5,86,1,,,,,,,,
,,,,,,,,,,,,,FF,,,,,,,,0.565,,,,,,,,,,,,,,,,,,,,,,61027ef48b6608d0126bab31,61036dfac4ea71d23f9fd660,2021-07-30_13h13.41.114,Simcolourproject_2stim_asymm_v5,2020.2.10,MacIntel,60,61025ae37ef11b136ea224fe,,,,,,,,,137,35,50,1,0,0,response1disk,,7,14,-3,1,0,0,rectangle,14,-3,1,0,0,14,-3,1,0,0,0,6,6,118,1,,,,,,,,
,,,,,,,,,,,,,FF,,,,,,,,0.866,,,,,,,,,,,,,,,,,,,,,,61027ef48b6608d0126bab31,61036dfac4ea71d23f9fd660,2021-07-30_13h13.41.114,Simcolourproject_2stim_asymm_v5,2020.2.10,MacIntel,60,61025ae37ef11b136ea224fe,,,,,,,,,3126,40,69,1,0,0,response1disk,,7,21,-6,1,0,0,rectangle,21,-6,1,0,0,21,-6,1,0,0,0,7,7,79,1,,,,,,,,
,,,,,,,,,,,,,FF,,,,,,,,0.884,,,,,,,,,,,,,,,,,,,,,,61027ef48b6608d0126bab31,61036dfac4ea71d23f9fd660,2021-07-30_13h13.41.114,Simcolourproject_2stim_asymm_v5,2020.2.10,MacIntel,60,61025ae37ef11b136ea224fe,,,,,,,,,2805,33,55,1,0,0,response1disk,,7,22,5,1,0,0,rectangle,22,5,1,0,0,22,5,1,0,0,0,8,8,17,1,,,,,,,,
,,,,,,,,,,,,,FF,,,,,,,,0.699,,,,,,,,,,,,,,,,,,,,,,61027ef48b6608d0126bab31,61036dfac4ea71d23f9fd660,2021-07-30_13h13.41.114,Simcolourproject_2stim_asymm_v5,2020.2.10,MacIntel,60,61025ae37ef11b136ea224fe,,,,,,,,,1776,53,69,1,0,0,response1disk,,7,23,0,1,0,0,rectangle,23,0,1,0,0,23,0,1,0,0,0,9,9,134,1,,,,,,,,
,,,,,,,,,,,,,FF,,,,,,,,0.716,,,,,,,,,,,,,,,,,,,,,,61027ef48b6608d0126bab31,61036dfac4ea71d23f9fd660,2021-07-30_13h13.41.114,Simcolourproject_2stim_asymm_v5,2020.2.10,MacIntel,60,61025ae37ef11b136ea224fe,,,,,,,,,1488,43,79,1,0,0,response1disk,,7,11,-4,1,0,0,rectangle,11,-4,1,0,0,11,-4,1,0,0,0,10,10,104,1,,,,,,,,
,,,,,,,,,,,,,FF,,,,,,,,0.536,,,,,,,,,,,,,,,,,,,,,,61027ef48b6608d0126bab31,61036dfac4ea71d23f9fd660,2021-07-30_13h13.41.114,Simcolourproject_2stim_asymm_v5,2020.2.10,MacIntel,60,61025ae37ef11b136ea224fe,,,,,,,,,3948,42,68,1,0,0,response1disk,,7,13,-7,1,0,0,rectangle,13,-7,1,0,0,13,-7,1,0,0,0,11,11,40,1,,,,,,,,
,,,,,,,,,,,,,FF,,,,,,,,0.599,,,,,,,,,,,,,,,,,,,,,,61027ef48b6608d0126bab31,61036dfac4ea71d23f9fd660,2021-07-30_13h13.41.114,Simcolourproject_2stim_asymm_v5,2020.2.10,MacIntel,60,61025ae37ef11b136ea224fe,,,,,,,,,945,41,80,1,0,0,response1disk,,7,18,15,1,0,0,rectangle,61,26,1,0,0,12,3,1,0,0,0,12,12,64,1,,response1disk_3,TRUE,6,6,"[170,237,223,29,117,68,150,155,42,291,258,295,250,76,13,321,171,306,96,99]",1.898,rectangle
,,,,,,,,,,,,,FF,,,,,,,,1.283,,,,,,,,,,,,,,,,,,,,,,61027ef48b6608d0126bab31,61036dfac4ea71d23f9fd660,2021-07-30_13h13.41.114,Simcolourproject_2stim_asymm_v5,2020.2.10,MacIntel,60,61025ae37ef11b136ea224fe,,,,,,,,,1932,30,64,1,0,0,response1disk,,7,3,5,1,0,0,rectangle,3,5,1,0,0,3,5,1,0,0,0,13,13,102,1,,,,,,,,
,,,,,,,,,,,,,FF,,,,,,,,0.599,,,,,,,,,,,,,,,,,,,,,,61027ef48b6608d0126bab31,61036dfac4ea71d23f9fd660,2021-07-30_13h13.41.114,Simcolourproject_2stim_asymm_v5,2020.2.10,MacIntel,60,61025ae37ef11b136ea224fe,,,,,,,,,212,30,46,1,0,0,response1disk,,7,10,-12,1,0,0,rectangle,10,-12,1,0,0,10,-12,1,0,0,0,14,14,106,1,,,,,,,,
,,,,,,,,,,,,,FF,,,,,,,,0.616,,,,,,,,,,,,,,,,,,,,,,61027ef48b6608d0126bab31,61036dfac4ea71d23f9fd660,2021-07-30_13h13.41.114,Simcolourproject_2stim_asymm_v5,2020.2.10,MacIntel,60,61025ae37ef11b136ea224fe,,,,,,,,,978,42,63,1,0,0,response1disk,,7,21,-3,1,0,0,rectangle,21,-3,1,0,0,21,-3,1,0,0,0,15,15,111,1,,,,,,,,
,,,,,,,,,,,,,FF,,,,,,,,2.049,,,,,,,,,,,,,,,,,,,,,,61027ef48b6608d0126bab31,61036dfac4ea71d23f9fd660,2021-07-30_13h13.41.114,Simcolourproject_2stim_asymm_v5,2020.2.10,MacIntel,60,61025ae37ef11b136ea224fe,,,,,,,,,2300,67,36,1,0,0,response1disk,,6,22,9,1,0,0,rectangle,22,9,1,0,0,22,9,1,0,0,0,16,16,99,1,,,,,,,,
,,,,,,,,,,,,,FF,,,,,,,,0.734,,,,,,,,,,,,,,,,,,,,,,61027ef48b6608d0126bab31,61036dfac4ea71d23f9fd660,2021-07-30_13h13.41.114,Simcolourproject_2stim_asymm_v5,2020.2.10,MacIntel,60,61025ae37ef11b136ea224fe,,,,,,,,,840,34,60,1,0,0,response1disk,,7,19,8,1,0,0,rectangle,19,8,1,0,0,19,8,1,0,0,0,17,17,122,1,,,,,,,,
,,,,,,,,,,,,,FF,,,,,,,,0.5,,,,,,,,,,,,,,,,,,,,,,61027ef48b6608d0126bab31,61036dfac4ea71d23f9fd660,2021-07-30_13h13.41.114,Simcolourproject_2stim_asymm_v5,2020.2.10,MacIntel,60,61025ae37ef11b136ea224fe,,,,,,,,,2800,38,56,1,0,0,response1disk,,7,18,2,1,0,0,rectangle,18,2,1,0,0,18,2,1,0,0,0,18,18,18,1,,,,,,,,
,,,,,,,,,,,,,FF,,,,,,,,0.552,,,,,,,,,,,,,,,,,,,,,,61027ef48b6608d0126bab31,61036dfac4ea71d23f9fd660,2021-07-30_13h13.41.114,Simcolourproject_2stim_asymm_v5,2020.2.10,MacIntel,60,61025ae37ef11b136ea224fe,,,,,,,,,1350,37,44,1,0,0,response1disk,,7,14,-13,1,0,0,rectangle,14,-13,1,0,0,14,-13,1,0,0,0,19,19,73,1,,,,,,,,
,,,,,,,,,,,,,FF,,,,,,,,0.467,,,,,,,,,,,,,,,,,,,,,,61027ef48b6608d0126bab31,61036dfac4ea71d23f9fd660,2021-07-30_13h13.41.114,Simcolourproject_2stim_asymm_v5,2020.2.10,MacIntel,60,61025ae37ef11b136ea224fe,,,,,,,,,914,31,44,1,0,0,response1disk,,7,17,3,1,0,0,rectangle,17,3,1,0,0,17,3,1,0,0,0,20,20,110,1,,,,,,,,
,,,,,,,,,,,,,FF,,,,,,,,0.883,,,,,,,,,,,,,,,,,,,,,,61027ef48b6608d0126bab31,61036dfac4ea71d23f9fd660,2021-07-30_13h13.41.114,Simcolourproject_2stim_asymm_v5,2020.2.10,MacIntel,60,61025ae37ef11b136ea224fe,,,,,,,,,282,39,69,1,0,0,response1disk,,7,19,8,1,0,0,rectangle,19,8,1,0,0,19,8,1,0,0,0,21,21,112,1,,,,,,,,
,,,,,,,,,,,,,FF,,,,,,,,0.651,,,,,,,,,,,,,,,,,,,,,,61027ef48b6608d0126bab31,61036dfac4ea71d23f9fd660,2021-07-30_13h13.41.114,Simcolourproject_2stim_asymm_v5,2020.2.10,MacIntel,60,61025ae37ef11b136ea224fe,,,,,,,,,1512,42,64,1,0,0,response1disk,,7,14,-3,1,0,0,rectangle,14,-3,1,0,0,14,-3,1,0,0,0,22,22,144,1,,,,,,,,
,,,,,,,,,,,,,FF,,,,,,,,0.484,,,,,,,,,,,,,,,,,,,,,,61027ef48b6608d0126bab31,61036dfac4ea71d23f9fd660,2021-07-30_13h13.41.114,Simcolourproject_2stim_asymm_v5,2020.2.10,MacIntel,60,61025ae37ef11b136ea224fe,,,,,,,,,3890,36,58,1,0,0,response1disk,,7,24,3,1,0,0,rectangle,24,3,1,0,0,24,3,1,0,0,0,23,23,24,1,,,,,,,,
,,,,,,,,,,,,,FF,,,,,,,,0.635,,,,,,,,,,,,,,,,,,,,,,61027ef48b6608d0126bab31,61036dfac4ea71d23f9fd660,2021-07-30_13h13.41.114,Simcolourproject_2stim_asymm_v5,2020.2.10,MacIntel,60,61025ae37ef11b136ea224fe,,,,,,,,,2139,44,69,1,0,0,response1disk,,7,31,13,1,0,0,rectangle,31,13,1,0,0,31,13,1,0,0,0,24,24,69,1,,,,,,,,
,,,,,,,,,,,,,FF,,,,,,,,1.217,,,,,,,,,,,,,,,,,,,,,,61027ef48b6608d0126bab31,61036dfac4ea71d23f9fd660,2021-07-30_13h13.41.114,Simcolourproject_2stim_asymm_v5,2020.2.10,MacIntel,60,61025ae37ef11b136ea224fe,,,,,,,,,3511,62,45,1,0,0,response1disk,,6,-4,7,1,0,0,rectangle,-4,7,1,0,0,-4,7,1,0,0,0,25,25,27,1,,,,,,,,
,,,,,,,,,,,,,FF,,,,,,,,4.649,,,,,,,,,,,,,,,,,,,,,,61027ef48b6608d0126bab31,61036dfac4ea71d23f9fd660,2021-07-30_13h13.41.114,Simcolourproject_2stim_asymm_v5,2020.2.10,MacIntel,60,61025ae37ef11b136ea224fe,,,,,,,,,3906,74,23,1,0,0,response1disk,,6,-6,-4,1,0,0,rectangle,-6,-4,1,0,0,-6,-4,1,0,0,0,26,26,81,1,,,,,,,,
,,,,,,,,,,,,,FF,,,,,,,,0.917,,,,,,,,,,,,,,,,,,,,,,61027ef48b6608d0126bab31,61036dfac4ea71d23f9fd660,2021-07-30_13h13.41.114,Simcolourproject_2stim_asymm_v5,2020.2.10,MacIntel,60,61025ae37ef11b136ea224fe,,,,,,,,,1089,30,69,1,0,0,response1disk,,7,3,-7,1,0,0,rectangle,3,-7,1,0,0,3,-7,1,0,0,0,27,27,155,1,,,,,,,,
,,,,,,,,,,,,,FF,,,,,,,,0.752,,,,,,,,,,,,,,,,,,,,,,61027ef48b6608d0126bab31,61036dfac4ea71d23f9fd660,2021-07-30_13h13.41.114,Simcolourproject_2stim_asymm_v5,2020.2.10,MacIntel,60,61025ae37ef11b136ea224fe,,,,,,,,,3118,22,58,1,0,0,response1disk,,7,2,2,1,0,0,rectangle,-26,67,1,0,0,5,-14,1,0,0,0,28,28,45,1,,response7disk_3,TRUE,0,0,"[170,237,223,29,117,68,150,155,42,291,258,295,250,76,13,321,171,306,96,99]",1.567,rectangle
,,,,,,,,,,,,,FF,,,,,,,,1.467,,,,,,,,,,,,,,,,,,,,,,61027ef48b6608d0126bab31,61036dfac4ea71d23f9fd660,2021-07-30_13h13.41.114,Simcolourproject_2stim_asymm_v5,2020.2.10,MacIntel,60,61025ae37ef11b136ea224fe,,,,,,,,,712,28,83,1,0,0,response1disk,,7,-1,0,1,0,0,rectangle,-1,0,1,0,0,-1,0,1,0,0,0,29,29,142,1,,,,,,,,
,,,,,,,,,,,,,FF,,,,,,,,0.719,,,,,,,,,,,,,,,,,,,,,,61027ef48b6608d0126bab31,61036dfac4ea71d23f9fd660,2021-07-30_13h13.41.114,Simcolourproject_2stim_asymm_v5,2020.2.10,MacIntel,60,61025ae37ef11b136ea224fe,,,,,,,,,3621,24,67,1,0,0,response1disk,,7,6,14,1,0,0,rectangle,6,14,1,0,0,6,14,1,0,0,0,30,30,74,1,,,,,,,,
,,,,,,,,,,,,,FF,,,,,,,,2.266,,,,,,,,,,,,,,,,,,,,,,61027ef48b6608d0126bab31,61036dfac4ea71d23f9fd660,2021-07-30_13h13.41.114,Simcolourproject_2stim_asymm_v5,2020.2.10,MacIntel,60,61025ae37ef11b136ea224fe,,,,,,,,,4347,29,56,1,0,0,response1disk,,7,16,17,1,0,0,rectangle,16,17,1,0,0,16,17,1,0,0,0,31,31,123,1,,,,,,,,
,,,,,,,,,,,,,FF,,,,,,,,0.732,,,,,,,,,,,,,,,,,,,,,,61027ef48b6608d0126bab31,61036dfac4ea71d23f9fd660,2021-07-30_13h13.41.114,Simcolourproject_2stim_asymm_v5,2020.2.10,MacIntel,60,61025ae37ef11b136ea224fe,,,,,,,,,2340,22,43,1,0,0,response1disk,,7,12,4,1,0,0,rectangle,12,4,1,0,0,12,4,1,0,0,0,32,32,96,1,,,,,,,,
,,,,,,,,,,,,,FF,,,,,,,,0.565,,,,,,,,,,,,,,,,,,,,,,61027ef48b6608d0126bab31,61036dfac4ea71d23f9fd660,2021-07-30_13h13.41.114,Simcolourproject_2stim_asymm_v5,2020.2.10,MacIntel,60,61025ae37ef11b136ea224fe,,,,,,,,,3791,28,48,1,0,0,response1disk,,7,16,-3,1,0,0,rectangle,16,-3,1,0,0,16,-3,1,0,0,0,33,33,19,1,,,,,,,,
,,,,,,,,,,,,,FF,,,,,,,,0.682,,,,,,,,,,,,,,,,,,,,,,61027ef48b6608d0126bab31,61036dfac4ea71d23f9fd660,2021-07-30_13h13.41.114,Simcolourproject_2stim_asymm_v5,2020.2.10,MacIntel,60,61025ae37ef11b136ea224fe,,,,,,,,,3889,50,83,1,0,0,response1disk,,7,28,13,1,0,0,rectangle,28,13,1,0,0,28,13,1,0,0,0,34,34,36,1,,,,,,,,
,,,,,,,,,,,,,FF,,,,,,,,0.515,,,,,,,,,,,,,,,,,,,,,,61027ef48b6608d0126bab31,61036dfac4ea71d23f9fd660,2021-07-30_13h13.41.114,Simcolourproject_2stim_asymm_v5,2020.2.10,MacIntel,60,61025ae37ef11b136ea224fe,,,,,,,,,921,43,60,1,0,0,response1disk,,7,25,10,1,0,0,rectangle,25,10,1,0,0,25,10,1,0,0,0,35,35,153,1,,,,,,,,
,,,,,,,,,,,,,FF,,,,,,,,0.568,,,,,,,,,,,,,,,,,,,,,,61027ef48b6608d0126bab31,61036dfac4ea71d23f9fd660,2021-07-30_13h13.41.114,Simcolourproject_2stim_asymm_v5,2020.2.10,MacIntel,60,61025ae37ef11b136ea224fe,,,,,,,,,2400,41,57,1,0,0,response1disk,,7,26,11,1,0,0,rectangle,26,11,1,0,0,26,11,1,0,0,0,36,36,145,1,,,,,,,,
,,,,,,,,,,,,,FF,,,,,,,,0.435,,,,,,,,,,,,,,,,,,,,,,61027ef48b6608d0126bab31,61036dfac4ea71d23f9fd660,2021-07-30_13h13.41.114,Simcolourproject_2stim_asymm_v5,2020.2.10,MacIntel,60,61025ae37ef11b136ea224fe,,,,,,,,,2758,43,81,1,0,0,response1disk,,7,19,10,1,0,0,rectangle,19,10,1,0,0,19,10,1,0,0,0,37,37,2,1,,,,,,,,
,,,,,,,,,,,,,FF,,,,,,,,0.566,,,,,,,,,,,,,,,,,,,,,,61027ef48b6608d0126bab31,61036dfac4ea71d23f9fd660,2021-07-30_13h13.41.114,Simcolourproject_2stim_asymm_v5,2020.2.10,MacIntel,60,61025ae37ef11b136ea224fe,,,,,,,,,3073,37,67,1,0,0,response1disk,,7,19,10,1,0,0,rectangle,19,10,1,0,0,19,10,1,0,0,0,38,38,82,1,,,,,,,,
,,,,,,,,,,,,,FF,,,,,,,,0.636,,,,,,,,,,,,,,,,,,,,,,61027ef48b6608d0126bab31,61036dfac4ea71d23f9fd660,2021-07-30_13h13.41.114,Simcolourproject_2stim_asymm_v5,2020.2.10,MacIntel,60,61025ae37ef11b136ea224fe,,,,,,,,,61,31,80,1,0,0,response1disk,,7,20,13,1,0,0,rectangle,20,13,1,0,0,20,13,1,0,0,0,39,39,159,1,,,,,,,,
,,,,,,,,,,,,,FF,,,,,,,,0.448,,,,,,,,,,,,,,,,,,,,,,61027ef48b6608d0126bab31,61036dfac4ea71d23f9fd660,2021-07-30_13h13.41.114,Simcolourproject_2stim_asymm_v5,2020.2.10,MacIntel,60,61025ae37ef11b136ea224fe,,,,,,,,,500,35,62,1,0,0,response1disk,,7,7,-2,1,0,0,rectangle,7,-2,1,0,0,7,-2,1,0,0,0,40,40,10,1,,,,,,,,
,,,,,,,,,,,,,FF,,,,,,,,0.467,,,,,,,,,,,,,,,,,,,,,,61027ef48b6608d0126bab31,61036dfac4ea71d23f9fd660,2021-07-30_13h13.41.114,Simcolourproject_2stim_asymm_v5,2020.2.10,MacIntel,60,61025ae37ef11b136ea224fe,,,,,,,,,4175,28,71,1,0,0,response1disk,,7,11,0,1,0,0,rectangle,-82,42,1,0,0,-31,12,1,0,0,0,41,41,83,1,,response7disk_3,TRUE,1,1,"[170,237,223,29,117,68,150,155,42,291,258,295,250,76,13,321,171,306,96,99]",1.583,rectangle
,,,,,,,,,,,,,FF,,,,,,,,1.116,,,,,,,,,,,,,,,,,,,,,,61027ef48b6608d0126bab31,61036dfac4ea71d23f9fd660,2021-07-30_13h13.41.114,Simcolourproject_2stim_asymm_v5,2020.2.10,MacIntel,60,61025ae37ef11b136ea224fe,,,,,,,,,3548,27,62,1,0,0,response1disk,,7,-5,-7,1,0,0,rectangle,-5,-7,1,0,0,-5,-7,1,0,0,0,42,42,137,1,,,,,,,,
,,,,,,,,,,,,,FF,,,,,,,,0.669,,,,,,,,,,,,,,,,,,,,,,61027ef48b6608d0126bab31,61036dfac4ea71d23f9fd660,2021-07-30_13h13.41.114,Simcolourproject_2stim_asymm_v5,2020.2.10,MacIntel,60,61025ae37ef11b136ea224fe,,,,,,,,,814,16,49,1,0,0,response1disk,,7,-5,1,1,0,0,rectangle,-5,1,1,0,0,-5,1,1,0,0,0,43,43,158,1,,,,,,,,
,,,,,,,,,,,,,FF,,,,,,,,0.583,,,,,,,,,,,,,,,,,,,,,,61027ef48b6608d0126bab31,61036dfac4ea71d23f9fd660,2021-07-30_13h13.41.114,Simcolourproject_2stim_asymm_v5,2020.2.10,MacIntel,60,61025ae37ef11b136ea224fe,,,,,,,,,2753,23,61,1,0,0,response1disk,,7,5,-2,1,0,0,rectangle,5,-2,1,0,0,5,-2,1,0,0,0,44,44,51,1,,,,,,,,
,,,,,,,,,,,,,FF,,,,,,,,0.613,,,,,,,,,,,,,,,,,,,,,,61027ef48b6608d0126bab31,61036dfac4ea71d23f9fd660,2021-07-30_13h13.41.114,Simcolourproject_2stim_asymm_v5,2020.2.10,MacIntel,60,61025ae37ef11b136ea224fe,,,,,,,,,1645,30,55,1,0,0,response1disk,,7,10,1,1,0,0,rectangle,10,1,1,0,0,10,1,1,0,0,0,45,45,138,1,,,,,,,,
,,,,,,,,,,,,,FF,,,,,,,,0.516,,,,,,,,,,,,,,,,,,,,,,61027ef48b6608d0126bab31,61036dfac4ea71d23f9fd660,2021-07-30_13h13.41.114,Simcolourproject_2stim_asymm_v5,2020.2.10,MacIntel,60,61025ae37ef11b136ea224fe,,,,,,,,,1001,32,46,1,0,0,response1disk,,7,19,9,1,0,0,rectangle,19,9,1,0,0,19,9,1,0,0,0,46,46,28,1,,,,,,,,
,,,,,,,,,,,,,FF,,,,,,,,0.482,,,,,,,,,,,,,,,,,,,,,,61027ef48b6608d0126bab31,61036dfac4ea71d23f9fd660,2021-07-30_13h13.41.114,Simcolourproject_2stim_asymm_v5,2020.2.10,MacIntel,60,61025ae37ef11b136ea224fe,,,,,,,,,1652,40,56,1,0,0,response1disk,,7,23,3,1,0,0,rectangle,23,3,1,0,0,23,3,1,0,0,0,47,47,150,1,,,,,,,,
,,,,,,,,,,,,,FF,,,,,,,,0.584,,,,,,,,,,,,,,,,,,,,,,61027ef48b6608d0126bab31,61036dfac4ea71d23f9fd660,2021-07-30_13h13.41.114,Simcolourproject_2stim_asymm_v5,2020.2.10,MacIntel,60,61025ae37ef11b136ea224fe,,,,,,,,,47,37,69,1,0,0,response1disk,,7,21,17,1,0,0,rectangle,21,17,1,0,0,21,17,1,0,0,0,48,48,44,1,,,,,,,,
,,,,,,,,,,,,,FF,,,,,,,,0.614,,,,,,,,,,,,,,,,,,,,,,61027ef48b6608d0126bab31,61036dfac4ea71d23f9fd660,2021-07-30_13h13.41.114,Simcolourproject_2stim_asymm_v5,2020.2.10,MacIntel,60,61025ae37ef11b136ea224fe,,,,,,,,,3043,30,55,1,0,0,response1disk,,7,19,13,1,0,0,rectangle,19,13,1,0,0,19,13,1,0,0,0,49,49,116,1,,,,,,,,
,,,,,,,,,,,,,FF,,,,,,,,0.451,,,,,,,,,,,,,,,,,,,,,,61027ef48b6608d0126bab31,61036dfac4ea71d23f9fd660,2021-07-30_13h13.41.114,Simcolourproject_2stim_asymm_v5,2020.2.10,MacIntel,60,61025ae37ef11b136ea224fe,,,,,,,,,715,35,65,1,0,0,response1disk,,7,11,-5,1,0,0,rectangle,11,-5,1,0,0,11,-5,1,0,0,0,50,50,89,1,,,,,,,,
,,,,,,,,,,,,,FF,,,,,,,,0.469,,,,,,,,,,,,,,,,,,,,,,61027ef48b6608d0126bab31,61036dfac4ea71d23f9fd660,2021-07-30_13h13.41.114,Simcolourproject_2stim_asymm_v5,2020.2.10,MacIntel,60,61025ae37ef11b136ea224fe,,,,,,,,,3831,28,48,1,0,0,response1disk,,7,19,2,1,0,0,rectangle,19,2,1,0,0,19,2,1,0,0,0,51,51,15,1,,,,,,,,
,,,,,,,,,,,,,FF,,,,,,,,0.431,,,,,,,,,,,,,,,,,,,,,,61027ef48b6608d0126bab31,61036dfac4ea71d23f9fd660,2021-07-30_13h13.41.114,Simcolourproject_2stim_asymm_v5,2020.2.10,MacIntel,60,61025ae37ef11b136ea224fe,,,,,,,,,701,34,71,1,0,0,response1disk,,7,25,14,1,0,0,rectangle,25,14,1,0,0,25,14,1,0,0,0,52,52,59,1,,,,,,,,
,,,,,,,,,,,,,FF,,,,,,,,0.468,,,,,,,,,,,,,,,,,,,,,,61027ef48b6608d0126bab31,61036dfac4ea71d23f9fd660,2021-07-30_13h13.41.114,Simcolourproject_2stim_asymm_v5,2020.2.10,MacIntel,60,61025ae37ef11b136ea224fe,,,,,,,,,2756,39,59,1,0,0,response1disk,,7,16,-1,1,0,0,rectangle,16,-1,1,0,0,16,-1,1,0,0,0,53,53,135,1,,,,,,,,
,,,,,,,,,,,,,FF,,,,,,,,0.335,,,,,,,,,,,,,,,,,,,,,,61027ef48b6608d0126bab31,61036dfac4ea71d23f9fd660,2021-07-30_13h13.41.114,Simcolourproject_2stim_asymm_v5,2020.2.10,MacIntel,60,61025ae37ef11b136ea224fe,,,,,,,,,595,30,65,1,0,0,response1disk,,7,11,-2,1,0,0,rectangle,11,-2,1,0,0,11,-2,1,0,0,0,54,54,57,1,,,,,,,,
,,,,,,,,,,,,,FF,,,,,,,,0.416,,,,,,,,,,,,,,,,,,,,,,61027ef48b6608d0126bab31,61036dfac4ea71d23f9fd660,2021-07-30_13h13.41.114,Simcolourproject_2stim_asymm_v5,2020.2.10,MacIntel,60,61025ae37ef11b136ea224fe,,,,,,,,,2692,36,67,1,0,0,response1disk,,7,18,-4,1,0,0,rectangle,18,-4,1,0,0,18,-4,1,0,0,0,55,55,114,1,,,,,,,,
,,,,,,,,,,,,,FF,,,,,,,,0.383,,,,,,,,,,,,,,,,,,,,,,61027ef48b6608d0126bab31,61036dfac4ea71d23f9fd660,2021-07-30_13h13.41.114,Simcolourproject_2stim_asymm_v5,2020.2.10,MacIntel,60,61025ae37ef11b136ea224fe,,,,,,,,,3694,37,63,1,0,0,response1disk,,7,21,7,1,0,0,rectangle,21,7,1,0,0,21,7,1,0,0,0,56,56,97,1,,,,,,,,
,,,,,,,,,,,,,FF,,,,,,,,0.649,,,,,,,,,,,,,,,,,,,,,,61027ef48b6608d0126bab31,61036dfac4ea71d23f9fd660,2021-07-30_13h13.41.114,Simcolourproject_2stim_asymm_v5,2020.2.10,MacIntel,60,61025ae37ef11b136ea224fe,,,,,,,,,3794,33,65,1,0,0,response1disk,,7,19,-4,1,0,0,rectangle,19,-4,1,0,0,19,-4,1,0,0,0,57,57,78,1,,,,,,,,
,,,,,,,,,,,,,FF,,,,,,,,0.516,,,,,,,,,,,,,,,,,,,,,,61027ef48b6608d0126bab31,61036dfac4ea71d23f9fd660,2021-07-30_13h13.41.114,Simcolourproject_2stim_asymm_v5,2020.2.10,MacIntel,60,61025ae37ef11b136ea224fe,,,,,,,,,2540,28,51,1,0,0,response1disk,,7,10,-16,1,0,0,rectangle,10,-16,1,0,0,10,-16,1,0,0,0,58,58,71,1,,,,,,,,
,,,,,,,,,,,,,FF,,,,,,,,0.434,,,,,,,,,,,,,,,,,,,,,,61027ef48b6608d0126bab31,61036dfac4ea71d23f9fd660,2021-07-30_13h13.41.114,Simcolourproject_2stim_asymm_v5,2020.2.10,MacIntel,60,61025ae37ef11b136ea224fe,,,,,,,,,3008,33,64,1,0,0,response1disk,,7,20,3,1,0,0,rectangle,20,3,1,0,0,20,3,1,0,0,0,59,59,32,1,,,,,,,,
,,,,,,,,,,,,,FF,,,,,,,,0.45,,,,,,,,,,,,,,,,,,,,,,61027ef48b6608d0126bab31,61036dfac4ea71d23f9fd660,2021-07-30_13h13.41.114,Simcolourproject_2stim_asymm_v5,2020.2.10,MacIntel,60,61025ae37ef11b136ea224fe,,,,,,,,,3167,28,64,1,0,0,response1disk,,7,13,10,1,0,0,rectangle,13,10,1,0,0,13,10,1,0,0,0,60,60,91,1,,,,,,,,
,,,,,,,,,,,,,FF,,,,,,,,1.584,,,,,,,,,,,,,,,,,,,,,,61027ef48b6608d0126bab31,61036dfac4ea71d23f9fd660,2021-07-30_13h13.41.114,Simcolourproject_2stim_asymm_v5,2020.2.10,MacIntel,60,61025ae37ef11b136ea224fe,,,,,,,,,3157,30,62,1,0,0,response1disk,,7,24,9,1,0,0,rectangle,24,9,1,0,0,24,9,1,0,0,0,61,61,100,1,,,,,,,,
,,,,,,,,,,,,,FF,,,,,,,,4.35,,,,,,,,,,,,,,,,,,,,,,61027ef48b6608d0126bab31,61036dfac4ea71d23f9fd660,2021-07-30_13h13.41.114,Simcolourproject_2stim_asymm_v5,2020.2.10,MacIntel,60,61025ae37ef11b136ea224fe,,,,,,,,,2827,26,50,1,0,0,response1disk,,7,0,-6,1,0,0,rectangle,0,-6,1,0,0,0,-6,1,0,0,0,62,62,154,1,,,,,,,,
,,,,,,,,,,,,,FF,,,,,,,,1.549,,,,,,,,,,,,,,,,,,,,,,61027ef48b6608d0126bab31,61036dfac4ea71d23f9fd660,2021-07-30_13h13.41.114,Simcolourproject_2stim_asymm_v5,2020.2.10,MacIntel,60,61025ae37ef11b136ea224fe,,,,,,,,,1378,69,40,1,0,0,response1disk,,6,4,-14,1,0,0,rectangle,4,-14,1,0,0,4,-14,1,0,0,0,63,63,109,1,,,,,,,,
,,,,,,,,,,,,,FF,,,,,,,,0.702,,,,,,,,,,,,,,,,,,,,,,61027ef48b6608d0126bab31,61036dfac4ea71d23f9fd660,2021-07-30_13h13.41.114,Simcolourproject_2stim_asymm_v5,2020.2.10,MacIntel,60,61025ae37ef11b136ea224fe,,,,,,,,,4267,31,55,1,0,0,response1disk,,7,-4,-1,1,0,0,rectangle,-4,-1,1,0,0,-4,-1,1,0,0,0,64,64,70,1,,,,,,,,
,,,,,,,,,,,,,FF,,,,,,,,0.433,,,,,,,,,,,,,,,,,,,,,,61027ef48b6608d0126bab31,61036dfac4ea71d23f9fd660,2021-07-30_13h13.41.114,Simcolourproject_2stim_asymm_v5,2020.2.10,MacIntel,60,61025ae37ef11b136ea224fe,,,,,,,,,4126,23,58,1,0,0,response1disk,,7,-7,-10,1,0,0,rectangle,-7,-10,1,0,0,-7,-10,1,0,0,0,65,65,130,1,,,,,,,,
,,,,,,,,,,,,,FF,,,,,,,,0.416,,,,,,,,,,,,,,,,,,,,,,61027ef48b6608d0126bab31,61036dfac4ea71d23f9fd660,2021-07-30_13h13.41.114,Simcolourproject_2stim_asymm_v5,2020.2.10,MacIntel,60,61025ae37ef11b136ea224fe,,,,,,,,,2042,27,53,1,0,0,response1disk,,7,11,0,1,0,0,rectangle,11,0,1,0,0,11,0,1,0,0,0,66,66,13,1,,,,,,,,
,,,,,,,,,,,,,FF,,,,,,,,2.682,,,,,,,,,,,,,,,,,,,,,,61027ef48b6608d0126bab31,61036dfac4ea71d23f9fd660,2021-07-30_13h13.41.114,Simcolourproject_2stim_asymm_v5,2020.2.10,MacIntel,60,61025ae37ef11b136ea224fe,,,,,,,,,3007,53,43,1,0,0,response1disk,,6,-10,1,1,0,0,rectangle,48,78,1,0,0,10,-17,1,0,0,0,67,67,115,1,,response1disk_3,TRUE,7,7,"[170,237,223,29,117,68,150,155,42,291,258,295,250,76,13,321,171,306,96,99]",1.4,rectangle
,,,,,,,,,,,,,FF,,,,,,,,0.517,,,,,,,,,,,,,,,,,,,,,,61027ef48b6608d0126bab31,61036dfac4ea71d23f9fd660,2021-07-30_13h13.41.114,Simcolourproject_2stim_asymm_v5,2020.2.10,MacIntel,60,61025ae37ef11b136ea224fe,,,,,,,,,3227,24,40,1,0,0,response1disk,,7,2,-9,1,0,0,rectangle,2,-9,1,0,0,2,-9,1,0,0,0,68,68,90,1,,,,,,,,
,,,,,,,,,,,,,FF,,,,,,,,2.601,,,,,,,,,,,,,,,,,,,,,,61027ef48b6608d0126bab31,61036dfac4ea71d23f9fd660,2021-07-30_13h13.41.114,Simcolourproject_2stim_asymm_v5,2020.2.10,MacIntel,60,61025ae37ef11b136ea224fe,,,,,,,,,4223,62,48,1,0,0,response1disk,,6,23,15,1,0,0,rectangle,23,15,1,0,0,23,15,1,0,0,0,69,69,136,1,,,,,,,,
,,,,,,,,,,,,,FF,,,,,,,,0.48,,,,,,,,,,,,,,,,,,,,,,61027ef48b6608d0126bab31,61036dfac4ea71d23f9fd660,2021-07-30_13h13.41.114,Simcolourproject_2stim_asymm_v5,2020.2.10,MacIntel,60,61025ae37ef11b136ea224fe,,,,,,,,,2911,30,46,1,0,0,response1disk,,7,6,-1,1,0,0,rectangle,6,-1,1,0,0,6,-1,1,0,0,0,70,70,33,1,,,,,,,,
,,,,,,,,,,,,,FF,,,,,,,,0.401,,,,,,,,,,,,,,,,,,,,,,61027ef48b6608d0126bab31,61036dfac4ea71d23f9fd660,2021-07-30_13h13.41.114,Simcolourproject_2stim_asymm_v5,2020.2.10,MacIntel,60,61025ae37ef11b136ea224fe,,,,,,,,,487,19,49,1,0,0,response1disk,,7,0,-3,1,0,0,rectangle,0,-3,1,0,0,0,-3,1,0,0,0,71,71,14,1,,,,,,,,
,,,,,,,,,,,,,FF,,,,,,,,0.369,,,,,,,,,,,,,,,,,,,,,,61027ef48b6608d0126bab31,61036dfac4ea71d23f9fd660,2021-07-30_13h13.41.114,Simcolourproject_2stim_asymm_v5,2020.2.10,MacIntel,60,61025ae37ef11b136ea224fe,,,,,,,,,4310,31,63,1,0,0,response1disk,,7,12,15,1,0,0,rectangle,12,15,1,0,0,12,15,1,0,0,0,72,72,129,1,,,,,,,,
,,,,,,,,,,,,,FF,,,,,,,,3.365,,,,,,,,,,,,,,,,,,,,,,61027ef48b6608d0126bab31,61036dfac4ea71d23f9fd660,2021-07-30_13h13.41.114,Simcolourproject_2stim_asymm_v5,2020.2.10,MacIntel,60,61025ae37ef11b136ea224fe,,,,,,,,,424,29,66,1,0,0,response1disk,,7,11,15,1,0,0,rectangle,11,15,1,0,0,11,15,1,0,0,0,73,73,72,1,,,,,,,,
,,,,,,,,,,,,,FF,,,,,,,,0.451,,,,,,,,,,,,,,,,,,,,,,61027ef48b6608d0126bab31,61036dfac4ea71d23f9fd660,2021-07-30_13h13.41.114,Simcolourproject_2stim_asymm_v5,2020.2.10,MacIntel,60,61025ae37ef11b136ea224fe,,,,,,,,,1085,25,72,1,0,0,response1disk,,7,15,17,1,0,0,rectangle,15,17,1,0,0,15,17,1,0,0,0,74,74,143,1,,,,,,,,
,,,,,,,,,,,,,FF,,,,,,,,1.301,,,,,,,,,,,,,,,,,,,,,,61027ef48b6608d0126bab31,61036dfac4ea71d23f9fd660,2021-07-30_13h13.41.114,Simcolourproject_2stim_asymm_v5,2020.2.10,MacIntel,60,61025ae37ef11b136ea224fe,,,,,,,,,3187,30,50,1,0,0,response1disk,,7,14,-4,1,0,0,rectangle,84,-46,1,0,0,25,-9,1,0,0,0,75,75,80,1,,response3disk_3,TRUE,5,5,"[170,237,223,29,117,68,150,155,42,291,258,295,250,76,13,321,171,306,96,99]",1.298,rectangle
,,,,,,,,,,,,,FF,,,,,,,,1.233,,,,,,,,,,,,,,,,,,,,,,61027ef48b6608d0126bab31,61036dfac4ea71d23f9fd660,2021-07-30_13h13.41.114,Simcolourproject_2stim_asymm_v5,2020.2.10,MacIntel,60,61025ae37ef11b136ea224fe,,,,,,,,,3170,22,45,1,0,0,response1disk,,7,9,3,1,0,0,rectangle,9,3,1,0,0,9,3,1,0,0,0,76,76,108,1,,,,,,,,
,,,,,,,,,,,,,FF,,,,,,,,1.568,,,,,,,,,,,,,,,,,,,,,,61027ef48b6608d0126bab31,61036dfac4ea71d23f9fd660,2021-07-30_13h13.41.114,Simcolourproject_2stim_asymm_v5,2020.2.10,MacIntel,60,61025ae37ef11b136ea224fe,,,,,,,,,2165,22,45,1,0,0,response1disk,,7,7,-8,1,0,0,rectangle,7,-8,1,0,0,7,-8,1,0,0,0,77,77,152,1,,,,,,,,
,,,,,,,,,,,,,FF,,,,,,,,0.864,,,,,,,,,,,,,,,,,,,,,,61027ef48b6608d0126bab31,61036dfac4ea71d23f9fd660,2021-07-30_13h13.41.114,Simcolourproject_2stim_asymm_v5,2020.2.10,MacIntel,60,61025ae37ef11b136ea224fe,,,,,,,,,3766,34,72,1,0,0,response1disk,,7,14,6,1,0,0,rectangle,14,6,1,0,0,14,6,1,0,0,0,78,78,20,1,,,,,,,,
,,,,,,,,,,,,,FF,,,,,,,,0.549,,,,,,,,,,,,,,,,,,,,,,61027ef48b6608d0126bab31,61036dfac4ea71d23f9fd660,2021-07-30_13h13.41.114,Simcolourproject_2stim_asymm_v5,2020.2.10,MacIntel,60,61025ae37ef11b136ea224fe,,,,,,,,,2128,35,49,1,0,0,response1disk,,7,19,8,1,0,0,rectangle,19,8,1,0,0,19,8,1,0,0,0,79,79,50,1,,,,,,,,
,,,,,,,,,,,,,FF,,,,,,,,0.683,,,,,,,,,,,,,,,,,,,,,,61027ef48b6608d0126bab31,61036dfac4ea71d23f9fd660,2021-07-30_13h13.41.114,Simcolourproject_2stim_asymm_v5,2020.2.10,MacIntel,60,61025ae37ef11b136ea224fe,,,,,,,,,4162,34,46,1,0,0,response1disk,,7,21,7,1,0,0,rectangle,21,7,1,0,0,21,7,1,0,0,0,80,80,55,1,,,,,,,,
,,,,,,,,,,,,,FF,,,,,,,,0.749,,,,,,,,,,,,,,,,,,,,,,61027ef48b6608d0126bab31,61036dfac4ea71d23f9fd660,2021-07-30_13h13.41.114,Simcolourproject_2stim_asymm_v5,2020.2.10,MacIntel,60,61025ae37ef11b136ea224fe,,,,,,,,,448,39,46,1,0,0,response1disk,,7,21,5,1,0,0,rectangle,21,5,1,0,0,21,5,1,0,0,0,81,81,124,1,,,,,,,,
,,,,,,,,,,,,,FF,,,,,,,,0.602,,,,,,,,,,,,,,,,,,,,,,61027ef48b6608d0126bab31,61036dfac4ea71d23f9fd660,2021-07-30_13h13.41.114,Simcolourproject_2stim_asymm_v5,2020.2.10,MacIntel,60,61025ae37ef11b136ea224fe,,,,,,,,,1749,44,56,1,0,0,response1disk,,7,16,-15,1,0,0,rectangle,16,-15,1,0,0,16,-15,1,0,0,0,82,82,94,1,,,,,,,,
,,,,,,,,,,,,,FF,,,,,,,,0.336,,,,,,,,,,,,,,,,,,,,,,61027ef48b6608d0126bab31,61036dfac4ea71d23f9fd660,2021-07-30_13h13.41.114,Simcolourproject_2stim_asymm_v5,2020.2.10,MacIntel,60,61025ae37ef11b136ea224fe,,,,,,,,,816,44,54,1,0,0,response1disk,,7,24,3,1,0,0,rectangle,24,3,1,0,0,24,3,1,0,0,0,83,83,30,1,,,,,,,,
,,,,,,,,,,,,,FF,,,,,,,,0.299,,,,,,,,,,,,,,,,,,,,,,61027ef48b6608d0126bab31,61036dfac4ea71d23f9fd660,2021-07-30_13h13.41.114,Simcolourproject_2stim_asymm_v5,2020.2.10,MacIntel,60,61025ae37ef11b136ea224fe,,,,,,,,,2483,47,56,1,0,0,response1disk,,7,24,-6,1,0,0,rectangle,24,-6,1,0,0,24,-6,1,0,0,0,84,84,47,1,,,,,,,,
,,,,,,,,,,,,,FF,,,,,,,,1.033,,,,,,,,,,,,,,,,,,,,,,61027ef48b6608d0126bab31,61036dfac4ea71d23f9fd660,2021-07-30_13h13.41.114,Simcolourproject_2stim_asymm_v5,2020.2.10,MacIntel,60,61025ae37ef11b136ea224fe,,,,,,,,,3779,53,73,1,0,0,response1disk,,7,17,-7,1,0,0,rectangle,17,-7,1,0,0,17,-7,1,0,0,0,85,85,48,1,,,,,,,,
,,,,,,,,,,,,,FF,,,,,,,,1.201,,,,,,,,,,,,,,,,,,,,,,61027ef48b6608d0126bab31,61036dfac4ea71d23f9fd660,2021-07-30_13h13.41.114,Simcolourproject_2stim_asymm_v5,2020.2.10,MacIntel,60,61025ae37ef11b136ea224fe,,,,,,,,,4182,57,43,1,0,0,response1disk,,6,-2,7,1,0,0,rectangle,-2,7,1,0,0,-2,7,1,0,0,0,86,86,139,1,,,,,,,,
,,,,,,,,,,,,,FF,,,,,,,,1.6,,,,,,,,,,,,,,,,,,,,,,61027ef48b6608d0126bab31,61036dfac4ea71d23f9fd660,2021-07-30_13h13.41.114,Simcolourproject_2stim_asymm_v5,2020.2.10,MacIntel,60,61025ae37ef11b136ea224fe,,,,,,,,,1368,-25,73,1,0,0,response7disk,,0,-12,-6,1,0,0,rectangle,-12,-6,1,0,0,-12,-6,1,0,0,0,87,87,140,1,,,,,,,,
,,,,,,,,,,,,,FF,,,,,,,,2.716,,,,,,,,,,,,,,,,,,,,,,61027ef48b6608d0126bab31,61036dfac4ea71d23f9fd660,2021-07-30_13h13.41.114,Simcolourproject_2stim_asymm_v5,2020.2.10,MacIntel,60,61025ae37ef11b136ea224fe,,,,,,,,,791,76,39,1,0,0,response1disk,,6,11,15,1,0,0,rectangle,11,15,1,0,0,11,15,1,0,0,0,88,88,42,1,,,,,,,,
,,,,,,,,,,,,,FF,,,,,,,,0.633,,,,,,,,,,,,,,,,,,,,,,61027ef48b6608d0126bab31,61036dfac4ea71d23f9fd660,2021-07-30_13h13.41.114,Simcolourproject_2stim_asymm_v5,2020.2.10,MacIntel,60,61025ae37ef11b136ea224fe,,,,,,,,,2657,27,66,1,0,0,response1disk,,7,0,-1,1,0,0,rectangle,0,-1,1,0,0,0,-1,1,0,0,0,89,89,125,1,,,,,,,,
,,,,,,,,,,,,,FF,,,,,,,,0.599,,,,,,,,,,,,,,,,,,,,,,61027ef48b6608d0126bab31,61036dfac4ea71d23f9fd660,2021-07-30_13h13.41.114,Simcolourproject_2stim_asymm_v5,2020.2.10,MacIntel,60,61025ae37ef11b136ea224fe,,,,,,,,,1374,29,58,1,0,0,response1disk,,7,5,0,1,0,0,rectangle,5,0,1,0,0,5,0,1,0,0,0,90,90,8,1,,,,,,,,
,,,,,,,,,,,,,FF,,,,,,,,0.5,,,,,,,,,,,,,,,,,,,,,,61027ef48b6608d0126bab31,61036dfac4ea71d23f9fd660,2021-07-30_13h13.41.114,Simcolourproject_2stim_asymm_v5,2020.2.10,MacIntel,60,61025ae37ef11b136ea224fe,,,,,,,,,1568,32,57,1,0,0,response1disk,,7,12,13,1,0,0,rectangle,12,13,1,0,0,12,13,1,0,0,0,91,91,61,1,,,,,,,,
,,,,,,,,,,,,,FF,,,,,,,,0.567,,,,,,,,,,,,,,,,,,,,,,61027ef48b6608d0126bab31,61036dfac4ea71d23f9fd660,2021-07-30_13h13.41.114,Simcolourproject_2stim_asymm_v5,2020.2.10,MacIntel,60,61025ae37ef11b136ea224fe,,,,,,,,,3885,38,63,1,0,0,response1disk,,7,14,7,1,0,0,rectangle,14,7,1,0,0,14,7,1,0,0,0,92,92,76,1,,,,,,,,
,,,,,,,,,,,,,FF,,,,,,,,0.717,,,,,,,,,,,,,,,,,,,,,,61027ef48b6608d0126bab31,61036dfac4ea71d23f9fd660,2021-07-30_13h13.41.114,Simcolourproject_2stim_asymm_v5,2020.2.10,MacIntel,60,61025ae37ef11b136ea224fe,,,,,,,,,1518,36,70,1,0,0,response1disk,,7,4,5,1,0,0,rectangle,4,5,1,0,0,4,5,1,0,0,0,93,93,38,1,,,,,,,,
,,,,,,,,,,,,,FF,,,,,,,,0.384,,,,,,,,,,,,,,,,,,,,,,61027ef48b6608d0126bab31,61036dfac4ea71d23f9fd660,2021-07-30_13h13.41.114,Simcolourproject_2stim_asymm_v5,2020.2.10,MacIntel,60,61025ae37ef11b136ea224fe,,,,,,,,,299,28,61,1,0,0,response1disk,,7,11,6,1,0,0,rectangle,11,6,1,0,0,11,6,1,0,0,0,94,94,105,1,,,,,,,,
,,,,,,,,,,,,,FF,,,,,,,,0.566,,,,,,,,,,,,,,,,,,,,,,61027ef48b6608d0126bab31,61036dfac4ea71d23f9fd660,2021-07-30_13h13.41.114,Simcolourproject_2stim_asymm_v5,2020.2.10,MacIntel,60,61025ae37ef11b136ea224fe,,,,,,,,,3593,32,59,1,0,0,response1disk,,7,15,3,1,0,0,rectangle,-42,-76,1,0,0,-25,-5,1,0,0,0,95,95,31,1,,response5disk_3,TRUE,3,3,"[170,237,223,29,117,68,150,155,42,291,258,295,250,76,13,321,171,306,96,99]",1.735,rectangle
,,,,,,,,,,,,,FF,,,,,,,,1.999,,,,,,,,,,,,,,,,,,,,,,61027ef48b6608d0126bab31,61036dfac4ea71d23f9fd660,2021-07-30_13h13.41.114,Simcolourproject_2stim_asymm_v5,2020.2.10,MacIntel,60,61025ae37ef11b136ea224fe,,,,,,,,,4298,14,58,1,0,0,response1disk,,7,7,-1,1,0,0,rectangle,7,-1,1,0,0,7,-1,1,0,0,0,96,96,26,1,,,,,,,,
,,,,,,,,,,,,,FF,,,,,,,,1.117,,,,,,,,,,,,,,,,,,,,,,61027ef48b6608d0126bab31,61036dfac4ea71d23f9fd660,2021-07-30_13h13.41.114,Simcolourproject_2stim_asymm_v5,2020.2.10,MacIntel,60,61025ae37ef11b136ea224fe,,,,,,,,,1616,26,49,1,0,0,response1disk,,7,6,-13,1,0,0,rectangle,6,-13,1,0,0,6,-13,1,0,0,0,97,97,49,1,,,,,,,,
,,,,,,,,,,,,,FF,,,,,,,,0.584,,,,,,,,,,,,,,,,,,,,,,61027ef48b6608d0126bab31,61036dfac4ea71d23f9fd660,2021-07-30_13h13.41.114,Simcolourproject_2stim_asymm_v5,2020.2.10,MacIntel,60,61025ae37ef11b136ea224fe,,,,,,,,,1883,32,52,1,0,0,response1disk,,7,14,-5,1,0,0,rectangle,44,-71,1,0,0,22,-6,1,0,0,0,98,98,11,1,,response3disk_3,TRUE,4,4,"[170,237,223,29,117,68,150,155,42,291,258,295,250,76,13,321,171,306,96,99]",1.536,rectangle
,,,,,,,,,,,,,FF,,,,,,,,0.681,,,,,,,,,,,,,,,,,,,,,,61027ef48b6608d0126bab31,61036dfac4ea71d23f9fd660,2021-07-30_13h13.41.114,Simcolourproject_2stim_asymm_v5,2020.2.10,MacIntel,60,61025ae37ef11b136ea224fe,,,,,,,,,3692,19,55,1,0,0,response1disk,,7,-1,-7,1,0,0,rectangle,-1,-7,1,0,0,-1,-7,1,0,0,0,99,99,77,1,,,,,,,,
,,,,,,,,,,,,,FF,,,,,,,,1.883,,,,,,,,,,,,,,,,,,,,,,61027ef48b6608d0126bab31,61036dfac4ea71d23f9fd660,2021-07-30_13h13.41.114,Simcolourproject_2stim_asymm_v5,2020.2.10,MacIntel,60,61025ae37ef11b136ea224fe,,,,,,,,,3142,27,58,1,0,0,response1disk,,7,3,5,1,0,0,rectangle,3,5,1,0,0,3,5,1,0,0,0,100,100,68,1,,,,,,,,
,,,,,,,,,,,,,FF,,,,,,,,1.08,,,,,,,,,,,,,,,,,,,,,,61027ef48b6608d0126bab31,61036dfac4ea71d23f9fd660,2021-07-30_13h13.41.114,Simcolourproject_2stim_asymm_v5,2020.2.10,MacIntel,60,61025ae37ef11b136ea224fe,,,,,,,,,4230,23,49,1,0,0,response1disk,,7,7,1,1,0,0,rectangle,7,1,1,0,0,7,1,1,0,0,0,101,101,98,1,,,,,,,,
,,,,,,,,,,,,,FF,,,,,,,,1.066,,,,,,,,,,,,,,,,,,,,,,61027ef48b6608d0126bab31,61036dfac4ea71d23f9fd660,2021-07-30_13h13.41.114,Simcolourproject_2stim_asymm_v5,2020.2.10,MacIntel,60,61025ae37ef11b136ea224fe,,,,,,,,,170,26,55,1,0,0,response1disk,,7,14,13,1,0,0,rectangle,14,13,1,0,0,14,13,1,0,0,0,102,102,4,1,,,,,,,,
,,,,,,,,,,,,,FF,,,,,,,,0.484,,,,,,,,,,,,,,,,,,,,,,61027ef48b6608d0126bab31,61036dfac4ea71d23f9fd660,2021-07-30_13h13.41.114,Simcolourproject_2stim_asymm_v5,2020.2.10,MacIntel,60,61025ae37ef11b136ea224fe,,,,,,,,,2959,31,61,1,0,0,response1disk,,7,18,8,1,0,0,rectangle,18,8,1,0,0,18,8,1,0,0,0,103,103,84,1,,,,,,,,
,,,,,,,,,,,,,FF,,,,,,,,0.467,,,,,,,,,,,,,,,,,,,,,,61027ef48b6608d0126bab31,61036dfac4ea71d23f9fd660,2021-07-30_13h13.41.114,Simcolourproject_2stim_asymm_v5,2020.2.10,MacIntel,60,61025ae37ef11b136ea224fe,,,,,,,,,126,34,50,1,0,0,response1disk,,7,22,12,1,0,0,rectangle,22,12,1,0,0,22,12,1,0,0,0,104,104,133,1,,,,,,,,
,,,,,,,,,,,,,FF,,,,,,,,0.447,,,,,,,,,,,,,,,,,,,,,,61027ef48b6608d0126bab31,61036dfac4ea71d23f9fd660,2021-07-30_13h13.41.114,Simcolourproject_2stim_asymm_v5,2020.2.10,MacIntel,60,61025ae37ef11b136ea224fe,,,,,,,,,3608,34,52,1,0,0,response1disk,,7,23,7,1,0,0,rectangle,23,7,1,0,0,23,7,1,0,0,0,105,105,147,1,,,,,,,,
,,,,,,,,,,,,,FF,,,,,,,,0.399,,,,,,,,,,,,,,,,,,,,,,61027ef48b6608d0126bab31,61036dfac4ea71d23f9fd660,2021-07-30_13h13.41.114,Simcolourproject_2stim_asymm_v5,2020.2.10,MacIntel,60,61025ae37ef11b136ea224fe,,,,,,,,,1848,33,54,1,0,0,response1disk,,7,27,7,1,0,0,rectangle,27,7,1,0,0,27,7,1,0,0,0,106,106,25,1,,,,,,,,
,,,,,,,,,,,,,FF,,,,,,,,1.42,,,,,,,,,,,,,,,,,,,,,,61027ef48b6608d0126bab31,61036dfac4ea71d23f9fd660,2021-07-30_13h13.41.114,Simcolourproject_2stim_asymm_v5,2020.2.10,MacIntel,60,61025ae37ef11b136ea224fe,,,,,,,,,1270,31,71,1,0,0,response1disk,,7,11,14,1,0,0,rectangle,11,14,1,0,0,11,14,1,0,0,0,107,107,95,1,,,,,,,,
,,,,,,,,,,,,,FF,,,,,,,,0.867,,,,,,,,,,,,,,,,,,,,,,61027ef48b6608d0126bab31,61036dfac4ea71d23f9fd660,2021-07-30_13h13.41.114,Simcolourproject_2stim_asymm_v5,2020.2.10,MacIntel,60,61025ae37ef11b136ea224fe,,,,,,,,,2032,27,55,1,0,0,response1disk,,7,17,4,1,0,0,rectangle,17,4,1,0,0,17,4,1,0,0,0,108,108,53,1,,,,,,,,
,,,,,,,,,,,,,FF,,,,,,,,1.251,,,,,,,,,,,,,,,,,,,,,,61027ef48b6608d0126bab31,61036dfac4ea71d23f9fd660,2021-07-30_13h13.41.114,Simcolourproject_2stim_asymm_v5,2020.2.10,MacIntel,60,61025ae37ef11b136ea224fe,,,,,,,,,1224,38,58,1,0,0,response1disk,,7,3,-15,1,0,0,rectangle,3,-15,1,0,0,3,-15,1,0,0,0,109,109,52,1,,,,,,,,
,,,,,,,,,,,,,FF,,,,,,,,1.917,,,,,,,,,,,,,,,,,,,,,,61027ef48b6608d0126bab31,61036dfac4ea71d23f9fd660,2021-07-30_13h13.41.114,Simcolourproject_2stim_asymm_v5,2020.2.10,MacIntel,60,61025ae37ef11b136ea224fe,,,,,,,,,1866,26,47,1,0,0,response1disk,,7,11,0,1,0,0,rectangle,11,0,1,0,0,11,0,1,0,0,0,110,110,93,1,,,,,,,,
,,,,,,,,,,,,,FF,,,,,,,,2.984,,,,,,,,,,,,,,,,,,,,,,61027ef48b6608d0126bab31,61036dfac4ea71d23f9fd660,2021-07-30_13h13.41.114,Simcolourproject_2stim_asymm_v5,2020.2.10,MacIntel,60,61025ae37ef11b136ea224fe,,,,,,,,,160,44,61,1,0,0,response1disk,,7,20,0,1,0,0,rectangle,20,0,1,0,0,20,0,1,0,0,0,111,111,43,1,,,,,,,,
,,,,,,,,,,,,,FF,,,,,,,,0.449,,,,,,,,,,,,,,,,,,,,,,61027ef48b6608d0126bab31,61036dfac4ea71d23f9fd660,2021-07-30_13h13.41.114,Simcolourproject_2stim_asymm_v5,2020.2.10,MacIntel,60,61025ae37ef11b136ea224fe,,,,,,,,,2926,25,51,1,0,0,response1disk,,7,10,7,1,0,0,rectangle,10,7,1,0,0,10,7,1,0,0,0,112,112,12,1,,,,,,,,
,,,,,,,,,,,,,FF,,,,,,,,0.484,,,,,,,,,,,,,,,,,,,,,,61027ef48b6608d0126bab31,61036dfac4ea71d23f9fd660,2021-07-30_13h13.41.114,Simcolourproject_2stim_asymm_v5,2020.2.10,MacIntel,60,61025ae37ef11b136ea224fe,,,,,,,,,3009,27,55,1,0,0,response1disk,,7,16,13,1,0,0,rectangle,16,13,1,0,0,16,13,1,0,0,0,113,113,7,1,,,,,,,,
,,,,,,,,,,,,,FF,,,,,,,,0.405,,,,,,,,,,,,,,,,,,,,,,61027ef48b6608d0126bab31,61036dfac4ea71d23f9fd660,2021-07-30_13h13.41.114,Simcolourproject_2stim_asymm_v5,2020.2.10,MacIntel,60,61025ae37ef11b136ea224fe,,,,,,,,,2065,41,73,1,0,0,response1disk,,7,21,-1,1,0,0,rectangle,21,-1,1,0,0,21,-1,1,0,0,0,114,114,6,1,,,,,,,,
,,,,,,,,,,,,,FF,,,,,,,,1.667,,,,,,,,,,,,,,,,,,,,,,61027ef48b6608d0126bab31,61036dfac4ea71d23f9fd660,2021-07-30_13h13.41.114,Simcolourproject_2stim_asymm_v5,2020.2.10,MacIntel,60,61025ae37ef11b136ea224fe,,,,,,,,,1532,39,53,1,0,0,response1disk,,7,18,0,1,0,0,rectangle,18,0,1,0,0,18,0,1,0,0,0,115,115,120,1,,,,,,,,
,,,,,,,,,,,,,FF,,,,,,,,0.549,,,,,,,,,,,,,,,,,,,,,,61027ef48b6608d0126bab31,61036dfac4ea71d23f9fd660,2021-07-30_13h13.41.114,Simcolourproject_2stim_asymm_v5,2020.2.10,MacIntel,60,61025ae37ef11b136ea224fe,,,,,,,,,1160,28,61,1,0,0,response1disk,,7,13,5,1,0,0,rectangle,-50,32,1,0,0,-16,13,1,0,0,0,116,116,34,1,,response7disk_3,TRUE,1,1,"[170,237,223,29,117,68,150,155,42,291,258,295,250,76,13,321,171,306,96,99]",1.416,rectangle
,,,,,,,,,,,,,FF,,,,,,,,1.049,,,,,,,,,,,,,,,,,,,,,,61027ef48b6608d0126bab31,61036dfac4ea71d23f9fd660,2021-07-30_13h13.41.114,Simcolourproject_2stim_asymm_v5,2020.2.10,MacIntel,60,61025ae37ef11b136ea224fe,,,,,,,,,1521,-34,60,1,0,0,response7disk,,0,-21,6,1,0,0,rectangle,-21,6,1,0,0,-21,6,1,0,0,0,117,117,16,1,,,,,,,,
,,,,,,,,,,,,,FF,,,,,,,,0.851,,,,,,,,,,,,,,,,,,,,,,61027ef48b6608d0126bab31,61036dfac4ea71d23f9fd660,2021-07-30_13h13.41.114,Simcolourproject_2stim_asymm_v5,2020.2.10,MacIntel,60,61025ae37ef11b136ea224fe,,,,,,,,,2972,20,56,1,0,0,response1disk,,7,-2,5,1,0,0,rectangle,-2,5,1,0,0,-2,5,1,0,0,0,118,118,39,1,,,,,,,,
,,,,,,,,,,,,,FF,,,,,,,,0.512,,,,,,,,,,,,,,,,,,,,,,61027ef48b6608d0126bab31,61036dfac4ea71d23f9fd660,2021-07-30_13h13.41.114,Simcolourproject_2stim_asymm_v5,2020.2.10,MacIntel,60,61025ae37ef11b136ea224fe,,,,,,,,,3172,31,56,1,0,0,response1disk,,7,13,8,1,0,0,rectangle,13,8,1,0,0,13,8,1,0,0,0,119,119,92,1,,,,,,,,
,,,,,,,,,,,,,FF,,,,,,,,0.482,,,,,,,,,,,,,,,,,,,,,,61027ef48b6608d0126bab31,61036dfac4ea71d23f9fd660,2021-07-30_13h13.41.114,Simcolourproject_2stim_asymm_v5,2020.2.10,MacIntel,60,61025ae37ef11b136ea224fe,,,,,,,,,2055,29,49,1,0,0,response1disk,,7,15,5,1,0,0,rectangle,15,5,1,0,0,15,5,1,0,0,0,120,120,37,1,,,,,,,,
,,,,,,,,,,,,,FF,,,,,,,,2.85,,,,,,,,,,,,,,,,,,,,,,61027ef48b6608d0126bab31,61036dfac4ea71d23f9fd660,2021-07-30_13h13.41.114,Simcolourproject_2stim_asymm_v5,2020.2.10,MacIntel,60,61025ae37ef11b136ea224fe,,,,,,,,,1690,40,61,1,0,0,response1disk,,7,22,10,1,0,0,rectangle,22,10,1,0,0,22,10,1,0,0,0,121,121,60,1,,,,,,,,
,,,,,,,,,,,,,FF,,,,,,,,0.55,,,,,,,,,,,,,,,,,,,,,,61027ef48b6608d0126bab31,61036dfac4ea71d23f9fd660,2021-07-30_13h13.41.114,Simcolourproject_2stim_asymm_v5,2020.2.10,MacIntel,60,61025ae37ef11b136ea224fe,,,,,,,,,2879,30,56,1,0,0,response1disk,,7,14,10,1,0,0,rectangle,14,10,1,0,0,14,10,1,0,0,0,122,122,103,1,,,,,,,,
,,,,,,,,,,,,,FF,,,,,,,,0.501,,,,,,,,,,,,,,,,,,,,,,61027ef48b6608d0126bab31,61036dfac4ea71d23f9fd660,2021-07-30_13h13.41.114,Simcolourproject_2stim_asymm_v5,2020.2.10,MacIntel,60,61025ae37ef11b136ea224fe,,,,,,,,,1352,32,58,1,0,0,response1disk,,7,14,5,1,0,0,rectangle,14,5,1,0,0,14,5,1,0,0,0,123,123,119,1,,,,,,,,
,,,,,,,,,,,,,FF,,,,,,,,1.032,,,,,,,,,,,,,,,,,,,,,,61027ef48b6608d0126bab31,61036dfac4ea71d23f9fd660,2021-07-30_13h13.41.114,Simcolourproject_2stim_asymm_v5,2020.2.10,MacIntel,60,61025ae37ef11b136ea224fe,,,,,,,,,3097,36,69,1,0,0,response1disk,,7,13,8,1,0,0,rectangle,13,8,1,0,0,13,8,1,0,0,0,124,124,67,1,,,,,,,,
,,,,,,,,,,,,,FF,,,,,,,,0.599,,,,,,,,,,,,,,,,,,,,,,61027ef48b6608d0126bab31,61036dfac4ea71d23f9fd660,2021-07-30_13h13.41.114,Simcolourproject_2stim_asymm_v5,2020.2.10,MacIntel,60,61025ae37ef11b136ea224fe,,,,,,,,,2675,30,56,1,0,0,response1disk,,7,14,8,1,0,0,rectangle,14,8,1,0,0,14,8,1,0,0,0,125,125,23,1,,,,,,,,
,,,,,,,,,,,,,FF,,,,,,,,0.483,,,,,,,,,,,,,,,,,,,,,,61027ef48b6608d0126bab31,61036dfac4ea71d23f9fd660,2021-07-30_13h13.41.114,Simcolourproject_2stim_asymm_v5,2020.2.10,MacIntel,60,61025ae37ef11b136ea224fe,,,,,,,,,2385,29,66,1,0,0,response1disk,,7,18,17,1,0,0,rectangle,18,17,1,0,0,18,17,1,0,0,0,126,126,128,1,,,,,,,,
,,,,,,,,,,,,,FF,,,,,,,,0.483,,,,,,,,,,,,,,,,,,,,,,61027ef48b6608d0126bab31,61036dfac4ea71d23f9fd660,2021-07-30_13h13.41.114,Simcolourproject_2stim_asymm_v5,2020.2.10,MacIntel,60,61025ae37ef11b136ea224fe,,,,,,,,,1254,34,70,1,0,0,response1disk,,7,17,-2,1,0,0,rectangle,17,-2,1,0,0,17,-2,1,0,0,0,127,127,149,1,,,,,,,,
,,,,,,,,,,,,,FF,,,,,,,,0.416,,,,,,,,,,,,,,,,,,,,,,61027ef48b6608d0126bab31,61036dfac4ea71d23f9fd660,2021-07-30_13h13.41.114,Simcolourproject_2stim_asymm_v5,2020.2.10,MacIntel,60,61025ae37ef11b136ea224fe,,,,,,,,,1099,32,51,1,0,0,response1disk,,7,22,3,1,0,0,rectangle,22,3,1,0,0,22,3,1,0,0,0,128,128,101,1,,,,,,,,
,,,,,,,,,,,,,FF,,,,,,,,0.45,,,,,,,,,,,,,,,,,,,,,,61027ef48b6608d0126bab31,61036dfac4ea71d23f9fd660,2021-07-30_13h13.41.114,Simcolourproject_2stim_asymm_v5,2020.2.10,MacIntel,60,61025ae37ef11b136ea224fe,,,,,,,,,3162,44,64,1,0,0,response1disk,,7,29,0,1,0,0,rectangle,29,0,1,0,0,29,0,1,0,0,0,129,129,54,1,,,,,,,,
,,,,,,,,,,,,,FF,,,,,,,,0.684,,,,,,,,,,,,,,,,,,,,,,61027ef48b6608d0126bab31,61036dfac4ea71d23f9fd660,2021-07-30_13h13.41.114,Simcolourproject_2stim_asymm_v5,2020.2.10,MacIntel,60,61025ae37ef11b136ea224fe,,,,,,,,,3867,37,55,1,0,0,response1disk,,7,28,15,1,0,0,rectangle,28,15,1,0,0,28,15,1,0,0,0,130,130,21,1,,,,,,,,
,,,,,,,,,,,,,FF,,,,,,,,0.384,,,,,,,,,,,,,,,,,,,,,,61027ef48b6608d0126bab31,61036dfac4ea71d23f9fd660,2021-07-30_13h13.41.114,Simcolourproject_2stim_asymm_v5,2020.2.10,MacIntel,60,61025ae37ef11b136ea224fe,,,,,,,,,2370,44,72,1,0,0,response1disk,,7,24,9,1,0,0,rectangle,24,9,1,0,0,24,9,1,0,0,0,131,131,127,1,,,,,,,,
,,,,,,,,,,,,,FF,,,,,,,,0.565,,,,,,,,,,,,,,,,,,,,,,61027ef48b6608d0126bab31,61036dfac4ea71d23f9fd660,2021-07-30_13h13.41.114,Simcolourproject_2stim_asymm_v5,2020.2.10,MacIntel,60,61025ae37ef11b136ea224fe,,,,,,,,,3199,31,51,1,0,0,response1disk,,7,5,-12,1,0,0,rectangle,5,-12,1,0,0,5,-12,1,0,0,0,132,132,85,1,,,,,,,,
,,,,,,,,,,,,,FF,,,,,,,,0.851,,,,,,,,,,,,,,,,,,,,,,61027ef48b6608d0126bab31,61036dfac4ea71d23f9fd660,2021-07-30_13h13.41.114,Simcolourproject_2stim_asymm_v5,2020.2.10,MacIntel,60,61025ae37ef11b136ea224fe,,,,,,,,,2803,28,46,1,0,0,response1disk,,7,15,17,1,0,0,rectangle,15,17,1,0,0,15,17,1,0,0,0,133,133,148,1,,,,,,,,
,,,,,,,,,,,,,FF,,,,,,,,1.251,,,,,,,,,,,,,,,,,,,,,,61027ef48b6608d0126bab31,61036dfac4ea71d23f9fd660,2021-07-30_13h13.41.114,Simcolourproject_2stim_asymm_v5,2020.2.10,MacIntel,60,61025ae37ef11b136ea224fe,,,,,,,,,3810,55,30,1,0,0,response1disk,,6,11,4,1,0,0,rectangle,11,4,1,0,0,11,4,1,0,0,0,134,134,5,1,,,,,,,,
,,,,,,,,,,,,,FF,,,,,,,,0.902,,,,,,,,,,,,,,,,,,,,,,61027ef48b6608d0126bab31,61036dfac4ea71d23f9fd660,2021-07-30_13h13.41.114,Simcolourproject_2stim_asymm_v5,2020.2.10,MacIntel,60,61025ae37ef11b136ea224fe,,,,,,,,,2707,28,59,1,0,0,response1disk,,7,4,-11,1,0,0,rectangle,4,-11,1,0,0,4,-11,1,0,0,0,135,135,126,1,,,,,,,,
,,,,,,,,,,,,,FF,,,,,,,,2.786,,,,,,,,,,,,,,,,,,,,,,61027ef48b6608d0126bab31,61036dfac4ea71d23f9fd660,2021-07-30_13h13.41.114,Simcolourproject_2stim_asymm_v5,2020.2.10,MacIntel,60,61025ae37ef11b136ea224fe,,,,,,,,,2557,33,65,1,0,0,response1disk,,7,-1,-3,1,0,0,rectangle,-1,-3,1,0,0,-1,-3,1,0,0,0,136,136,58,1,,,,,,,,
,,,,,,,,,,,,,FF,,,,,,,,0.6,,,,,,,,,,,,,,,,,,,,,,61027ef48b6608d0126bab31,61036dfac4ea71d23f9fd660,2021-07-30_13h13.41.114,Simcolourproject_2stim_asymm_v5,2020.2.10,MacIntel,60,61025ae37ef11b136ea224fe,,,,,,,,,2204,24,65,1,0,0,response1disk,,7,6,-4,1,0,0,rectangle,6,-4,1,0,0,6,-4,1,0,0,0,137,137,41,1,,,,,,,,
,,,,,,,,,,,,,FF,,,,,,,,0.584,,,,,,,,,,,,,,,,,,,,,,61027ef48b6608d0126bab31,61036dfac4ea71d23f9fd660,2021-07-30_13h13.41.114,Simcolourproject_2stim_asymm_v5,2020.2.10,MacIntel,60,61025ae37ef11b136ea224fe,,,,,,,,,4228,32,62,1,0,0,response1disk,,7,6,-4,1,0,0,rectangle,6,-4,1,0,0,6,-4,1,0,0,0,138,138,63,1,,,,,,,,
,,,,,,,,,,,,,FF,,,,,,,,0.9,,,,,,,,,,,,,,,,,,,,,,61027ef48b6608d0126bab31,61036dfac4ea71d23f9fd660,2021-07-30_13h13.41.114,Simcolourproject_2stim_asymm_v5,2020.2.10,MacIntel,60,61025ae37ef11b136ea224fe,,,,,,,,,3447,35,64,1,0,0,response1disk,,7,13,10,1,0,0,rectangle,13,10,1,0,0,13,10,1,0,0,0,139,139,131,1,,,,,,,,
,,,,,,,,,,,,,FF,,,,,,,,0.579,,,,,,,,,,,,,,,,,,,,,,61027ef48b6608d0126bab31,61036dfac4ea71d23f9fd660,2021-07-30_13h13.41.114,Simcolourproject_2stim_asymm_v5,2020.2.10,MacIntel,60,61025ae37ef11b136ea224fe,,,,,,,,,3016,33,64,1,0,0,response1disk,,7,13,-6,1,0,0,rectangle,13,-6,1,0,0,13,-6,1,0,0,0,140,140,29,1,,,,,,,,
,,,,,,,,,,,,,FF,,,,,,,,0.551,,,,,,,,,,,,,,,,,,,,,,61027ef48b6608d0126bab31,61036dfac4ea71d23f9fd660,2021-07-30_13h13.41.114,Simcolourproject_2stim_asymm_v5,2020.2.10,MacIntel,60,61025ae37ef11b136ea224fe,,,,,,,,,1830,34,50,1,0,0,response1disk,,7,18,-8,1,0,0,rectangle,18,-8,1,0,0,18,-8,1,0,0,0,141,141,141,1,,,,,,,,
,,,,,,,,,,,,,FF,,,,,,,,0.551,,,,,,,,,,,,,,,,,,,,,,61027ef48b6608d0126bab31,61036dfac4ea71d23f9fd660,2021-07-30_13h13.41.114,Simcolourproject_2stim_asymm_v5,2020.2.10,MacIntel,60,61025ae37ef11b136ea224fe,,,,,,,,,680,36,51,1,0,0,response1disk,,7,29,16,1,0,0,rectangle,29,16,1,0,0,29,16,1,0,0,0,142,142,121,1,,,,,,,,
,,,,,,,,,,,,,FF,,,,,,,,2.251,,,,,,,,,,,,,,,,,,,,,,61027ef48b6608d0126bab31,61036dfac4ea71d23f9fd660,2021-07-30_13h13.41.114,Simcolourproject_2stim_asymm_v5,2020.2.10,MacIntel,60,61025ae37ef11b136ea224fe,,,,,,,,,3056,69,-34,1,0,0,response3disk,,5,25,-7,1,0,0,rectangle,25,-7,1,0,0,25,-7,1,0,0,0,143,143,117,1,,,,,,,,
,,,,,,,,,,,,,FF,,,,,,,,2.112,,,,,,,,,,,,,,,,,,,,,,61027ef48b6608d0126bab31,61036dfac4ea71d23f9fd660,2021-07-30_13h13.41.114,Simcolourproject_2stim_asymm_v5,2020.2.10,MacIntel,60,61025ae37ef11b136ea224fe,,,,,,,,,3427,32,-85,1,0,0,response3disk,,4,9,4,1,0,0,rectangle,9,4,1,0,0,9,4,1,0,0,0,144,144,87,1,,,,,,,,
,,,,,,,,,,,,,FF,,,,,,,,1.082,,,,,,,,,,,,,,,,,,,,,,61027ef48b6608d0126bab31,61036dfac4ea71d23f9fd660,2021-07-30_13h13.41.114,Simcolourproject_2stim_asymm_v5,2020.2.10,MacIntel,60,61025ae37ef11b136ea224fe,,,,,,,,,1388,28,50,1,0,0,response1disk,,7,14,13,1,0,0,rectangle,14,13,1,0,0,14,13,1,0,0,0,145,145,3,1,,,,,,,,
,,,,,,,,,,,,,FF,,,,,,,,0.849,,,,,,,,,,,,,,,,,,,,,,61027ef48b6608d0126bab31,61036dfac4ea71d23f9fd660,2021-07-30_13h13.41.114,Simcolourproject_2stim_asymm_v5,2020.2.10,MacIntel,60,61025ae37ef11b136ea224fe,,,,,,,,,1362,23,54,1,0,0,response1disk,,7,6,8,1,0,0,rectangle,6,8,1,0,0,6,8,1,0,0,0,146,146,62,1,,,,,,,,
,,,,,,,,,,,,,FF,,,,,,,,0.765,,,,,,,,,,,,,,,,,,,,,,61027ef48b6608d0126bab31,61036dfac4ea71d23f9fd660,2021-07-30_13h13.41.114,Simcolourproject_2stim_asymm_v5,2020.2.10,MacIntel,60,61025ae37ef11b136ea224fe,,,,,,,,,2752,30,60,1,0,0,response1disk,,7,7,13,1,0,0,rectangle,7,13,1,0,0,7,13,1,0,0,0,147,147,65,1,,,,,,,,
,,,,,,,,,,,,,FF,,,,,,,,3.532,,,,,,,,,,,,,,,,,,,,,,61027ef48b6608d0126bab31,61036dfac4ea71d23f9fd660,2021-07-30_13h13.41.114,Simcolourproject_2stim_asymm_v5,2020.2.10,MacIntel,60,61025ae37ef11b136ea224fe,,,,,,,,,3148,59,-38,1,0,0,response3disk,,5,13,-3,1,0,0,rectangle,13,-3,1,0,0,13,-3,1,0,0,0,148,148,107,1,,,,,,,,
,,,,,,,,,,,,,FF,,,,,,,,2.151,,,,,,,,,,,,,,,,,,,,,,61027ef48b6608d0126bab31,61036dfac4ea71d23f9fd660,2021-07-30_13h13.41.114,Simcolourproject_2stim_asymm_v5,2020.2.10,MacIntel,60,61025ae37ef11b136ea224fe,,,,,,,,,583,28,35,1,0,0,response1disk,,7,-4,-11,1,0,0,rectangle,72,-32,1,0,0,20,-9,1,0,0,0,149,149,9,1,,response3disk_3,TRUE,5,5,"[170,237,223,29,117,68,150,155,42,291,258,295,250,76,13,321,171,306,96,99]",1.566,rectangle
,,,,,,,,,,,,,FF,,,,,,,,1.081,,,,,,,,,,,,,,,,,,,,,,61027ef48b6608d0126bab31,61036dfac4ea71d23f9fd660,2021-07-30_13h13.41.114,Simcolourproject_2stim_asymm_v5,2020.2.10,MacIntel,60,61025ae37ef11b136ea224fe,,,,,,,,,2108,24,57,1,0,0,response1disk,,7,-5,-11,1,0,0,rectangle,-5,-11,1,0,0,-5,-11,1,0,0,0,150,150,88,1,,,,,,,,
,,,,,,,,,,,,,FF,,,,,,,,0.55,,,,,,,,,,,,,,,,,,,,,,61027ef48b6608d0126bab31,61036dfac4ea71d23f9fd660,2021-07-30_13h13.41.114,Simcolourproject_2stim_asymm_v5,2020.2.10,MacIntel,60,61025ae37ef11b136ea224fe,,,,,,,,,2509,19,36,1,0,0,response1disk,,7,11,1,1,0,0,rectangle,11,1,1,0,0,11,1,1,0,0,0,151,151,132,1,,,,,,,,
,,,,,,,,,,,,,FF,,,,,,,,0.485,,,,,,,,,,,,,,,,,,,,,,61027ef48b6608d0126bab31,61036dfac4ea71d23f9fd660,2021-07-30_13h13.41.114,Simcolourproject_2stim_asymm_v5,2020.2.10,MacIntel,60,61025ae37ef11b136ea224fe,,,,,,,,,4187,36,61,1,0,0,response1disk,,7,18,12,1,0,0,rectangle,18,12,1,0,0,18,12,1,0,0,0,152,152,151,1,,,,,,,,
,,,,,,,,,,,,,FF,,,,,,,,0.584,,,,,,,,,,,,,,,,,,,,,,61027ef48b6608d0126bab31,61036dfac4ea71d23f9fd660,2021-07-30_13h13.41.114,Simcolourproject_2stim_asymm_v5,2020.2.10,MacIntel,60,61025ae37ef11b136ea224fe,,,,,,,,,3278,40,67,1,0,0,response1disk,,7,20,17,1,0,0,rectangle,20,17,1,0,0,20,17,1,0,0,0,153,153,1,1,,,,,,,,
,,,,,,,,,,,,,FF,,,,,,,,2.286,,,,,,,,,,,,,,,,,,,,,,61027ef48b6608d0126bab31,61036dfac4ea71d23f9fd660,2021-07-30_13h13.41.114,Simcolourproject_2stim_asymm_v5,2020.2.10,MacIntel,60,61025ae37ef11b136ea224fe,,,,,,,,,1734,31,52,1,0,0,response1disk,,7,1,10,1,0,0,rectangle,-49,-27,1,0,0,-3,-3,1,0,0,0,154,154,46,1,,response5disk_3,TRUE,2,2,"[170,237,223,29,117,68,150,155,42,291,258,295,250,76,13,321,171,306,96,99]",1.802,rectangle
,,,,,,,,,,,,,FF,,,,,,,,0.782,,,,,,,,,,,,,,,,,,,,,,61027ef48b6608d0126bab31,61036dfac4ea71d23f9fd660,2021-07-30_13h13.41.114,Simcolourproject_2stim_asymm_v5,2020.2.10,MacIntel,60,61025ae37ef11b136ea224fe,,,,,,,,,1117,24,58,1,0,0,response1disk,,7,4,2,1,0,0,rectangle,4,2,1,0,0,4,2,1,0,0,0,155,155,35,1,,,,,,,,
,,,,,,,,,,,,,FF,,,,,,,,0.449,,,,,,,,,,,,,,,,,,,,,,61027ef48b6608d0126bab31,61036dfac4ea71d23f9fd660,2021-07-30_13h13.41.114,Simcolourproject_2stim_asymm_v5,2020.2.10,MacIntel,60,61025ae37ef11b136ea224fe,,,,,,,,,2965,28,69,1,0,0,response1disk,,7,7,6,1,0,0,rectangle,7,6,1,0,0,7,6,1,0,0,0,156,156,22,1,,,,,,,,
,,,,,,,,,,,,,FF,,,,,,,,0.566,,,,,,,,,,,,,,,,,,,,,,61027ef48b6608d0126bab31,61036dfac4ea71d23f9fd660,2021-07-30_13h13.41.114,Simcolourproject_2stim_asymm_v5,2020.2.10,MacIntel,60,61025ae37ef11b136ea224fe,,,,,,,,,651,31,60,1,0,0,response1disk,,7,11,4,1,0,0,rectangle,11,4,1,0,0,11,4,1,0,0,0,157,157,75,1,,,,,,,,
,,,,,,,,,,,,,FF,,,,,,,,0.633,,,,,,,,,,,,,,,,,,,,,,61027ef48b6608d0126bab31,61036dfac4ea71d23f9fd660,2021-07-30_13h13.41.114,Simcolourproject_2stim_asymm_v5,2020.2.10,MacIntel,60,61025ae37ef11b136ea224fe,,,,,,,,,2445,28,68,1,0,0,response1disk,,7,14,13,1,0,0,rectangle,14,13,1,0,0,14,13,1,0,0,0,158,158,56,1,,,,,,,,
,,,,,,,,,,,,,FF,,,,,,,,2.168,,,,,,,,,,,,,,,,,,,,,,61027ef48b6608d0126bab31,61036dfac4ea71d23f9fd660,2021-07-30_13h13.41.114,Simcolourproject_2stim_asymm_v5,2020.2.10,MacIntel,60,61025ae37ef11b136ea224fe,,,,,,,,,3815,33,62,1,0,0,response1disk,,7,12,-10,1,0,0,rectangle,12,-10,1,0,0,12,-10,1,0,0,0,159,159,146,1,,,,,,,,
,,,,,,,,,,,,,FF,,,,,,,,0.568,,,,,,,,,,,,,,,,,,,,,,61027ef48b6608d0126bab31,61036dfac4ea71d23f9fd660,2021-07-30_13h13.41.114,Simcolourproject_2stim_asymm_v5,2020.2.10,MacIntel,60,61025ae37ef11b136ea224fe,,,,,,,,,666,29,53,1,0,0,response1disk,,7,18,6,1,0,0,rectangle,18,6,1,0,0,18,6,1,0,0,1,0,160,158,1,,,,,,,,
,,,,,,,,,,,,,FF,,,,,,,,0.7,,,,,,,,,,,,,,,,,,,,,,61027ef48b6608d0126bab31,61036dfac4ea71d23f9fd660,2021-07-30_13h13.41.114,Simcolourproject_2stim_asymm_v5,2020.2.10,MacIntel,60,61025ae37ef11b136ea224fe,,,,,,,,,4283,39,72,1,0,0,response1disk,,7,15,-3,1,0,0,rectangle,15,-3,1,0,0,15,-3,1,0,0,1,1,161,105,1,,,,,,,,
,,,,,,,,,,,,,FF,,,,,,,,0.466,,,,,,,,,,,,,,,,,,,,,,61027ef48b6608d0126bab31,61036dfac4ea71d23f9fd660,2021-07-30_13h13.41.114,Simcolourproject_2stim_asymm_v5,2020.2.10,MacIntel,60,61025ae37ef11b136ea224fe,,,,,,,,,1059,43,73,1,0,0,response1disk,,7,25,10,1,0,0,rectangle,25,10,1,0,0,25,10,1,0,0,1,2,162,134,1,,,,,,,,
,,,,,,,,,,,,,FF,,,,,,,,0.48,,,,,,,,,,,,,,,,,,,,,,61027ef48b6608d0126bab31,61036dfac4ea71d23f9fd660,2021-07-30_13h13.41.114,Simcolourproject_2stim_asymm_v5,2020.2.10,MacIntel,60,61025ae37ef11b136ea224fe,,,,,,,,,1902,37,60,1,0,0,response1disk,,7,22,8,1,0,0,rectangle,22,8,1,0,0,22,8,1,0,0,1,3,163,107,1,,,,,,,,
,,,,,,,,,,,,,FF,,,,,,,,0.451,,,,,,,,,,,,,,,,,,,,,,61027ef48b6608d0126bab31,61036dfac4ea71d23f9fd660,2021-07-30_13h13.41.114,Simcolourproject_2stim_asymm_v5,2020.2.10,MacIntel,60,61025ae37ef11b136ea224fe,,,,,,,,,3876,35,56,1,0,0,response1disk,,7,31,17,1,0,0,rectangle,31,17,1,0,0,31,17,1,0,0,1,4,164,111,1,,,,,,,,
,,,,,,,,,,,,,FF,,,,,,,,0.625,,,,,,,,,,,,,,,,,,,,,,61027ef48b6608d0126bab31,61036dfac4ea71d23f9fd660,2021-07-30_13h13.41.114,Simcolourproject_2stim_asymm_v5,2020.2.10,MacIntel,60,61025ae37ef11b136ea224fe,,,,,,,,,590,40,75,1,0,0,response1disk,,7,24,11,1,0,0,rectangle,24,11,1,0,0,24,11,1,0,0,1,5,165,51,1,,,,,,,,
,,,,,,,,,,,,,FF,,,,,,,,0.45,,,,,,,,,,,,,,,,,,,,,,61027ef48b6608d0126bab31,61036dfac4ea71d23f9fd660,2021-07-30_13h13.41.114,Simcolourproject_2stim_asymm_v5,2020.2.10,MacIntel,60,61025ae37ef11b136ea224fe,,,,,,,,,137,28,57,1,0,0,response1disk,,7,3,-2,1,0,0,rectangle,3,-2,1,0,0,3,-2,1,0,0,1,6,166,98,1,,,,,,,,
,,,,,,,,,,,,,FF,,,,,,,,0.484,,,,,,,,,,,,,,,,,,,,,,61027ef48b6608d0126bab31,61036dfac4ea71d23f9fd660,2021-07-30_13h13.41.114,Simcolourproject_2stim_asymm_v5,2020.2.10,MacIntel,60,61025ae37ef11b136ea224fe,,,,,,,,,3126,25,72,1,0,0,response1disk,,7,8,5,1,0,0,rectangle,8,5,1,0,0,8,5,1,0,0,1,7,167,155,1,,,,,,,,
,,,,,,,,,,,,,FF,,,,,,,,0.566,,,,,,,,,,,,,,,,,,,,,,61027ef48b6608d0126bab31,61036dfac4ea71d23f9fd660,2021-07-30_13h13.41.114,Simcolourproject_2stim_asymm_v5,2020.2.10,MacIntel,60,61025ae37ef11b136ea224fe,,,,,,,,,2805,20,52,1,0,0,response1disk,,7,10,4,1,0,0,rectangle,10,4,1,0,0,10,4,1,0,0,1,8,168,92,1,,,,,,,,
,,,,,,,,,,,,,FF,,,,,,,,0.65,,,,,,,,,,,,,,,,,,,,,,61027ef48b6608d0126bab31,61036dfac4ea71d23f9fd660,2021-07-30_13h13.41.114,Simcolourproject_2stim_asymm_v5,2020.2.10,MacIntel,60,61025ae37ef11b136ea224fe,,,,,,,,,1776,32,52,1,0,0,response1disk,,7,16,4,1,0,0,rectangle,92,45,1,0,0,5,-5,1,0,0,1,9,169,29,1,,response1disk_3,TRUE,6,6,"[170,237,223,29,117,68,150,155,42,291,258,295,250,76,13,321,171,306,96,99]",1.551,rectangle
,,,,,,,,,,,,,FF,,,,,,,,0.667,,,,,,,,,,,,,,,,,,,,,,61027ef48b6608d0126bab31,61036dfac4ea71d23f9fd660,2021-07-30_13h13.41.114,Simcolourproject_2stim_asymm_v5,2020.2.10,MacIntel,60,61025ae37ef11b136ea224fe,,,,,,,,,1488,33,52,1,0,0,response1disk,,7,5,-9,1,0,0,rectangle,41,-82,1,0,0,10,-3,1,0,0,1,10,170,139,1,,response3disk_3,TRUE,4,4,"[170,237,223,29,117,68,150,155,42,291,258,295,250,76,13,321,171,306,96,99]",1.299,rectangle
,,,,,,,,,,,,,FF,,,,,,,,2.716,,,,,,,,,,,,,,,,,,,,,,61027ef48b6608d0126bab31,61036dfac4ea71d23f9fd660,2021-07-30_13h13.41.114,Simcolourproject_2stim_asymm_v5,2020.2.10,MacIntel,60,61025ae37ef11b136ea224fe,,,,,,,,,3948,29,55,1,0,0,response1disk,,7,2,-12,1,0,0,rectangle,2,-12,1,0,0,2,-12,1,0,0,1,11,171,72,1,,,,,,,,
,,,,,,,,,,,,,FF,,,,,,,,0.783,,,,,,,,,,,,,,,,,,,,,,61027ef48b6608d0126bab31,61036dfac4ea71d23f9fd660,2021-07-30_13h13.41.114,Simcolourproject_2stim_asymm_v5,2020.2.10,MacIntel,60,61025ae37ef11b136ea224fe,,,,,,,,,945,28,58,1,0,0,response1disk,,7,0,-10,1,0,0,rectangle,0,-10,1,0,0,0,-10,1,0,0,1,12,172,55,1,,,,,,,,
,,,,,,,,,,,,,FF,,,,,,,,0.666,,,,,,,,,,,,,,,,,,,,,,61027ef48b6608d0126bab31,61036dfac4ea71d23f9fd660,2021-07-30_13h13.41.114,Simcolourproject_2stim_asymm_v5,2020.2.10,MacIntel,60,61025ae37ef11b136ea224fe,,,,,,,,,1932,23,47,1,0,0,response1disk,,7,6,0,1,0,0,rectangle,6,0,1,0,0,6,0,1,0,0,1,13,173,22,1,,,,,,,,
,,,,,,,,,,,,,FF,,,,,,,,0.679,,,,,,,,,,,,,,,,,,,,,,61027ef48b6608d0126bab31,61036dfac4ea71d23f9fd660,2021-07-30_13h13.41.114,Simcolourproject_2stim_asymm_v5,2020.2.10,MacIntel,60,61025ae37ef11b136ea224fe,,,,,,,,,212,27,56,1,0,0,response1disk,,7,15,9,1,0,0,rectangle,15,9,1,0,0,15,9,1,0,0,1,14,174,129,1,,,,,,,,
,,,,,,,,,,,,,FF,,,,,,,,2.069,,,,,,,,,,,,,,,,,,,,,,61027ef48b6608d0126bab31,61036dfac4ea71d23f9fd660,2021-07-30_13h13.41.114,Simcolourproject_2stim_asymm_v5,2020.2.10,MacIntel,60,61025ae37ef11b136ea224fe,,,,,,,,,978,55,-35,1,0,0,response3disk,,5,31,-7,1,0,0,rectangle,31,-7,1,0,0,31,-7,1,0,0,1,15,175,135,1,,,,,,,,
,,,,,,,,,,,,,FF,,,,,,,,2.167,,,,,,,,,,,,,,,,,,,,,,61027ef48b6608d0126bab31,61036dfac4ea71d23f9fd660,2021-07-30_13h13.41.114,Simcolourproject_2stim_asymm_v5,2020.2.10,MacIntel,60,61025ae37ef11b136ea224fe,,,,,,,,,2300,-49,-72,1,0,0,response5disk,,3,-21,-5,1,0,0,rectangle,-21,-5,1,0,0,-21,-5,1,0,0,1,16,176,43,1,,,,,,,,
,,,,,,,,,,,,,FF,,,,,,,,0.702,,,,,,,,,,,,,,,,,,,,,,61027ef48b6608d0126bab31,61036dfac4ea71d23f9fd660,2021-07-30_13h13.41.114,Simcolourproject_2stim_asymm_v5,2020.2.10,MacIntel,60,61025ae37ef11b136ea224fe,,,,,,,,,840,23,51,1,0,0,response1disk,,7,-2,7,1,0,0,rectangle,-2,7,1,0,0,-2,7,1,0,0,1,17,177,20,1,,,,,,,,
,,,,,,,,,,,,,FF,,,,,,,,0.681,,,,,,,,,,,,,,,,,,,,,,61027ef48b6608d0126bab31,61036dfac4ea71d23f9fd660,2021-07-30_13h13.41.114,Simcolourproject_2stim_asymm_v5,2020.2.10,MacIntel,60,61025ae37ef11b136ea224fe,,,,,,,,,2800,36,73,1,0,0,response1disk,,7,7,6,1,0,0,rectangle,7,6,1,0,0,7,6,1,0,0,1,18,178,0,1,,,,,,,,
,,,,,,,,,,,,,FF,,,,,,,,0.6,,,,,,,,,,,,,,,,,,,,,,61027ef48b6608d0126bab31,61036dfac4ea71d23f9fd660,2021-07-30_13h13.41.114,Simcolourproject_2stim_asymm_v5,2020.2.10,MacIntel,60,61025ae37ef11b136ea224fe,,,,,,,,,1350,33,60,1,0,0,response1disk,,7,11,0,1,0,0,rectangle,11,0,1,0,0,11,0,1,0,0,1,19,179,136,1,,,,,,,,
,,,,,,,,,,,,,FF,,,,,,,,0.815,,,,,,,,,,,,,,,,,,,,,,61027ef48b6608d0126bab31,61036dfac4ea71d23f9fd660,2021-07-30_13h13.41.114,Simcolourproject_2stim_asymm_v5,2020.2.10,MacIntel,60,61025ae37ef11b136ea224fe,,,,,,,,,914,34,62,1,0,0,response1disk,,7,16,0,1,0,0,rectangle,16,0,1,0,0,16,0,1,0,0,1,20,180,80,1,,,,,,,,
,,,,,,,,,,,,,FF,,,,,,,,2.1,,,,,,,,,,,,,,,,,,,,,,61027ef48b6608d0126bab31,61036dfac4ea71d23f9fd660,2021-07-30_13h13.41.114,Simcolourproject_2stim_asymm_v5,2020.2.10,MacIntel,60,61025ae37ef11b136ea224fe,,,,,,,,,282,81,22,1,0,0,response1disk,,6,19,17,1,0,0,rectangle,19,17,1,0,0,19,17,1,0,0,1,21,181,131,1,,,,,,,,
,,,,,,,,,,,,,FF,,,,,,,,0.533,,,,,,,,,,,,,,,,,,,,,,61027ef48b6608d0126bab31,61036dfac4ea71d23f9fd660,2021-07-30_13h13.41.114,Simcolourproject_2stim_asymm_v5,2020.2.10,MacIntel,60,61025ae37ef11b136ea224fe,,,,,,,,,1512,25,60,1,0,0,response1disk,,7,-4,-5,1,0,0,rectangle,-4,-5,1,0,0,-4,-5,1,0,0,1,22,182,61,1,,,,,,,,
,,,,,,,,,,,,,FF,,,,,,,,0.899,,,,,,,,,,,,,,,,,,,,,,61027ef48b6608d0126bab31,61036dfac4ea71d23f9fd660,2021-07-30_13h13.41.114,Simcolourproject_2stim_asymm_v5,2020.2.10,MacIntel,60,61025ae37ef11b136ea224fe,,,,,,,,,3890,47,67,1,0,0,response1disk,,7,11,-5,1,0,0,rectangle,11,-5,1,0,0,11,-5,1,0,0,1,23,183,58,1,,,,,,,,
,,,,,,,,,,,,,FF,,,,,,,,0.501,,,,,,,,,,,,,,,,,,,,,,61027ef48b6608d0126bab31,61036dfac4ea71d23f9fd660,2021-07-30_13h13.41.114,Simcolourproject_2stim_asymm_v5,2020.2.10,MacIntel,60,61025ae37ef11b136ea224fe,,,,,,,,,2139,31,69,1,0,0,response1disk,,7,13,11,1,0,0,rectangle,13,11,1,0,0,13,11,1,0,0,1,24,184,103,1,,,,,,,,
,,,,,,,,,,,,,FF,,,,,,,,1.934,,,,,,,,,,,,,,,,,,,,,,61027ef48b6608d0126bab31,61036dfac4ea71d23f9fd660,2021-07-30_13h13.41.114,Simcolourproject_2stim_asymm_v5,2020.2.10,MacIntel,60,61025ae37ef11b136ea224fe,,,,,,,,,3511,-29,-64,1,0,0,response5disk,,3,-4,0,1,0,0,rectangle,-4,0,1,0,0,-4,0,1,0,0,1,25,185,87,1,,,,,,,,
,,,,,,,,,,,,,FF,,,,,,,,1.733,,,,,,,,,,,,,,,,,,,,,,61027ef48b6608d0126bab31,61036dfac4ea71d23f9fd660,2021-07-30_13h13.41.114,Simcolourproject_2stim_asymm_v5,2020.2.10,MacIntel,60,61025ae37ef11b136ea224fe,,,,,,,,,3906,-69,-33,1,0,0,response5disk,,2,-8,6,1,0,0,rectangle,-8,6,1,0,0,-8,6,1,0,0,1,26,186,77,1,,,,,,,,
,,,,,,,,,,,,,FF,,,,,,,,2.5,,,,,,,,,,,,,,,,,,,,,,61027ef48b6608d0126bab31,61036dfac4ea71d23f9fd660,2021-07-30_13h13.41.114,Simcolourproject_2stim_asymm_v5,2020.2.10,MacIntel,60,61025ae37ef11b136ea224fe,,,,,,,,,1089,40,56,1,0,0,response1disk,,7,10,17,1,0,0,rectangle,10,17,1,0,0,10,17,1,0,0,1,27,187,85,1,,,,,,,,
,,,,,,,,,,,,,FF,,,,,,,,0.917,,,,,,,,,,,,,,,,,,,,,,61027ef48b6608d0126bab31,61036dfac4ea71d23f9fd660,2021-07-30_13h13.41.114,Simcolourproject_2stim_asymm_v5,2020.2.10,MacIntel,60,61025ae37ef11b136ea224fe,,,,,,,,,3118,26,58,1,0,0,response1disk,,7,4,2,1,0,0,rectangle,4,2,1,0,0,4,2,1,0,0,1,28,188,108,1,,,,,,,,
,,,,,,,,,,,,,FF,,,,,,,,0.616,,,,,,,,,,,,,,,,,,,,,,61027ef48b6608d0126bab31,61036dfac4ea71d23f9fd660,2021-07-30_13h13.41.114,Simcolourproject_2stim_asymm_v5,2020.2.10,MacIntel,60,61025ae37ef11b136ea224fe,,,,,,,,,712,46,58,1,0,0,response1disk,,7,15,-8,1,0,0,rectangle,15,-8,1,0,0,15,-8,1,0,0,1,29,189,138,1,,,,,,,,
,,,,,,,,,,,,,FF,,,,,,,,0.633,,,,,,,,,,,,,,,,,,,,,,61027ef48b6608d0126bab31,61036dfac4ea71d23f9fd660,2021-07-30_13h13.41.114,Simcolourproject_2stim_asymm_v5,2020.2.10,MacIntel,60,61025ae37ef11b136ea224fe,,,,,,,,,3621,40,58,1,0,0,response1disk,,7,26,-3,1,0,0,rectangle,26,-3,1,0,0,26,-3,1,0,0,1,30,190,21,1,,,,,,,,
,,,,,,,,,,,,,FF,,,,,,,,2.397,,,,,,,,,,,,,,,,,,,,,,61027ef48b6608d0126bab31,61036dfac4ea71d23f9fd660,2021-07-30_13h13.41.114,Simcolourproject_2stim_asymm_v5,2020.2.10,MacIntel,60,61025ae37ef11b136ea224fe,,,,,,,,,4347,75,-24,1,0,0,response3disk,,5,0,-16,1,0,0,rectangle,0,-16,1,0,0,0,-16,1,0,0,1,31,191,56,1,,,,,,,,
,,,,,,,,,,,,,FF,,,,,,,,0.965,,,,,,,,,,,,,,,,,,,,,,61027ef48b6608d0126bab31,61036dfac4ea71d23f9fd660,2021-07-30_13h13.41.114,Simcolourproject_2stim_asymm_v5,2020.2.10,MacIntel,60,61025ae37ef11b136ea224fe,,,,,,,,,2340,26,50,1,0,0,response1disk,,7,12,16,1,0,0,rectangle,12,16,1,0,0,12,16,1,0,0,1,32,192,5,1,,,,,,,,
,,,,,,,,,,,,,FF,,,,,,,,0.733,,,,,,,,,,,,,,,,,,,,,,61027ef48b6608d0126bab31,61036dfac4ea71d23f9fd660,2021-07-30_13h13.41.114,Simcolourproject_2stim_asymm_v5,2020.2.10,MacIntel,60,61025ae37ef11b136ea224fe,,,,,,,,,3791,33,60,1,0,0,response1disk,,7,15,10,1,0,0,rectangle,15,10,1,0,0,15,10,1,0,0,1,33,193,95,1,,,,,,,,
,,,,,,,,,,,,,FF,,,,,,,,0.498,,,,,,,,,,,,,,,,,,,,,,61027ef48b6608d0126bab31,61036dfac4ea71d23f9fd660,2021-07-30_13h13.41.114,Simcolourproject_2stim_asymm_v5,2020.2.10,MacIntel,60,61025ae37ef11b136ea224fe,,,,,,,,,3889,35,59,1,0,0,response1disk,,7,18,2,1,0,0,rectangle,18,2,1,0,0,18,2,1,0,0,1,34,194,53,1,,,,,,,,
,,,,,,,,,,,,,FF,,,,,,,,0.432,,,,,,,,,,,,,,,,,,,,,,61027ef48b6608d0126bab31,61036dfac4ea71d23f9fd660,2021-07-30_13h13.41.114,Simcolourproject_2stim_asymm_v5,2020.2.10,MacIntel,60,61025ae37ef11b136ea224fe,,,,,,,,,921,40,66,1,0,0,response1disk,,7,20,0,1,0,0,rectangle,20,0,1,0,0,20,0,1,0,0,1,35,195,142,1,,,,,,,,
,,,,,,,,,,,,,FF,,,,,,,,0.4,,,,,,,,,,,,,,,,,,,,,,61027ef48b6608d0126bab31,61036dfac4ea71d23f9fd660,2021-07-30_13h13.41.114,Simcolourproject_2stim_asymm_v5,2020.2.10,MacIntel,60,61025ae37ef11b136ea224fe,,,,,,,,,2400,45,63,1,0,0,response1disk,,7,23,6,1,0,0,rectangle,23,6,1,0,0,23,6,1,0,0,1,36,196,6,1,,,,,,,,
,,,,,,,,,,,,,FF,,,,,,,,0.418,,,,,,,,,,,,,,,,,,,,,,61027ef48b6608d0126bab31,61036dfac4ea71d23f9fd660,2021-07-30_13h13.41.114,Simcolourproject_2stim_asymm_v5,2020.2.10,MacIntel,60,61025ae37ef11b136ea224fe,,,,,,,,,2758,41,59,1,0,0,response1disk,,7,23,3,1,0,0,rectangle,23,3,1,0,0,23,3,1,0,0,1,37,197,89,1,,,,,,,,
,,,,,,,,,,,,,FF,,,,,,,,0.417,,,,,,,,,,,,,,,,,,,,,,61027ef48b6608d0126bab31,61036dfac4ea71d23f9fd660,2021-07-30_13h13.41.114,Simcolourproject_2stim_asymm_v5,2020.2.10,MacIntel,60,61025ae37ef11b136ea224fe,,,,,,,,,3073,42,69,1,0,0,response1disk,,7,29,13,1,0,0,rectangle,29,13,1,0,0,29,13,1,0,0,1,38,198,74,1,,,,,,,,
,,,,,,,,,,,,,FF,,,,,,,,0.436,,,,,,,,,,,,,,,,,,,,,,61027ef48b6608d0126bab31,61036dfac4ea71d23f9fd660,2021-07-30_13h13.41.114,Simcolourproject_2stim_asymm_v5,2020.2.10,MacIntel,60,61025ae37ef11b136ea224fe,,,,,,,,,61,40,58,1,0,0,response1disk,,7,29,-1,1,0,0,rectangle,29,-1,1,0,0,29,-1,1,0,0,1,39,199,17,1,,,,,,,,
,,,,,,,,,,,,,FF,,,,,,,,0.686,,,,,,,,,,,,,,,,,,,,,,61027ef48b6608d0126bab31,61036dfac4ea71d23f9fd660,2021-07-30_13h13.41.114,Simcolourproject_2stim_asymm_v5,2020.2.10,MacIntel,60,61025ae37ef11b136ea224fe,,,,,,,,,500,34,60,1,0,0,response1disk,,7,5,5,1,0,0,rectangle,5,5,1,0,0,5,5,1,0,0,1,40,200,123,1,,,,,,,,
,,,,,,,,,,,,,FF,,,,,,,,0.667,,,,,,,,,,,,,,,,,,,,,,61027ef48b6608d0126bab31,61036dfac4ea71d23f9fd660,2021-07-30_13h13.41.114,Simcolourproject_2stim_asymm_v5,2020.2.10,MacIntel,60,61025ae37ef11b136ea224fe,,,,,,,,,4175,35,76,1,0,0,response1disk,,7,15,-4,1,0,0,rectangle,15,-4,1,0,0,15,-4,1,0,0,1,41,201,84,1,,,,,,,,
,,,,,,,,,,,,,FF,,,,,,,,0.598,,,,,,,,,,,,,,,,,,,,,,61027ef48b6608d0126bab31,61036dfac4ea71d23f9fd660,2021-07-30_13h13.41.114,Simcolourproject_2stim_asymm_v5,2020.2.10,MacIntel,60,61025ae37ef11b136ea224fe,,,,,,,,,3548,31,58,1,0,0,response1disk,,7,14,-8,1,0,0,rectangle,14,-8,1,0,0,14,-8,1,0,0,1,42,202,128,1,,,,,,,,
,,,,,,,,,,,,,FF,,,,,,,,0.502,,,,,,,,,,,,,,,,,,,,,,61027ef48b6608d0126bab31,61036dfac4ea71d23f9fd660,2021-07-30_13h13.41.114,Simcolourproject_2stim_asymm_v5,2020.2.10,MacIntel,60,61025ae37ef11b136ea224fe,,,,,,,,,814,39,70,1,0,0,response1disk,,7,19,16,1,0,0,rectangle,19,16,1,0,0,19,16,1,0,0,1,43,203,14,1,,,,,,,,
,,,,,,,,,,,,,FF,,,,,,,,0.431,,,,,,,,,,,,,,,,,,,,,,61027ef48b6608d0126bab31,61036dfac4ea71d23f9fd660,2021-07-30_13h13.41.114,Simcolourproject_2stim_asymm_v5,2020.2.10,MacIntel,60,61025ae37ef11b136ea224fe,,,,,,,,,2753,32,58,1,0,0,response1disk,,7,22,2,1,0,0,rectangle,22,2,1,0,0,22,2,1,0,0,1,44,204,57,1,,,,,,,,
,,,,,,,,,,,,,FF,,,,,,,,0.551,,,,,,,,,,,,,,,,,,,,,,61027ef48b6608d0126bab31,61036dfac4ea71d23f9fd660,2021-07-30_13h13.41.114,Simcolourproject_2stim_asymm_v5,2020.2.10,MacIntel,60,61025ae37ef11b136ea224fe,,,,,,,,,1645,33,63,1,0,0,response1disk,,7,15,-6,1,0,0,rectangle,15,-6,1,0,0,15,-6,1,0,0,1,45,205,67,1,,,,,,,,
,,,,,,,,,,,,,FF,,,,,,,,0.783,,,,,,,,,,,,,,,,,,,,,,61027ef48b6608d0126bab31,61036dfac4ea71d23f9fd660,2021-07-30_13h13.41.114,Simcolourproject_2stim_asymm_v5,2020.2.10,MacIntel,60,61025ae37ef11b136ea224fe,,,,,,,,,1001,38,59,1,0,0,response1disk,,7,19,3,1,0,0,rectangle,19,3,1,0,0,19,3,1,0,0,1,46,206,1,1,,,,,,,,
,,,,,,,,,,,,,FF,,,,,,,,0.567,,,,,,,,,,,,,,,,,,,,,,61027ef48b6608d0126bab31,61036dfac4ea71d23f9fd660,2021-07-30_13h13.41.114,Simcolourproject_2stim_asymm_v5,2020.2.10,MacIntel,60,61025ae37ef11b136ea224fe,,,,,,,,,1652,34,55,1,0,0,response1disk,,7,13,1,1,0,0,rectangle,13,1,1,0,0,13,1,1,0,0,1,47,207,97,1,,,,,,,,
,,,,,,,,,,,,,FF,,,,,,,,0.8,,,,,,,,,,,,,,,,,,,,,,61027ef48b6608d0126bab31,61036dfac4ea71d23f9fd660,2021-07-30_13h13.41.114,Simcolourproject_2stim_asymm_v5,2020.2.10,MacIntel,60,61025ae37ef11b136ea224fe,,,,,,,,,47,27,45,1,0,0,response1disk,,7,11,0,1,0,0,rectangle,11,0,1,0,0,11,0,1,0,0,1,48,208,150,1,,,,,,,,
,,,,,,,,,,,,,FF,,,,,,,,1.184,,,,,,,,,,,,,,,,,,,,,,61027ef48b6608d0126bab31,61036dfac4ea71d23f9fd660,2021-07-30_13h13.41.114,Simcolourproject_2stim_asymm_v5,2020.2.10,MacIntel,60,61025ae37ef11b136ea224fe,,,,,,,,,3043,31,58,1,0,0,response1disk,,7,8,6,1,0,0,rectangle,8,6,1,0,0,8,6,1,0,0,1,49,209,26,1,,,,,,,,
,,,,,,,,,,,,,FF,,,,,,,,1.233,,,,,,,,,,,,,,,,,,,,,,61027ef48b6608d0126bab31,61036dfac4ea71d23f9fd660,2021-07-30_13h13.41.114,Simcolourproject_2stim_asymm_v5,2020.2.10,MacIntel,60,61025ae37ef11b136ea224fe,,,,,,,,,715,26,53,1,0,0,response1disk,,7,7,-5,1,0,0,rectangle,7,-5,1,0,0,7,-5,1,0,0,1,50,210,23,1,,,,,,,,
,,,,,,,,,,,,,FF,,,,,,,,0.749,,,,,,,,,,,,,,,,,,,,,,61027ef48b6608d0126bab31,61036dfac4ea71d23f9fd660,2021-07-30_13h13.41.114,Simcolourproject_2stim_asymm_v5,2020.2.10,MacIntel,60,61025ae37ef11b136ea224fe,,,,,,,,,3831,26,60,1,0,0,response1disk,,7,10,1,1,0,0,rectangle,10,1,1,0,0,10,1,1,0,0,1,51,211,112,1,,,,,,,,
,,,,,,,,,,,,,FF,,,,,,,,0.583,,,,,,,,,,,,,,,,,,,,,,61027ef48b6608d0126bab31,61036dfac4ea71d23f9fd660,2021-07-30_13h13.41.114,Simcolourproject_2stim_asymm_v5,2020.2.10,MacIntel,60,61025ae37ef11b136ea224fe,,,,,,,,,701,31,62,1,0,0,response1disk,,7,18,9,1,0,0,rectangle,18,9,1,0,0,18,9,1,0,0,1,52,212,44,1,,,,,,,,
,,,,,,,,,,,,,FF,,,,,,,,0.502,,,,,,,,,,,,,,,,,,,,,,61027ef48b6608d0126bab31,61036dfac4ea71d23f9fd660,2021-07-30_13h13.41.114,Simcolourproject_2stim_asymm_v5,2020.2.10,MacIntel,60,61025ae37ef11b136ea224fe,,,,,,,,,2756,36,72,1,0,0,response1disk,,7,17,0,1,0,0,rectangle,17,0,1,0,0,17,0,1,0,0,1,53,213,50,1,,,,,,,,
,,,,,,,,,,,,,FF,,,,,,,,0.499,,,,,,,,,,,,,,,,,,,,,,61027ef48b6608d0126bab31,61036dfac4ea71d23f9fd660,2021-07-30_13h13.41.114,Simcolourproject_2stim_asymm_v5,2020.2.10,MacIntel,60,61025ae37ef11b136ea224fe,,,,,,,,,595,34,65,1,0,0,response1disk,,7,24,15,1,0,0,rectangle,24,15,1,0,0,24,15,1,0,0,1,54,214,3,1,,,,,,,,
,,,,,,,,,,,,,FF,,,,,,,,0.483,,,,,,,,,,,,,,,,,,,,,,61027ef48b6608d0126bab31,61036dfac4ea71d23f9fd660,2021-07-30_13h13.41.114,Simcolourproject_2stim_asymm_v5,2020.2.10,MacIntel,60,61025ae37ef11b136ea224fe,,,,,,,,,2692,39,77,1,0,0,response1disk,,7,25,12,1,0,0,rectangle,25,12,1,0,0,25,12,1,0,0,1,55,215,154,1,,,,,,,,
,,,,,,,,,,,,,FF,,,,,,,,0.551,,,,,,,,,,,,,,,,,,,,,,61027ef48b6608d0126bab31,61036dfac4ea71d23f9fd660,2021-07-30_13h13.41.114,Simcolourproject_2stim_asymm_v5,2020.2.10,MacIntel,60,61025ae37ef11b136ea224fe,,,,,,,,,3694,33,69,1,0,0,response1disk,,7,19,-5,1,0,0,rectangle,19,-5,1,0,0,19,-5,1,0,0,1,56,216,152,1,,,,,,,,
,,,,,,,,,,,,,FF,,,,,,,,0.967,,,,,,,,,,,,,,,,,,,,,,61027ef48b6608d0126bab31,61036dfac4ea71d23f9fd660,2021-07-30_13h13.41.114,Simcolourproject_2stim_asymm_v5,2020.2.10,MacIntel,60,61025ae37ef11b136ea224fe,,,,,,,,,3794,30,55,1,0,0,response1disk,,7,11,-15,1,0,0,rectangle,11,-15,1,0,0,11,-15,1,0,0,1,57,217,117,1,,,,,,,,
,,,,,,,,,,,,,FF,,,,,,,,0.534,,,,,,,,,,,,,,,,,,,,,,61027ef48b6608d0126bab31,61036dfac4ea71d23f9fd660,2021-07-30_13h13.41.114,Simcolourproject_2stim_asymm_v5,2020.2.10,MacIntel,60,61025ae37ef11b136ea224fe,,,,,,,,,2540,29,54,1,0,0,response1disk,,7,16,-8,1,0,0,rectangle,16,-8,1,0,0,16,-8,1,0,0,1,58,218,88,1,,,,,,,,
,,,,,,,,,,,,,FF,,,,,,,,0.483,,,,,,,,,,,,,,,,,,,,,,61027ef48b6608d0126bab31,61036dfac4ea71d23f9fd660,2021-07-30_13h13.41.114,Simcolourproject_2stim_asymm_v5,2020.2.10,MacIntel,60,61025ae37ef11b136ea224fe,,,,,,,,,3008,30,61,1,0,0,response1disk,,7,20,-1,1,0,0,rectangle,20,-1,1,0,0,20,-1,1,0,0,1,59,219,81,1,,,,,,,,
,,,,,,,,,,,,,FF,,,,,,,,0.534,,,,,,,,,,,,,,,,,,,,,,61027ef48b6608d0126bab31,61036dfac4ea71d23f9fd660,2021-07-30_13h13.41.114,Simcolourproject_2stim_asymm_v5,2020.2.10,MacIntel,60,61025ae37ef11b136ea224fe,,,,,,,,,3167,37,55,1,0,0,response1disk,,7,17,-4,1,0,0,rectangle,17,-4,1,0,0,17,-4,1,0,0,1,60,220,10,1,,,,,,,,
,,,,,,,,,,,,,FF,,,,,,,,5.084,,,,,,,,,,,,,,,,,,,,,,61027ef48b6608d0126bab31,61036dfac4ea71d23f9fd660,2021-07-30_13h13.41.114,Simcolourproject_2stim_asymm_v5,2020.2.10,MacIntel,60,61025ae37ef11b136ea224fe,,,,,,,,,3157,31,-85,1,0,0,response3disk,,4,15,4,1,0,0,rectangle,15,4,1,0,0,15,4,1,0,0,1,61,221,68,1,,,,,,,,
,,,,,,,,,,,,,FF,,,,,,,,2.467,,,,,,,,,,,,,,,,,,,,,,61027ef48b6608d0126bab31,61036dfac4ea71d23f9fd660,2021-07-30_13h13.41.114,Simcolourproject_2stim_asymm_v5,2020.2.10,MacIntel,60,61025ae37ef11b136ea224fe,,,,,,,,,2827,51,-19,1,0,0,response3disk,,5,4,10,1,0,0,rectangle,-29,81,1,0,0,-17,-12,1,0,0,1,62,222,133,1,,response7disk_3,TRUE,0,0,"[170,237,223,29,117,68,150,155,42,291,258,295,250,76,13,321,171,306,96,99]",1.449,rectangle
,,,,,,,,,,,,,FF,,,,,,,,2.967,,,,,,,,,,,,,,,,,,,,,,61027ef48b6608d0126bab31,61036dfac4ea71d23f9fd660,2021-07-30_13h13.41.114,Simcolourproject_2stim_asymm_v5,2020.2.10,MacIntel,60,61025ae37ef11b136ea224fe,,,,,,,,,1378,79,30,1,0,0,response1disk,,6,-2,9,1,0,0,rectangle,-2,9,1,0,0,-2,9,1,0,0,1,63,223,148,1,,,,,,,,
,,,,,,,,,,,,,FF,,,,,,,,4.918,,,,,,,,,,,,,,,,,,,,,,61027ef48b6608d0126bab31,61036dfac4ea71d23f9fd660,2021-07-30_13h13.41.114,Simcolourproject_2stim_asymm_v5,2020.2.10,MacIntel,60,61025ae37ef11b136ea224fe,,,,,,,,,4267,51,-25,1,0,0,response3disk,,5,18,-13,1,0,0,rectangle,18,-13,1,0,0,18,-13,1,0,0,1,64,224,59,1,,,,,,,,
,,,,,,,,,,,,,FF,,,,,,,,1.035,,,,,,,,,,,,,,,,,,,,,,61027ef48b6608d0126bab31,61036dfac4ea71d23f9fd660,2021-07-30_13h13.41.114,Simcolourproject_2stim_asymm_v5,2020.2.10,MacIntel,60,61025ae37ef11b136ea224fe,,,,,,,,,4126,25,43,1,0,0,response1disk,,7,3,5,1,0,0,rectangle,3,5,1,0,0,3,5,1,0,0,1,65,225,124,1,,,,,,,,
,,,,,,,,,,,,,FF,,,,,,,,0.817,,,,,,,,,,,,,,,,,,,,,,61027ef48b6608d0126bab31,61036dfac4ea71d23f9fd660,2021-07-30_13h13.41.114,Simcolourproject_2stim_asymm_v5,2020.2.10,MacIntel,60,61025ae37ef11b136ea224fe,,,,,,,,,2042,21,64,1,0,0,response1disk,,7,10,12,1,0,0,rectangle,10,12,1,0,0,10,12,1,0,0,1,66,226,102,1,,,,,,,,
,,,,,,,,,,,,,FF,,,,,,,,1.034,,,,,,,,,,,,,,,,,,,,,,61027ef48b6608d0126bab31,61036dfac4ea71d23f9fd660,2021-07-30_13h13.41.114,Simcolourproject_2stim_asymm_v5,2020.2.10,MacIntel,60,61025ae37ef11b136ea224fe,,,,,,,,,3007,28,53,1,0,0,response1disk,,7,10,9,1,0,0,rectangle,10,9,1,0,0,10,9,1,0,0,1,67,227,104,1,,,,,,,,
,,,,,,,,,,,,,FF,,,,,,,,0.649,,,,,,,,,,,,,,,,,,,,,,61027ef48b6608d0126bab31,61036dfac4ea71d23f9fd660,2021-07-30_13h13.41.114,Simcolourproject_2stim_asymm_v5,2020.2.10,MacIntel,60,61025ae37ef11b136ea224fe,,,,,,,,,3227,24,69,1,0,0,response1disk,,7,10,6,1,0,0,rectangle,10,6,1,0,0,10,6,1,0,0,1,68,228,144,1,,,,,,,,
,,,,,,,,,,,,,FF,,,,,,,,1.85,,,,,,,,,,,,,,,,,,,,,,61027ef48b6608d0126bab31,61036dfac4ea71d23f9fd660,2021-07-30_13h13.41.114,Simcolourproject_2stim_asymm_v5,2020.2.10,MacIntel,60,61025ae37ef11b136ea224fe,,,,,,,,,4223,57,48,1,0,0,response1disk,,6,6,6,1,0,0,rectangle,6,6,1,0,0,6,6,1,0,0,1,69,229,11,1,,,,,,,,
,,,,,,,,,,,,,FF,,,,,,,,0.467,,,,,,,,,,,,,,,,,,,,,,61027ef48b6608d0126bab31,61036dfac4ea71d23f9fd660,2021-07-30_13h13.41.114,Simcolourproject_2stim_asymm_v5,2020.2.10,MacIntel,60,61025ae37ef11b136ea224fe,,,,,,,,,2911,30,49,1,0,0,response1disk,,7,12,2,1,0,0,rectangle,12,2,1,0,0,12,2,1,0,0,1,70,230,16,1,,,,,,,,
,,,,,,,,,,,,,FF,,,,,,,,1.749,,,,,,,,,,,,,,,,,,,,,,61027ef48b6608d0126bab31,61036dfac4ea71d23f9fd660,2021-07-30_13h13.41.114,Simcolourproject_2stim_asymm_v5,2020.2.10,MacIntel,60,61025ae37ef11b136ea224fe,,,,,,,,,487,32,54,1,0,0,response1disk,,7,10,7,1,0,0,rectangle,10,7,1,0,0,10,7,1,0,0,1,71,231,34,1,,,,,,,,
,,,,,,,,,,,,,FF,,,,,,,,0.632,,,,,,,,,,,,,,,,,,,,,,61027ef48b6608d0126bab31,61036dfac4ea71d23f9fd660,2021-07-30_13h13.41.114,Simcolourproject_2stim_asymm_v5,2020.2.10,MacIntel,60,61025ae37ef11b136ea224fe,,,,,,,,,4310,33,52,1,0,0,response1disk,,7,13,-3,1,0,0,rectangle,13,-3,1,0,0,13,-3,1,0,0,1,72,232,99,1,,,,,,,,
,,,,,,,,,,,,,FF,,,,,,,,0.516,,,,,,,,,,,,,,,,,,,,,,61027ef48b6608d0126bab31,61036dfac4ea71d23f9fd660,2021-07-30_13h13.41.114,Simcolourproject_2stim_asymm_v5,2020.2.10,MacIntel,60,61025ae37ef11b136ea224fe,,,,,,,,,424,40,62,1,0,0,response1disk,,7,23,3,1,0,0,rectangle,23,3,1,0,0,23,3,1,0,0,1,73,233,15,1,,,,,,,,
,,,,,,,,,,,,,FF,,,,,,,,0.432,,,,,,,,,,,,,,,,,,,,,,61027ef48b6608d0126bab31,61036dfac4ea71d23f9fd660,2021-07-30_13h13.41.114,Simcolourproject_2stim_asymm_v5,2020.2.10,MacIntel,60,61025ae37ef11b136ea224fe,,,,,,,,,1085,46,62,1,0,0,response1disk,,7,27,-2,1,0,0,rectangle,27,-2,1,0,0,27,-2,1,0,0,1,74,234,64,1,,,,,,,,
,,,,,,,,,,,,,FF,,,,,,,,1.751,,,,,,,,,,,,,,,,,,,,,,61027ef48b6608d0126bab31,61036dfac4ea71d23f9fd660,2021-07-30_13h13.41.114,Simcolourproject_2stim_asymm_v5,2020.2.10,MacIntel,60,61025ae37ef11b136ea224fe,,,,,,,,,3187,53,62,1,0,0,response1disk,,7,-6,-1,1,0,0,rectangle,-6,-1,1,0,0,-6,-1,1,0,0,1,75,235,76,1,,,,,,,,
,,,,,,,,,,,,,FF,,,,,,,,0.984,,,,,,,,,,,,,,,,,,,,,,61027ef48b6608d0126bab31,61036dfac4ea71d23f9fd660,2021-07-30_13h13.41.114,Simcolourproject_2stim_asymm_v5,2020.2.10,MacIntel,60,61025ae37ef11b136ea224fe,,,,,,,,,3170,30,64,1,0,0,response1disk,,7,-8,-12,1,0,0,rectangle,69,-29,1,0,0,3,1,1,0,0,1,76,236,86,1,,response3disk_3,TRUE,5,5,"[170,237,223,29,117,68,150,155,42,291,258,295,250,76,13,321,171,306,96,99]",1.499,rectangle
,,,,,,,,,,,,,FF,,,,,,,,2.267,,,,,,,,,,,,,,,,,,,,,,61027ef48b6608d0126bab31,61036dfac4ea71d23f9fd660,2021-07-30_13h13.41.114,Simcolourproject_2stim_asymm_v5,2020.2.10,MacIntel,60,61025ae37ef11b136ea224fe,,,,,,,,,2165,43,-82,1,0,0,response3disk,,4,9,-6,1,0,0,rectangle,9,-6,1,0,0,9,-6,1,0,0,1,77,237,19,1,,,,,,,,
,,,,,,,,,,,,,FF,,,,,,,,0.899,,,,,,,,,,,,,,,,,,,,,,61027ef48b6608d0126bab31,61036dfac4ea71d23f9fd660,2021-07-30_13h13.41.114,Simcolourproject_2stim_asymm_v5,2020.2.10,MacIntel,60,61025ae37ef11b136ea224fe,,,,,,,,,3766,30,41,1,0,0,response1disk,,7,4,14,1,0,0,rectangle,4,14,1,0,0,4,14,1,0,0,1,78,238,115,1,,,,,,,,
,,,,,,,,,,,,,FF,,,,,,,,0.966,,,,,,,,,,,,,,,,,,,,,,61027ef48b6608d0126bab31,61036dfac4ea71d23f9fd660,2021-07-30_13h13.41.114,Simcolourproject_2stim_asymm_v5,2020.2.10,MacIntel,60,61025ae37ef11b136ea224fe,,,,,,,,,2128,23,52,1,0,0,response1disk,,7,-1,3,1,0,0,rectangle,-1,3,1,0,0,-1,3,1,0,0,1,79,239,121,1,,,,,,,,
,,,,,,,,,,,,,FF,,,,,,,,1.055,,,,,,,,,,,,,,,,,,,,,,61027ef48b6608d0126bab31,61036dfac4ea71d23f9fd660,2021-07-30_13h13.41.114,Simcolourproject_2stim_asymm_v5,2020.2.10,MacIntel,60,61025ae37ef11b136ea224fe,,,,,,,,,4162,23,42,1,0,0,response1disk,,7,10,3,1,0,0,rectangle,10,3,1,0,0,10,3,1,0,0,1,80,240,52,1,,,,,,,,
,,,,,,,,,,,,,FF,,,,,,,,3.533,,,,,,,,,,,,,,,,,,,,,,61027ef48b6608d0126bab31,61036dfac4ea71d23f9fd660,2021-07-30_13h13.41.114,Simcolourproject_2stim_asymm_v5,2020.2.10,MacIntel,60,61025ae37ef11b136ea224fe,,,,,,,,,448,26,53,1,0,0,response1disk,,7,10,13,1,0,0,rectangle,10,13,1,0,0,10,13,1,0,0,1,81,241,60,1,,,,,,,,
,,,,,,,,,,,,,FF,,,,,,,,1.534,,,,,,,,,,,,,,,,,,,,,,61027ef48b6608d0126bab31,61036dfac4ea71d23f9fd660,2021-07-30_13h13.41.114,Simcolourproject_2stim_asymm_v5,2020.2.10,MacIntel,60,61025ae37ef11b136ea224fe,,,,,,,,,1749,60,-21,1,0,0,response3disk,,5,19,-2,1,0,0,rectangle,19,-2,1,0,0,19,-2,1,0,0,1,82,242,100,1,,,,,,,,
,,,,,,,,,,,,,FF,,,,,,,,1.182,,,,,,,,,,,,,,,,,,,,,,61027ef48b6608d0126bab31,61036dfac4ea71d23f9fd660,2021-07-30_13h13.41.114,Simcolourproject_2stim_asymm_v5,2020.2.10,MacIntel,60,61025ae37ef11b136ea224fe,,,,,,,,,816,40,52,1,0,0,response1disk,,7,13,8,1,0,0,rectangle,13,8,1,0,0,13,8,1,0,0,1,83,243,45,1,,,,,,,,
,,,,,,,,,,,,,FF,,,,,,,,1.217,,,,,,,,,,,,,,,,,,,,,,61027ef48b6608d0126bab31,61036dfac4ea71d23f9fd660,2021-07-30_13h13.41.114,Simcolourproject_2stim_asymm_v5,2020.2.10,MacIntel,60,61025ae37ef11b136ea224fe,,,,,,,,,2483,40,60,1,0,0,response1disk,,7,11,-3,1,0,0,rectangle,11,-3,1,0,0,11,-3,1,0,0,1,84,244,48,1,,,,,,,,
,,,,,,,,,,,,,FF,,,,,,,,0.633,,,,,,,,,,,,,,,,,,,,,,61027ef48b6608d0126bab31,61036dfac4ea71d23f9fd660,2021-07-30_13h13.41.114,Simcolourproject_2stim_asymm_v5,2020.2.10,MacIntel,60,61025ae37ef11b136ea224fe,,,,,,,,,3779,27,42,1,0,0,response1disk,,7,19,6,1,0,0,rectangle,19,6,1,0,0,19,6,1,0,0,1,85,245,2,1,,,,,,,,
,,,,,,,,,,,,,FF,,,,,,,,2.012,,,,,,,,,,,,,,,,,,,,,,61027ef48b6608d0126bab31,61036dfac4ea71d23f9fd660,2021-07-30_13h13.41.114,Simcolourproject_2stim_asymm_v5,2020.2.10,MacIntel,60,61025ae37ef11b136ea224fe,,,,,,,,,4182,54,43,1,0,0,response1disk,,6,7,2,1,0,0,rectangle,7,2,1,0,0,7,2,1,0,0,1,86,246,27,1,,,,,,,,
,,,,,,,,,,,,,FF,,,,,,,,1.159,,,,,,,,,,,,,,,,,,,,,,61027ef48b6608d0126bab31,61036dfac4ea71d23f9fd660,2021-07-30_13h13.41.114,Simcolourproject_2stim_asymm_v5,2020.2.10,MacIntel,60,61025ae37ef11b136ea224fe,,,,,,,,,1368,-28,72,1,0,0,response7disk,,0,0,3,1,0,0,rectangle,0,3,1,0,0,0,3,1,0,0,1,87,247,71,1,,,,,,,,
,,,,,,,,,,,,,FF,,,,,,,,1.217,,,,,,,,,,,,,,,,,,,,,,61027ef48b6608d0126bab31,61036dfac4ea71d23f9fd660,2021-07-30_13h13.41.114,Simcolourproject_2stim_asymm_v5,2020.2.10,MacIntel,60,61025ae37ef11b136ea224fe,,,,,,,,,791,26,49,1,0,0,response1disk,,7,3,5,1,0,0,rectangle,3,5,1,0,0,3,5,1,0,0,1,88,248,140,1,,,,,,,,
,,,,,,,,,,,,,FF,,,,,,,,0.977,,,,,,,,,,,,,,,,,,,,,,61027ef48b6608d0126bab31,61036dfac4ea71d23f9fd660,2021-07-30_13h13.41.114,Simcolourproject_2stim_asymm_v5,2020.2.10,MacIntel,60,61025ae37ef11b136ea224fe,,,,,,,,,2657,33,53,1,0,0,response1disk,,7,15,0,1,0,0,rectangle,34,79,1,0,0,8,1,1,0,0,1,89,249,37,1,,response1disk_3,TRUE,7,7,"[170,237,223,29,117,68,150,155,42,291,258,295,250,76,13,321,171,306,96,99]",1.359,rectangle
,,,,,,,,,,,,,FF,,,,,,,,2.493,,,,,,,,,,,,,,,,,,,,,,61027ef48b6608d0126bab31,61036dfac4ea71d23f9fd660,2021-07-30_13h13.41.114,Simcolourproject_2stim_asymm_v5,2020.2.10,MacIntel,60,61025ae37ef11b136ea224fe,,,,,,,,,1374,66,39,1,0,0,response1disk,,6,-3,4,1,0,0,rectangle,-3,4,1,0,0,-3,4,1,0,0,1,90,250,110,1,,,,,,,,
,,,,,,,,,,,,,FF,,,,,,,,0.786,,,,,,,,,,,,,,,,,,,,,,61027ef48b6608d0126bab31,61036dfac4ea71d23f9fd660,2021-07-30_13h13.41.114,Simcolourproject_2stim_asymm_v5,2020.2.10,MacIntel,60,61025ae37ef11b136ea224fe,,,,,,,,,1568,35,52,1,0,0,response1disk,,7,16,1,1,0,0,rectangle,16,1,1,0,0,16,1,1,0,0,1,91,251,38,1,,,,,,,,
,,,,,,,,,,,,,FF,,,,,,,,1.107,,,,,,,,,,,,,,,,,,,,,,61027ef48b6608d0126bab31,61036dfac4ea71d23f9fd660,2021-07-30_13h13.41.114,Simcolourproject_2stim_asymm_v5,2020.2.10,MacIntel,60,61025ae37ef11b136ea224fe,,,,,,,,,3885,24,43,1,0,0,response1disk,,7,9,-1,1,0,0,rectangle,9,-1,1,0,0,9,-1,1,0,0,1,92,252,145,1,,,,,,,,
,,,,,,,,,,,,,FF,,,,,,,,1.498,,,,,,,,,,,,,,,,,,,,,,61027ef48b6608d0126bab31,61036dfac4ea71d23f9fd660,2021-07-30_13h13.41.114,Simcolourproject_2stim_asymm_v5,2020.2.10,MacIntel,60,61025ae37ef11b136ea224fe,,,,,,,,,1518,38,64,1,0,0,response1disk,,7,20,-4,1,0,0,rectangle,20,-4,1,0,0,20,-4,1,0,0,1,93,253,31,1,,,,,,,,
,,,,,,,,,,,,,FF,,,,,,,,0.912,,,,,,,,,,,,,,,,,,,,,,61027ef48b6608d0126bab31,61036dfac4ea71d23f9fd660,2021-07-30_13h13.41.114,Simcolourproject_2stim_asymm_v5,2020.2.10,MacIntel,60,61025ae37ef11b136ea224fe,,,,,,,,,299,33,63,1,0,0,response1disk,,7,17,4,1,0,0,rectangle,17,4,1,0,0,17,4,1,0,0,1,94,254,4,1,,,,,,,,
,,,,,,,,,,,,,FF,,,,,,,,0.708,,,,,,,,,,,,,,,,,,,,,,61027ef48b6608d0126bab31,61036dfac4ea71d23f9fd660,2021-07-30_13h13.41.114,Simcolourproject_2stim_asymm_v5,2020.2.10,MacIntel,60,61025ae37ef11b136ea224fe,,,,,,,,,3593,36,66,1,0,0,response1disk,,7,26,6,1,0,0,rectangle,26,6,1,0,0,26,6,1,0,0,1,95,255,25,1,,,,,,,,
,,,,,,,,,,,,,FF,,,,,,,,0.726,,,,,,,,,,,,,,,,,,,,,,61027ef48b6608d0126bab31,61036dfac4ea71d23f9fd660,2021-07-30_13h13.41.114,Simcolourproject_2stim_asymm_v5,2020.2.10,MacIntel,60,61025ae37ef11b136ea224fe,,,,,,,,,4298,35,61,1,0,0,response1disk,,7,28,7,1,0,0,rectangle,28,7,1,0,0,28,7,1,0,0,1,96,256,143,1,,,,,,,,
,,,,,,,,,,,,,FF,,,,,,,,1.084,,,,,,,,,,,,,,,,,,,,,,61027ef48b6608d0126bab31,61036dfac4ea71d23f9fd660,2021-07-30_13h13.41.114,Simcolourproject_2stim_asymm_v5,2020.2.10,MacIntel,60,61025ae37ef11b136ea224fe,,,,,,,,,1616,33,53,1,0,0,response1disk,,7,30,8,1,0,0,rectangle,60,-23,1,0,0,8,-17,1,0,0,1,97,257,36,1,,response3disk_3,TRUE,5,5,"[170,237,223,29,117,68,150,155,42,291,258,295,250,76,13,321,171,306,96,99]",1.415,rectangle
,,,,,,,,,,,,,FF,,,,,,,,1.333,,,,,,,,,,,,,,,,,,,,,,61027ef48b6608d0126bab31,61036dfac4ea71d23f9fd660,2021-07-30_13h13.41.114,Simcolourproject_2stim_asymm_v5,2020.2.10,MacIntel,60,61025ae37ef11b136ea224fe,,,,,,,,,1883,51,30,1,0,0,response1disk,,6,19,-8,1,0,0,rectangle,19,-8,1,0,0,19,-8,1,0,0,1,98,258,46,1,,,,,,,,
,,,,,,,,,,,,,FF,,,,,,,,0.57,,,,,,,,,,,,,,,,,,,,,,61027ef48b6608d0126bab31,61036dfac4ea71d23f9fd660,2021-07-30_13h13.41.114,Simcolourproject_2stim_asymm_v5,2020.2.10,MacIntel,60,61025ae37ef11b136ea224fe,,,,,,,,,3692,37,46,1,0,0,response1disk,,7,12,-12,1,0,0,rectangle,12,-12,1,0,0,12,-12,1,0,0,1,99,259,62,1,,,,,,,,
,,,,,,,,,,,,,FF,,,,,,,,0.561,,,,,,,,,,,,,,,,,,,,,,61027ef48b6608d0126bab31,61036dfac4ea71d23f9fd660,2021-07-30_13h13.41.114,Simcolourproject_2stim_asymm_v5,2020.2.10,MacIntel,60,61025ae37ef11b136ea224fe,,,,,,,,,3142,19,46,1,0,0,response1disk,,7,18,4,1,0,0,rectangle,18,4,1,0,0,18,4,1,0,0,1,100,260,30,1,,,,,,,,
,,,,,,,,,,,,,FF,,,,,,,,0.756,,,,,,,,,,,,,,,,,,,,,,61027ef48b6608d0126bab31,61036dfac4ea71d23f9fd660,2021-07-30_13h13.41.114,Simcolourproject_2stim_asymm_v5,2020.2.10,MacIntel,60,61025ae37ef11b136ea224fe,,,,,,,,,4230,38,76,1,0,0,response1disk,,7,22,-5,1,0,0,rectangle,22,-5,1,0,0,22,-5,1,0,0,1,101,261,63,1,,,,,,,,
,,,,,,,,,,,,,FF,,,,,,,,1.398,,,,,,,,,,,,,,,,,,,,,,61027ef48b6608d0126bab31,61036dfac4ea71d23f9fd660,2021-07-30_13h13.41.114,Simcolourproject_2stim_asymm_v5,2020.2.10,MacIntel,60,61025ae37ef11b136ea224fe,,,,,,,,,170,62,56,1,0,0,response1disk,,6,3,2,1,0,0,rectangle,3,2,1,0,0,3,2,1,0,0,1,102,262,32,1,,,,,,,,
,,,,,,,,,,,,,FF,,,,,,,,1.299,,,,,,,,,,,,,,,,,,,,,,61027ef48b6608d0126bab31,61036dfac4ea71d23f9fd660,2021-07-30_13h13.41.114,Simcolourproject_2stim_asymm_v5,2020.2.10,MacIntel,60,61025ae37ef11b136ea224fe,,,,,,,,,2959,35,54,1,0,0,response1disk,,7,16,6,1,0,0,rectangle,16,6,1,0,0,16,6,1,0,0,1,103,263,13,1,,,,,,,,
,,,,,,,,,,,,,FF,,,,,,,,1.387,,,,,,,,,,,,,,,,,,,,,,61027ef48b6608d0126bab31,61036dfac4ea71d23f9fd660,2021-07-30_13h13.41.114,Simcolourproject_2stim_asymm_v5,2020.2.10,MacIntel,60,61025ae37ef11b136ea224fe,,,,,,,,,126,33,55,1,0,0,response1disk,,7,22,9,1,0,0,rectangle,22,9,1,0,0,22,9,1,0,0,1,104,264,78,1,,,,,,,,
,,,,,,,,,,,,,FF,,,,,,,,0.728,,,,,,,,,,,,,,,,,,,,,,61027ef48b6608d0126bab31,61036dfac4ea71d23f9fd660,2021-07-30_13h13.41.114,Simcolourproject_2stim_asymm_v5,2020.2.10,MacIntel,60,61025ae37ef11b136ea224fe,,,,,,,,,3608,35,70,1,0,0,response1disk,,7,28,7,1,0,0,rectangle,28,7,1,0,0,28,7,1,0,0,1,105,265,94,1,,,,,,,,
,,,,,,,,,,,,,FF,,,,,,,,2.633,,,,,,,,,,,,,,,,,,,,,,61027ef48b6608d0126bab31,61036dfac4ea71d23f9fd660,2021-07-30_13h13.41.114,Simcolourproject_2stim_asymm_v5,2020.2.10,MacIntel,60,61025ae37ef11b136ea224fe,,,,,,,,,1848,43,28,1,0,0,response1disk,,6,6,-3,1,0,0,rectangle,6,-3,1,0,0,6,-3,1,0,0,1,106,266,113,1,,,,,,,,
,,,,,,,,,,,,,FF,,,,,,,,0.511,,,,,,,,,,,,,,,,,,,,,,61027ef48b6608d0126bab31,61036dfac4ea71d23f9fd660,2021-07-30_13h13.41.114,Simcolourproject_2stim_asymm_v5,2020.2.10,MacIntel,60,61025ae37ef11b136ea224fe,,,,,,,,,1270,32,65,1,0,0,response1disk,,7,19,-2,1,0,0,rectangle,19,-2,1,0,0,19,-2,1,0,0,1,107,267,157,1,,,,,,,,
,,,,,,,,,,,,,FF,,,,,,,,2.153,,,,,,,,,,,,,,,,,,,,,,61027ef48b6608d0126bab31,61036dfac4ea71d23f9fd660,2021-07-30_13h13.41.114,Simcolourproject_2stim_asymm_v5,2020.2.10,MacIntel,60,61025ae37ef11b136ea224fe,,,,,,,,,2032,37,-60,1,0,0,response3disk,,4,12,7,1,0,0,rectangle,12,7,1,0,0,12,7,1,0,0,1,108,268,75,1,,,,,,,,
,,,,,,,,,,,,,FF,,,,,,,,1.545,,,,,,,,,,,,,,,,,,,,,,61027ef48b6608d0126bab31,61036dfac4ea71d23f9fd660,2021-07-30_13h13.41.114,Simcolourproject_2stim_asymm_v5,2020.2.10,MacIntel,60,61025ae37ef11b136ea224fe,,,,,,,,,1224,38,-54,1,0,0,response3disk,,4,18,-12,1,0,0,rectangle,18,-12,1,0,0,18,-12,1,0,0,1,109,269,47,1,,,,,,,,
,,,,,,,,,,,,,FF,,,,,,,,0.75,,,,,,,,,,,,,,,,,,,,,,61027ef48b6608d0126bab31,61036dfac4ea71d23f9fd660,2021-07-30_13h13.41.114,Simcolourproject_2stim_asymm_v5,2020.2.10,MacIntel,60,61025ae37ef11b136ea224fe,,,,,,,,,1866,34,54,1,0,0,response1disk,,7,7,-2,1,0,0,rectangle,7,-2,1,0,0,7,-2,1,0,0,1,110,270,120,1,,,,,,,,
,,,,,,,,,,,,,FF,,,,,,,,0.6,,,,,,,,,,,,,,,,,,,,,,61027ef48b6608d0126bab31,61036dfac4ea71d23f9fd660,2021-07-30_13h13.41.114,Simcolourproject_2stim_asymm_v5,2020.2.10,MacIntel,60,61025ae37ef11b136ea224fe,,,,,,,,,160,24,57,1,0,0,response1disk,,7,4,7,1,0,0,rectangle,4,7,1,0,0,4,7,1,0,0,1,111,271,125,1,,,,,,,,
,,,,,,,,,,,,,FF,,,,,,,,0.954,,,,,,,,,,,,,,,,,,,,,,61027ef48b6608d0126bab31,61036dfac4ea71d23f9fd660,2021-07-30_13h13.41.114,Simcolourproject_2stim_asymm_v5,2020.2.10,MacIntel,60,61025ae37ef11b136ea224fe,,,,,,,,,2926,38,66,1,0,0,response1disk,,7,16,6,1,0,0,rectangle,16,6,1,0,0,16,6,1,0,0,1,112,272,149,1,,,,,,,,
,,,,,,,,,,,,,FF,,,,,,,,0.615,,,,,,,,,,,,,,,,,,,,,,61027ef48b6608d0126bab31,61036dfac4ea71d23f9fd660,2021-07-30_13h13.41.114,Simcolourproject_2stim_asymm_v5,2020.2.10,MacIntel,60,61025ae37ef11b136ea224fe,,,,,,,,,3009,33,65,1,0,0,response1disk,,7,18,3,1,0,0,rectangle,18,3,1,0,0,18,3,1,0,0,1,113,273,42,1,,,,,,,,
,,,,,,,,,,,,,FF,,,,,,,,1.817,,,,,,,,,,,,,,,,,,,,,,61027ef48b6608d0126bab31,61036dfac4ea71d23f9fd660,2021-07-30_13h13.41.114,Simcolourproject_2stim_asymm_v5,2020.2.10,MacIntel,60,61025ae37ef11b136ea224fe,,,,,,,,,2065,25,44,1,0,0,response1disk,,7,10,1,1,0,0,rectangle,10,1,1,0,0,10,1,1,0,0,1,114,274,66,1,,,,,,,,
,,,,,,,,,,,,,FF,,,,,,,,2.915,,,,,,,,,,,,,,,,,,,,,,61027ef48b6608d0126bab31,61036dfac4ea71d23f9fd660,2021-07-30_13h13.41.114,Simcolourproject_2stim_asymm_v5,2020.2.10,MacIntel,60,61025ae37ef11b136ea224fe,,,,,,,,,1532,48,36,1,0,0,response1disk,,6,4,1,1,0,0,rectangle,4,1,1,0,0,4,1,1,0,0,1,115,275,12,1,,,,,,,,
,,,,,,,,,,,,,FF,,,,,,,,0.897,,,,,,,,,,,,,,,,,,,,,,61027ef48b6608d0126bab31,61036dfac4ea71d23f9fd660,2021-07-30_13h13.41.114,Simcolourproject_2stim_asymm_v5,2020.2.10,MacIntel,60,61025ae37ef11b136ea224fe,,,,,,,,,1160,27,59,1,0,0,response1disk,,7,4,11,1,0,0,rectangle,4,11,1,0,0,4,11,1,0,0,1,116,276,70,1,,,,,,,,
,,,,,,,,,,,,,FF,,,,,,,,0.782,,,,,,,,,,,,,,,,,,,,,,61027ef48b6608d0126bab31,61036dfac4ea71d23f9fd660,2021-07-30_13h13.41.114,Simcolourproject_2stim_asymm_v5,2020.2.10,MacIntel,60,61025ae37ef11b136ea224fe,,,,,,,,,1521,-27,60,1,0,0,response7disk,,0,-1,3,1,0,0,rectangle,-1,3,1,0,0,-1,3,1,0,0,1,117,277,18,1,,,,,,,,
,,,,,,,,,,,,,FF,,,,,,,,0.603,,,,,,,,,,,,,,,,,,,,,,61027ef48b6608d0126bab31,61036dfac4ea71d23f9fd660,2021-07-30_13h13.41.114,Simcolourproject_2stim_asymm_v5,2020.2.10,MacIntel,60,61025ae37ef11b136ea224fe,,,,,,,,,2972,32,55,1,0,0,response1disk,,7,13,3,1,0,0,rectangle,13,3,1,0,0,13,3,1,0,0,1,118,278,39,1,,,,,,,,
,,,,,,,,,,,,,FF,,,,,,,,1.472,,,,,,,,,,,,,,,,,,,,,,61027ef48b6608d0126bab31,61036dfac4ea71d23f9fd660,2021-07-30_13h13.41.114,Simcolourproject_2stim_asymm_v5,2020.2.10,MacIntel,60,61025ae37ef11b136ea224fe,,,,,,,,,3172,28,65,1,0,0,response1disk,,7,15,17,1,0,0,rectangle,15,17,1,0,0,15,17,1,0,0,1,119,279,40,1,,,,,,,,
,,,,,,,,,,,,,FF,,,,,,,,1.138,,,,,,,,,,,,,,,,,,,,,,61027ef48b6608d0126bab31,61036dfac4ea71d23f9fd660,2021-07-30_13h13.41.114,Simcolourproject_2stim_asymm_v5,2020.2.10,MacIntel,60,61025ae37ef11b136ea224fe,,,,,,,,,2055,23,78,1,0,0,response1disk,,7,13,-5,1,0,0,rectangle,13,-5,1,0,0,13,-5,1,0,0,1,120,280,35,1,,,,,,,,
,,,,,,,,,,,,,FF,,,,,,,,0.67,,,,,,,,,,,,,,,,,,,,,,61027ef48b6608d0126bab31,61036dfac4ea71d23f9fd660,2021-07-30_13h13.41.114,Simcolourproject_2stim_asymm_v5,2020.2.10,MacIntel,60,61025ae37ef11b136ea224fe,,,,,,,,,1690,35,63,1,0,0,response1disk,,7,24,6,1,0,0,rectangle,24,6,1,0,0,24,6,1,0,0,1,121,281,65,1,,,,,,,,
,,,,,,,,,,,,,FF,,,,,,,,0.632,,,,,,,,,,,,,,,,,,,,,,61027ef48b6608d0126bab31,61036dfac4ea71d23f9fd660,2021-07-30_13h13.41.114,Simcolourproject_2stim_asymm_v5,2020.2.10,MacIntel,60,61025ae37ef11b136ea224fe,,,,,,,,,2879,37,69,1,0,0,response1disk,,7,30,6,1,0,0,rectangle,30,6,1,0,0,30,6,1,0,0,1,122,282,73,1,,,,,,,,
,,,,,,,,,,,,,FF,,,,,,,,0.709,,,,,,,,,,,,,,,,,,,,,,61027ef48b6608d0126bab31,61036dfac4ea71d23f9fd660,2021-07-30_13h13.41.114,Simcolourproject_2stim_asymm_v5,2020.2.10,MacIntel,60,61025ae37ef11b136ea224fe,,,,,,,,,1352,37,64,1,0,0,response1disk,,7,28,14,1,0,0,rectangle,28,14,1,0,0,28,14,1,0,0,1,123,283,127,1,,,,,,,,
,,,,,,,,,,,,,FF,,,,,,,,2.845,,,,,,,,,,,,,,,,,,,,,,61027ef48b6608d0126bab31,61036dfac4ea71d23f9fd660,2021-07-30_13h13.41.114,Simcolourproject_2stim_asymm_v5,2020.2.10,MacIntel,60,61025ae37ef11b136ea224fe,,,,,,,,,3097,76,-59,1,0,0,response3disk,,5,14,-4,1,0,0,rectangle,14,-4,1,0,0,14,-4,1,0,0,1,124,284,93,1,,,,,,,,
,,,,,,,,,,,,,FF,,,,,,,,1.903,,,,,,,,,,,,,,,,,,,,,,61027ef48b6608d0126bab31,61036dfac4ea71d23f9fd660,2021-07-30_13h13.41.114,Simcolourproject_2stim_asymm_v5,2020.2.10,MacIntel,60,61025ae37ef11b136ea224fe,,,,,,,,,2675,32,66,1,0,0,response1disk,,7,3,-2,1,0,0,rectangle,3,-2,1,0,0,3,-2,1,0,0,1,125,285,28,1,,,,,,,,
,,,,,,,,,,,,,FF,,,,,,,,0.903,,,,,,,,,,,,,,,,,,,,,,61027ef48b6608d0126bab31,61036dfac4ea71d23f9fd660,2021-07-30_13h13.41.114,Simcolourproject_2stim_asymm_v5,2020.2.10,MacIntel,60,61025ae37ef11b136ea224fe,,,,,,,,,2385,28,55,1,0,0,response1disk,,7,7,1,1,0,0,rectangle,7,1,1,0,0,7,1,1,0,0,1,126,286,79,1,,,,,,,,
,,,,,,,,,,,,,FF,,,,,,,,0.9,,,,,,,,,,,,,,,,,,,,,,61027ef48b6608d0126bab31,61036dfac4ea71d23f9fd660,2021-07-30_13h13.41.114,Simcolourproject_2stim_asymm_v5,2020.2.10,MacIntel,60,61025ae37ef11b136ea224fe,,,,,,,,,1254,28,55,1,0,0,response1disk,,7,9,-8,1,0,0,rectangle,9,-8,1,0,0,9,-8,1,0,0,1,127,287,126,1,,,,,,,,
,,,,,,,,,,,,,FF,,,,,,,,0.76,,,,,,,,,,,,,,,,,,,,,,61027ef48b6608d0126bab31,61036dfac4ea71d23f9fd660,2021-07-30_13h13.41.114,Simcolourproject_2stim_asymm_v5,2020.2.10,MacIntel,60,61025ae37ef11b136ea224fe,,,,,,,,,1099,29,63,1,0,0,response1disk,,7,1,-8,1,0,0,rectangle,1,-8,1,0,0,1,-8,1,0,0,1,128,288,118,1,,,,,,,,
,,,,,,,,,,,,,FF,,,,,,,,0.667,,,,,,,,,,,,,,,,,,,,,,61027ef48b6608d0126bab31,61036dfac4ea71d23f9fd660,2021-07-30_13h13.41.114,Simcolourproject_2stim_asymm_v5,2020.2.10,MacIntel,60,61025ae37ef11b136ea224fe,,,,,,,,,3162,30,73,1,0,0,response1disk,,7,4,12,1,0,0,rectangle,4,12,1,0,0,4,12,1,0,0,1,129,289,41,1,,,,,,,,
,,,,,,,,,,,,,FF,,,,,,,,1.111,,,,,,,,,,,,,,,,,,,,,,61027ef48b6608d0126bab31,61036dfac4ea71d23f9fd660,2021-07-30_13h13.41.114,Simcolourproject_2stim_asymm_v5,2020.2.10,MacIntel,60,61025ae37ef11b136ea224fe,,,,,,,,,3867,66,32,1,0,0,response1disk,,6,18,-4,1,0,0,rectangle,77,33,1,0,0,16,4,1,0,0,1,130,290,114,1,,response1disk_3,TRUE,6,6,"[170,237,223,29,117,68,150,155,42,291,258,295,250,76,13,321,171,306,96,99]",1.349,rectangle
,,,,,,,,,,,,,FF,,,,,,,,0.984,,,,,,,,,,,,,,,,,,,,,,61027ef48b6608d0126bab31,61036dfac4ea71d23f9fd660,2021-07-30_13h13.41.114,Simcolourproject_2stim_asymm_v5,2020.2.10,MacIntel,60,61025ae37ef11b136ea224fe,,,,,,,,,2370,32,56,1,0,0,response1disk,,7,13,-2,1,0,0,rectangle,13,-2,1,0,0,13,-2,1,0,0,1,131,291,8,1,,,,,,,,
,,,,,,,,,,,,,FF,,,,,,,,2.777,,,,,,,,,,,,,,,,,,,,,,61027ef48b6608d0126bab31,61036dfac4ea71d23f9fd660,2021-07-30_13h13.41.114,Simcolourproject_2stim_asymm_v5,2020.2.10,MacIntel,60,61025ae37ef11b136ea224fe,,,,,,,,,3199,77,-32,1,0,0,response3disk,,5,13,-14,1,0,0,rectangle,13,-14,1,0,0,13,-14,1,0,0,1,132,292,33,1,,,,,,,,
,,,,,,,,,,,,,FF,,,,,,,,0.675,,,,,,,,,,,,,,,,,,,,,,61027ef48b6608d0126bab31,61036dfac4ea71d23f9fd660,2021-07-30_13h13.41.114,Simcolourproject_2stim_asymm_v5,2020.2.10,MacIntel,60,61025ae37ef11b136ea224fe,,,,,,,,,2803,29,61,1,0,0,response1disk,,7,4,4,1,0,0,rectangle,4,4,1,0,0,4,4,1,0,0,1,133,293,101,1,,,,,,,,
,,,,,,,,,,,,,FF,,,,,,,,1.513,,,,,,,,,,,,,,,,,,,,,,61027ef48b6608d0126bab31,61036dfac4ea71d23f9fd660,2021-07-30_13h13.41.114,Simcolourproject_2stim_asymm_v5,2020.2.10,MacIntel,60,61025ae37ef11b136ea224fe,,,,,,,,,3810,-27,-42,1,0,0,response5disk,,3,-5,17,1,0,0,rectangle,32,-79,1,0,0,15,-7,1,0,0,1,134,294,137,1,,response3disk_3,TRUE,4,4,"[170,237,223,29,117,68,150,155,42,291,258,295,250,76,13,321,171,306,96,99]",1.34,rectangle
,,,,,,,,,,,,,FF,,,,,,,,0.85,,,,,,,,,,,,,,,,,,,,,,61027ef48b6608d0126bab31,61036dfac4ea71d23f9fd660,2021-07-30_13h13.41.114,Simcolourproject_2stim_asymm_v5,2020.2.10,MacIntel,60,61025ae37ef11b136ea224fe,,,,,,,,,2707,33,64,1,0,0,response1disk,,7,21,-5,1,0,0,rectangle,21,-5,1,0,0,21,-5,1,0,0,1,135,295,9,1,,,,,,,,
,,,,,,,,,,,,,FF,,,,,,,,0.983,,,,,,,,,,,,,,,,,,,,,,61027ef48b6608d0126bab31,61036dfac4ea71d23f9fd660,2021-07-30_13h13.41.114,Simcolourproject_2stim_asymm_v5,2020.2.10,MacIntel,60,61025ae37ef11b136ea224fe,,,,,,,,,2557,35,63,1,0,0,response1disk,,7,21,-1,1,0,0,rectangle,21,-1,1,0,0,21,-1,1,0,0,1,136,296,156,1,,,,,,,,
,,,,,,,,,,,,,FF,,,,,,,,0.627,,,,,,,,,,,,,,,,,,,,,,61027ef48b6608d0126bab31,61036dfac4ea71d23f9fd660,2021-07-30_13h13.41.114,Simcolourproject_2stim_asymm_v5,2020.2.10,MacIntel,60,61025ae37ef11b136ea224fe,,,,,,,,,2204,32,69,1,0,0,response1disk,,7,24,4,1,0,0,rectangle,24,4,1,0,0,24,4,1,0,0,1,137,297,122,1,,,,,,,,
,,,,,,,,,,,,,FF,,,,,,,,0.516,,,,,,,,,,,,,,,,,,,,,,61027ef48b6608d0126bab31,61036dfac4ea71d23f9fd660,2021-07-30_13h13.41.114,Simcolourproject_2stim_asymm_v5,2020.2.10,MacIntel,60,61025ae37ef11b136ea224fe,,,,,,,,,4228,34,55,1,0,0,response1disk,,7,28,11,1,0,0,rectangle,28,11,1,0,0,28,11,1,0,0,1,138,298,96,1,,,,,,,,
,,,,,,,,,,,,,FF,,,,,,,,0.499,,,,,,,,,,,,,,,,,,,,,,61027ef48b6608d0126bab31,61036dfac4ea71d23f9fd660,2021-07-30_13h13.41.114,Simcolourproject_2stim_asymm_v5,2020.2.10,MacIntel,60,61025ae37ef11b136ea224fe,,,,,,,,,3447,36,62,1,0,0,response1disk,,7,31,-4,1,0,0,rectangle,31,-4,1,0,0,31,-4,1,0,0,1,139,299,54,1,,,,,,,,
,,,,,,,,,,,,,FF,,,,,,,,0.51,,,,,,,,,,,,,,,,,,,,,,61027ef48b6608d0126bab31,61036dfac4ea71d23f9fd660,2021-07-30_13h13.41.114,Simcolourproject_2stim_asymm_v5,2020.2.10,MacIntel,60,61025ae37ef11b136ea224fe,,,,,,,,,3016,46,80,1,0,0,response1disk,,7,19,-3,1,0,0,rectangle,19,-3,1,0,0,19,-3,1,0,0,1,140,300,49,1,,,,,,,,
,,,,,,,,,,,,,FF,,,,,,,,1.6,,,,,,,,,,,,,,,,,,,,,,61027ef48b6608d0126bab31,61036dfac4ea71d23f9fd660,2021-07-30_13h13.41.114,Simcolourproject_2stim_asymm_v5,2020.2.10,MacIntel,60,61025ae37ef11b136ea224fe,,,,,,,,,1830,74,-19,1,0,0,response3disk,,5,7,10,1,0,0,rectangle,7,10,1,0,0,7,10,1,0,0,1,141,301,116,1,,,,,,,,
