key_resp.keys,key_resp.rt,key_resp_14.keys,key_resp_14.rt,key_resp_15.keys,key_resp_15.rt,key_resp_17.keys,key_resp_17.rt,key_resp_9.keys,key_resp_9.rt,key_resp_10.keys,key_resp_10.rt,practice_comparison,Ecc,mouse_5.x,mouse_5.y,mouse_5.leftButton,mouse_5.midButton,mouse_5.rightButton,mouse_5.clicked_name,pracsimilarity,response_time,mouse_10.x,mouse_10.y,mouse_10.leftButton,mouse_10.midButton,mouse_10.rightButton,mouse_10.clicked_name,mouse_7.x,mouse_7.y,mouse_7.leftButton,mouse_7.midButton,mouse_7.rightButton,mouse_6.x,mouse_6.y,mouse_6.leftButton,mouse_6.midButton,mouse_6.rightButton,duringprac.thisRepN,duringprac.thisTrialN,duringprac.thisN,duringprac.thisIndex,duringprac.ran,participant,session,date,expName,psychopyVersion,OS,frameRate,study_id,mouse_7.clicked_name,catchpracsimilarity,catch_response_time,catchnumberprac,catchtrialorderprac,mouse_6.clicked_name,key_resp_22.keys,key_resp_22.rt,realcomparison,mouse.x,mouse.y,mouse.leftButton,mouse.midButton,mouse.rightButton,mouse.clicked_name,Colour2,similarity,mouse_2.x,mouse_2.y,mouse_2.leftButton,mouse_2.midButton,mouse_2.rightButton,mouse_2.clicked_name,mouse_3.x,mouse_3.y,mouse_3.leftButton,mouse_3.midButton,mouse_3.rightButton,mouse_11.x,mouse_11.y,mouse_11.leftButton,mouse_11.midButton,mouse_11.rightButton,trials_2.thisRepN,trials_2.thisTrialN,trials_2.thisN,trials_2.thisIndex,trials_2.ran,Colour1,mouse_3.clicked_name,catchornah,catchsimilarity,catchnumber,catchtrialorder,catchRT,mouse_11.clicked_name
space,1.2604,space,6.7932,space,13.0832,space,12.3287,space,0.9993,space,5.1831,54,PF,41.72381592,-70.57391357,1,0,0,response3disk_5,4,7.1619,-2.419921875,-0.088745117,1,0,0,rectangle_8,-2.419921875,-0.088745117,1,0,0,-2.419921875,-0.088745117,1,0,0,0,0,0,6,1,6102285a4cadf6b3a87ed993,61036a4937ab380134ccb6de,2021-07-29_16h56.43.807,Simcolourproject_2stim_asymm_v5,2020.2.10,MacIntel,60,61025ae37ef11b136ea224fe,,,,,,,,,,,,,,,,,,,,,,,,,,,,,,,,,,,,,,,,,,,,,,
,,,,,,,,,,,,4,FF,40.16900635,-82.68463135,1,0,0,response3disk_5,4,1.5909,6.375793457,6.240600586,1,0,0,rectangle_8,-52.355896,87.42755127,1,0,0,-0.407714844,6.383117676,1,0,0,0,1,1,0,1,6102285a4cadf6b3a87ed993,61036a4937ab380134ccb6de,2021-07-29_16h56.43.807,Simcolourproject_2stim_asymm_v5,2020.2.10,MacIntel,60,61025ae37ef11b136ea224fe,response7disk_7,0,2.9011,0,"[2,5]",rectangle_4,,,,,,,,,,,,,,,,,,,,,,,,,,,,,,,,,,,,,,,,
,,,,,,,,,,,,149,FF,125.6593018,-42.85388184,1,0,0,response3disk_5,5,6.123,4.392272949,4.435546875,1,0,0,rectangle_8,4.392272949,4.435546875,1,0,0,4.392272949,4.435546875,1,0,0,0,2,2,3,1,6102285a4cadf6b3a87ed993,61036a4937ab380134ccb6de,2021-07-29_16h56.43.807,Simcolourproject_2stim_asymm_v5,2020.2.10,MacIntel,60,61025ae37ef11b136ea224fe,,,,,,,,,,,,,,,,,,,,,,,,,,,,,,,,,,,,,,,,,,,,,,
,,,,,,,,,,,,159,PF,-73.86865234,39.27069092,1,0,0,response7disk_5,1,4.6379,1.492553711,5.988891602,1,0,0,rectangle_8,1.492553711,5.988891602,1,0,0,1.492553711,5.988891602,1,0,0,0,3,3,2,1,6102285a4cadf6b3a87ed993,61036a4937ab380134ccb6de,2021-07-29_16h56.43.807,Simcolourproject_2stim_asymm_v5,2020.2.10,MacIntel,60,61025ae37ef11b136ea224fe,,,,,,,,,,,,,,,,,,,,,,,,,,,,,,,,,,,,,,,,,,,,,,
,,,,,,,,,,,,79,PF,88.82293701,21.98553467,1,0,0,response1disk_5,6,2.881,6.376831055,-9.98614502,1,0,0,rectangle_8,-37.80224609,88.85748291,1,0,0,-7.360046387,-4.358581543,1,0,0,0,4,4,1,1,6102285a4cadf6b3a87ed993,61036a4937ab380134ccb6de,2021-07-29_16h56.43.807,Simcolourproject_2stim_asymm_v5,2020.2.10,MacIntel,60,61025ae37ef11b136ea224fe,response7disk_7,0,1.82,0,"[2,5]",rectangle_4,,,,,,,,,,,,,,,,,,,,,,,,,,,,,,,,,,,,,,,,
,,,,,,,,,,,,3,PF,-44.00427246,-76.90234375,1,0,0,response5disk_5,3,4.9859,-6.682189941,-4.239074707,1,0,0,rectangle_8,-6.682189941,-4.239074707,1,0,0,-6.682189941,-4.239074707,1,0,0,0,5,5,4,1,6102285a4cadf6b3a87ed993,61036a4937ab380134ccb6de,2021-07-29_16h56.43.807,Simcolourproject_2stim_asymm_v5,2020.2.10,MacIntel,60,61025ae37ef11b136ea224fe,,,,,,,,,,,,,,,,,,,,,,,,,,,,,,,,,,,,,,,,,,,,,,
,,,,,,,,,,,,140,FF,-89.02337646,-33.88244629,1,0,0,response5disk_5,2,1.5342,3.976989746,4.946472168,1,0,0,rectangle_8,3.976989746,4.946472168,1,0,0,3.976989746,4.946472168,1,0,0,0,6,6,5,1,6102285a4cadf6b3a87ed993,61036a4937ab380134ccb6de,2021-07-29_16h56.43.807,Simcolourproject_2stim_asymm_v5,2020.2.10,MacIntel,60,61025ae37ef11b136ea224fe,,,,,,,,,,,,,,,,,,,,,,,,,,,,,,,,,,,,,,,,,,,,,,
,,,,,,,,,,,,,FF,,,,,,,,2.5409,,,,,,,,,,,,,,,,,,,,,,6102285a4cadf6b3a87ed993,61036a4937ab380134ccb6de,2021-07-29_16h56.43.807,Simcolourproject_2stim_asymm_v5,2020.2.10,MacIntel,60,61025ae37ef11b136ea224fe,,,,,,,space,3.5589,3179,73.45849609,-47.74285889,1,0,0,response3disk,,5,-15.75933838,2.831176758,1,0,0,rectangle,-15.75933838,2.831176758,1,0,0,-15.75933838,2.831176758,1,0,0,0,0,0,149,1,,,,,,,,
,,,,,,,,,,,,,FF,,,,,,,,2.006,,,,,,,,,,,,,,,,,,,,,,6102285a4cadf6b3a87ed993,61036a4937ab380134ccb6de,2021-07-29_16h56.43.807,Simcolourproject_2stim_asymm_v5,2020.2.10,MacIntel,60,61025ae37ef11b136ea224fe,,,,,,,,,1570,32.05554199,-62.91906738,1,0,0,response3disk,,4,16.15667725,15.90838623,1,0,0,rectangle,16.15667725,15.90838623,1,0,0,16.15667725,15.90838623,1,0,0,0,1,1,46,1,,,,,,,,
,,,,,,,,,,,,,FF,,,,,,,,1.7095,,,,,,,,,,,,,,,,,,,,,,6102285a4cadf6b3a87ed993,61036a4937ab380134ccb6de,2021-07-29_16h56.43.807,Simcolourproject_2stim_asymm_v5,2020.2.10,MacIntel,60,61025ae37ef11b136ea224fe,,,,,,,,,75,-42.46777344,-65.7713623,1,0,0,response5disk,,3,9.457702637,-3.46105957,1,0,0,rectangle,-74.26068115,-48.9710083,1,0,0,-10.9732666,3.941650391,1,0,0,0,2,2,94,1,,response5disk_3,TRUE,2,2,"[42,154,58,243,88,60,313,38,194,317,60,27,100,321,3,238,280,137,288,312]",2.7803,rectangle
,,,,,,,,,,,,,FF,,,,,,,,3.1459,,,,,,,,,,,,,,,,,,,,,,6102285a4cadf6b3a87ed993,61036a4937ab380134ccb6de,2021-07-29_16h56.43.807,Simcolourproject_2stim_asymm_v5,2020.2.10,MacIntel,60,61025ae37ef11b136ea224fe,,,,,,,,,3063,84.10754395,-32.92553711,1,0,0,response3disk,,5,11.29119873,-6.592956543,1,0,0,rectangle,11.29119873,-6.592956543,1,0,0,11.29119873,-6.592956543,1,0,0,0,3,3,54,1,,,,,,,,
,,,,,,,,,,,,,FF,,,,,,,,1.6024,,,,,,,,,,,,,,,,,,,,,,6102285a4cadf6b3a87ed993,61036a4937ab380134ccb6de,2021-07-29_16h56.43.807,Simcolourproject_2stim_asymm_v5,2020.2.10,MacIntel,60,61025ae37ef11b136ea224fe,,,,,,,,,1391,46.08410645,-91.23687744,1,0,0,response3disk,,4,16.12145996,2.509277344,1,0,0,rectangle,16.12145996,2.509277344,1,0,0,16.12145996,2.509277344,1,0,0,0,4,4,130,1,,,,,,,,
,,,,,,,,,,,,,FF,,,,,,,,1.1929,,,,,,,,,,,,,,,,,,,,,,6102285a4cadf6b3a87ed993,61036a4937ab380134ccb6de,2021-07-29_16h56.43.807,Simcolourproject_2stim_asymm_v5,2020.2.10,MacIntel,60,61025ae37ef11b136ea224fe,,,,,,,,,3157,-82.21258545,-44.28948975,1,0,0,response5disk,,2,21.99462891,4.793823242,1,0,0,rectangle,21.99462891,4.793823242,1,0,0,21.99462891,4.793823242,1,0,0,0,5,5,59,1,,,,,,,,
,,,,,,,,,,,,,FF,,,,,,,,1.6196,,,,,,,,,,,,,,,,,,,,,,6102285a4cadf6b3a87ed993,61036a4937ab380134ccb6de,2021-07-29_16h56.43.807,Simcolourproject_2stim_asymm_v5,2020.2.10,MacIntel,60,61025ae37ef11b136ea224fe,,,,,,,,,1711,99.87158203,53.60620117,1,0,0,response1disk,,6,1.431152344,-7.088317871,1,0,0,rectangle,1.431152344,-7.088317871,1,0,0,1.431152344,-7.088317871,1,0,0,0,6,6,45,1,,,,,,,,
,,,,,,,,,,,,,FF,,,,,,,,1.7361,,,,,,,,,,,,,,,,,,,,,,6102285a4cadf6b3a87ed993,61036a4937ab380134ccb6de,2021-07-29_16h56.43.807,Simcolourproject_2stim_asymm_v5,2020.2.10,MacIntel,60,61025ae37ef11b136ea224fe,,,,,,,,,3699,39.22521973,-80.15270996,1,0,0,response3disk,,4,-1.891479492,3.78137207,1,0,0,rectangle,-1.891479492,3.78137207,1,0,0,-1.891479492,3.78137207,1,0,0,0,7,7,158,1,,,,,,,,
,,,,,,,,,,,,,FF,,,,,,,,1.2585,,,,,,,,,,,,,,,,,,,,,,6102285a4cadf6b3a87ed993,61036a4937ab380134ccb6de,2021-07-29_16h56.43.807,Simcolourproject_2stim_asymm_v5,2020.2.10,MacIntel,60,61025ae37ef11b136ea224fe,,,,,,,,,1681,-86.83215332,-31.20349121,1,0,0,response5disk,,2,5.233947754,2.931884766,1,0,0,rectangle,5.233947754,2.931884766,1,0,0,5.233947754,2.931884766,1,0,0,0,8,8,41,1,,,,,,,,
,,,,,,,,,,,,,FF,,,,,,,,1.3337,,,,,,,,,,,,,,,,,,,,,,6102285a4cadf6b3a87ed993,61036a4937ab380134ccb6de,2021-07-29_16h56.43.807,Simcolourproject_2stim_asymm_v5,2020.2.10,MacIntel,60,61025ae37ef11b136ea224fe,,,,,,,,,2722,-47.81256104,-77.8572998,1,0,0,response5disk,,3,-3.218444824,4.770812988,1,0,0,rectangle,-3.218444824,4.770812988,1,0,0,-3.218444824,4.770812988,1,0,0,0,9,9,118,1,,,,,,,,
,,,,,,,,,,,,,FF,,,,,,,,1.2789,,,,,,,,,,,,,,,,,,,,,,6102285a4cadf6b3a87ed993,61036a4937ab380134ccb6de,2021-07-29_16h56.43.807,Simcolourproject_2stim_asymm_v5,2020.2.10,MacIntel,60,61025ae37ef11b136ea224fe,,,,,,,,,4313,68.34649658,76.26147461,1,0,0,response1disk,,7,-0.968383789,-10.0826416,1,0,0,rectangle,-0.968383789,-10.0826416,1,0,0,-0.968383789,-10.0826416,1,0,0,0,10,10,19,1,,,,,,,,
,,,,,,,,,,,,,FF,,,,,,,,1.3153,,,,,,,,,,,,,,,,,,,,,,6102285a4cadf6b3a87ed993,61036a4937ab380134ccb6de,2021-07-29_16h56.43.807,Simcolourproject_2stim_asymm_v5,2020.2.10,MacIntel,60,61025ae37ef11b136ea224fe,,,,,,,,,2234,-79.38104248,-56.07519531,1,0,0,response5disk,,2,-7.379943848,-4.16418457,1,0,0,rectangle,-7.379943848,-4.16418457,1,0,0,-7.379943848,-4.16418457,1,0,0,0,11,11,30,1,,,,,,,,
,,,,,,,,,,,,,FF,,,,,,,,1.4647,,,,,,,,,,,,,,,,,,,,,,6102285a4cadf6b3a87ed993,61036a4937ab380134ccb6de,2021-07-29_16h56.43.807,Simcolourproject_2stim_asymm_v5,2020.2.10,MacIntel,60,61025ae37ef11b136ea224fe,,,,,,,,,3395,-98.27484131,-44.94763184,1,0,0,response5disk,,2,1.717285156,4.543334961,1,0,0,rectangle,1.717285156,4.543334961,1,0,0,1.717285156,4.543334961,1,0,0,0,12,12,33,1,,,,,,,,
,,,,,,,,,,,,,FF,,,,,,,,1.2031,,,,,,,,,,,,,,,,,,,,,,6102285a4cadf6b3a87ed993,61036a4937ab380134ccb6de,2021-07-29_16h56.43.807,Simcolourproject_2stim_asymm_v5,2020.2.10,MacIntel,60,61025ae37ef11b136ea224fe,,,,,,,,,2838,51.58355713,-82.69818115,1,0,0,response3disk,,4,13.65106201,-7.80090332,1,0,0,rectangle,13.65106201,-7.80090332,1,0,0,13.65106201,-7.80090332,1,0,0,0,13,13,68,1,,,,,,,,
,,,,,,,,,,,,,FF,,,,,,,,1.3455,,,,,,,,,,,,,,,,,,,,,,6102285a4cadf6b3a87ed993,61036a4937ab380134ccb6de,2021-07-29_16h56.43.807,Simcolourproject_2stim_asymm_v5,2020.2.10,MacIntel,60,61025ae37ef11b136ea224fe,,,,,,,,,1075,83.07116699,65.58630371,1,0,0,response1disk,,6,-6.56628418,-4.52166748,1,0,0,rectangle,-6.56628418,-4.52166748,1,0,0,-6.56628418,-4.52166748,1,0,0,0,14,14,17,1,,,,,,,,
,,,,,,,,,,,,,FF,,,,,,,,1.1733,,,,,,,,,,,,,,,,,,,,,,6102285a4cadf6b3a87ed993,61036a4937ab380134ccb6de,2021-07-29_16h56.43.807,Simcolourproject_2stim_asymm_v5,2020.2.10,MacIntel,60,61025ae37ef11b136ea224fe,,,,,,,,,3957,74.28222656,28.92538452,1,0,0,response1disk,,6,-10.78808594,-6.523620605,1,0,0,rectangle,-10.78808594,-6.523620605,1,0,0,-10.78808594,-6.523620605,1,0,0,0,15,15,137,1,,,,,,,,
,,,,,,,,,,,,,FF,,,,,,,,1.1312,,,,,,,,,,,,,,,,,,,,,,6102285a4cadf6b3a87ed993,61036a4937ab380134ccb6de,2021-07-29_16h56.43.807,Simcolourproject_2stim_asymm_v5,2020.2.10,MacIntel,60,61025ae37ef11b136ea224fe,,,,,,,,,1686,-35.21063232,-80.34765625,1,0,0,response5disk,,3,-0.968811035,-4.380493164,1,0,0,rectangle,-0.968811035,-4.380493164,1,0,0,-0.968811035,-4.380493164,1,0,0,0,16,16,127,1,,,,,,,,
,,,,,,,,,,,,,FF,,,,,,,,1.5639,,,,,,,,,,,,,,,,,,,,,,6102285a4cadf6b3a87ed993,61036a4937ab380134ccb6de,2021-07-29_16h56.43.807,Simcolourproject_2stim_asymm_v5,2020.2.10,MacIntel,60,61025ae37ef11b136ea224fe,,,,,,,,,1365,31.02819824,-73.77746582,1,0,0,response3disk,,4,2.014831543,-5.496032715,1,0,0,rectangle,2.014831543,-5.496032715,1,0,0,2.014831543,-5.496032715,1,0,0,0,17,17,0,1,,,,,,,,
,,,,,,,,,,,,,FF,,,,,,,,1.1982,,,,,,,,,,,,,,,,,,,,,,6102285a4cadf6b3a87ed993,61036a4937ab380134ccb6de,2021-07-29_16h56.43.807,Simcolourproject_2stim_asymm_v5,2020.2.10,MacIntel,60,61025ae37ef11b136ea224fe,,,,,,,,,429,-52.34057617,-76.60522461,1,0,0,response5disk,,3,-8.935668945,-6.357788086,1,0,0,rectangle,-8.935668945,-6.357788086,1,0,0,-8.935668945,-6.357788086,1,0,0,0,18,18,102,1,,,,,,,,
,,,,,,,,,,,,,FF,,,,,,,,1.0422,,,,,,,,,,,,,,,,,,,,,,6102285a4cadf6b3a87ed993,61036a4937ab380134ccb6de,2021-07-29_16h56.43.807,Simcolourproject_2stim_asymm_v5,2020.2.10,MacIntel,60,61025ae37ef11b136ea224fe,,,,,,,,,891,-30.7611084,-75.14355469,1,0,0,response5disk,,3,-0.449645996,-11.74963379,1,0,0,rectangle,-0.449645996,-11.74963379,1,0,0,-0.449645996,-11.74963379,1,0,0,0,19,19,154,1,,,,,,,,
,,,,,,,,,,,,,FF,,,,,,,,1.7398,,,,,,,,,,,,,,,,,,,,,,6102285a4cadf6b3a87ed993,61036a4937ab380134ccb6de,2021-07-29_16h56.43.807,Simcolourproject_2stim_asymm_v5,2020.2.10,MacIntel,60,61025ae37ef11b136ea224fe,,,,,,,,,343,-38.55377197,-77.02984619,1,0,0,response5disk,,3,-1.665222168,-6.020874023,1,0,0,rectangle,-1.665222168,-6.020874023,1,0,0,-1.665222168,-6.020874023,1,0,0,0,20,20,81,1,,,,,,,,
,,,,,,,,,,,,,FF,,,,,,,,1.3898,,,,,,,,,,,,,,,,,,,,,,6102285a4cadf6b3a87ed993,61036a4937ab380134ccb6de,2021-07-29_16h56.43.807,Simcolourproject_2stim_asymm_v5,2020.2.10,MacIntel,60,61025ae37ef11b136ea224fe,,,,,,,,,1700,51.97149658,64.97900391,1,0,0,response1disk,,7,2.553100586,-1.741455078,1,0,0,rectangle,2.553100586,-1.741455078,1,0,0,2.553100586,-1.741455078,1,0,0,0,21,21,151,1,,,,,,,,
,,,,,,,,,,,,,FF,,,,,,,,2.2527,,,,,,,,,,,,,,,,,,,,,,6102285a4cadf6b3a87ed993,61036a4937ab380134ccb6de,2021-07-29_16h56.43.807,Simcolourproject_2stim_asymm_v5,2020.2.10,MacIntel,60,61025ae37ef11b136ea224fe,,,,,,,,,3890,37.17596436,65.45751953,1,0,0,response1disk,,7,-6.178283691,-0.213134766,1,0,0,rectangle,-6.178283691,-0.213134766,1,0,0,-6.178283691,-0.213134766,1,0,0,0,22,22,143,1,,,,,,,,
,,,,,,,,,,,,,FF,,,,,,,,0.978,,,,,,,,,,,,,,,,,,,,,,6102285a4cadf6b3a87ed993,61036a4937ab380134ccb6de,2021-07-29_16h56.43.807,Simcolourproject_2stim_asymm_v5,2020.2.10,MacIntel,60,61025ae37ef11b136ea224fe,,,,,,,,,874,-74.78076172,-49.46179199,1,0,0,response5disk,,2,3.008483887,-2.767944336,1,0,0,rectangle,3.008483887,-2.767944336,1,0,0,3.008483887,-2.767944336,1,0,0,0,23,23,2,1,,,,,,,,
,,,,,,,,,,,,,FF,,,,,,,,1.3298,,,,,,,,,,,,,,,,,,,,,,6102285a4cadf6b3a87ed993,61036a4937ab380134ccb6de,2021-07-29_16h56.43.807,Simcolourproject_2stim_asymm_v5,2020.2.10,MacIntel,60,61025ae37ef11b136ea224fe,,,,,,,,,2608,-86.7722168,36.26623535,1,0,0,response7disk,,1,-7.160461426,4.92565918,1,0,0,rectangle,-7.160461426,4.92565918,1,0,0,-7.160461426,4.92565918,1,0,0,0,24,24,75,1,,,,,,,,
,,,,,,,,,,,,,FF,,,,,,,,1.2837,,,,,,,,,,,,,,,,,,,,,,6102285a4cadf6b3a87ed993,61036a4937ab380134ccb6de,2021-07-29_16h56.43.807,Simcolourproject_2stim_asymm_v5,2020.2.10,MacIntel,60,61025ae37ef11b136ea224fe,,,,,,,,,4328,-41.84387207,-90.49707031,1,0,0,response5disk,,3,-3.107421875,-0.824584961,1,0,0,rectangle,-3.107421875,-0.824584961,1,0,0,-3.107421875,-0.824584961,1,0,0,0,25,25,141,1,,,,,,,,
,,,,,,,,,,,,,FF,,,,,,,,1.6393,,,,,,,,,,,,,,,,,,,,,,6102285a4cadf6b3a87ed993,61036a4937ab380134ccb6de,2021-07-29_16h56.43.807,Simcolourproject_2stim_asymm_v5,2020.2.10,MacIntel,60,61025ae37ef11b136ea224fe,,,,,,,,,3348,-31.10314941,-74.02429199,1,0,0,response5disk,,3,-3.915466309,-3.476745605,1,0,0,rectangle,-57.97644043,86.10980225,1,0,0,-0.058349609,7.88684082,1,0,0,0,26,26,14,1,,response7disk_3,TRUE,0,0,"[42,154,58,243,88,60,313,38,194,317,60,27,100,321,3,238,280,137,288,312]",1.6542,rectangle
,,,,,,,,,,,,,FF,,,,,,,,1.7603,,,,,,,,,,,,,,,,,,,,,,6102285a4cadf6b3a87ed993,61036a4937ab380134ccb6de,2021-07-29_16h56.43.807,Simcolourproject_2stim_asymm_v5,2020.2.10,MacIntel,60,61025ae37ef11b136ea224fe,,,,,,,,,512,70.3449707,-43.22271729,1,0,0,response3disk,,5,20.32373047,-2.964538574,1,0,0,rectangle,20.32373047,-2.964538574,1,0,0,20.32373047,-2.964538574,1,0,0,0,27,27,112,1,,,,,,,,
,,,,,,,,,,,,,FF,,,,,,,,3.4381,,,,,,,,,,,,,,,,,,,,,,6102285a4cadf6b3a87ed993,61036a4937ab380134ccb6de,2021-07-29_16h56.43.807,Simcolourproject_2stim_asymm_v5,2020.2.10,MacIntel,60,61025ae37ef11b136ea224fe,,,,,,,,,3484,37.93060303,-73.47033691,1,0,0,response3disk,,4,9.46472168,-6.386352539,1,0,0,rectangle,9.46472168,-6.386352539,1,0,0,9.46472168,-6.386352539,1,0,0,0,28,28,120,1,,,,,,,,
,,,,,,,,,,,,,FF,,,,,,,,2.2049,,,,,,,,,,,,,,,,,,,,,,6102285a4cadf6b3a87ed993,61036a4937ab380134ccb6de,2021-07-29_16h56.43.807,Simcolourproject_2stim_asymm_v5,2020.2.10,MacIntel,60,61025ae37ef11b136ea224fe,,,,,,,,,3013,57.29925537,-39.78399658,1,0,0,response3disk,,5,-2.007995605,-4.013122559,1,0,0,rectangle,-2.007995605,-4.013122559,1,0,0,-2.007995605,-4.013122559,1,0,0,0,29,29,79,1,,,,,,,,
,,,,,,,,,,,,,FF,,,,,,,,1.2935,,,,,,,,,,,,,,,,,,,,,,6102285a4cadf6b3a87ed993,61036a4937ab380134ccb6de,2021-07-29_16h56.43.807,Simcolourproject_2stim_asymm_v5,2020.2.10,MacIntel,60,61025ae37ef11b136ea224fe,,,,,,,,,3130,83.23364258,36.59313965,1,0,0,response1disk,,6,-5.454833984,2.852050781,1,0,0,rectangle,-5.454833984,2.852050781,1,0,0,-5.454833984,2.852050781,1,0,0,0,30,30,23,1,,,,,,,,
,,,,,,,,,,,,,FF,,,,,,,,1.8599,,,,,,,,,,,,,,,,,,,,,,6102285a4cadf6b3a87ed993,61036a4937ab380134ccb6de,2021-07-29_16h56.43.807,Simcolourproject_2stim_asymm_v5,2020.2.10,MacIntel,60,61025ae37ef11b136ea224fe,,,,,,,,,3990,69.140625,-42.38452148,1,0,0,response3disk,,5,-3.762939453,-8.838623047,1,0,0,rectangle,-3.762939453,-8.838623047,1,0,0,-3.762939453,-8.838623047,1,0,0,0,31,31,73,1,,,,,,,,
,,,,,,,,,,,,,FF,,,,,,,,0.9132,,,,,,,,,,,,,,,,,,,,,,6102285a4cadf6b3a87ed993,61036a4937ab380134ccb6de,2021-07-29_16h56.43.807,Simcolourproject_2stim_asymm_v5,2020.2.10,MacIntel,60,61025ae37ef11b136ea224fe,,,,,,,,,2253,-51.60174561,-76.0045166,1,0,0,response5disk,,3,-4.751220703,-5.949768066,1,0,0,rectangle,-4.751220703,-5.949768066,1,0,0,-4.751220703,-5.949768066,1,0,0,0,32,32,71,1,,,,,,,,
,,,,,,,,,,,,,FF,,,,,,,,2.5455,,,,,,,,,,,,,,,,,,,,,,6102285a4cadf6b3a87ed993,61036a4937ab380134ccb6de,2021-07-29_16h56.43.807,Simcolourproject_2stim_asymm_v5,2020.2.10,MacIntel,60,61025ae37ef11b136ea224fe,,,,,,,,,774,92.75158691,-31.49768066,1,0,0,response3disk,,5,-6.221374512,-5.309204102,1,0,0,rectangle,-6.221374512,-5.309204102,1,0,0,-6.221374512,-5.309204102,1,0,0,0,33,33,139,1,,,,,,,,
,,,,,,,,,,,,,FF,,,,,,,,1.0374,,,,,,,,,,,,,,,,,,,,,,6102285a4cadf6b3a87ed993,61036a4937ab380134ccb6de,2021-07-29_16h56.43.807,Simcolourproject_2stim_asymm_v5,2020.2.10,MacIntel,60,61025ae37ef11b136ea224fe,,,,,,,,,1168,42.49401855,79.93618774,1,0,0,response1disk,,7,8.991394043,10.26544189,1,0,0,rectangle,8.991394043,10.26544189,1,0,0,8.991394043,10.26544189,1,0,0,0,34,34,40,1,,,,,,,,
,,,,,,,,,,,,,FF,,,,,,,,4.9371,,,,,,,,,,,,,,,,,,,,,,6102285a4cadf6b3a87ed993,61036a4937ab380134ccb6de,2021-07-29_16h56.43.807,Simcolourproject_2stim_asymm_v5,2020.2.10,MacIntel,60,61025ae37ef11b136ea224fe,,,,,,,,,559,41.20794678,-91.39733887,1,0,0,response3disk,,4,8.178344727,-3.516845703,1,0,0,rectangle,8.178344727,-3.516845703,1,0,0,8.178344727,-3.516845703,1,0,0,0,35,35,5,1,,,,,,,,
,,,,,,,,,,,,,FF,,,,,,,,2.8775,,,,,,,,,,,,,,,,,,,,,,6102285a4cadf6b3a87ed993,61036a4937ab380134ccb6de,2021-07-29_16h56.43.807,Simcolourproject_2stim_asymm_v5,2020.2.10,MacIntel,60,61025ae37ef11b136ea224fe,,,,,,,,,242,-79.28167725,-42.25805664,1,0,0,response5disk,,2,9.612304688,6.874145508,1,0,0,rectangle,9.612304688,6.874145508,1,0,0,9.612304688,6.874145508,1,0,0,0,36,36,12,1,,,,,,,,
,,,,,,,,,,,,,FF,,,,,,,,1.0123,,,,,,,,,,,,,,,,,,,,,,6102285a4cadf6b3a87ed993,61036a4937ab380134ccb6de,2021-07-29_16h56.43.807,Simcolourproject_2stim_asymm_v5,2020.2.10,MacIntel,60,61025ae37ef11b136ea224fe,,,,,,,,,349,-74.99530029,-48.80847168,1,0,0,response5disk,,2,2.558227539,-7.960571289,1,0,0,rectangle,-41.08685303,-101.1921387,1,0,0,-3.341308594,-5.203552246,1,0,0,0,37,37,84,1,,response5disk_3,TRUE,3,3,"[42,154,58,243,88,60,313,38,194,317,60,27,100,321,3,238,280,137,288,312]",2.0789,rectangle
,,,,,,,,,,,,,FF,,,,,,,,2.1488,,,,,,,,,,,,,,,,,,,,,,6102285a4cadf6b3a87ed993,61036a4937ab380134ccb6de,2021-07-29_16h56.43.807,Simcolourproject_2stim_asymm_v5,2020.2.10,MacIntel,60,61025ae37ef11b136ea224fe,,,,,,,,,2381,78.85095215,40.00921631,1,0,0,response1disk,,6,4.439453125,-2.440368652,1,0,0,rectangle,4.439453125,-2.440368652,1,0,0,4.439453125,-2.440368652,1,0,0,0,38,38,52,1,,,,,,,,
,,,,,,,,,,,,,FF,,,,,,,,1.0476,,,,,,,,,,,,,,,,,,,,,,6102285a4cadf6b3a87ed993,61036a4937ab380134ccb6de,2021-07-29_16h56.43.807,Simcolourproject_2stim_asymm_v5,2020.2.10,MacIntel,60,61025ae37ef11b136ea224fe,,,,,,,,,3258,37.06811523,-70.52246094,1,0,0,response3disk,,4,-7.323791504,-4.118713379,1,0,0,rectangle,-7.323791504,-4.118713379,1,0,0,-7.323791504,-4.118713379,1,0,0,0,39,39,35,1,,,,,,,,
,,,,,,,,,,,,,FF,,,,,,,,3.7549,,,,,,,,,,,,,,,,,,,,,,6102285a4cadf6b3a87ed993,61036a4937ab380134ccb6de,2021-07-29_16h56.43.807,Simcolourproject_2stim_asymm_v5,2020.2.10,MacIntel,60,61025ae37ef11b136ea224fe,,,,,,,,,2575,67.59075928,41.75280762,1,0,0,response1disk,,6,-9.815002441,1.242431641,1,0,0,rectangle,-9.815002441,1.242431641,1,0,0,-9.815002441,1.242431641,1,0,0,0,40,40,78,1,,,,,,,,
,,,,,,,,,,,,,FF,,,,,,,,0.9535,,,,,,,,,,,,,,,,,,,,,,6102285a4cadf6b3a87ed993,61036a4937ab380134ccb6de,2021-07-29_16h56.43.807,Simcolourproject_2stim_asymm_v5,2020.2.10,MacIntel,60,61025ae37ef11b136ea224fe,,,,,,,,,3644,-41.95159912,-72.05664063,1,0,0,response5disk,,3,-10.23065186,-4.877380371,1,0,0,rectangle,-60.04315186,-90.87756348,1,0,0,-9.126586914,-7.131530762,1,0,0,0,41,41,119,1,,response5disk_3,TRUE,3,3,"[42,154,58,243,88,60,313,38,194,317,60,27,100,321,3,238,280,137,288,312]",1.7642,rectangle
,,,,,,,,,,,,,FF,,,,,,,,1.2469,,,,,,,,,,,,,,,,,,,,,,6102285a4cadf6b3a87ed993,61036a4937ab380134ccb6de,2021-07-29_16h56.43.807,Simcolourproject_2stim_asymm_v5,2020.2.10,MacIntel,60,61025ae37ef11b136ea224fe,,,,,,,,,1878,-42.33728027,-85.16156006,1,0,0,response5disk,,3,-16.00170898,-4.112243652,1,0,0,rectangle,-16.00170898,-4.112243652,1,0,0,-16.00170898,-4.112243652,1,0,0,0,42,42,115,1,,,,,,,,
,,,,,,,,,,,,,FF,,,,,,,,0.9925,,,,,,,,,,,,,,,,,,,,,,6102285a4cadf6b3a87ed993,61036a4937ab380134ccb6de,2021-07-29_16h56.43.807,Simcolourproject_2stim_asymm_v5,2020.2.10,MacIntel,60,61025ae37ef11b136ea224fe,,,,,,,,,2195,76.72900391,-40.41192627,1,0,0,response3disk,,5,-0.266296387,-5.806640625,1,0,0,rectangle,-0.266296387,-5.806640625,1,0,0,-0.266296387,-5.806640625,1,0,0,0,43,43,89,1,,,,,,,,
,,,,,,,,,,,,,FF,,,,,,,,1.7481,,,,,,,,,,,,,,,,,,,,,,6102285a4cadf6b3a87ed993,61036a4937ab380134ccb6de,2021-07-29_16h56.43.807,Simcolourproject_2stim_asymm_v5,2020.2.10,MacIntel,60,61025ae37ef11b136ea224fe,,,,,,,,,1738,83.03918457,-46.11639404,1,0,0,response3disk,,5,6.745910645,2.106872559,1,0,0,rectangle,6.745910645,2.106872559,1,0,0,6.745910645,2.106872559,1,0,0,0,44,44,104,1,,,,,,,,
,,,,,,,,,,,,,FF,,,,,,,,1.3627,,,,,,,,,,,,,,,,,,,,,,6102285a4cadf6b3a87ed993,61036a4937ab380134ccb6de,2021-07-29_16h56.43.807,Simcolourproject_2stim_asymm_v5,2020.2.10,MacIntel,60,61025ae37ef11b136ea224fe,,,,,,,,,3860,45.6204834,-83.11938477,1,0,0,response3disk,,4,6.912597656,-3.547424316,1,0,0,rectangle,6.912597656,-3.547424316,1,0,0,6.912597656,-3.547424316,1,0,0,0,45,45,99,1,,,,,,,,
,,,,,,,,,,,,,FF,,,,,,,,1.2166,,,,,,,,,,,,,,,,,,,,,,6102285a4cadf6b3a87ed993,61036a4937ab380134ccb6de,2021-07-29_16h56.43.807,Simcolourproject_2stim_asymm_v5,2020.2.10,MacIntel,60,61025ae37ef11b136ea224fe,,,,,,,,,2516,39.32287598,89.34368896,1,0,0,response1disk,,7,13.09851074,-4.420349121,1,0,0,rectangle,13.09851074,-4.420349121,1,0,0,13.09851074,-4.420349121,1,0,0,0,46,46,64,1,,,,,,,,
,,,,,,,,,,,,,FF,,,,,,,,1.0337,,,,,,,,,,,,,,,,,,,,,,6102285a4cadf6b3a87ed993,61036a4937ab380134ccb6de,2021-07-29_16h56.43.807,Simcolourproject_2stim_asymm_v5,2020.2.10,MacIntel,60,61025ae37ef11b136ea224fe,,,,,,,,,1616,-73.34362793,-41.62023926,1,0,0,response5disk,,2,-4.759887695,-3.641601563,1,0,0,rectangle,-4.759887695,-3.641601563,1,0,0,-4.759887695,-3.641601563,1,0,0,0,47,47,4,1,,,,,,,,
,,,,,,,,,,,,,FF,,,,,,,,0.9083,,,,,,,,,,,,,,,,,,,,,,6102285a4cadf6b3a87ed993,61036a4937ab380134ccb6de,2021-07-29_16h56.43.807,Simcolourproject_2stim_asymm_v5,2020.2.10,MacIntel,60,61025ae37ef11b136ea224fe,,,,,,,,,1663,-43.37872314,-94.80822754,1,0,0,response5disk,,3,-0.892028809,1.084899902,1,0,0,rectangle,-0.892028809,1.084899902,1,0,0,-0.892028809,1.084899902,1,0,0,0,48,48,60,1,,,,,,,,
,,,,,,,,,,,,,FF,,,,,,,,1.2472,,,,,,,,,,,,,,,,,,,,,,6102285a4cadf6b3a87ed993,61036a4937ab380134ccb6de,2021-07-29_16h56.43.807,Simcolourproject_2stim_asymm_v5,2020.2.10,MacIntel,60,61025ae37ef11b136ea224fe,,,,,,,,,1285,68.70581055,-44.06097412,1,0,0,response3disk,,5,-4.42578125,-4.082397461,1,0,0,rectangle,-4.42578125,-4.082397461,1,0,0,-4.42578125,-4.082397461,1,0,0,0,49,49,101,1,,,,,,,,
,,,,,,,,,,,,,FF,,,,,,,,1.0687,,,,,,,,,,,,,,,,,,,,,,6102285a4cadf6b3a87ed993,61036a4937ab380134ccb6de,2021-07-29_16h56.43.807,Simcolourproject_2stim_asymm_v5,2020.2.10,MacIntel,60,61025ae37ef11b136ea224fe,,,,,,,,,912,42.96929932,-89.62426758,1,0,0,response3disk,,4,5.35925293,-3.911376953,1,0,0,rectangle,5.35925293,-3.911376953,1,0,0,5.35925293,-3.911376953,1,0,0,0,50,50,108,1,,,,,,,,
,,,,,,,,,,,,,FF,,,,,,,,1.2003,,,,,,,,,,,,,,,,,,,,,,6102285a4cadf6b3a87ed993,61036a4937ab380134ccb6de,2021-07-29_16h56.43.807,Simcolourproject_2stim_asymm_v5,2020.2.10,MacIntel,60,61025ae37ef11b136ea224fe,,,,,,,,,3153,-101.6151123,-48.08880615,1,0,0,response5disk,,2,8.776367188,12.55322266,1,0,0,rectangle,8.776367188,12.55322266,1,0,0,8.776367188,12.55322266,1,0,0,0,51,51,128,1,,,,,,,,
,,,,,,,,,,,,,FF,,,,,,,,0.9512,,,,,,,,,,,,,,,,,,,,,,6102285a4cadf6b3a87ed993,61036a4937ab380134ccb6de,2021-07-29_16h56.43.807,Simcolourproject_2stim_asymm_v5,2020.2.10,MacIntel,60,61025ae37ef11b136ea224fe,,,,,,,,,1320,23.31604004,-85.27929688,1,0,0,response3disk,,4,3.587158203,-13.70056152,1,0,0,rectangle,3.587158203,-13.70056152,1,0,0,3.587158203,-13.70056152,1,0,0,0,52,52,82,1,,,,,,,,
,,,,,,,,,,,,,FF,,,,,,,,1.1406,,,,,,,,,,,,,,,,,,,,,,6102285a4cadf6b3a87ed993,61036a4937ab380134ccb6de,2021-07-29_16h56.43.807,Simcolourproject_2stim_asymm_v5,2020.2.10,MacIntel,60,61025ae37ef11b136ea224fe,,,,,,,,,3832,67.96179199,32.97991943,1,0,0,response1disk,,6,-0.797485352,-6.221679688,1,0,0,rectangle,-0.797485352,-6.221679688,1,0,0,-0.797485352,-6.221679688,1,0,0,0,53,53,63,1,,,,,,,,
,,,,,,,,,,,,,FF,,,,,,,,0.9074,,,,,,,,,,,,,,,,,,,,,,6102285a4cadf6b3a87ed993,61036a4937ab380134ccb6de,2021-07-29_16h56.43.807,Simcolourproject_2stim_asymm_v5,2020.2.10,MacIntel,60,61025ae37ef11b136ea224fe,,,,,,,,,53,-35.77624512,-79.86199951,1,0,0,response5disk,,3,-4.124267578,1.374511719,1,0,0,rectangle,-4.124267578,1.374511719,1,0,0,-4.124267578,1.374511719,1,0,0,0,54,54,142,1,,,,,,,,
,,,,,,,,,,,,,FF,,,,,,,,1.0131,,,,,,,,,,,,,,,,,,,,,,6102285a4cadf6b3a87ed993,61036a4937ab380134ccb6de,2021-07-29_16h56.43.807,Simcolourproject_2stim_asymm_v5,2020.2.10,MacIntel,60,61025ae37ef11b136ea224fe,,,,,,,,,2862,89.94824219,55.48989868,1,0,0,response1disk,,6,-1.885559082,-5.369873047,1,0,0,rectangle,-1.885559082,-5.369873047,1,0,0,-1.885559082,-5.369873047,1,0,0,0,55,55,49,1,,,,,,,,
,,,,,,,,,,,,,FF,,,,,,,,1.8009,,,,,,,,,,,,,,,,,,,,,,6102285a4cadf6b3a87ed993,61036a4937ab380134ccb6de,2021-07-29_16h56.43.807,Simcolourproject_2stim_asymm_v5,2020.2.10,MacIntel,60,61025ae37ef11b136ea224fe,,,,,,,,,111,89.14666748,-54.64038086,1,0,0,response3disk,,5,10.06506348,1.761230469,1,0,0,rectangle,10.06506348,1.761230469,1,0,0,10.06506348,1.761230469,1,0,0,0,56,56,22,1,,,,,,,,
,,,,,,,,,,,,,FF,,,,,,,,1.3561,,,,,,,,,,,,,,,,,,,,,,6102285a4cadf6b3a87ed993,61036a4937ab380134ccb6de,2021-07-29_16h56.43.807,Simcolourproject_2stim_asymm_v5,2020.2.10,MacIntel,60,61025ae37ef11b136ea224fe,,,,,,,,,3525,-53.39373779,-81.77441406,1,0,0,response5disk,,3,-11.56323242,-0.959472656,1,0,0,rectangle,-44.84033203,84.54180908,1,0,0,0.82824707,1.928527832,1,0,0,0,57,57,157,1,,response7disk_3,TRUE,0,0,"[42,154,58,243,88,60,313,38,194,317,60,27,100,321,3,238,280,137,288,312]",1.3352,rectangle
,,,,,,,,,,,,,FF,,,,,,,,1.2757,,,,,,,,,,,,,,,,,,,,,,6102285a4cadf6b3a87ed993,61036a4937ab380134ccb6de,2021-07-29_16h56.43.807,Simcolourproject_2stim_asymm_v5,2020.2.10,MacIntel,60,61025ae37ef11b136ea224fe,,,,,,,,,12,49.65185547,-76.0713501,1,0,0,response3disk,,4,-9.992736816,-2.64074707,1,0,0,rectangle,-9.992736816,-2.64074707,1,0,0,-9.992736816,-2.64074707,1,0,0,0,58,58,153,1,,,,,,,,
,,,,,,,,,,,,,FF,,,,,,,,1.0176,,,,,,,,,,,,,,,,,,,,,,6102285a4cadf6b3a87ed993,61036a4937ab380134ccb6de,2021-07-29_16h56.43.807,Simcolourproject_2stim_asymm_v5,2020.2.10,MacIntel,60,61025ae37ef11b136ea224fe,,,,,,,,,2945,-96.88977051,-52.68725586,1,0,0,response5disk,,2,10.68682861,-0.243041992,1,0,0,rectangle,-80.64831543,-50.16729736,1,0,0,-2.022949219,6.11706543,1,0,0,0,59,59,50,1,,response5disk_3,TRUE,2,2,"[42,154,58,243,88,60,313,38,194,317,60,27,100,321,3,238,280,137,288,312]",2.1147,rectangle
,,,,,,,,,,,,,FF,,,,,,,,0.8946,,,,,,,,,,,,,,,,,,,,,,6102285a4cadf6b3a87ed993,61036a4937ab380134ccb6de,2021-07-29_16h56.43.807,Simcolourproject_2stim_asymm_v5,2020.2.10,MacIntel,60,61025ae37ef11b136ea224fe,,,,,,,,,475,38.87884521,-66.15118408,1,0,0,response3disk,,4,-4.957763672,-4.234863281,1,0,0,rectangle,-4.957763672,-4.234863281,1,0,0,-4.957763672,-4.234863281,1,0,0,0,60,60,133,1,,,,,,,,
,,,,,,,,,,,,,FF,,,,,,,,1.1225,,,,,,,,,,,,,,,,,,,,,,6102285a4cadf6b3a87ed993,61036a4937ab380134ccb6de,2021-07-29_16h56.43.807,Simcolourproject_2stim_asymm_v5,2020.2.10,MacIntel,60,61025ae37ef11b136ea224fe,,,,,,,,,3192,-87.24450684,-85.60443115,1,0,0,response5disk,,2,-9.147033691,-4.366760254,1,0,0,rectangle,-9.147033691,-4.366760254,1,0,0,-9.147033691,-4.366760254,1,0,0,0,61,61,110,1,,,,,,,,
,,,,,,,,,,,,,FF,,,,,,,,1.1051,,,,,,,,,,,,,,,,,,,,,,6102285a4cadf6b3a87ed993,61036a4937ab380134ccb6de,2021-07-29_16h56.43.807,Simcolourproject_2stim_asymm_v5,2020.2.10,MacIntel,60,61025ae37ef11b136ea224fe,,,,,,,,,137,66.09423828,46.38058472,1,0,0,response1disk,,6,-2.196655273,-2.842346191,1,0,0,rectangle,-2.196655273,-2.842346191,1,0,0,-2.196655273,-2.842346191,1,0,0,0,62,62,80,1,,,,,,,,
,,,,,,,,,,,,,FF,,,,,,,,1.7094,,,,,,,,,,,,,,,,,,,,,,6102285a4cadf6b3a87ed993,61036a4937ab380134ccb6de,2021-07-29_16h56.43.807,Simcolourproject_2stim_asymm_v5,2020.2.10,MacIntel,60,61025ae37ef11b136ea224fe,,,,,,,,,3171,46.80065918,-89.87463379,1,0,0,response3disk,,4,-1.877746582,9.434509277,1,0,0,rectangle,-1.877746582,9.434509277,1,0,0,-1.877746582,9.434509277,1,0,0,0,63,63,15,1,,,,,,,,
,,,,,,,,,,,,,FF,,,,,,,,1.8384,,,,,,,,,,,,,,,,,,,,,,6102285a4cadf6b3a87ed993,61036a4937ab380134ccb6de,2021-07-29_16h56.43.807,Simcolourproject_2stim_asymm_v5,2020.2.10,MacIntel,60,61025ae37ef11b136ea224fe,,,,,,,,,3016,41.93792725,78.01351929,1,0,0,response1disk,,7,5.463745117,17.57855225,1,0,0,rectangle,5.463745117,17.57855225,1,0,0,5.463745117,17.57855225,1,0,0,0,64,64,72,1,,,,,,,,
,,,,,,,,,,,,,FF,,,,,,,,1.1301,,,,,,,,,,,,,,,,,,,,,,6102285a4cadf6b3a87ed993,61036a4937ab380134ccb6de,2021-07-29_16h56.43.807,Simcolourproject_2stim_asymm_v5,2020.2.10,MacIntel,60,61025ae37ef11b136ea224fe,,,,,,,,,3084,85.05230713,-33.3916626,1,0,0,response3disk,,5,5.922424316,-7.044921875,1,0,0,rectangle,5.922424316,-7.044921875,1,0,0,5.922424316,-7.044921875,1,0,0,0,65,65,58,1,,,,,,,,
,,,,,,,,,,,,,FF,,,,,,,,0.8527,,,,,,,,,,,,,,,,,,,,,,6102285a4cadf6b3a87ed993,61036a4937ab380134ccb6de,2021-07-29_16h56.43.807,Simcolourproject_2stim_asymm_v5,2020.2.10,MacIntel,60,61025ae37ef11b136ea224fe,,,,,,,,,3010,37.83947754,-69.93029785,1,0,0,response3disk,,4,2.77557373,-2.169677734,1,0,0,rectangle,2.77557373,-2.169677734,1,0,0,2.77557373,-2.169677734,1,0,0,0,66,66,43,1,,,,,,,,
,,,,,,,,,,,,,FF,,,,,,,,0.9014,,,,,,,,,,,,,,,,,,,,,,6102285a4cadf6b3a87ed993,61036a4937ab380134ccb6de,2021-07-29_16h56.43.807,Simcolourproject_2stim_asymm_v5,2020.2.10,MacIntel,60,61025ae37ef11b136ea224fe,,,,,,,,,3039,-85.20166016,-46.14550781,1,0,0,response5disk,,2,-2.700195313,-1.817077637,1,0,0,rectangle,-2.700195313,-1.817077637,1,0,0,-2.700195313,-1.817077637,1,0,0,0,67,67,150,1,,,,,,,,
,,,,,,,,,,,,,FF,,,,,,,,0.9056,,,,,,,,,,,,,,,,,,,,,,6102285a4cadf6b3a87ed993,61036a4937ab380134ccb6de,2021-07-29_16h56.43.807,Simcolourproject_2stim_asymm_v5,2020.2.10,MacIntel,60,61025ae37ef11b136ea224fe,,,,,,,,,2207,79.50183105,-38.50146484,1,0,0,response3disk,,5,-15.30151367,-1.469909668,1,0,0,rectangle,-15.30151367,-1.469909668,1,0,0,-15.30151367,-1.469909668,1,0,0,0,68,68,32,1,,,,,,,,
,,,,,,,,,,,,,FF,,,,,,,,1.1472,,,,,,,,,,,,,,,,,,,,,,6102285a4cadf6b3a87ed993,61036a4937ab380134ccb6de,2021-07-29_16h56.43.807,Simcolourproject_2stim_asymm_v5,2020.2.10,MacIntel,60,61025ae37ef11b136ea224fe,,,,,,,,,329,55.11254883,-42.22961426,1,0,0,response3disk,,5,4.32635498,5.5,1,0,0,rectangle,4.32635498,5.5,1,0,0,4.32635498,5.5,1,0,0,0,69,69,42,1,,,,,,,,
,,,,,,,,,,,,,FF,,,,,,,,1.5958,,,,,,,,,,,,,,,,,,,,,,6102285a4cadf6b3a87ed993,61036a4937ab380134ccb6de,2021-07-29_16h56.43.807,Simcolourproject_2stim_asymm_v5,2020.2.10,MacIntel,60,61025ae37ef11b136ea224fe,,,,,,,,,399,34.03765869,65.66290283,1,0,0,response1disk,,7,2.095703125,3.980529785,1,0,0,rectangle,2.095703125,3.980529785,1,0,0,2.095703125,3.980529785,1,0,0,0,70,70,135,1,,,,,,,,
,,,,,,,,,,,,,FF,,,,,,,,0.8654,,,,,,,,,,,,,,,,,,,,,,6102285a4cadf6b3a87ed993,61036a4937ab380134ccb6de,2021-07-29_16h56.43.807,Simcolourproject_2stim_asymm_v5,2020.2.10,MacIntel,60,61025ae37ef11b136ea224fe,,,,,,,,,888,-90.7744751,-58.5088501,1,0,0,response5disk,,2,6.108032227,2.738891602,1,0,0,rectangle,6.108032227,2.738891602,1,0,0,6.108032227,2.738891602,1,0,0,0,71,71,152,1,,,,,,,,
,,,,,,,,,,,,,FF,,,,,,,,1.0981,,,,,,,,,,,,,,,,,,,,,,6102285a4cadf6b3a87ed993,61036a4937ab380134ccb6de,2021-07-29_16h56.43.807,Simcolourproject_2stim_asymm_v5,2020.2.10,MacIntel,60,61025ae37ef11b136ea224fe,,,,,,,,,2223,-46.72375488,-94.49053955,1,0,0,response5disk,,3,-10.78857422,-0.781799316,1,0,0,rectangle,-10.78857422,-0.781799316,1,0,0,-10.78857422,-0.781799316,1,0,0,0,72,72,155,1,,,,,,,,
,,,,,,,,,,,,,FF,,,,,,,,0.9007,,,,,,,,,,,,,,,,,,,,,,6102285a4cadf6b3a87ed993,61036a4937ab380134ccb6de,2021-07-29_16h56.43.807,Simcolourproject_2stim_asymm_v5,2020.2.10,MacIntel,60,61025ae37ef11b136ea224fe,,,,,,,,,2087,-27.2142334,-86.06414795,1,0,0,response5disk,,3,-13.89630127,-3.956665039,1,0,0,rectangle,-13.89630127,-3.956665039,1,0,0,-13.89630127,-3.956665039,1,0,0,0,73,73,28,1,,,,,,,,
,,,,,,,,,,,,,FF,,,,,,,,1.301,,,,,,,,,,,,,,,,,,,,,,6102285a4cadf6b3a87ed993,61036a4937ab380134ccb6de,2021-07-29_16h56.43.807,Simcolourproject_2stim_asymm_v5,2020.2.10,MacIntel,60,61025ae37ef11b136ea224fe,,,,,,,,,3515,-88.31060791,-52.87249756,1,0,0,response5disk,,2,-5.573913574,5.694091797,1,0,0,rectangle,-5.573913574,5.694091797,1,0,0,-5.573913574,5.694091797,1,0,0,0,74,74,25,1,,,,,,,,
,,,,,,,,,,,,,FF,,,,,,,,2.2995,,,,,,,,,,,,,,,,,,,,,,6102285a4cadf6b3a87ed993,61036a4937ab380134ccb6de,2021-07-29_16h56.43.807,Simcolourproject_2stim_asymm_v5,2020.2.10,MacIntel,60,61025ae37ef11b136ea224fe,,,,,,,,,2125,68.99719238,-39.28503418,1,0,0,response3disk,,5,8.60546875,3.852783203,1,0,0,rectangle,8.60546875,3.852783203,1,0,0,8.60546875,3.852783203,1,0,0,0,75,75,117,1,,,,,,,,
,,,,,,,,,,,,,FF,,,,,,,,0.9559,,,,,,,,,,,,,,,,,,,,,,6102285a4cadf6b3a87ed993,61036a4937ab380134ccb6de,2021-07-29_16h56.43.807,Simcolourproject_2stim_asymm_v5,2020.2.10,MacIntel,60,61025ae37ef11b136ea224fe,,,,,,,,,2700,62.13012695,-43.59729004,1,0,0,response3disk,,5,-15.38500977,-5.995727539,1,0,0,rectangle,-15.38500977,-5.995727539,1,0,0,-15.38500977,-5.995727539,1,0,0,0,76,76,31,1,,,,,,,,
,,,,,,,,,,,,,FF,,,,,,,,1.9419,,,,,,,,,,,,,,,,,,,,,,6102285a4cadf6b3a87ed993,61036a4937ab380134ccb6de,2021-07-29_16h56.43.807,Simcolourproject_2stim_asymm_v5,2020.2.10,MacIntel,60,61025ae37ef11b136ea224fe,,,,,,,,,1420,51.57470703,-99.23040771,1,0,0,response3disk,,4,-14.5279541,2.079956055,1,0,0,rectangle,-14.5279541,2.079956055,1,0,0,-14.5279541,2.079956055,1,0,0,0,77,77,156,1,,,,,,,,
,,,,,,,,,,,,,FF,,,,,,,,1.0652,,,,,,,,,,,,,,,,,,,,,,6102285a4cadf6b3a87ed993,61036a4937ab380134ccb6de,2021-07-29_16h56.43.807,Simcolourproject_2stim_asymm_v5,2020.2.10,MacIntel,60,61025ae37ef11b136ea224fe,,,,,,,,,3099,-91.5760498,29.70532227,1,0,0,response7disk,,1,0.482666016,13.91870117,1,0,0,rectangle,0.482666016,13.91870117,1,0,0,0.482666016,13.91870117,1,0,0,0,78,78,109,1,,,,,,,,
,,,,,,,,,,,,,FF,,,,,,,,1.5186,,,,,,,,,,,,,,,,,,,,,,6102285a4cadf6b3a87ed993,61036a4937ab380134ccb6de,2021-07-29_16h56.43.807,Simcolourproject_2stim_asymm_v5,2020.2.10,MacIntel,60,61025ae37ef11b136ea224fe,,,,,,,,,123,74.45727539,-37.78637695,1,0,0,response3disk,,5,20.79736328,-3.008178711,1,0,0,rectangle,20.79736328,-3.008178711,1,0,0,20.79736328,-3.008178711,1,0,0,0,79,79,11,1,,,,,,,,
,,,,,,,,,,,,,FF,,,,,,,,0.8246,,,,,,,,,,,,,,,,,,,,,,6102285a4cadf6b3a87ed993,61036a4937ab380134ccb6de,2021-07-29_16h56.43.807,Simcolourproject_2stim_asymm_v5,2020.2.10,MacIntel,60,61025ae37ef11b136ea224fe,,,,,,,,,3907,-81.94604492,33.64660645,1,0,0,response7disk,,1,-4.544494629,3.133789063,1,0,0,rectangle,-4.544494629,3.133789063,1,0,0,-4.544494629,3.133789063,1,0,0,0,80,80,29,1,,,,,,,,
,,,,,,,,,,,,,FF,,,,,,,,2.5337,,,,,,,,,,,,,,,,,,,,,,6102285a4cadf6b3a87ed993,61036a4937ab380134ccb6de,2021-07-29_16h56.43.807,Simcolourproject_2stim_asymm_v5,2020.2.10,MacIntel,60,61025ae37ef11b136ea224fe,,,,,,,,,2548,48.81994629,-102.5726929,1,0,0,response3disk,,4,-2.697387695,19.06048584,1,0,0,rectangle,-2.697387695,19.06048584,1,0,0,-2.697387695,19.06048584,1,0,0,0,81,81,34,1,,,,,,,,
,,,,,,,,,,,,,FF,,,,,,,,1.287,,,,,,,,,,,,,,,,,,,,,,6102285a4cadf6b3a87ed993,61036a4937ab380134ccb6de,2021-07-29_16h56.43.807,Simcolourproject_2stim_asymm_v5,2020.2.10,MacIntel,60,61025ae37ef11b136ea224fe,,,,,,,,,2922,41.90155029,83.99832153,1,0,0,response1disk,,7,8.33782959,14.90887451,1,0,0,rectangle,8.33782959,14.90887451,1,0,0,8.33782959,14.90887451,1,0,0,0,82,82,66,1,,,,,,,,
,,,,,,,,,,,,,FF,,,,,,,,0.996,,,,,,,,,,,,,,,,,,,,,,6102285a4cadf6b3a87ed993,61036a4937ab380134ccb6de,2021-07-29_16h56.43.807,Simcolourproject_2stim_asymm_v5,2020.2.10,MacIntel,60,61025ae37ef11b136ea224fe,,,,,,,,,3516,-83.24487305,-33.60089111,1,0,0,response5disk,,2,4.737548828,-0.612854004,1,0,0,rectangle,4.737548828,-0.612854004,1,0,0,4.737548828,-0.612854004,1,0,0,0,83,83,70,1,,,,,,,,
,,,,,,,,,,,,,FF,,,,,,,,2.079,,,,,,,,,,,,,,,,,,,,,,6102285a4cadf6b3a87ed993,61036a4937ab380134ccb6de,2021-07-29_16h56.43.807,Simcolourproject_2stim_asymm_v5,2020.2.10,MacIntel,60,61025ae37ef11b136ea224fe,,,,,,,,,2749,72.14074707,-39.01837158,1,0,0,response3disk,,5,1.618286133,-9.818237305,1,0,0,rectangle,1.618286133,-9.818237305,1,0,0,1.618286133,-9.818237305,1,0,0,0,84,84,55,1,,,,,,,,
,,,,,,,,,,,,,FF,,,,,,,,1.1001,,,,,,,,,,,,,,,,,,,,,,6102285a4cadf6b3a87ed993,61036a4937ab380134ccb6de,2021-07-29_16h56.43.807,Simcolourproject_2stim_asymm_v5,2020.2.10,MacIntel,60,61025ae37ef11b136ea224fe,,,,,,,,,4044,-50.54174805,-69.40106201,1,0,0,response5disk,,3,-6.746887207,1.084716797,1,0,0,rectangle,-6.746887207,1.084716797,1,0,0,-6.746887207,1.084716797,1,0,0,0,85,85,90,1,,,,,,,,
,,,,,,,,,,,,,FF,,,,,,,,0.9156,,,,,,,,,,,,,,,,,,,,,,6102285a4cadf6b3a87ed993,61036a4937ab380134ccb6de,2021-07-29_16h56.43.807,Simcolourproject_2stim_asymm_v5,2020.2.10,MacIntel,60,61025ae37ef11b136ea224fe,,,,,,,,,2986,-45.81567383,59.97381592,1,0,0,response7disk,,0,-14.54608154,-2.120727539,1,0,0,rectangle,-14.54608154,-2.120727539,1,0,0,-14.54608154,-2.120727539,1,0,0,0,86,86,100,1,,,,,,,,
,,,,,,,,,,,,,FF,,,,,,,,1.2718,,,,,,,,,,,,,,,,,,,,,,6102285a4cadf6b3a87ed993,61036a4937ab380134ccb6de,2021-07-29_16h56.43.807,Simcolourproject_2stim_asymm_v5,2020.2.10,MacIntel,60,61025ae37ef11b136ea224fe,,,,,,,,,2659,-52.92126465,-94.07965088,1,0,0,response5disk,,3,-4.779296875,2.114746094,1,0,0,rectangle,-50.14318848,108.6658936,1,0,0,-1.140258789,-8.161071777,1,0,0,0,87,87,74,1,,response7disk_3,TRUE,0,0,"[42,154,58,243,88,60,313,38,194,317,60,27,100,321,3,238,280,137,288,312]",1.3131,rectangle
,,,,,,,,,,,,,FF,,,,,,,,2.5992,,,,,,,,,,,,,,,,,,,,,,6102285a4cadf6b3a87ed993,61036a4937ab380134ccb6de,2021-07-29_16h56.43.807,Simcolourproject_2stim_asymm_v5,2020.2.10,MacIntel,60,61025ae37ef11b136ea224fe,,,,,,,,,1101,62.5892334,-100.7285156,1,0,0,response3disk,,4,1.63671875,-2.518066406,1,0,0,rectangle,1.63671875,-2.518066406,1,0,0,1.63671875,-2.518066406,1,0,0,0,88,88,8,1,,,,,,,,
,,,,,,,,,,,,,FF,,,,,,,,1.2615,,,,,,,,,,,,,,,,,,,,,,6102285a4cadf6b3a87ed993,61036a4937ab380134ccb6de,2021-07-29_16h56.43.807,Simcolourproject_2stim_asymm_v5,2020.2.10,MacIntel,60,61025ae37ef11b136ea224fe,,,,,,,,,3085,77.88586426,42.0592041,1,0,0,response1disk,,6,-10.64727783,-5.409973145,1,0,0,rectangle,-10.64727783,-5.409973145,1,0,0,-10.64727783,-5.409973145,1,0,0,0,89,89,131,1,,,,,,,,
,,,,,,,,,,,,,FF,,,,,,,,1.4384,,,,,,,,,,,,,,,,,,,,,,6102285a4cadf6b3a87ed993,61036a4937ab380134ccb6de,2021-07-29_16h56.43.807,Simcolourproject_2stim_asymm_v5,2020.2.10,MacIntel,60,61025ae37ef11b136ea224fe,,,,,,,,,4126,72.98565674,-34.81207275,1,0,0,response3disk,,5,-7.007568359,-3.51373291,1,0,0,rectangle,-7.007568359,-3.51373291,1,0,0,-7.007568359,-3.51373291,1,0,0,0,90,90,145,1,,,,,,,,
,,,,,,,,,,,,,FF,,,,,,,,1.3857,,,,,,,,,,,,,,,,,,,,,,6102285a4cadf6b3a87ed993,61036a4937ab380134ccb6de,2021-07-29_16h56.43.807,Simcolourproject_2stim_asymm_v5,2020.2.10,MacIntel,60,61025ae37ef11b136ea224fe,,,,,,,,,3127,77.28881836,32.3303833,1,0,0,response1disk,,6,-0.013061523,-5.397949219,1,0,0,rectangle,-0.013061523,-5.397949219,1,0,0,-0.013061523,-5.397949219,1,0,0,0,91,91,116,1,,,,,,,,
,,,,,,,,,,,,,FF,,,,,,,,1.3871,,,,,,,,,,,,,,,,,,,,,,6102285a4cadf6b3a87ed993,61036a4937ab380134ccb6de,2021-07-29_16h56.43.807,Simcolourproject_2stim_asymm_v5,2020.2.10,MacIntel,60,61025ae37ef11b136ea224fe,,,,,,,,,2127,74.34643555,40.19696045,1,0,0,response1disk,,6,5.743164063,2.245849609,1,0,0,rectangle,5.743164063,2.245849609,1,0,0,5.743164063,2.245849609,1,0,0,0,92,92,6,1,,,,,,,,
,,,,,,,,,,,,,FF,,,,,,,,0.8791,,,,,,,,,,,,,,,,,,,,,,6102285a4cadf6b3a87ed993,61036a4937ab380134ccb6de,2021-07-29_16h56.43.807,Simcolourproject_2stim_asymm_v5,2020.2.10,MacIntel,60,61025ae37ef11b136ea224fe,,,,,,,,,4305,-90.64111328,33.48651123,1,0,0,response7disk,,1,10.34454346,2.108520508,1,0,0,rectangle,10.34454346,2.108520508,1,0,0,10.34454346,2.108520508,1,0,0,0,93,93,114,1,,,,,,,,
,,,,,,,,,,,,,FF,,,,,,,,0.8162,,,,,,,,,,,,,,,,,,,,,,6102285a4cadf6b3a87ed993,61036a4937ab380134ccb6de,2021-07-29_16h56.43.807,Simcolourproject_2stim_asymm_v5,2020.2.10,MacIntel,60,61025ae37ef11b136ea224fe,,,,,,,,,3748,-48.45623779,64.58944702,1,0,0,response7disk,,0,16.24963379,2.536499023,1,0,0,rectangle,16.24963379,2.536499023,1,0,0,16.24963379,2.536499023,1,0,0,0,94,94,148,1,,,,,,,,
,,,,,,,,,,,,,FF,,,,,,,,0.9148,,,,,,,,,,,,,,,,,,,,,,6102285a4cadf6b3a87ed993,61036a4937ab380134ccb6de,2021-07-29_16h56.43.807,Simcolourproject_2stim_asymm_v5,2020.2.10,MacIntel,60,61025ae37ef11b136ea224fe,,,,,,,,,2202,79.14575195,-54.68737793,1,0,0,response3disk,,5,13.58331299,-2.138916016,1,0,0,rectangle,13.58331299,-2.138916016,1,0,0,13.58331299,-2.138916016,1,0,0,0,95,95,18,1,,,,,,,,
,,,,,,,,,,,,,FF,,,,,,,,1.148,,,,,,,,,,,,,,,,,,,,,,6102285a4cadf6b3a87ed993,61036a4937ab380134ccb6de,2021-07-29_16h56.43.807,Simcolourproject_2stim_asymm_v5,2020.2.10,MacIntel,60,61025ae37ef11b136ea224fe,,,,,,,,,1904,-65.38592529,-93.57409668,1,0,0,response5disk,,3,-1.790405273,1.898254395,1,0,0,rectangle,-1.790405273,1.898254395,1,0,0,-1.790405273,1.898254395,1,0,0,0,96,96,65,1,,,,,,,,
,,,,,,,,,,,,,FF,,,,,,,,0.8124,,,,,,,,,,,,,,,,,,,,,,6102285a4cadf6b3a87ed993,61036a4937ab380134ccb6de,2021-07-29_16h56.43.807,Simcolourproject_2stim_asymm_v5,2020.2.10,MacIntel,60,61025ae37ef11b136ea224fe,,,,,,,,,1151,-39.40441895,-67.56481934,1,0,0,response5disk,,3,-18.65203857,-2.549438477,1,0,0,rectangle,-18.65203857,-2.549438477,1,0,0,-18.65203857,-2.549438477,1,0,0,0,97,97,129,1,,,,,,,,
,,,,,,,,,,,,,FF,,,,,,,,0.9753,,,,,,,,,,,,,,,,,,,,,,6102285a4cadf6b3a87ed993,61036a4937ab380134ccb6de,2021-07-29_16h56.43.807,Simcolourproject_2stim_asymm_v5,2020.2.10,MacIntel,60,61025ae37ef11b136ea224fe,,,,,,,,,595,83.66955566,-46.63763428,1,0,0,response3disk,,5,-0.211547852,-12.09973145,1,0,0,rectangle,-0.211547852,-12.09973145,1,0,0,-0.211547852,-12.09973145,1,0,0,0,98,98,36,1,,,,,,,,
,,,,,,,,,,,,,FF,,,,,,,,1.0503,,,,,,,,,,,,,,,,,,,,,,6102285a4cadf6b3a87ed993,61036a4937ab380134ccb6de,2021-07-29_16h56.43.807,Simcolourproject_2stim_asymm_v5,2020.2.10,MacIntel,60,61025ae37ef11b136ea224fe,,,,,,,,,539,66.49078369,39.63934326,1,0,0,response1disk,,6,-13.26702881,-7.150146484,1,0,0,rectangle,28.51708984,-100.0740967,1,0,0,-11.50628662,-2.450073242,1,0,0,0,99,99,106,1,,response3disk_3,TRUE,4,4,"[42,154,58,243,88,60,313,38,194,317,60,27,100,321,3,238,280,137,288,312]",2.0597,rectangle
,,,,,,,,,,,,,FF,,,,,,,,1.1496,,,,,,,,,,,,,,,,,,,,,,6102285a4cadf6b3a87ed993,61036a4937ab380134ccb6de,2021-07-29_16h56.43.807,Simcolourproject_2stim_asymm_v5,2020.2.10,MacIntel,60,61025ae37ef11b136ea224fe,,,,,,,,,3946,-67.98474121,-41.06378174,1,0,0,response5disk,,2,2.987243652,-11.7444458,1,0,0,rectangle,2.987243652,-11.7444458,1,0,0,2.987243652,-11.7444458,1,0,0,0,100,100,121,1,,,,,,,,
,,,,,,,,,,,,,FF,,,,,,,,4.3626,,,,,,,,,,,,,,,,,,,,,,6102285a4cadf6b3a87ed993,61036a4937ab380134ccb6de,2021-07-29_16h56.43.807,Simcolourproject_2stim_asymm_v5,2020.2.10,MacIntel,60,61025ae37ef11b136ea224fe,,,,,,,,,2949,50.53515625,-100.5778809,1,0,0,response3disk,,4,4.273254395,-4.850524902,1,0,0,rectangle,4.273254395,-4.850524902,1,0,0,4.273254395,-4.850524902,1,0,0,0,101,101,61,1,,,,,,,,
,,,,,,,,,,,,,FF,,,,,,,,0.717,,,,,,,,,,,,,,,,,,,,,,6102285a4cadf6b3a87ed993,61036a4937ab380134ccb6de,2021-07-29_16h56.43.807,Simcolourproject_2stim_asymm_v5,2020.2.10,MacIntel,60,61025ae37ef11b136ea224fe,,,,,,,,,1862,50.85974121,-76.29199219,1,0,0,response3disk,,4,13.53222656,-1.773620605,1,0,0,rectangle,13.53222656,-1.773620605,1,0,0,13.53222656,-1.773620605,1,0,0,0,102,102,7,1,,,,,,,,
,,,,,,,,,,,,,FF,,,,,,,,0.8789,,,,,,,,,,,,,,,,,,,,,,6102285a4cadf6b3a87ed993,61036a4937ab380134ccb6de,2021-07-29_16h56.43.807,Simcolourproject_2stim_asymm_v5,2020.2.10,MacIntel,60,61025ae37ef11b136ea224fe,,,,,,,,,2558,72.92114258,32.03857422,1,0,0,response1disk,,6,-29.05523682,-13.06213379,1,0,0,rectangle,-29.05523682,-13.06213379,1,0,0,-29.05523682,-13.06213379,1,0,0,0,103,103,62,1,,,,,,,,
,,,,,,,,,,,,,FF,,,,,,,,0.7675,,,,,,,,,,,,,,,,,,,,,,6102285a4cadf6b3a87ed993,61036a4937ab380134ccb6de,2021-07-29_16h56.43.807,Simcolourproject_2stim_asymm_v5,2020.2.10,MacIntel,60,61025ae37ef11b136ea224fe,,,,,,,,,1714,60.18273926,48.6050415,1,0,0,response1disk,,6,2.487792969,1.765441895,1,0,0,rectangle,2.487792969,1.765441895,1,0,0,2.487792969,1.765441895,1,0,0,0,104,104,16,1,,,,,,,,
,,,,,,,,,,,,,FF,,,,,,,,0.7044,,,,,,,,,,,,,,,,,,,,,,6102285a4cadf6b3a87ed993,61036a4937ab380134ccb6de,2021-07-29_16h56.43.807,Simcolourproject_2stim_asymm_v5,2020.2.10,MacIntel,60,61025ae37ef11b136ea224fe,,,,,,,,,3113,-73.56402588,-87.1630249,1,0,0,response5disk,,3,-26.77752686,-14.72161865,1,0,0,rectangle,-26.77752686,-14.72161865,1,0,0,-26.77752686,-14.72161865,1,0,0,0,105,105,111,1,,,,,,,,
,,,,,,,,,,,,,FF,,,,,,,,1.1122,,,,,,,,,,,,,,,,,,,,,,6102285a4cadf6b3a87ed993,61036a4937ab380134ccb6de,2021-07-29_16h56.43.807,Simcolourproject_2stim_asymm_v5,2020.2.10,MacIntel,60,61025ae37ef11b136ea224fe,,,,,,,,,1133,26.10552979,-77.57550049,1,0,0,response3disk,,4,-16.6907959,-2.102539063,1,0,0,rectangle,-16.6907959,-2.102539063,1,0,0,-16.6907959,-2.102539063,1,0,0,0,106,106,125,1,,,,,,,,
,,,,,,,,,,,,,FF,,,,,,,,0.9958,,,,,,,,,,,,,,,,,,,,,,6102285a4cadf6b3a87ed993,61036a4937ab380134ccb6de,2021-07-29_16h56.43.807,Simcolourproject_2stim_asymm_v5,2020.2.10,MacIntel,60,61025ae37ef11b136ea224fe,,,,,,,,,3523,34.16650391,-73.31109619,1,0,0,response3disk,,4,0.18170166,-4.147338867,1,0,0,rectangle,0.18170166,-4.147338867,1,0,0,0.18170166,-4.147338867,1,0,0,0,107,107,39,1,,,,,,,,
,,,,,,,,,,,,,FF,,,,,,,,1.1718,,,,,,,,,,,,,,,,,,,,,,6102285a4cadf6b3a87ed993,61036a4937ab380134ccb6de,2021-07-29_16h56.43.807,Simcolourproject_2stim_asymm_v5,2020.2.10,MacIntel,60,61025ae37ef11b136ea224fe,,,,,,,,,3044,58.05371094,75.9503479,1,0,0,response1disk,,7,7.312133789,0.342834473,1,0,0,rectangle,7.312133789,0.342834473,1,0,0,7.312133789,0.342834473,1,0,0,0,108,108,113,1,,,,,,,,
,,,,,,,,,,,,,FF,,,,,,,,0.931,,,,,,,,,,,,,,,,,,,,,,6102285a4cadf6b3a87ed993,61036a4937ab380134ccb6de,2021-07-29_16h56.43.807,Simcolourproject_2stim_asymm_v5,2020.2.10,MacIntel,60,61025ae37ef11b136ea224fe,,,,,,,,,951,-49.29296875,-93.81762695,1,0,0,response5disk,,3,-13.13769531,-7.882385254,1,0,0,rectangle,-13.13769531,-7.882385254,1,0,0,-13.13769531,-7.882385254,1,0,0,0,109,109,144,1,,,,,,,,
,,,,,,,,,,,,,FF,,,,,,,,1.7376,,,,,,,,,,,,,,,,,,,,,,6102285a4cadf6b3a87ed993,61036a4937ab380134ccb6de,2021-07-29_16h56.43.807,Simcolourproject_2stim_asymm_v5,2020.2.10,MacIntel,60,61025ae37ef11b136ea224fe,,,,,,,,,3018,82.47442627,-32.93164063,1,0,0,response3disk,,5,18.11132813,0.088623047,1,0,0,rectangle,18.11132813,0.088623047,1,0,0,18.11132813,0.088623047,1,0,0,0,110,110,105,1,,,,,,,,
,,,,,,,,,,,,,FF,,,,,,,,0.6332,,,,,,,,,,,,,,,,,,,,,,6102285a4cadf6b3a87ed993,61036a4937ab380134ccb6de,2021-07-29_16h56.43.807,Simcolourproject_2stim_asymm_v5,2020.2.10,MacIntel,60,61025ae37ef11b136ea224fe,,,,,,,,,490,79.8269043,37.16455078,1,0,0,response1disk,,6,-8.837585449,-5.426757813,1,0,0,rectangle,-8.837585449,-5.426757813,1,0,0,-8.837585449,-5.426757813,1,0,0,0,111,111,134,1,,,,,,,,
,,,,,,,,,,,,,FF,,,,,,,,0.7831,,,,,,,,,,,,,,,,,,,,,,6102285a4cadf6b3a87ed993,61036a4937ab380134ccb6de,2021-07-29_16h56.43.807,Simcolourproject_2stim_asymm_v5,2020.2.10,MacIntel,60,61025ae37ef11b136ea224fe,,,,,,,,,508,61.63867188,33.70568848,1,0,0,response1disk,,6,-8.588378906,-10.59143066,1,0,0,rectangle,-8.588378906,-10.59143066,1,0,0,-8.588378906,-10.59143066,1,0,0,0,112,112,97,1,,,,,,,,
,,,,,,,,,,,,,FF,,,,,,,,0.7662,,,,,,,,,,,,,,,,,,,,,,6102285a4cadf6b3a87ed993,61036a4937ab380134ccb6de,2021-07-29_16h56.43.807,Simcolourproject_2stim_asymm_v5,2020.2.10,MacIntel,60,61025ae37ef11b136ea224fe,,,,,,,,,3638,34.43994141,-86.53985596,1,0,0,response3disk,,4,0.217041016,1.329040527,1,0,0,rectangle,0.217041016,1.329040527,1,0,0,0.217041016,1.329040527,1,0,0,0,113,113,51,1,,,,,,,,
,,,,,,,,,,,,,FF,,,,,,,,0.9173,,,,,,,,,,,,,,,,,,,,,,6102285a4cadf6b3a87ed993,61036a4937ab380134ccb6de,2021-07-29_16h56.43.807,Simcolourproject_2stim_asymm_v5,2020.2.10,MacIntel,60,61025ae37ef11b136ea224fe,,,,,,,,,1186,55.71472168,24.12533569,1,0,0,response1disk,,6,5.58782959,-10.36254883,1,0,0,rectangle,5.58782959,-10.36254883,1,0,0,5.58782959,-10.36254883,1,0,0,0,114,114,20,1,,,,,,,,
,,,,,,,,,,,,,FF,,,,,,,,0.9837,,,,,,,,,,,,,,,,,,,,,,6102285a4cadf6b3a87ed993,61036a4937ab380134ccb6de,2021-07-29_16h56.43.807,Simcolourproject_2stim_asymm_v5,2020.2.10,MacIntel,60,61025ae37ef11b136ea224fe,,,,,,,,,3784,-88.11578369,-61.16491699,1,0,0,response5disk,,2,7.352050781,-2.424560547,1,0,0,rectangle,7.352050781,-2.424560547,1,0,0,7.352050781,-2.424560547,1,0,0,0,115,115,13,1,,,,,,,,
,,,,,,,,,,,,,FF,,,,,,,,0.9512,,,,,,,,,,,,,,,,,,,,,,6102285a4cadf6b3a87ed993,61036a4937ab380134ccb6de,2021-07-29_16h56.43.807,Simcolourproject_2stim_asymm_v5,2020.2.10,MacIntel,60,61025ae37ef11b136ea224fe,,,,,,,,,4318,72.58929443,-30.0880127,1,0,0,response3disk,,5,23.27111816,-0.02532959,1,0,0,rectangle,23.27111816,-0.02532959,1,0,0,23.27111816,-0.02532959,1,0,0,0,116,116,10,1,,,,,,,,
,,,,,,,,,,,,,FF,,,,,,,,1.0675,,,,,,,,,,,,,,,,,,,,,,6102285a4cadf6b3a87ed993,61036a4937ab380134ccb6de,2021-07-29_16h56.43.807,Simcolourproject_2stim_asymm_v5,2020.2.10,MacIntel,60,61025ae37ef11b136ea224fe,,,,,,,,,2981,30.82055664,-66.77362061,1,0,0,response3disk,,4,-10.34960938,-0.743164063,1,0,0,rectangle,-10.34960938,-0.743164063,1,0,0,-10.34960938,-0.743164063,1,0,0,0,117,117,69,1,,,,,,,,
,,,,,,,,,,,,,FF,,,,,,,,1.2315,,,,,,,,,,,,,,,,,,,,,,6102285a4cadf6b3a87ed993,61036a4937ab380134ccb6de,2021-07-29_16h56.43.807,Simcolourproject_2stim_asymm_v5,2020.2.10,MacIntel,60,61025ae37ef11b136ea224fe,,,,,,,,,4007,-39.2286377,-61.20184326,1,0,0,response5disk,,3,-16.89337158,-2.355285645,1,0,0,rectangle,-16.89337158,-2.355285645,1,0,0,-16.89337158,-2.355285645,1,0,0,0,118,118,107,1,,,,,,,,
,,,,,,,,,,,,,FF,,,,,,,,1.0532,,,,,,,,,,,,,,,,,,,,,,6102285a4cadf6b3a87ed993,61036a4937ab380134ccb6de,2021-07-29_16h56.43.807,Simcolourproject_2stim_asymm_v5,2020.2.10,MacIntel,60,61025ae37ef11b136ea224fe,,,,,,,,,1619,-81.81658936,-52.80981445,1,0,0,response5disk,,2,-2.640991211,0.285644531,1,0,0,rectangle,-2.640991211,0.285644531,1,0,0,-2.640991211,0.285644531,1,0,0,0,119,119,37,1,,,,,,,,
,,,,,,,,,,,,,FF,,,,,,,,0.8278,,,,,,,,,,,,,,,,,,,,,,6102285a4cadf6b3a87ed993,61036a4937ab380134ccb6de,2021-07-29_16h56.43.807,Simcolourproject_2stim_asymm_v5,2020.2.10,MacIntel,60,61025ae37ef11b136ea224fe,,,,,,,,,4098,-80.61425781,29.77227783,1,0,0,response7disk,,1,6.492736816,6.059570313,1,0,0,rectangle,6.492736816,6.059570313,1,0,0,6.492736816,6.059570313,1,0,0,0,120,120,96,1,,,,,,,,
,,,,,,,,,,,,,FF,,,,,,,,0.8754,,,,,,,,,,,,,,,,,,,,,,6102285a4cadf6b3a87ed993,61036a4937ab380134ccb6de,2021-07-29_16h56.43.807,Simcolourproject_2stim_asymm_v5,2020.2.10,MacIntel,60,61025ae37ef11b136ea224fe,,,,,,,,,278,-68.23461914,27.3994751,1,0,0,response7disk,,1,-14.99987793,16.56091309,1,0,0,rectangle,-14.99987793,16.56091309,1,0,0,-14.99987793,16.56091309,1,0,0,0,121,121,136,1,,,,,,,,
,,,,,,,,,,,,,FF,,,,,,,,0.797,,,,,,,,,,,,,,,,,,,,,,6102285a4cadf6b3a87ed993,61036a4937ab380134ccb6de,2021-07-29_16h56.43.807,Simcolourproject_2stim_asymm_v5,2020.2.10,MacIntel,60,61025ae37ef11b136ea224fe,,,,,,,,,3098,-50.07867432,99.79504395,1,0,0,response7disk,,0,1.198425293,-3.415710449,1,0,0,rectangle,1.198425293,-3.415710449,1,0,0,1.198425293,-3.415710449,1,0,0,0,122,122,122,1,,,,,,,,
,,,,,,,,,,,,,FF,,,,,,,,0.9823,,,,,,,,,,,,,,,,,,,,,,6102285a4cadf6b3a87ed993,61036a4937ab380134ccb6de,2021-07-29_16h56.43.807,Simcolourproject_2stim_asymm_v5,2020.2.10,MacIntel,60,61025ae37ef11b136ea224fe,,,,,,,,,2091,-91.11352539,-56.45178223,1,0,0,response5disk,,2,12.49401855,-0.976501465,1,0,0,rectangle,12.49401855,-0.976501465,1,0,0,12.49401855,-0.976501465,1,0,0,0,123,123,48,1,,,,,,,,
,,,,,,,,,,,,,FF,,,,,,,,1.1601,,,,,,,,,,,,,,,,,,,,,,6102285a4cadf6b3a87ed993,61036a4937ab380134ccb6de,2021-07-29_16h56.43.807,Simcolourproject_2stim_asymm_v5,2020.2.10,MacIntel,60,61025ae37ef11b136ea224fe,,,,,,,,,1844,88.11035156,-48.64367676,1,0,0,response3disk,,5,0.552246094,2.429016113,1,0,0,rectangle,0.552246094,2.429016113,1,0,0,0.552246094,2.429016113,1,0,0,0,124,124,9,1,,,,,,,,
,,,,,,,,,,,,,FF,,,,,,,,0.8849,,,,,,,,,,,,,,,,,,,,,,6102285a4cadf6b3a87ed993,61036a4937ab380134ccb6de,2021-07-29_16h56.43.807,Simcolourproject_2stim_asymm_v5,2020.2.10,MacIntel,60,61025ae37ef11b136ea224fe,,,,,,,,,580,70.07946777,62.73797607,1,0,0,response1disk,,6,-5.049804688,0.717590332,1,0,0,rectangle,-5.049804688,0.717590332,1,0,0,-5.049804688,0.717590332,1,0,0,0,125,125,95,1,,,,,,,,
,,,,,,,,,,,,,FF,,,,,,,,0.8088,,,,,,,,,,,,,,,,,,,,,,6102285a4cadf6b3a87ed993,61036a4937ab380134ccb6de,2021-07-29_16h56.43.807,Simcolourproject_2stim_asymm_v5,2020.2.10,MacIntel,60,61025ae37ef11b136ea224fe,,,,,,,,,3407,72.26257324,39.84375,1,0,0,response1disk,,6,1.558959961,5.992736816,1,0,0,rectangle,1.558959961,5.992736816,1,0,0,1.558959961,5.992736816,1,0,0,0,126,126,146,1,,,,,,,,
,,,,,,,,,,,,,FF,,,,,,,,1.0906,,,,,,,,,,,,,,,,,,,,,,6102285a4cadf6b3a87ed993,61036a4937ab380134ccb6de,2021-07-29_16h56.43.807,Simcolourproject_2stim_asymm_v5,2020.2.10,MacIntel,60,61025ae37ef11b136ea224fe,,,,,,,,,4302,-53.25402832,-91.96813965,1,0,0,response5disk,,3,1.041992188,-12.43151855,1,0,0,rectangle,1.041992188,-12.43151855,1,0,0,1.041992188,-12.43151855,1,0,0,0,127,127,91,1,,,,,,,,
,,,,,,,,,,,,,FF,,,,,,,,0.9948,,,,,,,,,,,,,,,,,,,,,,6102285a4cadf6b3a87ed993,61036a4937ab380134ccb6de,2021-07-29_16h56.43.807,Simcolourproject_2stim_asymm_v5,2020.2.10,MacIntel,60,61025ae37ef11b136ea224fe,,,,,,,,,1340,80.54333496,-32.43139648,1,0,0,response3disk,,5,-5.853942871,17.90100098,1,0,0,rectangle,-5.853942871,17.90100098,1,0,0,-5.853942871,17.90100098,1,0,0,0,128,128,92,1,,,,,,,,
,,,,,,,,,,,,,FF,,,,,,,,1.0874,,,,,,,,,,,,,,,,,,,,,,6102285a4cadf6b3a87ed993,61036a4937ab380134ccb6de,2021-07-29_16h56.43.807,Simcolourproject_2stim_asymm_v5,2020.2.10,MacIntel,60,61025ae37ef11b136ea224fe,,,,,,,,,4356,-59.02947998,90.81066895,1,0,0,response7disk,,0,-7.184509277,10.70910645,1,0,0,rectangle,-7.184509277,10.70910645,1,0,0,-7.184509277,10.70910645,1,0,0,0,129,129,67,1,,,,,,,,
,,,,,,,,,,,,,FF,,,,,,,,1.2453,,,,,,,,,,,,,,,,,,,,,,6102285a4cadf6b3a87ed993,61036a4937ab380134ccb6de,2021-07-29_16h56.43.807,Simcolourproject_2stim_asymm_v5,2020.2.10,MacIntel,60,61025ae37ef11b136ea224fe,,,,,,,,,2581,52.88134766,86.81378174,1,0,0,response1disk,,7,18.89080811,1.323852539,1,0,0,rectangle,18.89080811,1.323852539,1,0,0,18.89080811,1.323852539,1,0,0,0,130,130,21,1,,,,,,,,
,,,,,,,,,,,,,FF,,,,,,,,1.2883,,,,,,,,,,,,,,,,,,,,,,6102285a4cadf6b3a87ed993,61036a4937ab380134ccb6de,2021-07-29_16h56.43.807,Simcolourproject_2stim_asymm_v5,2020.2.10,MacIntel,60,61025ae37ef11b136ea224fe,,,,,,,,,431,-50.22827148,-87.6786499,1,0,0,response5disk,,3,-5.283325195,-7.257141113,1,0,0,rectangle,-5.283325195,-7.257141113,1,0,0,-5.283325195,-7.257141113,1,0,0,0,131,131,103,1,,,,,,,,
,,,,,,,,,,,,,FF,,,,,,,,1.5164,,,,,,,,,,,,,,,,,,,,,,6102285a4cadf6b3a87ed993,61036a4937ab380134ccb6de,2021-07-29_16h56.43.807,Simcolourproject_2stim_asymm_v5,2020.2.10,MacIntel,60,61025ae37ef11b136ea224fe,,,,,,,,,321,82.52911377,-32.33099365,1,0,0,response3disk,,5,10.7557373,-0.671447754,1,0,0,rectangle,10.7557373,-0.671447754,1,0,0,10.7557373,-0.671447754,1,0,0,0,132,132,1,1,,,,,,,,
,,,,,,,,,,,,,FF,,,,,,,,1.7236,,,,,,,,,,,,,,,,,,,,,,6102285a4cadf6b3a87ed993,61036a4937ab380134ccb6de,2021-07-29_16h56.43.807,Simcolourproject_2stim_asymm_v5,2020.2.10,MacIntel,60,61025ae37ef11b136ea224fe,,,,,,,,,2271,40.9798584,87.86114502,1,0,0,response1disk,,7,14.57318115,1.135620117,1,0,0,rectangle,14.57318115,1.135620117,1,0,0,14.57318115,1.135620117,1,0,0,0,133,133,138,1,,,,,,,,
,,,,,,,,,,,,,FF,,,,,,,,0.9003,,,,,,,,,,,,,,,,,,,,,,6102285a4cadf6b3a87ed993,61036a4937ab380134ccb6de,2021-07-29_16h56.43.807,Simcolourproject_2stim_asymm_v5,2020.2.10,MacIntel,60,61025ae37ef11b136ea224fe,,,,,,,,,2837,-82.10583496,-55.21154785,1,0,0,response5disk,,2,1.598876953,-6.619995117,1,0,0,rectangle,1.598876953,-6.619995117,1,0,0,1.598876953,-6.619995117,1,0,0,0,134,134,27,1,,,,,,,,
,,,,,,,,,,,,,FF,,,,,,,,1.3604,,,,,,,,,,,,,,,,,,,,,,6102285a4cadf6b3a87ed993,61036a4937ab380134ccb6de,2021-07-29_16h56.43.807,Simcolourproject_2stim_asymm_v5,2020.2.10,MacIntel,60,61025ae37ef11b136ea224fe,,,,,,,,,3271,42.37976074,-77.57556152,1,0,0,response3disk,,4,5.204223633,-1.114868164,1,0,0,rectangle,5.204223633,-1.114868164,1,0,0,5.204223633,-1.114868164,1,0,0,0,135,135,124,1,,,,,,,,
,,,,,,,,,,,,,FF,,,,,,,,1.6563,,,,,,,,,,,,,,,,,,,,,,6102285a4cadf6b3a87ed993,61036a4937ab380134ccb6de,2021-07-29_16h56.43.807,Simcolourproject_2stim_asymm_v5,2020.2.10,MacIntel,60,61025ae37ef11b136ea224fe,,,,,,,,,2295,-102.9658203,20.42944336,1,0,0,response7disk,,1,4.180541992,0.204589844,1,0,0,rectangle,-36.97564697,86.27233887,1,0,0,-17.41369629,-1.615966797,1,0,0,0,136,136,57,1,,response7disk_3,TRUE,0,0,"[42,154,58,243,88,60,313,38,194,317,60,27,100,321,3,238,280,137,288,312]",1.6062,rectangle
,,,,,,,,,,,,,FF,,,,,,,,0.8321,,,,,,,,,,,,,,,,,,,,,,6102285a4cadf6b3a87ed993,61036a4937ab380134ccb6de,2021-07-29_16h56.43.807,Simcolourproject_2stim_asymm_v5,2020.2.10,MacIntel,60,61025ae37ef11b136ea224fe,,,,,,,,,3445,-32.72332764,-85.59454346,1,0,0,response5disk,,3,3.99987793,-13.62878418,1,0,0,rectangle,3.99987793,-13.62878418,1,0,0,3.99987793,-13.62878418,1,0,0,0,137,137,93,1,,,,,,,,
,,,,,,,,,,,,,FF,,,,,,,,0.8409,,,,,,,,,,,,,,,,,,,,,,6102285a4cadf6b3a87ed993,61036a4937ab380134ccb6de,2021-07-29_16h56.43.807,Simcolourproject_2stim_asymm_v5,2020.2.10,MacIntel,60,61025ae37ef11b136ea224fe,,,,,,,,,445,-95.40325928,53.10968018,1,0,0,response7disk,,1,-7.899719238,8.893920898,1,0,0,rectangle,-7.899719238,8.893920898,1,0,0,-7.899719238,8.893920898,1,0,0,0,138,138,83,1,,,,,,,,
,,,,,,,,,,,,,FF,,,,,,,,1.0393,,,,,,,,,,,,,,,,,,,,,,6102285a4cadf6b3a87ed993,61036a4937ab380134ccb6de,2021-07-29_16h56.43.807,Simcolourproject_2stim_asymm_v5,2020.2.10,MacIntel,60,61025ae37ef11b136ea224fe,,,,,,,,,3905,-29.91333008,-71.22424316,1,0,0,response5disk,,3,-4.621887207,-4.585449219,1,0,0,rectangle,-4.621887207,-4.585449219,1,0,0,-4.621887207,-4.585449219,1,0,0,0,139,139,132,1,,,,,,,,
,,,,,,,,,,,,,FF,,,,,,,,0.8322,,,,,,,,,,,,,,,,,,,,,,6102285a4cadf6b3a87ed993,61036a4937ab380134ccb6de,2021-07-29_16h56.43.807,Simcolourproject_2stim_asymm_v5,2020.2.10,MacIntel,60,61025ae37ef11b136ea224fe,,,,,,,,,3250,-77.76300049,29.66253662,1,0,0,response7disk,,1,-2.276123047,4.482543945,1,0,0,rectangle,-2.276123047,4.482543945,1,0,0,-2.276123047,4.482543945,1,0,0,0,140,140,85,1,,,,,,,,
,,,,,,,,,,,,,FF,,,,,,,,0.9377,,,,,,,,,,,,,,,,,,,,,,6102285a4cadf6b3a87ed993,61036a4937ab380134ccb6de,2021-07-29_16h56.43.807,Simcolourproject_2stim_asymm_v5,2020.2.10,MacIntel,60,61025ae37ef11b136ea224fe,,,,,,,,,2708,82.16784668,-34.67437744,1,0,0,response3disk,,5,-0.569030762,0.504394531,1,0,0,rectangle,-0.569030762,0.504394531,1,0,0,-0.569030762,0.504394531,1,0,0,0,141,141,3,1,,,,,,,,
,,,,,,,,,,,,,FF,,,,,,,,0.8837,,,,,,,,,,,,,,,,,,,,,,6102285a4cadf6b3a87ed993,61036a4937ab380134ccb6de,2021-07-29_16h56.43.807,Simcolourproject_2stim_asymm_v5,2020.2.10,MacIntel,60,61025ae37ef11b136ea224fe,,,,,,,,,1604,-51.00085449,93.93347168,1,0,0,response7disk,,0,-5.91394043,2.528320313,1,0,0,rectangle,-5.91394043,2.528320313,1,0,0,-5.91394043,2.528320313,1,0,0,0,142,142,98,1,,,,,,,,
,,,,,,,,,,,,,FF,,,,,,,,0.7978,,,,,,,,,,,,,,,,,,,,,,6102285a4cadf6b3a87ed993,61036a4937ab380134ccb6de,2021-07-29_16h56.43.807,Simcolourproject_2stim_asymm_v5,2020.2.10,MacIntel,60,61025ae37ef11b136ea224fe,,,,,,,,,1793,-42.61999512,-76.44696045,1,0,0,response5disk,,3,3.326049805,4.367431641,1,0,0,rectangle,3.326049805,4.367431641,1,0,0,3.326049805,4.367431641,1,0,0,0,143,143,159,1,,,,,,,,
,,,,,,,,,,,,,FF,,,,,,,,0.9172,,,,,,,,,,,,,,,,,,,,,,6102285a4cadf6b3a87ed993,61036a4937ab380134ccb6de,2021-07-29_16h56.43.807,Simcolourproject_2stim_asymm_v5,2020.2.10,MacIntel,60,61025ae37ef11b136ea224fe,,,,,,,,,961,84.7109375,49.53619385,1,0,0,response1disk,,6,-15.64245605,4.205810547,1,0,0,rectangle,-15.64245605,4.205810547,1,0,0,-15.64245605,4.205810547,1,0,0,0,144,144,123,1,,,,,,,,
,,,,,,,,,,,,,FF,,,,,,,,1.3038,,,,,,,,,,,,,,,,,,,,,,6102285a4cadf6b3a87ed993,61036a4937ab380134ccb6de,2021-07-29_16h56.43.807,Simcolourproject_2stim_asymm_v5,2020.2.10,MacIntel,60,61025ae37ef11b136ea224fe,,,,,,,,,3992,32.82061768,-82.09771729,1,0,0,response3disk,,4,13.39343262,-8.176269531,1,0,0,rectangle,13.39343262,-8.176269531,1,0,0,13.39343262,-8.176269531,1,0,0,0,145,145,44,1,,,,,,,,
,,,,,,,,,,,,,FF,,,,,,,,0.8726,,,,,,,,,,,,,,,,,,,,,,6102285a4cadf6b3a87ed993,61036a4937ab380134ccb6de,2021-07-29_16h56.43.807,Simcolourproject_2stim_asymm_v5,2020.2.10,MacIntel,60,61025ae37ef11b136ea224fe,,,,,,,,,2747,33.8326416,-64.59649658,1,0,0,response3disk,,4,-0.408325195,5.700012207,1,0,0,rectangle,-0.408325195,5.700012207,1,0,0,-0.408325195,5.700012207,1,0,0,0,146,146,140,1,,,,,,,,
,,,,,,,,,,,,,FF,,,,,,,,0.8444,,,,,,,,,,,,,,,,,,,,,,6102285a4cadf6b3a87ed993,61036a4937ab380134ccb6de,2021-07-29_16h56.43.807,Simcolourproject_2stim_asymm_v5,2020.2.10,MacIntel,60,61025ae37ef11b136ea224fe,,,,,,,,,1511,75.88549805,-45.83740234,1,0,0,response3disk,,5,2.54309082,-7.959777832,1,0,0,rectangle,2.54309082,-7.959777832,1,0,0,2.54309082,-7.959777832,1,0,0,0,147,147,53,1,,,,,,,,
,,,,,,,,,,,,,FF,,,,,,,,1.1417,,,,,,,,,,,,,,,,,,,,,,6102285a4cadf6b3a87ed993,61036a4937ab380134ccb6de,2021-07-29_16h56.43.807,Simcolourproject_2stim_asymm_v5,2020.2.10,MacIntel,60,61025ae37ef11b136ea224fe,,,,,,,,,3482,-65.18884277,-89.9206543,1,0,0,response5disk,,3,-3.700317383,6.879455566,1,0,0,rectangle,-3.700317383,6.879455566,1,0,0,-3.700317383,6.879455566,1,0,0,0,148,148,126,1,,,,,,,,
,,,,,,,,,,,,,FF,,,,,,,,1.1476,,,,,,,,,,,,,,,,,,,,,,6102285a4cadf6b3a87ed993,61036a4937ab380134ccb6de,2021-07-29_16h56.43.807,Simcolourproject_2stim_asymm_v5,2020.2.10,MacIntel,60,61025ae37ef11b136ea224fe,,,,,,,,,3319,54.66601563,-76.22912598,1,0,0,response3disk,,4,-7.729187012,-0.514221191,1,0,0,rectangle,-7.729187012,-0.514221191,1,0,0,-7.729187012,-0.514221191,1,0,0,0,149,149,38,1,,,,,,,,
,,,,,,,,,,,,,FF,,,,,,,,1.4009,,,,,,,,,,,,,,,,,,,,,,6102285a4cadf6b3a87ed993,61036a4937ab380134ccb6de,2021-07-29_16h56.43.807,Simcolourproject_2stim_asymm_v5,2020.2.10,MacIntel,60,61025ae37ef11b136ea224fe,,,,,,,,,4300,40.85925293,-80.21661377,1,0,0,response3disk,,4,-4.169616699,-17.36993408,1,0,0,rectangle,-4.169616699,-17.36993408,1,0,0,-4.169616699,-17.36993408,1,0,0,0,150,150,88,1,,,,,,,,
,,,,,,,,,,,,,FF,,,,,,,,1.1282,,,,,,,,,,,,,,,,,,,,,,6102285a4cadf6b3a87ed993,61036a4937ab380134ccb6de,2021-07-29_16h56.43.807,Simcolourproject_2stim_asymm_v5,2020.2.10,MacIntel,60,61025ae37ef11b136ea224fe,,,,,,,,,819,-46.64459229,-81.16186523,1,0,0,response5disk,,3,-1.331054688,-9.63684082,1,0,0,rectangle,-1.331054688,-9.63684082,1,0,0,-1.331054688,-9.63684082,1,0,0,0,151,151,26,1,,,,,,,,
,,,,,,,,,,,,,FF,,,,,,,,0.8658,,,,,,,,,,,,,,,,,,,,,,6102285a4cadf6b3a87ed993,61036a4937ab380134ccb6de,2021-07-29_16h56.43.807,Simcolourproject_2stim_asymm_v5,2020.2.10,MacIntel,60,61025ae37ef11b136ea224fe,,,,,,,,,3477,-72.00506592,-28.97503662,1,0,0,response5disk,,2,8.963989258,-3.095092773,1,0,0,rectangle,8.963989258,-3.095092773,1,0,0,8.963989258,-3.095092773,1,0,0,0,152,152,76,1,,,,,,,,
,,,,,,,,,,,,,FF,,,,,,,,0.8776,,,,,,,,,,,,,,,,,,,,,,6102285a4cadf6b3a87ed993,61036a4937ab380134ccb6de,2021-07-29_16h56.43.807,Simcolourproject_2stim_asymm_v5,2020.2.10,MacIntel,60,61025ae37ef11b136ea224fe,,,,,,,,,564,-36.97705078,-68.93255615,1,0,0,response5disk,,3,-7.716064453,-2.320068359,1,0,0,rectangle,-40.58044434,-95.3729248,1,0,0,13.41046143,-2.23260498,1,0,0,0,153,153,147,1,,response5disk_3,TRUE,3,3,"[42,154,58,243,88,60,313,38,194,317,60,27,100,321,3,238,280,137,288,312]",2.1395,rectangle
,,,,,,,,,,,,,FF,,,,,,,,1.3137,,,,,,,,,,,,,,,,,,,,,,6102285a4cadf6b3a87ed993,61036a4937ab380134ccb6de,2021-07-29_16h56.43.807,Simcolourproject_2stim_asymm_v5,2020.2.10,MacIntel,60,61025ae37ef11b136ea224fe,,,,,,,,,3740,67.54815674,-31.88079834,1,0,0,response3disk,,5,-6.114135742,-3.029296875,1,0,0,rectangle,-6.114135742,-3.029296875,1,0,0,-6.114135742,-3.029296875,1,0,0,0,154,154,47,1,,,,,,,,
,,,,,,,,,,,,,FF,,,,,,,,0.7007,,,,,,,,,,,,,,,,,,,,,,6102285a4cadf6b3a87ed993,61036a4937ab380134ccb6de,2021-07-29_16h56.43.807,Simcolourproject_2stim_asymm_v5,2020.2.10,MacIntel,60,61025ae37ef11b136ea224fe,,,,,,,,,3260,-47.12158203,-94.06262207,1,0,0,response5disk,,3,-1.371948242,-9.311096191,1,0,0,rectangle,-1.371948242,-9.311096191,1,0,0,-1.371948242,-9.311096191,1,0,0,0,155,155,24,1,,,,,,,,
,,,,,,,,,,,,,FF,,,,,,,,0.7263,,,,,,,,,,,,,,,,,,,,,,6102285a4cadf6b3a87ed993,61036a4937ab380134ccb6de,2021-07-29_16h56.43.807,Simcolourproject_2stim_asymm_v5,2020.2.10,MacIntel,60,61025ae37ef11b136ea224fe,,,,,,,,,852,72.32824707,-22.54309082,1,0,0,response3disk,,5,0.696166992,0.382995605,1,0,0,rectangle,0.696166992,0.382995605,1,0,0,0.696166992,0.382995605,1,0,0,0,156,156,87,1,,,,,,,,
,,,,,,,,,,,,,FF,,,,,,,,0.7407,,,,,,,,,,,,,,,,,,,,,,6102285a4cadf6b3a87ed993,61036a4937ab380134ccb6de,2021-07-29_16h56.43.807,Simcolourproject_2stim_asymm_v5,2020.2.10,MacIntel,60,61025ae37ef11b136ea224fe,,,,,,,,,2675,-88.55297852,-46.21929932,1,0,0,response5disk,,2,-2.92565918,-6.300964355,1,0,0,rectangle,-2.92565918,-6.300964355,1,0,0,-2.92565918,-6.300964355,1,0,0,0,157,157,86,1,,,,,,,,
,,,,,,,,,,,,,FF,,,,,,,,0.9327,,,,,,,,,,,,,,,,,,,,,,6102285a4cadf6b3a87ed993,61036a4937ab380134ccb6de,2021-07-29_16h56.43.807,Simcolourproject_2stim_asymm_v5,2020.2.10,MacIntel,60,61025ae37ef11b136ea224fe,,,,,,,,,3693,69.86621094,-16.85595703,1,0,0,response3disk,,5,-8.739257813,11.96459961,1,0,0,rectangle,-8.739257813,11.96459961,1,0,0,-8.739257813,11.96459961,1,0,0,0,158,158,56,1,,,,,,,,
,,,,,,,,,,,,,FF,,,,,,,,1.5038,,,,,,,,,,,,,,,,,,,,,,6102285a4cadf6b3a87ed993,61036a4937ab380134ccb6de,2021-07-29_16h56.43.807,Simcolourproject_2stim_asymm_v5,2020.2.10,MacIntel,60,61025ae37ef11b136ea224fe,,,,,,,,,1816,-91.29071045,57.91900635,1,0,0,response7disk,,1,2.851806641,13.60214233,1,0,0,rectangle,2.851806641,13.60214233,1,0,0,2.851806641,13.60214233,1,0,0,0,159,159,77,1,,,,,,,,
,,,,,,,,,,,,,FF,,,,,,,,0.8457,,,,,,,,,,,,,,,,,,,,,,6102285a4cadf6b3a87ed993,61036a4937ab380134ccb6de,2021-07-29_16h56.43.807,Simcolourproject_2stim_asymm_v5,2020.2.10,MacIntel,60,61025ae37ef11b136ea224fe,,,,,,,,,3179,52.51147461,-71.17272949,1,0,0,response3disk,,4,-4.177124023,-6.266418457,1,0,0,rectangle,-4.177124023,-6.266418457,1,0,0,-4.177124023,-6.266418457,1,0,0,1,0,160,81,1,,,,,,,,
,,,,,,,,,,,,,FF,,,,,,,,1.269,,,,,,,,,,,,,,,,,,,,,,6102285a4cadf6b3a87ed993,61036a4937ab380134ccb6de,2021-07-29_16h56.43.807,Simcolourproject_2stim_asymm_v5,2020.2.10,MacIntel,60,61025ae37ef11b136ea224fe,,,,,,,,,1570,49.43395996,-86.48449707,1,0,0,response3disk,,4,-10.88189697,-5.0234375,1,0,0,rectangle,-10.88189697,-5.0234375,1,0,0,-10.88189697,-5.0234375,1,0,0,1,1,161,60,1,,,,,,,,
,,,,,,,,,,,,,FF,,,,,,,,1.0182,,,,,,,,,,,,,,,,,,,,,,6102285a4cadf6b3a87ed993,61036a4937ab380134ccb6de,2021-07-29_16h56.43.807,Simcolourproject_2stim_asymm_v5,2020.2.10,MacIntel,60,61025ae37ef11b136ea224fe,,,,,,,,,75,-96.76940918,-59.73413086,1,0,0,response5disk,,2,-13.42266846,-6.290405273,1,0,0,rectangle,-13.42266846,-6.290405273,1,0,0,-13.42266846,-6.290405273,1,0,0,1,2,162,134,1,,,,,,,,
,,,,,,,,,,,,,FF,,,,,,,,1.3213,,,,,,,,,,,,,,,,,,,,,,6102285a4cadf6b3a87ed993,61036a4937ab380134ccb6de,2021-07-29_16h56.43.807,Simcolourproject_2stim_asymm_v5,2020.2.10,MacIntel,60,61025ae37ef11b136ea224fe,,,,,,,,,3063,-59.04492188,-104.1755371,1,0,0,response5disk,,3,-5.982727051,3.136413574,1,0,0,rectangle,-5.982727051,3.136413574,1,0,0,-5.982727051,3.136413574,1,0,0,1,3,163,135,1,,,,,,,,
,,,,,,,,,,,,,FF,,,,,,,,0.862,,,,,,,,,,,,,,,,,,,,,,6102285a4cadf6b3a87ed993,61036a4937ab380134ccb6de,2021-07-29_16h56.43.807,Simcolourproject_2stim_asymm_v5,2020.2.10,MacIntel,60,61025ae37ef11b136ea224fe,,,,,,,,,1391,-46.85876465,-84.56176758,1,0,0,response5disk,,3,-25.23486328,-11.66577148,1,0,0,rectangle,-25.23486328,-11.66577148,1,0,0,-25.23486328,-11.66577148,1,0,0,1,4,164,108,1,,,,,,,,
,,,,,,,,,,,,,FF,,,,,,,,1.2291,,,,,,,,,,,,,,,,,,,,,,6102285a4cadf6b3a87ed993,61036a4937ab380134ccb6de,2021-07-29_16h56.43.807,Simcolourproject_2stim_asymm_v5,2020.2.10,MacIntel,60,61025ae37ef11b136ea224fe,,,,,,,,,3157,-84.140625,-34.59136963,1,0,0,response5disk,,2,15.92468262,2.848754883,1,0,0,rectangle,15.92468262,2.848754883,1,0,0,15.92468262,2.848754883,1,0,0,1,5,165,101,1,,,,,,,,
,,,,,,,,,,,,,FF,,,,,,,,1.1404,,,,,,,,,,,,,,,,,,,,,,6102285a4cadf6b3a87ed993,61036a4937ab380134ccb6de,2021-07-29_16h56.43.807,Simcolourproject_2stim_asymm_v5,2020.2.10,MacIntel,60,61025ae37ef11b136ea224fe,,,,,,,,,1711,65.53594971,-42.00769043,1,0,0,response3disk,,5,-14.60888672,-2.962646484,1,0,0,rectangle,-14.60888672,-2.962646484,1,0,0,-14.60888672,-2.962646484,1,0,0,1,6,166,21,1,,,,,,,,
,,,,,,,,,,,,,FF,,,,,,,,0.967,,,,,,,,,,,,,,,,,,,,,,6102285a4cadf6b3a87ed993,61036a4937ab380134ccb6de,2021-07-29_16h56.43.807,Simcolourproject_2stim_asymm_v5,2020.2.10,MacIntel,60,61025ae37ef11b136ea224fe,,,,,,,,,3699,98.1942749,60.43585205,1,0,0,response1disk,,6,-0.90826416,-2.561340332,1,0,0,rectangle,-0.90826416,-2.561340332,1,0,0,-0.90826416,-2.561340332,1,0,0,1,7,167,157,1,,,,,,,,
,,,,,,,,,,,,,FF,,,,,,,,0.9143,,,,,,,,,,,,,,,,,,,,,,6102285a4cadf6b3a87ed993,61036a4937ab380134ccb6de,2021-07-29_16h56.43.807,Simcolourproject_2stim_asymm_v5,2020.2.10,MacIntel,60,61025ae37ef11b136ea224fe,,,,,,,,,1681,-80.8269043,-35.83886719,1,0,0,response5disk,,2,23.97180176,4.277709961,1,0,0,rectangle,23.97180176,4.277709961,1,0,0,23.97180176,4.277709961,1,0,0,1,8,168,59,1,,,,,,,,
,,,,,,,,,,,,,FF,,,,,,,,1.0347,,,,,,,,,,,,,,,,,,,,,,6102285a4cadf6b3a87ed993,61036a4937ab380134ccb6de,2021-07-29_16h56.43.807,Simcolourproject_2stim_asymm_v5,2020.2.10,MacIntel,60,61025ae37ef11b136ea224fe,,,,,,,,,2722,-68.99615479,-34.28631592,1,0,0,response5disk,,2,-0.724609375,-6.262939453,1,0,0,rectangle,-0.724609375,-6.262939453,1,0,0,-0.724609375,-6.262939453,1,0,0,1,9,169,155,1,,,,,,,,
,,,,,,,,,,,,,FF,,,,,,,,1.1415,,,,,,,,,,,,,,,,,,,,,,6102285a4cadf6b3a87ed993,61036a4937ab380134ccb6de,2021-07-29_16h56.43.807,Simcolourproject_2stim_asymm_v5,2020.2.10,MacIntel,60,61025ae37ef11b136ea224fe,,,,,,,,,4313,54.06604004,-84.3237915,1,0,0,response3disk,,4,35.06390381,-6.057250977,1,0,0,rectangle,35.06390381,-6.057250977,1,0,0,35.06390381,-6.057250977,1,0,0,1,10,170,156,1,,,,,,,,
,,,,,,,,,,,,,FF,,,,,,,,0.8879,,,,,,,,,,,,,,,,,,,,,,6102285a4cadf6b3a87ed993,61036a4937ab380134ccb6de,2021-07-29_16h56.43.807,Simcolourproject_2stim_asymm_v5,2020.2.10,MacIntel,60,61025ae37ef11b136ea224fe,,,,,,,,,2234,-109.003479,28.49237061,1,0,0,response7disk,,1,30.53302002,-3.191040039,1,0,0,rectangle,30.53302002,-3.191040039,1,0,0,30.53302002,-3.191040039,1,0,0,1,11,171,145,1,,,,,,,,
,,,,,,,,,,,,,FF,,,,,,,,0.7159,,,,,,,,,,,,,,,,,,,,,,6102285a4cadf6b3a87ed993,61036a4937ab380134ccb6de,2021-07-29_16h56.43.807,Simcolourproject_2stim_asymm_v5,2020.2.10,MacIntel,60,61025ae37ef11b136ea224fe,,,,,,,,,3395,-58.06500244,77.76947021,1,0,0,response7disk,,0,-7.024902344,7.395263672,1,0,0,rectangle,-7.024902344,7.395263672,1,0,0,-7.024902344,7.395263672,1,0,0,1,12,172,11,1,,,,,,,,
,,,,,,,,,,,,,FF,,,,,,,,0.8993,,,,,,,,,,,,,,,,,,,,,,6102285a4cadf6b3a87ed993,61036a4937ab380134ccb6de,2021-07-29_16h56.43.807,Simcolourproject_2stim_asymm_v5,2020.2.10,MacIntel,60,61025ae37ef11b136ea224fe,,,,,,,,,2838,-82.08740234,-39.72070313,1,0,0,response5disk,,2,4.132080078,0.557678223,1,0,0,rectangle,4.132080078,0.557678223,1,0,0,4.132080078,0.557678223,1,0,0,1,13,173,132,1,,,,,,,,
,,,,,,,,,,,,,FF,,,,,,,,1.1117,,,,,,,,,,,,,,,,,,,,,,6102285a4cadf6b3a87ed993,61036a4937ab380134ccb6de,2021-07-29_16h56.43.807,Simcolourproject_2stim_asymm_v5,2020.2.10,MacIntel,60,61025ae37ef11b136ea224fe,,,,,,,,,1075,60.64880371,-51.87316895,1,0,0,response3disk,,5,0.616699219,-4.29095459,1,0,0,rectangle,0.616699219,-4.29095459,1,0,0,0.616699219,-4.29095459,1,0,0,1,14,174,146,1,,,,,,,,
,,,,,,,,,,,,,FF,,,,,,,,0.8435,,,,,,,,,,,,,,,,,,,,,,6102285a4cadf6b3a87ed993,61036a4937ab380134ccb6de,2021-07-29_16h56.43.807,Simcolourproject_2stim_asymm_v5,2020.2.10,MacIntel,60,61025ae37ef11b136ea224fe,,,,,,,,,3957,53.13323975,-42.24212646,1,0,0,response3disk,,5,-2.017578125,-0.885253906,1,0,0,rectangle,-2.017578125,-0.885253906,1,0,0,-2.017578125,-0.885253906,1,0,0,1,15,175,141,1,,,,,,,,
,,,,,,,,,,,,,FF,,,,,,,,1.0946,,,,,,,,,,,,,,,,,,,,,,6102285a4cadf6b3a87ed993,61036a4937ab380134ccb6de,2021-07-29_16h56.43.807,Simcolourproject_2stim_asymm_v5,2020.2.10,MacIntel,60,61025ae37ef11b136ea224fe,,,,,,,,,1686,-96.18078613,-42.58331299,1,0,0,response5disk,,2,-13.05297852,8.67578125,1,0,0,rectangle,-13.05297852,8.67578125,1,0,0,-13.05297852,8.67578125,1,0,0,1,16,176,18,1,,,,,,,,
,,,,,,,,,,,,,FF,,,,,,,,1.0014,,,,,,,,,,,,,,,,,,,,,,6102285a4cadf6b3a87ed993,61036a4937ab380134ccb6de,2021-07-29_16h56.43.807,Simcolourproject_2stim_asymm_v5,2020.2.10,MacIntel,60,61025ae37ef11b136ea224fe,,,,,,,,,1365,-95.53833008,-30.81188965,1,0,0,response5disk,,2,-13.84503174,-1.613525391,1,0,0,rectangle,-13.84503174,-1.613525391,1,0,0,-13.84503174,-1.613525391,1,0,0,1,17,177,16,1,,,,,,,,
,,,,,,,,,,,,,FF,,,,,,,,0.8511,,,,,,,,,,,,,,,,,,,,,,6102285a4cadf6b3a87ed993,61036a4937ab380134ccb6de,2021-07-29_16h56.43.807,Simcolourproject_2stim_asymm_v5,2020.2.10,MacIntel,60,61025ae37ef11b136ea224fe,,,,,,,,,429,-42.69708252,-98.57666016,1,0,0,response5disk,,3,-6.795898438,-3.530517578,1,0,0,rectangle,-6.795898438,-3.530517578,1,0,0,-6.795898438,-3.530517578,1,0,0,1,18,178,37,1,,,,,,,,
,,,,,,,,,,,,,FF,,,,,,,,2.1455,,,,,,,,,,,,,,,,,,,,,,6102285a4cadf6b3a87ed993,61036a4937ab380134ccb6de,2021-07-29_16h56.43.807,Simcolourproject_2stim_asymm_v5,2020.2.10,MacIntel,60,61025ae37ef11b136ea224fe,,,,,,,,,891,65.72375488,-43.52557373,1,0,0,response3disk,,5,-3.87902832,-10.89355469,1,0,0,rectangle,-3.87902832,-10.89355469,1,0,0,-3.87902832,-10.89355469,1,0,0,1,19,179,133,1,,,,,,,,
,,,,,,,,,,,,,FF,,,,,,,,1.1366,,,,,,,,,,,,,,,,,,,,,,6102285a4cadf6b3a87ed993,61036a4937ab380134ccb6de,2021-07-29_16h56.43.807,Simcolourproject_2stim_asymm_v5,2020.2.10,MacIntel,60,61025ae37ef11b136ea224fe,,,,,,,,,343,-51.46343994,-88.78112793,1,0,0,response5disk,,3,-32.03912354,-11.65698242,1,0,0,rectangle,-32.03912354,-11.65698242,1,0,0,-32.03912354,-11.65698242,1,0,0,1,20,180,128,1,,,,,,,,
,,,,,,,,,,,,,FF,,,,,,,,1.1005,,,,,,,,,,,,,,,,,,,,,,6102285a4cadf6b3a87ed993,61036a4937ab380134ccb6de,2021-07-29_16h56.43.807,Simcolourproject_2stim_asymm_v5,2020.2.10,MacIntel,60,61025ae37ef11b136ea224fe,,,,,,,,,1700,70.03295898,-44.83361816,1,0,0,response3disk,,5,-15.01361084,2.52166748,1,0,0,rectangle,-15.01361084,2.52166748,1,0,0,-15.01361084,2.52166748,1,0,0,1,21,181,41,1,,,,,,,,
,,,,,,,,,,,,,FF,,,,,,,,1.7309,,,,,,,,,,,,,,,,,,,,,,6102285a4cadf6b3a87ed993,61036a4937ab380134ccb6de,2021-07-29_16h56.43.807,Simcolourproject_2stim_asymm_v5,2020.2.10,MacIntel,60,61025ae37ef11b136ea224fe,,,,,,,,,3890,39.76318359,79.43746948,1,0,0,response1disk,,7,-3.093505859,-16.56951904,1,0,0,rectangle,-3.093505859,-16.56951904,1,0,0,-3.093505859,-16.56951904,1,0,0,1,22,182,152,1,,,,,,,,
,,,,,,,,,,,,,FF,,,,,,,,1.8148,,,,,,,,,,,,,,,,,,,,,,6102285a4cadf6b3a87ed993,61036a4937ab380134ccb6de,2021-07-29_16h56.43.807,Simcolourproject_2stim_asymm_v5,2020.2.10,MacIntel,60,61025ae37ef11b136ea224fe,,,,,,,,,874,-98.37390137,-41.67382813,1,0,0,response5disk,,2,-17.81951904,-7.730407715,1,0,0,rectangle,-17.81951904,-7.730407715,1,0,0,-17.81951904,-7.730407715,1,0,0,1,23,183,159,1,,,,,,,,
,,,,,,,,,,,,,FF,,,,,,,,1.2163,,,,,,,,,,,,,,,,,,,,,,6102285a4cadf6b3a87ed993,61036a4937ab380134ccb6de,2021-07-29_16h56.43.807,Simcolourproject_2stim_asymm_v5,2020.2.10,MacIntel,60,61025ae37ef11b136ea224fe,,,,,,,,,2608,-43.92126465,96.82400513,1,0,0,response7disk,,0,28.36572266,6.767333984,1,0,0,rectangle,28.36572266,6.767333984,1,0,0,28.36572266,6.767333984,1,0,0,1,24,184,100,1,,,,,,,,
,,,,,,,,,,,,,FF,,,,,,,,0.9485,,,,,,,,,,,,,,,,,,,,,,6102285a4cadf6b3a87ed993,61036a4937ab380134ccb6de,2021-07-29_16h56.43.807,Simcolourproject_2stim_asymm_v5,2020.2.10,MacIntel,60,61025ae37ef11b136ea224fe,,,,,,,,,4328,-100.3289185,52.99761963,1,0,0,response7disk,,1,-12.22857666,12.22729492,1,0,0,rectangle,-12.22857666,12.22729492,1,0,0,-12.22857666,12.22729492,1,0,0,1,25,185,71,1,,,,,,,,
,,,,,,,,,,,,,FF,,,,,,,,1.0961,,,,,,,,,,,,,,,,,,,,,,6102285a4cadf6b3a87ed993,61036a4937ab380134ccb6de,2021-07-29_16h56.43.807,Simcolourproject_2stim_asymm_v5,2020.2.10,MacIntel,60,61025ae37ef11b136ea224fe,,,,,,,,,3348,72.67126465,-46.01989746,1,0,0,response3disk,,5,-15.17529297,-4.096679688,1,0,0,rectangle,-15.17529297,-4.096679688,1,0,0,-15.17529297,-4.096679688,1,0,0,1,26,186,7,1,,,,,,,,
,,,,,,,,,,,,,FF,,,,,,,,1.035,,,,,,,,,,,,,,,,,,,,,,6102285a4cadf6b3a87ed993,61036a4937ab380134ccb6de,2021-07-29_16h56.43.807,Simcolourproject_2stim_asymm_v5,2020.2.10,MacIntel,60,61025ae37ef11b136ea224fe,,,,,,,,,512,44.2043457,-78.99377441,1,0,0,response3disk,,4,-5.947265625,1.424377441,1,0,0,rectangle,-5.947265625,1.424377441,1,0,0,-5.947265625,1.424377441,1,0,0,1,27,187,136,1,,,,,,,,
,,,,,,,,,,,,,FF,,,,,,,,1.1332,,,,,,,,,,,,,,,,,,,,,,6102285a4cadf6b3a87ed993,61036a4937ab380134ccb6de,2021-07-29_16h56.43.807,Simcolourproject_2stim_asymm_v5,2020.2.10,MacIntel,60,61025ae37ef11b136ea224fe,,,,,,,,,3484,-54.64227295,-86.90216064,1,0,0,response5disk,,3,1.293762207,10.19067383,1,0,0,rectangle,1.293762207,10.19067383,1,0,0,1.293762207,10.19067383,1,0,0,1,28,188,3,1,,,,,,,,
,,,,,,,,,,,,,FF,,,,,,,,1.0094,,,,,,,,,,,,,,,,,,,,,,6102285a4cadf6b3a87ed993,61036a4937ab380134ccb6de,2021-07-29_16h56.43.807,Simcolourproject_2stim_asymm_v5,2020.2.10,MacIntel,60,61025ae37ef11b136ea224fe,,,,,,,,,3013,59.1071167,-40.00939941,1,0,0,response3disk,,5,5.889770508,-5.871765137,1,0,0,rectangle,5.889770508,-5.871765137,1,0,0,5.889770508,-5.871765137,1,0,0,1,29,189,0,1,,,,,,,,
,,,,,,,,,,,,,FF,,,,,,,,0.8333,,,,,,,,,,,,,,,,,,,,,,6102285a4cadf6b3a87ed993,61036a4937ab380134ccb6de,2021-07-29_16h56.43.807,Simcolourproject_2stim_asymm_v5,2020.2.10,MacIntel,60,61025ae37ef11b136ea224fe,,,,,,,,,3130,62.46972656,-27.27563477,1,0,0,response3disk,,5,-6.291015625,3.913452148,1,0,0,rectangle,-6.291015625,3.913452148,1,0,0,-6.291015625,3.913452148,1,0,0,1,30,190,47,1,,,,,,,,
,,,,,,,,,,,,,FF,,,,,,,,0.7795,,,,,,,,,,,,,,,,,,,,,,6102285a4cadf6b3a87ed993,61036a4937ab380134ccb6de,2021-07-29_16h56.43.807,Simcolourproject_2stim_asymm_v5,2020.2.10,MacIntel,60,61025ae37ef11b136ea224fe,,,,,,,,,3990,-51.90246582,-74.41064453,1,0,0,response5disk,,3,-27.26959229,-5.248535156,1,0,0,rectangle,-27.26959229,-5.248535156,1,0,0,-27.26959229,-5.248535156,1,0,0,1,31,191,57,1,,,,,,,,
,,,,,,,,,,,,,FF,,,,,,,,1.5731,,,,,,,,,,,,,,,,,,,,,,6102285a4cadf6b3a87ed993,61036a4937ab380134ccb6de,2021-07-29_16h56.43.807,Simcolourproject_2stim_asymm_v5,2020.2.10,MacIntel,60,61025ae37ef11b136ea224fe,,,,,,,,,2253,35.06964111,-93.38287354,1,0,0,response3disk,,4,-17.63250732,-6.641540527,1,0,0,rectangle,-17.63250732,-6.641540527,1,0,0,-17.63250732,-6.641540527,1,0,0,1,32,192,92,1,,,,,,,,
,,,,,,,,,,,,,FF,,,,,,,,1.6624,,,,,,,,,,,,,,,,,,,,,,6102285a4cadf6b3a87ed993,61036a4937ab380134ccb6de,2021-07-29_16h56.43.807,Simcolourproject_2stim_asymm_v5,2020.2.10,MacIntel,60,61025ae37ef11b136ea224fe,,,,,,,,,774,66.81884766,29.22058105,1,0,0,response1disk,,6,10.5244751,-2.145080566,1,0,0,rectangle,-43.41705322,68.012146,1,0,0,-1.273864746,-3.974975586,1,0,0,1,33,193,82,1,,response7disk_3,TRUE,0,0,"[42,154,58,243,88,60,313,38,194,317,60,27,100,321,3,238,280,137,288,312]",1.3425,rectangle
,,,,,,,,,,,,,FF,,,,,,,,2.3928,,,,,,,,,,,,,,,,,,,,,,6102285a4cadf6b3a87ed993,61036a4937ab380134ccb6de,2021-07-29_16h56.43.807,Simcolourproject_2stim_asymm_v5,2020.2.10,MacIntel,60,61025ae37ef11b136ea224fe,,,,,,,,,1168,37.0682373,-83.0368042,1,0,0,response3disk,,4,-25.69726563,-11.02294922,1,0,0,rectangle,-25.69726563,-11.02294922,1,0,0,-25.69726563,-11.02294922,1,0,0,1,34,194,96,1,,,,,,,,
,,,,,,,,,,,,,FF,,,,,,,,0.7308,,,,,,,,,,,,,,,,,,,,,,6102285a4cadf6b3a87ed993,61036a4937ab380134ccb6de,2021-07-29_16h56.43.807,Simcolourproject_2stim_asymm_v5,2020.2.10,MacIntel,60,61025ae37ef11b136ea224fe,,,,,,,,,559,59.27185059,47.05664063,1,0,0,response1disk,,6,-8.565307617,2.389526367,1,0,0,rectangle,-8.565307617,2.389526367,1,0,0,-8.565307617,2.389526367,1,0,0,1,35,195,26,1,,,,,,,,
,,,,,,,,,,,,,FF,,,,,,,,0.9912,,,,,,,,,,,,,,,,,,,,,,6102285a4cadf6b3a87ed993,61036a4937ab380134ccb6de,2021-07-29_16h56.43.807,Simcolourproject_2stim_asymm_v5,2020.2.10,MacIntel,60,61025ae37ef11b136ea224fe,,,,,,,,,242,-41.918396,-79.58703613,1,0,0,response5disk,,3,-23.00683594,12.88531494,1,0,0,rectangle,-23.00683594,12.88531494,1,0,0,-23.00683594,12.88531494,1,0,0,1,36,196,129,1,,,,,,,,
,,,,,,,,,,,,,FF,,,,,,,,0.9793,,,,,,,,,,,,,,,,,,,,,,6102285a4cadf6b3a87ed993,61036a4937ab380134ccb6de,2021-07-29_16h56.43.807,Simcolourproject_2stim_asymm_v5,2020.2.10,MacIntel,60,61025ae37ef11b136ea224fe,,,,,,,,,349,-92.8848877,33.35821533,1,0,0,response7disk,,1,11.44641113,-2.266845703,1,0,0,rectangle,11.44641113,-2.266845703,1,0,0,11.44641113,-2.266845703,1,0,0,1,37,197,29,1,,,,,,,,
,,,,,,,,,,,,,FF,,,,,,,,1.271,,,,,,,,,,,,,,,,,,,,,,6102285a4cadf6b3a87ed993,61036a4937ab380134ccb6de,2021-07-29_16h56.43.807,Simcolourproject_2stim_asymm_v5,2020.2.10,MacIntel,60,61025ae37ef11b136ea224fe,,,,,,,,,2381,61.18151855,-88.78283691,1,0,0,response3disk,,4,12.30566406,-7.348510742,1,0,0,rectangle,12.30566406,-7.348510742,1,0,0,12.30566406,-7.348510742,1,0,0,1,38,198,14,1,,,,,,,,
,,,,,,,,,,,,,FF,,,,,,,,0.8623,,,,,,,,,,,,,,,,,,,,,,6102285a4cadf6b3a87ed993,61036a4937ab380134ccb6de,2021-07-29_16h56.43.807,Simcolourproject_2stim_asymm_v5,2020.2.10,MacIntel,60,61025ae37ef11b136ea224fe,,,,,,,,,3258,-31.92797852,-78.72723389,1,0,0,response5disk,,3,1.299316406,-17.92803955,1,0,0,rectangle,1.299316406,-17.92803955,1,0,0,1.299316406,-17.92803955,1,0,0,1,39,199,61,1,,,,,,,,
,,,,,,,,,,,,,FF,,,,,,,,0.8626,,,,,,,,,,,,,,,,,,,,,,6102285a4cadf6b3a87ed993,61036a4937ab380134ccb6de,2021-07-29_16h56.43.807,Simcolourproject_2stim_asymm_v5,2020.2.10,MacIntel,60,61025ae37ef11b136ea224fe,,,,,,,,,2575,75.62280273,-38.27099609,1,0,0,response3disk,,5,9.840637207,-7.194763184,1,0,0,rectangle,9.840637207,-7.194763184,1,0,0,9.840637207,-7.194763184,1,0,0,1,40,200,131,1,,,,,,,,
,,,,,,,,,,,,,FF,,,,,,,,1.1523,,,,,,,,,,,,,,,,,,,,,,6102285a4cadf6b3a87ed993,61036a4937ab380134ccb6de,2021-07-29_16h56.43.807,Simcolourproject_2stim_asymm_v5,2020.2.10,MacIntel,60,61025ae37ef11b136ea224fe,,,,,,,,,3644,37.67401123,-90.18835449,1,0,0,response3disk,,4,-11.03662109,-8.815124512,1,0,0,rectangle,-11.03662109,-8.815124512,1,0,0,-11.03662109,-8.815124512,1,0,0,1,41,201,75,1,,,,,,,,
,,,,,,,,,,,,,FF,,,,,,,,0.9729,,,,,,,,,,,,,,,,,,,,,,6102285a4cadf6b3a87ed993,61036a4937ab380134ccb6de,2021-07-29_16h56.43.807,Simcolourproject_2stim_asymm_v5,2020.2.10,MacIntel,60,61025ae37ef11b136ea224fe,,,,,,,,,1878,-52.56610107,-91.50817871,1,0,0,response5disk,,3,0.102355957,-0.435974121,1,0,0,rectangle,0.102355957,-0.435974121,1,0,0,0.102355957,-0.435974121,1,0,0,1,42,202,105,1,,,,,,,,
,,,,,,,,,,,,,FF,,,,,,,,0.9407,,,,,,,,,,,,,,,,,,,,,,6102285a4cadf6b3a87ed993,61036a4937ab380134ccb6de,2021-07-29_16h56.43.807,Simcolourproject_2stim_asymm_v5,2020.2.10,MacIntel,60,61025ae37ef11b136ea224fe,,,,,,,,,2195,52.76147461,-85.11077881,1,0,0,response3disk,,4,6.103759766,-17.06994629,1,0,0,rectangle,6.103759766,-17.06994629,1,0,0,6.103759766,-17.06994629,1,0,0,1,43,203,22,1,,,,,,,,
,,,,,,,,,,,,,FF,,,,,,,,1.1165,,,,,,,,,,,,,,,,,,,,,,6102285a4cadf6b3a87ed993,61036a4937ab380134ccb6de,2021-07-29_16h56.43.807,Simcolourproject_2stim_asymm_v5,2020.2.10,MacIntel,60,61025ae37ef11b136ea224fe,,,,,,,,,1738,21.96496582,-87.88793945,1,0,0,response3disk,,4,-15.57019043,-19.2052002,1,0,0,rectangle,-15.57019043,-19.2052002,1,0,0,-15.57019043,-19.2052002,1,0,0,1,44,204,5,1,,,,,,,,
,,,,,,,,,,,,,FF,,,,,,,,0.7884,,,,,,,,,,,,,,,,,,,,,,6102285a4cadf6b3a87ed993,61036a4937ab380134ccb6de,2021-07-29_16h56.43.807,Simcolourproject_2stim_asymm_v5,2020.2.10,MacIntel,60,61025ae37ef11b136ea224fe,,,,,,,,,3860,-27.20629883,-70.44976807,1,0,0,response5disk,,3,11.76159668,0.392822266,1,0,0,rectangle,11.76159668,0.392822266,1,0,0,11.76159668,0.392822266,1,0,0,1,45,205,67,1,,,,,,,,
,,,,,,,,,,,,,FF,,,,,,,,1.1854,,,,,,,,,,,,,,,,,,,,,,6102285a4cadf6b3a87ed993,61036a4937ab380134ccb6de,2021-07-29_16h56.43.807,Simcolourproject_2stim_asymm_v5,2020.2.10,MacIntel,60,61025ae37ef11b136ea224fe,,,,,,,,,2516,55.06060791,57.07873535,1,0,0,response1disk,,7,1.252441406,9.746337891,1,0,0,rectangle,1.252441406,9.746337891,1,0,0,1.252441406,9.746337891,1,0,0,1,46,206,97,1,,,,,,,,
,,,,,,,,,,,,,FF,,,,,,,,1.3019,,,,,,,,,,,,,,,,,,,,,,6102285a4cadf6b3a87ed993,61036a4937ab380134ccb6de,2021-07-29_16h56.43.807,Simcolourproject_2stim_asymm_v5,2020.2.10,MacIntel,60,61025ae37ef11b136ea224fe,,,,,,,,,1616,-84.39147949,-33.49316406,1,0,0,response5disk,,2,-0.002868652,15.15618896,1,0,0,rectangle,-0.002868652,15.15618896,1,0,0,-0.002868652,15.15618896,1,0,0,1,47,207,77,1,,,,,,,,
,,,,,,,,,,,,,FF,,,,,,,,1.563,,,,,,,,,,,,,,,,,,,,,,6102285a4cadf6b3a87ed993,61036a4937ab380134ccb6de,2021-07-29_16h56.43.807,Simcolourproject_2stim_asymm_v5,2020.2.10,MacIntel,60,61025ae37ef11b136ea224fe,,,,,,,,,1663,-30.9753418,-86.71044922,1,0,0,response5disk,,3,20.25726318,5.26739502,1,0,0,rectangle,20.25726318,5.26739502,1,0,0,20.25726318,5.26739502,1,0,0,1,48,208,32,1,,,,,,,,
,,,,,,,,,,,,,FF,,,,,,,,1.0862,,,,,,,,,,,,,,,,,,,,,,6102285a4cadf6b3a87ed993,61036a4937ab380134ccb6de,2021-07-29_16h56.43.807,Simcolourproject_2stim_asymm_v5,2020.2.10,MacIntel,60,61025ae37ef11b136ea224fe,,,,,,,,,1285,31.89221191,-83.9050293,1,0,0,response3disk,,4,0.826843262,-4.528137207,1,0,0,rectangle,0.826843262,-4.528137207,1,0,0,0.826843262,-4.528137207,1,0,0,1,49,209,74,1,,,,,,,,
,,,,,,,,,,,,,FF,,,,,,,,1.1388,,,,,,,,,,,,,,,,,,,,,,6102285a4cadf6b3a87ed993,61036a4937ab380134ccb6de,2021-07-29_16h56.43.807,Simcolourproject_2stim_asymm_v5,2020.2.10,MacIntel,60,61025ae37ef11b136ea224fe,,,,,,,,,912,30.44567871,-74.82849121,1,0,0,response3disk,,4,-0.756164551,9.100585938,1,0,0,rectangle,-0.756164551,9.100585938,1,0,0,-0.756164551,9.100585938,1,0,0,1,50,210,153,1,,,,,,,,
,,,,,,,,,,,,,FF,,,,,,,,0.8882,,,,,,,,,,,,,,,,,,,,,,6102285a4cadf6b3a87ed993,61036a4937ab380134ccb6de,2021-07-29_16h56.43.807,Simcolourproject_2stim_asymm_v5,2020.2.10,MacIntel,60,61025ae37ef11b136ea224fe,,,,,,,,,3153,-91.18383789,-41.43713379,1,0,0,response5disk,,2,-18.12854004,-4.827697754,1,0,0,rectangle,-18.12854004,-4.827697754,1,0,0,-18.12854004,-4.827697754,1,0,0,1,51,211,118,1,,,,,,,,
,,,,,,,,,,,,,FF,,,,,,,,0.9409,,,,,,,,,,,,,,,,,,,,,,6102285a4cadf6b3a87ed993,61036a4937ab380134ccb6de,2021-07-29_16h56.43.807,Simcolourproject_2stim_asymm_v5,2020.2.10,MacIntel,60,61025ae37ef11b136ea224fe,,,,,,,,,1320,-37.4708252,-93.44659424,1,0,0,response5disk,,3,13.61706543,1.352050781,1,0,0,rectangle,13.61706543,1.352050781,1,0,0,13.61706543,1.352050781,1,0,0,1,52,212,24,1,,,,,,,,
,,,,,,,,,,,,,FF,,,,,,,,0.9461,,,,,,,,,,,,,,,,,,,,,,6102285a4cadf6b3a87ed993,61036a4937ab380134ccb6de,2021-07-29_16h56.43.807,Simcolourproject_2stim_asymm_v5,2020.2.10,MacIntel,60,61025ae37ef11b136ea224fe,,,,,,,,,3832,76.25048828,36.25567627,1,0,0,response1disk,,6,-5.842834473,-9.534362793,1,0,0,rectangle,-5.842834473,-9.534362793,1,0,0,-5.842834473,-9.534362793,1,0,0,1,53,213,88,1,,,,,,,,
,,,,,,,,,,,,,FF,,,,,,,,1.4651,,,,,,,,,,,,,,,,,,,,,,6102285a4cadf6b3a87ed993,61036a4937ab380134ccb6de,2021-07-29_16h56.43.807,Simcolourproject_2stim_asymm_v5,2020.2.10,MacIntel,60,61025ae37ef11b136ea224fe,,,,,,,,,53,57.87115479,39.02087402,1,0,0,response1disk,,6,-15.28387451,-6.03326416,1,0,0,rectangle,-15.28387451,-6.03326416,1,0,0,-15.28387451,-6.03326416,1,0,0,1,54,214,117,1,,,,,,,,
,,,,,,,,,,,,,FF,,,,,,,,1.2396,,,,,,,,,,,,,,,,,,,,,,6102285a4cadf6b3a87ed993,61036a4937ab380134ccb6de,2021-07-29_16h56.43.807,Simcolourproject_2stim_asymm_v5,2020.2.10,MacIntel,60,61025ae37ef11b136ea224fe,,,,,,,,,2862,55.01263428,-80.02502441,1,0,0,response3disk,,4,20.88671875,1.437316895,1,0,0,rectangle,20.88671875,1.437316895,1,0,0,20.88671875,1.437316895,1,0,0,1,55,215,104,1,,,,,,,,
,,,,,,,,,,,,,FF,,,,,,,,1.4833,,,,,,,,,,,,,,,,,,,,,,6102285a4cadf6b3a87ed993,61036a4937ab380134ccb6de,2021-07-29_16h56.43.807,Simcolourproject_2stim_asymm_v5,2020.2.10,MacIntel,60,61025ae37ef11b136ea224fe,,,,,,,,,111,73.2878418,29.21069336,1,0,0,response1disk,,6,-10.64892578,-8.764648438,1,0,0,rectangle,-10.64892578,-8.764648438,1,0,0,-10.64892578,-8.764648438,1,0,0,1,56,216,87,1,,,,,,,,
,,,,,,,,,,,,,FF,,,,,,,,1.2002,,,,,,,,,,,,,,,,,,,,,,6102285a4cadf6b3a87ed993,61036a4937ab380134ccb6de,2021-07-29_16h56.43.807,Simcolourproject_2stim_asymm_v5,2020.2.10,MacIntel,60,61025ae37ef11b136ea224fe,,,,,,,,,3525,-60.72839355,-74.62664795,1,0,0,response5disk,,3,15.55804443,20.77377319,1,0,0,rectangle,15.55804443,20.77377319,1,0,0,15.55804443,20.77377319,1,0,0,1,57,217,30,1,,,,,,,,
,,,,,,,,,,,,,FF,,,,,,,,1.1852,,,,,,,,,,,,,,,,,,,,,,6102285a4cadf6b3a87ed993,61036a4937ab380134ccb6de,2021-07-29_16h56.43.807,Simcolourproject_2stim_asymm_v5,2020.2.10,MacIntel,60,61025ae37ef11b136ea224fe,,,,,,,,,12,32.15759277,-73.62225342,1,0,0,response3disk,,4,-1.697753906,-2.197509766,1,0,0,rectangle,-1.697753906,-2.197509766,1,0,0,-1.697753906,-2.197509766,1,0,0,1,58,218,19,1,,,,,,,,
,,,,,,,,,,,,,FF,,,,,,,,1.0317,,,,,,,,,,,,,,,,,,,,,,6102285a4cadf6b3a87ed993,61036a4937ab380134ccb6de,2021-07-29_16h56.43.807,Simcolourproject_2stim_asymm_v5,2020.2.10,MacIntel,60,61025ae37ef11b136ea224fe,,,,,,,,,2945,-82.4921875,44.64251709,1,0,0,response7disk,,1,6.264831543,-1.237792969,1,0,0,rectangle,6.264831543,-1.237792969,1,0,0,6.264831543,-1.237792969,1,0,0,1,59,219,38,1,,,,,,,,
,,,,,,,,,,,,,FF,,,,,,,,0.9331,,,,,,,,,,,,,,,,,,,,,,6102285a4cadf6b3a87ed993,61036a4937ab380134ccb6de,2021-07-29_16h56.43.807,Simcolourproject_2stim_asymm_v5,2020.2.10,MacIntel,60,61025ae37ef11b136ea224fe,,,,,,,,,475,69.09503174,25.45617676,1,0,0,response1disk,,6,-5.618286133,-2.473510742,1,0,0,rectangle,-5.618286133,-2.473510742,1,0,0,-5.618286133,-2.473510742,1,0,0,1,60,220,58,1,,,,,,,,
,,,,,,,,,,,,,FF,,,,,,,,1.0333,,,,,,,,,,,,,,,,,,,,,,6102285a4cadf6b3a87ed993,61036a4937ab380134ccb6de,2021-07-29_16h56.43.807,Simcolourproject_2stim_asymm_v5,2020.2.10,MacIntel,60,61025ae37ef11b136ea224fe,,,,,,,,,3192,-51.75524902,-79.85211182,1,0,0,response5disk,,3,-4.55859375,-0.032592773,1,0,0,rectangle,-4.55859375,-0.032592773,1,0,0,-4.55859375,-0.032592773,1,0,0,1,61,221,2,1,,,,,,,,
,,,,,,,,,,,,,FF,,,,,,,,1.1468,,,,,,,,,,,,,,,,,,,,,,6102285a4cadf6b3a87ed993,61036a4937ab380134ccb6de,2021-07-29_16h56.43.807,Simcolourproject_2stim_asymm_v5,2020.2.10,MacIntel,60,61025ae37ef11b136ea224fe,,,,,,,,,137,71.50079346,-49.13275146,1,0,0,response3disk,,5,0.452148438,0.073242188,1,0,0,rectangle,0.452148438,0.073242188,1,0,0,0.452148438,0.073242188,1,0,0,1,62,222,64,1,,,,,,,,
,,,,,,,,,,,,,FF,,,,,,,,2.0204,,,,,,,,,,,,,,,,,,,,,,6102285a4cadf6b3a87ed993,61036a4937ab380134ccb6de,2021-07-29_16h56.43.807,Simcolourproject_2stim_asymm_v5,2020.2.10,MacIntel,60,61025ae37ef11b136ea224fe,,,,,,,,,3171,41.73059082,-97.41430664,1,0,0,response3disk,,4,9.447387695,-5.516479492,1,0,0,rectangle,9.447387695,-5.516479492,1,0,0,9.447387695,-5.516479492,1,0,0,1,63,223,106,1,,,,,,,,
,,,,,,,,,,,,,FF,,,,,,,,0.9393,,,,,,,,,,,,,,,,,,,,,,6102285a4cadf6b3a87ed993,61036a4937ab380134ccb6de,2021-07-29_16h56.43.807,Simcolourproject_2stim_asymm_v5,2020.2.10,MacIntel,60,61025ae37ef11b136ea224fe,,,,,,,,,3016,37.26721191,-91.00616455,1,0,0,response3disk,,4,-1.888000488,-2.427429199,1,0,0,rectangle,-1.888000488,-2.427429199,1,0,0,-1.888000488,-2.427429199,1,0,0,1,64,224,4,1,,,,,,,,
,,,,,,,,,,,,,FF,,,,,,,,1.4554,,,,,,,,,,,,,,,,,,,,,,6102285a4cadf6b3a87ed993,61036a4937ab380134ccb6de,2021-07-29_16h56.43.807,Simcolourproject_2stim_asymm_v5,2020.2.10,MacIntel,60,61025ae37ef11b136ea224fe,,,,,,,,,3084,44.94274902,-74.8536377,1,0,0,response3disk,,4,4.970581055,8.85925293,1,0,0,rectangle,4.970581055,8.85925293,1,0,0,4.970581055,8.85925293,1,0,0,1,65,225,151,1,,,,,,,,
,,,,,,,,,,,,,FF,,,,,,,,0.8517,,,,,,,,,,,,,,,,,,,,,,6102285a4cadf6b3a87ed993,61036a4937ab380134ccb6de,2021-07-29_16h56.43.807,Simcolourproject_2stim_asymm_v5,2020.2.10,MacIntel,60,61025ae37ef11b136ea224fe,,,,,,,,,3010,68.87902832,24.0765686,1,0,0,response1disk,,6,1.653686523,3.404968262,1,0,0,rectangle,1.653686523,3.404968262,1,0,0,1.653686523,3.404968262,1,0,0,1,66,226,56,1,,,,,,,,
,,,,,,,,,,,,,FF,,,,,,,,0.9208,,,,,,,,,,,,,,,,,,,,,,6102285a4cadf6b3a87ed993,61036a4937ab380134ccb6de,2021-07-29_16h56.43.807,Simcolourproject_2stim_asymm_v5,2020.2.10,MacIntel,60,61025ae37ef11b136ea224fe,,,,,,,,,3039,-105.6102295,35.05114746,1,0,0,response7disk,,1,-1.019042969,-3.122009277,1,0,0,rectangle,-1.019042969,-3.122009277,1,0,0,-1.019042969,-3.122009277,1,0,0,1,67,227,23,1,,,,,,,,
,,,,,,,,,,,,,FF,,,,,,,,0.8136,,,,,,,,,,,,,,,,,,,,,,6102285a4cadf6b3a87ed993,61036a4937ab380134ccb6de,2021-07-29_16h56.43.807,Simcolourproject_2stim_asymm_v5,2020.2.10,MacIntel,60,61025ae37ef11b136ea224fe,,,,,,,,,2207,41.5526123,-81.07470703,1,0,0,response3disk,,4,-5.296447754,-7.001586914,1,0,0,rectangle,-5.296447754,-7.001586914,1,0,0,-5.296447754,-7.001586914,1,0,0,1,68,228,15,1,,,,,,,,
,,,,,,,,,,,,,FF,,,,,,,,0.7296,,,,,,,,,,,,,,,,,,,,,,6102285a4cadf6b3a87ed993,61036a4937ab380134ccb6de,2021-07-29_16h56.43.807,Simcolourproject_2stim_asymm_v5,2020.2.10,MacIntel,60,61025ae37ef11b136ea224fe,,,,,,,,,329,29.89953613,-82.34649658,1,0,0,response3disk,,4,-6.099731445,6.497009277,1,0,0,rectangle,-6.099731445,6.497009277,1,0,0,-6.099731445,6.497009277,1,0,0,1,69,229,147,1,,,,,,,,
,,,,,,,,,,,,,FF,,,,,,,,0.826,,,,,,,,,,,,,,,,,,,,,,6102285a4cadf6b3a87ed993,61036a4937ab380134ccb6de,2021-07-29_16h56.43.807,Simcolourproject_2stim_asymm_v5,2020.2.10,MacIntel,60,61025ae37ef11b136ea224fe,,,,,,,,,399,72.09301758,-36.93450928,1,0,0,response3disk,,5,11.07788086,9.286010742,1,0,0,rectangle,11.07788086,9.286010742,1,0,0,11.07788086,9.286010742,1,0,0,1,70,230,127,1,,,,,,,,
,,,,,,,,,,,,,FF,,,,,,,,0.8496,,,,,,,,,,,,,,,,,,,,,,6102285a4cadf6b3a87ed993,61036a4937ab380134ccb6de,2021-07-29_16h56.43.807,Simcolourproject_2stim_asymm_v5,2020.2.10,MacIntel,60,61025ae37ef11b136ea224fe,,,,,,,,,888,-105.2454834,-43.0244751,1,0,0,response5disk,,2,10.94696045,-4.431396484,1,0,0,rectangle,10.94696045,-4.431396484,1,0,0,10.94696045,-4.431396484,1,0,0,1,71,231,78,1,,,,,,,,
,,,,,,,,,,,,,FF,,,,,,,,0.8223,,,,,,,,,,,,,,,,,,,,,,6102285a4cadf6b3a87ed993,61036a4937ab380134ccb6de,2021-07-29_16h56.43.807,Simcolourproject_2stim_asymm_v5,2020.2.10,MacIntel,60,61025ae37ef11b136ea224fe,,,,,,,,,2223,-38.215271,-81.81982422,1,0,0,response5disk,,3,-11.64746094,-14.64685059,1,0,0,rectangle,-11.64746094,-14.64685059,1,0,0,-11.64746094,-14.64685059,1,0,0,1,72,232,116,1,,,,,,,,
,,,,,,,,,,,,,FF,,,,,,,,0.8673,,,,,,,,,,,,,,,,,,,,,,6102285a4cadf6b3a87ed993,61036a4937ab380134ccb6de,2021-07-29_16h56.43.807,Simcolourproject_2stim_asymm_v5,2020.2.10,MacIntel,60,61025ae37ef11b136ea224fe,,,,,,,,,2087,-44.18481445,-82.96624756,1,0,0,response5disk,,3,-21.96069336,3.025024414,1,0,0,rectangle,-21.96069336,3.025024414,1,0,0,-21.96069336,3.025024414,1,0,0,1,73,233,144,1,,,,,,,,
,,,,,,,,,,,,,FF,,,,,,,,0.9903,,,,,,,,,,,,,,,,,,,,,,6102285a4cadf6b3a87ed993,61036a4937ab380134ccb6de,2021-07-29_16h56.43.807,Simcolourproject_2stim_asymm_v5,2020.2.10,MacIntel,60,61025ae37ef11b136ea224fe,,,,,,,,,3515,-93.72296143,30.98883057,1,0,0,response7disk,,1,7.189086914,-1.13861084,1,0,0,rectangle,7.189086914,-1.13861084,1,0,0,7.189086914,-1.13861084,1,0,0,1,74,234,154,1,,,,,,,,
,,,,,,,,,,,,,FF,,,,,,,,0.9823,,,,,,,,,,,,,,,,,,,,,,6102285a4cadf6b3a87ed993,61036a4937ab380134ccb6de,2021-07-29_16h56.43.807,Simcolourproject_2stim_asymm_v5,2020.2.10,MacIntel,60,61025ae37ef11b136ea224fe,,,,,,,,,2125,85.75079346,-33.1663208,1,0,0,response3disk,,5,2.815124512,-3.607177734,1,0,0,rectangle,2.815124512,-3.607177734,1,0,0,2.815124512,-3.607177734,1,0,0,1,75,235,125,1,,,,,,,,
,,,,,,,,,,,,,FF,,,,,,,,1.9384,,,,,,,,,,,,,,,,,,,,,,6102285a4cadf6b3a87ed993,61036a4937ab380134ccb6de,2021-07-29_16h56.43.807,Simcolourproject_2stim_asymm_v5,2020.2.10,MacIntel,60,61025ae37ef11b136ea224fe,,,,,,,,,2700,47.67333984,76.37237549,1,0,0,response1disk,,7,-10.03527832,-11.30090332,1,0,0,rectangle,-10.03527832,-11.30090332,1,0,0,-10.03527832,-11.30090332,1,0,0,1,76,236,114,1,,,,,,,,
,,,,,,,,,,,,,FF,,,,,,,,1.3347,,,,,,,,,,,,,,,,,,,,,,6102285a4cadf6b3a87ed993,61036a4937ab380134ccb6de,2021-07-29_16h56.43.807,Simcolourproject_2stim_asymm_v5,2020.2.10,MacIntel,60,61025ae37ef11b136ea224fe,,,,,,,,,1420,45.07226563,-89.51861572,1,0,0,response3disk,,4,-8.463867188,7.222900391,1,0,0,rectangle,82.32519531,39.15222168,1,0,0,3.414611816,-5.86340332,1,0,0,1,77,237,34,1,,response1disk_3,TRUE,6,6,"[42,154,58,243,88,60,313,38,194,317,60,27,100,321,3,238,280,137,288,312]",1.7929,rectangle
,,,,,,,,,,,,,FF,,,,,,,,2.4207,,,,,,,,,,,,,,,,,,,,,,6102285a4cadf6b3a87ed993,61036a4937ab380134ccb6de,2021-07-29_16h56.43.807,Simcolourproject_2stim_asymm_v5,2020.2.10,MacIntel,60,61025ae37ef11b136ea224fe,,,,,,,,,3099,43.10772705,-78.98358154,1,0,0,response3disk,,4,15.50610352,-14.3850708,1,0,0,rectangle,15.50610352,-14.3850708,1,0,0,15.50610352,-14.3850708,1,0,0,1,78,238,109,1,,,,,,,,
,,,,,,,,,,,,,FF,,,,,,,,3.0495,,,,,,,,,,,,,,,,,,,,,,6102285a4cadf6b3a87ed993,61036a4937ab380134ccb6de,2021-07-29_16h56.43.807,Simcolourproject_2stim_asymm_v5,2020.2.10,MacIntel,60,61025ae37ef11b136ea224fe,,,,,,,,,123,46.63464355,-76.72387695,1,0,0,response3disk,,4,10.15209961,-0.543945313,1,0,0,rectangle,10.15209961,-0.543945313,1,0,0,10.15209961,-0.543945313,1,0,0,1,79,239,86,1,,,,,,,,
,,,,,,,,,,,,,FF,,,,,,,,0.8901,,,,,,,,,,,,,,,,,,,,,,6102285a4cadf6b3a87ed993,61036a4937ab380134ccb6de,2021-07-29_16h56.43.807,Simcolourproject_2stim_asymm_v5,2020.2.10,MacIntel,60,61025ae37ef11b136ea224fe,,,,,,,,,3907,-94.90966797,-30.05279541,1,0,0,response5disk,,2,-13.30847168,-5.158691406,1,0,0,rectangle,-13.30847168,-5.158691406,1,0,0,-13.30847168,-5.158691406,1,0,0,1,80,240,84,1,,,,,,,,
,,,,,,,,,,,,,FF,,,,,,,,0.7529,,,,,,,,,,,,,,,,,,,,,,6102285a4cadf6b3a87ed993,61036a4937ab380134ccb6de,2021-07-29_16h56.43.807,Simcolourproject_2stim_asymm_v5,2020.2.10,MacIntel,60,61025ae37ef11b136ea224fe,,,,,,,,,2548,-80.1204834,35.77871704,1,0,0,response7disk,,1,-3.830871582,6.719116211,1,0,0,rectangle,-3.830871582,6.719116211,1,0,0,-3.830871582,6.719116211,1,0,0,1,81,241,140,1,,,,,,,,
