key_resp.keys,key_resp.rt,key_resp_14.keys,key_resp_14.rt,key_resp_15.keys,key_resp_15.rt,key_resp_17.keys,key_resp_17.rt,key_resp_9.keys,key_resp_9.rt,key_resp_10.keys,key_resp_10.rt,practice_comparison,Ecc,mouse_5.x,mouse_5.y,mouse_5.leftButton,mouse_5.midButton,mouse_5.rightButton,mouse_5.clicked_name,pracsimilarity,response_time,mouse_10.x,mouse_10.y,mouse_10.leftButton,mouse_10.midButton,mouse_10.rightButton,mouse_10.clicked_name,mouse_7.x,mouse_7.y,mouse_7.leftButton,mouse_7.midButton,mouse_7.rightButton,mouse_6.x,mouse_6.y,mouse_6.leftButton,mouse_6.midButton,mouse_6.rightButton,duringprac.thisRepN,duringprac.thisTrialN,duringprac.thisN,duringprac.thisIndex,duringprac.ran,participant,session,date,expName,psychopyVersion,OS,frameRate,study_id,mouse_7.clicked_name,catchpracsimilarity,catch_response_time,catchnumberprac,catchtrialorderprac,mouse_6.clicked_name,key_resp_22.keys,key_resp_22.rt,realcomparison,mouse.x,mouse.y,mouse.leftButton,mouse.midButton,mouse.rightButton,mouse.clicked_name,Colour2,similarity,mouse_2.x,mouse_2.y,mouse_2.leftButton,mouse_2.midButton,mouse_2.rightButton,mouse_2.clicked_name,mouse_3.x,mouse_3.y,mouse_3.leftButton,mouse_3.midButton,mouse_3.rightButton,mouse_11.x,mouse_11.y,mouse_11.leftButton,mouse_11.midButton,mouse_11.rightButton,trials_2.thisRepN,trials_2.thisTrialN,trials_2.thisN,trials_2.thisIndex,trials_2.ran,Colour1,mouse_3.clicked_name,catchornah,catchsimilarity,catchnumber,catchtrialorder,catchRT,mouse_11.clicked_name
space,1.338,space,3.356,space,38.695,space,6.864,space,4.787,space,3.393,77,PF,-50,-46.5,1,0,0,response5disk_5,2,8.17,5,-0.5,1,0,0,rectangle_8,5,-0.5,1,0,0,5,-0.5,1,0,0,0,0,0,4,1,6102f1d7283089bf23293f50,61036e8b66eae2fdffa243ac,2021-07-29_20h16.06.215,Simcolourproject_2stim_asymm_v5,2020.2.10,MacIntel,60,61025ae37ef11b136ea224fe,,,,,,,,,,,,,,,,,,,,,,,,,,,,,,,,,,,,,,,,,,,,,,
,,,,,,,,,,,,130,FF,27,67.5,1,0,0,response1disk_5,7,2.186,6,-6.5,1,0,0,rectangle_8,-89,-45.5,1,0,0,-4,-2.5,1,0,0,0,1,1,0,1,6102f1d7283089bf23293f50,61036e8b66eae2fdffa243ac,2021-07-29_20h16.06.215,Simcolourproject_2stim_asymm_v5,2020.2.10,MacIntel,60,61025ae37ef11b136ea224fe,response5disk_7,2,3.068,2,"[2,5]",rectangle_4,,,,,,,,,,,,,,,,,,,,,,,,,,,,,,,,,,,,,,,,
,,,,,,,,,,,,65,PF,29,75.5,1,0,0,response1disk_5,7,2.655,4,-0.5,1,0,0,rectangle_8,4,-0.5,1,0,0,4,-0.5,1,0,0,0,2,2,1,1,6102f1d7283089bf23293f50,61036e8b66eae2fdffa243ac,2021-07-29_20h16.06.215,Simcolourproject_2stim_asymm_v5,2020.2.10,MacIntel,60,61025ae37ef11b136ea224fe,,,,,,,,,,,,,,,,,,,,,,,,,,,,,,,,,,,,,,,,,,,,,,
,,,,,,,,,,,,92,FF,-30,-62.5,1,0,0,response5disk_5,3,1.252,-11,-6.5,1,0,0,rectangle_8,-11,-6.5,1,0,0,-11,-6.5,1,0,0,0,3,3,5,1,6102f1d7283089bf23293f50,61036e8b66eae2fdffa243ac,2021-07-29_20h16.06.215,Simcolourproject_2stim_asymm_v5,2020.2.10,MacIntel,60,61025ae37ef11b136ea224fe,,,,,,,,,,,,,,,,,,,,,,,,,,,,,,,,,,,,,,,,,,,,,,
,,,,,,,,,,,,60,FF,89,-30.5,1,0,0,response3disk_5,5,1.519,-11,11.5,1,0,0,rectangle_8,-63,-33.5,1,0,0,-12,-1.5,1,0,0,0,4,4,3,1,6102f1d7283089bf23293f50,61036e8b66eae2fdffa243ac,2021-07-29_20h16.06.215,Simcolourproject_2stim_asymm_v5,2020.2.10,MacIntel,60,61025ae37ef11b136ea224fe,response5disk_7,2,1.566,2,"[2,5]",rectangle_4,,,,,,,,,,,,,,,,,,,,,,,,,,,,,,,,,,,,,,,,
,,,,,,,,,,,,131,PF,77,40.5,1,0,0,response1disk_5,6,1.818,-1,-5.5,1,0,0,rectangle_8,-1,-5.5,1,0,0,-1,-5.5,1,0,0,0,5,5,6,1,6102f1d7283089bf23293f50,61036e8b66eae2fdffa243ac,2021-07-29_20h16.06.215,Simcolourproject_2stim_asymm_v5,2020.2.10,MacIntel,60,61025ae37ef11b136ea224fe,,,,,,,,,,,,,,,,,,,,,,,,,,,,,,,,,,,,,,,,,,,,,,
,,,,,,,,,,,,114,PF,22,78.5,1,0,0,response1disk_5,7,1.822,-6,-3.5,1,0,0,rectangle_8,-6,-3.5,1,0,0,-6,-3.5,1,0,0,0,6,6,2,1,6102f1d7283089bf23293f50,61036e8b66eae2fdffa243ac,2021-07-29_20h16.06.215,Simcolourproject_2stim_asymm_v5,2020.2.10,MacIntel,60,61025ae37ef11b136ea224fe,,,,,,,,,,,,,,,,,,,,,,,,,,,,,,,,,,,,,,,,,,,,,,
,,,,,,,,,,,,,FF,,,,,,,,2.102,,,,,,,,,,,,,,,,,,,,,,6102f1d7283089bf23293f50,61036e8b66eae2fdffa243ac,2021-07-29_20h16.06.215,Simcolourproject_2stim_asymm_v5,2020.2.10,MacIntel,60,61025ae37ef11b136ea224fe,,,,,,,space,2.958,1941,62,67.5,1,0,0,response1disk,,7,-5,-6.5,1,0,0,rectangle,-5,-6.5,1,0,0,-5,-6.5,1,0,0,0,0,0,16,1,,,,,,,,
,,,,,,,,,,,,,FF,,,,,,,,1.484,,,,,,,,,,,,,,,,,,,,,,6102f1d7283089bf23293f50,61036e8b66eae2fdffa243ac,2021-07-29_20h16.06.215,Simcolourproject_2stim_asymm_v5,2020.2.10,MacIntel,60,61025ae37ef11b136ea224fe,,,,,,,,,3288,82,29.5,1,0,0,response1disk,,6,0,4.5,1,0,0,rectangle,0,4.5,1,0,0,0,4.5,1,0,0,0,1,1,15,1,,,,,,,,
,,,,,,,,,,,,,FF,,,,,,,,1.567,,,,,,,,,,,,,,,,,,,,,,6102f1d7283089bf23293f50,61036e8b66eae2fdffa243ac,2021-07-29_20h16.06.215,Simcolourproject_2stim_asymm_v5,2020.2.10,MacIntel,60,61025ae37ef11b136ea224fe,,,,,,,,,1762,84,-40.5,1,0,0,response3disk,,5,-1,-12.5,1,0,0,rectangle,-1,-12.5,1,0,0,-1,-12.5,1,0,0,0,2,2,130,1,,,,,,,,
,,,,,,,,,,,,,FF,,,,,,,,2.017,,,,,,,,,,,,,,,,,,,,,,6102f1d7283089bf23293f50,61036e8b66eae2fdffa243ac,2021-07-29_20h16.06.215,Simcolourproject_2stim_asymm_v5,2020.2.10,MacIntel,60,61025ae37ef11b136ea224fe,,,,,,,,,1604,-43,-78.5,1,0,0,response5disk,,3,6,1.5,1,0,0,rectangle,6,1.5,1,0,0,6,1.5,1,0,0,0,3,3,110,1,,,,,,,,
,,,,,,,,,,,,,FF,,,,,,,,1.333,,,,,,,,,,,,,,,,,,,,,,6102f1d7283089bf23293f50,61036e8b66eae2fdffa243ac,2021-07-29_20h16.06.215,Simcolourproject_2stim_asymm_v5,2020.2.10,MacIntel,60,61025ae37ef11b136ea224fe,,,,,,,,,198,55,-40.5,1,0,0,response3disk,,5,1,-0.5,1,0,0,rectangle,1,-0.5,1,0,0,1,-0.5,1,0,0,0,4,4,121,1,,,,,,,,
,,,,,,,,,,,,,FF,,,,,,,,2.618,,,,,,,,,,,,,,,,,,,,,,6102f1d7283089bf23293f50,61036e8b66eae2fdffa243ac,2021-07-29_20h16.06.215,Simcolourproject_2stim_asymm_v5,2020.2.10,MacIntel,60,61025ae37ef11b136ea224fe,,,,,,,,,2186,36,71.5,1,0,0,response1disk,,7,6,2.5,1,0,0,rectangle,6,2.5,1,0,0,6,2.5,1,0,0,0,5,5,118,1,,,,,,,,
,,,,,,,,,,,,,FF,,,,,,,,1.168,,,,,,,,,,,,,,,,,,,,,,6102f1d7283089bf23293f50,61036e8b66eae2fdffa243ac,2021-07-29_20h16.06.215,Simcolourproject_2stim_asymm_v5,2020.2.10,MacIntel,60,61025ae37ef11b136ea224fe,,,,,,,,,2393,71,50.5,1,0,0,response1disk,,6,4,-1.5,1,0,0,rectangle,4,-1.5,1,0,0,4,-1.5,1,0,0,0,6,6,51,1,,,,,,,,
,,,,,,,,,,,,,FF,,,,,,,,0.868,,,,,,,,,,,,,,,,,,,,,,6102f1d7283089bf23293f50,61036e8b66eae2fdffa243ac,2021-07-29_20h16.06.215,Simcolourproject_2stim_asymm_v5,2020.2.10,MacIntel,60,61025ae37ef11b136ea224fe,,,,,,,,,1089,45,62.5,1,0,0,response1disk,,7,5,0.5,1,0,0,rectangle,5,0.5,1,0,0,5,0.5,1,0,0,0,7,7,76,1,,,,,,,,
,,,,,,,,,,,,,FF,,,,,,,,1.418,,,,,,,,,,,,,,,,,,,,,,6102f1d7283089bf23293f50,61036e8b66eae2fdffa243ac,2021-07-29_20h16.06.215,Simcolourproject_2stim_asymm_v5,2020.2.10,MacIntel,60,61025ae37ef11b136ea224fe,,,,,,,,,3502,39,-64.5,1,0,0,response3disk,,4,6,-3.5,1,0,0,rectangle,6,-3.5,1,0,0,6,-3.5,1,0,0,0,8,8,122,1,,,,,,,,
,,,,,,,,,,,,,FF,,,,,,,,1.253,,,,,,,,,,,,,,,,,,,,,,6102f1d7283089bf23293f50,61036e8b66eae2fdffa243ac,2021-07-29_20h16.06.215,Simcolourproject_2stim_asymm_v5,2020.2.10,MacIntel,60,61025ae37ef11b136ea224fe,,,,,,,,,262,-65,-43.5,1,0,0,response5disk,,2,-23,-6.5,1,0,0,rectangle,-23,-6.5,1,0,0,-23,-6.5,1,0,0,0,9,9,134,1,,,,,,,,
,,,,,,,,,,,,,FF,,,,,,,,0.867,,,,,,,,,,,,,,,,,,,,,,6102f1d7283089bf23293f50,61036e8b66eae2fdffa243ac,2021-07-29_20h16.06.215,Simcolourproject_2stim_asymm_v5,2020.2.10,MacIntel,60,61025ae37ef11b136ea224fe,,,,,,,,,3180,70,32.5,1,0,0,response1disk,,6,3,-5.5,1,0,0,rectangle,3,-5.5,1,0,0,3,-5.5,1,0,0,0,10,10,114,1,,,,,,,,
,,,,,,,,,,,,,FF,,,,,,,,0.951,,,,,,,,,,,,,,,,,,,,,,6102f1d7283089bf23293f50,61036e8b66eae2fdffa243ac,2021-07-29_20h16.06.215,Simcolourproject_2stim_asymm_v5,2020.2.10,MacIntel,60,61025ae37ef11b136ea224fe,,,,,,,,,3767,34,63.5,1,0,0,response1disk,,7,20,2.5,1,0,0,rectangle,20,2.5,1,0,0,20,2.5,1,0,0,0,11,11,133,1,,,,,,,,
,,,,,,,,,,,,,FF,,,,,,,,0.667,,,,,,,,,,,,,,,,,,,,,,6102f1d7283089bf23293f50,61036e8b66eae2fdffa243ac,2021-07-29_20h16.06.215,Simcolourproject_2stim_asymm_v5,2020.2.10,MacIntel,60,61025ae37ef11b136ea224fe,,,,,,,,,884,29,63.5,1,0,0,response1disk,,7,11,3.5,1,0,0,rectangle,11,3.5,1,0,0,11,3.5,1,0,0,0,12,12,25,1,,,,,,,,
,,,,,,,,,,,,,FF,,,,,,,,1.25,,,,,,,,,,,,,,,,,,,,,,6102f1d7283089bf23293f50,61036e8b66eae2fdffa243ac,2021-07-29_20h16.06.215,Simcolourproject_2stim_asymm_v5,2020.2.10,MacIntel,60,61025ae37ef11b136ea224fe,,,,,,,,,3871,36,26.5,1,0,0,response1disk,,6,-2,-4.5,1,0,0,rectangle,-31,50.5,1,0,0,-1,-3.5,1,0,0,0,13,13,142,1,,response7disk_3,TRUE,0,0,"[272,108,84,64,195,181,290,97,133,280,44,157,253,296,262,179,22,232,209,14]",2.055,rectangle
,,,,,,,,,,,,,FF,,,,,,,,1.186,,,,,,,,,,,,,,,,,,,,,,6102f1d7283089bf23293f50,61036e8b66eae2fdffa243ac,2021-07-29_20h16.06.215,Simcolourproject_2stim_asymm_v5,2020.2.10,MacIntel,60,61025ae37ef11b136ea224fe,,,,,,,,,3001,82,-26.5,1,0,0,response3disk,,5,19,-7.5,1,0,0,rectangle,19,-7.5,1,0,0,19,-7.5,1,0,0,0,14,14,42,1,,,,,,,,
,,,,,,,,,,,,,FF,,,,,,,,0.933,,,,,,,,,,,,,,,,,,,,,,6102f1d7283089bf23293f50,61036e8b66eae2fdffa243ac,2021-07-29_20h16.06.215,Simcolourproject_2stim_asymm_v5,2020.2.10,MacIntel,60,61025ae37ef11b136ea224fe,,,,,,,,,2017,33,64.5,1,0,0,response1disk,,7,12,6.5,1,0,0,rectangle,12,6.5,1,0,0,12,6.5,1,0,0,0,15,15,97,1,,,,,,,,
,,,,,,,,,,,,,FF,,,,,,,,0.702,,,,,,,,,,,,,,,,,,,,,,6102f1d7283089bf23293f50,61036e8b66eae2fdffa243ac,2021-07-29_20h16.06.215,Simcolourproject_2stim_asymm_v5,2020.2.10,MacIntel,60,61025ae37ef11b136ea224fe,,,,,,,,,2342,46,87.5,1,0,0,response1disk,,7,-12,-5.5,1,0,0,rectangle,-12,-5.5,1,0,0,-12,-5.5,1,0,0,0,16,16,84,1,,,,,,,,
,,,,,,,,,,,,,FF,,,,,,,,1.001,,,,,,,,,,,,,,,,,,,,,,6102f1d7283089bf23293f50,61036e8b66eae2fdffa243ac,2021-07-29_20h16.06.215,Simcolourproject_2stim_asymm_v5,2020.2.10,MacIntel,60,61025ae37ef11b136ea224fe,,,,,,,,,225,44,71.5,1,0,0,response1disk,,7,1,1.5,1,0,0,rectangle,1,1.5,1,0,0,1,1.5,1,0,0,0,17,17,35,1,,,,,,,,
,,,,,,,,,,,,,FF,,,,,,,,1.068,,,,,,,,,,,,,,,,,,,,,,6102f1d7283089bf23293f50,61036e8b66eae2fdffa243ac,2021-07-29_20h16.06.215,Simcolourproject_2stim_asymm_v5,2020.2.10,MacIntel,60,61025ae37ef11b136ea224fe,,,,,,,,,485,72,41.5,1,0,0,response1disk,,6,-1,-12.5,1,0,0,rectangle,-1,-12.5,1,0,0,-1,-12.5,1,0,0,0,18,18,99,1,,,,,,,,
,,,,,,,,,,,,,FF,,,,,,,,1.251,,,,,,,,,,,,,,,,,,,,,,6102f1d7283089bf23293f50,61036e8b66eae2fdffa243ac,2021-07-29_20h16.06.215,Simcolourproject_2stim_asymm_v5,2020.2.10,MacIntel,60,61025ae37ef11b136ea224fe,,,,,,,,,3968,54,-62.5,1,0,0,response3disk,,4,10,-2.5,1,0,0,rectangle,10,-2.5,1,0,0,10,-2.5,1,0,0,0,19,19,27,1,,,,,,,,
,,,,,,,,,,,,,FF,,,,,,,,1.569,,,,,,,,,,,,,,,,,,,,,,6102f1d7283089bf23293f50,61036e8b66eae2fdffa243ac,2021-07-29_20h16.06.215,Simcolourproject_2stim_asymm_v5,2020.2.10,MacIntel,60,61025ae37ef11b136ea224fe,,,,,,,,,61,65,-36.5,1,0,0,response3disk,,5,18,-9.5,1,0,0,rectangle,18,-9.5,1,0,0,18,-9.5,1,0,0,0,20,20,49,1,,,,,,,,
,,,,,,,,,,,,,FF,,,,,,,,0.967,,,,,,,,,,,,,,,,,,,,,,6102f1d7283089bf23293f50,61036e8b66eae2fdffa243ac,2021-07-29_20h16.06.215,Simcolourproject_2stim_asymm_v5,2020.2.10,MacIntel,60,61025ae37ef11b136ea224fe,,,,,,,,,1035,34,69.5,1,0,0,response1disk,,7,12,-6.5,1,0,0,rectangle,27,-68.5,1,0,0,5,0.5,1,0,0,0,21,21,22,1,,response3disk_3,TRUE,4,4,"[272,108,84,64,195,181,290,97,133,280,44,157,253,296,262,179,22,232,209,14]",1.551,rectangle
,,,,,,,,,,,,,FF,,,,,,,,0.65,,,,,,,,,,,,,,,,,,,,,,6102f1d7283089bf23293f50,61036e8b66eae2fdffa243ac,2021-07-29_20h16.06.215,Simcolourproject_2stim_asymm_v5,2020.2.10,MacIntel,60,61025ae37ef11b136ea224fe,,,,,,,,,1471,40,64.5,1,0,0,response1disk,,7,20,-0.5,1,0,0,rectangle,20,-0.5,1,0,0,20,-0.5,1,0,0,0,22,22,36,1,,,,,,,,
,,,,,,,,,,,,,FF,,,,,,,,0.933,,,,,,,,,,,,,,,,,,,,,,6102f1d7283089bf23293f50,61036e8b66eae2fdffa243ac,2021-07-29_20h16.06.215,Simcolourproject_2stim_asymm_v5,2020.2.10,MacIntel,60,61025ae37ef11b136ea224fe,,,,,,,,,1225,52,19.5,1,0,0,response1disk,,6,-4,4.5,1,0,0,rectangle,-4,4.5,1,0,0,-4,4.5,1,0,0,0,23,23,24,1,,,,,,,,
,,,,,,,,,,,,,FF,,,,,,,,2.117,,,,,,,,,,,,,,,,,,,,,,6102f1d7283089bf23293f50,61036e8b66eae2fdffa243ac,2021-07-29_20h16.06.215,Simcolourproject_2stim_asymm_v5,2020.2.10,MacIntel,60,61025ae37ef11b136ea224fe,,,,,,,,,2743,30,67.5,1,0,0,response1disk,,7,-15,-11.5,1,0,0,rectangle,-15,-11.5,1,0,0,-15,-11.5,1,0,0,0,24,24,136,1,,,,,,,,
,,,,,,,,,,,,,FF,,,,,,,,1.134,,,,,,,,,,,,,,,,,,,,,,6102f1d7283089bf23293f50,61036e8b66eae2fdffa243ac,2021-07-29_20h16.06.215,Simcolourproject_2stim_asymm_v5,2020.2.10,MacIntel,60,61025ae37ef11b136ea224fe,,,,,,,,,4316,-70,22.5,1,0,0,response7disk,,1,-9,6.5,1,0,0,rectangle,-9,6.5,1,0,0,-9,6.5,1,0,0,0,25,25,126,1,,,,,,,,
,,,,,,,,,,,,,FF,,,,,,,,0.585,,,,,,,,,,,,,,,,,,,,,,6102f1d7283089bf23293f50,61036e8b66eae2fdffa243ac,2021-07-29_20h16.06.215,Simcolourproject_2stim_asymm_v5,2020.2.10,MacIntel,60,61025ae37ef11b136ea224fe,,,,,,,,,4335,-41,59.5,1,0,0,response7disk,,0,-2,-8.5,1,0,0,rectangle,-2,-8.5,1,0,0,-2,-8.5,1,0,0,0,26,26,54,1,,,,,,,,
,,,,,,,,,,,,,FF,,,,,,,,0.816,,,,,,,,,,,,,,,,,,,,,,6102f1d7283089bf23293f50,61036e8b66eae2fdffa243ac,2021-07-29_20h16.06.215,Simcolourproject_2stim_asymm_v5,2020.2.10,MacIntel,60,61025ae37ef11b136ea224fe,,,,,,,,,1630,37,49.5,1,0,0,response1disk,,7,15,-4.5,1,0,0,rectangle,15,-4.5,1,0,0,15,-4.5,1,0,0,0,27,27,144,1,,,,,,,,
,,,,,,,,,,,,,FF,,,,,,,,1.084,,,,,,,,,,,,,,,,,,,,,,6102f1d7283089bf23293f50,61036e8b66eae2fdffa243ac,2021-07-29_20h16.06.215,Simcolourproject_2stim_asymm_v5,2020.2.10,MacIntel,60,61025ae37ef11b136ea224fe,,,,,,,,,1475,64,-16.5,1,0,0,response3disk,,5,14,-13.5,1,0,0,rectangle,14,-13.5,1,0,0,14,-13.5,1,0,0,0,28,28,55,1,,,,,,,,
,,,,,,,,,,,,,FF,,,,,,,,1.867,,,,,,,,,,,,,,,,,,,,,,6102f1d7283089bf23293f50,61036e8b66eae2fdffa243ac,2021-07-29_20h16.06.215,Simcolourproject_2stim_asymm_v5,2020.2.10,MacIntel,60,61025ae37ef11b136ea224fe,,,,,,,,,3821,62,-25.5,1,0,0,response3disk,,5,18,0.5,1,0,0,rectangle,18,0.5,1,0,0,18,0.5,1,0,0,0,29,29,92,1,,,,,,,,
,,,,,,,,,,,,,FF,,,,,,,,1.217,,,,,,,,,,,,,,,,,,,,,,6102f1d7283089bf23293f50,61036e8b66eae2fdffa243ac,2021-07-29_20h16.06.215,Simcolourproject_2stim_asymm_v5,2020.2.10,MacIntel,60,61025ae37ef11b136ea224fe,,,,,,,,,500,23,34.5,1,0,0,response1disk,,7,2,-6.5,1,0,0,rectangle,2,-6.5,1,0,0,2,-6.5,1,0,0,0,30,30,100,1,,,,,,,,
,,,,,,,,,,,,,FF,,,,,,,,3.383,,,,,,,,,,,,,,,,,,,,,,6102f1d7283089bf23293f50,61036e8b66eae2fdffa243ac,2021-07-29_20h16.06.215,Simcolourproject_2stim_asymm_v5,2020.2.10,MacIntel,60,61025ae37ef11b136ea224fe,,,,,,,,,3576,74,38.5,1,0,0,response1disk,,6,-1,-3.5,1,0,0,rectangle,-1,-3.5,1,0,0,-1,-3.5,1,0,0,0,31,31,108,1,,,,,,,,
,,,,,,,,,,,,,FF,,,,,,,,0.883,,,,,,,,,,,,,,,,,,,,,,6102f1d7283089bf23293f50,61036e8b66eae2fdffa243ac,2021-07-29_20h16.06.215,Simcolourproject_2stim_asymm_v5,2020.2.10,MacIntel,60,61025ae37ef11b136ea224fe,,,,,,,,,2860,42,68.5,1,0,0,response1disk,,7,20,7.5,1,0,0,rectangle,20,7.5,1,0,0,20,7.5,1,0,0,0,32,32,139,1,,,,,,,,
,,,,,,,,,,,,,FF,,,,,,,,1.052,,,,,,,,,,,,,,,,,,,,,,6102f1d7283089bf23293f50,61036e8b66eae2fdffa243ac,2021-07-29_20h16.06.215,Simcolourproject_2stim_asymm_v5,2020.2.10,MacIntel,60,61025ae37ef11b136ea224fe,,,,,,,,,4331,-22,-52.5,1,0,0,response5disk,,3,-13,-5.5,1,0,0,rectangle,-13,-5.5,1,0,0,-13,-5.5,1,0,0,0,33,33,74,1,,,,,,,,
,,,,,,,,,,,,,FF,,,,,,,,0.717,,,,,,,,,,,,,,,,,,,,,,6102f1d7283089bf23293f50,61036e8b66eae2fdffa243ac,2021-07-29_20h16.06.215,Simcolourproject_2stim_asymm_v5,2020.2.10,MacIntel,60,61025ae37ef11b136ea224fe,,,,,,,,,1641,39,67.5,1,0,0,response1disk,,7,11,2.5,1,0,0,rectangle,11,2.5,1,0,0,11,2.5,1,0,0,0,34,34,112,1,,,,,,,,
,,,,,,,,,,,,,FF,,,,,,,,1.65,,,,,,,,,,,,,,,,,,,,,,6102f1d7283089bf23293f50,61036e8b66eae2fdffa243ac,2021-07-29_20h16.06.215,Simcolourproject_2stim_asymm_v5,2020.2.10,MacIntel,60,61025ae37ef11b136ea224fe,,,,,,,,,3942,71,-37.5,1,0,0,response3disk,,5,6,-1.5,1,0,0,rectangle,6,-1.5,1,0,0,6,-1.5,1,0,0,0,35,35,31,1,,,,,,,,
,,,,,,,,,,,,,FF,,,,,,,,0.985,,,,,,,,,,,,,,,,,,,,,,6102f1d7283089bf23293f50,61036e8b66eae2fdffa243ac,2021-07-29_20h16.06.215,Simcolourproject_2stim_asymm_v5,2020.2.10,MacIntel,60,61025ae37ef11b136ea224fe,,,,,,,,,700,-19,-58.5,1,0,0,response5disk,,3,1,0.5,1,0,0,rectangle,1,0.5,1,0,0,1,0.5,1,0,0,0,36,36,47,1,,,,,,,,
,,,,,,,,,,,,,FF,,,,,,,,0.966,,,,,,,,,,,,,,,,,,,,,,6102f1d7283089bf23293f50,61036e8b66eae2fdffa243ac,2021-07-29_20h16.06.215,Simcolourproject_2stim_asymm_v5,2020.2.10,MacIntel,60,61025ae37ef11b136ea224fe,,,,,,,,,1464,39,83.5,1,0,0,response1disk,,7,17,3.5,1,0,0,rectangle,17,3.5,1,0,0,17,3.5,1,0,0,0,37,37,151,1,,,,,,,,
,,,,,,,,,,,,,FF,,,,,,,,1.355,,,,,,,,,,,,,,,,,,,,,,6102f1d7283089bf23293f50,61036e8b66eae2fdffa243ac,2021-07-29_20h16.06.215,Simcolourproject_2stim_asymm_v5,2020.2.10,MacIntel,60,61025ae37ef11b136ea224fe,,,,,,,,,1854,36,74.5,1,0,0,response1disk,,7,7,-1.5,1,0,0,rectangle,7,-1.5,1,0,0,7,-1.5,1,0,0,0,38,38,41,1,,,,,,,,
,,,,,,,,,,,,,FF,,,,,,,,2.618,,,,,,,,,,,,,,,,,,,,,,6102f1d7283089bf23293f50,61036e8b66eae2fdffa243ac,2021-07-29_20h16.06.215,Simcolourproject_2stim_asymm_v5,2020.2.10,MacIntel,60,61025ae37ef11b136ea224fe,,,,,,,,,1006,36,-59.5,1,0,0,response3disk,,4,-3,-4.5,1,0,0,rectangle,-3,-4.5,1,0,0,-3,-4.5,1,0,0,0,39,39,140,1,,,,,,,,
,,,,,,,,,,,,,FF,,,,,,,,1.4,,,,,,,,,,,,,,,,,,,,,,6102f1d7283089bf23293f50,61036e8b66eae2fdffa243ac,2021-07-29_20h16.06.215,Simcolourproject_2stim_asymm_v5,2020.2.10,MacIntel,60,61025ae37ef11b136ea224fe,,,,,,,,,1617,78,-47.5,1,0,0,response3disk,,5,12,-6.5,1,0,0,rectangle,12,-6.5,1,0,0,12,-6.5,1,0,0,0,40,40,53,1,,,,,,,,
,,,,,,,,,,,,,FF,,,,,,,,0.789,,,,,,,,,,,,,,,,,,,,,,6102f1d7283089bf23293f50,61036e8b66eae2fdffa243ac,2021-07-29_20h16.06.215,Simcolourproject_2stim_asymm_v5,2020.2.10,MacIntel,60,61025ae37ef11b136ea224fe,,,,,,,,,1491,38,59.5,1,0,0,response1disk,,7,15,0.5,1,0,0,rectangle,15,0.5,1,0,0,15,0.5,1,0,0,0,41,41,129,1,,,,,,,,
,,,,,,,,,,,,,FF,,,,,,,,1.033,,,,,,,,,,,,,,,,,,,,,,6102f1d7283089bf23293f50,61036e8b66eae2fdffa243ac,2021-07-29_20h16.06.215,Simcolourproject_2stim_asymm_v5,2020.2.10,MacIntel,60,61025ae37ef11b136ea224fe,,,,,,,,,4366,-57,-34.5,1,0,0,response5disk,,2,-1,-4.5,1,0,0,rectangle,-1,-4.5,1,0,0,-1,-4.5,1,0,0,0,42,42,72,1,,,,,,,,
,,,,,,,,,,,,,FF,,,,,,,,4.882,,,,,,,,,,,,,,,,,,,,,,6102f1d7283089bf23293f50,61036e8b66eae2fdffa243ac,2021-07-29_20h16.06.215,Simcolourproject_2stim_asymm_v5,2020.2.10,MacIntel,60,61025ae37ef11b136ea224fe,,,,,,,,,2524,52,69.5,1,0,0,response1disk,,7,8,-6.5,1,0,0,rectangle,58,62.5,1,0,0,-1,-0.5,1,0,0,0,43,43,26,1,,response1disk_3,TRUE,7,7,"[272,108,84,64,195,181,290,97,133,280,44,157,253,296,262,179,22,232,209,14]",1.965,rectangle
,,,,,,,,,,,,,FF,,,,,,,,1.04,,,,,,,,,,,,,,,,,,,,,,6102f1d7283089bf23293f50,61036e8b66eae2fdffa243ac,2021-07-29_20h16.06.215,Simcolourproject_2stim_asymm_v5,2020.2.10,MacIntel,60,61025ae37ef11b136ea224fe,,,,,,,,,3663,-27,-64.5,1,0,0,response5disk,,3,3,2.5,1,0,0,rectangle,3,2.5,1,0,0,3,2.5,1,0,0,0,44,44,4,1,,,,,,,,
,,,,,,,,,,,,,FF,,,,,,,,1.583,,,,,,,,,,,,,,,,,,,,,,6102f1d7283089bf23293f50,61036e8b66eae2fdffa243ac,2021-07-29_20h16.06.215,Simcolourproject_2stim_asymm_v5,2020.2.10,MacIntel,60,61025ae37ef11b136ea224fe,,,,,,,,,3399,36,-82.5,1,0,0,response3disk,,4,8,-4.5,1,0,0,rectangle,8,-4.5,1,0,0,8,-4.5,1,0,0,0,45,45,157,1,,,,,,,,
,,,,,,,,,,,,,FF,,,,,,,,1.617,,,,,,,,,,,,,,,,,,,,,,6102f1d7283089bf23293f50,61036e8b66eae2fdffa243ac,2021-07-29_20h16.06.215,Simcolourproject_2stim_asymm_v5,2020.2.10,MacIntel,60,61025ae37ef11b136ea224fe,,,,,,,,,3505,70,-40.5,1,0,0,response3disk,,5,-9,13.5,1,0,0,rectangle,-9,13.5,1,0,0,-9,13.5,1,0,0,0,46,46,30,1,,,,,,,,
,,,,,,,,,,,,,FF,,,,,,,,0.738,,,,,,,,,,,,,,,,,,,,,,6102f1d7283089bf23293f50,61036e8b66eae2fdffa243ac,2021-07-29_20h16.06.215,Simcolourproject_2stim_asymm_v5,2020.2.10,MacIntel,60,61025ae37ef11b136ea224fe,,,,,,,,,237,45,63.5,1,0,0,response1disk,,7,8,-5.5,1,0,0,rectangle,8,-5.5,1,0,0,8,-5.5,1,0,0,0,47,47,104,1,,,,,,,,
,,,,,,,,,,,,,FF,,,,,,,,1.616,,,,,,,,,,,,,,,,,,,,,,6102f1d7283089bf23293f50,61036e8b66eae2fdffa243ac,2021-07-29_20h16.06.215,Simcolourproject_2stim_asymm_v5,2020.2.10,MacIntel,60,61025ae37ef11b136ea224fe,,,,,,,,,4038,38,68.5,1,0,0,response1disk,,7,-2,5.5,1,0,0,rectangle,-2,5.5,1,0,0,-2,5.5,1,0,0,0,48,48,39,1,,,,,,,,
,,,,,,,,,,,,,FF,,,,,,,,0.685,,,,,,,,,,,,,,,,,,,,,,6102f1d7283089bf23293f50,61036e8b66eae2fdffa243ac,2021-07-29_20h16.06.215,Simcolourproject_2stim_asymm_v5,2020.2.10,MacIntel,60,61025ae37ef11b136ea224fe,,,,,,,,,2144,32,64.5,1,0,0,response1disk,,7,12,-7.5,1,0,0,rectangle,12,-7.5,1,0,0,12,-7.5,1,0,0,0,49,49,83,1,,,,,,,,
,,,,,,,,,,,,,FF,,,,,,,,1.102,,,,,,,,,,,,,,,,,,,,,,6102f1d7283089bf23293f50,61036e8b66eae2fdffa243ac,2021-07-29_20h16.06.215,Simcolourproject_2stim_asymm_v5,2020.2.10,MacIntel,60,61025ae37ef11b136ea224fe,,,,,,,,,3382,-71,-38.5,1,0,0,response5disk,,2,-13,-10.5,1,0,0,rectangle,-13,-10.5,1,0,0,-13,-10.5,1,0,0,0,50,50,62,1,,,,,,,,
,,,,,,,,,,,,,FF,,,,,,,,0.717,,,,,,,,,,,,,,,,,,,,,,6102f1d7283089bf23293f50,61036e8b66eae2fdffa243ac,2021-07-29_20h16.06.215,Simcolourproject_2stim_asymm_v5,2020.2.10,MacIntel,60,61025ae37ef11b136ea224fe,,,,,,,,,4161,-44,90.5,1,0,0,response7disk,,0,12,-1.5,1,0,0,rectangle,12,-1.5,1,0,0,12,-1.5,1,0,0,0,51,51,78,1,,,,,,,,
,,,,,,,,,,,,,FF,,,,,,,,0.75,,,,,,,,,,,,,,,,,,,,,,6102f1d7283089bf23293f50,61036e8b66eae2fdffa243ac,2021-07-29_20h16.06.215,Simcolourproject_2stim_asymm_v5,2020.2.10,MacIntel,60,61025ae37ef11b136ea224fe,,,,,,,,,4089,50,69.5,1,0,0,response1disk,,7,12,1.5,1,0,0,rectangle,12,1.5,1,0,0,12,1.5,1,0,0,0,52,52,68,1,,,,,,,,
,,,,,,,,,,,,,FF,,,,,,,,0.633,,,,,,,,,,,,,,,,,,,,,,6102f1d7283089bf23293f50,61036e8b66eae2fdffa243ac,2021-07-29_20h16.06.215,Simcolourproject_2stim_asymm_v5,2020.2.10,MacIntel,60,61025ae37ef11b136ea224fe,,,,,,,,,1578,33,78.5,1,0,0,response1disk,,7,6,-7.5,1,0,0,rectangle,6,-7.5,1,0,0,6,-7.5,1,0,0,0,53,53,46,1,,,,,,,,
,,,,,,,,,,,,,FF,,,,,,,,0.601,,,,,,,,,,,,,,,,,,,,,,6102f1d7283089bf23293f50,61036e8b66eae2fdffa243ac,2021-07-29_20h16.06.215,Simcolourproject_2stim_asymm_v5,2020.2.10,MacIntel,60,61025ae37ef11b136ea224fe,,,,,,,,,841,37,69.5,1,0,0,response1disk,,7,-1,-4.5,1,0,0,rectangle,-1,-4.5,1,0,0,-1,-4.5,1,0,0,0,54,54,75,1,,,,,,,,
,,,,,,,,,,,,,FF,,,,,,,,0.6,,,,,,,,,,,,,,,,,,,,,,6102f1d7283089bf23293f50,61036e8b66eae2fdffa243ac,2021-07-29_20h16.06.215,Simcolourproject_2stim_asymm_v5,2020.2.10,MacIntel,60,61025ae37ef11b136ea224fe,,,,,,,,,784,40,81.5,1,0,0,response1disk,,7,4,-11.5,1,0,0,rectangle,4,-11.5,1,0,0,4,-11.5,1,0,0,0,55,55,85,1,,,,,,,,
,,,,,,,,,,,,,FF,,,,,,,,0.733,,,,,,,,,,,,,,,,,,,,,,6102f1d7283089bf23293f50,61036e8b66eae2fdffa243ac,2021-07-29_20h16.06.215,Simcolourproject_2stim_asymm_v5,2020.2.10,MacIntel,60,61025ae37ef11b136ea224fe,,,,,,,,,1856,36,50.5,1,0,0,response1disk,,7,5,0.5,1,0,0,rectangle,5,0.5,1,0,0,5,0.5,1,0,0,0,56,56,57,1,,,,,,,,
,,,,,,,,,,,,,FF,,,,,,,,0.786,,,,,,,,,,,,,,,,,,,,,,6102f1d7283089bf23293f50,61036e8b66eae2fdffa243ac,2021-07-29_20h16.06.215,Simcolourproject_2stim_asymm_v5,2020.2.10,MacIntel,60,61025ae37ef11b136ea224fe,,,,,,,,,4257,48,73.5,1,0,0,response1disk,,7,12,-0.5,1,0,0,rectangle,12,-0.5,1,0,0,12,-0.5,1,0,0,0,57,57,5,1,,,,,,,,
,,,,,,,,,,,,,FF,,,,,,,,1.2,,,,,,,,,,,,,,,,,,,,,,6102f1d7283089bf23293f50,61036e8b66eae2fdffa243ac,2021-07-29_20h16.06.215,Simcolourproject_2stim_asymm_v5,2020.2.10,MacIntel,60,61025ae37ef11b136ea224fe,,,,,,,,,900,74,36.5,1,0,0,response1disk,,6,-10,-3.5,1,0,0,rectangle,-10,-3.5,1,0,0,-10,-3.5,1,0,0,0,58,58,87,1,,,,,,,,
,,,,,,,,,,,,,FF,,,,,,,,1.266,,,,,,,,,,,,,,,,,,,,,,6102f1d7283089bf23293f50,61036e8b66eae2fdffa243ac,2021-07-29_20h16.06.215,Simcolourproject_2stim_asymm_v5,2020.2.10,MacIntel,60,61025ae37ef11b136ea224fe,,,,,,,,,1968,71,-35.5,1,0,0,response3disk,,5,8,-6.5,1,0,0,rectangle,8,-6.5,1,0,0,8,-6.5,1,0,0,0,59,59,67,1,,,,,,,,
,,,,,,,,,,,,,FF,,,,,,,,1.017,,,,,,,,,,,,,,,,,,,,,,6102f1d7283089bf23293f50,61036e8b66eae2fdffa243ac,2021-07-29_20h16.06.215,Simcolourproject_2stim_asymm_v5,2020.2.10,MacIntel,60,61025ae37ef11b136ea224fe,,,,,,,,,1065,67,-31.5,1,0,0,response3disk,,5,13,-13.5,1,0,0,rectangle,13,-13.5,1,0,0,13,-13.5,1,0,0,0,60,60,69,1,,,,,,,,
,,,,,,,,,,,,,FF,,,,,,,,1.051,,,,,,,,,,,,,,,,,,,,,,6102f1d7283089bf23293f50,61036e8b66eae2fdffa243ac,2021-07-29_20h16.06.215,Simcolourproject_2stim_asymm_v5,2020.2.10,MacIntel,60,61025ae37ef11b136ea224fe,,,,,,,,,1301,64,-22.5,1,0,0,response3disk,,5,20,-9.5,1,0,0,rectangle,20,-9.5,1,0,0,20,-9.5,1,0,0,0,61,61,2,1,,,,,,,,
,,,,,,,,,,,,,FF,,,,,,,,0.651,,,,,,,,,,,,,,,,,,,,,,6102f1d7283089bf23293f50,61036e8b66eae2fdffa243ac,2021-07-29_20h16.06.215,Simcolourproject_2stim_asymm_v5,2020.2.10,MacIntel,60,61025ae37ef11b136ea224fe,,,,,,,,,1463,84,-33.5,1,0,0,response3disk,,5,-10,12.5,1,0,0,rectangle,-10,12.5,1,0,0,-10,12.5,1,0,0,0,62,62,116,1,,,,,,,,
,,,,,,,,,,,,,FF,,,,,,,,1.055,,,,,,,,,,,,,,,,,,,,,,6102f1d7283089bf23293f50,61036e8b66eae2fdffa243ac,2021-07-29_20h16.06.215,Simcolourproject_2stim_asymm_v5,2020.2.10,MacIntel,60,61025ae37ef11b136ea224fe,,,,,,,,,3419,38,61.5,1,0,0,response1disk,,7,7,5.5,1,0,0,rectangle,43,67.5,1,0,0,5,-1.5,1,0,0,0,63,63,65,1,,response1disk_3,TRUE,7,7,"[272,108,84,64,195,181,290,97,133,280,44,157,253,296,262,179,22,232,209,14]",1.827,rectangle
,,,,,,,,,,,,,FF,,,,,,,,0.822,,,,,,,,,,,,,,,,,,,,,,6102f1d7283089bf23293f50,61036e8b66eae2fdffa243ac,2021-07-29_20h16.06.215,Simcolourproject_2stim_asymm_v5,2020.2.10,MacIntel,60,61025ae37ef11b136ea224fe,,,,,,,,,2362,-38,59.5,1,0,0,response7disk,,0,-4,3.5,1,0,0,rectangle,-4,3.5,1,0,0,-4,3.5,1,0,0,0,64,64,1,1,,,,,,,,
,,,,,,,,,,,,,FF,,,,,,,,0.733,,,,,,,,,,,,,,,,,,,,,,6102f1d7283089bf23293f50,61036e8b66eae2fdffa243ac,2021-07-29_20h16.06.215,Simcolourproject_2stim_asymm_v5,2020.2.10,MacIntel,60,61025ae37ef11b136ea224fe,,,,,,,,,3118,41,70.5,1,0,0,response1disk,,7,7,7.5,1,0,0,rectangle,7,7.5,1,0,0,7,7.5,1,0,0,0,65,65,33,1,,,,,,,,
,,,,,,,,,,,,,FF,,,,,,,,0.635,,,,,,,,,,,,,,,,,,,,,,6102f1d7283089bf23293f50,61036e8b66eae2fdffa243ac,2021-07-29_20h16.06.215,Simcolourproject_2stim_asymm_v5,2020.2.10,MacIntel,60,61025ae37ef11b136ea224fe,,,,,,,,,1914,42,80.5,1,0,0,response1disk,,7,-10,-1.5,1,0,0,rectangle,-10,-1.5,1,0,0,-10,-1.5,1,0,0,0,66,66,23,1,,,,,,,,
,,,,,,,,,,,,,FF,,,,,,,,0.75,,,,,,,,,,,,,,,,,,,,,,6102f1d7283089bf23293f50,61036e8b66eae2fdffa243ac,2021-07-29_20h16.06.215,Simcolourproject_2stim_asymm_v5,2020.2.10,MacIntel,60,61025ae37ef11b136ea224fe,,,,,,,,,2575,27,55.5,1,0,0,response1disk,,7,-1,3.5,1,0,0,rectangle,-1,3.5,1,0,0,-1,3.5,1,0,0,0,67,67,137,1,,,,,,,,
,,,,,,,,,,,,,FF,,,,,,,,0.567,,,,,,,,,,,,,,,,,,,,,,6102f1d7283089bf23293f50,61036e8b66eae2fdffa243ac,2021-07-29_20h16.06.215,Simcolourproject_2stim_asymm_v5,2020.2.10,MacIntel,60,61025ae37ef11b136ea224fe,,,,,,,,,2462,35,70.5,1,0,0,response1disk,,7,5,-5.5,1,0,0,rectangle,5,-5.5,1,0,0,5,-5.5,1,0,0,0,68,68,20,1,,,,,,,,
,,,,,,,,,,,,,FF,,,,,,,,0.934,,,,,,,,,,,,,,,,,,,,,,6102f1d7283089bf23293f50,61036e8b66eae2fdffa243ac,2021-07-29_20h16.06.215,Simcolourproject_2stim_asymm_v5,2020.2.10,MacIntel,60,61025ae37ef11b136ea224fe,,,,,,,,,1138,-26,-80.5,1,0,0,response5disk,,3,2,-3.5,1,0,0,rectangle,2,-3.5,1,0,0,2,-3.5,1,0,0,0,69,69,107,1,,,,,,,,
,,,,,,,,,,,,,FF,,,,,,,,0.984,,,,,,,,,,,,,,,,,,,,,,6102f1d7283089bf23293f50,61036e8b66eae2fdffa243ac,2021-07-29_20h16.06.215,Simcolourproject_2stim_asymm_v5,2020.2.10,MacIntel,60,61025ae37ef11b136ea224fe,,,,,,,,,995,53,-26.5,1,0,0,response3disk,,5,7,-7.5,1,0,0,rectangle,7,-7.5,1,0,0,7,-7.5,1,0,0,0,70,70,8,1,,,,,,,,
,,,,,,,,,,,,,FF,,,,,,,,1.067,,,,,,,,,,,,,,,,,,,,,,6102f1d7283089bf23293f50,61036e8b66eae2fdffa243ac,2021-07-29_20h16.06.215,Simcolourproject_2stim_asymm_v5,2020.2.10,MacIntel,60,61025ae37ef11b136ea224fe,,,,,,,,,557,61,26.5,1,0,0,response1disk,,6,13,-9.5,1,0,0,rectangle,13,-9.5,1,0,0,13,-9.5,1,0,0,0,71,71,64,1,,,,,,,,
,,,,,,,,,,,,,FF,,,,,,,,0.817,,,,,,,,,,,,,,,,,,,,,,6102f1d7283089bf23293f50,61036e8b66eae2fdffa243ac,2021-07-29_20h16.06.215,Simcolourproject_2stim_asymm_v5,2020.2.10,MacIntel,60,61025ae37ef11b136ea224fe,,,,,,,,,4060,60,-39.5,1,0,0,response3disk,,5,2,2.5,1,0,0,rectangle,2,2.5,1,0,0,2,2.5,1,0,0,0,72,72,105,1,,,,,,,,
,,,,,,,,,,,,,FF,,,,,,,,1.151,,,,,,,,,,,,,,,,,,,,,,6102f1d7283089bf23293f50,61036e8b66eae2fdffa243ac,2021-07-29_20h16.06.215,Simcolourproject_2stim_asymm_v5,2020.2.10,MacIntel,60,61025ae37ef11b136ea224fe,,,,,,,,,269,27,66.5,1,0,0,response1disk,,7,7,-12.5,1,0,0,rectangle,7,-12.5,1,0,0,7,-12.5,1,0,0,0,73,73,28,1,,,,,,,,
,,,,,,,,,,,,,FF,,,,,,,,3.085,,,,,,,,,,,,,,,,,,,,,,6102f1d7283089bf23293f50,61036e8b66eae2fdffa243ac,2021-07-29_20h16.06.215,Simcolourproject_2stim_asymm_v5,2020.2.10,MacIntel,60,61025ae37ef11b136ea224fe,,,,,,,,,1998,73,-31.5,1,0,0,response3disk,,5,0,1.5,1,0,0,rectangle,0,1.5,1,0,0,0,1.5,1,0,0,0,74,74,98,1,,,,,,,,
,,,,,,,,,,,,,FF,,,,,,,,0.65,,,,,,,,,,,,,,,,,,,,,,6102f1d7283089bf23293f50,61036e8b66eae2fdffa243ac,2021-07-29_20h16.06.215,Simcolourproject_2stim_asymm_v5,2020.2.10,MacIntel,60,61025ae37ef11b136ea224fe,,,,,,,,,3925,35,45.5,1,0,0,response1disk,,7,0,-13.5,1,0,0,rectangle,0,-13.5,1,0,0,0,-13.5,1,0,0,0,75,75,38,1,,,,,,,,
,,,,,,,,,,,,,FF,,,,,,,,0.668,,,,,,,,,,,,,,,,,,,,,,6102f1d7283089bf23293f50,61036e8b66eae2fdffa243ac,2021-07-29_20h16.06.215,Simcolourproject_2stim_asymm_v5,2020.2.10,MacIntel,60,61025ae37ef11b136ea224fe,,,,,,,,,867,33,57.5,1,0,0,response1disk,,7,3,-6.5,1,0,0,rectangle,3,-6.5,1,0,0,3,-6.5,1,0,0,0,76,76,156,1,,,,,,,,
,,,,,,,,,,,,,FF,,,,,,,,0.784,,,,,,,,,,,,,,,,,,,,,,6102f1d7283089bf23293f50,61036e8b66eae2fdffa243ac,2021-07-29_20h16.06.215,Simcolourproject_2stim_asymm_v5,2020.2.10,MacIntel,60,61025ae37ef11b136ea224fe,,,,,,,,,4119,69,-28.5,1,0,0,response3disk,,5,-1,6.5,1,0,0,rectangle,-1,6.5,1,0,0,-1,6.5,1,0,0,0,77,77,123,1,,,,,,,,
,,,,,,,,,,,,,FF,,,,,,,,0.934,,,,,,,,,,,,,,,,,,,,,,6102f1d7283089bf23293f50,61036e8b66eae2fdffa243ac,2021-07-29_20h16.06.215,Simcolourproject_2stim_asymm_v5,2020.2.10,MacIntel,60,61025ae37ef11b136ea224fe,,,,,,,,,603,40,78.5,1,0,0,response1disk,,7,13,1.5,1,0,0,rectangle,13,1.5,1,0,0,13,1.5,1,0,0,0,78,78,13,1,,,,,,,,
,,,,,,,,,,,,,FF,,,,,,,,0.901,,,,,,,,,,,,,,,,,,,,,,6102f1d7283089bf23293f50,61036e8b66eae2fdffa243ac,2021-07-29_20h16.06.215,Simcolourproject_2stim_asymm_v5,2020.2.10,MacIntel,60,61025ae37ef11b136ea224fe,,,,,,,,,69,34,55.5,1,0,0,response1disk,,7,8,-0.5,1,0,0,rectangle,8,-0.5,1,0,0,8,-0.5,1,0,0,0,79,79,61,1,,,,,,,,
,,,,,,,,,,,,,FF,,,,,,,,1.134,,,,,,,,,,,,,,,,,,,,,,6102f1d7283089bf23293f50,61036e8b66eae2fdffa243ac,2021-07-29_20h16.06.215,Simcolourproject_2stim_asymm_v5,2020.2.10,MacIntel,60,61025ae37ef11b136ea224fe,,,,,,,,,2038,64,-47.5,1,0,0,response3disk,,5,3,-13.5,1,0,0,rectangle,3,-13.5,1,0,0,3,-13.5,1,0,0,0,80,80,77,1,,,,,,,,
,,,,,,,,,,,,,FF,,,,,,,,1.134,,,,,,,,,,,,,,,,,,,,,,6102f1d7283089bf23293f50,61036e8b66eae2fdffa243ac,2021-07-29_20h16.06.215,Simcolourproject_2stim_asymm_v5,2020.2.10,MacIntel,60,61025ae37ef11b136ea224fe,,,,,,,,,872,30,66.5,1,0,0,response1disk,,7,1,-0.5,1,0,0,rectangle,1,-0.5,1,0,0,1,-0.5,1,0,0,0,81,81,59,1,,,,,,,,
,,,,,,,,,,,,,FF,,,,,,,,0.739,,,,,,,,,,,,,,,,,,,,,,6102f1d7283089bf23293f50,61036e8b66eae2fdffa243ac,2021-07-29_20h16.06.215,Simcolourproject_2stim_asymm_v5,2020.2.10,MacIntel,60,61025ae37ef11b136ea224fe,,,,,,,,,4308,27,52.5,1,0,0,response1disk,,7,1,-2.5,1,0,0,rectangle,1,-2.5,1,0,0,1,-2.5,1,0,0,0,82,82,111,1,,,,,,,,
,,,,,,,,,,,,,FF,,,,,,,,1.15,,,,,,,,,,,,,,,,,,,,,,6102f1d7283089bf23293f50,61036e8b66eae2fdffa243ac,2021-07-29_20h16.06.215,Simcolourproject_2stim_asymm_v5,2020.2.10,MacIntel,60,61025ae37ef11b136ea224fe,,,,,,,,,2433,86,54.5,1,0,0,response1disk,,6,2,-7.5,1,0,0,rectangle,-29,68.5,1,0,0,9,4.5,1,0,0,0,83,83,120,1,,response7disk_3,TRUE,0,0,"[272,108,84,64,195,181,290,97,133,280,44,157,253,296,262,179,22,232,209,14]",1.934,rectangle
,,,,,,,,,,,,,FF,,,,,,,,2.917,,,,,,,,,,,,,,,,,,,,,,6102f1d7283089bf23293f50,61036e8b66eae2fdffa243ac,2021-07-29_20h16.06.215,Simcolourproject_2stim_asymm_v5,2020.2.10,MacIntel,60,61025ae37ef11b136ea224fe,,,,,,,,,3446,79,30.5,1,0,0,response1disk,,6,9,0.5,1,0,0,rectangle,9,0.5,1,0,0,9,0.5,1,0,0,0,84,84,103,1,,,,,,,,
,,,,,,,,,,,,,FF,,,,,,,,1.068,,,,,,,,,,,,,,,,,,,,,,6102f1d7283089bf23293f50,61036e8b66eae2fdffa243ac,2021-07-29_20h16.06.215,Simcolourproject_2stim_asymm_v5,2020.2.10,MacIntel,60,61025ae37ef11b136ea224fe,,,,,,,,,988,72,-33.5,1,0,0,response3disk,,5,-1,-5.5,1,0,0,rectangle,-1,-5.5,1,0,0,-1,-5.5,1,0,0,0,85,85,73,1,,,,,,,,
,,,,,,,,,,,,,FF,,,,,,,,1.35,,,,,,,,,,,,,,,,,,,,,,6102f1d7283089bf23293f50,61036e8b66eae2fdffa243ac,2021-07-29_20h16.06.215,Simcolourproject_2stim_asymm_v5,2020.2.10,MacIntel,60,61025ae37ef11b136ea224fe,,,,,,,,,3479,88,-37.5,1,0,0,response3disk,,5,9,8.5,1,0,0,rectangle,9,8.5,1,0,0,9,8.5,1,0,0,0,86,86,11,1,,,,,,,,
,,,,,,,,,,,,,FF,,,,,,,,1,,,,,,,,,,,,,,,,,,,,,,6102f1d7283089bf23293f50,61036e8b66eae2fdffa243ac,2021-07-29_20h16.06.215,Simcolourproject_2stim_asymm_v5,2020.2.10,MacIntel,60,61025ae37ef11b136ea224fe,,,,,,,,,1760,35,-64.5,1,0,0,response3disk,,4,7,5.5,1,0,0,rectangle,7,5.5,1,0,0,7,5.5,1,0,0,0,87,87,50,1,,,,,,,,
,,,,,,,,,,,,,FF,,,,,,,,0.668,,,,,,,,,,,,,,,,,,,,,,6102f1d7283089bf23293f50,61036e8b66eae2fdffa243ac,2021-07-29_20h16.06.215,Simcolourproject_2stim_asymm_v5,2020.2.10,MacIntel,60,61025ae37ef11b136ea224fe,,,,,,,,,385,41,81.5,1,0,0,response1disk,,7,-2,-4.5,1,0,0,rectangle,-2,-4.5,1,0,0,-2,-4.5,1,0,0,0,88,88,21,1,,,,,,,,
,,,,,,,,,,,,,FF,,,,,,,,0.752,,,,,,,,,,,,,,,,,,,,,,6102f1d7283089bf23293f50,61036e8b66eae2fdffa243ac,2021-07-29_20h16.06.215,Simcolourproject_2stim_asymm_v5,2020.2.10,MacIntel,60,61025ae37ef11b136ea224fe,,,,,,,,,3206,46,76.5,1,0,0,response1disk,,7,4,1.5,1,0,0,rectangle,4,1.5,1,0,0,4,1.5,1,0,0,0,89,89,119,1,,,,,,,,
,,,,,,,,,,,,,FF,,,,,,,,1.151,,,,,,,,,,,,,,,,,,,,,,6102f1d7283089bf23293f50,61036e8b66eae2fdffa243ac,2021-07-29_20h16.06.215,Simcolourproject_2stim_asymm_v5,2020.2.10,MacIntel,60,61025ae37ef11b136ea224fe,,,,,,,,,3107,32,-62.5,1,0,0,response3disk,,4,10,4.5,1,0,0,rectangle,10,4.5,1,0,0,10,4.5,1,0,0,0,90,90,10,1,,,,,,,,
,,,,,,,,,,,,,FF,,,,,,,,1.235,,,,,,,,,,,,,,,,,,,,,,6102f1d7283089bf23293f50,61036e8b66eae2fdffa243ac,2021-07-29_20h16.06.215,Simcolourproject_2stim_asymm_v5,2020.2.10,MacIntel,60,61025ae37ef11b136ea224fe,,,,,,,,,197,76,41.5,1,0,0,response1disk,,6,7,-4.5,1,0,0,rectangle,7,-4.5,1,0,0,7,-4.5,1,0,0,0,91,91,91,1,,,,,,,,
,,,,,,,,,,,,,FF,,,,,,,,1.101,,,,,,,,,,,,,,,,,,,,,,6102f1d7283089bf23293f50,61036e8b66eae2fdffa243ac,2021-07-29_20h16.06.215,Simcolourproject_2stim_asymm_v5,2020.2.10,MacIntel,60,61025ae37ef11b136ea224fe,,,,,,,,,3515,-63,-49.5,1,0,0,response5disk,,2,3,2.5,1,0,0,rectangle,3,2.5,1,0,0,3,2.5,1,0,0,0,92,92,96,1,,,,,,,,
,,,,,,,,,,,,,FF,,,,,,,,1.267,,,,,,,,,,,,,,,,,,,,,,6102f1d7283089bf23293f50,61036e8b66eae2fdffa243ac,2021-07-29_20h16.06.215,Simcolourproject_2stim_asymm_v5,2020.2.10,MacIntel,60,61025ae37ef11b136ea224fe,,,,,,,,,2253,31,54.5,1,0,0,response1disk,,7,13,-3.5,1,0,0,rectangle,13,-3.5,1,0,0,13,-3.5,1,0,0,0,93,93,45,1,,,,,,,,
,,,,,,,,,,,,,FF,,,,,,,,1.101,,,,,,,,,,,,,,,,,,,,,,6102f1d7283089bf23293f50,61036e8b66eae2fdffa243ac,2021-07-29_20h16.06.215,Simcolourproject_2stim_asymm_v5,2020.2.10,MacIntel,60,61025ae37ef11b136ea224fe,,,,,,,,,187,-38,-63.5,1,0,0,response5disk,,3,2,4.5,1,0,0,rectangle,2,4.5,1,0,0,2,4.5,1,0,0,0,94,94,150,1,,,,,,,,
,,,,,,,,,,,,,FF,,,,,,,,1.687,,,,,,,,,,,,,,,,,,,,,,6102f1d7283089bf23293f50,61036e8b66eae2fdffa243ac,2021-07-29_20h16.06.215,Simcolourproject_2stim_asymm_v5,2020.2.10,MacIntel,60,61025ae37ef11b136ea224fe,,,,,,,,,2675,90,-49.5,1,0,0,response3disk,,5,-5,3.5,1,0,0,rectangle,-5,3.5,1,0,0,-5,3.5,1,0,0,0,95,95,115,1,,,,,,,,
,,,,,,,,,,,,,FF,,,,,,,,0.639,,,,,,,,,,,,,,,,,,,,,,6102f1d7283089bf23293f50,61036e8b66eae2fdffa243ac,2021-07-29_20h16.06.215,Simcolourproject_2stim_asymm_v5,2020.2.10,MacIntel,60,61025ae37ef11b136ea224fe,,,,,,,,,1571,47,88.5,1,0,0,response1disk,,7,-7,-12.5,1,0,0,rectangle,-43,64.5,1,0,0,-6,-5.5,1,0,0,0,96,96,158,1,,response7disk_3,TRUE,0,0,"[272,108,84,64,195,181,290,97,133,280,44,157,253,296,262,179,22,232,209,14]",2.017,rectangle
,,,,,,,,,,,,,FF,,,,,,,,0.983,,,,,,,,,,,,,,,,,,,,,,6102f1d7283089bf23293f50,61036e8b66eae2fdffa243ac,2021-07-29_20h16.06.215,Simcolourproject_2stim_asymm_v5,2020.2.10,MacIntel,60,61025ae37ef11b136ea224fe,,,,,,,,,1127,38,97.5,1,0,0,response1disk,,7,7,-4.5,1,0,0,rectangle,7,-4.5,1,0,0,7,-4.5,1,0,0,0,97,97,149,1,,,,,,,,
,,,,,,,,,,,,,FF,,,,,,,,1.755,,,,,,,,,,,,,,,,,,,,,,6102f1d7283089bf23293f50,61036e8b66eae2fdffa243ac,2021-07-29_20h16.06.215,Simcolourproject_2stim_asymm_v5,2020.2.10,MacIntel,60,61025ae37ef11b136ea224fe,,,,,,,,,3287,83,27.5,1,0,0,response1disk,,6,15,4.5,1,0,0,rectangle,15,4.5,1,0,0,15,4.5,1,0,0,0,98,98,148,1,,,,,,,,
,,,,,,,,,,,,,FF,,,,,,,,1.553,,,,,,,,,,,,,,,,,,,,,,6102f1d7283089bf23293f50,61036e8b66eae2fdffa243ac,2021-07-29_20h16.06.215,Simcolourproject_2stim_asymm_v5,2020.2.10,MacIntel,60,61025ae37ef11b136ea224fe,,,,,,,,,4318,32,72.5,1,0,0,response1disk,,7,11,0.5,1,0,0,rectangle,11,0.5,1,0,0,11,0.5,1,0,0,0,99,99,146,1,,,,,,,,
,,,,,,,,,,,,,FF,,,,,,,,1.433,,,,,,,,,,,,,,,,,,,,,,6102f1d7283089bf23293f50,61036e8b66eae2fdffa243ac,2021-07-29_20h16.06.215,Simcolourproject_2stim_asymm_v5,2020.2.10,MacIntel,60,61025ae37ef11b136ea224fe,,,,,,,,,1748,28,79.5,1,0,0,response1disk,,7,9,-1.5,1,0,0,rectangle,9,-1.5,1,0,0,9,-1.5,1,0,0,0,100,100,138,1,,,,,,,,
,,,,,,,,,,,,,FF,,,,,,,,0.7,,,,,,,,,,,,,,,,,,,,,,6102f1d7283089bf23293f50,61036e8b66eae2fdffa243ac,2021-07-29_20h16.06.215,Simcolourproject_2stim_asymm_v5,2020.2.10,MacIntel,60,61025ae37ef11b136ea224fe,,,,,,,,,1916,40,81.5,1,0,0,response1disk,,7,9,5.5,1,0,0,rectangle,9,5.5,1,0,0,9,5.5,1,0,0,0,101,101,152,1,,,,,,,,
,,,,,,,,,,,,,FF,,,,,,,,0.668,,,,,,,,,,,,,,,,,,,,,,6102f1d7283089bf23293f50,61036e8b66eae2fdffa243ac,2021-07-29_20h16.06.215,Simcolourproject_2stim_asymm_v5,2020.2.10,MacIntel,60,61025ae37ef11b136ea224fe,,,,,,,,,2877,43,68.5,1,0,0,response1disk,,7,18,3.5,1,0,0,rectangle,18,3.5,1,0,0,18,3.5,1,0,0,0,102,102,93,1,,,,,,,,
,,,,,,,,,,,,,FF,,,,,,,,0.8,,,,,,,,,,,,,,,,,,,,,,6102f1d7283089bf23293f50,61036e8b66eae2fdffa243ac,2021-07-29_20h16.06.215,Simcolourproject_2stim_asymm_v5,2020.2.10,MacIntel,60,61025ae37ef11b136ea224fe,,,,,,,,,259,65,27.5,1,0,0,response1disk,,6,-11,-12.5,1,0,0,rectangle,-11,-12.5,1,0,0,-11,-12.5,1,0,0,0,103,103,0,1,,,,,,,,
,,,,,,,,,,,,,FF,,,,,,,,0.585,,,,,,,,,,,,,,,,,,,,,,6102f1d7283089bf23293f50,61036e8b66eae2fdffa243ac,2021-07-29_20h16.06.215,Simcolourproject_2stim_asymm_v5,2020.2.10,MacIntel,60,61025ae37ef11b136ea224fe,,,,,,,,,1019,28,58.5,1,0,0,response1disk,,7,8,-8.5,1,0,0,rectangle,8,-8.5,1,0,0,8,-8.5,1,0,0,0,104,104,117,1,,,,,,,,
,,,,,,,,,,,,,FF,,,,,,,,0.57,,,,,,,,,,,,,,,,,,,,,,6102f1d7283089bf23293f50,61036e8b66eae2fdffa243ac,2021-07-29_20h16.06.215,Simcolourproject_2stim_asymm_v5,2020.2.10,MacIntel,60,61025ae37ef11b136ea224fe,,,,,,,,,2818,41,62.5,1,0,0,response1disk,,7,3,-7.5,1,0,0,rectangle,3,-7.5,1,0,0,3,-7.5,1,0,0,0,105,105,153,1,,,,,,,,
,,,,,,,,,,,,,FF,,,,,,,,0.786,,,,,,,,,,,,,,,,,,,,,,6102f1d7283089bf23293f50,61036e8b66eae2fdffa243ac,2021-07-29_20h16.06.215,Simcolourproject_2stim_asymm_v5,2020.2.10,MacIntel,60,61025ae37ef11b136ea224fe,,,,,,,,,4019,38,74.5,1,0,0,response1disk,,7,-1,-2.5,1,0,0,rectangle,-1,-2.5,1,0,0,-1,-2.5,1,0,0,0,106,106,82,1,,,,,,,,
,,,,,,,,,,,,,FF,,,,,,,,1.273,,,,,,,,,,,,,,,,,,,,,,6102f1d7283089bf23293f50,61036e8b66eae2fdffa243ac,2021-07-29_20h16.06.215,Simcolourproject_2stim_asymm_v5,2020.2.10,MacIntel,60,61025ae37ef11b136ea224fe,,,,,,,,,2413,45,73.5,1,0,0,response1disk,,7,-8,-10.5,1,0,0,rectangle,-73,-31.5,1,0,0,2,-5.5,1,0,0,0,107,107,14,1,,response5disk_3,TRUE,2,2,"[272,108,84,64,195,181,290,97,133,280,44,157,253,296,262,179,22,232,209,14]",1.633,rectangle
,,,,,,,,,,,,,FF,,,,,,,,0.917,,,,,,,,,,,,,,,,,,,,,,6102f1d7283089bf23293f50,61036e8b66eae2fdffa243ac,2021-07-29_20h16.06.215,Simcolourproject_2stim_asymm_v5,2020.2.10,MacIntel,60,61025ae37ef11b136ea224fe,,,,,,,,,3828,72,-32.5,1,0,0,response3disk,,5,7,13.5,1,0,0,rectangle,7,13.5,1,0,0,7,13.5,1,0,0,0,108,108,52,1,,,,,,,,
,,,,,,,,,,,,,FF,,,,,,,,0.617,,,,,,,,,,,,,,,,,,,,,,6102f1d7283089bf23293f50,61036e8b66eae2fdffa243ac,2021-07-29_20h16.06.215,Simcolourproject_2stim_asymm_v5,2020.2.10,MacIntel,60,61025ae37ef11b136ea224fe,,,,,,,,,3447,33,65.5,1,0,0,response1disk,,7,-1,7.5,1,0,0,rectangle,-1,7.5,1,0,0,-1,7.5,1,0,0,0,109,109,141,1,,,,,,,,
,,,,,,,,,,,,,FF,,,,,,,,0.817,,,,,,,,,,,,,,,,,,,,,,6102f1d7283089bf23293f50,61036e8b66eae2fdffa243ac,2021-07-29_20h16.06.215,Simcolourproject_2stim_asymm_v5,2020.2.10,MacIntel,60,61025ae37ef11b136ea224fe,,,,,,,,,3005,83,-27.5,1,0,0,response3disk,,5,0,1.5,1,0,0,rectangle,0,1.5,1,0,0,0,1.5,1,0,0,0,110,110,95,1,,,,,,,,
,,,,,,,,,,,,,FF,,,,,,,,1.053,,,,,,,,,,,,,,,,,,,,,,6102f1d7283089bf23293f50,61036e8b66eae2fdffa243ac,2021-07-29_20h16.06.215,Simcolourproject_2stim_asymm_v5,2020.2.10,MacIntel,60,61025ae37ef11b136ea224fe,,,,,,,,,548,46,-70.5,1,0,0,response3disk,,4,3,-1.5,1,0,0,rectangle,3,-1.5,1,0,0,3,-1.5,1,0,0,0,111,111,9,1,,,,,,,,
,,,,,,,,,,,,,FF,,,,,,,,1.519,,,,,,,,,,,,,,,,,,,,,,6102f1d7283089bf23293f50,61036e8b66eae2fdffa243ac,2021-07-29_20h16.06.215,Simcolourproject_2stim_asymm_v5,2020.2.10,MacIntel,60,61025ae37ef11b136ea224fe,,,,,,,,,1064,78,26.5,1,0,0,response1disk,,6,-20,-11.5,1,0,0,rectangle,-20,-11.5,1,0,0,-20,-11.5,1,0,0,0,112,112,102,1,,,,,,,,
,,,,,,,,,,,,,FF,,,,,,,,0.534,,,,,,,,,,,,,,,,,,,,,,6102f1d7283089bf23293f50,61036e8b66eae2fdffa243ac,2021-07-29_20h16.06.215,Simcolourproject_2stim_asymm_v5,2020.2.10,MacIntel,60,61025ae37ef11b136ea224fe,,,,,,,,,34,47,86.5,1,0,0,response1disk,,7,4,-9.5,1,0,0,rectangle,4,-9.5,1,0,0,4,-9.5,1,0,0,0,113,113,128,1,,,,,,,,
,,,,,,,,,,,,,FF,,,,,,,,0.75,,,,,,,,,,,,,,,,,,,,,,6102f1d7283089bf23293f50,61036e8b66eae2fdffa243ac,2021-07-29_20h16.06.215,Simcolourproject_2stim_asymm_v5,2020.2.10,MacIntel,60,61025ae37ef11b136ea224fe,,,,,,,,,268,43,85.5,1,0,0,response1disk,,7,-4,-12.5,1,0,0,rectangle,-4,-12.5,1,0,0,-4,-12.5,1,0,0,0,114,114,32,1,,,,,,,,
,,,,,,,,,,,,,FF,,,,,,,,0.65,,,,,,,,,,,,,,,,,,,,,,6102f1d7283089bf23293f50,61036e8b66eae2fdffa243ac,2021-07-29_20h16.06.215,Simcolourproject_2stim_asymm_v5,2020.2.10,MacIntel,60,61025ae37ef11b136ea224fe,,,,,,,,,397,41,79.5,1,0,0,response1disk,,7,16,-3.5,1,0,0,rectangle,16,-3.5,1,0,0,16,-3.5,1,0,0,0,115,115,6,1,,,,,,,,
,,,,,,,,,,,,,FF,,,,,,,,1.018,,,,,,,,,,,,,,,,,,,,,,6102f1d7283089bf23293f50,61036e8b66eae2fdffa243ac,2021-07-29_20h16.06.215,Simcolourproject_2stim_asymm_v5,2020.2.10,MacIntel,60,61025ae37ef11b136ea224fe,,,,,,,,,2483,80,-43.5,1,0,0,response3disk,,5,-8,4.5,1,0,0,rectangle,-8,4.5,1,0,0,-8,4.5,1,0,0,0,116,116,63,1,,,,,,,,
,,,,,,,,,,,,,FF,,,,,,,,3.584,,,,,,,,,,,,,,,,,,,,,,6102f1d7283089bf23293f50,61036e8b66eae2fdffa243ac,2021-07-29_20h16.06.215,Simcolourproject_2stim_asymm_v5,2020.2.10,MacIntel,60,61025ae37ef11b136ea224fe,,,,,,,,,145,61,-55.5,1,0,0,response3disk,,5,10,-9.5,1,0,0,rectangle,10,-9.5,1,0,0,10,-9.5,1,0,0,0,117,117,106,1,,,,,,,,
,,,,,,,,,,,,,FF,,,,,,,,56.901,,,,,,,,,,,,,,,,,,,,,,6102f1d7283089bf23293f50,61036e8b66eae2fdffa243ac,2021-07-29_20h16.06.215,Simcolourproject_2stim_asymm_v5,2020.2.10,MacIntel,60,61025ae37ef11b136ea224fe,,,,,,,,,469,83,29.5,1,0,0,response1disk,,6,-5,0.5,1,0,0,rectangle,-5,0.5,1,0,0,-5,0.5,1,0,0,0,118,118,124,1,,,,,,,,
,,,,,,,,,,,,,FF,,,,,,,,1.279,,,,,,,,,,,,,,,,,,,,,,6102f1d7283089bf23293f50,61036e8b66eae2fdffa243ac,2021-07-29_20h16.06.215,Simcolourproject_2stim_asymm_v5,2020.2.10,MacIntel,60,61025ae37ef11b136ea224fe,,,,,,,,,2735,62,-31.5,1,0,0,response3disk,,5,8,-6.5,1,0,0,rectangle,8,-6.5,1,0,0,8,-6.5,1,0,0,0,119,119,66,1,,,,,,,,
,,,,,,,,,,,,,FF,,,,,,,,0.72,,,,,,,,,,,,,,,,,,,,,,6102f1d7283089bf23293f50,61036e8b66eae2fdffa243ac,2021-07-29_20h16.06.215,Simcolourproject_2stim_asymm_v5,2020.2.10,MacIntel,60,61025ae37ef11b136ea224fe,,,,,,,,,2628,27,63.5,1,0,0,response1disk,,7,2,-0.5,1,0,0,rectangle,2,-0.5,1,0,0,2,-0.5,1,0,0,0,120,120,145,1,,,,,,,,
,,,,,,,,,,,,,FF,,,,,,,,1.121,,,,,,,,,,,,,,,,,,,,,,6102f1d7283089bf23293f50,61036e8b66eae2fdffa243ac,2021-07-29_20h16.06.215,Simcolourproject_2stim_asymm_v5,2020.2.10,MacIntel,60,61025ae37ef11b136ea224fe,,,,,,,,,64,64,-28.5,1,0,0,response3disk,,5,-6,-1.5,1,0,0,rectangle,-6,-1.5,1,0,0,-6,-1.5,1,0,0,0,121,121,40,1,,,,,,,,
,,,,,,,,,,,,,FF,,,,,,,,0.566,,,,,,,,,,,,,,,,,,,,,,6102f1d7283089bf23293f50,61036e8b66eae2fdffa243ac,2021-07-29_20h16.06.215,Simcolourproject_2stim_asymm_v5,2020.2.10,MacIntel,60,61025ae37ef11b136ea224fe,,,,,,,,,3021,24,49.5,1,0,0,response1disk,,7,4,-2.5,1,0,0,rectangle,4,-2.5,1,0,0,4,-2.5,1,0,0,0,122,122,147,1,,,,,,,,
,,,,,,,,,,,,,FF,,,,,,,,1.451,,,,,,,,,,,,,,,,,,,,,,6102f1d7283089bf23293f50,61036e8b66eae2fdffa243ac,2021-07-29_20h16.06.215,Simcolourproject_2stim_asymm_v5,2020.2.10,MacIntel,60,61025ae37ef11b136ea224fe,,,,,,,,,3139,53,-69.5,1,0,0,response3disk,,4,-20,5.5,1,0,0,rectangle,-20,5.5,1,0,0,-20,5.5,1,0,0,0,123,123,60,1,,,,,,,,
,,,,,,,,,,,,,FF,,,,,,,,0.571,,,,,,,,,,,,,,,,,,,,,,6102f1d7283089bf23293f50,61036e8b66eae2fdffa243ac,2021-07-29_20h16.06.215,Simcolourproject_2stim_asymm_v5,2020.2.10,MacIntel,60,61025ae37ef11b136ea224fe,,,,,,,,,1165,40,75.5,1,0,0,response1disk,,7,7,2.5,1,0,0,rectangle,7,2.5,1,0,0,7,2.5,1,0,0,0,124,124,90,1,,,,,,,,
,,,,,,,,,,,,,FF,,,,,,,,0.851,,,,,,,,,,,,,,,,,,,,,,6102f1d7283089bf23293f50,61036e8b66eae2fdffa243ac,2021-07-29_20h16.06.215,Simcolourproject_2stim_asymm_v5,2020.2.10,MacIntel,60,61025ae37ef11b136ea224fe,,,,,,,,,106,97,-33.5,1,0,0,response3disk,,5,20,-10.5,1,0,0,rectangle,20,-10.5,1,0,0,20,-10.5,1,0,0,0,125,125,154,1,,,,,,,,
,,,,,,,,,,,,,FF,,,,,,,,0.634,,,,,,,,,,,,,,,,,,,,,,6102f1d7283089bf23293f50,61036e8b66eae2fdffa243ac,2021-07-29_20h16.06.215,Simcolourproject_2stim_asymm_v5,2020.2.10,MacIntel,60,61025ae37ef11b136ea224fe,,,,,,,,,697,35,103.5,1,0,0,response1disk,,7,8,-3.5,1,0,0,rectangle,8,-3.5,1,0,0,8,-3.5,1,0,0,0,126,126,159,1,,,,,,,,
,,,,,,,,,,,,,FF,,,,,,,,0.733,,,,,,,,,,,,,,,,,,,,,,6102f1d7283089bf23293f50,61036e8b66eae2fdffa243ac,2021-07-29_20h16.06.215,Simcolourproject_2stim_asymm_v5,2020.2.10,MacIntel,60,61025ae37ef11b136ea224fe,,,,,,,,,3797,14,85.5,1,0,0,response1disk,,7,-8,-8.5,1,0,0,rectangle,-8,-8.5,1,0,0,-8,-8.5,1,0,0,0,127,127,101,1,,,,,,,,
,,,,,,,,,,,,,FF,,,,,,,,0.65,,,,,,,,,,,,,,,,,,,,,,6102f1d7283089bf23293f50,61036e8b66eae2fdffa243ac,2021-07-29_20h16.06.215,Simcolourproject_2stim_asymm_v5,2020.2.10,MacIntel,60,61025ae37ef11b136ea224fe,,,,,,,,,1634,38,63.5,1,0,0,response1disk,,7,-2,-1.5,1,0,0,rectangle,-2,-1.5,1,0,0,-2,-1.5,1,0,0,0,128,128,79,1,,,,,,,,
,,,,,,,,,,,,,FF,,,,,,,,0.75,,,,,,,,,,,,,,,,,,,,,,6102f1d7283089bf23293f50,61036e8b66eae2fdffa243ac,2021-07-29_20h16.06.215,Simcolourproject_2stim_asymm_v5,2020.2.10,MacIntel,60,61025ae37ef11b136ea224fe,,,,,,,,,1110,42,79.5,1,0,0,response1disk,,7,14,-8.5,1,0,0,rectangle,14,-8.5,1,0,0,14,-8.5,1,0,0,0,129,129,86,1,,,,,,,,
,,,,,,,,,,,,,FF,,,,,,,,0.667,,,,,,,,,,,,,,,,,,,,,,6102f1d7283089bf23293f50,61036e8b66eae2fdffa243ac,2021-07-29_20h16.06.215,Simcolourproject_2stim_asymm_v5,2020.2.10,MacIntel,60,61025ae37ef11b136ea224fe,,,,,,,,,1082,23,50.5,1,0,0,response1disk,,7,26,-2.5,1,0,0,rectangle,26,-2.5,1,0,0,26,-2.5,1,0,0,0,130,130,143,1,,,,,,,,
,,,,,,,,,,,,,FF,,,,,,,,0.7,,,,,,,,,,,,,,,,,,,,,,6102f1d7283089bf23293f50,61036e8b66eae2fdffa243ac,2021-07-29_20h16.06.215,Simcolourproject_2stim_asymm_v5,2020.2.10,MacIntel,60,61025ae37ef11b136ea224fe,,,,,,,,,15,60,-39.5,1,0,0,response3disk,,5,5,1.5,1,0,0,rectangle,5,1.5,1,0,0,5,1.5,1,0,0,0,131,131,109,1,,,,,,,,
,,,,,,,,,,,,,FF,,,,,,,,0.586,,,,,,,,,,,,,,,,,,,,,,6102f1d7283089bf23293f50,61036e8b66eae2fdffa243ac,2021-07-29_20h16.06.215,Simcolourproject_2stim_asymm_v5,2020.2.10,MacIntel,60,61025ae37ef11b136ea224fe,,,,,,,,,1781,31,48.5,1,0,0,response1disk,,7,-1,-4.5,1,0,0,rectangle,88,31.5,1,0,0,2,-9.5,1,0,0,0,132,132,94,1,,response1disk_3,TRUE,6,6,"[272,108,84,64,195,181,290,97,133,280,44,157,253,296,262,179,22,232,209,14]",1.517,rectangle
,,,,,,,,,,,,,FF,,,,,,,,1.101,,,,,,,,,,,,,,,,,,,,,,6102f1d7283089bf23293f50,61036e8b66eae2fdffa243ac,2021-07-29_20h16.06.215,Simcolourproject_2stim_asymm_v5,2020.2.10,MacIntel,60,61025ae37ef11b136ea224fe,,,,,,,,,1406,40,64.5,1,0,0,response1disk,,7,18,-1.5,1,0,0,rectangle,18,-1.5,1,0,0,18,-1.5,1,0,0,0,133,133,37,1,,,,,,,,
,,,,,,,,,,,,,FF,,,,,,,,1.084,,,,,,,,,,,,,,,,,,,,,,6102f1d7283089bf23293f50,61036e8b66eae2fdffa243ac,2021-07-29_20h16.06.215,Simcolourproject_2stim_asymm_v5,2020.2.10,MacIntel,60,61025ae37ef11b136ea224fe,,,,,,,,,3340,64,-33.5,1,0,0,response3disk,,5,2,-1.5,1,0,0,rectangle,2,-1.5,1,0,0,2,-1.5,1,0,0,0,134,134,48,1,,,,,,,,
,,,,,,,,,,,,,FF,,,,,,,,0.785,,,,,,,,,,,,,,,,,,,,,,6102f1d7283089bf23293f50,61036e8b66eae2fdffa243ac,2021-07-29_20h16.06.215,Simcolourproject_2stim_asymm_v5,2020.2.10,MacIntel,60,61025ae37ef11b136ea224fe,,,,,,,,,3049,78,-28.5,1,0,0,response3disk,,5,0,-3.5,1,0,0,rectangle,0,-3.5,1,0,0,0,-3.5,1,0,0,0,135,135,71,1,,,,,,,,
,,,,,,,,,,,,,FF,,,,,,,,0.5,,,,,,,,,,,,,,,,,,,,,,6102f1d7283089bf23293f50,61036e8b66eae2fdffa243ac,2021-07-29_20h16.06.215,Simcolourproject_2stim_asymm_v5,2020.2.10,MacIntel,60,61025ae37ef11b136ea224fe,,,,,,,,,3152,71,-33.5,1,0,0,response3disk,,5,3,-2.5,1,0,0,rectangle,3,-2.5,1,0,0,3,-2.5,1,0,0,0,136,136,56,1,,,,,,,,
,,,,,,,,,,,,,FF,,,,,,,,1.585,,,,,,,,,,,,,,,,,,,,,,6102f1d7283089bf23293f50,61036e8b66eae2fdffa243ac,2021-07-29_20h16.06.215,Simcolourproject_2stim_asymm_v5,2020.2.10,MacIntel,60,61025ae37ef11b136ea224fe,,,,,,,,,1252,35,70.5,1,0,0,response1disk,,7,-3,3.5,1,0,0,rectangle,-3,3.5,1,0,0,-3,3.5,1,0,0,0,137,137,17,1,,,,,,,,
,,,,,,,,,,,,,FF,,,,,,,,0.901,,,,,,,,,,,,,,,,,,,,,,6102f1d7283089bf23293f50,61036e8b66eae2fdffa243ac,2021-07-29_20h16.06.215,Simcolourproject_2stim_asymm_v5,2020.2.10,MacIntel,60,61025ae37ef11b136ea224fe,,,,,,,,,1101,31,82.5,1,0,0,response1disk,,7,11,9.5,1,0,0,rectangle,11,9.5,1,0,0,11,9.5,1,0,0,0,138,138,7,1,,,,,,,,
,,,,,,,,,,,,,FF,,,,,,,,0.668,,,,,,,,,,,,,,,,,,,,,,6102f1d7283089bf23293f50,61036e8b66eae2fdffa243ac,2021-07-29_20h16.06.215,Simcolourproject_2stim_asymm_v5,2020.2.10,MacIntel,60,61025ae37ef11b136ea224fe,,,,,,,,,1805,35,52.5,1,0,0,response1disk,,7,-8,-10.5,1,0,0,rectangle,-8,-10.5,1,0,0,-8,-10.5,1,0,0,0,139,139,29,1,,,,,,,,
,,,,,,,,,,,,,FF,,,,,,,,0.734,,,,,,,,,,,,,,,,,,,,,,6102f1d7283089bf23293f50,61036e8b66eae2fdffa243ac,2021-07-29_20h16.06.215,Simcolourproject_2stim_asymm_v5,2020.2.10,MacIntel,60,61025ae37ef11b136ea224fe,,,,,,,,,3356,28,68.5,1,0,0,response1disk,,7,12,-0.5,1,0,0,rectangle,12,-0.5,1,0,0,12,-0.5,1,0,0,0,140,140,125,1,,,,,,,,
,,,,,,,,,,,,,FF,,,,,,,,1.384,,,,,,,,,,,,,,,,,,,,,,6102f1d7283089bf23293f50,61036e8b66eae2fdffa243ac,2021-07-29_20h16.06.215,Simcolourproject_2stim_asymm_v5,2020.2.10,MacIntel,60,61025ae37ef11b136ea224fe,,,,,,,,,4166,42,-71.5,1,0,0,response3disk,,4,2,5.5,1,0,0,rectangle,2,5.5,1,0,0,2,5.5,1,0,0,0,141,141,34,1,,,,,,,,
,,,,,,,,,,,,,FF,,,,,,,,0.802,,,,,,,,,,,,,,,,,,,,,,6102f1d7283089bf23293f50,61036e8b66eae2fdffa243ac,2021-07-29_20h16.06.215,Simcolourproject_2stim_asymm_v5,2020.2.10,MacIntel,60,61025ae37ef11b136ea224fe,,,,,,,,,3106,-35,-82.5,1,0,0,response5disk,,3,-14,-5.5,1,0,0,rectangle,-14,-5.5,1,0,0,-14,-5.5,1,0,0,0,142,142,131,1,,,,,,,,
,,,,,,,,,,,,,FF,,,,,,,,0.7,,,,,,,,,,,,,,,,,,,,,,6102f1d7283089bf23293f50,61036e8b66eae2fdffa243ac,2021-07-29_20h16.06.215,Simcolourproject_2stim_asymm_v5,2020.2.10,MacIntel,60,61025ae37ef11b136ea224fe,,,,,,,,,671,28,58.5,1,0,0,response1disk,,7,1,0.5,1,0,0,rectangle,1,0.5,1,0,0,1,0.5,1,0,0,0,143,143,19,1,,,,,,,,
,,,,,,,,,,,,,FF,,,,,,,,1.484,,,,,,,,,,,,,,,,,,,,,,6102f1d7283089bf23293f50,61036e8b66eae2fdffa243ac,2021-07-29_20h16.06.215,Simcolourproject_2stim_asymm_v5,2020.2.10,MacIntel,60,61025ae37ef11b136ea224fe,,,,,,,,,3784,56,-62.5,1,0,0,response3disk,,4,-3,1.5,1,0,0,rectangle,-3,1.5,1,0,0,-3,1.5,1,0,0,0,144,144,12,1,,,,,,,,
,,,,,,,,,,,,,FF,,,,,,,,0.67,,,,,,,,,,,,,,,,,,,,,,6102f1d7283089bf23293f50,61036e8b66eae2fdffa243ac,2021-07-29_20h16.06.215,Simcolourproject_2stim_asymm_v5,2020.2.10,MacIntel,60,61025ae37ef11b136ea224fe,,,,,,,,,1040,48,68.5,1,0,0,response1disk,,7,11,-4.5,1,0,0,rectangle,11,-4.5,1,0,0,11,-4.5,1,0,0,0,145,145,88,1,,,,,,,,
,,,,,,,,,,,,,FF,,,,,,,,0.717,,,,,,,,,,,,,,,,,,,,,,6102f1d7283089bf23293f50,61036e8b66eae2fdffa243ac,2021-07-29_20h16.06.215,Simcolourproject_2stim_asymm_v5,2020.2.10,MacIntel,60,61025ae37ef11b136ea224fe,,,,,,,,,3938,-33,57.5,1,0,0,response7disk,,0,-3,-5.5,1,0,0,rectangle,-3,-5.5,1,0,0,-3,-5.5,1,0,0,0,146,146,89,1,,,,,,,,
,,,,,,,,,,,,,FF,,,,,,,,0.618,,,,,,,,,,,,,,,,,,,,,,6102f1d7283089bf23293f50,61036e8b66eae2fdffa243ac,2021-07-29_20h16.06.215,Simcolourproject_2stim_asymm_v5,2020.2.10,MacIntel,60,61025ae37ef11b136ea224fe,,,,,,,,,3337,44,78.5,1,0,0,response1disk,,7,20,1.5,1,0,0,rectangle,20,1.5,1,0,0,20,1.5,1,0,0,0,147,147,80,1,,,,,,,,
,,,,,,,,,,,,,FF,,,,,,,,1.017,,,,,,,,,,,,,,,,,,,,,,6102f1d7283089bf23293f50,61036e8b66eae2fdffa243ac,2021-07-29_20h16.06.215,Simcolourproject_2stim_asymm_v5,2020.2.10,MacIntel,60,61025ae37ef11b136ea224fe,,,,,,,,,707,30,103.5,1,0,0,response1disk,,7,3,1.5,1,0,0,rectangle,3,1.5,1,0,0,3,1.5,1,0,0,0,148,148,18,1,,,,,,,,
,,,,,,,,,,,,,FF,,,,,,,,1.484,,,,,,,,,,,,,,,,,,,,,,6102f1d7283089bf23293f50,61036e8b66eae2fdffa243ac,2021-07-29_20h16.06.215,Simcolourproject_2stim_asymm_v5,2020.2.10,MacIntel,60,61025ae37ef11b136ea224fe,,,,,,,,,2028,46,-72.5,1,0,0,response3disk,,4,2,-3.5,1,0,0,rectangle,2,-3.5,1,0,0,2,-3.5,1,0,0,0,149,149,44,1,,,,,,,,
,,,,,,,,,,,,,FF,,,,,,,,0.751,,,,,,,,,,,,,,,,,,,,,,6102f1d7283089bf23293f50,61036e8b66eae2fdffa243ac,2021-07-29_20h16.06.215,Simcolourproject_2stim_asymm_v5,2020.2.10,MacIntel,60,61025ae37ef11b136ea224fe,,,,,,,,,537,32,70.5,1,0,0,response1disk,,7,6,-0.5,1,0,0,rectangle,6,-0.5,1,0,0,6,-0.5,1,0,0,0,150,150,113,1,,,,,,,,
,,,,,,,,,,,,,FF,,,,,,,,0.716,,,,,,,,,,,,,,,,,,,,,,6102f1d7283089bf23293f50,61036e8b66eae2fdffa243ac,2021-07-29_20h16.06.215,Simcolourproject_2stim_asymm_v5,2020.2.10,MacIntel,60,61025ae37ef11b136ea224fe,,,,,,,,,1932,37,60.5,1,0,0,response1disk,,7,2,-3.5,1,0,0,rectangle,2,-3.5,1,0,0,2,-3.5,1,0,0,0,151,151,127,1,,,,,,,,
,,,,,,,,,,,,,FF,,,,,,,,2.085,,,,,,,,,,,,,,,,,,,,,,6102f1d7283089bf23293f50,61036e8b66eae2fdffa243ac,2021-07-29_20h16.06.215,Simcolourproject_2stim_asymm_v5,2020.2.10,MacIntel,60,61025ae37ef11b136ea224fe,,,,,,,,,1794,63,39.5,1,0,0,response1disk,,6,10,3.5,1,0,0,rectangle,10,3.5,1,0,0,10,3.5,1,0,0,0,152,152,135,1,,,,,,,,
,,,,,,,,,,,,,FF,,,,,,,,0.483,,,,,,,,,,,,,,,,,,,,,,6102f1d7283089bf23293f50,61036e8b66eae2fdffa243ac,2021-07-29_20h16.06.215,Simcolourproject_2stim_asymm_v5,2020.2.10,MacIntel,60,61025ae37ef11b136ea224fe,,,,,,,,,19,47,88.5,1,0,0,response1disk,,7,9,2.5,1,0,0,rectangle,9,2.5,1,0,0,9,2.5,1,0,0,0,153,153,58,1,,,,,,,,
,,,,,,,,,,,,,FF,,,,,,,,1.117,,,,,,,,,,,,,,,,,,,,,,6102f1d7283089bf23293f50,61036e8b66eae2fdffa243ac,2021-07-29_20h16.06.215,Simcolourproject_2stim_asymm_v5,2020.2.10,MacIntel,60,61025ae37ef11b136ea224fe,,,,,,,,,3057,78,-31.5,1,0,0,response3disk,,5,15,-3.5,1,0,0,rectangle,15,-3.5,1,0,0,15,-3.5,1,0,0,0,154,154,81,1,,,,,,,,
,,,,,,,,,,,,,FF,,,,,,,,1.053,,,,,,,,,,,,,,,,,,,,,,6102f1d7283089bf23293f50,61036e8b66eae2fdffa243ac,2021-07-29_20h16.06.215,Simcolourproject_2stim_asymm_v5,2020.2.10,MacIntel,60,61025ae37ef11b136ea224fe,,,,,,,,,53,49,87.5,1,0,0,response1disk,,7,12,2.5,1,0,0,rectangle,12,2.5,1,0,0,12,2.5,1,0,0,0,155,155,155,1,,,,,,,,
,,,,,,,,,,,,,FF,,,,,,,,8.067,,,,,,,,,,,,,,,,,,,,,,6102f1d7283089bf23293f50,61036e8b66eae2fdffa243ac,2021-07-29_20h16.06.215,Simcolourproject_2stim_asymm_v5,2020.2.10,MacIntel,60,61025ae37ef11b136ea224fe,,,,,,,,,2168,59,26.5,1,0,0,response1disk,,6,14,2.5,1,0,0,rectangle,60,33.5,1,0,0,0,-3.5,1,0,0,0,156,156,3,1,,response1disk_3,TRUE,6,6,"[272,108,84,64,195,181,290,97,133,280,44,157,253,296,262,179,22,232,209,14]",1.283,rectangle
,,,,,,,,,,,,,FF,,,,,,,,1.3,,,,,,,,,,,,,,,,,,,,,,6102f1d7283089bf23293f50,61036e8b66eae2fdffa243ac,2021-07-29_20h16.06.215,Simcolourproject_2stim_asymm_v5,2020.2.10,MacIntel,60,61025ae37ef11b136ea224fe,,,,,,,,,3341,74,-42.5,1,0,0,response3disk,,5,15,-8.5,1,0,0,rectangle,15,-8.5,1,0,0,15,-8.5,1,0,0,0,157,157,132,1,,,,,,,,
,,,,,,,,,,,,,FF,,,,,,,,0.918,,,,,,,,,,,,,,,,,,,,,,6102f1d7283089bf23293f50,61036e8b66eae2fdffa243ac,2021-07-29_20h16.06.215,Simcolourproject_2stim_asymm_v5,2020.2.10,MacIntel,60,61025ae37ef11b136ea224fe,,,,,,,,,652,77,28.5,1,0,0,response1disk,,6,25,2.5,1,0,0,rectangle,25,2.5,1,0,0,25,2.5,1,0,0,0,158,158,43,1,,,,,,,,
,,,,,,,,,,,,,FF,,,,,,,,1.168,,,,,,,,,,,,,,,,,,,,,,6102f1d7283089bf23293f50,61036e8b66eae2fdffa243ac,2021-07-29_20h16.06.215,Simcolourproject_2stim_asymm_v5,2020.2.10,MacIntel,60,61025ae37ef11b136ea224fe,,,,,,,,,2652,71,-32.5,1,0,0,response3disk,,5,2,8.5,1,0,0,rectangle,2,8.5,1,0,0,2,8.5,1,0,0,0,159,159,70,1,,,,,,,,
,,,,,,,,,,,,,FF,,,,,,,,0.518,,,,,,,,,,,,,,,,,,,,,,6102f1d7283089bf23293f50,61036e8b66eae2fdffa243ac,2021-07-29_20h16.06.215,Simcolourproject_2stim_asymm_v5,2020.2.10,MacIntel,60,61025ae37ef11b136ea224fe,,,,,,,,,1941,40,72.5,1,0,0,response1disk,,7,-6,-9.5,1,0,0,rectangle,-6,-9.5,1,0,0,-6,-9.5,1,0,0,1,0,160,25,1,,,,,,,,
,,,,,,,,,,,,,FF,,,,,,,,0.85,,,,,,,,,,,,,,,,,,,,,,6102f1d7283089bf23293f50,61036e8b66eae2fdffa243ac,2021-07-29_20h16.06.215,Simcolourproject_2stim_asymm_v5,2020.2.10,MacIntel,60,61025ae37ef11b136ea224fe,,,,,,,,,3288,35,58.5,1,0,0,response1disk,,7,9,-11.5,1,0,0,rectangle,9,-11.5,1,0,0,9,-11.5,1,0,0,1,1,161,86,1,,,,,,,,
,,,,,,,,,,,,,FF,,,,,,,,1.3,,,,,,,,,,,,,,,,,,,,,,6102f1d7283089bf23293f50,61036e8b66eae2fdffa243ac,2021-07-29_20h16.06.215,Simcolourproject_2stim_asymm_v5,2020.2.10,MacIntel,60,61025ae37ef11b136ea224fe,,,,,,,,,1762,29,92.5,1,0,0,response1disk,,7,-1,-4.5,1,0,0,rectangle,-1,-4.5,1,0,0,-1,-4.5,1,0,0,1,2,162,133,1,,,,,,,,
,,,,,,,,,,,,,FF,,,,,,,,0.901,,,,,,,,,,,,,,,,,,,,,,6102f1d7283089bf23293f50,61036e8b66eae2fdffa243ac,2021-07-29_20h16.06.215,Simcolourproject_2stim_asymm_v5,2020.2.10,MacIntel,60,61025ae37ef11b136ea224fe,,,,,,,,,1604,-28,-63.5,1,0,0,response5disk,,3,4,-5.5,1,0,0,rectangle,4,-5.5,1,0,0,4,-5.5,1,0,0,1,3,163,4,1,,,,,,,,
,,,,,,,,,,,,,FF,,,,,,,,1.436,,,,,,,,,,,,,,,,,,,,,,6102f1d7283089bf23293f50,61036e8b66eae2fdffa243ac,2021-07-29_20h16.06.215,Simcolourproject_2stim_asymm_v5,2020.2.10,MacIntel,60,61025ae37ef11b136ea224fe,,,,,,,,,198,73,-26.5,1,0,0,response3disk,,5,-5,-11.5,1,0,0,rectangle,-5,-11.5,1,0,0,-5,-11.5,1,0,0,1,4,164,29,1,,,,,,,,
,,,,,,,,,,,,,FF,,,,,,,,1.284,,,,,,,,,,,,,,,,,,,,,,6102f1d7283089bf23293f50,61036e8b66eae2fdffa243ac,2021-07-29_20h16.06.215,Simcolourproject_2stim_asymm_v5,2020.2.10,MacIntel,60,61025ae37ef11b136ea224fe,,,,,,,,,2186,52,81.5,1,0,0,response1disk,,7,12,4.5,1,0,0,rectangle,12,4.5,1,0,0,12,4.5,1,0,0,1,5,165,3,1,,,,,,,,
,,,,,,,,,,,,,FF,,,,,,,,0.801,,,,,,,,,,,,,,,,,,,,,,6102f1d7283089bf23293f50,61036e8b66eae2fdffa243ac,2021-07-29_20h16.06.215,Simcolourproject_2stim_asymm_v5,2020.2.10,MacIntel,60,61025ae37ef11b136ea224fe,,,,,,,,,2393,35,78.5,1,0,0,response1disk,,7,9,-0.5,1,0,0,rectangle,9,-0.5,1,0,0,9,-0.5,1,0,0,1,6,166,121,1,,,,,,,,
,,,,,,,,,,,,,FF,,,,,,,,0.851,,,,,,,,,,,,,,,,,,,,,,6102f1d7283089bf23293f50,61036e8b66eae2fdffa243ac,2021-07-29_20h16.06.215,Simcolourproject_2stim_asymm_v5,2020.2.10,MacIntel,60,61025ae37ef11b136ea224fe,,,,,,,,,1089,35,64.5,1,0,0,response1disk,,7,-1,-6.5,1,0,0,rectangle,-1,-6.5,1,0,0,-1,-6.5,1,0,0,1,7,167,36,1,,,,,,,,
,,,,,,,,,,,,,FF,,,,,,,,0.817,,,,,,,,,,,,,,,,,,,,,,6102f1d7283089bf23293f50,61036e8b66eae2fdffa243ac,2021-07-29_20h16.06.215,Simcolourproject_2stim_asymm_v5,2020.2.10,MacIntel,60,61025ae37ef11b136ea224fe,,,,,,,,,3502,57,-34.5,1,0,0,response3disk,,5,-4,-5.5,1,0,0,rectangle,-4,-5.5,1,0,0,-4,-5.5,1,0,0,1,8,168,67,1,,,,,,,,
,,,,,,,,,,,,,FF,,,,,,,,0.801,,,,,,,,,,,,,,,,,,,,,,6102f1d7283089bf23293f50,61036e8b66eae2fdffa243ac,2021-07-29_20h16.06.215,Simcolourproject_2stim_asymm_v5,2020.2.10,MacIntel,60,61025ae37ef11b136ea224fe,,,,,,,,,262,-56,-28.5,1,0,0,response5disk,,2,-5,2.5,1,0,0,rectangle,-5,2.5,1,0,0,-5,2.5,1,0,0,1,9,169,21,1,,,,,,,,
,,,,,,,,,,,,,FF,,,,,,,,1.154,,,,,,,,,,,,,,,,,,,,,,6102f1d7283089bf23293f50,61036e8b66eae2fdffa243ac,2021-07-29_20h16.06.215,Simcolourproject_2stim_asymm_v5,2020.2.10,MacIntel,60,61025ae37ef11b136ea224fe,,,,,,,,,3180,69,26.5,1,0,0,response1disk,,6,7,0.5,1,0,0,rectangle,7,0.5,1,0,0,7,0.5,1,0,0,1,10,170,6,1,,,,,,,,
,,,,,,,,,,,,,FF,,,,,,,,0.767,,,,,,,,,,,,,,,,,,,,,,6102f1d7283089bf23293f50,61036e8b66eae2fdffa243ac,2021-07-29_20h16.06.215,Simcolourproject_2stim_asymm_v5,2020.2.10,MacIntel,60,61025ae37ef11b136ea224fe,,,,,,,,,3767,37,66.5,1,0,0,response1disk,,7,3,-9.5,1,0,0,rectangle,3,-9.5,1,0,0,3,-9.5,1,0,0,1,11,171,69,1,,,,,,,,
,,,,,,,,,,,,,FF,,,,,,,,0.934,,,,,,,,,,,,,,,,,,,,,,6102f1d7283089bf23293f50,61036e8b66eae2fdffa243ac,2021-07-29_20h16.06.215,Simcolourproject_2stim_asymm_v5,2020.2.10,MacIntel,60,61025ae37ef11b136ea224fe,,,,,,,,,884,18,99.5,1,0,0,response1disk,,7,3,-3.5,1,0,0,rectangle,3,-3.5,1,0,0,3,-3.5,1,0,0,1,12,172,63,1,,,,,,,,
,,,,,,,,,,,,,FF,,,,,,,,1.67,,,,,,,,,,,,,,,,,,,,,,6102f1d7283089bf23293f50,61036e8b66eae2fdffa243ac,2021-07-29_20h16.06.215,Simcolourproject_2stim_asymm_v5,2020.2.10,MacIntel,60,61025ae37ef11b136ea224fe,,,,,,,,,3871,85,31.5,1,0,0,response1disk,,6,15,11.5,1,0,0,rectangle,15,11.5,1,0,0,15,11.5,1,0,0,1,13,173,73,1,,,,,,,,
,,,,,,,,,,,,,FF,,,,,,,,1.167,,,,,,,,,,,,,,,,,,,,,,6102f1d7283089bf23293f50,61036e8b66eae2fdffa243ac,2021-07-29_20h16.06.215,Simcolourproject_2stim_asymm_v5,2020.2.10,MacIntel,60,61025ae37ef11b136ea224fe,,,,,,,,,3001,69,29.5,1,0,0,response1disk,,6,7,6.5,1,0,0,rectangle,7,6.5,1,0,0,7,6.5,1,0,0,1,14,174,140,1,,,,,,,,
,,,,,,,,,,,,,FF,,,,,,,,0.652,,,,,,,,,,,,,,,,,,,,,,6102f1d7283089bf23293f50,61036e8b66eae2fdffa243ac,2021-07-29_20h16.06.215,Simcolourproject_2stim_asymm_v5,2020.2.10,MacIntel,60,61025ae37ef11b136ea224fe,,,,,,,,,2017,43,75.5,1,0,0,response1disk,,7,10,-1.5,1,0,0,rectangle,10,-1.5,1,0,0,10,-1.5,1,0,0,1,15,175,48,1,,,,,,,,
,,,,,,,,,,,,,FF,,,,,,,,0.619,,,,,,,,,,,,,,,,,,,,,,6102f1d7283089bf23293f50,61036e8b66eae2fdffa243ac,2021-07-29_20h16.06.215,Simcolourproject_2stim_asymm_v5,2020.2.10,MacIntel,60,61025ae37ef11b136ea224fe,,,,,,,,,2342,34,71.5,1,0,0,response1disk,,7,4,2.5,1,0,0,rectangle,4,2.5,1,0,0,4,2.5,1,0,0,1,16,176,60,1,,,,,,,,
,,,,,,,,,,,,,FF,,,,,,,,0.469,,,,,,,,,,,,,,,,,,,,,,6102f1d7283089bf23293f50,61036e8b66eae2fdffa243ac,2021-07-29_20h16.06.215,Simcolourproject_2stim_asymm_v5,2020.2.10,MacIntel,60,61025ae37ef11b136ea224fe,,,,,,,,,225,34,70.5,1,0,0,response1disk,,7,4,-1.5,1,0,0,rectangle,4,-1.5,1,0,0,4,-1.5,1,0,0,1,17,177,90,1,,,,,,,,
,,,,,,,,,,,,,FF,,,,,,,,0.42,,,,,,,,,,,,,,,,,,,,,,6102f1d7283089bf23293f50,61036e8b66eae2fdffa243ac,2021-07-29_20h16.06.215,Simcolourproject_2stim_asymm_v5,2020.2.10,MacIntel,60,61025ae37ef11b136ea224fe,,,,,,,,,485,53,93.5,1,0,0,response1disk,,7,-3,-13.5,1,0,0,rectangle,36,-84.5,1,0,0,-8,-6.5,1,0,0,1,18,178,80,1,,response3disk_3,TRUE,4,4,"[272,108,84,64,195,181,290,97,133,280,44,157,253,296,262,179,22,232,209,14]",1.25,rectangle
,,,,,,,,,,,,,FF,,,,,,,,0.987,,,,,,,,,,,,,,,,,,,,,,6102f1d7283089bf23293f50,61036e8b66eae2fdffa243ac,2021-07-29_20h16.06.215,Simcolourproject_2stim_asymm_v5,2020.2.10,MacIntel,60,61025ae37ef11b136ea224fe,,,,,,,,,3968,-27,-62.5,1,0,0,response5disk,,3,-6,-5.5,1,0,0,rectangle,-6,-5.5,1,0,0,-6,-5.5,1,0,0,1,19,179,91,1,,,,,,,,
,,,,,,,,,,,,,FF,,,,,,,,0.75,,,,,,,,,,,,,,,,,,,,,,6102f1d7283089bf23293f50,61036e8b66eae2fdffa243ac,2021-07-29_20h16.06.215,Simcolourproject_2stim_asymm_v5,2020.2.10,MacIntel,60,61025ae37ef11b136ea224fe,,,,,,,,,61,27,60.5,1,0,0,response1disk,,7,9,-4.5,1,0,0,rectangle,62,-18.5,1,0,0,-22,-2.5,1,0,0,1,20,180,37,1,,response3disk_3,TRUE,5,5,"[272,108,84,64,195,181,290,97,133,280,44,157,253,296,262,179,22,232,209,14]",1.266,rectangle
,,,,,,,,,,,,,FF,,,,,,,,3.034,,,,,,,,,,,,,,,,,,,,,,6102f1d7283089bf23293f50,61036e8b66eae2fdffa243ac,2021-07-29_20h16.06.215,Simcolourproject_2stim_asymm_v5,2020.2.10,MacIntel,60,61025ae37ef11b136ea224fe,,,,,,,,,1035,35,73.5,1,0,0,response1disk,,7,15,-4.5,1,0,0,rectangle,15,-4.5,1,0,0,15,-4.5,1,0,0,1,21,181,17,1,,,,,,,,
,,,,,,,,,,,,,FF,,,,,,,,0.517,,,,,,,,,,,,,,,,,,,,,,6102f1d7283089bf23293f50,61036e8b66eae2fdffa243ac,2021-07-29_20h16.06.215,Simcolourproject_2stim_asymm_v5,2020.2.10,MacIntel,60,61025ae37ef11b136ea224fe,,,,,,,,,1471,33,45.5,1,0,0,response1disk,,7,9,9.5,1,0,0,rectangle,9,9.5,1,0,0,9,9.5,1,0,0,1,22,182,107,1,,,,,,,,
,,,,,,,,,,,,,FF,,,,,,,,1,,,,,,,,,,,,,,,,,,,,,,6102f1d7283089bf23293f50,61036e8b66eae2fdffa243ac,2021-07-29_20h16.06.215,Simcolourproject_2stim_asymm_v5,2020.2.10,MacIntel,60,61025ae37ef11b136ea224fe,,,,,,,,,1225,-24,-75.5,1,0,0,response5disk,,3,-4,-7.5,1,0,0,rectangle,-4,-7.5,1,0,0,-4,-7.5,1,0,0,1,23,183,15,1,,,,,,,,
,,,,,,,,,,,,,FF,,,,,,,,1.467,,,,,,,,,,,,,,,,,,,,,,6102f1d7283089bf23293f50,61036e8b66eae2fdffa243ac,2021-07-29_20h16.06.215,Simcolourproject_2stim_asymm_v5,2020.2.10,MacIntel,60,61025ae37ef11b136ea224fe,,,,,,,,,2743,60,28.5,1,0,0,response1disk,,6,4,-10.5,1,0,0,rectangle,4,-10.5,1,0,0,4,-10.5,1,0,0,1,24,184,75,1,,,,,,,,
,,,,,,,,,,,,,FF,,,,,,,,0.8,,,,,,,,,,,,,,,,,,,,,,6102f1d7283089bf23293f50,61036e8b66eae2fdffa243ac,2021-07-29_20h16.06.215,Simcolourproject_2stim_asymm_v5,2020.2.10,MacIntel,60,61025ae37ef11b136ea224fe,,,,,,,,,4316,-20,-50.5,1,0,0,response5disk,,3,-21,-3.5,1,0,0,rectangle,-21,-3.5,1,0,0,-21,-3.5,1,0,0,1,25,185,108,1,,,,,,,,
,,,,,,,,,,,,,FF,,,,,,,,0.503,,,,,,,,,,,,,,,,,,,,,,6102f1d7283089bf23293f50,61036e8b66eae2fdffa243ac,2021-07-29_20h16.06.215,Simcolourproject_2stim_asymm_v5,2020.2.10,MacIntel,60,61025ae37ef11b136ea224fe,,,,,,,,,4335,-29,69.5,1,0,0,response7disk,,0,-5,5.5,1,0,0,rectangle,-5,5.5,1,0,0,-5,5.5,1,0,0,1,26,186,125,1,,,,,,,,
,,,,,,,,,,,,,FF,,,,,,,,1.386,,,,,,,,,,,,,,,,,,,,,,6102f1d7283089bf23293f50,61036e8b66eae2fdffa243ac,2021-07-29_20h16.06.215,Simcolourproject_2stim_asymm_v5,2020.2.10,MacIntel,60,61025ae37ef11b136ea224fe,,,,,,,,,1630,68,23.5,1,0,0,response1disk,,6,23,9.5,1,0,0,rectangle,23,9.5,1,0,0,23,9.5,1,0,0,1,27,187,54,1,,,,,,,,
,,,,,,,,,,,,,FF,,,,,,,,0.853,,,,,,,,,,,,,,,,,,,,,,6102f1d7283089bf23293f50,61036e8b66eae2fdffa243ac,2021-07-29_20h16.06.215,Simcolourproject_2stim_asymm_v5,2020.2.10,MacIntel,60,61025ae37ef11b136ea224fe,,,,,,,,,1475,33,65.5,1,0,0,response1disk,,7,-6,0.5,1,0,0,rectangle,-6,0.5,1,0,0,-6,0.5,1,0,0,1,28,188,87,1,,,,,,,,
,,,,,,,,,,,,,FF,,,,,,,,1.567,,,,,,,,,,,,,,,,,,,,,,6102f1d7283089bf23293f50,61036e8b66eae2fdffa243ac,2021-07-29_20h16.06.215,Simcolourproject_2stim_asymm_v5,2020.2.10,MacIntel,60,61025ae37ef11b136ea224fe,,,,,,,,,3821,36,-71.5,1,0,0,response3disk,,4,-7,-8.5,1,0,0,rectangle,-7,-8.5,1,0,0,-7,-8.5,1,0,0,1,29,189,157,1,,,,,,,,
,,,,,,,,,,,,,FF,,,,,,,,0.872,,,,,,,,,,,,,,,,,,,,,,6102f1d7283089bf23293f50,61036e8b66eae2fdffa243ac,2021-07-29_20h16.06.215,Simcolourproject_2stim_asymm_v5,2020.2.10,MacIntel,60,61025ae37ef11b136ea224fe,,,,,,,,,500,32,53.5,1,0,0,response1disk,,7,7,1.5,1,0,0,rectangle,7,1.5,1,0,0,7,1.5,1,0,0,1,30,190,11,1,,,,,,,,
,,,,,,,,,,,,,FF,,,,,,,,0.751,,,,,,,,,,,,,,,,,,,,,,6102f1d7283089bf23293f50,61036e8b66eae2fdffa243ac,2021-07-29_20h16.06.215,Simcolourproject_2stim_asymm_v5,2020.2.10,MacIntel,60,61025ae37ef11b136ea224fe,,,,,,,,,3576,36,68.5,1,0,0,response1disk,,7,-2,-1.5,1,0,0,rectangle,-2,-1.5,1,0,0,-2,-1.5,1,0,0,1,31,191,112,1,,,,,,,,
,,,,,,,,,,,,,FF,,,,,,,,0.539,,,,,,,,,,,,,,,,,,,,,,6102f1d7283089bf23293f50,61036e8b66eae2fdffa243ac,2021-07-29_20h16.06.215,Simcolourproject_2stim_asymm_v5,2020.2.10,MacIntel,60,61025ae37ef11b136ea224fe,,,,,,,,,2860,19,43.5,1,0,0,response1disk,,7,4,-2.5,1,0,0,rectangle,4,-2.5,1,0,0,4,-2.5,1,0,0,1,32,192,16,1,,,,,,,,
,,,,,,,,,,,,,FF,,,,,,,,1,,,,,,,,,,,,,,,,,,,,,,6102f1d7283089bf23293f50,61036e8b66eae2fdffa243ac,2021-07-29_20h16.06.215,Simcolourproject_2stim_asymm_v5,2020.2.10,MacIntel,60,61025ae37ef11b136ea224fe,,,,,,,,,4331,20,53.5,1,0,0,response1disk,,7,7,-6.5,1,0,0,rectangle,7,-6.5,1,0,0,7,-6.5,1,0,0,1,33,193,122,1,,,,,,,,
,,,,,,,,,,,,,FF,,,,,,,,0.749,,,,,,,,,,,,,,,,,,,,,,6102f1d7283089bf23293f50,61036e8b66eae2fdffa243ac,2021-07-29_20h16.06.215,Simcolourproject_2stim_asymm_v5,2020.2.10,MacIntel,60,61025ae37ef11b136ea224fe,,,,,,,,,1641,39,57.5,1,0,0,response1disk,,7,-1,-12.5,1,0,0,rectangle,-75,-49.5,1,0,0,-8,-5.5,1,0,0,1,34,194,58,1,,response5disk_3,TRUE,2,2,"[272,108,84,64,195,181,290,97,133,280,44,157,253,296,262,179,22,232,209,14]",1.551,rectangle
,,,,,,,,,,,,,FF,,,,,,,,1.068,,,,,,,,,,,,,,,,,,,,,,6102f1d7283089bf23293f50,61036e8b66eae2fdffa243ac,2021-07-29_20h16.06.215,Simcolourproject_2stim_asymm_v5,2020.2.10,MacIntel,60,61025ae37ef11b136ea224fe,,,,,,,,,3942,-26,-67.5,1,0,0,response5disk,,3,2,-3.5,1,0,0,rectangle,2,-3.5,1,0,0,2,-3.5,1,0,0,1,35,195,135,1,,,,,,,,
,,,,,,,,,,,,,FF,,,,,,,,0.767,,,,,,,,,,,,,,,,,,,,,,6102f1d7283089bf23293f50,61036e8b66eae2fdffa243ac,2021-07-29_20h16.06.215,Simcolourproject_2stim_asymm_v5,2020.2.10,MacIntel,60,61025ae37ef11b136ea224fe,,,,,,,,,700,-28,-61.5,1,0,0,response5disk,,3,3,-5.5,1,0,0,rectangle,3,-5.5,1,0,0,3,-5.5,1,0,0,1,36,196,128,1,,,,,,,,
,,,,,,,,,,,,,FF,,,,,,,,1.283,,,,,,,,,,,,,,,,,,,,,,6102f1d7283089bf23293f50,61036e8b66eae2fdffa243ac,2021-07-29_20h16.06.215,Simcolourproject_2stim_asymm_v5,2020.2.10,MacIntel,60,61025ae37ef11b136ea224fe,,,,,,,,,1464,22,-65.5,1,0,0,response3disk,,4,-5,-4.5,1,0,0,rectangle,-5,-4.5,1,0,0,-5,-4.5,1,0,0,1,37,197,113,1,,,,,,,,
,,,,,,,,,,,,,FF,,,,,,,,1.033,,,,,,,,,,,,,,,,,,,,,,6102f1d7283089bf23293f50,61036e8b66eae2fdffa243ac,2021-07-29_20h16.06.215,Simcolourproject_2stim_asymm_v5,2020.2.10,MacIntel,60,61025ae37ef11b136ea224fe,,,,,,,,,1854,35,57.5,1,0,0,response1disk,,7,4,-2.5,1,0,0,rectangle,4,-2.5,1,0,0,4,-2.5,1,0,0,1,38,198,79,1,,,,,,,,
,,,,,,,,,,,,,FF,,,,,,,,1.617,,,,,,,,,,,,,,,,,,,,,,6102f1d7283089bf23293f50,61036e8b66eae2fdffa243ac,2021-07-29_20h16.06.215,Simcolourproject_2stim_asymm_v5,2020.2.10,MacIntel,60,61025ae37ef11b136ea224fe,,,,,,,,,1006,47,88.5,1,0,0,response1disk,,7,2,3.5,1,0,0,rectangle,2,3.5,1,0,0,2,3.5,1,0,0,1,39,199,130,1,,,,,,,,
,,,,,,,,,,,,,FF,,,,,,,,1.684,,,,,,,,,,,,,,,,,,,,,,6102f1d7283089bf23293f50,61036e8b66eae2fdffa243ac,2021-07-29_20h16.06.215,Simcolourproject_2stim_asymm_v5,2020.2.10,MacIntel,60,61025ae37ef11b136ea224fe,,,,,,,,,1617,37,-80.5,1,0,0,response3disk,,4,2,2.5,1,0,0,rectangle,2,2.5,1,0,0,2,2.5,1,0,0,1,40,200,95,1,,,,,,,,
,,,,,,,,,,,,,FF,,,,,,,,0.567,,,,,,,,,,,,,,,,,,,,,,6102f1d7283089bf23293f50,61036e8b66eae2fdffa243ac,2021-07-29_20h16.06.215,Simcolourproject_2stim_asymm_v5,2020.2.10,MacIntel,60,61025ae37ef11b136ea224fe,,,,,,,,,1491,36,72.5,1,0,0,response1disk,,7,5,-1.5,1,0,0,rectangle,5,-1.5,1,0,0,5,-1.5,1,0,0,1,41,201,28,1,,,,,,,,
,,,,,,,,,,,,,FF,,,,,,,,1.137,,,,,,,,,,,,,,,,,,,,,,6102f1d7283089bf23293f50,61036e8b66eae2fdffa243ac,2021-07-29_20h16.06.215,Simcolourproject_2stim_asymm_v5,2020.2.10,MacIntel,60,61025ae37ef11b136ea224fe,,,,,,,,,4366,-62,37.5,1,0,0,response7disk,,1,4,-7.5,1,0,0,rectangle,4,-7.5,1,0,0,4,-7.5,1,0,0,1,42,202,104,1,,,,,,,,
,,,,,,,,,,,,,FF,,,,,,,,0.651,,,,,,,,,,,,,,,,,,,,,,6102f1d7283089bf23293f50,61036e8b66eae2fdffa243ac,2021-07-29_20h16.06.215,Simcolourproject_2stim_asymm_v5,2020.2.10,MacIntel,60,61025ae37ef11b136ea224fe,,,,,,,,,2524,31,65.5,1,0,0,response1disk,,7,-1,2.5,1,0,0,rectangle,-1,2.5,1,0,0,-1,2.5,1,0,0,1,43,203,85,1,,,,,,,,
,,,,,,,,,,,,,FF,,,,,,,,2.334,,,,,,,,,,,,,,,,,,,,,,6102f1d7283089bf23293f50,61036e8b66eae2fdffa243ac,2021-07-29_20h16.06.215,Simcolourproject_2stim_asymm_v5,2020.2.10,MacIntel,60,61025ae37ef11b136ea224fe,,,,,,,,,3663,33,-90.5,1,0,0,response3disk,,4,6,-6.5,1,0,0,rectangle,6,-6.5,1,0,0,6,-6.5,1,0,0,1,44,204,55,1,,,,,,,,
,,,,,,,,,,,,,FF,,,,,,,,9.667,,,,,,,,,,,,,,,,,,,,,,6102f1d7283089bf23293f50,61036e8b66eae2fdffa243ac,2021-07-29_20h16.06.215,Simcolourproject_2stim_asymm_v5,2020.2.10,MacIntel,60,61025ae37ef11b136ea224fe,,,,,,,,,3399,76,-34.5,1,0,0,response3disk,,5,2,5.5,1,0,0,rectangle,2,5.5,1,0,0,2,5.5,1,0,0,1,45,205,159,1,,,,,,,,
,,,,,,,,,,,,,FF,,,,,,,,0.983,,,,,,,,,,,,,,,,,,,,,,6102f1d7283089bf23293f50,61036e8b66eae2fdffa243ac,2021-07-29_20h16.06.215,Simcolourproject_2stim_asymm_v5,2020.2.10,MacIntel,60,61025ae37ef11b136ea224fe,,,,,,,,,3505,83,-54.5,1,0,0,response3disk,,5,1,-3.5,1,0,0,rectangle,1,-3.5,1,0,0,1,-3.5,1,0,0,1,46,206,7,1,,,,,,,,
,,,,,,,,,,,,,FF,,,,,,,,0.833,,,,,,,,,,,,,,,,,,,,,,6102f1d7283089bf23293f50,61036e8b66eae2fdffa243ac,2021-07-29_20h16.06.215,Simcolourproject_2stim_asymm_v5,2020.2.10,MacIntel,60,61025ae37ef11b136ea224fe,,,,,,,,,237,26,75.5,1,0,0,response1disk,,7,10,-7.5,1,0,0,rectangle,10,-7.5,1,0,0,10,-7.5,1,0,0,1,47,207,89,1,,,,,,,,
,,,,,,,,,,,,,FF,,,,,,,,0.533,,,,,,,,,,,,,,,,,,,,,,6102f1d7283089bf23293f50,61036e8b66eae2fdffa243ac,2021-07-29_20h16.06.215,Simcolourproject_2stim_asymm_v5,2020.2.10,MacIntel,60,61025ae37ef11b136ea224fe,,,,,,,,,4038,31,65.5,1,0,0,response1disk,,7,6,-1.5,1,0,0,rectangle,-59,31.5,1,0,0,1,-3.5,1,0,0,1,48,208,12,1,,response7disk_3,TRUE,1,1,"[272,108,84,64,195,181,290,97,133,280,44,157,253,296,262,179,22,232,209,14]",1.634,rectangle
,,,,,,,,,,,,,FF,,,,,,,,1.734,,,,,,,,,,,,,,,,,,,,,,6102f1d7283089bf23293f50,61036e8b66eae2fdffa243ac,2021-07-29_20h16.06.215,Simcolourproject_2stim_asymm_v5,2020.2.10,MacIntel,60,61025ae37ef11b136ea224fe,,,,,,,,,2144,33,66.5,1,0,0,response1disk,,7,0,-9.5,1,0,0,rectangle,0,-9.5,1,0,0,0,-9.5,1,0,0,1,49,209,35,1,,,,,,,,
,,,,,,,,,,,,,FF,,,,,,,,0.968,,,,,,,,,,,,,,,,,,,,,,6102f1d7283089bf23293f50,61036e8b66eae2fdffa243ac,2021-07-29_20h16.06.215,Simcolourproject_2stim_asymm_v5,2020.2.10,MacIntel,60,61025ae37ef11b136ea224fe,,,,,,,,,3382,-56,52.5,1,0,0,response7disk,,1,-3,7.5,1,0,0,rectangle,-3,7.5,1,0,0,-3,7.5,1,0,0,1,50,210,46,1,,,,,,,,
,,,,,,,,,,,,,FF,,,,,,,,0.552,,,,,,,,,,,,,,,,,,,,,,6102f1d7283089bf23293f50,61036e8b66eae2fdffa243ac,2021-07-29_20h16.06.215,Simcolourproject_2stim_asymm_v5,2020.2.10,MacIntel,60,61025ae37ef11b136ea224fe,,,,,,,,,4161,-26,65.5,1,0,0,response7disk,,0,0,-3.5,1,0,0,rectangle,0,-3.5,1,0,0,0,-3.5,1,0,0,1,51,211,126,1,,,,,,,,
,,,,,,,,,,,,,FF,,,,,,,,1.102,,,,,,,,,,,,,,,,,,,,,,6102f1d7283089bf23293f50,61036e8b66eae2fdffa243ac,2021-07-29_20h16.06.215,Simcolourproject_2stim_asymm_v5,2020.2.10,MacIntel,60,61025ae37ef11b136ea224fe,,,,,,,,,4089,75,-38.5,1,0,0,response3disk,,5,-1,2.5,1,0,0,rectangle,-1,2.5,1,0,0,-1,2.5,1,0,0,1,52,212,147,1,,,,,,,,
,,,,,,,,,,,,,FF,,,,,,,,0.683,,,,,,,,,,,,,,,,,,,,,,6102f1d7283089bf23293f50,61036e8b66eae2fdffa243ac,2021-07-29_20h16.06.215,Simcolourproject_2stim_asymm_v5,2020.2.10,MacIntel,60,61025ae37ef11b136ea224fe,,,,,,,,,1578,31,60.5,1,0,0,response1disk,,7,8,-8.5,1,0,0,rectangle,8,-8.5,1,0,0,8,-8.5,1,0,0,1,53,213,47,1,,,,,,,,
,,,,,,,,,,,,,FF,,,,,,,,0.586,,,,,,,,,,,,,,,,,,,,,,6102f1d7283089bf23293f50,61036e8b66eae2fdffa243ac,2021-07-29_20h16.06.215,Simcolourproject_2stim_asymm_v5,2020.2.10,MacIntel,60,61025ae37ef11b136ea224fe,,,,,,,,,841,49,76.5,1,0,0,response1disk,,7,7,-5.5,1,0,0,rectangle,7,-5.5,1,0,0,7,-5.5,1,0,0,1,54,214,118,1,,,,,,,,
,,,,,,,,,,,,,FF,,,,,,,,0.504,,,,,,,,,,,,,,,,,,,,,,6102f1d7283089bf23293f50,61036e8b66eae2fdffa243ac,2021-07-29_20h16.06.215,Simcolourproject_2stim_asymm_v5,2020.2.10,MacIntel,60,61025ae37ef11b136ea224fe,,,,,,,,,784,54,98.5,1,0,0,response1disk,,7,8,-6.5,1,0,0,rectangle,8,-6.5,1,0,0,8,-6.5,1,0,0,1,55,215,131,1,,,,,,,,
,,,,,,,,,,,,,FF,,,,,,,,0.75,,,,,,,,,,,,,,,,,,,,,,6102f1d7283089bf23293f50,61036e8b66eae2fdffa243ac,2021-07-29_20h16.06.215,Simcolourproject_2stim_asymm_v5,2020.2.10,MacIntel,60,61025ae37ef11b136ea224fe,,,,,,,,,1856,28,62.5,1,0,0,response1disk,,7,-7,-11.5,1,0,0,rectangle,-7,-11.5,1,0,0,-7,-11.5,1,0,0,1,56,216,117,1,,,,,,,,
,,,,,,,,,,,,,FF,,,,,,,,0.537,,,,,,,,,,,,,,,,,,,,,,6102f1d7283089bf23293f50,61036e8b66eae2fdffa243ac,2021-07-29_20h16.06.215,Simcolourproject_2stim_asymm_v5,2020.2.10,MacIntel,60,61025ae37ef11b136ea224fe,,,,,,,,,4257,22,56.5,1,0,0,response1disk,,7,1,-6.5,1,0,0,rectangle,1,-6.5,1,0,0,1,-6.5,1,0,0,1,57,217,10,1,,,,,,,,
,,,,,,,,,,,,,FF,,,,,,,,1.034,,,,,,,,,,,,,,,,,,,,,,6102f1d7283089bf23293f50,61036e8b66eae2fdffa243ac,2021-07-29_20h16.06.215,Simcolourproject_2stim_asymm_v5,2020.2.10,MacIntel,60,61025ae37ef11b136ea224fe,,,,,,,,,900,85,23.5,1,0,0,response1disk,,6,1,-7.5,1,0,0,rectangle,1,-7.5,1,0,0,1,-7.5,1,0,0,1,58,218,132,1,,,,,,,,
,,,,,,,,,,,,,FF,,,,,,,,0.883,,,,,,,,,,,,,,,,,,,,,,6102f1d7283089bf23293f50,61036e8b66eae2fdffa243ac,2021-07-29_20h16.06.215,Simcolourproject_2stim_asymm_v5,2020.2.10,MacIntel,60,61025ae37ef11b136ea224fe,,,,,,,,,1968,73,-47.5,1,0,0,response3disk,,5,-4,-2.5,1,0,0,rectangle,-4,-2.5,1,0,0,-4,-2.5,1,0,0,1,59,219,120,1,,,,,,,,
,,,,,,,,,,,,,FF,,,,,,,,1.471,,,,,,,,,,,,,,,,,,,,,,6102f1d7283089bf23293f50,61036e8b66eae2fdffa243ac,2021-07-29_20h16.06.215,Simcolourproject_2stim_asymm_v5,2020.2.10,MacIntel,60,61025ae37ef11b136ea224fe,,,,,,,,,1065,68,32.5,1,0,0,response1disk,,6,8,-2.5,1,0,0,rectangle,8,-2.5,1,0,0,8,-2.5,1,0,0,1,60,220,156,1,,,,,,,,
,,,,,,,,,,,,,FF,,,,,,,,0.883,,,,,,,,,,,,,,,,,,,,,,6102f1d7283089bf23293f50,61036e8b66eae2fdffa243ac,2021-07-29_20h16.06.215,Simcolourproject_2stim_asymm_v5,2020.2.10,MacIntel,60,61025ae37ef11b136ea224fe,,,,,,,,,1301,35,-45.5,1,0,0,response3disk,,4,1,-10.5,1,0,0,rectangle,1,-10.5,1,0,0,1,-10.5,1,0,0,1,61,221,154,1,,,,,,,,
,,,,,,,,,,,,,FF,,,,,,,,1.721,,,,,,,,,,,,,,,,,,,,,,6102f1d7283089bf23293f50,61036e8b66eae2fdffa243ac,2021-07-29_20h16.06.215,Simcolourproject_2stim_asymm_v5,2020.2.10,MacIntel,60,61025ae37ef11b136ea224fe,,,,,,,,,1463,72,-38.5,1,0,0,response3disk,,5,-3,-7.5,1,0,0,rectangle,-3,-7.5,1,0,0,-3,-7.5,1,0,0,1,62,222,78,1,,,,,,,,
,,,,,,,,,,,,,FF,,,,,,,,1.317,,,,,,,,,,,,,,,,,,,,,,6102f1d7283089bf23293f50,61036e8b66eae2fdffa243ac,2021-07-29_20h16.06.215,Simcolourproject_2stim_asymm_v5,2020.2.10,MacIntel,60,61025ae37ef11b136ea224fe,,,,,,,,,3419,74,-34.5,1,0,0,response3disk,,5,-9,-2.5,1,0,0,rectangle,-9,-2.5,1,0,0,-9,-2.5,1,0,0,1,63,223,34,1,,,,,,,,
,,,,,,,,,,,,,FF,,,,,,,,0.8,,,,,,,,,,,,,,,,,,,,,,6102f1d7283089bf23293f50,61036e8b66eae2fdffa243ac,2021-07-29_20h16.06.215,Simcolourproject_2stim_asymm_v5,2020.2.10,MacIntel,60,61025ae37ef11b136ea224fe,,,,,,,,,2362,-64,-37.5,1,0,0,response5disk,,2,-1,-5.5,1,0,0,rectangle,-1,-5.5,1,0,0,-1,-5.5,1,0,0,1,64,224,42,1,,,,,,,,
,,,,,,,,,,,,,FF,,,,,,,,0.685,,,,,,,,,,,,,,,,,,,,,,6102f1d7283089bf23293f50,61036e8b66eae2fdffa243ac,2021-07-29_20h16.06.215,Simcolourproject_2stim_asymm_v5,2020.2.10,MacIntel,60,61025ae37ef11b136ea224fe,,,,,,,,,3118,39,66.5,1,0,0,response1disk,,7,-12,-9.5,1,0,0,rectangle,-12,-9.5,1,0,0,-12,-9.5,1,0,0,1,65,225,93,1,,,,,,,,
,,,,,,,,,,,,,FF,,,,,,,,1.988,,,,,,,,,,,,,,,,,,,,,,6102f1d7283089bf23293f50,61036e8b66eae2fdffa243ac,2021-07-29_20h16.06.215,Simcolourproject_2stim_asymm_v5,2020.2.10,MacIntel,60,61025ae37ef11b136ea224fe,,,,,,,,,1914,35,59.5,1,0,0,response1disk,,7,-7,-9.5,1,0,0,rectangle,-7,-9.5,1,0,0,-7,-9.5,1,0,0,1,66,226,153,1,,,,,,,,
,,,,,,,,,,,,,FF,,,,,,,,0.636,,,,,,,,,,,,,,,,,,,,,,6102f1d7283089bf23293f50,61036e8b66eae2fdffa243ac,2021-07-29_20h16.06.215,Simcolourproject_2stim_asymm_v5,2020.2.10,MacIntel,60,61025ae37ef11b136ea224fe,,,,,,,,,2575,42,76.5,1,0,0,response1disk,,7,0,-0.5,1,0,0,rectangle,0,-0.5,1,0,0,0,-0.5,1,0,0,1,67,227,115,1,,,,,,,,
,,,,,,,,,,,,,FF,,,,,,,,0.552,,,,,,,,,,,,,,,,,,,,,,6102f1d7283089bf23293f50,61036e8b66eae2fdffa243ac,2021-07-29_20h16.06.215,Simcolourproject_2stim_asymm_v5,2020.2.10,MacIntel,60,61025ae37ef11b136ea224fe,,,,,,,,,2462,33,58.5,1,0,0,response1disk,,7,10,-1.5,1,0,0,rectangle,10,-1.5,1,0,0,10,-1.5,1,0,0,1,68,228,100,1,,,,,,,,
,,,,,,,,,,,,,FF,,,,,,,,1.266,,,,,,,,,,,,,,,,,,,,,,6102f1d7283089bf23293f50,61036e8b66eae2fdffa243ac,2021-07-29_20h16.06.215,Simcolourproject_2stim_asymm_v5,2020.2.10,MacIntel,60,61025ae37ef11b136ea224fe,,,,,,,,,1138,-76,-35.5,1,0,0,response5disk,,2,12,10.5,1,0,0,rectangle,12,10.5,1,0,0,12,10.5,1,0,0,1,69,229,134,1,,,,,,,,
,,,,,,,,,,,,,FF,,,,,,,,1.332,,,,,,,,,,,,,,,,,,,,,,6102f1d7283089bf23293f50,61036e8b66eae2fdffa243ac,2021-07-29_20h16.06.215,Simcolourproject_2stim_asymm_v5,2020.2.10,MacIntel,60,61025ae37ef11b136ea224fe,,,,,,,,,995,70,-29.5,1,0,0,response3disk,,5,-1,-5.5,1,0,0,rectangle,-1,-5.5,1,0,0,-1,-5.5,1,0,0,1,70,230,127,1,,,,,,,,
,,,,,,,,,,,,,FF,,,,,,,,1.028,,,,,,,,,,,,,,,,,,,,,,6102f1d7283089bf23293f50,61036e8b66eae2fdffa243ac,2021-07-29_20h16.06.215,Simcolourproject_2stim_asymm_v5,2020.2.10,MacIntel,60,61025ae37ef11b136ea224fe,,,,,,,,,557,32,70.5,1,0,0,response1disk,,7,11,7.5,1,0,0,rectangle,-34,-87.5,1,0,0,-6,-2.5,1,0,0,1,71,231,76,1,,response5disk_3,TRUE,3,3,"[272,108,84,64,195,181,290,97,133,280,44,157,253,296,262,179,22,232,209,14]",1.799,rectangle
,,,,,,,,,,,,,FF,,,,,,,,1.033,,,,,,,,,,,,,,,,,,,,,,6102f1d7283089bf23293f50,61036e8b66eae2fdffa243ac,2021-07-29_20h16.06.215,Simcolourproject_2stim_asymm_v5,2020.2.10,MacIntel,60,61025ae37ef11b136ea224fe,,,,,,,,,4060,98,33.5,1,0,0,response1disk,,6,-12,-6.5,1,0,0,rectangle,-12,-6.5,1,0,0,-12,-6.5,1,0,0,1,72,232,33,1,,,,,,,,
,,,,,,,,,,,,,FF,,,,,,,,0.702,,,,,,,,,,,,,,,,,,,,,,6102f1d7283089bf23293f50,61036e8b66eae2fdffa243ac,2021-07-29_20h16.06.215,Simcolourproject_2stim_asymm_v5,2020.2.10,MacIntel,60,61025ae37ef11b136ea224fe,,,,,,,,,269,32,55.5,1,0,0,response1disk,,7,7,-0.5,1,0,0,rectangle,7,-0.5,1,0,0,7,-0.5,1,0,0,1,73,233,38,1,,,,,,,,
,,,,,,,,,,,,,FF,,,,,,,,0.834,,,,,,,,,,,,,,,,,,,,,,6102f1d7283089bf23293f50,61036e8b66eae2fdffa243ac,2021-07-29_20h16.06.215,Simcolourproject_2stim_asymm_v5,2020.2.10,MacIntel,60,61025ae37ef11b136ea224fe,,,,,,,,,1998,46,72.5,1,0,0,response1disk,,7,8,3.5,1,0,0,rectangle,8,3.5,1,0,0,8,3.5,1,0,0,1,74,234,45,1,,,,,,,,
,,,,,,,,,,,,,FF,,,,,,,,0.818,,,,,,,,,,,,,,,,,,,,,,6102f1d7283089bf23293f50,61036e8b66eae2fdffa243ac,2021-07-29_20h16.06.215,Simcolourproject_2stim_asymm_v5,2020.2.10,MacIntel,60,61025ae37ef11b136ea224fe,,,,,,,,,3925,74,28.5,1,0,0,response1disk,,6,4,2.5,1,0,0,rectangle,4,2.5,1,0,0,4,2.5,1,0,0,1,75,235,109,1,,,,,,,,
,,,,,,,,,,,,,FF,,,,,,,,0.666,,,,,,,,,,,,,,,,,,,,,,6102f1d7283089bf23293f50,61036e8b66eae2fdffa243ac,2021-07-29_20h16.06.215,Simcolourproject_2stim_asymm_v5,2020.2.10,MacIntel,60,61025ae37ef11b136ea224fe,,,,,,,,,867,39,58.5,1,0,0,response1disk,,7,3,2.5,1,0,0,rectangle,3,2.5,1,0,0,3,2.5,1,0,0,1,76,236,57,1,,,,,,,,
,,,,,,,,,,,,,FF,,,,,,,,1.285,,,,,,,,,,,,,,,,,,,,,,6102f1d7283089bf23293f50,61036e8b66eae2fdffa243ac,2021-07-29_20h16.06.215,Simcolourproject_2stim_asymm_v5,2020.2.10,MacIntel,60,61025ae37ef11b136ea224fe,,,,,,,,,4119,-37,-76.5,1,0,0,response5disk,,3,-17,2.5,1,0,0,rectangle,-17,2.5,1,0,0,-17,2.5,1,0,0,1,77,237,0,1,,,,,,,,
,,,,,,,,,,,,,FF,,,,,,,,0.619,,,,,,,,,,,,,,,,,,,,,,6102f1d7283089bf23293f50,61036e8b66eae2fdffa243ac,2021-07-29_20h16.06.215,Simcolourproject_2stim_asymm_v5,2020.2.10,MacIntel,60,61025ae37ef11b136ea224fe,,,,,,,,,603,34,91.5,1,0,0,response1disk,,7,-5,-6.5,1,0,0,rectangle,-5,-6.5,1,0,0,-5,-6.5,1,0,0,1,78,238,20,1,,,,,,,,
,,,,,,,,,,,,,FF,,,,,,,,0.822,,,,,,,,,,,,,,,,,,,,,,6102f1d7283089bf23293f50,61036e8b66eae2fdffa243ac,2021-07-29_20h16.06.215,Simcolourproject_2stim_asymm_v5,2020.2.10,MacIntel,60,61025ae37ef11b136ea224fe,,,,,,,,,69,31,64.5,1,0,0,response1disk,,7,-1,-1.5,1,0,0,rectangle,-1,-1.5,1,0,0,-1,-1.5,1,0,0,1,79,239,49,1,,,,,,,,
,,,,,,,,,,,,,FF,,,,,,,,1.288,,,,,,,,,,,,,,,,,,,,,,6102f1d7283089bf23293f50,61036e8b66eae2fdffa243ac,2021-07-29_20h16.06.215,Simcolourproject_2stim_asymm_v5,2020.2.10,MacIntel,60,61025ae37ef11b136ea224fe,,,,,,,,,2038,31,-89.5,1,0,0,response3disk,,4,-1,-0.5,1,0,0,rectangle,-1,-0.5,1,0,0,-1,-0.5,1,0,0,1,80,240,99,1,,,,,,,,
,,,,,,,,,,,,,FF,,,,,,,,1.084,,,,,,,,,,,,,,,,,,,,,,6102f1d7283089bf23293f50,61036e8b66eae2fdffa243ac,2021-07-29_20h16.06.215,Simcolourproject_2stim_asymm_v5,2020.2.10,MacIntel,60,61025ae37ef11b136ea224fe,,,,,,,,,872,27,51.5,1,0,0,response1disk,,7,13,-4.5,1,0,0,rectangle,13,-4.5,1,0,0,13,-4.5,1,0,0,1,81,241,116,1,,,,,,,,
,,,,,,,,,,,,,FF,,,,,,,,0.726,,,,,,,,,,,,,,,,,,,,,,6102f1d7283089bf23293f50,61036e8b66eae2fdffa243ac,2021-07-29_20h16.06.215,Simcolourproject_2stim_asymm_v5,2020.2.10,MacIntel,60,61025ae37ef11b136ea224fe,,,,,,,,,4308,46,68.5,1,0,0,response1disk,,7,-2,-7.5,1,0,0,rectangle,-2,-7.5,1,0,0,-2,-7.5,1,0,0,1,82,242,18,1,,,,,,,,
,,,,,,,,,,,,,FF,,,,,,,,1.104,,,,,,,,,,,,,,,,,,,,,,6102f1d7283089bf23293f50,61036e8b66eae2fdffa243ac,2021-07-29_20h16.06.215,Simcolourproject_2stim_asymm_v5,2020.2.10,MacIntel,60,61025ae37ef11b136ea224fe,,,,,,,,,2433,66,-42.5,1,0,0,response3disk,,5,6,2.5,1,0,0,rectangle,6,2.5,1,0,0,6,2.5,1,0,0,1,83,243,103,1,,,,,,,,
,,,,,,,,,,,,,FF,,,,,,,,1.501,,,,,,,,,,,,,,,,,,,,,,6102f1d7283089bf23293f50,61036e8b66eae2fdffa243ac,2021-07-29_20h16.06.215,Simcolourproject_2stim_asymm_v5,2020.2.10,MacIntel,60,61025ae37ef11b136ea224fe,,,,,,,,,3446,82,25.5,1,0,0,response1disk,,6,8,2.5,1,0,0,rectangle,8,2.5,1,0,0,8,2.5,1,0,0,1,84,244,52,1,,,,,,,,
,,,,,,,,,,,,,FF,,,,,,,,1.119,,,,,,,,,,,,,,,,,,,,,,6102f1d7283089bf23293f50,61036e8b66eae2fdffa243ac,2021-07-29_20h16.06.215,Simcolourproject_2stim_asymm_v5,2020.2.10,MacIntel,60,61025ae37ef11b136ea224fe,,,,,,,,,988,68,-41.5,1,0,0,response3disk,,5,0,-9.5,1,0,0,rectangle,0,-9.5,1,0,0,0,-9.5,1,0,0,1,85,245,43,1,,,,,,,,
,,,,,,,,,,,,,FF,,,,,,,,3.134,,,,,,,,,,,,,,,,,,,,,,6102f1d7283089bf23293f50,61036e8b66eae2fdffa243ac,2021-07-29_20h16.06.215,Simcolourproject_2stim_asymm_v5,2020.2.10,MacIntel,60,61025ae37ef11b136ea224fe,,,,,,,,,3479,73,30.5,1,0,0,response1disk,,6,5,-5.5,1,0,0,rectangle,5,-5.5,1,0,0,5,-5.5,1,0,0,1,86,246,82,1,,,,,,,,
,,,,,,,,,,,,,FF,,,,,,,,1.15,,,,,,,,,,,,,,,,,,,,,,6102f1d7283089bf23293f50,61036e8b66eae2fdffa243ac,2021-07-29_20h16.06.215,Simcolourproject_2stim_asymm_v5,2020.2.10,MacIntel,60,61025ae37ef11b136ea224fe,,,,,,,,,1760,-60,-16.5,1,0,0,response5disk,,2,1,8.5,1,0,0,rectangle,1,8.5,1,0,0,1,8.5,1,0,0,1,87,247,98,1,,,,,,,,
,,,,,,,,,,,,,FF,,,,,,,,1.103,,,,,,,,,,,,,,,,,,,,,,6102f1d7283089bf23293f50,61036e8b66eae2fdffa243ac,2021-07-29_20h16.06.215,Simcolourproject_2stim_asymm_v5,2020.2.10,MacIntel,60,61025ae37ef11b136ea224fe,,,,,,,,,385,40,71.5,1,0,0,response1disk,,7,4,-5.5,1,0,0,rectangle,4,-5.5,1,0,0,4,-5.5,1,0,0,1,88,248,111,1,,,,,,,,
,,,,,,,,,,,,,FF,,,,,,,,3.717,,,,,,,,,,,,,,,,,,,,,,6102f1d7283089bf23293f50,61036e8b66eae2fdffa243ac,2021-07-29_20h16.06.215,Simcolourproject_2stim_asymm_v5,2020.2.10,MacIntel,60,61025ae37ef11b136ea224fe,,,,,,,,,3206,76,-41.5,1,0,0,response3disk,,5,-21,5.5,1,0,0,rectangle,-21,5.5,1,0,0,-21,5.5,1,0,0,1,89,249,31,1,,,,,,,,
,,,,,,,,,,,,,FF,,,,,,,,1.783,,,,,,,,,,,,,,,,,,,,,,6102f1d7283089bf23293f50,61036e8b66eae2fdffa243ac,2021-07-29_20h16.06.215,Simcolourproject_2stim_asymm_v5,2020.2.10,MacIntel,60,61025ae37ef11b136ea224fe,,,,,,,,,3107,21,-89.5,1,0,0,response3disk,,4,1,-4.5,1,0,0,rectangle,1,-4.5,1,0,0,1,-4.5,1,0,0,1,90,250,24,1,,,,,,,,
,,,,,,,,,,,,,FF,,,,,,,,1.366,,,,,,,,,,,,,,,,,,,,,,6102f1d7283089bf23293f50,61036e8b66eae2fdffa243ac,2021-07-29_20h16.06.215,Simcolourproject_2stim_asymm_v5,2020.2.10,MacIntel,60,61025ae37ef11b136ea224fe,,,,,,,,,197,76,-40.5,1,0,0,response3disk,,5,5,-3.5,1,0,0,rectangle,5,-3.5,1,0,0,5,-3.5,1,0,0,1,91,251,114,1,,,,,,,,
,,,,,,,,,,,,,FF,,,,,,,,0.922,,,,,,,,,,,,,,,,,,,,,,6102f1d7283089bf23293f50,61036e8b66eae2fdffa243ac,2021-07-29_20h16.06.215,Simcolourproject_2stim_asymm_v5,2020.2.10,MacIntel,60,61025ae37ef11b136ea224fe,,,,,,,,,3515,-66,34.5,1,0,0,response7disk,,1,-1,-1.5,1,0,0,rectangle,43,73.5,1,0,0,9,-2.5,1,0,0,1,92,252,94,1,,response1disk_3,TRUE,7,7,"[272,108,84,64,195,181,290,97,133,280,44,157,253,296,262,179,22,232,209,14]",1.604,rectangle
,,,,,,,,,,,,,FF,,,,,,,,0.766,,,,,,,,,,,,,,,,,,,,,,6102f1d7283089bf23293f50,61036e8b66eae2fdffa243ac,2021-07-29_20h16.06.215,Simcolourproject_2stim_asymm_v5,2020.2.10,MacIntel,60,61025ae37ef11b136ea224fe,,,,,,,,,2253,55,87.5,1,0,0,response1disk,,7,13,6.5,1,0,0,rectangle,13,6.5,1,0,0,13,6.5,1,0,0,1,93,253,155,1,,,,,,,,
,,,,,,,,,,,,,FF,,,,,,,,0.8,,,,,,,,,,,,,,,,,,,,,,6102f1d7283089bf23293f50,61036e8b66eae2fdffa243ac,2021-07-29_20h16.06.215,Simcolourproject_2stim_asymm_v5,2020.2.10,MacIntel,60,61025ae37ef11b136ea224fe,,,,,,,,,187,-23,-69.5,1,0,0,response5disk,,3,0,8.5,1,0,0,rectangle,0,8.5,1,0,0,0,8.5,1,0,0,1,94,254,124,1,,,,,,,,
,,,,,,,,,,,,,FF,,,,,,,,0.984,,,,,,,,,,,,,,,,,,,,,,6102f1d7283089bf23293f50,61036e8b66eae2fdffa243ac,2021-07-29_20h16.06.215,Simcolourproject_2stim_asymm_v5,2020.2.10,MacIntel,60,61025ae37ef11b136ea224fe,,,,,,,,,2675,44,-70.5,1,0,0,response3disk,,4,-3,-0.5,1,0,0,rectangle,-3,-0.5,1,0,0,-3,-0.5,1,0,0,1,95,255,139,1,,,,,,,,
,,,,,,,,,,,,,FF,,,,,,,,1.053,,,,,,,,,,,,,,,,,,,,,,6102f1d7283089bf23293f50,61036e8b66eae2fdffa243ac,2021-07-29_20h16.06.215,Simcolourproject_2stim_asymm_v5,2020.2.10,MacIntel,60,61025ae37ef11b136ea224fe,,,,,,,,,1571,33,71.5,1,0,0,response1disk,,7,2,1.5,1,0,0,rectangle,2,1.5,1,0,0,2,1.5,1,0,0,1,96,256,97,1,,,,,,,,
,,,,,,,,,,,,,FF,,,,,,,,0.601,,,,,,,,,,,,,,,,,,,,,,6102f1d7283089bf23293f50,61036e8b66eae2fdffa243ac,2021-07-29_20h16.06.215,Simcolourproject_2stim_asymm_v5,2020.2.10,MacIntel,60,61025ae37ef11b136ea224fe,,,,,,,,,1127,41,67.5,1,0,0,response1disk,,7,-1,-2.5,1,0,0,rectangle,-1,-2.5,1,0,0,-1,-2.5,1,0,0,1,97,257,151,1,,,,,,,,
,,,,,,,,,,,,,FF,,,,,,,,1.069,,,,,,,,,,,,,,,,,,,,,,6102f1d7283089bf23293f50,61036e8b66eae2fdffa243ac,2021-07-29_20h16.06.215,Simcolourproject_2stim_asymm_v5,2020.2.10,MacIntel,60,61025ae37ef11b136ea224fe,,,,,,,,,3287,79,-42.5,1,0,0,response3disk,,5,8,-7.5,1,0,0,rectangle,8,-7.5,1,0,0,8,-7.5,1,0,0,1,98,258,106,1,,,,,,,,
,,,,,,,,,,,,,FF,,,,,,,,0.984,,,,,,,,,,,,,,,,,,,,,,6102f1d7283089bf23293f50,61036e8b66eae2fdffa243ac,2021-07-29_20h16.06.215,Simcolourproject_2stim_asymm_v5,2020.2.10,MacIntel,60,61025ae37ef11b136ea224fe,,,,,,,,,4318,93,33.5,1,0,0,response1disk,,6,8,0.5,1,0,0,rectangle,8,0.5,1,0,0,8,0.5,1,0,0,1,99,259,62,1,,,,,,,,
,,,,,,,,,,,,,FF,,,,,,,,1.467,,,,,,,,,,,,,,,,,,,,,,6102f1d7283089bf23293f50,61036e8b66eae2fdffa243ac,2021-07-29_20h16.06.215,Simcolourproject_2stim_asymm_v5,2020.2.10,MacIntel,60,61025ae37ef11b136ea224fe,,,,,,,,,1748,70,-41.5,1,0,0,response3disk,,5,-1,-8.5,1,0,0,rectangle,-1,-8.5,1,0,0,-1,-8.5,1,0,0,1,100,260,51,1,,,,,,,,
,,,,,,,,,,,,,FF,,,,,,,,1.066,,,,,,,,,,,,,,,,,,,,,,6102f1d7283089bf23293f50,61036e8b66eae2fdffa243ac,2021-07-29_20h16.06.215,Simcolourproject_2stim_asymm_v5,2020.2.10,MacIntel,60,61025ae37ef11b136ea224fe,,,,,,,,,1916,43,64.5,1,0,0,response1disk,,7,3,2.5,1,0,0,rectangle,-78,39.5,1,0,0,3,1.5,1,0,0,1,101,261,102,1,,response7disk_3,TRUE,1,1,"[272,108,84,64,195,181,290,97,133,280,44,157,253,296,262,179,22,232,209,14]",1.836,rectangle
,,,,,,,,,,,,,FF,,,,,,,,0.667,,,,,,,,,,,,,,,,,,,,,,6102f1d7283089bf23293f50,61036e8b66eae2fdffa243ac,2021-07-29_20h16.06.215,Simcolourproject_2stim_asymm_v5,2020.2.10,MacIntel,60,61025ae37ef11b136ea224fe,,,,,,,,,2877,29,57.5,1,0,0,response1disk,,7,2,-2.5,1,0,0,rectangle,2,-2.5,1,0,0,2,-2.5,1,0,0,1,102,262,64,1,,,,,,,,
,,,,,,,,,,,,,FF,,,,,,,,0.717,,,,,,,,,,,,,,,,,,,,,,6102f1d7283089bf23293f50,61036e8b66eae2fdffa243ac,2021-07-29_20h16.06.215,Simcolourproject_2stim_asymm_v5,2020.2.10,MacIntel,60,61025ae37ef11b136ea224fe,,,,,,,,,259,64,-33.5,1,0,0,response3disk,,5,-2,-1.5,1,0,0,rectangle,-2,-1.5,1,0,0,-2,-1.5,1,0,0,1,103,263,40,1,,,,,,,,
,,,,,,,,,,,,,FF,,,,,,,,1.233,,,,,,,,,,,,,,,,,,,,,,6102f1d7283089bf23293f50,61036e8b66eae2fdffa243ac,2021-07-29_20h16.06.215,Simcolourproject_2stim_asymm_v5,2020.2.10,MacIntel,60,61025ae37ef11b136ea224fe,,,,,,,,,1019,82,28.5,1,0,0,response1disk,,6,10,-0.5,1,0,0,rectangle,10,-0.5,1,0,0,10,-0.5,1,0,0,1,104,264,30,1,,,,,,,,
,,,,,,,,,,,,,FF,,,,,,,,6.3,,,,,,,,,,,,,,,,,,,,,,6102f1d7283089bf23293f50,61036e8b66eae2fdffa243ac,2021-07-29_20h16.06.215,Simcolourproject_2stim_asymm_v5,2020.2.10,MacIntel,60,61025ae37ef11b136ea224fe,,,,,,,,,2818,68,25.5,1,0,0,response1disk,,6,5,3.5,1,0,0,rectangle,5,3.5,1,0,0,5,3.5,1,0,0,1,105,265,23,1,,,,,,,,
,,,,,,,,,,,,,FF,,,,,,,,0.683,,,,,,,,,,,,,,,,,,,,,,6102f1d7283089bf23293f50,61036e8b66eae2fdffa243ac,2021-07-29_20h16.06.215,Simcolourproject_2stim_asymm_v5,2020.2.10,MacIntel,60,61025ae37ef11b136ea224fe,,,,,,,,,4019,46,74.5,1,0,0,response1disk,,7,17,1.5,1,0,0,rectangle,17,1.5,1,0,0,17,1.5,1,0,0,1,106,266,92,1,,,,,,,,
,,,,,,,,,,,,,FF,,,,,,,,1.596,,,,,,,,,,,,,,,,,,,,,,6102f1d7283089bf23293f50,61036e8b66eae2fdffa243ac,2021-07-29_20h16.06.215,Simcolourproject_2stim_asymm_v5,2020.2.10,MacIntel,60,61025ae37ef11b136ea224fe,,,,,,,,,2413,76,-26.5,1,0,0,response3disk,,5,6,-8.5,1,0,0,rectangle,6,-8.5,1,0,0,6,-8.5,1,0,0,1,107,267,129,1,,,,,,,,
,,,,,,,,,,,,,FF,,,,,,,,0.669,,,,,,,,,,,,,,,,,,,,,,6102f1d7283089bf23293f50,61036e8b66eae2fdffa243ac,2021-07-29_20h16.06.215,Simcolourproject_2stim_asymm_v5,2020.2.10,MacIntel,60,61025ae37ef11b136ea224fe,,,,,,,,,3828,58,30.5,1,0,0,response1disk,,6,-6,-8.5,1,0,0,rectangle,-6,-8.5,1,0,0,-6,-8.5,1,0,0,1,108,268,32,1,,,,,,,,
,,,,,,,,,,,,,FF,,,,,,,,1.034,,,,,,,,,,,,,,,,,,,,,,6102f1d7283089bf23293f50,61036e8b66eae2fdffa243ac,2021-07-29_20h16.06.215,Simcolourproject_2stim_asymm_v5,2020.2.10,MacIntel,60,61025ae37ef11b136ea224fe,,,,,,,,,3447,69,43.5,1,0,0,response1disk,,6,9,7.5,1,0,0,rectangle,9,7.5,1,0,0,9,7.5,1,0,0,1,109,269,83,1,,,,,,,,
,,,,,,,,,,,,,FF,,,,,,,,1.001,,,,,,,,,,,,,,,,,,,,,,6102f1d7283089bf23293f50,61036e8b66eae2fdffa243ac,2021-07-29_20h16.06.215,Simcolourproject_2stim_asymm_v5,2020.2.10,MacIntel,60,61025ae37ef11b136ea224fe,,,,,,,,,3005,72,-34.5,1,0,0,response3disk,,5,6,-5.5,1,0,0,rectangle,6,-5.5,1,0,0,6,-5.5,1,0,0,1,110,270,119,1,,,,,,,,
,,,,,,,,,,,,,FF,,,,,,,,0.938,,,,,,,,,,,,,,,,,,,,,,6102f1d7283089bf23293f50,61036e8b66eae2fdffa243ac,2021-07-29_20h16.06.215,Simcolourproject_2stim_asymm_v5,2020.2.10,MacIntel,60,61025ae37ef11b136ea224fe,,,,,,,,,548,-41,-70.5,1,0,0,response5disk,,3,-6,-7.5,1,0,0,rectangle,29,-69.5,1,0,0,5,-8.5,1,0,0,1,111,271,105,1,,response3disk_3,TRUE,4,4,"[272,108,84,64,195,181,290,97,133,280,44,157,253,296,262,179,22,232,209,14]",1.167,rectangle
,,,,,,,,,,,,,FF,,,,,,,,1.217,,,,,,,,,,,,,,,,,,,,,,6102f1d7283089bf23293f50,61036e8b66eae2fdffa243ac,2021-07-29_20h16.06.215,Simcolourproject_2stim_asymm_v5,2020.2.10,MacIntel,60,61025ae37ef11b136ea224fe,,,,,,,,,1064,63,-27.5,1,0,0,response3disk,,5,5,0.5,1,0,0,rectangle,5,0.5,1,0,0,5,0.5,1,0,0,1,112,272,150,1,,,,,,,,
,,,,,,,,,,,,,FF,,,,,,,,0.517,,,,,,,,,,,,,,,,,,,,,,6102f1d7283089bf23293f50,61036e8b66eae2fdffa243ac,2021-07-29_20h16.06.215,Simcolourproject_2stim_asymm_v5,2020.2.10,MacIntel,60,61025ae37ef11b136ea224fe,,,,,,,,,34,29,58.5,1,0,0,response1disk,,7,6,5.5,1,0,0,rectangle,6,5.5,1,0,0,6,5.5,1,0,0,1,113,273,123,1,,,,,,,,
,,,,,,,,,,,,,FF,,,,,,,,0.605,,,,,,,,,,,,,,,,,,,,,,6102f1d7283089bf23293f50,61036e8b66eae2fdffa243ac,2021-07-29_20h16.06.215,Simcolourproject_2stim_asymm_v5,2020.2.10,MacIntel,60,61025ae37ef11b136ea224fe,,,,,,,,,268,35,58.5,1,0,0,response1disk,,7,-7,-8.5,1,0,0,rectangle,-7,-8.5,1,0,0,-7,-8.5,1,0,0,1,114,274,59,1,,,,,,,,
,,,,,,,,,,,,,FF,,,,,,,,0.719,,,,,,,,,,,,,,,,,,,,,,6102f1d7283089bf23293f50,61036e8b66eae2fdffa243ac,2021-07-29_20h16.06.215,Simcolourproject_2stim_asymm_v5,2020.2.10,MacIntel,60,61025ae37ef11b136ea224fe,,,,,,,,,397,30,59.5,1,0,0,response1disk,,7,0,0.5,1,0,0,rectangle,0,0.5,1,0,0,0,0.5,1,0,0,1,115,275,137,1,,,,,,,,
,,,,,,,,,,,,,FF,,,,,,,,1.137,,,,,,,,,,,,,,,,,,,,,,6102f1d7283089bf23293f50,61036e8b66eae2fdffa243ac,2021-07-29_20h16.06.215,Simcolourproject_2stim_asymm_v5,2020.2.10,MacIntel,60,61025ae37ef11b136ea224fe,,,,,,,,,2483,75,23.5,1,0,0,response1disk,,6,-10,2.5,1,0,0,rectangle,-10,2.5,1,0,0,-10,2.5,1,0,0,1,116,276,148,1,,,,,,,,
,,,,,,,,,,,,,FF,,,,,,,,0.501,,,,,,,,,,,,,,,,,,,,,,6102f1d7283089bf23293f50,61036e8b66eae2fdffa243ac,2021-07-29_20h16.06.215,Simcolourproject_2stim_asymm_v5,2020.2.10,MacIntel,60,61025ae37ef11b136ea224fe,,,,,,,,,145,37,74.5,1,0,0,response1disk,,7,9,0.5,1,0,0,rectangle,9,0.5,1,0,0,9,0.5,1,0,0,1,117,277,110,1,,,,,,,,
,,,,,,,,,,,,,FF,,,,,,,,1.016,,,,,,,,,,,,,,,,,,,,,,6102f1d7283089bf23293f50,61036e8b66eae2fdffa243ac,2021-07-29_20h16.06.215,Simcolourproject_2stim_asymm_v5,2020.2.10,MacIntel,60,61025ae37ef11b136ea224fe,,,,,,,,,469,31,76.5,1,0,0,response1disk,,7,3,-0.5,1,0,0,rectangle,3,-0.5,1,0,0,3,-0.5,1,0,0,1,118,278,136,1,,,,,,,,
,,,,,,,,,,,,,FF,,,,,,,,1.069,,,,,,,,,,,,,,,,,,,,,,6102f1d7283089bf23293f50,61036e8b66eae2fdffa243ac,2021-07-29_20h16.06.215,Simcolourproject_2stim_asymm_v5,2020.2.10,MacIntel,60,61025ae37ef11b136ea224fe,,,,,,,,,2735,85,-28.5,1,0,0,response3disk,,5,-5,5.5,1,0,0,rectangle,68,34.5,1,0,0,0,-3.5,1,0,0,1,119,279,77,1,,response1disk_3,TRUE,6,6,"[272,108,84,64,195,181,290,97,133,280,44,157,253,296,262,179,22,232,209,14]",1.338,rectangle
,,,,,,,,,,,,,FF,,,,,,,,1.236,,,,,,,,,,,,,,,,,,,,,,6102f1d7283089bf23293f50,61036e8b66eae2fdffa243ac,2021-07-29_20h16.06.215,Simcolourproject_2stim_asymm_v5,2020.2.10,MacIntel,60,61025ae37ef11b136ea224fe,,,,,,,,,2628,87,33.5,1,0,0,response1disk,,6,15,5.5,1,0,0,rectangle,15,5.5,1,0,0,15,5.5,1,0,0,1,120,280,22,1,,,,,,,,
,,,,,,,,,,,,,FF,,,,,,,,0.967,,,,,,,,,,,,,,,,,,,,,,6102f1d7283089bf23293f50,61036e8b66eae2fdffa243ac,2021-07-29_20h16.06.215,Simcolourproject_2stim_asymm_v5,2020.2.10,MacIntel,60,61025ae37ef11b136ea224fe,,,,,,,,,64,63,-47.5,1,0,0,response3disk,,5,12,-6.5,1,0,0,rectangle,12,-6.5,1,0,0,12,-6.5,1,0,0,1,121,281,70,1,,,,,,,,
,,,,,,,,,,,,,FF,,,,,,,,1,,,,,,,,,,,,,,,,,,,,,,6102f1d7283089bf23293f50,61036e8b66eae2fdffa243ac,2021-07-29_20h16.06.215,Simcolourproject_2stim_asymm_v5,2020.2.10,MacIntel,60,61025ae37ef11b136ea224fe,,,,,,,,,3021,89,36.5,1,0,0,response1disk,,6,1,-1.5,1,0,0,rectangle,1,-1.5,1,0,0,1,-1.5,1,0,0,1,122,282,158,1,,,,,,,,
,,,,,,,,,,,,,FF,,,,,,,,0.9,,,,,,,,,,,,,,,,,,,,,,6102f1d7283089bf23293f50,61036e8b66eae2fdffa243ac,2021-07-29_20h16.06.215,Simcolourproject_2stim_asymm_v5,2020.2.10,MacIntel,60,61025ae37ef11b136ea224fe,,,,,,,,,3139,84,-58.5,1,0,0,response3disk,,5,4,-7.5,1,0,0,rectangle,4,-7.5,1,0,0,4,-7.5,1,0,0,1,123,283,88,1,,,,,,,,
,,,,,,,,,,,,,FF,,,,,,,,0.684,,,,,,,,,,,,,,,,,,,,,,6102f1d7283089bf23293f50,61036e8b66eae2fdffa243ac,2021-07-29_20h16.06.215,Simcolourproject_2stim_asymm_v5,2020.2.10,MacIntel,60,61025ae37ef11b136ea224fe,,,,,,,,,1165,34,80.5,1,0,0,response1disk,,7,2,-13.5,1,0,0,rectangle,2,-13.5,1,0,0,2,-13.5,1,0,0,1,124,284,1,1,,,,,,,,
,,,,,,,,,,,,,FF,,,,,,,,0.667,,,,,,,,,,,,,,,,,,,,,,6102f1d7283089bf23293f50,61036e8b66eae2fdffa243ac,2021-07-29_20h16.06.215,Simcolourproject_2stim_asymm_v5,2020.2.10,MacIntel,60,61025ae37ef11b136ea224fe,,,,,,,,,106,42,69.5,1,0,0,response1disk,,7,3,5.5,1,0,0,rectangle,3,5.5,1,0,0,3,5.5,1,0,0,1,125,285,50,1,,,,,,,,
,,,,,,,,,,,,,FF,,,,,,,,0.584,,,,,,,,,,,,,,,,,,,,,,6102f1d7283089bf23293f50,61036e8b66eae2fdffa243ac,2021-07-29_20h16.06.215,Simcolourproject_2stim_asymm_v5,2020.2.10,MacIntel,60,61025ae37ef11b136ea224fe,,,,,,,,,697,40,63.5,1,0,0,response1disk,,7,11,2.5,1,0,0,rectangle,11,2.5,1,0,0,11,2.5,1,0,0,1,126,286,26,1,,,,,,,,
,,,,,,,,,,,,,FF,,,,,,,,0.734,,,,,,,,,,,,,,,,,,,,,,6102f1d7283089bf23293f50,61036e8b66eae2fdffa243ac,2021-07-29_20h16.06.215,Simcolourproject_2stim_asymm_v5,2020.2.10,MacIntel,60,61025ae37ef11b136ea224fe,,,,,,,,,3797,34,77.5,1,0,0,response1disk,,7,5,0.5,1,0,0,rectangle,5,0.5,1,0,0,5,0.5,1,0,0,1,127,287,9,1,,,,,,,,
,,,,,,,,,,,,,FF,,,,,,,,0.503,,,,,,,,,,,,,,,,,,,,,,6102f1d7283089bf23293f50,61036e8b66eae2fdffa243ac,2021-07-29_20h16.06.215,Simcolourproject_2stim_asymm_v5,2020.2.10,MacIntel,60,61025ae37ef11b136ea224fe,,,,,,,,,1634,33,73.5,1,0,0,response1disk,,7,12,3.5,1,0,0,rectangle,12,3.5,1,0,0,12,3.5,1,0,0,1,128,288,44,1,,,,,,,,
,,,,,,,,,,,,,FF,,,,,,,,0.7,,,,,,,,,,,,,,,,,,,,,,6102f1d7283089bf23293f50,61036e8b66eae2fdffa243ac,2021-07-29_20h16.06.215,Simcolourproject_2stim_asymm_v5,2020.2.10,MacIntel,60,61025ae37ef11b136ea224fe,,,,,,,,,1110,43,66.5,1,0,0,response1disk,,7,6,-2.5,1,0,0,rectangle,-35,-63.5,1,0,0,-6,-6.5,1,0,0,1,129,289,8,1,,response5disk_3,TRUE,3,3,"[272,108,84,64,195,181,290,97,133,280,44,157,253,296,262,179,22,232,209,14]",1.283,rectangle
,,,,,,,,,,,,,FF,,,,,,,,0.535,,,,,,,,,,,,,,,,,,,,,,6102f1d7283089bf23293f50,61036e8b66eae2fdffa243ac,2021-07-29_20h16.06.215,Simcolourproject_2stim_asymm_v5,2020.2.10,MacIntel,60,61025ae37ef11b136ea224fe,,,,,,,,,1082,47,90.5,1,0,0,response1disk,,7,14,0.5,1,0,0,rectangle,14,0.5,1,0,0,14,0.5,1,0,0,1,130,290,14,1,,,,,,,,
,,,,,,,,,,,,,FF,,,,,,,,0.767,,,,,,,,,,,,,,,,,,,,,,6102f1d7283089bf23293f50,61036e8b66eae2fdffa243ac,2021-07-29_20h16.06.215,Simcolourproject_2stim_asymm_v5,2020.2.10,MacIntel,60,61025ae37ef11b136ea224fe,,,,,,,,,15,60,-25.5,1,0,0,response3disk,,5,3,11.5,1,0,0,rectangle,3,11.5,1,0,0,3,11.5,1,0,0,1,131,291,65,1,,,,,,,,
,,,,,,,,,,,,,FF,,,,,,,,1.084,,,,,,,,,,,,,,,,,,,,,,6102f1d7283089bf23293f50,61036e8b66eae2fdffa243ac,2021-07-29_20h16.06.215,Simcolourproject_2stim_asymm_v5,2020.2.10,MacIntel,60,61025ae37ef11b136ea224fe,,,,,,,,,1781,41,81.5,1,0,0,response1disk,,7,2,-7.5,1,0,0,rectangle,2,-7.5,1,0,0,2,-7.5,1,0,0,1,132,292,149,1,,,,,,,,
,,,,,,,,,,,,,FF,,,,,,,,1.1,,,,,,,,,,,,,,,,,,,,,,6102f1d7283089bf23293f50,61036e8b66eae2fdffa243ac,2021-07-29_20h16.06.215,Simcolourproject_2stim_asymm_v5,2020.2.10,MacIntel,60,61025ae37ef11b136ea224fe,,,,,,,,,1406,38,99.5,1,0,0,response1disk,,7,-2,-7.5,1,0,0,rectangle,-2,-7.5,1,0,0,-2,-7.5,1,0,0,1,133,293,27,1,,,,,,,,
