key_resp.keys,key_resp.rt,key_resp_14.keys,key_resp_14.rt,key_resp_15.keys,key_resp_15.rt,key_resp_17.keys,key_resp_17.rt,key_resp_9.keys,key_resp_9.rt,key_resp_10.keys,key_resp_10.rt,practice_comparison,Ecc,mouse_5.x,mouse_5.y,mouse_5.leftButton,mouse_5.midButton,mouse_5.rightButton,mouse_5.clicked_name,pracsimilarity,response_time,mouse_10.x,mouse_10.y,mouse_10.leftButton,mouse_10.midButton,mouse_10.rightButton,mouse_10.clicked_name,mouse_7.x,mouse_7.y,mouse_7.leftButton,mouse_7.midButton,mouse_7.rightButton,mouse_6.x,mouse_6.y,mouse_6.leftButton,mouse_6.midButton,mouse_6.rightButton,duringprac.thisRepN,duringprac.thisTrialN,duringprac.thisN,duringprac.thisIndex,duringprac.ran,participant,session,date,expName,psychopyVersion,OS,frameRate,study_id,mouse_7.clicked_name,catchpracsimilarity,catch_response_time,catchnumberprac,catchtrialorderprac,mouse_6.clicked_name,key_resp_22.keys,key_resp_22.rt,realcomparison,mouse.x,mouse.y,mouse.leftButton,mouse.midButton,mouse.rightButton,mouse.clicked_name,Colour2,similarity,mouse_2.x,mouse_2.y,mouse_2.leftButton,mouse_2.midButton,mouse_2.rightButton,mouse_2.clicked_name,mouse_3.x,mouse_3.y,mouse_3.leftButton,mouse_3.midButton,mouse_3.rightButton,mouse_11.x,mouse_11.y,mouse_11.leftButton,mouse_11.midButton,mouse_11.rightButton,trials_2.thisRepN,trials_2.thisTrialN,trials_2.thisN,trials_2.thisIndex,trials_2.ran,Colour1,mouse_3.clicked_name,catchornah,catchsimilarity,catchnumber,catchtrialorder,catchRT,mouse_11.clicked_name
space,1.0506,space,6.4438,space,53.7231,space,3.7808,space,3.6769,space,2.9832,123,PF,-31.19998902,55.9999708,1,0,0,response7disk_5,0,3.9993,-12.79998875,-9.600030175,1,0,0,rectangle_8,-12.79998875,-9.600030175,1,0,0,-12.79998875,-9.600030175,1,0,0,0,0,0,4,1,6102fa60aae1a0c56b0c30a5,61036c1c966093412b5d231e,2021-07-29_23h04.23.165,Simcolourproject_2stim_asymm_v5,2020.2.10,Win32,60,61025ae37ef11b136ea224fe,,,,,,,,,,,,,,,,,,,,,,,,,,,,,,,,,,,,,,,,,,,,,,
,,,,,,,,,,,,6,PF,-38.3999403,-68.80000664,1,0,0,response5disk_5,3,5.7953,-13.59998876,-3.200005665,1,0,0,rectangle_8,29.60006071,-59.2000065,1,0,0,-12.79998875,-1.600030056,1,0,0,0,1,1,2,1,6102fa60aae1a0c56b0c30a5,61036c1c966093412b5d231e,2021-07-29_23h04.23.165,Simcolourproject_2stim_asymm_v5,2020.2.10,Win32,60,61025ae37ef11b136ea224fe,response3disk_7,4,2.607,4,"[2,5]",rectangle_4,,,,,,,,,,,,,,,,,,,,,,,,,,,,,,,,,,,,,,,,
,,,,,,,,,,,,95,PF,-29.599989,-64.80000658,1,0,0,response5disk_5,3,4.1679,-3.999988616,-7.200005725,1,0,0,rectangle_8,-3.999988616,-7.200005725,1,0,0,-3.999988616,-7.200005725,1,0,0,0,2,2,6,1,6102fa60aae1a0c56b0c30a5,61036c1c966093412b5d231e,2021-07-29_23h04.23.165,Simcolourproject_2stim_asymm_v5,2020.2.10,Win32,60,61025ae37ef11b136ea224fe,,,,,,,,,,,,,,,,,,,,,,,,,,,,,,,,,,,,,,,,,,,,,,
,,,,,,,,,,,,65,FF,28.80001187,47.19999509,1,0,0,response1disk_5,7,2.2666,6.400011539,-6.400005713,1,0,0,rectangle_8,6.400011539,-6.400005713,1,0,0,6.400011539,-6.400005713,1,0,0,0,3,3,0,1,6102fa60aae1a0c56b0c30a5,61036c1c966093412b5d231e,2021-07-29_23h04.23.165,Simcolourproject_2stim_asymm_v5,2020.2.10,Win32,60,61025ae37ef11b136ea224fe,,,,,,,,,,,,,,,,,,,,,,,,,,,,,,,,,,,,,,,,,,,,,,
,,,,,,,,,,,,156,PF,32.00001192,-57.60000648,1,0,0,response3disk_5,4,1.4677,1.600060296,-8.000030151,1,0,0,rectangle_8,28.80001187,-71.20000668,1,0,0,-0.799988568,-3.200005665,1,0,0,0,4,4,1,1,6102fa60aae1a0c56b0c30a5,61036c1c966093412b5d231e,2021-07-29_23h04.23.165,Simcolourproject_2stim_asymm_v5,2020.2.10,Win32,60,61025ae37ef11b136ea224fe,response3disk_7,4,2.0333,4,"[2,5]",rectangle_4,,,,,,,,,,,,,,,,,,,,,,,,,,,,,,,,,,,,,,,,
,,,,,,,,,,,,30,FF,-75.99998969,-52.8000064,1,0,0,response5disk_5,2,4.7363,2.40001148,-1.600030056,1,0,0,rectangle_8,2.40001148,-1.600030056,1,0,0,2.40001148,-1.600030056,1,0,0,0,5,5,5,1,6102fa60aae1a0c56b0c30a5,61036c1c966093412b5d231e,2021-07-29_23h04.23.165,Simcolourproject_2stim_asymm_v5,2020.2.10,Win32,60,61025ae37ef11b136ea224fe,,,,,,,,,,,,,,,,,,,,,,,,,,,,,,,,,,,,,,,,,,,,,,
,,,,,,,,,,,,86,FF,46.40001214,-78.40005561,1,0,0,response3disk_5,4,3.4301,-11.19998872,7.19999449,1,0,0,rectangle_8,-11.19998872,7.19999449,1,0,0,-11.19998872,7.19999449,1,0,0,0,6,6,3,1,6102fa60aae1a0c56b0c30a5,61036c1c966093412b5d231e,2021-07-29_23h04.23.165,Simcolourproject_2stim_asymm_v5,2020.2.10,Win32,60,61025ae37ef11b136ea224fe,,,,,,,,,,,,,,,,,,,,,,,,,,,,,,,,,,,,,,,,,,,,,,
,,,,,,,,,,,,,FF,,,,,,,,3.4065,,,,,,,,,,,,,,,,,,,,,,6102fa60aae1a0c56b0c30a5,61036c1c966093412b5d231e,2021-07-29_23h04.23.165,Simcolourproject_2stim_asymm_v5,2020.2.10,Win32,60,61025ae37ef11b136ea224fe,,,,,,,space,1.8988,2409,70.40001249,19.19999467,1,0,0,response1disk,,6,-0.799988568,-3.00318E-05,1,0,0,rectangle,-0.799988568,-3.00318E-05,1,0,0,-0.799988568,-3.00318E-05,1,0,0,0,0,0,62,1,,,,,,,,
,,,,,,,,,,,,,FF,,,,,,,,3.468,,,,,,,,,,,,,,,,,,,,,,6102fa60aae1a0c56b0c30a5,61036c1c966093412b5d231e,2021-07-29_23h04.23.165,Simcolourproject_2stim_asymm_v5,2020.2.10,Win32,60,61025ae37ef11b136ea224fe,,,,,,,,,1353,-64.79998952,-41.60000624,1,0,0,response5disk,,2,2.40001148,-0.80000563,1,0,0,rectangle,2.40001148,-0.80000563,1,0,0,2.40001148,-0.80000563,1,0,0,0,1,1,136,1,,,,,,,,
,,,,,,,,,,,,,FF,,,,,,,,2.1011,,,,,,,,,,,,,,,,,,,,,,6102fa60aae1a0c56b0c30a5,61036c1c966093412b5d231e,2021-07-29_23h04.23.165,Simcolourproject_2stim_asymm_v5,2020.2.10,Win32,60,61025ae37ef11b136ea224fe,,,,,,,,,2662,-60.79998946,43.19999503,1,0,0,response7disk,,1,-11.99998873,2.399970004,1,0,0,rectangle,-11.99998873,2.399970004,1,0,0,-11.99998873,2.399970004,1,0,0,0,2,2,60,1,,,,,,,,
,,,,,,,,,,,,,FF,,,,,,,,2.0107,,,,,,,,,,,,,,,,,,,,,,6102fa60aae1a0c56b0c30a5,61036c1c966093412b5d231e,2021-07-29_23h04.23.165,Simcolourproject_2stim_asymm_v5,2020.2.10,Win32,60,61025ae37ef11b136ea224fe,,,,,,,,,3922,-71.19998962,-41.60000624,1,0,0,response5disk,,2,20.00001174,4.799994454,1,0,0,rectangle,20.00001174,4.799994454,1,0,0,20.00001174,4.799994454,1,0,0,0,3,3,133,1,,,,,,,,
,,,,,,,,,,,,,FF,,,,,,,,1.2992,,,,,,,,,,,,,,,,,,,,,,6102fa60aae1a0c56b0c30a5,61036c1c966093412b5d231e,2021-07-29_23h04.23.165,Simcolourproject_2stim_asymm_v5,2020.2.10,Win32,60,61025ae37ef11b136ea224fe,,,,,,,,,1230,41.60006089,-68.80000664,1,0,0,response3disk,,4,-10.39993988,7.999970087,1,0,0,rectangle,-10.39993988,7.999970087,1,0,0,-10.39993988,7.999970087,1,0,0,0,4,4,101,1,,,,,,,,
,,,,,,,,,,,,,FF,,,,,,,,1.1,,,,,,,,,,,,,,,,,,,,,,6102fa60aae1a0c56b0c30a5,61036c1c966093412b5d231e,2021-07-29_23h04.23.165,Simcolourproject_2stim_asymm_v5,2020.2.10,Win32,60,61025ae37ef11b136ea224fe,,,,,,,,,1009,65.60001242,28.79999481,1,0,0,response1disk,,6,-5.599988639,-4.800005689,1,0,0,rectangle,-5.599988639,-4.800005689,1,0,0,-5.599988639,-4.800005689,1,0,0,0,5,5,18,1,,,,,,,,
,,,,,,,,,,,,,FF,,,,,,,,1.2839,,,,,,,,,,,,,,,,,,,,,,6102fa60aae1a0c56b0c30a5,61036c1c966093412b5d231e,2021-07-29_23h04.23.165,Simcolourproject_2stim_asymm_v5,2020.2.10,Win32,60,61025ae37ef11b136ea224fe,,,,,,,,,4323,60.00001234,-29.60003047,1,0,0,response3disk,,5,-15.19998878,3.999970028,1,0,0,rectangle,-15.19998878,3.999970028,1,0,0,-15.19998878,3.999970028,1,0,0,0,6,6,4,1,,,,,,,,
,,,,,,,,,,,,,FF,,,,,,,,1.8186,,,,,,,,,,,,,,,,,,,,,,6102fa60aae1a0c56b0c30a5,61036c1c966093412b5d231e,2021-07-29_23h04.23.165,Simcolourproject_2stim_asymm_v5,2020.2.10,Win32,60,61025ae37ef11b136ea224fe,,,,,,,,,2651,-55.99998939,-27.20000602,1,0,0,response5disk,,2,4.000011504,1.599994406,1,0,0,rectangle,4.000011504,1.599994406,1,0,0,4.000011504,1.599994406,1,0,0,0,7,7,142,1,,,,,,,,
,,,,,,,,,,,,,FF,,,,,,,,1.0571,,,,,,,,,,,,,,,,,,,,,,6102fa60aae1a0c56b0c30a5,61036c1c966093412b5d231e,2021-07-29_23h04.23.165,Simcolourproject_2stim_asymm_v5,2020.2.10,Win32,60,61025ae37ef11b136ea224fe,,,,,,,,,1016,68.00001246,19.99997027,1,0,0,response1disk,,6,11.20001161,3.999970028,1,0,0,rectangle,11.20001161,3.999970028,1,0,0,11.20001161,3.999970028,1,0,0,0,8,8,54,1,,,,,,,,
,,,,,,,,,,,,,FF,,,,,,,,19.299,,,,,,,,,,,,,,,,,,,,,,6102fa60aae1a0c56b0c30a5,61036c1c966093412b5d231e,2021-07-29_23h04.23.165,Simcolourproject_2stim_asymm_v5,2020.2.10,Win32,60,61025ae37ef11b136ea224fe,,,,,,,,,4257,83.40000921,-15.60003016,1,0,0,response3disk,,5,7.400008082,2.799994528,1,0,0,rectangle,7.400008082,2.799994528,1,0,0,7.400008082,2.799994528,1,0,0,0,9,9,17,1,,,,,,,,
,,,,,,,,,,,,,FF,,,,,,,,1.4524,,,,,,,,,,,,,,,,,,,,,,6102fa60aae1a0c56b0c30a5,61036c1c966093412b5d231e,2021-07-29_23h04.23.165,Simcolourproject_2stim_asymm_v5,2020.2.10,Win32,60,61025ae37ef11b136ea224fe,,,,,,,,,3936,-22.99999237,54.7999953,1,0,0,response7disk,,0,12.20000815,5.999970162,1,0,0,rectangle,33.00000846,-55.60000634,1,0,0,7.400008082,-2.800005555,1,0,0,0,10,10,71,1,,response3disk_3,TRUE,4,4,"[41,277,215,279,77,158,281,283,307,118,24,103,240,241,11,300,86,189,191,307]",1.6333,rectangle
,,,,,,,,,,,,,FF,,,,,,,,2.7835,,,,,,,,,,,,,,,,,,,,,,6102fa60aae1a0c56b0c30a5,61036c1c966093412b5d231e,2021-07-29_23h04.23.165,Simcolourproject_2stim_asymm_v5,2020.2.10,Win32,60,61025ae37ef11b136ea224fe,,,,,,,,,2289,18.60005708,-44.40000618,1,0,0,response3disk,,4,4.200008035,-2.800005555,1,0,0,rectangle,4.200008035,-2.800005555,1,0,0,4.200008035,-2.800005555,1,0,0,0,11,11,156,1,,,,,,,,
,,,,,,,,,,,,,FF,,,,,,,,0.8497,,,,,,,,,,,,,,,,,,,,,,6102fa60aae1a0c56b0c30a5,61036c1c966093412b5d231e,2021-07-29_23h04.23.165,Simcolourproject_2stim_asymm_v5,2020.2.10,Win32,60,61025ae37ef11b136ea224fe,,,,,,,,,41,63.40000892,25.99997046,1,0,0,response1disk,,6,8.200008094,8.399970198,1,0,0,rectangle,8.200008094,8.399970198,1,0,0,8.200008094,8.399970198,1,0,0,0,12,12,23,1,,,,,,,,
,,,,,,,,,,,,,FF,,,,,,,,1.3342,,,,,,,,,,,,,,,,,,,,,,6102fa60aae1a0c56b0c30a5,61036c1c966093412b5d231e,2021-07-29_23h04.23.165,Simcolourproject_2stim_asymm_v5,2020.2.10,Win32,60,61025ae37ef11b136ea224fe,,,,,,,,,3521,-65.399993,-23.60003028,1,0,0,response5disk,,2,-2.199992061,3.59999454,1,0,0,rectangle,-2.199992061,3.59999454,1,0,0,-2.199992061,3.59999454,1,0,0,0,13,13,49,1,,,,,,,,
,,,,,,,,,,,,,FF,,,,,,,,1.2516,,,,,,,,,,,,,,,,,,,,,,6102fa60aae1a0c56b0c30a5,61036c1c966093412b5d231e,2021-07-29_23h04.23.165,Simcolourproject_2stim_asymm_v5,2020.2.10,Win32,60,61025ae37ef11b136ea224fe,,,,,,,,,1098,73.00000906,37.19999504,1,0,0,response1disk,,6,13.00000817,5.999970162,1,0,0,rectangle,13.00000817,5.999970162,1,0,0,13.00000817,5.999970162,1,0,0,0,14,14,151,1,,,,,,,,
,,,,,,,,,,,,,FF,,,,,,,,0.8338,,,,,,,,,,,,,,,,,,,,,,6102fa60aae1a0c56b0c30a5,61036c1c966093412b5d231e,2021-07-29_23h04.23.165,Simcolourproject_2stim_asymm_v5,2020.2.10,Win32,60,61025ae37ef11b136ea224fe,,,,,,,,,1652,21.8000083,51.59999526,1,0,0,response1disk,,7,-12.59999222,-2.000029957,1,0,0,rectangle,-12.59999222,-2.000029957,1,0,0,-12.59999222,-2.000029957,1,0,0,0,15,15,154,1,,,,,,,,
,,,,,,,,,,,,,FF,,,,,,,,2.0681,,,,,,,,,,,,,,,,,,,,,,6102fa60aae1a0c56b0c30a5,61036c1c966093412b5d231e,2021-07-29_23h04.23.165,Simcolourproject_2stim_asymm_v5,2020.2.10,Win32,60,61025ae37ef11b136ea224fe,,,,,,,,,603,74.60005791,-47.60000622,1,0,0,response3disk,,5,-7.799992144,-0.400005519,1,0,0,rectangle,-7.799992144,-0.400005519,1,0,0,-7.799992144,-0.400005519,1,0,0,0,16,16,42,1,,,,,,,,
,,,,,,,,,,,,,FF,,,,,,,,1.2638,,,,,,,,,,,,,,,,,,,,,,6102fa60aae1a0c56b0c30a5,61036c1c966093412b5d231e,2021-07-29_23h04.23.165,Simcolourproject_2stim_asymm_v5,2020.2.10,Win32,60,61025ae37ef11b136ea224fe,,,,,,,,,1602,-57.39999288,-25.20000589,1,0,0,response5disk,,2,-2.999992073,0.399970078,1,0,0,rectangle,-2.999992073,0.399970078,1,0,0,-2.999992073,0.399970078,1,0,0,0,17,17,146,1,,,,,,,,
,,,,,,,,,,,,,FF,,,,,,,,2.3173,,,,,,,,,,,,,,,,,,,,,,6102fa60aae1a0c56b0c30a5,61036c1c966093412b5d231e,2021-07-29_23h04.23.165,Simcolourproject_2stim_asymm_v5,2020.2.10,Win32,60,61025ae37ef11b136ea224fe,,,,,,,,,773,-18.99999231,-58.00000638,1,0,0,response5disk,,3,1.800007999,-4.400005579,1,0,0,rectangle,1.800007999,-4.400005579,1,0,0,1.800007999,-4.400005579,1,0,0,0,18,18,159,1,,,,,,,,
,,,,,,,,,,,,,FF,,,,,,,,0.9338,,,,,,,,,,,,,,,,,,,,,,6102fa60aae1a0c56b0c30a5,61036c1c966093412b5d231e,2021-07-29_23h04.23.165,Simcolourproject_2stim_asymm_v5,2020.2.10,Win32,60,61025ae37ef11b136ea224fe,,,,,,,,,888,-56.59999287,-17.20000577,1,0,0,response5disk,,2,-14.99999225,6.799994588,1,0,0,rectangle,-14.99999225,6.799994588,1,0,0,-14.99999225,6.799994588,1,0,0,0,19,19,135,1,,,,,,,,
,,,,,,,,,,,,,FF,,,,,,,,1.098,,,,,,,,,,,,,,,,,,,,,,6102fa60aae1a0c56b0c30a5,61036c1c966093412b5d231e,2021-07-29_23h04.23.165,Simcolourproject_2stim_asymm_v5,2020.2.10,Win32,60,61025ae37ef11b136ea224fe,,,,,,,,,2002,47.40000868,21.9999704,1,0,0,response1disk,,6,1.000007987,-2.800005555,1,0,0,rectangle,1.000007987,-2.800005555,1,0,0,1.000007987,-2.800005555,1,0,0,0,20,20,11,1,,,,,,,,
,,,,,,,,,,,,,FF,,,,,,,,0.867,,,,,,,,,,,,,,,,,,,,,,6102fa60aae1a0c56b0c30a5,61036c1c966093412b5d231e,2021-07-29_23h04.23.165,Simcolourproject_2stim_asymm_v5,2020.2.10,Win32,60,61025ae37ef11b136ea224fe,,,,,,,,,550,-66.19999301,31.59999496,1,0,0,response7disk,,1,-20.59999233,9.999970222,1,0,0,rectangle,-20.59999233,9.999970222,1,0,0,-20.59999233,9.999970222,1,0,0,0,21,21,112,1,,,,,,,,
,,,,,,,,,,,,,FF,,,,,,,,1.0835,,,,,,,,,,,,,,,,,,,,,,6102fa60aae1a0c56b0c30a5,61036c1c966093412b5d231e,2021-07-29_23h04.23.165,Simcolourproject_2stim_asymm_v5,2020.2.10,Win32,60,61025ae37ef11b136ea224fe,,,,,,,,,1258,27.40000838,-46.0000062,1,0,0,response3disk,,4,-5.39994328,-7.600030041,1,0,0,rectangle,-5.39994328,-7.600030041,1,0,0,-5.39994328,-7.600030041,1,0,0,0,22,22,25,1,,,,,,,,
,,,,,,,,,,,,,FF,,,,,,,,0.7627,,,,,,,,,,,,,,,,,,,,,,6102fa60aae1a0c56b0c30a5,61036c1c966093412b5d231e,2021-07-29_23h04.23.165,Simcolourproject_2stim_asymm_v5,2020.2.10,Win32,60,61025ae37ef11b136ea224fe,,,,,,,,,2807,57.80000883,24.39997044,1,0,0,response1disk,,6,12.20000815,-0.400005519,1,0,0,rectangle,66.60005779,-44.40000618,1,0,0,5.800008059,-0.400005519,1,0,0,0,23,23,85,1,,response3disk_3,TRUE,5,5,"[41,277,215,279,77,158,281,283,307,118,24,103,240,241,11,300,86,189,191,307]",1.2779,rectangle
,,,,,,,,,,,,,FF,,,,,,,,4.0005,,,,,,,,,,,,,,,,,,,,,,6102fa60aae1a0c56b0c30a5,61036c1c966093412b5d231e,2021-07-29_23h04.23.165,Simcolourproject_2stim_asymm_v5,2020.2.10,Win32,60,61025ae37ef11b136ea224fe,,,,,,,,,2989,69.000009,-24.40000588,1,0,0,response3disk,,5,3.400008023,5.199994564,1,0,0,rectangle,3.400008023,5.199994564,1,0,0,3.400008023,5.199994564,1,0,0,0,24,24,89,1,,,,,,,,
,,,,,,,,,,,,,FF,,,,,,,,0.7168,,,,,,,,,,,,,,,,,,,,,,6102fa60aae1a0c56b0c30a5,61036c1c966093412b5d231e,2021-07-29_23h04.23.165,Simcolourproject_2stim_asymm_v5,2020.2.10,Win32,60,61025ae37ef11b136ea224fe,,,,,,,,,3832,65.00000894,25.19999486,1,0,0,response1disk,,6,12.20000815,-4.400005579,1,0,0,rectangle,12.20000815,-4.400005579,1,0,0,12.20000815,-4.400005579,1,0,0,0,25,25,12,1,,,,,,,,
,,,,,,,,,,,,,FF,,,,,,,,0.984,,,,,,,,,,,,,,,,,,,,,,6102fa60aae1a0c56b0c30a5,61036c1c966093412b5d231e,2021-07-29_23h04.23.165,Simcolourproject_2stim_asymm_v5,2020.2.10,Win32,60,61025ae37ef11b136ea224fe,,,,,,,,,1565,40.20000857,-34.80000603,1,0,0,response3disk,,5,-18.1999923,1.199994504,1,0,0,rectangle,-18.1999923,1.199994504,1,0,0,-18.1999923,1.199994504,1,0,0,0,26,26,132,1,,,,,,,,
,,,,,,,,,,,,,FF,,,,,,,,1.3835,,,,,,,,,,,,,,,,,,,,,,6102fa60aae1a0c56b0c30a5,61036c1c966093412b5d231e,2021-07-29_23h04.23.165,Simcolourproject_2stim_asymm_v5,2020.2.10,Win32,60,61025ae37ef11b136ea224fe,,,,,,,,,3988,26.6000572,-51.60000628,1,0,0,response3disk,,4,-2.199992061,1.199994504,1,0,0,rectangle,-2.199992061,1.199994504,1,0,0,-2.199992061,1.199994504,1,0,0,0,27,27,109,1,,,,,,,,
,,,,,,,,,,,,,FF,,,,,,,,1.0007,,,,,,,,,,,,,,,,,,,,,,6102fa60aae1a0c56b0c30a5,61036c1c966093412b5d231e,2021-07-29_23h04.23.165,Simcolourproject_2stim_asymm_v5,2020.2.10,Win32,60,61025ae37ef11b136ea224fe,,,,,,,,,3893,53.00000876,24.39997044,1,0,0,response1disk,,6,-20.59999233,-9.200005651,1,0,0,rectangle,-20.59999233,-9.200005651,1,0,0,-20.59999233,-9.200005651,1,0,0,0,28,28,26,1,,,,,,,,
,,,,,,,,,,,,,FF,,,,,,,,1.2834,,,,,,,,,,,,,,,,,,,,,,6102fa60aae1a0c56b0c30a5,61036c1c966093412b5d231e,2021-07-29_23h04.23.165,Simcolourproject_2stim_asymm_v5,2020.2.10,Win32,60,61025ae37ef11b136ea224fe,,,,,,,,,4123,-26.19999242,-63.60000646,1,0,0,response5disk,,3,-2.199992061,1.199994504,1,0,0,rectangle,-2.199992061,1.199994504,1,0,0,-2.199992061,1.199994504,1,0,0,0,29,29,56,1,,,,,,,,
,,,,,,,,,,,,,FF,,,,,,,,1.8004,,,,,,,,,,,,,,,,,,,,,,6102fa60aae1a0c56b0c30a5,61036c1c966093412b5d231e,2021-07-29_23h04.23.165,Simcolourproject_2stim_asymm_v5,2020.2.10,Win32,60,61025ae37ef11b136ea224fe,,,,,,,,,3770,24.20000833,-63.60000646,1,0,0,response3disk,,4,-2.199992061,6.799994588,1,0,0,rectangle,-2.199992061,6.799994588,1,0,0,-2.199992061,6.799994588,1,0,0,0,30,30,117,1,,,,,,,,
,,,,,,,,,,,,,FF,,,,,,,,1.5131,,,,,,,,,,,,,,,,,,,,,,6102fa60aae1a0c56b0c30a5,61036c1c966093412b5d231e,2021-07-29_23h04.23.165,Simcolourproject_2stim_asymm_v5,2020.2.10,Win32,60,61025ae37ef11b136ea224fe,,,,,,,,,3882,-67.79999304,19.59999478,1,0,0,response7disk,,1,-8.599992156,1.999970102,1,0,0,rectangle,-8.599992156,1.999970102,1,0,0,-8.599992156,1.999970102,1,0,0,0,31,31,68,1,,,,,,,,
,,,,,,,,,,,,,FF,,,,,,,,1.1163,,,,,,,,,,,,,,,,,,,,,,6102fa60aae1a0c56b0c30a5,61036c1c966093412b5d231e,2021-07-29_23h04.23.165,Simcolourproject_2stim_asymm_v5,2020.2.10,Win32,60,61025ae37ef11b136ea224fe,,,,,,,,,4089,-34.19999254,-46.0000062,1,0,0,response5disk,,3,-0.599992037,-1.200005531,1,0,0,rectangle,-0.599992037,-1.200005531,1,0,0,-0.599992037,-1.200005531,1,0,0,0,32,32,100,1,,,,,,,,
,,,,,,,,,,,,,FF,,,,,,,,0.7047,,,,,,,,,,,,,,,,,,,,,,6102fa60aae1a0c56b0c30a5,61036c1c966093412b5d231e,2021-07-29_23h04.23.165,Simcolourproject_2stim_asymm_v5,2020.2.10,Win32,60,61025ae37ef11b136ea224fe,,,,,,,,,1275,63.40000892,-22.80000585,1,0,0,response3disk,,5,7.400008082,2.799994528,1,0,0,rectangle,7.400008082,2.799994528,1,0,0,7.400008082,2.799994528,1,0,0,0,33,33,3,1,,,,,,,,
,,,,,,,,,,,,,FF,,,,,,,,0.8525,,,,,,,,,,,,,,,,,,,,,,6102fa60aae1a0c56b0c30a5,61036c1c966093412b5d231e,2021-07-29_23h04.23.165,Simcolourproject_2stim_asymm_v5,2020.2.10,Win32,60,61025ae37ef11b136ea224fe,,,,,,,,,2184,49.80000871,32.39997056,1,0,0,response1disk,,6,-8.599992156,5.199994564,1,0,0,rectangle,-8.599992156,5.199994564,1,0,0,-8.599992156,5.199994564,1,0,0,0,34,34,36,1,,,,,,,,
,,,,,,,,,,,,,FF,,,,,,,,1.1495,,,,,,,,,,,,,,,,,,,,,,6102fa60aae1a0c56b0c30a5,61036c1c966093412b5d231e,2021-07-29_23h04.23.165,Simcolourproject_2stim_asymm_v5,2020.2.10,Win32,60,61025ae37ef11b136ea224fe,,,,,,,,,3795,68.20000899,-18.0000302,1,0,0,response3disk,,5,-2.999992073,8.399970198,1,0,0,rectangle,-2.999992073,8.399970198,1,0,0,-2.999992073,8.399970198,1,0,0,0,35,35,144,1,,,,,,,,
,,,,,,,,,,,,,FF,,,,,,,,1.4685,,,,,,,,,,,,,,,,,,,,,,6102fa60aae1a0c56b0c30a5,61036c1c966093412b5d231e,2021-07-29_23h04.23.165,Simcolourproject_2stim_asymm_v5,2020.2.10,Win32,60,61025ae37ef11b136ea224fe,,,,,,,,,2104,-18.99999231,-82.00000674,1,0,0,response5disk,,3,2.600056839,3.59999454,1,0,0,rectangle,2.600056839,3.59999454,1,0,0,2.600056839,3.59999454,1,0,0,0,36,36,121,1,,,,,,,,
,,,,,,,,,,,,,FF,,,,,,,,1.4,,,,,,,,,,,,,,,,,,,,,,6102fa60aae1a0c56b0c30a5,61036c1c966093412b5d231e,2021-07-29_23h04.23.165,Simcolourproject_2stim_asymm_v5,2020.2.10,Win32,60,61025ae37ef11b136ea224fe,,,,,,,,,3801,34.60005732,53.99997088,1,0,0,response1disk,,7,8.200008094,2.799994528,1,0,0,rectangle,8.200008094,2.799994528,1,0,0,8.200008094,2.799994528,1,0,0,0,37,37,147,1,,,,,,,,
,,,,,,,,,,,,,FF,,,,,,,,1.3173,,,,,,,,,,,,,,,,,,,,,,6102fa60aae1a0c56b0c30a5,61036c1c966093412b5d231e,2021-07-29_23h04.23.165,Simcolourproject_2stim_asymm_v5,2020.2.10,Win32,60,61025ae37ef11b136ea224fe,,,,,,,,,2051,29.80000842,-57.20000637,1,0,0,response3disk,,4,-8.599992156,4.399970138,1,0,0,rectangle,-8.599992156,4.399970138,1,0,0,-8.599992156,4.399970138,1,0,0,0,38,38,96,1,,,,,,,,
,,,,,,,,,,,,,FF,,,,,,,,0.8955,,,,,,,,,,,,,,,,,,,,,,6102fa60aae1a0c56b0c30a5,61036c1c966093412b5d231e,2021-07-29_23h04.23.165,Simcolourproject_2stim_asymm_v5,2020.2.10,Win32,60,61025ae37ef11b136ea224fe,,,,,,,,,458,-33.39999253,-54.00000632,1,0,0,response5disk,,3,12.20000815,0.399970078,1,0,0,rectangle,12.20000815,0.399970078,1,0,0,12.20000815,0.399970078,1,0,0,0,39,39,14,1,,,,,,,,
,,,,,,,,,,,,,FF,,,,,,,,0.9504,,,,,,,,,,,,,,,,,,,,,,6102fa60aae1a0c56b0c30a5,61036c1c966093412b5d231e,2021-07-29_23h04.23.165,Simcolourproject_2stim_asymm_v5,2020.2.10,Win32,60,61025ae37ef11b136ea224fe,,,,,,,,,169,-46.19999272,43.59999514,1,0,0,response7disk,,1,-6.19999212,-6.000030017,1,0,0,rectangle,26.6000572,-36.40000606,1,0,0,-9.39994334,1.999970102,1,0,0,0,40,40,88,1,,response3disk_3,TRUE,4,4,"[41,277,215,279,77,158,281,283,307,118,24,103,240,241,11,300,86,189,191,307]",1.4993,rectangle
,,,,,,,,,,,,,FF,,,,,,,,0.9337,,,,,,,,,,,,,,,,,,,,,,6102fa60aae1a0c56b0c30a5,61036c1c966093412b5d231e,2021-07-29_23h04.23.165,Simcolourproject_2stim_asymm_v5,2020.2.10,Win32,60,61025ae37ef11b136ea224fe,,,,,,,,,2757,41.80000859,23.59999484,1,0,0,response1disk,,6,-1.399943221,2.799994528,1,0,0,rectangle,-1.399943221,2.799994528,1,0,0,-1.399943221,2.799994528,1,0,0,0,41,41,102,1,,,,,,,,
,,,,,,,,,,,,,FF,,,,,,,,1.5886,,,,,,,,,,,,,,,,,,,,,,6102fa60aae1a0c56b0c30a5,61036c1c966093412b5d231e,2021-07-29_23h04.23.165,Simcolourproject_2stim_asymm_v5,2020.2.10,Win32,60,61025ae37ef11b136ea224fe,,,,,,,,,4238,-31.7999925,-74.00000662,1,0,0,response5disk,,3,4.200008035,-6.000030017,1,0,0,rectangle,4.200008035,-6.000030017,1,0,0,4.200008035,-6.000030017,1,0,0,0,42,42,150,1,,,,,,,,
,,,,,,,,,,,,,FF,,,,,,,,0.9338,,,,,,,,,,,,,,,,,,,,,,6102fa60aae1a0c56b0c30a5,61036c1c966093412b5d231e,2021-07-29_23h04.23.165,Simcolourproject_2stim_asymm_v5,2020.2.10,Win32,60,61025ae37ef11b136ea224fe,,,,,,,,,904,27.40000838,-38.00003049,1,0,0,response3disk,,4,-3.799992085,7.5999946,1,0,0,rectangle,-3.799992085,7.5999946,1,0,0,-3.799992085,7.5999946,1,0,0,0,43,43,139,1,,,,,,,,
,,,,,,,,,,,,,FF,,,,,,,,1.0335,,,,,,,,,,,,,,,,,,,,,,6102fa60aae1a0c56b0c30a5,61036c1c966093412b5d231e,2021-07-29_23h04.23.165,Simcolourproject_2stim_asymm_v5,2020.2.10,Win32,60,61025ae37ef11b136ea224fe,,,,,,,,,2944,-34.19999254,-70.00000656,1,0,0,response5disk,,3,-11.7999922,5.999970162,1,0,0,rectangle,-11.7999922,5.999970162,1,0,0,-11.7999922,5.999970162,1,0,0,0,44,44,20,1,,,,,,,,
,,,,,,,,,,,,,FF,,,,,,,,1.4332,,,,,,,,,,,,,,,,,,,,,,6102fa60aae1a0c56b0c30a5,61036c1c966093412b5d231e,2021-07-29_23h04.23.165,Simcolourproject_2stim_asymm_v5,2020.2.10,Win32,60,61025ae37ef11b136ea224fe,,,,,,,,,3048,-78.99999321,-27.60003034,1,0,0,response5disk,,2,-4.599992096,1.999970102,1,0,0,rectangle,-4.599992096,1.999970102,1,0,0,-4.599992096,1.999970102,1,0,0,0,45,45,106,1,,,,,,,,
,,,,,,,,,,,,,FF,,,,,,,,1.367,,,,,,,,,,,,,,,,,,,,,,6102fa60aae1a0c56b0c30a5,61036c1c966093412b5d231e,2021-07-29_23h04.23.165,Simcolourproject_2stim_asymm_v5,2020.2.10,Win32,60,61025ae37ef11b136ea224fe,,,,,,,,,866,38.60005738,-58.80000639,1,0,0,response3disk,,4,-7.799992144,-6.000030017,1,0,0,rectangle,-7.799992144,-6.000030017,1,0,0,-7.799992144,-6.000030017,1,0,0,0,46,46,47,1,,,,,,,,
,,,,,,,,,,,,,FF,,,,,,,,0.8168,,,,,,,,,,,,,,,,,,,,,,6102fa60aae1a0c56b0c30a5,61036c1c966093412b5d231e,2021-07-29_23h04.23.165,Simcolourproject_2stim_asymm_v5,2020.2.10,Win32,60,61025ae37ef11b136ea224fe,,,,,,,,,1744,-35.79999256,-68.40005536,1,0,0,response5disk,,3,-13.3999434,-3.600029981,1,0,0,rectangle,-13.3999434,-3.600029981,1,0,0,-13.3999434,-3.600029981,1,0,0,0,47,47,29,1,,,,,,,,
,,,,,,,,,,,,,FF,,,,,,,,1.6168,,,,,,,,,,,,,,,,,,,,,,6102fa60aae1a0c56b0c30a5,61036c1c966093412b5d231e,2021-07-29_23h04.23.165,Simcolourproject_2stim_asymm_v5,2020.2.10,Win32,60,61025ae37ef11b136ea224fe,,,,,,,,,3870,32.20000845,-44.40000618,1,0,0,response3disk,,4,-2.999992073,5.199994564,1,0,0,rectangle,-2.999992073,5.199994564,1,0,0,-2.999992073,5.199994564,1,0,0,0,48,48,76,1,,,,,,,,
,,,,,,,,,,,,,FF,,,,,,,,0.9668,,,,,,,,,,,,,,,,,,,,,,6102fa60aae1a0c56b0c30a5,61036c1c966093412b5d231e,2021-07-29_23h04.23.165,Simcolourproject_2stim_asymm_v5,2020.2.10,Win32,60,61025ae37ef11b136ea224fe,,,,,,,,,1450,-50.19999278,-63.60000646,1,0,0,response5disk,,3,-6.19999212,5.999970162,1,0,0,rectangle,-6.19999212,5.999970162,1,0,0,-6.19999212,5.999970162,1,0,0,0,49,49,111,1,,,,,,,,
,,,,,,,,,,,,,FF,,,,,,,,1.6983,,,,,,,,,,,,,,,,,,,,,,6102fa60aae1a0c56b0c30a5,61036c1c966093412b5d231e,2021-07-29_23h04.23.165,Simcolourproject_2stim_asymm_v5,2020.2.10,Win32,60,61025ae37ef11b136ea224fe,,,,,,,,,1963,-31.7999925,40.39997067,1,0,0,response7disk,,0,-5.39994328,3.59999454,1,0,0,rectangle,-5.39994328,3.59999454,1,0,0,-5.39994328,3.59999454,1,0,0,0,50,50,113,1,,,,,,,,
,,,,,,,,,,,,,FF,,,,,,,,1.1693,,,,,,,,,,,,,,,,,,,,,,6102fa60aae1a0c56b0c30a5,61036c1c966093412b5d231e,2021-07-29_23h04.23.165,Simcolourproject_2stim_asymm_v5,2020.2.10,Win32,60,61025ae37ef11b136ea224fe,,,,,,,,,593,63.40000892,23.59999484,1,0,0,response1disk,,6,-7.799992144,8.399970198,1,0,0,rectangle,-7.799992144,8.399970198,1,0,0,-7.799992144,8.399970198,1,0,0,0,51,51,108,1,,,,,,,,
,,,,,,,,,,,,,FF,,,,,,,,1.0055,,,,,,,,,,,,,,,,,,,,,,6102fa60aae1a0c56b0c30a5,61036c1c966093412b5d231e,2021-07-29_23h04.23.165,Simcolourproject_2stim_asymm_v5,2020.2.10,Win32,60,61025ae37ef11b136ea224fe,,,,,,,,,2867,54.60005761,31.59999496,1,0,0,response1disk,,6,9.800008118,-0.400005519,1,0,0,rectangle,9.800008118,-0.400005519,1,0,0,9.800008118,-0.400005519,1,0,0,0,52,52,73,1,,,,,,,,
,,,,,,,,,,,,,FF,,,,,,,,0.9172,,,,,,,,,,,,,,,,,,,,,,6102fa60aae1a0c56b0c30a5,61036c1c966093412b5d231e,2021-07-29_23h04.23.165,Simcolourproject_2stim_asymm_v5,2020.2.10,Win32,60,61025ae37ef11b136ea224fe,,,,,,,,,4263,52.20000875,-20.40000582,1,0,0,response3disk,,5,-6.999992132,-9.200005651,1,0,0,rectangle,-6.999992132,-9.200005651,1,0,0,-6.999992132,-9.200005651,1,0,0,0,53,53,134,1,,,,,,,,
,,,,,,,,,,,,,FF,,,,,,,,0.9877,,,,,,,,,,,,,,,,,,,,,,6102fa60aae1a0c56b0c30a5,61036c1c966093412b5d231e,2021-07-29_23h04.23.165,Simcolourproject_2stim_asymm_v5,2020.2.10,Win32,60,61025ae37ef11b136ea224fe,,,,,,,,,2930,34.60005732,64.39997103,1,0,0,response1disk,,7,-2.199992061,-4.400005579,1,0,0,rectangle,-2.199992061,-4.400005579,1,0,0,-2.199992061,-4.400005579,1,0,0,0,54,54,59,1,,,,,,,,
,,,,,,,,,,,,,FF,,,,,,,,1.479,,,,,,,,,,,,,,,,,,,,,,6102fa60aae1a0c56b0c30a5,61036c1c966093412b5d231e,2021-07-29_23h04.23.165,Simcolourproject_2stim_asymm_v5,2020.2.10,Win32,60,61025ae37ef11b136ea224fe,,,,,,,,,4324,65.80000895,20.39997038,1,0,0,response1disk,,6,-2.999992073,-9.200005651,1,0,0,rectangle,-2.999992073,-9.200005651,1,0,0,-2.999992073,-9.200005651,1,0,0,0,55,55,30,1,,,,,,,,
,,,,,,,,,,,,,FF,,,,,,,,1.0341,,,,,,,,,,,,,,,,,,,,,,6102fa60aae1a0c56b0c30a5,61036c1c966093412b5d231e,2021-07-29_23h04.23.165,Simcolourproject_2stim_asymm_v5,2020.2.10,Win32,60,61025ae37ef11b136ea224fe,,,,,,,,,1392,29.0000084,-55.60000634,1,0,0,response3disk,,4,-0.599992037,-1.200005531,1,0,0,rectangle,-0.599992037,-1.200005531,1,0,0,-0.599992037,-1.200005531,1,0,0,0,56,56,118,1,,,,,,,,
,,,,,,,,,,,,,FF,,,,,,,,1.1671,,,,,,,,,,,,,,,,,,,,,,6102fa60aae1a0c56b0c30a5,61036c1c966093412b5d231e,2021-07-29_23h04.23.165,Simcolourproject_2stim_asymm_v5,2020.2.10,Win32,60,61025ae37ef11b136ea224fe,,,,,,,,,158,34.60005732,-42.80000615,1,0,0,response3disk,,4,1.800007999,-8.400005639,1,0,0,rectangle,1.800007999,-8.400005639,1,0,0,1.800007999,-8.400005639,1,0,0,0,57,57,24,1,,,,,,,,
,,,,,,,,,,,,,FF,,,,,,,,1.1176,,,,,,,,,,,,,,,,,,,,,,6102fa60aae1a0c56b0c30a5,61036c1c966093412b5d231e,2021-07-29_23h04.23.165,Simcolourproject_2stim_asymm_v5,2020.2.10,Win32,60,61025ae37ef11b136ea224fe,,,,,,,,,781,59.40000886,-45.20000619,1,0,0,response3disk,,5,-2.999992073,2.799994528,1,0,0,rectangle,-2.999992073,2.799994528,1,0,0,-2.999992073,2.799994528,1,0,0,0,58,58,67,1,,,,,,,,
,,,,,,,,,,,,,FF,,,,,,,,1.1006,,,,,,,,,,,,,,,,,,,,,,6102fa60aae1a0c56b0c30a5,61036c1c966093412b5d231e,2021-07-29_23h04.23.165,Simcolourproject_2stim_asymm_v5,2020.2.10,Win32,60,61025ae37ef11b136ea224fe,,,,,,,,,2325,65.00000894,-42.00000614,1,0,0,response3disk,,5,-6.999992132,6.799994588,1,0,0,rectangle,-6.999992132,6.799994588,1,0,0,-6.999992132,6.799994588,1,0,0,0,59,59,7,1,,,,,,,,
,,,,,,,,,,,,,FF,,,,,,,,1.0506,,,,,,,,,,,,,,,,,,,,,,6102fa60aae1a0c56b0c30a5,61036c1c966093412b5d231e,2021-07-29_23h04.23.165,Simcolourproject_2stim_asymm_v5,2020.2.10,Win32,60,61025ae37ef11b136ea224fe,,,,,,,,,902,-38.99999261,-55.60000634,1,0,0,response5disk,,3,7.400008082,1.199994504,1,0,0,rectangle,7.400008082,1.199994504,1,0,0,7.400008082,1.199994504,1,0,0,0,60,60,137,1,,,,,,,,
,,,,,,,,,,,,,FF,,,,,,,,0.9454,,,,,,,,,,,,,,,,,,,,,,6102fa60aae1a0c56b0c30a5,61036c1c966093412b5d231e,2021-07-29_23h04.23.165,Simcolourproject_2stim_asymm_v5,2020.2.10,Win32,60,61025ae37ef11b136ea224fe,,,,,,,,,3297,-54.19999284,-34.80000603,1,0,0,response5disk,,2,1.800007999,7.5999946,1,0,0,rectangle,1.800007999,7.5999946,1,0,0,1.800007999,7.5999946,1,0,0,0,61,61,35,1,,,,,,,,
,,,,,,,,,,,,,FF,,,,,,,,1.0333,,,,,,,,,,,,,,,,,,,,,,6102fa60aae1a0c56b0c30a5,61036c1c966093412b5d231e,2021-07-29_23h04.23.165,Simcolourproject_2stim_asymm_v5,2020.2.10,Win32,60,61025ae37ef11b136ea224fe,,,,,,,,,2927,57.00000882,25.99997046,1,0,0,response1disk,,6,9.000008106,2.799994528,1,0,0,rectangle,9.000008106,2.799994528,1,0,0,9.000008106,2.799994528,1,0,0,0,62,62,58,1,,,,,,,,
,,,,,,,,,,,,,FF,,,,,,,,1.5329,,,,,,,,,,,,,,,,,,,,,,6102fa60aae1a0c56b0c30a5,61036c1c966093412b5d231e,2021-07-29_23h04.23.165,Simcolourproject_2stim_asymm_v5,2020.2.10,Win32,60,61025ae37ef11b136ea224fe,,,,,,,,,3937,-58.1999929,38.79999506,1,0,0,response7disk,,1,-1.399943221,-6.000030017,1,0,0,rectangle,-1.399943221,-6.000030017,1,0,0,-1.399943221,-6.000030017,1,0,0,0,63,63,51,1,,,,,,,,
,,,,,,,,,,,,,FF,,,,,,,,0.7837,,,,,,,,,,,,,,,,,,,,,,6102fa60aae1a0c56b0c30a5,61036c1c966093412b5d231e,2021-07-29_23h04.23.165,Simcolourproject_2stim_asymm_v5,2020.2.10,Win32,60,61025ae37ef11b136ea224fe,,,,,,,,,1653,50.60005755,21.1999948,1,0,0,response1disk,,6,5.000008047,-10.00003008,1,0,0,rectangle,5.000008047,-10.00003008,1,0,0,5.000008047,-10.00003008,1,0,0,0,64,64,105,1,,,,,,,,
,,,,,,,,,,,,,FF,,,,,,,,0.8335,,,,,,,,,,,,,,,,,,,,,,6102fa60aae1a0c56b0c30a5,61036c1c966093412b5d231e,2021-07-29_23h04.23.165,Simcolourproject_2stim_asymm_v5,2020.2.10,Win32,60,61025ae37ef11b136ea224fe,,,,,,,,,2706,56.20000881,36.39997061,1,0,0,response1disk,,6,8.200008094,-1.200005531,1,0,0,rectangle,8.200008094,-1.200005531,1,0,0,8.200008094,-1.200005531,1,0,0,0,65,65,95,1,,,,,,,,
,,,,,,,,,,,,,FF,,,,,,,,1.0835,,,,,,,,,,,,,,,,,,,,,,6102fa60aae1a0c56b0c30a5,61036c1c966093412b5d231e,2021-07-29_23h04.23.165,Simcolourproject_2stim_asymm_v5,2020.2.10,Win32,60,61025ae37ef11b136ea224fe,,,,,,,,,2608,-54.99999285,41.9999707,1,0,0,response7disk,,1,12.20000815,-12.4000057,1,0,0,rectangle,12.20000815,-12.4000057,1,0,0,12.20000815,-12.4000057,1,0,0,0,66,66,61,1,,,,,,,,
,,,,,,,,,,,,,FF,,,,,,,,1.1669,,,,,,,,,,,,,,,,,,,,,,6102fa60aae1a0c56b0c30a5,61036c1c966093412b5d231e,2021-07-29_23h04.23.165,Simcolourproject_2stim_asymm_v5,2020.2.10,Win32,60,61025ae37ef11b136ea224fe,,,,,,,,,2084,-54.99999285,-35.60003046,1,0,0,response5disk,,2,5.800008059,-7.600030041,1,0,0,rectangle,5.800008059,-7.600030041,1,0,0,5.800008059,-7.600030041,1,0,0,0,67,67,87,1,,,,,,,,
,,,,,,,,,,,,,FF,,,,,,,,0.9015,,,,,,,,,,,,,,,,,,,,,,6102fa60aae1a0c56b0c30a5,61036c1c966093412b5d231e,2021-07-29_23h04.23.165,Simcolourproject_2stim_asymm_v5,2020.2.10,Win32,60,61025ae37ef11b136ea224fe,,,,,,,,,4198,56.20000881,41.9999707,1,0,0,response1disk,,6,-1.399943221,5.999970162,1,0,0,rectangle,-1.399943221,5.999970162,1,0,0,-1.399943221,5.999970162,1,0,0,0,68,68,55,1,,,,,,,,
,,,,,,,,,,,,,FF,,,,,,,,0.9001,,,,,,,,,,,,,,,,,,,,,,6102fa60aae1a0c56b0c30a5,61036c1c966093412b5d231e,2021-07-29_23h04.23.165,Simcolourproject_2stim_asymm_v5,2020.2.10,Win32,60,61025ae37ef11b136ea224fe,,,,,,,,,2011,48.20000869,26.79999489,1,0,0,response1disk,,6,-1.399943221,-8.400005639,1,0,0,rectangle,-1.399943221,-8.400005639,1,0,0,-1.399943221,-8.400005639,1,0,0,0,69,69,120,1,,,,,,,,
,,,,,,,,,,,,,FF,,,,,,,,1.1836,,,,,,,,,,,,,,,,,,,,,,6102fa60aae1a0c56b0c30a5,61036c1c966093412b5d231e,2021-07-29_23h04.23.165,Simcolourproject_2stim_asymm_v5,2020.2.10,Win32,60,61025ae37ef11b136ea224fe,,,,,,,,,3725,49.0000087,-57.20000637,1,0,0,response3disk,,4,-10.99999219,-7.600030041,1,0,0,rectangle,-10.99999219,-7.600030041,1,0,0,-10.99999219,-7.600030041,1,0,0,0,70,70,39,1,,,,,,,,
,,,,,,,,,,,,,FF,,,,,,,,1.2167,,,,,,,,,,,,,,,,,,,,,,6102fa60aae1a0c56b0c30a5,61036c1c966093412b5d231e,2021-07-29_23h04.23.165,Simcolourproject_2stim_asymm_v5,2020.2.10,Win32,60,61025ae37ef11b136ea224fe,,,,,,,,,1794,67.40000898,-26.80000591,1,0,0,response3disk,,5,0.200007975,1.999970102,1,0,0,rectangle,0.200007975,1.999970102,1,0,0,0.200007975,1.999970102,1,0,0,0,71,71,77,1,,,,,,,,
,,,,,,,,,,,,,FF,,,,,,,,0.9829,,,,,,,,,,,,,,,,,,,,,,6102fa60aae1a0c56b0c30a5,61036c1c966093412b5d231e,2021-07-29_23h04.23.165,Simcolourproject_2stim_asymm_v5,2020.2.10,Win32,60,61025ae37ef11b136ea224fe,,,,,,,,,4100,-38.1999926,-58.00000638,1,0,0,response5disk,,3,4.200008035,-0.400005519,1,0,0,rectangle,4.200008035,-0.400005519,1,0,0,4.200008035,-0.400005519,1,0,0,0,72,72,157,1,,,,,,,,
,,,,,,,,,,,,,FF,,,,,,,,1.2333,,,,,,,,,,,,,,,,,,,,,,6102fa60aae1a0c56b0c30a5,61036c1c966093412b5d231e,2021-07-29_23h04.23.165,Simcolourproject_2stim_asymm_v5,2020.2.10,Win32,60,61025ae37ef11b136ea224fe,,,,,,,,,417,68.20000899,-42.00000614,1,0,0,response3disk,,5,3.400008023,-2.000029957,1,0,0,rectangle,3.400008023,-2.000029957,1,0,0,3.400008023,-2.000029957,1,0,0,0,73,73,48,1,,,,,,,,
,,,,,,,,,,,,,FF,,,,,,,,0.7999,,,,,,,,,,,,,,,,,,,,,,6102fa60aae1a0c56b0c30a5,61036c1c966093412b5d231e,2021-07-29_23h04.23.165,Simcolourproject_2stim_asymm_v5,2020.2.10,Win32,60,61025ae37ef11b136ea224fe,,,,,,,,,2800,29.0000084,-49.20000625,1,0,0,response3disk,,4,-6.19999212,-4.400005579,1,0,0,rectangle,-6.19999212,-4.400005579,1,0,0,-6.19999212,-4.400005579,1,0,0,0,74,74,19,1,,,,,,,,
,,,,,,,,,,,,,FF,,,,,,,,0.7832,,,,,,,,,,,,,,,,,,,,,,6102fa60aae1a0c56b0c30a5,61036c1c966093412b5d231e,2021-07-29_23h04.23.165,Simcolourproject_2stim_asymm_v5,2020.2.10,Win32,60,61025ae37ef11b136ea224fe,,,,,,,,,454,57.00000882,15.59999472,1,0,0,response1disk,,6,-1.399943221,-8.400005639,1,0,0,rectangle,-1.399943221,-8.400005639,1,0,0,-1.399943221,-8.400005639,1,0,0,0,75,75,80,1,,,,,,,,
,,,,,,,,,,,,,FF,,,,,,,,0.9161,,,,,,,,,,,,,,,,,,,,,,6102fa60aae1a0c56b0c30a5,61036c1c966093412b5d231e,2021-07-29_23h04.23.165,Simcolourproject_2stim_asymm_v5,2020.2.10,Win32,60,61025ae37ef11b136ea224fe,,,,,,,,,598,60.20000887,22.79999483,1,0,0,response1disk,,6,5.800008059,-0.400005519,1,0,0,rectangle,70.60005785,-46.80000621,1,0,0,17.00000823,-3.600029981,1,0,0,0,76,76,78,1,,response3disk_3,TRUE,5,5,"[41,277,215,279,77,158,281,283,307,118,24,103,240,241,11,300,86,189,191,307]",1.3331,rectangle
,,,,,,,,,,,,,FF,,,,,,,,0.9501,,,,,,,,,,,,,,,,,,,,,,6102fa60aae1a0c56b0c30a5,61036c1c966093412b5d231e,2021-07-29_23h04.23.165,Simcolourproject_2stim_asymm_v5,2020.2.10,Win32,60,61025ae37ef11b136ea224fe,,,,,,,,,858,57.00000882,-21.20000583,1,0,0,response3disk,,5,4.200008035,1.199994504,1,0,0,rectangle,4.200008035,1.199994504,1,0,0,4.200008035,1.199994504,1,0,0,0,77,77,34,1,,,,,,,,
,,,,,,,,,,,,,FF,,,,,,,,0.6834,,,,,,,,,,,,,,,,,,,,,,6102fa60aae1a0c56b0c30a5,61036c1c966093412b5d231e,2021-07-29_23h04.23.165,Simcolourproject_2stim_asymm_v5,2020.2.10,Win32,60,61025ae37ef11b136ea224fe,,,,,,,,,4199,50.60005755,28.3999705,1,0,0,response1disk,,6,1.800007999,-3.600029981,1,0,0,rectangle,1.800007999,-3.600029981,1,0,0,1.800007999,-3.600029981,1,0,0,0,78,78,45,1,,,,,,,,
,,,,,,,,,,,,,FF,,,,,,,,1.4558,,,,,,,,,,,,,,,,,,,,,,6102fa60aae1a0c56b0c30a5,61036c1c966093412b5d231e,2021-07-29_23h04.23.165,Simcolourproject_2stim_asymm_v5,2020.2.10,Win32,60,61025ae37ef11b136ea224fe,,,,,,,,,2993,-38.1999926,41.1999951,1,0,0,response7disk,,0,-2.999992073,-1.200005531,1,0,0,rectangle,-2.999992073,-1.200005531,1,0,0,-2.999992073,-1.200005531,1,0,0,0,79,79,50,1,,,,,,,,
,,,,,,,,,,,,,FF,,,,,,,,0.8846,,,,,,,,,,,,,,,,,,,,,,6102fa60aae1a0c56b0c30a5,61036c1c966093412b5d231e,2021-07-29_23h04.23.165,Simcolourproject_2stim_asymm_v5,2020.2.10,Win32,60,61025ae37ef11b136ea224fe,,,,,,,,,1206,24.20000833,-49.20000625,1,0,0,response3disk,,4,-1.399943221,-9.200005651,1,0,0,rectangle,-1.399943221,-9.200005651,1,0,0,-1.399943221,-9.200005651,1,0,0,0,80,80,158,1,,,,,,,,
,,,,,,,,,,,,,FF,,,,,,,,1.8698,,,,,,,,,,,,,,,,,,,,,,6102fa60aae1a0c56b0c30a5,61036c1c966093412b5d231e,2021-07-29_23h04.23.165,Simcolourproject_2stim_asymm_v5,2020.2.10,Win32,60,61025ae37ef11b136ea224fe,,,,,,,,,695,49.0000087,-60.40005524,1,0,0,response3disk,,4,4.200008035,-2.800005555,1,0,0,rectangle,4.200008035,-2.800005555,1,0,0,4.200008035,-2.800005555,1,0,0,0,81,81,148,1,,,,,,,,
,,,,,,,,,,,,,FF,,,,,,,,0.9835,,,,,,,,,,,,,,,,,,,,,,6102fa60aae1a0c56b0c30a5,61036c1c966093412b5d231e,2021-07-29_23h04.23.165,Simcolourproject_2stim_asymm_v5,2020.2.10,Win32,60,61025ae37ef11b136ea224fe,,,,,,,,,3802,60.20000887,18.79999477,1,0,0,response1disk,,6,4.200008035,7.5999946,1,0,0,rectangle,4.200008035,7.5999946,1,0,0,4.200008035,7.5999946,1,0,0,0,82,82,31,1,,,,,,,,
,,,,,,,,,,,,,FF,,,,,,,,0.7848,,,,,,,,,,,,,,,,,,,,,,6102fa60aae1a0c56b0c30a5,61036c1c966093412b5d231e,2021-07-29_23h04.23.165,Simcolourproject_2stim_asymm_v5,2020.2.10,Win32,60,61025ae37ef11b136ea224fe,,,,,,,,,270,41.00000858,-30.00003037,1,0,0,response3disk,,5,-0.599992037,1.199994504,1,0,0,rectangle,-0.599992037,1.199994504,1,0,0,-0.599992037,1.199994504,1,0,0,0,83,83,116,1,,,,,,,,
,,,,,,,,,,,,,FF,,,,,,,,0.8342,,,,,,,,,,,,,,,,,,,,,,6102fa60aae1a0c56b0c30a5,61036c1c966093412b5d231e,2021-07-29_23h04.23.165,Simcolourproject_2stim_asymm_v5,2020.2.10,Win32,60,61025ae37ef11b136ea224fe,,,,,,,,,4145,-34.19999254,-59.6000064,1,0,0,response5disk,,3,-7.799992144,-2.000029957,1,0,0,rectangle,-7.799992144,-2.000029957,1,0,0,-7.799992144,-2.000029957,1,0,0,0,84,84,126,1,,,,,,,,
,,,,,,,,,,,,,FF,,,,,,,,1.1666,,,,,,,,,,,,,,,,,,,,,,6102fa60aae1a0c56b0c30a5,61036c1c966093412b5d231e,2021-07-29_23h04.23.165,Simcolourproject_2stim_asymm_v5,2020.2.10,Win32,60,61025ae37ef11b136ea224fe,,,,,,,,,2713,25.80000836,-42.80000615,1,0,0,response3disk,,4,-1.399943221,-1.200005531,1,0,0,rectangle,59.40000886,-37.20000607,1,0,0,6.600056899,-4.400005579,1,0,0,0,85,85,46,1,,response3disk_3,TRUE,5,5,"[41,277,215,279,77,158,281,283,307,118,24,103,240,241,11,300,86,189,191,307]",1.4982,rectangle
,,,,,,,,,,,,,FF,,,,,,,,1.4497,,,,,,,,,,,,,,,,,,,,,,6102fa60aae1a0c56b0c30a5,61036c1c966093412b5d231e,2021-07-29_23h04.23.165,Simcolourproject_2stim_asymm_v5,2020.2.10,Win32,60,61025ae37ef11b136ea224fe,,,,,,,,,2862,65.00000894,-24.40000588,1,0,0,response3disk,,5,1.000007987,6.799994588,1,0,0,rectangle,1.000007987,6.799994588,1,0,0,1.000007987,6.799994588,1,0,0,0,86,86,74,1,,,,,,,,
,,,,,,,,,,,,,FF,,,,,,,,0.95,,,,,,,,,,,,,,,,,,,,,,6102fa60aae1a0c56b0c30a5,61036c1c966093412b5d231e,2021-07-29_23h04.23.165,Simcolourproject_2stim_asymm_v5,2020.2.10,Win32,60,61025ae37ef11b136ea224fe,,,,,,,,,4041,31.40000844,-36.40000606,1,0,0,response3disk,,4,-1.399943221,-3.600029981,1,0,0,rectangle,-1.399943221,-3.600029981,1,0,0,-1.399943221,-3.600029981,1,0,0,0,87,87,70,1,,,,,,,,
,,,,,,,,,,,,,FF,,,,,,,,1.333,,,,,,,,,,,,,,,,,,,,,,6102fa60aae1a0c56b0c30a5,61036c1c966093412b5d231e,2021-07-29_23h04.23.165,Simcolourproject_2stim_asymm_v5,2020.2.10,Win32,60,61025ae37ef11b136ea224fe,,,,,,,,,2442,63.40000892,-25.20000589,1,0,0,response3disk,,5,6.600056899,-1.200005531,1,0,0,rectangle,6.600056899,-1.200005531,1,0,0,6.600056899,-1.200005531,1,0,0,0,88,88,57,1,,,,,,,,
,,,,,,,,,,,,,FF,,,,,,,,0.8327,,,,,,,,,,,,,,,,,,,,,,6102fa60aae1a0c56b0c30a5,61036c1c966093412b5d231e,2021-07-29_23h04.23.165,Simcolourproject_2stim_asymm_v5,2020.2.10,Win32,60,61025ae37ef11b136ea224fe,,,,,,,,,1547,57.80000883,-29.20000595,1,0,0,response3disk,,5,0.200007975,-13.20000571,1,0,0,rectangle,0.200007975,-13.20000571,1,0,0,0.200007975,-13.20000571,1,0,0,0,89,89,127,1,,,,,,,,
,,,,,,,,,,,,,FF,,,,,,,,0.7413,,,,,,,,,,,,,,,,,,,,,,6102fa60aae1a0c56b0c30a5,61036c1c966093412b5d231e,2021-07-29_23h04.23.165,Simcolourproject_2stim_asymm_v5,2020.2.10,Win32,60,61025ae37ef11b136ea224fe,,,,,,,,,847,45.00000864,-24.40000588,1,0,0,response3disk,,5,4.200008035,-5.200005591,1,0,0,rectangle,4.200008035,-5.200005591,1,0,0,4.200008035,-5.200005591,1,0,0,0,90,90,93,1,,,,,,,,
,,,,,,,,,,,,,FF,,,,,,,,0.8882,,,,,,,,,,,,,,,,,,,,,,6102fa60aae1a0c56b0c30a5,61036c1c966093412b5d231e,2021-07-29_23h04.23.165,Simcolourproject_2stim_asymm_v5,2020.2.10,Win32,60,61025ae37ef11b136ea224fe,,,,,,,,,3164,-26.19999242,-48.40000623,1,0,0,response5disk,,3,4.200008035,-0.400005519,1,0,0,rectangle,4.200008035,-0.400005519,1,0,0,4.200008035,-0.400005519,1,0,0,0,91,91,125,1,,,,,,,,
,,,,,,,,,,,,,FF,,,,,,,,1.4174,,,,,,,,,,,,,,,,,,,,,,6102fa60aae1a0c56b0c30a5,61036c1c966093412b5d231e,2021-07-29_23h04.23.165,Simcolourproject_2stim_asymm_v5,2020.2.10,Win32,60,61025ae37ef11b136ea224fe,,,,,,,,,2904,69.000009,-34.80000603,1,0,0,response3disk,,5,-2.199992061,-7.600030041,1,0,0,rectangle,-2.199992061,-7.600030041,1,0,0,-2.199992061,-7.600030041,1,0,0,0,92,92,83,1,,,,,,,,
,,,,,,,,,,,,,FF,,,,,,,,0.8502,,,,,,,,,,,,,,,,,,,,,,6102fa60aae1a0c56b0c30a5,61036c1c966093412b5d231e,2021-07-29_23h04.23.165,Simcolourproject_2stim_asymm_v5,2020.2.10,Win32,60,61025ae37ef11b136ea224fe,,,,,,,,,1882,43.40000862,22.79999483,1,0,0,response1disk,,6,-10.99999219,-4.400005579,1,0,0,rectangle,-10.99999219,-4.400005579,1,0,0,-10.99999219,-4.400005579,1,0,0,0,93,93,115,1,,,,,,,,
,,,,,,,,,,,,,FF,,,,,,,,1.3335,,,,,,,,,,,,,,,,,,,,,,6102fa60aae1a0c56b0c30a5,61036c1c966093412b5d231e,2021-07-29_23h04.23.165,Simcolourproject_2stim_asymm_v5,2020.2.10,Win32,60,61025ae37ef11b136ea224fe,,,,,,,,,2297,-62.99999297,-12.4000057,1,0,0,response5disk,,2,-1.399943221,-10.80000567,1,0,0,rectangle,-1.399943221,-10.80000567,1,0,0,-1.399943221,-10.80000567,1,0,0,0,94,94,92,1,,,,,,,,
,,,,,,,,,,,,,FF,,,,,,,,0.9171,,,,,,,,,,,,,,,,,,,,,,6102fa60aae1a0c56b0c30a5,61036c1c966093412b5d231e,2021-07-29_23h04.23.165,Simcolourproject_2stim_asymm_v5,2020.2.10,Win32,60,61025ae37ef11b136ea224fe,,,,,,,,,62,33.00000846,-54.80000633,1,0,0,response3disk,,4,7.400008082,-6.800005615,1,0,0,rectangle,7.400008082,-6.800005615,1,0,0,7.400008082,-6.800005615,1,0,0,0,95,95,81,1,,,,,,,,
,,,,,,,,,,,,,FF,,,,,,,,0.8675,,,,,,,,,,,,,,,,,,,,,,6102fa60aae1a0c56b0c30a5,61036c1c966093412b5d231e,2021-07-29_23h04.23.165,Simcolourproject_2stim_asymm_v5,2020.2.10,Win32,60,61025ae37ef11b136ea224fe,,,,,,,,,438,-54.99999285,33.19999498,1,0,0,response7disk,,1,-4.599992096,4.399970138,1,0,0,rectangle,-4.599992096,4.399970138,1,0,0,-4.599992096,4.399970138,1,0,0,0,96,96,103,1,,,,,,,,
,,,,,,,,,,,,,FF,,,,,,,,0.9179,,,,,,,,,,,,,,,,,,,,,,6102fa60aae1a0c56b0c30a5,61036c1c966093412b5d231e,2021-07-29_23h04.23.165,Simcolourproject_2stim_asymm_v5,2020.2.10,Win32,60,61025ae37ef11b136ea224fe,,,,,,,,,3160,-34.99999255,-63.60000646,1,0,0,response5disk,,3,-4.599992096,-4.400005579,1,0,0,rectangle,-4.599992096,-4.400005579,1,0,0,-4.599992096,-4.400005579,1,0,0,0,97,97,123,1,,,,,,,,
,,,,,,,,,,,,,FF,,,,,,,,1.2176,,,,,,,,,,,,,,,,,,,,,,6102fa60aae1a0c56b0c30a5,61036c1c966093412b5d231e,2021-07-29_23h04.23.165,Simcolourproject_2stim_asymm_v5,2020.2.10,Win32,60,61025ae37ef11b136ea224fe,,,,,,,,,3015,71.40000904,-25.20000589,1,0,0,response3disk,,5,9.000008106,4.399970138,1,0,0,rectangle,9.000008106,4.399970138,1,0,0,9.000008106,4.399970138,1,0,0,0,98,98,99,1,,,,,,,,
,,,,,,,,,,,,,FF,,,,,,,,1.0844,,,,,,,,,,,,,,,,,,,,,,6102fa60aae1a0c56b0c30a5,61036c1c966093412b5d231e,2021-07-29_23h04.23.165,Simcolourproject_2stim_asymm_v5,2020.2.10,Win32,60,61025ae37ef11b136ea224fe,,,,,,,,,1228,-59.79999292,-37.20000607,1,0,0,response5disk,,2,-0.599992037,-6.000030017,1,0,0,rectangle,-0.599992037,-6.000030017,1,0,0,-0.599992037,-6.000030017,1,0,0,0,99,99,141,1,,,,,,,,
,,,,,,,,,,,,,FF,,,,,,,,1.2503,,,,,,,,,,,,,,,,,,,,,,6102fa60aae1a0c56b0c30a5,61036c1c966093412b5d231e,2021-07-29_23h04.23.165,Simcolourproject_2stim_asymm_v5,2020.2.10,Win32,60,61025ae37ef11b136ea224fe,,,,,,,,,2331,69.000009,30.79999495,1,0,0,response1disk,,6,5.800008059,-4.400005579,1,0,0,rectangle,5.800008059,-4.400005579,1,0,0,5.800008059,-4.400005579,1,0,0,0,100,100,138,1,,,,,,,,
,,,,,,,,,,,,,FF,,,,,,,,1.085,,,,,,,,,,,,,,,,,,,,,,6102fa60aae1a0c56b0c30a5,61036c1c966093412b5d231e,2021-07-29_23h04.23.165,Simcolourproject_2stim_asymm_v5,2020.2.10,Win32,60,61025ae37ef11b136ea224fe,,,,,,,,,4007,28.20000839,-61.20000643,1,0,0,response3disk,,4,-7.799992144,-9.200005651,1,0,0,rectangle,-7.799992144,-9.200005651,1,0,0,-7.799992144,-9.200005651,1,0,0,0,101,101,65,1,,,,,,,,
,,,,,,,,,,,,,FF,,,,,,,,0.867,,,,,,,,,,,,,,,,,,,,,,6102fa60aae1a0c56b0c30a5,61036c1c966093412b5d231e,2021-07-29_23h04.23.165,Simcolourproject_2stim_asymm_v5,2020.2.10,Win32,60,61025ae37ef11b136ea224fe,,,,,,,,,2123,57.80000883,-22.80000585,1,0,0,response3disk,,5,-5.39994328,-1.200005531,1,0,0,rectangle,66.60005779,21.1999948,1,0,0,3.400008023,-11.6000301,1,0,0,0,102,102,0,1,,response1disk_3,TRUE,6,6,"[41,277,215,279,77,158,281,283,307,118,24,103,240,241,11,300,86,189,191,307]",1.5,rectangle
,,,,,,,,,,,,,FF,,,,,,,,1.0838,,,,,,,,,,,,,,,,,,,,,,6102fa60aae1a0c56b0c30a5,61036c1c966093412b5d231e,2021-07-29_23h04.23.165,Simcolourproject_2stim_asymm_v5,2020.2.10,Win32,60,61025ae37ef11b136ea224fe,,,,,,,,,4369,-41.39999264,25.99997046,1,0,0,response7disk,,1,10.60005696,-2.000029957,1,0,0,rectangle,10.60005696,-2.000029957,1,0,0,10.60005696,-2.000029957,1,0,0,0,103,103,43,1,,,,,,,,
,,,,,,,,,,,,,FF,,,,,,,,0.9835,,,,,,,,,,,,,,,,,,,,,,6102fa60aae1a0c56b0c30a5,61036c1c966093412b5d231e,2021-07-29_23h04.23.165,Simcolourproject_2stim_asymm_v5,2020.2.10,Win32,60,61025ae37ef11b136ea224fe,,,,,,,,,208,35.4000085,-51.60000628,1,0,0,response3disk,,4,-10.19999218,-0.400005519,1,0,0,rectangle,-10.19999218,-0.400005519,1,0,0,-10.19999218,-0.400005519,1,0,0,0,104,104,21,1,,,,,,,,
,,,,,,,,,,,,,FF,,,,,,,,0.7542,,,,,,,,,,,,,,,,,,,,,,6102fa60aae1a0c56b0c30a5,61036c1c966093412b5d231e,2021-07-29_23h04.23.165,Simcolourproject_2stim_asymm_v5,2020.2.10,Win32,60,61025ae37ef11b136ea224fe,,,,,,,,,1203,-65.399993,-28.40000594,1,0,0,response5disk,,2,-9.39994334,-8.400005639,1,0,0,rectangle,-9.39994334,-8.400005639,1,0,0,-9.39994334,-8.400005639,1,0,0,0,105,105,155,1,,,,,,,,
,,,,,,,,,,,,,FF,,,,,,,,0.905,,,,,,,,,,,,,,,,,,,,,,6102fa60aae1a0c56b0c30a5,61036c1c966093412b5d231e,2021-07-29_23h04.23.165,Simcolourproject_2stim_asymm_v5,2020.2.10,Win32,60,61025ae37ef11b136ea224fe,,,,,,,,,538,57.80000883,-41.20000613,1,0,0,response3disk,,5,-4.599992096,2.799994528,1,0,0,rectangle,-4.599992096,2.799994528,1,0,0,-4.599992096,2.799994528,1,0,0,0,106,106,114,1,,,,,,,,
,,,,,,,,,,,,,FF,,,,,,,,0.7162,,,,,,,,,,,,,,,,,,,,,,6102fa60aae1a0c56b0c30a5,61036c1c966093412b5d231e,2021-07-29_23h04.23.165,Simcolourproject_2stim_asymm_v5,2020.2.10,Win32,60,61025ae37ef11b136ea224fe,,,,,,,,,2394,37.00000852,-55.60000634,1,0,0,response3disk,,4,-8.599992156,-3.600029981,1,0,0,rectangle,-8.599992156,-3.600029981,1,0,0,-8.599992156,-3.600029981,1,0,0,0,107,107,153,1,,,,,,,,
,,,,,,,,,,,,,FF,,,,,,,,1.0333,,,,,,,,,,,,,,,,,,,,,,6102fa60aae1a0c56b0c30a5,61036c1c966093412b5d231e,2021-07-29_23h04.23.165,Simcolourproject_2stim_asymm_v5,2020.2.10,Win32,60,61025ae37ef11b136ea224fe,,,,,,,,,3388,-32.59999251,53.19999528,1,0,0,response7disk,,0,-5.39994328,5.199994564,1,0,0,rectangle,-5.39994328,5.199994564,1,0,0,-5.39994328,5.199994564,1,0,0,0,108,108,16,1,,,,,,,,
,,,,,,,,,,,,,FF,,,,,,,,1.0118,,,,,,,,,,,,,,,,,,,,,,6102fa60aae1a0c56b0c30a5,61036c1c966093412b5d231e,2021-07-29_23h04.23.165,Simcolourproject_2stim_asymm_v5,2020.2.10,Win32,60,61025ae37ef11b136ea224fe,,,,,,,,,3124,66.60005779,-39.6000061,1,0,0,response3disk,,5,-6.999992132,1.999970102,1,0,0,rectangle,-6.999992132,1.999970102,1,0,0,-6.999992132,1.999970102,1,0,0,0,109,109,32,1,,,,,,,,
,,,,,,,,,,,,,FF,,,,,,,,1.1504,,,,,,,,,,,,,,,,,,,,,,6102fa60aae1a0c56b0c30a5,61036c1c966093412b5d231e,2021-07-29_23h04.23.165,Simcolourproject_2stim_asymm_v5,2020.2.10,Win32,60,61025ae37ef11b136ea224fe,,,,,,,,,1129,58.60005767,-26.00003031,1,0,0,response3disk,,5,3.400008023,6.799994588,1,0,0,rectangle,3.400008023,6.799994588,1,0,0,3.400008023,6.799994588,1,0,0,0,110,110,13,1,,,,,,,,
,,,,,,,,,,,,,FF,,,,,,,,1.2502,,,,,,,,,,,,,,,,,,,,,,6102fa60aae1a0c56b0c30a5,61036c1c966093412b5d231e,2021-07-29_23h04.23.165,Simcolourproject_2stim_asymm_v5,2020.2.10,Win32,60,61025ae37ef11b136ea224fe,,,,,,,,,4307,58.60005767,23.59999484,1,0,0,response1disk,,6,13.80000818,-1.200005531,1,0,0,rectangle,13.80000818,-1.200005531,1,0,0,13.80000818,-1.200005531,1,0,0,0,111,111,64,1,,,,,,,,
,,,,,,,,,,,,,FF,,,,,,,,1.6007,,,,,,,,,,,,,,,,,,,,,,6102fa60aae1a0c56b0c30a5,61036c1c966093412b5d231e,2021-07-29_23h04.23.165,Simcolourproject_2stim_asymm_v5,2020.2.10,Win32,60,61025ae37ef11b136ea224fe,,,,,,,,,3481,-29.39999247,-60.40005524,1,0,0,response5disk,,3,-7.799992144,-1.200005531,1,0,0,rectangle,-7.799992144,-1.200005531,1,0,0,-7.799992144,-1.200005531,1,0,0,0,112,112,44,1,,,,,,,,
,,,,,,,,,,,,,FF,,,,,,,,1.4,,,,,,,,,,,,,,,,,,,,,,6102fa60aae1a0c56b0c30a5,61036c1c966093412b5d231e,2021-07-29_23h04.23.165,Simcolourproject_2stim_asymm_v5,2020.2.10,Win32,60,61025ae37ef11b136ea224fe,,,,,,,,,1370,-62.99999297,-24.40000588,1,0,0,response5disk,,2,11.40000814,1.999970102,1,0,0,rectangle,11.40000814,1.999970102,1,0,0,11.40000814,1.999970102,1,0,0,0,113,113,122,1,,,,,,,,
,,,,,,,,,,,,,FF,,,,,,,,0.889,,,,,,,,,,,,,,,,,,,,,,6102fa60aae1a0c56b0c30a5,61036c1c966093412b5d231e,2021-07-29_23h04.23.165,Simcolourproject_2stim_asymm_v5,2020.2.10,Win32,60,61025ae37ef11b136ea224fe,,,,,,,,,1017,29.80000842,-31.6000304,1,0,0,response3disk,,4,1.800007999,4.399970138,1,0,0,rectangle,1.800007999,4.399970138,1,0,0,1.800007999,4.399970138,1,0,0,0,114,114,91,1,,,,,,,,
,,,,,,,,,,,,,FF,,,,,,,,0.8473,,,,,,,,,,,,,,,,,,,,,,6102fa60aae1a0c56b0c30a5,61036c1c966093412b5d231e,2021-07-29_23h04.23.165,Simcolourproject_2stim_asymm_v5,2020.2.10,Win32,60,61025ae37ef11b136ea224fe,,,,,,,,,3510,-22.99999237,53.99997088,1,0,0,response7disk,,0,1.800007999,5.199994564,1,0,0,rectangle,1.800007999,5.199994564,1,0,0,1.800007999,5.199994564,1,0,0,0,115,115,94,1,,,,,,,,
,,,,,,,,,,,,,FF,,,,,,,,0.7897,,,,,,,,,,,,,,,,,,,,,,6102fa60aae1a0c56b0c30a5,61036c1c966093412b5d231e,2021-07-29_23h04.23.165,Simcolourproject_2stim_asymm_v5,2020.2.10,Win32,60,61025ae37ef11b136ea224fe,,,,,,,,,515,-46.19999272,-26.80000591,1,0,0,response5disk,,2,1.000007987,-2.000029957,1,0,0,rectangle,1.000007987,-2.000029957,1,0,0,1.000007987,-2.000029957,1,0,0,0,116,116,86,1,,,,,,,,
,,,,,,,,,,,,,FF,,,,,,,,0.7672,,,,,,,,,,,,,,,,,,,,,,6102fa60aae1a0c56b0c30a5,61036c1c966093412b5d231e,2021-07-29_23h04.23.165,Simcolourproject_2stim_asymm_v5,2020.2.10,Win32,60,61025ae37ef11b136ea224fe,,,,,,,,,1364,53.00000876,-24.40000588,1,0,0,response3disk,,5,4.200008035,-4.400005579,1,0,0,rectangle,33.80000848,54.7999953,1,0,0,10.60005696,0.399970078,1,0,0,0,117,117,5,1,,response1disk_3,TRUE,7,7,"[41,277,215,279,77,158,281,283,307,118,24,103,240,241,11,300,86,189,191,307]",1.6832,rectangle
,,,,,,,,,,,,,FF,,,,,,,,0.7523,,,,,,,,,,,,,,,,,,,,,,6102fa60aae1a0c56b0c30a5,61036c1c966093412b5d231e,2021-07-29_23h04.23.165,Simcolourproject_2stim_asymm_v5,2020.2.10,Win32,60,61025ae37ef11b136ea224fe,,,,,,,,,579,33.00000846,-49.20000625,1,0,0,response3disk,,4,-10.99999219,-10.00003008,1,0,0,rectangle,-10.99999219,-10.00003008,1,0,0,-10.99999219,-10.00003008,1,0,0,0,118,118,22,1,,,,,,,,
,,,,,,,,,,,,,FF,,,,,,,,0.9318,,,,,,,,,,,,,,,,,,,,,,6102fa60aae1a0c56b0c30a5,61036c1c966093412b5d231e,2021-07-29_23h04.23.165,Simcolourproject_2stim_asymm_v5,2020.2.10,Win32,60,61025ae37ef11b136ea224fe,,,,,,,,,1366,39.40000856,-34.00003043,1,0,0,response3disk,,5,-8.599992156,0.399970078,1,0,0,rectangle,-8.599992156,0.399970078,1,0,0,-8.599992156,0.399970078,1,0,0,0,119,119,33,1,,,,,,,,
,,,,,,,,,,,,,FF,,,,,,,,1.0183,,,,,,,,,,,,,,,,,,,,,,6102fa60aae1a0c56b0c30a5,61036c1c966093412b5d231e,2021-07-29_23h04.23.165,Simcolourproject_2stim_asymm_v5,2020.2.10,Win32,60,61025ae37ef11b136ea224fe,,,,,,,,,2864,32.20000845,67.59999549,1,0,0,response1disk,,7,3.400008023,0.399970078,1,0,0,rectangle,3.400008023,0.399970078,1,0,0,3.400008023,0.399970078,1,0,0,0,120,120,129,1,,,,,,,,
,,,,,,,,,,,,,FF,,,,,,,,0.664,,,,,,,,,,,,,,,,,,,,,,6102fa60aae1a0c56b0c30a5,61036c1c966093412b5d231e,2021-07-29_23h04.23.165,Simcolourproject_2stim_asymm_v5,2020.2.10,Win32,60,61025ae37ef11b136ea224fe,,,,,,,,,2133,25.80000836,52.39997085,1,0,0,response1disk,,7,2.600056839,-2.800005555,1,0,0,rectangle,2.600056839,-2.800005555,1,0,0,2.600056839,-2.800005555,1,0,0,0,121,121,40,1,,,,,,,,
,,,,,,,,,,,,,FF,,,,,,,,0.8012,,,,,,,,,,,,,,,,,,,,,,6102fa60aae1a0c56b0c30a5,61036c1c966093412b5d231e,2021-07-29_23h04.23.165,Simcolourproject_2stim_asymm_v5,2020.2.10,Win32,60,61025ae37ef11b136ea224fe,,,,,,,,,4352,-39.79999262,-56.40000635,1,0,0,response5disk,,3,5.000008047,7.5999946,1,0,0,rectangle,5.000008047,7.5999946,1,0,0,5.000008047,7.5999946,1,0,0,0,122,122,1,1,,,,,,,,
,,,,,,,,,,,,,FF,,,,,,,,0.8181,,,,,,,,,,,,,,,,,,,,,,6102fa60aae1a0c56b0c30a5,61036c1c966093412b5d231e,2021-07-29_23h04.23.165,Simcolourproject_2stim_asymm_v5,2020.2.10,Win32,60,61025ae37ef11b136ea224fe,,,,,,,,,1864,60.20000887,-18.0000302,1,0,0,response3disk,,5,5.800008059,-6.800005615,1,0,0,rectangle,5.800008059,-6.800005615,1,0,0,5.800008059,-6.800005615,1,0,0,0,123,123,140,1,,,,,,,,
,,,,,,,,,,,,,FF,,,,,,,,1.2163,,,,,,,,,,,,,,,,,,,,,,6102fa60aae1a0c56b0c30a5,61036c1c966093412b5d231e,2021-07-29_23h04.23.165,Simcolourproject_2stim_asymm_v5,2020.2.10,Win32,60,61025ae37ef11b136ea224fe,,,,,,,,,3643,38.60005738,-44.40000618,1,0,0,response3disk,,4,-2.999992073,-12.4000057,1,0,0,rectangle,-2.999992073,-12.4000057,1,0,0,-2.999992073,-12.4000057,1,0,0,0,124,124,119,1,,,,,,,,
,,,,,,,,,,,,,FF,,,,,,,,1.405,,,,,,,,,,,,,,,,,,,,,,6102fa60aae1a0c56b0c30a5,61036c1c966093412b5d231e,2021-07-29_23h04.23.165,Simcolourproject_2stim_asymm_v5,2020.2.10,Win32,60,61025ae37ef11b136ea224fe,,,,,,,,,3467,38.60005738,-36.40000606,1,0,0,response3disk,,5,11.40000814,-3.600029981,1,0,0,rectangle,11.40000814,-3.600029981,1,0,0,11.40000814,-3.600029981,1,0,0,0,125,125,15,1,,,,,,,,
,,,,,,,,,,,,,FF,,,,,,,,0.7166,,,,,,,,,,,,,,,,,,,,,,6102fa60aae1a0c56b0c30a5,61036c1c966093412b5d231e,2021-07-29_23h04.23.165,Simcolourproject_2stim_asymm_v5,2020.2.10,Win32,60,61025ae37ef11b136ea224fe,,,,,,,,,1010,56.20000881,-26.00003031,1,0,0,response3disk,,5,11.40000814,1.199994504,1,0,0,rectangle,11.40000814,1.199994504,1,0,0,11.40000814,1.199994504,1,0,0,0,126,126,66,1,,,,,,,,
,,,,,,,,,,,,,FF,,,,,,,,0.5835,,,,,,,,,,,,,,,,,,,,,,6102fa60aae1a0c56b0c30a5,61036c1c966093412b5d231e,2021-07-29_23h04.23.165,Simcolourproject_2stim_asymm_v5,2020.2.10,Win32,60,61025ae37ef11b136ea224fe,,,,,,,,,3638,50.60005755,23.59999484,1,0,0,response1disk,,6,1.800007999,-0.400005519,1,0,0,rectangle,1.800007999,-0.400005519,1,0,0,1.800007999,-0.400005519,1,0,0,0,127,127,149,1,,,,,,,,
,,,,,,,,,,,,,FF,,,,,,,,0.9002,,,,,,,,,,,,,,,,,,,,,,6102fa60aae1a0c56b0c30a5,61036c1c966093412b5d231e,2021-07-29_23h04.23.165,Simcolourproject_2stim_asymm_v5,2020.2.10,Win32,60,61025ae37ef11b136ea224fe,,,,,,,,,3908,-55.79999286,-29.20000595,1,0,0,response5disk,,2,-23.79999238,9.999970222,1,0,0,rectangle,-23.79999238,9.999970222,1,0,0,-23.79999238,9.999970222,1,0,0,0,128,128,152,1,,,,,,,,
,,,,,,,,,,,,,FF,,,,,,,,0.7856,,,,,,,,,,,,,,,,,,,,,,6102fa60aae1a0c56b0c30a5,61036c1c966093412b5d231e,2021-07-29_23h04.23.165,Simcolourproject_2stim_asymm_v5,2020.2.10,Win32,60,61025ae37ef11b136ea224fe,,,,,,,,,3201,-66.19999301,-17.20000577,1,0,0,response5disk,,2,-13.3999434,1.199994504,1,0,0,rectangle,-13.3999434,1.199994504,1,0,0,-13.3999434,1.199994504,1,0,0,0,129,129,128,1,,,,,,,,
,,,,,,,,,,,,,FF,,,,,,,,0.7052,,,,,,,,,,,,,,,,,,,,,,6102fa60aae1a0c56b0c30a5,61036c1c966093412b5d231e,2021-07-29_23h04.23.165,Simcolourproject_2stim_asymm_v5,2020.2.10,Win32,60,61025ae37ef11b136ea224fe,,,,,,,,,665,61.80000889,-27.60003034,1,0,0,response3disk,,5,9.000008106,0.399970078,1,0,0,rectangle,9.000008106,0.399970078,1,0,0,9.000008106,0.399970078,1,0,0,0,130,130,143,1,,,,,,,,
,,,,,,,,,,,,,FF,,,,,,,,0.9503,,,,,,,,,,,,,,,,,,,,,,6102fa60aae1a0c56b0c30a5,61036c1c966093412b5d231e,2021-07-29_23h04.23.165,Simcolourproject_2stim_asymm_v5,2020.2.10,Win32,60,61025ae37ef11b136ea224fe,,,,,,,,,1925,53.80000877,22.79999483,1,0,0,response1disk,,6,-5.39994328,-4.400005579,1,0,0,rectangle,-5.39994328,-4.400005579,1,0,0,-5.39994328,-4.400005579,1,0,0,0,131,131,9,1,,,,,,,,
,,,,,,,,,,,,,FF,,,,,,,,0.7784,,,,,,,,,,,,,,,,,,,,,,6102fa60aae1a0c56b0c30a5,61036c1c966093412b5d231e,2021-07-29_23h04.23.165,Simcolourproject_2stim_asymm_v5,2020.2.10,Win32,60,61025ae37ef11b136ea224fe,,,,,,,,,3094,-60.59999293,22.79999483,1,0,0,response7disk,,1,-11.7999922,7.5999946,1,0,0,rectangle,-11.7999922,7.5999946,1,0,0,-11.7999922,7.5999946,1,0,0,0,132,132,131,1,,,,,,,,
,,,,,,,,,,,,,FF,,,,,,,,0.6837,,,,,,,,,,,,,,,,,,,,,,6102fa60aae1a0c56b0c30a5,61036c1c966093412b5d231e,2021-07-29_23h04.23.165,Simcolourproject_2stim_asymm_v5,2020.2.10,Win32,60,61025ae37ef11b136ea224fe,,,,,,,,,4254,-58.1999929,-35.60003046,1,0,0,response5disk,,2,-2.999992073,-12.4000057,1,0,0,rectangle,-2.999992073,-12.4000057,1,0,0,-2.999992073,-12.4000057,1,0,0,0,133,133,27,1,,,,,,,,
,,,,,,,,,,,,,FF,,,,,,,,0.6837,,,,,,,,,,,,,,,,,,,,,,6102fa60aae1a0c56b0c30a5,61036c1c966093412b5d231e,2021-07-29_23h04.23.165,Simcolourproject_2stim_asymm_v5,2020.2.10,Win32,60,61025ae37ef11b136ea224fe,,,,,,,,,3906,-22.99999237,41.9999707,1,0,0,response7disk,,0,3.400008023,8.399970198,1,0,0,rectangle,3.400008023,8.399970198,1,0,0,3.400008023,8.399970198,1,0,0,0,134,134,75,1,,,,,,,,
,,,,,,,,,,,,,FF,,,,,,,,0.9824,,,,,,,,,,,,,,,,,,,,,,6102fa60aae1a0c56b0c30a5,61036c1c966093412b5d231e,2021-07-29_23h04.23.165,Simcolourproject_2stim_asymm_v5,2020.2.10,Win32,60,61025ae37ef11b136ea224fe,,,,,,,,,1298,-62.99999297,13.19999468,1,0,0,response7disk,,1,-2.199992061,-8.400005639,1,0,0,rectangle,-2.199992061,-8.400005639,1,0,0,-2.199992061,-8.400005639,1,0,0,0,135,135,2,1,,,,,,,,
,,,,,,,,,,,,,FF,,,,,,,,1.35,,,,,,,,,,,,,,,,,,,,,,6102fa60aae1a0c56b0c30a5,61036c1c966093412b5d231e,2021-07-29_23h04.23.165,Simcolourproject_2stim_asymm_v5,2020.2.10,Win32,60,61025ae37ef11b136ea224fe,,,,,,,,,1848,46.60005749,45.99997076,1,0,0,response1disk,,6,-7.799992144,-6.000030017,1,0,0,rectangle,-7.799992144,-6.000030017,1,0,0,-7.799992144,-6.000030017,1,0,0,0,136,136,41,1,,,,,,,,
,,,,,,,,,,,,,FF,,,,,,,,0.7368,,,,,,,,,,,,,,,,,,,,,,6102fa60aae1a0c56b0c30a5,61036c1c966093412b5d231e,2021-07-29_23h04.23.165,Simcolourproject_2stim_asymm_v5,2020.2.10,Win32,60,61025ae37ef11b136ea224fe,,,,,,,,,1175,75.4000091,35.59999502,1,0,0,response1disk,,6,-2.999992073,5.199994564,1,0,0,rectangle,-2.999992073,5.199994564,1,0,0,-2.999992073,5.199994564,1,0,0,0,137,137,52,1,,,,,,,,
,,,,,,,,,,,,,FF,,,,,,,,1.5044,,,,,,,,,,,,,,,,,,,,,,6102fa60aae1a0c56b0c30a5,61036c1c966093412b5d231e,2021-07-29_23h04.23.165,Simcolourproject_2stim_asymm_v5,2020.2.10,Win32,60,61025ae37ef11b136ea224fe,,,,,,,,,3691,75.4000091,-25.20000589,1,0,0,response3disk,,5,-3.799992085,9.199994624,1,0,0,rectangle,-3.799992085,9.199994624,1,0,0,-3.799992085,9.199994624,1,0,0,0,138,138,84,1,,,,,,,,
,,,,,,,,,,,,,FF,,,,,,,,0.8167,,,,,,,,,,,,,,,,,,,,,,6102fa60aae1a0c56b0c30a5,61036c1c966093412b5d231e,2021-07-29_23h04.23.165,Simcolourproject_2stim_asymm_v5,2020.2.10,Win32,60,61025ae37ef11b136ea224fe,,,,,,,,,2575,67.40000898,19.59999478,1,0,0,response1disk,,6,8.200008094,-6.800005615,1,0,0,rectangle,8.200008094,-6.800005615,1,0,0,8.200008094,-6.800005615,1,0,0,0,139,139,28,1,,,,,,,,
,,,,,,,,,,,,,FF,,,,,,,,0.6827,,,,,,,,,,,,,,,,,,,,,,6102fa60aae1a0c56b0c30a5,61036c1c966093412b5d231e,2021-07-29_23h04.23.165,Simcolourproject_2stim_asymm_v5,2020.2.10,Win32,60,61025ae37ef11b136ea224fe,,,,,,,,,206,53.00000876,39.59999508,1,0,0,response1disk,,6,1.000007987,6.799994588,1,0,0,rectangle,1.000007987,6.799994588,1,0,0,1.000007987,6.799994588,1,0,0,0,140,140,6,1,,,,,,,,
,,,,,,,,,,,,,FF,,,,,,,,1.1668,,,,,,,,,,,,,,,,,,,,,,6102fa60aae1a0c56b0c30a5,61036c1c966093412b5d231e,2021-07-29_23h04.23.165,Simcolourproject_2stim_asymm_v5,2020.2.10,Win32,60,61025ae37ef11b136ea224fe,,,,,,,,,3771,37.80000854,-46.0000062,1,0,0,response3disk,,4,-8.599992156,-0.400005519,1,0,0,rectangle,-8.599992156,-0.400005519,1,0,0,-8.599992156,-0.400005519,1,0,0,0,141,141,79,1,,,,,,,,
,,,,,,,,,,,,,FF,,,,,,,,0.8839,,,,,,,,,,,,,,,,,,,,,,6102fa60aae1a0c56b0c30a5,61036c1c966093412b5d231e,2021-07-29_23h04.23.165,Simcolourproject_2stim_asymm_v5,2020.2.10,Win32,60,61025ae37ef11b136ea224fe,,,,,,,,,1354,49.0000087,19.59999478,1,0,0,response1disk,,6,7.400008082,6.799994588,1,0,0,rectangle,7.400008082,6.799994588,1,0,0,7.400008082,6.799994588,1,0,0,0,142,142,124,1,,,,,,,,
,,,,,,,,,,,,,FF,,,,,,,,1.2321,,,,,,,,,,,,,,,,,,,,,,6102fa60aae1a0c56b0c30a5,61036c1c966093412b5d231e,2021-07-29_23h04.23.165,Simcolourproject_2stim_asymm_v5,2020.2.10,Win32,60,61025ae37ef11b136ea224fe,,,,,,,,,1059,50.60005755,-23.60003028,1,0,0,response3disk,,5,3.400008023,-6.800005615,1,0,0,rectangle,3.400008023,-6.800005615,1,0,0,3.400008023,-6.800005615,1,0,0,0,143,143,69,1,,,,,,,,
,,,,,,,,,,,,,FF,,,,,,,,0.9179,,,,,,,,,,,,,,,,,,,,,,6102fa60aae1a0c56b0c30a5,61036c1c966093412b5d231e,2021-07-29_23h04.23.165,Simcolourproject_2stim_asymm_v5,2020.2.10,Win32,60,61025ae37ef11b136ea224fe,,,,,,,,,2136,66.60005779,24.39997044,1,0,0,response1disk,,6,0.200007975,-10.00003008,1,0,0,rectangle,0.200007975,-10.00003008,1,0,0,0.200007975,-10.00003008,1,0,0,0,144,144,130,1,,,,,,,,
,,,,,,,,,,,,,FF,,,,,,,,0.9292,,,,,,,,,,,,,,,,,,,,,,6102fa60aae1a0c56b0c30a5,61036c1c966093412b5d231e,2021-07-29_23h04.23.165,Simcolourproject_2stim_asymm_v5,2020.2.10,Win32,60,61025ae37ef11b136ea224fe,,,,,,,,,3022,47.40000868,17.19999474,1,0,0,response1disk,,6,-2.999992073,0.399970078,1,0,0,rectangle,-2.999992073,0.399970078,1,0,0,-2.999992073,0.399970078,1,0,0,0,145,145,90,1,,,,,,,,
,,,,,,,,,,,,,FF,,,,,,,,1.1479,,,,,,,,,,,,,,,,,,,,,,6102fa60aae1a0c56b0c30a5,61036c1c966093412b5d231e,2021-07-29_23h04.23.165,Simcolourproject_2stim_asymm_v5,2020.2.10,Win32,60,61025ae37ef11b136ea224fe,,,,,,,,,1483,56.20000881,-33.20000601,1,0,0,response3disk,,5,7.400008082,-3.600029981,1,0,0,rectangle,7.400008082,-3.600029981,1,0,0,7.400008082,-3.600029981,1,0,0,0,146,146,53,1,,,,,,,,
,,,,,,,,,,,,,FF,,,,,,,,0.697,,,,,,,,,,,,,,,,,,,,,,6102fa60aae1a0c56b0c30a5,61036c1c966093412b5d231e,2021-07-29_23h04.23.165,Simcolourproject_2stim_asymm_v5,2020.2.10,Win32,60,61025ae37ef11b136ea224fe,,,,,,,,,1410,56.20000881,-29.20000595,1,0,0,response3disk,,5,10.60005696,-2.800005555,1,0,0,rectangle,10.60005696,-2.800005555,1,0,0,10.60005696,-2.800005555,1,0,0,0,147,147,72,1,,,,,,,,
,,,,,,,,,,,,,FF,,,,,,,,0.6022,,,,,,,,,,,,,,,,,,,,,,6102fa60aae1a0c56b0c30a5,61036c1c966093412b5d231e,2021-07-29_23h04.23.165,Simcolourproject_2stim_asymm_v5,2020.2.10,Win32,60,61025ae37ef11b136ea224fe,,,,,,,,,2049,49.0000087,-38.00003049,1,0,0,response3disk,,5,0.200007975,0.399970078,1,0,0,rectangle,0.200007975,0.399970078,1,0,0,0.200007975,0.399970078,1,0,0,0,148,148,107,1,,,,,,,,
,,,,,,,,,,,,,FF,,,,,,,,0.8219,,,,,,,,,,,,,,,,,,,,,,6102fa60aae1a0c56b0c30a5,61036c1c966093412b5d231e,2021-07-29_23h04.23.165,Simcolourproject_2stim_asymm_v5,2020.2.10,Win32,60,61025ae37ef11b136ea224fe,,,,,,,,,892,-29.39999247,-62.80000645,1,0,0,response5disk,,3,-2.999992073,6.799994588,1,0,0,rectangle,-2.999992073,6.799994588,1,0,0,-2.999992073,6.799994588,1,0,0,0,149,149,38,1,,,,,,,,
,,,,,,,,,,,,,FF,,,,,,,,1.0505,,,,,,,,,,,,,,,,,,,,,,6102fa60aae1a0c56b0c30a5,61036c1c966093412b5d231e,2021-07-29_23h04.23.165,Simcolourproject_2stim_asymm_v5,2020.2.10,Win32,60,61025ae37ef11b136ea224fe,,,,,,,,,740,-41.39999264,-55.60000634,1,0,0,response5disk,,3,-10.99999219,1.199994504,1,0,0,rectangle,-10.99999219,1.199994504,1,0,0,-10.99999219,1.199994504,1,0,0,0,150,150,63,1,,,,,,,,
,,,,,,,,,,,,,FF,,,,,,,,0.8841,,,,,,,,,,,,,,,,,,,,,,6102fa60aae1a0c56b0c30a5,61036c1c966093412b5d231e,2021-07-29_23h04.23.165,Simcolourproject_2stim_asymm_v5,2020.2.10,Win32,60,61025ae37ef11b136ea224fe,,,,,,,,,2828,-60.59999293,-28.40000594,1,0,0,response5disk,,2,-12.59999222,1.999970102,1,0,0,rectangle,-12.59999222,1.999970102,1,0,0,-12.59999222,1.999970102,1,0,0,0,151,151,8,1,,,,,,,,
,,,,,,,,,,,,,FF,,,,,,,,0.834,,,,,,,,,,,,,,,,,,,,,,6102fa60aae1a0c56b0c30a5,61036c1c966093412b5d231e,2021-07-29_23h04.23.165,Simcolourproject_2stim_asymm_v5,2020.2.10,Win32,60,61025ae37ef11b136ea224fe,,,,,,,,,63,-22.99999237,-45.20000619,1,0,0,response5disk,,3,-4.599992096,1.199994504,1,0,0,rectangle,-4.599992096,1.199994504,1,0,0,-4.599992096,1.199994504,1,0,0,0,152,152,37,1,,,,,,,,
,,,,,,,,,,,,,FF,,,,,,,,0.9565,,,,,,,,,,,,,,,,,,,,,,6102fa60aae1a0c56b0c30a5,61036c1c966093412b5d231e,2021-07-29_23h04.23.165,Simcolourproject_2stim_asymm_v5,2020.2.10,Win32,60,61025ae37ef11b136ea224fe,,,,,,,,,3408,71.40000904,37.19999504,1,0,0,response1disk,,6,-15.79999226,9.999970222,1,0,0,rectangle,-15.79999226,9.999970222,1,0,0,-15.79999226,9.999970222,1,0,0,0,153,153,97,1,,,,,,,,
,,,,,,,,,,,,,FF,,,,,,,,0.8333,,,,,,,,,,,,,,,,,,,,,,6102fa60aae1a0c56b0c30a5,61036c1c966093412b5d231e,2021-07-29_23h04.23.165,Simcolourproject_2stim_asymm_v5,2020.2.10,Win32,60,61025ae37ef11b136ea224fe,,,,,,,,,429,35.4000085,-45.20000619,1,0,0,response3disk,,4,0.200007975,-14.00003014,1,0,0,rectangle,0.200007975,-14.00003014,1,0,0,0.200007975,-14.00003014,1,0,0,0,154,154,10,1,,,,,,,,
,,,,,,,,,,,,,FF,,,,,,,,0.9341,,,,,,,,,,,,,,,,,,,,,,6102fa60aae1a0c56b0c30a5,61036c1c966093412b5d231e,2021-07-29_23h04.23.165,Simcolourproject_2stim_asymm_v5,2020.2.10,Win32,60,61025ae37ef11b136ea224fe,,,,,,,,,3842,-29.39999247,-30.80000597,1,0,0,response5disk,,3,11.40000814,1.999970102,1,0,0,rectangle,11.40000814,1.999970102,1,0,0,11.40000814,1.999970102,1,0,0,0,155,155,110,1,,,,,,,,
,,,,,,,,,,,,,FF,,,,,,,,0.7351,,,,,,,,,,,,,,,,,,,,,,6102fa60aae1a0c56b0c30a5,61036c1c966093412b5d231e,2021-07-29_23h04.23.165,Simcolourproject_2stim_asymm_v5,2020.2.10,Win32,60,61025ae37ef11b136ea224fe,,,,,,,,,2354,-25.39999241,-45.20000619,1,0,0,response5disk,,3,12.20000815,-3.600029981,1,0,0,rectangle,12.20000815,-3.600029981,1,0,0,12.20000815,-3.600029981,1,0,0,0,156,156,98,1,,,,,,,,
,,,,,,,,,,,,,FF,,,,,,,,0.8678,,,,,,,,,,,,,,,,,,,,,,6102fa60aae1a0c56b0c30a5,61036c1c966093412b5d231e,2021-07-29_23h04.23.165,Simcolourproject_2stim_asymm_v5,2020.2.10,Win32,60,61025ae37ef11b136ea224fe,,,,,,,,,1336,-31.7999925,-54.00000632,1,0,0,response5disk,,3,1.800007999,2.799994528,1,0,0,rectangle,34.60005732,67.59999549,1,0,0,2.600056839,0.399970078,1,0,0,0,157,157,145,1,,response1disk_3,TRUE,7,7,"[41,277,215,279,77,158,281,283,307,118,24,103,240,241,11,300,86,189,191,307]",1.523,rectangle
,,,,,,,,,,,,,FF,,,,,,,,0.8718,,,,,,,,,,,,,,,,,,,,,,6102fa60aae1a0c56b0c30a5,61036c1c966093412b5d231e,2021-07-29_23h04.23.165,Simcolourproject_2stim_asymm_v5,2020.2.10,Win32,60,61025ae37ef11b136ea224fe,,,,,,,,,1254,38.60005738,-26.80000591,1,0,0,response3disk,,5,13.80000818,-6.000030017,1,0,0,rectangle,13.80000818,-6.000030017,1,0,0,13.80000818,-6.000030017,1,0,0,0,158,158,82,1,,,,,,,,
,,,,,,,,,,,,,FF,,,,,,,,0.9395,,,,,,,,,,,,,,,,,,,,,,6102fa60aae1a0c56b0c30a5,61036c1c966093412b5d231e,2021-07-29_23h04.23.165,Simcolourproject_2stim_asymm_v5,2020.2.10,Win32,60,61025ae37ef11b136ea224fe,,,,,,,,,735,30.60005726,-50.80000627,1,0,0,response3disk,,4,3.400008023,-6.000030017,1,0,0,rectangle,3.400008023,-6.000030017,1,0,0,3.400008023,-6.000030017,1,0,0,0,159,159,104,1,,,,,,,,
,,,,,,,,,,,,,FF,,,,,,,,1.0503,,,,,,,,,,,,,,,,,,,,,,6102fa60aae1a0c56b0c30a5,61036c1c966093412b5d231e,2021-07-29_23h04.23.165,Simcolourproject_2stim_asymm_v5,2020.2.10,Win32,60,61025ae37ef11b136ea224fe,,,,,,,,,2409,-25.39999241,-46.80000621,1,0,0,response5disk,,3,-0.599992037,1.199994504,1,0,0,rectangle,-0.599992037,1.199994504,1,0,0,-0.599992037,1.199994504,1,0,0,1,0,160,12,1,,,,,,,,
,,,,,,,,,,,,,FF,,,,,,,,0.6627,,,,,,,,,,,,,,,,,,,,,,6102fa60aae1a0c56b0c30a5,61036c1c966093412b5d231e,2021-07-29_23h04.23.165,Simcolourproject_2stim_asymm_v5,2020.2.10,Win32,60,61025ae37ef11b136ea224fe,,,,,,,,,1353,40.20000857,21.1999948,1,0,0,response1disk,,6,-7.799992144,-2.800005555,1,0,0,rectangle,-7.799992144,-2.800005555,1,0,0,-7.799992144,-2.800005555,1,0,0,1,1,161,107,1,,,,,,,,
,,,,,,,,,,,,,FF,,,,,,,,0.6671,,,,,,,,,,,,,,,,,,,,,,6102fa60aae1a0c56b0c30a5,61036c1c966093412b5d231e,2021-07-29_23h04.23.165,Simcolourproject_2stim_asymm_v5,2020.2.10,Win32,60,61025ae37ef11b136ea224fe,,,,,,,,,2662,-62.19999295,21.9999704,1,0,0,response7disk,,1,-1.399943221,-4.400005579,1,0,0,rectangle,-1.399943221,-4.400005579,1,0,0,-1.399943221,-4.400005579,1,0,0,1,2,162,145,1,,,,,,,,
,,,,,,,,,,,,,FF,,,,,,,,0.9219,,,,,,,,,,,,,,,,,,,,,,6102fa60aae1a0c56b0c30a5,61036c1c966093412b5d231e,2021-07-29_23h04.23.165,Simcolourproject_2stim_asymm_v5,2020.2.10,Win32,60,61025ae37ef11b136ea224fe,,,,,,,,,3922,-27.79999244,-46.80000621,1,0,0,response5disk,,3,-9.39994334,-10.80000567,1,0,0,rectangle,-9.39994334,-10.80000567,1,0,0,-9.39994334,-10.80000567,1,0,0,1,3,163,136,1,,,,,,,,
,,,,,,,,,,,,,FF,,,,,,,,1.0512,,,,,,,,,,,,,,,,,,,,,,6102fa60aae1a0c56b0c30a5,61036c1c966093412b5d231e,2021-07-29_23h04.23.165,Simcolourproject_2stim_asymm_v5,2020.2.10,Win32,60,61025ae37ef11b136ea224fe,,,,,,,,,1230,-30.99999249,-46.80000621,1,0,0,response5disk,,3,0.200007975,-9.200005651,1,0,0,rectangle,0.200007975,-9.200005651,1,0,0,0.200007975,-9.200005651,1,0,0,1,4,164,138,1,,,,,,,,
,,,,,,,,,,,,,FF,,,,,,,,0.7111,,,,,,,,,,,,,,,,,,,,,,6102fa60aae1a0c56b0c30a5,61036c1c966093412b5d231e,2021-07-29_23h04.23.165,Simcolourproject_2stim_asymm_v5,2020.2.10,Win32,60,61025ae37ef11b136ea224fe,,,,,,,,,1009,50.60005755,30.79999495,1,0,0,response1disk,,6,-1.399943221,3.59999454,1,0,0,rectangle,-1.399943221,3.59999454,1,0,0,-1.399943221,3.59999454,1,0,0,1,5,165,51,1,,,,,,,,
,,,,,,,,,,,,,FF,,,,,,,,1.016,,,,,,,,,,,,,,,,,,,,,,6102fa60aae1a0c56b0c30a5,61036c1c966093412b5d231e,2021-07-29_23h04.23.165,Simcolourproject_2stim_asymm_v5,2020.2.10,Win32,60,61025ae37ef11b136ea224fe,,,,,,,,,4323,-27.79999244,-53.20000631,1,0,0,response5disk,,3,4.200008035,1.199994504,1,0,0,rectangle,4.200008035,1.199994504,1,0,0,4.200008035,1.199994504,1,0,0,1,6,166,66,1,,,,,,,,
,,,,,,,,,,,,,FF,,,,,,,,1.2486,,,,,,,,,,,,,,,,,,,,,,6102fa60aae1a0c56b0c30a5,61036c1c966093412b5d231e,2021-07-29_23h04.23.165,Simcolourproject_2stim_asymm_v5,2020.2.10,Win32,60,61025ae37ef11b136ea224fe,,,,,,,,,2651,-67.79999304,-15.60003016,1,0,0,response5disk,,2,2.600056839,-4.400005579,1,0,0,rectangle,2.600056839,-4.400005579,1,0,0,2.600056839,-4.400005579,1,0,0,1,7,167,135,1,,,,,,,,
,,,,,,,,,,,,,FF,,,,,,,,0.6666,,,,,,,,,,,,,,,,,,,,,,6102fa60aae1a0c56b0c30a5,61036c1c966093412b5d231e,2021-07-29_23h04.23.165,Simcolourproject_2stim_asymm_v5,2020.2.10,Win32,60,61025ae37ef11b136ea224fe,,,,,,,,,1016,37.00000852,-21.20000583,1,0,0,response3disk,,5,8.200008094,-6.800005615,1,0,0,rectangle,8.200008094,-6.800005615,1,0,0,8.200008094,-6.800005615,1,0,0,1,8,168,151,1,,,,,,,,
,,,,,,,,,,,,,FF,,,,,,,,0.9497,,,,,,,,,,,,,,,,,,,,,,6102fa60aae1a0c56b0c30a5,61036c1c966093412b5d231e,2021-07-29_23h04.23.165,Simcolourproject_2stim_asymm_v5,2020.2.10,Win32,60,61025ae37ef11b136ea224fe,,,,,,,,,4257,29.0000084,70.79999554,1,0,0,response1disk,,7,3.400008023,9.199994624,1,0,0,rectangle,3.400008023,9.199994624,1,0,0,3.400008023,9.199994624,1,0,0,1,9,169,74,1,,,,,,,,
,,,,,,,,,,,,,FF,,,,,,,,0.6835,,,,,,,,,,,,,,,,,,,,,,6102fa60aae1a0c56b0c30a5,61036c1c966093412b5d231e,2021-07-29_23h04.23.165,Simcolourproject_2stim_asymm_v5,2020.2.10,Win32,60,61025ae37ef11b136ea224fe,,,,,,,,,3936,-24.59999239,41.9999707,1,0,0,response7disk,,0,1.000007987,5.199994564,1,0,0,rectangle,1.000007987,5.199994564,1,0,0,1.000007987,5.199994564,1,0,0,1,10,170,123,1,,,,,,,,
,,,,,,,,,,,,,FF,,,,,,,,0.8498,,,,,,,,,,,,,,,,,,,,,,6102fa60aae1a0c56b0c30a5,61036c1c966093412b5d231e,2021-07-29_23h04.23.165,Simcolourproject_2stim_asymm_v5,2020.2.10,Win32,60,61025ae37ef11b136ea224fe,,,,,,,,,2289,-47.79999274,-23.60003028,1,0,0,response5disk,,2,0.200007975,-7.600030041,1,0,0,rectangle,0.200007975,-7.600030041,1,0,0,0.200007975,-7.600030041,1,0,0,1,11,171,5,1,,,,,,,,
,,,,,,,,,,,,,FF,,,,,,,,0.6341,,,,,,,,,,,,,,,,,,,,,,6102fa60aae1a0c56b0c30a5,61036c1c966093412b5d231e,2021-07-29_23h04.23.165,Simcolourproject_2stim_asymm_v5,2020.2.10,Win32,60,61025ae37ef11b136ea224fe,,,,,,,,,41,49.0000087,23.59999484,1,0,0,response1disk,,6,-2.999992073,-7.600030041,1,0,0,rectangle,-2.999992073,-7.600030041,1,0,0,-2.999992073,-7.600030041,1,0,0,1,12,172,112,1,,,,,,,,
,,,,,,,,,,,,,FF,,,,,,,,0.9388,,,,,,,,,,,,,,,,,,,,,,6102fa60aae1a0c56b0c30a5,61036c1c966093412b5d231e,2021-07-29_23h04.23.165,Simcolourproject_2stim_asymm_v5,2020.2.10,Win32,60,61025ae37ef11b136ea224fe,,,,,,,,,3521,-31.7999925,-32.400006,1,0,0,response5disk,,3,4.200008035,-9.200005651,1,0,0,rectangle,4.200008035,-9.200005651,1,0,0,4.200008035,-9.200005651,1,0,0,1,13,173,38,1,,,,,,,,
,,,,,,,,,,,,,FF,,,,,,,,0.6339,,,,,,,,,,,,,,,,,,,,,,6102fa60aae1a0c56b0c30a5,61036c1c966093412b5d231e,2021-07-29_23h04.23.165,Simcolourproject_2stim_asymm_v5,2020.2.10,Win32,60,61025ae37ef11b136ea224fe,,,,,,,,,1098,47.40000868,-27.60003034,1,0,0,response3disk,,5,24.20000833,-8.400005639,1,0,0,rectangle,24.20000833,-8.400005639,1,0,0,24.20000833,-8.400005639,1,0,0,1,14,174,96,1,,,,,,,,
,,,,,,,,,,,,,FF,,,,,,,,0.7339,,,,,,,,,,,,,,,,,,,,,,6102fa60aae1a0c56b0c30a5,61036c1c966093412b5d231e,2021-07-29_23h04.23.165,Simcolourproject_2stim_asymm_v5,2020.2.10,Win32,60,61025ae37ef11b136ea224fe,,,,,,,,,1652,31.40000844,69.99997112,1,0,0,response1disk,,7,-6.19999212,7.5999946,1,0,0,rectangle,-6.19999212,7.5999946,1,0,0,-6.19999212,7.5999946,1,0,0,1,15,175,130,1,,,,,,,,
,,,,,,,,,,,,,FF,,,,,,,,1.1007,,,,,,,,,,,,,,,,,,,,,,6102fa60aae1a0c56b0c30a5,61036c1c966093412b5d231e,2021-07-29_23h04.23.165,Simcolourproject_2stim_asymm_v5,2020.2.10,Win32,60,61025ae37ef11b136ea224fe,,,,,,,,,603,21.8000083,-40.40000612,1,0,0,response3disk,,4,-6.999992132,-1.200005531,1,0,0,rectangle,-6.999992132,-1.200005531,1,0,0,-6.999992132,-1.200005531,1,0,0,1,16,176,42,1,,,,,,,,
,,,,,,,,,,,,,FF,,,,,,,,0.7001,,,,,,,,,,,,,,,,,,,,,,6102fa60aae1a0c56b0c30a5,61036c1c966093412b5d231e,2021-07-29_23h04.23.165,Simcolourproject_2stim_asymm_v5,2020.2.10,Win32,60,61025ae37ef11b136ea224fe,,,,,,,,,1602,-38.99999261,-55.60000634,1,0,0,response5disk,,3,-13.3999434,2.799994528,1,0,0,rectangle,-13.3999434,2.799994528,1,0,0,-13.3999434,2.799994528,1,0,0,1,17,177,97,1,,,,,,,,
,,,,,,,,,,,,,FF,,,,,,,,1.0563,,,,,,,,,,,,,,,,,,,,,,6102fa60aae1a0c56b0c30a5,61036c1c966093412b5d231e,2021-07-29_23h04.23.165,Simcolourproject_2stim_asymm_v5,2020.2.10,Win32,60,61025ae37ef11b136ea224fe,,,,,,,,,773,37.00000852,-47.60000622,1,0,0,response3disk,,4,8.200008094,-7.600030041,1,0,0,rectangle,8.200008094,-7.600030041,1,0,0,8.200008094,-7.600030041,1,0,0,1,18,178,111,1,,,,,,,,
,,,,,,,,,,,,,FF,,,,,,,,0.6832,,,,,,,,,,,,,,,,,,,,,,6102fa60aae1a0c56b0c30a5,61036c1c966093412b5d231e,2021-07-29_23h04.23.165,Simcolourproject_2stim_asymm_v5,2020.2.10,Win32,60,61025ae37ef11b136ea224fe,,,,,,,,,888,-64.59999299,-31.6000304,1,0,0,response5disk,,2,-10.99999219,0.399970078,1,0,0,rectangle,-10.99999219,0.399970078,1,0,0,-10.99999219,0.399970078,1,0,0,1,19,179,23,1,,,,,,,,
,,,,,,,,,,,,,FF,,,,,,,,8.2182,,,,,,,,,,,,,,,,,,,,,,6102fa60aae1a0c56b0c30a5,61036c1c966093412b5d231e,2021-07-29_23h04.23.165,Simcolourproject_2stim_asymm_v5,2020.2.10,Win32,60,61025ae37ef11b136ea224fe,,,,,,,,,2002,16.20000821,-63.60000646,1,0,0,response3disk,,4,1.000007987,12.39997026,1,0,0,rectangle,1.000007987,12.39997026,1,0,0,1.000007987,12.39997026,1,0,0,1,20,180,30,1,,,,,,,,
,,,,,,,,,,,,,FF,,,,,,,,1.8189,,,,,,,,,,,,,,,,,,,,,,6102fa60aae1a0c56b0c30a5,61036c1c966093412b5d231e,2021-07-29_23h04.23.165,Simcolourproject_2stim_asymm_v5,2020.2.10,Win32,60,61025ae37ef11b136ea224fe,,,,,,,,,550,-58.99999291,-18.80000579,1,0,0,response5disk,,2,-3.799992085,1.999970102,1,0,0,rectangle,-3.799992085,1.999970102,1,0,0,-3.799992085,1.999970102,1,0,0,1,21,181,143,1,,,,,,,,
,,,,,,,,,,,,,FF,,,,,,,,1.2503,,,,,,,,,,,,,,,,,,,,,,6102fa60aae1a0c56b0c30a5,61036c1c966093412b5d231e,2021-07-29_23h04.23.165,Simcolourproject_2stim_asymm_v5,2020.2.10,Win32,60,61025ae37ef11b136ea224fe,,,,,,,,,1258,70.60005785,-45.20000619,1,0,0,response3disk,,5,8.200008094,-9.200005651,1,0,0,rectangle,8.200008094,-9.200005651,1,0,0,8.200008094,-9.200005651,1,0,0,1,22,182,40,1,,,,,,,,
,,,,,,,,,,,,,FF,,,,,,,,0.8672,,,,,,,,,,,,,,,,,,,,,,6102fa60aae1a0c56b0c30a5,61036c1c966093412b5d231e,2021-07-29_23h04.23.165,Simcolourproject_2stim_asymm_v5,2020.2.10,Win32,60,61025ae37ef11b136ea224fe,,,,,,,,,2807,64.20000893,24.39997044,1,0,0,response1disk,,6,1.000007987,7.5999946,1,0,0,rectangle,1.000007987,7.5999946,1,0,0,1.000007987,7.5999946,1,0,0,1,23,183,77,1,,,,,,,,
,,,,,,,,,,,,,FF,,,,,,,,0.8341,,,,,,,,,,,,,,,,,,,,,,6102fa60aae1a0c56b0c30a5,61036c1c966093412b5d231e,2021-07-29_23h04.23.165,Simcolourproject_2stim_asymm_v5,2020.2.10,Win32,60,61025ae37ef11b136ea224fe,,,,,,,,,2989,-20.59999233,-54.80000633,1,0,0,response5disk,,3,1.800007999,1.999970102,1,0,0,rectangle,1.800007999,1.999970102,1,0,0,1.800007999,1.999970102,1,0,0,1,24,184,102,1,,,,,,,,
,,,,,,,,,,,,,FF,,,,,,,,0.7669,,,,,,,,,,,,,,,,,,,,,,6102fa60aae1a0c56b0c30a5,61036c1c966093412b5d231e,2021-07-29_23h04.23.165,Simcolourproject_2stim_asymm_v5,2020.2.10,Win32,60,61025ae37ef11b136ea224fe,,,,,,,,,3832,38.60005738,-47.60000622,1,0,0,response3disk,,4,17.00000823,1.999970102,1,0,0,rectangle,17.00000823,1.999970102,1,0,0,17.00000823,1.999970102,1,0,0,1,25,185,117,1,,,,,,,,
,,,,,,,,,,,,,FF,,,,,,,,0.8844,,,,,,,,,,,,,,,,,,,,,,6102fa60aae1a0c56b0c30a5,61036c1c966093412b5d231e,2021-07-29_23h04.23.165,Simcolourproject_2stim_asymm_v5,2020.2.10,Win32,60,61025ae37ef11b136ea224fe,,,,,,,,,1565,69.80000901,-29.20000595,1,0,0,response3disk,,5,-2.199992061,7.5999946,1,0,0,rectangle,-2.199992061,7.5999946,1,0,0,-2.199992061,7.5999946,1,0,0,1,26,186,9,1,,,,,,,,
,,,,,,,,,,,,,FF,,,,,,,,0.9841,,,,,,,,,,,,,,,,,,,,,,6102fa60aae1a0c56b0c30a5,61036c1c966093412b5d231e,2021-07-29_23h04.23.165,Simcolourproject_2stim_asymm_v5,2020.2.10,Win32,60,61025ae37ef11b136ea224fe,,,,,,,,,3988,47.40000868,20.39997038,1,0,0,response1disk,,6,10.60005696,-8.400005639,1,0,0,rectangle,10.60005696,-8.400005639,1,0,0,10.60005696,-8.400005639,1,0,0,1,27,187,14,1,,,,,,,,
,,,,,,,,,,,,,FF,,,,,,,,0.7178,,,,,,,,,,,,,,,,,,,,,,6102fa60aae1a0c56b0c30a5,61036c1c966093412b5d231e,2021-07-29_23h04.23.165,Simcolourproject_2stim_asymm_v5,2020.2.10,Win32,60,61025ae37ef11b136ea224fe,,,,,,,,,3893,58.60005767,-19.60003022,1,0,0,response3disk,,5,-6.999992132,5.199994564,1,0,0,rectangle,-65.399993,18.79999477,1,0,0,-10.19999218,0.399970078,1,0,0,1,28,188,76,1,,response7disk_3,TRUE,1,1,"[41,277,215,279,77,158,281,283,307,118,24,103,240,241,11,300,86,189,191,307]",1.5,rectangle
,,,,,,,,,,,,,FF,,,,,,,,2.3001,,,,,,,,,,,,,,,,,,,,,,6102fa60aae1a0c56b0c30a5,61036c1c966093412b5d231e,2021-07-29_23h04.23.165,Simcolourproject_2stim_asymm_v5,2020.2.10,Win32,60,61025ae37ef11b136ea224fe,,,,,,,,,4123,-21.39994352,-69.20000654,1,0,0,response5disk,,3,0.200007975,-2.000029957,1,0,0,rectangle,0.200007975,-2.000029957,1,0,0,0.200007975,-2.000029957,1,0,0,1,29,189,89,1,,,,,,,,
,,,,,,,,,,,,,FF,,,,,,,,0.638,,,,,,,,,,,,,,,,,,,,,,6102fa60aae1a0c56b0c30a5,61036c1c966093412b5d231e,2021-07-29_23h04.23.165,Simcolourproject_2stim_asymm_v5,2020.2.10,Win32,60,61025ae37ef11b136ea224fe,,,,,,,,,3770,29.0000084,-49.20000625,1,0,0,response3disk,,4,0.200007975,-4.400005579,1,0,0,rectangle,77.80000913,-48.40000623,1,0,0,14.60005702,3.59999454,1,0,0,1,30,190,90,1,,response3disk_3,TRUE,5,5,"[41,277,215,279,77,158,281,283,307,118,24,103,240,241,11,300,86,189,191,307]",1.8893,rectangle
,,,,,,,,,,,,,FF,,,,,,,,1.217,,,,,,,,,,,,,,,,,,,,,,6102fa60aae1a0c56b0c30a5,61036c1c966093412b5d231e,2021-07-29_23h04.23.165,Simcolourproject_2stim_asymm_v5,2020.2.10,Win32,60,61025ae37ef11b136ea224fe,,,,,,,,,3882,-86.19999331,-31.6000304,1,0,0,response5disk,,2,-10.19999218,5.199994564,1,0,0,rectangle,-10.19999218,5.199994564,1,0,0,-10.19999218,5.199994564,1,0,0,1,31,191,158,1,,,,,,,,
,,,,,,,,,,,,,FF,,,,,,,,0.8831,,,,,,,,,,,,,,,,,,,,,,6102fa60aae1a0c56b0c30a5,61036c1c966093412b5d231e,2021-07-29_23h04.23.165,Simcolourproject_2stim_asymm_v5,2020.2.10,Win32,60,61025ae37ef11b136ea224fe,,,,,,,,,4089,25.00000834,-52.40000629,1,0,0,response3disk,,4,-13.3999434,-4.400005579,1,0,0,rectangle,-13.3999434,-4.400005579,1,0,0,-13.3999434,-4.400005579,1,0,0,1,32,192,125,1,,,,,,,,
,,,,,,,,,,,,,FF,,,,,,,,0.7343,,,,,,,,,,,,,,,,,,,,,,6102fa60aae1a0c56b0c30a5,61036c1c966093412b5d231e,2021-07-29_23h04.23.165,Simcolourproject_2stim_asymm_v5,2020.2.10,Win32,60,61025ae37ef11b136ea224fe,,,,,,,,,1275,72.20000905,-21.20000583,1,0,0,response3disk,,5,-4.599992096,11.59999466,1,0,0,rectangle,-4.599992096,11.59999466,1,0,0,-4.599992096,11.59999466,1,0,0,1,33,193,144,1,,,,,,,,
,,,,,,,,,,,,,FF,,,,,,,,0.7218,,,,,,,,,,,,,,,,,,,,,,6102fa60aae1a0c56b0c30a5,61036c1c966093412b5d231e,2021-07-29_23h04.23.165,Simcolourproject_2stim_asymm_v5,2020.2.10,Win32,60,61025ae37ef11b136ea224fe,,,,,,,,,2184,53.80000877,25.19999486,1,0,0,response1disk,,6,-5.39994328,-6.000030017,1,0,0,rectangle,-5.39994328,-6.000030017,1,0,0,-5.39994328,-6.000030017,1,0,0,1,34,194,36,1,,,,,,,,
,,,,,,,,,,,,,FF,,,,,,,,0.7384,,,,,,,,,,,,,,,,,,,,,,6102fa60aae1a0c56b0c30a5,61036c1c966093412b5d231e,2021-07-29_23h04.23.165,Simcolourproject_2stim_asymm_v5,2020.2.10,Win32,60,61025ae37ef11b136ea224fe,,,,,,,,,3795,49.80000871,-33.20000601,1,0,0,response3disk,,5,-2.999992073,-9.200005651,1,0,0,rectangle,-2.999992073,-9.200005651,1,0,0,-2.999992073,-9.200005651,1,0,0,1,35,195,8,1,,,,,,,,
,,,,,,,,,,,,,FF,,,,,,,,0.6509,,,,,,,,,,,,,,,,,,,,,,6102fa60aae1a0c56b0c30a5,61036c1c966093412b5d231e,2021-07-29_23h04.23.165,Simcolourproject_2stim_asymm_v5,2020.2.10,Win32,60,61025ae37ef11b136ea224fe,,,,,,,,,2104,-34.19999254,-52.40000629,1,0,0,response5disk,,3,0.200007975,-3.600029981,1,0,0,rectangle,0.200007975,-3.600029981,1,0,0,0.200007975,-3.600029981,1,0,0,1,36,196,106,1,,,,,,,,
,,,,,,,,,,,,,FF,,,,,,,,0.5829,,,,,,,,,,,,,,,,,,,,,,6102fa60aae1a0c56b0c30a5,61036c1c966093412b5d231e,2021-07-29_23h04.23.165,Simcolourproject_2stim_asymm_v5,2020.2.10,Win32,60,61025ae37ef11b136ea224fe,,,,,,,,,3801,27.40000838,59.59999537,1,0,0,response1disk,,7,-6.999992132,-4.400005579,1,0,0,rectangle,-6.999992132,-4.400005579,1,0,0,-6.999992132,-4.400005579,1,0,0,1,37,197,46,1,,,,,,,,
,,,,,,,,,,,,,FF,,,,,,,,0.6844,,,,,,,,,,,,,,,,,,,,,,6102fa60aae1a0c56b0c30a5,61036c1c966093412b5d231e,2021-07-29_23h04.23.165,Simcolourproject_2stim_asymm_v5,2020.2.10,Win32,60,61025ae37ef11b136ea224fe,,,,,,,,,2051,25.80000836,-39.6000061,1,0,0,response3disk,,4,5.800008059,-3.600029981,1,0,0,rectangle,5.800008059,-3.600029981,1,0,0,5.800008059,-3.600029981,1,0,0,1,38,198,70,1,,,,,,,,
,,,,,,,,,,,,,FF,,,,,,,,0.6168,,,,,,,,,,,,,,,,,,,,,,6102fa60aae1a0c56b0c30a5,61036c1c966093412b5d231e,2021-07-29_23h04.23.165,Simcolourproject_2stim_asymm_v5,2020.2.10,Win32,60,61025ae37ef11b136ea224fe,,,,,,,,,458,-35.79999256,-64.4000553,1,0,0,response5disk,,3,-3.799992085,1.199994504,1,0,0,rectangle,-3.799992085,1.199994504,1,0,0,-3.799992085,1.199994504,1,0,0,1,39,199,129,1,,,,,,,,
,,,,,,,,,,,,,FF,,,,,,,,0.6498,,,,,,,,,,,,,,,,,,,,,,6102fa60aae1a0c56b0c30a5,61036c1c966093412b5d231e,2021-07-29_23h04.23.165,Simcolourproject_2stim_asymm_v5,2020.2.10,Win32,60,61025ae37ef11b136ea224fe,,,,,,,,,169,-72.59999311,-42.00000614,1,0,0,response5disk,,2,-5.39994328,-5.200005591,1,0,0,rectangle,-5.39994328,-5.200005591,1,0,0,-5.39994328,-5.200005591,1,0,0,1,40,200,86,1,,,,,,,,
,,,,,,,,,,,,,FF,,,,,,,,1.087,,,,,,,,,,,,,,,,,,,,,,6102fa60aae1a0c56b0c30a5,61036c1c966093412b5d231e,2021-07-29_23h04.23.165,Simcolourproject_2stim_asymm_v5,2020.2.10,Win32,60,61025ae37ef11b136ea224fe,,,,,,,,,2757,35.4000085,53.99997088,1,0,0,response1disk,,7,6.600056899,5.999970162,1,0,0,rectangle,6.600056899,5.999970162,1,0,0,6.600056899,5.999970162,1,0,0,1,41,201,88,1,,,,,,,,
,,,,,,,,,,,,,FF,,,,,,,,1.216,,,,,,,,,,,,,,,,,,,,,,6102fa60aae1a0c56b0c30a5,61036c1c966093412b5d231e,2021-07-29_23h04.23.165,Simcolourproject_2stim_asymm_v5,2020.2.10,Win32,60,61025ae37ef11b136ea224fe,,,,,,,,,4238,37.80000854,-45.20000619,1,0,0,response3disk,,4,9.800008118,12.39997026,1,0,0,rectangle,9.800008118,12.39997026,1,0,0,9.800008118,12.39997026,1,0,0,1,42,202,91,1,,,,,,,,
,,,,,,,,,,,,,FF,,,,,,,,1.9496,,,,,,,,,,,,,,,,,,,,,,6102fa60aae1a0c56b0c30a5,61036c1c966093412b5d231e,2021-07-29_23h04.23.165,Simcolourproject_2stim_asymm_v5,2020.2.10,Win32,60,61025ae37ef11b136ea224fe,,,,,,,,,904,51.40000874,-43.60000616,1,0,0,response3disk,,5,5.800008059,5.999970162,1,0,0,rectangle,5.800008059,5.999970162,1,0,0,5.800008059,5.999970162,1,0,0,1,43,203,45,1,,,,,,,,
,,,,,,,,,,,,,FF,,,,,,,,0.883,,,,,,,,,,,,,,,,,,,,,,6102fa60aae1a0c56b0c30a5,61036c1c966093412b5d231e,2021-07-29_23h04.23.165,Simcolourproject_2stim_asymm_v5,2020.2.10,Win32,60,61025ae37ef11b136ea224fe,,,,,,,,,2944,26.6000572,-57.20000637,1,0,0,response3disk,,4,1.800007999,-6.800005615,1,0,0,rectangle,1.800007999,-6.800005615,1,0,0,1.800007999,-6.800005615,1,0,0,1,44,204,115,1,,,,,,,,
,,,,,,,,,,,,,FF,,,,,,,,0.569,,,,,,,,,,,,,,,,,,,,,,6102fa60aae1a0c56b0c30a5,61036c1c966093412b5d231e,2021-07-29_23h04.23.165,Simcolourproject_2stim_asymm_v5,2020.2.10,Win32,60,61025ae37ef11b136ea224fe,,,,,,,,,3048,-43.79999268,-38.80000609,1,0,0,response5disk,,2,-6.19999212,0.399970078,1,0,0,rectangle,-6.19999212,0.399970078,1,0,0,-6.19999212,0.399970078,1,0,0,1,45,205,81,1,,,,,,,,
,,,,,,,,,,,,,FF,,,,,,,,0.7046,,,,,,,,,,,,,,,,,,,,,,6102fa60aae1a0c56b0c30a5,61036c1c966093412b5d231e,2021-07-29_23h04.23.165,Simcolourproject_2stim_asymm_v5,2020.2.10,Win32,60,61025ae37ef11b136ea224fe,,,,,,,,,866,31.40000844,21.9999704,1,0,0,response1disk,,6,-3.799992085,5.199994564,1,0,0,rectangle,-3.799992085,5.199994564,1,0,0,-3.799992085,5.199994564,1,0,0,1,46,206,48,1,,,,,,,,
,,,,,,,,,,,,,FF,,,,,,,,0.7337,,,,,,,,,,,,,,,,,,,,,,6102fa60aae1a0c56b0c30a5,61036c1c966093412b5d231e,2021-07-29_23h04.23.165,Simcolourproject_2stim_asymm_v5,2020.2.10,Win32,60,61025ae37ef11b136ea224fe,,,,,,,,,1744,-57.39999288,-32.400006,1,0,0,response5disk,,2,-3.799992085,-2.800005555,1,0,0,rectangle,-3.799992085,-2.800005555,1,0,0,-3.799992085,-2.800005555,1,0,0,1,47,207,75,1,,,,,,,,
,,,,,,,,,,,,,FF,,,,,,,,1.6862,,,,,,,,,,,,,,,,,,,,,,6102fa60aae1a0c56b0c30a5,61036c1c966093412b5d231e,2021-07-29_23h04.23.165,Simcolourproject_2stim_asymm_v5,2020.2.10,Win32,60,61025ae37ef11b136ea224fe,,,,,,,,,3870,41.80000859,-66.80000651,1,0,0,response3disk,,4,1.800007999,-1.200005531,1,0,0,rectangle,1.800007999,-1.200005531,1,0,0,1.800007999,-1.200005531,1,0,0,1,48,208,95,1,,,,,,,,
,,,,,,,,,,,,,FF,,,,,,,,0.6518,,,,,,,,,,,,,,,,,,,,,,6102fa60aae1a0c56b0c30a5,61036c1c966093412b5d231e,2021-07-29_23h04.23.165,Simcolourproject_2stim_asymm_v5,2020.2.10,Win32,60,61025ae37ef11b136ea224fe,,,,,,,,,1450,-22.99999237,-50.00000626,1,0,0,response5disk,,3,-5.39994328,-9.200005651,1,0,0,rectangle,-5.39994328,-9.200005651,1,0,0,-5.39994328,-9.200005651,1,0,0,1,49,209,59,1,,,,,,,,
,,,,,,,,,,,,,FF,,,,,,,,0.6881,,,,,,,,,,,,,,,,,,,,,,6102fa60aae1a0c56b0c30a5,61036c1c966093412b5d231e,2021-07-29_23h04.23.165,Simcolourproject_2stim_asymm_v5,2020.2.10,Win32,60,61025ae37ef11b136ea224fe,,,,,,,,,1963,-33.39999253,50.79999524,1,0,0,response7disk,,0,-3.799992085,7.5999946,1,0,0,rectangle,-3.799992085,7.5999946,1,0,0,-3.799992085,7.5999946,1,0,0,1,50,210,69,1,,,,,,,,
,,,,,,,,,,,,,FF,,,,,,,,0.6903,,,,,,,,,,,,,,,,,,,,,,6102fa60aae1a0c56b0c30a5,61036c1c966093412b5d231e,2021-07-29_23h04.23.165,Simcolourproject_2stim_asymm_v5,2020.2.10,Win32,60,61025ae37ef11b136ea224fe,,,,,,,,,593,38.60005738,-18.80000579,1,0,0,response3disk,,5,13.00000817,-4.400005579,1,0,0,rectangle,13.00000817,-4.400005579,1,0,0,13.00000817,-4.400005579,1,0,0,1,51,211,55,1,,,,,,,,
,,,,,,,,,,,,,FF,,,,,,,,0.8999,,,,,,,,,,,,,,,,,,,,,,6102fa60aae1a0c56b0c30a5,61036c1c966093412b5d231e,2021-07-29_23h04.23.165,Simcolourproject_2stim_asymm_v5,2020.2.10,Win32,60,61025ae37ef11b136ea224fe,,,,,,,,,2867,58.60005767,18.79999477,1,0,0,response1disk,,6,2.600056839,-2.800005555,1,0,0,rectangle,2.600056839,-2.800005555,1,0,0,2.600056839,-2.800005555,1,0,0,1,52,212,142,1,,,,,,,,
,,,,,,,,,,,,,FF,,,,,,,,0.939,,,,,,,,,,,,,,,,,,,,,,6102fa60aae1a0c56b0c30a5,61036c1c966093412b5d231e,2021-07-29_23h04.23.165,Simcolourproject_2stim_asymm_v5,2020.2.10,Win32,60,61025ae37ef11b136ea224fe,,,,,,,,,4263,49.0000087,32.39997056,1,0,0,response1disk,,6,2.600056839,12.39997026,1,0,0,rectangle,2.600056839,12.39997026,1,0,0,2.600056839,12.39997026,1,0,0,1,53,213,72,1,,,,,,,,
,,,,,,,,,,,,,FF,,,,,,,,0.9838,,,,,,,,,,,,,,,,,,,,,,6102fa60aae1a0c56b0c30a5,61036c1c966093412b5d231e,2021-07-29_23h04.23.165,Simcolourproject_2stim_asymm_v5,2020.2.10,Win32,60,61025ae37ef11b136ea224fe,,,,,,,,,2930,29.80000842,44.39997073,1,0,0,response1disk,,7,-4.599992096,-4.400005579,1,0,0,rectangle,-77.39999318,27.5999949,1,0,0,1.000007987,-9.200005651,1,0,0,1,54,214,65,1,,response7disk_3,TRUE,1,1,"[41,277,215,279,77,158,281,283,307,118,24,103,240,241,11,300,86,189,191,307]",1.2325,rectangle
,,,,,,,,,,,,,FF,,,,,,,,1.1397,,,,,,,,,,,,,,,,,,,,,,6102fa60aae1a0c56b0c30a5,61036c1c966093412b5d231e,2021-07-29_23h04.23.165,Simcolourproject_2stim_asymm_v5,2020.2.10,Win32,60,61025ae37ef11b136ea224fe,,,,,,,,,4324,60.20000887,21.9999704,1,0,0,response1disk,,6,-4.599992096,0.399970078,1,0,0,rectangle,-4.599992096,0.399970078,1,0,0,-4.599992096,0.399970078,1,0,0,1,55,215,98,1,,,,,,,,
,,,,,,,,,,,,,FF,,,,,,,,1.0173,,,,,,,,,,,,,,,,,,,,,,6102fa60aae1a0c56b0c30a5,61036c1c966093412b5d231e,2021-07-29_23h04.23.165,Simcolourproject_2stim_asymm_v5,2020.2.10,Win32,60,61025ae37ef11b136ea224fe,,,,,,,,,1392,-18.1999923,-54.00000632,1,0,0,response5disk,,3,-2.999992073,-11.6000301,1,0,0,rectangle,-2.999992073,-11.6000301,1,0,0,-2.999992073,-11.6000301,1,0,0,1,56,216,114,1,,,,,,,,
,,,,,,,,,,,,,FF,,,,,,,,1.5501,,,,,,,,,,,,,,,,,,,,,,6102fa60aae1a0c56b0c30a5,61036c1c966093412b5d231e,2021-07-29_23h04.23.165,Simcolourproject_2stim_asymm_v5,2020.2.10,Win32,60,61025ae37ef11b136ea224fe,,,,,,,,,158,51.40000874,-38.00003049,1,0,0,response3disk,,5,4.200008035,-6.800005615,1,0,0,rectangle,4.200008035,-6.800005615,1,0,0,4.200008035,-6.800005615,1,0,0,1,57,217,99,1,,,,,,,,
,,,,,,,,,,,,,FF,,,,,,,,0.6895,,,,,,,,,,,,,,,,,,,,,,6102fa60aae1a0c56b0c30a5,61036c1c966093412b5d231e,2021-07-29_23h04.23.165,Simcolourproject_2stim_asymm_v5,2020.2.10,Win32,60,61025ae37ef11b136ea224fe,,,,,,,,,781,46.60005749,-22.00003026,1,0,0,response3disk,,5,9.000008106,-0.400005519,1,0,0,rectangle,9.000008106,-0.400005519,1,0,0,9.000008106,-0.400005519,1,0,0,1,58,218,108,1,,,,,,,,
,,,,,,,,,,,,,FF,,,,,,,,0.7837,,,,,,,,,,,,,,,,,,,,,,6102fa60aae1a0c56b0c30a5,61036c1c966093412b5d231e,2021-07-29_23h04.23.165,Simcolourproject_2stim_asymm_v5,2020.2.10,Win32,60,61025ae37ef11b136ea224fe,,,,,,,,,2325,52.20000875,25.99997046,1,0,0,response1disk,,6,-2.999992073,5.199994564,1,0,0,rectangle,-2.999992073,5.199994564,1,0,0,-2.999992073,5.199994564,1,0,0,1,59,219,101,1,,,,,,,,
,,,,,,,,,,,,,FF,,,,,,,,1.3822,,,,,,,,,,,,,,,,,,,,,,6102fa60aae1a0c56b0c30a5,61036c1c966093412b5d231e,2021-07-29_23h04.23.165,Simcolourproject_2stim_asymm_v5,2020.2.10,Win32,60,61025ae37ef11b136ea224fe,,,,,,,,,902,-26.19999242,-42.80000615,1,0,0,response5disk,,3,-8.599992156,-7.600030041,1,0,0,rectangle,-8.599992156,-7.600030041,1,0,0,-8.599992156,-7.600030041,1,0,0,1,60,220,153,1,,,,,,,,
,,,,,,,,,,,,,FF,,,,,,,,1.0177,,,,,,,,,,,,,,,,,,,,,,6102fa60aae1a0c56b0c30a5,61036c1c966093412b5d231e,2021-07-29_23h04.23.165,Simcolourproject_2stim_asymm_v5,2020.2.10,Win32,60,61025ae37ef11b136ea224fe,,,,,,,,,3297,-23.79999238,-53.20000631,1,0,0,response5disk,,3,-5.39994328,-6.000030017,1,0,0,rectangle,-5.39994328,-6.000030017,1,0,0,-5.39994328,-6.000030017,1,0,0,1,61,221,32,1,,,,,,,,
,,,,,,,,,,,,,FF,,,,,,,,1.7056,,,,,,,,,,,,,,,,,,,,,,6102fa60aae1a0c56b0c30a5,61036c1c966093412b5d231e,2021-07-29_23h04.23.165,Simcolourproject_2stim_asymm_v5,2020.2.10,Win32,60,61025ae37ef11b136ea224fe,,,,,,,,,2927,41.00000858,48.39997079,1,0,0,response1disk,,7,-25.39999241,4.399970138,1,0,0,rectangle,-25.39999241,4.399970138,1,0,0,-25.39999241,4.399970138,1,0,0,1,62,222,120,1,,,,,,,,
,,,,,,,,,,,,,FF,,,,,,,,1.1331,,,,,,,,,,,,,,,,,,,,,,6102fa60aae1a0c56b0c30a5,61036c1c966093412b5d231e,2021-07-29_23h04.23.165,Simcolourproject_2stim_asymm_v5,2020.2.10,Win32,60,61025ae37ef11b136ea224fe,,,,,,,,,3937,-48.59999275,21.9999704,1,0,0,response7disk,,1,8.200008094,-2.800005555,1,0,0,rectangle,8.200008094,-2.800005555,1,0,0,8.200008094,-2.800005555,1,0,0,1,63,223,6,1,,,,,,,,
,,,,,,,,,,,,,FF,,,,,,,,0.6727,,,,,,,,,,,,,,,,,,,,,,6102fa60aae1a0c56b0c30a5,61036c1c966093412b5d231e,2021-07-29_23h04.23.165,Simcolourproject_2stim_asymm_v5,2020.2.10,Win32,60,61025ae37ef11b136ea224fe,,,,,,,,,1653,53.00000876,-22.00003026,1,0,0,response3disk,,5,-0.599992037,-3.600029981,1,0,0,rectangle,-0.599992037,-3.600029981,1,0,0,-0.599992037,-3.600029981,1,0,0,1,64,224,52,1,,,,,,,,
,,,,,,,,,,,,,FF,,,,,,,,0.9864,,,,,,,,,,,,,,,,,,,,,,6102fa60aae1a0c56b0c30a5,61036c1c966093412b5d231e,2021-07-29_23h04.23.165,Simcolourproject_2stim_asymm_v5,2020.2.10,Win32,60,61025ae37ef11b136ea224fe,,,,,,,,,2706,41.80000859,26.79999489,1,0,0,response1disk,,6,5.000008047,1.999970102,1,0,0,rectangle,5.000008047,1.999970102,1,0,0,5.000008047,1.999970102,1,0,0,1,65,225,147,1,,,,,,,,
,,,,,,,,,,,,,FF,,,,,,,,0.8199,,,,,,,,,,,,,,,,,,,,,,6102fa60aae1a0c56b0c30a5,61036c1c966093412b5d231e,2021-07-29_23h04.23.165,Simcolourproject_2stim_asymm_v5,2020.2.10,Win32,60,61025ae37ef11b136ea224fe,,,,,,,,,2608,-62.19999295,17.19999474,1,0,0,response7disk,,1,-19.79999232,1.999970102,1,0,0,rectangle,-19.79999232,1.999970102,1,0,0,-19.79999232,1.999970102,1,0,0,1,66,226,50,1,,,,,,,,
,,,,,,,,,,,,,FF,,,,,,,,0.9355,,,,,,,,,,,,,,,,,,,,,,6102fa60aae1a0c56b0c30a5,61036c1c966093412b5d231e,2021-07-29_23h04.23.165,Simcolourproject_2stim_asymm_v5,2020.2.10,Win32,60,61025ae37ef11b136ea224fe,,,,,,,,,2084,-51.7999928,-34.00003043,1,0,0,response5disk,,2,-9.39994334,-9.200005651,1,0,0,rectangle,-9.39994334,-9.200005651,1,0,0,-9.39994334,-9.200005651,1,0,0,1,67,227,47,1,,,,,,,,
,,,,,,,,,,,,,FF,,,,,,,,0.9458,,,,,,,,,,,,,,,,,,,,,,6102fa60aae1a0c56b0c30a5,61036c1c966093412b5d231e,2021-07-29_23h04.23.165,Simcolourproject_2stim_asymm_v5,2020.2.10,Win32,60,61025ae37ef11b136ea224fe,,,,,,,,,4198,55.4000088,40.39997067,1,0,0,response1disk,,6,-9.39994334,1.199994504,1,0,0,rectangle,-9.39994334,1.199994504,1,0,0,-9.39994334,1.199994504,1,0,0,1,68,228,39,1,,,,,,,,
,,,,,,,,,,,,,FF,,,,,,,,0.6839,,,,,,,,,,,,,,,,,,,,,,6102fa60aae1a0c56b0c30a5,61036c1c966093412b5d231e,2021-07-29_23h04.23.165,Simcolourproject_2stim_asymm_v5,2020.2.10,Win32,60,61025ae37ef11b136ea224fe,,,,,,,,,2011,36.20000851,-38.80000609,1,0,0,response3disk,,4,3.400008023,-6.800005615,1,0,0,rectangle,3.400008023,-6.800005615,1,0,0,3.400008023,-6.800005615,1,0,0,1,69,229,133,1,,,,,,,,
,,,,,,,,,,,,,FF,,,,,,,,0.8862,,,,,,,,,,,,,,,,,,,,,,6102fa60aae1a0c56b0c30a5,61036c1c966093412b5d231e,2021-07-29_23h04.23.165,Simcolourproject_2stim_asymm_v5,2020.2.10,Win32,60,61025ae37ef11b136ea224fe,,,,,,,,,3725,69.80000901,19.59999478,1,0,0,response1disk,,6,1.000007987,6.799994588,1,0,0,rectangle,1.000007987,6.799994588,1,0,0,1.000007987,6.799994588,1,0,0,1,70,230,149,1,,,,,,,,
,,,,,,,,,,,,,FF,,,,,,,,0.8719,,,,,,,,,,,,,,,,,,,,,,6102fa60aae1a0c56b0c30a5,61036c1c966093412b5d231e,2021-07-29_23h04.23.165,Simcolourproject_2stim_asymm_v5,2020.2.10,Win32,60,61025ae37ef11b136ea224fe,,,,,,,,,1794,49.0000087,-19.60003022,1,0,0,response3disk,,5,1.000007987,-2.800005555,1,0,0,rectangle,1.000007987,-2.800005555,1,0,0,1.000007987,-2.800005555,1,0,0,1,71,231,146,1,,,,,,,,
,,,,,,,,,,,,,FF,,,,,,,,1.0338,,,,,,,,,,,,,,,,,,,,,,6102fa60aae1a0c56b0c30a5,61036c1c966093412b5d231e,2021-07-29_23h04.23.165,Simcolourproject_2stim_asymm_v5,2020.2.10,Win32,60,61025ae37ef11b136ea224fe,,,,,,,,,4100,-20.59999233,-35.60003046,1,0,0,response5disk,,3,-6.999992132,-5.200005591,1,0,0,rectangle,-6.999992132,-5.200005591,1,0,0,-6.999992132,-5.200005591,1,0,0,1,72,232,60,1,,,,,,,,
,,,,,,,,,,,,,FF,,,,,,,,0.73,,,,,,,,,,,,,,,,,,,,,,6102fa60aae1a0c56b0c30a5,61036c1c966093412b5d231e,2021-07-29_23h04.23.165,Simcolourproject_2stim_asymm_v5,2020.2.10,Win32,60,61025ae37ef11b136ea224fe,,,,,,,,,417,60.20000887,21.9999704,1,0,0,response1disk,,6,9.800008118,-12.4000057,1,0,0,rectangle,9.800008118,-12.4000057,1,0,0,9.800008118,-12.4000057,1,0,0,1,73,233,110,1,,,,,,,,
,,,,,,,,,,,,,FF,,,,,,,,1.2006,,,,,,,,,,,,,,,,,,,,,,6102fa60aae1a0c56b0c30a5,61036c1c966093412b5d231e,2021-07-29_23h04.23.165,Simcolourproject_2stim_asymm_v5,2020.2.10,Win32,60,61025ae37ef11b136ea224fe,,,,,,,,,2800,19.40000826,-63.60000646,1,0,0,response3disk,,4,-5.39994328,1.199994504,1,0,0,rectangle,-5.39994328,1.199994504,1,0,0,-5.39994328,1.199994504,1,0,0,1,74,234,127,1,,,,,,,,
,,,,,,,,,,,,,FF,,,,,,,,0.7005,,,,,,,,,,,,,,,,,,,,,,6102fa60aae1a0c56b0c30a5,61036c1c966093412b5d231e,2021-07-29_23h04.23.165,Simcolourproject_2stim_asymm_v5,2020.2.10,Win32,60,61025ae37ef11b136ea224fe,,,,,,,,,454,34.60005732,-23.60003028,1,0,0,response3disk,,5,3.400008023,-4.400005579,1,0,0,rectangle,3.400008023,-4.400005579,1,0,0,3.400008023,-4.400005579,1,0,0,1,75,235,156,1,,,,,,,,
,,,,,,,,,,,,,FF,,,,,,,,0.5646,,,,,,,,,,,,,,,,,,,,,,6102fa60aae1a0c56b0c30a5,61036c1c966093412b5d231e,2021-07-29_23h04.23.165,Simcolourproject_2stim_asymm_v5,2020.2.10,Win32,60,61025ae37ef11b136ea224fe,,,,,,,,,598,41.00000858,13.19999468,1,0,0,response1disk,,6,-2.199992061,-4.400005579,1,0,0,rectangle,-2.199992061,-4.400005579,1,0,0,-2.199992061,-4.400005579,1,0,0,1,76,236,57,1,,,,,,,,
,,,,,,,,,,,,,FF,,,,,,,,0.7338,,,,,,,,,,,,,,,,,,,,,,6102fa60aae1a0c56b0c30a5,61036c1c966093412b5d231e,2021-07-29_23h04.23.165,Simcolourproject_2stim_asymm_v5,2020.2.10,Win32,60,61025ae37ef11b136ea224fe,,,,,,,,,858,48.20000869,-22.80000585,1,0,0,response3disk,,5,-3.799992085,-5.200005591,1,0,0,rectangle,-3.799992085,-5.200005591,1,0,0,-3.799992085,-5.200005591,1,0,0,1,77,237,100,1,,,,,,,,
,,,,,,,,,,,,,FF,,,,,,,,0.832,,,,,,,,,,,,,,,,,,,,,,6102fa60aae1a0c56b0c30a5,61036c1c966093412b5d231e,2021-07-29_23h04.23.165,Simcolourproject_2stim_asymm_v5,2020.2.10,Win32,60,61025ae37ef11b136ea224fe,,,,,,,,,4199,49.80000871,25.19999486,1,0,0,response1disk,,6,-4.599992096,1.199994504,1,0,0,rectangle,-4.599992096,1.199994504,1,0,0,-4.599992096,1.199994504,1,0,0,1,78,238,1,1,,,,,,,,
,,,,,,,,,,,,,FF,,,,,,,,0.7504,,,,,,,,,,,,,,,,,,,,,,6102fa60aae1a0c56b0c30a5,61036c1c966093412b5d231e,2021-07-29_23h04.23.165,Simcolourproject_2stim_asymm_v5,2020.2.10,Win32,60,61025ae37ef11b136ea224fe,,,,,,,,,2993,-38.1999926,58.79999536,1,0,0,response7disk,,0,6.600056899,-2.000029957,1,0,0,rectangle,27.40000838,-51.60000628,1,0,0,0.200007975,11.59999466,1,0,0,1,79,239,109,1,,response3disk_3,TRUE,4,4,"[41,277,215,279,77,158,281,283,307,118,24,103,240,241,11,300,86,189,191,307]",1.3333,rectangle
,,,,,,,,,,,,,FF,,,,,,,,1.6837,,,,,,,,,,,,,,,,,,,,,,6102fa60aae1a0c56b0c30a5,61036c1c966093412b5d231e,2021-07-29_23h04.23.165,Simcolourproject_2stim_asymm_v5,2020.2.10,Win32,60,61025ae37ef11b136ea224fe,,,,,,,,,1206,74.60005791,25.99997046,1,0,0,response1disk,,6,7.400008082,-1.200005531,1,0,0,rectangle,-73.39999312,-30.00003037,1,0,0,-9.39994334,-11.6000301,1,0,0,1,80,240,2,1,,response5disk_3,TRUE,2,2,"[41,277,215,279,77,158,281,283,307,118,24,103,240,241,11,300,86,189,191,307]",1.4536,rectangle
,,,,,,,,,,,,,FF,,,,,,,,1.1007,,,,,,,,,,,,,,,,,,,,,,6102fa60aae1a0c56b0c30a5,61036c1c966093412b5d231e,2021-07-29_23h04.23.165,Simcolourproject_2stim_asymm_v5,2020.2.10,Win32,60,61025ae37ef11b136ea224fe,,,,,,,,,695,61.80000889,-30.00003037,1,0,0,response3disk,,5,11.40000814,3.59999454,1,0,0,rectangle,11.40000814,3.59999454,1,0,0,11.40000814,3.59999454,1,0,0,1,81,241,152,1,,,,,,,,
,,,,,,,,,,,,,FF,,,,,,,,1.8346,,,,,,,,,,,,,,,,,,,,,,6102fa60aae1a0c56b0c30a5,61036c1c966093412b5d231e,2021-07-29_23h04.23.165,Simcolourproject_2stim_asymm_v5,2020.2.10,Win32,60,61025ae37ef11b136ea224fe,,,,,,,,,3802,56.20000881,21.9999704,1,0,0,response1disk,,6,8.200008094,-4.400005579,1,0,0,rectangle,8.200008094,-4.400005579,1,0,0,8.200008094,-4.400005579,1,0,0,1,82,242,18,1,,,,,,,,
,,,,,,,,,,,,,FF,,,,,,,,0.7714,,,,,,,,,,,,,,,,,,,,,,6102fa60aae1a0c56b0c30a5,61036c1c966093412b5d231e,2021-07-29_23h04.23.165,Simcolourproject_2stim_asymm_v5,2020.2.10,Win32,60,61025ae37ef11b136ea224fe,,,,,,,,,270,65.80000895,41.1999951,1,0,0,response1disk,,6,8.200008094,5.999970162,1,0,0,rectangle,8.200008094,5.999970162,1,0,0,8.200008094,5.999970162,1,0,0,1,83,243,131,1,,,,,,,,
