key_resp.keys,key_resp.rt,key_resp_14.keys,key_resp_14.rt,key_resp_15.keys,key_resp_15.rt,key_resp_17.keys,key_resp_17.rt,key_resp_9.keys,key_resp_9.rt,key_resp_10.keys,key_resp_10.rt,practice_comparison,Ecc,mouse_5.x,mouse_5.y,mouse_5.leftButton,mouse_5.midButton,mouse_5.rightButton,mouse_5.clicked_name,pracsimilarity,response_time,mouse_10.x,mouse_10.y,mouse_10.leftButton,mouse_10.midButton,mouse_10.rightButton,mouse_10.clicked_name,mouse_7.x,mouse_7.y,mouse_7.leftButton,mouse_7.midButton,mouse_7.rightButton,mouse_6.x,mouse_6.y,mouse_6.leftButton,mouse_6.midButton,mouse_6.rightButton,duringprac.thisRepN,duringprac.thisTrialN,duringprac.thisN,duringprac.thisIndex,duringprac.ran,participant,session,date,expName,psychopyVersion,OS,frameRate,study_id,mouse_7.clicked_name,catchpracsimilarity,catch_response_time,catchnumberprac,catchtrialorderprac,mouse_6.clicked_name,key_resp_22.keys,key_resp_22.rt,realcomparison,mouse.x,mouse.y,mouse.leftButton,mouse.midButton,mouse.rightButton,mouse.clicked_name,Colour2,similarity,mouse_2.x,mouse_2.y,mouse_2.leftButton,mouse_2.midButton,mouse_2.rightButton,mouse_2.clicked_name,mouse_3.x,mouse_3.y,mouse_3.leftButton,mouse_3.midButton,mouse_3.rightButton,mouse_11.x,mouse_11.y,mouse_11.leftButton,mouse_11.midButton,mouse_11.rightButton,trials_2.thisRepN,trials_2.thisTrialN,trials_2.thisN,trials_2.thisIndex,trials_2.ran,Colour1,mouse_3.clicked_name,catchornah,catchsimilarity,catchnumber,catchtrialorder,catchRT,mouse_11.clicked_name
space,1.388,space,2.663,space,25.801,space,18.209,space,3.29,space,4.897,83,PF,50,-92,1,0,0,response3disk_5,4,6.986,6,-1,1,0,0,rectangle_8,6,-1,1,0,0,6,-1,1,0,0,0,0,0,4,1,6102fab304462811ad2fc5c5,61036e223336c5504ee15566,2021-07-29_20h13.33.030,Simcolourproject_2stim_asymm_v5,2020.2.10,MacIntel,60,61025ae37ef11b136ea224fe,,,,,,,,,,,,,,,,,,,,,,,,,,,,,,,,,,,,,,,,,,,,,,
,,,,,,,,,,,,155,FF,50,68,1,0,0,response1disk_5,7,3.633,18,5,1,0,0,rectangle_8,-47,110,1,0,0,0,-4,1,0,0,0,1,1,5,1,6102fab304462811ad2fc5c5,61036e223336c5504ee15566,2021-07-29_20h13.33.030,Simcolourproject_2stim_asymm_v5,2020.2.10,MacIntel,60,61025ae37ef11b136ea224fe,response7disk_7,0,2.617,0,"[2,5]",rectangle_4,,,,,,,,,,,,,,,,,,,,,,,,,,,,,,,,,,,,,,,,
,,,,,,,,,,,,118,PF,47,98,1,0,0,response1disk_5,7,2.982,5,-1,1,0,0,rectangle_8,5,-1,1,0,0,5,-1,1,0,0,0,2,2,2,1,6102fab304462811ad2fc5c5,61036e223336c5504ee15566,2021-07-29_20h13.33.030,Simcolourproject_2stim_asymm_v5,2020.2.10,MacIntel,60,61025ae37ef11b136ea224fe,,,,,,,,,,,,,,,,,,,,,,,,,,,,,,,,,,,,,,,,,,,,,,
,,,,,,,,,,,,127,PF,47,82,1,0,0,response1disk_5,7,1.717,-1,-12,1,0,0,rectangle_8,-1,-12,1,0,0,-1,-12,1,0,0,0,3,3,1,1,6102fab304462811ad2fc5c5,61036e223336c5504ee15566,2021-07-29_20h13.33.030,Simcolourproject_2stim_asymm_v5,2020.2.10,MacIntel,60,61025ae37ef11b136ea224fe,,,,,,,,,,,,,,,,,,,,,,,,,,,,,,,,,,,,,,,,,,,,,,
,,,,,,,,,,,,76,FF,71,-56,1,0,0,response3disk_5,5,3.166,15,-2,1,0,0,rectangle_8,-38,112,1,0,0,-4,3,1,0,0,0,4,4,0,1,6102fab304462811ad2fc5c5,61036e223336c5504ee15566,2021-07-29_20h13.33.030,Simcolourproject_2stim_asymm_v5,2020.2.10,MacIntel,60,61025ae37ef11b136ea224fe,response7disk_7,0,2.683,0,"[2,5]",rectangle_4,,,,,,,,,,,,,,,,,,,,,,,,,,,,,,,,,,,,,,,,
,,,,,,,,,,,,97,PF,103,48,1,0,0,response1disk_5,6,3.232,-10,-7,1,0,0,rectangle_8,-10,-7,1,0,0,-10,-7,1,0,0,0,5,5,6,1,6102fab304462811ad2fc5c5,61036e223336c5504ee15566,2021-07-29_20h13.33.030,Simcolourproject_2stim_asymm_v5,2020.2.10,MacIntel,60,61025ae37ef11b136ea224fe,,,,,,,,,,,,,,,,,,,,,,,,,,,,,,,,,,,,,,,,,,,,,,
,,,,,,,,,,,,114,FF,-83,-57,1,0,0,response5disk_5,2,4.717,-1,-1,1,0,0,rectangle_8,-1,-1,1,0,0,-1,-1,1,0,0,0,6,6,3,1,6102fab304462811ad2fc5c5,61036e223336c5504ee15566,2021-07-29_20h13.33.030,Simcolourproject_2stim_asymm_v5,2020.2.10,MacIntel,60,61025ae37ef11b136ea224fe,,,,,,,,,,,,,,,,,,,,,,,,,,,,,,,,,,,,,,,,,,,,,,
,,,,,,,,,,,,,FF,,,,,,,,1.932,,,,,,,,,,,,,,,,,,,,,,6102fab304462811ad2fc5c5,61036e223336c5504ee15566,2021-07-29_20h13.33.030,Simcolourproject_2stim_asymm_v5,2020.2.10,MacIntel,60,61025ae37ef11b136ea224fe,,,,,,,space,3.25,1160,86,34,1,0,0,response1disk,,6,2,-4,1,0,0,rectangle,2,-4,1,0,0,2,-4,1,0,0,0,0,0,5,1,,,,,,,,
,,,,,,,,,,,,,FF,,,,,,,,3.967,,,,,,,,,,,,,,,,,,,,,,6102fab304462811ad2fc5c5,61036e223336c5504ee15566,2021-07-29_20h13.33.030,Simcolourproject_2stim_asymm_v5,2020.2.10,MacIntel,60,61025ae37ef11b136ea224fe,,,,,,,,,4351,-76,44,1,0,0,response7disk,,1,5,-6,1,0,0,rectangle,5,-6,1,0,0,5,-6,1,0,0,0,1,1,129,1,,,,,,,,
,,,,,,,,,,,,,FF,,,,,,,,2.334,,,,,,,,,,,,,,,,,,,,,,6102fab304462811ad2fc5c5,61036e223336c5504ee15566,2021-07-29_20h13.33.030,Simcolourproject_2stim_asymm_v5,2020.2.10,MacIntel,60,61025ae37ef11b136ea224fe,,,,,,,,,3057,-70,22,1,0,0,response7disk,,1,0,-6,1,0,0,rectangle,0,-6,1,0,0,0,-6,1,0,0,0,2,2,111,1,,,,,,,,
,,,,,,,,,,,,,FF,,,,,,,,1.85,,,,,,,,,,,,,,,,,,,,,,6102fab304462811ad2fc5c5,61036e223336c5504ee15566,2021-07-29_20h13.33.030,Simcolourproject_2stim_asymm_v5,2020.2.10,MacIntel,60,61025ae37ef11b136ea224fe,,,,,,,,,3094,-61,-91,1,0,0,response5disk,,3,7,1,1,0,0,rectangle,7,1,1,0,0,7,1,1,0,0,0,3,3,134,1,,,,,,,,
,,,,,,,,,,,,,FF,,,,,,,,1.482,,,,,,,,,,,,,,,,,,,,,,6102fab304462811ad2fc5c5,61036e223336c5504ee15566,2021-07-29_20h13.33.030,Simcolourproject_2stim_asymm_v5,2020.2.10,MacIntel,60,61025ae37ef11b136ea224fe,,,,,,,,,1137,-81,-54,1,0,0,response5disk,,2,10,-8,1,0,0,rectangle,10,-8,1,0,0,10,-8,1,0,0,0,4,4,22,1,,,,,,,,
,,,,,,,,,,,,,FF,,,,,,,,1.035,,,,,,,,,,,,,,,,,,,,,,6102fab304462811ad2fc5c5,61036e223336c5504ee15566,2021-07-29_20h13.33.030,Simcolourproject_2stim_asymm_v5,2020.2.10,MacIntel,60,61025ae37ef11b136ea224fe,,,,,,,,,4240,-55,-77,1,0,0,response5disk,,3,1,-9,1,0,0,rectangle,1,-9,1,0,0,1,-9,1,0,0,0,5,5,149,1,,,,,,,,
,,,,,,,,,,,,,FF,,,,,,,,1.1,,,,,,,,,,,,,,,,,,,,,,6102fab304462811ad2fc5c5,61036e223336c5504ee15566,2021-07-29_20h13.33.030,Simcolourproject_2stim_asymm_v5,2020.2.10,MacIntel,60,61025ae37ef11b136ea224fe,,,,,,,,,649,-41,-65,1,0,0,response5disk,,3,3,-14,1,0,0,rectangle,3,-14,1,0,0,3,-14,1,0,0,0,6,6,18,1,,,,,,,,
,,,,,,,,,,,,,FF,,,,,,,,0.834,,,,,,,,,,,,,,,,,,,,,,6102fab304462811ad2fc5c5,61036e223336c5504ee15566,2021-07-29_20h13.33.030,Simcolourproject_2stim_asymm_v5,2020.2.10,MacIntel,60,61025ae37ef11b136ea224fe,,,,,,,,,3516,-82,40,1,0,0,response7disk,,1,4,8,1,0,0,rectangle,4,8,1,0,0,4,8,1,0,0,0,7,7,83,1,,,,,,,,
,,,,,,,,,,,,,FF,,,,,,,,1.084,,,,,,,,,,,,,,,,,,,,,,6102fab304462811ad2fc5c5,61036e223336c5504ee15566,2021-07-29_20h13.33.030,Simcolourproject_2stim_asymm_v5,2020.2.10,MacIntel,60,61025ae37ef11b136ea224fe,,,,,,,,,1402,75,-38,1,0,0,response3disk,,5,13,-4,1,0,0,rectangle,13,-4,1,0,0,13,-4,1,0,0,0,8,8,36,1,,,,,,,,
,,,,,,,,,,,,,FF,,,,,,,,1.584,,,,,,,,,,,,,,,,,,,,,,6102fab304462811ad2fc5c5,61036e223336c5504ee15566,2021-07-29_20h13.33.030,Simcolourproject_2stim_asymm_v5,2020.2.10,MacIntel,60,61025ae37ef11b136ea224fe,,,,,,,,,3590,93,34,1,0,0,response1disk,,6,12,9,1,0,0,rectangle,12,9,1,0,0,12,9,1,0,0,0,9,9,84,1,,,,,,,,
,,,,,,,,,,,,,FF,,,,,,,,0.867,,,,,,,,,,,,,,,,,,,,,,6102fab304462811ad2fc5c5,61036e223336c5504ee15566,2021-07-29_20h13.33.030,Simcolourproject_2stim_asymm_v5,2020.2.10,MacIntel,60,61025ae37ef11b136ea224fe,,,,,,,,,2156,61,28,1,0,0,response1disk,,6,-1,7,1,0,0,rectangle,-1,7,1,0,0,-1,7,1,0,0,0,10,10,108,1,,,,,,,,
,,,,,,,,,,,,,FF,,,,,,,,1.35,,,,,,,,,,,,,,,,,,,,,,6102fab304462811ad2fc5c5,61036e223336c5504ee15566,2021-07-29_20h13.33.030,Simcolourproject_2stim_asymm_v5,2020.2.10,MacIntel,60,61025ae37ef11b136ea224fe,,,,,,,,,4239,-90,-57,1,0,0,response5disk,,2,1,-11,1,0,0,rectangle,1,-11,1,0,0,1,-11,1,0,0,0,11,11,153,1,,,,,,,,
,,,,,,,,,,,,,FF,,,,,,,,1.434,,,,,,,,,,,,,,,,,,,,,,6102fab304462811ad2fc5c5,61036e223336c5504ee15566,2021-07-29_20h13.33.030,Simcolourproject_2stim_asymm_v5,2020.2.10,MacIntel,60,61025ae37ef11b136ea224fe,,,,,,,,,1814,35,-92,1,0,0,response3disk,,4,4,-9,1,0,0,rectangle,4,-9,1,0,0,4,-9,1,0,0,0,12,12,78,1,,,,,,,,
,,,,,,,,,,,,,FF,,,,,,,,1.133,,,,,,,,,,,,,,,,,,,,,,6102fab304462811ad2fc5c5,61036e223336c5504ee15566,2021-07-29_20h13.33.030,Simcolourproject_2stim_asymm_v5,2020.2.10,MacIntel,60,61025ae37ef11b136ea224fe,,,,,,,,,4316,-45,88,1,0,0,response7disk,,0,1,1,1,0,0,rectangle,1,1,1,0,0,1,1,1,0,0,0,13,13,81,1,,,,,,,,
,,,,,,,,,,,,,FF,,,,,,,,0.883,,,,,,,,,,,,,,,,,,,,,,6102fab304462811ad2fc5c5,61036e223336c5504ee15566,2021-07-29_20h13.33.030,Simcolourproject_2stim_asymm_v5,2020.2.10,MacIntel,60,61025ae37ef11b136ea224fe,,,,,,,,,2766,61,109,1,0,0,response1disk,,7,9,11,1,0,0,rectangle,9,11,1,0,0,9,11,1,0,0,0,14,14,119,1,,,,,,,,
,,,,,,,,,,,,,FF,,,,,,,,1.182,,,,,,,,,,,,,,,,,,,,,,6102fab304462811ad2fc5c5,61036e223336c5504ee15566,2021-07-29_20h13.33.030,Simcolourproject_2stim_asymm_v5,2020.2.10,MacIntel,60,61025ae37ef11b136ea224fe,,,,,,,,,2787,55,85,1,0,0,response1disk,,7,3,13,1,0,0,rectangle,3,13,1,0,0,3,13,1,0,0,0,15,15,46,1,,,,,,,,
,,,,,,,,,,,,,FF,,,,,,,,1.101,,,,,,,,,,,,,,,,,,,,,,6102fab304462811ad2fc5c5,61036e223336c5504ee15566,2021-07-29_20h13.33.030,Simcolourproject_2stim_asymm_v5,2020.2.10,MacIntel,60,61025ae37ef11b136ea224fe,,,,,,,,,2531,90,37,1,0,0,response1disk,,6,0,5,1,0,0,rectangle,0,5,1,0,0,0,5,1,0,0,0,16,16,35,1,,,,,,,,
,,,,,,,,,,,,,FF,,,,,,,,0.75,,,,,,,,,,,,,,,,,,,,,,6102fab304462811ad2fc5c5,61036e223336c5504ee15566,2021-07-29_20h13.33.030,Simcolourproject_2stim_asymm_v5,2020.2.10,MacIntel,60,61025ae37ef11b136ea224fe,,,,,,,,,1702,120,52,1,0,0,response1disk,,6,1,-3,1,0,0,rectangle,1,-3,1,0,0,1,-3,1,0,0,0,17,17,141,1,,,,,,,,
,,,,,,,,,,,,,FF,,,,,,,,0.784,,,,,,,,,,,,,,,,,,,,,,6102fab304462811ad2fc5c5,61036e223336c5504ee15566,2021-07-29_20h13.33.030,Simcolourproject_2stim_asymm_v5,2020.2.10,MacIntel,60,61025ae37ef11b136ea224fe,,,,,,,,,3405,48,77,1,0,0,response1disk,,7,3,0,1,0,0,rectangle,3,0,1,0,0,3,0,1,0,0,0,18,18,42,1,,,,,,,,
,,,,,,,,,,,,,FF,,,,,,,,1.333,,,,,,,,,,,,,,,,,,,,,,6102fab304462811ad2fc5c5,61036e223336c5504ee15566,2021-07-29_20h13.33.030,Simcolourproject_2stim_asymm_v5,2020.2.10,MacIntel,60,61025ae37ef11b136ea224fe,,,,,,,,,3138,-44,-84,1,0,0,response5disk,,3,-2,-3,1,0,0,rectangle,-2,-3,1,0,0,-2,-3,1,0,0,0,19,19,52,1,,,,,,,,
,,,,,,,,,,,,,FF,,,,,,,,0.767,,,,,,,,,,,,,,,,,,,,,,6102fab304462811ad2fc5c5,61036e223336c5504ee15566,2021-07-29_20h13.33.030,Simcolourproject_2stim_asymm_v5,2020.2.10,MacIntel,60,61025ae37ef11b136ea224fe,,,,,,,,,817,-41,-82,1,0,0,response5disk,,3,0,-5,1,0,0,rectangle,0,-5,1,0,0,0,-5,1,0,0,0,20,20,92,1,,,,,,,,
,,,,,,,,,,,,,FF,,,,,,,,0.801,,,,,,,,,,,,,,,,,,,,,,6102fab304462811ad2fc5c5,61036e223336c5504ee15566,2021-07-29_20h13.33.030,Simcolourproject_2stim_asymm_v5,2020.2.10,MacIntel,60,61025ae37ef11b136ea224fe,,,,,,,,,615,40,-79,1,0,0,response3disk,,4,0,4,1,0,0,rectangle,0,4,1,0,0,0,4,1,0,0,0,21,21,146,1,,,,,,,,
,,,,,,,,,,,,,FF,,,,,,,,1.416,,,,,,,,,,,,,,,,,,,,,,6102fab304462811ad2fc5c5,61036e223336c5504ee15566,2021-07-29_20h13.33.030,Simcolourproject_2stim_asymm_v5,2020.2.10,MacIntel,60,61025ae37ef11b136ea224fe,,,,,,,,,2573,95,46,1,0,0,response1disk,,6,26,9,1,0,0,rectangle,26,9,1,0,0,26,9,1,0,0,0,22,22,80,1,,,,,,,,
,,,,,,,,,,,,,FF,,,,,,,,1.233,,,,,,,,,,,,,,,,,,,,,,6102fab304462811ad2fc5c5,61036e223336c5504ee15566,2021-07-29_20h13.33.030,Simcolourproject_2stim_asymm_v5,2020.2.10,MacIntel,60,61025ae37ef11b136ea224fe,,,,,,,,,239,100,40,1,0,0,response1disk,,6,12,-2,1,0,0,rectangle,12,-2,1,0,0,12,-2,1,0,0,0,23,23,128,1,,,,,,,,
,,,,,,,,,,,,,FF,,,,,,,,0.7,,,,,,,,,,,,,,,,,,,,,,6102fab304462811ad2fc5c5,61036e223336c5504ee15566,2021-07-29_20h13.33.030,Simcolourproject_2stim_asymm_v5,2020.2.10,MacIntel,60,61025ae37ef11b136ea224fe,,,,,,,,,2478,101,48,1,0,0,response1disk,,6,-5,-4,1,0,0,rectangle,-5,-4,1,0,0,-5,-4,1,0,0,0,24,24,126,1,,,,,,,,
,,,,,,,,,,,,,FF,,,,,,,,0.616,,,,,,,,,,,,,,,,,,,,,,6102fab304462811ad2fc5c5,61036e223336c5504ee15566,2021-07-29_20h13.33.030,Simcolourproject_2stim_asymm_v5,2020.2.10,MacIntel,60,61025ae37ef11b136ea224fe,,,,,,,,,3728,21,102,1,0,0,response1disk,,7,7,13,1,0,0,rectangle,7,13,1,0,0,7,13,1,0,0,0,25,25,112,1,,,,,,,,
,,,,,,,,,,,,,FF,,,,,,,,1.05,,,,,,,,,,,,,,,,,,,,,,6102fab304462811ad2fc5c5,61036e223336c5504ee15566,2021-07-29_20h13.33.030,Simcolourproject_2stim_asymm_v5,2020.2.10,MacIntel,60,61025ae37ef11b136ea224fe,,,,,,,,,2832,-65,-43,1,0,0,response5disk,,2,6,5,1,0,0,rectangle,6,5,1,0,0,6,5,1,0,0,0,26,26,62,1,,,,,,,,
,,,,,,,,,,,,,FF,,,,,,,,0.733,,,,,,,,,,,,,,,,,,,,,,6102fab304462811ad2fc5c5,61036e223336c5504ee15566,2021-07-29_20h13.33.030,Simcolourproject_2stim_asymm_v5,2020.2.10,MacIntel,60,61025ae37ef11b136ea224fe,,,,,,,,,2960,83,-47,1,0,0,response3disk,,5,2,1,1,0,0,rectangle,2,1,1,0,0,2,1,1,0,0,0,27,27,96,1,,,,,,,,
,,,,,,,,,,,,,FF,,,,,,,,1,,,,,,,,,,,,,,,,,,,,,,6102fab304462811ad2fc5c5,61036e223336c5504ee15566,2021-07-29_20h13.33.030,Simcolourproject_2stim_asymm_v5,2020.2.10,MacIntel,60,61025ae37ef11b136ea224fe,,,,,,,,,1940,98,-53,1,0,0,response3disk,,5,15,11,1,0,0,rectangle,15,11,1,0,0,15,11,1,0,0,0,28,28,137,1,,,,,,,,
,,,,,,,,,,,,,FF,,,,,,,,3.35,,,,,,,,,,,,,,,,,,,,,,6102fab304462811ad2fc5c5,61036e223336c5504ee15566,2021-07-29_20h13.33.030,Simcolourproject_2stim_asymm_v5,2020.2.10,MacIntel,60,61025ae37ef11b136ea224fe,,,,,,,,,3413,86,56,1,0,0,response1disk,,6,6,1,1,0,0,rectangle,6,1,1,0,0,6,1,1,0,0,0,29,29,20,1,,,,,,,,
,,,,,,,,,,,,,FF,,,,,,,,0.684,,,,,,,,,,,,,,,,,,,,,,6102fab304462811ad2fc5c5,61036e223336c5504ee15566,2021-07-29_20h13.33.030,Simcolourproject_2stim_asymm_v5,2020.2.10,MacIntel,60,61025ae37ef11b136ea224fe,,,,,,,,,987,-20,-49,1,0,0,response5disk,,3,11,-9,1,0,0,rectangle,11,-9,1,0,0,11,-9,1,0,0,0,30,30,98,1,,,,,,,,
,,,,,,,,,,,,,FF,,,,,,,,0.7,,,,,,,,,,,,,,,,,,,,,,6102fab304462811ad2fc5c5,61036e223336c5504ee15566,2021-07-29_20h13.33.030,Simcolourproject_2stim_asymm_v5,2020.2.10,MacIntel,60,61025ae37ef11b136ea224fe,,,,,,,,,54,70,69,1,0,0,response1disk,,6,0,-12,1,0,0,rectangle,0,-12,1,0,0,0,-12,1,0,0,0,31,31,61,1,,,,,,,,
,,,,,,,,,,,,,FF,,,,,,,,1.351,,,,,,,,,,,,,,,,,,,,,,6102fab304462811ad2fc5c5,61036e223336c5504ee15566,2021-07-29_20h13.33.030,Simcolourproject_2stim_asymm_v5,2020.2.10,MacIntel,60,61025ae37ef11b136ea224fe,,,,,,,,,1697,-48,-65,1,0,0,response5disk,,3,1,-5,1,0,0,rectangle,1,-5,1,0,0,1,-5,1,0,0,0,32,32,68,1,,,,,,,,
,,,,,,,,,,,,,FF,,,,,,,,0.667,,,,,,,,,,,,,,,,,,,,,,6102fab304462811ad2fc5c5,61036e223336c5504ee15566,2021-07-29_20h13.33.030,Simcolourproject_2stim_asymm_v5,2020.2.10,MacIntel,60,61025ae37ef11b136ea224fe,,,,,,,,,1069,-40,-68,1,0,0,response5disk,,3,-19,-10,1,0,0,rectangle,-19,-10,1,0,0,-19,-10,1,0,0,0,33,33,155,1,,,,,,,,
,,,,,,,,,,,,,FF,,,,,,,,1.016,,,,,,,,,,,,,,,,,,,,,,6102fab304462811ad2fc5c5,61036e223336c5504ee15566,2021-07-29_20h13.33.030,Simcolourproject_2stim_asymm_v5,2020.2.10,MacIntel,60,61025ae37ef11b136ea224fe,,,,,,,,,1294,-80,-29,1,0,0,response5disk,,2,9,-1,1,0,0,rectangle,9,-1,1,0,0,9,-1,1,0,0,0,34,34,121,1,,,,,,,,
,,,,,,,,,,,,,FF,,,,,,,,0.652,,,,,,,,,,,,,,,,,,,,,,6102fab304462811ad2fc5c5,61036e223336c5504ee15566,2021-07-29_20h13.33.030,Simcolourproject_2stim_asymm_v5,2020.2.10,MacIntel,60,61025ae37ef11b136ea224fe,,,,,,,,,4296,60,76,1,0,0,response1disk,,7,15,14,1,0,0,rectangle,15,14,1,0,0,15,14,1,0,0,0,35,35,19,1,,,,,,,,
,,,,,,,,,,,,,FF,,,,,,,,0.835,,,,,,,,,,,,,,,,,,,,,,6102fab304462811ad2fc5c5,61036e223336c5504ee15566,2021-07-29_20h13.33.030,Simcolourproject_2stim_asymm_v5,2020.2.10,MacIntel,60,61025ae37ef11b136ea224fe,,,,,,,,,1923,36,51,1,0,0,response1disk,,7,-9,-15,1,0,0,rectangle,-9,-15,1,0,0,-9,-15,1,0,0,0,36,36,64,1,,,,,,,,
,,,,,,,,,,,,,FF,,,,,,,,1.049,,,,,,,,,,,,,,,,,,,,,,6102fab304462811ad2fc5c5,61036e223336c5504ee15566,2021-07-29_20h13.33.030,Simcolourproject_2stim_asymm_v5,2020.2.10,MacIntel,60,61025ae37ef11b136ea224fe,,,,,,,,,3002,57,-44,1,0,0,response3disk,,5,15,3,1,0,0,rectangle,38,-100,1,0,0,-4,-1,1,0,0,0,37,37,65,1,,response3disk_3,TRUE,4,4,"[83,306,116,258,133,286,54,182,38,66,68,183,106,206,207,101,110,158,99,210]",1.934,rectangle
,,,,,,,,,,,,,FF,,,,,,,,0.733,,,,,,,,,,,,,,,,,,,,,,6102fab304462811ad2fc5c5,61036e223336c5504ee15566,2021-07-29_20h13.33.030,Simcolourproject_2stim_asymm_v5,2020.2.10,MacIntel,60,61025ae37ef11b136ea224fe,,,,,,,,,3316,30,71,1,0,0,response1disk,,7,-1,12,1,0,0,rectangle,-1,12,1,0,0,-1,12,1,0,0,0,38,38,136,1,,,,,,,,
,,,,,,,,,,,,,FF,,,,,,,,0.885,,,,,,,,,,,,,,,,,,,,,,6102fab304462811ad2fc5c5,61036e223336c5504ee15566,2021-07-29_20h13.33.030,Simcolourproject_2stim_asymm_v5,2020.2.10,MacIntel,60,61025ae37ef11b136ea224fe,,,,,,,,,2362,-87,-41,1,0,0,response5disk,,2,-12,7,1,0,0,rectangle,-12,7,1,0,0,-12,7,1,0,0,0,39,39,2,1,,,,,,,,
,,,,,,,,,,,,,FF,,,,,,,,0.567,,,,,,,,,,,,,,,,,,,,,,6102fab304462811ad2fc5c5,61036e223336c5504ee15566,2021-07-29_20h13.33.030,Simcolourproject_2stim_asymm_v5,2020.2.10,MacIntel,60,61025ae37ef11b136ea224fe,,,,,,,,,1666,57,-24,1,0,0,response3disk,,5,11,-10,1,0,0,rectangle,11,-10,1,0,0,11,-10,1,0,0,0,40,40,157,1,,,,,,,,
,,,,,,,,,,,,,FF,,,,,,,,0.6,,,,,,,,,,,,,,,,,,,,,,6102fab304462811ad2fc5c5,61036e223336c5504ee15566,2021-07-29_20h13.33.030,Simcolourproject_2stim_asymm_v5,2020.2.10,MacIntel,60,61025ae37ef11b136ea224fe,,,,,,,,,1741,49,73,1,0,0,response1disk,,7,12,8,1,0,0,rectangle,12,8,1,0,0,12,8,1,0,0,0,41,41,158,1,,,,,,,,
,,,,,,,,,,,,,FF,,,,,,,,0.716,,,,,,,,,,,,,,,,,,,,,,6102fab304462811ad2fc5c5,61036e223336c5504ee15566,2021-07-29_20h13.33.030,Simcolourproject_2stim_asymm_v5,2020.2.10,MacIntel,60,61025ae37ef11b136ea224fe,,,,,,,,,709,63,18,1,0,0,response1disk,,6,-7,-15,1,0,0,rectangle,-7,-15,1,0,0,-7,-15,1,0,0,0,42,42,115,1,,,,,,,,
,,,,,,,,,,,,,FF,,,,,,,,0.782,,,,,,,,,,,,,,,,,,,,,,6102fab304462811ad2fc5c5,61036e223336c5504ee15566,2021-07-29_20h13.33.030,Simcolourproject_2stim_asymm_v5,2020.2.10,MacIntel,60,61025ae37ef11b136ea224fe,,,,,,,,,110,-34,-67,1,0,0,response5disk,,3,5,-4,1,0,0,rectangle,5,-4,1,0,0,5,-4,1,0,0,0,43,43,31,1,,,,,,,,
,,,,,,,,,,,,,FF,,,,,,,,1.368,,,,,,,,,,,,,,,,,,,,,,6102fab304462811ad2fc5c5,61036e223336c5504ee15566,2021-07-29_20h13.33.030,Simcolourproject_2stim_asymm_v5,2020.2.10,MacIntel,60,61025ae37ef11b136ea224fe,,,,,,,,,1779,88,31,1,0,0,response1disk,,6,16,7,1,0,0,rectangle,16,7,1,0,0,16,7,1,0,0,0,44,44,140,1,,,,,,,,
,,,,,,,,,,,,,FF,,,,,,,,1.301,,,,,,,,,,,,,,,,,,,,,,6102fab304462811ad2fc5c5,61036e223336c5504ee15566,2021-07-29_20h13.33.030,Simcolourproject_2stim_asymm_v5,2020.2.10,MacIntel,60,61025ae37ef11b136ea224fe,,,,,,,,,825,-41,-65,1,0,0,response5disk,,3,24,12,1,0,0,rectangle,24,12,1,0,0,24,12,1,0,0,0,45,45,7,1,,,,,,,,
,,,,,,,,,,,,,FF,,,,,,,,0.784,,,,,,,,,,,,,,,,,,,,,,6102fab304462811ad2fc5c5,61036e223336c5504ee15566,2021-07-29_20h13.33.030,Simcolourproject_2stim_asymm_v5,2020.2.10,MacIntel,60,61025ae37ef11b136ea224fe,,,,,,,,,2401,65,-43,1,0,0,response3disk,,5,15,-5,1,0,0,rectangle,15,-5,1,0,0,15,-5,1,0,0,0,46,46,73,1,,,,,,,,
,,,,,,,,,,,,,FF,,,,,,,,2.017,,,,,,,,,,,,,,,,,,,,,,6102fab304462811ad2fc5c5,61036e223336c5504ee15566,2021-07-29_20h13.33.030,Simcolourproject_2stim_asymm_v5,2020.2.10,MacIntel,60,61025ae37ef11b136ea224fe,,,,,,,,,797,56,23,1,0,0,response1disk,,6,8,3,1,0,0,rectangle,8,3,1,0,0,8,3,1,0,0,0,47,47,32,1,,,,,,,,
,,,,,,,,,,,,,FF,,,,,,,,1.717,,,,,,,,,,,,,,,,,,,,,,6102fab304462811ad2fc5c5,61036e223336c5504ee15566,2021-07-29_20h13.33.030,Simcolourproject_2stim_asymm_v5,2020.2.10,MacIntel,60,61025ae37ef11b136ea224fe,,,,,,,,,3061,57,23,1,0,0,response1disk,,6,-5,-17,1,0,0,rectangle,-5,-17,1,0,0,-5,-17,1,0,0,0,48,48,4,1,,,,,,,,
,,,,,,,,,,,,,FF,,,,,,,,0.984,,,,,,,,,,,,,,,,,,,,,,6102fab304462811ad2fc5c5,61036e223336c5504ee15566,2021-07-29_20h13.33.030,Simcolourproject_2stim_asymm_v5,2020.2.10,MacIntel,60,61025ae37ef11b136ea224fe,,,,,,,,,1180,67,-55,1,0,0,response3disk,,5,28,-12,1,0,0,rectangle,28,-12,1,0,0,28,-12,1,0,0,0,49,49,47,1,,,,,,,,
,,,,,,,,,,,,,FF,,,,,,,,0.683,,,,,,,,,,,,,,,,,,,,,,6102fab304462811ad2fc5c5,61036e223336c5504ee15566,2021-07-29_20h13.33.030,Simcolourproject_2stim_asymm_v5,2020.2.10,MacIntel,60,61025ae37ef11b136ea224fe,,,,,,,,,2962,-49,-78,1,0,0,response5disk,,3,-11,-6,1,0,0,rectangle,-11,-6,1,0,0,-11,-6,1,0,0,0,50,50,21,1,,,,,,,,
,,,,,,,,,,,,,FF,,,,,,,,1.084,,,,,,,,,,,,,,,,,,,,,,6102fab304462811ad2fc5c5,61036e223336c5504ee15566,2021-07-29_20h13.33.030,Simcolourproject_2stim_asymm_v5,2020.2.10,MacIntel,60,61025ae37ef11b136ea224fe,,,,,,,,,3824,-90,-38,1,0,0,response5disk,,2,9,3,1,0,0,rectangle,9,3,1,0,0,9,3,1,0,0,0,51,51,135,1,,,,,,,,
,,,,,,,,,,,,,FF,,,,,,,,0.6,,,,,,,,,,,,,,,,,,,,,,6102fab304462811ad2fc5c5,61036e223336c5504ee15566,2021-07-29_20h13.33.030,Simcolourproject_2stim_asymm_v5,2020.2.10,MacIntel,60,61025ae37ef11b136ea224fe,,,,,,,,,4158,75,-36,1,0,0,response3disk,,5,5,-3,1,0,0,rectangle,5,-3,1,0,0,5,-3,1,0,0,0,52,52,63,1,,,,,,,,
,,,,,,,,,,,,,FF,,,,,,,,1.467,,,,,,,,,,,,,,,,,,,,,,6102fab304462811ad2fc5c5,61036e223336c5504ee15566,2021-07-29_20h13.33.030,Simcolourproject_2stim_asymm_v5,2020.2.10,MacIntel,60,61025ae37ef11b136ea224fe,,,,,,,,,1598,-64,-24,1,0,0,response5disk,,2,-19,-13,1,0,0,rectangle,105,37,1,0,0,8,12,1,0,0,0,53,53,132,1,,response1disk_3,TRUE,6,6,"[83,306,116,258,133,286,54,182,38,66,68,183,106,206,207,101,110,158,99,210]",1.899,rectangle
,,,,,,,,,,,,,FF,,,,,,,,0.982,,,,,,,,,,,,,,,,,,,,,,6102fab304462811ad2fc5c5,61036e223336c5504ee15566,2021-07-29_20h13.33.030,Simcolourproject_2stim_asymm_v5,2020.2.10,MacIntel,60,61025ae37ef11b136ea224fe,,,,,,,,,3200,-74,-21,1,0,0,response5disk,,2,-1,-11,1,0,0,rectangle,-1,-11,1,0,0,-1,-11,1,0,0,0,54,54,113,1,,,,,,,,
,,,,,,,,,,,,,FF,,,,,,,,0.501,,,,,,,,,,,,,,,,,,,,,,6102fab304462811ad2fc5c5,61036e223336c5504ee15566,2021-07-29_20h13.33.030,Simcolourproject_2stim_asymm_v5,2020.2.10,MacIntel,60,61025ae37ef11b136ea224fe,,,,,,,,,2816,42,-34,1,0,0,response3disk,,5,5,-1,1,0,0,rectangle,5,-1,1,0,0,5,-1,1,0,0,0,55,55,43,1,,,,,,,,
,,,,,,,,,,,,,FF,,,,,,,,0.9,,,,,,,,,,,,,,,,,,,,,,6102fab304462811ad2fc5c5,61036e223336c5504ee15566,2021-07-29_20h13.33.030,Simcolourproject_2stim_asymm_v5,2020.2.10,MacIntel,60,61025ae37ef11b136ea224fe,,,,,,,,,3513,-45,-71,1,0,0,response5disk,,3,-11,-10,1,0,0,rectangle,-11,-10,1,0,0,-11,-10,1,0,0,0,56,56,11,1,,,,,,,,
,,,,,,,,,,,,,FF,,,,,,,,0.633,,,,,,,,,,,,,,,,,,,,,,6102fab304462811ad2fc5c5,61036e223336c5504ee15566,2021-07-29_20h13.33.030,Simcolourproject_2stim_asymm_v5,2020.2.10,MacIntel,60,61025ae37ef11b136ea224fe,,,,,,,,,353,-91,30,1,0,0,response7disk,,1,-6,2,1,0,0,rectangle,-6,2,1,0,0,-6,2,1,0,0,0,57,57,87,1,,,,,,,,
,,,,,,,,,,,,,FF,,,,,,,,0.851,,,,,,,,,,,,,,,,,,,,,,6102fab304462811ad2fc5c5,61036e223336c5504ee15566,2021-07-29_20h13.33.030,Simcolourproject_2stim_asymm_v5,2020.2.10,MacIntel,60,61025ae37ef11b136ea224fe,,,,,,,,,2268,67,-33,1,0,0,response3disk,,5,17,-3,1,0,0,rectangle,17,-3,1,0,0,17,-3,1,0,0,0,58,58,71,1,,,,,,,,
,,,,,,,,,,,,,FF,,,,,,,,0.667,,,,,,,,,,,,,,,,,,,,,,6102fab304462811ad2fc5c5,61036e223336c5504ee15566,2021-07-29_20h13.33.030,Simcolourproject_2stim_asymm_v5,2020.2.10,MacIntel,60,61025ae37ef11b136ea224fe,,,,,,,,,2722,-87,-44,1,0,0,response5disk,,2,2,-5,1,0,0,rectangle,2,-5,1,0,0,2,-5,1,0,0,0,59,59,14,1,,,,,,,,
,,,,,,,,,,,,,FF,,,,,,,,0.499,,,,,,,,,,,,,,,,,,,,,,6102fab304462811ad2fc5c5,61036e223336c5504ee15566,2021-07-29_20h13.33.030,Simcolourproject_2stim_asymm_v5,2020.2.10,MacIntel,60,61025ae37ef11b136ea224fe,,,,,,,,,2648,58,-20,1,0,0,response3disk,,5,22,-4,1,0,0,rectangle,22,-4,1,0,0,22,-4,1,0,0,0,60,60,95,1,,,,,,,,
,,,,,,,,,,,,,FF,,,,,,,,0.55,,,,,,,,,,,,,,,,,,,,,,6102fab304462811ad2fc5c5,61036e223336c5504ee15566,2021-07-29_20h13.33.030,Simcolourproject_2stim_asymm_v5,2020.2.10,MacIntel,60,61025ae37ef11b136ea224fe,,,,,,,,,2182,74,44,1,0,0,response1disk,,6,-11,-8,1,0,0,rectangle,-11,-8,1,0,0,-11,-8,1,0,0,0,61,61,58,1,,,,,,,,
,,,,,,,,,,,,,FF,,,,,,,,0.917,,,,,,,,,,,,,,,,,,,,,,6102fab304462811ad2fc5c5,61036e223336c5504ee15566,2021-07-29_20h13.33.030,Simcolourproject_2stim_asymm_v5,2020.2.10,MacIntel,60,61025ae37ef11b136ea224fe,,,,,,,,,2714,103,35,1,0,0,response1disk,,6,15,9,1,0,0,rectangle,15,9,1,0,0,15,9,1,0,0,0,62,62,109,1,,,,,,,,
,,,,,,,,,,,,,FF,,,,,,,,0.734,,,,,,,,,,,,,,,,,,,,,,6102fab304462811ad2fc5c5,61036e223336c5504ee15566,2021-07-29_20h13.33.030,Simcolourproject_2stim_asymm_v5,2020.2.10,MacIntel,60,61025ae37ef11b136ea224fe,,,,,,,,,4199,91,57,1,0,0,response1disk,,6,7,14,1,0,0,rectangle,7,14,1,0,0,7,14,1,0,0,0,63,63,27,1,,,,,,,,
,,,,,,,,,,,,,FF,,,,,,,,0.867,,,,,,,,,,,,,,,,,,,,,,6102fab304462811ad2fc5c5,61036e223336c5504ee15566,2021-07-29_20h13.33.030,Simcolourproject_2stim_asymm_v5,2020.2.10,MacIntel,60,61025ae37ef11b136ea224fe,,,,,,,,,2040,-81,-49,1,0,0,response5disk,,2,-8,-3,1,0,0,rectangle,-8,-3,1,0,0,-8,-3,1,0,0,0,64,64,97,1,,,,,,,,
,,,,,,,,,,,,,FF,,,,,,,,0.733,,,,,,,,,,,,,,,,,,,,,,6102fab304462811ad2fc5c5,61036e223336c5504ee15566,2021-07-29_20h13.33.030,Simcolourproject_2stim_asymm_v5,2020.2.10,MacIntel,60,61025ae37ef11b136ea224fe,,,,,,,,,1222,-33,-59,1,0,0,response5disk,,3,-22,-15,1,0,0,rectangle,79,-39,1,0,0,7,0,1,0,0,0,65,65,151,1,,response3disk_3,TRUE,5,5,"[83,306,116,258,133,286,54,182,38,66,68,183,106,206,207,101,110,158,99,210]",2,rectangle
,,,,,,,,,,,,,FF,,,,,,,,0.685,,,,,,,,,,,,,,,,,,,,,,6102fab304462811ad2fc5c5,61036e223336c5504ee15566,2021-07-29_20h13.33.030,Simcolourproject_2stim_asymm_v5,2020.2.10,MacIntel,60,61025ae37ef11b136ea224fe,,,,,,,,,3418,-45,-93,1,0,0,response5disk,,3,-3,-16,1,0,0,rectangle,-3,-16,1,0,0,-3,-16,1,0,0,0,66,66,102,1,,,,,,,,
,,,,,,,,,,,,,FF,,,,,,,,0.566,,,,,,,,,,,,,,,,,,,,,,6102fab304462811ad2fc5c5,61036e223336c5504ee15566,2021-07-29_20h13.33.030,Simcolourproject_2stim_asymm_v5,2020.2.10,MacIntel,60,61025ae37ef11b136ea224fe,,,,,,,,,1640,100,-16,1,0,0,response3disk,,5,33,-8,1,0,0,rectangle,-89,45,1,0,0,-6,4,1,0,0,0,67,67,37,1,,response7disk_3,TRUE,1,1,"[83,306,116,258,133,286,54,182,38,66,68,183,106,206,207,101,110,158,99,210]",1.366,rectangle
,,,,,,,,,,,,,FF,,,,,,,,0.867,,,,,,,,,,,,,,,,,,,,,,6102fab304462811ad2fc5c5,61036e223336c5504ee15566,2021-07-29_20h13.33.030,Simcolourproject_2stim_asymm_v5,2020.2.10,MacIntel,60,61025ae37ef11b136ea224fe,,,,,,,,,4077,-97,-38,1,0,0,response5disk,,2,-8,15,1,0,0,rectangle,-8,15,1,0,0,-8,15,1,0,0,0,68,68,93,1,,,,,,,,
,,,,,,,,,,,,,FF,,,,,,,,1.101,,,,,,,,,,,,,,,,,,,,,,6102fab304462811ad2fc5c5,61036e223336c5504ee15566,2021-07-29_20h13.33.030,Simcolourproject_2stim_asymm_v5,2020.2.10,MacIntel,60,61025ae37ef11b136ea224fe,,,,,,,,,2797,61,-22,1,0,0,response3disk,,5,33,-6,1,0,0,rectangle,33,-6,1,0,0,33,-6,1,0,0,0,69,69,56,1,,,,,,,,
,,,,,,,,,,,,,FF,,,,,,,,1.035,,,,,,,,,,,,,,,,,,,,,,6102fab304462811ad2fc5c5,61036e223336c5504ee15566,2021-07-29_20h13.33.030,Simcolourproject_2stim_asymm_v5,2020.2.10,MacIntel,60,61025ae37ef11b136ea224fe,,,,,,,,,2991,54,17,1,0,0,response1disk,,6,8,1,1,0,0,rectangle,8,1,1,0,0,8,1,1,0,0,0,70,70,139,1,,,,,,,,
,,,,,,,,,,,,,FF,,,,,,,,1,,,,,,,,,,,,,,,,,,,,,,6102fab304462811ad2fc5c5,61036e223336c5504ee15566,2021-07-29_20h13.33.030,Simcolourproject_2stim_asymm_v5,2020.2.10,MacIntel,60,61025ae37ef11b136ea224fe,,,,,,,,,599,124,40,1,0,0,response1disk,,6,30,6,1,0,0,rectangle,30,6,1,0,0,30,6,1,0,0,0,71,71,116,1,,,,,,,,
,,,,,,,,,,,,,FF,,,,,,,,0.566,,,,,,,,,,,,,,,,,,,,,,6102fab304462811ad2fc5c5,61036e223336c5504ee15566,2021-07-29_20h13.33.030,Simcolourproject_2stim_asymm_v5,2020.2.10,MacIntel,60,61025ae37ef11b136ea224fe,,,,,,,,,1042,40,89,1,0,0,response1disk,,7,11,-12,1,0,0,rectangle,11,-12,1,0,0,11,-12,1,0,0,0,72,72,50,1,,,,,,,,
,,,,,,,,,,,,,FF,,,,,,,,1.232,,,,,,,,,,,,,,,,,,,,,,6102fab304462811ad2fc5c5,61036e223336c5504ee15566,2021-07-29_20h13.33.030,Simcolourproject_2stim_asymm_v5,2020.2.10,MacIntel,60,61025ae37ef11b136ea224fe,,,,,,,,,3197,-86,-38,1,0,0,response5disk,,2,-17,-4,1,0,0,rectangle,-17,-4,1,0,0,-17,-4,1,0,0,0,73,73,60,1,,,,,,,,
,,,,,,,,,,,,,FF,,,,,,,,0.734,,,,,,,,,,,,,,,,,,,,,,6102fab304462811ad2fc5c5,61036e223336c5504ee15566,2021-07-29_20h13.33.030,Simcolourproject_2stim_asymm_v5,2020.2.10,MacIntel,60,61025ae37ef11b136ea224fe,,,,,,,,,2870,65,78,1,0,0,response1disk,,7,18,11,1,0,0,rectangle,18,11,1,0,0,18,11,1,0,0,0,74,74,103,1,,,,,,,,
,,,,,,,,,,,,,FF,,,,,,,,1.101,,,,,,,,,,,,,,,,,,,,,,6102fab304462811ad2fc5c5,61036e223336c5504ee15566,2021-07-29_20h13.33.030,Simcolourproject_2stim_asymm_v5,2020.2.10,MacIntel,60,61025ae37ef11b136ea224fe,,,,,,,,,3938,-90,-36,1,0,0,response5disk,,2,-32,-3,1,0,0,rectangle,-32,-3,1,0,0,-32,-3,1,0,0,0,75,75,131,1,,,,,,,,
,,,,,,,,,,,,,FF,,,,,,,,1.434,,,,,,,,,,,,,,,,,,,,,,6102fab304462811ad2fc5c5,61036e223336c5504ee15566,2021-07-29_20h13.33.030,Simcolourproject_2stim_asymm_v5,2020.2.10,MacIntel,60,61025ae37ef11b136ea224fe,,,,,,,,,3352,54,-40,1,0,0,response3disk,,5,27,-12,1,0,0,rectangle,27,-12,1,0,0,27,-12,1,0,0,0,76,76,91,1,,,,,,,,
,,,,,,,,,,,,,FF,,,,,,,,1.051,,,,,,,,,,,,,,,,,,,,,,6102fab304462811ad2fc5c5,61036e223336c5504ee15566,2021-07-29_20h13.33.030,Simcolourproject_2stim_asymm_v5,2020.2.10,MacIntel,60,61025ae37ef11b136ea224fe,,,,,,,,,1858,19,79,1,0,0,response1disk,,7,10,1,1,0,0,rectangle,10,1,1,0,0,10,1,1,0,0,0,77,77,57,1,,,,,,,,
,,,,,,,,,,,,,FF,,,,,,,,0.717,,,,,,,,,,,,,,,,,,,,,,6102fab304462811ad2fc5c5,61036e223336c5504ee15566,2021-07-29_20h13.33.030,Simcolourproject_2stim_asymm_v5,2020.2.10,MacIntel,60,61025ae37ef11b136ea224fe,,,,,,,,,1020,52,85,1,0,0,response1disk,,7,4,5,1,0,0,rectangle,4,5,1,0,0,4,5,1,0,0,0,78,78,34,1,,,,,,,,
,,,,,,,,,,,,,FF,,,,,,,,0.901,,,,,,,,,,,,,,,,,,,,,,6102fab304462811ad2fc5c5,61036e223336c5504ee15566,2021-07-29_20h13.33.030,Simcolourproject_2stim_asymm_v5,2020.2.10,MacIntel,60,61025ae37ef11b136ea224fe,,,,,,,,,2563,-48,-77,1,0,0,response5disk,,3,-20,-11,1,0,0,rectangle,-20,-11,1,0,0,-20,-11,1,0,0,0,79,79,70,1,,,,,,,,
,,,,,,,,,,,,,FF,,,,,,,,0.601,,,,,,,,,,,,,,,,,,,,,,6102fab304462811ad2fc5c5,61036e223336c5504ee15566,2021-07-29_20h13.33.030,Simcolourproject_2stim_asymm_v5,2020.2.10,MacIntel,60,61025ae37ef11b136ea224fe,,,,,,,,,3874,33,69,1,0,0,response1disk,,7,18,9,1,0,0,rectangle,18,9,1,0,0,18,9,1,0,0,0,80,80,48,1,,,,,,,,
,,,,,,,,,,,,,FF,,,,,,,,0.633,,,,,,,,,,,,,,,,,,,,,,6102fab304462811ad2fc5c5,61036e223336c5504ee15566,2021-07-29_20h13.33.030,Simcolourproject_2stim_asymm_v5,2020.2.10,MacIntel,60,61025ae37ef11b136ea224fe,,,,,,,,,3840,34,59,1,0,0,response1disk,,7,5,-5,1,0,0,rectangle,5,-5,1,0,0,5,-5,1,0,0,0,81,81,88,1,,,,,,,,
,,,,,,,,,,,,,FF,,,,,,,,0.848,,,,,,,,,,,,,,,,,,,,,,6102fab304462811ad2fc5c5,61036e223336c5504ee15566,2021-07-29_20h13.33.030,Simcolourproject_2stim_asymm_v5,2020.2.10,MacIntel,60,61025ae37ef11b136ea224fe,,,,,,,,,816,-33,-79,1,0,0,response5disk,,3,13,10,1,0,0,rectangle,40,96,1,0,0,7,-1,1,0,0,0,82,82,67,1,,response1disk_3,TRUE,7,7,"[83,306,116,258,133,286,54,182,38,66,68,183,106,206,207,101,110,158,99,210]",1.318,rectangle
,,,,,,,,,,,,,FF,,,,,,,,1.116,,,,,,,,,,,,,,,,,,,,,,6102fab304462811ad2fc5c5,61036e223336c5504ee15566,2021-07-29_20h13.33.030,Simcolourproject_2stim_asymm_v5,2020.2.10,MacIntel,60,61025ae37ef11b136ea224fe,,,,,,,,,2169,-23,-56,1,0,0,response5disk,,3,-11,-12,1,0,0,rectangle,-11,-12,1,0,0,-11,-12,1,0,0,0,83,83,54,1,,,,,,,,
,,,,,,,,,,,,,FF,,,,,,,,0.883,,,,,,,,,,,,,,,,,,,,,,6102fab304462811ad2fc5c5,61036e223336c5504ee15566,2021-07-29_20h13.33.030,Simcolourproject_2stim_asymm_v5,2020.2.10,MacIntel,60,61025ae37ef11b136ea224fe,,,,,,,,,1365,42,76,1,0,0,response1disk,,7,21,5,1,0,0,rectangle,21,5,1,0,0,21,5,1,0,0,0,84,84,124,1,,,,,,,,
,,,,,,,,,,,,,FF,,,,,,,,0.851,,,,,,,,,,,,,,,,,,,,,,6102fab304462811ad2fc5c5,61036e223336c5504ee15566,2021-07-29_20h13.33.030,Simcolourproject_2stim_asymm_v5,2020.2.10,MacIntel,60,61025ae37ef11b136ea224fe,,,,,,,,,3135,21,41,1,0,0,response1disk,,7,16,-9,1,0,0,rectangle,16,-9,1,0,0,16,-9,1,0,0,0,85,85,10,1,,,,,,,,
,,,,,,,,,,,,,FF,,,,,,,,1.151,,,,,,,,,,,,,,,,,,,,,,6102fab304462811ad2fc5c5,61036e223336c5504ee15566,2021-07-29_20h13.33.030,Simcolourproject_2stim_asymm_v5,2020.2.10,MacIntel,60,61025ae37ef11b136ea224fe,,,,,,,,,3948,68,-41,1,0,0,response3disk,,5,13,-11,1,0,0,rectangle,13,-11,1,0,0,13,-11,1,0,0,0,86,86,24,1,,,,,,,,
,,,,,,,,,,,,,FF,,,,,,,,1.083,,,,,,,,,,,,,,,,,,,,,,6102fab304462811ad2fc5c5,61036e223336c5504ee15566,2021-07-29_20h13.33.030,Simcolourproject_2stim_asymm_v5,2020.2.10,MacIntel,60,61025ae37ef11b136ea224fe,,,,,,,,,3917,23,-82,1,0,0,response3disk,,4,7,0,1,0,0,rectangle,7,0,1,0,0,7,0,1,0,0,0,87,87,75,1,,,,,,,,
,,,,,,,,,,,,,FF,,,,,,,,0.633,,,,,,,,,,,,,,,,,,,,,,6102fab304462811ad2fc5c5,61036e223336c5504ee15566,2021-07-29_20h13.33.030,Simcolourproject_2stim_asymm_v5,2020.2.10,MacIntel,60,61025ae37ef11b136ea224fe,,,,,,,,,392,36,83,1,0,0,response1disk,,7,15,9,1,0,0,rectangle,15,9,1,0,0,15,9,1,0,0,0,88,88,17,1,,,,,,,,
,,,,,,,,,,,,,FF,,,,,,,,0.8,,,,,,,,,,,,,,,,,,,,,,6102fab304462811ad2fc5c5,61036e223336c5504ee15566,2021-07-29_20h13.33.030,Simcolourproject_2stim_asymm_v5,2020.2.10,MacIntel,60,61025ae37ef11b136ea224fe,,,,,,,,,3610,47,60,1,0,0,response1disk,,7,17,16,1,0,0,rectangle,17,16,1,0,0,17,16,1,0,0,0,89,89,29,1,,,,,,,,
,,,,,,,,,,,,,FF,,,,,,,,0.616,,,,,,,,,,,,,,,,,,,,,,6102fab304462811ad2fc5c5,61036e223336c5504ee15566,2021-07-29_20h13.33.030,Simcolourproject_2stim_asymm_v5,2020.2.10,MacIntel,60,61025ae37ef11b136ea224fe,,,,,,,,,2931,28,53,1,0,0,response1disk,,7,3,-16,1,0,0,rectangle,3,-16,1,0,0,3,-16,1,0,0,0,90,90,28,1,,,,,,,,
,,,,,,,,,,,,,FF,,,,,,,,1.634,,,,,,,,,,,,,,,,,,,,,,6102fab304462811ad2fc5c5,61036e223336c5504ee15566,2021-07-29_20h13.33.030,Simcolourproject_2stim_asymm_v5,2020.2.10,MacIntel,60,61025ae37ef11b136ea224fe,,,,,,,,,2367,-29,-83,1,0,0,response5disk,,3,-23,-7,1,0,0,rectangle,-23,-7,1,0,0,-23,-7,1,0,0,0,91,91,127,1,,,,,,,,
,,,,,,,,,,,,,FF,,,,,,,,0.683,,,,,,,,,,,,,,,,,,,,,,6102fab304462811ad2fc5c5,61036e223336c5504ee15566,2021-07-29_20h13.33.030,Simcolourproject_2stim_asymm_v5,2020.2.10,MacIntel,60,61025ae37ef11b136ea224fe,,,,,,,,,53,24,53,1,0,0,response1disk,,7,13,-3,1,0,0,rectangle,13,-3,1,0,0,13,-3,1,0,0,0,92,92,9,1,,,,,,,,
,,,,,,,,,,,,,FF,,,,,,,,1.149,,,,,,,,,,,,,,,,,,,,,,6102fab304462811ad2fc5c5,61036e223336c5504ee15566,2021-07-29_20h13.33.030,Simcolourproject_2stim_asymm_v5,2020.2.10,MacIntel,60,61025ae37ef11b136ea224fe,,,,,,,,,1655,47,17,1,0,0,response1disk,,6,20,2,1,0,0,rectangle,20,2,1,0,0,20,2,1,0,0,0,93,93,8,1,,,,,,,,
,,,,,,,,,,,,,FF,,,,,,,,0.901,,,,,,,,,,,,,,,,,,,,,,6102fab304462811ad2fc5c5,61036e223336c5504ee15566,2021-07-29_20h13.33.030,Simcolourproject_2stim_asymm_v5,2020.2.10,MacIntel,60,61025ae37ef11b136ea224fe,,,,,,,,,586,28,39,1,0,0,response1disk,,7,3,-4,1,0,0,rectangle,3,-4,1,0,0,3,-4,1,0,0,0,94,94,72,1,,,,,,,,
,,,,,,,,,,,,,FF,,,,,,,,1.217,,,,,,,,,,,,,,,,,,,,,,6102fab304462811ad2fc5c5,61036e223336c5504ee15566,2021-07-29_20h13.33.030,Simcolourproject_2stim_asymm_v5,2020.2.10,MacIntel,60,61025ae37ef11b136ea224fe,,,,,,,,,2989,35,34,1,0,0,response1disk,,6,26,6,1,0,0,rectangle,26,6,1,0,0,26,6,1,0,0,0,95,95,40,1,,,,,,,,
,,,,,,,,,,,,,FF,,,,,,,,0.633,,,,,,,,,,,,,,,,,,,,,,6102fab304462811ad2fc5c5,61036e223336c5504ee15566,2021-07-29_20h13.33.030,Simcolourproject_2stim_asymm_v5,2020.2.10,MacIntel,60,61025ae37ef11b136ea224fe,,,,,,,,,3124,35,54,1,0,0,response1disk,,7,1,3,1,0,0,rectangle,1,3,1,0,0,1,3,1,0,0,0,96,96,122,1,,,,,,,,
,,,,,,,,,,,,,FF,,,,,,,,0.6,,,,,,,,,,,,,,,,,,,,,,6102fab304462811ad2fc5c5,61036e223336c5504ee15566,2021-07-29_20h13.33.030,Simcolourproject_2stim_asymm_v5,2020.2.10,MacIntel,60,61025ae37ef11b136ea224fe,,,,,,,,,2255,37,37,1,0,0,response1disk,,7,21,17,1,0,0,rectangle,21,17,1,0,0,21,17,1,0,0,0,97,97,77,1,,,,,,,,
,,,,,,,,,,,,,FF,,,,,,,,1.533,,,,,,,,,,,,,,,,,,,,,,6102fab304462811ad2fc5c5,61036e223336c5504ee15566,2021-07-29_20h13.33.030,Simcolourproject_2stim_asymm_v5,2020.2.10,MacIntel,60,61025ae37ef11b136ea224fe,,,,,,,,,352,-71,-30,1,0,0,response5disk,,2,-34,-12,1,0,0,rectangle,-93,46,1,0,0,-10,-7,1,0,0,0,98,98,123,1,,response7disk_3,TRUE,1,1,"[83,306,116,258,133,286,54,182,38,66,68,183,106,206,207,101,110,158,99,210]",1.666,rectangle
,,,,,,,,,,,,,FF,,,,,,,,1.45,,,,,,,,,,,,,,,,,,,,,,6102fab304462811ad2fc5c5,61036e223336c5504ee15566,2021-07-29_20h13.33.030,Simcolourproject_2stim_asymm_v5,2020.2.10,MacIntel,60,61025ae37ef11b136ea224fe,,,,,,,,,1114,39,-70,1,0,0,response3disk,,4,24,-13,1,0,0,rectangle,24,-13,1,0,0,24,-13,1,0,0,0,99,99,154,1,,,,,,,,
,,,,,,,,,,,,,FF,,,,,,,,1.067,,,,,,,,,,,,,,,,,,,,,,6102fab304462811ad2fc5c5,61036e223336c5504ee15566,2021-07-29_20h13.33.030,Simcolourproject_2stim_asymm_v5,2020.2.10,MacIntel,60,61025ae37ef11b136ea224fe,,,,,,,,,2947,-110,40,1,0,0,response7disk,,1,-12,12,1,0,0,rectangle,-44,-99,1,0,0,-15,-6,1,0,0,0,100,100,44,1,,response5disk_3,TRUE,3,3,"[83,306,116,258,133,286,54,182,38,66,68,183,106,206,207,101,110,158,99,210]",1.699,rectangle
,,,,,,,,,,,,,FF,,,,,,,,0.716,,,,,,,,,,,,,,,,,,,,,,6102fab304462811ad2fc5c5,61036e223336c5504ee15566,2021-07-29_20h13.33.030,Simcolourproject_2stim_asymm_v5,2020.2.10,MacIntel,60,61025ae37ef11b136ea224fe,,,,,,,,,2817,62,-41,1,0,0,response3disk,,5,29,-11,1,0,0,rectangle,29,-11,1,0,0,29,-11,1,0,0,0,101,101,33,1,,,,,,,,
,,,,,,,,,,,,,FF,,,,,,,,0.784,,,,,,,,,,,,,,,,,,,,,,6102fab304462811ad2fc5c5,61036e223336c5504ee15566,2021-07-29_20h13.33.030,Simcolourproject_2stim_asymm_v5,2020.2.10,MacIntel,60,61025ae37ef11b136ea224fe,,,,,,,,,1381,-47,-69,1,0,0,response5disk,,3,-5,-6,1,0,0,rectangle,-5,-6,1,0,0,-5,-6,1,0,0,0,102,102,152,1,,,,,,,,
,,,,,,,,,,,,,FF,,,,,,,,0.633,,,,,,,,,,,,,,,,,,,,,,6102fab304462811ad2fc5c5,61036e223336c5504ee15566,2021-07-29_20h13.33.030,Simcolourproject_2stim_asymm_v5,2020.2.10,MacIntel,60,61025ae37ef11b136ea224fe,,,,,,,,,414,36,49,1,0,0,response1disk,,7,15,14,1,0,0,rectangle,15,14,1,0,0,15,14,1,0,0,0,103,103,85,1,,,,,,,,
,,,,,,,,,,,,,FF,,,,,,,,0.8,,,,,,,,,,,,,,,,,,,,,,6102fab304462811ad2fc5c5,61036e223336c5504ee15566,2021-07-29_20h13.33.030,Simcolourproject_2stim_asymm_v5,2020.2.10,MacIntel,60,61025ae37ef11b136ea224fe,,,,,,,,,300,50,46,1,0,0,response1disk,,6,8,-11,1,0,0,rectangle,8,-11,1,0,0,8,-11,1,0,0,0,104,104,51,1,,,,,,,,
,,,,,,,,,,,,,FF,,,,,,,,0.634,,,,,,,,,,,,,,,,,,,,,,6102fab304462811ad2fc5c5,61036e223336c5504ee15566,2021-07-29_20h13.33.030,Simcolourproject_2stim_asymm_v5,2020.2.10,MacIntel,60,61025ae37ef11b136ea224fe,,,,,,,,,1909,-32,-61,1,0,0,response5disk,,3,15,-2,1,0,0,rectangle,37,-81,1,0,0,13,-14,1,0,0,0,105,105,74,1,,response3disk_3,TRUE,4,4,"[83,306,116,258,133,286,54,182,38,66,68,183,106,206,207,101,110,158,99,210]",1.234,rectangle
,,,,,,,,,,,,,FF,,,,,,,,0.934,,,,,,,,,,,,,,,,,,,,,,6102fab304462811ad2fc5c5,61036e223336c5504ee15566,2021-07-29_20h13.33.030,Simcolourproject_2stim_asymm_v5,2020.2.10,MacIntel,60,61025ae37ef11b136ea224fe,,,,,,,,,641,-64,-36,1,0,0,response5disk,,2,-11,0,1,0,0,rectangle,-11,0,1,0,0,-11,0,1,0,0,0,106,106,41,1,,,,,,,,
,,,,,,,,,,,,,FF,,,,,,,,0.467,,,,,,,,,,,,,,,,,,,,,,6102fab304462811ad2fc5c5,61036e223336c5504ee15566,2021-07-29_20h13.33.030,Simcolourproject_2stim_asymm_v5,2020.2.10,MacIntel,60,61025ae37ef11b136ea224fe,,,,,,,,,2164,-61,-26,1,0,0,response5disk,,2,-13,2,1,0,0,rectangle,-13,2,1,0,0,-13,2,1,0,0,0,107,107,76,1,,,,,,,,
,,,,,,,,,,,,,FF,,,,,,,,0.55,,,,,,,,,,,,,,,,,,,,,,6102fab304462811ad2fc5c5,61036e223336c5504ee15566,2021-07-29_20h13.33.030,Simcolourproject_2stim_asymm_v5,2020.2.10,MacIntel,60,61025ae37ef11b136ea224fe,,,,,,,,,1823,-50,30,1,0,0,response7disk,,1,15,2,1,0,0,rectangle,15,2,1,0,0,15,2,1,0,0,0,108,108,69,1,,,,,,,,
,,,,,,,,,,,,,FF,,,,,,,,0.6,,,,,,,,,,,,,,,,,,,,,,6102fab304462811ad2fc5c5,61036e223336c5504ee15566,2021-07-29_20h13.33.030,Simcolourproject_2stim_asymm_v5,2020.2.10,MacIntel,60,61025ae37ef11b136ea224fe,,,,,,,,,1849,33,62,1,0,0,response1disk,,7,-1,-3,1,0,0,rectangle,78,-37,1,0,0,19,-4,1,0,0,0,109,109,105,1,,response3disk_3,TRUE,5,5,"[83,306,116,258,133,286,54,182,38,66,68,183,106,206,207,101,110,158,99,210]",1.2,rectangle
,,,,,,,,,,,,,FF,,,,,,,,0.684,,,,,,,,,,,,,,,,,,,,,,6102fab304462811ad2fc5c5,61036e223336c5504ee15566,2021-07-29_20h13.33.030,Simcolourproject_2stim_asymm_v5,2020.2.10,MacIntel,60,61025ae37ef11b136ea224fe,,,,,,,,,221,71,-41,1,0,0,response3disk,,5,8,-15,1,0,0,rectangle,8,-15,1,0,0,8,-15,1,0,0,0,110,110,15,1,,,,,,,,
,,,,,,,,,,,,,FF,,,,,,,,0.783,,,,,,,,,,,,,,,,,,,,,,6102fab304462811ad2fc5c5,61036e223336c5504ee15566,2021-07-29_20h13.33.030,Simcolourproject_2stim_asymm_v5,2020.2.10,MacIntel,60,61025ae37ef11b136ea224fe,,,,,,,,,1857,76,49,1,0,0,response1disk,,6,19,11,1,0,0,rectangle,19,11,1,0,0,19,11,1,0,0,0,111,111,99,1,,,,,,,,
,,,,,,,,,,,,,FF,,,,,,,,0.517,,,,,,,,,,,,,,,,,,,,,,6102fab304462811ad2fc5c5,61036e223336c5504ee15566,2021-07-29_20h13.33.030,Simcolourproject_2stim_asymm_v5,2020.2.10,MacIntel,60,61025ae37ef11b136ea224fe,,,,,,,,,3927,42,81,1,0,0,response1disk,,7,1,-7,1,0,0,rectangle,1,-7,1,0,0,1,-7,1,0,0,0,112,112,79,1,,,,,,,,
,,,,,,,,,,,,,FF,,,,,,,,0.583,,,,,,,,,,,,,,,,,,,,,,6102fab304462811ad2fc5c5,61036e223336c5504ee15566,2021-07-29_20h13.33.030,Simcolourproject_2stim_asymm_v5,2020.2.10,MacIntel,60,61025ae37ef11b136ea224fe,,,,,,,,,859,49,42,1,0,0,response1disk,,6,1,14,1,0,0,rectangle,1,14,1,0,0,1,14,1,0,0,0,113,113,125,1,,,,,,,,
,,,,,,,,,,,,,FF,,,,,,,,0.733,,,,,,,,,,,,,,,,,,,,,,6102fab304462811ad2fc5c5,61036e223336c5504ee15566,2021-07-29_20h13.33.030,Simcolourproject_2stim_asymm_v5,2020.2.10,MacIntel,60,61025ae37ef11b136ea224fe,,,,,,,,,463,-92,-42,1,0,0,response5disk,,2,-5,-6,1,0,0,rectangle,-5,-6,1,0,0,-5,-6,1,0,0,0,114,114,110,1,,,,,,,,
,,,,,,,,,,,,,FF,,,,,,,,0.616,,,,,,,,,,,,,,,,,,,,,,6102fab304462811ad2fc5c5,61036e223336c5504ee15566,2021-07-29_20h13.33.030,Simcolourproject_2stim_asymm_v5,2020.2.10,MacIntel,60,61025ae37ef11b136ea224fe,,,,,,,,,497,44,41,1,0,0,response1disk,,6,2,10,1,0,0,rectangle,26,66,1,0,0,-36,-11,1,0,0,0,115,115,143,1,,response1disk_3,TRUE,7,7,"[83,306,116,258,133,286,54,182,38,66,68,183,106,206,207,101,110,158,99,210]",1.1,rectangle
,,,,,,,,,,,,,FF,,,,,,,,0.883,,,,,,,,,,,,,,,,,,,,,,6102fab304462811ad2fc5c5,61036e223336c5504ee15566,2021-07-29_20h13.33.030,Simcolourproject_2stim_asymm_v5,2020.2.10,MacIntel,60,61025ae37ef11b136ea224fe,,,,,,,,,1637,24,74,1,0,0,response1disk,,7,6,4,1,0,0,rectangle,6,4,1,0,0,6,4,1,0,0,0,116,116,26,1,,,,,,,,
,,,,,,,,,,,,,FF,,,,,,,,0.65,,,,,,,,,,,,,,,,,,,,,,6102fab304462811ad2fc5c5,61036e223336c5504ee15566,2021-07-29_20h13.33.030,Simcolourproject_2stim_asymm_v5,2020.2.10,MacIntel,60,61025ae37ef11b136ea224fe,,,,,,,,,982,-55,-95,1,0,0,response5disk,,3,-5,-14,1,0,0,rectangle,-5,-14,1,0,0,-5,-14,1,0,0,0,117,117,3,1,,,,,,,,
,,,,,,,,,,,,,FF,,,,,,,,0.683,,,,,,,,,,,,,,,,,,,,,,6102fab304462811ad2fc5c5,61036e223336c5504ee15566,2021-07-29_20h13.33.030,Simcolourproject_2stim_asymm_v5,2020.2.10,MacIntel,60,61025ae37ef11b136ea224fe,,,,,,,,,1782,38,29,1,0,0,response1disk,,6,13,9,1,0,0,rectangle,13,9,1,0,0,13,9,1,0,0,0,118,118,120,1,,,,,,,,
,,,,,,,,,,,,,FF,,,,,,,,0.749,,,,,,,,,,,,,,,,,,,,,,6102fab304462811ad2fc5c5,61036e223336c5504ee15566,2021-07-29_20h13.33.030,Simcolourproject_2stim_asymm_v5,2020.2.10,MacIntel,60,61025ae37ef11b136ea224fe,,,,,,,,,254,-57,-69,1,0,0,response5disk,,3,8,-5,1,0,0,rectangle,8,-5,1,0,0,8,-5,1,0,0,0,119,119,159,1,,,,,,,,
,,,,,,,,,,,,,FF,,,,,,,,0.6,,,,,,,,,,,,,,,,,,,,,,6102fab304462811ad2fc5c5,61036e223336c5504ee15566,2021-07-29_20h13.33.030,Simcolourproject_2stim_asymm_v5,2020.2.10,MacIntel,60,61025ae37ef11b136ea224fe,,,,,,,,,4276,39,70,1,0,0,response1disk,,7,-8,6,1,0,0,rectangle,-8,6,1,0,0,-8,6,1,0,0,0,120,120,138,1,,,,,,,,
,,,,,,,,,,,,,FF,,,,,,,,0.683,,,,,,,,,,,,,,,,,,,,,,6102fab304462811ad2fc5c5,61036e223336c5504ee15566,2021-07-29_20h13.33.030,Simcolourproject_2stim_asymm_v5,2020.2.10,MacIntel,60,61025ae37ef11b136ea224fe,,,,,,,,,552,-54,-32,1,0,0,response5disk,,2,-1,-18,1,0,0,rectangle,-1,-18,1,0,0,-1,-18,1,0,0,0,121,121,25,1,,,,,,,,
,,,,,,,,,,,,,FF,,,,,,,,1.783,,,,,,,,,,,,,,,,,,,,,,6102fab304462811ad2fc5c5,61036e223336c5504ee15566,2021-07-29_20h13.33.030,Simcolourproject_2stim_asymm_v5,2020.2.10,MacIntel,60,61025ae37ef11b136ea224fe,,,,,,,,,4226,-45,-82,1,0,0,response5disk,,3,2,-6,1,0,0,rectangle,2,-6,1,0,0,2,-6,1,0,0,0,122,122,23,1,,,,,,,,
,,,,,,,,,,,,,FF,,,,,,,,0.833,,,,,,,,,,,,,,,,,,,,,,6102fab304462811ad2fc5c5,61036e223336c5504ee15566,2021-07-29_20h13.33.030,Simcolourproject_2stim_asymm_v5,2020.2.10,MacIntel,60,61025ae37ef11b136ea224fe,,,,,,,,,1006,73,-26,1,0,0,response3disk,,5,29,-12,1,0,0,rectangle,29,-12,1,0,0,29,-12,1,0,0,0,123,123,1,1,,,,,,,,
,,,,,,,,,,,,,FF,,,,,,,,0.733,,,,,,,,,,,,,,,,,,,,,,6102fab304462811ad2fc5c5,61036e223336c5504ee15566,2021-07-29_20h13.33.030,Simcolourproject_2stim_asymm_v5,2020.2.10,MacIntel,60,61025ae37ef11b136ea224fe,,,,,,,,,3698,49,20,1,0,0,response1disk,,6,14,-4,1,0,0,rectangle,14,-4,1,0,0,14,-4,1,0,0,0,124,124,100,1,,,,,,,,
,,,,,,,,,,,,,FF,,,,,,,,0.733,,,,,,,,,,,,,,,,,,,,,,6102fab304462811ad2fc5c5,61036e223336c5504ee15566,2021-07-29_20h13.33.030,Simcolourproject_2stim_asymm_v5,2020.2.10,MacIntel,60,61025ae37ef11b136ea224fe,,,,,,,,,3450,44,51,1,0,0,response1disk,,7,20,14,1,0,0,rectangle,20,14,1,0,0,20,14,1,0,0,0,125,125,38,1,,,,,,,,
,,,,,,,,,,,,,FF,,,,,,,,0.85,,,,,,,,,,,,,,,,,,,,,,6102fab304462811ad2fc5c5,61036e223336c5504ee15566,2021-07-29_20h13.33.030,Simcolourproject_2stim_asymm_v5,2020.2.10,MacIntel,60,61025ae37ef11b136ea224fe,,,,,,,,,1395,49,-36,1,0,0,response3disk,,5,7,-5,1,0,0,rectangle,7,-5,1,0,0,7,-5,1,0,0,0,126,126,104,1,,,,,,,,
,,,,,,,,,,,,,FF,,,,,,,,0.617,,,,,,,,,,,,,,,,,,,,,,6102fab304462811ad2fc5c5,61036e223336c5504ee15566,2021-07-29_20h13.33.030,Simcolourproject_2stim_asymm_v5,2020.2.10,MacIntel,60,61025ae37ef11b136ea224fe,,,,,,,,,3289,49,89,1,0,0,response1disk,,7,1,7,1,0,0,rectangle,1,7,1,0,0,1,7,1,0,0,0,127,127,94,1,,,,,,,,
,,,,,,,,,,,,,FF,,,,,,,,0.85,,,,,,,,,,,,,,,,,,,,,,6102fab304462811ad2fc5c5,61036e223336c5504ee15566,2021-07-29_20h13.33.030,Simcolourproject_2stim_asymm_v5,2020.2.10,MacIntel,60,61025ae37ef11b136ea224fe,,,,,,,,,4087,54,-33,1,0,0,response3disk,,5,25,0,1,0,0,rectangle,25,0,1,0,0,25,0,1,0,0,0,128,128,142,1,,,,,,,,
,,,,,,,,,,,,,FF,,,,,,,,0.868,,,,,,,,,,,,,,,,,,,,,,6102fab304462811ad2fc5c5,61036e223336c5504ee15566,2021-07-29_20h13.33.030,Simcolourproject_2stim_asymm_v5,2020.2.10,MacIntel,60,61025ae37ef11b136ea224fe,,,,,,,,,2494,-58,-22,1,0,0,response5disk,,2,8,-15,1,0,0,rectangle,8,-15,1,0,0,8,-15,1,0,0,0,129,129,144,1,,,,,,,,
,,,,,,,,,,,,,FF,,,,,,,,0.634,,,,,,,,,,,,,,,,,,,,,,6102fab304462811ad2fc5c5,61036e223336c5504ee15566,2021-07-29_20h13.33.030,Simcolourproject_2stim_asymm_v5,2020.2.10,MacIntel,60,61025ae37ef11b136ea224fe,,,,,,,,,58,37,39,1,0,0,response1disk,,7,-2,0,1,0,0,rectangle,-2,0,1,0,0,-2,0,1,0,0,0,130,130,59,1,,,,,,,,
,,,,,,,,,,,,,FF,,,,,,,,0.783,,,,,,,,,,,,,,,,,,,,,,6102fab304462811ad2fc5c5,61036e223336c5504ee15566,2021-07-29_20h13.33.030,Simcolourproject_2stim_asymm_v5,2020.2.10,MacIntel,60,61025ae37ef11b136ea224fe,,,,,,,,,1534,-82,31,1,0,0,response7disk,,1,-8,-2,1,0,0,rectangle,-8,-2,1,0,0,-8,-2,1,0,0,0,131,131,118,1,,,,,,,,
,,,,,,,,,,,,,FF,,,,,,,,0.517,,,,,,,,,,,,,,,,,,,,,,6102fab304462811ad2fc5c5,61036e223336c5504ee15566,2021-07-29_20h13.33.030,Simcolourproject_2stim_asymm_v5,2020.2.10,MacIntel,60,61025ae37ef11b136ea224fe,,,,,,,,,1371,-62,31,1,0,0,response7disk,,1,6,4,1,0,0,rectangle,-42,-109,1,0,0,12,2,1,0,0,0,132,132,145,1,,response5disk_3,TRUE,3,3,"[83,306,116,258,133,286,54,182,38,66,68,183,106,206,207,101,110,158,99,210]",1.417,rectangle
,,,,,,,,,,,,,FF,,,,,,,,0.766,,,,,,,,,,,,,,,,,,,,,,6102fab304462811ad2fc5c5,61036e223336c5504ee15566,2021-07-29_20h13.33.030,Simcolourproject_2stim_asymm_v5,2020.2.10,MacIntel,60,61025ae37ef11b136ea224fe,,,,,,,,,4019,47,54,1,0,0,response1disk,,7,-4,-4,1,0,0,rectangle,-4,-4,1,0,0,-4,-4,1,0,0,0,133,133,53,1,,,,,,,,
,,,,,,,,,,,,,FF,,,,,,,,1.016,,,,,,,,,,,,,,,,,,,,,,6102fab304462811ad2fc5c5,61036e223336c5504ee15566,2021-07-29_20h13.33.030,Simcolourproject_2stim_asymm_v5,2020.2.10,MacIntel,60,61025ae37ef11b136ea224fe,,,,,,,,,3721,35,-72,1,0,0,response3disk,,4,25,-10,1,0,0,rectangle,25,-10,1,0,0,25,-10,1,0,0,0,134,134,150,1,,,,,,,,
,,,,,,,,,,,,,FF,,,,,,,,0.733,,,,,,,,,,,,,,,,,,,,,,6102fab304462811ad2fc5c5,61036e223336c5504ee15566,2021-07-29_20h13.33.030,Simcolourproject_2stim_asymm_v5,2020.2.10,MacIntel,60,61025ae37ef11b136ea224fe,,,,,,,,,2204,60,18,1,0,0,response1disk,,6,2,1,1,0,0,rectangle,2,1,1,0,0,2,1,1,0,0,0,135,135,147,1,,,,,,,,
,,,,,,,,,,,,,FF,,,,,,,,0.616,,,,,,,,,,,,,,,,,,,,,,6102fab304462811ad2fc5c5,61036e223336c5504ee15566,2021-07-29_20h13.33.030,Simcolourproject_2stim_asymm_v5,2020.2.10,MacIntel,60,61025ae37ef11b136ea224fe,,,,,,,,,1142,-58,-28,1,0,0,response5disk,,2,7,-4,1,0,0,rectangle,7,-4,1,0,0,7,-4,1,0,0,0,136,136,90,1,,,,,,,,
,,,,,,,,,,,,,FF,,,,,,,,1.533,,,,,,,,,,,,,,,,,,,,,,6102fab304462811ad2fc5c5,61036e223336c5504ee15566,2021-07-29_20h13.33.030,Simcolourproject_2stim_asymm_v5,2020.2.10,MacIntel,60,61025ae37ef11b136ea224fe,,,,,,,,,3911,-88,-25,1,0,0,response5disk,,2,-27,-7,1,0,0,rectangle,-27,-7,1,0,0,-27,-7,1,0,0,0,137,137,13,1,,,,,,,,
,,,,,,,,,,,,,FF,,,,,,,,0.966,,,,,,,,,,,,,,,,,,,,,,6102fab304462811ad2fc5c5,61036e223336c5504ee15566,2021-07-29_20h13.33.030,Simcolourproject_2stim_asymm_v5,2020.2.10,MacIntel,60,61025ae37ef11b136ea224fe,,,,,,,,,3759,26,-44,1,0,0,response3disk,,4,21,-17,1,0,0,rectangle,21,-17,1,0,0,21,-17,1,0,0,0,138,138,16,1,,,,,,,,
,,,,,,,,,,,,,FF,,,,,,,,0.466,,,,,,,,,,,,,,,,,,,,,,6102fab304462811ad2fc5c5,61036e223336c5504ee15566,2021-07-29_20h13.33.030,Simcolourproject_2stim_asymm_v5,2020.2.10,MacIntel,60,61025ae37ef11b136ea224fe,,,,,,,,,3831,54,-55,1,0,0,response3disk,,4,9,2,1,0,0,rectangle,9,2,1,0,0,9,2,1,0,0,0,139,139,0,1,,,,,,,,
,,,,,,,,,,,,,FF,,,,,,,,0.6,,,,,,,,,,,,,,,,,,,,,,6102fab304462811ad2fc5c5,61036e223336c5504ee15566,2021-07-29_20h13.33.030,Simcolourproject_2stim_asymm_v5,2020.2.10,MacIntel,60,61025ae37ef11b136ea224fe,,,,,,,,,113,54,39,1,0,0,response1disk,,6,-16,0,1,0,0,rectangle,-16,0,1,0,0,-16,0,1,0,0,0,140,140,55,1,,,,,,,,
,,,,,,,,,,,,,FF,,,,,,,,0.699,,,,,,,,,,,,,,,,,,,,,,6102fab304462811ad2fc5c5,61036e223336c5504ee15566,2021-07-29_20h13.33.030,Simcolourproject_2stim_asymm_v5,2020.2.10,MacIntel,60,61025ae37ef11b136ea224fe,,,,,,,,,3016,27,92,1,0,0,response1disk,,7,11,8,1,0,0,rectangle,11,8,1,0,0,11,8,1,0,0,0,141,141,12,1,,,,,,,,
,,,,,,,,,,,,,FF,,,,,,,,0.65,,,,,,,,,,,,,,,,,,,,,,6102fab304462811ad2fc5c5,61036e223336c5504ee15566,2021-07-29_20h13.33.030,Simcolourproject_2stim_asymm_v5,2020.2.10,MacIntel,60,61025ae37ef11b136ea224fe,,,,,,,,,1144,-80,-30,1,0,0,response5disk,,2,-14,-6,1,0,0,rectangle,-14,-6,1,0,0,-14,-6,1,0,0,0,142,142,30,1,,,,,,,,
,,,,,,,,,,,,,FF,,,,,,,,0.733,,,,,,,,,,,,,,,,,,,,,,6102fab304462811ad2fc5c5,61036e223336c5504ee15566,2021-07-29_20h13.33.030,Simcolourproject_2stim_asymm_v5,2020.2.10,MacIntel,60,61025ae37ef11b136ea224fe,,,,,,,,,994,50,38,1,0,0,response1disk,,6,10,8,1,0,0,rectangle,10,8,1,0,0,10,8,1,0,0,0,143,143,114,1,,,,,,,,
,,,,,,,,,,,,,FF,,,,,,,,1.584,,,,,,,,,,,,,,,,,,,,,,6102fab304462811ad2fc5c5,61036e223336c5504ee15566,2021-07-29_20h13.33.030,Simcolourproject_2stim_asymm_v5,2020.2.10,MacIntel,60,61025ae37ef11b136ea224fe,,,,,,,,,3212,29,60,1,0,0,response1disk,,7,11,-11,1,0,0,rectangle,11,-11,1,0,0,11,-11,1,0,0,0,144,144,130,1,,,,,,,,
,,,,,,,,,,,,,FF,,,,,,,,3.383,,,,,,,,,,,,,,,,,,,,,,6102fab304462811ad2fc5c5,61036e223336c5504ee15566,2021-07-29_20h13.33.030,Simcolourproject_2stim_asymm_v5,2020.2.10,MacIntel,60,61025ae37ef11b136ea224fe,,,,,,,,,492,46,20,1,0,0,response1disk,,6,13,10,1,0,0,rectangle,13,10,1,0,0,13,10,1,0,0,0,145,145,106,1,,,,,,,,
,,,,,,,,,,,,,FF,,,,,,,,0.566,,,,,,,,,,,,,,,,,,,,,,6102fab304462811ad2fc5c5,61036e223336c5504ee15566,2021-07-29_20h13.33.030,Simcolourproject_2stim_asymm_v5,2020.2.10,MacIntel,60,61025ae37ef11b136ea224fe,,,,,,,,,4088,-74,-17,1,0,0,response5disk,,2,24,11,1,0,0,rectangle,24,11,1,0,0,24,11,1,0,0,0,146,146,101,1,,,,,,,,
,,,,,,,,,,,,,FF,,,,,,,,0.567,,,,,,,,,,,,,,,,,,,,,,6102fab304462811ad2fc5c5,61036e223336c5504ee15566,2021-07-29_20h13.33.030,Simcolourproject_2stim_asymm_v5,2020.2.10,MacIntel,60,61025ae37ef11b136ea224fe,,,,,,,,,3105,-73,32,1,0,0,response7disk,,1,-28,10,1,0,0,rectangle,-28,10,1,0,0,-28,10,1,0,0,0,147,147,156,1,,,,,,,,
,,,,,,,,,,,,,FF,,,,,,,,0.55,,,,,,,,,,,,,,,,,,,,,,6102fab304462811ad2fc5c5,61036e223336c5504ee15566,2021-07-29_20h13.33.030,Simcolourproject_2stim_asymm_v5,2020.2.10,MacIntel,60,61025ae37ef11b136ea224fe,,,,,,,,,672,53,53,1,0,0,response1disk,,7,-12,3,1,0,0,rectangle,-12,3,1,0,0,-12,3,1,0,0,0,148,148,148,1,,,,,,,,
,,,,,,,,,,,,,FF,,,,,,,,0.699,,,,,,,,,,,,,,,,,,,,,,6102fab304462811ad2fc5c5,61036e223336c5504ee15566,2021-07-29_20h13.33.030,Simcolourproject_2stim_asymm_v5,2020.2.10,MacIntel,60,61025ae37ef11b136ea224fe,,,,,,,,,3787,-51,31,1,0,0,response7disk,,1,-13,11,1,0,0,rectangle,-13,11,1,0,0,-13,11,1,0,0,0,149,149,86,1,,,,,,,,
,,,,,,,,,,,,,FF,,,,,,,,0.517,,,,,,,,,,,,,,,,,,,,,,6102fab304462811ad2fc5c5,61036e223336c5504ee15566,2021-07-29_20h13.33.030,Simcolourproject_2stim_asymm_v5,2020.2.10,MacIntel,60,61025ae37ef11b136ea224fe,,,,,,,,,642,-56,-26,1,0,0,response5disk,,2,-15,-13,1,0,0,rectangle,-15,-13,1,0,0,-15,-13,1,0,0,0,150,150,133,1,,,,,,,,
,,,,,,,,,,,,,FF,,,,,,,,0.751,,,,,,,,,,,,,,,,,,,,,,6102fab304462811ad2fc5c5,61036e223336c5504ee15566,2021-07-29_20h13.33.030,Simcolourproject_2stim_asymm_v5,2020.2.10,MacIntel,60,61025ae37ef11b136ea224fe,,,,,,,,,2252,33,-63,1,0,0,response3disk,,4,18,-14,1,0,0,rectangle,18,-14,1,0,0,18,-14,1,0,0,0,151,151,89,1,,,,,,,,
,,,,,,,,,,,,,FF,,,,,,,,0.501,,,,,,,,,,,,,,,,,,,,,,6102fab304462811ad2fc5c5,61036e223336c5504ee15566,2021-07-29_20h13.33.030,Simcolourproject_2stim_asymm_v5,2020.2.10,MacIntel,60,61025ae37ef11b136ea224fe,,,,,,,,,326,59,-31,1,0,0,response3disk,,5,10,-13,1,0,0,rectangle,10,-13,1,0,0,10,-13,1,0,0,0,152,152,49,1,,,,,,,,
,,,,,,,,,,,,,FF,,,,,,,,1.098,,,,,,,,,,,,,,,,,,,,,,6102fab304462811ad2fc5c5,61036e223336c5504ee15566,2021-07-29_20h13.33.030,Simcolourproject_2stim_asymm_v5,2020.2.10,MacIntel,60,61025ae37ef11b136ea224fe,,,,,,,,,3596,-44,-57,1,0,0,response5disk,,3,-1,-15,1,0,0,rectangle,-1,-15,1,0,0,-1,-15,1,0,0,0,153,153,66,1,,,,,,,,
,,,,,,,,,,,,,FF,,,,,,,,0.616,,,,,,,,,,,,,,,,,,,,,,6102fab304462811ad2fc5c5,61036e223336c5504ee15566,2021-07-29_20h13.33.030,Simcolourproject_2stim_asymm_v5,2020.2.10,MacIntel,60,61025ae37ef11b136ea224fe,,,,,,,,,2779,-51,28,1,0,0,response7disk,,1,-15,15,1,0,0,rectangle,-15,15,1,0,0,-15,15,1,0,0,0,154,154,107,1,,,,,,,,
,,,,,,,,,,,,,FF,,,,,,,,0.533,,,,,,,,,,,,,,,,,,,,,,6102fab304462811ad2fc5c5,61036e223336c5504ee15566,2021-07-29_20h13.33.030,Simcolourproject_2stim_asymm_v5,2020.2.10,MacIntel,60,61025ae37ef11b136ea224fe,,,,,,,,,931,57,63,1,0,0,response1disk,,7,-3,5,1,0,0,rectangle,-3,5,1,0,0,-3,5,1,0,0,0,155,155,82,1,,,,,,,,
,,,,,,,,,,,,,FF,,,,,,,,0.75,,,,,,,,,,,,,,,,,,,,,,6102fab304462811ad2fc5c5,61036e223336c5504ee15566,2021-07-29_20h13.33.030,Simcolourproject_2stim_asymm_v5,2020.2.10,MacIntel,60,61025ae37ef11b136ea224fe,,,,,,,,,462,-75,-43,1,0,0,response5disk,,2,4,-6,1,0,0,rectangle,4,-6,1,0,0,4,-6,1,0,0,0,156,156,45,1,,,,,,,,
,,,,,,,,,,,,,FF,,,,,,,,0.6,,,,,,,,,,,,,,,,,,,,,,6102fab304462811ad2fc5c5,61036e223336c5504ee15566,2021-07-29_20h13.33.030,Simcolourproject_2stim_asymm_v5,2020.2.10,MacIntel,60,61025ae37ef11b136ea224fe,,,,,,,,,4142,-66,-33,1,0,0,response5disk,,2,-20,-16,1,0,0,rectangle,-82,-37,1,0,0,20,-4,1,0,0,0,157,157,39,1,,response5disk_3,TRUE,2,2,"[83,306,116,258,133,286,54,182,38,66,68,183,106,206,207,101,110,158,99,210]",1.502,rectangle
,,,,,,,,,,,,,FF,,,,,,,,0.734,,,,,,,,,,,,,,,,,,,,,,6102fab304462811ad2fc5c5,61036e223336c5504ee15566,2021-07-29_20h13.33.030,Simcolourproject_2stim_asymm_v5,2020.2.10,MacIntel,60,61025ae37ef11b136ea224fe,,,,,,,,,1590,-84,22,1,0,0,response7disk,,1,-22,3,1,0,0,rectangle,-22,3,1,0,0,-22,3,1,0,0,0,158,158,117,1,,,,,,,,
,,,,,,,,,,,,,FF,,,,,,,,0.533,,,,,,,,,,,,,,,,,,,,,,6102fab304462811ad2fc5c5,61036e223336c5504ee15566,2021-07-29_20h13.33.030,Simcolourproject_2stim_asymm_v5,2020.2.10,MacIntel,60,61025ae37ef11b136ea224fe,,,,,,,,,1578,63,28,1,0,0,response1disk,,6,14,2,1,0,0,rectangle,14,2,1,0,0,14,2,1,0,0,0,159,159,6,1,,,,,,,,
,,,,,,,,,,,,,FF,,,,,,,,0.6,,,,,,,,,,,,,,,,,,,,,,6102fab304462811ad2fc5c5,61036e223336c5504ee15566,2021-07-29_20h13.33.030,Simcolourproject_2stim_asymm_v5,2020.2.10,MacIntel,60,61025ae37ef11b136ea224fe,,,,,,,,,1160,82,34,1,0,0,response1disk,,6,22,14,1,0,0,rectangle,22,14,1,0,0,22,14,1,0,0,1,0,160,89,1,,,,,,,,
,,,,,,,,,,,,,FF,,,,,,,,0.633,,,,,,,,,,,,,,,,,,,,,,6102fab304462811ad2fc5c5,61036e223336c5504ee15566,2021-07-29_20h13.33.030,Simcolourproject_2stim_asymm_v5,2020.2.10,MacIntel,60,61025ae37ef11b136ea224fe,,,,,,,,,4351,-83,36,1,0,0,response7disk,,1,-13,2,1,0,0,rectangle,-13,2,1,0,0,-13,2,1,0,0,1,1,161,145,1,,,,,,,,
,,,,,,,,,,,,,FF,,,,,,,,0.499,,,,,,,,,,,,,,,,,,,,,,6102fab304462811ad2fc5c5,61036e223336c5504ee15566,2021-07-29_20h13.33.030,Simcolourproject_2stim_asymm_v5,2020.2.10,MacIntel,60,61025ae37ef11b136ea224fe,,,,,,,,,3057,-68,29,1,0,0,response7disk,,1,-21,1,1,0,0,rectangle,-21,1,1,0,0,-21,1,1,0,0,1,2,162,22,1,,,,,,,,
,,,,,,,,,,,,,FF,,,,,,,,0.633,,,,,,,,,,,,,,,,,,,,,,6102fab304462811ad2fc5c5,61036e223336c5504ee15566,2021-07-29_20h13.33.030,Simcolourproject_2stim_asymm_v5,2020.2.10,MacIntel,60,61025ae37ef11b136ea224fe,,,,,,,,,3094,103,58,1,0,0,response1disk,,6,16,15,1,0,0,rectangle,16,15,1,0,0,16,15,1,0,0,1,3,163,143,1,,,,,,,,
,,,,,,,,,,,,,FF,,,,,,,,0.717,,,,,,,,,,,,,,,,,,,,,,6102fab304462811ad2fc5c5,61036e223336c5504ee15566,2021-07-29_20h13.33.030,Simcolourproject_2stim_asymm_v5,2020.2.10,MacIntel,60,61025ae37ef11b136ea224fe,,,,,,,,,1137,-88,-38,1,0,0,response5disk,,2,16,-9,1,0,0,rectangle,16,-9,1,0,0,16,-9,1,0,0,1,4,164,123,1,,,,,,,,
,,,,,,,,,,,,,FF,,,,,,,,0.465,,,,,,,,,,,,,,,,,,,,,,6102fab304462811ad2fc5c5,61036e223336c5504ee15566,2021-07-29_20h13.33.030,Simcolourproject_2stim_asymm_v5,2020.2.10,MacIntel,60,61025ae37ef11b136ea224fe,,,,,,,,,4240,-57,-35,1,0,0,response5disk,,2,10,9,1,0,0,rectangle,10,9,1,0,0,10,9,1,0,0,1,5,165,152,1,,,,,,,,
,,,,,,,,,,,,,FF,,,,,,,,0.8,,,,,,,,,,,,,,,,,,,,,,6102fab304462811ad2fc5c5,61036e223336c5504ee15566,2021-07-29_20h13.33.030,Simcolourproject_2stim_asymm_v5,2020.2.10,MacIntel,60,61025ae37ef11b136ea224fe,,,,,,,,,649,-23,-49,1,0,0,response5disk,,3,9,2,1,0,0,rectangle,9,2,1,0,0,9,2,1,0,0,1,6,166,47,1,,,,,,,,
,,,,,,,,,,,,,FF,,,,,,,,0.718,,,,,,,,,,,,,,,,,,,,,,6102fab304462811ad2fc5c5,61036e223336c5504ee15566,2021-07-29_20h13.33.030,Simcolourproject_2stim_asymm_v5,2020.2.10,MacIntel,60,61025ae37ef11b136ea224fe,,,,,,,,,3516,-90,28,1,0,0,response7disk,,1,-22,10,1,0,0,rectangle,-22,10,1,0,0,-22,10,1,0,0,1,7,167,13,1,,,,,,,,
,,,,,,,,,,,,,FF,,,,,,,,0.682,,,,,,,,,,,,,,,,,,,,,,6102fab304462811ad2fc5c5,61036e223336c5504ee15566,2021-07-29_20h13.33.030,Simcolourproject_2stim_asymm_v5,2020.2.10,MacIntel,60,61025ae37ef11b136ea224fe,,,,,,,,,1402,85,67,1,0,0,response1disk,,6,11,9,1,0,0,rectangle,11,9,1,0,0,11,9,1,0,0,1,8,168,149,1,,,,,,,,
,,,,,,,,,,,,,FF,,,,,,,,0.516,,,,,,,,,,,,,,,,,,,,,,6102fab304462811ad2fc5c5,61036e223336c5504ee15566,2021-07-29_20h13.33.030,Simcolourproject_2stim_asymm_v5,2020.2.10,MacIntel,60,61025ae37ef11b136ea224fe,,,,,,,,,3590,69,58,1,0,0,response1disk,,6,24,15,1,0,0,rectangle,24,15,1,0,0,24,15,1,0,0,1,9,169,52,1,,,,,,,,
,,,,,,,,,,,,,FF,,,,,,,,0.6,,,,,,,,,,,,,,,,,,,,,,6102fab304462811ad2fc5c5,61036e223336c5504ee15566,2021-07-29_20h13.33.030,Simcolourproject_2stim_asymm_v5,2020.2.10,MacIntel,60,61025ae37ef11b136ea224fe,,,,,,,,,2156,29,42,1,0,0,response1disk,,7,18,7,1,0,0,rectangle,18,7,1,0,0,18,7,1,0,0,1,10,170,62,1,,,,,,,,
,,,,,,,,,,,,,FF,,,,,,,,0.767,,,,,,,,,,,,,,,,,,,,,,6102fab304462811ad2fc5c5,61036e223336c5504ee15566,2021-07-29_20h13.33.030,Simcolourproject_2stim_asymm_v5,2020.2.10,MacIntel,60,61025ae37ef11b136ea224fe,,,,,,,,,4239,-91,-35,1,0,0,response5disk,,2,-12,2,1,0,0,rectangle,-12,2,1,0,0,-12,2,1,0,0,1,11,171,71,1,,,,,,,,
,,,,,,,,,,,,,FF,,,,,,,,1.285,,,,,,,,,,,,,,,,,,,,,,6102fab304462811ad2fc5c5,61036e223336c5504ee15566,2021-07-29_20h13.33.030,Simcolourproject_2stim_asymm_v5,2020.2.10,MacIntel,60,61025ae37ef11b136ea224fe,,,,,,,,,1814,-42,-83,1,0,0,response5disk,,3,-13,-2,1,0,0,rectangle,-13,-2,1,0,0,-13,-2,1,0,0,1,12,172,14,1,,,,,,,,
,,,,,,,,,,,,,FF,,,,,,,,0.767,,,,,,,,,,,,,,,,,,,,,,6102fab304462811ad2fc5c5,61036e223336c5504ee15566,2021-07-29_20h13.33.030,Simcolourproject_2stim_asymm_v5,2020.2.10,MacIntel,60,61025ae37ef11b136ea224fe,,,,,,,,,4316,-31,76,1,0,0,response7disk,,0,-12,11,1,0,0,rectangle,-12,11,1,0,0,-12,11,1,0,0,1,13,173,119,1,,,,,,,,
,,,,,,,,,,,,,FF,,,,,,,,0.633,,,,,,,,,,,,,,,,,,,,,,6102fab304462811ad2fc5c5,61036e223336c5504ee15566,2021-07-29_20h13.33.030,Simcolourproject_2stim_asymm_v5,2020.2.10,MacIntel,60,61025ae37ef11b136ea224fe,,,,,,,,,2766,56,107,1,0,0,response1disk,,7,2,15,1,0,0,rectangle,2,15,1,0,0,2,15,1,0,0,1,14,174,144,1,,,,,,,,
,,,,,,,,,,,,,FF,,,,,,,,0.751,,,,,,,,,,,,,,,,,,,,,,6102fab304462811ad2fc5c5,61036e223336c5504ee15566,2021-07-29_20h13.33.030,Simcolourproject_2stim_asymm_v5,2020.2.10,MacIntel,60,61025ae37ef11b136ea224fe,,,,,,,,,2787,60,34,1,0,0,response1disk,,6,-1,-1,1,0,0,rectangle,-1,-1,1,0,0,-1,-1,1,0,0,1,15,175,26,1,,,,,,,,
,,,,,,,,,,,,,FF,,,,,,,,0.616,,,,,,,,,,,,,,,,,,,,,,6102fab304462811ad2fc5c5,61036e223336c5504ee15566,2021-07-29_20h13.33.030,Simcolourproject_2stim_asymm_v5,2020.2.10,MacIntel,60,61025ae37ef11b136ea224fe,,,,,,,,,2531,79,-55,1,0,0,response3disk,,5,19,-15,1,0,0,rectangle,19,-15,1,0,0,19,-15,1,0,0,1,16,176,32,1,,,,,,,,
,,,,,,,,,,,,,FF,,,,,,,,0.567,,,,,,,,,,,,,,,,,,,,,,6102fab304462811ad2fc5c5,61036e223336c5504ee15566,2021-07-29_20h13.33.030,Simcolourproject_2stim_asymm_v5,2020.2.10,MacIntel,60,61025ae37ef11b136ea224fe,,,,,,,,,1702,52,49,1,0,0,response1disk,,6,10,-16,1,0,0,rectangle,10,-16,1,0,0,10,-16,1,0,0,1,17,177,80,1,,,,,,,,
,,,,,,,,,,,,,FF,,,,,,,,0.616,,,,,,,,,,,,,,,,,,,,,,6102fab304462811ad2fc5c5,61036e223336c5504ee15566,2021-07-29_20h13.33.030,Simcolourproject_2stim_asymm_v5,2020.2.10,MacIntel,60,61025ae37ef11b136ea224fe,,,,,,,,,3405,40,61,1,0,0,response1disk,,7,16,9,1,0,0,rectangle,16,9,1,0,0,16,9,1,0,0,1,18,178,59,1,,,,,,,,
,,,,,,,,,,,,,FF,,,,,,,,0.7,,,,,,,,,,,,,,,,,,,,,,6102fab304462811ad2fc5c5,61036e223336c5504ee15566,2021-07-29_20h13.33.030,Simcolourproject_2stim_asymm_v5,2020.2.10,MacIntel,60,61025ae37ef11b136ea224fe,,,,,,,,,3138,-88,-24,1,0,0,response5disk,,2,11,6,1,0,0,rectangle,11,6,1,0,0,11,6,1,0,0,1,19,179,83,1,,,,,,,,
,,,,,,,,,,,,,FF,,,,,,,,0.849,,,,,,,,,,,,,,,,,,,,,,6102fab304462811ad2fc5c5,61036e223336c5504ee15566,2021-07-29_20h13.33.030,Simcolourproject_2stim_asymm_v5,2020.2.10,MacIntel,60,61025ae37ef11b136ea224fe,,,,,,,,,817,-47,-90,1,0,0,response5disk,,3,-7,2,1,0,0,rectangle,-7,2,1,0,0,-7,2,1,0,0,1,20,180,1,1,,,,,,,,
,,,,,,,,,,,,,FF,,,,,,,,0.467,,,,,,,,,,,,,,,,,,,,,,6102fab304462811ad2fc5c5,61036e223336c5504ee15566,2021-07-29_20h13.33.030,Simcolourproject_2stim_asymm_v5,2020.2.10,MacIntel,60,61025ae37ef11b136ea224fe,,,,,,,,,615,-101,-47,1,0,0,response5disk,,2,9,-6,1,0,0,rectangle,-30,-77,1,0,0,4,-6,1,0,0,1,21,181,45,1,,response5disk_3,TRUE,3,3,"[83,306,116,258,133,286,54,182,38,66,68,183,106,206,207,101,110,158,99,210]",1.449,rectangle
,,,,,,,,,,,,,FF,,,,,,,,0.982,,,,,,,,,,,,,,,,,,,,,,6102fab304462811ad2fc5c5,61036e223336c5504ee15566,2021-07-29_20h13.33.030,Simcolourproject_2stim_asymm_v5,2020.2.10,MacIntel,60,61025ae37ef11b136ea224fe,,,,,,,,,2573,106,-40,1,0,0,response3disk,,5,28,-14,1,0,0,rectangle,46,74,1,0,0,26,4,1,0,0,1,22,182,92,1,,response1disk_3,TRUE,7,7,"[83,306,116,258,133,286,54,182,38,66,68,183,106,206,207,101,110,158,99,210]",1.215,rectangle
,,,,,,,,,,,,,FF,,,,,,,,0.584,,,,,,,,,,,,,,,,,,,,,,6102fab304462811ad2fc5c5,61036e223336c5504ee15566,2021-07-29_20h13.33.030,Simcolourproject_2stim_asymm_v5,2020.2.10,MacIntel,60,61025ae37ef11b136ea224fe,,,,,,,,,239,33,67,1,0,0,response1disk,,7,10,16,1,0,0,rectangle,10,16,1,0,0,10,16,1,0,0,1,23,183,23,1,,,,,,,,
,,,,,,,,,,,,,FF,,,,,,,,0.565,,,,,,,,,,,,,,,,,,,,,,6102fab304462811ad2fc5c5,61036e223336c5504ee15566,2021-07-29_20h13.33.030,Simcolourproject_2stim_asymm_v5,2020.2.10,MacIntel,60,61025ae37ef11b136ea224fe,,,,,,,,,2478,50,20,1,0,0,response1disk,,6,10,-2,1,0,0,rectangle,10,-2,1,0,0,10,-2,1,0,0,1,24,184,20,1,,,,,,,,
,,,,,,,,,,,,,FF,,,,,,,,0.6,,,,,,,,,,,,,,,,,,,,,,6102fab304462811ad2fc5c5,61036e223336c5504ee15566,2021-07-29_20h13.33.030,Simcolourproject_2stim_asymm_v5,2020.2.10,MacIntel,60,61025ae37ef11b136ea224fe,,,,,,,,,3728,33,-53,1,0,0,response3disk,,4,24,-4,1,0,0,rectangle,24,-4,1,0,0,24,-4,1,0,0,1,25,185,120,1,,,,,,,,
,,,,,,,,,,,,,FF,,,,,,,,0.584,,,,,,,,,,,,,,,,,,,,,,6102fab304462811ad2fc5c5,61036e223336c5504ee15566,2021-07-29_20h13.33.030,Simcolourproject_2stim_asymm_v5,2020.2.10,MacIntel,60,61025ae37ef11b136ea224fe,,,,,,,,,2832,-68,-20,1,0,0,response5disk,,2,-18,0,1,0,0,rectangle,-18,0,1,0,0,-18,0,1,0,0,1,26,186,158,1,,,,,,,,
,,,,,,,,,,,,,FF,,,,,,,,0.451,,,,,,,,,,,,,,,,,,,,,,6102fab304462811ad2fc5c5,61036e223336c5504ee15566,2021-07-29_20h13.33.030,Simcolourproject_2stim_asymm_v5,2020.2.10,MacIntel,60,61025ae37ef11b136ea224fe,,,,,,,,,2960,43,46,1,0,0,response1disk,,7,17,11,1,0,0,rectangle,17,11,1,0,0,17,11,1,0,0,1,27,187,76,1,,,,,,,,
,,,,,,,,,,,,,FF,,,,,,,,0.684,,,,,,,,,,,,,,,,,,,,,,6102fab304462811ad2fc5c5,61036e223336c5504ee15566,2021-07-29_20h13.33.030,Simcolourproject_2stim_asymm_v5,2020.2.10,MacIntel,60,61025ae37ef11b136ea224fe,,,,,,,,,1940,-48,-80,1,0,0,response5disk,,3,-5,4,1,0,0,rectangle,-5,4,1,0,0,-5,4,1,0,0,1,28,188,46,1,,,,,,,,
,,,,,,,,,,,,,FF,,,,,,,,0.5,,,,,,,,,,,,,,,,,,,,,,6102fab304462811ad2fc5c5,61036e223336c5504ee15566,2021-07-29_20h13.33.030,Simcolourproject_2stim_asymm_v5,2020.2.10,MacIntel,60,61025ae37ef11b136ea224fe,,,,,,,,,3413,79,-24,1,0,0,response3disk,,5,32,-2,1,0,0,rectangle,32,-2,1,0,0,32,-2,1,0,0,1,29,189,124,1,,,,,,,,
,,,,,,,,,,,,,FF,,,,,,,,0.682,,,,,,,,,,,,,,,,,,,,,,6102fab304462811ad2fc5c5,61036e223336c5504ee15566,2021-07-29_20h13.33.030,Simcolourproject_2stim_asymm_v5,2020.2.10,MacIntel,60,61025ae37ef11b136ea224fe,,,,,,,,,987,-67,-86,1,0,0,response5disk,,3,-10,0,1,0,0,rectangle,-10,0,1,0,0,-10,0,1,0,0,1,30,190,104,1,,,,,,,,
,,,,,,,,,,,,,FF,,,,,,,,0.983,,,,,,,,,,,,,,,,,,,,,,6102fab304462811ad2fc5c5,61036e223336c5504ee15566,2021-07-29_20h13.33.030,Simcolourproject_2stim_asymm_v5,2020.2.10,MacIntel,60,61025ae37ef11b136ea224fe,,,,,,,,,54,49,23,1,0,0,response1disk,,6,-5,-16,1,0,0,rectangle,-5,-16,1,0,0,-5,-16,1,0,0,1,31,191,94,1,,,,,,,,
,,,,,,,,,,,,,FF,,,,,,,,0.651,,,,,,,,,,,,,,,,,,,,,,6102fab304462811ad2fc5c5,61036e223336c5504ee15566,2021-07-29_20h13.33.030,Simcolourproject_2stim_asymm_v5,2020.2.10,MacIntel,60,61025ae37ef11b136ea224fe,,,,,,,,,1697,-53,-66,1,0,0,response5disk,,3,-16,-14,1,0,0,rectangle,-16,-14,1,0,0,-16,-14,1,0,0,1,32,192,146,1,,,,,,,,
,,,,,,,,,,,,,FF,,,,,,,,0.584,,,,,,,,,,,,,,,,,,,,,,6102fab304462811ad2fc5c5,61036e223336c5504ee15566,2021-07-29_20h13.33.030,Simcolourproject_2stim_asymm_v5,2020.2.10,MacIntel,60,61025ae37ef11b136ea224fe,,,,,,,,,1069,-73,-39,1,0,0,response5disk,,2,2,4,1,0,0,rectangle,2,4,1,0,0,2,4,1,0,0,1,33,193,4,1,,,,,,,,
,,,,,,,,,,,,,FF,,,,,,,,0.566,,,,,,,,,,,,,,,,,,,,,,6102fab304462811ad2fc5c5,61036e223336c5504ee15566,2021-07-29_20h13.33.030,Simcolourproject_2stim_asymm_v5,2020.2.10,MacIntel,60,61025ae37ef11b136ea224fe,,,,,,,,,1294,-78,-36,1,0,0,response5disk,,2,5,6,1,0,0,rectangle,5,6,1,0,0,5,6,1,0,0,1,34,194,61,1,,,,,,,,
,,,,,,,,,,,,,FF,,,,,,,,0.467,,,,,,,,,,,,,,,,,,,,,,6102fab304462811ad2fc5c5,61036e223336c5504ee15566,2021-07-29_20h13.33.030,Simcolourproject_2stim_asymm_v5,2020.2.10,MacIntel,60,61025ae37ef11b136ea224fe,,,,,,,,,4296,58,60,1,0,0,response1disk,,7,9,1,1,0,0,rectangle,9,1,1,0,0,9,1,1,0,0,1,35,195,86,1,,,,,,,,
,,,,,,,,,,,,,FF,,,,,,,,0.517,,,,,,,,,,,,,,,,,,,,,,6102fab304462811ad2fc5c5,61036e223336c5504ee15566,2021-07-29_20h13.33.030,Simcolourproject_2stim_asymm_v5,2020.2.10,MacIntel,60,61025ae37ef11b136ea224fe,,,,,,,,,1923,39,58,1,0,0,response1disk,,7,3,0,1,0,0,rectangle,3,0,1,0,0,3,0,1,0,0,1,36,196,12,1,,,,,,,,
,,,,,,,,,,,,,FF,,,,,,,,0.717,,,,,,,,,,,,,,,,,,,,,,6102fab304462811ad2fc5c5,61036e223336c5504ee15566,2021-07-29_20h13.33.030,Simcolourproject_2stim_asymm_v5,2020.2.10,MacIntel,60,61025ae37ef11b136ea224fe,,,,,,,,,3002,-74,-42,1,0,0,response5disk,,2,-8,7,1,0,0,rectangle,-8,7,1,0,0,-8,7,1,0,0,1,37,197,140,1,,,,,,,,
,,,,,,,,,,,,,FF,,,,,,,,2.151,,,,,,,,,,,,,,,,,,,,,,6102fab304462811ad2fc5c5,61036e223336c5504ee15566,2021-07-29_20h13.33.030,Simcolourproject_2stim_asymm_v5,2020.2.10,MacIntel,60,61025ae37ef11b136ea224fe,,,,,,,,,3316,55,-30,1,0,0,response3disk,,5,9,5,1,0,0,rectangle,9,5,1,0,0,9,5,1,0,0,1,38,198,42,1,,,,,,,,
,,,,,,,,,,,,,FF,,,,,,,,1.716,,,,,,,,,,,,,,,,,,,,,,6102fab304462811ad2fc5c5,61036e223336c5504ee15566,2021-07-29_20h13.33.030,Simcolourproject_2stim_asymm_v5,2020.2.10,MacIntel,60,61025ae37ef11b136ea224fe,,,,,,,,,2362,-75,-36,1,0,0,response5disk,,2,-7,-2,1,0,0,rectangle,-7,-2,1,0,0,-7,-2,1,0,0,1,39,199,99,1,,,,,,,,
,,,,,,,,,,,,,FF,,,,,,,,0.533,,,,,,,,,,,,,,,,,,,,,,6102fab304462811ad2fc5c5,61036e223336c5504ee15566,2021-07-29_20h13.33.030,Simcolourproject_2stim_asymm_v5,2020.2.10,MacIntel,60,61025ae37ef11b136ea224fe,,,,,,,,,1666,35,53,1,0,0,response1disk,,7,3,-3,1,0,0,rectangle,3,-3,1,0,0,3,-3,1,0,0,1,40,200,19,1,,,,,,,,
,,,,,,,,,,,,,FF,,,,,,,,0.733,,,,,,,,,,,,,,,,,,,,,,6102fab304462811ad2fc5c5,61036e223336c5504ee15566,2021-07-29_20h13.33.030,Simcolourproject_2stim_asymm_v5,2020.2.10,MacIntel,60,61025ae37ef11b136ea224fe,,,,,,,,,1741,50,27,1,0,0,response1disk,,6,3,-12,1,0,0,rectangle,3,-12,1,0,0,3,-12,1,0,0,1,41,201,137,1,,,,,,,,
,,,,,,,,,,,,,FF,,,,,,,,0.75,,,,,,,,,,,,,,,,,,,,,,6102fab304462811ad2fc5c5,61036e223336c5504ee15566,2021-07-29_20h13.33.030,Simcolourproject_2stim_asymm_v5,2020.2.10,MacIntel,60,61025ae37ef11b136ea224fe,,,,,,,,,709,63,-36,1,0,0,response3disk,,5,5,-6,1,0,0,rectangle,5,-6,1,0,0,5,-6,1,0,0,1,42,202,8,1,,,,,,,,
,,,,,,,,,,,,,FF,,,,,,,,0.717,,,,,,,,,,,,,,,,,,,,,,6102fab304462811ad2fc5c5,61036e223336c5504ee15566,2021-07-29_20h13.33.030,Simcolourproject_2stim_asymm_v5,2020.2.10,MacIntel,60,61025ae37ef11b136ea224fe,,,,,,,,,110,-79,-40,1,0,0,response5disk,,2,-17,-2,1,0,0,rectangle,-17,-2,1,0,0,-17,-2,1,0,0,1,43,203,96,1,,,,,,,,
,,,,,,,,,,,,,FF,,,,,,,,0.6,,,,,,,,,,,,,,,,,,,,,,6102fab304462811ad2fc5c5,61036e223336c5504ee15566,2021-07-29_20h13.33.030,Simcolourproject_2stim_asymm_v5,2020.2.10,MacIntel,60,61025ae37ef11b136ea224fe,,,,,,,,,1779,63,46,1,0,0,response1disk,,6,19,-4,1,0,0,rectangle,19,-4,1,0,0,19,-4,1,0,0,1,44,204,0,1,,,,,,,,
,,,,,,,,,,,,,FF,,,,,,,,0.685,,,,,,,,,,,,,,,,,,,,,,6102fab304462811ad2fc5c5,61036e223336c5504ee15566,2021-07-29_20h13.33.030,Simcolourproject_2stim_asymm_v5,2020.2.10,MacIntel,60,61025ae37ef11b136ea224fe,,,,,,,,,825,-50,-75,1,0,0,response5disk,,3,-7,8,1,0,0,rectangle,42,78,1,0,0,5,3,1,0,0,1,45,205,139,1,,response1disk_3,TRUE,7,7,"[83,306,116,258,133,286,54,182,38,66,68,183,106,206,207,101,110,158,99,210]",1.233,rectangle
,,,,,,,,,,,,,FF,,,,,,,,1.134,,,,,,,,,,,,,,,,,,,,,,6102fab304462811ad2fc5c5,61036e223336c5504ee15566,2021-07-29_20h13.33.030,Simcolourproject_2stim_asymm_v5,2020.2.10,MacIntel,60,61025ae37ef11b136ea224fe,,,,,,,,,2401,65,37,1,0,0,response1disk,,6,12,2,1,0,0,rectangle,-40,-84,1,0,0,0,-3,1,0,0,1,46,206,5,1,,response5disk_3,TRUE,3,3,"[83,306,116,258,133,286,54,182,38,66,68,183,106,206,207,101,110,158,99,210]",1.282,rectangle
,,,,,,,,,,,,,FF,,,,,,,,0.6,,,,,,,,,,,,,,,,,,,,,,6102fab304462811ad2fc5c5,61036e223336c5504ee15566,2021-07-29_20h13.33.030,Simcolourproject_2stim_asymm_v5,2020.2.10,MacIntel,60,61025ae37ef11b136ea224fe,,,,,,,,,797,56,49,1,0,0,response1disk,,6,10,6,1,0,0,rectangle,10,6,1,0,0,10,6,1,0,0,1,47,207,114,1,,,,,,,,
,,,,,,,,,,,,,FF,,,,,,,,1.351,,,,,,,,,,,,,,,,,,,,,,6102fab304462811ad2fc5c5,61036e223336c5504ee15566,2021-07-29_20h13.33.030,Simcolourproject_2stim_asymm_v5,2020.2.10,MacIntel,60,61025ae37ef11b136ea224fe,,,,,,,,,3061,-50,-68,1,0,0,response5disk,,3,-13,-5,1,0,0,rectangle,-13,-5,1,0,0,-13,-5,1,0,0,1,48,208,95,1,,,,,,,,
,,,,,,,,,,,,,FF,,,,,,,,0.6,,,,,,,,,,,,,,,,,,,,,,6102fab304462811ad2fc5c5,61036e223336c5504ee15566,2021-07-29_20h13.33.030,Simcolourproject_2stim_asymm_v5,2020.2.10,MacIntel,60,61025ae37ef11b136ea224fe,,,,,,,,,1180,60,-25,1,0,0,response3disk,,5,15,-6,1,0,0,rectangle,93,44,1,0,0,-4,-3,1,0,0,1,49,209,57,1,,response1disk_3,TRUE,6,6,"[83,306,116,258,133,286,54,182,38,66,68,183,106,206,207,101,110,158,99,210]",1.634,rectangle
,,,,,,,,,,,,,FF,,,,,,,,0.632,,,,,,,,,,,,,,,,,,,,,,6102fab304462811ad2fc5c5,61036e223336c5504ee15566,2021-07-29_20h13.33.030,Simcolourproject_2stim_asymm_v5,2020.2.10,MacIntel,60,61025ae37ef11b136ea224fe,,,,,,,,,2962,-81,-49,1,0,0,response5disk,,2,-15,-17,1,0,0,rectangle,-15,-17,1,0,0,-15,-17,1,0,0,1,50,210,121,1,,,,,,,,
,,,,,,,,,,,,,FF,,,,,,,,0.899,,,,,,,,,,,,,,,,,,,,,,6102fab304462811ad2fc5c5,61036e223336c5504ee15566,2021-07-29_20h13.33.030,Simcolourproject_2stim_asymm_v5,2020.2.10,MacIntel,60,61025ae37ef11b136ea224fe,,,,,,,,,3824,-41,-24,1,0,0,response5disk,,2,13,10,1,0,0,rectangle,13,10,1,0,0,13,10,1,0,0,1,51,211,105,1,,,,,,,,
,,,,,,,,,,,,,FF,,,,,,,,0.767,,,,,,,,,,,,,,,,,,,,,,6102fab304462811ad2fc5c5,61036e223336c5504ee15566,2021-07-29_20h13.33.030,Simcolourproject_2stim_asymm_v5,2020.2.10,MacIntel,60,61025ae37ef11b136ea224fe,,,,,,,,,4158,34,56,1,0,0,response1disk,,7,12,1,1,0,0,rectangle,12,1,1,0,0,12,1,1,0,0,1,52,212,135,1,,,,,,,,
,,,,,,,,,,,,,FF,,,,,,,,0.899,,,,,,,,,,,,,,,,,,,,,,6102fab304462811ad2fc5c5,61036e223336c5504ee15566,2021-07-29_20h13.33.030,Simcolourproject_2stim_asymm_v5,2020.2.10,MacIntel,60,61025ae37ef11b136ea224fe,,,,,,,,,1598,-58,-67,1,0,0,response5disk,,3,-1,0,1,0,0,rectangle,-1,0,1,0,0,-1,0,1,0,0,1,53,213,78,1,,,,,,,,
,,,,,,,,,,,,,FF,,,,,,,,0.615,,,,,,,,,,,,,,,,,,,,,,6102fab304462811ad2fc5c5,61036e223336c5504ee15566,2021-07-29_20h13.33.030,Simcolourproject_2stim_asymm_v5,2020.2.10,MacIntel,60,61025ae37ef11b136ea224fe,,,,,,,,,3200,-80,-31,1,0,0,response5disk,,2,-13,-16,1,0,0,rectangle,-13,-16,1,0,0,-13,-16,1,0,0,1,54,214,132,1,,,,,,,,
,,,,,,,,,,,,,FF,,,,,,,,0.55,,,,,,,,,,,,,,,,,,,,,,6102fab304462811ad2fc5c5,61036e223336c5504ee15566,2021-07-29_20h13.33.030,Simcolourproject_2stim_asymm_v5,2020.2.10,MacIntel,60,61025ae37ef11b136ea224fe,,,,,,,,,2816,71,38,1,0,0,response1disk,,6,28,7,1,0,0,rectangle,28,7,1,0,0,28,7,1,0,0,1,55,215,41,1,,,,,,,,
,,,,,,,,,,,,,FF,,,,,,,,0.7,,,,,,,,,,,,,,,,,,,,,,6102fab304462811ad2fc5c5,61036e223336c5504ee15566,2021-07-29_20h13.33.030,Simcolourproject_2stim_asymm_v5,2020.2.10,MacIntel,60,61025ae37ef11b136ea224fe,,,,,,,,,3513,-51,-32,1,0,0,response5disk,,2,-24,-12,1,0,0,rectangle,-24,-12,1,0,0,-24,-12,1,0,0,1,56,216,36,1,,,,,,,,
,,,,,,,,,,,,,FF,,,,,,,,1.051,,,,,,,,,,,,,,,,,,,,,,6102fab304462811ad2fc5c5,61036e223336c5504ee15566,2021-07-29_20h13.33.030,Simcolourproject_2stim_asymm_v5,2020.2.10,MacIntel,60,61025ae37ef11b136ea224fe,,,,,,,,,353,-84,-51,1,0,0,response5disk,,2,8,12,1,0,0,rectangle,8,12,1,0,0,8,12,1,0,0,1,57,217,66,1,,,,,,,,
,,,,,,,,,,,,,FF,,,,,,,,0.548,,,,,,,,,,,,,,,,,,,,,,6102fab304462811ad2fc5c5,61036e223336c5504ee15566,2021-07-29_20h13.33.030,Simcolourproject_2stim_asymm_v5,2020.2.10,MacIntel,60,61025ae37ef11b136ea224fe,,,,,,,,,2268,66,40,1,0,0,response1disk,,6,15,15,1,0,0,rectangle,15,15,1,0,0,15,15,1,0,0,1,58,218,56,1,,,,,,,,
,,,,,,,,,,,,,FF,,,,,,,,0.783,,,,,,,,,,,,,,,,,,,,,,6102fab304462811ad2fc5c5,61036e223336c5504ee15566,2021-07-29_20h13.33.030,Simcolourproject_2stim_asymm_v5,2020.2.10,MacIntel,60,61025ae37ef11b136ea224fe,,,,,,,,,2722,-64,-34,1,0,0,response5disk,,2,-8,-8,1,0,0,rectangle,-8,-8,1,0,0,-8,-8,1,0,0,1,59,219,75,1,,,,,,,,
,,,,,,,,,,,,,FF,,,,,,,,0.566,,,,,,,,,,,,,,,,,,,,,,6102fab304462811ad2fc5c5,61036e223336c5504ee15566,2021-07-29_20h13.33.030,Simcolourproject_2stim_asymm_v5,2020.2.10,MacIntel,60,61025ae37ef11b136ea224fe,,,,,,,,,2648,101,68,1,0,0,response1disk,,6,-5,-3,1,0,0,rectangle,-5,-3,1,0,0,-5,-3,1,0,0,1,60,220,118,1,,,,,,,,
,,,,,,,,,,,,,FF,,,,,,,,0.717,,,,,,,,,,,,,,,,,,,,,,6102fab304462811ad2fc5c5,61036e223336c5504ee15566,2021-07-29_20h13.33.030,Simcolourproject_2stim_asymm_v5,2020.2.10,MacIntel,60,61025ae37ef11b136ea224fe,,,,,,,,,2182,30,52,1,0,0,response1disk,,7,10,12,1,0,0,rectangle,10,12,1,0,0,10,12,1,0,0,1,61,221,107,1,,,,,,,,
,,,,,,,,,,,,,FF,,,,,,,,0.851,,,,,,,,,,,,,,,,,,,,,,6102fab304462811ad2fc5c5,61036e223336c5504ee15566,2021-07-29_20h13.33.030,Simcolourproject_2stim_asymm_v5,2020.2.10,MacIntel,60,61025ae37ef11b136ea224fe,,,,,,,,,2714,55,26,1,0,0,response1disk,,6,6,-4,1,0,0,rectangle,6,-4,1,0,0,6,-4,1,0,0,1,62,222,109,1,,,,,,,,
,,,,,,,,,,,,,FF,,,,,,,,0.683,,,,,,,,,,,,,,,,,,,,,,6102fab304462811ad2fc5c5,61036e223336c5504ee15566,2021-07-29_20h13.33.030,Simcolourproject_2stim_asymm_v5,2020.2.10,MacIntel,60,61025ae37ef11b136ea224fe,,,,,,,,,4199,29,67,1,0,0,response1disk,,7,4,14,1,0,0,rectangle,4,14,1,0,0,4,14,1,0,0,1,63,223,102,1,,,,,,,,
,,,,,,,,,,,,,FF,,,,,,,,0.834,,,,,,,,,,,,,,,,,,,,,,6102fab304462811ad2fc5c5,61036e223336c5504ee15566,2021-07-29_20h13.33.030,Simcolourproject_2stim_asymm_v5,2020.2.10,MacIntel,60,61025ae37ef11b136ea224fe,,,,,,,,,2040,-102,25,1,0,0,response7disk,,1,8,10,1,0,0,rectangle,8,10,1,0,0,8,10,1,0,0,1,64,224,65,1,,,,,,,,
,,,,,,,,,,,,,FF,,,,,,,,0.516,,,,,,,,,,,,,,,,,,,,,,6102fab304462811ad2fc5c5,61036e223336c5504ee15566,2021-07-29_20h13.33.030,Simcolourproject_2stim_asymm_v5,2020.2.10,MacIntel,60,61025ae37ef11b136ea224fe,,,,,,,,,1222,-64,34,1,0,0,response7disk,,1,-17,8,1,0,0,rectangle,-17,8,1,0,0,-17,8,1,0,0,1,65,225,91,1,,,,,,,,
,,,,,,,,,,,,,FF,,,,,,,,0.517,,,,,,,,,,,,,,,,,,,,,,6102fab304462811ad2fc5c5,61036e223336c5504ee15566,2021-07-29_20h13.33.030,Simcolourproject_2stim_asymm_v5,2020.2.10,MacIntel,60,61025ae37ef11b136ea224fe,,,,,,,,,3418,38,-31,1,0,0,response3disk,,5,18,-9,1,0,0,rectangle,18,-9,1,0,0,18,-9,1,0,0,1,66,226,125,1,,,,,,,,
,,,,,,,,,,,,,FF,,,,,,,,0.549,,,,,,,,,,,,,,,,,,,,,,6102fab304462811ad2fc5c5,61036e223336c5504ee15566,2021-07-29_20h13.33.030,Simcolourproject_2stim_asymm_v5,2020.2.10,MacIntel,60,61025ae37ef11b136ea224fe,,,,,,,,,1640,50,64,1,0,0,response1disk,,7,3,0,1,0,0,rectangle,3,0,1,0,0,3,0,1,0,0,1,67,227,88,1,,,,,,,,
,,,,,,,,,,,,,FF,,,,,,,,0.816,,,,,,,,,,,,,,,,,,,,,,6102fab304462811ad2fc5c5,61036e223336c5504ee15566,2021-07-29_20h13.33.030,Simcolourproject_2stim_asymm_v5,2020.2.10,MacIntel,60,61025ae37ef11b136ea224fe,,,,,,,,,4077,-69,-33,1,0,0,response5disk,,2,15,16,1,0,0,rectangle,15,16,1,0,0,15,16,1,0,0,1,68,228,69,1,,,,,,,,
,,,,,,,,,,,,,FF,,,,,,,,0.717,,,,,,,,,,,,,,,,,,,,,,6102fab304462811ad2fc5c5,61036e223336c5504ee15566,2021-07-29_20h13.33.030,Simcolourproject_2stim_asymm_v5,2020.2.10,MacIntel,60,61025ae37ef11b136ea224fe,,,,,,,,,2797,83,51,1,0,0,response1disk,,6,16,11,1,0,0,rectangle,16,11,1,0,0,16,11,1,0,0,1,69,229,122,1,,,,,,,,
,,,,,,,,,,,,,FF,,,,,,,,0.534,,,,,,,,,,,,,,,,,,,,,,6102fab304462811ad2fc5c5,61036e223336c5504ee15566,2021-07-29_20h13.33.030,Simcolourproject_2stim_asymm_v5,2020.2.10,MacIntel,60,61025ae37ef11b136ea224fe,,,,,,,,,2991,72,41,1,0,0,response1disk,,6,-3,-7,1,0,0,rectangle,-3,-7,1,0,0,-3,-7,1,0,0,1,70,230,150,1,,,,,,,,
,,,,,,,,,,,,,FF,,,,,,,,1.049,,,,,,,,,,,,,,,,,,,,,,6102fab304462811ad2fc5c5,61036e223336c5504ee15566,2021-07-29_20h13.33.030,Simcolourproject_2stim_asymm_v5,2020.2.10,MacIntel,60,61025ae37ef11b136ea224fe,,,,,,,,,599,86,-26,1,0,0,response3disk,,5,10,-10,1,0,0,rectangle,10,-10,1,0,0,10,-10,1,0,0,1,71,231,93,1,,,,,,,,
,,,,,,,,,,,,,FF,,,,,,,,0.615,,,,,,,,,,,,,,,,,,,,,,6102fab304462811ad2fc5c5,61036e223336c5504ee15566,2021-07-29_20h13.33.030,Simcolourproject_2stim_asymm_v5,2020.2.10,MacIntel,60,61025ae37ef11b136ea224fe,,,,,,,,,1042,49,-22,1,0,0,response3disk,,5,9,-11,1,0,0,rectangle,9,-11,1,0,0,9,-11,1,0,0,1,72,232,51,1,,,,,,,,
,,,,,,,,,,,,,FF,,,,,,,,0.682,,,,,,,,,,,,,,,,,,,,,,6102fab304462811ad2fc5c5,61036e223336c5504ee15566,2021-07-29_20h13.33.030,Simcolourproject_2stim_asymm_v5,2020.2.10,MacIntel,60,61025ae37ef11b136ea224fe,,,,,,,,,3197,-109,23,1,0,0,response7disk,,1,9,-1,1,0,0,rectangle,9,-1,1,0,0,9,-1,1,0,0,1,73,233,141,1,,,,,,,,
,,,,,,,,,,,,,FF,,,,,,,,0.65,,,,,,,,,,,,,,,,,,,,,,6102fab304462811ad2fc5c5,61036e223336c5504ee15566,2021-07-29_20h13.33.030,Simcolourproject_2stim_asymm_v5,2020.2.10,MacIntel,60,61025ae37ef11b136ea224fe,,,,,,,,,2870,27,76,1,0,0,response1disk,,7,7,9,1,0,0,rectangle,7,9,1,0,0,7,9,1,0,0,1,74,234,77,1,,,,,,,,
,,,,,,,,,,,,,FF,,,,,,,,0.767,,,,,,,,,,,,,,,,,,,,,,6102fab304462811ad2fc5c5,61036e223336c5504ee15566,2021-07-29_20h13.33.030,Simcolourproject_2stim_asymm_v5,2020.2.10,MacIntel,60,61025ae37ef11b136ea224fe,,,,,,,,,3938,-27,71,1,0,0,response7disk,,0,8,-3,1,0,0,rectangle,8,-3,1,0,0,8,-3,1,0,0,1,75,235,100,1,,,,,,,,
,,,,,,,,,,,,,FF,,,,,,,,0.717,,,,,,,,,,,,,,,,,,,,,,6102fab304462811ad2fc5c5,61036e223336c5504ee15566,2021-07-29_20h13.33.030,Simcolourproject_2stim_asymm_v5,2020.2.10,MacIntel,60,61025ae37ef11b136ea224fe,,,,,,,,,3352,26,52,1,0,0,response1disk,,7,4,-3,1,0,0,rectangle,4,-3,1,0,0,4,-3,1,0,0,1,76,236,153,1,,,,,,,,
,,,,,,,,,,,,,FF,,,,,,,,0.683,,,,,,,,,,,,,,,,,,,,,,6102fab304462811ad2fc5c5,61036e223336c5504ee15566,2021-07-29_20h13.33.030,Simcolourproject_2stim_asymm_v5,2020.2.10,MacIntel,60,61025ae37ef11b136ea224fe,,,,,,,,,1858,83,68,1,0,0,response1disk,,6,14,2,1,0,0,rectangle,14,2,1,0,0,14,2,1,0,0,1,77,237,115,1,,,,,,,,
,,,,,,,,,,,,,FF,,,,,,,,0.734,,,,,,,,,,,,,,,,,,,,,,6102fab304462811ad2fc5c5,61036e223336c5504ee15566,2021-07-29_20h13.33.030,Simcolourproject_2stim_asymm_v5,2020.2.10,MacIntel,60,61025ae37ef11b136ea224fe,,,,,,,,,1020,44,67,1,0,0,response1disk,,7,0,0,1,0,0,rectangle,0,0,1,0,0,0,0,1,0,0,1,78,238,85,1,,,,,,,,
,,,,,,,,,,,,,FF,,,,,,,,1.25,,,,,,,,,,,,,,,,,,,,,,6102fab304462811ad2fc5c5,61036e223336c5504ee15566,2021-07-29_20h13.33.030,Simcolourproject_2stim_asymm_v5,2020.2.10,MacIntel,60,61025ae37ef11b136ea224fe,,,,,,,,,2563,41,-89,1,0,0,response3disk,,4,-7,4,1,0,0,rectangle,-7,4,1,0,0,-7,4,1,0,0,1,79,239,60,1,,,,,,,,
,,,,,,,,,,,,,FF,,,,,,,,0.882,,,,,,,,,,,,,,,,,,,,,,6102fab304462811ad2fc5c5,61036e223336c5504ee15566,2021-07-29_20h13.33.030,Simcolourproject_2stim_asymm_v5,2020.2.10,MacIntel,60,61025ae37ef11b136ea224fe,,,,,,,,,3874,86,39,1,0,0,response1disk,,6,3,-11,1,0,0,rectangle,3,-11,1,0,0,3,-11,1,0,0,1,80,240,117,1,,,,,,,,
,,,,,,,,,,,,,FF,,,,,,,,0.766,,,,,,,,,,,,,,,,,,,,,,6102fab304462811ad2fc5c5,61036e223336c5504ee15566,2021-07-29_20h13.33.030,Simcolourproject_2stim_asymm_v5,2020.2.10,MacIntel,60,61025ae37ef11b136ea224fe,,,,,,,,,3840,65,29,1,0,0,response1disk,,6,22,11,1,0,0,rectangle,22,11,1,0,0,22,11,1,0,0,1,81,241,43,1,,,,,,,,
,,,,,,,,,,,,,FF,,,,,,,,0.883,,,,,,,,,,,,,,,,,,,,,,6102fab304462811ad2fc5c5,61036e223336c5504ee15566,2021-07-29_20h13.33.030,Simcolourproject_2stim_asymm_v5,2020.2.10,MacIntel,60,61025ae37ef11b136ea224fe,,,,,,,,,816,-29,-74,1,0,0,response5disk,,3,-8,-7,1,0,0,rectangle,-8,-7,1,0,0,-8,-7,1,0,0,1,82,242,70,1,,,,,,,,
,,,,,,,,,,,,,FF,,,,,,,,0.95,,,,,,,,,,,,,,,,,,,,,,6102fab304462811ad2fc5c5,61036e223336c5504ee15566,2021-07-29_20h13.33.030,Simcolourproject_2stim_asymm_v5,2020.2.10,MacIntel,60,61025ae37ef11b136ea224fe,,,,,,,,,2169,-79,-56,1,0,0,response5disk,,2,-20,-18,1,0,0,rectangle,-20,-18,1,0,0,-20,-18,1,0,0,1,83,243,31,1,,,,,,,,
,,,,,,,,,,,,,FF,,,,,,,,0.866,,,,,,,,,,,,,,,,,,,,,,6102fab304462811ad2fc5c5,61036e223336c5504ee15566,2021-07-29_20h13.33.030,Simcolourproject_2stim_asymm_v5,2020.2.10,MacIntel,60,61025ae37ef11b136ea224fe,,,,,,,,,1365,69,-38,1,0,0,response3disk,,5,-15,-6,1,0,0,rectangle,-15,-6,1,0,0,-15,-6,1,0,0,1,84,244,129,1,,,,,,,,
,,,,,,,,,,,,,FF,,,,,,,,0.816,,,,,,,,,,,,,,,,,,,,,,6102fab304462811ad2fc5c5,61036e223336c5504ee15566,2021-07-29_20h13.33.030,Simcolourproject_2stim_asymm_v5,2020.2.10,MacIntel,60,61025ae37ef11b136ea224fe,,,,,,,,,3135,43,76,1,0,0,response1disk,,7,16,13,1,0,0,rectangle,16,13,1,0,0,16,13,1,0,0,1,85,245,98,1,,,,,,,,
,,,,,,,,,,,,,FF,,,,,,,,0.884,,,,,,,,,,,,,,,,,,,,,,6102fab304462811ad2fc5c5,61036e223336c5504ee15566,2021-07-29_20h13.33.030,Simcolourproject_2stim_asymm_v5,2020.2.10,MacIntel,60,61025ae37ef11b136ea224fe,,,,,,,,,3948,-44,-89,1,0,0,response5disk,,3,0,4,1,0,0,rectangle,0,4,1,0,0,0,4,1,0,0,1,86,246,44,1,,,,,,,,
,,,,,,,,,,,,,FF,,,,,,,,1.6,,,,,,,,,,,,,,,,,,,,,,6102fab304462811ad2fc5c5,61036e223336c5504ee15566,2021-07-29_20h13.33.030,Simcolourproject_2stim_asymm_v5,2020.2.10,MacIntel,60,61025ae37ef11b136ea224fe,,,,,,,,,3917,-77,-49,1,0,0,response5disk,,2,-22,-13,1,0,0,rectangle,-22,-13,1,0,0,-22,-13,1,0,0,1,87,247,28,1,,,,,,,,
,,,,,,,,,,,,,FF,,,,,,,,0.549,,,,,,,,,,,,,,,,,,,,,,6102fab304462811ad2fc5c5,61036e223336c5504ee15566,2021-07-29_20h13.33.030,Simcolourproject_2stim_asymm_v5,2020.2.10,MacIntel,60,61025ae37ef11b136ea224fe,,,,,,,,,392,44,-30,1,0,0,response3disk,,5,6,-8,1,0,0,rectangle,6,-8,1,0,0,6,-8,1,0,0,1,88,248,33,1,,,,,,,,
,,,,,,,,,,,,,FF,,,,,,,,0.718,,,,,,,,,,,,,,,,,,,,,,6102fab304462811ad2fc5c5,61036e223336c5504ee15566,2021-07-29_20h13.33.030,Simcolourproject_2stim_asymm_v5,2020.2.10,MacIntel,60,61025ae37ef11b136ea224fe,,,,,,,,,3610,46,62,1,0,0,response1disk,,7,31,-7,1,0,0,rectangle,31,-7,1,0,0,31,-7,1,0,0,1,89,249,63,1,,,,,,,,
,,,,,,,,,,,,,FF,,,,,,,,0.582,,,,,,,,,,,,,,,,,,,,,,6102fab304462811ad2fc5c5,61036e223336c5504ee15566,2021-07-29_20h13.33.030,Simcolourproject_2stim_asymm_v5,2020.2.10,MacIntel,60,61025ae37ef11b136ea224fe,,,,,,,,,2931,43,53,1,0,0,response1disk,,7,15,5,1,0,0,rectangle,15,5,1,0,0,15,5,1,0,0,1,90,250,9,1,,,,,,,,
,,,,,,,,,,,,,FF,,,,,,,,0.7,,,,,,,,,,,,,,,,,,,,,,6102fab304462811ad2fc5c5,61036e223336c5504ee15566,2021-07-29_20h13.33.030,Simcolourproject_2stim_asymm_v5,2020.2.10,MacIntel,60,61025ae37ef11b136ea224fe,,,,,,,,,2367,-55,-93,1,0,0,response5disk,,3,-21,-10,1,0,0,rectangle,-21,-10,1,0,0,-21,-10,1,0,0,1,91,251,79,1,,,,,,,,
,,,,,,,,,,,,,FF,,,,,,,,0.666,,,,,,,,,,,,,,,,,,,,,,6102fab304462811ad2fc5c5,61036e223336c5504ee15566,2021-07-29_20h13.33.030,Simcolourproject_2stim_asymm_v5,2020.2.10,MacIntel,60,61025ae37ef11b136ea224fe,,,,,,,,,53,64,-25,1,0,0,response3disk,,5,10,-6,1,0,0,rectangle,10,-6,1,0,0,10,-6,1,0,0,1,92,252,68,1,,,,,,,,
,,,,,,,,,,,,,FF,,,,,,,,1.1,,,,,,,,,,,,,,,,,,,,,,6102fab304462811ad2fc5c5,61036e223336c5504ee15566,2021-07-29_20h13.33.030,Simcolourproject_2stim_asymm_v5,2020.2.10,MacIntel,60,61025ae37ef11b136ea224fe,,,,,,,,,1655,100,55,1,0,0,response1disk,,6,-8,3,1,0,0,rectangle,-8,3,1,0,0,-8,3,1,0,0,1,93,253,97,1,,,,,,,,
,,,,,,,,,,,,,FF,,,,,,,,0.882,,,,,,,,,,,,,,,,,,,,,,6102fab304462811ad2fc5c5,61036e223336c5504ee15566,2021-07-29_20h13.33.030,Simcolourproject_2stim_asymm_v5,2020.2.10,MacIntel,60,61025ae37ef11b136ea224fe,,,,,,,,,586,35,63,1,0,0,response1disk,,7,14,12,1,0,0,rectangle,14,12,1,0,0,14,12,1,0,0,1,94,254,74,1,,,,,,,,
,,,,,,,,,,,,,FF,,,,,,,,0.817,,,,,,,,,,,,,,,,,,,,,,6102fab304462811ad2fc5c5,61036e223336c5504ee15566,2021-07-29_20h13.33.030,Simcolourproject_2stim_asymm_v5,2020.2.10,MacIntel,60,61025ae37ef11b136ea224fe,,,,,,,,,2989,-38,-72,1,0,0,response5disk,,3,-15,0,1,0,0,rectangle,-15,0,1,0,0,-15,0,1,0,0,1,95,255,126,1,,,,,,,,
,,,,,,,,,,,,,FF,,,,,,,,0.567,,,,,,,,,,,,,,,,,,,,,,6102fab304462811ad2fc5c5,61036e223336c5504ee15566,2021-07-29_20h13.33.030,Simcolourproject_2stim_asymm_v5,2020.2.10,MacIntel,60,61025ae37ef11b136ea224fe,,,,,,,,,3124,44,-28,1,0,0,response3disk,,5,24,-7,1,0,0,rectangle,24,-7,1,0,0,24,-7,1,0,0,1,96,256,101,1,,,,,,,,
,,,,,,,,,,,,,FF,,,,,,,,0.683,,,,,,,,,,,,,,,,,,,,,,6102fab304462811ad2fc5c5,61036e223336c5504ee15566,2021-07-29_20h13.33.030,Simcolourproject_2stim_asymm_v5,2020.2.10,MacIntel,60,61025ae37ef11b136ea224fe,,,,,,,,,2255,55,-28,1,0,0,response3disk,,5,21,-8,1,0,0,rectangle,33,79,1,0,0,5,3,1,0,0,1,97,257,55,1,,response1disk_3,TRUE,7,7,"[83,306,116,258,133,286,54,182,38,66,68,183,106,206,207,101,110,158,99,210]",1.151,rectangle
,,,,,,,,,,,,,FF,,,,,,,,0.8,,,,,,,,,,,,,,,,,,,,,,6102fab304462811ad2fc5c5,61036e223336c5504ee15566,2021-07-29_20h13.33.030,Simcolourproject_2stim_asymm_v5,2020.2.10,MacIntel,60,61025ae37ef11b136ea224fe,,,,,,,,,352,-71,39,1,0,0,response7disk,,1,12,-1,1,0,0,rectangle,12,-1,1,0,0,12,-1,1,0,0,1,98,258,81,1,,,,,,,,
,,,,,,,,,,,,,FF,,,,,,,,0.651,,,,,,,,,,,,,,,,,,,,,,6102fab304462811ad2fc5c5,61036e223336c5504ee15566,2021-07-29_20h13.33.030,Simcolourproject_2stim_asymm_v5,2020.2.10,MacIntel,60,61025ae37ef11b136ea224fe,,,,,,,,,1114,76,-43,1,0,0,response3disk,,5,17,-13,1,0,0,rectangle,17,-13,1,0,0,17,-13,1,0,0,1,99,259,127,1,,,,,,,,
,,,,,,,,,,,,,FF,,,,,,,,0.666,,,,,,,,,,,,,,,,,,,,,,6102fab304462811ad2fc5c5,61036e223336c5504ee15566,2021-07-29_20h13.33.030,Simcolourproject_2stim_asymm_v5,2020.2.10,MacIntel,60,61025ae37ef11b136ea224fe,,,,,,,,,2947,-89,30,1,0,0,response7disk,,1,-27,9,1,0,0,rectangle,-27,9,1,0,0,-27,9,1,0,0,1,100,260,37,1,,,,,,,,
,,,,,,,,,,,,,FF,,,,,,,,0.483,,,,,,,,,,,,,,,,,,,,,,6102fab304462811ad2fc5c5,61036e223336c5504ee15566,2021-07-29_20h13.33.030,Simcolourproject_2stim_asymm_v5,2020.2.10,MacIntel,60,61025ae37ef11b136ea224fe,,,,,,,,,2817,56,56,1,0,0,response1disk,,7,-4,11,1,0,0,rectangle,-4,11,1,0,0,-4,11,1,0,0,1,101,261,134,1,,,,,,,,
,,,,,,,,,,,,,FF,,,,,,,,0.667,,,,,,,,,,,,,,,,,,,,,,6102fab304462811ad2fc5c5,61036e223336c5504ee15566,2021-07-29_20h13.33.030,Simcolourproject_2stim_asymm_v5,2020.2.10,MacIntel,60,61025ae37ef11b136ea224fe,,,,,,,,,1381,-63,-41,1,0,0,response5disk,,2,-3,-9,1,0,0,rectangle,-3,-9,1,0,0,-3,-9,1,0,0,1,102,262,16,1,,,,,,,,
,,,,,,,,,,,,,FF,,,,,,,,0.532,,,,,,,,,,,,,,,,,,,,,,6102fab304462811ad2fc5c5,61036e223336c5504ee15566,2021-07-29_20h13.33.030,Simcolourproject_2stim_asymm_v5,2020.2.10,MacIntel,60,61025ae37ef11b136ea224fe,,,,,,,,,414,56,-24,1,0,0,response3disk,,5,19,-12,1,0,0,rectangle,19,-12,1,0,0,19,-12,1,0,0,1,103,263,64,1,,,,,,,,
,,,,,,,,,,,,,FF,,,,,,,,0.534,,,,,,,,,,,,,,,,,,,,,,6102fab304462811ad2fc5c5,61036e223336c5504ee15566,2021-07-29_20h13.33.030,Simcolourproject_2stim_asymm_v5,2020.2.10,MacIntel,60,61025ae37ef11b136ea224fe,,,,,,,,,300,79,52,1,0,0,response1disk,,6,7,-4,1,0,0,rectangle,7,-4,1,0,0,7,-4,1,0,0,1,104,264,151,1,,,,,,,,
,,,,,,,,,,,,,FF,,,,,,,,0.699,,,,,,,,,,,,,,,,,,,,,,6102fab304462811ad2fc5c5,61036e223336c5504ee15566,2021-07-29_20h13.33.030,Simcolourproject_2stim_asymm_v5,2020.2.10,MacIntel,60,61025ae37ef11b136ea224fe,,,,,,,,,1909,-72,-44,1,0,0,response5disk,,2,-12,-14,1,0,0,rectangle,-12,-14,1,0,0,-12,-14,1,0,0,1,105,265,159,1,,,,,,,,
,,,,,,,,,,,,,FF,,,,,,,,0.617,,,,,,,,,,,,,,,,,,,,,,6102fab304462811ad2fc5c5,61036e223336c5504ee15566,2021-07-29_20h13.33.030,Simcolourproject_2stim_asymm_v5,2020.2.10,MacIntel,60,61025ae37ef11b136ea224fe,,,,,,,,,641,-93,-31,1,0,0,response5disk,,2,6,-6,1,0,0,rectangle,6,-6,1,0,0,6,-6,1,0,0,1,106,266,29,1,,,,,,,,
,,,,,,,,,,,,,FF,,,,,,,,0.55,,,,,,,,,,,,,,,,,,,,,,6102fab304462811ad2fc5c5,61036e223336c5504ee15566,2021-07-29_20h13.33.030,Simcolourproject_2stim_asymm_v5,2020.2.10,MacIntel,60,61025ae37ef11b136ea224fe,,,,,,,,,2164,-63,35,1,0,0,response7disk,,1,3,9,1,0,0,rectangle,3,9,1,0,0,3,9,1,0,0,1,107,267,7,1,,,,,,,,
,,,,,,,,,,,,,FF,,,,,,,,0.483,,,,,,,,,,,,,,,,,,,,,,6102fab304462811ad2fc5c5,61036e223336c5504ee15566,2021-07-29_20h13.33.030,Simcolourproject_2stim_asymm_v5,2020.2.10,MacIntel,60,61025ae37ef11b136ea224fe,,,,,,,,,1823,-71,39,1,0,0,response7disk,,1,-22,12,1,0,0,rectangle,-22,12,1,0,0,-22,12,1,0,0,1,108,268,142,1,,,,,,,,
,,,,,,,,,,,,,FF,,,,,,,,0.467,,,,,,,,,,,,,,,,,,,,,,6102fab304462811ad2fc5c5,61036e223336c5504ee15566,2021-07-29_20h13.33.030,Simcolourproject_2stim_asymm_v5,2020.2.10,MacIntel,60,61025ae37ef11b136ea224fe,,,,,,,,,1849,31,28,1,0,0,response1disk,,6,-12,-2,1,0,0,rectangle,-12,-2,1,0,0,-12,-2,1,0,0,1,109,269,49,1,,,,,,,,
,,,,,,,,,,,,,FF,,,,,,,,0.55,,,,,,,,,,,,,,,,,,,,,,6102fab304462811ad2fc5c5,61036e223336c5504ee15566,2021-07-29_20h13.33.030,Simcolourproject_2stim_asymm_v5,2020.2.10,MacIntel,60,61025ae37ef11b136ea224fe,,,,,,,,,221,71,33,1,0,0,response1disk,,6,4,-10,1,0,0,rectangle,4,-10,1,0,0,4,-10,1,0,0,1,110,270,34,1,,,,,,,,
,,,,,,,,,,,,,FF,,,,,,,,0.599,,,,,,,,,,,,,,,,,,,,,,6102fab304462811ad2fc5c5,61036e223336c5504ee15566,2021-07-29_20h13.33.030,Simcolourproject_2stim_asymm_v5,2020.2.10,MacIntel,60,61025ae37ef11b136ea224fe,,,,,,,,,1857,53,22,1,0,0,response1disk,,6,6,4,1,0,0,rectangle,6,4,1,0,0,6,4,1,0,0,1,111,271,108,1,,,,,,,,
,,,,,,,,,,,,,FF,,,,,,,,0.532,,,,,,,,,,,,,,,,,,,,,,6102fab304462811ad2fc5c5,61036e223336c5504ee15566,2021-07-29_20h13.33.030,Simcolourproject_2stim_asymm_v5,2020.2.10,MacIntel,60,61025ae37ef11b136ea224fe,,,,,,,,,3927,25,44,1,0,0,response1disk,,7,7,9,1,0,0,rectangle,7,9,1,0,0,7,9,1,0,0,1,112,272,154,1,,,,,,,,
,,,,,,,,,,,,,FF,,,,,,,,0.651,,,,,,,,,,,,,,,,,,,,,,6102fab304462811ad2fc5c5,61036e223336c5504ee15566,2021-07-29_20h13.33.030,Simcolourproject_2stim_asymm_v5,2020.2.10,MacIntel,60,61025ae37ef11b136ea224fe,,,,,,,,,859,55,-38,1,0,0,response3disk,,5,29,-13,1,0,0,rectangle,29,-13,1,0,0,29,-13,1,0,0,1,113,273,3,1,,,,,,,,
,,,,,,,,,,,,,FF,,,,,,,,0.9,,,,,,,,,,,,,,,,,,,,,,6102fab304462811ad2fc5c5,61036e223336c5504ee15566,2021-07-29_20h13.33.030,Simcolourproject_2stim_asymm_v5,2020.2.10,MacIntel,60,61025ae37ef11b136ea224fe,,,,,,,,,463,-81,-34,1,0,0,response5disk,,2,7,14,1,0,0,rectangle,7,14,1,0,0,7,14,1,0,0,1,114,274,156,1,,,,,,,,
,,,,,,,,,,,,,FF,,,,,,,,0.483,,,,,,,,,,,,,,,,,,,,,,6102fab304462811ad2fc5c5,61036e223336c5504ee15566,2021-07-29_20h13.33.030,Simcolourproject_2stim_asymm_v5,2020.2.10,MacIntel,60,61025ae37ef11b136ea224fe,,,,,,,,,497,52,33,1,0,0,response1disk,,6,1,10,1,0,0,rectangle,1,10,1,0,0,1,10,1,0,0,1,115,275,130,1,,,,,,,,
,,,,,,,,,,,,,FF,,,,,,,,0.5,,,,,,,,,,,,,,,,,,,,,,6102fab304462811ad2fc5c5,61036e223336c5504ee15566,2021-07-29_20h13.33.030,Simcolourproject_2stim_asymm_v5,2020.2.10,MacIntel,60,61025ae37ef11b136ea224fe,,,,,,,,,1637,25,59,1,0,0,response1disk,,7,12,2,1,0,0,rectangle,12,2,1,0,0,12,2,1,0,0,1,116,276,128,1,,,,,,,,
,,,,,,,,,,,,,FF,,,,,,,,0.701,,,,,,,,,,,,,,,,,,,,,,6102fab304462811ad2fc5c5,61036e223336c5504ee15566,2021-07-29_20h13.33.030,Simcolourproject_2stim_asymm_v5,2020.2.10,MacIntel,60,61025ae37ef11b136ea224fe,,,,,,,,,982,-79,30,1,0,0,response7disk,,1,-23,10,1,0,0,rectangle,-23,10,1,0,0,-23,10,1,0,0,1,117,277,40,1,,,,,,,,
,,,,,,,,,,,,,FF,,,,,,,,0.666,,,,,,,,,,,,,,,,,,,,,,6102fab304462811ad2fc5c5,61036e223336c5504ee15566,2021-07-29_20h13.33.030,Simcolourproject_2stim_asymm_v5,2020.2.10,MacIntel,60,61025ae37ef11b136ea224fe,,,,,,,,,1782,48,31,1,0,0,response1disk,,6,9,-9,1,0,0,rectangle,9,-9,1,0,0,9,-9,1,0,0,1,118,278,54,1,,,,,,,,
,,,,,,,,,,,,,FF,,,,,,,,0.484,,,,,,,,,,,,,,,,,,,,,,6102fab304462811ad2fc5c5,61036e223336c5504ee15566,2021-07-29_20h13.33.030,Simcolourproject_2stim_asymm_v5,2020.2.10,MacIntel,60,61025ae37ef11b136ea224fe,,,,,,,,,254,56,-46,1,0,0,response3disk,,5,-7,6,1,0,0,rectangle,-7,6,1,0,0,-7,6,1,0,0,1,119,279,155,1,,,,,,,,
,,,,,,,,,,,,,FF,,,,,,,,0.768,,,,,,,,,,,,,,,,,,,,,,6102fab304462811ad2fc5c5,61036e223336c5504ee15566,2021-07-29_20h13.33.030,Simcolourproject_2stim_asymm_v5,2020.2.10,MacIntel,60,61025ae37ef11b136ea224fe,,,,,,,,,4276,53,-41,1,0,0,response3disk,,5,16,-2,1,0,0,rectangle,16,-2,1,0,0,16,-2,1,0,0,1,120,280,24,1,,,,,,,,
,,,,,,,,,,,,,FF,,,,,,,,0.717,,,,,,,,,,,,,,,,,,,,,,6102fab304462811ad2fc5c5,61036e223336c5504ee15566,2021-07-29_20h13.33.030,Simcolourproject_2stim_asymm_v5,2020.2.10,MacIntel,60,61025ae37ef11b136ea224fe,,,,,,,,,552,-87,-29,1,0,0,response5disk,,2,4,-12,1,0,0,rectangle,4,-12,1,0,0,4,-12,1,0,0,1,121,281,58,1,,,,,,,,
,,,,,,,,,,,,,FF,,,,,,,,1.783,,,,,,,,,,,,,,,,,,,,,,6102fab304462811ad2fc5c5,61036e223336c5504ee15566,2021-07-29_20h13.33.030,Simcolourproject_2stim_asymm_v5,2020.2.10,MacIntel,60,61025ae37ef11b136ea224fe,,,,,,,,,4226,59,-41,1,0,0,response3disk,,5,14,-15,1,0,0,rectangle,14,-15,1,0,0,14,-15,1,0,0,1,122,282,15,1,,,,,,,,
,,,,,,,,,,,,,FF,,,,,,,,1.083,,,,,,,,,,,,,,,,,,,,,,6102fab304462811ad2fc5c5,61036e223336c5504ee15566,2021-07-29_20h13.33.030,Simcolourproject_2stim_asymm_v5,2020.2.10,MacIntel,60,61025ae37ef11b136ea224fe,,,,,,,,,1006,41,52,1,0,0,response1disk,,7,20,15,1,0,0,rectangle,20,15,1,0,0,20,15,1,0,0,1,123,283,131,1,,,,,,,,
,,,,,,,,,,,,,FF,,,,,,,,0.582,,,,,,,,,,,,,,,,,,,,,,6102fab304462811ad2fc5c5,61036e223336c5504ee15566,2021-07-29_20h13.33.030,Simcolourproject_2stim_asymm_v5,2020.2.10,MacIntel,60,61025ae37ef11b136ea224fe,,,,,,,,,3698,54,27,1,0,0,response1disk,,6,24,5,1,0,0,rectangle,24,5,1,0,0,24,5,1,0,0,1,124,284,82,1,,,,,,,,
,,,,,,,,,,,,,FF,,,,,,,,1.001,,,,,,,,,,,,,,,,,,,,,,6102fab304462811ad2fc5c5,61036e223336c5504ee15566,2021-07-29_20h13.33.030,Simcolourproject_2stim_asymm_v5,2020.2.10,MacIntel,60,61025ae37ef11b136ea224fe,,,,,,,,,3450,-34,-54,1,0,0,response5disk,,3,-6,-1,1,0,0,rectangle,37,89,1,0,0,-13,0,1,0,0,1,125,285,73,1,,response1disk_3,TRUE,7,7,"[83,306,116,258,133,286,54,182,38,66,68,183,106,206,207,101,110,158,99,210]",0.983,rectangle
,,,,,,,,,,,,,FF,,,,,,,,0.651,,,,,,,,,,,,,,,,,,,,,,6102fab304462811ad2fc5c5,61036e223336c5504ee15566,2021-07-29_20h13.33.030,Simcolourproject_2stim_asymm_v5,2020.2.10,MacIntel,60,61025ae37ef11b136ea224fe,,,,,,,,,1395,56,39,1,0,0,response1disk,,6,-15,-14,1,0,0,rectangle,-15,-14,1,0,0,-15,-14,1,0,0,1,126,286,133,1,,,,,,,,
,,,,,,,,,,,,,FF,,,,,,,,0.733,,,,,,,,,,,,,,,,,,,,,,6102fab304462811ad2fc5c5,61036e223336c5504ee15566,2021-07-29_20h13.33.030,Simcolourproject_2stim_asymm_v5,2020.2.10,MacIntel,60,61025ae37ef11b136ea224fe,,,,,,,,,3289,36,47,1,0,0,response1disk,,7,12,13,1,0,0,rectangle,12,13,1,0,0,12,13,1,0,0,1,127,287,84,1,,,,,,,,
,,,,,,,,,,,,,FF,,,,,,,,0.7,,,,,,,,,,,,,,,,,,,,,,6102fab304462811ad2fc5c5,61036e223336c5504ee15566,2021-07-29_20h13.33.030,Simcolourproject_2stim_asymm_v5,2020.2.10,MacIntel,60,61025ae37ef11b136ea224fe,,,,,,,,,4087,-17,-52,1,0,0,response5disk,,3,5,4,1,0,0,rectangle,5,4,1,0,0,5,4,1,0,0,1,128,288,138,1,,,,,,,,
,,,,,,,,,,,,,FF,,,,,,,,0.567,,,,,,,,,,,,,,,,,,,,,,6102fab304462811ad2fc5c5,61036e223336c5504ee15566,2021-07-29_20h13.33.030,Simcolourproject_2stim_asymm_v5,2020.2.10,MacIntel,60,61025ae37ef11b136ea224fe,,,,,,,,,2494,-58,-47,1,0,0,response5disk,,2,-12,-12,1,0,0,rectangle,-12,-12,1,0,0,-12,-12,1,0,0,1,129,289,27,1,,,,,,,,
,,,,,,,,,,,,,FF,,,,,,,,0.9,,,,,,,,,,,,,,,,,,,,,,6102fab304462811ad2fc5c5,61036e223336c5504ee15566,2021-07-29_20h13.33.030,Simcolourproject_2stim_asymm_v5,2020.2.10,MacIntel,60,61025ae37ef11b136ea224fe,,,,,,,,,58,22,-67,1,0,0,response3disk,,4,0,-5,1,0,0,rectangle,0,-5,1,0,0,0,-5,1,0,0,1,130,290,111,1,,,,,,,,
,,,,,,,,,,,,,FF,,,,,,,,0.899,,,,,,,,,,,,,,,,,,,,,,6102fab304462811ad2fc5c5,61036e223336c5504ee15566,2021-07-29_20h13.33.030,Simcolourproject_2stim_asymm_v5,2020.2.10,MacIntel,60,61025ae37ef11b136ea224fe,,,,,,,,,1534,-98,16,1,0,0,response7disk,,1,21,-5,1,0,0,rectangle,21,-5,1,0,0,21,-5,1,0,0,1,131,291,25,1,,,,,,,,
,,,,,,,,,,,,,FF,,,,,,,,0.483,,,,,,,,,,,,,,,,,,,,,,6102fab304462811ad2fc5c5,61036e223336c5504ee15566,2021-07-29_20h13.33.030,Simcolourproject_2stim_asymm_v5,2020.2.10,MacIntel,60,61025ae37ef11b136ea224fe,,,,,,,,,1371,-77,35,1,0,0,response7disk,,1,-5,-8,1,0,0,rectangle,-5,-8,1,0,0,-5,-8,1,0,0,1,132,292,157,1,,,,,,,,
,,,,,,,,,,,,,FF,,,,,,,,0.534,,,,,,,,,,,,,,,,,,,,,,6102fab304462811ad2fc5c5,61036e223336c5504ee15566,2021-07-29_20h13.33.030,Simcolourproject_2stim_asymm_v5,2020.2.10,MacIntel,60,61025ae37ef11b136ea224fe,,,,,,,,,4019,85,34,1,0,0,response1disk,,6,-6,-2,1,0,0,rectangle,-6,-2,1,0,0,-6,-2,1,0,0,1,133,293,30,1,,,,,,,,
,,,,,,,,,,,,,FF,,,,,,,,0.917,,,,,,,,,,,,,,,,,,,,,,6102fab304462811ad2fc5c5,61036e223336c5504ee15566,2021-07-29_20h13.33.030,Simcolourproject_2stim_asymm_v5,2020.2.10,MacIntel,60,61025ae37ef11b136ea224fe,,,,,,,,,3721,26,-77,1,0,0,response3disk,,4,-6,-10,1,0,0,rectangle,-6,-10,1,0,0,-6,-10,1,0,0,1,134,294,17,1,,,,,,,,
,,,,,,,,,,,,,FF,,,,,,,,0.752,,,,,,,,,,,,,,,,,,,,,,6102fab304462811ad2fc5c5,61036e223336c5504ee15566,2021-07-29_20h13.33.030,Simcolourproject_2stim_asymm_v5,2020.2.10,MacIntel,60,61025ae37ef11b136ea224fe,,,,,,,,,2204,56,37,1,0,0,response1disk,,6,33,12,1,0,0,rectangle,33,12,1,0,0,33,12,1,0,0,1,135,295,48,1,,,,,,,,
,,,,,,,,,,,,,FF,,,,,,,,1.301,,,,,,,,,,,,,,,,,,,,,,6102fab304462811ad2fc5c5,61036e223336c5504ee15566,2021-07-29_20h13.33.030,Simcolourproject_2stim_asymm_v5,2020.2.10,MacIntel,60,61025ae37ef11b136ea224fe,,,,,,,,,1142,-46,-56,1,0,0,response5disk,,3,-26,-13,1,0,0,rectangle,-26,-13,1,0,0,-26,-13,1,0,0,1,136,296,113,1,,,,,,,,
,,,,,,,,,,,,,FF,,,,,,,,0.5,,,,,,,,,,,,,,,,,,,,,,6102fab304462811ad2fc5c5,61036e223336c5504ee15566,2021-07-29_20h13.33.030,Simcolourproject_2stim_asymm_v5,2020.2.10,MacIntel,60,61025ae37ef11b136ea224fe,,,,,,,,,3911,-66,-31,1,0,0,response5disk,,2,-3,-7,1,0,0,rectangle,-3,-7,1,0,0,-3,-7,1,0,0,1,137,297,90,1,,,,,,,,
,,,,,,,,,,,,,FF,,,,,,,,0.499,,,,,,,,,,,,,,,,,,,,,,6102fab304462811ad2fc5c5,61036e223336c5504ee15566,2021-07-29_20h13.33.030,Simcolourproject_2stim_asymm_v5,2020.2.10,MacIntel,60,61025ae37ef11b136ea224fe,,,,,,,,,3759,52,-32,1,0,0,response3disk,,5,5,-15,1,0,0,rectangle,5,-15,1,0,0,5,-15,1,0,0,1,138,298,116,1,,,,,,,,
,,,,,,,,,,,,,FF,,,,,,,,0.717,,,,,,,,,,,,,,,,,,,,,,6102fab304462811ad2fc5c5,61036e223336c5504ee15566,2021-07-29_20h13.33.030,Simcolourproject_2stim_asymm_v5,2020.2.10,MacIntel,60,61025ae37ef11b136ea224fe,,,,,,,,,3831,27,-60,1,0,0,response3disk,,4,8,0,1,0,0,rectangle,8,0,1,0,0,8,0,1,0,0,1,139,299,50,1,,,,,,,,
