key_resp.keys,key_resp.rt,key_resp_14.keys,key_resp_14.rt,key_resp_15.keys,key_resp_15.rt,key_resp_17.keys,key_resp_17.rt,key_resp_9.keys,key_resp_9.rt,key_resp_10.keys,key_resp_10.rt,practice_comparison,Ecc,mouse_5.x,mouse_5.y,mouse_5.leftButton,mouse_5.midButton,mouse_5.rightButton,mouse_5.clicked_name,pracsimilarity,response_time,mouse_10.x,mouse_10.y,mouse_10.leftButton,mouse_10.midButton,mouse_10.rightButton,mouse_10.clicked_name,mouse_7.x,mouse_7.y,mouse_7.leftButton,mouse_7.midButton,mouse_7.rightButton,mouse_6.x,mouse_6.y,mouse_6.leftButton,mouse_6.midButton,mouse_6.rightButton,duringprac.thisRepN,duringprac.thisTrialN,duringprac.thisN,duringprac.thisIndex,duringprac.ran,participant,session,date,expName,psychopyVersion,OS,frameRate,study_id,mouse_7.clicked_name,catchpracsimilarity,catch_response_time,catchnumberprac,catchtrialorderprac,mouse_6.clicked_name,key_resp_22.keys,key_resp_22.rt,realcomparison,mouse.x,mouse.y,mouse.leftButton,mouse.midButton,mouse.rightButton,mouse.clicked_name,Colour2,similarity,mouse_2.x,mouse_2.y,mouse_2.leftButton,mouse_2.midButton,mouse_2.rightButton,mouse_2.clicked_name,mouse_3.x,mouse_3.y,mouse_3.leftButton,mouse_3.midButton,mouse_3.rightButton,mouse_11.x,mouse_11.y,mouse_11.leftButton,mouse_11.midButton,mouse_11.rightButton,trials_2.thisRepN,trials_2.thisTrialN,trials_2.thisN,trials_2.thisIndex,trials_2.ran,Colour1,mouse_3.clicked_name,catchornah,catchsimilarity,catchnumber,catchtrialorder,catchRT,mouse_11.clicked_name
space,0.3125,space,19.6614,space,26.4006,space,27.9241,space,2.3165,space,3.4877,71,PF,42.84375,106.3203125,1,0,0,response1disk_5,7,4.7506,-3.05859375,-2.9296875,1,0,0,rectangle_8,-3.05859375,-2.9296875,1,0,0,-3.05859375,-2.9296875,1,0,0,0,0,0,4,1,61023e0830e893bec6bd8f3c,61037784f5b3fde2956648d5,2021-07-29_22h56.02.237,Simcolourproject_2stim_asymm_v5,2020.2.10,MacIntel,60,61025ae37ef11b136ea224fe,,,,,,,,,,,,,,,,,,,,,,,,,,,,,,,,,,,,,,,,,,,,,,
,,,,,,,,,,,,55,PF,47.4140625,-62.92578125,1,0,0,response3disk_5,4,1.9157,-5.53125,1.95703125,1,0,0,rectangle_8,-50.55078125,-96.74609375,1,0,0,4.76953125,-7.96875,1,0,0,0,1,1,6,1,61023e0830e893bec6bd8f3c,61037784f5b3fde2956648d5,2021-07-29_22h56.02.237,Simcolourproject_2stim_asymm_v5,2020.2.10,MacIntel,60,61025ae37ef11b136ea224fe,response5disk_7,3,2.9331,3,"[2,5]",rectangle_4,,,,,,,,,,,,,,,,,,,,,,,,,,,,,,,,,,,,,,,,
,,,,,,,,,,,,140,FF,-39.65625,-73.875,1,0,0,response5disk_5,3,2.7829,-0.546875,-5.3125,1,0,0,rectangle_8,-0.546875,-5.3125,1,0,0,-0.546875,-5.3125,1,0,0,0,2,2,0,1,61023e0830e893bec6bd8f3c,61037784f5b3fde2956648d5,2021-07-29_22h56.02.237,Simcolourproject_2stim_asymm_v5,2020.2.10,MacIntel,60,61025ae37ef11b136ea224fe,,,,,,,,,,,,,,,,,,,,,,,,,,,,,,,,,,,,,,,,,,,,,,
,,,,,,,,,,,,117,FF,62.42578125,-30.890625,1,0,0,response3disk_5,5,2.0851,2.3046875,13.328125,1,0,0,rectangle_8,2.3046875,13.328125,1,0,0,2.3046875,13.328125,1,0,0,0,3,3,5,1,61023e0830e893bec6bd8f3c,61037784f5b3fde2956648d5,2021-07-29_22h56.02.237,Simcolourproject_2stim_asymm_v5,2020.2.10,MacIntel,60,61025ae37ef11b136ea224fe,,,,,,,,,,,,,,,,,,,,,,,,,,,,,,,,,,,,,,,,,,,,,,
,,,,,,,,,,,,128,PF,-83.80859375,-33.94140625,1,0,0,response5disk_5,2,3.8852,11.41796875,-5.2890625,1,0,0,rectangle_8,-31.92578125,-103.0078125,1,0,0,11.7578125,-2.2109375,1,0,0,0,4,4,2,1,61023e0830e893bec6bd8f3c,61037784f5b3fde2956648d5,2021-07-29_22h56.02.237,Simcolourproject_2stim_asymm_v5,2020.2.10,MacIntel,60,61025ae37ef11b136ea224fe,response5disk_7,3,1.965,3,"[2,5]",rectangle_4,,,,,,,,,,,,,,,,,,,,,,,,,,,,,,,,,,,,,,,,
,,,,,,,,,,,,80,FF,-45.45703125,35.98046875,1,0,0,response7disk_5,1,3.5336,-5.8203125,1.98046875,1,0,0,rectangle_8,-5.8203125,1.98046875,1,0,0,-5.8203125,1.98046875,1,0,0,0,5,5,3,1,61023e0830e893bec6bd8f3c,61037784f5b3fde2956648d5,2021-07-29_22h56.02.237,Simcolourproject_2stim_asymm_v5,2020.2.10,MacIntel,60,61025ae37ef11b136ea224fe,,,,,,,,,,,,,,,,,,,,,,,,,,,,,,,,,,,,,,,,,,,,,,
,,,,,,,,,,,,114,PF,25.984375,-81.26171875,1,0,0,response3disk_5,4,2.5993,-2.67578125,-4.75,1,0,0,rectangle_8,-2.67578125,-4.75,1,0,0,-2.67578125,-4.75,1,0,0,0,6,6,1,1,61023e0830e893bec6bd8f3c,61037784f5b3fde2956648d5,2021-07-29_22h56.02.237,Simcolourproject_2stim_asymm_v5,2020.2.10,MacIntel,60,61025ae37ef11b136ea224fe,,,,,,,,,,,,,,,,,,,,,,,,,,,,,,,,,,,,,,,,,,,,,,
,,,,,,,,,,,,,FF,,,,,,,,2.5677,,,,,,,,,,,,,,,,,,,,,,61023e0830e893bec6bd8f3c,61037784f5b3fde2956648d5,2021-07-29_22h56.02.237,Simcolourproject_2stim_asymm_v5,2020.2.10,MacIntel,60,61025ae37ef11b136ea224fe,,,,,,,space,96.5229,1187,-31.203125,-83.13671875,1,0,0,response5disk,,3,0.859375,1.26953125,1,0,0,rectangle,0.859375,1.26953125,1,0,0,0.859375,1.26953125,1,0,0,0,0,0,6,1,,,,,,,,
,,,,,,,,,,,,,FF,,,,,,,,1.2991,,,,,,,,,,,,,,,,,,,,,,61023e0830e893bec6bd8f3c,61037784f5b3fde2956648d5,2021-07-29_22h56.02.237,Simcolourproject_2stim_asymm_v5,2020.2.10,MacIntel,60,61025ae37ef11b136ea224fe,,,,,,,,,2707,63.94140625,33.35546875,1,0,0,response1disk,,6,4.15625,-0.7890625,1,0,0,rectangle,4.15625,-0.7890625,1,0,0,4.15625,-0.7890625,1,0,0,0,1,1,73,1,,,,,,,,
,,,,,,,,,,,,,FF,,,,,,,,2.0833,,,,,,,,,,,,,,,,,,,,,,61023e0830e893bec6bd8f3c,61037784f5b3fde2956648d5,2021-07-29_22h56.02.237,Simcolourproject_2stim_asymm_v5,2020.2.10,MacIntel,60,61025ae37ef11b136ea224fe,,,,,,,,,1206,57.4375,-28.07421875,1,0,0,response3disk,,5,3.23828125,-2.140625,1,0,0,rectangle,3.23828125,-2.140625,1,0,0,3.23828125,-2.140625,1,0,0,0,2,2,0,1,,,,,,,,
,,,,,,,,,,,,,FF,,,,,,,,1.4331,,,,,,,,,,,,,,,,,,,,,,61023e0830e893bec6bd8f3c,61037784f5b3fde2956648d5,2021-07-29_22h56.02.237,Simcolourproject_2stim_asymm_v5,2020.2.10,MacIntel,60,61025ae37ef11b136ea224fe,,,,,,,,,2334,-19.1953125,-48.35546875,1,0,0,response5disk,,3,6.82421875,-1.7890625,1,0,0,rectangle,6.82421875,-1.7890625,1,0,0,6.82421875,-1.7890625,1,0,0,0,3,3,29,1,,,,,,,,
,,,,,,,,,,,,,FF,,,,,,,,4.1344,,,,,,,,,,,,,,,,,,,,,,61023e0830e893bec6bd8f3c,61037784f5b3fde2956648d5,2021-07-29_22h56.02.237,Simcolourproject_2stim_asymm_v5,2020.2.10,MacIntel,60,61025ae37ef11b136ea224fe,,,,,,,,,1955,-31.140625,-58.8984375,1,0,0,response5disk,,3,-1.99609375,-2.203125,1,0,0,rectangle,-1.99609375,-2.203125,1,0,0,-1.99609375,-2.203125,1,0,0,0,4,4,11,1,,,,,,,,
,,,,,,,,,,,,,FF,,,,,,,,1.6826,,,,,,,,,,,,,,,,,,,,,,61023e0830e893bec6bd8f3c,61037784f5b3fde2956648d5,2021-07-29_22h56.02.237,Simcolourproject_2stim_asymm_v5,2020.2.10,MacIntel,60,61025ae37ef11b136ea224fe,,,,,,,,,1388,-25.10546875,-56.2421875,1,0,0,response5disk,,3,-2.26953125,-10.296875,1,0,0,rectangle,-2.26953125,-10.296875,1,0,0,-2.26953125,-10.296875,1,0,0,0,5,5,57,1,,,,,,,,
,,,,,,,,,,,,,FF,,,,,,,,1.1509,,,,,,,,,,,,,,,,,,,,,,61023e0830e893bec6bd8f3c,61037784f5b3fde2956648d5,2021-07-29_22h56.02.237,Simcolourproject_2stim_asymm_v5,2020.2.10,MacIntel,60,61025ae37ef11b136ea224fe,,,,,,,,,3533,64.01171875,23.25390625,1,0,0,response1disk,,6,2.4375,-3.78125,1,0,0,rectangle,2.4375,-3.78125,1,0,0,2.4375,-3.78125,1,0,0,0,6,6,128,1,,,,,,,,
,,,,,,,,,,,,,FF,,,,,,,,2.6831,,,,,,,,,,,,,,,,,,,,,,61023e0830e893bec6bd8f3c,61037784f5b3fde2956648d5,2021-07-29_22h56.02.237,Simcolourproject_2stim_asymm_v5,2020.2.10,MacIntel,60,61025ae37ef11b136ea224fe,,,,,,,,,3124,54.05078125,34.58984375,1,0,0,response1disk,,6,5.65234375,0.90625,1,0,0,rectangle,5.65234375,0.90625,1,0,0,5.65234375,0.90625,1,0,0,0,7,7,159,1,,,,,,,,
,,,,,,,,,,,,,FF,,,,,,,,1.3182,,,,,,,,,,,,,,,,,,,,,,61023e0830e893bec6bd8f3c,61037784f5b3fde2956648d5,2021-07-29_22h56.02.237,Simcolourproject_2stim_asymm_v5,2020.2.10,MacIntel,60,61025ae37ef11b136ea224fe,,,,,,,,,3972,-68.0234375,20.96484375,1,0,0,response7disk,,1,8.18359375,-0.04296875,1,0,0,rectangle,8.18359375,-0.04296875,1,0,0,8.18359375,-0.04296875,1,0,0,0,8,8,9,1,,,,,,,,
,,,,,,,,,,,,,FF,,,,,,,,1.3177,,,,,,,,,,,,,,,,,,,,,,61023e0830e893bec6bd8f3c,61037784f5b3fde2956648d5,2021-07-29_22h56.02.237,Simcolourproject_2stim_asymm_v5,2020.2.10,MacIntel,60,61025ae37ef11b136ea224fe,,,,,,,,,4295,-67.39453125,20.40234375,1,0,0,response7disk,,1,-2.4140625,-6.63671875,1,0,0,rectangle,-2.4140625,-6.63671875,1,0,0,-2.4140625,-6.63671875,1,0,0,0,9,9,154,1,,,,,,,,
,,,,,,,,,,,,,FF,,,,,,,,1.3824,,,,,,,,,,,,,,,,,,,,,,61023e0830e893bec6bd8f3c,61037784f5b3fde2956648d5,2021-07-29_22h56.02.237,Simcolourproject_2stim_asymm_v5,2020.2.10,MacIntel,60,61025ae37ef11b136ea224fe,,,,,,,,,610,-55.8125,-39.73828125,1,0,0,response5disk,,2,-0.1484375,-6.35546875,1,0,0,rectangle,-0.1484375,-6.35546875,1,0,0,-0.1484375,-6.35546875,1,0,0,0,10,10,152,1,,,,,,,,
,,,,,,,,,,,,,FF,,,,,,,,1.2664,,,,,,,,,,,,,,,,,,,,,,61023e0830e893bec6bd8f3c,61037784f5b3fde2956648d5,2021-07-29_22h56.02.237,Simcolourproject_2stim_asymm_v5,2020.2.10,MacIntel,60,61025ae37ef11b136ea224fe,,,,,,,,,1690,-52.93359375,-28.515625,1,0,0,response5disk,,2,-2.34765625,-2.46875,1,0,0,rectangle,-2.34765625,-2.46875,1,0,0,-2.34765625,-2.46875,1,0,0,0,11,11,18,1,,,,,,,,
,,,,,,,,,,,,,FF,,,,,,,,1.5327,,,,,,,,,,,,,,,,,,,,,,61023e0830e893bec6bd8f3c,61037784f5b3fde2956648d5,2021-07-29_22h56.02.237,Simcolourproject_2stim_asymm_v5,2020.2.10,MacIntel,60,61025ae37ef11b136ea224fe,,,,,,,,,4355,44.76953125,-51.75,1,0,0,response3disk,,4,4.11328125,-6.5625,1,0,0,rectangle,4.11328125,-6.5625,1,0,0,4.11328125,-6.5625,1,0,0,0,12,12,42,1,,,,,,,,
,,,,,,,,,,,,,FF,,,,,,,,1.099,,,,,,,,,,,,,,,,,,,,,,61023e0830e893bec6bd8f3c,61037784f5b3fde2956648d5,2021-07-29_22h56.02.237,Simcolourproject_2stim_asymm_v5,2020.2.10,MacIntel,60,61025ae37ef11b136ea224fe,,,,,,,,,3918,-35.71875,-45.21484375,1,0,0,response5disk,,3,1.13671875,-3.6328125,1,0,0,rectangle,1.13671875,-3.6328125,1,0,0,1.13671875,-3.6328125,1,0,0,0,13,13,88,1,,,,,,,,
,,,,,,,,,,,,,FF,,,,,,,,0.8171,,,,,,,,,,,,,,,,,,,,,,61023e0830e893bec6bd8f3c,61037784f5b3fde2956648d5,2021-07-29_22h56.02.237,Simcolourproject_2stim_asymm_v5,2020.2.10,MacIntel,60,61025ae37ef11b136ea224fe,,,,,,,,,4027,-51.921875,21.62890625,1,0,0,response7disk,,1,0.30078125,-2.1328125,1,0,0,rectangle,0.30078125,-2.1328125,1,0,0,0.30078125,-2.1328125,1,0,0,0,14,14,55,1,,,,,,,,
,,,,,,,,,,,,,FF,,,,,,,,1.0504,,,,,,,,,,,,,,,,,,,,,,61023e0830e893bec6bd8f3c,61037784f5b3fde2956648d5,2021-07-29_22h56.02.237,Simcolourproject_2stim_asymm_v5,2020.2.10,MacIntel,60,61025ae37ef11b136ea224fe,,,,,,,,,1862,31.77734375,-35.140625,1,0,0,response3disk,,4,13.2109375,-6.9296875,1,0,0,rectangle,13.2109375,-6.9296875,1,0,0,13.2109375,-6.9296875,1,0,0,0,15,15,121,1,,,,,,,,
,,,,,,,,,,,,,FF,,,,,,,,0.867,,,,,,,,,,,,,,,,,,,,,,61023e0830e893bec6bd8f3c,61037784f5b3fde2956648d5,2021-07-29_22h56.02.237,Simcolourproject_2stim_asymm_v5,2020.2.10,MacIntel,60,61025ae37ef11b136ea224fe,,,,,,,,,1165,31.00390625,57.39453125,1,0,0,response1disk,,7,-1.3984375,-0.1953125,1,0,0,rectangle,-1.3984375,-0.1953125,1,0,0,-1.3984375,-0.1953125,1,0,0,0,16,16,120,1,,,,,,,,
,,,,,,,,,,,,,FF,,,,,,,,1.3494,,,,,,,,,,,,,,,,,,,,,,61023e0830e893bec6bd8f3c,61037784f5b3fde2956648d5,2021-07-29_22h56.02.237,Simcolourproject_2stim_asymm_v5,2020.2.10,MacIntel,60,61025ae37ef11b136ea224fe,,,,,,,,,19,50.73828125,-30.23046875,1,0,0,response3disk,,5,7.15234375,-4.78515625,1,0,0,rectangle,7.15234375,-4.78515625,1,0,0,7.15234375,-4.78515625,1,0,0,0,17,17,99,1,,,,,,,,
,,,,,,,,,,,,,FF,,,,,,,,0.9324,,,,,,,,,,,,,,,,,,,,,,61023e0830e893bec6bd8f3c,61037784f5b3fde2956648d5,2021-07-29_22h56.02.237,Simcolourproject_2stim_asymm_v5,2020.2.10,MacIntel,60,61025ae37ef11b136ea224fe,,,,,,,,,1687,16.91015625,-46.93359375,1,0,0,response3disk,,4,-0.5625,-4.61328125,1,0,0,rectangle,-0.5625,-4.61328125,1,0,0,-0.5625,-4.61328125,1,0,0,0,18,18,146,1,,,,,,,,
,,,,,,,,,,,,,FF,,,,,,,,0.8995,,,,,,,,,,,,,,,,,,,,,,61023e0830e893bec6bd8f3c,61037784f5b3fde2956648d5,2021-07-29_22h56.02.237,Simcolourproject_2stim_asymm_v5,2020.2.10,MacIntel,60,61025ae37ef11b136ea224fe,,,,,,,,,2554,-37.33203125,-27.3203125,1,0,0,response5disk,,2,1.9765625,-5.453125,1,0,0,rectangle,1.9765625,-5.453125,1,0,0,1.9765625,-5.453125,1,0,0,0,19,19,8,1,,,,,,,,
,,,,,,,,,,,,,FF,,,,,,,,2.7167,,,,,,,,,,,,,,,,,,,,,,61023e0830e893bec6bd8f3c,61037784f5b3fde2956648d5,2021-07-29_22h56.02.237,Simcolourproject_2stim_asymm_v5,2020.2.10,MacIntel,60,61025ae37ef11b136ea224fe,,,,,,,,,3733,-17.3046875,-72.015625,1,0,0,response5disk,,3,3.0703125,-3.671875,1,0,0,rectangle,3.0703125,-3.671875,1,0,0,3.0703125,-3.671875,1,0,0,0,20,20,122,1,,,,,,,,
,,,,,,,,,,,,,FF,,,,,,,,0.9664,,,,,,,,,,,,,,,,,,,,,,61023e0830e893bec6bd8f3c,61037784f5b3fde2956648d5,2021-07-29_22h56.02.237,Simcolourproject_2stim_asymm_v5,2020.2.10,MacIntel,60,61025ae37ef11b136ea224fe,,,,,,,,,1277,39.44921875,18.38671875,1,0,0,response1disk,,6,29.35546875,-10.62890625,1,0,0,rectangle,29.35546875,-10.62890625,1,0,0,29.35546875,-10.62890625,1,0,0,0,21,21,141,1,,,,,,,,
,,,,,,,,,,,,,FF,,,,,,,,1.0994,,,,,,,,,,,,,,,,,,,,,,61023e0830e893bec6bd8f3c,61037784f5b3fde2956648d5,2021-07-29_22h56.02.237,Simcolourproject_2stim_asymm_v5,2020.2.10,MacIntel,60,61025ae37ef11b136ea224fe,,,,,,,,,3034,28.1875,44.140625,1,0,0,response1disk,,7,-5.71484375,-2.6484375,1,0,0,rectangle,-5.71484375,-2.6484375,1,0,0,-5.71484375,-2.6484375,1,0,0,0,22,22,105,1,,,,,,,,
,,,,,,,,,,,,,FF,,,,,,,,1.1843,,,,,,,,,,,,,,,,,,,,,,61023e0830e893bec6bd8f3c,61037784f5b3fde2956648d5,2021-07-29_22h56.02.237,Simcolourproject_2stim_asymm_v5,2020.2.10,MacIntel,60,61025ae37ef11b136ea224fe,,,,,,,,,1699,48.55078125,21.890625,1,0,0,response1disk,,6,6.58203125,5.546875,1,0,0,rectangle,6.58203125,5.546875,1,0,0,6.58203125,5.546875,1,0,0,0,23,23,28,1,,,,,,,,
,,,,,,,,,,,,,FF,,,,,,,,1.3835,,,,,,,,,,,,,,,,,,,,,,61023e0830e893bec6bd8f3c,61037784f5b3fde2956648d5,2021-07-29_22h56.02.237,Simcolourproject_2stim_asymm_v5,2020.2.10,MacIntel,60,61025ae37ef11b136ea224fe,,,,,,,,,4043,46.6328125,-85.55078125,1,0,0,response3disk,,4,-6.46484375,-2.5390625,1,0,0,rectangle,-6.46484375,-2.5390625,1,0,0,-6.46484375,-2.5390625,1,0,0,0,24,24,30,1,,,,,,,,
,,,,,,,,,,,,,FF,,,,,,,,1.1991,,,,,,,,,,,,,,,,,,,,,,61023e0830e893bec6bd8f3c,61037784f5b3fde2956648d5,2021-07-29_22h56.02.237,Simcolourproject_2stim_asymm_v5,2020.2.10,MacIntel,60,61025ae37ef11b136ea224fe,,,,,,,,,3588,-72.59375,-41.890625,1,0,0,response5disk,,2,-5.65625,-8.875,1,0,0,rectangle,-5.65625,-8.875,1,0,0,-5.65625,-8.875,1,0,0,0,25,25,67,1,,,,,,,,
,,,,,,,,,,,,,FF,,,,,,,,1.1509,,,,,,,,,,,,,,,,,,,,,,61023e0830e893bec6bd8f3c,61037784f5b3fde2956648d5,2021-07-29_22h56.02.237,Simcolourproject_2stim_asymm_v5,2020.2.10,MacIntel,60,61025ae37ef11b136ea224fe,,,,,,,,,3176,72.18359375,-20.02734375,1,0,0,response3disk,,5,-1.66796875,-3.359375,1,0,0,rectangle,-1.66796875,-3.359375,1,0,0,-1.66796875,-3.359375,1,0,0,0,26,26,142,1,,,,,,,,
,,,,,,,,,,,,,FF,,,,,,,,0.6833,,,,,,,,,,,,,,,,,,,,,,61023e0830e893bec6bd8f3c,61037784f5b3fde2956648d5,2021-07-29_22h56.02.237,Simcolourproject_2stim_asymm_v5,2020.2.10,MacIntel,60,61025ae37ef11b136ea224fe,,,,,,,,,191,-61.1484375,24.63671875,1,0,0,response7disk,,1,-7.2421875,0.3203125,1,0,0,rectangle,-7.2421875,0.3203125,1,0,0,-7.2421875,0.3203125,1,0,0,0,27,27,115,1,,,,,,,,
,,,,,,,,,,,,,FF,,,,,,,,1.6004,,,,,,,,,,,,,,,,,,,,,,61023e0830e893bec6bd8f3c,61037784f5b3fde2956648d5,2021-07-29_22h56.02.237,Simcolourproject_2stim_asymm_v5,2020.2.10,MacIntel,60,61025ae37ef11b136ea224fe,,,,,,,,,473,-29.08984375,-57.17578125,1,0,0,response5disk,,3,1.04296875,-10.21875,1,0,0,rectangle,1.04296875,-10.21875,1,0,0,1.04296875,-10.21875,1,0,0,0,28,28,44,1,,,,,,,,
,,,,,,,,,,,,,FF,,,,,,,,0.6161,,,,,,,,,,,,,,,,,,,,,,61023e0830e893bec6bd8f3c,61037784f5b3fde2956648d5,2021-07-29_22h56.02.237,Simcolourproject_2stim_asymm_v5,2020.2.10,MacIntel,60,61025ae37ef11b136ea224fe,,,,,,,,,891,-68.21484375,35.62109375,1,0,0,response7disk,,1,-13.33203125,7.5859375,1,0,0,rectangle,-13.33203125,7.5859375,1,0,0,-13.33203125,7.5859375,1,0,0,0,29,29,62,1,,,,,,,,
,,,,,,,,,,,,,FF,,,,,,,,0.8514,,,,,,,,,,,,,,,,,,,,,,61023e0830e893bec6bd8f3c,61037784f5b3fde2956648d5,2021-07-29_22h56.02.237,Simcolourproject_2stim_asymm_v5,2020.2.10,MacIntel,60,61025ae37ef11b136ea224fe,,,,,,,,,18,-22.6171875,-46.625,1,0,0,response5disk,,3,12.953125,0.26953125,1,0,0,rectangle,12.953125,0.26953125,1,0,0,12.953125,0.26953125,1,0,0,0,30,30,64,1,,,,,,,,
,,,,,,,,,,,,,FF,,,,,,,,1.0169,,,,,,,,,,,,,,,,,,,,,,61023e0830e893bec6bd8f3c,61037784f5b3fde2956648d5,2021-07-29_22h56.02.237,Simcolourproject_2stim_asymm_v5,2020.2.10,MacIntel,60,61025ae37ef11b136ea224fe,,,,,,,,,714,-55.98046875,-36.1484375,1,0,0,response5disk,,2,-12.234375,-6.3203125,1,0,0,rectangle,-12.234375,-6.3203125,1,0,0,-12.234375,-6.3203125,1,0,0,0,31,31,75,1,,,,,,,,
,,,,,,,,,,,,,FF,,,,,,,,0.7832,,,,,,,,,,,,,,,,,,,,,,61023e0830e893bec6bd8f3c,61037784f5b3fde2956648d5,2021-07-29_22h56.02.237,Simcolourproject_2stim_asymm_v5,2020.2.10,MacIntel,60,61025ae37ef11b136ea224fe,,,,,,,,,3477,-65.00390625,37.6640625,1,0,0,response7disk,,1,-3.30078125,8.65234375,1,0,0,rectangle,-3.30078125,8.65234375,1,0,0,-3.30078125,8.65234375,1,0,0,0,32,32,113,1,,,,,,,,
,,,,,,,,,,,,,FF,,,,,,,,3.217,,,,,,,,,,,,,,,,,,,,,,61023e0830e893bec6bd8f3c,61037784f5b3fde2956648d5,2021-07-29_22h56.02.237,Simcolourproject_2stim_asymm_v5,2020.2.10,MacIntel,60,61025ae37ef11b136ea224fe,,,,,,,,,2054,-27.953125,-53.0703125,1,0,0,response5disk,,3,-4.54296875,-13.16796875,1,0,0,rectangle,-4.54296875,-13.16796875,1,0,0,-4.54296875,-13.16796875,1,0,0,0,33,33,4,1,,,,,,,,
,,,,,,,,,,,,,FF,,,,,,,,0.8679,,,,,,,,,,,,,,,,,,,,,,61023e0830e893bec6bd8f3c,61037784f5b3fde2956648d5,2021-07-29_22h56.02.237,Simcolourproject_2stim_asymm_v5,2020.2.10,MacIntel,60,61025ae37ef11b136ea224fe,,,,,,,,,4122,-49.95703125,-23.08203125,1,0,0,response5disk,,2,5.078125,-5.734375,1,0,0,rectangle,5.078125,-5.734375,1,0,0,5.078125,-5.734375,1,0,0,0,34,34,77,1,,,,,,,,
,,,,,,,,,,,,,FF,,,,,,,,0.9166,,,,,,,,,,,,,,,,,,,,,,61023e0830e893bec6bd8f3c,61037784f5b3fde2956648d5,2021-07-29_22h56.02.237,Simcolourproject_2stim_asymm_v5,2020.2.10,MacIntel,60,61025ae37ef11b136ea224fe,,,,,,,,,824,-47.515625,-23.84375,1,0,0,response5disk,,2,0.71484375,3.7734375,1,0,0,rectangle,0.71484375,3.7734375,1,0,0,0.71484375,3.7734375,1,0,0,0,35,35,119,1,,,,,,,,
,,,,,,,,,,,,,FF,,,,,,,,3.4836,,,,,,,,,,,,,,,,,,,,,,61023e0830e893bec6bd8f3c,61037784f5b3fde2956648d5,2021-07-29_22h56.02.237,Simcolourproject_2stim_asymm_v5,2020.2.10,MacIntel,60,61025ae37ef11b136ea224fe,,,,,,,,,3799,-31.05859375,-61.4609375,1,0,0,response5disk,,3,-1.234375,-3.76171875,1,0,0,rectangle,-1.234375,-3.76171875,1,0,0,-1.234375,-3.76171875,1,0,0,0,36,36,106,1,,,,,,,,
,,,,,,,,,,,,,FF,,,,,,,,1.5013,,,,,,,,,,,,,,,,,,,,,,61023e0830e893bec6bd8f3c,61037784f5b3fde2956648d5,2021-07-29_22h56.02.237,Simcolourproject_2stim_asymm_v5,2020.2.10,MacIntel,60,61025ae37ef11b136ea224fe,,,,,,,,,2851,37.85546875,-22.33203125,1,0,0,response3disk,,5,4.9921875,-0.75,1,0,0,rectangle,-105.0742188,-53.75390625,1,0,0,-5.12890625,-2.76171875,1,0,0,0,37,37,82,1,,response5disk_3,TRUE,2,2,"[296,57,73,288,270,121,135,107,244,74,201,86,264,271,271,76,82,38,214,0]",3.2337,rectangle
,,,,,,,,,,,,,FF,,,,,,,,0.8167,,,,,,,,,,,,,,,,,,,,,,61023e0830e893bec6bd8f3c,61037784f5b3fde2956648d5,2021-07-29_22h56.02.237,Simcolourproject_2stim_asymm_v5,2020.2.10,MacIntel,60,61025ae37ef11b136ea224fe,,,,,,,,,3112,-61.66015625,-35.37109375,1,0,0,response5disk,,2,0.8984375,-2.234375,1,0,0,rectangle,0.8984375,-2.234375,1,0,0,0.8984375,-2.234375,1,0,0,0,38,38,133,1,,,,,,,,
,,,,,,,,,,,,,FF,,,,,,,,0.9668,,,,,,,,,,,,,,,,,,,,,,61023e0830e893bec6bd8f3c,61037784f5b3fde2956648d5,2021-07-29_22h56.02.237,Simcolourproject_2stim_asymm_v5,2020.2.10,MacIntel,60,61025ae37ef11b136ea224fe,,,,,,,,,1740,-25.984375,-47.19921875,1,0,0,response5disk,,3,-7.42578125,-3.49609375,1,0,0,rectangle,-7.42578125,-3.49609375,1,0,0,-7.42578125,-3.49609375,1,0,0,0,39,39,86,1,,,,,,,,
,,,,,,,,,,,,,FF,,,,,,,,0.7007,,,,,,,,,,,,,,,,,,,,,,61023e0830e893bec6bd8f3c,61037784f5b3fde2956648d5,2021-07-29_22h56.02.237,Simcolourproject_2stim_asymm_v5,2020.2.10,MacIntel,60,61025ae37ef11b136ea224fe,,,,,,,,,2482,-59.75390625,34.37109375,1,0,0,response7disk,,1,-11.09765625,3.61328125,1,0,0,rectangle,-11.09765625,3.61328125,1,0,0,-11.09765625,3.61328125,1,0,0,0,40,40,43,1,,,,,,,,
,,,,,,,,,,,,,FF,,,,,,,,0.5829,,,,,,,,,,,,,,,,,,,,,,61023e0830e893bec6bd8f3c,61037784f5b3fde2956648d5,2021-07-29_22h56.02.237,Simcolourproject_2stim_asymm_v5,2020.2.10,MacIntel,60,61025ae37ef11b136ea224fe,,,,,,,,,3997,-53.47265625,24.23046875,1,0,0,response7disk,,1,-7.62890625,6.1484375,1,0,0,rectangle,-7.62890625,6.1484375,1,0,0,-7.62890625,6.1484375,1,0,0,0,41,41,41,1,,,,,,,,
,,,,,,,,,,,,,FF,,,,,,,,1.4664,,,,,,,,,,,,,,,,,,,,,,61023e0830e893bec6bd8f3c,61037784f5b3fde2956648d5,2021-07-29_22h56.02.237,Simcolourproject_2stim_asymm_v5,2020.2.10,MacIntel,60,61025ae37ef11b136ea224fe,,,,,,,,,1081,44.8984375,40.7265625,1,0,0,response1disk,,6,1.99609375,-8.14453125,1,0,0,rectangle,1.99609375,-8.14453125,1,0,0,1.99609375,-8.14453125,1,0,0,0,42,42,117,1,,,,,,,,
,,,,,,,,,,,,,FF,,,,,,,,1.0338,,,,,,,,,,,,,,,,,,,,,,61023e0830e893bec6bd8f3c,61037784f5b3fde2956648d5,2021-07-29_22h56.02.237,Simcolourproject_2stim_asymm_v5,2020.2.10,MacIntel,60,61025ae37ef11b136ea224fe,,,,,,,,,3682,-55.16015625,-20.046875,1,0,0,response5disk,,2,7.3046875,1.54296875,1,0,0,rectangle,7.3046875,1.54296875,1,0,0,7.3046875,1.54296875,1,0,0,0,43,43,98,1,,,,,,,,
,,,,,,,,,,,,,FF,,,,,,,,0.8504,,,,,,,,,,,,,,,,,,,,,,61023e0830e893bec6bd8f3c,61037784f5b3fde2956648d5,2021-07-29_22h56.02.237,Simcolourproject_2stim_asymm_v5,2020.2.10,MacIntel,60,61025ae37ef11b136ea224fe,,,,,,,,,2433,-56.68359375,-28.328125,1,0,0,response5disk,,2,10.1328125,0.265625,1,0,0,rectangle,10.1328125,0.265625,1,0,0,10.1328125,0.265625,1,0,0,0,44,44,27,1,,,,,,,,
,,,,,,,,,,,,,FF,,,,,,,,0.8677,,,,,,,,,,,,,,,,,,,,,,61023e0830e893bec6bd8f3c,61037784f5b3fde2956648d5,2021-07-29_22h56.02.237,Simcolourproject_2stim_asymm_v5,2020.2.10,MacIntel,60,61025ae37ef11b136ea224fe,,,,,,,,,1044,-49.16796875,-33.2265625,1,0,0,response5disk,,2,10.58203125,-3.78515625,1,0,0,rectangle,10.58203125,-3.78515625,1,0,0,10.58203125,-3.78515625,1,0,0,0,45,45,20,1,,,,,,,,
,,,,,,,,,,,,,FF,,,,,,,,0.9518,,,,,,,,,,,,,,,,,,,,,,61023e0830e893bec6bd8f3c,61037784f5b3fde2956648d5,2021-07-29_22h56.02.237,Simcolourproject_2stim_asymm_v5,2020.2.10,MacIntel,60,61025ae37ef11b136ea224fe,,,,,,,,,1622,23.1640625,42.42578125,1,0,0,response1disk,,7,-1.18359375,4.84765625,1,0,0,rectangle,-1.18359375,4.84765625,1,0,0,-1.18359375,4.84765625,1,0,0,0,46,46,155,1,,,,,,,,
,,,,,,,,,,,,,FF,,,,,,,,1.5165,,,,,,,,,,,,,,,,,,,,,,61023e0830e893bec6bd8f3c,61037784f5b3fde2956648d5,2021-07-29_22h56.02.237,Simcolourproject_2stim_asymm_v5,2020.2.10,MacIntel,60,61025ae37ef11b136ea224fe,,,,,,,,,1053,-38.453125,-63.18359375,1,0,0,response5disk,,3,-1.9609375,-4.5625,1,0,0,rectangle,-1.9609375,-4.5625,1,0,0,-1.9609375,-4.5625,1,0,0,0,47,47,81,1,,,,,,,,
,,,,,,,,,,,,,FF,,,,,,,,1.1826,,,,,,,,,,,,,,,,,,,,,,61023e0830e893bec6bd8f3c,61037784f5b3fde2956648d5,2021-07-29_22h56.02.237,Simcolourproject_2stim_asymm_v5,2020.2.10,MacIntel,60,61025ae37ef11b136ea224fe,,,,,,,,,436,-76.5859375,31.33203125,1,0,0,response7disk,,1,5.2890625,-5.75,1,0,0,rectangle,5.2890625,-5.75,1,0,0,5.2890625,-5.75,1,0,0,0,48,48,91,1,,,,,,,,
,,,,,,,,,,,,,FF,,,,,,,,1.1665,,,,,,,,,,,,,,,,,,,,,,61023e0830e893bec6bd8f3c,61037784f5b3fde2956648d5,2021-07-29_22h56.02.237,Simcolourproject_2stim_asymm_v5,2020.2.10,MacIntel,60,61025ae37ef11b136ea224fe,,,,,,,,,2663,-57.078125,27.55859375,1,0,0,response7disk,,1,-13.3359375,1.40625,1,0,0,rectangle,-13.3359375,1.40625,1,0,0,-13.3359375,1.40625,1,0,0,0,49,49,150,1,,,,,,,,
,,,,,,,,,,,,,FF,,,,,,,,0.9657,,,,,,,,,,,,,,,,,,,,,,61023e0830e893bec6bd8f3c,61037784f5b3fde2956648d5,2021-07-29_22h56.02.237,Simcolourproject_2stim_asymm_v5,2020.2.10,MacIntel,60,61025ae37ef11b136ea224fe,,,,,,,,,2726,-66.5390625,27.23828125,1,0,0,response7disk,,1,-0.84765625,-4.7265625,1,0,0,rectangle,-0.84765625,-4.7265625,1,0,0,-0.84765625,-4.7265625,1,0,0,0,50,50,114,1,,,,,,,,
,,,,,,,,,,,,,FF,,,,,,,,0.7991,,,,,,,,,,,,,,,,,,,,,,61023e0830e893bec6bd8f3c,61037784f5b3fde2956648d5,2021-07-29_22h56.02.237,Simcolourproject_2stim_asymm_v5,2020.2.10,MacIntel,60,61025ae37ef11b136ea224fe,,,,,,,,,2184,30.859375,46.12890625,1,0,0,response1disk,,7,-6.05078125,-5.34765625,1,0,0,rectangle,-6.05078125,-5.34765625,1,0,0,-6.05078125,-5.34765625,1,0,0,0,51,51,14,1,,,,,,,,
,,,,,,,,,,,,,FF,,,,,,,,0.8996,,,,,,,,,,,,,,,,,,,,,,61023e0830e893bec6bd8f3c,61037784f5b3fde2956648d5,2021-07-29_22h56.02.237,Simcolourproject_2stim_asymm_v5,2020.2.10,MacIntel,60,61025ae37ef11b136ea224fe,,,,,,,,,4220,-30.7265625,-62.69921875,1,0,0,response5disk,,3,-10.62109375,-5.5390625,1,0,0,rectangle,-10.62109375,-5.5390625,1,0,0,-10.62109375,-5.5390625,1,0,0,0,52,52,144,1,,,,,,,,
,,,,,,,,,,,,,FF,,,,,,,,2.0012,,,,,,,,,,,,,,,,,,,,,,61023e0830e893bec6bd8f3c,61037784f5b3fde2956648d5,2021-07-29_22h56.02.237,Simcolourproject_2stim_asymm_v5,2020.2.10,MacIntel,60,61025ae37ef11b136ea224fe,,,,,,,,,478,72.2109375,-25.71484375,1,0,0,response3disk,,5,27.14453125,0.234375,1,0,0,rectangle,27.14453125,0.234375,1,0,0,27.14453125,0.234375,1,0,0,0,53,53,76,1,,,,,,,,
,,,,,,,,,,,,,FF,,,,,,,,1.384,,,,,,,,,,,,,,,,,,,,,,61023e0830e893bec6bd8f3c,61037784f5b3fde2956648d5,2021-07-29_22h56.02.237,Simcolourproject_2stim_asymm_v5,2020.2.10,MacIntel,60,61025ae37ef11b136ea224fe,,,,,,,,,3181,50.078125,18.515625,1,0,0,response1disk,,6,11.4609375,1.96875,1,0,0,rectangle,11.4609375,1.96875,1,0,0,11.4609375,1.96875,1,0,0,0,54,54,48,1,,,,,,,,
,,,,,,,,,,,,,FF,,,,,,,,1.3342,,,,,,,,,,,,,,,,,,,,,,61023e0830e893bec6bd8f3c,61037784f5b3fde2956648d5,2021-07-29_22h56.02.237,Simcolourproject_2stim_asymm_v5,2020.2.10,MacIntel,60,61025ae37ef11b136ea224fe,,,,,,,,,2956,25.01953125,-77.81640625,1,0,0,response3disk,,4,-8.35546875,10.6640625,1,0,0,rectangle,-8.35546875,10.6640625,1,0,0,-8.35546875,10.6640625,1,0,0,0,55,55,22,1,,,,,,,,
,,,,,,,,,,,,,FF,,,,,,,,1.0672,,,,,,,,,,,,,,,,,,,,,,61023e0830e893bec6bd8f3c,61037784f5b3fde2956648d5,2021-07-29_22h56.02.237,Simcolourproject_2stim_asymm_v5,2020.2.10,MacIntel,60,61025ae37ef11b136ea224fe,,,,,,,,,1207,-22.71484375,-67.1171875,1,0,0,response5disk,,3,7.93359375,10.46484375,1,0,0,rectangle,44.23046875,-82.21484375,1,0,0,-11.8359375,9.58984375,1,0,0,0,56,56,157,1,,response3disk_3,TRUE,4,4,"[296,57,73,288,270,121,135,107,244,74,201,86,264,271,271,76,82,38,214,0]",1.7505,rectangle
,,,,,,,,,,,,,FF,,,,,,,,2.0839,,,,,,,,,,,,,,,,,,,,,,61023e0830e893bec6bd8f3c,61037784f5b3fde2956648d5,2021-07-29_22h56.02.237,Simcolourproject_2stim_asymm_v5,2020.2.10,MacIntel,60,61025ae37ef11b136ea224fe,,,,,,,,,3318,27.7734375,54.6171875,1,0,0,response1disk,,7,-2.43359375,-1.67578125,1,0,0,rectangle,-2.43359375,-1.67578125,1,0,0,-2.43359375,-1.67578125,1,0,0,0,57,57,21,1,,,,,,,,
,,,,,,,,,,,,,FF,,,,,,,,0.9338,,,,,,,,,,,,,,,,,,,,,,61023e0830e893bec6bd8f3c,61037784f5b3fde2956648d5,2021-07-29_22h56.02.237,Simcolourproject_2stim_asymm_v5,2020.2.10,MacIntel,60,61025ae37ef11b136ea224fe,,,,,,,,,1635,49.26171875,24.60546875,1,0,0,response1disk,,6,2.69921875,2.71875,1,0,0,rectangle,2.69921875,2.71875,1,0,0,2.69921875,2.71875,1,0,0,0,58,58,97,1,,,,,,,,
,,,,,,,,,,,,,FF,,,,,,,,1.1667,,,,,,,,,,,,,,,,,,,,,,61023e0830e893bec6bd8f3c,61037784f5b3fde2956648d5,2021-07-29_22h56.02.237,Simcolourproject_2stim_asymm_v5,2020.2.10,MacIntel,60,61025ae37ef11b136ea224fe,,,,,,,,,299,-36.55078125,-54.71484375,1,0,0,response5disk,,3,7.75,12.59375,1,0,0,rectangle,7.75,12.59375,1,0,0,7.75,12.59375,1,0,0,0,59,59,38,1,,,,,,,,
,,,,,,,,,,,,,FF,,,,,,,,1.5335,,,,,,,,,,,,,,,,,,,,,,61023e0830e893bec6bd8f3c,61037784f5b3fde2956648d5,2021-07-29_22h56.02.237,Simcolourproject_2stim_asymm_v5,2020.2.10,MacIntel,60,61025ae37ef11b136ea224fe,,,,,,,,,145,-32.19921875,-42.16796875,1,0,0,response5disk,,3,4.0703125,-2.1796875,1,0,0,rectangle,4.0703125,-2.1796875,1,0,0,4.0703125,-2.1796875,1,0,0,0,60,60,111,1,,,,,,,,
,,,,,,,,,,,,,FF,,,,,,,,1.2506,,,,,,,,,,,,,,,,,,,,,,61023e0830e893bec6bd8f3c,61037784f5b3fde2956648d5,2021-07-29_22h56.02.237,Simcolourproject_2stim_asymm_v5,2020.2.10,MacIntel,60,61025ae37ef11b136ea224fe,,,,,,,,,2320,29.74609375,-32.21875,1,0,0,response3disk,,4,19.65234375,0.7109375,1,0,0,rectangle,19.65234375,0.7109375,1,0,0,19.65234375,0.7109375,1,0,0,0,61,61,54,1,,,,,,,,
,,,,,,,,,,,,,FF,,,,,,,,0.933,,,,,,,,,,,,,,,,,,,,,,61023e0830e893bec6bd8f3c,61037784f5b3fde2956648d5,2021-07-29_22h56.02.237,Simcolourproject_2stim_asymm_v5,2020.2.10,MacIntel,60,61025ae37ef11b136ea224fe,,,,,,,,,1916,-22.6015625,-41.44140625,1,0,0,response5disk,,3,-0.91015625,-9.4375,1,0,0,rectangle,-0.91015625,-9.4375,1,0,0,-0.91015625,-9.4375,1,0,0,0,62,62,123,1,,,,,,,,
,,,,,,,,,,,,,FF,,,,,,,,2.1167,,,,,,,,,,,,,,,,,,,,,,61023e0830e893bec6bd8f3c,61037784f5b3fde2956648d5,2021-07-29_22h56.02.237,Simcolourproject_2stim_asymm_v5,2020.2.10,MacIntel,60,61025ae37ef11b136ea224fe,,,,,,,,,675,75.3125,16.1796875,1,0,0,response1disk,,6,14.0234375,4.62890625,1,0,0,rectangle,14.0234375,4.62890625,1,0,0,14.0234375,4.62890625,1,0,0,0,63,63,108,1,,,,,,,,
,,,,,,,,,,,,,FF,,,,,,,,6.2832,,,,,,,,,,,,,,,,,,,,,,61023e0830e893bec6bd8f3c,61037784f5b3fde2956648d5,2021-07-29_22h56.02.237,Simcolourproject_2stim_asymm_v5,2020.2.10,MacIntel,60,61025ae37ef11b136ea224fe,,,,,,,,,4015,65.953125,28.03515625,1,0,0,response1disk,,6,-3.1484375,-1.69921875,1,0,0,rectangle,-3.1484375,-1.69921875,1,0,0,-3.1484375,-1.69921875,1,0,0,0,64,64,84,1,,,,,,,,
,,,,,,,,,,,,,FF,,,,,,,,2.3153,,,,,,,,,,,,,,,,,,,,,,61023e0830e893bec6bd8f3c,61037784f5b3fde2956648d5,2021-07-29_22h56.02.237,Simcolourproject_2stim_asymm_v5,2020.2.10,MacIntel,60,61025ae37ef11b136ea224fe,,,,,,,,,3463,-31.91015625,-55.2734375,1,0,0,response5disk,,3,-2.71875,-10.89453125,1,0,0,rectangle,-2.71875,-10.89453125,1,0,0,-2.71875,-10.89453125,1,0,0,0,65,65,37,1,,,,,,,,
,,,,,,,,,,,,,FF,,,,,,,,1.2663,,,,,,,,,,,,,,,,,,,,,,61023e0830e893bec6bd8f3c,61037784f5b3fde2956648d5,2021-07-29_22h56.02.237,Simcolourproject_2stim_asymm_v5,2020.2.10,MacIntel,60,61025ae37ef11b136ea224fe,,,,,,,,,2924,44.35546875,29.1328125,1,0,0,response1disk,,6,7.78515625,0.60546875,1,0,0,rectangle,7.78515625,0.60546875,1,0,0,7.78515625,0.60546875,1,0,0,0,66,66,138,1,,,,,,,,
,,,,,,,,,,,,,FF,,,,,,,,1.0496,,,,,,,,,,,,,,,,,,,,,,61023e0830e893bec6bd8f3c,61037784f5b3fde2956648d5,2021-07-29_22h56.02.237,Simcolourproject_2stim_asymm_v5,2020.2.10,MacIntel,60,61025ae37ef11b136ea224fe,,,,,,,,,2950,-30.96875,-61.6796875,1,0,0,response5disk,,3,5.078125,-5.09765625,1,0,0,rectangle,5.078125,-5.09765625,1,0,0,5.078125,-5.09765625,1,0,0,0,67,67,109,1,,,,,,,,
,,,,,,,,,,,,,FF,,,,,,,,0.8499,,,,,,,,,,,,,,,,,,,,,,61023e0830e893bec6bd8f3c,61037784f5b3fde2956648d5,2021-07-29_22h56.02.237,Simcolourproject_2stim_asymm_v5,2020.2.10,MacIntel,60,61025ae37ef11b136ea224fe,,,,,,,,,2369,-48.06640625,33.01953125,1,0,0,response7disk,,1,8.9921875,6.46484375,1,0,0,rectangle,8.9921875,6.46484375,1,0,0,8.9921875,6.46484375,1,0,0,0,68,68,101,1,,,,,,,,
,,,,,,,,,,,,,FF,,,,,,,,0.7157,,,,,,,,,,,,,,,,,,,,,,61023e0830e893bec6bd8f3c,61037784f5b3fde2956648d5,2021-07-29_22h56.02.237,Simcolourproject_2stim_asymm_v5,2020.2.10,MacIntel,60,61025ae37ef11b136ea224fe,,,,,,,,,1514,33.59765625,44.3828125,1,0,0,response1disk,,7,9.28125,5.26953125,1,0,0,rectangle,9.28125,5.26953125,1,0,0,9.28125,5.26953125,1,0,0,0,69,69,78,1,,,,,,,,
,,,,,,,,,,,,,FF,,,,,,,,0.8168,,,,,,,,,,,,,,,,,,,,,,61023e0830e893bec6bd8f3c,61037784f5b3fde2956648d5,2021-07-29_22h56.02.237,Simcolourproject_2stim_asymm_v5,2020.2.10,MacIntel,60,61025ae37ef11b136ea224fe,,,,,,,,,1824,-56.89453125,31.390625,1,0,0,response7disk,,1,-1.98046875,1.0625,1,0,0,rectangle,-1.98046875,1.0625,1,0,0,-1.98046875,1.0625,1,0,0,0,70,70,72,1,,,,,,,,
,,,,,,,,,,,,,FF,,,,,,,,1.8001,,,,,,,,,,,,,,,,,,,,,,61023e0830e893bec6bd8f3c,61037784f5b3fde2956648d5,2021-07-29_22h56.02.237,Simcolourproject_2stim_asymm_v5,2020.2.10,MacIntel,60,61025ae37ef11b136ea224fe,,,,,,,,,3171,45.3046875,-30.109375,1,0,0,response3disk,,5,2.1796875,-5.54296875,1,0,0,rectangle,2.1796875,-5.54296875,1,0,0,2.1796875,-5.54296875,1,0,0,0,71,71,16,1,,,,,,,,
,,,,,,,,,,,,,FF,,,,,,,,1.2829,,,,,,,,,,,,,,,,,,,,,,61023e0830e893bec6bd8f3c,61037784f5b3fde2956648d5,2021-07-29_22h56.02.237,Simcolourproject_2stim_asymm_v5,2020.2.10,MacIntel,60,61025ae37ef11b136ea224fe,,,,,,,,,2986,-65.98828125,25.8046875,1,0,0,response7disk,,1,-9.90625,-3.12890625,1,0,0,rectangle,57.8515625,-86.3828125,1,0,0,-7.296875,-9.62890625,1,0,0,0,72,72,49,1,,response3disk_3,TRUE,4,4,"[296,57,73,288,270,121,135,107,244,74,201,86,264,271,271,76,82,38,214,0]",1.85,rectangle
,,,,,,,,,,,,,FF,,,,,,,,1.2507,,,,,,,,,,,,,,,,,,,,,,61023e0830e893bec6bd8f3c,61037784f5b3fde2956648d5,2021-07-29_22h56.02.237,Simcolourproject_2stim_asymm_v5,2020.2.10,MacIntel,60,61025ae37ef11b136ea224fe,,,,,,,,,928,46.96875,29.203125,1,0,0,response1disk,,6,4.19140625,-2.60546875,1,0,0,rectangle,73.9140625,-32.40234375,1,0,0,-13.46875,6.98828125,1,0,0,0,73,73,148,1,,response3disk_3,TRUE,5,5,"[296,57,73,288,270,121,135,107,244,74,201,86,264,271,271,76,82,38,214,0]",1.3326,rectangle
,,,,,,,,,,,,,FF,,,,,,,,1.2333,,,,,,,,,,,,,,,,,,,,,,61023e0830e893bec6bd8f3c,61037784f5b3fde2956648d5,2021-07-29_22h56.02.237,Simcolourproject_2stim_asymm_v5,2020.2.10,MacIntel,60,61025ae37ef11b136ea224fe,,,,,,,,,3260,-33.203125,-49.81640625,1,0,0,response5disk,,3,-2.046875,-5.03515625,1,0,0,rectangle,-2.046875,-5.03515625,1,0,0,-2.046875,-5.03515625,1,0,0,0,74,74,19,1,,,,,,,,
,,,,,,,,,,,,,FF,,,,,,,,1.2157,,,,,,,,,,,,,,,,,,,,,,61023e0830e893bec6bd8f3c,61037784f5b3fde2956648d5,2021-07-29_22h56.02.237,Simcolourproject_2stim_asymm_v5,2020.2.10,MacIntel,60,61025ae37ef11b136ea224fe,,,,,,,,,1164,55.734375,-25.30859375,1,0,0,response3disk,,5,5.9609375,0.91796875,1,0,0,rectangle,31.921875,62.5390625,1,0,0,-13.51953125,-5.68359375,1,0,0,0,75,75,45,1,,response1disk_3,TRUE,7,7,"[296,57,73,288,270,121,135,107,244,74,201,86,264,271,271,76,82,38,214,0]",1.6324,rectangle
,,,,,,,,,,,,,FF,,,,,,,,1.7333,,,,,,,,,,,,,,,,,,,,,,61023e0830e893bec6bd8f3c,61037784f5b3fde2956648d5,2021-07-29_22h56.02.237,Simcolourproject_2stim_asymm_v5,2020.2.10,MacIntel,60,61025ae37ef11b136ea224fe,,,,,,,,,841,-26.78125,-65.98046875,1,0,0,response5disk,,3,0.3671875,1.79296875,1,0,0,rectangle,0.3671875,1.79296875,1,0,0,0.3671875,1.79296875,1,0,0,0,76,76,145,1,,,,,,,,
,,,,,,,,,,,,,FF,,,,,,,,1.4325,,,,,,,,,,,,,,,,,,,,,,61023e0830e893bec6bd8f3c,61037784f5b3fde2956648d5,2021-07-29_22h56.02.237,Simcolourproject_2stim_asymm_v5,2020.2.10,MacIntel,60,61025ae37ef11b136ea224fe,,,,,,,,,3375,-47.24609375,20.26953125,1,0,0,response7disk,,1,-10.7421875,-2.53515625,1,0,0,rectangle,-10.7421875,-2.53515625,1,0,0,-10.7421875,-2.53515625,1,0,0,0,77,77,58,1,,,,,,,,
,,,,,,,,,,,,,FF,,,,,,,,0.9324,,,,,,,,,,,,,,,,,,,,,,61023e0830e893bec6bd8f3c,61037784f5b3fde2956648d5,2021-07-29_22h56.02.237,Simcolourproject_2stim_asymm_v5,2020.2.10,MacIntel,60,61025ae37ef11b136ea224fe,,,,,,,,,3008,-22.78515625,-59.8046875,1,0,0,response5disk,,3,-2.48046875,-9.04296875,1,0,0,rectangle,-2.48046875,-9.04296875,1,0,0,-2.48046875,-9.04296875,1,0,0,0,78,78,147,1,,,,,,,,
,,,,,,,,,,,,,FF,,,,,,,,1.3,,,,,,,,,,,,,,,,,,,,,,61023e0830e893bec6bd8f3c,61037784f5b3fde2956648d5,2021-07-29_22h56.02.237,Simcolourproject_2stim_asymm_v5,2020.2.10,MacIntel,60,61025ae37ef11b136ea224fe,,,,,,,,,2559,65.30859375,-20.2421875,1,0,0,response3disk,,5,9.87890625,5.3359375,1,0,0,rectangle,9.87890625,5.3359375,1,0,0,9.87890625,5.3359375,1,0,0,0,79,79,124,1,,,,,,,,
,,,,,,,,,,,,,FF,,,,,,,,0.9838,,,,,,,,,,,,,,,,,,,,,,61023e0830e893bec6bd8f3c,61037784f5b3fde2956648d5,2021-07-29_22h56.02.237,Simcolourproject_2stim_asymm_v5,2020.2.10,MacIntel,60,61025ae37ef11b136ea224fe,,,,,,,,,3974,-45.9375,22.8046875,1,0,0,response7disk,,1,-9.12890625,-4.125,1,0,0,rectangle,-9.12890625,-4.125,1,0,0,-9.12890625,-4.125,1,0,0,0,80,80,110,1,,,,,,,,
,,,,,,,,,,,,,FF,,,,,,,,2.2996,,,,,,,,,,,,,,,,,,,,,,61023e0830e893bec6bd8f3c,61037784f5b3fde2956648d5,2021-07-29_22h56.02.237,Simcolourproject_2stim_asymm_v5,2020.2.10,MacIntel,60,61025ae37ef11b136ea224fe,,,,,,,,,670,47.5,-24.7109375,1,0,0,response3disk,,5,-1.2578125,0.45703125,1,0,0,rectangle,-79.625,-45.19140625,1,0,0,2.5234375,-9.8203125,1,0,0,0,81,81,56,1,,response5disk_3,TRUE,2,2,"[296,57,73,288,270,121,135,107,244,74,201,86,264,271,271,76,82,38,214,0]",1.4013,rectangle
,,,,,,,,,,,,,FF,,,,,,,,1.8835,,,,,,,,,,,,,,,,,,,,,,61023e0830e893bec6bd8f3c,61037784f5b3fde2956648d5,2021-07-29_22h56.02.237,Simcolourproject_2stim_asymm_v5,2020.2.10,MacIntel,60,61025ae37ef11b136ea224fe,,,,,,,,,2620,-37.30078125,-86.47265625,1,0,0,response5disk,,3,-8.9765625,1.5078125,1,0,0,rectangle,-8.9765625,1.5078125,1,0,0,-8.9765625,1.5078125,1,0,0,0,82,82,151,1,,,,,,,,
,,,,,,,,,,,,,FF,,,,,,,,0.8995,,,,,,,,,,,,,,,,,,,,,,61023e0830e893bec6bd8f3c,61037784f5b3fde2956648d5,2021-07-29_22h56.02.237,Simcolourproject_2stim_asymm_v5,2020.2.10,MacIntel,60,61025ae37ef11b136ea224fe,,,,,,,,,1063,-52.48828125,23.3359375,1,0,0,response7disk,,1,2.1875,-9.65625,1,0,0,rectangle,2.1875,-9.65625,1,0,0,2.1875,-9.65625,1,0,0,0,83,83,40,1,,,,,,,,
,,,,,,,,,,,,,FF,,,,,,,,0.9345,,,,,,,,,,,,,,,,,,,,,,61023e0830e893bec6bd8f3c,61037784f5b3fde2956648d5,2021-07-29_22h56.02.237,Simcolourproject_2stim_asymm_v5,2020.2.10,MacIntel,60,61025ae37ef11b136ea224fe,,,,,,,,,1261,56.34765625,-32.5390625,1,0,0,response3disk,,5,9.64453125,2.53515625,1,0,0,rectangle,9.64453125,2.53515625,1,0,0,9.64453125,2.53515625,1,0,0,0,84,84,158,1,,,,,,,,
,,,,,,,,,,,,,FF,,,,,,,,0.9498,,,,,,,,,,,,,,,,,,,,,,61023e0830e893bec6bd8f3c,61037784f5b3fde2956648d5,2021-07-29_22h56.02.237,Simcolourproject_2stim_asymm_v5,2020.2.10,MacIntel,60,61025ae37ef11b136ea224fe,,,,,,,,,701,-51.328125,-30.03125,1,0,0,response5disk,,2,-4.359375,-8.18359375,1,0,0,rectangle,-16.5,52.96484375,1,0,0,-1.01171875,-4.3046875,1,0,0,0,85,85,7,1,,response7disk_3,TRUE,0,0,"[296,57,73,288,270,121,135,107,244,74,201,86,264,271,271,76,82,38,214,0]",1.5507,rectangle
,,,,,,,,,,,,,FF,,,,,,,,1.883,,,,,,,,,,,,,,,,,,,,,,61023e0830e893bec6bd8f3c,61037784f5b3fde2956648d5,2021-07-29_22h56.02.237,Simcolourproject_2stim_asymm_v5,2020.2.10,MacIntel,60,61025ae37ef11b136ea224fe,,,,,,,,,514,-64.33203125,-33.14453125,1,0,0,response5disk,,2,6.16015625,-4.6328125,1,0,0,rectangle,6.16015625,-4.6328125,1,0,0,6.16015625,-4.6328125,1,0,0,0,86,86,135,1,,,,,,,,
,,,,,,,,,,,,,FF,,,,,,,,1.0155,,,,,,,,,,,,,,,,,,,,,,61023e0830e893bec6bd8f3c,61037784f5b3fde2956648d5,2021-07-29_22h56.02.237,Simcolourproject_2stim_asymm_v5,2020.2.10,MacIntel,60,61025ae37ef11b136ea224fe,,,,,,,,,3138,-34.9453125,-76.4765625,1,0,0,response5disk,,3,-10.9609375,-6.72265625,1,0,0,rectangle,-10.9609375,-6.72265625,1,0,0,-10.9609375,-6.72265625,1,0,0,0,87,87,61,1,,,,,,,,
,,,,,,,,,,,,,FF,,,,,,,,0.8174,,,,,,,,,,,,,,,,,,,,,,61023e0830e893bec6bd8f3c,61037784f5b3fde2956648d5,2021-07-29_22h56.02.237,Simcolourproject_2stim_asymm_v5,2020.2.10,MacIntel,60,61025ae37ef11b136ea224fe,,,,,,,,,3817,-54.65234375,27.19921875,1,0,0,response7disk,,1,-11.875,1.62890625,1,0,0,rectangle,-11.875,1.62890625,1,0,0,-11.875,1.62890625,1,0,0,0,88,88,26,1,,,,,,,,
,,,,,,,,,,,,,FF,,,,,,,,1.0836,,,,,,,,,,,,,,,,,,,,,,61023e0830e893bec6bd8f3c,61037784f5b3fde2956648d5,2021-07-29_22h56.02.237,Simcolourproject_2stim_asymm_v5,2020.2.10,MacIntel,60,61025ae37ef11b136ea224fe,,,,,,,,,619,-66.74609375,29.875,1,0,0,response7disk,,1,-9.1328125,2.04296875,1,0,0,rectangle,-9.1328125,2.04296875,1,0,0,-9.1328125,2.04296875,1,0,0,0,89,89,95,1,,,,,,,,
,,,,,,,,,,,,,FF,,,,,,,,1.0669,,,,,,,,,,,,,,,,,,,,,,61023e0830e893bec6bd8f3c,61037784f5b3fde2956648d5,2021-07-29_22h56.02.237,Simcolourproject_2stim_asymm_v5,2020.2.10,MacIntel,60,61025ae37ef11b136ea224fe,,,,,,,,,2255,-40.78515625,-82.27734375,1,0,0,response5disk,,3,-1.921875,-5.90625,1,0,0,rectangle,-1.921875,-5.90625,1,0,0,-1.921875,-5.90625,1,0,0,0,90,90,112,1,,,,,,,,
,,,,,,,,,,,,,FF,,,,,,,,0.9826,,,,,,,,,,,,,,,,,,,,,,61023e0830e893bec6bd8f3c,61037784f5b3fde2956648d5,2021-07-29_22h56.02.237,Simcolourproject_2stim_asymm_v5,2020.2.10,MacIntel,60,61025ae37ef11b136ea224fe,,,,,,,,,2519,67.4609375,-23.328125,1,0,0,response3disk,,5,0.64453125,1.00390625,1,0,0,rectangle,0.64453125,1.00390625,1,0,0,0.64453125,1.00390625,1,0,0,0,91,91,51,1,,,,,,,,
,,,,,,,,,,,,,FF,,,,,,,,0.8013,,,,,,,,,,,,,,,,,,,,,,61023e0830e893bec6bd8f3c,61037784f5b3fde2956648d5,2021-07-29_22h56.02.237,Simcolourproject_2stim_asymm_v5,2020.2.10,MacIntel,60,61025ae37ef11b136ea224fe,,,,,,,,,700,-67.265625,24.4140625,1,0,0,response7disk,,1,-14.2890625,-1.62109375,1,0,0,rectangle,-14.2890625,-1.62109375,1,0,0,-14.2890625,-1.62109375,1,0,0,0,92,92,66,1,,,,,,,,
,,,,,,,,,,,,,FF,,,,,,,,1.1653,,,,,,,,,,,,,,,,,,,,,,61023e0830e893bec6bd8f3c,61037784f5b3fde2956648d5,2021-07-29_22h56.02.237,Simcolourproject_2stim_asymm_v5,2020.2.10,MacIntel,60,61025ae37ef11b136ea224fe,,,,,,,,,2206,53.75,35.4609375,1,0,0,response1disk,,6,-16.24609375,-0.71484375,1,0,0,rectangle,-16.24609375,-0.71484375,1,0,0,-16.24609375,-0.71484375,1,0,0,0,93,93,153,1,,,,,,,,
,,,,,,,,,,,,,FF,,,,,,,,0.9172,,,,,,,,,,,,,,,,,,,,,,61023e0830e893bec6bd8f3c,61037784f5b3fde2956648d5,2021-07-29_22h56.02.237,Simcolourproject_2stim_asymm_v5,2020.2.10,MacIntel,60,61025ae37ef11b136ea224fe,,,,,,,,,2372,-25.01953125,-66.09375,1,0,0,response5disk,,3,3.47265625,-3.35546875,1,0,0,rectangle,3.47265625,-3.35546875,1,0,0,3.47265625,-3.35546875,1,0,0,0,94,94,10,1,,,,,,,,
,,,,,,,,,,,,,FF,,,,,,,,1.3659,,,,,,,,,,,,,,,,,,,,,,61023e0830e893bec6bd8f3c,61037784f5b3fde2956648d5,2021-07-29_22h56.02.237,Simcolourproject_2stim_asymm_v5,2020.2.10,MacIntel,60,61025ae37ef11b136ea224fe,,,,,,,,,2671,-36.30859375,-62.30078125,1,0,0,response5disk,,3,-5.96484375,-2.3046875,1,0,0,rectangle,-5.96484375,-2.3046875,1,0,0,-5.96484375,-2.3046875,1,0,0,0,95,95,131,1,,,,,,,,
,,,,,,,,,,,,,FF,,,,,,,,0.7836,,,,,,,,,,,,,,,,,,,,,,61023e0830e893bec6bd8f3c,61037784f5b3fde2956648d5,2021-07-29_22h56.02.237,Simcolourproject_2stim_asymm_v5,2020.2.10,MacIntel,60,61025ae37ef11b136ea224fe,,,,,,,,,2099,-54.51953125,30.765625,1,0,0,response7disk,,1,-6.171875,2.56640625,1,0,0,rectangle,-6.171875,2.56640625,1,0,0,-6.171875,2.56640625,1,0,0,0,96,96,12,1,,,,,,,,
,,,,,,,,,,,,,FF,,,,,,,,0.984,,,,,,,,,,,,,,,,,,,,,,61023e0830e893bec6bd8f3c,61037784f5b3fde2956648d5,2021-07-29_22h56.02.237,Simcolourproject_2stim_asymm_v5,2020.2.10,MacIntel,60,61025ae37ef11b136ea224fe,,,,,,,,,1027,-68.55078125,-40.88671875,1,0,0,response5disk,,2,1.9140625,-6.65625,1,0,0,rectangle,1.9140625,-6.65625,1,0,0,1.9140625,-6.65625,1,0,0,0,97,97,103,1,,,,,,,,
,,,,,,,,,,,,,FF,,,,,,,,1.7833,,,,,,,,,,,,,,,,,,,,,,61023e0830e893bec6bd8f3c,61037784f5b3fde2956648d5,2021-07-29_22h56.02.237,Simcolourproject_2stim_asymm_v5,2020.2.10,MacIntel,60,61025ae37ef11b136ea224fe,,,,,,,,,2984,-83.52734375,-36.91796875,1,0,0,response5disk,,2,-8.4921875,-4.25,1,0,0,rectangle,-8.4921875,-4.25,1,0,0,-8.4921875,-4.25,1,0,0,0,98,98,17,1,,,,,,,,
,,,,,,,,,,,,,FF,,,,,,,,1.4,,,,,,,,,,,,,,,,,,,,,,61023e0830e893bec6bd8f3c,61037784f5b3fde2956648d5,2021-07-29_22h56.02.237,Simcolourproject_2stim_asymm_v5,2020.2.10,MacIntel,60,61025ae37ef11b136ea224fe,,,,,,,,,1224,32.83203125,-55.09765625,1,0,0,response3disk,,4,-3.6328125,6.97265625,1,0,0,rectangle,-3.6328125,6.97265625,1,0,0,-3.6328125,6.97265625,1,0,0,0,99,99,13,1,,,,,,,,
,,,,,,,,,,,,,FF,,,,,,,,0.9823,,,,,,,,,,,,,,,,,,,,,,61023e0830e893bec6bd8f3c,61037784f5b3fde2956648d5,2021-07-29_22h56.02.237,Simcolourproject_2stim_asymm_v5,2020.2.10,MacIntel,60,61025ae37ef11b136ea224fe,,,,,,,,,4344,-42.11328125,85.30078125,1,0,0,response7disk,,0,-17.58984375,-5.015625,1,0,0,rectangle,-17.58984375,-5.015625,1,0,0,-17.58984375,-5.015625,1,0,0,0,100,100,39,1,,,,,,,,
,,,,,,,,,,,,,FF,,,,,,,,0.8503,,,,,,,,,,,,,,,,,,,,,,61023e0830e893bec6bd8f3c,61037784f5b3fde2956648d5,2021-07-29_22h56.02.237,Simcolourproject_2stim_asymm_v5,2020.2.10,MacIntel,60,61025ae37ef11b136ea224fe,,,,,,,,,66,-65.70703125,-38.546875,1,0,0,response5disk,,2,-2.20703125,-2.5625,1,0,0,rectangle,-2.20703125,-2.5625,1,0,0,-2.20703125,-2.5625,1,0,0,0,101,101,137,1,,,,,,,,
,,,,,,,,,,,,,FF,,,,,,,,0.732,,,,,,,,,,,,,,,,,,,,,,61023e0830e893bec6bd8f3c,61037784f5b3fde2956648d5,2021-07-29_22h56.02.237,Simcolourproject_2stim_asymm_v5,2020.2.10,MacIntel,60,61025ae37ef11b136ea224fe,,,,,,,,,2886,-36.40234375,71.95703125,1,0,0,response7disk,,0,-17.71484375,-0.47265625,1,0,0,rectangle,-17.71484375,-0.47265625,1,0,0,-17.71484375,-0.47265625,1,0,0,0,102,102,116,1,,,,,,,,
,,,,,,,,,,,,,FF,,,,,,,,1.2829,,,,,,,,,,,,,,,,,,,,,,61023e0830e893bec6bd8f3c,61037784f5b3fde2956648d5,2021-07-29_22h56.02.237,Simcolourproject_2stim_asymm_v5,2020.2.10,MacIntel,60,61025ae37ef11b136ea224fe,,,,,,,,,705,40.64453125,-58.390625,1,0,0,response3disk,,4,14.6015625,-3.859375,1,0,0,rectangle,14.6015625,-3.859375,1,0,0,14.6015625,-3.859375,1,0,0,0,103,103,93,1,,,,,,,,
,,,,,,,,,,,,,FF,,,,,,,,0.984,,,,,,,,,,,,,,,,,,,,,,61023e0830e893bec6bd8f3c,61037784f5b3fde2956648d5,2021-07-29_22h56.02.237,Simcolourproject_2stim_asymm_v5,2020.2.10,MacIntel,60,61025ae37ef11b136ea224fe,,,,,,,,,2740,42.78125,-64.58984375,1,0,0,response3disk,,4,11.953125,1.140625,1,0,0,rectangle,11.953125,1.140625,1,0,0,11.953125,1.140625,1,0,0,0,104,104,24,1,,,,,,,,
,,,,,,,,,,,,,FF,,,,,,,,0.9507,,,,,,,,,,,,,,,,,,,,,,61023e0830e893bec6bd8f3c,61037784f5b3fde2956648d5,2021-07-29_22h56.02.237,Simcolourproject_2stim_asymm_v5,2020.2.10,MacIntel,60,61025ae37ef11b136ea224fe,,,,,,,,,592,-33.46484375,-61.2578125,1,0,0,response5disk,,3,-8.35546875,3.859375,1,0,0,rectangle,-8.35546875,3.859375,1,0,0,-8.35546875,3.859375,1,0,0,0,105,105,149,1,,,,,,,,
,,,,,,,,,,,,,FF,,,,,,,,0.8345,,,,,,,,,,,,,,,,,,,,,,61023e0830e893bec6bd8f3c,61037784f5b3fde2956648d5,2021-07-29_22h56.02.237,Simcolourproject_2stim_asymm_v5,2020.2.10,MacIntel,60,61025ae37ef11b136ea224fe,,,,,,,,,1112,-29.4765625,-53.95703125,1,0,0,response5disk,,3,-1.91015625,8.109375,1,0,0,rectangle,87.4609375,-49.171875,1,0,0,0.3125,-12.01953125,1,0,0,0,106,106,134,1,,response3disk_3,TRUE,5,5,"[296,57,73,288,270,121,135,107,244,74,201,86,264,271,271,76,82,38,214,0]",1.416,rectangle
,,,,,,,,,,,,,FF,,,,,,,,1.2332,,,,,,,,,,,,,,,,,,,,,,61023e0830e893bec6bd8f3c,61037784f5b3fde2956648d5,2021-07-29_22h56.02.237,Simcolourproject_2stim_asymm_v5,2020.2.10,MacIntel,60,61025ae37ef11b136ea224fe,,,,,,,,,105,-34.58203125,-85.09765625,1,0,0,response5disk,,3,-12.66796875,-9.94921875,1,0,0,rectangle,-12.66796875,-9.94921875,1,0,0,-12.66796875,-9.94921875,1,0,0,0,107,107,140,1,,,,,,,,
,,,,,,,,,,,,,FF,,,,,,,,1.2493,,,,,,,,,,,,,,,,,,,,,,61023e0830e893bec6bd8f3c,61037784f5b3fde2956648d5,2021-07-29_22h56.02.237,Simcolourproject_2stim_asymm_v5,2020.2.10,MacIntel,60,61025ae37ef11b136ea224fe,,,,,,,,,995,-33.1484375,-67.26953125,1,0,0,response5disk,,3,-11.1875,5.8359375,1,0,0,rectangle,-11.1875,5.8359375,1,0,0,-11.1875,5.8359375,1,0,0,0,108,108,102,1,,,,,,,,
,,,,,,,,,,,,,FF,,,,,,,,1.4333,,,,,,,,,,,,,,,,,,,,,,61023e0830e893bec6bd8f3c,61037784f5b3fde2956648d5,2021-07-29_22h56.02.237,Simcolourproject_2stim_asymm_v5,2020.2.10,MacIntel,60,61025ae37ef11b136ea224fe,,,,,,,,,4092,39.07421875,-52.0078125,1,0,0,response3disk,,4,9.90625,3.1484375,1,0,0,rectangle,9.90625,3.1484375,1,0,0,9.90625,3.1484375,1,0,0,0,109,109,90,1,,,,,,,,
,,,,,,,,,,,,,FF,,,,,,,,1.0496,,,,,,,,,,,,,,,,,,,,,,61023e0830e893bec6bd8f3c,61037784f5b3fde2956648d5,2021-07-29_22h56.02.237,Simcolourproject_2stim_asymm_v5,2020.2.10,MacIntel,60,61025ae37ef11b136ea224fe,,,,,,,,,144,81.1796875,-50.48046875,1,0,0,response3disk,,5,8.3203125,-0.6171875,1,0,0,rectangle,8.3203125,-0.6171875,1,0,0,8.3203125,-0.6171875,1,0,0,0,110,110,70,1,,,,,,,,
,,,,,,,,,,,,,FF,,,,,,,,1.2169,,,,,,,,,,,,,,,,,,,,,,61023e0830e893bec6bd8f3c,61037784f5b3fde2956648d5,2021-07-29_22h56.02.237,Simcolourproject_2stim_asymm_v5,2020.2.10,MacIntel,60,61025ae37ef11b136ea224fe,,,,,,,,,1518,26.1015625,-70.7421875,1,0,0,response3disk,,4,-2.01953125,-1.62890625,1,0,0,rectangle,-2.01953125,-1.62890625,1,0,0,-2.01953125,-1.62890625,1,0,0,0,111,111,25,1,,,,,,,,
,,,,,,,,,,,,,FF,,,,,,,,0.8502,,,,,,,,,,,,,,,,,,,,,,61023e0830e893bec6bd8f3c,61037784f5b3fde2956648d5,2021-07-29_22h56.02.237,Simcolourproject_2stim_asymm_v5,2020.2.10,MacIntel,60,61025ae37ef11b136ea224fe,,,,,,,,,3096,-30.4453125,83.3984375,1,0,0,response7disk,,0,-11.15625,-2.02734375,1,0,0,rectangle,-11.15625,-2.02734375,1,0,0,-11.15625,-2.02734375,1,0,0,0,112,112,35,1,,,,,,,,
,,,,,,,,,,,,,FF,,,,,,,,1.3999,,,,,,,,,,,,,,,,,,,,,,61023e0830e893bec6bd8f3c,61037784f5b3fde2956648d5,2021-07-29_22h56.02.237,Simcolourproject_2stim_asymm_v5,2020.2.10,MacIntel,60,61025ae37ef11b136ea224fe,,,,,,,,,4114,-31.19140625,-79.7734375,1,0,0,response5disk,,3,-2.94921875,2.66015625,1,0,0,rectangle,-2.94921875,2.66015625,1,0,0,-2.94921875,2.66015625,1,0,0,0,113,113,36,1,,,,,,,,
,,,,,,,,,,,,,FF,,,,,,,,1.5001,,,,,,,,,,,,,,,,,,,,,,61023e0830e893bec6bd8f3c,61037784f5b3fde2956648d5,2021-07-29_22h56.02.237,Simcolourproject_2stim_asymm_v5,2020.2.10,MacIntel,60,61025ae37ef11b136ea224fe,,,,,,,,,2143,29.4609375,-76.17578125,1,0,0,response3disk,,4,4.0390625,5.2421875,1,0,0,rectangle,4.0390625,5.2421875,1,0,0,4.0390625,5.2421875,1,0,0,0,114,114,33,1,,,,,,,,
,,,,,,,,,,,,,FF,,,,,,,,1.0007,,,,,,,,,,,,,,,,,,,,,,61023e0830e893bec6bd8f3c,61037784f5b3fde2956648d5,2021-07-29_22h56.02.237,Simcolourproject_2stim_asymm_v5,2020.2.10,MacIntel,60,61025ae37ef11b136ea224fe,,,,,,,,,2179,-42.828125,-81.98046875,1,0,0,response5disk,,3,-13.19140625,0.53515625,1,0,0,rectangle,-13.19140625,0.53515625,1,0,0,-13.19140625,0.53515625,1,0,0,0,115,115,96,1,,,,,,,,
,,,,,,,,,,,,,FF,,,,,,,,0.8174,,,,,,,,,,,,,,,,,,,,,,61023e0830e893bec6bd8f3c,61037784f5b3fde2956648d5,2021-07-29_22h56.02.237,Simcolourproject_2stim_asymm_v5,2020.2.10,MacIntel,60,61025ae37ef11b136ea224fe,,,,,,,,,704,-52.75,-30.07421875,1,0,0,response5disk,,2,-2.7578125,-3.53515625,1,0,0,rectangle,-2.7578125,-3.53515625,1,0,0,-2.7578125,-3.53515625,1,0,0,0,116,116,100,1,,,,,,,,
,,,,,,,,,,,,,FF,,,,,,,,0.8001,,,,,,,,,,,,,,,,,,,,,,61023e0830e893bec6bd8f3c,61037784f5b3fde2956648d5,2021-07-29_22h56.02.237,Simcolourproject_2stim_asymm_v5,2020.2.10,MacIntel,60,61025ae37ef11b136ea224fe,,,,,,,,,1693,-30.77734375,-73.796875,1,0,0,response5disk,,3,-7.51171875,-1.26953125,1,0,0,rectangle,-7.51171875,-1.26953125,1,0,0,-7.51171875,-1.26953125,1,0,0,0,117,117,15,1,,,,,,,,
,,,,,,,,,,,,,FF,,,,,,,,0.7995,,,,,,,,,,,,,,,,,,,,,,61023e0830e893bec6bd8f3c,61037784f5b3fde2956648d5,2021-07-29_22h56.02.237,Simcolourproject_2stim_asymm_v5,2020.2.10,MacIntel,60,61025ae37ef11b136ea224fe,,,,,,,,,3195,-33.6328125,78.0390625,1,0,0,response7disk,,0,-8.71484375,0.9765625,1,0,0,rectangle,-8.71484375,0.9765625,1,0,0,-8.71484375,0.9765625,1,0,0,0,118,118,92,1,,,,,,,,
,,,,,,,,,,,,,FF,,,,,,,,0.9006,,,,,,,,,,,,,,,,,,,,,,61023e0830e893bec6bd8f3c,61037784f5b3fde2956648d5,2021-07-29_22h56.02.237,Simcolourproject_2stim_asymm_v5,2020.2.10,MacIntel,60,61025ae37ef11b136ea224fe,,,,,,,,,2945,-66.19921875,28.24609375,1,0,0,response7disk,,1,-7.21484375,5.51171875,1,0,0,rectangle,-7.21484375,5.51171875,1,0,0,-7.21484375,5.51171875,1,0,0,0,119,119,31,1,,,,,,,,
,,,,,,,,,,,,,FF,,,,,,,,1.5332,,,,,,,,,,,,,,,,,,,,,,61023e0830e893bec6bd8f3c,61037784f5b3fde2956648d5,2021-07-29_22h56.02.237,Simcolourproject_2stim_asymm_v5,2020.2.10,MacIntel,60,61025ae37ef11b136ea224fe,,,,,,,,,1001,-25.38671875,-73,1,0,0,response5disk,,3,-5.84765625,12.46484375,1,0,0,rectangle,-52.375,-75.75,1,0,0,-0.46875,2.76953125,1,0,0,0,120,120,127,1,,response5disk_3,TRUE,3,3,"[296,57,73,288,270,121,135,107,244,74,201,86,264,271,271,76,82,38,214,0]",1.8153,rectangle
,,,,,,,,,,,,,FF,,,,,,,,4.2823,,,,,,,,,,,,,,,,,,,,,,61023e0830e893bec6bd8f3c,61037784f5b3fde2956648d5,2021-07-29_22h56.02.237,Simcolourproject_2stim_asymm_v5,2020.2.10,MacIntel,60,61025ae37ef11b136ea224fe,,,,,,,,,3847,-68.72265625,-43.12890625,1,0,0,response5disk,,2,-6.83984375,2.93359375,1,0,0,rectangle,-6.83984375,2.93359375,1,0,0,-6.83984375,2.93359375,1,0,0,0,121,121,71,1,,,,,,,,
,,,,,,,,,,,,,FF,,,,,,,,0.7334,,,,,,,,,,,,,,,,,,,,,,61023e0830e893bec6bd8f3c,61037784f5b3fde2956648d5,2021-07-29_22h56.02.237,Simcolourproject_2stim_asymm_v5,2020.2.10,MacIntel,60,61025ae37ef11b136ea224fe,,,,,,,,,4352,-44.01171875,-33.6484375,1,0,0,response5disk,,2,-4.15625,-4.93359375,1,0,0,rectangle,-4.15625,-4.93359375,1,0,0,-4.15625,-4.93359375,1,0,0,0,122,122,126,1,,,,,,,,
,,,,,,,,,,,,,FF,,,,,,,,0.9674,,,,,,,,,,,,,,,,,,,,,,61023e0830e893bec6bd8f3c,61037784f5b3fde2956648d5,2021-07-29_22h56.02.237,Simcolourproject_2stim_asymm_v5,2020.2.10,MacIntel,60,61025ae37ef11b136ea224fe,,,,,,,,,711,-64.55078125,-33.56640625,1,0,0,response5disk,,2,-8.22265625,-0.29296875,1,0,0,rectangle,-8.22265625,-0.29296875,1,0,0,-8.22265625,-0.29296875,1,0,0,0,123,123,136,1,,,,,,,,
,,,,,,,,,,,,,FF,,,,,,,,1.4019,,,,,,,,,,,,,,,,,,,,,,61023e0830e893bec6bd8f3c,61037784f5b3fde2956648d5,2021-07-29_22h56.02.237,Simcolourproject_2stim_asymm_v5,2020.2.10,MacIntel,60,61025ae37ef11b136ea224fe,,,,,,,,,3534,65.16796875,-42.9921875,1,0,0,response3disk,,5,10.03125,0.43359375,1,0,0,rectangle,10.03125,0.43359375,1,0,0,10.03125,0.43359375,1,0,0,0,124,124,1,1,,,,,,,,
,,,,,,,,,,,,,FF,,,,,,,,0.7332,,,,,,,,,,,,,,,,,,,,,,61023e0830e893bec6bd8f3c,61037784f5b3fde2956648d5,2021-07-29_22h56.02.237,Simcolourproject_2stim_asymm_v5,2020.2.10,MacIntel,60,61025ae37ef11b136ea224fe,,,,,,,,,770,-41.51953125,-81.45703125,1,0,0,response5disk,,3,-4.87109375,-1.97265625,1,0,0,rectangle,-4.87109375,-1.97265625,1,0,0,-4.87109375,-1.97265625,1,0,0,0,125,125,132,1,,,,,,,,
,,,,,,,,,,,,,FF,,,,,,,,0.9008,,,,,,,,,,,,,,,,,,,,,,61023e0830e893bec6bd8f3c,61037784f5b3fde2956648d5,2021-07-29_22h56.02.237,Simcolourproject_2stim_asymm_v5,2020.2.10,MacIntel,60,61025ae37ef11b136ea224fe,,,,,,,,,712,-80.28515625,-29.6328125,1,0,0,response5disk,,2,-10.25390625,2.95703125,1,0,0,rectangle,-10.25390625,2.95703125,1,0,0,-10.25390625,2.95703125,1,0,0,0,126,126,47,1,,,,,,,,
,,,,,,,,,,,,,FF,,,,,,,,0.8333,,,,,,,,,,,,,,,,,,,,,,61023e0830e893bec6bd8f3c,61037784f5b3fde2956648d5,2021-07-29_22h56.02.237,Simcolourproject_2stim_asymm_v5,2020.2.10,MacIntel,60,61025ae37ef11b136ea224fe,,,,,,,,,724,-65.12109375,35.14453125,1,0,0,response7disk,,1,2.34375,-1.484375,1,0,0,rectangle,2.34375,-1.484375,1,0,0,2.34375,-1.484375,1,0,0,0,127,127,63,1,,,,,,,,
,,,,,,,,,,,,,FF,,,,,,,,0.7157,,,,,,,,,,,,,,,,,,,,,,61023e0830e893bec6bd8f3c,61037784f5b3fde2956648d5,2021-07-29_22h56.02.237,Simcolourproject_2stim_asymm_v5,2020.2.10,MacIntel,60,61025ae37ef11b136ea224fe,,,,,,,,,3286,-67.87109375,-39.54296875,1,0,0,response5disk,,2,-3.70703125,0.28515625,1,0,0,rectangle,-3.70703125,0.28515625,1,0,0,-3.70703125,0.28515625,1,0,0,0,128,128,50,1,,,,,,,,
,,,,,,,,,,,,,FF,,,,,,,,0.9329,,,,,,,,,,,,,,,,,,,,,,61023e0830e893bec6bd8f3c,61037784f5b3fde2956648d5,2021-07-29_22h56.02.237,Simcolourproject_2stim_asymm_v5,2020.2.10,MacIntel,60,61025ae37ef11b136ea224fe,,,,,,,,,1576,54.078125,-44.515625,1,0,0,response3disk,,5,-0.73046875,2.4375,1,0,0,rectangle,-0.73046875,2.4375,1,0,0,-0.73046875,2.4375,1,0,0,0,129,129,107,1,,,,,,,,
,,,,,,,,,,,,,FF,,,,,,,,3.1335,,,,,,,,,,,,,,,,,,,,,,61023e0830e893bec6bd8f3c,61037784f5b3fde2956648d5,2021-07-29_22h56.02.237,Simcolourproject_2stim_asymm_v5,2020.2.10,MacIntel,60,61025ae37ef11b136ea224fe,,,,,,,,,3571,42.0078125,-88.87109375,1,0,0,response3disk,,4,-1.58203125,8.37109375,1,0,0,rectangle,-1.58203125,8.37109375,1,0,0,-1.58203125,8.37109375,1,0,0,0,130,130,5,1,,,,,,,,
,,,,,,,,,,,,,FF,,,,,,,,1.5164,,,,,,,,,,,,,,,,,,,,,,61023e0830e893bec6bd8f3c,61037784f5b3fde2956648d5,2021-07-29_22h56.02.237,Simcolourproject_2stim_asymm_v5,2020.2.10,MacIntel,60,61025ae37ef11b136ea224fe,,,,,,,,,1735,-79.484375,41.8828125,1,0,0,response7disk,,1,-12.38671875,5.21875,1,0,0,rectangle,-12.38671875,5.21875,1,0,0,-12.38671875,5.21875,1,0,0,0,131,131,130,1,,,,,,,,
,,,,,,,,,,,,,FF,,,,,,,,0.8005,,,,,,,,,,,,,,,,,,,,,,61023e0830e893bec6bd8f3c,61037784f5b3fde2956648d5,2021-07-29_22h56.02.237,Simcolourproject_2stim_asymm_v5,2020.2.10,MacIntel,60,61025ae37ef11b136ea224fe,,,,,,,,,3995,-78.328125,40.2734375,1,0,0,response7disk,,1,-8.859375,9.8671875,1,0,0,rectangle,-8.859375,9.8671875,1,0,0,-8.859375,9.8671875,1,0,0,0,132,132,156,1,,,,,,,,
,,,,,,,,,,,,,FF,,,,,,,,0.8174,,,,,,,,,,,,,,,,,,,,,,61023e0830e893bec6bd8f3c,61037784f5b3fde2956648d5,2021-07-29_22h56.02.237,Simcolourproject_2stim_asymm_v5,2020.2.10,MacIntel,60,61025ae37ef11b136ea224fe,,,,,,,,,3189,-81.671875,39.35546875,1,0,0,response7disk,,1,5.4453125,1.75390625,1,0,0,rectangle,5.4453125,1.75390625,1,0,0,5.4453125,1.75390625,1,0,0,0,133,133,60,1,,,,,,,,
,,,,,,,,,,,,,FF,,,,,,,,0.8992,,,,,,,,,,,,,,,,,,,,,,61023e0830e893bec6bd8f3c,61037784f5b3fde2956648d5,2021-07-29_22h56.02.237,Simcolourproject_2stim_asymm_v5,2020.2.10,MacIntel,60,61025ae37ef11b136ea224fe,,,,,,,,,3564,-22.95703125,-69.7734375,1,0,0,response5disk,,3,15.80859375,9.58984375,1,0,0,rectangle,-80.55859375,39.30078125,1,0,0,-14.14453125,-1.69140625,1,0,0,0,134,134,74,1,,response7disk_3,TRUE,1,1,"[296,57,73,288,270,121,135,107,244,74,201,86,264,271,271,76,82,38,214,0]",1.533,rectangle
,,,,,,,,,,,,,FF,,,,,,,,1.0327,,,,,,,,,,,,,,,,,,,,,,61023e0830e893bec6bd8f3c,61037784f5b3fde2956648d5,2021-07-29_22h56.02.237,Simcolourproject_2stim_asymm_v5,2020.2.10,MacIntel,60,61025ae37ef11b136ea224fe,,,,,,,,,3780,-71.53515625,44.71484375,1,0,0,response7disk,,1,21.28515625,-3.41796875,1,0,0,rectangle,21.28515625,-3.41796875,1,0,0,21.28515625,-3.41796875,1,0,0,0,135,135,89,1,,,,,,,,
,,,,,,,,,,,,,FF,,,,,,,,1.6176,,,,,,,,,,,,,,,,,,,,,,61023e0830e893bec6bd8f3c,61037784f5b3fde2956648d5,2021-07-29_22h56.02.237,Simcolourproject_2stim_asymm_v5,2020.2.10,MacIntel,60,61025ae37ef11b136ea224fe,,,,,,,,,1028,44.15234375,-75.30859375,1,0,0,response3disk,,4,0.4765625,6.3359375,1,0,0,rectangle,0.4765625,6.3359375,1,0,0,0.4765625,6.3359375,1,0,0,0,136,136,59,1,,,,,,,,
,,,,,,,,,,,,,FF,,,,,,,,1.4673,,,,,,,,,,,,,,,,,,,,,,61023e0830e893bec6bd8f3c,61037784f5b3fde2956648d5,2021-07-29_22h56.02.237,Simcolourproject_2stim_asymm_v5,2020.2.10,MacIntel,60,61025ae37ef11b136ea224fe,,,,,,,,,297,-38.56640625,-78.3203125,1,0,0,response5disk,,3,-7.58984375,6.9453125,1,0,0,rectangle,-7.58984375,6.9453125,1,0,0,-7.58984375,6.9453125,1,0,0,0,137,137,118,1,,,,,,,,
,,,,,,,,,,,,,FF,,,,,,,,0.7824,,,,,,,,,,,,,,,,,,,,,,61023e0830e893bec6bd8f3c,61037784f5b3fde2956648d5,2021-07-29_22h56.02.237,Simcolourproject_2stim_asymm_v5,2020.2.10,MacIntel,60,61025ae37ef11b136ea224fe,,,,,,,,,2064,82.58203125,-43.33984375,1,0,0,response3disk,,5,11.77734375,9.07421875,1,0,0,rectangle,11.77734375,9.07421875,1,0,0,11.77734375,9.07421875,1,0,0,0,138,138,80,1,,,,,,,,
,,,,,,,,,,,,,FF,,,,,,,,1.284,,,,,,,,,,,,,,,,,,,,,,61023e0830e893bec6bd8f3c,61037784f5b3fde2956648d5,2021-07-29_22h56.02.237,Simcolourproject_2stim_asymm_v5,2020.2.10,MacIntel,60,61025ae37ef11b136ea224fe,,,,,,,,,30,-62.59375,-38.5703125,1,0,0,response5disk,,2,10.2890625,3.609375,1,0,0,rectangle,10.2890625,3.609375,1,0,0,10.2890625,3.609375,1,0,0,0,139,139,87,1,,,,,,,,
,,,,,,,,,,,,,FF,,,,,,,,0.8508,,,,,,,,,,,,,,,,,,,,,,61023e0830e893bec6bd8f3c,61037784f5b3fde2956648d5,2021-07-29_22h56.02.237,Simcolourproject_2stim_asymm_v5,2020.2.10,MacIntel,60,61025ae37ef11b136ea224fe,,,,,,,,,2619,-47.01953125,-72.35546875,1,0,0,response5disk,,3,-0.44140625,-1.42578125,1,0,0,rectangle,-0.44140625,-1.42578125,1,0,0,-0.44140625,-1.42578125,1,0,0,0,140,140,143,1,,,,,,,,
,,,,,,,,,,,,,FF,,,,,,,,0.9503,,,,,,,,,,,,,,,,,,,,,,61023e0830e893bec6bd8f3c,61037784f5b3fde2956648d5,2021-07-29_22h56.02.237,Simcolourproject_2stim_asymm_v5,2020.2.10,MacIntel,60,61025ae37ef11b136ea224fe,,,,,,,,,1382,-70.22265625,-33.20703125,1,0,0,response5disk,,2,0.8828125,-3.08203125,1,0,0,rectangle,0.8828125,-3.08203125,1,0,0,0.8828125,-3.08203125,1,0,0,0,141,141,53,1,,,,,,,,
,,,,,,,,,,,,,FF,,,,,,,,0.9492,,,,,,,,,,,,,,,,,,,,,,61023e0830e893bec6bd8f3c,61037784f5b3fde2956648d5,2021-07-29_22h56.02.237,Simcolourproject_2stim_asymm_v5,2020.2.10,MacIntel,60,61025ae37ef11b136ea224fe,,,,,,,,,2340,-41.18359375,-82.03515625,1,0,0,response5disk,,3,-3.23046875,-0.77734375,1,0,0,rectangle,-3.23046875,-0.77734375,1,0,0,-3.23046875,-0.77734375,1,0,0,0,142,142,65,1,,,,,,,,
,,,,,,,,,,,,,FF,,,,,,,,0.801,,,,,,,,,,,,,,,,,,,,,,61023e0830e893bec6bd8f3c,61037784f5b3fde2956648d5,2021-07-29_22h56.02.237,Simcolourproject_2stim_asymm_v5,2020.2.10,MacIntel,60,61025ae37ef11b136ea224fe,,,,,,,,,501,42.59375,-77.72265625,1,0,0,response3disk,,4,4.93359375,0.671875,1,0,0,rectangle,4.93359375,0.671875,1,0,0,4.93359375,0.671875,1,0,0,0,143,143,83,1,,,,,,,,
,,,,,,,,,,,,,FF,,,,,,,,0.8831,,,,,,,,,,,,,,,,,,,,,,61023e0830e893bec6bd8f3c,61037784f5b3fde2956648d5,2021-07-29_22h56.02.237,Simcolourproject_2stim_asymm_v5,2020.2.10,MacIntel,60,61025ae37ef11b136ea224fe,,,,,,,,,3369,-38.69921875,-82.2265625,1,0,0,response5disk,,3,-6.50390625,2.7421875,1,0,0,rectangle,-6.50390625,2.7421875,1,0,0,-6.50390625,2.7421875,1,0,0,0,144,144,46,1,,,,,,,,
,,,,,,,,,,,,,FF,,,,,,,,0.9996,,,,,,,,,,,,,,,,,,,,,,61023e0830e893bec6bd8f3c,61037784f5b3fde2956648d5,2021-07-29_22h56.02.237,Simcolourproject_2stim_asymm_v5,2020.2.10,MacIntel,60,61025ae37ef11b136ea224fe,,,,,,,,,2018,-44.22265625,-88.97265625,1,0,0,response5disk,,3,5.16796875,0.84375,1,0,0,rectangle,5.16796875,0.84375,1,0,0,5.16796875,0.84375,1,0,0,0,145,145,79,1,,,,,,,,
,,,,,,,,,,,,,FF,,,,,,,,0.8503,,,,,,,,,,,,,,,,,,,,,,61023e0830e893bec6bd8f3c,61037784f5b3fde2956648d5,2021-07-29_22h56.02.237,Simcolourproject_2stim_asymm_v5,2020.2.10,MacIntel,60,61025ae37ef11b136ea224fe,,,,,,,,,4192,39.73046875,-74.48046875,1,0,0,response3disk,,4,3.01953125,-6.87109375,1,0,0,rectangle,3.01953125,-6.87109375,1,0,0,3.01953125,-6.87109375,1,0,0,0,146,146,3,1,,,,,,,,
,,,,,,,,,,,,,FF,,,,,,,,1.6001,,,,,,,,,,,,,,,,,,,,,,61023e0830e893bec6bd8f3c,61037784f5b3fde2956648d5,2021-07-29_22h56.02.237,Simcolourproject_2stim_asymm_v5,2020.2.10,MacIntel,60,61025ae37ef11b136ea224fe,,,,,,,,,804,-80.50390625,-43.453125,1,0,0,response5disk,,2,-3.8671875,-3.7734375,1,0,0,rectangle,-3.8671875,-3.7734375,1,0,0,-3.8671875,-3.7734375,1,0,0,0,147,147,94,1,,,,,,,,
,,,,,,,,,,,,,FF,,,,,,,,1.4332,,,,,,,,,,,,,,,,,,,,,,61023e0830e893bec6bd8f3c,61037784f5b3fde2956648d5,2021-07-29_22h56.02.237,Simcolourproject_2stim_asymm_v5,2020.2.10,MacIntel,60,61025ae37ef11b136ea224fe,,,,,,,,,2165,-70.50390625,56.2265625,1,0,0,response7disk,,1,-6.828125,5.109375,1,0,0,rectangle,-6.828125,5.109375,1,0,0,-6.828125,5.109375,1,0,0,0,148,148,34,1,,,,,,,,
,,,,,,,,,,,,,FF,,,,,,,,1.35,,,,,,,,,,,,,,,,,,,,,,61023e0830e893bec6bd8f3c,61037784f5b3fde2956648d5,2021-07-29_22h56.02.237,Simcolourproject_2stim_asymm_v5,2020.2.10,MacIntel,60,61025ae37ef11b136ea224fe,,,,,,,,,1655,51.28515625,-83.55078125,1,0,0,response3disk,,4,-3.66796875,0.01953125,1,0,0,rectangle,-3.66796875,0.01953125,1,0,0,-3.66796875,0.01953125,1,0,0,0,149,149,32,1,,,,,,,,
,,,,,,,,,,,,,FF,,,,,,,,0.9824,,,,,,,,,,,,,,,,,,,,,,61023e0830e893bec6bd8f3c,61037784f5b3fde2956648d5,2021-07-29_22h56.02.237,Simcolourproject_2stim_asymm_v5,2020.2.10,MacIntel,60,61025ae37ef11b136ea224fe,,,,,,,,,4153,89.703125,-43.58984375,1,0,0,response3disk,,5,5.49609375,-1.046875,1,0,0,rectangle,5.49609375,-1.046875,1,0,0,5.49609375,-1.046875,1,0,0,0,150,150,139,1,,,,,,,,
,,,,,,,,,,,,,FF,,,,,,,,1.3333,,,,,,,,,,,,,,,,,,,,,,61023e0830e893bec6bd8f3c,61037784f5b3fde2956648d5,2021-07-29_22h56.02.237,Simcolourproject_2stim_asymm_v5,2020.2.10,MacIntel,60,61025ae37ef11b136ea224fe,,,,,,,,,3004,58.39453125,-86.1640625,1,0,0,response3disk,,4,11.21875,7.28125,1,0,0,rectangle,11.21875,7.28125,1,0,0,11.21875,7.28125,1,0,0,0,151,151,68,1,,,,,,,,
,,,,,,,,,,,,,FF,,,,,,,,0.8171,,,,,,,,,,,,,,,,,,,,,,61023e0830e893bec6bd8f3c,61037784f5b3fde2956648d5,2021-07-29_22h56.02.237,Simcolourproject_2stim_asymm_v5,2020.2.10,MacIntel,60,61025ae37ef11b136ea224fe,,,,,,,,,2211,47.37109375,-59.3203125,1,0,0,response3disk,,4,9.390625,-0.640625,1,0,0,rectangle,9.390625,-0.640625,1,0,0,9.390625,-0.640625,1,0,0,0,152,152,125,1,,,,,,,,
,,,,,,,,,,,,,FF,,,,,,,,0.9489,,,,,,,,,,,,,,,,,,,,,,61023e0830e893bec6bd8f3c,61037784f5b3fde2956648d5,2021-07-29_22h56.02.237,Simcolourproject_2stim_asymm_v5,2020.2.10,MacIntel,60,61025ae37ef11b136ea224fe,,,,,,,,,3651,-29.49609375,-70.640625,1,0,0,response5disk,,3,-6.703125,-1.4921875,1,0,0,rectangle,-6.703125,-1.4921875,1,0,0,-6.703125,-1.4921875,1,0,0,0,153,153,104,1,,,,,,,,
,,,,,,,,,,,,,FF,,,,,,,,0.8332,,,,,,,,,,,,,,,,,,,,,,61023e0830e893bec6bd8f3c,61037784f5b3fde2956648d5,2021-07-29_22h56.02.237,Simcolourproject_2stim_asymm_v5,2020.2.10,MacIntel,60,61025ae37ef11b136ea224fe,,,,,,,,,872,-45.59375,-79.39453125,1,0,0,response5disk,,3,-5.48046875,6.96875,1,0,0,rectangle,-5.48046875,6.96875,1,0,0,-5.48046875,6.96875,1,0,0,0,154,154,23,1,,,,,,,,
,,,,,,,,,,,,,FF,,,,,,,,0.6661,,,,,,,,,,,,,,,,,,,,,,61023e0830e893bec6bd8f3c,61037784f5b3fde2956648d5,2021-07-29_22h56.02.237,Simcolourproject_2stim_asymm_v5,2020.2.10,MacIntel,60,61025ae37ef11b136ea224fe,,,,,,,,,341,-33.7890625,-68.22265625,1,0,0,response5disk,,3,-12.16015625,9.79296875,1,0,0,rectangle,-12.16015625,9.79296875,1,0,0,-12.16015625,9.79296875,1,0,0,0,155,155,85,1,,,,,,,,
,,,,,,,,,,,,,FF,,,,,,,,0.6014,,,,,,,,,,,,,,,,,,,,,,61023e0830e893bec6bd8f3c,61037784f5b3fde2956648d5,2021-07-29_22h56.02.237,Simcolourproject_2stim_asymm_v5,2020.2.10,MacIntel,60,61025ae37ef11b136ea224fe,,,,,,,,,4182,-32.48828125,-59.59375,1,0,0,response5disk,,3,1.64453125,-3.0234375,1,0,0,rectangle,1.64453125,-3.0234375,1,0,0,1.64453125,-3.0234375,1,0,0,0,156,156,129,1,,,,,,,,
,,,,,,,,,,,,,FF,,,,,,,,0.7167,,,,,,,,,,,,,,,,,,,,,,61023e0830e893bec6bd8f3c,61037784f5b3fde2956648d5,2021-07-29_22h56.02.237,Simcolourproject_2stim_asymm_v5,2020.2.10,MacIntel,60,61025ae37ef11b136ea224fe,,,,,,,,,894,-32.71484375,-67.74609375,1,0,0,response5disk,,3,0.58984375,0.7734375,1,0,0,rectangle,0.58984375,0.7734375,1,0,0,0.58984375,0.7734375,1,0,0,0,157,157,69,1,,,,,,,,
,,,,,,,,,,,,,FF,,,,,,,,1.8843,,,,,,,,,,,,,,,,,,,,,,61023e0830e893bec6bd8f3c,61037784f5b3fde2956648d5,2021-07-29_22h56.02.237,Simcolourproject_2stim_asymm_v5,2020.2.10,MacIntel,60,61025ae37ef11b136ea224fe,,,,,,,,,1932,21.21875,-87.2578125,1,0,0,response3disk,,4,1.765625,6.46484375,1,0,0,rectangle,1.765625,6.46484375,1,0,0,1.765625,6.46484375,1,0,0,0,158,158,52,1,,,,,,,,
,,,,,,,,,,,,,FF,,,,,,,,1.6181,,,,,,,,,,,,,,,,,,,,,,61023e0830e893bec6bd8f3c,61037784f5b3fde2956648d5,2021-07-29_22h56.02.237,Simcolourproject_2stim_asymm_v5,2020.2.10,MacIntel,60,61025ae37ef11b136ea224fe,,,,,,,,,3824,42.53515625,-67.51171875,1,0,0,response3disk,,4,6.73046875,-1.9296875,1,0,0,rectangle,6.73046875,-1.9296875,1,0,0,6.73046875,-1.9296875,1,0,0,0,159,159,2,1,,,,,,,,
,,,,,,,,,,,,,FF,,,,,,,,0.7829,,,,,,,,,,,,,,,,,,,,,,61023e0830e893bec6bd8f3c,61037784f5b3fde2956648d5,2021-07-29_22h56.02.237,Simcolourproject_2stim_asymm_v5,2020.2.10,MacIntel,60,61025ae37ef11b136ea224fe,,,,,,,,,1187,-39.59765625,-81.68359375,1,0,0,response5disk,,3,-1.8828125,0.42578125,1,0,0,rectangle,-1.8828125,0.42578125,1,0,0,-1.8828125,0.42578125,1,0,0,1,0,160,83,1,,,,,,,,
,,,,,,,,,,,,,FF,,,,,,,,0.8664,,,,,,,,,,,,,,,,,,,,,,61023e0830e893bec6bd8f3c,61037784f5b3fde2956648d5,2021-07-29_22h56.02.237,Simcolourproject_2stim_asymm_v5,2020.2.10,MacIntel,60,61025ae37ef11b136ea224fe,,,,,,,,,2707,104.3125,-32.37890625,1,0,0,response3disk,,5,2.65625,0.5859375,1,0,0,rectangle,2.65625,0.5859375,1,0,0,2.65625,0.5859375,1,0,0,1,1,161,15,1,,,,,,,,
,,,,,,,,,,,,,FF,,,,,,,,1.3173,,,,,,,,,,,,,,,,,,,,,,61023e0830e893bec6bd8f3c,61037784f5b3fde2956648d5,2021-07-29_22h56.02.237,Simcolourproject_2stim_asymm_v5,2020.2.10,MacIntel,60,61025ae37ef11b136ea224fe,,,,,,,,,1206,83.01953125,-38.65234375,1,0,0,response3disk,,5,0.28125,0.953125,1,0,0,rectangle,0.28125,0.953125,1,0,0,0.28125,0.953125,1,0,0,1,2,162,112,1,,,,,,,,
,,,,,,,,,,,,,FF,,,,,,,,0.9496,,,,,,,,,,,,,,,,,,,,,,61023e0830e893bec6bd8f3c,61037784f5b3fde2956648d5,2021-07-29_22h56.02.237,Simcolourproject_2stim_asymm_v5,2020.2.10,MacIntel,60,61025ae37ef11b136ea224fe,,,,,,,,,2334,44.2265625,-81.625,1,0,0,response3disk,,4,1.7578125,3.859375,1,0,0,rectangle,1.7578125,3.859375,1,0,0,1.7578125,3.859375,1,0,0,1,3,163,104,1,,,,,,,,
,,,,,,,,,,,,,FF,,,,,,,,0.7847,,,,,,,,,,,,,,,,,,,,,,61023e0830e893bec6bd8f3c,61037784f5b3fde2956648d5,2021-07-29_22h56.02.237,Simcolourproject_2stim_asymm_v5,2020.2.10,MacIntel,60,61025ae37ef11b136ea224fe,,,,,,,,,1955,37.7265625,-72.7109375,1,0,0,response3disk,,4,-7.23046875,-9.01953125,1,0,0,rectangle,-7.23046875,-9.01953125,1,0,0,-7.23046875,-9.01953125,1,0,0,1,4,164,139,1,,,,,,,,
,,,,,,,,,,,,,FF,,,,,,,,0.7502,,,,,,,,,,,,,,,,,,,,,,61023e0830e893bec6bd8f3c,61037784f5b3fde2956648d5,2021-07-29_22h56.02.237,Simcolourproject_2stim_asymm_v5,2020.2.10,MacIntel,60,61025ae37ef11b136ea224fe,,,,,,,,,1388,-62.05859375,-90.1015625,1,0,0,response5disk,,3,5.40234375,11.72265625,1,0,0,rectangle,5.40234375,11.72265625,1,0,0,5.40234375,11.72265625,1,0,0,1,5,165,50,1,,,,,,,,
,,,,,,,,,,,,,FF,,,,,,,,2.9835,,,,,,,,,,,,,,,,,,,,,,61023e0830e893bec6bd8f3c,61037784f5b3fde2956648d5,2021-07-29_22h56.02.237,Simcolourproject_2stim_asymm_v5,2020.2.10,MacIntel,60,61025ae37ef11b136ea224fe,,,,,,,,,3533,97.26171875,-53.0546875,1,0,0,response3disk,,5,12.32421875,-0.5546875,1,0,0,rectangle,12.32421875,-0.5546875,1,0,0,12.32421875,-0.5546875,1,0,0,1,6,166,53,1,,,,,,,,
,,,,,,,,,,,,,FF,,,,,,,,0.8654,,,,,,,,,,,,,,,,,,,,,,61023e0830e893bec6bd8f3c,61037784f5b3fde2956648d5,2021-07-29_22h56.02.237,Simcolourproject_2stim_asymm_v5,2020.2.10,MacIntel,60,61025ae37ef11b136ea224fe,,,,,,,,,3124,30.703125,-63.8515625,1,0,0,response3disk,,4,1.24609375,5.34765625,1,0,0,rectangle,1.24609375,5.34765625,1,0,0,1.24609375,5.34765625,1,0,0,1,7,167,22,1,,,,,,,,
,,,,,,,,,,,,,FF,,,,,,,,1.3841,,,,,,,,,,,,,,,,,,,,,,61023e0830e893bec6bd8f3c,61037784f5b3fde2956648d5,2021-07-29_22h56.02.237,Simcolourproject_2stim_asymm_v5,2020.2.10,MacIntel,60,61025ae37ef11b136ea224fe,,,,,,,,,3972,-77.859375,-41.6328125,1,0,0,response5disk,,2,-9.859375,-9.98828125,1,0,0,rectangle,-9.859375,-9.98828125,1,0,0,-9.859375,-9.98828125,1,0,0,1,8,168,105,1,,,,,,,,
,,,,,,,,,,,,,FF,,,,,,,,0.8505,,,,,,,,,,,,,,,,,,,,,,61023e0830e893bec6bd8f3c,61037784f5b3fde2956648d5,2021-07-29_22h56.02.237,Simcolourproject_2stim_asymm_v5,2020.2.10,MacIntel,60,61025ae37ef11b136ea224fe,,,,,,,,,4295,-66.62109375,35.97265625,1,0,0,response7disk,,1,5.2890625,7.1015625,1,0,0,rectangle,5.2890625,7.1015625,1,0,0,5.2890625,7.1015625,1,0,0,1,9,169,125,1,,,,,,,,
,,,,,,,,,,,,,FF,,,,,,,,0.8169,,,,,,,,,,,,,,,,,,,,,,61023e0830e893bec6bd8f3c,61037784f5b3fde2956648d5,2021-07-29_22h56.02.237,Simcolourproject_2stim_asymm_v5,2020.2.10,MacIntel,60,61025ae37ef11b136ea224fe,,,,,,,,,610,-63.42578125,-38.82421875,1,0,0,response5disk,,2,-4.21875,-2.21875,1,0,0,rectangle,-4.21875,-2.21875,1,0,0,-4.21875,-2.21875,1,0,0,1,10,170,78,1,,,,,,,,
,,,,,,,,,,,,,FF,,,,,,,,0.8846,,,,,,,,,,,,,,,,,,,,,,61023e0830e893bec6bd8f3c,61037784f5b3fde2956648d5,2021-07-29_22h56.02.237,Simcolourproject_2stim_asymm_v5,2020.2.10,MacIntel,60,61025ae37ef11b136ea224fe,,,,,,,,,1690,-38.671875,-79.11328125,1,0,0,response5disk,,3,-11.09375,-6.65625,1,0,0,rectangle,-11.09375,-6.65625,1,0,0,-11.09375,-6.65625,1,0,0,1,11,171,122,1,,,,,,,,
,,,,,,,,,,,,,FF,,,,,,,,1.4166,,,,,,,,,,,,,,,,,,,,,,61023e0830e893bec6bd8f3c,61037784f5b3fde2956648d5,2021-07-29_22h56.02.237,Simcolourproject_2stim_asymm_v5,2020.2.10,MacIntel,60,61025ae37ef11b136ea224fe,,,,,,,,,4355,75.03125,-45.125,1,0,0,response3disk,,5,8.765625,4.046875,1,0,0,rectangle,8.765625,4.046875,1,0,0,8.765625,4.046875,1,0,0,1,12,172,156,1,,,,,,,,
,,,,,,,,,,,,,FF,,,,,,,,0.9996,,,,,,,,,,,,,,,,,,,,,,61023e0830e893bec6bd8f3c,61037784f5b3fde2956648d5,2021-07-29_22h56.02.237,Simcolourproject_2stim_asymm_v5,2020.2.10,MacIntel,60,61025ae37ef11b136ea224fe,,,,,,,,,3918,73.2578125,-38.9765625,1,0,0,response3disk,,5,3.9296875,-1.31640625,1,0,0,rectangle,3.9296875,-1.31640625,1,0,0,3.9296875,-1.31640625,1,0,0,1,13,173,137,1,,,,,,,,
,,,,,,,,,,,,,FF,,,,,,,,0.8162,,,,,,,,,,,,,,,,,,,,,,61023e0830e893bec6bd8f3c,61037784f5b3fde2956648d5,2021-07-29_22h56.02.237,Simcolourproject_2stim_asymm_v5,2020.2.10,MacIntel,60,61025ae37ef11b136ea224fe,,,,,,,,,4027,-57.5703125,29.5703125,1,0,0,response7disk,,1,0.14453125,5.68359375,1,0,0,rectangle,0.14453125,5.68359375,1,0,0,0.14453125,5.68359375,1,0,0,1,14,174,132,1,,,,,,,,
,,,,,,,,,,,,,FF,,,,,,,,0.999,,,,,,,,,,,,,,,,,,,,,,61023e0830e893bec6bd8f3c,61037784f5b3fde2956648d5,2021-07-29_22h56.02.237,Simcolourproject_2stim_asymm_v5,2020.2.10,MacIntel,60,61025ae37ef11b136ea224fe,,,,,,,,,1862,91.3125,25.03125,1,0,0,response1disk,,6,9.234375,2.05078125,1,0,0,rectangle,9.234375,2.05078125,1,0,0,9.234375,2.05078125,1,0,0,1,15,175,25,1,,,,,,,,
,,,,,,,,,,,,,FF,,,,,,,,0.6828,,,,,,,,,,,,,,,,,,,,,,61023e0830e893bec6bd8f3c,61037784f5b3fde2956648d5,2021-07-29_22h56.02.237,Simcolourproject_2stim_asymm_v5,2020.2.10,MacIntel,60,61025ae37ef11b136ea224fe,,,,,,,,,1165,67.5703125,36.1484375,1,0,0,response1disk,,6,0.7578125,-0.625,1,0,0,rectangle,0.7578125,-0.625,1,0,0,0.7578125,-0.625,1,0,0,1,16,176,55,1,,,,,,,,
,,,,,,,,,,,,,FF,,,,,,,,0.9506,,,,,,,,,,,,,,,,,,,,,,61023e0830e893bec6bd8f3c,61037784f5b3fde2956648d5,2021-07-29_22h56.02.237,Simcolourproject_2stim_asymm_v5,2020.2.10,MacIntel,60,61025ae37ef11b136ea224fe,,,,,,,,,19,66.32421875,-50.3046875,1,0,0,response3disk,,5,-2.25390625,-3.78125,1,0,0,rectangle,-2.25390625,-3.78125,1,0,0,-2.25390625,-3.78125,1,0,0,1,17,177,31,1,,,,,,,,
,,,,,,,,,,,,,FF,,,,,,,,0.8672,,,,,,,,,,,,,,,,,,,,,,61023e0830e893bec6bd8f3c,61037784f5b3fde2956648d5,2021-07-29_22h56.02.237,Simcolourproject_2stim_asymm_v5,2020.2.10,MacIntel,60,61025ae37ef11b136ea224fe,,,,,,,,,1687,43.6640625,-69.3671875,1,0,0,response3disk,,4,0.70703125,1.140625,1,0,0,rectangle,0.70703125,1.140625,1,0,0,0.70703125,1.140625,1,0,0,1,18,178,44,1,,,,,,,,
,,,,,,,,,,,,,FF,,,,,,,,0.8168,,,,,,,,,,,,,,,,,,,,,,61023e0830e893bec6bd8f3c,61037784f5b3fde2956648d5,2021-07-29_22h56.02.237,Simcolourproject_2stim_asymm_v5,2020.2.10,MacIntel,60,61025ae37ef11b136ea224fe,,,,,,,,,2554,-38.3203125,-60.6484375,1,0,0,response5disk,,3,5.37890625,2.390625,1,0,0,rectangle,5.37890625,2.390625,1,0,0,5.37890625,2.390625,1,0,0,1,19,179,52,1,,,,,,,,
,,,,,,,,,,,,,FF,,,,,,,,0.7837,,,,,,,,,,,,,,,,,,,,,,61023e0830e893bec6bd8f3c,61037784f5b3fde2956648d5,2021-07-29_22h56.02.237,Simcolourproject_2stim_asymm_v5,2020.2.10,MacIntel,60,61025ae37ef11b136ea224fe,,,,,,,,,3733,119.0859375,-39.59375,1,0,0,response3disk,,5,3.51953125,6.53515625,1,0,0,rectangle,3.51953125,6.53515625,1,0,0,3.51953125,6.53515625,1,0,0,1,20,180,98,1,,,,,,,,
,,,,,,,,,,,,,FF,,,,,,,,0.8179,,,,,,,,,,,,,,,,,,,,,,61023e0830e893bec6bd8f3c,61037784f5b3fde2956648d5,2021-07-29_22h56.02.237,Simcolourproject_2stim_asymm_v5,2020.2.10,MacIntel,60,61025ae37ef11b136ea224fe,,,,,,,,,1277,44.86328125,-82.79296875,1,0,0,response3disk,,4,-6.59375,3.05078125,1,0,0,rectangle,-6.59375,3.05078125,1,0,0,-6.59375,3.05078125,1,0,0,1,21,181,99,1,,,,,,,,
,,,,,,,,,,,,,FF,,,,,,,,2.3508,,,,,,,,,,,,,,,,,,,,,,61023e0830e893bec6bd8f3c,61037784f5b3fde2956648d5,2021-07-29_22h56.02.237,Simcolourproject_2stim_asymm_v5,2020.2.10,MacIntel,60,61025ae37ef11b136ea224fe,,,,,,,,,3034,38.078125,-73.08203125,1,0,0,response3disk,,4,-10.4609375,2.1640625,1,0,0,rectangle,-10.4609375,2.1640625,1,0,0,-10.4609375,2.1640625,1,0,0,1,22,182,20,1,,,,,,,,
,,,,,,,,,,,,,FF,,,,,,,,0.9339,,,,,,,,,,,,,,,,,,,,,,61023e0830e893bec6bd8f3c,61037784f5b3fde2956648d5,2021-07-29_22h56.02.237,Simcolourproject_2stim_asymm_v5,2020.2.10,MacIntel,60,61025ae37ef11b136ea224fe,,,,,,,,,1699,-58.171875,-86.40234375,1,0,0,response5disk,,3,0.00390625,6.62109375,1,0,0,rectangle,0.00390625,6.62109375,1,0,0,0.00390625,6.62109375,1,0,0,1,23,183,48,1,,,,,,,,
,,,,,,,,,,,,,FF,,,,,,,,0.6349,,,,,,,,,,,,,,,,,,,,,,61023e0830e893bec6bd8f3c,61037784f5b3fde2956648d5,2021-07-29_22h56.02.237,Simcolourproject_2stim_asymm_v5,2020.2.10,MacIntel,60,61025ae37ef11b136ea224fe,,,,,,,,,4043,-52.45703125,-81.8046875,1,0,0,response5disk,,3,-3.734375,6.2265625,1,0,0,rectangle,-3.734375,6.2265625,1,0,0,-3.734375,6.2265625,1,0,0,1,24,184,73,1,,,,,,,,
,,,,,,,,,,,,,FF,,,,,,,,0.6163,,,,,,,,,,,,,,,,,,,,,,61023e0830e893bec6bd8f3c,61037784f5b3fde2956648d5,2021-07-29_22h56.02.237,Simcolourproject_2stim_asymm_v5,2020.2.10,MacIntel,60,61025ae37ef11b136ea224fe,,,,,,,,,3588,-53.71875,-79.63671875,1,0,0,response5disk,,3,-11.84765625,-0.5078125,1,0,0,rectangle,-11.84765625,-0.5078125,1,0,0,-11.84765625,-0.5078125,1,0,0,1,25,185,1,1,,,,,,,,
,,,,,,,,,,,,,FF,,,,,,,,1.033,,,,,,,,,,,,,,,,,,,,,,61023e0830e893bec6bd8f3c,61037784f5b3fde2956648d5,2021-07-29_22h56.02.237,Simcolourproject_2stim_asymm_v5,2020.2.10,MacIntel,60,61025ae37ef11b136ea224fe,,,,,,,,,3176,52.16015625,-81.58203125,1,0,0,response3disk,,4,3.5,-4.42578125,1,0,0,rectangle,3.5,-4.42578125,1,0,0,3.5,-4.42578125,1,0,0,1,26,186,40,1,,,,,,,,
,,,,,,,,,,,,,FF,,,,,,,,0.9679,,,,,,,,,,,,,,,,,,,,,,61023e0830e893bec6bd8f3c,61037784f5b3fde2956648d5,2021-07-29_22h56.02.237,Simcolourproject_2stim_asymm_v5,2020.2.10,MacIntel,60,61025ae37ef11b136ea224fe,,,,,,,,,191,-104.1171875,-35.8359375,1,0,0,response5disk,,2,-8.79296875,4.2890625,1,0,0,rectangle,-8.79296875,4.2890625,1,0,0,-8.79296875,4.2890625,1,0,0,1,27,187,101,1,,,,,,,,
,,,,,,,,,,,,,FF,,,,,,,,0.9012,,,,,,,,,,,,,,,,,,,,,,61023e0830e893bec6bd8f3c,61037784f5b3fde2956648d5,2021-07-29_22h56.02.237,Simcolourproject_2stim_asymm_v5,2020.2.10,MacIntel,60,61025ae37ef11b136ea224fe,,,,,,,,,473,50.09375,-72.22265625,1,0,0,response3disk,,4,10.55078125,-5.44140625,1,0,0,rectangle,10.55078125,-5.44140625,1,0,0,10.55078125,-5.44140625,1,0,0,1,28,188,26,1,,,,,,,,
,,,,,,,,,,,,,FF,,,,,,,,1.3173,,,,,,,,,,,,,,,,,,,,,,61023e0830e893bec6bd8f3c,61037784f5b3fde2956648d5,2021-07-29_22h56.02.237,Simcolourproject_2stim_asymm_v5,2020.2.10,MacIntel,60,61025ae37ef11b136ea224fe,,,,,,,,,891,-65.88671875,25.9296875,1,0,0,response7disk,,1,2.953125,-3.03515625,1,0,0,rectangle,2.953125,-3.03515625,1,0,0,2.953125,-3.03515625,1,0,0,1,29,189,88,1,,,,,,,,
,,,,,,,,,,,,,FF,,,,,,,,1.0319,,,,,,,,,,,,,,,,,,,,,,61023e0830e893bec6bd8f3c,61037784f5b3fde2956648d5,2021-07-29_22h56.02.237,Simcolourproject_2stim_asymm_v5,2020.2.10,MacIntel,60,61025ae37ef11b136ea224fe,,,,,,,,,18,-43.54296875,-96.98828125,1,0,0,response5disk,,3,-4.5234375,2.671875,1,0,0,rectangle,-4.5234375,2.671875,1,0,0,-4.5234375,2.671875,1,0,0,1,30,190,94,1,,,,,,,,
,,,,,,,,,,,,,FF,,,,,,,,0.7663,,,,,,,,,,,,,,,,,,,,,,61023e0830e893bec6bd8f3c,61037784f5b3fde2956648d5,2021-07-29_22h56.02.237,Simcolourproject_2stim_asymm_v5,2020.2.10,MacIntel,60,61025ae37ef11b136ea224fe,,,,,,,,,714,-48.6796875,-92.25,1,0,0,response5disk,,3,0.25,1.0859375,1,0,0,rectangle,0.25,1.0859375,1,0,0,0.25,1.0859375,1,0,0,1,31,191,92,1,,,,,,,,
,,,,,,,,,,,,,FF,,,,,,,,0.95,,,,,,,,,,,,,,,,,,,,,,61023e0830e893bec6bd8f3c,61037784f5b3fde2956648d5,2021-07-29_22h56.02.237,Simcolourproject_2stim_asymm_v5,2020.2.10,MacIntel,60,61025ae37ef11b136ea224fe,,,,,,,,,3477,-80.58984375,49.13671875,1,0,0,response7disk,,1,-0.78125,7.390625,1,0,0,rectangle,-0.78125,7.390625,1,0,0,-0.78125,7.390625,1,0,0,1,32,192,28,1,,,,,,,,
,,,,,,,,,,,,,FF,,,,,,,,1.0679,,,,,,,,,,,,,,,,,,,,,,61023e0830e893bec6bd8f3c,61037784f5b3fde2956648d5,2021-07-29_22h56.02.237,Simcolourproject_2stim_asymm_v5,2020.2.10,MacIntel,60,61025ae37ef11b136ea224fe,,,,,,,,,2054,-62.23046875,-102.3242188,1,0,0,response5disk,,3,-1.64453125,7.30859375,1,0,0,rectangle,-1.64453125,7.30859375,1,0,0,-1.64453125,7.30859375,1,0,0,1,33,193,56,1,,,,,,,,
,,,,,,,,,,,,,FF,,,,,,,,1.3333,,,,,,,,,,,,,,,,,,,,,,61023e0830e893bec6bd8f3c,61037784f5b3fde2956648d5,2021-07-29_22h56.02.237,Simcolourproject_2stim_asymm_v5,2020.2.10,MacIntel,60,61025ae37ef11b136ea224fe,,,,,,,,,4122,-33.3984375,-76.296875,1,0,0,response5disk,,3,-11.1640625,8.11328125,1,0,0,rectangle,-11.1640625,8.11328125,1,0,0,-11.1640625,8.11328125,1,0,0,1,34,194,118,1,,,,,,,,
,,,,,,,,,,,,,FF,,,,,,,,0.9151,,,,,,,,,,,,,,,,,,,,,,61023e0830e893bec6bd8f3c,61037784f5b3fde2956648d5,2021-07-29_22h56.02.237,Simcolourproject_2stim_asymm_v5,2020.2.10,MacIntel,60,61025ae37ef11b136ea224fe,,,,,,,,,824,-91.69921875,36.87890625,1,0,0,response7disk,,1,-18.30078125,9.94921875,1,0,0,rectangle,-18.30078125,9.94921875,1,0,0,-18.30078125,9.94921875,1,0,0,1,35,195,127,1,,,,,,,,
,,,,,,,,,,,,,FF,,,,,,,,0.7344,,,,,,,,,,,,,,,,,,,,,,61023e0830e893bec6bd8f3c,61037784f5b3fde2956648d5,2021-07-29_22h56.02.237,Simcolourproject_2stim_asymm_v5,2020.2.10,MacIntel,60,61025ae37ef11b136ea224fe,,,,,,,,,3799,-20.2578125,-73.80078125,1,0,0,response5disk,,3,3.64453125,0.4453125,1,0,0,rectangle,3.64453125,0.4453125,1,0,0,3.64453125,0.4453125,1,0,0,1,36,196,41,1,,,,,,,,
,,,,,,,,,,,,,FF,,,,,,,,1.2999,,,,,,,,,,,,,,,,,,,,,,61023e0830e893bec6bd8f3c,61037784f5b3fde2956648d5,2021-07-29_22h56.02.237,Simcolourproject_2stim_asymm_v5,2020.2.10,MacIntel,60,61025ae37ef11b136ea224fe,,,,,,,,,2851,-46.16796875,-75.48046875,1,0,0,response5disk,,3,-12.62109375,-7.890625,1,0,0,rectangle,-12.62109375,-7.890625,1,0,0,-12.62109375,-7.890625,1,0,0,1,37,197,75,1,,,,,,,,
,,,,,,,,,,,,,FF,,,,,,,,0.8498,,,,,,,,,,,,,,,,,,,,,,61023e0830e893bec6bd8f3c,61037784f5b3fde2956648d5,2021-07-29_22h56.02.237,Simcolourproject_2stim_asymm_v5,2020.2.10,MacIntel,60,61025ae37ef11b136ea224fe,,,,,,,,,3112,37.6484375,-63.515625,1,0,0,response3disk,,4,-2.2578125,-1.19921875,1,0,0,rectangle,-2.2578125,-1.19921875,1,0,0,-2.2578125,-1.19921875,1,0,0,1,38,198,157,1,,,,,,,,
,,,,,,,,,,,,,FF,,,,,,,,0.9004,,,,,,,,,,,,,,,,,,,,,,61023e0830e893bec6bd8f3c,61037784f5b3fde2956648d5,2021-07-29_22h56.02.237,Simcolourproject_2stim_asymm_v5,2020.2.10,MacIntel,60,61025ae37ef11b136ea224fe,,,,,,,,,1740,-40.6875,-81.5390625,1,0,0,response5disk,,3,-5.09375,-0.4375,1,0,0,rectangle,-5.09375,-0.4375,1,0,0,-5.09375,-0.4375,1,0,0,1,39,199,120,1,,,,,,,,
,,,,,,,,,,,,,FF,,,,,,,,1.3004,,,,,,,,,,,,,,,,,,,,,,61023e0830e893bec6bd8f3c,61037784f5b3fde2956648d5,2021-07-29_22h56.02.237,Simcolourproject_2stim_asymm_v5,2020.2.10,MacIntel,60,61025ae37ef11b136ea224fe,,,,,,,,,2482,-32.734375,79.21484375,1,0,0,response7disk,,0,-9.42578125,6.28515625,1,0,0,rectangle,-93.9609375,-55.02734375,1,0,0,0.97265625,-5.39453125,1,0,0,1,40,200,115,1,,response5disk_3,TRUE,2,2,"[296,57,73,288,270,121,135,107,244,74,201,86,264,271,271,76,82,38,214,0]",2.1844,rectangle
,,,,,,,,,,,,,FF,,,,,,,,0.8331,,,,,,,,,,,,,,,,,,,,,,61023e0830e893bec6bd8f3c,61037784f5b3fde2956648d5,2021-07-29_22h56.02.237,Simcolourproject_2stim_asymm_v5,2020.2.10,MacIntel,60,61025ae37ef11b136ea224fe,,,,,,,,,3997,-86.5390625,-44.703125,1,0,0,response5disk,,2,-9.7890625,-2.9609375,1,0,0,rectangle,-9.7890625,-2.9609375,1,0,0,-9.7890625,-2.9609375,1,0,0,1,41,201,3,1,,,,,,,,
,,,,,,,,,,,,,FF,,,,,,,,1.6156,,,,,,,,,,,,,,,,,,,,,,61023e0830e893bec6bd8f3c,61037784f5b3fde2956648d5,2021-07-29_22h56.02.237,Simcolourproject_2stim_asymm_v5,2020.2.10,MacIntel,60,61025ae37ef11b136ea224fe,,,,,,,,,1081,97.40234375,-26.609375,1,0,0,response3disk,,5,5.16015625,1.8515625,1,0,0,rectangle,5.16015625,1.8515625,1,0,0,5.16015625,1.8515625,1,0,0,1,42,202,142,1,,,,,,,,
,,,,,,,,,,,,,FF,,,,,,,,0.7498,,,,,,,,,,,,,,,,,,,,,,61023e0830e893bec6bd8f3c,61037784f5b3fde2956648d5,2021-07-29_22h56.02.237,Simcolourproject_2stim_asymm_v5,2020.2.10,MacIntel,60,61025ae37ef11b136ea224fe,,,,,,,,,3682,56.3828125,-67.78125,1,0,0,response3disk,,4,3.73046875,-0.9453125,1,0,0,rectangle,3.73046875,-0.9453125,1,0,0,3.73046875,-0.9453125,1,0,0,1,43,203,70,1,,,,,,,,
,,,,,,,,,,,,,FF,,,,,,,,0.9497,,,,,,,,,,,,,,,,,,,,,,61023e0830e893bec6bd8f3c,61037784f5b3fde2956648d5,2021-07-29_22h56.02.237,Simcolourproject_2stim_asymm_v5,2020.2.10,MacIntel,60,61025ae37ef11b136ea224fe,,,,,,,,,2433,-62.8984375,-72.76953125,1,0,0,response5disk,,3,-6.55078125,4.9765625,1,0,0,rectangle,-6.55078125,4.9765625,1,0,0,-6.55078125,4.9765625,1,0,0,1,44,204,14,1,,,,,,,,
,,,,,,,,,,,,,FF,,,,,,,,0.6841,,,,,,,,,,,,,,,,,,,,,,61023e0830e893bec6bd8f3c,61037784f5b3fde2956648d5,2021-07-29_22h56.02.237,Simcolourproject_2stim_asymm_v5,2020.2.10,MacIntel,60,61025ae37ef11b136ea224fe,,,,,,,,,1044,-40.58984375,-59.70703125,1,0,0,response5disk,,3,-14.2734375,-2.984375,1,0,0,rectangle,-14.2734375,-2.984375,1,0,0,-14.2734375,-2.984375,1,0,0,1,45,205,18,1,,,,,,,,
,,,,,,,,,,,,,FF,,,,,,,,1.1158,,,,,,,,,,,,,,,,,,,,,,61023e0830e893bec6bd8f3c,61037784f5b3fde2956648d5,2021-07-29_22h56.02.237,Simcolourproject_2stim_asymm_v5,2020.2.10,MacIntel,60,61025ae37ef11b136ea224fe,,,,,,,,,1622,89.3046875,39.61328125,1,0,0,response1disk,,6,-1.61328125,3.1484375,1,0,0,rectangle,-1.61328125,3.1484375,1,0,0,-1.61328125,3.1484375,1,0,0,1,46,206,158,1,,,,,,,,
,,,,,,,,,,,,,FF,,,,,,,,1.083,,,,,,,,,,,,,,,,,,,,,,61023e0830e893bec6bd8f3c,61037784f5b3fde2956648d5,2021-07-29_22h56.02.237,Simcolourproject_2stim_asymm_v5,2020.2.10,MacIntel,60,61025ae37ef11b136ea224fe,,,,,,,,,1053,-29.69140625,-60.31640625,1,0,0,response5disk,,3,-9.77734375,-8.09765625,1,0,0,rectangle,-9.77734375,-8.09765625,1,0,0,-9.77734375,-8.09765625,1,0,0,1,47,207,6,1,,,,,,,,
,,,,,,,,,,,,,FF,,,,,,,,0.8167,,,,,,,,,,,,,,,,,,,,,,61023e0830e893bec6bd8f3c,61037784f5b3fde2956648d5,2021-07-29_22h56.02.237,Simcolourproject_2stim_asymm_v5,2020.2.10,MacIntel,60,61025ae37ef11b136ea224fe,,,,,,,,,436,-109.0195313,-52.6171875,1,0,0,response5disk,,2,-8.1796875,3.46484375,1,0,0,rectangle,-8.1796875,3.46484375,1,0,0,-8.1796875,3.46484375,1,0,0,1,48,208,58,1,,,,,,,,
,,,,,,,,,,,,,FF,,,,,,,,0.9669,,,,,,,,,,,,,,,,,,,,,,61023e0830e893bec6bd8f3c,61037784f5b3fde2956648d5,2021-07-29_22h56.02.237,Simcolourproject_2stim_asymm_v5,2020.2.10,MacIntel,60,61025ae37ef11b136ea224fe,,,,,,,,,2663,-97.4765625,-43.79296875,1,0,0,response5disk,,2,-5.140625,-1.15625,1,0,0,rectangle,-5.140625,-1.15625,1,0,0,-5.140625,-1.15625,1,0,0,1,49,209,34,1,,,,,,,,
,,,,,,,,,,,,,FF,,,,,,,,0.6664,,,,,,,,,,,,,,,,,,,,,,61023e0830e893bec6bd8f3c,61037784f5b3fde2956648d5,2021-07-29_22h56.02.237,Simcolourproject_2stim_asymm_v5,2020.2.10,MacIntel,60,61025ae37ef11b136ea224fe,,,,,,,,,2726,-74.36328125,-40.9921875,1,0,0,response5disk,,2,-10.76171875,-1.859375,1,0,0,rectangle,-10.76171875,-1.859375,1,0,0,-10.76171875,-1.859375,1,0,0,1,50,210,7,1,,,,,,,,
,,,,,,,,,,,,,FF,,,,,,,,0.852,,,,,,,,,,,,,,,,,,,,,,61023e0830e893bec6bd8f3c,61037784f5b3fde2956648d5,2021-07-29_22h56.02.237,Simcolourproject_2stim_asymm_v5,2020.2.10,MacIntel,60,61025ae37ef11b136ea224fe,,,,,,,,,2184,87.41796875,-32.59765625,1,0,0,response3disk,,5,4.76953125,-2.64453125,1,0,0,rectangle,4.76953125,-2.64453125,1,0,0,4.76953125,-2.64453125,1,0,0,1,51,211,24,1,,,,,,,,
,,,,,,,,,,,,,FF,,,,,,,,0.9012,,,,,,,,,,,,,,,,,,,,,,61023e0830e893bec6bd8f3c,61037784f5b3fde2956648d5,2021-07-29_22h56.02.237,Simcolourproject_2stim_asymm_v5,2020.2.10,MacIntel,60,61025ae37ef11b136ea224fe,,,,,,,,,4220,-33.73046875,-70.31640625,1,0,0,response5disk,,3,-5.61328125,0.42578125,1,0,0,rectangle,-5.61328125,0.42578125,1,0,0,-5.61328125,0.42578125,1,0,0,1,52,212,30,1,,,,,,,,
,,,,,,,,,,,,,FF,,,,,,,,1.533,,,,,,,,,,,,,,,,,,,,,,61023e0830e893bec6bd8f3c,61037784f5b3fde2956648d5,2021-07-29_22h56.02.237,Simcolourproject_2stim_asymm_v5,2020.2.10,MacIntel,60,61025ae37ef11b136ea224fe,,,,,,,,,478,70.03515625,37.3203125,1,0,0,response1disk,,6,13.46484375,7.57421875,1,0,0,rectangle,-39.41796875,-84.93359375,1,0,0,8.3125,-2.16015625,1,0,0,1,53,213,84,1,,response5disk_3,TRUE,3,3,"[296,57,73,288,270,121,135,107,244,74,201,86,264,271,271,76,82,38,214,0]",1.8501,rectangle
,,,,,,,,,,,,,FF,,,,,,,,1.217,,,,,,,,,,,,,,,,,,,,,,61023e0830e893bec6bd8f3c,61037784f5b3fde2956648d5,2021-07-29_22h56.02.237,Simcolourproject_2stim_asymm_v5,2020.2.10,MacIntel,60,61025ae37ef11b136ea224fe,,,,,,,,,3181,47,-96.68359375,1,0,0,response3disk,,4,3.23046875,-4.23046875,1,0,0,rectangle,3.23046875,-4.23046875,1,0,0,3.23046875,-4.23046875,1,0,0,1,54,214,4,1,,,,,,,,
,,,,,,,,,,,,,FF,,,,,,,,1.0337,,,,,,,,,,,,,,,,,,,,,,61023e0830e893bec6bd8f3c,61037784f5b3fde2956648d5,2021-07-29_22h56.02.237,Simcolourproject_2stim_asymm_v5,2020.2.10,MacIntel,60,61025ae37ef11b136ea224fe,,,,,,,,,2956,87.61328125,-53.0390625,1,0,0,response3disk,,5,1.13671875,-0.77734375,1,0,0,rectangle,1.13671875,-0.77734375,1,0,0,1.13671875,-0.77734375,1,0,0,1,55,215,144,1,,,,,,,,
,,,,,,,,,,,,,FF,,,,,,,,1.4844,,,,,,,,,,,,,,,,,,,,,,61023e0830e893bec6bd8f3c,61037784f5b3fde2956648d5,2021-07-29_22h56.02.237,Simcolourproject_2stim_asymm_v5,2020.2.10,MacIntel,60,61025ae37ef11b136ea224fe,,,,,,,,,1207,79.83203125,24.625,1,0,0,response1disk,,6,-1.48046875,1.66015625,1,0,0,rectangle,-1.48046875,1.66015625,1,0,0,-1.48046875,1.66015625,1,0,0,1,56,216,46,1,,,,,,,,
,,,,,,,,,,,,,FF,,,,,,,,0.8324,,,,,,,,,,,,,,,,,,,,,,61023e0830e893bec6bd8f3c,61037784f5b3fde2956648d5,2021-07-29_22h56.02.237,Simcolourproject_2stim_asymm_v5,2020.2.10,MacIntel,60,61025ae37ef11b136ea224fe,,,,,,,,,3318,68.75,36.4453125,1,0,0,response1disk,,6,6.12890625,9.234375,1,0,0,rectangle,6.12890625,9.234375,1,0,0,6.12890625,9.234375,1,0,0,1,57,217,62,1,,,,,,,,
,,,,,,,,,,,,,FF,,,,,,,,0.8163,,,,,,,,,,,,,,,,,,,,,,61023e0830e893bec6bd8f3c,61037784f5b3fde2956648d5,2021-07-29_22h56.02.237,Simcolourproject_2stim_asymm_v5,2020.2.10,MacIntel,60,61025ae37ef11b136ea224fe,,,,,,,,,1635,32.41796875,75.08984375,1,0,0,response1disk,,7,-4.46875,-1.578125,1,0,0,rectangle,-4.46875,-1.578125,1,0,0,-4.46875,-1.578125,1,0,0,1,58,218,135,1,,,,,,,,
,,,,,,,,,,,,,FF,,,,,,,,0.8177,,,,,,,,,,,,,,,,,,,,,,61023e0830e893bec6bd8f3c,61037784f5b3fde2956648d5,2021-07-29_22h56.02.237,Simcolourproject_2stim_asymm_v5,2020.2.10,MacIntel,60,61025ae37ef11b136ea224fe,,,,,,,,,299,63.52734375,34.5703125,1,0,0,response1disk,,6,1.41796875,-0.18359375,1,0,0,rectangle,1.41796875,-0.18359375,1,0,0,1.41796875,-0.18359375,1,0,0,1,59,219,80,1,,,,,,,,
,,,,,,,,,,,,,FF,,,,,,,,2.3489,,,,,,,,,,,,,,,,,,,,,,61023e0830e893bec6bd8f3c,61037784f5b3fde2956648d5,2021-07-29_22h56.02.237,Simcolourproject_2stim_asymm_v5,2020.2.10,MacIntel,60,61025ae37ef11b136ea224fe,,,,,,,,,145,72.96484375,32.16015625,1,0,0,response1disk,,6,-1.48828125,12.5703125,1,0,0,rectangle,-1.48828125,12.5703125,1,0,0,-1.48828125,12.5703125,1,0,0,1,60,220,79,1,,,,,,,,
,,,,,,,,,,,,,FF,,,,,,,,0.9676,,,,,,,,,,,,,,,,,,,,,,61023e0830e893bec6bd8f3c,61037784f5b3fde2956648d5,2021-07-29_22h56.02.237,Simcolourproject_2stim_asymm_v5,2020.2.10,MacIntel,60,61025ae37ef11b136ea224fe,,,,,,,,,2320,67.59765625,-46.796875,1,0,0,response3disk,,5,7.40234375,-9.3828125,1,0,0,rectangle,7.40234375,-9.3828125,1,0,0,7.40234375,-9.3828125,1,0,0,1,61,221,19,1,,,,,,,,
,,,,,,,,,,,,,FF,,,,,,,,0.6183,,,,,,,,,,,,,,,,,,,,,,61023e0830e893bec6bd8f3c,61037784f5b3fde2956648d5,2021-07-29_22h56.02.237,Simcolourproject_2stim_asymm_v5,2020.2.10,MacIntel,60,61025ae37ef11b136ea224fe,,,,,,,,,1916,42.6015625,-84.7890625,1,0,0,response3disk,,4,1.9765625,-0.30859375,1,0,0,rectangle,1.9765625,-0.30859375,1,0,0,1.9765625,-0.30859375,1,0,0,1,62,222,114,1,,,,,,,,
,,,,,,,,,,,,,FF,,,,,,,,1.0343,,,,,,,,,,,,,,,,,,,,,,61023e0830e893bec6bd8f3c,61037784f5b3fde2956648d5,2021-07-29_22h56.02.237,Simcolourproject_2stim_asymm_v5,2020.2.10,MacIntel,60,61025ae37ef11b136ea224fe,,,,,,,,,675,94.36328125,-42.19921875,1,0,0,response3disk,,5,4.40625,5.63671875,1,0,0,rectangle,4.40625,5.63671875,1,0,0,4.40625,5.63671875,1,0,0,1,63,223,91,1,,,,,,,,
,,,,,,,,,,,,,FF,,,,,,,,1.2336,,,,,,,,,,,,,,,,,,,,,,61023e0830e893bec6bd8f3c,61037784f5b3fde2956648d5,2021-07-29_22h56.02.237,Simcolourproject_2stim_asymm_v5,2020.2.10,MacIntel,60,61025ae37ef11b136ea224fe,,,,,,,,,4015,82.75390625,-55.42578125,1,0,0,response3disk,,5,8.41796875,0.671875,1,0,0,rectangle,8.41796875,0.671875,1,0,0,8.41796875,0.671875,1,0,0,1,64,224,33,1,,,,,,,,
,,,,,,,,,,,,,FF,,,,,,,,0.9002,,,,,,,,,,,,,,,,,,,,,,61023e0830e893bec6bd8f3c,61037784f5b3fde2956648d5,2021-07-29_22h56.02.237,Simcolourproject_2stim_asymm_v5,2020.2.10,MacIntel,60,61025ae37ef11b136ea224fe,,,,,,,,,3463,40.21484375,-89.15234375,1,0,0,response3disk,,4,3.05078125,4.6953125,1,0,0,rectangle,3.05078125,4.6953125,1,0,0,3.05078125,4.6953125,1,0,0,1,65,225,147,1,,,,,,,,
,,,,,,,,,,,,,FF,,,,,,,,1.2,,,,,,,,,,,,,,,,,,,,,,61023e0830e893bec6bd8f3c,61037784f5b3fde2956648d5,2021-07-29_22h56.02.237,Simcolourproject_2stim_asymm_v5,2020.2.10,MacIntel,60,61025ae37ef11b136ea224fe,,,,,,,,,2924,80.5859375,48.93359375,1,0,0,response1disk,,6,8.52734375,4.984375,1,0,0,rectangle,8.52734375,4.984375,1,0,0,8.52734375,4.984375,1,0,0,1,66,226,12,1,,,,,,,,
,,,,,,,,,,,,,FF,,,,,,,,1.5996,,,,,,,,,,,,,,,,,,,,,,61023e0830e893bec6bd8f3c,61037784f5b3fde2956648d5,2021-07-29_22h56.02.237,Simcolourproject_2stim_asymm_v5,2020.2.10,MacIntel,60,61025ae37ef11b136ea224fe,,,,,,,,,2950,46.42578125,-95.25390625,1,0,0,response3disk,,4,-0.1640625,2.1015625,1,0,0,rectangle,-0.1640625,2.1015625,1,0,0,-0.1640625,2.1015625,1,0,0,1,67,227,36,1,,,,,,,,
,,,,,,,,,,,,,FF,,,,,,,,0.7485,,,,,,,,,,,,,,,,,,,,,,61023e0830e893bec6bd8f3c,61037784f5b3fde2956648d5,2021-07-29_22h56.02.237,Simcolourproject_2stim_asymm_v5,2020.2.10,MacIntel,60,61025ae37ef11b136ea224fe,,,,,,,,,2369,-51.0234375,-111.8945313,1,0,0,response5disk,,3,-8.98828125,10.57421875,1,0,0,rectangle,-8.98828125,10.57421875,1,0,0,-8.98828125,10.57421875,1,0,0,1,68,228,90,1,,,,,,,,
,,,,,,,,,,,,,FF,,,,,,,,1.5674,,,,,,,,,,,,,,,,,,,,,,61023e0830e893bec6bd8f3c,61037784f5b3fde2956648d5,2021-07-29_22h56.02.237,Simcolourproject_2stim_asymm_v5,2020.2.10,MacIntel,60,61025ae37ef11b136ea224fe,,,,,,,,,1514,72.671875,-52.3828125,1,0,0,response3disk,,5,-3.484375,6.984375,1,0,0,rectangle,-3.484375,6.984375,1,0,0,-3.484375,6.984375,1,0,0,1,69,229,110,1,,,,,,,,
,,,,,,,,,,,,,FF,,,,,,,,1.3833,,,,,,,,,,,,,,,,,,,,,,61023e0830e893bec6bd8f3c,61037784f5b3fde2956648d5,2021-07-29_22h56.02.237,Simcolourproject_2stim_asymm_v5,2020.2.10,MacIntel,60,61025ae37ef11b136ea224fe,,,,,,,,,1824,-75.3359375,-51.86328125,1,0,0,response5disk,,2,-5.1875,-3.83203125,1,0,0,rectangle,-5.1875,-3.83203125,1,0,0,-5.1875,-3.83203125,1,0,0,1,70,230,145,1,,,,,,,,
,,,,,,,,,,,,,FF,,,,,,,,0.8998,,,,,,,,,,,,,,,,,,,,,,61023e0830e893bec6bd8f3c,61037784f5b3fde2956648d5,2021-07-29_22h56.02.237,Simcolourproject_2stim_asymm_v5,2020.2.10,MacIntel,60,61025ae37ef11b136ea224fe,,,,,,,,,3171,87.19921875,-41.73046875,1,0,0,response3disk,,5,-3.3125,2.2265625,1,0,0,rectangle,-3.3125,2.2265625,1,0,0,-3.3125,2.2265625,1,0,0,1,71,231,74,1,,,,,,,,
,,,,,,,,,,,,,FF,,,,,,,,1.0843,,,,,,,,,,,,,,,,,,,,,,61023e0830e893bec6bd8f3c,61037784f5b3fde2956648d5,2021-07-29_22h56.02.237,Simcolourproject_2stim_asymm_v5,2020.2.10,MacIntel,60,61025ae37ef11b136ea224fe,,,,,,,,,2986,-89.4765625,-38.78125,1,0,0,response5disk,,2,-8.8828125,-3.765625,1,0,0,rectangle,-8.8828125,-3.765625,1,0,0,-8.8828125,-3.765625,1,0,0,1,72,232,72,1,,,,,,,,
,,,,,,,,,,,,,FF,,,,,,,,1.1176,,,,,,,,,,,,,,,,,,,,,,61023e0830e893bec6bd8f3c,61037784f5b3fde2956648d5,2021-07-29_22h56.02.237,Simcolourproject_2stim_asymm_v5,2020.2.10,MacIntel,60,61025ae37ef11b136ea224fe,,,,,,,,,928,40.484375,78.8671875,1,0,0,response1disk,,7,4.81640625,1.23046875,1,0,0,rectangle,4.81640625,1.23046875,1,0,0,4.81640625,1.23046875,1,0,0,1,73,233,64,1,,,,,,,,
,,,,,,,,,,,,,FF,,,,,,,,0.8341,,,,,,,,,,,,,,,,,,,,,,61023e0830e893bec6bd8f3c,61037784f5b3fde2956648d5,2021-07-29_22h56.02.237,Simcolourproject_2stim_asymm_v5,2020.2.10,MacIntel,60,61025ae37ef11b136ea224fe,,,,,,,,,3260,36.30859375,74.73828125,1,0,0,response1disk,,7,-0.4375,0.78125,1,0,0,rectangle,-0.4375,0.78125,1,0,0,-0.4375,0.78125,1,0,0,1,74,234,96,1,,,,,,,,
,,,,,,,,,,,,,FF,,,,,,,,0.8995,,,,,,,,,,,,,,,,,,,,,,61023e0830e893bec6bd8f3c,61037784f5b3fde2956648d5,2021-07-29_22h56.02.237,Simcolourproject_2stim_asymm_v5,2020.2.10,MacIntel,60,61025ae37ef11b136ea224fe,,,,,,,,,1164,85.9296875,-39.83203125,1,0,0,response3disk,,5,6.078125,-1.5390625,1,0,0,rectangle,6.078125,-1.5390625,1,0,0,6.078125,-1.5390625,1,0,0,1,75,235,134,1,,,,,,,,
,,,,,,,,,,,,,FF,,,,,,,,0.8833,,,,,,,,,,,,,,,,,,,,,,61023e0830e893bec6bd8f3c,61037784f5b3fde2956648d5,2021-07-29_22h56.02.237,Simcolourproject_2stim_asymm_v5,2020.2.10,MacIntel,60,61025ae37ef11b136ea224fe,,,,,,,,,841,101.5820313,-37.6640625,1,0,0,response3disk,,5,3.39453125,-0.484375,1,0,0,rectangle,3.39453125,-0.484375,1,0,0,3.39453125,-0.484375,1,0,0,1,76,236,133,1,,,,,,,,
,,,,,,,,,,,,,FF,,,,,,,,0.9016,,,,,,,,,,,,,,,,,,,,,,61023e0830e893bec6bd8f3c,61037784f5b3fde2956648d5,2021-07-29_22h56.02.237,Simcolourproject_2stim_asymm_v5,2020.2.10,MacIntel,60,61025ae37ef11b136ea224fe,,,,,,,,,3375,-69.54296875,-41.5703125,1,0,0,response5disk,,2,0.59765625,0.00390625,1,0,0,rectangle,0.59765625,0.00390625,1,0,0,0.59765625,0.00390625,1,0,0,1,77,237,140,1,,,,,,,,
,,,,,,,,,,,,,FF,,,,,,,,0.7322,,,,,,,,,,,,,,,,,,,,,,61023e0830e893bec6bd8f3c,61037784f5b3fde2956648d5,2021-07-29_22h56.02.237,Simcolourproject_2stim_asymm_v5,2020.2.10,MacIntel,60,61025ae37ef11b136ea224fe,,,,,,,,,3008,49.47265625,-55.04296875,1,0,0,response3disk,,4,11.53125,12.41015625,1,0,0,rectangle,11.53125,12.41015625,1,0,0,11.53125,12.41015625,1,0,0,1,78,238,81,1,,,,,,,,
,,,,,,,,,,,,,FF,,,,,,,,2.2006,,,,,,,,,,,,,,,,,,,,,,61023e0830e893bec6bd8f3c,61037784f5b3fde2956648d5,2021-07-29_22h56.02.237,Simcolourproject_2stim_asymm_v5,2020.2.10,MacIntel,60,61025ae37ef11b136ea224fe,,,,,,,,,2559,39.875,-80.8671875,1,0,0,response3disk,,4,-12.65234375,-0.1328125,1,0,0,rectangle,-12.65234375,-0.1328125,1,0,0,-12.65234375,-0.1328125,1,0,0,1,79,239,129,1,,,,,,,,
,,,,,,,,,,,,,FF,,,,,,,,0.7334,,,,,,,,,,,,,,,,,,,,,,61023e0830e893bec6bd8f3c,61037784f5b3fde2956648d5,2021-07-29_22h56.02.237,Simcolourproject_2stim_asymm_v5,2020.2.10,MacIntel,60,61025ae37ef11b136ea224fe,,,,,,,,,3974,-64.20703125,37.34765625,1,0,0,response7disk,,1,0.53125,4.05859375,1,0,0,rectangle,0.53125,4.05859375,1,0,0,0.53125,4.05859375,1,0,0,1,80,240,130,1,,,,,,,,
,,,,,,,,,,,,,FF,,,,,,,,0.8326,,,,,,,,,,,,,,,,,,,,,,61023e0830e893bec6bd8f3c,61037784f5b3fde2956648d5,2021-07-29_22h56.02.237,Simcolourproject_2stim_asymm_v5,2020.2.10,MacIntel,60,61025ae37ef11b136ea224fe,,,,,,,,,670,33.5703125,62.29296875,1,0,0,response1disk,,7,1.15625,1.83203125,1,0,0,rectangle,1.15625,1.83203125,1,0,0,1.15625,1.83203125,1,0,0,1,81,241,21,1,,,,,,,,
,,,,,,,,,,,,,FF,,,,,,,,1.0515,,,,,,,,,,,,,,,,,,,,,,61023e0830e893bec6bd8f3c,61037784f5b3fde2956648d5,2021-07-29_22h56.02.237,Simcolourproject_2stim_asymm_v5,2020.2.10,MacIntel,60,61025ae37ef11b136ea224fe,,,,,,,,,2620,35.05859375,-78.0703125,1,0,0,response3disk,,4,11.5859375,6.52734375,1,0,0,rectangle,11.5859375,6.52734375,1,0,0,11.5859375,6.52734375,1,0,0,1,82,242,126,1,,,,,,,,
,,,,,,,,,,,,,FF,,,,,,,,0.8837,,,,,,,,,,,,,,,,,,,,,,61023e0830e893bec6bd8f3c,61037784f5b3fde2956648d5,2021-07-29_22h56.02.237,Simcolourproject_2stim_asymm_v5,2020.2.10,MacIntel,60,61025ae37ef11b136ea224fe,,,,,,,,,1063,-61.98828125,-33.69140625,1,0,0,response5disk,,2,-2.8671875,-7.453125,1,0,0,rectangle,-67.23828125,30.171875,1,0,0,-4.046875,-9.9921875,1,0,0,1,83,243,123,1,,response7disk_3,TRUE,1,1,"[296,57,73,288,270,121,135,107,244,74,201,86,264,271,271,76,82,38,214,0]",1.7159,rectangle
,,,,,,,,,,,,,FF,,,,,,,,1.6842,,,,,,,,,,,,,,,,,,,,,,61023e0830e893bec6bd8f3c,61037784f5b3fde2956648d5,2021-07-29_22h56.02.237,Simcolourproject_2stim_asymm_v5,2020.2.10,MacIntel,60,61025ae37ef11b136ea224fe,,,,,,,,,1261,-49.14453125,-82,1,0,0,response5disk,,3,6.0625,-1.40625,1,0,0,rectangle,6.0625,-1.40625,1,0,0,6.0625,-1.40625,1,0,0,1,84,244,61,1,,,,,,,,
,,,,,,,,,,,,,FF,,,,,,,,0.7662,,,,,,,,,,,,,,,,,,,,,,61023e0830e893bec6bd8f3c,61037784f5b3fde2956648d5,2021-07-29_22h56.02.237,Simcolourproject_2stim_asymm_v5,2020.2.10,MacIntel,60,61025ae37ef11b136ea224fe,,,,,,,,,701,-101.7929688,-70.80859375,1,0,0,response5disk,,2,-8.79296875,-8.2734375,1,0,0,rectangle,-8.79296875,-8.2734375,1,0,0,-8.79296875,-8.2734375,1,0,0,1,85,245,136,1,,,,,,,,
,,,,,,,,,,,,,FF,,,,,,,,0.8335,,,,,,,,,,,,,,,,,,,,,,61023e0830e893bec6bd8f3c,61037784f5b3fde2956648d5,2021-07-29_22h56.02.237,Simcolourproject_2stim_asymm_v5,2020.2.10,MacIntel,60,61025ae37ef11b136ea224fe,,,,,,,,,514,-41.859375,-85.953125,1,0,0,response5disk,,3,2.90625,4.34765625,1,0,0,rectangle,2.90625,4.34765625,1,0,0,2.90625,4.34765625,1,0,0,1,86,246,152,1,,,,,,,,
,,,,,,,,,,,,,FF,,,,,,,,1.4489,,,,,,,,,,,,,,,,,,,,,,61023e0830e893bec6bd8f3c,61037784f5b3fde2956648d5,2021-07-29_22h56.02.237,Simcolourproject_2stim_asymm_v5,2020.2.10,MacIntel,60,61025ae37ef11b136ea224fe,,,,,,,,,3138,-47.76171875,-81.08203125,1,0,0,response5disk,,3,-4.01953125,-9.34375,1,0,0,rectangle,-4.01953125,-9.34375,1,0,0,-4.01953125,-9.34375,1,0,0,1,87,247,131,1,,,,,,,,
,,,,,,,,,,,,,FF,,,,,,,,0.7351,,,,,,,,,,,,,,,,,,,,,,61023e0830e893bec6bd8f3c,61037784f5b3fde2956648d5,2021-07-29_22h56.02.237,Simcolourproject_2stim_asymm_v5,2020.2.10,MacIntel,60,61025ae37ef11b136ea224fe,,,,,,,,,3817,-87.0703125,-39.02734375,1,0,0,response5disk,,2,-16.19921875,-11.1171875,1,0,0,rectangle,-16.19921875,-11.1171875,1,0,0,-16.19921875,-11.1171875,1,0,0,1,88,248,138,1,,,,,,,,
,,,,,,,,,,,,,FF,,,,,,,,0.8507,,,,,,,,,,,,,,,,,,,,,,61023e0830e893bec6bd8f3c,61037784f5b3fde2956648d5,2021-07-29_22h56.02.237,Simcolourproject_2stim_asymm_v5,2020.2.10,MacIntel,60,61025ae37ef11b136ea224fe,,,,,,,,,619,-62.1796875,48.640625,1,0,0,response7disk,,1,-13.41015625,8.1796875,1,0,0,rectangle,-13.41015625,8.1796875,1,0,0,-13.41015625,8.1796875,1,0,0,1,89,249,107,1,,,,,,,,
