key_resp.keys,key_resp.rt,key_resp_14.keys,key_resp_14.rt,key_resp_15.keys,key_resp_15.rt,key_resp_17.keys,key_resp_17.rt,key_resp_9.keys,key_resp_9.rt,key_resp_10.keys,key_resp_10.rt,practice_comparison,Ecc,mouse_5.x,mouse_5.y,mouse_5.leftButton,mouse_5.midButton,mouse_5.rightButton,mouse_5.clicked_name,pracsimilarity,response_time,mouse_10.x,mouse_10.y,mouse_10.leftButton,mouse_10.midButton,mouse_10.rightButton,mouse_10.clicked_name,mouse_7.x,mouse_7.y,mouse_7.leftButton,mouse_7.midButton,mouse_7.rightButton,mouse_6.x,mouse_6.y,mouse_6.leftButton,mouse_6.midButton,mouse_6.rightButton,duringprac.thisRepN,duringprac.thisTrialN,duringprac.thisN,duringprac.thisIndex,duringprac.ran,participant,session,date,expName,psychopyVersion,OS,frameRate,study_id,mouse_7.clicked_name,catchpracsimilarity,catch_response_time,catchnumberprac,catchtrialorderprac,mouse_6.clicked_name,key_resp_22.keys,key_resp_22.rt,realcomparison,mouse.x,mouse.y,mouse.leftButton,mouse.midButton,mouse.rightButton,mouse.clicked_name,Colour2,similarity,mouse_2.x,mouse_2.y,mouse_2.leftButton,mouse_2.midButton,mouse_2.rightButton,mouse_2.clicked_name,mouse_3.x,mouse_3.y,mouse_3.leftButton,mouse_3.midButton,mouse_3.rightButton,mouse_11.x,mouse_11.y,mouse_11.leftButton,mouse_11.midButton,mouse_11.rightButton,trials_2.thisRepN,trials_2.thisTrialN,trials_2.thisN,trials_2.thisIndex,trials_2.ran,Colour1,mouse_3.clicked_name,catchornah,catchsimilarity,catchnumber,catchtrialorder,catchRT,mouse_11.clicked_name
space,1.2473,space,16.8414,space,22.5809,space,2.0468,space,0.607,space,2.2775,112,PF,52.00001222,97.59999502,1,0,0,response1disk_5,7,5.8746,20.80001175,1.599993587,1,0,0,rectangle_8,20.80001175,1.599993587,1,0,0,20.80001175,1.599993587,1,0,0,0,0,0,2,1,6102e390c456629247998554,61036f0b281811ea5cdbd8e3,2021-07-29_23h16.49.375,Simcolourproject_2stim_asymm_v5,2020.2.10,Win32,60,61025ae37ef11b136ea224fe,,,,,,,,,,,,,,,,,,,,,,,,,,,,,,,,,,,,,,,,,,,,,,
,,,,,,,,,,,,21,PF,48.00001216,106.3999951,1,0,0,response1disk_5,7,0.9657,3.200011492,3.19999361,1,0,0,rectangle_8,-60.79998946,-106.400008,1,0,0,5.600060356,-3.200006485,1,0,0,0,1,1,1,1,6102e390c456629247998554,61036f0b281811ea5cdbd8e3,2021-07-29_23h16.49.375,Simcolourproject_2stim_asymm_v5,2020.2.10,Win32,60,61025ae37ef11b136ea224fe,response5disk_7,3,2.1988,3,"[2,5]",rectangle_4,,,,,,,,,,,,,,,,,,,,,,,,,,,,,,,,,,,,,,,,
,,,,,,,,,,,,59,PF,38.40001202,-79.20000762,1,0,0,response3disk_5,4,2.2338,8.000011563,7.19999367,1,0,0,rectangle_8,8.000011563,7.19999367,1,0,0,8.000011563,7.19999367,1,0,0,0,2,2,4,1,6102e390c456629247998554,61036f0b281811ea5cdbd8e3,2021-07-29_23h16.49.375,Simcolourproject_2stim_asymm_v5,2020.2.10,Win32,60,61025ae37ef11b136ea224fe,,,,,,,,,,,,,,,,,,,,,,,,,,,,,,,,,,,,,,,,,,,,,,
,,,,,,,,,,,,26,FF,108.8000131,-20.00000674,1,0,0,response3disk_5,5,4.5161,-4.799988627,8.799993694,1,0,0,rectangle_8,-4.799988627,8.799993694,1,0,0,-4.799988627,8.799993694,1,0,0,0,3,3,5,1,6102e390c456629247998554,61036f0b281811ea5cdbd8e3,2021-07-29_23h16.49.375,Simcolourproject_2stim_asymm_v5,2020.2.10,Win32,60,61025ae37ef11b136ea224fe,,,,,,,,,,,,,,,,,,,,,,,,,,,,,,,,,,,,,,,,,,,,,,
,,,,,,,,,,,,160,FF,71.20001251,107.1999707,1,0,0,response1disk_5,7,2.4987,1.14441E-05,-1.600006461,1,0,0,rectangle_8,-33.59998906,-104.800008,1,0,0,17.60006053,2.399993598,1,0,0,0,4,4,3,1,6102e390c456629247998554,61036f0b281811ea5cdbd8e3,2021-07-29_23h16.49.375,Simcolourproject_2stim_asymm_v5,2020.2.10,Win32,60,61025ae37ef11b136ea224fe,response5disk_7,3,2.0995,3,"[2,5]",rectangle_4,,,,,,,,,,,,,,,,,,,,,,,,,,,,,,,,,,,,,,,,
,,,,,,,,,,,,19,PF,47.20001215,-80.80000764,1,0,0,response3disk_5,4,2.083,-3.999988616,13.59999377,1,0,0,rectangle_8,-3.999988616,13.59999377,1,0,0,-3.999988616,13.59999377,1,0,0,0,5,5,6,1,6102e390c456629247998554,61036f0b281811ea5cdbd8e3,2021-07-29_23h16.49.375,Simcolourproject_2stim_asymm_v5,2020.2.10,Win32,60,61025ae37ef11b136ea224fe,,,,,,,,,,,,,,,,,,,,,,,,,,,,,,,,,,,,,,,,,,,,,,
,,,,,,,,,,,,20,FF,-81.59998977,-38.40000701,1,0,0,response5disk_5,2,1.2659,-6.399939823,-2.400006473,1,0,0,rectangle_8,-6.399939823,-2.400006473,1,0,0,-6.399939823,-2.400006473,1,0,0,0,6,6,0,1,6102e390c456629247998554,61036f0b281811ea5cdbd8e3,2021-07-29_23h16.49.375,Simcolourproject_2stim_asymm_v5,2020.2.10,Win32,60,61025ae37ef11b136ea224fe,,,,,,,,,,,,,,,,,,,,,,,,,,,,,,,,,,,,,,,,,,,,,,
,,,,,,,,,,,,,FF,,,,,,,,1.6996,,,,,,,,,,,,,,,,,,,,,,6102e390c456629247998554,61036f0b281811ea5cdbd8e3,2021-07-29_23h16.49.375,Simcolourproject_2stim_asymm_v5,2020.2.10,Win32,60,61025ae37ef11b136ea224fe,,,,,,,space,2.0981,2224,105.600013,-41.60000706,1,0,0,response3disk,,5,-1.59998858,-3.200006485,1,0,0,rectangle,-1.59998858,-3.200006485,1,0,0,-1.59998858,-3.200006485,1,0,0,0,0,0,97,1,,,,,,,,
,,,,,,,,,,,,,FF,,,,,,,,1.4326,,,,,,,,,,,,,,,,,,,,,,6102e390c456629247998554,61036f0b281811ea5cdbd8e3,2021-07-29_23h16.49.375,Simcolourproject_2stim_asymm_v5,2020.2.10,Win32,60,61025ae37ef11b136ea224fe,,,,,,,,,3484,-28.79998899,-91.2000078,1,0,0,response5disk,,3,24.80001181,7.19999367,1,0,0,rectangle,24.80001181,7.19999367,1,0,0,24.80001181,7.19999367,1,0,0,0,1,1,129,1,,,,,,,,
,,,,,,,,,,,,,FF,,,,,,,,0.9492,,,,,,,,,,,,,,,,,,,,,,6102e390c456629247998554,61036f0b281811ea5cdbd8e3,2021-07-29_23h16.49.375,Simcolourproject_2stim_asymm_v5,2020.2.10,Win32,60,61025ae37ef11b136ea224fe,,,,,,,,,800,80.00001264,107.9999952,1,0,0,response1disk,,7,12.80001163,7.19999367,1,0,0,rectangle,12.80001163,7.19999367,1,0,0,12.80001163,7.19999367,1,0,0,0,2,2,64,1,,,,,,,,
,,,,,,,,,,,,,FF,,,,,,,,0.8999,,,,,,,,,,,,,,,,,,,,,,6102e390c456629247998554,61036f0b281811ea5cdbd8e3,2021-07-29_23h16.49.375,Simcolourproject_2stim_asymm_v5,2020.2.10,Win32,60,61025ae37ef11b136ea224fe,,,,,,,,,529,-31.99998903,-80.00000763,1,0,0,response5disk,,3,13.60006047,16.79999381,1,0,0,rectangle,13.60006047,16.79999381,1,0,0,13.60006047,16.79999381,1,0,0,0,3,3,38,1,,,,,,,,
,,,,,,,,,,,,,FF,,,,,,,,1.7321,,,,,,,,,,,,,,,,,,,,,,6102e390c456629247998554,61036f0b281811ea5cdbd8e3,2021-07-29_23h16.49.375,Simcolourproject_2stim_asymm_v5,2020.2.10,Win32,60,61025ae37ef11b136ea224fe,,,,,,,,,2202,86.40001273,30.39999402,1,0,0,response1disk,,6,8.800011575,-1.600006461,1,0,0,rectangle,8.800011575,-1.600006461,1,0,0,8.800011575,-1.600006461,1,0,0,0,4,4,105,1,,,,,,,,
,,,,,,,,,,,,,FF,,,,,,,,1.716,,,,,,,,,,,,,,,,,,,,,,6102e390c456629247998554,61036f0b281811ea5cdbd8e3,2021-07-29_23h16.49.375,Simcolourproject_2stim_asymm_v5,2020.2.10,Win32,60,61025ae37ef11b136ea224fe,,,,,,,,,1888,-57.59998941,-84.00000769,1,0,0,response5disk,,3,7.200011551,7.19999367,1,0,0,rectangle,-102.3999413,44.79999423,1,0,0,-6.399939823,4.799993634,1,0,0,0,5,5,35,1,,response7disk_3,TRUE,1,1,"[161,43,11,239,44,6,40,103,192,25,47,57,161,285,19,246,185,58,300,178]",1.5155,rectangle
,,,,,,,,,,,,,FF,,,,,,,,0.8989,,,,,,,,,,,,,,,,,,,,,,6102e390c456629247998554,61036f0b281811ea5cdbd8e3,2021-07-29_23h16.49.375,Simcolourproject_2stim_asymm_v5,2020.2.10,Win32,60,61025ae37ef11b136ea224fe,,,,,,,,,774,94.40001285,-57.6000073,1,0,0,response3disk,,5,-17.59998882,-3.200006485,1,0,0,rectangle,-17.59998882,-3.200006485,1,0,0,-17.59998882,-3.200006485,1,0,0,0,6,6,59,1,,,,,,,,
,,,,,,,,,,,,,FF,,,,,,,,0.7825,,,,,,,,,,,,,,,,,,,,,,6102e390c456629247998554,61036f0b281811ea5cdbd8e3,2021-07-29_23h16.49.375,Simcolourproject_2stim_asymm_v5,2020.2.10,Win32,60,61025ae37ef11b136ea224fe,,,,,,,,,2357,-31.19998902,-96.80000788,1,0,0,response5disk,,3,9.600060415,10.39999372,1,0,0,rectangle,9.600060415,10.39999372,1,0,0,9.600060415,10.39999372,1,0,0,0,7,7,32,1,,,,,,,,
,,,,,,,,,,,,,FF,,,,,,,,0.8991,,,,,,,,,,,,,,,,,,,,,,6102e390c456629247998554,61036f0b281811ea5cdbd8e3,2021-07-29_23h16.49.375,Simcolourproject_2stim_asymm_v5,2020.2.10,Win32,60,61025ae37ef11b136ea224fe,,,,,,,,,1966,-31.99998903,-90.40000778,1,0,0,response5disk,,3,-3.999988616,0.799993575,1,0,0,rectangle,-3.999988616,0.799993575,1,0,0,-3.999988616,0.799993575,1,0,0,0,8,8,26,1,,,,,,,,
,,,,,,,,,,,,,FF,,,,,,,,1.6834,,,,,,,,,,,,,,,,,,,,,,6102e390c456629247998554,61036f0b281811ea5cdbd8e3,2021-07-29_23h16.49.375,Simcolourproject_2stim_asymm_v5,2020.2.10,Win32,60,61025ae37ef11b136ea224fe,,,,,,,,,2529,100.0000129,27.99999398,1,0,0,response1disk,,6,3.200011492,-6.4373E-06,1,0,0,rectangle,3.200011492,-6.4373E-06,1,0,0,3.200011492,-6.4373E-06,1,0,0,0,9,9,66,1,,,,,,,,
,,,,,,,,,,,,,FF,,,,,,,,0.6496,,,,,,,,,,,,,,,,,,,,,,6102e390c456629247998554,61036f0b281811ea5cdbd8e3,2021-07-29_23h16.49.375,Simcolourproject_2stim_asymm_v5,2020.2.10,Win32,60,61025ae37ef11b136ea224fe,,,,,,,,,2393,68.00001246,-37.600007,1,0,0,response3disk,,5,5.600060356,15.9999938,1,0,0,rectangle,36.80001199,95.19997057,1,0,0,-5.599988639,-3.200006485,1,0,0,0,10,10,156,1,,response1disk_3,TRUE,7,7,"[161,43,11,239,44,6,40,103,192,25,47,57,161,285,19,246,185,58,300,178]",1.5325,rectangle
,,,,,,,,,,,,,FF,,,,,,,,1.3003,,,,,,,,,,,,,,,,,,,,,,6102e390c456629247998554,61036f0b281811ea5cdbd8e3,2021-07-29_23h16.49.375,Simcolourproject_2stim_asymm_v5,2020.2.10,Win32,60,61025ae37ef11b136ea224fe,,,,,,,,,1194,40.00001204,-95.20000786,1,0,0,response3disk,,4,1.14441E-05,-15.20000666,1,0,0,rectangle,1.14441E-05,-15.20000666,1,0,0,1.14441E-05,-15.20000666,1,0,0,0,11,11,106,1,,,,,,,,
,,,,,,,,,,,,,FF,,,,,,,,0.8842,,,,,,,,,,,,,,,,,,,,,,6102e390c456629247998554,61036f0b281811ea5cdbd8e3,2021-07-29_23h16.49.375,Simcolourproject_2stim_asymm_v5,2020.2.10,Win32,60,61025ae37ef11b136ea224fe,,,,,,,,,109,87.20001274,-52.00000721,1,0,0,response3disk,,5,-7.199988663,11.19999373,1,0,0,rectangle,-7.199988663,11.19999373,1,0,0,-7.199988663,11.19999373,1,0,0,0,12,12,21,1,,,,,,,,
,,,,,,,,,,,,,FF,,,,,,,,1.0164,,,,,,,,,,,,,,,,,,,,,,6102e390c456629247998554,61036f0b281811ea5cdbd8e3,2021-07-29_23h16.49.375,Simcolourproject_2stim_asymm_v5,2020.2.10,Win32,60,61025ae37ef11b136ea224fe,,,,,,,,,3965,-50.39994048,87.19997045,1,0,0,response7disk,,0,3.200011492,5.599993646,1,0,0,rectangle,3.200011492,5.599993646,1,0,0,3.200011492,5.599993646,1,0,0,0,13,13,126,1,,,,,,,,
,,,,,,,,,,,,,FF,,,,,,,,0.9664,,,,,,,,,,,,,,,,,,,,,,6102e390c456629247998554,61036f0b281811ea5cdbd8e3,2021-07-29_23h16.49.375,Simcolourproject_2stim_asymm_v5,2020.2.10,Win32,60,61025ae37ef11b136ea224fe,,,,,,,,,2036,-56.7999894,-65.60000741,1,0,0,response5disk,,3,-11.99998873,4.799993634,1,0,0,rectangle,-11.99998873,4.799993634,1,0,0,-11.99998873,4.799993634,1,0,0,0,14,14,17,1,,,,,,,,
,,,,,,,,,,,,,FF,,,,,,,,0.7492,,,,,,,,,,,,,,,,,,,,,,6102e390c456629247998554,61036f0b281811ea5cdbd8e3,2021-07-29_23h16.49.375,Simcolourproject_2stim_asymm_v5,2020.2.10,Win32,60,61025ae37ef11b136ea224fe,,,,,,,,,4204,-57.59998941,-86.40000772,1,0,0,response5disk,,3,-11.19998872,-8.000006557,1,0,0,rectangle,-11.19998872,-8.000006557,1,0,0,-11.19998872,-8.000006557,1,0,0,0,15,15,45,1,,,,,,,,
,,,,,,,,,,,,,FF,,,,,,,,0.7832,,,,,,,,,,,,,,,,,,,,,,6102e390c456629247998554,61036f0b281811ea5cdbd8e3,2021-07-29_23h16.49.375,Simcolourproject_2stim_asymm_v5,2020.2.10,Win32,60,61025ae37ef11b136ea224fe,,,,,,,,,447,114.4000131,-40.00000703,1,0,0,response3disk,,5,3.200011492,3.19999361,1,0,0,rectangle,3.200011492,3.19999361,1,0,0,3.200011492,3.19999361,1,0,0,0,16,16,12,1,,,,,,,,
,,,,,,,,,,,,,FF,,,,,,,,0.6157,,,,,,,,,,,,,,,,,,,,,,6102e390c456629247998554,61036f0b281811ea5cdbd8e3,2021-07-29_23h16.49.375,Simcolourproject_2stim_asymm_v5,2020.2.10,Win32,60,61025ae37ef11b136ea224fe,,,,,,,,,3886,115.2000132,-46.40000713,1,0,0,response3disk,,5,3.200011492,11.19999373,1,0,0,rectangle,3.200011492,11.19999373,1,0,0,3.200011492,11.19999373,1,0,0,0,17,17,70,1,,,,,,,,
,,,,,,,,,,,,,FF,,,,,,,,0.4827,,,,,,,,,,,,,,,,,,,,,,6102e390c456629247998554,61036f0b281811ea5cdbd8e3,2021-07-29_23h16.49.375,Simcolourproject_2stim_asymm_v5,2020.2.10,Win32,60,61025ae37ef11b136ea224fe,,,,,,,,,1946,72.80001253,39.19996973,1,0,0,response1disk,,6,-21.59998888,-5.600006521,1,0,0,rectangle,68.80001247,33.59999406,1,0,0,-4.799988627,-12.00000662,1,0,0,0,18,18,152,1,,response1disk_3,TRUE,6,6,"[161,43,11,239,44,6,40,103,192,25,47,57,161,285,19,246,185,58,300,178]",1.3497,rectangle
,,,,,,,,,,,,,FF,,,,,,,,0.6495,,,,,,,,,,,,,,,,,,,,,,6102e390c456629247998554,61036f0b281811ea5cdbd8e3,2021-07-29_23h16.49.375,Simcolourproject_2stim_asymm_v5,2020.2.10,Win32,60,61025ae37ef11b136ea224fe,,,,,,,,,3345,82.40001267,36.79999411,1,0,0,response1disk,,6,22.40001178,-3.200006485,1,0,0,rectangle,22.40001178,-3.200006485,1,0,0,22.40001178,-3.200006485,1,0,0,0,19,19,100,1,,,,,,,,
,,,,,,,,,,,,,FF,,,,,,,,0.8322,,,,,,,,,,,,,,,,,,,,,,6102e390c456629247998554,61036f0b281811ea5cdbd8e3,2021-07-29_23h16.49.375,Simcolourproject_2stim_asymm_v5,2020.2.10,Win32,60,61025ae37ef11b136ea224fe,,,,,,,,,367,-42.39994036,-92.80000782,1,0,0,response5disk,,3,-4.799988627,-8.000006557,1,0,0,rectangle,-4.799988627,-8.000006557,1,0,0,-4.799988627,-8.000006557,1,0,0,0,20,20,54,1,,,,,,,,
,,,,,,,,,,,,,FF,,,,,,,,0.566,,,,,,,,,,,,,,,,,,,,,,6102e390c456629247998554,61036f0b281811ea5cdbd8e3,2021-07-29_23h16.49.375,Simcolourproject_2stim_asymm_v5,2020.2.10,Win32,60,61025ae37ef11b136ea224fe,,,,,,,,,3739,76.80001259,33.59999406,1,0,0,response1disk,,6,14.40001166,1.599993587,1,0,0,rectangle,14.40001166,1.599993587,1,0,0,14.40001166,1.599993587,1,0,0,0,21,21,58,1,,,,,,,,
,,,,,,,,,,,,,FF,,,,,,,,0.8169,,,,,,,,,,,,,,,,,,,,,,6102e390c456629247998554,61036f0b281811ea5cdbd8e3,2021-07-29_23h16.49.375,Simcolourproject_2stim_asymm_v5,2020.2.10,Win32,60,61025ae37ef11b136ea224fe,,,,,,,,,1423,118.4000132,42.39999419,1,0,0,response1disk,,6,-7.199988663,3.999993622,1,0,0,rectangle,-7.199988663,3.999993622,1,0,0,-7.199988663,3.999993622,1,0,0,0,22,22,84,1,,,,,,,,
,,,,,,,,,,,,,FF,,,,,,,,2.0157,,,,,,,,,,,,,,,,,,,,,,6102e390c456629247998554,61036f0b281811ea5cdbd8e3,2021-07-29_23h16.49.375,Simcolourproject_2stim_asymm_v5,2020.2.10,Win32,60,61025ae37ef11b136ea224fe,,,,,,,,,3463,87.20001274,-54.40000725,1,0,0,response3disk,,5,-4.799988627,7.19999367,1,0,0,rectangle,-4.799988627,7.19999367,1,0,0,-4.799988627,7.19999367,1,0,0,0,23,23,117,1,,,,,,,,
,,,,,,,,,,,,,FF,,,,,,,,0.8992,,,,,,,,,,,,,,,,,,,,,,6102e390c456629247998554,61036f0b281811ea5cdbd8e3,2021-07-29_23h16.49.375,Simcolourproject_2stim_asymm_v5,2020.2.10,Win32,60,61025ae37ef11b136ea224fe,,,,,,,,,1657,68.00001246,81.59999478,1,0,0,response1disk,,7,18.40001172,7.19999367,1,0,0,rectangle,55.20001227,-110.4000081,1,0,0,-0.799988568,-1.600006461,1,0,0,0,24,24,116,1,,response3disk_3,TRUE,4,4,"[161,43,11,239,44,6,40,103,192,25,47,57,161,285,19,246,185,58,300,178]",1.882,rectangle
,,,,,,,,,,,,,FF,,,,,,,,1.3665,,,,,,,,,,,,,,,,,,,,,,6102e390c456629247998554,61036f0b281811ea5cdbd8e3,2021-07-29_23h16.49.375,Simcolourproject_2stim_asymm_v5,2020.2.10,Win32,60,61025ae37ef11b136ea224fe,,,,,,,,,1376,52.80001223,-82.40000767,1,0,0,response3disk,,4,-4.799988627,10.39999372,1,0,0,rectangle,-4.799988627,10.39999372,1,0,0,-4.799988627,10.39999372,1,0,0,0,25,25,96,1,,,,,,,,
,,,,,,,,,,,,,FF,,,,,,,,0.6825,,,,,,,,,,,,,,,,,,,,,,6102e390c456629247998554,61036f0b281811ea5cdbd8e3,2021-07-29_23h16.49.375,Simcolourproject_2stim_asymm_v5,2020.2.10,Win32,60,61025ae37ef11b136ea224fe,,,,,,,,,1642,50.4000122,110.3999952,1,0,0,response1disk,,7,1.600060296,-1.600006461,1,0,0,rectangle,1.600060296,-1.600006461,1,0,0,1.600060296,-1.600006461,1,0,0,0,26,26,130,1,,,,,,,,
,,,,,,,,,,,,,FF,,,,,,,,0.6161,,,,,,,,,,,,,,,,,,,,,,6102e390c456629247998554,61036f0b281811ea5cdbd8e3,2021-07-29_23h16.49.375,Simcolourproject_2stim_asymm_v5,2020.2.10,Win32,60,61025ae37ef11b136ea224fe,,,,,,,,,2870,76.00001258,22.3999939,1,0,0,response1disk,,6,-0.799988568,-0.800006449,1,0,0,rectangle,-0.799988568,-0.800006449,1,0,0,-0.799988568,-0.800006449,1,0,0,0,27,27,22,1,,,,,,,,
,,,,,,,,,,,,,FF,,,,,,,,0.9997,,,,,,,,,,,,,,,,,,,,,,6102e390c456629247998554,61036f0b281811ea5cdbd8e3,2021-07-29_23h16.49.375,Simcolourproject_2stim_asymm_v5,2020.2.10,Win32,60,61025ae37ef11b136ea224fe,,,,,,,,,872,84.0000127,-52.00000721,1,0,0,response3disk,,5,-11.99998873,2.399993598,1,0,0,rectangle,-11.99998873,2.399993598,1,0,0,-11.99998873,2.399993598,1,0,0,0,28,28,124,1,,,,,,,,
,,,,,,,,,,,,,FF,,,,,,,,0.9825,,,,,,,,,,,,,,,,,,,,,,6102e390c456629247998554,61036f0b281811ea5cdbd8e3,2021-07-29_23h16.49.375,Simcolourproject_2stim_asymm_v5,2020.2.10,Win32,60,61025ae37ef11b136ea224fe,,,,,,,,,2177,69.60001248,32.79999405,1,0,0,response1disk,,6,0.800011456,0.799993575,1,0,0,rectangle,0.800011456,0.799993575,1,0,0,0.800011456,0.799993575,1,0,0,0,29,29,82,1,,,,,,,,
,,,,,,,,,,,,,FF,,,,,,,,0.6827,,,,,,,,,,,,,,,,,,,,,,6102e390c456629247998554,61036f0b281811ea5cdbd8e3,2021-07-29_23h16.49.375,Simcolourproject_2stim_asymm_v5,2020.2.10,Win32,60,61025ae37ef11b136ea224fe,,,,,,,,,1839,97.6000129,39.19996973,1,0,0,response1disk,,6,17.60006053,15.9999938,1,0,0,rectangle,17.60006053,15.9999938,1,0,0,17.60006053,15.9999938,1,0,0,0,30,30,83,1,,,,,,,,
,,,,,,,,,,,,,FF,,,,,,,,0.7333,,,,,,,,,,,,,,,,,,,,,,6102e390c456629247998554,61036f0b281811ea5cdbd8e3,2021-07-29_23h16.49.375,Simcolourproject_2stim_asymm_v5,2020.2.10,Win32,60,61025ae37ef11b136ea224fe,,,,,,,,,2121,36.00001198,53.59999436,1,0,0,response1disk,,7,6.400011539,0.799993575,1,0,0,rectangle,6.400011539,0.799993575,1,0,0,6.400011539,0.799993575,1,0,0,0,31,31,142,1,,,,,,,,
,,,,,,,,,,,,,FF,,,,,,,,0.3991,,,,,,,,,,,,,,,,,,,,,,6102e390c456629247998554,61036f0b281811ea5cdbd8e3,2021-07-29_23h16.49.375,Simcolourproject_2stim_asymm_v5,2020.2.10,Win32,60,61025ae37ef11b136ea224fe,,,,,,,,,114,25.60006065,66.39999455,1,0,0,response1disk,,7,1.14441E-05,5.599993646,1,0,0,rectangle,1.14441E-05,5.599993646,1,0,0,1.14441E-05,5.599993646,1,0,0,0,32,32,37,1,,,,,,,,
,,,,,,,,,,,,,FF,,,,,,,,0.316,,,,,,,,,,,,,,,,,,,,,,6102e390c456629247998554,61036f0b281811ea5cdbd8e3,2021-07-29_23h16.49.375,Simcolourproject_2stim_asymm_v5,2020.2.10,Win32,60,61025ae37ef11b136ea224fe,,,,,,,,,1763,31.20001191,74.39999467,1,0,0,response1disk,,7,-13.59998876,-9.60000658,1,0,0,rectangle,-13.59998876,-9.60000658,1,0,0,-13.59998876,-9.60000658,1,0,0,0,33,33,118,1,,,,,,,,
,,,,,,,,,,,,,FF,,,,,,,,0.4164,,,,,,,,,,,,,,,,,,,,,,6102e390c456629247998554,61036f0b281811ea5cdbd8e3,2021-07-29_23h16.49.375,Simcolourproject_2stim_asymm_v5,2020.2.10,Win32,60,61025ae37ef11b136ea224fe,,,,,,,,,1694,28.80001187,63.19997009,1,0,0,response1disk,,7,18.40001172,7.999993682,1,0,0,rectangle,18.40001172,7.999993682,1,0,0,18.40001172,7.999993682,1,0,0,0,34,34,113,1,,,,,,,,
,,,,,,,,,,,,,FF,,,,,,,,0.4337,,,,,,,,,,,,,,,,,,,,,,6102e390c456629247998554,61036f0b281811ea5cdbd8e3,2021-07-29_23h16.49.375,Simcolourproject_2stim_asymm_v5,2020.2.10,Win32,60,61025ae37ef11b136ea224fe,,,,,,,,,1914,40.00001204,62.39999449,1,0,0,response1disk,,7,28.00001186,12.79999375,1,0,0,rectangle,28.00001186,12.79999375,1,0,0,28.00001186,12.79999375,1,0,0,0,35,35,148,1,,,,,,,,
,,,,,,,,,,,,,FF,,,,,,,,0.6167,,,,,,,,,,,,,,,,,,,,,,6102e390c456629247998554,61036f0b281811ea5cdbd8e3,2021-07-29_23h16.49.375,Simcolourproject_2stim_asymm_v5,2020.2.10,Win32,60,61025ae37ef11b136ea224fe,,,,,,,,,2139,80.80001265,24.79999393,1,0,0,response1disk,,6,23.20001179,7.999993682,1,0,0,rectangle,23.20001179,7.999993682,1,0,0,23.20001179,7.999993682,1,0,0,0,36,36,28,1,,,,,,,,
,,,,,,,,,,,,,FF,,,,,,,,0.6167,,,,,,,,,,,,,,,,,,,,,,6102e390c456629247998554,61036f0b281811ea5cdbd8e3,2021-07-29_23h16.49.375,Simcolourproject_2stim_asymm_v5,2020.2.10,Win32,60,61025ae37ef11b136ea224fe,,,,,,,,,3601,36.00001198,49.5999943,1,0,0,response1disk,,7,18.40001172,1.599993587,1,0,0,rectangle,18.40001172,1.599993587,1,0,0,18.40001172,1.599993587,1,0,0,0,37,37,110,1,,,,,,,,
,,,,,,,,,,,,,FF,,,,,,,,0.7827,,,,,,,,,,,,,,,,,,,,,,6102e390c456629247998554,61036f0b281811ea5cdbd8e3,2021-07-29_23h16.49.375,Simcolourproject_2stim_asymm_v5,2020.2.10,Win32,60,61025ae37ef11b136ea224fe,,,,,,,,,1674,24.80001181,-96.00000787,1,0,0,response3disk,,4,8.800011575,0.799993575,1,0,0,rectangle,8.800011575,0.799993575,1,0,0,8.800011575,0.799993575,1,0,0,0,38,38,57,1,,,,,,,,
,,,,,,,,,,,,,FF,,,,,,,,1.3667,,,,,,,,,,,,,,,,,,,,,,6102e390c456629247998554,61036f0b281811ea5cdbd8e3,2021-07-29_23h16.49.375,Simcolourproject_2stim_asymm_v5,2020.2.10,Win32,60,61025ae37ef11b136ea224fe,,,,,,,,,2640,69.60001248,65.59999454,1,0,0,response1disk,,6,11.20001161,-7.200006545,1,0,0,rectangle,-96.79999,49.5999943,1,0,0,16.00001168,-8.800006568,1,0,0,0,39,39,155,1,,response7disk_3,TRUE,1,1,"[161,43,11,239,44,6,40,103,192,25,47,57,161,285,19,246,185,58,300,178]",1.2821,rectangle
,,,,,,,,,,,,,FF,,,,,,,,0.7994,,,,,,,,,,,,,,,,,,,,,,6102e390c456629247998554,61036f0b281811ea5cdbd8e3,2021-07-29_23h16.49.375,Simcolourproject_2stim_asymm_v5,2020.2.10,Win32,60,61025ae37ef11b136ea224fe,,,,,,,,,3474,-26.39994012,-88.00000775,1,0,0,response5disk,,3,-1.59998858,13.59999377,1,0,0,rectangle,-1.59998858,13.59999377,1,0,0,-1.59998858,13.59999377,1,0,0,0,40,40,140,1,,,,,,,,
,,,,,,,,,,,,,FF,,,,,,,,0.4658,,,,,,,,,,,,,,,,,,,,,,6102e390c456629247998554,61036f0b281811ea5cdbd8e3,2021-07-29_23h16.49.375,Simcolourproject_2stim_asymm_v5,2020.2.10,Win32,60,61025ae37ef11b136ea224fe,,,,,,,,,2227,-35.99998909,-76.00000757,1,0,0,response5disk,,3,4.000011504,-6.400006533,1,0,0,rectangle,4.000011504,-6.400006533,1,0,0,4.000011504,-6.400006533,1,0,0,0,41,41,154,1,,,,,,,,
,,,,,,,,,,,,,FF,,,,,,,,0.5329,,,,,,,,,,,,,,,,,,,,,,6102e390c456629247998554,61036f0b281811ea5cdbd8e3,2021-07-29_23h16.49.375,Simcolourproject_2stim_asymm_v5,2020.2.10,Win32,60,61025ae37ef11b136ea224fe,,,,,,,,,2725,-23.1999889,-45.60000712,1,0,0,response5disk,,3,7.200011551,8.799993694,1,0,0,rectangle,47.20001215,97.59999502,1,0,0,11.20001161,-4.000006497,1,0,0,0,42,42,149,1,,response1disk_3,TRUE,7,7,"[161,43,11,239,44,6,40,103,192,25,47,57,161,285,19,246,185,58,300,178]",1.0497,rectangle
,,,,,,,,,,,,,FF,,,,,,,,0.6492,,,,,,,,,,,,,,,,,,,,,,6102e390c456629247998554,61036f0b281811ea5cdbd8e3,2021-07-29_23h16.49.375,Simcolourproject_2stim_asymm_v5,2020.2.10,Win32,60,61025ae37ef11b136ea224fe,,,,,,,,,1008,92.80001283,-39.20000702,1,0,0,response3disk,,5,4.000011504,7.999993682,1,0,0,rectangle,31.20001191,74.39999467,1,0,0,5.600060356,-4.000006497,1,0,0,0,43,43,102,1,,response1disk_3,TRUE,7,7,"[161,43,11,239,44,6,40,103,192,25,47,57,161,285,19,246,185,58,300,178]",2.0162,rectangle
,,,,,,,,,,,,,FF,,,,,,,,0.9834,,,,,,,,,,,,,,,,,,,,,,6102e390c456629247998554,61036f0b281811ea5cdbd8e3,2021-07-29_23h16.49.375,Simcolourproject_2stim_asymm_v5,2020.2.10,Win32,60,61025ae37ef11b136ea224fe,,,,,,,,,3877,32.00001192,-81.60005648,1,0,0,response3disk,,4,-7.199988663,2.399993598,1,0,0,rectangle,-7.199988663,2.399993598,1,0,0,-7.199988663,2.399993598,1,0,0,0,44,44,91,1,,,,,,,,
,,,,,,,,,,,,,FF,,,,,,,,2.1491,,,,,,,,,,,,,,,,,,,,,,6102e390c456629247998554,61036f0b281811ea5cdbd8e3,2021-07-29_23h16.49.375,Simcolourproject_2stim_asymm_v5,2020.2.10,Win32,60,61025ae37ef11b136ea224fe,,,,,,,,,4310,34.40001196,94.39999497,1,0,0,response1disk,,7,18.40001172,-0.800006449,1,0,0,rectangle,18.40001172,-0.800006449,1,0,0,18.40001172,-0.800006449,1,0,0,0,45,45,4,1,,,,,,,,
,,,,,,,,,,,,,FF,,,,,,,,0.6502,,,,,,,,,,,,,,,,,,,,,,6102e390c456629247998554,61036f0b281811ea5cdbd8e3,2021-07-29_23h16.49.375,Simcolourproject_2stim_asymm_v5,2020.2.10,Win32,60,61025ae37ef11b136ea224fe,,,,,,,,,401,101.600013,-60.00000733,1,0,0,response3disk,,5,1.600060296,4.799993634,1,0,0,rectangle,67.20001245,-111.2000081,1,0,0,5.600060356,-3.200006485,1,0,0,0,46,46,69,1,,response3disk_3,TRUE,4,4,"[161,43,11,239,44,6,40,103,192,25,47,57,161,285,19,246,185,58,300,178]",1.4991,rectangle
,,,,,,,,,,,,,FF,,,,,,,,0.6493,,,,,,,,,,,,,,,,,,,,,,6102e390c456629247998554,61036f0b281811ea5cdbd8e3,2021-07-29_23h16.49.375,Simcolourproject_2stim_asymm_v5,2020.2.10,Win32,60,61025ae37ef11b136ea224fe,,,,,,,,,3795,74.40001255,-33.60000694,1,0,0,response3disk,,5,35.20001197,-4.000006497,1,0,0,rectangle,35.20001197,-4.000006497,1,0,0,35.20001197,-4.000006497,1,0,0,0,47,47,3,1,,,,,,,,
,,,,,,,,,,,,,FF,,,,,,,,0.7993,,,,,,,,,,,,,,,,,,,,,,6102e390c456629247998554,61036f0b281811ea5cdbd8e3,2021-07-29_23h16.49.375,Simcolourproject_2stim_asymm_v5,2020.2.10,Win32,60,61025ae37ef11b136ea224fe,,,,,,,,,4091,88.80001277,-56.80000728,1,0,0,response3disk,,5,-6.399939823,2.399993598,1,0,0,rectangle,-6.399939823,2.399993598,1,0,0,-6.399939823,2.399993598,1,0,0,0,48,48,15,1,,,,,,,,
,,,,,,,,,,,,,FF,,,,,,,,0.7657,,,,,,,,,,,,,,,,,,,,,,6102e390c456629247998554,61036f0b281811ea5cdbd8e3,2021-07-29_23h16.49.375,Simcolourproject_2stim_asymm_v5,2020.2.10,Win32,60,61025ae37ef11b136ea224fe,,,,,,,,,579,37.60006083,107.9999952,1,0,0,response1disk,,7,0.800011456,7.999993682,1,0,0,rectangle,0.800011456,7.999993682,1,0,0,0.800011456,7.999993682,1,0,0,0,49,49,6,1,,,,,,,,
,,,,,,,,,,,,,FF,,,,,,,,0.366,,,,,,,,,,,,,,,,,,,,,,6102e390c456629247998554,61036f0b281811ea5cdbd8e3,2021-07-29_23h16.49.375,Simcolourproject_2stim_asymm_v5,2020.2.10,Win32,60,61025ae37ef11b136ea224fe,,,,,,,,,1185,37.60006083,82.39999479,1,0,0,response1disk,,7,-3.199988604,11.19999373,1,0,0,rectangle,-3.199988604,11.19999373,1,0,0,-3.199988604,11.19999373,1,0,0,0,50,50,34,1,,,,,,,,
,,,,,,,,,,,,,FF,,,,,,,,0.9822,,,,,,,,,,,,,,,,,,,,,,6102e390c456629247998554,61036f0b281811ea5cdbd8e3,2021-07-29_23h16.49.375,Simcolourproject_2stim_asymm_v5,2020.2.10,Win32,60,61025ae37ef11b136ea224fe,,,,,,,,,4354,44.0000121,-72.80000752,1,0,0,response3disk,,4,-8.799988687,3.999993622,1,0,0,rectangle,-8.799988687,3.999993622,1,0,0,-8.799988687,3.999993622,1,0,0,0,51,51,19,1,,,,,,,,
,,,,,,,,,,,,,FF,,,,,,,,0.616,,,,,,,,,,,,,,,,,,,,,,6102e390c456629247998554,61036f0b281811ea5cdbd8e3,2021-07-29_23h16.49.375,Simcolourproject_2stim_asymm_v5,2020.2.10,Win32,60,61025ae37ef11b136ea224fe,,,,,,,,,3901,30.4000119,-59.20000732,1,0,0,response3disk,,4,0.800011456,12.79999375,1,0,0,rectangle,0.800011456,12.79999375,1,0,0,0.800011456,12.79999375,1,0,0,0,52,52,153,1,,,,,,,,
,,,,,,,,,,,,,FF,,,,,,,,0.5992,,,,,,,,,,,,,,,,,,,,,,6102e390c456629247998554,61036f0b281811ea5cdbd8e3,2021-07-29_23h16.49.375,Simcolourproject_2stim_asymm_v5,2020.2.10,Win32,60,61025ae37ef11b136ea224fe,,,,,,,,,2208,55.20001227,79.19997033,1,0,0,response1disk,,7,22.40001178,8.799993694,1,0,0,rectangle,22.40001178,8.799993694,1,0,0,22.40001178,8.799993694,1,0,0,0,53,53,72,1,,,,,,,,
,,,,,,,,,,,,,FF,,,,,,,,0.8995,,,,,,,,,,,,,,,,,,,,,,6102e390c456629247998554,61036f0b281811ea5cdbd8e3,2021-07-29_23h16.49.375,Simcolourproject_2stim_asymm_v5,2020.2.10,Win32,60,61025ae37ef11b136ea224fe,,,,,,,,,2321,49.60006101,67.99999458,1,0,0,response1disk,,7,16.80001169,-4.000006497,1,0,0,rectangle,16.80001169,-4.000006497,1,0,0,16.80001169,-4.000006497,1,0,0,0,54,54,56,1,,,,,,,,
,,,,,,,,,,,,,FF,,,,,,,,0.6991,,,,,,,,,,,,,,,,,,,,,,6102e390c456629247998554,61036f0b281811ea5cdbd8e3,2021-07-29_23h16.49.375,Simcolourproject_2stim_asymm_v5,2020.2.10,Win32,60,61025ae37ef11b136ea224fe,,,,,,,,,2317,52.00001222,86.39999485,1,0,0,response1disk,,7,1.14441E-05,-3.200006485,1,0,0,rectangle,1.14441E-05,-3.200006485,1,0,0,1.14441E-05,-3.200006485,1,0,0,0,55,55,85,1,,,,,,,,
,,,,,,,,,,,,,FF,,,,,,,,0.3165,,,,,,,,,,,,,,,,,,,,,,6102e390c456629247998554,61036f0b281811ea5cdbd8e3,2021-07-29_23h16.49.375,Simcolourproject_2stim_asymm_v5,2020.2.10,Win32,60,61025ae37ef11b136ea224fe,,,,,,,,,2005,36.80001199,79.19997033,1,0,0,response1disk,,7,15.20001167,7.19999367,1,0,0,rectangle,100.0000129,38.39999413,1,0,0,12.00001162,10.39999372,1,0,0,0,56,56,47,1,,response1disk_3,TRUE,6,6,"[161,43,11,239,44,6,40,103,192,25,47,57,161,285,19,246,185,58,300,178]",1.1661,rectangle
,,,,,,,,,,,,,FF,,,,,,,,0.5167,,,,,,,,,,,,,,,,,,,,,,6102e390c456629247998554,61036f0b281811ea5cdbd8e3,2021-07-29_23h16.49.375,Simcolourproject_2stim_asymm_v5,2020.2.10,Win32,60,61025ae37ef11b136ea224fe,,,,,,,,,2653,47.20001215,75.9999947,1,0,0,response1disk,,7,20.00001174,10.39999372,1,0,0,rectangle,38.40001202,-78.40000761,1,0,0,-2.399939764,12.79999375,1,0,0,0,57,57,146,1,,response3disk_3,TRUE,4,4,"[161,43,11,239,44,6,40,103,192,25,47,57,161,285,19,246,185,58,300,178]",2.5825,rectangle
,,,,,,,,,,,,,FF,,,,,,,,1.0001,,,,,,,,,,,,,,,,,,,,,,6102e390c456629247998554,61036f0b281811ea5cdbd8e3,2021-07-29_23h16.49.375,Simcolourproject_2stim_asymm_v5,2020.2.10,Win32,60,61025ae37ef11b136ea224fe,,,,,,,,,1603,-77.59998971,-31.2000069,1,0,0,response5disk,,2,1.600060296,16.79999381,1,0,0,rectangle,1.600060296,16.79999381,1,0,0,1.600060296,16.79999381,1,0,0,0,58,58,107,1,,,,,,,,
,,,,,,,,,,,,,FF,,,,,,,,0.6332,,,,,,,,,,,,,,,,,,,,,,6102e390c456629247998554,61036f0b281811ea5cdbd8e3,2021-07-29_23h16.49.375,Simcolourproject_2stim_asymm_v5,2020.2.10,Win32,60,61025ae37ef11b136ea224fe,,,,,,,,,2127,40.00001204,-58.40000731,1,0,0,response3disk,,4,5.600060356,11.19999373,1,0,0,rectangle,5.600060356,11.19999373,1,0,0,5.600060356,11.19999373,1,0,0,0,59,59,25,1,,,,,,,,
,,,,,,,,,,,,,FF,,,,,,,,0.5326,,,,,,,,,,,,,,,,,,,,,,6102e390c456629247998554,61036f0b281811ea5cdbd8e3,2021-07-29_23h16.49.375,Simcolourproject_2stim_asymm_v5,2020.2.10,Win32,60,61025ae37ef11b136ea224fe,,,,,,,,,3218,28.80001187,73.59999466,1,0,0,response1disk,,7,-2.399939764,8.799993694,1,0,0,rectangle,-2.399939764,8.799993694,1,0,0,-2.399939764,8.799993694,1,0,0,0,60,60,87,1,,,,,,,,
,,,,,,,,,,,,,FF,,,,,,,,0.3662,,,,,,,,,,,,,,,,,,,,,,6102e390c456629247998554,61036f0b281811ea5cdbd8e3,2021-07-29_23h16.49.375,Simcolourproject_2stim_asymm_v5,2020.2.10,Win32,60,61025ae37ef11b136ea224fe,,,,,,,,,1925,20.80001175,60.79999447,1,0,0,response1disk,,7,1.14441E-05,11.99999374,1,0,0,rectangle,1.14441E-05,11.99999374,1,0,0,1.14441E-05,11.99999374,1,0,0,0,61,61,92,1,,,,,,,,
,,,,,,,,,,,,,FF,,,,,,,,0.3164,,,,,,,,,,,,,,,,,,,,,,6102e390c456629247998554,61036f0b281811ea5cdbd8e3,2021-07-29_23h16.49.375,Simcolourproject_2stim_asymm_v5,2020.2.10,Win32,60,61025ae37ef11b136ea224fe,,,,,,,,,658,25.60006065,64.79999453,1,0,0,response1disk,,7,12.00001162,12.79999375,1,0,0,rectangle,12.00001162,12.79999375,1,0,0,12.00001162,12.79999375,1,0,0,0,62,62,99,1,,,,,,,,
,,,,,,,,,,,,,FF,,,,,,,,0.8159,,,,,,,,,,,,,,,,,,,,,,6102e390c456629247998554,61036f0b281811ea5cdbd8e3,2021-07-29_23h16.49.375,Simcolourproject_2stim_asymm_v5,2020.2.10,Win32,60,61025ae37ef11b136ea224fe,,,,,,,,,9,100.0000129,-41.60000706,1,0,0,response3disk,,5,16.80001169,-8.800006568,1,0,0,rectangle,16.80001169,-8.800006568,1,0,0,16.80001169,-8.800006568,1,0,0,0,63,63,48,1,,,,,,,,
,,,,,,,,,,,,,FF,,,,,,,,0.5501,,,,,,,,,,,,,,,,,,,,,,6102e390c456629247998554,61036f0b281811ea5cdbd8e3,2021-07-29_23h16.49.375,Simcolourproject_2stim_asymm_v5,2020.2.10,Win32,60,61025ae37ef11b136ea224fe,,,,,,,,,197,67.20001245,-40.80000705,1,0,0,response3disk,,5,-10.39993988,-6.4373E-06,1,0,0,rectangle,-10.39993988,-6.4373E-06,1,0,0,-10.39993988,-6.4373E-06,1,0,0,0,64,64,55,1,,,,,,,,
,,,,,,,,,,,,,FF,,,,,,,,0.8833,,,,,,,,,,,,,,,,,,,,,,6102e390c456629247998554,61036f0b281811ea5cdbd8e3,2021-07-29_23h16.49.375,Simcolourproject_2stim_asymm_v5,2020.2.10,Win32,60,61025ae37ef11b136ea224fe,,,,,,,,,2694,38.40001202,94.39999497,1,0,0,response1disk,,7,1.14441E-05,-12.80000663,1,0,0,rectangle,1.14441E-05,-12.80000663,1,0,0,1.14441E-05,-12.80000663,1,0,0,0,65,65,90,1,,,,,,,,
,,,,,,,,,,,,,FF,,,,,,,,0.6832,,,,,,,,,,,,,,,,,,,,,,6102e390c456629247998554,61036f0b281811ea5cdbd8e3,2021-07-29_23h16.49.375,Simcolourproject_2stim_asymm_v5,2020.2.10,Win32,60,61025ae37ef11b136ea224fe,,,,,,,,,4219,42.40001208,-95.20000786,1,0,0,response3disk,,4,-7.199988663,15.9999938,1,0,0,rectangle,-7.199988663,15.9999938,1,0,0,-7.199988663,15.9999938,1,0,0,0,66,66,63,1,,,,,,,,
,,,,,,,,,,,,,FF,,,,,,,,0.734,,,,,,,,,,,,,,,,,,,,,,6102e390c456629247998554,61036f0b281811ea5cdbd8e3,2021-07-29_23h16.49.375,Simcolourproject_2stim_asymm_v5,2020.2.10,Win32,60,61025ae37ef11b136ea224fe,,,,,,,,,4320,28.00001186,68.79999459,1,0,0,response1disk,,7,5.600060356,0.799993575,1,0,0,rectangle,5.600060356,0.799993575,1,0,0,5.600060356,0.799993575,1,0,0,0,67,67,128,1,,,,,,,,
,,,,,,,,,,,,,FF,,,,,,,,0.966,,,,,,,,,,,,,,,,,,,,,,6102e390c456629247998554,61036f0b281811ea5cdbd8e3,2021-07-29_23h16.49.375,Simcolourproject_2stim_asymm_v5,2020.2.10,Win32,60,61025ae37ef11b136ea224fe,,,,,,,,,3503,48.80001217,-93.60005666,1,0,0,response3disk,,4,-20.79998887,9.599993706,1,0,0,rectangle,-20.79998887,9.599993706,1,0,0,-20.79998887,9.599993706,1,0,0,0,68,68,7,1,,,,,,,,
,,,,,,,,,,,,,FF,,,,,,,,0.5327,,,,,,,,,,,,,,,,,,,,,,6102e390c456629247998554,61036f0b281811ea5cdbd8e3,2021-07-29_23h16.49.375,Simcolourproject_2stim_asymm_v5,2020.2.10,Win32,60,61025ae37ef11b136ea224fe,,,,,,,,,3577,28.80001187,65.59999454,1,0,0,response1disk,,7,11.20001161,-6.400006533,1,0,0,rectangle,11.20001161,-6.400006533,1,0,0,11.20001161,-6.400006533,1,0,0,0,69,69,68,1,,,,,,,,
,,,,,,,,,,,,,FF,,,,,,,,0.3989,,,,,,,,,,,,,,,,,,,,,,6102e390c456629247998554,61036f0b281811ea5cdbd8e3,2021-07-29_23h16.49.375,Simcolourproject_2stim_asymm_v5,2020.2.10,Win32,60,61025ae37ef11b136ea224fe,,,,,,,,,897,34.40001196,69.5999946,1,0,0,response1disk,,7,-3.999988616,-3.200006485,1,0,0,rectangle,-3.999988616,-3.200006485,1,0,0,-3.999988616,-3.200006485,1,0,0,0,70,70,111,1,,,,,,,,
,,,,,,,,,,,,,FF,,,,,,,,0.5994,,,,,,,,,,,,,,,,,,,,,,6102e390c456629247998554,61036f0b281811ea5cdbd8e3,2021-07-29_23h16.49.375,Simcolourproject_2stim_asymm_v5,2020.2.10,Win32,60,61025ae37ef11b136ea224fe,,,,,,,,,279,-39.99998915,-76.00000757,1,0,0,response5disk,,3,1.600060296,15.9999938,1,0,0,rectangle,1.600060296,15.9999938,1,0,0,1.600060296,15.9999938,1,0,0,0,71,71,30,1,,,,,,,,
,,,,,,,,,,,,,FF,,,,,,,,1.1328,,,,,,,,,,,,,,,,,,,,,,6102e390c456629247998554,61036f0b281811ea5cdbd8e3,2021-07-29_23h16.49.375,Simcolourproject_2stim_asymm_v5,2020.2.10,Win32,60,61025ae37ef11b136ea224fe,,,,,,,,,2994,-22.39994006,-83.20000768,1,0,0,response5disk,,3,11.20001161,4.799993634,1,0,0,rectangle,11.20001161,4.799993634,1,0,0,11.20001161,4.799993634,1,0,0,0,72,72,62,1,,,,,,,,
,,,,,,,,,,,,,FF,,,,,,,,1.0662,,,,,,,,,,,,,,,,,,,,,,6102e390c456629247998554,61036f0b281811ea5cdbd8e3,2021-07-29_23h16.49.375,Simcolourproject_2stim_asymm_v5,2020.2.10,Win32,60,61025ae37ef11b136ea224fe,,,,,,,,,522,-43.99998921,-96.80000788,1,0,0,response5disk,,3,-6.399939823,-5.600006521,1,0,0,rectangle,-6.399939823,-5.600006521,1,0,0,-6.399939823,-5.600006521,1,0,0,0,73,73,23,1,,,,,,,,
,,,,,,,,,,,,,FF,,,,,,,,0.7325,,,,,,,,,,,,,,,,,,,,,,6102e390c456629247998554,61036f0b281811ea5cdbd8e3,2021-07-29_23h16.49.375,Simcolourproject_2stim_asymm_v5,2020.2.10,Win32,60,61025ae37ef11b136ea224fe,,,,,,,,,1594,79.20001262,-35.20000696,1,0,0,response3disk,,5,7.200011551,6.399993658,1,0,0,rectangle,7.200011551,6.399993658,1,0,0,7.200011551,6.399993658,1,0,0,0,74,74,137,1,,,,,,,,
,,,,,,,,,,,,,FF,,,,,,,,0.4506,,,,,,,,,,,,,,,,,,,,,,6102e390c456629247998554,61036f0b281811ea5cdbd8e3,2021-07-29_23h16.49.375,Simcolourproject_2stim_asymm_v5,2020.2.10,Win32,60,61025ae37ef11b136ea224fe,,,,,,,,,4268,-44.79998922,-96.00000787,1,0,0,response5disk,,3,-10.39993988,-3.200006485,1,0,0,rectangle,-10.39993988,-3.200006485,1,0,0,-10.39993988,-3.200006485,1,0,0,0,75,75,114,1,,,,,,,,
,,,,,,,,,,,,,FF,,,,,,,,0.5671,,,,,,,,,,,,,,,,,,,,,,6102e390c456629247998554,61036f0b281811ea5cdbd8e3,2021-07-29_23h16.49.375,Simcolourproject_2stim_asymm_v5,2020.2.10,Win32,60,61025ae37ef11b136ea224fe,,,,,,,,,295,17.60006053,74.39999467,1,0,0,response1disk,,7,-0.799988568,-11.2000066,1,0,0,rectangle,-0.799988568,-11.2000066,1,0,0,-0.799988568,-11.2000066,1,0,0,0,76,76,159,1,,,,,,,,
,,,,,,,,,,,,,FF,,,,,,,,0.4166,,,,,,,,,,,,,,,,,,,,,,6102e390c456629247998554,61036f0b281811ea5cdbd8e3,2021-07-29_23h16.49.375,Simcolourproject_2stim_asymm_v5,2020.2.10,Win32,60,61025ae37ef11b136ea224fe,,,,,,,,,1519,31.20001191,70.39999461,1,0,0,response1disk,,7,9.600060415,-6.4373E-06,1,0,0,rectangle,9.600060415,-6.4373E-06,1,0,0,9.600060415,-6.4373E-06,1,0,0,0,77,77,67,1,,,,,,,,
,,,,,,,,,,,,,FF,,,,,,,,0.5159,,,,,,,,,,,,,,,,,,,,,,6102e390c456629247998554,61036f0b281811ea5cdbd8e3,2021-07-29_23h16.49.375,Simcolourproject_2stim_asymm_v5,2020.2.10,Win32,60,61025ae37ef11b136ea224fe,,,,,,,,,3048,-49.5999893,-104.800008,1,0,0,response5disk,,3,-12.79998875,-8.000006557,1,0,0,rectangle,-12.79998875,-8.000006557,1,0,0,-12.79998875,-8.000006557,1,0,0,0,78,78,8,1,,,,,,,,
,,,,,,,,,,,,,FF,,,,,,,,0.9491,,,,,,,,,,,,,,,,,,,,,,6102e390c456629247998554,61036f0b281811ea5cdbd8e3,2021-07-29_23h16.49.375,Simcolourproject_2stim_asymm_v5,2020.2.10,Win32,60,61025ae37ef11b136ea224fe,,,,,,,,,2645,27.20001185,71.99999464,1,0,0,response1disk,,7,1.600060296,-0.800006449,1,0,0,rectangle,1.600060296,-0.800006449,1,0,0,1.600060296,-0.800006449,1,0,0,0,79,79,14,1,,,,,,,,
,,,,,,,,,,,,,FF,,,,,,,,0.6327,,,,,,,,,,,,,,,,,,,,,,6102e390c456629247998554,61036f0b281811ea5cdbd8e3,2021-07-29_23h16.49.375,Simcolourproject_2stim_asymm_v5,2020.2.10,Win32,60,61025ae37ef11b136ea224fe,,,,,,,,,2441,52.80001223,76.79999471,1,0,0,response1disk,,7,2.40001148,-3.200006485,1,0,0,rectangle,2.40001148,-3.200006485,1,0,0,2.40001148,-3.200006485,1,0,0,0,80,80,42,1,,,,,,,,
,,,,,,,,,,,,,FF,,,,,,,,0.5333,,,,,,,,,,,,,,,,,,,,,,6102e390c456629247998554,61036f0b281811ea5cdbd8e3,2021-07-29_23h16.49.375,Simcolourproject_2stim_asymm_v5,2020.2.10,Win32,60,61025ae37ef11b136ea224fe,,,,,,,,,3527,30.4000119,41.59999418,1,0,0,response1disk,,7,23.20001179,10.39999372,1,0,0,rectangle,23.20001179,10.39999372,1,0,0,23.20001179,10.39999372,1,0,0,0,81,81,125,1,,,,,,,,
,,,,,,,,,,,,,FF,,,,,,,,0.3999,,,,,,,,,,,,,,,,,,,,,,6102e390c456629247998554,61036f0b281811ea5cdbd8e3,2021-07-29_23h16.49.375,Simcolourproject_2stim_asymm_v5,2020.2.10,Win32,60,61025ae37ef11b136ea224fe,,,,,,,,,1736,49.60006101,100.7999951,1,0,0,response1disk,,7,26.40001184,7.999993682,1,0,0,rectangle,26.40001184,7.999993682,1,0,0,26.40001184,7.999993682,1,0,0,0,82,82,51,1,,,,,,,,
,,,,,,,,,,,,,FF,,,,,,,,0.3659,,,,,,,,,,,,,,,,,,,,,,6102e390c456629247998554,61036f0b281811ea5cdbd8e3,2021-07-29_23h16.49.375,Simcolourproject_2stim_asymm_v5,2020.2.10,Win32,60,61025ae37ef11b136ea224fe,,,,,,,,,3728,37.60006083,80.79999477,1,0,0,response1disk,,7,-4.799988627,-9.60000658,1,0,0,rectangle,-4.799988627,-9.60000658,1,0,0,-4.799988627,-9.60000658,1,0,0,0,83,83,76,1,,,,,,,,
,,,,,,,,,,,,,FF,,,,,,,,0.567,,,,,,,,,,,,,,,,,,,,,,6102e390c456629247998554,61036f0b281811ea5cdbd8e3,2021-07-29_23h16.49.375,Simcolourproject_2stim_asymm_v5,2020.2.10,Win32,60,61025ae37ef11b136ea224fe,,,,,,,,,423,54.40001225,78.39999473,1,0,0,response1disk,,7,18.40001172,3.19999361,1,0,0,rectangle,18.40001172,3.19999361,1,0,0,18.40001172,3.19999361,1,0,0,0,84,84,122,1,,,,,,,,
,,,,,,,,,,,,,FF,,,,,,,,0.6163,,,,,,,,,,,,,,,,,,,,,,6102e390c456629247998554,61036f0b281811ea5cdbd8e3,2021-07-29_23h16.49.375,Simcolourproject_2stim_asymm_v5,2020.2.10,Win32,60,61025ae37ef11b136ea224fe,,,,,,,,,1880,24.0000118,84.79999483,1,0,0,response1disk,,7,-15.99998879,-0.800006449,1,0,0,rectangle,-15.99998879,-0.800006449,1,0,0,-15.99998879,-0.800006449,1,0,0,0,85,85,108,1,,,,,,,,
,,,,,,,,,,,,,FF,,,,,,,,0.6339,,,,,,,,,,,,,,,,,,,,,,6102e390c456629247998554,61036f0b281811ea5cdbd8e3,2021-07-29_23h16.49.375,Simcolourproject_2stim_asymm_v5,2020.2.10,Win32,60,61025ae37ef11b136ea224fe,,,,,,,,,551,26.40001184,70.39999461,1,0,0,response1disk,,7,6.400011539,14.39999378,1,0,0,rectangle,6.400011539,14.39999378,1,0,0,6.400011539,14.39999378,1,0,0,0,86,86,75,1,,,,,,,,
,,,,,,,,,,,,,FF,,,,,,,,1.5161,,,,,,,,,,,,,,,,,,,,,,6102e390c456629247998554,61036f0b281811ea5cdbd8e3,2021-07-29_23h16.49.375,Simcolourproject_2stim_asymm_v5,2020.2.10,Win32,60,61025ae37ef11b136ea224fe,,,,,,,,,104,96.80001289,-42.40000707,1,0,0,response3disk,,5,-2.399939764,-3.200006485,1,0,0,rectangle,-2.399939764,-3.200006485,1,0,0,-2.399939764,-3.200006485,1,0,0,0,87,87,98,1,,,,,,,,
,,,,,,,,,,,,,FF,,,,,,,,0.4168,,,,,,,,,,,,,,,,,,,,,,6102e390c456629247998554,61036f0b281811ea5cdbd8e3,2021-07-29_23h16.49.375,Simcolourproject_2stim_asymm_v5,2020.2.10,Win32,60,61025ae37ef11b136ea224fe,,,,,,,,,755,50.4000122,63.19997009,1,0,0,response1disk,,7,5.600060356,-11.2000066,1,0,0,rectangle,5.600060356,-11.2000066,1,0,0,5.600060356,-11.2000066,1,0,0,0,88,88,81,1,,,,,,,,
,,,,,,,,,,,,,FF,,,,,,,,0.4988,,,,,,,,,,,,,,,,,,,,,,6102e390c456629247998554,61036f0b281811ea5cdbd8e3,2021-07-29_23h16.49.375,Simcolourproject_2stim_asymm_v5,2020.2.10,Win32,60,61025ae37ef11b136ea224fe,,,,,,,,,496,37.60006083,77.59999472,1,0,0,response1disk,,7,16.80001169,-6.4373E-06,1,0,0,rectangle,16.80001169,-6.4373E-06,1,0,0,16.80001169,-6.4373E-06,1,0,0,0,89,89,132,1,,,,,,,,
,,,,,,,,,,,,,FF,,,,,,,,0.7498,,,,,,,,,,,,,,,,,,,,,,6102e390c456629247998554,61036f0b281811ea5cdbd8e3,2021-07-29_23h16.49.375,Simcolourproject_2stim_asymm_v5,2020.2.10,Win32,60,61025ae37ef11b136ea224fe,,,,,,,,,2166,44.80001211,-109.6000569,1,0,0,response3disk,,4,0.800011456,6.399993658,1,0,0,rectangle,0.800011456,6.399993658,1,0,0,0.800011456,6.399993658,1,0,0,0,90,90,29,1,,,,,,,,
,,,,,,,,,,,,,FF,,,,,,,,0.4158,,,,,,,,,,,,,,,,,,,,,,6102e390c456629247998554,61036f0b281811ea5cdbd8e3,2021-07-29_23h16.49.375,Simcolourproject_2stim_asymm_v5,2020.2.10,Win32,60,61025ae37ef11b136ea224fe,,,,,,,,,189,33.60006077,-71.2000075,1,0,0,response3disk,,4,1.600060296,13.59999377,1,0,0,rectangle,1.600060296,13.59999377,1,0,0,1.600060296,13.59999377,1,0,0,0,91,91,86,1,,,,,,,,
,,,,,,,,,,,,,FF,,,,,,,,1.0666,,,,,,,,,,,,,,,,,,,,,,6102e390c456629247998554,61036f0b281811ea5cdbd8e3,2021-07-29_23h16.49.375,Simcolourproject_2stim_asymm_v5,2020.2.10,Win32,60,61025ae37ef11b136ea224fe,,,,,,,,,247,69.60001248,-52.00000721,1,0,0,response3disk,,5,3.200011492,-15.20000666,1,0,0,rectangle,3.200011492,-15.20000666,1,0,0,3.200011492,-15.20000666,1,0,0,0,92,92,104,1,,,,,,,,
,,,,,,,,,,,,,FF,,,,,,,,1.183,,,,,,,,,,,,,,,,,,,,,,6102e390c456629247998554,61036f0b281811ea5cdbd8e3,2021-07-29_23h16.49.375,Simcolourproject_2stim_asymm_v5,2020.2.10,Win32,60,61025ae37ef11b136ea224fe,,,,,,,,,2541,-89.59998989,-36.00000697,1,0,0,response5disk,,2,-3.199988604,3.999993622,1,0,0,rectangle,-3.199988604,3.999993622,1,0,0,-3.199988604,3.999993622,1,0,0,0,93,93,16,1,,,,,,,,
,,,,,,,,,,,,,FF,,,,,,,,0.4994,,,,,,,,,,,,,,,,,,,,,,6102e390c456629247998554,61036f0b281811ea5cdbd8e3,2021-07-29_23h16.49.375,Simcolourproject_2stim_asymm_v5,2020.2.10,Win32,60,61025ae37ef11b136ea224fe,,,,,,,,,437,-70.39994078,-31.2000069,1,0,0,response5disk,,2,18.40001172,3.19999361,1,0,0,rectangle,18.40001172,3.19999361,1,0,0,18.40001172,3.19999361,1,0,0,0,94,94,31,1,,,,,,,,
,,,,,,,,,,,,,FF,,,,,,,,0.8158,,,,,,,,,,,,,,,,,,,,,,6102e390c456629247998554,61036f0b281811ea5cdbd8e3,2021-07-29_23h16.49.375,Simcolourproject_2stim_asymm_v5,2020.2.10,Win32,60,61025ae37ef11b136ea224fe,,,,,,,,,1847,22.40001178,61.59999448,1,0,0,response1disk,,7,-10.39993988,4.799993634,1,0,0,rectangle,-10.39993988,4.799993634,1,0,0,-10.39993988,4.799993634,1,0,0,0,95,95,1,1,,,,,,,,
,,,,,,,,,,,,,FF,,,,,,,,0.6164,,,,,,,,,,,,,,,,,,,,,,6102e390c456629247998554,61036f0b281811ea5cdbd8e3,2021-07-29_23h16.49.375,Simcolourproject_2stim_asymm_v5,2020.2.10,Win32,60,61025ae37ef11b136ea224fe,,,,,,,,,932,20.00001174,49.5999943,1,0,0,response1disk,,7,-4.799988627,-10.40000659,1,0,0,rectangle,-4.799988627,-10.40000659,1,0,0,-4.799988627,-10.40000659,1,0,0,0,96,96,77,1,,,,,,,,
,,,,,,,,,,,,,FF,,,,,,,,0.5496,,,,,,,,,,,,,,,,,,,,,,6102e390c456629247998554,61036f0b281811ea5cdbd8e3,2021-07-29_23h16.49.375,Simcolourproject_2stim_asymm_v5,2020.2.10,Win32,60,61025ae37ef11b136ea224fe,,,,,,,,,557,38.40001202,84.79999483,1,0,0,response1disk,,7,8.800011575,14.39999378,1,0,0,rectangle,8.800011575,14.39999378,1,0,0,8.800011575,14.39999378,1,0,0,0,97,97,11,1,,,,,,,,
,,,,,,,,,,,,,FF,,,,,,,,0.3503,,,,,,,,,,,,,,,,,,,,,,6102e390c456629247998554,61036f0b281811ea5cdbd8e3,2021-07-29_23h16.49.375,Simcolourproject_2stim_asymm_v5,2020.2.10,Win32,60,61025ae37ef11b136ea224fe,,,,,,,,,1643,39.20001203,74.39999467,1,0,0,response1disk,,7,14.40001166,14.39999378,1,0,0,rectangle,14.40001166,14.39999378,1,0,0,14.40001166,14.39999378,1,0,0,0,98,98,95,1,,,,,,,,
,,,,,,,,,,,,,FF,,,,,,,,0.2992,,,,,,,,,,,,,,,,,,,,,,6102e390c456629247998554,61036f0b281811ea5cdbd8e3,2021-07-29_23h16.49.375,Simcolourproject_2stim_asymm_v5,2020.2.10,Win32,60,61025ae37ef11b136ea224fe,,,,,,,,,1467,43.20001209,51.99999434,1,0,0,response1disk,,7,9.600060415,-2.400006473,1,0,0,rectangle,9.600060415,-2.400006473,1,0,0,9.600060415,-2.400006473,1,0,0,0,99,99,94,1,,,,,,,,
,,,,,,,,,,,,,FF,,,,,,,,0.3491,,,,,,,,,,,,,,,,,,,,,,6102e390c456629247998554,61036f0b281811ea5cdbd8e3,2021-07-29_23h16.49.375,Simcolourproject_2stim_asymm_v5,2020.2.10,Win32,60,61025ae37ef11b136ea224fe,,,,,,,,,2742,72.00001252,75.19997027,1,0,0,response1disk,,7,13.60006047,0.799993575,1,0,0,rectangle,13.60006047,0.799993575,1,0,0,13.60006047,0.799993575,1,0,0,0,100,100,150,1,,,,,,,,
,,,,,,,,,,,,,FF,,,,,,,,0.7164,,,,,,,,,,,,,,,,,,,,,,6102e390c456629247998554,61036f0b281811ea5cdbd8e3,2021-07-29_23h16.49.375,Simcolourproject_2stim_asymm_v5,2020.2.10,Win32,60,61025ae37ef11b136ea224fe,,,,,,,,,4185,77.6000126,-58.40000731,1,0,0,response3disk,,5,5.600060356,-0.800006449,1,0,0,rectangle,5.600060356,-0.800006449,1,0,0,5.600060356,-0.800006449,1,0,0,0,101,101,49,1,,,,,,,,
,,,,,,,,,,,,,FF,,,,,,,,0.8663,,,,,,,,,,,,,,,,,,,,,,6102e390c456629247998554,61036f0b281811ea5cdbd8e3,2021-07-29_23h16.49.375,Simcolourproject_2stim_asymm_v5,2020.2.10,Win32,60,61025ae37ef11b136ea224fe,,,,,,,,,4141,-34.39994024,-90.40000778,1,0,0,response5disk,,3,-10.39993988,-8.000006557,1,0,0,rectangle,-67.99998957,33.59999406,1,0,0,13.60006047,-2.400006473,1,0,0,0,102,102,43,1,,response7disk_3,TRUE,1,1,"[161,43,11,239,44,6,40,103,192,25,47,57,161,285,19,246,185,58,300,178]",1.4,rectangle
,,,,,,,,,,,,,FF,,,,,,,,0.5327,,,,,,,,,,,,,,,,,,,,,,6102e390c456629247998554,61036f0b281811ea5cdbd8e3,2021-07-29_23h16.49.375,Simcolourproject_2stim_asymm_v5,2020.2.10,Win32,60,61025ae37ef11b136ea224fe,,,,,,,,,1389,30.4000119,73.59999466,1,0,0,response1disk,,7,-7.199988663,5.599993646,1,0,0,rectangle,-7.199988663,5.599993646,1,0,0,-7.199988663,5.599993646,1,0,0,0,103,103,147,1,,,,,,,,
,,,,,,,,,,,,,FF,,,,,,,,0.6157,,,,,,,,,,,,,,,,,,,,,,6102e390c456629247998554,61036f0b281811ea5cdbd8e3,2021-07-29_23h16.49.375,Simcolourproject_2stim_asymm_v5,2020.2.10,Win32,60,61025ae37ef11b136ea224fe,,,,,,,,,1385,68.00001246,25.59999394,1,0,0,response1disk,,6,4.800011516,-4.800006509,1,0,0,rectangle,4.800011516,-4.800006509,1,0,0,4.800011516,-4.800006509,1,0,0,0,104,104,109,1,,,,,,,,
,,,,,,,,,,,,,FF,,,,,,,,1.1332,,,,,,,,,,,,,,,,,,,,,,6102e390c456629247998554,61036f0b281811ea5cdbd8e3,2021-07-29_23h16.49.375,Simcolourproject_2stim_asymm_v5,2020.2.10,Win32,60,61025ae37ef11b136ea224fe,,,,,,,,,1983,50.4000122,69.5999946,1,0,0,response1disk,,7,17.60006053,0.799993575,1,0,0,rectangle,17.60006053,0.799993575,1,0,0,17.60006053,0.799993575,1,0,0,0,105,105,157,1,,,,,,,,
,,,,,,,,,,,,,FF,,,,,,,,0.3501,,,,,,,,,,,,,,,,,,,,,,6102e390c456629247998554,61036f0b281811ea5cdbd8e3,2021-07-29_23h16.49.375,Simcolourproject_2stim_asymm_v5,2020.2.10,Win32,60,61025ae37ef11b136ea224fe,,,,,,,,,2433,40.00001204,95.19997057,1,0,0,response1disk,,7,4.000011504,-6.400006533,1,0,0,rectangle,4.000011504,-6.400006533,1,0,0,4.000011504,-6.400006533,1,0,0,0,106,106,9,1,,,,,,,,
,,,,,,,,,,,,,FF,,,,,,,,0.6671,,,,,,,,,,,,,,,,,,,,,,6102e390c456629247998554,61036f0b281811ea5cdbd8e3,2021-07-29_23h16.49.375,Simcolourproject_2stim_asymm_v5,2020.2.10,Win32,60,61025ae37ef11b136ea224fe,,,,,,,,,3646,74.40001255,35.19996967,1,0,0,response1disk,,6,21.60006059,-9.60000658,1,0,0,rectangle,21.60006059,-9.60000658,1,0,0,21.60006059,-9.60000658,1,0,0,0,107,107,5,1,,,,,,,,
,,,,,,,,,,,,,FF,,,,,,,,0.984,,,,,,,,,,,,,,,,,,,,,,6102e390c456629247998554,61036f0b281811ea5cdbd8e3,2021-07-29_23h16.49.375,Simcolourproject_2stim_asymm_v5,2020.2.10,Win32,60,61025ae37ef11b136ea224fe,,,,,,,,,4176,38.40001202,55.19996997,1,0,0,response1disk,,7,2.40001148,6.399993658,1,0,0,rectangle,2.40001148,6.399993658,1,0,0,2.40001148,6.399993658,1,0,0,0,108,108,121,1,,,,,,,,
,,,,,,,,,,,,,FF,,,,,,,,0.6658,,,,,,,,,,,,,,,,,,,,,,6102e390c456629247998554,61036f0b281811ea5cdbd8e3,2021-07-29_23h16.49.375,Simcolourproject_2stim_asymm_v5,2020.2.10,Win32,60,61025ae37ef11b136ea224fe,,,,,,,,,438,-31.99998903,-78.40000761,1,0,0,response5disk,,3,-3.999988616,-9.60000658,1,0,0,rectangle,-3.999988616,-9.60000658,1,0,0,-3.999988616,-9.60000658,1,0,0,0,109,109,18,1,,,,,,,,
,,,,,,,,,,,,,FF,,,,,,,,0.7326,,,,,,,,,,,,,,,,,,,,,,6102e390c456629247998554,61036f0b281811ea5cdbd8e3,2021-07-29_23h16.49.375,Simcolourproject_2stim_asymm_v5,2020.2.10,Win32,60,61025ae37ef11b136ea224fe,,,,,,,,,143,75.20001256,-41.60000706,1,0,0,response3disk,,5,19.20001173,-6.4373E-06,1,0,0,rectangle,19.20001173,-6.4373E-06,1,0,0,19.20001173,-6.4373E-06,1,0,0,0,110,110,138,1,,,,,,,,
,,,,,,,,,,,,,FF,,,,,,,,0.6999,,,,,,,,,,,,,,,,,,,,,,6102e390c456629247998554,61036f0b281811ea5cdbd8e3,2021-07-29_23h16.49.375,Simcolourproject_2stim_asymm_v5,2020.2.10,Win32,60,61025ae37ef11b136ea224fe,,,,,,,,,737,20.80001175,30.39999402,1,0,0,response1disk,,7,9.600060415,-6.4373E-06,1,0,0,rectangle,9.600060415,-6.4373E-06,1,0,0,9.600060415,-6.4373E-06,1,0,0,0,111,111,60,1,,,,,,,,
,,,,,,,,,,,,,FF,,,,,,,,0.8832,,,,,,,,,,,,,,,,,,,,,,6102e390c456629247998554,61036f0b281811ea5cdbd8e3,2021-07-29_23h16.49.375,Simcolourproject_2stim_asymm_v5,2020.2.10,Win32,60,61025ae37ef11b136ea224fe,,,,,,,,,513,31.20001191,79.99999475,1,0,0,response1disk,,7,14.40001166,6.399993658,1,0,0,rectangle,14.40001166,6.399993658,1,0,0,14.40001166,6.399993658,1,0,0,0,112,112,65,1,,,,,,,,
,,,,,,,,,,,,,FF,,,,,,,,0.4656,,,,,,,,,,,,,,,,,,,,,,6102e390c456629247998554,61036f0b281811ea5cdbd8e3,2021-07-29_23h16.49.375,Simcolourproject_2stim_asymm_v5,2020.2.10,Win32,60,61025ae37ef11b136ea224fe,,,,,,,,,1538,75.20001256,47.19996985,1,0,0,response1disk,,6,36.00001198,4.799993634,1,0,0,rectangle,36.00001198,4.799993634,1,0,0,36.00001198,4.799993634,1,0,0,0,113,113,27,1,,,,,,,,
,,,,,,,,,,,,,FF,,,,,,,,2.2832,,,,,,,,,,,,,,,,,,,,,,6102e390c456629247998554,61036f0b281811ea5cdbd8e3,2021-07-29_23h16.49.375,Simcolourproject_2stim_asymm_v5,2020.2.10,Win32,60,61025ae37ef11b136ea224fe,,,,,,,,,150,89.60001278,-37.600007,1,0,0,response3disk,,5,-1.59998858,-5.600006521,1,0,0,rectangle,-1.59998858,-5.600006521,1,0,0,-1.59998858,-5.600006521,1,0,0,0,114,114,144,1,,,,,,,,
,,,,,,,,,,,,,FF,,,,,,,,0.716,,,,,,,,,,,,,,,,,,,,,,6102e390c456629247998554,61036f0b281811ea5cdbd8e3,2021-07-29_23h16.49.375,Simcolourproject_2stim_asymm_v5,2020.2.10,Win32,60,61025ae37ef11b136ea224fe,,,,,,,,,1900,-57.59998941,-100.8000079,1,0,0,response5disk,,3,-11.19998872,2.399993598,1,0,0,rectangle,-11.19998872,2.399993598,1,0,0,-11.19998872,2.399993598,1,0,0,0,115,115,71,1,,,,,,,,
,,,,,,,,,,,,,FF,,,,,,,,0.8666,,,,,,,,,,,,,,,,,,,,,,6102e390c456629247998554,61036f0b281811ea5cdbd8e3,2021-07-29_23h16.49.375,Simcolourproject_2stim_asymm_v5,2020.2.10,Win32,60,61025ae37ef11b136ea224fe,,,,,,,,,2989,76.00001258,-28.00000685,1,0,0,response3disk,,5,20.00001174,13.59999377,1,0,0,rectangle,20.00001174,13.59999377,1,0,0,20.00001174,13.59999377,1,0,0,0,116,116,78,1,,,,,,,,
,,,,,,,,,,,,,FF,,,,,,,,0.6669,,,,,,,,,,,,,,,,,,,,,,6102e390c456629247998554,61036f0b281811ea5cdbd8e3,2021-07-29_23h16.49.375,Simcolourproject_2stim_asymm_v5,2020.2.10,Win32,60,61025ae37ef11b136ea224fe,,,,,,,,,3995,-39.19998914,-63.20000738,1,0,0,response5disk,,3,-16.79998881,-6.400006533,1,0,0,rectangle,-16.79998881,-6.400006533,1,0,0,-16.79998881,-6.400006533,1,0,0,0,117,117,88,1,,,,,,,,
,,,,,,,,,,,,,FF,,,,,,,,1.8664,,,,,,,,,,,,,,,,,,,,,,6102e390c456629247998554,61036f0b281811ea5cdbd8e3,2021-07-29_23h16.49.375,Simcolourproject_2stim_asymm_v5,2020.2.10,Win32,60,61025ae37ef11b136ea224fe,,,,,,,,,1764,50.4000122,-76.80000758,1,0,0,response3disk,,4,0.800011456,1.599993587,1,0,0,rectangle,0.800011456,1.599993587,1,0,0,0.800011456,1.599993587,1,0,0,0,118,118,52,1,,,,,,,,
,,,,,,,,,,,,,FF,,,,,,,,0.5833,,,,,,,,,,,,,,,,,,,,,,6102e390c456629247998554,61036f0b281811ea5cdbd8e3,2021-07-29_23h16.49.375,Simcolourproject_2stim_asymm_v5,2020.2.10,Win32,60,61025ae37ef11b136ea224fe,,,,,,,,,4352,31.20001191,-77.60000759,1,0,0,response3disk,,4,9.600060415,-4.000006497,1,0,0,rectangle,9.600060415,-4.000006497,1,0,0,9.600060415,-4.000006497,1,0,0,0,119,119,33,1,,,,,,,,
,,,,,,,,,,,,,FF,,,,,,,,0.5159,,,,,,,,,,,,,,,,,,,,,,6102e390c456629247998554,61036f0b281811ea5cdbd8e3,2021-07-29_23h16.49.375,Simcolourproject_2stim_asymm_v5,2020.2.10,Win32,60,61025ae37ef11b136ea224fe,,,,,,,,,133,45.60006095,71.99999464,1,0,0,response1disk,,7,7.200011551,3.999993622,1,0,0,rectangle,7.200011551,3.999993622,1,0,0,7.200011551,3.999993622,1,0,0,0,120,120,61,1,,,,,,,,
,,,,,,,,,,,,,FF,,,,,,,,0.383,,,,,,,,,,,,,,,,,,,,,,6102e390c456629247998554,61036f0b281811ea5cdbd8e3,2021-07-29_23h16.49.375,Simcolourproject_2stim_asymm_v5,2020.2.10,Win32,60,61025ae37ef11b136ea224fe,,,,,,,,,1928,29.60006071,55.9999944,1,0,0,response1disk,,7,13.60006047,9.599993706,1,0,0,rectangle,13.60006047,9.599993706,1,0,0,13.60006047,9.599993706,1,0,0,0,121,121,112,1,,,,,,,,
,,,,,,,,,,,,,FF,,,,,,,,0.4498,,,,,,,,,,,,,,,,,,,,,,6102e390c456629247998554,61036f0b281811ea5cdbd8e3,2021-07-29_23h16.49.375,Simcolourproject_2stim_asymm_v5,2020.2.10,Win32,60,61025ae37ef11b136ea224fe,,,,,,,,,342,40.00001204,59.19997003,1,0,0,response1disk,,7,20.80001175,3.999993622,1,0,0,rectangle,20.80001175,3.999993622,1,0,0,20.80001175,3.999993622,1,0,0,0,122,122,134,1,,,,,,,,
,,,,,,,,,,,,,FF,,,,,,,,0.7171,,,,,,,,,,,,,,,,,,,,,,6102e390c456629247998554,61036f0b281811ea5cdbd8e3,2021-07-29_23h16.49.375,Simcolourproject_2stim_asymm_v5,2020.2.10,Win32,60,61025ae37ef11b136ea224fe,,,,,,,,,4265,38.40001202,78.39999473,1,0,0,response1disk,,7,2.40001148,-0.800006449,1,0,0,rectangle,2.40001148,-0.800006449,1,0,0,2.40001148,-0.800006449,1,0,0,0,123,123,24,1,,,,,,,,
,,,,,,,,,,,,,FF,,,,,,,,0.3994,,,,,,,,,,,,,,,,,,,,,,6102e390c456629247998554,61036f0b281811ea5cdbd8e3,2021-07-29_23h16.49.375,Simcolourproject_2stim_asymm_v5,2020.2.10,Win32,60,61025ae37ef11b136ea224fe,,,,,,,,,1072,43.20001209,89.5999949,1,0,0,response1disk,,7,29.60006071,2.399993598,1,0,0,rectangle,29.60006071,2.399993598,1,0,0,29.60006071,2.399993598,1,0,0,0,124,124,127,1,,,,,,,,
,,,,,,,,,,,,,FF,,,,,,,,0.3837,,,,,,,,,,,,,,,,,,,,,,6102e390c456629247998554,61036f0b281811ea5cdbd8e3,2021-07-29_23h16.49.375,Simcolourproject_2stim_asymm_v5,2020.2.10,Win32,60,61025ae37ef11b136ea224fe,,,,,,,,,2193,28.00001186,78.39999473,1,0,0,response1disk,,7,3.200011492,5.599993646,1,0,0,rectangle,3.200011492,5.599993646,1,0,0,3.200011492,5.599993646,1,0,0,0,125,125,115,1,,,,,,,,
,,,,,,,,,,,,,FF,,,,,,,,0.2492,,,,,,,,,,,,,,,,,,,,,,6102e390c456629247998554,61036f0b281811ea5cdbd8e3,2021-07-29_23h16.49.375,Simcolourproject_2stim_asymm_v5,2020.2.10,Win32,60,61025ae37ef11b136ea224fe,,,,,,,,,375,38.40001202,91.99999493,1,0,0,response1disk,,7,13.60006047,-14.40000665,1,0,0,rectangle,13.60006047,-14.40000665,1,0,0,13.60006047,-14.40000665,1,0,0,0,126,126,145,1,,,,,,,,
,,,,,,,,,,,,,FF,,,,,,,,1.6996,,,,,,,,,,,,,,,,,,,,,,6102e390c456629247998554,61036f0b281811ea5cdbd8e3,2021-07-29_23h16.49.375,Simcolourproject_2stim_asymm_v5,2020.2.10,Win32,60,61025ae37ef11b136ea224fe,,,,,,,,,3207,88.00001276,33.59999406,1,0,0,response1disk,,6,13.60006047,5.599993646,1,0,0,rectangle,13.60006047,5.599993646,1,0,0,13.60006047,5.599993646,1,0,0,0,127,127,20,1,,,,,,,,
,,,,,,,,,,,,,FF,,,,,,,,0.7496,,,,,,,,,,,,,,,,,,,,,,6102e390c456629247998554,61036f0b281811ea5cdbd8e3,2021-07-29_23h16.49.375,Simcolourproject_2stim_asymm_v5,2020.2.10,Win32,60,61025ae37ef11b136ea224fe,,,,,,,,,2424,54.40001225,-112.0000081,1,0,0,response3disk,,4,0.800011456,-4.800006509,1,0,0,rectangle,0.800011456,-4.800006509,1,0,0,0.800011456,-4.800006509,1,0,0,0,128,128,119,1,,,,,,,,
,,,,,,,,,,,,,FF,,,,,,,,0.5493,,,,,,,,,,,,,,,,,,,,,,6102e390c456629247998554,61036f0b281811ea5cdbd8e3,2021-07-29_23h16.49.375,Simcolourproject_2stim_asymm_v5,2020.2.10,Win32,60,61025ae37ef11b136ea224fe,,,,,,,,,382,80.00001264,-44.00000709,1,0,0,response3disk,,5,29.60006071,1.599993587,1,0,0,rectangle,29.60006071,1.599993587,1,0,0,29.60006071,1.599993587,1,0,0,0,129,129,53,1,,,,,,,,
,,,,,,,,,,,,,FF,,,,,,,,0.8504,,,,,,,,,,,,,,,,,,,,,,6102e390c456629247998554,61036f0b281811ea5cdbd8e3,2021-07-29_23h16.49.375,Simcolourproject_2stim_asymm_v5,2020.2.10,Win32,60,61025ae37ef11b136ea224fe,,,,,,,,,1822,-59.19998944,-85.60005654,1,0,0,response5disk,,3,-7.999988675,16.79999381,1,0,0,rectangle,-7.999988675,16.79999381,1,0,0,-7.999988675,16.79999381,1,0,0,0,130,130,39,1,,,,,,,,
,,,,,,,,,,,,,FF,,,,,,,,0.8492,,,,,,,,,,,,,,,,,,,,,,6102e390c456629247998554,61036f0b281811ea5cdbd8e3,2021-07-29_23h16.49.375,Simcolourproject_2stim_asymm_v5,2020.2.10,Win32,60,61025ae37ef11b136ea224fe,,,,,,,,,4281,-39.99998915,-77.60000759,1,0,0,response5disk,,3,-10.39993988,-3.200006485,1,0,0,rectangle,-10.39993988,-3.200006485,1,0,0,-10.39993988,-3.200006485,1,0,0,0,131,131,13,1,,,,,,,,
,,,,,,,,,,,,,FF,,,,,,,,1.0835,,,,,,,,,,,,,,,,,,,,,,6102e390c456629247998554,61036f0b281811ea5cdbd8e3,2021-07-29_23h16.49.375,Simcolourproject_2stim_asymm_v5,2020.2.10,Win32,60,61025ae37ef11b136ea224fe,,,,,,,,,2593,42.40001208,-80.80000764,1,0,0,response3disk,,4,-7.199988663,-5.600006521,1,0,0,rectangle,-7.199988663,-5.600006521,1,0,0,-7.199988663,-5.600006521,1,0,0,0,132,132,41,1,,,,,,,,
,,,,,,,,,,,,,FF,,,,,,,,0.5668,,,,,,,,,,,,,,,,,,,,,,6102e390c456629247998554,61036f0b281811ea5cdbd8e3,2021-07-29_23h16.49.375,Simcolourproject_2stim_asymm_v5,2020.2.10,Win32,60,61025ae37ef11b136ea224fe,,,,,,,,,3699,64.80001241,127.9999955,1,0,0,response1disk,,7,8.000011563,-16.80000669,1,0,0,rectangle,8.000011563,-16.80000669,1,0,0,8.000011563,-16.80000669,1,0,0,0,133,133,89,1,,,,,,,,
,,,,,,,,,,,,,FF,,,,,,,,1.1829,,,,,,,,,,,,,,,,,,,,,,6102e390c456629247998554,61036f0b281811ea5cdbd8e3,2021-07-29_23h16.49.375,Simcolourproject_2stim_asymm_v5,2020.2.10,Win32,60,61025ae37ef11b136ea224fe,,,,,,,,,2443,46.40001214,-67.20000744,1,0,0,response3disk,,4,-2.399939764,2.399993598,1,0,0,rectangle,-2.399939764,2.399993598,1,0,0,-2.399939764,2.399993598,1,0,0,0,134,134,46,1,,,,,,,,
,,,,,,,,,,,,,FF,,,,,,,,0.65,,,,,,,,,,,,,,,,,,,,,,6102e390c456629247998554,61036f0b281811ea5cdbd8e3,2021-07-29_23h16.49.375,Simcolourproject_2stim_asymm_v5,2020.2.10,Win32,60,61025ae37ef11b136ea224fe,,,,,,,,,255,-59.99998945,-78.40000761,1,0,0,response5disk,,3,-11.99998873,-16.00000668,1,0,0,rectangle,-11.99998873,-16.00000668,1,0,0,-11.99998873,-16.00000668,1,0,0,0,135,135,123,1,,,,,,,,
,,,,,,,,,,,,,FF,,,,,,,,0.4503,,,,,,,,,,,,,,,,,,,,,,6102e390c456629247998554,61036f0b281811ea5cdbd8e3,2021-07-29_23h16.49.375,Simcolourproject_2stim_asymm_v5,2020.2.10,Win32,60,61025ae37ef11b136ea224fe,,,,,,,,,1130,26.40001184,73.59999466,1,0,0,response1disk,,7,8.000011563,-7.200006545,1,0,0,rectangle,8.000011563,-7.200006545,1,0,0,8.000011563,-7.200006545,1,0,0,0,136,136,101,1,,,,,,,,
,,,,,,,,,,,,,FF,,,,,,,,1.3327,,,,,,,,,,,,,,,,,,,,,,6102e390c456629247998554,61036f0b281811ea5cdbd8e3,2021-07-29_23h16.49.375,Simcolourproject_2stim_asymm_v5,2020.2.10,Win32,60,61025ae37ef11b136ea224fe,,,,,,,,,3187,31.20001191,-98.4000079,1,0,0,response3disk,,4,3.200011492,7.19999367,1,0,0,rectangle,3.200011492,7.19999367,1,0,0,3.200011492,7.19999367,1,0,0,0,137,137,74,1,,,,,,,,
,,,,,,,,,,,,,FF,,,,,,,,0.4828,,,,,,,,,,,,,,,,,,,,,,6102e390c456629247998554,61036f0b281811ea5cdbd8e3,2021-07-29_23h16.49.375,Simcolourproject_2stim_asymm_v5,2020.2.10,Win32,60,61025ae37ef11b136ea224fe,,,,,,,,,542,32.80001193,74.39999467,1,0,0,response1disk,,7,-1.59998858,-16.80000669,1,0,0,rectangle,-1.59998858,-16.80000669,1,0,0,-1.59998858,-16.80000669,1,0,0,0,138,138,40,1,,,,,,,,
,,,,,,,,,,,,,FF,,,,,,,,0.683,,,,,,,,,,,,,,,,,,,,,,6102e390c456629247998554,61036f0b281811ea5cdbd8e3,2021-07-29_23h16.49.375,Simcolourproject_2stim_asymm_v5,2020.2.10,Win32,60,61025ae37ef11b136ea224fe,,,,,,,,,1461,-26.39994012,-89.6000566,1,0,0,response5disk,,3,12.80001163,-16.80000669,1,0,0,rectangle,12.80001163,-16.80000669,1,0,0,12.80001163,-16.80000669,1,0,0,0,139,139,120,1,,,,,,,,
,,,,,,,,,,,,,FF,,,,,,,,1.1829,,,,,,,,,,,,,,,,,,,,,,6102e390c456629247998554,61036f0b281811ea5cdbd8e3,2021-07-29_23h16.49.375,Simcolourproject_2stim_asymm_v5,2020.2.10,Win32,60,61025ae37ef11b136ea224fe,,,,,,,,,2275,60.80001235,-32.80000693,1,0,0,response3disk,,5,2.40001148,6.399993658,1,0,0,rectangle,2.40001148,6.399993658,1,0,0,2.40001148,6.399993658,1,0,0,0,140,140,143,1,,,,,,,,
,,,,,,,,,,,,,FF,,,,,,,,0.8668,,,,,,,,,,,,,,,,,,,,,,6102e390c456629247998554,61036f0b281811ea5cdbd8e3,2021-07-29_23h16.49.375,Simcolourproject_2stim_asymm_v5,2020.2.10,Win32,60,61025ae37ef11b136ea224fe,,,,,,,,,1739,52.00001222,81.59999478,1,0,0,response1disk,,7,-24.79998893,-4.000006497,1,0,0,rectangle,-24.79998893,-4.000006497,1,0,0,-24.79998893,-4.000006497,1,0,0,0,141,141,79,1,,,,,,,,
,,,,,,,,,,,,,FF,,,,,,,,0.4157,,,,,,,,,,,,,,,,,,,,,,6102e390c456629247998554,61036f0b281811ea5cdbd8e3,2021-07-29_23h16.49.375,Simcolourproject_2stim_asymm_v5,2020.2.10,Win32,60,61025ae37ef11b136ea224fe,,,,,,,,,1436,33.60006077,92.79999495,1,0,0,response1disk,,7,3.200011492,-0.800006449,1,0,0,rectangle,3.200011492,-0.800006449,1,0,0,3.200011492,-0.800006449,1,0,0,0,142,142,131,1,,,,,,,,
,,,,,,,,,,,,,FF,,,,,,,,0.4991,,,,,,,,,,,,,,,,,,,,,,6102e390c456629247998554,61036f0b281811ea5cdbd8e3,2021-07-29_23h16.49.375,Simcolourproject_2stim_asymm_v5,2020.2.10,Win32,60,61025ae37ef11b136ea224fe,,,,,,,,,3060,36.80001199,77.59999472,1,0,0,response1disk,,7,8.800011575,6.399993658,1,0,0,rectangle,8.800011575,6.399993658,1,0,0,8.800011575,6.399993658,1,0,0,0,143,143,136,1,,,,,,,,
,,,,,,,,,,,,,FF,,,,,,,,0.6497,,,,,,,,,,,,,,,,,,,,,,6102e390c456629247998554,61036f0b281811ea5cdbd8e3,2021-07-29_23h16.49.375,Simcolourproject_2stim_asymm_v5,2020.2.10,Win32,60,61025ae37ef11b136ea224fe,,,,,,,,,264,-39.19998914,-91.2000078,1,0,0,response5disk,,3,2.40001148,-8.000006557,1,0,0,rectangle,2.40001148,-8.000006557,1,0,0,2.40001148,-8.000006557,1,0,0,0,144,144,93,1,,,,,,,,
,,,,,,,,,,,,,FF,,,,,,,,0.7666,,,,,,,,,,,,,,,,,,,,,,6102e390c456629247998554,61036f0b281811ea5cdbd8e3,2021-07-29_23h16.49.375,Simcolourproject_2stim_asymm_v5,2020.2.10,Win32,60,61025ae37ef11b136ea224fe,,,,,,,,,2914,77.6000126,21.59999388,1,0,0,response1disk,,6,4.000011504,-12.80000663,1,0,0,rectangle,4.000011504,-12.80000663,1,0,0,4.000011504,-12.80000663,1,0,0,0,145,145,103,1,,,,,,,,
,,,,,,,,,,,,,FF,,,,,,,,0.5665,,,,,,,,,,,,,,,,,,,,,,6102e390c456629247998554,61036f0b281811ea5cdbd8e3,2021-07-29_23h16.49.375,Simcolourproject_2stim_asymm_v5,2020.2.10,Win32,60,61025ae37ef11b136ea224fe,,,,,,,,,1094,25.60006065,59.99999446,1,0,0,response1disk,,7,6.400011539,-5.600006521,1,0,0,rectangle,6.400011539,-5.600006521,1,0,0,6.400011539,-5.600006521,1,0,0,0,146,146,50,1,,,,,,,,
,,,,,,,,,,,,,FF,,,,,,,,0.7826,,,,,,,,,,,,,,,,,,,,,,6102e390c456629247998554,61036f0b281811ea5cdbd8e3,2021-07-29_23h16.49.375,Simcolourproject_2stim_asymm_v5,2020.2.10,Win32,60,61025ae37ef11b136ea224fe,,,,,,,,,1026,41.60006089,89.5999949,1,0,0,response1disk,,7,7.200011551,-4.000006497,1,0,0,rectangle,7.200011551,-4.000006497,1,0,0,7.200011551,-4.000006497,1,0,0,0,147,147,0,1,,,,,,,,
,,,,,,,,,,,,,FF,,,,,,,,0.5832,,,,,,,,,,,,,,,,,,,,,,6102e390c456629247998554,61036f0b281811ea5cdbd8e3,2021-07-29_23h16.49.375,Simcolourproject_2stim_asymm_v5,2020.2.10,Win32,60,61025ae37ef11b136ea224fe,,,,,,,,,2144,24.80001181,95.19997057,1,0,0,response1disk,,7,23.20001179,15.19999379,1,0,0,rectangle,23.20001179,15.19999379,1,0,0,23.20001179,15.19999379,1,0,0,0,148,148,44,1,,,,,,,,
,,,,,,,,,,,,,FF,,,,,,,,1.4824,,,,,,,,,,,,,,,,,,,,,,6102e390c456629247998554,61036f0b281811ea5cdbd8e3,2021-07-29_23h16.49.375,Simcolourproject_2stim_asymm_v5,2020.2.10,Win32,60,61025ae37ef11b136ea224fe,,,,,,,,,2326,31.20001191,88.79999489,1,0,0,response1disk,,7,-4.799988627,-4.800006509,1,0,0,rectangle,-4.799988627,-4.800006509,1,0,0,-4.799988627,-4.800006509,1,0,0,0,149,149,135,1,,,,,,,,
,,,,,,,,,,,,,FF,,,,,,,,4.8661,,,,,,,,,,,,,,,,,,,,,,6102e390c456629247998554,61036f0b281811ea5cdbd8e3,2021-07-29_23h16.49.375,Simcolourproject_2stim_asymm_v5,2020.2.10,Win32,60,61025ae37ef11b136ea224fe,,,,,,,,,387,66.40001243,35.19996967,1,0,0,response1disk,,6,19.20001173,7.999993682,1,0,0,rectangle,19.20001173,7.999993682,1,0,0,19.20001173,7.999993682,1,0,0,0,150,150,133,1,,,,,,,,
,,,,,,,,,,,,,FF,,,,,,,,0.5827,,,,,,,,,,,,,,,,,,,,,,6102e390c456629247998554,61036f0b281811ea5cdbd8e3,2021-07-29_23h16.49.375,Simcolourproject_2stim_asymm_v5,2020.2.10,Win32,60,61025ae37ef11b136ea224fe,,,,,,,,,4267,-18.39994,-93.60005666,1,0,0,response5disk,,3,2.40001148,7.19999367,1,0,0,rectangle,2.40001148,7.19999367,1,0,0,2.40001148,7.19999367,1,0,0,0,151,151,73,1,,,,,,,,
,,,,,,,,,,,,,FF,,,,,,,,1.3658,,,,,,,,,,,,,,,,,,,,,,6102e390c456629247998554,61036f0b281811ea5cdbd8e3,2021-07-29_23h16.49.375,Simcolourproject_2stim_asymm_v5,2020.2.10,Win32,60,61025ae37ef11b136ea224fe,,,,,,,,,2689,49.60006101,78.39999473,1,0,0,response1disk,,7,14.40001166,-1.600006461,1,0,0,rectangle,14.40001166,-1.600006461,1,0,0,14.40001166,-1.600006461,1,0,0,0,152,152,10,1,,,,,,,,
,,,,,,,,,,,,,FF,,,,,,,,0.4838,,,,,,,,,,,,,,,,,,,,,,6102e390c456629247998554,61036f0b281811ea5cdbd8e3,2021-07-29_23h16.49.375,Simcolourproject_2stim_asymm_v5,2020.2.10,Win32,60,61025ae37ef11b136ea224fe,,,,,,,,,2170,-29.599989,-68.80000746,1,0,0,response5disk,,3,-0.799988568,-6.400006533,1,0,0,rectangle,-0.799988568,-6.400006533,1,0,0,-0.799988568,-6.400006533,1,0,0,0,153,153,36,1,,,,,,,,
,,,,,,,,,,,,,FF,,,,,,,,1.3832,,,,,,,,,,,,,,,,,,,,,,6102e390c456629247998554,61036f0b281811ea5cdbd8e3,2021-07-29_23h16.49.375,Simcolourproject_2stim_asymm_v5,2020.2.10,Win32,60,61025ae37ef11b136ea224fe,,,,,,,,,3400,42.40001208,89.5999949,1,0,0,response1disk,,7,18.40001172,15.9999938,1,0,0,rectangle,18.40001172,15.9999938,1,0,0,18.40001172,15.9999938,1,0,0,0,154,154,80,1,,,,,,,,
,,,,,,,,,,,,,FF,,,,,,,,0.3839,,,,,,,,,,,,,,,,,,,,,,6102e390c456629247998554,61036f0b281811ea5cdbd8e3,2021-07-29_23h16.49.375,Simcolourproject_2stim_asymm_v5,2020.2.10,Win32,60,61025ae37ef11b136ea224fe,,,,,,,,,1488,31.20001191,83.19997039,1,0,0,response1disk,,7,10.4000116,0.799993575,1,0,0,rectangle,10.4000116,0.799993575,1,0,0,10.4000116,0.799993575,1,0,0,0,155,155,151,1,,,,,,,,
,,,,,,,,,,,,,FF,,,,,,,,0.4994,,,,,,,,,,,,,,,,,,,,,,6102e390c456629247998554,61036f0b281811ea5cdbd8e3,2021-07-29_23h16.49.375,Simcolourproject_2stim_asymm_v5,2020.2.10,Win32,60,61025ae37ef11b136ea224fe,,,,,,,,,86,23.20001179,59.19997003,1,0,0,response1disk,,7,2.40001148,-16.80000669,1,0,0,rectangle,2.40001148,-16.80000669,1,0,0,2.40001148,-16.80000669,1,0,0,0,156,156,2,1,,,,,,,,
,,,,,,,,,,,,,FF,,,,,,,,0.517,,,,,,,,,,,,,,,,,,,,,,6102e390c456629247998554,61036f0b281811ea5cdbd8e3,2021-07-29_23h16.49.375,Simcolourproject_2stim_asymm_v5,2020.2.10,Win32,60,61025ae37ef11b136ea224fe,,,,,,,,,1817,-24.79998893,-110.4000081,1,0,0,response5disk,,3,2.40001148,-16.00000668,1,0,0,rectangle,2.40001148,-16.00000668,1,0,0,2.40001148,-16.00000668,1,0,0,0,157,157,158,1,,,,,,,,
,,,,,,,,,,,,,FF,,,,,,,,0.4331,,,,,,,,,,,,,,,,,,,,,,6102e390c456629247998554,61036f0b281811ea5cdbd8e3,2021-07-29_23h16.49.375,Simcolourproject_2stim_asymm_v5,2020.2.10,Win32,60,61025ae37ef11b136ea224fe,,,,,,,,,884,26.40001184,51.99999434,1,0,0,response1disk,,7,13.60006047,10.39999372,1,0,0,rectangle,13.60006047,10.39999372,1,0,0,13.60006047,10.39999372,1,0,0,0,158,158,139,1,,,,,,,,
,,,,,,,,,,,,,FF,,,,,,,,0.4325,,,,,,,,,,,,,,,,,,,,,,6102e390c456629247998554,61036f0b281811ea5cdbd8e3,2021-07-29_23h16.49.375,Simcolourproject_2stim_asymm_v5,2020.2.10,Win32,60,61025ae37ef11b136ea224fe,,,,,,,,,4301,24.0000118,75.19997027,1,0,0,response1disk,,7,5.600060356,-0.800006449,1,0,0,rectangle,5.600060356,-0.800006449,1,0,0,5.600060356,-0.800006449,1,0,0,0,159,159,141,1,,,,,,,,
,,,,,,,,,,,,,FF,,,,,,,,0.516,,,,,,,,,,,,,,,,,,,,,,6102e390c456629247998554,61036f0b281811ea5cdbd8e3,2021-07-29_23h16.49.375,Simcolourproject_2stim_asymm_v5,2020.2.10,Win32,60,61025ae37ef11b136ea224fe,,,,,,,,,2224,30.4000119,74.39999467,1,0,0,response1disk,,7,13.60006047,13.59999377,1,0,0,rectangle,43.20001209,72.79999465,1,0,0,30.4000119,11.99999374,1,0,0,1,0,160,105,1,,response1disk_3,TRUE,7,7,"[161,43,11,239,44,6,40,103,192,25,47,57,161,285,19,246,185,58,300,178]",1.2505,rectangle
,,,,,,,,,,,,,FF,,,,,,,,0.6954,,,,,,,,,,,,,,,,,,,,,,6102e390c456629247998554,61036f0b281811ea5cdbd8e3,2021-07-29_23h16.49.375,Simcolourproject_2stim_asymm_v5,2020.2.10,Win32,60,61025ae37ef11b136ea224fe,,,,,,,,,3484,63.20001239,-27.20000684,1,0,0,response3disk,,5,13.60006047,3.19999361,1,0,0,rectangle,13.60006047,3.19999361,1,0,0,13.60006047,3.19999361,1,0,0,1,1,161,89,1,,,,,,,,
,,,,,,,,,,,,,FF,,,,,,,,0.4831,,,,,,,,,,,,,,,,,,,,,,6102e390c456629247998554,61036f0b281811ea5cdbd8e3,2021-07-29_23h16.49.375,Simcolourproject_2stim_asymm_v5,2020.2.10,Win32,60,61025ae37ef11b136ea224fe,,,,,,,,,800,24.0000118,59.19997003,1,0,0,response1disk,,7,8.800011575,5.599993646,1,0,0,rectangle,8.800011575,5.599993646,1,0,0,8.800011575,5.599993646,1,0,0,1,2,162,146,1,,,,,,,,
,,,,,,,,,,,,,FF,,,,,,,,0.6331,,,,,,,,,,,,,,,,,,,,,,6102e390c456629247998554,61036f0b281811ea5cdbd8e3,2021-07-29_23h16.49.375,Simcolourproject_2stim_asymm_v5,2020.2.10,Win32,60,61025ae37ef11b136ea224fe,,,,,,,,,529,-39.99998915,-93.60005666,1,0,0,response5disk,,3,-1.59998858,-11.2000066,1,0,0,rectangle,-1.59998858,-11.2000066,1,0,0,-1.59998858,-11.2000066,1,0,0,1,3,163,68,1,,,,,,,,
,,,,,,,,,,,,,FF,,,,,,,,0.5161,,,,,,,,,,,,,,,,,,,,,,6102e390c456629247998554,61036f0b281811ea5cdbd8e3,2021-07-29_23h16.49.375,Simcolourproject_2stim_asymm_v5,2020.2.10,Win32,60,61025ae37ef11b136ea224fe,,,,,,,,,2202,31.20001191,77.59999472,1,0,0,response1disk,,7,11.20001161,-6.400006533,1,0,0,rectangle,11.20001161,-6.400006533,1,0,0,11.20001161,-6.400006533,1,0,0,1,4,164,32,1,,,,,,,,
,,,,,,,,,,,,,FF,,,,,,,,0.9498,,,,,,,,,,,,,,,,,,,,,,6102e390c456629247998554,61036f0b281811ea5cdbd8e3,2021-07-29_23h16.49.375,Simcolourproject_2stim_asymm_v5,2020.2.10,Win32,60,61025ae37ef11b136ea224fe,,,,,,,,,1888,-59.99998945,-52.00000721,1,0,0,response5disk,,2,35.20001197,2.399993598,1,0,0,rectangle,35.20001197,2.399993598,1,0,0,35.20001197,2.399993598,1,0,0,1,5,165,53,1,,,,,,,,
,,,,,,,,,,,,,FF,,,,,,,,0.4825,,,,,,,,,,,,,,,,,,,,,,6102e390c456629247998554,61036f0b281811ea5cdbd8e3,2021-07-29_23h16.49.375,Simcolourproject_2stim_asymm_v5,2020.2.10,Win32,60,61025ae37ef11b136ea224fe,,,,,,,,,774,39.20001203,72.79999465,1,0,0,response1disk,,7,1.600060296,0.799993575,1,0,0,rectangle,1.600060296,0.799993575,1,0,0,1.600060296,0.799993575,1,0,0,1,6,166,46,1,,,,,,,,
,,,,,,,,,,,,,FF,,,,,,,,0.7164,,,,,,,,,,,,,,,,,,,,,,6102e390c456629247998554,61036f0b281811ea5cdbd8e3,2021-07-29_23h16.49.375,Simcolourproject_2stim_asymm_v5,2020.2.10,Win32,60,61025ae37ef11b136ea224fe,,,,,,,,,2357,-31.19998902,-77.60000759,1,0,0,response5disk,,3,1.14441E-05,1.599993587,1,0,0,rectangle,1.14441E-05,1.599993587,1,0,0,1.14441E-05,1.599993587,1,0,0,1,7,167,84,1,,,,,,,,
,,,,,,,,,,,,,FF,,,,,,,,0.4324,,,,,,,,,,,,,,,,,,,,,,6102e390c456629247998554,61036f0b281811ea5cdbd8e3,2021-07-29_23h16.49.375,Simcolourproject_2stim_asymm_v5,2020.2.10,Win32,60,61025ae37ef11b136ea224fe,,,,,,,,,1966,-27.19998896,-88.00000775,1,0,0,response5disk,,3,11.20001161,-5.600006521,1,0,0,rectangle,11.20001161,-5.600006521,1,0,0,11.20001161,-5.600006521,1,0,0,1,8,168,45,1,,,,,,,,
,,,,,,,,,,,,,FF,,,,,,,,0.5824,,,,,,,,,,,,,,,,,,,,,,6102e390c456629247998554,61036f0b281811ea5cdbd8e3,2021-07-29_23h16.49.375,Simcolourproject_2stim_asymm_v5,2020.2.10,Win32,60,61025ae37ef11b136ea224fe,,,,,,,,,2529,50.4000122,66.39999455,1,0,0,response1disk,,7,30.4000119,-1.600006461,1,0,0,rectangle,30.4000119,-1.600006461,1,0,0,30.4000119,-1.600006461,1,0,0,1,9,169,150,1,,,,,,,,
,,,,,,,,,,,,,FF,,,,,,,,0.7331,,,,,,,,,,,,,,,,,,,,,,6102e390c456629247998554,61036f0b281811ea5cdbd8e3,2021-07-29_23h16.49.375,Simcolourproject_2stim_asymm_v5,2020.2.10,Win32,60,61025ae37ef11b136ea224fe,,,,,,,,,2393,27.20001185,63.19997009,1,0,0,response1disk,,7,5.600060356,-1.600006461,1,0,0,rectangle,5.600060356,-1.600006461,1,0,0,5.600060356,-1.600006461,1,0,0,1,10,170,109,1,,,,,,,,
,,,,,,,,,,,,,FF,,,,,,,,0.9004,,,,,,,,,,,,,,,,,,,,,,6102e390c456629247998554,61036f0b281811ea5cdbd8e3,2021-07-29_23h16.49.375,Simcolourproject_2stim_asymm_v5,2020.2.10,Win32,60,61025ae37ef11b136ea224fe,,,,,,,,,1194,-27.19998896,-83.20000768,1,0,0,response5disk,,3,7.200011551,-13.60000664,1,0,0,rectangle,7.200011551,-13.60000664,1,0,0,7.200011551,-13.60000664,1,0,0,1,11,171,138,1,,,,,,,,
,,,,,,,,,,,,,FF,,,,,,,,3.0157,,,,,,,,,,,,,,,,,,,,,,6102e390c456629247998554,61036f0b281811ea5cdbd8e3,2021-07-29_23h16.49.375,Simcolourproject_2stim_asymm_v5,2020.2.10,Win32,60,61025ae37ef11b136ea224fe,,,,,,,,,109,63.20001239,-28.80000687,1,0,0,response3disk,,5,15.20001167,-11.2000066,1,0,0,rectangle,15.20001167,-11.2000066,1,0,0,15.20001167,-11.2000066,1,0,0,1,12,172,64,1,,,,,,,,
,,,,,,,,,,,,,FF,,,,,,,,1.1165,,,,,,,,,,,,,,,,,,,,,,6102e390c456629247998554,61036f0b281811ea5cdbd8e3,2021-07-29_23h16.49.375,Simcolourproject_2stim_asymm_v5,2020.2.10,Win32,60,61025ae37ef11b136ea224fe,,,,,,,,,3965,-63.99998951,-41.60000706,1,0,0,response5disk,,2,4.000011504,6.399993658,1,0,0,rectangle,4.000011504,6.399993658,1,0,0,4.000011504,6.399993658,1,0,0,1,13,173,78,1,,,,,,,,
,,,,,,,,,,,,,FF,,,,,,,,3.5321,,,,,,,,,,,,,,,,,,,,,,6102e390c456629247998554,61036f0b281811ea5cdbd8e3,2021-07-29_23h16.49.375,Simcolourproject_2stim_asymm_v5,2020.2.10,Win32,60,61025ae37ef11b136ea224fe,,,,,,,,,2036,-35.19998908,-80.80000764,1,0,0,response5disk,,3,-11.99998873,-11.2000066,1,0,0,rectangle,-11.99998873,-11.2000066,1,0,0,-11.99998873,-11.2000066,1,0,0,1,14,174,55,1,,,,,,,,
,,,,,,,,,,,,,FF,,,,,,,,0.9827,,,,,,,,,,,,,,,,,,,,,,6102e390c456629247998554,61036f0b281811ea5cdbd8e3,2021-07-29_23h16.49.375,Simcolourproject_2stim_asymm_v5,2020.2.10,Win32,60,61025ae37ef11b136ea224fe,,,,,,,,,4204,28.00001186,-76.80000758,1,0,0,response3disk,,4,8.800011575,-2.400006473,1,0,0,rectangle,8.800011575,-2.400006473,1,0,0,8.800011575,-2.400006473,1,0,0,1,15,175,106,1,,,,,,,,
,,,,,,,,,,,,,FF,,,,,,,,0.9988,,,,,,,,,,,,,,,,,,,,,,6102e390c456629247998554,61036f0b281811ea5cdbd8e3,2021-07-29_23h16.49.375,Simcolourproject_2stim_asymm_v5,2020.2.10,Win32,60,61025ae37ef11b136ea224fe,,,,,,,,,447,22.40001178,58.39999443,1,0,0,response1disk,,7,1.600060296,-1.600006461,1,0,0,rectangle,1.600060296,-1.600006461,1,0,0,1.600060296,-1.600006461,1,0,0,1,16,176,119,1,,,,,,,,
,,,,,,,,,,,,,FF,,,,,,,,0.5667,,,,,,,,,,,,,,,,,,,,,,6102e390c456629247998554,61036f0b281811ea5cdbd8e3,2021-07-29_23h16.49.375,Simcolourproject_2stim_asymm_v5,2020.2.10,Win32,60,61025ae37ef11b136ea224fe,,,,,,,,,3886,63.20001239,-28.80000687,1,0,0,response3disk,,5,8.000011563,6.399993658,1,0,0,rectangle,-61.59998947,-48.80000716,1,0,0,14.40001166,1.599993587,1,0,0,1,17,177,17,1,,response5disk_3,TRUE,2,2,"[161,43,11,239,44,6,40,103,192,25,47,57,161,285,19,246,185,58,300,178]",1.7326,rectangle
,,,,,,,,,,,,,FF,,,,,,,,2.3158,,,,,,,,,,,,,,,,,,,,,,6102e390c456629247998554,61036f0b281811ea5cdbd8e3,2021-07-29_23h16.49.375,Simcolourproject_2stim_asymm_v5,2020.2.10,Win32,60,61025ae37ef11b136ea224fe,,,,,,,,,1946,65.60001242,91.99999493,1,0,0,response1disk,,7,-0.799988568,15.19999379,1,0,0,rectangle,-0.799988568,15.19999379,1,0,0,-0.799988568,15.19999379,1,0,0,1,18,178,101,1,,,,,,,,
,,,,,,,,,,,,,FF,,,,,,,,0.3494,,,,,,,,,,,,,,,,,,,,,,6102e390c456629247998554,61036f0b281811ea5cdbd8e3,2021-07-29_23h16.49.375,Simcolourproject_2stim_asymm_v5,2020.2.10,Win32,60,61025ae37ef11b136ea224fe,,,,,,,,,3345,43.20001209,91.19997051,1,0,0,response1disk,,7,11.20001161,9.599993706,1,0,0,rectangle,11.20001161,9.599993706,1,0,0,11.20001161,9.599993706,1,0,0,1,19,179,116,1,,,,,,,,
,,,,,,,,,,,,,FF,,,,,,,,0.6826,,,,,,,,,,,,,,,,,,,,,,6102e390c456629247998554,61036f0b281811ea5cdbd8e3,2021-07-29_23h16.49.375,Simcolourproject_2stim_asymm_v5,2020.2.10,Win32,60,61025ae37ef11b136ea224fe,,,,,,,,,367,-37.59998912,-72.80000752,1,0,0,response5disk,,3,-3.999988616,-6.400006533,1,0,0,rectangle,-3.999988616,-6.400006533,1,0,0,-3.999988616,-6.400006533,1,0,0,1,20,180,3,1,,,,,,,,
,,,,,,,,,,,,,FF,,,,,,,,0.6006,,,,,,,,,,,,,,,,,,,,,,6102e390c456629247998554,61036f0b281811ea5cdbd8e3,2021-07-29_23h16.49.375,Simcolourproject_2stim_asymm_v5,2020.2.10,Win32,60,61025ae37ef11b136ea224fe,,,,,,,,,3739,26.40001184,63.99999452,1,0,0,response1disk,,7,20.00001174,-1.600006461,1,0,0,rectangle,20.00001174,-1.600006461,1,0,0,20.00001174,-1.600006461,1,0,0,1,21,181,16,1,,,,,,,,
,,,,,,,,,,,,,FF,,,,,,,,0.4669,,,,,,,,,,,,,,,,,,,,,,6102e390c456629247998554,61036f0b281811ea5cdbd8e3,2021-07-29_23h16.49.375,Simcolourproject_2stim_asymm_v5,2020.2.10,Win32,60,61025ae37ef11b136ea224fe,,,,,,,,,1423,33.60006077,77.59999472,1,0,0,response1disk,,7,8.000011563,7.19999367,1,0,0,rectangle,8.000011563,7.19999367,1,0,0,8.000011563,7.19999367,1,0,0,1,22,182,94,1,,,,,,,,
,,,,,,,,,,,,,FF,,,,,,,,1.0666,,,,,,,,,,,,,,,,,,,,,,6102e390c456629247998554,61036f0b281811ea5cdbd8e3,2021-07-29_23h16.49.375,Simcolourproject_2stim_asymm_v5,2020.2.10,Win32,60,61025ae37ef11b136ea224fe,,,,,,,,,3463,35.20001197,-90.40000778,1,0,0,response3disk,,4,20.80001175,15.9999938,1,0,0,rectangle,20.80001175,15.9999938,1,0,0,20.80001175,15.9999938,1,0,0,1,23,183,127,1,,,,,,,,
,,,,,,,,,,,,,FF,,,,,,,,0.4833,,,,,,,,,,,,,,,,,,,,,,6102e390c456629247998554,61036f0b281811ea5cdbd8e3,2021-07-29_23h16.49.375,Simcolourproject_2stim_asymm_v5,2020.2.10,Win32,60,61025ae37ef11b136ea224fe,,,,,,,,,1657,39.20001203,79.99999475,1,0,0,response1disk,,7,12.00001162,3.999993622,1,0,0,rectangle,-55.99998939,-105.6000568,1,0,0,-5.599988639,15.19999379,1,0,0,1,24,184,157,1,,response5disk_3,TRUE,3,3,"[161,43,11,239,44,6,40,103,192,25,47,57,161,285,19,246,185,58,300,178]",1.7331,rectangle
,,,,,,,,,,,,,FF,,,,,,,,0.6499,,,,,,,,,,,,,,,,,,,,,,6102e390c456629247998554,61036f0b281811ea5cdbd8e3,2021-07-29_23h16.49.375,Simcolourproject_2stim_asymm_v5,2020.2.10,Win32,60,61025ae37ef11b136ea224fe,,,,,,,,,1376,66.40001243,39.99999416,1,0,0,response1disk,,6,19.20001173,11.99999374,1,0,0,rectangle,19.20001173,11.99999374,1,0,0,19.20001173,11.99999374,1,0,0,1,25,185,29,1,,,,,,,,
,,,,,,,,,,,,,FF,,,,,,,,0.3159,,,,,,,,,,,,,,,,,,,,,,6102e390c456629247998554,61036f0b281811ea5cdbd8e3,2021-07-29_23h16.49.375,Simcolourproject_2stim_asymm_v5,2020.2.10,Win32,60,61025ae37ef11b136ea224fe,,,,,,,,,1642,31.20001191,73.59999466,1,0,0,response1disk,,7,7.200011551,-3.200006485,1,0,0,rectangle,7.200011551,-3.200006485,1,0,0,7.200011551,-3.200006485,1,0,0,1,26,186,49,1,,,,,,,,
,,,,,,,,,,,,,FF,,,,,,,,0.3667,,,,,,,,,,,,,,,,,,,,,,6102e390c456629247998554,61036f0b281811ea5cdbd8e3,2021-07-29_23h16.49.375,Simcolourproject_2stim_asymm_v5,2020.2.10,Win32,60,61025ae37ef11b136ea224fe,,,,,,,,,2870,30.4000119,64.79999453,1,0,0,response1disk,,7,7.200011551,-14.40000665,1,0,0,rectangle,7.200011551,-14.40000665,1,0,0,7.200011551,-14.40000665,1,0,0,1,27,187,48,1,,,,,,,,
,,,,,,,,,,,,,FF,,,,,,,,0.3673,,,,,,,,,,,,,,,,,,,,,,6102e390c456629247998554,61036f0b281811ea5cdbd8e3,2021-07-29_23h16.49.375,Simcolourproject_2stim_asymm_v5,2020.2.10,Win32,60,61025ae37ef11b136ea224fe,,,,,,,,,872,29.60006071,77.59999472,1,0,0,response1disk,,7,18.40001172,7.999993682,1,0,0,rectangle,18.40001172,7.999993682,1,0,0,18.40001172,7.999993682,1,0,0,1,28,188,113,1,,,,,,,,
,,,,,,,,,,,,,FF,,,,,,,,0.4831,,,,,,,,,,,,,,,,,,,,,,6102e390c456629247998554,61036f0b281811ea5cdbd8e3,2021-07-29_23h16.49.375,Simcolourproject_2stim_asymm_v5,2020.2.10,Win32,60,61025ae37ef11b136ea224fe,,,,,,,,,2177,36.80001199,62.39999449,1,0,0,response1disk,,7,13.60006047,-12.00000662,1,0,0,rectangle,13.60006047,-12.00000662,1,0,0,13.60006047,-12.00000662,1,0,0,1,29,189,59,1,,,,,,,,
,,,,,,,,,,,,,FF,,,,,,,,0.3666,,,,,,,,,,,,,,,,,,,,,,6102e390c456629247998554,61036f0b281811ea5cdbd8e3,2021-07-29_23h16.49.375,Simcolourproject_2stim_asymm_v5,2020.2.10,Win32,60,61025ae37ef11b136ea224fe,,,,,,,,,1839,36.80001199,79.99999475,1,0,0,response1disk,,7,4.000011504,-8.800006568,1,0,0,rectangle,4.000011504,-8.800006568,1,0,0,4.000011504,-8.800006568,1,0,0,1,30,190,153,1,,,,,,,,
,,,,,,,,,,,,,FF,,,,,,,,0.366,,,,,,,,,,,,,,,,,,,,,,6102e390c456629247998554,61036f0b281811ea5cdbd8e3,2021-07-29_23h16.49.375,Simcolourproject_2stim_asymm_v5,2020.2.10,Win32,60,61025ae37ef11b136ea224fe,,,,,,,,,2121,40.80001205,98.39999503,1,0,0,response1disk,,7,19.20001173,16.79999381,1,0,0,rectangle,-51.19998932,35.9999941,1,0,0,13.60006047,8.799993694,1,0,0,1,31,191,56,1,,response7disk_3,TRUE,1,1,"[161,43,11,239,44,6,40,103,192,25,47,57,161,285,19,246,185,58,300,178]",1.0987,rectangle
,,,,,,,,,,,,,FF,,,,,,,,0.5161,,,,,,,,,,,,,,,,,,,,,,6102e390c456629247998554,61036f0b281811ea5cdbd8e3,2021-07-29_23h16.49.375,Simcolourproject_2stim_asymm_v5,2020.2.10,Win32,60,61025ae37ef11b136ea224fe,,,,,,,,,114,41.60006089,51.99999434,1,0,0,response1disk,,7,21.60006059,1.599993587,1,0,0,rectangle,21.60006059,1.599993587,1,0,0,21.60006059,1.599993587,1,0,0,1,32,192,124,1,,,,,,,,
,,,,,,,,,,,,,FF,,,,,,,,0.5659,,,,,,,,,,,,,,,,,,,,,,6102e390c456629247998554,61036f0b281811ea5cdbd8e3,2021-07-29_23h16.49.375,Simcolourproject_2stim_asymm_v5,2020.2.10,Win32,60,61025ae37ef11b136ea224fe,,,,,,,,,1763,30.4000119,63.19997009,1,0,0,response1disk,,7,28.80001187,0.799993575,1,0,0,rectangle,28.80001187,0.799993575,1,0,0,28.80001187,0.799993575,1,0,0,1,33,193,92,1,,,,,,,,
,,,,,,,,,,,,,FF,,,,,,,,0.467,,,,,,,,,,,,,,,,,,,,,,6102e390c456629247998554,61036f0b281811ea5cdbd8e3,2021-07-29_23h16.49.375,Simcolourproject_2stim_asymm_v5,2020.2.10,Win32,60,61025ae37ef11b136ea224fe,,,,,,,,,1694,29.60006071,51.99999434,1,0,0,response1disk,,7,17.60006053,-4.000006497,1,0,0,rectangle,17.60006053,-4.000006497,1,0,0,17.60006053,-4.000006497,1,0,0,1,34,194,80,1,,,,,,,,
,,,,,,,,,,,,,FF,,,,,,,,0.6322,,,,,,,,,,,,,,,,,,,,,,6102e390c456629247998554,61036f0b281811ea5cdbd8e3,2021-07-29_23h16.49.375,Simcolourproject_2stim_asymm_v5,2020.2.10,Win32,60,61025ae37ef11b136ea224fe,,,,,,,,,1914,57.6000123,-39.20000702,1,0,0,response3disk,,5,8.800011575,-10.40000659,1,0,0,rectangle,8.800011575,-10.40000659,1,0,0,8.800011575,-10.40000659,1,0,0,1,35,195,47,1,,,,,,,,
,,,,,,,,,,,,,FF,,,,,,,,0.7171,,,,,,,,,,,,,,,,,,,,,,6102e390c456629247998554,61036f0b281811ea5cdbd8e3,2021-07-29_23h16.49.375,Simcolourproject_2stim_asymm_v5,2020.2.10,Win32,60,61025ae37ef11b136ea224fe,,,,,,,,,2139,44.0000121,51.19996991,1,0,0,response1disk,,7,14.40001166,1.599993587,1,0,0,rectangle,14.40001166,1.599993587,1,0,0,14.40001166,1.599993587,1,0,0,1,36,196,147,1,,,,,,,,
,,,,,,,,,,,,,FF,,,,,,,,1.1664,,,,,,,,,,,,,,,,,,,,,,6102e390c456629247998554,61036f0b281811ea5cdbd8e3,2021-07-29_23h16.49.375,Simcolourproject_2stim_asymm_v5,2020.2.10,Win32,60,61025ae37ef11b136ea224fe,,,,,,,,,3601,55.20001227,-28.00000685,1,0,0,response3disk,,5,16.80001169,-4.800006509,1,0,0,rectangle,16.80001169,-4.800006509,1,0,0,16.80001169,-4.800006509,1,0,0,1,37,197,50,1,,,,,,,,
,,,,,,,,,,,,,FF,,,,,,,,0.6659,,,,,,,,,,,,,,,,,,,,,,6102e390c456629247998554,61036f0b281811ea5cdbd8e3,2021-07-29_23h16.49.375,Simcolourproject_2stim_asymm_v5,2020.2.10,Win32,60,61025ae37ef11b136ea224fe,,,,,,,,,1674,-31.99998903,-75.20000756,1,0,0,response5disk,,3,-3.199988604,-7.200006545,1,0,0,rectangle,-3.199988604,-7.200006545,1,0,0,-3.199988604,-7.200006545,1,0,0,1,38,198,93,1,,,,,,,,
,,,,,,,,,,,,,FF,,,,,,,,0.8161,,,,,,,,,,,,,,,,,,,,,,6102e390c456629247998554,61036f0b281811ea5cdbd8e3,2021-07-29_23h16.49.375,Simcolourproject_2stim_asymm_v5,2020.2.10,Win32,60,61025ae37ef11b136ea224fe,,,,,,,,,2640,24.0000118,67.99999458,1,0,0,response1disk,,7,12.00001162,-10.40000659,1,0,0,rectangle,12.00001162,-10.40000659,1,0,0,12.00001162,-10.40000659,1,0,0,1,39,199,100,1,,,,,,,,
,,,,,,,,,,,,,FF,,,,,,,,0.9169,,,,,,,,,,,,,,,,,,,,,,6102e390c456629247998554,61036f0b281811ea5cdbd8e3,2021-07-29_23h16.49.375,Simcolourproject_2stim_asymm_v5,2020.2.10,Win32,60,61025ae37ef11b136ea224fe,,,,,,,,,3474,-70.39994078,-40.00000703,1,0,0,response5disk,,2,11.20001161,-6.400006533,1,0,0,rectangle,11.20001161,-6.400006533,1,0,0,11.20001161,-6.400006533,1,0,0,1,40,200,33,1,,,,,,,,
,,,,,,,,,,,,,FF,,,,,,,,0.583,,,,,,,,,,,,,,,,,,,,,,6102e390c456629247998554,61036f0b281811ea5cdbd8e3,2021-07-29_23h16.49.375,Simcolourproject_2stim_asymm_v5,2020.2.10,Win32,60,61025ae37ef11b136ea224fe,,,,,,,,,2227,-51.99998933,-36.80000699,1,0,0,response5disk,,2,9.600060415,-3.200006485,1,0,0,rectangle,9.600060415,-3.200006485,1,0,0,9.600060415,-3.200006485,1,0,0,1,41,201,35,1,,,,,,,,
,,,,,,,,,,,,,FF,,,,,,,,0.6665,,,,,,,,,,,,,,,,,,,,,,6102e390c456629247998554,61036f0b281811ea5cdbd8e3,2021-07-29_23h16.49.375,Simcolourproject_2stim_asymm_v5,2020.2.10,Win32,60,61025ae37ef11b136ea224fe,,,,,,,,,2725,-31.19998902,-48.80000716,1,0,0,response5disk,,3,-4.799988627,-6.400006533,1,0,0,rectangle,-4.799988627,-6.400006533,1,0,0,-4.799988627,-6.400006533,1,0,0,1,42,202,123,1,,,,,,,,
,,,,,,,,,,,,,FF,,,,,,,,1.1497,,,,,,,,,,,,,,,,,,,,,,6102e390c456629247998554,61036f0b281811ea5cdbd8e3,2021-07-29_23h16.49.375,Simcolourproject_2stim_asymm_v5,2020.2.10,Win32,60,61025ae37ef11b136ea224fe,,,,,,,,,1008,74.40001255,31.99999404,1,0,0,response1disk,,6,-6.399939823,-16.00000668,1,0,0,rectangle,-6.399939823,-16.00000668,1,0,0,-6.399939823,-16.00000668,1,0,0,1,43,203,38,1,,,,,,,,
,,,,,,,,,,,,,FF,,,,,,,,0.9158,,,,,,,,,,,,,,,,,,,,,,6102e390c456629247998554,61036f0b281811ea5cdbd8e3,2021-07-29_23h16.49.375,Simcolourproject_2stim_asymm_v5,2020.2.10,Win32,60,61025ae37ef11b136ea224fe,,,,,,,,,3877,37.60006083,-91.2000078,1,0,0,response3disk,,4,8.800011575,-6.4373E-06,1,0,0,rectangle,8.800011575,-6.4373E-06,1,0,0,8.800011575,-6.4373E-06,1,0,0,1,44,204,67,1,,,,,,,,
,,,,,,,,,,,,,FF,,,,,,,,0.6832,,,,,,,,,,,,,,,,,,,,,,6102e390c456629247998554,61036f0b281811ea5cdbd8e3,2021-07-29_23h16.49.375,Simcolourproject_2stim_asymm_v5,2020.2.10,Win32,60,61025ae37ef11b136ea224fe,,,,,,,,,4310,52.80001223,90.39999491,1,0,0,response1disk,,7,21.60006059,5.599993646,1,0,0,rectangle,21.60006059,5.599993646,1,0,0,21.60006059,5.599993646,1,0,0,1,45,205,115,1,,,,,,,,
,,,,,,,,,,,,,FF,,,,,,,,0.7167,,,,,,,,,,,,,,,,,,,,,,6102e390c456629247998554,61036f0b281811ea5cdbd8e3,2021-07-29_23h16.49.375,Simcolourproject_2stim_asymm_v5,2020.2.10,Win32,60,61025ae37ef11b136ea224fe,,,,,,,,,401,41.60006089,94.39999497,1,0,0,response1disk,,7,8.000011563,-6.4373E-06,1,0,0,rectangle,8.000011563,-6.4373E-06,1,0,0,8.000011563,-6.4373E-06,1,0,0,1,46,206,143,1,,,,,,,,
,,,,,,,,,,,,,FF,,,,,,,,0.5332,,,,,,,,,,,,,,,,,,,,,,6102e390c456629247998554,61036f0b281811ea5cdbd8e3,2021-07-29_23h16.49.375,Simcolourproject_2stim_asymm_v5,2020.2.10,Win32,60,61025ae37ef11b136ea224fe,,,,,,,,,3795,21.60006059,56.79999441,1,0,0,response1disk,,7,3.200011492,-6.4373E-06,1,0,0,rectangle,3.200011492,-6.4373E-06,1,0,0,3.200011492,-6.4373E-06,1,0,0,1,47,207,70,1,,,,,,,,
,,,,,,,,,,,,,FF,,,,,,,,2.1655,,,,,,,,,,,,,,,,,,,,,,6102e390c456629247998554,61036f0b281811ea5cdbd8e3,2021-07-29_23h16.49.375,Simcolourproject_2stim_asymm_v5,2020.2.10,Win32,60,61025ae37ef11b136ea224fe,,,,,,,,,4091,44.0000121,68.79999459,1,0,0,response1disk,,7,21.60006059,9.599993706,1,0,0,rectangle,21.60006059,9.599993706,1,0,0,21.60006059,9.599993706,1,0,0,1,48,208,141,1,,,,,,,,
,,,,,,,,,,,,,FF,,,,,,,,0.5492,,,,,,,,,,,,,,,,,,,,,,6102e390c456629247998554,61036f0b281811ea5cdbd8e3,2021-07-29_23h16.49.375,Simcolourproject_2stim_asymm_v5,2020.2.10,Win32,60,61025ae37ef11b136ea224fe,,,,,,,,,579,23.20001179,51.99999434,1,0,0,response1disk,,7,18.40001172,-2.400006473,1,0,0,rectangle,18.40001172,-2.400006473,1,0,0,18.40001172,-2.400006473,1,0,0,1,49,209,130,1,,,,,,,,
,,,,,,,,,,,,,FF,,,,,,,,0.4165,,,,,,,,,,,,,,,,,,,,,,6102e390c456629247998554,61036f0b281811ea5cdbd8e3,2021-07-29_23h16.49.375,Simcolourproject_2stim_asymm_v5,2020.2.10,Win32,60,61025ae37ef11b136ea224fe,,,,,,,,,1185,28.80001187,62.39999449,1,0,0,response1disk,,7,6.400011539,-3.200006485,1,0,0,rectangle,6.400011539,-3.200006485,1,0,0,6.400011539,-3.200006485,1,0,0,1,50,210,126,1,,,,,,,,
,,,,,,,,,,,,,FF,,,,,,,,0.4165,,,,,,,,,,,,,,,,,,,,,,6102e390c456629247998554,61036f0b281811ea5cdbd8e3,2021-07-29_23h16.49.375,Simcolourproject_2stim_asymm_v5,2020.2.10,Win32,60,61025ae37ef11b136ea224fe,,,,,,,,,4354,27.20001185,52.79999435,1,0,0,response1disk,,7,6.400011539,-1.600006461,1,0,0,rectangle,6.400011539,-1.600006461,1,0,0,6.400011539,-1.600006461,1,0,0,1,51,211,44,1,,,,,,,,
,,,,,,,,,,,,,FF,,,,,,,,0.5823,,,,,,,,,,,,,,,,,,,,,,6102e390c456629247998554,61036f0b281811ea5cdbd8e3,2021-07-29_23h16.49.375,Simcolourproject_2stim_asymm_v5,2020.2.10,Win32,60,61025ae37ef11b136ea224fe,,,,,,,,,3901,38.40001202,79.99999475,1,0,0,response1disk,,7,-3.199988604,1.599993587,1,0,0,rectangle,-3.199988604,1.599993587,1,0,0,-3.199988604,1.599993587,1,0,0,1,52,212,107,1,,,,,,,,
,,,,,,,,,,,,,FF,,,,,,,,0.3502,,,,,,,,,,,,,,,,,,,,,,6102e390c456629247998554,61036f0b281811ea5cdbd8e3,2021-07-29_23h16.49.375,Simcolourproject_2stim_asymm_v5,2020.2.10,Win32,60,61025ae37ef11b136ea224fe,,,,,,,,,2208,20.00001174,58.39999443,1,0,0,response1disk,,7,0.800011456,-2.400006473,1,0,0,rectangle,0.800011456,-2.400006473,1,0,0,0.800011456,-2.400006473,1,0,0,1,53,213,91,1,,,,,,,,
,,,,,,,,,,,,,FF,,,,,,,,0.6325,,,,,,,,,,,,,,,,,,,,,,6102e390c456629247998554,61036f0b281811ea5cdbd8e3,2021-07-29_23h16.49.375,Simcolourproject_2stim_asymm_v5,2020.2.10,Win32,60,61025ae37ef11b136ea224fe,,,,,,,,,2321,27.20001185,65.59999454,1,0,0,response1disk,,7,8.800011575,-12.00000662,1,0,0,rectangle,8.800011575,-12.00000662,1,0,0,8.800011575,-12.00000662,1,0,0,1,54,214,13,1,,,,,,,,
,,,,,,,,,,,,,FF,,,,,,,,0.2827,,,,,,,,,,,,,,,,,,,,,,6102e390c456629247998554,61036f0b281811ea5cdbd8e3,2021-07-29_23h16.49.375,Simcolourproject_2stim_asymm_v5,2020.2.10,Win32,60,61025ae37ef11b136ea224fe,,,,,,,,,2317,26.40001184,56.79999441,1,0,0,response1disk,,7,4.000011504,-2.400006473,1,0,0,rectangle,4.000011504,-2.400006473,1,0,0,4.000011504,-2.400006473,1,0,0,1,55,215,41,1,,,,,,,,
,,,,,,,,,,,,,FF,,,,,,,,0.3329,,,,,,,,,,,,,,,,,,,,,,6102e390c456629247998554,61036f0b281811ea5cdbd8e3,2021-07-29_23h16.49.375,Simcolourproject_2stim_asymm_v5,2020.2.10,Win32,60,61025ae37ef11b136ea224fe,,,,,,,,,2005,33.60006077,61.59999448,1,0,0,response1disk,,7,9.600060415,8.799993694,1,0,0,rectangle,9.600060415,8.799993694,1,0,0,9.600060415,8.799993694,1,0,0,1,56,216,82,1,,,,,,,,
,,,,,,,,,,,,,FF,,,,,,,,0.2172,,,,,,,,,,,,,,,,,,,,,,6102e390c456629247998554,61036f0b281811ea5cdbd8e3,2021-07-29_23h16.49.375,Simcolourproject_2stim_asymm_v5,2020.2.10,Win32,60,61025ae37ef11b136ea224fe,,,,,,,,,2653,26.40001184,61.59999448,1,0,0,response1disk,,7,10.4000116,3.19999361,1,0,0,rectangle,10.4000116,3.19999361,1,0,0,10.4000116,3.19999361,1,0,0,1,57,217,51,1,,,,,,,,
,,,,,,,,,,,,,FF,,,,,,,,1.1498,,,,,,,,,,,,,,,,,,,,,,6102e390c456629247998554,61036f0b281811ea5cdbd8e3,2021-07-29_23h16.49.375,Simcolourproject_2stim_asymm_v5,2020.2.10,Win32,60,61025ae37ef11b136ea224fe,,,,,,,,,1603,-59.19998944,35.19996967,1,0,0,response7disk,,1,-7.999988675,-1.600006461,1,0,0,rectangle,-7.999988675,-1.600006461,1,0,0,-7.999988675,-1.600006461,1,0,0,1,58,218,154,1,,,,,,,,
,,,,,,,,,,,,,FF,,,,,,,,0.8671,,,,,,,,,,,,,,,,,,,,,,6102e390c456629247998554,61036f0b281811ea5cdbd8e3,2021-07-29_23h16.49.375,Simcolourproject_2stim_asymm_v5,2020.2.10,Win32,60,61025ae37ef11b136ea224fe,,,,,,,,,2127,24.0000118,57.59999442,1,0,0,response1disk,,7,-2.399939764,-10.40000659,1,0,0,rectangle,-2.399939764,-10.40000659,1,0,0,-2.399939764,-10.40000659,1,0,0,1,59,219,81,1,,,,,,,,
,,,,,,,,,,,,,FF,,,,,,,,2.0671,,,,,,,,,,,,,,,,,,,,,,6102e390c456629247998554,61036f0b281811ea5cdbd8e3,2021-07-29_23h16.49.375,Simcolourproject_2stim_asymm_v5,2020.2.10,Win32,60,61025ae37ef11b136ea224fe,,,,,,,,,3218,33.60006077,75.9999947,1,0,0,response1disk,,7,0.800011456,7.19999367,1,0,0,rectangle,0.800011456,7.19999367,1,0,0,0.800011456,7.19999367,1,0,0,1,60,220,117,1,,,,,,,,
,,,,,,,,,,,,,FF,,,,,,,,0.3334,,,,,,,,,,,,,,,,,,,,,,6102e390c456629247998554,61036f0b281811ea5cdbd8e3,2021-07-29_23h16.49.375,Simcolourproject_2stim_asymm_v5,2020.2.10,Win32,60,61025ae37ef11b136ea224fe,,,,,,,,,1925,32.00001192,44.79999423,1,0,0,response1disk,,7,2.40001148,-6.4373E-06,1,0,0,rectangle,2.40001148,-6.4373E-06,1,0,0,2.40001148,-6.4373E-06,1,0,0,1,61,221,10,1,,,,,,,,
,,,,,,,,,,,,,FF,,,,,,,,0.2664,,,,,,,,,,,,,,,,,,,,,,6102e390c456629247998554,61036f0b281811ea5cdbd8e3,2021-07-29_23h16.49.375,Simcolourproject_2stim_asymm_v5,2020.2.10,Win32,60,61025ae37ef11b136ea224fe,,,,,,,,,658,30.4000119,56.79999441,1,0,0,response1disk,,7,9.600060415,11.99999374,1,0,0,rectangle,9.600060415,11.99999374,1,0,0,9.600060415,11.99999374,1,0,0,1,62,222,73,1,,,,,,,,
,,,,,,,,,,,,,FF,,,,,,,,0.7499,,,,,,,,,,,,,,,,,,,,,,6102e390c456629247998554,61036f0b281811ea5cdbd8e3,2021-07-29_23h16.49.375,Simcolourproject_2stim_asymm_v5,2020.2.10,Win32,60,61025ae37ef11b136ea224fe,,,,,,,,,9,95.20001286,-38.40000701,1,0,0,response3disk,,5,24.80001181,7.999993682,1,0,0,rectangle,24.80001181,7.999993682,1,0,0,24.80001181,7.999993682,1,0,0,1,63,223,111,1,,,,,,,,
,,,,,,,,,,,,,FF,,,,,,,,0.4829,,,,,,,,,,,,,,,,,,,,,,6102e390c456629247998554,61036f0b281811ea5cdbd8e3,2021-07-29_23h16.49.375,Simcolourproject_2stim_asymm_v5,2020.2.10,Win32,60,61025ae37ef11b136ea224fe,,,,,,,,,197,71.20001251,-33.60000694,1,0,0,response3disk,,5,21.60006059,-11.2000066,1,0,0,rectangle,21.60006059,-11.2000066,1,0,0,21.60006059,-11.2000066,1,0,0,1,64,224,58,1,,,,,,,,
,,,,,,,,,,,,,FF,,,,,,,,0.499,,,,,,,,,,,,,,,,,,,,,,6102e390c456629247998554,61036f0b281811ea5cdbd8e3,2021-07-29_23h16.49.375,Simcolourproject_2stim_asymm_v5,2020.2.10,Win32,60,61025ae37ef11b136ea224fe,,,,,,,,,2694,52.80001223,72.79999465,1,0,0,response1disk,,7,0.800011456,-6.4373E-06,1,0,0,rectangle,0.800011456,-6.4373E-06,1,0,0,0.800011456,-6.4373E-06,1,0,0,1,65,225,102,1,,,,,,,,
,,,,,,,,,,,,,FF,,,,,,,,0.7491,,,,,,,,,,,,,,,,,,,,,,6102e390c456629247998554,61036f0b281811ea5cdbd8e3,2021-07-29_23h16.49.375,Simcolourproject_2stim_asymm_v5,2020.2.10,Win32,60,61025ae37ef11b136ea224fe,,,,,,,,,4219,37.60006083,-65.60000741,1,0,0,response3disk,,4,0.800011456,4.799993634,1,0,0,rectangle,0.800011456,4.799993634,1,0,0,0.800011456,4.799993634,1,0,0,1,66,226,43,1,,,,,,,,
,,,,,,,,,,,,,FF,,,,,,,,0.4336,,,,,,,,,,,,,,,,,,,,,,6102e390c456629247998554,61036f0b281811ea5cdbd8e3,2021-07-29_23h16.49.375,Simcolourproject_2stim_asymm_v5,2020.2.10,Win32,60,61025ae37ef11b136ea224fe,,,,,,,,,4320,39.20001203,69.5999946,1,0,0,response1disk,,7,8.800011575,3.999993622,1,0,0,rectangle,8.800011575,3.999993622,1,0,0,8.800011575,3.999993622,1,0,0,1,67,227,99,1,,,,,,,,
,,,,,,,,,,,,,FF,,,,,,,,1.1004,,,,,,,,,,,,,,,,,,,,,,6102e390c456629247998554,61036f0b281811ea5cdbd8e3,2021-07-29_23h16.49.375,Simcolourproject_2stim_asymm_v5,2020.2.10,Win32,60,61025ae37ef11b136ea224fe,,,,,,,,,3503,31.20001191,-99.20000792,1,0,0,response3disk,,4,1.600060296,-3.200006485,1,0,0,rectangle,1.600060296,-3.200006485,1,0,0,1.600060296,-3.200006485,1,0,0,1,68,228,6,1,,,,,,,,
,,,,,,,,,,,,,FF,,,,,,,,1.3993,,,,,,,,,,,,,,,,,,,,,,6102e390c456629247998554,61036f0b281811ea5cdbd8e3,2021-07-29_23h16.49.375,Simcolourproject_2stim_asymm_v5,2020.2.10,Win32,60,61025ae37ef11b136ea224fe,,,,,,,,,3577,20.00001174,35.9999941,1,0,0,response1disk,,7,9.600060415,-16.00000668,1,0,0,rectangle,9.600060415,-16.00000668,1,0,0,9.600060415,-16.00000668,1,0,0,1,69,229,7,1,,,,,,,,
,,,,,,,,,,,,,FF,,,,,,,,0.9824,,,,,,,,,,,,,,,,,,,,,,6102e390c456629247998554,61036f0b281811ea5cdbd8e3,2021-07-29_23h16.49.375,Simcolourproject_2stim_asymm_v5,2020.2.10,Win32,60,61025ae37ef11b136ea224fe,,,,,,,,,897,63.20001239,22.3999939,1,0,0,response1disk,,6,1.600060296,-4.000006497,1,0,0,rectangle,1.600060296,-4.000006497,1,0,0,1.600060296,-4.000006497,1,0,0,1,70,230,128,1,,,,,,,,
,,,,,,,,,,,,,FF,,,,,,,,0.6164,,,,,,,,,,,,,,,,,,,,,,6102e390c456629247998554,61036f0b281811ea5cdbd8e3,2021-07-29_23h16.49.375,Simcolourproject_2stim_asymm_v5,2020.2.10,Win32,60,61025ae37ef11b136ea224fe,,,,,,,,,279,-51.19998932,-94.40000784,1,0,0,response5disk,,3,-9.599988699,-8.000006557,1,0,0,rectangle,-9.599988699,-8.000006557,1,0,0,-9.599988699,-8.000006557,1,0,0,1,71,231,148,1,,,,,,,,
,,,,,,,,,,,,,FF,,,,,,,,0.5164,,,,,,,,,,,,,,,,,,,,,,6102e390c456629247998554,61036f0b281811ea5cdbd8e3,2021-07-29_23h16.49.375,Simcolourproject_2stim_asymm_v5,2020.2.10,Win32,60,61025ae37ef11b136ea224fe,,,,,,,,,2994,-41.59998918,-84.8000077,1,0,0,response5disk,,3,-3.199988604,-12.80000663,1,0,0,rectangle,-3.199988604,-12.80000663,1,0,0,-3.199988604,-12.80000663,1,0,0,1,72,232,121,1,,,,,,,,
,,,,,,,,,,,,,FF,,,,,,,,0.433,,,,,,,,,,,,,,,,,,,,,,6102e390c456629247998554,61036f0b281811ea5cdbd8e3,2021-07-29_23h16.49.375,Simcolourproject_2stim_asymm_v5,2020.2.10,Win32,60,61025ae37ef11b136ea224fe,,,,,,,,,522,-39.99998915,-96.00000787,1,0,0,response5disk,,3,2.40001148,4.799993634,1,0,0,rectangle,2.40001148,4.799993634,1,0,0,2.40001148,4.799993634,1,0,0,1,73,233,75,1,,,,,,,,
,,,,,,,,,,,,,FF,,,,,,,,0.5163,,,,,,,,,,,,,,,,,,,,,,6102e390c456629247998554,61036f0b281811ea5cdbd8e3,2021-07-29_23h16.49.375,Simcolourproject_2stim_asymm_v5,2020.2.10,Win32,60,61025ae37ef11b136ea224fe,,,,,,,,,1594,24.80001181,70.39999461,1,0,0,response1disk,,7,4.000011504,-16.00000668,1,0,0,rectangle,4.000011504,-16.00000668,1,0,0,4.000011504,-16.00000668,1,0,0,1,74,234,30,1,,,,,,,,
,,,,,,,,,,,,,FF,,,,,,,,0.4491,,,,,,,,,,,,,,,,,,,,,,6102e390c456629247998554,61036f0b281811ea5cdbd8e3,2021-07-29_23h16.49.375,Simcolourproject_2stim_asymm_v5,2020.2.10,Win32,60,61025ae37ef11b136ea224fe,,,,,,,,,4268,-27.99998897,-66.40000743,1,0,0,response5disk,,3,-6.399939823,14.39999378,1,0,0,rectangle,-6.399939823,14.39999378,1,0,0,-6.399939823,14.39999378,1,0,0,1,75,235,90,1,,,,,,,,
,,,,,,,,,,,,,FF,,,,,,,,0.4992,,,,,,,,,,,,,,,,,,,,,,6102e390c456629247998554,61036f0b281811ea5cdbd8e3,2021-07-29_23h16.49.375,Simcolourproject_2stim_asymm_v5,2020.2.10,Win32,60,61025ae37ef11b136ea224fe,,,,,,,,,295,17.60006053,51.19996991,1,0,0,response1disk,,7,5.600060356,15.9999938,1,0,0,rectangle,5.600060356,15.9999938,1,0,0,5.600060356,15.9999938,1,0,0,1,76,236,122,1,,,,,,,,
,,,,,,,,,,,,,FF,,,,,,,,0.3835,,,,,,,,,,,,,,,,,,,,,,6102e390c456629247998554,61036f0b281811ea5cdbd8e3,2021-07-29_23h16.49.375,Simcolourproject_2stim_asymm_v5,2020.2.10,Win32,60,61025ae37ef11b136ea224fe,,,,,,,,,1519,44.80001211,84.79999483,1,0,0,response1disk,,7,22.40001178,9.599993706,1,0,0,rectangle,22.40001178,9.599993706,1,0,0,22.40001178,9.599993706,1,0,0,1,77,237,104,1,,,,,,,,
,,,,,,,,,,,,,FF,,,,,,,,2.1666,,,,,,,,,,,,,,,,,,,,,,6102e390c456629247998554,61036f0b281811ea5cdbd8e3,2021-07-29_23h16.49.375,Simcolourproject_2stim_asymm_v5,2020.2.10,Win32,60,61025ae37ef11b136ea224fe,,,,,,,,,3048,36.80001199,-81.60005648,1,0,0,response3disk,,4,4.000011504,-11.2000066,1,0,0,rectangle,108.0000131,-42.40000707,1,0,0,1.14441E-05,7.999993682,1,0,0,1,78,238,112,1,,response3disk_3,TRUE,5,5,"[161,43,11,239,44,6,40,103,192,25,47,57,161,285,19,246,185,58,300,178]",2.0987,rectangle
,,,,,,,,,,,,,FF,,,,,,,,0.6495,,,,,,,,,,,,,,,,,,,,,,6102e390c456629247998554,61036f0b281811ea5cdbd8e3,2021-07-29_23h16.49.375,Simcolourproject_2stim_asymm_v5,2020.2.10,Win32,60,61025ae37ef11b136ea224fe,,,,,,,,,2645,44.80001211,75.9999947,1,0,0,response1disk,,7,-7.999988675,-8.000006557,1,0,0,rectangle,-7.999988675,-8.000006557,1,0,0,-7.999988675,-8.000006557,1,0,0,1,79,239,83,1,,,,,,,,
,,,,,,,,,,,,,FF,,,,,,,,0.3992,,,,,,,,,,,,,,,,,,,,,,6102e390c456629247998554,61036f0b281811ea5cdbd8e3,2021-07-29_23h16.49.375,Simcolourproject_2stim_asymm_v5,2020.2.10,Win32,60,61025ae37ef11b136ea224fe,,,,,,,,,2441,25.60006065,55.9999944,1,0,0,response1disk,,7,3.200011492,-2.400006473,1,0,0,rectangle,3.200011492,-2.400006473,1,0,0,3.200011492,-2.400006473,1,0,0,1,80,240,27,1,,,,,,,,
,,,,,,,,,,,,,FF,,,,,,,,0.3663,,,,,,,,,,,,,,,,,,,,,,6102e390c456629247998554,61036f0b281811ea5cdbd8e3,2021-07-29_23h16.49.375,Simcolourproject_2stim_asymm_v5,2020.2.10,Win32,60,61025ae37ef11b136ea224fe,,,,,,,,,3527,29.60006071,64.79999453,1,0,0,response1disk,,7,-6.399939823,-10.40000659,1,0,0,rectangle,-6.399939823,-10.40000659,1,0,0,-6.399939823,-10.40000659,1,0,0,1,81,241,18,1,,,,,,,,
,,,,,,,,,,,,,FF,,,,,,,,0.4324,,,,,,,,,,,,,,,,,,,,,,6102e390c456629247998554,61036f0b281811ea5cdbd8e3,2021-07-29_23h16.49.375,Simcolourproject_2stim_asymm_v5,2020.2.10,Win32,60,61025ae37ef11b136ea224fe,,,,,,,,,1736,24.0000118,57.59999442,1,0,0,response1disk,,7,1.14441E-05,11.99999374,1,0,0,rectangle,1.14441E-05,11.99999374,1,0,0,1.14441E-05,11.99999374,1,0,0,1,82,242,98,1,,,,,,,,
,,,,,,,,,,,,,FF,,,,,,,,0.4833,,,,,,,,,,,,,,,,,,,,,,6102e390c456629247998554,61036f0b281811ea5cdbd8e3,2021-07-29_23h16.49.375,Simcolourproject_2stim_asymm_v5,2020.2.10,Win32,60,61025ae37ef11b136ea224fe,,,,,,,,,3728,22.40001178,52.79999435,1,0,0,response1disk,,7,8.800011575,16.79999381,1,0,0,rectangle,8.800011575,16.79999381,1,0,0,8.800011575,16.79999381,1,0,0,1,83,243,42,1,,,,,,,,
