key_resp.keys,key_resp.rt,key_resp_14.keys,key_resp_14.rt,key_resp_15.keys,key_resp_15.rt,key_resp_17.keys,key_resp_17.rt,key_resp_9.keys,key_resp_9.rt,key_resp_10.keys,key_resp_10.rt,practice_comparison,Ecc,mouse_5.x,mouse_5.y,mouse_5.leftButton,mouse_5.midButton,mouse_5.rightButton,mouse_5.clicked_name,pracsimilarity,response_time,mouse_10.x,mouse_10.y,mouse_10.leftButton,mouse_10.midButton,mouse_10.rightButton,mouse_10.clicked_name,mouse_7.x,mouse_7.y,mouse_7.leftButton,mouse_7.midButton,mouse_7.rightButton,mouse_6.x,mouse_6.y,mouse_6.leftButton,mouse_6.midButton,mouse_6.rightButton,duringprac.thisRepN,duringprac.thisTrialN,duringprac.thisN,duringprac.thisIndex,duringprac.ran,participant,session,date,expName,psychopyVersion,OS,frameRate,study_id,mouse_7.clicked_name,catchpracsimilarity,catch_response_time,catchnumberprac,catchtrialorderprac,mouse_6.clicked_name,key_resp_22.keys,key_resp_22.rt,realcomparison,mouse.x,mouse.y,mouse.leftButton,mouse.midButton,mouse.rightButton,mouse.clicked_name,Colour2,similarity,mouse_2.x,mouse_2.y,mouse_2.leftButton,mouse_2.midButton,mouse_2.rightButton,mouse_2.clicked_name,mouse_3.x,mouse_3.y,mouse_3.leftButton,mouse_3.midButton,mouse_3.rightButton,mouse_11.x,mouse_11.y,mouse_11.leftButton,mouse_11.midButton,mouse_11.rightButton,trials_2.thisRepN,trials_2.thisTrialN,trials_2.thisN,trials_2.thisIndex,trials_2.ran,Colour1,mouse_3.clicked_name,catchornah,catchsimilarity,catchnumber,catchtrialorder,catchRT,mouse_11.clicked_name
space,7.374,space,162.731,space,22.582,space,8.143,space,2.4,space,3.581,12,PF,-65,-26,1,0,0,response5disk_5,2,8.435,1,-6,1,0,0,rectangle_8,1,-6,1,0,0,1,-6,1,0,0,0,0,0,1,1,6102e3d449f429ddae848e98,61036d28cbde84e527310dcf,2021-07-29_23h10.00.516,Simcolourproject_2stim_asymm_v5,2020.2.10,MacIntel,60,61025ae37ef11b136ea224fe,,,,,,,,,,,,,,,,,,,,,,,,,,,,,,,,,,,,,,,,,,,,,,
,,,,,,,,,,,,36,PF,80,-36,1,0,0,response3disk_5,5,7.666,23,-2,1,0,0,rectangle_8,-19,-81,1,0,0,-1,-12,1,0,0,0,1,1,6,1,6102e3d449f429ddae848e98,61036d28cbde84e527310dcf,2021-07-29_23h10.00.516,Simcolourproject_2stim_asymm_v5,2020.2.10,MacIntel,60,61025ae37ef11b136ea224fe,response5disk_7,3,3.133,3,"[2,5]",rectangle_4,,,,,,,,,,,,,,,,,,,,,,,,,,,,,,,,,,,,,,,,
,,,,,,,,,,,,13,PF,-15,-73,1,0,0,response5disk_5,3,3.066,1,-5,1,0,0,rectangle_8,1,-5,1,0,0,1,-5,1,0,0,0,2,2,4,1,6102e3d449f429ddae848e98,61036d28cbde84e527310dcf,2021-07-29_23h10.00.516,Simcolourproject_2stim_asymm_v5,2020.2.10,MacIntel,60,61025ae37ef11b136ea224fe,,,,,,,,,,,,,,,,,,,,,,,,,,,,,,,,,,,,,,,,,,,,,,
,,,,,,,,,,,,80,FF,34,49,1,0,0,response1disk_5,7,1.501,3,5,1,0,0,rectangle_8,3,5,1,0,0,3,5,1,0,0,0,3,3,3,1,6102e3d449f429ddae848e98,61036d28cbde84e527310dcf,2021-07-29_23h10.00.516,Simcolourproject_2stim_asymm_v5,2020.2.10,MacIntel,60,61025ae37ef11b136ea224fe,,,,,,,,,,,,,,,,,,,,,,,,,,,,,,,,,,,,,,,,,,,,,,
,,,,,,,,,,,,137,FF,46,88,1,0,0,response1disk_5,7,1.05,10,10,1,0,0,rectangle_8,-28,-56,1,0,0,15,6,1,0,0,0,4,4,5,1,6102e3d449f429ddae848e98,61036d28cbde84e527310dcf,2021-07-29_23h10.00.516,Simcolourproject_2stim_asymm_v5,2020.2.10,MacIntel,60,61025ae37ef11b136ea224fe,response5disk_7,3,1.651,3,"[2,5]",rectangle_4,,,,,,,,,,,,,,,,,,,,,,,,,,,,,,,,,,,,,,,,
,,,,,,,,,,,,153,FF,-43,-66,1,0,0,response5disk_5,3,2.234,15,4,1,0,0,rectangle_8,15,4,1,0,0,15,4,1,0,0,0,5,5,0,1,6102e3d449f429ddae848e98,61036d28cbde84e527310dcf,2021-07-29_23h10.00.516,Simcolourproject_2stim_asymm_v5,2020.2.10,MacIntel,60,61025ae37ef11b136ea224fe,,,,,,,,,,,,,,,,,,,,,,,,,,,,,,,,,,,,,,,,,,,,,,
,,,,,,,,,,,,75,PF,-50,-75,1,0,0,response5disk_5,3,1.867,2,-3,1,0,0,rectangle_8,2,-3,1,0,0,2,-3,1,0,0,0,6,6,2,1,6102e3d449f429ddae848e98,61036d28cbde84e527310dcf,2021-07-29_23h10.00.516,Simcolourproject_2stim_asymm_v5,2020.2.10,MacIntel,60,61025ae37ef11b136ea224fe,,,,,,,,,,,,,,,,,,,,,,,,,,,,,,,,,,,,,,,,,,,,,,
,,,,,,,,,,,,,FF,,,,,,,,2.417,,,,,,,,,,,,,,,,,,,,,,6102e3d449f429ddae848e98,61036d28cbde84e527310dcf,2021-07-29_23h10.00.516,Simcolourproject_2stim_asymm_v5,2020.2.10,MacIntel,60,61025ae37ef11b136ea224fe,,,,,,,space,3.3,2993,-27,68,1,0,0,response7disk,,0,4,11,1,0,0,rectangle,4,11,1,0,0,4,11,1,0,0,0,0,0,26,1,,,,,,,,
,,,,,,,,,,,,,FF,,,,,,,,1.083,,,,,,,,,,,,,,,,,,,,,,6102e3d449f429ddae848e98,61036d28cbde84e527310dcf,2021-07-29_23h10.00.516,Simcolourproject_2stim_asymm_v5,2020.2.10,MacIntel,60,61025ae37ef11b136ea224fe,,,,,,,,,1190,31,-70,1,0,0,response3disk,,4,6,13,1,0,0,rectangle,6,13,1,0,0,6,13,1,0,0,0,1,1,36,1,,,,,,,,
,,,,,,,,,,,,,FF,,,,,,,,1.033,,,,,,,,,,,,,,,,,,,,,,6102e3d449f429ddae848e98,61036d28cbde84e527310dcf,2021-07-29_23h10.00.516,Simcolourproject_2stim_asymm_v5,2020.2.10,MacIntel,60,61025ae37ef11b136ea224fe,,,,,,,,,2179,54,-20,1,0,0,response3disk,,5,-3,6,1,0,0,rectangle,-3,6,1,0,0,-3,6,1,0,0,0,2,2,118,1,,,,,,,,
,,,,,,,,,,,,,FF,,,,,,,,2.2,,,,,,,,,,,,,,,,,,,,,,6102e3d449f429ddae848e98,61036d28cbde84e527310dcf,2021-07-29_23h10.00.516,Simcolourproject_2stim_asymm_v5,2020.2.10,MacIntel,60,61025ae37ef11b136ea224fe,,,,,,,,,4072,39,-81,1,0,0,response3disk,,4,-3,-1,1,0,0,rectangle,-3,-1,1,0,0,-3,-1,1,0,0,0,3,3,31,1,,,,,,,,
,,,,,,,,,,,,,FF,,,,,,,,1.116,,,,,,,,,,,,,,,,,,,,,,6102e3d449f429ddae848e98,61036d28cbde84e527310dcf,2021-07-29_23h10.00.516,Simcolourproject_2stim_asymm_v5,2020.2.10,MacIntel,60,61025ae37ef11b136ea224fe,,,,,,,,,4254,-32,-79,1,0,0,response5disk,,3,-3,14,1,0,0,rectangle,-3,14,1,0,0,-3,14,1,0,0,0,4,4,55,1,,,,,,,,
,,,,,,,,,,,,,FF,,,,,,,,1.216,,,,,,,,,,,,,,,,,,,,,,6102e3d449f429ddae848e98,61036d28cbde84e527310dcf,2021-07-29_23h10.00.516,Simcolourproject_2stim_asymm_v5,2020.2.10,MacIntel,60,61025ae37ef11b136ea224fe,,,,,,,,,2597,86,33,1,0,0,response1disk,,6,20,4,1,0,0,rectangle,20,4,1,0,0,20,4,1,0,0,0,5,5,71,1,,,,,,,,
,,,,,,,,,,,,,FF,,,,,,,,3.016,,,,,,,,,,,,,,,,,,,,,,6102e3d449f429ddae848e98,61036d28cbde84e527310dcf,2021-07-29_23h10.00.516,Simcolourproject_2stim_asymm_v5,2020.2.10,MacIntel,60,61025ae37ef11b136ea224fe,,,,,,,,,355,-67,-53,1,0,0,response5disk,,2,10,1,1,0,0,rectangle,10,1,1,0,0,10,1,1,0,0,0,6,6,83,1,,,,,,,,
,,,,,,,,,,,,,FF,,,,,,,,1.067,,,,,,,,,,,,,,,,,,,,,,6102e3d449f429ddae848e98,61036d28cbde84e527310dcf,2021-07-29_23h10.00.516,Simcolourproject_2stim_asymm_v5,2020.2.10,MacIntel,60,61025ae37ef11b136ea224fe,,,,,,,,,821,31,-49,1,0,0,response3disk,,4,16,-1,1,0,0,rectangle,16,-1,1,0,0,16,-1,1,0,0,0,7,7,79,1,,,,,,,,
,,,,,,,,,,,,,FF,,,,,,,,1.2,,,,,,,,,,,,,,,,,,,,,,6102e3d449f429ddae848e98,61036d28cbde84e527310dcf,2021-07-29_23h10.00.516,Simcolourproject_2stim_asymm_v5,2020.2.10,MacIntel,60,61025ae37ef11b136ea224fe,,,,,,,,,3841,35,80,1,0,0,response1disk,,7,10,13,1,0,0,rectangle,10,13,1,0,0,10,13,1,0,0,0,8,8,91,1,,,,,,,,
,,,,,,,,,,,,,FF,,,,,,,,1.333,,,,,,,,,,,,,,,,,,,,,,6102e3d449f429ddae848e98,61036d28cbde84e527310dcf,2021-07-29_23h10.00.516,Simcolourproject_2stim_asymm_v5,2020.2.10,MacIntel,60,61025ae37ef11b136ea224fe,,,,,,,,,3479,-38,-69,1,0,0,response5disk,,3,-7,-2,1,0,0,rectangle,-7,-2,1,0,0,-7,-2,1,0,0,0,9,9,109,1,,,,,,,,
,,,,,,,,,,,,,FF,,,,,,,,2.467,,,,,,,,,,,,,,,,,,,,,,6102e3d449f429ddae848e98,61036d28cbde84e527310dcf,2021-07-29_23h10.00.516,Simcolourproject_2stim_asymm_v5,2020.2.10,MacIntel,60,61025ae37ef11b136ea224fe,,,,,,,,,1817,-90,16,1,0,0,response7disk,,1,-20,9,1,0,0,rectangle,-20,9,1,0,0,-20,9,1,0,0,0,10,10,117,1,,,,,,,,
,,,,,,,,,,,,,FF,,,,,,,,1.083,,,,,,,,,,,,,,,,,,,,,,6102e3d449f429ddae848e98,61036d28cbde84e527310dcf,2021-07-29_23h10.00.516,Simcolourproject_2stim_asymm_v5,2020.2.10,MacIntel,60,61025ae37ef11b136ea224fe,,,,,,,,,4129,-71,-41,1,0,0,response5disk,,2,-18,-13,1,0,0,rectangle,-18,-13,1,0,0,-18,-13,1,0,0,0,11,11,77,1,,,,,,,,
,,,,,,,,,,,,,FF,,,,,,,,1.05,,,,,,,,,,,,,,,,,,,,,,6102e3d449f429ddae848e98,61036d28cbde84e527310dcf,2021-07-29_23h10.00.516,Simcolourproject_2stim_asymm_v5,2020.2.10,MacIntel,60,61025ae37ef11b136ea224fe,,,,,,,,,1983,66,89,1,0,0,response1disk,,7,12,2,1,0,0,rectangle,12,2,1,0,0,12,2,1,0,0,0,12,12,8,1,,,,,,,,
,,,,,,,,,,,,,FF,,,,,,,,2.434,,,,,,,,,,,,,,,,,,,,,,6102e3d449f429ddae848e98,61036d28cbde84e527310dcf,2021-07-29_23h10.00.516,Simcolourproject_2stim_asymm_v5,2020.2.10,MacIntel,60,61025ae37ef11b136ea224fe,,,,,,,,,982,-27,-73,1,0,0,response5disk,,3,21,7,1,0,0,rectangle,21,7,1,0,0,21,7,1,0,0,0,13,13,157,1,,,,,,,,
,,,,,,,,,,,,,FF,,,,,,,,1.166,,,,,,,,,,,,,,,,,,,,,,6102e3d449f429ddae848e98,61036d28cbde84e527310dcf,2021-07-29_23h10.00.516,Simcolourproject_2stim_asymm_v5,2020.2.10,MacIntel,60,61025ae37ef11b136ea224fe,,,,,,,,,1113,63,39,1,0,0,response1disk,,6,21,4,1,0,0,rectangle,21,4,1,0,0,21,4,1,0,0,0,14,14,74,1,,,,,,,,
,,,,,,,,,,,,,FF,,,,,,,,1.851,,,,,,,,,,,,,,,,,,,,,,6102e3d449f429ddae848e98,61036d28cbde84e527310dcf,2021-07-29_23h10.00.516,Simcolourproject_2stim_asymm_v5,2020.2.10,MacIntel,60,61025ae37ef11b136ea224fe,,,,,,,,,1381,-15,-73,1,0,0,response5disk,,3,7,-6,1,0,0,rectangle,7,-6,1,0,0,7,-6,1,0,0,0,15,15,60,1,,,,,,,,
,,,,,,,,,,,,,FF,,,,,,,,1.682,,,,,,,,,,,,,,,,,,,,,,6102e3d449f429ddae848e98,61036d28cbde84e527310dcf,2021-07-29_23h10.00.516,Simcolourproject_2stim_asymm_v5,2020.2.10,MacIntel,60,61025ae37ef11b136ea224fe,,,,,,,,,3641,82,34,1,0,0,response1disk,,6,8,-9,1,0,0,rectangle,8,-9,1,0,0,8,-9,1,0,0,0,16,16,22,1,,,,,,,,
,,,,,,,,,,,,,FF,,,,,,,,1.817,,,,,,,,,,,,,,,,,,,,,,6102e3d449f429ddae848e98,61036d28cbde84e527310dcf,2021-07-29_23h10.00.516,Simcolourproject_2stim_asymm_v5,2020.2.10,MacIntel,60,61025ae37ef11b136ea224fe,,,,,,,,,1116,57,-36,1,0,0,response3disk,,5,14,3,1,0,0,rectangle,14,3,1,0,0,14,3,1,0,0,0,17,17,112,1,,,,,,,,
,,,,,,,,,,,,,FF,,,,,,,,0.8,,,,,,,,,,,,,,,,,,,,,,6102e3d449f429ddae848e98,61036d28cbde84e527310dcf,2021-07-29_23h10.00.516,Simcolourproject_2stim_asymm_v5,2020.2.10,MacIntel,60,61025ae37ef11b136ea224fe,,,,,,,,,840,64,-41,1,0,0,response3disk,,5,8,-3,1,0,0,rectangle,8,-3,1,0,0,8,-3,1,0,0,0,18,18,19,1,,,,,,,,
,,,,,,,,,,,,,FF,,,,,,,,0.966,,,,,,,,,,,,,,,,,,,,,,6102e3d449f429ddae848e98,61036d28cbde84e527310dcf,2021-07-29_23h10.00.516,Simcolourproject_2stim_asymm_v5,2020.2.10,MacIntel,60,61025ae37ef11b136ea224fe,,,,,,,,,3126,64,29,1,0,0,response1disk,,6,13,8,1,0,0,rectangle,13,8,1,0,0,13,8,1,0,0,0,19,19,108,1,,,,,,,,
,,,,,,,,,,,,,FF,,,,,,,,3.4,,,,,,,,,,,,,,,,,,,,,,6102e3d449f429ddae848e98,61036d28cbde84e527310dcf,2021-07-29_23h10.00.516,Simcolourproject_2stim_asymm_v5,2020.2.10,MacIntel,60,61025ae37ef11b136ea224fe,,,,,,,,,915,54,-30,1,0,0,response3disk,,5,21,-8,1,0,0,rectangle,21,-8,1,0,0,21,-8,1,0,0,0,20,20,49,1,,,,,,,,
,,,,,,,,,,,,,FF,,,,,,,,1.233,,,,,,,,,,,,,,,,,,,,,,6102e3d449f429ddae848e98,61036d28cbde84e527310dcf,2021-07-29_23h10.00.516,Simcolourproject_2stim_asymm_v5,2020.2.10,MacIntel,60,61025ae37ef11b136ea224fe,,,,,,,,,121,76,-43,1,0,0,response3disk,,5,12,-14,1,0,0,rectangle,12,-14,1,0,0,12,-14,1,0,0,0,21,21,95,1,,,,,,,,
,,,,,,,,,,,,,FF,,,,,,,,1.167,,,,,,,,,,,,,,,,,,,,,,6102e3d449f429ddae848e98,61036d28cbde84e527310dcf,2021-07-29_23h10.00.516,Simcolourproject_2stim_asymm_v5,2020.2.10,MacIntel,60,61025ae37ef11b136ea224fe,,,,,,,,,1647,55,69,1,0,0,response1disk,,7,9,11,1,0,0,rectangle,9,11,1,0,0,9,11,1,0,0,0,22,22,110,1,,,,,,,,
,,,,,,,,,,,,,FF,,,,,,,,1.318,,,,,,,,,,,,,,,,,,,,,,6102e3d449f429ddae848e98,61036d28cbde84e527310dcf,2021-07-29_23h10.00.516,Simcolourproject_2stim_asymm_v5,2020.2.10,MacIntel,60,61025ae37ef11b136ea224fe,,,,,,,,,3424,-44,-75,1,0,0,response5disk,,3,3,-2,1,0,0,rectangle,3,-2,1,0,0,3,-2,1,0,0,0,23,23,34,1,,,,,,,,
,,,,,,,,,,,,,FF,,,,,,,,0.867,,,,,,,,,,,,,,,,,,,,,,6102e3d449f429ddae848e98,61036d28cbde84e527310dcf,2021-07-29_23h10.00.516,Simcolourproject_2stim_asymm_v5,2020.2.10,MacIntel,60,61025ae37ef11b136ea224fe,,,,,,,,,418,74,37,1,0,0,response1disk,,6,13,-1,1,0,0,rectangle,13,-1,1,0,0,13,-1,1,0,0,0,24,24,119,1,,,,,,,,
,,,,,,,,,,,,,FF,,,,,,,,1.267,,,,,,,,,,,,,,,,,,,,,,6102e3d449f429ddae848e98,61036d28cbde84e527310dcf,2021-07-29_23h10.00.516,Simcolourproject_2stim_asymm_v5,2020.2.10,MacIntel,60,61025ae37ef11b136ea224fe,,,,,,,,,353,-79,-33,1,0,0,response5disk,,2,3,-5,1,0,0,rectangle,3,-5,1,0,0,3,-5,1,0,0,0,25,25,7,1,,,,,,,,
,,,,,,,,,,,,,FF,,,,,,,,0.835,,,,,,,,,,,,,,,,,,,,,,6102e3d449f429ddae848e98,61036d28cbde84e527310dcf,2021-07-29_23h10.00.516,Simcolourproject_2stim_asymm_v5,2020.2.10,MacIntel,60,61025ae37ef11b136ea224fe,,,,,,,,,2998,-60,-37,1,0,0,response5disk,,2,-11,-8,1,0,0,rectangle,-11,-8,1,0,0,-11,-8,1,0,0,0,26,26,141,1,,,,,,,,
,,,,,,,,,,,,,FF,,,,,,,,1.5,,,,,,,,,,,,,,,,,,,,,,6102e3d449f429ddae848e98,61036d28cbde84e527310dcf,2021-07-29_23h10.00.516,Simcolourproject_2stim_asymm_v5,2020.2.10,MacIntel,60,61025ae37ef11b136ea224fe,,,,,,,,,550,-94,45,1,0,0,response7disk,,1,-21,-2,1,0,0,rectangle,-21,-2,1,0,0,-21,-2,1,0,0,0,27,27,89,1,,,,,,,,
,,,,,,,,,,,,,FF,,,,,,,,1.666,,,,,,,,,,,,,,,,,,,,,,6102e3d449f429ddae848e98,61036d28cbde84e527310dcf,2021-07-29_23h10.00.516,Simcolourproject_2stim_asymm_v5,2020.2.10,MacIntel,60,61025ae37ef11b136ea224fe,,,,,,,,,4178,44,89,1,0,0,response1disk,,7,9,1,1,0,0,rectangle,9,1,1,0,0,9,1,1,0,0,0,28,28,116,1,,,,,,,,
,,,,,,,,,,,,,FF,,,,,,,,3.1,,,,,,,,,,,,,,,,,,,,,,6102e3d449f429ddae848e98,61036d28cbde84e527310dcf,2021-07-29_23h10.00.516,Simcolourproject_2stim_asymm_v5,2020.2.10,MacIntel,60,61025ae37ef11b136ea224fe,,,,,,,,,2240,32,-73,1,0,0,response3disk,,4,9,0,1,0,0,rectangle,9,0,1,0,0,9,0,1,0,0,0,29,29,129,1,,,,,,,,
,,,,,,,,,,,,,FF,,,,,,,,0.951,,,,,,,,,,,,,,,,,,,,,,6102e3d449f429ddae848e98,61036d28cbde84e527310dcf,2021-07-29_23h10.00.516,Simcolourproject_2stim_asymm_v5,2020.2.10,MacIntel,60,61025ae37ef11b136ea224fe,,,,,,,,,3538,59,80,1,0,0,response1disk,,7,2,3,1,0,0,rectangle,2,3,1,0,0,2,3,1,0,0,0,30,30,9,1,,,,,,,,
,,,,,,,,,,,,,FF,,,,,,,,1.001,,,,,,,,,,,,,,,,,,,,,,6102e3d449f429ddae848e98,61036d28cbde84e527310dcf,2021-07-29_23h10.00.516,Simcolourproject_2stim_asymm_v5,2020.2.10,MacIntel,60,61025ae37ef11b136ea224fe,,,,,,,,,591,38,113,1,0,0,response1disk,,7,21,-8,1,0,0,rectangle,21,-8,1,0,0,21,-8,1,0,0,0,31,31,69,1,,,,,,,,
,,,,,,,,,,,,,FF,,,,,,,,1.217,,,,,,,,,,,,,,,,,,,,,,6102e3d449f429ddae848e98,61036d28cbde84e527310dcf,2021-07-29_23h10.00.516,Simcolourproject_2stim_asymm_v5,2020.2.10,MacIntel,60,61025ae37ef11b136ea224fe,,,,,,,,,2415,30,-70,1,0,0,response3disk,,4,3,-14,1,0,0,rectangle,3,-14,1,0,0,3,-14,1,0,0,0,32,32,127,1,,,,,,,,
,,,,,,,,,,,,,FF,,,,,,,,0.984,,,,,,,,,,,,,,,,,,,,,,6102e3d449f429ddae848e98,61036d28cbde84e527310dcf,2021-07-29_23h10.00.516,Simcolourproject_2stim_asymm_v5,2020.2.10,MacIntel,60,61025ae37ef11b136ea224fe,,,,,,,,,2312,68,39,1,0,0,response1disk,,6,21,5,1,0,0,rectangle,21,5,1,0,0,21,5,1,0,0,0,33,33,33,1,,,,,,,,
,,,,,,,,,,,,,FF,,,,,,,,1.118,,,,,,,,,,,,,,,,,,,,,,6102e3d449f429ddae848e98,61036d28cbde84e527310dcf,2021-07-29_23h10.00.516,Simcolourproject_2stim_asymm_v5,2020.2.10,MacIntel,60,61025ae37ef11b136ea224fe,,,,,,,,,3343,-33,-64,1,0,0,response5disk,,3,1,-8,1,0,0,rectangle,1,-8,1,0,0,1,-8,1,0,0,0,34,34,73,1,,,,,,,,
,,,,,,,,,,,,,FF,,,,,,,,0.933,,,,,,,,,,,,,,,,,,,,,,6102e3d449f429ddae848e98,61036d28cbde84e527310dcf,2021-07-29_23h10.00.516,Simcolourproject_2stim_asymm_v5,2020.2.10,MacIntel,60,61025ae37ef11b136ea224fe,,,,,,,,,235,86,27,1,0,0,response1disk,,6,15,11,1,0,0,rectangle,15,11,1,0,0,15,11,1,0,0,0,35,35,130,1,,,,,,,,
,,,,,,,,,,,,,FF,,,,,,,,1.1,,,,,,,,,,,,,,,,,,,,,,6102e3d449f429ddae848e98,61036d28cbde84e527310dcf,2021-07-29_23h10.00.516,Simcolourproject_2stim_asymm_v5,2020.2.10,MacIntel,60,61025ae37ef11b136ea224fe,,,,,,,,,1443,-24,-68,1,0,0,response5disk,,3,4,-9,1,0,0,rectangle,4,-9,1,0,0,4,-9,1,0,0,0,36,36,48,1,,,,,,,,
,,,,,,,,,,,,,FF,,,,,,,,0.967,,,,,,,,,,,,,,,,,,,,,,6102e3d449f429ddae848e98,61036d28cbde84e527310dcf,2021-07-29_23h10.00.516,Simcolourproject_2stim_asymm_v5,2020.2.10,MacIntel,60,61025ae37ef11b136ea224fe,,,,,,,,,3487,75,-27,1,0,0,response3disk,,5,5,6,1,0,0,rectangle,5,6,1,0,0,5,6,1,0,0,0,37,37,56,1,,,,,,,,
,,,,,,,,,,,,,FF,,,,,,,,1.549,,,,,,,,,,,,,,,,,,,,,,6102e3d449f429ddae848e98,61036d28cbde84e527310dcf,2021-07-29_23h10.00.516,Simcolourproject_2stim_asymm_v5,2020.2.10,MacIntel,60,61025ae37ef11b136ea224fe,,,,,,,,,560,80,-47,1,0,0,response3disk,,5,9,-8,1,0,0,rectangle,9,-8,1,0,0,9,-8,1,0,0,0,38,38,50,1,,,,,,,,
,,,,,,,,,,,,,FF,,,,,,,,0.933,,,,,,,,,,,,,,,,,,,,,,6102e3d449f429ddae848e98,61036d28cbde84e527310dcf,2021-07-29_23h10.00.516,Simcolourproject_2stim_asymm_v5,2020.2.10,MacIntel,60,61025ae37ef11b136ea224fe,,,,,,,,,4170,-51,-88,1,0,0,response5disk,,3,-4,-4,1,0,0,rectangle,-4,-4,1,0,0,-4,-4,1,0,0,0,39,39,134,1,,,,,,,,
,,,,,,,,,,,,,FF,,,,,,,,0.883,,,,,,,,,,,,,,,,,,,,,,6102e3d449f429ddae848e98,61036d28cbde84e527310dcf,2021-07-29_23h10.00.516,Simcolourproject_2stim_asymm_v5,2020.2.10,MacIntel,60,61025ae37ef11b136ea224fe,,,,,,,,,3260,69,39,1,0,0,response1disk,,6,7,3,1,0,0,rectangle,7,3,1,0,0,7,3,1,0,0,0,40,40,153,1,,,,,,,,
,,,,,,,,,,,,,FF,,,,,,,,0.983,,,,,,,,,,,,,,,,,,,,,,6102e3d449f429ddae848e98,61036d28cbde84e527310dcf,2021-07-29_23h10.00.516,Simcolourproject_2stim_asymm_v5,2020.2.10,MacIntel,60,61025ae37ef11b136ea224fe,,,,,,,,,2368,-43,-74,1,0,0,response5disk,,3,-3,-14,1,0,0,rectangle,-3,-14,1,0,0,-3,-14,1,0,0,0,41,41,24,1,,,,,,,,
,,,,,,,,,,,,,FF,,,,,,,,0.817,,,,,,,,,,,,,,,,,,,,,,6102e3d449f429ddae848e98,61036d28cbde84e527310dcf,2021-07-29_23h10.00.516,Simcolourproject_2stim_asymm_v5,2020.2.10,MacIntel,60,61025ae37ef11b136ea224fe,,,,,,,,,115,81,-18,1,0,0,response3disk,,5,23,-6,1,0,0,rectangle,23,-6,1,0,0,23,-6,1,0,0,0,42,42,146,1,,,,,,,,
,,,,,,,,,,,,,FF,,,,,,,,1.217,,,,,,,,,,,,,,,,,,,,,,6102e3d449f429ddae848e98,61036d28cbde84e527310dcf,2021-07-29_23h10.00.516,Simcolourproject_2stim_asymm_v5,2020.2.10,MacIntel,60,61025ae37ef11b136ea224fe,,,,,,,,,2632,72,54,1,0,0,response1disk,,6,-2,1,1,0,0,rectangle,-2,1,1,0,0,-2,1,1,0,0,0,43,43,64,1,,,,,,,,
,,,,,,,,,,,,,FF,,,,,,,,1.3,,,,,,,,,,,,,,,,,,,,,,6102e3d449f429ddae848e98,61036d28cbde84e527310dcf,2021-07-29_23h10.00.516,Simcolourproject_2stim_asymm_v5,2020.2.10,MacIntel,60,61025ae37ef11b136ea224fe,,,,,,,,,2215,55,31,1,0,0,response1disk,,6,-2,0,1,0,0,rectangle,-2,0,1,0,0,-2,0,1,0,0,0,44,44,106,1,,,,,,,,
,,,,,,,,,,,,,FF,,,,,,,,1.167,,,,,,,,,,,,,,,,,,,,,,6102e3d449f429ddae848e98,61036d28cbde84e527310dcf,2021-07-29_23h10.00.516,Simcolourproject_2stim_asymm_v5,2020.2.10,MacIntel,60,61025ae37ef11b136ea224fe,,,,,,,,,3261,85,-42,1,0,0,response3disk,,5,12,-1,1,0,0,rectangle,12,-1,1,0,0,12,-1,1,0,0,0,45,45,149,1,,,,,,,,
,,,,,,,,,,,,,FF,,,,,,,,1.033,,,,,,,,,,,,,,,,,,,,,,6102e3d449f429ddae848e98,61036d28cbde84e527310dcf,2021-07-29_23h10.00.516,Simcolourproject_2stim_asymm_v5,2020.2.10,MacIntel,60,61025ae37ef11b136ea224fe,,,,,,,,,2337,45,69,1,0,0,response1disk,,7,8,-7,1,0,0,rectangle,8,-7,1,0,0,8,-7,1,0,0,0,46,46,43,1,,,,,,,,
,,,,,,,,,,,,,FF,,,,,,,,1.467,,,,,,,,,,,,,,,,,,,,,,6102e3d449f429ddae848e98,61036d28cbde84e527310dcf,2021-07-29_23h10.00.516,Simcolourproject_2stim_asymm_v5,2020.2.10,MacIntel,60,61025ae37ef11b136ea224fe,,,,,,,,,2044,44,-66,1,0,0,response3disk,,4,15,-11,1,0,0,rectangle,15,-11,1,0,0,15,-11,1,0,0,0,47,47,151,1,,,,,,,,
,,,,,,,,,,,,,FF,,,,,,,,1.416,,,,,,,,,,,,,,,,,,,,,,6102e3d449f429ddae848e98,61036d28cbde84e527310dcf,2021-07-29_23h10.00.516,Simcolourproject_2stim_asymm_v5,2020.2.10,MacIntel,60,61025ae37ef11b136ea224fe,,,,,,,,,4,-62,-49,1,0,0,response5disk,,2,-9,-11,1,0,0,rectangle,-9,-11,1,0,0,-9,-11,1,0,0,0,48,48,87,1,,,,,,,,
,,,,,,,,,,,,,FF,,,,,,,,1.8,,,,,,,,,,,,,,,,,,,,,,6102e3d449f429ddae848e98,61036d28cbde84e527310dcf,2021-07-29_23h10.00.516,Simcolourproject_2stim_asymm_v5,2020.2.10,MacIntel,60,61025ae37ef11b136ea224fe,,,,,,,,,2143,84,38,1,0,0,response1disk,,6,4,-11,1,0,0,rectangle,4,-11,1,0,0,4,-11,1,0,0,0,49,49,6,1,,,,,,,,
,,,,,,,,,,,,,FF,,,,,,,,0.95,,,,,,,,,,,,,,,,,,,,,,6102e3d449f429ddae848e98,61036d28cbde84e527310dcf,2021-07-29_23h10.00.516,Simcolourproject_2stim_asymm_v5,2020.2.10,MacIntel,60,61025ae37ef11b136ea224fe,,,,,,,,,632,-55,-29,1,0,0,response5disk,,2,1,3,1,0,0,rectangle,1,3,1,0,0,1,3,1,0,0,0,50,50,84,1,,,,,,,,
,,,,,,,,,,,,,FF,,,,,,,,0.833,,,,,,,,,,,,,,,,,,,,,,6102e3d449f429ddae848e98,61036d28cbde84e527310dcf,2021-07-29_23h10.00.516,Simcolourproject_2stim_asymm_v5,2020.2.10,MacIntel,60,61025ae37ef11b136ea224fe,,,,,,,,,2441,39,63,1,0,0,response1disk,,7,-6,-14,1,0,0,rectangle,-6,-14,1,0,0,-6,-14,1,0,0,0,51,51,3,1,,,,,,,,
,,,,,,,,,,,,,FF,,,,,,,,2.332,,,,,,,,,,,,,,,,,,,,,,6102e3d449f429ddae848e98,61036d28cbde84e527310dcf,2021-07-29_23h10.00.516,Simcolourproject_2stim_asymm_v5,2020.2.10,MacIntel,60,61025ae37ef11b136ea224fe,,,,,,,,,3550,76,43,1,0,0,response1disk,,6,9,-1,1,0,0,rectangle,-79,-34,1,0,0,7,-6,1,0,0,0,52,52,128,1,,response5disk_3,TRUE,2,2,"[127,200,247,296,103,122,163,269,321,156,53,219,61,183,98,55,274,116,77,129]",1.917,rectangle
,,,,,,,,,,,,,FF,,,,,,,,1.366,,,,,,,,,,,,,,,,,,,,,,6102e3d449f429ddae848e98,61036d28cbde84e527310dcf,2021-07-29_23h10.00.516,Simcolourproject_2stim_asymm_v5,2020.2.10,MacIntel,60,61025ae37ef11b136ea224fe,,,,,,,,,4165,-22,-62,1,0,0,response5disk,,3,13,-2,1,0,0,rectangle,13,-2,1,0,0,13,-2,1,0,0,0,53,53,63,1,,,,,,,,
,,,,,,,,,,,,,FF,,,,,,,,6.033,,,,,,,,,,,,,,,,,,,,,,6102e3d449f429ddae848e98,61036d28cbde84e527310dcf,2021-07-29_23h10.00.516,Simcolourproject_2stim_asymm_v5,2020.2.10,MacIntel,60,61025ae37ef11b136ea224fe,,,,,,,,,2172,86,-30,1,0,0,response3disk,,5,-2,-7,1,0,0,rectangle,-35,-95,1,0,0,8,4,1,0,0,0,54,54,32,1,,response5disk_3,TRUE,3,3,"[127,200,247,296,103,122,163,269,321,156,53,219,61,183,98,55,274,116,77,129]",1.733,rectangle
,,,,,,,,,,,,,FF,,,,,,,,0.884,,,,,,,,,,,,,,,,,,,,,,6102e3d449f429ddae848e98,61036d28cbde84e527310dcf,2021-07-29_23h10.00.516,Simcolourproject_2stim_asymm_v5,2020.2.10,MacIntel,60,61025ae37ef11b136ea224fe,,,,,,,,,367,-67,-48,1,0,0,response5disk,,2,11,0,1,0,0,rectangle,11,0,1,0,0,11,0,1,0,0,0,55,55,126,1,,,,,,,,
,,,,,,,,,,,,,FF,,,,,,,,0.917,,,,,,,,,,,,,,,,,,,,,,6102e3d449f429ddae848e98,61036d28cbde84e527310dcf,2021-07-29_23h10.00.516,Simcolourproject_2stim_asymm_v5,2020.2.10,MacIntel,60,61025ae37ef11b136ea224fe,,,,,,,,,3328,-48,-94,1,0,0,response5disk,,3,-3,-6,1,0,0,rectangle,-3,-6,1,0,0,-3,-6,1,0,0,0,56,56,46,1,,,,,,,,
,,,,,,,,,,,,,FF,,,,,,,,1.4,,,,,,,,,,,,,,,,,,,,,,6102e3d449f429ddae848e98,61036d28cbde84e527310dcf,2021-07-29_23h10.00.516,Simcolourproject_2stim_asymm_v5,2020.2.10,MacIntel,60,61025ae37ef11b136ea224fe,,,,,,,,,1331,78,-33,1,0,0,response3disk,,5,25,-7,1,0,0,rectangle,25,-7,1,0,0,25,-7,1,0,0,0,57,57,18,1,,,,,,,,
,,,,,,,,,,,,,FF,,,,,,,,2.734,,,,,,,,,,,,,,,,,,,,,,6102e3d449f429ddae848e98,61036d28cbde84e527310dcf,2021-07-29_23h10.00.516,Simcolourproject_2stim_asymm_v5,2020.2.10,MacIntel,60,61025ae37ef11b136ea224fe,,,,,,,,,1490,31,-73,1,0,0,response3disk,,4,5,-11,1,0,0,rectangle,5,-11,1,0,0,5,-11,1,0,0,0,58,58,41,1,,,,,,,,
,,,,,,,,,,,,,FF,,,,,,,,5.167,,,,,,,,,,,,,,,,,,,,,,6102e3d449f429ddae848e98,61036d28cbde84e527310dcf,2021-07-29_23h10.00.516,Simcolourproject_2stim_asymm_v5,2020.2.10,MacIntel,60,61025ae37ef11b136ea224fe,,,,,,,,,1756,-17,-77,1,0,0,response5disk,,3,6,-10,1,0,0,rectangle,6,-10,1,0,0,6,-10,1,0,0,0,59,59,114,1,,,,,,,,
,,,,,,,,,,,,,FF,,,,,,,,1.184,,,,,,,,,,,,,,,,,,,,,,6102e3d449f429ddae848e98,61036d28cbde84e527310dcf,2021-07-29_23h10.00.516,Simcolourproject_2stim_asymm_v5,2020.2.10,MacIntel,60,61025ae37ef11b136ea224fe,,,,,,,,,3861,53,-77,1,0,0,response3disk,,4,7,-10,1,0,0,rectangle,78,24,1,0,0,-1,-6,1,0,0,0,60,60,150,1,,response1disk_3,TRUE,6,6,"[127,200,247,296,103,122,163,269,321,156,53,219,61,183,98,55,274,116,77,129]",1.649,rectangle
,,,,,,,,,,,,,FF,,,,,,,,2.984,,,,,,,,,,,,,,,,,,,,,,6102e3d449f429ddae848e98,61036d28cbde84e527310dcf,2021-07-29_23h10.00.516,Simcolourproject_2stim_asymm_v5,2020.2.10,MacIntel,60,61025ae37ef11b136ea224fe,,,,,,,,,1349,28,-56,1,0,0,response3disk,,4,4,-2,1,0,0,rectangle,4,-2,1,0,0,4,-2,1,0,0,0,61,61,62,1,,,,,,,,
,,,,,,,,,,,,,FF,,,,,,,,7.216,,,,,,,,,,,,,,,,,,,,,,6102e3d449f429ddae848e98,61036d28cbde84e527310dcf,2021-07-29_23h10.00.516,Simcolourproject_2stim_asymm_v5,2020.2.10,MacIntel,60,61025ae37ef11b136ea224fe,,,,,,,,,2842,37,-71,1,0,0,response3disk,,4,2,-8,1,0,0,rectangle,2,-8,1,0,0,2,-8,1,0,0,0,62,62,159,1,,,,,,,,
,,,,,,,,,,,,,FF,,,,,,,,0.85,,,,,,,,,,,,,,,,,,,,,,6102e3d449f429ddae848e98,61036d28cbde84e527310dcf,2021-07-29_23h10.00.516,Simcolourproject_2stim_asymm_v5,2020.2.10,MacIntel,60,61025ae37ef11b136ea224fe,,,,,,,,,4028,-34,-85,1,0,0,response5disk,,3,6,-4,1,0,0,rectangle,6,-4,1,0,0,6,-4,1,0,0,0,63,63,85,1,,,,,,,,
,,,,,,,,,,,,,FF,,,,,,,,0.933,,,,,,,,,,,,,,,,,,,,,,6102e3d449f429ddae848e98,61036d28cbde84e527310dcf,2021-07-29_23h10.00.516,Simcolourproject_2stim_asymm_v5,2020.2.10,MacIntel,60,61025ae37ef11b136ea224fe,,,,,,,,,1189,74,29,1,0,0,response1disk,,6,9,3,1,0,0,rectangle,9,3,1,0,0,9,3,1,0,0,0,64,64,65,1,,,,,,,,
,,,,,,,,,,,,,FF,,,,,,,,1.017,,,,,,,,,,,,,,,,,,,,,,6102e3d449f429ddae848e98,61036d28cbde84e527310dcf,2021-07-29_23h10.00.516,Simcolourproject_2stim_asymm_v5,2020.2.10,MacIntel,60,61025ae37ef11b136ea224fe,,,,,,,,,709,76,34,1,0,0,response1disk,,6,4,-11,1,0,0,rectangle,4,-11,1,0,0,4,-11,1,0,0,0,65,65,5,1,,,,,,,,
,,,,,,,,,,,,,FF,,,,,,,,1.117,,,,,,,,,,,,,,,,,,,,,,6102e3d449f429ddae848e98,61036d28cbde84e527310dcf,2021-07-29_23h10.00.516,Simcolourproject_2stim_asymm_v5,2020.2.10,MacIntel,60,61025ae37ef11b136ea224fe,,,,,,,,,3851,31,-67,1,0,0,response3disk,,4,2,-9,1,0,0,rectangle,2,-9,1,0,0,2,-9,1,0,0,0,66,66,92,1,,,,,,,,
,,,,,,,,,,,,,FF,,,,,,,,0.834,,,,,,,,,,,,,,,,,,,,,,6102e3d449f429ddae848e98,61036d28cbde84e527310dcf,2021-07-29_23h10.00.516,Simcolourproject_2stim_asymm_v5,2020.2.10,MacIntel,60,61025ae37ef11b136ea224fe,,,,,,,,,1233,32,-58,1,0,0,response3disk,,4,2,-2,1,0,0,rectangle,2,-2,1,0,0,2,-2,1,0,0,0,67,67,67,1,,,,,,,,
,,,,,,,,,,,,,FF,,,,,,,,1.3,,,,,,,,,,,,,,,,,,,,,,6102e3d449f429ddae848e98,61036d28cbde84e527310dcf,2021-07-29_23h10.00.516,Simcolourproject_2stim_asymm_v5,2020.2.10,MacIntel,60,61025ae37ef11b136ea224fe,,,,,,,,,1840,66,-44,1,0,0,response3disk,,5,12,-2,1,0,0,rectangle,12,-2,1,0,0,12,-2,1,0,0,0,68,68,121,1,,,,,,,,
,,,,,,,,,,,,,FF,,,,,,,,1.766,,,,,,,,,,,,,,,,,,,,,,6102e3d449f429ddae848e98,61036d28cbde84e527310dcf,2021-07-29_23h10.00.516,Simcolourproject_2stim_asymm_v5,2020.2.10,MacIntel,60,61025ae37ef11b136ea224fe,,,,,,,,,2987,-47,-75,1,0,0,response5disk,,3,0,-2,1,0,0,rectangle,0,-2,1,0,0,0,-2,1,0,0,0,69,69,37,1,,,,,,,,
,,,,,,,,,,,,,FF,,,,,,,,2.317,,,,,,,,,,,,,,,,,,,,,,6102e3d449f429ddae848e98,61036d28cbde84e527310dcf,2021-07-29_23h10.00.516,Simcolourproject_2stim_asymm_v5,2020.2.10,MacIntel,60,61025ae37ef11b136ea224fe,,,,,,,,,2404,52,-34,1,0,0,response3disk,,5,5,-1,1,0,0,rectangle,5,-1,1,0,0,5,-1,1,0,0,0,70,70,140,1,,,,,,,,
,,,,,,,,,,,,,FF,,,,,,,,1.25,,,,,,,,,,,,,,,,,,,,,,6102e3d449f429ddae848e98,61036d28cbde84e527310dcf,2021-07-29_23h10.00.516,Simcolourproject_2stim_asymm_v5,2020.2.10,MacIntel,60,61025ae37ef11b136ea224fe,,,,,,,,,4003,31,-88,1,0,0,response3disk,,4,4,-7,1,0,0,rectangle,4,-7,1,0,0,4,-7,1,0,0,0,71,71,57,1,,,,,,,,
,,,,,,,,,,,,,FF,,,,,,,,1.333,,,,,,,,,,,,,,,,,,,,,,6102e3d449f429ddae848e98,61036d28cbde84e527310dcf,2021-07-29_23h10.00.516,Simcolourproject_2stim_asymm_v5,2020.2.10,MacIntel,60,61025ae37ef11b136ea224fe,,,,,,,,,4355,80,37,1,0,0,response1disk,,6,20,-1,1,0,0,rectangle,20,-1,1,0,0,20,-1,1,0,0,0,72,72,107,1,,,,,,,,
,,,,,,,,,,,,,FF,,,,,,,,0.866,,,,,,,,,,,,,,,,,,,,,,6102e3d449f429ddae848e98,61036d28cbde84e527310dcf,2021-07-29_23h10.00.516,Simcolourproject_2stim_asymm_v5,2020.2.10,MacIntel,60,61025ae37ef11b136ea224fe,,,,,,,,,1546,76,24,1,0,0,response1disk,,6,18,5,1,0,0,rectangle,18,5,1,0,0,18,5,1,0,0,0,73,73,51,1,,,,,,,,
,,,,,,,,,,,,,FF,,,,,,,,1.584,,,,,,,,,,,,,,,,,,,,,,6102e3d449f429ddae848e98,61036d28cbde84e527310dcf,2021-07-29_23h10.00.516,Simcolourproject_2stim_asymm_v5,2020.2.10,MacIntel,60,61025ae37ef11b136ea224fe,,,,,,,,,88,61,29,1,0,0,response1disk,,6,15,6,1,0,0,rectangle,15,6,1,0,0,15,6,1,0,0,0,74,74,30,1,,,,,,,,
,,,,,,,,,,,,,FF,,,,,,,,1.534,,,,,,,,,,,,,,,,,,,,,,6102e3d449f429ddae848e98,61036d28cbde84e527310dcf,2021-07-29_23h10.00.516,Simcolourproject_2stim_asymm_v5,2020.2.10,MacIntel,60,61025ae37ef11b136ea224fe,,,,,,,,,3006,-35,-62,1,0,0,response5disk,,3,6,7,1,0,0,rectangle,6,7,1,0,0,6,7,1,0,0,0,75,75,138,1,,,,,,,,
,,,,,,,,,,,,,FF,,,,,,,,1.016,,,,,,,,,,,,,,,,,,,,,,6102e3d449f429ddae848e98,61036d28cbde84e527310dcf,2021-07-29_23h10.00.516,Simcolourproject_2stim_asymm_v5,2020.2.10,MacIntel,60,61025ae37ef11b136ea224fe,,,,,,,,,188,-65,-37,1,0,0,response5disk,,2,-2,1,1,0,0,rectangle,-80,45,1,0,0,-6,-5,1,0,0,0,76,76,103,1,,response7disk_3,TRUE,1,1,"[127,200,247,296,103,122,163,269,321,156,53,219,61,183,98,55,274,116,77,129]",1.582,rectangle
,,,,,,,,,,,,,FF,,,,,,,,0.918,,,,,,,,,,,,,,,,,,,,,,6102e3d449f429ddae848e98,61036d28cbde84e527310dcf,2021-07-29_23h10.00.516,Simcolourproject_2stim_asymm_v5,2020.2.10,MacIntel,60,61025ae37ef11b136ea224fe,,,,,,,,,1492,67,35,1,0,0,response1disk,,6,5,10,1,0,0,rectangle,5,10,1,0,0,5,10,1,0,0,0,77,77,27,1,,,,,,,,
,,,,,,,,,,,,,FF,,,,,,,,1.4,,,,,,,,,,,,,,,,,,,,,,6102e3d449f429ddae848e98,61036d28cbde84e527310dcf,2021-07-29_23h10.00.516,Simcolourproject_2stim_asymm_v5,2020.2.10,MacIntel,60,61025ae37ef11b136ea224fe,,,,,,,,,344,45,-22,1,0,0,response3disk,,5,14,-5,1,0,0,rectangle,14,-5,1,0,0,14,-5,1,0,0,0,78,78,20,1,,,,,,,,
,,,,,,,,,,,,,FF,,,,,,,,0.85,,,,,,,,,,,,,,,,,,,,,,6102e3d449f429ddae848e98,61036d28cbde84e527310dcf,2021-07-29_23h10.00.516,Simcolourproject_2stim_asymm_v5,2020.2.10,MacIntel,60,61025ae37ef11b136ea224fe,,,,,,,,,3668,-35,87,1,0,0,response7disk,,0,-9,7,1,0,0,rectangle,-9,7,1,0,0,-9,7,1,0,0,0,79,79,137,1,,,,,,,,
,,,,,,,,,,,,,FF,,,,,,,,2.05,,,,,,,,,,,,,,,,,,,,,,6102e3d449f429ddae848e98,61036d28cbde84e527310dcf,2021-07-29_23h10.00.516,Simcolourproject_2stim_asymm_v5,2020.2.10,MacIntel,60,61025ae37ef11b136ea224fe,,,,,,,,,2870,87,43,1,0,0,response1disk,,6,12,16,1,0,0,rectangle,12,16,1,0,0,12,16,1,0,0,0,80,80,70,1,,,,,,,,
,,,,,,,,,,,,,FF,,,,,,,,1.334,,,,,,,,,,,,,,,,,,,,,,6102e3d449f429ddae848e98,61036d28cbde84e527310dcf,2021-07-29_23h10.00.516,Simcolourproject_2stim_asymm_v5,2020.2.10,MacIntel,60,61025ae37ef11b136ea224fe,,,,,,,,,1536,-58,-36,1,0,0,response5disk,,2,6,-2,1,0,0,rectangle,6,-2,1,0,0,6,-2,1,0,0,0,81,81,14,1,,,,,,,,
,,,,,,,,,,,,,FF,,,,,,,,0.85,,,,,,,,,,,,,,,,,,,,,,6102e3d449f429ddae848e98,61036d28cbde84e527310dcf,2021-07-29_23h10.00.516,Simcolourproject_2stim_asymm_v5,2020.2.10,MacIntel,60,61025ae37ef11b136ea224fe,,,,,,,,,3899,-64,-45,1,0,0,response5disk,,2,-12,-14,1,0,0,rectangle,-12,-14,1,0,0,-12,-14,1,0,0,0,82,82,10,1,,,,,,,,
,,,,,,,,,,,,,FF,,,,,,,,4.534,,,,,,,,,,,,,,,,,,,,,,6102e3d449f429ddae848e98,61036d28cbde84e527310dcf,2021-07-29_23h10.00.516,Simcolourproject_2stim_asymm_v5,2020.2.10,MacIntel,60,61025ae37ef11b136ea224fe,,,,,,,,,3665,40,-56,1,0,0,response3disk,,4,-2,-4,1,0,0,rectangle,-2,-4,1,0,0,-2,-4,1,0,0,0,83,83,68,1,,,,,,,,
,,,,,,,,,,,,,FF,,,,,,,,0.883,,,,,,,,,,,,,,,,,,,,,,6102e3d449f429ddae848e98,61036d28cbde84e527310dcf,2021-07-29_23h10.00.516,Simcolourproject_2stim_asymm_v5,2020.2.10,MacIntel,60,61025ae37ef11b136ea224fe,,,,,,,,,2324,44,94,1,0,0,response1disk,,7,-2,-2,1,0,0,rectangle,-2,-2,1,0,0,-2,-2,1,0,0,0,84,84,113,1,,,,,,,,
,,,,,,,,,,,,,FF,,,,,,,,0.901,,,,,,,,,,,,,,,,,,,,,,6102e3d449f429ddae848e98,61036d28cbde84e527310dcf,2021-07-29_23h10.00.516,Simcolourproject_2stim_asymm_v5,2020.2.10,MacIntel,60,61025ae37ef11b136ea224fe,,,,,,,,,4102,-64,-38,1,0,0,response5disk,,2,-17,-9,1,0,0,rectangle,-17,-9,1,0,0,-17,-9,1,0,0,0,85,85,4,1,,,,,,,,
,,,,,,,,,,,,,FF,,,,,,,,2.334,,,,,,,,,,,,,,,,,,,,,,6102e3d449f429ddae848e98,61036d28cbde84e527310dcf,2021-07-29_23h10.00.516,Simcolourproject_2stim_asymm_v5,2020.2.10,MacIntel,60,61025ae37ef11b136ea224fe,,,,,,,,,2127,73,50,1,0,0,response1disk,,6,3,11,1,0,0,rectangle,3,11,1,0,0,3,11,1,0,0,0,86,86,38,1,,,,,,,,
,,,,,,,,,,,,,FF,,,,,,,,0.733,,,,,,,,,,,,,,,,,,,,,,6102e3d449f429ddae848e98,61036d28cbde84e527310dcf,2021-07-29_23h10.00.516,Simcolourproject_2stim_asymm_v5,2020.2.10,MacIntel,60,61025ae37ef11b136ea224fe,,,,,,,,,3195,-30,77,1,0,0,response7disk,,0,-14,11,1,0,0,rectangle,-14,11,1,0,0,-14,11,1,0,0,0,87,87,12,1,,,,,,,,
,,,,,,,,,,,,,FF,,,,,,,,1.1,,,,,,,,,,,,,,,,,,,,,,6102e3d449f429ddae848e98,61036d28cbde84e527310dcf,2021-07-29_23h10.00.516,Simcolourproject_2stim_asymm_v5,2020.2.10,MacIntel,60,61025ae37ef11b136ea224fe,,,,,,,,,3278,75,41,1,0,0,response1disk,,6,18,-11,1,0,0,rectangle,18,-11,1,0,0,18,-11,1,0,0,0,88,88,120,1,,,,,,,,
,,,,,,,,,,,,,FF,,,,,,,,0.901,,,,,,,,,,,,,,,,,,,,,,6102e3d449f429ddae848e98,61036d28cbde84e527310dcf,2021-07-29_23h10.00.516,Simcolourproject_2stim_asymm_v5,2020.2.10,MacIntel,60,61025ae37ef11b136ea224fe,,,,,,,,,3161,-30,-56,1,0,0,response5disk,,3,3,-5,1,0,0,rectangle,3,-5,1,0,0,3,-5,1,0,0,0,89,89,156,1,,,,,,,,
,,,,,,,,,,,,,FF,,,,,,,,2.334,,,,,,,,,,,,,,,,,,,,,,6102e3d449f429ddae848e98,61036d28cbde84e527310dcf,2021-07-29_23h10.00.516,Simcolourproject_2stim_asymm_v5,2020.2.10,MacIntel,60,61025ae37ef11b136ea224fe,,,,,,,,,4332,86,30,1,0,0,response1disk,,6,13,13,1,0,0,rectangle,13,13,1,0,0,13,13,1,0,0,0,90,90,11,1,,,,,,,,
,,,,,,,,,,,,,FF,,,,,,,,1.898,,,,,,,,,,,,,,,,,,,,,,6102e3d449f429ddae848e98,61036d28cbde84e527310dcf,2021-07-29_23h10.00.516,Simcolourproject_2stim_asymm_v5,2020.2.10,MacIntel,60,61025ae37ef11b136ea224fe,,,,,,,,,1434,26,-54,1,0,0,response3disk,,4,8,-5,1,0,0,rectangle,8,-5,1,0,0,8,-5,1,0,0,0,91,91,124,1,,,,,,,,
,,,,,,,,,,,,,FF,,,,,,,,1.167,,,,,,,,,,,,,,,,,,,,,,6102e3d449f429ddae848e98,61036d28cbde84e527310dcf,2021-07-29_23h10.00.516,Simcolourproject_2stim_asymm_v5,2020.2.10,MacIntel,60,61025ae37ef11b136ea224fe,,,,,,,,,1437,57,-83,1,0,0,response3disk,,4,15,-10,1,0,0,rectangle,15,-10,1,0,0,15,-10,1,0,0,0,92,92,76,1,,,,,,,,
,,,,,,,,,,,,,FF,,,,,,,,0.999,,,,,,,,,,,,,,,,,,,,,,6102e3d449f429ddae848e98,61036d28cbde84e527310dcf,2021-07-29_23h10.00.516,Simcolourproject_2stim_asymm_v5,2020.2.10,MacIntel,60,61025ae37ef11b136ea224fe,,,,,,,,,2458,32,62,1,0,0,response1disk,,7,0,-2,1,0,0,rectangle,0,-2,1,0,0,0,-2,1,0,0,0,93,93,102,1,,,,,,,,
,,,,,,,,,,,,,FF,,,,,,,,1.467,,,,,,,,,,,,,,,,,,,,,,6102e3d449f429ddae848e98,61036d28cbde84e527310dcf,2021-07-29_23h10.00.516,Simcolourproject_2stim_asymm_v5,2020.2.10,MacIntel,60,61025ae37ef11b136ea224fe,,,,,,,,,613,-64,33,1,0,0,response7disk,,1,-14,9,1,0,0,rectangle,-14,9,1,0,0,-14,9,1,0,0,0,94,94,97,1,,,,,,,,
,,,,,,,,,,,,,FF,,,,,,,,0.917,,,,,,,,,,,,,,,,,,,,,,6102e3d449f429ddae848e98,61036d28cbde84e527310dcf,2021-07-29_23h10.00.516,Simcolourproject_2stim_asymm_v5,2020.2.10,MacIntel,60,61025ae37ef11b136ea224fe,,,,,,,,,3469,-81,34,1,0,0,response7disk,,1,-11,-7,1,0,0,rectangle,-11,-7,1,0,0,-11,-7,1,0,0,0,95,95,78,1,,,,,,,,
,,,,,,,,,,,,,FF,,,,,,,,0.75,,,,,,,,,,,,,,,,,,,,,,6102e3d449f429ddae848e98,61036d28cbde84e527310dcf,2021-07-29_23h10.00.516,Simcolourproject_2stim_asymm_v5,2020.2.10,MacIntel,60,61025ae37ef11b136ea224fe,,,,,,,,,3972,-67,26,1,0,0,response7disk,,1,-9,-1,1,0,0,rectangle,-9,-1,1,0,0,-9,-1,1,0,0,0,96,96,132,1,,,,,,,,
,,,,,,,,,,,,,FF,,,,,,,,0.851,,,,,,,,,,,,,,,,,,,,,,6102e3d449f429ddae848e98,61036d28cbde84e527310dcf,2021-07-29_23h10.00.516,Simcolourproject_2stim_asymm_v5,2020.2.10,MacIntel,60,61025ae37ef11b136ea224fe,,,,,,,,,379,70,15,1,0,0,response1disk,,6,7,-5,1,0,0,rectangle,37,-67,1,0,0,0,0,1,0,0,0,97,97,42,1,,response3disk_3,TRUE,4,4,"[127,200,247,296,103,122,163,269,321,156,53,219,61,183,98,55,274,116,77,129]",1.799,rectangle
,,,,,,,,,,,,,FF,,,,,,,,0.901,,,,,,,,,,,,,,,,,,,,,,6102e3d449f429ddae848e98,61036d28cbde84e527310dcf,2021-07-29_23h10.00.516,Simcolourproject_2stim_asymm_v5,2020.2.10,MacIntel,60,61025ae37ef11b136ea224fe,,,,,,,,,3518,-61,-26,1,0,0,response5disk,,2,-8,-12,1,0,0,rectangle,-8,-12,1,0,0,-8,-12,1,0,0,0,98,98,1,1,,,,,,,,
,,,,,,,,,,,,,FF,,,,,,,,2.884,,,,,,,,,,,,,,,,,,,,,,6102e3d449f429ddae848e98,61036d28cbde84e527310dcf,2021-07-29_23h10.00.516,Simcolourproject_2stim_asymm_v5,2020.2.10,MacIntel,60,61025ae37ef11b136ea224fe,,,,,,,,,3678,-30,-64,1,0,0,response5disk,,3,5,-5,1,0,0,rectangle,5,-5,1,0,0,5,-5,1,0,0,0,99,99,88,1,,,,,,,,
,,,,,,,,,,,,,FF,,,,,,,,0.967,,,,,,,,,,,,,,,,,,,,,,6102e3d449f429ddae848e98,61036d28cbde84e527310dcf,2021-07-29_23h10.00.516,Simcolourproject_2stim_asymm_v5,2020.2.10,MacIntel,60,61025ae37ef11b136ea224fe,,,,,,,,,1130,38,99,1,0,0,response1disk,,7,3,14,1,0,0,rectangle,3,14,1,0,0,3,14,1,0,0,0,100,100,80,1,,,,,,,,
,,,,,,,,,,,,,FF,,,,,,,,1.15,,,,,,,,,,,,,,,,,,,,,,6102e3d449f429ddae848e98,61036d28cbde84e527310dcf,2021-07-29_23h10.00.516,Simcolourproject_2stim_asymm_v5,2020.2.10,MacIntel,60,61025ae37ef11b136ea224fe,,,,,,,,,4311,64,39,1,0,0,response1disk,,6,-4,-5,1,0,0,rectangle,-4,-5,1,0,0,-4,-5,1,0,0,0,101,101,93,1,,,,,,,,
,,,,,,,,,,,,,FF,,,,,,,,1.367,,,,,,,,,,,,,,,,,,,,,,6102e3d449f429ddae848e98,61036d28cbde84e527310dcf,2021-07-29_23h10.00.516,Simcolourproject_2stim_asymm_v5,2020.2.10,MacIntel,60,61025ae37ef11b136ea224fe,,,,,,,,,1055,-80,-44,1,0,0,response5disk,,2,5,4,1,0,0,rectangle,-77,28,1,0,0,-25,6,1,0,0,0,102,102,155,1,,response7disk_3,TRUE,1,1,"[127,200,247,296,103,122,163,269,321,156,53,219,61,183,98,55,274,116,77,129]",1.599,rectangle
,,,,,,,,,,,,,FF,,,,,,,,2.268,,,,,,,,,,,,,,,,,,,,,,6102e3d449f429ddae848e98,61036d28cbde84e527310dcf,2021-07-29_23h10.00.516,Simcolourproject_2stim_asymm_v5,2020.2.10,MacIntel,60,61025ae37ef11b136ea224fe,,,,,,,,,1502,72,-37,1,0,0,response3disk,,5,0,3,1,0,0,rectangle,0,3,1,0,0,0,3,1,0,0,0,103,103,152,1,,,,,,,,
,,,,,,,,,,,,,FF,,,,,,,,0.915,,,,,,,,,,,,,,,,,,,,,,6102e3d449f429ddae848e98,61036d28cbde84e527310dcf,2021-07-29_23h10.00.516,Simcolourproject_2stim_asymm_v5,2020.2.10,MacIntel,60,61025ae37ef11b136ea224fe,,,,,,,,,2727,-66,-45,1,0,0,response5disk,,2,-3,-8,1,0,0,rectangle,-3,-8,1,0,0,-3,-8,1,0,0,0,104,104,81,1,,,,,,,,
,,,,,,,,,,,,,FF,,,,,,,,5.95,,,,,,,,,,,,,,,,,,,,,,6102e3d449f429ddae848e98,61036d28cbde84e527310dcf,2021-07-29_23h10.00.516,Simcolourproject_2stim_asymm_v5,2020.2.10,MacIntel,60,61025ae37ef11b136ea224fe,,,,,,,,,1650,27,-59,1,0,0,response3disk,,4,-6,8,1,0,0,rectangle,-6,8,1,0,0,-6,8,1,0,0,0,105,105,61,1,,,,,,,,
,,,,,,,,,,,,,FF,,,,,,,,0.817,,,,,,,,,,,,,,,,,,,,,,6102e3d449f429ddae848e98,61036d28cbde84e527310dcf,2021-07-29_23h10.00.516,Simcolourproject_2stim_asymm_v5,2020.2.10,MacIntel,60,61025ae37ef11b136ea224fe,,,,,,,,,3158,-79,-37,1,0,0,response5disk,,2,-15,-8,1,0,0,rectangle,-15,-8,1,0,0,-15,-8,1,0,0,0,106,106,136,1,,,,,,,,
,,,,,,,,,,,,,FF,,,,,,,,1.633,,,,,,,,,,,,,,,,,,,,,,6102e3d449f429ddae848e98,61036d28cbde84e527310dcf,2021-07-29_23h10.00.516,Simcolourproject_2stim_asymm_v5,2020.2.10,MacIntel,60,61025ae37ef11b136ea224fe,,,,,,,,,4153,77,21,1,0,0,response1disk,,6,23,3,1,0,0,rectangle,23,3,1,0,0,23,3,1,0,0,0,107,107,147,1,,,,,,,,
,,,,,,,,,,,,,FF,,,,,,,,0.75,,,,,,,,,,,,,,,,,,,,,,6102e3d449f429ddae848e98,61036d28cbde84e527310dcf,2021-07-29_23h10.00.516,Simcolourproject_2stim_asymm_v5,2020.2.10,MacIntel,60,61025ae37ef11b136ea224fe,,,,,,,,,4019,68,25,1,0,0,response1disk,,6,13,-4,1,0,0,rectangle,13,-4,1,0,0,13,-4,1,0,0,0,108,108,123,1,,,,,,,,
,,,,,,,,,,,,,FF,,,,,,,,5.017,,,,,,,,,,,,,,,,,,,,,,6102e3d449f429ddae848e98,61036d28cbde84e527310dcf,2021-07-29_23h10.00.516,Simcolourproject_2stim_asymm_v5,2020.2.10,MacIntel,60,61025ae37ef11b136ea224fe,,,,,,,,,2400,27,-68,1,0,0,response3disk,,4,-6,-5,1,0,0,rectangle,-6,-5,1,0,0,-6,-5,1,0,0,0,109,109,122,1,,,,,,,,
,,,,,,,,,,,,,FF,,,,,,,,1.084,,,,,,,,,,,,,,,,,,,,,,6102e3d449f429ddae848e98,61036d28cbde84e527310dcf,2021-07-29_23h10.00.516,Simcolourproject_2stim_asymm_v5,2020.2.10,MacIntel,60,61025ae37ef11b136ea224fe,,,,,,,,,2666,-24,-71,1,0,0,response5disk,,3,3,-15,1,0,0,rectangle,3,-15,1,0,0,3,-15,1,0,0,0,110,110,94,1,,,,,,,,
,,,,,,,,,,,,,FF,,,,,,,,9.933,,,,,,,,,,,,,,,,,,,,,,6102e3d449f429ddae848e98,61036d28cbde84e527310dcf,2021-07-29_23h10.00.516,Simcolourproject_2stim_asymm_v5,2020.2.10,MacIntel,60,61025ae37ef11b136ea224fe,,,,,,,,,3982,-29,-67,1,0,0,response5disk,,3,-1,4,1,0,0,rectangle,-1,4,1,0,0,-1,4,1,0,0,0,111,111,47,1,,,,,,,,
,,,,,,,,,,,,,FF,,,,,,,,3.867,,,,,,,,,,,,,,,,,,,,,,6102e3d449f429ddae848e98,61036d28cbde84e527310dcf,2021-07-29_23h10.00.516,Simcolourproject_2stim_asymm_v5,2020.2.10,MacIntel,60,61025ae37ef11b136ea224fe,,,,,,,,,850,35,-65,1,0,0,response3disk,,4,13,-9,1,0,0,rectangle,13,-9,1,0,0,13,-9,1,0,0,0,112,112,52,1,,,,,,,,
,,,,,,,,,,,,,FF,,,,,,,,1.567,,,,,,,,,,,,,,,,,,,,,,6102e3d449f429ddae848e98,61036d28cbde84e527310dcf,2021-07-29_23h10.00.516,Simcolourproject_2stim_asymm_v5,2020.2.10,MacIntel,60,61025ae37ef11b136ea224fe,,,,,,,,,654,59,-34,1,0,0,response3disk,,5,11,1,1,0,0,rectangle,11,1,1,0,0,11,1,1,0,0,0,113,113,28,1,,,,,,,,
,,,,,,,,,,,,,FF,,,,,,,,0.9,,,,,,,,,,,,,,,,,,,,,,6102e3d449f429ddae848e98,61036d28cbde84e527310dcf,2021-07-29_23h10.00.516,Simcolourproject_2stim_asymm_v5,2020.2.10,MacIntel,60,61025ae37ef11b136ea224fe,,,,,,,,,2293,-38,-76,1,0,0,response5disk,,3,-12,3,1,0,0,rectangle,-12,3,1,0,0,-12,3,1,0,0,0,114,114,158,1,,,,,,,,
,,,,,,,,,,,,,FF,,,,,,,,1.467,,,,,,,,,,,,,,,,,,,,,,6102e3d449f429ddae848e98,61036d28cbde84e527310dcf,2021-07-29_23h10.00.516,Simcolourproject_2stim_asymm_v5,2020.2.10,MacIntel,60,61025ae37ef11b136ea224fe,,,,,,,,,4034,-34,-69,1,0,0,response5disk,,3,7,-3,1,0,0,rectangle,-63,-34,1,0,0,18,0,1,0,0,0,115,115,75,1,,response5disk_3,TRUE,2,2,"[127,200,247,296,103,122,163,269,321,156,53,219,61,183,98,55,274,116,77,129]",2.185,rectangle
,,,,,,,,,,,,,FF,,,,,,,,0.783,,,,,,,,,,,,,,,,,,,,,,6102e3d449f429ddae848e98,61036d28cbde84e527310dcf,2021-07-29_23h10.00.516,Simcolourproject_2stim_asymm_v5,2020.2.10,MacIntel,60,61025ae37ef11b136ea224fe,,,,,,,,,288,59,-27,1,0,0,response3disk,,5,3,1,1,0,0,rectangle,3,1,1,0,0,3,1,1,0,0,0,116,116,82,1,,,,,,,,
,,,,,,,,,,,,,FF,,,,,,,,1.35,,,,,,,,,,,,,,,,,,,,,,6102e3d449f429ddae848e98,61036d28cbde84e527310dcf,2021-07-29_23h10.00.516,Simcolourproject_2stim_asymm_v5,2020.2.10,MacIntel,60,61025ae37ef11b136ea224fe,,,,,,,,,3002,70,-55,1,0,0,response3disk,,5,3,-10,1,0,0,rectangle,3,-10,1,0,0,3,-10,1,0,0,0,117,117,23,1,,,,,,,,
,,,,,,,,,,,,,FF,,,,,,,,0.65,,,,,,,,,,,,,,,,,,,,,,6102e3d449f429ddae848e98,61036d28cbde84e527310dcf,2021-07-29_23h10.00.516,Simcolourproject_2stim_asymm_v5,2020.2.10,MacIntel,60,61025ae37ef11b136ea224fe,,,,,,,,,2036,-25,-61,1,0,0,response5disk,,3,5,-2,1,0,0,rectangle,5,-2,1,0,0,5,-2,1,0,0,0,118,118,40,1,,,,,,,,
,,,,,,,,,,,,,FF,,,,,,,,0.85,,,,,,,,,,,,,,,,,,,,,,6102e3d449f429ddae848e98,61036d28cbde84e527310dcf,2021-07-29_23h10.00.516,Simcolourproject_2stim_asymm_v5,2020.2.10,MacIntel,60,61025ae37ef11b136ea224fe,,,,,,,,,152,72,-20,1,0,0,response3disk,,5,24,-2,1,0,0,rectangle,24,-2,1,0,0,24,-2,1,0,0,0,119,119,16,1,,,,,,,,
,,,,,,,,,,,,,FF,,,,,,,,1.433,,,,,,,,,,,,,,,,,,,,,,6102e3d449f429ddae848e98,61036d28cbde84e527310dcf,2021-07-29_23h10.00.516,Simcolourproject_2stim_asymm_v5,2020.2.10,MacIntel,60,61025ae37ef11b136ea224fe,,,,,,,,,2085,-19,-70,1,0,0,response5disk,,3,-6,-11,1,0,0,rectangle,-6,-11,1,0,0,-6,-11,1,0,0,0,120,120,115,1,,,,,,,,
,,,,,,,,,,,,,FF,,,,,,,,0.967,,,,,,,,,,,,,,,,,,,,,,6102e3d449f429ddae848e98,61036d28cbde84e527310dcf,2021-07-29_23h10.00.516,Simcolourproject_2stim_asymm_v5,2020.2.10,MacIntel,60,61025ae37ef11b136ea224fe,,,,,,,,,849,77,30,1,0,0,response1disk,,6,32,11,1,0,0,rectangle,-28,81,1,0,0,0,3,1,0,0,0,121,121,21,1,,response7disk_3,TRUE,0,0,"[127,200,247,296,103,122,163,269,321,156,53,219,61,183,98,55,274,116,77,129]",1.999,rectangle
,,,,,,,,,,,,,FF,,,,,,,,1,,,,,,,,,,,,,,,,,,,,,,6102e3d449f429ddae848e98,61036d28cbde84e527310dcf,2021-07-29_23h10.00.516,Simcolourproject_2stim_asymm_v5,2020.2.10,MacIntel,60,61025ae37ef11b136ea224fe,,,,,,,,,2414,-29,-72,1,0,0,response5disk,,3,3,-7,1,0,0,rectangle,3,-7,1,0,0,3,-7,1,0,0,0,122,122,90,1,,,,,,,,
,,,,,,,,,,,,,FF,,,,,,,,1.216,,,,,,,,,,,,,,,,,,,,,,6102e3d449f429ddae848e98,61036d28cbde84e527310dcf,2021-07-29_23h10.00.516,Simcolourproject_2stim_asymm_v5,2020.2.10,MacIntel,60,61025ae37ef11b136ea224fe,,,,,,,,,91,48,-65,1,0,0,response3disk,,4,20,-4,1,0,0,rectangle,20,-4,1,0,0,20,-4,1,0,0,0,123,123,58,1,,,,,,,,
,,,,,,,,,,,,,FF,,,,,,,,1,,,,,,,,,,,,,,,,,,,,,,6102e3d449f429ddae848e98,61036d28cbde84e527310dcf,2021-07-29_23h10.00.516,Simcolourproject_2stim_asymm_v5,2020.2.10,MacIntel,60,61025ae37ef11b136ea224fe,,,,,,,,,104,-20,-54,1,0,0,response5disk,,3,1,0,1,0,0,rectangle,1,0,1,0,0,1,0,1,0,0,0,124,124,99,1,,,,,,,,
,,,,,,,,,,,,,FF,,,,,,,,0.8,,,,,,,,,,,,,,,,,,,,,,6102e3d449f429ddae848e98,61036d28cbde84e527310dcf,2021-07-29_23h10.00.516,Simcolourproject_2stim_asymm_v5,2020.2.10,MacIntel,60,61025ae37ef11b136ea224fe,,,,,,,,,2498,75,42,1,0,0,response1disk,,6,7,3,1,0,0,rectangle,7,3,1,0,0,7,3,1,0,0,0,125,125,144,1,,,,,,,,
,,,,,,,,,,,,,FF,,,,,,,,1.033,,,,,,,,,,,,,,,,,,,,,,6102e3d449f429ddae848e98,61036d28cbde84e527310dcf,2021-07-29_23h10.00.516,Simcolourproject_2stim_asymm_v5,2020.2.10,MacIntel,60,61025ae37ef11b136ea224fe,,,,,,,,,2885,80,47,1,0,0,response1disk,,6,19,15,1,0,0,rectangle,-27,-61,1,0,0,0,-3,1,0,0,0,126,126,111,1,,response5disk_3,TRUE,3,3,"[127,200,247,296,103,122,163,269,321,156,53,219,61,183,98,55,274,116,77,129]",1.584,rectangle
,,,,,,,,,,,,,FF,,,,,,,,2.917,,,,,,,,,,,,,,,,,,,,,,6102e3d449f429ddae848e98,61036d28cbde84e527310dcf,2021-07-29_23h10.00.516,Simcolourproject_2stim_asymm_v5,2020.2.10,MacIntel,60,61025ae37ef11b136ea224fe,,,,,,,,,2043,27,-50,1,0,0,response3disk,,4,4,-10,1,0,0,rectangle,4,-10,1,0,0,4,-10,1,0,0,0,127,127,54,1,,,,,,,,
,,,,,,,,,,,,,FF,,,,,,,,1.534,,,,,,,,,,,,,,,,,,,,,,6102e3d449f429ddae848e98,61036d28cbde84e527310dcf,2021-07-29_23h10.00.516,Simcolourproject_2stim_asymm_v5,2020.2.10,MacIntel,60,61025ae37ef11b136ea224fe,,,,,,,,,2492,31,-76,1,0,0,response3disk,,4,3,-2,1,0,0,rectangle,76,-34,1,0,0,7,-4,1,0,0,0,128,128,45,1,,response3disk_3,TRUE,5,5,"[127,200,247,296,103,122,163,269,321,156,53,219,61,183,98,55,274,116,77,129]",2.167,rectangle
,,,,,,,,,,,,,FF,,,,,,,,3.999,,,,,,,,,,,,,,,,,,,,,,6102e3d449f429ddae848e98,61036d28cbde84e527310dcf,2021-07-29_23h10.00.516,Simcolourproject_2stim_asymm_v5,2020.2.10,MacIntel,60,61025ae37ef11b136ea224fe,,,,,,,,,1284,-39,-83,1,0,0,response5disk,,3,7,-7,1,0,0,rectangle,7,-7,1,0,0,7,-7,1,0,0,0,129,129,17,1,,,,,,,,
,,,,,,,,,,,,,FF,,,,,,,,1.35,,,,,,,,,,,,,,,,,,,,,,6102e3d449f429ddae848e98,61036d28cbde84e527310dcf,2021-07-29_23h10.00.516,Simcolourproject_2stim_asymm_v5,2020.2.10,MacIntel,60,61025ae37ef11b136ea224fe,,,,,,,,,2924,76,-23,1,0,0,response3disk,,5,-2,-3,1,0,0,rectangle,-2,-3,1,0,0,-2,-3,1,0,0,0,130,130,100,1,,,,,,,,
,,,,,,,,,,,,,FF,,,,,,,,1.099,,,,,,,,,,,,,,,,,,,,,,6102e3d449f429ddae848e98,61036d28cbde84e527310dcf,2021-07-29_23h10.00.516,Simcolourproject_2stim_asymm_v5,2020.2.10,MacIntel,60,61025ae37ef11b136ea224fe,,,,,,,,,3934,-18,-49,1,0,0,response5disk,,3,4,-3,1,0,0,rectangle,4,-3,1,0,0,4,-3,1,0,0,0,131,131,39,1,,,,,,,,
,,,,,,,,,,,,,FF,,,,,,,,2.75,,,,,,,,,,,,,,,,,,,,,,6102e3d449f429ddae848e98,61036d28cbde84e527310dcf,2021-07-29_23h10.00.516,Simcolourproject_2stim_asymm_v5,2020.2.10,MacIntel,60,61025ae37ef11b136ea224fe,,,,,,,,,3836,83,-30,1,0,0,response3disk,,5,2,-4,1,0,0,rectangle,2,-4,1,0,0,2,-4,1,0,0,0,132,132,135,1,,,,,,,,
,,,,,,,,,,,,,FF,,,,,,,,1.05,,,,,,,,,,,,,,,,,,,,,,6102e3d449f429ddae848e98,61036d28cbde84e527310dcf,2021-07-29_23h10.00.516,Simcolourproject_2stim_asymm_v5,2020.2.10,MacIntel,60,61025ae37ef11b136ea224fe,,,,,,,,,1679,32,-80,1,0,0,response3disk,,4,4,-6,1,0,0,rectangle,4,-6,1,0,0,4,-6,1,0,0,0,133,133,96,1,,,,,,,,
,,,,,,,,,,,,,FF,,,,,,,,3.984,,,,,,,,,,,,,,,,,,,,,,6102e3d449f429ddae848e98,61036d28cbde84e527310dcf,2021-07-29_23h10.00.516,Simcolourproject_2stim_asymm_v5,2020.2.10,MacIntel,60,61025ae37ef11b136ea224fe,,,,,,,,,1008,27,-66,1,0,0,response3disk,,4,-5,-11,1,0,0,rectangle,-5,-11,1,0,0,-5,-11,1,0,0,0,134,134,125,1,,,,,,,,
,,,,,,,,,,,,,FF,,,,,,,,0.834,,,,,,,,,,,,,,,,,,,,,,6102e3d449f429ddae848e98,61036d28cbde84e527310dcf,2021-07-29_23h10.00.516,Simcolourproject_2stim_asymm_v5,2020.2.10,MacIntel,60,61025ae37ef11b136ea224fe,,,,,,,,,3137,36,77,1,0,0,response1disk,,7,3,5,1,0,0,rectangle,3,5,1,0,0,3,5,1,0,0,0,135,135,86,1,,,,,,,,
,,,,,,,,,,,,,FF,,,,,,,,1.001,,,,,,,,,,,,,,,,,,,,,,6102e3d449f429ddae848e98,61036d28cbde84e527310dcf,2021-07-29_23h10.00.516,Simcolourproject_2stim_asymm_v5,2020.2.10,MacIntel,60,61025ae37ef11b136ea224fe,,,,,,,,,2615,-38,79,1,0,0,response7disk,,0,-9,5,1,0,0,rectangle,-9,5,1,0,0,-9,5,1,0,0,0,136,136,0,1,,,,,,,,
,,,,,,,,,,,,,FF,,,,,,,,1.066,,,,,,,,,,,,,,,,,,,,,,6102e3d449f429ddae848e98,61036d28cbde84e527310dcf,2021-07-29_23h10.00.516,Simcolourproject_2stim_asymm_v5,2020.2.10,MacIntel,60,61025ae37ef11b136ea224fe,,,,,,,,,1165,-60,-20,1,0,0,response5disk,,2,-14,-10,1,0,0,rectangle,-14,-10,1,0,0,-14,-10,1,0,0,0,137,137,105,1,,,,,,,,
,,,,,,,,,,,,,FF,,,,,,,,1.166,,,,,,,,,,,,,,,,,,,,,,6102e3d449f429ddae848e98,61036d28cbde84e527310dcf,2021-07-29_23h10.00.516,Simcolourproject_2stim_asymm_v5,2020.2.10,MacIntel,60,61025ae37ef11b136ea224fe,,,,,,,,,1846,73,-36,1,0,0,response3disk,,5,25,-1,1,0,0,rectangle,25,-1,1,0,0,25,-1,1,0,0,0,138,138,142,1,,,,,,,,
,,,,,,,,,,,,,FF,,,,,,,,3.383,,,,,,,,,,,,,,,,,,,,,,6102e3d449f429ddae848e98,61036d28cbde84e527310dcf,2021-07-29_23h10.00.516,Simcolourproject_2stim_asymm_v5,2020.2.10,MacIntel,60,61025ae37ef11b136ea224fe,,,,,,,,,2106,50,-53,1,0,0,response3disk,,4,19,-7,1,0,0,rectangle,19,-7,1,0,0,19,-7,1,0,0,0,139,139,101,1,,,,,,,,
,,,,,,,,,,,,,FF,,,,,,,,1.2,,,,,,,,,,,,,,,,,,,,,,6102e3d449f429ddae848e98,61036d28cbde84e527310dcf,2021-07-29_23h10.00.516,Simcolourproject_2stim_asymm_v5,2020.2.10,MacIntel,60,61025ae37ef11b136ea224fe,,,,,,,,,3854,32,-60,1,0,0,response3disk,,4,5,-2,1,0,0,rectangle,5,-2,1,0,0,5,-2,1,0,0,0,140,140,59,1,,,,,,,,
,,,,,,,,,,,,,FF,,,,,,,,1.1,,,,,,,,,,,,,,,,,,,,,,6102e3d449f429ddae848e98,61036d28cbde84e527310dcf,2021-07-29_23h10.00.516,Simcolourproject_2stim_asymm_v5,2020.2.10,MacIntel,60,61025ae37ef11b136ea224fe,,,,,,,,,1761,42,-79,1,0,0,response3disk,,4,13,-16,1,0,0,rectangle,13,-16,1,0,0,13,-16,1,0,0,0,141,141,133,1,,,,,,,,
,,,,,,,,,,,,,FF,,,,,,,,0.984,,,,,,,,,,,,,,,,,,,,,,6102e3d449f429ddae848e98,61036d28cbde84e527310dcf,2021-07-29_23h10.00.516,Simcolourproject_2stim_asymm_v5,2020.2.10,MacIntel,60,61025ae37ef11b136ea224fe,,,,,,,,,823,31,-53,1,0,0,response3disk,,4,2,0,1,0,0,rectangle,2,0,1,0,0,2,0,1,0,0,0,142,142,148,1,,,,,,,,
,,,,,,,,,,,,,FF,,,,,,,,1.033,,,,,,,,,,,,,,,,,,,,,,6102e3d449f429ddae848e98,61036d28cbde84e527310dcf,2021-07-29_23h10.00.516,Simcolourproject_2stim_asymm_v5,2020.2.10,MacIntel,60,61025ae37ef11b136ea224fe,,,,,,,,,542,74,32,1,0,0,response1disk,,6,10,-3,1,0,0,rectangle,10,-3,1,0,0,10,-3,1,0,0,0,143,143,104,1,,,,,,,,
,,,,,,,,,,,,,FF,,,,,,,,2.166,,,,,,,,,,,,,,,,,,,,,,6102e3d449f429ddae848e98,61036d28cbde84e527310dcf,2021-07-29_23h10.00.516,Simcolourproject_2stim_asymm_v5,2020.2.10,MacIntel,60,61025ae37ef11b136ea224fe,,,,,,,,,1133,-34,-58,1,0,0,response5disk,,3,3,1,1,0,0,rectangle,3,1,1,0,0,3,1,1,0,0,0,144,144,13,1,,,,,,,,
,,,,,,,,,,,,,FF,,,,,,,,0.95,,,,,,,,,,,,,,,,,,,,,,6102e3d449f429ddae848e98,61036d28cbde84e527310dcf,2021-07-29_23h10.00.516,Simcolourproject_2stim_asymm_v5,2020.2.10,MacIntel,60,61025ae37ef11b136ea224fe,,,,,,,,,2834,-26,-72,1,0,0,response5disk,,3,-1,-16,1,0,0,rectangle,-1,-16,1,0,0,-1,-16,1,0,0,0,145,145,29,1,,,,,,,,
,,,,,,,,,,,,,FF,,,,,,,,1,,,,,,,,,,,,,,,,,,,,,,6102e3d449f429ddae848e98,61036d28cbde84e527310dcf,2021-07-29_23h10.00.516,Simcolourproject_2stim_asymm_v5,2020.2.10,MacIntel,60,61025ae37ef11b136ea224fe,,,,,,,,,2516,42,71,1,0,0,response1disk,,7,22,5,1,0,0,rectangle,22,5,1,0,0,22,5,1,0,0,0,146,146,53,1,,,,,,,,
,,,,,,,,,,,,,FF,,,,,,,,1.283,,,,,,,,,,,,,,,,,,,,,,6102e3d449f429ddae848e98,61036d28cbde84e527310dcf,2021-07-29_23h10.00.516,Simcolourproject_2stim_asymm_v5,2020.2.10,MacIntel,60,61025ae37ef11b136ea224fe,,,,,,,,,1185,30,75,1,0,0,response1disk,,7,8,1,1,0,0,rectangle,8,1,1,0,0,8,1,1,0,0,0,147,147,2,1,,,,,,,,
,,,,,,,,,,,,,FF,,,,,,,,2.316,,,,,,,,,,,,,,,,,,,,,,6102e3d449f429ddae848e98,61036d28cbde84e527310dcf,2021-07-29_23h10.00.516,Simcolourproject_2stim_asymm_v5,2020.2.10,MacIntel,60,61025ae37ef11b136ea224fe,,,,,,,,,3798,70,-35,1,0,0,response3disk,,5,20,7,1,0,0,rectangle,20,7,1,0,0,20,7,1,0,0,0,148,148,139,1,,,,,,,,
,,,,,,,,,,,,,FF,,,,,,,,0.799,,,,,,,,,,,,,,,,,,,,,,6102e3d449f429ddae848e98,61036d28cbde84e527310dcf,2021-07-29_23h10.00.516,Simcolourproject_2stim_asymm_v5,2020.2.10,MacIntel,60,61025ae37ef11b136ea224fe,,,,,,,,,1905,-22,-55,1,0,0,response5disk,,3,9,-16,1,0,0,rectangle,9,-16,1,0,0,9,-16,1,0,0,0,149,149,72,1,,,,,,,,
,,,,,,,,,,,,,FF,,,,,,,,0.867,,,,,,,,,,,,,,,,,,,,,,6102e3d449f429ddae848e98,61036d28cbde84e527310dcf,2021-07-29_23h10.00.516,Simcolourproject_2stim_asymm_v5,2020.2.10,MacIntel,60,61025ae37ef11b136ea224fe,,,,,,,,,250,23,-55,1,0,0,response3disk,,4,5,-5,1,0,0,rectangle,5,-5,1,0,0,5,-5,1,0,0,0,150,150,131,1,,,,,,,,
,,,,,,,,,,,,,FF,,,,,,,,1.433,,,,,,,,,,,,,,,,,,,,,,6102e3d449f429ddae848e98,61036d28cbde84e527310dcf,2021-07-29_23h10.00.516,Simcolourproject_2stim_asymm_v5,2020.2.10,MacIntel,60,61025ae37ef11b136ea224fe,,,,,,,,,3989,66,-46,1,0,0,response3disk,,5,7,-5,1,0,0,rectangle,7,-5,1,0,0,7,-5,1,0,0,0,151,151,44,1,,,,,,,,
,,,,,,,,,,,,,FF,,,,,,,,0.684,,,,,,,,,,,,,,,,,,,,,,6102e3d449f429ddae848e98,61036d28cbde84e527310dcf,2021-07-29_23h10.00.516,Simcolourproject_2stim_asymm_v5,2020.2.10,MacIntel,60,61025ae37ef11b136ea224fe,,,,,,,,,2844,71,-46,1,0,0,response3disk,,5,4,-6,1,0,0,rectangle,4,-6,1,0,0,4,-6,1,0,0,0,152,152,66,1,,,,,,,,
,,,,,,,,,,,,,FF,,,,,,,,0.9,,,,,,,,,,,,,,,,,,,,,,6102e3d449f429ddae848e98,61036d28cbde84e527310dcf,2021-07-29_23h10.00.516,Simcolourproject_2stim_asymm_v5,2020.2.10,MacIntel,60,61025ae37ef11b136ea224fe,,,,,,,,,1309,-30,-56,1,0,0,response5disk,,3,13,0,1,0,0,rectangle,13,0,1,0,0,13,0,1,0,0,0,153,153,145,1,,,,,,,,
,,,,,,,,,,,,,FF,,,,,,,,1.585,,,,,,,,,,,,,,,,,,,,,,6102e3d449f429ddae848e98,61036d28cbde84e527310dcf,2021-07-29_23h10.00.516,Simcolourproject_2stim_asymm_v5,2020.2.10,MacIntel,60,61025ae37ef11b136ea224fe,,,,,,,,,1497,60,21,1,0,0,response1disk,,6,16,-2,1,0,0,rectangle,16,-2,1,0,0,16,-2,1,0,0,0,154,154,35,1,,,,,,,,
,,,,,,,,,,,,,FF,,,,,,,,0.7,,,,,,,,,,,,,,,,,,,,,,6102e3d449f429ddae848e98,61036d28cbde84e527310dcf,2021-07-29_23h10.00.516,Simcolourproject_2stim_asymm_v5,2020.2.10,MacIntel,60,61025ae37ef11b136ea224fe,,,,,,,,,761,68,37,1,0,0,response1disk,,6,25,16,1,0,0,rectangle,78,-31,1,0,0,13,-5,1,0,0,0,155,155,25,1,,response3disk_3,TRUE,5,5,"[127,200,247,296,103,122,163,269,321,156,53,219,61,183,98,55,274,116,77,129]",1.217,rectangle
,,,,,,,,,,,,,FF,,,,,,,,1.65,,,,,,,,,,,,,,,,,,,,,,6102e3d449f429ddae848e98,61036d28cbde84e527310dcf,2021-07-29_23h10.00.516,Simcolourproject_2stim_asymm_v5,2020.2.10,MacIntel,60,61025ae37ef11b136ea224fe,,,,,,,,,1970,-81,26,1,0,0,response7disk,,1,-29,-3,1,0,0,rectangle,-29,-3,1,0,0,-29,-3,1,0,0,0,156,156,15,1,,,,,,,,
,,,,,,,,,,,,,FF,,,,,,,,1.483,,,,,,,,,,,,,,,,,,,,,,6102e3d449f429ddae848e98,61036d28cbde84e527310dcf,2021-07-29_23h10.00.516,Simcolourproject_2stim_asymm_v5,2020.2.10,MacIntel,60,61025ae37ef11b136ea224fe,,,,,,,,,3345,59,19,1,0,0,response1disk,,6,15,3,1,0,0,rectangle,15,3,1,0,0,15,3,1,0,0,0,157,157,143,1,,,,,,,,
,,,,,,,,,,,,,FF,,,,,,,,1.116,,,,,,,,,,,,,,,,,,,,,,6102e3d449f429ddae848e98,61036d28cbde84e527310dcf,2021-07-29_23h10.00.516,Simcolourproject_2stim_asymm_v5,2020.2.10,MacIntel,60,61025ae37ef11b136ea224fe,,,,,,,,,552,66,-25,1,0,0,response3disk,,5,3,6,1,0,0,rectangle,3,6,1,0,0,3,6,1,0,0,0,158,158,154,1,,,,,,,,
,,,,,,,,,,,,,FF,,,,,,,,0.834,,,,,,,,,,,,,,,,,,,,,,6102e3d449f429ddae848e98,61036d28cbde84e527310dcf,2021-07-29_23h10.00.516,Simcolourproject_2stim_asymm_v5,2020.2.10,MacIntel,60,61025ae37ef11b136ea224fe,,,,,,,,,4229,64,-34,1,0,0,response3disk,,5,9,-3,1,0,0,rectangle,9,-3,1,0,0,9,-3,1,0,0,0,159,159,98,1,,,,,,,,
,,,,,,,,,,,,,FF,,,,,,,,0.85,,,,,,,,,,,,,,,,,,,,,,6102e3d449f429ddae848e98,61036d28cbde84e527310dcf,2021-07-29_23h10.00.516,Simcolourproject_2stim_asymm_v5,2020.2.10,MacIntel,60,61025ae37ef11b136ea224fe,,,,,,,,,2993,-38,65,1,0,0,response7disk,,0,-6,4,1,0,0,rectangle,-6,4,1,0,0,-6,4,1,0,0,1,0,160,22,1,,,,,,,,
,,,,,,,,,,,,,FF,,,,,,,,1.134,,,,,,,,,,,,,,,,,,,,,,6102e3d449f429ddae848e98,61036d28cbde84e527310dcf,2021-07-29_23h10.00.516,Simcolourproject_2stim_asymm_v5,2020.2.10,MacIntel,60,61025ae37ef11b136ea224fe,,,,,,,,,1190,90,19,1,0,0,response1disk,,6,20,-6,1,0,0,rectangle,20,-6,1,0,0,20,-6,1,0,0,1,1,161,95,1,,,,,,,,
,,,,,,,,,,,,,FF,,,,,,,,0.918,,,,,,,,,,,,,,,,,,,,,,6102e3d449f429ddae848e98,61036d28cbde84e527310dcf,2021-07-29_23h10.00.516,Simcolourproject_2stim_asymm_v5,2020.2.10,MacIntel,60,61025ae37ef11b136ea224fe,,,,,,,,,2179,-35,-69,1,0,0,response5disk,,3,-3,-13,1,0,0,rectangle,34,77,1,0,0,4,6,1,0,0,1,2,162,138,1,,response1disk_3,TRUE,7,7,"[127,200,247,296,103,122,163,269,321,156,53,219,61,183,98,55,274,116,77,129]",1.433,rectangle
,,,,,,,,,,,,,FF,,,,,,,,4.099,,,,,,,,,,,,,,,,,,,,,,6102e3d449f429ddae848e98,61036d28cbde84e527310dcf,2021-07-29_23h10.00.516,Simcolourproject_2stim_asymm_v5,2020.2.10,MacIntel,60,61025ae37ef11b136ea224fe,,,,,,,,,4072,31,-87,1,0,0,response3disk,,4,2,-2,1,0,0,rectangle,2,-2,1,0,0,2,-2,1,0,0,1,3,163,13,1,,,,,,,,
,,,,,,,,,,,,,FF,,,,,,,,1.734,,,,,,,,,,,,,,,,,,,,,,6102e3d449f429ddae848e98,61036d28cbde84e527310dcf,2021-07-29_23h10.00.516,Simcolourproject_2stim_asymm_v5,2020.2.10,MacIntel,60,61025ae37ef11b136ea224fe,,,,,,,,,4254,-83,-47,1,0,0,response5disk,,2,-11,-10,1,0,0,rectangle,-11,-10,1,0,0,-11,-10,1,0,0,1,4,164,106,1,,,,,,,,
,,,,,,,,,,,,,FF,,,,,,,,2.034,,,,,,,,,,,,,,,,,,,,,,6102e3d449f429ddae848e98,61036d28cbde84e527310dcf,2021-07-29_23h10.00.516,Simcolourproject_2stim_asymm_v5,2020.2.10,MacIntel,60,61025ae37ef11b136ea224fe,,,,,,,,,2597,74,-32,1,0,0,response3disk,,5,17,-13,1,0,0,rectangle,17,-13,1,0,0,17,-13,1,0,0,1,5,165,141,1,,,,,,,,
,,,,,,,,,,,,,FF,,,,,,,,0.916,,,,,,,,,,,,,,,,,,,,,,6102e3d449f429ddae848e98,61036d28cbde84e527310dcf,2021-07-29_23h10.00.516,Simcolourproject_2stim_asymm_v5,2020.2.10,MacIntel,60,61025ae37ef11b136ea224fe,,,,,,,,,355,-76,30,1,0,0,response7disk,,1,-14,-10,1,0,0,rectangle,-14,-10,1,0,0,-14,-10,1,0,0,1,6,166,92,1,,,,,,,,
,,,,,,,,,,,,,FF,,,,,,,,1.067,,,,,,,,,,,,,,,,,,,,,,6102e3d449f429ddae848e98,61036d28cbde84e527310dcf,2021-07-29_23h10.00.516,Simcolourproject_2stim_asymm_v5,2020.2.10,MacIntel,60,61025ae37ef11b136ea224fe,,,,,,,,,821,34,-56,1,0,0,response3disk,,4,9,-15,1,0,0,rectangle,9,-15,1,0,0,9,-15,1,0,0,1,7,167,83,1,,,,,,,,
,,,,,,,,,,,,,FF,,,,,,,,1.466,,,,,,,,,,,,,,,,,,,,,,6102e3d449f429ddae848e98,61036d28cbde84e527310dcf,2021-07-29_23h10.00.516,Simcolourproject_2stim_asymm_v5,2020.2.10,MacIntel,60,61025ae37ef11b136ea224fe,,,,,,,,,3841,31,-54,1,0,0,response3disk,,4,0,-10,1,0,0,rectangle,0,-10,1,0,0,0,-10,1,0,0,1,8,168,159,1,,,,,,,,
,,,,,,,,,,,,,FF,,,,,,,,1.184,,,,,,,,,,,,,,,,,,,,,,6102e3d449f429ddae848e98,61036d28cbde84e527310dcf,2021-07-29_23h10.00.516,Simcolourproject_2stim_asymm_v5,2020.2.10,MacIntel,60,61025ae37ef11b136ea224fe,,,,,,,,,3479,-31,-74,1,0,0,response5disk,,3,0,0,1,0,0,rectangle,0,0,1,0,0,0,0,1,0,0,1,9,169,146,1,,,,,,,,
,,,,,,,,,,,,,FF,,,,,,,,1.033,,,,,,,,,,,,,,,,,,,,,,6102e3d449f429ddae848e98,61036d28cbde84e527310dcf,2021-07-29_23h10.00.516,Simcolourproject_2stim_asymm_v5,2020.2.10,MacIntel,60,61025ae37ef11b136ea224fe,,,,,,,,,1817,-77,-51,1,0,0,response5disk,,2,3,-5,1,0,0,rectangle,3,-5,1,0,0,3,-5,1,0,0,1,10,170,116,1,,,,,,,,
,,,,,,,,,,,,,FF,,,,,,,,1.083,,,,,,,,,,,,,,,,,,,,,,6102e3d449f429ddae848e98,61036d28cbde84e527310dcf,2021-07-29_23h10.00.516,Simcolourproject_2stim_asymm_v5,2020.2.10,MacIntel,60,61025ae37ef11b136ea224fe,,,,,,,,,4129,-35,-55,1,0,0,response5disk,,3,-3,11,1,0,0,rectangle,-3,11,1,0,0,-3,11,1,0,0,1,11,171,7,1,,,,,,,,
,,,,,,,,,,,,,FF,,,,,,,,0.832,,,,,,,,,,,,,,,,,,,,,,6102e3d449f429ddae848e98,61036d28cbde84e527310dcf,2021-07-29_23h10.00.516,Simcolourproject_2stim_asymm_v5,2020.2.10,MacIntel,60,61025ae37ef11b136ea224fe,,,,,,,,,1983,69,-28,1,0,0,response3disk,,5,20,-3,1,0,0,rectangle,20,-3,1,0,0,20,-3,1,0,0,1,12,172,59,1,,,,,,,,
,,,,,,,,,,,,,FF,,,,,,,,1.449,,,,,,,,,,,,,,,,,,,,,,6102e3d449f429ddae848e98,61036d28cbde84e527310dcf,2021-07-29_23h10.00.516,Simcolourproject_2stim_asymm_v5,2020.2.10,MacIntel,60,61025ae37ef11b136ea224fe,,,,,,,,,982,-39,-79,1,0,0,response5disk,,3,-4,-7,1,0,0,rectangle,-4,-7,1,0,0,-4,-7,1,0,0,1,13,173,156,1,,,,,,,,
,,,,,,,,,,,,,FF,,,,,,,,1.184,,,,,,,,,,,,,,,,,,,,,,6102e3d449f429ddae848e98,61036d28cbde84e527310dcf,2021-07-29_23h10.00.516,Simcolourproject_2stim_asymm_v5,2020.2.10,MacIntel,60,61025ae37ef11b136ea224fe,,,,,,,,,1113,22,-87,1,0,0,response3disk,,4,3,16,1,0,0,rectangle,3,16,1,0,0,3,16,1,0,0,1,14,174,84,1,,,,,,,,
,,,,,,,,,,,,,FF,,,,,,,,1.533,,,,,,,,,,,,,,,,,,,,,,6102e3d449f429ddae848e98,61036d28cbde84e527310dcf,2021-07-29_23h10.00.516,Simcolourproject_2stim_asymm_v5,2020.2.10,MacIntel,60,61025ae37ef11b136ea224fe,,,,,,,,,1381,38,-82,1,0,0,response3disk,,4,10,-12,1,0,0,rectangle,10,-12,1,0,0,10,-12,1,0,0,1,15,175,97,1,,,,,,,,
,,,,,,,,,,,,,FF,,,,,,,,0.884,,,,,,,,,,,,,,,,,,,,,,6102e3d449f429ddae848e98,61036d28cbde84e527310dcf,2021-07-29_23h10.00.516,Simcolourproject_2stim_asymm_v5,2020.2.10,MacIntel,60,61025ae37ef11b136ea224fe,,,,,,,,,3641,80,46,1,0,0,response1disk,,6,1,9,1,0,0,rectangle,1,9,1,0,0,1,9,1,0,0,1,16,176,150,1,,,,,,,,
,,,,,,,,,,,,,FF,,,,,,,,1.118,,,,,,,,,,,,,,,,,,,,,,6102e3d449f429ddae848e98,61036d28cbde84e527310dcf,2021-07-29_23h10.00.516,Simcolourproject_2stim_asymm_v5,2020.2.10,MacIntel,60,61025ae37ef11b136ea224fe,,,,,,,,,1116,69,-31,1,0,0,response3disk,,5,15,-6,1,0,0,rectangle,15,-6,1,0,0,15,-6,1,0,0,1,17,177,44,1,,,,,,,,
,,,,,,,,,,,,,FF,,,,,,,,0.834,,,,,,,,,,,,,,,,,,,,,,6102e3d449f429ddae848e98,61036d28cbde84e527310dcf,2021-07-29_23h10.00.516,Simcolourproject_2stim_asymm_v5,2020.2.10,MacIntel,60,61025ae37ef11b136ea224fe,,,,,,,,,840,91,25,1,0,0,response1disk,,6,-10,-5,1,0,0,rectangle,-10,-5,1,0,0,-10,-5,1,0,0,1,18,178,129,1,,,,,,,,
,,,,,,,,,,,,,FF,,,,,,,,1.066,,,,,,,,,,,,,,,,,,,,,,6102e3d449f429ddae848e98,61036d28cbde84e527310dcf,2021-07-29_23h10.00.516,Simcolourproject_2stim_asymm_v5,2020.2.10,MacIntel,60,61025ae37ef11b136ea224fe,,,,,,,,,3126,34,83,1,0,0,response1disk,,7,2,-7,1,0,0,rectangle,2,-7,1,0,0,2,-7,1,0,0,1,19,179,9,1,,,,,,,,
,,,,,,,,,,,,,FF,,,,,,,,1.284,,,,,,,,,,,,,,,,,,,,,,6102e3d449f429ddae848e98,61036d28cbde84e527310dcf,2021-07-29_23h10.00.516,Simcolourproject_2stim_asymm_v5,2020.2.10,MacIntel,60,61025ae37ef11b136ea224fe,,,,,,,,,915,87,-36,1,0,0,response3disk,,5,8,-6,1,0,0,rectangle,8,-6,1,0,0,8,-6,1,0,0,1,20,180,140,1,,,,,,,,
,,,,,,,,,,,,,FF,,,,,,,,0.783,,,,,,,,,,,,,,,,,,,,,,6102e3d449f429ddae848e98,61036d28cbde84e527310dcf,2021-07-29_23h10.00.516,Simcolourproject_2stim_asymm_v5,2020.2.10,MacIntel,60,61025ae37ef11b136ea224fe,,,,,,,,,121,69,39,1,0,0,response1disk,,6,4,-3,1,0,0,rectangle,4,-3,1,0,0,4,-3,1,0,0,1,21,181,153,1,,,,,,,,
,,,,,,,,,,,,,FF,,,,,,,,0.816,,,,,,,,,,,,,,,,,,,,,,6102e3d449f429ddae848e98,61036d28cbde84e527310dcf,2021-07-29_23h10.00.516,Simcolourproject_2stim_asymm_v5,2020.2.10,MacIntel,60,61025ae37ef11b136ea224fe,,,,,,,,,1647,73,41,1,0,0,response1disk,,6,9,9,1,0,0,rectangle,34,80,1,0,0,9,9,1,0,0,1,22,182,10,1,,response1disk_3,TRUE,7,7,"[127,200,247,296,103,122,163,269,321,156,53,219,61,183,98,55,274,116,77,129]",1.184,rectangle
,,,,,,,,,,,,,FF,,,,,,,,1.182,,,,,,,,,,,,,,,,,,,,,,6102e3d449f429ddae848e98,61036d28cbde84e527310dcf,2021-07-29_23h10.00.516,Simcolourproject_2stim_asymm_v5,2020.2.10,MacIntel,60,61025ae37ef11b136ea224fe,,,,,,,,,3424,-49,-68,1,0,0,response5disk,,3,4,-12,1,0,0,rectangle,4,-12,1,0,0,4,-12,1,0,0,1,23,183,100,1,,,,,,,,
,,,,,,,,,,,,,FF,,,,,,,,1.416,,,,,,,,,,,,,,,,,,,,,,6102e3d449f429ddae848e98,61036d28cbde84e527310dcf,2021-07-29_23h10.00.516,Simcolourproject_2stim_asymm_v5,2020.2.10,MacIntel,60,61025ae37ef11b136ea224fe,,,,,,,,,418,47,70,1,0,0,response1disk,,7,11,-7,1,0,0,rectangle,11,-7,1,0,0,11,-7,1,0,0,1,24,184,28,1,,,,,,,,
,,,,,,,,,,,,,FF,,,,,,,,0.983,,,,,,,,,,,,,,,,,,,,,,6102e3d449f429ddae848e98,61036d28cbde84e527310dcf,2021-07-29_23h10.00.516,Simcolourproject_2stim_asymm_v5,2020.2.10,MacIntel,60,61025ae37ef11b136ea224fe,,,,,,,,,353,-70,-40,1,0,0,response5disk,,2,-1,-6,1,0,0,rectangle,-1,-6,1,0,0,-1,-6,1,0,0,1,25,185,134,1,,,,,,,,
,,,,,,,,,,,,,FF,,,,,,,,1.4,,,,,,,,,,,,,,,,,,,,,,6102e3d449f429ddae848e98,61036d28cbde84e527310dcf,2021-07-29_23h10.00.516,Simcolourproject_2stim_asymm_v5,2020.2.10,MacIntel,60,61025ae37ef11b136ea224fe,,,,,,,,,2998,-85,-26,1,0,0,response5disk,,2,-13,-16,1,0,0,rectangle,-13,-16,1,0,0,-13,-16,1,0,0,1,26,186,3,1,,,,,,,,
,,,,,,,,,,,,,FF,,,,,,,,0.683,,,,,,,,,,,,,,,,,,,,,,6102e3d449f429ddae848e98,61036d28cbde84e527310dcf,2021-07-29_23h10.00.516,Simcolourproject_2stim_asymm_v5,2020.2.10,MacIntel,60,61025ae37ef11b136ea224fe,,,,,,,,,550,-66,23,1,0,0,response7disk,,1,-13,9,1,0,0,rectangle,-13,9,1,0,0,-13,9,1,0,0,1,27,187,126,1,,,,,,,,
,,,,,,,,,,,,,FF,,,,,,,,1.383,,,,,,,,,,,,,,,,,,,,,,6102e3d449f429ddae848e98,61036d28cbde84e527310dcf,2021-07-29_23h10.00.516,Simcolourproject_2stim_asymm_v5,2020.2.10,MacIntel,60,61025ae37ef11b136ea224fe,,,,,,,,,4178,33,80,1,0,0,response1disk,,7,9,-1,1,0,0,rectangle,9,-1,1,0,0,9,-1,1,0,0,1,28,188,62,1,,,,,,,,
,,,,,,,,,,,,,FF,,,,,,,,0.95,,,,,,,,,,,,,,,,,,,,,,6102e3d449f429ddae848e98,61036d28cbde84e527310dcf,2021-07-29_23h10.00.516,Simcolourproject_2stim_asymm_v5,2020.2.10,MacIntel,60,61025ae37ef11b136ea224fe,,,,,,,,,2240,-48,24,1,0,0,response7disk,,1,3,9,1,0,0,rectangle,3,9,1,0,0,3,9,1,0,0,1,29,189,33,1,,,,,,,,
,,,,,,,,,,,,,FF,,,,,,,,1.882,,,,,,,,,,,,,,,,,,,,,,6102e3d449f429ddae848e98,61036d28cbde84e527310dcf,2021-07-29_23h10.00.516,Simcolourproject_2stim_asymm_v5,2020.2.10,MacIntel,60,61025ae37ef11b136ea224fe,,,,,,,,,3538,61,24,1,0,0,response1disk,,6,-1,-4,1,0,0,rectangle,-1,-4,1,0,0,-1,-4,1,0,0,1,30,190,36,1,,,,,,,,
,,,,,,,,,,,,,FF,,,,,,,,0.967,,,,,,,,,,,,,,,,,,,,,,6102e3d449f429ddae848e98,61036d28cbde84e527310dcf,2021-07-29_23h10.00.516,Simcolourproject_2stim_asymm_v5,2020.2.10,MacIntel,60,61025ae37ef11b136ea224fe,,,,,,,,,591,43,79,1,0,0,response1disk,,7,13,15,1,0,0,rectangle,13,15,1,0,0,13,15,1,0,0,1,31,191,88,1,,,,,,,,
,,,,,,,,,,,,,FF,,,,,,,,1.1,,,,,,,,,,,,,,,,,,,,,,6102e3d449f429ddae848e98,61036d28cbde84e527310dcf,2021-07-29_23h10.00.516,Simcolourproject_2stim_asymm_v5,2020.2.10,MacIntel,60,61025ae37ef11b136ea224fe,,,,,,,,,2415,-36,-62,1,0,0,response5disk,,3,2,-5,1,0,0,rectangle,2,-5,1,0,0,2,-5,1,0,0,1,32,192,27,1,,,,,,,,
,,,,,,,,,,,,,FF,,,,,,,,1.866,,,,,,,,,,,,,,,,,,,,,,6102e3d449f429ddae848e98,61036d28cbde84e527310dcf,2021-07-29_23h10.00.516,Simcolourproject_2stim_asymm_v5,2020.2.10,MacIntel,60,61025ae37ef11b136ea224fe,,,,,,,,,2312,65,26,1,0,0,response1disk,,6,16,-8,1,0,0,rectangle,16,-8,1,0,0,16,-8,1,0,0,1,33,193,76,1,,,,,,,,
,,,,,,,,,,,,,FF,,,,,,,,1.032,,,,,,,,,,,,,,,,,,,,,,6102e3d449f429ddae848e98,61036d28cbde84e527310dcf,2021-07-29_23h10.00.516,Simcolourproject_2stim_asymm_v5,2020.2.10,MacIntel,60,61025ae37ef11b136ea224fe,,,,,,,,,3343,-54,30,1,0,0,response7disk,,1,-21,-3,1,0,0,rectangle,-21,-3,1,0,0,-21,-3,1,0,0,1,34,194,40,1,,,,,,,,
,,,,,,,,,,,,,FF,,,,,,,,1.367,,,,,,,,,,,,,,,,,,,,,,6102e3d449f429ddae848e98,61036d28cbde84e527310dcf,2021-07-29_23h10.00.516,Simcolourproject_2stim_asymm_v5,2020.2.10,MacIntel,60,61025ae37ef11b136ea224fe,,,,,,,,,235,49,-26,1,0,0,response3disk,,5,1,-4,1,0,0,rectangle,1,-4,1,0,0,1,-4,1,0,0,1,35,195,110,1,,,,,,,,
,,,,,,,,,,,,,FF,,,,,,,,1.783,,,,,,,,,,,,,,,,,,,,,,6102e3d449f429ddae848e98,61036d28cbde84e527310dcf,2021-07-29_23h10.00.516,Simcolourproject_2stim_asymm_v5,2020.2.10,MacIntel,60,61025ae37ef11b136ea224fe,,,,,,,,,1443,26,-79,1,0,0,response3disk,,4,7,-1,1,0,0,rectangle,7,-1,1,0,0,7,-1,1,0,0,1,36,196,63,1,,,,,,,,
,,,,,,,,,,,,,FF,,,,,,,,1,,,,,,,,,,,,,,,,,,,,,,6102e3d449f429ddae848e98,61036d28cbde84e527310dcf,2021-07-29_23h10.00.516,Simcolourproject_2stim_asymm_v5,2020.2.10,MacIntel,60,61025ae37ef11b136ea224fe,,,,,,,,,3487,72,21,1,0,0,response1disk,,6,5,3,1,0,0,rectangle,5,3,1,0,0,5,3,1,0,0,1,37,197,6,1,,,,,,,,
,,,,,,,,,,,,,FF,,,,,,,,2.616,,,,,,,,,,,,,,,,,,,,,,6102e3d449f429ddae848e98,61036d28cbde84e527310dcf,2021-07-29_23h10.00.516,Simcolourproject_2stim_asymm_v5,2020.2.10,MacIntel,60,61025ae37ef11b136ea224fe,,,,,,,,,560,82,-43,1,0,0,response3disk,,5,25,-1,1,0,0,rectangle,25,-1,1,0,0,25,-1,1,0,0,1,38,198,53,1,,,,,,,,
,,,,,,,,,,,,,FF,,,,,,,,1.15,,,,,,,,,,,,,,,,,,,,,,6102e3d449f429ddae848e98,61036d28cbde84e527310dcf,2021-07-29_23h10.00.516,Simcolourproject_2stim_asymm_v5,2020.2.10,MacIntel,60,61025ae37ef11b136ea224fe,,,,,,,,,4170,23,-52,1,0,0,response3disk,,4,-2,-3,1,0,0,rectangle,-74,-31,1,0,0,-11,-11,1,0,0,1,39,199,0,1,,response5disk_3,TRUE,2,2,"[127,200,247,296,103,122,163,269,321,156,53,219,61,183,98,55,274,116,77,129]",1.633,rectangle
,,,,,,,,,,,,,FF,,,,,,,,1.55,,,,,,,,,,,,,,,,,,,,,,6102e3d449f429ddae848e98,61036d28cbde84e527310dcf,2021-07-29_23h10.00.516,Simcolourproject_2stim_asymm_v5,2020.2.10,MacIntel,60,61025ae37ef11b136ea224fe,,,,,,,,,3260,75,34,1,0,0,response1disk,,6,5,0,1,0,0,rectangle,5,0,1,0,0,5,0,1,0,0,1,40,200,111,1,,,,,,,,
,,,,,,,,,,,,,FF,,,,,,,,1.334,,,,,,,,,,,,,,,,,,,,,,6102e3d449f429ddae848e98,61036d28cbde84e527310dcf,2021-07-29_23h10.00.516,Simcolourproject_2stim_asymm_v5,2020.2.10,MacIntel,60,61025ae37ef11b136ea224fe,,,,,,,,,2368,28,-84,1,0,0,response3disk,,4,2,-8,1,0,0,rectangle,2,-8,1,0,0,2,-8,1,0,0,1,41,201,102,1,,,,,,,,
,,,,,,,,,,,,,FF,,,,,,,,2.316,,,,,,,,,,,,,,,,,,,,,,6102e3d449f429ddae848e98,61036d28cbde84e527310dcf,2021-07-29_23h10.00.516,Simcolourproject_2stim_asymm_v5,2020.2.10,MacIntel,60,61025ae37ef11b136ea224fe,,,,,,,,,115,78,-52,1,0,0,response3disk,,5,6,5,1,0,0,rectangle,6,5,1,0,0,6,5,1,0,0,1,42,202,38,1,,,,,,,,
,,,,,,,,,,,,,FF,,,,,,,,1.016,,,,,,,,,,,,,,,,,,,,,,6102e3d449f429ddae848e98,61036d28cbde84e527310dcf,2021-07-29_23h10.00.516,Simcolourproject_2stim_asymm_v5,2020.2.10,MacIntel,60,61025ae37ef11b136ea224fe,,,,,,,,,2632,79,28,1,0,0,response1disk,,6,12,12,1,0,0,rectangle,12,12,1,0,0,12,12,1,0,0,1,43,203,85,1,,,,,,,,
,,,,,,,,,,,,,FF,,,,,,,,1.016,,,,,,,,,,,,,,,,,,,,,,6102e3d449f429ddae848e98,61036d28cbde84e527310dcf,2021-07-29_23h10.00.516,Simcolourproject_2stim_asymm_v5,2020.2.10,MacIntel,60,61025ae37ef11b136ea224fe,,,,,,,,,2215,93,-30,1,0,0,response3disk,,5,33,0,1,0,0,rectangle,33,0,1,0,0,33,0,1,0,0,1,44,204,122,1,,,,,,,,
,,,,,,,,,,,,,FF,,,,,,,,1.916,,,,,,,,,,,,,,,,,,,,,,6102e3d449f429ddae848e98,61036d28cbde84e527310dcf,2021-07-29_23h10.00.516,Simcolourproject_2stim_asymm_v5,2020.2.10,MacIntel,60,61025ae37ef11b136ea224fe,,,,,,,,,3261,76,49,1,0,0,response1disk,,6,3,0,1,0,0,rectangle,3,0,1,0,0,3,0,1,0,0,1,45,205,99,1,,,,,,,,
,,,,,,,,,,,,,FF,,,,,,,,0.999,,,,,,,,,,,,,,,,,,,,,,6102e3d449f429ddae848e98,61036d28cbde84e527310dcf,2021-07-29_23h10.00.516,Simcolourproject_2stim_asymm_v5,2020.2.10,MacIntel,60,61025ae37ef11b136ea224fe,,,,,,,,,2337,49,73,1,0,0,response1disk,,7,6,6,1,0,0,rectangle,6,6,1,0,0,6,6,1,0,0,1,46,206,113,1,,,,,,,,
,,,,,,,,,,,,,FF,,,,,,,,1.05,,,,,,,,,,,,,,,,,,,,,,6102e3d449f429ddae848e98,61036d28cbde84e527310dcf,2021-07-29_23h10.00.516,Simcolourproject_2stim_asymm_v5,2020.2.10,MacIntel,60,61025ae37ef11b136ea224fe,,,,,,,,,2044,56,-22,1,0,0,response3disk,,5,3,4,1,0,0,rectangle,3,4,1,0,0,3,4,1,0,0,1,47,207,98,1,,,,,,,,
,,,,,,,,,,,,,FF,,,,,,,,1.067,,,,,,,,,,,,,,,,,,,,,,6102e3d449f429ddae848e98,61036d28cbde84e527310dcf,2021-07-29_23h10.00.516,Simcolourproject_2stim_asymm_v5,2020.2.10,MacIntel,60,61025ae37ef11b136ea224fe,,,,,,,,,4,58,-28,1,0,0,response3disk,,5,-1,-10,1,0,0,rectangle,-1,-10,1,0,0,-1,-10,1,0,0,1,48,208,19,1,,,,,,,,
,,,,,,,,,,,,,FF,,,,,,,,1.016,,,,,,,,,,,,,,,,,,,,,,6102e3d449f429ddae848e98,61036d28cbde84e527310dcf,2021-07-29_23h10.00.516,Simcolourproject_2stim_asymm_v5,2020.2.10,MacIntel,60,61025ae37ef11b136ea224fe,,,,,,,,,2143,79,31,1,0,0,response1disk,,6,13,7,1,0,0,rectangle,13,7,1,0,0,13,7,1,0,0,1,49,209,147,1,,,,,,,,
,,,,,,,,,,,,,FF,,,,,,,,1.067,,,,,,,,,,,,,,,,,,,,,,6102e3d449f429ddae848e98,61036d28cbde84e527310dcf,2021-07-29_23h10.00.516,Simcolourproject_2stim_asymm_v5,2020.2.10,MacIntel,60,61025ae37ef11b136ea224fe,,,,,,,,,632,-31,-54,1,0,0,response5disk,,3,-1,-2,1,0,0,rectangle,-1,-2,1,0,0,-1,-2,1,0,0,1,50,210,81,1,,,,,,,,
,,,,,,,,,,,,,FF,,,,,,,,1.517,,,,,,,,,,,,,,,,,,,,,,6102e3d449f429ddae848e98,61036d28cbde84e527310dcf,2021-07-29_23h10.00.516,Simcolourproject_2stim_asymm_v5,2020.2.10,MacIntel,60,61025ae37ef11b136ea224fe,,,,,,,,,2441,78,42,1,0,0,response1disk,,6,9,2,1,0,0,rectangle,9,2,1,0,0,9,2,1,0,0,1,51,211,29,1,,,,,,,,
,,,,,,,,,,,,,FF,,,,,,,,0.85,,,,,,,,,,,,,,,,,,,,,,6102e3d449f429ddae848e98,61036d28cbde84e527310dcf,2021-07-29_23h10.00.516,Simcolourproject_2stim_asymm_v5,2020.2.10,MacIntel,60,61025ae37ef11b136ea224fe,,,,,,,,,3550,40,64,1,0,0,response1disk,,7,5,3,1,0,0,rectangle,5,3,1,0,0,5,3,1,0,0,1,52,212,115,1,,,,,,,,
,,,,,,,,,,,,,FF,,,,,,,,1.084,,,,,,,,,,,,,,,,,,,,,,6102e3d449f429ddae848e98,61036d28cbde84e527310dcf,2021-07-29_23h10.00.516,Simcolourproject_2stim_asymm_v5,2020.2.10,MacIntel,60,61025ae37ef11b136ea224fe,,,,,,,,,4165,68,-27,1,0,0,response3disk,,5,0,-14,1,0,0,rectangle,0,-14,1,0,0,0,-14,1,0,0,1,53,213,61,1,,,,,,,,
,,,,,,,,,,,,,FF,,,,,,,,1.666,,,,,,,,,,,,,,,,,,,,,,6102e3d449f429ddae848e98,61036d28cbde84e527310dcf,2021-07-29_23h10.00.516,Simcolourproject_2stim_asymm_v5,2020.2.10,MacIntel,60,61025ae37ef11b136ea224fe,,,,,,,,,2172,38,-67,1,0,0,response3disk,,4,-16,-3,1,0,0,rectangle,-16,-3,1,0,0,-16,-3,1,0,0,1,54,214,70,1,,,,,,,,
,,,,,,,,,,,,,FF,,,,,,,,1.2,,,,,,,,,,,,,,,,,,,,,,6102e3d449f429ddae848e98,61036d28cbde84e527310dcf,2021-07-29_23h10.00.516,Simcolourproject_2stim_asymm_v5,2020.2.10,MacIntel,60,61025ae37ef11b136ea224fe,,,,,,,,,367,-50,-70,1,0,0,response5disk,,3,-1,-2,1,0,0,rectangle,-1,-2,1,0,0,-1,-2,1,0,0,1,55,215,145,1,,,,,,,,
,,,,,,,,,,,,,FF,,,,,,,,0.983,,,,,,,,,,,,,,,,,,,,,,6102e3d449f429ddae848e98,61036d28cbde84e527310dcf,2021-07-29_23h10.00.516,Simcolourproject_2stim_asymm_v5,2020.2.10,MacIntel,60,61025ae37ef11b136ea224fe,,,,,,,,,3328,-33,-67,1,0,0,response5disk,,3,-8,11,1,0,0,rectangle,-8,11,1,0,0,-8,11,1,0,0,1,56,216,11,1,,,,,,,,
,,,,,,,,,,,,,FF,,,,,,,,1.184,,,,,,,,,,,,,,,,,,,,,,6102e3d449f429ddae848e98,61036d28cbde84e527310dcf,2021-07-29_23h10.00.516,Simcolourproject_2stim_asymm_v5,2020.2.10,MacIntel,60,61025ae37ef11b136ea224fe,,,,,,,,,1331,58,28,1,0,0,response1disk,,6,25,3,1,0,0,rectangle,25,3,1,0,0,25,3,1,0,0,1,57,217,64,1,,,,,,,,
,,,,,,,,,,,,,FF,,,,,,,,0.732,,,,,,,,,,,,,,,,,,,,,,6102e3d449f429ddae848e98,61036d28cbde84e527310dcf,2021-07-29_23h10.00.516,Simcolourproject_2stim_asymm_v5,2020.2.10,MacIntel,60,61025ae37ef11b136ea224fe,,,,,,,,,1490,41,85,1,0,0,response1disk,,7,1,12,1,0,0,rectangle,-80,53,1,0,0,-15,13,1,0,0,1,58,218,1,1,,response7disk_3,TRUE,1,1,"[127,200,247,296,103,122,163,269,321,156,53,219,61,183,98,55,274,116,77,129]",1.65,rectangle
,,,,,,,,,,,,,FF,,,,,,,,1.051,,,,,,,,,,,,,,,,,,,,,,6102e3d449f429ddae848e98,61036d28cbde84e527310dcf,2021-07-29_23h10.00.516,Simcolourproject_2stim_asymm_v5,2020.2.10,MacIntel,60,61025ae37ef11b136ea224fe,,,,,,,,,1756,30,-57,1,0,0,response3disk,,4,6,-17,1,0,0,rectangle,6,-17,1,0,0,6,-17,1,0,0,1,59,219,87,1,,,,,,,,
,,,,,,,,,,,,,FF,,,,,,,,0.917,,,,,,,,,,,,,,,,,,,,,,6102e3d449f429ddae848e98,61036d28cbde84e527310dcf,2021-07-29_23h10.00.516,Simcolourproject_2stim_asymm_v5,2020.2.10,MacIntel,60,61025ae37ef11b136ea224fe,,,,,,,,,3861,67,-31,1,0,0,response3disk,,5,11,0,1,0,0,rectangle,11,0,1,0,0,11,0,1,0,0,1,60,220,75,1,,,,,,,,
,,,,,,,,,,,,,FF,,,,,,,,0.617,,,,,,,,,,,,,,,,,,,,,,6102e3d449f429ddae848e98,61036d28cbde84e527310dcf,2021-07-29_23h10.00.516,Simcolourproject_2stim_asymm_v5,2020.2.10,MacIntel,60,61025ae37ef11b136ea224fe,,,,,,,,,1349,68,22,1,0,0,response1disk,,6,-1,9,1,0,0,rectangle,-1,9,1,0,0,-1,9,1,0,0,1,61,221,48,1,,,,,,,,
,,,,,,,,,,,,,FF,,,,,,,,2.667,,,,,,,,,,,,,,,,,,,,,,6102e3d449f429ddae848e98,61036d28cbde84e527310dcf,2021-07-29_23h10.00.516,Simcolourproject_2stim_asymm_v5,2020.2.10,MacIntel,60,61025ae37ef11b136ea224fe,,,,,,,,,2842,81,-26,1,0,0,response3disk,,5,23,-8,1,0,0,rectangle,23,-8,1,0,0,23,-8,1,0,0,1,62,222,86,1,,,,,,,,
,,,,,,,,,,,,,FF,,,,,,,,0.8,,,,,,,,,,,,,,,,,,,,,,6102e3d449f429ddae848e98,61036d28cbde84e527310dcf,2021-07-29_23h10.00.516,Simcolourproject_2stim_asymm_v5,2020.2.10,MacIntel,60,61025ae37ef11b136ea224fe,,,,,,,,,4028,67,-40,1,0,0,response3disk,,5,6,-1,1,0,0,rectangle,6,-1,1,0,0,6,-1,1,0,0,1,63,223,72,1,,,,,,,,
,,,,,,,,,,,,,FF,,,,,,,,0.933,,,,,,,,,,,,,,,,,,,,,,6102e3d449f429ddae848e98,61036d28cbde84e527310dcf,2021-07-29_23h10.00.516,Simcolourproject_2stim_asymm_v5,2020.2.10,MacIntel,60,61025ae37ef11b136ea224fe,,,,,,,,,1189,79,46,1,0,0,response1disk,,6,11,2,1,0,0,rectangle,11,2,1,0,0,11,2,1,0,0,1,64,224,82,1,,,,,,,,
,,,,,,,,,,,,,FF,,,,,,,,0.818,,,,,,,,,,,,,,,,,,,,,,6102e3d449f429ddae848e98,61036d28cbde84e527310dcf,2021-07-29_23h10.00.516,Simcolourproject_2stim_asymm_v5,2020.2.10,MacIntel,60,61025ae37ef11b136ea224fe,,,,,,,,,709,37,78,1,0,0,response1disk,,7,4,-4,1,0,0,rectangle,4,-4,1,0,0,4,-4,1,0,0,1,65,225,154,1,,,,,,,,
,,,,,,,,,,,,,FF,,,,,,,,1.134,,,,,,,,,,,,,,,,,,,,,,6102e3d449f429ddae848e98,61036d28cbde84e527310dcf,2021-07-29_23h10.00.516,Simcolourproject_2stim_asymm_v5,2020.2.10,MacIntel,60,61025ae37ef11b136ea224fe,,,,,,,,,3851,59,-33,1,0,0,response3disk,,5,-7,2,1,0,0,rectangle,-7,2,1,0,0,-7,2,1,0,0,1,66,226,132,1,,,,,,,,
,,,,,,,,,,,,,FF,,,,,,,,2.384,,,,,,,,,,,,,,,,,,,,,,6102e3d449f429ddae848e98,61036d28cbde84e527310dcf,2021-07-29_23h10.00.516,Simcolourproject_2stim_asymm_v5,2020.2.10,MacIntel,60,61025ae37ef11b136ea224fe,,,,,,,,,1233,37,-54,1,0,0,response3disk,,4,-1,-18,1,0,0,rectangle,-1,-18,1,0,0,-1,-18,1,0,0,1,67,227,124,1,,,,,,,,
,,,,,,,,,,,,,FF,,,,,,,,0.999,,,,,,,,,,,,,,,,,,,,,,6102e3d449f429ddae848e98,61036d28cbde84e527310dcf,2021-07-29_23h10.00.516,Simcolourproject_2stim_asymm_v5,2020.2.10,MacIntel,60,61025ae37ef11b136ea224fe,,,,,,,,,1840,77,26,1,0,0,response1disk,,6,2,14,1,0,0,rectangle,2,14,1,0,0,2,14,1,0,0,1,68,228,50,1,,,,,,,,
,,,,,,,,,,,,,FF,,,,,,,,0.866,,,,,,,,,,,,,,,,,,,,,,6102e3d449f429ddae848e98,61036d28cbde84e527310dcf,2021-07-29_23h10.00.516,Simcolourproject_2stim_asymm_v5,2020.2.10,MacIntel,60,61025ae37ef11b136ea224fe,,,,,,,,,2987,-27,-89,1,0,0,response5disk,,3,0,-10,1,0,0,rectangle,0,-10,1,0,0,0,-10,1,0,0,1,69,229,32,1,,,,,,,,
,,,,,,,,,,,,,FF,,,,,,,,2.134,,,,,,,,,,,,,,,,,,,,,,6102e3d449f429ddae848e98,61036d28cbde84e527310dcf,2021-07-29_23h10.00.516,Simcolourproject_2stim_asymm_v5,2020.2.10,MacIntel,60,61025ae37ef11b136ea224fe,,,,,,,,,2404,81,40,1,0,0,response1disk,,6,3,-9,1,0,0,rectangle,3,-9,1,0,0,3,-9,1,0,0,1,70,230,17,1,,,,,,,,
,,,,,,,,,,,,,FF,,,,,,,,1.034,,,,,,,,,,,,,,,,,,,,,,6102e3d449f429ddae848e98,61036d28cbde84e527310dcf,2021-07-29_23h10.00.516,Simcolourproject_2stim_asymm_v5,2020.2.10,MacIntel,60,61025ae37ef11b136ea224fe,,,,,,,,,4003,52,-25,1,0,0,response3disk,,5,13,-8,1,0,0,rectangle,13,-8,1,0,0,13,-8,1,0,0,1,71,231,5,1,,,,,,,,
,,,,,,,,,,,,,FF,,,,,,,,2.034,,,,,,,,,,,,,,,,,,,,,,6102e3d449f429ddae848e98,61036d28cbde84e527310dcf,2021-07-29_23h10.00.516,Simcolourproject_2stim_asymm_v5,2020.2.10,MacIntel,60,61025ae37ef11b136ea224fe,,,,,,,,,4355,80,40,1,0,0,response1disk,,6,17,-5,1,0,0,rectangle,17,-5,1,0,0,17,-5,1,0,0,1,72,232,55,1,,,,,,,,
,,,,,,,,,,,,,FF,,,,,,,,1.183,,,,,,,,,,,,,,,,,,,,,,6102e3d449f429ddae848e98,61036d28cbde84e527310dcf,2021-07-29_23h10.00.516,Simcolourproject_2stim_asymm_v5,2020.2.10,MacIntel,60,61025ae37ef11b136ea224fe,,,,,,,,,1546,74,24,1,0,0,response1disk,,6,19,-7,1,0,0,rectangle,19,-7,1,0,0,19,-7,1,0,0,1,73,233,108,1,,,,,,,,
,,,,,,,,,,,,,FF,,,,,,,,0.849,,,,,,,,,,,,,,,,,,,,,,6102e3d449f429ddae848e98,61036d28cbde84e527310dcf,2021-07-29_23h10.00.516,Simcolourproject_2stim_asymm_v5,2020.2.10,MacIntel,60,61025ae37ef11b136ea224fe,,,,,,,,,88,68,23,1,0,0,response1disk,,6,-16,-17,1,0,0,rectangle,-16,-17,1,0,0,-16,-17,1,0,0,1,74,234,14,1,,,,,,,,
,,,,,,,,,,,,,FF,,,,,,,,1.15,,,,,,,,,,,,,,,,,,,,,,6102e3d449f429ddae848e98,61036d28cbde84e527310dcf,2021-07-29_23h10.00.516,Simcolourproject_2stim_asymm_v5,2020.2.10,MacIntel,60,61025ae37ef11b136ea224fe,,,,,,,,,3006,68,-35,1,0,0,response3disk,,5,13,-5,1,0,0,rectangle,13,-5,1,0,0,13,-5,1,0,0,1,75,235,66,1,,,,,,,,
,,,,,,,,,,,,,FF,,,,,,,,1.032,,,,,,,,,,,,,,,,,,,,,,6102e3d449f429ddae848e98,61036d28cbde84e527310dcf,2021-07-29_23h10.00.516,Simcolourproject_2stim_asymm_v5,2020.2.10,MacIntel,60,61025ae37ef11b136ea224fe,,,,,,,,,188,33,-86,1,0,0,response3disk,,4,5,-16,1,0,0,rectangle,5,-16,1,0,0,5,-16,1,0,0,1,76,236,96,1,,,,,,,,
,,,,,,,,,,,,,FF,,,,,,,,1.117,,,,,,,,,,,,,,,,,,,,,,6102e3d449f429ddae848e98,61036d28cbde84e527310dcf,2021-07-29_23h10.00.516,Simcolourproject_2stim_asymm_v5,2020.2.10,MacIntel,60,61025ae37ef11b136ea224fe,,,,,,,,,1492,77,34,1,0,0,response1disk,,6,-1,2,1,0,0,rectangle,-1,2,1,0,0,-1,2,1,0,0,1,77,237,131,1,,,,,,,,
,,,,,,,,,,,,,FF,,,,,,,,1.168,,,,,,,,,,,,,,,,,,,,,,6102e3d449f429ddae848e98,61036d28cbde84e527310dcf,2021-07-29_23h10.00.516,Simcolourproject_2stim_asymm_v5,2020.2.10,MacIntel,60,61025ae37ef11b136ea224fe,,,,,,,,,344,84,-33,1,0,0,response3disk,,5,9,-2,1,0,0,rectangle,9,-2,1,0,0,9,-2,1,0,0,1,78,238,46,1,,,,,,,,
,,,,,,,,,,,,,FF,,,,,,,,0.817,,,,,,,,,,,,,,,,,,,,,,6102e3d449f429ddae848e98,61036d28cbde84e527310dcf,2021-07-29_23h10.00.516,Simcolourproject_2stim_asymm_v5,2020.2.10,MacIntel,60,61025ae37ef11b136ea224fe,,,,,,,,,3668,-36,83,1,0,0,response7disk,,0,-16,-2,1,0,0,rectangle,-16,-2,1,0,0,-16,-2,1,0,0,1,79,239,125,1,,,,,,,,
,,,,,,,,,,,,,FF,,,,,,,,2.583,,,,,,,,,,,,,,,,,,,,,,6102e3d449f429ddae848e98,61036d28cbde84e527310dcf,2021-07-29_23h10.00.516,Simcolourproject_2stim_asymm_v5,2020.2.10,MacIntel,60,61025ae37ef11b136ea224fe,,,,,,,,,2870,69,46,1,0,0,response1disk,,6,0,-5,1,0,0,rectangle,0,-5,1,0,0,0,-5,1,0,0,1,80,240,123,1,,,,,,,,
,,,,,,,,,,,,,FF,,,,,,,,1.517,,,,,,,,,,,,,,,,,,,,,,6102e3d449f429ddae848e98,61036d28cbde84e527310dcf,2021-07-29_23h10.00.516,Simcolourproject_2stim_asymm_v5,2020.2.10,MacIntel,60,61025ae37ef11b136ea224fe,,,,,,,,,1536,33,-69,1,0,0,response3disk,,4,8,10,1,0,0,rectangle,8,10,1,0,0,8,10,1,0,0,1,81,241,109,1,,,,,,,,
,,,,,,,,,,,,,FF,,,,,,,,0.833,,,,,,,,,,,,,,,,,,,,,,6102e3d449f429ddae848e98,61036d28cbde84e527310dcf,2021-07-29_23h10.00.516,Simcolourproject_2stim_asymm_v5,2020.2.10,MacIntel,60,61025ae37ef11b136ea224fe,,,,,,,,,3899,28,-53,1,0,0,response3disk,,4,4,-7,1,0,0,rectangle,4,-7,1,0,0,4,-7,1,0,0,1,82,242,93,1,,,,,,,,
,,,,,,,,,,,,,FF,,,,,,,,2.001,,,,,,,,,,,,,,,,,,,,,,6102e3d449f429ddae848e98,61036d28cbde84e527310dcf,2021-07-29_23h10.00.516,Simcolourproject_2stim_asymm_v5,2020.2.10,MacIntel,60,61025ae37ef11b136ea224fe,,,,,,,,,3665,67,-47,1,0,0,response3disk,,5,19,-12,1,0,0,rectangle,19,-12,1,0,0,19,-12,1,0,0,1,83,243,60,1,,,,,,,,
,,,,,,,,,,,,,FF,,,,,,,,0.85,,,,,,,,,,,,,,,,,,,,,,6102e3d449f429ddae848e98,61036d28cbde84e527310dcf,2021-07-29_23h10.00.516,Simcolourproject_2stim_asymm_v5,2020.2.10,MacIntel,60,61025ae37ef11b136ea224fe,,,,,,,,,2324,71,63,1,0,0,response1disk,,6,12,-13,1,0,0,rectangle,12,-13,1,0,0,12,-13,1,0,0,1,84,244,142,1,,,,,,,,
,,,,,,,,,,,,,FF,,,,,,,,1.184,,,,,,,,,,,,,,,,,,,,,,6102e3d449f429ddae848e98,61036d28cbde84e527310dcf,2021-07-29_23h10.00.516,Simcolourproject_2stim_asymm_v5,2020.2.10,MacIntel,60,61025ae37ef11b136ea224fe,,,,,,,,,4102,-70,-27,1,0,0,response5disk,,2,-2,-16,1,0,0,rectangle,-2,-16,1,0,0,-2,-16,1,0,0,1,85,245,69,1,,,,,,,,
,,,,,,,,,,,,,FF,,,,,,,,1.167,,,,,,,,,,,,,,,,,,,,,,6102e3d449f429ddae848e98,61036d28cbde84e527310dcf,2021-07-29_23h10.00.516,Simcolourproject_2stim_asymm_v5,2020.2.10,MacIntel,60,61025ae37ef11b136ea224fe,,,,,,,,,2127,66,27,1,0,0,response1disk,,6,14,6,1,0,0,rectangle,71,-29,1,0,0,-14,5,1,0,0,1,86,246,56,1,,response3disk_3,TRUE,5,5,"[127,200,247,296,103,122,163,269,321,156,53,219,61,183,98,55,274,116,77,129]",1.383,rectangle
,,,,,,,,,,,,,FF,,,,,,,,0.767,,,,,,,,,,,,,,,,,,,,,,6102e3d449f429ddae848e98,61036d28cbde84e527310dcf,2021-07-29_23h10.00.516,Simcolourproject_2stim_asymm_v5,2020.2.10,MacIntel,60,61025ae37ef11b136ea224fe,,,,,,,,,3195,-34,75,1,0,0,response7disk,,0,-18,16,1,0,0,rectangle,-18,16,1,0,0,-18,16,1,0,0,1,87,247,101,1,,,,,,,,
,,,,,,,,,,,,,FF,,,,,,,,1.2,,,,,,,,,,,,,,,,,,,,,,6102e3d449f429ddae848e98,61036d28cbde84e527310dcf,2021-07-29_23h10.00.516,Simcolourproject_2stim_asymm_v5,2020.2.10,MacIntel,60,61025ae37ef11b136ea224fe,,,,,,,,,3278,76,31,1,0,0,response1disk,,6,8,-6,1,0,0,rectangle,8,-6,1,0,0,8,-6,1,0,0,1,88,248,16,1,,,,,,,,
,,,,,,,,,,,,,FF,,,,,,,,1.184,,,,,,,,,,,,,,,,,,,,,,6102e3d449f429ddae848e98,61036d28cbde84e527310dcf,2021-07-29_23h10.00.516,Simcolourproject_2stim_asymm_v5,2020.2.10,MacIntel,60,61025ae37ef11b136ea224fe,,,,,,,,,3161,76,41,1,0,0,response1disk,,6,4,5,1,0,0,rectangle,4,5,1,0,0,4,5,1,0,0,1,89,249,128,1,,,,,,,,
,,,,,,,,,,,,,FF,,,,,,,,0.901,,,,,,,,,,,,,,,,,,,,,,6102e3d449f429ddae848e98,61036d28cbde84e527310dcf,2021-07-29_23h10.00.516,Simcolourproject_2stim_asymm_v5,2020.2.10,MacIntel,60,61025ae37ef11b136ea224fe,,,,,,,,,4332,50,96,1,0,0,response1disk,,7,9,17,1,0,0,rectangle,9,17,1,0,0,9,17,1,0,0,1,90,250,68,1,,,,,,,,
,,,,,,,,,,,,,FF,,,,,,,,3.517,,,,,,,,,,,,,,,,,,,,,,6102e3d449f429ddae848e98,61036d28cbde84e527310dcf,2021-07-29_23h10.00.516,Simcolourproject_2stim_asymm_v5,2020.2.10,MacIntel,60,61025ae37ef11b136ea224fe,,,,,,,,,1434,35,-64,1,0,0,response3disk,,4,5,-1,1,0,0,rectangle,5,-1,1,0,0,5,-1,1,0,0,1,91,251,74,1,,,,,,,,
,,,,,,,,,,,,,FF,,,,,,,,0.85,,,,,,,,,,,,,,,,,,,,,,6102e3d449f429ddae848e98,61036d28cbde84e527310dcf,2021-07-29_23h10.00.516,Simcolourproject_2stim_asymm_v5,2020.2.10,MacIntel,60,61025ae37ef11b136ea224fe,,,,,,,,,1437,88,-41,1,0,0,response3disk,,5,18,2,1,0,0,rectangle,18,2,1,0,0,18,2,1,0,0,1,92,252,67,1,,,,,,,,
,,,,,,,,,,,,,FF,,,,,,,,0.8,,,,,,,,,,,,,,,,,,,,,,6102e3d449f429ddae848e98,61036d28cbde84e527310dcf,2021-07-29_23h10.00.516,Simcolourproject_2stim_asymm_v5,2020.2.10,MacIntel,60,61025ae37ef11b136ea224fe,,,,,,,,,2458,81,31,1,0,0,response1disk,,6,11,16,1,0,0,rectangle,11,16,1,0,0,11,16,1,0,0,1,93,253,104,1,,,,,,,,
,,,,,,,,,,,,,FF,,,,,,,,0.884,,,,,,,,,,,,,,,,,,,,,,6102e3d449f429ddae848e98,61036d28cbde84e527310dcf,2021-07-29_23h10.00.516,Simcolourproject_2stim_asymm_v5,2020.2.10,MacIntel,60,61025ae37ef11b136ea224fe,,,,,,,,,613,-73,-21,1,0,0,response5disk,,2,16,-14,1,0,0,rectangle,16,-14,1,0,0,16,-14,1,0,0,1,94,254,78,1,,,,,,,,
,,,,,,,,,,,,,FF,,,,,,,,0.867,,,,,,,,,,,,,,,,,,,,,,6102e3d449f429ddae848e98,61036d28cbde84e527310dcf,2021-07-29_23h10.00.516,Simcolourproject_2stim_asymm_v5,2020.2.10,MacIntel,60,61025ae37ef11b136ea224fe,,,,,,,,,3469,-69,-34,1,0,0,response5disk,,2,-17,0,1,0,0,rectangle,-17,0,1,0,0,-17,0,1,0,0,1,95,255,34,1,,,,,,,,
,,,,,,,,,,,,,FF,,,,,,,,0.734,,,,,,,,,,,,,,,,,,,,,,6102e3d449f429ddae848e98,61036d28cbde84e527310dcf,2021-07-29_23h10.00.516,Simcolourproject_2stim_asymm_v5,2020.2.10,MacIntel,60,61025ae37ef11b136ea224fe,,,,,,,,,3972,-93,-29,1,0,0,response5disk,,2,-16,-10,1,0,0,rectangle,-16,-10,1,0,0,-16,-10,1,0,0,1,96,256,4,1,,,,,,,,
,,,,,,,,,,,,,FF,,,,,,,,1.25,,,,,,,,,,,,,,,,,,,,,,6102e3d449f429ddae848e98,61036d28cbde84e527310dcf,2021-07-29_23h10.00.516,Simcolourproject_2stim_asymm_v5,2020.2.10,MacIntel,60,61025ae37ef11b136ea224fe,,,,,,,,,379,73,27,1,0,0,response1disk,,6,5,-2,1,0,0,rectangle,5,-2,1,0,0,5,-2,1,0,0,1,97,257,103,1,,,,,,,,
,,,,,,,,,,,,,FF,,,,,,,,1.2,,,,,,,,,,,,,,,,,,,,,,6102e3d449f429ddae848e98,61036d28cbde84e527310dcf,2021-07-29_23h10.00.516,Simcolourproject_2stim_asymm_v5,2020.2.10,MacIntel,60,61025ae37ef11b136ea224fe,,,,,,,,,3518,24,-65,1,0,0,response3disk,,4,0,-17,1,0,0,rectangle,0,-17,1,0,0,0,-17,1,0,0,1,98,258,118,1,,,,,,,,
,,,,,,,,,,,,,FF,,,,,,,,0.799,,,,,,,,,,,,,,,,,,,,,,6102e3d449f429ddae848e98,61036d28cbde84e527310dcf,2021-07-29_23h10.00.516,Simcolourproject_2stim_asymm_v5,2020.2.10,MacIntel,60,61025ae37ef11b136ea224fe,,,,,,,,,3678,-35,-52,1,0,0,response5disk,,3,-5,-3,1,0,0,rectangle,-5,-3,1,0,0,-5,-3,1,0,0,1,99,259,35,1,,,,,,,,
,,,,,,,,,,,,,FF,,,,,,,,0.716,,,,,,,,,,,,,,,,,,,,,,6102e3d449f429ddae848e98,61036d28cbde84e527310dcf,2021-07-29_23h10.00.516,Simcolourproject_2stim_asymm_v5,2020.2.10,MacIntel,60,61025ae37ef11b136ea224fe,,,,,,,,,1130,41,76,1,0,0,response1disk,,7,4,-5,1,0,0,rectangle,4,-5,1,0,0,4,-5,1,0,0,1,100,260,130,1,,,,,,,,
,,,,,,,,,,,,,FF,,,,,,,,1.166,,,,,,,,,,,,,,,,,,,,,,6102e3d449f429ddae848e98,61036d28cbde84e527310dcf,2021-07-29_23h10.00.516,Simcolourproject_2stim_asymm_v5,2020.2.10,MacIntel,60,61025ae37ef11b136ea224fe,,,,,,,,,4311,41,83,1,0,0,response1disk,,7,-5,-2,1,0,0,rectangle,-5,-2,1,0,0,-5,-2,1,0,0,1,101,261,94,1,,,,,,,,
,,,,,,,,,,,,,FF,,,,,,,,0.967,,,,,,,,,,,,,,,,,,,,,,6102e3d449f429ddae848e98,61036d28cbde84e527310dcf,2021-07-29_23h10.00.516,Simcolourproject_2stim_asymm_v5,2020.2.10,MacIntel,60,61025ae37ef11b136ea224fe,,,,,,,,,1055,-27,-69,1,0,0,response5disk,,3,3,-4,1,0,0,rectangle,3,-4,1,0,0,3,-4,1,0,0,1,102,262,119,1,,,,,,,,
,,,,,,,,,,,,,FF,,,,,,,,1,,,,,,,,,,,,,,,,,,,,,,6102e3d449f429ddae848e98,61036d28cbde84e527310dcf,2021-07-29_23h10.00.516,Simcolourproject_2stim_asymm_v5,2020.2.10,MacIntel,60,61025ae37ef11b136ea224fe,,,,,,,,,1502,78,-26,1,0,0,response3disk,,5,9,-9,1,0,0,rectangle,9,-9,1,0,0,9,-9,1,0,0,1,103,263,41,1,,,,,,,,
,,,,,,,,,,,,,FF,,,,,,,,1.05,,,,,,,,,,,,,,,,,,,,,,6102e3d449f429ddae848e98,61036d28cbde84e527310dcf,2021-07-29_23h10.00.516,Simcolourproject_2stim_asymm_v5,2020.2.10,MacIntel,60,61025ae37ef11b136ea224fe,,,,,,,,,2727,34,-76,1,0,0,response3disk,,4,-4,-8,1,0,0,rectangle,-4,-8,1,0,0,-4,-8,1,0,0,1,104,264,143,1,,,,,,,,
,,,,,,,,,,,,,FF,,,,,,,,0.951,,,,,,,,,,,,,,,,,,,,,,6102e3d449f429ddae848e98,61036d28cbde84e527310dcf,2021-07-29_23h10.00.516,Simcolourproject_2stim_asymm_v5,2020.2.10,MacIntel,60,61025ae37ef11b136ea224fe,,,,,,,,,1650,82,33,1,0,0,response1disk,,6,10,10,1,0,0,rectangle,10,10,1,0,0,10,10,1,0,0,1,105,265,136,1,,,,,,,,
,,,,,,,,,,,,,FF,,,,,,,,0.785,,,,,,,,,,,,,,,,,,,,,,6102e3d449f429ddae848e98,61036d28cbde84e527310dcf,2021-07-29_23h10.00.516,Simcolourproject_2stim_asymm_v5,2020.2.10,MacIntel,60,61025ae37ef11b136ea224fe,,,,,,,,,3158,60,-34,1,0,0,response3disk,,5,4,-13,1,0,0,rectangle,4,-13,1,0,0,4,-13,1,0,0,1,106,266,43,1,,,,,,,,
,,,,,,,,,,,,,FF,,,,,,,,0.8,,,,,,,,,,,,,,,,,,,,,,6102e3d449f429ddae848e98,61036d28cbde84e527310dcf,2021-07-29_23h10.00.516,Simcolourproject_2stim_asymm_v5,2020.2.10,MacIntel,60,61025ae37ef11b136ea224fe,,,,,,,,,4153,36,80,1,0,0,response1disk,,7,2,5,1,0,0,rectangle,2,5,1,0,0,2,5,1,0,0,1,107,267,31,1,,,,,,,,
,,,,,,,,,,,,,FF,,,,,,,,0.75,,,,,,,,,,,,,,,,,,,,,,6102e3d449f429ddae848e98,61036d28cbde84e527310dcf,2021-07-29_23h10.00.516,Simcolourproject_2stim_asymm_v5,2020.2.10,MacIntel,60,61025ae37ef11b136ea224fe,,,,,,,,,4019,43,86,1,0,0,response1disk,,7,4,8,1,0,0,rectangle,74,-42,1,0,0,-2,3,1,0,0,1,108,268,2,1,,response3disk_3,TRUE,5,5,"[127,200,247,296,103,122,163,269,321,156,53,219,61,183,98,55,274,116,77,129]",1.416,rectangle
,,,,,,,,,,,,,FF,,,,,,,,0.766,,,,,,,,,,,,,,,,,,,,,,6102e3d449f429ddae848e98,61036d28cbde84e527310dcf,2021-07-29_23h10.00.516,Simcolourproject_2stim_asymm_v5,2020.2.10,MacIntel,60,61025ae37ef11b136ea224fe,,,,,,,,,2400,85,38,1,0,0,response1disk,,6,10,5,1,0,0,rectangle,10,5,1,0,0,10,5,1,0,0,1,109,269,23,1,,,,,,,,
,,,,,,,,,,,,,FF,,,,,,,,0.951,,,,,,,,,,,,,,,,,,,,,,6102e3d449f429ddae848e98,61036d28cbde84e527310dcf,2021-07-29_23h10.00.516,Simcolourproject_2stim_asymm_v5,2020.2.10,MacIntel,60,61025ae37ef11b136ea224fe,,,,,,,,,2666,20,-73,1,0,0,response3disk,,4,-8,-15,1,0,0,rectangle,-8,-15,1,0,0,-8,-15,1,0,0,1,110,270,157,1,,,,,,,,
,,,,,,,,,,,,,FF,,,,,,,,1.334,,,,,,,,,,,,,,,,,,,,,,6102e3d449f429ddae848e98,61036d28cbde84e527310dcf,2021-07-29_23h10.00.516,Simcolourproject_2stim_asymm_v5,2020.2.10,MacIntel,60,61025ae37ef11b136ea224fe,,,,,,,,,3982,89,34,1,0,0,response1disk,,6,8,-10,1,0,0,rectangle,8,-10,1,0,0,8,-10,1,0,0,1,111,271,144,1,,,,,,,,
,,,,,,,,,,,,,FF,,,,,,,,0.666,,,,,,,,,,,,,,,,,,,,,,6102e3d449f429ddae848e98,61036d28cbde84e527310dcf,2021-07-29_23h10.00.516,Simcolourproject_2stim_asymm_v5,2020.2.10,MacIntel,60,61025ae37ef11b136ea224fe,,,,,,,,,850,83,33,1,0,0,response1disk,,6,8,15,1,0,0,rectangle,8,15,1,0,0,8,15,1,0,0,1,112,272,135,1,,,,,,,,
,,,,,,,,,,,,,FF,,,,,,,,1.449,,,,,,,,,,,,,,,,,,,,,,6102e3d449f429ddae848e98,61036d28cbde84e527310dcf,2021-07-29_23h10.00.516,Simcolourproject_2stim_asymm_v5,2020.2.10,MacIntel,60,61025ae37ef11b136ea224fe,,,,,,,,,654,74,51,1,0,0,response1disk,,6,-9,3,1,0,0,rectangle,-86,-35,1,0,0,-3,-10,1,0,0,1,113,273,149,1,,response5disk_3,TRUE,2,2,"[127,200,247,296,103,122,163,269,321,156,53,219,61,183,98,55,274,116,77,129]",2.566,rectangle
,,,,,,,,,,,,,FF,,,,,,,,1.25,,,,,,,,,,,,,,,,,,,,,,6102e3d449f429ddae848e98,61036d28cbde84e527310dcf,2021-07-29_23h10.00.516,Simcolourproject_2stim_asymm_v5,2020.2.10,MacIntel,60,61025ae37ef11b136ea224fe,,,,,,,,,2293,34,-98,1,0,0,response3disk,,4,-1,-1,1,0,0,rectangle,-1,-1,1,0,0,-1,-1,1,0,0,1,114,274,47,1,,,,,,,,
,,,,,,,,,,,,,FF,,,,,,,,0.9,,,,,,,,,,,,,,,,,,,,,,6102e3d449f429ddae848e98,61036d28cbde84e527310dcf,2021-07-29_23h10.00.516,Simcolourproject_2stim_asymm_v5,2020.2.10,MacIntel,60,61025ae37ef11b136ea224fe,,,,,,,,,4034,79,-45,1,0,0,response3disk,,5,20,-10,1,0,0,rectangle,20,-10,1,0,0,20,-10,1,0,0,1,115,275,25,1,,,,,,,,
,,,,,,,,,,,,,FF,,,,,,,,0.882,,,,,,,,,,,,,,,,,,,,,,6102e3d449f429ddae848e98,61036d28cbde84e527310dcf,2021-07-29_23h10.00.516,Simcolourproject_2stim_asymm_v5,2020.2.10,MacIntel,60,61025ae37ef11b136ea224fe,,,,,,,,,288,70,39,1,0,0,response1disk,,6,-5,2,1,0,0,rectangle,-5,2,1,0,0,-5,2,1,0,0,1,116,276,114,1,,,,,,,,
,,,,,,,,,,,,,FF,,,,,,,,0.984,,,,,,,,,,,,,,,,,,,,,,6102e3d449f429ddae848e98,61036d28cbde84e527310dcf,2021-07-29_23h10.00.516,Simcolourproject_2stim_asymm_v5,2020.2.10,MacIntel,60,61025ae37ef11b136ea224fe,,,,,,,,,3002,67,-31,1,0,0,response3disk,,5,1,0,1,0,0,rectangle,1,0,1,0,0,1,0,1,0,0,1,117,277,12,1,,,,,,,,
,,,,,,,,,,,,,FF,,,,,,,,1.2,,,,,,,,,,,,,,,,,,,,,,6102e3d449f429ddae848e98,61036d28cbde84e527310dcf,2021-07-29_23h10.00.516,Simcolourproject_2stim_asymm_v5,2020.2.10,MacIntel,60,61025ae37ef11b136ea224fe,,,,,,,,,2036,36,-77,1,0,0,response3disk,,4,3,-10,1,0,0,rectangle,3,-10,1,0,0,3,-10,1,0,0,1,118,278,26,1,,,,,,,,
,,,,,,,,,,,,,FF,,,,,,,,3.551,,,,,,,,,,,,,,,,,,,,,,6102e3d449f429ddae848e98,61036d28cbde84e527310dcf,2021-07-29_23h10.00.516,Simcolourproject_2stim_asymm_v5,2020.2.10,MacIntel,60,61025ae37ef11b136ea224fe,,,,,,,,,152,-40,-83,1,0,0,response5disk,,3,-6,0,1,0,0,rectangle,-6,0,1,0,0,-6,0,1,0,0,1,119,279,73,1,,,,,,,,
,,,,,,,,,,,,,FF,,,,,,,,1.416,,,,,,,,,,,,,,,,,,,,,,6102e3d449f429ddae848e98,61036d28cbde84e527310dcf,2021-07-29_23h10.00.516,Simcolourproject_2stim_asymm_v5,2020.2.10,MacIntel,60,61025ae37ef11b136ea224fe,,,,,,,,,2085,27,-78,1,0,0,response3disk,,4,-6,-13,1,0,0,rectangle,-6,-13,1,0,0,-6,-13,1,0,0,1,120,280,51,1,,,,,,,,
,,,,,,,,,,,,,FF,,,,,,,,1.283,,,,,,,,,,,,,,,,,,,,,,6102e3d449f429ddae848e98,61036d28cbde84e527310dcf,2021-07-29_23h10.00.516,Simcolourproject_2stim_asymm_v5,2020.2.10,MacIntel,60,61025ae37ef11b136ea224fe,,,,,,,,,849,88,29,1,0,0,response1disk,,6,-11,-4,1,0,0,rectangle,-11,-4,1,0,0,-11,-4,1,0,0,1,121,281,105,1,,,,,,,,
,,,,,,,,,,,,,FF,,,,,,,,0.917,,,,,,,,,,,,,,,,,,,,,,6102e3d449f429ddae848e98,61036d28cbde84e527310dcf,2021-07-29_23h10.00.516,Simcolourproject_2stim_asymm_v5,2020.2.10,MacIntel,60,61025ae37ef11b136ea224fe,,,,,,,,,2414,85,-39,1,0,0,response3disk,,5,-4,-1,1,0,0,rectangle,-4,-1,1,0,0,-4,-1,1,0,0,1,122,282,30,1,,,,,,,,
,,,,,,,,,,,,,FF,,,,,,,,0.934,,,,,,,,,,,,,,,,,,,,,,6102e3d449f429ddae848e98,61036d28cbde84e527310dcf,2021-07-29_23h10.00.516,Simcolourproject_2stim_asymm_v5,2020.2.10,MacIntel,60,61025ae37ef11b136ea224fe,,,,,,,,,91,72,20,1,0,0,response1disk,,6,6,-6,1,0,0,rectangle,6,-6,1,0,0,6,-6,1,0,0,1,123,283,39,1,,,,,,,,
,,,,,,,,,,,,,FF,,,,,,,,1.166,,,,,,,,,,,,,,,,,,,,,,6102e3d449f429ddae848e98,61036d28cbde84e527310dcf,2021-07-29_23h10.00.516,Simcolourproject_2stim_asymm_v5,2020.2.10,MacIntel,60,61025ae37ef11b136ea224fe,,,,,,,,,104,43,-71,1,0,0,response3disk,,4,2,-1,1,0,0,rectangle,2,-1,1,0,0,2,-1,1,0,0,1,124,284,45,1,,,,,,,,
,,,,,,,,,,,,,FF,,,,,,,,3.017,,,,,,,,,,,,,,,,,,,,,,6102e3d449f429ddae848e98,61036d28cbde84e527310dcf,2021-07-29_23h10.00.516,Simcolourproject_2stim_asymm_v5,2020.2.10,MacIntel,60,61025ae37ef11b136ea224fe,,,,,,,,,2498,86,38,1,0,0,response1disk,,6,4,7,1,0,0,rectangle,4,7,1,0,0,4,7,1,0,0,1,125,285,158,1,,,,,,,,
,,,,,,,,,,,,,FF,,,,,,,,0.8,,,,,,,,,,,,,,,,,,,,,,6102e3d449f429ddae848e98,61036d28cbde84e527310dcf,2021-07-29_23h10.00.516,Simcolourproject_2stim_asymm_v5,2020.2.10,MacIntel,60,61025ae37ef11b136ea224fe,,,,,,,,,2885,46,89,1,0,0,response1disk,,7,-1,-3,1,0,0,rectangle,-1,-3,1,0,0,-1,-3,1,0,0,1,126,286,151,1,,,,,,,,
,,,,,,,,,,,,,FF,,,,,,,,1.101,,,,,,,,,,,,,,,,,,,,,,6102e3d449f429ddae848e98,61036d28cbde84e527310dcf,2021-07-29_23h10.00.516,Simcolourproject_2stim_asymm_v5,2020.2.10,MacIntel,60,61025ae37ef11b136ea224fe,,,,,,,,,2043,38,-65,1,0,0,response3disk,,4,-2,10,1,0,0,rectangle,-2,10,1,0,0,-2,10,1,0,0,1,127,287,121,1,,,,,,,,
,,,,,,,,,,,,,FF,,,,,,,,1.084,,,,,,,,,,,,,,,,,,,,,,6102e3d449f429ddae848e98,61036d28cbde84e527310dcf,2021-07-29_23h10.00.516,Simcolourproject_2stim_asymm_v5,2020.2.10,MacIntel,60,61025ae37ef11b136ea224fe,,,,,,,,,2492,75,26,1,0,0,response1disk,,6,-1,0,1,0,0,rectangle,-1,0,1,0,0,-1,0,1,0,0,1,128,288,137,1,,,,,,,,
,,,,,,,,,,,,,FF,,,,,,,,2,,,,,,,,,,,,,,,,,,,,,,6102e3d449f429ddae848e98,61036d28cbde84e527310dcf,2021-07-29_23h10.00.516,Simcolourproject_2stim_asymm_v5,2020.2.10,MacIntel,60,61025ae37ef11b136ea224fe,,,,,,,,,1284,35,-76,1,0,0,response3disk,,4,-8,-3,1,0,0,rectangle,-8,-3,1,0,0,-8,-3,1,0,0,1,129,289,133,1,,,,,,,,
,,,,,,,,,,,,,FF,,,,,,,,1.935,,,,,,,,,,,,,,,,,,,,,,6102e3d449f429ddae848e98,61036d28cbde84e527310dcf,2021-07-29_23h10.00.516,Simcolourproject_2stim_asymm_v5,2020.2.10,MacIntel,60,61025ae37ef11b136ea224fe,,,,,,,,,2924,82,32,1,0,0,response1disk,,6,12,16,1,0,0,rectangle,12,16,1,0,0,12,16,1,0,0,1,130,290,91,1,,,,,,,,
,,,,,,,,,,,,,FF,,,,,,,,0.917,,,,,,,,,,,,,,,,,,,,,,6102e3d449f429ddae848e98,61036d28cbde84e527310dcf,2021-07-29_23h10.00.516,Simcolourproject_2stim_asymm_v5,2020.2.10,MacIntel,60,61025ae37ef11b136ea224fe,,,,,,,,,3934,65,-28,1,0,0,response3disk,,5,5,2,1,0,0,rectangle,5,2,1,0,0,5,2,1,0,0,1,131,291,139,1,,,,,,,,
,,,,,,,,,,,,,FF,,,,,,,,0.75,,,,,,,,,,,,,,,,,,,,,,6102e3d449f429ddae848e98,61036d28cbde84e527310dcf,2021-07-29_23h10.00.516,Simcolourproject_2stim_asymm_v5,2020.2.10,MacIntel,60,61025ae37ef11b136ea224fe,,,,,,,,,3836,67,-39,1,0,0,response3disk,,5,15,-6,1,0,0,rectangle,15,-6,1,0,0,15,-6,1,0,0,1,132,292,37,1,,,,,,,,
,,,,,,,,,,,,,FF,,,,,,,,1.133,,,,,,,,,,,,,,,,,,,,,,6102e3d449f429ddae848e98,61036d28cbde84e527310dcf,2021-07-29_23h10.00.516,Simcolourproject_2stim_asymm_v5,2020.2.10,MacIntel,60,61025ae37ef11b136ea224fe,,,,,,,,,1679,41,-59,1,0,0,response3disk,,4,-14,12,1,0,0,rectangle,-14,12,1,0,0,-14,12,1,0,0,1,133,293,148,1,,,,,,,,
,,,,,,,,,,,,,FF,,,,,,,,1.267,,,,,,,,,,,,,,,,,,,,,,6102e3d449f429ddae848e98,61036d28cbde84e527310dcf,2021-07-29_23h10.00.516,Simcolourproject_2stim_asymm_v5,2020.2.10,MacIntel,60,61025ae37ef11b136ea224fe,,,,,,,,,1008,68,-34,1,0,0,response3disk,,5,-8,-2,1,0,0,rectangle,-8,-2,1,0,0,-8,-2,1,0,0,1,134,294,80,1,,,,,,,,
,,,,,,,,,,,,,FF,,,,,,,,0.816,,,,,,,,,,,,,,,,,,,,,,6102e3d449f429ddae848e98,61036d28cbde84e527310dcf,2021-07-29_23h10.00.516,Simcolourproject_2stim_asymm_v5,2020.2.10,MacIntel,60,61025ae37ef11b136ea224fe,,,,,,,,,3137,38,89,1,0,0,response1disk,,7,2,-3,1,0,0,rectangle,-80,21,1,0,0,0,10,1,0,0,1,135,295,42,1,,response7disk_3,TRUE,1,1,"[127,200,247,296,103,122,163,269,321,156,53,219,61,183,98,55,274,116,77,129]",1.568,rectangle
,,,,,,,,,,,,,FF,,,,,,,,1.017,,,,,,,,,,,,,,,,,,,,,,6102e3d449f429ddae848e98,61036d28cbde84e527310dcf,2021-07-29_23h10.00.516,Simcolourproject_2stim_asymm_v5,2020.2.10,MacIntel,60,61025ae37ef11b136ea224fe,,,,,,,,,2615,-41,-59,1,0,0,response5disk,,3,-12,4,1,0,0,rectangle,-12,4,1,0,0,-12,4,1,0,0,1,136,296,20,1,,,,,,,,
,,,,,,,,,,,,,FF,,,,,,,,1.134,,,,,,,,,,,,,,,,,,,,,,6102e3d449f429ddae848e98,61036d28cbde84e527310dcf,2021-07-29_23h10.00.516,Simcolourproject_2stim_asymm_v5,2020.2.10,MacIntel,60,61025ae37ef11b136ea224fe,,,,,,,,,1165,49,-84,1,0,0,response3disk,,4,-3,6,1,0,0,rectangle,-3,6,1,0,0,-3,6,1,0,0,1,137,297,127,1,,,,,,,,
,,,,,,,,,,,,,FF,,,,,,,,0.818,,,,,,,,,,,,,,,,,,,,,,6102e3d449f429ddae848e98,61036d28cbde84e527310dcf,2021-07-29_23h10.00.516,Simcolourproject_2stim_asymm_v5,2020.2.10,MacIntel,60,61025ae37ef11b136ea224fe,,,,,,,,,1846,86,41,1,0,0,response1disk,,6,8,7,1,0,0,rectangle,8,7,1,0,0,8,7,1,0,0,1,138,298,58,1,,,,,,,,
,,,,,,,,,,,,,FF,,,,,,,,0.8,,,,,,,,,,,,,,,,,,,,,,6102e3d449f429ddae848e98,61036d28cbde84e527310dcf,2021-07-29_23h10.00.516,Simcolourproject_2stim_asymm_v5,2020.2.10,MacIntel,60,61025ae37ef11b136ea224fe,,,,,,,,,2106,83,-32,1,0,0,response3disk,,5,4,-2,1,0,0,rectangle,4,-2,1,0,0,4,-2,1,0,0,1,139,299,79,1,,,,,,,,
,,,,,,,,,,,,,FF,,,,,,,,1.75,,,,,,,,,,,,,,,,,,,,,,6102e3d449f429ddae848e98,61036d28cbde84e527310dcf,2021-07-29_23h10.00.516,Simcolourproject_2stim_asymm_v5,2020.2.10,MacIntel,60,61025ae37ef11b136ea224fe,,,,,,,,,3854,37,-82,1,0,0,response3disk,,4,-5,7,1,0,0,rectangle,-5,7,1,0,0,-5,7,1,0,0,1,140,300,71,1,,,,,,,,
