key_resp.keys,key_resp.rt,key_resp_14.keys,key_resp_14.rt,key_resp_15.keys,key_resp_15.rt,key_resp_17.keys,key_resp_17.rt,key_resp_9.keys,key_resp_9.rt,key_resp_10.keys,key_resp_10.rt,practice_comparison,Ecc,mouse_5.x,mouse_5.y,mouse_5.leftButton,mouse_5.midButton,mouse_5.rightButton,mouse_5.clicked_name,pracsimilarity,response_time,mouse_10.x,mouse_10.y,mouse_10.leftButton,mouse_10.midButton,mouse_10.rightButton,mouse_10.clicked_name,mouse_7.x,mouse_7.y,mouse_7.leftButton,mouse_7.midButton,mouse_7.rightButton,mouse_6.x,mouse_6.y,mouse_6.leftButton,mouse_6.midButton,mouse_6.rightButton,duringprac.thisRepN,duringprac.thisTrialN,duringprac.thisN,duringprac.thisIndex,duringprac.ran,participant,session,date,expName,psychopyVersion,OS,frameRate,study_id,mouse_7.clicked_name,catchpracsimilarity,catch_response_time,catchnumberprac,catchtrialorderprac,mouse_6.clicked_name,key_resp_22.keys,key_resp_22.rt,realcomparison,mouse.x,mouse.y,mouse.leftButton,mouse.midButton,mouse.rightButton,mouse.clicked_name,Colour2,similarity,mouse_2.x,mouse_2.y,mouse_2.leftButton,mouse_2.midButton,mouse_2.rightButton,mouse_2.clicked_name,mouse_3.x,mouse_3.y,mouse_3.leftButton,mouse_3.midButton,mouse_3.rightButton,mouse_3.clicked_name,catchornah,catchsimilarity,catchnumber,catchtrialorder,catchRT,mouse_11.x,mouse_11.y,mouse_11.leftButton,mouse_11.midButton,mouse_11.rightButton,mouse_11.clicked_name,trials_2.thisRepN,trials_2.thisTrialN,trials_2.thisN,trials_2.thisIndex,trials_2.ran,Colour1
space,1.7922,space,9.9502,space,57.5975,space,4.2942,space,0.8192,space,4.1617,88,PF,-52.37890625,-106.0703125,1,0,0,response5disk_5,3,6.3574,8.796875,-1.90625,1,0,0,rectangle_8,8.796875,-1.90625,1,0,0,8.796875,-1.90625,1,0,0,0,0,0,1,1,6102ec963d19b2600a047347,61036beec47011d51cdbae62,2021-07-29_23h03.47.956,Simcolourproject_2stim_asymm_v5,2020.2.10,MacIntel,60,61025ae37ef11b136ea224fe,,,,,,,,,,,,,,,,,,,,,,,,,,,,,,,,,,,,,,,,,,,,,,
,,,,,,,,,,,,97,PF,93.0078125,26.546875,1,0,0,response1disk_5,6,1.8383,3.359375,-2.609375,1,0,0,rectangle_8,-94.23046875,-47.6875,1,0,0,-9.63671875,3.30859375,1,0,0,0,1,1,4,1,6102ec963d19b2600a047347,61036beec47011d51cdbae62,2021-07-29_23h03.47.956,Simcolourproject_2stim_asymm_v5,2020.2.10,MacIntel,60,61025ae37ef11b136ea224fe,response5disk_7,2,2.5565,2,"[2,5]",rectangle_4,,,,,,,,,,,,,,,,,,,,,,,,,,,,,,,,,,,,,,,,
,,,,,,,,,,,,160,PF,46.34765625,93.6328125,1,0,0,response1disk_5,7,1.6385,-0.1875,-1.7578125,1,0,0,rectangle_8,-0.1875,-1.7578125,1,0,0,-0.1875,-1.7578125,1,0,0,0,2,2,2,1,6102ec963d19b2600a047347,61036beec47011d51cdbae62,2021-07-29_23h03.47.956,Simcolourproject_2stim_asymm_v5,2020.2.10,MacIntel,60,61025ae37ef11b136ea224fe,,,,,,,,,,,,,,,,,,,,,,,,,,,,,,,,,,,,,,,,,,,,,,
,,,,,,,,,,,,136,PF,37.03125,-97.62890625,1,0,0,response3disk_5,4,1.6221,12.87109375,0.1015625,1,0,0,rectangle_8,12.87109375,0.1015625,1,0,0,12.87109375,0.1015625,1,0,0,0,3,3,6,1,6102ec963d19b2600a047347,61036beec47011d51cdbae62,2021-07-29_23h03.47.956,Simcolourproject_2stim_asymm_v5,2020.2.10,MacIntel,60,61025ae37ef11b136ea224fe,,,,,,,,,,,,,,,,,,,,,,,,,,,,,,,,,,,,,,,,,,,,,,
,,,,,,,,,,,,58,FF,92.76953125,45.984375,1,0,0,response1disk_5,6,1.0874,6.953125,-8.734375,1,0,0,rectangle_8,-109.7304688,-63.8515625,1,0,0,-15.63671875,-1.984375,1,0,0,0,4,4,0,1,6102ec963d19b2600a047347,61036beec47011d51cdbae62,2021-07-29_23h03.47.956,Simcolourproject_2stim_asymm_v5,2020.2.10,MacIntel,60,61025ae37ef11b136ea224fe,response5disk_7,2,2.2396,2,"[2,5]",rectangle_4,,,,,,,,,,,,,,,,,,,,,,,,,,,,,,,,,,,,,,,,
,,,,,,,,,,,,155,FF,44.453125,88.6328125,1,0,0,response1disk_5,7,1.989,15.5859375,-0.03515625,1,0,0,rectangle_8,15.5859375,-0.03515625,1,0,0,15.5859375,-0.03515625,1,0,0,0,5,5,3,1,6102ec963d19b2600a047347,61036beec47011d51cdbae62,2021-07-29_23h03.47.956,Simcolourproject_2stim_asymm_v5,2020.2.10,MacIntel,60,61025ae37ef11b136ea224fe,,,,,,,,,,,,,,,,,,,,,,,,,,,,,,,,,,,,,,,,,,,,,,
,,,,,,,,,,,,49,FF,-74.69140625,-54.6484375,1,0,0,response5disk_5,2,1.1865,-11.94140625,-4.45703125,1,0,0,rectangle_8,-11.94140625,-4.45703125,1,0,0,-11.94140625,-4.45703125,1,0,0,0,6,6,5,1,6102ec963d19b2600a047347,61036beec47011d51cdbae62,2021-07-29_23h03.47.956,Simcolourproject_2stim_asymm_v5,2020.2.10,MacIntel,60,61025ae37ef11b136ea224fe,,,,,,,,,,,,,,,,,,,,,,,,,,,,,,,,,,,,,,,,,,,,,,
,,,,,,,,,,,,,FF,,,,,,,,1.3021,,,,,,,,,,,,,,,,,,,,,,6102ec963d19b2600a047347,61036beec47011d51cdbae62,2021-07-29_23h03.47.956,Simcolourproject_2stim_asymm_v5,2020.2.10,MacIntel,60,61025ae37ef11b136ea224fe,,,,,,,space,2.7265,1343,87.30859375,38.3046875,1,0,0,response1disk,,6,13.40234375,-0.83203125,1,0,0,rectangle,35.55078125,79.4609375,1,0,0,response1disk_3,TRUE,7,7,"[1,218,175,201,139,15,200,162,232,273,43,71,185,229,162,88,98,271,264,115]",1.7242,6.1640625,6.015625,1,0,0,rectangle,0,0,0,101,1,
,,,,,,,,,,,,,FF,,,,,,,,1.922,,,,,,,,,,,,,,,,,,,,,,6102ec963d19b2600a047347,61036beec47011d51cdbae62,2021-07-29_23h03.47.956,Simcolourproject_2stim_asymm_v5,2020.2.10,MacIntel,60,61025ae37ef11b136ea224fe,,,,,,,,,2537,120.2070313,56.609375,1,0,0,response1disk,,6,4.35546875,-10.13671875,1,0,0,rectangle,4.35546875,-10.13671875,1,0,0,,,,,,,4.35546875,-10.13671875,1,0,0,,0,1,1,9,1,
,,,,,,,,,,,,,FF,,,,,,,,1.0026,,,,,,,,,,,,,,,,,,,,,,6102ec963d19b2600a047347,61036beec47011d51cdbae62,2021-07-29_23h03.47.956,Simcolourproject_2stim_asymm_v5,2020.2.10,MacIntel,60,61025ae37ef11b136ea224fe,,,,,,,,,2830,37.5,80.21484375,1,0,0,response1disk,,7,2.01171875,-1.4921875,1,0,0,rectangle,2.01171875,-1.4921875,1,0,0,,,,,,,2.01171875,-1.4921875,1,0,0,,0,2,2,70,1,
,,,,,,,,,,,,,FF,,,,,,,,0.9197,,,,,,,,,,,,,,,,,,,,,,6102ec963d19b2600a047347,61036beec47011d51cdbae62,2021-07-29_23h03.47.956,Simcolourproject_2stim_asymm_v5,2020.2.10,MacIntel,60,61025ae37ef11b136ea224fe,,,,,,,,,3030,77.16796875,28.9609375,1,0,0,response1disk,,6,4.83984375,-11.9375,1,0,0,rectangle,4.83984375,-11.9375,1,0,0,,,,,,,4.83984375,-11.9375,1,0,0,,0,3,3,20,1,
,,,,,,,,,,,,,FF,,,,,,,,1.236,,,,,,,,,,,,,,,,,,,,,,6102ec963d19b2600a047347,61036beec47011d51cdbae62,2021-07-29_23h03.47.956,Simcolourproject_2stim_asymm_v5,2020.2.10,MacIntel,60,61025ae37ef11b136ea224fe,,,,,,,,,1875,33.54296875,101.8632813,1,0,0,response1disk,,7,8.21875,14.01953125,1,0,0,rectangle,8.21875,14.01953125,1,0,0,,,,,,,8.21875,14.01953125,1,0,0,,0,4,4,46,1,
,,,,,,,,,,,,,FF,,,,,,,,1.5034,,,,,,,,,,,,,,,,,,,,,,6102ec963d19b2600a047347,61036beec47011d51cdbae62,2021-07-29_23h03.47.956,Simcolourproject_2stim_asymm_v5,2020.2.10,MacIntel,60,61025ae37ef11b136ea224fe,,,,,,,,,735,74.578125,-46.0078125,1,0,0,response3disk,,5,9.359375,-9.75,1,0,0,rectangle,9.359375,-9.75,1,0,0,,,,,,,9.359375,-9.75,1,0,0,,0,5,5,58,1,
,,,,,,,,,,,,,FF,,,,,,,,1.069,,,,,,,,,,,,,,,,,,,,,,6102ec963d19b2600a047347,61036beec47011d51cdbae62,2021-07-29_23h03.47.956,Simcolourproject_2stim_asymm_v5,2020.2.10,MacIntel,60,61025ae37ef11b136ea224fe,,,,,,,,,1124,90.1796875,49.06640625,1,0,0,response1disk,,6,6.56640625,10.01171875,1,0,0,rectangle,6.56640625,10.01171875,1,0,0,,,,,,,6.56640625,10.01171875,1,0,0,,0,6,6,113,1,
,,,,,,,,,,,,,FF,,,,,,,,1.6897,,,,,,,,,,,,,,,,,,,,,,6102ec963d19b2600a047347,61036beec47011d51cdbae62,2021-07-29_23h03.47.956,Simcolourproject_2stim_asymm_v5,2020.2.10,MacIntel,60,61025ae37ef11b136ea224fe,,,,,,,,,2734,-76.54296875,-35.3671875,1,0,0,response5disk,,2,-13.22265625,-0.32421875,1,0,0,rectangle,-13.22265625,-0.32421875,1,0,0,,,,,,,-13.22265625,-0.32421875,1,0,0,,0,7,7,76,1,
,,,,,,,,,,,,,FF,,,,,,,,0.8851,,,,,,,,,,,,,,,,,,,,,,6102ec963d19b2600a047347,61036beec47011d51cdbae62,2021-07-29_23h03.47.956,Simcolourproject_2stim_asymm_v5,2020.2.10,MacIntel,60,61025ae37ef11b136ea224fe,,,,,,,,,1367,74.0703125,37.78125,1,0,0,response1disk,,6,20.5390625,4.75,1,0,0,rectangle,20.5390625,4.75,1,0,0,,,,,,,20.5390625,4.75,1,0,0,,0,8,8,118,1,
,,,,,,,,,,,,,FF,,,,,,,,0.938,,,,,,,,,,,,,,,,,,,,,,6102ec963d19b2600a047347,61036beec47011d51cdbae62,2021-07-29_23h03.47.956,Simcolourproject_2stim_asymm_v5,2020.2.10,MacIntel,60,61025ae37ef11b136ea224fe,,,,,,,,,3584,-66.6953125,-34.20703125,1,0,0,response5disk,,2,-8.81640625,-0.64453125,1,0,0,rectangle,-8.81640625,-0.64453125,1,0,0,,,,,,,-8.81640625,-0.64453125,1,0,0,,0,9,9,111,1,
,,,,,,,,,,,,,FF,,,,,,,,1.236,,,,,,,,,,,,,,,,,,,,,,6102ec963d19b2600a047347,61036beec47011d51cdbae62,2021-07-29_23h03.47.956,Simcolourproject_2stim_asymm_v5,2020.2.10,MacIntel,60,61025ae37ef11b136ea224fe,,,,,,,,,995,44.82421875,-66.4140625,1,0,0,response3disk,,4,6.45703125,-7.38671875,1,0,0,rectangle,6.45703125,-7.38671875,1,0,0,,,,,,,6.45703125,-7.38671875,1,0,0,,0,10,10,84,1,
,,,,,,,,,,,,,FF,,,,,,,,1.3375,,,,,,,,,,,,,,,,,,,,,,6102ec963d19b2600a047347,61036beec47011d51cdbae62,2021-07-29_23h03.47.956,Simcolourproject_2stim_asymm_v5,2020.2.10,MacIntel,60,61025ae37ef11b136ea224fe,,,,,,,,,1055,-80.00390625,56.23046875,1,0,0,response7disk,,1,8.30078125,1.625,1,0,0,rectangle,8.30078125,1.625,1,0,0,,,,,,,8.30078125,1.625,1,0,0,,0,11,11,7,1,
,,,,,,,,,,,,,FF,,,,,,,,1.6897,,,,,,,,,,,,,,,,,,,,,,6102ec963d19b2600a047347,61036beec47011d51cdbae62,2021-07-29_23h03.47.956,Simcolourproject_2stim_asymm_v5,2020.2.10,MacIntel,60,61025ae37ef11b136ea224fe,,,,,,,,,3309,84.26953125,36.44140625,1,0,0,response1disk,,6,-11.73828125,-1.6015625,1,0,0,rectangle,-11.73828125,-1.6015625,1,0,0,,,,,,,-11.73828125,-1.6015625,1,0,0,,0,12,12,116,1,
,,,,,,,,,,,,,FF,,,,,,,,1.1703,,,,,,,,,,,,,,,,,,,,,,6102ec963d19b2600a047347,61036beec47011d51cdbae62,2021-07-29_23h03.47.956,Simcolourproject_2stim_asymm_v5,2020.2.10,MacIntel,60,61025ae37ef11b136ea224fe,,,,,,,,,1735,37.02734375,-95.86328125,1,0,0,response3disk,,4,1.140625,5.0625,1,0,0,rectangle,1.140625,5.0625,1,0,0,,,,,,,1.140625,5.0625,1,0,0,,0,13,13,158,1,
,,,,,,,,,,,,,FF,,,,,,,,1.754,,,,,,,,,,,,,,,,,,,,,,6102ec963d19b2600a047347,61036beec47011d51cdbae62,2021-07-29_23h03.47.956,Simcolourproject_2stim_asymm_v5,2020.2.10,MacIntel,60,61025ae37ef11b136ea224fe,,,,,,,,,610,-87.03125,-62.27734375,1,0,0,response5disk,,2,2.8828125,4.5703125,1,0,0,rectangle,-32.046875,83.84375,1,0,0,response7disk_3,TRUE,0,0,"[1,218,175,201,139,15,200,162,232,273,43,71,185,229,162,88,98,271,264,115]",1.8047,0.0078125,-0.125,1,0,0,rectangle,0,14,14,5,1,
,,,,,,,,,,,,,FF,,,,,,,,1.1366,,,,,,,,,,,,,,,,,,,,,,6102ec963d19b2600a047347,61036beec47011d51cdbae62,2021-07-29_23h03.47.956,Simcolourproject_2stim_asymm_v5,2020.2.10,MacIntel,60,61025ae37ef11b136ea224fe,,,,,,,,,3489,-32.14453125,-81.77734375,1,0,0,response5disk,,3,-5.08984375,-3.34765625,1,0,0,rectangle,-5.08984375,-3.34765625,1,0,0,,,,,,,-5.08984375,-3.34765625,1,0,0,,0,15,15,14,1,
,,,,,,,,,,,,,FF,,,,,,,,1.6562,,,,,,,,,,,,,,,,,,,,,,6102ec963d19b2600a047347,61036beec47011d51cdbae62,2021-07-29_23h03.47.956,Simcolourproject_2stim_asymm_v5,2020.2.10,MacIntel,60,61025ae37ef11b136ea224fe,,,,,,,,,760,84.0234375,-33.32421875,1,0,0,response3disk,,5,24.44921875,-8.6171875,1,0,0,rectangle,24.44921875,-8.6171875,1,0,0,,,,,,,24.44921875,-8.6171875,1,0,0,,0,16,16,122,1,
,,,,,,,,,,,,,FF,,,,,,,,1.0364,,,,,,,,,,,,,,,,,,,,,,6102ec963d19b2600a047347,61036beec47011d51cdbae62,2021-07-29_23h03.47.956,Simcolourproject_2stim_asymm_v5,2020.2.10,MacIntel,60,61025ae37ef11b136ea224fe,,,,,,,,,2891,-86.4765625,-45.8046875,1,0,0,response5disk,,2,-13.93359375,-2.28125,1,0,0,rectangle,-13.93359375,-2.28125,1,0,0,,,,,,,-13.93359375,-2.28125,1,0,0,,0,17,17,105,1,
,,,,,,,,,,,,,FF,,,,,,,,1.5237,,,,,,,,,,,,,,,,,,,,,,6102ec963d19b2600a047347,61036beec47011d51cdbae62,2021-07-29_23h03.47.956,Simcolourproject_2stim_asymm_v5,2020.2.10,MacIntel,60,61025ae37ef11b136ea224fe,,,,,,,,,1843,63.125,-92.23828125,1,0,0,response3disk,,4,19.07421875,2.33984375,1,0,0,rectangle,19.07421875,2.33984375,1,0,0,,,,,,,19.07421875,2.33984375,1,0,0,,0,18,18,39,1,
,,,,,,,,,,,,,FF,,,,,,,,0.9532,,,,,,,,,,,,,,,,,,,,,,6102ec963d19b2600a047347,61036beec47011d51cdbae62,2021-07-29_23h03.47.956,Simcolourproject_2stim_asymm_v5,2020.2.10,MacIntel,60,61025ae37ef11b136ea224fe,,,,,,,,,1543,72.09765625,-36.26953125,1,0,0,response3disk,,5,-25.1796875,-5.171875,1,0,0,rectangle,-25.1796875,-5.171875,1,0,0,,,,,,,-25.1796875,-5.171875,1,0,0,,0,19,19,18,1,
,,,,,,,,,,,,,FF,,,,,,,,1.0204,,,,,,,,,,,,,,,,,,,,,,6102ec963d19b2600a047347,61036beec47011d51cdbae62,2021-07-29_23h03.47.956,Simcolourproject_2stim_asymm_v5,2020.2.10,MacIntel,60,61025ae37ef11b136ea224fe,,,,,,,,,2502,88.7734375,-30.59765625,1,0,0,response3disk,,5,-0.34765625,-6.1953125,1,0,0,rectangle,-0.34765625,-6.1953125,1,0,0,,,,,,,-0.34765625,-6.1953125,1,0,0,,0,20,20,106,1,
,,,,,,,,,,,,,FF,,,,,,,,1.3206,,,,,,,,,,,,,,,,,,,,,,6102ec963d19b2600a047347,61036beec47011d51cdbae62,2021-07-29_23h03.47.956,Simcolourproject_2stim_asymm_v5,2020.2.10,MacIntel,60,61025ae37ef11b136ea224fe,,,,,,,,,3779,-86.37890625,27.8984375,1,0,0,response7disk,,1,-10.97265625,1.0859375,1,0,0,rectangle,-10.97265625,1.0859375,1,0,0,,,,,,,-10.97265625,1.0859375,1,0,0,,0,21,21,16,1,
,,,,,,,,,,,,,FF,,,,,,,,1.9076,,,,,,,,,,,,,,,,,,,,,,6102ec963d19b2600a047347,61036beec47011d51cdbae62,2021-07-29_23h03.47.956,Simcolourproject_2stim_asymm_v5,2020.2.10,MacIntel,60,61025ae37ef11b136ea224fe,,,,,,,,,3273,95.5,39.140625,1,0,0,response1disk,,6,4.38671875,-7.91015625,1,0,0,rectangle,4.38671875,-7.91015625,1,0,0,,,,,,,4.38671875,-7.91015625,1,0,0,,0,22,22,136,1,
,,,,,,,,,,,,,FF,,,,,,,,1.3048,,,,,,,,,,,,,,,,,,,,,,6102ec963d19b2600a047347,61036beec47011d51cdbae62,2021-07-29_23h03.47.956,Simcolourproject_2stim_asymm_v5,2020.2.10,MacIntel,60,61025ae37ef11b136ea224fe,,,,,,,,,2756,48.9296875,92.47265625,1,0,0,response1disk,,7,-11.36328125,-12.484375,1,0,0,rectangle,-11.36328125,-12.484375,1,0,0,,,,,,,-11.36328125,-12.484375,1,0,0,,0,23,23,74,1,
,,,,,,,,,,,,,FF,,,,,,,,0.8689,,,,,,,,,,,,,,,,,,,,,,6102ec963d19b2600a047347,61036beec47011d51cdbae62,2021-07-29_23h03.47.956,Simcolourproject_2stim_asymm_v5,2020.2.10,MacIntel,60,61025ae37ef11b136ea224fe,,,,,,,,,3587,-29.5703125,-61.47265625,1,0,0,response5disk,,3,-4.66015625,-3.66015625,1,0,0,rectangle,-4.66015625,-3.66015625,1,0,0,,,,,,,-4.66015625,-3.66015625,1,0,0,,0,24,24,29,1,
,,,,,,,,,,,,,FF,,,,,,,,1.2698,,,,,,,,,,,,,,,,,,,,,,6102ec963d19b2600a047347,61036beec47011d51cdbae62,2021-07-29_23h03.47.956,Simcolourproject_2stim_asymm_v5,2020.2.10,MacIntel,60,61025ae37ef11b136ea224fe,,,,,,,,,1958,-82.8828125,41.9609375,1,0,0,response7disk,,1,-21.34375,3.9453125,1,0,0,rectangle,-21.34375,3.9453125,1,0,0,,,,,,,-21.34375,3.9453125,1,0,0,,0,25,25,85,1,
,,,,,,,,,,,,,FF,,,,,,,,1.0534,,,,,,,,,,,,,,,,,,,,,,6102ec963d19b2600a047347,61036beec47011d51cdbae62,2021-07-29_23h03.47.956,Simcolourproject_2stim_asymm_v5,2020.2.10,MacIntel,60,61025ae37ef11b136ea224fe,,,,,,,,,3270,37.62890625,73.8125,1,0,0,response1disk,,7,1.109375,7.4375,1,0,0,rectangle,1.109375,7.4375,1,0,0,,,,,,,1.109375,7.4375,1,0,0,,0,26,26,13,1,
,,,,,,,,,,,,,FF,,,,,,,,1.6036,,,,,,,,,,,,,,,,,,,,,,6102ec963d19b2600a047347,61036beec47011d51cdbae62,2021-07-29_23h03.47.956,Simcolourproject_2stim_asymm_v5,2020.2.10,MacIntel,60,61025ae37ef11b136ea224fe,,,,,,,,,3902,42.34765625,-74.4609375,1,0,0,response3disk,,4,-3.73828125,-8.66796875,1,0,0,rectangle,-3.73828125,-8.66796875,1,0,0,,,,,,,-3.73828125,-8.66796875,1,0,0,,0,27,27,91,1,
,,,,,,,,,,,,,FF,,,,,,,,1.3368,,,,,,,,,,,,,,,,,,,,,,6102ec963d19b2600a047347,61036beec47011d51cdbae62,2021-07-29_23h03.47.956,Simcolourproject_2stim_asymm_v5,2020.2.10,MacIntel,60,61025ae37ef11b136ea224fe,,,,,,,,,1982,69.4765625,-35.5234375,1,0,0,response3disk,,5,-7.37890625,-1.671875,1,0,0,rectangle,-7.37890625,-1.671875,1,0,0,,,,,,,-7.37890625,-1.671875,1,0,0,,0,28,28,1,1,
,,,,,,,,,,,,,FF,,,,,,,,1.9383,,,,,,,,,,,,,,,,,,,,,,6102ec963d19b2600a047347,61036beec47011d51cdbae62,2021-07-29_23h03.47.956,Simcolourproject_2stim_asymm_v5,2020.2.10,MacIntel,60,61025ae37ef11b136ea224fe,,,,,,,,,2037,15.9765625,-90.94921875,1,0,0,response3disk,,4,16.3125,4.328125,1,0,0,rectangle,16.3125,4.328125,1,0,0,,,,,,,16.3125,4.328125,1,0,0,,0,29,29,110,1,
,,,,,,,,,,,,,FF,,,,,,,,1.3866,,,,,,,,,,,,,,,,,,,,,,6102ec963d19b2600a047347,61036beec47011d51cdbae62,2021-07-29_23h03.47.956,Simcolourproject_2stim_asymm_v5,2020.2.10,MacIntel,60,61025ae37ef11b136ea224fe,,,,,,,,,2527,59.70703125,97.5078125,1,0,0,response1disk,,7,-10.49609375,-17.5703125,1,0,0,rectangle,-10.49609375,-17.5703125,1,0,0,,,,,,,-10.49609375,-17.5703125,1,0,0,,0,30,30,103,1,
,,,,,,,,,,,,,FF,,,,,,,,0.9695,,,,,,,,,,,,,,,,,,,,,,6102ec963d19b2600a047347,61036beec47011d51cdbae62,2021-07-29_23h03.47.956,Simcolourproject_2stim_asymm_v5,2020.2.10,MacIntel,60,61025ae37ef11b136ea224fe,,,,,,,,,4211,43.97265625,105.421875,1,0,0,response1disk,,7,7.13671875,5.96484375,1,0,0,rectangle,7.13671875,5.96484375,1,0,0,,,,,,,7.13671875,5.96484375,1,0,0,,0,31,31,6,1,
,,,,,,,,,,,,,FF,,,,,,,,0.8033,,,,,,,,,,,,,,,,,,,,,,6102ec963d19b2600a047347,61036beec47011d51cdbae62,2021-07-29_23h03.47.956,Simcolourproject_2stim_asymm_v5,2020.2.10,MacIntel,60,61025ae37ef11b136ea224fe,,,,,,,,,356,-37.56640625,-85.08203125,1,0,0,response5disk,,3,-11.609375,-9.5078125,1,0,0,rectangle,-11.609375,-9.5078125,1,0,0,,,,,,,-11.609375,-9.5078125,1,0,0,,0,32,32,133,1,
,,,,,,,,,,,,,FF,,,,,,,,0.8868,,,,,,,,,,,,,,,,,,,,,,6102ec963d19b2600a047347,61036beec47011d51cdbae62,2021-07-29_23h03.47.956,Simcolourproject_2stim_asymm_v5,2020.2.10,MacIntel,60,61025ae37ef11b136ea224fe,,,,,,,,,1549,65.671875,-36.3671875,1,0,0,response3disk,,5,10.52734375,-7.0859375,1,0,0,rectangle,10.52734375,-7.0859375,1,0,0,,,,,,,10.52734375,-7.0859375,1,0,0,,0,33,33,138,1,
,,,,,,,,,,,,,FF,,,,,,,,1.1368,,,,,,,,,,,,,,,,,,,,,,6102ec963d19b2600a047347,61036beec47011d51cdbae62,2021-07-29_23h03.47.956,Simcolourproject_2stim_asymm_v5,2020.2.10,MacIntel,60,61025ae37ef11b136ea224fe,,,,,,,,,962,75.38671875,43.01953125,1,0,0,response1disk,,6,6.921875,-5.62109375,1,0,0,rectangle,6.921875,-5.62109375,1,0,0,,,,,,,6.921875,-5.62109375,1,0,0,,0,34,34,50,1,
,,,,,,,,,,,,,FF,,,,,,,,0.9537,,,,,,,,,,,,,,,,,,,,,,6102ec963d19b2600a047347,61036beec47011d51cdbae62,2021-07-29_23h03.47.956,Simcolourproject_2stim_asymm_v5,2020.2.10,MacIntel,60,61025ae37ef11b136ea224fe,,,,,,,,,3189,-74.953125,-34.5,1,0,0,response5disk,,2,-24.06640625,-1.26171875,1,0,0,rectangle,-24.06640625,-1.26171875,1,0,0,,,,,,,-24.06640625,-1.26171875,1,0,0,,0,35,35,128,1,
,,,,,,,,,,,,,FF,,,,,,,,0.7868,,,,,,,,,,,,,,,,,,,,,,6102ec963d19b2600a047347,61036beec47011d51cdbae62,2021-07-29_23h03.47.956,Simcolourproject_2stim_asymm_v5,2020.2.10,MacIntel,60,61025ae37ef11b136ea224fe,,,,,,,,,1130,58.58203125,111.3320313,1,0,0,response1disk,,7,19.80078125,6.0234375,1,0,0,rectangle,19.80078125,6.0234375,1,0,0,,,,,,,19.80078125,6.0234375,1,0,0,,0,36,36,147,1,
,,,,,,,,,,,,,FF,,,,,,,,0.7198,,,,,,,,,,,,,,,,,,,,,,6102ec963d19b2600a047347,61036beec47011d51cdbae62,2021-07-29_23h03.47.956,Simcolourproject_2stim_asymm_v5,2020.2.10,MacIntel,60,61025ae37ef11b136ea224fe,,,,,,,,,2123,33.37890625,75.73046875,1,0,0,response1disk,,7,19.83984375,17.265625,1,0,0,rectangle,19.83984375,17.265625,1,0,0,,,,,,,19.83984375,17.265625,1,0,0,,0,37,37,114,1,
,,,,,,,,,,,,,FF,,,,,,,,0.554,,,,,,,,,,,,,,,,,,,,,,6102ec963d19b2600a047347,61036beec47011d51cdbae62,2021-07-29_23h03.47.956,Simcolourproject_2stim_asymm_v5,2020.2.10,MacIntel,60,61025ae37ef11b136ea224fe,,,,,,,,,2272,33.85546875,68.05078125,1,0,0,response1disk,,7,7.04296875,-7.50390625,1,0,0,rectangle,7.04296875,-7.50390625,1,0,0,,,,,,,7.04296875,-7.50390625,1,0,0,,0,38,38,154,1,
,,,,,,,,,,,,,FF,,,,,,,,0.6181,,,,,,,,,,,,,,,,,,,,,,6102ec963d19b2600a047347,61036beec47011d51cdbae62,2021-07-29_23h03.47.956,Simcolourproject_2stim_asymm_v5,2020.2.10,MacIntel,60,61025ae37ef11b136ea224fe,,,,,,,,,2130,43.79296875,89.4765625,1,0,0,response1disk,,7,6.7421875,2.125,1,0,0,rectangle,6.7421875,2.125,1,0,0,,,,,,,6.7421875,2.125,1,0,0,,0,39,39,25,1,
,,,,,,,,,,,,,FF,,,,,,,,1.1371,,,,,,,,,,,,,,,,,,,,,,6102ec963d19b2600a047347,61036beec47011d51cdbae62,2021-07-29_23h03.47.956,Simcolourproject_2stim_asymm_v5,2020.2.10,MacIntel,60,61025ae37ef11b136ea224fe,,,,,,,,,132,97.67578125,42.87890625,1,0,0,response1disk,,6,-11.26953125,-1.5546875,1,0,0,rectangle,-11.26953125,-1.5546875,1,0,0,,,,,,,-11.26953125,-1.5546875,1,0,0,,0,40,40,90,1,
,,,,,,,,,,,,,FF,,,,,,,,1.2204,,,,,,,,,,,,,,,,,,,,,,6102ec963d19b2600a047347,61036beec47011d51cdbae62,2021-07-29_23h03.47.956,Simcolourproject_2stim_asymm_v5,2020.2.10,MacIntel,60,61025ae37ef11b136ea224fe,,,,,,,,,3504,24.84765625,-69.3984375,1,0,0,response3disk,,4,-1.6953125,-1.765625,1,0,0,rectangle,-1.6953125,-1.765625,1,0,0,,,,,,,-1.6953125,-1.765625,1,0,0,,0,41,41,144,1,
,,,,,,,,,,,,,FF,,,,,,,,0.8539,,,,,,,,,,,,,,,,,,,,,,6102ec963d19b2600a047347,61036beec47011d51cdbae62,2021-07-29_23h03.47.956,Simcolourproject_2stim_asymm_v5,2020.2.10,MacIntel,60,61025ae37ef11b136ea224fe,,,,,,,,,1962,35.1640625,-57.4453125,1,0,0,response3disk,,4,4.19140625,9.18359375,1,0,0,rectangle,-42.91015625,78.23828125,1,0,0,response7disk_3,TRUE,0,0,"[1,218,175,201,139,15,200,162,232,273,43,71,185,229,162,88,98,271,264,115]",1.3868,-2.0390625,-9.6875,1,0,0,rectangle,0,42,42,148,1,
,,,,,,,,,,,,,FF,,,,,,,,1.3543,,,,,,,,,,,,,,,,,,,,,,6102ec963d19b2600a047347,61036beec47011d51cdbae62,2021-07-29_23h03.47.956,Simcolourproject_2stim_asymm_v5,2020.2.10,MacIntel,60,61025ae37ef11b136ea224fe,,,,,,,,,143,77.3671875,44.8828125,1,0,0,response1disk,,6,4.6640625,-5.328125,1,0,0,rectangle,4.6640625,-5.328125,1,0,0,,,,,,,4.6640625,-5.328125,1,0,0,,0,43,43,108,1,
,,,,,,,,,,,,,FF,,,,,,,,0.9212,,,,,,,,,,,,,,,,,,,,,,6102ec963d19b2600a047347,61036beec47011d51cdbae62,2021-07-29_23h03.47.956,Simcolourproject_2stim_asymm_v5,2020.2.10,MacIntel,60,61025ae37ef11b136ea224fe,,,,,,,,,2290,66.671875,34.88671875,1,0,0,response1disk,,6,13.37890625,-5.0078125,1,0,0,rectangle,13.37890625,-5.0078125,1,0,0,,,,,,,13.37890625,-5.0078125,1,0,0,,0,44,44,4,1,
,,,,,,,,,,,,,FF,,,,,,,,0.6184,,,,,,,,,,,,,,,,,,,,,,6102ec963d19b2600a047347,61036beec47011d51cdbae62,2021-07-29_23h03.47.956,Simcolourproject_2stim_asymm_v5,2020.2.10,MacIntel,60,61025ae37ef11b136ea224fe,,,,,,,,,2324,80.921875,43.69140625,1,0,0,response1disk,,6,8.171875,6.6328125,1,0,0,rectangle,8.171875,6.6328125,1,0,0,,,,,,,8.171875,6.6328125,1,0,0,,0,45,45,71,1,
,,,,,,,,,,,,,FF,,,,,,,,0.8703,,,,,,,,,,,,,,,,,,,,,,6102ec963d19b2600a047347,61036beec47011d51cdbae62,2021-07-29_23h03.47.956,Simcolourproject_2stim_asymm_v5,2020.2.10,MacIntel,60,61025ae37ef11b136ea224fe,,,,,,,,,1596,-41.6171875,88.62890625,1,0,0,response7disk,,0,1.61328125,0.9765625,1,0,0,rectangle,1.61328125,0.9765625,1,0,0,,,,,,,1.61328125,0.9765625,1,0,0,,0,46,46,126,1,
,,,,,,,,,,,,,FF,,,,,,,,2.5067,,,,,,,,,,,,,,,,,,,,,,6102ec963d19b2600a047347,61036beec47011d51cdbae62,2021-07-29_23h03.47.956,Simcolourproject_2stim_asymm_v5,2020.2.10,MacIntel,60,61025ae37ef11b136ea224fe,,,,,,,,,481,81.2578125,-23.96875,1,0,0,response3disk,,5,20.703125,3.21875,1,0,0,rectangle,20.703125,3.21875,1,0,0,,,,,,,20.703125,3.21875,1,0,0,,0,47,47,56,1,
,,,,,,,,,,,,,FF,,,,,,,,1.1029,,,,,,,,,,,,,,,,,,,,,,6102ec963d19b2600a047347,61036beec47011d51cdbae62,2021-07-29_23h03.47.956,Simcolourproject_2stim_asymm_v5,2020.2.10,MacIntel,60,61025ae37ef11b136ea224fe,,,,,,,,,3580,72.89453125,46.5234375,1,0,0,response1disk,,6,-3.4453125,3.88671875,1,0,0,rectangle,-3.4453125,3.88671875,1,0,0,,,,,,,-3.4453125,3.88671875,1,0,0,,0,48,48,11,1,
,,,,,,,,,,,,,FF,,,,,,,,1.053,,,,,,,,,,,,,,,,,,,,,,6102ec963d19b2600a047347,61036beec47011d51cdbae62,2021-07-29_23h03.47.956,Simcolourproject_2stim_asymm_v5,2020.2.10,MacIntel,60,61025ae37ef11b136ea224fe,,,,,,,,,3107,45.27734375,-83.54296875,1,0,0,response3disk,,4,-4.48828125,-5.734375,1,0,0,rectangle,-4.48828125,-5.734375,1,0,0,,,,,,,-4.48828125,-5.734375,1,0,0,,0,49,49,49,1,
,,,,,,,,,,,,,FF,,,,,,,,1.5399,,,,,,,,,,,,,,,,,,,,,,6102ec963d19b2600a047347,61036beec47011d51cdbae62,2021-07-29_23h03.47.956,Simcolourproject_2stim_asymm_v5,2020.2.10,MacIntel,60,61025ae37ef11b136ea224fe,,,,,,,,,544,75.4921875,-35.3828125,1,0,0,response3disk,,5,5.01171875,-0.79296875,1,0,0,rectangle,5.01171875,-0.79296875,1,0,0,,,,,,,5.01171875,-0.79296875,1,0,0,,0,50,50,48,1,
,,,,,,,,,,,,,FF,,,,,,,,0.9033,,,,,,,,,,,,,,,,,,,,,,6102ec963d19b2600a047347,61036beec47011d51cdbae62,2021-07-29_23h03.47.956,Simcolourproject_2stim_asymm_v5,2020.2.10,MacIntel,60,61025ae37ef11b136ea224fe,,,,,,,,,3514,-31.70703125,-71.0546875,1,0,0,response5disk,,3,-15.91015625,-5.67578125,1,0,0,rectangle,-15.91015625,-5.67578125,1,0,0,,,,,,,-15.91015625,-5.67578125,1,0,0,,0,51,51,52,1,
,,,,,,,,,,,,,FF,,,,,,,,0.685,,,,,,,,,,,,,,,,,,,,,,6102ec963d19b2600a047347,61036beec47011d51cdbae62,2021-07-29_23h03.47.956,Simcolourproject_2stim_asymm_v5,2020.2.10,MacIntel,60,61025ae37ef11b136ea224fe,,,,,,,,,2991,40.7421875,76.66796875,1,0,0,response1disk,,7,21.515625,4.43359375,1,0,0,rectangle,21.515625,4.43359375,1,0,0,,,,,,,21.515625,4.43359375,1,0,0,,0,52,52,97,1,
,,,,,,,,,,,,,FF,,,,,,,,0.534,,,,,,,,,,,,,,,,,,,,,,6102ec963d19b2600a047347,61036beec47011d51cdbae62,2021-07-29_23h03.47.956,Simcolourproject_2stim_asymm_v5,2020.2.10,MacIntel,60,61025ae37ef11b136ea224fe,,,,,,,,,626,24.69921875,66.796875,1,0,0,response1disk,,7,12.78515625,9.515625,1,0,0,rectangle,12.78515625,9.515625,1,0,0,,,,,,,12.78515625,9.515625,1,0,0,,0,53,53,146,1,
,,,,,,,,,,,,,FF,,,,,,,,0.953,,,,,,,,,,,,,,,,,,,,,,6102ec963d19b2600a047347,61036beec47011d51cdbae62,2021-07-29_23h03.47.956,Simcolourproject_2stim_asymm_v5,2020.2.10,MacIntel,60,61025ae37ef11b136ea224fe,,,,,,,,,3340,79.23828125,-43.01171875,1,0,0,response3disk,,5,3.75,-11.44140625,1,0,0,rectangle,3.75,-11.44140625,1,0,0,,,,,,,3.75,-11.44140625,1,0,0,,0,54,54,102,1,
,,,,,,,,,,,,,FF,,,,,,,,0.9349,,,,,,,,,,,,,,,,,,,,,,6102ec963d19b2600a047347,61036beec47011d51cdbae62,2021-07-29_23h03.47.956,Simcolourproject_2stim_asymm_v5,2020.2.10,MacIntel,60,61025ae37ef11b136ea224fe,,,,,,,,,403,91.81640625,39.0625,1,0,0,response1disk,,6,12.55859375,3.390625,1,0,0,rectangle,12.55859375,3.390625,1,0,0,,,,,,,12.55859375,3.390625,1,0,0,,0,55,55,132,1,
,,,,,,,,,,,,,FF,,,,,,,,0.8197,,,,,,,,,,,,,,,,,,,,,,6102ec963d19b2600a047347,61036beec47011d51cdbae62,2021-07-29_23h03.47.956,Simcolourproject_2stim_asymm_v5,2020.2.10,MacIntel,60,61025ae37ef11b136ea224fe,,,,,,,,,2510,67.97265625,40.6171875,1,0,0,response1disk,,6,5.265625,3.02734375,1,0,0,rectangle,5.265625,3.02734375,1,0,0,,,,,,,5.265625,3.02734375,1,0,0,,0,56,56,65,1,
,,,,,,,,,,,,,FF,,,,,,,,1.1051,,,,,,,,,,,,,,,,,,,,,,6102ec963d19b2600a047347,61036beec47011d51cdbae62,2021-07-29_23h03.47.956,Simcolourproject_2stim_asymm_v5,2020.2.10,MacIntel,60,61025ae37ef11b136ea224fe,,,,,,,,,1816,48.1171875,-78.1640625,1,0,0,response3disk,,4,16.7265625,0.8125,1,0,0,rectangle,16.7265625,0.8125,1,0,0,,,,,,,16.7265625,0.8125,1,0,0,,0,57,57,24,1,
,,,,,,,,,,,,,FF,,,,,,,,0.7183,,,,,,,,,,,,,,,,,,,,,,6102ec963d19b2600a047347,61036beec47011d51cdbae62,2021-07-29_23h03.47.956,Simcolourproject_2stim_asymm_v5,2020.2.10,MacIntel,60,61025ae37ef11b136ea224fe,,,,,,,,,3179,32.0234375,55.9921875,1,0,0,response1disk,,7,10.9921875,-12.703125,1,0,0,rectangle,10.9921875,-12.703125,1,0,0,,,,,,,10.9921875,-12.703125,1,0,0,,0,58,58,94,1,
,,,,,,,,,,,,,FF,,,,,,,,1.0875,,,,,,,,,,,,,,,,,,,,,,6102ec963d19b2600a047347,61036beec47011d51cdbae62,2021-07-29_23h03.47.956,Simcolourproject_2stim_asymm_v5,2020.2.10,MacIntel,60,61025ae37ef11b136ea224fe,,,,,,,,,3243,-80.64453125,26.078125,1,0,0,response7disk,,1,-30.43359375,3.5078125,1,0,0,rectangle,-30.43359375,3.5078125,1,0,0,,,,,,,-30.43359375,3.5078125,1,0,0,,0,59,59,51,1,
,,,,,,,,,,,,,FF,,,,,,,,1.1693,,,,,,,,,,,,,,,,,,,,,,6102ec963d19b2600a047347,61036beec47011d51cdbae62,2021-07-29_23h03.47.956,Simcolourproject_2stim_asymm_v5,2020.2.10,MacIntel,60,61025ae37ef11b136ea224fe,,,,,,,,,464,78.19140625,34.51953125,1,0,0,response1disk,,6,9.8515625,-5.56640625,1,0,0,rectangle,9.8515625,-5.56640625,1,0,0,,,,,,,9.8515625,-5.56640625,1,0,0,,0,60,60,23,1,
,,,,,,,,,,,,,FF,,,,,,,,0.9013,,,,,,,,,,,,,,,,,,,,,,6102ec963d19b2600a047347,61036beec47011d51cdbae62,2021-07-29_23h03.47.956,Simcolourproject_2stim_asymm_v5,2020.2.10,MacIntel,60,61025ae37ef11b136ea224fe,,,,,,,,,2871,84.23046875,29.3671875,1,0,0,response1disk,,6,3.9453125,4.70703125,1,0,0,rectangle,3.9453125,4.70703125,1,0,0,,,,,,,3.9453125,4.70703125,1,0,0,,0,61,61,28,1,
,,,,,,,,,,,,,FF,,,,,,,,0.6348,,,,,,,,,,,,,,,,,,,,,,6102ec963d19b2600a047347,61036beec47011d51cdbae62,2021-07-29_23h03.47.956,Simcolourproject_2stim_asymm_v5,2020.2.10,MacIntel,60,61025ae37ef11b136ea224fe,,,,,,,,,2453,86.3671875,56.45703125,1,0,0,response1disk,,6,-7.859375,-4.04296875,1,0,0,rectangle,-7.859375,-4.04296875,1,0,0,,,,,,,-7.859375,-4.04296875,1,0,0,,0,62,62,64,1,
,,,,,,,,,,,,,FF,,,,,,,,0.5664,,,,,,,,,,,,,,,,,,,,,,6102ec963d19b2600a047347,61036beec47011d51cdbae62,2021-07-29_23h03.47.956,Simcolourproject_2stim_asymm_v5,2020.2.10,MacIntel,60,61025ae37ef11b136ea224fe,,,,,,,,,2916,30.859375,78.75,1,0,0,response1disk,,7,-9.87890625,-5.01171875,1,0,0,rectangle,-9.87890625,-5.01171875,1,0,0,,,,,,,-9.87890625,-5.01171875,1,0,0,,0,63,63,53,1,
,,,,,,,,,,,,,FF,,,,,,,,1.1358,,,,,,,,,,,,,,,,,,,,,,6102ec963d19b2600a047347,61036beec47011d51cdbae62,2021-07-29_23h03.47.956,Simcolourproject_2stim_asymm_v5,2020.2.10,MacIntel,60,61025ae37ef11b136ea224fe,,,,,,,,,294,79.4453125,-44.3828125,1,0,0,response3disk,,5,14.51953125,-6.35546875,1,0,0,rectangle,14.51953125,-6.35546875,1,0,0,,,,,,,14.51953125,-6.35546875,1,0,0,,0,64,64,107,1,
,,,,,,,,,,,,,FF,,,,,,,,0.9868,,,,,,,,,,,,,,,,,,,,,,6102ec963d19b2600a047347,61036beec47011d51cdbae62,2021-07-29_23h03.47.956,Simcolourproject_2stim_asymm_v5,2020.2.10,MacIntel,60,61025ae37ef11b136ea224fe,,,,,,,,,1274,66.26171875,-38.015625,1,0,0,response3disk,,5,7.09765625,-6.97265625,1,0,0,rectangle,7.09765625,-6.97265625,1,0,0,,,,,,,7.09765625,-6.97265625,1,0,0,,0,65,65,0,1,
,,,,,,,,,,,,,FF,,,,,,,,0.6524,,,,,,,,,,,,,,,,,,,,,,6102ec963d19b2600a047347,61036beec47011d51cdbae62,2021-07-29_23h03.47.956,Simcolourproject_2stim_asymm_v5,2020.2.10,MacIntel,60,61025ae37ef11b136ea224fe,,,,,,,,,2023,33.40234375,82.85546875,1,0,0,response1disk,,7,7.3671875,6.2734375,1,0,0,rectangle,7.3671875,6.2734375,1,0,0,,,,,,,7.3671875,6.2734375,1,0,0,,0,66,66,55,1,
,,,,,,,,,,,,,FF,,,,,,,,0.7043,,,,,,,,,,,,,,,,,,,,,,6102ec963d19b2600a047347,61036beec47011d51cdbae62,2021-07-29_23h03.47.956,Simcolourproject_2stim_asymm_v5,2020.2.10,MacIntel,60,61025ae37ef11b136ea224fe,,,,,,,,,540,39.2265625,83.53125,1,0,0,response1disk,,7,-3.61328125,-0.65234375,1,0,0,rectangle,-3.61328125,-0.65234375,1,0,0,,,,,,,-3.61328125,-0.65234375,1,0,0,,0,67,67,159,1,
,,,,,,,,,,,,,FF,,,,,,,,1.0695,,,,,,,,,,,,,,,,,,,,,,6102ec963d19b2600a047347,61036beec47011d51cdbae62,2021-07-29_23h03.47.956,Simcolourproject_2stim_asymm_v5,2020.2.10,MacIntel,60,61025ae37ef11b136ea224fe,,,,,,,,,4115,40.88671875,-98.69921875,1,0,0,response3disk,,4,-3.80078125,0.55078125,1,0,0,rectangle,-3.80078125,0.55078125,1,0,0,,,,,,,-3.80078125,0.55078125,1,0,0,,0,68,68,131,1,
,,,,,,,,,,,,,FF,,,,,,,,1.2052,,,,,,,,,,,,,,,,,,,,,,6102ec963d19b2600a047347,61036beec47011d51cdbae62,2021-07-29_23h03.47.956,Simcolourproject_2stim_asymm_v5,2020.2.10,MacIntel,60,61025ae37ef11b136ea224fe,,,,,,,,,3862,67.84765625,-32.28515625,1,0,0,response3disk,,5,0.921875,-11.53515625,1,0,0,rectangle,0.921875,-11.53515625,1,0,0,,,,,,,0.921875,-11.53515625,1,0,0,,0,69,69,156,1,
,,,,,,,,,,,,,FF,,,,,,,,1.1197,,,,,,,,,,,,,,,,,,,,,,6102ec963d19b2600a047347,61036beec47011d51cdbae62,2021-07-29_23h03.47.956,Simcolourproject_2stim_asymm_v5,2020.2.10,MacIntel,60,61025ae37ef11b136ea224fe,,,,,,,,,135,71.859375,-34.328125,1,0,0,response3disk,,5,26.828125,8.44921875,1,0,0,rectangle,31.83203125,98.9921875,1,0,0,response1disk_3,TRUE,7,7,"[1,218,175,201,139,15,200,162,232,273,43,71,185,229,162,88,98,271,264,115]",1.4052,1.17578125,-8.70703125,1,0,0,rectangle,0,70,70,57,1,
,,,,,,,,,,,,,FF,,,,,,,,0.8851,,,,,,,,,,,,,,,,,,,,,,6102ec963d19b2600a047347,61036beec47011d51cdbae62,2021-07-29_23h03.47.956,Simcolourproject_2stim_asymm_v5,2020.2.10,MacIntel,60,61025ae37ef11b136ea224fe,,,,,,,,,2677,86.078125,41.0234375,1,0,0,response1disk,,6,18.5,-2.12109375,1,0,0,rectangle,18.5,-2.12109375,1,0,0,,,,,,,18.5,-2.12109375,1,0,0,,0,71,71,44,1,
,,,,,,,,,,,,,FF,,,,,,,,2.0377,,,,,,,,,,,,,,,,,,,,,,6102ec963d19b2600a047347,61036beec47011d51cdbae62,2021-07-29_23h03.47.956,Simcolourproject_2stim_asymm_v5,2020.2.10,MacIntel,60,61025ae37ef11b136ea224fe,,,,,,,,,1548,67.48828125,29.94140625,1,0,0,response1disk,,6,20.265625,-5.765625,1,0,0,rectangle,20.265625,-5.765625,1,0,0,,,,,,,20.265625,-5.765625,1,0,0,,0,72,72,32,1,
,,,,,,,,,,,,,FF,,,,,,,,0.987,,,,,,,,,,,,,,,,,,,,,,6102ec963d19b2600a047347,61036beec47011d51cdbae62,2021-07-29_23h03.47.956,Simcolourproject_2stim_asymm_v5,2020.2.10,MacIntel,60,61025ae37ef11b136ea224fe,,,,,,,,,1969,24.3828125,-55.0859375,1,0,0,response3disk,,4,0.31640625,3.3984375,1,0,0,rectangle,0.31640625,3.3984375,1,0,0,,,,,,,0.31640625,3.3984375,1,0,0,,0,73,73,61,1,
,,,,,,,,,,,,,FF,,,,,,,,0.9177,,,,,,,,,,,,,,,,,,,,,,6102ec963d19b2600a047347,61036beec47011d51cdbae62,2021-07-29_23h03.47.956,Simcolourproject_2stim_asymm_v5,2020.2.10,MacIntel,60,61025ae37ef11b136ea224fe,,,,,,,,,3975,68.7578125,30.140625,1,0,0,response1disk,,6,-22.73046875,-17.8828125,1,0,0,rectangle,-22.73046875,-17.8828125,1,0,0,,,,,,,-22.73046875,-17.8828125,1,0,0,,0,74,74,104,1,
,,,,,,,,,,,,,FF,,,,,,,,1.3216,,,,,,,,,,,,,,,,,,,,,,6102ec963d19b2600a047347,61036beec47011d51cdbae62,2021-07-29_23h03.47.956,Simcolourproject_2stim_asymm_v5,2020.2.10,MacIntel,60,61025ae37ef11b136ea224fe,,,,,,,,,2850,60.76171875,-45.03125,1,0,0,response3disk,,5,-1.4296875,-2.73046875,1,0,0,rectangle,-1.4296875,-2.73046875,1,0,0,,,,,,,-1.4296875,-2.73046875,1,0,0,,0,75,75,73,1,
,,,,,,,,,,,,,FF,,,,,,,,0.9531,,,,,,,,,,,,,,,,,,,,,,6102ec963d19b2600a047347,61036beec47011d51cdbae62,2021-07-29_23h03.47.956,Simcolourproject_2stim_asymm_v5,2020.2.10,MacIntel,60,61025ae37ef11b136ea224fe,,,,,,,,,2283,38.36328125,-59.578125,1,0,0,response3disk,,4,0,2.609375,1,0,0,rectangle,0,2.609375,1,0,0,,,,,,,0,2.609375,1,0,0,,0,76,76,2,1,
,,,,,,,,,,,,,FF,,,,,,,,1.0716,,,,,,,,,,,,,,,,,,,,,,6102ec963d19b2600a047347,61036beec47011d51cdbae62,2021-07-29_23h03.47.956,Simcolourproject_2stim_asymm_v5,2020.2.10,MacIntel,60,61025ae37ef11b136ea224fe,,,,,,,,,3821,39.3671875,-54.5703125,1,0,0,response3disk,,4,2.71484375,1.91796875,1,0,0,rectangle,2.71484375,1.91796875,1,0,0,,,,,,,2.71484375,1.91796875,1,0,0,,0,77,77,139,1,
,,,,,,,,,,,,,FF,,,,,,,,0.8135,,,,,,,,,,,,,,,,,,,,,,6102ec963d19b2600a047347,61036beec47011d51cdbae62,2021-07-29_23h03.47.956,Simcolourproject_2stim_asymm_v5,2020.2.10,MacIntel,60,61025ae37ef11b136ea224fe,,,,,,,,,217,29.91796875,59.44921875,1,0,0,response1disk,,7,14.72265625,17.6328125,1,0,0,rectangle,14.72265625,17.6328125,1,0,0,,,,,,,14.72265625,17.6328125,1,0,0,,0,78,78,96,1,
,,,,,,,,,,,,,FF,,,,,,,,0.5007,,,,,,,,,,,,,,,,,,,,,,6102ec963d19b2600a047347,61036beec47011d51cdbae62,2021-07-29_23h03.47.956,Simcolourproject_2stim_asymm_v5,2020.2.10,MacIntel,60,61025ae37ef11b136ea224fe,,,,,,,,,149,39.83203125,78.5546875,1,0,0,response1disk,,7,7.28515625,-1.5234375,1,0,0,rectangle,7.28515625,-1.5234375,1,0,0,,,,,,,7.28515625,-1.5234375,1,0,0,,0,79,79,87,1,
,,,,,,,,,,,,,FF,,,,,,,,0.4507,,,,,,,,,,,,,,,,,,,,,,6102ec963d19b2600a047347,61036beec47011d51cdbae62,2021-07-29_23h03.47.956,Simcolourproject_2stim_asymm_v5,2020.2.10,MacIntel,60,61025ae37ef11b136ea224fe,,,,,,,,,4110,40.0546875,67.85546875,1,0,0,response1disk,,7,-7.390625,-14.25,1,0,0,rectangle,-7.390625,-14.25,1,0,0,,,,,,,-7.390625,-14.25,1,0,0,,0,80,80,78,1,
,,,,,,,,,,,,,FF,,,,,,,,0.617,,,,,,,,,,,,,,,,,,,,,,6102ec963d19b2600a047347,61036beec47011d51cdbae62,2021-07-29_23h03.47.956,Simcolourproject_2stim_asymm_v5,2020.2.10,MacIntel,60,61025ae37ef11b136ea224fe,,,,,,,,,3412,25.38671875,58.55078125,1,0,0,response1disk,,7,3.36328125,-11.4765625,1,0,0,rectangle,3.36328125,-11.4765625,1,0,0,,,,,,,3.36328125,-11.4765625,1,0,0,,0,81,81,10,1,
,,,,,,,,,,,,,FF,,,,,,,,0.5505,,,,,,,,,,,,,,,,,,,,,,6102ec963d19b2600a047347,61036beec47011d51cdbae62,2021-07-29_23h03.47.956,Simcolourproject_2stim_asymm_v5,2020.2.10,MacIntel,60,61025ae37ef11b136ea224fe,,,,,,,,,1552,41.44921875,67.0390625,1,0,0,response1disk,,7,0.671875,-9.3984375,1,0,0,rectangle,0.671875,-9.3984375,1,0,0,,,,,,,0.671875,-9.3984375,1,0,0,,0,82,82,21,1,
,,,,,,,,,,,,,FF,,,,,,,,0.6845,,,,,,,,,,,,,,,,,,,,,,6102ec963d19b2600a047347,61036beec47011d51cdbae62,2021-07-29_23h03.47.956,Simcolourproject_2stim_asymm_v5,2020.2.10,MacIntel,60,61025ae37ef11b136ea224fe,,,,,,,,,2148,74.515625,41.390625,1,0,0,response1disk,,6,15.765625,11.6171875,1,0,0,rectangle,15.765625,11.6171875,1,0,0,,,,,,,15.765625,11.6171875,1,0,0,,0,83,83,31,1,
,,,,,,,,,,,,,FF,,,,,,,,0.9363,,,,,,,,,,,,,,,,,,,,,,6102ec963d19b2600a047347,61036beec47011d51cdbae62,2021-07-29_23h03.47.956,Simcolourproject_2stim_asymm_v5,2020.2.10,MacIntel,60,61025ae37ef11b136ea224fe,,,,,,,,,4240,79.87890625,37.6796875,1,0,0,response1disk,,6,11.453125,-5.59765625,1,0,0,rectangle,11.453125,-5.59765625,1,0,0,,,,,,,11.453125,-5.59765625,1,0,0,,0,84,84,33,1,
,,,,,,,,,,,,,FF,,,,,,,,0.5695,,,,,,,,,,,,,,,,,,,,,,6102ec963d19b2600a047347,61036beec47011d51cdbae62,2021-07-29_23h03.47.956,Simcolourproject_2stim_asymm_v5,2020.2.10,MacIntel,60,61025ae37ef11b136ea224fe,,,,,,,,,509,65.5625,36.37890625,1,0,0,response1disk,,6,-2.91015625,-11.19140625,1,0,0,rectangle,-2.91015625,-11.19140625,1,0,0,,,,,,,-2.91015625,-11.19140625,1,0,0,,0,85,85,89,1,
,,,,,,,,,,,,,FF,,,,,,,,0.4533,,,,,,,,,,,,,,,,,,,,,,6102ec963d19b2600a047347,61036beec47011d51cdbae62,2021-07-29_23h03.47.956,Simcolourproject_2stim_asymm_v5,2020.2.10,MacIntel,60,61025ae37ef11b136ea224fe,,,,,,,,,1406,59.859375,29.30078125,1,0,0,response1disk,,6,-8.66796875,-4.13671875,1,0,0,rectangle,-8.66796875,-4.13671875,1,0,0,,,,,,,-8.66796875,-4.13671875,1,0,0,,0,86,86,59,1,
,,,,,,,,,,,,,FF,,,,,,,,1.0361,,,,,,,,,,,,,,,,,,,,,,6102ec963d19b2600a047347,61036beec47011d51cdbae62,2021-07-29_23h03.47.956,Simcolourproject_2stim_asymm_v5,2020.2.10,MacIntel,60,61025ae37ef11b136ea224fe,,,,,,,,,1663,56.34765625,-24.20703125,1,0,0,response3disk,,5,-7.15625,9.33203125,1,0,0,rectangle,25.5625,-98.82421875,1,0,0,response3disk_3,TRUE,4,4,"[1,218,175,201,139,15,200,162,232,273,43,71,185,229,162,88,98,271,264,115]",1.8234,-7.4296875,1.046875,1,0,0,rectangle,0,87,87,81,1,
,,,,,,,,,,,,,FF,,,,,,,,1.5548,,,,,,,,,,,,,,,,,,,,,,6102ec963d19b2600a047347,61036beec47011d51cdbae62,2021-07-29_23h03.47.956,Simcolourproject_2stim_asymm_v5,2020.2.10,MacIntel,60,61025ae37ef11b136ea224fe,,,,,,,,,696,72.8125,29.43359375,1,0,0,response1disk,,6,-5.1640625,-6.1796875,1,0,0,rectangle,-5.1640625,-6.1796875,1,0,0,,,,,,,-5.1640625,-6.1796875,1,0,0,,0,88,88,36,1,
,,,,,,,,,,,,,FF,,,,,,,,0.8509,,,,,,,,,,,,,,,,,,,,,,6102ec963d19b2600a047347,61036beec47011d51cdbae62,2021-07-29_23h03.47.956,Simcolourproject_2stim_asymm_v5,2020.2.10,MacIntel,60,61025ae37ef11b136ea224fe,,,,,,,,,471,79.140625,-30.15234375,1,0,0,response3disk,,5,-8.48046875,-1.453125,1,0,0,rectangle,-8.48046875,-1.453125,1,0,0,,,,,,,-8.48046875,-1.453125,1,0,0,,0,89,89,150,1,
,,,,,,,,,,,,,FF,,,,,,,,0.834,,,,,,,,,,,,,,,,,,,,,,6102ec963d19b2600a047347,61036beec47011d51cdbae62,2021-07-29_23h03.47.956,Simcolourproject_2stim_asymm_v5,2020.2.10,MacIntel,60,61025ae37ef11b136ea224fe,,,,,,,,,1636,44.78515625,80.3125,1,0,0,response1disk,,7,15.17578125,7.61328125,1,0,0,rectangle,15.17578125,7.61328125,1,0,0,,,,,,,15.17578125,7.61328125,1,0,0,,0,90,90,79,1,
,,,,,,,,,,,,,FF,,,,,,,,0.5518,,,,,,,,,,,,,,,,,,,,,,6102ec963d19b2600a047347,61036beec47011d51cdbae62,2021-07-29_23h03.47.956,Simcolourproject_2stim_asymm_v5,2020.2.10,MacIntel,60,61025ae37ef11b136ea224fe,,,,,,,,,3416,32.33984375,81.14453125,1,0,0,response1disk,,7,-4.55859375,-6.875,1,0,0,rectangle,-4.55859375,-6.875,1,0,0,,,,,,,-4.55859375,-6.875,1,0,0,,0,91,91,99,1,
,,,,,,,,,,,,,FF,,,,,,,,1.1863,,,,,,,,,,,,,,,,,,,,,,6102ec963d19b2600a047347,61036beec47011d51cdbae62,2021-07-29_23h03.47.956,Simcolourproject_2stim_asymm_v5,2020.2.10,MacIntel,60,61025ae37ef11b136ea224fe,,,,,,,,,4352,77.0859375,-34.6875,1,0,0,response3disk,,5,8.3125,-10.58203125,1,0,0,rectangle,8.3125,-10.58203125,1,0,0,,,,,,,8.3125,-10.58203125,1,0,0,,0,92,92,120,1,
,,,,,,,,,,,,,FF,,,,,,,,0.5683,,,,,,,,,,,,,,,,,,,,,,6102ec963d19b2600a047347,61036beec47011d51cdbae62,2021-07-29_23h03.47.956,Simcolourproject_2stim_asymm_v5,2020.2.10,MacIntel,60,61025ae37ef11b136ea224fe,,,,,,,,,2567,26.2109375,63.05078125,1,0,0,response1disk,,7,-1.3671875,-9.4921875,1,0,0,rectangle,-1.3671875,-9.4921875,1,0,0,,,,,,,-1.3671875,-9.4921875,1,0,0,,0,93,93,63,1,
,,,,,,,,,,,,,FF,,,,,,,,0.4849,,,,,,,,,,,,,,,,,,,,,,6102ec963d19b2600a047347,61036beec47011d51cdbae62,2021-07-29_23h03.47.956,Simcolourproject_2stim_asymm_v5,2020.2.10,MacIntel,60,61025ae37ef11b136ea224fe,,,,,,,,,1032,43.89453125,75.59375,1,0,0,response1disk,,7,15.8046875,1.04296875,1,0,0,rectangle,15.8046875,1.04296875,1,0,0,,,,,,,15.8046875,1.04296875,1,0,0,,0,94,94,121,1,
,,,,,,,,,,,,,FF,,,,,,,,0.5181,,,,,,,,,,,,,,,,,,,,,,6102ec963d19b2600a047347,61036beec47011d51cdbae62,2021-07-29_23h03.47.956,Simcolourproject_2stim_asymm_v5,2020.2.10,MacIntel,60,61025ae37ef11b136ea224fe,,,,,,,,,2982,40.59765625,63.48046875,1,0,0,response1disk,,7,10.93359375,6.5703125,1,0,0,rectangle,10.93359375,6.5703125,1,0,0,,,,,,,10.93359375,6.5703125,1,0,0,,0,95,95,35,1,
,,,,,,,,,,,,,FF,,,,,,,,4.9652,,,,,,,,,,,,,,,,,,,,,,6102ec963d19b2600a047347,61036beec47011d51cdbae62,2021-07-29_23h03.47.956,Simcolourproject_2stim_asymm_v5,2020.2.10,MacIntel,60,61025ae37ef11b136ea224fe,,,,,,,,,301,67.296875,37.49609375,1,0,0,response1disk,,6,6.1015625,-10.82421875,1,0,0,rectangle,6.1015625,-10.82421875,1,0,0,,,,,,,6.1015625,-10.82421875,1,0,0,,0,96,96,152,1,
,,,,,,,,,,,,,FF,,,,,,,,1.2378,,,,,,,,,,,,,,,,,,,,,,6102ec963d19b2600a047347,61036beec47011d51cdbae62,2021-07-29_23h03.47.956,Simcolourproject_2stim_asymm_v5,2020.2.10,MacIntel,60,61025ae37ef11b136ea224fe,,,,,,,,,998,74.0390625,32.53125,1,0,0,response1disk,,6,14.57421875,5.19140625,1,0,0,rectangle,98.11328125,43.6640625,1,0,0,response1disk_3,TRUE,6,6,"[1,218,175,201,139,15,200,162,232,273,43,71,185,229,162,88,98,271,264,115]",2.6397,4.578125,-3.37109375,1,0,0,rectangle,0,97,97,127,1,
,,,,,,,,,,,,,FF,,,,,,,,1.0698,,,,,,,,,,,,,,,,,,,,,,6102ec963d19b2600a047347,61036beec47011d51cdbae62,2021-07-29_23h03.47.956,Simcolourproject_2stim_asymm_v5,2020.2.10,MacIntel,60,61025ae37ef11b136ea224fe,,,,,,,,,2703,72.47265625,-35.96484375,1,0,0,response3disk,,5,-1.7890625,-5.0546875,1,0,0,rectangle,-1.7890625,-5.0546875,1,0,0,,,,,,,-1.7890625,-5.0546875,1,0,0,,0,98,98,155,1,
,,,,,,,,,,,,,FF,,,,,,,,1.3051,,,,,,,,,,,,,,,,,,,,,,6102ec963d19b2600a047347,61036beec47011d51cdbae62,2021-07-29_23h03.47.956,Simcolourproject_2stim_asymm_v5,2020.2.10,MacIntel,60,61025ae37ef11b136ea224fe,,,,,,,,,2289,64.94140625,-28.46484375,1,0,0,response3disk,,5,-13.6328125,-4.1875,1,0,0,rectangle,-13.6328125,-4.1875,1,0,0,,,,,,,-13.6328125,-4.1875,1,0,0,,0,99,99,40,1,
,,,,,,,,,,,,,FF,,,,,,,,1.0361,,,,,,,,,,,,,,,,,,,,,,6102ec963d19b2600a047347,61036beec47011d51cdbae62,2021-07-29_23h03.47.956,Simcolourproject_2stim_asymm_v5,2020.2.10,MacIntel,60,61025ae37ef11b136ea224fe,,,,,,,,,1295,63.76953125,46.44140625,1,0,0,response1disk,,6,2.94921875,-12.49609375,1,0,0,rectangle,2.94921875,-12.49609375,1,0,0,,,,,,,2.94921875,-12.49609375,1,0,0,,0,100,100,92,1,
,,,,,,,,,,,,,FF,,,,,,,,1.0027,,,,,,,,,,,,,,,,,,,,,,6102ec963d19b2600a047347,61036beec47011d51cdbae62,2021-07-29_23h03.47.956,Simcolourproject_2stim_asymm_v5,2020.2.10,MacIntel,60,61025ae37ef11b136ea224fe,,,,,,,,,3913,39.234375,-65.6015625,1,0,0,response3disk,,4,6.37890625,-13.74609375,1,0,0,rectangle,6.37890625,-13.74609375,1,0,0,,,,,,,6.37890625,-13.74609375,1,0,0,,0,101,101,140,1,
,,,,,,,,,,,,,FF,,,,,,,,0.7355,,,,,,,,,,,,,,,,,,,,,,6102ec963d19b2600a047347,61036beec47011d51cdbae62,2021-07-29_23h03.47.956,Simcolourproject_2stim_asymm_v5,2020.2.10,MacIntel,60,61025ae37ef11b136ea224fe,,,,,,,,,2124,77.2578125,41.13671875,1,0,0,response1disk,,6,11.80859375,12.89453125,1,0,0,rectangle,11.80859375,12.89453125,1,0,0,,,,,,,11.80859375,12.89453125,1,0,0,,0,102,102,42,1,
,,,,,,,,,,,,,FF,,,,,,,,1.3215,,,,,,,,,,,,,,,,,,,,,,6102ec963d19b2600a047347,61036beec47011d51cdbae62,2021-07-29_23h03.47.956,Simcolourproject_2stim_asymm_v5,2020.2.10,MacIntel,60,61025ae37ef11b136ea224fe,,,,,,,,,954,73.6328125,39.97265625,1,0,0,response1disk,,6,8.71875,-3.1953125,1,0,0,rectangle,8.71875,-3.1953125,1,0,0,,,,,,,8.71875,-3.1953125,1,0,0,,0,103,103,137,1,
,,,,,,,,,,,,,FF,,,,,,,,1.0874,,,,,,,,,,,,,,,,,,,,,,6102ec963d19b2600a047347,61036beec47011d51cdbae62,2021-07-29_23h03.47.956,Simcolourproject_2stim_asymm_v5,2020.2.10,MacIntel,60,61025ae37ef11b136ea224fe,,,,,,,,,1187,81.875,42.8046875,1,0,0,response1disk,,6,-2.015625,-7.7265625,1,0,0,rectangle,-2.015625,-7.7265625,1,0,0,,,,,,,-2.015625,-7.7265625,1,0,0,,0,104,104,8,1,
,,,,,,,,,,,,,FF,,,,,,,,0.5839,,,,,,,,,,,,,,,,,,,,,,6102ec963d19b2600a047347,61036beec47011d51cdbae62,2021-07-29_23h03.47.956,Simcolourproject_2stim_asymm_v5,2020.2.10,MacIntel,60,61025ae37ef11b136ea224fe,,,,,,,,,3308,67.9453125,32.47265625,1,0,0,response1disk,,6,1.99609375,-7.34765625,1,0,0,rectangle,1.99609375,-7.34765625,1,0,0,,,,,,,1.99609375,-7.34765625,1,0,0,,0,105,105,117,1,
,,,,,,,,,,,,,FF,,,,,,,,1.0697,,,,,,,,,,,,,,,,,,,,,,6102ec963d19b2600a047347,61036beec47011d51cdbae62,2021-07-29_23h03.47.956,Simcolourproject_2stim_asymm_v5,2020.2.10,MacIntel,60,61025ae37ef11b136ea224fe,,,,,,,,,1373,69.61328125,-37.90625,1,0,0,response3disk,,5,16.4765625,-13.234375,1,0,0,rectangle,16.4765625,-13.234375,1,0,0,,,,,,,16.4765625,-13.234375,1,0,0,,0,106,106,86,1,
,,,,,,,,,,,,,FF,,,,,,,,0.6682,,,,,,,,,,,,,,,,,,,,,,6102ec963d19b2600a047347,61036beec47011d51cdbae62,2021-07-29_23h03.47.956,Simcolourproject_2stim_asymm_v5,2020.2.10,MacIntel,60,61025ae37ef11b136ea224fe,,,,,,,,,3319,38.19140625,89.5625,1,0,0,response1disk,,7,5.64453125,-3.6796875,1,0,0,rectangle,5.64453125,-3.6796875,1,0,0,,,,,,,5.64453125,-3.6796875,1,0,0,,0,107,107,88,1,
,,,,,,,,,,,,,FF,,,,,,,,3.0731,,,,,,,,,,,,,,,,,,,,,,6102ec963d19b2600a047347,61036beec47011d51cdbae62,2021-07-29_23h03.47.956,Simcolourproject_2stim_asymm_v5,2020.2.10,MacIntel,60,61025ae37ef11b136ea224fe,,,,,,,,,427,88.83984375,40.984375,1,0,0,response1disk,,6,9.63671875,-4.42578125,1,0,0,rectangle,9.63671875,-4.42578125,1,0,0,,,,,,,9.63671875,-4.42578125,1,0,0,,0,108,108,75,1,
,,,,,,,,,,,,,FF,,,,,,,,1.069,,,,,,,,,,,,,,,,,,,,,,6102ec963d19b2600a047347,61036beec47011d51cdbae62,2021-07-29_23h03.47.956,Simcolourproject_2stim_asymm_v5,2020.2.10,MacIntel,60,61025ae37ef11b136ea224fe,,,,,,,,,3365,41.24609375,82.55859375,1,0,0,response1disk,,7,0.66796875,0.9296875,1,0,0,rectangle,0.66796875,0.9296875,1,0,0,,,,,,,0.66796875,0.9296875,1,0,0,,0,109,109,143,1,
,,,,,,,,,,,,,FF,,,,,,,,0.7688,,,,,,,,,,,,,,,,,,,,,,6102ec963d19b2600a047347,61036beec47011d51cdbae62,2021-07-29_23h03.47.956,Simcolourproject_2stim_asymm_v5,2020.2.10,MacIntel,60,61025ae37ef11b136ea224fe,,,,,,,,,1048,47.2578125,87.12890625,1,0,0,response1disk,,7,7.4609375,6.09765625,1,0,0,rectangle,7.4609375,6.09765625,1,0,0,,,,,,,7.4609375,6.09765625,1,0,0,,0,110,110,151,1,
,,,,,,,,,,,,,FF,,,,,,,,0.4332,,,,,,,,,,,,,,,,,,,,,,6102ec963d19b2600a047347,61036beec47011d51cdbae62,2021-07-29_23h03.47.956,Simcolourproject_2stim_asymm_v5,2020.2.10,MacIntel,60,61025ae37ef11b136ea224fe,,,,,,,,,1851,32.78515625,59.80078125,1,0,0,response1disk,,7,-6.45703125,-11.56640625,1,0,0,rectangle,-6.45703125,-11.56640625,1,0,0,,,,,,,-6.45703125,-11.56640625,1,0,0,,0,111,111,41,1,
,,,,,,,,,,,,,FF,,,,,,,,1.2197,,,,,,,,,,,,,,,,,,,,,,6102ec963d19b2600a047347,61036beec47011d51cdbae62,2021-07-29_23h03.47.956,Simcolourproject_2stim_asymm_v5,2020.2.10,MacIntel,60,61025ae37ef11b136ea224fe,,,,,,,,,1267,98.66796875,31.37109375,1,0,0,response1disk,,6,-5.88671875,-3.15234375,1,0,0,rectangle,-5.88671875,-3.15234375,1,0,0,,,,,,,-5.88671875,-3.15234375,1,0,0,,0,112,112,157,1,
,,,,,,,,,,,,,FF,,,,,,,,1.4037,,,,,,,,,,,,,,,,,,,,,,6102ec963d19b2600a047347,61036beec47011d51cdbae62,2021-07-29_23h03.47.956,Simcolourproject_2stim_asymm_v5,2020.2.10,MacIntel,60,61025ae37ef11b136ea224fe,,,,,,,,,1460,-72.390625,-44.81640625,1,0,0,response5disk,,2,-3.53515625,7.03515625,1,0,0,rectangle,-3.53515625,7.03515625,1,0,0,,,,,,,-3.53515625,7.03515625,1,0,0,,0,113,113,34,1,
,,,,,,,,,,,,,FF,,,,,,,,1.4205,,,,,,,,,,,,,,,,,,,,,,6102ec963d19b2600a047347,61036beec47011d51cdbae62,2021-07-29_23h03.47.956,Simcolourproject_2stim_asymm_v5,2020.2.10,MacIntel,60,61025ae37ef11b136ea224fe,,,,,,,,,937,59.23828125,-27.265625,1,0,0,response3disk,,5,16.16015625,0.61328125,1,0,0,rectangle,41.05078125,-88.1875,1,0,0,response3disk_3,TRUE,4,4,"[1,218,175,201,139,15,200,162,232,273,43,71,185,229,162,88,98,271,264,115]",1.754,3.62890625,-7.14453125,1,0,0,rectangle,0,114,114,95,1,
,,,,,,,,,,,,,FF,,,,,,,,1.3544,,,,,,,,,,,,,,,,,,,,,,6102ec963d19b2600a047347,61036beec47011d51cdbae62,2021-07-29_23h03.47.956,Simcolourproject_2stim_asymm_v5,2020.2.10,MacIntel,60,61025ae37ef11b136ea224fe,,,,,,,,,81,81.7109375,-35.53125,1,0,0,response3disk,,5,7.13671875,-3.484375,1,0,0,rectangle,7.13671875,-3.484375,1,0,0,,,,,,,7.13671875,-3.484375,1,0,0,,0,115,115,26,1,
,,,,,,,,,,,,,FF,,,,,,,,0.6368,,,,,,,,,,,,,,,,,,,,,,6102ec963d19b2600a047347,61036beec47011d51cdbae62,2021-07-29_23h03.47.956,Simcolourproject_2stim_asymm_v5,2020.2.10,MacIntel,60,61025ae37ef11b136ea224fe,,,,,,,,,4152,27.8671875,67.27734375,1,0,0,response1disk,,7,2.4296875,3.11328125,1,0,0,rectangle,2.4296875,3.11328125,1,0,0,,,,,,,2.4296875,3.11328125,1,0,0,,0,116,116,45,1,
,,,,,,,,,,,,,FF,,,,,,,,1.2388,,,,,,,,,,,,,,,,,,,,,,6102ec963d19b2600a047347,61036beec47011d51cdbae62,2021-07-29_23h03.47.956,Simcolourproject_2stim_asymm_v5,2020.2.10,MacIntel,60,61025ae37ef11b136ea224fe,,,,,,,,,3082,86.66015625,33.52734375,1,0,0,response1disk,,6,7.74609375,-0.203125,1,0,0,rectangle,7.74609375,-0.203125,1,0,0,,,,,,,7.74609375,-0.203125,1,0,0,,0,117,117,135,1,
,,,,,,,,,,,,,FF,,,,,,,,1.018,,,,,,,,,,,,,,,,,,,,,,6102ec963d19b2600a047347,61036beec47011d51cdbae62,2021-07-29_23h03.47.956,Simcolourproject_2stim_asymm_v5,2020.2.10,MacIntel,60,61025ae37ef11b136ea224fe,,,,,,,,,1311,65.75,32.83203125,1,0,0,response1disk,,6,2.375,4.43359375,1,0,0,rectangle,2.375,4.43359375,1,0,0,,,,,,,2.375,4.43359375,1,0,0,,0,118,118,22,1,
,,,,,,,,,,,,,FF,,,,,,,,0.7181,,,,,,,,,,,,,,,,,,,,,,6102ec963d19b2600a047347,61036beec47011d51cdbae62,2021-07-29_23h03.47.956,Simcolourproject_2stim_asymm_v5,2020.2.10,MacIntel,60,61025ae37ef11b136ea224fe,,,,,,,,,699,60.4921875,32.79296875,1,0,0,response1disk,,6,-15.20703125,-15.70703125,1,0,0,rectangle,-15.20703125,-15.70703125,1,0,0,,,,,,,-15.20703125,-15.70703125,1,0,0,,0,119,119,130,1,
,,,,,,,,,,,,,FF,,,,,,,,0.5861,,,,,,,,,,,,,,,,,,,,,,6102ec963d19b2600a047347,61036beec47011d51cdbae62,2021-07-29_23h03.47.956,Simcolourproject_2stim_asymm_v5,2020.2.10,MacIntel,60,61025ae37ef11b136ea224fe,,,,,,,,,388,25.1015625,72.78515625,1,0,0,response1disk,,7,2.125,-16.0859375,1,0,0,rectangle,2.125,-16.0859375,1,0,0,,,,,,,2.125,-16.0859375,1,0,0,,0,120,120,83,1,
,,,,,,,,,,,,,FF,,,,,,,,1.1707,,,,,,,,,,,,,,,,,,,,,,6102ec963d19b2600a047347,61036beec47011d51cdbae62,2021-07-29_23h03.47.956,Simcolourproject_2stim_asymm_v5,2020.2.10,MacIntel,60,61025ae37ef11b136ea224fe,,,,,,,,,528,56.24609375,-34.69921875,1,0,0,response3disk,,5,-27.83203125,-10.3828125,1,0,0,rectangle,-27.83203125,-10.3828125,1,0,0,,,,,,,-27.83203125,-10.3828125,1,0,0,,0,121,121,38,1,
,,,,,,,,,,,,,FF,,,,,,,,0.7022,,,,,,,,,,,,,,,,,,,,,,6102ec963d19b2600a047347,61036beec47011d51cdbae62,2021-07-29_23h03.47.956,Simcolourproject_2stim_asymm_v5,2020.2.10,MacIntel,60,61025ae37ef11b136ea224fe,,,,,,,,,1350,31.15625,59.078125,1,0,0,response1disk,,7,17.4921875,11.484375,1,0,0,rectangle,17.4921875,11.484375,1,0,0,,,,,,,17.4921875,11.484375,1,0,0,,0,122,122,153,1,
,,,,,,,,,,,,,FF,,,,,,,,0.5867,,,,,,,,,,,,,,,,,,,,,,6102ec963d19b2600a047347,61036beec47011d51cdbae62,2021-07-29_23h03.47.956,Simcolourproject_2stim_asymm_v5,2020.2.10,MacIntel,60,61025ae37ef11b136ea224fe,,,,,,,,,2197,29.51953125,72.19140625,1,0,0,response1disk,,7,4.93359375,1.8515625,1,0,0,rectangle,4.93359375,1.8515625,1,0,0,,,,,,,4.93359375,1.8515625,1,0,0,,0,123,123,17,1,
,,,,,,,,,,,,,FF,,,,,,,,1.0692,,,,,,,,,,,,,,,,,,,,,,6102ec963d19b2600a047347,61036beec47011d51cdbae62,2021-07-29_23h03.47.956,Simcolourproject_2stim_asymm_v5,2020.2.10,MacIntel,60,61025ae37ef11b136ea224fe,,,,,,,,,3562,63.83203125,-36.53125,1,0,0,response3disk,,5,23.37109375,-11.90234375,1,0,0,rectangle,23.37109375,-11.90234375,1,0,0,,,,,,,23.37109375,-11.90234375,1,0,0,,0,124,124,60,1,
,,,,,,,,,,,,,FF,,,,,,,,0.784,,,,,,,,,,,,,,,,,,,,,,6102ec963d19b2600a047347,61036beec47011d51cdbae62,2021-07-29_23h03.47.956,Simcolourproject_2stim_asymm_v5,2020.2.10,MacIntel,60,61025ae37ef11b136ea224fe,,,,,,,,,1831,62.0078125,-39.60546875,1,0,0,response3disk,,5,0.6015625,-10.15234375,1,0,0,rectangle,0.6015625,-10.15234375,1,0,0,,,,,,,0.6015625,-10.15234375,1,0,0,,0,125,125,134,1,
,,,,,,,,,,,,,FF,,,,,,,,0.568,,,,,,,,,,,,,,,,,,,,,,6102ec963d19b2600a047347,61036beec47011d51cdbae62,2021-07-29_23h03.47.956,Simcolourproject_2stim_asymm_v5,2020.2.10,MacIntel,60,61025ae37ef11b136ea224fe,,,,,,,,,3227,36.84765625,79.046875,1,0,0,response1disk,,7,3.90625,1.640625,1,0,0,rectangle,3.90625,1.640625,1,0,0,,,,,,,3.90625,1.640625,1,0,0,,0,126,126,119,1,
,,,,,,,,,,,,,FF,,,,,,,,0.6505,,,,,,,,,,,,,,,,,,,,,,6102ec963d19b2600a047347,61036beec47011d51cdbae62,2021-07-29_23h03.47.956,Simcolourproject_2stim_asymm_v5,2020.2.10,MacIntel,60,61025ae37ef11b136ea224fe,,,,,,,,,188,79.23828125,-44.58984375,1,0,0,response3disk,,5,19.08984375,0.265625,1,0,0,rectangle,19.08984375,0.265625,1,0,0,,,,,,,19.08984375,0.265625,1,0,0,,0,127,127,142,1,
,,,,,,,,,,,,,FF,,,,,,,,0.5862,,,,,,,,,,,,,,,,,,,,,,6102ec963d19b2600a047347,61036beec47011d51cdbae62,2021-07-29_23h03.47.956,Simcolourproject_2stim_asymm_v5,2020.2.10,MacIntel,60,61025ae37ef11b136ea224fe,,,,,,,,,839,31.125,70.76171875,1,0,0,response1disk,,7,11.0625,1.11328125,1,0,0,rectangle,11.0625,1.11328125,1,0,0,,,,,,,11.0625,1.11328125,1,0,0,,0,128,128,112,1,
,,,,,,,,,,,,,FF,,,,,,,,0.4347,,,,,,,,,,,,,,,,,,,,,,6102ec963d19b2600a047347,61036beec47011d51cdbae62,2021-07-29_23h03.47.956,Simcolourproject_2stim_asymm_v5,2020.2.10,MacIntel,60,61025ae37ef11b136ea224fe,,,,,,,,,627,36.9765625,52.0078125,1,0,0,response1disk,,7,8.671875,-1.58203125,1,0,0,rectangle,8.671875,-1.58203125,1,0,0,,,,,,,8.671875,-1.58203125,1,0,0,,0,129,129,54,1,
,,,,,,,,,,,,,FF,,,,,,,,1.9733,,,,,,,,,,,,,,,,,,,,,,6102ec963d19b2600a047347,61036beec47011d51cdbae62,2021-07-29_23h03.47.956,Simcolourproject_2stim_asymm_v5,2020.2.10,MacIntel,60,61025ae37ef11b136ea224fe,,,,,,,,,2163,91.625,66.328125,1,0,0,response1disk,,6,4.80859375,0.1875,1,0,0,rectangle,4.80859375,0.1875,1,0,0,,,,,,,4.80859375,0.1875,1,0,0,,0,130,130,109,1,
,,,,,,,,,,,,,FF,,,,,,,,0.5182,,,,,,,,,,,,,,,,,,,,,,6102ec963d19b2600a047347,61036beec47011d51cdbae62,2021-07-29_23h03.47.956,Simcolourproject_2stim_asymm_v5,2020.2.10,MacIntel,60,61025ae37ef11b136ea224fe,,,,,,,,,2483,61.6640625,26.5859375,1,0,0,response1disk,,6,-4.140625,-15.875,1,0,0,rectangle,-4.140625,-15.875,1,0,0,,,,,,,-4.140625,-15.875,1,0,0,,0,131,131,77,1,
,,,,,,,,,,,,,FF,,,,,,,,1.8899,,,,,,,,,,,,,,,,,,,,,,6102ec963d19b2600a047347,61036beec47011d51cdbae62,2021-07-29_23h03.47.956,Simcolourproject_2stim_asymm_v5,2020.2.10,MacIntel,60,61025ae37ef11b136ea224fe,,,,,,,,,944,61.0390625,30.07421875,1,0,0,response1disk,,6,5.234375,-0.828125,1,0,0,rectangle,5.234375,-0.828125,1,0,0,,,,,,,5.234375,-0.828125,1,0,0,,0,132,132,30,1,
,,,,,,,,,,,,,FF,,,,,,,,0.5501,,,,,,,,,,,,,,,,,,,,,,6102ec963d19b2600a047347,61036beec47011d51cdbae62,2021-07-29_23h03.47.956,Simcolourproject_2stim_asymm_v5,2020.2.10,MacIntel,60,61025ae37ef11b136ea224fe,,,,,,,,,3268,67.83984375,31.4296875,1,0,0,response1disk,,6,-2.90234375,1.88671875,1,0,0,rectangle,-2.90234375,1.88671875,1,0,0,,,,,,,-2.90234375,1.88671875,1,0,0,,0,133,133,69,1,
,,,,,,,,,,,,,FF,,,,,,,,1.7371,,,,,,,,,,,,,,,,,,,,,,6102ec963d19b2600a047347,61036beec47011d51cdbae62,2021-07-29_23h03.47.956,Simcolourproject_2stim_asymm_v5,2020.2.10,MacIntel,60,61025ae37ef11b136ea224fe,,,,,,,,,1746,72.8359375,-45.02734375,1,0,0,response3disk,,5,5.21875,3.5,1,0,0,rectangle,5.21875,3.5,1,0,0,,,,,,,5.21875,3.5,1,0,0,,0,134,134,62,1,
,,,,,,,,,,,,,FF,,,,,,,,0.9528,,,,,,,,,,,,,,,,,,,,,,6102ec963d19b2600a047347,61036beec47011d51cdbae62,2021-07-29_23h03.47.956,Simcolourproject_2stim_asymm_v5,2020.2.10,MacIntel,60,61025ae37ef11b136ea224fe,,,,,,,,,3742,-64.6171875,-41.5546875,1,0,0,response5disk,,2,-21.578125,3.859375,1,0,0,rectangle,-21.578125,3.859375,1,0,0,,,,,,,-21.578125,3.859375,1,0,0,,0,135,135,125,1,
,,,,,,,,,,,,,FF,,,,,,,,1.3702,,,,,,,,,,,,,,,,,,,,,,6102ec963d19b2600a047347,61036beec47011d51cdbae62,2021-07-29_23h03.47.956,Simcolourproject_2stim_asymm_v5,2020.2.10,MacIntel,60,61025ae37ef11b136ea224fe,,,,,,,,,2244,72.34765625,-34.953125,1,0,0,response3disk,,5,-1.33984375,-6.87890625,1,0,0,rectangle,-1.33984375,-6.87890625,1,0,0,,,,,,,-1.33984375,-6.87890625,1,0,0,,0,136,136,47,1,
,,,,,,,,,,,,,FF,,,,,,,,1.3713,,,,,,,,,,,,,,,,,,,,,,6102ec963d19b2600a047347,61036beec47011d51cdbae62,2021-07-29_23h03.47.956,Simcolourproject_2stim_asymm_v5,2020.2.10,MacIntel,60,61025ae37ef11b136ea224fe,,,,,,,,,399,58.5234375,86.28125,1,0,0,response1disk,,7,9.7109375,-11.69140625,1,0,0,rectangle,9.7109375,-11.69140625,1,0,0,,,,,,,9.7109375,-11.69140625,1,0,0,,0,137,137,145,1,
,,,,,,,,,,,,,FF,,,,,,,,0.6692,,,,,,,,,,,,,,,,,,,,,,6102ec963d19b2600a047347,61036beec47011d51cdbae62,2021-07-29_23h03.47.956,Simcolourproject_2stim_asymm_v5,2020.2.10,MacIntel,60,61025ae37ef11b136ea224fe,,,,,,,,,1470,23.0703125,70.0625,1,0,0,response1disk,,7,30.5234375,17.81640625,1,0,0,rectangle,80.953125,51.07421875,1,0,0,response1disk_3,TRUE,6,6,"[1,218,175,201,139,15,200,162,232,273,43,71,185,229,162,88,98,271,264,115]",1.3354,-9.765625,-6.3125,1,0,0,rectangle,0,138,138,100,1,
,,,,,,,,,,,,,FF,,,,,,,,1.1197,,,,,,,,,,,,,,,,,,,,,,6102ec963d19b2600a047347,61036beec47011d51cdbae62,2021-07-29_23h03.47.956,Simcolourproject_2stim_asymm_v5,2020.2.10,MacIntel,60,61025ae37ef11b136ea224fe,,,,,,,,,3051,67.80859375,-32.28515625,1,0,0,response3disk,,5,4.63671875,-7.2734375,1,0,0,rectangle,4.63671875,-7.2734375,1,0,0,,,,,,,4.63671875,-7.2734375,1,0,0,,0,139,139,67,1,
,,,,,,,,,,,,,FF,,,,,,,,0.7363,,,,,,,,,,,,,,,,,,,,,,6102ec963d19b2600a047347,61036beec47011d51cdbae62,2021-07-29_23h03.47.956,Simcolourproject_2stim_asymm_v5,2020.2.10,MacIntel,60,61025ae37ef11b136ea224fe,,,,,,,,,3693,42.578125,74.69921875,1,0,0,response1disk,,7,-4.69921875,-10.29296875,1,0,0,rectangle,-4.69921875,-10.29296875,1,0,0,,,,,,,-4.69921875,-10.29296875,1,0,0,,0,140,140,43,1,
,,,,,,,,,,,,,FF,,,,,,,,0.7514,,,,,,,,,,,,,,,,,,,,,,6102ec963d19b2600a047347,61036beec47011d51cdbae62,2021-07-29_23h03.47.956,Simcolourproject_2stim_asymm_v5,2020.2.10,MacIntel,60,61025ae37ef11b136ea224fe,,,,,,,,,4028,98.125,30.46875,1,0,0,response1disk,,6,26.7734375,9.5,1,0,0,rectangle,26.7734375,9.5,1,0,0,,,,,,,26.7734375,9.5,1,0,0,,0,141,141,12,1,
,,,,,,,,,,,,,FF,,,,,,,,0.6684,,,,,,,,,,,,,,,,,,,,,,6102ec963d19b2600a047347,61036beec47011d51cdbae62,2021-07-29_23h03.47.956,Simcolourproject_2stim_asymm_v5,2020.2.10,MacIntel,60,61025ae37ef11b136ea224fe,,,,,,,,,3885,64.58984375,27.734375,1,0,0,response1disk,,6,22.47265625,8.27734375,1,0,0,rectangle,22.47265625,8.27734375,1,0,0,,,,,,,22.47265625,8.27734375,1,0,0,,0,142,142,123,1,
,,,,,,,,,,,,,FF,,,,,,,,1.321,,,,,,,,,,,,,,,,,,,,,,6102ec963d19b2600a047347,61036beec47011d51cdbae62,2021-07-29_23h03.47.956,Simcolourproject_2stim_asymm_v5,2020.2.10,MacIntel,60,61025ae37ef11b136ea224fe,,,,,,,,,993,74.9765625,33.09765625,1,0,0,response1disk,,6,16.0234375,16.5546875,1,0,0,rectangle,16.0234375,16.5546875,1,0,0,,,,,,,16.0234375,16.5546875,1,0,0,,0,143,143,66,1,
,,,,,,,,,,,,,FF,,,,,,,,0.5677,,,,,,,,,,,,,,,,,,,,,,6102ec963d19b2600a047347,61036beec47011d51cdbae62,2021-07-29_23h03.47.956,Simcolourproject_2stim_asymm_v5,2020.2.10,MacIntel,60,61025ae37ef11b136ea224fe,,,,,,,,,1172,38.3046875,72.23046875,1,0,0,response1disk,,7,17.35546875,6.1484375,1,0,0,rectangle,17.35546875,6.1484375,1,0,0,,,,,,,17.35546875,6.1484375,1,0,0,,0,144,144,15,1,
,,,,,,,,,,,,,FF,,,,,,,,0.8506,,,,,,,,,,,,,,,,,,,,,,6102ec963d19b2600a047347,61036beec47011d51cdbae62,2021-07-29_23h03.47.956,Simcolourproject_2stim_asymm_v5,2020.2.10,MacIntel,60,61025ae37ef11b136ea224fe,,,,,,,,,1167,30.41796875,63.4375,1,0,0,response1disk,,7,1.05078125,6.9375,1,0,0,rectangle,1.05078125,6.9375,1,0,0,,,,,,,1.05078125,6.9375,1,0,0,,0,145,145,98,1,
,,,,,,,,,,,,,FF,,,,,,,,1.3033,,,,,,,,,,,,,,,,,,,,,,6102ec963d19b2600a047347,61036beec47011d51cdbae62,2021-07-29_23h03.47.956,Simcolourproject_2stim_asymm_v5,2020.2.10,MacIntel,60,61025ae37ef11b136ea224fe,,,,,,,,,1968,34.54296875,-73.52734375,1,0,0,response3disk,,4,-14.37109375,1.015625,1,0,0,rectangle,-14.37109375,1.015625,1,0,0,,,,,,,-14.37109375,1.015625,1,0,0,,0,146,146,68,1,
,,,,,,,,,,,,,FF,,,,,,,,1.2871,,,,,,,,,,,,,,,,,,,,,,6102ec963d19b2600a047347,61036beec47011d51cdbae62,2021-07-29_23h03.47.956,Simcolourproject_2stim_asymm_v5,2020.2.10,MacIntel,60,61025ae37ef11b136ea224fe,,,,,,,,,2673,62.2890625,-22.84375,1,0,0,response3disk,,5,16.36328125,3.13671875,1,0,0,rectangle,16.36328125,3.13671875,1,0,0,,,,,,,16.36328125,3.13671875,1,0,0,,0,147,147,80,1,
,,,,,,,,,,,,,FF,,,,,,,,0.9369,,,,,,,,,,,,,,,,,,,,,,6102ec963d19b2600a047347,61036beec47011d51cdbae62,2021-07-29_23h03.47.956,Simcolourproject_2stim_asymm_v5,2020.2.10,MacIntel,60,61025ae37ef11b136ea224fe,,,,,,,,,3570,83.93359375,37.91796875,1,0,0,response1disk,,6,2.72265625,6.9296875,1,0,0,rectangle,2.72265625,6.9296875,1,0,0,,,,,,,2.72265625,6.9296875,1,0,0,,0,148,148,27,1,
,,,,,,,,,,,,,FF,,,,,,,,0.705,,,,,,,,,,,,,,,,,,,,,,6102ec963d19b2600a047347,61036beec47011d51cdbae62,2021-07-29_23h03.47.956,Simcolourproject_2stim_asymm_v5,2020.2.10,MacIntel,60,61025ae37ef11b136ea224fe,,,,,,,,,1275,65.30859375,22.1015625,1,0,0,response1disk,,6,0.890625,-10.48828125,1,0,0,rectangle,0.890625,-10.48828125,1,0,0,,,,,,,0.890625,-10.48828125,1,0,0,,0,149,149,93,1,
,,,,,,,,,,,,,FF,,,,,,,,0.852,,,,,,,,,,,,,,,,,,,,,,6102ec963d19b2600a047347,61036beec47011d51cdbae62,2021-07-29_23h03.47.956,Simcolourproject_2stim_asymm_v5,2020.2.10,MacIntel,60,61025ae37ef11b136ea224fe,,,,,,,,,3532,68.55078125,35.12890625,1,0,0,response1disk,,6,3.46484375,-4.9140625,1,0,0,rectangle,3.46484375,-4.9140625,1,0,0,,,,,,,3.46484375,-4.9140625,1,0,0,,0,150,150,129,1,
,,,,,,,,,,,,,FF,,,,,,,,0.8187,,,,,,,,,,,,,,,,,,,,,,6102ec963d19b2600a047347,61036beec47011d51cdbae62,2021-07-29_23h03.47.956,Simcolourproject_2stim_asymm_v5,2020.2.10,MacIntel,60,61025ae37ef11b136ea224fe,,,,,,,,,2630,35.0625,78.43359375,1,0,0,response1disk,,7,18.1484375,11.4765625,1,0,0,rectangle,18.1484375,11.4765625,1,0,0,,,,,,,18.1484375,11.4765625,1,0,0,,0,151,151,141,1,
,,,,,,,,,,,,,FF,,,,,,,,0.7352,,,,,,,,,,,,,,,,,,,,,,6102ec963d19b2600a047347,61036beec47011d51cdbae62,2021-07-29_23h03.47.956,Simcolourproject_2stim_asymm_v5,2020.2.10,MacIntel,60,61025ae37ef11b136ea224fe,,,,,,,,,1860,30.06640625,61.234375,1,0,0,response1disk,,7,-2.81640625,-16.71875,1,0,0,rectangle,-2.81640625,-16.71875,1,0,0,,,,,,,-2.81640625,-16.71875,1,0,0,,0,152,152,37,1,
,,,,,,,,,,,,,FF,,,,,,,,0.5031,,,,,,,,,,,,,,,,,,,,,,6102ec963d19b2600a047347,61036beec47011d51cdbae62,2021-07-29_23h03.47.956,Simcolourproject_2stim_asymm_v5,2020.2.10,MacIntel,60,61025ae37ef11b136ea224fe,,,,,,,,,1497,34.15234375,64.83984375,1,0,0,response1disk,,7,0.7578125,-6.1640625,1,0,0,rectangle,0.7578125,-6.1640625,1,0,0,,,,,,,0.7578125,-6.1640625,1,0,0,,0,153,153,19,1,
,,,,,,,,,,,,,FF,,,,,,,,0.535,,,,,,,,,,,,,,,,,,,,,,6102ec963d19b2600a047347,61036beec47011d51cdbae62,2021-07-29_23h03.47.956,Simcolourproject_2stim_asymm_v5,2020.2.10,MacIntel,60,61025ae37ef11b136ea224fe,,,,,,,,,3652,22.41015625,51.36328125,1,0,0,response1disk,,7,1.46484375,-13.640625,1,0,0,rectangle,1.46484375,-13.640625,1,0,0,,,,,,,1.46484375,-13.640625,1,0,0,,0,154,154,115,1,
,,,,,,,,,,,,,FF,,,,,,,,0.5843,,,,,,,,,,,,,,,,,,,,,,6102ec963d19b2600a047347,61036beec47011d51cdbae62,2021-07-29_23h03.47.956,Simcolourproject_2stim_asymm_v5,2020.2.10,MacIntel,60,61025ae37ef11b136ea224fe,,,,,,,,,2584,26.484375,46.1640625,1,0,0,response1disk,,7,1.32421875,-1.015625,1,0,0,rectangle,1.32421875,-1.015625,1,0,0,,,,,,,1.32421875,-1.015625,1,0,0,,0,155,155,149,1,
,,,,,,,,,,,,,FF,,,,,,,,0.8684,,,,,,,,,,,,,,,,,,,,,,6102ec963d19b2600a047347,61036beec47011d51cdbae62,2021-07-29_23h03.47.956,Simcolourproject_2stim_asymm_v5,2020.2.10,MacIntel,60,61025ae37ef11b136ea224fe,,,,,,,,,3301,77.53125,41.84765625,1,0,0,response1disk,,6,12.94921875,-2.73046875,1,0,0,rectangle,12.94921875,-2.73046875,1,0,0,,,,,,,12.94921875,-2.73046875,1,0,0,,0,156,156,72,1,
,,,,,,,,,,,,,FF,,,,,,,,0.5182,,,,,,,,,,,,,,,,,,,,,,6102ec963d19b2600a047347,61036beec47011d51cdbae62,2021-07-29_23h03.47.956,Simcolourproject_2stim_asymm_v5,2020.2.10,MacIntel,60,61025ae37ef11b136ea224fe,,,,,,,,,604,30.87109375,66.42578125,1,0,0,response1disk,,7,2.19140625,-4.2421875,1,0,0,rectangle,2.19140625,-4.2421875,1,0,0,,,,,,,2.19140625,-4.2421875,1,0,0,,0,157,157,82,1,
,,,,,,,,,,,,,FF,,,,,,,,0.6519,,,,,,,,,,,,,,,,,,,,,,6102ec963d19b2600a047347,61036beec47011d51cdbae62,2021-07-29_23h03.47.956,Simcolourproject_2stim_asymm_v5,2020.2.10,MacIntel,60,61025ae37ef11b136ea224fe,,,,,,,,,2938,29.37109375,68.19921875,1,0,0,response1disk,,7,1.66015625,1.30859375,1,0,0,rectangle,1.66015625,1.30859375,1,0,0,,,,,,,1.66015625,1.30859375,1,0,0,,0,158,158,124,1,
,,,,,,,,,,,,,FF,,,,,,,,1.2551,,,,,,,,,,,,,,,,,,,,,,6102ec963d19b2600a047347,61036beec47011d51cdbae62,2021-07-29_23h03.47.956,Simcolourproject_2stim_asymm_v5,2020.2.10,MacIntel,60,61025ae37ef11b136ea224fe,,,,,,,,,425,69.6171875,-40.09375,1,0,0,response3disk,,5,6.02734375,-6.11328125,1,0,0,rectangle,6.02734375,-6.11328125,1,0,0,,,,,,,6.02734375,-6.11328125,1,0,0,,0,159,159,3,1,
,,,,,,,,,,,,,FF,,,,,,,,0.7838,,,,,,,,,,,,,,,,,,,,,,6102ec963d19b2600a047347,61036beec47011d51cdbae62,2021-07-29_23h03.47.956,Simcolourproject_2stim_asymm_v5,2020.2.10,MacIntel,60,61025ae37ef11b136ea224fe,,,,,,,,,1343,69.82421875,-27.203125,1,0,0,response3disk,,5,6.96875,-11.0390625,1,0,0,rectangle,6.96875,-11.0390625,1,0,0,,,,,,,6.96875,-11.0390625,1,0,0,,1,0,160,148,1,
,,,,,,,,,,,,,FF,,,,,,,,1.5216,,,,,,,,,,,,,,,,,,,,,,6102ec963d19b2600a047347,61036beec47011d51cdbae62,2021-07-29_23h03.47.956,Simcolourproject_2stim_asymm_v5,2020.2.10,MacIntel,60,61025ae37ef11b136ea224fe,,,,,,,,,2537,67.296875,-23.578125,1,0,0,response3disk,,5,1.54296875,2,1,0,0,rectangle,74.54296875,-33.8203125,1,0,0,response3disk_3,TRUE,5,5,"[1,218,175,201,139,15,200,162,232,273,43,71,185,229,162,88,98,271,264,115]",1.3219,20.61328125,-9.7109375,1,0,0,rectangle,1,1,161,98,1,
,,,,,,,,,,,,,FF,,,,,,,,0.6517,,,,,,,,,,,,,,,,,,,,,,6102ec963d19b2600a047347,61036beec47011d51cdbae62,2021-07-29_23h03.47.956,Simcolourproject_2stim_asymm_v5,2020.2.10,MacIntel,60,61025ae37ef11b136ea224fe,,,,,,,,,2830,23.09375,53.48046875,1,0,0,response1disk,,7,0.328125,-2.15625,1,0,0,rectangle,0.328125,-2.15625,1,0,0,,,,,,,0.328125,-2.15625,1,0,0,,1,2,162,38,1,
,,,,,,,,,,,,,FF,,,,,,,,0.5168,,,,,,,,,,,,,,,,,,,,,,6102ec963d19b2600a047347,61036beec47011d51cdbae62,2021-07-29_23h03.47.956,Simcolourproject_2stim_asymm_v5,2020.2.10,MacIntel,60,61025ae37ef11b136ea224fe,,,,,,,,,3030,32.390625,58.90625,1,0,0,response1disk,,7,7.921875,-5.046875,1,0,0,rectangle,7.921875,-5.046875,1,0,0,,,,,,,7.921875,-5.046875,1,0,0,,1,3,163,30,1,
,,,,,,,,,,,,,FF,,,,,,,,0.4332,,,,,,,,,,,,,,,,,,,,,,6102ec963d19b2600a047347,61036beec47011d51cdbae62,2021-07-29_23h03.47.956,Simcolourproject_2stim_asymm_v5,2020.2.10,MacIntel,60,61025ae37ef11b136ea224fe,,,,,,,,,1875,36.2890625,62.44140625,1,0,0,response1disk,,7,-0.1015625,0.19140625,1,0,0,rectangle,-0.1015625,0.19140625,1,0,0,,,,,,,-0.1015625,0.19140625,1,0,0,,1,4,164,87,1,
,,,,,,,,,,,,,FF,,,,,,,,0.535,,,,,,,,,,,,,,,,,,,,,,6102ec963d19b2600a047347,61036beec47011d51cdbae62,2021-07-29_23h03.47.956,Simcolourproject_2stim_asymm_v5,2020.2.10,MacIntel,60,61025ae37ef11b136ea224fe,,,,,,,,,735,27.10546875,66.734375,1,0,0,response1disk,,7,3.84765625,-7.390625,1,0,0,rectangle,3.84765625,-7.390625,1,0,0,,,,,,,3.84765625,-7.390625,1,0,0,,1,5,165,143,1,
,,,,,,,,,,,,,FF,,,,,,,,0.5205,,,,,,,,,,,,,,,,,,,,,,6102ec963d19b2600a047347,61036beec47011d51cdbae62,2021-07-29_23h03.47.956,Simcolourproject_2stim_asymm_v5,2020.2.10,MacIntel,60,61025ae37ef11b136ea224fe,,,,,,,,,1124,20.19140625,42.80078125,1,0,0,response1disk,,7,4.66015625,-5.89453125,1,0,0,rectangle,4.66015625,-5.89453125,1,0,0,,,,,,,4.66015625,-5.89453125,1,0,0,,1,6,166,20,1,
,,,,,,,,,,,,,FF,,,,,,,,1.0376,,,,,,,,,,,,,,,,,,,,,,6102ec963d19b2600a047347,61036beec47011d51cdbae62,2021-07-29_23h03.47.956,Simcolourproject_2stim_asymm_v5,2020.2.10,MacIntel,60,61025ae37ef11b136ea224fe,,,,,,,,,2734,73.23828125,-47.85546875,1,0,0,response3disk,,5,4.09765625,-6.15625,1,0,0,rectangle,4.09765625,-6.15625,1,0,0,,,,,,,4.09765625,-6.15625,1,0,0,,1,7,167,96,1,
,,,,,,,,,,,,,FF,,,,,,,,0.6511,,,,,,,,,,,,,,,,,,,,,,6102ec963d19b2600a047347,61036beec47011d51cdbae62,2021-07-29_23h03.47.956,Simcolourproject_2stim_asymm_v5,2020.2.10,MacIntel,60,61025ae37ef11b136ea224fe,,,,,,,,,1367,25.13671875,56.859375,1,0,0,response1disk,,7,-4.94140625,-6.3828125,1,0,0,rectangle,-4.94140625,-6.3828125,1,0,0,,,,,,,-4.94140625,-6.3828125,1,0,0,,1,8,168,66,1,
,,,,,,,,,,,,,FF,,,,,,,,1.2052,,,,,,,,,,,,,,,,,,,,,,6102ec963d19b2600a047347,61036beec47011d51cdbae62,2021-07-29_23h03.47.956,Simcolourproject_2stim_asymm_v5,2020.2.10,MacIntel,60,61025ae37ef11b136ea224fe,,,,,,,,,3584,46.1484375,-74.9140625,1,0,0,response3disk,,4,4.1796875,-0.21875,1,0,0,rectangle,4.1796875,-0.21875,1,0,0,,,,,,,4.1796875,-0.21875,1,0,0,,1,9,169,55,1,
,,,,,,,,,,,,,FF,,,,,,,,1.2712,,,,,,,,,,,,,,,,,,,,,,6102ec963d19b2600a047347,61036beec47011d51cdbae62,2021-07-29_23h03.47.956,Simcolourproject_2stim_asymm_v5,2020.2.10,MacIntel,60,61025ae37ef11b136ea224fe,,,,,,,,,995,71.86328125,-44.65625,1,0,0,response3disk,,5,28.421875,-10.58984375,1,0,0,rectangle,28.421875,-10.58984375,1,0,0,,,,,,,28.421875,-10.58984375,1,0,0,,1,10,170,118,1,
,,,,,,,,,,,,,FF,,,,,,,,1.5715,,,,,,,,,,,,,,,,,,,,,,6102ec963d19b2600a047347,61036beec47011d51cdbae62,2021-07-29_23h03.47.956,Simcolourproject_2stim_asymm_v5,2020.2.10,MacIntel,60,61025ae37ef11b136ea224fe,,,,,,,,,1055,39.265625,-64.609375,1,0,0,response3disk,,4,8.2734375,3.2890625,1,0,0,rectangle,8.2734375,3.2890625,1,0,0,,,,,,,8.2734375,3.2890625,1,0,0,,1,11,171,2,1,
,,,,,,,,,,,,,FF,,,,,,,,0.653,,,,,,,,,,,,,,,,,,,,,,6102ec963d19b2600a047347,61036beec47011d51cdbae62,2021-07-29_23h03.47.956,Simcolourproject_2stim_asymm_v5,2020.2.10,MacIntel,60,61025ae37ef11b136ea224fe,,,,,,,,,3309,35.62890625,66.73828125,1,0,0,response1disk,,7,5.0546875,-4.15625,1,0,0,rectangle,5.0546875,-4.15625,1,0,0,,,,,,,5.0546875,-4.15625,1,0,0,,1,12,172,65,1,
,,,,,,,,,,,,,FF,,,,,,,,1.2366,,,,,,,,,,,,,,,,,,,,,,6102ec963d19b2600a047347,61036beec47011d51cdbae62,2021-07-29_23h03.47.956,Simcolourproject_2stim_asymm_v5,2020.2.10,MacIntel,60,61025ae37ef11b136ea224fe,,,,,,,,,1735,72.07421875,-38.609375,1,0,0,response3disk,,5,20.68359375,-12.4375,1,0,0,rectangle,20.68359375,-12.4375,1,0,0,,,,,,,20.68359375,-12.4375,1,0,0,,1,13,173,94,1,
,,,,,,,,,,,,,FF,,,,,,,,1.1537,,,,,,,,,,,,,,,,,,,,,,6102ec963d19b2600a047347,61036beec47011d51cdbae62,2021-07-29_23h03.47.956,Simcolourproject_2stim_asymm_v5,2020.2.10,MacIntel,60,61025ae37ef11b136ea224fe,,,,,,,,,610,52.13671875,-34.28125,1,0,0,response3disk,,5,-4.08203125,-0.26171875,1,0,0,rectangle,47.703125,-32.07421875,1,0,0,response3disk_3,TRUE,5,5,"[1,218,175,201,139,15,200,162,232,273,43,71,185,229,162,88,98,271,264,115]",1.5374,5.21484375,-12.03125,1,0,0,rectangle,1,14,174,0,1,
,,,,,,,,,,,,,FF,,,,,,,,1.3718,,,,,,,,,,,,,,,,,,,,,,6102ec963d19b2600a047347,61036beec47011d51cdbae62,2021-07-29_23h03.47.956,Simcolourproject_2stim_asymm_v5,2020.2.10,MacIntel,60,61025ae37ef11b136ea224fe,,,,,,,,,3489,57.74609375,17.26171875,1,0,0,response1disk,,6,9.05859375,5.57421875,1,0,0,rectangle,9.05859375,5.57421875,1,0,0,,,,,,,9.05859375,5.57421875,1,0,0,,1,15,175,73,1,
,,,,,,,,,,,,,FF,,,,,,,,0.5017,,,,,,,,,,,,,,,,,,,,,,6102ec963d19b2600a047347,61036beec47011d51cdbae62,2021-07-29_23h03.47.956,Simcolourproject_2stim_asymm_v5,2020.2.10,MacIntel,60,61025ae37ef11b136ea224fe,,,,,,,,,760,63.70703125,37.09765625,1,0,0,response1disk,,6,6.06640625,-0.16796875,1,0,0,rectangle,6.06640625,-0.16796875,1,0,0,,,,,,,6.06640625,-0.16796875,1,0,0,,1,16,176,8,1,
,,,,,,,,,,,,,FF,,,,,,,,1.2369,,,,,,,,,,,,,,,,,,,,,,6102ec963d19b2600a047347,61036beec47011d51cdbae62,2021-07-29_23h03.47.956,Simcolourproject_2stim_asymm_v5,2020.2.10,MacIntel,60,61025ae37ef11b136ea224fe,,,,,,,,,2891,73.94921875,-44.12890625,1,0,0,response3disk,,5,18.84765625,-6.8515625,1,0,0,rectangle,18.84765625,-6.8515625,1,0,0,,,,,,,18.84765625,-6.8515625,1,0,0,,1,17,177,152,1,
,,,,,,,,,,,,,FF,,,,,,,,1.1867,,,,,,,,,,,,,,,,,,,,,,6102ec963d19b2600a047347,61036beec47011d51cdbae62,2021-07-29_23h03.47.956,Simcolourproject_2stim_asymm_v5,2020.2.10,MacIntel,60,61025ae37ef11b136ea224fe,,,,,,,,,1843,55.6484375,34.33203125,1,0,0,response1disk,,6,-2.13671875,0.0234375,1,0,0,rectangle,-2.13671875,0.0234375,1,0,0,,,,,,,-2.13671875,0.0234375,1,0,0,,1,18,178,153,1,
,,,,,,,,,,,,,FF,,,,,,,,1.0864,,,,,,,,,,,,,,,,,,,,,,6102ec963d19b2600a047347,61036beec47011d51cdbae62,2021-07-29_23h03.47.956,Simcolourproject_2stim_asymm_v5,2020.2.10,MacIntel,60,61025ae37ef11b136ea224fe,,,,,,,,,1543,70.65625,41.11328125,1,0,0,response1disk,,6,14.4140625,9.3515625,1,0,0,rectangle,14.4140625,9.3515625,1,0,0,,,,,,,14.4140625,9.3515625,1,0,0,,1,19,179,6,1,
,,,,,,,,,,,,,FF,,,,,,,,0.4842,,,,,,,,,,,,,,,,,,,,,,6102ec963d19b2600a047347,61036beec47011d51cdbae62,2021-07-29_23h03.47.956,Simcolourproject_2stim_asymm_v5,2020.2.10,MacIntel,60,61025ae37ef11b136ea224fe,,,,,,,,,2502,68.359375,30.71484375,1,0,0,response1disk,,6,5.6796875,-5.140625,1,0,0,rectangle,5.6796875,-5.140625,1,0,0,,,,,,,5.6796875,-5.140625,1,0,0,,1,20,180,18,1,
,,,,,,,,,,,,,FF,,,,,,,,1.3316,,,,,,,,,,,,,,,,,,,,,,6102ec963d19b2600a047347,61036beec47011d51cdbae62,2021-07-29_23h03.47.956,Simcolourproject_2stim_asymm_v5,2020.2.10,MacIntel,60,61025ae37ef11b136ea224fe,,,,,,,,,3779,57.1640625,30.2109375,1,0,0,response1disk,,6,11.4296875,3.8203125,1,0,0,rectangle,11.4296875,3.8203125,1,0,0,,,,,,,11.4296875,3.8203125,1,0,0,,1,21,181,111,1,
,,,,,,,,,,,,,FF,,,,,,,,0.7689,,,,,,,,,,,,,,,,,,,,,,6102ec963d19b2600a047347,61036beec47011d51cdbae62,2021-07-29_23h03.47.956,Simcolourproject_2stim_asymm_v5,2020.2.10,MacIntel,60,61025ae37ef11b136ea224fe,,,,,,,,,3273,38.49609375,72.58984375,1,0,0,response1disk,,7,15.23828125,17.07421875,1,0,0,rectangle,15.23828125,17.07421875,1,0,0,,,,,,,15.23828125,17.07421875,1,0,0,,1,22,182,7,1,
,,,,,,,,,,,,,FF,,,,,,,,0.4339,,,,,,,,,,,,,,,,,,,,,,6102ec963d19b2600a047347,61036beec47011d51cdbae62,2021-07-29_23h03.47.956,Simcolourproject_2stim_asymm_v5,2020.2.10,MacIntel,60,61025ae37ef11b136ea224fe,,,,,,,,,2756,32.1484375,59.859375,1,0,0,response1disk,,7,0.15625,-12.359375,1,0,0,rectangle,0.15625,-12.359375,1,0,0,,,,,,,0.15625,-12.359375,1,0,0,,1,23,183,43,1,
,,,,,,,,,,,,,FF,,,,,,,,0.6373,,,,,,,,,,,,,,,,,,,,,,6102ec963d19b2600a047347,61036beec47011d51cdbae62,2021-07-29_23h03.47.956,Simcolourproject_2stim_asymm_v5,2020.2.10,MacIntel,60,61025ae37ef11b136ea224fe,,,,,,,,,3587,30.82421875,57.9140625,1,0,0,response1disk,,7,17.2265625,-6.43359375,1,0,0,rectangle,-41.1953125,-64.11328125,1,0,0,response5disk_3,TRUE,3,3,"[1,218,175,201,139,15,200,162,232,273,43,71,185,229,162,88,98,271,264,115]",1.6229,-5.89453125,-0.9375,1,0,0,rectangle,1,24,184,102,1,
,,,,,,,,,,,,,FF,,,,,,,,1.7394,,,,,,,,,,,,,,,,,,,,,,6102ec963d19b2600a047347,61036beec47011d51cdbae62,2021-07-29_23h03.47.956,Simcolourproject_2stim_asymm_v5,2020.2.10,MacIntel,60,61025ae37ef11b136ea224fe,,,,,,,,,1958,-47.0390625,-80.78515625,1,0,0,response5disk,,3,-0.51953125,3.7265625,1,0,0,rectangle,-0.51953125,3.7265625,1,0,0,,,,,,,-0.51953125,3.7265625,1,0,0,,1,25,185,156,1,
,,,,,,,,,,,,,FF,,,,,,,,0.704,,,,,,,,,,,,,,,,,,,,,,6102ec963d19b2600a047347,61036beec47011d51cdbae62,2021-07-29_23h03.47.956,Simcolourproject_2stim_asymm_v5,2020.2.10,MacIntel,60,61025ae37ef11b136ea224fe,,,,,,,,,3270,34.55078125,67.7578125,1,0,0,response1disk,,7,18.3125,13.859375,1,0,0,rectangle,18.3125,13.859375,1,0,0,,,,,,,18.3125,13.859375,1,0,0,,1,26,186,40,1,
,,,,,,,,,,,,,FF,,,,,,,,0.551,,,,,,,,,,,,,,,,,,,,,,6102ec963d19b2600a047347,61036beec47011d51cdbae62,2021-07-29_23h03.47.956,Simcolourproject_2stim_asymm_v5,2020.2.10,MacIntel,60,61025ae37ef11b136ea224fe,,,,,,,,,3902,36.59375,61.01171875,1,0,0,response1disk,,7,10.94921875,-11.37109375,1,0,0,rectangle,10.94921875,-11.37109375,1,0,0,,,,,,,10.94921875,-11.37109375,1,0,0,,1,27,187,139,1,
,,,,,,,,,,,,,FF,,,,,,,,1.6876,,,,,,,,,,,,,,,,,,,,,,6102ec963d19b2600a047347,61036beec47011d51cdbae62,2021-07-29_23h03.47.956,Simcolourproject_2stim_asymm_v5,2020.2.10,MacIntel,60,61025ae37ef11b136ea224fe,,,,,,,,,1982,54.33203125,33.84765625,1,0,0,response1disk,,6,22.27734375,6.59375,1,0,0,rectangle,22.27734375,6.59375,1,0,0,,,,,,,22.27734375,6.59375,1,0,0,,1,28,188,141,1,
,,,,,,,,,,,,,FF,,,,,,,,1.0354,,,,,,,,,,,,,,,,,,,,,,6102ec963d19b2600a047347,61036beec47011d51cdbae62,2021-07-29_23h03.47.956,Simcolourproject_2stim_asymm_v5,2020.2.10,MacIntel,60,61025ae37ef11b136ea224fe,,,,,,,,,2037,65.1875,-38.4921875,1,0,0,response3disk,,5,10.5859375,-4.2109375,1,0,0,rectangle,10.5859375,-4.2109375,1,0,0,,,,,,,10.5859375,-4.2109375,1,0,0,,1,29,189,9,1,
,,,,,,,,,,,,,FF,,,,,,,,0.7016,,,,,,,,,,,,,,,,,,,,,,6102ec963d19b2600a047347,61036beec47011d51cdbae62,2021-07-29_23h03.47.956,Simcolourproject_2stim_asymm_v5,2020.2.10,MacIntel,60,61025ae37ef11b136ea224fe,,,,,,,,,2527,34.95703125,49.85546875,1,0,0,response1disk,,7,23.02734375,12.42578125,1,0,0,rectangle,23.02734375,12.42578125,1,0,0,,,,,,,23.02734375,12.42578125,1,0,0,,1,30,190,100,1,
,,,,,,,,,,,,,FF,,,,,,,,0.5513,,,,,,,,,,,,,,,,,,,,,,6102ec963d19b2600a047347,61036beec47011d51cdbae62,2021-07-29_23h03.47.956,Simcolourproject_2stim_asymm_v5,2020.2.10,MacIntel,60,61025ae37ef11b136ea224fe,,,,,,,,,4211,25.984375,49.046875,1,0,0,response1disk,,7,0.87890625,-2.89453125,1,0,0,rectangle,0.87890625,-2.89453125,1,0,0,,,,,,,0.87890625,-2.89453125,1,0,0,,1,31,191,22,1,
,,,,,,,,,,,,,FF,,,,,,,,1.272,,,,,,,,,,,,,,,,,,,,,,6102ec963d19b2600a047347,61036beec47011d51cdbae62,2021-07-29_23h03.47.956,Simcolourproject_2stim_asymm_v5,2020.2.10,MacIntel,60,61025ae37ef11b136ea224fe,,,,,,,,,356,83.50390625,-42.71875,1,0,0,response3disk,,5,8.95703125,-8.98046875,1,0,0,rectangle,8.95703125,-8.98046875,1,0,0,,,,,,,8.95703125,-8.98046875,1,0,0,,1,32,192,154,1,
,,,,,,,,,,,,,FF,,,,,,,,0.6504,,,,,,,,,,,,,,,,,,,,,,6102ec963d19b2600a047347,61036beec47011d51cdbae62,2021-07-29_23h03.47.956,Simcolourproject_2stim_asymm_v5,2020.2.10,MacIntel,60,61025ae37ef11b136ea224fe,,,,,,,,,1549,32.6953125,55.15234375,1,0,0,response1disk,,7,2.20703125,-10.296875,1,0,0,rectangle,2.20703125,-10.296875,1,0,0,,,,,,,2.20703125,-10.296875,1,0,0,,1,33,193,53,1,
,,,,,,,,,,,,,FF,,,,,,,,0.517,,,,,,,,,,,,,,,,,,,,,,6102ec963d19b2600a047347,61036beec47011d51cdbae62,2021-07-29_23h03.47.956,Simcolourproject_2stim_asymm_v5,2020.2.10,MacIntel,60,61025ae37ef11b136ea224fe,,,,,,,,,962,26.1015625,48.24609375,1,0,0,response1disk,,7,-3.58984375,-10.76171875,1,0,0,rectangle,-3.58984375,-10.76171875,1,0,0,,,,,,,-3.58984375,-10.76171875,1,0,0,,1,34,194,133,1,
,,,,,,,,,,,,,FF,,,,,,,,0.9363,,,,,,,,,,,,,,,,,,,,,,6102ec963d19b2600a047347,61036beec47011d51cdbae62,2021-07-29_23h03.47.956,Simcolourproject_2stim_asymm_v5,2020.2.10,MacIntel,60,61025ae37ef11b136ea224fe,,,,,,,,,3189,44.5546875,-37.203125,1,0,0,response3disk,,5,8.625,1.92578125,1,0,0,rectangle,8.625,1.92578125,1,0,0,,,,,,,8.625,1.92578125,1,0,0,,1,35,195,64,1,
,,,,,,,,,,,,,FF,,,,,,,,0.7859,,,,,,,,,,,,,,,,,,,,,,6102ec963d19b2600a047347,61036beec47011d51cdbae62,2021-07-29_23h03.47.956,Simcolourproject_2stim_asymm_v5,2020.2.10,MacIntel,60,61025ae37ef11b136ea224fe,,,,,,,,,1130,43.8515625,76.8515625,1,0,0,response1disk,,7,14.69140625,6.29296875,1,0,0,rectangle,14.69140625,6.29296875,1,0,0,,,,,,,14.69140625,6.29296875,1,0,0,,1,36,196,114,1,
,,,,,,,,,,,,,FF,,,,,,,,0.6339,,,,,,,,,,,,,,,,,,,,,,6102ec963d19b2600a047347,61036beec47011d51cdbae62,2021-07-29_23h03.47.956,Simcolourproject_2stim_asymm_v5,2020.2.10,MacIntel,60,61025ae37ef11b136ea224fe,,,,,,,,,2123,25.9296875,39.96484375,1,0,0,response1disk,,7,12.0859375,1.66015625,1,0,0,rectangle,12.0859375,1.66015625,1,0,0,,,,,,,12.0859375,1.66015625,1,0,0,,1,37,197,67,1,
,,,,,,,,,,,,,FF,,,,,,,,0.4678,,,,,,,,,,,,,,,,,,,,,,6102ec963d19b2600a047347,61036beec47011d51cdbae62,2021-07-29_23h03.47.956,Simcolourproject_2stim_asymm_v5,2020.2.10,MacIntel,60,61025ae37ef11b136ea224fe,,,,,,,,,2272,26.59375,48.7109375,1,0,0,response1disk,,7,-0.66796875,-17.2421875,1,0,0,rectangle,-0.66796875,-17.2421875,1,0,0,,,,,,,-0.66796875,-17.2421875,1,0,0,,1,38,198,80,1,
,,,,,,,,,,,,,FF,,,,,,,,0.8531,,,,,,,,,,,,,,,,,,,,,,6102ec963d19b2600a047347,61036beec47011d51cdbae62,2021-07-29_23h03.47.956,Simcolourproject_2stim_asymm_v5,2020.2.10,MacIntel,60,61025ae37ef11b136ea224fe,,,,,,,,,2130,31.81640625,60.8828125,1,0,0,response1disk,,7,2.6171875,-1.35546875,1,0,0,rectangle,-79.17578125,-35.37109375,1,0,0,response5disk_3,TRUE,2,2,"[1,218,175,201,139,15,200,162,232,273,43,71,185,229,162,88,98,271,264,115]",1.8034,6.125,8.97265625,1,0,0,rectangle,1,39,199,123,1,
,,,,,,,,,,,,,FF,,,,,,,,1.5706,,,,,,,,,,,,,,,,,,,,,,6102ec963d19b2600a047347,61036beec47011d51cdbae62,2021-07-29_23h03.47.956,Simcolourproject_2stim_asymm_v5,2020.2.10,MacIntel,60,61025ae37ef11b136ea224fe,,,,,,,,,132,32.3203125,59.4296875,1,0,0,response1disk,,7,24.87890625,12.93359375,1,0,0,rectangle,34.34765625,70.125,1,0,0,response1disk_3,TRUE,7,7,"[1,218,175,201,139,15,200,162,232,273,43,71,185,229,162,88,98,271,264,115]",1.2867,7.8515625,-2.4375,1,0,0,rectangle,1,40,200,16,1,
,,,,,,,,,,,,,FF,,,,,,,,1.9404,,,,,,,,,,,,,,,,,,,,,,6102ec963d19b2600a047347,61036beec47011d51cdbae62,2021-07-29_23h03.47.956,Simcolourproject_2stim_asymm_v5,2020.2.10,MacIntel,60,61025ae37ef11b136ea224fe,,,,,,,,,3504,-69.10546875,-31.734375,1,0,0,response5disk,,2,-0.40625,1.83984375,1,0,0,rectangle,-0.40625,1.83984375,1,0,0,,,,,,,-0.40625,1.83984375,1,0,0,,1,41,201,127,1,
,,,,,,,,,,,,,FF,,,,,,,,0.8357,,,,,,,,,,,,,,,,,,,,,,6102ec963d19b2600a047347,61036beec47011d51cdbae62,2021-07-29_23h03.47.956,Simcolourproject_2stim_asymm_v5,2020.2.10,MacIntel,60,61025ae37ef11b136ea224fe,,,,,,,,,1962,-39.59765625,-75.74609375,1,0,0,response5disk,,3,-2.03515625,0.3125,1,0,0,rectangle,-2.03515625,0.3125,1,0,0,,,,,,,-2.03515625,0.3125,1,0,0,,1,42,202,1,1,
,,,,,,,,,,,,,FF,,,,,,,,1.7546,,,,,,,,,,,,,,,,,,,,,,6102ec963d19b2600a047347,61036beec47011d51cdbae62,2021-07-29_23h03.47.956,Simcolourproject_2stim_asymm_v5,2020.2.10,MacIntel,60,61025ae37ef11b136ea224fe,,,,,,,,,143,63.6640625,26.91015625,1,0,0,response1disk,,6,-3.5703125,-3.6171875,1,0,0,rectangle,-3.5703125,-3.6171875,1,0,0,,,,,,,-3.5703125,-3.6171875,1,0,0,,1,43,203,81,1,
,,,,,,,,,,,,,FF,,,,,,,,0.7695,,,,,,,,,,,,,,,,,,,,,,6102ec963d19b2600a047347,61036beec47011d51cdbae62,2021-07-29_23h03.47.956,Simcolourproject_2stim_asymm_v5,2020.2.10,MacIntel,60,61025ae37ef11b136ea224fe,,,,,,,,,2290,45.2421875,71.5625,1,0,0,response1disk,,7,23.39453125,17.890625,1,0,0,rectangle,23.39453125,17.890625,1,0,0,,,,,,,23.39453125,17.890625,1,0,0,,1,44,204,15,1,
,,,,,,,,,,,,,FF,,,,,,,,0.5854,,,,,,,,,,,,,,,,,,,,,,6102ec963d19b2600a047347,61036beec47011d51cdbae62,2021-07-29_23h03.47.956,Simcolourproject_2stim_asymm_v5,2020.2.10,MacIntel,60,61025ae37ef11b136ea224fe,,,,,,,,,2324,29.98828125,53.1875,1,0,0,response1disk,,7,17.97265625,4.19140625,1,0,0,rectangle,17.97265625,4.19140625,1,0,0,,,,,,,17.97265625,4.19140625,1,0,0,,1,45,205,11,1,
,,,,,,,,,,,,,FF,,,,,,,,0.8027,,,,,,,,,,,,,,,,,,,,,,6102ec963d19b2600a047347,61036beec47011d51cdbae62,2021-07-29_23h03.47.956,Simcolourproject_2stim_asymm_v5,2020.2.10,MacIntel,60,61025ae37ef11b136ea224fe,,,,,,,,,1596,-71.9921875,27.3828125,1,0,0,response7disk,,1,-3.515625,-10.62109375,1,0,0,rectangle,-3.515625,-10.62109375,1,0,0,,,,,,,-3.515625,-10.62109375,1,0,0,,1,46,206,76,1,
,,,,,,,,,,,,,FF,,,,,,,,1.2708,,,,,,,,,,,,,,,,,,,,,,6102ec963d19b2600a047347,61036beec47011d51cdbae62,2021-07-29_23h03.47.956,Simcolourproject_2stim_asymm_v5,2020.2.10,MacIntel,60,61025ae37ef11b136ea224fe,,,,,,,,,481,64.63671875,33.4609375,1,0,0,response1disk,,6,5.48828125,-12.48046875,1,0,0,rectangle,5.48828125,-12.48046875,1,0,0,,,,,,,5.48828125,-12.48046875,1,0,0,,1,47,207,37,1,
,,,,,,,,,,,,,FF,,,,,,,,0.6517,,,,,,,,,,,,,,,,,,,,,,6102ec963d19b2600a047347,61036beec47011d51cdbae62,2021-07-29_23h03.47.956,Simcolourproject_2stim_asymm_v5,2020.2.10,MacIntel,60,61025ae37ef11b136ea224fe,,,,,,,,,3580,37.0234375,52.4140625,1,0,0,response1disk,,7,10.7265625,-10.4609375,1,0,0,rectangle,10.7265625,-10.4609375,1,0,0,,,,,,,10.7265625,-10.4609375,1,0,0,,1,48,208,47,1,
,,,,,,,,,,,,,FF,,,,,,,,1.0885,,,,,,,,,,,,,,,,,,,,,,6102ec963d19b2600a047347,61036beec47011d51cdbae62,2021-07-29_23h03.47.956,Simcolourproject_2stim_asymm_v5,2020.2.10,MacIntel,60,61025ae37ef11b136ea224fe,,,,,,,,,3107,36.7734375,-78.75,1,0,0,response3disk,,4,-4.2890625,-2.2578125,1,0,0,rectangle,-4.2890625,-2.2578125,1,0,0,,,,,,,-4.2890625,-2.2578125,1,0,0,,1,49,209,104,1,
,,,,,,,,,,,,,FF,,,,,,,,1.1718,,,,,,,,,,,,,,,,,,,,,,6102ec963d19b2600a047347,61036beec47011d51cdbae62,2021-07-29_23h03.47.956,Simcolourproject_2stim_asymm_v5,2020.2.10,MacIntel,60,61025ae37ef11b136ea224fe,,,,,,,,,544,79.0078125,-33.61328125,1,0,0,response3disk,,5,17.390625,-6.7578125,1,0,0,rectangle,17.390625,-6.7578125,1,0,0,,,,,,,17.390625,-6.7578125,1,0,0,,1,50,210,140,1,
,,,,,,,,,,,,,FF,,,,,,,,1.1907,,,,,,,,,,,,,,,,,,,,,,6102ec963d19b2600a047347,61036beec47011d51cdbae62,2021-07-29_23h03.47.956,Simcolourproject_2stim_asymm_v5,2020.2.10,MacIntel,60,61025ae37ef11b136ea224fe,,,,,,,,,3514,-38.68359375,-79.96484375,1,0,0,response5disk,,3,5.51171875,4.54296875,1,0,0,rectangle,5.51171875,4.54296875,1,0,0,,,,,,,5.51171875,4.54296875,1,0,0,,1,51,211,117,1,
,,,,,,,,,,,,,FF,,,,,,,,0.653,,,,,,,,,,,,,,,,,,,,,,6102ec963d19b2600a047347,61036beec47011d51cdbae62,2021-07-29_23h03.47.956,Simcolourproject_2stim_asymm_v5,2020.2.10,MacIntel,60,61025ae37ef11b136ea224fe,,,,,,,,,2991,36.7734375,67.41015625,1,0,0,response1disk,,7,3.2265625,-7.7890625,1,0,0,rectangle,3.2265625,-7.7890625,1,0,0,,,,,,,3.2265625,-7.7890625,1,0,0,,1,52,212,19,1,
,,,,,,,,,,,,,FF,,,,,,,,0.5856,,,,,,,,,,,,,,,,,,,,,,6102ec963d19b2600a047347,61036beec47011d51cdbae62,2021-07-29_23h03.47.956,Simcolourproject_2stim_asymm_v5,2020.2.10,MacIntel,60,61025ae37ef11b136ea224fe,,,,,,,,,626,27.12890625,40.78515625,1,0,0,response1disk,,7,6.2421875,-8.09765625,1,0,0,rectangle,6.2421875,-8.09765625,1,0,0,,,,,,,6.2421875,-8.09765625,1,0,0,,1,53,213,33,1,
,,,,,,,,,,,,,FF,,,,,,,,0.7179,,,,,,,,,,,,,,,,,,,,,,6102ec963d19b2600a047347,61036beec47011d51cdbae62,2021-07-29_23h03.47.956,Simcolourproject_2stim_asymm_v5,2020.2.10,MacIntel,60,61025ae37ef11b136ea224fe,,,,,,,,,3340,71.84765625,-29.66015625,1,0,0,response3disk,,5,19.7265625,-12.4609375,1,0,0,rectangle,19.7265625,-12.4609375,1,0,0,,,,,,,19.7265625,-12.4609375,1,0,0,,1,54,214,21,1,
,,,,,,,,,,,,,FF,,,,,,,,0.9681,,,,,,,,,,,,,,,,,,,,,,6102ec963d19b2600a047347,61036beec47011d51cdbae62,2021-07-29_23h03.47.956,Simcolourproject_2stim_asymm_v5,2020.2.10,MacIntel,60,61025ae37ef11b136ea224fe,,,,,,,,,403,65.328125,32.3515625,1,0,0,response1disk,,6,25.16796875,15.65234375,1,0,0,rectangle,25.16796875,15.65234375,1,0,0,,,,,,,25.16796875,15.65234375,1,0,0,,1,55,215,89,1,
,,,,,,,,,,,,,FF,,,,,,,,0.5689,,,,,,,,,,,,,,,,,,,,,,6102ec963d19b2600a047347,61036beec47011d51cdbae62,2021-07-29_23h03.47.956,Simcolourproject_2stim_asymm_v5,2020.2.10,MacIntel,60,61025ae37ef11b136ea224fe,,,,,,,,,2510,29.9375,63.515625,1,0,0,response1disk,,7,-1.09765625,0.25390625,1,0,0,rectangle,-1.09765625,0.25390625,1,0,0,,,,,,,-1.09765625,0.25390625,1,0,0,,1,56,216,58,1,
,,,,,,,,,,,,,FF,,,,,,,,1.3359,,,,,,,,,,,,,,,,,,,,,,6102ec963d19b2600a047347,61036beec47011d51cdbae62,2021-07-29_23h03.47.956,Simcolourproject_2stim_asymm_v5,2020.2.10,MacIntel,60,61025ae37ef11b136ea224fe,,,,,,,,,1816,-23.61328125,-74.16796875,1,0,0,response5disk,,3,-11.9296875,-3.3203125,1,0,0,rectangle,66.51171875,40.453125,1,0,0,response1disk_3,TRUE,6,6,"[1,218,175,201,139,15,200,162,232,273,43,71,185,229,162,88,98,271,264,115]",1.6535,23.171875,-2.2578125,1,0,0,rectangle,1,57,217,105,1,
,,,,,,,,,,,,,FF,,,,,,,,0.9516,,,,,,,,,,,,,,,,,,,,,,6102ec963d19b2600a047347,61036beec47011d51cdbae62,2021-07-29_23h03.47.956,Simcolourproject_2stim_asymm_v5,2020.2.10,MacIntel,60,61025ae37ef11b136ea224fe,,,,,,,,,3179,27.4140625,42.32421875,1,0,0,response1disk,,7,10.58984375,-17.171875,1,0,0,rectangle,10.58984375,-17.171875,1,0,0,,,,,,,10.58984375,-17.171875,1,0,0,,1,58,218,125,1,
,,,,,,,,,,,,,FF,,,,,,,,1.3192,,,,,,,,,,,,,,,,,,,,,,6102ec963d19b2600a047347,61036beec47011d51cdbae62,2021-07-29_23h03.47.956,Simcolourproject_2stim_asymm_v5,2020.2.10,MacIntel,60,61025ae37ef11b136ea224fe,,,,,,,,,3243,-79.9921875,-53.55078125,1,0,0,response5disk,,2,-13.91015625,-8.65625,1,0,0,rectangle,-13.91015625,-8.65625,1,0,0,,,,,,,-13.91015625,-8.65625,1,0,0,,1,59,219,145,1,
,,,,,,,,,,,,,FF,,,,,,,,1.1874,,,,,,,,,,,,,,,,,,,,,,6102ec963d19b2600a047347,61036beec47011d51cdbae62,2021-07-29_23h03.47.956,Simcolourproject_2stim_asymm_v5,2020.2.10,MacIntel,60,61025ae37ef11b136ea224fe,,,,,,,,,464,69.015625,38.89453125,1,0,0,response1disk,,6,9.83984375,7.1953125,1,0,0,rectangle,9.83984375,7.1953125,1,0,0,,,,,,,9.83984375,7.1953125,1,0,0,,1,60,220,128,1,
,,,,,,,,,,,,,FF,,,,,,,,2.4249,,,,,,,,,,,,,,,,,,,,,,6102ec963d19b2600a047347,61036beec47011d51cdbae62,2021-07-29_23h03.47.956,Simcolourproject_2stim_asymm_v5,2020.2.10,MacIntel,60,61025ae37ef11b136ea224fe,,,,,,,,,2871,27.4921875,44.4296875,1,0,0,response1disk,,7,12.8984375,-2.45703125,1,0,0,rectangle,12.8984375,-2.45703125,1,0,0,,,,,,,12.8984375,-2.45703125,1,0,0,,1,61,221,74,1,
,,,,,,,,,,,,,FF,,,,,,,,0.9194,,,,,,,,,,,,,,,,,,,,,,6102ec963d19b2600a047347,61036beec47011d51cdbae62,2021-07-29_23h03.47.956,Simcolourproject_2stim_asymm_v5,2020.2.10,MacIntel,60,61025ae37ef11b136ea224fe,,,,,,,,,2453,33.41796875,54.93359375,1,0,0,response1disk,,7,17.39453125,8.765625,1,0,0,rectangle,17.39453125,8.765625,1,0,0,,,,,,,17.39453125,8.765625,1,0,0,,1,62,222,29,1,
,,,,,,,,,,,,,FF,,,,,,,,0.4353,,,,,,,,,,,,,,,,,,,,,,6102ec963d19b2600a047347,61036beec47011d51cdbae62,2021-07-29_23h03.47.956,Simcolourproject_2stim_asymm_v5,2020.2.10,MacIntel,60,61025ae37ef11b136ea224fe,,,,,,,,,2916,31.88671875,58.1953125,1,0,0,response1disk,,7,11.57421875,-0.5,1,0,0,rectangle,11.57421875,-0.5,1,0,0,,,,,,,11.57421875,-0.5,1,0,0,,1,63,223,119,1,
,,,,,,,,,,,,,FF,,,,,,,,0.5036,,,,,,,,,,,,,,,,,,,,,,6102ec963d19b2600a047347,61036beec47011d51cdbae62,2021-07-29_23h03.47.956,Simcolourproject_2stim_asymm_v5,2020.2.10,MacIntel,60,61025ae37ef11b136ea224fe,,,,,,,,,294,24.6484375,39.73828125,1,0,0,response1disk,,7,12.12890625,0.66796875,1,0,0,rectangle,12.12890625,0.66796875,1,0,0,,,,,,,12.12890625,0.66796875,1,0,0,,1,64,224,129,1,
,,,,,,,,,,,,,FF,,,,,,,,1.4711,,,,,,,,,,,,,,,,,,,,,,6102ec963d19b2600a047347,61036beec47011d51cdbae62,2021-07-29_23h03.47.956,Simcolourproject_2stim_asymm_v5,2020.2.10,MacIntel,60,61025ae37ef11b136ea224fe,,,,,,,,,1274,42.640625,-81.4375,1,0,0,response3disk,,4,11.17578125,4.5625,1,0,0,rectangle,11.17578125,4.5625,1,0,0,,,,,,,11.17578125,4.5625,1,0,0,,1,65,225,93,1,
,,,,,,,,,,,,,FF,,,,,,,,0.5019,,,,,,,,,,,,,,,,,,,,,,6102ec963d19b2600a047347,61036beec47011d51cdbae62,2021-07-29_23h03.47.956,Simcolourproject_2stim_asymm_v5,2020.2.10,MacIntel,60,61025ae37ef11b136ea224fe,,,,,,,,,2023,25.0546875,50.1875,1,0,0,response1disk,,7,1.7578125,3.49609375,1,0,0,rectangle,1.7578125,3.49609375,1,0,0,,,,,,,1.7578125,3.49609375,1,0,0,,1,66,226,107,1,
,,,,,,,,,,,,,FF,,,,,,,,0.417,,,,,,,,,,,,,,,,,,,,,,6102ec963d19b2600a047347,61036beec47011d51cdbae62,2021-07-29_23h03.47.956,Simcolourproject_2stim_asymm_v5,2020.2.10,MacIntel,60,61025ae37ef11b136ea224fe,,,,,,,,,540,28.39453125,41.40234375,1,0,0,response1disk,,7,1.609375,-4.640625,1,0,0,rectangle,1.609375,-4.640625,1,0,0,,,,,,,1.609375,-4.640625,1,0,0,,1,67,227,97,1,
,,,,,,,,,,,,,FF,,,,,,,,0.4016,,,,,,,,,,,,,,,,,,,,,,6102ec963d19b2600a047347,61036beec47011d51cdbae62,2021-07-29_23h03.47.956,Simcolourproject_2stim_asymm_v5,2020.2.10,MacIntel,60,61025ae37ef11b136ea224fe,,,,,,,,,4115,26.21484375,50.77734375,1,0,0,response1disk,,7,-0.78515625,-6.28125,1,0,0,rectangle,-76.13671875,36.6328125,1,0,0,response7disk_3,TRUE,1,1,"[1,218,175,201,139,15,200,162,232,273,43,71,185,229,162,88,98,271,264,115]",1.3875,-5.734375,6.375,1,0,0,rectangle,1,68,228,142,1,
,,,,,,,,,,,,,FF,,,,,,,,1.1872,,,,,,,,,,,,,,,,,,,,,,6102ec963d19b2600a047347,61036beec47011d51cdbae62,2021-07-29_23h03.47.956,Simcolourproject_2stim_asymm_v5,2020.2.10,MacIntel,60,61025ae37ef11b136ea224fe,,,,,,,,,3862,78.0625,-28.22265625,1,0,0,response3disk,,5,5.37109375,0.44140625,1,0,0,rectangle,5.37109375,0.44140625,1,0,0,,,,,,,5.37109375,0.44140625,1,0,0,,1,69,229,120,1,
,,,,,,,,,,,,,FF,,,,,,,,0.8515,,,,,,,,,,,,,,,,,,,,,,6102ec963d19b2600a047347,61036beec47011d51cdbae62,2021-07-29_23h03.47.956,Simcolourproject_2stim_asymm_v5,2020.2.10,MacIntel,60,61025ae37ef11b136ea224fe,,,,,,,,,135,76.96484375,41.30859375,1,0,0,response1disk,,6,16.62890625,8.34375,1,0,0,rectangle,16.62890625,8.34375,1,0,0,,,,,,,16.62890625,8.34375,1,0,0,,1,70,230,42,1,
,,,,,,,,,,,,,FF,,,,,,,,0.9701,,,,,,,,,,,,,,,,,,,,,,6102ec963d19b2600a047347,61036beec47011d51cdbae62,2021-07-29_23h03.47.956,Simcolourproject_2stim_asymm_v5,2020.2.10,MacIntel,60,61025ae37ef11b136ea224fe,,,,,,,,,2677,69.734375,-18.9765625,1,0,0,response3disk,,5,21.0078125,-11.05078125,1,0,0,rectangle,-47.34375,-85.39453125,1,0,0,response5disk_3,TRUE,3,3,"[1,218,175,201,139,15,200,162,232,273,43,71,185,229,162,88,98,271,264,115]",1.9537,-14.83203125,-1.72265625,1,0,0,rectangle,1,71,231,103,1,
,,,,,,,,,,,,,FF,,,,,,,,0.8858,,,,,,,,,,,,,,,,,,,,,,6102ec963d19b2600a047347,61036beec47011d51cdbae62,2021-07-29_23h03.47.956,Simcolourproject_2stim_asymm_v5,2020.2.10,MacIntel,60,61025ae37ef11b136ea224fe,,,,,,,,,1548,58.37109375,24.71484375,1,0,0,response1disk,,6,-2.5234375,-17.55078125,1,0,0,rectangle,-2.5234375,-17.55078125,1,0,0,,,,,,,-2.5234375,-17.55078125,1,0,0,,1,72,232,59,1,
,,,,,,,,,,,,,FF,,,,,,,,1.2368,,,,,,,,,,,,,,,,,,,,,,6102ec963d19b2600a047347,61036beec47011d51cdbae62,2021-07-29_23h03.47.956,Simcolourproject_2stim_asymm_v5,2020.2.10,MacIntel,60,61025ae37ef11b136ea224fe,,,,,,,,,1969,68.38671875,-24.7265625,1,0,0,response3disk,,5,7.98046875,-12.953125,1,0,0,rectangle,7.98046875,-12.953125,1,0,0,,,,,,,7.98046875,-12.953125,1,0,0,,1,73,233,136,1,
,,,,,,,,,,,,,FF,,,,,,,,0.9007,,,,,,,,,,,,,,,,,,,,,,6102ec963d19b2600a047347,61036beec47011d51cdbae62,2021-07-29_23h03.47.956,Simcolourproject_2stim_asymm_v5,2020.2.10,MacIntel,60,61025ae37ef11b136ea224fe,,,,,,,,,3975,55.53515625,-27.27734375,1,0,0,response3disk,,5,4.08984375,-6.2265625,1,0,0,rectangle,4.08984375,-6.2265625,1,0,0,,,,,,,4.08984375,-6.2265625,1,0,0,,1,74,234,52,1,
,,,,,,,,,,,,,FF,,,,,,,,0.6016,,,,,,,,,,,,,,,,,,,,,,6102ec963d19b2600a047347,61036beec47011d51cdbae62,2021-07-29_23h03.47.956,Simcolourproject_2stim_asymm_v5,2020.2.10,MacIntel,60,61025ae37ef11b136ea224fe,,,,,,,,,2850,24.73046875,55.28515625,1,0,0,response1disk,,7,12.328125,9.80078125,1,0,0,rectangle,12.328125,9.80078125,1,0,0,,,,,,,12.328125,9.80078125,1,0,0,,1,75,235,26,1,
,,,,,,,,,,,,,FF,,,,,,,,1.2022,,,,,,,,,,,,,,,,,,,,,,6102ec963d19b2600a047347,61036beec47011d51cdbae62,2021-07-29_23h03.47.956,Simcolourproject_2stim_asymm_v5,2020.2.10,MacIntel,60,61025ae37ef11b136ea224fe,,,,,,,,,2283,69.08984375,-29.89453125,1,0,0,response3disk,,5,23.60546875,-11.171875,1,0,0,rectangle,23.60546875,-11.171875,1,0,0,,,,,,,23.60546875,-11.171875,1,0,0,,1,76,236,25,1,
,,,,,,,,,,,,,FF,,,,,,,,1.0532,,,,,,,,,,,,,,,,,,,,,,6102ec963d19b2600a047347,61036beec47011d51cdbae62,2021-07-29_23h03.47.956,Simcolourproject_2stim_asymm_v5,2020.2.10,MacIntel,60,61025ae37ef11b136ea224fe,,,,,,,,,3821,31.25390625,-65.3515625,1,0,0,response3disk,,4,4.28125,-1.875,1,0,0,rectangle,4.28125,-1.875,1,0,0,,,,,,,4.28125,-1.875,1,0,0,,1,77,237,27,1,
,,,,,,,,,,,,,FF,,,,,,,,0.5516,,,,,,,,,,,,,,,,,,,,,,6102ec963d19b2600a047347,61036beec47011d51cdbae62,2021-07-29_23h03.47.956,Simcolourproject_2stim_asymm_v5,2020.2.10,MacIntel,60,61025ae37ef11b136ea224fe,,,,,,,,,217,30.984375,46.86328125,1,0,0,response1disk,,7,23.8515625,10.29296875,1,0,0,rectangle,23.8515625,10.29296875,1,0,0,,,,,,,23.8515625,10.29296875,1,0,0,,1,78,238,158,1,
,,,,,,,,,,,,,FF,,,,,,,,0.4996,,,,,,,,,,,,,,,,,,,,,,6102ec963d19b2600a047347,61036beec47011d51cdbae62,2021-07-29_23h03.47.956,Simcolourproject_2stim_asymm_v5,2020.2.10,MacIntel,60,61025ae37ef11b136ea224fe,,,,,,,,,149,20.94921875,43.07421875,1,0,0,response1disk,,7,10.09375,-3.58203125,1,0,0,rectangle,10.09375,-3.58203125,1,0,0,,,,,,,10.09375,-3.58203125,1,0,0,,1,79,239,150,1,
,,,,,,,,,,,,,FF,,,,,,,,0.4514,,,,,,,,,,,,,,,,,,,,,,6102ec963d19b2600a047347,61036beec47011d51cdbae62,2021-07-29_23h03.47.956,Simcolourproject_2stim_asymm_v5,2020.2.10,MacIntel,60,61025ae37ef11b136ea224fe,,,,,,,,,4110,29.2734375,44.44921875,1,0,0,response1disk,,7,21.96875,4.10546875,1,0,0,rectangle,21.96875,4.10546875,1,0,0,,,,,,,21.96875,4.10546875,1,0,0,,1,80,240,14,1,
,,,,,,,,,,,,,FF,,,,,,,,0.3832,,,,,,,,,,,,,,,,,,,,,,6102ec963d19b2600a047347,61036beec47011d51cdbae62,2021-07-29_23h03.47.956,Simcolourproject_2stim_asymm_v5,2020.2.10,MacIntel,60,61025ae37ef11b136ea224fe,,,,,,,,,3412,31.60546875,46.1015625,1,0,0,response1disk,,7,16.63671875,-9.90625,1,0,0,rectangle,16.63671875,-9.90625,1,0,0,,,,,,,16.63671875,-9.90625,1,0,0,,1,81,241,45,1,
,,,,,,,,,,,,,FF,,,,,,,,0.7166,,,,,,,,,,,,,,,,,,,,,,6102ec963d19b2600a047347,61036beec47011d51cdbae62,2021-07-29_23h03.47.956,Simcolourproject_2stim_asymm_v5,2020.2.10,MacIntel,60,61025ae37ef11b136ea224fe,,,,,,,,,1552,27.125,71.00390625,1,0,0,response1disk,,7,6.7265625,2.08203125,1,0,0,rectangle,6.7265625,2.08203125,1,0,0,,,,,,,6.7265625,2.08203125,1,0,0,,1,82,242,50,1,
,,,,,,,,,,,,,FF,,,,,,,,0.869,,,,,,,,,,,,,,,,,,,,,,6102ec963d19b2600a047347,61036beec47011d51cdbae62,2021-07-29_23h03.47.956,Simcolourproject_2stim_asymm_v5,2020.2.10,MacIntel,60,61025ae37ef11b136ea224fe,,,,,,,,,2148,70.78515625,20.8203125,1,0,0,response1disk,,6,18.890625,6.90625,1,0,0,rectangle,18.890625,6.90625,1,0,0,,,,,,,18.890625,6.90625,1,0,0,,1,83,243,48,1,
,,,,,,,,,,,,,FF,,,,,,,,0.9014,,,,,,,,,,,,,,,,,,,,,,6102ec963d19b2600a047347,61036beec47011d51cdbae62,2021-07-29_23h03.47.956,Simcolourproject_2stim_asymm_v5,2020.2.10,MacIntel,60,61025ae37ef11b136ea224fe,,,,,,,,,4240,77.37109375,-37.3125,1,0,0,response3disk,,5,8,-2.3515625,1,0,0,rectangle,8,-2.3515625,1,0,0,,,,,,,8,-2.3515625,1,0,0,,1,84,244,84,1,
,,,,,,,,,,,,,FF,,,,,,,,1.0019,,,,,,,,,,,,,,,,,,,,,,6102ec963d19b2600a047347,61036beec47011d51cdbae62,2021-07-29_23h03.47.956,Simcolourproject_2stim_asymm_v5,2020.2.10,MacIntel,60,61025ae37ef11b136ea224fe,,,,,,,,,509,25.265625,52.11328125,1,0,0,response1disk,,7,14.18359375,-14.5234375,1,0,0,rectangle,14.18359375,-14.5234375,1,0,0,,,,,,,14.18359375,-14.5234375,1,0,0,,1,85,245,106,1,
,,,,,,,,,,,,,FF,,,,,,,,0.5017,,,,,,,,,,,,,,,,,,,,,,6102ec963d19b2600a047347,61036beec47011d51cdbae62,2021-07-29_23h03.47.956,Simcolourproject_2stim_asymm_v5,2020.2.10,MacIntel,60,61025ae37ef11b136ea224fe,,,,,,,,,1406,29.7890625,43.54296875,1,0,0,response1disk,,7,3.19140625,-4.32421875,1,0,0,rectangle,3.19140625,-4.32421875,1,0,0,,,,,,,3.19140625,-4.32421875,1,0,0,,1,86,246,157,1,
,,,,,,,,,,,,,FF,,,,,,,,0.7701,,,,,,,,,,,,,,,,,,,,,,6102ec963d19b2600a047347,61036beec47011d51cdbae62,2021-07-29_23h03.47.956,Simcolourproject_2stim_asymm_v5,2020.2.10,MacIntel,60,61025ae37ef11b136ea224fe,,,,,,,,,1663,72.71484375,23.875,1,0,0,response1disk,,6,6.60546875,-16.640625,1,0,0,rectangle,6.60546875,-16.640625,1,0,0,,,,,,,6.60546875,-16.640625,1,0,0,,1,87,247,134,1,
,,,,,,,,,,,,,FF,,,,,,,,1.1356,,,,,,,,,,,,,,,,,,,,,,6102ec963d19b2600a047347,61036beec47011d51cdbae62,2021-07-29_23h03.47.956,Simcolourproject_2stim_asymm_v5,2020.2.10,MacIntel,60,61025ae37ef11b136ea224fe,,,,,,,,,696,66.47265625,-39.82421875,1,0,0,response3disk,,5,16.01171875,-11.3671875,1,0,0,rectangle,16.01171875,-11.3671875,1,0,0,,,,,,,16.01171875,-11.3671875,1,0,0,,1,88,248,101,1,
