key_resp.keys,key_resp.rt,key_resp_14.keys,key_resp_14.rt,key_resp_15.keys,key_resp_15.rt,key_resp_17.keys,key_resp_17.rt,key_resp_9.keys,key_resp_9.rt,key_resp_10.keys,key_resp_10.rt,practice_comparison,Ecc,mouse_5.x,mouse_5.y,mouse_5.leftButton,mouse_5.midButton,mouse_5.rightButton,mouse_5.clicked_name,pracsimilarity,response_time,mouse_10.x,mouse_10.y,mouse_10.leftButton,mouse_10.midButton,mouse_10.rightButton,mouse_10.clicked_name,mouse_7.x,mouse_7.y,mouse_7.leftButton,mouse_7.midButton,mouse_7.rightButton,mouse_6.x,mouse_6.y,mouse_6.leftButton,mouse_6.midButton,mouse_6.rightButton,duringprac.thisRepN,duringprac.thisTrialN,duringprac.thisN,duringprac.thisIndex,duringprac.ran,participant,session,date,expName,psychopyVersion,OS,frameRate,study_id,mouse_7.clicked_name,catchpracsimilarity,catch_response_time,catchnumberprac,catchtrialorderprac,mouse_6.clicked_name,key_resp_22.keys,key_resp_22.rt,realcomparison,mouse.x,mouse.y,mouse.leftButton,mouse.midButton,mouse.rightButton,mouse.clicked_name,Colour2,similarity,mouse_2.x,mouse_2.y,mouse_2.leftButton,mouse_2.midButton,mouse_2.rightButton,mouse_2.clicked_name,mouse_3.x,mouse_3.y,mouse_3.leftButton,mouse_3.midButton,mouse_3.rightButton,mouse_11.x,mouse_11.y,mouse_11.leftButton,mouse_11.midButton,mouse_11.rightButton,trials_2.thisRepN,trials_2.thisTrialN,trials_2.thisN,trials_2.thisIndex,trials_2.ran,Colour1,mouse_3.clicked_name,catchornah,catchsimilarity,catchnumber,catchtrialorder,catchRT,mouse_11.clicked_name
space,0.7085,space,5.4229,space,8.4885,space,1.6749,space,0.7517,space,3.5497,119,PF,-68.40594482,-48.69497681,1,0,0,response5disk_5,2,5.6867,4.718505859,-7.284912109,1,0,0,rectangle_8,4.718505859,-7.284912109,1,0,0,4.718505859,-7.284912109,1,0,0,0,0,0,6,1,6102126f393f8990e53d37e6,61036c7aa2ad00f34ebc7388,2021-07-29_22h05.56.675,Simcolourproject_2stim_asymm_v5,2020.2.10,MacIntel,60,61025ae37ef11b136ea224fe,,,,,,,,,,,,,,,,,,,,,,,,,,,,,,,,,,,,,,,,,,,,,,
,,,,,,,,,,,,20,PF,42.47814941,89.18447876,1,0,0,response1disk_5,7,3.3997,-6.874633789,-9.941711426,1,0,0,rectangle_8,-90.64508057,-56.72903442,1,0,0,5.099609375,-7.314910889,1,0,0,0,1,1,1,1,6102126f393f8990e53d37e6,61036c7aa2ad00f34ebc7388,2021-07-29_22h05.56.675,Simcolourproject_2stim_asymm_v5,2020.2.10,MacIntel,60,61025ae37ef11b136ea224fe,response5disk_7,2,4.0345,2,"[2,5]",rectangle_4,,,,,,,,,,,,,,,,,,,,,,,,,,,,,,,,,,,,,,,,
,,,,,,,,,,,,156,FF,-47.9473877,-104.5355225,1,0,0,response5disk_5,3,4.0176,-3.578979492,15.79507446,1,0,0,rectangle_8,-3.578979492,15.79507446,1,0,0,-3.578979492,15.79507446,1,0,0,0,2,2,3,1,6102126f393f8990e53d37e6,61036c7aa2ad00f34ebc7388,2021-07-29_22h05.56.675,Simcolourproject_2stim_asymm_v5,2020.2.10,MacIntel,60,61025ae37ef11b136ea224fe,,,,,,,,,,,,,,,,,,,,,,,,,,,,,,,,,,,,,,,,,,,,,,
,,,,,,,,,,,,20,PF,41.34790039,93.02801514,1,0,0,response1disk_5,7,3.6997,0.374755859,3.917572021,1,0,0,rectangle_8,0.374755859,3.917572021,1,0,0,0.374755859,3.917572021,1,0,0,0,3,3,2,1,6102126f393f8990e53d37e6,61036c7aa2ad00f34ebc7388,2021-07-29_22h05.56.675,Simcolourproject_2stim_asymm_v5,2020.2.10,MacIntel,60,61025ae37ef11b136ea224fe,,,,,,,,,,,,,,,,,,,,,,,,,,,,,,,,,,,,,,,,,,,,,,
,,,,,,,,,,,,36,PF,-81.37896729,26.07821655,1,0,0,response7disk_5,1,3.8011,10.50701904,-11.57824707,1,0,0,rectangle_8,-107.9240112,-54.33602905,1,0,0,14.80090332,3.910217285,1,0,0,0,4,4,4,1,6102126f393f8990e53d37e6,61036c7aa2ad00f34ebc7388,2021-07-29_22h05.56.675,Simcolourproject_2stim_asymm_v5,2020.2.10,MacIntel,60,61025ae37ef11b136ea224fe,response5disk_7,2,1.9487,2,"[2,5]",rectangle_4,,,,,,,,,,,,,,,,,,,,,,,,,,,,,,,,,,,,,,,,
,,,,,,,,,,,,158,FF,30.57202148,-105.0485229,1,0,0,response3disk_5,4,4.518,1.116210938,-8.560668945,1,0,0,rectangle_8,1.116210938,-8.560668945,1,0,0,1.116210938,-8.560668945,1,0,0,0,5,5,0,1,6102126f393f8990e53d37e6,61036c7aa2ad00f34ebc7388,2021-07-29_22h05.56.675,Simcolourproject_2stim_asymm_v5,2020.2.10,MacIntel,60,61025ae37ef11b136ea224fe,,,,,,,,,,,,,,,,,,,,,,,,,,,,,,,,,,,,,,,,,,,,,,
,,,,,,,,,,,,24,FF,33.90679932,69.1519165,1,0,0,response1disk_5,7,2.5502,-5.979736328,-7.51260376,1,0,0,rectangle_8,-5.979736328,-7.51260376,1,0,0,-5.979736328,-7.51260376,1,0,0,0,6,6,5,1,6102126f393f8990e53d37e6,61036c7aa2ad00f34ebc7388,2021-07-29_22h05.56.675,Simcolourproject_2stim_asymm_v5,2020.2.10,MacIntel,60,61025ae37ef11b136ea224fe,,,,,,,,,,,,,,,,,,,,,,,,,,,,,,,,,,,,,,,,,,,,,,
,,,,,,,,,,,,,FF,,,,,,,,4.5844,,,,,,,,,,,,,,,,,,,,,,6102126f393f8990e53d37e6,61036c7aa2ad00f34ebc7388,2021-07-29_22h05.56.675,Simcolourproject_2stim_asymm_v5,2020.2.10,MacIntel,60,61025ae37ef11b136ea224fe,,,,,,,space,8.8189,4021,-72.43499756,-47.23886108,1,0,0,response5disk,,2,-12.8180542,0.137969971,1,0,0,rectangle,-12.8180542,0.137969971,1,0,0,-12.8180542,0.137969971,1,0,0,0,0,0,135,1,,,,,,,,
,,,,,,,,,,,,,FF,,,,,,,,5.9986,,,,,,,,,,,,,,,,,,,,,,6102126f393f8990e53d37e6,61036c7aa2ad00f34ebc7388,2021-07-29_22h05.56.675,Simcolourproject_2stim_asymm_v5,2020.2.10,MacIntel,60,61025ae37ef11b136ea224fe,,,,,,,,,273,-43.20428467,-75.62878418,1,0,0,response5disk,,3,12.52197266,-2.327911377,1,0,0,rectangle,12.52197266,-2.327911377,1,0,0,12.52197266,-2.327911377,1,0,0,0,1,1,107,1,,,,,,,,
,,,,,,,,,,,,,FF,,,,,,,,2.0842,,,,,,,,,,,,,,,,,,,,,,6102126f393f8990e53d37e6,61036c7aa2ad00f34ebc7388,2021-07-29_22h05.56.675,Simcolourproject_2stim_asymm_v5,2020.2.10,MacIntel,60,61025ae37ef11b136ea224fe,,,,,,,,,1713,43.57391357,83.00296021,1,0,0,response1disk,,7,17.62011719,1.442687988,1,0,0,rectangle,17.62011719,1.442687988,1,0,0,17.62011719,1.442687988,1,0,0,0,2,2,83,1,,,,,,,,
,,,,,,,,,,,,,FF,,,,,,,,2.4825,,,,,,,,,,,,,,,,,,,,,,6102126f393f8990e53d37e6,61036c7aa2ad00f34ebc7388,2021-07-29_22h05.56.675,Simcolourproject_2stim_asymm_v5,2020.2.10,MacIntel,60,61025ae37ef11b136ea224fe,,,,,,,,,1293,-49.91998291,-91.79766846,1,0,0,response5disk,,3,7.889831543,-9.85748291,1,0,0,rectangle,7.889831543,-9.85748291,1,0,0,7.889831543,-9.85748291,1,0,0,0,3,3,101,1,,,,,,,,
,,,,,,,,,,,,,FF,,,,,,,,1.3666,,,,,,,,,,,,,,,,,,,,,,6102126f393f8990e53d37e6,61036c7aa2ad00f34ebc7388,2021-07-29_22h05.56.675,Simcolourproject_2stim_asymm_v5,2020.2.10,MacIntel,60,61025ae37ef11b136ea224fe,,,,,,,,,3186,38.91607666,96.8112793,1,0,0,response1disk,,7,-0.120727539,1.717407227,1,0,0,rectangle,-0.120727539,1.717407227,1,0,0,-0.120727539,1.717407227,1,0,0,0,4,4,37,1,,,,,,,,
,,,,,,,,,,,,,FF,,,,,,,,3.7159,,,,,,,,,,,,,,,,,,,,,,6102126f393f8990e53d37e6,61036c7aa2ad00f34ebc7388,2021-07-29_22h05.56.675,Simcolourproject_2stim_asymm_v5,2020.2.10,MacIntel,60,61025ae37ef11b136ea224fe,,,,,,,,,894,-61.51953125,-45.89315796,1,0,0,response5disk,,2,6.170593262,1.127105713,1,0,0,rectangle,6.170593262,1.127105713,1,0,0,6.170593262,1.127105713,1,0,0,0,5,5,6,1,,,,,,,,
,,,,,,,,,,,,,FF,,,,,,,,3.6157,,,,,,,,,,,,,,,,,,,,,,6102126f393f8990e53d37e6,61036c7aa2ad00f34ebc7388,2021-07-29_22h05.56.675,Simcolourproject_2stim_asymm_v5,2020.2.10,MacIntel,60,61025ae37ef11b136ea224fe,,,,,,,,,4231,89.19219971,42.50143433,1,0,0,response1disk,,6,-14.69482422,-9.636230469,1,0,0,rectangle,-14.69482422,-9.636230469,1,0,0,-14.69482422,-9.636230469,1,0,0,0,6,6,152,1,,,,,,,,
,,,,,,,,,,,,,FF,,,,,,,,7.3666,,,,,,,,,,,,,,,,,,,,,,6102126f393f8990e53d37e6,61036c7aa2ad00f34ebc7388,2021-07-29_22h05.56.675,Simcolourproject_2stim_asymm_v5,2020.2.10,MacIntel,60,61025ae37ef11b136ea224fe,,,,,,,,,2159,-43.35583496,-60.80493164,1,0,0,response5disk,,3,-3.524841309,-14.54992676,1,0,0,rectangle,-3.524841309,-14.54992676,1,0,0,-3.524841309,-14.54992676,1,0,0,0,7,7,103,1,,,,,,,,
,,,,,,,,,,,,,FF,,,,,,,,1.8981,,,,,,,,,,,,,,,,,,,,,,6102126f393f8990e53d37e6,61036c7aa2ad00f34ebc7388,2021-07-29_22h05.56.675,Simcolourproject_2stim_asymm_v5,2020.2.10,MacIntel,60,61025ae37ef11b136ea224fe,,,,,,,,,4115,79.68231201,-51.21875,1,0,0,response3disk,,5,-3.601745605,9.669677734,1,0,0,rectangle,-3.601745605,9.669677734,1,0,0,-3.601745605,9.669677734,1,0,0,0,8,8,90,1,,,,,,,,
,,,,,,,,,,,,,FF,,,,,,,,1.0329,,,,,,,,,,,,,,,,,,,,,,6102126f393f8990e53d37e6,61036c7aa2ad00f34ebc7388,2021-07-29_22h05.56.675,Simcolourproject_2stim_asymm_v5,2020.2.10,MacIntel,60,61025ae37ef11b136ea224fe,,,,,,,,,1347,88.25360107,-34.05883789,1,0,0,response3disk,,5,9.16418457,-2.476654053,1,0,0,rectangle,9.16418457,-2.476654053,1,0,0,9.16418457,-2.476654053,1,0,0,0,9,9,142,1,,,,,,,,
,,,,,,,,,,,,,FF,,,,,,,,0.9998,,,,,,,,,,,,,,,,,,,,,,6102126f393f8990e53d37e6,61036c7aa2ad00f34ebc7388,2021-07-29_22h05.56.675,Simcolourproject_2stim_asymm_v5,2020.2.10,MacIntel,60,61025ae37ef11b136ea224fe,,,,,,,,,2145,82.29229736,-43.88943481,1,0,0,response3disk,,5,11.19897461,-7.933807373,1,0,0,rectangle,11.19897461,-7.933807373,1,0,0,11.19897461,-7.933807373,1,0,0,0,10,10,133,1,,,,,,,,
,,,,,,,,,,,,,FF,,,,,,,,1.0331,,,,,,,,,,,,,,,,,,,,,,6102126f393f8990e53d37e6,61036c7aa2ad00f34ebc7388,2021-07-29_22h05.56.675,Simcolourproject_2stim_asymm_v5,2020.2.10,MacIntel,60,61025ae37ef11b136ea224fe,,,,,,,,,1410,80.0333252,-43.92285156,1,0,0,response3disk,,5,3.258605957,-3.38571167,1,0,0,rectangle,3.258605957,-3.38571167,1,0,0,3.258605957,-3.38571167,1,0,0,0,11,11,134,1,,,,,,,,
,,,,,,,,,,,,,FF,,,,,,,,1.4161,,,,,,,,,,,,,,,,,,,,,,6102126f393f8990e53d37e6,61036c7aa2ad00f34ebc7388,2021-07-29_22h05.56.675,Simcolourproject_2stim_asymm_v5,2020.2.10,MacIntel,60,61025ae37ef11b136ea224fe,,,,,,,,,4129,-81.12756348,-54.2505188,1,0,0,response5disk,,2,16.1541748,-9.5546875,1,0,0,rectangle,16.1541748,-9.5546875,1,0,0,16.1541748,-9.5546875,1,0,0,0,12,12,122,1,,,,,,,,
,,,,,,,,,,,,,FF,,,,,,,,2.1161,,,,,,,,,,,,,,,,,,,,,,6102126f393f8990e53d37e6,61036c7aa2ad00f34ebc7388,2021-07-29_22h05.56.675,Simcolourproject_2stim_asymm_v5,2020.2.10,MacIntel,60,61025ae37ef11b136ea224fe,,,,,,,,,1091,78.58300781,23.96871948,1,0,0,response1disk,,6,12.14831543,17.26577759,1,0,0,rectangle,12.14831543,17.26577759,1,0,0,12.14831543,17.26577759,1,0,0,0,13,13,5,1,,,,,,,,
,,,,,,,,,,,,,FF,,,,,,,,0.5482,,,,,,,,,,,,,,,,,,,,,,6102126f393f8990e53d37e6,61036c7aa2ad00f34ebc7388,2021-07-29_22h05.56.675,Simcolourproject_2stim_asymm_v5,2020.2.10,MacIntel,60,61025ae37ef11b136ea224fe,,,,,,,,,1664,63.57598877,30.38565063,1,0,0,response1disk,,6,8.84979248,2.810211182,1,0,0,rectangle,8.84979248,2.810211182,1,0,0,8.84979248,2.810211182,1,0,0,0,14,14,55,1,,,,,,,,
,,,,,,,,,,,,,FF,,,,,,,,3.1339,,,,,,,,,,,,,,,,,,,,,,6102126f393f8990e53d37e6,61036c7aa2ad00f34ebc7388,2021-07-29_22h05.56.675,Simcolourproject_2stim_asymm_v5,2020.2.10,MacIntel,60,61025ae37ef11b136ea224fe,,,,,,,,,3996,-77.64672852,-39.83587646,1,0,0,response5disk,,2,4.747192383,-9.448455811,1,0,0,rectangle,4.747192383,-9.448455811,1,0,0,4.747192383,-9.448455811,1,0,0,0,15,15,109,1,,,,,,,,
,,,,,,,,,,,,,FF,,,,,,,,1.284,,,,,,,,,,,,,,,,,,,,,,6102126f393f8990e53d37e6,61036c7aa2ad00f34ebc7388,2021-07-29_22h05.56.675,Simcolourproject_2stim_asymm_v5,2020.2.10,MacIntel,60,61025ae37ef11b136ea224fe,,,,,,,,,3831,37.45532227,-102.7268677,1,0,0,response3disk,,4,3.475952148,1.322937012,1,0,0,rectangle,3.475952148,1.322937012,1,0,0,3.475952148,1.322937012,1,0,0,0,16,16,30,1,,,,,,,,
,,,,,,,,,,,,,FF,,,,,,,,0.9845,,,,,,,,,,,,,,,,,,,,,,6102126f393f8990e53d37e6,61036c7aa2ad00f34ebc7388,2021-07-29_22h05.56.675,Simcolourproject_2stim_asymm_v5,2020.2.10,MacIntel,60,61025ae37ef11b136ea224fe,,,,,,,,,3036,84.60150146,-36.009552,1,0,0,response3disk,,5,-3.886291504,-16.59783936,1,0,0,rectangle,-3.886291504,-16.59783936,1,0,0,-3.886291504,-16.59783936,1,0,0,0,17,17,79,1,,,,,,,,
,,,,,,,,,,,,,FF,,,,,,,,2.1515,,,,,,,,,,,,,,,,,,,,,,6102126f393f8990e53d37e6,61036c7aa2ad00f34ebc7388,2021-07-29_22h05.56.675,Simcolourproject_2stim_asymm_v5,2020.2.10,MacIntel,60,61025ae37ef11b136ea224fe,,,,,,,,,774,94.80047607,26.71987915,1,0,0,response1disk,,6,13.67431641,0.43951416,1,0,0,rectangle,-33.21075439,89.51846313,1,0,0,-10.26721191,10.54672241,1,0,0,0,18,18,42,1,,response7disk_3,TRUE,0,0,"[199,240,162,141,245,133,206,266,196,151,28,218,280,19,233,302,101,180,217,102]",1.7174,rectangle
,,,,,,,,,,,,,FF,,,,,,,,5.4011,,,,,,,,,,,,,,,,,,,,,,6102126f393f8990e53d37e6,61036c7aa2ad00f34ebc7388,2021-07-29_22h05.56.675,Simcolourproject_2stim_asymm_v5,2020.2.10,MacIntel,60,61025ae37ef11b136ea224fe,,,,,,,,,1729,84.94866943,-57.96960449,1,0,0,response3disk,,5,-2.082519531,-4.988433838,1,0,0,rectangle,-2.082519531,-4.988433838,1,0,0,-2.082519531,-4.988433838,1,0,0,0,19,19,70,1,,,,,,,,
,,,,,,,,,,,,,FF,,,,,,,,1.2007,,,,,,,,,,,,,,,,,,,,,,6102126f393f8990e53d37e6,61036c7aa2ad00f34ebc7388,2021-07-29_22h05.56.675,Simcolourproject_2stim_asymm_v5,2020.2.10,MacIntel,60,61025ae37ef11b136ea224fe,,,,,,,,,2399,85.48626709,-50.27313232,1,0,0,response3disk,,5,19.48156738,-14.94943237,1,0,0,rectangle,19.48156738,-14.94943237,1,0,0,19.48156738,-14.94943237,1,0,0,0,20,20,57,1,,,,,,,,
,,,,,,,,,,,,,FF,,,,,,,,1.2342,,,,,,,,,,,,,,,,,,,,,,6102126f393f8990e53d37e6,61036c7aa2ad00f34ebc7388,2021-07-29_22h05.56.675,Simcolourproject_2stim_asymm_v5,2020.2.10,MacIntel,60,61025ae37ef11b136ea224fe,,,,,,,,,1762,-48.17205811,-93.36181641,1,0,0,response5disk,,3,10.11126709,-16.48028564,1,0,0,rectangle,10.11126709,-16.48028564,1,0,0,10.11126709,-16.48028564,1,0,0,0,21,21,150,1,,,,,,,,
,,,,,,,,,,,,,FF,,,,,,,,0.8347,,,,,,,,,,,,,,,,,,,,,,6102126f393f8990e53d37e6,61036c7aa2ad00f34ebc7388,2021-07-29_22h05.56.675,Simcolourproject_2stim_asymm_v5,2020.2.10,MacIntel,60,61025ae37ef11b136ea224fe,,,,,,,,,2736,-40.40240479,-75.76177979,1,0,0,response5disk,,3,-3.033508301,-6.531311035,1,0,0,rectangle,-3.033508301,-6.531311035,1,0,0,-3.033508301,-6.531311035,1,0,0,0,22,22,149,1,,,,,,,,
,,,,,,,,,,,,,FF,,,,,,,,0.9173,,,,,,,,,,,,,,,,,,,,,,6102126f393f8990e53d37e6,61036c7aa2ad00f34ebc7388,2021-07-29_22h05.56.675,Simcolourproject_2stim_asymm_v5,2020.2.10,MacIntel,60,61025ae37ef11b136ea224fe,,,,,,,,,1652,106.8322144,45.16824341,1,0,0,response1disk,,6,-0.111877441,0.894561768,1,0,0,rectangle,-0.111877441,0.894561768,1,0,0,-0.111877441,0.894561768,1,0,0,0,23,23,99,1,,,,,,,,
,,,,,,,,,,,,,FF,,,,,,,,1.1335,,,,,,,,,,,,,,,,,,,,,,6102126f393f8990e53d37e6,61036c7aa2ad00f34ebc7388,2021-07-29_22h05.56.675,Simcolourproject_2stim_asymm_v5,2020.2.10,MacIntel,60,61025ae37ef11b136ea224fe,,,,,,,,,4079,89.65374756,34.63543701,1,0,0,response1disk,,6,12.17706299,-0.200439453,1,0,0,rectangle,12.17706299,-0.200439453,1,0,0,12.17706299,-0.200439453,1,0,0,0,24,24,8,1,,,,,,,,
,,,,,,,,,,,,,FF,,,,,,,,1.2668,,,,,,,,,,,,,,,,,,,,,,6102126f393f8990e53d37e6,61036c7aa2ad00f34ebc7388,2021-07-29_22h05.56.675,Simcolourproject_2stim_asymm_v5,2020.2.10,MacIntel,60,61025ae37ef11b136ea224fe,,,,,,,,,1150,29.30236816,-81.44128418,1,0,0,response3disk,,4,10.56451416,-16.43865967,1,0,0,rectangle,10.56451416,-16.43865967,1,0,0,10.56451416,-16.43865967,1,0,0,0,25,25,58,1,,,,,,,,
,,,,,,,,,,,,,FF,,,,,,,,1.0331,,,,,,,,,,,,,,,,,,,,,,6102126f393f8990e53d37e6,61036c7aa2ad00f34ebc7388,2021-07-29_22h05.56.675,Simcolourproject_2stim_asymm_v5,2020.2.10,MacIntel,60,61025ae37ef11b136ea224fe,,,,,,,,,3423,-93.45831299,-40.64733887,1,0,0,response5disk,,2,15.70635986,6.113494873,1,0,0,rectangle,15.70635986,6.113494873,1,0,0,15.70635986,6.113494873,1,0,0,0,26,26,87,1,,,,,,,,
,,,,,,,,,,,,,FF,,,,,,,,1.7666,,,,,,,,,,,,,,,,,,,,,,6102126f393f8990e53d37e6,61036c7aa2ad00f34ebc7388,2021-07-29_22h05.56.675,Simcolourproject_2stim_asymm_v5,2020.2.10,MacIntel,60,61025ae37ef11b136ea224fe,,,,,,,,,3667,76.27929688,-51.35586548,1,0,0,response3disk,,5,-21.21563721,-2.704315186,1,0,0,rectangle,-45.21948242,88.62878418,1,0,0,-16.50531006,-10.23413086,1,0,0,0,27,27,63,1,,response7disk_3,TRUE,0,0,"[199,240,162,141,245,133,206,266,196,151,28,218,280,19,233,302,101,180,217,102]",2.0329,rectangle
,,,,,,,,,,,,,FF,,,,,,,,3.865,,,,,,,,,,,,,,,,,,,,,,6102126f393f8990e53d37e6,61036c7aa2ad00f34ebc7388,2021-07-29_22h05.56.675,Simcolourproject_2stim_asymm_v5,2020.2.10,MacIntel,60,61025ae37ef11b136ea224fe,,,,,,,,,105,42.78967285,-97.19049072,1,0,0,response3disk,,4,-1.394958496,-5.295318604,1,0,0,rectangle,-1.394958496,-5.295318604,1,0,0,-1.394958496,-5.295318604,1,0,0,0,28,28,117,1,,,,,,,,
,,,,,,,,,,,,,FF,,,,,,,,1.2173,,,,,,,,,,,,,,,,,,,,,,6102126f393f8990e53d37e6,61036c7aa2ad00f34ebc7388,2021-07-29_22h05.56.675,Simcolourproject_2stim_asymm_v5,2020.2.10,MacIntel,60,61025ae37ef11b136ea224fe,,,,,,,,,2173,-86.81744385,-44.31488037,1,0,0,response5disk,,2,-23.23980713,3.145751953,1,0,0,rectangle,-23.23980713,3.145751953,1,0,0,-23.23980713,3.145751953,1,0,0,0,29,29,18,1,,,,,,,,
,,,,,,,,,,,,,FF,,,,,,,,2.0333,,,,,,,,,,,,,,,,,,,,,,6102126f393f8990e53d37e6,61036c7aa2ad00f34ebc7388,2021-07-29_22h05.56.675,Simcolourproject_2stim_asymm_v5,2020.2.10,MacIntel,60,61025ae37ef11b136ea224fe,,,,,,,,,2475,-31.86529541,-69.64202881,1,0,0,response5disk,,3,-6.586975098,-2.405273438,1,0,0,rectangle,-6.586975098,-2.405273438,1,0,0,-6.586975098,-2.405273438,1,0,0,0,30,30,140,1,,,,,,,,
,,,,,,,,,,,,,FF,,,,,,,,1.2683,,,,,,,,,,,,,,,,,,,,,,6102126f393f8990e53d37e6,61036c7aa2ad00f34ebc7388,2021-07-29_22h05.56.675,Simcolourproject_2stim_asymm_v5,2020.2.10,MacIntel,60,61025ae37ef11b136ea224fe,,,,,,,,,3282,-69.3848877,53.00097656,1,0,0,response7disk,,1,5.731628418,-0.312896729,1,0,0,rectangle,5.731628418,-0.312896729,1,0,0,5.731628418,-0.312896729,1,0,0,0,31,31,77,1,,,,,,,,
,,,,,,,,,,,,,FF,,,,,,,,1.736,,,,,,,,,,,,,,,,,,,,,,6102126f393f8990e53d37e6,61036c7aa2ad00f34ebc7388,2021-07-29_22h05.56.675,Simcolourproject_2stim_asymm_v5,2020.2.10,MacIntel,60,61025ae37ef11b136ea224fe,,,,,,,,,3836,19.61132813,-78.41589355,1,0,0,response3disk,,4,17.31451416,7.381652832,1,0,0,rectangle,17.31451416,7.381652832,1,0,0,17.31451416,7.381652832,1,0,0,0,32,32,45,1,,,,,,,,
,,,,,,,,,,,,,FF,,,,,,,,0.6334,,,,,,,,,,,,,,,,,,,,,,6102126f393f8990e53d37e6,61036c7aa2ad00f34ebc7388,2021-07-29_22h05.56.675,Simcolourproject_2stim_asymm_v5,2020.2.10,MacIntel,60,61025ae37ef11b136ea224fe,,,,,,,,,1627,87.1585083,-42.7958374,1,0,0,response3disk,,5,16.79180908,-0.879486084,1,0,0,rectangle,16.79180908,-0.879486084,1,0,0,16.79180908,-0.879486084,1,0,0,0,33,33,156,1,,,,,,,,
,,,,,,,,,,,,,FF,,,,,,,,0.6001,,,,,,,,,,,,,,,,,,,,,,6102126f393f8990e53d37e6,61036c7aa2ad00f34ebc7388,2021-07-29_22h05.56.675,Simcolourproject_2stim_asymm_v5,2020.2.10,MacIntel,60,61025ae37ef11b136ea224fe,,,,,,,,,2071,80.23937988,-46.41625977,1,0,0,response3disk,,5,8.710998535,-0.08605957,1,0,0,rectangle,8.710998535,-0.08605957,1,0,0,8.710998535,-0.08605957,1,0,0,0,34,34,10,1,,,,,,,,
,,,,,,,,,,,,,FF,,,,,,,,0.5834,,,,,,,,,,,,,,,,,,,,,,6102126f393f8990e53d37e6,61036c7aa2ad00f34ebc7388,2021-07-29_22h05.56.675,Simcolourproject_2stim_asymm_v5,2020.2.10,MacIntel,60,61025ae37ef11b136ea224fe,,,,,,,,,58,66.57312012,-34.87033081,1,0,0,response3disk,,5,0.324523926,-1.352600098,1,0,0,rectangle,0.324523926,-1.352600098,1,0,0,0.324523926,-1.352600098,1,0,0,0,35,35,154,1,,,,,,,,
,,,,,,,,,,,,,FF,,,,,,,,0.7692,,,,,,,,,,,,,,,,,,,,,,6102126f393f8990e53d37e6,61036c7aa2ad00f34ebc7388,2021-07-29_22h05.56.675,Simcolourproject_2stim_asymm_v5,2020.2.10,MacIntel,60,61025ae37ef11b136ea224fe,,,,,,,,,3155,-76.19543457,-32.23626709,1,0,0,response5disk,,2,-16.65722656,-10.18307495,1,0,0,rectangle,-16.65722656,-10.18307495,1,0,0,-16.65722656,-10.18307495,1,0,0,0,36,36,106,1,,,,,,,,
,,,,,,,,,,,,,FF,,,,,,,,0.5175,,,,,,,,,,,,,,,,,,,,,,6102126f393f8990e53d37e6,61036c7aa2ad00f34ebc7388,2021-07-29_22h05.56.675,Simcolourproject_2stim_asymm_v5,2020.2.10,MacIntel,60,61025ae37ef11b136ea224fe,,,,,,,,,113,103.4816895,-36.66464233,1,0,0,response3disk,,5,23.02307129,0.894805908,1,0,0,rectangle,23.02307129,0.894805908,1,0,0,23.02307129,0.894805908,1,0,0,0,37,37,132,1,,,,,,,,
,,,,,,,,,,,,,FF,,,,,,,,0.8512,,,,,,,,,,,,,,,,,,,,,,6102126f393f8990e53d37e6,61036c7aa2ad00f34ebc7388,2021-07-29_22h05.56.675,Simcolourproject_2stim_asymm_v5,2020.2.10,MacIntel,60,61025ae37ef11b136ea224fe,,,,,,,,,2964,107.2322388,39.96139526,1,0,0,response1disk,,6,-11.87072754,-12.86950684,1,0,0,rectangle,-11.87072754,-12.86950684,1,0,0,-11.87072754,-12.86950684,1,0,0,0,38,38,59,1,,,,,,,,
,,,,,,,,,,,,,FF,,,,,,,,0.55,,,,,,,,,,,,,,,,,,,,,,6102126f393f8990e53d37e6,61036c7aa2ad00f34ebc7388,2021-07-29_22h05.56.675,Simcolourproject_2stim_asymm_v5,2020.2.10,MacIntel,60,61025ae37ef11b136ea224fe,,,,,,,,,4157,52.49633789,-72.57495117,1,0,0,response3disk,,4,31.7175293,16.12783813,1,0,0,rectangle,31.7175293,16.12783813,1,0,0,31.7175293,16.12783813,1,0,0,0,39,39,113,1,,,,,,,,
,,,,,,,,,,,,,FF,,,,,,,,0.985,,,,,,,,,,,,,,,,,,,,,,6102126f393f8990e53d37e6,61036c7aa2ad00f34ebc7388,2021-07-29_22h05.56.675,Simcolourproject_2stim_asymm_v5,2020.2.10,MacIntel,60,61025ae37ef11b136ea224fe,,,,,,,,,4270,32.31860352,-45.29510498,1,0,0,response3disk,,4,-9.116943359,-0.796569824,1,0,0,rectangle,-9.116943359,-0.796569824,1,0,0,-9.116943359,-0.796569824,1,0,0,0,40,40,50,1,,,,,,,,
,,,,,,,,,,,,,FF,,,,,,,,1.4001,,,,,,,,,,,,,,,,,,,,,,6102126f393f8990e53d37e6,61036c7aa2ad00f34ebc7388,2021-07-29_22h05.56.675,Simcolourproject_2stim_asymm_v5,2020.2.10,MacIntel,60,61025ae37ef11b136ea224fe,,,,,,,,,1821,-80.48742676,-46.91851807,1,0,0,response5disk,,2,-14.20043945,-14.08755493,1,0,0,rectangle,-14.20043945,-14.08755493,1,0,0,-14.20043945,-14.08755493,1,0,0,0,41,41,96,1,,,,,,,,
,,,,,,,,,,,,,FF,,,,,,,,1.062,,,,,,,,,,,,,,,,,,,,,,6102126f393f8990e53d37e6,61036c7aa2ad00f34ebc7388,2021-07-29_22h05.56.675,Simcolourproject_2stim_asymm_v5,2020.2.10,MacIntel,60,61025ae37ef11b136ea224fe,,,,,,,,,143,58.4442749,-78.4576416,1,0,0,response3disk,,4,26.76739502,-14.63446045,1,0,0,rectangle,26.76739502,-14.63446045,1,0,0,26.76739502,-14.63446045,1,0,0,0,42,42,52,1,,,,,,,,
,,,,,,,,,,,,,FF,,,,,,,,5.3494,,,,,,,,,,,,,,,,,,,,,,6102126f393f8990e53d37e6,61036c7aa2ad00f34ebc7388,2021-07-29_22h05.56.675,Simcolourproject_2stim_asymm_v5,2020.2.10,MacIntel,60,61025ae37ef11b136ea224fe,,,,,,,,,1980,-32.76885986,-73.37762451,1,0,0,response5disk,,3,-10.22314453,-15.65722656,1,0,0,rectangle,-10.22314453,-15.65722656,1,0,0,-10.22314453,-15.65722656,1,0,0,0,43,43,2,1,,,,,,,,
,,,,,,,,,,,,,FF,,,,,,,,4.6828,,,,,,,,,,,,,,,,,,,,,,6102126f393f8990e53d37e6,61036c7aa2ad00f34ebc7388,2021-07-29_22h05.56.675,Simcolourproject_2stim_asymm_v5,2020.2.10,MacIntel,60,61025ae37ef11b136ea224fe,,,,,,,,,2194,96.31420898,-48.84353638,1,0,0,response3disk,,5,-0.170776367,9.909790039,1,0,0,rectangle,-0.170776367,9.909790039,1,0,0,-0.170776367,9.909790039,1,0,0,0,44,44,153,1,,,,,,,,
,,,,,,,,,,,,,FF,,,,,,,,0.8831,,,,,,,,,,,,,,,,,,,,,,6102126f393f8990e53d37e6,61036c7aa2ad00f34ebc7388,2021-07-29_22h05.56.675,Simcolourproject_2stim_asymm_v5,2020.2.10,MacIntel,60,61025ae37ef11b136ea224fe,,,,,,,,,3741,-46.47808838,93.22994995,1,0,0,response7disk,,0,0.89239502,2.487060547,1,0,0,rectangle,0.89239502,2.487060547,1,0,0,0.89239502,2.487060547,1,0,0,0,45,45,48,1,,,,,,,,
,,,,,,,,,,,,,FF,,,,,,,,1.5163,,,,,,,,,,,,,,,,,,,,,,6102126f393f8990e53d37e6,61036c7aa2ad00f34ebc7388,2021-07-29_22h05.56.675,Simcolourproject_2stim_asymm_v5,2020.2.10,MacIntel,60,61025ae37ef11b136ea224fe,,,,,,,,,3711,-76.60913086,-22.98703003,1,0,0,response5disk,,2,-3.825927734,11.33349609,1,0,0,rectangle,-3.825927734,11.33349609,1,0,0,-3.825927734,11.33349609,1,0,0,0,46,46,27,1,,,,,,,,
,,,,,,,,,,,,,FF,,,,,,,,1.0332,,,,,,,,,,,,,,,,,,,,,,6102126f393f8990e53d37e6,61036c7aa2ad00f34ebc7388,2021-07-29_22h05.56.675,Simcolourproject_2stim_asymm_v5,2020.2.10,MacIntel,60,61025ae37ef11b136ea224fe,,,,,,,,,2277,60.42523193,-79.67987061,1,0,0,response3disk,,4,7.996032715,-2.125305176,1,0,0,rectangle,7.996032715,-2.125305176,1,0,0,7.996032715,-2.125305176,1,0,0,0,47,47,17,1,,,,,,,,
,,,,,,,,,,,,,FF,,,,,,,,0.7822,,,,,,,,,,,,,,,,,,,,,,6102126f393f8990e53d37e6,61036c7aa2ad00f34ebc7388,2021-07-29_22h05.56.675,Simcolourproject_2stim_asymm_v5,2020.2.10,MacIntel,60,61025ae37ef11b136ea224fe,,,,,,,,,215,32.67010498,-79.25335693,1,0,0,response3disk,,4,20.78479004,-16.23400879,1,0,0,rectangle,20.78479004,-16.23400879,1,0,0,20.78479004,-16.23400879,1,0,0,0,48,48,143,1,,,,,,,,
,,,,,,,,,,,,,FF,,,,,,,,1.0171,,,,,,,,,,,,,,,,,,,,,,6102126f393f8990e53d37e6,61036c7aa2ad00f34ebc7388,2021-07-29_22h05.56.675,Simcolourproject_2stim_asymm_v5,2020.2.10,MacIntel,60,61025ae37ef11b136ea224fe,,,,,,,,,3677,40.48626709,-77.85626221,1,0,0,response3disk,,4,-3.581542969,-8.918304443,1,0,0,rectangle,-3.581542969,-8.918304443,1,0,0,-3.581542969,-8.918304443,1,0,0,0,49,49,68,1,,,,,,,,
,,,,,,,,,,,,,FF,,,,,,,,0.7164,,,,,,,,,,,,,,,,,,,,,,6102126f393f8990e53d37e6,61036c7aa2ad00f34ebc7388,2021-07-29_22h05.56.675,Simcolourproject_2stim_asymm_v5,2020.2.10,MacIntel,60,61025ae37ef11b136ea224fe,,,,,,,,,3743,-68.07659912,33.1421814,1,0,0,response7disk,,1,9.583129883,-5.362884521,1,0,0,rectangle,9.583129883,-5.362884521,1,0,0,9.583129883,-5.362884521,1,0,0,0,50,50,47,1,,,,,,,,
,,,,,,,,,,,,,FF,,,,,,,,1.1176,,,,,,,,,,,,,,,,,,,,,,6102126f393f8990e53d37e6,61036c7aa2ad00f34ebc7388,2021-07-29_22h05.56.675,Simcolourproject_2stim_asymm_v5,2020.2.10,MacIntel,60,61025ae37ef11b136ea224fe,,,,,,,,,559,76.84014893,-49.07711792,1,0,0,response3disk,,5,0.095825195,-4.631317139,1,0,0,rectangle,0.095825195,-4.631317139,1,0,0,0.095825195,-4.631317139,1,0,0,0,51,51,105,1,,,,,,,,
,,,,,,,,,,,,,FF,,,,,,,,1.2821,,,,,,,,,,,,,,,,,,,,,,6102126f393f8990e53d37e6,61036c7aa2ad00f34ebc7388,2021-07-29_22h05.56.675,Simcolourproject_2stim_asymm_v5,2020.2.10,MacIntel,60,61025ae37ef11b136ea224fe,,,,,,,,,2167,-33.02062988,72.54400635,1,0,0,response7disk,,0,-5.598083496,10.07003784,1,0,0,rectangle,-5.598083496,10.07003784,1,0,0,-5.598083496,10.07003784,1,0,0,0,52,52,130,1,,,,,,,,
,,,,,,,,,,,,,FF,,,,,,,,0.9841,,,,,,,,,,,,,,,,,,,,,,6102126f393f8990e53d37e6,61036c7aa2ad00f34ebc7388,2021-07-29_22h05.56.675,Simcolourproject_2stim_asymm_v5,2020.2.10,MacIntel,60,61025ae37ef11b136ea224fe,,,,,,,,,284,-41.7567749,-79.27362061,1,0,0,response5disk,,3,3.097900391,5.024719238,1,0,0,rectangle,3.097900391,5.024719238,1,0,0,3.097900391,5.024719238,1,0,0,0,53,53,36,1,,,,,,,,
,,,,,,,,,,,,,FF,,,,,,,,1.166,,,,,,,,,,,,,,,,,,,,,,6102126f393f8990e53d37e6,61036c7aa2ad00f34ebc7388,2021-07-29_22h05.56.675,Simcolourproject_2stim_asymm_v5,2020.2.10,MacIntel,60,61025ae37ef11b136ea224fe,,,,,,,,,3977,83.51568604,-42.36514282,1,0,0,response3disk,,5,8.470825195,-5.704833984,1,0,0,rectangle,8.470825195,-5.704833984,1,0,0,8.470825195,-5.704833984,1,0,0,0,54,54,127,1,,,,,,,,
,,,,,,,,,,,,,FF,,,,,,,,0.4845,,,,,,,,,,,,,,,,,,,,,,6102126f393f8990e53d37e6,61036c7aa2ad00f34ebc7388,2021-07-29_22h05.56.675,Simcolourproject_2stim_asymm_v5,2020.2.10,MacIntel,60,61025ae37ef11b136ea224fe,,,,,,,,,949,70.71331787,-46.19805908,1,0,0,response3disk,,5,9.704284668,-13.93640137,1,0,0,rectangle,9.704284668,-13.93640137,1,0,0,9.704284668,-13.93640137,1,0,0,0,55,55,11,1,,,,,,,,
,,,,,,,,,,,,,FF,,,,,,,,0.8168,,,,,,,,,,,,,,,,,,,,,,6102126f393f8990e53d37e6,61036c7aa2ad00f34ebc7388,2021-07-29_22h05.56.675,Simcolourproject_2stim_asymm_v5,2020.2.10,MacIntel,60,61025ae37ef11b136ea224fe,,,,,,,,,885,-53.56628418,90.65625,1,0,0,response7disk,,0,6.367736816,-11.36148071,1,0,0,rectangle,6.367736816,-11.36148071,1,0,0,6.367736816,-11.36148071,1,0,0,0,56,56,65,1,,,,,,,,
,,,,,,,,,,,,,FF,,,,,,,,0.8166,,,,,,,,,,,,,,,,,,,,,,6102126f393f8990e53d37e6,61036c7aa2ad00f34ebc7388,2021-07-29_22h05.56.675,Simcolourproject_2stim_asymm_v5,2020.2.10,MacIntel,60,61025ae37ef11b136ea224fe,,,,,,,,,188,-48.29095459,29.31848145,1,0,0,response7disk,,1,3.220092773,-8.9012146,1,0,0,rectangle,3.220092773,-8.9012146,1,0,0,3.220092773,-8.9012146,1,0,0,0,57,57,100,1,,,,,,,,
,,,,,,,,,,,,,FF,,,,,,,,1.0001,,,,,,,,,,,,,,,,,,,,,,6102126f393f8990e53d37e6,61036c7aa2ad00f34ebc7388,2021-07-29_22h05.56.675,Simcolourproject_2stim_asymm_v5,2020.2.10,MacIntel,60,61025ae37ef11b136ea224fe,,,,,,,,,2700,63.32330322,102.1889038,1,0,0,response1disk,,7,15.81414795,4.937591553,1,0,0,rectangle,15.81414795,4.937591553,1,0,0,15.81414795,4.937591553,1,0,0,0,58,58,9,1,,,,,,,,
,,,,,,,,,,,,,FF,,,,,,,,2.1488,,,,,,,,,,,,,,,,,,,,,,6102126f393f8990e53d37e6,61036c7aa2ad00f34ebc7388,2021-07-29_22h05.56.675,Simcolourproject_2stim_asymm_v5,2020.2.10,MacIntel,60,61025ae37ef11b136ea224fe,,,,,,,,,3531,17.49731445,63.51989746,1,0,0,response1disk,,7,-7.772583008,-1.66494751,1,0,0,rectangle,-7.772583008,-1.66494751,1,0,0,-7.772583008,-1.66494751,1,0,0,0,59,59,51,1,,,,,,,,
,,,,,,,,,,,,,FF,,,,,,,,0.6988,,,,,,,,,,,,,,,,,,,,,,6102126f393f8990e53d37e6,61036c7aa2ad00f34ebc7388,2021-07-29_22h05.56.675,Simcolourproject_2stim_asymm_v5,2020.2.10,MacIntel,60,61025ae37ef11b136ea224fe,,,,,,,,,4258,39.76312256,81.83624268,1,0,0,response1disk,,7,10.81945801,3.264434814,1,0,0,rectangle,10.81945801,3.264434814,1,0,0,10.81945801,3.264434814,1,0,0,0,60,60,29,1,,,,,,,,
,,,,,,,,,,,,,FF,,,,,,,,1.034,,,,,,,,,,,,,,,,,,,,,,6102126f393f8990e53d37e6,61036c7aa2ad00f34ebc7388,2021-07-29_22h05.56.675,Simcolourproject_2stim_asymm_v5,2020.2.10,MacIntel,60,61025ae37ef11b136ea224fe,,,,,,,,,4351,-69.62213135,32.8782959,1,0,0,response7disk,,1,-11.88525391,1.296295166,1,0,0,rectangle,-11.88525391,1.296295166,1,0,0,-11.88525391,1.296295166,1,0,0,0,61,61,62,1,,,,,,,,
,,,,,,,,,,,,,FF,,,,,,,,0.6341,,,,,,,,,,,,,,,,,,,,,,6102126f393f8990e53d37e6,61036c7aa2ad00f34ebc7388,2021-07-29_22h05.56.675,Simcolourproject_2stim_asymm_v5,2020.2.10,MacIntel,60,61025ae37ef11b136ea224fe,,,,,,,,,1,-66.20300293,33.65112305,1,0,0,response7disk,,1,6.178771973,-2.564941406,1,0,0,rectangle,6.178771973,-2.564941406,1,0,0,6.178771973,-2.564941406,1,0,0,0,62,62,94,1,,,,,,,,
,,,,,,,,,,,,,FF,,,,,,,,1.3774,,,,,,,,,,,,,,,,,,,,,,6102126f393f8990e53d37e6,61036c7aa2ad00f34ebc7388,2021-07-29_22h05.56.675,Simcolourproject_2stim_asymm_v5,2020.2.10,MacIntel,60,61025ae37ef11b136ea224fe,,,,,,,,,3572,64.19335938,40.94195557,1,0,0,response1disk,,6,-10.68774414,-9.388916016,1,0,0,rectangle,-10.68774414,-9.388916016,1,0,0,-10.68774414,-9.388916016,1,0,0,0,63,63,155,1,,,,,,,,
,,,,,,,,,,,,,FF,,,,,,,,1.1513,,,,,,,,,,,,,,,,,,,,,,6102126f393f8990e53d37e6,61036c7aa2ad00f34ebc7388,2021-07-29_22h05.56.675,Simcolourproject_2stim_asymm_v5,2020.2.10,MacIntel,60,61025ae37ef11b136ea224fe,,,,,,,,,1037,22.84771729,45.67428589,1,0,0,response1disk,,7,7.886169434,-6.694732666,1,0,0,rectangle,7.886169434,-6.694732666,1,0,0,7.886169434,-6.694732666,1,0,0,0,64,64,41,1,,,,,,,,
,,,,,,,,,,,,,FF,,,,,,,,0.5671,,,,,,,,,,,,,,,,,,,,,,6102126f393f8990e53d37e6,61036c7aa2ad00f34ebc7388,2021-07-29_22h05.56.675,Simcolourproject_2stim_asymm_v5,2020.2.10,MacIntel,60,61025ae37ef11b136ea224fe,,,,,,,,,860,27.9800415,41.23303223,1,0,0,response1disk,,7,10.99517822,-9.619781494,1,0,0,rectangle,10.99517822,-9.619781494,1,0,0,10.99517822,-9.619781494,1,0,0,0,65,65,71,1,,,,,,,,
,,,,,,,,,,,,,FF,,,,,,,,0.6324,,,,,,,,,,,,,,,,,,,,,,6102126f393f8990e53d37e6,61036c7aa2ad00f34ebc7388,2021-07-29_22h05.56.675,Simcolourproject_2stim_asymm_v5,2020.2.10,MacIntel,60,61025ae37ef11b136ea224fe,,,,,,,,,4094,55.38470459,20.86416626,1,0,0,response1disk,,6,-1.414550781,0.261505127,1,0,0,rectangle,-1.414550781,0.261505127,1,0,0,-1.414550781,0.261505127,1,0,0,0,66,66,102,1,,,,,,,,
,,,,,,,,,,,,,FF,,,,,,,,1.2326,,,,,,,,,,,,,,,,,,,,,,6102126f393f8990e53d37e6,61036c7aa2ad00f34ebc7388,2021-07-29_22h05.56.675,Simcolourproject_2stim_asymm_v5,2020.2.10,MacIntel,60,61025ae37ef11b136ea224fe,,,,,,,,,575,31.31811523,67.60992432,1,0,0,response1disk,,7,7.468017578,-2.43762207,1,0,0,rectangle,7.468017578,-2.43762207,1,0,0,7.468017578,-2.43762207,1,0,0,0,67,67,72,1,,,,,,,,
,,,,,,,,,,,,,FF,,,,,,,,0.5993,,,,,,,,,,,,,,,,,,,,,,6102126f393f8990e53d37e6,61036c7aa2ad00f34ebc7388,2021-07-29_22h05.56.675,Simcolourproject_2stim_asymm_v5,2020.2.10,MacIntel,60,61025ae37ef11b136ea224fe,,,,,,,,,2688,31.04467773,57.84658813,1,0,0,response1disk,,7,16.14257813,-8.030456543,1,0,0,rectangle,16.14257813,-8.030456543,1,0,0,16.14257813,-8.030456543,1,0,0,0,68,68,53,1,,,,,,,,
,,,,,,,,,,,,,FF,,,,,,,,2.3505,,,,,,,,,,,,,,,,,,,,,,6102126f393f8990e53d37e6,61036c7aa2ad00f34ebc7388,2021-07-29_22h05.56.675,Simcolourproject_2stim_asymm_v5,2020.2.10,MacIntel,60,61025ae37ef11b136ea224fe,,,,,,,,,939,35.29840088,55.25668335,1,0,0,response1disk,,7,26.76660156,-5.294281006,1,0,0,rectangle,26.76660156,-5.294281006,1,0,0,26.76660156,-5.294281006,1,0,0,0,69,69,136,1,,,,,,,,
,,,,,,,,,,,,,FF,,,,,,,,1.2346,,,,,,,,,,,,,,,,,,,,,,6102126f393f8990e53d37e6,61036c7aa2ad00f34ebc7388,2021-07-29_22h05.56.675,Simcolourproject_2stim_asymm_v5,2020.2.10,MacIntel,60,61025ae37ef11b136ea224fe,,,,,,,,,3961,77.22009277,36.68185425,1,0,0,response1disk,,6,25.90063477,3.026672363,1,0,0,rectangle,25.90063477,3.026672363,1,0,0,25.90063477,3.026672363,1,0,0,0,70,70,35,1,,,,,,,,
,,,,,,,,,,,,,FF,,,,,,,,0.8837,,,,,,,,,,,,,,,,,,,,,,6102126f393f8990e53d37e6,61036c7aa2ad00f34ebc7388,2021-07-29_22h05.56.675,Simcolourproject_2stim_asymm_v5,2020.2.10,MacIntel,60,61025ae37ef11b136ea224fe,,,,,,,,,1776,68.24395752,-30.14242554,1,0,0,response3disk,,5,5.687072754,-10.53411865,1,0,0,rectangle,5.687072754,-10.53411865,1,0,0,5.687072754,-10.53411865,1,0,0,0,71,71,139,1,,,,,,,,
,,,,,,,,,,,,,FF,,,,,,,,0.7659,,,,,,,,,,,,,,,,,,,,,,6102126f393f8990e53d37e6,61036c7aa2ad00f34ebc7388,2021-07-29_22h05.56.675,Simcolourproject_2stim_asymm_v5,2020.2.10,MacIntel,60,61025ae37ef11b136ea224fe,,,,,,,,,797,72.15802002,-53.20797729,1,0,0,response3disk,,5,4.971740723,-11.47106934,1,0,0,rectangle,4.971740723,-11.47106934,1,0,0,4.971740723,-11.47106934,1,0,0,0,72,72,88,1,,,,,,,,
,,,,,,,,,,,,,FF,,,,,,,,1.2503,,,,,,,,,,,,,,,,,,,,,,6102126f393f8990e53d37e6,61036c7aa2ad00f34ebc7388,2021-07-29_22h05.56.675,Simcolourproject_2stim_asymm_v5,2020.2.10,MacIntel,60,61025ae37ef11b136ea224fe,,,,,,,,,3896,29.55834961,-99.82806396,1,0,0,response3disk,,4,6.613891602,-1.5730896,1,0,0,rectangle,6.613891602,-1.5730896,1,0,0,6.613891602,-1.5730896,1,0,0,0,73,73,32,1,,,,,,,,
,,,,,,,,,,,,,FF,,,,,,,,0.617,,,,,,,,,,,,,,,,,,,,,,6102126f393f8990e53d37e6,61036c7aa2ad00f34ebc7388,2021-07-29_22h05.56.675,Simcolourproject_2stim_asymm_v5,2020.2.10,MacIntel,60,61025ae37ef11b136ea224fe,,,,,,,,,4084,40.74151611,-54.10220337,1,0,0,response3disk,,4,15.84967041,-12.35244751,1,0,0,rectangle,15.84967041,-12.35244751,1,0,0,15.84967041,-12.35244751,1,0,0,0,74,74,76,1,,,,,,,,
,,,,,,,,,,,,,FF,,,,,,,,0.9666,,,,,,,,,,,,,,,,,,,,,,6102126f393f8990e53d37e6,61036c7aa2ad00f34ebc7388,2021-07-29_22h05.56.675,Simcolourproject_2stim_asymm_v5,2020.2.10,MacIntel,60,61025ae37ef11b136ea224fe,,,,,,,,,1463,-49.61212158,-108.7302856,1,0,0,response5disk,,3,-0.437011719,-8.408203125,1,0,0,rectangle,-0.437011719,-8.408203125,1,0,0,-0.437011719,-8.408203125,1,0,0,0,75,75,104,1,,,,,,,,
,,,,,,,,,,,,,FF,,,,,,,,1.8335,,,,,,,,,,,,,,,,,,,,,,6102126f393f8990e53d37e6,61036c7aa2ad00f34ebc7388,2021-07-29_22h05.56.675,Simcolourproject_2stim_asymm_v5,2020.2.10,MacIntel,60,61025ae37ef11b136ea224fe,,,,,,,,,715,64.97393799,44.47473145,1,0,0,response1disk,,6,30.18756104,7.793945313,1,0,0,rectangle,30.18756104,7.793945313,1,0,0,30.18756104,7.793945313,1,0,0,0,76,76,112,1,,,,,,,,
,,,,,,,,,,,,,FF,,,,,,,,1.0668,,,,,,,,,,,,,,,,,,,,,,6102126f393f8990e53d37e6,61036c7aa2ad00f34ebc7388,2021-07-29_22h05.56.675,Simcolourproject_2stim_asymm_v5,2020.2.10,MacIntel,60,61025ae37ef11b136ea224fe,,,,,,,,,4338,-81.32958984,-36.40856934,1,0,0,response5disk,,2,20.88653564,-8.813934326,1,0,0,rectangle,20.88653564,-8.813934326,1,0,0,20.88653564,-8.813934326,1,0,0,0,77,77,89,1,,,,,,,,
,,,,,,,,,,,,,FF,,,,,,,,1.902,,,,,,,,,,,,,,,,,,,,,,6102126f393f8990e53d37e6,61036c7aa2ad00f34ebc7388,2021-07-29_22h05.56.675,Simcolourproject_2stim_asymm_v5,2020.2.10,MacIntel,60,61025ae37ef11b136ea224fe,,,,,,,,,38,50.98413086,-83.9407959,1,0,0,response3disk,,4,6.867919922,-9.686004639,1,0,0,rectangle,6.867919922,-9.686004639,1,0,0,6.867919922,-9.686004639,1,0,0,0,78,78,15,1,,,,,,,,
,,,,,,,,,,,,,FF,,,,,,,,1.2177,,,,,,,,,,,,,,,,,,,,,,6102126f393f8990e53d37e6,61036c7aa2ad00f34ebc7388,2021-07-29_22h05.56.675,Simcolourproject_2stim_asymm_v5,2020.2.10,MacIntel,60,61025ae37ef11b136ea224fe,,,,,,,,,893,-50.89575195,-85.08123779,1,0,0,response5disk,,3,-15.14196777,-6.811279297,1,0,0,rectangle,-15.14196777,-6.811279297,1,0,0,-15.14196777,-6.811279297,1,0,0,0,79,79,4,1,,,,,,,,
,,,,,,,,,,,,,FF,,,,,,,,0.9821,,,,,,,,,,,,,,,,,,,,,,6102126f393f8990e53d37e6,61036c7aa2ad00f34ebc7388,2021-07-29_22h05.56.675,Simcolourproject_2stim_asymm_v5,2020.2.10,MacIntel,60,61025ae37ef11b136ea224fe,,,,,,,,,2820,-48.11602783,-27.52651978,1,0,0,response5disk,,2,9.305847168,0.95513916,1,0,0,rectangle,9.305847168,0.95513916,1,0,0,9.305847168,0.95513916,1,0,0,0,80,80,159,1,,,,,,,,
,,,,,,,,,,,,,FF,,,,,,,,2.1989,,,,,,,,,,,,,,,,,,,,,,6102126f393f8990e53d37e6,61036c7aa2ad00f34ebc7388,2021-07-29_22h05.56.675,Simcolourproject_2stim_asymm_v5,2020.2.10,MacIntel,60,61025ae37ef11b136ea224fe,,,,,,,,,1901,-82.4854126,-41.53338623,1,0,0,response5disk,,2,-6.51763916,-3.786529541,1,0,0,rectangle,-6.51763916,-3.786529541,1,0,0,-6.51763916,-3.786529541,1,0,0,0,81,81,28,1,,,,,,,,
,,,,,,,,,,,,,FF,,,,,,,,1.1501,,,,,,,,,,,,,,,,,,,,,,6102126f393f8990e53d37e6,61036c7aa2ad00f34ebc7388,2021-07-29_22h05.56.675,Simcolourproject_2stim_asymm_v5,2020.2.10,MacIntel,60,61025ae37ef11b136ea224fe,,,,,,,,,2507,15.86651611,68.54348755,1,0,0,response1disk,,7,10.82507324,9.825622559,1,0,0,rectangle,10.82507324,9.825622559,1,0,0,10.82507324,9.825622559,1,0,0,0,82,82,97,1,,,,,,,,
,,,,,,,,,,,,,FF,,,,,,,,0.5665,,,,,,,,,,,,,,,,,,,,,,6102126f393f8990e53d37e6,61036c7aa2ad00f34ebc7388,2021-07-29_22h05.56.675,Simcolourproject_2stim_asymm_v5,2020.2.10,MacIntel,60,61025ae37ef11b136ea224fe,,,,,,,,,4177,44.39099121,53.20571899,1,0,0,response1disk,,7,0.135192871,5.281311035,1,0,0,rectangle,0.135192871,5.281311035,1,0,0,0.135192871,5.281311035,1,0,0,0,83,83,20,1,,,,,,,,
,,,,,,,,,,,,,FF,,,,,,,,1.4001,,,,,,,,,,,,,,,,,,,,,,6102126f393f8990e53d37e6,61036c7aa2ad00f34ebc7388,2021-07-29_22h05.56.675,Simcolourproject_2stim_asymm_v5,2020.2.10,MacIntel,60,61025ae37ef11b136ea224fe,,,,,,,,,2826,-74.81201172,-40.02557373,1,0,0,response5disk,,2,-21.84661865,-6.672241211,1,0,0,rectangle,-21.84661865,-6.672241211,1,0,0,-21.84661865,-6.672241211,1,0,0,0,84,84,126,1,,,,,,,,
,,,,,,,,,,,,,FF,,,,,,,,0.6841,,,,,,,,,,,,,,,,,,,,,,6102126f393f8990e53d37e6,61036c7aa2ad00f34ebc7388,2021-07-29_22h05.56.675,Simcolourproject_2stim_asymm_v5,2020.2.10,MacIntel,60,61025ae37ef11b136ea224fe,,,,,,,,,297,27.80462646,78.74862671,1,0,0,response1disk,,7,7.609130859,3.979705811,1,0,0,rectangle,7.609130859,3.979705811,1,0,0,7.609130859,3.979705811,1,0,0,0,85,85,92,1,,,,,,,,
,,,,,,,,,,,,,FF,,,,,,,,1.3181,,,,,,,,,,,,,,,,,,,,,,6102126f393f8990e53d37e6,61036c7aa2ad00f34ebc7388,2021-07-29_22h05.56.675,Simcolourproject_2stim_asymm_v5,2020.2.10,MacIntel,60,61025ae37ef11b136ea224fe,,,,,,,,,1382,-42.69781494,-80.69671631,1,0,0,response5disk,,3,-13.72894287,-5.900482178,1,0,0,rectangle,-13.72894287,-5.900482178,1,0,0,-13.72894287,-5.900482178,1,0,0,0,86,86,91,1,,,,,,,,
,,,,,,,,,,,,,FF,,,,,,,,1.5841,,,,,,,,,,,,,,,,,,,,,,6102126f393f8990e53d37e6,61036c7aa2ad00f34ebc7388,2021-07-29_22h05.56.675,Simcolourproject_2stim_asymm_v5,2020.2.10,MacIntel,60,61025ae37ef11b136ea224fe,,,,,,,,,3275,47.26531982,77.112854,1,0,0,response1disk,,7,14.78771973,15.10186768,1,0,0,rectangle,14.78771973,15.10186768,1,0,0,14.78771973,15.10186768,1,0,0,0,87,87,146,1,,,,,,,,
,,,,,,,,,,,,,FF,,,,,,,,0.5838,,,,,,,,,,,,,,,,,,,,,,6102126f393f8990e53d37e6,61036c7aa2ad00f34ebc7388,2021-07-29_22h05.56.675,Simcolourproject_2stim_asymm_v5,2020.2.10,MacIntel,60,61025ae37ef11b136ea224fe,,,,,,,,,1273,68.79077148,22.05395508,1,0,0,response1disk,,6,0.026367188,1.628051758,1,0,0,rectangle,0.026367188,1.628051758,1,0,0,0.026367188,1.628051758,1,0,0,0,88,88,131,1,,,,,,,,
,,,,,,,,,,,,,FF,,,,,,,,0.6335,,,,,,,,,,,,,,,,,,,,,,6102126f393f8990e53d37e6,61036c7aa2ad00f34ebc7388,2021-07-29_22h05.56.675,Simcolourproject_2stim_asymm_v5,2020.2.10,MacIntel,60,61025ae37ef11b136ea224fe,,,,,,,,,2966,39.84698486,72.80142212,1,0,0,response1disk,,7,24.58337402,11.16781616,1,0,0,rectangle,24.58337402,11.16781616,1,0,0,24.58337402,11.16781616,1,0,0,0,89,89,93,1,,,,,,,,
,,,,,,,,,,,,,FF,,,,,,,,1.2991,,,,,,,,,,,,,,,,,,,,,,6102126f393f8990e53d37e6,61036c7aa2ad00f34ebc7388,2021-07-29_22h05.56.675,Simcolourproject_2stim_asymm_v5,2020.2.10,MacIntel,60,61025ae37ef11b136ea224fe,,,,,,,,,1312,45.12481689,-55.47283936,1,0,0,response3disk,,4,11.24993896,7.500183105,1,0,0,rectangle,11.24993896,7.500183105,1,0,0,11.24993896,7.500183105,1,0,0,0,90,90,148,1,,,,,,,,
,,,,,,,,,,,,,FF,,,,,,,,0.9333,,,,,,,,,,,,,,,,,,,,,,6102126f393f8990e53d37e6,61036c7aa2ad00f34ebc7388,2021-07-29_22h05.56.675,Simcolourproject_2stim_asymm_v5,2020.2.10,MacIntel,60,61025ae37ef11b136ea224fe,,,,,,,,,3096,-27.82397461,66.24005127,1,0,0,response7disk,,0,-13.52563477,-0.023925781,1,0,0,rectangle,-13.52563477,-0.023925781,1,0,0,-13.52563477,-0.023925781,1,0,0,0,91,91,82,1,,,,,,,,
,,,,,,,,,,,,,FF,,,,,,,,1.0671,,,,,,,,,,,,,,,,,,,,,,6102126f393f8990e53d37e6,61036c7aa2ad00f34ebc7388,2021-07-29_22h05.56.675,Simcolourproject_2stim_asymm_v5,2020.2.10,MacIntel,60,61025ae37ef11b136ea224fe,,,,,,,,,4027,-75.85467529,25.81530762,1,0,0,response7disk,,1,-11.39685059,17.07678223,1,0,0,rectangle,-11.39685059,17.07678223,1,0,0,-11.39685059,17.07678223,1,0,0,0,92,92,40,1,,,,,,,,
,,,,,,,,,,,,,FF,,,,,,,,0.7669,,,,,,,,,,,,,,,,,,,,,,6102126f393f8990e53d37e6,61036c7aa2ad00f34ebc7388,2021-07-29_22h05.56.675,Simcolourproject_2stim_asymm_v5,2020.2.10,MacIntel,60,61025ae37ef11b136ea224fe,,,,,,,,,2179,42.00006104,92.27322388,1,0,0,response1disk,,7,-11.03546143,0.627258301,1,0,0,rectangle,-11.03546143,0.627258301,1,0,0,-11.03546143,0.627258301,1,0,0,0,93,93,14,1,,,,,,,,
,,,,,,,,,,,,,FF,,,,,,,,1.0166,,,,,,,,,,,,,,,,,,,,,,6102126f393f8990e53d37e6,61036c7aa2ad00f34ebc7388,2021-07-29_22h05.56.675,Simcolourproject_2stim_asymm_v5,2020.2.10,MacIntel,60,61025ae37ef11b136ea224fe,,,,,,,,,194,25.99645996,59.77880859,1,0,0,response1disk,,7,13.60015869,2.35736084,1,0,0,rectangle,13.60015869,2.35736084,1,0,0,13.60015869,2.35736084,1,0,0,0,94,94,69,1,,,,,,,,
,,,,,,,,,,,,,FF,,,,,,,,0.9838,,,,,,,,,,,,,,,,,,,,,,6102126f393f8990e53d37e6,61036c7aa2ad00f34ebc7388,2021-07-29_22h05.56.675,Simcolourproject_2stim_asymm_v5,2020.2.10,MacIntel,60,61025ae37ef11b136ea224fe,,,,,,,,,4188,-65.67926025,-100.8206787,1,0,0,response5disk,,3,-14.5737915,-12.01864624,1,0,0,rectangle,-14.5737915,-12.01864624,1,0,0,-14.5737915,-12.01864624,1,0,0,0,95,95,141,1,,,,,,,,
,,,,,,,,,,,,,FF,,,,,,,,1.5167,,,,,,,,,,,,,,,,,,,,,,6102126f393f8990e53d37e6,61036c7aa2ad00f34ebc7388,2021-07-29_22h05.56.675,Simcolourproject_2stim_asymm_v5,2020.2.10,MacIntel,60,61025ae37ef11b136ea224fe,,,,,,,,,2641,44.98706055,67.22149658,1,0,0,response1disk,,7,13.21435547,-5.154510498,1,0,0,rectangle,13.21435547,-5.154510498,1,0,0,13.21435547,-5.154510498,1,0,0,0,96,96,73,1,,,,,,,,
,,,,,,,,,,,,,FF,,,,,,,,0.6649,,,,,,,,,,,,,,,,,,,,,,6102126f393f8990e53d37e6,61036c7aa2ad00f34ebc7388,2021-07-29_22h05.56.675,Simcolourproject_2stim_asymm_v5,2020.2.10,MacIntel,60,61025ae37ef11b136ea224fe,,,,,,,,,183,32.8560791,58.8447876,1,0,0,response1disk,,7,-6.779296875,-16.80545044,1,0,0,rectangle,-6.779296875,-16.80545044,1,0,0,-6.779296875,-16.80545044,1,0,0,0,97,97,39,1,,,,,,,,
,,,,,,,,,,,,,FF,,,,,,,,1.0666,,,,,,,,,,,,,,,,,,,,,,6102126f393f8990e53d37e6,61036c7aa2ad00f34ebc7388,2021-07-29_22h05.56.675,Simcolourproject_2stim_asymm_v5,2020.2.10,MacIntel,60,61025ae37ef11b136ea224fe,,,,,,,,,1453,-38.10864258,-86.24298096,1,0,0,response5disk,,3,-3.736755371,-1.551422119,1,0,0,rectangle,-3.736755371,-1.551422119,1,0,0,-3.736755371,-1.551422119,1,0,0,0,98,98,137,1,,,,,,,,
,,,,,,,,,,,,,FF,,,,,,,,0.9667,,,,,,,,,,,,,,,,,,,,,,6102126f393f8990e53d37e6,61036c7aa2ad00f34ebc7388,2021-07-29_22h05.56.675,Simcolourproject_2stim_asymm_v5,2020.2.10,MacIntel,60,61025ae37ef11b136ea224fe,,,,,,,,,3790,-24.26544189,-69.22485352,1,0,0,response5disk,,3,12.81945801,1.45300293,1,0,0,rectangle,12.81945801,1.45300293,1,0,0,12.81945801,1.45300293,1,0,0,0,99,99,1,1,,,,,,,,
,,,,,,,,,,,,,FF,,,,,,,,1.2158,,,,,,,,,,,,,,,,,,,,,,6102126f393f8990e53d37e6,61036c7aa2ad00f34ebc7388,2021-07-29_22h05.56.675,Simcolourproject_2stim_asymm_v5,2020.2.10,MacIntel,60,61025ae37ef11b136ea224fe,,,,,,,,,1203,53.16918945,80.13470459,1,0,0,response1disk,,7,4.299072266,3.334960938,1,0,0,rectangle,-81.1673584,23.89718628,1,0,0,-6.046936035,-6.695343018,1,0,0,0,100,100,21,1,,response7disk_3,TRUE,1,1,"[199,240,162,141,245,133,206,266,196,151,28,218,280,19,233,302,101,180,217,102]",1.6685,rectangle
,,,,,,,,,,,,,FF,,,,,,,,0.7666,,,,,,,,,,,,,,,,,,,,,,6102126f393f8990e53d37e6,61036c7aa2ad00f34ebc7388,2021-07-29_22h05.56.675,Simcolourproject_2stim_asymm_v5,2020.2.10,MacIntel,60,61025ae37ef11b136ea224fe,,,,,,,,,2335,24.47625732,70.35903931,1,0,0,response1disk,,7,24.03344727,4.501312256,1,0,0,rectangle,19.0368042,-91.90936279,1,0,0,12.67211914,0.658538818,1,0,0,0,101,101,128,1,,response3disk_3,TRUE,4,4,"[199,240,162,141,245,133,206,266,196,151,28,218,280,19,233,302,101,180,217,102]",2.183,rectangle
,,,,,,,,,,,,,FF,,,,,,,,7.1167,,,,,,,,,,,,,,,,,,,,,,6102126f393f8990e53d37e6,61036c7aa2ad00f34ebc7388,2021-07-29_22h05.56.675,Simcolourproject_2stim_asymm_v5,2020.2.10,MacIntel,60,61025ae37ef11b136ea224fe,,,,,,,,,256,-37.62628174,-101.8250122,1,0,0,response5disk,,3,14.15368652,1.083618164,1,0,0,rectangle,14.15368652,1.083618164,1,0,0,14.15368652,1.083618164,1,0,0,0,102,102,110,1,,,,,,,,
,,,,,,,,,,,,,FF,,,,,,,,0.8987,,,,,,,,,,,,,,,,,,,,,,6102126f393f8990e53d37e6,61036c7aa2ad00f34ebc7388,2021-07-29_22h05.56.675,Simcolourproject_2stim_asymm_v5,2020.2.10,MacIntel,60,61025ae37ef11b136ea224fe,,,,,,,,,3000,-47.88635254,-83.715271,1,0,0,response5disk,,3,-8.419067383,-7.663116455,1,0,0,rectangle,-8.419067383,-7.663116455,1,0,0,-8.419067383,-7.663116455,1,0,0,0,103,103,158,1,,,,,,,,
,,,,,,,,,,,,,FF,,,,,,,,1.2339,,,,,,,,,,,,,,,,,,,,,,6102126f393f8990e53d37e6,61036c7aa2ad00f34ebc7388,2021-07-29_22h05.56.675,Simcolourproject_2stim_asymm_v5,2020.2.10,MacIntel,60,61025ae37ef11b136ea224fe,,,,,,,,,2376,55.87353516,90.23828125,1,0,0,response1disk,,7,8.625,-10.65283203,1,0,0,rectangle,8.625,-10.65283203,1,0,0,8.625,-10.65283203,1,0,0,0,104,104,19,1,,,,,,,,
,,,,,,,,,,,,,FF,,,,,,,,0.8339,,,,,,,,,,,,,,,,,,,,,,6102126f393f8990e53d37e6,61036c7aa2ad00f34ebc7388,2021-07-29_22h05.56.675,Simcolourproject_2stim_asymm_v5,2020.2.10,MacIntel,60,61025ae37ef11b136ea224fe,,,,,,,,,3989,21.69799805,45.484375,1,0,0,response1disk,,7,12.05517578,-13.39279175,1,0,0,rectangle,12.05517578,-13.39279175,1,0,0,12.05517578,-13.39279175,1,0,0,0,105,105,33,1,,,,,,,,
,,,,,,,,,,,,,FF,,,,,,,,1.1839,,,,,,,,,,,,,,,,,,,,,,6102126f393f8990e53d37e6,61036c7aa2ad00f34ebc7388,2021-07-29_22h05.56.675,Simcolourproject_2stim_asymm_v5,2020.2.10,MacIntel,60,61025ae37ef11b136ea224fe,,,,,,,,,4106,54.73461914,37.46536255,1,0,0,response1disk,,6,5.308654785,-0.641723633,1,0,0,rectangle,5.308654785,-0.641723633,1,0,0,5.308654785,-0.641723633,1,0,0,0,106,106,56,1,,,,,,,,
,,,,,,,,,,,,,FF,,,,,,,,0.7857,,,,,,,,,,,,,,,,,,,,,,6102126f393f8990e53d37e6,61036c7aa2ad00f34ebc7388,2021-07-29_22h05.56.675,Simcolourproject_2stim_asymm_v5,2020.2.10,MacIntel,60,61025ae37ef11b136ea224fe,,,,,,,,,3129,55.03991699,-25.52810669,1,0,0,response3disk,,5,11.54882813,-17.5942688,1,0,0,rectangle,11.54882813,-17.5942688,1,0,0,11.54882813,-17.5942688,1,0,0,0,107,107,138,1,,,,,,,,
,,,,,,,,,,,,,FF,,,,,,,,1.0825,,,,,,,,,,,,,,,,,,,,,,6102126f393f8990e53d37e6,61036c7aa2ad00f34ebc7388,2021-07-29_22h05.56.675,Simcolourproject_2stim_asymm_v5,2020.2.10,MacIntel,60,61025ae37ef11b136ea224fe,,,,,,,,,3682,-41.48242188,-80.12133789,1,0,0,response5disk,,3,4.89855957,-6.035339355,1,0,0,rectangle,4.89855957,-6.035339355,1,0,0,4.89855957,-6.035339355,1,0,0,0,108,108,75,1,,,,,,,,
,,,,,,,,,,,,,FF,,,,,,,,1.784,,,,,,,,,,,,,,,,,,,,,,6102126f393f8990e53d37e6,61036c7aa2ad00f34ebc7388,2021-07-29_22h05.56.675,Simcolourproject_2stim_asymm_v5,2020.2.10,MacIntel,60,61025ae37ef11b136ea224fe,,,,,,,,,741,47.74499512,65.06237793,1,0,0,response1disk,,7,14.62103271,6.631530762,1,0,0,rectangle,14.62103271,6.631530762,1,0,0,14.62103271,6.631530762,1,0,0,0,109,109,25,1,,,,,,,,
,,,,,,,,,,,,,FF,,,,,,,,1.1001,,,,,,,,,,,,,,,,,,,,,,6102126f393f8990e53d37e6,61036c7aa2ad00f34ebc7388,2021-07-29_22h05.56.675,Simcolourproject_2stim_asymm_v5,2020.2.10,MacIntel,60,61025ae37ef11b136ea224fe,,,,,,,,,558,70.33917236,-42.62298584,1,0,0,response3disk,,5,12.85040283,-5.059661865,1,0,0,rectangle,12.85040283,-5.059661865,1,0,0,12.85040283,-5.059661865,1,0,0,0,110,110,85,1,,,,,,,,
,,,,,,,,,,,,,FF,,,,,,,,1.0664,,,,,,,,,,,,,,,,,,,,,,6102126f393f8990e53d37e6,61036c7aa2ad00f34ebc7388,2021-07-29_22h05.56.675,Simcolourproject_2stim_asymm_v5,2020.2.10,MacIntel,60,61025ae37ef11b136ea224fe,,,,,,,,,3436,61.66699219,-48.37994385,1,0,0,response3disk,,5,16.65869141,-16.32107544,1,0,0,rectangle,16.65869141,-16.32107544,1,0,0,16.65869141,-16.32107544,1,0,0,0,111,111,111,1,,,,,,,,
,,,,,,,,,,,,,FF,,,,,,,,0.8504,,,,,,,,,,,,,,,,,,,,,,6102126f393f8990e53d37e6,61036c7aa2ad00f34ebc7388,2021-07-29_22h05.56.675,Simcolourproject_2stim_asymm_v5,2020.2.10,MacIntel,60,61025ae37ef11b136ea224fe,,,,,,,,,2981,25.199646,51.12341309,1,0,0,response1disk,,7,-11.87030029,-10.55484009,1,0,0,rectangle,-11.87030029,-10.55484009,1,0,0,-11.87030029,-10.55484009,1,0,0,0,112,112,12,1,,,,,,,,
,,,,,,,,,,,,,FF,,,,,,,,0.7838,,,,,,,,,,,,,,,,,,,,,,6102126f393f8990e53d37e6,61036c7aa2ad00f34ebc7388,2021-07-29_22h05.56.675,Simcolourproject_2stim_asymm_v5,2020.2.10,MacIntel,60,61025ae37ef11b136ea224fe,,,,,,,,,1779,28.45697021,75.93344116,1,0,0,response1disk,,7,5.227539063,6.439849854,1,0,0,rectangle,5.227539063,6.439849854,1,0,0,5.227539063,6.439849854,1,0,0,0,113,113,3,1,,,,,,,,
,,,,,,,,,,,,,FF,,,,,,,,0.6001,,,,,,,,,,,,,,,,,,,,,,6102126f393f8990e53d37e6,61036c7aa2ad00f34ebc7388,2021-07-29_22h05.56.675,Simcolourproject_2stim_asymm_v5,2020.2.10,MacIntel,60,61025ae37ef11b136ea224fe,,,,,,,,,879,20.6831665,50.2883606,1,0,0,response1disk,,7,20.6831665,-0.827667236,1,0,0,rectangle,20.6831665,-0.827667236,1,0,0,20.6831665,-0.827667236,1,0,0,0,114,114,46,1,,,,,,,,
,,,,,,,,,,,,,FF,,,,,,,,1.9989,,,,,,,,,,,,,,,,,,,,,,6102126f393f8990e53d37e6,61036c7aa2ad00f34ebc7388,2021-07-29_22h05.56.675,Simcolourproject_2stim_asymm_v5,2020.2.10,MacIntel,60,61025ae37ef11b136ea224fe,,,,,,,,,1385,30.39691162,45.51345825,1,0,0,response1disk,,7,-7.196411133,-11.42196655,1,0,0,rectangle,-7.196411133,-11.42196655,1,0,0,-7.196411133,-11.42196655,1,0,0,0,115,115,147,1,,,,,,,,
,,,,,,,,,,,,,FF,,,,,,,,0.9331,,,,,,,,,,,,,,,,,,,,,,6102126f393f8990e53d37e6,61036c7aa2ad00f34ebc7388,2021-07-29_22h05.56.675,Simcolourproject_2stim_asymm_v5,2020.2.10,MacIntel,60,61025ae37ef11b136ea224fe,,,,,,,,,3400,86.16864014,30.69754028,1,0,0,response1disk,,6,25.02966309,2.033660889,1,0,0,rectangle,25.02966309,2.033660889,1,0,0,25.02966309,2.033660889,1,0,0,0,116,116,22,1,,,,,,,,
,,,,,,,,,,,,,FF,,,,,,,,3.8499,,,,,,,,,,,,,,,,,,,,,,6102126f393f8990e53d37e6,61036c7aa2ad00f34ebc7388,2021-07-29_22h05.56.675,Simcolourproject_2stim_asymm_v5,2020.2.10,MacIntel,60,61025ae37ef11b136ea224fe,,,,,,,,,3737,72.76544189,29.80383301,1,0,0,response1disk,,6,22.38934326,16.27087402,1,0,0,rectangle,22.38934326,16.27087402,1,0,0,22.38934326,16.27087402,1,0,0,0,117,117,129,1,,,,,,,,
,,,,,,,,,,,,,FF,,,,,,,,0.6315,,,,,,,,,,,,,,,,,,,,,,6102126f393f8990e53d37e6,61036c7aa2ad00f34ebc7388,2021-07-29_22h05.56.675,Simcolourproject_2stim_asymm_v5,2020.2.10,MacIntel,60,61025ae37ef11b136ea224fe,,,,,,,,,3216,64.4510498,31.94937134,1,0,0,response1disk,,6,1.467529297,0.761871338,1,0,0,rectangle,1.467529297,0.761871338,1,0,0,1.467529297,0.761871338,1,0,0,0,118,118,66,1,,,,,,,,
,,,,,,,,,,,,,FF,,,,,,,,1.0499,,,,,,,,,,,,,,,,,,,,,,6102126f393f8990e53d37e6,61036c7aa2ad00f34ebc7388,2021-07-29_22h05.56.675,Simcolourproject_2stim_asymm_v5,2020.2.10,MacIntel,60,61025ae37ef11b136ea224fe,,,,,,,,,2165,-79.3973999,-35.61727905,1,0,0,response5disk,,2,5.860473633,5.776611328,1,0,0,rectangle,5.860473633,5.776611328,1,0,0,5.860473633,5.776611328,1,0,0,0,119,119,26,1,,,,,,,,
,,,,,,,,,,,,,FF,,,,,,,,1.4008,,,,,,,,,,,,,,,,,,,,,,6102126f393f8990e53d37e6,61036c7aa2ad00f34ebc7388,2021-07-29_22h05.56.675,Simcolourproject_2stim_asymm_v5,2020.2.10,MacIntel,60,61025ae37ef11b136ea224fe,,,,,,,,,3787,69.90588379,36.19812012,1,0,0,response1disk,,6,15.77636719,6.529663086,1,0,0,rectangle,15.77636719,6.529663086,1,0,0,15.77636719,6.529663086,1,0,0,0,120,120,78,1,,,,,,,,
,,,,,,,,,,,,,FF,,,,,,,,0.949,,,,,,,,,,,,,,,,,,,,,,6102126f393f8990e53d37e6,61036c7aa2ad00f34ebc7388,2021-07-29_22h05.56.675,Simcolourproject_2stim_asymm_v5,2020.2.10,MacIntel,60,61025ae37ef11b136ea224fe,,,,,,,,,4361,-40.37402344,86.02810669,1,0,0,response7disk,,0,-15.83074951,-8.227905273,1,0,0,rectangle,-15.83074951,-8.227905273,1,0,0,-15.83074951,-8.227905273,1,0,0,0,121,121,151,1,,,,,,,,
,,,,,,,,,,,,,FF,,,,,,,,4.4008,,,,,,,,,,,,,,,,,,,,,,6102126f393f8990e53d37e6,61036c7aa2ad00f34ebc7388,2021-07-29_22h05.56.675,Simcolourproject_2stim_asymm_v5,2020.2.10,MacIntel,60,61025ae37ef11b136ea224fe,,,,,,,,,3349,47.37536621,28.91448975,1,0,0,response1disk,,6,-0.578735352,-15.43743896,1,0,0,rectangle,-0.578735352,-15.43743896,1,0,0,-0.578735352,-15.43743896,1,0,0,0,122,122,44,1,,,,,,,,
,,,,,,,,,,,,,FF,,,,,,,,6.2497,,,,,,,,,,,,,,,,,,,,,,6102126f393f8990e53d37e6,61036c7aa2ad00f34ebc7388,2021-07-29_22h05.56.675,Simcolourproject_2stim_asymm_v5,2020.2.10,MacIntel,60,61025ae37ef11b136ea224fe,,,,,,,,,930,31.95141602,70.00500488,1,0,0,response1disk,,7,11.86169434,-3.667419434,1,0,0,rectangle,11.86169434,-3.667419434,1,0,0,11.86169434,-3.667419434,1,0,0,0,123,123,119,1,,,,,,,,
,,,,,,,,,,,,,FF,,,,,,,,2.5825,,,,,,,,,,,,,,,,,,,,,,6102126f393f8990e53d37e6,61036c7aa2ad00f34ebc7388,2021-07-29_22h05.56.675,Simcolourproject_2stim_asymm_v5,2020.2.10,MacIntel,60,61025ae37ef11b136ea224fe,,,,,,,,,1783,46.31530762,102.5703125,1,0,0,response1disk,,7,28.46380615,3.742279053,1,0,0,rectangle,28.46380615,3.742279053,1,0,0,28.46380615,3.742279053,1,0,0,0,124,124,118,1,,,,,,,,
,,,,,,,,,,,,,FF,,,,,,,,0.7155,,,,,,,,,,,,,,,,,,,,,,6102126f393f8990e53d37e6,61036c7aa2ad00f34ebc7388,2021-07-29_22h05.56.675,Simcolourproject_2stim_asymm_v5,2020.2.10,MacIntel,60,61025ae37ef11b136ea224fe,,,,,,,,,2559,42.13140869,82.17312622,1,0,0,response1disk,,7,7.120727539,0.573760986,1,0,0,rectangle,7.120727539,0.573760986,1,0,0,7.120727539,0.573760986,1,0,0,0,125,125,43,1,,,,,,,,
,,,,,,,,,,,,,FF,,,,,,,,1.1013,,,,,,,,,,,,,,,,,,,,,,6102126f393f8990e53d37e6,61036c7aa2ad00f34ebc7388,2021-07-29_22h05.56.675,Simcolourproject_2stim_asymm_v5,2020.2.10,MacIntel,60,61025ae37ef11b136ea224fe,,,,,,,,,3385,-56.82116699,37.62088013,1,0,0,response7disk,,1,-4.386779785,3.293457031,1,0,0,rectangle,-4.386779785,3.293457031,1,0,0,-4.386779785,3.293457031,1,0,0,0,126,126,0,1,,,,,,,,
,,,,,,,,,,,,,FF,,,,,,,,0.6834,,,,,,,,,,,,,,,,,,,,,,6102126f393f8990e53d37e6,61036c7aa2ad00f34ebc7388,2021-07-29_22h05.56.675,Simcolourproject_2stim_asymm_v5,2020.2.10,MacIntel,60,61025ae37ef11b136ea224fe,,,,,,,,,2996,-60.78381348,41.01281738,1,0,0,response7disk,,1,-11.61340332,6.423858643,1,0,0,rectangle,-11.61340332,6.423858643,1,0,0,-11.61340332,6.423858643,1,0,0,0,127,127,34,1,,,,,,,,
,,,,,,,,,,,,,FF,,,,,,,,0.8162,,,,,,,,,,,,,,,,,,,,,,6102126f393f8990e53d37e6,61036c7aa2ad00f34ebc7388,2021-07-29_22h05.56.675,Simcolourproject_2stim_asymm_v5,2020.2.10,MacIntel,60,61025ae37ef11b136ea224fe,,,,,,,,,4228,41.38885498,83.86972046,1,0,0,response1disk,,7,26.7880249,17.26818848,1,0,0,rectangle,26.7880249,17.26818848,1,0,0,26.7880249,17.26818848,1,0,0,0,128,128,125,1,,,,,,,,
,,,,,,,,,,,,,FF,,,,,,,,1.0991,,,,,,,,,,,,,,,,,,,,,,6102126f393f8990e53d37e6,61036c7aa2ad00f34ebc7388,2021-07-29_22h05.56.675,Simcolourproject_2stim_asymm_v5,2020.2.10,MacIntel,60,61025ae37ef11b136ea224fe,,,,,,,,,4222,-52.34637451,-33.29263306,1,0,0,response5disk,,2,-6.059570313,-11.13204956,1,0,0,rectangle,-6.059570313,-11.13204956,1,0,0,-6.059570313,-11.13204956,1,0,0,0,129,129,74,1,,,,,,,,
,,,,,,,,,,,,,FF,,,,,,,,1.0328,,,,,,,,,,,,,,,,,,,,,,6102126f393f8990e53d37e6,61036c7aa2ad00f34ebc7388,2021-07-29_22h05.56.675,Simcolourproject_2stim_asymm_v5,2020.2.10,MacIntel,60,61025ae37ef11b136ea224fe,,,,,,,,,3493,54.29943848,74.00024414,1,0,0,response1disk,,7,29.28430176,10.1048584,1,0,0,rectangle,29.28430176,10.1048584,1,0,0,29.28430176,10.1048584,1,0,0,0,130,130,31,1,,,,,,,,
,,,,,,,,,,,,,FF,,,,,,,,1.5,,,,,,,,,,,,,,,,,,,,,,6102126f393f8990e53d37e6,61036c7aa2ad00f34ebc7388,2021-07-29_22h05.56.675,Simcolourproject_2stim_asymm_v5,2020.2.10,MacIntel,60,61025ae37ef11b136ea224fe,,,,,,,,,2943,33.59197998,60.10571289,1,0,0,response1disk,,7,25.05767822,9.475372314,1,0,0,rectangle,25.05767822,9.475372314,1,0,0,25.05767822,9.475372314,1,0,0,0,131,131,38,1,,,,,,,,
,,,,,,,,,,,,,FF,,,,,,,,2.2148,,,,,,,,,,,,,,,,,,,,,,6102126f393f8990e53d37e6,61036c7aa2ad00f34ebc7388,2021-07-29_22h05.56.675,Simcolourproject_2stim_asymm_v5,2020.2.10,MacIntel,60,61025ae37ef11b136ea224fe,,,,,,,,,2052,45.06671143,65.65182495,1,0,0,response1disk,,7,29.92419434,7.700866699,1,0,0,rectangle,79.8895874,43.31826782,1,0,0,23.01708984,0.582397461,1,0,0,0,132,132,144,1,,response1disk_3,TRUE,6,6,"[199,240,162,141,245,133,206,266,196,151,28,218,280,19,233,302,101,180,217,102]",2.0185,rectangle
,,,,,,,,,,,,,FF,,,,,,,,3.1509,,,,,,,,,,,,,,,,,,,,,,6102126f393f8990e53d37e6,61036c7aa2ad00f34ebc7388,2021-07-29_22h05.56.675,Simcolourproject_2stim_asymm_v5,2020.2.10,MacIntel,60,61025ae37ef11b136ea224fe,,,,,,,,,3040,72.94604492,41.26693726,1,0,0,response1disk,,6,29.1729126,-1.357971191,1,0,0,rectangle,29.1729126,-1.357971191,1,0,0,29.1729126,-1.357971191,1,0,0,0,133,133,108,1,,,,,,,,
,,,,,,,,,,,,,FF,,,,,,,,0.6842,,,,,,,,,,,,,,,,,,,,,,6102126f393f8990e53d37e6,61036c7aa2ad00f34ebc7388,2021-07-29_22h05.56.675,Simcolourproject_2stim_asymm_v5,2020.2.10,MacIntel,60,61025ae37ef11b136ea224fe,,,,,,,,,1086,70.503479,63.1993103,1,0,0,response1disk,,6,28.99688721,0.670379639,1,0,0,rectangle,28.99688721,0.670379639,1,0,0,28.99688721,0.670379639,1,0,0,0,134,134,24,1,,,,,,,,
,,,,,,,,,,,,,FF,,,,,,,,0.6004,,,,,,,,,,,,,,,,,,,,,,6102126f393f8990e53d37e6,61036c7aa2ad00f34ebc7388,2021-07-29_22h05.56.675,Simcolourproject_2stim_asymm_v5,2020.2.10,MacIntel,60,61025ae37ef11b136ea224fe,,,,,,,,,51,74.87634277,36.26290894,1,0,0,response1disk,,6,15.88043213,7.367950439,1,0,0,rectangle,15.88043213,7.367950439,1,0,0,15.88043213,7.367950439,1,0,0,0,135,135,49,1,,,,,,,,
,,,,,,,,,,,,,FF,,,,,,,,1.6325,,,,,,,,,,,,,,,,,,,,,,6102126f393f8990e53d37e6,61036c7aa2ad00f34ebc7388,2021-07-29_22h05.56.675,Simcolourproject_2stim_asymm_v5,2020.2.10,MacIntel,60,61025ae37ef11b136ea224fe,,,,,,,,,2986,-30.07983398,-52.44165039,1,0,0,response5disk,,3,-0.676025391,-0.224487305,1,0,0,rectangle,-0.676025391,-0.224487305,1,0,0,-0.676025391,-0.224487305,1,0,0,0,136,136,60,1,,,,,,,,
,,,,,,,,,,,,,FF,,,,,,,,1.4007,,,,,,,,,,,,,,,,,,,,,,6102126f393f8990e53d37e6,61036c7aa2ad00f34ebc7388,2021-07-29_22h05.56.675,Simcolourproject_2stim_asymm_v5,2020.2.10,MacIntel,60,61025ae37ef11b136ea224fe,,,,,,,,,2365,-36.8447876,-85.18463135,1,0,0,response5disk,,3,-2.434997559,-16.08734131,1,0,0,rectangle,-2.434997559,-16.08734131,1,0,0,-2.434997559,-16.08734131,1,0,0,0,137,137,157,1,,,,,,,,
,,,,,,,,,,,,,FF,,,,,,,,0.9497,,,,,,,,,,,,,,,,,,,,,,6102126f393f8990e53d37e6,61036c7aa2ad00f34ebc7388,2021-07-29_22h05.56.675,Simcolourproject_2stim_asymm_v5,2020.2.10,MacIntel,60,61025ae37ef11b136ea224fe,,,,,,,,,3658,45.43737793,15.22113037,1,0,0,response1disk,,6,18.18267822,-0.683654785,1,0,0,rectangle,18.18267822,-0.683654785,1,0,0,18.18267822,-0.683654785,1,0,0,0,138,138,81,1,,,,,,,,
,,,,,,,,,,,,,FF,,,,,,,,0.6834,,,,,,,,,,,,,,,,,,,,,,6102126f393f8990e53d37e6,61036c7aa2ad00f34ebc7388,2021-07-29_22h05.56.675,Simcolourproject_2stim_asymm_v5,2020.2.10,MacIntel,60,61025ae37ef11b136ea224fe,,,,,,,,,3911,-38.71362305,-55.51620483,1,0,0,response5disk,,3,-5.920593262,-15.66314697,1,0,0,rectangle,-5.920593262,-15.66314697,1,0,0,-5.920593262,-15.66314697,1,0,0,0,139,139,120,1,,,,,,,,
,,,,,,,,,,,,,FF,,,,,,,,0.7843,,,,,,,,,,,,,,,,,,,,,,6102126f393f8990e53d37e6,61036c7aa2ad00f34ebc7388,2021-07-29_22h05.56.675,Simcolourproject_2stim_asymm_v5,2020.2.10,MacIntel,60,61025ae37ef11b136ea224fe,,,,,,,,,639,-35.53448486,-102.5076904,1,0,0,response5disk,,3,-5.206359863,-4.262390137,1,0,0,rectangle,-93.51672363,-47.28820801,1,0,0,11.99725342,-10.59991455,1,0,0,0,140,140,123,1,,response5disk_3,TRUE,2,2,"[199,240,162,141,245,133,206,266,196,151,28,218,280,19,233,302,101,180,217,102]",1.716,rectangle
,,,,,,,,,,,,,FF,,,,,,,,3.9684,,,,,,,,,,,,,,,,,,,,,,6102126f393f8990e53d37e6,61036c7aa2ad00f34ebc7388,2021-07-29_22h05.56.675,Simcolourproject_2stim_asymm_v5,2020.2.10,MacIntel,60,61025ae37ef11b136ea224fe,,,,,,,,,376,-43.08300781,-59.99966431,1,0,0,response5disk,,3,3.596618652,9.122619629,1,0,0,rectangle,3.596618652,9.122619629,1,0,0,3.596618652,9.122619629,1,0,0,0,141,141,115,1,,,,,,,,
,,,,,,,,,,,,,FF,,,,,,,,3.1333,,,,,,,,,,,,,,,,,,,,,,6102126f393f8990e53d37e6,61036c7aa2ad00f34ebc7388,2021-07-29_22h05.56.675,Simcolourproject_2stim_asymm_v5,2020.2.10,MacIntel,60,61025ae37ef11b136ea224fe,,,,,,,,,3817,43.96282959,-86.9609375,1,0,0,response3disk,,4,6.921386719,-1.059051514,1,0,0,rectangle,6.921386719,-1.059051514,1,0,0,6.921386719,-1.059051514,1,0,0,0,142,142,7,1,,,,,,,,
,,,,,,,,,,,,,FF,,,,,,,,0.9519,,,,,,,,,,,,,,,,,,,,,,6102126f393f8990e53d37e6,61036c7aa2ad00f34ebc7388,2021-07-29_22h05.56.675,Simcolourproject_2stim_asymm_v5,2020.2.10,MacIntel,60,61025ae37ef11b136ea224fe,,,,,,,,,2125,47.83636475,93.70361328,1,0,0,response1disk,,7,19.32073975,-15.50579834,1,0,0,rectangle,19.32073975,-15.50579834,1,0,0,19.32073975,-15.50579834,1,0,0,0,143,143,124,1,,,,,,,,
,,,,,,,,,,,,,FF,,,,,,,,1.2008,,,,,,,,,,,,,,,,,,,,,,6102126f393f8990e53d37e6,61036c7aa2ad00f34ebc7388,2021-07-29_22h05.56.675,Simcolourproject_2stim_asymm_v5,2020.2.10,MacIntel,60,61025ae37ef11b136ea224fe,,,,,,,,,330,41.88018799,89.94979858,1,0,0,response1disk,,7,22.99487305,-12.39254761,1,0,0,rectangle,22.99487305,-12.39254761,1,0,0,22.99487305,-12.39254761,1,0,0,0,144,144,67,1,,,,,,,,
,,,,,,,,,,,,,FF,,,,,,,,0.7329,,,,,,,,,,,,,,,,,,,,,,6102126f393f8990e53d37e6,61036c7aa2ad00f34ebc7388,2021-07-29_22h05.56.675,Simcolourproject_2stim_asymm_v5,2020.2.10,MacIntel,60,61025ae37ef11b136ea224fe,,,,,,,,,1371,-70.61474609,-36.96069336,1,0,0,response5disk,,2,26.95043945,8.721160889,1,0,0,rectangle,26.95043945,8.721160889,1,0,0,26.95043945,8.721160889,1,0,0,0,145,145,54,1,,,,,,,,
,,,,,,,,,,,,,FF,,,,,,,,1.4325,,,,,,,,,,,,,,,,,,,,,,6102126f393f8990e53d37e6,61036c7aa2ad00f34ebc7388,2021-07-29_22h05.56.675,Simcolourproject_2stim_asymm_v5,2020.2.10,MacIntel,60,61025ae37ef11b136ea224fe,,,,,,,,,3088,75.62249756,33.5274353,1,0,0,response1disk,,6,-6.023803711,5.476776123,1,0,0,rectangle,-6.023803711,5.476776123,1,0,0,-6.023803711,5.476776123,1,0,0,0,146,146,64,1,,,,,,,,
,,,,,,,,,,,,,FF,,,,,,,,1.8992,,,,,,,,,,,,,,,,,,,,,,6102126f393f8990e53d37e6,61036c7aa2ad00f34ebc7388,2021-07-29_22h05.56.675,Simcolourproject_2stim_asymm_v5,2020.2.10,MacIntel,60,61025ae37ef11b136ea224fe,,,,,,,,,2047,27.26495361,61.07141113,1,0,0,response1disk,,7,10.9519043,-7.032775879,1,0,0,rectangle,10.9519043,-7.032775879,1,0,0,10.9519043,-7.032775879,1,0,0,0,147,147,114,1,,,,,,,,
,,,,,,,,,,,,,FF,,,,,,,,1.2825,,,,,,,,,,,,,,,,,,,,,,6102126f393f8990e53d37e6,61036c7aa2ad00f34ebc7388,2021-07-29_22h05.56.675,Simcolourproject_2stim_asymm_v5,2020.2.10,MacIntel,60,61025ae37ef11b136ea224fe,,,,,,,,,4130,52.49884033,-23.71575928,1,0,0,response3disk,,5,27.12249756,3.478546143,1,0,0,rectangle,27.12249756,3.478546143,1,0,0,27.12249756,3.478546143,1,0,0,0,148,148,23,1,,,,,,,,
,,,,,,,,,,,,,FF,,,,,,,,1.1352,,,,,,,,,,,,,,,,,,,,,,6102126f393f8990e53d37e6,61036c7aa2ad00f34ebc7388,2021-07-29_22h05.56.675,Simcolourproject_2stim_asymm_v5,2020.2.10,MacIntel,60,61025ae37ef11b136ea224fe,,,,,,,,,2658,33.0914917,-83.98474121,1,0,0,response3disk,,4,24.14001465,-9.229400635,1,0,0,rectangle,24.14001465,-9.229400635,1,0,0,24.14001465,-9.229400635,1,0,0,0,149,149,84,1,,,,,,,,
,,,,,,,,,,,,,FF,,,,,,,,2.7669,,,,,,,,,,,,,,,,,,,,,,6102126f393f8990e53d37e6,61036c7aa2ad00f34ebc7388,2021-07-29_22h05.56.675,Simcolourproject_2stim_asymm_v5,2020.2.10,MacIntel,60,61025ae37ef11b136ea224fe,,,,,,,,,1696,37.24456787,87.53814697,1,0,0,response1disk,,7,12.2756958,11.59255981,1,0,0,rectangle,-41.60540771,-75.9552002,1,0,0,6.978759766,-9.354278564,1,0,0,0,150,150,121,1,,response5disk_3,TRUE,3,3,"[199,240,162,141,245,133,206,266,196,151,28,218,280,19,233,302,101,180,217,102]",1.8493,rectangle
,,,,,,,,,,,,,FF,,,,,,,,0.7675,,,,,,,,,,,,,,,,,,,,,,6102126f393f8990e53d37e6,61036c7aa2ad00f34ebc7388,2021-07-29_22h05.56.675,Simcolourproject_2stim_asymm_v5,2020.2.10,MacIntel,60,61025ae37ef11b136ea224fe,,,,,,,,,2408,35.71881104,41.75183105,1,0,0,response1disk,,7,16.36425781,-10.1651001,1,0,0,rectangle,16.36425781,-10.1651001,1,0,0,16.36425781,-10.1651001,1,0,0,0,151,151,80,1,,,,,,,,
,,,,,,,,,,,,,FF,,,,,,,,0.5161,,,,,,,,,,,,,,,,,,,,,,6102126f393f8990e53d37e6,61036c7aa2ad00f34ebc7388,2021-07-29_22h05.56.675,Simcolourproject_2stim_asymm_v5,2020.2.10,MacIntel,60,61025ae37ef11b136ea224fe,,,,,,,,,4136,39.60247803,71.25125122,1,0,0,response1disk,,7,20.5682373,7.051269531,1,0,0,rectangle,20.5682373,7.051269531,1,0,0,20.5682373,7.051269531,1,0,0,0,152,152,98,1,,,,,,,,
,,,,,,,,,,,,,FF,,,,,,,,1.3165,,,,,,,,,,,,,,,,,,,,,,6102126f393f8990e53d37e6,61036c7aa2ad00f34ebc7388,2021-07-29_22h05.56.675,Simcolourproject_2stim_asymm_v5,2020.2.10,MacIntel,60,61025ae37ef11b136ea224fe,,,,,,,,,817,27.69848633,-90.24615479,1,0,0,response3disk,,4,6.494506836,1.391662598,1,0,0,rectangle,6.494506836,1.391662598,1,0,0,6.494506836,1.391662598,1,0,0,0,153,153,86,1,,,,,,,,
,,,,,,,,,,,,,FF,,,,,,,,1.4513,,,,,,,,,,,,,,,,,,,,,,6102126f393f8990e53d37e6,61036c7aa2ad00f34ebc7388,2021-07-29_22h05.56.675,Simcolourproject_2stim_asymm_v5,2020.2.10,MacIntel,60,61025ae37ef11b136ea224fe,,,,,,,,,1272,44.00305176,57.50320435,1,0,0,response1disk,,7,10.70220947,-2.264984131,1,0,0,rectangle,10.70220947,-2.264984131,1,0,0,10.70220947,-2.264984131,1,0,0,0,154,154,145,1,,,,,,,,
,,,,,,,,,,,,,FF,,,,,,,,1.3832,,,,,,,,,,,,,,,,,,,,,,6102126f393f8990e53d37e6,61036c7aa2ad00f34ebc7388,2021-07-29_22h05.56.675,Simcolourproject_2stim_asymm_v5,2020.2.10,MacIntel,60,61025ae37ef11b136ea224fe,,,,,,,,,1826,-48.64978027,-60.09881592,1,0,0,response5disk,,3,21.21179199,2.776855469,1,0,0,rectangle,21.21179199,2.776855469,1,0,0,21.21179199,2.776855469,1,0,0,0,155,155,95,1,,,,,,,,
,,,,,,,,,,,,,FF,,,,,,,,1.1327,,,,,,,,,,,,,,,,,,,,,,6102126f393f8990e53d37e6,61036c7aa2ad00f34ebc7388,2021-07-29_22h05.56.675,Simcolourproject_2stim_asymm_v5,2020.2.10,MacIntel,60,61025ae37ef11b136ea224fe,,,,,,,,,3474,36.06744385,-96.29248047,1,0,0,response3disk,,4,21.29425049,-4.681427002,1,0,0,rectangle,21.29425049,-4.681427002,1,0,0,21.29425049,-4.681427002,1,0,0,0,156,156,116,1,,,,,,,,
,,,,,,,,,,,,,FF,,,,,,,,3.617,,,,,,,,,,,,,,,,,,,,,,6102126f393f8990e53d37e6,61036c7aa2ad00f34ebc7388,2021-07-29_22h05.56.675,Simcolourproject_2stim_asymm_v5,2020.2.10,MacIntel,60,61025ae37ef11b136ea224fe,,,,,,,,,3262,16.23883057,45.56838989,1,0,0,response1disk,,7,15.98071289,8.760894775,1,0,0,rectangle,15.98071289,8.760894775,1,0,0,15.98071289,8.760894775,1,0,0,0,157,157,13,1,,,,,,,,
,,,,,,,,,,,,,FF,,,,,,,,0.9335,,,,,,,,,,,,,,,,,,,,,,6102126f393f8990e53d37e6,61036c7aa2ad00f34ebc7388,2021-07-29_22h05.56.675,Simcolourproject_2stim_asymm_v5,2020.2.10,MacIntel,60,61025ae37ef11b136ea224fe,,,,,,,,,3674,35.11700439,-66.53063965,1,0,0,response3disk,,4,7.962158203,3.85748291,1,0,0,rectangle,7.962158203,3.85748291,1,0,0,7.962158203,3.85748291,1,0,0,0,158,158,16,1,,,,,,,,
,,,,,,,,,,,,,FF,,,,,,,,1.6177,,,,,,,,,,,,,,,,,,,,,,6102126f393f8990e53d37e6,61036c7aa2ad00f34ebc7388,2021-07-29_22h05.56.675,Simcolourproject_2stim_asymm_v5,2020.2.10,MacIntel,60,61025ae37ef11b136ea224fe,,,,,,,,,2582,43.37072754,22.62585449,1,0,0,response1disk,,6,-16.12158203,-1.552886963,1,0,0,rectangle,-16.12158203,-1.552886963,1,0,0,-16.12158203,-1.552886963,1,0,0,0,159,159,61,1,,,,,,,,
,,,,,,,,,,,,,FF,,,,,,,,1.6004,,,,,,,,,,,,,,,,,,,,,,6102126f393f8990e53d37e6,61036c7aa2ad00f34ebc7388,2021-07-29_22h05.56.675,Simcolourproject_2stim_asymm_v5,2020.2.10,MacIntel,60,61025ae37ef11b136ea224fe,,,,,,,,,4021,-96.14569092,-48.85372925,1,0,0,response5disk,,2,-13.34667969,-13.58218384,1,0,0,rectangle,-13.34667969,-13.58218384,1,0,0,-13.34667969,-13.58218384,1,0,0,1,0,160,111,1,,,,,,,,
,,,,,,,,,,,,,FF,,,,,,,,4.9327,,,,,,,,,,,,,,,,,,,,,,6102126f393f8990e53d37e6,61036c7aa2ad00f34ebc7388,2021-07-29_22h05.56.675,Simcolourproject_2stim_asymm_v5,2020.2.10,MacIntel,60,61025ae37ef11b136ea224fe,,,,,,,,,273,38.64227295,-74.55163574,1,0,0,response3disk,,4,8.043273926,-2.135986328,1,0,0,rectangle,70.14752197,46.07293701,1,0,0,7.175354004,-7.262969971,1,0,0,1,1,161,31,1,,response1disk_3,TRUE,6,6,"[199,240,162,141,245,133,206,266,196,151,28,218,280,19,233,302,101,180,217,102]",1.5662,rectangle
,,,,,,,,,,,,,FF,,,,,,,,0.8015,,,,,,,,,,,,,,,,,,,,,,6102126f393f8990e53d37e6,61036c7aa2ad00f34ebc7388,2021-07-29_22h05.56.675,Simcolourproject_2stim_asymm_v5,2020.2.10,MacIntel,60,61025ae37ef11b136ea224fe,,,,,,,,,1713,45.02844238,91.38754272,1,0,0,response1disk,,7,26.6685791,11.37988281,1,0,0,rectangle,26.6685791,11.37988281,1,0,0,26.6685791,11.37988281,1,0,0,1,2,162,25,1,,,,,,,,
,,,,,,,,,,,,,FF,,,,,,,,0.9336,,,,,,,,,,,,,,,,,,,,,,6102126f393f8990e53d37e6,61036c7aa2ad00f34ebc7388,2021-07-29_22h05.56.675,Simcolourproject_2stim_asymm_v5,2020.2.10,MacIntel,60,61025ae37ef11b136ea224fe,,,,,,,,,1293,-34.12554932,-78.66394043,1,0,0,response5disk,,3,7.996582031,-2.61630249,1,0,0,rectangle,7.996582031,-2.61630249,1,0,0,7.996582031,-2.61630249,1,0,0,1,3,163,131,1,,,,,,,,
,,,,,,,,,,,,,FF,,,,,,,,0.8821,,,,,,,,,,,,,,,,,,,,,,6102126f393f8990e53d37e6,61036c7aa2ad00f34ebc7388,2021-07-29_22h05.56.675,Simcolourproject_2stim_asymm_v5,2020.2.10,MacIntel,60,61025ae37ef11b136ea224fe,,,,,,,,,3186,27.86352539,58.64242554,1,0,0,response1disk,,7,15.42962646,-13.85211182,1,0,0,rectangle,15.42962646,-13.85211182,1,0,0,15.42962646,-13.85211182,1,0,0,1,4,164,70,1,,,,,,,,
,,,,,,,,,,,,,FF,,,,,,,,1.5491,,,,,,,,,,,,,,,,,,,,,,6102126f393f8990e53d37e6,61036c7aa2ad00f34ebc7388,2021-07-29_22h05.56.675,Simcolourproject_2stim_asymm_v5,2020.2.10,MacIntel,60,61025ae37ef11b136ea224fe,,,,,,,,,894,47.25177002,-65.58636475,1,0,0,response3disk,,4,18.41204834,-13.90814209,1,0,0,rectangle,18.41204834,-13.90814209,1,0,0,18.41204834,-13.90814209,1,0,0,1,5,165,155,1,,,,,,,,
,,,,,,,,,,,,,FF,,,,,,,,0.8502,,,,,,,,,,,,,,,,,,,,,,6102126f393f8990e53d37e6,61036c7aa2ad00f34ebc7388,2021-07-29_22h05.56.675,Simcolourproject_2stim_asymm_v5,2020.2.10,MacIntel,60,61025ae37ef11b136ea224fe,,,,,,,,,4231,28.73822021,79.98617554,1,0,0,response1disk,,7,19.01812744,-7.176208496,1,0,0,rectangle,19.01812744,-7.176208496,1,0,0,19.01812744,-7.176208496,1,0,0,1,6,166,107,1,,,,,,,,
,,,,,,,,,,,,,FF,,,,,,,,0.683,,,,,,,,,,,,,,,,,,,,,,6102126f393f8990e53d37e6,61036c7aa2ad00f34ebc7388,2021-07-29_22h05.56.675,Simcolourproject_2stim_asymm_v5,2020.2.10,MacIntel,60,61025ae37ef11b136ea224fe,,,,,,,,,2159,55.63262939,81.95812988,1,0,0,response1disk,,7,20.14569092,-0.012023926,1,0,0,rectangle,20.14569092,-0.012023926,1,0,0,20.14569092,-0.012023926,1,0,0,1,7,167,74,1,,,,,,,,
,,,,,,,,,,,,,FF,,,,,,,,0.8158,,,,,,,,,,,,,,,,,,,,,,6102126f393f8990e53d37e6,61036c7aa2ad00f34ebc7388,2021-07-29_22h05.56.675,Simcolourproject_2stim_asymm_v5,2020.2.10,MacIntel,60,61025ae37ef11b136ea224fe,,,,,,,,,4115,68.31542969,25.53149414,1,0,0,response1disk,,6,7.464660645,-0.986572266,1,0,0,rectangle,7.464660645,-0.986572266,1,0,0,7.464660645,-0.986572266,1,0,0,1,8,168,152,1,,,,,,,,
,,,,,,,,,,,,,FF,,,,,,,,0.9659,,,,,,,,,,,,,,,,,,,,,,6102126f393f8990e53d37e6,61036c7aa2ad00f34ebc7388,2021-07-29_22h05.56.675,Simcolourproject_2stim_asymm_v5,2020.2.10,MacIntel,60,61025ae37ef11b136ea224fe,,,,,,,,,1347,84.26586914,43.77905273,1,0,0,response1disk,,6,25.54974365,10.36761475,1,0,0,rectangle,25.54974365,10.36761475,1,0,0,25.54974365,10.36761475,1,0,0,1,9,169,21,1,,,,,,,,
,,,,,,,,,,,,,FF,,,,,,,,0.9166,,,,,,,,,,,,,,,,,,,,,,6102126f393f8990e53d37e6,61036c7aa2ad00f34ebc7388,2021-07-29_22h05.56.675,Simcolourproject_2stim_asymm_v5,2020.2.10,MacIntel,60,61025ae37ef11b136ea224fe,,,,,,,,,2145,41.43920898,50.78015137,1,0,0,response1disk,,7,27.90460205,14.17633057,1,0,0,rectangle,27.90460205,14.17633057,1,0,0,27.90460205,14.17633057,1,0,0,1,10,170,59,1,,,,,,,,
,,,,,,,,,,,,,FF,,,,,,,,12.0504,,,,,,,,,,,,,,,,,,,,,,6102126f393f8990e53d37e6,61036c7aa2ad00f34ebc7388,2021-07-29_22h05.56.675,Simcolourproject_2stim_asymm_v5,2020.2.10,MacIntel,60,61025ae37ef11b136ea224fe,,,,,,,,,1410,59.94897461,23.34603882,1,0,0,response1disk,,6,4.391235352,9.024078369,1,0,0,rectangle,4.391235352,9.024078369,1,0,0,4.391235352,9.024078369,1,0,0,1,11,171,35,1,,,,,,,,
,,,,,,,,,,,,,FF,,,,,,,,1.6995,,,,,,,,,,,,,,,,,,,,,,6102126f393f8990e53d37e6,61036c7aa2ad00f34ebc7388,2021-07-29_22h05.56.675,Simcolourproject_2stim_asymm_v5,2020.2.10,MacIntel,60,61025ae37ef11b136ea224fe,,,,,,,,,4129,57.90142822,39.65701294,1,0,0,response1disk,,6,1.281677246,1.359802246,1,0,0,rectangle,1.281677246,1.359802246,1,0,0,1.281677246,1.359802246,1,0,0,1,12,172,37,1,,,,,,,,
,,,,,,,,,,,,,FF,,,,,,,,1.6497,,,,,,,,,,,,,,,,,,,,,,6102126f393f8990e53d37e6,61036c7aa2ad00f34ebc7388,2021-07-29_22h05.56.675,Simcolourproject_2stim_asymm_v5,2020.2.10,MacIntel,60,61025ae37ef11b136ea224fe,,,,,,,,,1091,25.87896729,78.76065063,1,0,0,response1disk,,7,24.85766602,-13.63641357,1,0,0,rectangle,24.85766602,-13.63641357,1,0,0,24.85766602,-13.63641357,1,0,0,1,13,173,75,1,,,,,,,,
,,,,,,,,,,,,,FF,,,,,,,,0.6165,,,,,,,,,,,,,,,,,,,,,,6102126f393f8990e53d37e6,61036c7aa2ad00f34ebc7388,2021-07-29_22h05.56.675,Simcolourproject_2stim_asymm_v5,2020.2.10,MacIntel,60,61025ae37ef11b136ea224fe,,,,,,,,,1664,34.2878418,62.2293396,1,0,0,response1disk,,7,13.98858643,4.251922607,1,0,0,rectangle,13.98858643,4.251922607,1,0,0,13.98858643,4.251922607,1,0,0,1,14,174,15,1,,,,,,,,
,,,,,,,,,,,,,FF,,,,,,,,1.3004,,,,,,,,,,,,,,,,,,,,,,6102126f393f8990e53d37e6,61036c7aa2ad00f34ebc7388,2021-07-29_22h05.56.675,Simcolourproject_2stim_asymm_v5,2020.2.10,MacIntel,60,61025ae37ef11b136ea224fe,,,,,,,,,3996,44.90875244,-86.465271,1,0,0,response3disk,,4,14.27630615,-7.10144043,1,0,0,rectangle,14.27630615,-7.10144043,1,0,0,14.27630615,-7.10144043,1,0,0,1,15,175,48,1,,,,,,,,
,,,,,,,,,,,,,FF,,,,,,,,1.8493,,,,,,,,,,,,,,,,,,,,,,6102126f393f8990e53d37e6,61036c7aa2ad00f34ebc7388,2021-07-29_22h05.56.675,Simcolourproject_2stim_asymm_v5,2020.2.10,MacIntel,60,61025ae37ef11b136ea224fe,,,,,,,,,3831,45.34362793,99.16894531,1,0,0,response1disk,,7,26.90917969,-11.06140137,1,0,0,rectangle,26.90917969,-11.06140137,1,0,0,26.90917969,-11.06140137,1,0,0,1,16,176,86,1,,,,,,,,
,,,,,,,,,,,,,FF,,,,,,,,0.6993,,,,,,,,,,,,,,,,,,,,,,6102126f393f8990e53d37e6,61036c7aa2ad00f34ebc7388,2021-07-29_22h05.56.675,Simcolourproject_2stim_asymm_v5,2020.2.10,MacIntel,60,61025ae37ef11b136ea224fe,,,,,,,,,3036,33.85546875,64.69378662,1,0,0,response1disk,,7,7.000610352,5.98526001,1,0,0,rectangle,7.000610352,5.98526001,1,0,0,7.000610352,5.98526001,1,0,0,1,17,177,45,1,,,,,,,,
,,,,,,,,,,,,,FF,,,,,,,,1.0168,,,,,,,,,,,,,,,,,,,,,,6102126f393f8990e53d37e6,61036c7aa2ad00f34ebc7388,2021-07-29_22h05.56.675,Simcolourproject_2stim_asymm_v5,2020.2.10,MacIntel,60,61025ae37ef11b136ea224fe,,,,,,,,,774,-65.40740967,-77.26885986,1,0,0,response5disk,,3,-10.29455566,-12.48733521,1,0,0,rectangle,-10.29455566,-12.48733521,1,0,0,-10.29455566,-12.48733521,1,0,0,1,18,178,11,1,,,,,,,,
,,,,,,,,,,,,,FF,,,,,,,,0.8176,,,,,,,,,,,,,,,,,,,,,,6102126f393f8990e53d37e6,61036c7aa2ad00f34ebc7388,2021-07-29_22h05.56.675,Simcolourproject_2stim_asymm_v5,2020.2.10,MacIntel,60,61025ae37ef11b136ea224fe,,,,,,,,,1729,28.62957764,52.74038696,1,0,0,response1disk,,7,13.43011475,8.060760498,1,0,0,rectangle,-37.95825195,101.1951599,1,0,0,-13.69134521,2.226654053,1,0,0,1,19,179,10,1,,response7disk_3,TRUE,0,0,"[199,240,162,141,245,133,206,266,196,151,28,218,280,19,233,302,101,180,217,102]",1.8996,rectangle
,,,,,,,,,,,,,FF,,,,,,,,78.3934,,,,,,,,,,,,,,,,,,,,,,6102126f393f8990e53d37e6,61036c7aa2ad00f34ebc7388,2021-07-29_22h05.56.675,Simcolourproject_2stim_asymm_v5,2020.2.10,MacIntel,60,61025ae37ef11b136ea224fe,,,,,,,,,2399,-37.76147461,-68.28820801,1,0,0,response5disk,,3,2.248352051,4.124511719,1,0,0,rectangle,2.248352051,4.124511719,1,0,0,2.248352051,4.124511719,1,0,0,1,20,180,29,1,,,,,,,,
,,,,,,,,,,,,,FF,,,,,,,,0.6494,,,,,,,,,,,,,,,,,,,,,,6102126f393f8990e53d37e6,61036c7aa2ad00f34ebc7388,2021-07-29_22h05.56.675,Simcolourproject_2stim_asymm_v5,2020.2.10,MacIntel,60,61025ae37ef11b136ea224fe,,,,,,,,,1762,-29.19696045,-73.21820068,1,0,0,response5disk,,3,-8.522094727,3.763366699,1,0,0,rectangle,-8.522094727,3.763366699,1,0,0,-8.522094727,3.763366699,1,0,0,1,21,181,30,1,,,,,,,,
,,,,,,,,,,,,,FF,,,,,,,,2.4017,,,,,,,,,,,,,,,,,,,,,,6102126f393f8990e53d37e6,61036c7aa2ad00f34ebc7388,2021-07-29_22h05.56.675,Simcolourproject_2stim_asymm_v5,2020.2.10,MacIntel,60,61025ae37ef11b136ea224fe,,,,,,,,,2736,41.20056152,-70.58117676,1,0,0,response3disk,,4,19.49920654,6.843017578,1,0,0,rectangle,19.49920654,6.843017578,1,0,0,19.49920654,6.843017578,1,0,0,1,22,182,66,1,,,,,,,,
,,,,,,,,,,,,,FF,,,,,,,,0.5843,,,,,,,,,,,,,,,,,,,,,,6102126f393f8990e53d37e6,61036c7aa2ad00f34ebc7388,2021-07-29_22h05.56.675,Simcolourproject_2stim_asymm_v5,2020.2.10,MacIntel,60,61025ae37ef11b136ea224fe,,,,,,,,,1652,30.30889893,57.60061646,1,0,0,response1disk,,7,11.65148926,-17.131073,1,0,0,rectangle,11.65148926,-17.131073,1,0,0,11.65148926,-17.131073,1,0,0,1,23,183,9,1,,,,,,,,
,,,,,,,,,,,,,FF,,,,,,,,0.5834,,,,,,,,,,,,,,,,,,,,,,6102126f393f8990e53d37e6,61036c7aa2ad00f34ebc7388,2021-07-29_22h05.56.675,Simcolourproject_2stim_asymm_v5,2020.2.10,MacIntel,60,61025ae37ef11b136ea224fe,,,,,,,,,4079,25.6494751,46.12359619,1,0,0,response1disk,,7,21.6706543,11.3454895,1,0,0,rectangle,21.6706543,11.3454895,1,0,0,21.6706543,11.3454895,1,0,0,1,24,184,100,1,,,,,,,,
,,,,,,,,,,,,,FF,,,,,,,,0.8636,,,,,,,,,,,,,,,,,,,,,,6102126f393f8990e53d37e6,61036c7aa2ad00f34ebc7388,2021-07-29_22h05.56.675,Simcolourproject_2stim_asymm_v5,2020.2.10,MacIntel,60,61025ae37ef11b136ea224fe,,,,,,,,,1150,64.52008057,28.16384888,1,0,0,response1disk,,6,6.937927246,-1.506988525,1,0,0,rectangle,6.937927246,-1.506988525,1,0,0,6.937927246,-1.506988525,1,0,0,1,25,185,125,1,,,,,,,,
,,,,,,,,,,,,,FF,,,,,,,,0.8661,,,,,,,,,,,,,,,,,,,,,,6102126f393f8990e53d37e6,61036c7aa2ad00f34ebc7388,2021-07-29_22h05.56.675,Simcolourproject_2stim_asymm_v5,2020.2.10,MacIntel,60,61025ae37ef11b136ea224fe,,,,,,,,,3423,112.706665,34.18664551,1,0,0,response1disk,,6,19.84625244,1.342681885,1,0,0,rectangle,19.84625244,1.342681885,1,0,0,19.84625244,1.342681885,1,0,0,1,26,186,26,1,,,,,,,,
,,,,,,,,,,,,,FF,,,,,,,,1.0142,,,,,,,,,,,,,,,,,,,,,,6102126f393f8990e53d37e6,61036c7aa2ad00f34ebc7388,2021-07-29_22h05.56.675,Simcolourproject_2stim_asymm_v5,2020.2.10,MacIntel,60,61025ae37ef11b136ea224fe,,,,,,,,,3667,91.70251465,26.76989746,1,0,0,response1disk,,6,-4.560302734,0.979125977,1,0,0,rectangle,-4.560302734,0.979125977,1,0,0,-4.560302734,0.979125977,1,0,0,1,27,187,54,1,,,,,,,,
,,,,,,,,,,,,,FF,,,,,,,,0.7003,,,,,,,,,,,,,,,,,,,,,,6102126f393f8990e53d37e6,61036c7aa2ad00f34ebc7388,2021-07-29_22h05.56.675,Simcolourproject_2stim_asymm_v5,2020.2.10,MacIntel,60,61025ae37ef11b136ea224fe,,,,,,,,,105,61.59082031,28.86047363,1,0,0,response1disk,,6,4.186767578,8.766815186,1,0,0,rectangle,4.186767578,8.766815186,1,0,0,4.186767578,8.766815186,1,0,0,1,28,188,87,1,,,,,,,,
,,,,,,,,,,,,,FF,,,,,,,,0.7659,,,,,,,,,,,,,,,,,,,,,,6102126f393f8990e53d37e6,61036c7aa2ad00f34ebc7388,2021-07-29_22h05.56.675,Simcolourproject_2stim_asymm_v5,2020.2.10,MacIntel,60,61025ae37ef11b136ea224fe,,,,,,,,,2173,-41.22076416,-50.68273926,1,0,0,response5disk,,3,15.85778809,-17.86328125,1,0,0,rectangle,15.85778809,-17.86328125,1,0,0,15.85778809,-17.86328125,1,0,0,1,29,189,140,1,,,,,,,,
,,,,,,,,,,,,,FF,,,,,,,,1.3335,,,,,,,,,,,,,,,,,,,,,,6102126f393f8990e53d37e6,61036c7aa2ad00f34ebc7388,2021-07-29_22h05.56.675,Simcolourproject_2stim_asymm_v5,2020.2.10,MacIntel,60,61025ae37ef11b136ea224fe,,,,,,,,,2475,92.24176025,25.67492676,1,0,0,response1disk,,6,10.6184082,15.83078003,1,0,0,rectangle,10.6184082,15.83078003,1,0,0,10.6184082,15.83078003,1,0,0,1,30,190,39,1,,,,,,,,
,,,,,,,,,,,,,FF,,,,,,,,1.2657,,,,,,,,,,,,,,,,,,,,,,6102126f393f8990e53d37e6,61036c7aa2ad00f34ebc7388,2021-07-29_22h05.56.675,Simcolourproject_2stim_asymm_v5,2020.2.10,MacIntel,60,61025ae37ef11b136ea224fe,,,,,,,,,3282,-36.00378418,-54.41113281,1,0,0,response5disk,,3,-6.978027344,-11.99594116,1,0,0,rectangle,-6.978027344,-11.99594116,1,0,0,-6.978027344,-11.99594116,1,0,0,1,31,191,136,1,,,,,,,,
,,,,,,,,,,,,,FF,,,,,,,,1.4166,,,,,,,,,,,,,,,,,,,,,,6102126f393f8990e53d37e6,61036c7aa2ad00f34ebc7388,2021-07-29_22h05.56.675,Simcolourproject_2stim_asymm_v5,2020.2.10,MacIntel,60,61025ae37ef11b136ea224fe,,,,,,,,,3836,-29.90802002,-81.29614258,1,0,0,response5disk,,3,-1.548461914,14.18563843,1,0,0,rectangle,-1.548461914,14.18563843,1,0,0,-1.548461914,14.18563843,1,0,0,1,32,192,19,1,,,,,,,,
,,,,,,,,,,,,,FF,,,,,,,,1.3501,,,,,,,,,,,,,,,,,,,,,,6102126f393f8990e53d37e6,61036c7aa2ad00f34ebc7388,2021-07-29_22h05.56.675,Simcolourproject_2stim_asymm_v5,2020.2.10,MacIntel,60,61025ae37ef11b136ea224fe,,,,,,,,,1627,46.42041016,88.40301514,1,0,0,response1disk,,7,16.71160889,-10.45632935,1,0,0,rectangle,16.71160889,-10.45632935,1,0,0,16.71160889,-10.45632935,1,0,0,1,33,193,81,1,,,,,,,,
,,,,,,,,,,,,,FF,,,,,,,,0.7003,,,,,,,,,,,,,,,,,,,,,,6102126f393f8990e53d37e6,61036c7aa2ad00f34ebc7388,2021-07-29_22h05.56.675,Simcolourproject_2stim_asymm_v5,2020.2.10,MacIntel,60,61025ae37ef11b136ea224fe,,,,,,,,,2071,64.28979492,86.60418701,1,0,0,response1disk,,7,25.41894531,15.08349609,1,0,0,rectangle,25.41894531,15.08349609,1,0,0,25.41894531,15.08349609,1,0,0,1,34,194,157,1,,,,,,,,
,,,,,,,,,,,,,FF,,,,,,,,0.5132,,,,,,,,,,,,,,,,,,,,,,6102126f393f8990e53d37e6,61036c7aa2ad00f34ebc7388,2021-07-29_22h05.56.675,Simcolourproject_2stim_asymm_v5,2020.2.10,MacIntel,60,61025ae37ef11b136ea224fe,,,,,,,,,58,27.1282959,56.27389526,1,0,0,response1disk,,7,15.12689209,17.58612061,1,0,0,rectangle,-37.30682373,86.75616455,1,0,0,-16.44281006,6.283172607,1,0,0,1,35,195,118,1,,response7disk_3,TRUE,0,0,"[199,240,162,141,245,133,206,266,196,151,28,218,280,19,233,302,101,180,217,102]",1.4495,rectangle
,,,,,,,,,,,,,FF,,,,,,,,1.7008,,,,,,,,,,,,,,,,,,,,,,6102126f393f8990e53d37e6,61036c7aa2ad00f34ebc7388,2021-07-29_22h05.56.675,Simcolourproject_2stim_asymm_v5,2020.2.10,MacIntel,60,61025ae37ef11b136ea224fe,,,,,,,,,3155,-46.94055176,-39.22192383,1,0,0,response5disk,,2,2.541442871,-12.33520508,1,0,0,rectangle,2.541442871,-12.33520508,1,0,0,2.541442871,-12.33520508,1,0,0,1,36,196,8,1,,,,,,,,
,,,,,,,,,,,,,FF,,,,,,,,1.4347,,,,,,,,,,,,,,,,,,,,,,6102126f393f8990e53d37e6,61036c7aa2ad00f34ebc7388,2021-07-29_22h05.56.675,Simcolourproject_2stim_asymm_v5,2020.2.10,MacIntel,60,61025ae37ef11b136ea224fe,,,,,,,,,113,37.71411133,49.92926025,1,0,0,response1disk,,7,7.304443359,4.247131348,1,0,0,rectangle,7.304443359,4.247131348,1,0,0,7.304443359,4.247131348,1,0,0,1,37,197,132,1,,,,,,,,
,,,,,,,,,,,,,FF,,,,,,,,0.5826,,,,,,,,,,,,,,,,,,,,,,6102126f393f8990e53d37e6,61036c7aa2ad00f34ebc7388,2021-07-29_22h05.56.675,Simcolourproject_2stim_asymm_v5,2020.2.10,MacIntel,60,61025ae37ef11b136ea224fe,,,,,,,,,2964,23.56604004,36.84472656,1,0,0,response1disk,,7,8.564819336,-1.981964111,1,0,0,rectangle,-83.31311035,-37.0020752,1,0,0,-8.33392334,-7.237915039,1,0,0,1,38,198,40,1,,response5disk_3,TRUE,2,2,"[199,240,162,141,245,133,206,266,196,151,28,218,280,19,233,302,101,180,217,102]",1.6337,rectangle
,,,,,,,,,,,,,FF,,,,,,,,4.3007,,,,,,,,,,,,,,,,,,,,,,6102126f393f8990e53d37e6,61036c7aa2ad00f34ebc7388,2021-07-29_22h05.56.675,Simcolourproject_2stim_asymm_v5,2020.2.10,MacIntel,60,61025ae37ef11b136ea224fe,,,,,,,,,4157,59.56799316,-30.57992554,1,0,0,response3disk,,5,7.930969238,-2.864685059,1,0,0,rectangle,7.930969238,-2.864685059,1,0,0,7.930969238,-2.864685059,1,0,0,1,39,199,33,1,,,,,,,,
,,,,,,,,,,,,,FF,,,,,,,,1.2512,,,,,,,,,,,,,,,,,,,,,,6102126f393f8990e53d37e6,61036c7aa2ad00f34ebc7388,2021-07-29_22h05.56.675,Simcolourproject_2stim_asymm_v5,2020.2.10,MacIntel,60,61025ae37ef11b136ea224fe,,,,,,,,,4270,25.08209229,-86.65270996,1,0,0,response3disk,,4,21.14440918,-10.87738037,1,0,0,rectangle,21.14440918,-10.87738037,1,0,0,21.14440918,-10.87738037,1,0,0,1,40,200,79,1,,,,,,,,
,,,,,,,,,,,,,FF,,,,,,,,0.665,,,,,,,,,,,,,,,,,,,,,,6102126f393f8990e53d37e6,61036c7aa2ad00f34ebc7388,2021-07-29_22h05.56.675,Simcolourproject_2stim_asymm_v5,2020.2.10,MacIntel,60,61025ae37ef11b136ea224fe,,,,,,,,,1821,-37.49523926,-83.19091797,1,0,0,response5disk,,3,-12.15258789,-12.51681519,1,0,0,rectangle,-12.15258789,-12.51681519,1,0,0,-12.15258789,-12.51681519,1,0,0,1,41,201,84,1,,,,,,,,
,,,,,,,,,,,,,FF,,,,,,,,0.966,,,,,,,,,,,,,,,,,,,,,,6102126f393f8990e53d37e6,61036c7aa2ad00f34ebc7388,2021-07-29_22h05.56.675,Simcolourproject_2stim_asymm_v5,2020.2.10,MacIntel,60,61025ae37ef11b136ea224fe,,,,,,,,,143,31.63525391,52.9536438,1,0,0,response1disk,,7,16.40637207,4.101013184,1,0,0,rectangle,16.40637207,4.101013184,1,0,0,16.40637207,4.101013184,1,0,0,1,42,202,7,1,,,,,,,,
,,,,,,,,,,,,,FF,,,,,,,,0.5323,,,,,,,,,,,,,,,,,,,,,,6102126f393f8990e53d37e6,61036c7aa2ad00f34ebc7388,2021-07-29_22h05.56.675,Simcolourproject_2stim_asymm_v5,2020.2.10,MacIntel,60,61025ae37ef11b136ea224fe,,,,,,,,,1980,25.24804688,42.65667725,1,0,0,response1disk,,7,6.51574707,-14.16314697,1,0,0,rectangle,6.51574707,-14.16314697,1,0,0,6.51574707,-14.16314697,1,0,0,1,43,203,112,1,,,,,,,,
,,,,,,,,,,,,,FF,,,,,,,,0.5506,,,,,,,,,,,,,,,,,,,,,,6102126f393f8990e53d37e6,61036c7aa2ad00f34ebc7388,2021-07-29_22h05.56.675,Simcolourproject_2stim_asymm_v5,2020.2.10,MacIntel,60,61025ae37ef11b136ea224fe,,,,,,,,,2194,32.86450195,52.11883545,1,0,0,response1disk,,7,23.55596924,11.10220337,1,0,0,rectangle,23.55596924,11.10220337,1,0,0,23.55596924,11.10220337,1,0,0,1,44,204,71,1,,,,,,,,
,,,,,,,,,,,,,FF,,,,,,,,1.0331,,,,,,,,,,,,,,,,,,,,,,6102126f393f8990e53d37e6,61036c7aa2ad00f34ebc7388,2021-07-29_22h05.56.675,Simcolourproject_2stim_asymm_v5,2020.2.10,MacIntel,60,61025ae37ef11b136ea224fe,,,,,,,,,3741,-45.16955566,81.61981201,1,0,0,response7disk,,0,-1.539428711,-4.72845459,1,0,0,rectangle,32.92333984,68.98846436,1,0,0,2.601928711,-6.975189209,1,0,0,1,45,205,96,1,,response1disk_3,TRUE,7,7,"[199,240,162,141,245,133,206,266,196,151,28,218,280,19,233,302,101,180,217,102]",1.5499,rectangle
,,,,,,,,,,,,,FF,,,,,,,,1.0181,,,,,,,,,,,,,,,,,,,,,,6102126f393f8990e53d37e6,61036c7aa2ad00f34ebc7388,2021-07-29_22h05.56.675,Simcolourproject_2stim_asymm_v5,2020.2.10,MacIntel,60,61025ae37ef11b136ea224fe,,,,,,,,,3711,51.74261475,24.92953491,1,0,0,response1disk,,6,7.154541016,3.536834717,1,0,0,rectangle,7.154541016,3.536834717,1,0,0,7.154541016,3.536834717,1,0,0,1,46,206,68,1,,,,,,,,
,,,,,,,,,,,,,FF,,,,,,,,1.251,,,,,,,,,,,,,,,,,,,,,,6102126f393f8990e53d37e6,61036c7aa2ad00f34ebc7388,2021-07-29_22h05.56.675,Simcolourproject_2stim_asymm_v5,2020.2.10,MacIntel,60,61025ae37ef11b136ea224fe,,,,,,,,,2277,30.37573242,86.95620728,1,0,0,response1disk,,7,8.164550781,-9.683898926,1,0,0,rectangle,8.164550781,-9.683898926,1,0,0,8.164550781,-9.683898926,1,0,0,1,47,207,124,1,,,,,,,,
,,,,,,,,,,,,,FF,,,,,,,,0.4001,,,,,,,,,,,,,,,,,,,,,,6102126f393f8990e53d37e6,61036c7aa2ad00f34ebc7388,2021-07-29_22h05.56.675,Simcolourproject_2stim_asymm_v5,2020.2.10,MacIntel,60,61025ae37ef11b136ea224fe,,,,,,,,,215,32.69873047,67.49346924,1,0,0,response1disk,,7,17.28210449,3.290344238,1,0,0,rectangle,17.28210449,3.290344238,1,0,0,17.28210449,3.290344238,1,0,0,1,48,208,121,1,,,,,,,,
,,,,,,,,,,,,,FF,,,,,,,,1.2992,,,,,,,,,,,,,,,,,,,,,,6102126f393f8990e53d37e6,61036c7aa2ad00f34ebc7388,2021-07-29_22h05.56.675,Simcolourproject_2stim_asymm_v5,2020.2.10,MacIntel,60,61025ae37ef11b136ea224fe,,,,,,,,,3677,28.01904297,-56.53747559,1,0,0,response3disk,,4,21.14752197,7.026245117,1,0,0,rectangle,21.14752197,7.026245117,1,0,0,21.14752197,7.026245117,1,0,0,1,49,209,17,1,,,,,,,,
,,,,,,,,,,,,,FF,,,,,,,,1.3509,,,,,,,,,,,,,,,,,,,,,,6102126f393f8990e53d37e6,61036c7aa2ad00f34ebc7388,2021-07-29_22h05.56.675,Simcolourproject_2stim_asymm_v5,2020.2.10,MacIntel,60,61025ae37ef11b136ea224fe,,,,,,,,,3743,-76.23986816,-38.31414795,1,0,0,response5disk,,2,-7.695739746,-2.630065918,1,0,0,rectangle,-7.695739746,-2.630065918,1,0,0,-7.695739746,-2.630065918,1,0,0,1,50,210,109,1,,,,,,,,
,,,,,,,,,,,,,FF,,,,,,,,2.2174,,,,,,,,,,,,,,,,,,,,,,6102126f393f8990e53d37e6,61036c7aa2ad00f34ebc7388,2021-07-29_22h05.56.675,Simcolourproject_2stim_asymm_v5,2020.2.10,MacIntel,60,61025ae37ef11b136ea224fe,,,,,,,,,559,26.17358398,38.38574219,1,0,0,response1disk,,7,13.28009033,3.586975098,1,0,0,rectangle,13.28009033,3.586975098,1,0,0,13.28009033,3.586975098,1,0,0,1,51,211,6,1,,,,,,,,
,,,,,,,,,,,,,FF,,,,,,,,1.0156,,,,,,,,,,,,,,,,,,,,,,6102126f393f8990e53d37e6,61036c7aa2ad00f34ebc7388,2021-07-29_22h05.56.675,Simcolourproject_2stim_asymm_v5,2020.2.10,MacIntel,60,61025ae37ef11b136ea224fe,,,,,,,,,2167,-73.20556641,31.21154785,1,0,0,response7disk,,1,3.183349609,-0.627655029,1,0,0,rectangle,3.183349609,-0.627655029,1,0,0,3.183349609,-0.627655029,1,0,0,1,52,212,113,1,,,,,,,,
,,,,,,,,,,,,,FF,,,,,,,,1.333,,,,,,,,,,,,,,,,,,,,,,6102126f393f8990e53d37e6,61036c7aa2ad00f34ebc7388,2021-07-29_22h05.56.675,Simcolourproject_2stim_asymm_v5,2020.2.10,MacIntel,60,61025ae37ef11b136ea224fe,,,,,,,,,284,-20.97644043,-54.25177002,1,0,0,response5disk,,3,-13.87158203,-9.37109375,1,0,0,rectangle,-13.87158203,-9.37109375,1,0,0,-13.87158203,-9.37109375,1,0,0,1,53,213,24,1,,,,,,,,
,,,,,,,,,,,,,FF,,,,,,,,1.1669,,,,,,,,,,,,,,,,,,,,,,6102126f393f8990e53d37e6,61036c7aa2ad00f34ebc7388,2021-07-29_22h05.56.675,Simcolourproject_2stim_asymm_v5,2020.2.10,MacIntel,60,61025ae37ef11b136ea224fe,,,,,,,,,3977,28.39215088,51.74926758,1,0,0,response1disk,,7,14.80639648,-8.170166016,1,0,0,rectangle,14.80639648,-8.170166016,1,0,0,14.80639648,-8.170166016,1,0,0,1,54,214,145,1,,,,,,,,
,,,,,,,,,,,,,FF,,,,,,,,0.4998,,,,,,,,,,,,,,,,,,,,,,6102126f393f8990e53d37e6,61036c7aa2ad00f34ebc7388,2021-07-29_22h05.56.675,Simcolourproject_2stim_asymm_v5,2020.2.10,MacIntel,60,61025ae37ef11b136ea224fe,,,,,,,,,949,33.83239746,36.87316895,1,0,0,response1disk,,7,11.98181152,3.729858398,1,0,0,rectangle,11.98181152,3.729858398,1,0,0,11.98181152,3.729858398,1,0,0,1,55,215,78,1,,,,,,,,
,,,,,,,,,,,,,FF,,,,,,,,0.9166,,,,,,,,,,,,,,,,,,,,,,6102126f393f8990e53d37e6,61036c7aa2ad00f34ebc7388,2021-07-29_22h05.56.675,Simcolourproject_2stim_asymm_v5,2020.2.10,MacIntel,60,61025ae37ef11b136ea224fe,,,,,,,,,885,-21.25970459,69.527771,1,0,0,response7disk,,0,-3.088989258,-5.210754395,1,0,0,rectangle,-28.49353027,103.4256897,1,0,0,-27.81481934,9.391601563,1,0,0,1,56,216,97,1,,response7disk_3,TRUE,0,0,"[199,240,162,141,245,133,206,266,196,151,28,218,280,19,233,302,101,180,217,102]",1.4342,rectangle
,,,,,,,,,,,,,FF,,,,,,,,2.2336,,,,,,,,,,,,,,,,,,,,,,6102126f393f8990e53d37e6,61036c7aa2ad00f34ebc7388,2021-07-29_22h05.56.675,Simcolourproject_2stim_asymm_v5,2020.2.10,MacIntel,60,61025ae37ef11b136ea224fe,,,,,,,,,188,-71.32763672,29.13415527,1,0,0,response7disk,,1,0.575317383,-7.449951172,1,0,0,rectangle,-16.0166626,83.27905273,1,0,0,-6.421142578,-6.083740234,1,0,0,1,57,217,149,1,,response7disk_3,TRUE,0,0,"[199,240,162,141,245,133,206,266,196,151,28,218,280,19,233,302,101,180,217,102]",1.1994,rectangle
,,,,,,,,,,,,,FF,,,,,,,,0.9511,,,,,,,,,,,,,,,,,,,,,,6102126f393f8990e53d37e6,61036c7aa2ad00f34ebc7388,2021-07-29_22h05.56.675,Simcolourproject_2stim_asymm_v5,2020.2.10,MacIntel,60,61025ae37ef11b136ea224fe,,,,,,,,,2700,35.07885742,79.57995605,1,0,0,response1disk,,7,6.990356445,1.694702148,1,0,0,rectangle,6.990356445,1.694702148,1,0,0,6.990356445,1.694702148,1,0,0,1,58,218,151,1,,,,,,,,
,,,,,,,,,,,,,FF,,,,,,,,1.1156,,,,,,,,,,,,,,,,,,,,,,6102126f393f8990e53d37e6,61036c7aa2ad00f34ebc7388,2021-07-29_22h05.56.675,Simcolourproject_2stim_asymm_v5,2020.2.10,MacIntel,60,61025ae37ef11b136ea224fe,,,,,,,,,3531,28.50231934,60.29269409,1,0,0,response1disk,,7,10.80743408,-0.01473999,1,0,0,rectangle,10.80743408,-0.01473999,1,0,0,10.80743408,-0.01473999,1,0,0,1,59,219,73,1,,,,,,,,
,,,,,,,,,,,,,FF,,,,,,,,0.5993,,,,,,,,,,,,,,,,,,,,,,6102126f393f8990e53d37e6,61036c7aa2ad00f34ebc7388,2021-07-29_22h05.56.675,Simcolourproject_2stim_asymm_v5,2020.2.10,MacIntel,60,61025ae37ef11b136ea224fe,,,,,,,,,4258,19.97723389,41.63925171,1,0,0,response1disk,,7,11.87036133,-11.26889038,1,0,0,rectangle,11.87036133,-11.26889038,1,0,0,11.87036133,-11.26889038,1,0,0,1,60,220,128,1,,,,,,,,
,,,,,,,,,,,,,FF,,,,,,,,1.0324,,,,,,,,,,,,,,,,,,,,,,6102126f393f8990e53d37e6,61036c7aa2ad00f34ebc7388,2021-07-29_22h05.56.675,Simcolourproject_2stim_asymm_v5,2020.2.10,MacIntel,60,61025ae37ef11b136ea224fe,,,,,,,,,4351,-45.69360352,23.70578003,1,0,0,response7disk,,1,-17.12182617,8.304077148,1,0,0,rectangle,-17.12182617,8.304077148,1,0,0,-17.12182617,8.304077148,1,0,0,1,61,221,27,1,,,,,,,,
,,,,,,,,,,,,,FF,,,,,,,,0.5518,,,,,,,,,,,,,,,,,,,,,,6102126f393f8990e53d37e6,61036c7aa2ad00f34ebc7388,2021-07-29_22h05.56.675,Simcolourproject_2stim_asymm_v5,2020.2.10,MacIntel,60,61025ae37ef11b136ea224fe,,,,,,,,,1,-54.67724609,32.10375977,1,0,0,response7disk,,1,-19.54064941,-12.13269043,1,0,0,rectangle,-19.54064941,-12.13269043,1,0,0,-19.54064941,-12.13269043,1,0,0,1,62,222,58,1,,,,,,,,
,,,,,,,,,,,,,FF,,,,,,,,1.9493,,,,,,,,,,,,,,,,,,,,,,6102126f393f8990e53d37e6,61036c7aa2ad00f34ebc7388,2021-07-29_22h05.56.675,Simcolourproject_2stim_asymm_v5,2020.2.10,MacIntel,60,61025ae37ef11b136ea224fe,,,,,,,,,3572,34.79168701,19.28457642,1,0,0,response1disk,,6,13.60473633,17.12792969,1,0,0,rectangle,13.60473633,17.12792969,1,0,0,13.60473633,17.12792969,1,0,0,1,63,223,36,1,,,,,,,,
,,,,,,,,,,,,,FF,,,,,,,,1.6987,,,,,,,,,,,,,,,,,,,,,,6102126f393f8990e53d37e6,61036c7aa2ad00f34ebc7388,2021-07-29_22h05.56.675,Simcolourproject_2stim_asymm_v5,2020.2.10,MacIntel,60,61025ae37ef11b136ea224fe,,,,,,,,,1037,24.0045166,50.88128662,1,0,0,response1disk,,7,15.2590332,-3.08782959,1,0,0,rectangle,15.2590332,-3.08782959,1,0,0,15.2590332,-3.08782959,1,0,0,1,64,224,148,1,,,,,,,,
,,,,,,,,,,,,,FF,,,,,,,,0.5829,,,,,,,,,,,,,,,,,,,,,,6102126f393f8990e53d37e6,61036c7aa2ad00f34ebc7388,2021-07-29_22h05.56.675,Simcolourproject_2stim_asymm_v5,2020.2.10,MacIntel,60,61025ae37ef11b136ea224fe,,,,,,,,,860,20.3626709,45.23529053,1,0,0,response1disk,,7,13.47772217,0.175506592,1,0,0,rectangle,13.47772217,0.175506592,1,0,0,13.47772217,0.175506592,1,0,0,1,65,225,82,1,,,,,,,,
,,,,,,,,,,,,,FF,,,,,,,,0.6672,,,,,,,,,,,,,,,,,,,,,,6102126f393f8990e53d37e6,61036c7aa2ad00f34ebc7388,2021-07-29_22h05.56.675,Simcolourproject_2stim_asymm_v5,2020.2.10,MacIntel,60,61025ae37ef11b136ea224fe,,,,,,,,,4094,27.73565674,53.6776123,1,0,0,response1disk,,7,17.71276855,-0.22857666,1,0,0,rectangle,17.71276855,-0.22857666,1,0,0,17.71276855,-0.22857666,1,0,0,1,66,226,50,1,,,,,,,,
,,,,,,,,,,,,,FF,,,,,,,,1.4493,,,,,,,,,,,,,,,,,,,,,,6102126f393f8990e53d37e6,61036c7aa2ad00f34ebc7388,2021-07-29_22h05.56.675,Simcolourproject_2stim_asymm_v5,2020.2.10,MacIntel,60,61025ae37ef11b136ea224fe,,,,,,,,,575,82.61407471,-51.44174194,1,0,0,response3disk,,5,8.98046875,-14.28799438,1,0,0,rectangle,8.98046875,-14.28799438,1,0,0,8.98046875,-14.28799438,1,0,0,1,67,227,122,1,,,,,,,,
,,,,,,,,,,,,,FF,,,,,,,,1.1508,,,,,,,,,,,,,,,,,,,,,,6102126f393f8990e53d37e6,61036c7aa2ad00f34ebc7388,2021-07-29_22h05.56.675,Simcolourproject_2stim_asymm_v5,2020.2.10,MacIntel,60,61025ae37ef11b136ea224fe,,,,,,,,,2688,31.9586792,58.05700684,1,0,0,response1disk,,7,17.97937012,11.22662354,1,0,0,rectangle,17.97937012,11.22662354,1,0,0,17.97937012,11.22662354,1,0,0,1,68,228,43,1,,,,,,,,
,,,,,,,,,,,,,FF,,,,,,,,0.7002,,,,,,,,,,,,,,,,,,,,,,6102126f393f8990e53d37e6,61036c7aa2ad00f34ebc7388,2021-07-29_22h05.56.675,Simcolourproject_2stim_asymm_v5,2020.2.10,MacIntel,60,61025ae37ef11b136ea224fe,,,,,,,,,939,20.47583008,48.15441895,1,0,0,response1disk,,7,16.22424316,-1.979492188,1,0,0,rectangle,16.22424316,-1.979492188,1,0,0,16.22424316,-1.979492188,1,0,0,1,69,229,63,1,,,,,,,,
,,,,,,,,,,,,,FF,,,,,,,,0.7842,,,,,,,,,,,,,,,,,,,,,,6102126f393f8990e53d37e6,61036c7aa2ad00f34ebc7388,2021-07-29_22h05.56.675,Simcolourproject_2stim_asymm_v5,2020.2.10,MacIntel,60,61025ae37ef11b136ea224fe,,,,,,,,,3961,25.95385742,62.84710693,1,0,0,response1disk,,7,17.4385376,-1.901306152,1,0,0,rectangle,17.4385376,-1.901306152,1,0,0,17.4385376,-1.901306152,1,0,0,1,70,230,49,1,,,,,,,,
,,,,,,,,,,,,,FF,,,,,,,,0.4826,,,,,,,,,,,,,,,,,,,,,,6102126f393f8990e53d37e6,61036c7aa2ad00f34ebc7388,2021-07-29_22h05.56.675,Simcolourproject_2stim_asymm_v5,2020.2.10,MacIntel,60,61025ae37ef11b136ea224fe,,,,,,,,,1776,39.39672852,61.80993652,1,0,0,response1disk,,7,13.2989502,-6.661987305,1,0,0,rectangle,13.2989502,-6.661987305,1,0,0,13.2989502,-6.661987305,1,0,0,1,71,231,42,1,,,,,,,,
,,,,,,,,,,,,,FF,,,,,,,,0.4167,,,,,,,,,,,,,,,,,,,,,,6102126f393f8990e53d37e6,61036c7aa2ad00f34ebc7388,2021-07-29_22h05.56.675,Simcolourproject_2stim_asymm_v5,2020.2.10,MacIntel,60,61025ae37ef11b136ea224fe,,,,,,,,,797,39.23565674,50.60333252,1,0,0,response1disk,,7,9.55078125,-16.45526123,1,0,0,rectangle,-66.72833252,33.35522461,1,0,0,-11.68743896,5.314788818,1,0,0,1,72,232,143,1,,response7disk_3,TRUE,1,1,"[199,240,162,141,245,133,206,266,196,151,28,218,280,19,233,302,101,180,217,102]",1.7159,rectangle
,,,,,,,,,,,,,FF,,,,,,,,1.1338,,,,,,,,,,,,,,,,,,,,,,6102126f393f8990e53d37e6,61036c7aa2ad00f34ebc7388,2021-07-29_22h05.56.675,Simcolourproject_2stim_asymm_v5,2020.2.10,MacIntel,60,61025ae37ef11b136ea224fe,,,,,,,,,3896,59.26190186,23.83624268,1,0,0,response1disk,,6,-8.984619141,10.47717285,1,0,0,rectangle,-8.984619141,10.47717285,1,0,0,-8.984619141,10.47717285,1,0,0,1,73,233,127,1,,,,,,,,
,,,,,,,,,,,,,FF,,,,,,,,0.7003,,,,,,,,,,,,,,,,,,,,,,6102126f393f8990e53d37e6,61036c7aa2ad00f34ebc7388,2021-07-29_22h05.56.675,Simcolourproject_2stim_asymm_v5,2020.2.10,MacIntel,60,61025ae37ef11b136ea224fe,,,,,,,,,4084,66.13012695,25.56378174,1,0,0,response1disk,,6,19.5682373,4.521972656,1,0,0,rectangle,19.5682373,4.521972656,1,0,0,19.5682373,4.521972656,1,0,0,1,74,234,34,1,,,,,,,,
,,,,,,,,,,,,,FF,,,,,,,,1.2492,,,,,,,,,,,,,,,,,,,,,,6102126f393f8990e53d37e6,61036c7aa2ad00f34ebc7388,2021-07-29_22h05.56.675,Simcolourproject_2stim_asymm_v5,2020.2.10,MacIntel,60,61025ae37ef11b136ea224fe,,,,,,,,,1463,66.2088623,33.16293335,1,0,0,response1disk,,6,15.05859375,-0.786315918,1,0,0,rectangle,15.05859375,-0.786315918,1,0,0,15.05859375,-0.786315918,1,0,0,1,75,235,142,1,,,,,,,,
,,,,,,,,,,,,,FF,,,,,,,,1.8296,,,,,,,,,,,,,,,,,,,,,,6102126f393f8990e53d37e6,61036c7aa2ad00f34ebc7388,2021-07-29_22h05.56.675,Simcolourproject_2stim_asymm_v5,2020.2.10,MacIntel,60,61025ae37ef11b136ea224fe,,,,,,,,,715,35.08850098,69.84844971,1,0,0,response1disk,,7,4.866882324,-3.897155762,1,0,0,rectangle,4.866882324,-3.897155762,1,0,0,4.866882324,-3.897155762,1,0,0,1,76,236,119,1,,,,,,,,
,,,,,,,,,,,,,FF,,,,,,,,1.2023,,,,,,,,,,,,,,,,,,,,,,6102126f393f8990e53d37e6,61036c7aa2ad00f34ebc7388,2021-07-29_22h05.56.675,Simcolourproject_2stim_asymm_v5,2020.2.10,MacIntel,60,61025ae37ef11b136ea224fe,,,,,,,,,4338,-64.41998291,-71.9175415,1,0,0,response5disk,,3,-0.911010742,-9.447998047,1,0,0,rectangle,-0.911010742,-9.447998047,1,0,0,-0.911010742,-9.447998047,1,0,0,1,77,237,153,1,,,,,,,,
,,,,,,,,,,,,,FF,,,,,,,,1.1329,,,,,,,,,,,,,,,,,,,,,,6102126f393f8990e53d37e6,61036c7aa2ad00f34ebc7388,2021-07-29_22h05.56.675,Simcolourproject_2stim_asymm_v5,2020.2.10,MacIntel,60,61025ae37ef11b136ea224fe,,,,,,,,,38,35.11907959,73.71246338,1,0,0,response1disk,,7,10.43041992,0.126525879,1,0,0,rectangle,10.43041992,0.126525879,1,0,0,10.43041992,0.126525879,1,0,0,1,78,238,134,1,,,,,,,,
,,,,,,,,,,,,,FF,,,,,,,,1.0658,,,,,,,,,,,,,,,,,,,,,,6102126f393f8990e53d37e6,61036c7aa2ad00f34ebc7388,2021-07-29_22h05.56.675,Simcolourproject_2stim_asymm_v5,2020.2.10,MacIntel,60,61025ae37ef11b136ea224fe,,,,,,,,,893,20.29064941,-65.00073242,1,0,0,response3disk,,4,12.67852783,10.98352051,1,0,0,rectangle,32.15454102,109.1052246,1,0,0,14.6661377,1.166320801,1,0,0,1,79,239,32,1,,response1disk_3,TRUE,7,7,"[199,240,162,141,245,133,206,266,196,151,28,218,280,19,233,302,101,180,217,102]",1.3661,rectangle
,,,,,,,,,,,,,FF,,,,,,,,2.5836,,,,,,,,,,,,,,,,,,,,,,6102126f393f8990e53d37e6,61036c7aa2ad00f34ebc7388,2021-07-29_22h05.56.675,Simcolourproject_2stim_asymm_v5,2020.2.10,MacIntel,60,61025ae37ef11b136ea224fe,,,,,,,,,2820,45.97717285,20.90161133,1,0,0,response1disk,,6,3.048706055,-10.2767334,1,0,0,rectangle,3.048706055,-10.2767334,1,0,0,3.048706055,-10.2767334,1,0,0,1,80,240,104,1,,,,,,,,
