key_resp.keys,key_resp.rt,key_resp_14.keys,key_resp_14.rt,key_resp_15.keys,key_resp_15.rt,key_resp_17.keys,key_resp_17.rt,key_resp_9.keys,key_resp_9.rt,key_resp_10.keys,key_resp_10.rt,practice_comparison,Ecc,mouse_5.x,mouse_5.y,mouse_5.leftButton,mouse_5.midButton,mouse_5.rightButton,mouse_5.clicked_name,pracsimilarity,response_time,mouse_10.x,mouse_10.y,mouse_10.leftButton,mouse_10.midButton,mouse_10.rightButton,mouse_10.clicked_name,mouse_7.x,mouse_7.y,mouse_7.leftButton,mouse_7.midButton,mouse_7.rightButton,mouse_6.x,mouse_6.y,mouse_6.leftButton,mouse_6.midButton,mouse_6.rightButton,duringprac.thisRepN,duringprac.thisTrialN,duringprac.thisN,duringprac.thisIndex,duringprac.ran,participant,session,date,expName,psychopyVersion,OS,frameRate,study_id,mouse_7.clicked_name,catchpracsimilarity,catch_response_time,catchnumberprac,catchtrialorderprac,mouse_6.clicked_name,key_resp_22.keys,key_resp_22.rt,realcomparison,mouse.x,mouse.y,mouse.leftButton,mouse.midButton,mouse.rightButton,mouse.clicked_name,Colour2,similarity,mouse_2.x,mouse_2.y,mouse_2.leftButton,mouse_2.midButton,mouse_2.rightButton,mouse_2.clicked_name,mouse_3.x,mouse_3.y,mouse_3.leftButton,mouse_3.midButton,mouse_3.rightButton,mouse_11.x,mouse_11.y,mouse_11.leftButton,mouse_11.midButton,mouse_11.rightButton,trials_2.thisRepN,trials_2.thisTrialN,trials_2.thisN,trials_2.thisIndex,trials_2.ran,Colour1,mouse_3.clicked_name,catchornah,catchsimilarity,catchnumber,catchtrialorder,catchRT,mouse_11.clicked_name
space,1.0602,space,14.3477,space,16.7323,space,4.4636,space,1.3848,space,3.5313,49,PF,41.24609375,74.390625,1,0,0,response1disk_5,7,3.2835,-12.296875,-0.3046875,1,0,0,rectangle_8,-12.296875,-0.3046875,1,0,0,-12.296875,-0.3046875,1,0,0,0,0,0,2,1,610203b1bc07b831633fa676,61036d9b0bca9b6bb0ab1258,2021-07-29_23h11.27.953,Simcolourproject_2stim_asymm_v5,2020.2.10,MacIntel,60,61025ae37ef11b136ea224fe,,,,,,,,,,,,,,,,,,,,,,,,,,,,,,,,,,,,,,,,,,,,,,
,,,,,,,,,,,,41,PF,-34.9609375,-84.44140625,1,0,0,response5disk_5,3,4.5669,7.1015625,4.1484375,1,0,0,rectangle_8,30.71875,78.171875,1,0,0,-20.46484375,3.96484375,1,0,0,0,1,1,6,1,610203b1bc07b831633fa676,61036d9b0bca9b6bb0ab1258,2021-07-29_23h11.27.953,Simcolourproject_2stim_asymm_v5,2020.2.10,MacIntel,60,61025ae37ef11b136ea224fe,response1disk_7,7,2.2013,7,"[2,5]",rectangle_4,,,,,,,,,,,,,,,,,,,,,,,,,,,,,,,,,,,,,,,,
,,,,,,,,,,,,82,FF,84.85546875,-57.796875,1,0,0,response3disk_5,5,6.4501,14.56640625,-6.11328125,1,0,0,rectangle_8,14.56640625,-6.11328125,1,0,0,14.56640625,-6.11328125,1,0,0,0,2,2,5,1,610203b1bc07b831633fa676,61036d9b0bca9b6bb0ab1258,2021-07-29_23h11.27.953,Simcolourproject_2stim_asymm_v5,2020.2.10,MacIntel,60,61025ae37ef11b136ea224fe,,,,,,,,,,,,,,,,,,,,,,,,,,,,,,,,,,,,,,,,,,,,,,
,,,,,,,,,,,,132,FF,49.5390625,-106.2851563,1,0,0,response3disk_5,4,6.2667,-12.3359375,1.484375,1,0,0,rectangle_8,-12.3359375,1.484375,1,0,0,-12.3359375,1.484375,1,0,0,0,3,3,0,1,610203b1bc07b831633fa676,61036d9b0bca9b6bb0ab1258,2021-07-29_23h11.27.953,Simcolourproject_2stim_asymm_v5,2020.2.10,MacIntel,60,61025ae37ef11b136ea224fe,,,,,,,,,,,,,,,,,,,,,,,,,,,,,,,,,,,,,,,,,,,,,,
,,,,,,,,,,,,160,PF,67.734375,-58.578125,1,0,0,response3disk_5,5,4.0161,-7.33203125,-4.390625,1,0,0,rectangle_8,37.9765625,71.26171875,1,0,0,4.27734375,-11.94140625,1,0,0,0,4,4,4,1,610203b1bc07b831633fa676,61036d9b0bca9b6bb0ab1258,2021-07-29_23h11.27.953,Simcolourproject_2stim_asymm_v5,2020.2.10,MacIntel,60,61025ae37ef11b136ea224fe,response1disk_7,7,2.2147,7,"[2,5]",rectangle_4,,,,,,,,,,,,,,,,,,,,,,,,,,,,,,,,,,,,,,,,
,,,,,,,,,,,,103,FF,70.55078125,-80.0625,1,0,0,response3disk_5,4,6.6988,1.00390625,2.13671875,1,0,0,rectangle_8,1.00390625,2.13671875,1,0,0,1.00390625,2.13671875,1,0,0,0,5,5,3,1,610203b1bc07b831633fa676,61036d9b0bca9b6bb0ab1258,2021-07-29_23h11.27.953,Simcolourproject_2stim_asymm_v5,2020.2.10,MacIntel,60,61025ae37ef11b136ea224fe,,,,,,,,,,,,,,,,,,,,,,,,,,,,,,,,,,,,,,,,,,,,,,
,,,,,,,,,,,,141,PF,-38.125,-81.0234375,1,0,0,response5disk_5,3,4.5842,1.6875,5.46484375,1,0,0,rectangle_8,1.6875,5.46484375,1,0,0,1.6875,5.46484375,1,0,0,0,6,6,1,1,610203b1bc07b831633fa676,61036d9b0bca9b6bb0ab1258,2021-07-29_23h11.27.953,Simcolourproject_2stim_asymm_v5,2020.2.10,MacIntel,60,61025ae37ef11b136ea224fe,,,,,,,,,,,,,,,,,,,,,,,,,,,,,,,,,,,,,,,,,,,,,,
,,,,,,,,,,,,,FF,,,,,,,,3.5346,,,,,,,,,,,,,,,,,,,,,,610203b1bc07b831633fa676,61036d9b0bca9b6bb0ab1258,2021-07-29_23h11.27.953,Simcolourproject_2stim_asymm_v5,2020.2.10,MacIntel,60,61025ae37ef11b136ea224fe,,,,,,,space,40.0576,963,76.203125,-39.41796875,1,0,0,response3disk,,5,12.9296875,-0.328125,1,0,0,rectangle,12.9296875,-0.328125,1,0,0,12.9296875,-0.328125,1,0,0,0,0,0,46,1,,,,,,,,
,,,,,,,,,,,,,FF,,,,,,,,1.5167,,,,,,,,,,,,,,,,,,,,,,610203b1bc07b831633fa676,61036d9b0bca9b6bb0ab1258,2021-07-29_23h11.27.953,Simcolourproject_2stim_asymm_v5,2020.2.10,MacIntel,60,61025ae37ef11b136ea224fe,,,,,,,,,2832,-83.890625,-37.84375,1,0,0,response5disk,,2,2.8359375,5.9453125,1,0,0,rectangle,2.8359375,5.9453125,1,0,0,2.8359375,5.9453125,1,0,0,0,1,1,14,1,,,,,,,,
,,,,,,,,,,,,,FF,,,,,,,,1.2995,,,,,,,,,,,,,,,,,,,,,,610203b1bc07b831633fa676,61036d9b0bca9b6bb0ab1258,2021-07-29_23h11.27.953,Simcolourproject_2stim_asymm_v5,2020.2.10,MacIntel,60,61025ae37ef11b136ea224fe,,,,,,,,,1544,-40.359375,-98.7734375,1,0,0,response5disk,,3,-14.94140625,-9.421875,1,0,0,rectangle,-14.94140625,-9.421875,1,0,0,-14.94140625,-9.421875,1,0,0,0,2,2,156,1,,,,,,,,
,,,,,,,,,,,,,FF,,,,,,,,3.4493,,,,,,,,,,,,,,,,,,,,,,610203b1bc07b831633fa676,61036d9b0bca9b6bb0ab1258,2021-07-29_23h11.27.953,Simcolourproject_2stim_asymm_v5,2020.2.10,MacIntel,60,61025ae37ef11b136ea224fe,,,,,,,,,2021,-35.44921875,-75.2265625,1,0,0,response5disk,,3,-9.765625,-6.90625,1,0,0,rectangle,-9.765625,-6.90625,1,0,0,-9.765625,-6.90625,1,0,0,0,3,3,76,1,,,,,,,,
,,,,,,,,,,,,,FF,,,,,,,,2.066,,,,,,,,,,,,,,,,,,,,,,610203b1bc07b831633fa676,61036d9b0bca9b6bb0ab1258,2021-07-29_23h11.27.953,Simcolourproject_2stim_asymm_v5,2020.2.10,MacIntel,60,61025ae37ef11b136ea224fe,,,,,,,,,1748,-75.45703125,-38.4140625,1,0,0,response5disk,,2,17.26171875,2.96484375,1,0,0,rectangle,17.26171875,2.96484375,1,0,0,17.26171875,2.96484375,1,0,0,0,4,4,59,1,,,,,,,,
,,,,,,,,,,,,,FF,,,,,,,,1.0322,,,,,,,,,,,,,,,,,,,,,,610203b1bc07b831633fa676,61036d9b0bca9b6bb0ab1258,2021-07-29_23h11.27.953,Simcolourproject_2stim_asymm_v5,2020.2.10,MacIntel,60,61025ae37ef11b136ea224fe,,,,,,,,,1549,38.484375,-68.03125,1,0,0,response3disk,,4,-6.609375,-7.87109375,1,0,0,rectangle,-6.609375,-7.87109375,1,0,0,-6.609375,-7.87109375,1,0,0,0,5,5,123,1,,,,,,,,
,,,,,,,,,,,,,FF,,,,,,,,1.4821,,,,,,,,,,,,,,,,,,,,,,610203b1bc07b831633fa676,61036d9b0bca9b6bb0ab1258,2021-07-29_23h11.27.953,Simcolourproject_2stim_asymm_v5,2020.2.10,MacIntel,60,61025ae37ef11b136ea224fe,,,,,,,,,3412,31.58203125,-78.12890625,1,0,0,response3disk,,4,20.69921875,-10.328125,1,0,0,rectangle,20.69921875,-10.328125,1,0,0,20.69921875,-10.328125,1,0,0,0,6,6,61,1,,,,,,,,
,,,,,,,,,,,,,FF,,,,,,,,1.3171,,,,,,,,,,,,,,,,,,,,,,610203b1bc07b831633fa676,61036d9b0bca9b6bb0ab1258,2021-07-29_23h11.27.953,Simcolourproject_2stim_asymm_v5,2020.2.10,MacIntel,60,61025ae37ef11b136ea224fe,,,,,,,,,1904,-46.83984375,-83.953125,1,0,0,response5disk,,3,-18.375,-17.70703125,1,0,0,rectangle,-18.375,-17.70703125,1,0,0,-18.375,-17.70703125,1,0,0,0,7,7,22,1,,,,,,,,
,,,,,,,,,,,,,FF,,,,,,,,2.9829,,,,,,,,,,,,,,,,,,,,,,610203b1bc07b831633fa676,61036d9b0bca9b6bb0ab1258,2021-07-29_23h11.27.953,Simcolourproject_2stim_asymm_v5,2020.2.10,MacIntel,60,61025ae37ef11b136ea224fe,,,,,,,,,3992,53.0234375,-39.12109375,1,0,0,response3disk,,5,8.5859375,-9.09765625,1,0,0,rectangle,8.5859375,-9.09765625,1,0,0,8.5859375,-9.09765625,1,0,0,0,8,8,65,1,,,,,,,,
,,,,,,,,,,,,,FF,,,,,,,,2.3829,,,,,,,,,,,,,,,,,,,,,,610203b1bc07b831633fa676,61036d9b0bca9b6bb0ab1258,2021-07-29_23h11.27.953,Simcolourproject_2stim_asymm_v5,2020.2.10,MacIntel,60,61025ae37ef11b136ea224fe,,,,,,,,,308,73.2421875,-31.3046875,1,0,0,response3disk,,5,9.33984375,-10.0390625,1,0,0,rectangle,9.33984375,-10.0390625,1,0,0,9.33984375,-10.0390625,1,0,0,0,9,9,71,1,,,,,,,,
,,,,,,,,,,,,,FF,,,,,,,,2.0157,,,,,,,,,,,,,,,,,,,,,,610203b1bc07b831633fa676,61036d9b0bca9b6bb0ab1258,2021-07-29_23h11.27.953,Simcolourproject_2stim_asymm_v5,2020.2.10,MacIntel,60,61025ae37ef11b136ea224fe,,,,,,,,,867,-29.08203125,-98.15234375,1,0,0,response5disk,,3,-7.09765625,3.8359375,1,0,0,rectangle,-7.09765625,3.8359375,1,0,0,-7.09765625,3.8359375,1,0,0,0,10,10,150,1,,,,,,,,
,,,,,,,,,,,,,FF,,,,,,,,3.6994,,,,,,,,,,,,,,,,,,,,,,610203b1bc07b831633fa676,61036d9b0bca9b6bb0ab1258,2021-07-29_23h11.27.953,Simcolourproject_2stim_asymm_v5,2020.2.10,MacIntel,60,61025ae37ef11b136ea224fe,,,,,,,,,1430,77.578125,-78.734375,1,0,0,response3disk,,4,-22.00390625,-3.171875,1,0,0,rectangle,-22.00390625,-3.171875,1,0,0,-22.00390625,-3.171875,1,0,0,0,11,11,87,1,,,,,,,,
,,,,,,,,,,,,,FF,,,,,,,,3.4834,,,,,,,,,,,,,,,,,,,,,,610203b1bc07b831633fa676,61036d9b0bca9b6bb0ab1258,2021-07-29_23h11.27.953,Simcolourproject_2stim_asymm_v5,2020.2.10,MacIntel,60,61025ae37ef11b136ea224fe,,,,,,,,,680,49.26171875,87.68359375,1,0,0,response1disk,,7,-26.60546875,8.27734375,1,0,0,rectangle,-26.60546875,8.27734375,1,0,0,-26.60546875,8.27734375,1,0,0,0,12,12,24,1,,,,,,,,
,,,,,,,,,,,,,FF,,,,,,,,2.0673,,,,,,,,,,,,,,,,,,,,,,610203b1bc07b831633fa676,61036d9b0bca9b6bb0ab1258,2021-07-29_23h11.27.953,Simcolourproject_2stim_asymm_v5,2020.2.10,MacIntel,60,61025ae37ef11b136ea224fe,,,,,,,,,464,-76.375,-44.51953125,1,0,0,response5disk,,2,-6.9296875,14.7734375,1,0,0,rectangle,-6.9296875,14.7734375,1,0,0,-6.9296875,14.7734375,1,0,0,0,13,13,79,1,,,,,,,,
,,,,,,,,,,,,,FF,,,,,,,,2.6503,,,,,,,,,,,,,,,,,,,,,,610203b1bc07b831633fa676,61036d9b0bca9b6bb0ab1258,2021-07-29_23h11.27.953,Simcolourproject_2stim_asymm_v5,2020.2.10,MacIntel,60,61025ae37ef11b136ea224fe,,,,,,,,,958,-27.62109375,-58.3125,1,0,0,response5disk,,3,-22.84375,-3.125,1,0,0,rectangle,-22.84375,-3.125,1,0,0,-22.84375,-3.125,1,0,0,0,14,14,37,1,,,,,,,,
,,,,,,,,,,,,,FF,,,,,,,,3.3163,,,,,,,,,,,,,,,,,,,,,,610203b1bc07b831633fa676,61036d9b0bca9b6bb0ab1258,2021-07-29_23h11.27.953,Simcolourproject_2stim_asymm_v5,2020.2.10,MacIntel,60,61025ae37ef11b136ea224fe,,,,,,,,,1629,56.51171875,-86.55859375,1,0,0,response3disk,,4,21.47265625,-11.0625,1,0,0,rectangle,21.47265625,-11.0625,1,0,0,21.47265625,-11.0625,1,0,0,0,15,15,145,1,,,,,,,,
,,,,,,,,,,,,,FF,,,,,,,,2.9834,,,,,,,,,,,,,,,,,,,,,,610203b1bc07b831633fa676,61036d9b0bca9b6bb0ab1258,2021-07-29_23h11.27.953,Simcolourproject_2stim_asymm_v5,2020.2.10,MacIntel,60,61025ae37ef11b136ea224fe,,,,,,,,,113,61.7578125,-85.74609375,1,0,0,response3disk,,4,-22.265625,10.30078125,1,0,0,rectangle,-30.74609375,67.11328125,1,0,0,6.01171875,-12.84765625,1,0,0,0,16,16,91,1,,response7disk_3,TRUE,0,0,"[204,230,69,171,127,74,192,153,159,264,174,283,17,97,310,323,161,127,118,145]",1.8001,rectangle
,,,,,,,,,,,,,FF,,,,,,,,2.2992,,,,,,,,,,,,,,,,,,,,,,610203b1bc07b831633fa676,61036d9b0bca9b6bb0ab1258,2021-07-29_23h11.27.953,Simcolourproject_2stim_asymm_v5,2020.2.10,MacIntel,60,61025ae37ef11b136ea224fe,,,,,,,,,1154,85.921875,-29.3359375,1,0,0,response3disk,,5,8.8359375,-6.3671875,1,0,0,rectangle,8.8359375,-6.3671875,1,0,0,8.8359375,-6.3671875,1,0,0,0,17,17,105,1,,,,,,,,
,,,,,,,,,,,,,FF,,,,,,,,0.7993,,,,,,,,,,,,,,,,,,,,,,610203b1bc07b831633fa676,61036d9b0bca9b6bb0ab1258,2021-07-29_23h11.27.953,Simcolourproject_2stim_asymm_v5,2020.2.10,MacIntel,60,61025ae37ef11b136ea224fe,,,,,,,,,2480,-27.7734375,77.78125,1,0,0,response7disk,,0,1.1328125,5.1796875,1,0,0,rectangle,1.1328125,5.1796875,1,0,0,1.1328125,5.1796875,1,0,0,0,18,18,43,1,,,,,,,,
,,,,,,,,,,,,,FF,,,,,,,,1.483,,,,,,,,,,,,,,,,,,,,,,610203b1bc07b831633fa676,61036d9b0bca9b6bb0ab1258,2021-07-29_23h11.27.953,Simcolourproject_2stim_asymm_v5,2020.2.10,MacIntel,60,61025ae37ef11b136ea224fe,,,,,,,,,3186,47.7109375,56.2734375,1,0,0,response1disk,,7,3.64453125,-2.06640625,1,0,0,rectangle,3.64453125,-2.06640625,1,0,0,3.64453125,-2.06640625,1,0,0,0,19,19,41,1,,,,,,,,
,,,,,,,,,,,,,FF,,,,,,,,3.7502,,,,,,,,,,,,,,,,,,,,,,610203b1bc07b831633fa676,61036d9b0bca9b6bb0ab1258,2021-07-29_23h11.27.953,Simcolourproject_2stim_asymm_v5,2020.2.10,MacIntel,60,61025ae37ef11b136ea224fe,,,,,,,,,3029,53.51953125,93.57421875,1,0,0,response1disk,,7,5.44140625,-10.75390625,1,0,0,rectangle,5.44140625,-10.75390625,1,0,0,5.44140625,-10.75390625,1,0,0,0,20,20,85,1,,,,,,,,
,,,,,,,,,,,,,FF,,,,,,,,1.3998,,,,,,,,,,,,,,,,,,,,,,610203b1bc07b831633fa676,61036d9b0bca9b6bb0ab1258,2021-07-29_23h11.27.953,Simcolourproject_2stim_asymm_v5,2020.2.10,MacIntel,60,61025ae37ef11b136ea224fe,,,,,,,,,4088,-83.1015625,-52.49609375,1,0,0,response5disk,,2,-31.82421875,5.546875,1,0,0,rectangle,-31.82421875,5.546875,1,0,0,-31.82421875,5.546875,1,0,0,0,21,21,120,1,,,,,,,,
,,,,,,,,,,,,,FF,,,,,,,,1.5491,,,,,,,,,,,,,,,,,,,,,,610203b1bc07b831633fa676,61036d9b0bca9b6bb0ab1258,2021-07-29_23h11.27.953,Simcolourproject_2stim_asymm_v5,2020.2.10,MacIntel,60,61025ae37ef11b136ea224fe,,,,,,,,,3800,38.9375,-88.02734375,1,0,0,response3disk,,4,-4.94140625,-0.78125,1,0,0,rectangle,-4.94140625,-0.78125,1,0,0,-4.94140625,-0.78125,1,0,0,0,22,22,155,1,,,,,,,,
,,,,,,,,,,,,,FF,,,,,,,,2.3005,,,,,,,,,,,,,,,,,,,,,,610203b1bc07b831633fa676,61036d9b0bca9b6bb0ab1258,2021-07-29_23h11.27.953,Simcolourproject_2stim_asymm_v5,2020.2.10,MacIntel,60,61025ae37ef11b136ea224fe,,,,,,,,,1001,33.01953125,-82.79296875,1,0,0,response3disk,,4,-1.73046875,-13.92578125,1,0,0,rectangle,-1.73046875,-13.92578125,1,0,0,-1.73046875,-13.92578125,1,0,0,0,23,23,48,1,,,,,,,,
,,,,,,,,,,,,,FF,,,,,,,,2.1507,,,,,,,,,,,,,,,,,,,,,,610203b1bc07b831633fa676,61036d9b0bca9b6bb0ab1258,2021-07-29_23h11.27.953,Simcolourproject_2stim_asymm_v5,2020.2.10,MacIntel,60,61025ae37ef11b136ea224fe,,,,,,,,,2873,68.421875,-39.56640625,1,0,0,response3disk,,5,-1.54296875,-11.73828125,1,0,0,rectangle,-1.54296875,-11.73828125,1,0,0,-1.54296875,-11.73828125,1,0,0,0,24,24,12,1,,,,,,,,
,,,,,,,,,,,,,FF,,,,,,,,1.2667,,,,,,,,,,,,,,,,,,,,,,610203b1bc07b831633fa676,61036d9b0bca9b6bb0ab1258,2021-07-29_23h11.27.953,Simcolourproject_2stim_asymm_v5,2020.2.10,MacIntel,60,61025ae37ef11b136ea224fe,,,,,,,,,3066,49.8359375,-88.140625,1,0,0,response3disk,,4,-2.34765625,-7.46484375,1,0,0,rectangle,-2.34765625,-7.46484375,1,0,0,-2.34765625,-7.46484375,1,0,0,0,25,25,119,1,,,,,,,,
,,,,,,,,,,,,,FF,,,,,,,,2.9507,,,,,,,,,,,,,,,,,,,,,,610203b1bc07b831633fa676,61036d9b0bca9b6bb0ab1258,2021-07-29_23h11.27.953,Simcolourproject_2stim_asymm_v5,2020.2.10,MacIntel,60,61025ae37ef11b136ea224fe,,,,,,,,,758,46.3984375,79.72265625,1,0,0,response1disk,,7,6.65625,7.87890625,1,0,0,rectangle,6.65625,7.87890625,1,0,0,6.65625,7.87890625,1,0,0,0,26,26,64,1,,,,,,,,
,,,,,,,,,,,,,FF,,,,,,,,2.699,,,,,,,,,,,,,,,,,,,,,,610203b1bc07b831633fa676,61036d9b0bca9b6bb0ab1258,2021-07-29_23h11.27.953,Simcolourproject_2stim_asymm_v5,2020.2.10,MacIntel,60,61025ae37ef11b136ea224fe,,,,,,,,,518,68.00390625,27.25390625,1,0,0,response1disk,,6,-20.328125,9.0390625,1,0,0,rectangle,-20.328125,9.0390625,1,0,0,-20.328125,9.0390625,1,0,0,0,27,27,50,1,,,,,,,,
,,,,,,,,,,,,,FF,,,,,,,,2.3823,,,,,,,,,,,,,,,,,,,,,,610203b1bc07b831633fa676,61036d9b0bca9b6bb0ab1258,2021-07-29_23h11.27.953,Simcolourproject_2stim_asymm_v5,2020.2.10,MacIntel,60,61025ae37ef11b136ea224fe,,,,,,,,,282,105.8671875,-39.2421875,1,0,0,response3disk,,5,-5.89453125,-0.1953125,1,0,0,rectangle,-5.89453125,-0.1953125,1,0,0,-5.89453125,-0.1953125,1,0,0,0,28,28,128,1,,,,,,,,
,,,,,,,,,,,,,FF,,,,,,,,4.1827,,,,,,,,,,,,,,,,,,,,,,610203b1bc07b831633fa676,61036d9b0bca9b6bb0ab1258,2021-07-29_23h11.27.953,Simcolourproject_2stim_asymm_v5,2020.2.10,MacIntel,60,61025ae37ef11b136ea224fe,,,,,,,,,286,73.05859375,-55.3046875,1,0,0,response3disk,,5,-12.0703125,4.4921875,1,0,0,rectangle,-12.0703125,4.4921875,1,0,0,-12.0703125,4.4921875,1,0,0,0,29,29,144,1,,,,,,,,
,,,,,,,,,,,,,FF,,,,,,,,1.6,,,,,,,,,,,,,,,,,,,,,,610203b1bc07b831633fa676,61036d9b0bca9b6bb0ab1258,2021-07-29_23h11.27.953,Simcolourproject_2stim_asymm_v5,2020.2.10,MacIntel,60,61025ae37ef11b136ea224fe,,,,,,,,,3375,-34.8359375,-99.3828125,1,0,0,response5disk,,3,-23.20703125,-5.8828125,1,0,0,rectangle,-23.20703125,-5.8828125,1,0,0,-23.20703125,-5.8828125,1,0,0,0,30,30,51,1,,,,,,,,
,,,,,,,,,,,,,FF,,,,,,,,1.3656,,,,,,,,,,,,,,,,,,,,,,610203b1bc07b831633fa676,61036d9b0bca9b6bb0ab1258,2021-07-29_23h11.27.953,Simcolourproject_2stim_asymm_v5,2020.2.10,MacIntel,60,61025ae37ef11b136ea224fe,,,,,,,,,1399,78.828125,-115.5039063,1,0,0,response3disk,,4,17.8515625,-0.04296875,1,0,0,rectangle,17.8515625,-0.04296875,1,0,0,17.8515625,-0.04296875,1,0,0,0,31,31,15,1,,,,,,,,
,,,,,,,,,,,,,FF,,,,,,,,1.516,,,,,,,,,,,,,,,,,,,,,,610203b1bc07b831633fa676,61036d9b0bca9b6bb0ab1258,2021-07-29_23h11.27.953,Simcolourproject_2stim_asymm_v5,2020.2.10,MacIntel,60,61025ae37ef11b136ea224fe,,,,,,,,,926,84.16015625,-25.17578125,1,0,0,response3disk,,5,-18.19921875,13.43359375,1,0,0,rectangle,-18.19921875,13.43359375,1,0,0,-18.19921875,13.43359375,1,0,0,0,32,32,60,1,,,,,,,,
,,,,,,,,,,,,,FF,,,,,,,,1.1165,,,,,,,,,,,,,,,,,,,,,,610203b1bc07b831633fa676,61036d9b0bca9b6bb0ab1258,2021-07-29_23h11.27.953,Simcolourproject_2stim_asymm_v5,2020.2.10,MacIntel,60,61025ae37ef11b136ea224fe,,,,,,,,,1983,64.59375,-48.36328125,1,0,0,response3disk,,5,-2.41015625,-1.9140625,1,0,0,rectangle,-2.41015625,-1.9140625,1,0,0,-2.41015625,-1.9140625,1,0,0,0,33,33,84,1,,,,,,,,
,,,,,,,,,,,,,FF,,,,,,,,1.1837,,,,,,,,,,,,,,,,,,,,,,610203b1bc07b831633fa676,61036d9b0bca9b6bb0ab1258,2021-07-29_23h11.27.953,Simcolourproject_2stim_asymm_v5,2020.2.10,MacIntel,60,61025ae37ef11b136ea224fe,,,,,,,,,4235,-47.078125,86.0078125,1,0,0,response7disk,,0,2.234375,-7.390625,1,0,0,rectangle,2.234375,-7.390625,1,0,0,2.234375,-7.390625,1,0,0,0,34,34,139,1,,,,,,,,
,,,,,,,,,,,,,FF,,,,,,,,6.0004,,,,,,,,,,,,,,,,,,,,,,610203b1bc07b831633fa676,61036d9b0bca9b6bb0ab1258,2021-07-29_23h11.27.953,Simcolourproject_2stim_asymm_v5,2020.2.10,MacIntel,60,61025ae37ef11b136ea224fe,,,,,,,,,796,87.5,-42.92578125,1,0,0,response3disk,,5,-21.80859375,-17.875,1,0,0,rectangle,-21.80859375,-17.875,1,0,0,-21.80859375,-17.875,1,0,0,0,35,35,154,1,,,,,,,,
,,,,,,,,,,,,,FF,,,,,,,,2.6323,,,,,,,,,,,,,,,,,,,,,,610203b1bc07b831633fa676,61036d9b0bca9b6bb0ab1258,2021-07-29_23h11.27.953,Simcolourproject_2stim_asymm_v5,2020.2.10,MacIntel,60,61025ae37ef11b136ea224fe,,,,,,,,,2462,42.81640625,91.80078125,1,0,0,response1disk,,7,8.20703125,7.1328125,1,0,0,rectangle,8.20703125,7.1328125,1,0,0,8.20703125,7.1328125,1,0,0,0,36,36,30,1,,,,,,,,
,,,,,,,,,,,,,FF,,,,,,,,1.1996,,,,,,,,,,,,,,,,,,,,,,610203b1bc07b831633fa676,61036d9b0bca9b6bb0ab1258,2021-07-29_23h11.27.953,Simcolourproject_2stim_asymm_v5,2020.2.10,MacIntel,60,61025ae37ef11b136ea224fe,,,,,,,,,975,-89.6171875,-39.90625,1,0,0,response5disk,,2,-9.953125,13.03515625,1,0,0,rectangle,-9.953125,13.03515625,1,0,0,-9.953125,13.03515625,1,0,0,0,37,37,134,1,,,,,,,,
,,,,,,,,,,,,,FF,,,,,,,,2.8159,,,,,,,,,,,,,,,,,,,,,,610203b1bc07b831633fa676,61036d9b0bca9b6bb0ab1258,2021-07-29_23h11.27.953,Simcolourproject_2stim_asymm_v5,2020.2.10,MacIntel,60,61025ae37ef11b136ea224fe,,,,,,,,,567,64.14453125,-42.9765625,1,0,0,response3disk,,5,0.01953125,10.54296875,1,0,0,rectangle,0.01953125,10.54296875,1,0,0,0.01953125,10.54296875,1,0,0,0,38,38,98,1,,,,,,,,
,,,,,,,,,,,,,FF,,,,,,,,1.317,,,,,,,,,,,,,,,,,,,,,,610203b1bc07b831633fa676,61036d9b0bca9b6bb0ab1258,2021-07-29_23h11.27.953,Simcolourproject_2stim_asymm_v5,2020.2.10,MacIntel,60,61025ae37ef11b136ea224fe,,,,,,,,,3903,-67.88671875,-40.84375,1,0,0,response5disk,,2,-2.6796875,-9.8046875,1,0,0,rectangle,-2.6796875,-9.8046875,1,0,0,-2.6796875,-9.8046875,1,0,0,0,39,39,39,1,,,,,,,,
,,,,,,,,,,,,,FF,,,,,,,,1.3504,,,,,,,,,,,,,,,,,,,,,,610203b1bc07b831633fa676,61036d9b0bca9b6bb0ab1258,2021-07-29_23h11.27.953,Simcolourproject_2stim_asymm_v5,2020.2.10,MacIntel,60,61025ae37ef11b136ea224fe,,,,,,,,,2322,72.125,-54.11328125,1,0,0,response3disk,,5,-3.48046875,-3.30078125,1,0,0,rectangle,-3.48046875,-3.30078125,1,0,0,-3.48046875,-3.30078125,1,0,0,0,40,40,74,1,,,,,,,,
,,,,,,,,,,,,,FF,,,,,,,,2.4663,,,,,,,,,,,,,,,,,,,,,,610203b1bc07b831633fa676,61036d9b0bca9b6bb0ab1258,2021-07-29_23h11.27.953,Simcolourproject_2stim_asymm_v5,2020.2.10,MacIntel,60,61025ae37ef11b136ea224fe,,,,,,,,,3644,-50.48046875,-88.0390625,1,0,0,response5disk,,3,-6.6875,-3.2890625,1,0,0,rectangle,-6.6875,-3.2890625,1,0,0,-6.6875,-3.2890625,1,0,0,0,41,41,17,1,,,,,,,,
,,,,,,,,,,,,,FF,,,,,,,,1.2001,,,,,,,,,,,,,,,,,,,,,,610203b1bc07b831633fa676,61036d9b0bca9b6bb0ab1258,2021-07-29_23h11.27.953,Simcolourproject_2stim_asymm_v5,2020.2.10,MacIntel,60,61025ae37ef11b136ea224fe,,,,,,,,,248,-79.7421875,-36.32421875,1,0,0,response5disk,,2,1.00390625,1.19140625,1,0,0,rectangle,1.00390625,1.19140625,1,0,0,1.00390625,1.19140625,1,0,0,0,42,42,20,1,,,,,,,,
,,,,,,,,,,,,,FF,,,,,,,,1.0995,,,,,,,,,,,,,,,,,,,,,,610203b1bc07b831633fa676,61036d9b0bca9b6bb0ab1258,2021-07-29_23h11.27.953,Simcolourproject_2stim_asymm_v5,2020.2.10,MacIntel,60,61025ae37ef11b136ea224fe,,,,,,,,,4056,-32.6875,-90.81640625,1,0,0,response5disk,,3,-2,-11.921875,1,0,0,rectangle,-2,-11.921875,1,0,0,-2,-11.921875,1,0,0,0,43,43,132,1,,,,,,,,
,,,,,,,,,,,,,FF,,,,,,,,1.5673,,,,,,,,,,,,,,,,,,,,,,610203b1bc07b831633fa676,61036d9b0bca9b6bb0ab1258,2021-07-29_23h11.27.953,Simcolourproject_2stim_asymm_v5,2020.2.10,MacIntel,60,61025ae37ef11b136ea224fe,,,,,,,,,3789,-24.125,-93.66796875,1,0,0,response5disk,,3,-8.765625,4.953125,1,0,0,rectangle,-8.765625,4.953125,1,0,0,-8.765625,4.953125,1,0,0,0,44,44,27,1,,,,,,,,
,,,,,,,,,,,,,FF,,,,,,,,1.6496,,,,,,,,,,,,,,,,,,,,,,610203b1bc07b831633fa676,61036d9b0bca9b6bb0ab1258,2021-07-29_23h11.27.953,Simcolourproject_2stim_asymm_v5,2020.2.10,MacIntel,60,61025ae37ef11b136ea224fe,,,,,,,,,778,32.5390625,-61.5546875,1,0,0,response3disk,,4,3.1640625,-9.47265625,1,0,0,rectangle,3.1640625,-9.47265625,1,0,0,3.1640625,-9.47265625,1,0,0,0,45,45,2,1,,,,,,,,
,,,,,,,,,,,,,FF,,,,,,,,1.2991,,,,,,,,,,,,,,,,,,,,,,610203b1bc07b831633fa676,61036d9b0bca9b6bb0ab1258,2021-07-29_23h11.27.953,Simcolourproject_2stim_asymm_v5,2020.2.10,MacIntel,60,61025ae37ef11b136ea224fe,,,,,,,,,1218,-90.8984375,23.68359375,1,0,0,response7disk,,1,25.734375,-10.50390625,1,0,0,rectangle,25.734375,-10.50390625,1,0,0,25.734375,-10.50390625,1,0,0,0,46,46,58,1,,,,,,,,
,,,,,,,,,,,,,FF,,,,,,,,1.4473,,,,,,,,,,,,,,,,,,,,,,610203b1bc07b831633fa676,61036d9b0bca9b6bb0ab1258,2021-07-29_23h11.27.953,Simcolourproject_2stim_asymm_v5,2020.2.10,MacIntel,60,61025ae37ef11b136ea224fe,,,,,,,,,1607,-71.42578125,-33.34375,1,0,0,response5disk,,2,-0.875,-0.37109375,1,0,0,rectangle,-0.875,-0.37109375,1,0,0,-0.875,-0.37109375,1,0,0,0,47,47,118,1,,,,,,,,
,,,,,,,,,,,,,FF,,,,,,,,1.383,,,,,,,,,,,,,,,,,,,,,,610203b1bc07b831633fa676,61036d9b0bca9b6bb0ab1258,2021-07-29_23h11.27.953,Simcolourproject_2stim_asymm_v5,2020.2.10,MacIntel,60,61025ae37ef11b136ea224fe,,,,,,,,,1138,-49.02734375,67.26171875,1,0,0,response7disk,,0,-0.37890625,1.7421875,1,0,0,rectangle,-0.37890625,1.7421875,1,0,0,-0.37890625,1.7421875,1,0,0,0,48,48,70,1,,,,,,,,
,,,,,,,,,,,,,FF,,,,,,,,1.1498,,,,,,,,,,,,,,,,,,,,,,610203b1bc07b831633fa676,61036d9b0bca9b6bb0ab1258,2021-07-29_23h11.27.953,Simcolourproject_2stim_asymm_v5,2020.2.10,MacIntel,60,61025ae37ef11b136ea224fe,,,,,,,,,3490,61.77734375,59.9921875,1,0,0,response1disk,,6,1.98828125,6.109375,1,0,0,rectangle,1.98828125,6.109375,1,0,0,1.98828125,6.109375,1,0,0,0,49,49,143,1,,,,,,,,
,,,,,,,,,,,,,FF,,,,,,,,1.1659,,,,,,,,,,,,,,,,,,,,,,610203b1bc07b831633fa676,61036d9b0bca9b6bb0ab1258,2021-07-29_23h11.27.953,Simcolourproject_2stim_asymm_v5,2020.2.10,MacIntel,60,61025ae37ef11b136ea224fe,,,,,,,,,1117,86.35546875,-43.60546875,1,0,0,response3disk,,5,4.1015625,-5.2265625,1,0,0,rectangle,4.1015625,-5.2265625,1,0,0,4.1015625,-5.2265625,1,0,0,0,50,50,9,1,,,,,,,,
,,,,,,,,,,,,,FF,,,,,,,,1.2997,,,,,,,,,,,,,,,,,,,,,,610203b1bc07b831633fa676,61036d9b0bca9b6bb0ab1258,2021-07-29_23h11.27.953,Simcolourproject_2stim_asymm_v5,2020.2.10,MacIntel,60,61025ae37ef11b136ea224fe,,,,,,,,,1873,45.2890625,86.07421875,1,0,0,response1disk,,7,0.26953125,-3.2421875,1,0,0,rectangle,0.26953125,-3.2421875,1,0,0,0.26953125,-3.2421875,1,0,0,0,51,51,25,1,,,,,,,,
,,,,,,,,,,,,,FF,,,,,,,,1.7995,,,,,,,,,,,,,,,,,,,,,,610203b1bc07b831633fa676,61036d9b0bca9b6bb0ab1258,2021-07-29_23h11.27.953,Simcolourproject_2stim_asymm_v5,2020.2.10,MacIntel,60,61025ae37ef11b136ea224fe,,,,,,,,,2570,29.77734375,-81.79296875,1,0,0,response3disk,,4,-9.33984375,-9.25390625,1,0,0,rectangle,-9.33984375,-9.25390625,1,0,0,-9.33984375,-9.25390625,1,0,0,0,52,52,106,1,,,,,,,,
,,,,,,,,,,,,,FF,,,,,,,,2.3502,,,,,,,,,,,,,,,,,,,,,,610203b1bc07b831633fa676,61036d9b0bca9b6bb0ab1258,2021-07-29_23h11.27.953,Simcolourproject_2stim_asymm_v5,2020.2.10,MacIntel,60,61025ae37ef11b136ea224fe,,,,,,,,,2744,66.8671875,-85.8125,1,0,0,response3disk,,4,28.9609375,-5.59765625,1,0,0,rectangle,28.9609375,-5.59765625,1,0,0,28.9609375,-5.59765625,1,0,0,0,53,53,19,1,,,,,,,,
,,,,,,,,,,,,,FF,,,,,,,,0.9997,,,,,,,,,,,,,,,,,,,,,,610203b1bc07b831633fa676,61036d9b0bca9b6bb0ab1258,2021-07-29_23h11.27.953,Simcolourproject_2stim_asymm_v5,2020.2.10,MacIntel,60,61025ae37ef11b136ea224fe,,,,,,,,,304,52.40234375,75.515625,1,0,0,response1disk,,7,5.984375,4.734375,1,0,0,rectangle,5.984375,4.734375,1,0,0,5.984375,4.734375,1,0,0,0,54,54,38,1,,,,,,,,
,,,,,,,,,,,,,FF,,,,,,,,1.5005,,,,,,,,,,,,,,,,,,,,,,610203b1bc07b831633fa676,61036d9b0bca9b6bb0ab1258,2021-07-29_23h11.27.953,Simcolourproject_2stim_asymm_v5,2020.2.10,MacIntel,60,61025ae37ef11b136ea224fe,,,,,,,,,927,65,-47.65234375,1,0,0,response3disk,,5,-10.5390625,10.4765625,1,0,0,rectangle,-10.5390625,10.4765625,1,0,0,-10.5390625,10.4765625,1,0,0,0,55,55,78,1,,,,,,,,
,,,,,,,,,,,,,FF,,,,,,,,1.1332,,,,,,,,,,,,,,,,,,,,,,610203b1bc07b831633fa676,61036d9b0bca9b6bb0ab1258,2021-07-29_23h11.27.953,Simcolourproject_2stim_asymm_v5,2020.2.10,MacIntel,60,61025ae37ef11b136ea224fe,,,,,,,,,2421,-81.55859375,-47.00390625,1,0,0,response5disk,,2,-2.6953125,-0.7421875,1,0,0,rectangle,-2.6953125,-0.7421875,1,0,0,-2.6953125,-0.7421875,1,0,0,0,56,56,32,1,,,,,,,,
,,,,,,,,,,,,,FF,,,,,,,,1.4673,,,,,,,,,,,,,,,,,,,,,,610203b1bc07b831633fa676,61036d9b0bca9b6bb0ab1258,2021-07-29_23h11.27.953,Simcolourproject_2stim_asymm_v5,2020.2.10,MacIntel,60,61025ae37ef11b136ea224fe,,,,,,,,,105,78.1953125,-49.64453125,1,0,0,response3disk,,5,2.78515625,9.92578125,1,0,0,rectangle,2.78515625,9.92578125,1,0,0,2.78515625,9.92578125,1,0,0,0,57,57,159,1,,,,,,,,
,,,,,,,,,,,,,FF,,,,,,,,4.0663,,,,,,,,,,,,,,,,,,,,,,610203b1bc07b831633fa676,61036d9b0bca9b6bb0ab1258,2021-07-29_23h11.27.953,Simcolourproject_2stim_asymm_v5,2020.2.10,MacIntel,60,61025ae37ef11b136ea224fe,,,,,,,,,2376,53.7734375,-104.3164063,1,0,0,response3disk,,4,-0.67578125,-12.38671875,1,0,0,rectangle,-0.67578125,-12.38671875,1,0,0,-0.67578125,-12.38671875,1,0,0,0,58,58,3,1,,,,,,,,
,,,,,,,,,,,,,FF,,,,,,,,1.7165,,,,,,,,,,,,,,,,,,,,,,610203b1bc07b831633fa676,61036d9b0bca9b6bb0ab1258,2021-07-29_23h11.27.953,Simcolourproject_2stim_asymm_v5,2020.2.10,MacIntel,60,61025ae37ef11b136ea224fe,,,,,,,,,1366,36.39453125,102.9960938,1,0,0,response1disk,,7,13.453125,-7.3046875,1,0,0,rectangle,13.453125,-7.3046875,1,0,0,13.453125,-7.3046875,1,0,0,0,59,59,5,1,,,,,,,,
,,,,,,,,,,,,,FF,,,,,,,,1.7838,,,,,,,,,,,,,,,,,,,,,,610203b1bc07b831633fa676,61036d9b0bca9b6bb0ab1258,2021-07-29_23h11.27.953,Simcolourproject_2stim_asymm_v5,2020.2.10,MacIntel,60,61025ae37ef11b136ea224fe,,,,,,,,,1047,45.16015625,-72.14453125,1,0,0,response3disk,,4,16.73046875,-9.3359375,1,0,0,rectangle,16.73046875,-9.3359375,1,0,0,16.73046875,-9.3359375,1,0,0,0,60,60,121,1,,,,,,,,
,,,,,,,,,,,,,FF,,,,,,,,1.6502,,,,,,,,,,,,,,,,,,,,,,610203b1bc07b831633fa676,61036d9b0bca9b6bb0ab1258,2021-07-29_23h11.27.953,Simcolourproject_2stim_asymm_v5,2020.2.10,MacIntel,60,61025ae37ef11b136ea224fe,,,,,,,,,1532,39.3125,-104.015625,1,0,0,response3disk,,4,12.6328125,-11.97265625,1,0,0,rectangle,12.6328125,-11.97265625,1,0,0,12.6328125,-11.97265625,1,0,0,0,61,61,126,1,,,,,,,,
,,,,,,,,,,,,,FF,,,,,,,,1.5002,,,,,,,,,,,,,,,,,,,,,,610203b1bc07b831633fa676,61036d9b0bca9b6bb0ab1258,2021-07-29_23h11.27.953,Simcolourproject_2stim_asymm_v5,2020.2.10,MacIntel,60,61025ae37ef11b136ea224fe,,,,,,,,,2287,45.83984375,-91.69921875,1,0,0,response3disk,,4,-4.94921875,-7.5234375,1,0,0,rectangle,-4.94921875,-7.5234375,1,0,0,-4.94921875,-7.5234375,1,0,0,0,62,62,109,1,,,,,,,,
,,,,,,,,,,,,,FF,,,,,,,,1.2995,,,,,,,,,,,,,,,,,,,,,,610203b1bc07b831633fa676,61036d9b0bca9b6bb0ab1258,2021-07-29_23h11.27.953,Simcolourproject_2stim_asymm_v5,2020.2.10,MacIntel,60,61025ae37ef11b136ea224fe,,,,,,,,,637,-92.72265625,-38.87109375,1,0,0,response5disk,,2,-24.0703125,-8.7578125,1,0,0,rectangle,-24.0703125,-8.7578125,1,0,0,-24.0703125,-8.7578125,1,0,0,0,63,63,31,1,,,,,,,,
,,,,,,,,,,,,,FF,,,,,,,,1.4171,,,,,,,,,,,,,,,,,,,,,,610203b1bc07b831633fa676,61036d9b0bca9b6bb0ab1258,2021-07-29_23h11.27.953,Simcolourproject_2stim_asymm_v5,2020.2.10,MacIntel,60,61025ae37ef11b136ea224fe,,,,,,,,,2628,92.8515625,21.87890625,1,0,0,response1disk,,6,1.16015625,-7.2109375,1,0,0,rectangle,1.16015625,-7.2109375,1,0,0,1.16015625,-7.2109375,1,0,0,0,64,64,44,1,,,,,,,,
,,,,,,,,,,,,,FF,,,,,,,,1.1506,,,,,,,,,,,,,,,,,,,,,,610203b1bc07b831633fa676,61036d9b0bca9b6bb0ab1258,2021-07-29_23h11.27.953,Simcolourproject_2stim_asymm_v5,2020.2.10,MacIntel,60,61025ae37ef11b136ea224fe,,,,,,,,,553,45.96484375,-49.82421875,1,0,0,response3disk,,4,23.14453125,-15.0859375,1,0,0,rectangle,23.14453125,-15.0859375,1,0,0,23.14453125,-15.0859375,1,0,0,0,65,65,111,1,,,,,,,,
,,,,,,,,,,,,,FF,,,,,,,,1.1331,,,,,,,,,,,,,,,,,,,,,,610203b1bc07b831633fa676,61036d9b0bca9b6bb0ab1258,2021-07-29_23h11.27.953,Simcolourproject_2stim_asymm_v5,2020.2.10,MacIntel,60,61025ae37ef11b136ea224fe,,,,,,,,,1781,34.76953125,81.421875,1,0,0,response1disk,,7,6.3359375,-11.3828125,1,0,0,rectangle,6.3359375,-11.3828125,1,0,0,6.3359375,-11.3828125,1,0,0,0,66,66,141,1,,,,,,,,
,,,,,,,,,,,,,FF,,,,,,,,1.9671,,,,,,,,,,,,,,,,,,,,,,610203b1bc07b831633fa676,61036d9b0bca9b6bb0ab1258,2021-07-29_23h11.27.953,Simcolourproject_2stim_asymm_v5,2020.2.10,MacIntel,60,61025ae37ef11b136ea224fe,,,,,,,,,219,35.2265625,-54.74609375,1,0,0,response3disk,,4,5.17578125,-0.8359375,1,0,0,rectangle,5.17578125,-0.8359375,1,0,0,5.17578125,-0.8359375,1,0,0,0,67,67,67,1,,,,,,,,
,,,,,,,,,,,,,FF,,,,,,,,1.6665,,,,,,,,,,,,,,,,,,,,,,610203b1bc07b831633fa676,61036d9b0bca9b6bb0ab1258,2021-07-29_23h11.27.953,Simcolourproject_2stim_asymm_v5,2020.2.10,MacIntel,60,61025ae37ef11b136ea224fe,,,,,,,,,3715,-35.6328125,-68.94921875,1,0,0,response5disk,,3,0.26953125,9.484375,1,0,0,rectangle,-81.08203125,31.25390625,1,0,0,-2.05859375,-4.21484375,1,0,0,0,68,68,133,1,,response7disk_3,TRUE,1,1,"[204,230,69,171,127,74,192,153,159,264,174,283,17,97,310,323,161,127,118,145]",1.5012,rectangle
,,,,,,,,,,,,,FF,,,,,,,,1.0162,,,,,,,,,,,,,,,,,,,,,,610203b1bc07b831633fa676,61036d9b0bca9b6bb0ab1258,2021-07-29_23h11.27.953,Simcolourproject_2stim_asymm_v5,2020.2.10,MacIntel,60,61025ae37ef11b136ea224fe,,,,,,,,,1822,-55.3671875,-36.6171875,1,0,0,response5disk,,2,4.9609375,-7.44921875,1,0,0,rectangle,4.9609375,-7.44921875,1,0,0,4.9609375,-7.44921875,1,0,0,0,69,69,108,1,,,,,,,,
,,,,,,,,,,,,,FF,,,,,,,,1.2166,,,,,,,,,,,,,,,,,,,,,,610203b1bc07b831633fa676,61036d9b0bca9b6bb0ab1258,2021-07-29_23h11.27.953,Simcolourproject_2stim_asymm_v5,2020.2.10,MacIntel,60,61025ae37ef11b136ea224fe,,,,,,,,,3480,-42.6484375,-91.27734375,1,0,0,response5disk,,3,-16.7734375,-11.5625,1,0,0,rectangle,-16.7734375,-11.5625,1,0,0,-16.7734375,-11.5625,1,0,0,0,70,70,142,1,,,,,,,,
,,,,,,,,,,,,,FF,,,,,,,,1.2833,,,,,,,,,,,,,,,,,,,,,,610203b1bc07b831633fa676,61036d9b0bca9b6bb0ab1258,2021-07-29_23h11.27.953,Simcolourproject_2stim_asymm_v5,2020.2.10,MacIntel,60,61025ae37ef11b136ea224fe,,,,,,,,,3706,-103.875,45.3359375,1,0,0,response7disk,,1,-18.95703125,0.484375,1,0,0,rectangle,-18.95703125,0.484375,1,0,0,-18.95703125,0.484375,1,0,0,0,71,71,94,1,,,,,,,,
,,,,,,,,,,,,,FF,,,,,,,,1.3665,,,,,,,,,,,,,,,,,,,,,,610203b1bc07b831633fa676,61036d9b0bca9b6bb0ab1258,2021-07-29_23h11.27.953,Simcolourproject_2stim_asymm_v5,2020.2.10,MacIntel,60,61025ae37ef11b136ea224fe,,,,,,,,,96,-74.76171875,-48.01171875,1,0,0,response5disk,,2,-20.7578125,-7.75390625,1,0,0,rectangle,-20.7578125,-7.75390625,1,0,0,-20.7578125,-7.75390625,1,0,0,0,72,72,86,1,,,,,,,,
,,,,,,,,,,,,,FF,,,,,,,,1.5494,,,,,,,,,,,,,,,,,,,,,,610203b1bc07b831633fa676,61036d9b0bca9b6bb0ab1258,2021-07-29_23h11.27.953,Simcolourproject_2stim_asymm_v5,2020.2.10,MacIntel,60,61025ae37ef11b136ea224fe,,,,,,,,,301,15.546875,69.1796875,1,0,0,response1disk,,7,4.8125,-13.875,1,0,0,rectangle,-27.52734375,-77.59765625,1,0,0,14.9765625,-7.25,1,0,0,0,73,73,99,1,,response5disk_3,TRUE,3,3,"[204,230,69,171,127,74,192,153,159,264,174,283,17,97,310,323,161,127,118,145]",1.9495,rectangle
,,,,,,,,,,,,,FF,,,,,,,,1.2343,,,,,,,,,,,,,,,,,,,,,,610203b1bc07b831633fa676,61036d9b0bca9b6bb0ab1258,2021-07-29_23h11.27.953,Simcolourproject_2stim_asymm_v5,2020.2.10,MacIntel,60,61025ae37ef11b136ea224fe,,,,,,,,,903,29.59765625,53.51953125,1,0,0,response1disk,,7,15.0078125,5.078125,1,0,0,rectangle,15.0078125,5.078125,1,0,0,15.0078125,5.078125,1,0,0,0,74,74,131,1,,,,,,,,
,,,,,,,,,,,,,FF,,,,,,,,2.2497,,,,,,,,,,,,,,,,,,,,,,610203b1bc07b831633fa676,61036d9b0bca9b6bb0ab1258,2021-07-29_23h11.27.953,Simcolourproject_2stim_asymm_v5,2020.2.10,MacIntel,60,61025ae37ef11b136ea224fe,,,,,,,,,2028,93.06640625,-42.578125,1,0,0,response3disk,,5,12.82421875,-2.39453125,1,0,0,rectangle,12.82421875,-2.39453125,1,0,0,12.82421875,-2.39453125,1,0,0,0,75,75,66,1,,,,,,,,
,,,,,,,,,,,,,FF,,,,,,,,1.2498,,,,,,,,,,,,,,,,,,,,,,610203b1bc07b831633fa676,61036d9b0bca9b6bb0ab1258,2021-07-29_23h11.27.953,Simcolourproject_2stim_asymm_v5,2020.2.10,MacIntel,60,61025ae37ef11b136ea224fe,,,,,,,,,3746,-33.1171875,-95.18359375,1,0,0,response5disk,,3,-12.171875,9.9375,1,0,0,rectangle,-12.171875,9.9375,1,0,0,-12.171875,9.9375,1,0,0,0,76,76,53,1,,,,,,,,
,,,,,,,,,,,,,FF,,,,,,,,1.1159,,,,,,,,,,,,,,,,,,,,,,610203b1bc07b831633fa676,61036d9b0bca9b6bb0ab1258,2021-07-29_23h11.27.953,Simcolourproject_2stim_asymm_v5,2020.2.10,MacIntel,60,61025ae37ef11b136ea224fe,,,,,,,,,2000,37.15625,63.69921875,1,0,0,response1disk,,7,8.31640625,-9.83203125,1,0,0,rectangle,8.31640625,-9.83203125,1,0,0,8.31640625,-9.83203125,1,0,0,0,77,77,82,1,,,,,,,,
,,,,,,,,,,,,,FF,,,,,,,,1.1668,,,,,,,,,,,,,,,,,,,,,,610203b1bc07b831633fa676,61036d9b0bca9b6bb0ab1258,2021-07-29_23h11.27.953,Simcolourproject_2stim_asymm_v5,2020.2.10,MacIntel,60,61025ae37ef11b136ea224fe,,,,,,,,,1782,-39.5078125,-48.328125,1,0,0,response5disk,,3,-19.0234375,-10.71484375,1,0,0,rectangle,-19.0234375,-10.71484375,1,0,0,-19.0234375,-10.71484375,1,0,0,0,78,78,52,1,,,,,,,,
,,,,,,,,,,,,,FF,,,,,,,,1.6154,,,,,,,,,,,,,,,,,,,,,,610203b1bc07b831633fa676,61036d9b0bca9b6bb0ab1258,2021-07-29_23h11.27.953,Simcolourproject_2stim_asymm_v5,2020.2.10,MacIntel,60,61025ae37ef11b136ea224fe,,,,,,,,,649,31.89453125,-91.10546875,1,0,0,response3disk,,4,-9.9140625,-9.70703125,1,0,0,rectangle,-9.9140625,-9.70703125,1,0,0,-9.9140625,-9.70703125,1,0,0,0,79,79,47,1,,,,,,,,
,,,,,,,,,,,,,FF,,,,,,,,0.9174,,,,,,,,,,,,,,,,,,,,,,610203b1bc07b831633fa676,61036d9b0bca9b6bb0ab1258,2021-07-29_23h11.27.953,Simcolourproject_2stim_asymm_v5,2020.2.10,MacIntel,60,61025ae37ef11b136ea224fe,,,,,,,,,1653,39.11328125,61.0703125,1,0,0,response1disk,,7,22.109375,13.5625,1,0,0,rectangle,22.109375,13.5625,1,0,0,22.109375,13.5625,1,0,0,0,80,80,149,1,,,,,,,,
,,,,,,,,,,,,,FF,,,,,,,,3.033,,,,,,,,,,,,,,,,,,,,,,610203b1bc07b831633fa676,61036d9b0bca9b6bb0ab1258,2021-07-29_23h11.27.953,Simcolourproject_2stim_asymm_v5,2020.2.10,MacIntel,60,61025ae37ef11b136ea224fe,,,,,,,,,3014,92.62109375,-38.109375,1,0,0,response3disk,,5,-14.69140625,4.56640625,1,0,0,rectangle,-14.69140625,4.56640625,1,0,0,-14.69140625,4.56640625,1,0,0,0,81,81,137,1,,,,,,,,
,,,,,,,,,,,,,FF,,,,,,,,1.0994,,,,,,,,,,,,,,,,,,,,,,610203b1bc07b831633fa676,61036d9b0bca9b6bb0ab1258,2021-07-29_23h11.27.953,Simcolourproject_2stim_asymm_v5,2020.2.10,MacIntel,60,61025ae37ef11b136ea224fe,,,,,,,,,756,41.94140625,48.9453125,1,0,0,response1disk,,7,16.67578125,0.015625,1,0,0,rectangle,16.67578125,0.015625,1,0,0,16.67578125,0.015625,1,0,0,0,82,82,107,1,,,,,,,,
,,,,,,,,,,,,,FF,,,,,,,,1.5,,,,,,,,,,,,,,,,,,,,,,610203b1bc07b831633fa676,61036d9b0bca9b6bb0ab1258,2021-07-29_23h11.27.953,Simcolourproject_2stim_asymm_v5,2020.2.10,MacIntel,60,61025ae37ef11b136ea224fe,,,,,,,,,480,18.53125,49.45703125,1,0,0,response1disk,,7,13.5703125,2.80859375,1,0,0,rectangle,13.5703125,2.80859375,1,0,0,13.5703125,2.80859375,1,0,0,0,83,83,130,1,,,,,,,,
,,,,,,,,,,,,,FF,,,,,,,,1.2992,,,,,,,,,,,,,,,,,,,,,,610203b1bc07b831633fa676,61036d9b0bca9b6bb0ab1258,2021-07-29_23h11.27.953,Simcolourproject_2stim_asymm_v5,2020.2.10,MacIntel,60,61025ae37ef11b136ea224fe,,,,,,,,,3482,20.62890625,71.46484375,1,0,0,response1disk,,7,5.0625,5.078125,1,0,0,rectangle,5.0625,5.078125,1,0,0,5.0625,5.078125,1,0,0,0,84,84,112,1,,,,,,,,
,,,,,,,,,,,,,FF,,,,,,,,1.2666,,,,,,,,,,,,,,,,,,,,,,610203b1bc07b831633fa676,61036d9b0bca9b6bb0ab1258,2021-07-29_23h11.27.953,Simcolourproject_2stim_asymm_v5,2020.2.10,MacIntel,60,61025ae37ef11b136ea224fe,,,,,,,,,3609,69.453125,19.9140625,1,0,0,response1disk,,6,8.58203125,-3.859375,1,0,0,rectangle,8.58203125,-3.859375,1,0,0,8.58203125,-3.859375,1,0,0,0,85,85,95,1,,,,,,,,
,,,,,,,,,,,,,FF,,,,,,,,1.3001,,,,,,,,,,,,,,,,,,,,,,610203b1bc07b831633fa676,61036d9b0bca9b6bb0ab1258,2021-07-29_23h11.27.953,Simcolourproject_2stim_asymm_v5,2020.2.10,MacIntel,60,61025ae37ef11b136ea224fe,,,,,,,,,91,28.55859375,78.59765625,1,0,0,response1disk,,7,2.12890625,0.23046875,1,0,0,rectangle,2.12890625,0.23046875,1,0,0,2.12890625,0.23046875,1,0,0,0,86,86,8,1,,,,,,,,
,,,,,,,,,,,,,FF,,,,,,,,1.516,,,,,,,,,,,,,,,,,,,,,,610203b1bc07b831633fa676,61036d9b0bca9b6bb0ab1258,2021-07-29_23h11.27.953,Simcolourproject_2stim_asymm_v5,2020.2.10,MacIntel,60,61025ae37ef11b136ea224fe,,,,,,,,,744,22.16015625,98.5234375,1,0,0,response1disk,,7,-0.4609375,-5.31640625,1,0,0,rectangle,-0.4609375,-5.31640625,1,0,0,-0.4609375,-5.31640625,1,0,0,0,87,87,16,1,,,,,,,,
,,,,,,,,,,,,,FF,,,,,,,,0.5662,,,,,,,,,,,,,,,,,,,,,,610203b1bc07b831633fa676,61036d9b0bca9b6bb0ab1258,2021-07-29_23h11.27.953,Simcolourproject_2stim_asymm_v5,2020.2.10,MacIntel,60,61025ae37ef11b136ea224fe,,,,,,,,,860,28.08984375,59.40625,1,0,0,response1disk,,7,3.69921875,-9.3046875,1,0,0,rectangle,3.69921875,-9.3046875,1,0,0,3.69921875,-9.3046875,1,0,0,0,88,88,135,1,,,,,,,,
,,,,,,,,,,,,,FF,,,,,,,,0.6494,,,,,,,,,,,,,,,,,,,,,,610203b1bc07b831633fa676,61036d9b0bca9b6bb0ab1258,2021-07-29_23h11.27.953,Simcolourproject_2stim_asymm_v5,2020.2.10,MacIntel,60,61025ae37ef11b136ea224fe,,,,,,,,,841,32.23046875,85.484375,1,0,0,response1disk,,7,19.703125,1.7109375,1,0,0,rectangle,19.703125,1.7109375,1,0,0,19.703125,1.7109375,1,0,0,0,89,89,40,1,,,,,,,,
,,,,,,,,,,,,,FF,,,,,,,,1.8325,,,,,,,,,,,,,,,,,,,,,,610203b1bc07b831633fa676,61036d9b0bca9b6bb0ab1258,2021-07-29_23h11.27.953,Simcolourproject_2stim_asymm_v5,2020.2.10,MacIntel,60,61025ae37ef11b136ea224fe,,,,,,,,,556,32.28515625,-88.265625,1,0,0,response3disk,,4,-12.49609375,3.6484375,1,0,0,rectangle,-12.49609375,3.6484375,1,0,0,-12.49609375,3.6484375,1,0,0,0,90,90,88,1,,,,,,,,
,,,,,,,,,,,,,FF,,,,,,,,1.7491,,,,,,,,,,,,,,,,,,,,,,610203b1bc07b831633fa676,61036d9b0bca9b6bb0ab1258,2021-07-29_23h11.27.953,Simcolourproject_2stim_asymm_v5,2020.2.10,MacIntel,60,61025ae37ef11b136ea224fe,,,,,,,,,3114,65.25,48.38671875,1,0,0,response1disk,,6,9.3828125,10.4765625,1,0,0,rectangle,9.3828125,10.4765625,1,0,0,9.3828125,10.4765625,1,0,0,0,91,91,138,1,,,,,,,,
,,,,,,,,,,,,,FF,,,,,,,,0.833,,,,,,,,,,,,,,,,,,,,,,610203b1bc07b831633fa676,61036d9b0bca9b6bb0ab1258,2021-07-29_23h11.27.953,Simcolourproject_2stim_asymm_v5,2020.2.10,MacIntel,60,61025ae37ef11b136ea224fe,,,,,,,,,3465,37.43359375,85.6015625,1,0,0,response1disk,,7,8.765625,-6.85546875,1,0,0,rectangle,8.765625,-6.85546875,1,0,0,8.765625,-6.85546875,1,0,0,0,92,92,35,1,,,,,,,,
,,,,,,,,,,,,,FF,,,,,,,,1.316,,,,,,,,,,,,,,,,,,,,,,610203b1bc07b831633fa676,61036d9b0bca9b6bb0ab1258,2021-07-29_23h11.27.953,Simcolourproject_2stim_asymm_v5,2020.2.10,MacIntel,60,61025ae37ef11b136ea224fe,,,,,,,,,4003,24.83203125,-90.94140625,1,0,0,response3disk,,4,-5.46484375,-13.0078125,1,0,0,rectangle,-5.46484375,-13.0078125,1,0,0,-5.46484375,-13.0078125,1,0,0,0,93,93,125,1,,,,,,,,
,,,,,,,,,,,,,FF,,,,,,,,1.6002,,,,,,,,,,,,,,,,,,,,,,610203b1bc07b831633fa676,61036d9b0bca9b6bb0ab1258,2021-07-29_23h11.27.953,Simcolourproject_2stim_asymm_v5,2020.2.10,MacIntel,60,61025ae37ef11b136ea224fe,,,,,,,,,1091,82.640625,38.14453125,1,0,0,response1disk,,6,26.07421875,14.03125,1,0,0,rectangle,26.07421875,14.03125,1,0,0,26.07421875,14.03125,1,0,0,0,94,94,157,1,,,,,,,,
,,,,,,,,,,,,,FF,,,,,,,,1.1163,,,,,,,,,,,,,,,,,,,,,,610203b1bc07b831633fa676,61036d9b0bca9b6bb0ab1258,2021-07-29_23h11.27.953,Simcolourproject_2stim_asymm_v5,2020.2.10,MacIntel,60,61025ae37ef11b136ea224fe,,,,,,,,,3295,-38.05078125,-74.5703125,1,0,0,response5disk,,3,-13.4765625,2.01953125,1,0,0,rectangle,-13.4765625,2.01953125,1,0,0,-13.4765625,2.01953125,1,0,0,0,95,95,140,1,,,,,,,,
,,,,,,,,,,,,,FF,,,,,,,,1.299,,,,,,,,,,,,,,,,,,,,,,610203b1bc07b831633fa676,61036d9b0bca9b6bb0ab1258,2021-07-29_23h11.27.953,Simcolourproject_2stim_asymm_v5,2020.2.10,MacIntel,60,61025ae37ef11b136ea224fe,,,,,,,,,2921,26.7890625,57.8671875,1,0,0,response1disk,,7,4.578125,-10.78125,1,0,0,rectangle,-43.7578125,-79.015625,1,0,0,-13.2421875,-6.27734375,1,0,0,0,96,96,153,1,,response5disk_3,TRUE,3,3,"[204,230,69,171,127,74,192,153,159,264,174,283,17,97,310,323,161,127,118,145]",1.7664,rectangle
,,,,,,,,,,,,,FF,,,,,,,,3.8495,,,,,,,,,,,,,,,,,,,,,,610203b1bc07b831633fa676,61036d9b0bca9b6bb0ab1258,2021-07-29_23h11.27.953,Simcolourproject_2stim_asymm_v5,2020.2.10,MacIntel,60,61025ae37ef11b136ea224fe,,,,,,,,,3161,32.9296875,-95.05859375,1,0,0,response3disk,,4,-1.69140625,-6.453125,1,0,0,rectangle,-1.69140625,-6.453125,1,0,0,-1.69140625,-6.453125,1,0,0,0,97,97,69,1,,,,,,,,
,,,,,,,,,,,,,FF,,,,,,,,1.6165,,,,,,,,,,,,,,,,,,,,,,610203b1bc07b831633fa676,61036d9b0bca9b6bb0ab1258,2021-07-29_23h11.27.953,Simcolourproject_2stim_asymm_v5,2020.2.10,MacIntel,60,61025ae37ef11b136ea224fe,,,,,,,,,274,33.55078125,40.1640625,1,0,0,response1disk,,7,22.77734375,5.0234375,1,0,0,rectangle,22.77734375,5.0234375,1,0,0,22.77734375,5.0234375,1,0,0,0,98,98,28,1,,,,,,,,
,,,,,,,,,,,,,FF,,,,,,,,2.4665,,,,,,,,,,,,,,,,,,,,,,610203b1bc07b831633fa676,61036d9b0bca9b6bb0ab1258,2021-07-29_23h11.27.953,Simcolourproject_2stim_asymm_v5,2020.2.10,MacIntel,60,61025ae37ef11b136ea224fe,,,,,,,,,2844,85.14453125,-82.28125,1,0,0,response3disk,,5,4.8125,-9.9609375,1,0,0,rectangle,4.8125,-9.9609375,1,0,0,4.8125,-9.9609375,1,0,0,0,99,99,116,1,,,,,,,,
,,,,,,,,,,,,,FF,,,,,,,,1.882,,,,,,,,,,,,,,,,,,,,,,610203b1bc07b831633fa676,61036d9b0bca9b6bb0ab1258,2021-07-29_23h11.27.953,Simcolourproject_2stim_asymm_v5,2020.2.10,MacIntel,60,61025ae37ef11b136ea224fe,,,,,,,,,415,29.83984375,53.95703125,1,0,0,response1disk,,7,10.84375,3.390625,1,0,0,rectangle,10.84375,3.390625,1,0,0,10.84375,3.390625,1,0,0,0,100,100,89,1,,,,,,,,
,,,,,,,,,,,,,FF,,,,,,,,1.9165,,,,,,,,,,,,,,,,,,,,,,610203b1bc07b831633fa676,61036d9b0bca9b6bb0ab1258,2021-07-29_23h11.27.953,Simcolourproject_2stim_asymm_v5,2020.2.10,MacIntel,60,61025ae37ef11b136ea224fe,,,,,,,,,3376,-70.71875,-38.98046875,1,0,0,response5disk,,2,-7.81640625,3.3203125,1,0,0,rectangle,-7.81640625,3.3203125,1,0,0,-7.81640625,3.3203125,1,0,0,0,101,101,97,1,,,,,,,,
,,,,,,,,,,,,,FF,,,,,,,,1.8162,,,,,,,,,,,,,,,,,,,,,,610203b1bc07b831633fa676,61036d9b0bca9b6bb0ab1258,2021-07-29_23h11.27.953,Simcolourproject_2stim_asymm_v5,2020.2.10,MacIntel,60,61025ae37ef11b136ea224fe,,,,,,,,,4082,32.5078125,-82.58203125,1,0,0,response3disk,,4,-1.81640625,-11.859375,1,0,0,rectangle,-1.81640625,-11.859375,1,0,0,-1.81640625,-11.859375,1,0,0,0,102,102,29,1,,,,,,,,
,,,,,,,,,,,,,FF,,,,,,,,1.0665,,,,,,,,,,,,,,,,,,,,,,610203b1bc07b831633fa676,61036d9b0bca9b6bb0ab1258,2021-07-29_23h11.27.953,Simcolourproject_2stim_asymm_v5,2020.2.10,MacIntel,60,61025ae37ef11b136ea224fe,,,,,,,,,38,31.4609375,31.93359375,1,0,0,response1disk,,7,15.85546875,-7.5703125,1,0,0,rectangle,15.85546875,-7.5703125,1,0,0,15.85546875,-7.5703125,1,0,0,0,103,103,4,1,,,,,,,,
,,,,,,,,,,,,,FF,,,,,,,,0.8161,,,,,,,,,,,,,,,,,,,,,,610203b1bc07b831633fa676,61036d9b0bca9b6bb0ab1258,2021-07-29_23h11.27.953,Simcolourproject_2stim_asymm_v5,2020.2.10,MacIntel,60,61025ae37ef11b136ea224fe,,,,,,,,,4014,23.36328125,59.7109375,1,0,0,response1disk,,7,15.22265625,-0.58203125,1,0,0,rectangle,15.22265625,-0.58203125,1,0,0,15.22265625,-0.58203125,1,0,0,0,104,104,122,1,,,,,,,,
,,,,,,,,,,,,,FF,,,,,,,,0.7502,,,,,,,,,,,,,,,,,,,,,,610203b1bc07b831633fa676,61036d9b0bca9b6bb0ab1258,2021-07-29_23h11.27.953,Simcolourproject_2stim_asymm_v5,2020.2.10,MacIntel,60,61025ae37ef11b136ea224fe,,,,,,,,,1814,23.078125,64.25,1,0,0,response1disk,,7,9.07421875,1.73828125,1,0,0,rectangle,9.07421875,1.73828125,1,0,0,9.07421875,1.73828125,1,0,0,0,105,105,83,1,,,,,,,,
,,,,,,,,,,,,,FF,,,,,,,,0.6828,,,,,,,,,,,,,,,,,,,,,,610203b1bc07b831633fa676,61036d9b0bca9b6bb0ab1258,2021-07-29_23h11.27.953,Simcolourproject_2stim_asymm_v5,2020.2.10,MacIntel,60,61025ae37ef11b136ea224fe,,,,,,,,,2811,22.1796875,54.66796875,1,0,0,response1disk,,7,-9.421875,-7.5,1,0,0,rectangle,-9.421875,-7.5,1,0,0,-9.421875,-7.5,1,0,0,0,106,106,42,1,,,,,,,,
,,,,,,,,,,,,,FF,,,,,,,,1.8955,,,,,,,,,,,,,,,,,,,,,,610203b1bc07b831633fa676,61036d9b0bca9b6bb0ab1258,2021-07-29_23h11.27.953,Simcolourproject_2stim_asymm_v5,2020.2.10,MacIntel,60,61025ae37ef11b136ea224fe,,,,,,,,,626,46.4921875,91.91796875,1,0,0,response1disk,,7,5.703125,12.96875,1,0,0,rectangle,5.703125,12.96875,1,0,0,5.703125,12.96875,1,0,0,0,107,107,158,1,,,,,,,,
,,,,,,,,,,,,,FF,,,,,,,,3.949,,,,,,,,,,,,,,,,,,,,,,610203b1bc07b831633fa676,61036d9b0bca9b6bb0ab1258,2021-07-29_23h11.27.953,Simcolourproject_2stim_asymm_v5,2020.2.10,MacIntel,60,61025ae37ef11b136ea224fe,,,,,,,,,3174,40.0703125,82.96875,1,0,0,response1disk,,7,23.9765625,0.08203125,1,0,0,rectangle,23.9765625,0.08203125,1,0,0,23.9765625,0.08203125,1,0,0,0,108,108,114,1,,,,,,,,
,,,,,,,,,,,,,FF,,,,,,,,0.9497,,,,,,,,,,,,,,,,,,,,,,610203b1bc07b831633fa676,61036d9b0bca9b6bb0ab1258,2021-07-29_23h11.27.953,Simcolourproject_2stim_asymm_v5,2020.2.10,MacIntel,60,61025ae37ef11b136ea224fe,,,,,,,,,3287,26.30078125,55.64453125,1,0,0,response1disk,,7,2.15234375,-10.8984375,1,0,0,rectangle,2.15234375,-10.8984375,1,0,0,2.15234375,-10.8984375,1,0,0,0,109,109,11,1,,,,,,,,
,,,,,,,,,,,,,FF,,,,,,,,0.7485,,,,,,,,,,,,,,,,,,,,,,610203b1bc07b831633fa676,61036d9b0bca9b6bb0ab1258,2021-07-29_23h11.27.953,Simcolourproject_2stim_asymm_v5,2020.2.10,MacIntel,60,61025ae37ef11b136ea224fe,,,,,,,,,1362,28.6640625,64.28515625,1,0,0,response1disk,,7,13.48828125,-7.1875,1,0,0,rectangle,13.48828125,-7.1875,1,0,0,13.48828125,-7.1875,1,0,0,0,110,110,10,1,,,,,,,,
,,,,,,,,,,,,,FF,,,,,,,,1.4659,,,,,,,,,,,,,,,,,,,,,,610203b1bc07b831633fa676,61036d9b0bca9b6bb0ab1258,2021-07-29_23h11.27.953,Simcolourproject_2stim_asymm_v5,2020.2.10,MacIntel,60,61025ae37ef11b136ea224fe,,,,,,,,,4211,40.72265625,66.24609375,1,0,0,response1disk,,7,1.734375,-11.31640625,1,0,0,rectangle,1.734375,-11.31640625,1,0,0,1.734375,-11.31640625,1,0,0,0,111,111,45,1,,,,,,,,
,,,,,,,,,,,,,FF,,,,,,,,1.5487,,,,,,,,,,,,,,,,,,,,,,610203b1bc07b831633fa676,61036d9b0bca9b6bb0ab1258,2021-07-29_23h11.27.953,Simcolourproject_2stim_asymm_v5,2020.2.10,MacIntel,60,61025ae37ef11b136ea224fe,,,,,,,,,2360,-83.96875,-49.7109375,1,0,0,response5disk,,2,-17.03125,-11.50390625,1,0,0,rectangle,-17.03125,-11.50390625,1,0,0,-17.03125,-11.50390625,1,0,0,0,112,112,93,1,,,,,,,,
,,,,,,,,,,,,,FF,,,,,,,,1.0002,,,,,,,,,,,,,,,,,,,,,,610203b1bc07b831633fa676,61036d9b0bca9b6bb0ab1258,2021-07-29_23h11.27.953,Simcolourproject_2stim_asymm_v5,2020.2.10,MacIntel,60,61025ae37ef11b136ea224fe,,,,,,,,,2445,25.62109375,51.9453125,1,0,0,response1disk,,7,-1.8046875,-10.84765625,1,0,0,rectangle,-1.8046875,-10.84765625,1,0,0,-1.8046875,-10.84765625,1,0,0,0,113,113,147,1,,,,,,,,
,,,,,,,,,,,,,FF,,,,,,,,0.7168,,,,,,,,,,,,,,,,,,,,,,610203b1bc07b831633fa676,61036d9b0bca9b6bb0ab1258,2021-07-29_23h11.27.953,Simcolourproject_2stim_asymm_v5,2020.2.10,MacIntel,60,61025ae37ef11b136ea224fe,,,,,,,,,1282,24.671875,48.01953125,1,0,0,response1disk,,7,21.86328125,8.7734375,1,0,0,rectangle,21.86328125,8.7734375,1,0,0,21.86328125,8.7734375,1,0,0,0,114,114,0,1,,,,,,,,
,,,,,,,,,,,,,FF,,,,,,,,0.9002,,,,,,,,,,,,,,,,,,,,,,610203b1bc07b831633fa676,61036d9b0bca9b6bb0ab1258,2021-07-29_23h11.27.953,Simcolourproject_2stim_asymm_v5,2020.2.10,MacIntel,60,61025ae37ef11b136ea224fe,,,,,,,,,3874,22.72265625,57.87109375,1,0,0,response1disk,,7,20.04296875,-2.38671875,1,0,0,rectangle,20.04296875,-2.38671875,1,0,0,20.04296875,-2.38671875,1,0,0,0,115,115,6,1,,,,,,,,
,,,,,,,,,,,,,FF,,,,,,,,1.749,,,,,,,,,,,,,,,,,,,,,,610203b1bc07b831633fa676,61036d9b0bca9b6bb0ab1258,2021-07-29_23h11.27.953,Simcolourproject_2stim_asymm_v5,2020.2.10,MacIntel,60,61025ae37ef11b136ea224fe,,,,,,,,,3969,-23.8515625,-85.328125,1,0,0,response5disk,,3,-2.828125,-11.375,1,0,0,rectangle,-2.828125,-11.375,1,0,0,-2.828125,-11.375,1,0,0,0,116,116,80,1,,,,,,,,
,,,,,,,,,,,,,FF,,,,,,,,1.2992,,,,,,,,,,,,,,,,,,,,,,610203b1bc07b831633fa676,61036d9b0bca9b6bb0ab1258,2021-07-29_23h11.27.953,Simcolourproject_2stim_asymm_v5,2020.2.10,MacIntel,60,61025ae37ef11b136ea224fe,,,,,,,,,531,-84.625,-41.53125,1,0,0,response5disk,,2,-28.96875,-10.66796875,1,0,0,rectangle,77.36328125,-44.45703125,1,0,0,11.91796875,-10.515625,1,0,0,0,117,117,23,1,,response3disk_3,TRUE,5,5,"[204,230,69,171,127,74,192,153,159,264,174,283,17,97,310,323,161,127,118,145]",2.1326,rectangle
,,,,,,,,,,,,,FF,,,,,,,,0.8335,,,,,,,,,,,,,,,,,,,,,,610203b1bc07b831633fa676,61036d9b0bca9b6bb0ab1258,2021-07-29_23h11.27.953,Simcolourproject_2stim_asymm_v5,2020.2.10,MacIntel,60,61025ae37ef11b136ea224fe,,,,,,,,,2560,19.83203125,31,1,0,0,response1disk,,7,14.015625,6.6875,1,0,0,rectangle,14.015625,6.6875,1,0,0,14.015625,6.6875,1,0,0,0,118,118,34,1,,,,,,,,
,,,,,,,,,,,,,FF,,,,,,,,1.2996,,,,,,,,,,,,,,,,,,,,,,610203b1bc07b831633fa676,61036d9b0bca9b6bb0ab1258,2021-07-29_23h11.27.953,Simcolourproject_2stim_asymm_v5,2020.2.10,MacIntel,60,61025ae37ef11b136ea224fe,,,,,,,,,2591,37.45703125,50.8359375,1,0,0,response1disk,,7,3.58984375,-11.0078125,1,0,0,rectangle,3.58984375,-11.0078125,1,0,0,3.58984375,-11.0078125,1,0,0,0,119,119,18,1,,,,,,,,
,,,,,,,,,,,,,FF,,,,,,,,1.2332,,,,,,,,,,,,,,,,,,,,,,610203b1bc07b831633fa676,61036d9b0bca9b6bb0ab1258,2021-07-29_23h11.27.953,Simcolourproject_2stim_asymm_v5,2020.2.10,MacIntel,60,61025ae37ef11b136ea224fe,,,,,,,,,3492,43.9453125,87.70703125,1,0,0,response1disk,,7,11.21875,3.52734375,1,0,0,rectangle,11.21875,3.52734375,1,0,0,11.21875,3.52734375,1,0,0,0,120,120,103,1,,,,,,,,
,,,,,,,,,,,,,FF,,,,,,,,1.5506,,,,,,,,,,,,,,,,,,,,,,610203b1bc07b831633fa676,61036d9b0bca9b6bb0ab1258,2021-07-29_23h11.27.953,Simcolourproject_2stim_asymm_v5,2020.2.10,MacIntel,60,61025ae37ef11b136ea224fe,,,,,,,,,2665,100.78125,-25.5859375,1,0,0,response3disk,,5,13.921875,-6.10546875,1,0,0,rectangle,13.921875,-6.10546875,1,0,0,13.921875,-6.10546875,1,0,0,0,121,121,55,1,,,,,,,,
,,,,,,,,,,,,,FF,,,,,,,,1.2329,,,,,,,,,,,,,,,,,,,,,,610203b1bc07b831633fa676,61036d9b0bca9b6bb0ab1258,2021-07-29_23h11.27.953,Simcolourproject_2stim_asymm_v5,2020.2.10,MacIntel,60,61025ae37ef11b136ea224fe,,,,,,,,,3017,38.80859375,83.984375,1,0,0,response1disk,,7,27.97265625,7.828125,1,0,0,rectangle,27.97265625,7.828125,1,0,0,27.97265625,7.828125,1,0,0,0,122,122,26,1,,,,,,,,
,,,,,,,,,,,,,FF,,,,,,,,0.767,,,,,,,,,,,,,,,,,,,,,,610203b1bc07b831633fa676,61036d9b0bca9b6bb0ab1258,2021-07-29_23h11.27.953,Simcolourproject_2stim_asymm_v5,2020.2.10,MacIntel,60,61025ae37ef11b136ea224fe,,,,,,,,,4112,24.7421875,73.41796875,1,0,0,response1disk,,7,10.046875,10.25,1,0,0,rectangle,10.046875,10.25,1,0,0,10.046875,10.25,1,0,0,0,123,123,100,1,,,,,,,,
,,,,,,,,,,,,,FF,,,,,,,,0.65,,,,,,,,,,,,,,,,,,,,,,610203b1bc07b831633fa676,61036d9b0bca9b6bb0ab1258,2021-07-29_23h11.27.953,Simcolourproject_2stim_asymm_v5,2020.2.10,MacIntel,60,61025ae37ef11b136ea224fe,,,,,,,,,2521,28.05859375,55.015625,1,0,0,response1disk,,7,20.1484375,1.62890625,1,0,0,rectangle,20.1484375,1.62890625,1,0,0,20.1484375,1.62890625,1,0,0,0,124,124,113,1,,,,,,,,
,,,,,,,,,,,,,FF,,,,,,,,0.7829,,,,,,,,,,,,,,,,,,,,,,610203b1bc07b831633fa676,61036d9b0bca9b6bb0ab1258,2021-07-29_23h11.27.953,Simcolourproject_2stim_asymm_v5,2020.2.10,MacIntel,60,61025ae37ef11b136ea224fe,,,,,,,,,2520,28.26171875,71.76953125,1,0,0,response1disk,,7,33.76953125,-3.984375,1,0,0,rectangle,33.76953125,-3.984375,1,0,0,33.76953125,-3.984375,1,0,0,0,125,125,57,1,,,,,,,,
,,,,,,,,,,,,,FF,,,,,,,,1.5,,,,,,,,,,,,,,,,,,,,,,610203b1bc07b831633fa676,61036d9b0bca9b6bb0ab1258,2021-07-29_23h11.27.953,Simcolourproject_2stim_asymm_v5,2020.2.10,MacIntel,60,61025ae37ef11b136ea224fe,,,,,,,,,3008,24.3984375,60.984375,1,0,0,response1disk,,7,21.02734375,4.83203125,1,0,0,rectangle,93.9140625,69.6171875,1,0,0,3.3515625,-7.20703125,1,0,0,0,126,126,101,1,,response1disk_3,TRUE,6,6,"[204,230,69,171,127,74,192,153,159,264,174,283,17,97,310,323,161,127,118,145]",1.7657,rectangle
,,,,,,,,,,,,,FF,,,,,,,,2.4837,,,,,,,,,,,,,,,,,,,,,,610203b1bc07b831633fa676,61036d9b0bca9b6bb0ab1258,2021-07-29_23h11.27.953,Simcolourproject_2stim_asymm_v5,2020.2.10,MacIntel,60,61025ae37ef11b136ea224fe,,,,,,,,,1798,34.703125,58.73828125,1,0,0,response1disk,,7,30.41796875,10.8203125,1,0,0,rectangle,30.41796875,10.8203125,1,0,0,30.41796875,10.8203125,1,0,0,0,127,127,90,1,,,,,,,,
,,,,,,,,,,,,,FF,,,,,,,,1.166,,,,,,,,,,,,,,,,,,,,,,610203b1bc07b831633fa676,61036d9b0bca9b6bb0ab1258,2021-07-29_23h11.27.953,Simcolourproject_2stim_asymm_v5,2020.2.10,MacIntel,60,61025ae37ef11b136ea224fe,,,,,,,,,954,91.390625,-44.65234375,1,0,0,response3disk,,5,1.9296875,-7.8203125,1,0,0,rectangle,1.9296875,-7.8203125,1,0,0,1.9296875,-7.8203125,1,0,0,0,128,128,56,1,,,,,,,,
,,,,,,,,,,,,,FF,,,,,,,,1.0667,,,,,,,,,,,,,,,,,,,,,,610203b1bc07b831633fa676,61036d9b0bca9b6bb0ab1258,2021-07-29_23h11.27.953,Simcolourproject_2stim_asymm_v5,2020.2.10,MacIntel,60,61025ae37ef11b136ea224fe,,,,,,,,,1222,68.14453125,-40.47265625,1,0,0,response3disk,,5,7.78125,-9.484375,1,0,0,rectangle,7.78125,-9.484375,1,0,0,7.78125,-9.484375,1,0,0,0,129,129,7,1,,,,,,,,
,,,,,,,,,,,,,FF,,,,,,,,1.3499,,,,,,,,,,,,,,,,,,,,,,610203b1bc07b831633fa676,61036d9b0bca9b6bb0ab1258,2021-07-29_23h11.27.953,Simcolourproject_2stim_asymm_v5,2020.2.10,MacIntel,60,61025ae37ef11b136ea224fe,,,,,,,,,474,36.8984375,41.4140625,1,0,0,response1disk,,7,18.79296875,-3.7421875,1,0,0,rectangle,18.79296875,-3.7421875,1,0,0,18.79296875,-3.7421875,1,0,0,0,130,130,62,1,,,,,,,,
,,,,,,,,,,,,,FF,,,,,,,,1.2326,,,,,,,,,,,,,,,,,,,,,,610203b1bc07b831633fa676,61036d9b0bca9b6bb0ab1258,2021-07-29_23h11.27.953,Simcolourproject_2stim_asymm_v5,2020.2.10,MacIntel,60,61025ae37ef11b136ea224fe,,,,,,,,,64,44.79296875,-34.5,1,0,0,response3disk,,5,-2.25,-10.1875,1,0,0,rectangle,-2.25,-10.1875,1,0,0,-2.25,-10.1875,1,0,0,0,131,131,152,1,,,,,,,,
,,,,,,,,,,,,,FF,,,,,,,,1.0656,,,,,,,,,,,,,,,,,,,,,,610203b1bc07b831633fa676,61036d9b0bca9b6bb0ab1258,2021-07-29_23h11.27.953,Simcolourproject_2stim_asymm_v5,2020.2.10,MacIntel,60,61025ae37ef11b136ea224fe,,,,,,,,,3727,16.48046875,58.13671875,1,0,0,response1disk,,7,14.4296875,-10.33203125,1,0,0,rectangle,14.4296875,-10.33203125,1,0,0,14.4296875,-10.33203125,1,0,0,0,132,132,96,1,,,,,,,,
,,,,,,,,,,,,,FF,,,,,,,,1.0656,,,,,,,,,,,,,,,,,,,,,,610203b1bc07b831633fa676,61036d9b0bca9b6bb0ab1258,2021-07-29_23h11.27.953,Simcolourproject_2stim_asymm_v5,2020.2.10,MacIntel,60,61025ae37ef11b136ea224fe,,,,,,,,,3811,-27.24609375,61.44921875,1,0,0,response7disk,,0,-21.8515625,7.5625,1,0,0,rectangle,-21.8515625,7.5625,1,0,0,-21.8515625,7.5625,1,0,0,0,133,133,73,1,,,,,,,,
,,,,,,,,,,,,,FF,,,,,,,,4.4667,,,,,,,,,,,,,,,,,,,,,,610203b1bc07b831633fa676,61036d9b0bca9b6bb0ab1258,2021-07-29_23h11.27.953,Simcolourproject_2stim_asymm_v5,2020.2.10,MacIntel,60,61025ae37ef11b136ea224fe,,,,,,,,,1058,-96.65234375,33.22265625,1,0,0,response7disk,,1,-17.39453125,-8.5703125,1,0,0,rectangle,-17.39453125,-8.5703125,1,0,0,-17.39453125,-8.5703125,1,0,0,0,134,134,49,1,,,,,,,,
,,,,,,,,,,,,,FF,,,,,,,,1.2317,,,,,,,,,,,,,,,,,,,,,,610203b1bc07b831633fa676,61036d9b0bca9b6bb0ab1258,2021-07-29_23h11.27.953,Simcolourproject_2stim_asymm_v5,2020.2.10,MacIntel,60,61025ae37ef11b136ea224fe,,,,,,,,,2757,43.9921875,63.4609375,1,0,0,response1disk,,7,-0.59375,-12.30078125,1,0,0,rectangle,-0.59375,-12.30078125,1,0,0,-0.59375,-12.30078125,1,0,0,0,135,135,129,1,,,,,,,,
,,,,,,,,,,,,,FF,,,,,,,,1.4658,,,,,,,,,,,,,,,,,,,,,,610203b1bc07b831633fa676,61036d9b0bca9b6bb0ab1258,2021-07-29_23h11.27.953,Simcolourproject_2stim_asymm_v5,2020.2.10,MacIntel,60,61025ae37ef11b136ea224fe,,,,,,,,,3866,18.6796875,36.85546875,1,0,0,response1disk,,7,-16.78125,-7.4375,1,0,0,rectangle,-16.78125,-7.4375,1,0,0,-16.78125,-7.4375,1,0,0,0,136,136,124,1,,,,,,,,
,,,,,,,,,,,,,FF,,,,,,,,1.267,,,,,,,,,,,,,,,,,,,,,,610203b1bc07b831633fa676,61036d9b0bca9b6bb0ab1258,2021-07-29_23h11.27.953,Simcolourproject_2stim_asymm_v5,2020.2.10,MacIntel,60,61025ae37ef11b136ea224fe,,,,,,,,,1344,49.19921875,80.32421875,1,0,0,response1disk,,7,16.60546875,4.9453125,1,0,0,rectangle,16.60546875,4.9453125,1,0,0,16.60546875,4.9453125,1,0,0,0,137,137,151,1,,,,,,,,
,,,,,,,,,,,,,FF,,,,,,,,0.634,,,,,,,,,,,,,,,,,,,,,,610203b1bc07b831633fa676,61036d9b0bca9b6bb0ab1258,2021-07-29_23h11.27.953,Simcolourproject_2stim_asymm_v5,2020.2.10,MacIntel,60,61025ae37ef11b136ea224fe,,,,,,,,,2569,27.64453125,74.91015625,1,0,0,response1disk,,7,5.3359375,7.41015625,1,0,0,rectangle,5.3359375,7.41015625,1,0,0,5.3359375,7.41015625,1,0,0,0,138,138,72,1,,,,,,,,
,,,,,,,,,,,,,FF,,,,,,,,1.4996,,,,,,,,,,,,,,,,,,,,,,610203b1bc07b831633fa676,61036d9b0bca9b6bb0ab1258,2021-07-29_23h11.27.953,Simcolourproject_2stim_asymm_v5,2020.2.10,MacIntel,60,61025ae37ef11b136ea224fe,,,,,,,,,1971,43.42578125,-87.640625,1,0,0,response3disk,,4,-5.0703125,-1.33984375,1,0,0,rectangle,-5.0703125,-1.33984375,1,0,0,-5.0703125,-1.33984375,1,0,0,0,139,139,63,1,,,,,,,,
,,,,,,,,,,,,,FF,,,,,,,,0.8173,,,,,,,,,,,,,,,,,,,,,,610203b1bc07b831633fa676,61036d9b0bca9b6bb0ab1258,2021-07-29_23h11.27.953,Simcolourproject_2stim_asymm_v5,2020.2.10,MacIntel,60,61025ae37ef11b136ea224fe,,,,,,,,,1634,34.03515625,58.78125,1,0,0,response1disk,,7,7.31640625,13.65625,1,0,0,rectangle,7.31640625,13.65625,1,0,0,7.31640625,13.65625,1,0,0,0,140,140,148,1,,,,,,,,
,,,,,,,,,,,,,FF,,,,,,,,1.9511,,,,,,,,,,,,,,,,,,,,,,610203b1bc07b831633fa676,61036d9b0bca9b6bb0ab1258,2021-07-29_23h11.27.953,Simcolourproject_2stim_asymm_v5,2020.2.10,MacIntel,60,61025ae37ef11b136ea224fe,,,,,,,,,3699,21.2890625,47.17578125,1,0,0,response1disk,,7,11.8203125,3.14453125,1,0,0,rectangle,11.8203125,3.14453125,1,0,0,11.8203125,3.14453125,1,0,0,0,141,141,68,1,,,,,,,,
,,,,,,,,,,,,,FF,,,,,,,,0.6991,,,,,,,,,,,,,,,,,,,,,,610203b1bc07b831633fa676,61036d9b0bca9b6bb0ab1258,2021-07-29_23h11.27.953,Simcolourproject_2stim_asymm_v5,2020.2.10,MacIntel,60,61025ae37ef11b136ea224fe,,,,,,,,,3380,21.74609375,44.26953125,1,0,0,response1disk,,7,9.85546875,6.1328125,1,0,0,rectangle,9.85546875,6.1328125,1,0,0,9.85546875,6.1328125,1,0,0,0,142,142,136,1,,,,,,,,
,,,,,,,,,,,,,FF,,,,,,,,1.4,,,,,,,,,,,,,,,,,,,,,,610203b1bc07b831633fa676,61036d9b0bca9b6bb0ab1258,2021-07-29_23h11.27.953,Simcolourproject_2stim_asymm_v5,2020.2.10,MacIntel,60,61025ae37ef11b136ea224fe,,,,,,,,,2079,35.6484375,51.73046875,1,0,0,response1disk,,7,22.6875,5.328125,1,0,0,rectangle,22.6875,5.328125,1,0,0,22.6875,5.328125,1,0,0,0,143,143,36,1,,,,,,,,
,,,,,,,,,,,,,FF,,,,,,,,1.9162,,,,,,,,,,,,,,,,,,,,,,610203b1bc07b831633fa676,61036d9b0bca9b6bb0ab1258,2021-07-29_23h11.27.953,Simcolourproject_2stim_asymm_v5,2020.2.10,MacIntel,60,61025ae37ef11b136ea224fe,,,,,,,,,3902,62.6640625,-43.8671875,1,0,0,response3disk,,5,-9.390625,15.49609375,1,0,0,rectangle,37.84765625,-102.4179688,1,0,0,7.3515625,-3.09375,1,0,0,0,144,144,102,1,,response3disk_3,TRUE,4,4,"[204,230,69,171,127,74,192,153,159,264,174,283,17,97,310,323,161,127,118,145]",2.0168,rectangle
,,,,,,,,,,,,,FF,,,,,,,,2.0002,,,,,,,,,,,,,,,,,,,,,,610203b1bc07b831633fa676,61036d9b0bca9b6bb0ab1258,2021-07-29_23h11.27.953,Simcolourproject_2stim_asymm_v5,2020.2.10,MacIntel,60,61025ae37ef11b136ea224fe,,,,,,,,,3264,30.609375,50.5703125,1,0,0,response1disk,,7,20.66015625,4.05078125,1,0,0,rectangle,20.66015625,4.05078125,1,0,0,20.66015625,4.05078125,1,0,0,0,145,145,21,1,,,,,,,,
,,,,,,,,,,,,,FF,,,,,,,,0.9331,,,,,,,,,,,,,,,,,,,,,,610203b1bc07b831633fa676,61036d9b0bca9b6bb0ab1258,2021-07-29_23h11.27.953,Simcolourproject_2stim_asymm_v5,2020.2.10,MacIntel,60,61025ae37ef11b136ea224fe,,,,,,,,,995,20.1015625,44.83984375,1,0,0,response1disk,,7,10.96875,8.5859375,1,0,0,rectangle,10.96875,8.5859375,1,0,0,10.96875,8.5859375,1,0,0,0,146,146,1,1,,,,,,,,
,,,,,,,,,,,,,FF,,,,,,,,0.7001,,,,,,,,,,,,,,,,,,,,,,610203b1bc07b831633fa676,61036d9b0bca9b6bb0ab1258,2021-07-29_23h11.27.953,Simcolourproject_2stim_asymm_v5,2020.2.10,MacIntel,60,61025ae37ef11b136ea224fe,,,,,,,,,2531,28.69921875,50.65234375,1,0,0,response1disk,,7,24.14453125,11.5546875,1,0,0,rectangle,24.14453125,11.5546875,1,0,0,24.14453125,11.5546875,1,0,0,0,147,147,146,1,,,,,,,,
,,,,,,,,,,,,,FF,,,,,,,,0.6334,,,,,,,,,,,,,,,,,,,,,,610203b1bc07b831633fa676,61036d9b0bca9b6bb0ab1258,2021-07-29_23h11.27.953,Simcolourproject_2stim_asymm_v5,2020.2.10,MacIntel,60,61025ae37ef11b136ea224fe,,,,,,,,,2853,27.1328125,57.41015625,1,0,0,response1disk,,7,11.921875,0.8046875,1,0,0,rectangle,11.921875,0.8046875,1,0,0,11.921875,0.8046875,1,0,0,0,148,148,115,1,,,,,,,,
,,,,,,,,,,,,,FF,,,,,,,,1.1839,,,,,,,,,,,,,,,,,,,,,,610203b1bc07b831633fa676,61036d9b0bca9b6bb0ab1258,2021-07-29_23h11.27.953,Simcolourproject_2stim_asymm_v5,2020.2.10,MacIntel,60,61025ae37ef11b136ea224fe,,,,,,,,,1756,67.421875,-42.88671875,1,0,0,response3disk,,5,-6.55859375,-3.9765625,1,0,0,rectangle,-6.55859375,-3.9765625,1,0,0,-6.55859375,-3.9765625,1,0,0,0,149,149,127,1,,,,,,,,
,,,,,,,,,,,,,FF,,,,,,,,0.7666,,,,,,,,,,,,,,,,,,,,,,610203b1bc07b831633fa676,61036d9b0bca9b6bb0ab1258,2021-07-29_23h11.27.953,Simcolourproject_2stim_asymm_v5,2020.2.10,MacIntel,60,61025ae37ef11b136ea224fe,,,,,,,,,2006,19.7265625,70.25,1,0,0,response1disk,,7,-0.109375,13.8515625,1,0,0,rectangle,-0.109375,13.8515625,1,0,0,-0.109375,13.8515625,1,0,0,0,150,150,77,1,,,,,,,,
,,,,,,,,,,,,,FF,,,,,,,,1.5821,,,,,,,,,,,,,,,,,,,,,,610203b1bc07b831633fa676,61036d9b0bca9b6bb0ab1258,2021-07-29_23h11.27.953,Simcolourproject_2stim_asymm_v5,2020.2.10,MacIntel,60,61025ae37ef11b136ea224fe,,,,,,,,,2724,-22.44140625,-95.015625,1,0,0,response5disk,,3,-10.78125,-0.9921875,1,0,0,rectangle,-10.78125,-0.9921875,1,0,0,-10.78125,-0.9921875,1,0,0,0,151,151,110,1,,,,,,,,
,,,,,,,,,,,,,FF,,,,,,,,1.1671,,,,,,,,,,,,,,,,,,,,,,610203b1bc07b831633fa676,61036d9b0bca9b6bb0ab1258,2021-07-29_23h11.27.953,Simcolourproject_2stim_asymm_v5,2020.2.10,MacIntel,60,61025ae37ef11b136ea224fe,,,,,,,,,2297,-26.48046875,-68.75,1,0,0,response5disk,,3,6.19921875,-10.52734375,1,0,0,rectangle,-84.63671875,-65.7421875,1,0,0,13.20703125,3.68359375,1,0,0,0,152,152,75,1,,response5disk_3,TRUE,2,2,"[204,230,69,171,127,74,192,153,159,264,174,283,17,97,310,323,161,127,118,145]",2.1327,rectangle
,,,,,,,,,,,,,FF,,,,,,,,0.8661,,,,,,,,,,,,,,,,,,,,,,610203b1bc07b831633fa676,61036d9b0bca9b6bb0ab1258,2021-07-29_23h11.27.953,Simcolourproject_2stim_asymm_v5,2020.2.10,MacIntel,60,61025ae37ef11b136ea224fe,,,,,,,,,4361,-32.17578125,58.7890625,1,0,0,response7disk,,0,-8.55078125,-0.26171875,1,0,0,rectangle,-8.55078125,-0.26171875,1,0,0,-8.55078125,-0.26171875,1,0,0,0,153,153,81,1,,,,,,,,
,,,,,,,,,,,,,FF,,,,,,,,1.8172,,,,,,,,,,,,,,,,,,,,,,610203b1bc07b831633fa676,61036d9b0bca9b6bb0ab1258,2021-07-29_23h11.27.953,Simcolourproject_2stim_asymm_v5,2020.2.10,MacIntel,60,61025ae37ef11b136ea224fe,,,,,,,,,463,-27.52734375,-84.20703125,1,0,0,response5disk,,3,15.65234375,-3.578125,1,0,0,rectangle,15.65234375,-3.578125,1,0,0,15.65234375,-3.578125,1,0,0,0,154,154,92,1,,,,,,,,
,,,,,,,,,,,,,FF,,,,,,,,0.7335,,,,,,,,,,,,,,,,,,,,,,610203b1bc07b831633fa676,61036d9b0bca9b6bb0ab1258,2021-07-29_23h11.27.953,Simcolourproject_2stim_asymm_v5,2020.2.10,MacIntel,60,61025ae37ef11b136ea224fe,,,,,,,,,4020,-26.8828125,55.35546875,1,0,0,response7disk,,0,-9.32421875,7.6171875,1,0,0,rectangle,-9.32421875,7.6171875,1,0,0,-9.32421875,7.6171875,1,0,0,0,155,155,104,1,,,,,,,,
,,,,,,,,,,,,,FF,,,,,,,,1.2824,,,,,,,,,,,,,,,,,,,,,,610203b1bc07b831633fa676,61036d9b0bca9b6bb0ab1258,2021-07-29_23h11.27.953,Simcolourproject_2stim_asymm_v5,2020.2.10,MacIntel,60,61025ae37ef11b136ea224fe,,,,,,,,,3250,-35.75390625,-66.19140625,1,0,0,response5disk,,3,-10.83984375,-11.66796875,1,0,0,rectangle,-10.83984375,-11.66796875,1,0,0,-10.83984375,-11.66796875,1,0,0,0,156,156,117,1,,,,,,,,
,,,,,,,,,,,,,FF,,,,,,,,1.0667,,,,,,,,,,,,,,,,,,,,,,610203b1bc07b831633fa676,61036d9b0bca9b6bb0ab1258,2021-07-29_23h11.27.953,Simcolourproject_2stim_asymm_v5,2020.2.10,MacIntel,60,61025ae37ef11b136ea224fe,,,,,,,,,1572,28.38671875,52.39453125,1,0,0,response1disk,,7,20.015625,10.90234375,1,0,0,rectangle,20.015625,10.90234375,1,0,0,20.015625,10.90234375,1,0,0,0,157,157,33,1,,,,,,,,
,,,,,,,,,,,,,FF,,,,,,,,2.1006,,,,,,,,,,,,,,,,,,,,,,610203b1bc07b831633fa676,61036d9b0bca9b6bb0ab1258,2021-07-29_23h11.27.953,Simcolourproject_2stim_asymm_v5,2020.2.10,MacIntel,60,61025ae37ef11b136ea224fe,,,,,,,,,3001,16.02734375,60.41015625,1,0,0,response1disk,,7,13.19140625,10.23828125,1,0,0,rectangle,-33.36328125,68.03515625,1,0,0,8.41796875,2.19140625,1,0,0,0,158,158,54,1,,response7disk_3,TRUE,0,0,"[204,230,69,171,127,74,192,153,159,264,174,283,17,97,310,323,161,127,118,145]",1.6342,rectangle
,,,,,,,,,,,,,FF,,,,,,,,1.0004,,,,,,,,,,,,,,,,,,,,,,610203b1bc07b831633fa676,61036d9b0bca9b6bb0ab1258,2021-07-29_23h11.27.953,Simcolourproject_2stim_asymm_v5,2020.2.10,MacIntel,60,61025ae37ef11b136ea224fe,,,,,,,,,964,37.98046875,64.25390625,1,0,0,response1disk,,7,20.92578125,-2.01171875,1,0,0,rectangle,20.92578125,-2.01171875,1,0,0,20.92578125,-2.01171875,1,0,0,0,159,159,13,1,,,,,,,,
,,,,,,,,,,,,,FF,,,,,,,,1.1831,,,,,,,,,,,,,,,,,,,,,,610203b1bc07b831633fa676,61036d9b0bca9b6bb0ab1258,2021-07-29_23h11.27.953,Simcolourproject_2stim_asymm_v5,2020.2.10,MacIntel,60,61025ae37ef11b136ea224fe,,,,,,,,,963,21.65625,47.484375,1,0,0,response1disk,,7,7.9140625,0.5703125,1,0,0,rectangle,-79.98828125,38.9296875,1,0,0,-10.8515625,-3.3359375,1,0,0,1,0,160,131,1,,response7disk_3,TRUE,1,1,"[204,230,69,171,127,74,192,153,159,264,174,283,17,97,310,323,161,127,118,145]",1.85,rectangle
,,,,,,,,,,,,,FF,,,,,,,,1.6826,,,,,,,,,,,,,,,,,,,,,,610203b1bc07b831633fa676,61036d9b0bca9b6bb0ab1258,2021-07-29_23h11.27.953,Simcolourproject_2stim_asymm_v5,2020.2.10,MacIntel,60,61025ae37ef11b136ea224fe,,,,,,,,,2832,-85.1640625,27.7421875,1,0,0,response7disk,,1,-5.92578125,-1.48828125,1,0,0,rectangle,-5.92578125,-1.48828125,1,0,0,-5.92578125,-1.48828125,1,0,0,1,1,161,138,1,,,,,,,,
,,,,,,,,,,,,,FF,,,,,,,,1.0509,,,,,,,,,,,,,,,,,,,,,,610203b1bc07b831633fa676,61036d9b0bca9b6bb0ab1258,2021-07-29_23h11.27.953,Simcolourproject_2stim_asymm_v5,2020.2.10,MacIntel,60,61025ae37ef11b136ea224fe,,,,,,,,,1544,20.56640625,46.328125,1,0,0,response1disk,,7,1.7109375,-4.37890625,1,0,0,rectangle,1.7109375,-4.37890625,1,0,0,1.7109375,-4.37890625,1,0,0,1,2,162,55,1,,,,,,,,
,,,,,,,,,,,,,FF,,,,,,,,0.7659,,,,,,,,,,,,,,,,,,,,,,610203b1bc07b831633fa676,61036d9b0bca9b6bb0ab1258,2021-07-29_23h11.27.953,Simcolourproject_2stim_asymm_v5,2020.2.10,MacIntel,60,61025ae37ef11b136ea224fe,,,,,,,,,2021,23.671875,46.30078125,1,0,0,response1disk,,7,12.39453125,-3.33203125,1,0,0,rectangle,12.39453125,-3.33203125,1,0,0,12.39453125,-3.33203125,1,0,0,1,3,163,29,1,,,,,,,,
,,,,,,,,,,,,,FF,,,,,,,,1.2658,,,,,,,,,,,,,,,,,,,,,,610203b1bc07b831633fa676,61036d9b0bca9b6bb0ab1258,2021-07-29_23h11.27.953,Simcolourproject_2stim_asymm_v5,2020.2.10,MacIntel,60,61025ae37ef11b136ea224fe,,,,,,,,,1748,-49.58203125,-98.62109375,1,0,0,response5disk,,3,-23.30078125,-5.40234375,1,0,0,rectangle,-23.30078125,-5.40234375,1,0,0,-23.30078125,-5.40234375,1,0,0,1,4,164,67,1,,,,,,,,
,,,,,,,,,,,,,FF,,,,,,,,0.8005,,,,,,,,,,,,,,,,,,,,,,610203b1bc07b831633fa676,61036d9b0bca9b6bb0ab1258,2021-07-29_23h11.27.953,Simcolourproject_2stim_asymm_v5,2020.2.10,MacIntel,60,61025ae37ef11b136ea224fe,,,,,,,,,1549,24.51953125,69.484375,1,0,0,response1disk,,7,12.76953125,14.53515625,1,0,0,rectangle,12.76953125,14.53515625,1,0,0,12.76953125,14.53515625,1,0,0,1,5,165,75,1,,,,,,,,
,,,,,,,,,,,,,FF,,,,,,,,0.5996,,,,,,,,,,,,,,,,,,,,,,610203b1bc07b831633fa676,61036d9b0bca9b6bb0ab1258,2021-07-29_23h11.27.953,Simcolourproject_2stim_asymm_v5,2020.2.10,MacIntel,60,61025ae37ef11b136ea224fe,,,,,,,,,3412,36.765625,46.1328125,1,0,0,response1disk,,7,20.36328125,5.15234375,1,0,0,rectangle,20.36328125,5.15234375,1,0,0,20.36328125,5.15234375,1,0,0,1,6,166,30,1,,,,,,,,
,,,,,,,,,,,,,FF,,,,,,,,0.6831,,,,,,,,,,,,,,,,,,,,,,610203b1bc07b831633fa676,61036d9b0bca9b6bb0ab1258,2021-07-29_23h11.27.953,Simcolourproject_2stim_asymm_v5,2020.2.10,MacIntel,60,61025ae37ef11b136ea224fe,,,,,,,,,1904,26.47265625,54.34765625,1,0,0,response1disk,,7,13.953125,0.23828125,1,0,0,rectangle,13.953125,0.23828125,1,0,0,13.953125,0.23828125,1,0,0,1,7,167,90,1,,,,,,,,
,,,,,,,,,,,,,FF,,,,,,,,0.6172,,,,,,,,,,,,,,,,,,,,,,610203b1bc07b831633fa676,61036d9b0bca9b6bb0ab1258,2021-07-29_23h11.27.953,Simcolourproject_2stim_asymm_v5,2020.2.10,MacIntel,60,61025ae37ef11b136ea224fe,,,,,,,,,3992,22.0546875,53.25,1,0,0,response1disk,,7,14.234375,1.08203125,1,0,0,rectangle,14.234375,1.08203125,1,0,0,14.234375,1.08203125,1,0,0,1,8,168,16,1,,,,,,,,
,,,,,,,,,,,,,FF,,,,,,,,0.5661,,,,,,,,,,,,,,,,,,,,,,610203b1bc07b831633fa676,61036d9b0bca9b6bb0ab1258,2021-07-29_23h11.27.953,Simcolourproject_2stim_asymm_v5,2020.2.10,MacIntel,60,61025ae37ef11b136ea224fe,,,,,,,,,308,23.37890625,41.87890625,1,0,0,response1disk,,7,14.8359375,0.71484375,1,0,0,rectangle,14.8359375,0.71484375,1,0,0,14.8359375,0.71484375,1,0,0,1,9,169,155,1,,,,,,,,
,,,,,,,,,,,,,FF,,,,,,,,0.4663,,,,,,,,,,,,,,,,,,,,,,610203b1bc07b831633fa676,61036d9b0bca9b6bb0ab1258,2021-07-29_23h11.27.953,Simcolourproject_2stim_asymm_v5,2020.2.10,MacIntel,60,61025ae37ef11b136ea224fe,,,,,,,,,867,36.08984375,52.078125,1,0,0,response1disk,,7,23.1953125,-2.359375,1,0,0,rectangle,-25.390625,63.21484375,1,0,0,8.97265625,0.3359375,1,0,0,1,10,170,109,1,,response7disk_3,TRUE,0,0,"[204,230,69,171,127,74,192,153,159,264,174,283,17,97,310,323,161,127,118,145]",1.6817,rectangle
,,,,,,,,,,,,,FF,,,,,,,,0.7831,,,,,,,,,,,,,,,,,,,,,,610203b1bc07b831633fa676,61036d9b0bca9b6bb0ab1258,2021-07-29_23h11.27.953,Simcolourproject_2stim_asymm_v5,2020.2.10,MacIntel,60,61025ae37ef11b136ea224fe,,,,,,,,,1430,21.2578125,45.19140625,1,0,0,response1disk,,7,12.2109375,9.03125,1,0,0,rectangle,12.2109375,9.03125,1,0,0,12.2109375,9.03125,1,0,0,1,11,171,122,1,,,,,,,,
,,,,,,,,,,,,,FF,,,,,,,,1.6664,,,,,,,,,,,,,,,,,,,,,,610203b1bc07b831633fa676,61036d9b0bca9b6bb0ab1258,2021-07-29_23h11.27.953,Simcolourproject_2stim_asymm_v5,2020.2.10,MacIntel,60,61025ae37ef11b136ea224fe,,,,,,,,,680,70.4609375,73.53125,1,0,0,response1disk,,7,21.2421875,4.1171875,1,0,0,rectangle,21.2421875,4.1171875,1,0,0,21.2421875,4.1171875,1,0,0,1,12,172,26,1,,,,,,,,
,,,,,,,,,,,,,FF,,,,,,,,0.5334,,,,,,,,,,,,,,,,,,,,,,610203b1bc07b831633fa676,61036d9b0bca9b6bb0ab1258,2021-07-29_23h11.27.953,Simcolourproject_2stim_asymm_v5,2020.2.10,MacIntel,60,61025ae37ef11b136ea224fe,,,,,,,,,464,23.2421875,65.64453125,1,0,0,response1disk,,7,5.2734375,-7.51171875,1,0,0,rectangle,-32.5078125,73.9609375,1,0,0,-4.3046875,-13.90625,1,0,0,1,13,173,77,1,,response7disk_3,TRUE,0,0,"[204,230,69,171,127,74,192,153,159,264,174,283,17,97,310,323,161,127,118,145]",1.7168,rectangle
,,,,,,,,,,,,,FF,,,,,,,,1.9661,,,,,,,,,,,,,,,,,,,,,,610203b1bc07b831633fa676,61036d9b0bca9b6bb0ab1258,2021-07-29_23h11.27.953,Simcolourproject_2stim_asymm_v5,2020.2.10,MacIntel,60,61025ae37ef11b136ea224fe,,,,,,,,,958,29.5234375,-96.34765625,1,0,0,response3disk,,4,-7.20703125,-16.53125,1,0,0,rectangle,-7.20703125,-16.53125,1,0,0,-7.20703125,-16.53125,1,0,0,1,14,174,49,1,,,,,,,,
,,,,,,,,,,,,,FF,,,,,,,,0.7662,,,,,,,,,,,,,,,,,,,,,,610203b1bc07b831633fa676,61036d9b0bca9b6bb0ab1258,2021-07-29_23h11.27.953,Simcolourproject_2stim_asymm_v5,2020.2.10,MacIntel,60,61025ae37ef11b136ea224fe,,,,,,,,,1629,37.95703125,82.578125,1,0,0,response1disk,,7,6.76171875,-5.81640625,1,0,0,rectangle,6.76171875,-5.81640625,1,0,0,6.76171875,-5.81640625,1,0,0,1,15,175,38,1,,,,,,,,
,,,,,,,,,,,,,FF,,,,,,,,0.6666,,,,,,,,,,,,,,,,,,,,,,610203b1bc07b831633fa676,61036d9b0bca9b6bb0ab1258,2021-07-29_23h11.27.953,Simcolourproject_2stim_asymm_v5,2020.2.10,MacIntel,60,61025ae37ef11b136ea224fe,,,,,,,,,113,36.12890625,71.6640625,1,0,0,response1disk,,7,14.87890625,16.0390625,1,0,0,rectangle,14.87890625,16.0390625,1,0,0,14.87890625,16.0390625,1,0,0,1,16,176,17,1,,,,,,,,
,,,,,,,,,,,,,FF,,,,,,,,0.5321,,,,,,,,,,,,,,,,,,,,,,610203b1bc07b831633fa676,61036d9b0bca9b6bb0ab1258,2021-07-29_23h11.27.953,Simcolourproject_2stim_asymm_v5,2020.2.10,MacIntel,60,61025ae37ef11b136ea224fe,,,,,,,,,1154,32.1171875,58.02734375,1,0,0,response1disk,,7,4.50390625,6.9375,1,0,0,rectangle,4.50390625,6.9375,1,0,0,4.50390625,6.9375,1,0,0,1,17,177,105,1,,,,,,,,
,,,,,,,,,,,,,FF,,,,,,,,0.7155,,,,,,,,,,,,,,,,,,,,,,610203b1bc07b831633fa676,61036d9b0bca9b6bb0ab1258,2021-07-29_23h11.27.953,Simcolourproject_2stim_asymm_v5,2020.2.10,MacIntel,60,61025ae37ef11b136ea224fe,,,,,,,,,2480,-34.0703125,61.0546875,1,0,0,response7disk,,0,-8.98828125,-0.21875,1,0,0,rectangle,-8.98828125,-0.21875,1,0,0,-8.98828125,-0.21875,1,0,0,1,18,178,37,1,,,,,,,,
,,,,,,,,,,,,,FF,,,,,,,,0.6497,,,,,,,,,,,,,,,,,,,,,,610203b1bc07b831633fa676,61036d9b0bca9b6bb0ab1258,2021-07-29_23h11.27.953,Simcolourproject_2stim_asymm_v5,2020.2.10,MacIntel,60,61025ae37ef11b136ea224fe,,,,,,,,,3186,46.828125,82.68359375,1,0,0,response1disk,,7,2.8984375,5.203125,1,0,0,rectangle,2.8984375,5.203125,1,0,0,2.8984375,5.203125,1,0,0,1,19,179,22,1,,,,,,,,
,,,,,,,,,,,,,FF,,,,,,,,0.5333,,,,,,,,,,,,,,,,,,,,,,610203b1bc07b831633fa676,61036d9b0bca9b6bb0ab1258,2021-07-29_23h11.27.953,Simcolourproject_2stim_asymm_v5,2020.2.10,MacIntel,60,61025ae37ef11b136ea224fe,,,,,,,,,3029,25.796875,53.85546875,1,0,0,response1disk,,7,9.8828125,1.625,1,0,0,rectangle,9.8828125,1.625,1,0,0,9.8828125,1.625,1,0,0,1,20,180,157,1,,,,,,,,
,,,,,,,,,,,,,FF,,,,,,,,0.833,,,,,,,,,,,,,,,,,,,,,,610203b1bc07b831633fa676,61036d9b0bca9b6bb0ab1258,2021-07-29_23h11.27.953,Simcolourproject_2stim_asymm_v5,2020.2.10,MacIntel,60,61025ae37ef11b136ea224fe,,,,,,,,,4088,38.16015625,65.82421875,1,0,0,response1disk,,7,21.25,-2.40234375,1,0,0,rectangle,21.25,-2.40234375,1,0,0,21.25,-2.40234375,1,0,0,1,21,181,53,1,,,,,,,,
,,,,,,,,,,,,,FF,,,,,,,,0.5833,,,,,,,,,,,,,,,,,,,,,,610203b1bc07b831633fa676,61036d9b0bca9b6bb0ab1258,2021-07-29_23h11.27.953,Simcolourproject_2stim_asymm_v5,2020.2.10,MacIntel,60,61025ae37ef11b136ea224fe,,,,,,,,,3800,19.33984375,42.04296875,1,0,0,response1disk,,7,13.25,-0.63671875,1,0,0,rectangle,13.25,-0.63671875,1,0,0,13.25,-0.63671875,1,0,0,1,22,182,118,1,,,,,,,,
,,,,,,,,,,,,,FF,,,,,,,,0.5825,,,,,,,,,,,,,,,,,,,,,,610203b1bc07b831633fa676,61036d9b0bca9b6bb0ab1258,2021-07-29_23h11.27.953,Simcolourproject_2stim_asymm_v5,2020.2.10,MacIntel,60,61025ae37ef11b136ea224fe,,,,,,,,,1001,20.32421875,38.1953125,1,0,0,response1disk,,7,14.29296875,-9.06640625,1,0,0,rectangle,14.29296875,-9.06640625,1,0,0,14.29296875,-9.06640625,1,0,0,1,23,183,86,1,,,,,,,,
,,,,,,,,,,,,,FF,,,,,,,,0.5488,,,,,,,,,,,,,,,,,,,,,,610203b1bc07b831633fa676,61036d9b0bca9b6bb0ab1258,2021-07-29_23h11.27.953,Simcolourproject_2stim_asymm_v5,2020.2.10,MacIntel,60,61025ae37ef11b136ea224fe,,,,,,,,,2873,35.546875,59.890625,1,0,0,response1disk,,7,12.2421875,10.4140625,1,0,0,rectangle,12.2421875,10.4140625,1,0,0,12.2421875,10.4140625,1,0,0,1,24,184,56,1,,,,,,,,
,,,,,,,,,,,,,FF,,,,,,,,0.4667,,,,,,,,,,,,,,,,,,,,,,610203b1bc07b831633fa676,61036d9b0bca9b6bb0ab1258,2021-07-29_23h11.27.953,Simcolourproject_2stim_asymm_v5,2020.2.10,MacIntel,60,61025ae37ef11b136ea224fe,,,,,,,,,3066,33.16796875,55.45703125,1,0,0,response1disk,,7,14.3125,-5.9921875,1,0,0,rectangle,14.3125,-5.9921875,1,0,0,14.3125,-5.9921875,1,0,0,1,25,185,126,1,,,,,,,,
,,,,,,,,,,,,,FF,,,,,,,,0.3829,,,,,,,,,,,,,,,,,,,,,,610203b1bc07b831633fa676,61036d9b0bca9b6bb0ab1258,2021-07-29_23h11.27.953,Simcolourproject_2stim_asymm_v5,2020.2.10,MacIntel,60,61025ae37ef11b136ea224fe,,,,,,,,,758,51.62109375,62.59765625,1,0,0,response1disk,,7,25.37890625,-0.93359375,1,0,0,rectangle,25.37890625,-0.93359375,1,0,0,25.37890625,-0.93359375,1,0,0,1,26,186,149,1,,,,,,,,
,,,,,,,,,,,,,FF,,,,,,,,0.4008,,,,,,,,,,,,,,,,,,,,,,610203b1bc07b831633fa676,61036d9b0bca9b6bb0ab1258,2021-07-29_23h11.27.953,Simcolourproject_2stim_asymm_v5,2020.2.10,MacIntel,60,61025ae37ef11b136ea224fe,,,,,,,,,518,37.64453125,51.64453125,1,0,0,response1disk,,7,5.6875,-16.5234375,1,0,0,rectangle,5.6875,-16.5234375,1,0,0,5.6875,-16.5234375,1,0,0,1,27,187,101,1,,,,,,,,
,,,,,,,,,,,,,FF,,,,,,,,1.9335,,,,,,,,,,,,,,,,,,,,,,610203b1bc07b831633fa676,61036d9b0bca9b6bb0ab1258,2021-07-29_23h11.27.953,Simcolourproject_2stim_asymm_v5,2020.2.10,MacIntel,60,61025ae37ef11b136ea224fe,,,,,,,,,282,83.1484375,-39.37109375,1,0,0,response3disk,,5,22.9296875,-11.03125,1,0,0,rectangle,22.9296875,-11.03125,1,0,0,22.9296875,-11.03125,1,0,0,1,28,188,133,1,,,,,,,,
,,,,,,,,,,,,,FF,,,,,,,,0.8829,,,,,,,,,,,,,,,,,,,,,,610203b1bc07b831633fa676,61036d9b0bca9b6bb0ab1258,2021-07-29_23h11.27.953,Simcolourproject_2stim_asymm_v5,2020.2.10,MacIntel,60,61025ae37ef11b136ea224fe,,,,,,,,,286,66.56640625,-57.4765625,1,0,0,response3disk,,5,12.05078125,-16.83203125,1,0,0,rectangle,12.05078125,-16.83203125,1,0,0,12.05078125,-16.83203125,1,0,0,1,29,189,121,1,,,,,,,,
,,,,,,,,,,,,,FF,,,,,,,,2.3006,,,,,,,,,,,,,,,,,,,,,,610203b1bc07b831633fa676,61036d9b0bca9b6bb0ab1258,2021-07-29_23h11.27.953,Simcolourproject_2stim_asymm_v5,2020.2.10,MacIntel,60,61025ae37ef11b136ea224fe,,,,,,,,,3375,-46.81640625,-90.55859375,1,0,0,response5disk,,3,-15.48828125,-14.76171875,1,0,0,rectangle,-15.48828125,-14.76171875,1,0,0,-15.48828125,-14.76171875,1,0,0,1,30,190,54,1,,,,,,,,
,,,,,,,,,,,,,FF,,,,,,,,0.7831,,,,,,,,,,,,,,,,,,,,,,610203b1bc07b831633fa676,61036d9b0bca9b6bb0ab1258,2021-07-29_23h11.27.953,Simcolourproject_2stim_asymm_v5,2020.2.10,MacIntel,60,61025ae37ef11b136ea224fe,,,,,,,,,1399,36.78125,64.39453125,1,0,0,response1disk,,7,2.2109375,0.578125,1,0,0,rectangle,-79.75390625,54.7109375,1,0,0,-22.11328125,-5.28125,1,0,0,1,31,191,32,1,,response7disk_3,TRUE,1,1,"[204,230,69,171,127,74,192,153,159,264,174,283,17,97,310,323,161,127,118,145]",1.2985,rectangle
,,,,,,,,,,,,,FF,,,,,,,,0.6169,,,,,,,,,,,,,,,,,,,,,,610203b1bc07b831633fa676,61036d9b0bca9b6bb0ab1258,2021-07-29_23h11.27.953,Simcolourproject_2stim_asymm_v5,2020.2.10,MacIntel,60,61025ae37ef11b136ea224fe,,,,,,,,,926,41.59765625,60.43359375,1,0,0,response1disk,,7,5.48046875,3.9140625,1,0,0,rectangle,5.48046875,3.9140625,1,0,0,5.48046875,3.9140625,1,0,0,1,32,192,137,1,,,,,,,,
,,,,,,,,,,,,,FF,,,,,,,,1.25,,,,,,,,,,,,,,,,,,,,,,610203b1bc07b831633fa676,61036d9b0bca9b6bb0ab1258,2021-07-29_23h11.27.953,Simcolourproject_2stim_asymm_v5,2020.2.10,MacIntel,60,61025ae37ef11b136ea224fe,,,,,,,,,1983,33.16796875,54.19921875,1,0,0,response1disk,,7,13.765625,8.04296875,1,0,0,rectangle,13.765625,8.04296875,1,0,0,13.765625,8.04296875,1,0,0,1,33,193,25,1,,,,,,,,
,,,,,,,,,,,,,FF,,,,,,,,0.6991,,,,,,,,,,,,,,,,,,,,,,610203b1bc07b831633fa676,61036d9b0bca9b6bb0ab1258,2021-07-29_23h11.27.953,Simcolourproject_2stim_asymm_v5,2020.2.10,MacIntel,60,61025ae37ef11b136ea224fe,,,,,,,,,4235,-48.00390625,69.59375,1,0,0,response7disk,,0,-13.40234375,-6.9453125,1,0,0,rectangle,-13.40234375,-6.9453125,1,0,0,-13.40234375,-6.9453125,1,0,0,1,34,194,117,1,,,,,,,,
,,,,,,,,,,,,,FF,,,,,,,,0.7995,,,,,,,,,,,,,,,,,,,,,,610203b1bc07b831633fa676,61036d9b0bca9b6bb0ab1258,2021-07-29_23h11.27.953,Simcolourproject_2stim_asymm_v5,2020.2.10,MacIntel,60,61025ae37ef11b136ea224fe,,,,,,,,,796,21.94140625,40.0546875,1,0,0,response1disk,,7,5.94921875,-9.09375,1,0,0,rectangle,5.94921875,-9.09375,1,0,0,5.94921875,-9.09375,1,0,0,1,35,195,44,1,,,,,,,,
,,,,,,,,,,,,,FF,,,,,,,,0.5332,,,,,,,,,,,,,,,,,,,,,,610203b1bc07b831633fa676,61036d9b0bca9b6bb0ab1258,2021-07-29_23h11.27.953,Simcolourproject_2stim_asymm_v5,2020.2.10,MacIntel,60,61025ae37ef11b136ea224fe,,,,,,,,,2462,33.81640625,56.58203125,1,0,0,response1disk,,7,16.16015625,1.25,1,0,0,rectangle,16.16015625,1.25,1,0,0,16.16015625,1.25,1,0,0,1,36,196,95,1,,,,,,,,
,,,,,,,,,,,,,FF,,,,,,,,1.9335,,,,,,,,,,,,,,,,,,,,,,610203b1bc07b831633fa676,61036d9b0bca9b6bb0ab1258,2021-07-29_23h11.27.953,Simcolourproject_2stim_asymm_v5,2020.2.10,MacIntel,60,61025ae37ef11b136ea224fe,,,,,,,,,975,-70.1953125,34.3359375,1,0,0,response7disk,,1,-17.4140625,4.453125,1,0,0,rectangle,-17.4140625,4.453125,1,0,0,-17.4140625,4.453125,1,0,0,1,37,197,80,1,,,,,,,,
,,,,,,,,,,,,,FF,,,,,,,,0.5346,,,,,,,,,,,,,,,,,,,,,,610203b1bc07b831633fa676,61036d9b0bca9b6bb0ab1258,2021-07-29_23h11.27.953,Simcolourproject_2stim_asymm_v5,2020.2.10,MacIntel,60,61025ae37ef11b136ea224fe,,,,,,,,,567,30.9765625,59.3515625,1,0,0,response1disk,,7,9.2265625,-0.74609375,1,0,0,rectangle,9.2265625,-0.74609375,1,0,0,9.2265625,-0.74609375,1,0,0,1,38,198,50,1,,,,,,,,
,,,,,,,,,,,,,FF,,,,,,,,1.0664,,,,,,,,,,,,,,,,,,,,,,610203b1bc07b831633fa676,61036d9b0bca9b6bb0ab1258,2021-07-29_23h11.27.953,Simcolourproject_2stim_asymm_v5,2020.2.10,MacIntel,60,61025ae37ef11b136ea224fe,,,,,,,,,3903,46.109375,63.26953125,1,0,0,response1disk,,7,26.94921875,-1.078125,1,0,0,rectangle,26.94921875,-1.078125,1,0,0,26.94921875,-1.078125,1,0,0,1,39,199,103,1,,,,,,,,
,,,,,,,,,,,,,FF,,,,,,,,0.4661,,,,,,,,,,,,,,,,,,,,,,610203b1bc07b831633fa676,61036d9b0bca9b6bb0ab1258,2021-07-29_23h11.27.953,Simcolourproject_2stim_asymm_v5,2020.2.10,MacIntel,60,61025ae37ef11b136ea224fe,,,,,,,,,2322,30.078125,51.83203125,1,0,0,response1disk,,7,12.875,4.51953125,1,0,0,rectangle,12.875,4.51953125,1,0,0,12.875,4.51953125,1,0,0,1,40,200,3,1,,,,,,,,
,,,,,,,,,,,,,FF,,,,,,,,0.4834,,,,,,,,,,,,,,,,,,,,,,610203b1bc07b831633fa676,61036d9b0bca9b6bb0ab1258,2021-07-29_23h11.27.953,Simcolourproject_2stim_asymm_v5,2020.2.10,MacIntel,60,61025ae37ef11b136ea224fe,,,,,,,,,3644,26.4609375,52.16796875,1,0,0,response1disk,,7,14.171875,-2.078125,1,0,0,rectangle,14.171875,-2.078125,1,0,0,14.171875,-2.078125,1,0,0,1,41,201,27,1,,,,,,,,
,,,,,,,,,,,,,FF,,,,,,,,0.4491,,,,,,,,,,,,,,,,,,,,,,610203b1bc07b831633fa676,61036d9b0bca9b6bb0ab1258,2021-07-29_23h11.27.953,Simcolourproject_2stim_asymm_v5,2020.2.10,MacIntel,60,61025ae37ef11b136ea224fe,,,,,,,,,248,27.05078125,38.09375,1,0,0,response1disk,,7,19.0234375,-7.015625,1,0,0,rectangle,19.0234375,-7.015625,1,0,0,19.0234375,-7.015625,1,0,0,1,42,202,65,1,,,,,,,,
,,,,,,,,,,,,,FF,,,,,,,,0.4175,,,,,,,,,,,,,,,,,,,,,,610203b1bc07b831633fa676,61036d9b0bca9b6bb0ab1258,2021-07-29_23h11.27.953,Simcolourproject_2stim_asymm_v5,2020.2.10,MacIntel,60,61025ae37ef11b136ea224fe,,,,,,,,,4056,35.40625,55.18359375,1,0,0,response1disk,,7,18.07421875,10.484375,1,0,0,rectangle,-71.83203125,-48.33203125,1,0,0,-3.44921875,3.32421875,1,0,0,1,43,203,63,1,,response5disk_3,TRUE,2,2,"[204,230,69,171,127,74,192,153,159,264,174,283,17,97,310,323,161,127,118,145]",2.6656,rectangle
,,,,,,,,,,,,,FF,,,,,,,,0.8497,,,,,,,,,,,,,,,,,,,,,,610203b1bc07b831633fa676,61036d9b0bca9b6bb0ab1258,2021-07-29_23h11.27.953,Simcolourproject_2stim_asymm_v5,2020.2.10,MacIntel,60,61025ae37ef11b136ea224fe,,,,,,,,,3789,19.02734375,54.81640625,1,0,0,response1disk,,7,5.1015625,-8.16015625,1,0,0,rectangle,5.1015625,-8.16015625,1,0,0,5.1015625,-8.16015625,1,0,0,1,44,204,48,1,,,,,,,,
,,,,,,,,,,,,,FF,,,,,,,,0.9001,,,,,,,,,,,,,,,,,,,,,,610203b1bc07b831633fa676,61036d9b0bca9b6bb0ab1258,2021-07-29_23h11.27.953,Simcolourproject_2stim_asymm_v5,2020.2.10,MacIntel,60,61025ae37ef11b136ea224fe,,,,,,,,,778,16.62109375,78.265625,1,0,0,response1disk,,7,10.0390625,-1.5859375,1,0,0,rectangle,10.0390625,-1.5859375,1,0,0,10.0390625,-1.5859375,1,0,0,1,45,205,97,1,,,,,,,,
,,,,,,,,,,,,,FF,,,,,,,,1.7167,,,,,,,,,,,,,,,,,,,,,,610203b1bc07b831633fa676,61036d9b0bca9b6bb0ab1258,2021-07-29_23h11.27.953,Simcolourproject_2stim_asymm_v5,2020.2.10,MacIntel,60,61025ae37ef11b136ea224fe,,,,,,,,,1218,-89.453125,-37.30078125,1,0,0,response5disk,,2,-16.21875,-0.7109375,1,0,0,rectangle,-16.21875,-0.7109375,1,0,0,-16.21875,-0.7109375,1,0,0,1,46,206,87,1,,,,,,,,
,,,,,,,,,,,,,FF,,,,,,,,1.5828,,,,,,,,,,,,,,,,,,,,,,610203b1bc07b831633fa676,61036d9b0bca9b6bb0ab1258,2021-07-29_23h11.27.953,Simcolourproject_2stim_asymm_v5,2020.2.10,MacIntel,60,61025ae37ef11b136ea224fe,,,,,,,,,1607,-19.7890625,-73.125,1,0,0,response5disk,,3,-8.03125,3.3046875,1,0,0,rectangle,-8.03125,3.3046875,1,0,0,-8.03125,3.3046875,1,0,0,1,47,207,79,1,,,,,,,,
,,,,,,,,,,,,,FF,,,,,,,,1.3824,,,,,,,,,,,,,,,,,,,,,,610203b1bc07b831633fa676,61036d9b0bca9b6bb0ab1258,2021-07-29_23h11.27.953,Simcolourproject_2stim_asymm_v5,2020.2.10,MacIntel,60,61025ae37ef11b136ea224fe,,,,,,,,,1138,-61.85546875,-29.1953125,1,0,0,response5disk,,2,-10.3515625,-1.17578125,1,0,0,rectangle,-10.3515625,-1.17578125,1,0,0,-10.3515625,-1.17578125,1,0,0,1,48,208,85,1,,,,,,,,
,,,,,,,,,,,,,FF,,,,,,,,0.7176,,,,,,,,,,,,,,,,,,,,,,610203b1bc07b831633fa676,61036d9b0bca9b6bb0ab1258,2021-07-29_23h11.27.953,Simcolourproject_2stim_asymm_v5,2020.2.10,MacIntel,60,61025ae37ef11b136ea224fe,,,,,,,,,3490,25.34375,53.5078125,1,0,0,response1disk,,7,0.65625,-14.4375,1,0,0,rectangle,0.65625,-14.4375,1,0,0,0.65625,-14.4375,1,0,0,1,49,209,19,1,,,,,,,,
,,,,,,,,,,,,,FF,,,,,,,,1.0002,,,,,,,,,,,,,,,,,,,,,,610203b1bc07b831633fa676,61036d9b0bca9b6bb0ab1258,2021-07-29_23h11.27.953,Simcolourproject_2stim_asymm_v5,2020.2.10,MacIntel,60,61025ae37ef11b136ea224fe,,,,,,,,,1117,29.859375,50.87109375,1,0,0,response1disk,,7,17.38671875,3.8515625,1,0,0,rectangle,17.38671875,3.8515625,1,0,0,17.38671875,3.8515625,1,0,0,1,50,210,34,1,,,,,,,,
,,,,,,,,,,,,,FF,,,,,,,,0.5821,,,,,,,,,,,,,,,,,,,,,,610203b1bc07b831633fa676,61036d9b0bca9b6bb0ab1258,2021-07-29_23h11.27.953,Simcolourproject_2stim_asymm_v5,2020.2.10,MacIntel,60,61025ae37ef11b136ea224fe,,,,,,,,,1873,17.89453125,56.75,1,0,0,response1disk,,7,5.33984375,-8.27734375,1,0,0,rectangle,5.33984375,-8.27734375,1,0,0,5.33984375,-8.27734375,1,0,0,1,51,211,144,1,,,,,,,,
,,,,,,,,,,,,,FF,,,,,,,,0.5993,,,,,,,,,,,,,,,,,,,,,,610203b1bc07b831633fa676,61036d9b0bca9b6bb0ab1258,2021-07-29_23h11.27.953,Simcolourproject_2stim_asymm_v5,2020.2.10,MacIntel,60,61025ae37ef11b136ea224fe,,,,,,,,,2570,32.89453125,51.6171875,1,0,0,response1disk,,7,16.890625,-11.40625,1,0,0,rectangle,16.890625,-11.40625,1,0,0,16.890625,-11.40625,1,0,0,1,52,212,21,1,,,,,,,,
,,,,,,,,,,,,,FF,,,,,,,,0.5664,,,,,,,,,,,,,,,,,,,,,,610203b1bc07b831633fa676,61036d9b0bca9b6bb0ab1258,2021-07-29_23h11.27.953,Simcolourproject_2stim_asymm_v5,2020.2.10,MacIntel,60,61025ae37ef11b136ea224fe,,,,,,,,,2744,32.5390625,65.1953125,1,0,0,response1disk,,7,8.22265625,6.44140625,1,0,0,rectangle,8.22265625,6.44140625,1,0,0,8.22265625,6.44140625,1,0,0,1,53,213,150,1,,,,,,,,
,,,,,,,,,,,,,FF,,,,,,,,0.4829,,,,,,,,,,,,,,,,,,,,,,610203b1bc07b831633fa676,61036d9b0bca9b6bb0ab1258,2021-07-29_23h11.27.953,Simcolourproject_2stim_asymm_v5,2020.2.10,MacIntel,60,61025ae37ef11b136ea224fe,,,,,,,,,304,38.24609375,79.05859375,1,0,0,response1disk,,7,11.90625,4.39453125,1,0,0,rectangle,11.90625,4.39453125,1,0,0,11.90625,4.39453125,1,0,0,1,54,214,147,1,,,,,,,,
,,,,,,,,,,,,,FF,,,,,,,,0.4499,,,,,,,,,,,,,,,,,,,,,,610203b1bc07b831633fa676,61036d9b0bca9b6bb0ab1258,2021-07-29_23h11.27.953,Simcolourproject_2stim_asymm_v5,2020.2.10,MacIntel,60,61025ae37ef11b136ea224fe,,,,,,,,,927,41.3046875,53.73046875,1,0,0,response1disk,,7,19.0546875,-3.9765625,1,0,0,rectangle,19.0546875,-3.9765625,1,0,0,19.0546875,-3.9765625,1,0,0,1,55,215,146,1,,,,,,,,
,,,,,,,,,,,,,FF,,,,,,,,0.5502,,,,,,,,,,,,,,,,,,,,,,610203b1bc07b831633fa676,61036d9b0bca9b6bb0ab1258,2021-07-29_23h11.27.953,Simcolourproject_2stim_asymm_v5,2020.2.10,MacIntel,60,61025ae37ef11b136ea224fe,,,,,,,,,2421,22.5546875,52.3984375,1,0,0,response1disk,,7,7.96484375,6.80078125,1,0,0,rectangle,7.96484375,6.80078125,1,0,0,7.96484375,6.80078125,1,0,0,1,56,216,36,1,,,,,,,,
,,,,,,,,,,,,,FF,,,,,,,,0.7831,,,,,,,,,,,,,,,,,,,,,,610203b1bc07b831633fa676,61036d9b0bca9b6bb0ab1258,2021-07-29_23h11.27.953,Simcolourproject_2stim_asymm_v5,2020.2.10,MacIntel,60,61025ae37ef11b136ea224fe,,,,,,,,,105,57.65234375,78.2109375,1,0,0,response1disk,,7,18.640625,1.33984375,1,0,0,rectangle,18.640625,1.33984375,1,0,0,18.640625,1.33984375,1,0,0,1,57,217,43,1,,,,,,,,
,,,,,,,,,,,,,FF,,,,,,,,0.5666,,,,,,,,,,,,,,,,,,,,,,610203b1bc07b831633fa676,61036d9b0bca9b6bb0ab1258,2021-07-29_23h11.27.953,Simcolourproject_2stim_asymm_v5,2020.2.10,MacIntel,60,61025ae37ef11b136ea224fe,,,,,,,,,2376,35.53125,46.19140625,1,0,0,response1disk,,7,22.9296875,1.2421875,1,0,0,rectangle,22.9296875,1.2421875,1,0,0,22.9296875,1.2421875,1,0,0,1,58,218,6,1,,,,,,,,
,,,,,,,,,,,,,FF,,,,,,,,0.7327,,,,,,,,,,,,,,,,,,,,,,610203b1bc07b831633fa676,61036d9b0bca9b6bb0ab1258,2021-07-29_23h11.27.953,Simcolourproject_2stim_asymm_v5,2020.2.10,MacIntel,60,61025ae37ef11b136ea224fe,,,,,,,,,1366,24.02734375,52.01953125,1,0,0,response1disk,,7,9.25390625,-1.8828125,1,0,0,rectangle,9.25390625,-1.8828125,1,0,0,9.25390625,-1.8828125,1,0,0,1,59,219,136,1,,,,,,,,
,,,,,,,,,,,,,FF,,,,,,,,0.6491,,,,,,,,,,,,,,,,,,,,,,610203b1bc07b831633fa676,61036d9b0bca9b6bb0ab1258,2021-07-29_23h11.27.953,Simcolourproject_2stim_asymm_v5,2020.2.10,MacIntel,60,61025ae37ef11b136ea224fe,,,,,,,,,1047,28.94921875,56.21875,1,0,0,response1disk,,7,7.19921875,-9.58984375,1,0,0,rectangle,7.19921875,-9.58984375,1,0,0,7.19921875,-9.58984375,1,0,0,1,60,220,92,1,,,,,,,,
,,,,,,,,,,,,,FF,,,,,,,,0.45,,,,,,,,,,,,,,,,,,,,,,610203b1bc07b831633fa676,61036d9b0bca9b6bb0ab1258,2021-07-29_23h11.27.953,Simcolourproject_2stim_asymm_v5,2020.2.10,MacIntel,60,61025ae37ef11b136ea224fe,,,,,,,,,1532,23.125,50.30859375,1,0,0,response1disk,,7,8.921875,5.7890625,1,0,0,rectangle,8.921875,5.7890625,1,0,0,8.921875,5.7890625,1,0,0,1,61,221,139,1,,,,,,,,
,,,,,,,,,,,,,FF,,,,,,,,0.5675,,,,,,,,,,,,,,,,,,,,,,610203b1bc07b831633fa676,61036d9b0bca9b6bb0ab1258,2021-07-29_23h11.27.953,Simcolourproject_2stim_asymm_v5,2020.2.10,MacIntel,60,61025ae37ef11b136ea224fe,,,,,,,,,2287,22.74609375,51.32421875,1,0,0,response1disk,,7,4.6015625,0.7421875,1,0,0,rectangle,4.6015625,0.7421875,1,0,0,4.6015625,0.7421875,1,0,0,1,62,222,72,1,,,,,,,,
,,,,,,,,,,,,,FF,,,,,,,,1.5839,,,,,,,,,,,,,,,,,,,,,,610203b1bc07b831633fa676,61036d9b0bca9b6bb0ab1258,2021-07-29_23h11.27.953,Simcolourproject_2stim_asymm_v5,2020.2.10,MacIntel,60,61025ae37ef11b136ea224fe,,,,,,,,,637,-82.68359375,25.890625,1,0,0,response7disk,,1,-25.58984375,1.08984375,1,0,0,rectangle,-25.58984375,1.08984375,1,0,0,-25.58984375,1.08984375,1,0,0,1,63,223,15,1,,,,,,,,
,,,,,,,,,,,,,FF,,,,,,,,0.6169,,,,,,,,,,,,,,,,,,,,,,610203b1bc07b831633fa676,61036d9b0bca9b6bb0ab1258,2021-07-29_23h11.27.953,Simcolourproject_2stim_asymm_v5,2020.2.10,MacIntel,60,61025ae37ef11b136ea224fe,,,,,,,,,2628,18.94140625,55.04296875,1,0,0,response1disk,,7,7.05859375,-11.3046875,1,0,0,rectangle,7.05859375,-11.3046875,1,0,0,7.05859375,-11.3046875,1,0,0,1,64,224,99,1,,,,,,,,
,,,,,,,,,,,,,FF,,,,,,,,1.0841,,,,,,,,,,,,,,,,,,,,,,610203b1bc07b831633fa676,61036d9b0bca9b6bb0ab1258,2021-07-29_23h11.27.953,Simcolourproject_2stim_asymm_v5,2020.2.10,MacIntel,60,61025ae37ef11b136ea224fe,,,,,,,,,553,-87.61328125,-42.12109375,1,0,0,response5disk,,2,0.83203125,-7.89453125,1,0,0,rectangle,0.83203125,-7.89453125,1,0,0,0.83203125,-7.89453125,1,0,0,1,65,225,83,1,,,,,,,,
,,,,,,,,,,,,,FF,,,,,,,,0.6165,,,,,,,,,,,,,,,,,,,,,,610203b1bc07b831633fa676,61036d9b0bca9b6bb0ab1258,2021-07-29_23h11.27.953,Simcolourproject_2stim_asymm_v5,2020.2.10,MacIntel,60,61025ae37ef11b136ea224fe,,,,,,,,,1781,34.73828125,61.7890625,1,0,0,response1disk,,7,5.7265625,1.78125,1,0,0,rectangle,5.7265625,1.78125,1,0,0,5.7265625,1.78125,1,0,0,1,66,226,159,1,,,,,,,,
,,,,,,,,,,,,,FF,,,,,,,,0.4995,,,,,,,,,,,,,,,,,,,,,,610203b1bc07b831633fa676,61036d9b0bca9b6bb0ab1258,2021-07-29_23h11.27.953,Simcolourproject_2stim_asymm_v5,2020.2.10,MacIntel,60,61025ae37ef11b136ea224fe,,,,,,,,,219,20.1953125,48.953125,1,0,0,response1disk,,7,3.68359375,-2.0859375,1,0,0,rectangle,3.68359375,-2.0859375,1,0,0,3.68359375,-2.0859375,1,0,0,1,67,227,35,1,,,,,,,,
,,,,,,,,,,,,,FF,,,,,,,,0.5995,,,,,,,,,,,,,,,,,,,,,,610203b1bc07b831633fa676,61036d9b0bca9b6bb0ab1258,2021-07-29_23h11.27.953,Simcolourproject_2stim_asymm_v5,2020.2.10,MacIntel,60,61025ae37ef11b136ea224fe,,,,,,,,,3715,25.1640625,54.9765625,1,0,0,response1disk,,7,-1.8828125,-2.98046875,1,0,0,rectangle,-1.8828125,-2.98046875,1,0,0,-1.8828125,-2.98046875,1,0,0,1,68,228,68,1,,,,,,,,
,,,,,,,,,,,,,FF,,,,,,,,1.4666,,,,,,,,,,,,,,,,,,,,,,610203b1bc07b831633fa676,61036d9b0bca9b6bb0ab1258,2021-07-29_23h11.27.953,Simcolourproject_2stim_asymm_v5,2020.2.10,MacIntel,60,61025ae37ef11b136ea224fe,,,,,,,,,1822,-72.40625,51.42578125,1,0,0,response7disk,,1,3.32421875,11.71484375,1,0,0,rectangle,64.4296875,-43.98828125,1,0,0,8.96484375,-12,1,0,0,1,69,229,5,1,,response3disk_3,TRUE,5,5,"[204,230,69,171,127,74,192,153,159,264,174,283,17,97,310,323,161,127,118,145]",1.3992,rectangle
,,,,,,,,,,,,,FF,,,,,,,,0.8341,,,,,,,,,,,,,,,,,,,,,,610203b1bc07b831633fa676,61036d9b0bca9b6bb0ab1258,2021-07-29_23h11.27.953,Simcolourproject_2stim_asymm_v5,2020.2.10,MacIntel,60,61025ae37ef11b136ea224fe,,,,,,,,,3480,34.6484375,45.68359375,1,0,0,response1disk,,7,10.05078125,5.11328125,1,0,0,rectangle,10.05078125,5.11328125,1,0,0,10.05078125,5.11328125,1,0,0,1,70,230,71,1,,,,,,,,
,,,,,,,,,,,,,FF,,,,,,,,1.4174,,,,,,,,,,,,,,,,,,,,,,610203b1bc07b831633fa676,61036d9b0bca9b6bb0ab1258,2021-07-29_23h11.27.953,Simcolourproject_2stim_asymm_v5,2020.2.10,MacIntel,60,61025ae37ef11b136ea224fe,,,,,,,,,3706,-61.8046875,38.6640625,1,0,0,response7disk,,1,1.1796875,1.125,1,0,0,rectangle,1.1796875,1.125,1,0,0,1.1796875,1.125,1,0,0,1,71,231,142,1,,,,,,,,
,,,,,,,,,,,,,FF,,,,,,,,0.983,,,,,,,,,,,,,,,,,,,,,,610203b1bc07b831633fa676,61036d9b0bca9b6bb0ab1258,2021-07-29_23h11.27.953,Simcolourproject_2stim_asymm_v5,2020.2.10,MacIntel,60,61025ae37ef11b136ea224fe,,,,,,,,,96,-91.55078125,-45.35546875,1,0,0,response5disk,,2,-17.92578125,-13.88671875,1,0,0,rectangle,-17.92578125,-13.88671875,1,0,0,-17.92578125,-13.88671875,1,0,0,1,72,232,20,1,,,,,,,,
,,,,,,,,,,,,,FF,,,,,,,,1.2991,,,,,,,,,,,,,,,,,,,,,,610203b1bc07b831633fa676,61036d9b0bca9b6bb0ab1258,2021-07-29_23h11.27.953,Simcolourproject_2stim_asymm_v5,2020.2.10,MacIntel,60,61025ae37ef11b136ea224fe,,,,,,,,,301,19.94140625,40.21875,1,0,0,response1disk,,7,5.125,0.87109375,1,0,0,rectangle,5.125,0.87109375,1,0,0,5.125,0.87109375,1,0,0,1,73,233,114,1,,,,,,,,
,,,,,,,,,,,,,FF,,,,,,,,0.5334,,,,,,,,,,,,,,,,,,,,,,610203b1bc07b831633fa676,61036d9b0bca9b6bb0ab1258,2021-07-29_23h11.27.953,Simcolourproject_2stim_asymm_v5,2020.2.10,MacIntel,60,61025ae37ef11b136ea224fe,,,,,,,,,903,44.01171875,72.41015625,1,0,0,response1disk,,7,15.1171875,0.578125,1,0,0,rectangle,15.1171875,0.578125,1,0,0,15.1171875,0.578125,1,0,0,1,74,234,110,1,,,,,,,,
,,,,,,,,,,,,,FF,,,,,,,,2.0177,,,,,,,,,,,,,,,,,,,,,,610203b1bc07b831633fa676,61036d9b0bca9b6bb0ab1258,2021-07-29_23h11.27.953,Simcolourproject_2stim_asymm_v5,2020.2.10,MacIntel,60,61025ae37ef11b136ea224fe,,,,,,,,,2028,-49.94921875,-82.09375,1,0,0,response5disk,,3,3.17578125,-5.2265625,1,0,0,rectangle,3.17578125,-5.2265625,1,0,0,3.17578125,-5.2265625,1,0,0,1,75,235,112,1,,,,,,,,
,,,,,,,,,,,,,FF,,,,,,,,1.1484,,,,,,,,,,,,,,,,,,,,,,610203b1bc07b831633fa676,61036d9b0bca9b6bb0ab1258,2021-07-29_23h11.27.953,Simcolourproject_2stim_asymm_v5,2020.2.10,MacIntel,60,61025ae37ef11b136ea224fe,,,,,,,,,3746,-34.7109375,-83.63671875,1,0,0,response5disk,,3,-20.18359375,-17.4765625,1,0,0,rectangle,-20.18359375,-17.4765625,1,0,0,-20.18359375,-17.4765625,1,0,0,1,76,236,130,1,,,,,,,,
,,,,,,,,,,,,,FF,,,,,,,,0.783,,,,,,,,,,,,,,,,,,,,,,610203b1bc07b831633fa676,61036d9b0bca9b6bb0ab1258,2021-07-29_23h11.27.953,Simcolourproject_2stim_asymm_v5,2020.2.10,MacIntel,60,61025ae37ef11b136ea224fe,,,,,,,,,2000,21.84375,45.5625,1,0,0,response1disk,,7,5.109375,-0.859375,1,0,0,rectangle,5.109375,-0.859375,1,0,0,5.109375,-0.859375,1,0,0,1,77,237,23,1,,,,,,,,
,,,,,,,,,,,,,FF,,,,,,,,0.6336,,,,,,,,,,,,,,,,,,,,,,610203b1bc07b831633fa676,61036d9b0bca9b6bb0ab1258,2021-07-29_23h11.27.953,Simcolourproject_2stim_asymm_v5,2020.2.10,MacIntel,60,61025ae37ef11b136ea224fe,,,,,,,,,1782,25.1953125,51.48828125,1,0,0,response1disk,,7,12.75390625,-2.18359375,1,0,0,rectangle,12.75390625,-2.18359375,1,0,0,12.75390625,-2.18359375,1,0,0,1,78,238,104,1,,,,,,,,
,,,,,,,,,,,,,FF,,,,,,,,1.3843,,,,,,,,,,,,,,,,,,,,,,610203b1bc07b831633fa676,61036d9b0bca9b6bb0ab1258,2021-07-29_23h11.27.953,Simcolourproject_2stim_asymm_v5,2020.2.10,MacIntel,60,61025ae37ef11b136ea224fe,,,,,,,,,649,34.76171875,61.44921875,1,0,0,response1disk,,7,10.453125,-13.17578125,1,0,0,rectangle,10.453125,-13.17578125,1,0,0,10.453125,-13.17578125,1,0,0,1,79,239,158,1,,,,,,,,
,,,,,,,,,,,,,FF,,,,,,,,0.5151,,,,,,,,,,,,,,,,,,,,,,610203b1bc07b831633fa676,61036d9b0bca9b6bb0ab1258,2021-07-29_23h11.27.953,Simcolourproject_2stim_asymm_v5,2020.2.10,MacIntel,60,61025ae37ef11b136ea224fe,,,,,,,,,1653,27.62890625,54.234375,1,0,0,response1disk,,7,2.9765625,-4.46875,1,0,0,rectangle,2.9765625,-4.46875,1,0,0,2.9765625,-4.46875,1,0,0,1,80,240,151,1,,,,,,,,
,,,,,,,,,,,,,FF,,,,,,,,0.5162,,,,,,,,,,,,,,,,,,,,,,610203b1bc07b831633fa676,61036d9b0bca9b6bb0ab1258,2021-07-29_23h11.27.953,Simcolourproject_2stim_asymm_v5,2020.2.10,MacIntel,60,61025ae37ef11b136ea224fe,,,,,,,,,3014,32.2265625,80.640625,1,0,0,response1disk,,7,20.01171875,12.5546875,1,0,0,rectangle,20.01171875,12.5546875,1,0,0,20.01171875,12.5546875,1,0,0,1,81,241,156,1,,,,,,,,
,,,,,,,,,,,,,FF,,,,,,,,0.6172,,,,,,,,,,,,,,,,,,,,,,610203b1bc07b831633fa676,61036d9b0bca9b6bb0ab1258,2021-07-29_23h11.27.953,Simcolourproject_2stim_asymm_v5,2020.2.10,MacIntel,60,61025ae37ef11b136ea224fe,,,,,,,,,756,28.30078125,55.33203125,1,0,0,response1disk,,7,-0.640625,-9.52734375,1,0,0,rectangle,-0.640625,-9.52734375,1,0,0,-0.640625,-9.52734375,1,0,0,1,82,242,66,1,,,,,,,,
,,,,,,,,,,,,,FF,,,,,,,,0.4664,,,,,,,,,,,,,,,,,,,,,,610203b1bc07b831633fa676,61036d9b0bca9b6bb0ab1258,2021-07-29_23h11.27.953,Simcolourproject_2stim_asymm_v5,2020.2.10,MacIntel,60,61025ae37ef11b136ea224fe,,,,,,,,,480,28.84765625,61.6015625,1,0,0,response1disk,,7,0.03125,0.70703125,1,0,0,rectangle,0.03125,0.70703125,1,0,0,0.03125,0.70703125,1,0,0,1,83,243,76,1,,,,,,,,
,,,,,,,,,,,,,FF,,,,,,,,0.3502,,,,,,,,,,,,,,,,,,,,,,610203b1bc07b831633fa676,61036d9b0bca9b6bb0ab1258,2021-07-29_23h11.27.953,Simcolourproject_2stim_asymm_v5,2020.2.10,MacIntel,60,61025ae37ef11b136ea224fe,,,,,,,,,3482,25.2421875,32.52734375,1,0,0,response1disk,,7,13.546875,-7.6953125,1,0,0,rectangle,13.546875,-7.6953125,1,0,0,13.546875,-7.6953125,1,0,0,1,84,244,127,1,,,,,,,,
,,,,,,,,,,,,,FF,,,,,,,,0.3833,,,,,,,,,,,,,,,,,,,,,,610203b1bc07b831633fa676,61036d9b0bca9b6bb0ab1258,2021-07-29_23h11.27.953,Simcolourproject_2stim_asymm_v5,2020.2.10,MacIntel,60,61025ae37ef11b136ea224fe,,,,,,,,,3609,33.109375,59.4140625,1,0,0,response1disk,,7,19.4609375,-1.41015625,1,0,0,rectangle,19.4609375,-1.41015625,1,0,0,19.4609375,-1.41015625,1,0,0,1,85,245,46,1,,,,,,,,
,,,,,,,,,,,,,FF,,,,,,,,0.4327,,,,,,,,,,,,,,,,,,,,,,610203b1bc07b831633fa676,61036d9b0bca9b6bb0ab1258,2021-07-29_23h11.27.953,Simcolourproject_2stim_asymm_v5,2020.2.10,MacIntel,60,61025ae37ef11b136ea224fe,,,,,,,,,91,26.54296875,33.56640625,1,0,0,response1disk,,7,18.26953125,-2.2265625,1,0,0,rectangle,18.26953125,-2.2265625,1,0,0,18.26953125,-2.2265625,1,0,0,1,86,246,33,1,,,,,,,,
,,,,,,,,,,,,,FF,,,,,,,,0.5163,,,,,,,,,,,,,,,,,,,,,,610203b1bc07b831633fa676,61036d9b0bca9b6bb0ab1258,2021-07-29_23h11.27.953,Simcolourproject_2stim_asymm_v5,2020.2.10,MacIntel,60,61025ae37ef11b136ea224fe,,,,,,,,,744,27.32421875,53.2265625,1,0,0,response1disk,,7,8.47265625,-6.3828125,1,0,0,rectangle,8.47265625,-6.3828125,1,0,0,8.47265625,-6.3828125,1,0,0,1,87,247,9,1,,,,,,,,
,,,,,,,,,,,,,FF,,,,,,,,0.4654,,,,,,,,,,,,,,,,,,,,,,610203b1bc07b831633fa676,61036d9b0bca9b6bb0ab1258,2021-07-29_23h11.27.953,Simcolourproject_2stim_asymm_v5,2020.2.10,MacIntel,60,61025ae37ef11b136ea224fe,,,,,,,,,860,23.03125,44.5703125,1,0,0,response1disk,,7,11.265625,-7.99609375,1,0,0,rectangle,11.265625,-7.99609375,1,0,0,11.265625,-7.99609375,1,0,0,1,88,248,40,1,,,,,,,,
