key_resp.keys,key_resp.rt,key_resp_14.keys,key_resp_14.rt,key_resp_15.keys,key_resp_15.rt,key_resp_17.keys,key_resp_17.rt,key_resp_9.keys,key_resp_9.rt,key_resp_10.keys,key_resp_10.rt,practice_comparison,Ecc,mouse_5.x,mouse_5.y,mouse_5.leftButton,mouse_5.midButton,mouse_5.rightButton,mouse_5.clicked_name,pracsimilarity,response_time,mouse_10.x,mouse_10.y,mouse_10.leftButton,mouse_10.midButton,mouse_10.rightButton,mouse_10.clicked_name,mouse_7.x,mouse_7.y,mouse_7.leftButton,mouse_7.midButton,mouse_7.rightButton,mouse_6.x,mouse_6.y,mouse_6.leftButton,mouse_6.midButton,mouse_6.rightButton,duringprac.thisRepN,duringprac.thisTrialN,duringprac.thisN,duringprac.thisIndex,duringprac.ran,participant,session,date,expName,psychopyVersion,OS,frameRate,study_id,mouse_7.clicked_name,catchpracsimilarity,catch_response_time,catchnumberprac,catchtrialorderprac,mouse_6.clicked_name,key_resp_22.keys,key_resp_22.rt,realcomparison,mouse.x,mouse.y,mouse.leftButton,mouse.midButton,mouse.rightButton,mouse.clicked_name,Colour2,similarity,mouse_2.x,mouse_2.y,mouse_2.leftButton,mouse_2.midButton,mouse_2.rightButton,mouse_2.clicked_name,mouse_3.x,mouse_3.y,mouse_3.leftButton,mouse_3.midButton,mouse_3.rightButton,mouse_11.x,mouse_11.y,mouse_11.leftButton,mouse_11.midButton,mouse_11.rightButton,trials_2.thisRepN,trials_2.thisTrialN,trials_2.thisN,trials_2.thisIndex,trials_2.ran,Colour1,mouse_3.clicked_name,catchornah,catchsimilarity,catchnumber,catchtrialorder,catchRT,mouse_11.clicked_name
space,7.5034,space,34.3166,space,39.6354,space,32.3417,space,5.4675,space,12.7093,144,FF,-48,-42,1,0,0,response5disk_5,2,13.7212,4,2,1,0,0,rectangle_8,4,2,1,0,0,4,2,1,0,0,0,0,0,0,1,6102aa9a20e54b54f0a32c41,61036ea51e0579e042958643,2021-07-30_04h16.53.887,Simcolourproject_2stim_asymm_v5,2020.2.10,Win32,60,61025ae37ef11b136ea224fe,,,,,,,,,,,,,,,,,,,,,,,,,,,,,,,,,,,,,,,,,,,,,,
,,,,,,,,,,,,24,PF,82,-33,1,0,0,response3disk_5,5,8.9342,-16,-2,1,0,0,rectangle_8,40,97,1,0,0,-7,-4,1,0,0,0,1,1,6,1,6102aa9a20e54b54f0a32c41,61036ea51e0579e042958643,2021-07-30_04h16.53.887,Simcolourproject_2stim_asymm_v5,2020.2.10,Win32,60,61025ae37ef11b136ea224fe,response1disk_7,7,4.7563,7,"[2,5]",rectangle_4,,,,,,,,,,,,,,,,,,,,,,,,,,,,,,,,,,,,,,,,
,,,,,,,,,,,,113,FF,52,-86,1,0,0,response3disk_5,4,6.087,18,1,1,0,0,rectangle_8,18,1,1,0,0,18,1,1,0,0,0,2,2,5,1,6102aa9a20e54b54f0a32c41,61036ea51e0579e042958643,2021-07-30_04h16.53.887,Simcolourproject_2stim_asymm_v5,2020.2.10,Win32,60,61025ae37ef11b136ea224fe,,,,,,,,,,,,,,,,,,,,,,,,,,,,,,,,,,,,,,,,,,,,,,
,,,,,,,,,,,,65,PF,-93,-57,1,0,0,response5disk_5,2,4.5039,-11,3,1,0,0,rectangle_8,-11,3,1,0,0,-11,3,1,0,0,0,3,3,2,1,6102aa9a20e54b54f0a32c41,61036ea51e0579e042958643,2021-07-30_04h16.53.887,Simcolourproject_2stim_asymm_v5,2020.2.10,Win32,60,61025ae37ef11b136ea224fe,,,,,,,,,,,,,,,,,,,,,,,,,,,,,,,,,,,,,,,,,,,,,,
,,,,,,,,,,,,160,PF,61,41,1,0,0,response1disk_5,6,2.2952,-3,2,1,0,0,rectangle_8,44,98,1,0,0,4,1,1,0,0,0,4,4,4,1,6102aa9a20e54b54f0a32c41,61036ea51e0579e042958643,2021-07-30_04h16.53.887,Simcolourproject_2stim_asymm_v5,2020.2.10,Win32,60,61025ae37ef11b136ea224fe,response1disk_7,7,4.9649,7,"[2,5]",rectangle_4,,,,,,,,,,,,,,,,,,,,,,,,,,,,,,,,,,,,,,,,
,,,,,,,,,,,,110,PF,-93,-59,1,0,0,response5disk_5,2,7.2,10,1,1,0,0,rectangle_8,10,1,1,0,0,10,1,1,0,0,0,5,5,1,1,6102aa9a20e54b54f0a32c41,61036ea51e0579e042958643,2021-07-30_04h16.53.887,Simcolourproject_2stim_asymm_v5,2020.2.10,Win32,60,61025ae37ef11b136ea224fe,,,,,,,,,,,,,,,,,,,,,,,,,,,,,,,,,,,,,,,,,,,,,,
,,,,,,,,,,,,14,FF,-72,-41,1,0,0,response5disk_5,2,3.5875,13,3,1,0,0,rectangle_8,13,3,1,0,0,13,3,1,0,0,0,6,6,3,1,6102aa9a20e54b54f0a32c41,61036ea51e0579e042958643,2021-07-30_04h16.53.887,Simcolourproject_2stim_asymm_v5,2020.2.10,Win32,60,61025ae37ef11b136ea224fe,,,,,,,,,,,,,,,,,,,,,,,,,,,,,,,,,,,,,,,,,,,,,,
,,,,,,,,,,,,,FF,,,,,,,,5.9657,,,,,,,,,,,,,,,,,,,,,,6102aa9a20e54b54f0a32c41,61036ea51e0579e042958643,2021-07-30_04h16.53.887,Simcolourproject_2stim_asymm_v5,2020.2.10,Win32,60,61025ae37ef11b136ea224fe,,,,,,,space,8.7809,3565,77,-41,1,0,0,response3disk,,5,10,-1,1,0,0,rectangle,10,-1,1,0,0,10,-1,1,0,0,0,0,0,6,1,,,,,,,,
,,,,,,,,,,,,,FF,,,,,,,,3.5805,,,,,,,,,,,,,,,,,,,,,,6102aa9a20e54b54f0a32c41,61036ea51e0579e042958643,2021-07-30_04h16.53.887,Simcolourproject_2stim_asymm_v5,2020.2.10,Win32,60,61025ae37ef11b136ea224fe,,,,,,,,,396,-79,-42,1,0,0,response5disk,,2,17,-4,1,0,0,rectangle,17,-4,1,0,0,17,-4,1,0,0,0,1,1,18,1,,,,,,,,
,,,,,,,,,,,,,FF,,,,,,,,16.6487,,,,,,,,,,,,,,,,,,,,,,6102aa9a20e54b54f0a32c41,61036ea51e0579e042958643,2021-07-30_04h16.53.887,Simcolourproject_2stim_asymm_v5,2020.2.10,Win32,60,61025ae37ef11b136ea224fe,,,,,,,,,1655,38,62,1,0,0,response1disk,,7,-2,-6,1,0,0,rectangle,-2,-6,1,0,0,-2,-6,1,0,0,0,2,2,33,1,,,,,,,,
,,,,,,,,,,,,,FF,,,,,,,,8.3825,,,,,,,,,,,,,,,,,,,,,,6102aa9a20e54b54f0a32c41,61036ea51e0579e042958643,2021-07-30_04h16.53.887,Simcolourproject_2stim_asymm_v5,2020.2.10,Win32,60,61025ae37ef11b136ea224fe,,,,,,,,,1765,98,38,1,0,0,response1disk,,6,8,3,1,0,0,rectangle,8,3,1,0,0,8,3,1,0,0,0,3,3,61,1,,,,,,,,
,,,,,,,,,,,,,FF,,,,,,,,2.0029,,,,,,,,,,,,,,,,,,,,,,6102aa9a20e54b54f0a32c41,61036ea51e0579e042958643,2021-07-30_04h16.53.887,Simcolourproject_2stim_asymm_v5,2020.2.10,Win32,60,61025ae37ef11b136ea224fe,,,,,,,,,2344,60,28,1,0,0,response1disk,,6,7,-1,1,0,0,rectangle,7,-1,1,0,0,7,-1,1,0,0,0,4,4,51,1,,,,,,,,
,,,,,,,,,,,,,FF,,,,,,,,2.0181,,,,,,,,,,,,,,,,,,,,,,6102aa9a20e54b54f0a32c41,61036ea51e0579e042958643,2021-07-30_04h16.53.887,Simcolourproject_2stim_asymm_v5,2020.2.10,Win32,60,61025ae37ef11b136ea224fe,,,,,,,,,3935,-78,-54,1,0,0,response5disk,,2,9,-4,1,0,0,rectangle,9,-4,1,0,0,9,-4,1,0,0,0,5,5,48,1,,,,,,,,
,,,,,,,,,,,,,FF,,,,,,,,1.6069,,,,,,,,,,,,,,,,,,,,,,6102aa9a20e54b54f0a32c41,61036ea51e0579e042958643,2021-07-30_04h16.53.887,Simcolourproject_2stim_asymm_v5,2020.2.10,Win32,60,61025ae37ef11b136ea224fe,,,,,,,,,1694,28,-64,1,0,0,response3disk,,4,-9,10,1,0,0,rectangle,-9,10,1,0,0,-9,10,1,0,0,0,6,6,63,1,,,,,,,,
,,,,,,,,,,,,,FF,,,,,,,,1.8376,,,,,,,,,,,,,,,,,,,,,,6102aa9a20e54b54f0a32c41,61036ea51e0579e042958643,2021-07-30_04h16.53.887,Simcolourproject_2stim_asymm_v5,2020.2.10,Win32,60,61025ae37ef11b136ea224fe,,,,,,,,,3391,-71,33,1,0,0,response7disk,,1,2,-12,1,0,0,rectangle,2,-12,1,0,0,2,-12,1,0,0,0,7,7,159,1,,,,,,,,
,,,,,,,,,,,,,FF,,,,,,,,4.7654,,,,,,,,,,,,,,,,,,,,,,6102aa9a20e54b54f0a32c41,61036ea51e0579e042958643,2021-07-30_04h16.53.887,Simcolourproject_2stim_asymm_v5,2020.2.10,Win32,60,61025ae37ef11b136ea224fe,,,,,,,,,4032,-37,-84,1,0,0,response5disk,,3,3,0,1,0,0,rectangle,72,-45,1,0,0,-9,-4,1,0,0,0,8,8,146,1,,response3disk_3,TRUE,5,5,"[58,315,315,202,39,216,137,231,298,259,153,141,83,238,9,87,110,232,297,45]",5.473,rectangle
,,,,,,,,,,,,,FF,,,,,,,,2.0344,,,,,,,,,,,,,,,,,,,,,,6102aa9a20e54b54f0a32c41,61036ea51e0579e042958643,2021-07-30_04h16.53.887,Simcolourproject_2stim_asymm_v5,2020.2.10,Win32,60,61025ae37ef11b136ea224fe,,,,,,,,,431,-29,-69,1,0,0,response5disk,,3,12,9,1,0,0,rectangle,12,9,1,0,0,12,9,1,0,0,0,9,9,56,1,,,,,,,,
,,,,,,,,,,,,,FF,,,,,,,,1.4346,,,,,,,,,,,,,,,,,,,,,,6102aa9a20e54b54f0a32c41,61036ea51e0579e042958643,2021-07-30_04h16.53.887,Simcolourproject_2stim_asymm_v5,2020.2.10,Win32,60,61025ae37ef11b136ea224fe,,,,,,,,,2780,-68,48,1,0,0,response7disk,,1,-4,-1,1,0,0,rectangle,-4,-1,1,0,0,-4,-1,1,0,0,0,10,10,26,1,,,,,,,,
,,,,,,,,,,,,,FF,,,,,,,,2.1188,,,,,,,,,,,,,,,,,,,,,,6102aa9a20e54b54f0a32c41,61036ea51e0579e042958643,2021-07-30_04h16.53.887,Simcolourproject_2stim_asymm_v5,2020.2.10,Win32,60,61025ae37ef11b136ea224fe,,,,,,,,,3369,33,-49,1,0,0,response3disk,,4,10,2,1,0,0,rectangle,10,2,1,0,0,10,2,1,0,0,0,11,11,64,1,,,,,,,,
,,,,,,,,,,,,,FF,,,,,,,,1.7381,,,,,,,,,,,,,,,,,,,,,,6102aa9a20e54b54f0a32c41,61036ea51e0579e042958643,2021-07-30_04h16.53.887,Simcolourproject_2stim_asymm_v5,2020.2.10,Win32,60,61025ae37ef11b136ea224fe,,,,,,,,,3245,-68,50,1,0,0,response7disk,,1,-10,2,1,0,0,rectangle,-10,2,1,0,0,-10,2,1,0,0,0,12,12,123,1,,,,,,,,
,,,,,,,,,,,,,FF,,,,,,,,1.1216,,,,,,,,,,,,,,,,,,,,,,6102aa9a20e54b54f0a32c41,61036ea51e0579e042958643,2021-07-30_04h16.53.887,Simcolourproject_2stim_asymm_v5,2020.2.10,Win32,60,61025ae37ef11b136ea224fe,,,,,,,,,226,-43,-77,1,0,0,response5disk,,3,18,1,1,0,0,rectangle,18,1,1,0,0,18,1,1,0,0,0,13,13,93,1,,,,,,,,
,,,,,,,,,,,,,FF,,,,,,,,1.2883,,,,,,,,,,,,,,,,,,,,,,6102aa9a20e54b54f0a32c41,61036ea51e0579e042958643,2021-07-30_04h16.53.887,Simcolourproject_2stim_asymm_v5,2020.2.10,Win32,60,61025ae37ef11b136ea224fe,,,,,,,,,4299,23,-45,1,0,0,response3disk,,4,17,-6,1,0,0,rectangle,17,-6,1,0,0,17,-6,1,0,0,0,14,14,117,1,,,,,,,,
,,,,,,,,,,,,,FF,,,,,,,,1.6341,,,,,,,,,,,,,,,,,,,,,,6102aa9a20e54b54f0a32c41,61036ea51e0579e042958643,2021-07-30_04h16.53.887,Simcolourproject_2stim_asymm_v5,2020.2.10,Win32,60,61025ae37ef11b136ea224fe,,,,,,,,,261,-71,33,1,0,0,response7disk,,1,-6,-1,1,0,0,rectangle,-6,-1,1,0,0,-6,-1,1,0,0,0,15,15,1,1,,,,,,,,
,,,,,,,,,,,,,FF,,,,,,,,1.4324,,,,,,,,,,,,,,,,,,,,,,6102aa9a20e54b54f0a32c41,61036ea51e0579e042958643,2021-07-30_04h16.53.887,Simcolourproject_2stim_asymm_v5,2020.2.10,Win32,60,61025ae37ef11b136ea224fe,,,,,,,,,1798,66,-40,1,0,0,response3disk,,5,11,4,1,0,0,rectangle,11,4,1,0,0,11,4,1,0,0,0,16,16,42,1,,,,,,,,
,,,,,,,,,,,,,FF,,,,,,,,2.1184,,,,,,,,,,,,,,,,,,,,,,6102aa9a20e54b54f0a32c41,61036ea51e0579e042958643,2021-07-30_04h16.53.887,Simcolourproject_2stim_asymm_v5,2020.2.10,Win32,60,61025ae37ef11b136ea224fe,,,,,,,,,1207,59,-99,1,0,0,response3disk,,4,9,10,1,0,0,rectangle,9,10,1,0,0,9,10,1,0,0,0,17,17,86,1,,,,,,,,
,,,,,,,,,,,,,FF,,,,,,,,3.8546,,,,,,,,,,,,,,,,,,,,,,6102aa9a20e54b54f0a32c41,61036ea51e0579e042958643,2021-07-30_04h16.53.887,Simcolourproject_2stim_asymm_v5,2020.2.10,Win32,60,61025ae37ef11b136ea224fe,,,,,,,,,2797,26,-76,1,0,0,response3disk,,4,6,-2,1,0,0,rectangle,6,-2,1,0,0,6,-2,1,0,0,0,18,18,41,1,,,,,,,,
,,,,,,,,,,,,,FF,,,,,,,,2.4534,,,,,,,,,,,,,,,,,,,,,,6102aa9a20e54b54f0a32c41,61036ea51e0579e042958643,2021-07-30_04h16.53.887,Simcolourproject_2stim_asymm_v5,2020.2.10,Win32,60,61025ae37ef11b136ea224fe,,,,,,,,,2202,66,-55,1,0,0,response3disk,,5,-10,6,1,0,0,rectangle,-10,6,1,0,0,-10,6,1,0,0,0,19,19,108,1,,,,,,,,
,,,,,,,,,,,,,FF,,,,,,,,1.552,,,,,,,,,,,,,,,,,,,,,,6102aa9a20e54b54f0a32c41,61036ea51e0579e042958643,2021-07-30_04h16.53.887,Simcolourproject_2stim_asymm_v5,2020.2.10,Win32,60,61025ae37ef11b136ea224fe,,,,,,,,,3613,41,-92,1,0,0,response3disk,,4,12,12,1,0,0,rectangle,12,12,1,0,0,12,12,1,0,0,0,20,20,37,1,,,,,,,,
,,,,,,,,,,,,,FF,,,,,,,,1.3142,,,,,,,,,,,,,,,,,,,,,,6102aa9a20e54b54f0a32c41,61036ea51e0579e042958643,2021-07-30_04h16.53.887,Simcolourproject_2stim_asymm_v5,2020.2.10,Win32,60,61025ae37ef11b136ea224fe,,,,,,,,,1874,90,-57,1,0,0,response3disk,,5,-4,-8,1,0,0,rectangle,-4,-8,1,0,0,-4,-8,1,0,0,0,21,21,67,1,,,,,,,,
,,,,,,,,,,,,,FF,,,,,,,,2.2977,,,,,,,,,,,,,,,,,,,,,,6102aa9a20e54b54f0a32c41,61036ea51e0579e042958643,2021-07-30_04h16.53.887,Simcolourproject_2stim_asymm_v5,2020.2.10,Win32,60,61025ae37ef11b136ea224fe,,,,,,,,,3974,-77,-43,1,0,0,response5disk,,2,-7,-6,1,0,0,rectangle,-7,-6,1,0,0,-7,-6,1,0,0,0,22,22,78,1,,,,,,,,
,,,,,,,,,,,,,FF,,,,,,,,1.2843,,,,,,,,,,,,,,,,,,,,,,6102aa9a20e54b54f0a32c41,61036ea51e0579e042958643,2021-07-30_04h16.53.887,Simcolourproject_2stim_asymm_v5,2020.2.10,Win32,60,61025ae37ef11b136ea224fe,,,,,,,,,2075,78,-46,1,0,0,response3disk,,5,20,-4,1,0,0,rectangle,20,-4,1,0,0,20,-4,1,0,0,0,23,23,150,1,,,,,,,,
,,,,,,,,,,,,,FF,,,,,,,,1.6171,,,,,,,,,,,,,,,,,,,,,,6102aa9a20e54b54f0a32c41,61036ea51e0579e042958643,2021-07-30_04h16.53.887,Simcolourproject_2stim_asymm_v5,2020.2.10,Win32,60,61025ae37ef11b136ea224fe,,,,,,,,,3099,-61,-21,1,0,0,response5disk,,2,-6,0,1,0,0,rectangle,-6,0,1,0,0,-6,0,1,0,0,0,24,24,90,1,,,,,,,,
,,,,,,,,,,,,,FF,,,,,,,,1.8034,,,,,,,,,,,,,,,,,,,,,,6102aa9a20e54b54f0a32c41,61036ea51e0579e042958643,2021-07-30_04h16.53.887,Simcolourproject_2stim_asymm_v5,2020.2.10,Win32,60,61025ae37ef11b136ea224fe,,,,,,,,,2682,-41,-56,1,0,0,response5disk,,3,-6,-6,1,0,0,rectangle,-6,-6,1,0,0,-6,-6,1,0,0,0,25,25,16,1,,,,,,,,
,,,,,,,,,,,,,FF,,,,,,,,1.2834,,,,,,,,,,,,,,,,,,,,,,6102aa9a20e54b54f0a32c41,61036ea51e0579e042958643,2021-07-30_04h16.53.887,Simcolourproject_2stim_asymm_v5,2020.2.10,Win32,60,61025ae37ef11b136ea224fe,,,,,,,,,228,43,-81,1,0,0,response3disk,,4,-1,-1,1,0,0,rectangle,-1,-1,1,0,0,-1,-1,1,0,0,0,26,26,49,1,,,,,,,,
,,,,,,,,,,,,,FF,,,,,,,,1.5503,,,,,,,,,,,,,,,,,,,,,,6102aa9a20e54b54f0a32c41,61036ea51e0579e042958643,2021-07-30_04h16.53.887,Simcolourproject_2stim_asymm_v5,2020.2.10,Win32,60,61025ae37ef11b136ea224fe,,,,,,,,,2967,26,-69,1,0,0,response3disk,,4,1,-7,1,0,0,rectangle,1,-7,1,0,0,1,-7,1,0,0,0,27,27,5,1,,,,,,,,
,,,,,,,,,,,,,FF,,,,,,,,1.2993,,,,,,,,,,,,,,,,,,,,,,6102aa9a20e54b54f0a32c41,61036ea51e0579e042958643,2021-07-30_04h16.53.887,Simcolourproject_2stim_asymm_v5,2020.2.10,Win32,60,61025ae37ef11b136ea224fe,,,,,,,,,4120,-49,-25,1,0,0,response5disk,,2,-3,-3,1,0,0,rectangle,-3,-3,1,0,0,-3,-3,1,0,0,0,28,28,74,1,,,,,,,,
,,,,,,,,,,,,,FF,,,,,,,,1.884,,,,,,,,,,,,,,,,,,,,,,6102aa9a20e54b54f0a32c41,61036ea51e0579e042958643,2021-07-30_04h16.53.887,Simcolourproject_2stim_asymm_v5,2020.2.10,Win32,60,61025ae37ef11b136ea224fe,,,,,,,,,300,65,-89,1,0,0,response3disk,,4,9,2,1,0,0,rectangle,9,2,1,0,0,9,2,1,0,0,0,29,29,122,1,,,,,,,,
,,,,,,,,,,,,,FF,,,,,,,,1.4353,,,,,,,,,,,,,,,,,,,,,,6102aa9a20e54b54f0a32c41,61036ea51e0579e042958643,2021-07-30_04h16.53.887,Simcolourproject_2stim_asymm_v5,2020.2.10,Win32,60,61025ae37ef11b136ea224fe,,,,,,,,,3034,80,-45,1,0,0,response3disk,,5,-8,6,1,0,0,rectangle,-8,6,1,0,0,-8,6,1,0,0,0,30,30,153,1,,,,,,,,
,,,,,,,,,,,,,FF,,,,,,,,1.117,,,,,,,,,,,,,,,,,,,,,,6102aa9a20e54b54f0a32c41,61036ea51e0579e042958643,2021-07-30_04h16.53.887,Simcolourproject_2stim_asymm_v5,2020.2.10,Win32,60,61025ae37ef11b136ea224fe,,,,,,,,,326,-39,-51,1,0,0,response5disk,,3,14,-9,1,0,0,rectangle,14,-9,1,0,0,14,-9,1,0,0,0,31,31,79,1,,,,,,,,
,,,,,,,,,,,,,FF,,,,,,,,1.4837,,,,,,,,,,,,,,,,,,,,,,6102aa9a20e54b54f0a32c41,61036ea51e0579e042958643,2021-07-30_04h16.53.887,Simcolourproject_2stim_asymm_v5,2020.2.10,Win32,60,61025ae37ef11b136ea224fe,,,,,,,,,154,-24,-74,1,0,0,response5disk,,3,7,-7,1,0,0,rectangle,7,-7,1,0,0,7,-7,1,0,0,0,32,32,35,1,,,,,,,,
,,,,,,,,,,,,,FF,,,,,,,,1.5035,,,,,,,,,,,,,,,,,,,,,,6102aa9a20e54b54f0a32c41,61036ea51e0579e042958643,2021-07-30_04h16.53.887,Simcolourproject_2stim_asymm_v5,2020.2.10,Win32,60,61025ae37ef11b136ea224fe,,,,,,,,,2702,-74,-25,1,0,0,response5disk,,2,-15,3,1,0,0,rectangle,-15,3,1,0,0,-15,3,1,0,0,0,33,33,72,1,,,,,,,,
,,,,,,,,,,,,,FF,,,,,,,,1.6012,,,,,,,,,,,,,,,,,,,,,,6102aa9a20e54b54f0a32c41,61036ea51e0579e042958643,2021-07-30_04h16.53.887,Simcolourproject_2stim_asymm_v5,2020.2.10,Win32,60,61025ae37ef11b136ea224fe,,,,,,,,,3220,-42,-72,1,0,0,response5disk,,3,-9,0,1,0,0,rectangle,-9,0,1,0,0,-9,0,1,0,0,0,34,34,40,1,,,,,,,,
,,,,,,,,,,,,,FF,,,,,,,,1.4353,,,,,,,,,,,,,,,,,,,,,,6102aa9a20e54b54f0a32c41,61036ea51e0579e042958643,2021-07-30_04h16.53.887,Simcolourproject_2stim_asymm_v5,2020.2.10,Win32,60,61025ae37ef11b136ea224fe,,,,,,,,,1295,-56,-69,1,0,0,response5disk,,3,-2,-1,1,0,0,rectangle,-2,-1,1,0,0,-2,-1,1,0,0,0,35,35,4,1,,,,,,,,
,,,,,,,,,,,,,FF,,,,,,,,2.4496,,,,,,,,,,,,,,,,,,,,,,6102aa9a20e54b54f0a32c41,61036ea51e0579e042958643,2021-07-30_04h16.53.887,Simcolourproject_2stim_asymm_v5,2020.2.10,Win32,60,61025ae37ef11b136ea224fe,,,,,,,,,1123,42,-55,1,0,0,response3disk,,4,14,-2,1,0,0,rectangle,14,-2,1,0,0,14,-2,1,0,0,0,36,36,87,1,,,,,,,,
,,,,,,,,,,,,,FF,,,,,,,,1.2341,,,,,,,,,,,,,,,,,,,,,,6102aa9a20e54b54f0a32c41,61036ea51e0579e042958643,2021-07-30_04h16.53.887,Simcolourproject_2stim_asymm_v5,2020.2.10,Win32,60,61025ae37ef11b136ea224fe,,,,,,,,,1992,35,-65,1,0,0,response3disk,,4,7,-3,1,0,0,rectangle,7,-3,1,0,0,7,-3,1,0,0,0,37,37,114,1,,,,,,,,
,,,,,,,,,,,,,FF,,,,,,,,1.0342,,,,,,,,,,,,,,,,,,,,,,6102aa9a20e54b54f0a32c41,61036ea51e0579e042958643,2021-07-30_04h16.53.887,Simcolourproject_2stim_asymm_v5,2020.2.10,Win32,60,61025ae37ef11b136ea224fe,,,,,,,,,2755,-37,-72,1,0,0,response5disk,,3,-6,-11,1,0,0,rectangle,27,-75,1,0,0,-4,-6,1,0,0,0,38,38,31,1,,response3disk_3,TRUE,4,6,"[58,315,315,202,39,216,137,231,298,259,153,141,83,238,9,87,110,232,297,45]",1.8205,rectangle
,,,,,,,,,,,,,FF,,,,,,,,2.5575,,,,,,,,,,,,,,,,,,,,,,6102aa9a20e54b54f0a32c41,61036ea51e0579e042958643,2021-07-30_04h16.53.887,Simcolourproject_2stim_asymm_v5,2020.2.10,Win32,60,61025ae37ef11b136ea224fe,,,,,,,,,3201,-90,-29,1,0,0,response5disk,,2,7,5,1,0,0,rectangle,7,5,1,0,0,7,5,1,0,0,0,39,39,57,1,,,,,,,,
,,,,,,,,,,,,,FF,,,,,,,,1.1869,,,,,,,,,,,,,,,,,,,,,,6102aa9a20e54b54f0a32c41,61036ea51e0579e042958643,2021-07-30_04h16.53.887,Simcolourproject_2stim_asymm_v5,2020.2.10,Win32,60,61025ae37ef11b136ea224fe,,,,,,,,,3502,-65,-31,1,0,0,response5disk,,2,28,-6,1,0,0,rectangle,28,-6,1,0,0,28,-6,1,0,0,0,40,40,135,1,,,,,,,,
,,,,,,,,,,,,,FF,,,,,,,,1.4006,,,,,,,,,,,,,,,,,,,,,,6102aa9a20e54b54f0a32c41,61036ea51e0579e042958643,2021-07-30_04h16.53.887,Simcolourproject_2stim_asymm_v5,2020.2.10,Win32,60,61025ae37ef11b136ea224fe,,,,,,,,,887,-30,96,1,0,0,response7disk,,0,-6,-7,1,0,0,rectangle,-6,-7,1,0,0,-6,-7,1,0,0,0,41,41,47,1,,,,,,,,
,,,,,,,,,,,,,FF,,,,,,,,1.1713,,,,,,,,,,,,,,,,,,,,,,6102aa9a20e54b54f0a32c41,61036ea51e0579e042958643,2021-07-30_04h16.53.887,Simcolourproject_2stim_asymm_v5,2020.2.10,Win32,60,61025ae37ef11b136ea224fe,,,,,,,,,4212,-70,-40,1,0,0,response5disk,,2,5,3,1,0,0,rectangle,5,3,1,0,0,5,3,1,0,0,0,42,42,139,1,,,,,,,,
,,,,,,,,,,,,,FF,,,,,,,,1.334,,,,,,,,,,,,,,,,,,,,,,6102aa9a20e54b54f0a32c41,61036ea51e0579e042958643,2021-07-30_04h16.53.887,Simcolourproject_2stim_asymm_v5,2020.2.10,Win32,60,61025ae37ef11b136ea224fe,,,,,,,,,3432,-49,77,1,0,0,response7disk,,0,-18,7,1,0,0,rectangle,-18,7,1,0,0,-18,7,1,0,0,0,43,43,101,1,,,,,,,,
,,,,,,,,,,,,,FF,,,,,,,,1.8344,,,,,,,,,,,,,,,,,,,,,,6102aa9a20e54b54f0a32c41,61036ea51e0579e042958643,2021-07-30_04h16.53.887,Simcolourproject_2stim_asymm_v5,2020.2.10,Win32,60,61025ae37ef11b136ea224fe,,,,,,,,,4217,18,-67,1,0,0,response3disk,,4,-4,0,1,0,0,rectangle,-46,-49,1,0,0,14,0,1,0,0,0,44,44,118,1,,response5disk_3,TRUE,3,3,"[58,315,315,202,39,216,137,231,298,259,153,141,83,238,9,87,110,232,297,45]",3.5005,rectangle
,,,,,,,,,,,,,FF,,,,,,,,1.9339,,,,,,,,,,,,,,,,,,,,,,6102aa9a20e54b54f0a32c41,61036ea51e0579e042958643,2021-07-30_04h16.53.887,Simcolourproject_2stim_asymm_v5,2020.2.10,Win32,60,61025ae37ef11b136ea224fe,,,,,,,,,424,35,-92,1,0,0,response3disk,,4,9,-8,1,0,0,rectangle,9,-8,1,0,0,9,-8,1,0,0,0,45,45,126,1,,,,,,,,
,,,,,,,,,,,,,FF,,,,,,,,1.4549,,,,,,,,,,,,,,,,,,,,,,6102aa9a20e54b54f0a32c41,61036ea51e0579e042958643,2021-07-30_04h16.53.887,Simcolourproject_2stim_asymm_v5,2020.2.10,Win32,60,61025ae37ef11b136ea224fe,,,,,,,,,3240,-49,-89,1,0,0,response5disk,,3,5,4,1,0,0,rectangle,5,4,1,0,0,5,4,1,0,0,0,46,46,62,1,,,,,,,,
,,,,,,,,,,,,,FF,,,,,,,,1.356,,,,,,,,,,,,,,,,,,,,,,6102aa9a20e54b54f0a32c41,61036ea51e0579e042958643,2021-07-30_04h16.53.887,Simcolourproject_2stim_asymm_v5,2020.2.10,Win32,60,61025ae37ef11b136ea224fe,,,,,,,,,4249,-32,-64,1,0,0,response5disk,,3,13,11,1,0,0,rectangle,13,11,1,0,0,13,11,1,0,0,0,47,47,73,1,,,,,,,,
,,,,,,,,,,,,,FF,,,,,,,,1.0182,,,,,,,,,,,,,,,,,,,,,,6102aa9a20e54b54f0a32c41,61036ea51e0579e042958643,2021-07-30_04h16.53.887,Simcolourproject_2stim_asymm_v5,2020.2.10,Win32,60,61025ae37ef11b136ea224fe,,,,,,,,,3407,35,-67,1,0,0,response3disk,,4,9,-7,1,0,0,rectangle,9,-7,1,0,0,9,-7,1,0,0,0,48,48,92,1,,,,,,,,
,,,,,,,,,,,,,FF,,,,,,,,1.15,,,,,,,,,,,,,,,,,,,,,,6102aa9a20e54b54f0a32c41,61036ea51e0579e042958643,2021-07-30_04h16.53.887,Simcolourproject_2stim_asymm_v5,2020.2.10,Win32,60,61025ae37ef11b136ea224fe,,,,,,,,,249,-37,-69,1,0,0,response5disk,,3,-3,-1,1,0,0,rectangle,-3,-1,1,0,0,-3,-1,1,0,0,0,49,49,157,1,,,,,,,,
,,,,,,,,,,,,,FF,,,,,,,,1.3005,,,,,,,,,,,,,,,,,,,,,,6102aa9a20e54b54f0a32c41,61036ea51e0579e042958643,2021-07-30_04h16.53.887,Simcolourproject_2stim_asymm_v5,2020.2.10,Win32,60,61025ae37ef11b136ea224fe,,,,,,,,,2230,49,-70,1,0,0,response3disk,,4,9,1,1,0,0,rectangle,9,1,1,0,0,9,1,1,0,0,0,50,50,54,1,,,,,,,,
,,,,,,,,,,,,,FF,,,,,,,,1.1561,,,,,,,,,,,,,,,,,,,,,,6102aa9a20e54b54f0a32c41,61036ea51e0579e042958643,2021-07-30_04h16.53.887,Simcolourproject_2stim_asymm_v5,2020.2.10,Win32,60,61025ae37ef11b136ea224fe,,,,,,,,,2526,37,-55,1,0,0,response3disk,,4,9,-3,1,0,0,rectangle,9,-3,1,0,0,9,-3,1,0,0,0,51,51,95,1,,,,,,,,
,,,,,,,,,,,,,FF,,,,,,,,2.3045,,,,,,,,,,,,,,,,,,,,,,6102aa9a20e54b54f0a32c41,61036ea51e0579e042958643,2021-07-30_04h16.53.887,Simcolourproject_2stim_asymm_v5,2020.2.10,Win32,60,61025ae37ef11b136ea224fe,,,,,,,,,1240,-61,-78,1,0,0,response5disk,,3,-18,5,1,0,0,rectangle,-18,5,1,0,0,-18,5,1,0,0,0,52,52,11,1,,,,,,,,
,,,,,,,,,,,,,FF,,,,,,,,1.452,,,,,,,,,,,,,,,,,,,,,,6102aa9a20e54b54f0a32c41,61036ea51e0579e042958643,2021-07-30_04h16.53.887,Simcolourproject_2stim_asymm_v5,2020.2.10,Win32,60,61025ae37ef11b136ea224fe,,,,,,,,,2142,107,-45,1,0,0,response3disk,,5,14,-3,1,0,0,rectangle,14,-3,1,0,0,14,-3,1,0,0,0,53,53,133,1,,,,,,,,
,,,,,,,,,,,,,FF,,,,,,,,1.3697,,,,,,,,,,,,,,,,,,,,,,6102aa9a20e54b54f0a32c41,61036ea51e0579e042958643,2021-07-30_04h16.53.887,Simcolourproject_2stim_asymm_v5,2020.2.10,Win32,60,61025ae37ef11b136ea224fe,,,,,,,,,4163,-89,41,1,0,0,response7disk,,1,-10,-1,1,0,0,rectangle,-10,-1,1,0,0,-10,-1,1,0,0,0,54,54,154,1,,,,,,,,
,,,,,,,,,,,,,FF,,,,,,,,1.1534,,,,,,,,,,,,,,,,,,,,,,6102aa9a20e54b54f0a32c41,61036ea51e0579e042958643,2021-07-30_04h16.53.887,Simcolourproject_2stim_asymm_v5,2020.2.10,Win32,60,61025ae37ef11b136ea224fe,,,,,,,,,2500,-34,-83,1,0,0,response5disk,,3,-22,-2,1,0,0,rectangle,-22,-2,1,0,0,-22,-2,1,0,0,0,55,55,130,1,,,,,,,,
,,,,,,,,,,,,,FF,,,,,,,,4.3223,,,,,,,,,,,,,,,,,,,,,,6102aa9a20e54b54f0a32c41,61036ea51e0579e042958643,2021-07-30_04h16.53.887,Simcolourproject_2stim_asymm_v5,2020.2.10,Win32,60,61025ae37ef11b136ea224fe,,,,,,,,,2088,37,-80,1,0,0,response3disk,,4,5,-3,1,0,0,rectangle,5,-3,1,0,0,5,-3,1,0,0,0,56,56,152,1,,,,,,,,
,,,,,,,,,,,,,FF,,,,,,,,1.8383,,,,,,,,,,,,,,,,,,,,,,6102aa9a20e54b54f0a32c41,61036ea51e0579e042958643,2021-07-30_04h16.53.887,Simcolourproject_2stim_asymm_v5,2020.2.10,Win32,60,61025ae37ef11b136ea224fe,,,,,,,,,3271,88,-59,1,0,0,response3disk,,5,0,-1,1,0,0,rectangle,47,87,1,0,0,-3,-3,1,0,0,0,57,57,137,1,,response1disk_3,TRUE,7,7,"[58,315,315,202,39,216,137,231,298,259,153,141,83,238,9,87,110,232,297,45]",2.6865,rectangle
,,,,,,,,,,,,,FF,,,,,,,,1.8024,,,,,,,,,,,,,,,,,,,,,,6102aa9a20e54b54f0a32c41,61036ea51e0579e042958643,2021-07-30_04h16.53.887,Simcolourproject_2stim_asymm_v5,2020.2.10,Win32,60,61025ae37ef11b136ea224fe,,,,,,,,,4167,-81,-33,1,0,0,response5disk,,2,-6,-6,1,0,0,rectangle,-6,-6,1,0,0,-6,-6,1,0,0,0,58,58,27,1,,,,,,,,
,,,,,,,,,,,,,FF,,,,,,,,1.0857,,,,,,,,,,,,,,,,,,,,,,6102aa9a20e54b54f0a32c41,61036ea51e0579e042958643,2021-07-30_04h16.53.887,Simcolourproject_2stim_asymm_v5,2020.2.10,Win32,60,61025ae37ef11b136ea224fe,,,,,,,,,1653,-38,-61,1,0,0,response5disk,,3,0,-2,1,0,0,rectangle,0,-2,1,0,0,0,-2,1,0,0,0,59,59,120,1,,,,,,,,
,,,,,,,,,,,,,FF,,,,,,,,1.5047,,,,,,,,,,,,,,,,,,,,,,6102aa9a20e54b54f0a32c41,61036ea51e0579e042958643,2021-07-30_04h16.53.887,Simcolourproject_2stim_asymm_v5,2020.2.10,Win32,60,61025ae37ef11b136ea224fe,,,,,,,,,796,-39,-68,1,0,0,response5disk,,3,-6,4,1,0,0,rectangle,-6,4,1,0,0,-6,4,1,0,0,0,60,60,2,1,,,,,,,,
,,,,,,,,,,,,,FF,,,,,,,,1.5233,,,,,,,,,,,,,,,,,,,,,,6102aa9a20e54b54f0a32c41,61036ea51e0579e042958643,2021-07-30_04h16.53.887,Simcolourproject_2stim_asymm_v5,2020.2.10,Win32,60,61025ae37ef11b136ea224fe,,,,,,,,,2663,-68,-35,1,0,0,response5disk,,2,1,-1,1,0,0,rectangle,1,-1,1,0,0,1,-1,1,0,0,0,61,61,76,1,,,,,,,,
,,,,,,,,,,,,,FF,,,,,,,,1.1673,,,,,,,,,,,,,,,,,,,,,,6102aa9a20e54b54f0a32c41,61036ea51e0579e042958643,2021-07-30_04h16.53.887,Simcolourproject_2stim_asymm_v5,2020.2.10,Win32,60,61025ae37ef11b136ea224fe,,,,,,,,,3457,50,-68,1,0,0,response3disk,,4,6,-4,1,0,0,rectangle,6,-4,1,0,0,6,-4,1,0,0,0,62,62,8,1,,,,,,,,
,,,,,,,,,,,,,FF,,,,,,,,3.0004,,,,,,,,,,,,,,,,,,,,,,6102aa9a20e54b54f0a32c41,61036ea51e0579e042958643,2021-07-30_04h16.53.887,Simcolourproject_2stim_asymm_v5,2020.2.10,Win32,60,61025ae37ef11b136ea224fe,,,,,,,,,732,-46,-67,1,0,0,response5disk,,3,4,5,1,0,0,rectangle,4,5,1,0,0,4,5,1,0,0,0,63,63,68,1,,,,,,,,
,,,,,,,,,,,,,FF,,,,,,,,3.3868,,,,,,,,,,,,,,,,,,,,,,6102aa9a20e54b54f0a32c41,61036ea51e0579e042958643,2021-07-30_04h16.53.887,Simcolourproject_2stim_asymm_v5,2020.2.10,Win32,60,61025ae37ef11b136ea224fe,,,,,,,,,1431,51,-68,1,0,0,response3disk,,4,9,-4,1,0,0,rectangle,9,-4,1,0,0,9,-4,1,0,0,0,64,64,111,1,,,,,,,,
,,,,,,,,,,,,,FF,,,,,,,,2.1563,,,,,,,,,,,,,,,,,,,,,,6102aa9a20e54b54f0a32c41,61036ea51e0579e042958643,2021-07-30_04h16.53.887,Simcolourproject_2stim_asymm_v5,2020.2.10,Win32,60,61025ae37ef11b136ea224fe,,,,,,,,,3512,-91,68,1,0,0,response7disk,,1,6,5,1,0,0,rectangle,6,5,1,0,0,6,5,1,0,0,0,65,65,46,1,,,,,,,,
,,,,,,,,,,,,,FF,,,,,,,,1.4231,,,,,,,,,,,,,,,,,,,,,,6102aa9a20e54b54f0a32c41,61036ea51e0579e042958643,2021-07-30_04h16.53.887,Simcolourproject_2stim_asymm_v5,2020.2.10,Win32,60,61025ae37ef11b136ea224fe,,,,,,,,,633,-48,30,1,0,0,response7disk,,1,-8,-3,1,0,0,rectangle,-8,-3,1,0,0,-8,-3,1,0,0,0,66,66,34,1,,,,,,,,
,,,,,,,,,,,,,FF,,,,,,,,3.0377,,,,,,,,,,,,,,,,,,,,,,6102aa9a20e54b54f0a32c41,61036ea51e0579e042958643,2021-07-30_04h16.53.887,Simcolourproject_2stim_asymm_v5,2020.2.10,Win32,60,61025ae37ef11b136ea224fe,,,,,,,,,234,-25,-59,1,0,0,response5disk,,3,-10,2,1,0,0,rectangle,-10,2,1,0,0,-10,2,1,0,0,0,67,67,69,1,,,,,,,,
,,,,,,,,,,,,,FF,,,,,,,,1.037,,,,,,,,,,,,,,,,,,,,,,6102aa9a20e54b54f0a32c41,61036ea51e0579e042958643,2021-07-30_04h16.53.887,Simcolourproject_2stim_asymm_v5,2020.2.10,Win32,60,61025ae37ef11b136ea224fe,,,,,,,,,1617,-53,-34,1,0,0,response5disk,,2,5,4,1,0,0,rectangle,5,4,1,0,0,5,4,1,0,0,0,68,68,136,1,,,,,,,,
,,,,,,,,,,,,,FF,,,,,,,,1.2204,,,,,,,,,,,,,,,,,,,,,,6102aa9a20e54b54f0a32c41,61036ea51e0579e042958643,2021-07-30_04h16.53.887,Simcolourproject_2stim_asymm_v5,2020.2.10,Win32,60,61025ae37ef11b136ea224fe,,,,,,,,,3027,48,-81,1,0,0,response3disk,,4,17,0,1,0,0,rectangle,17,0,1,0,0,17,0,1,0,0,0,69,69,77,1,,,,,,,,
,,,,,,,,,,,,,FF,,,,,,,,1.1844,,,,,,,,,,,,,,,,,,,,,,6102aa9a20e54b54f0a32c41,61036ea51e0579e042958643,2021-07-30_04h16.53.887,Simcolourproject_2stim_asymm_v5,2020.2.10,Win32,60,61025ae37ef11b136ea224fe,,,,,,,,,1153,26,-62,1,0,0,response3disk,,4,9,7,1,0,0,rectangle,9,7,1,0,0,9,7,1,0,0,0,70,70,22,1,,,,,,,,
,,,,,,,,,,,,,FF,,,,,,,,1.7512,,,,,,,,,,,,,,,,,,,,,,6102aa9a20e54b54f0a32c41,61036ea51e0579e042958643,2021-07-30_04h16.53.887,Simcolourproject_2stim_asymm_v5,2020.2.10,Win32,60,61025ae37ef11b136ea224fe,,,,,,,,,1773,40,-71,1,0,0,response3disk,,4,20,-2,1,0,0,rectangle,20,-2,1,0,0,20,-2,1,0,0,0,71,71,89,1,,,,,,,,
,,,,,,,,,,,,,FF,,,,,,,,1.4174,,,,,,,,,,,,,,,,,,,,,,6102aa9a20e54b54f0a32c41,61036ea51e0579e042958643,2021-07-30_04h16.53.887,Simcolourproject_2stim_asymm_v5,2020.2.10,Win32,60,61025ae37ef11b136ea224fe,,,,,,,,,2704,-65,-44,1,0,0,response5disk,,2,-5,-2,1,0,0,rectangle,-5,-2,1,0,0,-5,-2,1,0,0,0,72,72,103,1,,,,,,,,
,,,,,,,,,,,,,FF,,,,,,,,1.0645,,,,,,,,,,,,,,,,,,,,,,6102aa9a20e54b54f0a32c41,61036ea51e0579e042958643,2021-07-30_04h16.53.887,Simcolourproject_2stim_asymm_v5,2020.2.10,Win32,60,61025ae37ef11b136ea224fe,,,,,,,,,2536,58,53,1,0,0,response1disk,,6,-1,-3,1,0,0,rectangle,-1,-3,1,0,0,-1,-3,1,0,0,0,73,73,88,1,,,,,,,,
,,,,,,,,,,,,,FF,,,,,,,,1.4507,,,,,,,,,,,,,,,,,,,,,,6102aa9a20e54b54f0a32c41,61036ea51e0579e042958643,2021-07-30_04h16.53.887,Simcolourproject_2stim_asymm_v5,2020.2.10,Win32,60,61025ae37ef11b136ea224fe,,,,,,,,,3153,-79,44,1,0,0,response7disk,,1,-8,6,1,0,0,rectangle,-8,6,1,0,0,-8,6,1,0,0,0,74,74,23,1,,,,,,,,
,,,,,,,,,,,,,FF,,,,,,,,1.4182,,,,,,,,,,,,,,,,,,,,,,6102aa9a20e54b54f0a32c41,61036ea51e0579e042958643,2021-07-30_04h16.53.887,Simcolourproject_2stim_asymm_v5,2020.2.10,Win32,60,61025ae37ef11b136ea224fe,,,,,,,,,2331,-16,-59,1,0,0,response5disk,,3,5,5,1,0,0,rectangle,5,5,1,0,0,5,5,1,0,0,0,75,75,127,1,,,,,,,,
,,,,,,,,,,,,,FF,,,,,,,,1.2397,,,,,,,,,,,,,,,,,,,,,,6102aa9a20e54b54f0a32c41,61036ea51e0579e042958643,2021-07-30_04h16.53.887,Simcolourproject_2stim_asymm_v5,2020.2.10,Win32,60,61025ae37ef11b136ea224fe,,,,,,,,,3846,-64,50,1,0,0,response7disk,,1,-21,7,1,0,0,rectangle,-21,7,1,0,0,-21,7,1,0,0,0,76,76,99,1,,,,,,,,
,,,,,,,,,,,,,FF,,,,,,,,1.1233,,,,,,,,,,,,,,,,,,,,,,6102aa9a20e54b54f0a32c41,61036ea51e0579e042958643,2021-07-30_04h16.53.887,Simcolourproject_2stim_asymm_v5,2020.2.10,Win32,60,61025ae37ef11b136ea224fe,,,,,,,,,1183,-63,-94,1,0,0,response5disk,,3,7,4,1,0,0,rectangle,7,4,1,0,0,7,4,1,0,0,0,77,77,115,1,,,,,,,,
,,,,,,,,,,,,,FF,,,,,,,,1.1679,,,,,,,,,,,,,,,,,,,,,,6102aa9a20e54b54f0a32c41,61036ea51e0579e042958643,2021-07-30_04h16.53.887,Simcolourproject_2stim_asymm_v5,2020.2.10,Win32,60,61025ae37ef11b136ea224fe,,,,,,,,,2024,53,-81,1,0,0,response3disk,,4,4,4,1,0,0,rectangle,4,4,1,0,0,4,4,1,0,0,0,78,78,59,1,,,,,,,,
,,,,,,,,,,,,,FF,,,,,,,,3.2003,,,,,,,,,,,,,,,,,,,,,,6102aa9a20e54b54f0a32c41,61036ea51e0579e042958643,2021-07-30_04h16.53.887,Simcolourproject_2stim_asymm_v5,2020.2.10,Win32,60,61025ae37ef11b136ea224fe,,,,,,,,,3182,92,-57,1,0,0,response3disk,,5,5,9,1,0,0,rectangle,5,9,1,0,0,5,9,1,0,0,0,79,79,91,1,,,,,,,,
,,,,,,,,,,,,,FF,,,,,,,,1.252,,,,,,,,,,,,,,,,,,,,,,6102aa9a20e54b54f0a32c41,61036ea51e0579e042958643,2021-07-30_04h16.53.887,Simcolourproject_2stim_asymm_v5,2020.2.10,Win32,60,61025ae37ef11b136ea224fe,,,,,,,,,2624,51,18,1,0,0,response1disk,,6,27,15,1,0,0,rectangle,27,15,1,0,0,27,15,1,0,0,0,80,80,29,1,,,,,,,,
,,,,,,,,,,,,,FF,,,,,,,,1.237,,,,,,,,,,,,,,,,,,,,,,6102aa9a20e54b54f0a32c41,61036ea51e0579e042958643,2021-07-30_04h16.53.887,Simcolourproject_2stim_asymm_v5,2020.2.10,Win32,60,61025ae37ef11b136ea224fe,,,,,,,,,2126,61,28,1,0,0,response1disk,,6,6,4,1,0,0,rectangle,6,4,1,0,0,6,4,1,0,0,0,81,81,44,1,,,,,,,,
,,,,,,,,,,,,,FF,,,,,,,,1.619,,,,,,,,,,,,,,,,,,,,,,6102aa9a20e54b54f0a32c41,61036ea51e0579e042958643,2021-07-30_04h16.53.887,Simcolourproject_2stim_asymm_v5,2020.2.10,Win32,60,61025ae37ef11b136ea224fe,,,,,,,,,3893,31,-41,1,0,0,response3disk,,4,24,2,1,0,0,rectangle,-35,104,1,0,0,-11,-9,1,0,0,0,82,82,52,1,,response7disk_3,TRUE,0,0,"[58,315,315,202,39,216,137,231,298,259,153,141,83,238,9,87,110,232,297,45]",2.6536,rectangle
,,,,,,,,,,,,,FF,,,,,,,,1.5336,,,,,,,,,,,,,,,,,,,,,,6102aa9a20e54b54f0a32c41,61036ea51e0579e042958643,2021-07-30_04h16.53.887,Simcolourproject_2stim_asymm_v5,2020.2.10,Win32,60,61025ae37ef11b136ea224fe,,,,,,,,,982,-60,-43,1,0,0,response5disk,,2,-8,-4,1,0,0,rectangle,-8,-4,1,0,0,-8,-4,1,0,0,0,83,83,83,1,,,,,,,,
,,,,,,,,,,,,,FF,,,,,,,,2.8009,,,,,,,,,,,,,,,,,,,,,,6102aa9a20e54b54f0a32c41,61036ea51e0579e042958643,2021-07-30_04h16.53.887,Simcolourproject_2stim_asymm_v5,2020.2.10,Win32,60,61025ae37ef11b136ea224fe,,,,,,,,,970,-72,21,1,0,0,response7disk,,1,-1,-8,1,0,0,rectangle,-1,-8,1,0,0,-1,-8,1,0,0,0,84,84,80,1,,,,,,,,
,,,,,,,,,,,,,FF,,,,,,,,1.6896,,,,,,,,,,,,,,,,,,,,,,6102aa9a20e54b54f0a32c41,61036ea51e0579e042958643,2021-07-30_04h16.53.887,Simcolourproject_2stim_asymm_v5,2020.2.10,Win32,60,61025ae37ef11b136ea224fe,,,,,,,,,2900,-54,-66,1,0,0,response5disk,,3,12,14,1,0,0,rectangle,12,14,1,0,0,12,14,1,0,0,0,85,85,53,1,,,,,,,,
,,,,,,,,,,,,,FF,,,,,,,,3.6514,,,,,,,,,,,,,,,,,,,,,,6102aa9a20e54b54f0a32c41,61036ea51e0579e042958643,2021-07-30_04h16.53.887,Simcolourproject_2stim_asymm_v5,2020.2.10,Win32,60,61025ae37ef11b136ea224fe,,,,,,,,,4213,83,-46,1,0,0,response3disk,,5,10,-3,1,0,0,rectangle,83,-93,1,0,0,3,11,1,0,0,0,86,86,124,1,,response3disk_3,TRUE,4,6,"[58,315,315,202,39,216,137,231,298,259,153,141,83,238,9,87,110,232,297,45]",2.5517,rectangle
,,,,,,,,,,,,,FF,,,,,,,,1.8874,,,,,,,,,,,,,,,,,,,,,,6102aa9a20e54b54f0a32c41,61036ea51e0579e042958643,2021-07-30_04h16.53.887,Simcolourproject_2stim_asymm_v5,2020.2.10,Win32,60,61025ae37ef11b136ea224fe,,,,,,,,,1441,-56,-100,1,0,0,response5disk,,3,-14,-7,1,0,0,rectangle,-14,-7,1,0,0,-14,-7,1,0,0,0,87,87,24,1,,,,,,,,
,,,,,,,,,,,,,FF,,,,,,,,1.2723,,,,,,,,,,,,,,,,,,,,,,6102aa9a20e54b54f0a32c41,61036ea51e0579e042958643,2021-07-30_04h16.53.887,Simcolourproject_2stim_asymm_v5,2020.2.10,Win32,60,61025ae37ef11b136ea224fe,,,,,,,,,2233,-41,86,1,0,0,response7disk,,0,8,6,1,0,0,rectangle,8,6,1,0,0,8,6,1,0,0,0,88,88,96,1,,,,,,,,
,,,,,,,,,,,,,FF,,,,,,,,1.1869,,,,,,,,,,,,,,,,,,,,,,6102aa9a20e54b54f0a32c41,61036ea51e0579e042958643,2021-07-30_04h16.53.887,Simcolourproject_2stim_asymm_v5,2020.2.10,Win32,60,61025ae37ef11b136ea224fe,,,,,,,,,688,54,-46,1,0,0,response3disk,,5,9,0,1,0,0,rectangle,9,0,1,0,0,9,0,1,0,0,0,89,89,138,1,,,,,,,,
,,,,,,,,,,,,,FF,,,,,,,,1.6233,,,,,,,,,,,,,,,,,,,,,,6102aa9a20e54b54f0a32c41,61036ea51e0579e042958643,2021-07-30_04h16.53.887,Simcolourproject_2stim_asymm_v5,2020.2.10,Win32,60,61025ae37ef11b136ea224fe,,,,,,,,,3996,-38,-54,1,0,0,response5disk,,3,1,-1,1,0,0,rectangle,1,-1,1,0,0,1,-1,1,0,0,0,90,90,149,1,,,,,,,,
,,,,,,,,,,,,,FF,,,,,,,,1.6509,,,,,,,,,,,,,,,,,,,,,,6102aa9a20e54b54f0a32c41,61036ea51e0579e042958643,2021-07-30_04h16.53.887,Simcolourproject_2stim_asymm_v5,2020.2.10,Win32,60,61025ae37ef11b136ea224fe,,,,,,,,,3665,40,-58,1,0,0,response3disk,,4,6,-3,1,0,0,rectangle,6,-3,1,0,0,6,-3,1,0,0,0,91,91,142,1,,,,,,,,
,,,,,,,,,,,,,FF,,,,,,,,1.0173,,,,,,,,,,,,,,,,,,,,,,6102aa9a20e54b54f0a32c41,61036ea51e0579e042958643,2021-07-30_04h16.53.887,Simcolourproject_2stim_asymm_v5,2020.2.10,Win32,60,61025ae37ef11b136ea224fe,,,,,,,,,406,-29,-65,1,0,0,response5disk,,3,-1,5,1,0,0,rectangle,-1,5,1,0,0,-1,5,1,0,0,0,92,92,28,1,,,,,,,,
,,,,,,,,,,,,,FF,,,,,,,,1.1571,,,,,,,,,,,,,,,,,,,,,,6102aa9a20e54b54f0a32c41,61036ea51e0579e042958643,2021-07-30_04h16.53.887,Simcolourproject_2stim_asymm_v5,2020.2.10,Win32,60,61025ae37ef11b136ea224fe,,,,,,,,,4149,-48,-24,1,0,0,response5disk,,2,-7,2,1,0,0,rectangle,-7,2,1,0,0,-7,2,1,0,0,0,93,93,25,1,,,,,,,,
,,,,,,,,,,,,,FF,,,,,,,,1.0842,,,,,,,,,,,,,,,,,,,,,,6102aa9a20e54b54f0a32c41,61036ea51e0579e042958643,2021-07-30_04h16.53.887,Simcolourproject_2stim_asymm_v5,2020.2.10,Win32,60,61025ae37ef11b136ea224fe,,,,,,,,,2847,-36,-70,1,0,0,response5disk,,3,-11,0,1,0,0,rectangle,-11,0,1,0,0,-11,0,1,0,0,0,94,94,7,1,,,,,,,,
,,,,,,,,,,,,,FF,,,,,,,,1.1232,,,,,,,,,,,,,,,,,,,,,,6102aa9a20e54b54f0a32c41,61036ea51e0579e042958643,2021-07-30_04h16.53.887,Simcolourproject_2stim_asymm_v5,2020.2.10,Win32,60,61025ae37ef11b136ea224fe,,,,,,,,,1228,-64,-38,1,0,0,response5disk,,2,-7,-5,1,0,0,rectangle,-7,-5,1,0,0,-7,-5,1,0,0,0,95,95,45,1,,,,,,,,
,,,,,,,,,,,,,FF,,,,,,,,1.3837,,,,,,,,,,,,,,,,,,,,,,6102aa9a20e54b54f0a32c41,61036ea51e0579e042958643,2021-07-30_04h16.53.887,Simcolourproject_2stim_asymm_v5,2020.2.10,Win32,60,61025ae37ef11b136ea224fe,,,,,,,,,2357,70,-81,1,0,0,response3disk,,4,4,7,1,0,0,rectangle,4,7,1,0,0,4,7,1,0,0,0,96,96,116,1,,,,,,,,
,,,,,,,,,,,,,FF,,,,,,,,2.4178,,,,,,,,,,,,,,,,,,,,,,6102aa9a20e54b54f0a32c41,61036ea51e0579e042958643,2021-07-30_04h16.53.887,Simcolourproject_2stim_asymm_v5,2020.2.10,Win32,60,61025ae37ef11b136ea224fe,,,,,,,,,38,63,-63,1,0,0,response3disk,,5,17,-12,1,0,0,rectangle,17,-12,1,0,0,17,-12,1,0,0,0,97,97,144,1,,,,,,,,
,,,,,,,,,,,,,FF,,,,,,,,1.3576,,,,,,,,,,,,,,,,,,,,,,6102aa9a20e54b54f0a32c41,61036ea51e0579e042958643,2021-07-30_04h16.53.887,Simcolourproject_2stim_asymm_v5,2020.2.10,Win32,60,61025ae37ef11b136ea224fe,,,,,,,,,4127,52,-62,1,0,0,response3disk,,4,3,-4,1,0,0,rectangle,3,-4,1,0,0,3,-4,1,0,0,0,98,98,39,1,,,,,,,,
,,,,,,,,,,,,,FF,,,,,,,,1.4335,,,,,,,,,,,,,,,,,,,,,,6102aa9a20e54b54f0a32c41,61036ea51e0579e042958643,2021-07-30_04h16.53.887,Simcolourproject_2stim_asymm_v5,2020.2.10,Win32,60,61025ae37ef11b136ea224fe,,,,,,,,,4101,-40,-56,1,0,0,response5disk,,3,-8,-7,1,0,0,rectangle,-8,-7,1,0,0,-8,-7,1,0,0,0,99,99,106,1,,,,,,,,
,,,,,,,,,,,,,FF,,,,,,,,3.405,,,,,,,,,,,,,,,,,,,,,,6102aa9a20e54b54f0a32c41,61036ea51e0579e042958643,2021-07-30_04h16.53.887,Simcolourproject_2stim_asymm_v5,2020.2.10,Win32,60,61025ae37ef11b136ea224fe,,,,,,,,,321,61,-69,1,0,0,response3disk,,4,-6,-1,1,0,0,rectangle,-6,-1,1,0,0,-6,-1,1,0,0,0,100,100,10,1,,,,,,,,
,,,,,,,,,,,,,FF,,,,,,,,1.1832,,,,,,,,,,,,,,,,,,,,,,6102aa9a20e54b54f0a32c41,61036ea51e0579e042958643,2021-07-30_04h16.53.887,Simcolourproject_2stim_asymm_v5,2020.2.10,Win32,60,61025ae37ef11b136ea224fe,,,,,,,,,2634,78,-53,1,0,0,response3disk,,5,10,-10,1,0,0,rectangle,10,-10,1,0,0,10,-10,1,0,0,0,101,101,85,1,,,,,,,,
,,,,,,,,,,,,,FF,,,,,,,,1.2735,,,,,,,,,,,,,,,,,,,,,,6102aa9a20e54b54f0a32c41,61036ea51e0579e042958643,2021-07-30_04h16.53.887,Simcolourproject_2stim_asymm_v5,2020.2.10,Win32,60,61025ae37ef11b136ea224fe,,,,,,,,,3824,-44,-80,1,0,0,response5disk,,3,-14,-10,1,0,0,rectangle,-14,-10,1,0,0,-14,-10,1,0,0,0,102,102,125,1,,,,,,,,
,,,,,,,,,,,,,FF,,,,,,,,1.1173,,,,,,,,,,,,,,,,,,,,,,6102aa9a20e54b54f0a32c41,61036ea51e0579e042958643,2021-07-30_04h16.53.887,Simcolourproject_2stim_asymm_v5,2020.2.10,Win32,60,61025ae37ef11b136ea224fe,,,,,,,,,2280,119,-58,1,0,0,response3disk,,5,9,0,1,0,0,rectangle,9,0,1,0,0,9,0,1,0,0,0,103,103,134,1,,,,,,,,
,,,,,,,,,,,,,FF,,,,,,,,1.4836,,,,,,,,,,,,,,,,,,,,,,6102aa9a20e54b54f0a32c41,61036ea51e0579e042958643,2021-07-30_04h16.53.887,Simcolourproject_2stim_asymm_v5,2020.2.10,Win32,60,61025ae37ef11b136ea224fe,,,,,,,,,4034,-66,-52,1,0,0,response5disk,,2,-10,-4,1,0,0,rectangle,-10,-4,1,0,0,-10,-4,1,0,0,0,104,104,58,1,,,,,,,,
,,,,,,,,,,,,,FF,,,,,,,,1.6233,,,,,,,,,,,,,,,,,,,,,,6102aa9a20e54b54f0a32c41,61036ea51e0579e042958643,2021-07-30_04h16.53.887,Simcolourproject_2stim_asymm_v5,2020.2.10,Win32,60,61025ae37ef11b136ea224fe,,,,,,,,,1192,-80,-59,1,0,0,response5disk,,2,3,-2,1,0,0,rectangle,3,-2,1,0,0,3,-2,1,0,0,0,105,105,140,1,,,,,,,,
,,,,,,,,,,,,,FF,,,,,,,,2.7534,,,,,,,,,,,,,,,,,,,,,,6102aa9a20e54b54f0a32c41,61036ea51e0579e042958643,2021-07-30_04h16.53.887,Simcolourproject_2stim_asymm_v5,2020.2.10,Win32,60,61025ae37ef11b136ea224fe,,,,,,,,,3750,-83,-22,1,0,0,response5disk,,2,8,4,1,0,0,rectangle,8,4,1,0,0,8,4,1,0,0,0,106,106,151,1,,,,,,,,
,,,,,,,,,,,,,FF,,,,,,,,1.4081,,,,,,,,,,,,,,,,,,,,,,6102aa9a20e54b54f0a32c41,61036ea51e0579e042958643,2021-07-30_04h16.53.887,Simcolourproject_2stim_asymm_v5,2020.2.10,Win32,60,61025ae37ef11b136ea224fe,,,,,,,,,3859,-72,-37,1,0,0,response5disk,,2,5,-9,1,0,0,rectangle,5,-9,1,0,0,5,-9,1,0,0,0,107,107,32,1,,,,,,,,
,,,,,,,,,,,,,FF,,,,,,,,1.0007,,,,,,,,,,,,,,,,,,,,,,6102aa9a20e54b54f0a32c41,61036ea51e0579e042958643,2021-07-30_04h16.53.887,Simcolourproject_2stim_asymm_v5,2020.2.10,Win32,60,61025ae37ef11b136ea224fe,,,,,,,,,3888,-41,-85,1,0,0,response5disk,,3,-12,-9,1,0,0,rectangle,-12,-9,1,0,0,-12,-9,1,0,0,0,108,108,147,1,,,,,,,,
,,,,,,,,,,,,,FF,,,,,,,,1.034,,,,,,,,,,,,,,,,,,,,,,6102aa9a20e54b54f0a32c41,61036ea51e0579e042958643,2021-07-30_04h16.53.887,Simcolourproject_2stim_asymm_v5,2020.2.10,Win32,60,61025ae37ef11b136ea224fe,,,,,,,,,925,50,-83,1,0,0,response3disk,,4,6,-6,1,0,0,rectangle,32,80,1,0,0,5,-2,1,0,0,0,109,109,38,1,,response1disk_3,TRUE,7,7,"[58,315,315,202,39,216,137,231,298,259,153,141,83,238,9,87,110,232,297,45]",2.2755,rectangle
,,,,,,,,,,,,,FF,,,,,,,,1.4184,,,,,,,,,,,,,,,,,,,,,,6102aa9a20e54b54f0a32c41,61036ea51e0579e042958643,2021-07-30_04h16.53.887,Simcolourproject_2stim_asymm_v5,2020.2.10,Win32,60,61025ae37ef11b136ea224fe,,,,,,,,,3440,-62,-35,1,0,0,response5disk,,2,1,7,1,0,0,rectangle,1,7,1,0,0,1,7,1,0,0,0,110,110,148,1,,,,,,,,
,,,,,,,,,,,,,FF,,,,,,,,1.021,,,,,,,,,,,,,,,,,,,,,,6102aa9a20e54b54f0a32c41,61036ea51e0579e042958643,2021-07-30_04h16.53.887,Simcolourproject_2stim_asymm_v5,2020.2.10,Win32,60,61025ae37ef11b136ea224fe,,,,,,,,,3561,-37,-71,1,0,0,response5disk,,3,-4,-5,1,0,0,rectangle,-4,-5,1,0,0,-4,-5,1,0,0,0,111,111,70,1,,,,,,,,
,,,,,,,,,,,,,FF,,,,,,,,2.6345,,,,,,,,,,,,,,,,,,,,,,6102aa9a20e54b54f0a32c41,61036ea51e0579e042958643,2021-07-30_04h16.53.887,Simcolourproject_2stim_asymm_v5,2020.2.10,Win32,60,61025ae37ef11b136ea224fe,,,,,,,,,3239,44,-73,1,0,0,response3disk,,4,5,4,1,0,0,rectangle,5,4,1,0,0,5,4,1,0,0,0,112,112,20,1,,,,,,,,
,,,,,,,,,,,,,FF,,,,,,,,1.4009,,,,,,,,,,,,,,,,,,,,,,6102aa9a20e54b54f0a32c41,61036ea51e0579e042958643,2021-07-30_04h16.53.887,Simcolourproject_2stim_asymm_v5,2020.2.10,Win32,60,61025ae37ef11b136ea224fe,,,,,,,,,2733,50,-73,1,0,0,response3disk,,4,12,3,1,0,0,rectangle,12,3,1,0,0,12,3,1,0,0,0,113,113,102,1,,,,,,,,
,,,,,,,,,,,,,FF,,,,,,,,1.2055,,,,,,,,,,,,,,,,,,,,,,6102aa9a20e54b54f0a32c41,61036ea51e0579e042958643,2021-07-30_04h16.53.887,Simcolourproject_2stim_asymm_v5,2020.2.10,Win32,60,61025ae37ef11b136ea224fe,,,,,,,,,3822,-75,-35,1,0,0,response5disk,,2,11,3,1,0,0,rectangle,11,3,1,0,0,11,3,1,0,0,0,114,114,17,1,,,,,,,,
,,,,,,,,,,,,,FF,,,,,,,,1.554,,,,,,,,,,,,,,,,,,,,,,6102aa9a20e54b54f0a32c41,61036ea51e0579e042958643,2021-07-30_04h16.53.887,Simcolourproject_2stim_asymm_v5,2020.2.10,Win32,60,61025ae37ef11b136ea224fe,,,,,,,,,4225,-68,46,1,0,0,response7disk,,1,-15,-8,1,0,0,rectangle,-15,-8,1,0,0,-15,-8,1,0,0,0,115,115,119,1,,,,,,,,
,,,,,,,,,,,,,FF,,,,,,,,1.0843,,,,,,,,,,,,,,,,,,,,,,6102aa9a20e54b54f0a32c41,61036ea51e0579e042958643,2021-07-30_04h16.53.887,Simcolourproject_2stim_asymm_v5,2020.2.10,Win32,60,61025ae37ef11b136ea224fe,,,,,,,,,523,-40,-42,1,0,0,response5disk,,3,-6,-8,1,0,0,rectangle,-6,-8,1,0,0,-6,-8,1,0,0,0,116,116,156,1,,,,,,,,
,,,,,,,,,,,,,FF,,,,,,,,1.0337,,,,,,,,,,,,,,,,,,,,,,6102aa9a20e54b54f0a32c41,61036ea51e0579e042958643,2021-07-30_04h16.53.887,Simcolourproject_2stim_asymm_v5,2020.2.10,Win32,60,61025ae37ef11b136ea224fe,,,,,,,,,3499,60,-78,1,0,0,response3disk,,4,16,11,1,0,0,rectangle,16,11,1,0,0,16,11,1,0,0,0,117,117,55,1,,,,,,,,
,,,,,,,,,,,,,FF,,,,,,,,1.3722,,,,,,,,,,,,,,,,,,,,,,6102aa9a20e54b54f0a32c41,61036ea51e0579e042958643,2021-07-30_04h16.53.887,Simcolourproject_2stim_asymm_v5,2020.2.10,Win32,60,61025ae37ef11b136ea224fe,,,,,,,,,2111,-21,-47,1,0,0,response5disk,,3,15,8,1,0,0,rectangle,15,8,1,0,0,15,8,1,0,0,0,118,118,36,1,,,,,,,,
,,,,,,,,,,,,,FF,,,,,,,,1.2346,,,,,,,,,,,,,,,,,,,,,,6102aa9a20e54b54f0a32c41,61036ea51e0579e042958643,2021-07-30_04h16.53.887,Simcolourproject_2stim_asymm_v5,2020.2.10,Win32,60,61025ae37ef11b136ea224fe,,,,,,,,,729,-61,-30,1,0,0,response5disk,,2,3,-3,1,0,0,rectangle,3,-3,1,0,0,3,-3,1,0,0,0,119,119,132,1,,,,,,,,
,,,,,,,,,,,,,FF,,,,,,,,1.484,,,,,,,,,,,,,,,,,,,,,,6102aa9a20e54b54f0a32c41,61036ea51e0579e042958643,2021-07-30_04h16.53.887,Simcolourproject_2stim_asymm_v5,2020.2.10,Win32,60,61025ae37ef11b136ea224fe,,,,,,,,,2542,-68,75,1,0,0,response7disk,,0,-16,-1,1,0,0,rectangle,-16,-1,1,0,0,-16,-1,1,0,0,0,120,120,84,1,,,,,,,,
,,,,,,,,,,,,,FF,,,,,,,,1.1674,,,,,,,,,,,,,,,,,,,,,,6102aa9a20e54b54f0a32c41,61036ea51e0579e042958643,2021-07-30_04h16.53.887,Simcolourproject_2stim_asymm_v5,2020.2.10,Win32,60,61025ae37ef11b136ea224fe,,,,,,,,,187,-73,31,1,0,0,response7disk,,1,-10,-14,1,0,0,rectangle,-10,-14,1,0,0,-10,-14,1,0,0,0,121,121,100,1,,,,,,,,
,,,,,,,,,,,,,FF,,,,,,,,1.1189,,,,,,,,,,,,,,,,,,,,,,6102aa9a20e54b54f0a32c41,61036ea51e0579e042958643,2021-07-30_04h16.53.887,Simcolourproject_2stim_asymm_v5,2020.2.10,Win32,60,61025ae37ef11b136ea224fe,,,,,,,,,1724,-45,-62,1,0,0,response5disk,,3,0,-8,1,0,0,rectangle,0,-8,1,0,0,0,-8,1,0,0,0,122,122,30,1,,,,,,,,
,,,,,,,,,,,,,FF,,,,,,,,1.1341,,,,,,,,,,,,,,,,,,,,,,6102aa9a20e54b54f0a32c41,61036ea51e0579e042958643,2021-07-30_04h16.53.887,Simcolourproject_2stim_asymm_v5,2020.2.10,Win32,60,61025ae37ef11b136ea224fe,,,,,,,,,3222,36,-58,1,0,0,response3disk,,4,10,-5,1,0,0,rectangle,10,-5,1,0,0,10,-5,1,0,0,0,123,123,60,1,,,,,,,,
,,,,,,,,,,,,,FF,,,,,,,,2.002,,,,,,,,,,,,,,,,,,,,,,6102aa9a20e54b54f0a32c41,61036ea51e0579e042958643,2021-07-30_04h16.53.887,Simcolourproject_2stim_asymm_v5,2020.2.10,Win32,60,61025ae37ef11b136ea224fe,,,,,,,,,3056,-41,-59,1,0,0,response5disk,,3,-7,-10,1,0,0,rectangle,-7,-10,1,0,0,-7,-10,1,0,0,0,124,124,50,1,,,,,,,,
,,,,,,,,,,,,,FF,,,,,,,,1.036,,,,,,,,,,,,,,,,,,,,,,6102aa9a20e54b54f0a32c41,61036ea51e0579e042958643,2021-07-30_04h16.53.887,Simcolourproject_2stim_asymm_v5,2020.2.10,Win32,60,61025ae37ef11b136ea224fe,,,,,,,,,945,-34,-54,1,0,0,response5disk,,3,2,1,1,0,0,rectangle,2,1,1,0,0,2,1,1,0,0,0,125,125,110,1,,,,,,,,
,,,,,,,,,,,,,FF,,,,,,,,1.2023,,,,,,,,,,,,,,,,,,,,,,6102aa9a20e54b54f0a32c41,61036ea51e0579e042958643,2021-07-30_04h16.53.887,Simcolourproject_2stim_asymm_v5,2020.2.10,Win32,60,61025ae37ef11b136ea224fe,,,,,,,,,250,-46,-27,1,0,0,response5disk,,2,-7,-14,1,0,0,rectangle,-7,-14,1,0,0,-7,-14,1,0,0,0,126,126,9,1,,,,,,,,
,,,,,,,,,,,,,FF,,,,,,,,1.2237,,,,,,,,,,,,,,,,,,,,,,6102aa9a20e54b54f0a32c41,61036ea51e0579e042958643,2021-07-30_04h16.53.887,Simcolourproject_2stim_asymm_v5,2020.2.10,Win32,60,61025ae37ef11b136ea224fe,,,,,,,,,50,-48,-35,1,0,0,response5disk,,2,0,5,1,0,0,rectangle,0,5,1,0,0,0,5,1,0,0,0,127,127,98,1,,,,,,,,
,,,,,,,,,,,,,FF,,,,,,,,1.1683,,,,,,,,,,,,,,,,,,,,,,6102aa9a20e54b54f0a32c41,61036ea51e0579e042958643,2021-07-30_04h16.53.887,Simcolourproject_2stim_asymm_v5,2020.2.10,Win32,60,61025ae37ef11b136ea224fe,,,,,,,,,3464,-37,-45,1,0,0,response5disk,,3,7,-1,1,0,0,rectangle,7,-1,1,0,0,7,-1,1,0,0,0,128,128,112,1,,,,,,,,
,,,,,,,,,,,,,FF,,,,,,,,1.2341,,,,,,,,,,,,,,,,,,,,,,6102aa9a20e54b54f0a32c41,61036ea51e0579e042958643,2021-07-30_04h16.53.887,Simcolourproject_2stim_asymm_v5,2020.2.10,Win32,60,61025ae37ef11b136ea224fe,,,,,,,,,975,-27,72,1,0,0,response7disk,,0,-1,8,1,0,0,rectangle,-1,8,1,0,0,-1,8,1,0,0,0,129,129,75,1,,,,,,,,
,,,,,,,,,,,,,FF,,,,,,,,1.3395,,,,,,,,,,,,,,,,,,,,,,6102aa9a20e54b54f0a32c41,61036ea51e0579e042958643,2021-07-30_04h16.53.887,Simcolourproject_2stim_asymm_v5,2020.2.10,Win32,60,61025ae37ef11b136ea224fe,,,,,,,,,4309,-63,25,1,0,0,response7disk,,1,-3,-4,1,0,0,rectangle,-3,-4,1,0,0,-3,-4,1,0,0,0,130,130,82,1,,,,,,,,
,,,,,,,,,,,,,FF,,,,,,,,1.0676,,,,,,,,,,,,,,,,,,,,,,6102aa9a20e54b54f0a32c41,61036ea51e0579e042958643,2021-07-30_04h16.53.887,Simcolourproject_2stim_asymm_v5,2020.2.10,Win32,60,61025ae37ef11b136ea224fe,,,,,,,,,1658,-23,-50,1,0,0,response5disk,,3,-5,6,1,0,0,rectangle,-5,6,1,0,0,-5,6,1,0,0,0,131,131,13,1,,,,,,,,
,,,,,,,,,,,,,FF,,,,,,,,1.0007,,,,,,,,,,,,,,,,,,,,,,6102aa9a20e54b54f0a32c41,61036ea51e0579e042958643,2021-07-30_04h16.53.887,Simcolourproject_2stim_asymm_v5,2020.2.10,Win32,60,61025ae37ef11b136ea224fe,,,,,,,,,1906,-25,-56,1,0,0,response5disk,,3,9,6,1,0,0,rectangle,9,6,1,0,0,9,6,1,0,0,0,132,132,131,1,,,,,,,,
,,,,,,,,,,,,,FF,,,,,,,,1.3111,,,,,,,,,,,,,,,,,,,,,,6102aa9a20e54b54f0a32c41,61036ea51e0579e042958643,2021-07-30_04h16.53.887,Simcolourproject_2stim_asymm_v5,2020.2.10,Win32,60,61025ae37ef11b136ea224fe,,,,,,,,,331,31,-58,1,0,0,response3disk,,4,20,-8,1,0,0,rectangle,20,-8,1,0,0,20,-8,1,0,0,0,133,133,71,1,,,,,,,,
,,,,,,,,,,,,,FF,,,,,,,,1.2858,,,,,,,,,,,,,,,,,,,,,,6102aa9a20e54b54f0a32c41,61036ea51e0579e042958643,2021-07-30_04h16.53.887,Simcolourproject_2stim_asymm_v5,2020.2.10,Win32,60,61025ae37ef11b136ea224fe,,,,,,,,,3960,43,-56,1,0,0,response3disk,,4,19,0,1,0,0,rectangle,19,0,1,0,0,19,0,1,0,0,0,134,134,143,1,,,,,,,,
,,,,,,,,,,,,,FF,,,,,,,,1.2518,,,,,,,,,,,,,,,,,,,,,,6102aa9a20e54b54f0a32c41,61036ea51e0579e042958643,2021-07-30_04h16.53.887,Simcolourproject_2stim_asymm_v5,2020.2.10,Win32,60,61025ae37ef11b136ea224fe,,,,,,,,,4279,-26,-49,1,0,0,response5disk,,3,-3,-12,1,0,0,rectangle,-3,-12,1,0,0,-3,-12,1,0,0,0,135,135,0,1,,,,,,,,
,,,,,,,,,,,,,FF,,,,,,,,1.4862,,,,,,,,,,,,,,,,,,,,,,6102aa9a20e54b54f0a32c41,61036ea51e0579e042958643,2021-07-30_04h16.53.887,Simcolourproject_2stim_asymm_v5,2020.2.10,Win32,60,61025ae37ef11b136ea224fe,,,,,,,,,2962,25,-77,1,0,0,response3disk,,4,14,-3,1,0,0,rectangle,116,52,1,0,0,11,-4,1,0,0,0,136,136,66,1,,response1disk_3,TRUE,6,6,"[58,315,315,202,39,216,137,231,298,259,153,141,83,238,9,87,110,232,297,45]",2.4905,rectangle
,,,,,,,,,,,,,FF,,,,,,,,3.0504,,,,,,,,,,,,,,,,,,,,,,6102aa9a20e54b54f0a32c41,61036ea51e0579e042958643,2021-07-30_04h16.53.887,Simcolourproject_2stim_asymm_v5,2020.2.10,Win32,60,61025ae37ef11b136ea224fe,,,,,,,,,4079,26,-49,1,0,0,response3disk,,4,9,3,1,0,0,rectangle,9,3,1,0,0,9,3,1,0,0,0,137,137,128,1,,,,,,,,
,,,,,,,,,,,,,FF,,,,,,,,1.1703,,,,,,,,,,,,,,,,,,,,,,6102aa9a20e54b54f0a32c41,61036ea51e0579e042958643,2021-07-30_04h16.53.887,Simcolourproject_2stim_asymm_v5,2020.2.10,Win32,60,61025ae37ef11b136ea224fe,,,,,,,,,1769,-52,-95,1,0,0,response5disk,,3,-4,2,1,0,0,rectangle,-4,2,1,0,0,-4,2,1,0,0,0,138,138,105,1,,,,,,,,
,,,,,,,,,,,,,FF,,,,,,,,2.1234,,,,,,,,,,,,,,,,,,,,,,6102aa9a20e54b54f0a32c41,61036ea51e0579e042958643,2021-07-30_04h16.53.887,Simcolourproject_2stim_asymm_v5,2020.2.10,Win32,60,61025ae37ef11b136ea224fe,,,,,,,,,4259,-46,-73,1,0,0,response5disk,,3,-11,-1,1,0,0,rectangle,-11,-1,1,0,0,-11,-1,1,0,0,0,139,139,107,1,,,,,,,,
,,,,,,,,,,,,,FF,,,,,,,,1.141,,,,,,,,,,,,,,,,,,,,,,6102aa9a20e54b54f0a32c41,61036ea51e0579e042958643,2021-07-30_04h16.53.887,Simcolourproject_2stim_asymm_v5,2020.2.10,Win32,60,61025ae37ef11b136ea224fe,,,,,,,,,3934,-79,-37,1,0,0,response5disk,,2,10,1,1,0,0,rectangle,92,35,1,0,0,14,1,1,0,0,0,140,140,15,1,,response1disk_3,TRUE,6,6,"[58,315,315,202,39,216,137,231,298,259,153,141,83,238,9,87,110,232,297,45]",2.5664,rectangle
,,,,,,,,,,,,,FF,,,,,,,,1.1007,,,,,,,,,,,,,,,,,,,,,,6102aa9a20e54b54f0a32c41,61036ea51e0579e042958643,2021-07-30_04h16.53.887,Simcolourproject_2stim_asymm_v5,2020.2.10,Win32,60,61025ae37ef11b136ea224fe,,,,,,,,,2619,45,-90,1,0,0,response3disk,,4,13,8,1,0,0,rectangle,13,8,1,0,0,13,8,1,0,0,0,141,141,158,1,,,,,,,,
,,,,,,,,,,,,,FF,,,,,,,,1.1019,,,,,,,,,,,,,,,,,,,,,,6102aa9a20e54b54f0a32c41,61036ea51e0579e042958643,2021-07-30_04h16.53.887,Simcolourproject_2stim_asymm_v5,2020.2.10,Win32,60,61025ae37ef11b136ea224fe,,,,,,,,,936,-30,-67,1,0,0,response5disk,,3,-7,-1,1,0,0,rectangle,-7,-1,1,0,0,-7,-1,1,0,0,0,142,142,109,1,,,,,,,,
,,,,,,,,,,,,,FF,,,,,,,,1.8737,,,,,,,,,,,,,,,,,,,,,,6102aa9a20e54b54f0a32c41,61036ea51e0579e042958643,2021-07-30_04h16.53.887,Simcolourproject_2stim_asymm_v5,2020.2.10,Win32,60,61025ae37ef11b136ea224fe,,,,,,,,,4353,-53,-95,1,0,0,response5disk,,3,-3,2,1,0,0,rectangle,-3,2,1,0,0,-3,2,1,0,0,0,143,143,3,1,,,,,,,,
,,,,,,,,,,,,,FF,,,,,,,,1.2008,,,,,,,,,,,,,,,,,,,,,,6102aa9a20e54b54f0a32c41,61036ea51e0579e042958643,2021-07-30_04h16.53.887,Simcolourproject_2stim_asymm_v5,2020.2.10,Win32,60,61025ae37ef11b136ea224fe,,,,,,,,,3095,-93,-50,1,0,0,response5disk,,2,2,-6,1,0,0,rectangle,2,-6,1,0,0,2,-6,1,0,0,0,144,144,81,1,,,,,,,,
,,,,,,,,,,,,,FF,,,,,,,,1.3002,,,,,,,,,,,,,,,,,,,,,,6102aa9a20e54b54f0a32c41,61036ea51e0579e042958643,2021-07-30_04h16.53.887,Simcolourproject_2stim_asymm_v5,2020.2.10,Win32,60,61025ae37ef11b136ea224fe,,,,,,,,,1576,-31,-73,1,0,0,response5disk,,3,9,2,1,0,0,rectangle,9,2,1,0,0,9,2,1,0,0,0,145,145,113,1,,,,,,,,
,,,,,,,,,,,,,FF,,,,,,,,1.1,,,,,,,,,,,,,,,,,,,,,,6102aa9a20e54b54f0a32c41,61036ea51e0579e042958643,2021-07-30_04h16.53.887,Simcolourproject_2stim_asymm_v5,2020.2.10,Win32,60,61025ae37ef11b136ea224fe,,,,,,,,,794,-75,-43,1,0,0,response5disk,,2,9,-4,1,0,0,rectangle,9,-4,1,0,0,9,-4,1,0,0,0,146,146,94,1,,,,,,,,
,,,,,,,,,,,,,FF,,,,,,,,1.3171,,,,,,,,,,,,,,,,,,,,,,6102aa9a20e54b54f0a32c41,61036ea51e0579e042958643,2021-07-30_04h16.53.887,Simcolourproject_2stim_asymm_v5,2020.2.10,Win32,60,61025ae37ef11b136ea224fe,,,,,,,,,3771,-71,-34,1,0,0,response5disk,,2,-19,4,1,0,0,rectangle,-19,4,1,0,0,-19,4,1,0,0,0,147,147,104,1,,,,,,,,
,,,,,,,,,,,,,FF,,,,,,,,1.0509,,,,,,,,,,,,,,,,,,,,,,6102aa9a20e54b54f0a32c41,61036ea51e0579e042958643,2021-07-30_04h16.53.887,Simcolourproject_2stim_asymm_v5,2020.2.10,Win32,60,61025ae37ef11b136ea224fe,,,,,,,,,1424,-38,-72,1,0,0,response5disk,,3,-4,6,1,0,0,rectangle,-4,6,1,0,0,-4,6,1,0,0,0,148,148,129,1,,,,,,,,
,,,,,,,,,,,,,FF,,,,,,,,2.717,,,,,,,,,,,,,,,,,,,,,,6102aa9a20e54b54f0a32c41,61036ea51e0579e042958643,2021-07-30_04h16.53.887,Simcolourproject_2stim_asymm_v5,2020.2.10,Win32,60,61025ae37ef11b136ea224fe,,,,,,,,,556,-80,-28,1,0,0,response5disk,,2,13,-4,1,0,0,rectangle,13,-4,1,0,0,13,-4,1,0,0,0,149,149,145,1,,,,,,,,
,,,,,,,,,,,,,FF,,,,,,,,1.472,,,,,,,,,,,,,,,,,,,,,,6102aa9a20e54b54f0a32c41,61036ea51e0579e042958643,2021-07-30_04h16.53.887,Simcolourproject_2stim_asymm_v5,2020.2.10,Win32,60,61025ae37ef11b136ea224fe,,,,,,,,,3650,55,-67,1,0,0,response3disk,,4,16,0,1,0,0,rectangle,16,0,1,0,0,16,0,1,0,0,0,150,150,97,1,,,,,,,,
,,,,,,,,,,,,,FF,,,,,,,,1.4213,,,,,,,,,,,,,,,,,,,,,,6102aa9a20e54b54f0a32c41,61036ea51e0579e042958643,2021-07-30_04h16.53.887,Simcolourproject_2stim_asymm_v5,2020.2.10,Win32,60,61025ae37ef11b136ea224fe,,,,,,,,,2715,-79,59,1,0,0,response7disk,,1,-10,8,1,0,0,rectangle,-10,8,1,0,0,-10,8,1,0,0,0,151,151,65,1,,,,,,,,
,,,,,,,,,,,,,FF,,,,,,,,0.9504,,,,,,,,,,,,,,,,,,,,,,6102aa9a20e54b54f0a32c41,61036ea51e0579e042958643,2021-07-30_04h16.53.887,Simcolourproject_2stim_asymm_v5,2020.2.10,Win32,60,61025ae37ef11b136ea224fe,,,,,,,,,2917,52,-36,1,0,0,response3disk,,5,6,-1,1,0,0,rectangle,-87,41,1,0,0,-2,-2,1,0,0,0,152,152,155,1,,response7disk_3,TRUE,1,1,"[58,315,315,202,39,216,137,231,298,259,153,141,83,238,9,87,110,232,297,45]",2.3161,rectangle
,,,,,,,,,,,,,FF,,,,,,,,2.6504,,,,,,,,,,,,,,,,,,,,,,6102aa9a20e54b54f0a32c41,61036ea51e0579e042958643,2021-07-30_04h16.53.887,Simcolourproject_2stim_asymm_v5,2020.2.10,Win32,60,61025ae37ef11b136ea224fe,,,,,,,,,1053,36,-44,1,0,0,response3disk,,4,1,14,1,0,0,rectangle,1,14,1,0,0,1,14,1,0,0,0,153,153,43,1,,,,,,,,
,,,,,,,,,,,,,FF,,,,,,,,1.1338,,,,,,,,,,,,,,,,,,,,,,6102aa9a20e54b54f0a32c41,61036ea51e0579e042958643,2021-07-30_04h16.53.887,Simcolourproject_2stim_asymm_v5,2020.2.10,Win32,60,61025ae37ef11b136ea224fe,,,,,,,,,3545,-52,-75,1,0,0,response5disk,,3,-12,9,1,0,0,rectangle,-12,9,1,0,0,-12,9,1,0,0,0,154,154,121,1,,,,,,,,
,,,,,,,,,,,,,FF,,,,,,,,1.1174,,,,,,,,,,,,,,,,,,,,,,6102aa9a20e54b54f0a32c41,61036ea51e0579e042958643,2021-07-30_04h16.53.887,Simcolourproject_2stim_asymm_v5,2020.2.10,Win32,60,61025ae37ef11b136ea224fe,,,,,,,,,208,-42,-69,1,0,0,response5disk,,3,-6,0,1,0,0,rectangle,-6,0,1,0,0,-6,0,1,0,0,0,155,155,19,1,,,,,,,,
,,,,,,,,,,,,,FF,,,,,,,,2.9391,,,,,,,,,,,,,,,,,,,,,,6102aa9a20e54b54f0a32c41,61036ea51e0579e042958643,2021-07-30_04h16.53.887,Simcolourproject_2stim_asymm_v5,2020.2.10,Win32,60,61025ae37ef11b136ea224fe,,,,,,,,,4182,-25,-50,1,0,0,response5disk,,3,-4,-6,1,0,0,rectangle,-4,-6,1,0,0,-4,-6,1,0,0,0,156,156,141,1,,,,,,,,
,,,,,,,,,,,,,FF,,,,,,,,1.2174,,,,,,,,,,,,,,,,,,,,,,6102aa9a20e54b54f0a32c41,61036ea51e0579e042958643,2021-07-30_04h16.53.887,Simcolourproject_2stim_asymm_v5,2020.2.10,Win32,60,61025ae37ef11b136ea224fe,,,,,,,,,3840,-81,-53,1,0,0,response5disk,,2,9,-2,1,0,0,rectangle,9,-2,1,0,0,9,-2,1,0,0,0,157,157,12,1,,,,,,,,
,,,,,,,,,,,,,FF,,,,,,,,1.1504,,,,,,,,,,,,,,,,,,,,,,6102aa9a20e54b54f0a32c41,61036ea51e0579e042958643,2021-07-30_04h16.53.887,Simcolourproject_2stim_asymm_v5,2020.2.10,Win32,60,61025ae37ef11b136ea224fe,,,,,,,,,1332,64,-42,1,0,0,response3disk,,5,-6,8,1,0,0,rectangle,-6,8,1,0,0,-6,8,1,0,0,0,158,158,14,1,,,,,,,,
,,,,,,,,,,,,,FF,,,,,,,,1.5537,,,,,,,,,,,,,,,,,,,,,,6102aa9a20e54b54f0a32c41,61036ea51e0579e042958643,2021-07-30_04h16.53.887,Simcolourproject_2stim_asymm_v5,2020.2.10,Win32,60,61025ae37ef11b136ea224fe,,,,,,,,,3557,-68,-34,1,0,0,response5disk,,2,-18,6,1,0,0,rectangle,-18,6,1,0,0,-18,6,1,0,0,0,159,159,21,1,,,,,,,,
,,,,,,,,,,,,,FF,,,,,,,,1.4173,,,,,,,,,,,,,,,,,,,,,,6102aa9a20e54b54f0a32c41,61036ea51e0579e042958643,2021-07-30_04h16.53.887,Simcolourproject_2stim_asymm_v5,2020.2.10,Win32,60,61025ae37ef11b136ea224fe,,,,,,,,,3565,-45,-57,1,0,0,response5disk,,3,-3,-5,1,0,0,rectangle,-3,-5,1,0,0,-3,-5,1,0,0,1,0,160,147,1,,,,,,,,
,,,,,,,,,,,,,FF,,,,,,,,1.9194,,,,,,,,,,,,,,,,,,,,,,6102aa9a20e54b54f0a32c41,61036ea51e0579e042958643,2021-07-30_04h16.53.887,Simcolourproject_2stim_asymm_v5,2020.2.10,Win32,60,61025ae37ef11b136ea224fe,,,,,,,,,396,28,-65,1,0,0,response3disk,,4,15,-2,1,0,0,rectangle,15,-2,1,0,0,15,-2,1,0,0,1,1,161,130,1,,,,,,,,
,,,,,,,,,,,,,FF,,,,,,,,1.1839,,,,,,,,,,,,,,,,,,,,,,6102aa9a20e54b54f0a32c41,61036ea51e0579e042958643,2021-07-30_04h16.53.887,Simcolourproject_2stim_asymm_v5,2020.2.10,Win32,60,61025ae37ef11b136ea224fe,,,,,,,,,1655,43,-78,1,0,0,response3disk,,4,21,-4,1,0,0,rectangle,21,-4,1,0,0,21,-4,1,0,0,1,2,162,68,1,,,,,,,,
,,,,,,,,,,,,,FF,,,,,,,,1.1006,,,,,,,,,,,,,,,,,,,,,,6102aa9a20e54b54f0a32c41,61036ea51e0579e042958643,2021-07-30_04h16.53.887,Simcolourproject_2stim_asymm_v5,2020.2.10,Win32,60,61025ae37ef11b136ea224fe,,,,,,,,,1765,-47,-86,1,0,0,response5disk,,3,16,9,1,0,0,rectangle,16,9,1,0,0,16,9,1,0,0,1,3,163,91,1,,,,,,,,
,,,,,,,,,,,,,FF,,,,,,,,5.2051,,,,,,,,,,,,,,,,,,,,,,6102aa9a20e54b54f0a32c41,61036ea51e0579e042958643,2021-07-30_04h16.53.887,Simcolourproject_2stim_asymm_v5,2020.2.10,Win32,60,61025ae37ef11b136ea224fe,,,,,,,,,2344,82,-45,1,0,0,response3disk,,5,16,-3,1,0,0,rectangle,16,-3,1,0,0,16,-3,1,0,0,1,4,164,14,1,,,,,,,,
,,,,,,,,,,,,,FF,,,,,,,,1.2898,,,,,,,,,,,,,,,,,,,,,,6102aa9a20e54b54f0a32c41,61036ea51e0579e042958643,2021-07-30_04h16.53.887,Simcolourproject_2stim_asymm_v5,2020.2.10,Win32,60,61025ae37ef11b136ea224fe,,,,,,,,,3935,-105,-38,1,0,0,response5disk,,2,-16,-1,1,0,0,rectangle,-16,-1,1,0,0,-16,-1,1,0,0,1,5,165,0,1,,,,,,,,
,,,,,,,,,,,,,FF,,,,,,,,1.7886,,,,,,,,,,,,,,,,,,,,,,6102aa9a20e54b54f0a32c41,61036ea51e0579e042958643,2021-07-30_04h16.53.887,Simcolourproject_2stim_asymm_v5,2020.2.10,Win32,60,61025ae37ef11b136ea224fe,,,,,,,,,1694,-24,-56,1,0,0,response5disk,,3,-9,-2,1,0,0,rectangle,-9,-2,1,0,0,-9,-2,1,0,0,1,6,166,117,1,,,,,,,,
,,,,,,,,,,,,,FF,,,,,,,,1.7573,,,,,,,,,,,,,,,,,,,,,,6102aa9a20e54b54f0a32c41,61036ea51e0579e042958643,2021-07-30_04h16.53.887,Simcolourproject_2stim_asymm_v5,2020.2.10,Win32,60,61025ae37ef11b136ea224fe,,,,,,,,,3391,-59,86,1,0,0,response7disk,,0,-3,-4,1,0,0,rectangle,-3,-4,1,0,0,-3,-4,1,0,0,1,7,167,119,1,,,,,,,,
,,,,,,,,,,,,,FF,,,,,,,,1.5211,,,,,,,,,,,,,,,,,,,,,,6102aa9a20e54b54f0a32c41,61036ea51e0579e042958643,2021-07-30_04h16.53.887,Simcolourproject_2stim_asymm_v5,2020.2.10,Win32,60,61025ae37ef11b136ea224fe,,,,,,,,,4032,-68,-32,1,0,0,response5disk,,2,-11,-9,1,0,0,rectangle,-11,-9,1,0,0,-11,-9,1,0,0,1,8,168,83,1,,,,,,,,
,,,,,,,,,,,,,FF,,,,,,,,1.9671,,,,,,,,,,,,,,,,,,,,,,6102aa9a20e54b54f0a32c41,61036ea51e0579e042958643,2021-07-30_04h16.53.887,Simcolourproject_2stim_asymm_v5,2020.2.10,Win32,60,61025ae37ef11b136ea224fe,,,,,,,,,431,-49,-79,1,0,0,response5disk,,3,-16,9,1,0,0,rectangle,-16,9,1,0,0,-16,9,1,0,0,1,9,169,17,1,,,,,,,,
,,,,,,,,,,,,,FF,,,,,,,,1.1665,,,,,,,,,,,,,,,,,,,,,,6102aa9a20e54b54f0a32c41,61036ea51e0579e042958643,2021-07-30_04h16.53.887,Simcolourproject_2stim_asymm_v5,2020.2.10,Win32,60,61025ae37ef11b136ea224fe,,,,,,,,,2780,-60,23,1,0,0,response7disk,,1,-12,-15,1,0,0,rectangle,-12,-15,1,0,0,-12,-15,1,0,0,1,10,170,10,1,,,,,,,,
,,,,,,,,,,,,,FF,,,,,,,,4.8185,,,,,,,,,,,,,,,,,,,,,,6102aa9a20e54b54f0a32c41,61036ea51e0579e042958643,2021-07-30_04h16.53.887,Simcolourproject_2stim_asymm_v5,2020.2.10,Win32,60,61025ae37ef11b136ea224fe,,,,,,,,,3369,70,-72,1,0,0,response3disk,,4,5,13,1,0,0,rectangle,5,13,1,0,0,5,13,1,0,0,1,11,171,30,1,,,,,,,,
,,,,,,,,,,,,,FF,,,,,,,,1.3008,,,,,,,,,,,,,,,,,,,,,,6102aa9a20e54b54f0a32c41,61036ea51e0579e042958643,2021-07-30_04h16.53.887,Simcolourproject_2stim_asymm_v5,2020.2.10,Win32,60,61025ae37ef11b136ea224fe,,,,,,,,,3245,-77,67,1,0,0,response7disk,,1,2,-6,1,0,0,rectangle,2,-6,1,0,0,2,-6,1,0,0,1,12,172,67,1,,,,,,,,
,,,,,,,,,,,,,FF,,,,,,,,1.3406,,,,,,,,,,,,,,,,,,,,,,6102aa9a20e54b54f0a32c41,61036ea51e0579e042958643,2021-07-30_04h16.53.887,Simcolourproject_2stim_asymm_v5,2020.2.10,Win32,60,61025ae37ef11b136ea224fe,,,,,,,,,226,-37,-69,1,0,0,response5disk,,3,6,-4,1,0,0,rectangle,6,-4,1,0,0,6,-4,1,0,0,1,13,173,1,1,,,,,,,,
,,,,,,,,,,,,,FF,,,,,,,,2.1724,,,,,,,,,,,,,,,,,,,,,,6102aa9a20e54b54f0a32c41,61036ea51e0579e042958643,2021-07-30_04h16.53.887,Simcolourproject_2stim_asymm_v5,2020.2.10,Win32,60,61025ae37ef11b136ea224fe,,,,,,,,,4299,40,-51,1,0,0,response3disk,,4,12,0,1,0,0,rectangle,12,0,1,0,0,12,0,1,0,0,1,14,174,150,1,,,,,,,,
,,,,,,,,,,,,,FF,,,,,,,,1.2173,,,,,,,,,,,,,,,,,,,,,,6102aa9a20e54b54f0a32c41,61036ea51e0579e042958643,2021-07-30_04h16.53.887,Simcolourproject_2stim_asymm_v5,2020.2.10,Win32,60,61025ae37ef11b136ea224fe,,,,,,,,,261,-71,37,1,0,0,response7disk,,1,-5,5,1,0,0,rectangle,-5,5,1,0,0,-5,5,1,0,0,1,15,175,139,1,,,,,,,,
,,,,,,,,,,,,,FF,,,,,,,,1.8015,,,,,,,,,,,,,,,,,,,,,,6102aa9a20e54b54f0a32c41,61036ea51e0579e042958643,2021-07-30_04h16.53.887,Simcolourproject_2stim_asymm_v5,2020.2.10,Win32,60,61025ae37ef11b136ea224fe,,,,,,,,,1798,58,27,1,0,0,response1disk,,6,11,5,1,0,0,rectangle,11,5,1,0,0,11,5,1,0,0,1,16,176,44,1,,,,,,,,
,,,,,,,,,,,,,FF,,,,,,,,1.5196,,,,,,,,,,,,,,,,,,,,,,6102aa9a20e54b54f0a32c41,61036ea51e0579e042958643,2021-07-30_04h16.53.887,Simcolourproject_2stim_asymm_v5,2020.2.10,Win32,60,61025ae37ef11b136ea224fe,,,,,,,,,1207,73,-77,1,0,0,response3disk,,4,25,-2,1,0,0,rectangle,25,-2,1,0,0,25,-2,1,0,0,1,17,177,159,1,,,,,,,,
,,,,,,,,,,,,,FF,,,,,,,,1.9841,,,,,,,,,,,,,,,,,,,,,,6102aa9a20e54b54f0a32c41,61036ea51e0579e042958643,2021-07-30_04h16.53.887,Simcolourproject_2stim_asymm_v5,2020.2.10,Win32,60,61025ae37ef11b136ea224fe,,,,,,,,,2797,53,-83,1,0,0,response3disk,,4,13,8,1,0,0,rectangle,13,8,1,0,0,13,8,1,0,0,1,18,178,85,1,,,,,,,,
,,,,,,,,,,,,,FF,,,,,,,,1.7003,,,,,,,,,,,,,,,,,,,,,,6102aa9a20e54b54f0a32c41,61036ea51e0579e042958643,2021-07-30_04h16.53.887,Simcolourproject_2stim_asymm_v5,2020.2.10,Win32,60,61025ae37ef11b136ea224fe,,,,,,,,,2202,38,-65,1,0,0,response3disk,,4,10,5,1,0,0,rectangle,10,5,1,0,0,10,5,1,0,0,1,19,179,63,1,,,,,,,,
,,,,,,,,,,,,,FF,,,,,,,,1.0394,,,,,,,,,,,,,,,,,,,,,,6102aa9a20e54b54f0a32c41,61036ea51e0579e042958643,2021-07-30_04h16.53.887,Simcolourproject_2stim_asymm_v5,2020.2.10,Win32,60,61025ae37ef11b136ea224fe,,,,,,,,,3613,-22,-47,1,0,0,response5disk,,3,3,-6,1,0,0,rectangle,3,-6,1,0,0,3,-6,1,0,0,1,20,180,108,1,,,,,,,,
,,,,,,,,,,,,,FF,,,,,,,,2.8669,,,,,,,,,,,,,,,,,,,,,,6102aa9a20e54b54f0a32c41,61036ea51e0579e042958643,2021-07-30_04h16.53.887,Simcolourproject_2stim_asymm_v5,2020.2.10,Win32,60,61025ae37ef11b136ea224fe,,,,,,,,,1874,80,22,1,0,0,response1disk,,6,16,-5,1,0,0,rectangle,16,-5,1,0,0,16,-5,1,0,0,1,21,181,18,1,,,,,,,,
,,,,,,,,,,,,,FF,,,,,,,,1.1342,,,,,,,,,,,,,,,,,,,,,,6102aa9a20e54b54f0a32c41,61036ea51e0579e042958643,2021-07-30_04h16.53.887,Simcolourproject_2stim_asymm_v5,2020.2.10,Win32,60,61025ae37ef11b136ea224fe,,,,,,,,,3974,-76,48,1,0,0,response7disk,,1,-22,9,1,0,0,rectangle,-22,9,1,0,0,-22,9,1,0,0,1,22,182,101,1,,,,,,,,
,,,,,,,,,,,,,FF,,,,,,,,1.2798,,,,,,,,,,,,,,,,,,,,,,6102aa9a20e54b54f0a32c41,61036ea51e0579e042958643,2021-07-30_04h16.53.887,Simcolourproject_2stim_asymm_v5,2020.2.10,Win32,60,61025ae37ef11b136ea224fe,,,,,,,,,2075,45,-75,1,0,0,response3disk,,4,4,8,1,0,0,rectangle,4,8,1,0,0,4,8,1,0,0,1,23,183,43,1,,,,,,,,
,,,,,,,,,,,,,FF,,,,,,,,2.237,,,,,,,,,,,,,,,,,,,,,,6102aa9a20e54b54f0a32c41,61036ea51e0579e042958643,2021-07-30_04h16.53.887,Simcolourproject_2stim_asymm_v5,2020.2.10,Win32,60,61025ae37ef11b136ea224fe,,,,,,,,,3099,-59,39,1,0,0,response7disk,,1,-6,-7,1,0,0,rectangle,-6,-7,1,0,0,-6,-7,1,0,0,1,24,184,3,1,,,,,,,,
,,,,,,,,,,,,,FF,,,,,,,,0.9894,,,,,,,,,,,,,,,,,,,,,,6102aa9a20e54b54f0a32c41,61036ea51e0579e042958643,2021-07-30_04h16.53.887,Simcolourproject_2stim_asymm_v5,2020.2.10,Win32,60,61025ae37ef11b136ea224fe,,,,,,,,,2682,-32,-68,1,0,0,response5disk,,3,3,2,1,0,0,rectangle,3,2,1,0,0,3,2,1,0,0,1,25,185,53,1,,,,,,,,
,,,,,,,,,,,,,FF,,,,,,,,1.3429,,,,,,,,,,,,,,,,,,,,,,6102aa9a20e54b54f0a32c41,61036ea51e0579e042958643,2021-07-30_04h16.53.887,Simcolourproject_2stim_asymm_v5,2020.2.10,Win32,60,61025ae37ef11b136ea224fe,,,,,,,,,228,39,-66,1,0,0,response3disk,,4,7,8,1,0,0,rectangle,7,8,1,0,0,7,8,1,0,0,1,26,186,19,1,,,,,,,,
,,,,,,,,,,,,,FF,,,,,,,,1.7748,,,,,,,,,,,,,,,,,,,,,,6102aa9a20e54b54f0a32c41,61036ea51e0579e042958643,2021-07-30_04h16.53.887,Simcolourproject_2stim_asymm_v5,2020.2.10,Win32,60,61025ae37ef11b136ea224fe,,,,,,,,,2967,19,-79,1,0,0,response3disk,,4,10,3,1,0,0,rectangle,10,3,1,0,0,10,3,1,0,0,1,27,187,46,1,,,,,,,,
,,,,,,,,,,,,,FF,,,,,,,,1.3007,,,,,,,,,,,,,,,,,,,,,,6102aa9a20e54b54f0a32c41,61036ea51e0579e042958643,2021-07-30_04h16.53.887,Simcolourproject_2stim_asymm_v5,2020.2.10,Win32,60,61025ae37ef11b136ea224fe,,,,,,,,,4120,-82,58,1,0,0,response7disk,,1,9,5,1,0,0,rectangle,9,5,1,0,0,9,5,1,0,0,1,28,188,132,1,,,,,,,,
,,,,,,,,,,,,,FF,,,,,,,,3.1875,,,,,,,,,,,,,,,,,,,,,,6102aa9a20e54b54f0a32c41,61036ea51e0579e042958643,2021-07-30_04h16.53.887,Simcolourproject_2stim_asymm_v5,2020.2.10,Win32,60,61025ae37ef11b136ea224fe,,,,,,,,,300,84,-37,1,0,0,response3disk,,5,6,5,1,0,0,rectangle,6,5,1,0,0,6,5,1,0,0,1,29,189,28,1,,,,,,,,
,,,,,,,,,,,,,FF,,,,,,,,1.084,,,,,,,,,,,,,,,,,,,,,,6102aa9a20e54b54f0a32c41,61036ea51e0579e042958643,2021-07-30_04h16.53.887,Simcolourproject_2stim_asymm_v5,2020.2.10,Win32,60,61025ae37ef11b136ea224fe,,,,,,,,,3034,-64,-19,1,0,0,response5disk,,2,-11,1,1,0,0,rectangle,-11,1,1,0,0,-11,1,1,0,0,1,30,190,27,1,,,,,,,,
,,,,,,,,,,,,,FF,,,,,,,,1.1566,,,,,,,,,,,,,,,,,,,,,,6102aa9a20e54b54f0a32c41,61036ea51e0579e042958643,2021-07-30_04h16.53.887,Simcolourproject_2stim_asymm_v5,2020.2.10,Win32,60,61025ae37ef11b136ea224fe,,,,,,,,,326,-47,-72,1,0,0,response5disk,,3,-10,-2,1,0,0,rectangle,-10,-2,1,0,0,-10,-2,1,0,0,1,31,191,121,1,,,,,,,,
,,,,,,,,,,,,,FF,,,,,,,,1.1384,,,,,,,,,,,,,,,,,,,,,,6102aa9a20e54b54f0a32c41,61036ea51e0579e042958643,2021-07-30_04h16.53.887,Simcolourproject_2stim_asymm_v5,2020.2.10,Win32,60,61025ae37ef11b136ea224fe,,,,,,,,,154,49,-78,1,0,0,response3disk,,4,-1,6,1,0,0,rectangle,-1,6,1,0,0,-1,6,1,0,0,1,32,192,103,1,,,,,,,,
,,,,,,,,,,,,,FF,,,,,,,,1.0507,,,,,,,,,,,,,,,,,,,,,,6102aa9a20e54b54f0a32c41,61036ea51e0579e042958643,2021-07-30_04h16.53.887,Simcolourproject_2stim_asymm_v5,2020.2.10,Win32,60,61025ae37ef11b136ea224fe,,,,,,,,,2702,-70,40,1,0,0,response7disk,,1,2,0,1,0,0,rectangle,2,0,1,0,0,2,0,1,0,0,1,33,193,73,1,,,,,,,,
,,,,,,,,,,,,,FF,,,,,,,,1.1667,,,,,,,,,,,,,,,,,,,,,,6102aa9a20e54b54f0a32c41,61036ea51e0579e042958643,2021-07-30_04h16.53.887,Simcolourproject_2stim_asymm_v5,2020.2.10,Win32,60,61025ae37ef11b136ea224fe,,,,,,,,,3220,-77,-34,1,0,0,response5disk,,2,19,2,1,0,0,rectangle,19,2,1,0,0,19,2,1,0,0,1,34,194,56,1,,,,,,,,
,,,,,,,,,,,,,FF,,,,,,,,1.384,,,,,,,,,,,,,,,,,,,,,,6102aa9a20e54b54f0a32c41,61036ea51e0579e042958643,2021-07-30_04h16.53.887,Simcolourproject_2stim_asymm_v5,2020.2.10,Win32,60,61025ae37ef11b136ea224fe,,,,,,,,,1295,-30,-62,1,0,0,response5disk,,3,-6,-8,1,0,0,rectangle,-6,-8,1,0,0,-6,-8,1,0,0,1,35,195,37,1,,,,,,,,
,,,,,,,,,,,,,FF,,,,,,,,1.001,,,,,,,,,,,,,,,,,,,,,,6102aa9a20e54b54f0a32c41,61036ea51e0579e042958643,2021-07-30_04h16.53.887,Simcolourproject_2stim_asymm_v5,2020.2.10,Win32,60,61025ae37ef11b136ea224fe,,,,,,,,,1123,39,-62,1,0,0,response3disk,,4,8,0,1,0,0,rectangle,8,0,1,0,0,8,0,1,0,0,1,36,196,74,1,,,,,,,,
,,,,,,,,,,,,,FF,,,,,,,,1.2505,,,,,,,,,,,,,,,,,,,,,,6102aa9a20e54b54f0a32c41,61036ea51e0579e042958643,2021-07-30_04h16.53.887,Simcolourproject_2stim_asymm_v5,2020.2.10,Win32,60,61025ae37ef11b136ea224fe,,,,,,,,,1992,38,-62,1,0,0,response3disk,,4,13,-7,1,0,0,rectangle,13,-7,1,0,0,13,-7,1,0,0,1,37,197,50,1,,,,,,,,
,,,,,,,,,,,,,FF,,,,,,,,1.5004,,,,,,,,,,,,,,,,,,,,,,6102aa9a20e54b54f0a32c41,61036ea51e0579e042958643,2021-07-30_04h16.53.887,Simcolourproject_2stim_asymm_v5,2020.2.10,Win32,60,61025ae37ef11b136ea224fe,,,,,,,,,2755,70,-41,1,0,0,response3disk,,5,13,7,1,0,0,rectangle,13,7,1,0,0,13,7,1,0,0,1,38,198,98,1,,,,,,,,
,,,,,,,,,,,,,FF,,,,,,,,1.138,,,,,,,,,,,,,,,,,,,,,,6102aa9a20e54b54f0a32c41,61036ea51e0579e042958643,2021-07-30_04h16.53.887,Simcolourproject_2stim_asymm_v5,2020.2.10,Win32,60,61025ae37ef11b136ea224fe,,,,,,,,,3201,-63,20,1,0,0,response7disk,,1,3,-11,1,0,0,rectangle,3,-11,1,0,0,3,-11,1,0,0,1,39,199,35,1,,,,,,,,
,,,,,,,,,,,,,FF,,,,,,,,1.0747,,,,,,,,,,,,,,,,,,,,,,6102aa9a20e54b54f0a32c41,61036ea51e0579e042958643,2021-07-30_04h16.53.887,Simcolourproject_2stim_asymm_v5,2020.2.10,Win32,60,61025ae37ef11b136ea224fe,,,,,,,,,3502,45,-73,1,0,0,response3disk,,4,15,-10,1,0,0,rectangle,15,-10,1,0,0,15,-10,1,0,0,1,40,200,13,1,,,,,,,,
,,,,,,,,,,,,,FF,,,,,,,,2.4343,,,,,,,,,,,,,,,,,,,,,,6102aa9a20e54b54f0a32c41,61036ea51e0579e042958643,2021-07-30_04h16.53.887,Simcolourproject_2stim_asymm_v5,2020.2.10,Win32,60,61025ae37ef11b136ea224fe,,,,,,,,,887,-41,94,1,0,0,response7disk,,0,-5,9,1,0,0,rectangle,-78,-22,1,0,0,-18,2,1,0,0,1,41,201,40,1,,response5disk_3,TRUE,2,2,"[58,315,315,202,39,216,137,231,298,259,153,141,83,238,9,87,110,232,297,45]",2.9895,rectangle
,,,,,,,,,,,,,FF,,,,,,,,1.5834,,,,,,,,,,,,,,,,,,,,,,6102aa9a20e54b54f0a32c41,61036ea51e0579e042958643,2021-07-30_04h16.53.887,Simcolourproject_2stim_asymm_v5,2020.2.10,Win32,60,61025ae37ef11b136ea224fe,,,,,,,,,4212,68,-82,1,0,0,response3disk,,4,15,9,1,0,0,rectangle,15,9,1,0,0,15,9,1,0,0,1,42,202,51,1,,,,,,,,
,,,,,,,,,,,,,FF,,,,,,,,0.9893,,,,,,,,,,,,,,,,,,,,,,6102aa9a20e54b54f0a32c41,61036ea51e0579e042958643,2021-07-30_04h16.53.887,Simcolourproject_2stim_asymm_v5,2020.2.10,Win32,60,61025ae37ef11b136ea224fe,,,,,,,,,3432,-45,65,1,0,0,response7disk,,0,-11,5,1,0,0,rectangle,-11,5,1,0,0,-11,5,1,0,0,1,43,203,11,1,,,,,,,,
,,,,,,,,,,,,,FF,,,,,,,,2.6854,,,,,,,,,,,,,,,,,,,,,,6102aa9a20e54b54f0a32c41,61036ea51e0579e042958643,2021-07-30_04h16.53.887,Simcolourproject_2stim_asymm_v5,2020.2.10,Win32,60,61025ae37ef11b136ea224fe,,,,,,,,,4217,51,89,1,0,0,response1disk,,7,10,-4,1,0,0,rectangle,10,-4,1,0,0,10,-4,1,0,0,1,44,204,156,1,,,,,,,,
,,,,,,,,,,,,,FF,,,,,,,,1.367,,,,,,,,,,,,,,,,,,,,,,6102aa9a20e54b54f0a32c41,61036ea51e0579e042958643,2021-07-30_04h16.53.887,Simcolourproject_2stim_asymm_v5,2020.2.10,Win32,60,61025ae37ef11b136ea224fe,,,,,,,,,424,48,-84,1,0,0,response3disk,,4,10,-2,1,0,0,rectangle,10,-2,1,0,0,10,-2,1,0,0,1,45,205,133,1,,,,,,,,
,,,,,,,,,,,,,FF,,,,,,,,2.0715,,,,,,,,,,,,,,,,,,,,,,6102aa9a20e54b54f0a32c41,61036ea51e0579e042958643,2021-07-30_04h16.53.887,Simcolourproject_2stim_asymm_v5,2020.2.10,Win32,60,61025ae37ef11b136ea224fe,,,,,,,,,3240,85,-25,1,0,0,response3disk,,5,32,5,1,0,0,rectangle,32,5,1,0,0,32,5,1,0,0,1,46,206,113,1,,,,,,,,
,,,,,,,,,,,,,FF,,,,,,,,1.3015,,,,,,,,,,,,,,,,,,,,,,6102aa9a20e54b54f0a32c41,61036ea51e0579e042958643,2021-07-30_04h16.53.887,Simcolourproject_2stim_asymm_v5,2020.2.10,Win32,60,61025ae37ef11b136ea224fe,,,,,,,,,4249,-77,-48,1,0,0,response5disk,,2,13,-2,1,0,0,rectangle,13,-2,1,0,0,13,-2,1,0,0,1,47,207,36,1,,,,,,,,
,,,,,,,,,,,,,FF,,,,,,,,1.4005,,,,,,,,,,,,,,,,,,,,,,6102aa9a20e54b54f0a32c41,61036ea51e0579e042958643,2021-07-30_04h16.53.887,Simcolourproject_2stim_asymm_v5,2020.2.10,Win32,60,61025ae37ef11b136ea224fe,,,,,,,,,3407,75,-68,1,0,0,response3disk,,5,16,3,1,0,0,rectangle,16,3,1,0,0,16,3,1,0,0,1,48,208,125,1,,,,,,,,
,,,,,,,,,,,,,FF,,,,,,,,1.2673,,,,,,,,,,,,,,,,,,,,,,6102aa9a20e54b54f0a32c41,61036ea51e0579e042958643,2021-07-30_04h16.53.887,Simcolourproject_2stim_asymm_v5,2020.2.10,Win32,60,61025ae37ef11b136ea224fe,,,,,,,,,249,-72,-41,1,0,0,response5disk,,2,2,7,1,0,0,rectangle,2,7,1,0,0,2,7,1,0,0,1,49,209,41,1,,,,,,,,
,,,,,,,,,,,,,FF,,,,,,,,2.3346,,,,,,,,,,,,,,,,,,,,,,6102aa9a20e54b54f0a32c41,61036ea51e0579e042958643,2021-07-30_04h16.53.887,Simcolourproject_2stim_asymm_v5,2020.2.10,Win32,60,61025ae37ef11b136ea224fe,,,,,,,,,2230,-32,-88,1,0,0,response5disk,,3,-16,4,1,0,0,rectangle,-16,4,1,0,0,-16,4,1,0,0,1,50,210,70,1,,,,,,,,
,,,,,,,,,,,,,FF,,,,,,,,1.3381,,,,,,,,,,,,,,,,,,,,,,6102aa9a20e54b54f0a32c41,61036ea51e0579e042958643,2021-07-30_04h16.53.887,Simcolourproject_2stim_asymm_v5,2020.2.10,Win32,60,61025ae37ef11b136ea224fe,,,,,,,,,2526,77,-63,1,0,0,response3disk,,5,6,15,1,0,0,rectangle,6,15,1,0,0,6,15,1,0,0,1,51,211,128,1,,,,,,,,
,,,,,,,,,,,,,FF,,,,,,,,1.8729,,,,,,,,,,,,,,,,,,,,,,6102aa9a20e54b54f0a32c41,61036ea51e0579e042958643,2021-07-30_04h16.53.887,Simcolourproject_2stim_asymm_v5,2020.2.10,Win32,60,61025ae37ef11b136ea224fe,,,,,,,,,1240,-51,-22,1,0,0,response5disk,,2,6,14,1,0,0,rectangle,6,14,1,0,0,6,14,1,0,0,1,52,212,106,1,,,,,,,,
,,,,,,,,,,,,,FF,,,,,,,,2.402,,,,,,,,,,,,,,,,,,,,,,6102aa9a20e54b54f0a32c41,61036ea51e0579e042958643,2021-07-30_04h16.53.887,Simcolourproject_2stim_asymm_v5,2020.2.10,Win32,60,61025ae37ef11b136ea224fe,,,,,,,,,2142,55,33,1,0,0,response1disk,,6,14,1,1,0,0,rectangle,14,1,1,0,0,14,1,1,0,0,1,53,213,123,1,,,,,,,,
,,,,,,,,,,,,,FF,,,,,,,,1.4514,,,,,,,,,,,,,,,,,,,,,,6102aa9a20e54b54f0a32c41,61036ea51e0579e042958643,2021-07-30_04h16.53.887,Simcolourproject_2stim_asymm_v5,2020.2.10,Win32,60,61025ae37ef11b136ea224fe,,,,,,,,,4163,-46,65,1,0,0,response7disk,,0,-14,14,1,0,0,rectangle,-14,14,1,0,0,-14,14,1,0,0,1,54,214,135,1,,,,,,,,
,,,,,,,,,,,,,FF,,,,,,,,1.2875,,,,,,,,,,,,,,,,,,,,,,6102aa9a20e54b54f0a32c41,61036ea51e0579e042958643,2021-07-30_04h16.53.887,Simcolourproject_2stim_asymm_v5,2020.2.10,Win32,60,61025ae37ef11b136ea224fe,,,,,,,,,2500,27,-66,1,0,0,response3disk,,4,5,3,1,0,0,rectangle,-95,51,1,0,0,-7,5,1,0,0,1,55,215,105,1,,response7disk_3,TRUE,1,1,"[58,315,315,202,39,216,137,231,298,259,153,141,83,238,9,87,110,232,297,45]",2.1686,rectangle
,,,,,,,,,,,,,FF,,,,,,,,1.2354,,,,,,,,,,,,,,,,,,,,,,6102aa9a20e54b54f0a32c41,61036ea51e0579e042958643,2021-07-30_04h16.53.887,Simcolourproject_2stim_asymm_v5,2020.2.10,Win32,60,61025ae37ef11b136ea224fe,,,,,,,,,2088,-39,-84,1,0,0,response5disk,,3,-16,-14,1,0,0,rectangle,-16,-14,1,0,0,-16,-14,1,0,0,1,56,216,77,1,,,,,,,,
,,,,,,,,,,,,,FF,,,,,,,,1.001,,,,,,,,,,,,,,,,,,,,,,6102aa9a20e54b54f0a32c41,61036ea51e0579e042958643,2021-07-30_04h16.53.887,Simcolourproject_2stim_asymm_v5,2020.2.10,Win32,60,61025ae37ef11b136ea224fe,,,,,,,,,3271,25,-71,1,0,0,response3disk,,4,8,0,1,0,0,rectangle,8,0,1,0,0,8,0,1,0,0,1,57,217,155,1,,,,,,,,
,,,,,,,,,,,,,FF,,,,,,,,1.5673,,,,,,,,,,,,,,,,,,,,,,6102aa9a20e54b54f0a32c41,61036ea51e0579e042958643,2021-07-30_04h16.53.887,Simcolourproject_2stim_asymm_v5,2020.2.10,Win32,60,61025ae37ef11b136ea224fe,,,,,,,,,4167,-64,-20,1,0,0,response5disk,,2,-9,-2,1,0,0,rectangle,-9,-2,1,0,0,-9,-2,1,0,0,1,58,218,76,1,,,,,,,,
,,,,,,,,,,,,,FF,,,,,,,,2.2668,,,,,,,,,,,,,,,,,,,,,,6102aa9a20e54b54f0a32c41,61036ea51e0579e042958643,2021-07-30_04h16.53.887,Simcolourproject_2stim_asymm_v5,2020.2.10,Win32,60,61025ae37ef11b136ea224fe,,,,,,,,,1653,77,-45,1,0,0,response3disk,,5,-4,4,1,0,0,rectangle,-4,4,1,0,0,-4,4,1,0,0,1,59,219,86,1,,,,,,,,
,,,,,,,,,,,,,FF,,,,,,,,1.8176,,,,,,,,,,,,,,,,,,,,,,6102aa9a20e54b54f0a32c41,61036ea51e0579e042958643,2021-07-30_04h16.53.887,Simcolourproject_2stim_asymm_v5,2020.2.10,Win32,60,61025ae37ef11b136ea224fe,,,,,,,,,796,-38,-85,1,0,0,response5disk,,3,-11,-1,1,0,0,rectangle,-11,-1,1,0,0,-11,-1,1,0,0,1,60,220,84,1,,,,,,,,
,,,,,,,,,,,,,FF,,,,,,,,1.3589,,,,,,,,,,,,,,,,,,,,,,6102aa9a20e54b54f0a32c41,61036ea51e0579e042958643,2021-07-30_04h16.53.887,Simcolourproject_2stim_asymm_v5,2020.2.10,Win32,60,61025ae37ef11b136ea224fe,,,,,,,,,2663,-88,33,1,0,0,response7disk,,1,-14,-3,1,0,0,rectangle,-14,-3,1,0,0,-14,-3,1,0,0,1,61,221,31,1,,,,,,,,
,,,,,,,,,,,,,FF,,,,,,,,6.2248,,,,,,,,,,,,,,,,,,,,,,6102aa9a20e54b54f0a32c41,61036ea51e0579e042958643,2021-07-30_04h16.53.887,Simcolourproject_2stim_asymm_v5,2020.2.10,Win32,60,61025ae37ef11b136ea224fe,,,,,,,,,3457,-21,-81,1,0,0,response5disk,,3,-5,-1,1,0,0,rectangle,-5,-1,1,0,0,-5,-1,1,0,0,1,62,222,141,1,,,,,,,,
,,,,,,,,,,,,,FF,,,,,,,,2.0066,,,,,,,,,,,,,,,,,,,,,,6102aa9a20e54b54f0a32c41,61036ea51e0579e042958643,2021-07-30_04h16.53.887,Simcolourproject_2stim_asymm_v5,2020.2.10,Win32,60,61025ae37ef11b136ea224fe,,,,,,,,,732,-33,-65,1,0,0,response5disk,,3,-10,-5,1,0,0,rectangle,-10,-5,1,0,0,-10,-5,1,0,0,1,63,223,140,1,,,,,,,,
,,,,,,,,,,,,,FF,,,,,,,,1.2065,,,,,,,,,,,,,,,,,,,,,,6102aa9a20e54b54f0a32c41,61036ea51e0579e042958643,2021-07-30_04h16.53.887,Simcolourproject_2stim_asymm_v5,2020.2.10,Win32,60,61025ae37ef11b136ea224fe,,,,,,,,,1431,36,-80,1,0,0,response3disk,,4,26,1,1,0,0,rectangle,26,1,1,0,0,26,1,1,0,0,1,64,224,78,1,,,,,,,,
,,,,,,,,,,,,,FF,,,,,,,,1.4413,,,,,,,,,,,,,,,,,,,,,,6102aa9a20e54b54f0a32c41,61036ea51e0579e042958643,2021-07-30_04h16.53.887,Simcolourproject_2stim_asymm_v5,2020.2.10,Win32,60,61025ae37ef11b136ea224fe,,,,,,,,,3512,-56,42,1,0,0,response7disk,,1,-2,-3,1,0,0,rectangle,-2,-3,1,0,0,-2,-3,1,0,0,1,65,225,38,1,,,,,,,,
,,,,,,,,,,,,,FF,,,,,,,,1.1673,,,,,,,,,,,,,,,,,,,,,,6102aa9a20e54b54f0a32c41,61036ea51e0579e042958643,2021-07-30_04h16.53.887,Simcolourproject_2stim_asymm_v5,2020.2.10,Win32,60,61025ae37ef11b136ea224fe,,,,,,,,,633,-53,-26,1,0,0,response5disk,,2,0,5,1,0,0,rectangle,0,5,1,0,0,0,5,1,0,0,1,66,226,65,1,,,,,,,,
,,,,,,,,,,,,,FF,,,,,,,,1.1048,,,,,,,,,,,,,,,,,,,,,,6102aa9a20e54b54f0a32c41,61036ea51e0579e042958643,2021-07-30_04h16.53.887,Simcolourproject_2stim_asymm_v5,2020.2.10,Win32,60,61025ae37ef11b136ea224fe,,,,,,,,,234,-34,-79,1,0,0,response5disk,,3,-3,4,1,0,0,rectangle,-3,4,1,0,0,-3,4,1,0,0,1,67,227,93,1,,,,,,,,
,,,,,,,,,,,,,FF,,,,,,,,1.0673,,,,,,,,,,,,,,,,,,,,,,6102aa9a20e54b54f0a32c41,61036ea51e0579e042958643,2021-07-30_04h16.53.887,Simcolourproject_2stim_asymm_v5,2020.2.10,Win32,60,61025ae37ef11b136ea224fe,,,,,,,,,1617,41,-61,1,0,0,response3disk,,4,7,3,1,0,0,rectangle,7,3,1,0,0,7,3,1,0,0,1,68,228,2,1,,,,,,,,
,,,,,,,,,,,,,FF,,,,,,,,3.2668,,,,,,,,,,,,,,,,,,,,,,6102aa9a20e54b54f0a32c41,61036ea51e0579e042958643,2021-07-30_04h16.53.887,Simcolourproject_2stim_asymm_v5,2020.2.10,Win32,60,61025ae37ef11b136ea224fe,,,,,,,,,3027,65,-79,1,0,0,response3disk,,4,-6,14,1,0,0,rectangle,-6,14,1,0,0,-6,14,1,0,0,1,69,229,32,1,,,,,,,,
,,,,,,,,,,,,,FF,,,,,,,,1.7337,,,,,,,,,,,,,,,,,,,,,,6102aa9a20e54b54f0a32c41,61036ea51e0579e042958643,2021-07-30_04h16.53.887,Simcolourproject_2stim_asymm_v5,2020.2.10,Win32,60,61025ae37ef11b136ea224fe,,,,,,,,,1153,53,-76,1,0,0,response3disk,,4,8,-3,1,0,0,rectangle,-81,-25,1,0,0,1,4,1,0,0,1,70,230,131,1,,response5disk_3,TRUE,2,2,"[58,315,315,202,39,216,137,231,298,259,153,141,83,238,9,87,110,232,297,45]",3.1553,rectangle
,,,,,,,,,,,,,FF,,,,,,,,1.1236,,,,,,,,,,,,,,,,,,,,,,6102aa9a20e54b54f0a32c41,61036ea51e0579e042958643,2021-07-30_04h16.53.887,Simcolourproject_2stim_asymm_v5,2020.2.10,Win32,60,61025ae37ef11b136ea224fe,,,,,,,,,1773,-34,-78,1,0,0,response5disk,,3,1,-1,1,0,0,rectangle,-75,44,1,0,0,-10,6,1,0,0,1,71,231,109,1,,response7disk_3,TRUE,1,1,"[58,315,315,202,39,216,137,231,298,259,153,141,83,238,9,87,110,232,297,45]",3.1333,rectangle
,,,,,,,,,,,,,FF,,,,,,,,2.056,,,,,,,,,,,,,,,,,,,,,,6102aa9a20e54b54f0a32c41,61036ea51e0579e042958643,2021-07-30_04h16.53.887,Simcolourproject_2stim_asymm_v5,2020.2.10,Win32,60,61025ae37ef11b136ea224fe,,,,,,,,,2704,-87,-56,1,0,0,response5disk,,2,13,0,1,0,0,rectangle,13,0,1,0,0,13,0,1,0,0,1,72,232,15,1,,,,,,,,
,,,,,,,,,,,,,FF,,,,,,,,1.4767,,,,,,,,,,,,,,,,,,,,,,6102aa9a20e54b54f0a32c41,61036ea51e0579e042958643,2021-07-30_04h16.53.887,Simcolourproject_2stim_asymm_v5,2020.2.10,Win32,60,61025ae37ef11b136ea224fe,,,,,,,,,2536,22,-78,1,0,0,response3disk,,4,3,3,1,0,0,rectangle,3,3,1,0,0,3,3,1,0,0,1,73,233,82,1,,,,,,,,
,,,,,,,,,,,,,FF,,,,,,,,1.2852,,,,,,,,,,,,,,,,,,,,,,6102aa9a20e54b54f0a32c41,61036ea51e0579e042958643,2021-07-30_04h16.53.887,Simcolourproject_2stim_asymm_v5,2020.2.10,Win32,60,61025ae37ef11b136ea224fe,,,,,,,,,3153,-72,-35,1,0,0,response5disk,,2,-7,-4,1,0,0,rectangle,-7,-4,1,0,0,-7,-4,1,0,0,1,74,234,152,1,,,,,,,,
,,,,,,,,,,,,,FF,,,,,,,,1.7675,,,,,,,,,,,,,,,,,,,,,,6102aa9a20e54b54f0a32c41,61036ea51e0579e042958643,2021-07-30_04h16.53.887,Simcolourproject_2stim_asymm_v5,2020.2.10,Win32,60,61025ae37ef11b136ea224fe,,,,,,,,,2331,-68,-33,1,0,0,response5disk,,2,-11,-3,1,0,0,rectangle,-11,-3,1,0,0,-11,-3,1,0,0,1,75,235,107,1,,,,,,,,
,,,,,,,,,,,,,FF,,,,,,,,1.3037,,,,,,,,,,,,,,,,,,,,,,6102aa9a20e54b54f0a32c41,61036ea51e0579e042958643,2021-07-30_04h16.53.887,Simcolourproject_2stim_asymm_v5,2020.2.10,Win32,60,61025ae37ef11b136ea224fe,,,,,,,,,3846,-72,47,1,0,0,response7disk,,1,3,-4,1,0,0,rectangle,3,-4,1,0,0,3,-4,1,0,0,1,76,236,60,1,,,,,,,,
,,,,,,,,,,,,,FF,,,,,,,,1.1199,,,,,,,,,,,,,,,,,,,,,,6102aa9a20e54b54f0a32c41,61036ea51e0579e042958643,2021-07-30_04h16.53.887,Simcolourproject_2stim_asymm_v5,2020.2.10,Win32,60,61025ae37ef11b136ea224fe,,,,,,,,,1183,-42,-103,1,0,0,response5disk,,3,-9,-5,1,0,0,rectangle,-41,87,1,0,0,3,-2,1,0,0,1,77,237,45,1,,response7disk_3,TRUE,0,0,"[58,315,315,202,39,216,137,231,298,259,153,141,83,238,9,87,110,232,297,45]",2.3344,rectangle
,,,,,,,,,,,,,FF,,,,,,,,2.1171,,,,,,,,,,,,,,,,,,,,,,6102aa9a20e54b54f0a32c41,61036ea51e0579e042958643,2021-07-30_04h16.53.887,Simcolourproject_2stim_asymm_v5,2020.2.10,Win32,60,61025ae37ef11b136ea224fe,,,,,,,,,2024,81,-36,1,0,0,response3disk,,5,9,-4,1,0,0,rectangle,9,-4,1,0,0,9,-4,1,0,0,1,78,238,118,1,,,,,,,,
,,,,,,,,,,,,,FF,,,,,,,,1.519,,,,,,,,,,,,,,,,,,,,,,6102aa9a20e54b54f0a32c41,61036ea51e0579e042958643,2021-07-30_04h16.53.887,Simcolourproject_2stim_asymm_v5,2020.2.10,Win32,60,61025ae37ef11b136ea224fe,,,,,,,,,3182,63,-82,1,0,0,response3disk,,4,-2,3,1,0,0,rectangle,-2,3,1,0,0,-2,3,1,0,0,1,79,239,92,1,,,,,,,,
,,,,,,,,,,,,,FF,,,,,,,,1.8551,,,,,,,,,,,,,,,,,,,,,,6102aa9a20e54b54f0a32c41,61036ea51e0579e042958643,2021-07-30_04h16.53.887,Simcolourproject_2stim_asymm_v5,2020.2.10,Win32,60,61025ae37ef11b136ea224fe,,,,,,,,,2624,88,40,1,0,0,response1disk,,6,5,-5,1,0,0,rectangle,5,-5,1,0,0,5,-5,1,0,0,1,80,240,89,1,,,,,,,,
,,,,,,,,,,,,,FF,,,,,,,,1.2372,,,,,,,,,,,,,,,,,,,,,,6102aa9a20e54b54f0a32c41,61036ea51e0579e042958643,2021-07-30_04h16.53.887,Simcolourproject_2stim_asymm_v5,2020.2.10,Win32,60,61025ae37ef11b136ea224fe,,,,,,,,,2126,76,35,1,0,0,response1disk,,6,24,10,1,0,0,rectangle,24,10,1,0,0,24,10,1,0,0,1,81,241,20,1,,,,,,,,
,,,,,,,,,,,,,FF,,,,,,,,1.2673,,,,,,,,,,,,,,,,,,,,,,6102aa9a20e54b54f0a32c41,61036ea51e0579e042958643,2021-07-30_04h16.53.887,Simcolourproject_2stim_asymm_v5,2020.2.10,Win32,60,61025ae37ef11b136ea224fe,,,,,,,,,3893,77,-53,1,0,0,response3disk,,5,12,5,1,0,0,rectangle,12,5,1,0,0,12,5,1,0,0,1,82,242,71,1,,,,,,,,
,,,,,,,,,,,,,FF,,,,,,,,1.3317,,,,,,,,,,,,,,,,,,,,,,6102aa9a20e54b54f0a32c41,61036ea51e0579e042958643,2021-07-30_04h16.53.887,Simcolourproject_2stim_asymm_v5,2020.2.10,Win32,60,61025ae37ef11b136ea224fe,,,,,,,,,982,-93,-59,1,0,0,response5disk,,2,-3,5,1,0,0,rectangle,-3,5,1,0,0,-3,5,1,0,0,1,83,243,137,1,,,,,,,,
,,,,,,,,,,,,,FF,,,,,,,,1.3215,,,,,,,,,,,,,,,,,,,,,,6102aa9a20e54b54f0a32c41,61036ea51e0579e042958643,2021-07-30_04h16.53.887,Simcolourproject_2stim_asymm_v5,2020.2.10,Win32,60,61025ae37ef11b136ea224fe,,,,,,,,,970,-69,39,1,0,0,response7disk,,1,-7,-2,1,0,0,rectangle,-7,-2,1,0,0,-7,-2,1,0,0,1,84,244,57,1,,,,,,,,
,,,,,,,,,,,,,FF,,,,,,,,2.2171,,,,,,,,,,,,,,,,,,,,,,6102aa9a20e54b54f0a32c41,61036ea51e0579e042958643,2021-07-30_04h16.53.887,Simcolourproject_2stim_asymm_v5,2020.2.10,Win32,60,61025ae37ef11b136ea224fe,,,,,,,,,2900,-25,-77,1,0,0,response5disk,,3,0,6,1,0,0,rectangle,0,6,1,0,0,0,6,1,0,0,1,85,245,157,1,,,,,,,,
,,,,,,,,,,,,,FF,,,,,,,,1.1364,,,,,,,,,,,,,,,,,,,,,,6102aa9a20e54b54f0a32c41,61036ea51e0579e042958643,2021-07-30_04h16.53.887,Simcolourproject_2stim_asymm_v5,2020.2.10,Win32,60,61025ae37ef11b136ea224fe,,,,,,,,,4213,35,-93,1,0,0,response3disk,,4,16,-3,1,0,0,rectangle,16,-3,1,0,0,16,-3,1,0,0,1,86,246,75,1,,,,,,,,
,,,,,,,,,,,,,FF,,,,,,,,4.8032,,,,,,,,,,,,,,,,,,,,,,6102aa9a20e54b54f0a32c41,61036ea51e0579e042958643,2021-07-30_04h16.53.887,Simcolourproject_2stim_asymm_v5,2020.2.10,Win32,60,61025ae37ef11b136ea224fe,,,,,,,,,1441,37,-57,1,0,0,response3disk,,4,5,-5,1,0,0,rectangle,5,-5,1,0,0,5,-5,1,0,0,1,87,247,26,1,,,,,,,,
,,,,,,,,,,,,,FF,,,,,,,,1.2173,,,,,,,,,,,,,,,,,,,,,,6102aa9a20e54b54f0a32c41,61036ea51e0579e042958643,2021-07-30_04h16.53.887,Simcolourproject_2stim_asymm_v5,2020.2.10,Win32,60,61025ae37ef11b136ea224fe,,,,,,,,,2233,-23,58,1,0,0,response7disk,,0,-3,2,1,0,0,rectangle,-3,2,1,0,0,-3,2,1,0,0,1,88,248,25,1,,,,,,,,
,,,,,,,,,,,,,FF,,,,,,,,2.4376,,,,,,,,,,,,,,,,,,,,,,6102aa9a20e54b54f0a32c41,61036ea51e0579e042958643,2021-07-30_04h16.53.887,Simcolourproject_2stim_asymm_v5,2020.2.10,Win32,60,61025ae37ef11b136ea224fe,,,,,,,,,688,-42,-63,1,0,0,response5disk,,3,-11,-3,1,0,0,rectangle,-11,-3,1,0,0,-11,-3,1,0,0,1,89,249,111,1,,,,,,,,
,,,,,,,,,,,,,FF,,,,,,,,1.6185,,,,,,,,,,,,,,,,,,,,,,6102aa9a20e54b54f0a32c41,61036ea51e0579e042958643,2021-07-30_04h16.53.887,Simcolourproject_2stim_asymm_v5,2020.2.10,Win32,60,61025ae37ef11b136ea224fe,,,,,,,,,3996,95,-57,1,0,0,response3disk,,5,0,12,1,0,0,rectangle,0,12,1,0,0,0,12,1,0,0,1,90,250,39,1,,,,,,,,
,,,,,,,,,,,,,FF,,,,,,,,1.353,,,,,,,,,,,,,,,,,,,,,,6102aa9a20e54b54f0a32c41,61036ea51e0579e042958643,2021-07-30_04h16.53.887,Simcolourproject_2stim_asymm_v5,2020.2.10,Win32,60,61025ae37ef11b136ea224fe,,,,,,,,,3665,63,26,1,0,0,response1disk,,6,3,4,1,0,0,rectangle,3,4,1,0,0,3,4,1,0,0,1,91,251,122,1,,,,,,,,
,,,,,,,,,,,,,FF,,,,,,,,1.6172,,,,,,,,,,,,,,,,,,,,,,6102aa9a20e54b54f0a32c41,61036ea51e0579e042958643,2021-07-30_04h16.53.887,Simcolourproject_2stim_asymm_v5,2020.2.10,Win32,60,61025ae37ef11b136ea224fe,,,,,,,,,406,23,-79,1,0,0,response3disk,,4,7,1,1,0,0,rectangle,7,1,1,0,0,7,1,1,0,0,1,92,252,79,1,,,,,,,,
,,,,,,,,,,,,,FF,,,,,,,,3.4997,,,,,,,,,,,,,,,,,,,,,,6102aa9a20e54b54f0a32c41,61036ea51e0579e042958643,2021-07-30_04h16.53.887,Simcolourproject_2stim_asymm_v5,2020.2.10,Win32,60,61025ae37ef11b136ea224fe,,,,,,,,,4149,-46,-72,1,0,0,response5disk,,3,-9,7,1,0,0,rectangle,-9,7,1,0,0,-9,7,1,0,0,1,93,253,142,1,,,,,,,,
,,,,,,,,,,,,,FF,,,,,,,,1.018,,,,,,,,,,,,,,,,,,,,,,6102aa9a20e54b54f0a32c41,61036ea51e0579e042958643,2021-07-30_04h16.53.887,Simcolourproject_2stim_asymm_v5,2020.2.10,Win32,60,61025ae37ef11b136ea224fe,,,,,,,,,2847,-48,-85,1,0,0,response5disk,,3,-12,2,1,0,0,rectangle,-12,2,1,0,0,-12,2,1,0,0,1,94,254,99,1,,,,,,,,
,,,,,,,,,,,,,FF,,,,,,,,2.6838,,,,,,,,,,,,,,,,,,,,,,6102aa9a20e54b54f0a32c41,61036ea51e0579e042958643,2021-07-30_04h16.53.887,Simcolourproject_2stim_asymm_v5,2020.2.10,Win32,60,61025ae37ef11b136ea224fe,,,,,,,,,1228,32,-57,1,0,0,response3disk,,4,9,-3,1,0,0,rectangle,9,-3,1,0,0,9,-3,1,0,0,1,95,255,114,1,,,,,,,,
,,,,,,,,,,,,,FF,,,,,,,,1.1347,,,,,,,,,,,,,,,,,,,,,,6102aa9a20e54b54f0a32c41,61036ea51e0579e042958643,2021-07-30_04h16.53.887,Simcolourproject_2stim_asymm_v5,2020.2.10,Win32,60,61025ae37ef11b136ea224fe,,,,,,,,,2357,73,-91,1,0,0,response3disk,,4,15,2,1,0,0,rectangle,15,2,1,0,0,15,2,1,0,0,1,96,256,145,1,,,,,,,,
,,,,,,,,,,,,,FF,,,,,,,,1.2894,,,,,,,,,,,,,,,,,,,,,,6102aa9a20e54b54f0a32c41,61036ea51e0579e042958643,2021-07-30_04h16.53.887,Simcolourproject_2stim_asymm_v5,2020.2.10,Win32,60,61025ae37ef11b136ea224fe,,,,,,,,,38,-45,-66,1,0,0,response5disk,,3,-9,-6,1,0,0,rectangle,-9,-6,1,0,0,-9,-6,1,0,0,1,97,257,81,1,,,,,,,,
,,,,,,,,,,,,,FF,,,,,,,,1.1398,,,,,,,,,,,,,,,,,,,,,,6102aa9a20e54b54f0a32c41,61036ea51e0579e042958643,2021-07-30_04h16.53.887,Simcolourproject_2stim_asymm_v5,2020.2.10,Win32,60,61025ae37ef11b136ea224fe,,,,,,,,,4127,-63,46,1,0,0,response7disk,,1,9,-1,1,0,0,rectangle,-86,48,1,0,0,-3,-3,1,0,0,1,98,258,47,1,,response7disk_3,TRUE,1,1,"[58,315,315,202,39,216,137,231,298,259,153,141,83,238,9,87,110,232,297,45]",2.0335,rectangle
,,,,,,,,,,,,,FF,,,,,,,,1.9398,,,,,,,,,,,,,,,,,,,,,,6102aa9a20e54b54f0a32c41,61036ea51e0579e042958643,2021-07-30_04h16.53.887,Simcolourproject_2stim_asymm_v5,2020.2.10,Win32,60,61025ae37ef11b136ea224fe,,,,,,,,,4101,60,-74,1,0,0,response3disk,,4,10,-4,1,0,0,rectangle,10,-4,1,0,0,10,-4,1,0,0,1,99,259,88,1,,,,,,,,
,,,,,,,,,,,,,FF,,,,,,,,1.3069,,,,,,,,,,,,,,,,,,,,,,6102aa9a20e54b54f0a32c41,61036ea51e0579e042958643,2021-07-30_04h16.53.887,Simcolourproject_2stim_asymm_v5,2020.2.10,Win32,60,61025ae37ef11b136ea224fe,,,,,,,,,321,-52,-61,1,0,0,response5disk,,3,-10,-8,1,0,0,rectangle,-10,-8,1,0,0,-10,-8,1,0,0,1,100,260,23,1,,,,,,,,
,,,,,,,,,,,,,FF,,,,,,,,3.9843,,,,,,,,,,,,,,,,,,,,,,6102aa9a20e54b54f0a32c41,61036ea51e0579e042958643,2021-07-30_04h16.53.887,Simcolourproject_2stim_asymm_v5,2020.2.10,Win32,60,61025ae37ef11b136ea224fe,,,,,,,,,2634,29,-67,1,0,0,response3disk,,4,15,-4,1,0,0,rectangle,15,-4,1,0,0,15,-4,1,0,0,1,101,261,90,1,,,,,,,,
,,,,,,,,,,,,,FF,,,,,,,,11.6293,,,,,,,,,,,,,,,,,,,,,,6102aa9a20e54b54f0a32c41,61036ea51e0579e042958643,2021-07-30_04h16.53.887,Simcolourproject_2stim_asymm_v5,2020.2.10,Win32,60,61025ae37ef11b136ea224fe,,,,,,,,,3824,-40,-64,1,0,0,response5disk,,3,-1,9,1,0,0,rectangle,-1,9,1,0,0,-1,9,1,0,0,1,102,262,80,1,,,,,,,,
,,,,,,,,,,,,,FF,,,,,,,,0.9517,,,,,,,,,,,,,,,,,,,,,,6102aa9a20e54b54f0a32c41,61036ea51e0579e042958643,2021-07-30_04h16.53.887,Simcolourproject_2stim_asymm_v5,2020.2.10,Win32,60,61025ae37ef11b136ea224fe,,,,,,,,,2280,41,-81,1,0,0,response3disk,,4,10,-3,1,0,0,rectangle,10,-3,1,0,0,10,-3,1,0,0,1,103,263,87,1,,,,,,,,
,,,,,,,,,,,,,FF,,,,,,,,1.0505,,,,,,,,,,,,,,,,,,,,,,6102aa9a20e54b54f0a32c41,61036ea51e0579e042958643,2021-07-30_04h16.53.887,Simcolourproject_2stim_asymm_v5,2020.2.10,Win32,60,61025ae37ef11b136ea224fe,,,,,,,,,4034,22,-79,1,0,0,response3disk,,4,8,7,1,0,0,rectangle,8,7,1,0,0,8,7,1,0,0,1,104,264,22,1,,,,,,,,
,,,,,,,,,,,,,FF,,,,,,,,1.0339,,,,,,,,,,,,,,,,,,,,,,6102aa9a20e54b54f0a32c41,61036ea51e0579e042958643,2021-07-30_04h16.53.887,Simcolourproject_2stim_asymm_v5,2020.2.10,Win32,60,61025ae37ef11b136ea224fe,,,,,,,,,1192,41,-61,1,0,0,response3disk,,4,12,5,1,0,0,rectangle,12,5,1,0,0,12,5,1,0,0,1,105,265,21,1,,,,,,,,
,,,,,,,,,,,,,FF,,,,,,,,1.2516,,,,,,,,,,,,,,,,,,,,,,6102aa9a20e54b54f0a32c41,61036ea51e0579e042958643,2021-07-30_04h16.53.887,Simcolourproject_2stim_asymm_v5,2020.2.10,Win32,60,61025ae37ef11b136ea224fe,,,,,,,,,3750,-38,-40,1,0,0,response5disk,,3,-17,-5,1,0,0,rectangle,-17,-5,1,0,0,-17,-5,1,0,0,1,106,266,116,1,,,,,,,,
,,,,,,,,,,,,,FF,,,,,,,,0.9854,,,,,,,,,,,,,,,,,,,,,,6102aa9a20e54b54f0a32c41,61036ea51e0579e042958643,2021-07-30_04h16.53.887,Simcolourproject_2stim_asymm_v5,2020.2.10,Win32,60,61025ae37ef11b136ea224fe,,,,,,,,,3859,-44,-61,1,0,0,response5disk,,3,-2,-6,1,0,0,rectangle,-2,-6,1,0,0,-2,-6,1,0,0,1,107,267,153,1,,,,,,,,
,,,,,,,,,,,,,FF,,,,,,,,1.3039,,,,,,,,,,,,,,,,,,,,,,6102aa9a20e54b54f0a32c41,61036ea51e0579e042958643,2021-07-30_04h16.53.887,Simcolourproject_2stim_asymm_v5,2020.2.10,Win32,60,61025ae37ef11b136ea224fe,,,,,,,,,3888,86,-45,1,0,0,response3disk,,5,15,-3,1,0,0,rectangle,15,-3,1,0,0,15,-3,1,0,0,1,108,268,54,1,,,,,,,,
,,,,,,,,,,,,,FF,,,,,,,,1.422,,,,,,,,,,,,,,,,,,,,,,6102aa9a20e54b54f0a32c41,61036ea51e0579e042958643,2021-07-30_04h16.53.887,Simcolourproject_2stim_asymm_v5,2020.2.10,Win32,60,61025ae37ef11b136ea224fe,,,,,,,,,925,78,38,1,0,0,response1disk,,6,9,2,1,0,0,rectangle,9,2,1,0,0,9,2,1,0,0,1,109,269,24,1,,,,,,,,
,,,,,,,,,,,,,FF,,,,,,,,1.3008,,,,,,,,,,,,,,,,,,,,,,6102aa9a20e54b54f0a32c41,61036ea51e0579e042958643,2021-07-30_04h16.53.887,Simcolourproject_2stim_asymm_v5,2020.2.10,Win32,60,61025ae37ef11b136ea224fe,,,,,,,,,3440,38,-73,1,0,0,response3disk,,4,5,12,1,0,0,rectangle,5,12,1,0,0,5,12,1,0,0,1,110,270,129,1,,,,,,,,
,,,,,,,,,,,,,FF,,,,,,,,1.0682,,,,,,,,,,,,,,,,,,,,,,6102aa9a20e54b54f0a32c41,61036ea51e0579e042958643,2021-07-30_04h16.53.887,Simcolourproject_2stim_asymm_v5,2020.2.10,Win32,60,61025ae37ef11b136ea224fe,,,,,,,,,3561,-45,-79,1,0,0,response5disk,,3,-6,7,1,0,0,rectangle,-6,7,1,0,0,-6,7,1,0,0,1,111,271,5,1,,,,,,,,
,,,,,,,,,,,,,FF,,,,,,,,1.1005,,,,,,,,,,,,,,,,,,,,,,6102aa9a20e54b54f0a32c41,61036ea51e0579e042958643,2021-07-30_04h16.53.887,Simcolourproject_2stim_asymm_v5,2020.2.10,Win32,60,61025ae37ef11b136ea224fe,,,,,,,,,3239,-39,-75,1,0,0,response5disk,,3,-13,1,1,0,0,rectangle,-13,1,1,0,0,-13,1,1,0,0,1,112,272,59,1,,,,,,,,
,,,,,,,,,,,,,FF,,,,,,,,1.1495,,,,,,,,,,,,,,,,,,,,,,6102aa9a20e54b54f0a32c41,61036ea51e0579e042958643,2021-07-30_04h16.53.887,Simcolourproject_2stim_asymm_v5,2020.2.10,Win32,60,61025ae37ef11b136ea224fe,,,,,,,,,2733,98,-52,1,0,0,response3disk,,5,4,4,1,0,0,rectangle,4,4,1,0,0,4,4,1,0,0,1,113,273,158,1,,,,,,,,
,,,,,,,,,,,,,FF,,,,,,,,1.0675,,,,,,,,,,,,,,,,,,,,,,6102aa9a20e54b54f0a32c41,61036ea51e0579e042958643,2021-07-30_04h16.53.887,Simcolourproject_2stim_asymm_v5,2020.2.10,Win32,60,61025ae37ef11b136ea224fe,,,,,,,,,3822,-35,-87,1,0,0,response5disk,,3,-9,-4,1,0,0,rectangle,-9,-4,1,0,0,-9,-4,1,0,0,1,114,274,134,1,,,,,,,,
,,,,,,,,,,,,,FF,,,,,,,,2.4012,,,,,,,,,,,,,,,,,,,,,,6102aa9a20e54b54f0a32c41,61036ea51e0579e042958643,2021-07-30_04h16.53.887,Simcolourproject_2stim_asymm_v5,2020.2.10,Win32,60,61025ae37ef11b136ea224fe,,,,,,,,,4225,-100,-63,1,0,0,response5disk,,2,-9,-9,1,0,0,rectangle,-9,-9,1,0,0,-9,-9,1,0,0,1,115,275,97,1,,,,,,,,
,,,,,,,,,,,,,FF,,,,,,,,1.0012,,,,,,,,,,,,,,,,,,,,,,6102aa9a20e54b54f0a32c41,61036ea51e0579e042958643,2021-07-30_04h16.53.887,Simcolourproject_2stim_asymm_v5,2020.2.10,Win32,60,61025ae37ef11b136ea224fe,,,,,,,,,523,38,-93,1,0,0,response3disk,,4,21,-7,1,0,0,rectangle,21,-7,1,0,0,21,-7,1,0,0,1,116,276,100,1,,,,,,,,
,,,,,,,,,,,,,FF,,,,,,,,1.0892,,,,,,,,,,,,,,,,,,,,,,6102aa9a20e54b54f0a32c41,61036ea51e0579e042958643,2021-07-30_04h16.53.887,Simcolourproject_2stim_asymm_v5,2020.2.10,Win32,60,61025ae37ef11b136ea224fe,,,,,,,,,3499,86,-50,1,0,0,response3disk,,5,26,2,1,0,0,rectangle,26,2,1,0,0,26,2,1,0,0,1,117,277,29,1,,,,,,,,
,,,,,,,,,,,,,FF,,,,,,,,1.034,,,,,,,,,,,,,,,,,,,,,,6102aa9a20e54b54f0a32c41,61036ea51e0579e042958643,2021-07-30_04h16.53.887,Simcolourproject_2stim_asymm_v5,2020.2.10,Win32,60,61025ae37ef11b136ea224fe,,,,,,,,,2111,63,-46,1,0,0,response3disk,,5,13,2,1,0,0,rectangle,13,2,1,0,0,13,2,1,0,0,1,118,278,143,1,,,,,,,,
,,,,,,,,,,,,,FF,,,,,,,,1.9729,,,,,,,,,,,,,,,,,,,,,,6102aa9a20e54b54f0a32c41,61036ea51e0579e042958643,2021-07-30_04h16.53.887,Simcolourproject_2stim_asymm_v5,2020.2.10,Win32,60,61025ae37ef11b136ea224fe,,,,,,,,,729,-80,-52,1,0,0,response5disk,,2,-9,-1,1,0,0,rectangle,-9,-1,1,0,0,-9,-1,1,0,0,1,119,279,8,1,,,,,,,,
,,,,,,,,,,,,,FF,,,,,,,,1.1007,,,,,,,,,,,,,,,,,,,,,,6102aa9a20e54b54f0a32c41,61036ea51e0579e042958643,2021-07-30_04h16.53.887,Simcolourproject_2stim_asymm_v5,2020.2.10,Win32,60,61025ae37ef11b136ea224fe,,,,,,,,,2542,-55,32,1,0,0,response7disk,,1,-21,8,1,0,0,rectangle,-21,8,1,0,0,-21,8,1,0,0,1,120,280,9,1,,,,,,,,
,,,,,,,,,,,,,FF,,,,,,,,1.1512,,,,,,,,,,,,,,,,,,,,,,6102aa9a20e54b54f0a32c41,61036ea51e0579e042958643,2021-07-30_04h16.53.887,Simcolourproject_2stim_asymm_v5,2020.2.10,Win32,60,61025ae37ef11b136ea224fe,,,,,,,,,187,-52,36,1,0,0,response7disk,,1,-19,1,1,0,0,rectangle,-19,1,1,0,0,-19,1,1,0,0,1,121,281,127,1,,,,,,,,
,,,,,,,,,,,,,FF,,,,,,,,2.2346,,,,,,,,,,,,,,,,,,,,,,6102aa9a20e54b54f0a32c41,61036ea51e0579e042958643,2021-07-30_04h16.53.887,Simcolourproject_2stim_asymm_v5,2020.2.10,Win32,60,61025ae37ef11b136ea224fe,,,,,,,,,1724,-37,-50,1,0,0,response5disk,,3,-6,11,1,0,0,rectangle,-6,11,1,0,0,-6,11,1,0,0,1,122,282,95,1,,,,,,,,
,,,,,,,,,,,,,FF,,,,,,,,1.1395,,,,,,,,,,,,,,,,,,,,,,6102aa9a20e54b54f0a32c41,61036ea51e0579e042958643,2021-07-30_04h16.53.887,Simcolourproject_2stim_asymm_v5,2020.2.10,Win32,60,61025ae37ef11b136ea224fe,,,,,,,,,3222,-52,37,1,0,0,response7disk,,1,5,-8,1,0,0,rectangle,5,-8,1,0,0,5,-8,1,0,0,1,123,283,124,1,,,,,,,,
,,,,,,,,,,,,,FF,,,,,,,,1.7842,,,,,,,,,,,,,,,,,,,,,,6102aa9a20e54b54f0a32c41,61036ea51e0579e042958643,2021-07-30_04h16.53.887,Simcolourproject_2stim_asymm_v5,2020.2.10,Win32,60,61025ae37ef11b136ea224fe,,,,,,,,,3056,-31,-83,1,0,0,response5disk,,3,5,9,1,0,0,rectangle,5,9,1,0,0,5,9,1,0,0,1,124,284,6,1,,,,,,,,
,,,,,,,,,,,,,FF,,,,,,,,1.2333,,,,,,,,,,,,,,,,,,,,,,6102aa9a20e54b54f0a32c41,61036ea51e0579e042958643,2021-07-30_04h16.53.887,Simcolourproject_2stim_asymm_v5,2020.2.10,Win32,60,61025ae37ef11b136ea224fe,,,,,,,,,945,59,-84,1,0,0,response3disk,,4,5,7,1,0,0,rectangle,5,7,1,0,0,5,7,1,0,0,1,125,285,110,1,,,,,,,,
,,,,,,,,,,,,,FF,,,,,,,,2.9837,,,,,,,,,,,,,,,,,,,,,,6102aa9a20e54b54f0a32c41,61036ea51e0579e042958643,2021-07-30_04h16.53.887,Simcolourproject_2stim_asymm_v5,2020.2.10,Win32,60,61025ae37ef11b136ea224fe,,,,,,,,,250,-75,-30,1,0,0,response5disk,,2,-2,-1,1,0,0,rectangle,-2,-1,1,0,0,-2,-1,1,0,0,1,126,286,33,1,,,,,,,,
,,,,,,,,,,,,,FF,,,,,,,,1.1675,,,,,,,,,,,,,,,,,,,,,,6102aa9a20e54b54f0a32c41,61036ea51e0579e042958643,2021-07-30_04h16.53.887,Simcolourproject_2stim_asymm_v5,2020.2.10,Win32,60,61025ae37ef11b136ea224fe,,,,,,,,,50,-36,-85,1,0,0,response5disk,,3,-10,8,1,0,0,rectangle,-10,8,1,0,0,-10,8,1,0,0,1,127,287,12,1,,,,,,,,
,,,,,,,,,,,,,FF,,,,,,,,1.0854,,,,,,,,,,,,,,,,,,,,,,6102aa9a20e54b54f0a32c41,61036ea51e0579e042958643,2021-07-30_04h16.53.887,Simcolourproject_2stim_asymm_v5,2020.2.10,Win32,60,61025ae37ef11b136ea224fe,,,,,,,,,3464,38,-93,1,0,0,response3disk,,4,13,-4,1,0,0,rectangle,13,-4,1,0,0,13,-4,1,0,0,1,128,288,136,1,,,,,,,,
,,,,,,,,,,,,,FF,,,,,,,,1.6341,,,,,,,,,,,,,,,,,,,,,,6102aa9a20e54b54f0a32c41,61036ea51e0579e042958643,2021-07-30_04h16.53.887,Simcolourproject_2stim_asymm_v5,2020.2.10,Win32,60,61025ae37ef11b136ea224fe,,,,,,,,,975,-46,74,1,0,0,response7disk,,0,-10,0,1,0,0,rectangle,-10,0,1,0,0,-10,0,1,0,0,1,129,289,149,1,,,,,,,,
,,,,,,,,,,,,,FF,,,,,,,,1.6334,,,,,,,,,,,,,,,,,,,,,,6102aa9a20e54b54f0a32c41,61036ea51e0579e042958643,2021-07-30_04h16.53.887,Simcolourproject_2stim_asymm_v5,2020.2.10,Win32,60,61025ae37ef11b136ea224fe,,,,,,,,,4309,58,30,1,0,0,response1disk,,6,20,-4,1,0,0,rectangle,20,-4,1,0,0,20,-4,1,0,0,1,130,290,34,1,,,,,,,,
,,,,,,,,,,,,,FF,,,,,,,,2.1041,,,,,,,,,,,,,,,,,,,,,,6102aa9a20e54b54f0a32c41,61036ea51e0579e042958643,2021-07-30_04h16.53.887,Simcolourproject_2stim_asymm_v5,2020.2.10,Win32,60,61025ae37ef11b136ea224fe,,,,,,,,,1658,77,-30,1,0,0,response3disk,,5,9,9,1,0,0,rectangle,9,9,1,0,0,9,9,1,0,0,1,131,291,58,1,,,,,,,,
,,,,,,,,,,,,,FF,,,,,,,,1.3671,,,,,,,,,,,,,,,,,,,,,,6102aa9a20e54b54f0a32c41,61036ea51e0579e042958643,2021-07-30_04h16.53.887,Simcolourproject_2stim_asymm_v5,2020.2.10,Win32,60,61025ae37ef11b136ea224fe,,,,,,,,,1906,-47,-70,1,0,0,response5disk,,3,8,-3,1,0,0,rectangle,8,-3,1,0,0,8,-3,1,0,0,1,132,292,148,1,,,,,,,,
,,,,,,,,,,,,,FF,,,,,,,,1.8896,,,,,,,,,,,,,,,,,,,,,,6102aa9a20e54b54f0a32c41,61036ea51e0579e042958643,2021-07-30_04h16.53.887,Simcolourproject_2stim_asymm_v5,2020.2.10,Win32,60,61025ae37ef11b136ea224fe,,,,,,,,,331,30,-76,1,0,0,response3disk,,4,19,6,1,0,0,rectangle,19,6,1,0,0,19,6,1,0,0,1,133,293,7,1,,,,,,,,
,,,,,,,,,,,,,FF,,,,,,,,1.4736,,,,,,,,,,,,,,,,,,,,,,6102aa9a20e54b54f0a32c41,61036ea51e0579e042958643,2021-07-30_04h16.53.887,Simcolourproject_2stim_asymm_v5,2020.2.10,Win32,60,61025ae37ef11b136ea224fe,,,,,,,,,3960,56,-39,1,0,0,response3disk,,5,5,-4,1,0,0,rectangle,5,-4,1,0,0,5,-4,1,0,0,1,134,294,96,1,,,,,,,,
,,,,,,,,,,,,,FF,,,,,,,,1.306,,,,,,,,,,,,,,,,,,,,,,6102aa9a20e54b54f0a32c41,61036ea51e0579e042958643,2021-07-30_04h16.53.887,Simcolourproject_2stim_asymm_v5,2020.2.10,Win32,60,61025ae37ef11b136ea224fe,,,,,,,,,4279,82,28,1,0,0,response1disk,,6,18,2,1,0,0,rectangle,18,2,1,0,0,18,2,1,0,0,1,135,295,154,1,,,,,,,,
,,,,,,,,,,,,,FF,,,,,,,,1.2348,,,,,,,,,,,,,,,,,,,,,,6102aa9a20e54b54f0a32c41,61036ea51e0579e042958643,2021-07-30_04h16.53.887,Simcolourproject_2stim_asymm_v5,2020.2.10,Win32,60,61025ae37ef11b136ea224fe,,,,,,,,,2962,-51,-74,1,0,0,response5disk,,3,6,7,1,0,0,rectangle,107,-64,1,0,0,14,-2,1,0,0,1,136,296,52,1,,response3disk_3,TRUE,5,5,"[58,315,315,202,39,216,137,231,298,259,153,141,83,238,9,87,110,232,297,45]",2.0802,rectangle
,,,,,,,,,,,,,FF,,,,,,,,1.1686,,,,,,,,,,,,,,,,,,,,,,6102aa9a20e54b54f0a32c41,61036ea51e0579e042958643,2021-07-30_04h16.53.887,Simcolourproject_2stim_asymm_v5,2020.2.10,Win32,60,61025ae37ef11b136ea224fe,,,,,,,,,4079,64,-79,1,0,0,response3disk,,4,14,6,1,0,0,rectangle,-78,-27,1,0,0,-3,-5,1,0,0,1,137,297,42,1,,response5disk_3,TRUE,2,2,"[58,315,315,202,39,216,137,231,298,259,153,141,83,238,9,87,110,232,297,45]",2.3195,rectangle
,,,,,,,,,,,,,FF,,,,,,,,2.4884,,,,,,,,,,,,,,,,,,,,,,6102aa9a20e54b54f0a32c41,61036ea51e0579e042958643,2021-07-30_04h16.53.887,Simcolourproject_2stim_asymm_v5,2020.2.10,Win32,60,61025ae37ef11b136ea224fe,,,,,,,,,1769,60,-94,1,0,0,response3disk,,4,14,8,1,0,0,rectangle,14,8,1,0,0,14,8,1,0,0,1,138,298,49,1,,,,,,,,
,,,,,,,,,,,,,FF,,,,,,,,1.0662,,,,,,,,,,,,,,,,,,,,,,6102aa9a20e54b54f0a32c41,61036ea51e0579e042958643,2021-07-30_04h16.53.887,Simcolourproject_2stim_asymm_v5,2020.2.10,Win32,60,61025ae37ef11b136ea224fe,,,,,,,,,4259,57,-113,1,0,0,response3disk,,4,1,2,1,0,0,rectangle,1,2,1,0,0,1,2,1,0,0,1,139,299,69,1,,,,,,,,
,,,,,,,,,,,,,FF,,,,,,,,1.119,,,,,,,,,,,,,,,,,,,,,,6102aa9a20e54b54f0a32c41,61036ea51e0579e042958643,2021-07-30_04h16.53.887,Simcolourproject_2stim_asymm_v5,2020.2.10,Win32,60,61025ae37ef11b136ea224fe,,,,,,,,,3934,-46,-96,1,0,0,response5disk,,3,-2,4,1,0,0,rectangle,-2,4,1,0,0,-2,4,1,0,0,1,140,300,138,1,,,,,,,,
,,,,,,,,,,,,,FF,,,,,,,,1.502,,,,,,,,,,,,,,,,,,,,,,6102aa9a20e54b54f0a32c41,61036ea51e0579e042958643,2021-07-30_04h16.53.887,Simcolourproject_2stim_asymm_v5,2020.2.10,Win32,60,61025ae37ef11b136ea224fe,,,,,,,,,2619,43,-73,1,0,0,response3disk,,4,15,4,1,0,0,rectangle,15,4,1,0,0,15,4,1,0,0,1,141,301,4,1,,,,,,,,
,,,,,,,,,,,,,FF,,,,,,,,1.8846,,,,,,,,,,,,,,,,,,,,,,6102aa9a20e54b54f0a32c41,61036ea51e0579e042958643,2021-07-30_04h16.53.887,Simcolourproject_2stim_asymm_v5,2020.2.10,Win32,60,61025ae37ef11b136ea224fe,,,,,,,,,936,77,-51,1,0,0,response3disk,,5,13,11,1,0,0,rectangle,13,11,1,0,0,13,11,1,0,0,1,142,302,120,1,,,,,,,,
