key_resp.keys,key_resp.rt,key_resp_14.keys,key_resp_14.rt,key_resp_15.keys,key_resp_15.rt,key_resp_17.keys,key_resp_17.rt,key_resp_9.keys,key_resp_9.rt,key_resp_10.keys,key_resp_10.rt,practice_comparison,Ecc,mouse_5.x,mouse_5.y,mouse_5.leftButton,mouse_5.midButton,mouse_5.rightButton,mouse_5.clicked_name,pracsimilarity,response_time,mouse_10.x,mouse_10.y,mouse_10.leftButton,mouse_10.midButton,mouse_10.rightButton,mouse_10.clicked_name,mouse_7.x,mouse_7.y,mouse_7.leftButton,mouse_7.midButton,mouse_7.rightButton,mouse_6.x,mouse_6.y,mouse_6.leftButton,mouse_6.midButton,mouse_6.rightButton,duringprac.thisRepN,duringprac.thisTrialN,duringprac.thisN,duringprac.thisIndex,duringprac.ran,participant,session,date,expName,psychopyVersion,OS,frameRate,study_id,mouse_7.clicked_name,catchpracsimilarity,catch_response_time,catchnumberprac,catchtrialorderprac,mouse_6.clicked_name,key_resp_22.keys,key_resp_22.rt,realcomparison,mouse.x,mouse.y,mouse.leftButton,mouse.midButton,mouse.rightButton,mouse.clicked_name,Colour2,similarity,mouse_2.x,mouse_2.y,mouse_2.leftButton,mouse_2.midButton,mouse_2.rightButton,mouse_2.clicked_name,mouse_3.x,mouse_3.y,mouse_3.leftButton,mouse_3.midButton,mouse_3.rightButton,mouse_11.x,mouse_11.y,mouse_11.leftButton,mouse_11.midButton,mouse_11.rightButton,trials_2.thisRepN,trials_2.thisTrialN,trials_2.thisN,trials_2.thisIndex,trials_2.ran,Colour1,mouse_3.clicked_name,catchornah,catchsimilarity,catchnumber,catchtrialorder,catchRT,mouse_11.clicked_name
space,1.365,space,2.765,space,32.885,space,9.657,space,0.797,space,3.395,125,PF,-23,87,1,0,0,response7disk_5,0,38.933,-6,-8,1,0,0,rectangle_8,-6,-8,1,0,0,-6,-8,1,0,0,0,0,0,6,1,61023d86ff017d53fdb4970e,61036d49d1f92de10ffb3ee2,2021-07-29_21h09.26.303,Simcolourproject_2stim_asymm_v5,2020.2.10,MacIntel,60,61025ae37ef11b136ea224fe,,,,,,,,,,,,,,,,,,,,,,,,,,,,,,,,,,,,,,,,,,,,,,
,,,,,,,,,,,,77,PF,42,101,1,0,0,response1disk_5,7,4.585,-6,-1,1,0,0,rectangle_8,-35,112,1,0,0,-7,-2,1,0,0,0,1,1,4,1,61023d86ff017d53fdb4970e,61036d49d1f92de10ffb3ee2,2021-07-29_21h09.26.303,Simcolourproject_2stim_asymm_v5,2020.2.10,MacIntel,60,61025ae37ef11b136ea224fe,response7disk_7,0,2.636,0,"[2,5]",rectangle_4,,,,,,,,,,,,,,,,,,,,,,,,,,,,,,,,,,,,,,,,
,,,,,,,,,,,,109,PF,42,104,1,0,0,response1disk_5,7,2.452,-10,2,1,0,0,rectangle_8,-10,2,1,0,0,-10,2,1,0,0,0,2,2,2,1,61023d86ff017d53fdb4970e,61036d49d1f92de10ffb3ee2,2021-07-29_21h09.26.303,Simcolourproject_2stim_asymm_v5,2020.2.10,MacIntel,60,61025ae37ef11b136ea224fe,,,,,,,,,,,,,,,,,,,,,,,,,,,,,,,,,,,,,,,,,,,,,,
,,,,,,,,,,,,107,FF,46,109,1,0,0,response1disk_5,7,2.948,1,2,1,0,0,rectangle_8,1,2,1,0,0,1,2,1,0,0,0,3,3,5,1,61023d86ff017d53fdb4970e,61036d49d1f92de10ffb3ee2,2021-07-29_21h09.26.303,Simcolourproject_2stim_asymm_v5,2020.2.10,MacIntel,60,61025ae37ef11b136ea224fe,,,,,,,,,,,,,,,,,,,,,,,,,,,,,,,,,,,,,,,,,,,,,,
,,,,,,,,,,,,127,FF,36,108,1,0,0,response1disk_5,7,1.499,0,-4,1,0,0,rectangle_8,-40,109,1,0,0,-21,-1,1,0,0,0,4,4,3,1,61023d86ff017d53fdb4970e,61036d49d1f92de10ffb3ee2,2021-07-29_21h09.26.303,Simcolourproject_2stim_asymm_v5,2020.2.10,MacIntel,60,61025ae37ef11b136ea224fe,response7disk_7,0,3.883,0,"[2,5]",rectangle_4,,,,,,,,,,,,,,,,,,,,,,,,,,,,,,,,,,,,,,,,
,,,,,,,,,,,,66,FF,36,-81,1,0,0,response3disk_5,4,6.2,-7,5,1,0,0,rectangle_8,-7,5,1,0,0,-7,5,1,0,0,0,5,5,0,1,61023d86ff017d53fdb4970e,61036d49d1f92de10ffb3ee2,2021-07-29_21h09.26.303,Simcolourproject_2stim_asymm_v5,2020.2.10,MacIntel,60,61025ae37ef11b136ea224fe,,,,,,,,,,,,,,,,,,,,,,,,,,,,,,,,,,,,,,,,,,,,,,
,,,,,,,,,,,,87,PF,34,-84,1,0,0,response3disk_5,4,4.248,-2,-1,1,0,0,rectangle_8,-2,-1,1,0,0,-2,-1,1,0,0,0,6,6,1,1,61023d86ff017d53fdb4970e,61036d49d1f92de10ffb3ee2,2021-07-29_21h09.26.303,Simcolourproject_2stim_asymm_v5,2020.2.10,MacIntel,60,61025ae37ef11b136ea224fe,,,,,,,,,,,,,,,,,,,,,,,,,,,,,,,,,,,,,,,,,,,,,,
,,,,,,,,,,,,,FF,,,,,,,,4.666,,,,,,,,,,,,,,,,,,,,,,61023d86ff017d53fdb4970e,61036d49d1f92de10ffb3ee2,2021-07-29_21h09.26.303,Simcolourproject_2stim_asymm_v5,2020.2.10,MacIntel,60,61025ae37ef11b136ea224fe,,,,,,,space,2.461,3161,-89,38,1,0,0,response7disk,,1,-7,-1,1,0,0,rectangle,-7,-1,1,0,0,-7,-1,1,0,0,0,0,0,4,1,,,,,,,,
,,,,,,,,,,,,,FF,,,,,,,,7.666,,,,,,,,,,,,,,,,,,,,,,61023d86ff017d53fdb4970e,61036d49d1f92de10ffb3ee2,2021-07-29_21h09.26.303,Simcolourproject_2stim_asymm_v5,2020.2.10,MacIntel,60,61025ae37ef11b136ea224fe,,,,,,,,,2978,41,103,1,0,0,response1disk,,7,2,2,1,0,0,rectangle,2,2,1,0,0,2,2,1,0,0,0,1,1,156,1,,,,,,,,
,,,,,,,,,,,,,FF,,,,,,,,7.232,,,,,,,,,,,,,,,,,,,,,,61023d86ff017d53fdb4970e,61036d49d1f92de10ffb3ee2,2021-07-29_21h09.26.303,Simcolourproject_2stim_asymm_v5,2020.2.10,MacIntel,60,61025ae37ef11b136ea224fe,,,,,,,,,3299,42,109,1,0,0,response1disk,,7,-16,-8,1,0,0,rectangle,105,42,1,0,0,-13,-7,1,0,0,0,2,2,51,1,,response1disk_3,TRUE,6,6,"[218,110,10,293,96,272,224,207,71,166,197,292,74,305,3,67,141,8,187,198]",1.784,rectangle
,,,,,,,,,,,,,FF,,,,,,,,5.284,,,,,,,,,,,,,,,,,,,,,,61023d86ff017d53fdb4970e,61036d49d1f92de10ffb3ee2,2021-07-29_21h09.26.303,Simcolourproject_2stim_asymm_v5,2020.2.10,MacIntel,60,61025ae37ef11b136ea224fe,,,,,,,,,4189,-87,-31,1,0,0,response5disk,,2,-27,0,1,0,0,rectangle,-27,0,1,0,0,-27,0,1,0,0,0,3,3,8,1,,,,,,,,
,,,,,,,,,,,,,FF,,,,,,,,1.799,,,,,,,,,,,,,,,,,,,,,,61023d86ff017d53fdb4970e,61036d49d1f92de10ffb3ee2,2021-07-29_21h09.26.303,Simcolourproject_2stim_asymm_v5,2020.2.10,MacIntel,60,61025ae37ef11b136ea224fe,,,,,,,,,3028,30,108,1,0,0,response1disk,,7,2,-3,1,0,0,rectangle,2,-3,1,0,0,2,-3,1,0,0,0,4,4,98,1,,,,,,,,
,,,,,,,,,,,,,FF,,,,,,,,1.583,,,,,,,,,,,,,,,,,,,,,,61023d86ff017d53fdb4970e,61036d49d1f92de10ffb3ee2,2021-07-29_21h09.26.303,Simcolourproject_2stim_asymm_v5,2020.2.10,MacIntel,60,61025ae37ef11b136ea224fe,,,,,,,,,1037,-38,-107,1,0,0,response5disk,,3,-3,0,1,0,0,rectangle,-3,0,1,0,0,-3,0,1,0,0,0,5,5,15,1,,,,,,,,
,,,,,,,,,,,,,FF,,,,,,,,2.6,,,,,,,,,,,,,,,,,,,,,,61023d86ff017d53fdb4970e,61036d49d1f92de10ffb3ee2,2021-07-29_21h09.26.303,Simcolourproject_2stim_asymm_v5,2020.2.10,MacIntel,60,61025ae37ef11b136ea224fe,,,,,,,,,2804,44,109,1,0,0,response1disk,,7,6,6,1,0,0,rectangle,6,6,1,0,0,6,6,1,0,0,0,6,6,22,1,,,,,,,,
,,,,,,,,,,,,,FF,,,,,,,,3.283,,,,,,,,,,,,,,,,,,,,,,61023d86ff017d53fdb4970e,61036d49d1f92de10ffb3ee2,2021-07-29_21h09.26.303,Simcolourproject_2stim_asymm_v5,2020.2.10,MacIntel,60,61025ae37ef11b136ea224fe,,,,,,,,,472,40,107,1,0,0,response1disk,,7,-3,-8,1,0,0,rectangle,108,35,1,0,0,-20,-3,1,0,0,0,7,7,49,1,,response1disk_3,TRUE,6,6,"[218,110,10,293,96,272,224,207,71,166,197,292,74,305,3,67,141,8,187,198]",1.966,rectangle
,,,,,,,,,,,,,FF,,,,,,,,1.368,,,,,,,,,,,,,,,,,,,,,,61023d86ff017d53fdb4970e,61036d49d1f92de10ffb3ee2,2021-07-29_21h09.26.303,Simcolourproject_2stim_asymm_v5,2020.2.10,MacIntel,60,61025ae37ef11b136ea224fe,,,,,,,,,2725,-92,-30,1,0,0,response5disk,,2,-21,1,1,0,0,rectangle,-21,1,1,0,0,-21,1,1,0,0,0,8,8,133,1,,,,,,,,
,,,,,,,,,,,,,FF,,,,,,,,1.099,,,,,,,,,,,,,,,,,,,,,,61023d86ff017d53fdb4970e,61036d49d1f92de10ffb3ee2,2021-07-29_21h09.26.303,Simcolourproject_2stim_asymm_v5,2020.2.10,MacIntel,60,61025ae37ef11b136ea224fe,,,,,,,,,2751,42,103,1,0,0,response1disk,,7,4,1,1,0,0,rectangle,45,-111,1,0,0,0,10,1,0,0,0,9,9,150,1,,response3disk_3,TRUE,4,4,"[218,110,10,293,96,272,224,207,71,166,197,292,74,305,3,67,141,8,187,198]",2.199,rectangle
,,,,,,,,,,,,,FF,,,,,,,,7.967,,,,,,,,,,,,,,,,,,,,,,61023d86ff017d53fdb4970e,61036d49d1f92de10ffb3ee2,2021-07-29_21h09.26.303,Simcolourproject_2stim_asymm_v5,2020.2.10,MacIntel,60,61025ae37ef11b136ea224fe,,,,,,,,,2136,38,110,1,0,0,response1disk,,7,-3,-4,1,0,0,rectangle,-3,-4,1,0,0,-3,-4,1,0,0,0,10,10,28,1,,,,,,,,
,,,,,,,,,,,,,FF,,,,,,,,1.317,,,,,,,,,,,,,,,,,,,,,,61023d86ff017d53fdb4970e,61036d49d1f92de10ffb3ee2,2021-07-29_21h09.26.303,Simcolourproject_2stim_asymm_v5,2020.2.10,MacIntel,60,61025ae37ef11b136ea224fe,,,,,,,,,3731,41,106,1,0,0,response1disk,,7,-1,-10,1,0,0,rectangle,-1,-10,1,0,0,-1,-10,1,0,0,0,11,11,104,1,,,,,,,,
,,,,,,,,,,,,,FF,,,,,,,,2.051,,,,,,,,,,,,,,,,,,,,,,61023d86ff017d53fdb4970e,61036d49d1f92de10ffb3ee2,2021-07-29_21h09.26.303,Simcolourproject_2stim_asymm_v5,2020.2.10,MacIntel,60,61025ae37ef11b136ea224fe,,,,,,,,,798,43,111,1,0,0,response1disk,,7,2,-3,1,0,0,rectangle,2,-3,1,0,0,2,-3,1,0,0,0,12,12,124,1,,,,,,,,
,,,,,,,,,,,,,FF,,,,,,,,1.533,,,,,,,,,,,,,,,,,,,,,,61023d86ff017d53fdb4970e,61036d49d1f92de10ffb3ee2,2021-07-29_21h09.26.303,Simcolourproject_2stim_asymm_v5,2020.2.10,MacIntel,60,61025ae37ef11b136ea224fe,,,,,,,,,3530,42,110,1,0,0,response1disk,,7,10,5,1,0,0,rectangle,10,5,1,0,0,10,5,1,0,0,0,13,13,1,1,,,,,,,,
,,,,,,,,,,,,,FF,,,,,,,,2.017,,,,,,,,,,,,,,,,,,,,,,61023d86ff017d53fdb4970e,61036d49d1f92de10ffb3ee2,2021-07-29_21h09.26.303,Simcolourproject_2stim_asymm_v5,2020.2.10,MacIntel,60,61025ae37ef11b136ea224fe,,,,,,,,,838,95,33,1,0,0,response1disk,,6,-14,-1,1,0,0,rectangle,-14,-1,1,0,0,-14,-1,1,0,0,0,14,14,58,1,,,,,,,,
,,,,,,,,,,,,,FF,,,,,,,,2.434,,,,,,,,,,,,,,,,,,,,,,61023d86ff017d53fdb4970e,61036d49d1f92de10ffb3ee2,2021-07-29_21h09.26.303,Simcolourproject_2stim_asymm_v5,2020.2.10,MacIntel,60,61025ae37ef11b136ea224fe,,,,,,,,,3523,45,-95,1,0,0,response3disk,,4,-1,3,1,0,0,rectangle,-1,3,1,0,0,-1,3,1,0,0,0,15,15,78,1,,,,,,,,
,,,,,,,,,,,,,FF,,,,,,,,3.05,,,,,,,,,,,,,,,,,,,,,,61023d86ff017d53fdb4970e,61036d49d1f92de10ffb3ee2,2021-07-29_21h09.26.303,Simcolourproject_2stim_asymm_v5,2020.2.10,MacIntel,60,61025ae37ef11b136ea224fe,,,,,,,,,1844,41,-109,1,0,0,response3disk,,4,-1,-4,1,0,0,rectangle,-1,-4,1,0,0,-1,-4,1,0,0,0,16,16,147,1,,,,,,,,
,,,,,,,,,,,,,FF,,,,,,,,2.684,,,,,,,,,,,,,,,,,,,,,,61023d86ff017d53fdb4970e,61036d49d1f92de10ffb3ee2,2021-07-29_21h09.26.303,Simcolourproject_2stim_asymm_v5,2020.2.10,MacIntel,60,61025ae37ef11b136ea224fe,,,,,,,,,361,104,43,1,0,0,response1disk,,6,-4,-2,1,0,0,rectangle,-4,-2,1,0,0,-4,-2,1,0,0,0,17,17,55,1,,,,,,,,
,,,,,,,,,,,,,FF,,,,,,,,3.051,,,,,,,,,,,,,,,,,,,,,,61023d86ff017d53fdb4970e,61036d49d1f92de10ffb3ee2,2021-07-29_21h09.26.303,Simcolourproject_2stim_asymm_v5,2020.2.10,MacIntel,60,61025ae37ef11b136ea224fe,,,,,,,,,10,87,-40,1,0,0,response3disk,,5,9,4,1,0,0,rectangle,9,4,1,0,0,9,4,1,0,0,0,18,18,53,1,,,,,,,,
,,,,,,,,,,,,,FF,,,,,,,,1.217,,,,,,,,,,,,,,,,,,,,,,61023d86ff017d53fdb4970e,61036d49d1f92de10ffb3ee2,2021-07-29_21h09.26.303,Simcolourproject_2stim_asymm_v5,2020.2.10,MacIntel,60,61025ae37ef11b136ea224fe,,,,,,,,,1163,33,104,1,0,0,response1disk,,7,-13,-13,1,0,0,rectangle,-13,-13,1,0,0,-13,-13,1,0,0,0,19,19,112,1,,,,,,,,
,,,,,,,,,,,,,FF,,,,,,,,3.284,,,,,,,,,,,,,,,,,,,,,,61023d86ff017d53fdb4970e,61036d49d1f92de10ffb3ee2,2021-07-29_21h09.26.303,Simcolourproject_2stim_asymm_v5,2020.2.10,MacIntel,60,61025ae37ef11b136ea224fe,,,,,,,,,4138,38,105,1,0,0,response1disk,,7,-7,10,1,0,0,rectangle,-7,10,1,0,0,-7,10,1,0,0,0,20,20,145,1,,,,,,,,
,,,,,,,,,,,,,FF,,,,,,,,1.117,,,,,,,,,,,,,,,,,,,,,,61023d86ff017d53fdb4970e,61036d49d1f92de10ffb3ee2,2021-07-29_21h09.26.303,Simcolourproject_2stim_asymm_v5,2020.2.10,MacIntel,60,61025ae37ef11b136ea224fe,,,,,,,,,1215,-92,-32,1,0,0,response5disk,,2,-24,9,1,0,0,rectangle,-24,9,1,0,0,-24,9,1,0,0,0,21,21,9,1,,,,,,,,
,,,,,,,,,,,,,FF,,,,,,,,1.45,,,,,,,,,,,,,,,,,,,,,,61023d86ff017d53fdb4970e,61036d49d1f92de10ffb3ee2,2021-07-29_21h09.26.303,Simcolourproject_2stim_asymm_v5,2020.2.10,MacIntel,60,61025ae37ef11b136ea224fe,,,,,,,,,2509,102,34,1,0,0,response1disk,,6,25,15,1,0,0,rectangle,25,15,1,0,0,25,15,1,0,0,0,22,22,69,1,,,,,,,,
,,,,,,,,,,,,,FF,,,,,,,,0.95,,,,,,,,,,,,,,,,,,,,,,61023d86ff017d53fdb4970e,61036d49d1f92de10ffb3ee2,2021-07-29_21h09.26.303,Simcolourproject_2stim_asymm_v5,2020.2.10,MacIntel,60,61025ae37ef11b136ea224fe,,,,,,,,,1329,104,44,1,0,0,response1disk,,6,12,4,1,0,0,rectangle,12,4,1,0,0,12,4,1,0,0,0,23,23,83,1,,,,,,,,
,,,,,,,,,,,,,FF,,,,,,,,1.184,,,,,,,,,,,,,,,,,,,,,,61023d86ff017d53fdb4970e,61036d49d1f92de10ffb3ee2,2021-07-29_21h09.26.303,Simcolourproject_2stim_asymm_v5,2020.2.10,MacIntel,60,61025ae37ef11b136ea224fe,,,,,,,,,1289,43,118,1,0,0,response1disk,,7,-26,-1,1,0,0,rectangle,-26,-1,1,0,0,-26,-1,1,0,0,0,24,24,74,1,,,,,,,,
,,,,,,,,,,,,,FF,,,,,,,,0.9,,,,,,,,,,,,,,,,,,,,,,61023d86ff017d53fdb4970e,61036d49d1f92de10ffb3ee2,2021-07-29_21h09.26.303,Simcolourproject_2stim_asymm_v5,2020.2.10,MacIntel,60,61025ae37ef11b136ea224fe,,,,,,,,,4159,39,98,1,0,0,response1disk,,7,-6,0,1,0,0,rectangle,-6,0,1,0,0,-6,0,1,0,0,0,25,25,94,1,,,,,,,,
,,,,,,,,,,,,,FF,,,,,,,,1.516,,,,,,,,,,,,,,,,,,,,,,61023d86ff017d53fdb4970e,61036d49d1f92de10ffb3ee2,2021-07-29_21h09.26.303,Simcolourproject_2stim_asymm_v5,2020.2.10,MacIntel,60,61025ae37ef11b136ea224fe,,,,,,,,,4069,85,-23,1,0,0,response3disk,,5,14,-4,1,0,0,rectangle,14,-4,1,0,0,14,-4,1,0,0,0,26,26,19,1,,,,,,,,
,,,,,,,,,,,,,FF,,,,,,,,1.066,,,,,,,,,,,,,,,,,,,,,,61023d86ff017d53fdb4970e,61036d49d1f92de10ffb3ee2,2021-07-29_21h09.26.303,Simcolourproject_2stim_asymm_v5,2020.2.10,MacIntel,60,61025ae37ef11b136ea224fe,,,,,,,,,1344,52,102,1,0,0,response1disk,,7,1,5,1,0,0,rectangle,1,5,1,0,0,1,5,1,0,0,0,27,27,62,1,,,,,,,,
,,,,,,,,,,,,,FF,,,,,,,,1.05,,,,,,,,,,,,,,,,,,,,,,61023d86ff017d53fdb4970e,61036d49d1f92de10ffb3ee2,2021-07-29_21h09.26.303,Simcolourproject_2stim_asymm_v5,2020.2.10,MacIntel,60,61025ae37ef11b136ea224fe,,,,,,,,,1075,34,111,1,0,0,response1disk,,7,13,4,1,0,0,rectangle,13,4,1,0,0,13,4,1,0,0,0,28,28,107,1,,,,,,,,
,,,,,,,,,,,,,FF,,,,,,,,1.333,,,,,,,,,,,,,,,,,,,,,,61023d86ff017d53fdb4970e,61036d49d1f92de10ffb3ee2,2021-07-29_21h09.26.303,Simcolourproject_2stim_asymm_v5,2020.2.10,MacIntel,60,61025ae37ef11b136ea224fe,,,,,,,,,2284,92,-31,1,0,0,response3disk,,5,8,-4,1,0,0,rectangle,8,-4,1,0,0,8,-4,1,0,0,0,29,29,79,1,,,,,,,,
,,,,,,,,,,,,,FF,,,,,,,,2.249,,,,,,,,,,,,,,,,,,,,,,61023d86ff017d53fdb4970e,61036d49d1f92de10ffb3ee2,2021-07-29_21h09.26.303,Simcolourproject_2stim_asymm_v5,2020.2.10,MacIntel,60,61025ae37ef11b136ea224fe,,,,,,,,,467,103,33,1,0,0,response1disk,,6,4,3,1,0,0,rectangle,4,3,1,0,0,4,3,1,0,0,0,30,30,43,1,,,,,,,,
,,,,,,,,,,,,,FF,,,,,,,,2.15,,,,,,,,,,,,,,,,,,,,,,61023d86ff017d53fdb4970e,61036d49d1f92de10ffb3ee2,2021-07-29_21h09.26.303,Simcolourproject_2stim_asymm_v5,2020.2.10,MacIntel,60,61025ae37ef11b136ea224fe,,,,,,,,,4341,38,112,1,0,0,response1disk,,7,15,13,1,0,0,rectangle,15,13,1,0,0,15,13,1,0,0,0,31,31,61,1,,,,,,,,
,,,,,,,,,,,,,FF,,,,,,,,1.2,,,,,,,,,,,,,,,,,,,,,,61023d86ff017d53fdb4970e,61036d49d1f92de10ffb3ee2,2021-07-29_21h09.26.303,Simcolourproject_2stim_asymm_v5,2020.2.10,MacIntel,60,61025ae37ef11b136ea224fe,,,,,,,,,3771,97,-27,1,0,0,response3disk,,5,10,-5,1,0,0,rectangle,10,-5,1,0,0,10,-5,1,0,0,0,32,32,153,1,,,,,,,,
,,,,,,,,,,,,,FF,,,,,,,,1.117,,,,,,,,,,,,,,,,,,,,,,61023d86ff017d53fdb4970e,61036d49d1f92de10ffb3ee2,2021-07-29_21h09.26.303,Simcolourproject_2stim_asymm_v5,2020.2.10,MacIntel,60,61025ae37ef11b136ea224fe,,,,,,,,,1158,93,27,1,0,0,response1disk,,6,-2,-14,1,0,0,rectangle,-2,-14,1,0,0,-2,-14,1,0,0,0,33,33,105,1,,,,,,,,
,,,,,,,,,,,,,FF,,,,,,,,0.816,,,,,,,,,,,,,,,,,,,,,,61023d86ff017d53fdb4970e,61036d49d1f92de10ffb3ee2,2021-07-29_21h09.26.303,Simcolourproject_2stim_asymm_v5,2020.2.10,MacIntel,60,61025ae37ef11b136ea224fe,,,,,,,,,1334,30,102,1,0,0,response1disk,,7,-6,-1,1,0,0,rectangle,-6,-1,1,0,0,-6,-1,1,0,0,0,34,34,159,1,,,,,,,,
,,,,,,,,,,,,,FF,,,,,,,,0.834,,,,,,,,,,,,,,,,,,,,,,61023d86ff017d53fdb4970e,61036d49d1f92de10ffb3ee2,2021-07-29_21h09.26.303,Simcolourproject_2stim_asymm_v5,2020.2.10,MacIntel,60,61025ae37ef11b136ea224fe,,,,,,,,,4280,-40,107,1,0,0,response7disk,,0,11,-9,1,0,0,rectangle,11,-9,1,0,0,11,-9,1,0,0,0,35,35,130,1,,,,,,,,
,,,,,,,,,,,,,FF,,,,,,,,2.899,,,,,,,,,,,,,,,,,,,,,,61023d86ff017d53fdb4970e,61036d49d1f92de10ffb3ee2,2021-07-29_21h09.26.303,Simcolourproject_2stim_asymm_v5,2020.2.10,MacIntel,60,61025ae37ef11b136ea224fe,,,,,,,,,3393,22,-104,1,0,0,response3disk,,4,-9,5,1,0,0,rectangle,-9,5,1,0,0,-9,5,1,0,0,0,36,36,149,1,,,,,,,,
,,,,,,,,,,,,,FF,,,,,,,,0.8,,,,,,,,,,,,,,,,,,,,,,61023d86ff017d53fdb4970e,61036d49d1f92de10ffb3ee2,2021-07-29_21h09.26.303,Simcolourproject_2stim_asymm_v5,2020.2.10,MacIntel,60,61025ae37ef11b136ea224fe,,,,,,,,,445,-41,-76,1,0,0,response5disk,,3,-16,0,1,0,0,rectangle,-16,0,1,0,0,-16,0,1,0,0,0,37,37,134,1,,,,,,,,
,,,,,,,,,,,,,FF,,,,,,,,1.25,,,,,,,,,,,,,,,,,,,,,,61023d86ff017d53fdb4970e,61036d49d1f92de10ffb3ee2,2021-07-29_21h09.26.303,Simcolourproject_2stim_asymm_v5,2020.2.10,MacIntel,60,61025ae37ef11b136ea224fe,,,,,,,,,1059,36,-102,1,0,0,response3disk,,4,7,7,1,0,0,rectangle,7,7,1,0,0,7,7,1,0,0,0,38,38,14,1,,,,,,,,
,,,,,,,,,,,,,FF,,,,,,,,1.3,,,,,,,,,,,,,,,,,,,,,,61023d86ff017d53fdb4970e,61036d49d1f92de10ffb3ee2,2021-07-29_21h09.26.303,Simcolourproject_2stim_asymm_v5,2020.2.10,MacIntel,60,61025ae37ef11b136ea224fe,,,,,,,,,2101,20,-107,1,0,0,response3disk,,4,3,9,1,0,0,rectangle,3,9,1,0,0,3,9,1,0,0,0,39,39,131,1,,,,,,,,
,,,,,,,,,,,,,FF,,,,,,,,2,,,,,,,,,,,,,,,,,,,,,,61023d86ff017d53fdb4970e,61036d49d1f92de10ffb3ee2,2021-07-29_21h09.26.303,Simcolourproject_2stim_asymm_v5,2020.2.10,MacIntel,60,61025ae37ef11b136ea224fe,,,,,,,,,311,102,41,1,0,0,response1disk,,6,23,11,1,0,0,rectangle,23,11,1,0,0,23,11,1,0,0,0,40,40,54,1,,,,,,,,
,,,,,,,,,,,,,FF,,,,,,,,1.35,,,,,,,,,,,,,,,,,,,,,,61023d86ff017d53fdb4970e,61036d49d1f92de10ffb3ee2,2021-07-29_21h09.26.303,Simcolourproject_2stim_asymm_v5,2020.2.10,MacIntel,60,61025ae37ef11b136ea224fe,,,,,,,,,694,89,-39,1,0,0,response3disk,,5,7,-3,1,0,0,rectangle,7,-3,1,0,0,7,-3,1,0,0,0,41,41,119,1,,,,,,,,
,,,,,,,,,,,,,FF,,,,,,,,0.999,,,,,,,,,,,,,,,,,,,,,,61023d86ff017d53fdb4970e,61036d49d1f92de10ffb3ee2,2021-07-29_21h09.26.303,Simcolourproject_2stim_asymm_v5,2020.2.10,MacIntel,60,61025ae37ef11b136ea224fe,,,,,,,,,3130,39,121,1,0,0,response1disk,,7,4,10,1,0,0,rectangle,4,10,1,0,0,4,10,1,0,0,0,42,42,84,1,,,,,,,,
,,,,,,,,,,,,,FF,,,,,,,,0.851,,,,,,,,,,,,,,,,,,,,,,61023d86ff017d53fdb4970e,61036d49d1f92de10ffb3ee2,2021-07-29_21h09.26.303,Simcolourproject_2stim_asymm_v5,2020.2.10,MacIntel,60,61025ae37ef11b136ea224fe,,,,,,,,,1069,86,36,1,0,0,response1disk,,6,-16,1,1,0,0,rectangle,-16,1,1,0,0,-16,1,1,0,0,0,43,43,60,1,,,,,,,,
,,,,,,,,,,,,,FF,,,,,,,,1.867,,,,,,,,,,,,,,,,,,,,,,61023d86ff017d53fdb4970e,61036d49d1f92de10ffb3ee2,2021-07-29_21h09.26.303,Simcolourproject_2stim_asymm_v5,2020.2.10,MacIntel,60,61025ae37ef11b136ea224fe,,,,,,,,,3245,-89,-24,1,0,0,response5disk,,2,-5,14,1,0,0,rectangle,-5,14,1,0,0,-5,14,1,0,0,0,44,44,81,1,,,,,,,,
,,,,,,,,,,,,,FF,,,,,,,,1.284,,,,,,,,,,,,,,,,,,,,,,61023d86ff017d53fdb4970e,61036d49d1f92de10ffb3ee2,2021-07-29_21h09.26.303,Simcolourproject_2stim_asymm_v5,2020.2.10,MacIntel,60,61025ae37ef11b136ea224fe,,,,,,,,,830,52,-104,1,0,0,response3disk,,4,12,17,1,0,0,rectangle,12,17,1,0,0,12,17,1,0,0,0,45,45,38,1,,,,,,,,
,,,,,,,,,,,,,FF,,,,,,,,0.751,,,,,,,,,,,,,,,,,,,,,,61023d86ff017d53fdb4970e,61036d49d1f92de10ffb3ee2,2021-07-29_21h09.26.303,Simcolourproject_2stim_asymm_v5,2020.2.10,MacIntel,60,61025ae37ef11b136ea224fe,,,,,,,,,964,45,74,1,0,0,response1disk,,7,11,2,1,0,0,rectangle,11,2,1,0,0,11,2,1,0,0,0,46,46,114,1,,,,,,,,
,,,,,,,,,,,,,FF,,,,,,,,1.034,,,,,,,,,,,,,,,,,,,,,,61023d86ff017d53fdb4970e,61036d49d1f92de10ffb3ee2,2021-07-29_21h09.26.303,Simcolourproject_2stim_asymm_v5,2020.2.10,MacIntel,60,61025ae37ef11b136ea224fe,,,,,,,,,2815,92,34,1,0,0,response1disk,,6,4,0,1,0,0,rectangle,4,0,1,0,0,4,0,1,0,0,0,47,47,50,1,,,,,,,,
,,,,,,,,,,,,,FF,,,,,,,,1.383,,,,,,,,,,,,,,,,,,,,,,61023d86ff017d53fdb4970e,61036d49d1f92de10ffb3ee2,2021-07-29_21h09.26.303,Simcolourproject_2stim_asymm_v5,2020.2.10,MacIntel,60,61025ae37ef11b136ea224fe,,,,,,,,,431,41,-94,1,0,0,response3disk,,4,6,-1,1,0,0,rectangle,6,-1,1,0,0,6,-1,1,0,0,0,48,48,97,1,,,,,,,,
,,,,,,,,,,,,,FF,,,,,,,,0.8,,,,,,,,,,,,,,,,,,,,,,61023d86ff017d53fdb4970e,61036d49d1f92de10ffb3ee2,2021-07-29_21h09.26.303,Simcolourproject_2stim_asymm_v5,2020.2.10,MacIntel,60,61025ae37ef11b136ea224fe,,,,,,,,,3774,21,75,1,0,0,response1disk,,7,5,5,1,0,0,rectangle,5,5,1,0,0,5,5,1,0,0,0,49,49,144,1,,,,,,,,
,,,,,,,,,,,,,FF,,,,,,,,0.667,,,,,,,,,,,,,,,,,,,,,,61023d86ff017d53fdb4970e,61036d49d1f92de10ffb3ee2,2021-07-29_21h09.26.303,Simcolourproject_2stim_asymm_v5,2020.2.10,MacIntel,60,61025ae37ef11b136ea224fe,,,,,,,,,3658,100,58,1,0,0,response1disk,,6,5,1,1,0,0,rectangle,5,1,1,0,0,5,1,1,0,0,0,50,50,80,1,,,,,,,,
,,,,,,,,,,,,,FF,,,,,,,,1.017,,,,,,,,,,,,,,,,,,,,,,61023d86ff017d53fdb4970e,61036d49d1f92de10ffb3ee2,2021-07-29_21h09.26.303,Simcolourproject_2stim_asymm_v5,2020.2.10,MacIntel,60,61025ae37ef11b136ea224fe,,,,,,,,,1454,-90,-43,1,0,0,response5disk,,2,-17,-6,1,0,0,rectangle,-17,-6,1,0,0,-17,-6,1,0,0,0,51,51,23,1,,,,,,,,
,,,,,,,,,,,,,FF,,,,,,,,4.4,,,,,,,,,,,,,,,,,,,,,,61023d86ff017d53fdb4970e,61036d49d1f92de10ffb3ee2,2021-07-29_21h09.26.303,Simcolourproject_2stim_asymm_v5,2020.2.10,MacIntel,60,61025ae37ef11b136ea224fe,,,,,,,,,4158,83,-42,1,0,0,response3disk,,5,-10,-6,1,0,0,rectangle,-10,-6,1,0,0,-10,-6,1,0,0,0,52,52,12,1,,,,,,,,
,,,,,,,,,,,,,FF,,,,,,,,1.034,,,,,,,,,,,,,,,,,,,,,,61023d86ff017d53fdb4970e,61036d49d1f92de10ffb3ee2,2021-07-29_21h09.26.303,Simcolourproject_2stim_asymm_v5,2020.2.10,MacIntel,60,61025ae37ef11b136ea224fe,,,,,,,,,1731,22,94,1,0,0,response1disk,,7,-5,8,1,0,0,rectangle,-5,8,1,0,0,-5,8,1,0,0,0,53,53,44,1,,,,,,,,
,,,,,,,,,,,,,FF,,,,,,,,0.899,,,,,,,,,,,,,,,,,,,,,,61023d86ff017d53fdb4970e,61036d49d1f92de10ffb3ee2,2021-07-29_21h09.26.303,Simcolourproject_2stim_asymm_v5,2020.2.10,MacIntel,60,61025ae37ef11b136ea224fe,,,,,,,,,684,49,91,1,0,0,response1disk,,7,2,-2,1,0,0,rectangle,2,-2,1,0,0,2,-2,1,0,0,0,54,54,64,1,,,,,,,,
,,,,,,,,,,,,,FF,,,,,,,,1.915,,,,,,,,,,,,,,,,,,,,,,61023d86ff017d53fdb4970e,61036d49d1f92de10ffb3ee2,2021-07-29_21h09.26.303,Simcolourproject_2stim_asymm_v5,2020.2.10,MacIntel,60,61025ae37ef11b136ea224fe,,,,,,,,,54,100,50,1,0,0,response1disk,,6,-7,10,1,0,0,rectangle,-7,10,1,0,0,-7,10,1,0,0,0,55,55,33,1,,,,,,,,
,,,,,,,,,,,,,FF,,,,,,,,1.517,,,,,,,,,,,,,,,,,,,,,,61023d86ff017d53fdb4970e,61036d49d1f92de10ffb3ee2,2021-07-29_21h09.26.303,Simcolourproject_2stim_asymm_v5,2020.2.10,MacIntel,60,61025ae37ef11b136ea224fe,,,,,,,,,2911,56,100,1,0,0,response1disk,,7,-10,2,1,0,0,rectangle,-10,2,1,0,0,-10,2,1,0,0,0,56,56,126,1,,,,,,,,
,,,,,,,,,,,,,FF,,,,,,,,3.098,,,,,,,,,,,,,,,,,,,,,,61023d86ff017d53fdb4970e,61036d49d1f92de10ffb3ee2,2021-07-29_21h09.26.303,Simcolourproject_2stim_asymm_v5,2020.2.10,MacIntel,60,61025ae37ef11b136ea224fe,,,,,,,,,3959,45,96,1,0,0,response1disk,,7,3,0,1,0,0,rectangle,3,0,1,0,0,3,0,1,0,0,0,57,57,120,1,,,,,,,,
,,,,,,,,,,,,,FF,,,,,,,,0.667,,,,,,,,,,,,,,,,,,,,,,61023d86ff017d53fdb4970e,61036d49d1f92de10ffb3ee2,2021-07-29_21h09.26.303,Simcolourproject_2stim_asymm_v5,2020.2.10,MacIntel,60,61025ae37ef11b136ea224fe,,,,,,,,,3790,42,89,1,0,0,response1disk,,7,6,9,1,0,0,rectangle,6,9,1,0,0,6,9,1,0,0,0,58,58,85,1,,,,,,,,
,,,,,,,,,,,,,FF,,,,,,,,1.735,,,,,,,,,,,,,,,,,,,,,,61023d86ff017d53fdb4970e,61036d49d1f92de10ffb3ee2,2021-07-29_21h09.26.303,Simcolourproject_2stim_asymm_v5,2020.2.10,MacIntel,60,61025ae37ef11b136ea224fe,,,,,,,,,3417,89,-27,1,0,0,response3disk,,5,20,-9,1,0,0,rectangle,20,-9,1,0,0,20,-9,1,0,0,0,59,59,92,1,,,,,,,,
,,,,,,,,,,,,,FF,,,,,,,,3.382,,,,,,,,,,,,,,,,,,,,,,61023d86ff017d53fdb4970e,61036d49d1f92de10ffb3ee2,2021-07-29_21h09.26.303,Simcolourproject_2stim_asymm_v5,2020.2.10,MacIntel,60,61025ae37ef11b136ea224fe,,,,,,,,,4300,46,92,1,0,0,response1disk,,7,2,-7,1,0,0,rectangle,2,-7,1,0,0,2,-7,1,0,0,0,60,60,121,1,,,,,,,,
,,,,,,,,,,,,,FF,,,,,,,,0.899,,,,,,,,,,,,,,,,,,,,,,61023d86ff017d53fdb4970e,61036d49d1f92de10ffb3ee2,2021-07-29_21h09.26.303,Simcolourproject_2stim_asymm_v5,2020.2.10,MacIntel,60,61025ae37ef11b136ea224fe,,,,,,,,,1757,-56,-88,1,0,0,response5disk,,3,-13,1,1,0,0,rectangle,-13,1,1,0,0,-13,1,1,0,0,0,61,61,10,1,,,,,,,,
,,,,,,,,,,,,,FF,,,,,,,,0.667,,,,,,,,,,,,,,,,,,,,,,61023d86ff017d53fdb4970e,61036d49d1f92de10ffb3ee2,2021-07-29_21h09.26.303,Simcolourproject_2stim_asymm_v5,2020.2.10,MacIntel,60,61025ae37ef11b136ea224fe,,,,,,,,,797,94,102,1,0,0,response1disk,,7,-28,-15,1,0,0,rectangle,-28,-15,1,0,0,-28,-15,1,0,0,0,62,62,95,1,,,,,,,,
,,,,,,,,,,,,,FF,,,,,,,,1.683,,,,,,,,,,,,,,,,,,,,,,61023d86ff017d53fdb4970e,61036d49d1f92de10ffb3ee2,2021-07-29_21h09.26.303,Simcolourproject_2stim_asymm_v5,2020.2.10,MacIntel,60,61025ae37ef11b136ea224fe,,,,,,,,,2229,-44,-58,1,0,0,response5disk,,3,-6,-2,1,0,0,rectangle,-6,-2,1,0,0,-6,-2,1,0,0,0,63,63,93,1,,,,,,,,
,,,,,,,,,,,,,FF,,,,,,,,1.733,,,,,,,,,,,,,,,,,,,,,,61023d86ff017d53fdb4970e,61036d49d1f92de10ffb3ee2,2021-07-29_21h09.26.303,Simcolourproject_2stim_asymm_v5,2020.2.10,MacIntel,60,61025ae37ef11b136ea224fe,,,,,,,,,3692,49,86,1,0,0,response1disk,,7,-3,4,1,0,0,rectangle,-3,4,1,0,0,-3,4,1,0,0,0,64,64,86,1,,,,,,,,
,,,,,,,,,,,,,FF,,,,,,,,1.066,,,,,,,,,,,,,,,,,,,,,,61023d86ff017d53fdb4970e,61036d49d1f92de10ffb3ee2,2021-07-29_21h09.26.303,Simcolourproject_2stim_asymm_v5,2020.2.10,MacIntel,60,61025ae37ef11b136ea224fe,,,,,,,,,2525,43,105,1,0,0,response1disk,,7,0,0,1,0,0,rectangle,0,0,1,0,0,0,0,1,0,0,0,65,65,129,1,,,,,,,,
,,,,,,,,,,,,,FF,,,,,,,,1.034,,,,,,,,,,,,,,,,,,,,,,61023d86ff017d53fdb4970e,61036d49d1f92de10ffb3ee2,2021-07-29_21h09.26.303,Simcolourproject_2stim_asymm_v5,2020.2.10,MacIntel,60,61025ae37ef11b136ea224fe,,,,,,,,,1313,39,-85,1,0,0,response3disk,,4,8,-3,1,0,0,rectangle,-40,-106,1,0,0,8,12,1,0,0,0,66,66,141,1,,response5disk_3,TRUE,3,3,"[218,110,10,293,96,272,224,207,71,166,197,292,74,305,3,67,141,8,187,198]",1.816,rectangle
,,,,,,,,,,,,,FF,,,,,,,,2.468,,,,,,,,,,,,,,,,,,,,,,61023d86ff017d53fdb4970e,61036d49d1f92de10ffb3ee2,2021-07-29_21h09.26.303,Simcolourproject_2stim_asymm_v5,2020.2.10,MacIntel,60,61025ae37ef11b136ea224fe,,,,,,,,,2351,115,32,1,0,0,response1disk,,6,0,1,1,0,0,rectangle,0,1,1,0,0,0,1,1,0,0,0,67,67,59,1,,,,,,,,
,,,,,,,,,,,,,FF,,,,,,,,1.667,,,,,,,,,,,,,,,,,,,,,,61023d86ff017d53fdb4970e,61036d49d1f92de10ffb3ee2,2021-07-29_21h09.26.303,Simcolourproject_2stim_asymm_v5,2020.2.10,MacIntel,60,61025ae37ef11b136ea224fe,,,,,,,,,3916,87,29,1,0,0,response1disk,,6,9,0,1,0,0,rectangle,9,0,1,0,0,9,0,1,0,0,0,68,68,88,1,,,,,,,,
,,,,,,,,,,,,,FF,,,,,,,,0.583,,,,,,,,,,,,,,,,,,,,,,61023d86ff017d53fdb4970e,61036d49d1f92de10ffb3ee2,2021-07-29_21h09.26.303,Simcolourproject_2stim_asymm_v5,2020.2.10,MacIntel,60,61025ae37ef11b136ea224fe,,,,,,,,,228,75,107,1,0,0,response1disk,,7,14,-2,1,0,0,rectangle,14,-2,1,0,0,14,-2,1,0,0,0,69,69,152,1,,,,,,,,
,,,,,,,,,,,,,FF,,,,,,,,1.2,,,,,,,,,,,,,,,,,,,,,,61023d86ff017d53fdb4970e,61036d49d1f92de10ffb3ee2,2021-07-29_21h09.26.303,Simcolourproject_2stim_asymm_v5,2020.2.10,MacIntel,60,61025ae37ef11b136ea224fe,,,,,,,,,1835,41,-93,1,0,0,response3disk,,4,-3,-5,1,0,0,rectangle,-101,35,1,0,0,13,-2,1,0,0,0,70,70,87,1,,response7disk_3,TRUE,1,1,"[218,110,10,293,96,272,224,207,71,166,197,292,74,305,3,67,141,8,187,198]",1.366,rectangle
,,,,,,,,,,,,,FF,,,,,,,,0.899,,,,,,,,,,,,,,,,,,,,,,61023d86ff017d53fdb4970e,61036d49d1f92de10ffb3ee2,2021-07-29_21h09.26.303,Simcolourproject_2stim_asymm_v5,2020.2.10,MacIntel,60,61025ae37ef11b136ea224fe,,,,,,,,,753,54,106,1,0,0,response1disk,,7,-3,-11,1,0,0,rectangle,-3,-11,1,0,0,-3,-11,1,0,0,0,71,71,72,1,,,,,,,,
,,,,,,,,,,,,,FF,,,,,,,,5.784,,,,,,,,,,,,,,,,,,,,,,61023d86ff017d53fdb4970e,61036d49d1f92de10ffb3ee2,2021-07-29_21h09.26.303,Simcolourproject_2stim_asymm_v5,2020.2.10,MacIntel,60,61025ae37ef11b136ea224fe,,,,,,,,,879,46,70,1,0,0,response1disk,,7,-3,8,1,0,0,rectangle,-3,8,1,0,0,-3,8,1,0,0,0,72,72,75,1,,,,,,,,
,,,,,,,,,,,,,FF,,,,,,,,0.549,,,,,,,,,,,,,,,,,,,,,,61023d86ff017d53fdb4970e,61036d49d1f92de10ffb3ee2,2021-07-29_21h09.26.303,Simcolourproject_2stim_asymm_v5,2020.2.10,MacIntel,60,61025ae37ef11b136ea224fe,,,,,,,,,2868,44,91,1,0,0,response1disk,,7,-6,-5,1,0,0,rectangle,41,76,1,0,0,-2,0,1,0,0,0,73,73,146,1,,response1disk_3,TRUE,7,7,"[218,110,10,293,96,272,224,207,71,166,197,292,74,305,3,67,141,8,187,198]",1.116,rectangle
,,,,,,,,,,,,,FF,,,,,,,,2.501,,,,,,,,,,,,,,,,,,,,,,61023d86ff017d53fdb4970e,61036d49d1f92de10ffb3ee2,2021-07-29_21h09.26.303,Simcolourproject_2stim_asymm_v5,2020.2.10,MacIntel,60,61025ae37ef11b136ea224fe,,,,,,,,,423,79,-34,1,0,0,response3disk,,5,19,-1,1,0,0,rectangle,19,-1,1,0,0,19,-1,1,0,0,0,74,74,7,1,,,,,,,,
,,,,,,,,,,,,,FF,,,,,,,,0.933,,,,,,,,,,,,,,,,,,,,,,61023d86ff017d53fdb4970e,61036d49d1f92de10ffb3ee2,2021-07-29_21h09.26.303,Simcolourproject_2stim_asymm_v5,2020.2.10,MacIntel,60,61025ae37ef11b136ea224fe,,,,,,,,,354,31,-85,1,0,0,response3disk,,4,-5,1,1,0,0,rectangle,-5,1,1,0,0,-5,1,1,0,0,0,75,75,155,1,,,,,,,,
,,,,,,,,,,,,,FF,,,,,,,,0.75,,,,,,,,,,,,,,,,,,,,,,61023d86ff017d53fdb4970e,61036d49d1f92de10ffb3ee2,2021-07-29_21h09.26.303,Simcolourproject_2stim_asymm_v5,2020.2.10,MacIntel,60,61025ae37ef11b136ea224fe,,,,,,,,,1830,-42,-104,1,0,0,response5disk,,3,22,4,1,0,0,rectangle,22,4,1,0,0,22,4,1,0,0,0,76,76,143,1,,,,,,,,
,,,,,,,,,,,,,FF,,,,,,,,0.634,,,,,,,,,,,,,,,,,,,,,,61023d86ff017d53fdb4970e,61036d49d1f92de10ffb3ee2,2021-07-29_21h09.26.303,Simcolourproject_2stim_asymm_v5,2020.2.10,MacIntel,60,61025ae37ef11b136ea224fe,,,,,,,,,3690,54,83,1,0,0,response1disk,,7,10,2,1,0,0,rectangle,10,2,1,0,0,10,2,1,0,0,0,77,77,109,1,,,,,,,,
,,,,,,,,,,,,,FF,,,,,,,,1.049,,,,,,,,,,,,,,,,,,,,,,61023d86ff017d53fdb4970e,61036d49d1f92de10ffb3ee2,2021-07-29_21h09.26.303,Simcolourproject_2stim_asymm_v5,2020.2.10,MacIntel,60,61025ae37ef11b136ea224fe,,,,,,,,,463,90,40,1,0,0,response1disk,,6,18,4,1,0,0,rectangle,18,4,1,0,0,18,4,1,0,0,0,78,78,157,1,,,,,,,,
,,,,,,,,,,,,,FF,,,,,,,,0.9,,,,,,,,,,,,,,,,,,,,,,61023d86ff017d53fdb4970e,61036d49d1f92de10ffb3ee2,2021-07-29_21h09.26.303,Simcolourproject_2stim_asymm_v5,2020.2.10,MacIntel,60,61025ae37ef11b136ea224fe,,,,,,,,,2735,77,36,1,0,0,response1disk,,6,0,-7,1,0,0,rectangle,0,-7,1,0,0,0,-7,1,0,0,0,79,79,66,1,,,,,,,,
,,,,,,,,,,,,,FF,,,,,,,,0.65,,,,,,,,,,,,,,,,,,,,,,61023d86ff017d53fdb4970e,61036d49d1f92de10ffb3ee2,2021-07-29_21h09.26.303,Simcolourproject_2stim_asymm_v5,2020.2.10,MacIntel,60,61025ae37ef11b136ea224fe,,,,,,,,,1025,51,93,1,0,0,response1disk,,7,-3,1,1,0,0,rectangle,-3,1,1,0,0,-3,1,1,0,0,0,80,80,154,1,,,,,,,,
,,,,,,,,,,,,,FF,,,,,,,,3.05,,,,,,,,,,,,,,,,,,,,,,61023d86ff017d53fdb4970e,61036d49d1f92de10ffb3ee2,2021-07-29_21h09.26.303,Simcolourproject_2stim_asymm_v5,2020.2.10,MacIntel,60,61025ae37ef11b136ea224fe,,,,,,,,,1821,43,-88,1,0,0,response3disk,,4,1,6,1,0,0,rectangle,1,6,1,0,0,1,6,1,0,0,0,81,81,32,1,,,,,,,,
,,,,,,,,,,,,,FF,,,,,,,,0.583,,,,,,,,,,,,,,,,,,,,,,61023d86ff017d53fdb4970e,61036d49d1f92de10ffb3ee2,2021-07-29_21h09.26.303,Simcolourproject_2stim_asymm_v5,2020.2.10,MacIntel,60,61025ae37ef11b136ea224fe,,,,,,,,,56,71,117,1,0,0,response1disk,,7,-15,-9,1,0,0,rectangle,-15,-9,1,0,0,-15,-9,1,0,0,0,82,82,37,1,,,,,,,,
,,,,,,,,,,,,,FF,,,,,,,,0.567,,,,,,,,,,,,,,,,,,,,,,61023d86ff017d53fdb4970e,61036d49d1f92de10ffb3ee2,2021-07-29_21h09.26.303,Simcolourproject_2stim_asymm_v5,2020.2.10,MacIntel,60,61025ae37ef11b136ea224fe,,,,,,,,,141,36,79,1,0,0,response1disk,,7,-3,-6,1,0,0,rectangle,-3,-6,1,0,0,-3,-6,1,0,0,0,83,83,117,1,,,,,,,,
,,,,,,,,,,,,,FF,,,,,,,,2.7,,,,,,,,,,,,,,,,,,,,,,61023d86ff017d53fdb4970e,61036d49d1f92de10ffb3ee2,2021-07-29_21h09.26.303,Simcolourproject_2stim_asymm_v5,2020.2.10,MacIntel,60,61025ae37ef11b136ea224fe,,,,,,,,,251,94,38,1,0,0,response1disk,,6,13,6,1,0,0,rectangle,13,6,1,0,0,13,6,1,0,0,0,84,84,113,1,,,,,,,,
,,,,,,,,,,,,,FF,,,,,,,,1.183,,,,,,,,,,,,,,,,,,,,,,61023d86ff017d53fdb4970e,61036d49d1f92de10ffb3ee2,2021-07-29_21h09.26.303,Simcolourproject_2stim_asymm_v5,2020.2.10,MacIntel,60,61025ae37ef11b136ea224fe,,,,,,,,,3989,52,99,1,0,0,response1disk,,7,9,2,1,0,0,rectangle,9,2,1,0,0,9,2,1,0,0,0,85,85,148,1,,,,,,,,
,,,,,,,,,,,,,FF,,,,,,,,0.767,,,,,,,,,,,,,,,,,,,,,,61023d86ff017d53fdb4970e,61036d49d1f92de10ffb3ee2,2021-07-29_21h09.26.303,Simcolourproject_2stim_asymm_v5,2020.2.10,MacIntel,60,61025ae37ef11b136ea224fe,,,,,,,,,2680,30,-84,1,0,0,response3disk,,4,15,-1,1,0,0,rectangle,15,-1,1,0,0,15,-1,1,0,0,0,86,86,31,1,,,,,,,,
,,,,,,,,,,,,,FF,,,,,,,,0.851,,,,,,,,,,,,,,,,,,,,,,61023d86ff017d53fdb4970e,61036d49d1f92de10ffb3ee2,2021-07-29_21h09.26.303,Simcolourproject_2stim_asymm_v5,2020.2.10,MacIntel,60,61025ae37ef11b136ea224fe,,,,,,,,,4092,50,65,1,0,0,response1disk,,7,10,6,1,0,0,rectangle,10,6,1,0,0,10,6,1,0,0,0,87,87,132,1,,,,,,,,
,,,,,,,,,,,,,FF,,,,,,,,0.884,,,,,,,,,,,,,,,,,,,,,,61023d86ff017d53fdb4970e,61036d49d1f92de10ffb3ee2,2021-07-29_21h09.26.303,Simcolourproject_2stim_asymm_v5,2020.2.10,MacIntel,60,61025ae37ef11b136ea224fe,,,,,,,,,663,39,108,1,0,0,response1disk,,7,16,-11,1,0,0,rectangle,16,-11,1,0,0,16,-11,1,0,0,0,88,88,137,1,,,,,,,,
,,,,,,,,,,,,,FF,,,,,,,,0.599,,,,,,,,,,,,,,,,,,,,,,61023d86ff017d53fdb4970e,61036d49d1f92de10ffb3ee2,2021-07-29_21h09.26.303,Simcolourproject_2stim_asymm_v5,2020.2.10,MacIntel,60,61025ae37ef11b136ea224fe,,,,,,,,,1693,48,72,1,0,0,response1disk,,7,4,1,1,0,0,rectangle,4,1,1,0,0,4,1,1,0,0,0,89,89,6,1,,,,,,,,
,,,,,,,,,,,,,FF,,,,,,,,0.516,,,,,,,,,,,,,,,,,,,,,,61023d86ff017d53fdb4970e,61036d49d1f92de10ffb3ee2,2021-07-29_21h09.26.303,Simcolourproject_2stim_asymm_v5,2020.2.10,MacIntel,60,61025ae37ef11b136ea224fe,,,,,,,,,85,34,74,1,0,0,response1disk,,7,1,1,1,0,0,rectangle,1,1,1,0,0,1,1,1,0,0,0,90,90,142,1,,,,,,,,
,,,,,,,,,,,,,FF,,,,,,,,1.534,,,,,,,,,,,,,,,,,,,,,,61023d86ff017d53fdb4970e,61036d49d1f92de10ffb3ee2,2021-07-29_21h09.26.303,Simcolourproject_2stim_asymm_v5,2020.2.10,MacIntel,60,61025ae37ef11b136ea224fe,,,,,,,,,3107,-40,-94,1,0,0,response5disk,,3,9,-2,1,0,0,rectangle,9,-2,1,0,0,9,-2,1,0,0,0,91,91,24,1,,,,,,,,
,,,,,,,,,,,,,FF,,,,,,,,0.85,,,,,,,,,,,,,,,,,,,,,,61023d86ff017d53fdb4970e,61036d49d1f92de10ffb3ee2,2021-07-29_21h09.26.303,Simcolourproject_2stim_asymm_v5,2020.2.10,MacIntel,60,61025ae37ef11b136ea224fe,,,,,,,,,1811,46,79,1,0,0,response1disk,,7,-1,0,1,0,0,rectangle,-1,0,1,0,0,-1,0,1,0,0,0,92,92,17,1,,,,,,,,
,,,,,,,,,,,,,FF,,,,,,,,0.6,,,,,,,,,,,,,,,,,,,,,,61023d86ff017d53fdb4970e,61036d49d1f92de10ffb3ee2,2021-07-29_21h09.26.303,Simcolourproject_2stim_asymm_v5,2020.2.10,MacIntel,60,61025ae37ef11b136ea224fe,,,,,,,,,1991,24,51,1,0,0,response1disk,,7,-2,-10,1,0,0,rectangle,-2,-10,1,0,0,-2,-10,1,0,0,0,93,93,73,1,,,,,,,,
,,,,,,,,,,,,,FF,,,,,,,,0.633,,,,,,,,,,,,,,,,,,,,,,61023d86ff017d53fdb4970e,61036d49d1f92de10ffb3ee2,2021-07-29_21h09.26.303,Simcolourproject_2stim_asymm_v5,2020.2.10,MacIntel,60,61025ae37ef11b136ea224fe,,,,,,,,,2623,42,82,1,0,0,response1disk,,7,2,1,1,0,0,rectangle,2,1,1,0,0,2,1,1,0,0,0,94,94,99,1,,,,,,,,
,,,,,,,,,,,,,FF,,,,,,,,1.1,,,,,,,,,,,,,,,,,,,,,,61023d86ff017d53fdb4970e,61036d49d1f92de10ffb3ee2,2021-07-29_21h09.26.303,Simcolourproject_2stim_asymm_v5,2020.2.10,MacIntel,60,61025ae37ef11b136ea224fe,,,,,,,,,888,-48,-85,1,0,0,response5disk,,3,-2,7,1,0,0,rectangle,-92,-35,1,0,0,-12,-2,1,0,0,0,95,95,116,1,,response5disk_3,TRUE,2,2,"[218,110,10,293,96,272,224,207,71,166,197,292,74,305,3,67,141,8,187,198]",2.083,rectangle
,,,,,,,,,,,,,FF,,,,,,,,0.55,,,,,,,,,,,,,,,,,,,,,,61023d86ff017d53fdb4970e,61036d49d1f92de10ffb3ee2,2021-07-29_21h09.26.303,Simcolourproject_2stim_asymm_v5,2020.2.10,MacIntel,60,61025ae37ef11b136ea224fe,,,,,,,,,836,49,85,1,0,0,response1disk,,7,11,1,1,0,0,rectangle,11,1,1,0,0,11,1,1,0,0,0,96,96,3,1,,,,,,,,
,,,,,,,,,,,,,FF,,,,,,,,0.684,,,,,,,,,,,,,,,,,,,,,,61023d86ff017d53fdb4970e,61036d49d1f92de10ffb3ee2,2021-07-29_21h09.26.303,Simcolourproject_2stim_asymm_v5,2020.2.10,MacIntel,60,61025ae37ef11b136ea224fe,,,,,,,,,868,78,38,1,0,0,response1disk,,6,16,-6,1,0,0,rectangle,16,-6,1,0,0,16,-6,1,0,0,0,97,97,68,1,,,,,,,,
,,,,,,,,,,,,,FF,,,,,,,,0.633,,,,,,,,,,,,,,,,,,,,,,61023d86ff017d53fdb4970e,61036d49d1f92de10ffb3ee2,2021-07-29_21h09.26.303,Simcolourproject_2stim_asymm_v5,2020.2.10,MacIntel,60,61025ae37ef11b136ea224fe,,,,,,,,,1089,56,76,1,0,0,response1disk,,7,1,-7,1,0,0,rectangle,1,-7,1,0,0,1,-7,1,0,0,0,98,98,100,1,,,,,,,,
,,,,,,,,,,,,,FF,,,,,,,,0.966,,,,,,,,,,,,,,,,,,,,,,61023d86ff017d53fdb4970e,61036d49d1f92de10ffb3ee2,2021-07-29_21h09.26.303,Simcolourproject_2stim_asymm_v5,2020.2.10,MacIntel,60,61025ae37ef11b136ea224fe,,,,,,,,,310,26,69,1,0,0,response1disk,,7,0,3,1,0,0,rectangle,0,3,1,0,0,0,3,1,0,0,0,99,99,2,1,,,,,,,,
,,,,,,,,,,,,,FF,,,,,,,,0.883,,,,,,,,,,,,,,,,,,,,,,61023d86ff017d53fdb4970e,61036d49d1f92de10ffb3ee2,2021-07-29_21h09.26.303,Simcolourproject_2stim_asymm_v5,2020.2.10,MacIntel,60,61025ae37ef11b136ea224fe,,,,,,,,,3413,40,82,1,0,0,response1disk,,7,-5,-5,1,0,0,rectangle,-5,-5,1,0,0,-5,-5,1,0,0,0,100,100,11,1,,,,,,,,
,,,,,,,,,,,,,FF,,,,,,,,0.634,,,,,,,,,,,,,,,,,,,,,,61023d86ff017d53fdb4970e,61036d49d1f92de10ffb3ee2,2021-07-29_21h09.26.303,Simcolourproject_2stim_asymm_v5,2020.2.10,MacIntel,60,61025ae37ef11b136ea224fe,,,,,,,,,2145,47,110,1,0,0,response1disk,,7,-1,-6,1,0,0,rectangle,-1,-6,1,0,0,-1,-6,1,0,0,0,101,101,123,1,,,,,,,,
,,,,,,,,,,,,,FF,,,,,,,,1.017,,,,,,,,,,,,,,,,,,,,,,61023d86ff017d53fdb4970e,61036d49d1f92de10ffb3ee2,2021-07-29_21h09.26.303,Simcolourproject_2stim_asymm_v5,2020.2.10,MacIntel,60,61025ae37ef11b136ea224fe,,,,,,,,,442,23,-92,1,0,0,response3disk,,4,9,2,1,0,0,rectangle,9,2,1,0,0,9,2,1,0,0,0,102,102,35,1,,,,,,,,
,,,,,,,,,,,,,FF,,,,,,,,0.567,,,,,,,,,,,,,,,,,,,,,,61023d86ff017d53fdb4970e,61036d49d1f92de10ffb3ee2,2021-07-29_21h09.26.303,Simcolourproject_2stim_asymm_v5,2020.2.10,MacIntel,60,61025ae37ef11b136ea224fe,,,,,,,,,4037,47,88,1,0,0,response1disk,,7,5,1,1,0,0,rectangle,5,1,1,0,0,5,1,1,0,0,0,103,103,13,1,,,,,,,,
,,,,,,,,,,,,,FF,,,,,,,,0.984,,,,,,,,,,,,,,,,,,,,,,61023d86ff017d53fdb4970e,61036d49d1f92de10ffb3ee2,2021-07-29_21h09.26.303,Simcolourproject_2stim_asymm_v5,2020.2.10,MacIntel,60,61025ae37ef11b136ea224fe,,,,,,,,,2141,36,65,1,0,0,response1disk,,7,7,-5,1,0,0,rectangle,7,-5,1,0,0,7,-5,1,0,0,0,104,104,115,1,,,,,,,,
,,,,,,,,,,,,,FF,,,,,,,,0.967,,,,,,,,,,,,,,,,,,,,,,61023d86ff017d53fdb4970e,61036d49d1f92de10ffb3ee2,2021-07-29_21h09.26.303,Simcolourproject_2stim_asymm_v5,2020.2.10,MacIntel,60,61025ae37ef11b136ea224fe,,,,,,,,,3473,31,-88,1,0,0,response3disk,,4,14,-6,1,0,0,rectangle,14,-6,1,0,0,14,-6,1,0,0,0,105,105,26,1,,,,,,,,
,,,,,,,,,,,,,FF,,,,,,,,1.084,,,,,,,,,,,,,,,,,,,,,,61023d86ff017d53fdb4970e,61036d49d1f92de10ffb3ee2,2021-07-29_21h09.26.303,Simcolourproject_2stim_asymm_v5,2020.2.10,MacIntel,60,61025ae37ef11b136ea224fe,,,,,,,,,3215,37,69,1,0,0,response1disk,,7,6,4,1,0,0,rectangle,6,4,1,0,0,6,4,1,0,0,0,106,106,136,1,,,,,,,,
,,,,,,,,,,,,,FF,,,,,,,,0.601,,,,,,,,,,,,,,,,,,,,,,61023d86ff017d53fdb4970e,61036d49d1f92de10ffb3ee2,2021-07-29_21h09.26.303,Simcolourproject_2stim_asymm_v5,2020.2.10,MacIntel,60,61025ae37ef11b136ea224fe,,,,,,,,,4234,29,67,1,0,0,response1disk,,7,-3,-3,1,0,0,rectangle,-3,-3,1,0,0,-3,-3,1,0,0,0,107,107,29,1,,,,,,,,
,,,,,,,,,,,,,FF,,,,,,,,0.666,,,,,,,,,,,,,,,,,,,,,,61023d86ff017d53fdb4970e,61036d49d1f92de10ffb3ee2,2021-07-29_21h09.26.303,Simcolourproject_2stim_asymm_v5,2020.2.10,MacIntel,60,61025ae37ef11b136ea224fe,,,,,,,,,1795,36,72,1,0,0,response1disk,,7,7,-1,1,0,0,rectangle,7,-1,1,0,0,7,-1,1,0,0,0,108,108,40,1,,,,,,,,
,,,,,,,,,,,,,FF,,,,,,,,0.716,,,,,,,,,,,,,,,,,,,,,,61023d86ff017d53fdb4970e,61036d49d1f92de10ffb3ee2,2021-07-29_21h09.26.303,Simcolourproject_2stim_asymm_v5,2020.2.10,MacIntel,60,61025ae37ef11b136ea224fe,,,,,,,,,3185,39,79,1,0,0,response1disk,,7,2,-5,1,0,0,rectangle,-96,-38,1,0,0,13,0,1,0,0,0,109,109,16,1,,response5disk_3,TRUE,2,2,"[218,110,10,293,96,272,224,207,71,166,197,292,74,305,3,67,141,8,187,198]",1.632,rectangle
,,,,,,,,,,,,,FF,,,,,,,,0.649,,,,,,,,,,,,,,,,,,,,,,61023d86ff017d53fdb4970e,61036d49d1f92de10ffb3ee2,2021-07-29_21h09.26.303,Simcolourproject_2stim_asymm_v5,2020.2.10,MacIntel,60,61025ae37ef11b136ea224fe,,,,,,,,,4180,24,82,1,0,0,response1disk,,7,-4,-10,1,0,0,rectangle,-4,-10,1,0,0,-4,-10,1,0,0,0,110,110,77,1,,,,,,,,
,,,,,,,,,,,,,FF,,,,,,,,1.45,,,,,,,,,,,,,,,,,,,,,,61023d86ff017d53fdb4970e,61036d49d1f92de10ffb3ee2,2021-07-29_21h09.26.303,Simcolourproject_2stim_asymm_v5,2020.2.10,MacIntel,60,61025ae37ef11b136ea224fe,,,,,,,,,1883,77,33,1,0,0,response1disk,,6,0,-14,1,0,0,rectangle,0,-14,1,0,0,0,-14,1,0,0,0,111,111,127,1,,,,,,,,
,,,,,,,,,,,,,FF,,,,,,,,0.834,,,,,,,,,,,,,,,,,,,,,,61023d86ff017d53fdb4970e,61036d49d1f92de10ffb3ee2,2021-07-29_21h09.26.303,Simcolourproject_2stim_asymm_v5,2020.2.10,MacIntel,60,61025ae37ef11b136ea224fe,,,,,,,,,3140,29,-59,1,0,0,response3disk,,4,12,0,1,0,0,rectangle,12,0,1,0,0,12,0,1,0,0,0,112,112,47,1,,,,,,,,
,,,,,,,,,,,,,FF,,,,,,,,0.716,,,,,,,,,,,,,,,,,,,,,,61023d86ff017d53fdb4970e,61036d49d1f92de10ffb3ee2,2021-07-29_21h09.26.303,Simcolourproject_2stim_asymm_v5,2020.2.10,MacIntel,60,61025ae37ef11b136ea224fe,,,,,,,,,3831,43,97,1,0,0,response1disk,,7,6,4,1,0,0,rectangle,6,4,1,0,0,6,4,1,0,0,0,113,113,151,1,,,,,,,,
,,,,,,,,,,,,,FF,,,,,,,,0.65,,,,,,,,,,,,,,,,,,,,,,61023d86ff017d53fdb4970e,61036d49d1f92de10ffb3ee2,2021-07-29_21h09.26.303,Simcolourproject_2stim_asymm_v5,2020.2.10,MacIntel,60,61025ae37ef11b136ea224fe,,,,,,,,,99,33,72,1,0,0,response1disk,,7,-1,8,1,0,0,rectangle,-1,8,1,0,0,-1,8,1,0,0,0,114,114,111,1,,,,,,,,
,,,,,,,,,,,,,FF,,,,,,,,1.183,,,,,,,,,,,,,,,,,,,,,,61023d86ff017d53fdb4970e,61036d49d1f92de10ffb3ee2,2021-07-29_21h09.26.303,Simcolourproject_2stim_asymm_v5,2020.2.10,MacIntel,60,61025ae37ef11b136ea224fe,,,,,,,,,3005,-46,-76,1,0,0,response5disk,,3,8,14,1,0,0,rectangle,8,14,1,0,0,8,14,1,0,0,0,115,115,103,1,,,,,,,,
,,,,,,,,,,,,,FF,,,,,,,,0.517,,,,,,,,,,,,,,,,,,,,,,61023d86ff017d53fdb4970e,61036d49d1f92de10ffb3ee2,2021-07-29_21h09.26.303,Simcolourproject_2stim_asymm_v5,2020.2.10,MacIntel,60,61025ae37ef11b136ea224fe,,,,,,,,,1666,38,99,1,0,0,response1disk,,7,-9,-12,1,0,0,rectangle,-9,-12,1,0,0,-9,-12,1,0,0,0,116,116,41,1,,,,,,,,
,,,,,,,,,,,,,FF,,,,,,,,0.8,,,,,,,,,,,,,,,,,,,,,,61023d86ff017d53fdb4970e,61036d49d1f92de10ffb3ee2,2021-07-29_21h09.26.303,Simcolourproject_2stim_asymm_v5,2020.2.10,MacIntel,60,61025ae37ef11b136ea224fe,,,,,,,,,1949,-27,-54,1,0,0,response5disk,,3,-3,10,1,0,0,rectangle,-3,10,1,0,0,-3,10,1,0,0,0,117,117,46,1,,,,,,,,
,,,,,,,,,,,,,FF,,,,,,,,0.5,,,,,,,,,,,,,,,,,,,,,,61023d86ff017d53fdb4970e,61036d49d1f92de10ffb3ee2,2021-07-29_21h09.26.303,Simcolourproject_2stim_asymm_v5,2020.2.10,MacIntel,60,61025ae37ef11b136ea224fe,,,,,,,,,3459,40,104,1,0,0,response1disk,,7,6,0,1,0,0,rectangle,6,0,1,0,0,6,0,1,0,0,0,118,118,63,1,,,,,,,,
,,,,,,,,,,,,,FF,,,,,,,,0.75,,,,,,,,,,,,,,,,,,,,,,61023d86ff017d53fdb4970e,61036d49d1f92de10ffb3ee2,2021-07-29_21h09.26.303,Simcolourproject_2stim_asymm_v5,2020.2.10,MacIntel,60,61025ae37ef11b136ea224fe,,,,,,,,,3518,21,-92,1,0,0,response3disk,,4,-3,3,1,0,0,rectangle,-3,3,1,0,0,-3,3,1,0,0,0,119,119,48,1,,,,,,,,
,,,,,,,,,,,,,FF,,,,,,,,1.05,,,,,,,,,,,,,,,,,,,,,,61023d86ff017d53fdb4970e,61036d49d1f92de10ffb3ee2,2021-07-29_21h09.26.303,Simcolourproject_2stim_asymm_v5,2020.2.10,MacIntel,60,61025ae37ef11b136ea224fe,,,,,,,,,4266,-37,66,1,0,0,response7disk,,0,-15,4,1,0,0,rectangle,-15,4,1,0,0,-15,4,1,0,0,0,120,120,21,1,,,,,,,,
,,,,,,,,,,,,,FF,,,,,,,,2.133,,,,,,,,,,,,,,,,,,,,,,61023d86ff017d53fdb4970e,61036d49d1f92de10ffb3ee2,2021-07-29_21h09.26.303,Simcolourproject_2stim_asymm_v5,2020.2.10,MacIntel,60,61025ae37ef11b136ea224fe,,,,,,,,,1068,71,30,1,0,0,response1disk,,6,24,5,1,0,0,rectangle,24,5,1,0,0,24,5,1,0,0,0,121,121,110,1,,,,,,,,
,,,,,,,,,,,,,FF,,,,,,,,0.833,,,,,,,,,,,,,,,,,,,,,,61023d86ff017d53fdb4970e,61036d49d1f92de10ffb3ee2,2021-07-29_21h09.26.303,Simcolourproject_2stim_asymm_v5,2020.2.10,MacIntel,60,61025ae37ef11b136ea224fe,,,,,,,,,1963,-76,41,1,0,0,response7disk,,1,-7,1,1,0,0,rectangle,-7,1,1,0,0,-7,1,1,0,0,0,122,122,70,1,,,,,,,,
,,,,,,,,,,,,,FF,,,,,,,,0.7,,,,,,,,,,,,,,,,,,,,,,61023d86ff017d53fdb4970e,61036d49d1f92de10ffb3ee2,2021-07-29_21h09.26.303,Simcolourproject_2stim_asymm_v5,2020.2.10,MacIntel,60,61025ae37ef11b136ea224fe,,,,,,,,,2480,-64,28,1,0,0,response7disk,,1,-4,3,1,0,0,rectangle,-4,3,1,0,0,-4,3,1,0,0,0,123,123,76,1,,,,,,,,
,,,,,,,,,,,,,FF,,,,,,,,1.634,,,,,,,,,,,,,,,,,,,,,,61023d86ff017d53fdb4970e,61036d49d1f92de10ffb3ee2,2021-07-29_21h09.26.303,Simcolourproject_2stim_asymm_v5,2020.2.10,MacIntel,60,61025ae37ef11b136ea224fe,,,,,,,,,3441,-48,-98,1,0,0,response5disk,,3,18,10,1,0,0,rectangle,18,10,1,0,0,18,10,1,0,0,0,124,124,118,1,,,,,,,,
,,,,,,,,,,,,,FF,,,,,,,,0.567,,,,,,,,,,,,,,,,,,,,,,61023d86ff017d53fdb4970e,61036d49d1f92de10ffb3ee2,2021-07-29_21h09.26.303,Simcolourproject_2stim_asymm_v5,2020.2.10,MacIntel,60,61025ae37ef11b136ea224fe,,,,,,,,,3313,35,60,1,0,0,response1disk,,7,9,-8,1,0,0,rectangle,9,-8,1,0,0,9,-8,1,0,0,0,125,125,139,1,,,,,,,,
,,,,,,,,,,,,,FF,,,,,,,,1.099,,,,,,,,,,,,,,,,,,,,,,61023d86ff017d53fdb4970e,61036d49d1f92de10ffb3ee2,2021-07-29_21h09.26.303,Simcolourproject_2stim_asymm_v5,2020.2.10,MacIntel,60,61025ae37ef11b136ea224fe,,,,,,,,,554,85,21,1,0,0,response1disk,,6,6,4,1,0,0,rectangle,6,4,1,0,0,6,4,1,0,0,0,126,126,128,1,,,,,,,,
,,,,,,,,,,,,,FF,,,,,,,,0.982,,,,,,,,,,,,,,,,,,,,,,61023d86ff017d53fdb4970e,61036d49d1f92de10ffb3ee2,2021-07-29_21h09.26.303,Simcolourproject_2stim_asymm_v5,2020.2.10,MacIntel,60,61025ae37ef11b136ea224fe,,,,,,,,,1873,63,32,1,0,0,response1disk,,6,25,10,1,0,0,rectangle,25,10,1,0,0,25,10,1,0,0,0,127,127,5,1,,,,,,,,
,,,,,,,,,,,,,FF,,,,,,,,0.834,,,,,,,,,,,,,,,,,,,,,,61023d86ff017d53fdb4970e,61036d49d1f92de10ffb3ee2,2021-07-29_21h09.26.303,Simcolourproject_2stim_asymm_v5,2020.2.10,MacIntel,60,61025ae37ef11b136ea224fe,,,,,,,,,3910,56,52,1,0,0,response1disk,,6,-12,-7,1,0,0,rectangle,-12,-7,1,0,0,-12,-7,1,0,0,0,128,128,18,1,,,,,,,,
,,,,,,,,,,,,,FF,,,,,,,,1.25,,,,,,,,,,,,,,,,,,,,,,61023d86ff017d53fdb4970e,61036d49d1f92de10ffb3ee2,2021-07-29_21h09.26.303,Simcolourproject_2stim_asymm_v5,2020.2.10,MacIntel,60,61025ae37ef11b136ea224fe,,,,,,,,,3139,87,41,1,0,0,response1disk,,6,10,-10,1,0,0,rectangle,10,-10,1,0,0,10,-10,1,0,0,0,129,129,108,1,,,,,,,,
,,,,,,,,,,,,,FF,,,,,,,,1.683,,,,,,,,,,,,,,,,,,,,,,61023d86ff017d53fdb4970e,61036d49d1f92de10ffb3ee2,2021-07-29_21h09.26.303,Simcolourproject_2stim_asymm_v5,2020.2.10,MacIntel,60,61025ae37ef11b136ea224fe,,,,,,,,,1440,53,-79,1,0,0,response3disk,,4,8,-2,1,0,0,rectangle,8,-2,1,0,0,8,-2,1,0,0,0,130,130,20,1,,,,,,,,
,,,,,,,,,,,,,FF,,,,,,,,0.75,,,,,,,,,,,,,,,,,,,,,,61023d86ff017d53fdb4970e,61036d49d1f92de10ffb3ee2,2021-07-29_21h09.26.303,Simcolourproject_2stim_asymm_v5,2020.2.10,MacIntel,60,61025ae37ef11b136ea224fe,,,,,,,,,1212,36,-96,1,0,0,response3disk,,4,11,2,1,0,0,rectangle,11,2,1,0,0,11,2,1,0,0,0,131,131,67,1,,,,,,,,
,,,,,,,,,,,,,FF,,,,,,,,1.75,,,,,,,,,,,,,,,,,,,,,,61023d86ff017d53fdb4970e,61036d49d1f92de10ffb3ee2,2021-07-29_21h09.26.303,Simcolourproject_2stim_asymm_v5,2020.2.10,MacIntel,60,61025ae37ef11b136ea224fe,,,,,,,,,2312,71,31,1,0,0,response1disk,,6,12,17,1,0,0,rectangle,12,17,1,0,0,12,17,1,0,0,0,132,132,34,1,,,,,,,,
,,,,,,,,,,,,,FF,,,,,,,,0.733,,,,,,,,,,,,,,,,,,,,,,61023d86ff017d53fdb4970e,61036d49d1f92de10ffb3ee2,2021-07-29_21h09.26.303,Simcolourproject_2stim_asymm_v5,2020.2.10,MacIntel,60,61025ae37ef11b136ea224fe,,,,,,,,,2876,77,16,1,0,0,response1disk,,6,12,-5,1,0,0,rectangle,12,-5,1,0,0,12,-5,1,0,0,0,133,133,57,1,,,,,,,,
,,,,,,,,,,,,,FF,,,,,,,,0.566,,,,,,,,,,,,,,,,,,,,,,61023d86ff017d53fdb4970e,61036d49d1f92de10ffb3ee2,2021-07-29_21h09.26.303,Simcolourproject_2stim_asymm_v5,2020.2.10,MacIntel,60,61025ae37ef11b136ea224fe,,,,,,,,,412,43,68,1,0,0,response1disk,,7,2,-6,1,0,0,rectangle,2,-6,1,0,0,2,-6,1,0,0,0,134,134,82,1,,,,,,,,
,,,,,,,,,,,,,FF,,,,,,,,0.783,,,,,,,,,,,,,,,,,,,,,,61023d86ff017d53fdb4970e,61036d49d1f92de10ffb3ee2,2021-07-29_21h09.26.303,Simcolourproject_2stim_asymm_v5,2020.2.10,MacIntel,60,61025ae37ef11b136ea224fe,,,,,,,,,1894,28,-69,1,0,0,response3disk,,4,7,4,1,0,0,rectangle,7,4,1,0,0,7,4,1,0,0,0,135,135,158,1,,,,,,,,
,,,,,,,,,,,,,FF,,,,,,,,0.783,,,,,,,,,,,,,,,,,,,,,,61023d86ff017d53fdb4970e,61036d49d1f92de10ffb3ee2,2021-07-29_21h09.26.303,Simcolourproject_2stim_asymm_v5,2020.2.10,MacIntel,60,61025ae37ef11b136ea224fe,,,,,,,,,3760,29,59,1,0,0,response1disk,,7,9,-6,1,0,0,rectangle,9,-6,1,0,0,9,-6,1,0,0,0,136,136,36,1,,,,,,,,
,,,,,,,,,,,,,FF,,,,,,,,0.915,,,,,,,,,,,,,,,,,,,,,,61023d86ff017d53fdb4970e,61036d49d1f92de10ffb3ee2,2021-07-29_21h09.26.303,Simcolourproject_2stim_asymm_v5,2020.2.10,MacIntel,60,61025ae37ef11b136ea224fe,,,,,,,,,3134,72,20,1,0,0,response1disk,,6,27,13,1,0,0,rectangle,27,13,1,0,0,27,13,1,0,0,0,137,137,0,1,,,,,,,,
,,,,,,,,,,,,,FF,,,,,,,,0.715,,,,,,,,,,,,,,,,,,,,,,61023d86ff017d53fdb4970e,61036d49d1f92de10ffb3ee2,2021-07-29_21h09.26.303,Simcolourproject_2stim_asymm_v5,2020.2.10,MacIntel,60,61025ae37ef11b136ea224fe,,,,,,,,,1563,68,32,1,0,0,response1disk,,6,9,0,1,0,0,rectangle,9,0,1,0,0,9,0,1,0,0,0,138,138,91,1,,,,,,,,
,,,,,,,,,,,,,FF,,,,,,,,0.95,,,,,,,,,,,,,,,,,,,,,,61023d86ff017d53fdb4970e,61036d49d1f92de10ffb3ee2,2021-07-29_21h09.26.303,Simcolourproject_2stim_asymm_v5,2020.2.10,MacIntel,60,61025ae37ef11b136ea224fe,,,,,,,,,3733,33,69,1,0,0,response1disk,,7,-2,0,1,0,0,rectangle,-2,0,1,0,0,-2,0,1,0,0,0,139,139,45,1,,,,,,,,
,,,,,,,,,,,,,FF,,,,,,,,0.584,,,,,,,,,,,,,,,,,,,,,,61023d86ff017d53fdb4970e,61036d49d1f92de10ffb3ee2,2021-07-29_21h09.26.303,Simcolourproject_2stim_asymm_v5,2020.2.10,MacIntel,60,61025ae37ef11b136ea224fe,,,,,,,,,1642,24,57,1,0,0,response1disk,,7,4,14,1,0,0,rectangle,-86,50,1,0,0,-7,-4,1,0,0,0,140,140,101,1,,response7disk_3,TRUE,1,1,"[218,110,10,293,96,272,224,207,71,166,197,292,74,305,3,67,141,8,187,198]",1.216,rectangle
,,,,,,,,,,,,,FF,,,,,,,,0.75,,,,,,,,,,,,,,,,,,,,,,61023d86ff017d53fdb4970e,61036d49d1f92de10ffb3ee2,2021-07-29_21h09.26.303,Simcolourproject_2stim_asymm_v5,2020.2.10,MacIntel,60,61025ae37ef11b136ea224fe,,,,,,,,,313,25,86,1,0,0,response1disk,,7,-11,-14,1,0,0,rectangle,-11,-14,1,0,0,-11,-14,1,0,0,0,141,141,122,1,,,,,,,,
,,,,,,,,,,,,,FF,,,,,,,,1.633,,,,,,,,,,,,,,,,,,,,,,61023d86ff017d53fdb4970e,61036d49d1f92de10ffb3ee2,2021-07-29_21h09.26.303,Simcolourproject_2stim_asymm_v5,2020.2.10,MacIntel,60,61025ae37ef11b136ea224fe,,,,,,,,,1903,74,56,1,0,0,response1disk,,6,8,8,1,0,0,rectangle,8,8,1,0,0,8,8,1,0,0,0,142,142,65,1,,,,,,,,
,,,,,,,,,,,,,FF,,,,,,,,0.965,,,,,,,,,,,,,,,,,,,,,,61023d86ff017d53fdb4970e,61036d49d1f92de10ffb3ee2,2021-07-29_21h09.26.303,Simcolourproject_2stim_asymm_v5,2020.2.10,MacIntel,60,61025ae37ef11b136ea224fe,,,,,,,,,2562,80,35,1,0,0,response1disk,,6,27,9,1,0,0,rectangle,27,9,1,0,0,27,9,1,0,0,0,143,143,27,1,,,,,,,,
,,,,,,,,,,,,,FF,,,,,,,,0.667,,,,,,,,,,,,,,,,,,,,,,61023d86ff017d53fdb4970e,61036d49d1f92de10ffb3ee2,2021-07-29_21h09.26.303,Simcolourproject_2stim_asymm_v5,2020.2.10,MacIntel,60,61025ae37ef11b136ea224fe,,,,,,,,,192,58,37,1,0,0,response1disk,,6,-14,-15,1,0,0,rectangle,-14,-15,1,0,0,-14,-15,1,0,0,0,144,144,90,1,,,,,,,,
,,,,,,,,,,,,,FF,,,,,,,,0.616,,,,,,,,,,,,,,,,,,,,,,61023d86ff017d53fdb4970e,61036d49d1f92de10ffb3ee2,2021-07-29_21h09.26.303,Simcolourproject_2stim_asymm_v5,2020.2.10,MacIntel,60,61025ae37ef11b136ea224fe,,,,,,,,,2624,26,77,1,0,0,response1disk,,7,-5,2,1,0,0,rectangle,-5,2,1,0,0,-5,2,1,0,0,0,145,145,56,1,,,,,,,,
,,,,,,,,,,,,,FF,,,,,,,,0.916,,,,,,,,,,,,,,,,,,,,,,61023d86ff017d53fdb4970e,61036d49d1f92de10ffb3ee2,2021-07-29_21h09.26.303,Simcolourproject_2stim_asymm_v5,2020.2.10,MacIntel,60,61025ae37ef11b136ea224fe,,,,,,,,,453,49,76,1,0,0,response1disk,,7,17,6,1,0,0,rectangle,17,6,1,0,0,17,6,1,0,0,0,146,146,96,1,,,,,,,,
,,,,,,,,,,,,,FF,,,,,,,,1.8,,,,,,,,,,,,,,,,,,,,,,61023d86ff017d53fdb4970e,61036d49d1f92de10ffb3ee2,2021-07-29_21h09.26.303,Simcolourproject_2stim_asymm_v5,2020.2.10,MacIntel,60,61025ae37ef11b136ea224fe,,,,,,,,,3291,-32,-97,1,0,0,response5disk,,3,-1,4,1,0,0,rectangle,-1,4,1,0,0,-1,4,1,0,0,0,147,147,135,1,,,,,,,,
,,,,,,,,,,,,,FF,,,,,,,,0.717,,,,,,,,,,,,,,,,,,,,,,61023d86ff017d53fdb4970e,61036d49d1f92de10ffb3ee2,2021-07-29_21h09.26.303,Simcolourproject_2stim_asymm_v5,2020.2.10,MacIntel,60,61025ae37ef11b136ea224fe,,,,,,,,,3398,35,-67,1,0,0,response3disk,,4,21,-14,1,0,0,rectangle,21,-14,1,0,0,21,-14,1,0,0,0,148,148,52,1,,,,,,,,
,,,,,,,,,,,,,FF,,,,,,,,0.883,,,,,,,,,,,,,,,,,,,,,,61023d86ff017d53fdb4970e,61036d49d1f92de10ffb3ee2,2021-07-29_21h09.26.303,Simcolourproject_2stim_asymm_v5,2020.2.10,MacIntel,60,61025ae37ef11b136ea224fe,,,,,,,,,1539,59,-36,1,0,0,response3disk,,5,4,-15,1,0,0,rectangle,4,-15,1,0,0,4,-15,1,0,0,0,149,149,39,1,,,,,,,,
,,,,,,,,,,,,,FF,,,,,,,,0.617,,,,,,,,,,,,,,,,,,,,,,61023d86ff017d53fdb4970e,61036d49d1f92de10ffb3ee2,2021-07-29_21h09.26.303,Simcolourproject_2stim_asymm_v5,2020.2.10,MacIntel,60,61025ae37ef11b136ea224fe,,,,,,,,,2057,51,88,1,0,0,response1disk,,7,-16,-8,1,0,0,rectangle,-16,-8,1,0,0,-16,-8,1,0,0,0,150,150,30,1,,,,,,,,
,,,,,,,,,,,,,FF,,,,,,,,0.649,,,,,,,,,,,,,,,,,,,,,,61023d86ff017d53fdb4970e,61036d49d1f92de10ffb3ee2,2021-07-29_21h09.26.303,Simcolourproject_2stim_asymm_v5,2020.2.10,MacIntel,60,61025ae37ef11b136ea224fe,,,,,,,,,3679,60,22,1,0,0,response1disk,,6,12,-2,1,0,0,rectangle,12,-2,1,0,0,12,-2,1,0,0,0,151,151,138,1,,,,,,,,
,,,,,,,,,,,,,FF,,,,,,,,0.616,,,,,,,,,,,,,,,,,,,,,,61023d86ff017d53fdb4970e,61036d49d1f92de10ffb3ee2,2021-07-29_21h09.26.303,Simcolourproject_2stim_asymm_v5,2020.2.10,MacIntel,60,61025ae37ef11b136ea224fe,,,,,,,,,4129,47,80,1,0,0,response1disk,,7,5,8,1,0,0,rectangle,5,8,1,0,0,5,8,1,0,0,0,152,152,140,1,,,,,,,,
,,,,,,,,,,,,,FF,,,,,,,,0.649,,,,,,,,,,,,,,,,,,,,,,61023d86ff017d53fdb4970e,61036d49d1f92de10ffb3ee2,2021-07-29_21h09.26.303,Simcolourproject_2stim_asymm_v5,2020.2.10,MacIntel,60,61025ae37ef11b136ea224fe,,,,,,,,,514,56,93,1,0,0,response1disk,,7,5,1,1,0,0,rectangle,5,1,1,0,0,5,1,1,0,0,0,153,153,25,1,,,,,,,,
,,,,,,,,,,,,,FF,,,,,,,,3.084,,,,,,,,,,,,,,,,,,,,,,61023d86ff017d53fdb4970e,61036d49d1f92de10ffb3ee2,2021-07-29_21h09.26.303,Simcolourproject_2stim_asymm_v5,2020.2.10,MacIntel,60,61025ae37ef11b136ea224fe,,,,,,,,,749,45,89,1,0,0,response1disk,,7,5,17,1,0,0,rectangle,5,17,1,0,0,5,17,1,0,0,0,154,154,89,1,,,,,,,,
,,,,,,,,,,,,,FF,,,,,,,,1.1,,,,,,,,,,,,,,,,,,,,,,61023d86ff017d53fdb4970e,61036d49d1f92de10ffb3ee2,2021-07-29_21h09.26.303,Simcolourproject_2stim_asymm_v5,2020.2.10,MacIntel,60,61025ae37ef11b136ea224fe,,,,,,,,,77,-33,88,1,0,0,response7disk,,0,-11,-11,1,0,0,rectangle,-11,-11,1,0,0,-11,-11,1,0,0,0,155,155,106,1,,,,,,,,
,,,,,,,,,,,,,FF,,,,,,,,0.9,,,,,,,,,,,,,,,,,,,,,,61023d86ff017d53fdb4970e,61036d49d1f92de10ffb3ee2,2021-07-29_21h09.26.303,Simcolourproject_2stim_asymm_v5,2020.2.10,MacIntel,60,61025ae37ef11b136ea224fe,,,,,,,,,182,58,87,1,0,0,response1disk,,7,15,13,1,0,0,rectangle,15,13,1,0,0,15,13,1,0,0,0,156,156,102,1,,,,,,,,
,,,,,,,,,,,,,FF,,,,,,,,0.6,,,,,,,,,,,,,,,,,,,,,,61023d86ff017d53fdb4970e,61036d49d1f92de10ffb3ee2,2021-07-29_21h09.26.303,Simcolourproject_2stim_asymm_v5,2020.2.10,MacIntel,60,61025ae37ef11b136ea224fe,,,,,,,,,1411,51,92,1,0,0,response1disk,,7,-1,-5,1,0,0,rectangle,-1,-5,1,0,0,-1,-5,1,0,0,0,157,157,71,1,,,,,,,,
,,,,,,,,,,,,,FF,,,,,,,,0.534,,,,,,,,,,,,,,,,,,,,,,61023d86ff017d53fdb4970e,61036d49d1f92de10ffb3ee2,2021-07-29_21h09.26.303,Simcolourproject_2stim_asymm_v5,2020.2.10,MacIntel,60,61025ae37ef11b136ea224fe,,,,,,,,,1422,34,76,1,0,0,response1disk,,7,-16,-16,1,0,0,rectangle,-16,-16,1,0,0,-16,-16,1,0,0,0,158,158,42,1,,,,,,,,
,,,,,,,,,,,,,FF,,,,,,,,0.85,,,,,,,,,,,,,,,,,,,,,,61023d86ff017d53fdb4970e,61036d49d1f92de10ffb3ee2,2021-07-29_21h09.26.303,Simcolourproject_2stim_asymm_v5,2020.2.10,MacIntel,60,61025ae37ef11b136ea224fe,,,,,,,,,435,73,-30,1,0,0,response3disk,,5,7,-6,1,0,0,rectangle,7,-6,1,0,0,7,-6,1,0,0,0,159,159,125,1,,,,,,,,
,,,,,,,,,,,,,FF,,,,,,,,0.6,,,,,,,,,,,,,,,,,,,,,,61023d86ff017d53fdb4970e,61036d49d1f92de10ffb3ee2,2021-07-29_21h09.26.303,Simcolourproject_2stim_asymm_v5,2020.2.10,MacIntel,60,61025ae37ef11b136ea224fe,,,,,,,,,3161,48,79,1,0,0,response1disk,,7,5,11,1,0,0,rectangle,5,11,1,0,0,5,11,1,0,0,1,0,160,8,1,,,,,,,,
,,,,,,,,,,,,,FF,,,,,,,,0.532,,,,,,,,,,,,,,,,,,,,,,61023d86ff017d53fdb4970e,61036d49d1f92de10ffb3ee2,2021-07-29_21h09.26.303,Simcolourproject_2stim_asymm_v5,2020.2.10,MacIntel,60,61025ae37ef11b136ea224fe,,,,,,,,,2978,43,84,1,0,0,response1disk,,7,3,-3,1,0,0,rectangle,3,-3,1,0,0,3,-3,1,0,0,1,1,161,5,1,,,,,,,,
,,,,,,,,,,,,,FF,,,,,,,,1.35,,,,,,,,,,,,,,,,,,,,,,61023d86ff017d53fdb4970e,61036d49d1f92de10ffb3ee2,2021-07-29_21h09.26.303,Simcolourproject_2stim_asymm_v5,2020.2.10,MacIntel,60,61025ae37ef11b136ea224fe,,,,,,,,,3299,33,91,1,0,0,response1disk,,7,-1,-8,1,0,0,rectangle,-1,-8,1,0,0,-1,-8,1,0,0,1,2,162,15,1,,,,,,,,
,,,,,,,,,,,,,FF,,,,,,,,1.15,,,,,,,,,,,,,,,,,,,,,,61023d86ff017d53fdb4970e,61036d49d1f92de10ffb3ee2,2021-07-29_21h09.26.303,Simcolourproject_2stim_asymm_v5,2020.2.10,MacIntel,60,61025ae37ef11b136ea224fe,,,,,,,,,4189,83,-46,1,0,0,response3disk,,5,23,-4,1,0,0,rectangle,23,-4,1,0,0,23,-4,1,0,0,1,3,163,87,1,,,,,,,,
,,,,,,,,,,,,,FF,,,,,,,,0.532,,,,,,,,,,,,,,,,,,,,,,61023d86ff017d53fdb4970e,61036d49d1f92de10ffb3ee2,2021-07-29_21h09.26.303,Simcolourproject_2stim_asymm_v5,2020.2.10,MacIntel,60,61025ae37ef11b136ea224fe,,,,,,,,,3028,47,66,1,0,0,response1disk,,7,22,14,1,0,0,rectangle,22,14,1,0,0,22,14,1,0,0,1,4,164,79,1,,,,,,,,
,,,,,,,,,,,,,FF,,,,,,,,0.633,,,,,,,,,,,,,,,,,,,,,,61023d86ff017d53fdb4970e,61036d49d1f92de10ffb3ee2,2021-07-29_21h09.26.303,Simcolourproject_2stim_asymm_v5,2020.2.10,MacIntel,60,61025ae37ef11b136ea224fe,,,,,,,,,1037,58,99,1,0,0,response1disk,,7,-4,-16,1,0,0,rectangle,-45,-96,1,0,0,-3,10,1,0,0,1,5,165,114,1,,response5disk_3,TRUE,3,3,"[218,110,10,293,96,272,224,207,71,166,197,292,74,305,3,67,141,8,187,198]",1.317,rectangle
,,,,,,,,,,,,,FF,,,,,,,,0.717,,,,,,,,,,,,,,,,,,,,,,61023d86ff017d53fdb4970e,61036d49d1f92de10ffb3ee2,2021-07-29_21h09.26.303,Simcolourproject_2stim_asymm_v5,2020.2.10,MacIntel,60,61025ae37ef11b136ea224fe,,,,,,,,,2804,42,114,1,0,0,response1disk,,7,-7,2,1,0,0,rectangle,-7,2,1,0,0,-7,2,1,0,0,1,6,166,85,1,,,,,,,,
,,,,,,,,,,,,,FF,,,,,,,,7.216,,,,,,,,,,,,,,,,,,,,,,61023d86ff017d53fdb4970e,61036d49d1f92de10ffb3ee2,2021-07-29_21h09.26.303,Simcolourproject_2stim_asymm_v5,2020.2.10,MacIntel,60,61025ae37ef11b136ea224fe,,,,,,,,,472,46,-44,1,0,0,response3disk,,5,21,-18,1,0,0,rectangle,21,-18,1,0,0,21,-18,1,0,0,1,7,167,70,1,,,,,,,,
,,,,,,,,,,,,,FF,,,,,,,,2.4,,,,,,,,,,,,,,,,,,,,,,61023d86ff017d53fdb4970e,61036d49d1f92de10ffb3ee2,2021-07-29_21h09.26.303,Simcolourproject_2stim_asymm_v5,2020.2.10,MacIntel,60,61025ae37ef11b136ea224fe,,,,,,,,,2725,-35,-75,1,0,0,response5disk,,3,-21,-9,1,0,0,rectangle,-21,-9,1,0,0,-21,-9,1,0,0,1,8,168,147,1,,,,,,,,
,,,,,,,,,,,,,FF,,,,,,,,0.55,,,,,,,,,,,,,,,,,,,,,,61023d86ff017d53fdb4970e,61036d49d1f92de10ffb3ee2,2021-07-29_21h09.26.303,Simcolourproject_2stim_asymm_v5,2020.2.10,MacIntel,60,61025ae37ef11b136ea224fe,,,,,,,,,2751,43,92,1,0,0,response1disk,,7,9,-7,1,0,0,rectangle,9,-7,1,0,0,9,-7,1,0,0,1,9,169,66,1,,,,,,,,
,,,,,,,,,,,,,FF,,,,,,,,0.483,,,,,,,,,,,,,,,,,,,,,,61023d86ff017d53fdb4970e,61036d49d1f92de10ffb3ee2,2021-07-29_21h09.26.303,Simcolourproject_2stim_asymm_v5,2020.2.10,MacIntel,60,61025ae37ef11b136ea224fe,,,,,,,,,2136,49,80,1,0,0,response1disk,,7,11,1,1,0,0,rectangle,11,1,1,0,0,11,1,1,0,0,1,10,170,149,1,,,,,,,,
,,,,,,,,,,,,,FF,,,,,,,,0.451,,,,,,,,,,,,,,,,,,,,,,61023d86ff017d53fdb4970e,61036d49d1f92de10ffb3ee2,2021-07-29_21h09.26.303,Simcolourproject_2stim_asymm_v5,2020.2.10,MacIntel,60,61025ae37ef11b136ea224fe,,,,,,,,,3731,49,94,1,0,0,response1disk,,7,15,6,1,0,0,rectangle,15,6,1,0,0,15,6,1,0,0,1,11,171,43,1,,,,,,,,
,,,,,,,,,,,,,FF,,,,,,,,0.515,,,,,,,,,,,,,,,,,,,,,,61023d86ff017d53fdb4970e,61036d49d1f92de10ffb3ee2,2021-07-29_21h09.26.303,Simcolourproject_2stim_asymm_v5,2020.2.10,MacIntel,60,61025ae37ef11b136ea224fe,,,,,,,,,798,30,65,1,0,0,response1disk,,7,10,-7,1,0,0,rectangle,10,-7,1,0,0,10,-7,1,0,0,1,12,172,76,1,,,,,,,,
,,,,,,,,,,,,,FF,,,,,,,,0.599,,,,,,,,,,,,,,,,,,,,,,61023d86ff017d53fdb4970e,61036d49d1f92de10ffb3ee2,2021-07-29_21h09.26.303,Simcolourproject_2stim_asymm_v5,2020.2.10,MacIntel,60,61025ae37ef11b136ea224fe,,,,,,,,,3530,54,97,1,0,0,response1disk,,7,11,6,1,0,0,rectangle,11,6,1,0,0,11,6,1,0,0,1,13,173,111,1,,,,,,,,
,,,,,,,,,,,,,FF,,,,,,,,0.651,,,,,,,,,,,,,,,,,,,,,,61023d86ff017d53fdb4970e,61036d49d1f92de10ffb3ee2,2021-07-29_21h09.26.303,Simcolourproject_2stim_asymm_v5,2020.2.10,MacIntel,60,61025ae37ef11b136ea224fe,,,,,,,,,838,74,32,1,0,0,response1disk,,6,0,0,1,0,0,rectangle,0,0,1,0,0,0,0,1,0,0,1,14,174,126,1,,,,,,,,
,,,,,,,,,,,,,FF,,,,,,,,0.699,,,,,,,,,,,,,,,,,,,,,,61023d86ff017d53fdb4970e,61036d49d1f92de10ffb3ee2,2021-07-29_21h09.26.303,Simcolourproject_2stim_asymm_v5,2020.2.10,MacIntel,60,61025ae37ef11b136ea224fe,,,,,,,,,3523,40,87,1,0,0,response1disk,,7,-6,-8,1,0,0,rectangle,-6,-8,1,0,0,-6,-8,1,0,0,1,15,175,141,1,,,,,,,,
,,,,,,,,,,,,,FF,,,,,,,,1.233,,,,,,,,,,,,,,,,,,,,,,61023d86ff017d53fdb4970e,61036d49d1f92de10ffb3ee2,2021-07-29_21h09.26.303,Simcolourproject_2stim_asymm_v5,2020.2.10,MacIntel,60,61025ae37ef11b136ea224fe,,,,,,,,,1844,51,49,1,0,0,response1disk,,6,18,16,1,0,0,rectangle,18,16,1,0,0,18,16,1,0,0,1,16,176,40,1,,,,,,,,
,,,,,,,,,,,,,FF,,,,,,,,0.817,,,,,,,,,,,,,,,,,,,,,,61023d86ff017d53fdb4970e,61036d49d1f92de10ffb3ee2,2021-07-29_21h09.26.303,Simcolourproject_2stim_asymm_v5,2020.2.10,MacIntel,60,61025ae37ef11b136ea224fe,,,,,,,,,361,38,90,1,0,0,response1disk,,7,9,7,1,0,0,rectangle,9,7,1,0,0,9,7,1,0,0,1,17,177,34,1,,,,,,,,
,,,,,,,,,,,,,FF,,,,,,,,0.466,,,,,,,,,,,,,,,,,,,,,,61023d86ff017d53fdb4970e,61036d49d1f92de10ffb3ee2,2021-07-29_21h09.26.303,Simcolourproject_2stim_asymm_v5,2020.2.10,MacIntel,60,61025ae37ef11b136ea224fe,,,,,,,,,10,30,75,1,0,0,response1disk,,7,11,-2,1,0,0,rectangle,11,-2,1,0,0,11,-2,1,0,0,1,18,178,132,1,,,,,,,,
,,,,,,,,,,,,,FF,,,,,,,,0.534,,,,,,,,,,,,,,,,,,,,,,61023d86ff017d53fdb4970e,61036d49d1f92de10ffb3ee2,2021-07-29_21h09.26.303,Simcolourproject_2stim_asymm_v5,2020.2.10,MacIntel,60,61025ae37ef11b136ea224fe,,,,,,,,,1163,43,71,1,0,0,response1disk,,7,15,13,1,0,0,rectangle,15,13,1,0,0,15,13,1,0,0,1,19,179,6,1,,,,,,,,
,,,,,,,,,,,,,FF,,,,,,,,0.517,,,,,,,,,,,,,,,,,,,,,,61023d86ff017d53fdb4970e,61036d49d1f92de10ffb3ee2,2021-07-29_21h09.26.303,Simcolourproject_2stim_asymm_v5,2020.2.10,MacIntel,60,61025ae37ef11b136ea224fe,,,,,,,,,4138,50,77,1,0,0,response1disk,,7,17,3,1,0,0,rectangle,17,3,1,0,0,17,3,1,0,0,1,20,180,131,1,,,,,,,,
,,,,,,,,,,,,,FF,,,,,,,,1.334,,,,,,,,,,,,,,,,,,,,,,61023d86ff017d53fdb4970e,61036d49d1f92de10ffb3ee2,2021-07-29_21h09.26.303,Simcolourproject_2stim_asymm_v5,2020.2.10,MacIntel,60,61025ae37ef11b136ea224fe,,,,,,,,,1215,68,-49,1,0,0,response3disk,,5,0,7,1,0,0,rectangle,0,7,1,0,0,0,7,1,0,0,1,21,181,118,1,,,,,,,,
,,,,,,,,,,,,,FF,,,,,,,,0.617,,,,,,,,,,,,,,,,,,,,,,61023d86ff017d53fdb4970e,61036d49d1f92de10ffb3ee2,2021-07-29_21h09.26.303,Simcolourproject_2stim_asymm_v5,2020.2.10,MacIntel,60,61025ae37ef11b136ea224fe,,,,,,,,,2509,39,73,1,0,0,response1disk,,7,6,-3,1,0,0,rectangle,6,-3,1,0,0,6,-3,1,0,0,1,22,182,10,1,,,,,,,,
,,,,,,,,,,,,,FF,,,,,,,,0.9,,,,,,,,,,,,,,,,,,,,,,61023d86ff017d53fdb4970e,61036d49d1f92de10ffb3ee2,2021-07-29_21h09.26.303,Simcolourproject_2stim_asymm_v5,2020.2.10,MacIntel,60,61025ae37ef11b136ea224fe,,,,,,,,,1329,47,69,1,0,0,response1disk,,7,-8,-12,1,0,0,rectangle,-8,-12,1,0,0,-8,-12,1,0,0,1,23,183,21,1,,,,,,,,
,,,,,,,,,,,,,FF,,,,,,,,0.6,,,,,,,,,,,,,,,,,,,,,,61023d86ff017d53fdb4970e,61036d49d1f92de10ffb3ee2,2021-07-29_21h09.26.303,Simcolourproject_2stim_asymm_v5,2020.2.10,MacIntel,60,61025ae37ef11b136ea224fe,,,,,,,,,1289,40,88,1,0,0,response1disk,,7,5,-1,1,0,0,rectangle,5,-1,1,0,0,5,-1,1,0,0,1,24,184,67,1,,,,,,,,
,,,,,,,,,,,,,FF,,,,,,,,0.449,,,,,,,,,,,,,,,,,,,,,,61023d86ff017d53fdb4970e,61036d49d1f92de10ffb3ee2,2021-07-29_21h09.26.303,Simcolourproject_2stim_asymm_v5,2020.2.10,MacIntel,60,61025ae37ef11b136ea224fe,,,,,,,,,4159,20,64,1,0,0,response1disk,,7,15,-2,1,0,0,rectangle,15,-2,1,0,0,15,-2,1,0,0,1,25,185,29,1,,,,,,,,
,,,,,,,,,,,,,FF,,,,,,,,0.699,,,,,,,,,,,,,,,,,,,,,,61023d86ff017d53fdb4970e,61036d49d1f92de10ffb3ee2,2021-07-29_21h09.26.303,Simcolourproject_2stim_asymm_v5,2020.2.10,MacIntel,60,61025ae37ef11b136ea224fe,,,,,,,,,4069,63,107,1,0,0,response1disk,,7,9,0,1,0,0,rectangle,-87,38,1,0,0,-12,14,1,0,0,1,26,186,55,1,,response7disk_3,TRUE,1,1,"[218,110,10,293,96,272,224,207,71,166,197,292,74,305,3,67,141,8,187,198]",1.085,rectangle
,,,,,,,,,,,,,FF,,,,,,,,0.917,,,,,,,,,,,,,,,,,,,,,,61023d86ff017d53fdb4970e,61036d49d1f92de10ffb3ee2,2021-07-29_21h09.26.303,Simcolourproject_2stim_asymm_v5,2020.2.10,MacIntel,60,61025ae37ef11b136ea224fe,,,,,,,,,1344,26,71,1,0,0,response1disk,,7,-13,-11,1,0,0,rectangle,-13,-11,1,0,0,-13,-11,1,0,0,1,27,187,82,1,,,,,,,,
,,,,,,,,,,,,,FF,,,,,,,,0.9,,,,,,,,,,,,,,,,,,,,,,61023d86ff017d53fdb4970e,61036d49d1f92de10ffb3ee2,2021-07-29_21h09.26.303,Simcolourproject_2stim_asymm_v5,2020.2.10,MacIntel,60,61025ae37ef11b136ea224fe,,,,,,,,,1075,43,81,1,0,0,response1disk,,7,3,3,1,0,0,rectangle,3,3,1,0,0,3,3,1,0,0,1,28,188,108,1,,,,,,,,
,,,,,,,,,,,,,FF,,,,,,,,1.017,,,,,,,,,,,,,,,,,,,,,,61023d86ff017d53fdb4970e,61036d49d1f92de10ffb3ee2,2021-07-29_21h09.26.303,Simcolourproject_2stim_asymm_v5,2020.2.10,MacIntel,60,61025ae37ef11b136ea224fe,,,,,,,,,2284,89,45,1,0,0,response1disk,,6,27,0,1,0,0,rectangle,27,0,1,0,0,27,0,1,0,0,1,29,189,146,1,,,,,,,,
,,,,,,,,,,,,,FF,,,,,,,,0.699,,,,,,,,,,,,,,,,,,,,,,61023d86ff017d53fdb4970e,61036d49d1f92de10ffb3ee2,2021-07-29_21h09.26.303,Simcolourproject_2stim_asymm_v5,2020.2.10,MacIntel,60,61025ae37ef11b136ea224fe,,,,,,,,,467,37,88,1,0,0,response1disk,,7,4,16,1,0,0,rectangle,4,16,1,0,0,4,16,1,0,0,1,30,190,110,1,,,,,,,,
,,,,,,,,,,,,,FF,,,,,,,,1.817,,,,,,,,,,,,,,,,,,,,,,61023d86ff017d53fdb4970e,61036d49d1f92de10ffb3ee2,2021-07-29_21h09.26.303,Simcolourproject_2stim_asymm_v5,2020.2.10,MacIntel,60,61025ae37ef11b136ea224fe,,,,,,,,,4341,101,56,1,0,0,response1disk,,6,20,17,1,0,0,rectangle,20,17,1,0,0,20,17,1,0,0,1,31,191,72,1,,,,,,,,
,,,,,,,,,,,,,FF,,,,,,,,1.55,,,,,,,,,,,,,,,,,,,,,,61023d86ff017d53fdb4970e,61036d49d1f92de10ffb3ee2,2021-07-29_21h09.26.303,Simcolourproject_2stim_asymm_v5,2020.2.10,MacIntel,60,61025ae37ef11b136ea224fe,,,,,,,,,3771,99,41,1,0,0,response1disk,,6,16,7,1,0,0,rectangle,16,7,1,0,0,16,7,1,0,0,1,32,192,123,1,,,,,,,,
,,,,,,,,,,,,,FF,,,,,,,,0.466,,,,,,,,,,,,,,,,,,,,,,61023d86ff017d53fdb4970e,61036d49d1f92de10ffb3ee2,2021-07-29_21h09.26.303,Simcolourproject_2stim_asymm_v5,2020.2.10,MacIntel,60,61025ae37ef11b136ea224fe,,,,,,,,,1158,34,74,1,0,0,response1disk,,7,6,10,1,0,0,rectangle,6,10,1,0,0,6,10,1,0,0,1,33,193,154,1,,,,,,,,
,,,,,,,,,,,,,FF,,,,,,,,0.484,,,,,,,,,,,,,,,,,,,,,,61023d86ff017d53fdb4970e,61036d49d1f92de10ffb3ee2,2021-07-29_21h09.26.303,Simcolourproject_2stim_asymm_v5,2020.2.10,MacIntel,60,61025ae37ef11b136ea224fe,,,,,,,,,1334,36,72,1,0,0,response1disk,,7,2,-4,1,0,0,rectangle,2,-4,1,0,0,2,-4,1,0,0,1,34,194,121,1,,,,,,,,
,,,,,,,,,,,,,FF,,,,,,,,0.734,,,,,,,,,,,,,,,,,,,,,,61023d86ff017d53fdb4970e,61036d49d1f92de10ffb3ee2,2021-07-29_21h09.26.303,Simcolourproject_2stim_asymm_v5,2020.2.10,MacIntel,60,61025ae37ef11b136ea224fe,,,,,,,,,4280,-59,33,1,0,0,response7disk,,1,-1,11,1,0,0,rectangle,-1,11,1,0,0,-1,11,1,0,0,1,35,195,127,1,,,,,,,,
,,,,,,,,,,,,,FF,,,,,,,,3.016,,,,,,,,,,,,,,,,,,,,,,61023d86ff017d53fdb4970e,61036d49d1f92de10ffb3ee2,2021-07-29_21h09.26.303,Simcolourproject_2stim_asymm_v5,2020.2.10,MacIntel,60,61025ae37ef11b136ea224fe,,,,,,,,,3393,45,-81,1,0,0,response3disk,,4,6,9,1,0,0,rectangle,27,119,1,0,0,-8,9,1,0,0,1,36,196,32,1,,response1disk_3,TRUE,7,7,"[218,110,10,293,96,272,224,207,71,166,197,292,74,305,3,67,141,8,187,198]",1.15,rectangle
,,,,,,,,,,,,,FF,,,,,,,,1.199,,,,,,,,,,,,,,,,,,,,,,61023d86ff017d53fdb4970e,61036d49d1f92de10ffb3ee2,2021-07-29_21h09.26.303,Simcolourproject_2stim_asymm_v5,2020.2.10,MacIntel,60,61025ae37ef11b136ea224fe,,,,,,,,,445,-44,-70,1,0,0,response5disk,,3,-8,6,1,0,0,rectangle,29,93,1,0,0,7,13,1,0,0,1,37,197,96,1,,response1disk_3,TRUE,7,7,"[218,110,10,293,96,272,224,207,71,166,197,292,74,305,3,67,141,8,187,198]",1.134,rectangle
,,,,,,,,,,,,,FF,,,,,,,,1.083,,,,,,,,,,,,,,,,,,,,,,61023d86ff017d53fdb4970e,61036d49d1f92de10ffb3ee2,2021-07-29_21h09.26.303,Simcolourproject_2stim_asymm_v5,2020.2.10,MacIntel,60,61025ae37ef11b136ea224fe,,,,,,,,,1059,64,41,1,0,0,response1disk,,6,11,8,1,0,0,rectangle,11,8,1,0,0,11,8,1,0,0,1,38,198,104,1,,,,,,,,
,,,,,,,,,,,,,FF,,,,,,,,0.784,,,,,,,,,,,,,,,,,,,,,,61023d86ff017d53fdb4970e,61036d49d1f92de10ffb3ee2,2021-07-29_21h09.26.303,Simcolourproject_2stim_asymm_v5,2020.2.10,MacIntel,60,61025ae37ef11b136ea224fe,,,,,,,,,2101,29,-58,1,0,0,response3disk,,4,16,-1,1,0,0,rectangle,16,-1,1,0,0,16,-1,1,0,0,1,39,199,105,1,,,,,,,,
,,,,,,,,,,,,,FF,,,,,,,,0.633,,,,,,,,,,,,,,,,,,,,,,61023d86ff017d53fdb4970e,61036d49d1f92de10ffb3ee2,2021-07-29_21h09.26.303,Simcolourproject_2stim_asymm_v5,2020.2.10,MacIntel,60,61025ae37ef11b136ea224fe,,,,,,,,,311,41,102,1,0,0,response1disk,,7,7,7,1,0,0,rectangle,7,7,1,0,0,7,7,1,0,0,1,40,200,107,1,,,,,,,,
,,,,,,,,,,,,,FF,,,,,,,,0.684,,,,,,,,,,,,,,,,,,,,,,61023d86ff017d53fdb4970e,61036d49d1f92de10ffb3ee2,2021-07-29_21h09.26.303,Simcolourproject_2stim_asymm_v5,2020.2.10,MacIntel,60,61025ae37ef11b136ea224fe,,,,,,,,,694,39,75,1,0,0,response1disk,,7,7,-1,1,0,0,rectangle,7,-1,1,0,0,7,-1,1,0,0,1,41,201,88,1,,,,,,,,
,,,,,,,,,,,,,FF,,,,,,,,0.501,,,,,,,,,,,,,,,,,,,,,,61023d86ff017d53fdb4970e,61036d49d1f92de10ffb3ee2,2021-07-29_21h09.26.303,Simcolourproject_2stim_asymm_v5,2020.2.10,MacIntel,60,61025ae37ef11b136ea224fe,,,,,,,,,3130,44,76,1,0,0,response1disk,,7,11,-4,1,0,0,rectangle,11,-4,1,0,0,11,-4,1,0,0,1,42,202,90,1,,,,,,,,
,,,,,,,,,,,,,FF,,,,,,,,1.233,,,,,,,,,,,,,,,,,,,,,,61023d86ff017d53fdb4970e,61036d49d1f92de10ffb3ee2,2021-07-29_21h09.26.303,Simcolourproject_2stim_asymm_v5,2020.2.10,MacIntel,60,61025ae37ef11b136ea224fe,,,,,,,,,1069,79,57,1,0,0,response1disk,,6,8,-7,1,0,0,rectangle,8,-7,1,0,0,8,-7,1,0,0,1,43,203,94,1,,,,,,,,
,,,,,,,,,,,,,FF,,,,,,,,0.867,,,,,,,,,,,,,,,,,,,,,,61023d86ff017d53fdb4970e,61036d49d1f92de10ffb3ee2,2021-07-29_21h09.26.303,Simcolourproject_2stim_asymm_v5,2020.2.10,MacIntel,60,61025ae37ef11b136ea224fe,,,,,,,,,3245,63,-44,1,0,0,response3disk,,5,22,-7,1,0,0,rectangle,22,-7,1,0,0,22,-7,1,0,0,1,44,204,75,1,,,,,,,,
,,,,,,,,,,,,,FF,,,,,,,,3.683,,,,,,,,,,,,,,,,,,,,,,61023d86ff017d53fdb4970e,61036d49d1f92de10ffb3ee2,2021-07-29_21h09.26.303,Simcolourproject_2stim_asymm_v5,2020.2.10,MacIntel,60,61025ae37ef11b136ea224fe,,,,,,,,,830,33,45,1,0,0,response1disk,,7,0,9,1,0,0,rectangle,0,9,1,0,0,0,9,1,0,0,1,45,205,100,1,,,,,,,,
,,,,,,,,,,,,,FF,,,,,,,,0.533,,,,,,,,,,,,,,,,,,,,,,61023d86ff017d53fdb4970e,61036d49d1f92de10ffb3ee2,2021-07-29_21h09.26.303,Simcolourproject_2stim_asymm_v5,2020.2.10,MacIntel,60,61025ae37ef11b136ea224fe,,,,,,,,,964,28,62,1,0,0,response1disk,,7,0,-8,1,0,0,rectangle,-32,-60,1,0,0,0,9,1,0,0,1,46,206,24,1,,response5disk_3,TRUE,3,3,"[218,110,10,293,96,272,224,207,71,166,197,292,74,305,3,67,141,8,187,198]",1.016,rectangle
,,,,,,,,,,,,,FF,,,,,,,,0.566,,,,,,,,,,,,,,,,,,,,,,61023d86ff017d53fdb4970e,61036d49d1f92de10ffb3ee2,2021-07-29_21h09.26.303,Simcolourproject_2stim_asymm_v5,2020.2.10,MacIntel,60,61025ae37ef11b136ea224fe,,,,,,,,,2815,29,54,1,0,0,response1disk,,7,0,-17,1,0,0,rectangle,0,-17,1,0,0,0,-17,1,0,0,1,47,207,35,1,,,,,,,,
,,,,,,,,,,,,,FF,,,,,,,,0.8,,,,,,,,,,,,,,,,,,,,,,61023d86ff017d53fdb4970e,61036d49d1f92de10ffb3ee2,2021-07-29_21h09.26.303,Simcolourproject_2stim_asymm_v5,2020.2.10,MacIntel,60,61025ae37ef11b136ea224fe,,,,,,,,,431,45,-86,1,0,0,response3disk,,4,19,-15,1,0,0,rectangle,19,-15,1,0,0,19,-15,1,0,0,1,48,208,138,1,,,,,,,,
,,,,,,,,,,,,,FF,,,,,,,,0.851,,,,,,,,,,,,,,,,,,,,,,61023d86ff017d53fdb4970e,61036d49d1f92de10ffb3ee2,2021-07-29_21h09.26.303,Simcolourproject_2stim_asymm_v5,2020.2.10,MacIntel,60,61025ae37ef11b136ea224fe,,,,,,,,,3774,35,75,1,0,0,response1disk,,7,3,-4,1,0,0,rectangle,3,-4,1,0,0,3,-4,1,0,0,1,49,209,19,1,,,,,,,,
,,,,,,,,,,,,,FF,,,,,,,,0.817,,,,,,,,,,,,,,,,,,,,,,61023d86ff017d53fdb4970e,61036d49d1f92de10ffb3ee2,2021-07-29_21h09.26.303,Simcolourproject_2stim_asymm_v5,2020.2.10,MacIntel,60,61025ae37ef11b136ea224fe,,,,,,,,,3658,61,30,1,0,0,response1disk,,6,10,6,1,0,0,rectangle,10,6,1,0,0,10,6,1,0,0,1,50,210,13,1,,,,,,,,
,,,,,,,,,,,,,FF,,,,,,,,0.933,,,,,,,,,,,,,,,,,,,,,,61023d86ff017d53fdb4970e,61036d49d1f92de10ffb3ee2,2021-07-29_21h09.26.303,Simcolourproject_2stim_asymm_v5,2020.2.10,MacIntel,60,61025ae37ef11b136ea224fe,,,,,,,,,1454,-38,-61,1,0,0,response5disk,,3,-5,2,1,0,0,rectangle,-5,2,1,0,0,-5,2,1,0,0,1,51,211,95,1,,,,,,,,
,,,,,,,,,,,,,FF,,,,,,,,0.518,,,,,,,,,,,,,,,,,,,,,,61023d86ff017d53fdb4970e,61036d49d1f92de10ffb3ee2,2021-07-29_21h09.26.303,Simcolourproject_2stim_asymm_v5,2020.2.10,MacIntel,60,61025ae37ef11b136ea224fe,,,,,,,,,4158,24,54,1,0,0,response1disk,,7,4,8,1,0,0,rectangle,4,8,1,0,0,4,8,1,0,0,1,52,212,74,1,,,,,,,,
,,,,,,,,,,,,,FF,,,,,,,,0.833,,,,,,,,,,,,,,,,,,,,,,61023d86ff017d53fdb4970e,61036d49d1f92de10ffb3ee2,2021-07-29_21h09.26.303,Simcolourproject_2stim_asymm_v5,2020.2.10,MacIntel,60,61025ae37ef11b136ea224fe,,,,,,,,,1731,32,55,1,0,0,response1disk,,7,0,2,1,0,0,rectangle,0,2,1,0,0,0,2,1,0,0,1,53,213,11,1,,,,,,,,
,,,,,,,,,,,,,FF,,,,,,,,0.732,,,,,,,,,,,,,,,,,,,,,,61023d86ff017d53fdb4970e,61036d49d1f92de10ffb3ee2,2021-07-29_21h09.26.303,Simcolourproject_2stim_asymm_v5,2020.2.10,MacIntel,60,61025ae37ef11b136ea224fe,,,,,,,,,684,25,62,1,0,0,response1disk,,7,4,-2,1,0,0,rectangle,4,-2,1,0,0,4,-2,1,0,0,1,54,214,84,1,,,,,,,,
,,,,,,,,,,,,,FF,,,,,,,,0.684,,,,,,,,,,,,,,,,,,,,,,61023d86ff017d53fdb4970e,61036d49d1f92de10ffb3ee2,2021-07-29_21h09.26.303,Simcolourproject_2stim_asymm_v5,2020.2.10,MacIntel,60,61025ae37ef11b136ea224fe,,,,,,,,,54,40,71,1,0,0,response1disk,,7,18,8,1,0,0,rectangle,18,8,1,0,0,18,8,1,0,0,1,55,215,155,1,,,,,,,,
,,,,,,,,,,,,,FF,,,,,,,,0.667,,,,,,,,,,,,,,,,,,,,,,61023d86ff017d53fdb4970e,61036d49d1f92de10ffb3ee2,2021-07-29_21h09.26.303,Simcolourproject_2stim_asymm_v5,2020.2.10,MacIntel,60,61025ae37ef11b136ea224fe,,,,,,,,,2911,35,51,1,0,0,response1disk,,7,17,2,1,0,0,rectangle,17,2,1,0,0,17,2,1,0,0,1,56,216,142,1,,,,,,,,
,,,,,,,,,,,,,FF,,,,,,,,1,,,,,,,,,,,,,,,,,,,,,,61023d86ff017d53fdb4970e,61036d49d1f92de10ffb3ee2,2021-07-29_21h09.26.303,Simcolourproject_2stim_asymm_v5,2020.2.10,MacIntel,60,61025ae37ef11b136ea224fe,,,,,,,,,3959,33,58,1,0,0,response1disk,,7,2,-6,1,0,0,rectangle,80,-45,1,0,0,27,-14,1,0,0,1,57,217,7,1,,response3disk_3,TRUE,5,5,"[218,110,10,293,96,272,224,207,71,166,197,292,74,305,3,67,141,8,187,198]",1.316,rectangle
,,,,,,,,,,,,,FF,,,,,,,,0.584,,,,,,,,,,,,,,,,,,,,,,61023d86ff017d53fdb4970e,61036d49d1f92de10ffb3ee2,2021-07-29_21h09.26.303,Simcolourproject_2stim_asymm_v5,2020.2.10,MacIntel,60,61025ae37ef11b136ea224fe,,,,,,,,,3790,31,60,1,0,0,response1disk,,7,-1,-1,1,0,0,rectangle,-1,-1,1,0,0,-1,-1,1,0,0,1,58,218,152,1,,,,,,,,
,,,,,,,,,,,,,FF,,,,,,,,0.467,,,,,,,,,,,,,,,,,,,,,,61023d86ff017d53fdb4970e,61036d49d1f92de10ffb3ee2,2021-07-29_21h09.26.303,Simcolourproject_2stim_asymm_v5,2020.2.10,MacIntel,60,61025ae37ef11b136ea224fe,,,,,,,,,3417,37,72,1,0,0,response1disk,,7,-6,2,1,0,0,rectangle,-6,2,1,0,0,-6,2,1,0,0,1,59,219,46,1,,,,,,,,
,,,,,,,,,,,,,FF,,,,,,,,1.314,,,,,,,,,,,,,,,,,,,,,,61023d86ff017d53fdb4970e,61036d49d1f92de10ffb3ee2,2021-07-29_21h09.26.303,Simcolourproject_2stim_asymm_v5,2020.2.10,MacIntel,60,61025ae37ef11b136ea224fe,,,,,,,,,4300,31,68,1,0,0,response1disk,,7,2,10,1,0,0,rectangle,2,10,1,0,0,2,10,1,0,0,1,60,220,122,1,,,,,,,,
,,,,,,,,,,,,,FF,,,,,,,,1.566,,,,,,,,,,,,,,,,,,,,,,61023d86ff017d53fdb4970e,61036d49d1f92de10ffb3ee2,2021-07-29_21h09.26.303,Simcolourproject_2stim_asymm_v5,2020.2.10,MacIntel,60,61025ae37ef11b136ea224fe,,,,,,,,,1757,32,-78,1,0,0,response3disk,,4,26,-13,1,0,0,rectangle,26,-13,1,0,0,26,-13,1,0,0,1,61,221,22,1,,,,,,,,
,,,,,,,,,,,,,FF,,,,,,,,1.234,,,,,,,,,,,,,,,,,,,,,,61023d86ff017d53fdb4970e,61036d49d1f92de10ffb3ee2,2021-07-29_21h09.26.303,Simcolourproject_2stim_asymm_v5,2020.2.10,MacIntel,60,61025ae37ef11b136ea224fe,,,,,,,,,797,47,78,1,0,0,response1disk,,7,2,-10,1,0,0,rectangle,2,-10,1,0,0,2,-10,1,0,0,1,62,222,134,1,,,,,,,,
,,,,,,,,,,,,,FF,,,,,,,,3.6,,,,,,,,,,,,,,,,,,,,,,61023d86ff017d53fdb4970e,61036d49d1f92de10ffb3ee2,2021-07-29_21h09.26.303,Simcolourproject_2stim_asymm_v5,2020.2.10,MacIntel,60,61025ae37ef11b136ea224fe,,,,,,,,,2229,61,-36,1,0,0,response3disk,,5,5,-6,1,0,0,rectangle,-90,-31,1,0,0,-24,-10,1,0,0,1,63,223,86,1,,response5disk_3,TRUE,2,2,"[218,110,10,293,96,272,224,207,71,166,197,292,74,305,3,67,141,8,187,198]",1.5,rectangle
,,,,,,,,,,,,,FF,,,,,,,,0.766,,,,,,,,,,,,,,,,,,,,,,61023d86ff017d53fdb4970e,61036d49d1f92de10ffb3ee2,2021-07-29_21h09.26.303,Simcolourproject_2stim_asymm_v5,2020.2.10,MacIntel,60,61025ae37ef11b136ea224fe,,,,,,,,,3692,41,101,1,0,0,response1disk,,7,-2,6,1,0,0,rectangle,-2,6,1,0,0,-2,6,1,0,0,1,64,224,151,1,,,,,,,,
,,,,,,,,,,,,,FF,,,,,,,,1.816,,,,,,,,,,,,,,,,,,,,,,61023d86ff017d53fdb4970e,61036d49d1f92de10ffb3ee2,2021-07-29_21h09.26.303,Simcolourproject_2stim_asymm_v5,2020.2.10,MacIntel,60,61025ae37ef11b136ea224fe,,,,,,,,,2525,48,86,1,0,0,response1disk,,7,6,10,1,0,0,rectangle,6,10,1,0,0,6,10,1,0,0,1,65,225,59,1,,,,,,,,
,,,,,,,,,,,,,FF,,,,,,,,1.584,,,,,,,,,,,,,,,,,,,,,,61023d86ff017d53fdb4970e,61036d49d1f92de10ffb3ee2,2021-07-29_21h09.26.303,Simcolourproject_2stim_asymm_v5,2020.2.10,MacIntel,60,61025ae37ef11b136ea224fe,,,,,,,,,1313,71,-65,1,0,0,response3disk,,5,-10,-10,1,0,0,rectangle,-10,-10,1,0,0,-10,-10,1,0,0,1,66,226,153,1,,,,,,,,
,,,,,,,,,,,,,FF,,,,,,,,0.85,,,,,,,,,,,,,,,,,,,,,,61023d86ff017d53fdb4970e,61036d49d1f92de10ffb3ee2,2021-07-29_21h09.26.303,Simcolourproject_2stim_asymm_v5,2020.2.10,MacIntel,60,61025ae37ef11b136ea224fe,,,,,,,,,2351,25,79,1,0,0,response1disk,,7,-13,-2,1,0,0,rectangle,-13,-2,1,0,0,-13,-2,1,0,0,1,67,227,130,1,,,,,,,,
,,,,,,,,,,,,,FF,,,,,,,,1.366,,,,,,,,,,,,,,,,,,,,,,61023d86ff017d53fdb4970e,61036d49d1f92de10ffb3ee2,2021-07-29_21h09.26.303,Simcolourproject_2stim_asymm_v5,2020.2.10,MacIntel,60,61025ae37ef11b136ea224fe,,,,,,,,,3916,46,79,1,0,0,response1disk,,7,14,9,1,0,0,rectangle,14,9,1,0,0,14,9,1,0,0,1,68,228,129,1,,,,,,,,
,,,,,,,,,,,,,FF,,,,,,,,0.568,,,,,,,,,,,,,,,,,,,,,,61023d86ff017d53fdb4970e,61036d49d1f92de10ffb3ee2,2021-07-29_21h09.26.303,Simcolourproject_2stim_asymm_v5,2020.2.10,MacIntel,60,61025ae37ef11b136ea224fe,,,,,,,,,228,37,68,1,0,0,response1disk,,7,0,-11,1,0,0,rectangle,0,-11,1,0,0,0,-11,1,0,0,1,69,229,119,1,,,,,,,,
,,,,,,,,,,,,,FF,,,,,,,,1.734,,,,,,,,,,,,,,,,,,,,,,61023d86ff017d53fdb4970e,61036d49d1f92de10ffb3ee2,2021-07-29_21h09.26.303,Simcolourproject_2stim_asymm_v5,2020.2.10,MacIntel,60,61025ae37ef11b136ea224fe,,,,,,,,,1835,92,43,1,0,0,response1disk,,6,17,8,1,0,0,rectangle,17,8,1,0,0,17,8,1,0,0,1,70,230,150,1,,,,,,,,
,,,,,,,,,,,,,FF,,,,,,,,0.601,,,,,,,,,,,,,,,,,,,,,,61023d86ff017d53fdb4970e,61036d49d1f92de10ffb3ee2,2021-07-29_21h09.26.303,Simcolourproject_2stim_asymm_v5,2020.2.10,MacIntel,60,61025ae37ef11b136ea224fe,,,,,,,,,753,57,85,1,0,0,response1disk,,7,1,-18,1,0,0,rectangle,1,-18,1,0,0,1,-18,1,0,0,1,71,231,28,1,,,,,,,,
,,,,,,,,,,,,,FF,,,,,,,,0.517,,,,,,,,,,,,,,,,,,,,,,61023d86ff017d53fdb4970e,61036d49d1f92de10ffb3ee2,2021-07-29_21h09.26.303,Simcolourproject_2stim_asymm_v5,2020.2.10,MacIntel,60,61025ae37ef11b136ea224fe,,,,,,,,,879,49,70,1,0,0,response1disk,,7,9,-4,1,0,0,rectangle,9,-4,1,0,0,9,-4,1,0,0,1,72,232,39,1,,,,,,,,
,,,,,,,,,,,,,FF,,,,,,,,1.449,,,,,,,,,,,,,,,,,,,,,,61023d86ff017d53fdb4970e,61036d49d1f92de10ffb3ee2,2021-07-29_21h09.26.303,Simcolourproject_2stim_asymm_v5,2020.2.10,MacIntel,60,61025ae37ef11b136ea224fe,,,,,,,,,2868,54,78,1,0,0,response1disk,,7,2,0,1,0,0,rectangle,2,0,1,0,0,2,0,1,0,0,1,73,233,102,1,,,,,,,,
,,,,,,,,,,,,,FF,,,,,,,,0.817,,,,,,,,,,,,,,,,,,,,,,61023d86ff017d53fdb4970e,61036d49d1f92de10ffb3ee2,2021-07-29_21h09.26.303,Simcolourproject_2stim_asymm_v5,2020.2.10,MacIntel,60,61025ae37ef11b136ea224fe,,,,,,,,,423,21,75,1,0,0,response1disk,,7,1,1,1,0,0,rectangle,1,1,1,0,0,1,1,1,0,0,1,74,234,58,1,,,,,,,,
,,,,,,,,,,,,,FF,,,,,,,,1.35,,,,,,,,,,,,,,,,,,,,,,61023d86ff017d53fdb4970e,61036d49d1f92de10ffb3ee2,2021-07-29_21h09.26.303,Simcolourproject_2stim_asymm_v5,2020.2.10,MacIntel,60,61025ae37ef11b136ea224fe,,,,,,,,,354,51,-88,1,0,0,response3disk,,4,23,-17,1,0,0,rectangle,23,-17,1,0,0,23,-17,1,0,0,1,75,235,145,1,,,,,,,,
,,,,,,,,,,,,,FF,,,,,,,,0.582,,,,,,,,,,,,,,,,,,,,,,61023d86ff017d53fdb4970e,61036d49d1f92de10ffb3ee2,2021-07-29_21h09.26.303,Simcolourproject_2stim_asymm_v5,2020.2.10,MacIntel,60,61025ae37ef11b136ea224fe,,,,,,,,,1830,33,-81,1,0,0,response3disk,,4,12,-7,1,0,0,rectangle,12,-7,1,0,0,12,-7,1,0,0,1,76,236,157,1,,,,,,,,
,,,,,,,,,,,,,FF,,,,,,,,0.584,,,,,,,,,,,,,,,,,,,,,,61023d86ff017d53fdb4970e,61036d49d1f92de10ffb3ee2,2021-07-29_21h09.26.303,Simcolourproject_2stim_asymm_v5,2020.2.10,MacIntel,60,61025ae37ef11b136ea224fe,,,,,,,,,3690,27,57,1,0,0,response1disk,,7,-2,-4,1,0,0,rectangle,-2,-4,1,0,0,-2,-4,1,0,0,1,77,237,83,1,,,,,,,,
,,,,,,,,,,,,,FF,,,,,,,,0.717,,,,,,,,,,,,,,,,,,,,,,61023d86ff017d53fdb4970e,61036d49d1f92de10ffb3ee2,2021-07-29_21h09.26.303,Simcolourproject_2stim_asymm_v5,2020.2.10,MacIntel,60,61025ae37ef11b136ea224fe,,,,,,,,,463,31,-80,1,0,0,response3disk,,4,15,14,1,0,0,rectangle,15,14,1,0,0,15,14,1,0,0,1,78,238,27,1,,,,,,,,
,,,,,,,,,,,,,FF,,,,,,,,0.668,,,,,,,,,,,,,,,,,,,,,,61023d86ff017d53fdb4970e,61036d49d1f92de10ffb3ee2,2021-07-29_21h09.26.303,Simcolourproject_2stim_asymm_v5,2020.2.10,MacIntel,60,61025ae37ef11b136ea224fe,,,,,,,,,2735,32,-85,1,0,0,response3disk,,4,13,14,1,0,0,rectangle,13,14,1,0,0,13,14,1,0,0,1,79,239,115,1,,,,,,,,
,,,,,,,,,,,,,FF,,,,,,,,0.632,,,,,,,,,,,,,,,,,,,,,,61023d86ff017d53fdb4970e,61036d49d1f92de10ffb3ee2,2021-07-29_21h09.26.303,Simcolourproject_2stim_asymm_v5,2020.2.10,MacIntel,60,61025ae37ef11b136ea224fe,,,,,,,,,1025,44,95,1,0,0,response1disk,,7,-2,3,1,0,0,rectangle,-2,3,1,0,0,-2,3,1,0,0,1,80,240,3,1,,,,,,,,
,,,,,,,,,,,,,FF,,,,,,,,0.733,,,,,,,,,,,,,,,,,,,,,,61023d86ff017d53fdb4970e,61036d49d1f92de10ffb3ee2,2021-07-29_21h09.26.303,Simcolourproject_2stim_asymm_v5,2020.2.10,MacIntel,60,61025ae37ef11b136ea224fe,,,,,,,,,1821,21,-70,1,0,0,response3disk,,4,13,7,1,0,0,rectangle,13,7,1,0,0,13,7,1,0,0,1,81,241,44,1,,,,,,,,
,,,,,,,,,,,,,FF,,,,,,,,0.684,,,,,,,,,,,,,,,,,,,,,,61023d86ff017d53fdb4970e,61036d49d1f92de10ffb3ee2,2021-07-29_21h09.26.303,Simcolourproject_2stim_asymm_v5,2020.2.10,MacIntel,60,61025ae37ef11b136ea224fe,,,,,,,,,56,41,65,1,0,0,response1disk,,7,5,12,1,0,0,rectangle,5,12,1,0,0,5,12,1,0,0,1,82,242,42,1,,,,,,,,
,,,,,,,,,,,,,FF,,,,,,,,0.45,,,,,,,,,,,,,,,,,,,,,,61023d86ff017d53fdb4970e,61036d49d1f92de10ffb3ee2,2021-07-29_21h09.26.303,Simcolourproject_2stim_asymm_v5,2020.2.10,MacIntel,60,61025ae37ef11b136ea224fe,,,,,,,,,141,45,82,1,0,0,response1disk,,7,-2,-2,1,0,0,rectangle,-2,-2,1,0,0,-2,-2,1,0,0,1,83,243,9,1,,,,,,,,
,,,,,,,,,,,,,FF,,,,,,,,0.583,,,,,,,,,,,,,,,,,,,,,,61023d86ff017d53fdb4970e,61036d49d1f92de10ffb3ee2,2021-07-29_21h09.26.303,Simcolourproject_2stim_asymm_v5,2020.2.10,MacIntel,60,61025ae37ef11b136ea224fe,,,,,,,,,251,25,46,1,0,0,response1disk,,7,2,3,1,0,0,rectangle,2,3,1,0,0,2,3,1,0,0,1,84,244,51,1,,,,,,,,
,,,,,,,,,,,,,FF,,,,,,,,0.401,,,,,,,,,,,,,,,,,,,,,,61023d86ff017d53fdb4970e,61036d49d1f92de10ffb3ee2,2021-07-29_21h09.26.303,Simcolourproject_2stim_asymm_v5,2020.2.10,MacIntel,60,61025ae37ef11b136ea224fe,,,,,,,,,3989,33,41,1,0,0,response1disk,,7,4,-12,1,0,0,rectangle,4,-12,1,0,0,4,-12,1,0,0,1,85,245,26,1,,,,,,,,
,,,,,,,,,,,,,FF,,,,,,,,1.134,,,,,,,,,,,,,,,,,,,,,,61023d86ff017d53fdb4970e,61036d49d1f92de10ffb3ee2,2021-07-29_21h09.26.303,Simcolourproject_2stim_asymm_v5,2020.2.10,MacIntel,60,61025ae37ef11b136ea224fe,,,,,,,,,2680,83,43,1,0,0,response1disk,,6,20,4,1,0,0,rectangle,20,4,1,0,0,20,4,1,0,0,1,86,246,49,1,,,,,,,,
,,,,,,,,,,,,,FF,,,,,,,,0.7,,,,,,,,,,,,,,,,,,,,,,61023d86ff017d53fdb4970e,61036d49d1f92de10ffb3ee2,2021-07-29_21h09.26.303,Simcolourproject_2stim_asymm_v5,2020.2.10,MacIntel,60,61025ae37ef11b136ea224fe,,,,,,,,,4092,68,41,1,0,0,response1disk,,6,21,2,1,0,0,rectangle,21,2,1,0,0,21,2,1,0,0,1,87,247,1,1,,,,,,,,
,,,,,,,,,,,,,FF,,,,,,,,0.534,,,,,,,,,,,,,,,,,,,,,,61023d86ff017d53fdb4970e,61036d49d1f92de10ffb3ee2,2021-07-29_21h09.26.303,Simcolourproject_2stim_asymm_v5,2020.2.10,MacIntel,60,61025ae37ef11b136ea224fe,,,,,,,,,663,45,65,1,0,0,response1disk,,7,6,12,1,0,0,rectangle,6,12,1,0,0,6,12,1,0,0,1,88,248,98,1,,,,,,,,
,,,,,,,,,,,,,FF,,,,,,,,0.899,,,,,,,,,,,,,,,,,,,,,,61023d86ff017d53fdb4970e,61036d49d1f92de10ffb3ee2,2021-07-29_21h09.26.303,Simcolourproject_2stim_asymm_v5,2020.2.10,MacIntel,60,61025ae37ef11b136ea224fe,,,,,,,,,1693,37,69,1,0,0,response1disk,,7,4,9,1,0,0,rectangle,4,9,1,0,0,4,9,1,0,0,1,89,249,120,1,,,,,,,,
,,,,,,,,,,,,,FF,,,,,,,,0.45,,,,,,,,,,,,,,,,,,,,,,61023d86ff017d53fdb4970e,61036d49d1f92de10ffb3ee2,2021-07-29_21h09.26.303,Simcolourproject_2stim_asymm_v5,2020.2.10,MacIntel,60,61025ae37ef11b136ea224fe,,,,,,,,,85,32,63,1,0,0,response1disk,,7,2,1,1,0,0,rectangle,2,1,1,0,0,2,1,1,0,0,1,90,250,31,1,,,,,,,,
,,,,,,,,,,,,,FF,,,,,,,,0.884,,,,,,,,,,,,,,,,,,,,,,61023d86ff017d53fdb4970e,61036d49d1f92de10ffb3ee2,2021-07-29_21h09.26.303,Simcolourproject_2stim_asymm_v5,2020.2.10,MacIntel,60,61025ae37ef11b136ea224fe,,,,,,,,,3107,61,-32,1,0,0,response3disk,,5,13,-13,1,0,0,rectangle,13,-13,1,0,0,13,-13,1,0,0,1,91,251,41,1,,,,,,,,
,,,,,,,,,,,,,FF,,,,,,,,0.683,,,,,,,,,,,,,,,,,,,,,,61023d86ff017d53fdb4970e,61036d49d1f92de10ffb3ee2,2021-07-29_21h09.26.303,Simcolourproject_2stim_asymm_v5,2020.2.10,MacIntel,60,61025ae37ef11b136ea224fe,,,,,,,,,1811,59,-36,1,0,0,response3disk,,5,3,-2,1,0,0,rectangle,3,-2,1,0,0,3,-2,1,0,0,1,92,252,117,1,,,,,,,,
,,,,,,,,,,,,,FF,,,,,,,,0.95,,,,,,,,,,,,,,,,,,,,,,61023d86ff017d53fdb4970e,61036d49d1f92de10ffb3ee2,2021-07-29_21h09.26.303,Simcolourproject_2stim_asymm_v5,2020.2.10,MacIntel,60,61025ae37ef11b136ea224fe,,,,,,,,,1991,23,56,1,0,0,response1disk,,7,-15,-17,1,0,0,rectangle,-15,-17,1,0,0,-15,-17,1,0,0,1,93,253,78,1,,,,,,,,
,,,,,,,,,,,,,FF,,,,,,,,0.632,,,,,,,,,,,,,,,,,,,,,,61023d86ff017d53fdb4970e,61036d49d1f92de10ffb3ee2,2021-07-29_21h09.26.303,Simcolourproject_2stim_asymm_v5,2020.2.10,MacIntel,60,61025ae37ef11b136ea224fe,,,,,,,,,2623,24,41,1,0,0,response1disk,,7,12,2,1,0,0,rectangle,12,2,1,0,0,12,2,1,0,0,1,94,254,18,1,,,,,,,,
,,,,,,,,,,,,,FF,,,,,,,,1.5,,,,,,,,,,,,,,,,,,,,,,61023d86ff017d53fdb4970e,61036d49d1f92de10ffb3ee2,2021-07-29_21h09.26.303,Simcolourproject_2stim_asymm_v5,2020.2.10,MacIntel,60,61025ae37ef11b136ea224fe,,,,,,,,,888,-23,-78,1,0,0,response5disk,,3,-2,6,1,0,0,rectangle,-2,6,1,0,0,-2,6,1,0,0,1,95,255,61,1,,,,,,,,
,,,,,,,,,,,,,FF,,,,,,,,0.983,,,,,,,,,,,,,,,,,,,,,,61023d86ff017d53fdb4970e,61036d49d1f92de10ffb3ee2,2021-07-29_21h09.26.303,Simcolourproject_2stim_asymm_v5,2020.2.10,MacIntel,60,61025ae37ef11b136ea224fe,,,,,,,,,836,24,52,1,0,0,response1disk,,7,5,14,1,0,0,rectangle,5,14,1,0,0,5,14,1,0,0,1,96,256,57,1,,,,,,,,
,,,,,,,,,,,,,FF,,,,,,,,0.801,,,,,,,,,,,,,,,,,,,,,,61023d86ff017d53fdb4970e,61036d49d1f92de10ffb3ee2,2021-07-29_21h09.26.303,Simcolourproject_2stim_asymm_v5,2020.2.10,MacIntel,60,61025ae37ef11b136ea224fe,,,,,,,,,868,72,30,1,0,0,response1disk,,6,24,13,1,0,0,rectangle,24,13,1,0,0,24,13,1,0,0,1,97,257,92,1,,,,,,,,
,,,,,,,,,,,,,FF,,,,,,,,0.733,,,,,,,,,,,,,,,,,,,,,,61023d86ff017d53fdb4970e,61036d49d1f92de10ffb3ee2,2021-07-29_21h09.26.303,Simcolourproject_2stim_asymm_v5,2020.2.10,MacIntel,60,61025ae37ef11b136ea224fe,,,,,,,,,1089,38,80,1,0,0,response1disk,,7,-5,-5,1,0,0,rectangle,-5,-5,1,0,0,-5,-5,1,0,0,1,98,258,65,1,,,,,,,,
,,,,,,,,,,,,,FF,,,,,,,,0.683,,,,,,,,,,,,,,,,,,,,,,61023d86ff017d53fdb4970e,61036d49d1f92de10ffb3ee2,2021-07-29_21h09.26.303,Simcolourproject_2stim_asymm_v5,2020.2.10,MacIntel,60,61025ae37ef11b136ea224fe,,,,,,,,,310,27,57,1,0,0,response1disk,,7,2,7,1,0,0,rectangle,2,7,1,0,0,2,7,1,0,0,1,99,259,20,1,,,,,,,,
,,,,,,,,,,,,,FF,,,,,,,,2.133,,,,,,,,,,,,,,,,,,,,,,61023d86ff017d53fdb4970e,61036d49d1f92de10ffb3ee2,2021-07-29_21h09.26.303,Simcolourproject_2stim_asymm_v5,2020.2.10,MacIntel,60,61025ae37ef11b136ea224fe,,,,,,,,,3413,30,56,1,0,0,response1disk,,7,2,-7,1,0,0,rectangle,2,-7,1,0,0,2,-7,1,0,0,1,100,260,103,1,,,,,,,,
,,,,,,,,,,,,,FF,,,,,,,,0.535,,,,,,,,,,,,,,,,,,,,,,61023d86ff017d53fdb4970e,61036d49d1f92de10ffb3ee2,2021-07-29_21h09.26.303,Simcolourproject_2stim_asymm_v5,2020.2.10,MacIntel,60,61025ae37ef11b136ea224fe,,,,,,,,,2145,35,57,1,0,0,response1disk,,7,-2,1,1,0,0,rectangle,-2,1,1,0,0,-2,1,1,0,0,1,101,261,73,1,,,,,,,,
,,,,,,,,,,,,,FF,,,,,,,,1.017,,,,,,,,,,,,,,,,,,,,,,61023d86ff017d53fdb4970e,61036d49d1f92de10ffb3ee2,2021-07-29_21h09.26.303,Simcolourproject_2stim_asymm_v5,2020.2.10,MacIntel,60,61025ae37ef11b136ea224fe,,,,,,,,,442,39,-52,1,0,0,response3disk,,4,19,-6,1,0,0,rectangle,19,-6,1,0,0,19,-6,1,0,0,1,102,262,99,1,,,,,,,,
,,,,,,,,,,,,,FF,,,,,,,,0.582,,,,,,,,,,,,,,,,,,,,,,61023d86ff017d53fdb4970e,61036d49d1f92de10ffb3ee2,2021-07-29_21h09.26.303,Simcolourproject_2stim_asymm_v5,2020.2.10,MacIntel,60,61025ae37ef11b136ea224fe,,,,,,,,,4037,40,60,1,0,0,response1disk,,7,12,15,1,0,0,rectangle,12,15,1,0,0,12,15,1,0,0,1,103,263,133,1,,,,,,,,
,,,,,,,,,,,,,FF,,,,,,,,0.367,,,,,,,,,,,,,,,,,,,,,,61023d86ff017d53fdb4970e,61036d49d1f92de10ffb3ee2,2021-07-29_21h09.26.303,Simcolourproject_2stim_asymm_v5,2020.2.10,MacIntel,60,61025ae37ef11b136ea224fe,,,,,,,,,2141,36,66,1,0,0,response1disk,,7,2,5,1,0,0,rectangle,2,5,1,0,0,2,5,1,0,0,1,104,264,101,1,,,,,,,,
,,,,,,,,,,,,,FF,,,,,,,,0.799,,,,,,,,,,,,,,,,,,,,,,61023d86ff017d53fdb4970e,61036d49d1f92de10ffb3ee2,2021-07-29_21h09.26.303,Simcolourproject_2stim_asymm_v5,2020.2.10,MacIntel,60,61025ae37ef11b136ea224fe,,,,,,,,,3473,33,-53,1,0,0,response3disk,,4,7,2,1,0,0,rectangle,7,2,1,0,0,7,2,1,0,0,1,105,265,109,1,,,,,,,,
,,,,,,,,,,,,,FF,,,,,,,,0.516,,,,,,,,,,,,,,,,,,,,,,61023d86ff017d53fdb4970e,61036d49d1f92de10ffb3ee2,2021-07-29_21h09.26.303,Simcolourproject_2stim_asymm_v5,2020.2.10,MacIntel,60,61025ae37ef11b136ea224fe,,,,,,,,,3215,30,65,1,0,0,response1disk,,7,-11,-3,1,0,0,rectangle,-11,-3,1,0,0,-11,-3,1,0,0,1,106,266,69,1,,,,,,,,
,,,,,,,,,,,,,FF,,,,,,,,0.599,,,,,,,,,,,,,,,,,,,,,,61023d86ff017d53fdb4970e,61036d49d1f92de10ffb3ee2,2021-07-29_21h09.26.303,Simcolourproject_2stim_asymm_v5,2020.2.10,MacIntel,60,61025ae37ef11b136ea224fe,,,,,,,,,4234,31,71,1,0,0,response1disk,,7,6,4,1,0,0,rectangle,6,4,1,0,0,6,4,1,0,0,1,107,267,33,1,,,,,,,,
,,,,,,,,,,,,,FF,,,,,,,,0.549,,,,,,,,,,,,,,,,,,,,,,61023d86ff017d53fdb4970e,61036d49d1f92de10ffb3ee2,2021-07-29_21h09.26.303,Simcolourproject_2stim_asymm_v5,2020.2.10,MacIntel,60,61025ae37ef11b136ea224fe,,,,,,,,,1795,30,58,1,0,0,response1disk,,7,-7,-13,1,0,0,rectangle,-7,-13,1,0,0,-7,-13,1,0,0,1,108,268,4,1,,,,,,,,
,,,,,,,,,,,,,FF,,,,,,,,0.584,,,,,,,,,,,,,,,,,,,,,,61023d86ff017d53fdb4970e,61036d49d1f92de10ffb3ee2,2021-07-29_21h09.26.303,Simcolourproject_2stim_asymm_v5,2020.2.10,MacIntel,60,61025ae37ef11b136ea224fe,,,,,,,,,3185,41,74,1,0,0,response1disk,,7,5,3,1,0,0,rectangle,5,3,1,0,0,5,3,1,0,0,1,109,269,45,1,,,,,,,,
,,,,,,,,,,,,,FF,,,,,,,,0.566,,,,,,,,,,,,,,,,,,,,,,61023d86ff017d53fdb4970e,61036d49d1f92de10ffb3ee2,2021-07-29_21h09.26.303,Simcolourproject_2stim_asymm_v5,2020.2.10,MacIntel,60,61025ae37ef11b136ea224fe,,,,,,,,,4180,32,58,1,0,0,response1disk,,7,4,-4,1,0,0,rectangle,4,-4,1,0,0,4,-4,1,0,0,1,110,270,47,1,,,,,,,,
,,,,,,,,,,,,,FF,,,,,,,,0.533,,,,,,,,,,,,,,,,,,,,,,61023d86ff017d53fdb4970e,61036d49d1f92de10ffb3ee2,2021-07-29_21h09.26.303,Simcolourproject_2stim_asymm_v5,2020.2.10,MacIntel,60,61025ae37ef11b136ea224fe,,,,,,,,,1883,28,42,1,0,0,response1disk,,7,3,-6,1,0,0,rectangle,-75,23,1,0,0,-16,4,1,0,0,1,111,271,143,1,,response7disk_3,TRUE,1,1,"[218,110,10,293,96,272,224,207,71,166,197,292,74,305,3,67,141,8,187,198]",0.899,rectangle
,,,,,,,,,,,,,FF,,,,,,,,2.216,,,,,,,,,,,,,,,,,,,,,,61023d86ff017d53fdb4970e,61036d49d1f92de10ffb3ee2,2021-07-29_21h09.26.303,Simcolourproject_2stim_asymm_v5,2020.2.10,MacIntel,60,61025ae37ef11b136ea224fe,,,,,,,,,3140,30,-68,1,0,0,response3disk,,4,0,-3,1,0,0,rectangle,0,-3,1,0,0,0,-3,1,0,0,1,112,272,93,1,,,,,,,,
,,,,,,,,,,,,,FF,,,,,,,,1.65,,,,,,,,,,,,,,,,,,,,,,61023d86ff017d53fdb4970e,61036d49d1f92de10ffb3ee2,2021-07-29_21h09.26.303,Simcolourproject_2stim_asymm_v5,2020.2.10,MacIntel,60,61025ae37ef11b136ea224fe,,,,,,,,,3831,21,76,1,0,0,response1disk,,7,-4,4,1,0,0,rectangle,-4,4,1,0,0,-4,4,1,0,0,1,113,273,128,1,,,,,,,,
,,,,,,,,,,,,,FF,,,,,,,,1.284,,,,,,,,,,,,,,,,,,,,,,61023d86ff017d53fdb4970e,61036d49d1f92de10ffb3ee2,2021-07-29_21h09.26.303,Simcolourproject_2stim_asymm_v5,2020.2.10,MacIntel,60,61025ae37ef11b136ea224fe,,,,,,,,,99,33,-63,1,0,0,response3disk,,4,29,11,1,0,0,rectangle,29,11,1,0,0,29,11,1,0,0,1,114,274,156,1,,,,,,,,
,,,,,,,,,,,,,FF,,,,,,,,0.849,,,,,,,,,,,,,,,,,,,,,,61023d86ff017d53fdb4970e,61036d49d1f92de10ffb3ee2,2021-07-29_21h09.26.303,Simcolourproject_2stim_asymm_v5,2020.2.10,MacIntel,60,61025ae37ef11b136ea224fe,,,,,,,,,3005,-34,-88,1,0,0,response5disk,,3,-12,1,1,0,0,rectangle,-12,1,1,0,0,-12,1,1,0,0,1,115,275,106,1,,,,,,,,
,,,,,,,,,,,,,FF,,,,,,,,0.601,,,,,,,,,,,,,,,,,,,,,,61023d86ff017d53fdb4970e,61036d49d1f92de10ffb3ee2,2021-07-29_21h09.26.303,Simcolourproject_2stim_asymm_v5,2020.2.10,MacIntel,60,61025ae37ef11b136ea224fe,,,,,,,,,1666,37,90,1,0,0,response1disk,,7,4,7,1,0,0,rectangle,4,7,1,0,0,4,7,1,0,0,1,116,276,91,1,,,,,,,,
,,,,,,,,,,,,,FF,,,,,,,,1.3,,,,,,,,,,,,,,,,,,,,,,61023d86ff017d53fdb4970e,61036d49d1f92de10ffb3ee2,2021-07-29_21h09.26.303,Simcolourproject_2stim_asymm_v5,2020.2.10,MacIntel,60,61025ae37ef11b136ea224fe,,,,,,,,,1949,21,-95,1,0,0,response3disk,,4,14,7,1,0,0,rectangle,14,7,1,0,0,14,7,1,0,0,1,117,277,116,1,,,,,,,,
,,,,,,,,,,,,,FF,,,,,,,,0.583,,,,,,,,,,,,,,,,,,,,,,61023d86ff017d53fdb4970e,61036d49d1f92de10ffb3ee2,2021-07-29_21h09.26.303,Simcolourproject_2stim_asymm_v5,2020.2.10,MacIntel,60,61025ae37ef11b136ea224fe,,,,,,,,,3459,26,59,1,0,0,response1disk,,7,5,10,1,0,0,rectangle,5,10,1,0,0,5,10,1,0,0,1,118,278,159,1,,,,,,,,
,,,,,,,,,,,,,FF,,,,,,,,1.668,,,,,,,,,,,,,,,,,,,,,,61023d86ff017d53fdb4970e,61036d49d1f92de10ffb3ee2,2021-07-29_21h09.26.303,Simcolourproject_2stim_asymm_v5,2020.2.10,MacIntel,60,61025ae37ef11b136ea224fe,,,,,,,,,3518,42,-76,1,0,0,response3disk,,4,12,-13,1,0,0,rectangle,12,-13,1,0,0,12,-13,1,0,0,1,119,279,136,1,,,,,,,,
,,,,,,,,,,,,,FF,,,,,,,,0.917,,,,,,,,,,,,,,,,,,,,,,61023d86ff017d53fdb4970e,61036d49d1f92de10ffb3ee2,2021-07-29_21h09.26.303,Simcolourproject_2stim_asymm_v5,2020.2.10,MacIntel,60,61025ae37ef11b136ea224fe,,,,,,,,,4266,-38,79,0,0,1,response7disk,,0,-2,4,1,0,1,rectangle,-2,4,1,0,1,-2,4,1,0,1,1,120,280,68,1,,,,,,,,
,,,,,,,,,,,,,FF,,,,,,,,2.551,,,,,,,,,,,,,,,,,,,,,,61023d86ff017d53fdb4970e,61036d49d1f92de10ffb3ee2,2021-07-29_21h09.26.303,Simcolourproject_2stim_asymm_v5,2020.2.10,MacIntel,60,61025ae37ef11b136ea224fe,,,,,,,,,1068,44,88,1,0,1,response1disk,,7,10,7,1,0,1,rectangle,10,7,1,0,1,10,7,1,0,1,1,121,281,144,1,,,,,,,,
,,,,,,,,,,,,,FF,,,,,,,,0.683,,,,,,,,,,,,,,,,,,,,,,61023d86ff017d53fdb4970e,61036d49d1f92de10ffb3ee2,2021-07-29_21h09.26.303,Simcolourproject_2stim_asymm_v5,2020.2.10,MacIntel,60,61025ae37ef11b136ea224fe,,,,,,,,,1963,-72,47,1,0,1,response7disk,,1,1,3,1,0,1,rectangle,1,3,1,0,1,1,3,1,0,1,1,122,282,50,1,,,,,,,,
,,,,,,,,,,,,,FF,,,,,,,,0.65,,,,,,,,,,,,,,,,,,,,,,61023d86ff017d53fdb4970e,61036d49d1f92de10ffb3ee2,2021-07-29_21h09.26.303,Simcolourproject_2stim_asymm_v5,2020.2.10,MacIntel,60,61025ae37ef11b136ea224fe,,,,,,,,,2480,-76,49,1,0,1,response7disk,,1,-17,11,1,0,1,rectangle,-17,11,1,0,1,-17,11,1,0,1,1,123,283,125,1,,,,,,,,
,,,,,,,,,,,,,FF,,,,,,,,1.4,,,,,,,,,,,,,,,,,,,,,,61023d86ff017d53fdb4970e,61036d49d1f92de10ffb3ee2,2021-07-29_21h09.26.303,Simcolourproject_2stim_asymm_v5,2020.2.10,MacIntel,60,61025ae37ef11b136ea224fe,,,,,,,,,3441,-33,-59,1,0,1,response5disk,,3,-18,0,1,0,1,rectangle,-18,0,1,0,1,-18,0,1,0,1,1,124,284,38,1,,,,,,,,
,,,,,,,,,,,,,FF,,,,,,,,0.933,,,,,,,,,,,,,,,,,,,,,,61023d86ff017d53fdb4970e,61036d49d1f92de10ffb3ee2,2021-07-29_21h09.26.303,Simcolourproject_2stim_asymm_v5,2020.2.10,MacIntel,60,61025ae37ef11b136ea224fe,,,,,,,,,3313,35,106,1,0,1,response1disk,,7,4,2,1,0,1,rectangle,4,2,1,0,1,4,2,1,0,1,1,125,285,148,1,,,,,,,,
,,,,,,,,,,,,,FF,,,,,,,,0.9,,,,,,,,,,,,,,,,,,,,,,61023d86ff017d53fdb4970e,61036d49d1f92de10ffb3ee2,2021-07-29_21h09.26.303,Simcolourproject_2stim_asymm_v5,2020.2.10,MacIntel,60,61025ae37ef11b136ea224fe,,,,,,,,,554,46,70,1,0,1,response1disk,,7,11,10,1,0,1,rectangle,11,10,1,0,1,11,10,1,0,1,1,126,286,54,1,,,,,,,,
,,,,,,,,,,,,,FF,,,,,,,,1.183,,,,,,,,,,,,,,,,,,,,,,61023d86ff017d53fdb4970e,61036d49d1f92de10ffb3ee2,2021-07-29_21h09.26.303,Simcolourproject_2stim_asymm_v5,2020.2.10,MacIntel,60,61025ae37ef11b136ea224fe,,,,,,,,,1873,36,82,1,0,1,response1disk,,7,1,17,0,0,1,rectangle,1,17,0,0,1,1,17,0,0,1,1,127,287,139,1,,,,,,,,
,,,,,,,,,,,,,FF,,,,,,,,0.983,,,,,,,,,,,,,,,,,,,,,,61023d86ff017d53fdb4970e,61036d49d1f92de10ffb3ee2,2021-07-29_21h09.26.303,Simcolourproject_2stim_asymm_v5,2020.2.10,MacIntel,60,61025ae37ef11b136ea224fe,,,,,,,,,3910,31,-56,1,0,1,response3disk,,4,13,14,1,0,1,rectangle,13,14,1,0,1,13,14,1,0,1,1,128,288,52,1,,,,,,,,
,,,,,,,,,,,,,FF,,,,,,,,1.299,,,,,,,,,,,,,,,,,,,,,,61023d86ff017d53fdb4970e,61036d49d1f92de10ffb3ee2,2021-07-29_21h09.26.303,Simcolourproject_2stim_asymm_v5,2020.2.10,MacIntel,60,61025ae37ef11b136ea224fe,,,,,,,,,3139,71,-43,1,0,1,response3disk,,5,2,-6,1,0,1,rectangle,2,-6,1,0,1,2,-6,1,0,1,1,129,289,25,1,,,,,,,,
,,,,,,,,,,,,,FF,,,,,,,,1.235,,,,,,,,,,,,,,,,,,,,,,61023d86ff017d53fdb4970e,61036d49d1f92de10ffb3ee2,2021-07-29_21h09.26.303,Simcolourproject_2stim_asymm_v5,2020.2.10,MacIntel,60,61025ae37ef11b136ea224fe,,,,,,,,,1440,76,-37,1,0,1,response3disk,,5,-2,2,1,0,1,rectangle,-2,2,1,0,1,-2,2,1,0,1,1,130,290,135,1,,,,,,,,
,,,,,,,,,,,,,FF,,,,,,,,0.833,,,,,,,,,,,,,,,,,,,,,,61023d86ff017d53fdb4970e,61036d49d1f92de10ffb3ee2,2021-07-29_21h09.26.303,Simcolourproject_2stim_asymm_v5,2020.2.10,MacIntel,60,61025ae37ef11b136ea224fe,,,,,,,,,1212,37,-57,1,0,1,response3disk,,4,10,6,1,0,1,rectangle,30,104,1,0,1,6,11,1,0,1,1,131,291,48,1,,response1disk_3,TRUE,7,7,"[218,110,10,293,96,272,224,207,71,166,197,292,74,305,3,67,141,8,187,198]",1.032,rectangle
,,,,,,,,,,,,,FF,,,,,,,,1.349,,,,,,,,,,,,,,,,,,,,,,61023d86ff017d53fdb4970e,61036d49d1f92de10ffb3ee2,2021-07-29_21h09.26.303,Simcolourproject_2stim_asymm_v5,2020.2.10,MacIntel,60,61025ae37ef11b136ea224fe,,,,,,,,,2312,63,34,1,0,1,response1disk,,6,-14,10,1,0,1,rectangle,69,-33,1,0,1,11,-4,1,0,1,1,132,292,36,1,,response3disk_3,TRUE,5,5,"[218,110,10,293,96,272,224,207,71,166,197,292,74,305,3,67,141,8,187,198]",1.932,rectangle
,,,,,,,,,,,,,FF,,,,,,,,0.782,,,,,,,,,,,,,,,,,,,,,,61023d86ff017d53fdb4970e,61036d49d1f92de10ffb3ee2,2021-07-29_21h09.26.303,Simcolourproject_2stim_asymm_v5,2020.2.10,MacIntel,60,61025ae37ef11b136ea224fe,,,,,,,,,2876,74,28,1,0,1,response1disk,,6,-2,-12,1,0,1,rectangle,-2,-12,1,0,1,-2,-12,1,0,1,1,133,293,12,1,,,,,,,,
,,,,,,,,,,,,,FF,,,,,,,,0.684,,,,,,,,,,,,,,,,,,,,,,61023d86ff017d53fdb4970e,61036d49d1f92de10ffb3ee2,2021-07-29_21h09.26.303,Simcolourproject_2stim_asymm_v5,2020.2.10,MacIntel,60,61025ae37ef11b136ea224fe,,,,,,,,,412,38,58,1,0,1,response1disk,,7,-1,-15,1,0,1,rectangle,-1,-15,1,0,1,-1,-15,1,0,1,1,134,294,53,1,,,,,,,,
,,,,,,,,,,,,,FF,,,,,,,,0.666,,,,,,,,,,,,,,,,,,,,,,61023d86ff017d53fdb4970e,61036d49d1f92de10ffb3ee2,2021-07-29_21h09.26.303,Simcolourproject_2stim_asymm_v5,2020.2.10,MacIntel,60,61025ae37ef11b136ea224fe,,,,,,,,,1894,41,-73,1,0,1,response3disk,,4,10,-16,1,0,1,rectangle,10,-16,1,0,1,10,-16,1,0,1,1,135,295,0,1,,,,,,,,
,,,,,,,,,,,,,FF,,,,,,,,0.583,,,,,,,,,,,,,,,,,,,,,,61023d86ff017d53fdb4970e,61036d49d1f92de10ffb3ee2,2021-07-29_21h09.26.303,Simcolourproject_2stim_asymm_v5,2020.2.10,MacIntel,60,61025ae37ef11b136ea224fe,,,,,,,,,3760,57,92,1,0,1,response1disk,,7,6,6,1,0,1,rectangle,6,6,1,0,1,6,6,1,0,1,1,136,296,23,1,,,,,,,,
,,,,,,,,,,,,,FF,,,,,,,,0.567,,,,,,,,,,,,,,,,,,,,,,61023d86ff017d53fdb4970e,61036d49d1f92de10ffb3ee2,2021-07-29_21h09.26.303,Simcolourproject_2stim_asymm_v5,2020.2.10,MacIntel,60,61025ae37ef11b136ea224fe,,,,,,,,,3134,42,75,1,0,1,response1disk,,7,8,9,1,0,1,rectangle,8,9,1,0,1,8,9,1,0,1,1,137,297,137,1,,,,,,,,
,,,,,,,,,,,,,FF,,,,,,,,0.517,,,,,,,,,,,,,,,,,,,,,,61023d86ff017d53fdb4970e,61036d49d1f92de10ffb3ee2,2021-07-29_21h09.26.303,Simcolourproject_2stim_asymm_v5,2020.2.10,MacIntel,60,61025ae37ef11b136ea224fe,,,,,,,,,1563,39,67,1,0,1,response1disk,,7,10,-5,1,0,1,rectangle,10,-5,1,0,1,10,-5,1,0,1,1,138,298,60,1,,,,,,,,
,,,,,,,,,,,,,FF,,,,,,,,0.532,,,,,,,,,,,,,,,,,,,,,,61023d86ff017d53fdb4970e,61036d49d1f92de10ffb3ee2,2021-07-29_21h09.26.303,Simcolourproject_2stim_asymm_v5,2020.2.10,MacIntel,60,61025ae37ef11b136ea224fe,,,,,,,,,3733,40,73,1,0,1,response1disk,,7,16,10,1,0,1,rectangle,16,10,1,0,1,16,10,1,0,1,1,139,299,64,1,,,,,,,,
,,,,,,,,,,,,,FF,,,,,,,,0.434,,,,,,,,,,,,,,,,,,,,,,61023d86ff017d53fdb4970e,61036d49d1f92de10ffb3ee2,2021-07-29_21h09.26.303,Simcolourproject_2stim_asymm_v5,2020.2.10,MacIntel,60,61025ae37ef11b136ea224fe,,,,,,,,,1642,43,69,1,0,1,response1disk,,7,12,1,1,0,1,rectangle,12,1,1,0,1,12,1,1,0,1,1,140,300,140,1,,,,,,,,
,,,,,,,,,,,,,FF,,,,,,,,2.716,,,,,,,,,,,,,,,,,,,,,,61023d86ff017d53fdb4970e,61036d49d1f92de10ffb3ee2,2021-07-29_21h09.26.303,Simcolourproject_2stim_asymm_v5,2020.2.10,MacIntel,60,61025ae37ef11b136ea224fe,,,,,,,,,313,34,72,1,0,1,response1disk,,7,3,5,1,0,1,rectangle,3,5,1,0,1,3,5,1,0,1,1,141,301,71,1,,,,,,,,
