key_resp.keys,key_resp.rt,key_resp_14.keys,key_resp_14.rt,key_resp_15.keys,key_resp_15.rt,key_resp_17.keys,key_resp_17.rt,key_resp_9.keys,key_resp_9.rt,key_resp_10.keys,key_resp_10.rt,practice_comparison,Ecc,mouse_5.x,mouse_5.y,mouse_5.leftButton,mouse_5.midButton,mouse_5.rightButton,mouse_5.clicked_name,pracsimilarity,response_time,mouse_10.x,mouse_10.y,mouse_10.leftButton,mouse_10.midButton,mouse_10.rightButton,mouse_10.clicked_name,mouse_7.x,mouse_7.y,mouse_7.leftButton,mouse_7.midButton,mouse_7.rightButton,mouse_6.x,mouse_6.y,mouse_6.leftButton,mouse_6.midButton,mouse_6.rightButton,duringprac.thisRepN,duringprac.thisTrialN,duringprac.thisN,duringprac.thisIndex,duringprac.ran,participant,session,date,expName,psychopyVersion,OS,frameRate,study_id,mouse_7.clicked_name,catchpracsimilarity,catch_response_time,catchnumberprac,catchtrialorderprac,mouse_6.clicked_name,key_resp_22.keys,key_resp_22.rt,realcomparison,mouse.x,mouse.y,mouse.leftButton,mouse.midButton,mouse.rightButton,mouse.clicked_name,Colour2,similarity,mouse_2.x,mouse_2.y,mouse_2.leftButton,mouse_2.midButton,mouse_2.rightButton,mouse_2.clicked_name,mouse_3.x,mouse_3.y,mouse_3.leftButton,mouse_3.midButton,mouse_3.rightButton,mouse_11.x,mouse_11.y,mouse_11.leftButton,mouse_11.midButton,mouse_11.rightButton,trials_2.thisRepN,trials_2.thisTrialN,trials_2.thisN,trials_2.thisIndex,trials_2.ran,Colour1,mouse_3.clicked_name,catchornah,catchsimilarity,catchnumber,catchtrialorder,catchRT,mouse_11.clicked_name
space,1.5201,space,9.9976,space,35.6129,space,3.4003,space,2.0855,space,7.0351,63,PF,52,103,1,0,0,response1disk_5,7,3.5521,-1,-4,1,0,0,rectangle_8,-1,-4,1,0,0,-1,-4,1,0,0,0,0,0,2,1,610224c7e331699763a12488,61036fd096d9e68b6a69df2d,2021-07-29_23h20.53.575,Simcolourproject_2stim_asymm_v5,2020.2.10,Win32,60,61025ae37ef11b136ea224fe,,,,,,,,,,,,,,,,,,,,,,,,,,,,,,,,,,,,,,,,,,,,,,
,,,,,,,,,,,,87,FF,69,-33,1,0,0,response3disk_5,5,2.0175,0,1,1,0,0,rectangle_8,-75,33,1,0,0,-29,-2,1,0,0,0,1,1,3,1,610224c7e331699763a12488,61036fd096d9e68b6a69df2d,2021-07-29_23h20.53.575,Simcolourproject_2stim_asymm_v5,2020.2.10,Win32,60,61025ae37ef11b136ea224fe,response7disk_7,1,2.6314,1,"[2,5]",rectangle_4,,,,,,,,,,,,,,,,,,,,,,,,,,,,,,,,,,,,,,,,
,,,,,,,,,,,,81,PF,82,-47,1,0,0,response3disk_5,5,4.3842,5,3,1,0,0,rectangle_8,5,3,1,0,0,5,3,1,0,0,0,2,2,1,1,610224c7e331699763a12488,61036fd096d9e68b6a69df2d,2021-07-29_23h20.53.575,Simcolourproject_2stim_asymm_v5,2020.2.10,Win32,60,61025ae37ef11b136ea224fe,,,,,,,,,,,,,,,,,,,,,,,,,,,,,,,,,,,,,,,,,,,,,,
,,,,,,,,,,,,99,FF,102,48,1,0,0,response1disk_5,6,2.9493,1,9,1,0,0,rectangle_8,1,9,1,0,0,1,9,1,0,0,0,3,3,5,1,610224c7e331699763a12488,61036fd096d9e68b6a69df2d,2021-07-29_23h20.53.575,Simcolourproject_2stim_asymm_v5,2020.2.10,Win32,60,61025ae37ef11b136ea224fe,,,,,,,,,,,,,,,,,,,,,,,,,,,,,,,,,,,,,,,,,,,,,,
,,,,,,,,,,,,123,PF,40,100,1,0,0,response1disk_5,7,0.9494,8,-7,1,0,0,rectangle_8,-81,47,1,0,0,14,-7,1,0,0,0,4,4,4,1,610224c7e331699763a12488,61036fd096d9e68b6a69df2d,2021-07-29_23h20.53.575,Simcolourproject_2stim_asymm_v5,2020.2.10,Win32,60,61025ae37ef11b136ea224fe,response7disk_7,1,2.0665,1,"[2,5]",rectangle_4,,,,,,,,,,,,,,,,,,,,,,,,,,,,,,,,,,,,,,,,
,,,,,,,,,,,,1,PF,38,95,1,0,0,response1disk_5,7,1.3665,-16,-14,1,0,0,rectangle_8,-16,-14,1,0,0,-16,-14,1,0,0,0,5,5,6,1,610224c7e331699763a12488,61036fd096d9e68b6a69df2d,2021-07-29_23h20.53.575,Simcolourproject_2stim_asymm_v5,2020.2.10,Win32,60,61025ae37ef11b136ea224fe,,,,,,,,,,,,,,,,,,,,,,,,,,,,,,,,,,,,,,,,,,,,,,
,,,,,,,,,,,,62,FF,49,92,1,0,0,response1disk_5,7,0.8496,1,-5,1,0,0,rectangle_8,1,-5,1,0,0,1,-5,1,0,0,0,6,6,0,1,610224c7e331699763a12488,61036fd096d9e68b6a69df2d,2021-07-29_23h20.53.575,Simcolourproject_2stim_asymm_v5,2020.2.10,Win32,60,61025ae37ef11b136ea224fe,,,,,,,,,,,,,,,,,,,,,,,,,,,,,,,,,,,,,,,,,,,,,,
,,,,,,,,,,,,,FF,,,,,,,,1.0842,,,,,,,,,,,,,,,,,,,,,,610224c7e331699763a12488,61036fd096d9e68b6a69df2d,2021-07-29_23h20.53.575,Simcolourproject_2stim_asymm_v5,2020.2.10,Win32,60,61025ae37ef11b136ea224fe,,,,,,,space,2.1231,3804,37,87,1,0,0,response1disk,,7,9,-10,1,0,0,rectangle,9,-10,1,0,0,9,-10,1,0,0,0,0,0,144,1,,,,,,,,
,,,,,,,,,,,,,FF,,,,,,,,0.7004,,,,,,,,,,,,,,,,,,,,,,610224c7e331699763a12488,61036fd096d9e68b6a69df2d,2021-07-29_23h20.53.575,Simcolourproject_2stim_asymm_v5,2020.2.10,Win32,60,61025ae37ef11b136ea224fe,,,,,,,,,2522,53,96,1,0,0,response1disk,,7,9,5,1,0,0,rectangle,9,5,1,0,0,9,5,1,0,0,0,1,1,151,1,,,,,,,,
,,,,,,,,,,,,,FF,,,,,,,,1.9831,,,,,,,,,,,,,,,,,,,,,,610224c7e331699763a12488,61036fd096d9e68b6a69df2d,2021-07-29_23h20.53.575,Simcolourproject_2stim_asymm_v5,2020.2.10,Win32,60,61025ae37ef11b136ea224fe,,,,,,,,,3012,87,27,1,0,0,response1disk,,6,-4,6,1,0,0,rectangle,-4,6,1,0,0,-4,6,1,0,0,0,2,2,115,1,,,,,,,,
,,,,,,,,,,,,,FF,,,,,,,,1.5694,,,,,,,,,,,,,,,,,,,,,,610224c7e331699763a12488,61036fd096d9e68b6a69df2d,2021-07-29_23h20.53.575,Simcolourproject_2stim_asymm_v5,2020.2.10,Win32,60,61025ae37ef11b136ea224fe,,,,,,,,,3584,50,-98,1,0,0,response3disk,,4,-6,1,1,0,0,rectangle,-6,1,1,0,0,-6,1,1,0,0,0,3,3,46,1,,,,,,,,
,,,,,,,,,,,,,FF,,,,,,,,1.2494,,,,,,,,,,,,,,,,,,,,,,610224c7e331699763a12488,61036fd096d9e68b6a69df2d,2021-07-29_23h20.53.575,Simcolourproject_2stim_asymm_v5,2020.2.10,Win32,60,61025ae37ef11b136ea224fe,,,,,,,,,1010,71,-52,1,0,0,response3disk,,5,-21,4,1,0,0,rectangle,-21,4,1,0,0,-21,4,1,0,0,0,4,4,69,1,,,,,,,,
,,,,,,,,,,,,,FF,,,,,,,,1.1713,,,,,,,,,,,,,,,,,,,,,,610224c7e331699763a12488,61036fd096d9e68b6a69df2d,2021-07-29_23h20.53.575,Simcolourproject_2stim_asymm_v5,2020.2.10,Win32,60,61025ae37ef11b136ea224fe,,,,,,,,,935,90,60,1,0,0,response1disk,,6,8,-5,1,0,0,rectangle,8,-5,1,0,0,8,-5,1,0,0,0,5,5,15,1,,,,,,,,
,,,,,,,,,,,,,FF,,,,,,,,2.2349,,,,,,,,,,,,,,,,,,,,,,610224c7e331699763a12488,61036fd096d9e68b6a69df2d,2021-07-29_23h20.53.575,Simcolourproject_2stim_asymm_v5,2020.2.10,Win32,60,61025ae37ef11b136ea224fe,,,,,,,,,3065,-50,-86,1,0,0,response5disk,,3,-3,1,1,0,0,rectangle,-3,1,1,0,0,-3,1,1,0,0,0,6,6,86,1,,,,,,,,
,,,,,,,,,,,,,FF,,,,,,,,1.9068,,,,,,,,,,,,,,,,,,,,,,610224c7e331699763a12488,61036fd096d9e68b6a69df2d,2021-07-29_23h20.53.575,Simcolourproject_2stim_asymm_v5,2020.2.10,Win32,60,61025ae37ef11b136ea224fe,,,,,,,,,1807,-47,-83,1,0,0,response5disk,,3,-1,8,1,0,0,rectangle,-1,8,1,0,0,-1,8,1,0,0,0,7,7,107,1,,,,,,,,
,,,,,,,,,,,,,FF,,,,,,,,1.0181,,,,,,,,,,,,,,,,,,,,,,610224c7e331699763a12488,61036fd096d9e68b6a69df2d,2021-07-29_23h20.53.575,Simcolourproject_2stim_asymm_v5,2020.2.10,Win32,60,61025ae37ef11b136ea224fe,,,,,,,,,3705,-84,40,1,0,0,response7disk,,1,-7,6,1,0,0,rectangle,-7,6,1,0,0,-7,6,1,0,0,0,8,8,1,1,,,,,,,,
,,,,,,,,,,,,,FF,,,,,,,,1.1358,,,,,,,,,,,,,,,,,,,,,,610224c7e331699763a12488,61036fd096d9e68b6a69df2d,2021-07-29_23h20.53.575,Simcolourproject_2stim_asymm_v5,2020.2.10,Win32,60,61025ae37ef11b136ea224fe,,,,,,,,,1107,30,110,1,0,0,response1disk,,7,3,-5,1,0,0,rectangle,3,-5,1,0,0,3,-5,1,0,0,0,9,9,0,1,,,,,,,,
,,,,,,,,,,,,,FF,,,,,,,,2.2665,,,,,,,,,,,,,,,,,,,,,,610224c7e331699763a12488,61036fd096d9e68b6a69df2d,2021-07-29_23h20.53.575,Simcolourproject_2stim_asymm_v5,2020.2.10,Win32,60,61025ae37ef11b136ea224fe,,,,,,,,,1138,31,-97,1,0,0,response3disk,,4,8,-7,1,0,0,rectangle,8,-7,1,0,0,8,-7,1,0,0,0,10,10,80,1,,,,,,,,
,,,,,,,,,,,,,FF,,,,,,,,0.9004,,,,,,,,,,,,,,,,,,,,,,610224c7e331699763a12488,61036fd096d9e68b6a69df2d,2021-07-29_23h20.53.575,Simcolourproject_2stim_asymm_v5,2020.2.10,Win32,60,61025ae37ef11b136ea224fe,,,,,,,,,3934,-62,-104,1,0,0,response5disk,,3,-3,2,1,0,0,rectangle,-3,2,1,0,0,-3,2,1,0,0,0,11,11,137,1,,,,,,,,
,,,,,,,,,,,,,FF,,,,,,,,0.8284,,,,,,,,,,,,,,,,,,,,,,610224c7e331699763a12488,61036fd096d9e68b6a69df2d,2021-07-29_23h20.53.575,Simcolourproject_2stim_asymm_v5,2020.2.10,Win32,60,61025ae37ef11b136ea224fe,,,,,,,,,3954,49,77,1,0,0,response1disk,,7,24,-1,1,0,0,rectangle,24,-1,1,0,0,24,-1,1,0,0,0,12,12,74,1,,,,,,,,
,,,,,,,,,,,,,FF,,,,,,,,1.102,,,,,,,,,,,,,,,,,,,,,,610224c7e331699763a12488,61036fd096d9e68b6a69df2d,2021-07-29_23h20.53.575,Simcolourproject_2stim_asymm_v5,2020.2.10,Win32,60,61025ae37ef11b136ea224fe,,,,,,,,,1875,41,97,1,0,0,response1disk,,7,4,-6,1,0,0,rectangle,-90,-56,1,0,0,-4,-3,1,0,0,0,13,13,156,1,,response5disk_3,TRUE,2,2,"[14,267,309,252,223,313,150,266,49,302,269,251,154,165,275,32,110,142,213,255]",2.4832,rectangle
,,,,,,,,,,,,,FF,,,,,,,,1.0835,,,,,,,,,,,,,,,,,,,,,,610224c7e331699763a12488,61036fd096d9e68b6a69df2d,2021-07-29_23h20.53.575,Simcolourproject_2stim_asymm_v5,2020.2.10,Win32,60,61025ae37ef11b136ea224fe,,,,,,,,,3678,-36,-91,1,0,0,response5disk,,3,-9,0,1,0,0,rectangle,-9,0,1,0,0,-9,0,1,0,0,0,14,14,56,1,,,,,,,,
,,,,,,,,,,,,,FF,,,,,,,,1.053,,,,,,,,,,,,,,,,,,,,,,610224c7e331699763a12488,61036fd096d9e68b6a69df2d,2021-07-29_23h20.53.575,Simcolourproject_2stim_asymm_v5,2020.2.10,Win32,60,61025ae37ef11b136ea224fe,,,,,,,,,2319,87,53,1,0,0,response1disk,,6,-5,-11,1,0,0,rectangle,-5,-11,1,0,0,-5,-11,1,0,0,0,15,15,91,1,,,,,,,,
,,,,,,,,,,,,,FF,,,,,,,,0.8661,,,,,,,,,,,,,,,,,,,,,,610224c7e331699763a12488,61036fd096d9e68b6a69df2d,2021-07-29_23h20.53.575,Simcolourproject_2stim_asymm_v5,2020.2.10,Win32,60,61025ae37ef11b136ea224fe,,,,,,,,,3964,27,111,1,0,0,response1disk,,7,0,10,1,0,0,rectangle,0,10,1,0,0,0,10,1,0,0,0,16,16,73,1,,,,,,,,
,,,,,,,,,,,,,FF,,,,,,,,1.1003,,,,,,,,,,,,,,,,,,,,,,610224c7e331699763a12488,61036fd096d9e68b6a69df2d,2021-07-29_23h20.53.575,Simcolourproject_2stim_asymm_v5,2020.2.10,Win32,60,61025ae37ef11b136ea224fe,,,,,,,,,3147,-56,-83,1,0,0,response5disk,,3,16,0,1,0,0,rectangle,16,0,1,0,0,16,0,1,0,0,0,17,17,49,1,,,,,,,,
,,,,,,,,,,,,,FF,,,,,,,,1.6995,,,,,,,,,,,,,,,,,,,,,,610224c7e331699763a12488,61036fd096d9e68b6a69df2d,2021-07-29_23h20.53.575,Simcolourproject_2stim_asymm_v5,2020.2.10,Win32,60,61025ae37ef11b136ea224fe,,,,,,,,,863,76,46,1,0,0,response1disk,,6,7,-14,1,0,0,rectangle,7,-14,1,0,0,7,-14,1,0,0,0,18,18,148,1,,,,,,,,
,,,,,,,,,,,,,FF,,,,,,,,5.6831,,,,,,,,,,,,,,,,,,,,,,610224c7e331699763a12488,61036fd096d9e68b6a69df2d,2021-07-29_23h20.53.575,Simcolourproject_2stim_asymm_v5,2020.2.10,Win32,60,61025ae37ef11b136ea224fe,,,,,,,,,625,-39,101,1,0,0,response7disk,,0,-1,-1,1,0,0,rectangle,-1,-1,1,0,0,-1,-1,1,0,0,0,19,19,53,1,,,,,,,,
,,,,,,,,,,,,,FF,,,,,,,,1.3679,,,,,,,,,,,,,,,,,,,,,,610224c7e331699763a12488,61036fd096d9e68b6a69df2d,2021-07-29_23h20.53.575,Simcolourproject_2stim_asymm_v5,2020.2.10,Win32,60,61025ae37ef11b136ea224fe,,,,,,,,,2859,31,103,1,0,0,response1disk,,7,1,5,1,0,0,rectangle,1,5,1,0,0,1,5,1,0,0,0,20,20,94,1,,,,,,,,
,,,,,,,,,,,,,FF,,,,,,,,1.05,,,,,,,,,,,,,,,,,,,,,,610224c7e331699763a12488,61036fd096d9e68b6a69df2d,2021-07-29_23h20.53.575,Simcolourproject_2stim_asymm_v5,2020.2.10,Win32,60,61025ae37ef11b136ea224fe,,,,,,,,,1587,84,24,1,0,0,response1disk,,6,5,-4,1,0,0,rectangle,5,-4,1,0,0,5,-4,1,0,0,0,21,21,51,1,,,,,,,,
,,,,,,,,,,,,,FF,,,,,,,,0.7671,,,,,,,,,,,,,,,,,,,,,,610224c7e331699763a12488,61036fd096d9e68b6a69df2d,2021-07-29_23h20.53.575,Simcolourproject_2stim_asymm_v5,2020.2.10,Win32,60,61025ae37ef11b136ea224fe,,,,,,,,,2451,54,109,1,0,0,response1disk,,7,6,3,1,0,0,rectangle,6,3,1,0,0,6,3,1,0,0,0,22,22,67,1,,,,,,,,
,,,,,,,,,,,,,FF,,,,,,,,0.6501,,,,,,,,,,,,,,,,,,,,,,610224c7e331699763a12488,61036fd096d9e68b6a69df2d,2021-07-29_23h20.53.575,Simcolourproject_2stim_asymm_v5,2020.2.10,Win32,60,61025ae37ef11b136ea224fe,,,,,,,,,3454,33,79,1,0,0,response1disk,,7,-3,1,1,0,0,rectangle,-3,1,1,0,0,-3,1,1,0,0,0,23,23,9,1,,,,,,,,
,,,,,,,,,,,,,FF,,,,,,,,0.7329,,,,,,,,,,,,,,,,,,,,,,610224c7e331699763a12488,61036fd096d9e68b6a69df2d,2021-07-29_23h20.53.575,Simcolourproject_2stim_asymm_v5,2020.2.10,Win32,60,61025ae37ef11b136ea224fe,,,,,,,,,1730,34,90,1,0,0,response1disk,,7,5,-3,1,0,0,rectangle,5,-3,1,0,0,5,-3,1,0,0,0,24,24,11,1,,,,,,,,
,,,,,,,,,,,,,FF,,,,,,,,0.7505,,,,,,,,,,,,,,,,,,,,,,610224c7e331699763a12488,61036fd096d9e68b6a69df2d,2021-07-29_23h20.53.575,Simcolourproject_2stim_asymm_v5,2020.2.10,Win32,60,61025ae37ef11b136ea224fe,,,,,,,,,3074,42,91,1,0,0,response1disk,,7,1,1,1,0,0,rectangle,1,1,1,0,0,1,1,1,0,0,0,25,25,75,1,,,,,,,,
,,,,,,,,,,,,,FF,,,,,,,,0.9174,,,,,,,,,,,,,,,,,,,,,,610224c7e331699763a12488,61036fd096d9e68b6a69df2d,2021-07-29_23h20.53.575,Simcolourproject_2stim_asymm_v5,2020.2.10,Win32,60,61025ae37ef11b136ea224fe,,,,,,,,,4106,20,-92,1,0,0,response3disk,,4,-10,11,1,0,0,rectangle,-10,11,1,0,0,-10,11,1,0,0,0,26,26,128,1,,,,,,,,
,,,,,,,,,,,,,FF,,,,,,,,0.8332,,,,,,,,,,,,,,,,,,,,,,610224c7e331699763a12488,61036fd096d9e68b6a69df2d,2021-07-29_23h20.53.575,Simcolourproject_2stim_asymm_v5,2020.2.10,Win32,60,61025ae37ef11b136ea224fe,,,,,,,,,1223,35,-110,1,0,0,response3disk,,4,4,11,1,0,0,rectangle,4,11,1,0,0,4,11,1,0,0,0,27,27,113,1,,,,,,,,
,,,,,,,,,,,,,FF,,,,,,,,1.1343,,,,,,,,,,,,,,,,,,,,,,610224c7e331699763a12488,61036fd096d9e68b6a69df2d,2021-07-29_23h20.53.575,Simcolourproject_2stim_asymm_v5,2020.2.10,Win32,60,61025ae37ef11b136ea224fe,,,,,,,,,1697,45,93,1,0,0,response1disk,,7,18,-11,1,0,0,rectangle,18,-11,1,0,0,18,-11,1,0,0,0,28,28,55,1,,,,,,,,
,,,,,,,,,,,,,FF,,,,,,,,0.8837,,,,,,,,,,,,,,,,,,,,,,610224c7e331699763a12488,61036fd096d9e68b6a69df2d,2021-07-29_23h20.53.575,Simcolourproject_2stim_asymm_v5,2020.2.10,Win32,60,61025ae37ef11b136ea224fe,,,,,,,,,3090,-69,-101,1,0,0,response5disk,,3,-11,7,1,0,0,rectangle,-11,7,1,0,0,-11,7,1,0,0,0,29,29,81,1,,,,,,,,
,,,,,,,,,,,,,FF,,,,,,,,0.717,,,,,,,,,,,,,,,,,,,,,,610224c7e331699763a12488,61036fd096d9e68b6a69df2d,2021-07-29_23h20.53.575,Simcolourproject_2stim_asymm_v5,2020.2.10,Win32,60,61025ae37ef11b136ea224fe,,,,,,,,,3953,28,87,1,0,0,response1disk,,7,6,5,1,0,0,rectangle,6,5,1,0,0,6,5,1,0,0,0,30,30,98,1,,,,,,,,
,,,,,,,,,,,,,FF,,,,,,,,0.7672,,,,,,,,,,,,,,,,,,,,,,610224c7e331699763a12488,61036fd096d9e68b6a69df2d,2021-07-29_23h20.53.575,Simcolourproject_2stim_asymm_v5,2020.2.10,Win32,60,61025ae37ef11b136ea224fe,,,,,,,,,154,18,72,1,0,0,response1disk,,7,-1,0,1,0,0,rectangle,93,36,1,0,0,7,-1,1,0,0,0,31,31,111,1,,response1disk_3,TRUE,6,6,"[14,267,309,252,223,313,150,266,49,302,269,251,154,165,275,32,110,142,213,255]",1.6677,rectangle
,,,,,,,,,,,,,FF,,,,,,,,0.8003,,,,,,,,,,,,,,,,,,,,,,610224c7e331699763a12488,61036fd096d9e68b6a69df2d,2021-07-29_23h20.53.575,Simcolourproject_2stim_asymm_v5,2020.2.10,Win32,60,61025ae37ef11b136ea224fe,,,,,,,,,3890,48,91,1,0,0,response1disk,,7,18,-1,1,0,0,rectangle,18,-1,1,0,0,18,-1,1,0,0,0,32,32,7,1,,,,,,,,
,,,,,,,,,,,,,FF,,,,,,,,1.0495,,,,,,,,,,,,,,,,,,,,,,610224c7e331699763a12488,61036fd096d9e68b6a69df2d,2021-07-29_23h20.53.575,Simcolourproject_2stim_asymm_v5,2020.2.10,Win32,60,61025ae37ef11b136ea224fe,,,,,,,,,3004,88,-42,1,0,0,response3disk,,5,-6,-8,1,0,0,rectangle,-6,-8,1,0,0,-6,-8,1,0,0,0,33,33,45,1,,,,,,,,
,,,,,,,,,,,,,FF,,,,,,,,0.6683,,,,,,,,,,,,,,,,,,,,,,610224c7e331699763a12488,61036fd096d9e68b6a69df2d,2021-07-29_23h20.53.575,Simcolourproject_2stim_asymm_v5,2020.2.10,Win32,60,61025ae37ef11b136ea224fe,,,,,,,,,2696,31,80,1,0,0,response1disk,,7,7,-5,1,0,0,rectangle,7,-5,1,0,0,7,-5,1,0,0,0,34,34,83,1,,,,,,,,
,,,,,,,,,,,,,FF,,,,,,,,0.6011,,,,,,,,,,,,,,,,,,,,,,610224c7e331699763a12488,61036fd096d9e68b6a69df2d,2021-07-29_23h20.53.575,Simcolourproject_2stim_asymm_v5,2020.2.10,Win32,60,61025ae37ef11b136ea224fe,,,,,,,,,2307,53,90,1,0,0,response1disk,,7,13,-1,1,0,0,rectangle,13,-1,1,0,0,13,-1,1,0,0,0,35,35,118,1,,,,,,,,
,,,,,,,,,,,,,FF,,,,,,,,0.7831,,,,,,,,,,,,,,,,,,,,,,610224c7e331699763a12488,61036fd096d9e68b6a69df2d,2021-07-29_23h20.53.575,Simcolourproject_2stim_asymm_v5,2020.2.10,Win32,60,61025ae37ef11b136ea224fe,,,,,,,,,80,111,42,1,0,0,response1disk,,6,3,-8,1,0,0,rectangle,3,-8,1,0,0,3,-8,1,0,0,0,36,36,147,1,,,,,,,,
,,,,,,,,,,,,,FF,,,,,,,,0.6164,,,,,,,,,,,,,,,,,,,,,,610224c7e331699763a12488,61036fd096d9e68b6a69df2d,2021-07-29_23h20.53.575,Simcolourproject_2stim_asymm_v5,2020.2.10,Win32,60,61025ae37ef11b136ea224fe,,,,,,,,,2852,28,89,1,0,0,response1disk,,7,-2,-4,1,0,0,rectangle,-2,-4,1,0,0,-2,-4,1,0,0,0,37,37,150,1,,,,,,,,
,,,,,,,,,,,,,FF,,,,,,,,0.6819,,,,,,,,,,,,,,,,,,,,,,610224c7e331699763a12488,61036fd096d9e68b6a69df2d,2021-07-29_23h20.53.575,Simcolourproject_2stim_asymm_v5,2020.2.10,Win32,60,61025ae37ef11b136ea224fe,,,,,,,,,2861,93,36,1,0,0,response1disk,,6,23,-2,1,0,0,rectangle,23,-2,1,0,0,23,-2,1,0,0,0,38,38,130,1,,,,,,,,
,,,,,,,,,,,,,FF,,,,,,,,0.9676,,,,,,,,,,,,,,,,,,,,,,610224c7e331699763a12488,61036fd096d9e68b6a69df2d,2021-07-29_23h20.53.575,Simcolourproject_2stim_asymm_v5,2020.2.10,Win32,60,61025ae37ef11b136ea224fe,,,,,,,,,4354,-65,-46,1,0,0,response5disk,,2,7,8,1,0,0,rectangle,7,8,1,0,0,7,8,1,0,0,0,39,39,39,1,,,,,,,,
,,,,,,,,,,,,,FF,,,,,,,,0.6986,,,,,,,,,,,,,,,,,,,,,,610224c7e331699763a12488,61036fd096d9e68b6a69df2d,2021-07-29_23h20.53.575,Simcolourproject_2stim_asymm_v5,2020.2.10,Win32,60,61025ae37ef11b136ea224fe,,,,,,,,,2762,28,89,1,0,0,response1disk,,7,6,-3,1,0,0,rectangle,6,-3,1,0,0,6,-3,1,0,0,0,40,40,64,1,,,,,,,,
,,,,,,,,,,,,,FF,,,,,,,,0.5009,,,,,,,,,,,,,,,,,,,,,,610224c7e331699763a12488,61036fd096d9e68b6a69df2d,2021-07-29_23h20.53.575,Simcolourproject_2stim_asymm_v5,2020.2.10,Win32,60,61025ae37ef11b136ea224fe,,,,,,,,,1184,36,93,1,0,0,response1disk,,7,14,6,1,0,0,rectangle,14,6,1,0,0,14,6,1,0,0,0,41,41,22,1,,,,,,,,
,,,,,,,,,,,,,FF,,,,,,,,1.0997,,,,,,,,,,,,,,,,,,,,,,610224c7e331699763a12488,61036fd096d9e68b6a69df2d,2021-07-29_23h20.53.575,Simcolourproject_2stim_asymm_v5,2020.2.10,Win32,60,61025ae37ef11b136ea224fe,,,,,,,,,2794,44,73,1,0,0,response1disk,,7,4,7,1,0,0,rectangle,4,7,1,0,0,4,7,1,0,0,0,42,42,57,1,,,,,,,,
,,,,,,,,,,,,,FF,,,,,,,,0.4839,,,,,,,,,,,,,,,,,,,,,,610224c7e331699763a12488,61036fd096d9e68b6a69df2d,2021-07-29_23h20.53.575,Simcolourproject_2stim_asymm_v5,2020.2.10,Win32,60,61025ae37ef11b136ea224fe,,,,,,,,,4169,30,75,1,0,0,response1disk,,7,6,7,1,0,0,rectangle,6,7,1,0,0,6,7,1,0,0,0,43,43,145,1,,,,,,,,
,,,,,,,,,,,,,FF,,,,,,,,1.833,,,,,,,,,,,,,,,,,,,,,,610224c7e331699763a12488,61036fd096d9e68b6a69df2d,2021-07-29_23h20.53.575,Simcolourproject_2stim_asymm_v5,2020.2.10,Win32,60,61025ae37ef11b136ea224fe,,,,,,,,,2475,-37,96,1,0,0,response7disk,,0,3,-3,1,0,0,rectangle,3,-3,1,0,0,3,-3,1,0,0,0,44,44,97,1,,,,,,,,
,,,,,,,,,,,,,FF,,,,,,,,0.7702,,,,,,,,,,,,,,,,,,,,,,610224c7e331699763a12488,61036fd096d9e68b6a69df2d,2021-07-29_23h20.53.575,Simcolourproject_2stim_asymm_v5,2020.2.10,Win32,60,61025ae37ef11b136ea224fe,,,,,,,,,1929,49,74,1,0,0,response1disk,,7,9,-3,1,0,0,rectangle,9,-3,1,0,0,9,-3,1,0,0,0,45,45,12,1,,,,,,,,
,,,,,,,,,,,,,FF,,,,,,,,0.5663,,,,,,,,,,,,,,,,,,,,,,610224c7e331699763a12488,61036fd096d9e68b6a69df2d,2021-07-29_23h20.53.575,Simcolourproject_2stim_asymm_v5,2020.2.10,Win32,60,61025ae37ef11b136ea224fe,,,,,,,,,498,34,86,1,0,0,response1disk,,7,21,6,1,0,0,rectangle,21,6,1,0,0,21,6,1,0,0,0,46,46,143,1,,,,,,,,
,,,,,,,,,,,,,FF,,,,,,,,0.5818,,,,,,,,,,,,,,,,,,,,,,610224c7e331699763a12488,61036fd096d9e68b6a69df2d,2021-07-29_23h20.53.575,Simcolourproject_2stim_asymm_v5,2020.2.10,Win32,60,61025ae37ef11b136ea224fe,,,,,,,,,2430,37,80,1,0,0,response1disk,,7,11,-6,1,0,0,rectangle,11,-6,1,0,0,11,-6,1,0,0,0,47,47,136,1,,,,,,,,
,,,,,,,,,,,,,FF,,,,,,,,4.1997,,,,,,,,,,,,,,,,,,,,,,610224c7e331699763a12488,61036fd096d9e68b6a69df2d,2021-07-29_23h20.53.575,Simcolourproject_2stim_asymm_v5,2020.2.10,Win32,60,61025ae37ef11b136ea224fe,,,,,,,,,1073,28,92,1,0,0,response1disk,,7,-6,-5,1,0,0,rectangle,-86,-58,1,0,0,6,-2,1,0,0,0,48,48,37,1,,response5disk_3,TRUE,2,2,"[14,267,309,252,223,313,150,266,49,302,269,251,154,165,275,32,110,142,213,255]",2.3501,rectangle
,,,,,,,,,,,,,FF,,,,,,,,1.5005,,,,,,,,,,,,,,,,,,,,,,610224c7e331699763a12488,61036fd096d9e68b6a69df2d,2021-07-29_23h20.53.575,Simcolourproject_2stim_asymm_v5,2020.2.10,Win32,60,61025ae37ef11b136ea224fe,,,,,,,,,887,44,91,1,0,0,response1disk,,7,14,1,1,0,0,rectangle,14,1,1,0,0,14,1,1,0,0,0,49,49,123,1,,,,,,,,
,,,,,,,,,,,,,FF,,,,,,,,1.418,,,,,,,,,,,,,,,,,,,,,,610224c7e331699763a12488,61036fd096d9e68b6a69df2d,2021-07-29_23h20.53.575,Simcolourproject_2stim_asymm_v5,2020.2.10,Win32,60,61025ae37ef11b136ea224fe,,,,,,,,,2966,39,106,1,0,0,response1disk,,7,9,2,1,0,0,rectangle,9,2,1,0,0,9,2,1,0,0,0,50,50,31,1,,,,,,,,
,,,,,,,,,,,,,FF,,,,,,,,0.5669,,,,,,,,,,,,,,,,,,,,,,610224c7e331699763a12488,61036fd096d9e68b6a69df2d,2021-07-29_23h20.53.575,Simcolourproject_2stim_asymm_v5,2020.2.10,Win32,60,61025ae37ef11b136ea224fe,,,,,,,,,224,32,87,1,0,0,response1disk,,7,-4,3,1,0,0,rectangle,-4,3,1,0,0,-4,3,1,0,0,0,51,51,21,1,,,,,,,,
,,,,,,,,,,,,,FF,,,,,,,,0.483,,,,,,,,,,,,,,,,,,,,,,610224c7e331699763a12488,61036fd096d9e68b6a69df2d,2021-07-29_23h20.53.575,Simcolourproject_2stim_asymm_v5,2020.2.10,Win32,60,61025ae37ef11b136ea224fe,,,,,,,,,320,41,105,1,0,0,response1disk,,7,-8,-8,1,0,0,rectangle,-8,-8,1,0,0,-8,-8,1,0,0,0,52,52,109,1,,,,,,,,
,,,,,,,,,,,,,FF,,,,,,,,0.5663,,,,,,,,,,,,,,,,,,,,,,610224c7e331699763a12488,61036fd096d9e68b6a69df2d,2021-07-29_23h20.53.575,Simcolourproject_2stim_asymm_v5,2020.2.10,Win32,60,61025ae37ef11b136ea224fe,,,,,,,,,3540,34,78,1,0,0,response1disk,,7,-2,2,1,0,0,rectangle,-2,2,1,0,0,-2,2,1,0,0,0,53,53,154,1,,,,,,,,
,,,,,,,,,,,,,FF,,,,,,,,0.6331,,,,,,,,,,,,,,,,,,,,,,610224c7e331699763a12488,61036fd096d9e68b6a69df2d,2021-07-29_23h20.53.575,Simcolourproject_2stim_asymm_v5,2020.2.10,Win32,60,61025ae37ef11b136ea224fe,,,,,,,,,2383,45,78,1,0,0,response1disk,,7,1,9,1,0,0,rectangle,1,9,1,0,0,1,9,1,0,0,0,54,54,16,1,,,,,,,,
,,,,,,,,,,,,,FF,,,,,,,,0.45,,,,,,,,,,,,,,,,,,,,,,610224c7e331699763a12488,61036fd096d9e68b6a69df2d,2021-07-29_23h20.53.575,Simcolourproject_2stim_asymm_v5,2020.2.10,Win32,60,61025ae37ef11b136ea224fe,,,,,,,,,925,47,82,1,0,0,response1disk,,7,2,-11,1,0,0,rectangle,2,-11,1,0,0,2,-11,1,0,0,0,55,55,59,1,,,,,,,,
,,,,,,,,,,,,,FF,,,,,,,,0.5792,,,,,,,,,,,,,,,,,,,,,,610224c7e331699763a12488,61036fd096d9e68b6a69df2d,2021-07-29_23h20.53.575,Simcolourproject_2stim_asymm_v5,2020.2.10,Win32,60,61025ae37ef11b136ea224fe,,,,,,,,,3239,41,85,1,0,0,response1disk,,7,3,-1,1,0,0,rectangle,3,-1,1,0,0,3,-1,1,0,0,0,56,56,63,1,,,,,,,,
,,,,,,,,,,,,,FF,,,,,,,,0.849,,,,,,,,,,,,,,,,,,,,,,610224c7e331699763a12488,61036fd096d9e68b6a69df2d,2021-07-29_23h20.53.575,Simcolourproject_2stim_asymm_v5,2020.2.10,Win32,60,61025ae37ef11b136ea224fe,,,,,,,,,2223,52,81,1,0,0,response1disk,,7,22,13,1,0,0,rectangle,22,13,1,0,0,22,13,1,0,0,0,57,57,40,1,,,,,,,,
,,,,,,,,,,,,,FF,,,,,,,,0.5005,,,,,,,,,,,,,,,,,,,,,,610224c7e331699763a12488,61036fd096d9e68b6a69df2d,2021-07-29_23h20.53.575,Simcolourproject_2stim_asymm_v5,2020.2.10,Win32,60,61025ae37ef11b136ea224fe,,,,,,,,,2490,43,83,1,0,0,response1disk,,7,5,-10,1,0,0,rectangle,5,-10,1,0,0,5,-10,1,0,0,0,58,58,133,1,,,,,,,,
,,,,,,,,,,,,,FF,,,,,,,,0.4995,,,,,,,,,,,,,,,,,,,,,,610224c7e331699763a12488,61036fd096d9e68b6a69df2d,2021-07-29_23h20.53.575,Simcolourproject_2stim_asymm_v5,2020.2.10,Win32,60,61025ae37ef11b136ea224fe,,,,,,,,,687,42,73,1,0,0,response1disk,,7,11,7,1,0,0,rectangle,11,7,1,0,0,11,7,1,0,0,0,59,59,34,1,,,,,,,,
,,,,,,,,,,,,,FF,,,,,,,,0.5328,,,,,,,,,,,,,,,,,,,,,,610224c7e331699763a12488,61036fd096d9e68b6a69df2d,2021-07-29_23h20.53.575,Simcolourproject_2stim_asymm_v5,2020.2.10,Win32,60,61025ae37ef11b136ea224fe,,,,,,,,,2271,40,86,1,0,0,response1disk,,7,6,7,1,0,0,rectangle,6,7,1,0,0,6,7,1,0,0,0,60,60,110,1,,,,,,,,
,,,,,,,,,,,,,FF,,,,,,,,0.717,,,,,,,,,,,,,,,,,,,,,,610224c7e331699763a12488,61036fd096d9e68b6a69df2d,2021-07-29_23h20.53.575,Simcolourproject_2stim_asymm_v5,2020.2.10,Win32,60,61025ae37ef11b136ea224fe,,,,,,,,,449,42,89,1,0,0,response1disk,,7,-3,2,1,0,0,rectangle,-3,2,1,0,0,-3,2,1,0,0,0,61,61,66,1,,,,,,,,
,,,,,,,,,,,,,FF,,,,,,,,0.6188,,,,,,,,,,,,,,,,,,,,,,610224c7e331699763a12488,61036fd096d9e68b6a69df2d,2021-07-29_23h20.53.575,Simcolourproject_2stim_asymm_v5,2020.2.10,Win32,60,61025ae37ef11b136ea224fe,,,,,,,,,3177,41,72,1,0,0,response1disk,,7,-11,9,1,0,0,rectangle,-11,9,1,0,0,-11,9,1,0,0,0,62,62,43,1,,,,,,,,
,,,,,,,,,,,,,FF,,,,,,,,0.5006,,,,,,,,,,,,,,,,,,,,,,610224c7e331699763a12488,61036fd096d9e68b6a69df2d,2021-07-29_23h20.53.575,Simcolourproject_2stim_asymm_v5,2020.2.10,Win32,60,61025ae37ef11b136ea224fe,,,,,,,,,2505,40,95,1,0,0,response1disk,,7,20,9,1,0,0,rectangle,20,9,1,0,0,20,9,1,0,0,0,63,63,23,1,,,,,,,,
,,,,,,,,,,,,,FF,,,,,,,,0.534,,,,,,,,,,,,,,,,,,,,,,610224c7e331699763a12488,61036fd096d9e68b6a69df2d,2021-07-29_23h20.53.575,Simcolourproject_2stim_asymm_v5,2020.2.10,Win32,60,61025ae37ef11b136ea224fe,,,,,,,,,4201,43,80,1,0,0,response1disk,,7,28,-10,1,0,0,rectangle,28,-10,1,0,0,28,-10,1,0,0,0,64,64,36,1,,,,,,,,
,,,,,,,,,,,,,FF,,,,,,,,1.3838,,,,,,,,,,,,,,,,,,,,,,610224c7e331699763a12488,61036fd096d9e68b6a69df2d,2021-07-29_23h20.53.575,Simcolourproject_2stim_asymm_v5,2020.2.10,Win32,60,61025ae37ef11b136ea224fe,,,,,,,,,1811,46,-91,1,0,0,response3disk,,4,12,8,1,0,0,rectangle,12,8,1,0,0,12,8,1,0,0,0,65,65,17,1,,,,,,,,
,,,,,,,,,,,,,FF,,,,,,,,0.8983,,,,,,,,,,,,,,,,,,,,,,610224c7e331699763a12488,61036fd096d9e68b6a69df2d,2021-07-29_23h20.53.575,Simcolourproject_2stim_asymm_v5,2020.2.10,Win32,60,61025ae37ef11b136ea224fe,,,,,,,,,1133,90,-54,1,0,0,response3disk,,5,22,2,1,0,0,rectangle,22,2,1,0,0,22,2,1,0,0,0,66,66,149,1,,,,,,,,
,,,,,,,,,,,,,FF,,,,,,,,0.5342,,,,,,,,,,,,,,,,,,,,,,610224c7e331699763a12488,61036fd096d9e68b6a69df2d,2021-07-29_23h20.53.575,Simcolourproject_2stim_asymm_v5,2020.2.10,Win32,60,61025ae37ef11b136ea224fe,,,,,,,,,2115,21,88,1,0,0,response1disk,,7,5,-7,1,0,0,rectangle,5,-7,1,0,0,5,-7,1,0,0,0,67,67,85,1,,,,,,,,
,,,,,,,,,,,,,FF,,,,,,,,0.6027,,,,,,,,,,,,,,,,,,,,,,610224c7e331699763a12488,61036fd096d9e68b6a69df2d,2021-07-29_23h20.53.575,Simcolourproject_2stim_asymm_v5,2020.2.10,Win32,60,61025ae37ef11b136ea224fe,,,,,,,,,1203,59,-22,1,0,0,response3disk,,5,-7,14,1,0,0,rectangle,-7,14,1,0,0,-7,14,1,0,0,0,68,68,103,1,,,,,,,,
,,,,,,,,,,,,,FF,,,,,,,,0.7311,,,,,,,,,,,,,,,,,,,,,,610224c7e331699763a12488,61036fd096d9e68b6a69df2d,2021-07-29_23h20.53.575,Simcolourproject_2stim_asymm_v5,2020.2.10,Win32,60,61025ae37ef11b136ea224fe,,,,,,,,,2697,55,97,1,0,0,response1disk,,7,23,2,1,0,0,rectangle,23,2,1,0,0,23,2,1,0,0,0,69,69,20,1,,,,,,,,
,,,,,,,,,,,,,FF,,,,,,,,0.9177,,,,,,,,,,,,,,,,,,,,,,610224c7e331699763a12488,61036fd096d9e68b6a69df2d,2021-07-29_23h20.53.575,Simcolourproject_2stim_asymm_v5,2020.2.10,Win32,60,61025ae37ef11b136ea224fe,,,,,,,,,1509,72,-37,1,0,0,response3disk,,5,0,1,1,0,0,rectangle,0,1,1,0,0,0,1,1,0,0,0,70,70,92,1,,,,,,,,
,,,,,,,,,,,,,FF,,,,,,,,0.8321,,,,,,,,,,,,,,,,,,,,,,610224c7e331699763a12488,61036fd096d9e68b6a69df2d,2021-07-29_23h20.53.575,Simcolourproject_2stim_asymm_v5,2020.2.10,Win32,60,61025ae37ef11b136ea224fe,,,,,,,,,1474,37,96,1,0,0,response1disk,,7,6,8,1,0,0,rectangle,6,8,1,0,0,6,8,1,0,0,0,71,71,120,1,,,,,,,,
,,,,,,,,,,,,,FF,,,,,,,,1.0835,,,,,,,,,,,,,,,,,,,,,,610224c7e331699763a12488,61036fd096d9e68b6a69df2d,2021-07-29_23h20.53.575,Simcolourproject_2stim_asymm_v5,2020.2.10,Win32,60,61025ae37ef11b136ea224fe,,,,,,,,,2827,82,43,1,0,0,response1disk,,6,11,6,1,0,0,rectangle,11,6,1,0,0,11,6,1,0,0,0,72,72,58,1,,,,,,,,
,,,,,,,,,,,,,FF,,,,,,,,0.8497,,,,,,,,,,,,,,,,,,,,,,610224c7e331699763a12488,61036fd096d9e68b6a69df2d,2021-07-29_23h20.53.575,Simcolourproject_2stim_asymm_v5,2020.2.10,Win32,60,61025ae37ef11b136ea224fe,,,,,,,,,900,85,38,1,0,0,response1disk,,6,22,6,1,0,0,rectangle,22,6,1,0,0,22,6,1,0,0,0,73,73,77,1,,,,,,,,
,,,,,,,,,,,,,FF,,,,,,,,0.5176,,,,,,,,,,,,,,,,,,,,,,610224c7e331699763a12488,61036fd096d9e68b6a69df2d,2021-07-29_23h20.53.575,Simcolourproject_2stim_asymm_v5,2020.2.10,Win32,60,61025ae37ef11b136ea224fe,,,,,,,,,1583,32,75,1,0,0,response1disk,,7,-18,8,1,0,0,rectangle,-18,8,1,0,0,-18,8,1,0,0,0,74,74,42,1,,,,,,,,
,,,,,,,,,,,,,FF,,,,,,,,0.5663,,,,,,,,,,,,,,,,,,,,,,610224c7e331699763a12488,61036fd096d9e68b6a69df2d,2021-07-29_23h20.53.575,Simcolourproject_2stim_asymm_v5,2020.2.10,Win32,60,61025ae37ef11b136ea224fe,,,,,,,,,138,36,77,1,0,0,response1disk,,7,3,3,1,0,0,rectangle,3,3,1,0,0,3,3,1,0,0,0,75,75,93,1,,,,,,,,
,,,,,,,,,,,,,FF,,,,,,,,0.9006,,,,,,,,,,,,,,,,,,,,,,610224c7e331699763a12488,61036fd096d9e68b6a69df2d,2021-07-29_23h20.53.575,Simcolourproject_2stim_asymm_v5,2020.2.10,Win32,60,61025ae37ef11b136ea224fe,,,,,,,,,1471,91,35,1,0,0,response1disk,,6,15,0,1,0,0,rectangle,15,0,1,0,0,15,0,1,0,0,0,76,76,76,1,,,,,,,,
,,,,,,,,,,,,,FF,,,,,,,,0.5674,,,,,,,,,,,,,,,,,,,,,,610224c7e331699763a12488,61036fd096d9e68b6a69df2d,2021-07-29_23h20.53.575,Simcolourproject_2stim_asymm_v5,2020.2.10,Win32,60,61025ae37ef11b136ea224fe,,,,,,,,,2621,35,80,1,0,0,response1disk,,7,5,7,1,0,0,rectangle,5,7,1,0,0,5,7,1,0,0,0,77,77,78,1,,,,,,,,
,,,,,,,,,,,,,FF,,,,,,,,0.6822,,,,,,,,,,,,,,,,,,,,,,610224c7e331699763a12488,61036fd096d9e68b6a69df2d,2021-07-29_23h20.53.575,Simcolourproject_2stim_asymm_v5,2020.2.10,Win32,60,61025ae37ef11b136ea224fe,,,,,,,,,3022,25,69,1,0,0,response1disk,,7,0,-5,1,0,0,rectangle,0,-5,1,0,0,0,-5,1,0,0,0,78,78,135,1,,,,,,,,
,,,,,,,,,,,,,FF,,,,,,,,1.0671,,,,,,,,,,,,,,,,,,,,,,610224c7e331699763a12488,61036fd096d9e68b6a69df2d,2021-07-29_23h20.53.575,Simcolourproject_2stim_asymm_v5,2020.2.10,Win32,60,61025ae37ef11b136ea224fe,,,,,,,,,3512,-92,-40,1,0,0,response5disk,,2,8,6,1,0,0,rectangle,8,6,1,0,0,8,6,1,0,0,0,79,79,129,1,,,,,,,,
,,,,,,,,,,,,,FF,,,,,,,,0.7503,,,,,,,,,,,,,,,,,,,,,,610224c7e331699763a12488,61036fd096d9e68b6a69df2d,2021-07-29_23h20.53.575,Simcolourproject_2stim_asymm_v5,2020.2.10,Win32,60,61025ae37ef11b136ea224fe,,,,,,,,,3290,-52,46,1,0,0,response7disk,,1,-1,-2,1,0,0,rectangle,-1,-2,1,0,0,-1,-2,1,0,0,0,80,80,47,1,,,,,,,,
,,,,,,,,,,,,,FF,,,,,,,,1.1497,,,,,,,,,,,,,,,,,,,,,,610224c7e331699763a12488,61036fd096d9e68b6a69df2d,2021-07-29_23h20.53.575,Simcolourproject_2stim_asymm_v5,2020.2.10,Win32,60,61025ae37ef11b136ea224fe,,,,,,,,,201,-67,-92,1,0,0,response5disk,,3,-9,-10,1,0,0,rectangle,-9,-10,1,0,0,-9,-10,1,0,0,0,81,81,10,1,,,,,,,,
,,,,,,,,,,,,,FF,,,,,,,,0.6331,,,,,,,,,,,,,,,,,,,,,,610224c7e331699763a12488,61036fd096d9e68b6a69df2d,2021-07-29_23h20.53.575,Simcolourproject_2stim_asymm_v5,2020.2.10,Win32,60,61025ae37ef11b136ea224fe,,,,,,,,,1007,49,80,1,0,0,response1disk,,7,10,3,1,0,0,rectangle,10,3,1,0,0,10,3,1,0,0,0,82,82,29,1,,,,,,,,
,,,,,,,,,,,,,FF,,,,,,,,1.7682,,,,,,,,,,,,,,,,,,,,,,610224c7e331699763a12488,61036fd096d9e68b6a69df2d,2021-07-29_23h20.53.575,Simcolourproject_2stim_asymm_v5,2020.2.10,Win32,60,61025ae37ef11b136ea224fe,,,,,,,,,1460,-78,-54,1,0,0,response5disk,,2,-8,-5,1,0,0,rectangle,-8,-5,1,0,0,-8,-5,1,0,0,0,83,83,50,1,,,,,,,,
,,,,,,,,,,,,,FF,,,,,,,,0.6498,,,,,,,,,,,,,,,,,,,,,,610224c7e331699763a12488,61036fd096d9e68b6a69df2d,2021-07-29_23h20.53.575,Simcolourproject_2stim_asymm_v5,2020.2.10,Win32,60,61025ae37ef11b136ea224fe,,,,,,,,,2625,35,60,1,0,0,response1disk,,7,8,-11,1,0,0,rectangle,8,-11,1,0,0,8,-11,1,0,0,0,84,84,95,1,,,,,,,,
,,,,,,,,,,,,,FF,,,,,,,,0.7141,,,,,,,,,,,,,,,,,,,,,,610224c7e331699763a12488,61036fd096d9e68b6a69df2d,2021-07-29_23h20.53.575,Simcolourproject_2stim_asymm_v5,2020.2.10,Win32,60,61025ae37ef11b136ea224fe,,,,,,,,,1974,29,69,1,0,0,response1disk,,7,1,6,1,0,0,rectangle,1,6,1,0,0,1,6,1,0,0,0,85,85,13,1,,,,,,,,
,,,,,,,,,,,,,FF,,,,,,,,0.5328,,,,,,,,,,,,,,,,,,,,,,610224c7e331699763a12488,61036fd096d9e68b6a69df2d,2021-07-29_23h20.53.575,Simcolourproject_2stim_asymm_v5,2020.2.10,Win32,60,61025ae37ef11b136ea224fe,,,,,,,,,3246,50,95,1,0,0,response1disk,,7,2,2,1,0,0,rectangle,2,2,1,0,0,2,2,1,0,0,0,86,86,106,1,,,,,,,,
,,,,,,,,,,,,,FF,,,,,,,,1.3986,,,,,,,,,,,,,,,,,,,,,,610224c7e331699763a12488,61036fd096d9e68b6a69df2d,2021-07-29_23h20.53.575,Simcolourproject_2stim_asymm_v5,2020.2.10,Win32,60,61025ae37ef11b136ea224fe,,,,,,,,,1233,73,-31,1,0,0,response3disk,,5,19,1,1,0,0,rectangle,19,1,1,0,0,19,1,1,0,0,0,87,87,152,1,,,,,,,,
,,,,,,,,,,,,,FF,,,,,,,,0.6165,,,,,,,,,,,,,,,,,,,,,,610224c7e331699763a12488,61036fd096d9e68b6a69df2d,2021-07-29_23h20.53.575,Simcolourproject_2stim_asymm_v5,2020.2.10,Win32,60,61025ae37ef11b136ea224fe,,,,,,,,,2402,38,82,1,0,0,response1disk,,7,17,-10,1,0,0,rectangle,17,-10,1,0,0,17,-10,1,0,0,0,88,88,89,1,,,,,,,,
,,,,,,,,,,,,,FF,,,,,,,,0.8847,,,,,,,,,,,,,,,,,,,,,,610224c7e331699763a12488,61036fd096d9e68b6a69df2d,2021-07-29_23h20.53.575,Simcolourproject_2stim_asymm_v5,2020.2.10,Win32,60,61025ae37ef11b136ea224fe,,,,,,,,,4002,81,40,1,0,0,response1disk,,6,17,-1,1,0,0,rectangle,17,-1,1,0,0,17,-1,1,0,0,0,89,89,87,1,,,,,,,,
,,,,,,,,,,,,,FF,,,,,,,,0.8657,,,,,,,,,,,,,,,,,,,,,,610224c7e331699763a12488,61036fd096d9e68b6a69df2d,2021-07-29_23h20.53.575,Simcolourproject_2stim_asymm_v5,2020.2.10,Win32,60,61025ae37ef11b136ea224fe,,,,,,,,,2662,-51,-111,1,0,0,response5disk,,3,6,-6,1,0,0,rectangle,6,-6,1,0,0,6,-6,1,0,0,0,90,90,116,1,,,,,,,,
,,,,,,,,,,,,,FF,,,,,,,,0.7322,,,,,,,,,,,,,,,,,,,,,,610224c7e331699763a12488,61036fd096d9e68b6a69df2d,2021-07-29_23h20.53.575,Simcolourproject_2stim_asymm_v5,2020.2.10,Win32,60,61025ae37ef11b136ea224fe,,,,,,,,,2834,-44,-66,1,0,0,response5disk,,3,5,11,1,0,0,rectangle,5,11,1,0,0,5,11,1,0,0,0,91,91,99,1,,,,,,,,
,,,,,,,,,,,,,FF,,,,,,,,0.5504,,,,,,,,,,,,,,,,,,,,,,610224c7e331699763a12488,61036fd096d9e68b6a69df2d,2021-07-29_23h20.53.575,Simcolourproject_2stim_asymm_v5,2020.2.10,Win32,60,61025ae37ef11b136ea224fe,,,,,,,,,3618,34,68,1,0,0,response1disk,,7,22,7,1,0,0,rectangle,22,7,1,0,0,22,7,1,0,0,0,92,92,127,1,,,,,,,,
,,,,,,,,,,,,,FF,,,,,,,,1.0334,,,,,,,,,,,,,,,,,,,,,,610224c7e331699763a12488,61036fd096d9e68b6a69df2d,2021-07-29_23h20.53.575,Simcolourproject_2stim_asymm_v5,2020.2.10,Win32,60,61025ae37ef11b136ea224fe,,,,,,,,,91,17,-74,1,0,0,response3disk,,4,1,2,1,0,0,rectangle,1,2,1,0,0,1,2,1,0,0,0,93,93,79,1,,,,,,,,
,,,,,,,,,,,,,FF,,,,,,,,0.901,,,,,,,,,,,,,,,,,,,,,,610224c7e331699763a12488,61036fd096d9e68b6a69df2d,2021-07-29_23h20.53.575,Simcolourproject_2stim_asymm_v5,2020.2.10,Win32,60,61025ae37ef11b136ea224fe,,,,,,,,,2797,54,73,1,0,0,response1disk,,7,9,4,1,0,0,rectangle,9,4,1,0,0,9,4,1,0,0,0,94,94,108,1,,,,,,,,
,,,,,,,,,,,,,FF,,,,,,,,1.9496,,,,,,,,,,,,,,,,,,,,,,610224c7e331699763a12488,61036fd096d9e68b6a69df2d,2021-07-29_23h20.53.575,Simcolourproject_2stim_asymm_v5,2020.2.10,Win32,60,61025ae37ef11b136ea224fe,,,,,,,,,981,51,116,1,0,0,response1disk,,7,-9,-1,1,0,0,rectangle,-9,-1,1,0,0,-9,-1,1,0,0,0,95,95,134,1,,,,,,,,
,,,,,,,,,,,,,FF,,,,,,,,0.5335,,,,,,,,,,,,,,,,,,,,,,610224c7e331699763a12488,61036fd096d9e68b6a69df2d,2021-07-29_23h20.53.575,Simcolourproject_2stim_asymm_v5,2020.2.10,Win32,60,61025ae37ef11b136ea224fe,,,,,,,,,217,41,89,1,0,0,response1disk,,7,-2,-3,1,0,0,rectangle,-2,-3,1,0,0,-2,-3,1,0,0,0,96,96,141,1,,,,,,,,
,,,,,,,,,,,,,FF,,,,,,,,0.4656,,,,,,,,,,,,,,,,,,,,,,610224c7e331699763a12488,61036fd096d9e68b6a69df2d,2021-07-29_23h20.53.575,Simcolourproject_2stim_asymm_v5,2020.2.10,Win32,60,61025ae37ef11b136ea224fe,,,,,,,,,2382,35,85,1,0,0,response1disk,,7,-13,-3,1,0,0,rectangle,-13,-3,1,0,0,-13,-3,1,0,0,0,97,97,124,1,,,,,,,,
,,,,,,,,,,,,,FF,,,,,,,,1.3828,,,,,,,,,,,,,,,,,,,,,,610224c7e331699763a12488,61036fd096d9e68b6a69df2d,2021-07-29_23h20.53.575,Simcolourproject_2stim_asymm_v5,2020.2.10,Win32,60,61025ae37ef11b136ea224fe,,,,,,,,,3408,50,60,1,0,0,response1disk,,7,5,4,1,0,0,rectangle,5,4,1,0,0,5,4,1,0,0,0,98,98,138,1,,,,,,,,
,,,,,,,,,,,,,FF,,,,,,,,0.4831,,,,,,,,,,,,,,,,,,,,,,610224c7e331699763a12488,61036fd096d9e68b6a69df2d,2021-07-29_23h20.53.575,Simcolourproject_2stim_asymm_v5,2020.2.10,Win32,60,61025ae37ef11b136ea224fe,,,,,,,,,3326,40,69,1,0,0,response1disk,,7,8,-8,1,0,0,rectangle,8,-8,1,0,0,8,-8,1,0,0,0,99,99,71,1,,,,,,,,
,,,,,,,,,,,,,FF,,,,,,,,0.9648,,,,,,,,,,,,,,,,,,,,,,610224c7e331699763a12488,61036fd096d9e68b6a69df2d,2021-07-29_23h20.53.575,Simcolourproject_2stim_asymm_v5,2020.2.10,Win32,60,61025ae37ef11b136ea224fe,,,,,,,,,4060,44,83,1,0,0,response1disk,,7,-8,-13,1,0,0,rectangle,-8,-13,1,0,0,-8,-13,1,0,0,0,100,100,125,1,,,,,,,,
,,,,,,,,,,,,,FF,,,,,,,,0.4669,,,,,,,,,,,,,,,,,,,,,,610224c7e331699763a12488,61036fd096d9e68b6a69df2d,2021-07-29_23h20.53.575,Simcolourproject_2stim_asymm_v5,2020.2.10,Win32,60,61025ae37ef11b136ea224fe,,,,,,,,,2183,43,82,1,0,0,response1disk,,7,3,-3,1,0,0,rectangle,3,-3,1,0,0,3,-3,1,0,0,0,101,101,131,1,,,,,,,,
,,,,,,,,,,,,,FF,,,,,,,,0.4658,,,,,,,,,,,,,,,,,,,,,,610224c7e331699763a12488,61036fd096d9e68b6a69df2d,2021-07-29_23h20.53.575,Simcolourproject_2stim_asymm_v5,2020.2.10,Win32,60,61025ae37ef11b136ea224fe,,,,,,,,,748,36,78,1,0,0,response1disk,,7,3,10,1,0,0,rectangle,3,10,1,0,0,3,10,1,0,0,0,102,102,52,1,,,,,,,,
,,,,,,,,,,,,,FF,,,,,,,,1.2502,,,,,,,,,,,,,,,,,,,,,,610224c7e331699763a12488,61036fd096d9e68b6a69df2d,2021-07-29_23h20.53.575,Simcolourproject_2stim_asymm_v5,2020.2.10,Win32,60,61025ae37ef11b136ea224fe,,,,,,,,,2886,-29,82,1,0,0,response7disk,,0,-14,10,1,0,0,rectangle,-14,10,1,0,0,-14,10,1,0,0,0,103,103,139,1,,,,,,,,
,,,,,,,,,,,,,FF,,,,,,,,1.916,,,,,,,,,,,,,,,,,,,,,,610224c7e331699763a12488,61036fd096d9e68b6a69df2d,2021-07-29_23h20.53.575,Simcolourproject_2stim_asymm_v5,2020.2.10,Win32,60,61025ae37ef11b136ea224fe,,,,,,,,,1431,79,19,1,0,0,response1disk,,6,17,2,1,0,0,rectangle,17,2,1,0,0,17,2,1,0,0,0,104,104,117,1,,,,,,,,
,,,,,,,,,,,,,FF,,,,,,,,0.9999,,,,,,,,,,,,,,,,,,,,,,610224c7e331699763a12488,61036fd096d9e68b6a69df2d,2021-07-29_23h20.53.575,Simcolourproject_2stim_asymm_v5,2020.2.10,Win32,60,61025ae37ef11b136ea224fe,,,,,,,,,4346,-56,-29,1,0,0,response5disk,,2,10,13,1,0,0,rectangle,10,13,1,0,0,10,13,1,0,0,0,105,105,14,1,,,,,,,,
,,,,,,,,,,,,,FF,,,,,,,,0.6167,,,,,,,,,,,,,,,,,,,,,,610224c7e331699763a12488,61036fd096d9e68b6a69df2d,2021-07-29_23h20.53.575,Simcolourproject_2stim_asymm_v5,2020.2.10,Win32,60,61025ae37ef11b136ea224fe,,,,,,,,,4319,26,88,1,0,0,response1disk,,7,-4,5,1,0,0,rectangle,-4,5,1,0,0,-4,5,1,0,0,0,106,106,68,1,,,,,,,,
,,,,,,,,,,,,,FF,,,,,,,,0.984,,,,,,,,,,,,,,,,,,,,,,610224c7e331699763a12488,61036fd096d9e68b6a69df2d,2021-07-29_23h20.53.575,Simcolourproject_2stim_asymm_v5,2020.2.10,Win32,60,61025ae37ef11b136ea224fe,,,,,,,,,2516,29,74,1,0,0,response1disk,,7,0,-4,1,0,0,rectangle,0,-4,1,0,0,0,-4,1,0,0,0,107,107,32,1,,,,,,,,
,,,,,,,,,,,,,FF,,,,,,,,0.6333,,,,,,,,,,,,,,,,,,,,,,610224c7e331699763a12488,61036fd096d9e68b6a69df2d,2021-07-29_23h20.53.575,Simcolourproject_2stim_asymm_v5,2020.2.10,Win32,60,61025ae37ef11b136ea224fe,,,,,,,,,2168,59,36,1,0,0,response1disk,,6,8,-4,1,0,0,rectangle,8,-4,1,0,0,8,-4,1,0,0,0,108,108,84,1,,,,,,,,
,,,,,,,,,,,,,FF,,,,,,,,0.5836,,,,,,,,,,,,,,,,,,,,,,610224c7e331699763a12488,61036fd096d9e68b6a69df2d,2021-07-29_23h20.53.575,Simcolourproject_2stim_asymm_v5,2020.2.10,Win32,60,61025ae37ef11b136ea224fe,,,,,,,,,2926,49,82,1,0,0,response1disk,,7,2,6,1,0,0,rectangle,84,107,1,0,0,-4,-7,1,0,0,0,109,109,3,1,,response1disk_3,TRUE,7,7,"[14,267,309,252,223,313,150,266,49,302,269,251,154,165,275,32,110,142,213,255]",1.9327,rectangle
,,,,,,,,,,,,,FF,,,,,,,,1.1514,,,,,,,,,,,,,,,,,,,,,,610224c7e331699763a12488,61036fd096d9e68b6a69df2d,2021-07-29_23h20.53.575,Simcolourproject_2stim_asymm_v5,2020.2.10,Win32,60,61025ae37ef11b136ea224fe,,,,,,,,,1792,43,91,1,0,0,response1disk,,7,-1,-1,1,0,0,rectangle,-1,-1,1,0,0,-1,-1,1,0,0,0,110,110,70,1,,,,,,,,
,,,,,,,,,,,,,FF,,,,,,,,0.5164,,,,,,,,,,,,,,,,,,,,,,610224c7e331699763a12488,61036fd096d9e68b6a69df2d,2021-07-29_23h20.53.575,Simcolourproject_2stim_asymm_v5,2020.2.10,Win32,60,61025ae37ef11b136ea224fe,,,,,,,,,2509,36,74,1,0,0,response1disk,,7,8,4,1,0,0,rectangle,8,4,1,0,0,8,4,1,0,0,0,111,111,96,1,,,,,,,,
,,,,,,,,,,,,,FF,,,,,,,,0.4837,,,,,,,,,,,,,,,,,,,,,,610224c7e331699763a12488,61036fd096d9e68b6a69df2d,2021-07-29_23h20.53.575,Simcolourproject_2stim_asymm_v5,2020.2.10,Win32,60,61025ae37ef11b136ea224fe,,,,,,,,,2070,30,65,1,0,0,response1disk,,7,13,-1,1,0,0,rectangle,13,-1,1,0,0,13,-1,1,0,0,0,112,112,146,1,,,,,,,,
,,,,,,,,,,,,,FF,,,,,,,,1.5994,,,,,,,,,,,,,,,,,,,,,,610224c7e331699763a12488,61036fd096d9e68b6a69df2d,2021-07-29_23h20.53.575,Simcolourproject_2stim_asymm_v5,2020.2.10,Win32,60,61025ae37ef11b136ea224fe,,,,,,,,,808,33,-87,1,0,0,response3disk,,4,-2,-10,1,0,0,rectangle,-2,-10,1,0,0,-2,-10,1,0,0,0,113,113,62,1,,,,,,,,
,,,,,,,,,,,,,FF,,,,,,,,0.6001,,,,,,,,,,,,,,,,,,,,,,610224c7e331699763a12488,61036fd096d9e68b6a69df2d,2021-07-29_23h20.53.575,Simcolourproject_2stim_asymm_v5,2020.2.10,Win32,60,61025ae37ef11b136ea224fe,,,,,,,,,114,31,77,1,0,0,response1disk,,7,8,4,1,0,0,rectangle,8,4,1,0,0,8,4,1,0,0,0,114,114,114,1,,,,,,,,
,,,,,,,,,,,,,FF,,,,,,,,1.2497,,,,,,,,,,,,,,,,,,,,,,610224c7e331699763a12488,61036fd096d9e68b6a69df2d,2021-07-29_23h20.53.575,Simcolourproject_2stim_asymm_v5,2020.2.10,Win32,60,61025ae37ef11b136ea224fe,,,,,,,,,78,32,-87,1,0,0,response3disk,,4,0,-7,1,0,0,rectangle,0,-7,1,0,0,0,-7,1,0,0,0,115,115,132,1,,,,,,,,
,,,,,,,,,,,,,FF,,,,,,,,0.5829,,,,,,,,,,,,,,,,,,,,,,610224c7e331699763a12488,61036fd096d9e68b6a69df2d,2021-07-29_23h20.53.575,Simcolourproject_2stim_asymm_v5,2020.2.10,Win32,60,61025ae37ef11b136ea224fe,,,,,,,,,2854,31,63,1,0,0,response1disk,,7,8,-13,1,0,0,rectangle,8,-13,1,0,0,8,-13,1,0,0,0,116,116,119,1,,,,,,,,
,,,,,,,,,,,,,FF,,,,,,,,0.6834,,,,,,,,,,,,,,,,,,,,,,610224c7e331699763a12488,61036fd096d9e68b6a69df2d,2021-07-29_23h20.53.575,Simcolourproject_2stim_asymm_v5,2020.2.10,Win32,60,61025ae37ef11b136ea224fe,,,,,,,,,2676,42,73,1,0,0,response1disk,,7,12,-5,1,0,0,rectangle,12,-5,1,0,0,12,-5,1,0,0,0,117,117,142,1,,,,,,,,
,,,,,,,,,,,,,FF,,,,,,,,0.4659,,,,,,,,,,,,,,,,,,,,,,610224c7e331699763a12488,61036fd096d9e68b6a69df2d,2021-07-29_23h20.53.575,Simcolourproject_2stim_asymm_v5,2020.2.10,Win32,60,61025ae37ef11b136ea224fe,,,,,,,,,2699,32,89,1,0,0,response1disk,,7,-15,2,1,0,0,rectangle,-15,2,1,0,0,-15,2,1,0,0,0,118,118,121,1,,,,,,,,
,,,,,,,,,,,,,FF,,,,,,,,0.9158,,,,,,,,,,,,,,,,,,,,,,610224c7e331699763a12488,61036fd096d9e68b6a69df2d,2021-07-29_23h20.53.575,Simcolourproject_2stim_asymm_v5,2020.2.10,Win32,60,61025ae37ef11b136ea224fe,,,,,,,,,2831,-39,89,1,0,0,response7disk,,0,-3,-4,1,0,0,rectangle,-3,-4,1,0,0,-3,-4,1,0,0,0,119,119,159,1,,,,,,,,
,,,,,,,,,,,,,FF,,,,,,,,0.6503,,,,,,,,,,,,,,,,,,,,,,610224c7e331699763a12488,61036fd096d9e68b6a69df2d,2021-07-29_23h20.53.575,Simcolourproject_2stim_asymm_v5,2020.2.10,Win32,60,61025ae37ef11b136ea224fe,,,,,,,,,3603,51,93,1,0,0,response1disk,,7,6,-7,1,0,0,rectangle,6,-7,1,0,0,6,-7,1,0,0,0,120,120,30,1,,,,,,,,
,,,,,,,,,,,,,FF,,,,,,,,0.7514,,,,,,,,,,,,,,,,,,,,,,610224c7e331699763a12488,61036fd096d9e68b6a69df2d,2021-07-29_23h20.53.575,Simcolourproject_2stim_asymm_v5,2020.2.10,Win32,60,61025ae37ef11b136ea224fe,,,,,,,,,87,-33,79,1,0,0,response7disk,,0,13,2,1,0,0,rectangle,13,2,1,0,0,13,2,1,0,0,0,121,121,24,1,,,,,,,,
,,,,,,,,,,,,,FF,,,,,,,,1.6508,,,,,,,,,,,,,,,,,,,,,,610224c7e331699763a12488,61036fd096d9e68b6a69df2d,2021-07-29_23h20.53.575,Simcolourproject_2stim_asymm_v5,2020.2.10,Win32,60,61025ae37ef11b136ea224fe,,,,,,,,,1467,32,105,1,0,0,response1disk,,7,3,-4,1,0,0,rectangle,3,-4,1,0,0,3,-4,1,0,0,0,122,122,102,1,,,,,,,,
,,,,,,,,,,,,,FF,,,,,,,,0.5841,,,,,,,,,,,,,,,,,,,,,,610224c7e331699763a12488,61036fd096d9e68b6a69df2d,2021-07-29_23h20.53.575,Simcolourproject_2stim_asymm_v5,2020.2.10,Win32,60,61025ae37ef11b136ea224fe,,,,,,,,,139,43,104,1,0,0,response1disk,,7,3,-2,1,0,0,rectangle,3,-2,1,0,0,3,-2,1,0,0,0,123,123,155,1,,,,,,,,
,,,,,,,,,,,,,FF,,,,,,,,1.0343,,,,,,,,,,,,,,,,,,,,,,610224c7e331699763a12488,61036fd096d9e68b6a69df2d,2021-07-29_23h20.53.575,Simcolourproject_2stim_asymm_v5,2020.2.10,Win32,60,61025ae37ef11b136ea224fe,,,,,,,,,1834,94,-47,1,0,0,response3disk,,5,-29,7,1,0,0,rectangle,-29,7,1,0,0,-29,7,1,0,0,0,124,124,72,1,,,,,,,,
,,,,,,,,,,,,,FF,,,,,,,,1.3004,,,,,,,,,,,,,,,,,,,,,,610224c7e331699763a12488,61036fd096d9e68b6a69df2d,2021-07-29_23h20.53.575,Simcolourproject_2stim_asymm_v5,2020.2.10,Win32,60,61025ae37ef11b136ea224fe,,,,,,,,,2060,25,89,1,0,0,response1disk,,7,1,9,1,0,0,rectangle,1,9,1,0,0,1,9,1,0,0,0,125,125,122,1,,,,,,,,
,,,,,,,,,,,,,FF,,,,,,,,0.6163,,,,,,,,,,,,,,,,,,,,,,610224c7e331699763a12488,61036fd096d9e68b6a69df2d,2021-07-29_23h20.53.575,Simcolourproject_2stim_asymm_v5,2020.2.10,Win32,60,61025ae37ef11b136ea224fe,,,,,,,,,2689,49,87,1,0,0,response1disk,,7,1,-9,1,0,0,rectangle,1,-9,1,0,0,1,-9,1,0,0,0,126,126,105,1,,,,,,,,
,,,,,,,,,,,,,FF,,,,,,,,0.6326,,,,,,,,,,,,,,,,,,,,,,610224c7e331699763a12488,61036fd096d9e68b6a69df2d,2021-07-29_23h20.53.575,Simcolourproject_2stim_asymm_v5,2020.2.10,Win32,60,61025ae37ef11b136ea224fe,,,,,,,,,2426,69,32,1,0,0,response1disk,,6,0,2,1,0,0,rectangle,0,2,1,0,0,0,2,1,0,0,0,127,127,19,1,,,,,,,,
,,,,,,,,,,,,,FF,,,,,,,,0.5478,,,,,,,,,,,,,,,,,,,,,,610224c7e331699763a12488,61036fd096d9e68b6a69df2d,2021-07-29_23h20.53.575,Simcolourproject_2stim_asymm_v5,2020.2.10,Win32,60,61025ae37ef11b136ea224fe,,,,,,,,,3801,43,77,1,0,0,response1disk,,7,-8,0,1,0,0,rectangle,-8,0,1,0,0,-8,0,1,0,0,0,128,128,60,1,,,,,,,,
,,,,,,,,,,,,,FF,,,,,,,,0.9166,,,,,,,,,,,,,,,,,,,,,,610224c7e331699763a12488,61036fd096d9e68b6a69df2d,2021-07-29_23h20.53.575,Simcolourproject_2stim_asymm_v5,2020.2.10,Win32,60,61025ae37ef11b136ea224fe,,,,,,,,,2322,62,77,1,0,0,response1disk,,7,-5,5,1,0,0,rectangle,-5,5,1,0,0,-5,5,1,0,0,0,129,129,90,1,,,,,,,,
,,,,,,,,,,,,,FF,,,,,,,,0.85,,,,,,,,,,,,,,,,,,,,,,610224c7e331699763a12488,61036fd096d9e68b6a69df2d,2021-07-29_23h20.53.575,Simcolourproject_2stim_asymm_v5,2020.2.10,Win32,60,61025ae37ef11b136ea224fe,,,,,,,,,370,59,-39,1,0,0,response3disk,,5,4,6,1,0,0,rectangle,4,6,1,0,0,4,6,1,0,0,0,130,130,61,1,,,,,,,,
,,,,,,,,,,,,,FF,,,,,,,,0.6162,,,,,,,,,,,,,,,,,,,,,,610224c7e331699763a12488,61036fd096d9e68b6a69df2d,2021-07-29_23h20.53.575,Simcolourproject_2stim_asymm_v5,2020.2.10,Win32,60,61025ae37ef11b136ea224fe,,,,,,,,,3124,26,79,1,0,0,response1disk,,7,3,7,1,0,0,rectangle,3,7,1,0,0,3,7,1,0,0,0,131,131,41,1,,,,,,,,
,,,,,,,,,,,,,FF,,,,,,,,0.9169,,,,,,,,,,,,,,,,,,,,,,610224c7e331699763a12488,61036fd096d9e68b6a69df2d,2021-07-29_23h20.53.575,Simcolourproject_2stim_asymm_v5,2020.2.10,Win32,60,61025ae37ef11b136ea224fe,,,,,,,,,3005,57,93,1,0,0,response1disk,,7,3,-4,1,0,0,rectangle,3,-4,1,0,0,3,-4,1,0,0,0,132,132,25,1,,,,,,,,
,,,,,,,,,,,,,FF,,,,,,,,0.5832,,,,,,,,,,,,,,,,,,,,,,610224c7e331699763a12488,61036fd096d9e68b6a69df2d,2021-07-29_23h20.53.575,Simcolourproject_2stim_asymm_v5,2020.2.10,Win32,60,61025ae37ef11b136ea224fe,,,,,,,,,4008,32,65,1,0,0,response1disk,,7,3,-6,1,0,0,rectangle,3,-6,1,0,0,3,-6,1,0,0,0,133,133,18,1,,,,,,,,
,,,,,,,,,,,,,FF,,,,,,,,0.5674,,,,,,,,,,,,,,,,,,,,,,610224c7e331699763a12488,61036fd096d9e68b6a69df2d,2021-07-29_23h20.53.575,Simcolourproject_2stim_asymm_v5,2020.2.10,Win32,60,61025ae37ef11b136ea224fe,,,,,,,,,754,40,81,1,0,0,response1disk,,7,18,11,1,0,0,rectangle,18,11,1,0,0,18,11,1,0,0,0,134,134,5,1,,,,,,,,
,,,,,,,,,,,,,FF,,,,,,,,1.3585,,,,,,,,,,,,,,,,,,,,,,610224c7e331699763a12488,61036fd096d9e68b6a69df2d,2021-07-29_23h20.53.575,Simcolourproject_2stim_asymm_v5,2020.2.10,Win32,60,61025ae37ef11b136ea224fe,,,,,,,,,181,42,88,1,0,0,response1disk,,7,14,1,1,0,0,rectangle,14,1,1,0,0,14,1,1,0,0,0,135,135,48,1,,,,,,,,
,,,,,,,,,,,,,FF,,,,,,,,4.1833,,,,,,,,,,,,,,,,,,,,,,610224c7e331699763a12488,61036fd096d9e68b6a69df2d,2021-07-29_23h20.53.575,Simcolourproject_2stim_asymm_v5,2020.2.10,Win32,60,61025ae37ef11b136ea224fe,,,,,,,,,3280,39,89,1,0,0,response1disk,,7,8,-5,1,0,0,rectangle,8,-5,1,0,0,8,-5,1,0,0,0,136,136,88,1,,,,,,,,
,,,,,,,,,,,,,FF,,,,,,,,2.0001,,,,,,,,,,,,,,,,,,,,,,610224c7e331699763a12488,61036fd096d9e68b6a69df2d,2021-07-29_23h20.53.575,Simcolourproject_2stim_asymm_v5,2020.2.10,Win32,60,61025ae37ef11b136ea224fe,,,,,,,,,2403,52,118,1,0,0,response1disk,,7,-3,-6,1,0,0,rectangle,-3,-6,1,0,0,-3,-6,1,0,0,0,137,137,38,1,,,,,,,,
,,,,,,,,,,,,,FF,,,,,,,,0.5826,,,,,,,,,,,,,,,,,,,,,,610224c7e331699763a12488,61036fd096d9e68b6a69df2d,2021-07-29_23h20.53.575,Simcolourproject_2stim_asymm_v5,2020.2.10,Win32,60,61025ae37ef11b136ea224fe,,,,,,,,,657,32,92,1,0,0,response1disk,,7,0,4,1,0,0,rectangle,0,4,1,0,0,0,4,1,0,0,0,138,138,28,1,,,,,,,,
,,,,,,,,,,,,,FF,,,,,,,,0.8824,,,,,,,,,,,,,,,,,,,,,,610224c7e331699763a12488,61036fd096d9e68b6a69df2d,2021-07-29_23h20.53.575,Simcolourproject_2stim_asymm_v5,2020.2.10,Win32,60,61025ae37ef11b136ea224fe,,,,,,,,,3741,-56,104,1,0,0,response7disk,,0,-17,7,1,0,0,rectangle,-17,7,1,0,0,-17,7,1,0,0,0,139,139,158,1,,,,,,,,
,,,,,,,,,,,,,FF,,,,,,,,1.6672,,,,,,,,,,,,,,,,,,,,,,610224c7e331699763a12488,61036fd096d9e68b6a69df2d,2021-07-29_23h20.53.575,Simcolourproject_2stim_asymm_v5,2020.2.10,Win32,60,61025ae37ef11b136ea224fe,,,,,,,,,1126,47,93,1,0,0,response1disk,,7,11,-9,1,0,0,rectangle,11,-9,1,0,0,11,-9,1,0,0,0,140,140,101,1,,,,,,,,
,,,,,,,,,,,,,FF,,,,,,,,1.6352,,,,,,,,,,,,,,,,,,,,,,610224c7e331699763a12488,61036fd096d9e68b6a69df2d,2021-07-29_23h20.53.575,Simcolourproject_2stim_asymm_v5,2020.2.10,Win32,60,61025ae37ef11b136ea224fe,,,,,,,,,3677,-30,-95,1,0,0,response5disk,,3,5,8,1,0,0,rectangle,-64,-79,1,0,0,-19,-10,1,0,0,0,141,141,112,1,,response5disk_3,TRUE,3,3,"[14,267,309,252,223,313,150,266,49,302,269,251,154,165,275,32,110,142,213,255]",1.8993,rectangle
,,,,,,,,,,,,,FF,,,,,,,,0.8159,,,,,,,,,,,,,,,,,,,,,,610224c7e331699763a12488,61036fd096d9e68b6a69df2d,2021-07-29_23h20.53.575,Simcolourproject_2stim_asymm_v5,2020.2.10,Win32,60,61025ae37ef11b136ea224fe,,,,,,,,,1175,41,84,1,0,0,response1disk,,7,13,-10,1,0,0,rectangle,13,-10,1,0,0,13,-10,1,0,0,0,142,142,26,1,,,,,,,,
,,,,,,,,,,,,,FF,,,,,,,,1.3658,,,,,,,,,,,,,,,,,,,,,,610224c7e331699763a12488,61036fd096d9e68b6a69df2d,2021-07-29_23h20.53.575,Simcolourproject_2stim_asymm_v5,2020.2.10,Win32,60,61025ae37ef11b136ea224fe,,,,,,,,,2698,28,95,1,0,0,response1disk,,7,9,8,1,0,0,rectangle,9,8,1,0,0,9,8,1,0,0,0,143,143,104,1,,,,,,,,
,,,,,,,,,,,,,FF,,,,,,,,0.6836,,,,,,,,,,,,,,,,,,,,,,610224c7e331699763a12488,61036fd096d9e68b6a69df2d,2021-07-29_23h20.53.575,Simcolourproject_2stim_asymm_v5,2020.2.10,Win32,60,61025ae37ef11b136ea224fe,,,,,,,,,408,39,76,1,0,0,response1disk,,7,16,-1,1,0,0,rectangle,16,-1,1,0,0,16,-1,1,0,0,0,144,144,6,1,,,,,,,,
,,,,,,,,,,,,,FF,,,,,,,,0.8702,,,,,,,,,,,,,,,,,,,,,,610224c7e331699763a12488,61036fd096d9e68b6a69df2d,2021-07-29_23h20.53.575,Simcolourproject_2stim_asymm_v5,2020.2.10,Win32,60,61025ae37ef11b136ea224fe,,,,,,,,,695,90,35,1,0,0,response1disk,,6,13,-2,1,0,0,rectangle,13,-2,1,0,0,13,-2,1,0,0,0,145,145,100,1,,,,,,,,
,,,,,,,,,,,,,FF,,,,,,,,0.6173,,,,,,,,,,,,,,,,,,,,,,610224c7e331699763a12488,61036fd096d9e68b6a69df2d,2021-07-29_23h20.53.575,Simcolourproject_2stim_asymm_v5,2020.2.10,Win32,60,61025ae37ef11b136ea224fe,,,,,,,,,2198,41,56,1,0,0,response1disk,,7,14,0,1,0,0,rectangle,14,0,1,0,0,14,0,1,0,0,0,146,146,33,1,,,,,,,,
,,,,,,,,,,,,,FF,,,,,,,,1.1466,,,,,,,,,,,,,,,,,,,,,,610224c7e331699763a12488,61036fd096d9e68b6a69df2d,2021-07-29_23h20.53.575,Simcolourproject_2stim_asymm_v5,2020.2.10,Win32,60,61025ae37ef11b136ea224fe,,,,,,,,,835,55,72,1,0,0,response1disk,,7,19,-4,1,0,0,rectangle,19,-4,1,0,0,19,-4,1,0,0,0,147,147,54,1,,,,,,,,
,,,,,,,,,,,,,FF,,,,,,,,0.78,,,,,,,,,,,,,,,,,,,,,,610224c7e331699763a12488,61036fd096d9e68b6a69df2d,2021-07-29_23h20.53.575,Simcolourproject_2stim_asymm_v5,2020.2.10,Win32,60,61025ae37ef11b136ea224fe,,,,,,,,,2984,53,74,1,0,0,response1disk,,7,10,-7,1,0,0,rectangle,10,-7,1,0,0,10,-7,1,0,0,0,148,148,153,1,,,,,,,,
,,,,,,,,,,,,,FF,,,,,,,,0.5651,,,,,,,,,,,,,,,,,,,,,,610224c7e331699763a12488,61036fd096d9e68b6a69df2d,2021-07-29_23h20.53.575,Simcolourproject_2stim_asymm_v5,2020.2.10,Win32,60,61025ae37ef11b136ea224fe,,,,,,,,,2969,40,70,1,0,0,response1disk,,7,12,6,1,0,0,rectangle,-46,-96,1,0,0,3,9,1,0,0,0,149,149,65,1,,response5disk_3,TRUE,3,3,"[14,267,309,252,223,313,150,266,49,302,269,251,154,165,275,32,110,142,213,255]",2.332,rectangle
,,,,,,,,,,,,,FF,,,,,,,,0.7623,,,,,,,,,,,,,,,,,,,,,,610224c7e331699763a12488,61036fd096d9e68b6a69df2d,2021-07-29_23h20.53.575,Simcolourproject_2stim_asymm_v5,2020.2.10,Win32,60,61025ae37ef11b136ea224fe,,,,,,,,,1906,32,82,1,0,0,response1disk,,7,15,11,1,0,0,rectangle,15,11,1,0,0,15,11,1,0,0,0,150,150,2,1,,,,,,,,
,,,,,,,,,,,,,FF,,,,,,,,0.5306,,,,,,,,,,,,,,,,,,,,,,610224c7e331699763a12488,61036fd096d9e68b6a69df2d,2021-07-29_23h20.53.575,Simcolourproject_2stim_asymm_v5,2020.2.10,Win32,60,61025ae37ef11b136ea224fe,,,,,,,,,3691,36,81,1,0,0,response1disk,,7,-4,-10,1,0,0,rectangle,-4,-10,1,0,0,-4,-10,1,0,0,0,151,151,35,1,,,,,,,,
,,,,,,,,,,,,,FF,,,,,,,,1.484,,,,,,,,,,,,,,,,,,,,,,610224c7e331699763a12488,61036fd096d9e68b6a69df2d,2021-07-29_23h20.53.575,Simcolourproject_2stim_asymm_v5,2020.2.10,Win32,60,61025ae37ef11b136ea224fe,,,,,,,,,2030,44,-91,1,0,0,response3disk,,4,-3,-2,1,0,0,rectangle,-3,-2,1,0,0,-3,-2,1,0,0,0,152,152,44,1,,,,,,,,
,,,,,,,,,,,,,FF,,,,,,,,0.6034,,,,,,,,,,,,,,,,,,,,,,610224c7e331699763a12488,61036fd096d9e68b6a69df2d,2021-07-29_23h20.53.575,Simcolourproject_2stim_asymm_v5,2020.2.10,Win32,60,61025ae37ef11b136ea224fe,,,,,,,,,3253,30,92,1,0,0,response1disk,,7,-2,-4,1,0,0,rectangle,29,-88,1,0,0,11,15,1,0,0,0,153,153,82,1,,response3disk_3,TRUE,4,4,"[14,267,309,252,223,313,150,266,49,302,269,251,154,165,275,32,110,142,213,255]",2.0162,rectangle
,,,,,,,,,,,,,FF,,,,,,,,0.7167,,,,,,,,,,,,,,,,,,,,,,610224c7e331699763a12488,61036fd096d9e68b6a69df2d,2021-07-29_23h20.53.575,Simcolourproject_2stim_asymm_v5,2020.2.10,Win32,60,61025ae37ef11b136ea224fe,,,,,,,,,119,40,84,1,0,0,response1disk,,7,18,-11,1,0,0,rectangle,18,-11,1,0,0,18,-11,1,0,0,0,154,154,140,1,,,,,,,,
,,,,,,,,,,,,,FF,,,,,,,,0.4805,,,,,,,,,,,,,,,,,,,,,,610224c7e331699763a12488,61036fd096d9e68b6a69df2d,2021-07-29_23h20.53.575,Simcolourproject_2stim_asymm_v5,2020.2.10,Win32,60,61025ae37ef11b136ea224fe,,,,,,,,,390,27,50,1,0,0,response1disk,,7,18,4,1,0,0,rectangle,18,4,1,0,0,18,4,1,0,0,0,155,155,126,1,,,,,,,,
,,,,,,,,,,,,,FF,,,,,,,,0.5504,,,,,,,,,,,,,,,,,,,,,,610224c7e331699763a12488,61036fd096d9e68b6a69df2d,2021-07-29_23h20.53.575,Simcolourproject_2stim_asymm_v5,2020.2.10,Win32,60,61025ae37ef11b136ea224fe,,,,,,,,,836,42,78,1,0,0,response1disk,,7,10,1,1,0,0,rectangle,10,1,1,0,0,10,1,1,0,0,0,156,156,27,1,,,,,,,,
,,,,,,,,,,,,,FF,,,,,,,,0.6316,,,,,,,,,,,,,,,,,,,,,,610224c7e331699763a12488,61036fd096d9e68b6a69df2d,2021-07-29_23h20.53.575,Simcolourproject_2stim_asymm_v5,2020.2.10,Win32,60,61025ae37ef11b136ea224fe,,,,,,,,,257,28,72,1,0,0,response1disk,,7,-2,6,1,0,0,rectangle,-2,6,1,0,0,-2,6,1,0,0,0,157,157,8,1,,,,,,,,
,,,,,,,,,,,,,FF,,,,,,,,0.6523,,,,,,,,,,,,,,,,,,,,,,610224c7e331699763a12488,61036fd096d9e68b6a69df2d,2021-07-29_23h20.53.575,Simcolourproject_2stim_asymm_v5,2020.2.10,Win32,60,61025ae37ef11b136ea224fe,,,,,,,,,193,37,70,1,0,0,response1disk,,7,5,-1,1,0,0,rectangle,5,-1,1,0,0,5,-1,1,0,0,0,158,158,157,1,,,,,,,,
,,,,,,,,,,,,,FF,,,,,,,,0.8299,,,,,,,,,,,,,,,,,,,,,,610224c7e331699763a12488,61036fd096d9e68b6a69df2d,2021-07-29_23h20.53.575,Simcolourproject_2stim_asymm_v5,2020.2.10,Win32,60,61025ae37ef11b136ea224fe,,,,,,,,,2533,76,46,1,0,0,response1disk,,6,13,9,1,0,0,rectangle,13,9,1,0,0,13,9,1,0,0,0,159,159,4,1,,,,,,,,
,,,,,,,,,,,,,FF,,,,,,,,0.5678,,,,,,,,,,,,,,,,,,,,,,610224c7e331699763a12488,61036fd096d9e68b6a69df2d,2021-07-29_23h20.53.575,Simcolourproject_2stim_asymm_v5,2020.2.10,Win32,60,61025ae37ef11b136ea224fe,,,,,,,,,3804,42,88,1,0,0,response1disk,,7,19,-7,1,0,0,rectangle,19,-7,1,0,0,19,-7,1,0,0,1,0,160,37,1,,,,,,,,
,,,,,,,,,,,,,FF,,,,,,,,0.5164,,,,,,,,,,,,,,,,,,,,,,610224c7e331699763a12488,61036fd096d9e68b6a69df2d,2021-07-29_23h20.53.575,Simcolourproject_2stim_asymm_v5,2020.2.10,Win32,60,61025ae37ef11b136ea224fe,,,,,,,,,2522,25,76,1,0,0,response1disk,,7,16,5,1,0,0,rectangle,16,5,1,0,0,16,5,1,0,0,1,1,161,45,1,,,,,,,,
,,,,,,,,,,,,,FF,,,,,,,,0.5032,,,,,,,,,,,,,,,,,,,,,,610224c7e331699763a12488,61036fd096d9e68b6a69df2d,2021-07-29_23h20.53.575,Simcolourproject_2stim_asymm_v5,2020.2.10,Win32,60,61025ae37ef11b136ea224fe,,,,,,,,,3012,44,64,1,0,0,response1disk,,7,17,-6,1,0,0,rectangle,17,-6,1,0,0,17,-6,1,0,0,1,2,162,73,1,,,,,,,,
,,,,,,,,,,,,,FF,,,,,,,,0.5501,,,,,,,,,,,,,,,,,,,,,,610224c7e331699763a12488,61036fd096d9e68b6a69df2d,2021-07-29_23h20.53.575,Simcolourproject_2stim_asymm_v5,2020.2.10,Win32,60,61025ae37ef11b136ea224fe,,,,,,,,,3584,37,61,1,0,0,response1disk,,7,10,-3,1,0,0,rectangle,10,-3,1,0,0,10,-3,1,0,0,1,3,163,57,1,,,,,,,,
,,,,,,,,,,,,,FF,,,,,,,,0.5039,,,,,,,,,,,,,,,,,,,,,,610224c7e331699763a12488,61036fd096d9e68b6a69df2d,2021-07-29_23h20.53.575,Simcolourproject_2stim_asymm_v5,2020.2.10,Win32,60,61025ae37ef11b136ea224fe,,,,,,,,,1010,32,53,1,0,0,response1disk,,7,5,-12,1,0,0,rectangle,75,-50,1,0,0,-5,11,1,0,0,1,4,164,79,1,,response3disk_3,TRUE,5,5,"[14,267,309,252,223,313,150,266,49,302,269,251,154,165,275,32,110,142,213,255]",1.617,rectangle
,,,,,,,,,,,,,FF,,,,,,,,0.6707,,,,,,,,,,,,,,,,,,,,,,610224c7e331699763a12488,61036fd096d9e68b6a69df2d,2021-07-29_23h20.53.575,Simcolourproject_2stim_asymm_v5,2020.2.10,Win32,60,61025ae37ef11b136ea224fe,,,,,,,,,935,46,95,1,0,0,response1disk,,7,1,-4,1,0,0,rectangle,1,-4,1,0,0,1,-4,1,0,0,1,5,165,41,1,,,,,,,,
,,,,,,,,,,,,,FF,,,,,,,,0.9647,,,,,,,,,,,,,,,,,,,,,,610224c7e331699763a12488,61036fd096d9e68b6a69df2d,2021-07-29_23h20.53.575,Simcolourproject_2stim_asymm_v5,2020.2.10,Win32,60,61025ae37ef11b136ea224fe,,,,,,,,,3065,77,23,1,0,0,response1disk,,6,5,-4,1,0,0,rectangle,5,-4,1,0,0,5,-4,1,0,0,1,6,166,63,1,,,,,,,,
,,,,,,,,,,,,,FF,,,,,,,,1.0174,,,,,,,,,,,,,,,,,,,,,,610224c7e331699763a12488,61036fd096d9e68b6a69df2d,2021-07-29_23h20.53.575,Simcolourproject_2stim_asymm_v5,2020.2.10,Win32,60,61025ae37ef11b136ea224fe,,,,,,,,,1807,27,-95,1,0,0,response3disk,,4,9,-3,1,0,0,rectangle,9,-3,1,0,0,9,-3,1,0,0,1,7,167,53,1,,,,,,,,
,,,,,,,,,,,,,FF,,,,,,,,0.6337,,,,,,,,,,,,,,,,,,,,,,610224c7e331699763a12488,61036fd096d9e68b6a69df2d,2021-07-29_23h20.53.575,Simcolourproject_2stim_asymm_v5,2020.2.10,Win32,60,61025ae37ef11b136ea224fe,,,,,,,,,3705,-42,83,1,0,0,response7disk,,0,7,8,1,0,0,rectangle,7,8,1,0,0,7,8,1,0,0,1,8,168,60,1,,,,,,,,
,,,,,,,,,,,,,FF,,,,,,,,1.5001,,,,,,,,,,,,,,,,,,,,,,610224c7e331699763a12488,61036fd096d9e68b6a69df2d,2021-07-29_23h20.53.575,Simcolourproject_2stim_asymm_v5,2020.2.10,Win32,60,61025ae37ef11b136ea224fe,,,,,,,,,1107,46,96,1,0,0,response1disk,,7,7,13,1,0,0,rectangle,7,13,1,0,0,7,13,1,0,0,1,9,169,86,1,,,,,,,,
,,,,,,,,,,,,,FF,,,,,,,,1.4211,,,,,,,,,,,,,,,,,,,,,,610224c7e331699763a12488,61036fd096d9e68b6a69df2d,2021-07-29_23h20.53.575,Simcolourproject_2stim_asymm_v5,2020.2.10,Win32,60,61025ae37ef11b136ea224fe,,,,,,,,,1138,41,-97,1,0,0,response3disk,,4,12,4,1,0,0,rectangle,12,4,1,0,0,12,4,1,0,0,1,10,170,70,1,,,,,,,,
,,,,,,,,,,,,,FF,,,,,,,,1.1159,,,,,,,,,,,,,,,,,,,,,,610224c7e331699763a12488,61036fd096d9e68b6a69df2d,2021-07-29_23h20.53.575,Simcolourproject_2stim_asymm_v5,2020.2.10,Win32,60,61025ae37ef11b136ea224fe,,,,,,,,,3934,81,-46,1,0,0,response3disk,,5,10,-6,1,0,0,rectangle,10,-6,1,0,0,10,-6,1,0,0,1,11,171,75,1,,,,,,,,
,,,,,,,,,,,,,FF,,,,,,,,0.7681,,,,,,,,,,,,,,,,,,,,,,610224c7e331699763a12488,61036fd096d9e68b6a69df2d,2021-07-29_23h20.53.575,Simcolourproject_2stim_asymm_v5,2020.2.10,Win32,60,61025ae37ef11b136ea224fe,,,,,,,,,3954,49,91,1,0,0,response1disk,,7,9,4,1,0,0,rectangle,9,4,1,0,0,9,4,1,0,0,1,12,172,7,1,,,,,,,,
,,,,,,,,,,,,,FF,,,,,,,,0.887,,,,,,,,,,,,,,,,,,,,,,610224c7e331699763a12488,61036fd096d9e68b6a69df2d,2021-07-29_23h20.53.575,Simcolourproject_2stim_asymm_v5,2020.2.10,Win32,60,61025ae37ef11b136ea224fe,,,,,,,,,1875,58,99,1,0,0,response1disk,,7,4,6,1,0,0,rectangle,4,6,1,0,0,4,6,1,0,0,1,13,173,17,1,,,,,,,,
,,,,,,,,,,,,,FF,,,,,,,,1.1503,,,,,,,,,,,,,,,,,,,,,,610224c7e331699763a12488,61036fd096d9e68b6a69df2d,2021-07-29_23h20.53.575,Simcolourproject_2stim_asymm_v5,2020.2.10,Win32,60,61025ae37ef11b136ea224fe,,,,,,,,,3678,73,-37,1,0,0,response3disk,,5,-10,0,1,0,0,rectangle,-10,0,1,0,0,-10,0,1,0,0,1,14,174,35,1,,,,,,,,
,,,,,,,,,,,,,FF,,,,,,,,0.6173,,,,,,,,,,,,,,,,,,,,,,610224c7e331699763a12488,61036fd096d9e68b6a69df2d,2021-07-29_23h20.53.575,Simcolourproject_2stim_asymm_v5,2020.2.10,Win32,60,61025ae37ef11b136ea224fe,,,,,,,,,2319,30,76,1,0,0,response1disk,,7,-3,-3,1,0,0,rectangle,-3,-3,1,0,0,-3,-3,1,0,0,1,15,175,36,1,,,,,,,,
,,,,,,,,,,,,,FF,,,,,,,,0.5639,,,,,,,,,,,,,,,,,,,,,,610224c7e331699763a12488,61036fd096d9e68b6a69df2d,2021-07-29_23h20.53.575,Simcolourproject_2stim_asymm_v5,2020.2.10,Win32,60,61025ae37ef11b136ea224fe,,,,,,,,,3964,45,88,1,0,0,response1disk,,7,1,3,1,0,0,rectangle,1,3,1,0,0,1,3,1,0,0,1,16,176,46,1,,,,,,,,
,,,,,,,,,,,,,FF,,,,,,,,1.3957,,,,,,,,,,,,,,,,,,,,,,610224c7e331699763a12488,61036fd096d9e68b6a69df2d,2021-07-29_23h20.53.575,Simcolourproject_2stim_asymm_v5,2020.2.10,Win32,60,61025ae37ef11b136ea224fe,,,,,,,,,3147,-30,-99,1,0,0,response5disk,,3,2,-2,1,0,0,rectangle,2,-2,1,0,0,2,-2,1,0,0,1,17,177,142,1,,,,,,,,
,,,,,,,,,,,,,FF,,,,,,,,0.6333,,,,,,,,,,,,,,,,,,,,,,610224c7e331699763a12488,61036fd096d9e68b6a69df2d,2021-07-29_23h20.53.575,Simcolourproject_2stim_asymm_v5,2020.2.10,Win32,60,61025ae37ef11b136ea224fe,,,,,,,,,863,40,71,1,0,0,response1disk,,7,13,-7,1,0,0,rectangle,13,-7,1,0,0,13,-7,1,0,0,1,18,178,108,1,,,,,,,,
,,,,,,,,,,,,,FF,,,,,,,,1.8032,,,,,,,,,,,,,,,,,,,,,,610224c7e331699763a12488,61036fd096d9e68b6a69df2d,2021-07-29_23h20.53.575,Simcolourproject_2stim_asymm_v5,2020.2.10,Win32,60,61025ae37ef11b136ea224fe,,,,,,,,,625,92,25,1,0,0,response1disk,,6,-6,-2,1,0,0,rectangle,-6,-2,1,0,0,-6,-2,1,0,0,1,19,179,133,1,,,,,,,,
,,,,,,,,,,,,,FF,,,,,,,,0.5981,,,,,,,,,,,,,,,,,,,,,,610224c7e331699763a12488,61036fd096d9e68b6a69df2d,2021-07-29_23h20.53.575,Simcolourproject_2stim_asymm_v5,2020.2.10,Win32,60,61025ae37ef11b136ea224fe,,,,,,,,,2859,26,65,1,0,0,response1disk,,7,-6,-10,1,0,0,rectangle,-6,-10,1,0,0,-6,-10,1,0,0,1,20,180,49,1,,,,,,,,
,,,,,,,,,,,,,FF,,,,,,,,0.618,,,,,,,,,,,,,,,,,,,,,,610224c7e331699763a12488,61036fd096d9e68b6a69df2d,2021-07-29_23h20.53.575,Simcolourproject_2stim_asymm_v5,2020.2.10,Win32,60,61025ae37ef11b136ea224fe,,,,,,,,,1587,26,87,1,0,0,response1disk,,7,9,2,1,0,0,rectangle,9,2,1,0,0,9,2,1,0,0,1,21,181,0,1,,,,,,,,
,,,,,,,,,,,,,FF,,,,,,,,0.5478,,,,,,,,,,,,,,,,,,,,,,610224c7e331699763a12488,61036fd096d9e68b6a69df2d,2021-07-29_23h20.53.575,Simcolourproject_2stim_asymm_v5,2020.2.10,Win32,60,61025ae37ef11b136ea224fe,,,,,,,,,2451,36,71,1,0,0,response1disk,,7,6,-3,1,0,0,rectangle,6,-3,1,0,0,6,-3,1,0,0,1,22,182,8,1,,,,,,,,
,,,,,,,,,,,,,FF,,,,,,,,0.7019,,,,,,,,,,,,,,,,,,,,,,610224c7e331699763a12488,61036fd096d9e68b6a69df2d,2021-07-29_23h20.53.575,Simcolourproject_2stim_asymm_v5,2020.2.10,Win32,60,61025ae37ef11b136ea224fe,,,,,,,,,3454,44,66,1,0,0,response1disk,,7,14,-3,1,0,0,rectangle,14,-3,1,0,0,14,-3,1,0,0,1,23,183,33,1,,,,,,,,
,,,,,,,,,,,,,FF,,,,,,,,0.5216,,,,,,,,,,,,,,,,,,,,,,610224c7e331699763a12488,61036fd096d9e68b6a69df2d,2021-07-29_23h20.53.575,Simcolourproject_2stim_asymm_v5,2020.2.10,Win32,60,61025ae37ef11b136ea224fe,,,,,,,,,1730,49,69,1,0,0,response1disk,,7,12,1,1,0,0,rectangle,12,1,1,0,0,12,1,1,0,0,1,24,184,18,1,,,,,,,,
,,,,,,,,,,,,,FF,,,,,,,,0.5233,,,,,,,,,,,,,,,,,,,,,,610224c7e331699763a12488,61036fd096d9e68b6a69df2d,2021-07-29_23h20.53.575,Simcolourproject_2stim_asymm_v5,2020.2.10,Win32,60,61025ae37ef11b136ea224fe,,,,,,,,,3074,33,74,1,0,0,response1disk,,7,7,-2,1,0,0,rectangle,7,-2,1,0,0,7,-2,1,0,0,1,25,185,119,1,,,,,,,,
,,,,,,,,,,,,,FF,,,,,,,,0.6489,,,,,,,,,,,,,,,,,,,,,,610224c7e331699763a12488,61036fd096d9e68b6a69df2d,2021-07-29_23h20.53.575,Simcolourproject_2stim_asymm_v5,2020.2.10,Win32,60,61025ae37ef11b136ea224fe,,,,,,,,,4106,43,29,1,0,0,response1disk,,6,6,-15,1,0,0,rectangle,6,-15,1,0,0,6,-15,1,0,0,1,26,186,143,1,,,,,,,,
,,,,,,,,,,,,,FF,,,,,,,,0.6979,,,,,,,,,,,,,,,,,,,,,,610224c7e331699763a12488,61036fd096d9e68b6a69df2d,2021-07-29_23h20.53.575,Simcolourproject_2stim_asymm_v5,2020.2.10,Win32,60,61025ae37ef11b136ea224fe,,,,,,,,,1223,71,26,1,0,0,response1disk,,6,24,-1,1,0,0,rectangle,24,-1,1,0,0,24,-1,1,0,0,1,27,187,34,1,,,,,,,,
,,,,,,,,,,,,,FF,,,,,,,,0.5199,,,,,,,,,,,,,,,,,,,,,,610224c7e331699763a12488,61036fd096d9e68b6a69df2d,2021-07-29_23h20.53.575,Simcolourproject_2stim_asymm_v5,2020.2.10,Win32,60,61025ae37ef11b136ea224fe,,,,,,,,,1697,40,62,1,0,0,response1disk,,7,-2,2,1,0,0,rectangle,-2,2,1,0,0,-2,2,1,0,0,1,28,188,146,1,,,,,,,,
,,,,,,,,,,,,,FF,,,,,,,,1.4849,,,,,,,,,,,,,,,,,,,,,,610224c7e331699763a12488,61036fd096d9e68b6a69df2d,2021-07-29_23h20.53.575,Simcolourproject_2stim_asymm_v5,2020.2.10,Win32,60,61025ae37ef11b136ea224fe,,,,,,,,,3090,74,31,1,0,0,response1disk,,6,7,-2,1,0,0,rectangle,7,-2,1,0,0,7,-2,1,0,0,1,29,189,101,1,,,,,,,,
,,,,,,,,,,,,,FF,,,,,,,,0.7131,,,,,,,,,,,,,,,,,,,,,,610224c7e331699763a12488,61036fd096d9e68b6a69df2d,2021-07-29_23h20.53.575,Simcolourproject_2stim_asymm_v5,2020.2.10,Win32,60,61025ae37ef11b136ea224fe,,,,,,,,,3953,38,90,1,0,0,response1disk,,7,4,10,1,0,0,rectangle,4,10,1,0,0,4,10,1,0,0,1,30,190,95,1,,,,,,,,
,,,,,,,,,,,,,FF,,,,,,,,0.5697,,,,,,,,,,,,,,,,,,,,,,610224c7e331699763a12488,61036fd096d9e68b6a69df2d,2021-07-29_23h20.53.575,Simcolourproject_2stim_asymm_v5,2020.2.10,Win32,60,61025ae37ef11b136ea224fe,,,,,,,,,154,36,80,1,0,0,response1disk,,7,5,6,1,0,0,rectangle,5,6,1,0,0,5,6,1,0,0,1,31,191,132,1,,,,,,,,
,,,,,,,,,,,,,FF,,,,,,,,0.5321,,,,,,,,,,,,,,,,,,,,,,610224c7e331699763a12488,61036fd096d9e68b6a69df2d,2021-07-29_23h20.53.575,Simcolourproject_2stim_asymm_v5,2020.2.10,Win32,60,61025ae37ef11b136ea224fe,,,,,,,,,3890,33,63,1,0,0,response1disk,,7,9,7,1,0,0,rectangle,9,7,1,0,0,9,7,1,0,0,1,32,192,39,1,,,,,,,,
,,,,,,,,,,,,,FF,,,,,,,,0.6047,,,,,,,,,,,,,,,,,,,,,,610224c7e331699763a12488,61036fd096d9e68b6a69df2d,2021-07-29_23h20.53.575,Simcolourproject_2stim_asymm_v5,2020.2.10,Win32,60,61025ae37ef11b136ea224fe,,,,,,,,,3004,47,89,1,0,0,response1disk,,7,-2,1,1,0,0,rectangle,-2,1,1,0,0,-2,1,1,0,0,1,33,193,74,1,,,,,,,,
,,,,,,,,,,,,,FF,,,,,,,,0.5495,,,,,,,,,,,,,,,,,,,,,,610224c7e331699763a12488,61036fd096d9e68b6a69df2d,2021-07-29_23h20.53.575,Simcolourproject_2stim_asymm_v5,2020.2.10,Win32,60,61025ae37ef11b136ea224fe,,,,,,,,,2696,40,86,1,0,0,response1disk,,7,8,-9,1,0,0,rectangle,8,-9,1,0,0,8,-9,1,0,0,1,34,194,114,1,,,,,,,,
,,,,,,,,,,,,,FF,,,,,,,,0.7165,,,,,,,,,,,,,,,,,,,,,,610224c7e331699763a12488,61036fd096d9e68b6a69df2d,2021-07-29_23h20.53.575,Simcolourproject_2stim_asymm_v5,2020.2.10,Win32,60,61025ae37ef11b136ea224fe,,,,,,,,,2307,49,100,1,0,0,response1disk,,7,-6,7,1,0,0,rectangle,-6,7,1,0,0,-6,7,1,0,0,1,35,195,105,1,,,,,,,,
,,,,,,,,,,,,,FF,,,,,,,,1.3821,,,,,,,,,,,,,,,,,,,,,,610224c7e331699763a12488,61036fd096d9e68b6a69df2d,2021-07-29_23h20.53.575,Simcolourproject_2stim_asymm_v5,2020.2.10,Win32,60,61025ae37ef11b136ea224fe,,,,,,,,,80,59,82,1,0,0,response1disk,,7,9,-4,1,0,0,rectangle,9,-4,1,0,0,9,-4,1,0,0,1,36,196,9,1,,,,,,,,
,,,,,,,,,,,,,FF,,,,,,,,0.517,,,,,,,,,,,,,,,,,,,,,,610224c7e331699763a12488,61036fd096d9e68b6a69df2d,2021-07-29_23h20.53.575,Simcolourproject_2stim_asymm_v5,2020.2.10,Win32,60,61025ae37ef11b136ea224fe,,,,,,,,,2852,45,91,1,0,0,response1disk,,7,8,-4,1,0,0,rectangle,8,-4,1,0,0,8,-4,1,0,0,1,37,197,148,1,,,,,,,,
,,,,,,,,,,,,,FF,,,,,,,,0.5664,,,,,,,,,,,,,,,,,,,,,,610224c7e331699763a12488,61036fd096d9e68b6a69df2d,2021-07-29_23h20.53.575,Simcolourproject_2stim_asymm_v5,2020.2.10,Win32,60,61025ae37ef11b136ea224fe,,,,,,,,,2861,74,118,1,0,0,response1disk,,7,20,-7,1,0,0,rectangle,20,-7,1,0,0,20,-7,1,0,0,1,38,198,94,1,,,,,,,,
,,,,,,,,,,,,,FF,,,,,,,,0.8826,,,,,,,,,,,,,,,,,,,,,,610224c7e331699763a12488,61036fd096d9e68b6a69df2d,2021-07-29_23h20.53.575,Simcolourproject_2stim_asymm_v5,2020.2.10,Win32,60,61025ae37ef11b136ea224fe,,,,,,,,,4354,66,-51,1,0,0,response3disk,,5,3,3,1,0,0,rectangle,3,3,1,0,0,3,3,1,0,0,1,39,199,21,1,,,,,,,,
,,,,,,,,,,,,,FF,,,,,,,,0.5814,,,,,,,,,,,,,,,,,,,,,,610224c7e331699763a12488,61036fd096d9e68b6a69df2d,2021-07-29_23h20.53.575,Simcolourproject_2stim_asymm_v5,2020.2.10,Win32,60,61025ae37ef11b136ea224fe,,,,,,,,,2762,32,82,1,0,0,response1disk,,7,8,-5,1,0,0,rectangle,8,-5,1,0,0,8,-5,1,0,0,1,40,200,134,1,,,,,,,,
,,,,,,,,,,,,,FF,,,,,,,,0.5337,,,,,,,,,,,,,,,,,,,,,,610224c7e331699763a12488,61036fd096d9e68b6a69df2d,2021-07-29_23h20.53.575,Simcolourproject_2stim_asymm_v5,2020.2.10,Win32,60,61025ae37ef11b136ea224fe,,,,,,,,,1184,47,94,1,0,0,response1disk,,7,13,-8,1,0,0,rectangle,13,-8,1,0,0,13,-8,1,0,0,1,41,201,72,1,,,,,,,,
,,,,,,,,,,,,,FF,,,,,,,,0.483,,,,,,,,,,,,,,,,,,,,,,610224c7e331699763a12488,61036fd096d9e68b6a69df2d,2021-07-29_23h20.53.575,Simcolourproject_2stim_asymm_v5,2020.2.10,Win32,60,61025ae37ef11b136ea224fe,,,,,,,,,2794,39,76,1,0,0,response1disk,,7,8,3,1,0,0,rectangle,8,3,1,0,0,8,3,1,0,0,1,42,202,31,1,,,,,,,,
,,,,,,,,,,,,,FF,,,,,,,,0.4826,,,,,,,,,,,,,,,,,,,,,,610224c7e331699763a12488,61036fd096d9e68b6a69df2d,2021-07-29_23h20.53.575,Simcolourproject_2stim_asymm_v5,2020.2.10,Win32,60,61025ae37ef11b136ea224fe,,,,,,,,,4169,25,49,1,0,0,response1disk,,7,5,6,1,0,0,rectangle,5,6,1,0,0,5,6,1,0,0,1,43,203,139,1,,,,,,,,
,,,,,,,,,,,,,FF,,,,,,,,1.2837,,,,,,,,,,,,,,,,,,,,,,610224c7e331699763a12488,61036fd096d9e68b6a69df2d,2021-07-29_23h20.53.575,Simcolourproject_2stim_asymm_v5,2020.2.10,Win32,60,61025ae37ef11b136ea224fe,,,,,,,,,2475,50,95,1,0,0,response1disk,,7,-6,-6,1,0,0,rectangle,-6,-6,1,0,0,-6,-6,1,0,0,1,44,204,150,1,,,,,,,,
,,,,,,,,,,,,,FF,,,,,,,,0.5832,,,,,,,,,,,,,,,,,,,,,,610224c7e331699763a12488,61036fd096d9e68b6a69df2d,2021-07-29_23h20.53.575,Simcolourproject_2stim_asymm_v5,2020.2.10,Win32,60,61025ae37ef11b136ea224fe,,,,,,,,,1929,25,76,1,0,0,response1disk,,7,6,8,1,0,0,rectangle,6,8,1,0,0,6,8,1,0,0,1,45,205,152,1,,,,,,,,
,,,,,,,,,,,,,FF,,,,,,,,0.5803,,,,,,,,,,,,,,,,,,,,,,610224c7e331699763a12488,61036fd096d9e68b6a69df2d,2021-07-29_23h20.53.575,Simcolourproject_2stim_asymm_v5,2020.2.10,Win32,60,61025ae37ef11b136ea224fe,,,,,,,,,498,45,75,1,0,0,response1disk,,7,12,10,1,0,0,rectangle,12,10,1,0,0,12,10,1,0,0,1,46,206,153,1,,,,,,,,
,,,,,,,,,,,,,FF,,,,,,,,0.5331,,,,,,,,,,,,,,,,,,,,,,610224c7e331699763a12488,61036fd096d9e68b6a69df2d,2021-07-29_23h20.53.575,Simcolourproject_2stim_asymm_v5,2020.2.10,Win32,60,61025ae37ef11b136ea224fe,,,,,,,,,2430,33,67,1,0,0,response1disk,,7,10,1,1,0,0,rectangle,10,1,1,0,0,10,1,1,0,0,1,47,207,38,1,,,,,,,,
,,,,,,,,,,,,,FF,,,,,,,,0.5154,,,,,,,,,,,,,,,,,,,,,,610224c7e331699763a12488,61036fd096d9e68b6a69df2d,2021-07-29_23h20.53.575,Simcolourproject_2stim_asymm_v5,2020.2.10,Win32,60,61025ae37ef11b136ea224fe,,,,,,,,,1073,27,65,1,0,0,response1disk,,7,-10,-4,1,0,0,rectangle,-10,-4,1,0,0,-10,-4,1,0,0,1,48,208,93,1,,,,,,,,
,,,,,,,,,,,,,FF,,,,,,,,1.6827,,,,,,,,,,,,,,,,,,,,,,610224c7e331699763a12488,61036fd096d9e68b6a69df2d,2021-07-29_23h20.53.575,Simcolourproject_2stim_asymm_v5,2020.2.10,Win32,60,61025ae37ef11b136ea224fe,,,,,,,,,887,-23,68,1,0,0,response7disk,,0,4,4,1,0,0,rectangle,4,4,1,0,0,4,4,1,0,0,1,49,209,147,1,,,,,,,,
,,,,,,,,,,,,,FF,,,,,,,,0.567,,,,,,,,,,,,,,,,,,,,,,610224c7e331699763a12488,61036fd096d9e68b6a69df2d,2021-07-29_23h20.53.575,Simcolourproject_2stim_asymm_v5,2020.2.10,Win32,60,61025ae37ef11b136ea224fe,,,,,,,,,2966,48,96,1,0,0,response1disk,,7,16,-7,1,0,0,rectangle,16,-7,1,0,0,16,-7,1,0,0,1,50,210,135,1,,,,,,,,
,,,,,,,,,,,,,FF,,,,,,,,0.5502,,,,,,,,,,,,,,,,,,,,,,610224c7e331699763a12488,61036fd096d9e68b6a69df2d,2021-07-29_23h20.53.575,Simcolourproject_2stim_asymm_v5,2020.2.10,Win32,60,61025ae37ef11b136ea224fe,,,,,,,,,224,36,90,1,0,0,response1disk,,7,14,3,1,0,0,rectangle,14,3,1,0,0,14,3,1,0,0,1,51,211,92,1,,,,,,,,
,,,,,,,,,,,,,FF,,,,,,,,0.4,,,,,,,,,,,,,,,,,,,,,,610224c7e331699763a12488,61036fd096d9e68b6a69df2d,2021-07-29_23h20.53.575,Simcolourproject_2stim_asymm_v5,2020.2.10,Win32,60,61025ae37ef11b136ea224fe,,,,,,,,,320,39,85,1,0,0,response1disk,,7,9,3,1,0,0,rectangle,-71,34,1,0,0,-9,0,1,0,0,1,52,212,122,1,,response7disk_3,TRUE,1,1,"[14,267,309,252,223,313,150,266,49,302,269,251,154,165,275,32,110,142,213,255]",1.5504,rectangle
,,,,,,,,,,,,,FF,,,,,,,,0.9657,,,,,,,,,,,,,,,,,,,,,,610224c7e331699763a12488,61036fd096d9e68b6a69df2d,2021-07-29_23h20.53.575,Simcolourproject_2stim_asymm_v5,2020.2.10,Win32,60,61025ae37ef11b136ea224fe,,,,,,,,,3540,43,81,1,0,0,response1disk,,7,10,5,1,0,0,rectangle,10,5,1,0,0,10,5,1,0,0,1,53,213,120,1,,,,,,,,
,,,,,,,,,,,,,FF,,,,,,,,0.567,,,,,,,,,,,,,,,,,,,,,,610224c7e331699763a12488,61036fd096d9e68b6a69df2d,2021-07-29_23h20.53.575,Simcolourproject_2stim_asymm_v5,2020.2.10,Win32,60,61025ae37ef11b136ea224fe,,,,,,,,,2383,37,75,1,0,0,response1disk,,7,13,-8,1,0,0,rectangle,13,-8,1,0,0,13,-8,1,0,0,1,54,214,15,1,,,,,,,,
,,,,,,,,,,,,,FF,,,,,,,,0.4165,,,,,,,,,,,,,,,,,,,,,,610224c7e331699763a12488,61036fd096d9e68b6a69df2d,2021-07-29_23h20.53.575,Simcolourproject_2stim_asymm_v5,2020.2.10,Win32,60,61025ae37ef11b136ea224fe,,,,,,,,,925,34,78,1,0,0,response1disk,,7,4,12,1,0,0,rectangle,4,12,1,0,0,4,12,1,0,0,1,55,215,126,1,,,,,,,,
,,,,,,,,,,,,,FF,,,,,,,,0.4494,,,,,,,,,,,,,,,,,,,,,,610224c7e331699763a12488,61036fd096d9e68b6a69df2d,2021-07-29_23h20.53.575,Simcolourproject_2stim_asymm_v5,2020.2.10,Win32,60,61025ae37ef11b136ea224fe,,,,,,,,,3239,22,69,1,0,0,response1disk,,7,-3,-3,1,0,0,rectangle,-3,-3,1,0,0,-3,-3,1,0,0,1,56,216,123,1,,,,,,,,
,,,,,,,,,,,,,FF,,,,,,,,0.4836,,,,,,,,,,,,,,,,,,,,,,610224c7e331699763a12488,61036fd096d9e68b6a69df2d,2021-07-29_23h20.53.575,Simcolourproject_2stim_asymm_v5,2020.2.10,Win32,60,61025ae37ef11b136ea224fe,,,,,,,,,2223,27,83,1,0,0,response1disk,,7,-8,-11,1,0,0,rectangle,-8,-11,1,0,0,-8,-11,1,0,0,1,57,217,64,1,,,,,,,,
,,,,,,,,,,,,,FF,,,,,,,,0.4822,,,,,,,,,,,,,,,,,,,,,,610224c7e331699763a12488,61036fd096d9e68b6a69df2d,2021-07-29_23h20.53.575,Simcolourproject_2stim_asymm_v5,2020.2.10,Win32,60,61025ae37ef11b136ea224fe,,,,,,,,,2490,22,71,1,0,0,response1disk,,7,7,-7,1,0,0,rectangle,7,-7,1,0,0,7,-7,1,0,0,1,58,218,25,1,,,,,,,,
,,,,,,,,,,,,,FF,,,,,,,,0.5164,,,,,,,,,,,,,,,,,,,,,,610224c7e331699763a12488,61036fd096d9e68b6a69df2d,2021-07-29_23h20.53.575,Simcolourproject_2stim_asymm_v5,2020.2.10,Win32,60,61025ae37ef11b136ea224fe,,,,,,,,,687,28,77,1,0,0,response1disk,,7,14,0,1,0,0,rectangle,14,0,1,0,0,14,0,1,0,0,1,59,219,91,1,,,,,,,,
,,,,,,,,,,,,,FF,,,,,,,,0.5327,,,,,,,,,,,,,,,,,,,,,,610224c7e331699763a12488,61036fd096d9e68b6a69df2d,2021-07-29_23h20.53.575,Simcolourproject_2stim_asymm_v5,2020.2.10,Win32,60,61025ae37ef11b136ea224fe,,,,,,,,,2271,37,63,1,0,0,response1disk,,7,8,-8,1,0,0,rectangle,8,-8,1,0,0,8,-8,1,0,0,1,60,220,157,1,,,,,,,,
,,,,,,,,,,,,,FF,,,,,,,,0.4672,,,,,,,,,,,,,,,,,,,,,,610224c7e331699763a12488,61036fd096d9e68b6a69df2d,2021-07-29_23h20.53.575,Simcolourproject_2stim_asymm_v5,2020.2.10,Win32,60,61025ae37ef11b136ea224fe,,,,,,,,,449,28,61,1,0,0,response1disk,,7,7,-11,1,0,0,rectangle,7,-11,1,0,0,7,-11,1,0,0,1,61,221,136,1,,,,,,,,
,,,,,,,,,,,,,FF,,,,,,,,0.499,,,,,,,,,,,,,,,,,,,,,,610224c7e331699763a12488,61036fd096d9e68b6a69df2d,2021-07-29_23h20.53.575,Simcolourproject_2stim_asymm_v5,2020.2.10,Win32,60,61025ae37ef11b136ea224fe,,,,,,,,,3177,34,69,1,0,0,response1disk,,7,7,-3,1,0,0,rectangle,-83,35,1,0,0,8,-15,1,0,0,1,62,222,48,1,,response7disk_3,TRUE,1,1,"[14,267,309,252,223,313,150,266,49,302,269,251,154,165,275,32,110,142,213,255]",1.3976,rectangle
,,,,,,,,,,,,,FF,,,,,,,,0.6161,,,,,,,,,,,,,,,,,,,,,,610224c7e331699763a12488,61036fd096d9e68b6a69df2d,2021-07-29_23h20.53.575,Simcolourproject_2stim_asymm_v5,2020.2.10,Win32,60,61025ae37ef11b136ea224fe,,,,,,,,,2505,24,73,1,0,0,response1disk,,7,11,9,1,0,0,rectangle,11,9,1,0,0,11,9,1,0,0,1,63,223,27,1,,,,,,,,
,,,,,,,,,,,,,FF,,,,,,,,1.6328,,,,,,,,,,,,,,,,,,,,,,610224c7e331699763a12488,61036fd096d9e68b6a69df2d,2021-07-29_23h20.53.575,Simcolourproject_2stim_asymm_v5,2020.2.10,Win32,60,61025ae37ef11b136ea224fe,,,,,,,,,4201,-36,-106,1,0,0,response5disk,,3,4,4,1,0,0,rectangle,4,4,1,0,0,4,4,1,0,0,1,64,224,156,1,,,,,,,,
,,,,,,,,,,,,,FF,,,,,,,,1.3821,,,,,,,,,,,,,,,,,,,,,,610224c7e331699763a12488,61036fd096d9e68b6a69df2d,2021-07-29_23h20.53.575,Simcolourproject_2stim_asymm_v5,2020.2.10,Win32,60,61025ae37ef11b136ea224fe,,,,,,,,,1811,86,-35,1,0,0,response3disk,,5,23,-8,1,0,0,rectangle,23,-8,1,0,0,23,-8,1,0,0,1,65,225,88,1,,,,,,,,
,,,,,,,,,,,,,FF,,,,,,,,0.9667,,,,,,,,,,,,,,,,,,,,,,610224c7e331699763a12488,61036fd096d9e68b6a69df2d,2021-07-29_23h20.53.575,Simcolourproject_2stim_asymm_v5,2020.2.10,Win32,60,61025ae37ef11b136ea224fe,,,,,,,,,1133,78,-36,1,0,0,response3disk,,5,20,-6,1,0,0,rectangle,20,-6,1,0,0,20,-6,1,0,0,1,66,226,61,1,,,,,,,,
,,,,,,,,,,,,,FF,,,,,,,,0.6522,,,,,,,,,,,,,,,,,,,,,,610224c7e331699763a12488,61036fd096d9e68b6a69df2d,2021-07-29_23h20.53.575,Simcolourproject_2stim_asymm_v5,2020.2.10,Win32,60,61025ae37ef11b136ea224fe,,,,,,,,,2115,19,73,1,0,0,response1disk,,7,17,8,1,0,0,rectangle,17,8,1,0,0,17,8,1,0,0,1,67,227,115,1,,,,,,,,
,,,,,,,,,,,,,FF,,,,,,,,2.0834,,,,,,,,,,,,,,,,,,,,,,610224c7e331699763a12488,61036fd096d9e68b6a69df2d,2021-07-29_23h20.53.575,Simcolourproject_2stim_asymm_v5,2020.2.10,Win32,60,61025ae37ef11b136ea224fe,,,,,,,,,1203,69,-43,1,0,0,response3disk,,5,9,-10,1,0,0,rectangle,9,-10,1,0,0,9,-10,1,0,0,1,68,228,110,1,,,,,,,,
,,,,,,,,,,,,,FF,,,,,,,,0.5648,,,,,,,,,,,,,,,,,,,,,,610224c7e331699763a12488,61036fd096d9e68b6a69df2d,2021-07-29_23h20.53.575,Simcolourproject_2stim_asymm_v5,2020.2.10,Win32,60,61025ae37ef11b136ea224fe,,,,,,,,,2697,24,74,1,0,0,response1disk,,7,14,0,1,0,0,rectangle,14,0,1,0,0,14,0,1,0,0,1,69,229,76,1,,,,,,,,
,,,,,,,,,,,,,FF,,,,,,,,1.1332,,,,,,,,,,,,,,,,,,,,,,610224c7e331699763a12488,61036fd096d9e68b6a69df2d,2021-07-29_23h20.53.575,Simcolourproject_2stim_asymm_v5,2020.2.10,Win32,60,61025ae37ef11b136ea224fe,,,,,,,,,1509,31,82,1,0,0,response1disk,,7,3,-5,1,0,0,rectangle,3,-5,1,0,0,3,-5,1,0,0,1,70,230,96,1,,,,,,,,
,,,,,,,,,,,,,FF,,,,,,,,0.3992,,,,,,,,,,,,,,,,,,,,,,610224c7e331699763a12488,61036fd096d9e68b6a69df2d,2021-07-29_23h20.53.575,Simcolourproject_2stim_asymm_v5,2020.2.10,Win32,60,61025ae37ef11b136ea224fe,,,,,,,,,1474,44,68,1,0,0,response1disk,,7,-2,7,1,0,0,rectangle,-2,7,1,0,0,-2,7,1,0,0,1,71,231,124,1,,,,,,,,
,,,,,,,,,,,,,FF,,,,,,,,0.7006,,,,,,,,,,,,,,,,,,,,,,610224c7e331699763a12488,61036fd096d9e68b6a69df2d,2021-07-29_23h20.53.575,Simcolourproject_2stim_asymm_v5,2020.2.10,Win32,60,61025ae37ef11b136ea224fe,,,,,,,,,2827,63,44,1,0,0,response1disk,,6,-12,0,1,0,0,rectangle,-12,0,1,0,0,-12,0,1,0,0,1,72,232,28,1,,,,,,,,
,,,,,,,,,,,,,FF,,,,,,,,1.1153,,,,,,,,,,,,,,,,,,,,,,610224c7e331699763a12488,61036fd096d9e68b6a69df2d,2021-07-29_23h20.53.575,Simcolourproject_2stim_asymm_v5,2020.2.10,Win32,60,61025ae37ef11b136ea224fe,,,,,,,,,900,84,31,1,0,0,response1disk,,6,21,-3,1,0,0,rectangle,21,-3,1,0,0,21,-3,1,0,0,1,73,233,56,1,,,,,,,,
,,,,,,,,,,,,,FF,,,,,,,,0.4485,,,,,,,,,,,,,,,,,,,,,,610224c7e331699763a12488,61036fd096d9e68b6a69df2d,2021-07-29_23h20.53.575,Simcolourproject_2stim_asymm_v5,2020.2.10,Win32,60,61025ae37ef11b136ea224fe,,,,,,,,,1583,40,58,1,0,0,response1disk,,7,17,1,1,0,0,rectangle,17,1,1,0,0,17,1,1,0,0,1,74,234,106,1,,,,,,,,
,,,,,,,,,,,,,FF,,,,,,,,0.45,,,,,,,,,,,,,,,,,,,,,,610224c7e331699763a12488,61036fd096d9e68b6a69df2d,2021-07-29_23h20.53.575,Simcolourproject_2stim_asymm_v5,2020.2.10,Win32,60,61025ae37ef11b136ea224fe,,,,,,,,,138,58,76,1,0,0,response1disk,,7,27,-1,1,0,0,rectangle,27,-1,1,0,0,27,-1,1,0,0,1,75,235,10,1,,,,,,,,
,,,,,,,,,,,,,FF,,,,,,,,0.4346,,,,,,,,,,,,,,,,,,,,,,610224c7e331699763a12488,61036fd096d9e68b6a69df2d,2021-07-29_23h20.53.575,Simcolourproject_2stim_asymm_v5,2020.2.10,Win32,60,61025ae37ef11b136ea224fe,,,,,,,,,1471,48,75,1,0,0,response1disk,,7,16,-8,1,0,0,rectangle,16,-8,1,0,0,16,-8,1,0,0,1,76,236,4,1,,,,,,,,
,,,,,,,,,,,,,FF,,,,,,,,0.6659,,,,,,,,,,,,,,,,,,,,,,610224c7e331699763a12488,61036fd096d9e68b6a69df2d,2021-07-29_23h20.53.575,Simcolourproject_2stim_asymm_v5,2020.2.10,Win32,60,61025ae37ef11b136ea224fe,,,,,,,,,2621,38,85,1,0,0,response1disk,,7,-6,6,1,0,0,rectangle,-6,6,1,0,0,-6,6,1,0,0,1,77,237,50,1,,,,,,,,
,,,,,,,,,,,,,FF,,,,,,,,0.4997,,,,,,,,,,,,,,,,,,,,,,610224c7e331699763a12488,61036fd096d9e68b6a69df2d,2021-07-29_23h20.53.575,Simcolourproject_2stim_asymm_v5,2020.2.10,Win32,60,61025ae37ef11b136ea224fe,,,,,,,,,3022,35,91,1,0,0,response1disk,,7,-2,-8,1,0,0,rectangle,-2,-8,1,0,0,-2,-8,1,0,0,1,78,238,99,1,,,,,,,,
,,,,,,,,,,,,,FF,,,,,,,,1.2997,,,,,,,,,,,,,,,,,,,,,,610224c7e331699763a12488,61036fd096d9e68b6a69df2d,2021-07-29_23h20.53.575,Simcolourproject_2stim_asymm_v5,2020.2.10,Win32,60,61025ae37ef11b136ea224fe,,,,,,,,,3512,-23,-100,1,0,0,response5disk,,3,8,5,1,0,0,rectangle,8,5,1,0,0,8,5,1,0,0,1,79,239,117,1,,,,,,,,
,,,,,,,,,,,,,FF,,,,,,,,0.683,,,,,,,,,,,,,,,,,,,,,,610224c7e331699763a12488,61036fd096d9e68b6a69df2d,2021-07-29_23h20.53.575,Simcolourproject_2stim_asymm_v5,2020.2.10,Win32,60,61025ae37ef11b136ea224fe,,,,,,,,,3290,-22,64,1,0,0,response7disk,,0,0,4,1,0,0,rectangle,0,4,1,0,0,0,4,1,0,0,1,80,240,97,1,,,,,,,,
,,,,,,,,,,,,,FF,,,,,,,,1.2668,,,,,,,,,,,,,,,,,,,,,,610224c7e331699763a12488,61036fd096d9e68b6a69df2d,2021-07-29_23h20.53.575,Simcolourproject_2stim_asymm_v5,2020.2.10,Win32,60,61025ae37ef11b136ea224fe,,,,,,,,,201,22,101,1,0,0,response1disk,,7,-10,-10,1,0,0,rectangle,-10,-10,1,0,0,-10,-10,1,0,0,1,81,241,116,1,,,,,,,,
,,,,,,,,,,,,,FF,,,,,,,,0.5507,,,,,,,,,,,,,,,,,,,,,,610224c7e331699763a12488,61036fd096d9e68b6a69df2d,2021-07-29_23h20.53.575,Simcolourproject_2stim_asymm_v5,2020.2.10,Win32,60,61025ae37ef11b136ea224fe,,,,,,,,,1007,43,83,1,0,0,response1disk,,7,3,-7,1,0,0,rectangle,3,-7,1,0,0,3,-7,1,0,0,1,82,242,87,1,,,,,,,,
,,,,,,,,,,,,,FF,,,,,,,,1.4333,,,,,,,,,,,,,,,,,,,,,,610224c7e331699763a12488,61036fd096d9e68b6a69df2d,2021-07-29_23h20.53.575,Simcolourproject_2stim_asymm_v5,2020.2.10,Win32,60,61025ae37ef11b136ea224fe,,,,,,,,,1460,-46,-85,1,0,0,response5disk,,3,2,-10,1,0,0,rectangle,2,-10,1,0,0,2,-10,1,0,0,1,83,243,55,1,,,,,,,,
,,,,,,,,,,,,,FF,,,,,,,,0.6655,,,,,,,,,,,,,,,,,,,,,,610224c7e331699763a12488,61036fd096d9e68b6a69df2d,2021-07-29_23h20.53.575,Simcolourproject_2stim_asymm_v5,2020.2.10,Win32,60,61025ae37ef11b136ea224fe,,,,,,,,,2625,34,86,1,0,0,response1disk,,7,5,2,1,0,0,rectangle,5,2,1,0,0,5,2,1,0,0,1,84,244,107,1,,,,,,,,
,,,,,,,,,,,,,FF,,,,,,,,1.1665,,,,,,,,,,,,,,,,,,,,,,610224c7e331699763a12488,61036fd096d9e68b6a69df2d,2021-07-29_23h20.53.575,Simcolourproject_2stim_asymm_v5,2020.2.10,Win32,60,61025ae37ef11b136ea224fe,,,,,,,,,1974,95,44,1,0,0,response1disk,,6,-13,3,1,0,0,rectangle,-13,3,1,0,0,-13,3,1,0,0,1,85,245,54,1,,,,,,,,
,,,,,,,,,,,,,FF,,,,,,,,0.9988,,,,,,,,,,,,,,,,,,,,,,610224c7e331699763a12488,61036fd096d9e68b6a69df2d,2021-07-29_23h20.53.575,Simcolourproject_2stim_asymm_v5,2020.2.10,Win32,60,61025ae37ef11b136ea224fe,,,,,,,,,3246,34,80,1,0,0,response1disk,,7,10,0,1,0,0,rectangle,10,0,1,0,0,10,0,1,0,0,1,86,246,40,1,,,,,,,,
,,,,,,,,,,,,,FF,,,,,,,,0.8175,,,,,,,,,,,,,,,,,,,,,,610224c7e331699763a12488,61036fd096d9e68b6a69df2d,2021-07-29_23h20.53.575,Simcolourproject_2stim_asymm_v5,2020.2.10,Win32,60,61025ae37ef11b136ea224fe,,,,,,,,,1233,96,40,1,0,0,response1disk,,6,-1,-2,1,0,0,rectangle,-1,-2,1,0,0,-1,-2,1,0,0,1,87,247,125,1,,,,,,,,
,,,,,,,,,,,,,FF,,,,,,,,0.7657,,,,,,,,,,,,,,,,,,,,,,610224c7e331699763a12488,61036fd096d9e68b6a69df2d,2021-07-29_23h20.53.575,Simcolourproject_2stim_asymm_v5,2020.2.10,Win32,60,61025ae37ef11b136ea224fe,,,,,,,,,2402,53,73,1,0,0,response1disk,,7,22,3,1,0,0,rectangle,22,3,1,0,0,22,3,1,0,0,1,88,248,131,1,,,,,,,,
,,,,,,,,,,,,,FF,,,,,,,,0.5001,,,,,,,,,,,,,,,,,,,,,,610224c7e331699763a12488,61036fd096d9e68b6a69df2d,2021-07-29_23h20.53.575,Simcolourproject_2stim_asymm_v5,2020.2.10,Win32,60,61025ae37ef11b136ea224fe,,,,,,,,,4002,34,61,1,0,0,response1disk,,7,5,2,1,0,0,rectangle,5,2,1,0,0,5,2,1,0,0,1,89,249,16,1,,,,,,,,
,,,,,,,,,,,,,FF,,,,,,,,0.8337,,,,,,,,,,,,,,,,,,,,,,610224c7e331699763a12488,61036fd096d9e68b6a69df2d,2021-07-29_23h20.53.575,Simcolourproject_2stim_asymm_v5,2020.2.10,Win32,60,61025ae37ef11b136ea224fe,,,,,,,,,2662,41,-74,1,0,0,response3disk,,4,7,1,1,0,0,rectangle,46,79,1,0,0,1,6,1,0,0,1,90,250,80,1,,response1disk_3,TRUE,7,7,"[14,267,309,252,223,313,150,266,49,302,269,251,154,165,275,32,110,142,213,255]",1.3167,rectangle
,,,,,,,,,,,,,FF,,,,,,,,2.103,,,,,,,,,,,,,,,,,,,,,,610224c7e331699763a12488,61036fd096d9e68b6a69df2d,2021-07-29_23h20.53.575,Simcolourproject_2stim_asymm_v5,2020.2.10,Win32,60,61025ae37ef11b136ea224fe,,,,,,,,,2834,81,-30,1,0,0,response3disk,,5,5,4,1,0,0,rectangle,-96,45,1,0,0,-8,-1,1,0,0,1,91,251,121,1,,response7disk_3,TRUE,1,1,"[14,267,309,252,223,313,150,266,49,302,269,251,154,165,275,32,110,142,213,255]",1.5332,rectangle
,,,,,,,,,,,,,FF,,,,,,,,2.9847,,,,,,,,,,,,,,,,,,,,,,610224c7e331699763a12488,61036fd096d9e68b6a69df2d,2021-07-29_23h20.53.575,Simcolourproject_2stim_asymm_v5,2020.2.10,Win32,60,61025ae37ef11b136ea224fe,,,,,,,,,3618,54,35,1,0,0,response1disk,,6,17,5,1,0,0,rectangle,17,5,1,0,0,17,5,1,0,0,1,92,252,66,1,,,,,,,,
,,,,,,,,,,,,,FF,,,,,,,,1.2521,,,,,,,,,,,,,,,,,,,,,,610224c7e331699763a12488,61036fd096d9e68b6a69df2d,2021-07-29_23h20.53.575,Simcolourproject_2stim_asymm_v5,2020.2.10,Win32,60,61025ae37ef11b136ea224fe,,,,,,,,,91,37,-82,1,0,0,response3disk,,4,13,0,1,0,0,rectangle,13,0,1,0,0,13,0,1,0,0,1,93,253,98,1,,,,,,,,
,,,,,,,,,,,,,FF,,,,,,,,0.5667,,,,,,,,,,,,,,,,,,,,,,610224c7e331699763a12488,61036fd096d9e68b6a69df2d,2021-07-29_23h20.53.575,Simcolourproject_2stim_asymm_v5,2020.2.10,Win32,60,61025ae37ef11b136ea224fe,,,,,,,,,2797,39,70,1,0,0,response1disk,,7,-12,-13,1,0,0,rectangle,-28,87,1,0,0,5,-7,1,0,0,1,94,254,1,1,,response7disk_3,TRUE,0,0,"[14,267,309,252,223,313,150,266,49,302,269,251,154,165,275,32,110,142,213,255]",2.1496,rectangle
,,,,,,,,,,,,,FF,,,,,,,,1.5517,,,,,,,,,,,,,,,,,,,,,,610224c7e331699763a12488,61036fd096d9e68b6a69df2d,2021-07-29_23h20.53.575,Simcolourproject_2stim_asymm_v5,2020.2.10,Win32,60,61025ae37ef11b136ea224fe,,,,,,,,,981,65,-24,1,0,0,response3disk,,5,15,-5,1,0,0,rectangle,15,-5,1,0,0,15,-5,1,0,0,1,95,255,69,1,,,,,,,,
,,,,,,,,,,,,,FF,,,,,,,,0.6326,,,,,,,,,,,,,,,,,,,,,,610224c7e331699763a12488,61036fd096d9e68b6a69df2d,2021-07-29_23h20.53.575,Simcolourproject_2stim_asymm_v5,2020.2.10,Win32,60,61025ae37ef11b136ea224fe,,,,,,,,,217,42,86,1,0,0,response1disk,,7,10,-1,1,0,0,rectangle,10,-1,1,0,0,10,-1,1,0,0,1,96,256,81,1,,,,,,,,
,,,,,,,,,,,,,FF,,,,,,,,0.7338,,,,,,,,,,,,,,,,,,,,,,610224c7e331699763a12488,61036fd096d9e68b6a69df2d,2021-07-29_23h20.53.575,Simcolourproject_2stim_asymm_v5,2020.2.10,Win32,60,61025ae37ef11b136ea224fe,,,,,,,,,2382,30,49,1,0,0,response1disk,,7,2,3,1,0,0,rectangle,2,3,1,0,0,2,3,1,0,0,1,97,257,82,1,,,,,,,,
,,,,,,,,,,,,,FF,,,,,,,,1.5323,,,,,,,,,,,,,,,,,,,,,,610224c7e331699763a12488,61036fd096d9e68b6a69df2d,2021-07-29_23h20.53.575,Simcolourproject_2stim_asymm_v5,2020.2.10,Win32,60,61025ae37ef11b136ea224fe,,,,,,,,,3408,41,116,1,0,0,response1disk,,7,1,3,1,0,0,rectangle,1,3,1,0,0,1,3,1,0,0,1,98,258,84,1,,,,,,,,
,,,,,,,,,,,,,FF,,,,,,,,0.4148,,,,,,,,,,,,,,,,,,,,,,610224c7e331699763a12488,61036fd096d9e68b6a69df2d,2021-07-29_23h20.53.575,Simcolourproject_2stim_asymm_v5,2020.2.10,Win32,60,61025ae37ef11b136ea224fe,,,,,,,,,3326,43,94,1,0,0,response1disk,,7,12,3,1,0,0,rectangle,12,3,1,0,0,12,3,1,0,0,1,99,259,85,1,,,,,,,,
,,,,,,,,,,,,,FF,,,,,,,,0.4328,,,,,,,,,,,,,,,,,,,,,,610224c7e331699763a12488,61036fd096d9e68b6a69df2d,2021-07-29_23h20.53.575,Simcolourproject_2stim_asymm_v5,2020.2.10,Win32,60,61025ae37ef11b136ea224fe,,,,,,,,,4060,48,74,1,0,0,response1disk,,7,18,3,1,0,0,rectangle,18,3,1,0,0,18,3,1,0,0,1,100,260,2,1,,,,,,,,
,,,,,,,,,,,,,FF,,,,,,,,0.3828,,,,,,,,,,,,,,,,,,,,,,610224c7e331699763a12488,61036fd096d9e68b6a69df2d,2021-07-29_23h20.53.575,Simcolourproject_2stim_asymm_v5,2020.2.10,Win32,60,61025ae37ef11b136ea224fe,,,,,,,,,2183,47,85,1,0,0,response1disk,,7,1,0,1,0,0,rectangle,1,0,1,0,0,1,0,1,0,0,1,101,261,12,1,,,,,,,,
,,,,,,,,,,,,,FF,,,,,,,,0.9672,,,,,,,,,,,,,,,,,,,,,,610224c7e331699763a12488,61036fd096d9e68b6a69df2d,2021-07-29_23h20.53.575,Simcolourproject_2stim_asymm_v5,2020.2.10,Win32,60,61025ae37ef11b136ea224fe,,,,,,,,,748,73,37,1,0,0,response1disk,,6,21,6,1,0,0,rectangle,21,6,1,0,0,21,6,1,0,0,1,102,262,22,1,,,,,,,,
,,,,,,,,,,,,,FF,,,,,,,,0.8497,,,,,,,,,,,,,,,,,,,,,,610224c7e331699763a12488,61036fd096d9e68b6a69df2d,2021-07-29_23h20.53.575,Simcolourproject_2stim_asymm_v5,2020.2.10,Win32,60,61025ae37ef11b136ea224fe,,,,,,,,,2886,-28,73,1,0,0,response7disk,,0,-9,-1,1,0,0,rectangle,-9,-1,1,0,0,-9,-1,1,0,0,1,103,263,14,1,,,,,,,,
,,,,,,,,,,,,,FF,,,,,,,,0.7328,,,,,,,,,,,,,,,,,,,,,,610224c7e331699763a12488,61036fd096d9e68b6a69df2d,2021-07-29_23h20.53.575,Simcolourproject_2stim_asymm_v5,2020.2.10,Win32,60,61025ae37ef11b136ea224fe,,,,,,,,,1431,34,105,1,0,0,response1disk,,7,-6,5,1,0,0,rectangle,-6,5,1,0,0,-6,5,1,0,0,1,104,264,20,1,,,,,,,,
,,,,,,,,,,,,,FF,,,,,,,,1.3343,,,,,,,,,,,,,,,,,,,,,,610224c7e331699763a12488,61036fd096d9e68b6a69df2d,2021-07-29_23h20.53.575,Simcolourproject_2stim_asymm_v5,2020.2.10,Win32,60,61025ae37ef11b136ea224fe,,,,,,,,,4346,-50,-66,1,0,0,response5disk,,3,-1,8,1,0,0,rectangle,-30,82,1,0,0,-18,-12,1,0,0,1,105,265,62,1,,response7disk_3,TRUE,0,0,"[14,267,309,252,223,313,150,266,49,302,269,251,154,165,275,32,110,142,213,255]",1.3841,rectangle
,,,,,,,,,,,,,FF,,,,,,,,0.8173,,,,,,,,,,,,,,,,,,,,,,610224c7e331699763a12488,61036fd096d9e68b6a69df2d,2021-07-29_23h20.53.575,Simcolourproject_2stim_asymm_v5,2020.2.10,Win32,60,61025ae37ef11b136ea224fe,,,,,,,,,4319,33,88,1,0,0,response1disk,,7,-5,-1,1,0,0,rectangle,-42,73,1,0,0,-19,-4,1,0,0,1,106,266,24,1,,response7disk_3,TRUE,0,0,"[14,267,309,252,223,313,150,266,49,302,269,251,154,165,275,32,110,142,213,255]",1.817,rectangle
,,,,,,,,,,,,,FF,,,,,,,,1.3508,,,,,,,,,,,,,,,,,,,,,,610224c7e331699763a12488,61036fd096d9e68b6a69df2d,2021-07-29_23h20.53.575,Simcolourproject_2stim_asymm_v5,2020.2.10,Win32,60,61025ae37ef11b136ea224fe,,,,,,,,,2516,30,102,1,0,0,response1disk,,7,11,8,1,0,0,rectangle,11,8,1,0,0,11,8,1,0,0,1,107,267,104,1,,,,,,,,
,,,,,,,,,,,,,FF,,,,,,,,0.5499,,,,,,,,,,,,,,,,,,,,,,610224c7e331699763a12488,61036fd096d9e68b6a69df2d,2021-07-29_23h20.53.575,Simcolourproject_2stim_asymm_v5,2020.2.10,Win32,60,61025ae37ef11b136ea224fe,,,,,,,,,2168,52,68,1,0,0,response1disk,,7,8,10,1,0,0,rectangle,-24,-81,1,0,0,17,3,1,0,0,1,108,268,154,1,,response5disk_3,TRUE,3,3,"[14,267,309,252,223,313,150,266,49,302,269,251,154,165,275,32,110,142,213,255]",2.4328,rectangle
,,,,,,,,,,,,,FF,,,,,,,,1.6663,,,,,,,,,,,,,,,,,,,,,,610224c7e331699763a12488,61036fd096d9e68b6a69df2d,2021-07-29_23h20.53.575,Simcolourproject_2stim_asymm_v5,2020.2.10,Win32,60,61025ae37ef11b136ea224fe,,,,,,,,,2926,62,93,1,0,0,response1disk,,7,0,0,1,0,0,rectangle,0,0,1,0,0,0,0,1,0,0,1,109,269,67,1,,,,,,,,
,,,,,,,,,,,,,FF,,,,,,,,1.35,,,,,,,,,,,,,,,,,,,,,,610224c7e331699763a12488,61036fd096d9e68b6a69df2d,2021-07-29_23h20.53.575,Simcolourproject_2stim_asymm_v5,2020.2.10,Win32,60,61025ae37ef11b136ea224fe,,,,,,,,,1792,34,89,1,0,0,response1disk,,7,-9,4,1,0,0,rectangle,-9,4,1,0,0,-9,4,1,0,0,1,110,270,141,1,,,,,,,,
,,,,,,,,,,,,,FF,,,,,,,,0.5003,,,,,,,,,,,,,,,,,,,,,,610224c7e331699763a12488,61036fd096d9e68b6a69df2d,2021-07-29_23h20.53.575,Simcolourproject_2stim_asymm_v5,2020.2.10,Win32,60,61025ae37ef11b136ea224fe,,,,,,,,,2509,35,78,1,0,0,response1disk,,7,-8,4,1,0,0,rectangle,-8,4,1,0,0,-8,4,1,0,0,1,111,271,112,1,,,,,,,,
,,,,,,,,,,,,,FF,,,,,,,,0.4838,,,,,,,,,,,,,,,,,,,,,,610224c7e331699763a12488,61036fd096d9e68b6a69df2d,2021-07-29_23h20.53.575,Simcolourproject_2stim_asymm_v5,2020.2.10,Win32,60,61025ae37ef11b136ea224fe,,,,,,,,,2070,45,73,1,0,0,response1disk,,7,-2,-8,1,0,0,rectangle,-2,-8,1,0,0,-2,-8,1,0,0,1,112,272,3,1,,,,,,,,
,,,,,,,,,,,,,FF,,,,,,,,1.1332,,,,,,,,,,,,,,,,,,,,,,610224c7e331699763a12488,61036fd096d9e68b6a69df2d,2021-07-29_23h20.53.575,Simcolourproject_2stim_asymm_v5,2020.2.10,Win32,60,61025ae37ef11b136ea224fe,,,,,,,,,808,-44,-98,1,0,0,response5disk,,3,-6,-6,1,0,0,rectangle,-6,-6,1,0,0,-6,-6,1,0,0,1,113,273,138,1,,,,,,,,
,,,,,,,,,,,,,FF,,,,,,,,1.2337,,,,,,,,,,,,,,,,,,,,,,610224c7e331699763a12488,61036fd096d9e68b6a69df2d,2021-07-29_23h20.53.575,Simcolourproject_2stim_asymm_v5,2020.2.10,Win32,60,61025ae37ef11b136ea224fe,,,,,,,,,114,27,93,1,0,0,response1disk,,7,6,-2,1,0,0,rectangle,87,-51,1,0,0,13,-1,1,0,0,1,114,274,30,1,,response3disk_3,TRUE,5,5,"[14,267,309,252,223,313,150,266,49,302,269,251,154,165,275,32,110,142,213,255]",1.7171,rectangle
,,,,,,,,,,,,,FF,,,,,,,,0.7996,,,,,,,,,,,,,,,,,,,,,,610224c7e331699763a12488,61036fd096d9e68b6a69df2d,2021-07-29_23h20.53.575,Simcolourproject_2stim_asymm_v5,2020.2.10,Win32,60,61025ae37ef11b136ea224fe,,,,,,,,,78,-56,-88,1,0,0,response5disk,,3,-27,3,1,0,0,rectangle,-27,3,1,0,0,-27,3,1,0,0,1,115,275,100,1,,,,,,,,
,,,,,,,,,,,,,FF,,,,,,,,0.5174,,,,,,,,,,,,,,,,,,,,,,610224c7e331699763a12488,61036fd096d9e68b6a69df2d,2021-07-29_23h20.53.575,Simcolourproject_2stim_asymm_v5,2020.2.10,Win32,60,61025ae37ef11b136ea224fe,,,,,,,,,2854,61,82,1,0,0,response1disk,,7,19,-2,1,0,0,rectangle,19,-2,1,0,0,19,-2,1,0,0,1,116,276,78,1,,,,,,,,
,,,,,,,,,,,,,FF,,,,,,,,0.8024,,,,,,,,,,,,,,,,,,,,,,610224c7e331699763a12488,61036fd096d9e68b6a69df2d,2021-07-29_23h20.53.575,Simcolourproject_2stim_asymm_v5,2020.2.10,Win32,60,61025ae37ef11b136ea224fe,,,,,,,,,2676,61,36,1,0,0,response1disk,,6,-15,-13,1,0,0,rectangle,-15,-13,1,0,0,-15,-13,1,0,0,1,117,277,23,1,,,,,,,,
,,,,,,,,,,,,,FF,,,,,,,,0.5181,,,,,,,,,,,,,,,,,,,,,,610224c7e331699763a12488,61036fd096d9e68b6a69df2d,2021-07-29_23h20.53.575,Simcolourproject_2stim_asymm_v5,2020.2.10,Win32,60,61025ae37ef11b136ea224fe,,,,,,,,,2699,22,94,1,0,0,response1disk,,7,6,-10,1,0,0,rectangle,6,-10,1,0,0,6,-10,1,0,0,1,118,278,83,1,,,,,,,,
,,,,,,,,,,,,,FF,,,,,,,,0.6673,,,,,,,,,,,,,,,,,,,,,,610224c7e331699763a12488,61036fd096d9e68b6a69df2d,2021-07-29_23h20.53.575,Simcolourproject_2stim_asymm_v5,2020.2.10,Win32,60,61025ae37ef11b136ea224fe,,,,,,,,,2831,-33,82,1,0,0,response7disk,,0,-4,8,1,0,0,rectangle,-4,8,1,0,0,-4,8,1,0,0,1,119,279,109,1,,,,,,,,
,,,,,,,,,,,,,FF,,,,,,,,0.5495,,,,,,,,,,,,,,,,,,,,,,610224c7e331699763a12488,61036fd096d9e68b6a69df2d,2021-07-29_23h20.53.575,Simcolourproject_2stim_asymm_v5,2020.2.10,Win32,60,61025ae37ef11b136ea224fe,,,,,,,,,3603,24,49,1,0,0,response1disk,,7,-5,-14,1,0,0,rectangle,-5,-14,1,0,0,-5,-14,1,0,0,1,120,280,89,1,,,,,,,,
,,,,,,,,,,,,,FF,,,,,,,,0.8149,,,,,,,,,,,,,,,,,,,,,,610224c7e331699763a12488,61036fd096d9e68b6a69df2d,2021-07-29_23h20.53.575,Simcolourproject_2stim_asymm_v5,2020.2.10,Win32,60,61025ae37ef11b136ea224fe,,,,,,,,,87,40,55,1,0,0,response1disk,,7,14,-6,1,0,0,rectangle,14,-6,1,0,0,14,-6,1,0,0,1,121,281,137,1,,,,,,,,
,,,,,,,,,,,,,FF,,,,,,,,1.3483,,,,,,,,,,,,,,,,,,,,,,610224c7e331699763a12488,61036fd096d9e68b6a69df2d,2021-07-29_23h20.53.575,Simcolourproject_2stim_asymm_v5,2020.2.10,Win32,60,61025ae37ef11b136ea224fe,,,,,,,,,1467,65,31,1,0,0,response1disk,,6,11,3,1,0,0,rectangle,11,3,1,0,0,11,3,1,0,0,1,122,282,43,1,,,,,,,,
,,,,,,,,,,,,,FF,,,,,,,,0.6335,,,,,,,,,,,,,,,,,,,,,,610224c7e331699763a12488,61036fd096d9e68b6a69df2d,2021-07-29_23h20.53.575,Simcolourproject_2stim_asymm_v5,2020.2.10,Win32,60,61025ae37ef11b136ea224fe,,,,,,,,,139,39,73,1,0,0,response1disk,,7,15,2,1,0,0,rectangle,15,2,1,0,0,15,2,1,0,0,1,123,283,151,1,,,,,,,,
,,,,,,,,,,,,,FF,,,,,,,,0.8004,,,,,,,,,,,,,,,,,,,,,,610224c7e331699763a12488,61036fd096d9e68b6a69df2d,2021-07-29_23h20.53.575,Simcolourproject_2stim_asymm_v5,2020.2.10,Win32,60,61025ae37ef11b136ea224fe,,,,,,,,,1834,80,30,1,0,0,response1disk,,6,7,0,1,0,0,rectangle,7,0,1,0,0,7,0,1,0,0,1,124,284,58,1,,,,,,,,
,,,,,,,,,,,,,FF,,,,,,,,0.8355,,,,,,,,,,,,,,,,,,,,,,610224c7e331699763a12488,61036fd096d9e68b6a69df2d,2021-07-29_23h20.53.575,Simcolourproject_2stim_asymm_v5,2020.2.10,Win32,60,61025ae37ef11b136ea224fe,,,,,,,,,2060,32,73,1,0,0,response1disk,,7,21,10,1,0,0,rectangle,21,10,1,0,0,21,10,1,0,0,1,125,285,68,1,,,,,,,,
,,,,,,,,,,,,,FF,,,,,,,,0.4702,,,,,,,,,,,,,,,,,,,,,,610224c7e331699763a12488,61036fd096d9e68b6a69df2d,2021-07-29_23h20.53.575,Simcolourproject_2stim_asymm_v5,2020.2.10,Win32,60,61025ae37ef11b136ea224fe,,,,,,,,,2689,41,70,1,0,0,response1disk,,7,17,5,1,0,0,rectangle,17,5,1,0,0,17,5,1,0,0,1,126,286,42,1,,,,,,,,
,,,,,,,,,,,,,FF,,,,,,,,0.6013,,,,,,,,,,,,,,,,,,,,,,610224c7e331699763a12488,61036fd096d9e68b6a69df2d,2021-07-29_23h20.53.575,Simcolourproject_2stim_asymm_v5,2020.2.10,Win32,60,61025ae37ef11b136ea224fe,,,,,,,,,2426,48,85,1,0,0,response1disk,,7,4,9,1,0,0,rectangle,4,9,1,0,0,4,9,1,0,0,1,127,287,5,1,,,,,,,,
,,,,,,,,,,,,,FF,,,,,,,,0.5015,,,,,,,,,,,,,,,,,,,,,,610224c7e331699763a12488,61036fd096d9e68b6a69df2d,2021-07-29_23h20.53.575,Simcolourproject_2stim_asymm_v5,2020.2.10,Win32,60,61025ae37ef11b136ea224fe,,,,,,,,,3801,26,63,1,0,0,response1disk,,7,6,5,1,0,0,rectangle,6,5,1,0,0,6,5,1,0,0,1,128,288,11,1,,,,,,,,
,,,,,,,,,,,,,FF,,,,,,,,0.482,,,,,,,,,,,,,,,,,,,,,,610224c7e331699763a12488,61036fd096d9e68b6a69df2d,2021-07-29_23h20.53.575,Simcolourproject_2stim_asymm_v5,2020.2.10,Win32,60,61025ae37ef11b136ea224fe,,,,,,,,,2322,38,71,1,0,0,response1disk,,7,-2,-1,1,0,0,rectangle,-2,-1,1,0,0,-2,-1,1,0,0,1,129,289,51,1,,,,,,,,
,,,,,,,,,,,,,FF,,,,,,,,0.715,,,,,,,,,,,,,,,,,,,,,,610224c7e331699763a12488,61036fd096d9e68b6a69df2d,2021-07-29_23h20.53.575,Simcolourproject_2stim_asymm_v5,2020.2.10,Win32,60,61025ae37ef11b136ea224fe,,,,,,,,,370,44,29,1,0,0,response1disk,,6,-2,12,1,0,0,rectangle,-2,12,1,0,0,-2,12,1,0,0,1,130,290,90,1,,,,,,,,
,,,,,,,,,,,,,FF,,,,,,,,0.6696,,,,,,,,,,,,,,,,,,,,,,610224c7e331699763a12488,61036fd096d9e68b6a69df2d,2021-07-29_23h20.53.575,Simcolourproject_2stim_asymm_v5,2020.2.10,Win32,60,61025ae37ef11b136ea224fe,,,,,,,,,3124,36,61,1,0,0,response1disk,,7,3,-2,1,0,0,rectangle,3,-2,1,0,0,3,-2,1,0,0,1,131,291,52,1,,,,,,,,
,,,,,,,,,,,,,FF,,,,,,,,0.6292,,,,,,,,,,,,,,,,,,,,,,610224c7e331699763a12488,61036fd096d9e68b6a69df2d,2021-07-29_23h20.53.575,Simcolourproject_2stim_asymm_v5,2020.2.10,Win32,60,61025ae37ef11b136ea224fe,,,,,,,,,3005,65,27,1,0,0,response1disk,,6,-20,-15,1,0,0,rectangle,-20,-15,1,0,0,-20,-15,1,0,0,1,132,292,71,1,,,,,,,,
,,,,,,,,,,,,,FF,,,,,,,,1.1539,,,,,,,,,,,,,,,,,,,,,,610224c7e331699763a12488,61036fd096d9e68b6a69df2d,2021-07-29_23h20.53.575,Simcolourproject_2stim_asymm_v5,2020.2.10,Win32,60,61025ae37ef11b136ea224fe,,,,,,,,,4008,19,62,1,0,0,response1disk,,7,4,-8,1,0,0,rectangle,4,-8,1,0,0,4,-8,1,0,0,1,133,293,159,1,,,,,,,,
,,,,,,,,,,,,,FF,,,,,,,,0.8537,,,,,,,,,,,,,,,,,,,,,,610224c7e331699763a12488,61036fd096d9e68b6a69df2d,2021-07-29_23h20.53.575,Simcolourproject_2stim_asymm_v5,2020.2.10,Win32,60,61025ae37ef11b136ea224fe,,,,,,,,,754,46,64,1,0,0,response1disk,,7,7,-1,1,0,0,rectangle,7,-1,1,0,0,7,-1,1,0,0,1,134,294,6,1,,,,,,,,
,,,,,,,,,,,,,FF,,,,,,,,0.5157,,,,,,,,,,,,,,,,,,,,,,610224c7e331699763a12488,61036fd096d9e68b6a69df2d,2021-07-29_23h20.53.575,Simcolourproject_2stim_asymm_v5,2020.2.10,Win32,60,61025ae37ef11b136ea224fe,,,,,,,,,181,39,76,1,0,0,response1disk,,7,-1,-8,1,0,0,rectangle,-1,-8,1,0,0,-1,-8,1,0,0,1,135,295,155,1,,,,,,,,
,,,,,,,,,,,,,FF,,,,,,,,0.5488,,,,,,,,,,,,,,,,,,,,,,610224c7e331699763a12488,61036fd096d9e68b6a69df2d,2021-07-29_23h20.53.575,Simcolourproject_2stim_asymm_v5,2020.2.10,Win32,60,61025ae37ef11b136ea224fe,,,,,,,,,3280,37,71,1,0,0,response1disk,,7,1,3,1,0,0,rectangle,1,3,1,0,0,1,3,1,0,0,1,136,296,47,1,,,,,,,,
,,,,,,,,,,,,,FF,,,,,,,,0.4675,,,,,,,,,,,,,,,,,,,,,,610224c7e331699763a12488,61036fd096d9e68b6a69df2d,2021-07-29_23h20.53.575,Simcolourproject_2stim_asymm_v5,2020.2.10,Win32,60,61025ae37ef11b136ea224fe,,,,,,,,,2403,33,59,1,0,0,response1disk,,7,-10,-9,1,0,0,rectangle,-10,-9,1,0,0,-10,-9,1,0,0,1,137,297,13,1,,,,,,,,
,,,,,,,,,,,,,FF,,,,,,,,0.8982,,,,,,,,,,,,,,,,,,,,,,610224c7e331699763a12488,61036fd096d9e68b6a69df2d,2021-07-29_23h20.53.575,Simcolourproject_2stim_asymm_v5,2020.2.10,Win32,60,61025ae37ef11b136ea224fe,,,,,,,,,657,28,47,1,0,0,response1disk,,7,9,-1,1,0,0,rectangle,9,-1,1,0,0,9,-1,1,0,0,1,138,298,128,1,,,,,,,,
,,,,,,,,,,,,,FF,,,,,,,,0.7741,,,,,,,,,,,,,,,,,,,,,,610224c7e331699763a12488,61036fd096d9e68b6a69df2d,2021-07-29_23h20.53.575,Simcolourproject_2stim_asymm_v5,2020.2.10,Win32,60,61025ae37ef11b136ea224fe,,,,,,,,,3741,-36,61,1,0,0,response7disk,,0,-12,-8,1,0,0,rectangle,-12,-8,1,0,0,-12,-8,1,0,0,1,139,299,77,1,,,,,,,,
,,,,,,,,,,,,,FF,,,,,,,,1.1312,,,,,,,,,,,,,,,,,,,,,,610224c7e331699763a12488,61036fd096d9e68b6a69df2d,2021-07-29_23h20.53.575,Simcolourproject_2stim_asymm_v5,2020.2.10,Win32,60,61025ae37ef11b136ea224fe,,,,,,,,,1126,43,81,1,0,0,response1disk,,7,7,11,1,0,0,rectangle,7,11,1,0,0,7,11,1,0,0,1,140,300,129,1,,,,,,,,
,,,,,,,,,,,,,FF,,,,,,,,1.2829,,,,,,,,,,,,,,,,,,,,,,610224c7e331699763a12488,61036fd096d9e68b6a69df2d,2021-07-29_23h20.53.575,Simcolourproject_2stim_asymm_v5,2020.2.10,Win32,60,61025ae37ef11b136ea224fe,,,,,,,,,3677,72,29,1,0,0,response1disk,,6,14,-3,1,0,0,rectangle,-46,-89,1,0,0,-6,2,1,0,0,1,141,301,130,1,,response5disk_3,TRUE,3,3,"[14,267,309,252,223,313,150,266,49,302,269,251,154,165,275,32,110,142,213,255]",2.7019,rectangle
,,,,,,,,,,,,,FF,,,,,,,,1.2679,,,,,,,,,,,,,,,,,,,,,,610224c7e331699763a12488,61036fd096d9e68b6a69df2d,2021-07-29_23h20.53.575,Simcolourproject_2stim_asymm_v5,2020.2.10,Win32,60,61025ae37ef11b136ea224fe,,,,,,,,,1175,35,77,1,0,0,response1disk,,7,10,-2,1,0,0,rectangle,10,-2,1,0,0,10,-2,1,0,0,1,142,302,113,1,,,,,,,,
,,,,,,,,,,,,,FF,,,,,,,,0.4979,,,,,,,,,,,,,,,,,,,,,,610224c7e331699763a12488,61036fd096d9e68b6a69df2d,2021-07-29_23h20.53.575,Simcolourproject_2stim_asymm_v5,2020.2.10,Win32,60,61025ae37ef11b136ea224fe,,,,,,,,,2698,61,92,1,0,0,response1disk,,7,11,-1,1,0,0,rectangle,11,-1,1,0,0,11,-1,1,0,0,1,143,303,118,1,,,,,,,,
