key_resp.keys,key_resp.rt,key_resp_14.keys,key_resp_14.rt,key_resp_15.keys,key_resp_15.rt,key_resp_17.keys,key_resp_17.rt,key_resp_9.keys,key_resp_9.rt,key_resp_10.keys,key_resp_10.rt,practice_comparison,Ecc,mouse_5.x,mouse_5.y,mouse_5.leftButton,mouse_5.midButton,mouse_5.rightButton,mouse_5.clicked_name,pracsimilarity,response_time,mouse_10.x,mouse_10.y,mouse_10.leftButton,mouse_10.midButton,mouse_10.rightButton,mouse_10.clicked_name,mouse_7.x,mouse_7.y,mouse_7.leftButton,mouse_7.midButton,mouse_7.rightButton,mouse_6.x,mouse_6.y,mouse_6.leftButton,mouse_6.midButton,mouse_6.rightButton,duringprac.thisRepN,duringprac.thisTrialN,duringprac.thisN,duringprac.thisIndex,duringprac.ran,participant,session,date,expName,psychopyVersion,OS,frameRate,study_id,mouse_7.clicked_name,catchpracsimilarity,catch_response_time,catchnumberprac,catchtrialorderprac,mouse_6.clicked_name,key_resp_22.keys,key_resp_22.rt,realcomparison,mouse.x,mouse.y,mouse.leftButton,mouse.midButton,mouse.rightButton,mouse.clicked_name,Colour2,similarity,mouse_2.x,mouse_2.y,mouse_2.leftButton,mouse_2.midButton,mouse_2.rightButton,mouse_2.clicked_name,mouse_3.x,mouse_3.y,mouse_3.leftButton,mouse_3.midButton,mouse_3.rightButton,mouse_11.x,mouse_11.y,mouse_11.leftButton,mouse_11.midButton,mouse_11.rightButton,trials_2.thisRepN,trials_2.thisTrialN,trials_2.thisN,trials_2.thisIndex,trials_2.ran,Colour1,mouse_3.clicked_name,catchornah,catchsimilarity,catchnumber,catchtrialorder,catchRT,mouse_11.clicked_name
space,5.3283,space,5.8623,space,10.8043,space,3.0335,space,1.3215,space,3.5354,37,PF,84.5546875,-31.82421875,1,0,0,response3disk_5,5,6.2501,3.51953125,-8.15234375,1,0,0,rectangle_8,3.51953125,-8.15234375,1,0,0,3.51953125,-8.15234375,1,0,0,0,0,0,6,1,6102d3c05c31cb5c38158b34,61036c46f428419531f2ed6e,2021-07-29_20h09.32.433,Simcolourproject_2stim_asymm_v5,2020.2.10,MacIntel,60,61025ae37ef11b136ea224fe,,,,,,,,,,,,,,,,,,,,,,,,,,,,,,,,,,,,,,,,,,,,,,
,,,,,,,,,,,,147,PF,21.2421875,61.8359375,1,0,0,response1disk_5,7,1.6664,6.3203125,5.66015625,1,0,0,rectangle_8,-56.4375,87.92578125,1,0,0,11.06640625,-9.94140625,1,0,0,0,1,1,1,1,6102d3c05c31cb5c38158b34,61036c46f428419531f2ed6e,2021-07-29_20h09.32.433,Simcolourproject_2stim_asymm_v5,2020.2.10,MacIntel,60,61025ae37ef11b136ea224fe,response7disk_7,0,2.1371,0,"[2,5]",rectangle_4,,,,,,,,,,,,,,,,,,,,,,,,,,,,,,,,,,,,,,,,
,,,,,,,,,,,,143,PF,-39.234375,-75.42578125,1,0,0,response5disk_5,3,1.8991,1.296875,-5.1484375,1,0,0,rectangle_8,1.296875,-5.1484375,1,0,0,1.296875,-5.1484375,1,0,0,0,2,2,4,1,6102d3c05c31cb5c38158b34,61036c46f428419531f2ed6e,2021-07-29_20h09.32.433,Simcolourproject_2stim_asymm_v5,2020.2.10,MacIntel,60,61025ae37ef11b136ea224fe,,,,,,,,,,,,,,,,,,,,,,,,,,,,,,,,,,,,,,,,,,,,,,
,,,,,,,,,,,,160,FF,-55.109375,-40.26171875,1,0,0,response5disk_5,2,1.4002,2.8359375,-2.08203125,1,0,0,rectangle_8,2.8359375,-2.08203125,1,0,0,2.8359375,-2.08203125,1,0,0,0,3,3,5,1,6102d3c05c31cb5c38158b34,61036c46f428419531f2ed6e,2021-07-29_20h09.32.433,Simcolourproject_2stim_asymm_v5,2020.2.10,MacIntel,60,61025ae37ef11b136ea224fe,,,,,,,,,,,,,,,,,,,,,,,,,,,,,,,,,,,,,,,,,,,,,,
,,,,,,,,,,,,119,PF,-68.09765625,-34.01171875,1,0,0,response5disk_5,2,1.2996,-17.3125,-9.87109375,1,0,0,rectangle_8,-42.78515625,73.31640625,1,0,0,0.47265625,-4.3984375,1,0,0,0,4,4,2,1,6102d3c05c31cb5c38158b34,61036c46f428419531f2ed6e,2021-07-29_20h09.32.433,Simcolourproject_2stim_asymm_v5,2020.2.10,MacIntel,60,61025ae37ef11b136ea224fe,response7disk_7,0,1.9335,0,"[2,5]",rectangle_4,,,,,,,,,,,,,,,,,,,,,,,,,,,,,,,,,,,,,,,,
,,,,,,,,,,,,35,FF,69.20703125,107.953125,1,0,0,response1disk_5,7,1.0821,5.49609375,-1.4453125,1,0,0,rectangle_8,5.49609375,-1.4453125,1,0,0,5.49609375,-1.4453125,1,0,0,0,5,5,0,1,6102d3c05c31cb5c38158b34,61036c46f428419531f2ed6e,2021-07-29_20h09.32.433,Simcolourproject_2stim_asymm_v5,2020.2.10,MacIntel,60,61025ae37ef11b136ea224fe,,,,,,,,,,,,,,,,,,,,,,,,,,,,,,,,,,,,,,,,,,,,,,
,,,,,,,,,,,,5,FF,84.25390625,41.38671875,1,0,0,response1disk_5,6,1.1686,3.4765625,1.65234375,1,0,0,rectangle_8,3.4765625,1.65234375,1,0,0,3.4765625,1.65234375,1,0,0,0,6,6,3,1,6102d3c05c31cb5c38158b34,61036c46f428419531f2ed6e,2021-07-29_20h09.32.433,Simcolourproject_2stim_asymm_v5,2020.2.10,MacIntel,60,61025ae37ef11b136ea224fe,,,,,,,,,,,,,,,,,,,,,,,,,,,,,,,,,,,,,,,,,,,,,,
,,,,,,,,,,,,,FF,,,,,,,,2.6192,,,,,,,,,,,,,,,,,,,,,,6102d3c05c31cb5c38158b34,61036c46f428419531f2ed6e,2021-07-29_20h09.32.433,Simcolourproject_2stim_asymm_v5,2020.2.10,MacIntel,60,61025ae37ef11b136ea224fe,,,,,,,space,14.4071,3431,-68.95703125,-31.15625,1,0,0,response5disk,,2,5.76171875,4.27734375,1,0,0,rectangle,5.76171875,4.27734375,1,0,0,5.76171875,4.27734375,1,0,0,0,0,0,69,1,,,,,,,,
,,,,,,,,,,,,,FF,,,,,,,,1.4506,,,,,,,,,,,,,,,,,,,,,,6102d3c05c31cb5c38158b34,61036c46f428419531f2ed6e,2021-07-29_20h09.32.433,Simcolourproject_2stim_asymm_v5,2020.2.10,MacIntel,60,61025ae37ef11b136ea224fe,,,,,,,,,3852,96.89453125,25.03125,1,0,0,response1disk,,6,-0.80859375,-13.375,1,0,0,rectangle,-0.80859375,-13.375,1,0,0,-0.80859375,-13.375,1,0,0,0,1,1,8,1,,,,,,,,
,,,,,,,,,,,,,FF,,,,,,,,6.6012,,,,,,,,,,,,,,,,,,,,,,6102d3c05c31cb5c38158b34,61036c46f428419531f2ed6e,2021-07-29_20h09.32.433,Simcolourproject_2stim_asymm_v5,2020.2.10,MacIntel,60,61025ae37ef11b136ea224fe,,,,,,,,,3492,93.5625,47.69140625,1,0,0,response1disk,,6,13.03125,1.171875,1,0,0,rectangle,13.03125,1.171875,1,0,0,13.03125,1.171875,1,0,0,0,2,2,67,1,,,,,,,,
,,,,,,,,,,,,,FF,,,,,,,,4.0999,,,,,,,,,,,,,,,,,,,,,,6102d3c05c31cb5c38158b34,61036c46f428419531f2ed6e,2021-07-29_20h09.32.433,Simcolourproject_2stim_asymm_v5,2020.2.10,MacIntel,60,61025ae37ef11b136ea224fe,,,,,,,,,4183,-26.953125,-67.95703125,1,0,0,response5disk,,3,7.6953125,-0.9921875,1,0,0,rectangle,7.6953125,-0.9921875,1,0,0,7.6953125,-0.9921875,1,0,0,0,3,3,1,1,,,,,,,,
,,,,,,,,,,,,,FF,,,,,,,,1.9832,,,,,,,,,,,,,,,,,,,,,,6102d3c05c31cb5c38158b34,61036c46f428419531f2ed6e,2021-07-29_20h09.32.433,Simcolourproject_2stim_asymm_v5,2020.2.10,MacIntel,60,61025ae37ef11b136ea224fe,,,,,,,,,2884,26.15234375,79.58203125,1,0,0,response1disk,,7,1.33984375,3.58984375,1,0,0,rectangle,1.33984375,3.58984375,1,0,0,1.33984375,3.58984375,1,0,0,0,4,4,24,1,,,,,,,,
,,,,,,,,,,,,,FF,,,,,,,,1.8838,,,,,,,,,,,,,,,,,,,,,,6102d3c05c31cb5c38158b34,61036c46f428419531f2ed6e,2021-07-29_20h09.32.433,Simcolourproject_2stim_asymm_v5,2020.2.10,MacIntel,60,61025ae37ef11b136ea224fe,,,,,,,,,2104,37.0625,-76.63671875,1,0,0,response3disk,,4,-0.11328125,2.05078125,1,0,0,rectangle,-0.11328125,2.05078125,1,0,0,-0.11328125,2.05078125,1,0,0,0,5,5,0,1,,,,,,,,
,,,,,,,,,,,,,FF,,,,,,,,1.5699,,,,,,,,,,,,,,,,,,,,,,6102d3c05c31cb5c38158b34,61036c46f428419531f2ed6e,2021-07-29_20h09.32.433,Simcolourproject_2stim_asymm_v5,2020.2.10,MacIntel,60,61025ae37ef11b136ea224fe,,,,,,,,,648,40.5390625,62.37890625,1,0,0,response1disk,,7,4.96484375,-3.13671875,1,0,0,rectangle,4.96484375,-3.13671875,1,0,0,4.96484375,-3.13671875,1,0,0,0,6,6,9,1,,,,,,,,
,,,,,,,,,,,,,FF,,,,,,,,1.269,,,,,,,,,,,,,,,,,,,,,,6102d3c05c31cb5c38158b34,61036c46f428419531f2ed6e,2021-07-29_20h09.32.433,Simcolourproject_2stim_asymm_v5,2020.2.10,MacIntel,60,61025ae37ef11b136ea224fe,,,,,,,,,112,32.671875,57.51171875,1,0,0,response1disk,,7,5.70703125,-10.01953125,1,0,0,rectangle,5.70703125,-10.01953125,1,0,0,5.70703125,-10.01953125,1,0,0,0,7,7,126,1,,,,,,,,
,,,,,,,,,,,,,FF,,,,,,,,1.1003,,,,,,,,,,,,,,,,,,,,,,6102d3c05c31cb5c38158b34,61036c46f428419531f2ed6e,2021-07-29_20h09.32.433,Simcolourproject_2stim_asymm_v5,2020.2.10,MacIntel,60,61025ae37ef11b136ea224fe,,,,,,,,,1200,85.19921875,-36.828125,1,0,0,response3disk,,5,-8.23828125,1.48828125,1,0,0,rectangle,-8.23828125,1.48828125,1,0,0,-8.23828125,1.48828125,1,0,0,0,8,8,48,1,,,,,,,,
,,,,,,,,,,,,,FF,,,,,,,,0.7684,,,,,,,,,,,,,,,,,,,,,,6102d3c05c31cb5c38158b34,61036c46f428419531f2ed6e,2021-07-29_20h09.32.433,Simcolourproject_2stim_asymm_v5,2020.2.10,MacIntel,60,61025ae37ef11b136ea224fe,,,,,,,,,925,30.703125,93.70703125,1,0,0,response1disk,,7,0.08984375,-0.390625,1,0,0,rectangle,0.08984375,-0.390625,1,0,0,0.08984375,-0.390625,1,0,0,0,9,9,144,1,,,,,,,,
,,,,,,,,,,,,,FF,,,,,,,,0.9667,,,,,,,,,,,,,,,,,,,,,,6102d3c05c31cb5c38158b34,61036c46f428419531f2ed6e,2021-07-29_20h09.32.433,Simcolourproject_2stim_asymm_v5,2020.2.10,MacIntel,60,61025ae37ef11b136ea224fe,,,,,,,,,1173,70.5234375,-29.8828125,1,0,0,response3disk,,5,4.04296875,9.07421875,1,0,0,rectangle,4.04296875,9.07421875,1,0,0,4.04296875,9.07421875,1,0,0,0,10,10,136,1,,,,,,,,
,,,,,,,,,,,,,FF,,,,,,,,1.0855,,,,,,,,,,,,,,,,,,,,,,6102d3c05c31cb5c38158b34,61036c46f428419531f2ed6e,2021-07-29_20h09.32.433,Simcolourproject_2stim_asymm_v5,2020.2.10,MacIntel,60,61025ae37ef11b136ea224fe,,,,,,,,,2367,-30.22265625,-95.22265625,1,0,0,response5disk,,3,6.8984375,-8.40234375,1,0,0,rectangle,6.8984375,-8.40234375,1,0,0,6.8984375,-8.40234375,1,0,0,0,11,11,120,1,,,,,,,,
,,,,,,,,,,,,,FF,,,,,,,,1.5336,,,,,,,,,,,,,,,,,,,,,,6102d3c05c31cb5c38158b34,61036c46f428419531f2ed6e,2021-07-29_20h09.32.433,Simcolourproject_2stim_asymm_v5,2020.2.10,MacIntel,60,61025ae37ef11b136ea224fe,,,,,,,,,3708,-94.640625,-24.0546875,1,0,0,response5disk,,2,8.71875,1.59375,1,0,0,rectangle,8.71875,1.59375,1,0,0,8.71875,1.59375,1,0,0,0,12,12,30,1,,,,,,,,
,,,,,,,,,,,,,FF,,,,,,,,1.1188,,,,,,,,,,,,,,,,,,,,,,6102d3c05c31cb5c38158b34,61036c46f428419531f2ed6e,2021-07-29_20h09.32.433,Simcolourproject_2stim_asymm_v5,2020.2.10,MacIntel,60,61025ae37ef11b136ea224fe,,,,,,,,,1043,90.921875,-39.41796875,1,0,0,response3disk,,5,3.67578125,5.23046875,1,0,0,rectangle,3.67578125,5.23046875,1,0,0,3.67578125,5.23046875,1,0,0,0,13,13,125,1,,,,,,,,
,,,,,,,,,,,,,FF,,,,,,,,1.4524,,,,,,,,,,,,,,,,,,,,,,6102d3c05c31cb5c38158b34,61036c46f428419531f2ed6e,2021-07-29_20h09.32.433,Simcolourproject_2stim_asymm_v5,2020.2.10,MacIntel,60,61025ae37ef11b136ea224fe,,,,,,,,,4003,47.95703125,-88.71875,1,0,0,response3disk,,4,9.77734375,-17.9609375,1,0,0,rectangle,88.0546875,-47.98046875,1,0,0,-9.9765625,4.1640625,1,0,0,0,14,14,22,1,,response3disk_3,TRUE,5,5,"[66,227,20,202,116,229,134,206,160,15,116,228,308,194,289,121,85,275,32,293]",2.4683,rectangle
,,,,,,,,,,,,,FF,,,,,,,,2.55,,,,,,,,,,,,,,,,,,,,,,6102d3c05c31cb5c38158b34,61036c46f428419531f2ed6e,2021-07-29_20h09.32.433,Simcolourproject_2stim_asymm_v5,2020.2.10,MacIntel,60,61025ae37ef11b136ea224fe,,,,,,,,,426,96.96875,50.625,1,0,0,response1disk,,6,4,-2.63671875,1,0,0,rectangle,4,-2.63671875,1,0,0,4,-2.63671875,1,0,0,0,15,15,27,1,,,,,,,,
,,,,,,,,,,,,,FF,,,,,,,,0.8842,,,,,,,,,,,,,,,,,,,,,,6102d3c05c31cb5c38158b34,61036c46f428419531f2ed6e,2021-07-29_20h09.32.433,Simcolourproject_2stim_asymm_v5,2020.2.10,MacIntel,60,61025ae37ef11b136ea224fe,,,,,,,,,748,40.4609375,80.671875,1,0,0,response1disk,,7,0.33203125,3.52734375,1,0,0,rectangle,0.33203125,3.52734375,1,0,0,0.33203125,3.52734375,1,0,0,0,16,16,84,1,,,,,,,,
,,,,,,,,,,,,,FF,,,,,,,,0.8688,,,,,,,,,,,,,,,,,,,,,,6102d3c05c31cb5c38158b34,61036c46f428419531f2ed6e,2021-07-29_20h09.32.433,Simcolourproject_2stim_asymm_v5,2020.2.10,MacIntel,60,61025ae37ef11b136ea224fe,,,,,,,,,1862,37.11328125,83.4296875,1,0,0,response1disk,,7,-3.82421875,-7.84375,1,0,0,rectangle,-3.82421875,-7.84375,1,0,0,-3.82421875,-7.84375,1,0,0,0,17,17,25,1,,,,,,,,
,,,,,,,,,,,,,FF,,,,,,,,1.2503,,,,,,,,,,,,,,,,,,,,,,6102d3c05c31cb5c38158b34,61036c46f428419531f2ed6e,2021-07-29_20h09.32.433,Simcolourproject_2stim_asymm_v5,2020.2.10,MacIntel,60,61025ae37ef11b136ea224fe,,,,,,,,,1608,-73.0625,43.734375,1,0,0,response7disk,,1,6.82421875,-4.40234375,1,0,0,rectangle,6.82421875,-4.40234375,1,0,0,6.82421875,-4.40234375,1,0,0,0,18,18,41,1,,,,,,,,
,,,,,,,,,,,,,FF,,,,,,,,0.9842,,,,,,,,,,,,,,,,,,,,,,6102d3c05c31cb5c38158b34,61036c46f428419531f2ed6e,2021-07-29_20h09.32.433,Simcolourproject_2stim_asymm_v5,2020.2.10,MacIntel,60,61025ae37ef11b136ea224fe,,,,,,,,,3171,70.69921875,42.390625,1,0,0,response1disk,,6,9.765625,-2.1015625,1,0,0,rectangle,-29.09765625,108.2148438,1,0,0,-7.14453125,1.1796875,1,0,0,0,19,19,83,1,,response7disk_3,TRUE,0,0,"[66,227,20,202,116,229,134,206,160,15,116,228,308,194,289,121,85,275,32,293]",1.6345,rectangle
,,,,,,,,,,,,,FF,,,,,,,,1.3662,,,,,,,,,,,,,,,,,,,,,,6102d3c05c31cb5c38158b34,61036c46f428419531f2ed6e,2021-07-29_20h09.32.433,Simcolourproject_2stim_asymm_v5,2020.2.10,MacIntel,60,61025ae37ef11b136ea224fe,,,,,,,,,3290,-27.20703125,71.21484375,1,0,0,response7disk,,0,3.33203125,-2.5625,1,0,0,rectangle,3.33203125,-2.5625,1,0,0,3.33203125,-2.5625,1,0,0,0,20,20,110,1,,,,,,,,
,,,,,,,,,,,,,FF,,,,,,,,1.6504,,,,,,,,,,,,,,,,,,,,,,6102d3c05c31cb5c38158b34,61036c46f428419531f2ed6e,2021-07-29_20h09.32.433,Simcolourproject_2stim_asymm_v5,2020.2.10,MacIntel,60,61025ae37ef11b136ea224fe,,,,,,,,,1711,81.69921875,34.1953125,1,0,0,response1disk,,6,23.83203125,8.69921875,1,0,0,rectangle,23.83203125,8.69921875,1,0,0,23.83203125,8.69921875,1,0,0,0,21,21,26,1,,,,,,,,
,,,,,,,,,,,,,FF,,,,,,,,1.8002,,,,,,,,,,,,,,,,,,,,,,6102d3c05c31cb5c38158b34,61036c46f428419531f2ed6e,2021-07-29_20h09.32.433,Simcolourproject_2stim_asymm_v5,2020.2.10,MacIntel,60,61025ae37ef11b136ea224fe,,,,,,,,,2627,96.00390625,29.96484375,1,0,0,response1disk,,6,-18.48828125,9.8828125,1,0,0,rectangle,-18.48828125,9.8828125,1,0,0,-18.48828125,9.8828125,1,0,0,0,22,22,150,1,,,,,,,,
,,,,,,,,,,,,,FF,,,,,,,,1.1481,,,,,,,,,,,,,,,,,,,,,,6102d3c05c31cb5c38158b34,61036c46f428419531f2ed6e,2021-07-29_20h09.32.433,Simcolourproject_2stim_asymm_v5,2020.2.10,MacIntel,60,61025ae37ef11b136ea224fe,,,,,,,,,3236,-99.265625,-37.91796875,1,0,0,response5disk,,2,1.94921875,-6.8984375,1,0,0,rectangle,1.94921875,-6.8984375,1,0,0,1.94921875,-6.8984375,1,0,0,0,23,23,130,1,,,,,,,,
,,,,,,,,,,,,,FF,,,,,,,,1.5997,,,,,,,,,,,,,,,,,,,,,,6102d3c05c31cb5c38158b34,61036c46f428419531f2ed6e,2021-07-29_20h09.32.433,Simcolourproject_2stim_asymm_v5,2020.2.10,MacIntel,60,61025ae37ef11b136ea224fe,,,,,,,,,1700,77.24609375,-50.42578125,1,0,0,response3disk,,5,14.41015625,-6.5234375,1,0,0,rectangle,14.41015625,-6.5234375,1,0,0,14.41015625,-6.5234375,1,0,0,0,24,24,156,1,,,,,,,,
,,,,,,,,,,,,,FF,,,,,,,,1.75,,,,,,,,,,,,,,,,,,,,,,6102d3c05c31cb5c38158b34,61036c46f428419531f2ed6e,2021-07-29_20h09.32.433,Simcolourproject_2stim_asymm_v5,2020.2.10,MacIntel,60,61025ae37ef11b136ea224fe,,,,,,,,,420,45.0546875,56.99609375,1,0,0,response1disk,,7,5.9453125,1.17578125,1,0,0,rectangle,5.9453125,1.17578125,1,0,0,5.9453125,1.17578125,1,0,0,0,25,25,134,1,,,,,,,,
,,,,,,,,,,,,,FF,,,,,,,,0.7545,,,,,,,,,,,,,,,,,,,,,,6102d3c05c31cb5c38158b34,61036c46f428419531f2ed6e,2021-07-29_20h09.32.433,Simcolourproject_2stim_asymm_v5,2020.2.10,MacIntel,60,61025ae37ef11b136ea224fe,,,,,,,,,4315,36.8984375,88.80859375,1,0,0,response1disk,,7,2.81640625,-3.75,1,0,0,rectangle,2.81640625,-3.75,1,0,0,2.81640625,-3.75,1,0,0,0,26,26,122,1,,,,,,,,
,,,,,,,,,,,,,FF,,,,,,,,2.6695,,,,,,,,,,,,,,,,,,,,,,6102d3c05c31cb5c38158b34,61036c46f428419531f2ed6e,2021-07-29_20h09.32.433,Simcolourproject_2stim_asymm_v5,2020.2.10,MacIntel,60,61025ae37ef11b136ea224fe,,,,,,,,,3961,65.0859375,-49.6640625,1,0,0,response3disk,,5,7.96484375,-0.4140625,1,0,0,rectangle,7.96484375,-0.4140625,1,0,0,7.96484375,-0.4140625,1,0,0,0,27,27,101,1,,,,,,,,
,,,,,,,,,,,,,FF,,,,,,,,3.5336,,,,,,,,,,,,,,,,,,,,,,6102d3c05c31cb5c38158b34,61036c46f428419531f2ed6e,2021-07-29_20h09.32.433,Simcolourproject_2stim_asymm_v5,2020.2.10,MacIntel,60,61025ae37ef11b136ea224fe,,,,,,,,,843,28.734375,-74.25,1,0,0,response3disk,,4,1.01171875,-12.71875,1,0,0,rectangle,1.01171875,-12.71875,1,0,0,1.01171875,-12.71875,1,0,0,0,28,28,57,1,,,,,,,,
,,,,,,,,,,,,,FF,,,,,,,,1.2167,,,,,,,,,,,,,,,,,,,,,,6102d3c05c31cb5c38158b34,61036c46f428419531f2ed6e,2021-07-29_20h09.32.433,Simcolourproject_2stim_asymm_v5,2020.2.10,MacIntel,60,61025ae37ef11b136ea224fe,,,,,,,,,1053,-106.5585938,-48.15234375,1,0,0,response5disk,,2,9.7578125,-2.6484375,1,0,0,rectangle,9.7578125,-2.6484375,1,0,0,9.7578125,-2.6484375,1,0,0,0,29,29,39,1,,,,,,,,
,,,,,,,,,,,,,FF,,,,,,,,1.3159,,,,,,,,,,,,,,,,,,,,,,6102d3c05c31cb5c38158b34,61036c46f428419531f2ed6e,2021-07-29_20h09.32.433,Simcolourproject_2stim_asymm_v5,2020.2.10,MacIntel,60,61025ae37ef11b136ea224fe,,,,,,,,,3895,96.16796875,28,1,0,0,response1disk,,6,7.828125,-3.08984375,1,0,0,rectangle,7.828125,-3.08984375,1,0,0,7.828125,-3.08984375,1,0,0,0,30,30,77,1,,,,,,,,
,,,,,,,,,,,,,FF,,,,,,,,1.8502,,,,,,,,,,,,,,,,,,,,,,6102d3c05c31cb5c38158b34,61036c46f428419531f2ed6e,2021-07-29_20h09.32.433,Simcolourproject_2stim_asymm_v5,2020.2.10,MacIntel,60,61025ae37ef11b136ea224fe,,,,,,,,,730,81.19140625,55.03515625,1,0,0,response1disk,,6,0.50390625,2.90234375,1,0,0,rectangle,-50.421875,-74.20703125,1,0,0,7.96875,3.96484375,1,0,0,0,31,31,58,1,,response5disk_3,TRUE,3,3,"[66,227,20,202,116,229,134,206,160,15,116,228,308,194,289,121,85,275,32,293]",1.6679,rectangle
,,,,,,,,,,,,,FF,,,,,,,,1.4965,,,,,,,,,,,,,,,,,,,,,,6102d3c05c31cb5c38158b34,61036c46f428419531f2ed6e,2021-07-29_20h09.32.433,Simcolourproject_2stim_asymm_v5,2020.2.10,MacIntel,60,61025ae37ef11b136ea224fe,,,,,,,,,1541,106.0039063,-28.4453125,1,0,0,response3disk,,5,-0.7265625,3.16015625,1,0,0,rectangle,-0.7265625,3.16015625,1,0,0,-0.7265625,3.16015625,1,0,0,0,32,32,92,1,,,,,,,,
,,,,,,,,,,,,,FF,,,,,,,,1.5662,,,,,,,,,,,,,,,,,,,,,,6102d3c05c31cb5c38158b34,61036c46f428419531f2ed6e,2021-07-29_20h09.32.433,Simcolourproject_2stim_asymm_v5,2020.2.10,MacIntel,60,61025ae37ef11b136ea224fe,,,,,,,,,3100,-85.6796875,24.3828125,1,0,0,response7disk,,1,-3.515625,-3.4609375,1,0,0,rectangle,-3.515625,-3.4609375,1,0,0,-3.515625,-3.4609375,1,0,0,0,33,33,4,1,,,,,,,,
,,,,,,,,,,,,,FF,,,,,,,,0.9001,,,,,,,,,,,,,,,,,,,,,,6102d3c05c31cb5c38158b34,61036c46f428419531f2ed6e,2021-07-29_20h09.32.433,Simcolourproject_2stim_asymm_v5,2020.2.10,MacIntel,60,61025ae37ef11b136ea224fe,,,,,,,,,2161,-76.40625,-35.7265625,1,0,0,response5disk,,2,-19.1015625,-1.59375,1,0,0,rectangle,-19.1015625,-1.59375,1,0,0,-19.1015625,-1.59375,1,0,0,0,34,34,12,1,,,,,,,,
,,,,,,,,,,,,,FF,,,,,,,,1.1001,,,,,,,,,,,,,,,,,,,,,,6102d3c05c31cb5c38158b34,61036c46f428419531f2ed6e,2021-07-29_20h09.32.433,Simcolourproject_2stim_asymm_v5,2020.2.10,MacIntel,60,61025ae37ef11b136ea224fe,,,,,,,,,3081,82.265625,50.3984375,1,0,0,response1disk,,6,10.3046875,4.65234375,1,0,0,rectangle,10.3046875,4.65234375,1,0,0,10.3046875,4.65234375,1,0,0,0,35,35,137,1,,,,,,,,
,,,,,,,,,,,,,FF,,,,,,,,5.4003,,,,,,,,,,,,,,,,,,,,,,6102d3c05c31cb5c38158b34,61036c46f428419531f2ed6e,2021-07-29_20h09.32.433,Simcolourproject_2stim_asymm_v5,2020.2.10,MacIntel,60,61025ae37ef11b136ea224fe,,,,,,,,,956,101.5351563,36.23046875,1,0,0,response1disk,,6,0.84765625,-6.94921875,1,0,0,rectangle,0.84765625,-6.94921875,1,0,0,0.84765625,-6.94921875,1,0,0,0,36,36,61,1,,,,,,,,
,,,,,,,,,,,,,FF,,,,,,,,0.9986,,,,,,,,,,,,,,,,,,,,,,6102d3c05c31cb5c38158b34,61036c46f428419531f2ed6e,2021-07-29_20h09.32.433,Simcolourproject_2stim_asymm_v5,2020.2.10,MacIntel,60,61025ae37ef11b136ea224fe,,,,,,,,,614,-89.89453125,-34.74609375,1,0,0,response5disk,,2,11.60546875,3.63671875,1,0,0,rectangle,11.60546875,3.63671875,1,0,0,11.60546875,3.63671875,1,0,0,0,37,37,139,1,,,,,,,,
,,,,,,,,,,,,,FF,,,,,,,,1.0687,,,,,,,,,,,,,,,,,,,,,,6102d3c05c31cb5c38158b34,61036c46f428419531f2ed6e,2021-07-29_20h09.32.433,Simcolourproject_2stim_asymm_v5,2020.2.10,MacIntel,60,61025ae37ef11b136ea224fe,,,,,,,,,130,98.53515625,-38.92578125,1,0,0,response3disk,,5,-6.98828125,13.37109375,1,0,0,rectangle,-6.98828125,13.37109375,1,0,0,-6.98828125,13.37109375,1,0,0,0,38,38,75,1,,,,,,,,
,,,,,,,,,,,,,FF,,,,,,,,0.9327,,,,,,,,,,,,,,,,,,,,,,6102d3c05c31cb5c38158b34,61036c46f428419531f2ed6e,2021-07-29_20h09.32.433,Simcolourproject_2stim_asymm_v5,2020.2.10,MacIntel,60,61025ae37ef11b136ea224fe,,,,,,,,,3773,-79.953125,-31.140625,1,0,0,response5disk,,2,-16.33203125,4.39453125,1,0,0,rectangle,-16.33203125,4.39453125,1,0,0,-16.33203125,4.39453125,1,0,0,0,39,39,129,1,,,,,,,,
,,,,,,,,,,,,,FF,,,,,,,,0.8976,,,,,,,,,,,,,,,,,,,,,,6102d3c05c31cb5c38158b34,61036c46f428419531f2ed6e,2021-07-29_20h09.32.433,Simcolourproject_2stim_asymm_v5,2020.2.10,MacIntel,60,61025ae37ef11b136ea224fe,,,,,,,,,2270,82.27734375,54.7578125,1,0,0,response1disk,,6,15.6953125,4.42578125,1,0,0,rectangle,15.6953125,4.42578125,1,0,0,15.6953125,4.42578125,1,0,0,0,40,40,76,1,,,,,,,,
,,,,,,,,,,,,,FF,,,,,,,,1.9996,,,,,,,,,,,,,,,,,,,,,,6102d3c05c31cb5c38158b34,61036c46f428419531f2ed6e,2021-07-29_20h09.32.433,Simcolourproject_2stim_asymm_v5,2020.2.10,MacIntel,60,61025ae37ef11b136ea224fe,,,,,,,,,1774,74.05078125,-24.45703125,1,0,0,response3disk,,5,4.8515625,7.328125,1,0,0,rectangle,4.8515625,7.328125,1,0,0,4.8515625,7.328125,1,0,0,0,41,41,23,1,,,,,,,,
,,,,,,,,,,,,,FF,,,,,,,,0.984,,,,,,,,,,,,,,,,,,,,,,6102d3c05c31cb5c38158b34,61036c46f428419531f2ed6e,2021-07-29_20h09.32.433,Simcolourproject_2stim_asymm_v5,2020.2.10,MacIntel,60,61025ae37ef11b136ea224fe,,,,,,,,,543,-32.1484375,71.58984375,1,0,0,response7disk,,0,12.92578125,-1.0703125,1,0,0,rectangle,12.92578125,-1.0703125,1,0,0,12.92578125,-1.0703125,1,0,0,0,42,42,43,1,,,,,,,,
,,,,,,,,,,,,,FF,,,,,,,,1.2193,,,,,,,,,,,,,,,,,,,,,,6102d3c05c31cb5c38158b34,61036c46f428419531f2ed6e,2021-07-29_20h09.32.433,Simcolourproject_2stim_asymm_v5,2020.2.10,MacIntel,60,61025ae37ef11b136ea224fe,,,,,,,,,864,33.7421875,-87.6953125,1,0,0,response3disk,,4,3.03125,-17.515625,1,0,0,rectangle,3.03125,-17.515625,1,0,0,3.03125,-17.515625,1,0,0,0,43,43,79,1,,,,,,,,
,,,,,,,,,,,,,FF,,,,,,,,1.6177,,,,,,,,,,,,,,,,,,,,,,6102d3c05c31cb5c38158b34,61036c46f428419531f2ed6e,2021-07-29_20h09.32.433,Simcolourproject_2stim_asymm_v5,2020.2.10,MacIntel,60,61025ae37ef11b136ea224fe,,,,,,,,,769,70.98046875,47.69140625,1,0,0,response1disk,,6,7.0234375,-1.6796875,1,0,0,rectangle,7.0234375,-1.6796875,1,0,0,7.0234375,-1.6796875,1,0,0,0,44,44,2,1,,,,,,,,
,,,,,,,,,,,,,FF,,,,,,,,1.4002,,,,,,,,,,,,,,,,,,,,,,6102d3c05c31cb5c38158b34,61036c46f428419531f2ed6e,2021-07-29_20h09.32.433,Simcolourproject_2stim_asymm_v5,2020.2.10,MacIntel,60,61025ae37ef11b136ea224fe,,,,,,,,,4033,-40.875,-92.6875,1,0,0,response5disk,,3,0.8359375,0.76953125,1,0,0,rectangle,0.8359375,0.76953125,1,0,0,0.8359375,0.76953125,1,0,0,0,45,45,74,1,,,,,,,,
,,,,,,,,,,,,,FF,,,,,,,,1.0831,,,,,,,,,,,,,,,,,,,,,,6102d3c05c31cb5c38158b34,61036c46f428419531f2ed6e,2021-07-29_20h09.32.433,Simcolourproject_2stim_asymm_v5,2020.2.10,MacIntel,60,61025ae37ef11b136ea224fe,,,,,,,,,4210,56.578125,79.0859375,1,0,0,response1disk,,7,6.87890625,-4.0390625,1,0,0,rectangle,6.87890625,-4.0390625,1,0,0,6.87890625,-4.0390625,1,0,0,0,46,46,71,1,,,,,,,,
,,,,,,,,,,,,,FF,,,,,,,,1.5148,,,,,,,,,,,,,,,,,,,,,,6102d3c05c31cb5c38158b34,61036c46f428419531f2ed6e,2021-07-29_20h09.32.433,Simcolourproject_2stim_asymm_v5,2020.2.10,MacIntel,60,61025ae37ef11b136ea224fe,,,,,,,,,3666,35.859375,85.5546875,1,0,0,response1disk,,7,0.03515625,6.73828125,1,0,0,rectangle,0.03515625,6.73828125,1,0,0,0.03515625,6.73828125,1,0,0,0,47,47,123,1,,,,,,,,
,,,,,,,,,,,,,FF,,,,,,,,2.4862,,,,,,,,,,,,,,,,,,,,,,6102d3c05c31cb5c38158b34,61036c46f428419531f2ed6e,2021-07-29_20h09.32.433,Simcolourproject_2stim_asymm_v5,2020.2.10,MacIntel,60,61025ae37ef11b136ea224fe,,,,,,,,,2394,100.2539063,41.5703125,1,0,0,response1disk,,6,6.984375,4.21484375,1,0,0,rectangle,6.984375,4.21484375,1,0,0,6.984375,4.21484375,1,0,0,0,48,48,28,1,,,,,,,,
,,,,,,,,,,,,,FF,,,,,,,,0.8666,,,,,,,,,,,,,,,,,,,,,,6102d3c05c31cb5c38158b34,61036c46f428419531f2ed6e,2021-07-29_20h09.32.433,Simcolourproject_2stim_asymm_v5,2020.2.10,MacIntel,60,61025ae37ef11b136ea224fe,,,,,,,,,3384,-78.20703125,30.984375,1,0,0,response7disk,,1,8.2265625,-3.01953125,1,0,0,rectangle,8.2265625,-3.01953125,1,0,0,8.2265625,-3.01953125,1,0,0,0,49,49,141,1,,,,,,,,
,,,,,,,,,,,,,FF,,,,,,,,0.7494,,,,,,,,,,,,,,,,,,,,,,6102d3c05c31cb5c38158b34,61036c46f428419531f2ed6e,2021-07-29_20h09.32.433,Simcolourproject_2stim_asymm_v5,2020.2.10,MacIntel,60,61025ae37ef11b136ea224fe,,,,,,,,,542,43.9921875,91.01953125,1,0,0,response1disk,,7,-1.3046875,-1.453125,1,0,0,rectangle,-1.3046875,-1.453125,1,0,0,-1.3046875,-1.453125,1,0,0,0,50,50,124,1,,,,,,,,
,,,,,,,,,,,,,FF,,,,,,,,1.2678,,,,,,,,,,,,,,,,,,,,,,6102d3c05c31cb5c38158b34,61036c46f428419531f2ed6e,2021-07-29_20h09.32.433,Simcolourproject_2stim_asymm_v5,2020.2.10,MacIntel,60,61025ae37ef11b136ea224fe,,,,,,,,,509,37.51171875,96.5546875,1,0,0,response1disk,,7,4.625,9.10546875,1,0,0,rectangle,4.625,9.10546875,1,0,0,4.625,9.10546875,1,0,0,0,51,51,107,1,,,,,,,,
,,,,,,,,,,,,,FF,,,,,,,,1.3173,,,,,,,,,,,,,,,,,,,,,,6102d3c05c31cb5c38158b34,61036c46f428419531f2ed6e,2021-07-29_20h09.32.433,Simcolourproject_2stim_asymm_v5,2020.2.10,MacIntel,60,61025ae37ef11b136ea224fe,,,,,,,,,1941,92.95703125,-47.1015625,1,0,0,response3disk,,5,-11.66796875,-0.33203125,1,0,0,rectangle,-11.66796875,-0.33203125,1,0,0,-11.66796875,-0.33203125,1,0,0,0,52,52,31,1,,,,,,,,
,,,,,,,,,,,,,FF,,,,,,,,1.5678,,,,,,,,,,,,,,,,,,,,,,6102d3c05c31cb5c38158b34,61036c46f428419531f2ed6e,2021-07-29_20h09.32.433,Simcolourproject_2stim_asymm_v5,2020.2.10,MacIntel,60,61025ae37ef11b136ea224fe,,,,,,,,,529,-78.19921875,-44.3046875,1,0,0,response5disk,,2,21.15625,14.43359375,1,0,0,rectangle,21.15625,14.43359375,1,0,0,21.15625,14.43359375,1,0,0,0,53,53,112,1,,,,,,,,
,,,,,,,,,,,,,FF,,,,,,,,1.1317,,,,,,,,,,,,,,,,,,,,,,6102d3c05c31cb5c38158b34,61036c46f428419531f2ed6e,2021-07-29_20h09.32.433,Simcolourproject_2stim_asymm_v5,2020.2.10,MacIntel,60,61025ae37ef11b136ea224fe,,,,,,,,,147,86.7109375,20.5703125,1,0,0,response1disk,,6,-14.3203125,-14.5234375,1,0,0,rectangle,-14.3203125,-14.5234375,1,0,0,-14.3203125,-14.5234375,1,0,0,0,54,54,149,1,,,,,,,,
,,,,,,,,,,,,,FF,,,,,,,,0.848,,,,,,,,,,,,,,,,,,,,,,6102d3c05c31cb5c38158b34,61036c46f428419531f2ed6e,2021-07-29_20h09.32.433,Simcolourproject_2stim_asymm_v5,2020.2.10,MacIntel,60,61025ae37ef11b136ea224fe,,,,,,,,,2272,77.10546875,54.84765625,1,0,0,response1disk,,6,11.66796875,4.0703125,1,0,0,rectangle,11.66796875,4.0703125,1,0,0,11.66796875,4.0703125,1,0,0,0,55,55,72,1,,,,,,,,
,,,,,,,,,,,,,FF,,,,,,,,0.7491,,,,,,,,,,,,,,,,,,,,,,6102d3c05c31cb5c38158b34,61036c46f428419531f2ed6e,2021-07-29_20h09.32.433,Simcolourproject_2stim_asymm_v5,2020.2.10,MacIntel,60,61025ae37ef11b136ea224fe,,,,,,,,,3669,-53.32421875,65.83203125,1,0,0,response7disk,,0,-10.5703125,3.46484375,1,0,0,rectangle,-10.5703125,3.46484375,1,0,0,-10.5703125,3.46484375,1,0,0,0,56,56,131,1,,,,,,,,
,,,,,,,,,,,,,FF,,,,,,,,1.3186,,,,,,,,,,,,,,,,,,,,,,6102d3c05c31cb5c38158b34,61036c46f428419531f2ed6e,2021-07-29_20h09.32.433,Simcolourproject_2stim_asymm_v5,2020.2.10,MacIntel,60,61025ae37ef11b136ea224fe,,,,,,,,,74,56.6484375,-91.44140625,1,0,0,response3disk,,4,13.68359375,-8.3671875,1,0,0,rectangle,13.68359375,-8.3671875,1,0,0,13.68359375,-8.3671875,1,0,0,0,57,57,91,1,,,,,,,,
,,,,,,,,,,,,,FF,,,,,,,,0.9349,,,,,,,,,,,,,,,,,,,,,,6102d3c05c31cb5c38158b34,61036c46f428419531f2ed6e,2021-07-29_20h09.32.433,Simcolourproject_2stim_asymm_v5,2020.2.10,MacIntel,60,61025ae37ef11b136ea224fe,,,,,,,,,3374,-70.37109375,-36.4296875,1,0,0,response5disk,,2,-5.56640625,-1.734375,1,0,0,rectangle,-5.56640625,-1.734375,1,0,0,-5.56640625,-1.734375,1,0,0,0,58,58,98,1,,,,,,,,
,,,,,,,,,,,,,FF,,,,,,,,0.9156,,,,,,,,,,,,,,,,,,,,,,6102d3c05c31cb5c38158b34,61036c46f428419531f2ed6e,2021-07-29_20h09.32.433,Simcolourproject_2stim_asymm_v5,2020.2.10,MacIntel,60,61025ae37ef11b136ea224fe,,,,,,,,,132,83.94921875,50.13671875,1,0,0,response1disk,,6,3.85546875,-12.53125,1,0,0,rectangle,3.85546875,-12.53125,1,0,0,3.85546875,-12.53125,1,0,0,0,59,59,128,1,,,,,,,,
,,,,,,,,,,,,,FF,,,,,,,,0.8162,,,,,,,,,,,,,,,,,,,,,,6102d3c05c31cb5c38158b34,61036c46f428419531f2ed6e,2021-07-29_20h09.32.433,Simcolourproject_2stim_asymm_v5,2020.2.10,MacIntel,60,61025ae37ef11b136ea224fe,,,,,,,,,2064,78.84375,36.9609375,1,0,0,response1disk,,6,-1.32421875,0.53515625,1,0,0,rectangle,-1.32421875,0.53515625,1,0,0,-1.32421875,0.53515625,1,0,0,0,60,60,14,1,,,,,,,,
,,,,,,,,,,,,,FF,,,,,,,,1.1,,,,,,,,,,,,,,,,,,,,,,6102d3c05c31cb5c38158b34,61036c46f428419531f2ed6e,2021-07-29_20h09.32.433,Simcolourproject_2stim_asymm_v5,2020.2.10,MacIntel,60,61025ae37ef11b136ea224fe,,,,,,,,,2657,-41.109375,-104.4882813,1,0,0,response5disk,,3,23.36328125,-3.15625,1,0,0,rectangle,23.36328125,-3.15625,1,0,0,23.36328125,-3.15625,1,0,0,0,61,61,17,1,,,,,,,,
,,,,,,,,,,,,,FF,,,,,,,,2.1334,,,,,,,,,,,,,,,,,,,,,,6102d3c05c31cb5c38158b34,61036c46f428419531f2ed6e,2021-07-29_20h09.32.433,Simcolourproject_2stim_asymm_v5,2020.2.10,MacIntel,60,61025ae37ef11b136ea224fe,,,,,,,,,1649,31.6953125,62.2421875,1,0,0,response1disk,,7,-12.2421875,0.390625,1,0,0,rectangle,-12.2421875,0.390625,1,0,0,-12.2421875,0.390625,1,0,0,0,62,62,15,1,,,,,,,,
,,,,,,,,,,,,,FF,,,,,,,,1.0819,,,,,,,,,,,,,,,,,,,,,,6102d3c05c31cb5c38158b34,61036c46f428419531f2ed6e,2021-07-29_20h09.32.433,Simcolourproject_2stim_asymm_v5,2020.2.10,MacIntel,60,61025ae37ef11b136ea224fe,,,,,,,,,2077,92.5078125,32.6796875,1,0,0,response1disk,,6,12.8671875,0.73828125,1,0,0,rectangle,12.8671875,0.73828125,1,0,0,12.8671875,0.73828125,1,0,0,0,63,63,117,1,,,,,,,,
,,,,,,,,,,,,,FF,,,,,,,,1.3671,,,,,,,,,,,,,,,,,,,,,,6102d3c05c31cb5c38158b34,61036c46f428419531f2ed6e,2021-07-29_20h09.32.433,Simcolourproject_2stim_asymm_v5,2020.2.10,MacIntel,60,61025ae37ef11b136ea224fe,,,,,,,,,2799,-43.484375,-80.00390625,1,0,0,response5disk,,3,-16.921875,-2.53515625,1,0,0,rectangle,-16.921875,-2.53515625,1,0,0,-16.921875,-2.53515625,1,0,0,0,64,64,95,1,,,,,,,,
,,,,,,,,,,,,,FF,,,,,,,,1.0671,,,,,,,,,,,,,,,,,,,,,,6102d3c05c31cb5c38158b34,61036c46f428419531f2ed6e,2021-07-29_20h09.32.433,Simcolourproject_2stim_asymm_v5,2020.2.10,MacIntel,60,61025ae37ef11b136ea224fe,,,,,,,,,2363,-63.234375,31.2109375,1,0,0,response7disk,,1,9.76171875,-13.55078125,1,0,0,rectangle,53.96875,-78.42578125,1,0,0,9.203125,-5.4140625,1,0,0,0,65,65,13,1,,response3disk_3,TRUE,4,4,"[66,227,20,202,116,229,134,206,160,15,116,228,308,194,289,121,85,275,32,293]",1.7021,rectangle
,,,,,,,,,,,,,FF,,,,,,,,1.9168,,,,,,,,,,,,,,,,,,,,,,6102d3c05c31cb5c38158b34,61036c46f428419531f2ed6e,2021-07-29_20h09.32.433,Simcolourproject_2stim_asymm_v5,2020.2.10,MacIntel,60,61025ae37ef11b136ea224fe,,,,,,,,,3753,-47.1484375,-87.51171875,1,0,0,response5disk,,3,-1.51171875,-4.32421875,1,0,0,rectangle,-1.51171875,-4.32421875,1,0,0,-1.51171875,-4.32421875,1,0,0,0,66,66,20,1,,,,,,,,
,,,,,,,,,,,,,FF,,,,,,,,1.1,,,,,,,,,,,,,,,,,,,,,,6102d3c05c31cb5c38158b34,61036c46f428419531f2ed6e,2021-07-29_20h09.32.433,Simcolourproject_2stim_asymm_v5,2020.2.10,MacIntel,60,61025ae37ef11b136ea224fe,,,,,,,,,1767,42.64453125,-75.84375,1,0,0,response3disk,,4,2.64453125,-12.84765625,1,0,0,rectangle,2.64453125,-12.84765625,1,0,0,2.64453125,-12.84765625,1,0,0,0,67,67,146,1,,,,,,,,
,,,,,,,,,,,,,FF,,,,,,,,1.0336,,,,,,,,,,,,,,,,,,,,,,6102d3c05c31cb5c38158b34,61036c46f428419531f2ed6e,2021-07-29_20h09.32.433,Simcolourproject_2stim_asymm_v5,2020.2.10,MacIntel,60,61025ae37ef11b136ea224fe,,,,,,,,,2897,28.03125,-82.37890625,1,0,0,response3disk,,4,4.109375,-1.8671875,1,0,0,rectangle,4.109375,-1.8671875,1,0,0,4.109375,-1.8671875,1,0,0,0,68,68,103,1,,,,,,,,
,,,,,,,,,,,,,FF,,,,,,,,0.9003,,,,,,,,,,,,,,,,,,,,,,6102d3c05c31cb5c38158b34,61036c46f428419531f2ed6e,2021-07-29_20h09.32.433,Simcolourproject_2stim_asymm_v5,2020.2.10,MacIntel,60,61025ae37ef11b136ea224fe,,,,,,,,,3820,-95.2890625,-62.71875,1,0,0,response5disk,,2,-19.234375,-7.8359375,1,0,0,rectangle,-19.234375,-7.8359375,1,0,0,-19.234375,-7.8359375,1,0,0,0,69,69,6,1,,,,,,,,
,,,,,,,,,,,,,FF,,,,,,,,0.7684,,,,,,,,,,,,,,,,,,,,,,6102d3c05c31cb5c38158b34,61036c46f428419531f2ed6e,2021-07-29_20h09.32.433,Simcolourproject_2stim_asymm_v5,2020.2.10,MacIntel,60,61025ae37ef11b136ea224fe,,,,,,,,,1745,-72.2890625,36.89453125,1,0,0,response7disk,,1,19.6328125,5.21875,1,0,0,rectangle,19.6328125,5.21875,1,0,0,19.6328125,5.21875,1,0,0,0,70,70,87,1,,,,,,,,
,,,,,,,,,,,,,FF,,,,,,,,0.6834,,,,,,,,,,,,,,,,,,,,,,6102d3c05c31cb5c38158b34,61036c46f428419531f2ed6e,2021-07-29_20h09.32.433,Simcolourproject_2stim_asymm_v5,2020.2.10,MacIntel,60,61025ae37ef11b136ea224fe,,,,,,,,,1213,-68.28125,32.9375,1,0,0,response7disk,,1,-0.02734375,-3.98828125,1,0,0,rectangle,-0.02734375,-3.98828125,1,0,0,-0.02734375,-3.98828125,1,0,0,0,71,71,148,1,,,,,,,,
,,,,,,,,,,,,,FF,,,,,,,,1.2185,,,,,,,,,,,,,,,,,,,,,,6102d3c05c31cb5c38158b34,61036c46f428419531f2ed6e,2021-07-29_20h09.32.433,Simcolourproject_2stim_asymm_v5,2020.2.10,MacIntel,60,61025ae37ef11b136ea224fe,,,,,,,,,1056,-71.8046875,28.20703125,1,0,0,response7disk,,1,-20.91796875,15.59375,1,0,0,rectangle,-20.91796875,15.59375,1,0,0,-20.91796875,15.59375,1,0,0,0,72,72,82,1,,,,,,,,
,,,,,,,,,,,,,FF,,,,,,,,0.9866,,,,,,,,,,,,,,,,,,,,,,6102d3c05c31cb5c38158b34,61036c46f428419531f2ed6e,2021-07-29_20h09.32.433,Simcolourproject_2stim_asymm_v5,2020.2.10,MacIntel,60,61025ae37ef11b136ea224fe,,,,,,,,,3832,97.390625,-29.171875,1,0,0,response3disk,,5,5.90625,7.3203125,1,0,0,rectangle,5.90625,7.3203125,1,0,0,5.90625,7.3203125,1,0,0,0,73,73,97,1,,,,,,,,
,,,,,,,,,,,,,FF,,,,,,,,1.5017,,,,,,,,,,,,,,,,,,,,,,6102d3c05c31cb5c38158b34,61036c46f428419531f2ed6e,2021-07-29_20h09.32.433,Simcolourproject_2stim_asymm_v5,2020.2.10,MacIntel,60,61025ae37ef11b136ea224fe,,,,,,,,,995,86.8125,-48.7890625,1,0,0,response3disk,,5,0.87890625,9.5859375,1,0,0,rectangle,0.87890625,9.5859375,1,0,0,0.87890625,9.5859375,1,0,0,0,74,74,49,1,,,,,,,,
,,,,,,,,,,,,,FF,,,,,,,,1.6497,,,,,,,,,,,,,,,,,,,,,,6102d3c05c31cb5c38158b34,61036c46f428419531f2ed6e,2021-07-29_20h09.32.433,Simcolourproject_2stim_asymm_v5,2020.2.10,MacIntel,60,61025ae37ef11b136ea224fe,,,,,,,,,1166,-24.2578125,-84.4453125,1,0,0,response5disk,,3,-1.70703125,-8.02734375,1,0,0,rectangle,-1.70703125,-8.02734375,1,0,0,-1.70703125,-8.02734375,1,0,0,0,75,75,100,1,,,,,,,,
,,,,,,,,,,,,,FF,,,,,,,,1.133,,,,,,,,,,,,,,,,,,,,,,6102d3c05c31cb5c38158b34,61036c46f428419531f2ed6e,2021-07-29_20h09.32.433,Simcolourproject_2stim_asymm_v5,2020.2.10,MacIntel,60,61025ae37ef11b136ea224fe,,,,,,,,,1241,69.3046875,-55.40625,1,0,0,response3disk,,5,-6.17578125,7.6015625,1,0,0,rectangle,-6.17578125,7.6015625,1,0,0,-6.17578125,7.6015625,1,0,0,0,76,76,88,1,,,,,,,,
,,,,,,,,,,,,,FF,,,,,,,,0.9335,,,,,,,,,,,,,,,,,,,,,,6102d3c05c31cb5c38158b34,61036c46f428419531f2ed6e,2021-07-29_20h09.32.433,Simcolourproject_2stim_asymm_v5,2020.2.10,MacIntel,60,61025ae37ef11b136ea224fe,,,,,,,,,255,-53.640625,-84.4453125,1,0,0,response5disk,,3,-7.4453125,-0.98046875,1,0,0,rectangle,-7.4453125,-0.98046875,1,0,0,-7.4453125,-0.98046875,1,0,0,0,77,77,106,1,,,,,,,,
,,,,,,,,,,,,,FF,,,,,,,,0.7498,,,,,,,,,,,,,,,,,,,,,,6102d3c05c31cb5c38158b34,61036c46f428419531f2ed6e,2021-07-29_20h09.32.433,Simcolourproject_2stim_asymm_v5,2020.2.10,MacIntel,60,61025ae37ef11b136ea224fe,,,,,,,,,3241,39.7734375,73.171875,1,0,0,response1disk,,7,28.8828125,-6.39453125,1,0,0,rectangle,28.8828125,-6.39453125,1,0,0,28.8828125,-6.39453125,1,0,0,0,78,78,11,1,,,,,,,,
,,,,,,,,,,,,,FF,,,,,,,,1.7347,,,,,,,,,,,,,,,,,,,,,,6102d3c05c31cb5c38158b34,61036c46f428419531f2ed6e,2021-07-29_20h09.32.433,Simcolourproject_2stim_asymm_v5,2020.2.10,MacIntel,60,61025ae37ef11b136ea224fe,,,,,,,,,1499,96.6875,47,1,0,0,response1disk,,6,14,3.75390625,1,0,0,rectangle,14,3.75390625,1,0,0,14,3.75390625,1,0,0,0,79,79,56,1,,,,,,,,
,,,,,,,,,,,,,FF,,,,,,,,0.7346,,,,,,,,,,,,,,,,,,,,,,6102d3c05c31cb5c38158b34,61036c46f428419531f2ed6e,2021-07-29_20h09.32.433,Simcolourproject_2stim_asymm_v5,2020.2.10,MacIntel,60,61025ae37ef11b136ea224fe,,,,,,,,,4259,84.37109375,42.96484375,1,0,0,response1disk,,6,1.9140625,-7.359375,1,0,0,rectangle,1.9140625,-7.359375,1,0,0,1.9140625,-7.359375,1,0,0,0,80,80,109,1,,,,,,,,
,,,,,,,,,,,,,FF,,,,,,,,2.3162,,,,,,,,,,,,,,,,,,,,,,6102d3c05c31cb5c38158b34,61036c46f428419531f2ed6e,2021-07-29_20h09.32.433,Simcolourproject_2stim_asymm_v5,2020.2.10,MacIntel,60,61025ae37ef11b136ea224fe,,,,,,,,,820,57.3046875,41.50390625,1,0,0,response1disk,,6,-19.0078125,3.265625,1,0,0,rectangle,-19.0078125,3.265625,1,0,0,-19.0078125,3.265625,1,0,0,0,81,81,133,1,,,,,,,,
,,,,,,,,,,,,,FF,,,,,,,,0.6168,,,,,,,,,,,,,,,,,,,,,,6102d3c05c31cb5c38158b34,61036c46f428419531f2ed6e,2021-07-29_20h09.32.433,Simcolourproject_2stim_asymm_v5,2020.2.10,MacIntel,60,61025ae37ef11b136ea224fe,,,,,,,,,2124,34.9609375,68.60546875,1,0,0,response1disk,,7,-10.06640625,-15.73046875,1,0,0,rectangle,-10.06640625,-15.73046875,1,0,0,-10.06640625,-15.73046875,1,0,0,0,82,82,54,1,,,,,,,,
,,,,,,,,,,,,,FF,,,,,,,,1.5165,,,,,,,,,,,,,,,,,,,,,,6102d3c05c31cb5c38158b34,61036c46f428419531f2ed6e,2021-07-29_20h09.32.433,Simcolourproject_2stim_asymm_v5,2020.2.10,MacIntel,60,61025ae37ef11b136ea224fe,,,,,,,,,4068,93.43359375,38.36328125,1,0,0,response1disk,,6,2.91015625,-0.65234375,1,0,0,rectangle,2.91015625,-0.65234375,1,0,0,2.91015625,-0.65234375,1,0,0,0,83,83,45,1,,,,,,,,
,,,,,,,,,,,,,FF,,,,,,,,0.9819,,,,,,,,,,,,,,,,,,,,,,6102d3c05c31cb5c38158b34,61036c46f428419531f2ed6e,2021-07-29_20h09.32.433,Simcolourproject_2stim_asymm_v5,2020.2.10,MacIntel,60,61025ae37ef11b136ea224fe,,,,,,,,,3619,49.93359375,77.796875,1,0,0,response1disk,,7,0.1875,-15.01171875,1,0,0,rectangle,-37.56640625,-86.24609375,1,0,0,-14.0546875,5.1015625,1,0,0,0,84,84,127,1,,response5disk_3,TRUE,3,3,"[66,227,20,202,116,229,134,206,160,15,116,228,308,194,289,121,85,275,32,293]",1.55,rectangle
,,,,,,,,,,,,,FF,,,,,,,,0.7998,,,,,,,,,,,,,,,,,,,,,,6102d3c05c31cb5c38158b34,61036c46f428419531f2ed6e,2021-07-29_20h09.32.433,Simcolourproject_2stim_asymm_v5,2020.2.10,MacIntel,60,61025ae37ef11b136ea224fe,,,,,,,,,3457,40.1171875,83.29296875,1,0,0,response1disk,,7,-3.24609375,-5.953125,1,0,0,rectangle,-3.24609375,-5.953125,1,0,0,-3.24609375,-5.953125,1,0,0,0,85,85,145,1,,,,,,,,
,,,,,,,,,,,,,FF,,,,,,,,0.9996,,,,,,,,,,,,,,,,,,,,,,6102d3c05c31cb5c38158b34,61036c46f428419531f2ed6e,2021-07-29_20h09.32.433,Simcolourproject_2stim_asymm_v5,2020.2.10,MacIntel,60,61025ae37ef11b136ea224fe,,,,,,,,,3175,72.16796875,29.49609375,1,0,0,response1disk,,6,-9.0390625,-13.02734375,1,0,0,rectangle,-9.0390625,-13.02734375,1,0,0,-9.0390625,-13.02734375,1,0,0,0,86,86,21,1,,,,,,,,
,,,,,,,,,,,,,FF,,,,,,,,1.1514,,,,,,,,,,,,,,,,,,,,,,6102d3c05c31cb5c38158b34,61036c46f428419531f2ed6e,2021-07-29_20h09.32.433,Simcolourproject_2stim_asymm_v5,2020.2.10,MacIntel,60,61025ae37ef11b136ea224fe,,,,,,,,,2513,43.24609375,65.0234375,1,0,0,response1disk,,7,-0.796875,-11.41796875,1,0,0,rectangle,-0.796875,-11.41796875,1,0,0,-0.796875,-11.41796875,1,0,0,0,87,87,102,1,,,,,,,,
,,,,,,,,,,,,,FF,,,,,,,,0.8838,,,,,,,,,,,,,,,,,,,,,,6102d3c05c31cb5c38158b34,61036c46f428419531f2ed6e,2021-07-29_20h09.32.433,Simcolourproject_2stim_asymm_v5,2020.2.10,MacIntel,60,61025ae37ef11b136ea224fe,,,,,,,,,991,94.76171875,-33.8828125,1,0,0,response3disk,,5,6.671875,-4.30859375,1,0,0,rectangle,6.671875,-4.30859375,1,0,0,6.671875,-4.30859375,1,0,0,0,88,88,159,1,,,,,,,,
,,,,,,,,,,,,,FF,,,,,,,,1.7998,,,,,,,,,,,,,,,,,,,,,,6102d3c05c31cb5c38158b34,61036c46f428419531f2ed6e,2021-07-29_20h09.32.433,Simcolourproject_2stim_asymm_v5,2020.2.10,MacIntel,60,61025ae37ef11b136ea224fe,,,,,,,,,1881,44.52734375,79.828125,1,0,0,response1disk,,7,-2.6484375,-0.84765625,1,0,0,rectangle,-2.6484375,-0.84765625,1,0,0,-2.6484375,-0.84765625,1,0,0,0,89,89,60,1,,,,,,,,
,,,,,,,,,,,,,FF,,,,,,,,0.8993,,,,,,,,,,,,,,,,,,,,,,6102d3c05c31cb5c38158b34,61036c46f428419531f2ed6e,2021-07-29_20h09.32.433,Simcolourproject_2stim_asymm_v5,2020.2.10,MacIntel,60,61025ae37ef11b136ea224fe,,,,,,,,,2889,-79.61328125,25.9765625,1,0,0,response7disk,,1,-18.0234375,8.87109375,1,0,0,rectangle,-18.0234375,8.87109375,1,0,0,-18.0234375,8.87109375,1,0,0,0,90,90,119,1,,,,,,,,
,,,,,,,,,,,,,FF,,,,,,,,0.65,,,,,,,,,,,,,,,,,,,,,,6102d3c05c31cb5c38158b34,61036c46f428419531f2ed6e,2021-07-29_20h09.32.433,Simcolourproject_2stim_asymm_v5,2020.2.10,MacIntel,60,61025ae37ef11b136ea224fe,,,,,,,,,515,49.24609375,78.11328125,1,0,0,response1disk,,7,-0.90625,-13.35546875,1,0,0,rectangle,-0.90625,-13.35546875,1,0,0,-0.90625,-13.35546875,1,0,0,0,91,91,42,1,,,,,,,,
,,,,,,,,,,,,,FF,,,,,,,,1.1044,,,,,,,,,,,,,,,,,,,,,,6102d3c05c31cb5c38158b34,61036c46f428419531f2ed6e,2021-07-29_20h09.32.433,Simcolourproject_2stim_asymm_v5,2020.2.10,MacIntel,60,61025ae37ef11b136ea224fe,,,,,,,,,3738,-24.953125,61.7578125,1,0,0,response7disk,,0,3.11328125,4.78125,1,0,0,rectangle,3.11328125,4.78125,1,0,0,3.11328125,4.78125,1,0,0,0,92,92,73,1,,,,,,,,
,,,,,,,,,,,,,FF,,,,,,,,1.0149,,,,,,,,,,,,,,,,,,,,,,6102d3c05c31cb5c38158b34,61036c46f428419531f2ed6e,2021-07-29_20h09.32.433,Simcolourproject_2stim_asymm_v5,2020.2.10,MacIntel,60,61025ae37ef11b136ea224fe,,,,,,,,,1195,-36.77734375,-59.08203125,1,0,0,response5disk,,3,-7.859375,-7.48828125,1,0,0,rectangle,-7.859375,-7.48828125,1,0,0,-7.859375,-7.48828125,1,0,0,0,93,93,5,1,,,,,,,,
,,,,,,,,,,,,,FF,,,,,,,,0.7501,,,,,,,,,,,,,,,,,,,,,,6102d3c05c31cb5c38158b34,61036c46f428419531f2ed6e,2021-07-29_20h09.32.433,Simcolourproject_2stim_asymm_v5,2020.2.10,MacIntel,60,61025ae37ef11b136ea224fe,,,,,,,,,2231,-83.921875,-31.953125,1,0,0,response5disk,,2,5.40625,-3.12890625,1,0,0,rectangle,5.40625,-3.12890625,1,0,0,5.40625,-3.12890625,1,0,0,0,94,94,66,1,,,,,,,,
,,,,,,,,,,,,,FF,,,,,,,,0.9167,,,,,,,,,,,,,,,,,,,,,,6102d3c05c31cb5c38158b34,61036c46f428419531f2ed6e,2021-07-29_20h09.32.433,Simcolourproject_2stim_asymm_v5,2020.2.10,MacIntel,60,61025ae37ef11b136ea224fe,,,,,,,,,417,39.12109375,-74.015625,1,0,0,response3disk,,4,5.4921875,-9.296875,1,0,0,rectangle,5.4921875,-9.296875,1,0,0,5.4921875,-9.296875,1,0,0,0,95,95,116,1,,,,,,,,
,,,,,,,,,,,,,FF,,,,,,,,1.4151,,,,,,,,,,,,,,,,,,,,,,6102d3c05c31cb5c38158b34,61036c46f428419531f2ed6e,2021-07-29_20h09.32.433,Simcolourproject_2stim_asymm_v5,2020.2.10,MacIntel,60,61025ae37ef11b136ea224fe,,,,,,,,,667,75.1640625,-50.20703125,1,0,0,response3disk,,5,23.56640625,-9.05078125,1,0,0,rectangle,23.56640625,-9.05078125,1,0,0,23.56640625,-9.05078125,1,0,0,0,96,96,19,1,,,,,,,,
,,,,,,,,,,,,,FF,,,,,,,,1.1476,,,,,,,,,,,,,,,,,,,,,,6102d3c05c31cb5c38158b34,61036c46f428419531f2ed6e,2021-07-29_20h09.32.433,Simcolourproject_2stim_asymm_v5,2020.2.10,MacIntel,60,61025ae37ef11b136ea224fe,,,,,,,,,1983,71.90625,44.515625,1,0,0,response1disk,,6,1.66796875,13.5390625,1,0,0,rectangle,1.66796875,13.5390625,1,0,0,1.66796875,13.5390625,1,0,0,0,97,97,16,1,,,,,,,,
,,,,,,,,,,,,,FF,,,,,,,,1.3343,,,,,,,,,,,,,,,,,,,,,,6102d3c05c31cb5c38158b34,61036c46f428419531f2ed6e,2021-07-29_20h09.32.433,Simcolourproject_2stim_asymm_v5,2020.2.10,MacIntel,60,61025ae37ef11b136ea224fe,,,,,,,,,3829,87.60546875,33.09765625,1,0,0,response1disk,,6,4.9765625,-10.6015625,1,0,0,rectangle,4.9765625,-10.6015625,1,0,0,4.9765625,-10.6015625,1,0,0,0,98,98,70,1,,,,,,,,
,,,,,,,,,,,,,FF,,,,,,,,1.0502,,,,,,,,,,,,,,,,,,,,,,6102d3c05c31cb5c38158b34,61036c46f428419531f2ed6e,2021-07-29_20h09.32.433,Simcolourproject_2stim_asymm_v5,2020.2.10,MacIntel,60,61025ae37ef11b136ea224fe,,,,,,,,,3848,-65.97265625,39.08984375,1,0,0,response7disk,,1,2.171875,5.80078125,1,0,0,rectangle,2.171875,5.80078125,1,0,0,2.171875,5.80078125,1,0,0,0,99,99,36,1,,,,,,,,
,,,,,,,,,,,,,FF,,,,,,,,1.0343,,,,,,,,,,,,,,,,,,,,,,6102d3c05c31cb5c38158b34,61036c46f428419531f2ed6e,2021-07-29_20h09.32.433,Simcolourproject_2stim_asymm_v5,2020.2.10,MacIntel,60,61025ae37ef11b136ea224fe,,,,,,,,,779,39.8671875,84.1875,1,0,0,response1disk,,7,9.0625,-7.84765625,1,0,0,rectangle,9.0625,-7.84765625,1,0,0,9.0625,-7.84765625,1,0,0,0,100,100,90,1,,,,,,,,
,,,,,,,,,,,,,FF,,,,,,,,2.1354,,,,,,,,,,,,,,,,,,,,,,6102d3c05c31cb5c38158b34,61036c46f428419531f2ed6e,2021-07-29_20h09.32.433,Simcolourproject_2stim_asymm_v5,2020.2.10,MacIntel,60,61025ae37ef11b136ea224fe,,,,,,,,,979,80.55078125,-36.7109375,1,0,0,response3disk,,5,2.1328125,-4.27734375,1,0,0,rectangle,2.1328125,-4.27734375,1,0,0,2.1328125,-4.27734375,1,0,0,0,101,101,81,1,,,,,,,,
,,,,,,,,,,,,,FF,,,,,,,,1.4168,,,,,,,,,,,,,,,,,,,,,,6102d3c05c31cb5c38158b34,61036c46f428419531f2ed6e,2021-07-29_20h09.32.433,Simcolourproject_2stim_asymm_v5,2020.2.10,MacIntel,60,61025ae37ef11b136ea224fe,,,,,,,,,3886,24.97265625,86.58203125,1,0,0,response1disk,,7,-22.39453125,-17.9921875,1,0,0,rectangle,-22.39453125,-17.9921875,1,0,0,-22.39453125,-17.9921875,1,0,0,0,102,102,143,1,,,,,,,,
,,,,,,,,,,,,,FF,,,,,,,,1.2002,,,,,,,,,,,,,,,,,,,,,,6102d3c05c31cb5c38158b34,61036c46f428419531f2ed6e,2021-07-29_20h09.32.433,Simcolourproject_2stim_asymm_v5,2020.2.10,MacIntel,60,61025ae37ef11b136ea224fe,,,,,,,,,3265,48.66796875,-88.2890625,1,0,0,response3disk,,4,7.0546875,-9.21484375,1,0,0,rectangle,7.0546875,-9.21484375,1,0,0,7.0546875,-9.21484375,1,0,0,0,103,103,46,1,,,,,,,,
,,,,,,,,,,,,,FF,,,,,,,,1.1168,,,,,,,,,,,,,,,,,,,,,,6102d3c05c31cb5c38158b34,61036c46f428419531f2ed6e,2021-07-29_20h09.32.433,Simcolourproject_2stim_asymm_v5,2020.2.10,MacIntel,60,61025ae37ef11b136ea224fe,,,,,,,,,222,69.3984375,23.4921875,1,0,0,response1disk,,6,-6.28515625,5.390625,1,0,0,rectangle,-6.28515625,5.390625,1,0,0,-6.28515625,5.390625,1,0,0,0,104,104,157,1,,,,,,,,
,,,,,,,,,,,,,FF,,,,,,,,1.0648,,,,,,,,,,,,,,,,,,,,,,6102d3c05c31cb5c38158b34,61036c46f428419531f2ed6e,2021-07-29_20h09.32.433,Simcolourproject_2stim_asymm_v5,2020.2.10,MacIntel,60,61025ae37ef11b136ea224fe,,,,,,,,,2980,85.07421875,31.4921875,1,0,0,response1disk,,6,4.8359375,-7,1,0,0,rectangle,4.8359375,-7,1,0,0,4.8359375,-7,1,0,0,0,105,105,151,1,,,,,,,,
,,,,,,,,,,,,,FF,,,,,,,,0.818,,,,,,,,,,,,,,,,,,,,,,6102d3c05c31cb5c38158b34,61036c46f428419531f2ed6e,2021-07-29_20h09.32.433,Simcolourproject_2stim_asymm_v5,2020.2.10,MacIntel,60,61025ae37ef11b136ea224fe,,,,,,,,,1636,31.4140625,66.125,1,0,0,response1disk,,7,-0.48046875,-8.9453125,1,0,0,rectangle,-0.48046875,-8.9453125,1,0,0,-0.48046875,-8.9453125,1,0,0,0,106,106,51,1,,,,,,,,
,,,,,,,,,,,,,FF,,,,,,,,0.6492,,,,,,,,,,,,,,,,,,,,,,6102d3c05c31cb5c38158b34,61036c46f428419531f2ed6e,2021-07-29_20h09.32.433,Simcolourproject_2stim_asymm_v5,2020.2.10,MacIntel,60,61025ae37ef11b136ea224fe,,,,,,,,,3648,42.30078125,68.046875,1,0,0,response1disk,,7,11.6640625,-8.921875,1,0,0,rectangle,11.6640625,-8.921875,1,0,0,11.6640625,-8.921875,1,0,0,0,107,107,85,1,,,,,,,,
,,,,,,,,,,,,,FF,,,,,,,,1.2824,,,,,,,,,,,,,,,,,,,,,,6102d3c05c31cb5c38158b34,61036c46f428419531f2ed6e,2021-07-29_20h09.32.433,Simcolourproject_2stim_asymm_v5,2020.2.10,MacIntel,60,61025ae37ef11b136ea224fe,,,,,,,,,1534,46.86328125,-67.66796875,1,0,0,response3disk,,4,-14.265625,3.59765625,1,0,0,rectangle,-14.265625,3.59765625,1,0,0,-14.265625,3.59765625,1,0,0,0,108,108,65,1,,,,,,,,
,,,,,,,,,,,,,FF,,,,,,,,1.5484,,,,,,,,,,,,,,,,,,,,,,6102d3c05c31cb5c38158b34,61036c46f428419531f2ed6e,2021-07-29_20h09.32.433,Simcolourproject_2stim_asymm_v5,2020.2.10,MacIntel,60,61025ae37ef11b136ea224fe,,,,,,,,,2312,-43.98828125,-84.42578125,1,0,0,response5disk,,3,-0.40625,6.26171875,1,0,0,rectangle,-0.40625,6.26171875,1,0,0,-0.40625,6.26171875,1,0,0,0,109,109,154,1,,,,,,,,
,,,,,,,,,,,,,FF,,,,,,,,0.9186,,,,,,,,,,,,,,,,,,,,,,6102d3c05c31cb5c38158b34,61036c46f428419531f2ed6e,2021-07-29_20h09.32.433,Simcolourproject_2stim_asymm_v5,2020.2.10,MacIntel,60,61025ae37ef11b136ea224fe,,,,,,,,,4356,-43.64453125,50.1640625,1,0,0,response7disk,,0,-35.81640625,7.31640625,1,0,0,rectangle,-35.81640625,7.31640625,1,0,0,-35.81640625,7.31640625,1,0,0,0,110,110,38,1,,,,,,,,
,,,,,,,,,,,,,FF,,,,,,,,0.8182,,,,,,,,,,,,,,,,,,,,,,6102d3c05c31cb5c38158b34,61036c46f428419531f2ed6e,2021-07-29_20h09.32.433,Simcolourproject_2stim_asymm_v5,2020.2.10,MacIntel,60,61025ae37ef11b136ea224fe,,,,,,,,,2103,-71.2421875,-53.40625,1,0,0,response5disk,,2,-10.3125,1.63671875,1,0,0,rectangle,-10.3125,1.63671875,1,0,0,-10.3125,1.63671875,1,0,0,0,111,111,96,1,,,,,,,,
,,,,,,,,,,,,,FF,,,,,,,,0.8679,,,,,,,,,,,,,,,,,,,,,,6102d3c05c31cb5c38158b34,61036c46f428419531f2ed6e,2021-07-29_20h09.32.433,Simcolourproject_2stim_asymm_v5,2020.2.10,MacIntel,60,61025ae37ef11b136ea224fe,,,,,,,,,1445,-38.5,81.078125,1,0,0,response7disk,,0,-9.09765625,-6.1328125,1,0,0,rectangle,-9.09765625,-6.1328125,1,0,0,-9.09765625,-6.1328125,1,0,0,0,112,112,94,1,,,,,,,,
,,,,,,,,,,,,,FF,,,,,,,,1.5005,,,,,,,,,,,,,,,,,,,,,,6102d3c05c31cb5c38158b34,61036c46f428419531f2ed6e,2021-07-29_20h09.32.433,Simcolourproject_2stim_asymm_v5,2020.2.10,MacIntel,60,61025ae37ef11b136ea224fe,,,,,,,,,2929,81.25,-48.453125,1,0,0,response3disk,,5,8.046875,-0.78125,1,0,0,rectangle,8.046875,-0.78125,1,0,0,8.046875,-0.78125,1,0,0,0,113,113,104,1,,,,,,,,
,,,,,,,,,,,,,FF,,,,,,,,1.0836,,,,,,,,,,,,,,,,,,,,,,6102d3c05c31cb5c38158b34,61036c46f428419531f2ed6e,2021-07-29_20h09.32.433,Simcolourproject_2stim_asymm_v5,2020.2.10,MacIntel,60,61025ae37ef11b136ea224fe,,,,,,,,,3271,81.8515625,38.78125,1,0,0,response1disk,,6,6.82421875,0.4375,1,0,0,rectangle,6.82421875,0.4375,1,0,0,6.82421875,0.4375,1,0,0,0,114,114,37,1,,,,,,,,
,,,,,,,,,,,,,FF,,,,,,,,1.7661,,,,,,,,,,,,,,,,,,,,,,6102d3c05c31cb5c38158b34,61036c46f428419531f2ed6e,2021-07-29_20h09.32.433,Simcolourproject_2stim_asymm_v5,2020.2.10,MacIntel,60,61025ae37ef11b136ea224fe,,,,,,,,,785,18.7578125,-68.296875,1,0,0,response3disk,,4,4.55859375,-3.4609375,1,0,0,rectangle,43.63671875,-83.53125,1,0,0,4.36328125,-5.75,1,0,0,0,115,115,138,1,,response3disk_3,TRUE,4,4,"[66,227,20,202,116,229,134,206,160,15,116,228,308,194,289,121,85,275,32,293]",1.715,rectangle
,,,,,,,,,,,,,FF,,,,,,,,3.2496,,,,,,,,,,,,,,,,,,,,,,6102d3c05c31cb5c38158b34,61036c46f428419531f2ed6e,2021-07-29_20h09.32.433,Simcolourproject_2stim_asymm_v5,2020.2.10,MacIntel,60,61025ae37ef11b136ea224fe,,,,,,,,,3210,-67.1875,28.7265625,1,0,0,response7disk,,1,4.94140625,-2.5859375,1,0,0,rectangle,4.94140625,-2.5859375,1,0,0,4.94140625,-2.5859375,1,0,0,0,116,116,44,1,,,,,,,,
,,,,,,,,,,,,,FF,,,,,,,,1.2479,,,,,,,,,,,,,,,,,,,,,,6102d3c05c31cb5c38158b34,61036c46f428419531f2ed6e,2021-07-29_20h09.32.433,Simcolourproject_2stim_asymm_v5,2020.2.10,MacIntel,60,61025ae37ef11b136ea224fe,,,,,,,,,2935,35.40625,79.20703125,1,0,0,response1disk,,7,10.125,-12.6328125,1,0,0,rectangle,10.125,-12.6328125,1,0,0,10.125,-12.6328125,1,0,0,0,117,117,147,1,,,,,,,,
,,,,,,,,,,,,,FF,,,,,,,,0.8153,,,,,,,,,,,,,,,,,,,,,,6102d3c05c31cb5c38158b34,61036c46f428419531f2ed6e,2021-07-29_20h09.32.433,Simcolourproject_2stim_asymm_v5,2020.2.10,MacIntel,60,61025ae37ef11b136ea224fe,,,,,,,,,3134,108.4492188,-62.5,1,0,0,response3disk,,5,6.01953125,-0.22265625,1,0,0,rectangle,6.01953125,-0.22265625,1,0,0,6.01953125,-0.22265625,1,0,0,0,118,118,158,1,,,,,,,,
,,,,,,,,,,,,,FF,,,,,,,,0.8688,,,,,,,,,,,,,,,,,,,,,,6102d3c05c31cb5c38158b34,61036c46f428419531f2ed6e,2021-07-29_20h09.32.433,Simcolourproject_2stim_asymm_v5,2020.2.10,MacIntel,60,61025ae37ef11b136ea224fe,,,,,,,,,1756,-76.7109375,-44.51171875,1,0,0,response5disk,,2,11.56640625,-14.75390625,1,0,0,rectangle,11.56640625,-14.75390625,1,0,0,11.56640625,-14.75390625,1,0,0,0,119,119,121,1,,,,,,,,
,,,,,,,,,,,,,FF,,,,,,,,0.8004,,,,,,,,,,,,,,,,,,,,,,6102d3c05c31cb5c38158b34,61036c46f428419531f2ed6e,2021-07-29_20h09.32.433,Simcolourproject_2stim_asymm_v5,2020.2.10,MacIntel,60,61025ae37ef11b136ea224fe,,,,,,,,,212,83.30859375,-30.6875,1,0,0,response3disk,,5,5.42578125,5.453125,1,0,0,rectangle,-52.97265625,-73.734375,1,0,0,-10.875,-7.5078125,1,0,0,0,120,120,115,1,,response5disk_3,TRUE,3,3,"[66,227,20,202,116,229,134,206,160,15,116,228,308,194,289,121,85,275,32,293]",1.5682,rectangle
,,,,,,,,,,,,,FF,,,,,,,,0.75,,,,,,,,,,,,,,,,,,,,,,6102d3c05c31cb5c38158b34,61036c46f428419531f2ed6e,2021-07-29_20h09.32.433,Simcolourproject_2stim_asymm_v5,2020.2.10,MacIntel,60,61025ae37ef11b136ea224fe,,,,,,,,,3391,-29.58203125,70.91796875,1,0,0,response7disk,,0,-0.6796875,-5.09765625,1,0,0,rectangle,-0.6796875,-5.09765625,1,0,0,-0.6796875,-5.09765625,1,0,0,0,121,121,40,1,,,,,,,,
,,,,,,,,,,,,,FF,,,,,,,,0.8149,,,,,,,,,,,,,,,,,,,,,,6102d3c05c31cb5c38158b34,61036c46f428419531f2ed6e,2021-07-29_20h09.32.433,Simcolourproject_2stim_asymm_v5,2020.2.10,MacIntel,60,61025ae37ef11b136ea224fe,,,,,,,,,1199,-45.58203125,-74.8515625,1,0,0,response5disk,,3,-4.88671875,1.7265625,1,0,0,rectangle,-4.88671875,1.7265625,1,0,0,-4.88671875,1.7265625,1,0,0,0,122,122,132,1,,,,,,,,
,,,,,,,,,,,,,FF,,,,,,,,1.5198,,,,,,,,,,,,,,,,,,,,,,6102d3c05c31cb5c38158b34,61036c46f428419531f2ed6e,2021-07-29_20h09.32.433,Simcolourproject_2stim_asymm_v5,2020.2.10,MacIntel,60,61025ae37ef11b136ea224fe,,,,,,,,,735,34.67578125,-72.95703125,1,0,0,response3disk,,4,6.15625,-6.4921875,1,0,0,rectangle,6.15625,-6.4921875,1,0,0,6.15625,-6.4921875,1,0,0,0,123,123,55,1,,,,,,,,
,,,,,,,,,,,,,FF,,,,,,,,0.9163,,,,,,,,,,,,,,,,,,,,,,6102d3c05c31cb5c38158b34,61036c46f428419531f2ed6e,2021-07-29_20h09.32.433,Simcolourproject_2stim_asymm_v5,2020.2.10,MacIntel,60,61025ae37ef11b136ea224fe,,,,,,,,,1775,90.72265625,-47.87890625,1,0,0,response3disk,,5,17.4609375,-5.328125,1,0,0,rectangle,17.4609375,-5.328125,1,0,0,17.4609375,-5.328125,1,0,0,0,124,124,86,1,,,,,,,,
,,,,,,,,,,,,,FF,,,,,,,,1.1341,,,,,,,,,,,,,,,,,,,,,,6102d3c05c31cb5c38158b34,61036c46f428419531f2ed6e,2021-07-29_20h09.32.433,Simcolourproject_2stim_asymm_v5,2020.2.10,MacIntel,60,61025ae37ef11b136ea224fe,,,,,,,,,2701,92.78515625,44.7421875,1,0,0,response1disk,,6,12.78125,-3.75,1,0,0,rectangle,12.78125,-3.75,1,0,0,12.78125,-3.75,1,0,0,0,125,125,62,1,,,,,,,,
,,,,,,,,,,,,,FF,,,,,,,,0.9487,,,,,,,,,,,,,,,,,,,,,,6102d3c05c31cb5c38158b34,61036c46f428419531f2ed6e,2021-07-29_20h09.32.433,Simcolourproject_2stim_asymm_v5,2020.2.10,MacIntel,60,61025ae37ef11b136ea224fe,,,,,,,,,3430,-26.0546875,-80.640625,1,0,0,response5disk,,3,3.48828125,-4.8515625,1,0,0,rectangle,3.48828125,-4.8515625,1,0,0,3.48828125,-4.8515625,1,0,0,0,126,126,18,1,,,,,,,,
,,,,,,,,,,,,,FF,,,,,,,,0.8001,,,,,,,,,,,,,,,,,,,,,,6102d3c05c31cb5c38158b34,61036c46f428419531f2ed6e,2021-07-29_20h09.32.433,Simcolourproject_2stim_asymm_v5,2020.2.10,MacIntel,60,61025ae37ef11b136ea224fe,,,,,,,,,1787,85.390625,-40.50390625,1,0,0,response3disk,,5,14.44140625,5.34375,1,0,0,rectangle,14.44140625,5.34375,1,0,0,14.44140625,5.34375,1,0,0,0,127,127,140,1,,,,,,,,
,,,,,,,,,,,,,FF,,,,,,,,2.1371,,,,,,,,,,,,,,,,,,,,,,6102d3c05c31cb5c38158b34,61036c46f428419531f2ed6e,2021-07-29_20h09.32.433,Simcolourproject_2stim_asymm_v5,2020.2.10,MacIntel,60,61025ae37ef11b136ea224fe,,,,,,,,,957,31.48828125,-79.57421875,1,0,0,response3disk,,4,9.9453125,-1.1015625,1,0,0,rectangle,9.9453125,-1.1015625,1,0,0,9.9453125,-1.1015625,1,0,0,0,128,128,10,1,,,,,,,,
,,,,,,,,,,,,,FF,,,,,,,,0.8332,,,,,,,,,,,,,,,,,,,,,,6102d3c05c31cb5c38158b34,61036c46f428419531f2ed6e,2021-07-29_20h09.32.433,Simcolourproject_2stim_asymm_v5,2020.2.10,MacIntel,60,61025ae37ef11b136ea224fe,,,,,,,,,3166,77.62890625,-34.2578125,1,0,0,response3disk,,5,14.98046875,-1.1171875,1,0,0,rectangle,14.98046875,-1.1171875,1,0,0,14.98046875,-1.1171875,1,0,0,0,129,129,63,1,,,,,,,,
,,,,,,,,,,,,,FF,,,,,,,,1.4335,,,,,,,,,,,,,,,,,,,,,,6102d3c05c31cb5c38158b34,61036c46f428419531f2ed6e,2021-07-29_20h09.32.433,Simcolourproject_2stim_asymm_v5,2020.2.10,MacIntel,60,61025ae37ef11b136ea224fe,,,,,,,,,3900,55.5390625,-70.8125,1,0,0,response3disk,,4,23.9375,16.38671875,1,0,0,rectangle,23.9375,16.38671875,1,0,0,23.9375,16.38671875,1,0,0,0,130,130,89,1,,,,,,,,
,,,,,,,,,,,,,FF,,,,,,,,1.0334,,,,,,,,,,,,,,,,,,,,,,6102d3c05c31cb5c38158b34,61036c46f428419531f2ed6e,2021-07-29_20h09.32.433,Simcolourproject_2stim_asymm_v5,2020.2.10,MacIntel,60,61025ae37ef11b136ea224fe,,,,,,,,,1051,-45.48828125,79.36328125,1,0,0,response7disk,,0,8.421875,-17.04296875,1,0,0,rectangle,8.421875,-17.04296875,1,0,0,8.421875,-17.04296875,1,0,0,0,131,131,53,1,,,,,,,,
,,,,,,,,,,,,,FF,,,,,,,,0.897,,,,,,,,,,,,,,,,,,,,,,6102d3c05c31cb5c38158b34,61036c46f428419531f2ed6e,2021-07-29_20h09.32.433,Simcolourproject_2stim_asymm_v5,2020.2.10,MacIntel,60,61025ae37ef11b136ea224fe,,,,,,,,,1103,48.0703125,80.921875,1,0,0,response1disk,,7,10.01953125,7.22265625,1,0,0,rectangle,10.01953125,7.22265625,1,0,0,10.01953125,7.22265625,1,0,0,0,132,132,64,1,,,,,,,,
,,,,,,,,,,,,,FF,,,,,,,,1.3161,,,,,,,,,,,,,,,,,,,,,,6102d3c05c31cb5c38158b34,61036c46f428419531f2ed6e,2021-07-29_20h09.32.433,Simcolourproject_2stim_asymm_v5,2020.2.10,MacIntel,60,61025ae37ef11b136ea224fe,,,,,,,,,404,63.953125,38.875,1,0,0,response1disk,,6,17.23828125,-12.14453125,1,0,0,rectangle,28.265625,-95.16015625,1,0,0,-4.84765625,-10.03125,1,0,0,0,133,133,99,1,,response3disk_3,TRUE,4,4,"[66,227,20,202,116,229,134,206,160,15,116,228,308,194,289,121,85,275,32,293]",1.9005,rectangle
,,,,,,,,,,,,,FF,,,,,,,,1.1986,,,,,,,,,,,,,,,,,,,,,,6102d3c05c31cb5c38158b34,61036c46f428419531f2ed6e,2021-07-29_20h09.32.433,Simcolourproject_2stim_asymm_v5,2020.2.10,MacIntel,60,61025ae37ef11b136ea224fe,,,,,,,,,3424,58.5,97.01953125,1,0,0,response1disk,,7,-6.67578125,-5.95703125,1,0,0,rectangle,-6.67578125,-5.95703125,1,0,0,-6.67578125,-5.95703125,1,0,0,0,134,134,78,1,,,,,,,,
,,,,,,,,,,,,,FF,,,,,,,,1.1002,,,,,,,,,,,,,,,,,,,,,,6102d3c05c31cb5c38158b34,61036c46f428419531f2ed6e,2021-07-29_20h09.32.433,Simcolourproject_2stim_asymm_v5,2020.2.10,MacIntel,60,61025ae37ef11b136ea224fe,,,,,,,,,3953,73.5859375,32.30078125,1,0,0,response1disk,,6,-1.03515625,1.22265625,1,0,0,rectangle,-1.03515625,1.22265625,1,0,0,-1.03515625,1.22265625,1,0,0,0,135,135,32,1,,,,,,,,
,,,,,,,,,,,,,FF,,,,,,,,0.8358,,,,,,,,,,,,,,,,,,,,,,6102d3c05c31cb5c38158b34,61036c46f428419531f2ed6e,2021-07-29_20h09.32.433,Simcolourproject_2stim_asymm_v5,2020.2.10,MacIntel,60,61025ae37ef11b136ea224fe,,,,,,,,,2811,94.828125,28.75,1,0,0,response1disk,,6,5.54296875,-4.63671875,1,0,0,rectangle,5.54296875,-4.63671875,1,0,0,5.54296875,-4.63671875,1,0,0,0,136,136,3,1,,,,,,,,
,,,,,,,,,,,,,FF,,,,,,,,0.887,,,,,,,,,,,,,,,,,,,,,,6102d3c05c31cb5c38158b34,61036c46f428419531f2ed6e,2021-07-29_20h09.32.433,Simcolourproject_2stim_asymm_v5,2020.2.10,MacIntel,60,61025ae37ef11b136ea224fe,,,,,,,,,4130,51.4296875,-77.49609375,1,0,0,response3disk,,4,12.76171875,-5.75,1,0,0,rectangle,12.76171875,-5.75,1,0,0,12.76171875,-5.75,1,0,0,0,137,137,35,1,,,,,,,,
,,,,,,,,,,,,,FF,,,,,,,,0.9975,,,,,,,,,,,,,,,,,,,,,,6102d3c05c31cb5c38158b34,61036c46f428419531f2ed6e,2021-07-29_20h09.32.433,Simcolourproject_2stim_asymm_v5,2020.2.10,MacIntel,60,61025ae37ef11b136ea224fe,,,,,,,,,2460,-28.68359375,53.125,1,0,0,response7disk,,0,-8.125,8.34375,1,0,0,rectangle,-8.125,8.34375,1,0,0,-8.125,8.34375,1,0,0,0,138,138,59,1,,,,,,,,
,,,,,,,,,,,,,FF,,,,,,,,1.0336,,,,,,,,,,,,,,,,,,,,,,6102d3c05c31cb5c38158b34,61036c46f428419531f2ed6e,2021-07-29_20h09.32.433,Simcolourproject_2stim_asymm_v5,2020.2.10,MacIntel,60,61025ae37ef11b136ea224fe,,,,,,,,,2899,-90.16796875,-38.47265625,1,0,0,response5disk,,2,8.2578125,13.31640625,1,0,0,rectangle,8.2578125,13.31640625,1,0,0,8.2578125,13.31640625,1,0,0,0,139,139,152,1,,,,,,,,
,,,,,,,,,,,,,FF,,,,,,,,0.7664,,,,,,,,,,,,,,,,,,,,,,6102d3c05c31cb5c38158b34,61036c46f428419531f2ed6e,2021-07-29_20h09.32.433,Simcolourproject_2stim_asymm_v5,2020.2.10,MacIntel,60,61025ae37ef11b136ea224fe,,,,,,,,,1603,-34.57421875,66.68359375,1,0,0,response7disk,,0,-13.3125,-2.42578125,1,0,0,rectangle,-13.3125,-2.42578125,1,0,0,-13.3125,-2.42578125,1,0,0,0,140,140,50,1,,,,,,,,
,,,,,,,,,,,,,FF,,,,,,,,0.8686,,,,,,,,,,,,,,,,,,,,,,6102d3c05c31cb5c38158b34,61036c46f428419531f2ed6e,2021-07-29_20h09.32.433,Simcolourproject_2stim_asymm_v5,2020.2.10,MacIntel,60,61025ae37ef11b136ea224fe,,,,,,,,,637,-64.76171875,34.3359375,1,0,0,response7disk,,1,19.015625,1.234375,1,0,0,rectangle,19.015625,1.234375,1,0,0,19.015625,1.234375,1,0,0,0,141,141,108,1,,,,,,,,
,,,,,,,,,,,,,FF,,,,,,,,1.5658,,,,,,,,,,,,,,,,,,,,,,6102d3c05c31cb5c38158b34,61036c46f428419531f2ed6e,2021-07-29_20h09.32.433,Simcolourproject_2stim_asymm_v5,2020.2.10,MacIntel,60,61025ae37ef11b136ea224fe,,,,,,,,,1613,36.98046875,-92.30859375,1,0,0,response3disk,,4,0.96484375,-15.29296875,1,0,0,rectangle,0.96484375,-15.29296875,1,0,0,0.96484375,-15.29296875,1,0,0,0,142,142,111,1,,,,,,,,
,,,,,,,,,,,,,FF,,,,,,,,1.3458,,,,,,,,,,,,,,,,,,,,,,6102d3c05c31cb5c38158b34,61036c46f428419531f2ed6e,2021-07-29_20h09.32.433,Simcolourproject_2stim_asymm_v5,2020.2.10,MacIntel,60,61025ae37ef11b136ea224fe,,,,,,,,,4005,-41.609375,-102.4960938,1,0,0,response5disk,,3,-8.3828125,-2.03125,1,0,0,rectangle,-8.3828125,-2.03125,1,0,0,-8.3828125,-2.03125,1,0,0,0,143,143,153,1,,,,,,,,
,,,,,,,,,,,,,FF,,,,,,,,1.2355,,,,,,,,,,,,,,,,,,,,,,6102d3c05c31cb5c38158b34,61036c46f428419531f2ed6e,2021-07-29_20h09.32.433,Simcolourproject_2stim_asymm_v5,2020.2.10,MacIntel,60,61025ae37ef11b136ea224fe,,,,,,,,,842,84.6328125,-36.48828125,1,0,0,response3disk,,5,-6.44921875,9.81640625,1,0,0,rectangle,-6.44921875,9.81640625,1,0,0,-6.44921875,9.81640625,1,0,0,0,144,144,113,1,,,,,,,,
,,,,,,,,,,,,,FF,,,,,,,,1.0171,,,,,,,,,,,,,,,,,,,,,,6102d3c05c31cb5c38158b34,61036c46f428419531f2ed6e,2021-07-29_20h09.32.433,Simcolourproject_2stim_asymm_v5,2020.2.10,MacIntel,60,61025ae37ef11b136ea224fe,,,,,,,,,800,67.7421875,92.05078125,1,0,0,response1disk,,7,-4.5,0.27734375,1,0,0,rectangle,-4.5,0.27734375,1,0,0,-4.5,0.27734375,1,0,0,0,145,145,118,1,,,,,,,,
,,,,,,,,,,,,,FF,,,,,,,,1.2997,,,,,,,,,,,,,,,,,,,,,,6102d3c05c31cb5c38158b34,61036c46f428419531f2ed6e,2021-07-29_20h09.32.433,Simcolourproject_2stim_asymm_v5,2020.2.10,MacIntel,60,61025ae37ef11b136ea224fe,,,,,,,,,126,95.43359375,-34.79296875,1,0,0,response3disk,,5,-6.96875,4.609375,1,0,0,rectangle,-6.96875,4.609375,1,0,0,-6.96875,4.609375,1,0,0,0,146,146,114,1,,,,,,,,
,,,,,,,,,,,,,FF,,,,,,,,1.1011,,,,,,,,,,,,,,,,,,,,,,6102d3c05c31cb5c38158b34,61036c46f428419531f2ed6e,2021-07-29_20h09.32.433,Simcolourproject_2stim_asymm_v5,2020.2.10,MacIntel,60,61025ae37ef11b136ea224fe,,,,,,,,,1030,94.8125,30.91796875,1,0,0,response1disk,,6,11.0625,2.8125,1,0,0,rectangle,11.0625,2.8125,1,0,0,11.0625,2.8125,1,0,0,0,147,147,29,1,,,,,,,,
,,,,,,,,,,,,,FF,,,,,,,,1.1988,,,,,,,,,,,,,,,,,,,,,,6102d3c05c31cb5c38158b34,61036c46f428419531f2ed6e,2021-07-29_20h09.32.433,Simcolourproject_2stim_asymm_v5,2020.2.10,MacIntel,60,61025ae37ef11b136ea224fe,,,,,,,,,532,-101.3710938,23.48828125,1,0,0,response7disk,,1,25.984375,12.890625,1,0,0,rectangle,25.984375,12.890625,1,0,0,25.984375,12.890625,1,0,0,0,148,148,105,1,,,,,,,,
,,,,,,,,,,,,,FF,,,,,,,,0.9999,,,,,,,,,,,,,,,,,,,,,,6102d3c05c31cb5c38158b34,61036c46f428419531f2ed6e,2021-07-29_20h09.32.433,Simcolourproject_2stim_asymm_v5,2020.2.10,MacIntel,60,61025ae37ef11b136ea224fe,,,,,,,,,3674,-27.4375,-52.28515625,1,0,0,response5disk,,3,-1.26171875,-14.953125,1,0,0,rectangle,-1.26171875,-14.953125,1,0,0,-1.26171875,-14.953125,1,0,0,0,149,149,155,1,,,,,,,,
,,,,,,,,,,,,,FF,,,,,,,,0.8832,,,,,,,,,,,,,,,,,,,,,,6102d3c05c31cb5c38158b34,61036c46f428419531f2ed6e,2021-07-29_20h09.32.433,Simcolourproject_2stim_asymm_v5,2020.2.10,MacIntel,60,61025ae37ef11b136ea224fe,,,,,,,,,3913,-70.4453125,30.8984375,1,0,0,response7disk,,1,-9.55078125,-0.9453125,1,0,0,rectangle,-9.55078125,-0.9453125,1,0,0,-9.55078125,-0.9453125,1,0,0,0,150,150,93,1,,,,,,,,
,,,,,,,,,,,,,FF,,,,,,,,0.9154,,,,,,,,,,,,,,,,,,,,,,6102d3c05c31cb5c38158b34,61036c46f428419531f2ed6e,2021-07-29_20h09.32.433,Simcolourproject_2stim_asymm_v5,2020.2.10,MacIntel,60,61025ae37ef11b136ea224fe,,,,,,,,,1766,-33.23828125,-90.09375,1,0,0,response5disk,,3,0.63671875,-12.52734375,1,0,0,rectangle,0.63671875,-12.52734375,1,0,0,0.63671875,-12.52734375,1,0,0,0,151,151,68,1,,,,,,,,
,,,,,,,,,,,,,FF,,,,,,,,0.7156,,,,,,,,,,,,,,,,,,,,,,6102d3c05c31cb5c38158b34,61036c46f428419531f2ed6e,2021-07-29_20h09.32.433,Simcolourproject_2stim_asymm_v5,2020.2.10,MacIntel,60,61025ae37ef11b136ea224fe,,,,,,,,,654,71.4296875,-31.66796875,1,0,0,response3disk,,5,16.16796875,-10.08203125,1,0,0,rectangle,16.16796875,-10.08203125,1,0,0,16.16796875,-10.08203125,1,0,0,0,152,152,7,1,,,,,,,,
,,,,,,,,,,,,,FF,,,,,,,,1.4165,,,,,,,,,,,,,,,,,,,,,,6102d3c05c31cb5c38158b34,61036c46f428419531f2ed6e,2021-07-29_20h09.32.433,Simcolourproject_2stim_asymm_v5,2020.2.10,MacIntel,60,61025ae37ef11b136ea224fe,,,,,,,,,1347,28.16796875,-74.44921875,1,0,0,response3disk,,4,-0.984375,3.55078125,1,0,0,rectangle,-0.984375,3.55078125,1,0,0,-0.984375,3.55078125,1,0,0,0,153,153,80,1,,,,,,,,
,,,,,,,,,,,,,FF,,,,,,,,0.9493,,,,,,,,,,,,,,,,,,,,,,6102d3c05c31cb5c38158b34,61036c46f428419531f2ed6e,2021-07-29_20h09.32.433,Simcolourproject_2stim_asymm_v5,2020.2.10,MacIntel,60,61025ae37ef11b136ea224fe,,,,,,,,,762,67.97265625,29.8984375,1,0,0,response1disk,,6,9.70703125,10.1796875,1,0,0,rectangle,9.70703125,10.1796875,1,0,0,9.70703125,10.1796875,1,0,0,0,154,154,34,1,,,,,,,,
,,,,,,,,,,,,,FF,,,,,,,,0.9573,,,,,,,,,,,,,,,,,,,,,,6102d3c05c31cb5c38158b34,61036c46f428419531f2ed6e,2021-07-29_20h09.32.433,Simcolourproject_2stim_asymm_v5,2020.2.10,MacIntel,60,61025ae37ef11b136ea224fe,,,,,,,,,1637,85.92578125,64.28125,1,0,0,response1disk,,6,9.21875,-2.53515625,1,0,0,rectangle,9.21875,-2.53515625,1,0,0,9.21875,-2.53515625,1,0,0,0,155,155,52,1,,,,,,,,
,,,,,,,,,,,,,FF,,,,,,,,0.8807,,,,,,,,,,,,,,,,,,,,,,6102d3c05c31cb5c38158b34,61036c46f428419531f2ed6e,2021-07-29_20h09.32.433,Simcolourproject_2stim_asymm_v5,2020.2.10,MacIntel,60,61025ae37ef11b136ea224fe,,,,,,,,,3102,-65.77734375,-51.96875,1,0,0,response5disk,,2,-4.421875,-7.44140625,1,0,0,rectangle,-4.421875,-7.44140625,1,0,0,-4.421875,-7.44140625,1,0,0,0,156,156,135,1,,,,,,,,
,,,,,,,,,,,,,FF,,,,,,,,1.9504,,,,,,,,,,,,,,,,,,,,,,6102d3c05c31cb5c38158b34,61036c46f428419531f2ed6e,2021-07-29_20h09.32.433,Simcolourproject_2stim_asymm_v5,2020.2.10,MacIntel,60,61025ae37ef11b136ea224fe,,,,,,,,,2617,80.69921875,76.5078125,1,0,0,response1disk,,6,17.82421875,-0.51171875,1,0,0,rectangle,17.82421875,-0.51171875,1,0,0,17.82421875,-0.51171875,1,0,0,0,157,157,142,1,,,,,,,,
,,,,,,,,,,,,,FF,,,,,,,,0.8483,,,,,,,,,,,,,,,,,,,,,,6102d3c05c31cb5c38158b34,61036c46f428419531f2ed6e,2021-07-29_20h09.32.433,Simcolourproject_2stim_asymm_v5,2020.2.10,MacIntel,60,61025ae37ef11b136ea224fe,,,,,,,,,2902,35.875,-88.10546875,1,0,0,response3disk,,4,6.87109375,0.16796875,1,0,0,rectangle,6.87109375,0.16796875,1,0,0,6.87109375,0.16796875,1,0,0,0,158,158,47,1,,,,,,,,
,,,,,,,,,,,,,FF,,,,,,,,1.1183,,,,,,,,,,,,,,,,,,,,,,6102d3c05c31cb5c38158b34,61036c46f428419531f2ed6e,2021-07-29_20h09.32.433,Simcolourproject_2stim_asymm_v5,2020.2.10,MacIntel,60,61025ae37ef11b136ea224fe,,,,,,,,,501,73.5390625,32.76953125,1,0,0,response1disk,,6,-0.12890625,-4.04296875,1,0,0,rectangle,-100.0546875,-57.47265625,1,0,0,1.48828125,-0.74609375,1,0,0,0,159,159,33,1,,response5disk_3,TRUE,2,2,"[66,227,20,202,116,229,134,206,160,15,116,228,308,194,289,121,85,275,32,293]",1.6481,rectangle
,,,,,,,,,,,,,FF,,,,,,,,0.8465,,,,,,,,,,,,,,,,,,,,,,6102d3c05c31cb5c38158b34,61036c46f428419531f2ed6e,2021-07-29_20h09.32.433,Simcolourproject_2stim_asymm_v5,2020.2.10,MacIntel,60,61025ae37ef11b136ea224fe,,,,,,,,,3431,-66.02734375,40.5703125,1,0,0,response7disk,,1,7.8671875,9.25,1,0,0,rectangle,7.8671875,9.25,1,0,0,7.8671875,9.25,1,0,0,1,0,160,47,1,,,,,,,,
,,,,,,,,,,,,,FF,,,,,,,,0.9998,,,,,,,,,,,,,,,,,,,,,,6102d3c05c31cb5c38158b34,61036c46f428419531f2ed6e,2021-07-29_20h09.32.433,Simcolourproject_2stim_asymm_v5,2020.2.10,MacIntel,60,61025ae37ef11b136ea224fe,,,,,,,,,3852,-71.140625,-36.76171875,1,0,0,response5disk,,2,11.65234375,11.14453125,1,0,0,rectangle,11.65234375,11.14453125,1,0,0,11.65234375,11.14453125,1,0,0,1,1,161,141,1,,,,,,,,
,,,,,,,,,,,,,FF,,,,,,,,1.2838,,,,,,,,,,,,,,,,,,,,,,6102d3c05c31cb5c38158b34,61036c46f428419531f2ed6e,2021-07-29_20h09.32.433,Simcolourproject_2stim_asymm_v5,2020.2.10,MacIntel,60,61025ae37ef11b136ea224fe,,,,,,,,,3492,74.91015625,39.81640625,1,0,0,response1disk,,6,0.54296875,-8.28515625,1,0,0,rectangle,0.54296875,-8.28515625,1,0,0,0.54296875,-8.28515625,1,0,0,1,2,162,81,1,,,,,,,,
,,,,,,,,,,,,,FF,,,,,,,,0.915,,,,,,,,,,,,,,,,,,,,,,6102d3c05c31cb5c38158b34,61036c46f428419531f2ed6e,2021-07-29_20h09.32.433,Simcolourproject_2stim_asymm_v5,2020.2.10,MacIntel,60,61025ae37ef11b136ea224fe,,,,,,,,,4183,-80.68359375,31.33203125,1,0,0,response7disk,,1,22.6640625,3.20703125,1,0,0,rectangle,22.6640625,3.20703125,1,0,0,22.6640625,3.20703125,1,0,0,1,3,163,76,1,,,,,,,,
,,,,,,,,,,,,,FF,,,,,,,,0.7523,,,,,,,,,,,,,,,,,,,,,,6102d3c05c31cb5c38158b34,61036c46f428419531f2ed6e,2021-07-29_20h09.32.433,Simcolourproject_2stim_asymm_v5,2020.2.10,MacIntel,60,61025ae37ef11b136ea224fe,,,,,,,,,2884,26.62890625,91.29296875,1,0,0,response1disk,,7,1.1015625,6.1953125,1,0,0,rectangle,1.1015625,6.1953125,1,0,0,1.1015625,6.1953125,1,0,0,1,4,164,139,1,,,,,,,,
,,,,,,,,,,,,,FF,,,,,,,,1.4,,,,,,,,,,,,,,,,,,,,,,6102d3c05c31cb5c38158b34,61036c46f428419531f2ed6e,2021-07-29_20h09.32.433,Simcolourproject_2stim_asymm_v5,2020.2.10,MacIntel,60,61025ae37ef11b136ea224fe,,,,,,,,,2104,-95.6640625,-48.98828125,1,0,0,response5disk,,2,9.6015625,10.94921875,1,0,0,rectangle,9.6015625,10.94921875,1,0,0,9.6015625,10.94921875,1,0,0,1,5,165,106,1,,,,,,,,
,,,,,,,,,,,,,FF,,,,,,,,0.717,,,,,,,,,,,,,,,,,,,,,,6102d3c05c31cb5c38158b34,61036c46f428419531f2ed6e,2021-07-29_20h09.32.433,Simcolourproject_2stim_asymm_v5,2020.2.10,MacIntel,60,61025ae37ef11b136ea224fe,,,,,,,,,648,73.92578125,-15.17578125,1,0,0,response3disk,,5,8.2734375,-4.35546875,1,0,0,rectangle,8.2734375,-4.35546875,1,0,0,8.2734375,-4.35546875,1,0,0,1,6,166,40,1,,,,,,,,
,,,,,,,,,,,,,FF,,,,,,,,1.1667,,,,,,,,,,,,,,,,,,,,,,6102d3c05c31cb5c38158b34,61036c46f428419531f2ed6e,2021-07-29_20h09.32.433,Simcolourproject_2stim_asymm_v5,2020.2.10,MacIntel,60,61025ae37ef11b136ea224fe,,,,,,,,,112,42.9140625,100.9335938,1,0,0,response1disk,,7,-4.94921875,-5.07421875,1,0,0,rectangle,-4.94921875,-5.07421875,1,0,0,-4.94921875,-5.07421875,1,0,0,1,7,167,27,1,,,,,,,,
,,,,,,,,,,,,,FF,,,,,,,,0.9536,,,,,,,,,,,,,,,,,,,,,,6102d3c05c31cb5c38158b34,61036c46f428419531f2ed6e,2021-07-29_20h09.32.433,Simcolourproject_2stim_asymm_v5,2020.2.10,MacIntel,60,61025ae37ef11b136ea224fe,,,,,,,,,1200,-72.4609375,-82.515625,1,0,0,response5disk,,3,-10.00390625,-7.203125,1,0,0,rectangle,-10.00390625,-7.203125,1,0,0,-10.00390625,-7.203125,1,0,0,1,8,168,159,1,,,,,,,,
,,,,,,,,,,,,,FF,,,,,,,,1.0665,,,,,,,,,,,,,,,,,,,,,,6102d3c05c31cb5c38158b34,61036c46f428419531f2ed6e,2021-07-29_20h09.32.433,Simcolourproject_2stim_asymm_v5,2020.2.10,MacIntel,60,61025ae37ef11b136ea224fe,,,,,,,,,925,52.09765625,82.97265625,1,0,0,response1disk,,7,0.76953125,-6.7421875,1,0,0,rectangle,0.76953125,-6.7421875,1,0,0,0.76953125,-6.7421875,1,0,0,1,9,169,89,1,,,,,,,,
,,,,,,,,,,,,,FF,,,,,,,,2.4664,,,,,,,,,,,,,,,,,,,,,,6102d3c05c31cb5c38158b34,61036c46f428419531f2ed6e,2021-07-29_20h09.32.433,Simcolourproject_2stim_asymm_v5,2020.2.10,MacIntel,60,61025ae37ef11b136ea224fe,,,,,,,,,1173,104.3242188,-36.0234375,1,0,0,response3disk,,5,4.9765625,3.99609375,1,0,0,rectangle,4.9765625,3.99609375,1,0,0,4.9765625,3.99609375,1,0,0,1,10,170,68,1,,,,,,,,
,,,,,,,,,,,,,FF,,,,,,,,1.167,,,,,,,,,,,,,,,,,,,,,,6102d3c05c31cb5c38158b34,61036c46f428419531f2ed6e,2021-07-29_20h09.32.433,Simcolourproject_2stim_asymm_v5,2020.2.10,MacIntel,60,61025ae37ef11b136ea224fe,,,,,,,,,2367,-44.09375,-97.4453125,1,0,0,response5disk,,3,8.58203125,-4.40234375,1,0,0,rectangle,8.58203125,-4.40234375,1,0,0,8.58203125,-4.40234375,1,0,0,1,11,171,150,1,,,,,,,,
,,,,,,,,,,,,,FF,,,,,,,,0.898,,,,,,,,,,,,,,,,,,,,,,6102d3c05c31cb5c38158b34,61036c46f428419531f2ed6e,2021-07-29_20h09.32.433,Simcolourproject_2stim_asymm_v5,2020.2.10,MacIntel,60,61025ae37ef11b136ea224fe,,,,,,,,,3708,-57.8125,28.1875,1,0,0,response7disk,,1,-9.23828125,15.55859375,1,0,0,rectangle,-9.23828125,15.55859375,1,0,0,-9.23828125,15.55859375,1,0,0,1,12,172,75,1,,,,,,,,
,,,,,,,,,,,,,FF,,,,,,,,0.9515,,,,,,,,,,,,,,,,,,,,,,6102d3c05c31cb5c38158b34,61036c46f428419531f2ed6e,2021-07-29_20h09.32.433,Simcolourproject_2stim_asymm_v5,2020.2.10,MacIntel,60,61025ae37ef11b136ea224fe,,,,,,,,,1043,94.62109375,24.84375,1,0,0,response1disk,,6,23.01953125,4.75390625,1,0,0,rectangle,23.01953125,4.75390625,1,0,0,23.01953125,4.75390625,1,0,0,1,13,173,41,1,,,,,,,,
,,,,,,,,,,,,,FF,,,,,,,,1.2501,,,,,,,,,,,,,,,,,,,,,,6102d3c05c31cb5c38158b34,61036c46f428419531f2ed6e,2021-07-29_20h09.32.433,Simcolourproject_2stim_asymm_v5,2020.2.10,MacIntel,60,61025ae37ef11b136ea224fe,,,,,,,,,4003,62.7734375,-101.0703125,1,0,0,response3disk,,4,0.015625,-6.41796875,1,0,0,rectangle,0.015625,-6.41796875,1,0,0,0.015625,-6.41796875,1,0,0,1,14,174,108,1,,,,,,,,
,,,,,,,,,,,,,FF,,,,,,,,0.8814,,,,,,,,,,,,,,,,,,,,,,6102d3c05c31cb5c38158b34,61036c46f428419531f2ed6e,2021-07-29_20h09.32.433,Simcolourproject_2stim_asymm_v5,2020.2.10,MacIntel,60,61025ae37ef11b136ea224fe,,,,,,,,,426,26.7109375,69.65234375,1,0,0,response1disk,,7,-4.77734375,-16.11328125,1,0,0,rectangle,-4.77734375,-16.11328125,1,0,0,-4.77734375,-16.11328125,1,0,0,1,15,175,12,1,,,,,,,,
,,,,,,,,,,,,,FF,,,,,,,,1.5497,,,,,,,,,,,,,,,,,,,,,,6102d3c05c31cb5c38158b34,61036c46f428419531f2ed6e,2021-07-29_20h09.32.433,Simcolourproject_2stim_asymm_v5,2020.2.10,MacIntel,60,61025ae37ef11b136ea224fe,,,,,,,,,748,40.8046875,84.33203125,1,0,0,response1disk,,7,8.54296875,-3.95703125,1,0,0,rectangle,8.54296875,-3.95703125,1,0,0,8.54296875,-3.95703125,1,0,0,1,16,176,60,1,,,,,,,,
,,,,,,,,,,,,,FF,,,,,,,,1.0334,,,,,,,,,,,,,,,,,,,,,,6102d3c05c31cb5c38158b34,61036c46f428419531f2ed6e,2021-07-29_20h09.32.433,Simcolourproject_2stim_asymm_v5,2020.2.10,MacIntel,60,61025ae37ef11b136ea224fe,,,,,,,,,1862,66.86328125,33.21875,1,0,0,response1disk,,6,-7.31640625,-5.515625,1,0,0,rectangle,-7.31640625,-5.515625,1,0,0,-7.31640625,-5.515625,1,0,0,1,17,177,5,1,,,,,,,,
,,,,,,,,,,,,,FF,,,,,,,,1.1691,,,,,,,,,,,,,,,,,,,,,,6102d3c05c31cb5c38158b34,61036c46f428419531f2ed6e,2021-07-29_20h09.32.433,Simcolourproject_2stim_asymm_v5,2020.2.10,MacIntel,60,61025ae37ef11b136ea224fe,,,,,,,,,1608,-82.859375,-45.125,1,0,0,response5disk,,2,-14.7109375,-14.24609375,1,0,0,rectangle,-14.7109375,-14.24609375,1,0,0,-14.7109375,-14.24609375,1,0,0,1,18,178,54,1,,,,,,,,
,,,,,,,,,,,,,FF,,,,,,,,1.2338,,,,,,,,,,,,,,,,,,,,,,6102d3c05c31cb5c38158b34,61036c46f428419531f2ed6e,2021-07-29_20h09.32.433,Simcolourproject_2stim_asymm_v5,2020.2.10,MacIntel,60,61025ae37ef11b136ea224fe,,,,,,,,,3171,30.45703125,60.765625,1,0,0,response1disk,,7,13.046875,-2.7265625,1,0,0,rectangle,13.046875,-2.7265625,1,0,0,13.046875,-2.7265625,1,0,0,1,19,179,36,1,,,,,,,,
,,,,,,,,,,,,,FF,,,,,,,,0.8319,,,,,,,,,,,,,,,,,,,,,,6102d3c05c31cb5c38158b34,61036c46f428419531f2ed6e,2021-07-29_20h09.32.433,Simcolourproject_2stim_asymm_v5,2020.2.10,MacIntel,60,61025ae37ef11b136ea224fe,,,,,,,,,3290,-50.421875,66.18359375,1,0,0,response7disk,,0,-13.390625,-8.3828125,1,0,0,rectangle,-13.390625,-8.3828125,1,0,0,-13.390625,-8.3828125,1,0,0,1,20,180,71,1,,,,,,,,
,,,,,,,,,,,,,FF,,,,,,,,1.0018,,,,,,,,,,,,,,,,,,,,,,6102d3c05c31cb5c38158b34,61036c46f428419531f2ed6e,2021-07-29_20h09.32.433,Simcolourproject_2stim_asymm_v5,2020.2.10,MacIntel,60,61025ae37ef11b136ea224fe,,,,,,,,,1711,26.4453125,78.8125,1,0,0,response1disk,,7,-3.328125,-4.77734375,1,0,0,rectangle,-3.328125,-4.77734375,1,0,0,-3.328125,-4.77734375,1,0,0,1,21,181,55,1,,,,,,,,
,,,,,,,,,,,,,FF,,,,,,,,1.2669,,,,,,,,,,,,,,,,,,,,,,6102d3c05c31cb5c38158b34,61036c46f428419531f2ed6e,2021-07-29_20h09.32.433,Simcolourproject_2stim_asymm_v5,2020.2.10,MacIntel,60,61025ae37ef11b136ea224fe,,,,,,,,,2627,76.76171875,39.64453125,1,0,0,response1disk,,6,-4.3359375,-12.625,1,0,0,rectangle,-4.3359375,-12.625,1,0,0,-4.3359375,-12.625,1,0,0,1,22,182,99,1,,,,,,,,
,,,,,,,,,,,,,FF,,,,,,,,1.25,,,,,,,,,,,,,,,,,,,,,,6102d3c05c31cb5c38158b34,61036c46f428419531f2ed6e,2021-07-29_20h09.32.433,Simcolourproject_2stim_asymm_v5,2020.2.10,MacIntel,60,61025ae37ef11b136ea224fe,,,,,,,,,3236,-75.61328125,34.078125,1,0,0,response7disk,,1,-9.484375,-7.3046875,1,0,0,rectangle,-9.484375,-7.3046875,1,0,0,-9.484375,-7.3046875,1,0,0,1,23,183,93,1,,,,,,,,
,,,,,,,,,,,,,FF,,,,,,,,0.9331,,,,,,,,,,,,,,,,,,,,,,6102d3c05c31cb5c38158b34,61036c46f428419531f2ed6e,2021-07-29_20h09.32.433,Simcolourproject_2stim_asymm_v5,2020.2.10,MacIntel,60,61025ae37ef11b136ea224fe,,,,,,,,,1700,69.62109375,46.79296875,1,0,0,response1disk,,6,4.33203125,-9.93359375,1,0,0,rectangle,4.33203125,-9.93359375,1,0,0,4.33203125,-9.93359375,1,0,0,1,24,184,79,1,,,,,,,,
,,,,,,,,,,,,,FF,,,,,,,,0.9151,,,,,,,,,,,,,,,,,,,,,,6102d3c05c31cb5c38158b34,61036c46f428419531f2ed6e,2021-07-29_20h09.32.433,Simcolourproject_2stim_asymm_v5,2020.2.10,MacIntel,60,61025ae37ef11b136ea224fe,,,,,,,,,420,89.4765625,-33.1015625,1,0,0,response3disk,,5,12.546875,-2.75,1,0,0,rectangle,12.546875,-2.75,1,0,0,12.546875,-2.75,1,0,0,1,25,185,110,1,,,,,,,,
,,,,,,,,,,,,,FF,,,,,,,,0.6831,,,,,,,,,,,,,,,,,,,,,,6102d3c05c31cb5c38158b34,61036c46f428419531f2ed6e,2021-07-29_20h09.32.433,Simcolourproject_2stim_asymm_v5,2020.2.10,MacIntel,60,61025ae37ef11b136ea224fe,,,,,,,,,4315,44.25390625,83.10546875,1,0,0,response1disk,,7,9.09375,-0.04296875,1,0,0,rectangle,9.09375,-0.04296875,1,0,0,9.09375,-0.04296875,1,0,0,1,26,186,56,1,,,,,,,,
,,,,,,,,,,,,,FF,,,,,,,,0.8167,,,,,,,,,,,,,,,,,,,,,,6102d3c05c31cb5c38158b34,61036c46f428419531f2ed6e,2021-07-29_20h09.32.433,Simcolourproject_2stim_asymm_v5,2020.2.10,MacIntel,60,61025ae37ef11b136ea224fe,,,,,,,,,3961,44.96875,88.20703125,1,0,0,response1disk,,7,2.453125,-16.625,1,0,0,rectangle,2.453125,-16.625,1,0,0,2.453125,-16.625,1,0,0,1,27,187,61,1,,,,,,,,
,,,,,,,,,,,,,FF,,,,,,,,1.0816,,,,,,,,,,,,,,,,,,,,,,6102d3c05c31cb5c38158b34,61036c46f428419531f2ed6e,2021-07-29_20h09.32.433,Simcolourproject_2stim_asymm_v5,2020.2.10,MacIntel,60,61025ae37ef11b136ea224fe,,,,,,,,,843,83.25390625,-47.9296875,1,0,0,response3disk,,5,-6.09765625,3.55078125,1,0,0,rectangle,-6.09765625,3.55078125,1,0,0,-6.09765625,3.55078125,1,0,0,1,28,188,98,1,,,,,,,,
,,,,,,,,,,,,,FF,,,,,,,,1.7837,,,,,,,,,,,,,,,,,,,,,,6102d3c05c31cb5c38158b34,61036c46f428419531f2ed6e,2021-07-29_20h09.32.433,Simcolourproject_2stim_asymm_v5,2020.2.10,MacIntel,60,61025ae37ef11b136ea224fe,,,,,,,,,1053,-90.5546875,-50.4453125,1,0,0,response5disk,,2,0.71484375,-1.8203125,1,0,0,rectangle,0.71484375,-1.8203125,1,0,0,0.71484375,-1.8203125,1,0,0,1,29,189,44,1,,,,,,,,
,,,,,,,,,,,,,FF,,,,,,,,1.3503,,,,,,,,,,,,,,,,,,,,,,6102d3c05c31cb5c38158b34,61036c46f428419531f2ed6e,2021-07-29_20h09.32.433,Simcolourproject_2stim_asymm_v5,2020.2.10,MacIntel,60,61025ae37ef11b136ea224fe,,,,,,,,,3895,72.48046875,23.10546875,1,0,0,response1disk,,6,18.74609375,2.1484375,1,0,0,rectangle,18.74609375,2.1484375,1,0,0,18.74609375,2.1484375,1,0,0,1,30,190,87,1,,,,,,,,
,,,,,,,,,,,,,FF,,,,,,,,1.2524,,,,,,,,,,,,,,,,,,,,,,6102d3c05c31cb5c38158b34,61036c46f428419531f2ed6e,2021-07-29_20h09.32.433,Simcolourproject_2stim_asymm_v5,2020.2.10,MacIntel,60,61025ae37ef11b136ea224fe,,,,,,,,,730,82.2734375,-45.00390625,1,0,0,response3disk,,5,-6.45703125,3.2734375,1,0,0,rectangle,-6.45703125,3.2734375,1,0,0,-6.45703125,3.2734375,1,0,0,1,31,191,66,1,,,,,,,,
,,,,,,,,,,,,,FF,,,,,,,,1.2014,,,,,,,,,,,,,,,,,,,,,,6102d3c05c31cb5c38158b34,61036c46f428419531f2ed6e,2021-07-29_20h09.32.433,Simcolourproject_2stim_asymm_v5,2020.2.10,MacIntel,60,61025ae37ef11b136ea224fe,,,,,,,,,1541,53.65625,-72.5625,1,0,0,response3disk,,4,6.87109375,-16.0859375,1,0,0,rectangle,6.87109375,-16.0859375,1,0,0,6.87109375,-16.0859375,1,0,0,1,32,192,125,1,,,,,,,,
,,,,,,,,,,,,,FF,,,,,,,,1.8665,,,,,,,,,,,,,,,,,,,,,,6102d3c05c31cb5c38158b34,61036c46f428419531f2ed6e,2021-07-29_20h09.32.433,Simcolourproject_2stim_asymm_v5,2020.2.10,MacIntel,60,61025ae37ef11b136ea224fe,,,,,,,,,3100,-83.49609375,59.203125,1,0,0,response7disk,,1,-1.91796875,-17.72265625,1,0,0,rectangle,23.3671875,94.30078125,1,0,0,7.03125,1.1484375,1,0,0,1,33,193,127,1,,response1disk_3,TRUE,7,7,"[66,227,20,202,116,229,134,206,160,15,116,228,308,194,289,121,85,275,32,293]",1.4314,rectangle
,,,,,,,,,,,,,FF,,,,,,,,2.1334,,,,,,,,,,,,,,,,,,,,,,6102d3c05c31cb5c38158b34,61036c46f428419531f2ed6e,2021-07-29_20h09.32.433,Simcolourproject_2stim_asymm_v5,2020.2.10,MacIntel,60,61025ae37ef11b136ea224fe,,,,,,,,,2161,-55.21875,-51.77734375,1,0,0,response5disk,,2,-12.109375,-4.69140625,1,0,0,rectangle,-12.109375,-4.69140625,1,0,0,-12.109375,-4.69140625,1,0,0,1,34,194,129,1,,,,,,,,
,,,,,,,,,,,,,FF,,,,,,,,4.3173,,,,,,,,,,,,,,,,,,,,,,6102d3c05c31cb5c38158b34,61036c46f428419531f2ed6e,2021-07-29_20h09.32.433,Simcolourproject_2stim_asymm_v5,2020.2.10,MacIntel,60,61025ae37ef11b136ea224fe,,,,,,,,,3081,67.92578125,39.0703125,1,0,0,response1disk,,6,4.703125,-6.69921875,1,0,0,rectangle,4.703125,-6.69921875,1,0,0,4.703125,-6.69921875,1,0,0,1,35,195,158,1,,,,,,,,
,,,,,,,,,,,,,FF,,,,,,,,0.9998,,,,,,,,,,,,,,,,,,,,,,6102d3c05c31cb5c38158b34,61036c46f428419531f2ed6e,2021-07-29_20h09.32.433,Simcolourproject_2stim_asymm_v5,2020.2.10,MacIntel,60,61025ae37ef11b136ea224fe,,,,,,,,,956,-72.19140625,-22.70703125,1,0,0,response5disk,,2,-21.0390625,-0.125,1,0,0,rectangle,-21.0390625,-0.125,1,0,0,-21.0390625,-0.125,1,0,0,1,36,196,104,1,,,,,,,,
,,,,,,,,,,,,,FF,,,,,,,,1.0185,,,,,,,,,,,,,,,,,,,,,,6102d3c05c31cb5c38158b34,61036c46f428419531f2ed6e,2021-07-29_20h09.32.433,Simcolourproject_2stim_asymm_v5,2020.2.10,MacIntel,60,61025ae37ef11b136ea224fe,,,,,,,,,614,-24.8046875,-88.43359375,1,0,0,response5disk,,3,-5.25,-9.77734375,1,0,0,rectangle,-5.25,-9.77734375,1,0,0,-5.25,-9.77734375,1,0,0,1,37,197,105,1,,,,,,,,
,,,,,,,,,,,,,FF,,,,,,,,1.0182,,,,,,,,,,,,,,,,,,,,,,6102d3c05c31cb5c38158b34,61036c46f428419531f2ed6e,2021-07-29_20h09.32.433,Simcolourproject_2stim_asymm_v5,2020.2.10,MacIntel,60,61025ae37ef11b136ea224fe,,,,,,,,,130,74.59375,-44.32421875,1,0,0,response3disk,,5,15.73046875,2.19921875,1,0,0,rectangle,15.73046875,2.19921875,1,0,0,15.73046875,2.19921875,1,0,0,1,38,198,134,1,,,,,,,,
,,,,,,,,,,,,,FF,,,,,,,,1.5168,,,,,,,,,,,,,,,,,,,,,,6102d3c05c31cb5c38158b34,61036c46f428419531f2ed6e,2021-07-29_20h09.32.433,Simcolourproject_2stim_asymm_v5,2020.2.10,MacIntel,60,61025ae37ef11b136ea224fe,,,,,,,,,3773,-35.98828125,-94.12109375,1,0,0,response5disk,,3,-19.03125,-14.70703125,1,0,0,rectangle,-19.03125,-14.70703125,1,0,0,-19.03125,-14.70703125,1,0,0,1,39,199,85,1,,,,,,,,
,,,,,,,,,,,,,FF,,,,,,,,0.7501,,,,,,,,,,,,,,,,,,,,,,6102d3c05c31cb5c38158b34,61036c46f428419531f2ed6e,2021-07-29_20h09.32.433,Simcolourproject_2stim_asymm_v5,2020.2.10,MacIntel,60,61025ae37ef11b136ea224fe,,,,,,,,,2270,84.81640625,35.328125,1,0,0,response1disk,,6,16.015625,-0.859375,1,0,0,rectangle,16.015625,-0.859375,1,0,0,16.015625,-0.859375,1,0,0,1,40,200,0,1,,,,,,,,
,,,,,,,,,,,,,FF,,,,,,,,1.102,,,,,,,,,,,,,,,,,,,,,,6102d3c05c31cb5c38158b34,61036c46f428419531f2ed6e,2021-07-29_20h09.32.433,Simcolourproject_2stim_asymm_v5,2020.2.10,MacIntel,60,61025ae37ef11b136ea224fe,,,,,,,,,1774,70.21484375,44.68359375,1,0,0,response1disk,,6,2.71875,-2.14453125,1,0,0,rectangle,48.234375,74.8671875,1,0,0,22.20703125,1.35546875,1,0,0,1,41,201,130,1,,response1disk_3,TRUE,7,7,"[66,227,20,202,116,229,134,206,160,15,116,228,308,194,289,121,85,275,32,293]",1.3357,rectangle
,,,,,,,,,,,,,FF,,,,,,,,0.7333,,,,,,,,,,,,,,,,,,,,,,6102d3c05c31cb5c38158b34,61036c46f428419531f2ed6e,2021-07-29_20h09.32.433,Simcolourproject_2stim_asymm_v5,2020.2.10,MacIntel,60,61025ae37ef11b136ea224fe,,,,,,,,,543,-27.39453125,75.859375,1,0,0,response7disk,,0,-0.81640625,0.02734375,1,0,0,rectangle,-0.81640625,0.02734375,1,0,0,-0.81640625,0.02734375,1,0,0,1,42,202,101,1,,,,,,,,
,,,,,,,,,,,,,FF,,,,,,,,1.0179,,,,,,,,,,,,,,,,,,,,,,6102d3c05c31cb5c38158b34,61036c46f428419531f2ed6e,2021-07-29_20h09.32.433,Simcolourproject_2stim_asymm_v5,2020.2.10,MacIntel,60,61025ae37ef11b136ea224fe,,,,,,,,,864,75.47265625,30.84765625,1,0,0,response1disk,,6,20.21484375,6.61328125,1,0,0,rectangle,20.21484375,6.61328125,1,0,0,20.21484375,6.61328125,1,0,0,1,43,203,14,1,,,,,,,,
,,,,,,,,,,,,,FF,,,,,,,,1.0525,,,,,,,,,,,,,,,,,,,,,,6102d3c05c31cb5c38158b34,61036c46f428419531f2ed6e,2021-07-29_20h09.32.433,Simcolourproject_2stim_asymm_v5,2020.2.10,MacIntel,60,61025ae37ef11b136ea224fe,,,,,,,,,769,42.21875,71.98828125,1,0,0,response1disk,,7,0.84765625,-5.8359375,1,0,0,rectangle,0.84765625,-5.8359375,1,0,0,0.84765625,-5.8359375,1,0,0,1,44,204,77,1,,,,,,,,
,,,,,,,,,,,,,FF,,,,,,,,1.7016,,,,,,,,,,,,,,,,,,,,,,6102d3c05c31cb5c38158b34,61036c46f428419531f2ed6e,2021-07-29_20h09.32.433,Simcolourproject_2stim_asymm_v5,2020.2.10,MacIntel,60,61025ae37ef11b136ea224fe,,,,,,,,,4033,35.609375,-73.4765625,1,0,0,response3disk,,4,20.5390625,-3.5546875,1,0,0,rectangle,-85.37109375,32.5390625,1,0,0,-11.1015625,-7.18359375,1,0,0,1,45,205,42,1,,response7disk_3,TRUE,1,1,"[66,227,20,202,116,229,134,206,160,15,116,228,308,194,289,121,85,275,32,293]",1.2485,rectangle
,,,,,,,,,,,,,FF,,,,,,,,0.8837,,,,,,,,,,,,,,,,,,,,,,6102d3c05c31cb5c38158b34,61036c46f428419531f2ed6e,2021-07-29_20h09.32.433,Simcolourproject_2stim_asymm_v5,2020.2.10,MacIntel,60,61025ae37ef11b136ea224fe,,,,,,,,,4210,25.49609375,76.3828125,1,0,0,response1disk,,7,-19.30859375,-0.87890625,1,0,0,rectangle,-19.30859375,-0.87890625,1,0,0,-19.30859375,-0.87890625,1,0,0,1,46,206,43,1,,,,,,,,
,,,,,,,,,,,,,FF,,,,,,,,0.9184,,,,,,,,,,,,,,,,,,,,,,6102d3c05c31cb5c38158b34,61036c46f428419531f2ed6e,2021-07-29_20h09.32.433,Simcolourproject_2stim_asymm_v5,2020.2.10,MacIntel,60,61025ae37ef11b136ea224fe,,,,,,,,,3666,39.21875,75.83203125,1,0,0,response1disk,,7,25.8125,-0.82421875,1,0,0,rectangle,25.8125,-0.82421875,1,0,0,25.8125,-0.82421875,1,0,0,1,47,207,82,1,,,,,,,,
,,,,,,,,,,,,,FF,,,,,,,,0.8994,,,,,,,,,,,,,,,,,,,,,,6102d3c05c31cb5c38158b34,61036c46f428419531f2ed6e,2021-07-29_20h09.32.433,Simcolourproject_2stim_asymm_v5,2020.2.10,MacIntel,60,61025ae37ef11b136ea224fe,,,,,,,,,2394,32.34375,75.5234375,1,0,0,response1disk,,7,10.30078125,-1.9765625,1,0,0,rectangle,10.30078125,-1.9765625,1,0,0,10.30078125,-1.9765625,1,0,0,1,48,208,6,1,,,,,,,,
,,,,,,,,,,,,,FF,,,,,,,,0.8837,,,,,,,,,,,,,,,,,,,,,,6102d3c05c31cb5c38158b34,61036c46f428419531f2ed6e,2021-07-29_20h09.32.433,Simcolourproject_2stim_asymm_v5,2020.2.10,MacIntel,60,61025ae37ef11b136ea224fe,,,,,,,,,3384,-72.15234375,27.98046875,1,0,0,response7disk,,1,8.3046875,-7.0625,1,0,0,rectangle,8.3046875,-7.0625,1,0,0,8.3046875,-7.0625,1,0,0,1,49,209,32,1,,,,,,,,
,,,,,,,,,,,,,FF,,,,,,,,0.5681,,,,,,,,,,,,,,,,,,,,,,6102d3c05c31cb5c38158b34,61036c46f428419531f2ed6e,2021-07-29_20h09.32.433,Simcolourproject_2stim_asymm_v5,2020.2.10,MacIntel,60,61025ae37ef11b136ea224fe,,,,,,,,,542,38.8828125,81.6640625,1,0,0,response1disk,,7,13.84765625,-12.9296875,1,0,0,rectangle,13.84765625,-12.9296875,1,0,0,13.84765625,-12.9296875,1,0,0,1,50,210,73,1,,,,,,,,
,,,,,,,,,,,,,FF,,,,,,,,1.4353,,,,,,,,,,,,,,,,,,,,,,6102d3c05c31cb5c38158b34,61036c46f428419531f2ed6e,2021-07-29_20h09.32.433,Simcolourproject_2stim_asymm_v5,2020.2.10,MacIntel,60,61025ae37ef11b136ea224fe,,,,,,,,,509,78.5546875,56.046875,1,0,0,response1disk,,6,11.765625,5.328125,1,0,0,rectangle,11.765625,5.328125,1,0,0,11.765625,5.328125,1,0,0,1,51,211,62,1,,,,,,,,
,,,,,,,,,,,,,FF,,,,,,,,1.0515,,,,,,,,,,,,,,,,,,,,,,6102d3c05c31cb5c38158b34,61036c46f428419531f2ed6e,2021-07-29_20h09.32.433,Simcolourproject_2stim_asymm_v5,2020.2.10,MacIntel,60,61025ae37ef11b136ea224fe,,,,,,,,,1941,19.19921875,-102.9882813,1,0,0,response3disk,,4,1.546875,-17.8203125,1,0,0,rectangle,1.546875,-17.8203125,1,0,0,1.546875,-17.8203125,1,0,0,1,52,212,15,1,,,,,,,,
,,,,,,,,,,,,,FF,,,,,,,,0.9315,,,,,,,,,,,,,,,,,,,,,,6102d3c05c31cb5c38158b34,61036c46f428419531f2ed6e,2021-07-29_20h09.32.433,Simcolourproject_2stim_asymm_v5,2020.2.10,MacIntel,60,61025ae37ef11b136ea224fe,,,,,,,,,529,-61.11328125,-74.015625,1,0,0,response5disk,,3,-2.546875,-7.125,1,0,0,rectangle,-2.546875,-7.125,1,0,0,-2.546875,-7.125,1,0,0,1,53,213,102,1,,,,,,,,
,,,,,,,,,,,,,FF,,,,,,,,0.8145,,,,,,,,,,,,,,,,,,,,,,6102d3c05c31cb5c38158b34,61036c46f428419531f2ed6e,2021-07-29_20h09.32.433,Simcolourproject_2stim_asymm_v5,2020.2.10,MacIntel,60,61025ae37ef11b136ea224fe,,,,,,,,,147,96.6484375,-39.390625,1,0,0,response3disk,,5,20.03125,-16.34765625,1,0,0,rectangle,20.03125,-16.34765625,1,0,0,20.03125,-16.34765625,1,0,0,1,54,214,26,1,,,,,,,,
,,,,,,,,,,,,,FF,,,,,,,,1.2141,,,,,,,,,,,,,,,,,,,,,,6102d3c05c31cb5c38158b34,61036c46f428419531f2ed6e,2021-07-29_20h09.32.433,Simcolourproject_2stim_asymm_v5,2020.2.10,MacIntel,60,61025ae37ef11b136ea224fe,,,,,,,,,2272,101.4921875,46.01171875,1,0,0,response1disk,,6,14.28125,8.5546875,1,0,0,rectangle,14.28125,8.5546875,1,0,0,14.28125,8.5546875,1,0,0,1,55,215,91,1,,,,,,,,
,,,,,,,,,,,,,FF,,,,,,,,0.8005,,,,,,,,,,,,,,,,,,,,,,6102d3c05c31cb5c38158b34,61036c46f428419531f2ed6e,2021-07-29_20h09.32.433,Simcolourproject_2stim_asymm_v5,2020.2.10,MacIntel,60,61025ae37ef11b136ea224fe,,,,,,,,,3669,-38.59375,69.65625,1,0,0,response7disk,,0,-2.57421875,-15.03515625,1,0,0,rectangle,-2.57421875,-15.03515625,1,0,0,-2.57421875,-15.03515625,1,0,0,1,56,216,63,1,,,,,,,,
,,,,,,,,,,,,,FF,,,,,,,,1.1679,,,,,,,,,,,,,,,,,,,,,,6102d3c05c31cb5c38158b34,61036c46f428419531f2ed6e,2021-07-29_20h09.32.433,Simcolourproject_2stim_asymm_v5,2020.2.10,MacIntel,60,61025ae37ef11b136ea224fe,,,,,,,,,74,24.91015625,-58.7109375,1,0,0,response3disk,,4,14.6015625,-4.9921875,1,0,0,rectangle,14.6015625,-4.9921875,1,0,0,14.6015625,-4.9921875,1,0,0,1,57,217,65,1,,,,,,,,
,,,,,,,,,,,,,FF,,,,,,,,0.935,,,,,,,,,,,,,,,,,,,,,,6102d3c05c31cb5c38158b34,61036c46f428419531f2ed6e,2021-07-29_20h09.32.433,Simcolourproject_2stim_asymm_v5,2020.2.10,MacIntel,60,61025ae37ef11b136ea224fe,,,,,,,,,3374,-55.7578125,24.64453125,1,0,0,response7disk,,1,-22.3671875,-11.33203125,1,0,0,rectangle,-22.3671875,-11.33203125,1,0,0,-22.3671875,-11.33203125,1,0,0,1,58,218,48,1,,,,,,,,
,,,,,,,,,,,,,FF,,,,,,,,1.2337,,,,,,,,,,,,,,,,,,,,,,6102d3c05c31cb5c38158b34,61036c46f428419531f2ed6e,2021-07-29_20h09.32.433,Simcolourproject_2stim_asymm_v5,2020.2.10,MacIntel,60,61025ae37ef11b136ea224fe,,,,,,,,,132,89.84375,46.640625,1,0,0,response1disk,,6,1.58984375,5.66796875,1,0,0,rectangle,1.58984375,5.66796875,1,0,0,1.58984375,5.66796875,1,0,0,1,59,219,78,1,,,,,,,,
,,,,,,,,,,,,,FF,,,,,,,,1.0335,,,,,,,,,,,,,,,,,,,,,,6102d3c05c31cb5c38158b34,61036c46f428419531f2ed6e,2021-07-29_20h09.32.433,Simcolourproject_2stim_asymm_v5,2020.2.10,MacIntel,60,61025ae37ef11b136ea224fe,,,,,,,,,2064,66.171875,-54.6875,1,0,0,response3disk,,5,10.63671875,2.4140625,1,0,0,rectangle,10.63671875,2.4140625,1,0,0,10.63671875,2.4140625,1,0,0,1,60,220,46,1,,,,,,,,
,,,,,,,,,,,,,FF,,,,,,,,1.0509,,,,,,,,,,,,,,,,,,,,,,6102d3c05c31cb5c38158b34,61036c46f428419531f2ed6e,2021-07-29_20h09.32.433,Simcolourproject_2stim_asymm_v5,2020.2.10,MacIntel,60,61025ae37ef11b136ea224fe,,,,,,,,,2657,24.80078125,60.04296875,1,0,0,response1disk,,7,5.453125,-1.2890625,1,0,0,rectangle,5.453125,-1.2890625,1,0,0,5.453125,-1.2890625,1,0,0,1,61,221,23,1,,,,,,,,
,,,,,,,,,,,,,FF,,,,,,,,0.8996,,,,,,,,,,,,,,,,,,,,,,6102d3c05c31cb5c38158b34,61036c46f428419531f2ed6e,2021-07-29_20h09.32.433,Simcolourproject_2stim_asymm_v5,2020.2.10,MacIntel,60,61025ae37ef11b136ea224fe,,,,,,,,,1649,27.87109375,-87.8125,1,0,0,response3disk,,4,5.72265625,-16.515625,1,0,0,rectangle,5.72265625,-16.515625,1,0,0,5.72265625,-16.515625,1,0,0,1,62,222,29,1,,,,,,,,
,,,,,,,,,,,,,FF,,,,,,,,0.8184,,,,,,,,,,,,,,,,,,,,,,6102d3c05c31cb5c38158b34,61036c46f428419531f2ed6e,2021-07-29_20h09.32.433,Simcolourproject_2stim_asymm_v5,2020.2.10,MacIntel,60,61025ae37ef11b136ea224fe,,,,,,,,,2077,92.44140625,-43.9140625,1,0,0,response3disk,,5,20.046875,-2.62109375,1,0,0,rectangle,20.046875,-2.62109375,1,0,0,20.046875,-2.62109375,1,0,0,1,63,223,123,1,,,,,,,,
,,,,,,,,,,,,,FF,,,,,,,,1.2352,,,,,,,,,,,,,,,,,,,,,,6102d3c05c31cb5c38158b34,61036c46f428419531f2ed6e,2021-07-29_20h09.32.433,Simcolourproject_2stim_asymm_v5,2020.2.10,MacIntel,60,61025ae37ef11b136ea224fe,,,,,,,,,2799,47.8359375,-75.42578125,1,0,0,response3disk,,4,-14.61328125,14.578125,1,0,0,rectangle,-14.61328125,14.578125,1,0,0,-14.61328125,14.578125,1,0,0,1,64,224,21,1,,,,,,,,
,,,,,,,,,,,,,FF,,,,,,,,1.3673,,,,,,,,,,,,,,,,,,,,,,6102d3c05c31cb5c38158b34,61036c46f428419531f2ed6e,2021-07-29_20h09.32.433,Simcolourproject_2stim_asymm_v5,2020.2.10,MacIntel,60,61025ae37ef11b136ea224fe,,,,,,,,,2363,-76.9375,21.35546875,1,0,0,response7disk,,1,7.890625,-2.38671875,1,0,0,rectangle,7.890625,-2.38671875,1,0,0,7.890625,-2.38671875,1,0,0,1,65,225,53,1,,,,,,,,
,,,,,,,,,,,,,FF,,,,,,,,0.7511,,,,,,,,,,,,,,,,,,,,,,6102d3c05c31cb5c38158b34,61036c46f428419531f2ed6e,2021-07-29_20h09.32.433,Simcolourproject_2stim_asymm_v5,2020.2.10,MacIntel,60,61025ae37ef11b136ea224fe,,,,,,,,,3753,-87.85546875,-70.3203125,1,0,0,response5disk,,2,4.8515625,-3.08203125,1,0,0,rectangle,-81.1015625,43.53125,1,0,0,-4.70703125,-11.41015625,1,0,0,1,66,226,154,1,,response7disk_3,TRUE,1,1,"[66,227,20,202,116,229,134,206,160,15,116,228,308,194,289,121,85,275,32,293]",1.4664,rectangle
,,,,,,,,,,,,,FF,,,,,,,,1.4197,,,,,,,,,,,,,,,,,,,,,,6102d3c05c31cb5c38158b34,61036c46f428419531f2ed6e,2021-07-29_20h09.32.433,Simcolourproject_2stim_asymm_v5,2020.2.10,MacIntel,60,61025ae37ef11b136ea224fe,,,,,,,,,1767,57.03125,-42.625,1,0,0,response3disk,,5,3.51171875,3.35546875,1,0,0,rectangle,116.3867188,47.25390625,1,0,0,-1.36328125,-9.65234375,1,0,0,1,67,227,137,1,,response1disk_3,TRUE,6,6,"[66,227,20,202,116,229,134,206,160,15,116,228,308,194,289,121,85,275,32,293]",1.4848,rectangle
,,,,,,,,,,,,,FF,,,,,,,,1.6522,,,,,,,,,,,,,,,,,,,,,,6102d3c05c31cb5c38158b34,61036c46f428419531f2ed6e,2021-07-29_20h09.32.433,Simcolourproject_2stim_asymm_v5,2020.2.10,MacIntel,60,61025ae37ef11b136ea224fe,,,,,,,,,2897,-31.4140625,-69.4296875,1,0,0,response5disk,,3,5.1953125,-2.81640625,1,0,0,rectangle,92.69140625,-50.33203125,1,0,0,6.10546875,3.05859375,1,0,0,1,68,228,138,1,,response3disk_3,TRUE,5,5,"[66,227,20,202,116,229,134,206,160,15,116,228,308,194,289,121,85,275,32,293]",1.7349,rectangle
,,,,,,,,,,,,,FF,,,,,,,,1.3334,,,,,,,,,,,,,,,,,,,,,,6102d3c05c31cb5c38158b34,61036c46f428419531f2ed6e,2021-07-29_20h09.32.433,Simcolourproject_2stim_asymm_v5,2020.2.10,MacIntel,60,61025ae37ef11b136ea224fe,,,,,,,,,3820,-100.15625,-33.49609375,1,0,0,response5disk,,2,-13.4296875,-5.0078125,1,0,0,rectangle,-13.4296875,-5.0078125,1,0,0,-13.4296875,-5.0078125,1,0,0,1,69,229,149,1,,,,,,,,
,,,,,,,,,,,,,FF,,,,,,,,0.8003,,,,,,,,,,,,,,,,,,,,,,6102d3c05c31cb5c38158b34,61036c46f428419531f2ed6e,2021-07-29_20h09.32.433,Simcolourproject_2stim_asymm_v5,2020.2.10,MacIntel,60,61025ae37ef11b136ea224fe,,,,,,,,,1745,-36.15234375,57.58203125,1,0,0,response7disk,,0,2.33984375,-10.54296875,1,0,0,rectangle,2.33984375,-10.54296875,1,0,0,2.33984375,-10.54296875,1,0,0,1,70,230,136,1,,,,,,,,
,,,,,,,,,,,,,FF,,,,,,,,0.5658,,,,,,,,,,,,,,,,,,,,,,6102d3c05c31cb5c38158b34,61036c46f428419531f2ed6e,2021-07-29_20h09.32.433,Simcolourproject_2stim_asymm_v5,2020.2.10,MacIntel,60,61025ae37ef11b136ea224fe,,,,,,,,,1213,-24.70703125,62.76171875,1,0,0,response7disk,,0,2.984375,2.828125,1,0,0,rectangle,2.984375,2.828125,1,0,0,2.984375,2.828125,1,0,0,1,71,231,140,1,,,,,,,,
,,,,,,,,,,,,,FF,,,,,,,,0.5161,,,,,,,,,,,,,,,,,,,,,,6102d3c05c31cb5c38158b34,61036c46f428419531f2ed6e,2021-07-29_20h09.32.433,Simcolourproject_2stim_asymm_v5,2020.2.10,MacIntel,60,61025ae37ef11b136ea224fe,,,,,,,,,1056,-35.77734375,65.0859375,1,0,0,response7disk,,0,-12.37109375,10.0390625,1,0,0,rectangle,-12.37109375,10.0390625,1,0,0,-12.37109375,10.0390625,1,0,0,1,72,232,83,1,,,,,,,,
,,,,,,,,,,,,,FF,,,,,,,,0.8073,,,,,,,,,,,,,,,,,,,,,,6102d3c05c31cb5c38158b34,61036c46f428419531f2ed6e,2021-07-29_20h09.32.433,Simcolourproject_2stim_asymm_v5,2020.2.10,MacIntel,60,61025ae37ef11b136ea224fe,,,,,,,,,3832,80.05078125,25.60546875,1,0,0,response1disk,,6,18.51953125,-4.875,1,0,0,rectangle,18.51953125,-4.875,1,0,0,18.51953125,-4.875,1,0,0,1,73,233,156,1,,,,,,,,
,,,,,,,,,,,,,FF,,,,,,,,1.0518,,,,,,,,,,,,,,,,,,,,,,6102d3c05c31cb5c38158b34,61036c46f428419531f2ed6e,2021-07-29_20h09.32.433,Simcolourproject_2stim_asymm_v5,2020.2.10,MacIntel,60,61025ae37ef11b136ea224fe,,,,,,,,,995,74.9921875,-48.58984375,1,0,0,response3disk,,5,10.05859375,-0.86328125,1,0,0,rectangle,10.05859375,-0.86328125,1,0,0,10.05859375,-0.86328125,1,0,0,1,74,234,49,1,,,,,,,,
,,,,,,,,,,,,,FF,,,,,,,,1.517,,,,,,,,,,,,,,,,,,,,,,6102d3c05c31cb5c38158b34,61036c46f428419531f2ed6e,2021-07-29_20h09.32.433,Simcolourproject_2stim_asymm_v5,2020.2.10,MacIntel,60,61025ae37ef11b136ea224fe,,,,,,,,,1166,93.18359375,39.08984375,1,0,0,response1disk,,6,-25.15625,-9.546875,1,0,0,rectangle,-25.15625,-9.546875,1,0,0,-25.15625,-9.546875,1,0,0,1,75,235,3,1,,,,,,,,
,,,,,,,,,,,,,FF,,,,,,,,1.6833,,,,,,,,,,,,,,,,,,,,,,6102d3c05c31cb5c38158b34,61036c46f428419531f2ed6e,2021-07-29_20h09.32.433,Simcolourproject_2stim_asymm_v5,2020.2.10,MacIntel,60,61025ae37ef11b136ea224fe,,,,,,,,,1241,51.58203125,-85.01953125,1,0,0,response3disk,,4,3.109375,0.25,1,0,0,rectangle,3.109375,0.25,1,0,0,3.109375,0.25,1,0,0,1,76,236,50,1,,,,,,,,
,,,,,,,,,,,,,FF,,,,,,,,0.8162,,,,,,,,,,,,,,,,,,,,,,6102d3c05c31cb5c38158b34,61036c46f428419531f2ed6e,2021-07-29_20h09.32.433,Simcolourproject_2stim_asymm_v5,2020.2.10,MacIntel,60,61025ae37ef11b136ea224fe,,,,,,,,,255,-70.65234375,-33.5390625,1,0,0,response5disk,,2,-12.78125,0.390625,1,0,0,rectangle,-12.78125,0.390625,1,0,0,-12.78125,0.390625,1,0,0,1,77,237,45,1,,,,,,,,
,,,,,,,,,,,,,FF,,,,,,,,0.6508,,,,,,,,,,,,,,,,,,,,,,6102d3c05c31cb5c38158b34,61036c46f428419531f2ed6e,2021-07-29_20h09.32.433,Simcolourproject_2stim_asymm_v5,2020.2.10,MacIntel,60,61025ae37ef11b136ea224fe,,,,,,,,,3241,42.35546875,73.625,1,0,0,response1disk,,7,5.828125,7.2734375,1,0,0,rectangle,5.828125,7.2734375,1,0,0,5.828125,7.2734375,1,0,0,1,78,238,39,1,,,,,,,,
,,,,,,,,,,,,,FF,,,,,,,,4.169,,,,,,,,,,,,,,,,,,,,,,6102d3c05c31cb5c38158b34,61036c46f428419531f2ed6e,2021-07-29_20h09.32.433,Simcolourproject_2stim_asymm_v5,2020.2.10,MacIntel,60,61025ae37ef11b136ea224fe,,,,,,,,,1499,18.375,67.484375,1,0,0,response1disk,,7,-0.47265625,-0.12109375,1,0,0,rectangle,-0.47265625,-0.12109375,1,0,0,-0.47265625,-0.12109375,1,0,0,1,79,239,111,1,,,,,,,,
,,,,,,,,,,,,,FF,,,,,,,,1.3836,,,,,,,,,,,,,,,,,,,,,,6102d3c05c31cb5c38158b34,61036c46f428419531f2ed6e,2021-07-29_20h09.32.433,Simcolourproject_2stim_asymm_v5,2020.2.10,MacIntel,60,61025ae37ef11b136ea224fe,,,,,,,,,4259,85.52734375,28.91015625,1,0,0,response1disk,,6,16.46484375,5.3359375,1,0,0,rectangle,16.46484375,5.3359375,1,0,0,16.46484375,5.3359375,1,0,0,1,80,240,20,1,,,,,,,,
,,,,,,,,,,,,,FF,,,,,,,,1.2705,,,,,,,,,,,,,,,,,,,,,,6102d3c05c31cb5c38158b34,61036c46f428419531f2ed6e,2021-07-29_20h09.32.433,Simcolourproject_2stim_asymm_v5,2020.2.10,MacIntel,60,61025ae37ef11b136ea224fe,,,,,,,,,820,97.046875,-20.046875,1,0,0,response3disk,,5,18.609375,2.3203125,1,0,0,rectangle,18.609375,2.3203125,1,0,0,18.609375,2.3203125,1,0,0,1,81,241,95,1,,,,,,,,
,,,,,,,,,,,,,FF,,,,,,,,0.6849,,,,,,,,,,,,,,,,,,,,,,6102d3c05c31cb5c38158b34,61036c46f428419531f2ed6e,2021-07-29_20h09.32.433,Simcolourproject_2stim_asymm_v5,2020.2.10,MacIntel,60,61025ae37ef11b136ea224fe,,,,,,,,,2124,39.66796875,58.19140625,1,0,0,response1disk,,7,3.984375,-15.25390625,1,0,0,rectangle,3.984375,-15.25390625,1,0,0,3.984375,-15.25390625,1,0,0,1,82,242,10,1,,,,,,,,
,,,,,,,,,,,,,FF,,,,,,,,1.2007,,,,,,,,,,,,,,,,,,,,,,6102d3c05c31cb5c38158b34,61036c46f428419531f2ed6e,2021-07-29_20h09.32.433,Simcolourproject_2stim_asymm_v5,2020.2.10,MacIntel,60,61025ae37ef11b136ea224fe,,,,,,,,,4068,55.3046875,95.03125,1,0,0,response1disk,,7,-3.23046875,-2.28125,1,0,0,rectangle,-3.23046875,-2.28125,1,0,0,-3.23046875,-2.28125,1,0,0,1,83,243,103,1,,,,,,,,
,,,,,,,,,,,,,FF,,,,,,,,1.266,,,,,,,,,,,,,,,,,,,,,,6102d3c05c31cb5c38158b34,61036c46f428419531f2ed6e,2021-07-29_20h09.32.433,Simcolourproject_2stim_asymm_v5,2020.2.10,MacIntel,60,61025ae37ef11b136ea224fe,,,,,,,,,3619,33.71484375,87.14453125,1,0,0,response1disk,,7,-1.94140625,1.7890625,1,0,0,rectangle,-1.94140625,1.7890625,1,0,0,-1.94140625,1.7890625,1,0,0,1,84,244,94,1,,,,,,,,
,,,,,,,,,,,,,FF,,,,,,,,1.6803,,,,,,,,,,,,,,,,,,,,,,6102d3c05c31cb5c38158b34,61036c46f428419531f2ed6e,2021-07-29_20h09.32.433,Simcolourproject_2stim_asymm_v5,2020.2.10,MacIntel,60,61025ae37ef11b136ea224fe,,,,,,,,,3457,82.23828125,46.87890625,1,0,0,response1disk,,6,-0.890625,-1.9921875,1,0,0,rectangle,-0.890625,-1.9921875,1,0,0,-0.890625,-1.9921875,1,0,0,1,85,245,119,1,,,,,,,,
,,,,,,,,,,,,,FF,,,,,,,,1.1838,,,,,,,,,,,,,,,,,,,,,,6102d3c05c31cb5c38158b34,61036c46f428419531f2ed6e,2021-07-29_20h09.32.433,Simcolourproject_2stim_asymm_v5,2020.2.10,MacIntel,60,61025ae37ef11b136ea224fe,,,,,,,,,3175,66.140625,36.359375,1,0,0,response1disk,,6,-2.71875,2.9140625,1,0,0,rectangle,-2.71875,2.9140625,1,0,0,-2.71875,2.9140625,1,0,0,1,86,246,109,1,,,,,,,,
,,,,,,,,,,,,,FF,,,,,,,,1.2481,,,,,,,,,,,,,,,,,,,,,,6102d3c05c31cb5c38158b34,61036c46f428419531f2ed6e,2021-07-29_20h09.32.433,Simcolourproject_2stim_asymm_v5,2020.2.10,MacIntel,60,61025ae37ef11b136ea224fe,,,,,,,,,2513,37.2734375,99.37109375,1,0,0,response1disk,,7,11.88671875,10.71875,1,0,0,rectangle,11.88671875,10.71875,1,0,0,11.88671875,10.71875,1,0,0,1,87,247,9,1,,,,,,,,
,,,,,,,,,,,,,FF,,,,,,,,2.2502,,,,,,,,,,,,,,,,,,,,,,6102d3c05c31cb5c38158b34,61036c46f428419531f2ed6e,2021-07-29_20h09.32.433,Simcolourproject_2stim_asymm_v5,2020.2.10,MacIntel,60,61025ae37ef11b136ea224fe,,,,,,,,,991,75.78125,-45.37890625,1,0,0,response3disk,,5,-20.59375,11.44140625,1,0,0,rectangle,-20.59375,11.44140625,1,0,0,-20.59375,11.44140625,1,0,0,1,88,248,114,1,,,,,,,,
