key_resp.keys,key_resp.rt,key_resp_14.keys,key_resp_14.rt,key_resp_15.keys,key_resp_15.rt,key_resp_17.keys,key_resp_17.rt,key_resp_9.keys,key_resp_9.rt,key_resp_10.keys,key_resp_10.rt,practice_comparison,Ecc,mouse_5.x,mouse_5.y,mouse_5.leftButton,mouse_5.midButton,mouse_5.rightButton,mouse_5.clicked_name,pracsimilarity,response_time,mouse_10.x,mouse_10.y,mouse_10.leftButton,mouse_10.midButton,mouse_10.rightButton,mouse_10.clicked_name,mouse_7.x,mouse_7.y,mouse_7.leftButton,mouse_7.midButton,mouse_7.rightButton,mouse_6.x,mouse_6.y,mouse_6.leftButton,mouse_6.midButton,mouse_6.rightButton,duringprac.thisRepN,duringprac.thisTrialN,duringprac.thisN,duringprac.thisIndex,duringprac.ran,participant,session,date,expName,psychopyVersion,OS,frameRate,study_id,mouse_7.clicked_name,catchpracsimilarity,catch_response_time,catchnumberprac,catchtrialorderprac,mouse_6.clicked_name,key_resp_22.keys,key_resp_22.rt,realcomparison,mouse.x,mouse.y,mouse.leftButton,mouse.midButton,mouse.rightButton,mouse.clicked_name,Colour2,similarity,mouse_2.x,mouse_2.y,mouse_2.leftButton,mouse_2.midButton,mouse_2.rightButton,mouse_2.clicked_name,mouse_3.x,mouse_3.y,mouse_3.leftButton,mouse_3.midButton,mouse_3.rightButton,mouse_11.x,mouse_11.y,mouse_11.leftButton,mouse_11.midButton,mouse_11.rightButton,trials_2.thisRepN,trials_2.thisTrialN,trials_2.thisN,trials_2.thisIndex,trials_2.ran,Colour1,mouse_3.clicked_name,catchornah,catchsimilarity,catchnumber,catchtrialorder,catchRT,mouse_11.clicked_name
space,1.122,space,5.217,space,27.749,space,15.592,space,1.2,space,3.773,115,PF,70,34,1,0,0,response1disk_5,6,16.459,11,-1,1,0,0,rectangle_8,11,-1,1,0,0,11,-1,1,0,0,0,0,0,2,1,6102087c864264a3f5579fc4,610368024ea5c745f2981370,2021-07-29_22h47.12.558,Simcolourproject_2stim_asymm_v5,2020.2.10,MacIntel,60,61025ae37ef11b136ea224fe,,,,,,,,,,,,,,,,,,,,,,,,,,,,,,,,,,,,,,,,,,,,,,
,,,,,,,,,,,,20,PF,37,90,1,0,0,response1disk_5,7,3.049,7,10,1,0,0,rectangle_8,-89,35,1,0,0,-2,0,1,0,0,0,1,1,6,1,6102087c864264a3f5579fc4,610368024ea5c745f2981370,2021-07-29_22h47.12.558,Simcolourproject_2stim_asymm_v5,2020.2.10,MacIntel,60,61025ae37ef11b136ea224fe,response7disk_7,1,4.718,1,"[2,5]",rectangle_4,,,,,,,,,,,,,,,,,,,,,,,,,,,,,,,,,,,,,,,,
,,,,,,,,,,,,121,PF,-74,-29,1,0,0,response5disk_5,2,7.019,-2,0,1,0,0,rectangle_8,-2,0,1,0,0,-2,0,1,0,0,0,2,2,4,1,6102087c864264a3f5579fc4,610368024ea5c745f2981370,2021-07-29_22h47.12.558,Simcolourproject_2stim_asymm_v5,2020.2.10,MacIntel,60,61025ae37ef11b136ea224fe,,,,,,,,,,,,,,,,,,,,,,,,,,,,,,,,,,,,,,,,,,,,,,
,,,,,,,,,,,,85,PF,46,29,1,0,0,response1disk_5,6,3.318,11,9,1,0,0,rectangle_8,11,9,1,0,0,11,9,1,0,0,0,3,3,1,1,6102087c864264a3f5579fc4,610368024ea5c745f2981370,2021-07-29_22h47.12.558,Simcolourproject_2stim_asymm_v5,2020.2.10,MacIntel,60,61025ae37ef11b136ea224fe,,,,,,,,,,,,,,,,,,,,,,,,,,,,,,,,,,,,,,,,,,,,,,
,,,,,,,,,,,,41,FF,49,28,1,0,0,response1disk_5,6,1.453,-10,-6,1,0,0,rectangle_8,-82,40,1,0,0,4,0,1,0,0,0,4,4,5,1,6102087c864264a3f5579fc4,610368024ea5c745f2981370,2021-07-29_22h47.12.558,Simcolourproject_2stim_asymm_v5,2020.2.10,MacIntel,60,61025ae37ef11b136ea224fe,response7disk_7,1,1.583,1,"[2,5]",rectangle_4,,,,,,,,,,,,,,,,,,,,,,,,,,,,,,,,,,,,,,,,
,,,,,,,,,,,,107,FF,68,34,1,0,0,response1disk_5,6,2.351,12,14,1,0,0,rectangle_8,12,14,1,0,0,12,14,1,0,0,0,5,5,0,1,6102087c864264a3f5579fc4,610368024ea5c745f2981370,2021-07-29_22h47.12.558,Simcolourproject_2stim_asymm_v5,2020.2.10,MacIntel,60,61025ae37ef11b136ea224fe,,,,,,,,,,,,,,,,,,,,,,,,,,,,,,,,,,,,,,,,,,,,,,
,,,,,,,,,,,,45,FF,61,34,1,0,0,response1disk_5,6,1.401,-13,-5,1,0,0,rectangle_8,-13,-5,1,0,0,-13,-5,1,0,0,0,6,6,3,1,6102087c864264a3f5579fc4,610368024ea5c745f2981370,2021-07-29_22h47.12.558,Simcolourproject_2stim_asymm_v5,2020.2.10,MacIntel,60,61025ae37ef11b136ea224fe,,,,,,,,,,,,,,,,,,,,,,,,,,,,,,,,,,,,,,,,,,,,,,
,,,,,,,,,,,,,FF,,,,,,,,2.334,,,,,,,,,,,,,,,,,,,,,,6102087c864264a3f5579fc4,610368024ea5c745f2981370,2021-07-29_22h47.12.558,Simcolourproject_2stim_asymm_v5,2020.2.10,MacIntel,60,61025ae37ef11b136ea224fe,,,,,,,space,6.616,1315,72,-56,1,0,0,response3disk,,5,-6,3,1,0,0,rectangle,-6,3,1,0,0,-6,3,1,0,0,0,0,0,103,1,,,,,,,,
,,,,,,,,,,,,,FF,,,,,,,,5.217,,,,,,,,,,,,,,,,,,,,,,6102087c864264a3f5579fc4,610368024ea5c745f2981370,2021-07-29_22h47.12.558,Simcolourproject_2stim_asymm_v5,2020.2.10,MacIntel,60,61025ae37ef11b136ea224fe,,,,,,,,,3000,-70,30,1,0,0,response7disk,,1,-24,3,1,0,0,rectangle,-24,3,1,0,0,-24,3,1,0,0,0,1,1,93,1,,,,,,,,
,,,,,,,,,,,,,FF,,,,,,,,1.351,,,,,,,,,,,,,,,,,,,,,,6102087c864264a3f5579fc4,610368024ea5c745f2981370,2021-07-29_22h47.12.558,Simcolourproject_2stim_asymm_v5,2020.2.10,MacIntel,60,61025ae37ef11b136ea224fe,,,,,,,,,271,90,-25,1,0,0,response3disk,,5,15,-2,1,0,0,rectangle,15,-2,1,0,0,15,-2,1,0,0,0,2,2,6,1,,,,,,,,
,,,,,,,,,,,,,FF,,,,,,,,1.018,,,,,,,,,,,,,,,,,,,,,,6102087c864264a3f5579fc4,610368024ea5c745f2981370,2021-07-29_22h47.12.558,Simcolourproject_2stim_asymm_v5,2020.2.10,MacIntel,60,61025ae37ef11b136ea224fe,,,,,,,,,211,54,31,1,0,0,response1disk,,6,13,0,1,0,0,rectangle,13,0,1,0,0,13,0,1,0,0,0,3,3,57,1,,,,,,,,
,,,,,,,,,,,,,FF,,,,,,,,1.116,,,,,,,,,,,,,,,,,,,,,,6102087c864264a3f5579fc4,610368024ea5c745f2981370,2021-07-29_22h47.12.558,Simcolourproject_2stim_asymm_v5,2020.2.10,MacIntel,60,61025ae37ef11b136ea224fe,,,,,,,,,516,62,38,1,0,0,response1disk,,6,14,6,1,0,0,rectangle,14,6,1,0,0,14,6,1,0,0,0,4,4,78,1,,,,,,,,
,,,,,,,,,,,,,FF,,,,,,,,1.434,,,,,,,,,,,,,,,,,,,,,,6102087c864264a3f5579fc4,610368024ea5c745f2981370,2021-07-29_22h47.12.558,Simcolourproject_2stim_asymm_v5,2020.2.10,MacIntel,60,61025ae37ef11b136ea224fe,,,,,,,,,3047,-66,-28,1,0,0,response5disk,,2,-7,-2,1,0,0,rectangle,-33,-75,1,0,0,2,-5,1,0,0,0,5,5,159,1,,response5disk_3,TRUE,3,3,"[300,6,143,278,43,41,68,123,315,138,152,79,48,50,309,174,125,307,188,48]",2.034,rectangle
,,,,,,,,,,,,,FF,,,,,,,,2.037,,,,,,,,,,,,,,,,,,,,,,6102087c864264a3f5579fc4,610368024ea5c745f2981370,2021-07-29_22h47.12.558,Simcolourproject_2stim_asymm_v5,2020.2.10,MacIntel,60,61025ae37ef11b136ea224fe,,,,,,,,,2642,37,84,1,0,0,response1disk,,7,0,3,1,0,0,rectangle,0,3,1,0,0,0,3,1,0,0,0,6,6,115,1,,,,,,,,
,,,,,,,,,,,,,FF,,,,,,,,1.05,,,,,,,,,,,,,,,,,,,,,,6102087c864264a3f5579fc4,610368024ea5c745f2981370,2021-07-29_22h47.12.558,Simcolourproject_2stim_asymm_v5,2020.2.10,MacIntel,60,61025ae37ef11b136ea224fe,,,,,,,,,3578,29,62,1,0,0,response1disk,,7,-14,0,1,0,0,rectangle,-14,0,1,0,0,-14,0,1,0,0,0,7,7,158,1,,,,,,,,
,,,,,,,,,,,,,FF,,,,,,,,2.651,,,,,,,,,,,,,,,,,,,,,,6102087c864264a3f5579fc4,610368024ea5c745f2981370,2021-07-29_22h47.12.558,Simcolourproject_2stim_asymm_v5,2020.2.10,MacIntel,60,61025ae37ef11b136ea224fe,,,,,,,,,819,74,-30,1,0,0,response3disk,,5,5,4,1,0,0,rectangle,5,4,1,0,0,5,4,1,0,0,0,8,8,74,1,,,,,,,,
,,,,,,,,,,,,,FF,,,,,,,,1.083,,,,,,,,,,,,,,,,,,,,,,6102087c864264a3f5579fc4,610368024ea5c745f2981370,2021-07-29_22h47.12.558,Simcolourproject_2stim_asymm_v5,2020.2.10,MacIntel,60,61025ae37ef11b136ea224fe,,,,,,,,,2096,-62,-22,1,0,0,response5disk,,2,-7,-10,1,0,0,rectangle,-7,-10,1,0,0,-7,-10,1,0,0,0,9,9,99,1,,,,,,,,
,,,,,,,,,,,,,FF,,,,,,,,4.202,,,,,,,,,,,,,,,,,,,,,,6102087c864264a3f5579fc4,610368024ea5c745f2981370,2021-07-29_22h47.12.558,Simcolourproject_2stim_asymm_v5,2020.2.10,MacIntel,60,61025ae37ef11b136ea224fe,,,,,,,,,3494,78,-52,1,0,0,response3disk,,5,7,-5,1,0,0,rectangle,7,-5,1,0,0,7,-5,1,0,0,0,10,10,56,1,,,,,,,,
,,,,,,,,,,,,,FF,,,,,,,,1.168,,,,,,,,,,,,,,,,,,,,,,6102087c864264a3f5579fc4,610368024ea5c745f2981370,2021-07-29_22h47.12.558,Simcolourproject_2stim_asymm_v5,2020.2.10,MacIntel,60,61025ae37ef11b136ea224fe,,,,,,,,,1191,59,26,1,0,0,response1disk,,6,1,11,1,0,0,rectangle,1,11,1,0,0,1,11,1,0,0,0,11,11,136,1,,,,,,,,
,,,,,,,,,,,,,FF,,,,,,,,3.418,,,,,,,,,,,,,,,,,,,,,,6102087c864264a3f5579fc4,610368024ea5c745f2981370,2021-07-29_22h47.12.558,Simcolourproject_2stim_asymm_v5,2020.2.10,MacIntel,60,61025ae37ef11b136ea224fe,,,,,,,,,1305,32,-53,1,0,0,response3disk,,4,13,-1,1,0,0,rectangle,13,-1,1,0,0,13,-1,1,0,0,0,12,12,90,1,,,,,,,,
,,,,,,,,,,,,,FF,,,,,,,,1.752,,,,,,,,,,,,,,,,,,,,,,6102087c864264a3f5579fc4,610368024ea5c745f2981370,2021-07-29_22h47.12.558,Simcolourproject_2stim_asymm_v5,2020.2.10,MacIntel,60,61025ae37ef11b136ea224fe,,,,,,,,,292,62,-40,1,0,0,response3disk,,5,8,-8,1,0,0,rectangle,8,-8,1,0,0,8,-8,1,0,0,0,13,13,43,1,,,,,,,,
,,,,,,,,,,,,,FF,,,,,,,,1.917,,,,,,,,,,,,,,,,,,,,,,6102087c864264a3f5579fc4,610368024ea5c745f2981370,2021-07-29_22h47.12.558,Simcolourproject_2stim_asymm_v5,2020.2.10,MacIntel,60,61025ae37ef11b136ea224fe,,,,,,,,,2229,43,-79,1,0,0,response3disk,,4,16,13,1,0,0,rectangle,16,13,1,0,0,16,13,1,0,0,0,14,14,146,1,,,,,,,,
,,,,,,,,,,,,,FF,,,,,,,,1.266,,,,,,,,,,,,,,,,,,,,,,6102087c864264a3f5579fc4,610368024ea5c745f2981370,2021-07-29_22h47.12.558,Simcolourproject_2stim_asymm_v5,2020.2.10,MacIntel,60,61025ae37ef11b136ea224fe,,,,,,,,,3780,-61,-28,1,0,0,response5disk,,2,-15,2,1,0,0,rectangle,-15,2,1,0,0,-15,2,1,0,0,0,15,15,138,1,,,,,,,,
,,,,,,,,,,,,,FF,,,,,,,,1.9,,,,,,,,,,,,,,,,,,,,,,6102087c864264a3f5579fc4,610368024ea5c745f2981370,2021-07-29_22h47.12.558,Simcolourproject_2stim_asymm_v5,2020.2.10,MacIntel,60,61025ae37ef11b136ea224fe,,,,,,,,,2412,28,-80,1,0,0,response3disk,,4,8,2,1,0,0,rectangle,8,2,1,0,0,8,2,1,0,0,0,16,16,61,1,,,,,,,,
,,,,,,,,,,,,,FF,,,,,,,,1.134,,,,,,,,,,,,,,,,,,,,,,6102087c864264a3f5579fc4,610368024ea5c745f2981370,2021-07-29_22h47.12.558,Simcolourproject_2stim_asymm_v5,2020.2.10,MacIntel,60,61025ae37ef11b136ea224fe,,,,,,,,,2336,72,-26,1,0,0,response3disk,,5,19,-7,1,0,0,rectangle,19,-7,1,0,0,19,-7,1,0,0,0,17,17,108,1,,,,,,,,
,,,,,,,,,,,,,FF,,,,,,,,2.317,,,,,,,,,,,,,,,,,,,,,,6102087c864264a3f5579fc4,610368024ea5c745f2981370,2021-07-29_22h47.12.558,Simcolourproject_2stim_asymm_v5,2020.2.10,MacIntel,60,61025ae37ef11b136ea224fe,,,,,,,,,2734,75,-22,1,0,0,response3disk,,5,17,-7,1,0,0,rectangle,17,-7,1,0,0,17,-7,1,0,0,0,18,18,38,1,,,,,,,,
,,,,,,,,,,,,,FF,,,,,,,,7.92,,,,,,,,,,,,,,,,,,,,,,6102087c864264a3f5579fc4,610368024ea5c745f2981370,2021-07-29_22h47.12.558,Simcolourproject_2stim_asymm_v5,2020.2.10,MacIntel,60,61025ae37ef11b136ea224fe,,,,,,,,,1520,79,46,1,0,0,response1disk,,6,14,9,1,0,0,rectangle,14,9,1,0,0,14,9,1,0,0,0,19,19,101,1,,,,,,,,
,,,,,,,,,,,,,FF,,,,,,,,1.352,,,,,,,,,,,,,,,,,,,,,,6102087c864264a3f5579fc4,610368024ea5c745f2981370,2021-07-29_22h47.12.558,Simcolourproject_2stim_asymm_v5,2020.2.10,MacIntel,60,61025ae37ef11b136ea224fe,,,,,,,,,1492,25,53,1,0,0,response1disk,,7,1,4,1,0,0,rectangle,1,4,1,0,0,1,4,1,0,0,0,20,20,79,1,,,,,,,,
,,,,,,,,,,,,,FF,,,,,,,,1.15,,,,,,,,,,,,,,,,,,,,,,6102087c864264a3f5579fc4,610368024ea5c745f2981370,2021-07-29_22h47.12.558,Simcolourproject_2stim_asymm_v5,2020.2.10,MacIntel,60,61025ae37ef11b136ea224fe,,,,,,,,,804,-90,-36,1,0,0,response5disk,,2,-20,-7,1,0,0,rectangle,-20,-7,1,0,0,-20,-7,1,0,0,0,21,21,23,1,,,,,,,,
,,,,,,,,,,,,,FF,,,,,,,,0.919,,,,,,,,,,,,,,,,,,,,,,6102087c864264a3f5579fc4,610368024ea5c745f2981370,2021-07-29_22h47.12.558,Simcolourproject_2stim_asymm_v5,2020.2.10,MacIntel,60,61025ae37ef11b136ea224fe,,,,,,,,,3396,-51,-26,1,0,0,response5disk,,2,-14,-8,1,0,0,rectangle,-14,-8,1,0,0,-14,-8,1,0,0,0,22,22,58,1,,,,,,,,
,,,,,,,,,,,,,FF,,,,,,,,2.718,,,,,,,,,,,,,,,,,,,,,,6102087c864264a3f5579fc4,610368024ea5c745f2981370,2021-07-29_22h47.12.558,Simcolourproject_2stim_asymm_v5,2020.2.10,MacIntel,60,61025ae37ef11b136ea224fe,,,,,,,,,1341,38,58,1,0,0,response1disk,,7,17,2,1,0,0,rectangle,17,2,1,0,0,17,2,1,0,0,0,23,23,27,1,,,,,,,,
,,,,,,,,,,,,,FF,,,,,,,,1,,,,,,,,,,,,,,,,,,,,,,6102087c864264a3f5579fc4,610368024ea5c745f2981370,2021-07-29_22h47.12.558,Simcolourproject_2stim_asymm_v5,2020.2.10,MacIntel,60,61025ae37ef11b136ea224fe,,,,,,,,,1074,39,75,1,0,0,response1disk,,7,14,6,1,0,0,rectangle,14,6,1,0,0,14,6,1,0,0,0,24,24,71,1,,,,,,,,
,,,,,,,,,,,,,FF,,,,,,,,1.6,,,,,,,,,,,,,,,,,,,,,,6102087c864264a3f5579fc4,610368024ea5c745f2981370,2021-07-29_22h47.12.558,Simcolourproject_2stim_asymm_v5,2020.2.10,MacIntel,60,61025ae37ef11b136ea224fe,,,,,,,,,2648,89,47,1,0,0,response1disk,,6,18,2,1,0,0,rectangle,18,2,1,0,0,18,2,1,0,0,0,25,25,95,1,,,,,,,,
,,,,,,,,,,,,,FF,,,,,,,,1.883,,,,,,,,,,,,,,,,,,,,,,6102087c864264a3f5579fc4,610368024ea5c745f2981370,2021-07-29_22h47.12.558,Simcolourproject_2stim_asymm_v5,2020.2.10,MacIntel,60,61025ae37ef11b136ea224fe,,,,,,,,,821,70,40,1,0,0,response1disk,,6,7,4,1,0,0,rectangle,7,4,1,0,0,7,4,1,0,0,0,26,26,131,1,,,,,,,,
,,,,,,,,,,,,,FF,,,,,,,,1.7,,,,,,,,,,,,,,,,,,,,,,6102087c864264a3f5579fc4,610368024ea5c745f2981370,2021-07-29_22h47.12.558,Simcolourproject_2stim_asymm_v5,2020.2.10,MacIntel,60,61025ae37ef11b136ea224fe,,,,,,,,,2600,71,52,1,0,0,response1disk,,6,11,11,1,0,0,rectangle,11,11,1,0,0,11,11,1,0,0,0,27,27,134,1,,,,,,,,
,,,,,,,,,,,,,FF,,,,,,,,1.966,,,,,,,,,,,,,,,,,,,,,,6102087c864264a3f5579fc4,610368024ea5c745f2981370,2021-07-29_22h47.12.558,Simcolourproject_2stim_asymm_v5,2020.2.10,MacIntel,60,61025ae37ef11b136ea224fe,,,,,,,,,1442,33,-59,1,0,0,response3disk,,4,8,-4,1,0,0,rectangle,8,-4,1,0,0,8,-4,1,0,0,0,28,28,13,1,,,,,,,,
,,,,,,,,,,,,,FF,,,,,,,,1.6,,,,,,,,,,,,,,,,,,,,,,6102087c864264a3f5579fc4,610368024ea5c745f2981370,2021-07-29_22h47.12.558,Simcolourproject_2stim_asymm_v5,2020.2.10,MacIntel,60,61025ae37ef11b136ea224fe,,,,,,,,,664,68,28,1,0,0,response1disk,,6,8,6,1,0,0,rectangle,8,6,1,0,0,8,6,1,0,0,0,29,29,59,1,,,,,,,,
,,,,,,,,,,,,,FF,,,,,,,,1.968,,,,,,,,,,,,,,,,,,,,,,6102087c864264a3f5579fc4,610368024ea5c745f2981370,2021-07-29_22h47.12.558,Simcolourproject_2stim_asymm_v5,2020.2.10,MacIntel,60,61025ae37ef11b136ea224fe,,,,,,,,,2552,-25,-66,1,0,0,response5disk,,3,-6,-9,1,0,0,rectangle,-6,-9,1,0,0,-6,-9,1,0,0,0,30,30,135,1,,,,,,,,
,,,,,,,,,,,,,FF,,,,,,,,3.586,,,,,,,,,,,,,,,,,,,,,,6102087c864264a3f5579fc4,610368024ea5c745f2981370,2021-07-29_22h47.12.558,Simcolourproject_2stim_asymm_v5,2020.2.10,MacIntel,60,61025ae37ef11b136ea224fe,,,,,,,,,993,83,-39,1,0,0,response3disk,,5,13,6,1,0,0,rectangle,13,6,1,0,0,13,6,1,0,0,0,31,31,64,1,,,,,,,,
,,,,,,,,,,,,,FF,,,,,,,,0.968,,,,,,,,,,,,,,,,,,,,,,6102087c864264a3f5579fc4,610368024ea5c745f2981370,2021-07-29_22h47.12.558,Simcolourproject_2stim_asymm_v5,2020.2.10,MacIntel,60,61025ae37ef11b136ea224fe,,,,,,,,,1911,63,37,1,0,0,response1disk,,6,-9,6,1,0,0,rectangle,-9,6,1,0,0,-9,6,1,0,0,0,32,32,17,1,,,,,,,,
,,,,,,,,,,,,,FF,,,,,,,,1.416,,,,,,,,,,,,,,,,,,,,,,6102087c864264a3f5579fc4,610368024ea5c745f2981370,2021-07-29_22h47.12.558,Simcolourproject_2stim_asymm_v5,2020.2.10,MacIntel,60,61025ae37ef11b136ea224fe,,,,,,,,,1802,24,59,1,0,0,response1disk,,7,2,13,1,0,0,rectangle,2,13,1,0,0,2,13,1,0,0,0,33,33,31,1,,,,,,,,
,,,,,,,,,,,,,FF,,,,,,,,1.367,,,,,,,,,,,,,,,,,,,,,,6102087c864264a3f5579fc4,610368024ea5c745f2981370,2021-07-29_22h47.12.558,Simcolourproject_2stim_asymm_v5,2020.2.10,MacIntel,60,61025ae37ef11b136ea224fe,,,,,,,,,2118,54,35,1,0,0,response1disk,,6,-2,-3,1,0,0,rectangle,-2,-3,1,0,0,-2,-3,1,0,0,0,34,34,117,1,,,,,,,,
,,,,,,,,,,,,,FF,,,,,,,,1.901,,,,,,,,,,,,,,,,,,,,,,6102087c864264a3f5579fc4,610368024ea5c745f2981370,2021-07-29_22h47.12.558,Simcolourproject_2stim_asymm_v5,2020.2.10,MacIntel,60,61025ae37ef11b136ea224fe,,,,,,,,,4064,81,44,1,0,0,response1disk,,6,17,3,1,0,0,rectangle,17,3,1,0,0,17,3,1,0,0,0,35,35,60,1,,,,,,,,
,,,,,,,,,,,,,FF,,,,,,,,1.033,,,,,,,,,,,,,,,,,,,,,,6102087c864264a3f5579fc4,610368024ea5c745f2981370,2021-07-29_22h47.12.558,Simcolourproject_2stim_asymm_v5,2020.2.10,MacIntel,60,61025ae37ef11b136ea224fe,,,,,,,,,2936,-23,-56,1,0,0,response5disk,,3,-17,-5,1,0,0,rectangle,-17,-5,1,0,0,-17,-5,1,0,0,0,36,36,70,1,,,,,,,,
,,,,,,,,,,,,,FF,,,,,,,,0.984,,,,,,,,,,,,,,,,,,,,,,6102087c864264a3f5579fc4,610368024ea5c745f2981370,2021-07-29_22h47.12.558,Simcolourproject_2stim_asymm_v5,2020.2.10,MacIntel,60,61025ae37ef11b136ea224fe,,,,,,,,,1295,25,-49,1,0,0,response3disk,,4,4,5,1,0,0,rectangle,4,5,1,0,0,4,5,1,0,0,0,37,37,5,1,,,,,,,,
,,,,,,,,,,,,,FF,,,,,,,,1.184,,,,,,,,,,,,,,,,,,,,,,6102087c864264a3f5579fc4,610368024ea5c745f2981370,2021-07-29_22h47.12.558,Simcolourproject_2stim_asymm_v5,2020.2.10,MacIntel,60,61025ae37ef11b136ea224fe,,,,,,,,,3169,95,-54,1,0,0,response3disk,,5,-4,11,1,0,0,rectangle,-4,11,1,0,0,-4,11,1,0,0,0,38,38,24,1,,,,,,,,
,,,,,,,,,,,,,FF,,,,,,,,1.916,,,,,,,,,,,,,,,,,,,,,,6102087c864264a3f5579fc4,610368024ea5c745f2981370,2021-07-29_22h47.12.558,Simcolourproject_2stim_asymm_v5,2020.2.10,MacIntel,60,61025ae37ef11b136ea224fe,,,,,,,,,4091,74,-25,1,0,0,response3disk,,5,26,0,1,0,0,rectangle,26,0,1,0,0,26,0,1,0,0,0,39,39,157,1,,,,,,,,
,,,,,,,,,,,,,FF,,,,,,,,1.748,,,,,,,,,,,,,,,,,,,,,,6102087c864264a3f5579fc4,610368024ea5c745f2981370,2021-07-29_22h47.12.558,Simcolourproject_2stim_asymm_v5,2020.2.10,MacIntel,60,61025ae37ef11b136ea224fe,,,,,,,,,4137,73,42,1,0,0,response1disk,,6,12,-2,1,0,0,rectangle,28,-87,1,0,0,6,-3,1,0,0,0,40,40,63,1,,response3disk_3,TRUE,4,4,"[300,6,143,278,43,41,68,123,315,138,152,79,48,50,309,174,125,307,188,48]",2.083,rectangle
,,,,,,,,,,,,,FF,,,,,,,,2.733,,,,,,,,,,,,,,,,,,,,,,6102087c864264a3f5579fc4,610368024ea5c745f2981370,2021-07-29_22h47.12.558,Simcolourproject_2stim_asymm_v5,2020.2.10,MacIntel,60,61025ae37ef11b136ea224fe,,,,,,,,,2275,90,-27,1,0,0,response3disk,,5,-4,-2,1,0,0,rectangle,-4,-2,1,0,0,-4,-2,1,0,0,0,41,41,18,1,,,,,,,,
,,,,,,,,,,,,,FF,,,,,,,,1.417,,,,,,,,,,,,,,,,,,,,,,6102087c864264a3f5579fc4,610368024ea5c745f2981370,2021-07-29_22h47.12.558,Simcolourproject_2stim_asymm_v5,2020.2.10,MacIntel,60,61025ae37ef11b136ea224fe,,,,,,,,,1294,35,-83,1,0,0,response3disk,,4,4,5,1,0,0,rectangle,-77,51,1,0,0,-13,0,1,0,0,0,42,42,65,1,,response7disk_3,TRUE,1,1,"[300,6,143,278,43,41,68,123,315,138,152,79,48,50,309,174,125,307,188,48]",1.584,rectangle
,,,,,,,,,,,,,FF,,,,,,,,0.983,,,,,,,,,,,,,,,,,,,,,,6102087c864264a3f5579fc4,610368024ea5c745f2981370,2021-07-29_22h47.12.558,Simcolourproject_2stim_asymm_v5,2020.2.10,MacIntel,60,61025ae37ef11b136ea224fe,,,,,,,,,4000,-27,-68,1,0,0,response5disk,,3,-7,1,1,0,0,rectangle,-7,1,1,0,0,-7,1,1,0,0,0,43,43,30,1,,,,,,,,
,,,,,,,,,,,,,FF,,,,,,,,1.034,,,,,,,,,,,,,,,,,,,,,,6102087c864264a3f5579fc4,610368024ea5c745f2981370,2021-07-29_22h47.12.558,Simcolourproject_2stim_asymm_v5,2020.2.10,MacIntel,60,61025ae37ef11b136ea224fe,,,,,,,,,4234,82,-37,1,0,0,response3disk,,5,16,-2,1,0,0,rectangle,16,-2,1,0,0,16,-2,1,0,0,0,44,44,80,1,,,,,,,,
,,,,,,,,,,,,,FF,,,,,,,,0.917,,,,,,,,,,,,,,,,,,,,,,6102087c864264a3f5579fc4,610368024ea5c745f2981370,2021-07-29_22h47.12.558,Simcolourproject_2stim_asymm_v5,2020.2.10,MacIntel,60,61025ae37ef11b136ea224fe,,,,,,,,,1089,63,-39,1,0,0,response3disk,,5,14,-16,1,0,0,rectangle,14,-16,1,0,0,14,-16,1,0,0,0,45,45,11,1,,,,,,,,
,,,,,,,,,,,,,FF,,,,,,,,0.816,,,,,,,,,,,,,,,,,,,,,,6102087c864264a3f5579fc4,610368024ea5c745f2981370,2021-07-29_22h47.12.558,Simcolourproject_2stim_asymm_v5,2020.2.10,MacIntel,60,61025ae37ef11b136ea224fe,,,,,,,,,4076,-42,-75,1,0,0,response5disk,,3,-11,-3,1,0,0,rectangle,-11,-3,1,0,0,-11,-3,1,0,0,0,46,46,83,1,,,,,,,,
,,,,,,,,,,,,,FF,,,,,,,,2.349,,,,,,,,,,,,,,,,,,,,,,6102087c864264a3f5579fc4,610368024ea5c745f2981370,2021-07-29_22h47.12.558,Simcolourproject_2stim_asymm_v5,2020.2.10,MacIntel,60,61025ae37ef11b136ea224fe,,,,,,,,,1469,59,-87,1,0,0,response3disk,,4,10,2,1,0,0,rectangle,81,-43,1,0,0,17,-4,1,0,0,0,47,47,4,1,,response3disk_3,TRUE,5,5,"[300,6,143,278,43,41,68,123,315,138,152,79,48,50,309,174,125,307,188,48]",1.484,rectangle
,,,,,,,,,,,,,FF,,,,,,,,0.967,,,,,,,,,,,,,,,,,,,,,,6102087c864264a3f5579fc4,610368024ea5c745f2981370,2021-07-29_22h47.12.558,Simcolourproject_2stim_asymm_v5,2020.2.10,MacIntel,60,61025ae37ef11b136ea224fe,,,,,,,,,1937,52,-99,1,0,0,response3disk,,4,6,7,1,0,0,rectangle,6,7,1,0,0,6,7,1,0,0,0,48,48,121,1,,,,,,,,
,,,,,,,,,,,,,FF,,,,,,,,0.733,,,,,,,,,,,,,,,,,,,,,,6102087c864264a3f5579fc4,610368024ea5c745f2981370,2021-07-29_22h47.12.558,Simcolourproject_2stim_asymm_v5,2020.2.10,MacIntel,60,61025ae37ef11b136ea224fe,,,,,,,,,304,57,-40,1,0,0,response3disk,,5,10,-5,1,0,0,rectangle,-38,-77,1,0,0,-13,-4,1,0,0,0,49,49,15,1,,response5disk_3,TRUE,3,3,"[300,6,143,278,43,41,68,123,315,138,152,79,48,50,309,174,125,307,188,48]",2.317,rectangle
,,,,,,,,,,,,,FF,,,,,,,,1.401,,,,,,,,,,,,,,,,,,,,,,6102087c864264a3f5579fc4,610368024ea5c745f2981370,2021-07-29_22h47.12.558,Simcolourproject_2stim_asymm_v5,2020.2.10,MacIntel,60,61025ae37ef11b136ea224fe,,,,,,,,,2745,82,-26,1,0,0,response3disk,,5,-1,7,1,0,0,rectangle,-1,7,1,0,0,-1,7,1,0,0,0,50,50,7,1,,,,,,,,
,,,,,,,,,,,,,FF,,,,,,,,2.384,,,,,,,,,,,,,,,,,,,,,,6102087c864264a3f5579fc4,610368024ea5c745f2981370,2021-07-29_22h47.12.558,Simcolourproject_2stim_asymm_v5,2020.2.10,MacIntel,60,61025ae37ef11b136ea224fe,,,,,,,,,776,68,-37,1,0,0,response3disk,,5,6,-10,1,0,0,rectangle,6,-10,1,0,0,6,-10,1,0,0,0,51,51,110,1,,,,,,,,
,,,,,,,,,,,,,FF,,,,,,,,1.3,,,,,,,,,,,,,,,,,,,,,,6102087c864264a3f5579fc4,610368024ea5c745f2981370,2021-07-29_22h47.12.558,Simcolourproject_2stim_asymm_v5,2020.2.10,MacIntel,60,61025ae37ef11b136ea224fe,,,,,,,,,3878,43,-100,1,0,0,response3disk,,4,5,-3,1,0,0,rectangle,5,-3,1,0,0,5,-3,1,0,0,0,52,52,113,1,,,,,,,,
,,,,,,,,,,,,,FF,,,,,,,,1.717,,,,,,,,,,,,,,,,,,,,,,6102087c864264a3f5579fc4,610368024ea5c745f2981370,2021-07-29_22h47.12.558,Simcolourproject_2stim_asymm_v5,2020.2.10,MacIntel,60,61025ae37ef11b136ea224fe,,,,,,,,,1776,-34,-74,1,0,0,response5disk,,3,-3,1,1,0,0,rectangle,-3,1,1,0,0,-3,1,1,0,0,0,53,53,100,1,,,,,,,,
,,,,,,,,,,,,,FF,,,,,,,,3.136,,,,,,,,,,,,,,,,,,,,,,6102087c864264a3f5579fc4,610368024ea5c745f2981370,2021-07-29_22h47.12.558,Simcolourproject_2stim_asymm_v5,2020.2.10,MacIntel,60,61025ae37ef11b136ea224fe,,,,,,,,,1976,76,-38,1,0,0,response3disk,,5,10,0,1,0,0,rectangle,10,0,1,0,0,10,0,1,0,0,0,54,54,44,1,,,,,,,,
,,,,,,,,,,,,,FF,,,,,,,,0.849,,,,,,,,,,,,,,,,,,,,,,6102087c864264a3f5579fc4,610368024ea5c745f2981370,2021-07-29_22h47.12.558,Simcolourproject_2stim_asymm_v5,2020.2.10,MacIntel,60,61025ae37ef11b136ea224fe,,,,,,,,,72,-68,-27,1,0,0,response5disk,,2,-7,-2,1,0,0,rectangle,-7,-2,1,0,0,-7,-2,1,0,0,0,55,55,77,1,,,,,,,,
,,,,,,,,,,,,,FF,,,,,,,,2.268,,,,,,,,,,,,,,,,,,,,,,6102087c864264a3f5579fc4,610368024ea5c745f2981370,2021-07-29_22h47.12.558,Simcolourproject_2stim_asymm_v5,2020.2.10,MacIntel,60,61025ae37ef11b136ea224fe,,,,,,,,,1481,63,-34,1,0,0,response3disk,,5,6,-2,1,0,0,rectangle,6,-2,1,0,0,6,-2,1,0,0,0,56,56,133,1,,,,,,,,
,,,,,,,,,,,,,FF,,,,,,,,1.334,,,,,,,,,,,,,,,,,,,,,,6102087c864264a3f5579fc4,610368024ea5c745f2981370,2021-07-29_22h47.12.558,Simcolourproject_2stim_asymm_v5,2020.2.10,MacIntel,60,61025ae37ef11b136ea224fe,,,,,,,,,2538,36,-49,1,0,0,response3disk,,4,13,-10,1,0,0,rectangle,13,-10,1,0,0,13,-10,1,0,0,0,57,57,124,1,,,,,,,,
,,,,,,,,,,,,,FF,,,,,,,,1.884,,,,,,,,,,,,,,,,,,,,,,6102087c864264a3f5579fc4,610368024ea5c745f2981370,2021-07-29_22h47.12.558,Simcolourproject_2stim_asymm_v5,2020.2.10,MacIntel,60,61025ae37ef11b136ea224fe,,,,,,,,,1346,68,-36,1,0,0,response3disk,,5,15,-14,1,0,0,rectangle,15,-14,1,0,0,15,-14,1,0,0,0,58,58,156,1,,,,,,,,
,,,,,,,,,,,,,FF,,,,,,,,1.8,,,,,,,,,,,,,,,,,,,,,,6102087c864264a3f5579fc4,610368024ea5c745f2981370,2021-07-29_22h47.12.558,Simcolourproject_2stim_asymm_v5,2020.2.10,MacIntel,60,61025ae37ef11b136ea224fe,,,,,,,,,2007,70,30,1,0,0,response1disk,,6,9,-4,1,0,0,rectangle,9,-4,1,0,0,9,-4,1,0,0,0,59,59,2,1,,,,,,,,
,,,,,,,,,,,,,FF,,,,,,,,1.017,,,,,,,,,,,,,,,,,,,,,,6102087c864264a3f5579fc4,610368024ea5c745f2981370,2021-07-29_22h47.12.558,Simcolourproject_2stim_asymm_v5,2020.2.10,MacIntel,60,61025ae37ef11b136ea224fe,,,,,,,,,703,57,-23,1,0,0,response3disk,,5,5,-6,1,0,0,rectangle,5,-6,1,0,0,5,-6,1,0,0,0,60,60,128,1,,,,,,,,
,,,,,,,,,,,,,FF,,,,,,,,0.916,,,,,,,,,,,,,,,,,,,,,,6102087c864264a3f5579fc4,610368024ea5c745f2981370,2021-07-29_22h47.12.558,Simcolourproject_2stim_asymm_v5,2020.2.10,MacIntel,60,61025ae37ef11b136ea224fe,,,,,,,,,2719,-74,36,1,0,0,response7disk,,1,-19,5,1,0,0,rectangle,-19,5,1,0,0,-19,5,1,0,0,0,61,61,87,1,,,,,,,,
,,,,,,,,,,,,,FF,,,,,,,,1.717,,,,,,,,,,,,,,,,,,,,,,6102087c864264a3f5579fc4,610368024ea5c745f2981370,2021-07-29_22h47.12.558,Simcolourproject_2stim_asymm_v5,2020.2.10,MacIntel,60,61025ae37ef11b136ea224fe,,,,,,,,,2928,81,-37,1,0,0,response3disk,,5,17,-12,1,0,0,rectangle,17,-12,1,0,0,17,-12,1,0,0,0,62,62,142,1,,,,,,,,
,,,,,,,,,,,,,FF,,,,,,,,1.9,,,,,,,,,,,,,,,,,,,,,,6102087c864264a3f5579fc4,610368024ea5c745f2981370,2021-07-29_22h47.12.558,Simcolourproject_2stim_asymm_v5,2020.2.10,MacIntel,60,61025ae37ef11b136ea224fe,,,,,,,,,772,26,58,1,0,0,response1disk,,7,10,5,1,0,0,rectangle,10,5,1,0,0,10,5,1,0,0,0,63,63,102,1,,,,,,,,
,,,,,,,,,,,,,FF,,,,,,,,1.283,,,,,,,,,,,,,,,,,,,,,,6102087c864264a3f5579fc4,610368024ea5c745f2981370,2021-07-29_22h47.12.558,Simcolourproject_2stim_asymm_v5,2020.2.10,MacIntel,60,61025ae37ef11b136ea224fe,,,,,,,,,3352,35,101,1,0,0,response1disk,,7,8,-1,1,0,0,rectangle,8,-1,1,0,0,8,-1,1,0,0,0,64,64,29,1,,,,,,,,
,,,,,,,,,,,,,FF,,,,,,,,2.134,,,,,,,,,,,,,,,,,,,,,,6102087c864264a3f5579fc4,610368024ea5c745f2981370,2021-07-29_22h47.12.558,Simcolourproject_2stim_asymm_v5,2020.2.10,MacIntel,60,61025ae37ef11b136ea224fe,,,,,,,,,315,70,30,1,0,0,response1disk,,6,15,9,1,0,0,rectangle,15,9,1,0,0,15,9,1,0,0,0,65,65,68,1,,,,,,,,
,,,,,,,,,,,,,FF,,,,,,,,1.301,,,,,,,,,,,,,,,,,,,,,,6102087c864264a3f5579fc4,610368024ea5c745f2981370,2021-07-29_22h47.12.558,Simcolourproject_2stim_asymm_v5,2020.2.10,MacIntel,60,61025ae37ef11b136ea224fe,,,,,,,,,3836,50,-25,1,0,0,response3disk,,5,5,2,1,0,0,rectangle,5,2,1,0,0,5,2,1,0,0,0,66,66,96,1,,,,,,,,
,,,,,,,,,,,,,FF,,,,,,,,2.666,,,,,,,,,,,,,,,,,,,,,,6102087c864264a3f5579fc4,610368024ea5c745f2981370,2021-07-29_22h47.12.558,Simcolourproject_2stim_asymm_v5,2020.2.10,MacIntel,60,61025ae37ef11b136ea224fe,,,,,,,,,4212,37,81,1,0,0,response1disk,,7,17,14,1,0,0,rectangle,-94,-56,1,0,0,-16,0,1,0,0,0,67,67,91,1,,response5disk_3,TRUE,2,2,"[300,6,143,278,43,41,68,123,315,138,152,79,48,50,309,174,125,307,188,48]",1.616,rectangle
,,,,,,,,,,,,,FF,,,,,,,,1.92,,,,,,,,,,,,,,,,,,,,,,6102087c864264a3f5579fc4,610368024ea5c745f2981370,2021-07-29_22h47.12.558,Simcolourproject_2stim_asymm_v5,2020.2.10,MacIntel,60,61025ae37ef11b136ea224fe,,,,,,,,,1366,32,-74,1,0,0,response3disk,,4,12,-5,1,0,0,rectangle,12,-5,1,0,0,12,-5,1,0,0,0,68,68,8,1,,,,,,,,
,,,,,,,,,,,,,FF,,,,,,,,1.75,,,,,,,,,,,,,,,,,,,,,,6102087c864264a3f5579fc4,610368024ea5c745f2981370,2021-07-29_22h47.12.558,Simcolourproject_2stim_asymm_v5,2020.2.10,MacIntel,60,61025ae37ef11b136ea224fe,,,,,,,,,2520,62,42,1,0,0,response1disk,,6,6,5,1,0,0,rectangle,6,5,1,0,0,6,5,1,0,0,0,69,69,140,1,,,,,,,,
,,,,,,,,,,,,,FF,,,,,,,,2.384,,,,,,,,,,,,,,,,,,,,,,6102087c864264a3f5579fc4,610368024ea5c745f2981370,2021-07-29_22h47.12.558,Simcolourproject_2stim_asymm_v5,2020.2.10,MacIntel,60,61025ae37ef11b136ea224fe,,,,,,,,,2774,83,-42,1,0,0,response3disk,,5,14,7,1,0,0,rectangle,14,7,1,0,0,14,7,1,0,0,0,70,70,69,1,,,,,,,,
,,,,,,,,,,,,,FF,,,,,,,,0.951,,,,,,,,,,,,,,,,,,,,,,6102087c864264a3f5579fc4,610368024ea5c745f2981370,2021-07-29_22h47.12.558,Simcolourproject_2stim_asymm_v5,2020.2.10,MacIntel,60,61025ae37ef11b136ea224fe,,,,,,,,,3577,52,29,1,0,0,response1disk,,6,16,9,1,0,0,rectangle,16,9,1,0,0,16,9,1,0,0,0,71,71,19,1,,,,,,,,
,,,,,,,,,,,,,FF,,,,,,,,0.832,,,,,,,,,,,,,,,,,,,,,,6102087c864264a3f5579fc4,610368024ea5c745f2981370,2021-07-29_22h47.12.558,Simcolourproject_2stim_asymm_v5,2020.2.10,MacIntel,60,61025ae37ef11b136ea224fe,,,,,,,,,2395,47,34,1,0,0,response1disk,,6,-9,-5,1,0,0,rectangle,-9,-5,1,0,0,-9,-5,1,0,0,0,72,72,42,1,,,,,,,,
,,,,,,,,,,,,,FF,,,,,,,,1.349,,,,,,,,,,,,,,,,,,,,,,6102087c864264a3f5579fc4,610368024ea5c745f2981370,2021-07-29_22h47.12.558,Simcolourproject_2stim_asymm_v5,2020.2.10,MacIntel,60,61025ae37ef11b136ea224fe,,,,,,,,,1856,56,32,1,0,0,response1disk,,6,13,9,1,0,0,rectangle,13,9,1,0,0,13,9,1,0,0,0,73,73,73,1,,,,,,,,
,,,,,,,,,,,,,FF,,,,,,,,1.717,,,,,,,,,,,,,,,,,,,,,,6102087c864264a3f5579fc4,610368024ea5c745f2981370,2021-07-29_22h47.12.558,Simcolourproject_2stim_asymm_v5,2020.2.10,MacIntel,60,61025ae37ef11b136ea224fe,,,,,,,,,3611,48,29,1,0,0,response1disk,,6,11,5,1,0,0,rectangle,11,5,1,0,0,11,5,1,0,0,0,74,74,46,1,,,,,,,,
,,,,,,,,,,,,,FF,,,,,,,,1,,,,,,,,,,,,,,,,,,,,,,6102087c864264a3f5579fc4,610368024ea5c745f2981370,2021-07-29_22h47.12.558,Simcolourproject_2stim_asymm_v5,2020.2.10,MacIntel,60,61025ae37ef11b136ea224fe,,,,,,,,,1049,44,26,1,0,0,response1disk,,6,16,9,1,0,0,rectangle,16,9,1,0,0,16,9,1,0,0,0,75,75,129,1,,,,,,,,
,,,,,,,,,,,,,FF,,,,,,,,1.916,,,,,,,,,,,,,,,,,,,,,,6102087c864264a3f5579fc4,610368024ea5c745f2981370,2021-07-29_22h47.12.558,Simcolourproject_2stim_asymm_v5,2020.2.10,MacIntel,60,61025ae37ef11b136ea224fe,,,,,,,,,3237,27,-61,1,0,0,response3disk,,4,12,-14,1,0,0,rectangle,12,-14,1,0,0,12,-14,1,0,0,0,76,76,119,1,,,,,,,,
,,,,,,,,,,,,,FF,,,,,,,,0.919,,,,,,,,,,,,,,,,,,,,,,6102087c864264a3f5579fc4,610368024ea5c745f2981370,2021-07-29_22h47.12.558,Simcolourproject_2stim_asymm_v5,2020.2.10,MacIntel,60,61025ae37ef11b136ea224fe,,,,,,,,,3940,-32,-70,1,0,0,response5disk,,3,-12,-7,1,0,0,rectangle,-12,-7,1,0,0,-12,-7,1,0,0,0,77,77,105,1,,,,,,,,
,,,,,,,,,,,,,FF,,,,,,,,0.817,,,,,,,,,,,,,,,,,,,,,,6102087c864264a3f5579fc4,610368024ea5c745f2981370,2021-07-29_22h47.12.558,Simcolourproject_2stim_asymm_v5,2020.2.10,MacIntel,60,61025ae37ef11b136ea224fe,,,,,,,,,3890,72,-26,1,0,0,response3disk,,5,27,7,1,0,0,rectangle,81,-28,1,0,0,9,-1,1,0,0,0,78,78,127,1,,response3disk_3,TRUE,5,5,"[300,6,143,278,43,41,68,123,315,138,152,79,48,50,309,174,125,307,188,48]",2.067,rectangle
,,,,,,,,,,,,,FF,,,,,,,,1.035,,,,,,,,,,,,,,,,,,,,,,6102087c864264a3f5579fc4,610368024ea5c745f2981370,2021-07-29_22h47.12.558,Simcolourproject_2stim_asymm_v5,2020.2.10,MacIntel,60,61025ae37ef11b136ea224fe,,,,,,,,,433,52,-30,1,0,0,response3disk,,5,11,-6,1,0,0,rectangle,11,-6,1,0,0,11,-6,1,0,0,0,79,79,40,1,,,,,,,,
,,,,,,,,,,,,,FF,,,,,,,,1.8,,,,,,,,,,,,,,,,,,,,,,6102087c864264a3f5579fc4,610368024ea5c745f2981370,2021-07-29_22h47.12.558,Simcolourproject_2stim_asymm_v5,2020.2.10,MacIntel,60,61025ae37ef11b136ea224fe,,,,,,,,,2075,77,28,1,0,0,response1disk,,6,16,8,1,0,0,rectangle,16,8,1,0,0,16,8,1,0,0,0,80,80,126,1,,,,,,,,
,,,,,,,,,,,,,FF,,,,,,,,1.617,,,,,,,,,,,,,,,,,,,,,,6102087c864264a3f5579fc4,610368024ea5c745f2981370,2021-07-29_22h47.12.558,Simcolourproject_2stim_asymm_v5,2020.2.10,MacIntel,60,61025ae37ef11b136ea224fe,,,,,,,,,3071,69,44,1,0,0,response1disk,,6,20,13,1,0,0,rectangle,20,13,1,0,0,20,13,1,0,0,0,81,81,1,1,,,,,,,,
,,,,,,,,,,,,,FF,,,,,,,,1.417,,,,,,,,,,,,,,,,,,,,,,6102087c864264a3f5579fc4,610368024ea5c745f2981370,2021-07-29_22h47.12.558,Simcolourproject_2stim_asymm_v5,2020.2.10,MacIntel,60,61025ae37ef11b136ea224fe,,,,,,,,,2893,-45,-21,1,0,0,response5disk,,2,-16,-9,1,0,0,rectangle,-16,-9,1,0,0,-16,-9,1,0,0,0,82,82,139,1,,,,,,,,
,,,,,,,,,,,,,FF,,,,,,,,1.266,,,,,,,,,,,,,,,,,,,,,,6102087c864264a3f5579fc4,610368024ea5c745f2981370,2021-07-29_22h47.12.558,Simcolourproject_2stim_asymm_v5,2020.2.10,MacIntel,60,61025ae37ef11b136ea224fe,,,,,,,,,881,31,-72,1,0,0,response3disk,,4,10,2,1,0,0,rectangle,10,2,1,0,0,10,2,1,0,0,0,83,83,28,1,,,,,,,,
,,,,,,,,,,,,,FF,,,,,,,,1.984,,,,,,,,,,,,,,,,,,,,,,6102087c864264a3f5579fc4,610368024ea5c745f2981370,2021-07-29_22h47.12.558,Simcolourproject_2stim_asymm_v5,2020.2.10,MacIntel,60,61025ae37ef11b136ea224fe,,,,,,,,,1107,69,51,1,0,0,response1disk,,6,23,9,1,0,0,rectangle,23,9,1,0,0,23,9,1,0,0,0,84,84,120,1,,,,,,,,
,,,,,,,,,,,,,FF,,,,,,,,1.35,,,,,,,,,,,,,,,,,,,,,,6102087c864264a3f5579fc4,610368024ea5c745f2981370,2021-07-29_22h47.12.558,Simcolourproject_2stim_asymm_v5,2020.2.10,MacIntel,60,61025ae37ef11b136ea224fe,,,,,,,,,3084,25,57,1,0,0,response1disk,,7,7,14,1,0,0,rectangle,7,14,1,0,0,7,14,1,0,0,0,85,85,143,1,,,,,,,,
,,,,,,,,,,,,,FF,,,,,,,,0.967,,,,,,,,,,,,,,,,,,,,,,6102087c864264a3f5579fc4,610368024ea5c745f2981370,2021-07-29_22h47.12.558,Simcolourproject_2stim_asymm_v5,2020.2.10,MacIntel,60,61025ae37ef11b136ea224fe,,,,,,,,,888,-69,-29,1,0,0,response5disk,,2,-15,-11,1,0,0,rectangle,-15,-11,1,0,0,-15,-11,1,0,0,0,86,86,62,1,,,,,,,,
,,,,,,,,,,,,,FF,,,,,,,,2.034,,,,,,,,,,,,,,,,,,,,,,6102087c864264a3f5579fc4,610368024ea5c745f2981370,2021-07-29_22h47.12.558,Simcolourproject_2stim_asymm_v5,2020.2.10,MacIntel,60,61025ae37ef11b136ea224fe,,,,,,,,,3214,-27,-64,1,0,0,response5disk,,3,21,-5,1,0,0,rectangle,21,-5,1,0,0,21,-5,1,0,0,0,87,87,51,1,,,,,,,,
,,,,,,,,,,,,,FF,,,,,,,,1.016,,,,,,,,,,,,,,,,,,,,,,6102087c864264a3f5579fc4,610368024ea5c745f2981370,2021-07-29_22h47.12.558,Simcolourproject_2stim_asymm_v5,2020.2.10,MacIntel,60,61025ae37ef11b136ea224fe,,,,,,,,,2722,-60,-25,1,0,0,response5disk,,2,-18,4,1,0,0,rectangle,-18,4,1,0,0,-18,4,1,0,0,0,88,88,97,1,,,,,,,,
,,,,,,,,,,,,,FF,,,,,,,,0.801,,,,,,,,,,,,,,,,,,,,,,6102087c864264a3f5579fc4,610368024ea5c745f2981370,2021-07-29_22h47.12.558,Simcolourproject_2stim_asymm_v5,2020.2.10,MacIntel,60,61025ae37ef11b136ea224fe,,,,,,,,,1651,51,-40,1,0,0,response3disk,,5,11,-8,1,0,0,rectangle,11,-8,1,0,0,11,-8,1,0,0,0,89,89,52,1,,,,,,,,
,,,,,,,,,,,,,FF,,,,,,,,1.617,,,,,,,,,,,,,,,,,,,,,,6102087c864264a3f5579fc4,610368024ea5c745f2981370,2021-07-29_22h47.12.558,Simcolourproject_2stim_asymm_v5,2020.2.10,MacIntel,60,61025ae37ef11b136ea224fe,,,,,,,,,3718,-62,-32,1,0,0,response5disk,,2,-24,-3,1,0,0,rectangle,-24,-3,1,0,0,-24,-3,1,0,0,0,90,90,153,1,,,,,,,,
,,,,,,,,,,,,,FF,,,,,,,,1.266,,,,,,,,,,,,,,,,,,,,,,6102087c864264a3f5579fc4,610368024ea5c745f2981370,2021-07-29_22h47.12.558,Simcolourproject_2stim_asymm_v5,2020.2.10,MacIntel,60,61025ae37ef11b136ea224fe,,,,,,,,,2557,33,71,1,0,0,response1disk,,7,-3,-3,1,0,0,rectangle,-3,-3,1,0,0,-3,-3,1,0,0,0,91,91,39,1,,,,,,,,
,,,,,,,,,,,,,FF,,,,,,,,0.967,,,,,,,,,,,,,,,,,,,,,,6102087c864264a3f5579fc4,610368024ea5c745f2981370,2021-07-29_22h47.12.558,Simcolourproject_2stim_asymm_v5,2020.2.10,MacIntel,60,61025ae37ef11b136ea224fe,,,,,,,,,2227,-58,-34,1,0,0,response5disk,,2,-11,10,1,0,0,rectangle,-11,10,1,0,0,-11,10,1,0,0,0,92,92,107,1,,,,,,,,
,,,,,,,,,,,,,FF,,,,,,,,1.366,,,,,,,,,,,,,,,,,,,,,,6102087c864264a3f5579fc4,610368024ea5c745f2981370,2021-07-29_22h47.12.558,Simcolourproject_2stim_asymm_v5,2020.2.10,MacIntel,60,61025ae37ef11b136ea224fe,,,,,,,,,410,88,-25,1,0,0,response3disk,,5,5,-10,1,0,0,rectangle,5,-10,1,0,0,5,-10,1,0,0,0,93,93,85,1,,,,,,,,
,,,,,,,,,,,,,FF,,,,,,,,0.933,,,,,,,,,,,,,,,,,,,,,,6102087c864264a3f5579fc4,610368024ea5c745f2981370,2021-07-29_22h47.12.558,Simcolourproject_2stim_asymm_v5,2020.2.10,MacIntel,60,61025ae37ef11b136ea224fe,,,,,,,,,3093,-67,-31,1,0,0,response5disk,,2,-6,-2,1,0,0,rectangle,-6,-2,1,0,0,-6,-2,1,0,0,0,94,94,106,1,,,,,,,,
,,,,,,,,,,,,,FF,,,,,,,,2.25,,,,,,,,,,,,,,,,,,,,,,6102087c864264a3f5579fc4,610368024ea5c745f2981370,2021-07-29_22h47.12.558,Simcolourproject_2stim_asymm_v5,2020.2.10,MacIntel,60,61025ae37ef11b136ea224fe,,,,,,,,,3313,36,-61,1,0,0,response3disk,,4,1,8,1,0,0,rectangle,1,8,1,0,0,1,8,1,0,0,0,95,95,33,1,,,,,,,,
,,,,,,,,,,,,,FF,,,,,,,,1.267,,,,,,,,,,,,,,,,,,,,,,6102087c864264a3f5579fc4,610368024ea5c745f2981370,2021-07-29_22h47.12.558,Simcolourproject_2stim_asymm_v5,2020.2.10,MacIntel,60,61025ae37ef11b136ea224fe,,,,,,,,,2923,82,-26,1,0,0,response3disk,,5,10,2,1,0,0,rectangle,10,2,1,0,0,10,2,1,0,0,0,96,96,144,1,,,,,,,,
,,,,,,,,,,,,,FF,,,,,,,,1.316,,,,,,,,,,,,,,,,,,,,,,6102087c864264a3f5579fc4,610368024ea5c745f2981370,2021-07-29_22h47.12.558,Simcolourproject_2stim_asymm_v5,2020.2.10,MacIntel,60,61025ae37ef11b136ea224fe,,,,,,,,,2317,60,-25,1,0,0,response3disk,,5,6,-6,1,0,0,rectangle,6,-6,1,0,0,6,-6,1,0,0,0,97,97,50,1,,,,,,,,
,,,,,,,,,,,,,FF,,,,,,,,1.166,,,,,,,,,,,,,,,,,,,,,,6102087c864264a3f5579fc4,610368024ea5c745f2981370,2021-07-29_22h47.12.558,Simcolourproject_2stim_asymm_v5,2020.2.10,MacIntel,60,61025ae37ef11b136ea224fe,,,,,,,,,1384,-40,-63,1,0,0,response5disk,,3,-16,0,1,0,0,rectangle,-16,0,1,0,0,-16,0,1,0,0,0,98,98,148,1,,,,,,,,
,,,,,,,,,,,,,FF,,,,,,,,1.433,,,,,,,,,,,,,,,,,,,,,,6102087c864264a3f5579fc4,610368024ea5c745f2981370,2021-07-29_22h47.12.558,Simcolourproject_2stim_asymm_v5,2020.2.10,MacIntel,60,61025ae37ef11b136ea224fe,,,,,,,,,2624,73,-36,1,0,0,response3disk,,5,21,-12,1,0,0,rectangle,21,-12,1,0,0,21,-12,1,0,0,0,99,99,41,1,,,,,,,,
,,,,,,,,,,,,,FF,,,,,,,,1.321,,,,,,,,,,,,,,,,,,,,,,6102087c864264a3f5579fc4,610368024ea5c745f2981370,2021-07-29_22h47.12.558,Simcolourproject_2stim_asymm_v5,2020.2.10,MacIntel,60,61025ae37ef11b136ea224fe,,,,,,,,,1377,-31,-65,1,0,0,response5disk,,3,-11,-2,1,0,0,rectangle,-11,-2,1,0,0,-11,-2,1,0,0,0,100,100,132,1,,,,,,,,
,,,,,,,,,,,,,FF,,,,,,,,0.833,,,,,,,,,,,,,,,,,,,,,,6102087c864264a3f5579fc4,610368024ea5c745f2981370,2021-07-29_22h47.12.558,Simcolourproject_2stim_asymm_v5,2020.2.10,MacIntel,60,61025ae37ef11b136ea224fe,,,,,,,,,2230,52,-74,1,0,0,response3disk,,4,16,-9,1,0,0,rectangle,16,-9,1,0,0,16,-9,1,0,0,0,101,101,154,1,,,,,,,,
,,,,,,,,,,,,,FF,,,,,,,,0.867,,,,,,,,,,,,,,,,,,,,,,6102087c864264a3f5579fc4,610368024ea5c745f2981370,2021-07-29_22h47.12.558,Simcolourproject_2stim_asymm_v5,2020.2.10,MacIntel,60,61025ae37ef11b136ea224fe,,,,,,,,,81,-90,-23,1,0,0,response5disk,,2,-12,7,1,0,0,rectangle,-12,7,1,0,0,-12,7,1,0,0,0,102,102,82,1,,,,,,,,
,,,,,,,,,,,,,FF,,,,,,,,0.851,,,,,,,,,,,,,,,,,,,,,,6102087c864264a3f5579fc4,610368024ea5c745f2981370,2021-07-29_22h47.12.558,Simcolourproject_2stim_asymm_v5,2020.2.10,MacIntel,60,61025ae37ef11b136ea224fe,,,,,,,,,3099,-62,42,1,0,0,response7disk,,1,-15,5,1,0,0,rectangle,-15,5,1,0,0,-15,5,1,0,0,0,103,103,147,1,,,,,,,,
,,,,,,,,,,,,,FF,,,,,,,,1.852,,,,,,,,,,,,,,,,,,,,,,6102087c864264a3f5579fc4,610368024ea5c745f2981370,2021-07-29_22h47.12.558,Simcolourproject_2stim_asymm_v5,2020.2.10,MacIntel,60,61025ae37ef11b136ea224fe,,,,,,,,,2748,40,-58,1,0,0,response3disk,,4,4,-2,1,0,0,rectangle,4,-2,1,0,0,4,-2,1,0,0,0,104,104,49,1,,,,,,,,
,,,,,,,,,,,,,FF,,,,,,,,0.884,,,,,,,,,,,,,,,,,,,,,,6102087c864264a3f5579fc4,610368024ea5c745f2981370,2021-07-29_22h47.12.558,Simcolourproject_2stim_asymm_v5,2020.2.10,MacIntel,60,61025ae37ef11b136ea224fe,,,,,,,,,3974,-37,-73,1,0,0,response5disk,,3,-7,8,1,0,0,rectangle,-7,8,1,0,0,-7,8,1,0,0,0,105,105,34,1,,,,,,,,
,,,,,,,,,,,,,FF,,,,,,,,1.3,,,,,,,,,,,,,,,,,,,,,,6102087c864264a3f5579fc4,610368024ea5c745f2981370,2021-07-29_22h47.12.558,Simcolourproject_2stim_asymm_v5,2020.2.10,MacIntel,60,61025ae37ef11b136ea224fe,,,,,,,,,1139,-40,-80,1,0,0,response5disk,,3,-8,-5,1,0,0,rectangle,-8,-5,1,0,0,-8,-5,1,0,0,0,106,106,155,1,,,,,,,,
,,,,,,,,,,,,,FF,,,,,,,,1.552,,,,,,,,,,,,,,,,,,,,,,6102087c864264a3f5579fc4,610368024ea5c745f2981370,2021-07-29_22h47.12.558,Simcolourproject_2stim_asymm_v5,2020.2.10,MacIntel,60,61025ae37ef11b136ea224fe,,,,,,,,,2139,71,-36,1,0,0,response3disk,,5,5,-11,1,0,0,rectangle,5,-11,1,0,0,5,-11,1,0,0,0,107,107,32,1,,,,,,,,
,,,,,,,,,,,,,FF,,,,,,,,0.9,,,,,,,,,,,,,,,,,,,,,,6102087c864264a3f5579fc4,610368024ea5c745f2981370,2021-07-29_22h47.12.558,Simcolourproject_2stim_asymm_v5,2020.2.10,MacIntel,60,61025ae37ef11b136ea224fe,,,,,,,,,1975,66,-26,1,0,0,response3disk,,5,14,-14,1,0,0,rectangle,14,-14,1,0,0,14,-14,1,0,0,0,108,108,21,1,,,,,,,,
,,,,,,,,,,,,,FF,,,,,,,,1.567,,,,,,,,,,,,,,,,,,,,,,6102087c864264a3f5579fc4,610368024ea5c745f2981370,2021-07-29_22h47.12.558,Simcolourproject_2stim_asymm_v5,2020.2.10,MacIntel,60,61025ae37ef11b136ea224fe,,,,,,,,,1319,40,-17,1,0,0,response3disk,,5,0,-1,1,0,0,rectangle,0,-1,1,0,0,0,-1,1,0,0,0,109,109,94,1,,,,,,,,
,,,,,,,,,,,,,FF,,,,,,,,2.237,,,,,,,,,,,,,,,,,,,,,,6102087c864264a3f5579fc4,610368024ea5c745f2981370,2021-07-29_22h47.12.558,Simcolourproject_2stim_asymm_v5,2020.2.10,MacIntel,60,61025ae37ef11b136ea224fe,,,,,,,,,966,65,-37,1,0,0,response3disk,,5,9,-2,1,0,0,rectangle,9,-2,1,0,0,9,-2,1,0,0,0,110,110,88,1,,,,,,,,
,,,,,,,,,,,,,FF,,,,,,,,1.218,,,,,,,,,,,,,,,,,,,,,,6102087c864264a3f5579fc4,610368024ea5c745f2981370,2021-07-29_22h47.12.558,Simcolourproject_2stim_asymm_v5,2020.2.10,MacIntel,60,61025ae37ef11b136ea224fe,,,,,,,,,1684,-67,-26,1,0,0,response5disk,,2,-12,-9,1,0,0,rectangle,-12,-9,1,0,0,-12,-9,1,0,0,0,111,111,112,1,,,,,,,,
,,,,,,,,,,,,,FF,,,,,,,,2.566,,,,,,,,,,,,,,,,,,,,,,6102087c864264a3f5579fc4,610368024ea5c745f2981370,2021-07-29_22h47.12.558,Simcolourproject_2stim_asymm_v5,2020.2.10,MacIntel,60,61025ae37ef11b136ea224fe,,,,,,,,,314,47,-79,1,0,0,response3disk,,4,12,-9,1,0,0,rectangle,12,-9,1,0,0,12,-9,1,0,0,0,112,112,81,1,,,,,,,,
,,,,,,,,,,,,,FF,,,,,,,,5.186,,,,,,,,,,,,,,,,,,,,,,6102087c864264a3f5579fc4,610368024ea5c745f2981370,2021-07-29_22h47.12.558,Simcolourproject_2stim_asymm_v5,2020.2.10,MacIntel,60,61025ae37ef11b136ea224fe,,,,,,,,,1954,-74,-55,1,0,0,response5disk,,2,-23,-14,1,0,0,rectangle,-23,-14,1,0,0,-23,-14,1,0,0,0,113,113,53,1,,,,,,,,
,,,,,,,,,,,,,FF,,,,,,,,3.101,,,,,,,,,,,,,,,,,,,,,,6102087c864264a3f5579fc4,610368024ea5c745f2981370,2021-07-29_22h47.12.558,Simcolourproject_2stim_asymm_v5,2020.2.10,MacIntel,60,61025ae37ef11b136ea224fe,,,,,,,,,1819,-73,-30,1,0,0,response5disk,,2,-24,-7,1,0,0,rectangle,-24,-7,1,0,0,-24,-7,1,0,0,0,114,114,151,1,,,,,,,,
,,,,,,,,,,,,,FF,,,,,,,,0.767,,,,,,,,,,,,,,,,,,,,,,6102087c864264a3f5579fc4,610368024ea5c745f2981370,2021-07-29_22h47.12.558,Simcolourproject_2stim_asymm_v5,2020.2.10,MacIntel,60,61025ae37ef11b136ea224fe,,,,,,,,,2987,-62,-24,1,0,0,response5disk,,2,-18,-4,1,0,0,rectangle,-18,-4,1,0,0,-18,-4,1,0,0,0,115,115,45,1,,,,,,,,
,,,,,,,,,,,,,FF,,,,,,,,1.083,,,,,,,,,,,,,,,,,,,,,,6102087c864264a3f5579fc4,610368024ea5c745f2981370,2021-07-29_22h47.12.558,Simcolourproject_2stim_asymm_v5,2020.2.10,MacIntel,60,61025ae37ef11b136ea224fe,,,,,,,,,2632,71,-44,1,0,0,response3disk,,5,11,-15,1,0,0,rectangle,11,-15,1,0,0,11,-15,1,0,0,0,116,116,55,1,,,,,,,,
,,,,,,,,,,,,,FF,,,,,,,,1.367,,,,,,,,,,,,,,,,,,,,,,6102087c864264a3f5579fc4,610368024ea5c745f2981370,2021-07-29_22h47.12.558,Simcolourproject_2stim_asymm_v5,2020.2.10,MacIntel,60,61025ae37ef11b136ea224fe,,,,,,,,,1109,52,31,1,0,0,response1disk,,6,6,-1,1,0,0,rectangle,6,-1,1,0,0,6,-1,1,0,0,0,117,117,3,1,,,,,,,,
,,,,,,,,,,,,,FF,,,,,,,,1.217,,,,,,,,,,,,,,,,,,,,,,6102087c864264a3f5579fc4,610368024ea5c745f2981370,2021-07-29_22h47.12.558,Simcolourproject_2stim_asymm_v5,2020.2.10,MacIntel,60,61025ae37ef11b136ea224fe,,,,,,,,,859,74,-34,1,0,0,response3disk,,5,12,1,1,0,0,rectangle,12,1,1,0,0,12,1,1,0,0,0,118,118,89,1,,,,,,,,
,,,,,,,,,,,,,FF,,,,,,,,2.867,,,,,,,,,,,,,,,,,,,,,,6102087c864264a3f5579fc4,610368024ea5c745f2981370,2021-07-29_22h47.12.558,Simcolourproject_2stim_asymm_v5,2020.2.10,MacIntel,60,61025ae37ef11b136ea224fe,,,,,,,,,3661,-69,32,1,0,0,response7disk,,1,-15,-1,1,0,0,rectangle,-15,-1,1,0,0,-15,-1,1,0,0,0,119,119,26,1,,,,,,,,
,,,,,,,,,,,,,FF,,,,,,,,0.666,,,,,,,,,,,,,,,,,,,,,,6102087c864264a3f5579fc4,610368024ea5c745f2981370,2021-07-29_22h47.12.558,Simcolourproject_2stim_asymm_v5,2020.2.10,MacIntel,60,61025ae37ef11b136ea224fe,,,,,,,,,3049,-71,39,1,0,0,response7disk,,1,-20,9,1,0,0,rectangle,-20,9,1,0,0,-20,9,1,0,0,0,120,120,123,1,,,,,,,,
,,,,,,,,,,,,,FF,,,,,,,,0.667,,,,,,,,,,,,,,,,,,,,,,6102087c864264a3f5579fc4,610368024ea5c745f2981370,2021-07-29_22h47.12.558,Simcolourproject_2stim_asymm_v5,2020.2.10,MacIntel,60,61025ae37ef11b136ea224fe,,,,,,,,,1446,-61,-23,1,0,0,response5disk,,2,-8,-1,1,0,0,rectangle,-8,-1,1,0,0,-8,-1,1,0,0,0,121,121,12,1,,,,,,,,
,,,,,,,,,,,,,FF,,,,,,,,1.534,,,,,,,,,,,,,,,,,,,,,,6102087c864264a3f5579fc4,610368024ea5c745f2981370,2021-07-29_22h47.12.558,Simcolourproject_2stim_asymm_v5,2020.2.10,MacIntel,60,61025ae37ef11b136ea224fe,,,,,,,,,4278,65,-36,1,0,0,response3disk,,5,8,-7,1,0,0,rectangle,44,-85,1,0,0,14,1,1,0,0,0,122,122,150,1,,response3disk_3,TRUE,4,4,"[300,6,143,278,43,41,68,123,315,138,152,79,48,50,309,174,125,307,188,48]",1.6,rectangle
,,,,,,,,,,,,,FF,,,,,,,,5.802,,,,,,,,,,,,,,,,,,,,,,6102087c864264a3f5579fc4,610368024ea5c745f2981370,2021-07-29_22h47.12.558,Simcolourproject_2stim_asymm_v5,2020.2.10,MacIntel,60,61025ae37ef11b136ea224fe,,,,,,,,,1098,68,-24,1,0,0,response3disk,,5,15,-5,1,0,0,rectangle,15,-5,1,0,0,15,-5,1,0,0,0,123,123,84,1,,,,,,,,
,,,,,,,,,,,,,FF,,,,,,,,1.218,,,,,,,,,,,,,,,,,,,,,,6102087c864264a3f5579fc4,610368024ea5c745f2981370,2021-07-29_22h47.12.558,Simcolourproject_2stim_asymm_v5,2020.2.10,MacIntel,60,61025ae37ef11b136ea224fe,,,,,,,,,3938,-45,77,1,0,0,response7disk,,0,-18,-10,1,0,0,rectangle,-72,-49,1,0,0,7,-5,1,0,0,0,124,124,14,1,,response5disk_3,TRUE,2,2,"[300,6,143,278,43,41,68,123,315,138,152,79,48,50,309,174,125,307,188,48]",1.784,rectangle
,,,,,,,,,,,,,FF,,,,,,,,2.201,,,,,,,,,,,,,,,,,,,,,,6102087c864264a3f5579fc4,610368024ea5c745f2981370,2021-07-29_22h47.12.558,Simcolourproject_2stim_asymm_v5,2020.2.10,MacIntel,60,61025ae37ef11b136ea224fe,,,,,,,,,261,-81,36,1,0,0,response7disk,,1,-10,2,1,0,0,rectangle,-10,2,1,0,0,-10,2,1,0,0,0,125,125,54,1,,,,,,,,
,,,,,,,,,,,,,FF,,,,,,,,3.919,,,,,,,,,,,,,,,,,,,,,,6102087c864264a3f5579fc4,610368024ea5c745f2981370,2021-07-29_22h47.12.558,Simcolourproject_2stim_asymm_v5,2020.2.10,MacIntel,60,61025ae37ef11b136ea224fe,,,,,,,,,3229,67,23,1,0,0,response1disk,,6,-7,-6,1,0,0,rectangle,-7,-6,1,0,0,-7,-6,1,0,0,0,126,126,20,1,,,,,,,,
,,,,,,,,,,,,,FF,,,,,,,,0.883,,,,,,,,,,,,,,,,,,,,,,6102087c864264a3f5579fc4,610368024ea5c745f2981370,2021-07-29_22h47.12.558,Simcolourproject_2stim_asymm_v5,2020.2.10,MacIntel,60,61025ae37ef11b136ea224fe,,,,,,,,,943,47,24,1,0,0,response1disk,,6,-2,-10,1,0,0,rectangle,-2,-10,1,0,0,-2,-10,1,0,0,0,127,127,67,1,,,,,,,,
,,,,,,,,,,,,,FF,,,,,,,,1.018,,,,,,,,,,,,,,,,,,,,,,6102087c864264a3f5579fc4,610368024ea5c745f2981370,2021-07-29_22h47.12.558,Simcolourproject_2stim_asymm_v5,2020.2.10,MacIntel,60,61025ae37ef11b136ea224fe,,,,,,,,,3376,-82,-38,1,0,0,response5disk,,2,-20,-9,1,0,0,rectangle,-20,-9,1,0,0,-20,-9,1,0,0,0,128,128,114,1,,,,,,,,
,,,,,,,,,,,,,FF,,,,,,,,0.818,,,,,,,,,,,,,,,,,,,,,,6102087c864264a3f5579fc4,610368024ea5c745f2981370,2021-07-29_22h47.12.558,Simcolourproject_2stim_asymm_v5,2020.2.10,MacIntel,60,61025ae37ef11b136ea224fe,,,,,,,,,1588,-26,-57,1,0,0,response5disk,,3,-7,0,1,0,0,rectangle,-7,0,1,0,0,-7,0,1,0,0,0,129,129,145,1,,,,,,,,
,,,,,,,,,,,,,FF,,,,,,,,0.818,,,,,,,,,,,,,,,,,,,,,,6102087c864264a3f5579fc4,610368024ea5c745f2981370,2021-07-29_22h47.12.558,Simcolourproject_2stim_asymm_v5,2020.2.10,MacIntel,60,61025ae37ef11b136ea224fe,,,,,,,,,4047,-82,-35,1,0,0,response5disk,,2,-19,-4,1,0,0,rectangle,-19,-4,1,0,0,-19,-4,1,0,0,0,130,130,152,1,,,,,,,,
,,,,,,,,,,,,,FF,,,,,,,,1.967,,,,,,,,,,,,,,,,,,,,,,6102087c864264a3f5579fc4,610368024ea5c745f2981370,2021-07-29_22h47.12.558,Simcolourproject_2stim_asymm_v5,2020.2.10,MacIntel,60,61025ae37ef11b136ea224fe,,,,,,,,,2654,-33,-68,1,0,0,response5disk,,3,-8,-5,1,0,0,rectangle,-8,-5,1,0,0,-8,-5,1,0,0,0,131,131,76,1,,,,,,,,
,,,,,,,,,,,,,FF,,,,,,,,12.04,,,,,,,,,,,,,,,,,,,,,,6102087c864264a3f5579fc4,610368024ea5c745f2981370,2021-07-29_22h47.12.558,Simcolourproject_2stim_asymm_v5,2020.2.10,MacIntel,60,61025ae37ef11b136ea224fe,,,,,,,,,1334,44,-59,1,0,0,response3disk,,4,16,0,1,0,0,rectangle,16,0,1,0,0,16,0,1,0,0,0,132,132,111,1,,,,,,,,
,,,,,,,,,,,,,FF,,,,,,,,0.966,,,,,,,,,,,,,,,,,,,,,,6102087c864264a3f5579fc4,610368024ea5c745f2981370,2021-07-29_22h47.12.558,Simcolourproject_2stim_asymm_v5,2020.2.10,MacIntel,60,61025ae37ef11b136ea224fe,,,,,,,,,3846,-96,-55,1,0,0,response5disk,,2,-8,-3,1,0,0,rectangle,-8,-3,1,0,0,-8,-3,1,0,0,0,133,133,16,1,,,,,,,,
,,,,,,,,,,,,,FF,,,,,,,,2.717,,,,,,,,,,,,,,,,,,,,,,6102087c864264a3f5579fc4,610368024ea5c745f2981370,2021-07-29_22h47.12.558,Simcolourproject_2stim_asymm_v5,2020.2.10,MacIntel,60,61025ae37ef11b136ea224fe,,,,,,,,,1715,32,79,1,0,0,response1disk,,7,-6,14,1,0,0,rectangle,-6,14,1,0,0,-6,14,1,0,0,0,134,134,109,1,,,,,,,,
,,,,,,,,,,,,,FF,,,,,,,,1.717,,,,,,,,,,,,,,,,,,,,,,6102087c864264a3f5579fc4,610368024ea5c745f2981370,2021-07-29_22h47.12.558,Simcolourproject_2stim_asymm_v5,2020.2.10,MacIntel,60,61025ae37ef11b136ea224fe,,,,,,,,,3682,-34,-64,1,0,0,response5disk,,3,-18,-5,1,0,0,rectangle,-18,-5,1,0,0,-18,-5,1,0,0,0,135,135,75,1,,,,,,,,
,,,,,,,,,,,,,FF,,,,,,,,0.917,,,,,,,,,,,,,,,,,,,,,,6102087c864264a3f5579fc4,610368024ea5c745f2981370,2021-07-29_22h47.12.558,Simcolourproject_2stim_asymm_v5,2020.2.10,MacIntel,60,61025ae37ef11b136ea224fe,,,,,,,,,2761,34,-91,1,0,0,response3disk,,4,16,5,1,0,0,rectangle,16,5,1,0,0,16,5,1,0,0,0,136,136,9,1,,,,,,,,
,,,,,,,,,,,,,FF,,,,,,,,1.183,,,,,,,,,,,,,,,,,,,,,,6102087c864264a3f5579fc4,610368024ea5c745f2981370,2021-07-29_22h47.12.558,Simcolourproject_2stim_asymm_v5,2020.2.10,MacIntel,60,61025ae37ef11b136ea224fe,,,,,,,,,2263,52,-39,1,0,0,response3disk,,5,6,-13,1,0,0,rectangle,-93,-45,1,0,0,6,3,1,0,0,0,137,137,141,1,,response5disk_3,TRUE,2,2,"[300,6,143,278,43,41,68,123,315,138,152,79,48,50,309,174,125,307,188,48]",1.667,rectangle
,,,,,,,,,,,,,FF,,,,,,,,2.45,,,,,,,,,,,,,,,,,,,,,,6102087c864264a3f5579fc4,610368024ea5c745f2981370,2021-07-29_22h47.12.558,Simcolourproject_2stim_asymm_v5,2020.2.10,MacIntel,60,61025ae37ef11b136ea224fe,,,,,,,,,12,56,-30,1,0,0,response3disk,,5,-2,-1,1,0,0,rectangle,-2,-1,1,0,0,-2,-1,1,0,0,0,138,138,25,1,,,,,,,,
,,,,,,,,,,,,,FF,,,,,,,,2.583,,,,,,,,,,,,,,,,,,,,,,6102087c864264a3f5579fc4,610368024ea5c745f2981370,2021-07-29_22h47.12.558,Simcolourproject_2stim_asymm_v5,2020.2.10,MacIntel,60,61025ae37ef11b136ea224fe,,,,,,,,,1404,67,-46,1,0,0,response3disk,,5,11,-4,1,0,0,rectangle,11,-4,1,0,0,11,-4,1,0,0,0,139,139,36,1,,,,,,,,
,,,,,,,,,,,,,FF,,,,,,,,0.75,,,,,,,,,,,,,,,,,,,,,,6102087c864264a3f5579fc4,610368024ea5c745f2981370,2021-07-29_22h47.12.558,Simcolourproject_2stim_asymm_v5,2020.2.10,MacIntel,60,61025ae37ef11b136ea224fe,,,,,,,,,2441,53,23,1,0,0,response1disk,,6,-5,2,1,0,0,rectangle,-5,2,1,0,0,-5,2,1,0,0,0,140,140,35,1,,,,,,,,
,,,,,,,,,,,,,FF,,,,,,,,3.918,,,,,,,,,,,,,,,,,,,,,,6102087c864264a3f5579fc4,610368024ea5c745f2981370,2021-07-29_22h47.12.558,Simcolourproject_2stim_asymm_v5,2020.2.10,MacIntel,60,61025ae37ef11b136ea224fe,,,,,,,,,2191,70,-39,1,0,0,response3disk,,5,10,0,1,0,0,rectangle,10,0,1,0,0,10,0,1,0,0,0,141,141,137,1,,,,,,,,
,,,,,,,,,,,,,FF,,,,,,,,1.217,,,,,,,,,,,,,,,,,,,,,,6102087c864264a3f5579fc4,610368024ea5c745f2981370,2021-07-29_22h47.12.558,Simcolourproject_2stim_asymm_v5,2020.2.10,MacIntel,60,61025ae37ef11b136ea224fe,,,,,,,,,1457,-88,-40,1,0,0,response5disk,,2,-2,-12,1,0,0,rectangle,36,-57,1,0,0,3,7,1,0,0,0,142,142,22,1,,response3disk_3,TRUE,4,4,"[300,6,143,278,43,41,68,123,315,138,152,79,48,50,309,174,125,307,188,48]",1.432,rectangle
,,,,,,,,,,,,,FF,,,,,,,,0.901,,,,,,,,,,,,,,,,,,,,,,6102087c864264a3f5579fc4,610368024ea5c745f2981370,2021-07-29_22h47.12.558,Simcolourproject_2stim_asymm_v5,2020.2.10,MacIntel,60,61025ae37ef11b136ea224fe,,,,,,,,,1291,-60,-25,1,0,0,response5disk,,2,-1,-4,1,0,0,rectangle,-1,-4,1,0,0,-1,-4,1,0,0,0,143,143,48,1,,,,,,,,
,,,,,,,,,,,,,FF,,,,,,,,1.3,,,,,,,,,,,,,,,,,,,,,,6102087c864264a3f5579fc4,610368024ea5c745f2981370,2021-07-29_22h47.12.558,Simcolourproject_2stim_asymm_v5,2020.2.10,MacIntel,60,61025ae37ef11b136ea224fe,,,,,,,,,2879,-30,-84,1,0,0,response5disk,,3,1,-1,1,0,0,rectangle,1,-1,1,0,0,1,-1,1,0,0,0,144,144,104,1,,,,,,,,
,,,,,,,,,,,,,FF,,,,,,,,0.699,,,,,,,,,,,,,,,,,,,,,,6102087c864264a3f5579fc4,610368024ea5c745f2981370,2021-07-29_22h47.12.558,Simcolourproject_2stim_asymm_v5,2020.2.10,MacIntel,60,61025ae37ef11b136ea224fe,,,,,,,,,3649,29,-60,1,0,0,response3disk,,4,18,1,1,0,0,rectangle,18,1,1,0,0,18,1,1,0,0,0,145,145,47,1,,,,,,,,
,,,,,,,,,,,,,FF,,,,,,,,0.851,,,,,,,,,,,,,,,,,,,,,,6102087c864264a3f5579fc4,610368024ea5c745f2981370,2021-07-29_22h47.12.558,Simcolourproject_2stim_asymm_v5,2020.2.10,MacIntel,60,61025ae37ef11b136ea224fe,,,,,,,,,4338,-90,-29,1,0,0,response5disk,,2,-17,5,1,0,0,rectangle,-17,5,1,0,0,-17,5,1,0,0,0,146,146,149,1,,,,,,,,
,,,,,,,,,,,,,FF,,,,,,,,12.022,,,,,,,,,,,,,,,,,,,,,,6102087c864264a3f5579fc4,610368024ea5c745f2981370,2021-07-29_22h47.12.558,Simcolourproject_2stim_asymm_v5,2020.2.10,MacIntel,60,61025ae37ef11b136ea224fe,,,,,,,,,4089,-34,-82,1,0,0,response5disk,,3,-4,-11,1,0,0,rectangle,-4,-11,1,0,0,-4,-11,1,0,0,0,147,147,116,1,,,,,,,,
,,,,,,,,,,,,,FF,,,,,,,,9.137,,,,,,,,,,,,,,,,,,,,,,6102087c864264a3f5579fc4,610368024ea5c745f2981370,2021-07-29_22h47.12.558,Simcolourproject_2stim_asymm_v5,2020.2.10,MacIntel,60,61025ae37ef11b136ea224fe,,,,,,,,,1275,-38,-76,1,0,0,response5disk,,3,-23,-14,1,0,0,rectangle,-23,-14,1,0,0,-23,-14,1,0,0,0,148,148,118,1,,,,,,,,
,,,,,,,,,,,,,FF,,,,,,,,1.135,,,,,,,,,,,,,,,,,,,,,,6102087c864264a3f5579fc4,610368024ea5c745f2981370,2021-07-29_22h47.12.558,Simcolourproject_2stim_asymm_v5,2020.2.10,MacIntel,60,61025ae37ef11b136ea224fe,,,,,,,,,912,22,-85,1,0,0,response3disk,,4,7,13,1,0,0,rectangle,7,13,1,0,0,7,13,1,0,0,0,149,149,66,1,,,,,,,,
,,,,,,,,,,,,,FF,,,,,,,,3.55,,,,,,,,,,,,,,,,,,,,,,6102087c864264a3f5579fc4,610368024ea5c745f2981370,2021-07-29_22h47.12.558,Simcolourproject_2stim_asymm_v5,2020.2.10,MacIntel,60,61025ae37ef11b136ea224fe,,,,,,,,,3253,33,-39,1,0,0,response3disk,,4,7,4,1,0,0,rectangle,7,4,1,0,0,7,4,1,0,0,0,150,150,122,1,,,,,,,,
,,,,,,,,,,,,,FF,,,,,,,,0.999,,,,,,,,,,,,,,,,,,,,,,6102087c864264a3f5579fc4,610368024ea5c745f2981370,2021-07-29_22h47.12.558,Simcolourproject_2stim_asymm_v5,2020.2.10,MacIntel,60,61025ae37ef11b136ea224fe,,,,,,,,,1757,-56,-86,1,0,0,response5disk,,3,-11,-10,1,0,0,rectangle,97,48,1,0,0,10,7,1,0,0,0,151,151,72,1,,response1disk_3,TRUE,6,6,"[300,6,143,278,43,41,68,123,315,138,152,79,48,50,309,174,125,307,188,48]",1.966,rectangle
,,,,,,,,,,,,,FF,,,,,,,,2.152,,,,,,,,,,,,,,,,,,,,,,6102087c864264a3f5579fc4,610368024ea5c745f2981370,2021-07-29_22h47.12.558,Simcolourproject_2stim_asymm_v5,2020.2.10,MacIntel,60,61025ae37ef11b136ea224fe,,,,,,,,,2073,39,81,1,0,0,response1disk,,7,5,6,1,0,0,rectangle,5,6,1,0,0,5,6,1,0,0,0,152,152,92,1,,,,,,,,
,,,,,,,,,,,,,FF,,,,,,,,0.784,,,,,,,,,,,,,,,,,,,,,,6102087c864264a3f5579fc4,610368024ea5c745f2981370,2021-07-29_22h47.12.558,Simcolourproject_2stim_asymm_v5,2020.2.10,MacIntel,60,61025ae37ef11b136ea224fe,,,,,,,,,2974,64,28,1,0,0,response1disk,,6,1,3,1,0,0,rectangle,1,3,1,0,0,1,3,1,0,0,0,153,153,125,1,,,,,,,,
,,,,,,,,,,,,,FF,,,,,,,,1.467,,,,,,,,,,,,,,,,,,,,,,6102087c864264a3f5579fc4,610368024ea5c745f2981370,2021-07-29_22h47.12.558,Simcolourproject_2stim_asymm_v5,2020.2.10,MacIntel,60,61025ae37ef11b136ea224fe,,,,,,,,,3923,34,67,1,0,0,response1disk,,7,7,6,1,0,0,rectangle,7,6,1,0,0,7,6,1,0,0,0,154,154,98,1,,,,,,,,
,,,,,,,,,,,,,FF,,,,,,,,0.9,,,,,,,,,,,,,,,,,,,,,,6102087c864264a3f5579fc4,610368024ea5c745f2981370,2021-07-29_22h47.12.558,Simcolourproject_2stim_asymm_v5,2020.2.10,MacIntel,60,61025ae37ef11b136ea224fe,,,,,,,,,2815,83,40,1,0,0,response1disk,,6,13,-3,1,0,0,rectangle,13,-3,1,0,0,13,-3,1,0,0,0,155,155,86,1,,,,,,,,
,,,,,,,,,,,,,FF,,,,,,,,1.901,,,,,,,,,,,,,,,,,,,,,,6102087c864264a3f5579fc4,610368024ea5c745f2981370,2021-07-29_22h47.12.558,Simcolourproject_2stim_asymm_v5,2020.2.10,MacIntel,60,61025ae37ef11b136ea224fe,,,,,,,,,2407,77,42,1,0,0,response1disk,,6,17,8,1,0,0,rectangle,17,8,1,0,0,17,8,1,0,0,0,156,156,130,1,,,,,,,,
,,,,,,,,,,,,,FF,,,,,,,,2.15,,,,,,,,,,,,,,,,,,,,,,6102087c864264a3f5579fc4,610368024ea5c745f2981370,2021-07-29_22h47.12.558,Simcolourproject_2stim_asymm_v5,2020.2.10,MacIntel,60,61025ae37ef11b136ea224fe,,,,,,,,,1639,47,81,1,0,0,response1disk,,7,3,2,1,0,0,rectangle,3,2,1,0,0,3,2,1,0,0,0,157,157,37,1,,,,,,,,
,,,,,,,,,,,,,FF,,,,,,,,1.835,,,,,,,,,,,,,,,,,,,,,,6102087c864264a3f5579fc4,610368024ea5c745f2981370,2021-07-29_22h47.12.558,Simcolourproject_2stim_asymm_v5,2020.2.10,MacIntel,60,61025ae37ef11b136ea224fe,,,,,,,,,1972,-29,-79,1,0,0,response5disk,,3,-14,-3,1,0,0,rectangle,-14,-3,1,0,0,-14,-3,1,0,0,0,158,158,0,1,,,,,,,,
,,,,,,,,,,,,,FF,,,,,,,,0.916,,,,,,,,,,,,,,,,,,,,,,6102087c864264a3f5579fc4,610368024ea5c745f2981370,2021-07-29_22h47.12.558,Simcolourproject_2stim_asymm_v5,2020.2.10,MacIntel,60,61025ae37ef11b136ea224fe,,,,,,,,,2851,37,-67,1,0,0,response3disk,,4,4,-1,1,0,0,rectangle,4,-1,1,0,0,4,-1,1,0,0,0,159,159,10,1,,,,,,,,
,,,,,,,,,,,,,FF,,,,,,,,0.967,,,,,,,,,,,,,,,,,,,,,,6102087c864264a3f5579fc4,610368024ea5c745f2981370,2021-07-29_22h47.12.558,Simcolourproject_2stim_asymm_v5,2020.2.10,MacIntel,60,61025ae37ef11b136ea224fe,,,,,,,,,1315,84,-50,1,0,0,response3disk,,5,14,-11,1,0,0,rectangle,14,-11,1,0,0,14,-11,1,0,0,1,0,160,134,1,,,,,,,,
,,,,,,,,,,,,,FF,,,,,,,,1.733,,,,,,,,,,,,,,,,,,,,,,6102087c864264a3f5579fc4,610368024ea5c745f2981370,2021-07-29_22h47.12.558,Simcolourproject_2stim_asymm_v5,2020.2.10,MacIntel,60,61025ae37ef11b136ea224fe,,,,,,,,,3000,-53,106,1,0,0,response7disk,,0,-5,2,1,0,0,rectangle,-5,2,1,0,0,-5,2,1,0,0,1,1,161,157,1,,,,,,,,
,,,,,,,,,,,,,FF,,,,,,,,5.553,,,,,,,,,,,,,,,,,,,,,,6102087c864264a3f5579fc4,610368024ea5c745f2981370,2021-07-29_22h47.12.558,Simcolourproject_2stim_asymm_v5,2020.2.10,MacIntel,60,61025ae37ef11b136ea224fe,,,,,,,,,271,-39,-57,1,0,0,response5disk,,3,-13,-9,1,0,0,rectangle,-13,-9,1,0,0,-13,-9,1,0,0,1,2,162,146,1,,,,,,,,
,,,,,,,,,,,,,FF,,,,,,,,1.466,,,,,,,,,,,,,,,,,,,,,,6102087c864264a3f5579fc4,610368024ea5c745f2981370,2021-07-29_22h47.12.558,Simcolourproject_2stim_asymm_v5,2020.2.10,MacIntel,60,61025ae37ef11b136ea224fe,,,,,,,,,211,39,-54,1,0,0,response3disk,,4,9,-1,1,0,0,rectangle,9,-1,1,0,0,9,-1,1,0,0,1,3,163,124,1,,,,,,,,
,,,,,,,,,,,,,FF,,,,,,,,1.834,,,,,,,,,,,,,,,,,,,,,,6102087c864264a3f5579fc4,610368024ea5c745f2981370,2021-07-29_22h47.12.558,Simcolourproject_2stim_asymm_v5,2020.2.10,MacIntel,60,61025ae37ef11b136ea224fe,,,,,,,,,516,77,-23,1,0,0,response3disk,,5,7,-6,1,0,0,rectangle,7,-6,1,0,0,7,-6,1,0,0,1,4,164,50,1,,,,,,,,
,,,,,,,,,,,,,FF,,,,,,,,1.884,,,,,,,,,,,,,,,,,,,,,,6102087c864264a3f5579fc4,610368024ea5c745f2981370,2021-07-29_22h47.12.558,Simcolourproject_2stim_asymm_v5,2020.2.10,MacIntel,60,61025ae37ef11b136ea224fe,,,,,,,,,3047,-80,49,1,0,0,response7disk,,1,-5,11,1,0,0,rectangle,-5,11,1,0,0,-5,11,1,0,0,1,5,165,15,1,,,,,,,,
,,,,,,,,,,,,,FF,,,,,,,,1.951,,,,,,,,,,,,,,,,,,,,,,6102087c864264a3f5579fc4,610368024ea5c745f2981370,2021-07-29_22h47.12.558,Simcolourproject_2stim_asymm_v5,2020.2.10,MacIntel,60,61025ae37ef11b136ea224fe,,,,,,,,,2642,30,-71,1,0,0,response3disk,,4,13,-3,1,0,0,rectangle,13,-3,1,0,0,13,-3,1,0,0,1,6,166,25,1,,,,,,,,
,,,,,,,,,,,,,FF,,,,,,,,2.218,,,,,,,,,,,,,,,,,,,,,,6102087c864264a3f5579fc4,610368024ea5c745f2981370,2021-07-29_22h47.12.558,Simcolourproject_2stim_asymm_v5,2020.2.10,MacIntel,60,61025ae37ef11b136ea224fe,,,,,,,,,3578,72,-22,1,0,0,response3disk,,5,-6,9,1,0,0,rectangle,-6,9,1,0,0,-6,9,1,0,0,1,7,167,79,1,,,,,,,,
,,,,,,,,,,,,,FF,,,,,,,,1.634,,,,,,,,,,,,,,,,,,,,,,6102087c864264a3f5579fc4,610368024ea5c745f2981370,2021-07-29_22h47.12.558,Simcolourproject_2stim_asymm_v5,2020.2.10,MacIntel,60,61025ae37ef11b136ea224fe,,,,,,,,,819,65,-23,1,0,0,response3disk,,5,11,-4,1,0,0,rectangle,11,-4,1,0,0,11,-4,1,0,0,1,8,168,33,1,,,,,,,,
,,,,,,,,,,,,,FF,,,,,,,,1.15,,,,,,,,,,,,,,,,,,,,,,6102087c864264a3f5579fc4,610368024ea5c745f2981370,2021-07-29_22h47.12.558,Simcolourproject_2stim_asymm_v5,2020.2.10,MacIntel,60,61025ae37ef11b136ea224fe,,,,,,,,,2096,-63,-29,1,0,0,response5disk,,2,-2,-2,1,0,0,rectangle,-2,-2,1,0,0,-2,-2,1,0,0,1,9,169,73,1,,,,,,,,
,,,,,,,,,,,,,FF,,,,,,,,1.617,,,,,,,,,,,,,,,,,,,,,,6102087c864264a3f5579fc4,610368024ea5c745f2981370,2021-07-29_22h47.12.558,Simcolourproject_2stim_asymm_v5,2020.2.10,MacIntel,60,61025ae37ef11b136ea224fe,,,,,,,,,3494,76,-40,1,0,0,response3disk,,5,7,-4,1,0,0,rectangle,7,-4,1,0,0,7,-4,1,0,0,1,10,170,8,1,,,,,,,,
,,,,,,,,,,,,,FF,,,,,,,,0.902,,,,,,,,,,,,,,,,,,,,,,6102087c864264a3f5579fc4,610368024ea5c745f2981370,2021-07-29_22h47.12.558,Simcolourproject_2stim_asymm_v5,2020.2.10,MacIntel,60,61025ae37ef11b136ea224fe,,,,,,,,,1191,27,70,1,0,0,response1disk,,7,-2,2,1,0,0,rectangle,-2,2,1,0,0,-2,2,1,0,0,1,11,171,53,1,,,,,,,,
,,,,,,,,,,,,,FF,,,,,,,,1.701,,,,,,,,,,,,,,,,,,,,,,6102087c864264a3f5579fc4,610368024ea5c745f2981370,2021-07-29_22h47.12.558,Simcolourproject_2stim_asymm_v5,2020.2.10,MacIntel,60,61025ae37ef11b136ea224fe,,,,,,,,,1305,35,-74,1,0,0,response3disk,,4,6,2,1,0,0,rectangle,6,2,1,0,0,6,2,1,0,0,1,12,172,38,1,,,,,,,,
,,,,,,,,,,,,,FF,,,,,,,,1.917,,,,,,,,,,,,,,,,,,,,,,6102087c864264a3f5579fc4,610368024ea5c745f2981370,2021-07-29_22h47.12.558,Simcolourproject_2stim_asymm_v5,2020.2.10,MacIntel,60,61025ae37ef11b136ea224fe,,,,,,,,,292,73,-42,1,0,0,response3disk,,5,17,-4,1,0,0,rectangle,-26,85,1,0,0,-1,-9,1,0,0,1,13,173,145,1,,response7disk_3,TRUE,0,0,"[300,6,143,278,43,41,68,123,315,138,152,79,48,50,309,174,125,307,188,48]",1.384,rectangle
,,,,,,,,,,,,,FF,,,,,,,,1.5,,,,,,,,,,,,,,,,,,,,,,6102087c864264a3f5579fc4,610368024ea5c745f2981370,2021-07-29_22h47.12.558,Simcolourproject_2stim_asymm_v5,2020.2.10,MacIntel,60,61025ae37ef11b136ea224fe,,,,,,,,,2229,-79,-38,1,0,0,response5disk,,2,-10,-8,1,0,0,rectangle,-10,-8,1,0,0,-10,-8,1,0,0,1,14,174,34,1,,,,,,,,
,,,,,,,,,,,,,FF,,,,,,,,0.715,,,,,,,,,,,,,,,,,,,,,,6102087c864264a3f5579fc4,610368024ea5c745f2981370,2021-07-29_22h47.12.558,Simcolourproject_2stim_asymm_v5,2020.2.10,MacIntel,60,61025ae37ef11b136ea224fe,,,,,,,,,3780,-71,53,1,0,0,response7disk,,1,-3,4,1,0,0,rectangle,-3,4,1,0,0,-3,4,1,0,0,1,15,175,70,1,,,,,,,,
,,,,,,,,,,,,,FF,,,,,,,,0.901,,,,,,,,,,,,,,,,,,,,,,6102087c864264a3f5579fc4,610368024ea5c745f2981370,2021-07-29_22h47.12.558,Simcolourproject_2stim_asymm_v5,2020.2.10,MacIntel,60,61025ae37ef11b136ea224fe,,,,,,,,,2412,31,-62,1,0,0,response3disk,,4,12,-7,1,0,0,rectangle,12,-7,1,0,0,12,-7,1,0,0,1,16,176,47,1,,,,,,,,
,,,,,,,,,,,,,FF,,,,,,,,2.952,,,,,,,,,,,,,,,,,,,,,,6102087c864264a3f5579fc4,610368024ea5c745f2981370,2021-07-29_22h47.12.558,Simcolourproject_2stim_asymm_v5,2020.2.10,MacIntel,60,61025ae37ef11b136ea224fe,,,,,,,,,2336,74,28,1,0,0,response1disk,,6,14,3,1,0,0,rectangle,14,3,1,0,0,14,3,1,0,0,1,17,177,58,1,,,,,,,,
,,,,,,,,,,,,,FF,,,,,,,,1.601,,,,,,,,,,,,,,,,,,,,,,6102087c864264a3f5579fc4,610368024ea5c745f2981370,2021-07-29_22h47.12.558,Simcolourproject_2stim_asymm_v5,2020.2.10,MacIntel,60,61025ae37ef11b136ea224fe,,,,,,,,,2734,42,-89,1,0,0,response3disk,,4,2,-1,1,0,0,rectangle,2,-1,1,0,0,2,-1,1,0,0,1,18,178,152,1,,,,,,,,
,,,,,,,,,,,,,FF,,,,,,,,4.102,,,,,,,,,,,,,,,,,,,,,,6102087c864264a3f5579fc4,610368024ea5c745f2981370,2021-07-29_22h47.12.558,Simcolourproject_2stim_asymm_v5,2020.2.10,MacIntel,60,61025ae37ef11b136ea224fe,,,,,,,,,1520,52,-35,1,0,0,response3disk,,5,6,5,1,0,0,rectangle,6,5,1,0,0,6,5,1,0,0,1,19,179,3,1,,,,,,,,
,,,,,,,,,,,,,FF,,,,,,,,2.218,,,,,,,,,,,,,,,,,,,,,,6102087c864264a3f5579fc4,610368024ea5c745f2981370,2021-07-29_22h47.12.558,Simcolourproject_2stim_asymm_v5,2020.2.10,MacIntel,60,61025ae37ef11b136ea224fe,,,,,,,,,1492,39,61,1,0,0,response1disk,,7,-7,0,1,0,0,rectangle,-7,0,1,0,0,-7,0,1,0,0,1,20,180,80,1,,,,,,,,
,,,,,,,,,,,,,FF,,,,,,,,1.184,,,,,,,,,,,,,,,,,,,,,,6102087c864264a3f5579fc4,610368024ea5c745f2981370,2021-07-29_22h47.12.558,Simcolourproject_2stim_asymm_v5,2020.2.10,MacIntel,60,61025ae37ef11b136ea224fe,,,,,,,,,804,-34,-66,1,0,0,response5disk,,3,-21,-10,1,0,0,rectangle,-21,-10,1,0,0,-21,-10,1,0,0,1,21,181,133,1,,,,,,,,
,,,,,,,,,,,,,FF,,,,,,,,0.65,,,,,,,,,,,,,,,,,,,,,,6102087c864264a3f5579fc4,610368024ea5c745f2981370,2021-07-29_22h47.12.558,Simcolourproject_2stim_asymm_v5,2020.2.10,MacIntel,60,61025ae37ef11b136ea224fe,,,,,,,,,3396,-70,-25,1,0,0,response5disk,,2,-10,-5,1,0,0,rectangle,-10,-5,1,0,0,-10,-5,1,0,0,1,22,182,44,1,,,,,,,,
,,,,,,,,,,,,,FF,,,,,,,,1.401,,,,,,,,,,,,,,,,,,,,,,6102087c864264a3f5579fc4,610368024ea5c745f2981370,2021-07-29_22h47.12.558,Simcolourproject_2stim_asymm_v5,2020.2.10,MacIntel,60,61025ae37ef11b136ea224fe,,,,,,,,,1341,67,27,1,0,0,response1disk,,6,10,5,1,0,0,rectangle,10,5,1,0,0,10,5,1,0,0,1,23,183,127,1,,,,,,,,
,,,,,,,,,,,,,FF,,,,,,,,1.167,,,,,,,,,,,,,,,,,,,,,,6102087c864264a3f5579fc4,610368024ea5c745f2981370,2021-07-29_22h47.12.558,Simcolourproject_2stim_asymm_v5,2020.2.10,MacIntel,60,61025ae37ef11b136ea224fe,,,,,,,,,1074,49,-30,1,0,0,response3disk,,5,7,-11,1,0,0,rectangle,7,-11,1,0,0,7,-11,1,0,0,1,24,184,128,1,,,,,,,,
,,,,,,,,,,,,,FF,,,,,,,,3.034,,,,,,,,,,,,,,,,,,,,,,6102087c864264a3f5579fc4,610368024ea5c745f2981370,2021-07-29_22h47.12.558,Simcolourproject_2stim_asymm_v5,2020.2.10,MacIntel,60,61025ae37ef11b136ea224fe,,,,,,,,,2648,74,39,1,0,0,response1disk,,6,23,-2,1,0,0,rectangle,23,-2,1,0,0,23,-2,1,0,0,1,25,185,45,1,,,,,,,,
,,,,,,,,,,,,,FF,,,,,,,,2.3,,,,,,,,,,,,,,,,,,,,,,6102087c864264a3f5579fc4,610368024ea5c745f2981370,2021-07-29_22h47.12.558,Simcolourproject_2stim_asymm_v5,2020.2.10,MacIntel,60,61025ae37ef11b136ea224fe,,,,,,,,,821,64,-42,1,0,0,response3disk,,5,2,-4,1,0,0,rectangle,2,-4,1,0,0,2,-4,1,0,0,1,26,186,32,1,,,,,,,,
,,,,,,,,,,,,,FF,,,,,,,,1.666,,,,,,,,,,,,,,,,,,,,,,6102087c864264a3f5579fc4,610368024ea5c745f2981370,2021-07-29_22h47.12.558,Simcolourproject_2stim_asymm_v5,2020.2.10,MacIntel,60,61025ae37ef11b136ea224fe,,,,,,,,,2600,51,-15,1,0,0,response3disk,,5,10,11,1,0,0,rectangle,-83,46,1,0,0,-1,6,1,0,0,1,27,187,98,1,,response7disk_3,TRUE,1,1,"[300,6,143,278,43,41,68,123,315,138,152,79,48,50,309,174,125,307,188,48]",1.283,rectangle
,,,,,,,,,,,,,FF,,,,,,,,1.767,,,,,,,,,,,,,,,,,,,,,,6102087c864264a3f5579fc4,610368024ea5c745f2981370,2021-07-29_22h47.12.558,Simcolourproject_2stim_asymm_v5,2020.2.10,MacIntel,60,61025ae37ef11b136ea224fe,,,,,,,,,1442,-28,-81,1,0,0,response5disk,,3,-5,2,1,0,0,rectangle,-5,2,1,0,0,-5,2,1,0,0,1,28,188,84,1,,,,,,,,
,,,,,,,,,,,,,FF,,,,,,,,2.134,,,,,,,,,,,,,,,,,,,,,,6102087c864264a3f5579fc4,610368024ea5c745f2981370,2021-07-29_22h47.12.558,Simcolourproject_2stim_asymm_v5,2020.2.10,MacIntel,60,61025ae37ef11b136ea224fe,,,,,,,,,664,69,45,1,0,0,response1disk,,6,10,6,1,0,0,rectangle,10,6,1,0,0,10,6,1,0,0,1,29,189,82,1,,,,,,,,
,,,,,,,,,,,,,FF,,,,,,,,1.583,,,,,,,,,,,,,,,,,,,,,,6102087c864264a3f5579fc4,610368024ea5c745f2981370,2021-07-29_22h47.12.558,Simcolourproject_2stim_asymm_v5,2020.2.10,MacIntel,60,61025ae37ef11b136ea224fe,,,,,,,,,2552,18,-71,1,0,0,response3disk,,4,8,2,1,0,0,rectangle,8,2,1,0,0,8,2,1,0,0,1,30,190,138,1,,,,,,,,
,,,,,,,,,,,,,FF,,,,,,,,1.95,,,,,,,,,,,,,,,,,,,,,,6102087c864264a3f5579fc4,610368024ea5c745f2981370,2021-07-29_22h47.12.558,Simcolourproject_2stim_asymm_v5,2020.2.10,MacIntel,60,61025ae37ef11b136ea224fe,,,,,,,,,993,76,43,1,0,0,response1disk,,6,13,3,1,0,0,rectangle,13,3,1,0,0,13,3,1,0,0,1,31,191,135,1,,,,,,,,
,,,,,,,,,,,,,FF,,,,,,,,4.952,,,,,,,,,,,,,,,,,,,,,,6102087c864264a3f5579fc4,610368024ea5c745f2981370,2021-07-29_22h47.12.558,Simcolourproject_2stim_asymm_v5,2020.2.10,MacIntel,60,61025ae37ef11b136ea224fe,,,,,,,,,1911,60,-40,1,0,0,response3disk,,5,4,-5,1,0,0,rectangle,4,-5,1,0,0,4,-5,1,0,0,1,32,192,87,1,,,,,,,,
,,,,,,,,,,,,,FF,,,,,,,,3.934,,,,,,,,,,,,,,,,,,,,,,6102087c864264a3f5579fc4,610368024ea5c745f2981370,2021-07-29_22h47.12.558,Simcolourproject_2stim_asymm_v5,2020.2.10,MacIntel,60,61025ae37ef11b136ea224fe,,,,,,,,,1802,18,39,1,0,0,response1disk,,7,9,1,1,0,0,rectangle,9,1,1,0,0,9,1,1,0,0,1,33,193,66,1,,,,,,,,
,,,,,,,,,,,,,FF,,,,,,,,1.267,,,,,,,,,,,,,,,,,,,,,,6102087c864264a3f5579fc4,610368024ea5c745f2981370,2021-07-29_22h47.12.558,Simcolourproject_2stim_asymm_v5,2020.2.10,MacIntel,60,61025ae37ef11b136ea224fe,,,,,,,,,2118,78,32,1,0,0,response1disk,,6,22,1,1,0,0,rectangle,22,1,1,0,0,22,1,1,0,0,1,34,194,149,1,,,,,,,,
,,,,,,,,,,,,,FF,,,,,,,,1.417,,,,,,,,,,,,,,,,,,,,,,6102087c864264a3f5579fc4,610368024ea5c745f2981370,2021-07-29_22h47.12.558,Simcolourproject_2stim_asymm_v5,2020.2.10,MacIntel,60,61025ae37ef11b136ea224fe,,,,,,,,,4064,54,-21,1,0,0,response3disk,,5,18,-3,1,0,0,rectangle,18,-3,1,0,0,18,-3,1,0,0,1,35,195,148,1,,,,,,,,
,,,,,,,,,,,,,FF,,,,,,,,0.901,,,,,,,,,,,,,,,,,,,,,,6102087c864264a3f5579fc4,610368024ea5c745f2981370,2021-07-29_22h47.12.558,Simcolourproject_2stim_asymm_v5,2020.2.10,MacIntel,60,61025ae37ef11b136ea224fe,,,,,,,,,2936,-36,-81,1,0,0,response5disk,,3,-21,-3,1,0,0,rectangle,-21,-3,1,0,0,-21,-3,1,0,0,1,36,196,7,1,,,,,,,,
,,,,,,,,,,,,,FF,,,,,,,,0.918,,,,,,,,,,,,,,,,,,,,,,6102087c864264a3f5579fc4,610368024ea5c745f2981370,2021-07-29_22h47.12.558,Simcolourproject_2stim_asymm_v5,2020.2.10,MacIntel,60,61025ae37ef11b136ea224fe,,,,,,,,,1295,-69,-43,1,0,0,response5disk,,2,-17,-2,1,0,0,rectangle,-17,-2,1,0,0,-17,-2,1,0,0,1,37,197,123,1,,,,,,,,
,,,,,,,,,,,,,FF,,,,,,,,2.549,,,,,,,,,,,,,,,,,,,,,,6102087c864264a3f5579fc4,610368024ea5c745f2981370,2021-07-29_22h47.12.558,Simcolourproject_2stim_asymm_v5,2020.2.10,MacIntel,60,61025ae37ef11b136ea224fe,,,,,,,,,3169,24,-58,1,0,0,response3disk,,4,13,-3,1,0,0,rectangle,13,-3,1,0,0,13,-3,1,0,0,1,38,198,122,1,,,,,,,,
,,,,,,,,,,,,,FF,,,,,,,,1.585,,,,,,,,,,,,,,,,,,,,,,6102087c864264a3f5579fc4,610368024ea5c745f2981370,2021-07-29_22h47.12.558,Simcolourproject_2stim_asymm_v5,2020.2.10,MacIntel,60,61025ae37ef11b136ea224fe,,,,,,,,,4091,-41,-65,1,0,0,response5disk,,3,-7,-1,1,0,0,rectangle,-7,-1,1,0,0,-7,-1,1,0,0,1,39,199,40,1,,,,,,,,
,,,,,,,,,,,,,FF,,,,,,,,3.033,,,,,,,,,,,,,,,,,,,,,,6102087c864264a3f5579fc4,610368024ea5c745f2981370,2021-07-29_22h47.12.558,Simcolourproject_2stim_asymm_v5,2020.2.10,MacIntel,60,61025ae37ef11b136ea224fe,,,,,,,,,4137,33,72,1,0,0,response1disk,,7,1,6,1,0,0,rectangle,1,6,1,0,0,1,6,1,0,0,1,40,200,81,1,,,,,,,,
,,,,,,,,,,,,,FF,,,,,,,,1.433,,,,,,,,,,,,,,,,,,,,,,6102087c864264a3f5579fc4,610368024ea5c745f2981370,2021-07-29_22h47.12.558,Simcolourproject_2stim_asymm_v5,2020.2.10,MacIntel,60,61025ae37ef11b136ea224fe,,,,,,,,,2275,36,32,1,0,0,response1disk,,6,0,4,1,0,0,rectangle,0,4,1,0,0,0,4,1,0,0,1,41,201,74,1,,,,,,,,
,,,,,,,,,,,,,FF,,,,,,,,2,,,,,,,,,,,,,,,,,,,,,,6102087c864264a3f5579fc4,610368024ea5c745f2981370,2021-07-29_22h47.12.558,Simcolourproject_2stim_asymm_v5,2020.2.10,MacIntel,60,61025ae37ef11b136ea224fe,,,,,,,,,1294,-32,-70,1,0,0,response5disk,,3,-3,-2,1,0,0,rectangle,-3,-2,1,0,0,-3,-2,1,0,0,1,42,202,5,1,,,,,,,,
,,,,,,,,,,,,,FF,,,,,,,,0.85,,,,,,,,,,,,,,,,,,,,,,6102087c864264a3f5579fc4,610368024ea5c745f2981370,2021-07-29_22h47.12.558,Simcolourproject_2stim_asymm_v5,2020.2.10,MacIntel,60,61025ae37ef11b136ea224fe,,,,,,,,,4000,-67,-34,1,0,0,response5disk,,2,-22,3,1,0,0,rectangle,-22,3,1,0,0,-22,3,1,0,0,1,43,203,57,1,,,,,,,,
,,,,,,,,,,,,,FF,,,,,,,,1.716,,,,,,,,,,,,,,,,,,,,,,6102087c864264a3f5579fc4,610368024ea5c745f2981370,2021-07-29_22h47.12.558,Simcolourproject_2stim_asymm_v5,2020.2.10,MacIntel,60,61025ae37ef11b136ea224fe,,,,,,,,,4234,58,-32,1,0,0,response3disk,,5,6,-14,1,0,0,rectangle,6,-14,1,0,0,6,-14,1,0,0,1,44,204,17,1,,,,,,,,
,,,,,,,,,,,,,FF,,,,,,,,1.017,,,,,,,,,,,,,,,,,,,,,,6102087c864264a3f5579fc4,610368024ea5c745f2981370,2021-07-29_22h47.12.558,Simcolourproject_2stim_asymm_v5,2020.2.10,MacIntel,60,61025ae37ef11b136ea224fe,,,,,,,,,1089,46,23,1,0,0,response1disk,,6,18,0,1,0,0,rectangle,18,0,1,0,0,18,0,1,0,0,1,45,205,156,1,,,,,,,,
,,,,,,,,,,,,,FF,,,,,,,,1.2,,,,,,,,,,,,,,,,,,,,,,6102087c864264a3f5579fc4,610368024ea5c745f2981370,2021-07-29_22h47.12.558,Simcolourproject_2stim_asymm_v5,2020.2.10,MacIntel,60,61025ae37ef11b136ea224fe,,,,,,,,,4076,-76,-53,1,0,0,response5disk,,2,3,-7,1,0,0,rectangle,3,-7,1,0,0,3,-7,1,0,0,1,46,206,92,1,,,,,,,,
,,,,,,,,,,,,,FF,,,,,,,,0.836,,,,,,,,,,,,,,,,,,,,,,6102087c864264a3f5579fc4,610368024ea5c745f2981370,2021-07-29_22h47.12.558,Simcolourproject_2stim_asymm_v5,2020.2.10,MacIntel,60,61025ae37ef11b136ea224fe,,,,,,,,,1469,-31,-86,1,0,0,response5disk,,3,-4,-3,1,0,0,rectangle,-4,-3,1,0,0,-4,-3,1,0,0,1,47,207,13,1,,,,,,,,
,,,,,,,,,,,,,FF,,,,,,,,1.383,,,,,,,,,,,,,,,,,,,,,,6102087c864264a3f5579fc4,610368024ea5c745f2981370,2021-07-29_22h47.12.558,Simcolourproject_2stim_asymm_v5,2020.2.10,MacIntel,60,61025ae37ef11b136ea224fe,,,,,,,,,1937,29,-66,1,0,0,response3disk,,4,14,-6,1,0,0,rectangle,14,-6,1,0,0,14,-6,1,0,0,1,48,208,39,1,,,,,,,,
,,,,,,,,,,,,,FF,,,,,,,,1.62,,,,,,,,,,,,,,,,,,,,,,6102087c864264a3f5579fc4,610368024ea5c745f2981370,2021-07-29_22h47.12.558,Simcolourproject_2stim_asymm_v5,2020.2.10,MacIntel,60,61025ae37ef11b136ea224fe,,,,,,,,,304,53,28,1,0,0,response1disk,,6,14,8,1,0,0,rectangle,14,8,1,0,0,14,8,1,0,0,1,49,209,100,1,,,,,,,,
,,,,,,,,,,,,,FF,,,,,,,,1.95,,,,,,,,,,,,,,,,,,,,,,6102087c864264a3f5579fc4,610368024ea5c745f2981370,2021-07-29_22h47.12.558,Simcolourproject_2stim_asymm_v5,2020.2.10,MacIntel,60,61025ae37ef11b136ea224fe,,,,,,,,,2745,45,26,1,0,0,response1disk,,6,4,9,1,0,0,rectangle,4,9,1,0,0,4,9,1,0,0,1,50,210,114,1,,,,,,,,
,,,,,,,,,,,,,FF,,,,,,,,4.918,,,,,,,,,,,,,,,,,,,,,,6102087c864264a3f5579fc4,610368024ea5c745f2981370,2021-07-29_22h47.12.558,Simcolourproject_2stim_asymm_v5,2020.2.10,MacIntel,60,61025ae37ef11b136ea224fe,,,,,,,,,776,86,37,1,0,0,response1disk,,6,15,4,1,0,0,rectangle,15,4,1,0,0,15,4,1,0,0,1,51,211,30,1,,,,,,,,
,,,,,,,,,,,,,FF,,,,,,,,2.086,,,,,,,,,,,,,,,,,,,,,,6102087c864264a3f5579fc4,610368024ea5c745f2981370,2021-07-29_22h47.12.558,Simcolourproject_2stim_asymm_v5,2020.2.10,MacIntel,60,61025ae37ef11b136ea224fe,,,,,,,,,3878,39,-56,1,0,0,response3disk,,4,9,14,1,0,0,rectangle,9,14,1,0,0,9,14,1,0,0,1,52,212,41,1,,,,,,,,
,,,,,,,,,,,,,FF,,,,,,,,4.484,,,,,,,,,,,,,,,,,,,,,,6102087c864264a3f5579fc4,610368024ea5c745f2981370,2021-07-29_22h47.12.558,Simcolourproject_2stim_asymm_v5,2020.2.10,MacIntel,60,61025ae37ef11b136ea224fe,,,,,,,,,1776,64,-31,1,0,0,response3disk,,5,14,-7,1,0,0,rectangle,14,-7,1,0,0,14,-7,1,0,0,1,53,213,102,1,,,,,,,,
,,,,,,,,,,,,,FF,,,,,,,,0.983,,,,,,,,,,,,,,,,,,,,,,6102087c864264a3f5579fc4,610368024ea5c745f2981370,2021-07-29_22h47.12.558,Simcolourproject_2stim_asymm_v5,2020.2.10,MacIntel,60,61025ae37ef11b136ea224fe,,,,,,,,,1976,-33,-82,1,0,0,response5disk,,3,-6,4,1,0,0,rectangle,-6,4,1,0,0,-6,4,1,0,0,1,54,214,159,1,,,,,,,,
,,,,,,,,,,,,,FF,,,,,,,,2.367,,,,,,,,,,,,,,,,,,,,,,6102087c864264a3f5579fc4,610368024ea5c745f2981370,2021-07-29_22h47.12.558,Simcolourproject_2stim_asymm_v5,2020.2.10,MacIntel,60,61025ae37ef11b136ea224fe,,,,,,,,,72,-73,33,1,0,0,response7disk,,1,-15,7,1,0,0,rectangle,-15,7,1,0,0,-15,7,1,0,0,1,55,215,69,1,,,,,,,,
,,,,,,,,,,,,,FF,,,,,,,,2.667,,,,,,,,,,,,,,,,,,,,,,6102087c864264a3f5579fc4,610368024ea5c745f2981370,2021-07-29_22h47.12.558,Simcolourproject_2stim_asymm_v5,2020.2.10,MacIntel,60,61025ae37ef11b136ea224fe,,,,,,,,,1481,34,-69,1,0,0,response3disk,,4,17,2,1,0,0,rectangle,17,2,1,0,0,17,2,1,0,0,1,56,216,129,1,,,,,,,,
,,,,,,,,,,,,,FF,,,,,,,,1.601,,,,,,,,,,,,,,,,,,,,,,6102087c864264a3f5579fc4,610368024ea5c745f2981370,2021-07-29_22h47.12.558,Simcolourproject_2stim_asymm_v5,2020.2.10,MacIntel,60,61025ae37ef11b136ea224fe,,,,,,,,,2538,52,-37,1,0,0,response3disk,,5,0,5,1,0,0,rectangle,0,5,1,0,0,0,5,1,0,0,1,57,217,16,1,,,,,,,,
,,,,,,,,,,,,,FF,,,,,,,,1.099,,,,,,,,,,,,,,,,,,,,,,6102087c864264a3f5579fc4,610368024ea5c745f2981370,2021-07-29_22h47.12.558,Simcolourproject_2stim_asymm_v5,2020.2.10,MacIntel,60,61025ae37ef11b136ea224fe,,,,,,,,,1346,32,46,1,0,0,response1disk,,7,2,0,1,0,0,rectangle,2,0,1,0,0,2,0,1,0,0,1,58,218,90,1,,,,,,,,
,,,,,,,,,,,,,FF,,,,,,,,1.852,,,,,,,,,,,,,,,,,,,,,,6102087c864264a3f5579fc4,610368024ea5c745f2981370,2021-07-29_22h47.12.558,Simcolourproject_2stim_asymm_v5,2020.2.10,MacIntel,60,61025ae37ef11b136ea224fe,,,,,,,,,2007,23,67,1,0,0,response1disk,,7,12,11,1,0,0,rectangle,12,11,1,0,0,12,11,1,0,0,1,59,219,64,1,,,,,,,,
,,,,,,,,,,,,,FF,,,,,,,,1.267,,,,,,,,,,,,,,,,,,,,,,6102087c864264a3f5579fc4,610368024ea5c745f2981370,2021-07-29_22h47.12.558,Simcolourproject_2stim_asymm_v5,2020.2.10,MacIntel,60,61025ae37ef11b136ea224fe,,,,,,,,,703,49,33,1,0,0,response1disk,,6,25,9,1,0,0,rectangle,25,9,1,0,0,25,9,1,0,0,1,60,220,1,1,,,,,,,,
,,,,,,,,,,,,,FF,,,,,,,,0.85,,,,,,,,,,,,,,,,,,,,,,6102087c864264a3f5579fc4,610368024ea5c745f2981370,2021-07-29_22h47.12.558,Simcolourproject_2stim_asymm_v5,2020.2.10,MacIntel,60,61025ae37ef11b136ea224fe,,,,,,,,,2719,-49,103,1,0,0,response7disk,,0,-21,0,1,0,0,rectangle,-21,0,1,0,0,-21,0,1,0,0,1,61,221,56,1,,,,,,,,
,,,,,,,,,,,,,FF,,,,,,,,1.366,,,,,,,,,,,,,,,,,,,,,,6102087c864264a3f5579fc4,610368024ea5c745f2981370,2021-07-29_22h47.12.558,Simcolourproject_2stim_asymm_v5,2020.2.10,MacIntel,60,61025ae37ef11b136ea224fe,,,,,,,,,2928,53,-32,1,0,0,response3disk,,5,4,-3,1,0,0,rectangle,4,-3,1,0,0,4,-3,1,0,0,1,62,222,126,1,,,,,,,,
,,,,,,,,,,,,,FF,,,,,,,,0.785,,,,,,,,,,,,,,,,,,,,,,6102087c864264a3f5579fc4,610368024ea5c745f2981370,2021-07-29_22h47.12.558,Simcolourproject_2stim_asymm_v5,2020.2.10,MacIntel,60,61025ae37ef11b136ea224fe,,,,,,,,,772,36,78,1,0,0,response1disk,,7,8,4,1,0,0,rectangle,8,4,1,0,0,8,4,1,0,0,1,63,223,60,1,,,,,,,,
,,,,,,,,,,,,,FF,,,,,,,,1.95,,,,,,,,,,,,,,,,,,,,,,6102087c864264a3f5579fc4,610368024ea5c745f2981370,2021-07-29_22h47.12.558,Simcolourproject_2stim_asymm_v5,2020.2.10,MacIntel,60,61025ae37ef11b136ea224fe,,,,,,,,,3352,79,-14,1,0,0,response3disk,,5,11,2,1,0,0,rectangle,11,2,1,0,0,11,2,1,0,0,1,64,224,112,1,,,,,,,,
,,,,,,,,,,,,,FF,,,,,,,,1.233,,,,,,,,,,,,,,,,,,,,,,6102087c864264a3f5579fc4,610368024ea5c745f2981370,2021-07-29_22h47.12.558,Simcolourproject_2stim_asymm_v5,2020.2.10,MacIntel,60,61025ae37ef11b136ea224fe,,,,,,,,,315,35,83,1,0,0,response1disk,,7,11,3,1,0,0,rectangle,11,3,1,0,0,11,3,1,0,0,1,65,225,24,1,,,,,,,,
,,,,,,,,,,,,,FF,,,,,,,,1.7,,,,,,,,,,,,,,,,,,,,,,6102087c864264a3f5579fc4,610368024ea5c745f2981370,2021-07-29_22h47.12.558,Simcolourproject_2stim_asymm_v5,2020.2.10,MacIntel,60,61025ae37ef11b136ea224fe,,,,,,,,,3836,-39,-80,1,0,0,response5disk,,3,-8,1,1,0,0,rectangle,-8,1,1,0,0,-8,1,1,0,0,1,66,226,108,1,,,,,,,,
,,,,,,,,,,,,,FF,,,,,,,,1.617,,,,,,,,,,,,,,,,,,,,,,6102087c864264a3f5579fc4,610368024ea5c745f2981370,2021-07-29_22h47.12.558,Simcolourproject_2stim_asymm_v5,2020.2.10,MacIntel,60,61025ae37ef11b136ea224fe,,,,,,,,,4212,35,76,1,0,0,response1disk,,7,-2,2,1,0,0,rectangle,-2,2,1,0,0,-2,2,1,0,0,1,67,227,95,1,,,,,,,,
,,,,,,,,,,,,,FF,,,,,,,,2.135,,,,,,,,,,,,,,,,,,,,,,6102087c864264a3f5579fc4,610368024ea5c745f2981370,2021-07-29_22h47.12.558,Simcolourproject_2stim_asymm_v5,2020.2.10,MacIntel,60,61025ae37ef11b136ea224fe,,,,,,,,,1366,27,-75,1,0,0,response3disk,,4,15,7,1,0,0,rectangle,15,7,1,0,0,15,7,1,0,0,1,68,228,35,1,,,,,,,,
,,,,,,,,,,,,,FF,,,,,,,,1.516,,,,,,,,,,,,,,,,,,,,,,6102087c864264a3f5579fc4,610368024ea5c745f2981370,2021-07-29_22h47.12.558,Simcolourproject_2stim_asymm_v5,2020.2.10,MacIntel,60,61025ae37ef11b136ea224fe,,,,,,,,,2520,30,62,1,0,0,response1disk,,7,1,8,1,0,0,rectangle,1,8,1,0,0,1,8,1,0,0,1,69,229,72,1,,,,,,,,
,,,,,,,,,,,,,FF,,,,,,,,1.217,,,,,,,,,,,,,,,,,,,,,,6102087c864264a3f5579fc4,610368024ea5c745f2981370,2021-07-29_22h47.12.558,Simcolourproject_2stim_asymm_v5,2020.2.10,MacIntel,60,61025ae37ef11b136ea224fe,,,,,,,,,2774,54,-28,1,0,0,response3disk,,5,18,-4,1,0,0,rectangle,18,-4,1,0,0,18,-4,1,0,0,1,70,230,27,1,,,,,,,,
,,,,,,,,,,,,,FF,,,,,,,,5.002,,,,,,,,,,,,,,,,,,,,,,6102087c864264a3f5579fc4,610368024ea5c745f2981370,2021-07-29_22h47.12.558,Simcolourproject_2stim_asymm_v5,2020.2.10,MacIntel,60,61025ae37ef11b136ea224fe,,,,,,,,,3577,49,-37,1,0,0,response3disk,,5,2,0,1,0,0,rectangle,2,0,1,0,0,2,0,1,0,0,1,71,231,137,1,,,,,,,,
,,,,,,,,,,,,,FF,,,,,,,,2.435,,,,,,,,,,,,,,,,,,,,,,6102087c864264a3f5579fc4,610368024ea5c745f2981370,2021-07-29_22h47.12.558,Simcolourproject_2stim_asymm_v5,2020.2.10,MacIntel,60,61025ae37ef11b136ea224fe,,,,,,,,,2395,-25,-55,1,0,0,response5disk,,3,-4,-4,1,0,0,rectangle,-4,-4,1,0,0,-4,-4,1,0,0,1,72,232,68,1,,,,,,,,
,,,,,,,,,,,,,FF,,,,,,,,2.15,,,,,,,,,,,,,,,,,,,,,,6102087c864264a3f5579fc4,610368024ea5c745f2981370,2021-07-29_22h47.12.558,Simcolourproject_2stim_asymm_v5,2020.2.10,MacIntel,60,61025ae37ef11b136ea224fe,,,,,,,,,1856,58,-41,1,0,0,response3disk,,5,5,-11,1,0,0,rectangle,5,-11,1,0,0,5,-11,1,0,0,1,73,233,130,1,,,,,,,,
,,,,,,,,,,,,,FF,,,,,,,,2.802,,,,,,,,,,,,,,,,,,,,,,6102087c864264a3f5579fc4,610368024ea5c745f2981370,2021-07-29_22h47.12.558,Simcolourproject_2stim_asymm_v5,2020.2.10,MacIntel,60,61025ae37ef11b136ea224fe,,,,,,,,,3611,76,22,1,0,0,response1disk,,6,1,11,1,0,0,rectangle,1,11,1,0,0,1,11,1,0,0,1,74,234,71,1,,,,,,,,
,,,,,,,,,,,,,FF,,,,,,,,1.082,,,,,,,,,,,,,,,,,,,,,,6102087c864264a3f5579fc4,610368024ea5c745f2981370,2021-07-29_22h47.12.558,Simcolourproject_2stim_asymm_v5,2020.2.10,MacIntel,60,61025ae37ef11b136ea224fe,,,,,,,,,1049,70,-47,1,0,0,response3disk,,5,14,2,1,0,0,rectangle,14,2,1,0,0,14,2,1,0,0,1,75,235,154,1,,,,,,,,
,,,,,,,,,,,,,FF,,,,,,,,1.701,,,,,,,,,,,,,,,,,,,,,,6102087c864264a3f5579fc4,610368024ea5c745f2981370,2021-07-29_22h47.12.558,Simcolourproject_2stim_asymm_v5,2020.2.10,MacIntel,60,61025ae37ef11b136ea224fe,,,,,,,,,3237,-50,-33,1,0,0,response5disk,,2,0,7,1,0,0,rectangle,0,7,1,0,0,0,7,1,0,0,1,76,236,121,1,,,,,,,,
,,,,,,,,,,,,,FF,,,,,,,,0.718,,,,,,,,,,,,,,,,,,,,,,6102087c864264a3f5579fc4,610368024ea5c745f2981370,2021-07-29_22h47.12.558,Simcolourproject_2stim_asymm_v5,2020.2.10,MacIntel,60,61025ae37ef11b136ea224fe,,,,,,,,,3940,-77,43,1,0,0,response7disk,,1,-8,13,1,0,0,rectangle,-8,13,1,0,0,-8,13,1,0,0,1,77,237,42,1,,,,,,,,
,,,,,,,,,,,,,FF,,,,,,,,3.401,,,,,,,,,,,,,,,,,,,,,,6102087c864264a3f5579fc4,610368024ea5c745f2981370,2021-07-29_22h47.12.558,Simcolourproject_2stim_asymm_v5,2020.2.10,MacIntel,60,61025ae37ef11b136ea224fe,,,,,,,,,3890,34,-82,1,0,0,response3disk,,4,24,-7,1,0,0,rectangle,24,-7,1,0,0,24,-7,1,0,0,1,78,238,21,1,,,,,,,,
,,,,,,,,,,,,,FF,,,,,,,,1.551,,,,,,,,,,,,,,,,,,,,,,6102087c864264a3f5579fc4,610368024ea5c745f2981370,2021-07-29_22h47.12.558,Simcolourproject_2stim_asymm_v5,2020.2.10,MacIntel,60,61025ae37ef11b136ea224fe,,,,,,,,,433,36,-45,1,0,0,response3disk,,4,20,3,1,0,0,rectangle,20,3,1,0,0,20,3,1,0,0,1,79,239,142,1,,,,,,,,
,,,,,,,,,,,,,FF,,,,,,,,5.169,,,,,,,,,,,,,,,,,,,,,,6102087c864264a3f5579fc4,610368024ea5c745f2981370,2021-07-29_22h47.12.558,Simcolourproject_2stim_asymm_v5,2020.2.10,MacIntel,60,61025ae37ef11b136ea224fe,,,,,,,,,2075,24,92,1,0,0,response1disk,,7,-1,-7,1,0,0,rectangle,-1,-7,1,0,0,-1,-7,1,0,0,1,80,240,43,1,,,,,,,,
,,,,,,,,,,,,,FF,,,,,,,,1.3,,,,,,,,,,,,,,,,,,,,,,6102087c864264a3f5579fc4,610368024ea5c745f2981370,2021-07-29_22h47.12.558,Simcolourproject_2stim_asymm_v5,2020.2.10,MacIntel,60,61025ae37ef11b136ea224fe,,,,,,,,,3071,68,-27,1,0,0,response3disk,,5,-12,-1,1,0,0,rectangle,-12,-1,1,0,0,-12,-1,1,0,0,1,81,241,106,1,,,,,,,,
,,,,,,,,,,,,,FF,,,,,,,,1.267,,,,,,,,,,,,,,,,,,,,,,6102087c864264a3f5579fc4,610368024ea5c745f2981370,2021-07-29_22h47.12.558,Simcolourproject_2stim_asymm_v5,2020.2.10,MacIntel,60,61025ae37ef11b136ea224fe,,,,,,,,,2893,-72,27,1,0,0,response7disk,,1,-13,10,1,0,0,rectangle,-13,10,1,0,0,-13,10,1,0,0,1,82,242,62,1,,,,,,,,
,,,,,,,,,,,,,FF,,,,,,,,3.117,,,,,,,,,,,,,,,,,,,,,,6102087c864264a3f5579fc4,610368024ea5c745f2981370,2021-07-29_22h47.12.558,Simcolourproject_2stim_asymm_v5,2020.2.10,MacIntel,60,61025ae37ef11b136ea224fe,,,,,,,,,881,-32,-71,1,0,0,response5disk,,3,13,3,1,0,0,rectangle,13,3,1,0,0,13,3,1,0,0,1,83,243,147,1,,,,,,,,
,,,,,,,,,,,,,FF,,,,,,,,2.883,,,,,,,,,,,,,,,,,,,,,,6102087c864264a3f5579fc4,610368024ea5c745f2981370,2021-07-29_22h47.12.558,Simcolourproject_2stim_asymm_v5,2020.2.10,MacIntel,60,61025ae37ef11b136ea224fe,,,,,,,,,1107,55,-63,1,0,0,response3disk,,4,27,1,1,0,0,rectangle,27,1,1,0,0,27,1,1,0,0,1,84,244,103,1,,,,,,,,
,,,,,,,,,,,,,FF,,,,,,,,3.97,,,,,,,,,,,,,,,,,,,,,,6102087c864264a3f5579fc4,610368024ea5c745f2981370,2021-07-29_22h47.12.558,Simcolourproject_2stim_asymm_v5,2020.2.10,MacIntel,60,61025ae37ef11b136ea224fe,,,,,,,,,3084,65,-26,1,0,0,response3disk,,5,-3,9,1,0,0,rectangle,-3,9,1,0,0,-3,9,1,0,0,1,85,245,51,1,,,,,,,,
,,,,,,,,,,,,,FF,,,,,,,,3.535,,,,,,,,,,,,,,,,,,,,,,6102087c864264a3f5579fc4,610368024ea5c745f2981370,2021-07-29_22h47.12.558,Simcolourproject_2stim_asymm_v5,2020.2.10,MacIntel,60,61025ae37ef11b136ea224fe,,,,,,,,,888,-69,46,1,0,0,response7disk,,1,-13,1,1,0,0,rectangle,-13,1,1,0,0,-13,1,1,0,0,1,86,246,2,1,,,,,,,,
,,,,,,,,,,,,,FF,,,,,,,,1.867,,,,,,,,,,,,,,,,,,,,,,6102087c864264a3f5579fc4,610368024ea5c745f2981370,2021-07-29_22h47.12.558,Simcolourproject_2stim_asymm_v5,2020.2.10,MacIntel,60,61025ae37ef11b136ea224fe,,,,,,,,,3214,-36,-71,1,0,0,response5disk,,3,-13,5,1,0,0,rectangle,-13,5,1,0,0,-13,5,1,0,0,1,87,247,99,1,,,,,,,,
,,,,,,,,,,,,,FF,,,,,,,,1.15,,,,,,,,,,,,,,,,,,,,,,6102087c864264a3f5579fc4,610368024ea5c745f2981370,2021-07-29_22h47.12.558,Simcolourproject_2stim_asymm_v5,2020.2.10,MacIntel,60,61025ae37ef11b136ea224fe,,,,,,,,,2722,-89,-33,1,0,0,response5disk,,2,-11,6,1,0,0,rectangle,-11,6,1,0,0,-11,6,1,0,0,1,88,248,116,1,,,,,,,,
,,,,,,,,,,,,,FF,,,,,,,,2.533,,,,,,,,,,,,,,,,,,,,,,6102087c864264a3f5579fc4,610368024ea5c745f2981370,2021-07-29_22h47.12.558,Simcolourproject_2stim_asymm_v5,2020.2.10,MacIntel,60,61025ae37ef11b136ea224fe,,,,,,,,,1651,-41,-94,1,0,0,response5disk,,3,1,1,1,0,0,rectangle,1,1,1,0,0,1,1,1,0,0,1,89,249,107,1,,,,,,,,
,,,,,,,,,,,,,FF,,,,,,,,2.217,,,,,,,,,,,,,,,,,,,,,,6102087c864264a3f5579fc4,610368024ea5c745f2981370,2021-07-29_22h47.12.558,Simcolourproject_2stim_asymm_v5,2020.2.10,MacIntel,60,61025ae37ef11b136ea224fe,,,,,,,,,3718,-56,-83,1,0,0,response5disk,,3,-24,-1,1,0,0,rectangle,-24,-1,1,0,0,-24,-1,1,0,0,1,90,250,113,1,,,,,,,,
,,,,,,,,,,,,,FF,,,,,,,,1.917,,,,,,,,,,,,,,,,,,,,,,6102087c864264a3f5579fc4,610368024ea5c745f2981370,2021-07-29_22h47.12.558,Simcolourproject_2stim_asymm_v5,2020.2.10,MacIntel,60,61025ae37ef11b136ea224fe,,,,,,,,,2557,44,75,1,0,0,response1disk,,7,1,-6,1,0,0,rectangle,1,-6,1,0,0,1,-6,1,0,0,1,91,251,111,1,,,,,,,,
,,,,,,,,,,,,,FF,,,,,,,,1.285,,,,,,,,,,,,,,,,,,,,,,6102087c864264a3f5579fc4,610368024ea5c745f2981370,2021-07-29_22h47.12.558,Simcolourproject_2stim_asymm_v5,2020.2.10,MacIntel,60,61025ae37ef11b136ea224fe,,,,,,,,,2227,-58,37,1,0,0,response7disk,,1,-13,3,1,0,0,rectangle,-13,3,1,0,0,-13,3,1,0,0,1,92,252,6,1,,,,,,,,
,,,,,,,,,,,,,FF,,,,,,,,1.483,,,,,,,,,,,,,,,,,,,,,,6102087c864264a3f5579fc4,610368024ea5c745f2981370,2021-07-29_22h47.12.558,Simcolourproject_2stim_asymm_v5,2020.2.10,MacIntel,60,61025ae37ef11b136ea224fe,,,,,,,,,410,33,69,1,0,0,response1disk,,7,-13,4,1,0,0,rectangle,-13,4,1,0,0,-13,4,1,0,0,1,93,253,20,1,,,,,,,,
,,,,,,,,,,,,,FF,,,,,,,,1.217,,,,,,,,,,,,,,,,,,,,,,6102087c864264a3f5579fc4,610368024ea5c745f2981370,2021-07-29_22h47.12.558,Simcolourproject_2stim_asymm_v5,2020.2.10,MacIntel,60,61025ae37ef11b136ea224fe,,,,,,,,,3093,-49,-73,1,0,0,response5disk,,3,-18,0,1,0,0,rectangle,-18,0,1,0,0,-18,0,1,0,0,1,94,254,93,1,,,,,,,,
,,,,,,,,,,,,,FF,,,,,,,,0.9,,,,,,,,,,,,,,,,,,,,,,6102087c864264a3f5579fc4,610368024ea5c745f2981370,2021-07-29_22h47.12.558,Simcolourproject_2stim_asymm_v5,2020.2.10,MacIntel,60,61025ae37ef11b136ea224fe,,,,,,,,,3313,62,-37,1,0,0,response3disk,,5,-6,6,1,0,0,rectangle,-6,6,1,0,0,-6,6,1,0,0,1,95,255,31,1,,,,,,,,
,,,,,,,,,,,,,FF,,,,,,,,1.917,,,,,,,,,,,,,,,,,,,,,,6102087c864264a3f5579fc4,610368024ea5c745f2981370,2021-07-29_22h47.12.558,Simcolourproject_2stim_asymm_v5,2020.2.10,MacIntel,60,61025ae37ef11b136ea224fe,,,,,,,,,2923,73,27,1,0,0,response1disk,,6,-9,-12,1,0,0,rectangle,-9,-12,1,0,0,-9,-12,1,0,0,1,96,256,52,1,,,,,,,,
,,,,,,,,,,,,,FF,,,,,,,,1.883,,,,,,,,,,,,,,,,,,,,,,6102087c864264a3f5579fc4,610368024ea5c745f2981370,2021-07-29_22h47.12.558,Simcolourproject_2stim_asymm_v5,2020.2.10,MacIntel,60,61025ae37ef11b136ea224fe,,,,,,,,,2317,77,-24,1,0,0,response3disk,,5,3,3,1,0,0,rectangle,3,3,1,0,0,3,3,1,0,0,1,97,257,37,1,,,,,,,,
,,,,,,,,,,,,,FF,,,,,,,,1.817,,,,,,,,,,,,,,,,,,,,,,6102087c864264a3f5579fc4,610368024ea5c745f2981370,2021-07-29_22h47.12.558,Simcolourproject_2stim_asymm_v5,2020.2.10,MacIntel,60,61025ae37ef11b136ea224fe,,,,,,,,,1384,-71,50,1,0,0,response7disk,,1,-7,8,1,0,0,rectangle,-7,8,1,0,0,-7,8,1,0,0,1,98,258,63,1,,,,,,,,
,,,,,,,,,,,,,FF,,,,,,,,0.917,,,,,,,,,,,,,,,,,,,,,,6102087c864264a3f5579fc4,610368024ea5c745f2981370,2021-07-29_22h47.12.558,Simcolourproject_2stim_asymm_v5,2020.2.10,MacIntel,60,61025ae37ef11b136ea224fe,,,,,,,,,2624,27,57,1,0,0,response1disk,,7,-5,3,1,0,0,rectangle,-5,3,1,0,0,-5,3,1,0,0,1,99,259,140,1,,,,,,,,
,,,,,,,,,,,,,FF,,,,,,,,1.235,,,,,,,,,,,,,,,,,,,,,,6102087c864264a3f5579fc4,610368024ea5c745f2981370,2021-07-29_22h47.12.558,Simcolourproject_2stim_asymm_v5,2020.2.10,MacIntel,60,61025ae37ef11b136ea224fe,,,,,,,,,1377,30,-66,1,0,0,response3disk,,4,-9,0,1,0,0,rectangle,-9,0,1,0,0,-9,0,1,0,0,1,100,260,49,1,,,,,,,,
,,,,,,,,,,,,,FF,,,,,,,,13.338,,,,,,,,,,,,,,,,,,,,,,6102087c864264a3f5579fc4,610368024ea5c745f2981370,2021-07-29_22h47.12.558,Simcolourproject_2stim_asymm_v5,2020.2.10,MacIntel,60,61025ae37ef11b136ea224fe,,,,,,,,,2230,44,-32,1,0,0,response3disk,,5,15,2,1,0,0,rectangle,15,2,1,0,0,15,2,1,0,0,1,101,261,158,1,,,,,,,,
,,,,,,,,,,,,,FF,,,,,,,,1.415,,,,,,,,,,,,,,,,,,,,,,6102087c864264a3f5579fc4,610368024ea5c745f2981370,2021-07-29_22h47.12.558,Simcolourproject_2stim_asymm_v5,2020.2.10,MacIntel,60,61025ae37ef11b136ea224fe,,,,,,,,,81,-37,-59,1,0,0,response5disk,,3,-11,0,1,0,0,rectangle,-11,0,1,0,0,-11,0,1,0,0,1,102,262,115,1,,,,,,,,
,,,,,,,,,,,,,FF,,,,,,,,1.218,,,,,,,,,,,,,,,,,,,,,,6102087c864264a3f5579fc4,610368024ea5c745f2981370,2021-07-29_22h47.12.558,Simcolourproject_2stim_asymm_v5,2020.2.10,MacIntel,60,61025ae37ef11b136ea224fe,,,,,,,,,3099,-67,16,1,0,0,response7disk,,1,-13,-6,1,0,0,rectangle,-13,-6,1,0,0,-13,-6,1,0,0,1,103,263,4,1,,,,,,,,
,,,,,,,,,,,,,FF,,,,,,,,1.518,,,,,,,,,,,,,,,,,,,,,,6102087c864264a3f5579fc4,610368024ea5c745f2981370,2021-07-29_22h47.12.558,Simcolourproject_2stim_asymm_v5,2020.2.10,MacIntel,60,61025ae37ef11b136ea224fe,,,,,,,,,2748,30,53,1,0,0,response1disk,,7,-4,1,1,0,0,rectangle,-4,1,1,0,0,-4,1,1,0,0,1,104,264,101,1,,,,,,,,
,,,,,,,,,,,,,FF,,,,,,,,1.284,,,,,,,,,,,,,,,,,,,,,,6102087c864264a3f5579fc4,610368024ea5c745f2981370,2021-07-29_22h47.12.558,Simcolourproject_2stim_asymm_v5,2020.2.10,MacIntel,60,61025ae37ef11b136ea224fe,,,,,,,,,3974,-38,-23,1,0,0,response5disk,,2,1,5,1,0,0,rectangle,1,5,1,0,0,1,5,1,0,0,1,105,265,153,1,,,,,,,,
,,,,,,,,,,,,,FF,,,,,,,,1.219,,,,,,,,,,,,,,,,,,,,,,6102087c864264a3f5579fc4,610368024ea5c745f2981370,2021-07-29_22h47.12.558,Simcolourproject_2stim_asymm_v5,2020.2.10,MacIntel,60,61025ae37ef11b136ea224fe,,,,,,,,,1139,31,-51,1,0,0,response3disk,,4,22,-8,1,0,0,rectangle,22,-8,1,0,0,22,-8,1,0,0,1,106,266,151,1,,,,,,,,
,,,,,,,,,,,,,FF,,,,,,,,3.985,,,,,,,,,,,,,,,,,,,,,,6102087c864264a3f5579fc4,610368024ea5c745f2981370,2021-07-29_22h47.12.558,Simcolourproject_2stim_asymm_v5,2020.2.10,MacIntel,60,61025ae37ef11b136ea224fe,,,,,,,,,2139,49,70,1,0,0,response1disk,,7,10,7,1,0,0,rectangle,10,7,1,0,0,10,7,1,0,0,1,107,267,139,1,,,,,,,,
,,,,,,,,,,,,,FF,,,,,,,,1.683,,,,,,,,,,,,,,,,,,,,,,6102087c864264a3f5579fc4,610368024ea5c745f2981370,2021-07-29_22h47.12.558,Simcolourproject_2stim_asymm_v5,2020.2.10,MacIntel,60,61025ae37ef11b136ea224fe,,,,,,,,,1975,33,-22,1,0,0,response3disk,,5,10,-5,1,0,0,rectangle,10,-5,1,0,0,10,-5,1,0,0,1,108,268,119,1,,,,,,,,
,,,,,,,,,,,,,FF,,,,,,,,4.784,,,,,,,,,,,,,,,,,,,,,,6102087c864264a3f5579fc4,610368024ea5c745f2981370,2021-07-29_22h47.12.558,Simcolourproject_2stim_asymm_v5,2020.2.10,MacIntel,60,61025ae37ef11b136ea224fe,,,,,,,,,1319,64,-65,1,0,0,response3disk,,4,17,14,1,0,0,rectangle,17,14,1,0,0,17,14,1,0,0,1,109,269,61,1,,,,,,,,
,,,,,,,,,,,,,FF,,,,,,,,1.216,,,,,,,,,,,,,,,,,,,,,,6102087c864264a3f5579fc4,610368024ea5c745f2981370,2021-07-29_22h47.12.558,Simcolourproject_2stim_asymm_v5,2020.2.10,MacIntel,60,61025ae37ef11b136ea224fe,,,,,,,,,966,34,-20,1,0,0,response3disk,,5,27,-15,1,0,0,rectangle,27,-15,1,0,0,27,-15,1,0,0,1,110,270,46,1,,,,,,,,
,,,,,,,,,,,,,FF,,,,,,,,1.617,,,,,,,,,,,,,,,,,,,,,,6102087c864264a3f5579fc4,610368024ea5c745f2981370,2021-07-29_22h47.12.558,Simcolourproject_2stim_asymm_v5,2020.2.10,MacIntel,60,61025ae37ef11b136ea224fe,,,,,,,,,1684,-55,-41,1,0,0,response5disk,,2,-8,5,1,0,0,rectangle,-8,5,1,0,0,-8,5,1,0,0,1,111,271,48,1,,,,,,,,
,,,,,,,,,,,,,FF,,,,,,,,1.534,,,,,,,,,,,,,,,,,,,,,,6102087c864264a3f5579fc4,610368024ea5c745f2981370,2021-07-29_22h47.12.558,Simcolourproject_2stim_asymm_v5,2020.2.10,MacIntel,60,61025ae37ef11b136ea224fe,,,,,,,,,314,64,-35,1,0,0,response3disk,,5,-14,6,1,0,0,rectangle,-14,6,1,0,0,-14,6,1,0,0,1,112,272,144,1,,,,,,,,
,,,,,,,,,,,,,FF,,,,,,,,8.271,,,,,,,,,,,,,,,,,,,,,,6102087c864264a3f5579fc4,610368024ea5c745f2981370,2021-07-29_22h47.12.558,Simcolourproject_2stim_asymm_v5,2020.2.10,MacIntel,60,61025ae37ef11b136ea224fe,,,,,,,,,1954,51,-36,1,0,0,response3disk,,5,7,-16,1,0,0,rectangle,7,-16,1,0,0,7,-16,1,0,0,1,113,273,105,1,,,,,,,,
,,,,,,,,,,,,,FF,,,,,,,,1.269,,,,,,,,,,,,,,,,,,,,,,6102087c864264a3f5579fc4,610368024ea5c745f2981370,2021-07-29_22h47.12.558,Simcolourproject_2stim_asymm_v5,2020.2.10,MacIntel,60,61025ae37ef11b136ea224fe,,,,,,,,,1819,-66,-19,1,0,0,response5disk,,2,-8,9,1,0,0,rectangle,-8,9,1,0,0,-8,9,1,0,0,1,114,274,78,1,,,,,,,,
,,,,,,,,,,,,,FF,,,,,,,,1.266,,,,,,,,,,,,,,,,,,,,,,6102087c864264a3f5579fc4,610368024ea5c745f2981370,2021-07-29_22h47.12.558,Simcolourproject_2stim_asymm_v5,2020.2.10,MacIntel,60,61025ae37ef11b136ea224fe,,,,,,,,,2987,-68,-45,1,0,0,response5disk,,2,-8,1,1,0,0,rectangle,-8,1,1,0,0,-8,1,1,0,0,1,115,275,86,1,,,,,,,,
,,,,,,,,,,,,,FF,,,,,,,,3.118,,,,,,,,,,,,,,,,,,,,,,6102087c864264a3f5579fc4,610368024ea5c745f2981370,2021-07-29_22h47.12.558,Simcolourproject_2stim_asymm_v5,2020.2.10,MacIntel,60,61025ae37ef11b136ea224fe,,,,,,,,,2632,39,-43,1,0,0,response3disk,,4,-1,5,1,0,0,rectangle,-1,5,1,0,0,-1,5,1,0,0,1,116,276,125,1,,,,,,,,
,,,,,,,,,,,,,FF,,,,,,,,0.984,,,,,,,,,,,,,,,,,,,,,,6102087c864264a3f5579fc4,610368024ea5c745f2981370,2021-07-29_22h47.12.558,Simcolourproject_2stim_asymm_v5,2020.2.10,MacIntel,60,61025ae37ef11b136ea224fe,,,,,,,,,1109,23,58,1,0,0,response1disk,,7,-15,2,1,0,0,rectangle,48,-82,1,0,0,8,-7,1,0,0,1,117,277,141,1,,response3disk_3,TRUE,4,4,"[300,6,143,278,43,41,68,123,315,138,152,79,48,50,309,174,125,307,188,48]",1.466,rectangle
,,,,,,,,,,,,,FF,,,,,,,,1.218,,,,,,,,,,,,,,,,,,,,,,6102087c864264a3f5579fc4,610368024ea5c745f2981370,2021-07-29_22h47.12.558,Simcolourproject_2stim_asymm_v5,2020.2.10,MacIntel,60,61025ae37ef11b136ea224fe,,,,,,,,,859,29,-67,1,0,0,response3disk,,4,-1,3,1,0,0,rectangle,-1,3,1,0,0,-1,3,1,0,0,1,118,278,29,1,,,,,,,,
,,,,,,,,,,,,,FF,,,,,,,,0.967,,,,,,,,,,,,,,,,,,,,,,6102087c864264a3f5579fc4,610368024ea5c745f2981370,2021-07-29_22h47.12.558,Simcolourproject_2stim_asymm_v5,2020.2.10,MacIntel,60,61025ae37ef11b136ea224fe,,,,,,,,,3661,-74,35,1,0,0,response7disk,,1,-16,-8,1,0,0,rectangle,-16,-8,1,0,0,-16,-8,1,0,0,1,119,279,88,1,,,,,,,,
,,,,,,,,,,,,,FF,,,,,,,,0.668,,,,,,,,,,,,,,,,,,,,,,6102087c864264a3f5579fc4,610368024ea5c745f2981370,2021-07-29_22h47.12.558,Simcolourproject_2stim_asymm_v5,2020.2.10,MacIntel,60,61025ae37ef11b136ea224fe,,,,,,,,,3049,-62,34,1,0,0,response7disk,,1,-15,0,1,0,0,rectangle,-15,0,1,0,0,-15,0,1,0,0,1,120,280,155,1,,,,,,,,
,,,,,,,,,,,,,FF,,,,,,,,0.751,,,,,,,,,,,,,,,,,,,,,,6102087c864264a3f5579fc4,610368024ea5c745f2981370,2021-07-29_22h47.12.558,Simcolourproject_2stim_asymm_v5,2020.2.10,MacIntel,60,61025ae37ef11b136ea224fe,,,,,,,,,1446,-58,33,1,0,0,response7disk,,1,-15,4,1,0,0,rectangle,-15,4,1,0,0,-15,4,1,0,0,1,121,281,104,1,,,,,,,,
,,,,,,,,,,,,,FF,,,,,,,,2.485,,,,,,,,,,,,,,,,,,,,,,6102087c864264a3f5579fc4,610368024ea5c745f2981370,2021-07-29_22h47.12.558,Simcolourproject_2stim_asymm_v5,2020.2.10,MacIntel,60,61025ae37ef11b136ea224fe,,,,,,,,,4278,41,-47,1,0,0,response3disk,,4,8,-2,1,0,0,rectangle,8,-2,1,0,0,8,-2,1,0,0,1,122,282,117,1,,,,,,,,
,,,,,,,,,,,,,FF,,,,,,,,1.416,,,,,,,,,,,,,,,,,,,,,,6102087c864264a3f5579fc4,610368024ea5c745f2981370,2021-07-29_22h47.12.558,Simcolourproject_2stim_asymm_v5,2020.2.10,MacIntel,60,61025ae37ef11b136ea224fe,,,,,,,,,1098,71,16,1,0,0,response1disk,,6,18,-13,1,0,0,rectangle,18,-13,1,0,0,18,-13,1,0,0,1,123,283,77,1,,,,,,,,
,,,,,,,,,,,,,FF,,,,,,,,0.883,,,,,,,,,,,,,,,,,,,,,,6102087c864264a3f5579fc4,610368024ea5c745f2981370,2021-07-29_22h47.12.558,Simcolourproject_2stim_asymm_v5,2020.2.10,MacIntel,60,61025ae37ef11b136ea224fe,,,,,,,,,3938,-58,85,1,0,0,response7disk,,0,-19,-7,1,0,0,rectangle,-19,-7,1,0,0,-19,-7,1,0,0,1,124,284,131,1,,,,,,,,
,,,,,,,,,,,,,FF,,,,,,,,1.167,,,,,,,,,,,,,,,,,,,,,,6102087c864264a3f5579fc4,610368024ea5c745f2981370,2021-07-29_22h47.12.558,Simcolourproject_2stim_asymm_v5,2020.2.10,MacIntel,60,61025ae37ef11b136ea224fe,,,,,,,,,261,-75,-34,1,0,0,response5disk,,2,-14,-10,1,0,0,rectangle,-14,-10,1,0,0,-14,-10,1,0,0,1,125,285,83,1,,,,,,,,
,,,,,,,,,,,,,FF,,,,,,,,1.033,,,,,,,,,,,,,,,,,,,,,,6102087c864264a3f5579fc4,610368024ea5c745f2981370,2021-07-29_22h47.12.558,Simcolourproject_2stim_asymm_v5,2020.2.10,MacIntel,60,61025ae37ef11b136ea224fe,,,,,,,,,3229,38,-56,1,0,0,response3disk,,4,-2,-1,1,0,0,rectangle,-2,-1,1,0,0,-2,-1,1,0,0,1,126,286,110,1,,,,,,,,
,,,,,,,,,,,,,FF,,,,,,,,2.318,,,,,,,,,,,,,,,,,,,,,,6102087c864264a3f5579fc4,610368024ea5c745f2981370,2021-07-29_22h47.12.558,Simcolourproject_2stim_asymm_v5,2020.2.10,MacIntel,60,61025ae37ef11b136ea224fe,,,,,,,,,943,63,-40,1,0,0,response3disk,,5,3,-2,1,0,0,rectangle,3,-2,1,0,0,3,-2,1,0,0,1,127,287,55,1,,,,,,,,
,,,,,,,,,,,,,FF,,,,,,,,1.418,,,,,,,,,,,,,,,,,,,,,,6102087c864264a3f5579fc4,610368024ea5c745f2981370,2021-07-29_22h47.12.558,Simcolourproject_2stim_asymm_v5,2020.2.10,MacIntel,60,61025ae37ef11b136ea224fe,,,,,,,,,3376,-40,-64,1,0,0,response5disk,,3,-15,1,1,0,0,rectangle,-15,1,1,0,0,-15,1,1,0,0,1,128,288,23,1,,,,,,,,
,,,,,,,,,,,,,FF,,,,,,,,1.5,,,,,,,,,,,,,,,,,,,,,,6102087c864264a3f5579fc4,610368024ea5c745f2981370,2021-07-29_22h47.12.558,Simcolourproject_2stim_asymm_v5,2020.2.10,MacIntel,60,61025ae37ef11b136ea224fe,,,,,,,,,1588,33,-48,1,0,0,response3disk,,4,-4,3,1,0,0,rectangle,-4,3,1,0,0,-4,3,1,0,0,1,129,289,96,1,,,,,,,,
,,,,,,,,,,,,,FF,,,,,,,,0.966,,,,,,,,,,,,,,,,,,,,,,6102087c864264a3f5579fc4,610368024ea5c745f2981370,2021-07-29_22h47.12.558,Simcolourproject_2stim_asymm_v5,2020.2.10,MacIntel,60,61025ae37ef11b136ea224fe,,,,,,,,,4047,-41,-75,1,0,0,response5disk,,3,-9,0,1,0,0,rectangle,-9,0,1,0,0,-9,0,1,0,0,1,130,290,65,1,,,,,,,,
,,,,,,,,,,,,,FF,,,,,,,,0.9,,,,,,,,,,,,,,,,,,,,,,6102087c864264a3f5579fc4,610368024ea5c745f2981370,2021-07-29_22h47.12.558,Simcolourproject_2stim_asymm_v5,2020.2.10,MacIntel,60,61025ae37ef11b136ea224fe,,,,,,,,,2654,37,-61,1,0,0,response3disk,,4,2,-1,1,0,0,rectangle,2,-1,1,0,0,2,-1,1,0,0,1,131,291,143,1,,,,,,,,
,,,,,,,,,,,,,FF,,,,,,,,2.517,,,,,,,,,,,,,,,,,,,,,,6102087c864264a3f5579fc4,610368024ea5c745f2981370,2021-07-29_22h47.12.558,Simcolourproject_2stim_asymm_v5,2020.2.10,MacIntel,60,61025ae37ef11b136ea224fe,,,,,,,,,1334,73,28,1,0,0,response1disk,,6,-1,1,1,0,0,rectangle,-1,1,1,0,0,-1,1,1,0,0,1,132,292,18,1,,,,,,,,
,,,,,,,,,,,,,FF,,,,,,,,3.034,,,,,,,,,,,,,,,,,,,,,,6102087c864264a3f5579fc4,610368024ea5c745f2981370,2021-07-29_22h47.12.558,Simcolourproject_2stim_asymm_v5,2020.2.10,MacIntel,60,61025ae37ef11b136ea224fe,,,,,,,,,3846,-52,-23,1,0,0,response5disk,,2,3,-4,1,0,0,rectangle,3,-4,1,0,0,3,-4,1,0,0,1,133,293,0,1,,,,,,,,
,,,,,,,,,,,,,FF,,,,,,,,2.766,,,,,,,,,,,,,,,,,,,,,,6102087c864264a3f5579fc4,610368024ea5c745f2981370,2021-07-29_22h47.12.558,Simcolourproject_2stim_asymm_v5,2020.2.10,MacIntel,60,61025ae37ef11b136ea224fe,,,,,,,,,1715,30,76,1,0,0,response1disk,,7,14,14,1,0,0,rectangle,14,14,1,0,0,14,14,1,0,0,1,134,294,75,1,,,,,,,,
,,,,,,,,,,,,,FF,,,,,,,,1.101,,,,,,,,,,,,,,,,,,,,,,6102087c864264a3f5579fc4,610368024ea5c745f2981370,2021-07-29_22h47.12.558,Simcolourproject_2stim_asymm_v5,2020.2.10,MacIntel,60,61025ae37ef11b136ea224fe,,,,,,,,,3682,67,-27,1,0,0,response3disk,,5,8,3,1,0,0,rectangle,8,3,1,0,0,8,3,1,0,0,1,135,295,89,1,,,,,,,,
,,,,,,,,,,,,,FF,,,,,,,,0.734,,,,,,,,,,,,,,,,,,,,,,6102087c864264a3f5579fc4,610368024ea5c745f2981370,2021-07-29_22h47.12.558,Simcolourproject_2stim_asymm_v5,2020.2.10,MacIntel,60,61025ae37ef11b136ea224fe,,,,,,,,,2761,54,-34,1,0,0,response3disk,,5,-5,7,1,0,0,rectangle,-5,7,1,0,0,-5,7,1,0,0,1,136,296,132,1,,,,,,,,
,,,,,,,,,,,,,FF,,,,,,,,0.9,,,,,,,,,,,,,,,,,,,,,,6102087c864264a3f5579fc4,610368024ea5c745f2981370,2021-07-29_22h47.12.558,Simcolourproject_2stim_asymm_v5,2020.2.10,MacIntel,60,61025ae37ef11b136ea224fe,,,,,,,,,2263,49,-37,1,0,0,response3disk,,5,2,4,1,0,0,rectangle,2,4,1,0,0,2,4,1,0,0,1,137,297,11,1,,,,,,,,
,,,,,,,,,,,,,FF,,,,,,,,2.351,,,,,,,,,,,,,,,,,,,,,,6102087c864264a3f5579fc4,610368024ea5c745f2981370,2021-07-29_22h47.12.558,Simcolourproject_2stim_asymm_v5,2020.2.10,MacIntel,60,61025ae37ef11b136ea224fe,,,,,,,,,12,61,-17,1,0,0,response3disk,,5,16,-2,1,0,0,rectangle,16,-2,1,0,0,16,-2,1,0,0,1,138,298,97,1,,,,,,,,
,,,,,,,,,,,,,FF,,,,,,,,0.717,,,,,,,,,,,,,,,,,,,,,,6102087c864264a3f5579fc4,610368024ea5c745f2981370,2021-07-29_22h47.12.558,Simcolourproject_2stim_asymm_v5,2020.2.10,MacIntel,60,61025ae37ef11b136ea224fe,,,,,,,,,1404,58,-37,1,0,0,response3disk,,5,12,-5,1,0,0,rectangle,-68,39,1,0,0,-2,-10,1,0,0,1,139,299,28,1,,response7disk_3,TRUE,1,1,"[300,6,143,278,43,41,68,123,315,138,152,79,48,50,309,174,125,307,188,48]",1.25,rectangle
,,,,,,,,,,,,,FF,,,,,,,,2.717,,,,,,,,,,,,,,,,,,,,,,6102087c864264a3f5579fc4,610368024ea5c745f2981370,2021-07-29_22h47.12.558,Simcolourproject_2stim_asymm_v5,2020.2.10,MacIntel,60,61025ae37ef11b136ea224fe,,,,,,,,,2441,62,42,1,0,0,response1disk,,6,11,3,1,0,0,rectangle,11,3,1,0,0,11,3,1,0,0,1,140,300,94,1,,,,,,,,
,,,,,,,,,,,,,FF,,,,,,,,0.85,,,,,,,,,,,,,,,,,,,,,,6102087c864264a3f5579fc4,610368024ea5c745f2981370,2021-07-29_22h47.12.558,Simcolourproject_2stim_asymm_v5,2020.2.10,MacIntel,60,61025ae37ef11b136ea224fe,,,,,,,,,2191,52,22,1,0,0,response1disk,,6,6,-7,1,0,0,rectangle,6,-7,1,0,0,6,-7,1,0,0,1,141,301,22,1,,,,,,,,
