key_resp.keys,key_resp.rt,key_resp_14.keys,key_resp_14.rt,key_resp_15.keys,key_resp_15.rt,key_resp_17.keys,key_resp_17.rt,key_resp_9.keys,key_resp_9.rt,key_resp_10.keys,key_resp_10.rt,practice_comparison,Ecc,mouse_5.x,mouse_5.y,mouse_5.leftButton,mouse_5.midButton,mouse_5.rightButton,mouse_5.clicked_name,pracsimilarity,response_time,mouse_10.x,mouse_10.y,mouse_10.leftButton,mouse_10.midButton,mouse_10.rightButton,mouse_10.clicked_name,mouse_7.x,mouse_7.y,mouse_7.leftButton,mouse_7.midButton,mouse_7.rightButton,mouse_6.x,mouse_6.y,mouse_6.leftButton,mouse_6.midButton,mouse_6.rightButton,duringprac.thisRepN,duringprac.thisTrialN,duringprac.thisN,duringprac.thisIndex,duringprac.ran,participant,session,date,expName,psychopyVersion,OS,frameRate,study_id,mouse_7.clicked_name,catchpracsimilarity,catch_response_time,catchnumberprac,catchtrialorderprac,mouse_6.clicked_name,key_resp_22.keys,key_resp_22.rt,realcomparison,mouse.x,mouse.y,mouse.leftButton,mouse.midButton,mouse.rightButton,mouse.clicked_name,Colour2,similarity,mouse_2.x,mouse_2.y,mouse_2.leftButton,mouse_2.midButton,mouse_2.rightButton,mouse_2.clicked_name,mouse_3.x,mouse_3.y,mouse_3.leftButton,mouse_3.midButton,mouse_3.rightButton,mouse_11.x,mouse_11.y,mouse_11.leftButton,mouse_11.midButton,mouse_11.rightButton,trials_2.thisRepN,trials_2.thisTrialN,trials_2.thisN,trials_2.thisIndex,trials_2.ran,Colour1,mouse_3.clicked_name,catchornah,catchsimilarity,catchnumber,catchtrialorder,catchRT,mouse_11.clicked_name
space,1.386,space,118.798,space,395.16,space,7.622,space,0.606,space,3.532,37,FF,-51,-80,1,0,0,response5disk_5,3,11.218,7,4,1,0,0,rectangle_8,7,4,1,0,0,7,4,1,0,0,0,0,0,0,1,6102f2edaead0032c5054812,61036d44549abd4fa911d14e,2021-07-29_23h09.52.598,Simcolourproject_2stim_asymm_v5,2020.2.10,MacIntel,60,61025ae37ef11b136ea224fe,,,,,,,,,,,,,,,,,,,,,,,,,,,,,,,,,,,,,,,,,,,,,,
,,,,,,,,,,,,2,FF,28,82,1,0,0,response1disk_5,7,4.766,-14,-6,1,0,0,rectangle_8,31,-92,1,0,0,3,-2,1,0,0,0,1,1,5,1,6102f2edaead0032c5054812,61036d44549abd4fa911d14e,2021-07-29_23h09.52.598,Simcolourproject_2stim_asymm_v5,2020.2.10,MacIntel,60,61025ae37ef11b136ea224fe,response3disk_7,4,4.233,4,"[2,5]",rectangle_4,,,,,,,,,,,,,,,,,,,,,,,,,,,,,,,,,,,,,,,,
,,,,,,,,,,,,53,PF,35,83,1,0,0,response1disk_5,7,1.516,3,4,1,0,0,rectangle_8,3,4,1,0,0,3,4,1,0,0,0,2,2,1,1,6102f2edaead0032c5054812,61036d44549abd4fa911d14e,2021-07-29_23h09.52.598,Simcolourproject_2stim_asymm_v5,2020.2.10,MacIntel,60,61025ae37ef11b136ea224fe,,,,,,,,,,,,,,,,,,,,,,,,,,,,,,,,,,,,,,,,,,,,,,
,,,,,,,,,,,,131,FF,33,75,1,0,0,response1disk_5,7,0.816,11,-1,1,0,0,rectangle_8,11,-1,1,0,0,11,-1,1,0,0,0,3,3,3,1,6102f2edaead0032c5054812,61036d44549abd4fa911d14e,2021-07-29_23h09.52.598,Simcolourproject_2stim_asymm_v5,2020.2.10,MacIntel,60,61025ae37ef11b136ea224fe,,,,,,,,,,,,,,,,,,,,,,,,,,,,,,,,,,,,,,,,,,,,,,
,,,,,,,,,,,,10,PF,74,-30,1,0,0,response3disk_5,5,2.002,18,-1,1,0,0,rectangle_8,27,-88,1,0,0,7,17,1,0,0,0,4,4,4,1,6102f2edaead0032c5054812,61036d44549abd4fa911d14e,2021-07-29_23h09.52.598,Simcolourproject_2stim_asymm_v5,2020.2.10,MacIntel,60,61025ae37ef11b136ea224fe,response3disk_7,4,1.95,4,"[2,5]",rectangle_4,,,,,,,,,,,,,,,,,,,,,,,,,,,,,,,,,,,,,,,,
,,,,,,,,,,,,77,PF,78,-63,1,0,0,response3disk_5,5,3.351,-4,-8,1,0,0,rectangle_8,-4,-8,1,0,0,-4,-8,1,0,0,0,5,5,2,1,6102f2edaead0032c5054812,61036d44549abd4fa911d14e,2021-07-29_23h09.52.598,Simcolourproject_2stim_asymm_v5,2020.2.10,MacIntel,60,61025ae37ef11b136ea224fe,,,,,,,,,,,,,,,,,,,,,,,,,,,,,,,,,,,,,,,,,,,,,,
,,,,,,,,,,,,90,PF,-24,-72,1,0,0,response5disk_5,3,1.45,-3,-15,1,0,0,rectangle_8,-3,-15,1,0,0,-3,-15,1,0,0,0,6,6,6,1,6102f2edaead0032c5054812,61036d44549abd4fa911d14e,2021-07-29_23h09.52.598,Simcolourproject_2stim_asymm_v5,2020.2.10,MacIntel,60,61025ae37ef11b136ea224fe,,,,,,,,,,,,,,,,,,,,,,,,,,,,,,,,,,,,,,,,,,,,,,
,,,,,,,,,,,,,FF,,,,,,,,1.582,,,,,,,,,,,,,,,,,,,,,,6102f2edaead0032c5054812,61036d44549abd4fa911d14e,2021-07-29_23h09.52.598,Simcolourproject_2stim_asymm_v5,2020.2.10,MacIntel,60,61025ae37ef11b136ea224fe,,,,,,,space,2.691,1066,107,58,1,0,0,response1disk,,6,-4,13,1,0,0,rectangle,-4,13,1,0,0,-4,13,1,0,0,0,0,0,60,1,,,,,,,,
,,,,,,,,,,,,,FF,,,,,,,,1.218,,,,,,,,,,,,,,,,,,,,,,6102f2edaead0032c5054812,61036d44549abd4fa911d14e,2021-07-29_23h09.52.598,Simcolourproject_2stim_asymm_v5,2020.2.10,MacIntel,60,61025ae37ef11b136ea224fe,,,,,,,,,3906,-58,-40,1,0,0,response5disk,,2,14,-2,1,0,0,rectangle,14,-2,1,0,0,14,-2,1,0,0,0,1,1,59,1,,,,,,,,
,,,,,,,,,,,,,FF,,,,,,,,3.683,,,,,,,,,,,,,,,,,,,,,,6102f2edaead0032c5054812,61036d44549abd4fa911d14e,2021-07-29_23h09.52.598,Simcolourproject_2stim_asymm_v5,2020.2.10,MacIntel,60,61025ae37ef11b136ea224fe,,,,,,,,,672,82,34,1,0,0,response1disk,,6,-8,6,1,0,0,rectangle,-8,6,1,0,0,-8,6,1,0,0,0,2,2,155,1,,,,,,,,
,,,,,,,,,,,,,FF,,,,,,,,2.85,,,,,,,,,,,,,,,,,,,,,,6102f2edaead0032c5054812,61036d44549abd4fa911d14e,2021-07-29_23h09.52.598,Simcolourproject_2stim_asymm_v5,2020.2.10,MacIntel,60,61025ae37ef11b136ea224fe,,,,,,,,,3224,51,-38,1,0,0,response3disk,,5,11,-7,1,0,0,rectangle,11,-7,1,0,0,11,-7,1,0,0,0,3,3,8,1,,,,,,,,
,,,,,,,,,,,,,FF,,,,,,,,0.9,,,,,,,,,,,,,,,,,,,,,,6102f2edaead0032c5054812,61036d44549abd4fa911d14e,2021-07-29_23h09.52.598,Simcolourproject_2stim_asymm_v5,2020.2.10,MacIntel,60,61025ae37ef11b136ea224fe,,,,,,,,,4294,-77,-47,1,0,0,response5disk,,2,-12,-15,1,0,0,rectangle,-12,-15,1,0,0,-12,-15,1,0,0,0,4,4,61,1,,,,,,,,
,,,,,,,,,,,,,FF,,,,,,,,0.917,,,,,,,,,,,,,,,,,,,,,,6102f2edaead0032c5054812,61036d44549abd4fa911d14e,2021-07-29_23h09.52.598,Simcolourproject_2stim_asymm_v5,2020.2.10,MacIntel,60,61025ae37ef11b136ea224fe,,,,,,,,,4201,-57,-32,1,0,0,response5disk,,2,1,0,1,0,0,rectangle,1,0,1,0,0,1,0,1,0,0,0,5,5,69,1,,,,,,,,
,,,,,,,,,,,,,FF,,,,,,,,3.65,,,,,,,,,,,,,,,,,,,,,,6102f2edaead0032c5054812,61036d44549abd4fa911d14e,2021-07-29_23h09.52.598,Simcolourproject_2stim_asymm_v5,2020.2.10,MacIntel,60,61025ae37ef11b136ea224fe,,,,,,,,,25,71,-53,1,0,0,response3disk,,5,16,-2,1,0,0,rectangle,16,-2,1,0,0,16,-2,1,0,0,0,6,6,52,1,,,,,,,,
,,,,,,,,,,,,,FF,,,,,,,,1.066,,,,,,,,,,,,,,,,,,,,,,6102f2edaead0032c5054812,61036d44549abd4fa911d14e,2021-07-29_23h09.52.598,Simcolourproject_2stim_asymm_v5,2020.2.10,MacIntel,60,61025ae37ef11b136ea224fe,,,,,,,,,2114,49,-29,1,0,0,response3disk,,5,2,-10,1,0,0,rectangle,2,-10,1,0,0,2,-10,1,0,0,0,7,7,27,1,,,,,,,,
,,,,,,,,,,,,,FF,,,,,,,,1.132,,,,,,,,,,,,,,,,,,,,,,6102f2edaead0032c5054812,61036d44549abd4fa911d14e,2021-07-29_23h09.52.598,Simcolourproject_2stim_asymm_v5,2020.2.10,MacIntel,60,61025ae37ef11b136ea224fe,,,,,,,,,1884,88,33,1,0,0,response1disk,,6,10,11,1,0,0,rectangle,10,11,1,0,0,10,11,1,0,0,0,8,8,72,1,,,,,,,,
,,,,,,,,,,,,,FF,,,,,,,,1.317,,,,,,,,,,,,,,,,,,,,,,6102f2edaead0032c5054812,61036d44549abd4fa911d14e,2021-07-29_23h09.52.598,Simcolourproject_2stim_asymm_v5,2020.2.10,MacIntel,60,61025ae37ef11b136ea224fe,,,,,,,,,4107,38,-61,1,0,0,response3disk,,4,9,-7,1,0,0,rectangle,9,-7,1,0,0,9,-7,1,0,0,0,9,9,87,1,,,,,,,,
,,,,,,,,,,,,,FF,,,,,,,,1.601,,,,,,,,,,,,,,,,,,,,,,6102f2edaead0032c5054812,61036d44549abd4fa911d14e,2021-07-29_23h09.52.598,Simcolourproject_2stim_asymm_v5,2020.2.10,MacIntel,60,61025ae37ef11b136ea224fe,,,,,,,,,3681,78,49,1,0,0,response1disk,,6,2,15,1,0,0,rectangle,2,15,1,0,0,2,15,1,0,0,0,10,10,143,1,,,,,,,,
,,,,,,,,,,,,,FF,,,,,,,,0.684,,,,,,,,,,,,,,,,,,,,,,6102f2edaead0032c5054812,61036d44549abd4fa911d14e,2021-07-29_23h09.52.598,Simcolourproject_2stim_asymm_v5,2020.2.10,MacIntel,60,61025ae37ef11b136ea224fe,,,,,,,,,3562,32,61,1,0,0,response1disk,,7,2,-7,1,0,0,rectangle,2,-7,1,0,0,2,-7,1,0,0,0,11,11,90,1,,,,,,,,
,,,,,,,,,,,,,FF,,,,,,,,1.399,,,,,,,,,,,,,,,,,,,,,,6102f2edaead0032c5054812,61036d44549abd4fa911d14e,2021-07-29_23h09.52.598,Simcolourproject_2stim_asymm_v5,2020.2.10,MacIntel,60,61025ae37ef11b136ea224fe,,,,,,,,,1823,-27,-74,1,0,0,response5disk,,3,7,-5,1,0,0,rectangle,7,-5,1,0,0,7,-5,1,0,0,0,12,12,64,1,,,,,,,,
,,,,,,,,,,,,,FF,,,,,,,,2.45,,,,,,,,,,,,,,,,,,,,,,6102f2edaead0032c5054812,61036d44549abd4fa911d14e,2021-07-29_23h09.52.598,Simcolourproject_2stim_asymm_v5,2020.2.10,MacIntel,60,61025ae37ef11b136ea224fe,,,,,,,,,67,42,77,1,0,0,response1disk,,7,1,-11,1,0,0,rectangle,1,-11,1,0,0,1,-11,1,0,0,0,13,13,120,1,,,,,,,,
,,,,,,,,,,,,,FF,,,,,,,,0.601,,,,,,,,,,,,,,,,,,,,,,6102f2edaead0032c5054812,61036d44549abd4fa911d14e,2021-07-29_23h09.52.598,Simcolourproject_2stim_asymm_v5,2020.2.10,MacIntel,60,61025ae37ef11b136ea224fe,,,,,,,,,2403,36,53,1,0,0,response1disk,,7,18,1,1,0,0,rectangle,18,1,1,0,0,18,1,1,0,0,0,14,14,6,1,,,,,,,,
,,,,,,,,,,,,,FF,,,,,,,,1.249,,,,,,,,,,,,,,,,,,,,,,6102f2edaead0032c5054812,61036d44549abd4fa911d14e,2021-07-29_23h09.52.598,Simcolourproject_2stim_asymm_v5,2020.2.10,MacIntel,60,61025ae37ef11b136ea224fe,,,,,,,,,1914,89,39,1,0,0,response1disk,,6,26,1,1,0,0,rectangle,26,1,1,0,0,26,1,1,0,0,0,15,15,40,1,,,,,,,,
,,,,,,,,,,,,,FF,,,,,,,,1.484,,,,,,,,,,,,,,,,,,,,,,6102f2edaead0032c5054812,61036d44549abd4fa911d14e,2021-07-29_23h09.52.598,Simcolourproject_2stim_asymm_v5,2020.2.10,MacIntel,60,61025ae37ef11b136ea224fe,,,,,,,,,3512,-24,-71,1,0,0,response5disk,,3,-4,-11,1,0,0,rectangle,-4,-11,1,0,0,-4,-11,1,0,0,0,16,16,111,1,,,,,,,,
,,,,,,,,,,,,,FF,,,,,,,,1.167,,,,,,,,,,,,,,,,,,,,,,6102f2edaead0032c5054812,61036d44549abd4fa911d14e,2021-07-29_23h09.52.598,Simcolourproject_2stim_asymm_v5,2020.2.10,MacIntel,60,61025ae37ef11b136ea224fe,,,,,,,,,1365,32,74,1,0,0,response1disk,,7,4,5,1,0,0,rectangle,4,5,1,0,0,4,5,1,0,0,0,17,17,144,1,,,,,,,,
,,,,,,,,,,,,,FF,,,,,,,,0.868,,,,,,,,,,,,,,,,,,,,,,6102f2edaead0032c5054812,61036d44549abd4fa911d14e,2021-07-29_23h09.52.598,Simcolourproject_2stim_asymm_v5,2020.2.10,MacIntel,60,61025ae37ef11b136ea224fe,,,,,,,,,3314,66,27,1,0,0,response1disk,,6,1,8,1,0,0,rectangle,1,8,1,0,0,1,8,1,0,0,0,18,18,35,1,,,,,,,,
,,,,,,,,,,,,,FF,,,,,,,,1.1,,,,,,,,,,,,,,,,,,,,,,6102f2edaead0032c5054812,61036d44549abd4fa911d14e,2021-07-29_23h09.52.598,Simcolourproject_2stim_asymm_v5,2020.2.10,MacIntel,60,61025ae37ef11b136ea224fe,,,,,,,,,3147,25,-80,1,0,0,response3disk,,4,7,4,1,0,0,rectangle,7,4,1,0,0,7,4,1,0,0,0,19,19,28,1,,,,,,,,
,,,,,,,,,,,,,FF,,,,,,,,0.7,,,,,,,,,,,,,,,,,,,,,,6102f2edaead0032c5054812,61036d44549abd4fa911d14e,2021-07-29_23h09.52.598,Simcolourproject_2stim_asymm_v5,2020.2.10,MacIntel,60,61025ae37ef11b136ea224fe,,,,,,,,,2707,36,65,1,0,0,response1disk,,7,15,10,1,0,0,rectangle,15,10,1,0,0,15,10,1,0,0,0,20,20,109,1,,,,,,,,
,,,,,,,,,,,,,FF,,,,,,,,0.533,,,,,,,,,,,,,,,,,,,,,,6102f2edaead0032c5054812,61036d44549abd4fa911d14e,2021-07-29_23h09.52.598,Simcolourproject_2stim_asymm_v5,2020.2.10,MacIntel,60,61025ae37ef11b136ea224fe,,,,,,,,,2466,33,63,1,0,0,response1disk,,7,7,-5,1,0,0,rectangle,7,-5,1,0,0,7,-5,1,0,0,0,21,21,113,1,,,,,,,,
,,,,,,,,,,,,,FF,,,,,,,,0.566,,,,,,,,,,,,,,,,,,,,,,6102f2edaead0032c5054812,61036d44549abd4fa911d14e,2021-07-29_23h09.52.598,Simcolourproject_2stim_asymm_v5,2020.2.10,MacIntel,60,61025ae37ef11b136ea224fe,,,,,,,,,2075,37,47,1,0,0,response1disk,,7,14,-10,1,0,0,rectangle,14,-10,1,0,0,14,-10,1,0,0,0,22,22,102,1,,,,,,,,
,,,,,,,,,,,,,FF,,,,,,,,0.551,,,,,,,,,,,,,,,,,,,,,,6102f2edaead0032c5054812,61036d44549abd4fa911d14e,2021-07-29_23h09.52.598,Simcolourproject_2stim_asymm_v5,2020.2.10,MacIntel,60,61025ae37ef11b136ea224fe,,,,,,,,,1425,38,65,1,0,0,response1disk,,7,13,-14,1,0,0,rectangle,13,-14,1,0,0,13,-14,1,0,0,0,23,23,41,1,,,,,,,,
,,,,,,,,,,,,,FF,,,,,,,,1.202,,,,,,,,,,,,,,,,,,,,,,6102f2edaead0032c5054812,61036d44549abd4fa911d14e,2021-07-29_23h09.52.598,Simcolourproject_2stim_asymm_v5,2020.2.10,MacIntel,60,61025ae37ef11b136ea224fe,,,,,,,,,2705,32,54,1,0,0,response1disk,,7,4,-16,1,0,0,rectangle,4,-16,1,0,0,4,-16,1,0,0,0,24,24,1,1,,,,,,,,
,,,,,,,,,,,,,FF,,,,,,,,1.034,,,,,,,,,,,,,,,,,,,,,,6102f2edaead0032c5054812,61036d44549abd4fa911d14e,2021-07-29_23h09.52.598,Simcolourproject_2stim_asymm_v5,2020.2.10,MacIntel,60,61025ae37ef11b136ea224fe,,,,,,,,,2495,40,-48,1,0,0,response3disk,,4,16,-8,1,0,0,rectangle,16,-8,1,0,0,16,-8,1,0,0,0,25,25,126,1,,,,,,,,
,,,,,,,,,,,,,FF,,,,,,,,0.666,,,,,,,,,,,,,,,,,,,,,,6102f2edaead0032c5054812,61036d44549abd4fa911d14e,2021-07-29_23h09.52.598,Simcolourproject_2stim_asymm_v5,2020.2.10,MacIntel,60,61025ae37ef11b136ea224fe,,,,,,,,,1562,30,60,1,0,0,response1disk,,7,16,8,1,0,0,rectangle,16,8,1,0,0,16,8,1,0,0,0,26,26,7,1,,,,,,,,
,,,,,,,,,,,,,FF,,,,,,,,1.382,,,,,,,,,,,,,,,,,,,,,,6102f2edaead0032c5054812,61036d44549abd4fa911d14e,2021-07-29_23h09.52.598,Simcolourproject_2stim_asymm_v5,2020.2.10,MacIntel,60,61025ae37ef11b136ea224fe,,,,,,,,,1971,55,-36,1,0,0,response3disk,,5,-5,-4,1,0,0,rectangle,-5,-4,1,0,0,-5,-4,1,0,0,0,27,27,54,1,,,,,,,,
,,,,,,,,,,,,,FF,,,,,,,,1.35,,,,,,,,,,,,,,,,,,,,,,6102f2edaead0032c5054812,61036d44549abd4fa911d14e,2021-07-29_23h09.52.598,Simcolourproject_2stim_asymm_v5,2020.2.10,MacIntel,60,61025ae37ef11b136ea224fe,,,,,,,,,3511,20,-68,1,0,0,response3disk,,4,20,1,1,0,0,rectangle,20,1,1,0,0,20,1,1,0,0,0,28,28,5,1,,,,,,,,
,,,,,,,,,,,,,FF,,,,,,,,0.733,,,,,,,,,,,,,,,,,,,,,,6102f2edaead0032c5054812,61036d44549abd4fa911d14e,2021-07-29_23h09.52.598,Simcolourproject_2stim_asymm_v5,2020.2.10,MacIntel,60,61025ae37ef11b136ea224fe,,,,,,,,,813,33,51,1,0,0,response1disk,,7,14,2,1,0,0,rectangle,14,2,1,0,0,14,2,1,0,0,0,29,29,34,1,,,,,,,,
,,,,,,,,,,,,,FF,,,,,,,,1.15,,,,,,,,,,,,,,,,,,,,,,6102f2edaead0032c5054812,61036d44549abd4fa911d14e,2021-07-29_23h09.52.598,Simcolourproject_2stim_asymm_v5,2020.2.10,MacIntel,60,61025ae37ef11b136ea224fe,,,,,,,,,4166,27,-86,1,0,0,response3disk,,4,13,-9,1,0,0,rectangle,13,-9,1,0,0,13,-9,1,0,0,0,30,30,73,1,,,,,,,,
,,,,,,,,,,,,,FF,,,,,,,,1.384,,,,,,,,,,,,,,,,,,,,,,6102f2edaead0032c5054812,61036d44549abd4fa911d14e,2021-07-29_23h09.52.598,Simcolourproject_2stim_asymm_v5,2020.2.10,MacIntel,60,61025ae37ef11b136ea224fe,,,,,,,,,2502,93,31,1,0,0,response1disk,,6,14,11,1,0,0,rectangle,14,11,1,0,0,14,11,1,0,0,0,31,31,16,1,,,,,,,,
,,,,,,,,,,,,,FF,,,,,,,,0.95,,,,,,,,,,,,,,,,,,,,,,6102f2edaead0032c5054812,61036d44549abd4fa911d14e,2021-07-29_23h09.52.598,Simcolourproject_2stim_asymm_v5,2020.2.10,MacIntel,60,61025ae37ef11b136ea224fe,,,,,,,,,4141,-28,-52,1,0,0,response5disk,,3,-11,-12,1,0,0,rectangle,-11,-12,1,0,0,-11,-12,1,0,0,0,32,32,92,1,,,,,,,,
,,,,,,,,,,,,,FF,,,,,,,,1.749,,,,,,,,,,,,,,,,,,,,,,6102f2edaead0032c5054812,61036d44549abd4fa911d14e,2021-07-29_23h09.52.598,Simcolourproject_2stim_asymm_v5,2020.2.10,MacIntel,60,61025ae37ef11b136ea224fe,,,,,,,,,2469,30,57,1,0,0,response1disk,,7,2,2,1,0,0,rectangle,2,2,1,0,0,2,2,1,0,0,0,33,33,135,1,,,,,,,,
,,,,,,,,,,,,,FF,,,,,,,,0.567,,,,,,,,,,,,,,,,,,,,,,6102f2edaead0032c5054812,61036d44549abd4fa911d14e,2021-07-29_23h09.52.598,Simcolourproject_2stim_asymm_v5,2020.2.10,MacIntel,60,61025ae37ef11b136ea224fe,,,,,,,,,3208,37,64,1,0,0,response1disk,,7,10,15,1,0,0,rectangle,10,15,1,0,0,10,15,1,0,0,0,34,34,48,1,,,,,,,,
,,,,,,,,,,,,,FF,,,,,,,,0.433,,,,,,,,,,,,,,,,,,,,,,6102f2edaead0032c5054812,61036d44549abd4fa911d14e,2021-07-29_23h09.52.598,Simcolourproject_2stim_asymm_v5,2020.2.10,MacIntel,60,61025ae37ef11b136ea224fe,,,,,,,,,419,33,60,1,0,0,response1disk,,7,11,-3,1,0,0,rectangle,11,-3,1,0,0,11,-3,1,0,0,0,35,35,0,1,,,,,,,,
,,,,,,,,,,,,,FF,,,,,,,,0.7,,,,,,,,,,,,,,,,,,,,,,6102f2edaead0032c5054812,61036d44549abd4fa911d14e,2021-07-29_23h09.52.598,Simcolourproject_2stim_asymm_v5,2020.2.10,MacIntel,60,61025ae37ef11b136ea224fe,,,,,,,,,979,80,35,1,0,0,response1disk,,6,2,3,1,0,0,rectangle,2,3,1,0,0,2,3,1,0,0,0,36,36,56,1,,,,,,,,
,,,,,,,,,,,,,FF,,,,,,,,0.982,,,,,,,,,,,,,,,,,,,,,,6102f2edaead0032c5054812,61036d44549abd4fa911d14e,2021-07-29_23h09.52.598,Simcolourproject_2stim_asymm_v5,2020.2.10,MacIntel,60,61025ae37ef11b136ea224fe,,,,,,,,,3382,-25,-74,1,0,0,response5disk,,3,1,-18,1,0,0,rectangle,1,-18,1,0,0,1,-18,1,0,0,0,37,37,15,1,,,,,,,,
,,,,,,,,,,,,,FF,,,,,,,,1.268,,,,,,,,,,,,,,,,,,,,,,6102f2edaead0032c5054812,61036d44549abd4fa911d14e,2021-07-29_23h09.52.598,Simcolourproject_2stim_asymm_v5,2020.2.10,MacIntel,60,61025ae37ef11b136ea224fe,,,,,,,,,2379,-23,-73,1,0,0,response5disk,,3,-4,4,1,0,0,rectangle,-4,4,1,0,0,-4,4,1,0,0,0,38,38,114,1,,,,,,,,
,,,,,,,,,,,,,FF,,,,,,,,0.617,,,,,,,,,,,,,,,,,,,,,,6102f2edaead0032c5054812,61036d44549abd4fa911d14e,2021-07-29_23h09.52.598,Simcolourproject_2stim_asymm_v5,2020.2.10,MacIntel,60,61025ae37ef11b136ea224fe,,,,,,,,,3956,29,68,1,0,0,response1disk,,7,-3,0,1,0,0,rectangle,-3,0,1,0,0,-3,0,1,0,0,0,39,39,17,1,,,,,,,,
,,,,,,,,,,,,,FF,,,,,,,,1.499,,,,,,,,,,,,,,,,,,,,,,6102f2edaead0032c5054812,61036d44549abd4fa911d14e,2021-07-29_23h09.52.598,Simcolourproject_2stim_asymm_v5,2020.2.10,MacIntel,60,61025ae37ef11b136ea224fe,,,,,,,,,2729,39,-76,1,0,0,response3disk,,4,11,-7,1,0,0,rectangle,11,-7,1,0,0,11,-7,1,0,0,0,40,40,21,1,,,,,,,,
,,,,,,,,,,,,,FF,,,,,,,,1.217,,,,,,,,,,,,,,,,,,,,,,6102f2edaead0032c5054812,61036d44549abd4fa911d14e,2021-07-29_23h09.52.598,Simcolourproject_2stim_asymm_v5,2020.2.10,MacIntel,60,61025ae37ef11b136ea224fe,,,,,,,,,2418,-64,42,1,0,0,response7disk,,1,-4,-14,1,0,0,rectangle,-4,-14,1,0,0,-4,-14,1,0,0,0,41,41,117,1,,,,,,,,
,,,,,,,,,,,,,FF,,,,,,,,2.466,,,,,,,,,,,,,,,,,,,,,,6102f2edaead0032c5054812,61036d44549abd4fa911d14e,2021-07-29_23h09.52.598,Simcolourproject_2stim_asymm_v5,2020.2.10,MacIntel,60,61025ae37ef11b136ea224fe,,,,,,,,,2339,35,59,1,0,0,response1disk,,7,-2,-14,1,0,0,rectangle,-2,-14,1,0,0,-2,-14,1,0,0,0,42,42,23,1,,,,,,,,
,,,,,,,,,,,,,FF,,,,,,,,0.801,,,,,,,,,,,,,,,,,,,,,,6102f2edaead0032c5054812,61036d44549abd4fa911d14e,2021-07-29_23h09.52.598,Simcolourproject_2stim_asymm_v5,2020.2.10,MacIntel,60,61025ae37ef11b136ea224fe,,,,,,,,,3028,43,81,1,0,0,response1disk,,7,11,15,1,0,0,rectangle,11,15,1,0,0,11,15,1,0,0,0,43,43,116,1,,,,,,,,
,,,,,,,,,,,,,FF,,,,,,,,1.05,,,,,,,,,,,,,,,,,,,,,,6102f2edaead0032c5054812,61036d44549abd4fa911d14e,2021-07-29_23h09.52.598,Simcolourproject_2stim_asymm_v5,2020.2.10,MacIntel,60,61025ae37ef11b136ea224fe,,,,,,,,,4293,-64,-74,1,0,0,response5disk,,3,-8,-1,1,0,0,rectangle,-8,-1,1,0,0,-8,-1,1,0,0,0,44,44,32,1,,,,,,,,
,,,,,,,,,,,,,FF,,,,,,,,0.867,,,,,,,,,,,,,,,,,,,,,,6102f2edaead0032c5054812,61036d44549abd4fa911d14e,2021-07-29_23h09.52.598,Simcolourproject_2stim_asymm_v5,2020.2.10,MacIntel,60,61025ae37ef11b136ea224fe,,,,,,,,,2959,35,74,1,0,0,response1disk,,7,5,7,1,0,0,rectangle,5,7,1,0,0,5,7,1,0,0,0,45,45,71,1,,,,,,,,
,,,,,,,,,,,,,FF,,,,,,,,0.501,,,,,,,,,,,,,,,,,,,,,,6102f2edaead0032c5054812,61036d44549abd4fa911d14e,2021-07-29_23h09.52.598,Simcolourproject_2stim_asymm_v5,2020.2.10,MacIntel,60,61025ae37ef11b136ea224fe,,,,,,,,,1331,38,62,1,0,0,response1disk,,7,10,2,1,0,0,rectangle,10,2,1,0,0,10,2,1,0,0,0,46,46,99,1,,,,,,,,
,,,,,,,,,,,,,FF,,,,,,,,0.417,,,,,,,,,,,,,,,,,,,,,,6102f2edaead0032c5054812,61036d44549abd4fa911d14e,2021-07-29_23h09.52.598,Simcolourproject_2stim_asymm_v5,2020.2.10,MacIntel,60,61025ae37ef11b136ea224fe,,,,,,,,,121,32,49,1,0,0,response1disk,,7,11,-4,1,0,0,rectangle,11,-4,1,0,0,11,-4,1,0,0,0,47,47,147,1,,,,,,,,
,,,,,,,,,,,,,FF,,,,,,,,0.416,,,,,,,,,,,,,,,,,,,,,,6102f2edaead0032c5054812,61036d44549abd4fa911d14e,2021-07-29_23h09.52.598,Simcolourproject_2stim_asymm_v5,2020.2.10,MacIntel,60,61025ae37ef11b136ea224fe,,,,,,,,,837,32,51,1,0,0,response1disk,,7,13,-8,1,0,0,rectangle,13,-8,1,0,0,13,-8,1,0,0,0,48,48,150,1,,,,,,,,
,,,,,,,,,,,,,FF,,,,,,,,0.669,,,,,,,,,,,,,,,,,,,,,,6102f2edaead0032c5054812,61036d44549abd4fa911d14e,2021-07-29_23h09.52.598,Simcolourproject_2stim_asymm_v5,2020.2.10,MacIntel,60,61025ae37ef11b136ea224fe,,,,,,,,,1954,37,58,1,0,0,response1disk,,7,5,5,1,0,0,rectangle,5,5,1,0,0,5,5,1,0,0,0,49,49,36,1,,,,,,,,
,,,,,,,,,,,,,FF,,,,,,,,1.201,,,,,,,,,,,,,,,,,,,,,,6102f2edaead0032c5054812,61036d44549abd4fa911d14e,2021-07-29_23h09.52.598,Simcolourproject_2stim_asymm_v5,2020.2.10,MacIntel,60,61025ae37ef11b136ea224fe,,,,,,,,,1959,25,-75,1,0,0,response3disk,,4,5,-10,1,0,0,rectangle,5,-10,1,0,0,5,-10,1,0,0,0,50,50,136,1,,,,,,,,
,,,,,,,,,,,,,FF,,,,,,,,2.884,,,,,,,,,,,,,,,,,,,,,,6102f2edaead0032c5054812,61036d44549abd4fa911d14e,2021-07-29_23h09.52.598,Simcolourproject_2stim_asymm_v5,2020.2.10,MacIntel,60,61025ae37ef11b136ea224fe,,,,,,,,,1276,33,75,1,0,0,response1disk,,7,-1,8,1,0,0,rectangle,-1,8,1,0,0,-1,8,1,0,0,0,51,51,140,1,,,,,,,,
,,,,,,,,,,,,,FF,,,,,,,,0.8,,,,,,,,,,,,,,,,,,,,,,6102f2edaead0032c5054812,61036d44549abd4fa911d14e,2021-07-29_23h09.52.598,Simcolourproject_2stim_asymm_v5,2020.2.10,MacIntel,60,61025ae37ef11b136ea224fe,,,,,,,,,1608,64,35,1,0,0,response1disk,,6,-11,-14,1,0,0,rectangle,-11,-14,1,0,0,-11,-14,1,0,0,0,52,52,138,1,,,,,,,,
,,,,,,,,,,,,,FF,,,,,,,,0.45,,,,,,,,,,,,,,,,,,,,,,6102f2edaead0032c5054812,61036d44549abd4fa911d14e,2021-07-29_23h09.52.598,Simcolourproject_2stim_asymm_v5,2020.2.10,MacIntel,60,61025ae37ef11b136ea224fe,,,,,,,,,1991,26,67,1,0,0,response1disk,,7,5,7,1,0,0,rectangle,5,7,1,0,0,5,7,1,0,0,0,53,53,106,1,,,,,,,,
,,,,,,,,,,,,,FF,,,,,,,,0.368,,,,,,,,,,,,,,,,,,,,,,6102f2edaead0032c5054812,61036d44549abd4fa911d14e,2021-07-29_23h09.52.598,Simcolourproject_2stim_asymm_v5,2020.2.10,MacIntel,60,61025ae37ef11b136ea224fe,,,,,,,,,3525,38,61,1,0,0,response1disk,,7,13,-1,1,0,0,rectangle,13,-1,1,0,0,13,-1,1,0,0,0,54,54,53,1,,,,,,,,
,,,,,,,,,,,,,FF,,,,,,,,1.25,,,,,,,,,,,,,,,,,,,,,,6102f2edaead0032c5054812,61036d44549abd4fa911d14e,2021-07-29_23h09.52.598,Simcolourproject_2stim_asymm_v5,2020.2.10,MacIntel,60,61025ae37ef11b136ea224fe,,,,,,,,,721,93,-44,1,0,0,response3disk,,5,17,0,1,0,0,rectangle,17,0,1,0,0,17,0,1,0,0,0,55,55,151,1,,,,,,,,
,,,,,,,,,,,,,FF,,,,,,,,0.851,,,,,,,,,,,,,,,,,,,,,,6102f2edaead0032c5054812,61036d44549abd4fa911d14e,2021-07-29_23h09.52.598,Simcolourproject_2stim_asymm_v5,2020.2.10,MacIntel,60,61025ae37ef11b136ea224fe,,,,,,,,,4052,-25,-66,1,0,0,response5disk,,3,-2,-13,1,0,0,rectangle,-2,-13,1,0,0,-2,-13,1,0,0,0,56,56,18,1,,,,,,,,
,,,,,,,,,,,,,FF,,,,,,,,0.917,,,,,,,,,,,,,,,,,,,,,,6102f2edaead0032c5054812,61036d44549abd4fa911d14e,2021-07-29_23h09.52.598,Simcolourproject_2stim_asymm_v5,2020.2.10,MacIntel,60,61025ae37ef11b136ea224fe,,,,,,,,,2677,34,-74,1,0,0,response3disk,,4,21,-14,1,0,0,rectangle,21,-14,1,0,0,21,-14,1,0,0,0,57,57,42,1,,,,,,,,
,,,,,,,,,,,,,FF,,,,,,,,0.648,,,,,,,,,,,,,,,,,,,,,,6102f2edaead0032c5054812,61036d44549abd4fa911d14e,2021-07-29_23h09.52.598,Simcolourproject_2stim_asymm_v5,2020.2.10,MacIntel,60,61025ae37ef11b136ea224fe,,,,,,,,,214,46,76,1,0,0,response1disk,,7,6,-1,1,0,0,rectangle,6,-1,1,0,0,6,-1,1,0,0,0,58,58,58,1,,,,,,,,
,,,,,,,,,,,,,FF,,,,,,,,0.883,,,,,,,,,,,,,,,,,,,,,,6102f2edaead0032c5054812,61036d44549abd4fa911d14e,2021-07-29_23h09.52.598,Simcolourproject_2stim_asymm_v5,2020.2.10,MacIntel,60,61025ae37ef11b136ea224fe,,,,,,,,,4118,-69,-31,1,0,0,response5disk,,2,-22,-15,1,0,0,rectangle,-22,-15,1,0,0,-22,-15,1,0,0,0,59,59,89,1,,,,,,,,
,,,,,,,,,,,,,FF,,,,,,,,0.633,,,,,,,,,,,,,,,,,,,,,,6102f2edaead0032c5054812,61036d44549abd4fa911d14e,2021-07-29_23h09.52.598,Simcolourproject_2stim_asymm_v5,2020.2.10,MacIntel,60,61025ae37ef11b136ea224fe,,,,,,,,,878,24,53,1,0,0,response1disk,,7,1,13,1,0,0,rectangle,1,13,1,0,0,1,13,1,0,0,0,60,60,2,1,,,,,,,,
,,,,,,,,,,,,,FF,,,,,,,,0.4,,,,,,,,,,,,,,,,,,,,,,6102f2edaead0032c5054812,61036d44549abd4fa911d14e,2021-07-29_23h09.52.598,Simcolourproject_2stim_asymm_v5,2020.2.10,MacIntel,60,61025ae37ef11b136ea224fe,,,,,,,,,676,41,71,1,0,0,response1disk,,7,2,6,1,0,0,rectangle,2,6,1,0,0,2,6,1,0,0,0,61,61,3,1,,,,,,,,
,,,,,,,,,,,,,FF,,,,,,,,0.383,,,,,,,,,,,,,,,,,,,,,,6102f2edaead0032c5054812,61036d44549abd4fa911d14e,2021-07-29_23h09.52.598,Simcolourproject_2stim_asymm_v5,2020.2.10,MacIntel,60,61025ae37ef11b136ea224fe,,,,,,,,,3680,32,54,1,0,0,response1disk,,7,1,-4,1,0,0,rectangle,1,-4,1,0,0,1,-4,1,0,0,0,62,62,137,1,,,,,,,,
,,,,,,,,,,,,,FF,,,,,,,,0.7,,,,,,,,,,,,,,,,,,,,,,6102f2edaead0032c5054812,61036d44549abd4fa911d14e,2021-07-29_23h09.52.598,Simcolourproject_2stim_asymm_v5,2020.2.10,MacIntel,60,61025ae37ef11b136ea224fe,,,,,,,,,1065,34,59,1,0,0,response1disk,,7,1,-13,1,0,0,rectangle,1,-13,1,0,0,1,-13,1,0,0,0,63,63,108,1,,,,,,,,
,,,,,,,,,,,,,FF,,,,,,,,1.801,,,,,,,,,,,,,,,,,,,,,,6102f2edaead0032c5054812,61036d44549abd4fa911d14e,2021-07-29_23h09.52.598,Simcolourproject_2stim_asymm_v5,2020.2.10,MacIntel,60,61025ae37ef11b136ea224fe,,,,,,,,,768,35,45,1,0,0,response1disk,,7,7,-5,1,0,0,rectangle,7,-5,1,0,0,7,-5,1,0,0,0,64,64,74,1,,,,,,,,
,,,,,,,,,,,,,FF,,,,,,,,1.133,,,,,,,,,,,,,,,,,,,,,,6102f2edaead0032c5054812,61036d44549abd4fa911d14e,2021-07-29_23h09.52.598,Simcolourproject_2stim_asymm_v5,2020.2.10,MacIntel,60,61025ae37ef11b136ea224fe,,,,,,,,,3213,52,79,1,0,0,response1disk,,7,17,0,1,0,0,rectangle,17,0,1,0,0,17,0,1,0,0,0,65,65,129,1,,,,,,,,
,,,,,,,,,,,,,FF,,,,,,,,1.3,,,,,,,,,,,,,,,,,,,,,,6102f2edaead0032c5054812,61036d44549abd4fa911d14e,2021-07-29_23h09.52.598,Simcolourproject_2stim_asymm_v5,2020.2.10,MacIntel,60,61025ae37ef11b136ea224fe,,,,,,,,,3771,66,28,1,0,0,response1disk,,6,20,1,1,0,0,rectangle,20,1,1,0,0,20,1,1,0,0,0,66,66,122,1,,,,,,,,
,,,,,,,,,,,,,FF,,,,,,,,0.802,,,,,,,,,,,,,,,,,,,,,,6102f2edaead0032c5054812,61036d44549abd4fa911d14e,2021-07-29_23h09.52.598,Simcolourproject_2stim_asymm_v5,2020.2.10,MacIntel,60,61025ae37ef11b136ea224fe,,,,,,,,,1911,29,67,1,0,0,response1disk,,7,18,7,1,0,0,rectangle,18,7,1,0,0,18,7,1,0,0,0,67,67,139,1,,,,,,,,
,,,,,,,,,,,,,FF,,,,,,,,0.534,,,,,,,,,,,,,,,,,,,,,,6102f2edaead0032c5054812,61036d44549abd4fa911d14e,2021-07-29_23h09.52.598,Simcolourproject_2stim_asymm_v5,2020.2.10,MacIntel,60,61025ae37ef11b136ea224fe,,,,,,,,,764,42,66,1,0,0,response1disk,,7,21,-1,1,0,0,rectangle,21,-1,1,0,0,21,-1,1,0,0,0,68,68,22,1,,,,,,,,
,,,,,,,,,,,,,FF,,,,,,,,0.333,,,,,,,,,,,,,,,,,,,,,,6102f2edaead0032c5054812,61036d44549abd4fa911d14e,2021-07-29_23h09.52.598,Simcolourproject_2stim_asymm_v5,2020.2.10,MacIntel,60,61025ae37ef11b136ea224fe,,,,,,,,,2816,47,63,1,0,0,response1disk,,7,25,-9,1,0,0,rectangle,25,-9,1,0,0,25,-9,1,0,0,0,69,69,130,1,,,,,,,,
,,,,,,,,,,,,,FF,,,,,,,,0.967,,,,,,,,,,,,,,,,,,,,,,6102f2edaead0032c5054812,61036d44549abd4fa911d14e,2021-07-29_23h09.52.598,Simcolourproject_2stim_asymm_v5,2020.2.10,MacIntel,60,61025ae37ef11b136ea224fe,,,,,,,,,1294,-37,-75,1,0,0,response5disk,,3,-5,-3,1,0,0,rectangle,-5,-3,1,0,0,-5,-3,1,0,0,0,70,70,24,1,,,,,,,,
,,,,,,,,,,,,,FF,,,,,,,,1.899,,,,,,,,,,,,,,,,,,,,,,6102f2edaead0032c5054812,61036d44549abd4fa911d14e,2021-07-29_23h09.52.598,Simcolourproject_2stim_asymm_v5,2020.2.10,MacIntel,60,61025ae37ef11b136ea224fe,,,,,,,,,2098,-59,-81,1,0,0,response5disk,,3,-10,-3,1,0,0,rectangle,-10,-3,1,0,0,-10,-3,1,0,0,0,71,71,75,1,,,,,,,,
,,,,,,,,,,,,,FF,,,,,,,,0.434,,,,,,,,,,,,,,,,,,,,,,6102f2edaead0032c5054812,61036d44549abd4fa911d14e,2021-07-29_23h09.52.598,Simcolourproject_2stim_asymm_v5,2020.2.10,MacIntel,60,61025ae37ef11b136ea224fe,,,,,,,,,614,35,72,1,0,0,response1disk,,7,11,14,1,0,0,rectangle,11,14,1,0,0,11,14,1,0,0,0,72,72,93,1,,,,,,,,
,,,,,,,,,,,,,FF,,,,,,,,0.351,,,,,,,,,,,,,,,,,,,,,,6102f2edaead0032c5054812,61036d44549abd4fa911d14e,2021-07-29_23h09.52.598,Simcolourproject_2stim_asymm_v5,2020.2.10,MacIntel,60,61025ae37ef11b136ea224fe,,,,,,,,,1393,40,61,1,0,0,response1disk,,7,13,2,1,0,0,rectangle,13,2,1,0,0,13,2,1,0,0,0,73,73,119,1,,,,,,,,
,,,,,,,,,,,,,FF,,,,,,,,0.917,,,,,,,,,,,,,,,,,,,,,,6102f2edaead0032c5054812,61036d44549abd4fa911d14e,2021-07-29_23h09.52.598,Simcolourproject_2stim_asymm_v5,2020.2.10,MacIntel,60,61025ae37ef11b136ea224fe,,,,,,,,,78,-35,-68,1,0,0,response5disk,,3,-9,-16,1,0,0,rectangle,105,36,1,0,0,12,1,1,0,0,0,74,74,133,1,,response1disk_3,TRUE,6,6,"[78,256,77,295,75,127,206,147,320,206,265,286,291,86,80,125,290,276,176,319]",1.718,rectangle
,,,,,,,,,,,,,FF,,,,,,,,0.75,,,,,,,,,,,,,,,,,,,,,,6102f2edaead0032c5054812,61036d44549abd4fa911d14e,2021-07-29_23h09.52.598,Simcolourproject_2stim_asymm_v5,2020.2.10,MacIntel,60,61025ae37ef11b136ea224fe,,,,,,,,,3184,36,70,1,0,0,response1disk,,7,11,8,1,0,0,rectangle,11,8,1,0,0,11,8,1,0,0,0,75,75,156,1,,,,,,,,
,,,,,,,,,,,,,FF,,,,,,,,0.417,,,,,,,,,,,,,,,,,,,,,,6102f2edaead0032c5054812,61036d44549abd4fa911d14e,2021-07-29_23h09.52.598,Simcolourproject_2stim_asymm_v5,2020.2.10,MacIntel,60,61025ae37ef11b136ea224fe,,,,,,,,,1634,42,66,1,0,0,response1disk,,7,16,7,1,0,0,rectangle,31,85,1,0,0,3,5,1,0,0,0,76,76,83,1,,response1disk_3,TRUE,7,7,"[78,256,77,295,75,127,206,147,320,206,265,286,291,86,80,125,290,276,176,319]",1.634,rectangle
,,,,,,,,,,,,,FF,,,,,,,,1.249,,,,,,,,,,,,,,,,,,,,,,6102f2edaead0032c5054812,61036d44549abd4fa911d14e,2021-07-29_23h09.52.598,Simcolourproject_2stim_asymm_v5,2020.2.10,MacIntel,60,61025ae37ef11b136ea224fe,,,,,,,,,1732,96,28,1,0,0,response1disk,,6,6,8,1,0,0,rectangle,77,-55,1,0,0,11,2,1,0,0,0,77,77,45,1,,response3disk_3,TRUE,5,5,"[78,256,77,295,75,127,206,147,320,206,265,286,291,86,80,125,290,276,176,319]",1.5,rectangle
,,,,,,,,,,,,,FF,,,,,,,,0.749,,,,,,,,,,,,,,,,,,,,,,6102f2edaead0032c5054812,61036d44549abd4fa911d14e,2021-07-29_23h09.52.598,Simcolourproject_2stim_asymm_v5,2020.2.10,MacIntel,60,61025ae37ef11b136ea224fe,,,,,,,,,1581,37,64,1,0,0,response1disk,,7,9,7,1,0,0,rectangle,9,7,1,0,0,9,7,1,0,0,0,78,78,154,1,,,,,,,,
,,,,,,,,,,,,,FF,,,,,,,,0.801,,,,,,,,,,,,,,,,,,,,,,6102f2edaead0032c5054812,61036d44549abd4fa911d14e,2021-07-29_23h09.52.598,Simcolourproject_2stim_asymm_v5,2020.2.10,MacIntel,60,61025ae37ef11b136ea224fe,,,,,,,,,1296,-64,-30,1,0,0,response5disk,,2,-19,-13,1,0,0,rectangle,47,-94,1,0,0,16,-10,1,0,0,0,79,79,104,1,,response3disk_3,TRUE,4,4,"[78,256,77,295,75,127,206,147,320,206,265,286,291,86,80,125,290,276,176,319]",1.834,rectangle
,,,,,,,,,,,,,FF,,,,,,,,0.716,,,,,,,,,,,,,,,,,,,,,,6102f2edaead0032c5054812,61036d44549abd4fa911d14e,2021-07-29_23h09.52.598,Simcolourproject_2stim_asymm_v5,2020.2.10,MacIntel,60,61025ae37ef11b136ea224fe,,,,,,,,,4011,32,64,1,0,0,response1disk,,7,8,9,1,0,0,rectangle,8,9,1,0,0,8,9,1,0,0,0,80,80,79,1,,,,,,,,
,,,,,,,,,,,,,FF,,,,,,,,0.634,,,,,,,,,,,,,,,,,,,,,,6102f2edaead0032c5054812,61036d44549abd4fa911d14e,2021-07-29_23h09.52.598,Simcolourproject_2stim_asymm_v5,2020.2.10,MacIntel,60,61025ae37ef11b136ea224fe,,,,,,,,,3995,39,56,1,0,0,response1disk,,7,7,-18,1,0,0,rectangle,7,-18,1,0,0,7,-18,1,0,0,0,81,81,132,1,,,,,,,,
,,,,,,,,,,,,,FF,,,,,,,,0.499,,,,,,,,,,,,,,,,,,,,,,6102f2edaead0032c5054812,61036d44549abd4fa911d14e,2021-07-29_23h09.52.598,Simcolourproject_2stim_asymm_v5,2020.2.10,MacIntel,60,61025ae37ef11b136ea224fe,,,,,,,,,2586,42,62,1,0,0,response1disk,,7,14,0,1,0,0,rectangle,14,0,1,0,0,14,0,1,0,0,0,82,82,84,1,,,,,,,,
,,,,,,,,,,,,,FF,,,,,,,,0.617,,,,,,,,,,,,,,,,,,,,,,6102f2edaead0032c5054812,61036d44549abd4fa911d14e,2021-07-29_23h09.52.598,Simcolourproject_2stim_asymm_v5,2020.2.10,MacIntel,60,61025ae37ef11b136ea224fe,,,,,,,,,2640,45,73,1,0,0,response1disk,,7,21,7,1,0,0,rectangle,21,7,1,0,0,21,7,1,0,0,0,83,83,115,1,,,,,,,,
,,,,,,,,,,,,,FF,,,,,,,,0.45,,,,,,,,,,,,,,,,,,,,,,6102f2edaead0032c5054812,61036d44549abd4fa911d14e,2021-07-29_23h09.52.598,Simcolourproject_2stim_asymm_v5,2020.2.10,MacIntel,60,61025ae37ef11b136ea224fe,,,,,,,,,1257,45,60,1,0,0,response1disk,,7,21,-5,1,0,0,rectangle,21,-5,1,0,0,21,-5,1,0,0,0,84,84,55,1,,,,,,,,
,,,,,,,,,,,,,FF,,,,,,,,0.5,,,,,,,,,,,,,,,,,,,,,,6102f2edaead0032c5054812,61036d44549abd4fa911d14e,2021-07-29_23h09.52.598,Simcolourproject_2stim_asymm_v5,2020.2.10,MacIntel,60,61025ae37ef11b136ea224fe,,,,,,,,,3587,49,84,1,0,0,response1disk,,7,21,13,1,0,0,rectangle,-22,92,1,0,0,-5,-10,1,0,0,0,85,85,103,1,,response7disk_3,TRUE,0,0,"[78,256,77,295,75,127,206,147,320,206,265,286,291,86,80,125,290,276,176,319]",1.7,rectangle
,,,,,,,,,,,,,FF,,,,,,,,0.633,,,,,,,,,,,,,,,,,,,,,,6102f2edaead0032c5054812,61036d44549abd4fa911d14e,2021-07-29_23h09.52.598,Simcolourproject_2stim_asymm_v5,2020.2.10,MacIntel,60,61025ae37ef11b136ea224fe,,,,,,,,,1207,21,66,1,0,0,response1disk,,7,5,6,1,0,0,rectangle,5,6,1,0,0,5,6,1,0,0,0,86,86,146,1,,,,,,,,
,,,,,,,,,,,,,FF,,,,,,,,1.033,,,,,,,,,,,,,,,,,,,,,,6102f2edaead0032c5054812,61036d44549abd4fa911d14e,2021-07-29_23h09.52.598,Simcolourproject_2stim_asymm_v5,2020.2.10,MacIntel,60,61025ae37ef11b136ea224fe,,,,,,,,,435,77,-55,1,0,0,response3disk,,5,-2,-13,1,0,0,rectangle,-2,-13,1,0,0,-2,-13,1,0,0,0,87,87,86,1,,,,,,,,
,,,,,,,,,,,,,FF,,,,,,,,1.066,,,,,,,,,,,,,,,,,,,,,,6102f2edaead0032c5054812,61036d44549abd4fa911d14e,2021-07-29_23h09.52.598,Simcolourproject_2stim_asymm_v5,2020.2.10,MacIntel,60,61025ae37ef11b136ea224fe,,,,,,,,,4318,84,36,1,0,0,response1disk,,6,6,2,1,0,0,rectangle,6,2,1,0,0,6,2,1,0,0,0,88,88,68,1,,,,,,,,
,,,,,,,,,,,,,FF,,,,,,,,0.933,,,,,,,,,,,,,,,,,,,,,,6102f2edaead0032c5054812,61036d44549abd4fa911d14e,2021-07-29_23h09.52.598,Simcolourproject_2stim_asymm_v5,2020.2.10,MacIntel,60,61025ae37ef11b136ea224fe,,,,,,,,,1747,42,-91,1,0,0,response3disk,,4,15,-9,1,0,0,rectangle,15,-9,1,0,0,15,-9,1,0,0,0,89,89,91,1,,,,,,,,
,,,,,,,,,,,,,FF,,,,,,,,0.9,,,,,,,,,,,,,,,,,,,,,,6102f2edaead0032c5054812,61036d44549abd4fa911d14e,2021-07-29_23h09.52.598,Simcolourproject_2stim_asymm_v5,2020.2.10,MacIntel,60,61025ae37ef11b136ea224fe,,,,,,,,,371,33,-74,1,0,0,response3disk,,4,20,-8,1,0,0,rectangle,20,-8,1,0,0,20,-8,1,0,0,0,90,90,118,1,,,,,,,,
,,,,,,,,,,,,,FF,,,,,,,,0.668,,,,,,,,,,,,,,,,,,,,,,6102f2edaead0032c5054812,61036d44549abd4fa911d14e,2021-07-29_23h09.52.598,Simcolourproject_2stim_asymm_v5,2020.2.10,MacIntel,60,61025ae37ef11b136ea224fe,,,,,,,,,3501,38,74,1,0,0,response1disk,,7,15,6,1,0,0,rectangle,15,6,1,0,0,15,6,1,0,0,0,91,91,124,1,,,,,,,,
,,,,,,,,,,,,,FF,,,,,,,,0.533,,,,,,,,,,,,,,,,,,,,,,6102f2edaead0032c5054812,61036d44549abd4fa911d14e,2021-07-29_23h09.52.598,Simcolourproject_2stim_asymm_v5,2020.2.10,MacIntel,60,61025ae37ef11b136ea224fe,,,,,,,,,2563,36,71,1,0,0,response1disk,,7,15,5,1,0,0,rectangle,15,5,1,0,0,15,5,1,0,0,0,92,92,98,1,,,,,,,,
,,,,,,,,,,,,,FF,,,,,,,,1.834,,,,,,,,,,,,,,,,,,,,,,6102f2edaead0032c5054812,61036d44549abd4fa911d14e,2021-07-29_23h09.52.598,Simcolourproject_2stim_asymm_v5,2020.2.10,MacIntel,60,61025ae37ef11b136ea224fe,,,,,,,,,2108,98,-26,1,0,0,response3disk,,5,6,-2,1,0,0,rectangle,6,-2,1,0,0,6,-2,1,0,0,0,93,93,127,1,,,,,,,,
,,,,,,,,,,,,,FF,,,,,,,,0.417,,,,,,,,,,,,,,,,,,,,,,6102f2edaead0032c5054812,61036d44549abd4fa911d14e,2021-07-29_23h09.52.598,Simcolourproject_2stim_asymm_v5,2020.2.10,MacIntel,60,61025ae37ef11b136ea224fe,,,,,,,,,1780,43,80,1,0,0,response1disk,,7,14,-5,1,0,0,rectangle,14,-5,1,0,0,14,-5,1,0,0,0,94,94,80,1,,,,,,,,
,,,,,,,,,,,,,FF,,,,,,,,0.817,,,,,,,,,,,,,,,,,,,,,,6102f2edaead0032c5054812,61036d44549abd4fa911d14e,2021-07-29_23h09.52.598,Simcolourproject_2stim_asymm_v5,2020.2.10,MacIntel,60,61025ae37ef11b136ea224fe,,,,,,,,,35,31,58,1,0,0,response1disk,,7,11,-14,1,0,0,rectangle,11,-14,1,0,0,11,-14,1,0,0,0,95,95,95,1,,,,,,,,
,,,,,,,,,,,,,FF,,,,,,,,0.367,,,,,,,,,,,,,,,,,,,,,,6102f2edaead0032c5054812,61036d44549abd4fa911d14e,2021-07-29_23h09.52.598,Simcolourproject_2stim_asymm_v5,2020.2.10,MacIntel,60,61025ae37ef11b136ea224fe,,,,,,,,,760,30,53,1,0,0,response1disk,,7,11,-9,1,0,0,rectangle,11,-9,1,0,0,11,-9,1,0,0,0,96,96,29,1,,,,,,,,
,,,,,,,,,,,,,FF,,,,,,,,0.951,,,,,,,,,,,,,,,,,,,,,,6102f2edaead0032c5054812,61036d44549abd4fa911d14e,2021-07-29_23h09.52.598,Simcolourproject_2stim_asymm_v5,2020.2.10,MacIntel,60,61025ae37ef11b136ea224fe,,,,,,,,,562,111,38,1,0,0,response1disk,,6,9,-11,1,0,0,rectangle,9,-11,1,0,0,9,-11,1,0,0,0,97,97,39,1,,,,,,,,
,,,,,,,,,,,,,FF,,,,,,,,0.401,,,,,,,,,,,,,,,,,,,,,,6102f2edaead0032c5054812,61036d44549abd4fa911d14e,2021-07-29_23h09.52.598,Simcolourproject_2stim_asymm_v5,2020.2.10,MacIntel,60,61025ae37ef11b136ea224fe,,,,,,,,,1161,38,68,1,0,0,response1disk,,7,16,9,1,0,0,rectangle,16,9,1,0,0,16,9,1,0,0,0,98,98,158,1,,,,,,,,
,,,,,,,,,,,,,FF,,,,,,,,1.233,,,,,,,,,,,,,,,,,,,,,,6102f2edaead0032c5054812,61036d44549abd4fa911d14e,2021-07-29_23h09.52.598,Simcolourproject_2stim_asymm_v5,2020.2.10,MacIntel,60,61025ae37ef11b136ea224fe,,,,,,,,,2660,-63,25,1,0,0,response7disk,,1,-21,4,1,0,0,rectangle,-21,4,1,0,0,-21,4,1,0,0,0,99,99,134,1,,,,,,,,
,,,,,,,,,,,,,FF,,,,,,,,0.9,,,,,,,,,,,,,,,,,,,,,,6102f2edaead0032c5054812,61036d44549abd4fa911d14e,2021-07-29_23h09.52.598,Simcolourproject_2stim_asymm_v5,2020.2.10,MacIntel,60,61025ae37ef11b136ea224fe,,,,,,,,,613,-46,-93,1,0,0,response5disk,,3,-2,-4,1,0,0,rectangle,-2,-4,1,0,0,-2,-4,1,0,0,0,100,100,44,1,,,,,,,,
,,,,,,,,,,,,,FF,,,,,,,,1.049,,,,,,,,,,,,,,,,,,,,,,6102f2edaead0032c5054812,61036d44549abd4fa911d14e,2021-07-29_23h09.52.598,Simcolourproject_2stim_asymm_v5,2020.2.10,MacIntel,60,61025ae37ef11b136ea224fe,,,,,,,,,2602,24,-73,1,0,0,response3disk,,4,11,6,1,0,0,rectangle,11,6,1,0,0,11,6,1,0,0,0,101,101,105,1,,,,,,,,
,,,,,,,,,,,,,FF,,,,,,,,0.517,,,,,,,,,,,,,,,,,,,,,,6102f2edaead0032c5054812,61036d44549abd4fa911d14e,2021-07-29_23h09.52.598,Simcolourproject_2stim_asymm_v5,2020.2.10,MacIntel,60,61025ae37ef11b136ea224fe,,,,,,,,,1947,28,61,1,0,0,response1disk,,7,2,15,1,0,0,rectangle,2,15,1,0,0,2,15,1,0,0,0,102,102,11,1,,,,,,,,
,,,,,,,,,,,,,FF,,,,,,,,0.633,,,,,,,,,,,,,,,,,,,,,,6102f2edaead0032c5054812,61036d44549abd4fa911d14e,2021-07-29_23h09.52.598,Simcolourproject_2stim_asymm_v5,2020.2.10,MacIntel,60,61025ae37ef11b136ea224fe,,,,,,,,,4151,39,52,1,0,0,response1disk,,7,7,-11,1,0,0,rectangle,7,-11,1,0,0,7,-11,1,0,0,0,103,103,97,1,,,,,,,,
,,,,,,,,,,,,,FF,,,,,,,,0.666,,,,,,,,,,,,,,,,,,,,,,6102f2edaead0032c5054812,61036d44549abd4fa911d14e,2021-07-29_23h09.52.598,Simcolourproject_2stim_asymm_v5,2020.2.10,MacIntel,60,61025ae37ef11b136ea224fe,,,,,,,,,468,55,37,1,0,0,response1disk,,6,9,15,1,0,0,rectangle,9,15,1,0,0,9,15,1,0,0,0,104,104,76,1,,,,,,,,
,,,,,,,,,,,,,FF,,,,,,,,0.467,,,,,,,,,,,,,,,,,,,,,,6102f2edaead0032c5054812,61036d44549abd4fa911d14e,2021-07-29_23h09.52.598,Simcolourproject_2stim_asymm_v5,2020.2.10,MacIntel,60,61025ae37ef11b136ea224fe,,,,,,,,,2514,33,75,1,0,0,response1disk,,7,12,3,1,0,0,rectangle,12,3,1,0,0,12,3,1,0,0,0,105,105,78,1,,,,,,,,
,,,,,,,,,,,,,FF,,,,,,,,0.383,,,,,,,,,,,,,,,,,,,,,,6102f2edaead0032c5054812,61036d44549abd4fa911d14e,2021-07-29_23h09.52.598,Simcolourproject_2stim_asymm_v5,2020.2.10,MacIntel,60,61025ae37ef11b136ea224fe,,,,,,,,,1728,38,65,1,0,0,response1disk,,7,8,-10,1,0,0,rectangle,8,-10,1,0,0,8,-10,1,0,0,0,106,106,159,1,,,,,,,,
,,,,,,,,,,,,,FF,,,,,,,,0.683,,,,,,,,,,,,,,,,,,,,,,6102f2edaead0032c5054812,61036d44549abd4fa911d14e,2021-07-29_23h09.52.598,Simcolourproject_2stim_asymm_v5,2020.2.10,MacIntel,60,61025ae37ef11b136ea224fe,,,,,,,,,3616,31,52,1,0,0,response1disk,,7,10,-13,1,0,0,rectangle,10,-13,1,0,0,10,-13,1,0,0,0,107,107,38,1,,,,,,,,
,,,,,,,,,,,,,FF,,,,,,,,0.499,,,,,,,,,,,,,,,,,,,,,,6102f2edaead0032c5054812,61036d44549abd4fa911d14e,2021-07-29_23h09.52.598,Simcolourproject_2stim_asymm_v5,2020.2.10,MacIntel,60,61025ae37ef11b136ea224fe,,,,,,,,,2815,41,66,1,0,0,response1disk,,7,13,5,1,0,0,rectangle,13,5,1,0,0,13,5,1,0,0,0,108,108,88,1,,,,,,,,
,,,,,,,,,,,,,FF,,,,,,,,1.15,,,,,,,,,,,,,,,,,,,,,,6102f2edaead0032c5054812,61036d44549abd4fa911d14e,2021-07-29_23h09.52.598,Simcolourproject_2stim_asymm_v5,2020.2.10,MacIntel,60,61025ae37ef11b136ea224fe,,,,,,,,,377,79,-41,1,0,0,response3disk,,5,9,-7,1,0,0,rectangle,9,-7,1,0,0,9,-7,1,0,0,0,109,109,153,1,,,,,,,,
,,,,,,,,,,,,,FF,,,,,,,,0.551,,,,,,,,,,,,,,,,,,,,,,6102f2edaead0032c5054812,61036d44549abd4fa911d14e,2021-07-29_23h09.52.598,Simcolourproject_2stim_asymm_v5,2020.2.10,MacIntel,60,61025ae37ef11b136ea224fe,,,,,,,,,719,67,27,1,0,0,response1disk,,6,25,-12,1,0,0,rectangle,25,-12,1,0,0,25,-12,1,0,0,0,110,110,20,1,,,,,,,,
,,,,,,,,,,,,,FF,,,,,,,,0.583,,,,,,,,,,,,,,,,,,,,,,6102f2edaead0032c5054812,61036d44549abd4fa911d14e,2021-07-29_23h09.52.598,Simcolourproject_2stim_asymm_v5,2020.2.10,MacIntel,60,61025ae37ef11b136ea224fe,,,,,,,,,3311,35,79,1,0,0,response1disk,,7,19,13,1,0,0,rectangle,19,13,1,0,0,19,13,1,0,0,0,111,111,131,1,,,,,,,,
,,,,,,,,,,,,,FF,,,,,,,,0.383,,,,,,,,,,,,,,,,,,,,,,6102f2edaead0032c5054812,61036d44549abd4fa911d14e,2021-07-29_23h09.52.598,Simcolourproject_2stim_asymm_v5,2020.2.10,MacIntel,60,61025ae37ef11b136ea224fe,,,,,,,,,2981,34,57,1,0,0,response1disk,,7,16,5,1,0,0,rectangle,16,5,1,0,0,16,5,1,0,0,0,112,112,142,1,,,,,,,,
,,,,,,,,,,,,,FF,,,,,,,,0.467,,,,,,,,,,,,,,,,,,,,,,6102f2edaead0032c5054812,61036d44549abd4fa911d14e,2021-07-29_23h09.52.598,Simcolourproject_2stim_asymm_v5,2020.2.10,MacIntel,60,61025ae37ef11b136ea224fe,,,,,,,,,505,33,56,1,0,0,response1disk,,7,12,-11,1,0,0,rectangle,12,-11,1,0,0,12,-11,1,0,0,0,113,113,121,1,,,,,,,,
,,,,,,,,,,,,,FF,,,,,,,,0.563,,,,,,,,,,,,,,,,,,,,,,6102f2edaead0032c5054812,61036d44549abd4fa911d14e,2021-07-29_23h09.52.598,Simcolourproject_2stim_asymm_v5,2020.2.10,MacIntel,60,61025ae37ef11b136ea224fe,,,,,,,,,755,33,61,1,0,0,response1disk,,7,19,1,1,0,0,rectangle,19,1,1,0,0,19,1,1,0,0,0,114,114,81,1,,,,,,,,
,,,,,,,,,,,,,FF,,,,,,,,1.85,,,,,,,,,,,,,,,,,,,,,,6102f2edaead0032c5054812,61036d44549abd4fa911d14e,2021-07-29_23h09.52.598,Simcolourproject_2stim_asymm_v5,2020.2.10,MacIntel,60,61025ae37ef11b136ea224fe,,,,,,,,,1326,80,33,1,0,0,response1disk,,6,20,4,1,0,0,rectangle,20,4,1,0,0,20,4,1,0,0,0,115,115,62,1,,,,,,,,
,,,,,,,,,,,,,FF,,,,,,,,0.483,,,,,,,,,,,,,,,,,,,,,,6102f2edaead0032c5054812,61036d44549abd4fa911d14e,2021-07-29_23h09.52.598,Simcolourproject_2stim_asymm_v5,2020.2.10,MacIntel,60,61025ae37ef11b136ea224fe,,,,,,,,,251,35,74,1,0,0,response1disk,,7,13,5,1,0,0,rectangle,13,5,1,0,0,13,5,1,0,0,0,116,116,10,1,,,,,,,,
,,,,,,,,,,,,,FF,,,,,,,,0.646,,,,,,,,,,,,,,,,,,,,,,6102f2edaead0032c5054812,61036d44549abd4fa911d14e,2021-07-29_23h09.52.598,Simcolourproject_2stim_asymm_v5,2020.2.10,MacIntel,60,61025ae37ef11b136ea224fe,,,,,,,,,3355,41,70,1,0,0,response1disk,,7,15,-4,1,0,0,rectangle,15,-4,1,0,0,15,-4,1,0,0,0,117,117,157,1,,,,,,,,
,,,,,,,,,,,,,FF,,,,,,,,1.284,,,,,,,,,,,,,,,,,,,,,,6102f2edaead0032c5054812,61036d44549abd4fa911d14e,2021-07-29_23h09.52.598,Simcolourproject_2stim_asymm_v5,2020.2.10,MacIntel,60,61025ae37ef11b136ea224fe,,,,,,,,,1962,35,-66,1,0,0,response3disk,,4,15,-5,1,0,0,rectangle,15,-5,1,0,0,15,-5,1,0,0,0,118,118,67,1,,,,,,,,
,,,,,,,,,,,,,FF,,,,,,,,1.301,,,,,,,,,,,,,,,,,,,,,,6102f2edaead0032c5054812,61036d44549abd4fa911d14e,2021-07-29_23h09.52.598,Simcolourproject_2stim_asymm_v5,2020.2.10,MacIntel,60,61025ae37ef11b136ea224fe,,,,,,,,,2651,108,17,1,0,0,response1disk,,6,5,5,1,0,0,rectangle,5,5,1,0,0,5,5,1,0,0,0,119,119,94,1,,,,,,,,
,,,,,,,,,,,,,FF,,,,,,,,0.533,,,,,,,,,,,,,,,,,,,,,,6102f2edaead0032c5054812,61036d44549abd4fa911d14e,2021-07-29_23h09.52.598,Simcolourproject_2stim_asymm_v5,2020.2.10,MacIntel,60,61025ae37ef11b136ea224fe,,,,,,,,,3406,26,66,1,0,0,response1disk,,7,5,5,1,0,0,rectangle,5,5,1,0,0,5,5,1,0,0,0,120,120,101,1,,,,,,,,
,,,,,,,,,,,,,FF,,,,,,,,1.068,,,,,,,,,,,,,,,,,,,,,,6102f2edaead0032c5054812,61036d44549abd4fa911d14e,2021-07-29_23h09.52.598,Simcolourproject_2stim_asymm_v5,2020.2.10,MacIntel,60,61025ae37ef11b136ea224fe,,,,,,,,,3728,21,61,1,0,0,response1disk,,7,-5,-9,1,0,0,rectangle,-5,-9,1,0,0,-5,-9,1,0,0,0,121,121,51,1,,,,,,,,
,,,,,,,,,,,,,FF,,,,,,,,0.35,,,,,,,,,,,,,,,,,,,,,,6102f2edaead0032c5054812,61036d44549abd4fa911d14e,2021-07-29_23h09.52.598,Simcolourproject_2stim_asymm_v5,2020.2.10,MacIntel,60,61025ae37ef11b136ea224fe,,,,,,,,,1010,32,56,1,0,0,response1disk,,7,15,1,1,0,0,rectangle,15,1,1,0,0,15,1,1,0,0,0,122,122,46,1,,,,,,,,
,,,,,,,,,,,,,FF,,,,,,,,0.588,,,,,,,,,,,,,,,,,,,,,,6102f2edaead0032c5054812,61036d44549abd4fa911d14e,2021-07-29_23h09.52.598,Simcolourproject_2stim_asymm_v5,2020.2.10,MacIntel,60,61025ae37ef11b136ea224fe,,,,,,,,,844,37,68,1,0,0,response1disk,,7,13,-5,1,0,0,rectangle,13,-5,1,0,0,13,-5,1,0,0,0,123,123,100,1,,,,,,,,
,,,,,,,,,,,,,FF,,,,,,,,0.582,,,,,,,,,,,,,,,,,,,,,,6102f2edaead0032c5054812,61036d44549abd4fa911d14e,2021-07-29_23h09.52.598,Simcolourproject_2stim_asymm_v5,2020.2.10,MacIntel,60,61025ae37ef11b136ea224fe,,,,,,,,,3498,37,63,1,0,0,response1disk,,7,15,-2,1,0,0,rectangle,102,47,1,0,0,20,10,1,0,0,0,124,124,110,1,,response1disk_3,TRUE,6,6,"[78,256,77,295,75,127,206,147,320,206,265,286,291,86,80,125,290,276,176,319]",1.299,rectangle
,,,,,,,,,,,,,FF,,,,,,,,3.133,,,,,,,,,,,,,,,,,,,,,,6102f2edaead0032c5054812,61036d44549abd4fa911d14e,2021-07-29_23h09.52.598,Simcolourproject_2stim_asymm_v5,2020.2.10,MacIntel,60,61025ae37ef11b136ea224fe,,,,,,,,,340,79,42,1,0,0,response1disk,,6,-3,0,1,0,0,rectangle,-3,0,1,0,0,-3,0,1,0,0,0,125,125,25,1,,,,,,,,
,,,,,,,,,,,,,FF,,,,,,,,0.933,,,,,,,,,,,,,,,,,,,,,,6102f2edaead0032c5054812,61036d44549abd4fa911d14e,2021-07-29_23h09.52.598,Simcolourproject_2stim_asymm_v5,2020.2.10,MacIntel,60,61025ae37ef11b136ea224fe,,,,,,,,,771,74,-30,1,0,0,response3disk,,5,16,-4,1,0,0,rectangle,76,31,1,0,0,11,1,1,0,0,0,126,126,13,1,,response1disk_3,TRUE,6,3,"[78,256,77,295,75,127,206,147,320,206,265,286,291,86,80,125,290,276,176,319]",1.483,rectangle
,,,,,,,,,,,,,FF,,,,,,,,1.739,,,,,,,,,,,,,,,,,,,,,,6102f2edaead0032c5054812,61036d44549abd4fa911d14e,2021-07-29_23h09.52.598,Simcolourproject_2stim_asymm_v5,2020.2.10,MacIntel,60,61025ae37ef11b136ea224fe,,,,,,,,,3000,-78,-32,1,0,0,response5disk,,2,-17,0,1,0,0,rectangle,-17,0,1,0,0,-17,0,1,0,0,0,127,127,125,1,,,,,,,,
,,,,,,,,,,,,,FF,,,,,,,,2.367,,,,,,,,,,,,,,,,,,,,,,6102f2edaead0032c5054812,61036d44549abd4fa911d14e,2021-07-29_23h09.52.598,Simcolourproject_2stim_asymm_v5,2020.2.10,MacIntel,60,61025ae37ef11b136ea224fe,,,,,,,,,3968,81,43,1,0,0,response1disk,,6,6,5,1,0,0,rectangle,6,5,1,0,0,6,5,1,0,0,0,128,128,30,1,,,,,,,,
,,,,,,,,,,,,,FF,,,,,,,,0.801,,,,,,,,,,,,,,,,,,,,,,6102f2edaead0032c5054812,61036d44549abd4fa911d14e,2021-07-29_23h09.52.598,Simcolourproject_2stim_asymm_v5,2020.2.10,MacIntel,60,61025ae37ef11b136ea224fe,,,,,,,,,1080,41,77,1,0,0,response1disk,,7,19,2,1,0,0,rectangle,19,2,1,0,0,19,2,1,0,0,0,129,129,43,1,,,,,,,,
,,,,,,,,,,,,,FF,,,,,,,,0.5,,,,,,,,,,,,,,,,,,,,,,6102f2edaead0032c5054812,61036d44549abd4fa911d14e,2021-07-29_23h09.52.598,Simcolourproject_2stim_asymm_v5,2020.2.10,MacIntel,60,61025ae37ef11b136ea224fe,,,,,,,,,2802,46,73,1,0,0,response1disk,,7,25,11,1,0,0,rectangle,25,11,1,0,0,25,11,1,0,0,0,130,130,145,1,,,,,,,,
,,,,,,,,,,,,,FF,,,,,,,,0.734,,,,,,,,,,,,,,,,,,,,,,6102f2edaead0032c5054812,61036d44549abd4fa911d14e,2021-07-29_23h09.52.598,Simcolourproject_2stim_asymm_v5,2020.2.10,MacIntel,60,61025ae37ef11b136ea224fe,,,,,,,,,1517,81,22,1,0,0,response1disk,,6,-7,-3,1,0,0,rectangle,-7,-3,1,0,0,-7,-3,1,0,0,0,131,131,141,1,,,,,,,,
,,,,,,,,,,,,,FF,,,,,,,,0.835,,,,,,,,,,,,,,,,,,,,,,6102f2edaead0032c5054812,61036d44549abd4fa911d14e,2021-07-29_23h09.52.598,Simcolourproject_2stim_asymm_v5,2020.2.10,MacIntel,60,61025ae37ef11b136ea224fe,,,,,,,,,3966,-85,-30,1,0,0,response5disk,,2,1,-5,1,0,0,rectangle,1,-5,1,0,0,1,-5,1,0,0,0,132,132,96,1,,,,,,,,
,,,,,,,,,,,,,FF,,,,,,,,0.65,,,,,,,,,,,,,,,,,,,,,,6102f2edaead0032c5054812,61036d44549abd4fa911d14e,2021-07-29_23h09.52.598,Simcolourproject_2stim_asymm_v5,2020.2.10,MacIntel,60,61025ae37ef11b136ea224fe,,,,,,,,,2991,33,86,1,0,0,response1disk,,7,2,16,1,0,0,rectangle,2,16,1,0,0,2,16,1,0,0,0,133,133,31,1,,,,,,,,
,,,,,,,,,,,,,FF,,,,,,,,1.218,,,,,,,,,,,,,,,,,,,,,,6102f2edaead0032c5054812,61036d44549abd4fa911d14e,2021-07-29_23h09.52.598,Simcolourproject_2stim_asymm_v5,2020.2.10,MacIntel,60,61025ae37ef11b136ea224fe,,,,,,,,,2669,85,-28,1,0,0,response3disk,,5,4,-1,1,0,0,rectangle,4,-1,1,0,0,4,-1,1,0,0,0,134,134,128,1,,,,,,,,
,,,,,,,,,,,,,FF,,,,,,,,0.967,,,,,,,,,,,,,,,,,,,,,,6102f2edaead0032c5054812,61036d44549abd4fa911d14e,2021-07-29_23h09.52.598,Simcolourproject_2stim_asymm_v5,2020.2.10,MacIntel,60,61025ae37ef11b136ea224fe,,,,,,,,,449,38,103,1,0,0,response1disk,,7,0,16,1,0,0,rectangle,0,16,1,0,0,0,16,1,0,0,0,135,135,9,1,,,,,,,,
,,,,,,,,,,,,,FF,,,,,,,,0.467,,,,,,,,,,,,,,,,,,,,,,6102f2edaead0032c5054812,61036d44549abd4fa911d14e,2021-07-29_23h09.52.598,Simcolourproject_2stim_asymm_v5,2020.2.10,MacIntel,60,61025ae37ef11b136ea224fe,,,,,,,,,1571,34,60,1,0,0,response1disk,,7,9,5,1,0,0,rectangle,9,5,1,0,0,9,5,1,0,0,0,136,136,19,1,,,,,,,,
,,,,,,,,,,,,,FF,,,,,,,,0.433,,,,,,,,,,,,,,,,,,,,,,6102f2edaead0032c5054812,61036d44549abd4fa911d14e,2021-07-29_23h09.52.598,Simcolourproject_2stim_asymm_v5,2020.2.10,MacIntel,60,61025ae37ef11b136ea224fe,,,,,,,,,3229,31,47,1,0,0,response1disk,,7,11,4,1,0,0,rectangle,11,4,1,0,0,11,4,1,0,0,0,137,137,47,1,,,,,,,,
,,,,,,,,,,,,,FF,,,,,,,,0.634,,,,,,,,,,,,,,,,,,,,,,6102f2edaead0032c5054812,61036d44549abd4fa911d14e,2021-07-29_23h09.52.598,Simcolourproject_2stim_asymm_v5,2020.2.10,MacIntel,60,61025ae37ef11b136ea224fe,,,,,,,,,590,36,57,1,0,0,response1disk,,7,18,1,1,0,0,rectangle,18,1,1,0,0,18,1,1,0,0,0,138,138,123,1,,,,,,,,
,,,,,,,,,,,,,FF,,,,,,,,1.266,,,,,,,,,,,,,,,,,,,,,,6102f2edaead0032c5054812,61036d44549abd4fa911d14e,2021-07-29_23h09.52.598,Simcolourproject_2stim_asymm_v5,2020.2.10,MacIntel,60,61025ae37ef11b136ea224fe,,,,,,,,,1589,107,27,1,0,0,response1disk,,6,6,-12,1,0,0,rectangle,6,-12,1,0,0,6,-12,1,0,0,0,139,139,57,1,,,,,,,,
,,,,,,,,,,,,,FF,,,,,,,,1.133,,,,,,,,,,,,,,,,,,,,,,6102f2edaead0032c5054812,61036d44549abd4fa911d14e,2021-07-29_23h09.52.598,Simcolourproject_2stim_asymm_v5,2020.2.10,MacIntel,60,61025ae37ef11b136ea224fe,,,,,,,,,1830,79,-36,1,0,0,response3disk,,5,14,-8,1,0,0,rectangle,14,-8,1,0,0,14,-8,1,0,0,0,140,140,4,1,,,,,,,,
,,,,,,,,,,,,,FF,,,,,,,,1.416,,,,,,,,,,,,,,,,,,,,,,6102f2edaead0032c5054812,61036d44549abd4fa911d14e,2021-07-29_23h09.52.598,Simcolourproject_2stim_asymm_v5,2020.2.10,MacIntel,60,61025ae37ef11b136ea224fe,,,,,,,,,1067,85,49,1,0,0,response1disk,,6,-2,8,1,0,0,rectangle,-2,8,1,0,0,-2,8,1,0,0,0,141,141,65,1,,,,,,,,
,,,,,,,,,,,,,FF,,,,,,,,0.9,,,,,,,,,,,,,,,,,,,,,,6102f2edaead0032c5054812,61036d44549abd4fa911d14e,2021-07-29_23h09.52.598,Simcolourproject_2stim_asymm_v5,2020.2.10,MacIntel,60,61025ae37ef11b136ea224fe,,,,,,,,,727,64,38,1,0,0,response1disk,,6,-2,-3,1,0,0,rectangle,-2,-3,1,0,0,-2,-3,1,0,0,0,142,142,82,1,,,,,,,,
,,,,,,,,,,,,,FF,,,,,,,,1.484,,,,,,,,,,,,,,,,,,,,,,6102f2edaead0032c5054812,61036d44549abd4fa911d14e,2021-07-29_23h09.52.598,Simcolourproject_2stim_asymm_v5,2020.2.10,MacIntel,60,61025ae37ef11b136ea224fe,,,,,,,,,1888,-53,-76,1,0,0,response5disk,,3,-3,-3,1,0,0,rectangle,-3,-3,1,0,0,-3,-3,1,0,0,0,143,143,112,1,,,,,,,,
,,,,,,,,,,,,,FF,,,,,,,,1.718,,,,,,,,,,,,,,,,,,,,,,6102f2edaead0032c5054812,61036d44549abd4fa911d14e,2021-07-29_23h09.52.598,Simcolourproject_2stim_asymm_v5,2020.2.10,MacIntel,60,61025ae37ef11b136ea224fe,,,,,,,,,4169,69,-42,1,0,0,response3disk,,5,-4,-18,1,0,0,rectangle,-4,-18,1,0,0,-4,-18,1,0,0,0,144,144,107,1,,,,,,,,
,,,,,,,,,,,,,FF,,,,,,,,0.551,,,,,,,,,,,,,,,,,,,,,,6102f2edaead0032c5054812,61036d44549abd4fa911d14e,2021-07-29_23h09.52.598,Simcolourproject_2stim_asymm_v5,2020.2.10,MacIntel,60,61025ae37ef11b136ea224fe,,,,,,,,,2465,40,75,1,0,0,response1disk,,7,4,10,1,0,0,rectangle,4,10,1,0,0,4,10,1,0,0,0,145,145,148,1,,,,,,,,
,,,,,,,,,,,,,FF,,,,,,,,1.033,,,,,,,,,,,,,,,,,,,,,,6102f2edaead0032c5054812,61036d44549abd4fa911d14e,2021-07-29_23h09.52.598,Simcolourproject_2stim_asymm_v5,2020.2.10,MacIntel,60,61025ae37ef11b136ea224fe,,,,,,,,,2291,-83,31,1,0,0,response7disk,,1,-6,8,1,0,0,rectangle,-44,100,1,0,0,-10,4,1,0,0,0,146,146,50,1,,response7disk_3,TRUE,0,0,"[78,256,77,295,75,127,206,147,320,206,265,286,291,86,80,125,290,276,176,319]",2.015,rectangle
,,,,,,,,,,,,,FF,,,,,,,,0.718,,,,,,,,,,,,,,,,,,,,,,6102f2edaead0032c5054812,61036d44549abd4fa911d14e,2021-07-29_23h09.52.598,Simcolourproject_2stim_asymm_v5,2020.2.10,MacIntel,60,61025ae37ef11b136ea224fe,,,,,,,,,845,26,88,1,0,0,response1disk,,7,-4,7,1,0,0,rectangle,-4,7,1,0,0,-4,7,1,0,0,0,147,147,149,1,,,,,,,,
,,,,,,,,,,,,,FF,,,,,,,,0.369,,,,,,,,,,,,,,,,,,,,,,6102f2edaead0032c5054812,61036d44549abd4fa911d14e,2021-07-29_23h09.52.598,Simcolourproject_2stim_asymm_v5,2020.2.10,MacIntel,60,61025ae37ef11b136ea224fe,,,,,,,,,660,27,50,1,0,0,response1disk,,7,4,3,1,0,0,rectangle,4,3,1,0,0,4,3,1,0,0,0,148,148,152,1,,,,,,,,
,,,,,,,,,,,,,FF,,,,,,,,0.433,,,,,,,,,,,,,,,,,,,,,,6102f2edaead0032c5054812,61036d44549abd4fa911d14e,2021-07-29_23h09.52.598,Simcolourproject_2stim_asymm_v5,2020.2.10,MacIntel,60,61025ae37ef11b136ea224fe,,,,,,,,,701,33,46,1,0,0,response1disk,,7,18,2,1,0,0,rectangle,18,2,1,0,0,18,2,1,0,0,0,149,149,77,1,,,,,,,,
,,,,,,,,,,,,,FF,,,,,,,,0.5,,,,,,,,,,,,,,,,,,,,,,6102f2edaead0032c5054812,61036d44549abd4fa911d14e,2021-07-29_23h09.52.598,Simcolourproject_2stim_asymm_v5,2020.2.10,MacIntel,60,61025ae37ef11b136ea224fe,,,,,,,,,2566,39,59,1,0,0,response1disk,,7,19,-2,1,0,0,rectangle,19,-2,1,0,0,19,-2,1,0,0,0,150,150,85,1,,,,,,,,
,,,,,,,,,,,,,FF,,,,,,,,0.65,,,,,,,,,,,,,,,,,,,,,,6102f2edaead0032c5054812,61036d44549abd4fa911d14e,2021-07-29_23h09.52.598,Simcolourproject_2stim_asymm_v5,2020.2.10,MacIntel,60,61025ae37ef11b136ea224fe,,,,,,,,,1204,68,26,1,0,0,response1disk,,6,-7,6,1,0,0,rectangle,-7,6,1,0,0,-7,6,1,0,0,0,151,151,49,1,,,,,,,,
,,,,,,,,,,,,,FF,,,,,,,,0.8,,,,,,,,,,,,,,,,,,,,,,6102f2edaead0032c5054812,61036d44549abd4fa911d14e,2021-07-29_23h09.52.598,Simcolourproject_2stim_asymm_v5,2020.2.10,MacIntel,60,61025ae37ef11b136ea224fe,,,,,,,,,1812,48,23,1,0,0,response1disk,,6,-13,5,1,0,0,rectangle,-13,5,1,0,0,-13,5,1,0,0,0,152,152,63,1,,,,,,,,
,,,,,,,,,,,,,FF,,,,,,,,0.55,,,,,,,,,,,,,,,,,,,,,,6102f2edaead0032c5054812,61036d44549abd4fa911d14e,2021-07-29_23h09.52.598,Simcolourproject_2stim_asymm_v5,2020.2.10,MacIntel,60,61025ae37ef11b136ea224fe,,,,,,,,,3605,16,74,1,0,0,response1disk,,7,-5,-2,1,0,0,rectangle,-5,-2,1,0,0,-5,-2,1,0,0,0,153,153,33,1,,,,,,,,
,,,,,,,,,,,,,FF,,,,,,,,0.434,,,,,,,,,,,,,,,,,,,,,,6102f2edaead0032c5054812,61036d44549abd4fa911d14e,2021-07-29_23h09.52.598,Simcolourproject_2stim_asymm_v5,2020.2.10,MacIntel,60,61025ae37ef11b136ea224fe,,,,,,,,,1115,34,59,1,0,0,response1disk,,7,-4,-14,1,0,0,rectangle,-4,-14,1,0,0,-4,-14,1,0,0,0,154,154,14,1,,,,,,,,
,,,,,,,,,,,,,FF,,,,,,,,1.118,,,,,,,,,,,,,,,,,,,,,,6102f2edaead0032c5054812,61036d44549abd4fa911d14e,2021-07-29_23h09.52.598,Simcolourproject_2stim_asymm_v5,2020.2.10,MacIntel,60,61025ae37ef11b136ea224fe,,,,,,,,,1749,-76,-37,1,0,0,response5disk,,2,-6,-13,1,0,0,rectangle,-6,-13,1,0,0,-6,-13,1,0,0,0,155,155,37,1,,,,,,,,
,,,,,,,,,,,,,FF,,,,,,,,0.851,,,,,,,,,,,,,,,,,,,,,,6102f2edaead0032c5054812,61036d44549abd4fa911d14e,2021-07-29_23h09.52.598,Simcolourproject_2stim_asymm_v5,2020.2.10,MacIntel,60,61025ae37ef11b136ea224fe,,,,,,,,,3661,-35,-76,1,0,0,response5disk,,3,11,4,1,0,0,rectangle,11,4,1,0,0,11,4,1,0,0,0,156,156,12,1,,,,,,,,
,,,,,,,,,,,,,FF,,,,,,,,0.516,,,,,,,,,,,,,,,,,,,,,,6102f2edaead0032c5054812,61036d44549abd4fa911d14e,2021-07-29_23h09.52.598,Simcolourproject_2stim_asymm_v5,2020.2.10,MacIntel,60,61025ae37ef11b136ea224fe,,,,,,,,,2508,34,41,1,0,0,response1disk,,7,7,0,1,0,0,rectangle,7,0,1,0,0,7,0,1,0,0,0,157,157,26,1,,,,,,,,
,,,,,,,,,,,,,FF,,,,,,,,0.467,,,,,,,,,,,,,,,,,,,,,,6102f2edaead0032c5054812,61036d44549abd4fa911d14e,2021-07-29_23h09.52.598,Simcolourproject_2stim_asymm_v5,2020.2.10,MacIntel,60,61025ae37ef11b136ea224fe,,,,,,,,,679,32,53,1,0,0,response1disk,,7,11,4,1,0,0,rectangle,11,4,1,0,0,11,4,1,0,0,0,158,158,70,1,,,,,,,,
,,,,,,,,,,,,,FF,,,,,,,,0.684,,,,,,,,,,,,,,,,,,,,,,6102f2edaead0032c5054812,61036d44549abd4fa911d14e,2021-07-29_23h09.52.598,Simcolourproject_2stim_asymm_v5,2020.2.10,MacIntel,60,61025ae37ef11b136ea224fe,,,,,,,,,4317,63,28,1,0,0,response1disk,,6,-11,7,1,0,0,rectangle,-11,7,1,0,0,-11,7,1,0,0,0,159,159,66,1,,,,,,,,
,,,,,,,,,,,,,FF,,,,,,,,0.517,,,,,,,,,,,,,,,,,,,,,,6102f2edaead0032c5054812,61036d44549abd4fa911d14e,2021-07-29_23h09.52.598,Simcolourproject_2stim_asymm_v5,2020.2.10,MacIntel,60,61025ae37ef11b136ea224fe,,,,,,,,,1066,36,60,1,0,0,response1disk,,7,2,-7,1,0,0,rectangle,2,-7,1,0,0,2,-7,1,0,0,1,0,160,72,1,,,,,,,,
,,,,,,,,,,,,,FF,,,,,,,,0.801,,,,,,,,,,,,,,,,,,,,,,6102f2edaead0032c5054812,61036d44549abd4fa911d14e,2021-07-29_23h09.52.598,Simcolourproject_2stim_asymm_v5,2020.2.10,MacIntel,60,61025ae37ef11b136ea224fe,,,,,,,,,3906,-70,16,1,0,0,response7disk,,1,-10,-7,1,0,0,rectangle,-10,-7,1,0,0,-10,-7,1,0,0,1,1,161,58,1,,,,,,,,
,,,,,,,,,,,,,FF,,,,,,,,2.999,,,,,,,,,,,,,,,,,,,,,,6102f2edaead0032c5054812,61036d44549abd4fa911d14e,2021-07-29_23h09.52.598,Simcolourproject_2stim_asymm_v5,2020.2.10,MacIntel,60,61025ae37ef11b136ea224fe,,,,,,,,,672,27,50,1,0,0,response1disk,,7,-8,1,1,0,0,rectangle,-8,1,1,0,0,-8,1,1,0,0,1,2,162,126,1,,,,,,,,
,,,,,,,,,,,,,FF,,,,,,,,0.466,,,,,,,,,,,,,,,,,,,,,,6102f2edaead0032c5054812,61036d44549abd4fa911d14e,2021-07-29_23h09.52.598,Simcolourproject_2stim_asymm_v5,2020.2.10,MacIntel,60,61025ae37ef11b136ea224fe,,,,,,,,,3224,35,70,1,0,0,response1disk,,7,-1,5,1,0,0,rectangle,-1,5,1,0,0,-1,5,1,0,0,1,3,163,69,1,,,,,,,,
,,,,,,,,,,,,,FF,,,,,,,,0.883,,,,,,,,,,,,,,,,,,,,,,6102f2edaead0032c5054812,61036d44549abd4fa911d14e,2021-07-29_23h09.52.598,Simcolourproject_2stim_asymm_v5,2020.2.10,MacIntel,60,61025ae37ef11b136ea224fe,,,,,,,,,4294,-57,-23,1,0,0,response5disk,,2,9,-6,1,0,0,rectangle,9,-6,1,0,0,9,-6,1,0,0,1,4,164,46,1,,,,,,,,
,,,,,,,,,,,,,FF,,,,,,,,0.916,,,,,,,,,,,,,,,,,,,,,,6102f2edaead0032c5054812,61036d44549abd4fa911d14e,2021-07-29_23h09.52.598,Simcolourproject_2stim_asymm_v5,2020.2.10,MacIntel,60,61025ae37ef11b136ea224fe,,,,,,,,,4201,-52,-34,1,0,0,response5disk,,2,1,-4,1,0,0,rectangle,1,-4,1,0,0,1,-4,1,0,0,1,5,165,22,1,,,,,,,,
,,,,,,,,,,,,,FF,,,,,,,,0.883,,,,,,,,,,,,,,,,,,,,,,6102f2edaead0032c5054812,61036d44549abd4fa911d14e,2021-07-29_23h09.52.598,Simcolourproject_2stim_asymm_v5,2020.2.10,MacIntel,60,61025ae37ef11b136ea224fe,,,,,,,,,25,28,69,1,0,0,response1disk,,7,7,3,1,0,0,rectangle,7,3,1,0,0,7,3,1,0,0,1,6,166,139,1,,,,,,,,
,,,,,,,,,,,,,FF,,,,,,,,0.55,,,,,,,,,,,,,,,,,,,,,,6102f2edaead0032c5054812,61036d44549abd4fa911d14e,2021-07-29_23h09.52.598,Simcolourproject_2stim_asymm_v5,2020.2.10,MacIntel,60,61025ae37ef11b136ea224fe,,,,,,,,,2114,39,68,1,0,0,response1disk,,7,13,-5,1,0,0,rectangle,13,-5,1,0,0,13,-5,1,0,0,1,7,167,119,1,,,,,,,,
,,,,,,,,,,,,,FF,,,,,,,,1.083,,,,,,,,,,,,,,,,,,,,,,6102f2edaead0032c5054812,61036d44549abd4fa911d14e,2021-07-29_23h09.52.598,Simcolourproject_2stim_asymm_v5,2020.2.10,MacIntel,60,61025ae37ef11b136ea224fe,,,,,,,,,1884,42,55,1,0,0,response1disk,,7,14,4,1,0,0,rectangle,14,4,1,0,0,14,4,1,0,0,1,8,168,127,1,,,,,,,,
,,,,,,,,,,,,,FF,,,,,,,,1.765,,,,,,,,,,,,,,,,,,,,,,6102f2edaead0032c5054812,61036d44549abd4fa911d14e,2021-07-29_23h09.52.598,Simcolourproject_2stim_asymm_v5,2020.2.10,MacIntel,60,61025ae37ef11b136ea224fe,,,,,,,,,4107,-40,-67,1,0,0,response5disk,,3,2,-1,1,0,0,rectangle,2,-1,1,0,0,2,-1,1,0,0,1,9,169,103,1,,,,,,,,
,,,,,,,,,,,,,FF,,,,,,,,0.666,,,,,,,,,,,,,,,,,,,,,,6102f2edaead0032c5054812,61036d44549abd4fa911d14e,2021-07-29_23h09.52.598,Simcolourproject_2stim_asymm_v5,2020.2.10,MacIntel,60,61025ae37ef11b136ea224fe,,,,,,,,,3681,23,52,1,0,0,response1disk,,7,1,-6,1,0,0,rectangle,1,-6,1,0,0,1,-6,1,0,0,1,10,170,9,1,,,,,,,,
,,,,,,,,,,,,,FF,,,,,,,,1.068,,,,,,,,,,,,,,,,,,,,,,6102f2edaead0032c5054812,61036d44549abd4fa911d14e,2021-07-29_23h09.52.598,Simcolourproject_2stim_asymm_v5,2020.2.10,MacIntel,60,61025ae37ef11b136ea224fe,,,,,,,,,3562,34,44,1,0,0,response1disk,,7,13,7,1,0,0,rectangle,13,7,1,0,0,13,7,1,0,0,1,11,171,138,1,,,,,,,,
,,,,,,,,,,,,,FF,,,,,,,,1.235,,,,,,,,,,,,,,,,,,,,,,6102f2edaead0032c5054812,61036d44549abd4fa911d14e,2021-07-29_23h09.52.598,Simcolourproject_2stim_asymm_v5,2020.2.10,MacIntel,60,61025ae37ef11b136ea224fe,,,,,,,,,1823,-66,-34,1,0,0,response5disk,,2,-13,-16,1,0,0,rectangle,-13,-16,1,0,0,-13,-16,1,0,0,1,12,172,114,1,,,,,,,,
,,,,,,,,,,,,,FF,,,,,,,,0.65,,,,,,,,,,,,,,,,,,,,,,6102f2edaead0032c5054812,61036d44549abd4fa911d14e,2021-07-29_23h09.52.598,Simcolourproject_2stim_asymm_v5,2020.2.10,MacIntel,60,61025ae37ef11b136ea224fe,,,,,,,,,67,33,67,1,0,0,response1disk,,7,5,8,1,0,0,rectangle,5,8,1,0,0,5,8,1,0,0,1,13,173,68,1,,,,,,,,
,,,,,,,,,,,,,FF,,,,,,,,0.334,,,,,,,,,,,,,,,,,,,,,,6102f2edaead0032c5054812,61036d44549abd4fa911d14e,2021-07-29_23h09.52.598,Simcolourproject_2stim_asymm_v5,2020.2.10,MacIntel,60,61025ae37ef11b136ea224fe,,,,,,,,,2403,34,58,1,0,0,response1disk,,7,7,-4,1,0,0,rectangle,7,-4,1,0,0,7,-4,1,0,0,1,14,174,67,1,,,,,,,,
,,,,,,,,,,,,,FF,,,,,,,,0.301,,,,,,,,,,,,,,,,,,,,,,6102f2edaead0032c5054812,61036d44549abd4fa911d14e,2021-07-29_23h09.52.598,Simcolourproject_2stim_asymm_v5,2020.2.10,MacIntel,60,61025ae37ef11b136ea224fe,,,,,,,,,1914,30,46,1,0,0,response1disk,,7,8,-12,1,0,0,rectangle,-39,81,1,0,0,-9,-1,1,0,0,1,15,175,80,1,,response7disk_3,TRUE,0,0,"[78,256,77,295,75,127,206,147,320,206,265,286,291,86,80,125,290,276,176,319]",2.366,rectangle
,,,,,,,,,,,,,FF,,,,,,,,1.883,,,,,,,,,,,,,,,,,,,,,,6102f2edaead0032c5054812,61036d44549abd4fa911d14e,2021-07-29_23h09.52.598,Simcolourproject_2stim_asymm_v5,2020.2.10,MacIntel,60,61025ae37ef11b136ea224fe,,,,,,,,,3512,-75,-28,1,0,0,response5disk,,2,-16,-11,1,0,0,rectangle,-16,-11,1,0,0,-16,-11,1,0,0,1,16,176,40,1,,,,,,,,
,,,,,,,,,,,,,FF,,,,,,,,0.967,,,,,,,,,,,,,,,,,,,,,,6102f2edaead0032c5054812,61036d44549abd4fa911d14e,2021-07-29_23h09.52.598,Simcolourproject_2stim_asymm_v5,2020.2.10,MacIntel,60,61025ae37ef11b136ea224fe,,,,,,,,,1365,72,28,1,0,0,response1disk,,6,-3,6,1,0,0,rectangle,-3,6,1,0,0,-3,6,1,0,0,1,17,177,8,1,,,,,,,,
,,,,,,,,,,,,,FF,,,,,,,,0.5,,,,,,,,,,,,,,,,,,,,,,6102f2edaead0032c5054812,61036d44549abd4fa911d14e,2021-07-29_23h09.52.598,Simcolourproject_2stim_asymm_v5,2020.2.10,MacIntel,60,61025ae37ef11b136ea224fe,,,,,,,,,3314,38,101,1,0,0,response1disk,,7,-4,7,1,0,0,rectangle,-4,7,1,0,0,-4,7,1,0,0,1,18,178,64,1,,,,,,,,
,,,,,,,,,,,,,FF,,,,,,,,1.367,,,,,,,,,,,,,,,,,,,,,,6102f2edaead0032c5054812,61036d44549abd4fa911d14e,2021-07-29_23h09.52.598,Simcolourproject_2stim_asymm_v5,2020.2.10,MacIntel,60,61025ae37ef11b136ea224fe,,,,,,,,,3147,-51,-83,1,0,0,response5disk,,3,-10,-12,1,0,0,rectangle,-10,-12,1,0,0,-10,-12,1,0,0,1,19,179,102,1,,,,,,,,
,,,,,,,,,,,,,FF,,,,,,,,0.499,,,,,,,,,,,,,,,,,,,,,,6102f2edaead0032c5054812,61036d44549abd4fa911d14e,2021-07-29_23h09.52.598,Simcolourproject_2stim_asymm_v5,2020.2.10,MacIntel,60,61025ae37ef11b136ea224fe,,,,,,,,,2707,35,72,1,0,0,response1disk,,7,0,14,1,0,0,rectangle,0,14,1,0,0,0,14,1,0,0,1,20,180,153,1,,,,,,,,
,,,,,,,,,,,,,FF,,,,,,,,0.3,,,,,,,,,,,,,,,,,,,,,,6102f2edaead0032c5054812,61036d44549abd4fa911d14e,2021-07-29_23h09.52.598,Simcolourproject_2stim_asymm_v5,2020.2.10,MacIntel,60,61025ae37ef11b136ea224fe,,,,,,,,,2466,35,57,1,0,0,response1disk,,7,12,2,1,0,0,rectangle,12,2,1,0,0,12,2,1,0,0,1,21,181,57,1,,,,,,,,
,,,,,,,,,,,,,FF,,,,,,,,0.367,,,,,,,,,,,,,,,,,,,,,,6102f2edaead0032c5054812,61036d44549abd4fa911d14e,2021-07-29_23h09.52.598,Simcolourproject_2stim_asymm_v5,2020.2.10,MacIntel,60,61025ae37ef11b136ea224fe,,,,,,,,,2075,39,59,1,0,0,response1disk,,7,7,-4,1,0,0,rectangle,7,-4,1,0,0,7,-4,1,0,0,1,22,182,76,1,,,,,,,,
,,,,,,,,,,,,,FF,,,,,,,,0.349,,,,,,,,,,,,,,,,,,,,,,6102f2edaead0032c5054812,61036d44549abd4fa911d14e,2021-07-29_23h09.52.598,Simcolourproject_2stim_asymm_v5,2020.2.10,MacIntel,60,61025ae37ef11b136ea224fe,,,,,,,,,1425,39,58,1,0,0,response1disk,,7,7,-1,1,0,0,rectangle,7,-1,1,0,0,7,-1,1,0,0,1,23,183,140,1,,,,,,,,
,,,,,,,,,,,,,FF,,,,,,,,0.384,,,,,,,,,,,,,,,,,,,,,,6102f2edaead0032c5054812,61036d44549abd4fa911d14e,2021-07-29_23h09.52.598,Simcolourproject_2stim_asymm_v5,2020.2.10,MacIntel,60,61025ae37ef11b136ea224fe,,,,,,,,,2705,37,61,1,0,0,response1disk,,7,5,-5,1,0,0,rectangle,5,-5,1,0,0,5,-5,1,0,0,1,24,184,144,1,,,,,,,,
,,,,,,,,,,,,,FF,,,,,,,,1.9,,,,,,,,,,,,,,,,,,,,,,6102f2edaead0032c5054812,61036d44549abd4fa911d14e,2021-07-29_23h09.52.598,Simcolourproject_2stim_asymm_v5,2020.2.10,MacIntel,60,61025ae37ef11b136ea224fe,,,,,,,,,2495,88,32,1,0,0,response1disk,,6,-1,13,1,0,0,rectangle,-1,13,1,0,0,-1,13,1,0,0,1,25,185,36,1,,,,,,,,
,,,,,,,,,,,,,FF,,,,,,,,0.5,,,,,,,,,,,,,,,,,,,,,,6102f2edaead0032c5054812,61036d44549abd4fa911d14e,2021-07-29_23h09.52.598,Simcolourproject_2stim_asymm_v5,2020.2.10,MacIntel,60,61025ae37ef11b136ea224fe,,,,,,,,,1562,26,64,1,0,0,response1disk,,7,2,5,1,0,0,rectangle,2,5,1,0,0,2,5,1,0,0,1,26,186,121,1,,,,,,,,
,,,,,,,,,,,,,FF,,,,,,,,1.317,,,,,,,,,,,,,,,,,,,,,,6102f2edaead0032c5054812,61036d44549abd4fa911d14e,2021-07-29_23h09.52.598,Simcolourproject_2stim_asymm_v5,2020.2.10,MacIntel,60,61025ae37ef11b136ea224fe,,,,,,,,,1971,39,-69,1,0,0,response3disk,,4,14,-13,1,0,0,rectangle,14,-13,1,0,0,14,-13,1,0,0,1,27,187,116,1,,,,,,,,
,,,,,,,,,,,,,FF,,,,,,,,1.366,,,,,,,,,,,,,,,,,,,,,,6102f2edaead0032c5054812,61036d44549abd4fa911d14e,2021-07-29_23h09.52.598,Simcolourproject_2stim_asymm_v5,2020.2.10,MacIntel,60,61025ae37ef11b136ea224fe,,,,,,,,,3511,17,-90,1,0,0,response3disk,,4,17,4,1,0,0,rectangle,17,4,1,0,0,17,4,1,0,0,1,28,188,37,1,,,,,,,,
,,,,,,,,,,,,,FF,,,,,,,,1.118,,,,,,,,,,,,,,,,,,,,,,6102f2edaead0032c5054812,61036d44549abd4fa911d14e,2021-07-29_23h09.52.598,Simcolourproject_2stim_asymm_v5,2020.2.10,MacIntel,60,61025ae37ef11b136ea224fe,,,,,,,,,813,32,-61,1,0,0,response3disk,,4,16,-10,1,0,0,rectangle,16,-10,1,0,0,16,-10,1,0,0,1,29,189,27,1,,,,,,,,
,,,,,,,,,,,,,FF,,,,,,,,0.951,,,,,,,,,,,,,,,,,,,,,,6102f2edaead0032c5054812,61036d44549abd4fa911d14e,2021-07-29_23h09.52.598,Simcolourproject_2stim_asymm_v5,2020.2.10,MacIntel,60,61025ae37ef11b136ea224fe,,,,,,,,,4166,-67,-34,1,0,0,response5disk,,2,-8,1,1,0,0,rectangle,-8,1,1,0,0,-8,1,1,0,0,1,30,190,75,1,,,,,,,,
,,,,,,,,,,,,,FF,,,,,,,,1.251,,,,,,,,,,,,,,,,,,,,,,6102f2edaead0032c5054812,61036d44549abd4fa911d14e,2021-07-29_23h09.52.598,Simcolourproject_2stim_asymm_v5,2020.2.10,MacIntel,60,61025ae37ef11b136ea224fe,,,,,,,,,2502,75,-30,1,0,0,response3disk,,5,-13,-13,1,0,0,rectangle,-13,-13,1,0,0,-13,-13,1,0,0,1,31,191,35,1,,,,,,,,
,,,,,,,,,,,,,FF,,,,,,,,1.1,,,,,,,,,,,,,,,,,,,,,,6102f2edaead0032c5054812,61036d44549abd4fa911d14e,2021-07-29_23h09.52.598,Simcolourproject_2stim_asymm_v5,2020.2.10,MacIntel,60,61025ae37ef11b136ea224fe,,,,,,,,,4141,-86,-41,1,0,0,response5disk,,2,-16,-8,1,0,0,rectangle,-16,-8,1,0,0,-16,-8,1,0,0,1,32,192,136,1,,,,,,,,
,,,,,,,,,,,,,FF,,,,,,,,0.802,,,,,,,,,,,,,,,,,,,,,,6102f2edaead0032c5054812,61036d44549abd4fa911d14e,2021-07-29_23h09.52.598,Simcolourproject_2stim_asymm_v5,2020.2.10,MacIntel,60,61025ae37ef11b136ea224fe,,,,,,,,,2469,25,58,1,0,0,response1disk,,7,-5,-11,1,0,0,rectangle,-5,-11,1,0,0,-5,-11,1,0,0,1,33,193,60,1,,,,,,,,
,,,,,,,,,,,,,FF,,,,,,,,1.45,,,,,,,,,,,,,,,,,,,,,,6102f2edaead0032c5054812,61036d44549abd4fa911d14e,2021-07-29_23h09.52.598,Simcolourproject_2stim_asymm_v5,2020.2.10,MacIntel,60,61025ae37ef11b136ea224fe,,,,,,,,,3208,81,33,1,0,0,response1disk,,6,8,8,1,0,0,rectangle,8,8,1,0,0,8,8,1,0,0,1,34,194,159,1,,,,,,,,
,,,,,,,,,,,,,FF,,,,,,,,0.768,,,,,,,,,,,,,,,,,,,,,,6102f2edaead0032c5054812,61036d44549abd4fa911d14e,2021-07-29_23h09.52.598,Simcolourproject_2stim_asymm_v5,2020.2.10,MacIntel,60,61025ae37ef11b136ea224fe,,,,,,,,,419,21,45,1,0,0,response1disk,,7,5,3,1,0,0,rectangle,5,3,1,0,0,5,3,1,0,0,1,35,195,53,1,,,,,,,,
,,,,,,,,,,,,,FF,,,,,,,,0.851,,,,,,,,,,,,,,,,,,,,,,6102f2edaead0032c5054812,61036d44549abd4fa911d14e,2021-07-29_23h09.52.598,Simcolourproject_2stim_asymm_v5,2020.2.10,MacIntel,60,61025ae37ef11b136ea224fe,,,,,,,,,979,83,26,1,0,0,response1disk,,6,-12,-4,1,0,0,rectangle,-12,-4,1,0,0,-12,-4,1,0,0,1,36,196,48,1,,,,,,,,
,,,,,,,,,,,,,FF,,,,,,,,1.015,,,,,,,,,,,,,,,,,,,,,,6102f2edaead0032c5054812,61036d44549abd4fa911d14e,2021-07-29_23h09.52.598,Simcolourproject_2stim_asymm_v5,2020.2.10,MacIntel,60,61025ae37ef11b136ea224fe,,,,,,,,,3382,-73,-31,1,0,0,response5disk,,2,-19,-14,1,0,0,rectangle,-19,-14,1,0,0,-19,-14,1,0,0,1,37,197,24,1,,,,,,,,
,,,,,,,,,,,,,FF,,,,,,,,0.984,,,,,,,,,,,,,,,,,,,,,,6102f2edaead0032c5054812,61036d44549abd4fa911d14e,2021-07-29_23h09.52.598,Simcolourproject_2stim_asymm_v5,2020.2.10,MacIntel,60,61025ae37ef11b136ea224fe,,,,,,,,,2379,-31,-79,1,0,0,response5disk,,3,-7,-14,1,0,0,rectangle,-7,-14,1,0,0,-7,-14,1,0,0,1,38,198,70,1,,,,,,,,
,,,,,,,,,,,,,FF,,,,,,,,0.516,,,,,,,,,,,,,,,,,,,,,,6102f2edaead0032c5054812,61036d44549abd4fa911d14e,2021-07-29_23h09.52.598,Simcolourproject_2stim_asymm_v5,2020.2.10,MacIntel,60,61025ae37ef11b136ea224fe,,,,,,,,,3956,33,60,1,0,0,response1disk,,7,2,6,1,0,0,rectangle,2,6,1,0,0,2,6,1,0,0,1,39,199,1,1,,,,,,,,
,,,,,,,,,,,,,FF,,,,,,,,1.05,,,,,,,,,,,,,,,,,,,,,,6102f2edaead0032c5054812,61036d44549abd4fa911d14e,2021-07-29_23h09.52.598,Simcolourproject_2stim_asymm_v5,2020.2.10,MacIntel,60,61025ae37ef11b136ea224fe,,,,,,,,,2729,34,-81,1,0,0,response3disk,,4,27,-12,1,0,0,rectangle,27,-12,1,0,0,27,-12,1,0,0,1,40,200,26,1,,,,,,,,
,,,,,,,,,,,,,FF,,,,,,,,1.101,,,,,,,,,,,,,,,,,,,,,,6102f2edaead0032c5054812,61036d44549abd4fa911d14e,2021-07-29_23h09.52.598,Simcolourproject_2stim_asymm_v5,2020.2.10,MacIntel,60,61025ae37ef11b136ea224fe,,,,,,,,,2418,-33,79,1,0,0,response7disk,,0,3,10,1,0,0,rectangle,3,10,1,0,0,3,10,1,0,0,1,41,201,150,1,,,,,,,,
,,,,,,,,,,,,,FF,,,,,,,,3.269,,,,,,,,,,,,,,,,,,,,,,6102f2edaead0032c5054812,61036d44549abd4fa911d14e,2021-07-29_23h09.52.598,Simcolourproject_2stim_asymm_v5,2020.2.10,MacIntel,60,61025ae37ef11b136ea224fe,,,,,,,,,2339,99,-24,1,0,0,response3disk,,5,14,5,1,0,0,rectangle,14,5,1,0,0,14,5,1,0,0,1,42,202,41,1,,,,,,,,
,,,,,,,,,,,,,FF,,,,,,,,0.617,,,,,,,,,,,,,,,,,,,,,,6102f2edaead0032c5054812,61036d44549abd4fa911d14e,2021-07-29_23h09.52.598,Simcolourproject_2stim_asymm_v5,2020.2.10,MacIntel,60,61025ae37ef11b136ea224fe,,,,,,,,,3028,41,76,1,0,0,response1disk,,7,7,8,1,0,0,rectangle,7,8,1,0,0,7,8,1,0,0,1,43,203,78,1,,,,,,,,
,,,,,,,,,,,,,FF,,,,,,,,1.817,,,,,,,,,,,,,,,,,,,,,,6102f2edaead0032c5054812,61036d44549abd4fa911d14e,2021-07-29_23h09.52.598,Simcolourproject_2stim_asymm_v5,2020.2.10,MacIntel,60,61025ae37ef11b136ea224fe,,,,,,,,,4293,-105,-49,1,0,0,response5disk,,2,-14,-14,1,0,0,rectangle,-14,-14,1,0,0,-14,-14,1,0,0,1,44,204,14,1,,,,,,,,
,,,,,,,,,,,,,FF,,,,,,,,1.6,,,,,,,,,,,,,,,,,,,,,,6102f2edaead0032c5054812,61036d44549abd4fa911d14e,2021-07-29_23h09.52.598,Simcolourproject_2stim_asymm_v5,2020.2.10,MacIntel,60,61025ae37ef11b136ea224fe,,,,,,,,,2959,35,62,1,0,0,response1disk,,7,8,4,1,0,0,rectangle,-73,42,1,0,0,-7,11,1,0,0,1,45,205,95,1,,response7disk_3,TRUE,1,1,"[78,256,77,295,75,127,206,147,320,206,265,286,291,86,80,125,290,276,176,319]",1.334,rectangle
,,,,,,,,,,,,,FF,,,,,,,,0.768,,,,,,,,,,,,,,,,,,,,,,6102f2edaead0032c5054812,61036d44549abd4fa911d14e,2021-07-29_23h09.52.598,Simcolourproject_2stim_asymm_v5,2020.2.10,MacIntel,60,61025ae37ef11b136ea224fe,,,,,,,,,1331,45,70,1,0,0,response1disk,,7,-7,-15,1,0,0,rectangle,-7,-15,1,0,0,-7,-15,1,0,0,1,46,206,21,1,,,,,,,,
,,,,,,,,,,,,,FF,,,,,,,,0.751,,,,,,,,,,,,,,,,,,,,,,6102f2edaead0032c5054812,61036d44549abd4fa911d14e,2021-07-29_23h09.52.598,Simcolourproject_2stim_asymm_v5,2020.2.10,MacIntel,60,61025ae37ef11b136ea224fe,,,,,,,,,121,63,43,1,0,0,response1disk,,6,-12,-2,1,0,0,rectangle,-12,-2,1,0,0,-12,-2,1,0,0,1,47,207,112,1,,,,,,,,
,,,,,,,,,,,,,FF,,,,,,,,0.784,,,,,,,,,,,,,,,,,,,,,,6102f2edaead0032c5054812,61036d44549abd4fa911d14e,2021-07-29_23h09.52.598,Simcolourproject_2stim_asymm_v5,2020.2.10,MacIntel,60,61025ae37ef11b136ea224fe,,,,,,,,,837,36,59,1,0,0,response1disk,,7,10,6,1,0,0,rectangle,10,6,1,0,0,10,6,1,0,0,1,48,208,132,1,,,,,,,,
,,,,,,,,,,,,,FF,,,,,,,,0.351,,,,,,,,,,,,,,,,,,,,,,6102f2edaead0032c5054812,61036d44549abd4fa911d14e,2021-07-29_23h09.52.598,Simcolourproject_2stim_asymm_v5,2020.2.10,MacIntel,60,61025ae37ef11b136ea224fe,,,,,,,,,1954,37,56,1,0,0,response1disk,,7,5,-2,1,0,0,rectangle,5,-2,1,0,0,5,-2,1,0,0,1,49,209,145,1,,,,,,,,
,,,,,,,,,,,,,FF,,,,,,,,1.15,,,,,,,,,,,,,,,,,,,,,,6102f2edaead0032c5054812,61036d44549abd4fa911d14e,2021-07-29_23h09.52.598,Simcolourproject_2stim_asymm_v5,2020.2.10,MacIntel,60,61025ae37ef11b136ea224fe,,,,,,,,,1959,38,-69,1,0,0,response3disk,,4,17,2,1,0,0,rectangle,17,2,1,0,0,17,2,1,0,0,1,50,210,93,1,,,,,,,,
,,,,,,,,,,,,,FF,,,,,,,,0.499,,,,,,,,,,,,,,,,,,,,,,6102f2edaead0032c5054812,61036d44549abd4fa911d14e,2021-07-29_23h09.52.598,Simcolourproject_2stim_asymm_v5,2020.2.10,MacIntel,60,61025ae37ef11b136ea224fe,,,,,,,,,1276,28,87,1,0,0,response1disk,,7,-1,-1,1,0,0,rectangle,-1,-1,1,0,0,-1,-1,1,0,0,1,51,211,16,1,,,,,,,,
,,,,,,,,,,,,,FF,,,,,,,,1.134,,,,,,,,,,,,,,,,,,,,,,6102f2edaead0032c5054812,61036d44549abd4fa911d14e,2021-07-29_23h09.52.598,Simcolourproject_2stim_asymm_v5,2020.2.10,MacIntel,60,61025ae37ef11b136ea224fe,,,,,,,,,1608,-39,-73,1,0,0,response5disk,,3,-12,-3,1,0,0,rectangle,-12,-3,1,0,0,-12,-3,1,0,0,1,52,212,118,1,,,,,,,,
,,,,,,,,,,,,,FF,,,,,,,,0.483,,,,,,,,,,,,,,,,,,,,,,6102f2edaead0032c5054812,61036d44549abd4fa911d14e,2021-07-29_23h09.52.598,Simcolourproject_2stim_asymm_v5,2020.2.10,MacIntel,60,61025ae37ef11b136ea224fe,,,,,,,,,1991,25,71,1,0,0,response1disk,,7,-5,-12,1,0,0,rectangle,-5,-12,1,0,0,-5,-12,1,0,0,1,53,213,6,1,,,,,,,,
,,,,,,,,,,,,,FF,,,,,,,,0.332,,,,,,,,,,,,,,,,,,,,,,6102f2edaead0032c5054812,61036d44549abd4fa911d14e,2021-07-29_23h09.52.598,Simcolourproject_2stim_asymm_v5,2020.2.10,MacIntel,60,61025ae37ef11b136ea224fe,,,,,,,,,3525,41,50,1,0,0,response1disk,,7,7,3,1,0,0,rectangle,7,3,1,0,0,7,3,1,0,0,1,54,214,23,1,,,,,,,,
,,,,,,,,,,,,,FF,,,,,,,,1.734,,,,,,,,,,,,,,,,,,,,,,6102f2edaead0032c5054812,61036d44549abd4fa911d14e,2021-07-29_23h09.52.598,Simcolourproject_2stim_asymm_v5,2020.2.10,MacIntel,60,61025ae37ef11b136ea224fe,,,,,,,,,721,-28,-59,1,0,0,response5disk,,3,0,1,1,0,0,rectangle,0,1,1,0,0,0,1,1,0,0,1,55,215,39,1,,,,,,,,
,,,,,,,,,,,,,FF,,,,,,,,0.7,,,,,,,,,,,,,,,,,,,,,,6102f2edaead0032c5054812,61036d44549abd4fa911d14e,2021-07-29_23h09.52.598,Simcolourproject_2stim_asymm_v5,2020.2.10,MacIntel,60,61025ae37ef11b136ea224fe,,,,,,,,,4052,-40,-60,1,0,0,response5disk,,3,-10,-7,1,0,0,rectangle,-10,-7,1,0,0,-10,-7,1,0,0,1,56,216,117,1,,,,,,,,
,,,,,,,,,,,,,FF,,,,,,,,1.083,,,,,,,,,,,,,,,,,,,,,,6102f2edaead0032c5054812,61036d44549abd4fa911d14e,2021-07-29_23h09.52.598,Simcolourproject_2stim_asymm_v5,2020.2.10,MacIntel,60,61025ae37ef11b136ea224fe,,,,,,,,,2677,40,-81,1,0,0,response3disk,,4,22,-12,1,0,0,rectangle,22,-12,1,0,0,22,-12,1,0,0,1,57,217,120,1,,,,,,,,
,,,,,,,,,,,,,FF,,,,,,,,0.732,,,,,,,,,,,,,,,,,,,,,,6102f2edaead0032c5054812,61036d44549abd4fa911d14e,2021-07-29_23h09.52.598,Simcolourproject_2stim_asymm_v5,2020.2.10,MacIntel,60,61025ae37ef11b136ea224fe,,,,,,,,,214,38,50,1,0,0,response1disk,,7,9,13,1,0,0,rectangle,9,13,1,0,0,9,13,1,0,0,1,58,218,7,1,,,,,,,,
,,,,,,,,,,,,,FF,,,,,,,,1.135,,,,,,,,,,,,,,,,,,,,,,6102f2edaead0032c5054812,61036d44549abd4fa911d14e,2021-07-29_23h09.52.598,Simcolourproject_2stim_asymm_v5,2020.2.10,MacIntel,60,61025ae37ef11b136ea224fe,,,,,,,,,4118,-30,63,1,0,0,response7disk,,0,3,15,1,0,0,rectangle,3,15,1,0,0,3,15,1,0,0,1,59,219,89,1,,,,,,,,
,,,,,,,,,,,,,FF,,,,,,,,0.385,,,,,,,,,,,,,,,,,,,,,,6102f2edaead0032c5054812,61036d44549abd4fa911d14e,2021-07-29_23h09.52.598,Simcolourproject_2stim_asymm_v5,2020.2.10,MacIntel,60,61025ae37ef11b136ea224fe,,,,,,,,,878,34,67,1,0,0,response1disk,,7,-26,-12,1,0,0,rectangle,-26,-12,1,0,0,-26,-12,1,0,0,1,60,220,65,1,,,,,,,,
,,,,,,,,,,,,,FF,,,,,,,,0.333,,,,,,,,,,,,,,,,,,,,,,6102f2edaead0032c5054812,61036d44549abd4fa911d14e,2021-07-29_23h09.52.598,Simcolourproject_2stim_asymm_v5,2020.2.10,MacIntel,60,61025ae37ef11b136ea224fe,,,,,,,,,676,41,68,1,0,0,response1disk,,7,8,8,1,0,0,rectangle,8,8,1,0,0,8,8,1,0,0,1,61,221,129,1,,,,,,,,
,,,,,,,,,,,,,FF,,,,,,,,1.067,,,,,,,,,,,,,,,,,,,,,,6102f2edaead0032c5054812,61036d44549abd4fa911d14e,2021-07-29_23h09.52.598,Simcolourproject_2stim_asymm_v5,2020.2.10,MacIntel,60,61025ae37ef11b136ea224fe,,,,,,,,,3680,56,-27,1,0,0,response3disk,,5,3,6,1,0,0,rectangle,3,6,1,0,0,3,6,1,0,0,1,62,222,61,1,,,,,,,,
,,,,,,,,,,,,,FF,,,,,,,,0.6,,,,,,,,,,,,,,,,,,,,,,6102f2edaead0032c5054812,61036d44549abd4fa911d14e,2021-07-29_23h09.52.598,Simcolourproject_2stim_asymm_v5,2020.2.10,MacIntel,60,61025ae37ef11b136ea224fe,,,,,,,,,1065,61,43,1,0,0,response1disk,,6,-14,10,1,0,0,rectangle,-14,10,1,0,0,-14,10,1,0,0,1,63,223,84,1,,,,,,,,
,,,,,,,,,,,,,FF,,,,,,,,0.551,,,,,,,,,,,,,,,,,,,,,,6102f2edaead0032c5054812,61036d44549abd4fa911d14e,2021-07-29_23h09.52.598,Simcolourproject_2stim_asymm_v5,2020.2.10,MacIntel,60,61025ae37ef11b136ea224fe,,,,,,,,,768,31,55,1,0,0,response1disk,,7,12,15,1,0,0,rectangle,12,15,1,0,0,12,15,1,0,0,1,64,224,104,1,,,,,,,,
,,,,,,,,,,,,,FF,,,,,,,,0.317,,,,,,,,,,,,,,,,,,,,,,6102f2edaead0032c5054812,61036d44549abd4fa911d14e,2021-07-29_23h09.52.598,Simcolourproject_2stim_asymm_v5,2020.2.10,MacIntel,60,61025ae37ef11b136ea224fe,,,,,,,,,3213,48,72,1,0,0,response1disk,,7,2,3,1,0,0,rectangle,2,3,1,0,0,2,3,1,0,0,1,65,225,10,1,,,,,,,,
,,,,,,,,,,,,,FF,,,,,,,,0.917,,,,,,,,,,,,,,,,,,,,,,6102f2edaead0032c5054812,61036d44549abd4fa911d14e,2021-07-29_23h09.52.598,Simcolourproject_2stim_asymm_v5,2020.2.10,MacIntel,60,61025ae37ef11b136ea224fe,,,,,,,,,3771,31,54,1,0,0,response1disk,,7,5,10,1,0,0,rectangle,5,10,1,0,0,5,10,1,0,0,1,66,226,109,1,,,,,,,,
,,,,,,,,,,,,,FF,,,,,,,,0.75,,,,,,,,,,,,,,,,,,,,,,6102f2edaead0032c5054812,61036d44549abd4fa911d14e,2021-07-29_23h09.52.598,Simcolourproject_2stim_asymm_v5,2020.2.10,MacIntel,60,61025ae37ef11b136ea224fe,,,,,,,,,1911,31,53,1,0,0,response1disk,,7,5,7,1,0,0,rectangle,5,7,1,0,0,5,7,1,0,0,1,67,227,113,1,,,,,,,,
,,,,,,,,,,,,,FF,,,,,,,,0.4,,,,,,,,,,,,,,,,,,,,,,6102f2edaead0032c5054812,61036d44549abd4fa911d14e,2021-07-29_23h09.52.598,Simcolourproject_2stim_asymm_v5,2020.2.10,MacIntel,60,61025ae37ef11b136ea224fe,,,,,,,,,764,25,50,1,0,0,response1disk,,7,0,-5,1,0,0,rectangle,0,-5,1,0,0,0,-5,1,0,0,1,68,228,34,1,,,,,,,,
,,,,,,,,,,,,,FF,,,,,,,,0.466,,,,,,,,,,,,,,,,,,,,,,6102f2edaead0032c5054812,61036d44549abd4fa911d14e,2021-07-29_23h09.52.598,Simcolourproject_2stim_asymm_v5,2020.2.10,MacIntel,60,61025ae37ef11b136ea224fe,,,,,,,,,2816,34,48,1,0,0,response1disk,,7,1,-7,1,0,0,rectangle,1,-7,1,0,0,1,-7,1,0,0,1,69,229,13,1,,,,,,,,
,,,,,,,,,,,,,FF,,,,,,,,1.066,,,,,,,,,,,,,,,,,,,,,,6102f2edaead0032c5054812,61036d44549abd4fa911d14e,2021-07-29_23h09.52.598,Simcolourproject_2stim_asymm_v5,2020.2.10,MacIntel,60,61025ae37ef11b136ea224fe,,,,,,,,,1294,-56,-26,1,0,0,response5disk,,2,-5,-14,1,0,0,rectangle,-5,-14,1,0,0,-5,-14,1,0,0,1,70,230,128,1,,,,,,,,
,,,,,,,,,,,,,FF,,,,,,,,1.199,,,,,,,,,,,,,,,,,,,,,,6102f2edaead0032c5054812,61036d44549abd4fa911d14e,2021-07-29_23h09.52.598,Simcolourproject_2stim_asymm_v5,2020.2.10,MacIntel,60,61025ae37ef11b136ea224fe,,,,,,,,,2098,-63,26,1,0,0,response7disk,,1,-24,12,1,0,0,rectangle,-24,12,1,0,0,-24,12,1,0,0,1,71,231,29,1,,,,,,,,
,,,,,,,,,,,,,FF,,,,,,,,0.585,,,,,,,,,,,,,,,,,,,,,,6102f2edaead0032c5054812,61036d44549abd4fa911d14e,2021-07-29_23h09.52.598,Simcolourproject_2stim_asymm_v5,2020.2.10,MacIntel,60,61025ae37ef11b136ea224fe,,,,,,,,,614,18,66,1,0,0,response1disk,,7,-6,2,1,0,0,rectangle,-6,2,1,0,0,-6,2,1,0,0,1,72,232,122,1,,,,,,,,
,,,,,,,,,,,,,FF,,,,,,,,0.316,,,,,,,,,,,,,,,,,,,,,,6102f2edaead0032c5054812,61036d44549abd4fa911d14e,2021-07-29_23h09.52.598,Simcolourproject_2stim_asymm_v5,2020.2.10,MacIntel,60,61025ae37ef11b136ea224fe,,,,,,,,,1393,37,56,1,0,0,response1disk,,7,5,9,1,0,0,rectangle,5,9,1,0,0,5,9,1,0,0,1,73,233,55,1,,,,,,,,
,,,,,,,,,,,,,FF,,,,,,,,0.984,,,,,,,,,,,,,,,,,,,,,,6102f2edaead0032c5054812,61036d44549abd4fa911d14e,2021-07-29_23h09.52.598,Simcolourproject_2stim_asymm_v5,2020.2.10,MacIntel,60,61025ae37ef11b136ea224fe,,,,,,,,,78,-55,-28,1,0,0,response5disk,,2,-11,-12,1,0,0,rectangle,-11,-12,1,0,0,-11,-12,1,0,0,1,74,234,12,1,,,,,,,,
,,,,,,,,,,,,,FF,,,,,,,,0.417,,,,,,,,,,,,,,,,,,,,,,6102f2edaead0032c5054812,61036d44549abd4fa911d14e,2021-07-29_23h09.52.598,Simcolourproject_2stim_asymm_v5,2020.2.10,MacIntel,60,61025ae37ef11b136ea224fe,,,,,,,,,3184,25,65,1,0,0,response1disk,,7,-4,3,1,0,0,rectangle,-4,3,1,0,0,-4,3,1,0,0,1,75,235,52,1,,,,,,,,
,,,,,,,,,,,,,FF,,,,,,,,0.568,,,,,,,,,,,,,,,,,,,,,,6102f2edaead0032c5054812,61036d44549abd4fa911d14e,2021-07-29_23h09.52.598,Simcolourproject_2stim_asymm_v5,2020.2.10,MacIntel,60,61025ae37ef11b136ea224fe,,,,,,,,,1634,26,43,1,0,0,response1disk,,7,8,8,1,0,0,rectangle,8,8,1,0,0,8,8,1,0,0,1,76,236,151,1,,,,,,,,
,,,,,,,,,,,,,FF,,,,,,,,0.418,,,,,,,,,,,,,,,,,,,,,,6102f2edaead0032c5054812,61036d44549abd4fa911d14e,2021-07-29_23h09.52.598,Simcolourproject_2stim_asymm_v5,2020.2.10,MacIntel,60,61025ae37ef11b136ea224fe,,,,,,,,,1732,30,43,1,0,0,response1disk,,7,6,-1,1,0,0,rectangle,6,-1,1,0,0,6,-1,1,0,0,1,77,237,137,1,,,,,,,,
,,,,,,,,,,,,,FF,,,,,,,,0.367,,,,,,,,,,,,,,,,,,,,,,6102f2edaead0032c5054812,61036d44549abd4fa911d14e,2021-07-29_23h09.52.598,Simcolourproject_2stim_asymm_v5,2020.2.10,MacIntel,60,61025ae37ef11b136ea224fe,,,,,,,,,1581,39,62,1,0,0,response1disk,,7,16,8,1,0,0,rectangle,16,8,1,0,0,16,8,1,0,0,1,78,238,146,1,,,,,,,,
,,,,,,,,,,,,,FF,,,,,,,,2.001,,,,,,,,,,,,,,,,,,,,,,6102f2edaead0032c5054812,61036d44549abd4fa911d14e,2021-07-29_23h09.52.598,Simcolourproject_2stim_asymm_v5,2020.2.10,MacIntel,60,61025ae37ef11b136ea224fe,,,,,,,,,1296,-73,-38,1,0,0,response5disk,,2,-12,-12,1,0,0,rectangle,-12,-12,1,0,0,-12,-12,1,0,0,1,79,239,43,1,,,,,,,,
,,,,,,,,,,,,,FF,,,,,,,,0.749,,,,,,,,,,,,,,,,,,,,,,6102f2edaead0032c5054812,61036d44549abd4fa911d14e,2021-07-29_23h09.52.598,Simcolourproject_2stim_asymm_v5,2020.2.10,MacIntel,60,61025ae37ef11b136ea224fe,,,,,,,,,4011,32,75,1,0,0,response1disk,,7,11,2,1,0,0,rectangle,11,2,1,0,0,11,2,1,0,0,1,80,240,25,1,,,,,,,,
,,,,,,,,,,,,,FF,,,,,,,,1.384,,,,,,,,,,,,,,,,,,,,,,6102f2edaead0032c5054812,61036d44549abd4fa911d14e,2021-07-29_23h09.52.598,Simcolourproject_2stim_asymm_v5,2020.2.10,MacIntel,60,61025ae37ef11b136ea224fe,,,,,,,,,3995,-28,-62,1,0,0,response5disk,,3,1,-13,1,0,0,rectangle,1,-13,1,0,0,1,-13,1,0,0,1,81,241,130,1,,,,,,,,
,,,,,,,,,,,,,FF,,,,,,,,0.368,,,,,,,,,,,,,,,,,,,,,,6102f2edaead0032c5054812,61036d44549abd4fa911d14e,2021-07-29_23h09.52.598,Simcolourproject_2stim_asymm_v5,2020.2.10,MacIntel,60,61025ae37ef11b136ea224fe,,,,,,,,,2586,28,61,1,0,0,response1disk,,7,0,-8,1,0,0,rectangle,0,-8,1,0,0,0,-8,1,0,0,1,82,242,155,1,,,,,,,,
,,,,,,,,,,,,,FF,,,,,,,,0.435,,,,,,,,,,,,,,,,,,,,,,6102f2edaead0032c5054812,61036d44549abd4fa911d14e,2021-07-29_23h09.52.598,Simcolourproject_2stim_asymm_v5,2020.2.10,MacIntel,60,61025ae37ef11b136ea224fe,,,,,,,,,2640,36,50,1,0,0,response1disk,,7,-4,-15,1,0,0,rectangle,-4,-15,1,0,0,-4,-15,1,0,0,1,83,243,77,1,,,,,,,,
,,,,,,,,,,,,,FF,,,,,,,,0.3,,,,,,,,,,,,,,,,,,,,,,6102f2edaead0032c5054812,61036d44549abd4fa911d14e,2021-07-29_23h09.52.598,Simcolourproject_2stim_asymm_v5,2020.2.10,MacIntel,60,61025ae37ef11b136ea224fe,,,,,,,,,1257,39,62,1,0,0,response1disk,,7,20,13,1,0,0,rectangle,20,13,1,0,0,20,13,1,0,0,1,84,244,86,1,,,,,,,,
,,,,,,,,,,,,,FF,,,,,,,,0.517,,,,,,,,,,,,,,,,,,,,,,6102f2edaead0032c5054812,61036d44549abd4fa911d14e,2021-07-29_23h09.52.598,Simcolourproject_2stim_asymm_v5,2020.2.10,MacIntel,60,61025ae37ef11b136ea224fe,,,,,,,,,3587,37,48,1,0,0,response1disk,,7,21,16,1,0,0,rectangle,21,16,1,0,0,21,16,1,0,0,1,85,245,106,1,,,,,,,,
,,,,,,,,,,,,,FF,,,,,,,,0.367,,,,,,,,,,,,,,,,,,,,,,6102f2edaead0032c5054812,61036d44549abd4fa911d14e,2021-07-29_23h09.52.598,Simcolourproject_2stim_asymm_v5,2020.2.10,MacIntel,60,61025ae37ef11b136ea224fe,,,,,,,,,1207,36,49,1,0,0,response1disk,,7,23,8,1,0,0,rectangle,23,8,1,0,0,23,8,1,0,0,1,86,246,50,1,,,,,,,,
,,,,,,,,,,,,,FF,,,,,,,,1.168,,,,,,,,,,,,,,,,,,,,,,6102f2edaead0032c5054812,61036d44549abd4fa911d14e,2021-07-29_23h09.52.598,Simcolourproject_2stim_asymm_v5,2020.2.10,MacIntel,60,61025ae37ef11b136ea224fe,,,,,,,,,435,56,-41,1,0,0,response3disk,,5,6,0,1,0,0,rectangle,6,0,1,0,0,6,0,1,0,0,1,87,247,88,1,,,,,,,,
,,,,,,,,,,,,,FF,,,,,,,,1.6,,,,,,,,,,,,,,,,,,,,,,6102f2edaead0032c5054812,61036d44549abd4fa911d14e,2021-07-29_23h09.52.598,Simcolourproject_2stim_asymm_v5,2020.2.10,MacIntel,60,61025ae37ef11b136ea224fe,,,,,,,,,4318,68,-22,1,0,0,response3disk,,5,16,10,1,0,0,rectangle,16,10,1,0,0,16,10,1,0,0,1,88,248,123,1,,,,,,,,
,,,,,,,,,,,,,FF,,,,,,,,1.268,,,,,,,,,,,,,,,,,,,,,,6102f2edaead0032c5054812,61036d44549abd4fa911d14e,2021-07-29_23h09.52.598,Simcolourproject_2stim_asymm_v5,2020.2.10,MacIntel,60,61025ae37ef11b136ea224fe,,,,,,,,,1747,-26,-60,1,0,0,response5disk,,3,-4,-11,1,0,0,rectangle,-4,-11,1,0,0,-4,-11,1,0,0,1,89,249,94,1,,,,,,,,
,,,,,,,,,,,,,FF,,,,,,,,0.833,,,,,,,,,,,,,,,,,,,,,,6102f2edaead0032c5054812,61036d44549abd4fa911d14e,2021-07-29_23h09.52.598,Simcolourproject_2stim_asymm_v5,2020.2.10,MacIntel,60,61025ae37ef11b136ea224fe,,,,,,,,,371,30,-74,1,0,0,response3disk,,4,11,-11,1,0,0,rectangle,11,-11,1,0,0,11,-11,1,0,0,1,90,250,28,1,,,,,,,,
,,,,,,,,,,,,,FF,,,,,,,,0.5,,,,,,,,,,,,,,,,,,,,,,6102f2edaead0032c5054812,61036d44549abd4fa911d14e,2021-07-29_23h09.52.598,Simcolourproject_2stim_asymm_v5,2020.2.10,MacIntel,60,61025ae37ef11b136ea224fe,,,,,,,,,3501,38,66,1,0,0,response1disk,,7,12,-8,1,0,0,rectangle,12,-8,1,0,0,12,-8,1,0,0,1,91,251,105,1,,,,,,,,
,,,,,,,,,,,,,FF,,,,,,,,0.384,,,,,,,,,,,,,,,,,,,,,,6102f2edaead0032c5054812,61036d44549abd4fa911d14e,2021-07-29_23h09.52.598,Simcolourproject_2stim_asymm_v5,2020.2.10,MacIntel,60,61025ae37ef11b136ea224fe,,,,,,,,,2563,38,52,1,0,0,response1disk,,7,27,8,1,0,0,rectangle,27,8,1,0,0,27,8,1,0,0,1,92,252,143,1,,,,,,,,
,,,,,,,,,,,,,FF,,,,,,,,0.766,,,,,,,,,,,,,,,,,,,,,,6102f2edaead0032c5054812,61036d44549abd4fa911d14e,2021-07-29_23h09.52.598,Simcolourproject_2stim_asymm_v5,2020.2.10,MacIntel,60,61025ae37ef11b136ea224fe,,,,,,,,,2108,79,26,1,0,0,response1disk,,6,-4,9,1,0,0,rectangle,-4,9,1,0,0,-4,9,1,0,0,1,93,253,66,1,,,,,,,,
,,,,,,,,,,,,,FF,,,,,,,,0.35,,,,,,,,,,,,,,,,,,,,,,6102f2edaead0032c5054812,61036d44549abd4fa911d14e,2021-07-29_23h09.52.598,Simcolourproject_2stim_asymm_v5,2020.2.10,MacIntel,60,61025ae37ef11b136ea224fe,,,,,,,,,1780,34,74,1,0,0,response1disk,,7,13,-18,1,0,0,rectangle,13,-18,1,0,0,13,-18,1,0,0,1,94,254,115,1,,,,,,,,
,,,,,,,,,,,,,FF,,,,,,,,0.334,,,,,,,,,,,,,,,,,,,,,,6102f2edaead0032c5054812,61036d44549abd4fa911d14e,2021-07-29_23h09.52.598,Simcolourproject_2stim_asymm_v5,2020.2.10,MacIntel,60,61025ae37ef11b136ea224fe,,,,,,,,,35,36,58,1,0,0,response1disk,,7,20,4,1,0,0,rectangle,16,-86,1,0,0,10,2,1,0,0,1,95,255,149,1,,response3disk_3,TRUE,4,4,"[78,256,77,295,75,127,206,147,320,206,265,286,291,86,80,125,290,276,176,319]",1.816,rectangle
,,,,,,,,,,,,,FF,,,,,,,,0.851,,,,,,,,,,,,,,,,,,,,,,6102f2edaead0032c5054812,61036d44549abd4fa911d14e,2021-07-29_23h09.52.598,Simcolourproject_2stim_asymm_v5,2020.2.10,MacIntel,60,61025ae37ef11b136ea224fe,,,,,,,,,760,27,57,1,0,0,response1disk,,7,5,-13,1,0,0,rectangle,5,-13,1,0,0,5,-13,1,0,0,1,96,256,124,1,,,,,,,,
,,,,,,,,,,,,,FF,,,,,,,,1.034,,,,,,,,,,,,,,,,,,,,,,6102f2edaead0032c5054812,61036d44549abd4fa911d14e,2021-07-29_23h09.52.598,Simcolourproject_2stim_asymm_v5,2020.2.10,MacIntel,60,61025ae37ef11b136ea224fe,,,,,,,,,562,86,-40,1,0,0,response3disk,,5,1,6,1,0,0,rectangle,1,6,1,0,0,1,6,1,0,0,1,97,257,131,1,,,,,,,,
,,,,,,,,,,,,,FF,,,,,,,,0.366,,,,,,,,,,,,,,,,,,,,,,6102f2edaead0032c5054812,61036d44549abd4fa911d14e,2021-07-29_23h09.52.598,Simcolourproject_2stim_asymm_v5,2020.2.10,MacIntel,60,61025ae37ef11b136ea224fe,,,,,,,,,1161,36,89,1,0,0,response1disk,,7,7,12,1,0,0,rectangle,7,12,1,0,0,7,12,1,0,0,1,98,258,90,1,,,,,,,,
,,,,,,,,,,,,,FF,,,,,,,,1.184,,,,,,,,,,,,,,,,,,,,,,6102f2edaead0032c5054812,61036d44549abd4fa911d14e,2021-07-29_23h09.52.598,Simcolourproject_2stim_asymm_v5,2020.2.10,MacIntel,60,61025ae37ef11b136ea224fe,,,,,,,,,2660,-40,64,1,0,0,response7disk,,0,-11,10,1,0,0,rectangle,-11,10,1,0,0,-11,10,1,0,0,1,99,259,51,1,,,,,,,,
,,,,,,,,,,,,,FF,,,,,,,,0.967,,,,,,,,,,,,,,,,,,,,,,6102f2edaead0032c5054812,61036d44549abd4fa911d14e,2021-07-29_23h09.52.598,Simcolourproject_2stim_asymm_v5,2020.2.10,MacIntel,60,61025ae37ef11b136ea224fe,,,,,,,,,613,-59,-17,1,0,0,response5disk,,2,-5,-10,1,0,0,rectangle,-5,-10,1,0,0,-5,-10,1,0,0,1,100,260,147,1,,,,,,,,
,,,,,,,,,,,,,FF,,,,,,,,1.35,,,,,,,,,,,,,,,,,,,,,,6102f2edaead0032c5054812,61036d44549abd4fa911d14e,2021-07-29_23h09.52.598,Simcolourproject_2stim_asymm_v5,2020.2.10,MacIntel,60,61025ae37ef11b136ea224fe,,,,,,,,,2602,40,22,1,0,0,response1disk,,6,1,9,1,0,0,rectangle,1,9,1,0,0,1,9,1,0,0,1,101,261,87,1,,,,,,,,
,,,,,,,,,,,,,FF,,,,,,,,0.6,,,,,,,,,,,,,,,,,,,,,,6102f2edaead0032c5054812,61036d44549abd4fa911d14e,2021-07-29_23h09.52.598,Simcolourproject_2stim_asymm_v5,2020.2.10,MacIntel,60,61025ae37ef11b136ea224fe,,,,,,,,,1947,18,56,1,0,0,response1disk,,7,-5,-7,1,0,0,rectangle,-5,-7,1,0,0,-5,-7,1,0,0,1,102,262,110,1,,,,,,,,
,,,,,,,,,,,,,FF,,,,,,,,0.301,,,,,,,,,,,,,,,,,,,,,,6102f2edaead0032c5054812,61036d44549abd4fa911d14e,2021-07-29_23h09.52.598,Simcolourproject_2stim_asymm_v5,2020.2.10,MacIntel,60,61025ae37ef11b136ea224fe,,,,,,,,,4151,31,48,1,0,0,response1disk,,7,3,-12,1,0,0,rectangle,3,-12,1,0,0,3,-12,1,0,0,1,103,263,97,1,,,,,,,,
,,,,,,,,,,,,,FF,,,,,,,,0.583,,,,,,,,,,,,,,,,,,,,,,6102f2edaead0032c5054812,61036d44549abd4fa911d14e,2021-07-29_23h09.52.598,Simcolourproject_2stim_asymm_v5,2020.2.10,MacIntel,60,61025ae37ef11b136ea224fe,,,,,,,,,468,24,26,1,0,0,response1disk,,7,8,-4,1,0,0,rectangle,34,-95,1,0,0,29,-2,1,0,0,1,104,264,81,1,,response3disk_3,TRUE,4,4,"[78,256,77,295,75,127,206,147,320,206,265,286,291,86,80,125,290,276,176,319]",1.765,rectangle
,,,,,,,,,,,,,FF,,,,,,,,0.767,,,,,,,,,,,,,,,,,,,,,,6102f2edaead0032c5054812,61036d44549abd4fa911d14e,2021-07-29_23h09.52.598,Simcolourproject_2stim_asymm_v5,2020.2.10,MacIntel,60,61025ae37ef11b136ea224fe,,,,,,,,,2514,30,60,1,0,0,response1disk,,7,20,9,1,0,0,rectangle,20,9,1,0,0,20,9,1,0,0,1,105,265,134,1,,,,,,,,
,,,,,,,,,,,,,FF,,,,,,,,0.533,,,,,,,,,,,,,,,,,,,,,,6102f2edaead0032c5054812,61036d44549abd4fa911d14e,2021-07-29_23h09.52.598,Simcolourproject_2stim_asymm_v5,2020.2.10,MacIntel,60,61025ae37ef11b136ea224fe,,,,,,,,,1728,35,57,1,0,0,response1disk,,7,21,10,1,0,0,rectangle,21,10,1,0,0,21,10,1,0,0,1,106,266,56,1,,,,,,,,
,,,,,,,,,,,,,FF,,,,,,,,0.365,,,,,,,,,,,,,,,,,,,,,,6102f2edaead0032c5054812,61036d44549abd4fa911d14e,2021-07-29_23h09.52.598,Simcolourproject_2stim_asymm_v5,2020.2.10,MacIntel,60,61025ae37ef11b136ea224fe,,,,,,,,,3616,36,48,1,0,0,response1disk,,7,21,-4,1,0,0,rectangle,21,-4,1,0,0,21,-4,1,0,0,1,107,267,4,1,,,,,,,,
,,,,,,,,,,,,,FF,,,,,,,,0.518,,,,,,,,,,,,,,,,,,,,,,6102f2edaead0032c5054812,61036d44549abd4fa911d14e,2021-07-29_23h09.52.598,Simcolourproject_2stim_asymm_v5,2020.2.10,MacIntel,60,61025ae37ef11b136ea224fe,,,,,,,,,2815,29,48,1,0,0,response1disk,,7,23,10,1,0,0,rectangle,23,10,1,0,0,23,10,1,0,0,1,108,268,82,1,,,,,,,,
,,,,,,,,,,,,,FF,,,,,,,,1.016,,,,,,,,,,,,,,,,,,,,,,6102f2edaead0032c5054812,61036d44549abd4fa911d14e,2021-07-29_23h09.52.598,Simcolourproject_2stim_asymm_v5,2020.2.10,MacIntel,60,61025ae37ef11b136ea224fe,,,,,,,,,377,94,35,1,0,0,response1disk,,6,12,2,1,0,0,rectangle,12,2,1,0,0,12,2,1,0,0,1,109,269,73,1,,,,,,,,
,,,,,,,,,,,,,FF,,,,,,,,1.066,,,,,,,,,,,,,,,,,,,,,,6102f2edaead0032c5054812,61036d44549abd4fa911d14e,2021-07-29_23h09.52.598,Simcolourproject_2stim_asymm_v5,2020.2.10,MacIntel,60,61025ae37ef11b136ea224fe,,,,,,,,,719,23,-75,1,0,0,response3disk,,4,2,-3,1,0,0,rectangle,2,-3,1,0,0,2,-3,1,0,0,1,110,270,135,1,,,,,,,,
,,,,,,,,,,,,,FF,,,,,,,,1.684,,,,,,,,,,,,,,,,,,,,,,6102f2edaead0032c5054812,61036d44549abd4fa911d14e,2021-07-29_23h09.52.598,Simcolourproject_2stim_asymm_v5,2020.2.10,MacIntel,60,61025ae37ef11b136ea224fe,,,,,,,,,3311,35,92,1,0,0,response1disk,,7,12,-12,1,0,0,rectangle,12,-12,1,0,0,12,-12,1,0,0,1,111,271,100,1,,,,,,,,
,,,,,,,,,,,,,FF,,,,,,,,42.853,,,,,,,,,,,,,,,,,,,,,,6102f2edaead0032c5054812,61036d44549abd4fa911d14e,2021-07-29_23h09.52.598,Simcolourproject_2stim_asymm_v5,2020.2.10,MacIntel,60,61025ae37ef11b136ea224fe,,,,,,,,,2981,112,-37,1,0,0,response3disk,,5,-18,4,1,0,0,rectangle,-18,4,1,0,0,-18,4,1,0,0,1,112,272,154,1,,,,,,,,
,,,,,,,,,,,,,FF,,,,,,,,0.751,,,,,,,,,,,,,,,,,,,,,,6102f2edaead0032c5054812,61036d44549abd4fa911d14e,2021-07-29_23h09.52.598,Simcolourproject_2stim_asymm_v5,2020.2.10,MacIntel,60,61025ae37ef11b136ea224fe,,,,,,,,,505,26,107,1,0,0,response1disk,,7,-2,-1,1,0,0,rectangle,-2,-1,1,0,0,-2,-1,1,0,0,1,113,273,74,1,,,,,,,,
,,,,,,,,,,,,,FF,,,,,,,,0.866,,,,,,,,,,,,,,,,,,,,,,6102f2edaead0032c5054812,61036d44549abd4fa911d14e,2021-07-29_23h09.52.598,Simcolourproject_2stim_asymm_v5,2020.2.10,MacIntel,60,61025ae37ef11b136ea224fe,,,,,,,,,755,91,33,1,0,0,response1disk,,6,-15,-14,1,0,0,rectangle,-15,-14,1,0,0,-15,-14,1,0,0,1,114,274,11,1,,,,,,,,
,,,,,,,,,,,,,FF,,,,,,,,0.301,,,,,,,,,,,,,,,,,,,,,,6102f2edaead0032c5054812,61036d44549abd4fa911d14e,2021-07-29_23h09.52.598,Simcolourproject_2stim_asymm_v5,2020.2.10,MacIntel,60,61025ae37ef11b136ea224fe,,,,,,,,,1326,41,76,1,0,0,response1disk,,7,19,6,1,0,0,rectangle,42,-110,1,0,0,9,5,1,0,0,1,115,275,101,1,,response3disk_3,TRUE,4,4,"[78,256,77,295,75,127,206,147,320,206,265,286,291,86,80,125,290,276,176,319]",1.333,rectangle
,,,,,,,,,,,,,FF,,,,,,,,0.551,,,,,,,,,,,,,,,,,,,,,,6102f2edaead0032c5054812,61036d44549abd4fa911d14e,2021-07-29_23h09.52.598,Simcolourproject_2stim_asymm_v5,2020.2.10,MacIntel,60,61025ae37ef11b136ea224fe,,,,,,,,,251,89,41,1,0,0,response1disk,,6,-2,1,1,0,0,rectangle,-2,1,1,0,0,-2,1,1,0,0,1,116,276,91,1,,,,,,,,
,,,,,,,,,,,,,FF,,,,,,,,0.466,,,,,,,,,,,,,,,,,,,,,,6102f2edaead0032c5054812,61036d44549abd4fa911d14e,2021-07-29_23h09.52.598,Simcolourproject_2stim_asymm_v5,2020.2.10,MacIntel,60,61025ae37ef11b136ea224fe,,,,,,,,,3355,23,65,1,0,0,response1disk,,7,9,6,1,0,0,rectangle,9,6,1,0,0,9,6,1,0,0,1,117,277,85,1,,,,,,,,
,,,,,,,,,,,,,FF,,,,,,,,0.9,,,,,,,,,,,,,,,,,,,,,,6102f2edaead0032c5054812,61036d44549abd4fa911d14e,2021-07-29_23h09.52.598,Simcolourproject_2stim_asymm_v5,2020.2.10,MacIntel,60,61025ae37ef11b136ea224fe,,,,,,,,,1962,77,-38,1,0,0,response3disk,,5,23,-2,1,0,0,rectangle,23,-2,1,0,0,23,-2,1,0,0,1,118,278,2,1,,,,,,,,
,,,,,,,,,,,,,FF,,,,,,,,0.684,,,,,,,,,,,,,,,,,,,,,,6102f2edaead0032c5054812,61036d44549abd4fa911d14e,2021-07-29_23h09.52.598,Simcolourproject_2stim_asymm_v5,2020.2.10,MacIntel,60,61025ae37ef11b136ea224fe,,,,,,,,,2651,78,33,1,0,0,response1disk,,6,12,-1,1,0,0,rectangle,12,-1,1,0,0,12,-1,1,0,0,1,119,279,42,1,,,,,,,,
,,,,,,,,,,,,,FF,,,,,,,,0.334,,,,,,,,,,,,,,,,,,,,,,6102f2edaead0032c5054812,61036d44549abd4fa911d14e,2021-07-29_23h09.52.598,Simcolourproject_2stim_asymm_v5,2020.2.10,MacIntel,60,61025ae37ef11b136ea224fe,,,,,,,,,3406,24,76,1,0,0,response1disk,,7,5,-2,1,0,0,rectangle,5,-2,1,0,0,5,-2,1,0,0,1,120,280,62,1,,,,,,,,
,,,,,,,,,,,,,FF,,,,,,,,0.3,,,,,,,,,,,,,,,,,,,,,,6102f2edaead0032c5054812,61036d44549abd4fa911d14e,2021-07-29_23h09.52.598,Simcolourproject_2stim_asymm_v5,2020.2.10,MacIntel,60,61025ae37ef11b136ea224fe,,,,,,,,,3728,36,72,1,0,0,response1disk,,7,15,15,1,0,0,rectangle,15,15,1,0,0,15,15,1,0,0,1,121,281,142,1,,,,,,,,
,,,,,,,,,,,,,FF,,,,,,,,0.249,,,,,,,,,,,,,,,,,,,,,,6102f2edaead0032c5054812,61036d44549abd4fa911d14e,2021-07-29_23h09.52.598,Simcolourproject_2stim_asymm_v5,2020.2.10,MacIntel,60,61025ae37ef11b136ea224fe,,,,,,,,,1010,38,58,1,0,0,response1disk,,7,16,-5,1,0,0,rectangle,16,-5,1,0,0,16,-5,1,0,0,1,122,282,83,1,,,,,,,,
,,,,,,,,,,,,,FF,,,,,,,,0.5,,,,,,,,,,,,,,,,,,,,,,6102f2edaead0032c5054812,61036d44549abd4fa911d14e,2021-07-29_23h09.52.598,Simcolourproject_2stim_asymm_v5,2020.2.10,MacIntel,60,61025ae37ef11b136ea224fe,,,,,,,,,844,38,55,1,0,0,response1disk,,7,16,1,1,0,0,rectangle,16,1,1,0,0,16,1,1,0,0,1,123,283,59,1,,,,,,,,
,,,,,,,,,,,,,FF,,,,,,,,0.368,,,,,,,,,,,,,,,,,,,,,,6102f2edaead0032c5054812,61036d44549abd4fa911d14e,2021-07-29_23h09.52.598,Simcolourproject_2stim_asymm_v5,2020.2.10,MacIntel,60,61025ae37ef11b136ea224fe,,,,,,,,,3498,41,67,1,0,0,response1disk,,7,19,-1,1,0,0,rectangle,19,-1,1,0,0,19,-1,1,0,0,1,124,284,152,1,,,,,,,,
,,,,,,,,,,,,,FF,,,,,,,,0.299,,,,,,,,,,,,,,,,,,,,,,6102f2edaead0032c5054812,61036d44549abd4fa911d14e,2021-07-29_23h09.52.598,Simcolourproject_2stim_asymm_v5,2020.2.10,MacIntel,60,61025ae37ef11b136ea224fe,,,,,,,,,340,40,66,1,0,0,response1disk,,7,19,-3,1,0,0,rectangle,97,39,1,0,0,28,11,1,0,0,1,125,285,79,1,,response1disk_3,TRUE,6,6,"[78,256,77,295,75,127,206,147,320,206,265,286,291,86,80,125,290,276,176,319]",1.2,rectangle
,,,,,,,,,,,,,FF,,,,,,,,0.55,,,,,,,,,,,,,,,,,,,,,,6102f2edaead0032c5054812,61036d44549abd4fa911d14e,2021-07-29_23h09.52.598,Simcolourproject_2stim_asymm_v5,2020.2.10,MacIntel,60,61025ae37ef11b136ea224fe,,,,,,,,,771,50,89,1,0,0,response1disk,,7,17,5,1,0,0,rectangle,17,5,1,0,0,17,5,1,0,0,1,126,286,47,1,,,,,,,,
,,,,,,,,,,,,,FF,,,,,,,,1.517,,,,,,,,,,,,,,,,,,,,,,6102f2edaead0032c5054812,61036d44549abd4fa911d14e,2021-07-29_23h09.52.598,Simcolourproject_2stim_asymm_v5,2020.2.10,MacIntel,60,61025ae37ef11b136ea224fe,,,,,,,,,3000,-45,58,1,0,0,response7disk,,0,-3,-7,1,0,0,rectangle,-3,-7,1,0,0,-3,-7,1,0,0,1,127,287,19,1,,,,,,,,
,,,,,,,,,,,,,FF,,,,,,,,0.984,,,,,,,,,,,,,,,,,,,,,,6102f2edaead0032c5054812,61036d44549abd4fa911d14e,2021-07-29_23h09.52.598,Simcolourproject_2stim_asymm_v5,2020.2.10,MacIntel,60,61025ae37ef11b136ea224fe,,,,,,,,,3968,-55,-25,1,0,0,response5disk,,2,-4,-7,1,0,0,rectangle,-4,-7,1,0,0,-4,-7,1,0,0,1,128,288,98,1,,,,,,,,
,,,,,,,,,,,,,FF,,,,,,,,0.784,,,,,,,,,,,,,,,,,,,,,,6102f2edaead0032c5054812,61036d44549abd4fa911d14e,2021-07-29_23h09.52.598,Simcolourproject_2stim_asymm_v5,2020.2.10,MacIntel,60,61025ae37ef11b136ea224fe,,,,,,,,,1080,32,87,1,0,0,response1disk,,7,1,10,1,0,0,rectangle,-31,80,1,0,0,-3,-7,1,0,0,1,129,289,31,1,,response7disk_3,TRUE,0,0,"[78,256,77,295,75,127,206,147,320,206,265,286,291,86,80,125,290,276,176,319]",1.4,rectangle
,,,,,,,,,,,,,FF,,,,,,,,0.867,,,,,,,,,,,,,,,,,,,,,,6102f2edaead0032c5054812,61036d44549abd4fa911d14e,2021-07-29_23h09.52.598,Simcolourproject_2stim_asymm_v5,2020.2.10,MacIntel,60,61025ae37ef11b136ea224fe,,,,,,,,,2802,83,35,1,0,0,response1disk,,6,4,-1,1,0,0,rectangle,25,-75,1,0,0,12,-11,1,0,0,1,130,290,49,1,,response3disk_3,TRUE,4,4,"[78,256,77,295,75,127,206,147,320,206,265,286,291,86,80,125,290,276,176,319]",1.299,rectangle
,,,,,,,,,,,,,FF,,,,,,,,0.683,,,,,,,,,,,,,,,,,,,,,,6102f2edaead0032c5054812,61036d44549abd4fa911d14e,2021-07-29_23h09.52.598,Simcolourproject_2stim_asymm_v5,2020.2.10,MacIntel,60,61025ae37ef11b136ea224fe,,,,,,,,,1517,28,64,1,0,0,response1disk,,7,0,3,1,0,0,rectangle,0,3,1,0,0,0,3,1,0,0,1,131,291,18,1,,,,,,,,
,,,,,,,,,,,,,FF,,,,,,,,0.932,,,,,,,,,,,,,,,,,,,,,,6102f2edaead0032c5054812,61036d44549abd4fa911d14e,2021-07-29_23h09.52.598,Simcolourproject_2stim_asymm_v5,2020.2.10,MacIntel,60,61025ae37ef11b136ea224fe,,,,,,,,,3966,-62,-31,1,0,0,response5disk,,2,-6,-16,1,0,0,rectangle,-6,-16,1,0,0,-6,-16,1,0,0,1,132,292,3,1,,,,,,,,
,,,,,,,,,,,,,FF,,,,,,,,0.634,,,,,,,,,,,,,,,,,,,,,,6102f2edaead0032c5054812,61036d44549abd4fa911d14e,2021-07-29_23h09.52.598,Simcolourproject_2stim_asymm_v5,2020.2.10,MacIntel,60,61025ae37ef11b136ea224fe,,,,,,,,,2991,30,63,1,0,0,response1disk,,7,-6,4,1,0,0,rectangle,-6,4,1,0,0,-6,4,1,0,0,1,133,293,158,1,,,,,,,,
,,,,,,,,,,,,,FF,,,,,,,,1.018,,,,,,,,,,,,,,,,,,,,,,6102f2edaead0032c5054812,61036d44549abd4fa911d14e,2021-07-29_23h09.52.598,Simcolourproject_2stim_asymm_v5,2020.2.10,MacIntel,60,61025ae37ef11b136ea224fe,,,,,,,,,2669,-54,-90,1,0,0,response5disk,,3,-5,-17,1,0,0,rectangle,-30,76,1,0,0,-17,0,1,0,0,1,134,294,107,1,,response7disk_3,TRUE,0,0,"[78,256,77,295,75,127,206,147,320,206,265,286,291,86,80,125,290,276,176,319]",1.284,rectangle
,,,,,,,,,,,,,FF,,,,,,,,0.732,,,,,,,,,,,,,,,,,,,,,,6102f2edaead0032c5054812,61036d44549abd4fa911d14e,2021-07-29_23h09.52.598,Simcolourproject_2stim_asymm_v5,2020.2.10,MacIntel,60,61025ae37ef11b136ea224fe,,,,,,,,,449,38,84,1,0,0,response1disk,,7,2,9,1,0,0,rectangle,2,9,1,0,0,2,9,1,0,0,1,135,295,5,1,,,,,,,,
,,,,,,,,,,,,,FF,,,,,,,,0.334,,,,,,,,,,,,,,,,,,,,,,6102f2edaead0032c5054812,61036d44549abd4fa911d14e,2021-07-29_23h09.52.598,Simcolourproject_2stim_asymm_v5,2020.2.10,MacIntel,60,61025ae37ef11b136ea224fe,,,,,,,,,1571,29,58,1,0,0,response1disk,,7,5,-1,1,0,0,rectangle,5,-1,1,0,0,5,-1,1,0,0,1,136,296,111,1,,,,,,,,
,,,,,,,,,,,,,FF,,,,,,,,0.283,,,,,,,,,,,,,,,,,,,,,,6102f2edaead0032c5054812,61036d44549abd4fa911d14e,2021-07-29_23h09.52.598,Simcolourproject_2stim_asymm_v5,2020.2.10,MacIntel,60,61025ae37ef11b136ea224fe,,,,,,,,,3229,32,59,1,0,0,response1disk,,7,4,-13,1,0,0,rectangle,4,-13,1,0,0,4,-13,1,0,0,1,137,297,0,1,,,,,,,,
,,,,,,,,,,,,,FF,,,,,,,,0.333,,,,,,,,,,,,,,,,,,,,,,6102f2edaead0032c5054812,61036d44549abd4fa911d14e,2021-07-29_23h09.52.598,Simcolourproject_2stim_asymm_v5,2020.2.10,MacIntel,60,61025ae37ef11b136ea224fe,,,,,,,,,590,29,48,1,0,0,response1disk,,7,9,-6,1,0,0,rectangle,9,-6,1,0,0,9,-6,1,0,0,1,138,298,15,1,,,,,,,,
,,,,,,,,,,,,,FF,,,,,,,,0.984,,,,,,,,,,,,,,,,,,,,,,6102f2edaead0032c5054812,61036d44549abd4fa911d14e,2021-07-29_23h09.52.598,Simcolourproject_2stim_asymm_v5,2020.2.10,MacIntel,60,61025ae37ef11b136ea224fe,,,,,,,,,1589,55,-44,1,0,0,response3disk,,5,19,-5,1,0,0,rectangle,19,-5,1,0,0,19,-5,1,0,0,1,139,299,63,1,,,,,,,,
,,,,,,,,,,,,,FF,,,,,,,,1.118,,,,,,,,,,,,,,,,,,,,,,6102f2edaead0032c5054812,61036d44549abd4fa911d14e,2021-07-29_23h09.52.598,Simcolourproject_2stim_asymm_v5,2020.2.10,MacIntel,60,61025ae37ef11b136ea224fe,,,,,,,,,1830,29,-50,1,0,0,response3disk,,4,21,-7,1,0,0,rectangle,21,-7,1,0,0,21,-7,1,0,0,1,140,300,32,1,,,,,,,,
,,,,,,,,,,,,,FF,,,,,,,,1,,,,,,,,,,,,,,,,,,,,,,6102f2edaead0032c5054812,61036d44549abd4fa911d14e,2021-07-29_23h09.52.598,Simcolourproject_2stim_asymm_v5,2020.2.10,MacIntel,60,61025ae37ef11b136ea224fe,,,,,,,,,1067,34,68,1,0,0,response1disk,,7,7,11,1,0,0,rectangle,7,11,1,0,0,7,11,1,0,0,1,141,301,108,1,,,,,,,,
