key_resp.keys,key_resp.rt,key_resp_14.keys,key_resp_14.rt,key_resp_15.keys,key_resp_15.rt,key_resp_17.keys,key_resp_17.rt,key_resp_9.keys,key_resp_9.rt,key_resp_10.keys,key_resp_10.rt,practice_comparison,Ecc,mouse_5.x,mouse_5.y,mouse_5.leftButton,mouse_5.midButton,mouse_5.rightButton,mouse_5.clicked_name,pracsimilarity,response_time,mouse_10.x,mouse_10.y,mouse_10.leftButton,mouse_10.midButton,mouse_10.rightButton,mouse_10.clicked_name,mouse_7.x,mouse_7.y,mouse_7.leftButton,mouse_7.midButton,mouse_7.rightButton,mouse_6.x,mouse_6.y,mouse_6.leftButton,mouse_6.midButton,mouse_6.rightButton,duringprac.thisRepN,duringprac.thisTrialN,duringprac.thisN,duringprac.thisIndex,duringprac.ran,participant,session,date,expName,psychopyVersion,OS,frameRate,study_id,mouse_7.clicked_name,catchpracsimilarity,catch_response_time,catchnumberprac,catchtrialorderprac,mouse_6.clicked_name,key_resp_22.keys,key_resp_22.rt,realcomparison,mouse.x,mouse.y,mouse.leftButton,mouse.midButton,mouse.rightButton,mouse.clicked_name,Colour2,similarity,mouse_2.x,mouse_2.y,mouse_2.leftButton,mouse_2.midButton,mouse_2.rightButton,mouse_2.clicked_name,mouse_3.x,mouse_3.y,mouse_3.leftButton,mouse_3.midButton,mouse_3.rightButton,mouse_3.clicked_name,catchornah,catchsimilarity,catchnumber,catchtrialorder,catchRT,mouse_11.x,mouse_11.y,mouse_11.leftButton,mouse_11.midButton,mouse_11.rightButton,mouse_11.clicked_name,trials_2.thisRepN,trials_2.thisTrialN,trials_2.thisN,trials_2.thisIndex,trials_2.ran,Colour1
space,1.0746,space,23.0448,space,30.3259,space,13.6803,space,1.8002,space,4.4953,119,FF,116.3969727,43.23626709,1,0,0,response1disk_5,6,11.4551,4.224243164,9.461791992,1,0,0,rectangle_8,4.224243164,9.461791992,1,0,0,4.224243164,9.461791992,1,0,0,0,0,0,5,1,6102ffcf0b5c594e388d2d72,610369fd285afe664d9902cf,2021-07-29_19h55.21.686,Simcolourproject_2stim_asymm_v5,2020.2.10,MacIntel,60,61025ae37ef11b136ea224fe,,,,,,,,,,,,,,,,,,,,,,,,,,,,,,,,,,,,,,,,,,,,,,
,,,,,,,,,,,,75,PF,-45.28033447,-82.41210938,1,0,0,response5disk_5,3,3.6813,-1.827514648,5.874969482,1,0,0,rectangle_8,-69.24633789,37.93231201,1,0,0,-3.972717285,6.17388916,1,0,0,0,1,1,4,1,6102ffcf0b5c594e388d2d72,610369fd285afe664d9902cf,2021-07-29_19h55.21.686,Simcolourproject_2stim_asymm_v5,2020.2.10,MacIntel,60,61025ae37ef11b136ea224fe,response7disk_7,1,2.3846,1,"[2,5]",rectangle_4,,,,,,,,,,,,,,,,,,,,,,,,,,,,,,,,,,,,,,,,
,,,,,,,,,,,,84,PF,48.74060059,69.48687744,1,0,0,response1disk_5,7,3.867,3.608947754,-3.819122314,1,0,0,rectangle_8,3.608947754,-3.819122314,1,0,0,3.608947754,-3.819122314,1,0,0,0,2,2,1,1,6102ffcf0b5c594e388d2d72,610369fd285afe664d9902cf,2021-07-29_19h55.21.686,Simcolourproject_2stim_asymm_v5,2020.2.10,MacIntel,60,61025ae37ef11b136ea224fe,,,,,,,,,,,,,,,,,,,,,,,,,,,,,,,,,,,,,,,,,,,,,,
,,,,,,,,,,,,28,FF,-46.16748047,-72.12945557,1,0,0,response5disk_5,3,4.117,4.868530273,6.232788086,1,0,0,rectangle_8,4.868530273,6.232788086,1,0,0,4.868530273,6.232788086,1,0,0,0,3,3,3,1,6102ffcf0b5c594e388d2d72,610369fd285afe664d9902cf,2021-07-29_19h55.21.686,Simcolourproject_2stim_asymm_v5,2020.2.10,MacIntel,60,61025ae37ef11b136ea224fe,,,,,,,,,,,,,,,,,,,,,,,,,,,,,,,,,,,,,,,,,,,,,,
,,,,,,,,,,,,132,FF,41.41955566,69.8354187,1,0,0,response1disk_5,7,1.401,11.22253418,-2.548980713,1,0,0,rectangle_8,-83.40600586,36.43377686,1,0,0,-7.250366211,-2.008911133,1,0,0,0,4,4,0,1,6102ffcf0b5c594e388d2d72,610369fd285afe664d9902cf,2021-07-29_19h55.21.686,Simcolourproject_2stim_asymm_v5,2020.2.10,MacIntel,60,61025ae37ef11b136ea224fe,response7disk_7,1,1.8496,1,"[2,5]",rectangle_4,,,,,,,,,,,,,,,,,,,,,,,,,,,,,,,,,,,,,,,,
,,,,,,,,,,,,88,PF,49.39111328,93.92184448,1,0,0,response1disk_5,7,0.9494,-2.308532715,-4.16418457,1,0,0,rectangle_8,-2.308532715,-4.16418457,1,0,0,-2.308532715,-4.16418457,1,0,0,0,5,5,6,1,6102ffcf0b5c594e388d2d72,610369fd285afe664d9902cf,2021-07-29_19h55.21.686,Simcolourproject_2stim_asymm_v5,2020.2.10,MacIntel,60,61025ae37ef11b136ea224fe,,,,,,,,,,,,,,,,,,,,,,,,,,,,,,,,,,,,,,,,,,,,,,
,,,,,,,,,,,,142,PF,72.02514648,-47.4079895,1,0,0,response3disk_5,5,3.6822,7.374389648,8.056030273,1,0,0,rectangle_8,7.374389648,8.056030273,1,0,0,7.374389648,8.056030273,1,0,0,0,6,6,2,1,6102ffcf0b5c594e388d2d72,610369fd285afe664d9902cf,2021-07-29_19h55.21.686,Simcolourproject_2stim_asymm_v5,2020.2.10,MacIntel,60,61025ae37ef11b136ea224fe,,,,,,,,,,,,,,,,,,,,,,,,,,,,,,,,,,,,,,,,,,,,,,
,,,,,,,,,,,,,FF,,,,,,,,2.7164,,,,,,,,,,,,,,,,,,,,,,6102ffcf0b5c594e388d2d72,610369fd285afe664d9902cf,2021-07-29_19h55.21.686,Simcolourproject_2stim_asymm_v5,2020.2.10,MacIntel,60,61025ae37ef11b136ea224fe,,,,,,,space,2.111,558,42.07373047,-78.68823242,1,0,0,response3disk,,4,2.053100586,1.658477783,1,0,0,rectangle,-36.41577148,91.09811401,1,0,0,response7disk_3,TRUE,0,0,"[142,149,1,62,143,243,11,302,63,292,92,271,1,130,216,277,206,292,322,132]",2.0504,-6.766967773,4.908874512,1,0,0,rectangle,0,0,0,50,1,
,,,,,,,,,,,,,FF,,,,,,,,2.3657,,,,,,,,,,,,,,,,,,,,,,6102ffcf0b5c594e388d2d72,610369fd285afe664d9902cf,2021-07-29_19h55.21.686,Simcolourproject_2stim_asymm_v5,2020.2.10,MacIntel,60,61025ae37ef11b136ea224fe,,,,,,,,,81,101.4265137,35.07687378,1,0,0,response1disk,,6,7.503662109,4.506256104,1,0,0,rectangle,7.503662109,4.506256104,1,0,0,,,,,,,7.503662109,4.506256104,1,0,0,,0,1,1,150,1,
,,,,,,,,,,,,,FF,,,,,,,,0.9329,,,,,,,,,,,,,,,,,,,,,,6102ffcf0b5c594e388d2d72,610369fd285afe664d9902cf,2021-07-29_19h55.21.686,Simcolourproject_2stim_asymm_v5,2020.2.10,MacIntel,60,61025ae37ef11b136ea224fe,,,,,,,,,2133,25.61999512,73.24230957,1,0,0,response1disk,,7,2.606933594,-3.49520874,1,0,0,rectangle,2.606933594,-3.49520874,1,0,0,,,,,,,2.606933594,-3.49520874,1,0,0,,0,2,2,112,1,
,,,,,,,,,,,,,FF,,,,,,,,1.7496,,,,,,,,,,,,,,,,,,,,,,6102ffcf0b5c594e388d2d72,610369fd285afe664d9902cf,2021-07-29_19h55.21.686,Simcolourproject_2stim_asymm_v5,2020.2.10,MacIntel,60,61025ae37ef11b136ea224fe,,,,,,,,,4061,66.02069092,-82.71459961,1,0,0,response3disk,,4,0.426513672,-3.777526855,1,0,0,rectangle,0.426513672,-3.777526855,1,0,0,,,,,,,0.426513672,-3.777526855,1,0,0,,0,3,3,76,1,
,,,,,,,,,,,,,FF,,,,,,,,3.0155,,,,,,,,,,,,,,,,,,,,,,6102ffcf0b5c594e388d2d72,610369fd285afe664d9902cf,2021-07-29_19h55.21.686,Simcolourproject_2stim_asymm_v5,2020.2.10,MacIntel,60,61025ae37ef11b136ea224fe,,,,,,,,,2351,88.03796387,-36.38201904,1,0,0,response3disk,,5,10.4644165,5.887542725,1,0,0,rectangle,10.4644165,5.887542725,1,0,0,,,,,,,10.4644165,5.887542725,1,0,0,,0,4,4,32,1,
,,,,,,,,,,,,,FF,,,,,,,,1.3173,,,,,,,,,,,,,,,,,,,,,,6102ffcf0b5c594e388d2d72,610369fd285afe664d9902cf,2021-07-29_19h55.21.686,Simcolourproject_2stim_asymm_v5,2020.2.10,MacIntel,60,61025ae37ef11b136ea224fe,,,,,,,,,1272,28.93261719,76.01812744,1,0,0,response1disk,,7,-9.80267334,-9.385223389,1,0,0,rectangle,-9.80267334,-9.385223389,1,0,0,,,,,,,-9.80267334,-9.385223389,1,0,0,,0,5,5,83,1,
,,,,,,,,,,,,,FF,,,,,,,,1.7693,,,,,,,,,,,,,,,,,,,,,,6102ffcf0b5c594e388d2d72,610369fd285afe664d9902cf,2021-07-29_19h55.21.686,Simcolourproject_2stim_asymm_v5,2020.2.10,MacIntel,60,61025ae37ef11b136ea224fe,,,,,,,,,4276,76.2444458,-46.76147461,1,0,0,response3disk,,5,2.719909668,1.500762939,1,0,0,rectangle,2.719909668,1.500762939,1,0,0,,,,,,,2.719909668,1.500762939,1,0,0,,0,6,6,67,1,
,,,,,,,,,,,,,FF,,,,,,,,1.0516,,,,,,,,,,,,,,,,,,,,,,6102ffcf0b5c594e388d2d72,610369fd285afe664d9902cf,2021-07-29_19h55.21.686,Simcolourproject_2stim_asymm_v5,2020.2.10,MacIntel,60,61025ae37ef11b136ea224fe,,,,,,,,,1009,42.18231201,82.41445923,1,0,0,response1disk,,7,17.7442627,11.58197021,1,0,0,rectangle,17.7442627,11.58197021,1,0,0,,,,,,,17.7442627,11.58197021,1,0,0,,0,7,7,10,1,
,,,,,,,,,,,,,FF,,,,,,,,1.9149,,,,,,,,,,,,,,,,,,,,,,6102ffcf0b5c594e388d2d72,610369fd285afe664d9902cf,2021-07-29_19h55.21.686,Simcolourproject_2stim_asymm_v5,2020.2.10,MacIntel,60,61025ae37ef11b136ea224fe,,,,,,,,,2673,68.85205078,32.05926514,1,0,0,response1disk,,6,-14.45556641,-3.791625977,1,0,0,rectangle,-14.45556641,-3.791625977,1,0,0,,,,,,,-14.45556641,-3.791625977,1,0,0,,0,8,8,98,1,
,,,,,,,,,,,,,FF,,,,,,,,0.9827,,,,,,,,,,,,,,,,,,,,,,6102ffcf0b5c594e388d2d72,610369fd285afe664d9902cf,2021-07-29_19h55.21.686,Simcolourproject_2stim_asymm_v5,2020.2.10,MacIntel,60,61025ae37ef11b136ea224fe,,,,,,,,,303,45.09741211,81.86221313,1,0,0,response1disk,,7,7.493225098,-4.523986816,1,0,0,rectangle,7.493225098,-4.523986816,1,0,0,,,,,,,7.493225098,-4.523986816,1,0,0,,0,9,9,91,1,
,,,,,,,,,,,,,FF,,,,,,,,1.1668,,,,,,,,,,,,,,,,,,,,,,6102ffcf0b5c594e388d2d72,610369fd285afe664d9902cf,2021-07-29_19h55.21.686,Simcolourproject_2stim_asymm_v5,2020.2.10,MacIntel,60,61025ae37ef11b136ea224fe,,,,,,,,,4246,53.76092529,-38.34631348,1,0,0,response3disk,,5,7.507629395,1.41217041,1,0,0,rectangle,29.90618896,-78.4239502,1,0,0,response3disk_3,TRUE,4,4,"[142,149,1,62,143,243,11,302,63,292,92,271,1,130,216,277,206,292,322,132]",1.8332,6.52545166,-5.173370361,1,0,0,rectangle,0,10,10,114,1,
,,,,,,,,,,,,,FF,,,,,,,,0.8673,,,,,,,,,,,,,,,,,,,,,,6102ffcf0b5c594e388d2d72,610369fd285afe664d9902cf,2021-07-29_19h55.21.686,Simcolourproject_2stim_asymm_v5,2020.2.10,MacIntel,60,61025ae37ef11b136ea224fe,,,,,,,,,963,51.88726807,85.9708252,1,0,0,response1disk,,7,12.41033936,-4.368591309,1,0,0,rectangle,12.41033936,-4.368591309,1,0,0,,,,,,,12.41033936,-4.368591309,1,0,0,,0,11,11,128,1,
,,,,,,,,,,,,,FF,,,,,,,,1.4506,,,,,,,,,,,,,,,,,,,,,,6102ffcf0b5c594e388d2d72,610369fd285afe664d9902cf,2021-07-29_19h55.21.686,Simcolourproject_2stim_asymm_v5,2020.2.10,MacIntel,60,61025ae37ef11b136ea224fe,,,,,,,,,2611,95.59863281,-52.15127563,1,0,0,response3disk,,5,8.586669922,-0.107788086,1,0,0,rectangle,8.586669922,-0.107788086,1,0,0,,,,,,,8.586669922,-0.107788086,1,0,0,,0,12,12,45,1,
,,,,,,,,,,,,,FF,,,,,,,,0.7015,,,,,,,,,,,,,,,,,,,,,,6102ffcf0b5c594e388d2d72,610369fd285afe664d9902cf,2021-07-29_19h55.21.686,Simcolourproject_2stim_asymm_v5,2020.2.10,MacIntel,60,61025ae37ef11b136ea224fe,,,,,,,,,3222,36.65710449,114.6448669,1,0,0,response1disk,,7,-11.20239258,-3.035858154,1,0,0,rectangle,-11.20239258,-3.035858154,1,0,0,,,,,,,-11.20239258,-3.035858154,1,0,0,,0,13,13,63,1,
,,,,,,,,,,,,,FF,,,,,,,,3.2666,,,,,,,,,,,,,,,,,,,,,,6102ffcf0b5c594e388d2d72,610369fd285afe664d9902cf,2021-07-29_19h55.21.686,Simcolourproject_2stim_asymm_v5,2020.2.10,MacIntel,60,61025ae37ef11b136ea224fe,,,,,,,,,819,85.86340332,55.99118042,1,0,0,response1disk,,6,7.019470215,-10.30636597,1,0,0,rectangle,7.019470215,-10.30636597,1,0,0,,,,,,,7.019470215,-10.30636597,1,0,0,,0,14,14,0,1,
,,,,,,,,,,,,,FF,,,,,,,,2.334,,,,,,,,,,,,,,,,,,,,,,6102ffcf0b5c594e388d2d72,610369fd285afe664d9902cf,2021-07-29_19h55.21.686,Simcolourproject_2stim_asymm_v5,2020.2.10,MacIntel,60,61025ae37ef11b136ea224fe,,,,,,,,,2595,86.17492676,-43.95355225,1,0,0,response3disk,,5,-7.489501953,-1.411132813,1,0,0,rectangle,-7.489501953,-1.411132813,1,0,0,,,,,,,-7.489501953,-1.411132813,1,0,0,,0,15,15,2,1,
,,,,,,,,,,,,,FF,,,,,,,,0.8002,,,,,,,,,,,,,,,,,,,,,,6102ffcf0b5c594e388d2d72,610369fd285afe664d9902cf,2021-07-29_19h55.21.686,Simcolourproject_2stim_asymm_v5,2020.2.10,MacIntel,60,61025ae37ef11b136ea224fe,,,,,,,,,2928,80.8046875,46.54800415,1,0,0,response1disk,,6,12.72235107,1.768493652,1,0,0,rectangle,12.72235107,1.768493652,1,0,0,,,,,,,12.72235107,1.768493652,1,0,0,,0,16,16,79,1,
,,,,,,,,,,,,,FF,,,,,,,,0.8361,,,,,,,,,,,,,,,,,,,,,,6102ffcf0b5c594e388d2d72,610369fd285afe664d9902cf,2021-07-29_19h55.21.686,Simcolourproject_2stim_asymm_v5,2020.2.10,MacIntel,60,61025ae37ef11b136ea224fe,,,,,,,,,310,37.6072998,72.74899292,1,0,0,response1disk,,7,6.899291992,-0.500030518,1,0,0,rectangle,6.899291992,-0.500030518,1,0,0,,,,,,,6.899291992,-0.500030518,1,0,0,,0,17,17,62,1,
,,,,,,,,,,,,,FF,,,,,,,,0.9829,,,,,,,,,,,,,,,,,,,,,,6102ffcf0b5c594e388d2d72,610369fd285afe664d9902cf,2021-07-29_19h55.21.686,Simcolourproject_2stim_asymm_v5,2020.2.10,MacIntel,60,61025ae37ef11b136ea224fe,,,,,,,,,1311,50.85028076,-66.40527344,1,0,0,response3disk,,4,-12.28479004,-9.221343994,1,0,0,rectangle,-12.28479004,-9.221343994,1,0,0,,,,,,,-12.28479004,-9.221343994,1,0,0,,0,18,18,115,1,
,,,,,,,,,,,,,FF,,,,,,,,0.752,,,,,,,,,,,,,,,,,,,,,,6102ffcf0b5c594e388d2d72,610369fd285afe664d9902cf,2021-07-29_19h55.21.686,Simcolourproject_2stim_asymm_v5,2020.2.10,MacIntel,60,61025ae37ef11b136ea224fe,,,,,,,,,1175,54.22149658,106.671936,1,0,0,response1disk,,7,-8.28515625,-2.914337158,1,0,0,rectangle,-8.28515625,-2.914337158,1,0,0,,,,,,,-8.28515625,-2.914337158,1,0,0,,0,19,19,113,1,
,,,,,,,,,,,,,FF,,,,,,,,0.8192,,,,,,,,,,,,,,,,,,,,,,6102ffcf0b5c594e388d2d72,610369fd285afe664d9902cf,2021-07-29_19h55.21.686,Simcolourproject_2stim_asymm_v5,2020.2.10,MacIntel,60,61025ae37ef11b136ea224fe,,,,,,,,,2305,77.74664307,-43.87097168,1,0,0,response3disk,,5,-11.54949951,-4.0390625,1,0,0,rectangle,-11.54949951,-4.0390625,1,0,0,,,,,,,-11.54949951,-4.0390625,1,0,0,,0,20,20,68,1,
,,,,,,,,,,,,,FF,,,,,,,,0.5837,,,,,,,,,,,,,,,,,,,,,,6102ffcf0b5c594e388d2d72,610369fd285afe664d9902cf,2021-07-29_19h55.21.686,Simcolourproject_2stim_asymm_v5,2020.2.10,MacIntel,60,61025ae37ef11b136ea224fe,,,,,,,,,3957,47.51019287,89.45132446,1,0,0,response1disk,,7,7.358703613,5.987640381,1,0,0,rectangle,7.358703613,5.987640381,1,0,0,,,,,,,7.358703613,5.987640381,1,0,0,,0,21,21,141,1,
,,,,,,,,,,,,,FF,,,,,,,,1.0313,,,,,,,,,,,,,,,,,,,,,,6102ffcf0b5c594e388d2d72,610369fd285afe664d9902cf,2021-07-29_19h55.21.686,Simcolourproject_2stim_asymm_v5,2020.2.10,MacIntel,60,61025ae37ef11b136ea224fe,,,,,,,,,1193,104.600708,-35.92254639,1,0,0,response3disk,,5,10.71520996,-1.145202637,1,0,0,rectangle,10.71520996,-1.145202637,1,0,0,,,,,,,10.71520996,-1.145202637,1,0,0,,0,22,22,23,1,
,,,,,,,,,,,,,FF,,,,,,,,0.7685,,,,,,,,,,,,,,,,,,,,,,6102ffcf0b5c594e388d2d72,610369fd285afe664d9902cf,2021-07-29_19h55.21.686,Simcolourproject_2stim_asymm_v5,2020.2.10,MacIntel,60,61025ae37ef11b136ea224fe,,,,,,,,,876,39.73516846,84.35562134,1,0,0,response1disk,,7,-9.24987793,-2.925872803,1,0,0,rectangle,-9.24987793,-2.925872803,1,0,0,,,,,,,-9.24987793,-2.925872803,1,0,0,,0,23,23,135,1,
,,,,,,,,,,,,,FF,,,,,,,,1.2821,,,,,,,,,,,,,,,,,,,,,,6102ffcf0b5c594e388d2d72,610369fd285afe664d9902cf,2021-07-29_19h55.21.686,Simcolourproject_2stim_asymm_v5,2020.2.10,MacIntel,60,61025ae37ef11b136ea224fe,,,,,,,,,2958,53.37854004,70.43603516,1,0,0,response1disk,,7,-2.217407227,2.416381836,1,0,0,rectangle,-2.217407227,2.416381836,1,0,0,,,,,,,-2.217407227,2.416381836,1,0,0,,0,24,24,100,1,
,,,,,,,,,,,,,FF,,,,,,,,0.7336,,,,,,,,,,,,,,,,,,,,,,6102ffcf0b5c594e388d2d72,610369fd285afe664d9902cf,2021-07-29_19h55.21.686,Simcolourproject_2stim_asymm_v5,2020.2.10,MacIntel,60,61025ae37ef11b136ea224fe,,,,,,,,,214,53.16156006,96.55453491,1,0,0,response1disk,,7,-6.931396484,-9.138366699,1,0,0,rectangle,-6.931396484,-9.138366699,1,0,0,,,,,,,-6.931396484,-9.138366699,1,0,0,,0,25,25,11,1,
,,,,,,,,,,,,,FF,,,,,,,,1.05,,,,,,,,,,,,,,,,,,,,,,6102ffcf0b5c594e388d2d72,610369fd285afe664d9902cf,2021-07-29_19h55.21.686,Simcolourproject_2stim_asymm_v5,2020.2.10,MacIntel,60,61025ae37ef11b136ea224fe,,,,,,,,,3349,25.99414063,74.8302002,1,0,0,response1disk,,7,-29.4677124,-12.26907349,1,0,0,rectangle,-29.4677124,-12.26907349,1,0,0,,,,,,,-29.4677124,-12.26907349,1,0,0,,0,26,26,75,1,
,,,,,,,,,,,,,FF,,,,,,,,0.635,,,,,,,,,,,,,,,,,,,,,,6102ffcf0b5c594e388d2d72,610369fd285afe664d9902cf,2021-07-29_19h55.21.686,Simcolourproject_2stim_asymm_v5,2020.2.10,MacIntel,60,61025ae37ef11b136ea224fe,,,,,,,,,302,68.95245361,87.6789856,1,0,0,response1disk,,7,9.391540527,-11.64828491,1,0,0,rectangle,9.391540527,-11.64828491,1,0,0,,,,,,,9.391540527,-11.64828491,1,0,0,,0,27,27,43,1,
,,,,,,,,,,,,,FF,,,,,,,,0.5479,,,,,,,,,,,,,,,,,,,,,,6102ffcf0b5c594e388d2d72,610369fd285afe664d9902cf,2021-07-29_19h55.21.686,Simcolourproject_2stim_asymm_v5,2020.2.10,MacIntel,60,61025ae37ef11b136ea224fe,,,,,,,,,3680,88.50109863,44.89639282,1,0,0,response1disk,,6,6.29296875,0.619934082,1,0,0,rectangle,6.29296875,0.619934082,1,0,0,,,,,,,6.29296875,0.619934082,1,0,0,,0,28,28,41,1,
,,,,,,,,,,,,,FF,,,,,,,,1.0335,,,,,,,,,,,,,,,,,,,,,,6102ffcf0b5c594e388d2d72,610369fd285afe664d9902cf,2021-07-29_19h55.21.686,Simcolourproject_2stim_asymm_v5,2020.2.10,MacIntel,60,61025ae37ef11b136ea224fe,,,,,,,,,811,49.37890625,103.3978271,1,0,0,response1disk,,7,2.720581055,-1.158843994,1,0,0,rectangle,2.720581055,-1.158843994,1,0,0,,,,,,,2.720581055,-1.158843994,1,0,0,,0,29,29,129,1,
,,,,,,,,,,,,,FF,,,,,,,,0.8508,,,,,,,,,,,,,,,,,,,,,,6102ffcf0b5c594e388d2d72,610369fd285afe664d9902cf,2021-07-29_19h55.21.686,Simcolourproject_2stim_asymm_v5,2020.2.10,MacIntel,60,61025ae37ef11b136ea224fe,,,,,,,,,1200,67.35357666,44.21411133,1,0,0,response1disk,,6,2.872741699,-13.79992676,1,0,0,rectangle,2.872741699,-13.79992676,1,0,0,,,,,,,2.872741699,-13.79992676,1,0,0,,0,30,30,89,1,
,,,,,,,,,,,,,FF,,,,,,,,0.8522,,,,,,,,,,,,,,,,,,,,,,6102ffcf0b5c594e388d2d72,610369fd285afe664d9902cf,2021-07-29_19h55.21.686,Simcolourproject_2stim_asymm_v5,2020.2.10,MacIntel,60,61025ae37ef11b136ea224fe,,,,,,,,,2192,46.04321289,68.08139038,1,0,0,response1disk,,7,3.34765625,2.251220703,1,0,0,rectangle,3.34765625,2.251220703,1,0,0,,,,,,,3.34765625,2.251220703,1,0,0,,0,31,31,54,1,
,,,,,,,,,,,,,FF,,,,,,,,1.0169,,,,,,,,,,,,,,,,,,,,,,6102ffcf0b5c594e388d2d72,610369fd285afe664d9902cf,2021-07-29_19h55.21.686,Simcolourproject_2stim_asymm_v5,2020.2.10,MacIntel,60,61025ae37ef11b136ea224fe,,,,,,,,,4260,81.30047607,38.54696655,1,0,0,response1disk,,6,25.2434082,-1.265960693,1,0,0,rectangle,25.2434082,-1.265960693,1,0,0,,,,,,,25.2434082,-1.265960693,1,0,0,,0,32,32,121,1,
,,,,,,,,,,,,,FF,,,,,,,,0.534,,,,,,,,,,,,,,,,,,,,,,6102ffcf0b5c594e388d2d72,610369fd285afe664d9902cf,2021-07-29_19h55.21.686,Simcolourproject_2stim_asymm_v5,2020.2.10,MacIntel,60,61025ae37ef11b136ea224fe,,,,,,,,,780,71.8394165,40.28366089,1,0,0,response1disk,,6,-1.015258789,-5.128997803,1,0,0,rectangle,-1.015258789,-5.128997803,1,0,0,,,,,,,-1.015258789,-5.128997803,1,0,0,,0,33,33,20,1,
,,,,,,,,,,,,,FF,,,,,,,,1.1841,,,,,,,,,,,,,,,,,,,,,,6102ffcf0b5c594e388d2d72,610369fd285afe664d9902cf,2021-07-29_19h55.21.686,Simcolourproject_2stim_asymm_v5,2020.2.10,MacIntel,60,61025ae37ef11b136ea224fe,,,,,,,,,2,-43.06408691,-63.71258545,1,0,0,response5disk,,3,-13.16674805,-16.97143555,1,0,0,rectangle,-13.16674805,-16.97143555,1,0,0,,,,,,,-13.16674805,-16.97143555,1,0,0,,0,34,34,122,1,
,,,,,,,,,,,,,FF,,,,,,,,1.183,,,,,,,,,,,,,,,,,,,,,,6102ffcf0b5c594e388d2d72,610369fd285afe664d9902cf,2021-07-29_19h55.21.686,Simcolourproject_2stim_asymm_v5,2020.2.10,MacIntel,60,61025ae37ef11b136ea224fe,,,,,,,,,3147,-70.88128662,-32.11953735,1,0,0,response5disk,,2,-8.080566406,-6.595062256,1,0,0,rectangle,-8.080566406,-6.595062256,1,0,0,,,,,,,-8.080566406,-6.595062256,1,0,0,,0,35,35,12,1,
,,,,,,,,,,,,,FF,,,,,,,,1.2847,,,,,,,,,,,,,,,,,,,,,,6102ffcf0b5c594e388d2d72,610369fd285afe664d9902cf,2021-07-29_19h55.21.686,Simcolourproject_2stim_asymm_v5,2020.2.10,MacIntel,60,61025ae37ef11b136ea224fe,,,,,,,,,983,78.72491455,42.85360718,1,0,0,response1disk,,6,3.080932617,-12.36456299,1,0,0,rectangle,3.080932617,-12.36456299,1,0,0,,,,,,,3.080932617,-12.36456299,1,0,0,,0,36,36,153,1,
,,,,,,,,,,,,,FF,,,,,,,,1.1145,,,,,,,,,,,,,,,,,,,,,,6102ffcf0b5c594e388d2d72,610369fd285afe664d9902cf,2021-07-29_19h55.21.686,Simcolourproject_2stim_asymm_v5,2020.2.10,MacIntel,60,61025ae37ef11b136ea224fe,,,,,,,,,3591,-78.6328125,20.21051025,1,0,0,response7disk,,1,3.79864502,-0.618255615,1,0,0,rectangle,3.79864502,-0.618255615,1,0,0,,,,,,,3.79864502,-0.618255615,1,0,0,,0,37,37,35,1,
,,,,,,,,,,,,,FF,,,,,,,,1.7985,,,,,,,,,,,,,,,,,,,,,,6102ffcf0b5c594e388d2d72,610369fd285afe664d9902cf,2021-07-29_19h55.21.686,Simcolourproject_2stim_asymm_v5,2020.2.10,MacIntel,60,61025ae37ef11b136ea224fe,,,,,,,,,465,74.43499756,44.96981812,1,0,0,response1disk,,6,4.448852539,-1.349334717,1,0,0,rectangle,4.448852539,-1.349334717,1,0,0,,,,,,,4.448852539,-1.349334717,1,0,0,,0,38,38,71,1,
,,,,,,,,,,,,,FF,,,,,,,,1.6998,,,,,,,,,,,,,,,,,,,,,,6102ffcf0b5c594e388d2d72,610369fd285afe664d9902cf,2021-07-29_19h55.21.686,Simcolourproject_2stim_asymm_v5,2020.2.10,MacIntel,60,61025ae37ef11b136ea224fe,,,,,,,,,1545,92.80578613,40.11135864,1,0,0,response1disk,,6,30.66430664,-4.500518799,1,0,0,rectangle,30.66430664,-4.500518799,1,0,0,,,,,,,30.66430664,-4.500518799,1,0,0,,0,39,39,58,1,
,,,,,,,,,,,,,FF,,,,,,,,1.2359,,,,,,,,,,,,,,,,,,,,,,6102ffcf0b5c594e388d2d72,610369fd285afe664d9902cf,2021-07-29_19h55.21.686,Simcolourproject_2stim_asymm_v5,2020.2.10,MacIntel,60,61025ae37ef11b136ea224fe,,,,,,,,,2033,-74.27545166,-42.06933594,1,0,0,response5disk,,2,-3.474365234,-6.839294434,1,0,0,rectangle,-3.474365234,-6.839294434,1,0,0,,,,,,,-3.474365234,-6.839294434,1,0,0,,0,40,40,56,1,
,,,,,,,,,,,,,FF,,,,,,,,0.6006,,,,,,,,,,,,,,,,,,,,,,6102ffcf0b5c594e388d2d72,610369fd285afe664d9902cf,2021-07-29_19h55.21.686,Simcolourproject_2stim_asymm_v5,2020.2.10,MacIntel,60,61025ae37ef11b136ea224fe,,,,,,,,,1648,35.38903809,52.80380249,1,0,0,response1disk,,7,7.626098633,5.17098999,1,0,0,rectangle,7.626098633,5.17098999,1,0,0,,,,,,,7.626098633,5.17098999,1,0,0,,0,41,41,105,1,
,,,,,,,,,,,,,FF,,,,,,,,0.5804,,,,,,,,,,,,,,,,,,,,,,6102ffcf0b5c594e388d2d72,610369fd285afe664d9902cf,2021-07-29_19h55.21.686,Simcolourproject_2stim_asymm_v5,2020.2.10,MacIntel,60,61025ae37ef11b136ea224fe,,,,,,,,,2436,47.67285156,109.0747681,1,0,0,response1disk,,7,0.030517578,5.298400879,1,0,0,rectangle,0.030517578,5.298400879,1,0,0,,,,,,,0.030517578,5.298400879,1,0,0,,0,42,42,3,1,
,,,,,,,,,,,,,FF,,,,,,,,0.85,,,,,,,,,,,,,,,,,,,,,,6102ffcf0b5c594e388d2d72,610369fd285afe664d9902cf,2021-07-29_19h55.21.686,Simcolourproject_2stim_asymm_v5,2020.2.10,MacIntel,60,61025ae37ef11b136ea224fe,,,,,,,,,3154,-48.57800293,-83.57720947,1,0,0,response5disk,,3,6.785400391,-13.55877686,1,0,0,rectangle,6.785400391,-13.55877686,1,0,0,,,,,,,6.785400391,-13.55877686,1,0,0,,0,43,43,103,1,
,,,,,,,,,,,,,FF,,,,,,,,1.1809,,,,,,,,,,,,,,,,,,,,,,6102ffcf0b5c594e388d2d72,610369fd285afe664d9902cf,2021-07-29_19h55.21.686,Simcolourproject_2stim_asymm_v5,2020.2.10,MacIntel,60,61025ae37ef11b136ea224fe,,,,,,,,,2042,76.35644531,-33.37252808,1,0,0,response3disk,,5,4.843017578,-7.251495361,1,0,0,rectangle,4.843017578,-7.251495361,1,0,0,,,,,,,4.843017578,-7.251495361,1,0,0,,0,44,44,157,1,
,,,,,,,,,,,,,FF,,,,,,,,1.2002,,,,,,,,,,,,,,,,,,,,,,6102ffcf0b5c594e388d2d72,610369fd285afe664d9902cf,2021-07-29_19h55.21.686,Simcolourproject_2stim_asymm_v5,2020.2.10,MacIntel,60,61025ae37ef11b136ea224fe,,,,,,,,,2898,38.50964355,-63.43737793,1,0,0,response3disk,,4,15.42663574,-0.314605713,1,0,0,rectangle,15.42663574,-0.314605713,1,0,0,,,,,,,15.42663574,-0.314605713,1,0,0,,0,45,45,86,1,
,,,,,,,,,,,,,FF,,,,,,,,0.7337,,,,,,,,,,,,,,,,,,,,,,6102ffcf0b5c594e388d2d72,610369fd285afe664d9902cf,2021-07-29_19h55.21.686,Simcolourproject_2stim_asymm_v5,2020.2.10,MacIntel,60,61025ae37ef11b136ea224fe,,,,,,,,,3303,74.56329346,53.37557983,1,0,0,response1disk,,6,17.4317627,5.202606201,1,0,0,rectangle,17.4317627,5.202606201,1,0,0,,,,,,,17.4317627,5.202606201,1,0,0,,0,46,46,145,1,
,,,,,,,,,,,,,FF,,,,,,,,0.982,,,,,,,,,,,,,,,,,,,,,,6102ffcf0b5c594e388d2d72,610369fd285afe664d9902cf,2021-07-29_19h55.21.686,Simcolourproject_2stim_asymm_v5,2020.2.10,MacIntel,60,61025ae37ef11b136ea224fe,,,,,,,,,1264,86.92004395,60.84524536,1,0,0,response1disk,,6,8.559570313,-0.989868164,1,0,0,rectangle,8.559570313,-0.989868164,1,0,0,,,,,,,8.559570313,-0.989868164,1,0,0,,0,47,47,47,1,
,,,,,,,,,,,,,FF,,,,,,,,1.3175,,,,,,,,,,,,,,,,,,,,,,6102ffcf0b5c594e388d2d72,610369fd285afe664d9902cf,2021-07-29_19h55.21.686,Simcolourproject_2stim_asymm_v5,2020.2.10,MacIntel,60,61025ae37ef11b136ea224fe,,,,,,,,,2566,74.40026855,39.6781311,1,0,0,response1disk,,6,14.62945557,12.06185913,1,0,0,rectangle,14.62945557,12.06185913,1,0,0,,,,,,,14.62945557,12.06185913,1,0,0,,0,48,48,147,1,
,,,,,,,,,,,,,FF,,,,,,,,0.7532,,,,,,,,,,,,,,,,,,,,,,6102ffcf0b5c594e388d2d72,610369fd285afe664d9902cf,2021-07-29_19h55.21.686,Simcolourproject_2stim_asymm_v5,2020.2.10,MacIntel,60,61025ae37ef11b136ea224fe,,,,,,,,,2470,40.06060791,106.3105469,1,0,0,response1disk,,7,12.28161621,9.350463867,1,0,0,rectangle,12.28161621,9.350463867,1,0,0,,,,,,,12.28161621,9.350463867,1,0,0,,0,49,49,110,1,
,,,,,,,,,,,,,FF,,,,,,,,1.4673,,,,,,,,,,,,,,,,,,,,,,6102ffcf0b5c594e388d2d72,610369fd285afe664d9902cf,2021-07-29_19h55.21.686,Simcolourproject_2stim_asymm_v5,2020.2.10,MacIntel,60,61025ae37ef11b136ea224fe,,,,,,,,,3424,73.78704834,-53.38745117,1,0,0,response3disk,,5,2.313476563,-8.658203125,1,0,0,rectangle,2.313476563,-8.658203125,1,0,0,,,,,,,2.313476563,-8.658203125,1,0,0,,0,50,50,19,1,
,,,,,,,,,,,,,FF,,,,,,,,1.0494,,,,,,,,,,,,,,,,,,,,,,6102ffcf0b5c594e388d2d72,610369fd285afe664d9902cf,2021-07-29_19h55.21.686,Simcolourproject_2stim_asymm_v5,2020.2.10,MacIntel,60,61025ae37ef11b136ea224fe,,,,,,,,,2093,-68.18151855,42.01052856,1,0,0,response7disk,,1,3.989074707,-14.23495483,1,0,0,rectangle,3.989074707,-14.23495483,1,0,0,,,,,,,3.989074707,-14.23495483,1,0,0,,0,51,51,95,1,
,,,,,,,,,,,,,FF,,,,,,,,1.1176,,,,,,,,,,,,,,,,,,,,,,6102ffcf0b5c594e388d2d72,610369fd285afe664d9902cf,2021-07-29_19h55.21.686,Simcolourproject_2stim_asymm_v5,2020.2.10,MacIntel,60,61025ae37ef11b136ea224fe,,,,,,,,,733,58.50439453,-42.90460205,1,0,0,response3disk,,5,11.78656006,-10.82406616,1,0,0,rectangle,11.78656006,-10.82406616,1,0,0,,,,,,,11.78656006,-10.82406616,1,0,0,,0,52,52,151,1,
,,,,,,,,,,,,,FF,,,,,,,,0.8338,,,,,,,,,,,,,,,,,,,,,,6102ffcf0b5c594e388d2d72,610369fd285afe664d9902cf,2021-07-29_19h55.21.686,Simcolourproject_2stim_asymm_v5,2020.2.10,MacIntel,60,61025ae37ef11b136ea224fe,,,,,,,,,3054,-64.67407227,-80.0927124,1,0,0,response5disk,,3,-11.28546143,-5.535217285,1,0,0,rectangle,-11.28546143,-5.535217285,1,0,0,,,,,,,-11.28546143,-5.535217285,1,0,0,,0,53,53,146,1,
,,,,,,,,,,,,,FF,,,,,,,,0.6512,,,,,,,,,,,,,,,,,,,,,,6102ffcf0b5c594e388d2d72,610369fd285afe664d9902cf,2021-07-29_19h55.21.686,Simcolourproject_2stim_asymm_v5,2020.2.10,MacIntel,60,61025ae37ef11b136ea224fe,,,,,,,,,4037,47.47949219,75.14776611,1,0,0,response1disk,,7,8.735961914,5.883178711,1,0,0,rectangle,8.735961914,5.883178711,1,0,0,,,,,,,8.735961914,5.883178711,1,0,0,,0,54,54,109,1,
,,,,,,,,,,,,,FF,,,,,,,,6.55,,,,,,,,,,,,,,,,,,,,,,6102ffcf0b5c594e388d2d72,610369fd285afe664d9902cf,2021-07-29_19h55.21.686,Simcolourproject_2stim_asymm_v5,2020.2.10,MacIntel,60,61025ae37ef11b136ea224fe,,,,,,,,,3592,57.85656738,88.40020752,1,0,0,response1disk,,7,6.211669922,1.13104248,1,0,0,rectangle,6.211669922,1.13104248,1,0,0,,,,,,,6.211669922,1.13104248,1,0,0,,0,55,55,120,1,
,,,,,,,,,,,,,FF,,,,,,,,0.5503,,,,,,,,,,,,,,,,,,,,,,6102ffcf0b5c594e388d2d72,610369fd285afe664d9902cf,2021-07-29_19h55.21.686,Simcolourproject_2stim_asymm_v5,2020.2.10,MacIntel,60,61025ae37ef11b136ea224fe,,,,,,,,,2638,31.04974365,59.12600708,1,0,0,response1disk,,7,-0.734313965,-6.906616211,1,0,0,rectangle,-0.734313965,-6.906616211,1,0,0,,,,,,,-0.734313965,-6.906616211,1,0,0,,0,56,56,26,1,
,,,,,,,,,,,,,FF,,,,,,,,0.7504,,,,,,,,,,,,,,,,,,,,,,6102ffcf0b5c594e388d2d72,610369fd285afe664d9902cf,2021-07-29_19h55.21.686,Simcolourproject_2stim_asymm_v5,2020.2.10,MacIntel,60,61025ae37ef11b136ea224fe,,,,,,,,,2026,-45.7331543,-87.29400635,1,0,0,response5disk,,3,-10.99523926,-4.195159912,1,0,0,rectangle,-10.99523926,-4.195159912,1,0,0,,,,,,,-10.99523926,-4.195159912,1,0,0,,0,57,57,51,1,
,,,,,,,,,,,,,FF,,,,,,,,0.8501,,,,,,,,,,,,,,,,,,,,,,6102ffcf0b5c594e388d2d72,610369fd285afe664d9902cf,2021-07-29_19h55.21.686,Simcolourproject_2stim_asymm_v5,2020.2.10,MacIntel,60,61025ae37ef11b136ea224fe,,,,,,,,,2079,89.67181396,-41.97164917,1,0,0,response3disk,,5,3.541259766,-7.729248047,1,0,0,rectangle,3.541259766,-7.729248047,1,0,0,,,,,,,3.541259766,-7.729248047,1,0,0,,0,58,58,57,1,
,,,,,,,,,,,,,FF,,,,,,,,0.8683,,,,,,,,,,,,,,,,,,,,,,6102ffcf0b5c594e388d2d72,610369fd285afe664d9902cf,2021-07-29_19h55.21.686,Simcolourproject_2stim_asymm_v5,2020.2.10,MacIntel,60,61025ae37ef11b136ea224fe,,,,,,,,,2037,37.93395996,-81.97991943,1,0,0,response3disk,,4,12.54150391,1.094848633,1,0,0,rectangle,12.54150391,1.094848633,1,0,0,,,,,,,12.54150391,1.094848633,1,0,0,,0,59,59,84,1,
,,,,,,,,,,,,,FF,,,,,,,,0.8333,,,,,,,,,,,,,,,,,,,,,,6102ffcf0b5c594e388d2d72,610369fd285afe664d9902cf,2021-07-29_19h55.21.686,Simcolourproject_2stim_asymm_v5,2020.2.10,MacIntel,60,61025ae37ef11b136ea224fe,,,,,,,,,4235,-81.8213501,47.87893677,1,0,0,response7disk,,1,-14.74847412,-2.446716309,1,0,0,rectangle,-14.74847412,-2.446716309,1,0,0,,,,,,,-14.74847412,-2.446716309,1,0,0,,0,60,60,60,1,
,,,,,,,,,,,,,FF,,,,,,,,1.3174,,,,,,,,,,,,,,,,,,,,,,6102ffcf0b5c594e388d2d72,610369fd285afe664d9902cf,2021-07-29_19h55.21.686,Simcolourproject_2stim_asymm_v5,2020.2.10,MacIntel,60,61025ae37ef11b136ea224fe,,,,,,,,,440,48.46972656,-66.00146484,1,0,0,response3disk,,4,25.50927734,-9.975372314,1,0,0,rectangle,85.47338867,-39.79888916,1,0,0,response3disk_3,TRUE,5,5,"[142,149,1,62,143,243,11,302,63,292,92,271,1,130,216,277,206,292,322,132]",1.7167,9.268920898,-7.301025391,1,0,0,rectangle,0,61,61,38,1,
,,,,,,,,,,,,,FF,,,,,,,,1.515,,,,,,,,,,,,,,,,,,,,,,6102ffcf0b5c594e388d2d72,610369fd285afe664d9902cf,2021-07-29_19h55.21.686,Simcolourproject_2stim_asymm_v5,2020.2.10,MacIntel,60,61025ae37ef11b136ea224fe,,,,,,,,,3212,92.16912842,-35.56976318,1,0,0,response3disk,,5,10.32568359,-6.021453857,1,0,0,rectangle,-67.03320313,80.15625,1,0,0,response7disk_3,TRUE,0,0,"[142,149,1,62,143,243,11,302,63,292,92,271,1,130,216,277,206,292,322,132]",1.3817,-6.260375977,-5.216491699,1,0,0,rectangle,0,62,62,39,1,
,,,,,,,,,,,,,FF,,,,,,,,1.017,,,,,,,,,,,,,,,,,,,,,,6102ffcf0b5c594e388d2d72,610369fd285afe664d9902cf,2021-07-29_19h55.21.686,Simcolourproject_2stim_asymm_v5,2020.2.10,MacIntel,60,61025ae37ef11b136ea224fe,,,,,,,,,988,103.7398071,31.70172119,1,0,0,response1disk,,6,-32.31115723,-11.75576782,1,0,0,rectangle,-32.31115723,-11.75576782,1,0,0,,,,,,,-32.31115723,-11.75576782,1,0,0,,0,63,63,125,1,
,,,,,,,,,,,,,FF,,,,,,,,0.9171,,,,,,,,,,,,,,,,,,,,,,6102ffcf0b5c594e388d2d72,610369fd285afe664d9902cf,2021-07-29_19h55.21.686,Simcolourproject_2stim_asymm_v5,2020.2.10,MacIntel,60,61025ae37ef11b136ea224fe,,,,,,,,,4017,26.86499023,85.2975769,1,0,0,response1disk,,7,0.787475586,-5.314605713,1,0,0,rectangle,0.787475586,-5.314605713,1,0,0,,,,,,,0.787475586,-5.314605713,1,0,0,,0,64,64,102,1,
,,,,,,,,,,,,,FF,,,,,,,,0.6827,,,,,,,,,,,,,,,,,,,,,,6102ffcf0b5c594e388d2d72,610369fd285afe664d9902cf,2021-07-29_19h55.21.686,Simcolourproject_2stim_asymm_v5,2020.2.10,MacIntel,60,61025ae37ef11b136ea224fe,,,,,,,,,562,31.82519531,84.5213623,1,0,0,response1disk,,7,-7.067199707,-6.162658691,1,0,0,rectangle,-7.067199707,-6.162658691,1,0,0,,,,,,,-7.067199707,-6.162658691,1,0,0,,0,65,65,87,1,
,,,,,,,,,,,,,FF,,,,,,,,0.8319,,,,,,,,,,,,,,,,,,,,,,6102ffcf0b5c594e388d2d72,610369fd285afe664d9902cf,2021-07-29_19h55.21.686,Simcolourproject_2stim_asymm_v5,2020.2.10,MacIntel,60,61025ae37ef11b136ea224fe,,,,,,,,,1599,86.91381836,-20.10214233,1,0,0,response3disk,,5,5.422180176,12.77825928,1,0,0,rectangle,5.422180176,12.77825928,1,0,0,,,,,,,5.422180176,12.77825928,1,0,0,,0,66,66,143,1,
,,,,,,,,,,,,,FF,,,,,,,,1.5003,,,,,,,,,,,,,,,,,,,,,,6102ffcf0b5c594e388d2d72,610369fd285afe664d9902cf,2021-07-29_19h55.21.686,Simcolourproject_2stim_asymm_v5,2020.2.10,MacIntel,60,61025ae37ef11b136ea224fe,,,,,,,,,1347,72.15765381,28.21099854,1,0,0,response1disk,,6,15.16625977,-4.480102539,1,0,0,rectangle,15.16625977,-4.480102539,1,0,0,,,,,,,15.16625977,-4.480102539,1,0,0,,0,67,67,90,1,
,,,,,,,,,,,,,FF,,,,,,,,1.2664,,,,,,,,,,,,,,,,,,,,,,6102ffcf0b5c594e388d2d72,610369fd285afe664d9902cf,2021-07-29_19h55.21.686,Simcolourproject_2stim_asymm_v5,2020.2.10,MacIntel,60,61025ae37ef11b136ea224fe,,,,,,,,,3296,-37.54748535,-87.49389648,1,0,0,response5disk,,3,-3.370239258,-12.56951904,1,0,0,rectangle,-3.370239258,-12.56951904,1,0,0,,,,,,,-3.370239258,-12.56951904,1,0,0,,0,68,68,18,1,
,,,,,,,,,,,,,FF,,,,,,,,1.5995,,,,,,,,,,,,,,,,,,,,,,6102ffcf0b5c594e388d2d72,610369fd285afe664d9902cf,2021-07-29_19h55.21.686,Simcolourproject_2stim_asymm_v5,2020.2.10,MacIntel,60,61025ae37ef11b136ea224fe,,,,,,,,,1963,-62.5256958,33.5435791,1,0,0,response7disk,,1,11.19018555,-5.743896484,1,0,0,rectangle,11.19018555,-5.743896484,1,0,0,,,,,,,11.19018555,-5.743896484,1,0,0,,0,69,69,123,1,
,,,,,,,,,,,,,FF,,,,,,,,0.9668,,,,,,,,,,,,,,,,,,,,,,6102ffcf0b5c594e388d2d72,610369fd285afe664d9902cf,2021-07-29_19h55.21.686,Simcolourproject_2stim_asymm_v5,2020.2.10,MacIntel,60,61025ae37ef11b136ea224fe,,,,,,,,,263,-53.51385498,-86.80969238,1,0,0,response5disk,,3,29.33300781,10.45428467,1,0,0,rectangle,29.33300781,10.45428467,1,0,0,,,,,,,29.33300781,10.45428467,1,0,0,,0,70,70,104,1,
,,,,,,,,,,,,,FF,,,,,,,,0.9002,,,,,,,,,,,,,,,,,,,,,,6102ffcf0b5c594e388d2d72,610369fd285afe664d9902cf,2021-07-29_19h55.21.686,Simcolourproject_2stim_asymm_v5,2020.2.10,MacIntel,60,61025ae37ef11b136ea224fe,,,,,,,,,3912,81.68359375,-42.85675049,1,0,0,response3disk,,5,-3.551391602,2.227478027,1,0,0,rectangle,-3.551391602,2.227478027,1,0,0,,,,,,,-3.551391602,2.227478027,1,0,0,,0,71,71,124,1,
,,,,,,,,,,,,,FF,,,,,,,,1.2163,,,,,,,,,,,,,,,,,,,,,,6102ffcf0b5c594e388d2d72,610369fd285afe664d9902cf,2021-07-29_19h55.21.686,Simcolourproject_2stim_asymm_v5,2020.2.10,MacIntel,60,61025ae37ef11b136ea224fe,,,,,,,,,2062,53.75323486,27.07312012,1,0,0,response1disk,,6,-10.86828613,-13.41003418,1,0,0,rectangle,-10.86828613,-13.41003418,1,0,0,,,,,,,-10.86828613,-13.41003418,1,0,0,,0,72,72,17,1,
,,,,,,,,,,,,,FF,,,,,,,,0.7533,,,,,,,,,,,,,,,,,,,,,,6102ffcf0b5c594e388d2d72,610369fd285afe664d9902cf,2021-07-29_19h55.21.686,Simcolourproject_2stim_asymm_v5,2020.2.10,MacIntel,60,61025ae37ef11b136ea224fe,,,,,,,,,2354,48.42987061,72.02700806,1,0,0,response1disk,,7,0.311645508,-1.609436035,1,0,0,rectangle,0.311645508,-1.609436035,1,0,0,,,,,,,0.311645508,-1.609436035,1,0,0,,0,73,73,37,1,
,,,,,,,,,,,,,FF,,,,,,,,0.6496,,,,,,,,,,,,,,,,,,,,,,6102ffcf0b5c594e388d2d72,610369fd285afe664d9902cf,2021-07-29_19h55.21.686,Simcolourproject_2stim_asymm_v5,2020.2.10,MacIntel,60,61025ae37ef11b136ea224fe,,,,,,,,,317,39.36450195,61.42147827,1,0,0,response1disk,,7,2.108093262,0.386474609,1,0,0,rectangle,2.108093262,0.386474609,1,0,0,,,,,,,2.108093262,0.386474609,1,0,0,,0,74,74,134,1,
,,,,,,,,,,,,,FF,,,,,,,,0.8521,,,,,,,,,,,,,,,,,,,,,,6102ffcf0b5c594e388d2d72,610369fd285afe664d9902cf,2021-07-29_19h55.21.686,Simcolourproject_2stim_asymm_v5,2020.2.10,MacIntel,60,61025ae37ef11b136ea224fe,,,,,,,,,3745,42.83898926,-51.93084717,1,0,0,response3disk,,4,27.78057861,-5.699890137,1,0,0,rectangle,27.78057861,-5.699890137,1,0,0,,,,,,,27.78057861,-5.699890137,1,0,0,,0,75,75,21,1,
,,,,,,,,,,,,,FF,,,,,,,,0.6174,,,,,,,,,,,,,,,,,,,,,,6102ffcf0b5c594e388d2d72,610369fd285afe664d9902cf,2021-07-29_19h55.21.686,Simcolourproject_2stim_asymm_v5,2020.2.10,MacIntel,60,61025ae37ef11b136ea224fe,,,,,,,,,356,-35.82427979,-92.4586792,1,0,0,response5disk,,3,2.628967285,-1.708312988,1,0,0,rectangle,2.628967285,-1.708312988,1,0,0,,,,,,,2.628967285,-1.708312988,1,0,0,,0,76,76,158,1,
,,,,,,,,,,,,,FF,,,,,,,,1.2009,,,,,,,,,,,,,,,,,,,,,,6102ffcf0b5c594e388d2d72,610369fd285afe664d9902cf,2021-07-29_19h55.21.686,Simcolourproject_2stim_asymm_v5,2020.2.10,MacIntel,60,61025ae37ef11b136ea224fe,,,,,,,,,321,72.27612305,60.88284302,1,0,0,response1disk,,6,10.11730957,0.909210205,1,0,0,rectangle,10.11730957,0.909210205,1,0,0,,,,,,,10.11730957,0.909210205,1,0,0,,0,77,77,139,1,
,,,,,,,,,,,,,FF,,,,,,,,0.9356,,,,,,,,,,,,,,,,,,,,,,6102ffcf0b5c594e388d2d72,610369fd285afe664d9902cf,2021-07-29_19h55.21.686,Simcolourproject_2stim_asymm_v5,2020.2.10,MacIntel,60,61025ae37ef11b136ea224fe,,,,,,,,,1681,-54.52807617,-79.4574585,1,0,0,response5disk,,3,1.254150391,8.055145264,1,0,0,rectangle,1.254150391,8.055145264,1,0,0,,,,,,,1.254150391,8.055145264,1,0,0,,0,78,78,73,1,
,,,,,,,,,,,,,FF,,,,,,,,0.7178,,,,,,,,,,,,,,,,,,,,,,6102ffcf0b5c594e388d2d72,610369fd285afe664d9902cf,2021-07-29_19h55.21.686,Simcolourproject_2stim_asymm_v5,2020.2.10,MacIntel,60,61025ae37ef11b136ea224fe,,,,,,,,,3140,-54.35339355,-80.98974609,1,0,0,response5disk,,3,-6.728515625,-3.010772705,1,0,0,rectangle,-6.728515625,-3.010772705,1,0,0,,,,,,,-6.728515625,-3.010772705,1,0,0,,0,79,79,142,1,
,,,,,,,,,,,,,FF,,,,,,,,0.5979,,,,,,,,,,,,,,,,,,,,,,6102ffcf0b5c594e388d2d72,610369fd285afe664d9902cf,2021-07-29_19h55.21.686,Simcolourproject_2stim_asymm_v5,2020.2.10,MacIntel,60,61025ae37ef11b136ea224fe,,,,,,,,,3024,54.86779785,75.24932861,1,0,0,response1disk,,7,25.88623047,10.44491577,1,0,0,rectangle,25.88623047,10.44491577,1,0,0,,,,,,,25.88623047,10.44491577,1,0,0,,0,80,80,136,1,
,,,,,,,,,,,,,FF,,,,,,,,0.7,,,,,,,,,,,,,,,,,,,,,,6102ffcf0b5c594e388d2d72,610369fd285afe664d9902cf,2021-07-29_19h55.21.686,Simcolourproject_2stim_asymm_v5,2020.2.10,MacIntel,60,61025ae37ef11b136ea224fe,,,,,,,,,164,-54.79980469,-67.49725342,1,0,0,response5disk,,3,-1.010803223,1.32598877,1,0,0,rectangle,-1.010803223,1.32598877,1,0,0,,,,,,,-1.010803223,1.32598877,1,0,0,,0,81,81,59,1,
,,,,,,,,,,,,,FF,,,,,,,,0.6173,,,,,,,,,,,,,,,,,,,,,,6102ffcf0b5c594e388d2d72,610369fd285afe664d9902cf,2021-07-29_19h55.21.686,Simcolourproject_2stim_asymm_v5,2020.2.10,MacIntel,60,61025ae37ef11b136ea224fe,,,,,,,,,1387,49.01348877,66.47503662,1,0,0,response1disk,,7,6.426818848,-15.47219849,1,0,0,rectangle,6.426818848,-15.47219849,1,0,0,,,,,,,6.426818848,-15.47219849,1,0,0,,0,82,82,154,1,
,,,,,,,,,,,,,FF,,,,,,,,0.6496,,,,,,,,,,,,,,,,,,,,,,6102ffcf0b5c594e388d2d72,610369fd285afe664d9902cf,2021-07-29_19h55.21.686,Simcolourproject_2stim_asymm_v5,2020.2.10,MacIntel,60,61025ae37ef11b136ea224fe,,,,,,,,,916,44.70703125,69.24084473,1,0,0,response1disk,,7,18.64990234,16.14517212,1,0,0,rectangle,18.64990234,16.14517212,1,0,0,,,,,,,18.64990234,16.14517212,1,0,0,,0,83,83,140,1,
,,,,,,,,,,,,,FF,,,,,,,,1.0008,,,,,,,,,,,,,,,,,,,,,,6102ffcf0b5c594e388d2d72,610369fd285afe664d9902cf,2021-07-29_19h55.21.686,Simcolourproject_2stim_asymm_v5,2020.2.10,MacIntel,60,61025ae37ef11b136ea224fe,,,,,,,,,2798,87.26641846,49.01150513,1,0,0,response1disk,,6,15.96203613,1.48248291,1,0,0,rectangle,15.96203613,1.48248291,1,0,0,,,,,,,15.96203613,1.48248291,1,0,0,,0,84,84,159,1,
,,,,,,,,,,,,,FF,,,,,,,,1.217,,,,,,,,,,,,,,,,,,,,,,6102ffcf0b5c594e388d2d72,610369fd285afe664d9902cf,2021-07-29_19h55.21.686,Simcolourproject_2stim_asymm_v5,2020.2.10,MacIntel,60,61025ae37ef11b136ea224fe,,,,,,,,,631,-35.69421387,-94.85913086,1,0,0,response5disk,,3,-7.501708984,-1.544891357,1,0,0,rectangle,-7.501708984,-1.544891357,1,0,0,,,,,,,-7.501708984,-1.544891357,1,0,0,,0,85,85,108,1,
,,,,,,,,,,,,,FF,,,,,,,,0.618,,,,,,,,,,,,,,,,,,,,,,6102ffcf0b5c594e388d2d72,610369fd285afe664d9902cf,2021-07-29_19h55.21.686,Simcolourproject_2stim_asymm_v5,2020.2.10,MacIntel,60,61025ae37ef11b136ea224fe,,,,,,,,,987,51.2567749,88.8883667,1,0,0,response1disk,,7,14.42645264,-6.749053955,1,0,0,rectangle,14.42645264,-6.749053955,1,0,0,,,,,,,14.42645264,-6.749053955,1,0,0,,0,86,86,96,1,
,,,,,,,,,,,,,FF,,,,,,,,0.8337,,,,,,,,,,,,,,,,,,,,,,6102ffcf0b5c594e388d2d72,610369fd285afe664d9902cf,2021-07-29_19h55.21.686,Simcolourproject_2stim_asymm_v5,2020.2.10,MacIntel,60,61025ae37ef11b136ea224fe,,,,,,,,,2362,-74.05065918,-46.55102539,1,0,0,response5disk,,2,-7.076904297,4.232666016,1,0,0,rectangle,-7.076904297,4.232666016,1,0,0,,,,,,,-7.076904297,4.232666016,1,0,0,,0,87,87,34,1,
,,,,,,,,,,,,,FF,,,,,,,,0.6336,,,,,,,,,,,,,,,,,,,,,,6102ffcf0b5c594e388d2d72,610369fd285afe664d9902cf,2021-07-29_19h55.21.686,Simcolourproject_2stim_asymm_v5,2020.2.10,MacIntel,60,61025ae37ef11b136ea224fe,,,,,,,,,4131,48.5567627,82.21298218,1,0,0,response1disk,,7,12.4331665,-11.47912598,1,0,0,rectangle,12.4331665,-11.47912598,1,0,0,,,,,,,12.4331665,-11.47912598,1,0,0,,0,88,88,111,1,
,,,,,,,,,,,,,FF,,,,,,,,0.7148,,,,,,,,,,,,,,,,,,,,,,6102ffcf0b5c594e388d2d72,610369fd285afe664d9902cf,2021-07-29_19h55.21.686,Simcolourproject_2stim_asymm_v5,2020.2.10,MacIntel,60,61025ae37ef11b136ea224fe,,,,,,,,,3876,-38.94549561,-78.58477783,1,0,0,response5disk,,3,8.446472168,-8.198364258,1,0,0,rectangle,8.446472168,-8.198364258,1,0,0,,,,,,,8.446472168,-8.198364258,1,0,0,,0,89,89,16,1,
,,,,,,,,,,,,,FF,,,,,,,,0.6499,,,,,,,,,,,,,,,,,,,,,,6102ffcf0b5c594e388d2d72,610369fd285afe664d9902cf,2021-07-29_19h55.21.686,Simcolourproject_2stim_asymm_v5,2020.2.10,MacIntel,60,61025ae37ef11b136ea224fe,,,,,,,,,4325,28.05987549,72.3789978,1,0,0,response1disk,,7,0.933532715,3.865997314,1,0,0,rectangle,0.933532715,3.865997314,1,0,0,,,,,,,0.933532715,3.865997314,1,0,0,,0,90,90,33,1,
,,,,,,,,,,,,,FF,,,,,,,,0.5326,,,,,,,,,,,,,,,,,,,,,,6102ffcf0b5c594e388d2d72,610369fd285afe664d9902cf,2021-07-29_19h55.21.686,Simcolourproject_2stim_asymm_v5,2020.2.10,MacIntel,60,61025ae37ef11b136ea224fe,,,,,,,,,1715,38.62695313,66.36279297,1,0,0,response1disk,,7,19.95458984,9.145843506,1,0,0,rectangle,84.76068115,32.74752808,1,0,0,response1disk_3,TRUE,6,6,"[142,149,1,62,143,243,11,302,63,292,92,271,1,130,216,277,206,292,322,132]",2.0005,1.629150391,-9.226226807,1,0,0,rectangle,0,91,91,88,1,
,,,,,,,,,,,,,FF,,,,,,,,0.767,,,,,,,,,,,,,,,,,,,,,,6102ffcf0b5c594e388d2d72,610369fd285afe664d9902cf,2021-07-29_19h55.21.686,Simcolourproject_2stim_asymm_v5,2020.2.10,MacIntel,60,61025ae37ef11b136ea224fe,,,,,,,,,2207,48.22369385,84.22531128,1,0,0,response1disk,,7,15.19665527,-6.084197998,1,0,0,rectangle,15.19665527,-6.084197998,1,0,0,,,,,,,15.19665527,-6.084197998,1,0,0,,0,92,92,49,1,
,,,,,,,,,,,,,FF,,,,,,,,1.7312,,,,,,,,,,,,,,,,,,,,,,6102ffcf0b5c594e388d2d72,610369fd285afe664d9902cf,2021-07-29_19h55.21.686,Simcolourproject_2stim_asymm_v5,2020.2.10,MacIntel,60,61025ae37ef11b136ea224fe,,,,,,,,,851,32.74487305,82.32058716,1,0,0,response1disk,,7,17.33966064,-1.095977783,1,0,0,rectangle,17.33966064,-1.095977783,1,0,0,,,,,,,17.33966064,-1.095977783,1,0,0,,0,93,93,74,1,
,,,,,,,,,,,,,FF,,,,,,,,0.4661,,,,,,,,,,,,,,,,,,,,,,6102ffcf0b5c594e388d2d72,610369fd285afe664d9902cf,2021-07-29_19h55.21.686,Simcolourproject_2stim_asymm_v5,2020.2.10,MacIntel,60,61025ae37ef11b136ea224fe,,,,,,,,,657,77.08447266,95.58480835,1,0,0,response1disk,,7,23.24694824,1.974517822,1,0,0,rectangle,23.24694824,1.974517822,1,0,0,,,,,,,23.24694824,1.974517822,1,0,0,,0,94,94,138,1,
,,,,,,,,,,,,,FF,,,,,,,,0.8332,,,,,,,,,,,,,,,,,,,,,,6102ffcf0b5c594e388d2d72,610369fd285afe664d9902cf,2021-07-29_19h55.21.686,Simcolourproject_2stim_asymm_v5,2020.2.10,MacIntel,60,61025ae37ef11b136ea224fe,,,,,,,,,2548,38.53192139,-90.39453125,1,0,0,response3disk,,4,-2.277832031,-14.11279297,1,0,0,rectangle,-2.277832031,-14.11279297,1,0,0,,,,,,,-2.277832031,-14.11279297,1,0,0,,0,95,95,9,1,
,,,,,,,,,,,,,FF,,,,,,,,0.7003,,,,,,,,,,,,,,,,,,,,,,6102ffcf0b5c594e388d2d72,610369fd285afe664d9902cf,2021-07-29_19h55.21.686,Simcolourproject_2stim_asymm_v5,2020.2.10,MacIntel,60,61025ae37ef11b136ea224fe,,,,,,,,,3578,79.53625488,45.95483398,1,0,0,response1disk,,6,-2.161132813,-13.75384521,1,0,0,rectangle,-2.161132813,-13.75384521,1,0,0,,,,,,,-2.161132813,-13.75384521,1,0,0,,0,96,96,46,1,
,,,,,,,,,,,,,FF,,,,,,,,1.1662,,,,,,,,,,,,,,,,,,,,,,6102ffcf0b5c594e388d2d72,610369fd285afe664d9902cf,2021-07-29_19h55.21.686,Simcolourproject_2stim_asymm_v5,2020.2.10,MacIntel,60,61025ae37ef11b136ea224fe,,,,,,,,,2390,74.47979736,50.23916626,1,0,0,response1disk,,6,0.32635498,3.504638672,1,0,0,rectangle,0.32635498,3.504638672,1,0,0,,,,,,,0.32635498,3.504638672,1,0,0,,0,97,97,72,1,
,,,,,,,,,,,,,FF,,,,,,,,0.5171,,,,,,,,,,,,,,,,,,,,,,6102ffcf0b5c594e388d2d72,610369fd285afe664d9902cf,2021-07-29_19h55.21.686,Simcolourproject_2stim_asymm_v5,2020.2.10,MacIntel,60,61025ae37ef11b136ea224fe,,,,,,,,,118,54.08251953,84.34552002,1,0,0,response1disk,,7,9.977966309,-1.611236572,1,0,0,rectangle,9.977966309,-1.611236572,1,0,0,,,,,,,9.977966309,-1.611236572,1,0,0,,0,98,98,24,1,
,,,,,,,,,,,,,FF,,,,,,,,1.1165,,,,,,,,,,,,,,,,,,,,,,6102ffcf0b5c594e388d2d72,610369fd285afe664d9902cf,2021-07-29_19h55.21.686,Simcolourproject_2stim_asymm_v5,2020.2.10,MacIntel,60,61025ae37ef11b136ea224fe,,,,,,,,,3089,41.05834961,-82.71374512,1,0,0,response3disk,,4,21.06445313,2.1612854,1,0,0,rectangle,21.06445313,2.1612854,1,0,0,,,,,,,21.06445313,2.1612854,1,0,0,,0,99,99,99,1,
,,,,,,,,,,,,,FF,,,,,,,,0.7331,,,,,,,,,,,,,,,,,,,,,,6102ffcf0b5c594e388d2d72,610369fd285afe664d9902cf,2021-07-29_19h55.21.686,Simcolourproject_2stim_asymm_v5,2020.2.10,MacIntel,60,61025ae37ef11b136ea224fe,,,,,,,,,1090,60.95904541,92.88162231,1,0,0,response1disk,,7,27.61315918,8.566558838,1,0,0,rectangle,27.61315918,8.566558838,1,0,0,,,,,,,27.61315918,8.566558838,1,0,0,,0,100,100,69,1,
,,,,,,,,,,,,,FF,,,,,,,,0.6663,,,,,,,,,,,,,,,,,,,,,,6102ffcf0b5c594e388d2d72,610369fd285afe664d9902cf,2021-07-29_19h55.21.686,Simcolourproject_2stim_asymm_v5,2020.2.10,MacIntel,60,61025ae37ef11b136ea224fe,,,,,,,,,4002,40.699646,-70.03186035,1,0,0,response3disk,,4,12.9118042,-10.5071106,1,0,0,rectangle,12.9118042,-10.5071106,1,0,0,,,,,,,12.9118042,-10.5071106,1,0,0,,0,101,101,155,1,
,,,,,,,,,,,,,FF,,,,,,,,1.0024,,,,,,,,,,,,,,,,,,,,,,6102ffcf0b5c594e388d2d72,610369fd285afe664d9902cf,2021-07-29_19h55.21.686,Simcolourproject_2stim_asymm_v5,2020.2.10,MacIntel,60,61025ae37ef11b136ea224fe,,,,,,,,,3249,-57.45568848,-82.59185791,1,0,0,response5disk,,3,-6.453735352,5.606689453,1,0,0,rectangle,-6.453735352,5.606689453,1,0,0,,,,,,,-6.453735352,5.606689453,1,0,0,,0,102,102,82,1,
,,,,,,,,,,,,,FF,,,,,,,,0.5818,,,,,,,,,,,,,,,,,,,,,,6102ffcf0b5c594e388d2d72,610369fd285afe664d9902cf,2021-07-29_19h55.21.686,Simcolourproject_2stim_asymm_v5,2020.2.10,MacIntel,60,61025ae37ef11b136ea224fe,,,,,,,,,975,-71.23974609,-45.39859009,1,0,0,response5disk,,2,-10.92828369,0.883209229,1,0,0,rectangle,-10.92828369,0.883209229,1,0,0,,,,,,,-10.92828369,0.883209229,1,0,0,,0,103,103,131,1,
,,,,,,,,,,,,,FF,,,,,,,,0.8832,,,,,,,,,,,,,,,,,,,,,,6102ffcf0b5c594e388d2d72,610369fd285afe664d9902cf,2021-07-29_19h55.21.686,Simcolourproject_2stim_asymm_v5,2020.2.10,MacIntel,60,61025ae37ef11b136ea224fe,,,,,,,,,3,56.7208252,-64.64556885,1,0,0,response3disk,,4,15.0246582,6.61618042,1,0,0,rectangle,15.0246582,6.61618042,1,0,0,,,,,,,15.0246582,6.61618042,1,0,0,,0,104,104,7,1,
,,,,,,,,,,,,,FF,,,,,,,,1.5342,,,,,,,,,,,,,,,,,,,,,,6102ffcf0b5c594e388d2d72,610369fd285afe664d9902cf,2021-07-29_19h55.21.686,Simcolourproject_2stim_asymm_v5,2020.2.10,MacIntel,60,61025ae37ef11b136ea224fe,,,,,,,,,3852,28.23638916,100.8544312,1,0,0,response1disk,,7,-11.47277832,-0.765563965,1,0,0,rectangle,-11.47277832,-0.765563965,1,0,0,,,,,,,-11.47277832,-0.765563965,1,0,0,,0,105,105,144,1,
,,,,,,,,,,,,,FF,,,,,,,,0.8171,,,,,,,,,,,,,,,,,,,,,,6102ffcf0b5c594e388d2d72,610369fd285afe664d9902cf,2021-07-29_19h55.21.686,Simcolourproject_2stim_asymm_v5,2020.2.10,MacIntel,60,61025ae37ef11b136ea224fe,,,,,,,,,1388,51.80053711,78.99539185,1,0,0,response1disk,,7,-0.493286133,2.856048584,1,0,0,rectangle,-0.493286133,2.856048584,1,0,0,,,,,,,-0.493286133,2.856048584,1,0,0,,0,106,106,156,1,
,,,,,,,,,,,,,FF,,,,,,,,0.617,,,,,,,,,,,,,,,,,,,,,,6102ffcf0b5c594e388d2d72,610369fd285afe664d9902cf,2021-07-29_19h55.21.686,Simcolourproject_2stim_asymm_v5,2020.2.10,MacIntel,60,61025ae37ef11b136ea224fe,,,,,,,,,1837,49.83953857,87.30187988,1,0,0,response1disk,,7,0.787109375,-14.21008301,1,0,0,rectangle,0.787109375,-14.21008301,1,0,0,,,,,,,0.787109375,-14.21008301,1,0,0,,0,107,107,148,1,
,,,,,,,,,,,,,FF,,,,,,,,0.8835,,,,,,,,,,,,,,,,,,,,,,6102ffcf0b5c594e388d2d72,610369fd285afe664d9902cf,2021-07-29_19h55.21.686,Simcolourproject_2stim_asymm_v5,2020.2.10,MacIntel,60,61025ae37ef11b136ea224fe,,,,,,,,,3006,-21.92706299,-72.550354,1,0,0,response5disk,,3,-2.625061035,-3.34375,1,0,0,rectangle,-2.625061035,-3.34375,1,0,0,,,,,,,-2.625061035,-3.34375,1,0,0,,0,108,108,130,1,
,,,,,,,,,,,,,FF,,,,,,,,2.5846,,,,,,,,,,,,,,,,,,,,,,6102ffcf0b5c594e388d2d72,610369fd285afe664d9902cf,2021-07-29_19h55.21.686,Simcolourproject_2stim_asymm_v5,2020.2.10,MacIntel,60,61025ae37ef11b136ea224fe,,,,,,,,,1626,60.53234863,103.776947,1,0,0,response1disk,,7,13.7532959,3.256835938,1,0,0,rectangle,13.7532959,3.256835938,1,0,0,,,,,,,13.7532959,3.256835938,1,0,0,,0,109,109,66,1,
,,,,,,,,,,,,,FF,,,,,,,,1.5348,,,,,,,,,,,,,,,,,,,,,,6102ffcf0b5c594e388d2d72,610369fd285afe664d9902cf,2021-07-29_19h55.21.686,Simcolourproject_2stim_asymm_v5,2020.2.10,MacIntel,60,61025ae37ef11b136ea224fe,,,,,,,,,1597,-35.8203125,-77.90698242,1,0,0,response5disk,,3,14.97741699,2.402923584,1,0,0,rectangle,14.97741699,2.402923584,1,0,0,,,,,,,14.97741699,2.402923584,1,0,0,,0,110,110,5,1,
,,,,,,,,,,,,,FF,,,,,,,,1.1186,,,,,,,,,,,,,,,,,,,,,,6102ffcf0b5c594e388d2d72,610369fd285afe664d9902cf,2021-07-29_19h55.21.686,Simcolourproject_2stim_asymm_v5,2020.2.10,MacIntel,60,61025ae37ef11b136ea224fe,,,,,,,,,4008,98.49890137,-57.67736816,1,0,0,response3disk,,5,19.13024902,-1.907928467,1,0,0,rectangle,19.13024902,-1.907928467,1,0,0,,,,,,,19.13024902,-1.907928467,1,0,0,,0,111,111,31,1,
,,,,,,,,,,,,,FF,,,,,,,,2.7817,,,,,,,,,,,,,,,,,,,,,,6102ffcf0b5c594e388d2d72,610369fd285afe664d9902cf,2021-07-29_19h55.21.686,Simcolourproject_2stim_asymm_v5,2020.2.10,MacIntel,60,61025ae37ef11b136ea224fe,,,,,,,,,21,57.5894165,92.1295166,1,0,0,response1disk,,7,16.2322998,14.13394165,1,0,0,rectangle,16.2322998,14.13394165,1,0,0,,,,,,,16.2322998,14.13394165,1,0,0,,0,112,112,15,1,
,,,,,,,,,,,,,FF,,,,,,,,0.3996,,,,,,,,,,,,,,,,,,,,,,6102ffcf0b5c594e388d2d72,610369fd285afe664d9902cf,2021-07-29_19h55.21.686,Simcolourproject_2stim_asymm_v5,2020.2.10,MacIntel,60,61025ae37ef11b136ea224fe,,,,,,,,,2462,36.94921875,60.49237061,1,0,0,response1disk,,7,11.28662109,1.044525146,1,0,0,rectangle,11.28662109,1.044525146,1,0,0,,,,,,,11.28662109,1.044525146,1,0,0,,0,113,113,42,1,
,,,,,,,,,,,,,FF,,,,,,,,0.8653,,,,,,,,,,,,,,,,,,,,,,6102ffcf0b5c594e388d2d72,610369fd285afe664d9902cf,2021-07-29_19h55.21.686,Simcolourproject_2stim_asymm_v5,2020.2.10,MacIntel,60,61025ae37ef11b136ea224fe,,,,,,,,,3939,-42.53540039,-83.11877441,1,0,0,response5disk,,3,8.234741211,-2.964782715,1,0,0,rectangle,8.234741211,-2.964782715,1,0,0,,,,,,,8.234741211,-2.964782715,1,0,0,,0,114,114,8,1,
,,,,,,,,,,,,,FF,,,,,,,,1.1171,,,,,,,,,,,,,,,,,,,,,,6102ffcf0b5c594e388d2d72,610369fd285afe664d9902cf,2021-07-29_19h55.21.686,Simcolourproject_2stim_asymm_v5,2020.2.10,MacIntel,60,61025ae37ef11b136ea224fe,,,,,,,,,1949,52.15856934,44.01663208,1,0,0,response1disk,,6,0.489257813,-6.821014404,1,0,0,rectangle,0.489257813,-6.821014404,1,0,0,,,,,,,0.489257813,-6.821014404,1,0,0,,0,115,115,132,1,
,,,,,,,,,,,,,FF,,,,,,,,0.5314,,,,,,,,,,,,,,,,,,,,,,6102ffcf0b5c594e388d2d72,610369fd285afe664d9902cf,2021-07-29_19h55.21.686,Simcolourproject_2stim_asymm_v5,2020.2.10,MacIntel,60,61025ae37ef11b136ea224fe,,,,,,,,,2527,31.99389648,58.52926636,1,0,0,response1disk,,7,11.03662109,0.29309082,1,0,0,rectangle,11.03662109,0.29309082,1,0,0,,,,,,,11.03662109,0.29309082,1,0,0,,0,116,116,70,1,
,,,,,,,,,,,,,FF,,,,,,,,1.0684,,,,,,,,,,,,,,,,,,,,,,6102ffcf0b5c594e388d2d72,610369fd285afe664d9902cf,2021-07-29_19h55.21.686,Simcolourproject_2stim_asymm_v5,2020.2.10,MacIntel,60,61025ae37ef11b136ea224fe,,,,,,,,,1241,74.66741943,27.63150024,1,0,0,response1disk,,6,27.76599121,0.173706055,1,0,0,rectangle,27.76599121,0.173706055,1,0,0,,,,,,,27.76599121,0.173706055,1,0,0,,0,117,117,85,1,
,,,,,,,,,,,,,FF,,,,,,,,0.8502,,,,,,,,,,,,,,,,,,,,,,6102ffcf0b5c594e388d2d72,610369fd285afe664d9902cf,2021-07-29_19h55.21.686,Simcolourproject_2stim_asymm_v5,2020.2.10,MacIntel,60,61025ae37ef11b136ea224fe,,,,,,,,,1598,41.89141846,-92.41345215,1,0,0,response3disk,,4,14.41345215,-5.49621582,1,0,0,rectangle,14.41345215,-5.49621582,1,0,0,,,,,,,14.41345215,-5.49621582,1,0,0,,0,118,118,30,1,
,,,,,,,,,,,,,FF,,,,,,,,0.8333,,,,,,,,,,,,,,,,,,,,,,6102ffcf0b5c594e388d2d72,610369fd285afe664d9902cf,2021-07-29_19h55.21.686,Simcolourproject_2stim_asymm_v5,2020.2.10,MacIntel,60,61025ae37ef11b136ea224fe,,,,,,,,,690,60.96856689,50.32098389,1,0,0,response1disk,,6,23.14532471,7.105102539,1,0,0,rectangle,23.14532471,7.105102539,1,0,0,,,,,,,23.14532471,7.105102539,1,0,0,,0,119,119,40,1,
,,,,,,,,,,,,,FF,,,,,,,,0.4993,,,,,,,,,,,,,,,,,,,,,,6102ffcf0b5c594e388d2d72,610369fd285afe664d9902cf,2021-07-29_19h55.21.686,Simcolourproject_2stim_asymm_v5,2020.2.10,MacIntel,60,61025ae37ef11b136ea224fe,,,,,,,,,1330,33.6116333,71.74526978,1,0,0,response1disk,,7,19.92230225,11.62005615,1,0,0,rectangle,19.92230225,11.62005615,1,0,0,,,,,,,19.92230225,11.62005615,1,0,0,,0,120,120,127,1,
,,,,,,,,,,,,,FF,,,,,,,,0.8668,,,,,,,,,,,,,,,,,,,,,,6102ffcf0b5c594e388d2d72,610369fd285afe664d9902cf,2021-07-29_19h55.21.686,Simcolourproject_2stim_asymm_v5,2020.2.10,MacIntel,60,61025ae37ef11b136ea224fe,,,,,,,,,2481,-65.02233887,-46.18527222,1,0,0,response5disk,,2,-18.70135498,-9.915771484,1,0,0,rectangle,-18.70135498,-9.915771484,1,0,0,,,,,,,-18.70135498,-9.915771484,1,0,0,,0,121,121,126,1,
,,,,,,,,,,,,,FF,,,,,,,,1.5007,,,,,,,,,,,,,,,,,,,,,,6102ffcf0b5c594e388d2d72,610369fd285afe664d9902cf,2021-07-29_19h55.21.686,Simcolourproject_2stim_asymm_v5,2020.2.10,MacIntel,60,61025ae37ef11b136ea224fe,,,,,,,,,282,40.89160156,-77.89984131,1,0,0,response3disk,,4,21.39038086,-5.181243896,1,0,0,rectangle,21.39038086,-5.181243896,1,0,0,,,,,,,21.39038086,-5.181243896,1,0,0,,0,122,122,118,1,
,,,,,,,,,,,,,FF,,,,,,,,0.6505,,,,,,,,,,,,,,,,,,,,,,6102ffcf0b5c594e388d2d72,610369fd285afe664d9902cf,2021-07-29_19h55.21.686,Simcolourproject_2stim_asymm_v5,2020.2.10,MacIntel,60,61025ae37ef11b136ea224fe,,,,,,,,,2287,38.50390625,70.89263916,1,0,0,response1disk,,7,21.51641846,14.91522217,1,0,0,rectangle,21.51641846,14.91522217,1,0,0,,,,,,,21.51641846,14.91522217,1,0,0,,0,123,123,133,1,
,,,,,,,,,,,,,FF,,,,,,,,0.4493,,,,,,,,,,,,,,,,,,,,,,6102ffcf0b5c594e388d2d72,610369fd285afe664d9902cf,2021-07-29_19h55.21.686,Simcolourproject_2stim_asymm_v5,2020.2.10,MacIntel,60,61025ae37ef11b136ea224fe,,,,,,,,,3437,55.77050781,81.47323608,1,0,0,response1disk,,7,10.9329834,-2.19442749,1,0,0,rectangle,10.9329834,-2.19442749,1,0,0,,,,,,,10.9329834,-2.19442749,1,0,0,,0,124,124,55,1,
,,,,,,,,,,,,,FF,,,,,,,,0.834,,,,,,,,,,,,,,,,,,,,,,6102ffcf0b5c594e388d2d72,610369fd285afe664d9902cf,2021-07-29_19h55.21.686,Simcolourproject_2stim_asymm_v5,2020.2.10,MacIntel,60,61025ae37ef11b136ea224fe,,,,,,,,,4023,58.19543457,-38.28497314,1,0,0,response3disk,,5,8.105041504,4.379425049,1,0,0,rectangle,8.105041504,4.379425049,1,0,0,,,,,,,8.105041504,4.379425049,1,0,0,,0,125,125,106,1,
,,,,,,,,,,,,,FF,,,,,,,,1.0828,,,,,,,,,,,,,,,,,,,,,,6102ffcf0b5c594e388d2d72,610369fd285afe664d9902cf,2021-07-29_19h55.21.686,Simcolourproject_2stim_asymm_v5,2020.2.10,MacIntel,60,61025ae37ef11b136ea224fe,,,,,,,,,3772,35.1315918,-76.44226074,1,0,0,response3disk,,4,1.858764648,-8.155548096,1,0,0,rectangle,1.858764648,-8.155548096,1,0,0,,,,,,,1.858764648,-8.155548096,1,0,0,,0,126,126,6,1,
,,,,,,,,,,,,,FF,,,,,,,,0.5515,,,,,,,,,,,,,,,,,,,,,,6102ffcf0b5c594e388d2d72,610369fd285afe664d9902cf,2021-07-29_19h55.21.686,Simcolourproject_2stim_asymm_v5,2020.2.10,MacIntel,60,61025ae37ef11b136ea224fe,,,,,,,,,2158,28.65893555,90.66442871,1,0,0,response1disk,,7,10.84912109,5.212127686,1,0,0,rectangle,10.84912109,5.212127686,1,0,0,,,,,,,10.84912109,5.212127686,1,0,0,,0,127,127,4,1,
,,,,,,,,,,,,,FF,,,,,,,,0.4831,,,,,,,,,,,,,,,,,,,,,,6102ffcf0b5c594e388d2d72,610369fd285afe664d9902cf,2021-07-29_19h55.21.686,Simcolourproject_2stim_asymm_v5,2020.2.10,MacIntel,60,61025ae37ef11b136ea224fe,,,,,,,,,3365,35.81298828,71.81762695,1,0,0,response1disk,,7,18.12255859,13.43408203,1,0,0,rectangle,18.12255859,13.43408203,1,0,0,,,,,,,18.12255859,13.43408203,1,0,0,,0,128,128,92,1,
,,,,,,,,,,,,,FF,,,,,,,,0.5506,,,,,,,,,,,,,,,,,,,,,,6102ffcf0b5c594e388d2d72,610369fd285afe664d9902cf,2021-07-29_19h55.21.686,Simcolourproject_2stim_asymm_v5,2020.2.10,MacIntel,60,61025ae37ef11b136ea224fe,,,,,,,,,953,48.597229,108.792572,1,0,0,response1disk,,7,15.66760254,15.9460144,1,0,0,rectangle,35.66308594,74.16488647,1,0,0,response1disk_3,TRUE,7,7,"[142,149,1,62,143,243,11,302,63,292,92,271,1,130,216,277,206,292,322,132]",1.2687,15.20788574,-0.132629395,1,0,0,rectangle,0,129,129,152,1,
,,,,,,,,,,,,,FF,,,,,,,,0.9177,,,,,,,,,,,,,,,,,,,,,,6102ffcf0b5c594e388d2d72,610369fd285afe664d9902cf,2021-07-29_19h55.21.686,Simcolourproject_2stim_asymm_v5,2020.2.10,MacIntel,60,61025ae37ef11b136ea224fe,,,,,,,,,4320,82.44226074,42.01889038,1,0,0,response1disk,,6,-4.968505859,-4.803070068,1,0,0,rectangle,-4.968505859,-4.803070068,1,0,0,,,,,,,-4.968505859,-4.803070068,1,0,0,,0,130,130,36,1,
,,,,,,,,,,,,,FF,,,,,,,,1.4999,,,,,,,,,,,,,,,,,,,,,,6102ffcf0b5c594e388d2d72,610369fd285afe664d9902cf,2021-07-29_19h55.21.686,Simcolourproject_2stim_asymm_v5,2020.2.10,MacIntel,60,61025ae37ef11b136ea224fe,,,,,,,,,4124,84.00390625,-31.5680542,1,0,0,response3disk,,5,-10.75109863,-2.802368164,1,0,0,rectangle,-52.60852051,-84.90917969,1,0,0,response5disk_3,TRUE,3,3,"[142,149,1,62,143,243,11,302,63,292,92,271,1,130,216,277,206,292,322,132]",1.6317,-12.87677002,-0.040924072,1,0,0,rectangle,0,131,131,1,1,
,,,,,,,,,,,,,FF,,,,,,,,0.9998,,,,,,,,,,,,,,,,,,,,,,6102ffcf0b5c594e388d2d72,610369fd285afe664d9902cf,2021-07-29_19h55.21.686,Simcolourproject_2stim_asymm_v5,2020.2.10,MacIntel,60,61025ae37ef11b136ea224fe,,,,,,,,,586,59.37097168,74.54623413,1,0,0,response1disk,,7,19.52685547,-3.102325439,1,0,0,rectangle,19.52685547,-3.102325439,1,0,0,,,,,,,19.52685547,-3.102325439,1,0,0,,0,132,132,93,1,
,,,,,,,,,,,,,FF,,,,,,,,0.783,,,,,,,,,,,,,,,,,,,,,,6102ffcf0b5c594e388d2d72,610369fd285afe664d9902cf,2021-07-29_19h55.21.686,Simcolourproject_2stim_asymm_v5,2020.2.10,MacIntel,60,61025ae37ef11b136ea224fe,,,,,,,,,2729,79.91308594,29.8734436,1,0,0,response1disk,,6,18.79138184,-10.80636597,1,0,0,rectangle,18.79138184,-10.80636597,1,0,0,,,,,,,18.79138184,-10.80636597,1,0,0,,0,133,133,116,1,
,,,,,,,,,,,,,FF,,,,,,,,0.9502,,,,,,,,,,,,,,,,,,,,,,6102ffcf0b5c594e388d2d72,610369fd285afe664d9902cf,2021-07-29_19h55.21.686,Simcolourproject_2stim_asymm_v5,2020.2.10,MacIntel,60,61025ae37ef11b136ea224fe,,,,,,,,,2480,-71.9432373,29.09829712,1,0,0,response7disk,,1,-6.581481934,-2.027008057,1,0,0,rectangle,-6.581481934,-2.027008057,1,0,0,,,,,,,-6.581481934,-2.027008057,1,0,0,,0,134,134,78,1,
,,,,,,,,,,,,,FF,,,,,,,,1.1828,,,,,,,,,,,,,,,,,,,,,,6102ffcf0b5c594e388d2d72,610369fd285afe664d9902cf,2021-07-29_19h55.21.686,Simcolourproject_2stim_asymm_v5,2020.2.10,MacIntel,60,61025ae37ef11b136ea224fe,,,,,,,,,3396,38.29187012,-70.47540283,1,0,0,response3disk,,4,-5.355834961,-4.52935791,1,0,0,rectangle,-5.355834961,-4.52935791,1,0,0,,,,,,,-5.355834961,-4.52935791,1,0,0,,0,135,135,64,1,
,,,,,,,,,,,,,FF,,,,,,,,0.7022,,,,,,,,,,,,,,,,,,,,,,6102ffcf0b5c594e388d2d72,610369fd285afe664d9902cf,2021-07-29_19h55.21.686,Simcolourproject_2stim_asymm_v5,2020.2.10,MacIntel,60,61025ae37ef11b136ea224fe,,,,,,,,,3834,22.06884766,83.4074707,1,0,0,response1disk,,7,0.563415527,-16.57369995,1,0,0,rectangle,0.563415527,-16.57369995,1,0,0,,,,,,,0.563415527,-16.57369995,1,0,0,,0,136,136,27,1,
,,,,,,,,,,,,,FF,,,,,,,,1.4487,,,,,,,,,,,,,,,,,,,,,,6102ffcf0b5c594e388d2d72,610369fd285afe664d9902cf,2021-07-29_19h55.21.686,Simcolourproject_2stim_asymm_v5,2020.2.10,MacIntel,60,61025ae37ef11b136ea224fe,,,,,,,,,2035,32.48291016,-61.1399231,1,0,0,response3disk,,4,2.620178223,-7.195068359,1,0,0,rectangle,2.620178223,-7.195068359,1,0,0,,,,,,,2.620178223,-7.195068359,1,0,0,,0,137,137,65,1,
,,,,,,,,,,,,,FF,,,,,,,,0.6189,,,,,,,,,,,,,,,,,,,,,,6102ffcf0b5c594e388d2d72,610369fd285afe664d9902cf,2021-07-29_19h55.21.686,Simcolourproject_2stim_asymm_v5,2020.2.10,MacIntel,60,61025ae37ef11b136ea224fe,,,,,,,,,2295,28.16149902,-81.23095703,1,0,0,response3disk,,4,-0.120483398,-9.934661865,1,0,0,rectangle,-0.120483398,-9.934661865,1,0,0,,,,,,,-0.120483398,-9.934661865,1,0,0,,0,138,138,14,1,
,,,,,,,,,,,,,FF,,,,,,,,0.8194,,,,,,,,,,,,,,,,,,,,,,6102ffcf0b5c594e388d2d72,610369fd285afe664d9902cf,2021-07-29_19h55.21.686,Simcolourproject_2stim_asymm_v5,2020.2.10,MacIntel,60,61025ae37ef11b136ea224fe,,,,,,,,,4305,-53.66760254,39.83990479,1,0,0,response7disk,,1,1.719787598,-13.20294189,1,0,0,rectangle,1.719787598,-13.20294189,1,0,0,,,,,,,1.719787598,-13.20294189,1,0,0,,0,139,139,149,1,
,,,,,,,,,,,,,FF,,,,,,,,0.9327,,,,,,,,,,,,,,,,,,,,,,6102ffcf0b5c594e388d2d72,610369fd285afe664d9902cf,2021-07-29_19h55.21.686,Simcolourproject_2stim_asymm_v5,2020.2.10,MacIntel,60,61025ae37ef11b136ea224fe,,,,,,,,,549,-27.17449951,-72.20452881,1,0,0,response5disk,,3,-8.688232422,-6.269989014,1,0,0,rectangle,-8.688232422,-6.269989014,1,0,0,,,,,,,-8.688232422,-6.269989014,1,0,0,,0,140,140,25,1,
,,,,,,,,,,,,,FF,,,,,,,,2.667,,,,,,,,,,,,,,,,,,,,,,6102ffcf0b5c594e388d2d72,610369fd285afe664d9902cf,2021-07-29_19h55.21.686,Simcolourproject_2stim_asymm_v5,2020.2.10,MacIntel,60,61025ae37ef11b136ea224fe,,,,,,,,,4208,-35.70916748,-58.35772705,1,0,0,response5disk,,3,-2.807067871,-11.3203125,1,0,0,rectangle,42.89685059,89.74057007,1,0,0,response1disk_3,TRUE,7,7,"[142,149,1,62,143,243,11,302,63,292,92,271,1,130,216,277,206,292,322,132]",1.2167,11.44641113,7.748504639,1,0,0,rectangle,0,141,141,44,1,
,,,,,,,,,,,,,FF,,,,,,,,0.7666,,,,,,,,,,,,,,,,,,,,,,6102ffcf0b5c594e388d2d72,610369fd285afe664d9902cf,2021-07-29_19h55.21.686,Simcolourproject_2stim_asymm_v5,2020.2.10,MacIntel,60,61025ae37ef11b136ea224fe,,,,,,,,,200,47.55004883,31.02578735,1,0,0,response1disk,,6,9.71496582,11.76229858,1,0,0,rectangle,-75.340271,31.67385864,1,0,0,response7disk_3,TRUE,1,1,"[142,149,1,62,143,243,11,302,63,292,92,271,1,130,216,277,206,292,322,132]",1.3818,-16.17120361,2.470825195,1,0,0,rectangle,0,142,142,61,1,
,,,,,,,,,,,,,FF,,,,,,,,0.9311,,,,,,,,,,,,,,,,,,,,,,6102ffcf0b5c594e388d2d72,610369fd285afe664d9902cf,2021-07-29_19h55.21.686,Simcolourproject_2stim_asymm_v5,2020.2.10,MacIntel,60,61025ae37ef11b136ea224fe,,,,,,,,,95,-42.37921143,-80.18743896,1,0,0,response5disk,,3,-9.315429688,-3.591308594,1,0,0,rectangle,-9.315429688,-3.591308594,1,0,0,,,,,,,-9.315429688,-3.591308594,1,0,0,,0,143,143,94,1,
,,,,,,,,,,,,,FF,,,,,,,,0.8503,,,,,,,,,,,,,,,,,,,,,,6102ffcf0b5c594e388d2d72,610369fd285afe664d9902cf,2021-07-29_19h55.21.686,Simcolourproject_2stim_asymm_v5,2020.2.10,MacIntel,60,61025ae37ef11b136ea224fe,,,,,,,,,1828,-63.22723389,-77.81854248,1,0,0,response5disk,,3,-22.33453369,15.72915649,1,0,0,rectangle,-22.33453369,15.72915649,1,0,0,,,,,,,-22.33453369,15.72915649,1,0,0,,0,144,144,53,1,
,,,,,,,,,,,,,FF,,,,,,,,0.8662,,,,,,,,,,,,,,,,,,,,,,6102ffcf0b5c594e388d2d72,610369fd285afe664d9902cf,2021-07-29_19h55.21.686,Simcolourproject_2stim_asymm_v5,2020.2.10,MacIntel,60,61025ae37ef11b136ea224fe,,,,,,,,,366,-73.63348389,21.24276733,1,0,0,response7disk,,1,-2.318969727,10.54797363,1,0,0,rectangle,-2.318969727,10.54797363,1,0,0,,,,,,,-2.318969727,10.54797363,1,0,0,,0,145,145,29,1,
,,,,,,,,,,,,,FF,,,,,,,,0.5664,,,,,,,,,,,,,,,,,,,,,,6102ffcf0b5c594e388d2d72,610369fd285afe664d9902cf,2021-07-29_19h55.21.686,Simcolourproject_2stim_asymm_v5,2020.2.10,MacIntel,60,61025ae37ef11b136ea224fe,,,,,,,,,1510,37.04498291,62.56481934,1,0,0,response1disk,,7,6.70324707,-1.115783691,1,0,0,rectangle,6.70324707,-1.115783691,1,0,0,,,,,,,6.70324707,-1.115783691,1,0,0,,0,146,146,28,1,
,,,,,,,,,,,,,FF,,,,,,,,0.7323,,,,,,,,,,,,,,,,,,,,,,6102ffcf0b5c594e388d2d72,610369fd285afe664d9902cf,2021-07-29_19h55.21.686,Simcolourproject_2stim_asymm_v5,2020.2.10,MacIntel,60,61025ae37ef11b136ea224fe,,,,,,,,,943,37.61621094,84.90905762,1,0,0,response1disk,,7,14.70068359,6.32989502,1,0,0,rectangle,14.70068359,6.32989502,1,0,0,,,,,,,14.70068359,6.32989502,1,0,0,,0,147,147,117,1,
,,,,,,,,,,,,,FF,,,,,,,,0.7199,,,,,,,,,,,,,,,,,,,,,,6102ffcf0b5c594e388d2d72,610369fd285afe664d9902cf,2021-07-29_19h55.21.686,Simcolourproject_2stim_asymm_v5,2020.2.10,MacIntel,60,61025ae37ef11b136ea224fe,,,,,,,,,3158,59.96331787,33.92849731,1,0,0,response1disk,,6,13.87127686,6.252319336,1,0,0,rectangle,31.51477051,-85.28143311,1,0,0,response3disk_3,TRUE,4,4,"[142,149,1,62,143,243,11,302,63,292,92,271,1,130,216,277,206,292,322,132]",1.6339,12.14691162,-8.358734131,1,0,0,rectangle,0,148,148,97,1,
,,,,,,,,,,,,,FF,,,,,,,,0.6993,,,,,,,,,,,,,,,,,,,,,,6102ffcf0b5c594e388d2d72,610369fd285afe664d9902cf,2021-07-29_19h55.21.686,Simcolourproject_2stim_asymm_v5,2020.2.10,MacIntel,60,61025ae37ef11b136ea224fe,,,,,,,,,3248,-50.65509033,-55.56185913,1,0,0,response5disk,,3,-28.26928711,11.96533203,1,0,0,rectangle,-28.26928711,11.96533203,1,0,0,,,,,,,-28.26928711,11.96533203,1,0,0,,0,149,149,137,1,
,,,,,,,,,,,,,FF,,,,,,,,1.3008,,,,,,,,,,,,,,,,,,,,,,6102ffcf0b5c594e388d2d72,610369fd285afe664d9902cf,2021-07-29_19h55.21.686,Simcolourproject_2stim_asymm_v5,2020.2.10,MacIntel,60,61025ae37ef11b136ea224fe,,,,,,,,,1278,46.12353516,86.43630981,1,0,0,response1disk,,7,12.76953125,5.910827637,1,0,0,rectangle,12.76953125,5.910827637,1,0,0,,,,,,,12.76953125,5.910827637,1,0,0,,0,150,150,80,1,
,,,,,,,,,,,,,FF,,,,,,,,0.7503,,,,,,,,,,,,,,,,,,,,,,6102ffcf0b5c594e388d2d72,610369fd285afe664d9902cf,2021-07-29_19h55.21.686,Simcolourproject_2stim_asymm_v5,2020.2.10,MacIntel,60,61025ae37ef11b136ea224fe,,,,,,,,,2030,-33.10949707,-80.83184814,1,0,0,response5disk,,3,12.26831055,8.503173828,1,0,0,rectangle,12.26831055,8.503173828,1,0,0,,,,,,,12.26831055,8.503173828,1,0,0,,0,151,151,101,1,
,,,,,,,,,,,,,FF,,,,,,,,1.0869,,,,,,,,,,,,,,,,,,,,,,6102ffcf0b5c594e388d2d72,610369fd285afe664d9902cf,2021-07-29_19h55.21.686,Simcolourproject_2stim_asymm_v5,2020.2.10,MacIntel,60,61025ae37ef11b136ea224fe,,,,,,,,,258,-38.3092041,-75.62573242,1,0,0,response5disk,,3,10.10931396,-9.136077881,1,0,0,rectangle,10.10931396,-9.136077881,1,0,0,,,,,,,10.10931396,-9.136077881,1,0,0,,0,152,152,13,1,
,,,,,,,,,,,,,FF,,,,,,,,0.7523,,,,,,,,,,,,,,,,,,,,,,6102ffcf0b5c594e388d2d72,610369fd285afe664d9902cf,2021-07-29_19h55.21.686,Simcolourproject_2stim_asymm_v5,2020.2.10,MacIntel,60,61025ae37ef11b136ea224fe,,,,,,,,,1398,48.37219238,39.271698,1,0,0,response1disk,,6,7.546691895,5.237762451,1,0,0,rectangle,7.546691895,5.237762451,1,0,0,,,,,,,7.546691895,5.237762451,1,0,0,,0,153,153,48,1,
,,,,,,,,,,,,,FF,,,,,,,,0.7689,,,,,,,,,,,,,,,,,,,,,,6102ffcf0b5c594e388d2d72,610369fd285afe664d9902cf,2021-07-29_19h55.21.686,Simcolourproject_2stim_asymm_v5,2020.2.10,MacIntel,60,61025ae37ef11b136ea224fe,,,,,,,,,372,22.93481445,72.25650024,1,0,0,response1disk,,7,-5.503356934,-7.576049805,1,0,0,rectangle,-5.503356934,-7.576049805,1,0,0,,,,,,,-5.503356934,-7.576049805,1,0,0,,0,154,154,119,1,
,,,,,,,,,,,,,FF,,,,,,,,0.6993,,,,,,,,,,,,,,,,,,,,,,6102ffcf0b5c594e388d2d72,610369fd285afe664d9902cf,2021-07-29_19h55.21.686,Simcolourproject_2stim_asymm_v5,2020.2.10,MacIntel,60,61025ae37ef11b136ea224fe,,,,,,,,,512,34.32397461,50.61373901,1,0,0,response1disk,,7,6.813293457,0.409179688,1,0,0,rectangle,6.813293457,0.409179688,1,0,0,,,,,,,6.813293457,0.409179688,1,0,0,,0,155,155,22,1,
,,,,,,,,,,,,,FF,,,,,,,,0.5005,,,,,,,,,,,,,,,,,,,,,,6102ffcf0b5c594e388d2d72,610369fd285afe664d9902cf,2021-07-29_19h55.21.686,Simcolourproject_2stim_asymm_v5,2020.2.10,MacIntel,60,61025ae37ef11b136ea224fe,,,,,,,,,961,39.33642578,71.37927246,1,0,0,response1disk,,7,10.44061279,1.14831543,1,0,0,rectangle,10.44061279,1.14831543,1,0,0,,,,,,,10.44061279,1.14831543,1,0,0,,0,156,156,107,1,
,,,,,,,,,,,,,FF,,,,,,,,0.6362,,,,,,,,,,,,,,,,,,,,,,6102ffcf0b5c594e388d2d72,610369fd285afe664d9902cf,2021-07-29_19h55.21.686,Simcolourproject_2stim_asymm_v5,2020.2.10,MacIntel,60,61025ae37ef11b136ea224fe,,,,,,,,,3854,43.52246094,80.03384399,1,0,0,response1disk,,7,10.18841553,15.23583984,1,0,0,rectangle,10.18841553,15.23583984,1,0,0,,,,,,,10.18841553,15.23583984,1,0,0,,0,157,157,52,1,
,,,,,,,,,,,,,FF,,,,,,,,0.467,,,,,,,,,,,,,,,,,,,,,,6102ffcf0b5c594e388d2d72,610369fd285afe664d9902cf,2021-07-29_19h55.21.686,Simcolourproject_2stim_asymm_v5,2020.2.10,MacIntel,60,61025ae37ef11b136ea224fe,,,,,,,,,4284,35.02832031,77.68560791,1,0,0,response1disk,,7,9.49432373,8.840087891,1,0,0,rectangle,9.49432373,8.840087891,1,0,0,,,,,,,9.49432373,8.840087891,1,0,0,,0,158,158,81,1,
,,,,,,,,,,,,,FF,,,,,,,,0.7679,,,,,,,,,,,,,,,,,,,,,,6102ffcf0b5c594e388d2d72,610369fd285afe664d9902cf,2021-07-29_19h55.21.686,Simcolourproject_2stim_asymm_v5,2020.2.10,MacIntel,60,61025ae37ef11b136ea224fe,,,,,,,,,1879,55.04370117,96.34786987,1,0,0,response1disk,,7,17.98034668,7.953613281,1,0,0,rectangle,17.98034668,7.953613281,1,0,0,,,,,,,17.98034668,7.953613281,1,0,0,,0,159,159,77,1,
,,,,,,,,,,,,,FF,,,,,,,,0.5651,,,,,,,,,,,,,,,,,,,,,,6102ffcf0b5c594e388d2d72,610369fd285afe664d9902cf,2021-07-29_19h55.21.686,Simcolourproject_2stim_asymm_v5,2020.2.10,MacIntel,60,61025ae37ef11b136ea224fe,,,,,,,,,558,42.5065918,79.23471069,1,0,0,response1disk,,7,1.069702148,-9.107086182,1,0,0,rectangle,1.069702148,-9.107086182,1,0,0,,,,,,,1.069702148,-9.107086182,1,0,0,,1,0,160,142,1,
,,,,,,,,,,,,,FF,,,,,,,,0.5669,,,,,,,,,,,,,,,,,,,,,,6102ffcf0b5c594e388d2d72,610369fd285afe664d9902cf,2021-07-29_19h55.21.686,Simcolourproject_2stim_asymm_v5,2020.2.10,MacIntel,60,61025ae37ef11b136ea224fe,,,,,,,,,81,-35.81933594,-74.97070313,1,0,0,response5disk,,3,-2.95111084,-9.14630127,1,0,0,rectangle,-2.95111084,-9.14630127,1,0,0,,,,,,,-2.95111084,-9.14630127,1,0,0,,1,1,161,149,1,
,,,,,,,,,,,,,FF,,,,,,,,0.5174,,,,,,,,,,,,,,,,,,,,,,6102ffcf0b5c594e388d2d72,610369fd285afe664d9902cf,2021-07-29_19h55.21.686,Simcolourproject_2stim_asymm_v5,2020.2.10,MacIntel,60,61025ae37ef11b136ea224fe,,,,,,,,,2133,38.79675293,74.15060425,1,0,0,response1disk,,7,-2.468017578,-17.83694458,1,0,0,rectangle,-2.468017578,-17.83694458,1,0,0,,,,,,,-2.468017578,-17.83694458,1,0,0,,1,2,162,25,1,
,,,,,,,,,,,,,FF,,,,,,,,0.7331,,,,,,,,,,,,,,,,,,,,,,6102ffcf0b5c594e388d2d72,610369fd285afe664d9902cf,2021-07-29_19h55.21.686,Simcolourproject_2stim_asymm_v5,2020.2.10,MacIntel,60,61025ae37ef11b136ea224fe,,,,,,,,,4061,38.34991455,64.15142822,1,0,0,response1disk,,7,23.48016357,3.73135376,1,0,0,rectangle,23.48016357,3.73135376,1,0,0,,,,,,,23.48016357,3.73135376,1,0,0,,1,3,163,96,1,
,,,,,,,,,,,,,FF,,,,,,,,2.3336,,,,,,,,,,,,,,,,,,,,,,6102ffcf0b5c594e388d2d72,610369fd285afe664d9902cf,2021-07-29_19h55.21.686,Simcolourproject_2stim_asymm_v5,2020.2.10,MacIntel,60,61025ae37ef11b136ea224fe,,,,,,,,,2351,60.82055664,51.67752075,1,0,0,response1disk,,6,19.28106689,4.974578857,1,0,0,rectangle,19.28106689,4.974578857,1,0,0,,,,,,,19.28106689,4.974578857,1,0,0,,1,4,164,20,1,
,,,,,,,,,,,,,FF,,,,,,,,0.5838,,,,,,,,,,,,,,,,,,,,,,6102ffcf0b5c594e388d2d72,610369fd285afe664d9902cf,2021-07-29_19h55.21.686,Simcolourproject_2stim_asymm_v5,2020.2.10,MacIntel,60,61025ae37ef11b136ea224fe,,,,,,,,,1272,35.61895752,41.51898193,1,0,0,response1disk,,7,12.1854248,-1.4453125,1,0,0,rectangle,12.1854248,-1.4453125,1,0,0,,,,,,,12.1854248,-1.4453125,1,0,0,,1,5,165,127,1,
,,,,,,,,,,,,,FF,,,,,,,,0.9335,,,,,,,,,,,,,,,,,,,,,,6102ffcf0b5c594e388d2d72,610369fd285afe664d9902cf,2021-07-29_19h55.21.686,Simcolourproject_2stim_asymm_v5,2020.2.10,MacIntel,60,61025ae37ef11b136ea224fe,,,,,,,,,4276,84.0802002,47.11520386,1,0,0,response1disk,,6,18.55712891,15.88394165,1,0,0,rectangle,18.55712891,15.88394165,1,0,0,,,,,,,18.55712891,15.88394165,1,0,0,,1,6,166,98,1,
,,,,,,,,,,,,,FF,,,,,,,,0.4839,,,,,,,,,,,,,,,,,,,,,,6102ffcf0b5c594e388d2d72,610369fd285afe664d9902cf,2021-07-29_19h55.21.686,Simcolourproject_2stim_asymm_v5,2020.2.10,MacIntel,60,61025ae37ef11b136ea224fe,,,,,,,,,1009,46.55194092,80.20401001,1,0,0,response1disk,,7,13.22338867,17.53179932,1,0,0,rectangle,13.22338867,17.53179932,1,0,0,,,,,,,13.22338867,17.53179932,1,0,0,,1,7,167,76,1,
,,,,,,,,,,,,,FF,,,,,,,,0.8502,,,,,,,,,,,,,,,,,,,,,,6102ffcf0b5c594e388d2d72,610369fd285afe664d9902cf,2021-07-29_19h55.21.686,Simcolourproject_2stim_asymm_v5,2020.2.10,MacIntel,60,61025ae37ef11b136ea224fe,,,,,,,,,2673,57.67822266,-37.93927002,1,0,0,response3disk,,5,13.28863525,-1.424285889,1,0,0,rectangle,13.28863525,-1.424285889,1,0,0,,,,,,,13.28863525,-1.424285889,1,0,0,,1,8,168,16,1,
,,,,,,,,,,,,,FF,,,,,,,,0.5518,,,,,,,,,,,,,,,,,,,,,,6102ffcf0b5c594e388d2d72,610369fd285afe664d9902cf,2021-07-29_19h55.21.686,Simcolourproject_2stim_asymm_v5,2020.2.10,MacIntel,60,61025ae37ef11b136ea224fe,,,,,,,,,303,47.03222656,76.44396973,1,0,0,response1disk,,7,35.2532959,4.652587891,1,0,0,rectangle,35.2532959,4.652587891,1,0,0,,,,,,,35.2532959,4.652587891,1,0,0,,1,9,169,93,1,
,,,,,,,,,,,,,FF,,,,,,,,0.9147,,,,,,,,,,,,,,,,,,,,,,6102ffcf0b5c594e388d2d72,610369fd285afe664d9902cf,2021-07-29_19h55.21.686,Simcolourproject_2stim_asymm_v5,2020.2.10,MacIntel,60,61025ae37ef11b136ea224fe,,,,,,,,,4246,95.25128174,62.95196533,1,0,0,response1disk,,6,12.31750488,-12.96121216,1,0,0,rectangle,12.31750488,-12.96121216,1,0,0,,,,,,,12.31750488,-12.96121216,1,0,0,,1,10,170,37,1,
,,,,,,,,,,,,,FF,,,,,,,,0.6354,,,,,,,,,,,,,,,,,,,,,,6102ffcf0b5c594e388d2d72,610369fd285afe664d9902cf,2021-07-29_19h55.21.686,Simcolourproject_2stim_asymm_v5,2020.2.10,MacIntel,60,61025ae37ef11b136ea224fe,,,,,,,,,963,56.00323486,67.71459961,1,0,0,response1disk,,7,12.92950439,0.632843018,1,0,0,rectangle,12.92950439,0.632843018,1,0,0,,,,,,,12.92950439,0.632843018,1,0,0,,1,11,171,131,1,
,,,,,,,,,,,,,FF,,,,,,,,0.8674,,,,,,,,,,,,,,,,,,,,,,6102ffcf0b5c594e388d2d72,610369fd285afe664d9902cf,2021-07-29_19h55.21.686,Simcolourproject_2stim_asymm_v5,2020.2.10,MacIntel,60,61025ae37ef11b136ea224fe,,,,,,,,,2611,45.25030518,-65.71746826,1,0,0,response3disk,,4,25.80688477,-10.26461792,1,0,0,rectangle,25.80688477,-10.26461792,1,0,0,,,,,,,25.80688477,-10.26461792,1,0,0,,1,12,172,9,1,
,,,,,,,,,,,,,FF,,,,,,,,0.5661,,,,,,,,,,,,,,,,,,,,,,6102ffcf0b5c594e388d2d72,610369fd285afe664d9902cf,2021-07-29_19h55.21.686,Simcolourproject_2stim_asymm_v5,2020.2.10,MacIntel,60,61025ae37ef11b136ea224fe,,,,,,,,,3222,37.00683594,107.8919983,1,0,0,response1disk,,7,3.226196289,12.90908813,1,0,0,rectangle,3.226196289,12.90908813,1,0,0,,,,,,,3.226196289,12.90908813,1,0,0,,1,13,173,141,1,
,,,,,,,,,,,,,FF,,,,,,,,0.5678,,,,,,,,,,,,,,,,,,,,,,6102ffcf0b5c594e388d2d72,610369fd285afe664d9902cf,2021-07-29_19h55.21.686,Simcolourproject_2stim_asymm_v5,2020.2.10,MacIntel,60,61025ae37ef11b136ea224fe,,,,,,,,,819,59.00805664,82.32119751,1,0,0,response1disk,,7,-15.93408203,-15.5854187,1,0,0,rectangle,-15.93408203,-15.5854187,1,0,0,,,,,,,-15.93408203,-15.5854187,1,0,0,,1,14,174,80,1,
,,,,,,,,,,,,,FF,,,,,,,,1.4691,,,,,,,,,,,,,,,,,,,,,,6102ffcf0b5c594e388d2d72,610369fd285afe664d9902cf,2021-07-29_19h55.21.686,Simcolourproject_2stim_asymm_v5,2020.2.10,MacIntel,60,61025ae37ef11b136ea224fe,,,,,,,,,2595,73.18139648,-62.00872803,1,0,0,response3disk,,5,-20.71569824,-17.56854248,1,0,0,rectangle,-20.71569824,-17.56854248,1,0,0,,,,,,,-20.71569824,-17.56854248,1,0,0,,1,15,175,58,1,
,,,,,,,,,,,,,FF,,,,,,,,1.0498,,,,,,,,,,,,,,,,,,,,,,6102ffcf0b5c594e388d2d72,610369fd285afe664d9902cf,2021-07-29_19h55.21.686,Simcolourproject_2stim_asymm_v5,2020.2.10,MacIntel,60,61025ae37ef11b136ea224fe,,,,,,,,,2928,95.75665283,41.34179688,1,0,0,response1disk,,6,1.741088867,-13.69271851,1,0,0,rectangle,1.741088867,-13.69271851,1,0,0,,,,,,,1.741088867,-13.69271851,1,0,0,,1,16,176,97,1,
,,,,,,,,,,,,,FF,,,,,,,,1.0821,,,,,,,,,,,,,,,,,,,,,,6102ffcf0b5c594e388d2d72,610369fd285afe664d9902cf,2021-07-29_19h55.21.686,Simcolourproject_2stim_asymm_v5,2020.2.10,MacIntel,60,61025ae37ef11b136ea224fe,,,,,,,,,310,52.83502197,116.0192261,1,0,0,response1disk,,7,4.168151855,-3.227813721,1,0,0,rectangle,4.168151855,-3.227813721,1,0,0,,,,,,,4.168151855,-3.227813721,1,0,0,,1,17,177,3,1,
,,,,,,,,,,,,,FF,,,,,,,,1.1663,,,,,,,,,,,,,,,,,,,,,,6102ffcf0b5c594e388d2d72,610369fd285afe664d9902cf,2021-07-29_19h55.21.686,Simcolourproject_2stim_asymm_v5,2020.2.10,MacIntel,60,61025ae37ef11b136ea224fe,,,,,,,,,1311,73.70471191,-54.19787598,1,0,0,response3disk,,5,24.36010742,8.700256348,1,0,0,rectangle,24.36010742,8.700256348,1,0,0,,,,,,,24.36010742,8.700256348,1,0,0,,1,18,178,103,1,
,,,,,,,,,,,,,FF,,,,,,,,0.5174,,,,,,,,,,,,,,,,,,,,,,6102ffcf0b5c594e388d2d72,610369fd285afe664d9902cf,2021-07-29_19h55.21.686,Simcolourproject_2stim_asymm_v5,2020.2.10,MacIntel,60,61025ae37ef11b136ea224fe,,,,,,,,,1175,36.37652588,85.84317017,1,0,0,response1disk,,7,-0.323852539,-14.95715332,1,0,0,rectangle,-0.323852539,-14.95715332,1,0,0,,,,,,,-0.323852539,-14.95715332,1,0,0,,1,19,179,22,1,
,,,,,,,,,,,,,FF,,,,,,,,0.8323,,,,,,,,,,,,,,,,,,,,,,6102ffcf0b5c594e388d2d72,610369fd285afe664d9902cf,2021-07-29_19h55.21.686,Simcolourproject_2stim_asymm_v5,2020.2.10,MacIntel,60,61025ae37ef11b136ea224fe,,,,,,,,,2305,33.64074707,62.58544922,1,0,0,response1disk,,7,-11.0993042,1.337738037,1,0,0,rectangle,-11.0993042,1.337738037,1,0,0,,,,,,,-11.0993042,1.337738037,1,0,0,,1,20,180,101,1,
,,,,,,,,,,,,,FF,,,,,,,,0.7164,,,,,,,,,,,,,,,,,,,,,,6102ffcf0b5c594e388d2d72,610369fd285afe664d9902cf,2021-07-29_19h55.21.686,Simcolourproject_2stim_asymm_v5,2020.2.10,MacIntel,60,61025ae37ef11b136ea224fe,,,,,,,,,3957,39.66809082,69.24966431,1,0,0,response1disk,,7,-2.22644043,-9.074310303,1,0,0,rectangle,-2.22644043,-9.074310303,1,0,0,,,,,,,-2.22644043,-9.074310303,1,0,0,,1,21,181,144,1,
,,,,,,,,,,,,,FF,,,,,,,,0.8836,,,,,,,,,,,,,,,,,,,,,,6102ffcf0b5c594e388d2d72,610369fd285afe664d9902cf,2021-07-29_19h55.21.686,Simcolourproject_2stim_asymm_v5,2020.2.10,MacIntel,60,61025ae37ef11b136ea224fe,,,,,,,,,1193,77.08013916,44.04934692,1,0,0,response1disk,,6,-6.346679688,13.59796143,1,0,0,rectangle,-6.346679688,13.59796143,1,0,0,,,,,,,-6.346679688,13.59796143,1,0,0,,1,22,182,125,1,
,,,,,,,,,,,,,FF,,,,,,,,0.4669,,,,,,,,,,,,,,,,,,,,,,6102ffcf0b5c594e388d2d72,610369fd285afe664d9902cf,2021-07-29_19h55.21.686,Simcolourproject_2stim_asymm_v5,2020.2.10,MacIntel,60,61025ae37ef11b136ea224fe,,,,,,,,,876,43.57287598,64.44509888,1,0,0,response1disk,,7,2.388061523,-1.342498779,1,0,0,rectangle,2.388061523,-1.342498779,1,0,0,,,,,,,2.388061523,-1.342498779,1,0,0,,1,23,183,104,1,
,,,,,,,,,,,,,FF,,,,,,,,0.9004,,,,,,,,,,,,,,,,,,,,,,6102ffcf0b5c594e388d2d72,610369fd285afe664d9902cf,2021-07-29_19h55.21.686,Simcolourproject_2stim_asymm_v5,2020.2.10,MacIntel,60,61025ae37ef11b136ea224fe,,,,,,,,,2958,36.35400391,65.29714966,1,0,0,response1disk,,7,6.413269043,5.331085205,1,0,0,rectangle,6.413269043,5.331085205,1,0,0,,,,,,,6.413269043,5.331085205,1,0,0,,1,24,184,46,1,
,,,,,,,,,,,,,FF,,,,,,,,0.4505,,,,,,,,,,,,,,,,,,,,,,6102ffcf0b5c594e388d2d72,610369fd285afe664d9902cf,2021-07-29_19h55.21.686,Simcolourproject_2stim_asymm_v5,2020.2.10,MacIntel,60,61025ae37ef11b136ea224fe,,,,,,,,,214,41.46374512,64.79208374,1,0,0,response1disk,,7,10.57775879,12.48474121,1,0,0,rectangle,10.57775879,12.48474121,1,0,0,,,,,,,10.57775879,12.48474121,1,0,0,,1,25,185,48,1,
,,,,,,,,,,,,,FF,,,,,,,,0.3811,,,,,,,,,,,,,,,,,,,,,,6102ffcf0b5c594e388d2d72,610369fd285afe664d9902cf,2021-07-29_19h55.21.686,Simcolourproject_2stim_asymm_v5,2020.2.10,MacIntel,60,61025ae37ef11b136ea224fe,,,,,,,,,3349,54.01239014,92.74862671,1,0,0,response1disk,,7,12.33294678,13.24649048,1,0,0,rectangle,12.33294678,13.24649048,1,0,0,,,,,,,12.33294678,13.24649048,1,0,0,,1,26,186,122,1,
,,,,,,,,,,,,,FF,,,,,,,,0.3478,,,,,,,,,,,,,,,,,,,,,,6102ffcf0b5c594e388d2d72,610369fd285afe664d9902cf,2021-07-29_19h55.21.686,Simcolourproject_2stim_asymm_v5,2020.2.10,MacIntel,60,61025ae37ef11b136ea224fe,,,,,,,,,302,42.14447021,74.29211426,1,0,0,response1disk,,7,5.97064209,5.744049072,1,0,0,rectangle,5.97064209,5.744049072,1,0,0,,,,,,,5.97064209,5.744049072,1,0,0,,1,27,187,82,1,
,,,,,,,,,,,,,FF,,,,,,,,0.9504,,,,,,,,,,,,,,,,,,,,,,6102ffcf0b5c594e388d2d72,610369fd285afe664d9902cf,2021-07-29_19h55.21.686,Simcolourproject_2stim_asymm_v5,2020.2.10,MacIntel,60,61025ae37ef11b136ea224fe,,,,,,,,,3680,86.17565918,-29.1817627,1,0,0,response3disk,,5,-13.48828125,-8.072265625,1,0,0,rectangle,-13.48828125,-8.072265625,1,0,0,,,,,,,-13.48828125,-8.072265625,1,0,0,,1,28,188,86,1,
,,,,,,,,,,,,,FF,,,,,,,,1.3326,,,,,,,,,,,,,,,,,,,,,,6102ffcf0b5c594e388d2d72,610369fd285afe664d9902cf,2021-07-29_19h55.21.686,Simcolourproject_2stim_asymm_v5,2020.2.10,MacIntel,60,61025ae37ef11b136ea224fe,,,,,,,,,811,69.42382813,-25.28604126,1,0,0,response3disk,,5,-9.59197998,11.27264404,1,0,0,rectangle,-9.59197998,11.27264404,1,0,0,,,,,,,-9.59197998,11.27264404,1,0,0,,1,29,189,34,1,
,,,,,,,,,,,,,FF,,,,,,,,1.4514,,,,,,,,,,,,,,,,,,,,,,6102ffcf0b5c594e388d2d72,610369fd285afe664d9902cf,2021-07-29_19h55.21.686,Simcolourproject_2stim_asymm_v5,2020.2.10,MacIntel,60,61025ae37ef11b136ea224fe,,,,,,,,,1200,65.82525635,-21.05993652,1,0,0,response3disk,,5,3.507446289,-5.701599121,1,0,0,rectangle,3.507446289,-5.701599121,1,0,0,,,,,,,3.507446289,-5.701599121,1,0,0,,1,30,190,134,1,
,,,,,,,,,,,,,FF,,,,,,,,0.4001,,,,,,,,,,,,,,,,,,,,,,6102ffcf0b5c594e388d2d72,610369fd285afe664d9902cf,2021-07-29_19h55.21.686,Simcolourproject_2stim_asymm_v5,2020.2.10,MacIntel,60,61025ae37ef11b136ea224fe,,,,,,,,,2192,31.05535889,59.90634155,1,0,0,response1disk,,7,8.820922852,2.401092529,1,0,0,rectangle,8.820922852,2.401092529,1,0,0,,,,,,,8.820922852,2.401092529,1,0,0,,1,31,191,99,1,
,,,,,,,,,,,,,FF,,,,,,,,0.4516,,,,,,,,,,,,,,,,,,,,,,6102ffcf0b5c594e388d2d72,610369fd285afe664d9902cf,2021-07-29_19h55.21.686,Simcolourproject_2stim_asymm_v5,2020.2.10,MacIntel,60,61025ae37ef11b136ea224fe,,,,,,,,,4260,36.12084961,54.76522827,1,0,0,response1disk,,7,7.713012695,4.664031982,1,0,0,rectangle,7.713012695,4.664031982,1,0,0,,,,,,,7.713012695,4.664031982,1,0,0,,1,32,192,113,1,
,,,,,,,,,,,,,FF,,,,,,,,1.3815,,,,,,,,,,,,,,,,,,,,,,6102ffcf0b5c594e388d2d72,610369fd285afe664d9902cf,2021-07-29_19h55.21.686,Simcolourproject_2stim_asymm_v5,2020.2.10,MacIntel,60,61025ae37ef11b136ea224fe,,,,,,,,,780,77.2098999,60.43093872,1,0,0,response1disk,,6,13.75390625,10.33120728,1,0,0,rectangle,13.75390625,10.33120728,1,0,0,,,,,,,13.75390625,10.33120728,1,0,0,,1,33,193,121,1,
,,,,,,,,,,,,,FF,,,,,,,,1.2002,,,,,,,,,,,,,,,,,,,,,,6102ffcf0b5c594e388d2d72,610369fd285afe664d9902cf,2021-07-29_19h55.21.686,Simcolourproject_2stim_asymm_v5,2020.2.10,MacIntel,60,61025ae37ef11b136ea224fe,,,,,,,,,2,-38.90563965,-72.659729,1,0,0,response5disk,,3,6.292053223,-2.541046143,1,0,0,rectangle,6.292053223,-2.541046143,1,0,0,,,,,,,6.292053223,-2.541046143,1,0,0,,1,34,194,33,1,
,,,,,,,,,,,,,FF,,,,,,,,0.75,,,,,,,,,,,,,,,,,,,,,,6102ffcf0b5c594e388d2d72,610369fd285afe664d9902cf,2021-07-29_19h55.21.686,Simcolourproject_2stim_asymm_v5,2020.2.10,MacIntel,60,61025ae37ef11b136ea224fe,,,,,,,,,3147,-52.32067871,-65.25079346,1,0,0,response5disk,,3,-22.39434814,12.32202148,1,0,0,rectangle,-22.39434814,12.32202148,1,0,0,,,,,,,-22.39434814,12.32202148,1,0,0,,1,35,195,31,1,
,,,,,,,,,,,,,FF,,,,,,,,1.7502,,,,,,,,,,,,,,,,,,,,,,6102ffcf0b5c594e388d2d72,610369fd285afe664d9902cf,2021-07-29_19h55.21.686,Simcolourproject_2stim_asymm_v5,2020.2.10,MacIntel,60,61025ae37ef11b136ea224fe,,,,,,,,,983,29.64916992,-63.07495117,1,0,0,response3disk,,4,-0.52166748,1.887023926,1,0,0,rectangle,-0.52166748,1.887023926,1,0,0,,,,,,,-0.52166748,1.887023926,1,0,0,,1,36,196,12,1,
,,,,,,,,,,,,,FF,,,,,,,,0.7839,,,,,,,,,,,,,,,,,,,,,,6102ffcf0b5c594e388d2d72,610369fd285afe664d9902cf,2021-07-29_19h55.21.686,Simcolourproject_2stim_asymm_v5,2020.2.10,MacIntel,60,61025ae37ef11b136ea224fe,,,,,,,,,3591,-60.14593506,45.49313354,1,0,0,response7disk,,1,0.58026123,-14.45391846,1,0,0,rectangle,0.58026123,-14.45391846,1,0,0,,,,,,,0.58026123,-14.45391846,1,0,0,,1,37,197,108,1,
,,,,,,,,,,,,,FF,,,,,,,,0.9661,,,,,,,,,,,,,,,,,,,,,,6102ffcf0b5c594e388d2d72,610369fd285afe664d9902cf,2021-07-29_19h55.21.686,Simcolourproject_2stim_asymm_v5,2020.2.10,MacIntel,60,61025ae37ef11b136ea224fe,,,,,,,,,465,34.36279297,68.39743042,1,0,0,response1disk,,7,19.22442627,13.35888672,1,0,0,rectangle,19.22442627,13.35888672,1,0,0,,,,,,,19.22442627,13.35888672,1,0,0,,1,38,198,19,1,
,,,,,,,,,,,,,FF,,,,,,,,0.6843,,,,,,,,,,,,,,,,,,,,,,6102ffcf0b5c594e388d2d72,610369fd285afe664d9902cf,2021-07-29_19h55.21.686,Simcolourproject_2stim_asymm_v5,2020.2.10,MacIntel,60,61025ae37ef11b136ea224fe,,,,,,,,,1545,66.00030518,39.31384277,1,0,0,response1disk,,6,7.024414063,-3.872467041,1,0,0,rectangle,7.024414063,-3.872467041,1,0,0,,,,,,,7.024414063,-3.872467041,1,0,0,,1,39,199,128,1,
,,,,,,,,,,,,,FF,,,,,,,,0.7852,,,,,,,,,,,,,,,,,,,,,,6102ffcf0b5c594e388d2d72,610369fd285afe664d9902cf,2021-07-29_19h55.21.686,Simcolourproject_2stim_asymm_v5,2020.2.10,MacIntel,60,61025ae37ef11b136ea224fe,,,,,,,,,2033,-50.61755371,-63.03387451,1,0,0,response5disk,,3,-2.066589355,-7.364654541,1,0,0,rectangle,-2.066589355,-7.364654541,1,0,0,,,,,,,-2.066589355,-7.364654541,1,0,0,,1,40,200,55,1,
,,,,,,,,,,,,,FF,,,,,,,,0.7343,,,,,,,,,,,,,,,,,,,,,,6102ffcf0b5c594e388d2d72,610369fd285afe664d9902cf,2021-07-29_19h55.21.686,Simcolourproject_2stim_asymm_v5,2020.2.10,MacIntel,60,61025ae37ef11b136ea224fe,,,,,,,,,1648,35.27770996,78.33383179,1,0,0,response1disk,,7,1.631225586,0.499328613,1,0,0,rectangle,1.631225586,0.499328613,1,0,0,,,,,,,1.631225586,0.499328613,1,0,0,,1,41,201,145,1,
,,,,,,,,,,,,,FF,,,,,,,,0.6175,,,,,,,,,,,,,,,,,,,,,,6102ffcf0b5c594e388d2d72,610369fd285afe664d9902cf,2021-07-29_19h55.21.686,Simcolourproject_2stim_asymm_v5,2020.2.10,MacIntel,60,61025ae37ef11b136ea224fe,,,,,,,,,2436,29.86193848,77.96075439,1,0,0,response1disk,,7,-0.432312012,5.172210693,1,0,0,rectangle,-0.432312012,5.172210693,1,0,0,,,,,,,-0.432312012,5.172210693,1,0,0,,1,42,202,95,1,
,,,,,,,,,,,,,FF,,,,,,,,0.6505,,,,,,,,,,,,,,,,,,,,,,6102ffcf0b5c594e388d2d72,610369fd285afe664d9902cf,2021-07-29_19h55.21.686,Simcolourproject_2stim_asymm_v5,2020.2.10,MacIntel,60,61025ae37ef11b136ea224fe,,,,,,,,,3154,-38.4029541,-76.35089111,1,0,0,response5disk,,3,-12.13317871,7.654785156,1,0,0,rectangle,-12.13317871,7.654785156,1,0,0,,,,,,,-12.13317871,7.654785156,1,0,0,,1,43,203,89,1,
,,,,,,,,,,,,,FF,,,,,,,,0.7674,,,,,,,,,,,,,,,,,,,,,,6102ffcf0b5c594e388d2d72,610369fd285afe664d9902cf,2021-07-29_19h55.21.686,Simcolourproject_2stim_asymm_v5,2020.2.10,MacIntel,60,61025ae37ef11b136ea224fe,,,,,,,,,2042,17.32769775,-36.79406738,1,0,0,response3disk,,4,-2.282958984,-0.781921387,1,0,0,rectangle,-2.282958984,-0.781921387,1,0,0,,,,,,,-2.282958984,-0.781921387,1,0,0,,1,44,204,136,1,
,,,,,,,,,,,,,FF,,,,,,,,1.033,,,,,,,,,,,,,,,,,,,,,,6102ffcf0b5c594e388d2d72,610369fd285afe664d9902cf,2021-07-29_19h55.21.686,Simcolourproject_2stim_asymm_v5,2020.2.10,MacIntel,60,61025ae37ef11b136ea224fe,,,,,,,,,2898,-16.38232422,-66.41717529,1,0,0,response5disk,,3,17.4944458,-15.55285645,1,0,0,rectangle,-56.9675293,-74.85620117,1,0,0,response5disk_3,TRUE,3,3,"[142,149,1,62,143,243,11,302,63,292,92,271,1,130,216,277,206,292,322,132]",1.8196,-12.45507813,-16.10293579,1,0,0,rectangle,1,45,205,124,1,
,,,,,,,,,,,,,FF,,,,,,,,0.8169,,,,,,,,,,,,,,,,,,,,,,6102ffcf0b5c594e388d2d72,610369fd285afe664d9902cf,2021-07-29_19h55.21.686,Simcolourproject_2stim_asymm_v5,2020.2.10,MacIntel,60,61025ae37ef11b136ea224fe,,,,,,,,,3303,25.58807373,-52.45413208,1,0,0,response3disk,,4,2.896850586,-5.130004883,1,0,0,rectangle,2.896850586,-5.130004883,1,0,0,,,,,,,2.896850586,-5.130004883,1,0,0,,1,46,206,77,1,
,,,,,,,,,,,,,FF,,,,,,,,0.748,,,,,,,,,,,,,,,,,,,,,,6102ffcf0b5c594e388d2d72,610369fd285afe664d9902cf,2021-07-29_19h55.21.686,Simcolourproject_2stim_asymm_v5,2020.2.10,MacIntel,60,61025ae37ef11b136ea224fe,,,,,,,,,1264,47.35845947,-30.70120239,1,0,0,response3disk,,5,-6.678344727,-7.571533203,1,0,0,rectangle,-6.678344727,-7.571533203,1,0,0,,,,,,,-6.678344727,-7.571533203,1,0,0,,1,47,207,155,1,
,,,,,,,,,,,,,FF,,,,,,,,0.8998,,,,,,,,,,,,,,,,,,,,,,6102ffcf0b5c594e388d2d72,610369fd285afe664d9902cf,2021-07-29_19h55.21.686,Simcolourproject_2stim_asymm_v5,2020.2.10,MacIntel,60,61025ae37ef11b136ea224fe,,,,,,,,,2566,51.7791748,53.10653687,1,0,0,response1disk,,7,8.203613281,-3.987213135,1,0,0,rectangle,8.203613281,-3.987213135,1,0,0,,,,,,,8.203613281,-3.987213135,1,0,0,,1,48,208,53,1,
,,,,,,,,,,,,,FF,,,,,,,,0.6842,,,,,,,,,,,,,,,,,,,,,,6102ffcf0b5c594e388d2d72,610369fd285afe664d9902cf,2021-07-29_19h55.21.686,Simcolourproject_2stim_asymm_v5,2020.2.10,MacIntel,60,61025ae37ef11b136ea224fe,,,,,,,,,2470,31.2199707,62.84619141,1,0,0,response1disk,,7,9.88861084,-1.180450439,1,0,0,rectangle,9.88861084,-1.180450439,1,0,0,,,,,,,9.88861084,-1.180450439,1,0,0,,1,49,209,1,1,
,,,,,,,,,,,,,FF,,,,,,,,2.7351,,,,,,,,,,,,,,,,,,,,,,6102ffcf0b5c594e388d2d72,610369fd285afe664d9902cf,2021-07-29_19h55.21.686,Simcolourproject_2stim_asymm_v5,2020.2.10,MacIntel,60,61025ae37ef11b136ea224fe,,,,,,,,,3424,39.47277832,82.23422241,1,0,0,response1disk,,7,-12.51342773,7.87701416,1,0,0,rectangle,-12.51342773,7.87701416,1,0,0,,,,,,,-12.51342773,7.87701416,1,0,0,,1,50,210,42,1,
,,,,,,,,,,,,,FF,,,,,,,,1.1507,,,,,,,,,,,,,,,,,,,,,,6102ffcf0b5c594e388d2d72,610369fd285afe664d9902cf,2021-07-29_19h55.21.686,Simcolourproject_2stim_asymm_v5,2020.2.10,MacIntel,60,61025ae37ef11b136ea224fe,,,,,,,,,2093,-113.7702026,58.8213501,1,0,0,response7disk,,1,-22.62329102,2.899993896,1,0,0,rectangle,-22.62329102,2.899993896,1,0,0,,,,,,,-22.62329102,2.899993896,1,0,0,,1,51,211,74,1,
,,,,,,,,,,,,,FF,,,,,,,,1.0684,,,,,,,,,,,,,,,,,,,,,,6102ffcf0b5c594e388d2d72,610369fd285afe664d9902cf,2021-07-29_19h55.21.686,Simcolourproject_2stim_asymm_v5,2020.2.10,MacIntel,60,61025ae37ef11b136ea224fe,,,,,,,,,733,63.68017578,42.53552246,1,0,0,response1disk,,6,12.18664551,14.86462402,1,0,0,rectangle,12.18664551,14.86462402,1,0,0,,,,,,,12.18664551,14.86462402,1,0,0,,1,52,212,21,1,
,,,,,,,,,,,,,FF,,,,,,,,1.7501,,,,,,,,,,,,,,,,,,,,,,6102ffcf0b5c594e388d2d72,610369fd285afe664d9902cf,2021-07-29_19h55.21.686,Simcolourproject_2stim_asymm_v5,2020.2.10,MacIntel,60,61025ae37ef11b136ea224fe,,,,,,,,,3054,-33.5458374,-62.32592773,1,0,0,response5disk,,3,-7.138671875,-5.228027344,1,0,0,rectangle,-7.138671875,-5.228027344,1,0,0,,,,,,,-7.138671875,-5.228027344,1,0,0,,1,53,213,87,1,
,,,,,,,,,,,,,FF,,,,,,,,1.8503,,,,,,,,,,,,,,,,,,,,,,6102ffcf0b5c594e388d2d72,610369fd285afe664d9902cf,2021-07-29_19h55.21.686,Simcolourproject_2stim_asymm_v5,2020.2.10,MacIntel,60,61025ae37ef11b136ea224fe,,,,,,,,,4037,30.78094482,51.46218872,1,0,0,response1disk,,7,7.923034668,-16.07369995,1,0,0,rectangle,7.923034668,-16.07369995,1,0,0,,,,,,,7.923034668,-16.07369995,1,0,0,,1,54,214,40,1,
,,,,,,,,,,,,,FF,,,,,,,,0.65,,,,,,,,,,,,,,,,,,,,,,6102ffcf0b5c594e388d2d72,610369fd285afe664d9902cf,2021-07-29_19h55.21.686,Simcolourproject_2stim_asymm_v5,2020.2.10,MacIntel,60,61025ae37ef11b136ea224fe,,,,,,,,,3592,-51.90539551,-70.34063721,1,0,0,response5disk,,3,25.70581055,16.23272705,1,0,0,rectangle,74.44732666,-62.37036133,1,0,0,response3disk_3,TRUE,5,5,"[142,149,1,62,143,243,11,302,63,292,92,271,1,130,216,277,206,292,322,132]",1.783,27.82531738,-15.45471191,1,0,0,rectangle,1,55,215,85,1,
,,,,,,,,,,,,,FF,,,,,,,,1.0334,,,,,,,,,,,,,,,,,,,,,,6102ffcf0b5c594e388d2d72,610369fd285afe664d9902cf,2021-07-29_19h55.21.686,Simcolourproject_2stim_asymm_v5,2020.2.10,MacIntel,60,61025ae37ef11b136ea224fe,,,,,,,,,2638,50.65130615,84.30264282,1,0,0,response1disk,,7,-3.350952148,-5.373321533,1,0,0,rectangle,-3.350952148,-5.373321533,1,0,0,,,,,,,-3.350952148,-5.373321533,1,0,0,,1,56,216,59,1,
,,,,,,,,,,,,,FF,,,,,,,,0.8998,,,,,,,,,,,,,,,,,,,,,,6102ffcf0b5c594e388d2d72,610369fd285afe664d9902cf,2021-07-29_19h55.21.686,Simcolourproject_2stim_asymm_v5,2020.2.10,MacIntel,60,61025ae37ef11b136ea224fe,,,,,,,,,2026,-37.93280029,-86.6776123,1,0,0,response5disk,,3,-3.469421387,-0.280639648,1,0,0,rectangle,-3.469421387,-0.280639648,1,0,0,,,,,,,-3.469421387,-0.280639648,1,0,0,,1,57,217,17,1,
,,,,,,,,,,,,,FF,,,,,,,,0.8831,,,,,,,,,,,,,,,,,,,,,,6102ffcf0b5c594e388d2d72,610369fd285afe664d9902cf,2021-07-29_19h55.21.686,Simcolourproject_2stim_asymm_v5,2020.2.10,MacIntel,60,61025ae37ef11b136ea224fe,,,,,,,,,2079,74.90026855,-30.52706909,1,0,0,response3disk,,5,-15.9710083,1.911407471,1,0,0,rectangle,-15.9710083,1.911407471,1,0,0,,,,,,,-15.9710083,1.911407471,1,0,0,,1,58,218,111,1,
,,,,,,,,,,,,,FF,,,,,,,,0.7357,,,,,,,,,,,,,,,,,,,,,,6102ffcf0b5c594e388d2d72,610369fd285afe664d9902cf,2021-07-29_19h55.21.686,Simcolourproject_2stim_asymm_v5,2020.2.10,MacIntel,60,61025ae37ef11b136ea224fe,,,,,,,,,2037,-44.58276367,-50.43499756,1,0,0,response5disk,,3,-13.79626465,-0.959014893,1,0,0,rectangle,-13.79626465,-0.959014893,1,0,0,,,,,,,-13.79626465,-0.959014893,1,0,0,,1,59,219,5,1,
,,,,,,,,,,,,,FF,,,,,,,,0.8033,,,,,,,,,,,,,,,,,,,,,,6102ffcf0b5c594e388d2d72,610369fd285afe664d9902cf,2021-07-29_19h55.21.686,Simcolourproject_2stim_asymm_v5,2020.2.10,MacIntel,60,61025ae37ef11b136ea224fe,,,,,,,,,4235,-73.80834961,26.90591431,1,0,0,response7disk,,1,-17.9564209,-8.836639404,1,0,0,rectangle,-17.9564209,-8.836639404,1,0,0,,,,,,,-17.9564209,-8.836639404,1,0,0,,1,60,220,117,1,
,,,,,,,,,,,,,FF,,,,,,,,0.9327,,,,,,,,,,,,,,,,,,,,,,6102ffcf0b5c594e388d2d72,610369fd285afe664d9902cf,2021-07-29_19h55.21.686,Simcolourproject_2stim_asymm_v5,2020.2.10,MacIntel,60,61025ae37ef11b136ea224fe,,,,,,,,,440,-72.91455078,-56.74185181,1,0,0,response5disk,,2,-7.763793945,-8.510742188,1,0,0,rectangle,-7.763793945,-8.510742188,1,0,0,,,,,,,-7.763793945,-8.510742188,1,0,0,,1,61,221,30,1,
,,,,,,,,,,,,,FF,,,,,,,,2.5813,,,,,,,,,,,,,,,,,,,,,,6102ffcf0b5c594e388d2d72,610369fd285afe664d9902cf,2021-07-29_19h55.21.686,Simcolourproject_2stim_asymm_v5,2020.2.10,MacIntel,60,61025ae37ef11b136ea224fe,,,,,,,,,3212,32.24188232,-80.82659912,1,0,0,response3disk,,4,-8.803833008,-15.34039307,1,0,0,rectangle,-8.803833008,-15.34039307,1,0,0,,,,,,,-8.803833008,-15.34039307,1,0,0,,1,62,222,107,1,
,,,,,,,,,,,,,FF,,,,,,,,0.6331,,,,,,,,,,,,,,,,,,,,,,6102ffcf0b5c594e388d2d72,610369fd285afe664d9902cf,2021-07-29_19h55.21.686,Simcolourproject_2stim_asymm_v5,2020.2.10,MacIntel,60,61025ae37ef11b136ea224fe,,,,,,,,,988,53.84521484,24.08322144,1,0,0,response1disk,,6,-0.056335449,-12.98724365,1,0,0,rectangle,-0.056335449,-12.98724365,1,0,0,,,,,,,-0.056335449,-12.98724365,1,0,0,,1,63,223,61,1,
,,,,,,,,,,,,,FF,,,,,,,,0.5841,,,,,,,,,,,,,,,,,,,,,,6102ffcf0b5c594e388d2d72,610369fd285afe664d9902cf,2021-07-29_19h55.21.686,Simcolourproject_2stim_asymm_v5,2020.2.10,MacIntel,60,61025ae37ef11b136ea224fe,,,,,,,,,4017,42.6505127,102.0672607,1,0,0,response1disk,,7,13.83074951,11.49649048,1,0,0,rectangle,13.83074951,11.49649048,1,0,0,,,,,,,13.83074951,11.49649048,1,0,0,,1,64,224,10,1,
,,,,,,,,,,,,,FF,,,,,,,,1.0028,,,,,,,,,,,,,,,,,,,,,,6102ffcf0b5c594e388d2d72,610369fd285afe664d9902cf,2021-07-29_19h55.21.686,Simcolourproject_2stim_asymm_v5,2020.2.10,MacIntel,60,61025ae37ef11b136ea224fe,,,,,,,,,562,35.23828125,91.58743286,1,0,0,response1disk,,7,5.949157715,2.116699219,1,0,0,rectangle,5.949157715,2.116699219,1,0,0,,,,,,,5.949157715,2.116699219,1,0,0,,1,65,225,72,1,
,,,,,,,,,,,,,FF,,,,,,,,1.1649,,,,,,,,,,,,,,,,,,,,,,6102ffcf0b5c594e388d2d72,610369fd285afe664d9902cf,2021-07-29_19h55.21.686,Simcolourproject_2stim_asymm_v5,2020.2.10,MacIntel,60,61025ae37ef11b136ea224fe,,,,,,,,,1599,-28.75445557,-66.41601563,1,0,0,response5disk,,3,4.752075195,-14.42047119,1,0,0,rectangle,4.752075195,-14.42047119,1,0,0,,,,,,,4.752075195,-14.42047119,1,0,0,,1,66,226,15,1,
,,,,,,,,,,,,,FF,,,,,,,,1.0481,,,,,,,,,,,,,,,,,,,,,,6102ffcf0b5c594e388d2d72,610369fd285afe664d9902cf,2021-07-29_19h55.21.686,Simcolourproject_2stim_asymm_v5,2020.2.10,MacIntel,60,61025ae37ef11b136ea224fe,,,,,,,,,1347,62.89428711,31.88204956,1,0,0,response1disk,,6,21.87268066,-1.100769043,1,0,0,rectangle,21.87268066,-1.100769043,1,0,0,,,,,,,21.87268066,-1.100769043,1,0,0,,1,67,227,156,1,
,,,,,,,,,,,,,FF,,,,,,,,0.9332,,,,,,,,,,,,,,,,,,,,,,6102ffcf0b5c594e388d2d72,610369fd285afe664d9902cf,2021-07-29_19h55.21.686,Simcolourproject_2stim_asymm_v5,2020.2.10,MacIntel,60,61025ae37ef11b136ea224fe,,,,,,,,,3296,-30.8092041,-65.43133545,1,0,0,response5disk,,3,-0.343811035,-0.627929688,1,0,0,rectangle,-0.343811035,-0.627929688,1,0,0,,,,,,,-0.343811035,-0.627929688,1,0,0,,1,68,228,50,1,
,,,,,,,,,,,,,FF,,,,,,,,0.7834,,,,,,,,,,,,,,,,,,,,,,6102ffcf0b5c594e388d2d72,610369fd285afe664d9902cf,2021-07-29_19h55.21.686,Simcolourproject_2stim_asymm_v5,2020.2.10,MacIntel,60,61025ae37ef11b136ea224fe,,,,,,,,,1963,-61.93395996,29.80551147,1,0,0,response7disk,,1,10.20227051,-11.61282349,1,0,0,rectangle,10.20227051,-11.61282349,1,0,0,,,,,,,10.20227051,-11.61282349,1,0,0,,1,69,229,92,1,
,,,,,,,,,,,,,FF,,,,,,,,1.2331,,,,,,,,,,,,,,,,,,,,,,6102ffcf0b5c594e388d2d72,610369fd285afe664d9902cf,2021-07-29_19h55.21.686,Simcolourproject_2stim_asymm_v5,2020.2.10,MacIntel,60,61025ae37ef11b136ea224fe,,,,,,,,,263,-57.77874756,-43.13217163,1,0,0,response5disk,,2,-1.620605469,-4.48550415,1,0,0,rectangle,-1.620605469,-4.48550415,1,0,0,,,,,,,-1.620605469,-4.48550415,1,0,0,,1,70,230,106,1,
,,,,,,,,,,,,,FF,,,,,,,,1.2669,,,,,,,,,,,,,,,,,,,,,,6102ffcf0b5c594e388d2d72,610369fd285afe664d9902cf,2021-07-29_19h55.21.686,Simcolourproject_2stim_asymm_v5,2020.2.10,MacIntel,60,61025ae37ef11b136ea224fe,,,,,,,,,3912,41.40844727,-71.01794434,1,0,0,response3disk,,4,1.940124512,-6.887695313,1,0,0,rectangle,1.940124512,-6.887695313,1,0,0,,,,,,,1.940124512,-6.887695313,1,0,0,,1,71,231,118,1,
,,,,,,,,,,,,,FF,,,,,,,,0.6839,,,,,,,,,,,,,,,,,,,,,,6102ffcf0b5c594e388d2d72,610369fd285afe664d9902cf,2021-07-29_19h55.21.686,Simcolourproject_2stim_asymm_v5,2020.2.10,MacIntel,60,61025ae37ef11b136ea224fe,,,,,,,,,2062,52.99798584,33.52093506,1,0,0,response1disk,,6,13.86242676,0.187805176,1,0,0,rectangle,13.86242676,0.187805176,1,0,0,,,,,,,13.86242676,0.187805176,1,0,0,,1,72,232,75,1,
,,,,,,,,,,,,,FF,,,,,,,,0.5045,,,,,,,,,,,,,,,,,,,,,,6102ffcf0b5c594e388d2d72,610369fd285afe664d9902cf,2021-07-29_19h55.21.686,Simcolourproject_2stim_asymm_v5,2020.2.10,MacIntel,60,61025ae37ef11b136ea224fe,,,,,,,,,2354,36.45452881,49.75964355,1,0,0,response1disk,,7,9.983520508,-5.728088379,1,0,0,rectangle,9.983520508,-5.728088379,1,0,0,,,,,,,9.983520508,-5.728088379,1,0,0,,1,73,233,143,1,
,,,,,,,,,,,,,FF,,,,,,,,0.4671,,,,,,,,,,,,,,,,,,,,,,6102ffcf0b5c594e388d2d72,610369fd285afe664d9902cf,2021-07-29_19h55.21.686,Simcolourproject_2stim_asymm_v5,2020.2.10,MacIntel,60,61025ae37ef11b136ea224fe,,,,,,,,,317,34.46081543,54.64724731,1,0,0,response1disk,,7,6.776611328,1.366516113,1,0,0,rectangle,6.776611328,1.366516113,1,0,0,,,,,,,6.776611328,1.366516113,1,0,0,,1,74,234,29,1,
,,,,,,,,,,,,,FF,,,,,,,,0.7506,,,,,,,,,,,,,,,,,,,,,,6102ffcf0b5c594e388d2d72,610369fd285afe664d9902cf,2021-07-29_19h55.21.686,Simcolourproject_2stim_asymm_v5,2020.2.10,MacIntel,60,61025ae37ef11b136ea224fe,,,,,,,,,3745,62.44171143,-37.5574646,1,0,0,response3disk,,5,20.55737305,-8.781433105,1,0,0,rectangle,20.55737305,-8.781433105,1,0,0,,,,,,,20.55737305,-8.781433105,1,0,0,,1,75,235,62,1,
,,,,,,,,,,,,,FF,,,,,,,,0.584,,,,,,,,,,,,,,,,,,,,,,6102ffcf0b5c594e388d2d72,610369fd285afe664d9902cf,2021-07-29_19h55.21.686,Simcolourproject_2stim_asymm_v5,2020.2.10,MacIntel,60,61025ae37ef11b136ea224fe,,,,,,,,,356,-37.49261475,-71.73242188,1,0,0,response5disk,,3,-8.24407959,-10.83734131,1,0,0,rectangle,-8.24407959,-10.83734131,1,0,0,,,,,,,-8.24407959,-10.83734131,1,0,0,,1,76,236,120,1,
,,,,,,,,,,,,,FF,,,,,,,,0.5853,,,,,,,,,,,,,,,,,,,,,,6102ffcf0b5c594e388d2d72,610369fd285afe664d9902cf,2021-07-29_19h55.21.686,Simcolourproject_2stim_asymm_v5,2020.2.10,MacIntel,60,61025ae37ef11b136ea224fe,,,,,,,,,321,31.23254395,51.71105957,1,0,0,response1disk,,7,5.189086914,-1.104309082,1,0,0,rectangle,5.189086914,-1.104309082,1,0,0,,,,,,,5.189086914,-1.104309082,1,0,0,,1,77,237,138,1,
,,,,,,,,,,,,,FF,,,,,,,,0.9671,,,,,,,,,,,,,,,,,,,,,,6102ffcf0b5c594e388d2d72,610369fd285afe664d9902cf,2021-07-29_19h55.21.686,Simcolourproject_2stim_asymm_v5,2020.2.10,MacIntel,60,61025ae37ef11b136ea224fe,,,,,,,,,1681,-36.57214355,-71.8883667,1,0,0,response5disk,,3,11.71868896,12.1277771,1,0,0,rectangle,11.71868896,12.1277771,1,0,0,,,,,,,11.71868896,12.1277771,1,0,0,,1,78,238,18,1,
,,,,,,,,,,,,,FF,,,,,,,,0.9,,,,,,,,,,,,,,,,,,,,,,6102ffcf0b5c594e388d2d72,610369fd285afe664d9902cf,2021-07-29_19h55.21.686,Simcolourproject_2stim_asymm_v5,2020.2.10,MacIntel,60,61025ae37ef11b136ea224fe,,,,,,,,,3140,-32.52197266,-66.33709717,1,0,0,response5disk,,3,-5.197021484,-4.943359375,1,0,0,rectangle,-5.197021484,-4.943359375,1,0,0,,,,,,,-5.197021484,-4.943359375,1,0,0,,1,79,239,64,1,
,,,,,,,,,,,,,FF,,,,,,,,0.6681,,,,,,,,,,,,,,,,,,,,,,6102ffcf0b5c594e388d2d72,610369fd285afe664d9902cf,2021-07-29_19h55.21.686,Simcolourproject_2stim_asymm_v5,2020.2.10,MacIntel,60,61025ae37ef11b136ea224fe,,,,,,,,,3024,26.59741211,66.20617676,1,0,0,response1disk,,7,4.450561523,-6.516448975,1,0,0,rectangle,4.450561523,-6.516448975,1,0,0,,,,,,,4.450561523,-6.516448975,1,0,0,,1,80,240,45,1,
,,,,,,,,,,,,,FF,,,,,,,,0.6498,,,,,,,,,,,,,,,,,,,,,,6102ffcf0b5c594e388d2d72,610369fd285afe664d9902cf,2021-07-29_19h55.21.686,Simcolourproject_2stim_asymm_v5,2020.2.10,MacIntel,60,61025ae37ef11b136ea224fe,,,,,,,,,164,-45.13647461,-47.24038696,1,0,0,response5disk,,3,-5.76940918,-11.26168823,1,0,0,rectangle,-5.76940918,-11.26168823,1,0,0,,,,,,,-5.76940918,-11.26168823,1,0,0,,1,81,241,90,1,
