key_resp.keys,key_resp.rt,key_resp_14.keys,key_resp_14.rt,key_resp_15.keys,key_resp_15.rt,key_resp_17.keys,key_resp_17.rt,key_resp_9.keys,key_resp_9.rt,key_resp_10.keys,key_resp_10.rt,practice_comparison,Ecc,mouse_5.x,mouse_5.y,mouse_5.leftButton,mouse_5.midButton,mouse_5.rightButton,mouse_5.clicked_name,pracsimilarity,response_time,mouse_10.x,mouse_10.y,mouse_10.leftButton,mouse_10.midButton,mouse_10.rightButton,mouse_10.clicked_name,mouse_7.x,mouse_7.y,mouse_7.leftButton,mouse_7.midButton,mouse_7.rightButton,mouse_6.x,mouse_6.y,mouse_6.leftButton,mouse_6.midButton,mouse_6.rightButton,duringprac.thisRepN,duringprac.thisTrialN,duringprac.thisN,duringprac.thisIndex,duringprac.ran,participant,session,date,expName,psychopyVersion,OS,frameRate,study_id,mouse_7.clicked_name,catchpracsimilarity,catch_response_time,catchnumberprac,catchtrialorderprac,mouse_6.clicked_name,key_resp_22.keys,key_resp_22.rt,realcomparison,mouse.x,mouse.y,mouse.leftButton,mouse.midButton,mouse.rightButton,mouse.clicked_name,Colour2,similarity,mouse_2.x,mouse_2.y,mouse_2.leftButton,mouse_2.midButton,mouse_2.rightButton,mouse_2.clicked_name,mouse_3.x,mouse_3.y,mouse_3.leftButton,mouse_3.midButton,mouse_3.rightButton,mouse_11.x,mouse_11.y,mouse_11.leftButton,mouse_11.midButton,mouse_11.rightButton,trials_2.thisRepN,trials_2.thisTrialN,trials_2.thisN,trials_2.thisIndex,trials_2.ran,Colour1,mouse_3.clicked_name,catchornah,catchsimilarity,catchnumber,catchtrialorder,catchRT,mouse_11.clicked_name
space,1.527,space,6.227,space,17.269,space,3.987,space,3.533,space,3.906,119,FF,119,61,1,0,0,response1disk_5,6,7.384,-2,-8,1,0,0,rectangle_8,-2,-8,1,0,0,-2,-8,1,0,0,0,0,0,5,1,6102e71dcb976d58c1435272,61036daf11bc5a6b8b26468c,2021-07-29_20h13.43.817,Simcolourproject_2stim_asymm_v5,2020.2.10,Win32,60,61025ae37ef11b136ea224fe,,,,,,,,,,,,,,,,,,,,,,,,,,,,,,,,,,,,,,,,,,,,,,
,,,,,,,,,,,,72,PF,69,-143,1,0,0,response3disk_5,4,2.383,5,14,1,0,0,rectangle_8,-44,-123,1,0,0,15,17,1,0,0,0,1,1,1,1,6102e71dcb976d58c1435272,61036daf11bc5a6b8b26468c,2021-07-29_20h13.43.817,Simcolourproject_2stim_asymm_v5,2020.2.10,Win32,60,61025ae37ef11b136ea224fe,response5disk_7,3,2.517,3,"[2,5]",rectangle_4,,,,,,,,,,,,,,,,,,,,,,,,,,,,,,,,,,,,,,,,
,,,,,,,,,,,,138,PF,-117,-48,1,0,0,response5disk_5,2,2.2,-3,5,1,0,0,rectangle_8,-3,5,1,0,0,-3,5,1,0,0,0,2,2,6,1,6102e71dcb976d58c1435272,61036daf11bc5a6b8b26468c,2021-07-29_20h13.43.817,Simcolourproject_2stim_asymm_v5,2020.2.10,Win32,60,61025ae37ef11b136ea224fe,,,,,,,,,,,,,,,,,,,,,,,,,,,,,,,,,,,,,,,,,,,,,,
,,,,,,,,,,,,91,FF,152,-67,1,0,0,response3disk_5,5,4.6,3,9,1,0,0,rectangle_8,3,9,1,0,0,3,9,1,0,0,0,3,3,0,1,6102e71dcb976d58c1435272,61036daf11bc5a6b8b26468c,2021-07-29_20h13.43.817,Simcolourproject_2stim_asymm_v5,2020.2.10,Win32,60,61025ae37ef11b136ea224fe,,,,,,,,,,,,,,,,,,,,,,,,,,,,,,,,,,,,,,,,,,,,,,
,,,,,,,,,,,,136,PF,150,-76,1,0,0,response3disk_5,5,5.083,-4,-8,1,0,0,rectangle_8,-67,-123,1,0,0,3,11,1,0,0,0,4,4,2,1,6102e71dcb976d58c1435272,61036daf11bc5a6b8b26468c,2021-07-29_20h13.43.817,Simcolourproject_2stim_asymm_v5,2020.2.10,Win32,60,61025ae37ef11b136ea224fe,response5disk_7,3,2.232,3,"[2,5]",rectangle_4,,,,,,,,,,,,,,,,,,,,,,,,,,,,,,,,,,,,,,,,
,,,,,,,,,,,,59,PF,-55,98,1,0,0,response7disk_5,0,4.2,5,-4,1,0,0,rectangle_8,5,-4,1,0,0,5,-4,1,0,0,0,5,5,4,1,6102e71dcb976d58c1435272,61036daf11bc5a6b8b26468c,2021-07-29_20h13.43.817,Simcolourproject_2stim_asymm_v5,2020.2.10,Win32,60,61025ae37ef11b136ea224fe,,,,,,,,,,,,,,,,,,,,,,,,,,,,,,,,,,,,,,,,,,,,,,
,,,,,,,,,,,,89,FF,129,60,1,0,0,response1disk_5,6,6.199,17,4,1,0,0,rectangle_8,17,4,1,0,0,17,4,1,0,0,0,6,6,3,1,6102e71dcb976d58c1435272,61036daf11bc5a6b8b26468c,2021-07-29_20h13.43.817,Simcolourproject_2stim_asymm_v5,2020.2.10,Win32,60,61025ae37ef11b136ea224fe,,,,,,,,,,,,,,,,,,,,,,,,,,,,,,,,,,,,,,,,,,,,,,
,,,,,,,,,,,,,FF,,,,,,,,1.066,,,,,,,,,,,,,,,,,,,,,,6102e71dcb976d58c1435272,61036daf11bc5a6b8b26468c,2021-07-29_20h13.43.817,Simcolourproject_2stim_asymm_v5,2020.2.10,Win32,60,61025ae37ef11b136ea224fe,,,,,,,space,3.043,4076,-105,-45,1,0,0,response5disk,,2,17,-17,1,0,0,rectangle,17,-17,1,0,0,17,-17,1,0,0,0,0,0,49,1,,,,,,,,
,,,,,,,,,,,,,FF,,,,,,,,2.283,,,,,,,,,,,,,,,,,,,,,,6102e71dcb976d58c1435272,61036daf11bc5a6b8b26468c,2021-07-29_20h13.43.817,Simcolourproject_2stim_asymm_v5,2020.2.10,Win32,60,61025ae37ef11b136ea224fe,,,,,,,,,2627,44,-132,1,0,0,response3disk,,4,-10,13,1,0,0,rectangle,-10,13,1,0,0,-10,13,1,0,0,0,1,1,139,1,,,,,,,,
,,,,,,,,,,,,,FF,,,,,,,,1.066,,,,,,,,,,,,,,,,,,,,,,6102e71dcb976d58c1435272,61036daf11bc5a6b8b26468c,2021-07-29_20h13.43.817,Simcolourproject_2stim_asymm_v5,2020.2.10,Win32,60,61025ae37ef11b136ea224fe,,,,,,,,,2464,49,-118,1,0,0,response3disk,,4,0,-1,1,0,0,rectangle,0,-1,1,0,0,0,-1,1,0,0,0,2,2,1,1,,,,,,,,
,,,,,,,,,,,,,FF,,,,,,,,3.483,,,,,,,,,,,,,,,,,,,,,,6102e71dcb976d58c1435272,61036daf11bc5a6b8b26468c,2021-07-29_20h13.43.817,Simcolourproject_2stim_asymm_v5,2020.2.10,Win32,60,61025ae37ef11b136ea224fe,,,,,,,,,866,91,-76,1,0,0,response3disk,,5,10,-5,1,0,0,rectangle,10,-5,1,0,0,10,-5,1,0,0,0,3,3,159,1,,,,,,,,
,,,,,,,,,,,,,FF,,,,,,,,2.734,,,,,,,,,,,,,,,,,,,,,,6102e71dcb976d58c1435272,61036daf11bc5a6b8b26468c,2021-07-29_20h13.43.817,Simcolourproject_2stim_asymm_v5,2020.2.10,Win32,60,61025ae37ef11b136ea224fe,,,,,,,,,985,66,-146,1,0,0,response3disk,,4,6,-10,1,0,0,rectangle,6,-10,1,0,0,6,-10,1,0,0,0,4,4,93,1,,,,,,,,
,,,,,,,,,,,,,FF,,,,,,,,1.333,,,,,,,,,,,,,,,,,,,,,,6102e71dcb976d58c1435272,61036daf11bc5a6b8b26468c,2021-07-29_20h13.43.817,Simcolourproject_2stim_asymm_v5,2020.2.10,Win32,60,61025ae37ef11b136ea224fe,,,,,,,,,4295,-111,-70,1,0,0,response5disk,,2,13,-2,1,0,0,rectangle,13,-2,1,0,0,13,-2,1,0,0,0,5,5,113,1,,,,,,,,
,,,,,,,,,,,,,FF,,,,,,,,0.867,,,,,,,,,,,,,,,,,,,,,,6102e71dcb976d58c1435272,61036daf11bc5a6b8b26468c,2021-07-29_20h13.43.817,Simcolourproject_2stim_asymm_v5,2020.2.10,Win32,60,61025ae37ef11b136ea224fe,,,,,,,,,3191,-111,-57,1,0,0,response5disk,,2,-8,2,1,0,0,rectangle,-8,2,1,0,0,-8,2,1,0,0,0,6,6,59,1,,,,,,,,
,,,,,,,,,,,,,FF,,,,,,,,0.717,,,,,,,,,,,,,,,,,,,,,,6102e71dcb976d58c1435272,61036daf11bc5a6b8b26468c,2021-07-29_20h13.43.817,Simcolourproject_2stim_asymm_v5,2020.2.10,Win32,60,61025ae37ef11b136ea224fe,,,,,,,,,1892,-109,44,1,0,0,response7disk,,1,-10,-1,1,0,0,rectangle,-10,-1,1,0,0,-10,-1,1,0,0,0,7,7,15,1,,,,,,,,
,,,,,,,,,,,,,FF,,,,,,,,1.833,,,,,,,,,,,,,,,,,,,,,,6102e71dcb976d58c1435272,61036daf11bc5a6b8b26468c,2021-07-29_20h13.43.817,Simcolourproject_2stim_asymm_v5,2020.2.10,Win32,60,61025ae37ef11b136ea224fe,,,,,,,,,1339,96,40,1,0,0,response1disk,,6,-11,-1,1,0,0,rectangle,-11,-1,1,0,0,-11,-1,1,0,0,0,8,8,13,1,,,,,,,,
,,,,,,,,,,,,,FF,,,,,,,,1.067,,,,,,,,,,,,,,,,,,,,,,6102e71dcb976d58c1435272,61036daf11bc5a6b8b26468c,2021-07-29_20h13.43.817,Simcolourproject_2stim_asymm_v5,2020.2.10,Win32,60,61025ae37ef11b136ea224fe,,,,,,,,,777,115,41,1,0,0,response1disk,,6,11,-17,1,0,0,rectangle,11,-17,1,0,0,11,-17,1,0,0,0,9,9,80,1,,,,,,,,
,,,,,,,,,,,,,FF,,,,,,,,1.05,,,,,,,,,,,,,,,,,,,,,,6102e71dcb976d58c1435272,61036daf11bc5a6b8b26468c,2021-07-29_20h13.43.817,Simcolourproject_2stim_asymm_v5,2020.2.10,Win32,60,61025ae37ef11b136ea224fe,,,,,,,,,4128,-68,-110,1,0,0,response5disk,,3,-2,3,1,0,0,rectangle,-2,3,1,0,0,-2,3,1,0,0,0,10,10,117,1,,,,,,,,
,,,,,,,,,,,,,FF,,,,,,,,1.467,,,,,,,,,,,,,,,,,,,,,,6102e71dcb976d58c1435272,61036daf11bc5a6b8b26468c,2021-07-29_20h13.43.817,Simcolourproject_2stim_asymm_v5,2020.2.10,Win32,60,61025ae37ef11b136ea224fe,,,,,,,,,375,77,-131,1,0,0,response3disk,,4,-3,8,1,0,0,rectangle,-3,8,1,0,0,-3,8,1,0,0,0,11,11,133,1,,,,,,,,
,,,,,,,,,,,,,FF,,,,,,,,1.766,,,,,,,,,,,,,,,,,,,,,,6102e71dcb976d58c1435272,61036daf11bc5a6b8b26468c,2021-07-29_20h13.43.817,Simcolourproject_2stim_asymm_v5,2020.2.10,Win32,60,61025ae37ef11b136ea224fe,,,,,,,,,3852,-76,-125,1,0,0,response5disk,,3,-38,-10,1,0,0,rectangle,-38,-10,1,0,0,-38,-10,1,0,0,0,12,12,8,1,,,,,,,,
,,,,,,,,,,,,,FF,,,,,,,,2.75,,,,,,,,,,,,,,,,,,,,,,6102e71dcb976d58c1435272,61036daf11bc5a6b8b26468c,2021-07-29_20h13.43.817,Simcolourproject_2stim_asymm_v5,2020.2.10,Win32,60,61025ae37ef11b136ea224fe,,,,,,,,,1945,136,-62,1,0,0,response3disk,,5,13,-14,1,0,0,rectangle,13,-14,1,0,0,13,-14,1,0,0,0,13,13,64,1,,,,,,,,
,,,,,,,,,,,,,FF,,,,,,,,1.616,,,,,,,,,,,,,,,,,,,,,,6102e71dcb976d58c1435272,61036daf11bc5a6b8b26468c,2021-07-29_20h13.43.817,Simcolourproject_2stim_asymm_v5,2020.2.10,Win32,60,61025ae37ef11b136ea224fe,,,,,,,,,3272,35,79,1,0,0,response1disk,,7,1,-3,1,0,0,rectangle,1,-3,1,0,0,1,-3,1,0,0,0,14,14,10,1,,,,,,,,
,,,,,,,,,,,,,FF,,,,,,,,1.533,,,,,,,,,,,,,,,,,,,,,,6102e71dcb976d58c1435272,61036daf11bc5a6b8b26468c,2021-07-29_20h13.43.817,Simcolourproject_2stim_asymm_v5,2020.2.10,Win32,60,61025ae37ef11b136ea224fe,,,,,,,,,2035,-50,-109,1,0,0,response5disk,,3,-17,8,1,0,0,rectangle,-17,8,1,0,0,-17,8,1,0,0,0,15,15,107,1,,,,,,,,
,,,,,,,,,,,,,FF,,,,,,,,2.65,,,,,,,,,,,,,,,,,,,,,,6102e71dcb976d58c1435272,61036daf11bc5a6b8b26468c,2021-07-29_20h13.43.817,Simcolourproject_2stim_asymm_v5,2020.2.10,Win32,60,61025ae37ef11b136ea224fe,,,,,,,,,1282,134,43,1,0,0,response1disk,,6,17,1,1,0,0,rectangle,17,1,1,0,0,17,1,1,0,0,0,16,16,128,1,,,,,,,,
,,,,,,,,,,,,,FF,,,,,,,,1.784,,,,,,,,,,,,,,,,,,,,,,6102e71dcb976d58c1435272,61036daf11bc5a6b8b26468c,2021-07-29_20h13.43.817,Simcolourproject_2stim_asymm_v5,2020.2.10,Win32,60,61025ae37ef11b136ea224fe,,,,,,,,,4123,-118,-66,1,0,0,response5disk,,2,-23,3,1,0,0,rectangle,-23,3,1,0,0,-23,3,1,0,0,0,17,17,100,1,,,,,,,,
,,,,,,,,,,,,,FF,,,,,,,,2.3,,,,,,,,,,,,,,,,,,,,,,6102e71dcb976d58c1435272,61036daf11bc5a6b8b26468c,2021-07-29_20h13.43.817,Simcolourproject_2stim_asymm_v5,2020.2.10,Win32,60,61025ae37ef11b136ea224fe,,,,,,,,,872,121,-68,1,0,0,response3disk,,5,10,3,1,0,0,rectangle,10,3,1,0,0,10,3,1,0,0,0,18,18,148,1,,,,,,,,
,,,,,,,,,,,,,FF,,,,,,,,1.283,,,,,,,,,,,,,,,,,,,,,,6102e71dcb976d58c1435272,61036daf11bc5a6b8b26468c,2021-07-29_20h13.43.817,Simcolourproject_2stim_asymm_v5,2020.2.10,Win32,60,61025ae37ef11b136ea224fe,,,,,,,,,2053,62,-122,1,0,0,response3disk,,4,-18,12,1,0,0,rectangle,-18,12,1,0,0,-18,12,1,0,0,0,19,19,95,1,,,,,,,,
,,,,,,,,,,,,,FF,,,,,,,,1.283,,,,,,,,,,,,,,,,,,,,,,6102e71dcb976d58c1435272,61036daf11bc5a6b8b26468c,2021-07-29_20h13.43.817,Simcolourproject_2stim_asymm_v5,2020.2.10,Win32,60,61025ae37ef11b136ea224fe,,,,,,,,,3353,155,51,1,0,0,response1disk,,6,27,7,1,0,0,rectangle,27,7,1,0,0,27,7,1,0,0,0,20,20,115,1,,,,,,,,
,,,,,,,,,,,,,FF,,,,,,,,1.199,,,,,,,,,,,,,,,,,,,,,,6102e71dcb976d58c1435272,61036daf11bc5a6b8b26468c,2021-07-29_20h13.43.817,Simcolourproject_2stim_asymm_v5,2020.2.10,Win32,60,61025ae37ef11b136ea224fe,,,,,,,,,9,-39,-115,1,0,0,response5disk,,3,-1,-8,1,0,0,rectangle,-1,-8,1,0,0,-1,-8,1,0,0,0,21,21,124,1,,,,,,,,
,,,,,,,,,,,,,FF,,,,,,,,1.533,,,,,,,,,,,,,,,,,,,,,,6102e71dcb976d58c1435272,61036daf11bc5a6b8b26468c,2021-07-29_20h13.43.817,Simcolourproject_2stim_asymm_v5,2020.2.10,Win32,60,61025ae37ef11b136ea224fe,,,,,,,,,1005,133,-56,1,0,0,response3disk,,5,20,4,1,0,0,rectangle,20,4,1,0,0,20,4,1,0,0,0,22,22,151,1,,,,,,,,
,,,,,,,,,,,,,FF,,,,,,,,2.283,,,,,,,,,,,,,,,,,,,,,,6102e71dcb976d58c1435272,61036daf11bc5a6b8b26468c,2021-07-29_20h13.43.817,Simcolourproject_2stim_asymm_v5,2020.2.10,Win32,60,61025ae37ef11b136ea224fe,,,,,,,,,553,35,-120,1,0,0,response3disk,,4,-6,-11,1,0,0,rectangle,-6,-11,1,0,0,-6,-11,1,0,0,0,23,23,92,1,,,,,,,,
,,,,,,,,,,,,,FF,,,,,,,,2.183,,,,,,,,,,,,,,,,,,,,,,6102e71dcb976d58c1435272,61036daf11bc5a6b8b26468c,2021-07-29_20h13.43.817,Simcolourproject_2stim_asymm_v5,2020.2.10,Win32,60,61025ae37ef11b136ea224fe,,,,,,,,,523,61,80,1,0,0,response1disk,,7,36,11,1,0,0,rectangle,36,11,1,0,0,36,11,1,0,0,0,24,24,34,1,,,,,,,,
,,,,,,,,,,,,,FF,,,,,,,,1.05,,,,,,,,,,,,,,,,,,,,,,6102e71dcb976d58c1435272,61036daf11bc5a6b8b26468c,2021-07-29_20h13.43.817,Simcolourproject_2stim_asymm_v5,2020.2.10,Win32,60,61025ae37ef11b136ea224fe,,,,,,,,,3551,-55,95,1,0,0,response7disk,,0,-7,-1,1,0,0,rectangle,-7,-1,1,0,0,-7,-1,1,0,0,0,25,25,4,1,,,,,,,,
,,,,,,,,,,,,,FF,,,,,,,,0.666,,,,,,,,,,,,,,,,,,,,,,6102e71dcb976d58c1435272,61036daf11bc5a6b8b26468c,2021-07-29_20h13.43.817,Simcolourproject_2stim_asymm_v5,2020.2.10,Win32,60,61025ae37ef11b136ea224fe,,,,,,,,,3675,-27,77,1,0,0,response7disk,,0,5,-6,1,0,0,rectangle,5,-6,1,0,0,5,-6,1,0,0,0,26,26,0,1,,,,,,,,
,,,,,,,,,,,,,FF,,,,,,,,1.5,,,,,,,,,,,,,,,,,,,,,,6102e71dcb976d58c1435272,61036daf11bc5a6b8b26468c,2021-07-29_20h13.43.817,Simcolourproject_2stim_asymm_v5,2020.2.10,Win32,60,61025ae37ef11b136ea224fe,,,,,,,,,4116,-54,-107,1,0,0,response5disk,,3,-9,6,1,0,0,rectangle,-9,6,1,0,0,-9,6,1,0,0,0,27,27,103,1,,,,,,,,
,,,,,,,,,,,,,FF,,,,,,,,1.716,,,,,,,,,,,,,,,,,,,,,,6102e71dcb976d58c1435272,61036daf11bc5a6b8b26468c,2021-07-29_20h13.43.817,Simcolourproject_2stim_asymm_v5,2020.2.10,Win32,60,61025ae37ef11b136ea224fe,,,,,,,,,1911,64,-116,1,0,0,response3disk,,4,-15,8,1,0,0,rectangle,-15,8,1,0,0,-15,8,1,0,0,0,28,28,157,1,,,,,,,,
,,,,,,,,,,,,,FF,,,,,,,,1.5,,,,,,,,,,,,,,,,,,,,,,6102e71dcb976d58c1435272,61036daf11bc5a6b8b26468c,2021-07-29_20h13.43.817,Simcolourproject_2stim_asymm_v5,2020.2.10,Win32,60,61025ae37ef11b136ea224fe,,,,,,,,,4263,118,49,1,0,0,response1disk,,6,-4,2,1,0,0,rectangle,-4,2,1,0,0,-4,2,1,0,0,0,29,29,94,1,,,,,,,,
,,,,,,,,,,,,,FF,,,,,,,,2.05,,,,,,,,,,,,,,,,,,,,,,6102e71dcb976d58c1435272,61036daf11bc5a6b8b26468c,2021-07-29_20h13.43.817,Simcolourproject_2stim_asymm_v5,2020.2.10,Win32,60,61025ae37ef11b136ea224fe,,,,,,,,,1662,63,-128,1,0,0,response3disk,,4,5,-12,1,0,0,rectangle,5,-12,1,0,0,5,-12,1,0,0,0,30,30,118,1,,,,,,,,
,,,,,,,,,,,,,FF,,,,,,,,1.149,,,,,,,,,,,,,,,,,,,,,,6102e71dcb976d58c1435272,61036daf11bc5a6b8b26468c,2021-07-29_20h13.43.817,Simcolourproject_2stim_asymm_v5,2020.2.10,Win32,60,61025ae37ef11b136ea224fe,,,,,,,,,1496,46,76,1,0,0,response1disk,,7,21,-10,1,0,0,rectangle,-112,-43,1,0,0,1,-8,1,0,0,0,31,31,32,1,,response5disk_3,TRUE,2,2,"[194,163,297,32,168,44,140,55,178,218,69,315,268,318,260,114,195,80,242,73]",1.834,rectangle
,,,,,,,,,,,,,FF,,,,,,,,1.95,,,,,,,,,,,,,,,,,,,,,,6102e71dcb976d58c1435272,61036daf11bc5a6b8b26468c,2021-07-29_20h13.43.817,Simcolourproject_2stim_asymm_v5,2020.2.10,Win32,60,61025ae37ef11b136ea224fe,,,,,,,,,4283,-64,-101,1,0,0,response5disk,,3,-4,-9,1,0,0,rectangle,-4,-9,1,0,0,-4,-9,1,0,0,0,32,32,69,1,,,,,,,,
,,,,,,,,,,,,,FF,,,,,,,,1.083,,,,,,,,,,,,,,,,,,,,,,6102e71dcb976d58c1435272,61036daf11bc5a6b8b26468c,2021-07-29_20h13.43.817,Simcolourproject_2stim_asymm_v5,2020.2.10,Win32,60,61025ae37ef11b136ea224fe,,,,,,,,,637,-121,32,1,0,0,response7disk,,1,-25,5,1,0,0,rectangle,-25,5,1,0,0,-25,5,1,0,0,0,33,33,56,1,,,,,,,,
,,,,,,,,,,,,,FF,,,,,,,,1.167,,,,,,,,,,,,,,,,,,,,,,6102e71dcb976d58c1435272,61036daf11bc5a6b8b26468c,2021-07-29_20h13.43.817,Simcolourproject_2stim_asymm_v5,2020.2.10,Win32,60,61025ae37ef11b136ea224fe,,,,,,,,,891,-130,40,1,0,0,response7disk,,1,-35,1,1,0,0,rectangle,-35,1,1,0,0,-35,1,1,0,0,0,34,34,24,1,,,,,,,,
,,,,,,,,,,,,,FF,,,,,,,,0.933,,,,,,,,,,,,,,,,,,,,,,6102e71dcb976d58c1435272,61036daf11bc5a6b8b26468c,2021-07-29_20h13.43.817,Simcolourproject_2stim_asymm_v5,2020.2.10,Win32,60,61025ae37ef11b136ea224fe,,,,,,,,,2299,-108,-60,1,0,0,response5disk,,2,5,10,1,0,0,rectangle,5,10,1,0,0,5,10,1,0,0,0,35,35,89,1,,,,,,,,
,,,,,,,,,,,,,FF,,,,,,,,1.284,,,,,,,,,,,,,,,,,,,,,,6102e71dcb976d58c1435272,61036daf11bc5a6b8b26468c,2021-07-29_20h13.43.817,Simcolourproject_2stim_asymm_v5,2020.2.10,Win32,60,61025ae37ef11b136ea224fe,,,,,,,,,3299,53,-104,1,0,0,response3disk,,4,-11,4,1,0,0,rectangle,-11,4,1,0,0,-11,4,1,0,0,0,36,36,153,1,,,,,,,,
,,,,,,,,,,,,,FF,,,,,,,,1.317,,,,,,,,,,,,,,,,,,,,,,6102e71dcb976d58c1435272,61036daf11bc5a6b8b26468c,2021-07-29_20h13.43.817,Simcolourproject_2stim_asymm_v5,2020.2.10,Win32,60,61025ae37ef11b136ea224fe,,,,,,,,,2649,59,-133,1,0,0,response3disk,,4,-9,-11,1,0,0,rectangle,-9,-11,1,0,0,-9,-11,1,0,0,0,37,37,18,1,,,,,,,,
,,,,,,,,,,,,,FF,,,,,,,,0.766,,,,,,,,,,,,,,,,,,,,,,6102e71dcb976d58c1435272,61036daf11bc5a6b8b26468c,2021-07-29_20h13.43.817,Simcolourproject_2stim_asymm_v5,2020.2.10,Win32,60,61025ae37ef11b136ea224fe,,,,,,,,,294,104,-47,1,0,0,response3disk,,5,24,4,1,0,0,rectangle,24,4,1,0,0,24,4,1,0,0,0,38,38,57,1,,,,,,,,
,,,,,,,,,,,,,FF,,,,,,,,1.117,,,,,,,,,,,,,,,,,,,,,,6102e71dcb976d58c1435272,61036daf11bc5a6b8b26468c,2021-07-29_20h13.43.817,Simcolourproject_2stim_asymm_v5,2020.2.10,Win32,60,61025ae37ef11b136ea224fe,,,,,,,,,2335,114,-50,1,0,0,response3disk,,5,5,5,1,0,0,rectangle,5,5,1,0,0,5,5,1,0,0,0,39,39,150,1,,,,,,,,
,,,,,,,,,,,,,FF,,,,,,,,1.033,,,,,,,,,,,,,,,,,,,,,,6102e71dcb976d58c1435272,61036daf11bc5a6b8b26468c,2021-07-29_20h13.43.817,Simcolourproject_2stim_asymm_v5,2020.2.10,Win32,60,61025ae37ef11b136ea224fe,,,,,,,,,418,36,75,1,0,0,response1disk,,7,24,9,1,0,0,rectangle,24,9,1,0,0,24,9,1,0,0,0,40,40,120,1,,,,,,,,
,,,,,,,,,,,,,FF,,,,,,,,1.183,,,,,,,,,,,,,,,,,,,,,,6102e71dcb976d58c1435272,61036daf11bc5a6b8b26468c,2021-07-29_20h13.43.817,Simcolourproject_2stim_asymm_v5,2020.2.10,Win32,60,61025ae37ef11b136ea224fe,,,,,,,,,2036,-56,-97,1,0,0,response5disk,,3,-5,0,1,0,0,rectangle,-5,0,1,0,0,-5,0,1,0,0,0,41,41,70,1,,,,,,,,
,,,,,,,,,,,,,FF,,,,,,,,2.15,,,,,,,,,,,,,,,,,,,,,,6102e71dcb976d58c1435272,61036daf11bc5a6b8b26468c,2021-07-29_20h13.43.817,Simcolourproject_2stim_asymm_v5,2020.2.10,Win32,60,61025ae37ef11b136ea224fe,,,,,,,,,1126,115,49,1,0,0,response1disk,,6,7,-3,1,0,0,rectangle,7,-3,1,0,0,7,-3,1,0,0,0,42,42,46,1,,,,,,,,
,,,,,,,,,,,,,FF,,,,,,,,1.049,,,,,,,,,,,,,,,,,,,,,,6102e71dcb976d58c1435272,61036daf11bc5a6b8b26468c,2021-07-29_20h13.43.817,Simcolourproject_2stim_asymm_v5,2020.2.10,Win32,60,61025ae37ef11b136ea224fe,,,,,,,,,172,-109,-39,1,0,0,response5disk,,2,5,9,1,0,0,rectangle,57,76,1,0,0,-6,-5,1,0,0,0,43,43,147,1,,response1disk_3,TRUE,7,7,"[194,163,297,32,168,44,140,55,178,218,69,315,268,318,260,114,195,80,242,73]",1.65,rectangle
,,,,,,,,,,,,,FF,,,,,,,,2.117,,,,,,,,,,,,,,,,,,,,,,6102e71dcb976d58c1435272,61036daf11bc5a6b8b26468c,2021-07-29_20h13.43.817,Simcolourproject_2stim_asymm_v5,2020.2.10,Win32,60,61025ae37ef11b136ea224fe,,,,,,,,,1415,103,-58,1,0,0,response3disk,,5,27,-1,1,0,0,rectangle,27,-1,1,0,0,27,-1,1,0,0,0,44,44,7,1,,,,,,,,
,,,,,,,,,,,,,FF,,,,,,,,1.967,,,,,,,,,,,,,,,,,,,,,,6102e71dcb976d58c1435272,61036daf11bc5a6b8b26468c,2021-07-29_20h13.43.817,Simcolourproject_2stim_asymm_v5,2020.2.10,Win32,60,61025ae37ef11b136ea224fe,,,,,,,,,2346,52,-102,1,0,0,response3disk,,4,-2,9,1,0,0,rectangle,-2,9,1,0,0,-2,9,1,0,0,0,45,45,99,1,,,,,,,,
,,,,,,,,,,,,,FF,,,,,,,,1.018,,,,,,,,,,,,,,,,,,,,,,6102e71dcb976d58c1435272,61036daf11bc5a6b8b26468c,2021-07-29_20h13.43.817,Simcolourproject_2stim_asymm_v5,2020.2.10,Win32,60,61025ae37ef11b136ea224fe,,,,,,,,,4352,-91,54,1,0,0,response7disk,,1,7,17,1,0,0,rectangle,7,17,1,0,0,7,17,1,0,0,0,46,46,85,1,,,,,,,,
,,,,,,,,,,,,,FF,,,,,,,,1.033,,,,,,,,,,,,,,,,,,,,,,6102e71dcb976d58c1435272,61036daf11bc5a6b8b26468c,2021-07-29_20h13.43.817,Simcolourproject_2stim_asymm_v5,2020.2.10,Win32,60,61025ae37ef11b136ea224fe,,,,,,,,,3916,-27,-102,1,0,0,response5disk,,3,0,-8,1,0,0,rectangle,0,-8,1,0,0,0,-8,1,0,0,0,47,47,136,1,,,,,,,,
,,,,,,,,,,,,,FF,,,,,,,,1.217,,,,,,,,,,,,,,,,,,,,,,6102e71dcb976d58c1435272,61036daf11bc5a6b8b26468c,2021-07-29_20h13.43.817,Simcolourproject_2stim_asymm_v5,2020.2.10,Win32,60,61025ae37ef11b136ea224fe,,,,,,,,,697,118,-49,1,0,0,response3disk,,5,0,-5,1,0,0,rectangle,0,-5,1,0,0,0,-5,1,0,0,0,48,48,156,1,,,,,,,,
,,,,,,,,,,,,,FF,,,,,,,,0.683,,,,,,,,,,,,,,,,,,,,,,6102e71dcb976d58c1435272,61036daf11bc5a6b8b26468c,2021-07-29_20h13.43.817,Simcolourproject_2stim_asymm_v5,2020.2.10,Win32,60,61025ae37ef11b136ea224fe,,,,,,,,,2906,140,-51,1,0,0,response3disk,,5,7,-12,1,0,0,rectangle,7,-12,1,0,0,7,-12,1,0,0,0,49,49,60,1,,,,,,,,
,,,,,,,,,,,,,FF,,,,,,,,1.466,,,,,,,,,,,,,,,,,,,,,,6102e71dcb976d58c1435272,61036daf11bc5a6b8b26468c,2021-07-29_20h13.43.817,Simcolourproject_2stim_asymm_v5,2020.2.10,Win32,60,61025ae37ef11b136ea224fe,,,,,,,,,2132,99,48,1,0,0,response1disk,,6,31,-2,1,0,0,rectangle,31,-2,1,0,0,31,-2,1,0,0,0,50,50,102,1,,,,,,,,
,,,,,,,,,,,,,FF,,,,,,,,1.366,,,,,,,,,,,,,,,,,,,,,,6102e71dcb976d58c1435272,61036daf11bc5a6b8b26468c,2021-07-29_20h13.43.817,Simcolourproject_2stim_asymm_v5,2020.2.10,Win32,60,61025ae37ef11b136ea224fe,,,,,,,,,3930,87,33,1,0,0,response1disk,,6,-33,-1,1,0,0,rectangle,-33,-1,1,0,0,-33,-1,1,0,0,0,51,51,28,1,,,,,,,,
,,,,,,,,,,,,,FF,,,,,,,,1.883,,,,,,,,,,,,,,,,,,,,,,6102e71dcb976d58c1435272,61036daf11bc5a6b8b26468c,2021-07-29_20h13.43.817,Simcolourproject_2stim_asymm_v5,2020.2.10,Win32,60,61025ae37ef11b136ea224fe,,,,,,,,,408,123,42,1,0,0,response1disk,,6,-10,-4,1,0,0,rectangle,-10,-4,1,0,0,-10,-4,1,0,0,0,52,52,16,1,,,,,,,,
,,,,,,,,,,,,,FF,,,,,,,,1.617,,,,,,,,,,,,,,,,,,,,,,6102e71dcb976d58c1435272,61036daf11bc5a6b8b26468c,2021-07-29_20h13.43.817,Simcolourproject_2stim_asymm_v5,2020.2.10,Win32,60,61025ae37ef11b136ea224fe,,,,,,,,,154,22,61,1,0,0,response1disk,,7,9,3,1,0,0,rectangle,9,3,1,0,0,9,3,1,0,0,0,53,53,140,1,,,,,,,,
,,,,,,,,,,,,,FF,,,,,,,,1.349,,,,,,,,,,,,,,,,,,,,,,6102e71dcb976d58c1435272,61036daf11bc5a6b8b26468c,2021-07-29_20h13.43.817,Simcolourproject_2stim_asymm_v5,2020.2.10,Win32,60,61025ae37ef11b136ea224fe,,,,,,,,,1908,31,-110,1,0,0,response3disk,,4,3,-11,1,0,0,rectangle,-80,51,1,0,0,20,-1,1,0,0,0,54,54,31,1,,response7disk_3,TRUE,1,1,"[194,163,297,32,168,44,140,55,178,218,69,315,268,318,260,114,195,80,242,73]",1.334,rectangle
,,,,,,,,,,,,,FF,,,,,,,,1.783,,,,,,,,,,,,,,,,,,,,,,6102e71dcb976d58c1435272,61036daf11bc5a6b8b26468c,2021-07-29_20h13.43.817,Simcolourproject_2stim_asymm_v5,2020.2.10,Win32,60,61025ae37ef11b136ea224fe,,,,,,,,,529,-79,-54,1,0,0,response5disk,,2,-2,-3,1,0,0,rectangle,-2,-3,1,0,0,-2,-3,1,0,0,0,55,55,130,1,,,,,,,,
,,,,,,,,,,,,,FF,,,,,,,,0.734,,,,,,,,,,,,,,,,,,,,,,6102e71dcb976d58c1435272,61036daf11bc5a6b8b26468c,2021-07-29_20h13.43.817,Simcolourproject_2stim_asymm_v5,2020.2.10,Win32,60,61025ae37ef11b136ea224fe,,,,,,,,,1065,-85,-42,1,0,0,response5disk,,2,6,-3,1,0,0,rectangle,6,-3,1,0,0,6,-3,1,0,0,0,56,56,121,1,,,,,,,,
,,,,,,,,,,,,,FF,,,,,,,,3.7,,,,,,,,,,,,,,,,,,,,,,6102e71dcb976d58c1435272,61036daf11bc5a6b8b26468c,2021-07-29_20h13.43.817,Simcolourproject_2stim_asymm_v5,2020.2.10,Win32,60,61025ae37ef11b136ea224fe,,,,,,,,,3350,46,-111,1,0,0,response3disk,,4,-21,-7,1,0,0,rectangle,-21,-7,1,0,0,-21,-7,1,0,0,0,57,57,53,1,,,,,,,,
,,,,,,,,,,,,,FF,,,,,,,,1.417,,,,,,,,,,,,,,,,,,,,,,6102e71dcb976d58c1435272,61036daf11bc5a6b8b26468c,2021-07-29_20h13.43.817,Simcolourproject_2stim_asymm_v5,2020.2.10,Win32,60,61025ae37ef11b136ea224fe,,,,,,,,,2379,-61,-102,1,0,0,response5disk,,3,4,-4,1,0,0,rectangle,4,-4,1,0,0,4,-4,1,0,0,0,58,58,110,1,,,,,,,,
,,,,,,,,,,,,,FF,,,,,,,,0.8,,,,,,,,,,,,,,,,,,,,,,6102e71dcb976d58c1435272,61036daf11bc5a6b8b26468c,2021-07-29_20h13.43.817,Simcolourproject_2stim_asymm_v5,2020.2.10,Win32,60,61025ae37ef11b136ea224fe,,,,,,,,,3427,-24,77,1,0,0,response7disk,,0,2,9,1,0,0,rectangle,2,9,1,0,0,2,9,1,0,0,0,59,59,2,1,,,,,,,,
,,,,,,,,,,,,,FF,,,,,,,,1.516,,,,,,,,,,,,,,,,,,,,,,6102e71dcb976d58c1435272,61036daf11bc5a6b8b26468c,2021-07-29_20h13.43.817,Simcolourproject_2stim_asymm_v5,2020.2.10,Win32,60,61025ae37ef11b136ea224fe,,,,,,,,,2042,-63,-111,1,0,0,response5disk,,3,-28,-5,1,0,0,rectangle,-28,-5,1,0,0,-28,-5,1,0,0,0,60,60,22,1,,,,,,,,
,,,,,,,,,,,,,FF,,,,,,,,1.217,,,,,,,,,,,,,,,,,,,,,,6102e71dcb976d58c1435272,61036daf11bc5a6b8b26468c,2021-07-29_20h13.43.817,Simcolourproject_2stim_asymm_v5,2020.2.10,Win32,60,61025ae37ef11b136ea224fe,,,,,,,,,1485,42,-83,1,0,0,response3disk,,4,4,-1,1,0,0,rectangle,4,-1,1,0,0,4,-1,1,0,0,0,61,61,37,1,,,,,,,,
,,,,,,,,,,,,,FF,,,,,,,,1.016,,,,,,,,,,,,,,,,,,,,,,6102e71dcb976d58c1435272,61036daf11bc5a6b8b26468c,2021-07-29_20h13.43.817,Simcolourproject_2stim_asymm_v5,2020.2.10,Win32,60,61025ae37ef11b136ea224fe,,,,,,,,,1650,56,-95,1,0,0,response3disk,,4,10,-4,1,0,0,rectangle,10,-4,1,0,0,10,-4,1,0,0,0,62,62,51,1,,,,,,,,
,,,,,,,,,,,,,FF,,,,,,,,1.45,,,,,,,,,,,,,,,,,,,,,,6102e71dcb976d58c1435272,61036daf11bc5a6b8b26468c,2021-07-29_20h13.43.817,Simcolourproject_2stim_asymm_v5,2020.2.10,Win32,60,61025ae37ef11b136ea224fe,,,,,,,,,2301,-101,-64,1,0,0,response5disk,,2,-7,-7,1,0,0,rectangle,-7,-7,1,0,0,-7,-7,1,0,0,0,63,63,14,1,,,,,,,,
,,,,,,,,,,,,,FF,,,,,,,,1.033,,,,,,,,,,,,,,,,,,,,,,6102e71dcb976d58c1435272,61036daf11bc5a6b8b26468c,2021-07-29_20h13.43.817,Simcolourproject_2stim_asymm_v5,2020.2.10,Win32,60,61025ae37ef11b136ea224fe,,,,,,,,,806,-115,55,1,0,0,response7disk,,1,-14,16,1,0,0,rectangle,-14,16,1,0,0,-14,16,1,0,0,0,64,64,41,1,,,,,,,,
,,,,,,,,,,,,,FF,,,,,,,,1.401,,,,,,,,,,,,,,,,,,,,,,6102e71dcb976d58c1435272,61036daf11bc5a6b8b26468c,2021-07-29_20h13.43.817,Simcolourproject_2stim_asymm_v5,2020.2.10,Win32,60,61025ae37ef11b136ea224fe,,,,,,,,,938,92,-60,1,0,0,response3disk,,5,-1,10,1,0,0,rectangle,-1,10,1,0,0,-1,10,1,0,0,0,65,65,131,1,,,,,,,,
,,,,,,,,,,,,,FF,,,,,,,,1.2,,,,,,,,,,,,,,,,,,,,,,6102e71dcb976d58c1435272,61036daf11bc5a6b8b26468c,2021-07-29_20h13.43.817,Simcolourproject_2stim_asymm_v5,2020.2.10,Win32,60,61025ae37ef11b136ea224fe,,,,,,,,,2110,57,-95,1,0,0,response3disk,,4,-1,-9,1,0,0,rectangle,-1,-9,1,0,0,-1,-9,1,0,0,0,66,66,81,1,,,,,,,,
,,,,,,,,,,,,,FF,,,,,,,,2.216,,,,,,,,,,,,,,,,,,,,,,6102e71dcb976d58c1435272,61036daf11bc5a6b8b26468c,2021-07-29_20h13.43.817,Simcolourproject_2stim_asymm_v5,2020.2.10,Win32,60,61025ae37ef11b136ea224fe,,,,,,,,,827,109,49,1,0,0,response1disk,,6,2,1,1,0,0,rectangle,2,1,1,0,0,2,1,1,0,0,0,67,67,126,1,,,,,,,,
,,,,,,,,,,,,,FF,,,,,,,,1.667,,,,,,,,,,,,,,,,,,,,,,6102e71dcb976d58c1435272,61036daf11bc5a6b8b26468c,2021-07-29_20h13.43.817,Simcolourproject_2stim_asymm_v5,2020.2.10,Win32,60,61025ae37ef11b136ea224fe,,,,,,,,,3616,94,32,1,0,0,response1disk,,6,0,-13,1,0,0,rectangle,115,44,1,0,0,18,-4,1,0,0,0,68,68,98,1,,response1disk_3,TRUE,6,6,"[194,163,297,32,168,44,140,55,178,218,69,315,268,318,260,114,195,80,242,73]",1.366,rectangle
,,,,,,,,,,,,,FF,,,,,,,,1.75,,,,,,,,,,,,,,,,,,,,,,6102e71dcb976d58c1435272,61036daf11bc5a6b8b26468c,2021-07-29_20h13.43.817,Simcolourproject_2stim_asymm_v5,2020.2.10,Win32,60,61025ae37ef11b136ea224fe,,,,,,,,,2700,91,48,1,0,0,response1disk,,6,9,1,1,0,0,rectangle,9,1,1,0,0,9,1,1,0,0,0,69,69,5,1,,,,,,,,
,,,,,,,,,,,,,FF,,,,,,,,1.033,,,,,,,,,,,,,,,,,,,,,,6102e71dcb976d58c1435272,61036daf11bc5a6b8b26468c,2021-07-29_20h13.43.817,Simcolourproject_2stim_asymm_v5,2020.2.10,Win32,60,61025ae37ef11b136ea224fe,,,,,,,,,485,89,-68,1,0,0,response3disk,,5,-6,-11,1,0,0,rectangle,-6,-11,1,0,0,-6,-11,1,0,0,0,70,70,109,1,,,,,,,,
,,,,,,,,,,,,,FF,,,,,,,,1.683,,,,,,,,,,,,,,,,,,,,,,6102e71dcb976d58c1435272,61036daf11bc5a6b8b26468c,2021-07-29_20h13.43.817,Simcolourproject_2stim_asymm_v5,2020.2.10,Win32,60,61025ae37ef11b136ea224fe,,,,,,,,,991,29,-96,1,0,0,response3disk,,4,-7,7,1,0,0,rectangle,-7,7,1,0,0,-7,7,1,0,0,0,71,71,143,1,,,,,,,,
,,,,,,,,,,,,,FF,,,,,,,,1.067,,,,,,,,,,,,,,,,,,,,,,6102e71dcb976d58c1435272,61036daf11bc5a6b8b26468c,2021-07-29_20h13.43.817,Simcolourproject_2stim_asymm_v5,2020.2.10,Win32,60,61025ae37ef11b136ea224fe,,,,,,,,,4058,-73,-45,1,0,0,response5disk,,2,-3,-6,1,0,0,rectangle,-82,48,1,0,0,-11,3,1,0,0,0,72,72,149,1,,response7disk_3,TRUE,1,1,"[194,163,297,32,168,44,140,55,178,218,69,315,268,318,260,114,195,80,242,73]",1.183,rectangle
,,,,,,,,,,,,,FF,,,,,,,,1.249,,,,,,,,,,,,,,,,,,,,,,6102e71dcb976d58c1435272,61036daf11bc5a6b8b26468c,2021-07-29_20h13.43.817,Simcolourproject_2stim_asymm_v5,2020.2.10,Win32,60,61025ae37ef11b136ea224fe,,,,,,,,,1463,-92,40,1,0,0,response7disk,,1,-25,5,1,0,0,rectangle,-25,5,1,0,0,-25,5,1,0,0,0,73,73,30,1,,,,,,,,
,,,,,,,,,,,,,FF,,,,,,,,0.733,,,,,,,,,,,,,,,,,,,,,,6102e71dcb976d58c1435272,61036daf11bc5a6b8b26468c,2021-07-29_20h13.43.817,Simcolourproject_2stim_asymm_v5,2020.2.10,Win32,60,61025ae37ef11b136ea224fe,,,,,,,,,968,-97,55,1,0,0,response7disk,,1,-14,3,1,0,0,rectangle,-14,3,1,0,0,-14,3,1,0,0,0,74,74,73,1,,,,,,,,
,,,,,,,,,,,,,FF,,,,,,,,2.483,,,,,,,,,,,,,,,,,,,,,,6102e71dcb976d58c1435272,61036daf11bc5a6b8b26468c,2021-07-29_20h13.43.817,Simcolourproject_2stim_asymm_v5,2020.2.10,Win32,60,61025ae37ef11b136ea224fe,,,,,,,,,141,61,-107,1,0,0,response3disk,,4,-15,3,1,0,0,rectangle,-15,3,1,0,0,-15,3,1,0,0,0,75,75,52,1,,,,,,,,
,,,,,,,,,,,,,FF,,,,,,,,0.933,,,,,,,,,,,,,,,,,,,,,,6102e71dcb976d58c1435272,61036daf11bc5a6b8b26468c,2021-07-29_20h13.43.817,Simcolourproject_2stim_asymm_v5,2020.2.10,Win32,60,61025ae37ef11b136ea224fe,,,,,,,,,1521,-42,82,1,0,0,response7disk,,0,12,-9,1,0,0,rectangle,12,-9,1,0,0,12,-9,1,0,0,0,76,76,154,1,,,,,,,,
,,,,,,,,,,,,,FF,,,,,,,,0.933,,,,,,,,,,,,,,,,,,,,,,6102e71dcb976d58c1435272,61036daf11bc5a6b8b26468c,2021-07-29_20h13.43.817,Simcolourproject_2stim_asymm_v5,2020.2.10,Win32,60,61025ae37ef11b136ea224fe,,,,,,,,,1426,-45,-65,1,0,0,response5disk,,3,-18,-2,1,0,0,rectangle,-18,-2,1,0,0,-18,-2,1,0,0,0,77,77,71,1,,,,,,,,
,,,,,,,,,,,,,FF,,,,,,,,1.016,,,,,,,,,,,,,,,,,,,,,,6102e71dcb976d58c1435272,61036daf11bc5a6b8b26468c,2021-07-29_20h13.43.817,Simcolourproject_2stim_asymm_v5,2020.2.10,Win32,60,61025ae37ef11b136ea224fe,,,,,,,,,4024,-96,-44,1,0,0,response5disk,,2,-9,-1,1,0,0,rectangle,-9,-1,1,0,0,-9,-1,1,0,0,0,78,78,134,1,,,,,,,,
,,,,,,,,,,,,,FF,,,,,,,,0.951,,,,,,,,,,,,,,,,,,,,,,6102e71dcb976d58c1435272,61036daf11bc5a6b8b26468c,2021-07-29_20h13.43.817,Simcolourproject_2stim_asymm_v5,2020.2.10,Win32,60,61025ae37ef11b136ea224fe,,,,,,,,,3070,39,-73,1,0,0,response3disk,,4,-12,7,1,0,0,rectangle,-105,-48,1,0,0,-13,-9,1,0,0,0,79,79,82,1,,response5disk_3,TRUE,2,2,"[194,163,297,32,168,44,140,55,178,218,69,315,268,318,260,114,195,80,242,73]",1.7,rectangle
,,,,,,,,,,,,,FF,,,,,,,,1.534,,,,,,,,,,,,,,,,,,,,,,6102e71dcb976d58c1435272,61036daf11bc5a6b8b26468c,2021-07-29_20h13.43.817,Simcolourproject_2stim_asymm_v5,2020.2.10,Win32,60,61025ae37ef11b136ea224fe,,,,,,,,,2590,56,-92,1,0,0,response3disk,,4,5,-1,1,0,0,rectangle,5,-1,1,0,0,5,-1,1,0,0,0,80,80,152,1,,,,,,,,
,,,,,,,,,,,,,FF,,,,,,,,1.982,,,,,,,,,,,,,,,,,,,,,,6102e71dcb976d58c1435272,61036daf11bc5a6b8b26468c,2021-07-29_20h13.43.817,Simcolourproject_2stim_asymm_v5,2020.2.10,Win32,60,61025ae37ef11b136ea224fe,,,,,,,,,2978,100,35,1,0,0,response1disk,,6,-4,4,1,0,0,rectangle,-4,4,1,0,0,-4,4,1,0,0,0,81,81,63,1,,,,,,,,
,,,,,,,,,,,,,FF,,,,,,,,1.15,,,,,,,,,,,,,,,,,,,,,,6102e71dcb976d58c1435272,61036daf11bc5a6b8b26468c,2021-07-29_20h13.43.817,Simcolourproject_2stim_asymm_v5,2020.2.10,Win32,60,61025ae37ef11b136ea224fe,,,,,,,,,716,-30,85,1,0,0,response7disk,,0,9,-1,1,0,0,rectangle,9,-1,1,0,0,9,-1,1,0,0,0,82,82,84,1,,,,,,,,
,,,,,,,,,,,,,FF,,,,,,,,2.517,,,,,,,,,,,,,,,,,,,,,,6102e71dcb976d58c1435272,61036daf11bc5a6b8b26468c,2021-07-29_20h13.43.817,Simcolourproject_2stim_asymm_v5,2020.2.10,Win32,60,61025ae37ef11b136ea224fe,,,,,,,,,1836,47,-77,1,0,0,response3disk,,4,-7,0,1,0,0,rectangle,-7,0,1,0,0,-7,0,1,0,0,0,83,83,77,1,,,,,,,,
,,,,,,,,,,,,,FF,,,,,,,,1.167,,,,,,,,,,,,,,,,,,,,,,6102e71dcb976d58c1435272,61036daf11bc5a6b8b26468c,2021-07-29_20h13.43.817,Simcolourproject_2stim_asymm_v5,2020.2.10,Win32,60,61025ae37ef11b136ea224fe,,,,,,,,,3094,-42,-87,1,0,0,response5disk,,3,-9,3,1,0,0,rectangle,-9,3,1,0,0,-9,3,1,0,0,0,84,84,88,1,,,,,,,,
,,,,,,,,,,,,,FF,,,,,,,,2.483,,,,,,,,,,,,,,,,,,,,,,6102e71dcb976d58c1435272,61036daf11bc5a6b8b26468c,2021-07-29_20h13.43.817,Simcolourproject_2stim_asymm_v5,2020.2.10,Win32,60,61025ae37ef11b136ea224fe,,,,,,,,,3801,117,41,1,0,0,response1disk,,6,14,-6,1,0,0,rectangle,14,-6,1,0,0,14,-6,1,0,0,0,85,85,116,1,,,,,,,,
,,,,,,,,,,,,,FF,,,,,,,,1.683,,,,,,,,,,,,,,,,,,,,,,6102e71dcb976d58c1435272,61036daf11bc5a6b8b26468c,2021-07-29_20h13.43.817,Simcolourproject_2stim_asymm_v5,2020.2.10,Win32,60,61025ae37ef11b136ea224fe,,,,,,,,,1689,98,-67,1,0,0,response3disk,,5,-1,-12,1,0,0,rectangle,-1,-12,1,0,0,-1,-12,1,0,0,0,86,86,127,1,,,,,,,,
,,,,,,,,,,,,,FF,,,,,,,,1.967,,,,,,,,,,,,,,,,,,,,,,6102e71dcb976d58c1435272,61036daf11bc5a6b8b26468c,2021-07-29_20h13.43.817,Simcolourproject_2stim_asymm_v5,2020.2.10,Win32,60,61025ae37ef11b136ea224fe,,,,,,,,,3666,101,35,1,0,0,response1disk,,6,-13,-5,1,0,0,rectangle,-13,-5,1,0,0,-13,-5,1,0,0,0,87,87,36,1,,,,,,,,
,,,,,,,,,,,,,FF,,,,,,,,0.966,,,,,,,,,,,,,,,,,,,,,,6102e71dcb976d58c1435272,61036daf11bc5a6b8b26468c,2021-07-29_20h13.43.817,Simcolourproject_2stim_asymm_v5,2020.2.10,Win32,60,61025ae37ef11b136ea224fe,,,,,,,,,892,90,-54,1,0,0,response3disk,,5,5,-13,1,0,0,rectangle,5,-13,1,0,0,5,-13,1,0,0,0,88,88,67,1,,,,,,,,
,,,,,,,,,,,,,FF,,,,,,,,2.767,,,,,,,,,,,,,,,,,,,,,,6102e71dcb976d58c1435272,61036daf11bc5a6b8b26468c,2021-07-29_20h13.43.817,Simcolourproject_2stim_asymm_v5,2020.2.10,Win32,60,61025ae37ef11b136ea224fe,,,,,,,,,992,136,-61,1,0,0,response3disk,,5,38,-14,1,0,0,rectangle,38,-14,1,0,0,38,-14,1,0,0,0,89,89,122,1,,,,,,,,
,,,,,,,,,,,,,FF,,,,,,,,1.017,,,,,,,,,,,,,,,,,,,,,,6102e71dcb976d58c1435272,61036daf11bc5a6b8b26468c,2021-07-29_20h13.43.817,Simcolourproject_2stim_asymm_v5,2020.2.10,Win32,60,61025ae37ef11b136ea224fe,,,,,,,,,1748,-41,-91,1,0,0,response5disk,,3,2,-6,1,0,0,rectangle,2,-6,1,0,0,2,-6,1,0,0,0,90,90,33,1,,,,,,,,
,,,,,,,,,,,,,FF,,,,,,,,1.217,,,,,,,,,,,,,,,,,,,,,,6102e71dcb976d58c1435272,61036daf11bc5a6b8b26468c,2021-07-29_20h13.43.817,Simcolourproject_2stim_asymm_v5,2020.2.10,Win32,60,61025ae37ef11b136ea224fe,,,,,,,,,3451,127,34,1,0,0,response1disk,,6,36,-6,1,0,0,rectangle,36,-6,1,0,0,36,-6,1,0,0,0,91,91,87,1,,,,,,,,
,,,,,,,,,,,,,FF,,,,,,,,0.717,,,,,,,,,,,,,,,,,,,,,,6102e71dcb976d58c1435272,61036daf11bc5a6b8b26468c,2021-07-29_20h13.43.817,Simcolourproject_2stim_asymm_v5,2020.2.10,Win32,60,61025ae37ef11b136ea224fe,,,,,,,,,4350,-48,91,1,0,0,response7disk,,0,29,12,1,0,0,rectangle,29,12,1,0,0,29,12,1,0,0,0,92,92,72,1,,,,,,,,
,,,,,,,,,,,,,FF,,,,,,,,3.133,,,,,,,,,,,,,,,,,,,,,,6102e71dcb976d58c1435272,61036daf11bc5a6b8b26468c,2021-07-29_20h13.43.817,Simcolourproject_2stim_asymm_v5,2020.2.10,Win32,60,61025ae37ef11b136ea224fe,,,,,,,,,1557,102,-60,1,0,0,response3disk,,5,27,-18,1,0,0,rectangle,27,-18,1,0,0,27,-18,1,0,0,0,93,93,35,1,,,,,,,,
,,,,,,,,,,,,,FF,,,,,,,,1.084,,,,,,,,,,,,,,,,,,,,,,6102e71dcb976d58c1435272,61036daf11bc5a6b8b26468c,2021-07-29_20h13.43.817,Simcolourproject_2stim_asymm_v5,2020.2.10,Win32,60,61025ae37ef11b136ea224fe,,,,,,,,,3204,-113,35,1,0,0,response7disk,,1,-10,-5,1,0,0,rectangle,-10,-5,1,0,0,-10,-5,1,0,0,0,94,94,111,1,,,,,,,,
,,,,,,,,,,,,,FF,,,,,,,,1.233,,,,,,,,,,,,,,,,,,,,,,6102e71dcb976d58c1435272,61036daf11bc5a6b8b26468c,2021-07-29_20h13.43.817,Simcolourproject_2stim_asymm_v5,2020.2.10,Win32,60,61025ae37ef11b136ea224fe,,,,,,,,,3298,-106,-44,1,0,0,response5disk,,2,-5,-8,1,0,0,rectangle,-5,-8,1,0,0,-5,-8,1,0,0,0,95,95,83,1,,,,,,,,
,,,,,,,,,,,,,FF,,,,,,,,0.899,,,,,,,,,,,,,,,,,,,,,,6102e71dcb976d58c1435272,61036daf11bc5a6b8b26468c,2021-07-29_20h13.43.817,Simcolourproject_2stim_asymm_v5,2020.2.10,Win32,60,61025ae37ef11b136ea224fe,,,,,,,,,3935,-99,55,1,0,0,response7disk,,1,-30,20,1,0,0,rectangle,-30,20,1,0,0,-30,20,1,0,0,0,96,96,91,1,,,,,,,,
,,,,,,,,,,,,,FF,,,,,,,,1.834,,,,,,,,,,,,,,,,,,,,,,6102e71dcb976d58c1435272,61036daf11bc5a6b8b26468c,2021-07-29_20h13.43.817,Simcolourproject_2stim_asymm_v5,2020.2.10,Win32,60,61025ae37ef11b136ea224fe,,,,,,,,,686,124,48,1,0,0,response1disk,,6,-3,-6,1,0,0,rectangle,-3,-6,1,0,0,-3,-6,1,0,0,0,97,97,6,1,,,,,,,,
,,,,,,,,,,,,,FF,,,,,,,,2.05,,,,,,,,,,,,,,,,,,,,,,6102e71dcb976d58c1435272,61036daf11bc5a6b8b26468c,2021-07-29_20h13.43.817,Simcolourproject_2stim_asymm_v5,2020.2.10,Win32,60,61025ae37ef11b136ea224fe,,,,,,,,,787,105,-67,1,0,0,response3disk,,5,8,-13,1,0,0,rectangle,8,-13,1,0,0,8,-13,1,0,0,0,98,98,47,1,,,,,,,,
,,,,,,,,,,,,,FF,,,,,,,,3.616,,,,,,,,,,,,,,,,,,,,,,6102e71dcb976d58c1435272,61036daf11bc5a6b8b26468c,2021-07-29_20h13.43.817,Simcolourproject_2stim_asymm_v5,2020.2.10,Win32,60,61025ae37ef11b136ea224fe,,,,,,,,,4040,73,-49,1,0,0,response3disk,,5,-2,-7,1,0,0,rectangle,-2,-7,1,0,0,-2,-7,1,0,0,0,99,99,112,1,,,,,,,,
,,,,,,,,,,,,,FF,,,,,,,,0.983,,,,,,,,,,,,,,,,,,,,,,6102e71dcb976d58c1435272,61036daf11bc5a6b8b26468c,2021-07-29_20h13.43.817,Simcolourproject_2stim_asymm_v5,2020.2.10,Win32,60,61025ae37ef11b136ea224fe,,,,,,,,,4085,-83,-44,1,0,0,response5disk,,2,-6,2,1,0,0,rectangle,-6,2,1,0,0,-6,2,1,0,0,0,100,100,48,1,,,,,,,,
,,,,,,,,,,,,,FF,,,,,,,,2.1,,,,,,,,,,,,,,,,,,,,,,6102e71dcb976d58c1435272,61036daf11bc5a6b8b26468c,2021-07-29_20h13.43.817,Simcolourproject_2stim_asymm_v5,2020.2.10,Win32,60,61025ae37ef11b136ea224fe,,,,,,,,,1388,-57,-85,1,0,0,response5disk,,3,-9,1,1,0,0,rectangle,-9,1,1,0,0,-9,1,1,0,0,0,101,101,29,1,,,,,,,,
,,,,,,,,,,,,,FF,,,,,,,,1.567,,,,,,,,,,,,,,,,,,,,,,6102e71dcb976d58c1435272,61036daf11bc5a6b8b26468c,2021-07-29_20h13.43.817,Simcolourproject_2stim_asymm_v5,2020.2.10,Win32,60,61025ae37ef11b136ea224fe,,,,,,,,,159,-34,-83,1,0,0,response5disk,,3,-10,7,1,0,0,rectangle,-10,7,1,0,0,-10,7,1,0,0,0,102,102,66,1,,,,,,,,
,,,,,,,,,,,,,FF,,,,,,,,1.483,,,,,,,,,,,,,,,,,,,,,,6102e71dcb976d58c1435272,61036daf11bc5a6b8b26468c,2021-07-29_20h13.43.817,Simcolourproject_2stim_asymm_v5,2020.2.10,Win32,60,61025ae37ef11b136ea224fe,,,,,,,,,2019,-32,-83,1,0,0,response5disk,,3,-9,-2,1,0,0,rectangle,-9,-2,1,0,0,-9,-2,1,0,0,0,103,103,27,1,,,,,,,,
,,,,,,,,,,,,,FF,,,,,,,,1.301,,,,,,,,,,,,,,,,,,,,,,6102e71dcb976d58c1435272,61036daf11bc5a6b8b26468c,2021-07-29_20h13.43.817,Simcolourproject_2stim_asymm_v5,2020.2.10,Win32,60,61025ae37ef11b136ea224fe,,,,,,,,,209,43,-63,1,0,0,response3disk,,4,0,2,1,0,0,rectangle,0,2,1,0,0,0,2,1,0,0,0,104,104,44,1,,,,,,,,
,,,,,,,,,,,,,FF,,,,,,,,0.717,,,,,,,,,,,,,,,,,,,,,,6102e71dcb976d58c1435272,61036daf11bc5a6b8b26468c,2021-07-29_20h13.43.817,Simcolourproject_2stim_asymm_v5,2020.2.10,Win32,60,61025ae37ef11b136ea224fe,,,,,,,,,1943,50,-87,1,0,0,response3disk,,4,7,-3,1,0,0,rectangle,7,-3,1,0,0,7,-3,1,0,0,0,105,105,55,1,,,,,,,,
,,,,,,,,,,,,,FF,,,,,,,,1.55,,,,,,,,,,,,,,,,,,,,,,6102e71dcb976d58c1435272,61036daf11bc5a6b8b26468c,2021-07-29_20h13.43.817,Simcolourproject_2stim_asymm_v5,2020.2.10,Win32,60,61025ae37ef11b136ea224fe,,,,,,,,,4037,99,33,1,0,0,response1disk,,6,17,4,1,0,0,rectangle,17,4,1,0,0,17,4,1,0,0,0,106,106,68,1,,,,,,,,
,,,,,,,,,,,,,FF,,,,,,,,3.051,,,,,,,,,,,,,,,,,,,,,,6102e71dcb976d58c1435272,61036daf11bc5a6b8b26468c,2021-07-29_20h13.43.817,Simcolourproject_2stim_asymm_v5,2020.2.10,Win32,60,61025ae37ef11b136ea224fe,,,,,,,,,2072,125,-55,1,0,0,response3disk,,5,33,-14,1,0,0,rectangle,33,-14,1,0,0,33,-14,1,0,0,0,107,107,21,1,,,,,,,,
,,,,,,,,,,,,,FF,,,,,,,,1.033,,,,,,,,,,,,,,,,,,,,,,6102e71dcb976d58c1435272,61036daf11bc5a6b8b26468c,2021-07-29_20h13.43.817,Simcolourproject_2stim_asymm_v5,2020.2.10,Win32,60,61025ae37ef11b136ea224fe,,,,,,,,,901,30,-84,1,0,0,response3disk,,4,28,2,1,0,0,rectangle,28,2,1,0,0,28,2,1,0,0,0,108,108,74,1,,,,,,,,
,,,,,,,,,,,,,FF,,,,,,,,1.349,,,,,,,,,,,,,,,,,,,,,,6102e71dcb976d58c1435272,61036daf11bc5a6b8b26468c,2021-07-29_20h13.43.817,Simcolourproject_2stim_asymm_v5,2020.2.10,Win32,60,61025ae37ef11b136ea224fe,,,,,,,,,1088,42,75,1,0,0,response1disk,,7,16,4,1,0,0,rectangle,16,4,1,0,0,16,4,1,0,0,0,109,109,78,1,,,,,,,,
,,,,,,,,,,,,,FF,,,,,,,,1.35,,,,,,,,,,,,,,,,,,,,,,6102e71dcb976d58c1435272,61036daf11bc5a6b8b26468c,2021-07-29_20h13.43.817,Simcolourproject_2stim_asymm_v5,2020.2.10,Win32,60,61025ae37ef11b136ea224fe,,,,,,,,,2864,42,68,1,0,0,response1disk,,7,12,7,1,0,0,rectangle,12,7,1,0,0,12,7,1,0,0,0,110,110,75,1,,,,,,,,
,,,,,,,,,,,,,FF,,,,,,,,1.267,,,,,,,,,,,,,,,,,,,,,,6102e71dcb976d58c1435272,61036daf11bc5a6b8b26468c,2021-07-29_20h13.43.817,Simcolourproject_2stim_asymm_v5,2020.2.10,Win32,60,61025ae37ef11b136ea224fe,,,,,,,,,2686,98,38,1,0,0,response1disk,,6,28,-9,1,0,0,rectangle,28,-9,1,0,0,28,-9,1,0,0,0,111,111,104,1,,,,,,,,
,,,,,,,,,,,,,FF,,,,,,,,0.784,,,,,,,,,,,,,,,,,,,,,,6102e71dcb976d58c1435272,61036daf11bc5a6b8b26468c,2021-07-29_20h13.43.817,Simcolourproject_2stim_asymm_v5,2020.2.10,Win32,60,61025ae37ef11b136ea224fe,,,,,,,,,3434,-98,49,1,0,0,response7disk,,1,-14,7,1,0,0,rectangle,-14,7,1,0,0,-14,7,1,0,0,0,112,112,38,1,,,,,,,,
,,,,,,,,,,,,,FF,,,,,,,,1.649,,,,,,,,,,,,,,,,,,,,,,6102e71dcb976d58c1435272,61036daf11bc5a6b8b26468c,2021-07-29_20h13.43.817,Simcolourproject_2stim_asymm_v5,2020.2.10,Win32,60,61025ae37ef11b136ea224fe,,,,,,,,,4033,-38,-93,1,0,0,response5disk,,3,1,-2,1,0,0,rectangle,43,-109,1,0,0,-12,5,1,0,0,0,113,113,43,1,,response3disk_3,TRUE,4,4,"[194,163,297,32,168,44,140,55,178,218,69,315,268,318,260,114,195,80,242,73]",1.716,rectangle
,,,,,,,,,,,,,FF,,,,,,,,1.516,,,,,,,,,,,,,,,,,,,,,,6102e71dcb976d58c1435272,61036daf11bc5a6b8b26468c,2021-07-29_20h13.43.817,Simcolourproject_2stim_asymm_v5,2020.2.10,Win32,60,61025ae37ef11b136ea224fe,,,,,,,,,2589,39,-77,1,0,0,response3disk,,4,-5,-5,1,0,0,rectangle,-5,-5,1,0,0,-5,-5,1,0,0,0,114,114,19,1,,,,,,,,
,,,,,,,,,,,,,FF,,,,,,,,0.999,,,,,,,,,,,,,,,,,,,,,,6102e71dcb976d58c1435272,61036daf11bc5a6b8b26468c,2021-07-29_20h13.43.817,Simcolourproject_2stim_asymm_v5,2020.2.10,Win32,60,61025ae37ef11b136ea224fe,,,,,,,,,2065,77,-33,1,0,0,response3disk,,5,15,-9,1,0,0,rectangle,15,-9,1,0,0,15,-9,1,0,0,0,115,115,144,1,,,,,,,,
,,,,,,,,,,,,,FF,,,,,,,,0.934,,,,,,,,,,,,,,,,,,,,,,6102e71dcb976d58c1435272,61036daf11bc5a6b8b26468c,2021-07-29_20h13.43.817,Simcolourproject_2stim_asymm_v5,2020.2.10,Win32,60,61025ae37ef11b136ea224fe,,,,,,,,,2674,-58,-95,1,0,0,response5disk,,3,-10,-11,1,0,0,rectangle,-10,-11,1,0,0,-10,-11,1,0,0,0,116,116,25,1,,,,,,,,
,,,,,,,,,,,,,FF,,,,,,,,1.451,,,,,,,,,,,,,,,,,,,,,,6102e71dcb976d58c1435272,61036daf11bc5a6b8b26468c,2021-07-29_20h13.43.817,Simcolourproject_2stim_asymm_v5,2020.2.10,Win32,60,61025ae37ef11b136ea224fe,,,,,,,,,1840,42,-74,1,0,0,response3disk,,4,22,-13,1,0,0,rectangle,22,-13,1,0,0,22,-13,1,0,0,0,117,117,155,1,,,,,,,,
,,,,,,,,,,,,,FF,,,,,,,,0.85,,,,,,,,,,,,,,,,,,,,,,6102e71dcb976d58c1435272,61036daf11bc5a6b8b26468c,2021-07-29_20h13.43.817,Simcolourproject_2stim_asymm_v5,2020.2.10,Win32,60,61025ae37ef11b136ea224fe,,,,,,,,,990,44,-77,1,0,0,response3disk,,4,-2,2,1,0,0,rectangle,-2,2,1,0,0,-2,2,1,0,0,0,118,118,96,1,,,,,,,,
,,,,,,,,,,,,,FF,,,,,,,,1.149,,,,,,,,,,,,,,,,,,,,,,6102e71dcb976d58c1435272,61036daf11bc5a6b8b26468c,2021-07-29_20h13.43.817,Simcolourproject_2stim_asymm_v5,2020.2.10,Win32,60,61025ae37ef11b136ea224fe,,,,,,,,,518,-29,-83,1,0,0,response5disk,,3,3,11,1,0,0,rectangle,3,11,1,0,0,3,11,1,0,0,0,119,119,142,1,,,,,,,,
,,,,,,,,,,,,,FF,,,,,,,,1.1,,,,,,,,,,,,,,,,,,,,,,6102e71dcb976d58c1435272,61036daf11bc5a6b8b26468c,2021-07-29_20h13.43.817,Simcolourproject_2stim_asymm_v5,2020.2.10,Win32,60,61025ae37ef11b136ea224fe,,,,,,,,,1252,92,38,1,0,0,response1disk,,6,14,-6,1,0,0,rectangle,14,-6,1,0,0,14,-6,1,0,0,0,120,120,146,1,,,,,,,,
,,,,,,,,,,,,,FF,,,,,,,,0.816,,,,,,,,,,,,,,,,,,,,,,6102e71dcb976d58c1435272,61036daf11bc5a6b8b26468c,2021-07-29_20h13.43.817,Simcolourproject_2stim_asymm_v5,2020.2.10,Win32,60,61025ae37ef11b136ea224fe,,,,,,,,,1395,104,35,1,0,0,response1disk,,6,17,-6,1,0,0,rectangle,17,-6,1,0,0,17,-6,1,0,0,0,121,121,108,1,,,,,,,,
,,,,,,,,,,,,,FF,,,,,,,,1.017,,,,,,,,,,,,,,,,,,,,,,6102e71dcb976d58c1435272,61036daf11bc5a6b8b26468c,2021-07-29_20h13.43.817,Simcolourproject_2stim_asymm_v5,2020.2.10,Win32,60,61025ae37ef11b136ea224fe,,,,,,,,,2149,69,-101,1,0,0,response3disk,,4,13,-5,1,0,0,rectangle,13,-5,1,0,0,13,-5,1,0,0,0,122,122,114,1,,,,,,,,
,,,,,,,,,,,,,FF,,,,,,,,0.9,,,,,,,,,,,,,,,,,,,,,,6102e71dcb976d58c1435272,61036daf11bc5a6b8b26468c,2021-07-29_20h13.43.817,Simcolourproject_2stim_asymm_v5,2020.2.10,Win32,60,61025ae37ef11b136ea224fe,,,,,,,,,2576,97,-53,1,0,0,response3disk,,5,-5,-2,1,0,0,rectangle,-5,-2,1,0,0,-5,-2,1,0,0,0,123,123,105,1,,,,,,,,
,,,,,,,,,,,,,FF,,,,,,,,1.816,,,,,,,,,,,,,,,,,,,,,,6102e71dcb976d58c1435272,61036daf11bc5a6b8b26468c,2021-07-29_20h13.43.817,Simcolourproject_2stim_asymm_v5,2020.2.10,Win32,60,61025ae37ef11b136ea224fe,,,,,,,,,1931,80,-59,1,0,0,response3disk,,5,-10,-2,1,0,0,rectangle,-10,-2,1,0,0,-10,-2,1,0,0,0,124,124,12,1,,,,,,,,
,,,,,,,,,,,,,FF,,,,,,,,1.049,,,,,,,,,,,,,,,,,,,,,,6102e71dcb976d58c1435272,61036daf11bc5a6b8b26468c,2021-07-29_20h13.43.817,Simcolourproject_2stim_asymm_v5,2020.2.10,Win32,60,61025ae37ef11b136ea224fe,,,,,,,,,4117,-55,-84,1,0,0,response5disk,,3,-3,-4,1,0,0,rectangle,-3,-4,1,0,0,-3,-4,1,0,0,0,125,125,76,1,,,,,,,,
,,,,,,,,,,,,,FF,,,,,,,,1.533,,,,,,,,,,,,,,,,,,,,,,6102e71dcb976d58c1435272,61036daf11bc5a6b8b26468c,2021-07-29_20h13.43.817,Simcolourproject_2stim_asymm_v5,2020.2.10,Win32,60,61025ae37ef11b136ea224fe,,,,,,,,,539,83,49,1,0,0,response1disk,,6,10,8,1,0,0,rectangle,10,8,1,0,0,10,8,1,0,0,0,126,126,3,1,,,,,,,,
,,,,,,,,,,,,,FF,,,,,,,,1.516,,,,,,,,,,,,,,,,,,,,,,6102e71dcb976d58c1435272,61036daf11bc5a6b8b26468c,2021-07-29_20h13.43.817,Simcolourproject_2stim_asymm_v5,2020.2.10,Win32,60,61025ae37ef11b136ea224fe,,,,,,,,,4140,-49,82,1,0,0,response7disk,,0,7,-4,1,0,0,rectangle,7,-4,1,0,0,7,-4,1,0,0,0,127,127,11,1,,,,,,,,
,,,,,,,,,,,,,FF,,,,,,,,0.884,,,,,,,,,,,,,,,,,,,,,,6102e71dcb976d58c1435272,61036daf11bc5a6b8b26468c,2021-07-29_20h13.43.817,Simcolourproject_2stim_asymm_v5,2020.2.10,Win32,60,61025ae37ef11b136ea224fe,,,,,,,,,4166,-101,31,1,0,0,response7disk,,1,-21,-15,1,0,0,rectangle,-21,-15,1,0,0,-21,-15,1,0,0,0,128,128,119,1,,,,,,,,
,,,,,,,,,,,,,FF,,,,,,,,0.884,,,,,,,,,,,,,,,,,,,,,,6102e71dcb976d58c1435272,61036daf11bc5a6b8b26468c,2021-07-29_20h13.43.817,Simcolourproject_2stim_asymm_v5,2020.2.10,Win32,60,61025ae37ef11b136ea224fe,,,,,,,,,4163,-102,37,1,0,0,response7disk,,1,-21,-11,1,0,0,rectangle,-21,-11,1,0,0,-21,-11,1,0,0,0,129,129,141,1,,,,,,,,
,,,,,,,,,,,,,FF,,,,,,,,1.15,,,,,,,,,,,,,,,,,,,,,,6102e71dcb976d58c1435272,61036daf11bc5a6b8b26468c,2021-07-29_20h13.43.817,Simcolourproject_2stim_asymm_v5,2020.2.10,Win32,60,61025ae37ef11b136ea224fe,,,,,,,,,3718,-95,-42,1,0,0,response5disk,,2,-19,6,1,0,0,rectangle,-19,6,1,0,0,-19,6,1,0,0,0,130,130,39,1,,,,,,,,
,,,,,,,,,,,,,FF,,,,,,,,4.133,,,,,,,,,,,,,,,,,,,,,,6102e71dcb976d58c1435272,61036daf11bc5a6b8b26468c,2021-07-29_20h13.43.817,Simcolourproject_2stim_asymm_v5,2020.2.10,Win32,60,61025ae37ef11b136ea224fe,,,,,,,,,799,35,-104,1,0,0,response3disk,,4,1,-5,1,0,0,rectangle,1,-5,1,0,0,1,-5,1,0,0,0,131,131,62,1,,,,,,,,
,,,,,,,,,,,,,FF,,,,,,,,2.25,,,,,,,,,,,,,,,,,,,,,,6102e71dcb976d58c1435272,61036daf11bc5a6b8b26468c,2021-07-29_20h13.43.817,Simcolourproject_2stim_asymm_v5,2020.2.10,Win32,60,61025ae37ef11b136ea224fe,,,,,,,,,3761,34,-75,1,0,0,response3disk,,4,7,-11,1,0,0,rectangle,7,-11,1,0,0,7,-11,1,0,0,0,132,132,137,1,,,,,,,,
,,,,,,,,,,,,,FF,,,,,,,,1.7,,,,,,,,,,,,,,,,,,,,,,6102e71dcb976d58c1435272,61036daf11bc5a6b8b26468c,2021-07-29_20h13.43.817,Simcolourproject_2stim_asymm_v5,2020.2.10,Win32,60,61025ae37ef11b136ea224fe,,,,,,,,,1376,-91,-58,1,0,0,response5disk,,2,-9,-7,1,0,0,rectangle,-9,-7,1,0,0,-9,-7,1,0,0,0,133,133,125,1,,,,,,,,
,,,,,,,,,,,,,FF,,,,,,,,2.566,,,,,,,,,,,,,,,,,,,,,,6102e71dcb976d58c1435272,61036daf11bc5a6b8b26468c,2021-07-29_20h13.43.817,Simcolourproject_2stim_asymm_v5,2020.2.10,Win32,60,61025ae37ef11b136ea224fe,,,,,,,,,271,71,-31,1,0,0,response3disk,,5,26,-7,1,0,0,rectangle,26,-7,1,0,0,26,-7,1,0,0,0,134,134,65,1,,,,,,,,
,,,,,,,,,,,,,FF,,,,,,,,0.917,,,,,,,,,,,,,,,,,,,,,,6102e71dcb976d58c1435272,61036daf11bc5a6b8b26468c,2021-07-29_20h13.43.817,Simcolourproject_2stim_asymm_v5,2020.2.10,Win32,60,61025ae37ef11b136ea224fe,,,,,,,,,3003,-108,-47,1,0,0,response5disk,,2,3,2,1,0,0,rectangle,3,2,1,0,0,3,2,1,0,0,0,135,135,90,1,,,,,,,,
,,,,,,,,,,,,,FF,,,,,,,,0.733,,,,,,,,,,,,,,,,,,,,,,6102e71dcb976d58c1435272,61036daf11bc5a6b8b26468c,2021-07-29_20h13.43.817,Simcolourproject_2stim_asymm_v5,2020.2.10,Win32,60,61025ae37ef11b136ea224fe,,,,,,,,,2465,45,-92,1,0,0,response3disk,,4,-4,-12,1,0,0,rectangle,-4,-12,1,0,0,-4,-12,1,0,0,0,136,136,26,1,,,,,,,,
,,,,,,,,,,,,,FF,,,,,,,,1.051,,,,,,,,,,,,,,,,,,,,,,6102e71dcb976d58c1435272,61036daf11bc5a6b8b26468c,2021-07-29_20h13.43.817,Simcolourproject_2stim_asymm_v5,2020.2.10,Win32,60,61025ae37ef11b136ea224fe,,,,,,,,,4347,-50,-98,1,0,0,response5disk,,3,-9,-2,1,0,0,rectangle,-9,-2,1,0,0,-9,-2,1,0,0,0,137,137,50,1,,,,,,,,
,,,,,,,,,,,,,FF,,,,,,,,0.85,,,,,,,,,,,,,,,,,,,,,,6102e71dcb976d58c1435272,61036daf11bc5a6b8b26468c,2021-07-29_20h13.43.817,Simcolourproject_2stim_asymm_v5,2020.2.10,Win32,60,61025ae37ef11b136ea224fe,,,,,,,,,4363,-108,31,1,0,0,response7disk,,1,-41,12,1,0,0,rectangle,-41,12,1,0,0,-41,12,1,0,0,0,138,138,20,1,,,,,,,,
,,,,,,,,,,,,,FF,,,,,,,,0.867,,,,,,,,,,,,,,,,,,,,,,6102e71dcb976d58c1435272,61036daf11bc5a6b8b26468c,2021-07-29_20h13.43.817,Simcolourproject_2stim_asymm_v5,2020.2.10,Win32,60,61025ae37ef11b136ea224fe,,,,,,,,,1052,-89,-62,1,0,0,response5disk,,2,0,5,1,0,0,rectangle,30,-111,1,0,0,-18,7,1,0,0,0,139,139,86,1,,response3disk_3,TRUE,4,4,"[194,163,297,32,168,44,140,55,178,218,69,315,268,318,260,114,195,80,242,73]",1.733,rectangle
,,,,,,,,,,,,,FF,,,,,,,,1.25,,,,,,,,,,,,,,,,,,,,,,6102e71dcb976d58c1435272,61036daf11bc5a6b8b26468c,2021-07-29_20h13.43.817,Simcolourproject_2stim_asymm_v5,2020.2.10,Win32,60,61025ae37ef11b136ea224fe,,,,,,,,,1238,104,-49,1,0,0,response3disk,,5,14,-17,1,0,0,rectangle,14,-17,1,0,0,14,-17,1,0,0,0,140,140,9,1,,,,,,,,
,,,,,,,,,,,,,FF,,,,,,,,0.717,,,,,,,,,,,,,,,,,,,,,,6102e71dcb976d58c1435272,61036daf11bc5a6b8b26468c,2021-07-29_20h13.43.817,Simcolourproject_2stim_asymm_v5,2020.2.10,Win32,60,61025ae37ef11b136ea224fe,,,,,,,,,1284,120,-43,1,0,0,response3disk,,5,30,-14,1,0,0,rectangle,30,-14,1,0,0,30,-14,1,0,0,0,141,141,40,1,,,,,,,,
,,,,,,,,,,,,,FF,,,,,,,,1.233,,,,,,,,,,,,,,,,,,,,,,6102e71dcb976d58c1435272,61036daf11bc5a6b8b26468c,2021-07-29_20h13.43.817,Simcolourproject_2stim_asymm_v5,2020.2.10,Win32,60,61025ae37ef11b136ea224fe,,,,,,,,,3846,-50,-95,1,0,0,response5disk,,3,-9,-1,1,0,0,rectangle,-9,-1,1,0,0,-9,-1,1,0,0,0,142,142,58,1,,,,,,,,
,,,,,,,,,,,,,FF,,,,,,,,1.817,,,,,,,,,,,,,,,,,,,,,,6102e71dcb976d58c1435272,61036daf11bc5a6b8b26468c,2021-07-29_20h13.43.817,Simcolourproject_2stim_asymm_v5,2020.2.10,Win32,60,61025ae37ef11b136ea224fe,,,,,,,,,651,51,-105,1,0,0,response3disk,,4,11,-5,1,0,0,rectangle,11,-5,1,0,0,11,-5,1,0,0,0,143,143,17,1,,,,,,,,
,,,,,,,,,,,,,FF,,,,,,,,1.517,,,,,,,,,,,,,,,,,,,,,,6102e71dcb976d58c1435272,61036daf11bc5a6b8b26468c,2021-07-29_20h13.43.817,Simcolourproject_2stim_asymm_v5,2020.2.10,Win32,60,61025ae37ef11b136ea224fe,,,,,,,,,2999,-113,-57,1,0,0,response5disk,,2,-14,-6,1,0,0,rectangle,-14,-6,1,0,0,-14,-6,1,0,0,0,144,144,61,1,,,,,,,,
,,,,,,,,,,,,,FF,,,,,,,,3.301,,,,,,,,,,,,,,,,,,,,,,6102e71dcb976d58c1435272,61036daf11bc5a6b8b26468c,2021-07-29_20h13.43.817,Simcolourproject_2stim_asymm_v5,2020.2.10,Win32,60,61025ae37ef11b136ea224fe,,,,,,,,,809,49,-89,1,0,0,response3disk,,4,11,-9,1,0,0,rectangle,11,-9,1,0,0,11,-9,1,0,0,0,145,145,45,1,,,,,,,,
,,,,,,,,,,,,,FF,,,,,,,,2.05,,,,,,,,,,,,,,,,,,,,,,6102e71dcb976d58c1435272,61036daf11bc5a6b8b26468c,2021-07-29_20h13.43.817,Simcolourproject_2stim_asymm_v5,2020.2.10,Win32,60,61025ae37ef11b136ea224fe,,,,,,,,,3560,-27,-130,1,0,0,response5disk,,3,3,-11,1,0,0,rectangle,3,-11,1,0,0,3,-11,1,0,0,0,146,146,158,1,,,,,,,,
,,,,,,,,,,,,,FF,,,,,,,,1.317,,,,,,,,,,,,,,,,,,,,,,6102e71dcb976d58c1435272,61036daf11bc5a6b8b26468c,2021-07-29_20h13.43.817,Simcolourproject_2stim_asymm_v5,2020.2.10,Win32,60,61025ae37ef11b136ea224fe,,,,,,,,,2353,46,-83,1,0,0,response3disk,,4,-3,-11,1,0,0,rectangle,-3,-11,1,0,0,-3,-11,1,0,0,0,147,147,123,1,,,,,,,,
,,,,,,,,,,,,,FF,,,,,,,,3.067,,,,,,,,,,,,,,,,,,,,,,6102e71dcb976d58c1435272,61036daf11bc5a6b8b26468c,2021-07-29_20h13.43.817,Simcolourproject_2stim_asymm_v5,2020.2.10,Win32,60,61025ae37ef11b136ea224fe,,,,,,,,,4315,72,-91,1,0,0,response3disk,,4,35,-3,1,0,0,rectangle,35,-3,1,0,0,35,-3,1,0,0,0,148,148,97,1,,,,,,,,
,,,,,,,,,,,,,FF,,,,,,,,0.932,,,,,,,,,,,,,,,,,,,,,,6102e71dcb976d58c1435272,61036daf11bc5a6b8b26468c,2021-07-29_20h13.43.817,Simcolourproject_2stim_asymm_v5,2020.2.10,Win32,60,61025ae37ef11b136ea224fe,,,,,,,,,1652,49,-99,1,0,0,response3disk,,4,14,8,1,0,0,rectangle,14,8,1,0,0,14,8,1,0,0,0,149,149,79,1,,,,,,,,
,,,,,,,,,,,,,FF,,,,,,,,1.35,,,,,,,,,,,,,,,,,,,,,,6102e71dcb976d58c1435272,61036daf11bc5a6b8b26468c,2021-07-29_20h13.43.817,Simcolourproject_2stim_asymm_v5,2020.2.10,Win32,60,61025ae37ef11b136ea224fe,,,,,,,,,4234,46,-86,1,0,0,response3disk,,4,5,-8,1,0,0,rectangle,5,-8,1,0,0,5,-8,1,0,0,0,150,150,42,1,,,,,,,,
,,,,,,,,,,,,,FF,,,,,,,,1.25,,,,,,,,,,,,,,,,,,,,,,6102e71dcb976d58c1435272,61036daf11bc5a6b8b26468c,2021-07-29_20h13.43.817,Simcolourproject_2stim_asymm_v5,2020.2.10,Win32,60,61025ae37ef11b136ea224fe,,,,,,,,,922,116,40,1,0,0,response1disk,,6,12,-2,1,0,0,rectangle,12,-2,1,0,0,12,-2,1,0,0,0,151,151,101,1,,,,,,,,
,,,,,,,,,,,,,FF,,,,,,,,0.783,,,,,,,,,,,,,,,,,,,,,,6102e71dcb976d58c1435272,61036daf11bc5a6b8b26468c,2021-07-29_20h13.43.817,Simcolourproject_2stim_asymm_v5,2020.2.10,Win32,60,61025ae37ef11b136ea224fe,,,,,,,,,348,-83,-39,1,0,0,response5disk,,2,0,0,1,0,0,rectangle,0,0,1,0,0,0,0,1,0,0,0,152,152,132,1,,,,,,,,
,,,,,,,,,,,,,FF,,,,,,,,1.266,,,,,,,,,,,,,,,,,,,,,,6102e71dcb976d58c1435272,61036daf11bc5a6b8b26468c,2021-07-29_20h13.43.817,Simcolourproject_2stim_asymm_v5,2020.2.10,Win32,60,61025ae37ef11b136ea224fe,,,,,,,,,3976,-45,-76,1,0,0,response5disk,,3,-18,-1,1,0,0,rectangle,-18,-1,1,0,0,-18,-1,1,0,0,0,153,153,135,1,,,,,,,,
,,,,,,,,,,,,,FF,,,,,,,,1.099,,,,,,,,,,,,,,,,,,,,,,6102e71dcb976d58c1435272,61036daf11bc5a6b8b26468c,2021-07-29_20h13.43.817,Simcolourproject_2stim_asymm_v5,2020.2.10,Win32,60,61025ae37ef11b136ea224fe,,,,,,,,,3594,-31,-99,1,0,0,response5disk,,3,-2,-2,1,0,0,rectangle,-2,-2,1,0,0,-2,-2,1,0,0,0,154,154,145,1,,,,,,,,
,,,,,,,,,,,,,FF,,,,,,,,0.716,,,,,,,,,,,,,,,,,,,,,,6102e71dcb976d58c1435272,61036daf11bc5a6b8b26468c,2021-07-29_20h13.43.817,Simcolourproject_2stim_asymm_v5,2020.2.10,Win32,60,61025ae37ef11b136ea224fe,,,,,,,,,2996,-95,-36,1,0,0,response5disk,,2,-11,5,1,0,0,rectangle,-11,5,1,0,0,-11,5,1,0,0,0,155,155,54,1,,,,,,,,
,,,,,,,,,,,,,FF,,,,,,,,1.2,,,,,,,,,,,,,,,,,,,,,,6102e71dcb976d58c1435272,61036daf11bc5a6b8b26468c,2021-07-29_20h13.43.817,Simcolourproject_2stim_asymm_v5,2020.2.10,Win32,60,61025ae37ef11b136ea224fe,,,,,,,,,794,109,39,1,0,0,response1disk,,6,-33,-12,1,0,0,rectangle,-33,-12,1,0,0,-33,-12,1,0,0,0,156,156,129,1,,,,,,,,
,,,,,,,,,,,,,FF,,,,,,,,1.067,,,,,,,,,,,,,,,,,,,,,,6102e71dcb976d58c1435272,61036daf11bc5a6b8b26468c,2021-07-29_20h13.43.817,Simcolourproject_2stim_asymm_v5,2020.2.10,Win32,60,61025ae37ef11b136ea224fe,,,,,,,,,1700,32,89,1,0,0,response1disk,,7,-14,11,1,0,0,rectangle,-14,11,1,0,0,-14,11,1,0,0,0,157,157,23,1,,,,,,,,
,,,,,,,,,,,,,FF,,,,,,,,1.049,,,,,,,,,,,,,,,,,,,,,,6102e71dcb976d58c1435272,61036daf11bc5a6b8b26468c,2021-07-29_20h13.43.817,Simcolourproject_2stim_asymm_v5,2020.2.10,Win32,60,61025ae37ef11b136ea224fe,,,,,,,,,4053,-93,-38,1,0,0,response5disk,,2,-4,1,1,0,0,rectangle,-4,1,1,0,0,-4,1,1,0,0,0,158,158,138,1,,,,,,,,
,,,,,,,,,,,,,FF,,,,,,,,1.4,,,,,,,,,,,,,,,,,,,,,,6102e71dcb976d58c1435272,61036daf11bc5a6b8b26468c,2021-07-29_20h13.43.817,Simcolourproject_2stim_asymm_v5,2020.2.10,Win32,60,61025ae37ef11b136ea224fe,,,,,,,,,3459,131,41,1,0,0,response1disk,,6,35,13,1,0,0,rectangle,35,13,1,0,0,35,13,1,0,0,0,159,159,106,1,,,,,,,,
,,,,,,,,,,,,,FF,,,,,,,,1.134,,,,,,,,,,,,,,,,,,,,,,6102e71dcb976d58c1435272,61036daf11bc5a6b8b26468c,2021-07-29_20h13.43.817,Simcolourproject_2stim_asymm_v5,2020.2.10,Win32,60,61025ae37ef11b136ea224fe,,,,,,,,,4076,-69,-38,1,0,0,response5disk,,2,-2,4,1,0,0,rectangle,-2,4,1,0,0,-2,4,1,0,0,1,0,160,3,1,,,,,,,,
,,,,,,,,,,,,,FF,,,,,,,,2.45,,,,,,,,,,,,,,,,,,,,,,6102e71dcb976d58c1435272,61036daf11bc5a6b8b26468c,2021-07-29_20h13.43.817,Simcolourproject_2stim_asymm_v5,2020.2.10,Win32,60,61025ae37ef11b136ea224fe,,,,,,,,,2627,125,-64,1,0,0,response3disk,,5,7,5,1,0,0,rectangle,7,5,1,0,0,7,5,1,0,0,1,1,161,16,1,,,,,,,,
,,,,,,,,,,,,,FF,,,,,,,,1.366,,,,,,,,,,,,,,,,,,,,,,6102e71dcb976d58c1435272,61036daf11bc5a6b8b26468c,2021-07-29_20h13.43.817,Simcolourproject_2stim_asymm_v5,2020.2.10,Win32,60,61025ae37ef11b136ea224fe,,,,,,,,,2464,137,-38,1,0,0,response3disk,,5,8,3,1,0,0,rectangle,-124,-67,1,0,0,-8,-1,1,0,0,1,2,162,102,1,,response5disk_3,TRUE,2,2,"[194,163,297,32,168,44,140,55,178,218,69,315,268,318,260,114,195,80,242,73]",1.633,rectangle
,,,,,,,,,,,,,FF,,,,,,,,2,,,,,,,,,,,,,,,,,,,,,,6102e71dcb976d58c1435272,61036daf11bc5a6b8b26468c,2021-07-29_20h13.43.817,Simcolourproject_2stim_asymm_v5,2020.2.10,Win32,60,61025ae37ef11b136ea224fe,,,,,,,,,866,44,70,1,0,0,response1disk,,7,7,1,1,0,0,rectangle,7,1,1,0,0,7,1,1,0,0,1,3,163,40,1,,,,,,,,
,,,,,,,,,,,,,FF,,,,,,,,1.433,,,,,,,,,,,,,,,,,,,,,,6102e71dcb976d58c1435272,61036daf11bc5a6b8b26468c,2021-07-29_20h13.43.817,Simcolourproject_2stim_asymm_v5,2020.2.10,Win32,60,61025ae37ef11b136ea224fe,,,,,,,,,985,105,50,1,0,0,response1disk,,6,2,7,1,0,0,rectangle,2,7,1,0,0,2,7,1,0,0,1,4,164,58,1,,,,,,,,
,,,,,,,,,,,,,FF,,,,,,,,0.783,,,,,,,,,,,,,,,,,,,,,,6102e71dcb976d58c1435272,61036daf11bc5a6b8b26468c,2021-07-29_20h13.43.817,Simcolourproject_2stim_asymm_v5,2020.2.10,Win32,60,61025ae37ef11b136ea224fe,,,,,,,,,4295,-112,-38,1,0,0,response5disk,,2,16,11,1,0,0,rectangle,16,11,1,0,0,16,11,1,0,0,1,5,165,119,1,,,,,,,,
,,,,,,,,,,,,,FF,,,,,,,,0.766,,,,,,,,,,,,,,,,,,,,,,6102e71dcb976d58c1435272,61036daf11bc5a6b8b26468c,2021-07-29_20h13.43.817,Simcolourproject_2stim_asymm_v5,2020.2.10,Win32,60,61025ae37ef11b136ea224fe,,,,,,,,,3191,-113,38,1,0,0,response7disk,,1,-39,13,1,0,0,rectangle,-39,13,1,0,0,-39,13,1,0,0,1,6,166,8,1,,,,,,,,
,,,,,,,,,,,,,FF,,,,,,,,0.916,,,,,,,,,,,,,,,,,,,,,,6102e71dcb976d58c1435272,61036daf11bc5a6b8b26468c,2021-07-29_20h13.43.817,Simcolourproject_2stim_asymm_v5,2020.2.10,Win32,60,61025ae37ef11b136ea224fe,,,,,,,,,1892,-96,53,1,0,0,response7disk,,1,-3,10,1,0,0,rectangle,-104,-41,1,0,0,-7,-5,1,0,0,1,7,167,115,1,,response5disk_3,TRUE,2,2,"[194,163,297,32,168,44,140,55,178,218,69,315,268,318,260,114,195,80,242,73]",1.5,rectangle
,,,,,,,,,,,,,FF,,,,,,,,1.05,,,,,,,,,,,,,,,,,,,,,,6102e71dcb976d58c1435272,61036daf11bc5a6b8b26468c,2021-07-29_20h13.43.817,Simcolourproject_2stim_asymm_v5,2020.2.10,Win32,60,61025ae37ef11b136ea224fe,,,,,,,,,1339,36,69,1,0,0,response1disk,,7,-12,-3,1,0,0,rectangle,-12,-3,1,0,0,-12,-3,1,0,0,1,8,168,34,1,,,,,,,,
,,,,,,,,,,,,,FF,,,,,,,,1.55,,,,,,,,,,,,,,,,,,,,,,6102e71dcb976d58c1435272,61036daf11bc5a6b8b26468c,2021-07-29_20h13.43.817,Simcolourproject_2stim_asymm_v5,2020.2.10,Win32,60,61025ae37ef11b136ea224fe,,,,,,,,,777,136,-48,1,0,0,response3disk,,5,-3,-6,1,0,0,rectangle,-3,-6,1,0,0,-3,-6,1,0,0,1,9,169,23,1,,,,,,,,
,,,,,,,,,,,,,FF,,,,,,,,1.1,,,,,,,,,,,,,,,,,,,,,,6102e71dcb976d58c1435272,61036daf11bc5a6b8b26468c,2021-07-29_20h13.43.817,Simcolourproject_2stim_asymm_v5,2020.2.10,Win32,60,61025ae37ef11b136ea224fe,,,,,,,,,4128,-53,-98,1,0,0,response5disk,,3,-11,-8,1,0,0,rectangle,-11,-8,1,0,0,-11,-8,1,0,0,1,10,170,62,1,,,,,,,,
,,,,,,,,,,,,,FF,,,,,,,,0.933,,,,,,,,,,,,,,,,,,,,,,6102e71dcb976d58c1435272,61036daf11bc5a6b8b26468c,2021-07-29_20h13.43.817,Simcolourproject_2stim_asymm_v5,2020.2.10,Win32,60,61025ae37ef11b136ea224fe,,,,,,,,,375,49,-85,1,0,0,response3disk,,4,4,-3,1,0,0,rectangle,4,-3,1,0,0,4,-3,1,0,0,1,11,171,92,1,,,,,,,,
,,,,,,,,,,,,,FF,,,,,,,,1.567,,,,,,,,,,,,,,,,,,,,,,6102e71dcb976d58c1435272,61036daf11bc5a6b8b26468c,2021-07-29_20h13.43.817,Simcolourproject_2stim_asymm_v5,2020.2.10,Win32,60,61025ae37ef11b136ea224fe,,,,,,,,,3852,-45,-93,1,0,0,response5disk,,3,-19,-9,1,0,0,rectangle,-19,-9,1,0,0,-19,-9,1,0,0,1,12,172,105,1,,,,,,,,
,,,,,,,,,,,,,FF,,,,,,,,0.884,,,,,,,,,,,,,,,,,,,,,,6102e71dcb976d58c1435272,61036daf11bc5a6b8b26468c,2021-07-29_20h13.43.817,Simcolourproject_2stim_asymm_v5,2020.2.10,Win32,60,61025ae37ef11b136ea224fe,,,,,,,,,1945,45,-98,1,0,0,response3disk,,4,-1,-1,1,0,0,rectangle,-1,-1,1,0,0,-1,-1,1,0,0,1,13,173,150,1,,,,,,,,
,,,,,,,,,,,,,FF,,,,,,,,0.783,,,,,,,,,,,,,,,,,,,,,,6102e71dcb976d58c1435272,61036daf11bc5a6b8b26468c,2021-07-29_20h13.43.817,Simcolourproject_2stim_asymm_v5,2020.2.10,Win32,60,61025ae37ef11b136ea224fe,,,,,,,,,3272,43,76,1,0,0,response1disk,,7,9,-2,1,0,0,rectangle,9,-2,1,0,0,9,-2,1,0,0,1,14,174,142,1,,,,,,,,
,,,,,,,,,,,,,FF,,,,,,,,1.717,,,,,,,,,,,,,,,,,,,,,,6102e71dcb976d58c1435272,61036daf11bc5a6b8b26468c,2021-07-29_20h13.43.817,Simcolourproject_2stim_asymm_v5,2020.2.10,Win32,60,61025ae37ef11b136ea224fe,,,,,,,,,2035,-30,-108,1,0,0,response5disk,,3,-17,0,1,0,0,rectangle,-17,0,1,0,0,-17,0,1,0,0,1,15,175,124,1,,,,,,,,
,,,,,,,,,,,,,FF,,,,,,,,3.517,,,,,,,,,,,,,,,,,,,,,,6102e71dcb976d58c1435272,61036daf11bc5a6b8b26468c,2021-07-29_20h13.43.817,Simcolourproject_2stim_asymm_v5,2020.2.10,Win32,60,61025ae37ef11b136ea224fe,,,,,,,,,1282,138,31,1,0,0,response1disk,,6,33,-8,1,0,0,rectangle,33,-8,1,0,0,33,-8,1,0,0,1,16,176,17,1,,,,,,,,
,,,,,,,,,,,,,FF,,,,,,,,0.916,,,,,,,,,,,,,,,,,,,,,,6102e71dcb976d58c1435272,61036daf11bc5a6b8b26468c,2021-07-29_20h13.43.817,Simcolourproject_2stim_asymm_v5,2020.2.10,Win32,60,61025ae37ef11b136ea224fe,,,,,,,,,4123,-33,-91,1,0,0,response5disk,,3,18,3,1,0,0,rectangle,-53,92,1,0,0,-13,-6,1,0,0,1,17,177,37,1,,response7disk_3,TRUE,0,0,"[194,163,297,32,168,44,140,55,178,218,69,315,268,318,260,114,195,80,242,73]",1.599,rectangle
,,,,,,,,,,,,,FF,,,,,,,,1.466,,,,,,,,,,,,,,,,,,,,,,6102e71dcb976d58c1435272,61036daf11bc5a6b8b26468c,2021-07-29_20h13.43.817,Simcolourproject_2stim_asymm_v5,2020.2.10,Win32,60,61025ae37ef11b136ea224fe,,,,,,,,,872,105,-61,1,0,0,response3disk,,5,13,-14,1,0,0,rectangle,13,-14,1,0,0,13,-14,1,0,0,1,18,178,69,1,,,,,,,,
,,,,,,,,,,,,,FF,,,,,,,,1.416,,,,,,,,,,,,,,,,,,,,,,6102e71dcb976d58c1435272,61036daf11bc5a6b8b26468c,2021-07-29_20h13.43.817,Simcolourproject_2stim_asymm_v5,2020.2.10,Win32,60,61025ae37ef11b136ea224fe,,,,,,,,,2053,53,-87,1,0,0,response3disk,,4,-2,-6,1,0,0,rectangle,-2,-6,1,0,0,-2,-6,1,0,0,1,19,179,31,1,,,,,,,,
,,,,,,,,,,,,,FF,,,,,,,,1.7,,,,,,,,,,,,,,,,,,,,,,6102e71dcb976d58c1435272,61036daf11bc5a6b8b26468c,2021-07-29_20h13.43.817,Simcolourproject_2stim_asymm_v5,2020.2.10,Win32,60,61025ae37ef11b136ea224fe,,,,,,,,,3353,133,-35,1,0,0,response3disk,,5,22,-10,1,0,0,rectangle,22,-10,1,0,0,22,-10,1,0,0,1,20,180,20,1,,,,,,,,
,,,,,,,,,,,,,FF,,,,,,,,1.749,,,,,,,,,,,,,,,,,,,,,,6102e71dcb976d58c1435272,61036daf11bc5a6b8b26468c,2021-07-29_20h13.43.817,Simcolourproject_2stim_asymm_v5,2020.2.10,Win32,60,61025ae37ef11b136ea224fe,,,,,,,,,9,66,-77,1,0,0,response3disk,,4,18,-7,1,0,0,rectangle,18,-7,1,0,0,18,-7,1,0,0,1,21,181,57,1,,,,,,,,
,,,,,,,,,,,,,FF,,,,,,,,0.885,,,,,,,,,,,,,,,,,,,,,,6102e71dcb976d58c1435272,61036daf11bc5a6b8b26468c,2021-07-29_20h13.43.817,Simcolourproject_2stim_asymm_v5,2020.2.10,Win32,60,61025ae37ef11b136ea224fe,,,,,,,,,1005,113,52,1,0,0,response1disk,,6,15,13,1,0,0,rectangle,15,13,1,0,0,15,13,1,0,0,1,22,182,70,1,,,,,,,,
,,,,,,,,,,,,,FF,,,,,,,,1.117,,,,,,,,,,,,,,,,,,,,,,6102e71dcb976d58c1435272,61036daf11bc5a6b8b26468c,2021-07-29_20h13.43.817,Simcolourproject_2stim_asymm_v5,2020.2.10,Win32,60,61025ae37ef11b136ea224fe,,,,,,,,,553,101,-37,1,0,0,response3disk,,5,20,-10,1,0,0,rectangle,20,-10,1,0,0,20,-10,1,0,0,1,23,183,128,1,,,,,,,,
,,,,,,,,,,,,,FF,,,,,,,,1.734,,,,,,,,,,,,,,,,,,,,,,6102e71dcb976d58c1435272,61036daf11bc5a6b8b26468c,2021-07-29_20h13.43.817,Simcolourproject_2stim_asymm_v5,2020.2.10,Win32,60,61025ae37ef11b136ea224fe,,,,,,,,,523,107,-30,1,0,0,response3disk,,5,27,-4,1,0,0,rectangle,27,-4,1,0,0,27,-4,1,0,0,1,24,184,116,1,,,,,,,,
,,,,,,,,,,,,,FF,,,,,,,,0.833,,,,,,,,,,,,,,,,,,,,,,6102e71dcb976d58c1435272,61036daf11bc5a6b8b26468c,2021-07-29_20h13.43.817,Simcolourproject_2stim_asymm_v5,2020.2.10,Win32,60,61025ae37ef11b136ea224fe,,,,,,,,,3551,-43,72,1,0,0,response7disk,,0,-1,8,1,0,0,rectangle,-1,8,1,0,0,-1,8,1,0,0,1,25,185,66,1,,,,,,,,
,,,,,,,,,,,,,FF,,,,,,,,0.717,,,,,,,,,,,,,,,,,,,,,,6102e71dcb976d58c1435272,61036daf11bc5a6b8b26468c,2021-07-29_20h13.43.817,Simcolourproject_2stim_asymm_v5,2020.2.10,Win32,60,61025ae37ef11b136ea224fe,,,,,,,,,3675,-93,33,1,0,0,response7disk,,1,-16,6,1,0,0,rectangle,-16,6,1,0,0,-16,6,1,0,0,1,26,186,64,1,,,,,,,,
,,,,,,,,,,,,,FF,,,,,,,,1.283,,,,,,,,,,,,,,,,,,,,,,6102e71dcb976d58c1435272,61036daf11bc5a6b8b26468c,2021-07-29_20h13.43.817,Simcolourproject_2stim_asymm_v5,2020.2.10,Win32,60,61025ae37ef11b136ea224fe,,,,,,,,,4116,-34,-82,1,0,0,response5disk,,3,-20,-17,1,0,0,rectangle,-20,-17,1,0,0,-20,-17,1,0,0,1,27,187,110,1,,,,,,,,
,,,,,,,,,,,,,FF,,,,,,,,1.716,,,,,,,,,,,,,,,,,,,,,,6102e71dcb976d58c1435272,61036daf11bc5a6b8b26468c,2021-07-29_20h13.43.817,Simcolourproject_2stim_asymm_v5,2020.2.10,Win32,60,61025ae37ef11b136ea224fe,,,,,,,,,1911,54,-88,1,0,0,response3disk,,4,10,-9,1,0,0,rectangle,10,-9,1,0,0,10,-9,1,0,0,1,28,188,55,1,,,,,,,,
,,,,,,,,,,,,,FF,,,,,,,,1.249,,,,,,,,,,,,,,,,,,,,,,6102e71dcb976d58c1435272,61036daf11bc5a6b8b26468c,2021-07-29_20h13.43.817,Simcolourproject_2stim_asymm_v5,2020.2.10,Win32,60,61025ae37ef11b136ea224fe,,,,,,,,,4263,-33,-93,1,0,0,response5disk,,3,2,-1,1,0,0,rectangle,2,-1,1,0,0,2,-1,1,0,0,1,29,189,113,1,,,,,,,,
,,,,,,,,,,,,,FF,,,,,,,,2.016,,,,,,,,,,,,,,,,,,,,,,6102e71dcb976d58c1435272,61036daf11bc5a6b8b26468c,2021-07-29_20h13.43.817,Simcolourproject_2stim_asymm_v5,2020.2.10,Win32,60,61025ae37ef11b136ea224fe,,,,,,,,,1662,37,-99,1,0,0,response3disk,,4,1,0,1,0,0,rectangle,1,0,1,0,0,1,0,1,0,0,1,30,190,60,1,,,,,,,,
,,,,,,,,,,,,,FF,,,,,,,,1,,,,,,,,,,,,,,,,,,,,,,6102e71dcb976d58c1435272,61036daf11bc5a6b8b26468c,2021-07-29_20h13.43.817,Simcolourproject_2stim_asymm_v5,2020.2.10,Win32,60,61025ae37ef11b136ea224fe,,,,,,,,,1496,103,35,1,0,0,response1disk,,6,28,6,1,0,0,rectangle,28,6,1,0,0,28,6,1,0,0,1,31,191,143,1,,,,,,,,
,,,,,,,,,,,,,FF,,,,,,,,0.917,,,,,,,,,,,,,,,,,,,,,,6102e71dcb976d58c1435272,61036daf11bc5a6b8b26468c,2021-07-29_20h13.43.817,Simcolourproject_2stim_asymm_v5,2020.2.10,Win32,60,61025ae37ef11b136ea224fe,,,,,,,,,4283,-71,-41,1,0,0,response5disk,,2,10,11,1,0,0,rectangle,10,11,1,0,0,10,11,1,0,0,1,32,192,144,1,,,,,,,,
,,,,,,,,,,,,,FF,,,,,,,,0.749,,,,,,,,,,,,,,,,,,,,,,6102e71dcb976d58c1435272,61036daf11bc5a6b8b26468c,2021-07-29_20h13.43.817,Simcolourproject_2stim_asymm_v5,2020.2.10,Win32,60,61025ae37ef11b136ea224fe,,,,,,,,,637,-91,49,1,0,0,response7disk,,1,-15,19,1,0,0,rectangle,-32,99,1,0,0,1,-7,1,0,0,1,33,193,12,1,,response7disk_3,TRUE,0,0,"[194,163,297,32,168,44,140,55,178,218,69,315,268,318,260,114,195,80,242,73]",1.166,rectangle
,,,,,,,,,,,,,FF,,,,,,,,0.849,,,,,,,,,,,,,,,,,,,,,,6102e71dcb976d58c1435272,61036daf11bc5a6b8b26468c,2021-07-29_20h13.43.817,Simcolourproject_2stim_asymm_v5,2020.2.10,Win32,60,61025ae37ef11b136ea224fe,,,,,,,,,891,-102,29,1,0,0,response7disk,,1,-8,-8,1,0,0,rectangle,-88,-59,1,0,0,-30,-8,1,0,0,1,34,194,56,1,,response5disk_3,TRUE,2,2,"[194,163,297,32,168,44,140,55,178,218,69,315,268,318,260,114,195,80,242,73]",1.783,rectangle
,,,,,,,,,,,,,FF,,,,,,,,1.75,,,,,,,,,,,,,,,,,,,,,,6102e71dcb976d58c1435272,61036daf11bc5a6b8b26468c,2021-07-29_20h13.43.817,Simcolourproject_2stim_asymm_v5,2020.2.10,Win32,60,61025ae37ef11b136ea224fe,,,,,,,,,2299,-138,65,1,0,0,response7disk,,1,-2,6,1,0,0,rectangle,-2,6,1,0,0,-2,6,1,0,0,1,35,195,79,1,,,,,,,,
,,,,,,,,,,,,,FF,,,,,,,,1.567,,,,,,,,,,,,,,,,,,,,,,6102e71dcb976d58c1435272,61036daf11bc5a6b8b26468c,2021-07-29_20h13.43.817,Simcolourproject_2stim_asymm_v5,2020.2.10,Win32,60,61025ae37ef11b136ea224fe,,,,,,,,,3299,40,-108,1,0,0,response3disk,,4,-3,-1,1,0,0,rectangle,-3,-1,1,0,0,-3,-1,1,0,0,1,36,196,89,1,,,,,,,,
,,,,,,,,,,,,,FF,,,,,,,,2.25,,,,,,,,,,,,,,,,,,,,,,6102e71dcb976d58c1435272,61036daf11bc5a6b8b26468c,2021-07-29_20h13.43.817,Simcolourproject_2stim_asymm_v5,2020.2.10,Win32,60,61025ae37ef11b136ea224fe,,,,,,,,,2649,63,-109,1,0,0,response3disk,,4,1,-5,1,0,0,rectangle,1,-5,1,0,0,1,-5,1,0,0,1,37,197,87,1,,,,,,,,
,,,,,,,,,,,,,FF,,,,,,,,1.517,,,,,,,,,,,,,,,,,,,,,,6102e71dcb976d58c1435272,61036daf11bc5a6b8b26468c,2021-07-29_20h13.43.817,Simcolourproject_2stim_asymm_v5,2020.2.10,Win32,60,61025ae37ef11b136ea224fe,,,,,,,,,294,144,-47,1,0,0,response3disk,,5,-15,-2,1,0,0,rectangle,-15,-2,1,0,0,-15,-2,1,0,0,1,38,198,6,1,,,,,,,,
,,,,,,,,,,,,,FF,,,,,,,,1.366,,,,,,,,,,,,,,,,,,,,,,6102e71dcb976d58c1435272,61036daf11bc5a6b8b26468c,2021-07-29_20h13.43.817,Simcolourproject_2stim_asymm_v5,2020.2.10,Win32,60,61025ae37ef11b136ea224fe,,,,,,,,,2335,135,38,1,0,0,response1disk,,6,7,6,1,0,0,rectangle,7,6,1,0,0,7,6,1,0,0,1,39,199,95,1,,,,,,,,
,,,,,,,,,,,,,FF,,,,,,,,0.9,,,,,,,,,,,,,,,,,,,,,,6102e71dcb976d58c1435272,61036daf11bc5a6b8b26468c,2021-07-29_20h13.43.817,Simcolourproject_2stim_asymm_v5,2020.2.10,Win32,60,61025ae37ef11b136ea224fe,,,,,,,,,418,132,52,1,0,0,response1disk,,6,24,-2,1,0,0,rectangle,24,-2,1,0,0,24,-2,1,0,0,1,40,200,19,1,,,,,,,,
,,,,,,,,,,,,,FF,,,,,,,,1.117,,,,,,,,,,,,,,,,,,,,,,6102e71dcb976d58c1435272,61036daf11bc5a6b8b26468c,2021-07-29_20h13.43.817,Simcolourproject_2stim_asymm_v5,2020.2.10,Win32,60,61025ae37ef11b136ea224fe,,,,,,,,,2036,-34,-119,1,0,0,response5disk,,3,-3,1,1,0,0,rectangle,-3,1,1,0,0,-3,1,1,0,0,1,41,201,112,1,,,,,,,,
,,,,,,,,,,,,,FF,,,,,,,,1.75,,,,,,,,,,,,,,,,,,,,,,6102e71dcb976d58c1435272,61036daf11bc5a6b8b26468c,2021-07-29_20h13.43.817,Simcolourproject_2stim_asymm_v5,2020.2.10,Win32,60,61025ae37ef11b136ea224fe,,,,,,,,,1126,58,82,1,0,0,response1disk,,7,6,4,1,0,0,rectangle,6,4,1,0,0,6,4,1,0,0,1,42,202,139,1,,,,,,,,
,,,,,,,,,,,,,FF,,,,,,,,1,,,,,,,,,,,,,,,,,,,,,,6102e71dcb976d58c1435272,61036daf11bc5a6b8b26468c,2021-07-29_20h13.43.817,Simcolourproject_2stim_asymm_v5,2020.2.10,Win32,60,61025ae37ef11b136ea224fe,,,,,,,,,172,-96,-44,1,0,0,response5disk,,2,4,20,1,0,0,rectangle,4,20,1,0,0,4,20,1,0,0,1,43,203,108,1,,,,,,,,
,,,,,,,,,,,,,FF,,,,,,,,0.934,,,,,,,,,,,,,,,,,,,,,,6102e71dcb976d58c1435272,61036daf11bc5a6b8b26468c,2021-07-29_20h13.43.817,Simcolourproject_2stim_asymm_v5,2020.2.10,Win32,60,61025ae37ef11b136ea224fe,,,,,,,,,1415,56,-79,1,0,0,response3disk,,4,0,20,1,0,0,rectangle,0,20,1,0,0,0,20,1,0,0,1,44,204,141,1,,,,,,,,
,,,,,,,,,,,,,FF,,,,,,,,2,,,,,,,,,,,,,,,,,,,,,,6102e71dcb976d58c1435272,61036daf11bc5a6b8b26468c,2021-07-29_20h13.43.817,Simcolourproject_2stim_asymm_v5,2020.2.10,Win32,60,61025ae37ef11b136ea224fe,,,,,,,,,2346,102,-46,1,0,0,response3disk,,5,31,1,1,0,0,rectangle,31,1,1,0,0,31,1,1,0,0,1,45,205,54,1,,,,,,,,
,,,,,,,,,,,,,FF,,,,,,,,0.917,,,,,,,,,,,,,,,,,,,,,,6102e71dcb976d58c1435272,61036daf11bc5a6b8b26468c,2021-07-29_20h13.43.817,Simcolourproject_2stim_asymm_v5,2020.2.10,Win32,60,61025ae37ef11b136ea224fe,,,,,,,,,4352,-110,-51,1,0,0,response5disk,,2,-38,-11,1,0,0,rectangle,-38,-11,1,0,0,-38,-11,1,0,0,1,46,206,45,1,,,,,,,,
,,,,,,,,,,,,,FF,,,,,,,,1.934,,,,,,,,,,,,,,,,,,,,,,6102e71dcb976d58c1435272,61036daf11bc5a6b8b26468c,2021-07-29_20h13.43.817,Simcolourproject_2stim_asymm_v5,2020.2.10,Win32,60,61025ae37ef11b136ea224fe,,,,,,,,,3916,-32,-112,1,0,0,response5disk,,3,-1,-2,1,0,0,rectangle,-1,-2,1,0,0,-1,-2,1,0,0,1,47,207,53,1,,,,,,,,
,,,,,,,,,,,,,FF,,,,,,,,1.067,,,,,,,,,,,,,,,,,,,,,,6102e71dcb976d58c1435272,61036daf11bc5a6b8b26468c,2021-07-29_20h13.43.817,Simcolourproject_2stim_asymm_v5,2020.2.10,Win32,60,61025ae37ef11b136ea224fe,,,,,,,,,697,82,36,1,0,0,response1disk,,6,-13,-15,1,0,0,rectangle,-13,-15,1,0,0,-13,-15,1,0,0,1,48,208,104,1,,,,,,,,
,,,,,,,,,,,,,FF,,,,,,,,1.583,,,,,,,,,,,,,,,,,,,,,,6102e71dcb976d58c1435272,61036daf11bc5a6b8b26468c,2021-07-29_20h13.43.817,Simcolourproject_2stim_asymm_v5,2020.2.10,Win32,60,61025ae37ef11b136ea224fe,,,,,,,,,2906,157,-55,1,0,0,response3disk,,5,19,3,1,0,0,rectangle,19,3,1,0,0,19,3,1,0,0,1,49,209,127,1,,,,,,,,
,,,,,,,,,,,,,FF,,,,,,,,1.049,,,,,,,,,,,,,,,,,,,,,,6102e71dcb976d58c1435272,61036daf11bc5a6b8b26468c,2021-07-29_20h13.43.817,Simcolourproject_2stim_asymm_v5,2020.2.10,Win32,60,61025ae37ef11b136ea224fe,,,,,,,,,2132,103,50,1,0,0,response1disk,,6,9,15,1,0,0,rectangle,9,15,1,0,0,9,15,1,0,0,1,50,210,154,1,,,,,,,,
,,,,,,,,,,,,,FF,,,,,,,,1.817,,,,,,,,,,,,,,,,,,,,,,6102e71dcb976d58c1435272,61036daf11bc5a6b8b26468c,2021-07-29_20h13.43.817,Simcolourproject_2stim_asymm_v5,2020.2.10,Win32,60,61025ae37ef11b136ea224fe,,,,,,,,,3930,123,34,1,0,0,response1disk,,6,20,0,1,0,0,rectangle,20,0,1,0,0,20,0,1,0,0,1,51,211,42,1,,,,,,,,
,,,,,,,,,,,,,FF,,,,,,,,0.85,,,,,,,,,,,,,,,,,,,,,,6102e71dcb976d58c1435272,61036daf11bc5a6b8b26468c,2021-07-29_20h13.43.817,Simcolourproject_2stim_asymm_v5,2020.2.10,Win32,60,61025ae37ef11b136ea224fe,,,,,,,,,408,64,77,1,0,0,response1disk,,7,6,-9,1,0,0,rectangle,6,-9,1,0,0,6,-9,1,0,0,1,52,212,84,1,,,,,,,,
,,,,,,,,,,,,,FF,,,,,,,,1.116,,,,,,,,,,,,,,,,,,,,,,6102e71dcb976d58c1435272,61036daf11bc5a6b8b26468c,2021-07-29_20h13.43.817,Simcolourproject_2stim_asymm_v5,2020.2.10,Win32,60,61025ae37ef11b136ea224fe,,,,,,,,,154,32,51,1,0,0,response1disk,,7,9,-3,1,0,0,rectangle,9,-3,1,0,0,9,-3,1,0,0,1,53,213,24,1,,,,,,,,
,,,,,,,,,,,,,FF,,,,,,,,1.25,,,,,,,,,,,,,,,,,,,,,,6102e71dcb976d58c1435272,61036daf11bc5a6b8b26468c,2021-07-29_20h13.43.817,Simcolourproject_2stim_asymm_v5,2020.2.10,Win32,60,61025ae37ef11b136ea224fe,,,,,,,,,1908,97,-47,1,0,0,response3disk,,5,-2,4,1,0,0,rectangle,-2,4,1,0,0,-2,4,1,0,0,1,54,214,65,1,,,,,,,,
,,,,,,,,,,,,,FF,,,,,,,,1.216,,,,,,,,,,,,,,,,,,,,,,6102e71dcb976d58c1435272,61036daf11bc5a6b8b26468c,2021-07-29_20h13.43.817,Simcolourproject_2stim_asymm_v5,2020.2.10,Win32,60,61025ae37ef11b136ea224fe,,,,,,,,,529,-42,-92,1,0,0,response5disk,,3,-1,-4,1,0,0,rectangle,-1,-4,1,0,0,-1,-4,1,0,0,1,55,215,94,1,,,,,,,,
,,,,,,,,,,,,,FF,,,,,,,,1.067,,,,,,,,,,,,,,,,,,,,,,6102e71dcb976d58c1435272,61036daf11bc5a6b8b26468c,2021-07-29_20h13.43.817,Simcolourproject_2stim_asymm_v5,2020.2.10,Win32,60,61025ae37ef11b136ea224fe,,,,,,,,,1065,-59,-99,1,0,0,response5disk,,3,-9,1,1,0,0,rectangle,-9,1,1,0,0,-9,1,1,0,0,1,56,216,18,1,,,,,,,,
,,,,,,,,,,,,,FF,,,,,,,,1.167,,,,,,,,,,,,,,,,,,,,,,6102e71dcb976d58c1435272,61036daf11bc5a6b8b26468c,2021-07-29_20h13.43.817,Simcolourproject_2stim_asymm_v5,2020.2.10,Win32,60,61025ae37ef11b136ea224fe,,,,,,,,,3350,39,-68,1,0,0,response3disk,,4,7,-1,1,0,0,rectangle,-37,-92,1,0,0,-12,-12,1,0,0,1,57,217,107,1,,response5disk_3,TRUE,3,3,"[194,163,297,32,168,44,140,55,178,218,69,315,268,318,260,114,195,80,242,73]",1.717,rectangle
,,,,,,,,,,,,,FF,,,,,,,,1.716,,,,,,,,,,,,,,,,,,,,,,6102e71dcb976d58c1435272,61036daf11bc5a6b8b26468c,2021-07-29_20h13.43.817,Simcolourproject_2stim_asymm_v5,2020.2.10,Win32,60,61025ae37ef11b136ea224fe,,,,,,,,,2379,39,-70,1,0,0,response3disk,,4,-8,6,1,0,0,rectangle,-8,6,1,0,0,-8,6,1,0,0,1,58,218,30,1,,,,,,,,
,,,,,,,,,,,,,FF,,,,,,,,0.8,,,,,,,,,,,,,,,,,,,,,,6102e71dcb976d58c1435272,61036daf11bc5a6b8b26468c,2021-07-29_20h13.43.817,Simcolourproject_2stim_asymm_v5,2020.2.10,Win32,60,61025ae37ef11b136ea224fe,,,,,,,,,3427,-71,38,1,0,0,response7disk,,1,-25,15,1,0,0,rectangle,-25,15,1,0,0,-25,15,1,0,0,1,59,219,68,1,,,,,,,,
,,,,,,,,,,,,,FF,,,,,,,,1.867,,,,,,,,,,,,,,,,,,,,,,6102e71dcb976d58c1435272,61036daf11bc5a6b8b26468c,2021-07-29_20h13.43.817,Simcolourproject_2stim_asymm_v5,2020.2.10,Win32,60,61025ae37ef11b136ea224fe,,,,,,,,,2042,52,-88,1,0,0,response3disk,,4,7,-6,1,0,0,rectangle,7,-6,1,0,0,7,-6,1,0,0,1,60,220,88,1,,,,,,,,
,,,,,,,,,,,,,FF,,,,,,,,1.534,,,,,,,,,,,,,,,,,,,,,,6102e71dcb976d58c1435272,61036daf11bc5a6b8b26468c,2021-07-29_20h13.43.817,Simcolourproject_2stim_asymm_v5,2020.2.10,Win32,60,61025ae37ef11b136ea224fe,,,,,,,,,1485,59,-85,1,0,0,response3disk,,4,5,4,1,0,0,rectangle,5,4,1,0,0,5,4,1,0,0,1,61,221,81,1,,,,,,,,
,,,,,,,,,,,,,FF,,,,,,,,1.051,,,,,,,,,,,,,,,,,,,,,,6102e71dcb976d58c1435272,61036daf11bc5a6b8b26468c,2021-07-29_20h13.43.817,Simcolourproject_2stim_asymm_v5,2020.2.10,Win32,60,61025ae37ef11b136ea224fe,,,,,,,,,1650,53,-90,1,0,0,response3disk,,4,3,-4,1,0,0,rectangle,3,-4,1,0,0,3,-4,1,0,0,1,62,222,158,1,,,,,,,,
,,,,,,,,,,,,,FF,,,,,,,,0.884,,,,,,,,,,,,,,,,,,,,,,6102e71dcb976d58c1435272,61036daf11bc5a6b8b26468c,2021-07-29_20h13.43.817,Simcolourproject_2stim_asymm_v5,2020.2.10,Win32,60,61025ae37ef11b136ea224fe,,,,,,,,,2301,-38,-87,1,0,0,response5disk,,3,-11,-5,1,0,0,rectangle,-11,-5,1,0,0,-11,-5,1,0,0,1,63,223,159,1,,,,,,,,
,,,,,,,,,,,,,FF,,,,,,,,0.9,,,,,,,,,,,,,,,,,,,,,,6102e71dcb976d58c1435272,61036daf11bc5a6b8b26468c,2021-07-29_20h13.43.817,Simcolourproject_2stim_asymm_v5,2020.2.10,Win32,60,61025ae37ef11b136ea224fe,,,,,,,,,806,-90,-52,1,0,0,response5disk,,2,-4,-5,1,0,0,rectangle,-4,-5,1,0,0,-4,-5,1,0,0,1,64,224,145,1,,,,,,,,
,,,,,,,,,,,,,FF,,,,,,,,1.35,,,,,,,,,,,,,,,,,,,,,,6102e71dcb976d58c1435272,61036daf11bc5a6b8b26468c,2021-07-29_20h13.43.817,Simcolourproject_2stim_asymm_v5,2020.2.10,Win32,60,61025ae37ef11b136ea224fe,,,,,,,,,938,69,-31,1,0,0,response3disk,,5,-1,-4,1,0,0,rectangle,-1,-4,1,0,0,-1,-4,1,0,0,1,65,225,78,1,,,,,,,,
,,,,,,,,,,,,,FF,,,,,,,,2.234,,,,,,,,,,,,,,,,,,,,,,6102e71dcb976d58c1435272,61036daf11bc5a6b8b26468c,2021-07-29_20h13.43.817,Simcolourproject_2stim_asymm_v5,2020.2.10,Win32,60,61025ae37ef11b136ea224fe,,,,,,,,,2110,132,-45,1,0,0,response3disk,,5,1,-5,1,0,0,rectangle,1,-5,1,0,0,1,-5,1,0,0,1,66,226,43,1,,,,,,,,
,,,,,,,,,,,,,FF,,,,,,,,1.8,,,,,,,,,,,,,,,,,,,,,,6102e71dcb976d58c1435272,61036daf11bc5a6b8b26468c,2021-07-29_20h13.43.817,Simcolourproject_2stim_asymm_v5,2020.2.10,Win32,60,61025ae37ef11b136ea224fe,,,,,,,,,827,89,42,1,0,0,response1disk,,6,1,7,1,0,0,rectangle,1,7,1,0,0,1,7,1,0,0,1,67,227,1,1,,,,,,,,
,,,,,,,,,,,,,FF,,,,,,,,1.3,,,,,,,,,,,,,,,,,,,,,,6102e71dcb976d58c1435272,61036daf11bc5a6b8b26468c,2021-07-29_20h13.43.817,Simcolourproject_2stim_asymm_v5,2020.2.10,Win32,60,61025ae37ef11b136ea224fe,,,,,,,,,3616,104,52,1,0,0,response1disk,,6,17,7,1,0,0,rectangle,17,7,1,0,0,17,7,1,0,0,1,68,228,52,1,,,,,,,,
,,,,,,,,,,,,,FF,,,,,,,,1.5,,,,,,,,,,,,,,,,,,,,,,6102e71dcb976d58c1435272,61036daf11bc5a6b8b26468c,2021-07-29_20h13.43.817,Simcolourproject_2stim_asymm_v5,2020.2.10,Win32,60,61025ae37ef11b136ea224fe,,,,,,,,,2700,57,72,1,0,0,response1disk,,7,29,-3,1,0,0,rectangle,29,-3,1,0,0,29,-3,1,0,0,1,69,229,146,1,,,,,,,,
,,,,,,,,,,,,,FF,,,,,,,,0.983,,,,,,,,,,,,,,,,,,,,,,6102e71dcb976d58c1435272,61036daf11bc5a6b8b26468c,2021-07-29_20h13.43.817,Simcolourproject_2stim_asymm_v5,2020.2.10,Win32,60,61025ae37ef11b136ea224fe,,,,,,,,,485,41,67,1,0,0,response1disk,,7,-11,8,1,0,0,rectangle,-11,8,1,0,0,-11,8,1,0,0,1,70,230,9,1,,,,,,,,
,,,,,,,,,,,,,FF,,,,,,,,1.35,,,,,,,,,,,,,,,,,,,,,,6102e71dcb976d58c1435272,61036daf11bc5a6b8b26468c,2021-07-29_20h13.43.817,Simcolourproject_2stim_asymm_v5,2020.2.10,Win32,60,61025ae37ef11b136ea224fe,,,,,,,,,991,98,-49,1,0,0,response3disk,,5,28,-13,1,0,0,rectangle,28,-13,1,0,0,28,-13,1,0,0,1,71,231,125,1,,,,,,,,
,,,,,,,,,,,,,FF,,,,,,,,1.75,,,,,,,,,,,,,,,,,,,,,,6102e71dcb976d58c1435272,61036daf11bc5a6b8b26468c,2021-07-29_20h13.43.817,Simcolourproject_2stim_asymm_v5,2020.2.10,Win32,60,61025ae37ef11b136ea224fe,,,,,,,,,4058,103,-44,1,0,0,response3disk,,5,12,-4,1,0,0,rectangle,12,-4,1,0,0,12,-4,1,0,0,1,72,232,118,1,,,,,,,,
,,,,,,,,,,,,,FF,,,,,,,,1.283,,,,,,,,,,,,,,,,,,,,,,6102e71dcb976d58c1435272,61036daf11bc5a6b8b26468c,2021-07-29_20h13.43.817,Simcolourproject_2stim_asymm_v5,2020.2.10,Win32,60,61025ae37ef11b136ea224fe,,,,,,,,,1463,45,-82,1,0,0,response3disk,,4,2,-11,1,0,0,rectangle,2,-11,1,0,0,2,-11,1,0,0,1,73,233,90,1,,,,,,,,
,,,,,,,,,,,,,FF,,,,,,,,1.234,,,,,,,,,,,,,,,,,,,,,,6102e71dcb976d58c1435272,61036daf11bc5a6b8b26468c,2021-07-29_20h13.43.817,Simcolourproject_2stim_asymm_v5,2020.2.10,Win32,60,61025ae37ef11b136ea224fe,,,,,,,,,968,-44,84,1,0,0,response7disk,,0,-13,20,1,0,0,rectangle,-13,20,1,0,0,-13,20,1,0,0,1,74,234,155,1,,,,,,,,
,,,,,,,,,,,,,FF,,,,,,,,1.717,,,,,,,,,,,,,,,,,,,,,,6102e71dcb976d58c1435272,61036daf11bc5a6b8b26468c,2021-07-29_20h13.43.817,Simcolourproject_2stim_asymm_v5,2020.2.10,Win32,60,61025ae37ef11b136ea224fe,,,,,,,,,141,37,-98,1,0,0,response3disk,,4,-11,13,1,0,0,rectangle,-11,13,1,0,0,-11,13,1,0,0,1,75,235,32,1,,,,,,,,
,,,,,,,,,,,,,FF,,,,,,,,0.95,,,,,,,,,,,,,,,,,,,,,,6102e71dcb976d58c1435272,61036daf11bc5a6b8b26468c,2021-07-29_20h13.43.817,Simcolourproject_2stim_asymm_v5,2020.2.10,Win32,60,61025ae37ef11b136ea224fe,,,,,,,,,1521,-108,52,1,0,0,response7disk,,1,7,6,1,0,0,rectangle,7,6,1,0,0,7,6,1,0,0,1,76,236,132,1,,,,,,,,
,,,,,,,,,,,,,FF,,,,,,,,1.783,,,,,,,,,,,,,,,,,,,,,,6102e71dcb976d58c1435272,61036daf11bc5a6b8b26468c,2021-07-29_20h13.43.817,Simcolourproject_2stim_asymm_v5,2020.2.10,Win32,60,61025ae37ef11b136ea224fe,,,,,,,,,1426,-48,-85,1,0,0,response5disk,,3,-2,-12,1,0,0,rectangle,-2,-12,1,0,0,-2,-12,1,0,0,1,77,237,48,1,,,,,,,,
,,,,,,,,,,,,,FF,,,,,,,,0.967,,,,,,,,,,,,,,,,,,,,,,6102e71dcb976d58c1435272,61036daf11bc5a6b8b26468c,2021-07-29_20h13.43.817,Simcolourproject_2stim_asymm_v5,2020.2.10,Win32,60,61025ae37ef11b136ea224fe,,,,,,,,,4024,-96,-54,1,0,0,response5disk,,2,11,-9,1,0,0,rectangle,11,-9,1,0,0,11,-9,1,0,0,1,78,238,148,1,,,,,,,,
,,,,,,,,,,,,,FF,,,,,,,,1.167,,,,,,,,,,,,,,,,,,,,,,6102e71dcb976d58c1435272,61036daf11bc5a6b8b26468c,2021-07-29_20h13.43.817,Simcolourproject_2stim_asymm_v5,2020.2.10,Win32,60,61025ae37ef11b136ea224fe,,,,,,,,,3070,144,42,1,0,0,response1disk,,6,11,-8,1,0,0,rectangle,11,-8,1,0,0,11,-8,1,0,0,1,79,239,156,1,,,,,,,,
,,,,,,,,,,,,,FF,,,,,,,,0.883,,,,,,,,,,,,,,,,,,,,,,6102e71dcb976d58c1435272,61036daf11bc5a6b8b26468c,2021-07-29_20h13.43.817,Simcolourproject_2stim_asymm_v5,2020.2.10,Win32,60,61025ae37ef11b136ea224fe,,,,,,,,,2590,99,-56,1,0,0,response3disk,,5,22,-14,1,0,0,rectangle,22,-14,1,0,0,22,-14,1,0,0,1,80,240,67,1,,,,,,,,
,,,,,,,,,,,,,FF,,,,,,,,2.033,,,,,,,,,,,,,,,,,,,,,,6102e71dcb976d58c1435272,61036daf11bc5a6b8b26468c,2021-07-29_20h13.43.817,Simcolourproject_2stim_asymm_v5,2020.2.10,Win32,60,61025ae37ef11b136ea224fe,,,,,,,,,2978,112,48,1,0,0,response1disk,,6,9,-2,1,0,0,rectangle,62,-120,1,0,0,-2,0,1,0,0,1,81,241,91,1,,response3disk_3,TRUE,4,4,"[194,163,297,32,168,44,140,55,178,218,69,315,268,318,260,114,195,80,242,73]",1.579,rectangle
,,,,,,,,,,,,,FF,,,,,,,,1.016,,,,,,,,,,,,,,,,,,,,,,6102e71dcb976d58c1435272,61036daf11bc5a6b8b26468c,2021-07-29_20h13.43.817,Simcolourproject_2stim_asymm_v5,2020.2.10,Win32,60,61025ae37ef11b136ea224fe,,,,,,,,,716,-116,56,1,0,0,response7disk,,1,-35,19,1,0,0,rectangle,-35,19,1,0,0,-35,19,1,0,0,1,82,242,137,1,,,,,,,,
,,,,,,,,,,,,,FF,,,,,,,,1.251,,,,,,,,,,,,,,,,,,,,,,6102e71dcb976d58c1435272,61036daf11bc5a6b8b26468c,2021-07-29_20h13.43.817,Simcolourproject_2stim_asymm_v5,2020.2.10,Win32,60,61025ae37ef11b136ea224fe,,,,,,,,,1836,89,-51,1,0,0,response3disk,,5,-15,11,1,0,0,rectangle,-15,11,1,0,0,-15,11,1,0,0,1,83,243,71,1,,,,,,,,
,,,,,,,,,,,,,FF,,,,,,,,1.75,,,,,,,,,,,,,,,,,,,,,,6102e71dcb976d58c1435272,61036daf11bc5a6b8b26468c,2021-07-29_20h13.43.817,Simcolourproject_2stim_asymm_v5,2020.2.10,Win32,60,61025ae37ef11b136ea224fe,,,,,,,,,3094,39,-116,1,0,0,response3disk,,4,-29,5,1,0,0,rectangle,-29,5,1,0,0,-29,5,1,0,0,1,84,244,133,1,,,,,,,,
,,,,,,,,,,,,,FF,,,,,,,,1.25,,,,,,,,,,,,,,,,,,,,,,6102e71dcb976d58c1435272,61036daf11bc5a6b8b26468c,2021-07-29_20h13.43.817,Simcolourproject_2stim_asymm_v5,2020.2.10,Win32,60,61025ae37ef11b136ea224fe,,,,,,,,,3801,111,39,1,0,0,response1disk,,6,3,-7,1,0,0,rectangle,3,-7,1,0,0,3,-7,1,0,0,1,85,245,126,1,,,,,,,,
,,,,,,,,,,,,,FF,,,,,,,,1.067,,,,,,,,,,,,,,,,,,,,,,6102e71dcb976d58c1435272,61036daf11bc5a6b8b26468c,2021-07-29_20h13.43.817,Simcolourproject_2stim_asymm_v5,2020.2.10,Win32,60,61025ae37ef11b136ea224fe,,,,,,,,,1689,62,-98,1,0,0,response3disk,,4,-5,9,1,0,0,rectangle,-5,9,1,0,0,-5,9,1,0,0,1,86,246,35,1,,,,,,,,
,,,,,,,,,,,,,FF,,,,,,,,2.234,,,,,,,,,,,,,,,,,,,,,,6102e71dcb976d58c1435272,61036daf11bc5a6b8b26468c,2021-07-29_20h13.43.817,Simcolourproject_2stim_asymm_v5,2020.2.10,Win32,60,61025ae37ef11b136ea224fe,,,,,,,,,3666,112,36,1,0,0,response1disk,,6,4,-12,1,0,0,rectangle,4,-12,1,0,0,4,-12,1,0,0,1,87,247,134,1,,,,,,,,
,,,,,,,,,,,,,FF,,,,,,,,1.068,,,,,,,,,,,,,,,,,,,,,,6102e71dcb976d58c1435272,61036daf11bc5a6b8b26468c,2021-07-29_20h13.43.817,Simcolourproject_2stim_asymm_v5,2020.2.10,Win32,60,61025ae37ef11b136ea224fe,,,,,,,,,892,138,-58,1,0,0,response3disk,,5,-2,8,1,0,0,rectangle,-2,8,1,0,0,-2,8,1,0,0,1,88,248,51,1,,,,,,,,
,,,,,,,,,,,,,FF,,,,,,,,1.833,,,,,,,,,,,,,,,,,,,,,,6102e71dcb976d58c1435272,61036daf11bc5a6b8b26468c,2021-07-29_20h13.43.817,Simcolourproject_2stim_asymm_v5,2020.2.10,Win32,60,61025ae37ef11b136ea224fe,,,,,,,,,992,-31,-111,1,0,0,response5disk,,3,-11,-1,1,0,0,rectangle,-11,-1,1,0,0,-11,-1,1,0,0,1,89,249,97,1,,,,,,,,
,,,,,,,,,,,,,FF,,,,,,,,0.933,,,,,,,,,,,,,,,,,,,,,,6102e71dcb976d58c1435272,61036daf11bc5a6b8b26468c,2021-07-29_20h13.43.817,Simcolourproject_2stim_asymm_v5,2020.2.10,Win32,60,61025ae37ef11b136ea224fe,,,,,,,,,1748,-32,-93,1,0,0,response5disk,,3,17,15,1,0,0,rectangle,17,15,1,0,0,17,15,1,0,0,1,90,250,149,1,,,,,,,,
,,,,,,,,,,,,,FF,,,,,,,,1.034,,,,,,,,,,,,,,,,,,,,,,6102e71dcb976d58c1435272,61036daf11bc5a6b8b26468c,2021-07-29_20h13.43.817,Simcolourproject_2stim_asymm_v5,2020.2.10,Win32,60,61025ae37ef11b136ea224fe,,,,,,,,,3451,110,-50,1,0,0,response3disk,,5,12,6,1,0,0,rectangle,12,6,1,0,0,12,6,1,0,0,1,91,251,44,1,,,,,,,,
,,,,,,,,,,,,,FF,,,,,,,,1.016,,,,,,,,,,,,,,,,,,,,,,6102e71dcb976d58c1435272,61036daf11bc5a6b8b26468c,2021-07-29_20h13.43.817,Simcolourproject_2stim_asymm_v5,2020.2.10,Win32,60,61025ae37ef11b136ea224fe,,,,,,,,,4350,-43,94,1,0,0,response7disk,,0,35,-1,1,0,0,rectangle,35,-1,1,0,0,35,-1,1,0,0,1,92,252,38,1,,,,,,,,
,,,,,,,,,,,,,FF,,,,,,,,1.1,,,,,,,,,,,,,,,,,,,,,,6102e71dcb976d58c1435272,61036daf11bc5a6b8b26468c,2021-07-29_20h13.43.817,Simcolourproject_2stim_asymm_v5,2020.2.10,Win32,60,61025ae37ef11b136ea224fe,,,,,,,,,1557,107,47,1,0,0,response1disk,,6,-12,8,1,0,0,rectangle,-12,8,1,0,0,-12,8,1,0,0,1,93,253,140,1,,,,,,,,
,,,,,,,,,,,,,FF,,,,,,,,0.767,,,,,,,,,,,,,,,,,,,,,,6102e71dcb976d58c1435272,61036daf11bc5a6b8b26468c,2021-07-29_20h13.43.817,Simcolourproject_2stim_asymm_v5,2020.2.10,Win32,60,61025ae37ef11b136ea224fe,,,,,,,,,3204,-107,-42,1,0,0,response5disk,,2,1,-5,1,0,0,rectangle,1,-5,1,0,0,1,-5,1,0,0,1,94,254,100,1,,,,,,,,
,,,,,,,,,,,,,FF,,,,,,,,0.566,,,,,,,,,,,,,,,,,,,,,,6102e71dcb976d58c1435272,61036daf11bc5a6b8b26468c,2021-07-29_20h13.43.817,Simcolourproject_2stim_asymm_v5,2020.2.10,Win32,60,61025ae37ef11b136ea224fe,,,,,,,,,3298,-87,-33,1,0,0,response5disk,,2,2,-4,1,0,0,rectangle,2,-4,1,0,0,2,-4,1,0,0,1,95,255,131,1,,,,,,,,
,,,,,,,,,,,,,FF,,,,,,,,1.25,,,,,,,,,,,,,,,,,,,,,,6102e71dcb976d58c1435272,61036daf11bc5a6b8b26468c,2021-07-29_20h13.43.817,Simcolourproject_2stim_asymm_v5,2020.2.10,Win32,60,61025ae37ef11b136ea224fe,,,,,,,,,3935,-109,-43,1,0,0,response5disk,,2,4,-4,1,0,0,rectangle,4,-4,1,0,0,4,-4,1,0,0,1,96,256,15,1,,,,,,,,
,,,,,,,,,,,,,FF,,,,,,,,0.966,,,,,,,,,,,,,,,,,,,,,,6102e71dcb976d58c1435272,61036daf11bc5a6b8b26468c,2021-07-29_20h13.43.817,Simcolourproject_2stim_asymm_v5,2020.2.10,Win32,60,61025ae37ef11b136ea224fe,,,,,,,,,686,50,-74,1,0,0,response3disk,,4,-1,6,1,0,0,rectangle,-1,6,1,0,0,-1,6,1,0,0,1,97,257,41,1,,,,,,,,
,,,,,,,,,,,,,FF,,,,,,,,1.9,,,,,,,,,,,,,,,,,,,,,,6102e71dcb976d58c1435272,61036daf11bc5a6b8b26468c,2021-07-29_20h13.43.817,Simcolourproject_2stim_asymm_v5,2020.2.10,Win32,60,61025ae37ef11b136ea224fe,,,,,,,,,787,115,-43,1,0,0,response3disk,,5,15,-1,1,0,0,rectangle,15,-1,1,0,0,15,-1,1,0,0,1,98,258,109,1,,,,,,,,
,,,,,,,,,,,,,FF,,,,,,,,1.566,,,,,,,,,,,,,,,,,,,,,,6102e71dcb976d58c1435272,61036daf11bc5a6b8b26468c,2021-07-29_20h13.43.817,Simcolourproject_2stim_asymm_v5,2020.2.10,Win32,60,61025ae37ef11b136ea224fe,,,,,,,,,4040,69,-37,1,0,0,response3disk,,5,-9,15,1,0,0,rectangle,-59,103,1,0,0,10,0,1,0,0,1,99,259,106,1,,response7disk_3,TRUE,0,0,"[194,163,297,32,168,44,140,55,178,218,69,315,268,318,260,114,195,80,242,73]",1.484,rectangle
,,,,,,,,,,,,,FF,,,,,,,,1.267,,,,,,,,,,,,,,,,,,,,,,6102e71dcb976d58c1435272,61036daf11bc5a6b8b26468c,2021-07-29_20h13.43.817,Simcolourproject_2stim_asymm_v5,2020.2.10,Win32,60,61025ae37ef11b136ea224fe,,,,,,,,,4085,63,-90,1,0,0,response3disk,,4,5,-4,1,0,0,rectangle,5,-4,1,0,0,5,-4,1,0,0,1,100,260,129,1,,,,,,,,
,,,,,,,,,,,,,FF,,,,,,,,1.601,,,,,,,,,,,,,,,,,,,,,,6102e71dcb976d58c1435272,61036daf11bc5a6b8b26468c,2021-07-29_20h13.43.817,Simcolourproject_2stim_asymm_v5,2020.2.10,Win32,60,61025ae37ef11b136ea224fe,,,,,,,,,1388,53,-120,1,0,0,response3disk,,4,-6,-10,1,0,0,rectangle,-6,-10,1,0,0,-6,-10,1,0,0,1,101,261,111,1,,,,,,,,
,,,,,,,,,,,,,FF,,,,,,,,0.7,,,,,,,,,,,,,,,,,,,,,,6102e71dcb976d58c1435272,61036daf11bc5a6b8b26468c,2021-07-29_20h13.43.817,Simcolourproject_2stim_asymm_v5,2020.2.10,Win32,60,61025ae37ef11b136ea224fe,,,,,,,,,159,93,-50,1,0,0,response3disk,,5,8,7,1,0,0,rectangle,8,7,1,0,0,8,7,1,0,0,1,102,262,73,1,,,,,,,,
,,,,,,,,,,,,,FF,,,,,,,,0.817,,,,,,,,,,,,,,,,,,,,,,6102e71dcb976d58c1435272,61036daf11bc5a6b8b26468c,2021-07-29_20h13.43.817,Simcolourproject_2stim_asymm_v5,2020.2.10,Win32,60,61025ae37ef11b136ea224fe,,,,,,,,,2019,99,-42,1,0,0,response3disk,,5,26,2,1,0,0,rectangle,26,2,1,0,0,26,2,1,0,0,1,103,263,2,1,,,,,,,,
,,,,,,,,,,,,,FF,,,,,,,,1.45,,,,,,,,,,,,,,,,,,,,,,6102e71dcb976d58c1435272,61036daf11bc5a6b8b26468c,2021-07-29_20h13.43.817,Simcolourproject_2stim_asymm_v5,2020.2.10,Win32,60,61025ae37ef11b136ea224fe,,,,,,,,,209,54,-98,1,0,0,response3disk,,4,-3,-10,1,0,0,rectangle,-3,-10,1,0,0,-3,-10,1,0,0,1,104,264,36,1,,,,,,,,
,,,,,,,,,,,,,FF,,,,,,,,0.567,,,,,,,,,,,,,,,,,,,,,,6102e71dcb976d58c1435272,61036daf11bc5a6b8b26468c,2021-07-29_20h13.43.817,Simcolourproject_2stim_asymm_v5,2020.2.10,Win32,60,61025ae37ef11b136ea224fe,,,,,,,,,1943,53,-85,1,0,0,response3disk,,4,9,3,1,0,0,rectangle,9,3,1,0,0,9,3,1,0,0,1,105,265,122,1,,,,,,,,
,,,,,,,,,,,,,FF,,,,,,,,2.084,,,,,,,,,,,,,,,,,,,,,,6102e71dcb976d58c1435272,61036daf11bc5a6b8b26468c,2021-07-29_20h13.43.817,Simcolourproject_2stim_asymm_v5,2020.2.10,Win32,60,61025ae37ef11b136ea224fe,,,,,,,,,4037,50,-84,1,0,0,response3disk,,4,7,1,1,0,0,rectangle,7,1,1,0,0,7,1,1,0,0,1,106,266,33,1,,,,,,,,
,,,,,,,,,,,,,FF,,,,,,,,1.699,,,,,,,,,,,,,,,,,,,,,,6102e71dcb976d58c1435272,61036daf11bc5a6b8b26468c,2021-07-29_20h13.43.817,Simcolourproject_2stim_asymm_v5,2020.2.10,Win32,60,61025ae37ef11b136ea224fe,,,,,,,,,2072,62,-90,1,0,0,response3disk,,4,3,-4,1,0,0,rectangle,-106,51,1,0,0,-29,2,1,0,0,1,107,267,59,1,,response7disk_3,TRUE,1,1,"[194,163,297,32,168,44,140,55,178,218,69,315,268,318,260,114,195,80,242,73]",1.117,rectangle
,,,,,,,,,,,,,FF,,,,,,,,1.518,,,,,,,,,,,,,,,,,,,,,,6102e71dcb976d58c1435272,61036daf11bc5a6b8b26468c,2021-07-29_20h13.43.817,Simcolourproject_2stim_asymm_v5,2020.2.10,Win32,60,61025ae37ef11b136ea224fe,,,,,,,,,901,55,-86,1,0,0,response3disk,,4,20,8,1,0,0,rectangle,20,8,1,0,0,20,8,1,0,0,1,108,268,80,1,,,,,,,,
,,,,,,,,,,,,,FF,,,,,,,,0.933,,,,,,,,,,,,,,,,,,,,,,6102e71dcb976d58c1435272,61036daf11bc5a6b8b26468c,2021-07-29_20h13.43.817,Simcolourproject_2stim_asymm_v5,2020.2.10,Win32,60,61025ae37ef11b136ea224fe,,,,,,,,,1088,115,55,1,0,0,response1disk,,6,33,7,1,0,0,rectangle,33,7,1,0,0,33,7,1,0,0,1,109,269,74,1,,,,,,,,
,,,,,,,,,,,,,FF,,,,,,,,0.833,,,,,,,,,,,,,,,,,,,,,,6102e71dcb976d58c1435272,61036daf11bc5a6b8b26468c,2021-07-29_20h13.43.817,Simcolourproject_2stim_asymm_v5,2020.2.10,Win32,60,61025ae37ef11b136ea224fe,,,,,,,,,2864,37,85,1,0,0,response1disk,,7,0,0,1,0,0,rectangle,0,0,1,0,0,0,0,1,0,0,1,110,270,157,1,,,,,,,,
,,,,,,,,,,,,,FF,,,,,,,,0.8,,,,,,,,,,,,,,,,,,,,,,6102e71dcb976d58c1435272,61036daf11bc5a6b8b26468c,2021-07-29_20h13.43.817,Simcolourproject_2stim_asymm_v5,2020.2.10,Win32,60,61025ae37ef11b136ea224fe,,,,,,,,,2686,110,51,1,0,0,response1disk,,6,29,10,1,0,0,rectangle,29,10,1,0,0,29,10,1,0,0,1,111,271,82,1,,,,,,,,
,,,,,,,,,,,,,FF,,,,,,,,0.784,,,,,,,,,,,,,,,,,,,,,,6102e71dcb976d58c1435272,61036daf11bc5a6b8b26468c,2021-07-29_20h13.43.817,Simcolourproject_2stim_asymm_v5,2020.2.10,Win32,60,61025ae37ef11b136ea224fe,,,,,,,,,3434,-98,45,1,0,0,response7disk,,1,7,-3,1,0,0,rectangle,7,-3,1,0,0,7,-3,1,0,0,1,112,272,121,1,,,,,,,,
,,,,,,,,,,,,,FF,,,,,,,,1.517,,,,,,,,,,,,,,,,,,,,,,6102e71dcb976d58c1435272,61036daf11bc5a6b8b26468c,2021-07-29_20h13.43.817,Simcolourproject_2stim_asymm_v5,2020.2.10,Win32,60,61025ae37ef11b136ea224fe,,,,,,,,,4033,-38,-100,1,0,0,response5disk,,3,3,-15,1,0,0,rectangle,3,-15,1,0,0,3,-15,1,0,0,1,113,273,85,1,,,,,,,,
,,,,,,,,,,,,,FF,,,,,,,,1.683,,,,,,,,,,,,,,,,,,,,,,6102e71dcb976d58c1435272,61036daf11bc5a6b8b26468c,2021-07-29_20h13.43.817,Simcolourproject_2stim_asymm_v5,2020.2.10,Win32,60,61025ae37ef11b136ea224fe,,,,,,,,,2589,99,-62,1,0,0,response3disk,,5,14,-10,1,0,0,rectangle,14,-10,1,0,0,14,-10,1,0,0,1,114,274,22,1,,,,,,,,
,,,,,,,,,,,,,FF,,,,,,,,1.399,,,,,,,,,,,,,,,,,,,,,,6102e71dcb976d58c1435272,61036daf11bc5a6b8b26468c,2021-07-29_20h13.43.817,Simcolourproject_2stim_asymm_v5,2020.2.10,Win32,60,61025ae37ef11b136ea224fe,,,,,,,,,2065,94,36,1,0,0,response1disk,,6,-42,0,1,0,0,rectangle,-42,0,1,0,0,-42,0,1,0,0,1,115,275,14,1,,,,,,,,
,,,,,,,,,,,,,FF,,,,,,,,2.517,,,,,,,,,,,,,,,,,,,,,,6102e71dcb976d58c1435272,61036daf11bc5a6b8b26468c,2021-07-29_20h13.43.817,Simcolourproject_2stim_asymm_v5,2020.2.10,Win32,60,61025ae37ef11b136ea224fe,,,,,,,,,2674,45,-104,1,0,0,response3disk,,4,7,-11,1,0,0,rectangle,7,-11,1,0,0,7,-11,1,0,0,1,116,276,75,1,,,,,,,,
,,,,,,,,,,,,,FF,,,,,,,,1.084,,,,,,,,,,,,,,,,,,,,,,6102e71dcb976d58c1435272,61036daf11bc5a6b8b26468c,2021-07-29_20h13.43.817,Simcolourproject_2stim_asymm_v5,2020.2.10,Win32,60,61025ae37ef11b136ea224fe,,,,,,,,,1840,111,-46,1,0,0,response3disk,,5,25,-18,1,0,0,rectangle,25,-18,1,0,0,25,-18,1,0,0,1,117,277,46,1,,,,,,,,
,,,,,,,,,,,,,FF,,,,,,,,1.417,,,,,,,,,,,,,,,,,,,,,,6102e71dcb976d58c1435272,61036daf11bc5a6b8b26468c,2021-07-29_20h13.43.817,Simcolourproject_2stim_asymm_v5,2020.2.10,Win32,60,61025ae37ef11b136ea224fe,,,,,,,,,990,83,-48,1,0,0,response3disk,,5,4,-3,1,0,0,rectangle,4,-3,1,0,0,4,-3,1,0,0,1,118,278,138,1,,,,,,,,
,,,,,,,,,,,,,FF,,,,,,,,0.884,,,,,,,,,,,,,,,,,,,,,,6102e71dcb976d58c1435272,61036daf11bc5a6b8b26468c,2021-07-29_20h13.43.817,Simcolourproject_2stim_asymm_v5,2020.2.10,Win32,60,61025ae37ef11b136ea224fe,,,,,,,,,518,-32,-88,1,0,0,response5disk,,3,-15,-8,1,0,0,rectangle,-15,-8,1,0,0,-15,-8,1,0,0,1,119,279,5,1,,,,,,,,
,,,,,,,,,,,,,FF,,,,,,,,1.067,,,,,,,,,,,,,,,,,,,,,,6102e71dcb976d58c1435272,61036daf11bc5a6b8b26468c,2021-07-29_20h13.43.817,Simcolourproject_2stim_asymm_v5,2020.2.10,Win32,60,61025ae37ef11b136ea224fe,,,,,,,,,1252,104,25,1,0,0,response1disk,,6,18,-16,1,0,0,rectangle,18,-16,1,0,0,18,-16,1,0,0,1,120,280,114,1,,,,,,,,
,,,,,,,,,,,,,FF,,,,,,,,1.351,,,,,,,,,,,,,,,,,,,,,,6102e71dcb976d58c1435272,61036daf11bc5a6b8b26468c,2021-07-29_20h13.43.817,Simcolourproject_2stim_asymm_v5,2020.2.10,Win32,60,61025ae37ef11b136ea224fe,,,,,,,,,1395,103,33,1,0,0,response1disk,,6,27,-5,1,0,0,rectangle,27,-5,1,0,0,27,-5,1,0,0,1,121,281,0,1,,,,,,,,
,,,,,,,,,,,,,FF,,,,,,,,0.7,,,,,,,,,,,,,,,,,,,,,,6102e71dcb976d58c1435272,61036daf11bc5a6b8b26468c,2021-07-29_20h13.43.817,Simcolourproject_2stim_asymm_v5,2020.2.10,Win32,60,61025ae37ef11b136ea224fe,,,,,,,,,2149,107,-60,1,0,0,response3disk,,5,4,3,1,0,0,rectangle,4,3,1,0,0,4,3,1,0,0,1,122,282,99,1,,,,,,,,
,,,,,,,,,,,,,FF,,,,,,,,2,,,,,,,,,,,,,,,,,,,,,,6102e71dcb976d58c1435272,61036daf11bc5a6b8b26468c,2021-07-29_20h13.43.817,Simcolourproject_2stim_asymm_v5,2020.2.10,Win32,60,61025ae37ef11b136ea224fe,,,,,,,,,2576,102,38,1,0,0,response1disk,,6,19,9,1,0,0,rectangle,19,9,1,0,0,19,9,1,0,0,1,123,283,83,1,,,,,,,,
,,,,,,,,,,,,,FF,,,,,,,,1.383,,,,,,,,,,,,,,,,,,,,,,6102e71dcb976d58c1435272,61036daf11bc5a6b8b26468c,2021-07-29_20h13.43.817,Simcolourproject_2stim_asymm_v5,2020.2.10,Win32,60,61025ae37ef11b136ea224fe,,,,,,,,,1931,107,-45,1,0,0,response3disk,,5,17,6,1,0,0,rectangle,17,6,1,0,0,17,6,1,0,0,1,124,284,29,1,,,,,,,,
,,,,,,,,,,,,,FF,,,,,,,,0.934,,,,,,,,,,,,,,,,,,,,,,6102e71dcb976d58c1435272,61036daf11bc5a6b8b26468c,2021-07-29_20h13.43.817,Simcolourproject_2stim_asymm_v5,2020.2.10,Win32,60,61025ae37ef11b136ea224fe,,,,,,,,,4117,-45,-76,1,0,0,response5disk,,3,6,-3,1,0,0,rectangle,6,-3,1,0,0,6,-3,1,0,0,1,125,285,50,1,,,,,,,,
,,,,,,,,,,,,,FF,,,,,,,,0.967,,,,,,,,,,,,,,,,,,,,,,6102e71dcb976d58c1435272,61036daf11bc5a6b8b26468c,2021-07-29_20h13.43.817,Simcolourproject_2stim_asymm_v5,2020.2.10,Win32,60,61025ae37ef11b136ea224fe,,,,,,,,,539,38,-70,1,0,0,response3disk,,4,-1,-4,1,0,0,rectangle,-1,-4,1,0,0,-1,-4,1,0,0,1,126,286,151,1,,,,,,,,
,,,,,,,,,,,,,FF,,,,,,,,1.316,,,,,,,,,,,,,,,,,,,,,,6102e71dcb976d58c1435272,61036daf11bc5a6b8b26468c,2021-07-29_20h13.43.817,Simcolourproject_2stim_asymm_v5,2020.2.10,Win32,60,61025ae37ef11b136ea224fe,,,,,,,,,4140,-30,76,1,0,0,response7disk,,0,18,15,1,0,0,rectangle,18,15,1,0,0,18,15,1,0,0,1,127,287,103,1,,,,,,,,
,,,,,,,,,,,,,FF,,,,,,,,0.717,,,,,,,,,,,,,,,,,,,,,,6102e71dcb976d58c1435272,61036daf11bc5a6b8b26468c,2021-07-29_20h13.43.817,Simcolourproject_2stim_asymm_v5,2020.2.10,Win32,60,61025ae37ef11b136ea224fe,,,,,,,,,4166,-38,77,1,0,0,response7disk,,0,-3,2,1,0,0,rectangle,-3,2,1,0,0,-3,2,1,0,0,1,128,288,39,1,,,,,,,,
,,,,,,,,,,,,,FF,,,,,,,,0.6,,,,,,,,,,,,,,,,,,,,,,6102e71dcb976d58c1435272,61036daf11bc5a6b8b26468c,2021-07-29_20h13.43.817,Simcolourproject_2stim_asymm_v5,2020.2.10,Win32,60,61025ae37ef11b136ea224fe,,,,,,,,,4163,-123,43,1,0,0,response7disk,,1,-17,5,1,0,0,rectangle,-17,5,1,0,0,-17,5,1,0,0,1,129,289,147,1,,,,,,,,
,,,,,,,,,,,,,FF,,,,,,,,1.667,,,,,,,,,,,,,,,,,,,,,,6102e71dcb976d58c1435272,61036daf11bc5a6b8b26468c,2021-07-29_20h13.43.817,Simcolourproject_2stim_asymm_v5,2020.2.10,Win32,60,61025ae37ef11b136ea224fe,,,,,,,,,3718,-108,-42,1,0,0,response5disk,,2,-24,5,1,0,0,rectangle,-24,5,1,0,0,-24,5,1,0,0,1,130,290,72,1,,,,,,,,
,,,,,,,,,,,,,FF,,,,,,,,1.334,,,,,,,,,,,,,,,,,,,,,,6102e71dcb976d58c1435272,61036daf11bc5a6b8b26468c,2021-07-29_20h13.43.817,Simcolourproject_2stim_asymm_v5,2020.2.10,Win32,60,61025ae37ef11b136ea224fe,,,,,,,,,799,75,-43,1,0,0,response3disk,,5,-6,5,1,0,0,rectangle,-6,5,1,0,0,-6,5,1,0,0,1,131,291,63,1,,,,,,,,
,,,,,,,,,,,,,FF,,,,,,,,2.583,,,,,,,,,,,,,,,,,,,,,,6102e71dcb976d58c1435272,61036daf11bc5a6b8b26468c,2021-07-29_20h13.43.817,Simcolourproject_2stim_asymm_v5,2020.2.10,Win32,60,61025ae37ef11b136ea224fe,,,,,,,,,3761,87,-32,1,0,0,response3disk,,5,31,-2,1,0,0,rectangle,31,-2,1,0,0,31,-2,1,0,0,1,132,292,10,1,,,,,,,,
,,,,,,,,,,,,,FF,,,,,,,,1.284,,,,,,,,,,,,,,,,,,,,,,6102e71dcb976d58c1435272,61036daf11bc5a6b8b26468c,2021-07-29_20h13.43.817,Simcolourproject_2stim_asymm_v5,2020.2.10,Win32,60,61025ae37ef11b136ea224fe,,,,,,,,,1376,-42,-104,1,0,0,response5disk,,3,-22,-12,1,0,0,rectangle,-22,-12,1,0,0,-22,-12,1,0,0,1,133,293,101,1,,,,,,,,
,,,,,,,,,,,,,FF,,,,,,,,0.95,,,,,,,,,,,,,,,,,,,,,,6102e71dcb976d58c1435272,61036daf11bc5a6b8b26468c,2021-07-29_20h13.43.817,Simcolourproject_2stim_asymm_v5,2020.2.10,Win32,60,61025ae37ef11b136ea224fe,,,,,,,,,271,102,52,1,0,0,response1disk,,6,22,15,1,0,0,rectangle,22,15,1,0,0,22,15,1,0,0,1,134,294,153,1,,,,,,,,
,,,,,,,,,,,,,FF,,,,,,,,1.65,,,,,,,,,,,,,,,,,,,,,,6102e71dcb976d58c1435272,61036daf11bc5a6b8b26468c,2021-07-29_20h13.43.817,Simcolourproject_2stim_asymm_v5,2020.2.10,Win32,60,61025ae37ef11b136ea224fe,,,,,,,,,3003,-34,-91,1,0,0,response5disk,,3,14,-7,1,0,0,rectangle,14,-7,1,0,0,14,-7,1,0,0,1,135,295,120,1,,,,,,,,
,,,,,,,,,,,,,FF,,,,,,,,1.066,,,,,,,,,,,,,,,,,,,,,,6102e71dcb976d58c1435272,61036daf11bc5a6b8b26468c,2021-07-29_20h13.43.817,Simcolourproject_2stim_asymm_v5,2020.2.10,Win32,60,61025ae37ef11b136ea224fe,,,,,,,,,2465,102,-61,1,0,0,response3disk,,5,30,-17,1,0,0,rectangle,-44,89,1,0,0,-1,6,1,0,0,1,136,296,130,1,,response7disk_3,TRUE,0,0,"[194,163,297,32,168,44,140,55,178,218,69,315,268,318,260,114,195,80,242,73]",1.25,rectangle
,,,,,,,,,,,,,FF,,,,,,,,0.817,,,,,,,,,,,,,,,,,,,,,,6102e71dcb976d58c1435272,61036daf11bc5a6b8b26468c,2021-07-29_20h13.43.817,Simcolourproject_2stim_asymm_v5,2020.2.10,Win32,60,61025ae37ef11b136ea224fe,,,,,,,,,4347,-47,-100,1,0,0,response5disk,,3,6,6,1,0,0,rectangle,6,6,1,0,0,6,6,1,0,0,1,137,297,96,1,,,,,,,,
,,,,,,,,,,,,,FF,,,,,,,,1.25,,,,,,,,,,,,,,,,,,,,,,6102e71dcb976d58c1435272,61036daf11bc5a6b8b26468c,2021-07-29_20h13.43.817,Simcolourproject_2stim_asymm_v5,2020.2.10,Win32,60,61025ae37ef11b136ea224fe,,,,,,,,,4363,-97,29,1,0,0,response7disk,,1,-18,-6,1,0,0,rectangle,-18,-6,1,0,0,-18,-6,1,0,0,1,138,298,7,1,,,,,,,,
,,,,,,,,,,,,,FF,,,,,,,,1.05,,,,,,,,,,,,,,,,,,,,,,6102e71dcb976d58c1435272,61036daf11bc5a6b8b26468c,2021-07-29_20h13.43.817,Simcolourproject_2stim_asymm_v5,2020.2.10,Win32,60,61025ae37ef11b136ea224fe,,,,,,,,,1052,-100,-53,1,0,0,response5disk,,2,-18,7,1,0,0,rectangle,-18,7,1,0,0,-18,7,1,0,0,1,139,299,117,1,,,,,,,,
,,,,,,,,,,,,,FF,,,,,,,,2.501,,,,,,,,,,,,,,,,,,,,,,6102e71dcb976d58c1435272,61036daf11bc5a6b8b26468c,2021-07-29_20h13.43.817,Simcolourproject_2stim_asymm_v5,2020.2.10,Win32,60,61025ae37ef11b136ea224fe,,,,,,,,,1238,129,47,1,0,0,response1disk,,6,18,-3,1,0,0,rectangle,18,-3,1,0,0,18,-3,1,0,0,1,140,300,136,1,,,,,,,,
,,,,,,,,,,,,,FF,,,,,,,,6.883,,,,,,,,,,,,,,,,,,,,,,6102e71dcb976d58c1435272,61036daf11bc5a6b8b26468c,2021-07-29_20h13.43.817,Simcolourproject_2stim_asymm_v5,2020.2.10,Win32,60,61025ae37ef11b136ea224fe,,,,,,,,,1284,60,118,1,0,0,response1disk,,7,-1,1,1,0,0,rectangle,-1,1,1,0,0,-1,1,1,0,0,1,141,301,4,1,,,,,,,,
,,,,,,,,,,,,,FF,,,,,,,,1.2,,,,,,,,,,,,,,,,,,,,,,6102e71dcb976d58c1435272,61036daf11bc5a6b8b26468c,2021-07-29_20h13.43.817,Simcolourproject_2stim_asymm_v5,2020.2.10,Win32,60,61025ae37ef11b136ea224fe,,,,,,,,,3846,-74,33,1,0,0,response7disk,,1,-4,-2,1,0,0,rectangle,-4,-2,1,0,0,-4,-2,1,0,0,1,142,302,47,1,,,,,,,,
