key_resp.keys,key_resp.rt,key_resp_14.keys,key_resp_14.rt,key_resp_15.keys,key_resp_15.rt,key_resp_17.keys,key_resp_17.rt,key_resp_9.keys,key_resp_9.rt,key_resp_10.keys,key_resp_10.rt,practice_comparison,Ecc,mouse_5.x,mouse_5.y,mouse_5.leftButton,mouse_5.midButton,mouse_5.rightButton,mouse_5.clicked_name,pracsimilarity,response_time,mouse_10.x,mouse_10.y,mouse_10.leftButton,mouse_10.midButton,mouse_10.rightButton,mouse_10.clicked_name,mouse_7.x,mouse_7.y,mouse_7.leftButton,mouse_7.midButton,mouse_7.rightButton,mouse_6.x,mouse_6.y,mouse_6.leftButton,mouse_6.midButton,mouse_6.rightButton,duringprac.thisRepN,duringprac.thisTrialN,duringprac.thisN,duringprac.thisIndex,duringprac.ran,participant,session,date,expName,psychopyVersion,OS,frameRate,study_id,mouse_7.clicked_name,catchpracsimilarity,catch_response_time,catchnumberprac,catchtrialorderprac,mouse_6.clicked_name,key_resp_22.keys,key_resp_22.rt,realcomparison,mouse.x,mouse.y,mouse.leftButton,mouse.midButton,mouse.rightButton,mouse.clicked_name,Colour2,similarity,mouse_2.x,mouse_2.y,mouse_2.leftButton,mouse_2.midButton,mouse_2.rightButton,mouse_2.clicked_name,mouse_3.x,mouse_3.y,mouse_3.leftButton,mouse_3.midButton,mouse_3.rightButton,mouse_11.x,mouse_11.y,mouse_11.leftButton,mouse_11.midButton,mouse_11.rightButton,trials_2.thisRepN,trials_2.thisTrialN,trials_2.thisN,trials_2.thisIndex,trials_2.ran,Colour1,mouse_3.clicked_name,catchornah,catchsimilarity,catchnumber,catchtrialorder,catchRT,mouse_11.clicked_name
space,0.868,space,9.1624,space,37.7011,space,5.809,space,0.8031,space,6.6041,41,PF,-57,78,1,0,0,response7disk_5,0,2.6521,6,2,1,0,0,rectangle_8,6,2,1,0,0,6,2,1,0,0,0,0,0,2,1,610231089f7e70a4aab3d083,610375bdaac237a00c2c669b,2021-07-29_23h56.28.443,Simcolourproject_2stim_asymm_v5,2020.2.10,Win32,60,61025ae37ef11b136ea224fe,,,,,,,,,,,,,,,,,,,,,,,,,,,,,,,,,,,,,,,,,,,,,,
,,,,,,,,,,,,148,PF,-98,46,1,0,0,response7disk_5,1,3.1828,6,-6,1,0,0,rectangle_8,35,-96,1,0,0,2,-2,1,0,0,0,1,1,6,1,610231089f7e70a4aab3d083,610375bdaac237a00c2c669b,2021-07-29_23h56.28.443,Simcolourproject_2stim_asymm_v5,2020.2.10,Win32,60,61025ae37ef11b136ea224fe,response3disk_7,4,1.8006,4,"[2,5]",rectangle_4,,,,,,,,,,,,,,,,,,,,,,,,,,,,,,,,,,,,,,,,
,,,,,,,,,,,,77,FF,104,40,1,0,0,response1disk_5,6,3.0331,-4,-6,1,0,0,rectangle_8,-4,-6,1,0,0,-4,-6,1,0,0,0,2,2,5,1,610231089f7e70a4aab3d083,610375bdaac237a00c2c669b,2021-07-29_23h56.28.443,Simcolourproject_2stim_asymm_v5,2020.2.10,Win32,60,61025ae37ef11b136ea224fe,,,,,,,,,,,,,,,,,,,,,,,,,,,,,,,,,,,,,,,,,,,,,,
,,,,,,,,,,,,69,PF,-37,85,1,0,0,response7disk_5,0,0.9997,4,3,1,0,0,rectangle_8,4,3,1,0,0,4,3,1,0,0,0,3,3,1,1,610231089f7e70a4aab3d083,610375bdaac237a00c2c669b,2021-07-29_23h56.28.443,Simcolourproject_2stim_asymm_v5,2020.2.10,Win32,60,61025ae37ef11b136ea224fe,,,,,,,,,,,,,,,,,,,,,,,,,,,,,,,,,,,,,,,,,,,,,,
,,,,,,,,,,,,143,FF,73,-50,1,0,0,response3disk_5,5,6.0485,1,6,1,0,0,rectangle_8,37,-100,1,0,0,-8,-9,1,0,0,0,4,4,0,1,610231089f7e70a4aab3d083,610375bdaac237a00c2c669b,2021-07-29_23h56.28.443,Simcolourproject_2stim_asymm_v5,2020.2.10,Win32,60,61025ae37ef11b136ea224fe,response3disk_7,4,1.3829,4,"[2,5]",rectangle_4,,,,,,,,,,,,,,,,,,,,,,,,,,,,,,,,,,,,,,,,
,,,,,,,,,,,,76,FF,42,-100,1,0,0,response3disk_5,4,3.2823,4,3,1,0,0,rectangle_8,4,3,1,0,0,4,3,1,0,0,0,5,5,3,1,610231089f7e70a4aab3d083,610375bdaac237a00c2c669b,2021-07-29_23h56.28.443,Simcolourproject_2stim_asymm_v5,2020.2.10,Win32,60,61025ae37ef11b136ea224fe,,,,,,,,,,,,,,,,,,,,,,,,,,,,,,,,,,,,,,,,,,,,,,
,,,,,,,,,,,,104,PF,83,-37,1,0,0,response3disk_5,5,1.8663,4,0,1,0,0,rectangle_8,4,0,1,0,0,4,0,1,0,0,0,6,6,4,1,610231089f7e70a4aab3d083,610375bdaac237a00c2c669b,2021-07-29_23h56.28.443,Simcolourproject_2stim_asymm_v5,2020.2.10,Win32,60,61025ae37ef11b136ea224fe,,,,,,,,,,,,,,,,,,,,,,,,,,,,,,,,,,,,,,,,,,,,,,
,,,,,,,,,,,,,FF,,,,,,,,3.5324,,,,,,,,,,,,,,,,,,,,,,610231089f7e70a4aab3d083,610375bdaac237a00c2c669b,2021-07-29_23h56.28.443,Simcolourproject_2stim_asymm_v5,2020.2.10,Win32,60,61025ae37ef11b136ea224fe,,,,,,,space,2.8069,3890,82,30,1,0,0,response1disk,,6,-10,5,1,0,0,rectangle,-10,5,1,0,0,-10,5,1,0,0,0,0,0,10,1,,,,,,,,
,,,,,,,,,,,,,FF,,,,,,,,1.1799,,,,,,,,,,,,,,,,,,,,,,610231089f7e70a4aab3d083,610375bdaac237a00c2c669b,2021-07-29_23h56.28.443,Simcolourproject_2stim_asymm_v5,2020.2.10,Win32,60,61025ae37ef11b136ea224fe,,,,,,,,,2073,52,27,1,0,0,response1disk,,6,17,-5,1,0,0,rectangle,17,-5,1,0,0,17,-5,1,0,0,0,1,1,116,1,,,,,,,,
,,,,,,,,,,,,,FF,,,,,,,,1.3831,,,,,,,,,,,,,,,,,,,,,,610231089f7e70a4aab3d083,610375bdaac237a00c2c669b,2021-07-29_23h56.28.443,Simcolourproject_2stim_asymm_v5,2020.2.10,Win32,60,61025ae37ef11b136ea224fe,,,,,,,,,2353,43,-56,1,0,0,response3disk,,4,3,-1,1,0,0,rectangle,3,-1,1,0,0,3,-1,1,0,0,0,2,2,152,1,,,,,,,,
,,,,,,,,,,,,,FF,,,,,,,,1.1664,,,,,,,,,,,,,,,,,,,,,,610231089f7e70a4aab3d083,610375bdaac237a00c2c669b,2021-07-29_23h56.28.443,Simcolourproject_2stim_asymm_v5,2020.2.10,Win32,60,61025ae37ef11b136ea224fe,,,,,,,,,3472,-50,-77,1,0,0,response5disk,,3,5,-11,1,0,0,rectangle,5,-11,1,0,0,5,-11,1,0,0,0,3,3,29,1,,,,,,,,
,,,,,,,,,,,,,FF,,,,,,,,1.1363,,,,,,,,,,,,,,,,,,,,,,610231089f7e70a4aab3d083,610375bdaac237a00c2c669b,2021-07-29_23h56.28.443,Simcolourproject_2stim_asymm_v5,2020.2.10,Win32,60,61025ae37ef11b136ea224fe,,,,,,,,,263,-39,-74,1,0,0,response5disk,,3,4,-10,1,0,0,rectangle,4,-10,1,0,0,4,-10,1,0,0,0,4,4,69,1,,,,,,,,
,,,,,,,,,,,,,FF,,,,,,,,1.9992,,,,,,,,,,,,,,,,,,,,,,610231089f7e70a4aab3d083,610375bdaac237a00c2c669b,2021-07-29_23h56.28.443,Simcolourproject_2stim_asymm_v5,2020.2.10,Win32,60,61025ae37ef11b136ea224fe,,,,,,,,,3345,75,-43,1,0,0,response3disk,,5,9,1,1,0,0,rectangle,9,1,1,0,0,9,1,1,0,0,0,5,5,149,1,,,,,,,,
,,,,,,,,,,,,,FF,,,,,,,,1.6993,,,,,,,,,,,,,,,,,,,,,,610231089f7e70a4aab3d083,610375bdaac237a00c2c669b,2021-07-29_23h56.28.443,Simcolourproject_2stim_asymm_v5,2020.2.10,Win32,60,61025ae37ef11b136ea224fe,,,,,,,,,2378,63,-44,1,0,0,response3disk,,5,-2,-8,1,0,0,rectangle,-2,-8,1,0,0,-2,-8,1,0,0,0,6,6,26,1,,,,,,,,
,,,,,,,,,,,,,FF,,,,,,,,15.5627,,,,,,,,,,,,,,,,,,,,,,610231089f7e70a4aab3d083,610375bdaac237a00c2c669b,2021-07-29_23h56.28.443,Simcolourproject_2stim_asymm_v5,2020.2.10,Win32,60,61025ae37ef11b136ea224fe,,,,,,,,,725,-22,-109,1,0,0,response5disk,,3,5,-2,1,0,0,rectangle,5,-2,1,0,0,5,-2,1,0,0,0,7,7,87,1,,,,,,,,
,,,,,,,,,,,,,FF,,,,,,,,0.8006,,,,,,,,,,,,,,,,,,,,,,610231089f7e70a4aab3d083,610375bdaac237a00c2c669b,2021-07-29_23h56.28.443,Simcolourproject_2stim_asymm_v5,2020.2.10,Win32,60,61025ae37ef11b136ea224fe,,,,,,,,,1445,-44,79,1,0,0,response7disk,,0,-16,-3,1,0,0,rectangle,-16,-3,1,0,0,-16,-3,1,0,0,0,8,8,46,1,,,,,,,,
,,,,,,,,,,,,,FF,,,,,,,,2.5833,,,,,,,,,,,,,,,,,,,,,,610231089f7e70a4aab3d083,610375bdaac237a00c2c669b,2021-07-29_23h56.28.443,Simcolourproject_2stim_asymm_v5,2020.2.10,Win32,60,61025ae37ef11b136ea224fe,,,,,,,,,2619,79,-40,1,0,0,response3disk,,5,0,-4,1,0,0,rectangle,0,-4,1,0,0,0,-4,1,0,0,0,9,9,43,1,,,,,,,,
,,,,,,,,,,,,,FF,,,,,,,,1.333,,,,,,,,,,,,,,,,,,,,,,610231089f7e70a4aab3d083,610375bdaac237a00c2c669b,2021-07-29_23h56.28.443,Simcolourproject_2stim_asymm_v5,2020.2.10,Win32,60,61025ae37ef11b136ea224fe,,,,,,,,,1970,-74,-32,1,0,0,response5disk,,2,-17,-7,1,0,0,rectangle,-82,-42,1,0,0,-13,-12,1,0,0,0,10,10,65,1,,response5disk_3,TRUE,2,2,"[101,164,203,168,114,196,85,112,92,215,214,245,46,177,276,63,11,321,25,164]",2.0166,rectangle
,,,,,,,,,,,,,FF,,,,,,,,1.0832,,,,,,,,,,,,,,,,,,,,,,610231089f7e70a4aab3d083,610375bdaac237a00c2c669b,2021-07-29_23h56.28.443,Simcolourproject_2stim_asymm_v5,2020.2.10,Win32,60,61025ae37ef11b136ea224fe,,,,,,,,,3937,-77,-37,1,0,0,response5disk,,2,-9,-10,1,0,0,rectangle,-9,-10,1,0,0,-9,-10,1,0,0,0,11,11,18,1,,,,,,,,
,,,,,,,,,,,,,FF,,,,,,,,1.4326,,,,,,,,,,,,,,,,,,,,,,610231089f7e70a4aab3d083,610375bdaac237a00c2c669b,2021-07-29_23h56.28.443,Simcolourproject_2stim_asymm_v5,2020.2.10,Win32,60,61025ae37ef11b136ea224fe,,,,,,,,,2683,87,-41,1,0,0,response3disk,,5,-1,-3,1,0,0,rectangle,-1,-3,1,0,0,-1,-3,1,0,0,0,12,12,82,1,,,,,,,,
,,,,,,,,,,,,,FF,,,,,,,,2.3662,,,,,,,,,,,,,,,,,,,,,,610231089f7e70a4aab3d083,610375bdaac237a00c2c669b,2021-07-29_23h56.28.443,Simcolourproject_2stim_asymm_v5,2020.2.10,Win32,60,61025ae37ef11b136ea224fe,,,,,,,,,2154,36,-81,1,0,0,response3disk,,4,-8,2,1,0,0,rectangle,-8,2,1,0,0,-8,2,1,0,0,0,13,13,11,1,,,,,,,,
,,,,,,,,,,,,,FF,,,,,,,,2.4492,,,,,,,,,,,,,,,,,,,,,,610231089f7e70a4aab3d083,610375bdaac237a00c2c669b,2021-07-29_23h56.28.443,Simcolourproject_2stim_asymm_v5,2020.2.10,Win32,60,61025ae37ef11b136ea224fe,,,,,,,,,480,69,34,1,0,0,response1disk,,6,-1,0,1,0,0,rectangle,-1,0,1,0,0,-1,0,1,0,0,0,14,14,30,1,,,,,,,,
,,,,,,,,,,,,,FF,,,,,,,,3.8328,,,,,,,,,,,,,,,,,,,,,,610231089f7e70a4aab3d083,610375bdaac237a00c2c669b,2021-07-29_23h56.28.443,Simcolourproject_2stim_asymm_v5,2020.2.10,Win32,60,61025ae37ef11b136ea224fe,,,,,,,,,2980,73,40,1,0,0,response1disk,,6,12,2,1,0,0,rectangle,12,2,1,0,0,12,2,1,0,0,0,15,15,39,1,,,,,,,,
,,,,,,,,,,,,,FF,,,,,,,,1.7165,,,,,,,,,,,,,,,,,,,,,,610231089f7e70a4aab3d083,610375bdaac237a00c2c669b,2021-07-29_23h56.28.443,Simcolourproject_2stim_asymm_v5,2020.2.10,Win32,60,61025ae37ef11b136ea224fe,,,,,,,,,3886,69,-51,1,0,0,response3disk,,5,-3,0,1,0,0,rectangle,-3,0,1,0,0,-3,0,1,0,0,0,16,16,20,1,,,,,,,,
,,,,,,,,,,,,,FF,,,,,,,,4.6154,,,,,,,,,,,,,,,,,,,,,,610231089f7e70a4aab3d083,610375bdaac237a00c2c669b,2021-07-29_23h56.28.443,Simcolourproject_2stim_asymm_v5,2020.2.10,Win32,60,61025ae37ef11b136ea224fe,,,,,,,,,2318,74,38,1,0,0,response1disk,,6,-4,-4,1,0,0,rectangle,-4,-4,1,0,0,-4,-4,1,0,0,0,17,17,12,1,,,,,,,,
,,,,,,,,,,,,,FF,,,,,,,,3.5658,,,,,,,,,,,,,,,,,,,,,,610231089f7e70a4aab3d083,610375bdaac237a00c2c669b,2021-07-29_23h56.28.443,Simcolourproject_2stim_asymm_v5,2020.2.10,Win32,60,61025ae37ef11b136ea224fe,,,,,,,,,2936,20,-91,1,0,0,response3disk,,4,-18,0,1,0,0,rectangle,-18,0,1,0,0,-18,0,1,0,0,0,18,18,76,1,,,,,,,,
,,,,,,,,,,,,,FF,,,,,,,,1.0662,,,,,,,,,,,,,,,,,,,,,,610231089f7e70a4aab3d083,610375bdaac237a00c2c669b,2021-07-29_23h56.28.443,Simcolourproject_2stim_asymm_v5,2020.2.10,Win32,60,61025ae37ef11b136ea224fe,,,,,,,,,1277,80,-35,1,0,0,response3disk,,5,16,-10,1,0,0,rectangle,16,-10,1,0,0,16,-10,1,0,0,0,19,19,117,1,,,,,,,,
,,,,,,,,,,,,,FF,,,,,,,,0.9197,,,,,,,,,,,,,,,,,,,,,,610231089f7e70a4aab3d083,610375bdaac237a00c2c669b,2021-07-29_23h56.28.443,Simcolourproject_2stim_asymm_v5,2020.2.10,Win32,60,61025ae37ef11b136ea224fe,,,,,,,,,719,-58,-30,1,0,0,response5disk,,2,-4,-9,1,0,0,rectangle,-4,-9,1,0,0,-4,-9,1,0,0,0,20,20,115,1,,,,,,,,
,,,,,,,,,,,,,FF,,,,,,,,1.7998,,,,,,,,,,,,,,,,,,,,,,610231089f7e70a4aab3d083,610375bdaac237a00c2c669b,2021-07-29_23h56.28.443,Simcolourproject_2stim_asymm_v5,2020.2.10,Win32,60,61025ae37ef11b136ea224fe,,,,,,,,,3930,102,21,1,0,0,response1disk,,6,16,-2,1,0,0,rectangle,16,-2,1,0,0,16,-2,1,0,0,0,21,21,96,1,,,,,,,,
,,,,,,,,,,,,,FF,,,,,,,,1.5999,,,,,,,,,,,,,,,,,,,,,,610231089f7e70a4aab3d083,610375bdaac237a00c2c669b,2021-07-29_23h56.28.443,Simcolourproject_2stim_asymm_v5,2020.2.10,Win32,60,61025ae37ef11b136ea224fe,,,,,,,,,190,-50,-91,1,0,0,response5disk,,3,7,-5,1,0,0,rectangle,7,-5,1,0,0,7,-5,1,0,0,0,22,22,3,1,,,,,,,,
,,,,,,,,,,,,,FF,,,,,,,,1.8526,,,,,,,,,,,,,,,,,,,,,,610231089f7e70a4aab3d083,610375bdaac237a00c2c669b,2021-07-29_23h56.28.443,Simcolourproject_2stim_asymm_v5,2020.2.10,Win32,60,61025ae37ef11b136ea224fe,,,,,,,,,3796,103,32,1,0,0,response1disk,,6,14,-2,1,0,0,rectangle,14,-2,1,0,0,14,-2,1,0,0,0,23,23,102,1,,,,,,,,
,,,,,,,,,,,,,FF,,,,,,,,0.9826,,,,,,,,,,,,,,,,,,,,,,610231089f7e70a4aab3d083,610375bdaac237a00c2c669b,2021-07-29_23h56.28.443,Simcolourproject_2stim_asymm_v5,2020.2.10,Win32,60,61025ae37ef11b136ea224fe,,,,,,,,,2022,-36,-89,1,0,0,response5disk,,3,3,3,1,0,0,rectangle,-37,100,1,0,0,-1,-4,1,0,0,0,24,24,58,1,,response7disk_3,TRUE,0,0,"[101,164,203,168,114,196,85,112,92,215,214,245,46,177,276,63,11,321,25,164]",1.6494,rectangle
,,,,,,,,,,,,,FF,,,,,,,,2.4333,,,,,,,,,,,,,,,,,,,,,,610231089f7e70a4aab3d083,610375bdaac237a00c2c669b,2021-07-29_23h56.28.443,Simcolourproject_2stim_asymm_v5,2020.2.10,Win32,60,61025ae37ef11b136ea224fe,,,,,,,,,498,77,-35,1,0,0,response3disk,,5,-11,-1,1,0,0,rectangle,-11,-1,1,0,0,-11,-1,1,0,0,0,25,25,40,1,,,,,,,,
,,,,,,,,,,,,,FF,,,,,,,,1.868,,,,,,,,,,,,,,,,,,,,,,610231089f7e70a4aab3d083,610375bdaac237a00c2c669b,2021-07-29_23h56.28.443,Simcolourproject_2stim_asymm_v5,2020.2.10,Win32,60,61025ae37ef11b136ea224fe,,,,,,,,,2367,-40,-87,1,0,0,response5disk,,3,8,3,1,0,0,rectangle,8,3,1,0,0,8,3,1,0,0,0,26,26,88,1,,,,,,,,
,,,,,,,,,,,,,FF,,,,,,,,1.3668,,,,,,,,,,,,,,,,,,,,,,610231089f7e70a4aab3d083,610375bdaac237a00c2c669b,2021-07-29_23h56.28.443,Simcolourproject_2stim_asymm_v5,2020.2.10,Win32,60,61025ae37ef11b136ea224fe,,,,,,,,,1859,51,87,1,0,0,response1disk,,7,-6,1,1,0,0,rectangle,-6,1,1,0,0,-6,1,1,0,0,0,27,27,70,1,,,,,,,,
,,,,,,,,,,,,,FF,,,,,,,,1.9501,,,,,,,,,,,,,,,,,,,,,,610231089f7e70a4aab3d083,610375bdaac237a00c2c669b,2021-07-29_23h56.28.443,Simcolourproject_2stim_asymm_v5,2020.2.10,Win32,60,61025ae37ef11b136ea224fe,,,,,,,,,3155,-48,-86,1,0,0,response5disk,,3,1,5,1,0,0,rectangle,1,5,1,0,0,1,5,1,0,0,0,28,28,33,1,,,,,,,,
,,,,,,,,,,,,,FF,,,,,,,,3.3833,,,,,,,,,,,,,,,,,,,,,,610231089f7e70a4aab3d083,610375bdaac237a00c2c669b,2021-07-29_23h56.28.443,Simcolourproject_2stim_asymm_v5,2020.2.10,Win32,60,61025ae37ef11b136ea224fe,,,,,,,,,483,33,-93,1,0,0,response3disk,,4,-6,0,1,0,0,rectangle,-6,0,1,0,0,-6,0,1,0,0,0,29,29,97,1,,,,,,,,
,,,,,,,,,,,,,FF,,,,,,,,4.8627,,,,,,,,,,,,,,,,,,,,,,610231089f7e70a4aab3d083,610375bdaac237a00c2c669b,2021-07-29_23h56.28.443,Simcolourproject_2stim_asymm_v5,2020.2.10,Win32,60,61025ae37ef11b136ea224fe,,,,,,,,,318,71,-34,1,0,0,response3disk,,5,0,-2,1,0,0,rectangle,0,-2,1,0,0,0,-2,1,0,0,0,30,30,77,1,,,,,,,,
,,,,,,,,,,,,,FF,,,,,,,,4.1161,,,,,,,,,,,,,,,,,,,,,,610231089f7e70a4aab3d083,610375bdaac237a00c2c669b,2021-07-29_23h56.28.443,Simcolourproject_2stim_asymm_v5,2020.2.10,Win32,60,61025ae37ef11b136ea224fe,,,,,,,,,3830,74,-33,1,0,0,response3disk,,5,-2,6,1,0,0,rectangle,-2,6,1,0,0,-2,6,1,0,0,0,31,31,120,1,,,,,,,,
,,,,,,,,,,,,,FF,,,,,,,,1.7833,,,,,,,,,,,,,,,,,,,,,,610231089f7e70a4aab3d083,610375bdaac237a00c2c669b,2021-07-29_23h56.28.443,Simcolourproject_2stim_asymm_v5,2020.2.10,Win32,60,61025ae37ef11b136ea224fe,,,,,,,,,458,-33,-85,1,0,0,response5disk,,3,5,-2,1,0,0,rectangle,5,-2,1,0,0,5,-2,1,0,0,0,32,32,80,1,,,,,,,,
,,,,,,,,,,,,,FF,,,,,,,,2.2163,,,,,,,,,,,,,,,,,,,,,,610231089f7e70a4aab3d083,610375bdaac237a00c2c669b,2021-07-29_23h56.28.443,Simcolourproject_2stim_asymm_v5,2020.2.10,Win32,60,61025ae37ef11b136ea224fe,,,,,,,,,3826,27,-102,1,0,0,response3disk,,4,0,-1,1,0,0,rectangle,0,-1,1,0,0,0,-1,1,0,0,0,33,33,89,1,,,,,,,,
,,,,,,,,,,,,,FF,,,,,,,,1.1999,,,,,,,,,,,,,,,,,,,,,,610231089f7e70a4aab3d083,610375bdaac237a00c2c669b,2021-07-29_23h56.28.443,Simcolourproject_2stim_asymm_v5,2020.2.10,Win32,60,61025ae37ef11b136ea224fe,,,,,,,,,299,80,-40,1,0,0,response3disk,,5,7,2,1,0,0,rectangle,7,2,1,0,0,7,2,1,0,0,0,34,34,106,1,,,,,,,,
,,,,,,,,,,,,,FF,,,,,,,,1.2333,,,,,,,,,,,,,,,,,,,,,,610231089f7e70a4aab3d083,610375bdaac237a00c2c669b,2021-07-29_23h56.28.443,Simcolourproject_2stim_asymm_v5,2020.2.10,Win32,60,61025ae37ef11b136ea224fe,,,,,,,,,827,73,-36,1,0,0,response3disk,,5,20,-1,1,0,0,rectangle,20,-1,1,0,0,20,-1,1,0,0,0,35,35,15,1,,,,,,,,
,,,,,,,,,,,,,FF,,,,,,,,2.4495,,,,,,,,,,,,,,,,,,,,,,610231089f7e70a4aab3d083,610375bdaac237a00c2c669b,2021-07-29_23h56.28.443,Simcolourproject_2stim_asymm_v5,2020.2.10,Win32,60,61025ae37ef11b136ea224fe,,,,,,,,,1914,83,-44,1,0,0,response3disk,,5,3,1,1,0,0,rectangle,3,1,1,0,0,3,1,1,0,0,0,36,36,9,1,,,,,,,,
,,,,,,,,,,,,,FF,,,,,,,,0.9168,,,,,,,,,,,,,,,,,,,,,,610231089f7e70a4aab3d083,610375bdaac237a00c2c669b,2021-07-29_23h56.28.443,Simcolourproject_2stim_asymm_v5,2020.2.10,Win32,60,61025ae37ef11b136ea224fe,,,,,,,,,2752,53,29,1,0,0,response1disk,,6,4,5,1,0,0,rectangle,4,5,1,0,0,4,5,1,0,0,0,37,37,2,1,,,,,,,,
,,,,,,,,,,,,,FF,,,,,,,,1.5664,,,,,,,,,,,,,,,,,,,,,,610231089f7e70a4aab3d083,610375bdaac237a00c2c669b,2021-07-29_23h56.28.443,Simcolourproject_2stim_asymm_v5,2020.2.10,Win32,60,61025ae37ef11b136ea224fe,,,,,,,,,212,70,38,1,0,0,response1disk,,6,12,3,1,0,0,rectangle,12,3,1,0,0,12,3,1,0,0,0,38,38,36,1,,,,,,,,
,,,,,,,,,,,,,FF,,,,,,,,1.4303,,,,,,,,,,,,,,,,,,,,,,610231089f7e70a4aab3d083,610375bdaac237a00c2c669b,2021-07-29_23h56.28.443,Simcolourproject_2stim_asymm_v5,2020.2.10,Win32,60,61025ae37ef11b136ea224fe,,,,,,,,,1161,101,40,1,0,0,response1disk,,6,0,11,1,0,0,rectangle,0,11,1,0,0,0,11,1,0,0,0,39,39,81,1,,,,,,,,
,,,,,,,,,,,,,FF,,,,,,,,1.5663,,,,,,,,,,,,,,,,,,,,,,610231089f7e70a4aab3d083,610375bdaac237a00c2c669b,2021-07-29_23h56.28.443,Simcolourproject_2stim_asymm_v5,2020.2.10,Win32,60,61025ae37ef11b136ea224fe,,,,,,,,,1841,95,-51,1,0,0,response3disk,,5,-4,-6,1,0,0,rectangle,-4,-6,1,0,0,-4,-6,1,0,0,0,40,40,45,1,,,,,,,,
,,,,,,,,,,,,,FF,,,,,,,,0.883,,,,,,,,,,,,,,,,,,,,,,610231089f7e70a4aab3d083,610375bdaac237a00c2c669b,2021-07-29_23h56.28.443,Simcolourproject_2stim_asymm_v5,2020.2.10,Win32,60,61025ae37ef11b136ea224fe,,,,,,,,,2805,86,34,1,0,0,response1disk,,6,4,-5,1,0,0,rectangle,4,-5,1,0,0,4,-5,1,0,0,0,41,41,136,1,,,,,,,,
,,,,,,,,,,,,,FF,,,,,,,,1.6332,,,,,,,,,,,,,,,,,,,,,,610231089f7e70a4aab3d083,610375bdaac237a00c2c669b,2021-07-29_23h56.28.443,Simcolourproject_2stim_asymm_v5,2020.2.10,Win32,60,61025ae37ef11b136ea224fe,,,,,,,,,1165,80,33,1,0,0,response1disk,,6,-17,2,1,0,0,rectangle,-17,2,1,0,0,-17,2,1,0,0,0,42,42,118,1,,,,,,,,
,,,,,,,,,,,,,FF,,,,,,,,0.8467,,,,,,,,,,,,,,,,,,,,,,610231089f7e70a4aab3d083,610375bdaac237a00c2c669b,2021-07-29_23h56.28.443,Simcolourproject_2stim_asymm_v5,2020.2.10,Win32,60,61025ae37ef11b136ea224fe,,,,,,,,,2003,27,75,1,0,0,response1disk,,7,5,8,1,0,0,rectangle,5,8,1,0,0,5,8,1,0,0,0,43,43,127,1,,,,,,,,
,,,,,,,,,,,,,FF,,,,,,,,0.933,,,,,,,,,,,,,,,,,,,,,,610231089f7e70a4aab3d083,610375bdaac237a00c2c669b,2021-07-29_23h56.28.443,Simcolourproject_2stim_asymm_v5,2020.2.10,Win32,60,61025ae37ef11b136ea224fe,,,,,,,,,561,84,-42,1,0,0,response3disk,,5,-4,3,1,0,0,rectangle,-4,3,1,0,0,-4,3,1,0,0,0,44,44,85,1,,,,,,,,
,,,,,,,,,,,,,FF,,,,,,,,1.533,,,,,,,,,,,,,,,,,,,,,,610231089f7e70a4aab3d083,610375bdaac237a00c2c669b,2021-07-29_23h56.28.443,Simcolourproject_2stim_asymm_v5,2020.2.10,Win32,60,61025ae37ef11b136ea224fe,,,,,,,,,2545,36,-91,1,0,0,response3disk,,4,-3,-6,1,0,0,rectangle,99,41,1,0,0,1,1,1,0,0,0,45,45,23,1,,response1disk_3,TRUE,6,6,"[101,164,203,168,114,196,85,112,92,215,214,245,46,177,276,63,11,321,25,164]",1.8159,rectangle
,,,,,,,,,,,,,FF,,,,,,,,1.0003,,,,,,,,,,,,,,,,,,,,,,610231089f7e70a4aab3d083,610375bdaac237a00c2c669b,2021-07-29_23h56.28.443,Simcolourproject_2stim_asymm_v5,2020.2.10,Win32,60,61025ae37ef11b136ea224fe,,,,,,,,,3743,-94,35,1,0,0,response7disk,,1,-21,-16,1,0,0,rectangle,-21,-16,1,0,0,-21,-16,1,0,0,0,46,46,71,1,,,,,,,,
,,,,,,,,,,,,,FF,,,,,,,,2.7162,,,,,,,,,,,,,,,,,,,,,,610231089f7e70a4aab3d083,610375bdaac237a00c2c669b,2021-07-29_23h56.28.443,Simcolourproject_2stim_asymm_v5,2020.2.10,Win32,60,61025ae37ef11b136ea224fe,,,,,,,,,357,47,-76,1,0,0,response3disk,,4,-2,-13,1,0,0,rectangle,-2,-13,1,0,0,-2,-13,1,0,0,0,47,47,74,1,,,,,,,,
,,,,,,,,,,,,,FF,,,,,,,,10.1473,,,,,,,,,,,,,,,,,,,,,,610231089f7e70a4aab3d083,610375bdaac237a00c2c669b,2021-07-29_23h56.28.443,Simcolourproject_2stim_asymm_v5,2020.2.10,Win32,60,61025ae37ef11b136ea224fe,,,,,,,,,1881,76,-47,1,0,0,response3disk,,5,5,-7,1,0,0,rectangle,5,-7,1,0,0,5,-7,1,0,0,0,48,48,8,1,,,,,,,,
,,,,,,,,,,,,,FF,,,,,,,,1.9829,,,,,,,,,,,,,,,,,,,,,,610231089f7e70a4aab3d083,610375bdaac237a00c2c669b,2021-07-29_23h56.28.443,Simcolourproject_2stim_asymm_v5,2020.2.10,Win32,60,61025ae37ef11b136ea224fe,,,,,,,,,2557,42,100,1,0,0,response1disk,,7,7,7,1,0,0,rectangle,7,7,1,0,0,7,7,1,0,0,0,49,49,99,1,,,,,,,,
,,,,,,,,,,,,,FF,,,,,,,,0.9498,,,,,,,,,,,,,,,,,,,,,,610231089f7e70a4aab3d083,610375bdaac237a00c2c669b,2021-07-29_23h56.28.443,Simcolourproject_2stim_asymm_v5,2020.2.10,Win32,60,61025ae37ef11b136ea224fe,,,,,,,,,873,36,-71,1,0,0,response3disk,,4,12,-7,1,0,0,rectangle,12,-7,1,0,0,12,-7,1,0,0,0,50,50,105,1,,,,,,,,
,,,,,,,,,,,,,FF,,,,,,,,0.9501,,,,,,,,,,,,,,,,,,,,,,610231089f7e70a4aab3d083,610375bdaac237a00c2c669b,2021-07-29_23h56.28.443,Simcolourproject_2stim_asymm_v5,2020.2.10,Win32,60,61025ae37ef11b136ea224fe,,,,,,,,,3494,96,37,1,0,0,response1disk,,6,27,-4,1,0,0,rectangle,27,-4,1,0,0,27,-4,1,0,0,0,51,51,98,1,,,,,,,,
,,,,,,,,,,,,,FF,,,,,,,,0.9665,,,,,,,,,,,,,,,,,,,,,,610231089f7e70a4aab3d083,610375bdaac237a00c2c669b,2021-07-29_23h56.28.443,Simcolourproject_2stim_asymm_v5,2020.2.10,Win32,60,61025ae37ef11b136ea224fe,,,,,,,,,2534,74,34,1,0,0,response1disk,,6,14,-10,1,0,0,rectangle,14,-10,1,0,0,14,-10,1,0,0,0,52,52,67,1,,,,,,,,
,,,,,,,,,,,,,FF,,,,,,,,0.8832,,,,,,,,,,,,,,,,,,,,,,610231089f7e70a4aab3d083,610375bdaac237a00c2c669b,2021-07-29_23h56.28.443,Simcolourproject_2stim_asymm_v5,2020.2.10,Win32,60,61025ae37ef11b136ea224fe,,,,,,,,,3833,75,31,1,0,0,response1disk,,6,3,-1,1,0,0,rectangle,3,-1,1,0,0,3,-1,1,0,0,0,53,53,108,1,,,,,,,,
,,,,,,,,,,,,,FF,,,,,,,,0.9169,,,,,,,,,,,,,,,,,,,,,,610231089f7e70a4aab3d083,610375bdaac237a00c2c669b,2021-07-29_23h56.28.443,Simcolourproject_2stim_asymm_v5,2020.2.10,Win32,60,61025ae37ef11b136ea224fe,,,,,,,,,2728,30,-89,1,0,0,response3disk,,4,7,6,1,0,0,rectangle,7,6,1,0,0,7,6,1,0,0,0,54,54,79,1,,,,,,,,
,,,,,,,,,,,,,FF,,,,,,,,1.3169,,,,,,,,,,,,,,,,,,,,,,610231089f7e70a4aab3d083,610375bdaac237a00c2c669b,2021-07-29_23h56.28.443,Simcolourproject_2stim_asymm_v5,2020.2.10,Win32,60,61025ae37ef11b136ea224fe,,,,,,,,,1955,72,-38,1,0,0,response3disk,,5,12,-9,1,0,0,rectangle,12,-9,1,0,0,12,-9,1,0,0,0,55,55,73,1,,,,,,,,
,,,,,,,,,,,,,FF,,,,,,,,1.2367,,,,,,,,,,,,,,,,,,,,,,610231089f7e70a4aab3d083,610375bdaac237a00c2c669b,2021-07-29_23h56.28.443,Simcolourproject_2stim_asymm_v5,2020.2.10,Win32,60,61025ae37ef11b136ea224fe,,,,,,,,,2915,47,81,1,0,0,response1disk,,7,19,0,1,0,0,rectangle,19,0,1,0,0,19,0,1,0,0,0,56,56,83,1,,,,,,,,
,,,,,,,,,,,,,FF,,,,,,,,0.8334,,,,,,,,,,,,,,,,,,,,,,610231089f7e70a4aab3d083,610375bdaac237a00c2c669b,2021-07-29_23h56.28.443,Simcolourproject_2stim_asymm_v5,2020.2.10,Win32,60,61025ae37ef11b136ea224fe,,,,,,,,,3669,-69,29,1,0,0,response7disk,,1,-1,-2,1,0,0,rectangle,-1,-2,1,0,0,-1,-2,1,0,0,0,57,57,156,1,,,,,,,,
,,,,,,,,,,,,,FF,,,,,,,,1.7163,,,,,,,,,,,,,,,,,,,,,,610231089f7e70a4aab3d083,610375bdaac237a00c2c669b,2021-07-29_23h56.28.443,Simcolourproject_2stim_asymm_v5,2020.2.10,Win32,60,61025ae37ef11b136ea224fe,,,,,,,,,2268,98,-36,1,0,0,response3disk,,5,22,-5,1,0,0,rectangle,22,-5,1,0,0,22,-5,1,0,0,0,58,58,0,1,,,,,,,,
,,,,,,,,,,,,,FF,,,,,,,,0.933,,,,,,,,,,,,,,,,,,,,,,610231089f7e70a4aab3d083,610375bdaac237a00c2c669b,2021-07-29_23h56.28.443,Simcolourproject_2stim_asymm_v5,2020.2.10,Win32,60,61025ae37ef11b136ea224fe,,,,,,,,,2510,84,46,1,0,0,response1disk,,6,11,-4,1,0,0,rectangle,11,-4,1,0,0,11,-4,1,0,0,0,59,59,131,1,,,,,,,,
,,,,,,,,,,,,,FF,,,,,,,,1.4829,,,,,,,,,,,,,,,,,,,,,,610231089f7e70a4aab3d083,610375bdaac237a00c2c669b,2021-07-29_23h56.28.443,Simcolourproject_2stim_asymm_v5,2020.2.10,Win32,60,61025ae37ef11b136ea224fe,,,,,,,,,1718,69,33,1,0,0,response1disk,,6,12,4,1,0,0,rectangle,12,4,1,0,0,12,4,1,0,0,0,60,60,28,1,,,,,,,,
,,,,,,,,,,,,,FF,,,,,,,,2.6993,,,,,,,,,,,,,,,,,,,,,,610231089f7e70a4aab3d083,610375bdaac237a00c2c669b,2021-07-29_23h56.28.443,Simcolourproject_2stim_asymm_v5,2020.2.10,Win32,60,61025ae37ef11b136ea224fe,,,,,,,,,1058,-78,-47,1,0,0,response5disk,,2,-5,1,1,0,0,rectangle,-5,1,1,0,0,-5,1,1,0,0,0,61,61,34,1,,,,,,,,
,,,,,,,,,,,,,FF,,,,,,,,1.1331,,,,,,,,,,,,,,,,,,,,,,610231089f7e70a4aab3d083,610375bdaac237a00c2c669b,2021-07-29_23h56.28.443,Simcolourproject_2stim_asymm_v5,2020.2.10,Win32,60,61025ae37ef11b136ea224fe,,,,,,,,,4085,-42,-95,1,0,0,response5disk,,3,12,-2,1,0,0,rectangle,-40,-87,1,0,0,-8,0,1,0,0,0,62,62,92,1,,response5disk_3,TRUE,3,3,"[101,164,203,168,114,196,85,112,92,215,214,245,46,177,276,63,11,321,25,164]",1.8857,rectangle
,,,,,,,,,,,,,FF,,,,,,,,1.0502,,,,,,,,,,,,,,,,,,,,,,610231089f7e70a4aab3d083,610375bdaac237a00c2c669b,2021-07-29_23h56.28.443,Simcolourproject_2stim_asymm_v5,2020.2.10,Win32,60,61025ae37ef11b136ea224fe,,,,,,,,,3475,-74,39,1,0,0,response7disk,,1,1,-6,1,0,0,rectangle,1,-6,1,0,0,1,-6,1,0,0,0,63,63,155,1,,,,,,,,
,,,,,,,,,,,,,FF,,,,,,,,3.8161,,,,,,,,,,,,,,,,,,,,,,610231089f7e70a4aab3d083,610375bdaac237a00c2c669b,2021-07-29_23h56.28.443,Simcolourproject_2stim_asymm_v5,2020.2.10,Win32,60,61025ae37ef11b136ea224fe,,,,,,,,,515,75,-49,1,0,0,response3disk,,5,2,-10,1,0,0,rectangle,2,-10,1,0,0,2,-10,1,0,0,0,64,64,148,1,,,,,,,,
,,,,,,,,,,,,,FF,,,,,,,,2.5496,,,,,,,,,,,,,,,,,,,,,,610231089f7e70a4aab3d083,610375bdaac237a00c2c669b,2021-07-29_23h56.28.443,Simcolourproject_2stim_asymm_v5,2020.2.10,Win32,60,61025ae37ef11b136ea224fe,,,,,,,,,2123,86,43,1,0,0,response1disk,,6,12,0,1,0,0,rectangle,12,0,1,0,0,12,0,1,0,0,0,65,65,24,1,,,,,,,,
,,,,,,,,,,,,,FF,,,,,,,,1.0501,,,,,,,,,,,,,,,,,,,,,,610231089f7e70a4aab3d083,610375bdaac237a00c2c669b,2021-07-29_23h56.28.443,Simcolourproject_2stim_asymm_v5,2020.2.10,Win32,60,61025ae37ef11b136ea224fe,,,,,,,,,1347,46,-85,1,0,0,response3disk,,4,-10,-3,1,0,0,rectangle,-10,-3,1,0,0,-10,-3,1,0,0,0,66,66,37,1,,,,,,,,
,,,,,,,,,,,,,FF,,,,,,,,1.1699,,,,,,,,,,,,,,,,,,,,,,610231089f7e70a4aab3d083,610375bdaac237a00c2c669b,2021-07-29_23h56.28.443,Simcolourproject_2stim_asymm_v5,2020.2.10,Win32,60,61025ae37ef11b136ea224fe,,,,,,,,,1088,33,68,1,0,0,response1disk,,7,6,-2,1,0,0,rectangle,6,-2,1,0,0,6,-2,1,0,0,0,67,67,143,1,,,,,,,,
,,,,,,,,,,,,,FF,,,,,,,,0.9529,,,,,,,,,,,,,,,,,,,,,,610231089f7e70a4aab3d083,610375bdaac237a00c2c669b,2021-07-29_23h56.28.443,Simcolourproject_2stim_asymm_v5,2020.2.10,Win32,60,61025ae37ef11b136ea224fe,,,,,,,,,1526,-28,-72,1,0,0,response5disk,,3,-1,3,1,0,0,rectangle,-1,3,1,0,0,-1,3,1,0,0,0,68,68,21,1,,,,,,,,
,,,,,,,,,,,,,FF,,,,,,,,0.703,,,,,,,,,,,,,,,,,,,,,,610231089f7e70a4aab3d083,610375bdaac237a00c2c669b,2021-07-29_23h56.28.443,Simcolourproject_2stim_asymm_v5,2020.2.10,Win32,60,61025ae37ef11b136ea224fe,,,,,,,,,4140,-43,81,1,0,0,response7disk,,0,-13,9,1,0,0,rectangle,-13,9,1,0,0,-13,9,1,0,0,0,69,69,119,1,,,,,,,,
,,,,,,,,,,,,,FF,,,,,,,,2.4829,,,,,,,,,,,,,,,,,,,,,,610231089f7e70a4aab3d083,610375bdaac237a00c2c669b,2021-07-29_23h56.28.443,Simcolourproject_2stim_asymm_v5,2020.2.10,Win32,60,61025ae37ef11b136ea224fe,,,,,,,,,235,89,-44,1,0,0,response3disk,,5,-4,-3,1,0,0,rectangle,-4,-3,1,0,0,-4,-3,1,0,0,0,70,70,54,1,,,,,,,,
,,,,,,,,,,,,,FF,,,,,,,,2.0497,,,,,,,,,,,,,,,,,,,,,,610231089f7e70a4aab3d083,610375bdaac237a00c2c669b,2021-07-29_23h56.28.443,Simcolourproject_2stim_asymm_v5,2020.2.10,Win32,60,61025ae37ef11b136ea224fe,,,,,,,,,3996,-41,-91,1,0,0,response5disk,,3,-1,-7,1,0,0,rectangle,-1,-7,1,0,0,-1,-7,1,0,0,0,71,71,6,1,,,,,,,,
,,,,,,,,,,,,,FF,,,,,,,,1.2866,,,,,,,,,,,,,,,,,,,,,,610231089f7e70a4aab3d083,610375bdaac237a00c2c669b,2021-07-29_23h56.28.443,Simcolourproject_2stim_asymm_v5,2020.2.10,Win32,60,61025ae37ef11b136ea224fe,,,,,,,,,3841,71,-36,1,0,0,response3disk,,5,19,-1,1,0,0,rectangle,19,-1,1,0,0,19,-1,1,0,0,0,72,72,47,1,,,,,,,,
,,,,,,,,,,,,,FF,,,,,,,,1.1166,,,,,,,,,,,,,,,,,,,,,,610231089f7e70a4aab3d083,610375bdaac237a00c2c669b,2021-07-29_23h56.28.443,Simcolourproject_2stim_asymm_v5,2020.2.10,Win32,60,61025ae37ef11b136ea224fe,,,,,,,,,3686,100,-40,1,0,0,response3disk,,5,17,-7,1,0,0,rectangle,17,-7,1,0,0,17,-7,1,0,0,0,73,73,101,1,,,,,,,,
,,,,,,,,,,,,,FF,,,,,,,,0.9167,,,,,,,,,,,,,,,,,,,,,,610231089f7e70a4aab3d083,610375bdaac237a00c2c669b,2021-07-29_23h56.28.443,Simcolourproject_2stim_asymm_v5,2020.2.10,Win32,60,61025ae37ef11b136ea224fe,,,,,,,,,3779,32,-93,1,0,0,response3disk,,4,-26,4,1,0,0,rectangle,-26,4,1,0,0,-26,4,1,0,0,0,74,74,139,1,,,,,,,,
,,,,,,,,,,,,,FF,,,,,,,,1.1165,,,,,,,,,,,,,,,,,,,,,,610231089f7e70a4aab3d083,610375bdaac237a00c2c669b,2021-07-29_23h56.28.443,Simcolourproject_2stim_asymm_v5,2020.2.10,Win32,60,61025ae37ef11b136ea224fe,,,,,,,,,4108,26,-97,1,0,0,response3disk,,4,-13,-3,1,0,0,rectangle,-13,-3,1,0,0,-13,-3,1,0,0,0,75,75,44,1,,,,,,,,
,,,,,,,,,,,,,FF,,,,,,,,1.3196,,,,,,,,,,,,,,,,,,,,,,610231089f7e70a4aab3d083,610375bdaac237a00c2c669b,2021-07-29_23h56.28.443,Simcolourproject_2stim_asymm_v5,2020.2.10,Win32,60,61025ae37ef11b136ea224fe,,,,,,,,,3333,91,-39,1,0,0,response3disk,,5,8,-7,1,0,0,rectangle,8,-7,1,0,0,8,-7,1,0,0,0,76,76,41,1,,,,,,,,
,,,,,,,,,,,,,FF,,,,,,,,2.2503,,,,,,,,,,,,,,,,,,,,,,610231089f7e70a4aab3d083,610375bdaac237a00c2c669b,2021-07-29_23h56.28.443,Simcolourproject_2stim_asymm_v5,2020.2.10,Win32,60,61025ae37ef11b136ea224fe,,,,,,,,,3411,84,34,1,0,0,response1disk,,6,-3,-11,1,0,0,rectangle,-3,-11,1,0,0,-3,-11,1,0,0,0,77,77,35,1,,,,,,,,
,,,,,,,,,,,,,FF,,,,,,,,3.3161,,,,,,,,,,,,,,,,,,,,,,610231089f7e70a4aab3d083,610375bdaac237a00c2c669b,2021-07-29_23h56.28.443,Simcolourproject_2stim_asymm_v5,2020.2.10,Win32,60,61025ae37ef11b136ea224fe,,,,,,,,,3827,91,41,1,0,0,response1disk,,6,18,1,1,0,0,rectangle,18,1,1,0,0,18,1,1,0,0,0,78,78,140,1,,,,,,,,
,,,,,,,,,,,,,FF,,,,,,,,1.2829,,,,,,,,,,,,,,,,,,,,,,610231089f7e70a4aab3d083,610375bdaac237a00c2c669b,2021-07-29_23h56.28.443,Simcolourproject_2stim_asymm_v5,2020.2.10,Win32,60,61025ae37ef11b136ea224fe,,,,,,,,,1832,42,-85,1,0,0,response3disk,,4,-7,-6,1,0,0,rectangle,-7,-6,1,0,0,-7,-6,1,0,0,0,79,79,104,1,,,,,,,,
,,,,,,,,,,,,,FF,,,,,,,,1.6333,,,,,,,,,,,,,,,,,,,,,,610231089f7e70a4aab3d083,610375bdaac237a00c2c669b,2021-07-29_23h56.28.443,Simcolourproject_2stim_asymm_v5,2020.2.10,Win32,60,61025ae37ef11b136ea224fe,,,,,,,,,4329,-75,-42,1,0,0,response5disk,,2,-13,0,1,0,0,rectangle,-13,0,1,0,0,-13,0,1,0,0,0,80,80,130,1,,,,,,,,
,,,,,,,,,,,,,FF,,,,,,,,1.7161,,,,,,,,,,,,,,,,,,,,,,610231089f7e70a4aab3d083,610375bdaac237a00c2c669b,2021-07-29_23h56.28.443,Simcolourproject_2stim_asymm_v5,2020.2.10,Win32,60,61025ae37ef11b136ea224fe,,,,,,,,,4159,65,-40,1,0,0,response3disk,,5,-9,-2,1,0,0,rectangle,-9,-2,1,0,0,-9,-2,1,0,0,0,81,81,25,1,,,,,,,,
,,,,,,,,,,,,,FF,,,,,,,,3.3494,,,,,,,,,,,,,,,,,,,,,,610231089f7e70a4aab3d083,610375bdaac237a00c2c669b,2021-07-29_23h56.28.443,Simcolourproject_2stim_asymm_v5,2020.2.10,Win32,60,61025ae37ef11b136ea224fe,,,,,,,,,1392,33,-96,1,0,0,response3disk,,4,-8,-2,1,0,0,rectangle,-8,-2,1,0,0,-8,-2,1,0,0,0,82,82,126,1,,,,,,,,
,,,,,,,,,,,,,FF,,,,,,,,1.8664,,,,,,,,,,,,,,,,,,,,,,610231089f7e70a4aab3d083,610375bdaac237a00c2c669b,2021-07-29_23h56.28.443,Simcolourproject_2stim_asymm_v5,2020.2.10,Win32,60,61025ae37ef11b136ea224fe,,,,,,,,,2706,75,-39,1,0,0,response3disk,,5,6,7,1,0,0,rectangle,6,7,1,0,0,6,7,1,0,0,0,83,83,153,1,,,,,,,,
,,,,,,,,,,,,,FF,,,,,,,,1.0365,,,,,,,,,,,,,,,,,,,,,,610231089f7e70a4aab3d083,610375bdaac237a00c2c669b,2021-07-29_23h56.28.443,Simcolourproject_2stim_asymm_v5,2020.2.10,Win32,60,61025ae37ef11b136ea224fe,,,,,,,,,26,82,-49,1,0,0,response3disk,,5,4,-6,1,0,0,rectangle,46,101,1,0,0,18,-1,1,0,0,0,84,84,114,1,,response1disk_3,TRUE,7,7,"[101,164,203,168,114,196,85,112,92,215,214,245,46,177,276,63,11,321,25,164]",1.7495,rectangle
,,,,,,,,,,,,,FF,,,,,,,,1.3164,,,,,,,,,,,,,,,,,,,,,,610231089f7e70a4aab3d083,610375bdaac237a00c2c669b,2021-07-29_23h56.28.443,Simcolourproject_2stim_asymm_v5,2020.2.10,Win32,60,61025ae37ef11b136ea224fe,,,,,,,,,2449,72,53,1,0,0,response1disk,,6,17,1,1,0,0,rectangle,17,1,1,0,0,17,1,1,0,0,0,85,85,61,1,,,,,,,,
,,,,,,,,,,,,,FF,,,,,,,,0.9499,,,,,,,,,,,,,,,,,,,,,,610231089f7e70a4aab3d083,610375bdaac237a00c2c669b,2021-07-29_23h56.28.443,Simcolourproject_2stim_asymm_v5,2020.2.10,Win32,60,61025ae37ef11b136ea224fe,,,,,,,,,2032,-72,-53,1,0,0,response5disk,,2,-8,5,1,0,0,rectangle,-8,5,1,0,0,-8,5,1,0,0,0,86,86,113,1,,,,,,,,
,,,,,,,,,,,,,FF,,,,,,,,1.3165,,,,,,,,,,,,,,,,,,,,,,610231089f7e70a4aab3d083,610375bdaac237a00c2c669b,2021-07-29_23h56.28.443,Simcolourproject_2stim_asymm_v5,2020.2.10,Win32,60,61025ae37ef11b136ea224fe,,,,,,,,,1130,66,35,1,0,0,response1disk,,6,-2,5,1,0,0,rectangle,-2,5,1,0,0,-2,5,1,0,0,0,87,87,72,1,,,,,,,,
,,,,,,,,,,,,,FF,,,,,,,,2.5165,,,,,,,,,,,,,,,,,,,,,,610231089f7e70a4aab3d083,610375bdaac237a00c2c669b,2021-07-29_23h56.28.443,Simcolourproject_2stim_asymm_v5,2020.2.10,Win32,60,61025ae37ef11b136ea224fe,,,,,,,,,735,35,-81,1,0,0,response3disk,,4,0,-5,1,0,0,rectangle,0,-5,1,0,0,0,-5,1,0,0,0,88,88,129,1,,,,,,,,
,,,,,,,,,,,,,FF,,,,,,,,1.7165,,,,,,,,,,,,,,,,,,,,,,610231089f7e70a4aab3d083,610375bdaac237a00c2c669b,2021-07-29_23h56.28.443,Simcolourproject_2stim_asymm_v5,2020.2.10,Win32,60,61025ae37ef11b136ea224fe,,,,,,,,,3832,75,-26,1,0,0,response3disk,,5,0,0,1,0,0,rectangle,0,0,1,0,0,0,0,1,0,0,0,89,89,94,1,,,,,,,,
,,,,,,,,,,,,,FF,,,,,,,,1.1502,,,,,,,,,,,,,,,,,,,,,,610231089f7e70a4aab3d083,610375bdaac237a00c2c669b,2021-07-29_23h56.28.443,Simcolourproject_2stim_asymm_v5,2020.2.10,Win32,60,61025ae37ef11b136ea224fe,,,,,,,,,2467,85,-49,1,0,0,response3disk,,5,4,-8,1,0,0,rectangle,4,-8,1,0,0,4,-8,1,0,0,0,90,90,52,1,,,,,,,,
,,,,,,,,,,,,,FF,,,,,,,,1.4529,,,,,,,,,,,,,,,,,,,,,,610231089f7e70a4aab3d083,610375bdaac237a00c2c669b,2021-07-29_23h56.28.443,Simcolourproject_2stim_asymm_v5,2020.2.10,Win32,60,61025ae37ef11b136ea224fe,,,,,,,,,2713,-45,-78,1,0,0,response5disk,,3,3,1,1,0,0,rectangle,-78,-43,1,0,0,-22,-6,1,0,0,0,91,91,111,1,,response5disk_3,TRUE,2,2,"[101,164,203,168,114,196,85,112,92,215,214,245,46,177,276,63,11,321,25,164]",1.3829,rectangle
,,,,,,,,,,,,,FF,,,,,,,,1.0169,,,,,,,,,,,,,,,,,,,,,,610231089f7e70a4aab3d083,610375bdaac237a00c2c669b,2021-07-29_23h56.28.443,Simcolourproject_2stim_asymm_v5,2020.2.10,Win32,60,61025ae37ef11b136ea224fe,,,,,,,,,316,67,35,1,0,0,response1disk,,6,12,9,1,0,0,rectangle,12,9,1,0,0,12,9,1,0,0,0,92,92,22,1,,,,,,,,
,,,,,,,,,,,,,FF,,,,,,,,1.1367,,,,,,,,,,,,,,,,,,,,,,610231089f7e70a4aab3d083,610375bdaac237a00c2c669b,2021-07-29_23h56.28.443,Simcolourproject_2stim_asymm_v5,2020.2.10,Win32,60,61025ae37ef11b136ea224fe,,,,,,,,,1778,73,27,1,0,0,response1disk,,6,13,-1,1,0,0,rectangle,13,-1,1,0,0,13,-1,1,0,0,0,93,93,75,1,,,,,,,,
,,,,,,,,,,,,,FF,,,,,,,,0.8331,,,,,,,,,,,,,,,,,,,,,,610231089f7e70a4aab3d083,610375bdaac237a00c2c669b,2021-07-29_23h56.28.443,Simcolourproject_2stim_asymm_v5,2020.2.10,Win32,60,61025ae37ef11b136ea224fe,,,,,,,,,1259,48,28,1,0,0,response1disk,,6,-4,-8,1,0,0,rectangle,-4,-8,1,0,0,-4,-8,1,0,0,0,94,94,134,1,,,,,,,,
,,,,,,,,,,,,,FF,,,,,,,,0.6836,,,,,,,,,,,,,,,,,,,,,,610231089f7e70a4aab3d083,610375bdaac237a00c2c669b,2021-07-29_23h56.28.443,Simcolourproject_2stim_asymm_v5,2020.2.10,Win32,60,61025ae37ef11b136ea224fe,,,,,,,,,3540,34,76,1,0,0,response1disk,,7,-10,0,1,0,0,rectangle,-10,0,1,0,0,-10,0,1,0,0,0,95,95,31,1,,,,,,,,
,,,,,,,,,,,,,FF,,,,,,,,3.0364,,,,,,,,,,,,,,,,,,,,,,610231089f7e70a4aab3d083,610375bdaac237a00c2c669b,2021-07-29_23h56.28.443,Simcolourproject_2stim_asymm_v5,2020.2.10,Win32,60,61025ae37ef11b136ea224fe,,,,,,,,,4319,71,-44,1,0,0,response3disk,,5,10,-12,1,0,0,rectangle,10,-12,1,0,0,10,-12,1,0,0,0,96,96,14,1,,,,,,,,
,,,,,,,,,,,,,FF,,,,,,,,0.8506,,,,,,,,,,,,,,,,,,,,,,610231089f7e70a4aab3d083,610375bdaac237a00c2c669b,2021-07-29_23h56.28.443,Simcolourproject_2stim_asymm_v5,2020.2.10,Win32,60,61025ae37ef11b136ea224fe,,,,,,,,,4314,66,24,1,0,0,response1disk,,6,12,-3,1,0,0,rectangle,12,-3,1,0,0,12,-3,1,0,0,0,97,97,16,1,,,,,,,,
,,,,,,,,,,,,,FF,,,,,,,,1.1003,,,,,,,,,,,,,,,,,,,,,,610231089f7e70a4aab3d083,610375bdaac237a00c2c669b,2021-07-29_23h56.28.443,Simcolourproject_2stim_asymm_v5,2020.2.10,Win32,60,61025ae37ef11b136ea224fe,,,,,,,,,764,74,38,1,0,0,response1disk,,6,17,1,1,0,0,rectangle,17,1,1,0,0,17,1,1,0,0,0,98,98,7,1,,,,,,,,
,,,,,,,,,,,,,FF,,,,,,,,1.217,,,,,,,,,,,,,,,,,,,,,,610231089f7e70a4aab3d083,610375bdaac237a00c2c669b,2021-07-29_23h56.28.443,Simcolourproject_2stim_asymm_v5,2020.2.10,Win32,60,61025ae37ef11b136ea224fe,,,,,,,,,1246,83,-40,1,0,0,response3disk,,5,19,-10,1,0,0,rectangle,19,-10,1,0,0,19,-10,1,0,0,0,99,99,51,1,,,,,,,,
,,,,,,,,,,,,,FF,,,,,,,,1.3968,,,,,,,,,,,,,,,,,,,,,,610231089f7e70a4aab3d083,610375bdaac237a00c2c669b,2021-07-29_23h56.28.443,Simcolourproject_2stim_asymm_v5,2020.2.10,Win32,60,61025ae37ef11b136ea224fe,,,,,,,,,423,79,-37,1,0,0,response3disk,,5,7,-6,1,0,0,rectangle,99,28,1,0,0,10,-11,1,0,0,0,100,100,103,1,,response1disk_3,TRUE,6,6,"[101,164,203,168,114,196,85,112,92,215,214,245,46,177,276,63,11,321,25,164]",1.3163,rectangle
,,,,,,,,,,,,,FF,,,,,,,,1.533,,,,,,,,,,,,,,,,,,,,,,610231089f7e70a4aab3d083,610375bdaac237a00c2c669b,2021-07-29_23h56.28.443,Simcolourproject_2stim_asymm_v5,2020.2.10,Win32,60,61025ae37ef11b136ea224fe,,,,,,,,,2168,45,-74,1,0,0,response3disk,,4,-4,-15,1,0,0,rectangle,-4,-15,1,0,0,-4,-15,1,0,0,0,101,101,150,1,,,,,,,,
,,,,,,,,,,,,,FF,,,,,,,,3.7825,,,,,,,,,,,,,,,,,,,,,,610231089f7e70a4aab3d083,610375bdaac237a00c2c669b,2021-07-29_23h56.28.443,Simcolourproject_2stim_asymm_v5,2020.2.10,Win32,60,61025ae37ef11b136ea224fe,,,,,,,,,1406,76,20,1,0,0,response1disk,,6,1,-5,1,0,0,rectangle,1,-5,1,0,0,1,-5,1,0,0,0,102,102,122,1,,,,,,,,
,,,,,,,,,,,,,FF,,,,,,,,0.8168,,,,,,,,,,,,,,,,,,,,,,610231089f7e70a4aab3d083,610375bdaac237a00c2c669b,2021-07-29_23h56.28.443,Simcolourproject_2stim_asymm_v5,2020.2.10,Win32,60,61025ae37ef11b136ea224fe,,,,,,,,,3618,82,28,1,0,0,response1disk,,6,16,-4,1,0,0,rectangle,16,-4,1,0,0,16,-4,1,0,0,0,103,103,62,1,,,,,,,,
,,,,,,,,,,,,,FF,,,,,,,,0.8667,,,,,,,,,,,,,,,,,,,,,,610231089f7e70a4aab3d083,610375bdaac237a00c2c669b,2021-07-29_23h56.28.443,Simcolourproject_2stim_asymm_v5,2020.2.10,Win32,60,61025ae37ef11b136ea224fe,,,,,,,,,3406,84,38,1,0,0,response1disk,,6,24,4,1,0,0,rectangle,24,4,1,0,0,24,4,1,0,0,0,104,104,123,1,,,,,,,,
,,,,,,,,,,,,,FF,,,,,,,,0.8168,,,,,,,,,,,,,,,,,,,,,,610231089f7e70a4aab3d083,610375bdaac237a00c2c669b,2021-07-29_23h56.28.443,Simcolourproject_2stim_asymm_v5,2020.2.10,Win32,60,61025ae37ef11b136ea224fe,,,,,,,,,694,73,42,1,0,0,response1disk,,6,15,-1,1,0,0,rectangle,15,-1,1,0,0,15,-1,1,0,0,0,105,105,91,1,,,,,,,,
,,,,,,,,,,,,,FF,,,,,,,,0.7996,,,,,,,,,,,,,,,,,,,,,,610231089f7e70a4aab3d083,610375bdaac237a00c2c669b,2021-07-29_23h56.28.443,Simcolourproject_2stim_asymm_v5,2020.2.10,Win32,60,61025ae37ef11b136ea224fe,,,,,,,,,3652,34,83,1,0,0,response1disk,,7,7,1,1,0,0,rectangle,7,1,1,0,0,7,1,1,0,0,0,106,106,59,1,,,,,,,,
,,,,,,,,,,,,,FF,,,,,,,,1.0033,,,,,,,,,,,,,,,,,,,,,,610231089f7e70a4aab3d083,610375bdaac237a00c2c669b,2021-07-29_23h56.28.443,Simcolourproject_2stim_asymm_v5,2020.2.10,Win32,60,61025ae37ef11b136ea224fe,,,,,,,,,3817,-29,-60,1,0,0,response5disk,,3,5,-5,1,0,0,rectangle,5,-5,1,0,0,5,-5,1,0,0,0,107,107,48,1,,,,,,,,
,,,,,,,,,,,,,FF,,,,,,,,1.3034,,,,,,,,,,,,,,,,,,,,,,610231089f7e70a4aab3d083,610375bdaac237a00c2c669b,2021-07-29_23h56.28.443,Simcolourproject_2stim_asymm_v5,2020.2.10,Win32,60,61025ae37ef11b136ea224fe,,,,,,,,,1666,57,-83,1,0,0,response3disk,,4,12,-6,1,0,0,rectangle,12,-6,1,0,0,12,-6,1,0,0,0,108,108,121,1,,,,,,,,
,,,,,,,,,,,,,FF,,,,,,,,5.3985,,,,,,,,,,,,,,,,,,,,,,610231089f7e70a4aab3d083,610375bdaac237a00c2c669b,2021-07-29_23h56.28.443,Simcolourproject_2stim_asymm_v5,2020.2.10,Win32,60,61025ae37ef11b136ea224fe,,,,,,,,,2566,77,-35,1,0,0,response3disk,,5,14,-1,1,0,0,rectangle,14,-1,1,0,0,14,-1,1,0,0,0,109,109,60,1,,,,,,,,
,,,,,,,,,,,,,FF,,,,,,,,0.8321,,,,,,,,,,,,,,,,,,,,,,610231089f7e70a4aab3d083,610375bdaac237a00c2c669b,2021-07-29_23h56.28.443,Simcolourproject_2stim_asymm_v5,2020.2.10,Win32,60,61025ae37ef11b136ea224fe,,,,,,,,,10,39,-81,1,0,0,response3disk,,4,1,1,1,0,0,rectangle,1,1,1,0,0,1,1,1,0,0,0,110,110,124,1,,,,,,,,
,,,,,,,,,,,,,FF,,,,,,,,1.0501,,,,,,,,,,,,,,,,,,,,,,610231089f7e70a4aab3d083,610375bdaac237a00c2c669b,2021-07-29_23h56.28.443,Simcolourproject_2stim_asymm_v5,2020.2.10,Win32,60,61025ae37ef11b136ea224fe,,,,,,,,,3794,84,31,1,0,0,response1disk,,6,26,4,1,0,0,rectangle,-31,86,1,0,0,2,0,1,0,0,0,111,111,68,1,,response7disk_3,TRUE,0,0,"[101,164,203,168,114,196,85,112,92,215,214,245,46,177,276,63,11,321,25,164]",1.3155,rectangle
,,,,,,,,,,,,,FF,,,,,,,,1.6497,,,,,,,,,,,,,,,,,,,,,,610231089f7e70a4aab3d083,610375bdaac237a00c2c669b,2021-07-29_23h56.28.443,Simcolourproject_2stim_asymm_v5,2020.2.10,Win32,60,61025ae37ef11b136ea224fe,,,,,,,,,56,67,-43,1,0,0,response3disk,,5,-2,-1,1,0,0,rectangle,-2,-1,1,0,0,-2,-1,1,0,0,0,112,112,17,1,,,,,,,,
,,,,,,,,,,,,,FF,,,,,,,,1.5333,,,,,,,,,,,,,,,,,,,,,,610231089f7e70a4aab3d083,610375bdaac237a00c2c669b,2021-07-29_23h56.28.443,Simcolourproject_2stim_asymm_v5,2020.2.10,Win32,60,61025ae37ef11b136ea224fe,,,,,,,,,2235,-74,35,1,0,0,response7disk,,1,-6,1,1,0,0,rectangle,-95,27,1,0,0,-20,-4,1,0,0,0,113,113,78,1,,response7disk_3,TRUE,1,1,"[101,164,203,168,114,196,85,112,92,215,214,245,46,177,276,63,11,321,25,164]",1.4328,rectangle
,,,,,,,,,,,,,FF,,,,,,,,3.316,,,,,,,,,,,,,,,,,,,,,,610231089f7e70a4aab3d083,610375bdaac237a00c2c669b,2021-07-29_23h56.28.443,Simcolourproject_2stim_asymm_v5,2020.2.10,Win32,60,61025ae37ef11b136ea224fe,,,,,,,,,1548,82,-25,1,0,0,response3disk,,5,4,5,1,0,0,rectangle,4,5,1,0,0,4,5,1,0,0,0,114,114,100,1,,,,,,,,
,,,,,,,,,,,,,FF,,,,,,,,0.9163,,,,,,,,,,,,,,,,,,,,,,610231089f7e70a4aab3d083,610375bdaac237a00c2c669b,2021-07-29_23h56.28.443,Simcolourproject_2stim_asymm_v5,2020.2.10,Win32,60,61025ae37ef11b136ea224fe,,,,,,,,,3903,83,35,1,0,0,response1disk,,6,12,-5,1,0,0,rectangle,12,-5,1,0,0,12,-5,1,0,0,0,115,115,142,1,,,,,,,,
,,,,,,,,,,,,,FF,,,,,,,,1.0667,,,,,,,,,,,,,,,,,,,,,,610231089f7e70a4aab3d083,610375bdaac237a00c2c669b,2021-07-29_23h56.28.443,Simcolourproject_2stim_asymm_v5,2020.2.10,Win32,60,61025ae37ef11b136ea224fe,,,,,,,,,2214,71,-38,1,0,0,response3disk,,5,3,-11,1,0,0,rectangle,3,-11,1,0,0,3,-11,1,0,0,0,116,116,151,1,,,,,,,,
,,,,,,,,,,,,,FF,,,,,,,,0.8502,,,,,,,,,,,,,,,,,,,,,,610231089f7e70a4aab3d083,610375bdaac237a00c2c669b,2021-07-29_23h56.28.443,Simcolourproject_2stim_asymm_v5,2020.2.10,Win32,60,61025ae37ef11b136ea224fe,,,,,,,,,4178,52,30,1,0,0,response1disk,,6,3,6,1,0,0,rectangle,3,6,1,0,0,3,6,1,0,0,0,117,117,93,1,,,,,,,,
,,,,,,,,,,,,,FF,,,,,,,,1.0831,,,,,,,,,,,,,,,,,,,,,,610231089f7e70a4aab3d083,610375bdaac237a00c2c669b,2021-07-29_23h56.28.443,Simcolourproject_2stim_asymm_v5,2020.2.10,Win32,60,61025ae37ef11b136ea224fe,,,,,,,,,552,53,-78,1,0,0,response3disk,,4,-5,-4,1,0,0,rectangle,-5,-4,1,0,0,-5,-4,1,0,0,0,118,118,55,1,,,,,,,,
,,,,,,,,,,,,,FF,,,,,,,,1.3329,,,,,,,,,,,,,,,,,,,,,,610231089f7e70a4aab3d083,610375bdaac237a00c2c669b,2021-07-29_23h56.28.443,Simcolourproject_2stim_asymm_v5,2020.2.10,Win32,60,61025ae37ef11b136ea224fe,,,,,,,,,3202,-86,-26,1,0,0,response5disk,,2,-16,-3,1,0,0,rectangle,-16,-3,1,0,0,-16,-3,1,0,0,0,119,119,158,1,,,,,,,,
,,,,,,,,,,,,,FF,,,,,,,,3.2328,,,,,,,,,,,,,,,,,,,,,,610231089f7e70a4aab3d083,610375bdaac237a00c2c669b,2021-07-29_23h56.28.443,Simcolourproject_2stim_asymm_v5,2020.2.10,Win32,60,61025ae37ef11b136ea224fe,,,,,,,,,1321,35,-69,1,0,0,response3disk,,4,2,-3,1,0,0,rectangle,2,-3,1,0,0,2,-3,1,0,0,0,120,120,159,1,,,,,,,,
,,,,,,,,,,,,,FF,,,,,,,,0.7836,,,,,,,,,,,,,,,,,,,,,,610231089f7e70a4aab3d083,610375bdaac237a00c2c669b,2021-07-29_23h56.28.443,Simcolourproject_2stim_asymm_v5,2020.2.10,Win32,60,61025ae37ef11b136ea224fe,,,,,,,,,1720,62,24,1,0,0,response1disk,,6,12,3,1,0,0,rectangle,12,3,1,0,0,12,3,1,0,0,0,121,121,141,1,,,,,,,,
,,,,,,,,,,,,,FF,,,,,,,,0.9533,,,,,,,,,,,,,,,,,,,,,,610231089f7e70a4aab3d083,610375bdaac237a00c2c669b,2021-07-29_23h56.28.443,Simcolourproject_2stim_asymm_v5,2020.2.10,Win32,60,61025ae37ef11b136ea224fe,,,,,,,,,3075,81,47,1,0,0,response1disk,,6,15,6,1,0,0,rectangle,15,6,1,0,0,15,6,1,0,0,0,122,122,53,1,,,,,,,,
,,,,,,,,,,,,,FF,,,,,,,,1.0502,,,,,,,,,,,,,,,,,,,,,,610231089f7e70a4aab3d083,610375bdaac237a00c2c669b,2021-07-29_23h56.28.443,Simcolourproject_2stim_asymm_v5,2020.2.10,Win32,60,61025ae37ef11b136ea224fe,,,,,,,,,374,39,-85,1,0,0,response3disk,,4,-5,-2,1,0,0,rectangle,-5,-2,1,0,0,-5,-2,1,0,0,0,123,123,50,1,,,,,,,,
,,,,,,,,,,,,,FF,,,,,,,,1.1333,,,,,,,,,,,,,,,,,,,,,,610231089f7e70a4aab3d083,610375bdaac237a00c2c669b,2021-07-29_23h56.28.443,Simcolourproject_2stim_asymm_v5,2020.2.10,Win32,60,61025ae37ef11b136ea224fe,,,,,,,,,2186,81,-25,1,0,0,response3disk,,5,15,1,1,0,0,rectangle,15,1,1,0,0,15,1,1,0,0,0,124,124,66,1,,,,,,,,
,,,,,,,,,,,,,FF,,,,,,,,1.7664,,,,,,,,,,,,,,,,,,,,,,610231089f7e70a4aab3d083,610375bdaac237a00c2c669b,2021-07-29_23h56.28.443,Simcolourproject_2stim_asymm_v5,2020.2.10,Win32,60,61025ae37ef11b136ea224fe,,,,,,,,,267,66,-26,1,0,0,response3disk,,5,27,4,1,0,0,rectangle,27,4,1,0,0,27,4,1,0,0,0,125,125,32,1,,,,,,,,
,,,,,,,,,,,,,FF,,,,,,,,0.8664,,,,,,,,,,,,,,,,,,,,,,610231089f7e70a4aab3d083,610375bdaac237a00c2c669b,2021-07-29_23h56.28.443,Simcolourproject_2stim_asymm_v5,2020.2.10,Win32,60,61025ae37ef11b136ea224fe,,,,,,,,,4281,-66,-31,1,0,0,response5disk,,2,-21,-17,1,0,0,rectangle,-21,-17,1,0,0,-21,-17,1,0,0,0,126,126,4,1,,,,,,,,
,,,,,,,,,,,,,FF,,,,,,,,4.4154,,,,,,,,,,,,,,,,,,,,,,610231089f7e70a4aab3d083,610375bdaac237a00c2c669b,2021-07-29_23h56.28.443,Simcolourproject_2stim_asymm_v5,2020.2.10,Win32,60,61025ae37ef11b136ea224fe,,,,,,,,,4313,25,-81,1,0,0,response3disk,,4,-12,9,1,0,0,rectangle,-12,9,1,0,0,-12,9,1,0,0,0,127,127,145,1,,,,,,,,
,,,,,,,,,,,,,FF,,,,,,,,1.1,,,,,,,,,,,,,,,,,,,,,,610231089f7e70a4aab3d083,610375bdaac237a00c2c669b,2021-07-29_23h56.28.443,Simcolourproject_2stim_asymm_v5,2020.2.10,Win32,60,61025ae37ef11b136ea224fe,,,,,,,,,1810,-38,-74,1,0,0,response5disk,,3,2,8,1,0,0,rectangle,2,8,1,0,0,2,8,1,0,0,0,128,128,146,1,,,,,,,,
,,,,,,,,,,,,,FF,,,,,,,,1.754,,,,,,,,,,,,,,,,,,,,,,610231089f7e70a4aab3d083,610375bdaac237a00c2c669b,2021-07-29_23h56.28.443,Simcolourproject_2stim_asymm_v5,2020.2.10,Win32,60,61025ae37ef11b136ea224fe,,,,,,,,,1872,72,-29,1,0,0,response3disk,,5,14,3,1,0,0,rectangle,14,3,1,0,0,14,3,1,0,0,0,129,129,147,1,,,,,,,,
,,,,,,,,,,,,,FF,,,,,,,,1.253,,,,,,,,,,,,,,,,,,,,,,610231089f7e70a4aab3d083,610375bdaac237a00c2c669b,2021-07-29_23h56.28.443,Simcolourproject_2stim_asymm_v5,2020.2.10,Win32,60,61025ae37ef11b136ea224fe,,,,,,,,,208,74,-31,1,0,0,response3disk,,5,12,6,1,0,0,rectangle,12,6,1,0,0,12,6,1,0,0,0,130,130,38,1,,,,,,,,
,,,,,,,,,,,,,FF,,,,,,,,1.2001,,,,,,,,,,,,,,,,,,,,,,610231089f7e70a4aab3d083,610375bdaac237a00c2c669b,2021-07-29_23h56.28.443,Simcolourproject_2stim_asymm_v5,2020.2.10,Win32,60,61025ae37ef11b136ea224fe,,,,,,,,,4176,83,-30,1,0,0,response3disk,,5,6,6,1,0,0,rectangle,6,6,1,0,0,6,6,1,0,0,0,131,131,27,1,,,,,,,,
,,,,,,,,,,,,,FF,,,,,,,,1.3163,,,,,,,,,,,,,,,,,,,,,,610231089f7e70a4aab3d083,610375bdaac237a00c2c669b,2021-07-29_23h56.28.443,Simcolourproject_2stim_asymm_v5,2020.2.10,Win32,60,61025ae37ef11b136ea224fe,,,,,,,,,1620,53,-86,1,0,0,response3disk,,4,-21,8,1,0,0,rectangle,-21,8,1,0,0,-21,8,1,0,0,0,132,132,157,1,,,,,,,,
,,,,,,,,,,,,,FF,,,,,,,,1.4997,,,,,,,,,,,,,,,,,,,,,,610231089f7e70a4aab3d083,610375bdaac237a00c2c669b,2021-07-29_23h56.28.443,Simcolourproject_2stim_asymm_v5,2020.2.10,Win32,60,61025ae37ef11b136ea224fe,,,,,,,,,4057,94,31,1,0,0,response1disk,,6,8,-4,1,0,0,rectangle,8,-4,1,0,0,8,-4,1,0,0,0,133,133,135,1,,,,,,,,
,,,,,,,,,,,,,FF,,,,,,,,0.9668,,,,,,,,,,,,,,,,,,,,,,610231089f7e70a4aab3d083,610375bdaac237a00c2c669b,2021-07-29_23h56.28.443,Simcolourproject_2stim_asymm_v5,2020.2.10,Win32,60,61025ae37ef11b136ea224fe,,,,,,,,,4050,64,29,1,0,0,response1disk,,6,6,0,1,0,0,rectangle,6,0,1,0,0,6,0,1,0,0,0,134,134,95,1,,,,,,,,
,,,,,,,,,,,,,FF,,,,,,,,0.8012,,,,,,,,,,,,,,,,,,,,,,610231089f7e70a4aab3d083,610375bdaac237a00c2c669b,2021-07-29_23h56.28.443,Simcolourproject_2stim_asymm_v5,2020.2.10,Win32,60,61025ae37ef11b136ea224fe,,,,,,,,,970,-69,-40,1,0,0,response5disk,,2,-14,0,1,0,0,rectangle,-14,0,1,0,0,-14,0,1,0,0,0,135,135,86,1,,,,,,,,
,,,,,,,,,,,,,FF,,,,,,,,0.8999,,,,,,,,,,,,,,,,,,,,,,610231089f7e70a4aab3d083,610375bdaac237a00c2c669b,2021-07-29_23h56.28.443,Simcolourproject_2stim_asymm_v5,2020.2.10,Win32,60,61025ae37ef11b136ea224fe,,,,,,,,,1904,37,-87,1,0,0,response3disk,,4,15,-6,1,0,0,rectangle,15,-6,1,0,0,15,-6,1,0,0,0,136,136,13,1,,,,,,,,
,,,,,,,,,,,,,FF,,,,,,,,0.9698,,,,,,,,,,,,,,,,,,,,,,610231089f7e70a4aab3d083,610375bdaac237a00c2c669b,2021-07-29_23h56.28.443,Simcolourproject_2stim_asymm_v5,2020.2.10,Win32,60,61025ae37ef11b136ea224fe,,,,,,,,,546,-82,-40,1,0,0,response5disk,,2,-20,8,1,0,0,rectangle,-20,8,1,0,0,-20,8,1,0,0,0,137,137,5,1,,,,,,,,
,,,,,,,,,,,,,FF,,,,,,,,0.8998,,,,,,,,,,,,,,,,,,,,,,610231089f7e70a4aab3d083,610375bdaac237a00c2c669b,2021-07-29_23h56.28.443,Simcolourproject_2stim_asymm_v5,2020.2.10,Win32,60,61025ae37ef11b136ea224fe,,,,,,,,,2106,-49,-69,1,0,0,response5disk,,3,-4,6,1,0,0,rectangle,-4,6,1,0,0,-4,6,1,0,0,0,138,138,1,1,,,,,,,,
,,,,,,,,,,,,,FF,,,,,,,,1.8832,,,,,,,,,,,,,,,,,,,,,,610231089f7e70a4aab3d083,610375bdaac237a00c2c669b,2021-07-29_23h56.28.443,Simcolourproject_2stim_asymm_v5,2020.2.10,Win32,60,61025ae37ef11b136ea224fe,,,,,,,,,1022,85,33,1,0,0,response1disk,,6,11,4,1,0,0,rectangle,11,4,1,0,0,11,4,1,0,0,0,139,139,138,1,,,,,,,,
,,,,,,,,,,,,,FF,,,,,,,,2.1994,,,,,,,,,,,,,,,,,,,,,,610231089f7e70a4aab3d083,610375bdaac237a00c2c669b,2021-07-29_23h56.28.443,Simcolourproject_2stim_asymm_v5,2020.2.10,Win32,60,61025ae37ef11b136ea224fe,,,,,,,,,3300,90,-40,1,0,0,response3disk,,5,11,2,1,0,0,rectangle,11,2,1,0,0,11,2,1,0,0,0,140,140,57,1,,,,,,,,
,,,,,,,,,,,,,FF,,,,,,,,1.9993,,,,,,,,,,,,,,,,,,,,,,610231089f7e70a4aab3d083,610375bdaac237a00c2c669b,2021-07-29_23h56.28.443,Simcolourproject_2stim_asymm_v5,2020.2.10,Win32,60,61025ae37ef11b136ea224fe,,,,,,,,,2135,88,-28,1,0,0,response3disk,,5,6,8,1,0,0,rectangle,6,8,1,0,0,6,8,1,0,0,0,141,141,137,1,,,,,,,,
,,,,,,,,,,,,,FF,,,,,,,,7.7151,,,,,,,,,,,,,,,,,,,,,,610231089f7e70a4aab3d083,610375bdaac237a00c2c669b,2021-07-29_23h56.28.443,Simcolourproject_2stim_asymm_v5,2020.2.10,Win32,60,61025ae37ef11b136ea224fe,,,,,,,,,2360,-75,-29,1,0,0,response5disk,,2,-15,2,1,0,0,rectangle,-15,2,1,0,0,-15,2,1,0,0,0,142,142,107,1,,,,,,,,
,,,,,,,,,,,,,FF,,,,,,,,1.2495,,,,,,,,,,,,,,,,,,,,,,610231089f7e70a4aab3d083,610375bdaac237a00c2c669b,2021-07-29_23h56.28.443,Simcolourproject_2stim_asymm_v5,2020.2.10,Win32,60,61025ae37ef11b136ea224fe,,,,,,,,,1192,23,-94,1,0,0,response3disk,,4,-16,7,1,0,0,rectangle,-16,7,1,0,0,-16,7,1,0,0,0,143,143,112,1,,,,,,,,
,,,,,,,,,,,,,FF,,,,,,,,0.9663,,,,,,,,,,,,,,,,,,,,,,610231089f7e70a4aab3d083,610375bdaac237a00c2c669b,2021-07-29_23h56.28.443,Simcolourproject_2stim_asymm_v5,2020.2.10,Win32,60,61025ae37ef11b136ea224fe,,,,,,,,,1693,78,-27,1,0,0,response3disk,,5,23,-1,1,0,0,rectangle,23,-1,1,0,0,23,-1,1,0,0,0,144,144,84,1,,,,,,,,
,,,,,,,,,,,,,FF,,,,,,,,0.8833,,,,,,,,,,,,,,,,,,,,,,610231089f7e70a4aab3d083,610375bdaac237a00c2c669b,2021-07-29_23h56.28.443,Simcolourproject_2stim_asymm_v5,2020.2.10,Win32,60,61025ae37ef11b136ea224fe,,,,,,,,,3320,89,35,1,0,0,response1disk,,6,16,-2,1,0,0,rectangle,16,-2,1,0,0,16,-2,1,0,0,0,145,145,125,1,,,,,,,,
,,,,,,,,,,,,,FF,,,,,,,,0.8169,,,,,,,,,,,,,,,,,,,,,,610231089f7e70a4aab3d083,610375bdaac237a00c2c669b,2021-07-29_23h56.28.443,Simcolourproject_2stim_asymm_v5,2020.2.10,Win32,60,61025ae37ef11b136ea224fe,,,,,,,,,2794,64,42,1,0,0,response1disk,,6,4,9,1,0,0,rectangle,4,9,1,0,0,4,9,1,0,0,0,146,146,49,1,,,,,,,,
,,,,,,,,,,,,,FF,,,,,,,,1.2869,,,,,,,,,,,,,,,,,,,,,,610231089f7e70a4aab3d083,610375bdaac237a00c2c669b,2021-07-29_23h56.28.443,Simcolourproject_2stim_asymm_v5,2020.2.10,Win32,60,61025ae37ef11b136ea224fe,,,,,,,,,1257,83,26,1,0,0,response1disk,,6,4,-9,1,0,0,rectangle,4,-9,1,0,0,4,-9,1,0,0,0,147,147,19,1,,,,,,,,
,,,,,,,,,,,,,FF,,,,,,,,0.7664,,,,,,,,,,,,,,,,,,,,,,610231089f7e70a4aab3d083,610375bdaac237a00c2c669b,2021-07-29_23h56.28.443,Simcolourproject_2stim_asymm_v5,2020.2.10,Win32,60,61025ae37ef11b136ea224fe,,,,,,,,,717,-55,80,1,0,0,response7disk,,0,-14,-10,1,0,0,rectangle,-14,-10,1,0,0,-14,-10,1,0,0,0,148,148,154,1,,,,,,,,
,,,,,,,,,,,,,FF,,,,,,,,2.7827,,,,,,,,,,,,,,,,,,,,,,610231089f7e70a4aab3d083,610375bdaac237a00c2c669b,2021-07-29_23h56.28.443,Simcolourproject_2stim_asymm_v5,2020.2.10,Win32,60,61025ae37ef11b136ea224fe,,,,,,,,,4271,81,52,1,0,0,response1disk,,6,12,-2,1,0,0,rectangle,12,-2,1,0,0,12,-2,1,0,0,0,149,149,56,1,,,,,,,,
,,,,,,,,,,,,,FF,,,,,,,,1.0498,,,,,,,,,,,,,,,,,,,,,,610231089f7e70a4aab3d083,610375bdaac237a00c2c669b,2021-07-29_23h56.28.443,Simcolourproject_2stim_asymm_v5,2020.2.10,Win32,60,61025ae37ef11b136ea224fe,,,,,,,,,2462,62,33,1,0,0,response1disk,,6,7,4,1,0,0,rectangle,7,4,1,0,0,7,4,1,0,0,0,150,150,133,1,,,,,,,,
,,,,,,,,,,,,,FF,,,,,,,,0.7834,,,,,,,,,,,,,,,,,,,,,,610231089f7e70a4aab3d083,610375bdaac237a00c2c669b,2021-07-29_23h56.28.443,Simcolourproject_2stim_asymm_v5,2020.2.10,Win32,60,61025ae37ef11b136ea224fe,,,,,,,,,3592,-69,-31,1,0,0,response5disk,,2,-25,-2,1,0,0,rectangle,-25,-2,1,0,0,-25,-2,1,0,0,0,151,151,128,1,,,,,,,,
,,,,,,,,,,,,,FF,,,,,,,,1.9833,,,,,,,,,,,,,,,,,,,,,,610231089f7e70a4aab3d083,610375bdaac237a00c2c669b,2021-07-29_23h56.28.443,Simcolourproject_2stim_asymm_v5,2020.2.10,Win32,60,61025ae37ef11b136ea224fe,,,,,,,,,534,38,-89,1,0,0,response3disk,,4,7,-5,1,0,0,rectangle,7,-5,1,0,0,7,-5,1,0,0,0,152,152,63,1,,,,,,,,
,,,,,,,,,,,,,FF,,,,,,,,1.8664,,,,,,,,,,,,,,,,,,,,,,610231089f7e70a4aab3d083,610375bdaac237a00c2c669b,2021-07-29_23h56.28.443,Simcolourproject_2stim_asymm_v5,2020.2.10,Win32,60,61025ae37ef11b136ea224fe,,,,,,,,,1243,36,-66,1,0,0,response3disk,,4,-4,-6,1,0,0,rectangle,-4,-6,1,0,0,-4,-6,1,0,0,0,153,153,42,1,,,,,,,,
,,,,,,,,,,,,,FF,,,,,,,,1.5167,,,,,,,,,,,,,,,,,,,,,,610231089f7e70a4aab3d083,610375bdaac237a00c2c669b,2021-07-29_23h56.28.443,Simcolourproject_2stim_asymm_v5,2020.2.10,Win32,60,61025ae37ef11b136ea224fe,,,,,,,,,3663,-66,-38,1,0,0,response5disk,,2,-17,-4,1,0,0,rectangle,-17,-4,1,0,0,-17,-4,1,0,0,0,154,154,132,1,,,,,,,,
,,,,,,,,,,,,,FF,,,,,,,,1.3665,,,,,,,,,,,,,,,,,,,,,,610231089f7e70a4aab3d083,610375bdaac237a00c2c669b,2021-07-29_23h56.28.443,Simcolourproject_2stim_asymm_v5,2020.2.10,Win32,60,61025ae37ef11b136ea224fe,,,,,,,,,342,39,-62,1,0,0,response3disk,,4,12,2,1,0,0,rectangle,12,2,1,0,0,12,2,1,0,0,0,155,155,144,1,,,,,,,,
,,,,,,,,,,,,,FF,,,,,,,,0.8501,,,,,,,,,,,,,,,,,,,,,,610231089f7e70a4aab3d083,610375bdaac237a00c2c669b,2021-07-29_23h56.28.443,Simcolourproject_2stim_asymm_v5,2020.2.10,Win32,60,61025ae37ef11b136ea224fe,,,,,,,,,3039,-35,-73,1,0,0,response5disk,,3,6,-13,1,0,0,rectangle,6,-13,1,0,0,6,-13,1,0,0,0,156,156,109,1,,,,,,,,
,,,,,,,,,,,,,FF,,,,,,,,1.2168,,,,,,,,,,,,,,,,,,,,,,610231089f7e70a4aab3d083,610375bdaac237a00c2c669b,2021-07-29_23h56.28.443,Simcolourproject_2stim_asymm_v5,2020.2.10,Win32,60,61025ae37ef11b136ea224fe,,,,,,,,,2456,93,34,1,0,0,response1disk,,6,21,5,1,0,0,rectangle,21,5,1,0,0,21,5,1,0,0,0,157,157,64,1,,,,,,,,
,,,,,,,,,,,,,FF,,,,,,,,1.0663,,,,,,,,,,,,,,,,,,,,,,610231089f7e70a4aab3d083,610375bdaac237a00c2c669b,2021-07-29_23h56.28.443,Simcolourproject_2stim_asymm_v5,2020.2.10,Win32,60,61025ae37ef11b136ea224fe,,,,,,,,,79,-74,25,1,0,0,response7disk,,1,-17,-1,1,0,0,rectangle,-17,-1,1,0,0,-17,-1,1,0,0,0,158,158,110,1,,,,,,,,
,,,,,,,,,,,,,FF,,,,,,,,4.9322,,,,,,,,,,,,,,,,,,,,,,610231089f7e70a4aab3d083,610375bdaac237a00c2c669b,2021-07-29_23h56.28.443,Simcolourproject_2stim_asymm_v5,2020.2.10,Win32,60,61025ae37ef11b136ea224fe,,,,,,,,,2308,-31,-78,1,0,0,response5disk,,3,19,4,1,0,0,rectangle,19,4,1,0,0,19,4,1,0,0,0,159,159,90,1,,,,,,,,
,,,,,,,,,,,,,FF,,,,,,,,0.7667,,,,,,,,,,,,,,,,,,,,,,610231089f7e70a4aab3d083,610375bdaac237a00c2c669b,2021-07-29_23h56.28.443,Simcolourproject_2stim_asymm_v5,2020.2.10,Win32,60,61025ae37ef11b136ea224fe,,,,,,,,,3890,58,32,1,0,0,response1disk,,6,-6,4,1,0,0,rectangle,-6,4,1,0,0,-6,4,1,0,0,1,0,160,59,1,,,,,,,,
,,,,,,,,,,,,,FF,,,,,,,,0.8833,,,,,,,,,,,,,,,,,,,,,,610231089f7e70a4aab3d083,610375bdaac237a00c2c669b,2021-07-29_23h56.28.443,Simcolourproject_2stim_asymm_v5,2020.2.10,Win32,60,61025ae37ef11b136ea224fe,,,,,,,,,2073,57,35,1,0,0,response1disk,,6,-8,3,1,0,0,rectangle,-8,3,1,0,0,-8,3,1,0,0,1,1,161,93,1,,,,,,,,
,,,,,,,,,,,,,FF,,,,,,,,1.8666,,,,,,,,,,,,,,,,,,,,,,610231089f7e70a4aab3d083,610375bdaac237a00c2c669b,2021-07-29_23h56.28.443,Simcolourproject_2stim_asymm_v5,2020.2.10,Win32,60,61025ae37ef11b136ea224fe,,,,,,,,,2353,38,-88,1,0,0,response3disk,,4,-12,-3,1,0,0,rectangle,-12,-3,1,0,0,-12,-3,1,0,0,1,2,162,129,1,,,,,,,,
,,,,,,,,,,,,,FF,,,,,,,,1.4165,,,,,,,,,,,,,,,,,,,,,,610231089f7e70a4aab3d083,610375bdaac237a00c2c669b,2021-07-29_23h56.28.443,Simcolourproject_2stim_asymm_v5,2020.2.10,Win32,60,61025ae37ef11b136ea224fe,,,,,,,,,3472,-45,-82,1,0,0,response5disk,,3,3,10,1,0,0,rectangle,-45,-84,1,0,0,-24,5,1,0,0,1,3,163,116,1,,response5disk_3,TRUE,3,3,"[101,164,203,168,114,196,85,112,92,215,214,245,46,177,276,63,11,321,25,164]",1.6999,rectangle
,,,,,,,,,,,,,FF,,,,,,,,1.0533,,,,,,,,,,,,,,,,,,,,,,610231089f7e70a4aab3d083,610375bdaac237a00c2c669b,2021-07-29_23h56.28.443,Simcolourproject_2stim_asymm_v5,2020.2.10,Win32,60,61025ae37ef11b136ea224fe,,,,,,,,,263,-28,-92,1,0,0,response5disk,,3,-5,-7,1,0,0,rectangle,-5,-7,1,0,0,-5,-7,1,0,0,1,4,164,71,1,,,,,,,,
,,,,,,,,,,,,,FF,,,,,,,,1.7333,,,,,,,,,,,,,,,,,,,,,,610231089f7e70a4aab3d083,610375bdaac237a00c2c669b,2021-07-29_23h56.28.443,Simcolourproject_2stim_asymm_v5,2020.2.10,Win32,60,61025ae37ef11b136ea224fe,,,,,,,,,3345,85,-31,1,0,0,response3disk,,5,0,-1,1,0,0,rectangle,0,-1,1,0,0,0,-1,1,0,0,1,5,165,156,1,,,,,,,,
,,,,,,,,,,,,,FF,,,,,,,,1.3526,,,,,,,,,,,,,,,,,,,,,,610231089f7e70a4aab3d083,610375bdaac237a00c2c669b,2021-07-29_23h56.28.443,Simcolourproject_2stim_asymm_v5,2020.2.10,Win32,60,61025ae37ef11b136ea224fe,,,,,,,,,2378,24,-72,1,0,0,response3disk,,4,-16,-9,1,0,0,rectangle,-16,-9,1,0,0,-16,-9,1,0,0,1,6,166,122,1,,,,,,,,
,,,,,,,,,,,,,FF,,,,,,,,0.9001,,,,,,,,,,,,,,,,,,,,,,610231089f7e70a4aab3d083,610375bdaac237a00c2c669b,2021-07-29_23h56.28.443,Simcolourproject_2stim_asymm_v5,2020.2.10,Win32,60,61025ae37ef11b136ea224fe,,,,,,,,,725,46,-85,1,0,0,response3disk,,4,-7,-7,1,0,0,rectangle,95,38,1,0,0,-6,-2,1,0,0,1,7,167,108,1,,response1disk_3,TRUE,6,6,"[101,164,203,168,114,196,85,112,92,215,214,245,46,177,276,63,11,321,25,164]",1.6991,rectangle
,,,,,,,,,,,,,FF,,,,,,,,0.8504,,,,,,,,,,,,,,,,,,,,,,610231089f7e70a4aab3d083,610375bdaac237a00c2c669b,2021-07-29_23h56.28.443,Simcolourproject_2stim_asymm_v5,2020.2.10,Win32,60,61025ae37ef11b136ea224fe,,,,,,,,,1445,-42,74,1,0,0,response7disk,,0,-3,-3,1,0,0,rectangle,-3,-3,1,0,0,-3,-3,1,0,0,1,8,168,109,1,,,,,,,,
,,,,,,,,,,,,,FF,,,,,,,,3.2491,,,,,,,,,,,,,,,,,,,,,,610231089f7e70a4aab3d083,610375bdaac237a00c2c669b,2021-07-29_23h56.28.443,Simcolourproject_2stim_asymm_v5,2020.2.10,Win32,60,61025ae37ef11b136ea224fe,,,,,,,,,2619,71,-40,1,0,0,response3disk,,5,13,-3,1,0,0,rectangle,13,-3,1,0,0,13,-3,1,0,0,1,9,169,95,1,,,,,,,,
,,,,,,,,,,,,,FF,,,,,,,,0.7668,,,,,,,,,,,,,,,,,,,,,,610231089f7e70a4aab3d083,610375bdaac237a00c2c669b,2021-07-29_23h56.28.443,Simcolourproject_2stim_asymm_v5,2020.2.10,Win32,60,61025ae37ef11b136ea224fe,,,,,,,,,1970,-83,-43,1,0,0,response5disk,,2,-18,9,1,0,0,rectangle,-18,9,1,0,0,-18,9,1,0,0,1,10,170,125,1,,,,,,,,
,,,,,,,,,,,,,FF,,,,,,,,0.8833,,,,,,,,,,,,,,,,,,,,,,610231089f7e70a4aab3d083,610375bdaac237a00c2c669b,2021-07-29_23h56.28.443,Simcolourproject_2stim_asymm_v5,2020.2.10,Win32,60,61025ae37ef11b136ea224fe,,,,,,,,,3937,-75,20,1,0,0,response7disk,,1,-19,0,1,0,0,rectangle,-19,0,1,0,0,-19,0,1,0,0,1,11,171,126,1,,,,,,,,
,,,,,,,,,,,,,FF,,,,,,,,1.2663,,,,,,,,,,,,,,,,,,,,,,610231089f7e70a4aab3d083,610375bdaac237a00c2c669b,2021-07-29_23h56.28.443,Simcolourproject_2stim_asymm_v5,2020.2.10,Win32,60,61025ae37ef11b136ea224fe,,,,,,,,,2683,80,23,1,0,0,response1disk,,6,24,5,1,0,0,rectangle,24,5,1,0,0,24,5,1,0,0,1,12,172,58,1,,,,,,,,
,,,,,,,,,,,,,FF,,,,,,,,1.3498,,,,,,,,,,,,,,,,,,,,,,610231089f7e70a4aab3d083,610375bdaac237a00c2c669b,2021-07-29_23h56.28.443,Simcolourproject_2stim_asymm_v5,2020.2.10,Win32,60,61025ae37ef11b136ea224fe,,,,,,,,,2154,62,-34,1,0,0,response3disk,,5,4,-4,1,0,0,rectangle,4,-4,1,0,0,4,-4,1,0,0,1,13,173,21,1,,,,,,,,
,,,,,,,,,,,,,FF,,,,,,,,0.8699,,,,,,,,,,,,,,,,,,,,,,610231089f7e70a4aab3d083,610375bdaac237a00c2c669b,2021-07-29_23h56.28.443,Simcolourproject_2stim_asymm_v5,2020.2.10,Win32,60,61025ae37ef11b136ea224fe,,,,,,,,,480,65,26,1,0,0,response1disk,,6,-2,0,1,0,0,rectangle,-2,0,1,0,0,-2,0,1,0,0,1,14,174,117,1,,,,,,,,
,,,,,,,,,,,,,FF,,,,,,,,0.7502,,,,,,,,,,,,,,,,,,,,,,610231089f7e70a4aab3d083,610375bdaac237a00c2c669b,2021-07-29_23h56.28.443,Simcolourproject_2stim_asymm_v5,2020.2.10,Win32,60,61025ae37ef11b136ea224fe,,,,,,,,,2980,20,65,1,0,0,response1disk,,7,-5,2,1,0,0,rectangle,-5,2,1,0,0,-5,2,1,0,0,1,15,175,61,1,,,,,,,,
,,,,,,,,,,,,,FF,,,,,,,,0.9164,,,,,,,,,,,,,,,,,,,,,,610231089f7e70a4aab3d083,610375bdaac237a00c2c669b,2021-07-29_23h56.28.443,Simcolourproject_2stim_asymm_v5,2020.2.10,Win32,60,61025ae37ef11b136ea224fe,,,,,,,,,3886,26,64,1,0,0,response1disk,,7,-3,0,1,0,0,rectangle,-79,38,1,0,0,-6,6,1,0,0,1,16,176,106,1,,response7disk_3,TRUE,1,1,"[101,164,203,168,114,196,85,112,92,215,214,245,46,177,276,63,11,321,25,164]",1.3034,rectangle
,,,,,,,,,,,,,FF,,,,,,,,2.0332,,,,,,,,,,,,,,,,,,,,,,610231089f7e70a4aab3d083,610375bdaac237a00c2c669b,2021-07-29_23h56.28.443,Simcolourproject_2stim_asymm_v5,2020.2.10,Win32,60,61025ae37ef11b136ea224fe,,,,,,,,,2318,73,37,1,0,0,response1disk,,6,-4,-4,1,0,0,rectangle,-4,-4,1,0,0,-4,-4,1,0,0,1,17,177,92,1,,,,,,,,
,,,,,,,,,,,,,FF,,,,,,,,2,,,,,,,,,,,,,,,,,,,,,,610231089f7e70a4aab3d083,610375bdaac237a00c2c669b,2021-07-29_23h56.28.443,Simcolourproject_2stim_asymm_v5,2020.2.10,Win32,60,61025ae37ef11b136ea224fe,,,,,,,,,2936,37,-73,1,0,0,response3disk,,4,-4,-3,1,0,0,rectangle,-4,-3,1,0,0,-4,-3,1,0,0,1,18,178,141,1,,,,,,,,
,,,,,,,,,,,,,FF,,,,,,,,1.7326,,,,,,,,,,,,,,,,,,,,,,610231089f7e70a4aab3d083,610375bdaac237a00c2c669b,2021-07-29_23h56.28.443,Simcolourproject_2stim_asymm_v5,2020.2.10,Win32,60,61025ae37ef11b136ea224fe,,,,,,,,,1277,77,-28,1,0,0,response3disk,,5,3,9,1,0,0,rectangle,3,9,1,0,0,3,9,1,0,0,1,19,179,89,1,,,,,,,,
,,,,,,,,,,,,,FF,,,,,,,,0.7164,,,,,,,,,,,,,,,,,,,,,,610231089f7e70a4aab3d083,610375bdaac237a00c2c669b,2021-07-29_23h56.28.443,Simcolourproject_2stim_asymm_v5,2020.2.10,Win32,60,61025ae37ef11b136ea224fe,,,,,,,,,719,-74,-33,1,0,0,response5disk,,2,-18,0,1,0,0,rectangle,-18,0,1,0,0,-18,0,1,0,0,1,20,180,131,1,,,,,,,,
,,,,,,,,,,,,,FF,,,,,,,,2.2829,,,,,,,,,,,,,,,,,,,,,,610231089f7e70a4aab3d083,610375bdaac237a00c2c669b,2021-07-29_23h56.28.443,Simcolourproject_2stim_asymm_v5,2020.2.10,Win32,60,61025ae37ef11b136ea224fe,,,,,,,,,3930,68,-83,1,0,0,response3disk,,4,-3,0,1,0,0,rectangle,-3,0,1,0,0,-3,0,1,0,0,1,21,181,146,1,,,,,,,,
,,,,,,,,,,,,,FF,,,,,,,,0.9332,,,,,,,,,,,,,,,,,,,,,,610231089f7e70a4aab3d083,610375bdaac237a00c2c669b,2021-07-29_23h56.28.443,Simcolourproject_2stim_asymm_v5,2020.2.10,Win32,60,61025ae37ef11b136ea224fe,,,,,,,,,190,-74,-42,1,0,0,response5disk,,2,-5,-8,1,0,0,rectangle,-5,-8,1,0,0,-5,-8,1,0,0,1,22,182,63,1,,,,,,,,
,,,,,,,,,,,,,FF,,,,,,,,0.8504,,,,,,,,,,,,,,,,,,,,,,610231089f7e70a4aab3d083,610375bdaac237a00c2c669b,2021-07-29_23h56.28.443,Simcolourproject_2stim_asymm_v5,2020.2.10,Win32,60,61025ae37ef11b136ea224fe,,,,,,,,,3796,75,41,1,0,0,response1disk,,6,4,5,1,0,0,rectangle,4,5,1,0,0,4,5,1,0,0,1,23,183,20,1,,,,,,,,
,,,,,,,,,,,,,FF,,,,,,,,0.9501,,,,,,,,,,,,,,,,,,,,,,610231089f7e70a4aab3d083,610375bdaac237a00c2c669b,2021-07-29_23h56.28.443,Simcolourproject_2stim_asymm_v5,2020.2.10,Win32,60,61025ae37ef11b136ea224fe,,,,,,,,,2022,34,-69,1,0,0,response3disk,,4,-6,-8,1,0,0,rectangle,-6,-8,1,0,0,-6,-8,1,0,0,1,24,184,132,1,,,,,,,,
,,,,,,,,,,,,,FF,,,,,,,,1.5499,,,,,,,,,,,,,,,,,,,,,,610231089f7e70a4aab3d083,610375bdaac237a00c2c669b,2021-07-29_23h56.28.443,Simcolourproject_2stim_asymm_v5,2020.2.10,Win32,60,61025ae37ef11b136ea224fe,,,,,,,,,498,40,-57,1,0,0,response3disk,,4,3,3,1,0,0,rectangle,3,3,1,0,0,3,3,1,0,0,1,25,185,154,1,,,,,,,,
,,,,,,,,,,,,,FF,,,,,,,,1.1335,,,,,,,,,,,,,,,,,,,,,,610231089f7e70a4aab3d083,610375bdaac237a00c2c669b,2021-07-29_23h56.28.443,Simcolourproject_2stim_asymm_v5,2020.2.10,Win32,60,61025ae37ef11b136ea224fe,,,,,,,,,2367,-39,-74,1,0,0,response5disk,,3,-3,-6,1,0,0,rectangle,-3,-6,1,0,0,-3,-6,1,0,0,1,26,186,113,1,,,,,,,,
,,,,,,,,,,,,,FF,,,,,,,,0.7999,,,,,,,,,,,,,,,,,,,,,,610231089f7e70a4aab3d083,610375bdaac237a00c2c669b,2021-07-29_23h56.28.443,Simcolourproject_2stim_asymm_v5,2020.2.10,Win32,60,61025ae37ef11b136ea224fe,,,,,,,,,1859,33,89,1,0,0,response1disk,,7,0,3,1,0,0,rectangle,0,3,1,0,0,0,3,1,0,0,1,27,187,147,1,,,,,,,,
,,,,,,,,,,,,,FF,,,,,,,,1.3168,,,,,,,,,,,,,,,,,,,,,,610231089f7e70a4aab3d083,610375bdaac237a00c2c669b,2021-07-29_23h56.28.443,Simcolourproject_2stim_asymm_v5,2020.2.10,Win32,60,61025ae37ef11b136ea224fe,,,,,,,,,3155,-69,-39,1,0,0,response5disk,,2,8,-4,1,0,0,rectangle,8,-4,1,0,0,8,-4,1,0,0,1,28,188,33,1,,,,,,,,
,,,,,,,,,,,,,FF,,,,,,,,0.9334,,,,,,,,,,,,,,,,,,,,,,610231089f7e70a4aab3d083,610375bdaac237a00c2c669b,2021-07-29_23h56.28.443,Simcolourproject_2stim_asymm_v5,2020.2.10,Win32,60,61025ae37ef11b136ea224fe,,,,,,,,,483,64,-28,1,0,0,response3disk,,5,11,4,1,0,0,rectangle,11,4,1,0,0,11,4,1,0,0,1,29,189,44,1,,,,,,,,
,,,,,,,,,,,,,FF,,,,,,,,1.5498,,,,,,,,,,,,,,,,,,,,,,610231089f7e70a4aab3d083,610375bdaac237a00c2c669b,2021-07-29_23h56.28.443,Simcolourproject_2stim_asymm_v5,2020.2.10,Win32,60,61025ae37ef11b136ea224fe,,,,,,,,,318,91,35,1,0,0,response1disk,,6,7,12,1,0,0,rectangle,7,12,1,0,0,7,12,1,0,0,1,30,190,65,1,,,,,,,,
,,,,,,,,,,,,,FF,,,,,,,,1.6828,,,,,,,,,,,,,,,,,,,,,,610231089f7e70a4aab3d083,610375bdaac237a00c2c669b,2021-07-29_23h56.28.443,Simcolourproject_2stim_asymm_v5,2020.2.10,Win32,60,61025ae37ef11b136ea224fe,,,,,,,,,3830,73,-32,1,0,0,response3disk,,5,-2,4,1,0,0,rectangle,-2,4,1,0,0,-2,4,1,0,0,1,31,191,153,1,,,,,,,,
,,,,,,,,,,,,,FF,,,,,,,,0.8167,,,,,,,,,,,,,,,,,,,,,,610231089f7e70a4aab3d083,610375bdaac237a00c2c669b,2021-07-29_23h56.28.443,Simcolourproject_2stim_asymm_v5,2020.2.10,Win32,60,61025ae37ef11b136ea224fe,,,,,,,,,458,-40,-76,1,0,0,response5disk,,3,-19,-6,1,0,0,rectangle,-19,-6,1,0,0,-19,-6,1,0,0,1,32,192,10,1,,,,,,,,
,,,,,,,,,,,,,FF,,,,,,,,2.3163,,,,,,,,,,,,,,,,,,,,,,610231089f7e70a4aab3d083,610375bdaac237a00c2c669b,2021-07-29_23h56.28.443,Simcolourproject_2stim_asymm_v5,2020.2.10,Win32,60,61025ae37ef11b136ea224fe,,,,,,,,,3826,28,-84,1,0,0,response3disk,,4,-14,-1,1,0,0,rectangle,-14,-1,1,0,0,-14,-1,1,0,0,1,33,193,140,1,,,,,,,,
,,,,,,,,,,,,,FF,,,,,,,,1.8332,,,,,,,,,,,,,,,,,,,,,,610231089f7e70a4aab3d083,610375bdaac237a00c2c669b,2021-07-29_23h56.28.443,Simcolourproject_2stim_asymm_v5,2020.2.10,Win32,60,61025ae37ef11b136ea224fe,,,,,,,,,299,93,-37,1,0,0,response3disk,,5,22,-6,1,0,0,rectangle,22,-6,1,0,0,22,-6,1,0,0,1,34,194,136,1,,,,,,,,
,,,,,,,,,,,,,FF,,,,,,,,1.4999,,,,,,,,,,,,,,,,,,,,,,610231089f7e70a4aab3d083,610375bdaac237a00c2c669b,2021-07-29_23h56.28.443,Simcolourproject_2stim_asymm_v5,2020.2.10,Win32,60,61025ae37ef11b136ea224fe,,,,,,,,,827,80,29,1,0,0,response1disk,,6,23,-3,1,0,0,rectangle,36,-84,1,0,0,-5,1,1,0,0,1,35,195,142,1,,response3disk_3,TRUE,4,4,"[101,164,203,168,114,196,85,112,92,215,214,245,46,177,276,63,11,321,25,164]",1.599,rectangle
,,,,,,,,,,,,,FF,,,,,,,,3.8823,,,,,,,,,,,,,,,,,,,,,,610231089f7e70a4aab3d083,610375bdaac237a00c2c669b,2021-07-29_23h56.28.443,Simcolourproject_2stim_asymm_v5,2020.2.10,Win32,60,61025ae37ef11b136ea224fe,,,,,,,,,1914,59,-43,1,0,0,response3disk,,5,2,1,1,0,0,rectangle,2,1,1,0,0,2,1,1,0,0,1,36,196,2,1,,,,,,,,
,,,,,,,,,,,,,FF,,,,,,,,2.3331,,,,,,,,,,,,,,,,,,,,,,610231089f7e70a4aab3d083,610375bdaac237a00c2c669b,2021-07-29_23h56.28.443,Simcolourproject_2stim_asymm_v5,2020.2.10,Win32,60,61025ae37ef11b136ea224fe,,,,,,,,,2752,68,24,1,0,0,response1disk,,6,0,-2,1,0,0,rectangle,0,-2,1,0,0,0,-2,1,0,0,1,37,197,64,1,,,,,,,,
,,,,,,,,,,,,,FF,,,,,,,,1.7831,,,,,,,,,,,,,,,,,,,,,,610231089f7e70a4aab3d083,610375bdaac237a00c2c669b,2021-07-29_23h56.28.443,Simcolourproject_2stim_asymm_v5,2020.2.10,Win32,60,61025ae37ef11b136ea224fe,,,,,,,,,212,48,26,1,0,0,response1disk,,6,-13,-3,1,0,0,rectangle,-13,-3,1,0,0,-13,-3,1,0,0,1,38,198,70,1,,,,,,,,
,,,,,,,,,,,,,FF,,,,,,,,0.8835,,,,,,,,,,,,,,,,,,,,,,610231089f7e70a4aab3d083,610375bdaac237a00c2c669b,2021-07-29_23h56.28.443,Simcolourproject_2stim_asymm_v5,2020.2.10,Win32,60,61025ae37ef11b136ea224fe,,,,,,,,,1161,62,29,1,0,0,response1disk,,6,-1,-2,1,0,0,rectangle,-1,-2,1,0,0,-1,-2,1,0,0,1,39,199,107,1,,,,,,,,
,,,,,,,,,,,,,FF,,,,,,,,0.7002,,,,,,,,,,,,,,,,,,,,,,610231089f7e70a4aab3d083,610375bdaac237a00c2c669b,2021-07-29_23h56.28.443,Simcolourproject_2stim_asymm_v5,2020.2.10,Win32,60,61025ae37ef11b136ea224fe,,,,,,,,,1841,74,-41,1,0,0,response3disk,,5,0,-11,1,0,0,rectangle,0,-11,1,0,0,0,-11,1,0,0,1,40,200,97,1,,,,,,,,
,,,,,,,,,,,,,FF,,,,,,,,1.4193,,,,,,,,,,,,,,,,,,,,,,610231089f7e70a4aab3d083,610375bdaac237a00c2c669b,2021-07-29_23h56.28.443,Simcolourproject_2stim_asymm_v5,2020.2.10,Win32,60,61025ae37ef11b136ea224fe,,,,,,,,,2805,82,38,1,0,0,response1disk,,6,-5,-8,1,0,0,rectangle,-5,-8,1,0,0,-5,-8,1,0,0,1,41,201,49,1,,,,,,,,
,,,,,,,,,,,,,FF,,,,,,,,0.8192,,,,,,,,,,,,,,,,,,,,,,610231089f7e70a4aab3d083,610375bdaac237a00c2c669b,2021-07-29_23h56.28.443,Simcolourproject_2stim_asymm_v5,2020.2.10,Win32,60,61025ae37ef11b136ea224fe,,,,,,,,,1165,38,-73,1,0,0,response3disk,,4,-10,-5,1,0,0,rectangle,27,62,1,0,0,-4,-3,1,0,0,1,42,202,39,1,,response1disk_3,TRUE,7,7,"[101,164,203,168,114,196,85,112,92,215,214,245,46,177,276,63,11,321,25,164]",1.1999,rectangle
,,,,,,,,,,,,,FF,,,,,,,,1.1829,,,,,,,,,,,,,,,,,,,,,,610231089f7e70a4aab3d083,610375bdaac237a00c2c669b,2021-07-29_23h56.28.443,Simcolourproject_2stim_asymm_v5,2020.2.10,Win32,60,61025ae37ef11b136ea224fe,,,,,,,,,2003,40,87,1,0,0,response1disk,,7,6,10,1,0,0,rectangle,6,10,1,0,0,6,10,1,0,0,1,43,203,1,1,,,,,,,,
,,,,,,,,,,,,,FF,,,,,,,,1.1164,,,,,,,,,,,,,,,,,,,,,,610231089f7e70a4aab3d083,610375bdaac237a00c2c669b,2021-07-29_23h56.28.443,Simcolourproject_2stim_asymm_v5,2020.2.10,Win32,60,61025ae37ef11b136ea224fe,,,,,,,,,561,78,-47,1,0,0,response3disk,,5,5,-2,1,0,0,rectangle,5,-2,1,0,0,5,-2,1,0,0,1,44,204,46,1,,,,,,,,
,,,,,,,,,,,,,FF,,,,,,,,0.9033,,,,,,,,,,,,,,,,,,,,,,610231089f7e70a4aab3d083,610375bdaac237a00c2c669b,2021-07-29_23h56.28.443,Simcolourproject_2stim_asymm_v5,2020.2.10,Win32,60,61025ae37ef11b136ea224fe,,,,,,,,,2545,48,-81,1,0,0,response3disk,,4,-5,-3,1,0,0,rectangle,-5,-3,1,0,0,-5,-3,1,0,0,1,45,205,78,1,,,,,,,,
,,,,,,,,,,,,,FF,,,,,,,,0.8833,,,,,,,,,,,,,,,,,,,,,,610231089f7e70a4aab3d083,610375bdaac237a00c2c669b,2021-07-29_23h56.28.443,Simcolourproject_2stim_asymm_v5,2020.2.10,Win32,60,61025ae37ef11b136ea224fe,,,,,,,,,3743,-66,32,1,0,0,response7disk,,1,-22,7,1,0,0,rectangle,-22,7,1,0,0,-22,7,1,0,0,1,46,206,76,1,,,,,,,,
,,,,,,,,,,,,,FF,,,,,,,,1.0667,,,,,,,,,,,,,,,,,,,,,,610231089f7e70a4aab3d083,610375bdaac237a00c2c669b,2021-07-29_23h56.28.443,Simcolourproject_2stim_asymm_v5,2020.2.10,Win32,60,61025ae37ef11b136ea224fe,,,,,,,,,357,60,50,1,0,0,response1disk,,6,8,8,1,0,0,rectangle,8,8,1,0,0,8,8,1,0,0,1,47,207,111,1,,,,,,,,
,,,,,,,,,,,,,FF,,,,,,,,2.036,,,,,,,,,,,,,,,,,,,,,,610231089f7e70a4aab3d083,610375bdaac237a00c2c669b,2021-07-29_23h56.28.443,Simcolourproject_2stim_asymm_v5,2020.2.10,Win32,60,61025ae37ef11b136ea224fe,,,,,,,,,1881,28,-68,1,0,0,response3disk,,4,-6,-1,1,0,0,rectangle,-6,-1,1,0,0,-6,-1,1,0,0,1,48,208,36,1,,,,,,,,
,,,,,,,,,,,,,FF,,,,,,,,1.2165,,,,,,,,,,,,,,,,,,,,,,610231089f7e70a4aab3d083,610375bdaac237a00c2c669b,2021-07-29_23h56.28.443,Simcolourproject_2stim_asymm_v5,2020.2.10,Win32,60,61025ae37ef11b136ea224fe,,,,,,,,,2557,75,21,1,0,0,response1disk,,6,2,-2,1,0,0,rectangle,2,-2,1,0,0,2,-2,1,0,0,1,49,209,130,1,,,,,,,,
,,,,,,,,,,,,,FF,,,,,,,,1.3333,,,,,,,,,,,,,,,,,,,,,,610231089f7e70a4aab3d083,610375bdaac237a00c2c669b,2021-07-29_23h56.28.443,Simcolourproject_2stim_asymm_v5,2020.2.10,Win32,60,61025ae37ef11b136ea224fe,,,,,,,,,873,-37,-90,1,0,0,response5disk,,3,-3,-3,1,0,0,rectangle,-3,-3,1,0,0,-3,-3,1,0,0,1,50,210,119,1,,,,,,,,
,,,,,,,,,,,,,FF,,,,,,,,0.8667,,,,,,,,,,,,,,,,,,,,,,610231089f7e70a4aab3d083,610375bdaac237a00c2c669b,2021-07-29_23h56.28.443,Simcolourproject_2stim_asymm_v5,2020.2.10,Win32,60,61025ae37ef11b136ea224fe,,,,,,,,,3494,71,-29,1,0,0,response3disk,,5,8,2,1,0,0,rectangle,8,2,1,0,0,8,2,1,0,0,1,51,211,88,1,,,,,,,,
,,,,,,,,,,,,,FF,,,,,,,,1.9496,,,,,,,,,,,,,,,,,,,,,,610231089f7e70a4aab3d083,610375bdaac237a00c2c669b,2021-07-29_23h56.28.443,Simcolourproject_2stim_asymm_v5,2020.2.10,Win32,60,61025ae37ef11b136ea224fe,,,,,,,,,2534,95,-36,1,0,0,response3disk,,5,0,-10,1,0,0,rectangle,0,-10,1,0,0,0,-10,1,0,0,1,52,212,57,1,,,,,,,,
,,,,,,,,,,,,,FF,,,,,,,,1.633,,,,,,,,,,,,,,,,,,,,,,610231089f7e70a4aab3d083,610375bdaac237a00c2c669b,2021-07-29_23h56.28.443,Simcolourproject_2stim_asymm_v5,2020.2.10,Win32,60,61025ae37ef11b136ea224fe,,,,,,,,,3833,85,29,1,0,0,response1disk,,6,-13,-7,1,0,0,rectangle,-38,-94,1,0,0,-3,-8,1,0,0,1,53,213,19,1,,response5disk_3,TRUE,3,3,"[101,164,203,168,114,196,85,112,92,215,214,245,46,177,276,63,11,321,25,164]",1.2664,rectangle
,,,,,,,,,,,,,FF,,,,,,,,0.9833,,,,,,,,,,,,,,,,,,,,,,610231089f7e70a4aab3d083,610375bdaac237a00c2c669b,2021-07-29_23h56.28.443,Simcolourproject_2stim_asymm_v5,2020.2.10,Win32,60,61025ae37ef11b136ea224fe,,,,,,,,,2728,-42,-78,1,0,0,response5disk,,3,-6,5,1,0,0,rectangle,-50,-106,1,0,0,-3,-8,1,0,0,1,54,214,87,1,,response5disk_3,TRUE,3,3,"[101,164,203,168,114,196,85,112,92,215,214,245,46,177,276,63,11,321,25,164]",1.533,rectangle
,,,,,,,,,,,,,FF,,,,,,,,1.7997,,,,,,,,,,,,,,,,,,,,,,610231089f7e70a4aab3d083,610375bdaac237a00c2c669b,2021-07-29_23h56.28.443,Simcolourproject_2stim_asymm_v5,2020.2.10,Win32,60,61025ae37ef11b136ea224fe,,,,,,,,,1955,79,-31,1,0,0,response3disk,,5,-2,-4,1,0,0,rectangle,-2,-4,1,0,0,-2,-4,1,0,0,1,55,215,67,1,,,,,,,,
,,,,,,,,,,,,,FF,,,,,,,,1.5003,,,,,,,,,,,,,,,,,,,,,,610231089f7e70a4aab3d083,610375bdaac237a00c2c669b,2021-07-29_23h56.28.443,Simcolourproject_2stim_asymm_v5,2020.2.10,Win32,60,61025ae37ef11b136ea224fe,,,,,,,,,2915,63,-34,1,0,0,response3disk,,5,13,-9,1,0,0,rectangle,13,-9,1,0,0,13,-9,1,0,0,1,56,216,128,1,,,,,,,,
,,,,,,,,,,,,,FF,,,,,,,,0.8198,,,,,,,,,,,,,,,,,,,,,,610231089f7e70a4aab3d083,610375bdaac237a00c2c669b,2021-07-29_23h56.28.443,Simcolourproject_2stim_asymm_v5,2020.2.10,Win32,60,61025ae37ef11b136ea224fe,,,,,,,,,3669,-71,37,1,0,0,response7disk,,1,-17,6,1,0,0,rectangle,-17,6,1,0,0,-17,6,1,0,0,1,57,217,11,1,,,,,,,,
,,,,,,,,,,,,,FF,,,,,,,,2.2996,,,,,,,,,,,,,,,,,,,,,,610231089f7e70a4aab3d083,610375bdaac237a00c2c669b,2021-07-29_23h56.28.443,Simcolourproject_2stim_asymm_v5,2020.2.10,Win32,60,61025ae37ef11b136ea224fe,,,,,,,,,2268,38,-67,1,0,0,response3disk,,4,9,-4,1,0,0,rectangle,9,-4,1,0,0,9,-4,1,0,0,1,58,218,148,1,,,,,,,,
,,,,,,,,,,,,,FF,,,,,,,,4.9323,,,,,,,,,,,,,,,,,,,,,,610231089f7e70a4aab3d083,610375bdaac237a00c2c669b,2021-07-29_23h56.28.443,Simcolourproject_2stim_asymm_v5,2020.2.10,Win32,60,61025ae37ef11b136ea224fe,,,,,,,,,2510,68,32,1,0,0,response1disk,,6,1,4,1,0,0,rectangle,1,4,1,0,0,1,4,1,0,0,1,59,219,77,1,,,,,,,,
,,,,,,,,,,,,,FF,,,,,,,,3.2159,,,,,,,,,,,,,,,,,,,,,,610231089f7e70a4aab3d083,610375bdaac237a00c2c669b,2021-07-29_23h56.28.443,Simcolourproject_2stim_asymm_v5,2020.2.10,Win32,60,61025ae37ef11b136ea224fe,,,,,,,,,1718,67,-21,1,0,0,response3disk,,5,-10,-5,1,0,0,rectangle,-10,-5,1,0,0,-10,-5,1,0,0,1,60,220,41,1,,,,,,,,
,,,,,,,,,,,,,FF,,,,,,,,2.5662,,,,,,,,,,,,,,,,,,,,,,610231089f7e70a4aab3d083,610375bdaac237a00c2c669b,2021-07-29_23h56.28.443,Simcolourproject_2stim_asymm_v5,2020.2.10,Win32,60,61025ae37ef11b136ea224fe,,,,,,,,,1058,-79,-42,1,0,0,response5disk,,2,-23,0,1,0,0,rectangle,-23,0,1,0,0,-23,0,1,0,0,1,61,221,75,1,,,,,,,,
,,,,,,,,,,,,,FF,,,,,,,,1.4831,,,,,,,,,,,,,,,,,,,,,,610231089f7e70a4aab3d083,610375bdaac237a00c2c669b,2021-07-29_23h56.28.443,Simcolourproject_2stim_asymm_v5,2020.2.10,Win32,60,61025ae37ef11b136ea224fe,,,,,,,,,4085,-51,-91,1,0,0,response5disk,,3,-2,-1,1,0,0,rectangle,-2,-1,1,0,0,-2,-1,1,0,0,1,62,222,91,1,,,,,,,,
,,,,,,,,,,,,,FF,,,,,,,,2.7661,,,,,,,,,,,,,,,,,,,,,,610231089f7e70a4aab3d083,610375bdaac237a00c2c669b,2021-07-29_23h56.28.443,Simcolourproject_2stim_asymm_v5,2020.2.10,Win32,60,61025ae37ef11b136ea224fe,,,,,,,,,3475,-87,-38,1,0,0,response5disk,,2,-5,-1,1,0,0,rectangle,-5,-1,1,0,0,-5,-1,1,0,0,1,63,223,7,1,,,,,,,,
,,,,,,,,,,,,,FF,,,,,,,,2.0016,,,,,,,,,,,,,,,,,,,,,,610231089f7e70a4aab3d083,610375bdaac237a00c2c669b,2021-07-29_23h56.28.443,Simcolourproject_2stim_asymm_v5,2020.2.10,Win32,60,61025ae37ef11b136ea224fe,,,,,,,,,515,31,-73,1,0,0,response3disk,,4,3,-3,1,0,0,rectangle,3,-3,1,0,0,3,-3,1,0,0,1,64,224,35,1,,,,,,,,
,,,,,,,,,,,,,FF,,,,,,,,1.0829,,,,,,,,,,,,,,,,,,,,,,610231089f7e70a4aab3d083,610375bdaac237a00c2c669b,2021-07-29_23h56.28.443,Simcolourproject_2stim_asymm_v5,2020.2.10,Win32,60,61025ae37ef11b136ea224fe,,,,,,,,,2123,85,40,1,0,0,response1disk,,6,-11,0,1,0,0,rectangle,-11,0,1,0,0,-11,0,1,0,0,1,65,225,16,1,,,,,,,,
,,,,,,,,,,,,,FF,,,,,,,,1.15,,,,,,,,,,,,,,,,,,,,,,610231089f7e70a4aab3d083,610375bdaac237a00c2c669b,2021-07-29_23h56.28.443,Simcolourproject_2stim_asymm_v5,2020.2.10,Win32,60,61025ae37ef11b136ea224fe,,,,,,,,,1347,83,-43,1,0,0,response3disk,,5,-8,3,1,0,0,rectangle,-8,3,1,0,0,-8,3,1,0,0,1,66,226,110,1,,,,,,,,
,,,,,,,,,,,,,FF,,,,,,,,1.0861,,,,,,,,,,,,,,,,,,,,,,610231089f7e70a4aab3d083,610375bdaac237a00c2c669b,2021-07-29_23h56.28.443,Simcolourproject_2stim_asymm_v5,2020.2.10,Win32,60,61025ae37ef11b136ea224fe,,,,,,,,,1088,27,79,1,0,0,response1disk,,7,12,11,1,0,0,rectangle,12,11,1,0,0,12,11,1,0,0,1,67,227,81,1,,,,,,,,
,,,,,,,,,,,,,FF,,,,,,,,1.733,,,,,,,,,,,,,,,,,,,,,,610231089f7e70a4aab3d083,610375bdaac237a00c2c669b,2021-07-29_23h56.28.443,Simcolourproject_2stim_asymm_v5,2020.2.10,Win32,60,61025ae37ef11b136ea224fe,,,,,,,,,1526,-76,-48,1,0,0,response5disk,,2,-7,0,1,0,0,rectangle,-7,0,1,0,0,-7,0,1,0,0,1,68,228,104,1,,,,,,,,
,,,,,,,,,,,,,FF,,,,,,,,0.7334,,,,,,,,,,,,,,,,,,,,,,610231089f7e70a4aab3d083,610375bdaac237a00c2c669b,2021-07-29_23h56.28.443,Simcolourproject_2stim_asymm_v5,2020.2.10,Win32,60,61025ae37ef11b136ea224fe,,,,,,,,,4140,-36,91,1,0,0,response7disk,,0,-12,8,1,0,0,rectangle,-12,8,1,0,0,-12,8,1,0,0,1,69,229,40,1,,,,,,,,
,,,,,,,,,,,,,FF,,,,,,,,2.2325,,,,,,,,,,,,,,,,,,,,,,610231089f7e70a4aab3d083,610375bdaac237a00c2c669b,2021-07-29_23h56.28.443,Simcolourproject_2stim_asymm_v5,2020.2.10,Win32,60,61025ae37ef11b136ea224fe,,,,,,,,,235,75,49,1,0,0,response1disk,,6,-7,-3,1,0,0,rectangle,-7,-3,1,0,0,-7,-3,1,0,0,1,70,230,118,1,,,,,,,,
,,,,,,,,,,,,,FF,,,,,,,,2.4329,,,,,,,,,,,,,,,,,,,,,,610231089f7e70a4aab3d083,610375bdaac237a00c2c669b,2021-07-29_23h56.28.443,Simcolourproject_2stim_asymm_v5,2020.2.10,Win32,60,61025ae37ef11b136ea224fe,,,,,,,,,3996,-38,-89,1,0,0,response5disk,,3,7,-8,1,0,0,rectangle,7,-8,1,0,0,7,-8,1,0,0,1,71,231,96,1,,,,,,,,
,,,,,,,,,,,,,FF,,,,,,,,1.9498,,,,,,,,,,,,,,,,,,,,,,610231089f7e70a4aab3d083,610375bdaac237a00c2c669b,2021-07-29_23h56.28.443,Simcolourproject_2stim_asymm_v5,2020.2.10,Win32,60,61025ae37ef11b136ea224fe,,,,,,,,,3841,80,35,1,0,0,response1disk,,6,-3,-4,1,0,0,rectangle,-3,-4,1,0,0,-3,-4,1,0,0,1,72,232,98,1,,,,,,,,
,,,,,,,,,,,,,FF,,,,,,,,0.7834,,,,,,,,,,,,,,,,,,,,,,610231089f7e70a4aab3d083,610375bdaac237a00c2c669b,2021-07-29_23h56.28.443,Simcolourproject_2stim_asymm_v5,2020.2.10,Win32,60,61025ae37ef11b136ea224fe,,,,,,,,,3686,77,27,1,0,0,response1disk,,6,-19,2,1,0,0,rectangle,-19,2,1,0,0,-19,2,1,0,0,1,73,233,84,1,,,,,,,,
,,,,,,,,,,,,,FF,,,,,,,,1.9498,,,,,,,,,,,,,,,,,,,,,,610231089f7e70a4aab3d083,610375bdaac237a00c2c669b,2021-07-29_23h56.28.443,Simcolourproject_2stim_asymm_v5,2020.2.10,Win32,60,61025ae37ef11b136ea224fe,,,,,,,,,3779,44,-77,1,0,0,response3disk,,4,-7,-4,1,0,0,rectangle,-7,-4,1,0,0,-7,-4,1,0,0,1,74,234,114,1,,,,,,,,
,,,,,,,,,,,,,FF,,,,,,,,2.3497,,,,,,,,,,,,,,,,,,,,,,610231089f7e70a4aab3d083,610375bdaac237a00c2c669b,2021-07-29_23h56.28.443,Simcolourproject_2stim_asymm_v5,2020.2.10,Win32,60,61025ae37ef11b136ea224fe,,,,,,,,,4108,29,-76,1,0,0,response3disk,,4,-11,3,1,0,0,rectangle,-11,3,1,0,0,-11,3,1,0,0,1,75,235,150,1,,,,,,,,
,,,,,,,,,,,,,FF,,,,,,,,1.4998,,,,,,,,,,,,,,,,,,,,,,610231089f7e70a4aab3d083,610375bdaac237a00c2c669b,2021-07-29_23h56.28.443,Simcolourproject_2stim_asymm_v5,2020.2.10,Win32,60,61025ae37ef11b136ea224fe,,,,,,,,,3333,67,-31,1,0,0,response3disk,,5,-5,-3,1,0,0,rectangle,-5,-3,1,0,0,-5,-3,1,0,0,1,76,236,5,1,,,,,,,,
,,,,,,,,,,,,,FF,,,,,,,,0.9668,,,,,,,,,,,,,,,,,,,,,,610231089f7e70a4aab3d083,610375bdaac237a00c2c669b,2021-07-29_23h56.28.443,Simcolourproject_2stim_asymm_v5,2020.2.10,Win32,60,61025ae37ef11b136ea224fe,,,,,,,,,3411,74,29,1,0,0,response1disk,,6,3,4,1,0,0,rectangle,3,4,1,0,0,3,4,1,0,0,1,77,237,47,1,,,,,,,,
,,,,,,,,,,,,,FF,,,,,,,,1.4669,,,,,,,,,,,,,,,,,,,,,,610231089f7e70a4aab3d083,610375bdaac237a00c2c669b,2021-07-29_23h56.28.443,Simcolourproject_2stim_asymm_v5,2020.2.10,Win32,60,61025ae37ef11b136ea224fe,,,,,,,,,3827,67,37,1,0,0,response1disk,,6,0,0,1,0,0,rectangle,0,0,1,0,0,0,0,1,0,0,1,78,238,29,1,,,,,,,,
,,,,,,,,,,,,,FF,,,,,,,,0.9168,,,,,,,,,,,,,,,,,,,,,,610231089f7e70a4aab3d083,610375bdaac237a00c2c669b,2021-07-29_23h56.28.443,Simcolourproject_2stim_asymm_v5,2020.2.10,Win32,60,61025ae37ef11b136ea224fe,,,,,,,,,1832,28,-80,1,0,0,response3disk,,4,-26,-1,1,0,0,rectangle,-26,-1,1,0,0,-26,-1,1,0,0,1,79,239,144,1,,,,,,,,
,,,,,,,,,,,,,FF,,,,,,,,2.6327,,,,,,,,,,,,,,,,,,,,,,610231089f7e70a4aab3d083,610375bdaac237a00c2c669b,2021-07-29_23h56.28.443,Simcolourproject_2stim_asymm_v5,2020.2.10,Win32,60,61025ae37ef11b136ea224fe,,,,,,,,,4329,-53,-80,1,0,0,response5disk,,3,-2,1,1,0,0,rectangle,-2,1,1,0,0,-2,1,1,0,0,1,80,240,105,1,,,,,,,,
,,,,,,,,,,,,,FF,,,,,,,,2.1164,,,,,,,,,,,,,,,,,,,,,,610231089f7e70a4aab3d083,610375bdaac237a00c2c669b,2021-07-29_23h56.28.443,Simcolourproject_2stim_asymm_v5,2020.2.10,Win32,60,61025ae37ef11b136ea224fe,,,,,,,,,4159,61,-35,1,0,0,response3disk,,5,9,-2,1,0,0,rectangle,9,-2,1,0,0,9,-2,1,0,0,1,81,241,133,1,,,,,,,,
,,,,,,,,,,,,,FF,,,,,,,,1.1001,,,,,,,,,,,,,,,,,,,,,,610231089f7e70a4aab3d083,610375bdaac237a00c2c669b,2021-07-29_23h56.28.443,Simcolourproject_2stim_asymm_v5,2020.2.10,Win32,60,61025ae37ef11b136ea224fe,,,,,,,,,1392,87,36,1,0,0,response1disk,,6,-3,-1,1,0,0,rectangle,-3,-1,1,0,0,-3,-1,1,0,0,1,82,242,83,1,,,,,,,,
,,,,,,,,,,,,,FF,,,,,,,,1.0164,,,,,,,,,,,,,,,,,,,,,,610231089f7e70a4aab3d083,610375bdaac237a00c2c669b,2021-07-29_23h56.28.443,Simcolourproject_2stim_asymm_v5,2020.2.10,Win32,60,61025ae37ef11b136ea224fe,,,,,,,,,2706,83,47,1,0,0,response1disk,,6,-32,-12,1,0,0,rectangle,-32,-12,1,0,0,-32,-12,1,0,0,1,83,243,80,1,,,,,,,,
,,,,,,,,,,,,,FF,,,,,,,,0.7332,,,,,,,,,,,,,,,,,,,,,,610231089f7e70a4aab3d083,610375bdaac237a00c2c669b,2021-07-29_23h56.28.443,Simcolourproject_2stim_asymm_v5,2020.2.10,Win32,60,61025ae37ef11b136ea224fe,,,,,,,,,26,64,36,1,0,0,response1disk,,6,3,-9,1,0,0,rectangle,-88,37,1,0,0,-4,-7,1,0,0,1,84,244,38,1,,response7disk_3,TRUE,1,1,"[101,164,203,168,114,196,85,112,92,215,214,245,46,177,276,63,11,321,25,164]",1.2494,rectangle
,,,,,,,,,,,,,FF,,,,,,,,1.2996,,,,,,,,,,,,,,,,,,,,,,610231089f7e70a4aab3d083,610375bdaac237a00c2c669b,2021-07-29_23h56.28.443,Simcolourproject_2stim_asymm_v5,2020.2.10,Win32,60,61025ae37ef11b136ea224fe,,,,,,,,,2449,87,37,1,0,0,response1disk,,6,-6,5,1,0,0,rectangle,-6,5,1,0,0,-6,5,1,0,0,1,85,245,4,1,,,,,,,,
,,,,,,,,,,,,,FF,,,,,,,,1.1164,,,,,,,,,,,,,,,,,,,,,,610231089f7e70a4aab3d083,610375bdaac237a00c2c669b,2021-07-29_23h56.28.443,Simcolourproject_2stim_asymm_v5,2020.2.10,Win32,60,61025ae37ef11b136ea224fe,,,,,,,,,2032,-78,-30,1,0,0,response5disk,,2,-20,9,1,0,0,rectangle,-20,9,1,0,0,-20,9,1,0,0,1,86,246,145,1,,,,,,,,
,,,,,,,,,,,,,FF,,,,,,,,3.6661,,,,,,,,,,,,,,,,,,,,,,610231089f7e70a4aab3d083,610375bdaac237a00c2c669b,2021-07-29_23h56.28.443,Simcolourproject_2stim_asymm_v5,2020.2.10,Win32,60,61025ae37ef11b136ea224fe,,,,,,,,,1130,66,35,1,0,0,response1disk,,6,-1,3,1,0,0,rectangle,-1,3,1,0,0,-1,3,1,0,0,1,87,247,158,1,,,,,,,,
,,,,,,,,,,,,,FF,,,,,,,,7.5151,,,,,,,,,,,,,,,,,,,,,,610231089f7e70a4aab3d083,610375bdaac237a00c2c669b,2021-07-29_23h56.28.443,Simcolourproject_2stim_asymm_v5,2020.2.10,Win32,60,61025ae37ef11b136ea224fe,,,,,,,,,735,85,-46,1,0,0,response3disk,,5,6,-3,1,0,0,rectangle,6,-3,1,0,0,6,-3,1,0,0,1,88,248,101,1,,,,,,,,
,,,,,,,,,,,,,FF,,,,,,,,0.7166,,,,,,,,,,,,,,,,,,,,,,610231089f7e70a4aab3d083,610375bdaac237a00c2c669b,2021-07-29_23h56.28.443,Simcolourproject_2stim_asymm_v5,2020.2.10,Win32,60,61025ae37ef11b136ea224fe,,,,,,,,,3832,58,41,1,0,0,response1disk,,6,19,9,1,0,0,rectangle,19,9,1,0,0,19,9,1,0,0,1,89,249,28,1,,,,,,,,
,,,,,,,,,,,,,FF,,,,,,,,0.5368,,,,,,,,,,,,,,,,,,,,,,610231089f7e70a4aab3d083,610375bdaac237a00c2c669b,2021-07-29_23h56.28.443,Simcolourproject_2stim_asymm_v5,2020.2.10,Win32,60,61025ae37ef11b136ea224fe,,,,,,,,,2467,55,27,1,0,0,response1disk,,6,18,5,1,0,0,rectangle,18,5,1,0,0,18,5,1,0,0,1,90,250,22,1,,,,,,,,
,,,,,,,,,,,,,FF,,,,,,,,1.1161,,,,,,,,,,,,,,,,,,,,,,610231089f7e70a4aab3d083,610375bdaac237a00c2c669b,2021-07-29_23h56.28.443,Simcolourproject_2stim_asymm_v5,2020.2.10,Win32,60,61025ae37ef11b136ea224fe,,,,,,,,,2713,-56,-91,1,0,0,response5disk,,3,-11,-1,1,0,0,rectangle,-11,-1,1,0,0,-11,-1,1,0,0,1,91,251,127,1,,,,,,,,
,,,,,,,,,,,,,FF,,,,,,,,2.0464,,,,,,,,,,,,,,,,,,,,,,610231089f7e70a4aab3d083,610375bdaac237a00c2c669b,2021-07-29_23h56.28.443,Simcolourproject_2stim_asymm_v5,2020.2.10,Win32,60,61025ae37ef11b136ea224fe,,,,,,,,,316,81,34,1,0,0,response1disk,,6,4,0,1,0,0,rectangle,4,0,1,0,0,4,0,1,0,0,1,92,252,51,1,,,,,,,,
,,,,,,,,,,,,,FF,,,,,,,,1.4331,,,,,,,,,,,,,,,,,,,,,,610231089f7e70a4aab3d083,610375bdaac237a00c2c669b,2021-07-29_23h56.28.443,Simcolourproject_2stim_asymm_v5,2020.2.10,Win32,60,61025ae37ef11b136ea224fe,,,,,,,,,1778,77,33,1,0,0,response1disk,,6,-13,-3,1,0,0,rectangle,-13,-3,1,0,0,-13,-3,1,0,0,1,93,253,3,1,,,,,,,,
,,,,,,,,,,,,,FF,,,,,,,,1.1532,,,,,,,,,,,,,,,,,,,,,,610231089f7e70a4aab3d083,610375bdaac237a00c2c669b,2021-07-29_23h56.28.443,Simcolourproject_2stim_asymm_v5,2020.2.10,Win32,60,61025ae37ef11b136ea224fe,,,,,,,,,1259,93,49,1,0,0,response1disk,,6,10,-10,1,0,0,rectangle,10,-10,1,0,0,10,-10,1,0,0,1,94,254,74,1,,,,,,,,
,,,,,,,,,,,,,FF,,,,,,,,0.5668,,,,,,,,,,,,,,,,,,,,,,610231089f7e70a4aab3d083,610375bdaac237a00c2c669b,2021-07-29_23h56.28.443,Simcolourproject_2stim_asymm_v5,2020.2.10,Win32,60,61025ae37ef11b136ea224fe,,,,,,,,,3540,16,74,1,0,0,response1disk,,7,-1,4,1,0,0,rectangle,-1,4,1,0,0,-1,4,1,0,0,1,95,255,82,1,,,,,,,,
,,,,,,,,,,,,,FF,,,,,,,,0.9199,,,,,,,,,,,,,,,,,,,,,,610231089f7e70a4aab3d083,610375bdaac237a00c2c669b,2021-07-29_23h56.28.443,Simcolourproject_2stim_asymm_v5,2020.2.10,Win32,60,61025ae37ef11b136ea224fe,,,,,,,,,4319,84,38,1,0,0,response1disk,,6,10,-11,1,0,0,rectangle,10,-11,1,0,0,10,-11,1,0,0,1,96,256,6,1,,,,,,,,
,,,,,,,,,,,,,FF,,,,,,,,0.7363,,,,,,,,,,,,,,,,,,,,,,610231089f7e70a4aab3d083,610375bdaac237a00c2c669b,2021-07-29_23h56.28.443,Simcolourproject_2stim_asymm_v5,2020.2.10,Win32,60,61025ae37ef11b136ea224fe,,,,,,,,,4314,99,50,1,0,0,response1disk,,6,16,-3,1,0,0,rectangle,16,-3,1,0,0,16,-3,1,0,0,1,97,257,79,1,,,,,,,,
,,,,,,,,,,,,,FF,,,,,,,,1.35,,,,,,,,,,,,,,,,,,,,,,610231089f7e70a4aab3d083,610375bdaac237a00c2c669b,2021-07-29_23h56.28.443,Simcolourproject_2stim_asymm_v5,2020.2.10,Win32,60,61025ae37ef11b136ea224fe,,,,,,,,,764,63,39,1,0,0,response1disk,,6,-4,0,1,0,0,rectangle,-4,0,1,0,0,-4,0,1,0,0,1,98,258,69,1,,,,,,,,
,,,,,,,,,,,,,FF,,,,,,,,1.7497,,,,,,,,,,,,,,,,,,,,,,610231089f7e70a4aab3d083,610375bdaac237a00c2c669b,2021-07-29_23h56.28.443,Simcolourproject_2stim_asymm_v5,2020.2.10,Win32,60,61025ae37ef11b136ea224fe,,,,,,,,,1246,73,-34,1,0,0,response3disk,,5,-15,-5,1,0,0,rectangle,-15,-5,1,0,0,-15,-5,1,0,0,1,99,259,135,1,,,,,,,,
,,,,,,,,,,,,,FF,,,,,,,,1.1498,,,,,,,,,,,,,,,,,,,,,,610231089f7e70a4aab3d083,610375bdaac237a00c2c669b,2021-07-29_23h56.28.443,Simcolourproject_2stim_asymm_v5,2020.2.10,Win32,60,61025ae37ef11b136ea224fe,,,,,,,,,423,87,-34,1,0,0,response3disk,,5,-5,-3,1,0,0,rectangle,-5,-3,1,0,0,-5,-3,1,0,0,1,100,260,37,1,,,,,,,,
,,,,,,,,,,,,,FF,,,,,,,,0.8,,,,,,,,,,,,,,,,,,,,,,610231089f7e70a4aab3d083,610375bdaac237a00c2c669b,2021-07-29_23h56.28.443,Simcolourproject_2stim_asymm_v5,2020.2.10,Win32,60,61025ae37ef11b136ea224fe,,,,,,,,,2168,59,-116,1,0,0,response3disk,,4,-21,10,1,0,0,rectangle,-21,10,1,0,0,-21,10,1,0,0,1,101,261,99,1,,,,,,,,
,,,,,,,,,,,,,FF,,,,,,,,1.2328,,,,,,,,,,,,,,,,,,,,,,610231089f7e70a4aab3d083,610375bdaac237a00c2c669b,2021-07-29_23h56.28.443,Simcolourproject_2stim_asymm_v5,2020.2.10,Win32,60,61025ae37ef11b136ea224fe,,,,,,,,,1406,80,-46,1,0,0,response3disk,,5,-1,-15,1,0,0,rectangle,-1,-15,1,0,0,-1,-15,1,0,0,1,102,262,42,1,,,,,,,,
,,,,,,,,,,,,,FF,,,,,,,,0.9332,,,,,,,,,,,,,,,,,,,,,,610231089f7e70a4aab3d083,610375bdaac237a00c2c669b,2021-07-29_23h56.28.443,Simcolourproject_2stim_asymm_v5,2020.2.10,Win32,60,61025ae37ef11b136ea224fe,,,,,,,,,3618,71,-27,1,0,0,response3disk,,5,-5,4,1,0,0,rectangle,-5,4,1,0,0,-5,4,1,0,0,1,103,263,155,1,,,,,,,,
,,,,,,,,,,,,,FF,,,,,,,,0.6697,,,,,,,,,,,,,,,,,,,,,,610231089f7e70a4aab3d083,610375bdaac237a00c2c669b,2021-07-29_23h56.28.443,Simcolourproject_2stim_asymm_v5,2020.2.10,Win32,60,61025ae37ef11b136ea224fe,,,,,,,,,3406,87,29,1,0,0,response1disk,,6,-14,-7,1,0,0,rectangle,-14,-7,1,0,0,-14,-7,1,0,0,1,104,264,134,1,,,,,,,,
,,,,,,,,,,,,,FF,,,,,,,,0.8888,,,,,,,,,,,,,,,,,,,,,,610231089f7e70a4aab3d083,610375bdaac237a00c2c669b,2021-07-29_23h56.28.443,Simcolourproject_2stim_asymm_v5,2020.2.10,Win32,60,61025ae37ef11b136ea224fe,,,,,,,,,694,83,32,1,0,0,response1disk,,6,-2,-6,1,0,0,rectangle,-2,-6,1,0,0,-2,-6,1,0,0,1,105,265,100,1,,,,,,,,
,,,,,,,,,,,,,FF,,,,,,,,1.0333,,,,,,,,,,,,,,,,,,,,,,610231089f7e70a4aab3d083,610375bdaac237a00c2c669b,2021-07-29_23h56.28.443,Simcolourproject_2stim_asymm_v5,2020.2.10,Win32,60,61025ae37ef11b136ea224fe,,,,,,,,,3652,63,38,1,0,0,response1disk,,6,2,-2,1,0,0,rectangle,2,-2,1,0,0,2,-2,1,0,0,1,106,266,32,1,,,,,,,,
,,,,,,,,,,,,,FF,,,,,,,,1.1197,,,,,,,,,,,,,,,,,,,,,,610231089f7e70a4aab3d083,610375bdaac237a00c2c669b,2021-07-29_23h56.28.443,Simcolourproject_2stim_asymm_v5,2020.2.10,Win32,60,61025ae37ef11b136ea224fe,,,,,,,,,3817,-71,-32,1,0,0,response5disk,,2,0,6,1,0,0,rectangle,0,6,1,0,0,0,6,1,0,0,1,107,267,149,1,,,,,,,,
,,,,,,,,,,,,,FF,,,,,,,,2.3495,,,,,,,,,,,,,,,,,,,,,,610231089f7e70a4aab3d083,610375bdaac237a00c2c669b,2021-07-29_23h56.28.443,Simcolourproject_2stim_asymm_v5,2020.2.10,Win32,60,61025ae37ef11b136ea224fe,,,,,,,,,1666,39,-68,1,0,0,response3disk,,4,-10,5,1,0,0,rectangle,-10,5,1,0,0,-10,5,1,0,0,1,108,268,73,1,,,,,,,,
,,,,,,,,,,,,,FF,,,,,,,,0.7666,,,,,,,,,,,,,,,,,,,,,,610231089f7e70a4aab3d083,610375bdaac237a00c2c669b,2021-07-29_23h56.28.443,Simcolourproject_2stim_asymm_v5,2020.2.10,Win32,60,61025ae37ef11b136ea224fe,,,,,,,,,2566,63,33,1,0,0,response1disk,,6,-17,-5,1,0,0,rectangle,-17,-5,1,0,0,-17,-5,1,0,0,1,109,269,159,1,,,,,,,,
,,,,,,,,,,,,,FF,,,,,,,,0.9334,,,,,,,,,,,,,,,,,,,,,,610231089f7e70a4aab3d083,610375bdaac237a00c2c669b,2021-07-29_23h56.28.443,Simcolourproject_2stim_asymm_v5,2020.2.10,Win32,60,61025ae37ef11b136ea224fe,,,,,,,,,10,74,-39,1,0,0,response3disk,,5,-1,1,1,0,0,rectangle,-1,1,1,0,0,-1,1,1,0,0,1,110,270,121,1,,,,,,,,
,,,,,,,,,,,,,FF,,,,,,,,0.6833,,,,,,,,,,,,,,,,,,,,,,610231089f7e70a4aab3d083,610375bdaac237a00c2c669b,2021-07-29_23h56.28.443,Simcolourproject_2stim_asymm_v5,2020.2.10,Win32,60,61025ae37ef11b136ea224fe,,,,,,,,,3794,64,34,1,0,0,response1disk,,6,-11,-11,1,0,0,rectangle,-11,-11,1,0,0,-11,-11,1,0,0,1,111,271,14,1,,,,,,,,
,,,,,,,,,,,,,FF,,,,,,,,0.55,,,,,,,,,,,,,,,,,,,,,,610231089f7e70a4aab3d083,610375bdaac237a00c2c669b,2021-07-29_23h56.28.443,Simcolourproject_2stim_asymm_v5,2020.2.10,Win32,60,61025ae37ef11b136ea224fe,,,,,,,,,56,64,30,1,0,0,response1disk,,6,10,-6,1,0,0,rectangle,10,-6,1,0,0,10,-6,1,0,0,1,112,272,23,1,,,,,,,,
,,,,,,,,,,,,,FF,,,,,,,,1.3329,,,,,,,,,,,,,,,,,,,,,,610231089f7e70a4aab3d083,610375bdaac237a00c2c669b,2021-07-29_23h56.28.443,Simcolourproject_2stim_asymm_v5,2020.2.10,Win32,60,61025ae37ef11b136ea224fe,,,,,,,,,2235,-78,27,1,0,0,response7disk,,1,-11,2,1,0,0,rectangle,-11,2,1,0,0,-11,2,1,0,0,1,113,273,15,1,,,,,,,,
,,,,,,,,,,,,,FF,,,,,,,,3.3492,,,,,,,,,,,,,,,,,,,,,,610231089f7e70a4aab3d083,610375bdaac237a00c2c669b,2021-07-29_23h56.28.443,Simcolourproject_2stim_asymm_v5,2020.2.10,Win32,60,61025ae37ef11b136ea224fe,,,,,,,,,1548,72,-33,1,0,0,response3disk,,5,-4,2,1,0,0,rectangle,-4,2,1,0,0,-4,2,1,0,0,1,114,274,62,1,,,,,,,,
,,,,,,,,,,,,,FF,,,,,,,,2.1164,,,,,,,,,,,,,,,,,,,,,,610231089f7e70a4aab3d083,610375bdaac237a00c2c669b,2021-07-29_23h56.28.443,Simcolourproject_2stim_asymm_v5,2020.2.10,Win32,60,61025ae37ef11b136ea224fe,,,,,,,,,3903,70,-22,1,0,0,response3disk,,5,7,1,1,0,0,rectangle,37,-81,1,0,0,-3,-3,1,0,0,1,115,275,26,1,,response3disk_3,TRUE,4,4,"[101,164,203,168,114,196,85,112,92,215,214,245,46,177,276,63,11,321,25,164]",1.0496,rectangle
,,,,,,,,,,,,,FF,,,,,,,,6.1816,,,,,,,,,,,,,,,,,,,,,,610231089f7e70a4aab3d083,610375bdaac237a00c2c669b,2021-07-29_23h56.28.443,Simcolourproject_2stim_asymm_v5,2020.2.10,Win32,60,61025ae37ef11b136ea224fe,,,,,,,,,2214,71,-43,1,0,0,response3disk,,5,-3,-2,1,0,0,rectangle,-3,-2,1,0,0,-3,-2,1,0,0,1,116,276,55,1,,,,,,,,
,,,,,,,,,,,,,FF,,,,,,,,0.6535,,,,,,,,,,,,,,,,,,,,,,610231089f7e70a4aab3d083,610375bdaac237a00c2c669b,2021-07-29_23h56.28.443,Simcolourproject_2stim_asymm_v5,2020.2.10,Win32,60,61025ae37ef11b136ea224fe,,,,,,,,,4178,74,-32,1,0,0,response3disk,,5,-21,-10,1,0,0,rectangle,-21,-10,1,0,0,-21,-10,1,0,0,1,117,277,53,1,,,,,,,,
,,,,,,,,,,,,,FF,,,,,,,,1.7664,,,,,,,,,,,,,,,,,,,,,,610231089f7e70a4aab3d083,610375bdaac237a00c2c669b,2021-07-29_23h56.28.443,Simcolourproject_2stim_asymm_v5,2020.2.10,Win32,60,61025ae37ef11b136ea224fe,,,,,,,,,552,84,-37,1,0,0,response3disk,,5,-5,2,1,0,0,rectangle,-5,2,1,0,0,-5,2,1,0,0,1,118,278,45,1,,,,,,,,
,,,,,,,,,,,,,FF,,,,,,,,1.2665,,,,,,,,,,,,,,,,,,,,,,610231089f7e70a4aab3d083,610375bdaac237a00c2c669b,2021-07-29_23h56.28.443,Simcolourproject_2stim_asymm_v5,2020.2.10,Win32,60,61025ae37ef11b136ea224fe,,,,,,,,,3202,45,-87,1,0,0,response3disk,,4,-7,-2,1,0,0,rectangle,-7,-2,1,0,0,-7,-2,1,0,0,1,119,279,43,1,,,,,,,,
,,,,,,,,,,,,,FF,,,,,,,,0.85,,,,,,,,,,,,,,,,,,,,,,610231089f7e70a4aab3d083,610375bdaac237a00c2c669b,2021-07-29_23h56.28.443,Simcolourproject_2stim_asymm_v5,2020.2.10,Win32,60,61025ae37ef11b136ea224fe,,,,,,,,,1321,78,-32,1,0,0,response3disk,,5,15,-1,1,0,0,rectangle,15,-1,1,0,0,15,-1,1,0,0,1,120,280,112,1,,,,,,,,
,,,,,,,,,,,,,FF,,,,,,,,0.9001,,,,,,,,,,,,,,,,,,,,,,610231089f7e70a4aab3d083,610375bdaac237a00c2c669b,2021-07-29_23h56.28.443,Simcolourproject_2stim_asymm_v5,2020.2.10,Win32,60,61025ae37ef11b136ea224fe,,,,,,,,,1720,90,32,1,0,0,response1disk,,6,-5,-1,1,0,0,rectangle,-5,-1,1,0,0,-5,-1,1,0,0,1,121,281,34,1,,,,,,,,
,,,,,,,,,,,,,FF,,,,,,,,0.9164,,,,,,,,,,,,,,,,,,,,,,610231089f7e70a4aab3d083,610375bdaac237a00c2c669b,2021-07-29_23h56.28.443,Simcolourproject_2stim_asymm_v5,2020.2.10,Win32,60,61025ae37ef11b136ea224fe,,,,,,,,,3075,79,25,1,0,0,response1disk,,6,-6,-4,1,0,0,rectangle,-6,-4,1,0,0,-6,-4,1,0,0,1,122,282,137,1,,,,,,,,
,,,,,,,,,,,,,FF,,,,,,,,1.5832,,,,,,,,,,,,,,,,,,,,,,610231089f7e70a4aab3d083,610375bdaac237a00c2c669b,2021-07-29_23h56.28.443,Simcolourproject_2stim_asymm_v5,2020.2.10,Win32,60,61025ae37ef11b136ea224fe,,,,,,,,,374,-46,-95,1,0,0,response5disk,,3,-12,-11,1,0,0,rectangle,-12,-11,1,0,0,-12,-11,1,0,0,1,123,283,48,1,,,,,,,,
,,,,,,,,,,,,,FF,,,,,,,,1.7994,,,,,,,,,,,,,,,,,,,,,,610231089f7e70a4aab3d083,610375bdaac237a00c2c669b,2021-07-29_23h56.28.443,Simcolourproject_2stim_asymm_v5,2020.2.10,Win32,60,61025ae37ef11b136ea224fe,,,,,,,,,2186,43,-71,1,0,0,response3disk,,4,2,-10,1,0,0,rectangle,2,-10,1,0,0,2,-10,1,0,0,1,124,284,138,1,,,,,,,,
,,,,,,,,,,,,,FF,,,,,,,,0.7332,,,,,,,,,,,,,,,,,,,,,,610231089f7e70a4aab3d083,610375bdaac237a00c2c669b,2021-07-29_23h56.28.443,Simcolourproject_2stim_asymm_v5,2020.2.10,Win32,60,61025ae37ef11b136ea224fe,,,,,,,,,267,62,30,1,0,0,response1disk,,6,-12,2,1,0,0,rectangle,-12,2,1,0,0,-12,2,1,0,0,1,125,285,68,1,,,,,,,,
,,,,,,,,,,,,,FF,,,,,,,,1.0032,,,,,,,,,,,,,,,,,,,,,,610231089f7e70a4aab3d083,610375bdaac237a00c2c669b,2021-07-29_23h56.28.443,Simcolourproject_2stim_asymm_v5,2020.2.10,Win32,60,61025ae37ef11b136ea224fe,,,,,,,,,4281,-51,-78,1,0,0,response5disk,,3,-6,-9,1,0,0,rectangle,-6,-9,1,0,0,-6,-9,1,0,0,1,126,286,94,1,,,,,,,,
,,,,,,,,,,,,,FF,,,,,,,,0.7668,,,,,,,,,,,,,,,,,,,,,,610231089f7e70a4aab3d083,610375bdaac237a00c2c669b,2021-07-29_23h56.28.443,Simcolourproject_2stim_asymm_v5,2020.2.10,Win32,60,61025ae37ef11b136ea224fe,,,,,,,,,4313,89,-40,1,0,0,response3disk,,5,-8,-7,1,0,0,rectangle,-8,-7,1,0,0,-8,-7,1,0,0,1,127,287,143,1,,,,,,,,
,,,,,,,,,,,,,FF,,,,,,,,1.3493,,,,,,,,,,,,,,,,,,,,,,610231089f7e70a4aab3d083,610375bdaac237a00c2c669b,2021-07-29_23h56.28.443,Simcolourproject_2stim_asymm_v5,2020.2.10,Win32,60,61025ae37ef11b136ea224fe,,,,,,,,,1810,-81,-44,1,0,0,response5disk,,2,-1,-2,1,0,0,rectangle,-1,-2,1,0,0,-1,-2,1,0,0,1,128,288,123,1,,,,,,,,
,,,,,,,,,,,,,FF,,,,,,,,2.2828,,,,,,,,,,,,,,,,,,,,,,610231089f7e70a4aab3d083,610375bdaac237a00c2c669b,2021-07-29_23h56.28.443,Simcolourproject_2stim_asymm_v5,2020.2.10,Win32,60,61025ae37ef11b136ea224fe,,,,,,,,,1872,66,-32,1,0,0,response3disk,,5,-19,6,1,0,0,rectangle,-19,6,1,0,0,-19,6,1,0,0,1,129,289,12,1,,,,,,,,
,,,,,,,,,,,,,FF,,,,,,,,0.6998,,,,,,,,,,,,,,,,,,,,,,610231089f7e70a4aab3d083,610375bdaac237a00c2c669b,2021-07-29_23h56.28.443,Simcolourproject_2stim_asymm_v5,2020.2.10,Win32,60,61025ae37ef11b136ea224fe,,,,,,,,,208,71,-28,1,0,0,response3disk,,5,-3,-7,1,0,0,rectangle,-3,-7,1,0,0,-3,-7,1,0,0,1,130,290,152,1,,,,,,,,
,,,,,,,,,,,,,FF,,,,,,,,2.4999,,,,,,,,,,,,,,,,,,,,,,610231089f7e70a4aab3d083,610375bdaac237a00c2c669b,2021-07-29_23h56.28.443,Simcolourproject_2stim_asymm_v5,2020.2.10,Win32,60,61025ae37ef11b136ea224fe,,,,,,,,,4176,62,28,1,0,0,response1disk,,6,-7,5,1,0,0,rectangle,-7,5,1,0,0,-7,5,1,0,0,1,131,291,25,1,,,,,,,,
,,,,,,,,,,,,,FF,,,,,,,,1.583,,,,,,,,,,,,,,,,,,,,,,610231089f7e70a4aab3d083,610375bdaac237a00c2c669b,2021-07-29_23h56.28.443,Simcolourproject_2stim_asymm_v5,2020.2.10,Win32,60,61025ae37ef11b136ea224fe,,,,,,,,,1620,86,-25,1,0,0,response3disk,,5,-11,-1,1,0,0,rectangle,-11,-1,1,0,0,-11,-1,1,0,0,1,132,292,27,1,,,,,,,,
,,,,,,,,,,,,,FF,,,,,,,,4.3823,,,,,,,,,,,,,,,,,,,,,,610231089f7e70a4aab3d083,610375bdaac237a00c2c669b,2021-07-29_23h56.28.443,Simcolourproject_2stim_asymm_v5,2020.2.10,Win32,60,61025ae37ef11b136ea224fe,,,,,,,,,4057,74,-35,1,0,0,response3disk,,5,3,-9,1,0,0,rectangle,3,-9,1,0,0,3,-9,1,0,0,1,133,293,90,1,,,,,,,,
,,,,,,,,,,,,,FF,,,,,,,,2.2998,,,,,,,,,,,,,,,,,,,,,,610231089f7e70a4aab3d083,610375bdaac237a00c2c669b,2021-07-29_23h56.28.443,Simcolourproject_2stim_asymm_v5,2020.2.10,Win32,60,61025ae37ef11b136ea224fe,,,,,,,,,4050,94,39,1,0,0,response1disk,,6,-5,3,1,0,0,rectangle,-5,3,1,0,0,-5,3,1,0,0,1,134,294,85,1,,,,,,,,
,,,,,,,,,,,,,FF,,,,,,,,1.1302,,,,,,,,,,,,,,,,,,,,,,610231089f7e70a4aab3d083,610375bdaac237a00c2c669b,2021-07-29_23h56.28.443,Simcolourproject_2stim_asymm_v5,2020.2.10,Win32,60,61025ae37ef11b136ea224fe,,,,,,,,,970,-83,29,1,0,0,response7disk,,1,-15,3,1,0,0,rectangle,-15,3,1,0,0,-15,3,1,0,0,1,135,295,18,1,,,,,,,,
,,,,,,,,,,,,,FF,,,,,,,,0.8498,,,,,,,,,,,,,,,,,,,,,,610231089f7e70a4aab3d083,610375bdaac237a00c2c669b,2021-07-29_23h56.28.443,Simcolourproject_2stim_asymm_v5,2020.2.10,Win32,60,61025ae37ef11b136ea224fe,,,,,,,,,1904,-39,-62,1,0,0,response5disk,,3,8,0,1,0,0,rectangle,8,0,1,0,0,8,0,1,0,0,1,136,296,120,1,,,,,,,,
,,,,,,,,,,,,,FF,,,,,,,,1.9498,,,,,,,,,,,,,,,,,,,,,,610231089f7e70a4aab3d083,610375bdaac237a00c2c669b,2021-07-29_23h56.28.443,Simcolourproject_2stim_asymm_v5,2020.2.10,Win32,60,61025ae37ef11b136ea224fe,,,,,,,,,546,-65,-74,1,0,0,response5disk,,3,4,-2,1,0,0,rectangle,4,-2,1,0,0,4,-2,1,0,0,1,137,297,13,1,,,,,,,,
,,,,,,,,,,,,,FF,,,,,,,,1.0504,,,,,,,,,,,,,,,,,,,,,,610231089f7e70a4aab3d083,610375bdaac237a00c2c669b,2021-07-29_23h56.28.443,Simcolourproject_2stim_asymm_v5,2020.2.10,Win32,60,61025ae37ef11b136ea224fe,,,,,,,,,2106,38,-74,1,0,0,response3disk,,4,-11,1,1,0,0,rectangle,-11,1,1,0,0,-11,1,1,0,0,1,138,298,139,1,,,,,,,,
,,,,,,,,,,,,,FF,,,,,,,,0.7331,,,,,,,,,,,,,,,,,,,,,,610231089f7e70a4aab3d083,610375bdaac237a00c2c669b,2021-07-29_23h56.28.443,Simcolourproject_2stim_asymm_v5,2020.2.10,Win32,60,61025ae37ef11b136ea224fe,,,,,,,,,1022,57,52,1,0,0,response1disk,,6,-2,-5,1,0,0,rectangle,-2,-5,1,0,0,-2,-5,1,0,0,1,139,299,102,1,,,,,,,,
,,,,,,,,,,,,,FF,,,,,,,,0.9,,,,,,,,,,,,,,,,,,,,,,610231089f7e70a4aab3d083,610375bdaac237a00c2c669b,2021-07-29_23h56.28.443,Simcolourproject_2stim_asymm_v5,2020.2.10,Win32,60,61025ae37ef11b136ea224fe,,,,,,,,,3300,65,31,1,0,0,response1disk,,6,-3,7,1,0,0,rectangle,-3,7,1,0,0,-3,7,1,0,0,1,140,300,56,1,,,,,,,,
,,,,,,,,,,,,,FF,,,,,,,,1.0165,,,,,,,,,,,,,,,,,,,,,,610231089f7e70a4aab3d083,610375bdaac237a00c2c669b,2021-07-29_23h56.28.443,Simcolourproject_2stim_asymm_v5,2020.2.10,Win32,60,61025ae37ef11b136ea224fe,,,,,,,,,2135,86,37,1,0,0,response1disk,,6,-14,-4,1,0,0,rectangle,-14,-4,1,0,0,-14,-4,1,0,0,1,141,301,52,1,,,,,,,,
,,,,,,,,,,,,,FF,,,,,,,,1.7664,,,,,,,,,,,,,,,,,,,,,,610231089f7e70a4aab3d083,610375bdaac237a00c2c669b,2021-07-29_23h56.28.443,Simcolourproject_2stim_asymm_v5,2020.2.10,Win32,60,61025ae37ef11b136ea224fe,,,,,,,,,2360,-72,31,1,0,0,response7disk,,1,6,-5,1,0,0,rectangle,6,-5,1,0,0,6,-5,1,0,0,1,142,302,86,1,,,,,,,,
