key_resp.keys,key_resp.rt,key_resp_14.keys,key_resp_14.rt,key_resp_15.keys,key_resp_15.rt,key_resp_17.keys,key_resp_17.rt,key_resp_9.keys,key_resp_9.rt,key_resp_10.keys,key_resp_10.rt,practice_comparison,Ecc,mouse_5.x,mouse_5.y,mouse_5.leftButton,mouse_5.midButton,mouse_5.rightButton,mouse_5.clicked_name,pracsimilarity,response_time,mouse_10.x,mouse_10.y,mouse_10.leftButton,mouse_10.midButton,mouse_10.rightButton,mouse_10.clicked_name,mouse_7.x,mouse_7.y,mouse_7.leftButton,mouse_7.midButton,mouse_7.rightButton,mouse_6.x,mouse_6.y,mouse_6.leftButton,mouse_6.midButton,mouse_6.rightButton,duringprac.thisRepN,duringprac.thisTrialN,duringprac.thisN,duringprac.thisIndex,duringprac.ran,participant,session,date,expName,psychopyVersion,OS,frameRate,study_id,mouse_7.clicked_name,catchpracsimilarity,catch_response_time,catchnumberprac,catchtrialorderprac,mouse_6.clicked_name,key_resp_22.keys,key_resp_22.rt,realcomparison,mouse.x,mouse.y,mouse.leftButton,mouse.midButton,mouse.rightButton,mouse.clicked_name,Colour2,similarity,mouse_2.x,mouse_2.y,mouse_2.leftButton,mouse_2.midButton,mouse_2.rightButton,mouse_2.clicked_name,mouse_3.x,mouse_3.y,mouse_3.leftButton,mouse_3.midButton,mouse_3.rightButton,mouse_3.clicked_name,catchornah,catchsimilarity,catchnumber,catchtrialorder,catchRT,mouse_11.x,mouse_11.y,mouse_11.leftButton,mouse_11.midButton,mouse_11.rightButton,mouse_11.clicked_name,trials_2.thisRepN,trials_2.thisTrialN,trials_2.thisN,trials_2.thisIndex,trials_2.ran,Colour1
space,1.6142,space,22.8019,space,62.2787,space,13.7814,space,1.7171,space,6.0991,44,FF,88.03515625,-54.91796875,0,0,1,response3disk_5,5,32.2351,-2.69140625,-2.71875,1,0,1,rectangle_8,-2.69140625,-2.71875,1,0,1,-2.69140625,-2.71875,1,0,1,0,0,0,5,1,61020974d844343a3ff517d7,61036e9cc3d9ba9972f153eb,2021-07-29_23h15.29.683,Simcolourproject_2stim_asymm_v5,2020.2.10,MacIntel,60,61025ae37ef11b136ea224fe,,,,,,,,,,,,,,,,,,,,,,,,,,,,,,,,,,,,,,,,,,,,,,
,,,,,,,,,,,,31,PF,48.95703125,86.6796875,1,0,1,response1disk_5,7,4.5,4.390625,-4.02734375,1,0,1,rectangle_8,45.88671875,-96.29296875,1,0,1,-6.19921875,-5.12890625,1,0,1,0,1,1,1,1,61020974d844343a3ff517d7,61036e9cc3d9ba9972f153eb,2021-07-29_23h15.29.683,Simcolourproject_2stim_asymm_v5,2020.2.10,MacIntel,60,61025ae37ef11b136ea224fe,response3disk_7,4,11.9501,4,"[2,5]",rectangle_4,,,,,,,,,,,,,,,,,,,,,,,,,,,,,,,,,,,,,,,,
,,,,,,,,,,,,94,PF,41.68359375,72.20703125,1,0,1,response1disk_5,7,5.6336,4.36328125,-12.86328125,1,0,1,rectangle_8,4.36328125,-12.86328125,1,0,1,4.36328125,-12.86328125,1,0,1,0,2,2,4,1,61020974d844343a3ff517d7,61036e9cc3d9ba9972f153eb,2021-07-29_23h15.29.683,Simcolourproject_2stim_asymm_v5,2020.2.10,MacIntel,60,61025ae37ef11b136ea224fe,,,,,,,,,,,,,,,,,,,,,,,,,,,,,,,,,,,,,,,,,,,,,,
,,,,,,,,,,,,101,FF,37.65234375,104.0625,1,0,1,response1disk_5,7,5.5999,-5.49609375,-5.0234375,1,0,1,rectangle_8,-5.49609375,-5.0234375,1,0,1,-5.49609375,-5.0234375,1,0,1,0,3,3,3,1,61020974d844343a3ff517d7,61036e9cc3d9ba9972f153eb,2021-07-29_23h15.29.683,Simcolourproject_2stim_asymm_v5,2020.2.10,MacIntel,60,61025ae37ef11b136ea224fe,,,,,,,,,,,,,,,,,,,,,,,,,,,,,,,,,,,,,,,,,,,,,,
,,,,,,,,,,,,43,PF,-102.8632813,59.0625,1,0,1,response7disk_5,1,7.3031,11.25,-3.453125,1,0,1,rectangle_8,30.609375,-63.9140625,1,0,1,-1.30859375,-14.765625,1,0,1,0,4,4,6,1,61020974d844343a3ff517d7,61036e9cc3d9ba9972f153eb,2021-07-29_23h15.29.683,Simcolourproject_2stim_asymm_v5,2020.2.10,MacIntel,60,61025ae37ef11b136ea224fe,response3disk_7,4,3.3841,4,"[2,5]",rectangle_4,,,,,,,,,,,,,,,,,,,,,,,,,,,,,,,,,,,,,,,,
,,,,,,,,,,,,159,PF,42.44140625,102.7773438,1,0,1,response1disk_5,7,2.282,2.75390625,-12.54296875,1,0,1,rectangle_8,2.75390625,-12.54296875,1,0,1,2.75390625,-12.54296875,1,0,1,0,5,5,2,1,61020974d844343a3ff517d7,61036e9cc3d9ba9972f153eb,2021-07-29_23h15.29.683,Simcolourproject_2stim_asymm_v5,2020.2.10,MacIntel,60,61025ae37ef11b136ea224fe,,,,,,,,,,,,,,,,,,,,,,,,,,,,,,,,,,,,,,,,,,,,,,
,,,,,,,,,,,,132,FF,47.546875,76.2734375,1,0,1,response1disk_5,7,1.5848,8.25390625,-0.3203125,1,0,1,rectangle_8,8.25390625,-0.3203125,1,0,1,8.25390625,-0.3203125,1,0,1,0,6,6,0,1,61020974d844343a3ff517d7,61036e9cc3d9ba9972f153eb,2021-07-29_23h15.29.683,Simcolourproject_2stim_asymm_v5,2020.2.10,MacIntel,60,61025ae37ef11b136ea224fe,,,,,,,,,,,,,,,,,,,,,,,,,,,,,,,,,,,,,,,,,,,,,,
,,,,,,,,,,,,,FF,,,,,,,,6.4851,,,,,,,,,,,,,,,,,,,,,,61020974d844343a3ff517d7,61036e9cc3d9ba9972f153eb,2021-07-29_23h15.29.683,Simcolourproject_2stim_asymm_v5,2020.2.10,MacIntel,60,61025ae37ef11b136ea224fe,,,,,,,space,3.7439,3996,-100.1835938,-44.8828125,1,0,1,response5disk,,2,-13.35546875,7.16796875,1,0,1,rectangle,47.6640625,83.84375,1,0,1,response1disk_3,TRUE,7,7,"[106,10,231,278,50,126,146,32,216,27,1,286,61,104,234,98,100,82,50,91]",2.8507,3.8671875,3.75390625,1,0,1,rectangle,0,0,0,118,1,
,,,,,,,,,,,,,FF,,,,,,,,1.4509,,,,,,,,,,,,,,,,,,,,,,61020974d844343a3ff517d7,61036e9cc3d9ba9972f153eb,2021-07-29_23h15.29.683,Simcolourproject_2stim_asymm_v5,2020.2.10,MacIntel,60,61025ae37ef11b136ea224fe,,,,,,,,,3472,-88.5078125,40.80078125,1,0,1,response7disk,,1,-4.7578125,-4.77734375,1,0,1,rectangle,-4.7578125,-4.77734375,1,0,1,,,,,,,-4.7578125,-4.77734375,1,0,1,,0,1,1,15,1,
,,,,,,,,,,,,,FF,,,,,,,,1.7998,,,,,,,,,,,,,,,,,,,,,,61020974d844343a3ff517d7,61036e9cc3d9ba9972f153eb,2021-07-29_23h15.29.683,Simcolourproject_2stim_asymm_v5,2020.2.10,MacIntel,60,61025ae37ef11b136ea224fe,,,,,,,,,3904,36.34375,86.390625,1,0,1,response1disk,,7,-1.07421875,-1.95703125,1,0,1,rectangle,-1.07421875,-1.95703125,1,0,1,,,,,,,-1.07421875,-1.95703125,1,0,1,,0,2,2,36,1,
,,,,,,,,,,,,,FF,,,,,,,,2.0336,,,,,,,,,,,,,,,,,,,,,,61020974d844343a3ff517d7,61036e9cc3d9ba9972f153eb,2021-07-29_23h15.29.683,Simcolourproject_2stim_asymm_v5,2020.2.10,MacIntel,60,61025ae37ef11b136ea224fe,,,,,,,,,3428,-38.4140625,86.30078125,1,0,1,response7disk,,0,3.2734375,0.03515625,1,0,1,rectangle,3.2734375,0.03515625,1,0,1,,,,,,,3.2734375,0.03515625,1,0,1,,0,3,3,137,1,
,,,,,,,,,,,,,FF,,,,,,,,3.4332,,,,,,,,,,,,,,,,,,,,,,61020974d844343a3ff517d7,61036e9cc3d9ba9972f153eb,2021-07-29_23h15.29.683,Simcolourproject_2stim_asymm_v5,2020.2.10,MacIntel,60,61025ae37ef11b136ea224fe,,,,,,,,,3173,61.7109375,97.8046875,1,0,1,response1disk,,7,11.22265625,1.76171875,1,0,1,rectangle,11.22265625,1.76171875,1,0,1,,,,,,,11.22265625,1.76171875,1,0,1,,0,4,4,117,1,
,,,,,,,,,,,,,FF,,,,,,,,11.2326,,,,,,,,,,,,,,,,,,,,,,61020974d844343a3ff517d7,61036e9cc3d9ba9972f153eb,2021-07-29_23h15.29.683,Simcolourproject_2stim_asymm_v5,2020.2.10,MacIntel,60,61025ae37ef11b136ea224fe,,,,,,,,,428,53.06640625,83.9921875,1,0,1,response1disk,,7,13.72265625,1.171875,1,0,1,rectangle,13.72265625,1.171875,1,0,1,,,,,,,13.72265625,1.171875,1,0,1,,0,5,5,11,1,
,,,,,,,,,,,,,FF,,,,,,,,5.0506,,,,,,,,,,,,,,,,,,,,,,61020974d844343a3ff517d7,61036e9cc3d9ba9972f153eb,2021-07-29_23h15.29.683,Simcolourproject_2stim_asymm_v5,2020.2.10,MacIntel,60,61025ae37ef11b136ea224fe,,,,,,,,,189,-74.078125,43.73828125,1,0,1,response7disk,,1,-0.7734375,-3.4140625,1,0,1,rectangle,-0.7734375,-3.4140625,1,0,1,,,,,,,-0.7734375,-3.4140625,1,0,1,,0,6,6,149,1,
,,,,,,,,,,,,,FF,,,,,,,,1.9511,,,,,,,,,,,,,,,,,,,,,,61020974d844343a3ff517d7,61036e9cc3d9ba9972f153eb,2021-07-29_23h15.29.683,Simcolourproject_2stim_asymm_v5,2020.2.10,MacIntel,60,61025ae37ef11b136ea224fe,,,,,,,,,451,38.1171875,72.30859375,1,0,1,response1disk,,7,10.31640625,1.453125,1,0,1,rectangle,10.31640625,1.453125,1,0,1,,,,,,,10.31640625,1.453125,1,0,1,,0,7,7,156,1,
,,,,,,,,,,,,,FF,,,,,,,,1.4167,,,,,,,,,,,,,,,,,,,,,,61020974d844343a3ff517d7,61036e9cc3d9ba9972f153eb,2021-07-29_23h15.29.683,Simcolourproject_2stim_asymm_v5,2020.2.10,MacIntel,60,61025ae37ef11b136ea224fe,,,,,,,,,3464,-66.7578125,44.74609375,1,0,1,response7disk,,1,6.0390625,-3.875,1,0,1,rectangle,6.0390625,-3.875,1,0,1,,,,,,,6.0390625,-3.875,1,0,1,,0,8,8,141,1,
,,,,,,,,,,,,,FF,,,,,,,,1.4004,,,,,,,,,,,,,,,,,,,,,,61020974d844343a3ff517d7,61036e9cc3d9ba9972f153eb,2021-07-29_23h15.29.683,Simcolourproject_2stim_asymm_v5,2020.2.10,MacIntel,60,61025ae37ef11b136ea224fe,,,,,,,,,4085,-78.23046875,-49.92578125,1,0,1,response5disk,,2,-15.65234375,-1.89453125,1,0,1,rectangle,82.21875,-54.06640625,1,0,1,response3disk_3,TRUE,5,5,"[106,10,231,278,50,126,146,32,216,27,1,286,61,104,234,98,100,82,50,91]",2.3842,8.8203125,-6.3984375,1,0,1,rectangle,0,9,9,96,1,
,,,,,,,,,,,,,FF,,,,,,,,1.8838,,,,,,,,,,,,,,,,,,,,,,61020974d844343a3ff517d7,61036e9cc3d9ba9972f153eb,2021-07-29_23h15.29.683,Simcolourproject_2stim_asymm_v5,2020.2.10,MacIntel,60,61025ae37ef11b136ea224fe,,,,,,,,,1027,43.00390625,85.90625,1,0,1,response1disk,,7,25.89453125,-7.546875,1,0,1,rectangle,25.89453125,-7.546875,1,0,1,,,,,,,25.89453125,-7.546875,1,0,1,,0,10,10,13,1,
,,,,,,,,,,,,,FF,,,,,,,,2.1326,,,,,,,,,,,,,,,,,,,,,,61020974d844343a3ff517d7,61036e9cc3d9ba9972f153eb,2021-07-29_23h15.29.683,Simcolourproject_2stim_asymm_v5,2020.2.10,MacIntel,60,61025ae37ef11b136ea224fe,,,,,,,,,926,35.01171875,84.5,1,0,1,response1disk,,7,10.0078125,-2.9296875,1,0,1,rectangle,10.0078125,-2.9296875,1,0,1,,,,,,,10.0078125,-2.9296875,1,0,1,,0,11,11,113,1,
,,,,,,,,,,,,,FF,,,,,,,,3.117,,,,,,,,,,,,,,,,,,,,,,61020974d844343a3ff517d7,61036e9cc3d9ba9972f153eb,2021-07-29_23h15.29.683,Simcolourproject_2stim_asymm_v5,2020.2.10,MacIntel,60,61025ae37ef11b136ea224fe,,,,,,,,,976,85.57421875,-48.296875,1,0,1,response3disk,,5,-2.71484375,0.59375,1,0,1,rectangle,-2.71484375,0.59375,1,0,1,,,,,,,-2.71484375,0.59375,1,0,1,,0,12,12,16,1,
,,,,,,,,,,,,,FF,,,,,,,,1.5161,,,,,,,,,,,,,,,,,,,,,,61020974d844343a3ff517d7,61036e9cc3d9ba9972f153eb,2021-07-29_23h15.29.683,Simcolourproject_2stim_asymm_v5,2020.2.10,MacIntel,60,61025ae37ef11b136ea224fe,,,,,,,,,2616,47.7890625,109.2734375,1,0,1,response1disk,,7,5.50390625,6.98828125,1,0,1,rectangle,5.50390625,6.98828125,1,0,1,,,,,,,5.50390625,6.98828125,1,0,1,,0,13,13,12,1,
,,,,,,,,,,,,,FF,,,,,,,,2.8333,,,,,,,,,,,,,,,,,,,,,,61020974d844343a3ff517d7,61036e9cc3d9ba9972f153eb,2021-07-29_23h15.29.683,Simcolourproject_2stim_asymm_v5,2020.2.10,MacIntel,60,61025ae37ef11b136ea224fe,,,,,,,,,2544,-33.62109375,-107.484375,1,0,1,response5disk,,3,11.86328125,4.2265625,1,0,1,rectangle,11.86328125,4.2265625,1,0,1,,,,,,,11.86328125,4.2265625,1,0,1,,0,14,14,84,1,
,,,,,,,,,,,,,FF,,,,,,,,1.0668,,,,,,,,,,,,,,,,,,,,,,61020974d844343a3ff517d7,61036e9cc3d9ba9972f153eb,2021-07-29_23h15.29.683,Simcolourproject_2stim_asymm_v5,2020.2.10,MacIntel,60,61025ae37ef11b136ea224fe,,,,,,,,,2447,41.66015625,75.7421875,1,0,1,response1disk,,7,6.0546875,-12.03515625,1,0,1,rectangle,6.0546875,-12.03515625,1,0,1,,,,,,,6.0546875,-12.03515625,1,0,1,,0,15,15,23,1,
,,,,,,,,,,,,,FF,,,,,,,,1.6167,,,,,,,,,,,,,,,,,,,,,,61020974d844343a3ff517d7,61036e9cc3d9ba9972f153eb,2021-07-29_23h15.29.683,Simcolourproject_2stim_asymm_v5,2020.2.10,MacIntel,60,61025ae37ef11b136ea224fe,,,,,,,,,3090,-77.171875,-56.49609375,1,0,1,response5disk,,2,-4.8828125,2.4765625,1,0,1,rectangle,-4.8828125,2.4765625,1,0,1,,,,,,,-4.8828125,2.4765625,1,0,1,,0,16,16,154,1,
,,,,,,,,,,,,,FF,,,,,,,,0.8986,,,,,,,,,,,,,,,,,,,,,,61020974d844343a3ff517d7,61036e9cc3d9ba9972f153eb,2021-07-29_23h15.29.683,Simcolourproject_2stim_asymm_v5,2020.2.10,MacIntel,60,61025ae37ef11b136ea224fe,,,,,,,,,502,41.85546875,66.7890625,1,0,1,response1disk,,7,11.89453125,0.67578125,1,0,1,rectangle,11.89453125,0.67578125,1,0,1,,,,,,,11.89453125,0.67578125,1,0,1,,0,17,17,47,1,
,,,,,,,,,,,,,FF,,,,,,,,1.1021,,,,,,,,,,,,,,,,,,,,,,61020974d844343a3ff517d7,61036e9cc3d9ba9972f153eb,2021-07-29_23h15.29.683,Simcolourproject_2stim_asymm_v5,2020.2.10,MacIntel,60,61025ae37ef11b136ea224fe,,,,,,,,,3277,45.62890625,71.76171875,1,0,1,response1disk,,7,12.875,-2.4453125,1,0,1,rectangle,12.875,-2.4453125,1,0,1,,,,,,,12.875,-2.4453125,1,0,1,,0,18,18,21,1,
,,,,,,,,,,,,,FF,,,,,,,,1.0497,,,,,,,,,,,,,,,,,,,,,,61020974d844343a3ff517d7,61036e9cc3d9ba9972f153eb,2021-07-29_23h15.29.683,Simcolourproject_2stim_asymm_v5,2020.2.10,MacIntel,60,61025ae37ef11b136ea224fe,,,,,,,,,4152,44.96484375,79.38671875,1,0,1,response1disk,,7,11.5234375,-3.4453125,1,0,1,rectangle,11.5234375,-3.4453125,1,0,1,,,,,,,11.5234375,-3.4453125,1,0,1,,0,19,19,111,1,
,,,,,,,,,,,,,FF,,,,,,,,0.982,,,,,,,,,,,,,,,,,,,,,,61020974d844343a3ff517d7,61036e9cc3d9ba9972f153eb,2021-07-29_23h15.29.683,Simcolourproject_2stim_asymm_v5,2020.2.10,MacIntel,60,61025ae37ef11b136ea224fe,,,,,,,,,4292,46.53125,85.2265625,1,0,1,response1disk,,7,11.64453125,-3.21875,1,0,1,rectangle,11.64453125,-3.21875,1,0,1,,,,,,,11.64453125,-3.21875,1,0,1,,0,20,20,157,1,
,,,,,,,,,,,,,FF,,,,,,,,1.2667,,,,,,,,,,,,,,,,,,,,,,61020974d844343a3ff517d7,61036e9cc3d9ba9972f153eb,2021-07-29_23h15.29.683,Simcolourproject_2stim_asymm_v5,2020.2.10,MacIntel,60,61025ae37ef11b136ea224fe,,,,,,,,,3814,-75.42578125,47.95703125,1,0,1,response7disk,,1,16.265625,-1.17578125,1,0,1,rectangle,16.265625,-1.17578125,1,0,1,,,,,,,16.265625,-1.17578125,1,0,1,,0,21,21,94,1,
,,,,,,,,,,,,,FF,,,,,,,,1.3662,,,,,,,,,,,,,,,,,,,,,,61020974d844343a3ff517d7,61036e9cc3d9ba9972f153eb,2021-07-29_23h15.29.683,Simcolourproject_2stim_asymm_v5,2020.2.10,MacIntel,60,61025ae37ef11b136ea224fe,,,,,,,,,949,-34.42578125,-99.37890625,1,0,1,response5disk,,3,3.875,17.96484375,1,0,1,rectangle,3.875,17.96484375,1,0,1,,,,,,,3.875,17.96484375,1,0,1,,0,22,22,68,1,
,,,,,,,,,,,,,FF,,,,,,,,1.3168,,,,,,,,,,,,,,,,,,,,,,61020974d844343a3ff517d7,61036e9cc3d9ba9972f153eb,2021-07-29_23h15.29.683,Simcolourproject_2stim_asymm_v5,2020.2.10,MacIntel,60,61025ae37ef11b136ea224fe,,,,,,,,,1876,87.421875,42.421875,1,0,1,response1disk,,6,23.921875,-7.61328125,1,0,1,rectangle,23.921875,-7.61328125,1,0,1,,,,,,,23.921875,-7.61328125,1,0,1,,0,23,23,38,1,
,,,,,,,,,,,,,FF,,,,,,,,2.848,,,,,,,,,,,,,,,,,,,,,,61020974d844343a3ff517d7,61036e9cc3d9ba9972f153eb,2021-07-29_23h15.29.683,Simcolourproject_2stim_asymm_v5,2020.2.10,MacIntel,60,61025ae37ef11b136ea224fe,,,,,,,,,216,-96.70703125,-45.80078125,1,0,1,response5disk,,2,-22.08984375,-7.24609375,1,0,1,rectangle,-22.08984375,-7.24609375,1,0,1,,,,,,,-22.08984375,-7.24609375,1,0,1,,0,24,24,61,1,
,,,,,,,,,,,,,FF,,,,,,,,3.5651,,,,,,,,,,,,,,,,,,,,,,61020974d844343a3ff517d7,61036e9cc3d9ba9972f153eb,2021-07-29_23h15.29.683,Simcolourproject_2stim_asymm_v5,2020.2.10,MacIntel,60,61025ae37ef11b136ea224fe,,,,,,,,,370,-34.63671875,-105.4414063,1,0,1,response5disk,,3,3.73828125,-8.42578125,1,0,1,rectangle,3.73828125,-8.42578125,1,0,1,,,,,,,3.73828125,-8.42578125,1,0,1,,0,25,25,81,1,
,,,,,,,,,,,,,FF,,,,,,,,0.8507,,,,,,,,,,,,,,,,,,,,,,61020974d844343a3ff517d7,61036e9cc3d9ba9972f153eb,2021-07-29_23h15.29.683,Simcolourproject_2stim_asymm_v5,2020.2.10,MacIntel,60,61025ae37ef11b136ea224fe,,,,,,,,,1934,42.16796875,95.921875,1,0,1,response1disk,,7,-6.2421875,-7.58984375,1,0,1,rectangle,32.7265625,80.55078125,1,0,1,response1disk_3,TRUE,7,7,"[106,10,231,278,50,126,146,32,216,27,1,286,61,104,234,98,100,82,50,91]",1.3353,5.92578125,1.59375,1,0,1,rectangle,0,26,26,67,1,
,,,,,,,,,,,,,FF,,,,,,,,10.3166,,,,,,,,,,,,,,,,,,,,,,61020974d844343a3ff517d7,61036e9cc3d9ba9972f153eb,2021-07-29_23h15.29.683,Simcolourproject_2stim_asymm_v5,2020.2.10,MacIntel,60,61025ae37ef11b136ea224fe,,,,,,,,,3902,-25.23046875,-70.94921875,1,0,1,response5disk,,3,2.83984375,1.4921875,1,0,1,rectangle,2.83984375,1.4921875,1,0,1,,,,,,,2.83984375,1.4921875,1,0,1,,0,27,27,60,1,
,,,,,,,,,,,,,FF,,,,,,,,2.3687,,,,,,,,,,,,,,,,,,,,,,61020974d844343a3ff517d7,61036e9cc3d9ba9972f153eb,2021-07-29_23h15.29.683,Simcolourproject_2stim_asymm_v5,2020.2.10,MacIntel,60,61025ae37ef11b136ea224fe,,,,,,,,,2732,71.9375,-46.17578125,1,0,1,response3disk,,5,15.1640625,10.23828125,1,0,1,rectangle,15.1640625,10.23828125,1,0,1,,,,,,,15.1640625,10.23828125,1,0,1,,0,28,28,123,1,
,,,,,,,,,,,,,FF,,,,,,,,2.5682,,,,,,,,,,,,,,,,,,,,,,61020974d844343a3ff517d7,61036e9cc3d9ba9972f153eb,2021-07-29_23h15.29.683,Simcolourproject_2stim_asymm_v5,2020.2.10,MacIntel,60,61025ae37ef11b136ea224fe,,,,,,,,,2550,71.31640625,31.546875,1,0,1,response1disk,,6,32.7265625,0.890625,1,0,1,rectangle,32.7265625,0.890625,1,0,1,,,,,,,32.7265625,0.890625,1,0,1,,0,29,29,64,1,
,,,,,,,,,,,,,FF,,,,,,,,1.2166,,,,,,,,,,,,,,,,,,,,,,61020974d844343a3ff517d7,61036e9cc3d9ba9972f153eb,2021-07-29_23h15.29.683,Simcolourproject_2stim_asymm_v5,2020.2.10,MacIntel,60,61025ae37ef11b136ea224fe,,,,,,,,,1214,-68.59765625,-60.48046875,1,0,1,response5disk,,2,-10.3984375,-13.78515625,1,0,1,rectangle,-10.3984375,-13.78515625,1,0,1,,,,,,,-10.3984375,-13.78515625,1,0,1,,0,30,30,97,1,
,,,,,,,,,,,,,FF,,,,,,,,1.3656,,,,,,,,,,,,,,,,,,,,,,61020974d844343a3ff517d7,61036e9cc3d9ba9972f153eb,2021-07-29_23h15.29.683,Simcolourproject_2stim_asymm_v5,2020.2.10,MacIntel,60,61025ae37ef11b136ea224fe,,,,,,,,,999,70.6015625,-39.140625,1,0,1,response3disk,,5,13.76171875,-3.15625,1,0,1,rectangle,-91.19921875,42.453125,1,0,1,response7disk_3,TRUE,1,1,"[106,10,231,278,50,126,146,32,216,27,1,286,61,104,234,98,100,82,50,91]",2.1644,-16.05859375,2.83203125,1,0,1,rectangle,0,31,31,41,1,
,,,,,,,,,,,,,FF,,,,,,,,1.0152,,,,,,,,,,,,,,,,,,,,,,61020974d844343a3ff517d7,61036e9cc3d9ba9972f153eb,2021-07-29_23h15.29.683,Simcolourproject_2stim_asymm_v5,2020.2.10,MacIntel,60,61025ae37ef11b136ea224fe,,,,,,,,,2199,43.09375,75.61328125,1,0,1,response1disk,,7,5.94140625,1.79296875,1,0,1,rectangle,5.94140625,1.79296875,1,0,1,,,,,,,5.94140625,1.79296875,1,0,1,,0,32,32,125,1,
,,,,,,,,,,,,,FF,,,,,,,,2.7679,,,,,,,,,,,,,,,,,,,,,,61020974d844343a3ff517d7,61036e9cc3d9ba9972f153eb,2021-07-29_23h15.29.683,Simcolourproject_2stim_asymm_v5,2020.2.10,MacIntel,60,61025ae37ef11b136ea224fe,,,,,,,,,4269,-75.43359375,33.78125,1,0,1,response7disk,,1,-6.8359375,4.44140625,1,0,1,rectangle,-6.8359375,4.44140625,1,0,1,,,,,,,-6.8359375,4.44140625,1,0,1,,0,33,33,30,1,
,,,,,,,,,,,,,FF,,,,,,,,1.5502,,,,,,,,,,,,,,,,,,,,,,61020974d844343a3ff517d7,61036e9cc3d9ba9972f153eb,2021-07-29_23h15.29.683,Simcolourproject_2stim_asymm_v5,2020.2.10,MacIntel,60,61025ae37ef11b136ea224fe,,,,,,,,,448,48.92578125,76.765625,1,0,1,response1disk,,7,-0.7890625,-4.1640625,1,0,1,rectangle,-0.7890625,-4.1640625,1,0,1,,,,,,,-0.7890625,-4.1640625,1,0,1,,0,34,34,28,1,
,,,,,,,,,,,,,FF,,,,,,,,1.3845,,,,,,,,,,,,,,,,,,,,,,61020974d844343a3ff517d7,61036e9cc3d9ba9972f153eb,2021-07-29_23h15.29.683,Simcolourproject_2stim_asymm_v5,2020.2.10,MacIntel,60,61025ae37ef11b136ea224fe,,,,,,,,,1830,-76.74609375,-39.953125,1,0,1,response5disk,,2,-13.96875,-9.125,1,0,1,rectangle,-13.96875,-9.125,1,0,1,,,,,,,-13.96875,-9.125,1,0,1,,0,35,35,135,1,
,,,,,,,,,,,,,FF,,,,,,,,1.1664,,,,,,,,,,,,,,,,,,,,,,61020974d844343a3ff517d7,61036e9cc3d9ba9972f153eb,2021-07-29_23h15.29.683,Simcolourproject_2stim_asymm_v5,2020.2.10,MacIntel,60,61025ae37ef11b136ea224fe,,,,,,,,,3473,-41.02734375,81.6640625,1,0,1,response7disk,,0,17.015625,4.5859375,1,0,1,rectangle,17.015625,4.5859375,1,0,1,,,,,,,17.015625,4.5859375,1,0,1,,0,36,36,45,1,
,,,,,,,,,,,,,FF,,,,,,,,1.1496,,,,,,,,,,,,,,,,,,,,,,61020974d844343a3ff517d7,61036e9cc3d9ba9972f153eb,2021-07-29_23h15.29.683,Simcolourproject_2stim_asymm_v5,2020.2.10,MacIntel,60,61025ae37ef11b136ea224fe,,,,,,,,,3406,81.2578125,20.5390625,1,0,1,response1disk,,6,21.8125,-1.91015625,1,0,1,rectangle,21.8125,-1.91015625,1,0,1,,,,,,,21.8125,-1.91015625,1,0,1,,0,37,37,139,1,
,,,,,,,,,,,,,FF,,,,,,,,1.0328,,,,,,,,,,,,,,,,,,,,,,61020974d844343a3ff517d7,61036e9cc3d9ba9972f153eb,2021-07-29_23h15.29.683,Simcolourproject_2stim_asymm_v5,2020.2.10,MacIntel,60,61025ae37ef11b136ea224fe,,,,,,,,,507,22.12109375,56.73828125,1,0,1,response1disk,,7,1.4296875,5.12109375,1,0,1,rectangle,1.4296875,5.12109375,1,0,1,,,,,,,1.4296875,5.12109375,1,0,1,,0,38,38,3,1,
,,,,,,,,,,,,,FF,,,,,,,,1.501,,,,,,,,,,,,,,,,,,,,,,61020974d844343a3ff517d7,61036e9cc3d9ba9972f153eb,2021-07-29_23h15.29.683,Simcolourproject_2stim_asymm_v5,2020.2.10,MacIntel,60,61025ae37ef11b136ea224fe,,,,,,,,,1077,61.19921875,-76.15234375,1,0,1,response3disk,,4,10.671875,1.921875,1,0,1,rectangle,10.671875,1.921875,1,0,1,,,,,,,10.671875,1.921875,1,0,1,,0,39,39,39,1,
,,,,,,,,,,,,,FF,,,,,,,,1.2498,,,,,,,,,,,,,,,,,,,,,,61020974d844343a3ff517d7,61036e9cc3d9ba9972f153eb,2021-07-29_23h15.29.683,Simcolourproject_2stim_asymm_v5,2020.2.10,MacIntel,60,61025ae37ef11b136ea224fe,,,,,,,,,2468,41.78125,60.33984375,1,0,1,response1disk,,7,15.39453125,-3.12890625,1,0,1,rectangle,15.39453125,-3.12890625,1,0,1,,,,,,,15.39453125,-3.12890625,1,0,1,,0,40,40,78,1,
,,,,,,,,,,,,,FF,,,,,,,,4.55,,,,,,,,,,,,,,,,,,,,,,61020974d844343a3ff517d7,61036e9cc3d9ba9972f153eb,2021-07-29_23h15.29.683,Simcolourproject_2stim_asymm_v5,2020.2.10,MacIntel,60,61025ae37ef11b136ea224fe,,,,,,,,,788,62.01953125,33.625,1,0,1,response1disk,,6,20.421875,7.7265625,1,0,1,rectangle,20.421875,7.7265625,1,0,1,,,,,,,20.421875,7.7265625,1,0,1,,0,41,41,59,1,
,,,,,,,,,,,,,FF,,,,,,,,1.6354,,,,,,,,,,,,,,,,,,,,,,61020974d844343a3ff517d7,61036e9cc3d9ba9972f153eb,2021-07-29_23h15.29.683,Simcolourproject_2stim_asymm_v5,2020.2.10,MacIntel,60,61025ae37ef11b136ea224fe,,,,,,,,,3616,-27.453125,-94.21484375,1,0,1,response5disk,,3,14.203125,-8.51171875,1,0,1,rectangle,14.203125,-8.51171875,1,0,1,,,,,,,14.203125,-8.51171875,1,0,1,,0,42,42,150,1,
,,,,,,,,,,,,,FF,,,,,,,,1.4669,,,,,,,,,,,,,,,,,,,,,,61020974d844343a3ff517d7,61036e9cc3d9ba9972f153eb,2021-07-29_23h15.29.683,Simcolourproject_2stim_asymm_v5,2020.2.10,MacIntel,60,61025ae37ef11b136ea224fe,,,,,,,,,82,-28.2109375,-85.734375,1,0,1,response5disk,,3,-30.1015625,-10.08984375,1,0,1,rectangle,-30.1015625,-10.08984375,1,0,1,,,,,,,-30.1015625,-10.08984375,1,0,1,,0,43,43,115,1,
,,,,,,,,,,,,,FF,,,,,,,,1.5664,,,,,,,,,,,,,,,,,,,,,,61020974d844343a3ff517d7,61036e9cc3d9ba9972f153eb,2021-07-29_23h15.29.683,Simcolourproject_2stim_asymm_v5,2020.2.10,MacIntel,60,61025ae37ef11b136ea224fe,,,,,,,,,1388,-41.0625,-54.39453125,1,0,1,response5disk,,3,-22.484375,-8.82421875,1,0,1,rectangle,-22.484375,-8.82421875,1,0,1,,,,,,,-22.484375,-8.82421875,1,0,1,,0,44,44,145,1,
,,,,,,,,,,,,,FF,,,,,,,,1.082,,,,,,,,,,,,,,,,,,,,,,61020974d844343a3ff517d7,61036e9cc3d9ba9972f153eb,2021-07-29_23h15.29.683,Simcolourproject_2stim_asymm_v5,2020.2.10,MacIntel,60,61025ae37ef11b136ea224fe,,,,,,,,,160,27.58203125,55.8359375,1,0,1,response1disk,,7,-7.34765625,-5.53125,1,0,1,rectangle,-7.34765625,-5.53125,1,0,1,,,,,,,-7.34765625,-5.53125,1,0,1,,0,45,45,130,1,
,,,,,,,,,,,,,FF,,,,,,,,0.9837,,,,,,,,,,,,,,,,,,,,,,61020974d844343a3ff517d7,61036e9cc3d9ba9972f153eb,2021-07-29_23h15.29.683,Simcolourproject_2stim_asymm_v5,2020.2.10,MacIntel,60,61025ae37ef11b136ea224fe,,,,,,,,,2755,28.58984375,50.359375,1,0,1,response1disk,,7,3.44921875,0.6171875,1,0,1,rectangle,3.44921875,0.6171875,1,0,1,,,,,,,3.44921875,0.6171875,1,0,1,,0,46,46,155,1,
,,,,,,,,,,,,,FF,,,,,,,,0.9,,,,,,,,,,,,,,,,,,,,,,61020974d844343a3ff517d7,61036e9cc3d9ba9972f153eb,2021-07-29_23h15.29.683,Simcolourproject_2stim_asymm_v5,2020.2.10,MacIntel,60,61025ae37ef11b136ea224fe,,,,,,,,,1556,29.55859375,49.9609375,1,0,1,response1disk,,7,12.53515625,4.08203125,1,0,1,rectangle,12.53515625,4.08203125,1,0,1,,,,,,,12.53515625,4.08203125,1,0,1,,0,47,47,136,1,
,,,,,,,,,,,,,FF,,,,,,,,1.4841,,,,,,,,,,,,,,,,,,,,,,61020974d844343a3ff517d7,61036e9cc3d9ba9972f153eb,2021-07-29_23h15.29.683,Simcolourproject_2stim_asymm_v5,2020.2.10,MacIntel,60,61025ae37ef11b136ea224fe,,,,,,,,,526,-87.9921875,-51.5390625,1,0,1,response5disk,,2,-1.5625,-7.39453125,1,0,1,rectangle,-1.5625,-7.39453125,1,0,1,,,,,,,-1.5625,-7.39453125,1,0,1,,0,48,48,58,1,
,,,,,,,,,,,,,FF,,,,,,,,0.8319,,,,,,,,,,,,,,,,,,,,,,61020974d844343a3ff517d7,61036e9cc3d9ba9972f153eb,2021-07-29_23h15.29.683,Simcolourproject_2stim_asymm_v5,2020.2.10,MacIntel,60,61025ae37ef11b136ea224fe,,,,,,,,,323,42.0390625,60.76953125,1,0,1,response1disk,,7,10.6953125,11.48046875,1,0,1,rectangle,41.0546875,-83.84765625,1,0,1,response3disk_3,TRUE,4,4,"[106,10,231,278,50,126,146,32,216,27,1,286,61,104,234,98,100,82,50,91]",2.9023,2.1015625,2.5703125,1,0,1,rectangle,0,49,49,17,1,
,,,,,,,,,,,,,FF,,,,,,,,0.8677,,,,,,,,,,,,,,,,,,,,,,61020974d844343a3ff517d7,61036e9cc3d9ba9972f153eb,2021-07-29_23h15.29.683,Simcolourproject_2stim_asymm_v5,2020.2.10,MacIntel,60,61025ae37ef11b136ea224fe,,,,,,,,,4068,39.75390625,62.8125,1,0,1,response1disk,,7,12.76953125,-5.55078125,1,0,1,rectangle,12.76953125,-5.55078125,1,0,1,,,,,,,12.76953125,-5.55078125,1,0,1,,0,50,50,48,1,
,,,,,,,,,,,,,FF,,,,,,,,5.9341,,,,,,,,,,,,,,,,,,,,,,61020974d844343a3ff517d7,61036e9cc3d9ba9972f153eb,2021-07-29_23h15.29.683,Simcolourproject_2stim_asymm_v5,2020.2.10,MacIntel,60,61025ae37ef11b136ea224fe,,,,,,,,,2091,66.5078125,27.55078125,1,0,1,response1disk,,6,24.34765625,9.421875,1,0,1,rectangle,24.34765625,9.421875,1,0,1,,,,,,,24.34765625,9.421875,1,0,1,,0,51,51,51,1,
,,,,,,,,,,,,,FF,,,,,,,,1.767,,,,,,,,,,,,,,,,,,,,,,61020974d844343a3ff517d7,61036e9cc3d9ba9972f153eb,2021-07-29_23h15.29.683,Simcolourproject_2stim_asymm_v5,2020.2.10,MacIntel,60,61025ae37ef11b136ea224fe,,,,,,,,,610,-61.85546875,-45.14453125,1,0,1,response5disk,,2,2.51953125,9.34765625,1,0,1,rectangle,2.51953125,9.34765625,1,0,1,,,,,,,2.51953125,9.34765625,1,0,1,,0,52,52,110,1,
,,,,,,,,,,,,,FF,,,,,,,,1.3824,,,,,,,,,,,,,,,,,,,,,,61020974d844343a3ff517d7,61036e9cc3d9ba9972f153eb,2021-07-29_23h15.29.683,Simcolourproject_2stim_asymm_v5,2020.2.10,MacIntel,60,61025ae37ef11b136ea224fe,,,,,,,,,2351,59.4375,-34.66015625,1,0,1,response3disk,,5,18.078125,-12.29296875,1,0,1,rectangle,18.078125,-12.29296875,1,0,1,,,,,,,18.078125,-12.29296875,1,0,1,,0,53,53,10,1,
,,,,,,,,,,,,,FF,,,,,,,,1.0835,,,,,,,,,,,,,,,,,,,,,,61020974d844343a3ff517d7,61036e9cc3d9ba9972f153eb,2021-07-29_23h15.29.683,Simcolourproject_2stim_asymm_v5,2020.2.10,MacIntel,60,61025ae37ef11b136ea224fe,,,,,,,,,3816,-71.78125,42.65234375,1,0,1,response7disk,,1,-9.5234375,3.4140625,1,0,1,rectangle,-9.5234375,3.4140625,1,0,1,,,,,,,-9.5234375,3.4140625,1,0,1,,0,54,54,147,1,
,,,,,,,,,,,,,FF,,,,,,,,1.3157,,,,,,,,,,,,,,,,,,,,,,61020974d844343a3ff517d7,61036e9cc3d9ba9972f153eb,2021-07-29_23h15.29.683,Simcolourproject_2stim_asymm_v5,2020.2.10,MacIntel,60,61025ae37ef11b136ea224fe,,,,,,,,,1634,42.2734375,78.32421875,1,0,1,response1disk,,7,6.67578125,-6.1328125,1,0,1,rectangle,6.67578125,-6.1328125,1,0,1,,,,,,,6.67578125,-6.1328125,1,0,1,,0,55,55,90,1,
,,,,,,,,,,,,,FF,,,,,,,,5.3527,,,,,,,,,,,,,,,,,,,,,,61020974d844343a3ff517d7,61036e9cc3d9ba9972f153eb,2021-07-29_23h15.29.683,Simcolourproject_2stim_asymm_v5,2020.2.10,MacIntel,60,61025ae37ef11b136ea224fe,,,,,,,,,3356,43.8046875,-100.8515625,1,0,1,response3disk,,4,2.28515625,1.82421875,1,0,1,rectangle,2.28515625,1.82421875,1,0,1,,,,,,,2.28515625,1.82421875,1,0,1,,0,56,56,144,1,
,,,,,,,,,,,,,FF,,,,,,,,1.3502,,,,,,,,,,,,,,,,,,,,,,61020974d844343a3ff517d7,61036e9cc3d9ba9972f153eb,2021-07-29_23h15.29.683,Simcolourproject_2stim_asymm_v5,2020.2.10,MacIntel,60,61025ae37ef11b136ea224fe,,,,,,,,,2958,64.55078125,38.421875,1,0,1,response1disk,,6,12.1953125,-8.671875,1,0,1,rectangle,12.1953125,-8.671875,1,0,1,,,,,,,12.1953125,-8.671875,1,0,1,,0,57,57,77,1,
,,,,,,,,,,,,,FF,,,,,,,,1.0503,,,,,,,,,,,,,,,,,,,,,,61020974d844343a3ff517d7,61036e9cc3d9ba9972f153eb,2021-07-29_23h15.29.683,Simcolourproject_2stim_asymm_v5,2020.2.10,MacIntel,60,61025ae37ef11b136ea224fe,,,,,,,,,3563,-77.0625,-54.93359375,1,0,1,response5disk,,2,-11.015625,-1.27734375,1,0,1,rectangle,-11.015625,-1.27734375,1,0,1,,,,,,,-11.015625,-1.27734375,1,0,1,,0,58,58,20,1,
,,,,,,,,,,,,,FF,,,,,,,,1.1006,,,,,,,,,,,,,,,,,,,,,,61020974d844343a3ff517d7,61036e9cc3d9ba9972f153eb,2021-07-29_23h15.29.683,Simcolourproject_2stim_asymm_v5,2020.2.10,MacIntel,60,61025ae37ef11b136ea224fe,,,,,,,,,1134,-46.6015625,74.97265625,1,0,1,response7disk,,0,-5.46875,-16.8984375,1,0,1,rectangle,-5.46875,-16.8984375,1,0,1,,,,,,,-5.46875,-16.8984375,1,0,1,,0,59,59,146,1,
,,,,,,,,,,,,,FF,,,,,,,,2.417,,,,,,,,,,,,,,,,,,,,,,61020974d844343a3ff517d7,61036e9cc3d9ba9972f153eb,2021-07-29_23h15.29.683,Simcolourproject_2stim_asymm_v5,2020.2.10,MacIntel,60,61025ae37ef11b136ea224fe,,,,,,,,,2592,-58.98828125,32.921875,1,0,1,response7disk,,1,-0.37109375,0.03125,1,0,1,rectangle,86.3359375,45.1171875,1,0,1,response1disk_3,TRUE,6,6,"[106,10,231,278,50,126,146,32,216,27,1,286,61,104,234,98,100,82,50,91]",1.9167,14.9921875,1.328125,1,0,1,rectangle,0,60,60,153,1,
,,,,,,,,,,,,,FF,,,,,,,,1.3002,,,,,,,,,,,,,,,,,,,,,,61020974d844343a3ff517d7,61036e9cc3d9ba9972f153eb,2021-07-29_23h15.29.683,Simcolourproject_2stim_asymm_v5,2020.2.10,MacIntel,60,61025ae37ef11b136ea224fe,,,,,,,,,657,40.296875,77.078125,1,0,1,response1disk,,7,15.015625,-3.7265625,1,0,1,rectangle,15.015625,-3.7265625,1,0,1,,,,,,,15.015625,-3.7265625,1,0,1,,0,61,61,65,1,
,,,,,,,,,,,,,FF,,,,,,,,2.8173,,,,,,,,,,,,,,,,,,,,,,61020974d844343a3ff517d7,61036e9cc3d9ba9972f153eb,2021-07-29_23h15.29.683,Simcolourproject_2stim_asymm_v5,2020.2.10,MacIntel,60,61025ae37ef11b136ea224fe,,,,,,,,,1166,-63.30859375,30.83203125,1,0,1,response7disk,,1,-5.078125,4.1875,1,0,1,rectangle,-5.078125,4.1875,1,0,1,,,,,,,-5.078125,4.1875,1,0,1,,0,62,62,27,1,
,,,,,,,,,,,,,FF,,,,,,,,1.2669,,,,,,,,,,,,,,,,,,,,,,61020974d844343a3ff517d7,61036e9cc3d9ba9972f153eb,2021-07-29_23h15.29.683,Simcolourproject_2stim_asymm_v5,2020.2.10,MacIntel,60,61025ae37ef11b136ea224fe,,,,,,,,,848,64.3515625,27.78515625,1,0,1,response1disk,,6,22.2265625,-0.49609375,1,0,1,rectangle,22.2265625,-0.49609375,1,0,1,,,,,,,22.2265625,-0.49609375,1,0,1,,0,63,63,119,1,
,,,,,,,,,,,,,FF,,,,,,,,1.1498,,,,,,,,,,,,,,,,,,,,,,61020974d844343a3ff517d7,61036e9cc3d9ba9972f153eb,2021-07-29_23h15.29.683,Simcolourproject_2stim_asymm_v5,2020.2.10,MacIntel,60,61025ae37ef11b136ea224fe,,,,,,,,,3074,36.03125,62.515625,1,0,1,response1disk,,7,19.7265625,6.734375,1,0,1,rectangle,19.7265625,6.734375,1,0,1,,,,,,,19.7265625,6.734375,1,0,1,,0,64,64,112,1,
,,,,,,,,,,,,,FF,,,,,,,,3.2495,,,,,,,,,,,,,,,,,,,,,,61020974d844343a3ff517d7,61036e9cc3d9ba9972f153eb,2021-07-29_23h15.29.683,Simcolourproject_2stim_asymm_v5,2020.2.10,MacIntel,60,61025ae37ef11b136ea224fe,,,,,,,,,1512,-79.67578125,-52.4375,1,0,1,response5disk,,2,-0.1640625,0.98828125,1,0,1,rectangle,-0.1640625,0.98828125,1,0,1,,,,,,,-0.1640625,0.98828125,1,0,1,,0,65,65,134,1,
,,,,,,,,,,,,,FF,,,,,,,,1.0673,,,,,,,,,,,,,,,,,,,,,,61020974d844343a3ff517d7,61036e9cc3d9ba9972f153eb,2021-07-29_23h15.29.683,Simcolourproject_2stim_asymm_v5,2020.2.10,MacIntel,60,61025ae37ef11b136ea224fe,,,,,,,,,2662,-33.2890625,58.609375,1,0,1,response7disk,,0,18.80078125,1.4921875,1,0,1,rectangle,18.80078125,1.4921875,1,0,1,,,,,,,18.80078125,1.4921875,1,0,1,,0,66,66,22,1,
,,,,,,,,,,,,,FF,,,,,,,,1.0182,,,,,,,,,,,,,,,,,,,,,,61020974d844343a3ff517d7,61036e9cc3d9ba9972f153eb,2021-07-29_23h15.29.683,Simcolourproject_2stim_asymm_v5,2020.2.10,MacIntel,60,61025ae37ef11b136ea224fe,,,,,,,,,3096,-23.7421875,57.53125,1,0,1,response7disk,,0,10.69140625,-5.671875,1,0,1,rectangle,10.69140625,-5.671875,1,0,1,,,,,,,10.69140625,-5.671875,1,0,1,,0,67,67,93,1,
,,,,,,,,,,,,,FF,,,,,,,,0.952,,,,,,,,,,,,,,,,,,,,,,61020974d844343a3ff517d7,61036e9cc3d9ba9972f153eb,2021-07-29_23h15.29.683,Simcolourproject_2stim_asymm_v5,2020.2.10,MacIntel,60,61025ae37ef11b136ea224fe,,,,,,,,,873,-63.02734375,40.15234375,1,0,1,response7disk,,1,2.58984375,2.0703125,1,0,1,rectangle,2.58984375,2.0703125,1,0,1,,,,,,,2.58984375,2.0703125,1,0,1,,0,68,68,114,1,
,,,,,,,,,,,,,FF,,,,,,,,1.5003,,,,,,,,,,,,,,,,,,,,,,61020974d844343a3ff517d7,61036e9cc3d9ba9972f153eb,2021-07-29_23h15.29.683,Simcolourproject_2stim_asymm_v5,2020.2.10,MacIntel,60,61025ae37ef11b136ea224fe,,,,,,,,,3067,43.62890625,-74.13671875,1,0,1,response3disk,,4,8.04296875,-0.64453125,1,0,1,rectangle,8.04296875,-0.64453125,1,0,1,,,,,,,8.04296875,-0.64453125,1,0,1,,0,69,69,8,1,
,,,,,,,,,,,,,FF,,,,,,,,1.215,,,,,,,,,,,,,,,,,,,,,,61020974d844343a3ff517d7,61036e9cc3d9ba9972f153eb,2021-07-29_23h15.29.683,Simcolourproject_2stim_asymm_v5,2020.2.10,MacIntel,60,61025ae37ef11b136ea224fe,,,,,,,,,3322,42.81640625,51.984375,1,0,1,response1disk,,7,18.7265625,2.15625,1,0,1,rectangle,18.7265625,2.15625,1,0,1,,,,,,,18.7265625,2.15625,1,0,1,,0,70,70,103,1,
,,,,,,,,,,,,,FF,,,,,,,,0.8683,,,,,,,,,,,,,,,,,,,,,,61020974d844343a3ff517d7,61036e9cc3d9ba9972f153eb,2021-07-29_23h15.29.683,Simcolourproject_2stim_asymm_v5,2020.2.10,MacIntel,60,61025ae37ef11b136ea224fe,,,,,,,,,355,-28.65625,46.15234375,1,0,1,response7disk,,0,10.15625,-4.68359375,1,0,1,rectangle,10.15625,-4.68359375,1,0,1,,,,,,,10.15625,-4.68359375,1,0,1,,0,71,71,107,1,
,,,,,,,,,,,,,FF,,,,,,,,4.1318,,,,,,,,,,,,,,,,,,,,,,61020974d844343a3ff517d7,61036e9cc3d9ba9972f153eb,2021-07-29_23h15.29.683,Simcolourproject_2stim_asymm_v5,2020.2.10,MacIntel,60,61025ae37ef11b136ea224fe,,,,,,,,,224,61.328125,79.57421875,1,0,1,response1disk,,7,5.1796875,3.86328125,1,0,1,rectangle,5.1796875,3.86328125,1,0,1,,,,,,,5.1796875,3.86328125,1,0,1,,0,72,72,26,1,
,,,,,,,,,,,,,FF,,,,,,,,2.3004,,,,,,,,,,,,,,,,,,,,,,61020974d844343a3ff517d7,61036e9cc3d9ba9972f153eb,2021-07-29_23h15.29.683,Simcolourproject_2stim_asymm_v5,2020.2.10,MacIntel,60,61025ae37ef11b136ea224fe,,,,,,,,,2671,-72.18359375,46.76171875,1,0,1,response7disk,,1,-9.28125,8.09375,1,0,1,rectangle,-9.28125,8.09375,1,0,1,,,,,,,-9.28125,8.09375,1,0,1,,0,73,73,66,1,
,,,,,,,,,,,,,FF,,,,,,,,1.0504,,,,,,,,,,,,,,,,,,,,,,61020974d844343a3ff517d7,61036e9cc3d9ba9972f153eb,2021-07-29_23h15.29.683,Simcolourproject_2stim_asymm_v5,2020.2.10,MacIntel,60,61025ae37ef11b136ea224fe,,,,,,,,,4139,47.1171875,83.9296875,1,0,1,response1disk,,7,5.28515625,-0.30859375,1,0,1,rectangle,5.28515625,-0.30859375,1,0,1,,,,,,,5.28515625,-0.30859375,1,0,1,,0,74,74,32,1,
,,,,,,,,,,,,,FF,,,,,,,,1.4174,,,,,,,,,,,,,,,,,,,,,,61020974d844343a3ff517d7,61036e9cc3d9ba9972f153eb,2021-07-29_23h15.29.683,Simcolourproject_2stim_asymm_v5,2020.2.10,MacIntel,60,61025ae37ef11b136ea224fe,,,,,,,,,4198,36.26171875,63.97265625,1,0,1,response1disk,,7,6.68359375,8.5390625,1,0,1,rectangle,6.68359375,8.5390625,1,0,1,,,,,,,6.68359375,8.5390625,1,0,1,,0,75,75,109,1,
,,,,,,,,,,,,,FF,,,,,,,,0.8162,,,,,,,,,,,,,,,,,,,,,,61020974d844343a3ff517d7,61036e9cc3d9ba9972f153eb,2021-07-29_23h15.29.683,Simcolourproject_2stim_asymm_v5,2020.2.10,MacIntel,60,61025ae37ef11b136ea224fe,,,,,,,,,2226,-33.625,56.6796875,1,0,1,response7disk,,0,-3.29296875,-0.765625,1,0,1,rectangle,-3.29296875,-0.765625,1,0,1,,,,,,,-3.29296875,-0.765625,1,0,1,,0,76,76,25,1,
,,,,,,,,,,,,,FF,,,,,,,,0.7835,,,,,,,,,,,,,,,,,,,,,,61020974d844343a3ff517d7,61036e9cc3d9ba9972f153eb,2021-07-29_23h15.29.683,Simcolourproject_2stim_asymm_v5,2020.2.10,MacIntel,60,61025ae37ef11b136ea224fe,,,,,,,,,4225,-38.8515625,58.75,1,0,1,response7disk,,0,-3.80859375,0.45703125,1,0,1,rectangle,-3.80859375,0.45703125,1,0,1,,,,,,,-3.80859375,0.45703125,1,0,1,,0,77,77,29,1,
,,,,,,,,,,,,,FF,,,,,,,,0.9334,,,,,,,,,,,,,,,,,,,,,,61020974d844343a3ff517d7,61036e9cc3d9ba9972f153eb,2021-07-29_23h15.29.683,Simcolourproject_2stim_asymm_v5,2020.2.10,MacIntel,60,61025ae37ef11b136ea224fe,,,,,,,,,2147,45.734375,74.98828125,1,0,1,response1disk,,7,8.6953125,2.0546875,1,0,1,rectangle,8.6953125,2.0546875,1,0,1,,,,,,,8.6953125,2.0546875,1,0,1,,0,78,78,122,1,
,,,,,,,,,,,,,FF,,,,,,,,1.1833,,,,,,,,,,,,,,,,,,,,,,61020974d844343a3ff517d7,61036e9cc3d9ba9972f153eb,2021-07-29_23h15.29.683,Simcolourproject_2stim_asymm_v5,2020.2.10,MacIntel,60,61025ae37ef11b136ea224fe,,,,,,,,,1254,41.484375,69.42578125,1,0,1,response1disk,,7,18.0390625,-2.7890625,1,0,1,rectangle,18.0390625,-2.7890625,1,0,1,,,,,,,18.0390625,-2.7890625,1,0,1,,0,79,79,121,1,
,,,,,,,,,,,,,FF,,,,,,,,1.95,,,,,,,,,,,,,,,,,,,,,,61020974d844343a3ff517d7,61036e9cc3d9ba9972f153eb,2021-07-29_23h15.29.683,Simcolourproject_2stim_asymm_v5,2020.2.10,MacIntel,60,61025ae37ef11b136ea224fe,,,,,,,,,1069,-67.0234375,-44.578125,1,0,1,response5disk,,2,-7.59765625,-2.8125,1,0,1,rectangle,-7.59765625,-2.8125,1,0,1,,,,,,,-7.59765625,-2.8125,1,0,1,,0,80,80,33,1,
,,,,,,,,,,,,,FF,,,,,,,,1.1506,,,,,,,,,,,,,,,,,,,,,,61020974d844343a3ff517d7,61036e9cc3d9ba9972f153eb,2021-07-29_23h15.29.683,Simcolourproject_2stim_asymm_v5,2020.2.10,MacIntel,60,61025ae37ef11b136ea224fe,,,,,,,,,1075,42.28125,73.68359375,1,0,1,response1disk,,7,6.26953125,6.6015625,1,0,1,rectangle,80.78515625,-35.7890625,1,0,1,response3disk_3,TRUE,5,5,"[106,10,231,278,50,126,146,32,216,27,1,286,61,104,234,98,100,82,50,91]",2.1834,5.55078125,-1.4921875,1,0,1,rectangle,0,81,81,85,1,
,,,,,,,,,,,,,FF,,,,,,,,2.7164,,,,,,,,,,,,,,,,,,,,,,61020974d844343a3ff517d7,61036e9cc3d9ba9972f153eb,2021-07-29_23h15.29.683,Simcolourproject_2stim_asymm_v5,2020.2.10,MacIntel,60,61025ae37ef11b136ea224fe,,,,,,,,,534,-91.98828125,-51.9453125,1,0,1,response5disk,,2,-17.28515625,-6.10546875,1,0,1,rectangle,-17.28515625,-6.10546875,1,0,1,,,,,,,-17.28515625,-6.10546875,1,0,1,,0,82,82,76,1,
,,,,,,,,,,,,,FF,,,,,,,,1.0167,,,,,,,,,,,,,,,,,,,,,,61020974d844343a3ff517d7,61036e9cc3d9ba9972f153eb,2021-07-29_23h15.29.683,Simcolourproject_2stim_asymm_v5,2020.2.10,MacIntel,60,61025ae37ef11b136ea224fe,,,,,,,,,2203,37.2890625,77.18359375,1,0,1,response1disk,,7,0.83203125,4.26953125,1,0,1,rectangle,0.83203125,4.26953125,1,0,1,,,,,,,0.83203125,4.26953125,1,0,1,,0,83,83,87,1,
,,,,,,,,,,,,,FF,,,,,,,,0.7168,,,,,,,,,,,,,,,,,,,,,,61020974d844343a3ff517d7,61036e9cc3d9ba9972f153eb,2021-07-29_23h15.29.683,Simcolourproject_2stim_asymm_v5,2020.2.10,MacIntel,60,61025ae37ef11b136ea224fe,,,,,,,,,579,44.41796875,84.66015625,1,0,1,response1disk,,7,6.078125,-0.3671875,1,0,1,rectangle,6.078125,-0.3671875,1,0,1,,,,,,,6.078125,-0.3671875,1,0,1,,0,84,84,126,1,
,,,,,,,,,,,,,FF,,,,,,,,0.6513,,,,,,,,,,,,,,,,,,,,,,61020974d844343a3ff517d7,61036e9cc3d9ba9972f153eb,2021-07-29_23h15.29.683,Simcolourproject_2stim_asymm_v5,2020.2.10,MacIntel,60,61025ae37ef11b136ea224fe,,,,,,,,,413,49.16796875,78.3046875,1,0,1,response1disk,,7,9.18359375,-9.22265625,1,0,1,rectangle,9.18359375,-9.22265625,1,0,1,,,,,,,9.18359375,-9.22265625,1,0,1,,0,85,85,88,1,
,,,,,,,,,,,,,FF,,,,,,,,1.1333,,,,,,,,,,,,,,,,,,,,,,61020974d844343a3ff517d7,61036e9cc3d9ba9972f153eb,2021-07-29_23h15.29.683,Simcolourproject_2stim_asymm_v5,2020.2.10,MacIntel,60,61025ae37ef11b136ea224fe,,,,,,,,,1968,-75.9296875,30.609375,1,0,1,response7disk,,1,-13.27734375,-3.39453125,1,0,1,rectangle,-13.27734375,-3.39453125,1,0,1,,,,,,,-13.27734375,-3.39453125,1,0,1,,0,86,86,44,1,
,,,,,,,,,,,,,FF,,,,,,,,4.5658,,,,,,,,,,,,,,,,,,,,,,61020974d844343a3ff517d7,61036e9cc3d9ba9972f153eb,2021-07-29_23h15.29.683,Simcolourproject_2stim_asymm_v5,2020.2.10,MacIntel,60,61025ae37ef11b136ea224fe,,,,,,,,,3272,73.74609375,-35.625,1,0,1,response3disk,,5,17.7265625,4.796875,1,0,1,rectangle,17.7265625,4.796875,1,0,1,,,,,,,17.7265625,4.796875,1,0,1,,0,87,87,50,1,
,,,,,,,,,,,,,FF,,,,,,,,0.8667,,,,,,,,,,,,,,,,,,,,,,61020974d844343a3ff517d7,61036e9cc3d9ba9972f153eb,2021-07-29_23h15.29.683,Simcolourproject_2stim_asymm_v5,2020.2.10,MacIntel,60,61025ae37ef11b136ea224fe,,,,,,,,,1536,-72.2578125,41.359375,1,0,1,response7disk,,1,-4.51953125,2.1640625,1,0,1,rectangle,-4.51953125,2.1640625,1,0,1,,,,,,,-4.51953125,2.1640625,1,0,1,,0,88,88,5,1,
,,,,,,,,,,,,,FF,,,,,,,,0.8159,,,,,,,,,,,,,,,,,,,,,,61020974d844343a3ff517d7,61036e9cc3d9ba9972f153eb,2021-07-29_23h15.29.683,Simcolourproject_2stim_asymm_v5,2020.2.10,MacIntel,60,61025ae37ef11b136ea224fe,,,,,,,,,286,-52.94140625,25.41015625,1,0,1,response7disk,,1,-6.7265625,3.2578125,1,0,1,rectangle,-6.7265625,3.2578125,1,0,1,,,,,,,-6.7265625,3.2578125,1,0,1,,0,89,89,80,1,
,,,,,,,,,,,,,FF,,,,,,,,0.5659,,,,,,,,,,,,,,,,,,,,,,61020974d844343a3ff517d7,61036e9cc3d9ba9972f153eb,2021-07-29_23h15.29.683,Simcolourproject_2stim_asymm_v5,2020.2.10,MacIntel,60,61025ae37ef11b136ea224fe,,,,,,,,,348,-68.22265625,29.88671875,1,0,1,response7disk,,1,-4.7734375,-7.1328125,1,0,1,rectangle,29.60546875,-83.98046875,1,0,1,response3disk_3,TRUE,4,4,"[106,10,231,278,50,126,146,32,216,27,1,286,61,104,234,98,100,82,50,91]",2.1161,0.84765625,-7.52734375,1,0,1,rectangle,0,90,90,54,1,
,,,,,,,,,,,,,FF,,,,,,,,0.883,,,,,,,,,,,,,,,,,,,,,,61020974d844343a3ff517d7,61036e9cc3d9ba9972f153eb,2021-07-29_23h15.29.683,Simcolourproject_2stim_asymm_v5,2020.2.10,MacIntel,60,61025ae37ef11b136ea224fe,,,,,,,,,73,-75.5546875,53.703125,1,0,1,response7disk,,1,-2.1015625,-8.671875,1,0,1,rectangle,-2.1015625,-8.671875,1,0,1,,,,,,,-2.1015625,-8.671875,1,0,1,,0,91,91,71,1,
,,,,,,,,,,,,,FF,,,,,,,,0.7997,,,,,,,,,,,,,,,,,,,,,,61020974d844343a3ff517d7,61036e9cc3d9ba9972f153eb,2021-07-29_23h15.29.683,Simcolourproject_2stim_asymm_v5,2020.2.10,MacIntel,60,61025ae37ef11b136ea224fe,,,,,,,,,4128,-76.5625,27.05859375,1,0,1,response7disk,,1,-8.79296875,-4.98828125,1,0,1,rectangle,-8.79296875,-4.98828125,1,0,1,,,,,,,-8.79296875,-4.98828125,1,0,1,,0,92,92,1,1,
,,,,,,,,,,,,,FF,,,,,,,,1.7009,,,,,,,,,,,,,,,,,,,,,,61020974d844343a3ff517d7,61036e9cc3d9ba9972f153eb,2021-07-29_23h15.29.683,Simcolourproject_2stim_asymm_v5,2020.2.10,MacIntel,60,61025ae37ef11b136ea224fe,,,,,,,,,392,80.3125,-53.328125,1,0,1,response3disk,,5,-10.09375,11.796875,1,0,1,rectangle,-10.09375,11.796875,1,0,1,,,,,,,-10.09375,11.796875,1,0,1,,0,93,93,9,1,
,,,,,,,,,,,,,FF,,,,,,,,0.9474,,,,,,,,,,,,,,,,,,,,,,61020974d844343a3ff517d7,61036e9cc3d9ba9972f153eb,2021-07-29_23h15.29.683,Simcolourproject_2stim_asymm_v5,2020.2.10,MacIntel,60,61025ae37ef11b136ea224fe,,,,,,,,,1154,-65.265625,30.484375,1,0,1,response7disk,,1,-5.9140625,6.28125,1,0,1,rectangle,-5.9140625,6.28125,1,0,1,,,,,,,-5.9140625,6.28125,1,0,1,,0,94,94,99,1,
,,,,,,,,,,,,,FF,,,,,,,,1.6022,,,,,,,,,,,,,,,,,,,,,,61020974d844343a3ff517d7,61036e9cc3d9ba9972f153eb,2021-07-29_23h15.29.683,Simcolourproject_2stim_asymm_v5,2020.2.10,MacIntel,60,61025ae37ef11b136ea224fe,,,,,,,,,3332,81.8359375,-43.421875,1,0,1,response3disk,,5,20.97265625,-3.921875,1,0,1,rectangle,20.97265625,-3.921875,1,0,1,,,,,,,20.97265625,-3.921875,1,0,1,,0,95,95,158,1,
,,,,,,,,,,,,,FF,,,,,,,,0.8321,,,,,,,,,,,,,,,,,,,,,,61020974d844343a3ff517d7,61036e9cc3d9ba9972f153eb,2021-07-29_23h15.29.683,Simcolourproject_2stim_asymm_v5,2020.2.10,MacIntel,60,61025ae37ef11b136ea224fe,,,,,,,,,1567,75.6953125,-45.5859375,1,0,1,response3disk,,5,17.69140625,-8.203125,1,0,1,rectangle,17.69140625,-8.203125,1,0,1,,,,,,,17.69140625,-8.203125,1,0,1,,0,96,96,108,1,
,,,,,,,,,,,,,FF,,,,,,,,1.0015,,,,,,,,,,,,,,,,,,,,,,61020974d844343a3ff517d7,61036e9cc3d9ba9972f153eb,2021-07-29_23h15.29.683,Simcolourproject_2stim_asymm_v5,2020.2.10,MacIntel,60,61025ae37ef11b136ea224fe,,,,,,,,,1449,-61.671875,31.1171875,1,0,1,response7disk,,1,17.3125,-13.18359375,1,0,1,rectangle,43.109375,-61.51171875,1,0,1,response3disk_3,TRUE,4,4,"[106,10,231,278,50,126,146,32,216,27,1,286,61,104,234,98,100,82,50,91]",1.651,10.3828125,-1.1796875,1,0,1,rectangle,0,97,97,82,1,
,,,,,,,,,,,,,FF,,,,,,,,0.9009,,,,,,,,,,,,,,,,,,,,,,61020974d844343a3ff517d7,61036e9cc3d9ba9972f153eb,2021-07-29_23h15.29.683,Simcolourproject_2stim_asymm_v5,2020.2.10,MacIntel,60,61025ae37ef11b136ea224fe,,,,,,,,,2001,27.51953125,58.50390625,1,0,1,response1disk,,7,3.68359375,-9.96484375,1,0,1,rectangle,3.68359375,-9.96484375,1,0,1,,,,,,,3.68359375,-9.96484375,1,0,1,,0,98,98,127,1,
,,,,,,,,,,,,,FF,,,,,,,,0.7174,,,,,,,,,,,,,,,,,,,,,,61020974d844343a3ff517d7,61036e9cc3d9ba9972f153eb,2021-07-29_23h15.29.683,Simcolourproject_2stim_asymm_v5,2020.2.10,MacIntel,60,61025ae37ef11b136ea224fe,,,,,,,,,1655,33.44921875,57.90625,1,0,1,response1disk,,7,8.85546875,-3.13671875,1,0,1,rectangle,82.97265625,-35.55859375,1,0,1,response3disk_3,TRUE,5,5,"[106,10,231,278,50,126,146,32,216,27,1,286,61,104,234,98,100,82,50,91]",1.8503,27.4296875,-8.6328125,1,0,1,rectangle,0,99,99,73,1,
,,,,,,,,,,,,,FF,,,,,,,,2.1165,,,,,,,,,,,,,,,,,,,,,,61020974d844343a3ff517d7,61036e9cc3d9ba9972f153eb,2021-07-29_23h15.29.683,Simcolourproject_2stim_asymm_v5,2020.2.10,MacIntel,60,61025ae37ef11b136ea224fe,,,,,,,,,1616,-76.984375,-56.70703125,1,0,1,response5disk,,2,-7.04296875,-0.0625,1,0,1,rectangle,-7.04296875,-0.0625,1,0,1,,,,,,,-7.04296875,-0.0625,1,0,1,,0,100,100,62,1,
,,,,,,,,,,,,,FF,,,,,,,,2.2177,,,,,,,,,,,,,,,,,,,,,,61020974d844343a3ff517d7,61036e9cc3d9ba9972f153eb,2021-07-29_23h15.29.683,Simcolourproject_2stim_asymm_v5,2020.2.10,MacIntel,60,61025ae37ef11b136ea224fe,,,,,,,,,2711,-29.89453125,-93.95703125,1,0,1,response5disk,,3,-7.4609375,-1.3359375,1,0,1,rectangle,-7.4609375,-1.3359375,1,0,1,,,,,,,-7.4609375,-1.3359375,1,0,1,,0,101,101,104,1,
,,,,,,,,,,,,,FF,,,,,,,,1.6324,,,,,,,,,,,,,,,,,,,,,,61020974d844343a3ff517d7,61036e9cc3d9ba9972f153eb,2021-07-29_23h15.29.683,Simcolourproject_2stim_asymm_v5,2020.2.10,MacIntel,60,61025ae37ef11b136ea224fe,,,,,,,,,4065,50.69140625,-70.53125,1,0,1,response3disk,,4,1.51953125,-3.43359375,1,0,1,rectangle,1.51953125,-3.43359375,1,0,1,,,,,,,1.51953125,-3.43359375,1,0,1,,0,102,102,138,1,
,,,,,,,,,,,,,FF,,,,,,,,1.0659,,,,,,,,,,,,,,,,,,,,,,61020974d844343a3ff517d7,61036e9cc3d9ba9972f153eb,2021-07-29_23h15.29.683,Simcolourproject_2stim_asymm_v5,2020.2.10,MacIntel,60,61025ae37ef11b136ea224fe,,,,,,,,,1,-53.12890625,86.16015625,1,0,1,response7disk,,0,9.63671875,-5.54296875,1,0,1,rectangle,40.4921875,74.13671875,1,0,1,response1disk_3,TRUE,7,7,"[106,10,231,278,50,126,146,32,216,27,1,286,61,104,234,98,100,82,50,91]",3.3834,15.8046875,-0.97265625,1,0,1,rectangle,0,103,103,100,1,
,,,,,,,,,,,,,FF,,,,,,,,2.3341,,,,,,,,,,,,,,,,,,,,,,61020974d844343a3ff517d7,61036e9cc3d9ba9972f153eb,2021-07-29_23h15.29.683,Simcolourproject_2stim_asymm_v5,2020.2.10,MacIntel,60,61025ae37ef11b136ea224fe,,,,,,,,,2990,-63.80078125,38.3828125,1,0,1,response7disk,,1,3.33984375,3.51953125,1,0,1,rectangle,3.33984375,3.51953125,1,0,1,,,,,,,3.33984375,3.51953125,1,0,1,,0,104,104,63,1,
,,,,,,,,,,,,,FF,,,,,,,,0.8351,,,,,,,,,,,,,,,,,,,,,,61020974d844343a3ff517d7,61036e9cc3d9ba9972f153eb,2021-07-29_23h15.29.683,Simcolourproject_2stim_asymm_v5,2020.2.10,MacIntel,60,61025ae37ef11b136ea224fe,,,,,,,,,3252,-58.08203125,44.80859375,1,0,1,response7disk,,1,-3.46875,0.53125,1,0,1,rectangle,67.9296875,-19.359375,1,0,1,response3disk_3,TRUE,5,5,"[106,10,231,278,50,126,146,32,216,27,1,286,61,104,234,98,100,82,50,91]",1.701,10.453125,0.95703125,1,0,1,rectangle,0,105,105,19,1,
,,,,,,,,,,,,,FF,,,,,,,,1.1992,,,,,,,,,,,,,,,,,,,,,,61020974d844343a3ff517d7,61036e9cc3d9ba9972f153eb,2021-07-29_23h15.29.683,Simcolourproject_2stim_asymm_v5,2020.2.10,MacIntel,60,61025ae37ef11b136ea224fe,,,,,,,,,109,22.140625,67.5703125,1,0,1,response1disk,,7,5.2421875,-3.19921875,1,0,1,rectangle,5.2421875,-3.19921875,1,0,1,,,,,,,5.2421875,-3.19921875,1,0,1,,0,106,106,129,1,
,,,,,,,,,,,,,FF,,,,,,,,1.1497,,,,,,,,,,,,,,,,,,,,,,61020974d844343a3ff517d7,61036e9cc3d9ba9972f153eb,2021-07-29_23h15.29.683,Simcolourproject_2stim_asymm_v5,2020.2.10,MacIntel,60,61025ae37ef11b136ea224fe,,,,,,,,,1061,-65.9921875,28.25,1,0,1,response7disk,,1,8.23046875,-16.87890625,1,0,1,rectangle,8.23046875,-16.87890625,1,0,1,,,,,,,8.23046875,-16.87890625,1,0,1,,0,107,107,106,1,
,,,,,,,,,,,,,FF,,,,,,,,1.6491,,,,,,,,,,,,,,,,,,,,,,61020974d844343a3ff517d7,61036e9cc3d9ba9972f153eb,2021-07-29_23h15.29.683,Simcolourproject_2stim_asymm_v5,2020.2.10,MacIntel,60,61025ae37ef11b136ea224fe,,,,,,,,,1284,-45.6171875,-77.98046875,1,0,1,response5disk,,3,-10.3828125,2.515625,1,0,1,rectangle,-10.3828125,2.515625,1,0,1,,,,,,,-10.3828125,2.515625,1,0,1,,0,108,108,131,1,
,,,,,,,,,,,,,FF,,,,,,,,1.1504,,,,,,,,,,,,,,,,,,,,,,61020974d844343a3ff517d7,61036e9cc3d9ba9972f153eb,2021-07-29_23h15.29.683,Simcolourproject_2stim_asymm_v5,2020.2.10,MacIntel,60,61025ae37ef11b136ea224fe,,,,,,,,,1683,-73.6171875,38.67578125,1,0,1,response7disk,,1,-2.1015625,2.8984375,1,0,1,rectangle,-2.1015625,2.8984375,1,0,1,,,,,,,-2.1015625,2.8984375,1,0,1,,0,109,109,57,1,
,,,,,,,,,,,,,FF,,,,,,,,1.2173,,,,,,,,,,,,,,,,,,,,,,61020974d844343a3ff517d7,61036e9cc3d9ba9972f153eb,2021-07-29_23h15.29.683,Simcolourproject_2stim_asymm_v5,2020.2.10,MacIntel,60,61025ae37ef11b136ea224fe,,,,,,,,,2200,35.2578125,63.765625,1,0,1,response1disk,,7,15.203125,8.63671875,1,0,1,rectangle,15.203125,8.63671875,1,0,1,,,,,,,15.203125,8.63671875,1,0,1,,0,110,110,4,1,
,,,,,,,,,,,,,FF,,,,,,,,0.9667,,,,,,,,,,,,,,,,,,,,,,61020974d844343a3ff517d7,61036e9cc3d9ba9972f153eb,2021-07-29_23h15.29.683,Simcolourproject_2stim_asymm_v5,2020.2.10,MacIntel,60,61025ae37ef11b136ea224fe,,,,,,,,,2399,28.74609375,52.19140625,1,0,1,response1disk,,7,12.39453125,10.85546875,1,0,1,rectangle,12.39453125,10.85546875,1,0,1,,,,,,,12.39453125,10.85546875,1,0,1,,0,111,111,116,1,
,,,,,,,,,,,,,FF,,,,,,,,1.4989,,,,,,,,,,,,,,,,,,,,,,61020974d844343a3ff517d7,61036e9cc3d9ba9972f153eb,2021-07-29_23h15.29.683,Simcolourproject_2stim_asymm_v5,2020.2.10,MacIntel,60,61025ae37ef11b136ea224fe,,,,,,,,,3036,-39.42578125,28.02734375,1,0,1,response7disk,,1,9.73828125,-8.44140625,1,0,1,rectangle,9.73828125,-8.44140625,1,0,1,,,,,,,9.73828125,-8.44140625,1,0,1,,0,112,112,37,1,
,,,,,,,,,,,,,FF,,,,,,,,2.7514,,,,,,,,,,,,,,,,,,,,,,61020974d844343a3ff517d7,61036e9cc3d9ba9972f153eb,2021-07-29_23h15.29.683,Simcolourproject_2stim_asymm_v5,2020.2.10,MacIntel,60,61025ae37ef11b136ea224fe,,,,,,,,,845,48.78125,-32.40234375,1,0,1,response3disk,,5,-4.09765625,2.76953125,1,0,1,rectangle,-4.09765625,2.76953125,1,0,1,,,,,,,-4.09765625,2.76953125,1,0,1,,0,113,113,140,1,
,,,,,,,,,,,,,FF,,,,,,,,0.9333,,,,,,,,,,,,,,,,,,,,,,61020974d844343a3ff517d7,61036e9cc3d9ba9972f153eb,2021-07-29_23h15.29.683,Simcolourproject_2stim_asymm_v5,2020.2.10,MacIntel,60,61025ae37ef11b136ea224fe,,,,,,,,,1385,-48.73046875,38.45703125,1,0,1,response7disk,,1,-1.05078125,-0.03125,1,0,1,rectangle,-1.05078125,-0.03125,1,0,1,,,,,,,-1.05078125,-0.03125,1,0,1,,0,114,114,132,1,
,,,,,,,,,,,,,FF,,,,,,,,3.4662,,,,,,,,,,,,,,,,,,,,,,61020974d844343a3ff517d7,61036e9cc3d9ba9972f153eb,2021-07-29_23h15.29.683,Simcolourproject_2stim_asymm_v5,2020.2.10,MacIntel,60,61025ae37ef11b136ea224fe,,,,,,,,,3207,-71.87109375,-39.0390625,1,0,1,response5disk,,2,-21.84765625,-1.60546875,1,0,1,rectangle,-21.84765625,-1.60546875,1,0,1,,,,,,,-21.84765625,-1.60546875,1,0,1,,0,115,115,142,1,
,,,,,,,,,,,,,FF,,,,,,,,0.7504,,,,,,,,,,,,,,,,,,,,,,61020974d844343a3ff517d7,61036e9cc3d9ba9972f153eb,2021-07-29_23h15.29.683,Simcolourproject_2stim_asymm_v5,2020.2.10,MacIntel,60,61025ae37ef11b136ea224fe,,,,,,,,,106,-74.15234375,35.53515625,1,0,1,response7disk,,1,-11.625,4.66015625,1,0,1,rectangle,-11.625,4.66015625,1,0,1,,,,,,,-11.625,4.66015625,1,0,1,,0,116,116,14,1,
,,,,,,,,,,,,,FF,,,,,,,,0.7143,,,,,,,,,,,,,,,,,,,,,,61020974d844343a3ff517d7,61036e9cc3d9ba9972f153eb,2021-07-29_23h15.29.683,Simcolourproject_2stim_asymm_v5,2020.2.10,MacIntel,60,61025ae37ef11b136ea224fe,,,,,,,,,291,-52.5859375,30.2265625,1,0,1,response7disk,,1,-2.5390625,1.10546875,1,0,1,rectangle,-2.5390625,1.10546875,1,0,1,,,,,,,-2.5390625,1.10546875,1,0,1,,0,117,117,52,1,
,,,,,,,,,,,,,FF,,,,,,,,1.1179,,,,,,,,,,,,,,,,,,,,,,61020974d844343a3ff517d7,61036e9cc3d9ba9972f153eb,2021-07-29_23h15.29.683,Simcolourproject_2stim_asymm_v5,2020.2.10,MacIntel,60,61025ae37ef11b136ea224fe,,,,,,,,,853,-49.91796875,-47.328125,1,0,1,response5disk,,2,26.96484375,1.4609375,1,0,1,rectangle,26.96484375,1.4609375,1,0,1,,,,,,,26.96484375,1.4609375,1,0,1,,0,118,118,70,1,
,,,,,,,,,,,,,FF,,,,,,,,1.6191,,,,,,,,,,,,,,,,,,,,,,61020974d844343a3ff517d7,61036e9cc3d9ba9972f153eb,2021-07-29_23h15.29.683,Simcolourproject_2stim_asymm_v5,2020.2.10,MacIntel,60,61025ae37ef11b136ea224fe,,,,,,,,,1702,62.171875,28.73046875,1,0,1,response1disk,,6,20.953125,-3.6328125,1,0,1,rectangle,20.953125,-3.6328125,1,0,1,,,,,,,20.953125,-3.6328125,1,0,1,,0,119,119,43,1,
,,,,,,,,,,,,,FF,,,,,,,,0.8159,,,,,,,,,,,,,,,,,,,,,,61020974d844343a3ff517d7,61036e9cc3d9ba9972f153eb,2021-07-29_23h15.29.683,Simcolourproject_2stim_asymm_v5,2020.2.10,MacIntel,60,61025ae37ef11b136ea224fe,,,,,,,,,1251,58.890625,28.1875,1,0,1,response1disk,,6,31.62109375,5.484375,1,0,1,rectangle,31.62109375,5.484375,1,0,1,,,,,,,31.62109375,5.484375,1,0,1,,0,120,120,91,1,
,,,,,,,,,,,,,FF,,,,,,,,0.7483,,,,,,,,,,,,,,,,,,,,,,61020974d844343a3ff517d7,61036e9cc3d9ba9972f153eb,2021-07-29_23h15.29.683,Simcolourproject_2stim_asymm_v5,2020.2.10,MacIntel,60,61025ae37ef11b136ea224fe,,,,,,,,,4234,61.09765625,34.84375,1,0,1,response1disk,,6,33.73828125,9.5859375,1,0,1,rectangle,33.73828125,9.5859375,1,0,1,,,,,,,33.73828125,9.5859375,1,0,1,,0,121,121,98,1,
,,,,,,,,,,,,,FF,,,,,,,,1.3818,,,,,,,,,,,,,,,,,,,,,,61020974d844343a3ff517d7,61036e9cc3d9ba9972f153eb,2021-07-29_23h15.29.683,Simcolourproject_2stim_asymm_v5,2020.2.10,MacIntel,60,61025ae37ef11b136ea224fe,,,,,,,,,4275,57.59375,-84.0703125,1,0,1,response3disk,,4,-9.94921875,1.50390625,1,0,1,rectangle,-9.94921875,1.50390625,1,0,1,,,,,,,-9.94921875,1.50390625,1,0,1,,0,122,122,74,1,
,,,,,,,,,,,,,FF,,,,,,,,20.2327,,,,,,,,,,,,,,,,,,,,,,61020974d844343a3ff517d7,61036e9cc3d9ba9972f153eb,2021-07-29_23h15.29.683,Simcolourproject_2stim_asymm_v5,2020.2.10,MacIntel,60,61025ae37ef11b136ea224fe,,,,,,,,,2035,-27.828125,-82.7109375,1,0,1,response5disk,,3,0.64453125,0.38671875,1,0,1,rectangle,0.64453125,0.38671875,1,0,1,,,,,,,0.64453125,0.38671875,1,0,1,,0,123,123,92,1,
,,,,,,,,,,,,,FF,,,,,,,,1.4174,,,,,,,,,,,,,,,,,,,,,,61020974d844343a3ff517d7,61036e9cc3d9ba9972f153eb,2021-07-29_23h15.29.683,Simcolourproject_2stim_asymm_v5,2020.2.10,MacIntel,60,61025ae37ef11b136ea224fe,,,,,,,,,2641,41.06640625,69.109375,1,0,1,response1disk,,7,8.38671875,-6.94921875,1,0,1,rectangle,8.38671875,-6.94921875,1,0,1,,,,,,,8.38671875,-6.94921875,1,0,1,,0,124,124,53,1,
,,,,,,,,,,,,,FF,,,,,,,,0.7511,,,,,,,,,,,,,,,,,,,,,,61020974d844343a3ff517d7,61036e9cc3d9ba9972f153eb,2021-07-29_23h15.29.683,Simcolourproject_2stim_asymm_v5,2020.2.10,MacIntel,60,61025ae37ef11b136ea224fe,,,,,,,,,1522,-81.9765625,35.20703125,1,0,1,response7disk,,1,7.31640625,-5.125,1,0,1,rectangle,49.51953125,-89.43359375,1,0,1,response3disk_3,TRUE,4,4,"[106,10,231,278,50,126,146,32,216,27,1,286,61,104,234,98,100,82,50,91]",2.0351,1.28125,-3.6015625,1,0,1,rectangle,0,125,125,148,1,
,,,,,,,,,,,,,FF,,,,,,,,0.8507,,,,,,,,,,,,,,,,,,,,,,61020974d844343a3ff517d7,61036e9cc3d9ba9972f153eb,2021-07-29_23h15.29.683,Simcolourproject_2stim_asymm_v5,2020.2.10,MacIntel,60,61025ae37ef11b136ea224fe,,,,,,,,,1711,37.53125,54.2265625,1,0,1,response1disk,,7,20.203125,9.00390625,1,0,1,rectangle,20.203125,9.00390625,1,0,1,,,,,,,20.203125,9.00390625,1,0,1,,0,126,126,56,1,
,,,,,,,,,,,,,FF,,,,,,,,0.7174,,,,,,,,,,,,,,,,,,,,,,61020974d844343a3ff517d7,61036e9cc3d9ba9972f153eb,2021-07-29_23h15.29.683,Simcolourproject_2stim_asymm_v5,2020.2.10,MacIntel,60,61025ae37ef11b136ea224fe,,,,,,,,,2231,-70.0546875,28.609375,1,0,1,response7disk,,1,-11.30859375,-8.265625,1,0,1,rectangle,-11.30859375,-8.265625,1,0,1,,,,,,,-11.30859375,-8.265625,1,0,1,,0,127,127,72,1,
,,,,,,,,,,,,,FF,,,,,,,,0.8686,,,,,,,,,,,,,,,,,,,,,,61020974d844343a3ff517d7,61036e9cc3d9ba9972f153eb,2021-07-29_23h15.29.683,Simcolourproject_2stim_asymm_v5,2020.2.10,MacIntel,60,61025ae37ef11b136ea224fe,,,,,,,,,2615,-20.0546875,-96.38671875,1,0,1,response5disk,,3,0.8359375,2.34375,1,0,1,rectangle,0.8359375,2.34375,1,0,1,,,,,,,0.8359375,2.34375,1,0,1,,0,128,128,159,1,
,,,,,,,,,,,,,FF,,,,,,,,2.9518,,,,,,,,,,,,,,,,,,,,,,61020974d844343a3ff517d7,61036e9cc3d9ba9972f153eb,2021-07-29_23h15.29.683,Simcolourproject_2stim_asymm_v5,2020.2.10,MacIntel,60,61025ae37ef11b136ea224fe,,,,,,,,,1110,-81.3359375,-45.33984375,1,0,1,response5disk,,2,-18.25390625,-2.9921875,1,0,1,rectangle,-18.25390625,-2.9921875,1,0,1,,,,,,,-18.25390625,-2.9921875,1,0,1,,0,129,129,2,1,
,,,,,,,,,,,,,FF,,,,,,,,0.8997,,,,,,,,,,,,,,,,,,,,,,61020974d844343a3ff517d7,61036e9cc3d9ba9972f153eb,2021-07-29_23h15.29.683,Simcolourproject_2stim_asymm_v5,2020.2.10,MacIntel,60,61025ae37ef11b136ea224fe,,,,,,,,,3092,-54.04296875,47.2109375,1,0,1,response7disk,,1,10.90234375,4.75390625,1,0,1,rectangle,10.90234375,4.75390625,1,0,1,,,,,,,10.90234375,4.75390625,1,0,1,,0,130,130,124,1,
,,,,,,,,,,,,,FF,,,,,,,,1.4991,,,,,,,,,,,,,,,,,,,,,,61020974d844343a3ff517d7,61036e9cc3d9ba9972f153eb,2021-07-29_23h15.29.683,Simcolourproject_2stim_asymm_v5,2020.2.10,MacIntel,60,61025ae37ef11b136ea224fe,,,,,,,,,2643,91.578125,36.74609375,1,0,1,response1disk,,6,15.6484375,-0.80078125,1,0,1,rectangle,15.6484375,-0.80078125,1,0,1,,,,,,,15.6484375,-0.80078125,1,0,1,,0,131,131,34,1,
,,,,,,,,,,,,,FF,,,,,,,,0.9671,,,,,,,,,,,,,,,,,,,,,,61020974d844343a3ff517d7,61036e9cc3d9ba9972f153eb,2021-07-29_23h15.29.683,Simcolourproject_2stim_asymm_v5,2020.2.10,MacIntel,60,61025ae37ef11b136ea224fe,,,,,,,,,833,35.1875,72.94921875,1,0,1,response1disk,,7,13.33203125,1.73828125,1,0,1,rectangle,13.33203125,1.73828125,1,0,1,,,,,,,13.33203125,1.73828125,1,0,1,,0,132,132,69,1,
,,,,,,,,,,,,,FF,,,,,,,,0.6842,,,,,,,,,,,,,,,,,,,,,,61020974d844343a3ff517d7,61036e9cc3d9ba9972f153eb,2021-07-29_23h15.29.683,Simcolourproject_2stim_asymm_v5,2020.2.10,MacIntel,60,61025ae37ef11b136ea224fe,,,,,,,,,345,-59.2109375,40.33203125,1,0,1,response7disk,,1,10.44921875,8.33984375,1,0,1,rectangle,10.44921875,8.33984375,1,0,1,,,,,,,10.44921875,8.33984375,1,0,1,,0,133,133,95,1,
,,,,,,,,,,,,,FF,,,,,,,,2.6658,,,,,,,,,,,,,,,,,,,,,,61020974d844343a3ff517d7,61036e9cc3d9ba9972f153eb,2021-07-29_23h15.29.683,Simcolourproject_2stim_asymm_v5,2020.2.10,MacIntel,60,61025ae37ef11b136ea224fe,,,,,,,,,771,-51.484375,37.921875,1,0,1,response7disk,,1,-4.25,-13.3125,1,0,1,rectangle,-4.25,-13.3125,1,0,1,,,,,,,-4.25,-13.3125,1,0,1,,0,134,134,55,1,
,,,,,,,,,,,,,FF,,,,,,,,1.0164,,,,,,,,,,,,,,,,,,,,,,61020974d844343a3ff517d7,61036e9cc3d9ba9972f153eb,2021-07-29_23h15.29.683,Simcolourproject_2stim_asymm_v5,2020.2.10,MacIntel,60,61025ae37ef11b136ea224fe,,,,,,,,,1501,39.69921875,60.546875,1,0,1,response1disk,,7,4.26171875,7.21875,1,0,1,rectangle,4.26171875,7.21875,1,0,1,,,,,,,4.26171875,7.21875,1,0,1,,0,135,135,86,1,
,,,,,,,,,,,,,FF,,,,,,,,2.5338,,,,,,,,,,,,,,,,,,,,,,61020974d844343a3ff517d7,61036e9cc3d9ba9972f153eb,2021-07-29_23h15.29.683,Simcolourproject_2stim_asymm_v5,2020.2.10,MacIntel,60,61025ae37ef11b136ea224fe,,,,,,,,,3492,30.19140625,83.7109375,1,0,1,response1disk,,7,10.62109375,0.61328125,1,0,1,rectangle,10.62109375,0.61328125,1,0,1,,,,,,,10.62109375,0.61328125,1,0,1,,0,136,136,152,1,
,,,,,,,,,,,,,FF,,,,,,,,0.9508,,,,,,,,,,,,,,,,,,,,,,61020974d844343a3ff517d7,61036e9cc3d9ba9972f153eb,2021-07-29_23h15.29.683,Simcolourproject_2stim_asymm_v5,2020.2.10,MacIntel,60,61025ae37ef11b136ea224fe,,,,,,,,,3499,36.2265625,51.53125,1,0,1,response1disk,,7,17.53515625,4.234375,1,0,1,rectangle,17.53515625,4.234375,1,0,1,,,,,,,17.53515625,4.234375,1,0,1,,0,137,137,83,1,
,,,,,,,,,,,,,FF,,,,,,,,0.9351,,,,,,,,,,,,,,,,,,,,,,61020974d844343a3ff517d7,61036e9cc3d9ba9972f153eb,2021-07-29_23h15.29.683,Simcolourproject_2stim_asymm_v5,2020.2.10,MacIntel,60,61025ae37ef11b136ea224fe,,,,,,,,,3907,-76.55859375,40.84765625,1,0,1,response7disk,,1,6.5,4.42578125,1,0,1,rectangle,6.5,4.42578125,1,0,1,,,,,,,6.5,4.42578125,1,0,1,,0,138,138,128,1,
,,,,,,,,,,,,,FF,,,,,,,,1.0161,,,,,,,,,,,,,,,,,,,,,,61020974d844343a3ff517d7,61036e9cc3d9ba9972f153eb,2021-07-29_23h15.29.683,Simcolourproject_2stim_asymm_v5,2020.2.10,MacIntel,60,61025ae37ef11b136ea224fe,,,,,,,,,2844,-69.48828125,34.15234375,1,0,1,response7disk,,1,-21.6015625,6.203125,1,0,1,rectangle,-21.6015625,6.203125,1,0,1,,,,,,,-21.6015625,6.203125,1,0,1,,0,139,139,151,1,
,,,,,,,,,,,,,FF,,,,,,,,1.0665,,,,,,,,,,,,,,,,,,,,,,61020974d844343a3ff517d7,61036e9cc3d9ba9972f153eb,2021-07-29_23h15.29.683,Simcolourproject_2stim_asymm_v5,2020.2.10,MacIntel,60,61025ae37ef11b136ea224fe,,,,,,,,,1244,33.46875,66.33203125,1,0,1,response1disk,,7,9.29296875,3.765625,1,0,1,rectangle,9.29296875,3.765625,1,0,1,,,,,,,9.29296875,3.765625,1,0,1,,0,140,140,46,1,
,,,,,,,,,,,,,FF,,,,,,,,1.1658,,,,,,,,,,,,,,,,,,,,,,61020974d844343a3ff517d7,61036e9cc3d9ba9972f153eb,2021-07-29_23h15.29.683,Simcolourproject_2stim_asymm_v5,2020.2.10,MacIntel,60,61025ae37ef11b136ea224fe,,,,,,,,,3692,37.0703125,48.1640625,1,0,1,response1disk,,7,18.73828125,-0.19921875,1,0,1,rectangle,18.73828125,-0.19921875,1,0,1,,,,,,,18.73828125,-0.19921875,1,0,1,,0,141,141,89,1,
,,,,,,,,,,,,,FF,,,,,,,,1.6159,,,,,,,,,,,,,,,,,,,,,,61020974d844343a3ff517d7,61036e9cc3d9ba9972f153eb,2021-07-29_23h15.29.683,Simcolourproject_2stim_asymm_v5,2020.2.10,MacIntel,60,61025ae37ef11b136ea224fe,,,,,,,,,1490,44.16015625,70.96484375,1,0,1,response1disk,,7,13.48828125,-0.34375,1,0,1,rectangle,13.48828125,-0.34375,1,0,1,,,,,,,13.48828125,-0.34375,1,0,1,,0,142,142,35,1,
,,,,,,,,,,,,,FF,,,,,,,,2.5664,,,,,,,,,,,,,,,,,,,,,,61020974d844343a3ff517d7,61036e9cc3d9ba9972f153eb,2021-07-29_23h15.29.683,Simcolourproject_2stim_asymm_v5,2020.2.10,MacIntel,60,61025ae37ef11b136ea224fe,,,,,,,,,814,50.2265625,-91.67578125,1,0,1,response3disk,,4,23.50390625,5.59765625,1,0,1,rectangle,23.50390625,5.59765625,1,0,1,,,,,,,23.50390625,5.59765625,1,0,1,,0,143,143,7,1,
,,,,,,,,,,,,,FF,,,,,,,,1.0663,,,,,,,,,,,,,,,,,,,,,,61020974d844343a3ff517d7,61036e9cc3d9ba9972f153eb,2021-07-29_23h15.29.683,Simcolourproject_2stim_asymm_v5,2020.2.10,MacIntel,60,61025ae37ef11b136ea224fe,,,,,,,,,3639,53.421875,69.078125,1,0,1,response1disk,,7,8.46484375,-1.296875,1,0,1,rectangle,8.46484375,-1.296875,1,0,1,,,,,,,8.46484375,-1.296875,1,0,1,,0,144,144,42,1,
,,,,,,,,,,,,,FF,,,,,,,,2.5678,,,,,,,,,,,,,,,,,,,,,,61020974d844343a3ff517d7,61036e9cc3d9ba9972f153eb,2021-07-29_23h15.29.683,Simcolourproject_2stim_asymm_v5,2020.2.10,MacIntel,60,61025ae37ef11b136ea224fe,,,,,,,,,997,41.484375,-83.55859375,1,0,1,response3disk,,4,26.80859375,-8.7734375,1,0,1,rectangle,59.96484375,-80.03515625,1,0,1,response3disk_3,TRUE,4,4,"[106,10,231,278,50,126,146,32,216,27,1,286,61,104,234,98,100,82,50,91]",1.9331,12.19140625,1.5,1,0,1,rectangle,0,145,145,75,1,
,,,,,,,,,,,,,FF,,,,,,,,2.6171,,,,,,,,,,,,,,,,,,,,,,61020974d844343a3ff517d7,61036e9cc3d9ba9972f153eb,2021-07-29_23h15.29.683,Simcolourproject_2stim_asymm_v5,2020.2.10,MacIntel,60,61025ae37ef11b136ea224fe,,,,,,,,,4230,-39.65234375,-81.453125,1,0,1,response5disk,,3,2.6796875,-3.125,1,0,1,rectangle,2.6796875,-3.125,1,0,1,,,,,,,2.6796875,-3.125,1,0,1,,0,146,146,40,1,
,,,,,,,,,,,,,FF,,,,,,,,3.1183,,,,,,,,,,,,,,,,,,,,,,61020974d844343a3ff517d7,61036e9cc3d9ba9972f153eb,2021-07-29_23h15.29.683,Simcolourproject_2stim_asymm_v5,2020.2.10,MacIntel,60,61025ae37ef11b136ea224fe,,,,,,,,,561,-77.5625,-47.7265625,1,0,1,response5disk,,2,-20.73828125,-0.48046875,1,0,1,rectangle,-20.73828125,-0.48046875,1,0,1,,,,,,,-20.73828125,-0.48046875,1,0,1,,0,147,147,31,1,
,,,,,,,,,,,,,FF,,,,,,,,2.1992,,,,,,,,,,,,,,,,,,,,,,61020974d844343a3ff517d7,61036e9cc3d9ba9972f153eb,2021-07-29_23h15.29.683,Simcolourproject_2stim_asymm_v5,2020.2.10,MacIntel,60,61025ae37ef11b136ea224fe,,,,,,,,,3857,-78.1640625,-49.1796875,1,0,1,response5disk,,2,-22.09765625,-6.3984375,1,0,1,rectangle,-22.09765625,-6.3984375,1,0,1,,,,,,,-22.09765625,-6.3984375,1,0,1,,0,148,148,133,1,
,,,,,,,,,,,,,FF,,,,,,,,1.4848,,,,,,,,,,,,,,,,,,,,,,61020974d844343a3ff517d7,61036e9cc3d9ba9972f153eb,2021-07-29_23h15.29.683,Simcolourproject_2stim_asymm_v5,2020.2.10,MacIntel,60,61025ae37ef11b136ea224fe,,,,,,,,,1115,-72.76953125,-49.8515625,1,0,1,response5disk,,2,-13,3.09375,1,0,1,rectangle,-13,3.09375,1,0,1,,,,,,,-13,3.09375,1,0,1,,0,149,149,101,1,
,,,,,,,,,,,,,FF,,,,,,,,2.2011,,,,,,,,,,,,,,,,,,,,,,61020974d844343a3ff517d7,61036e9cc3d9ba9972f153eb,2021-07-29_23h15.29.683,Simcolourproject_2stim_asymm_v5,2020.2.10,MacIntel,60,61025ae37ef11b136ea224fe,,,,,,,,,3963,-41.59765625,-34.09765625,1,0,1,response5disk,,2,-7.91015625,3.57421875,1,0,1,rectangle,-7.91015625,3.57421875,1,0,1,,,,,,,-7.91015625,3.57421875,1,0,1,,0,150,150,6,1,
,,,,,,,,,,,,,FF,,,,,,,,1.3493,,,,,,,,,,,,,,,,,,,,,,61020974d844343a3ff517d7,61036e9cc3d9ba9972f153eb,2021-07-29_23h15.29.683,Simcolourproject_2stim_asymm_v5,2020.2.10,MacIntel,60,61025ae37ef11b136ea224fe,,,,,,,,,2362,-58.26171875,38.4140625,1,0,1,response7disk,,1,1.76953125,11.37109375,1,0,1,rectangle,1.76953125,11.37109375,1,0,1,,,,,,,1.76953125,11.37109375,1,0,1,,0,151,151,0,1,
,,,,,,,,,,,,,FF,,,,,,,,1.4015,,,,,,,,,,,,,,,,,,,,,,61020974d844343a3ff517d7,61036e9cc3d9ba9972f153eb,2021-07-29_23h15.29.683,Simcolourproject_2stim_asymm_v5,2020.2.10,MacIntel,60,61025ae37ef11b136ea224fe,,,,,,,,,3221,53.75,38.2421875,1,0,1,response1disk,,6,19.98046875,-1.82421875,1,0,1,rectangle,19.98046875,-1.82421875,1,0,1,,,,,,,19.98046875,-1.82421875,1,0,1,,0,152,152,120,1,
,,,,,,,,,,,,,FF,,,,,,,,1.649,,,,,,,,,,,,,,,,,,,,,,61020974d844343a3ff517d7,61036e9cc3d9ba9972f153eb,2021-07-29_23h15.29.683,Simcolourproject_2stim_asymm_v5,2020.2.10,MacIntel,60,61025ae37ef11b136ea224fe,,,,,,,,,2976,-46.671875,-31.37109375,1,0,1,response5disk,,2,-19.5546875,5.76953125,1,0,1,rectangle,-19.5546875,5.76953125,1,0,1,,,,,,,-19.5546875,5.76953125,1,0,1,,0,153,153,24,1,
,,,,,,,,,,,,,FF,,,,,,,,1.1513,,,,,,,,,,,,,,,,,,,,,,61020974d844343a3ff517d7,61036e9cc3d9ba9972f153eb,2021-07-29_23h15.29.683,Simcolourproject_2stim_asymm_v5,2020.2.10,MacIntel,60,61025ae37ef11b136ea224fe,,,,,,,,,2272,31.09375,61.73046875,1,0,1,response1disk,,7,6.57421875,7.42578125,1,0,1,rectangle,6.57421875,7.42578125,1,0,1,,,,,,,6.57421875,7.42578125,1,0,1,,0,154,154,18,1,
,,,,,,,,,,,,,FF,,,,,,,,1.3173,,,,,,,,,,,,,,,,,,,,,,61020974d844343a3ff517d7,61036e9cc3d9ba9972f153eb,2021-07-29_23h15.29.683,Simcolourproject_2stim_asymm_v5,2020.2.10,MacIntel,60,61025ae37ef11b136ea224fe,,,,,,,,,3178,29.2421875,61.63671875,1,0,1,response1disk,,7,16.9375,8.57421875,1,0,1,rectangle,16.9375,8.57421875,1,0,1,,,,,,,16.9375,8.57421875,1,0,1,,0,155,155,79,1,
,,,,,,,,,,,,,FF,,,,,,,,1.066,,,,,,,,,,,,,,,,,,,,,,61020974d844343a3ff517d7,61036e9cc3d9ba9972f153eb,2021-07-29_23h15.29.683,Simcolourproject_2stim_asymm_v5,2020.2.10,MacIntel,60,61025ae37ef11b136ea224fe,,,,,,,,,1679,-68.20703125,31.92578125,1,0,1,response7disk,,1,-7.609375,-9.34375,1,0,1,rectangle,-7.609375,-9.34375,1,0,1,,,,,,,-7.609375,-9.34375,1,0,1,,0,156,156,105,1,
,,,,,,,,,,,,,FF,,,,,,,,0.9341,,,,,,,,,,,,,,,,,,,,,,61020974d844343a3ff517d7,61036e9cc3d9ba9972f153eb,2021-07-29_23h15.29.683,Simcolourproject_2stim_asymm_v5,2020.2.10,MacIntel,60,61025ae37ef11b136ea224fe,,,,,,,,,3072,31.08984375,67.50390625,1,0,1,response1disk,,7,10.55859375,11.12890625,1,0,1,rectangle,10.55859375,11.12890625,1,0,1,,,,,,,10.55859375,11.12890625,1,0,1,,0,157,157,49,1,
,,,,,,,,,,,,,FF,,,,,,,,1.001,,,,,,,,,,,,,,,,,,,,,,61020974d844343a3ff517d7,61036e9cc3d9ba9972f153eb,2021-07-29_23h15.29.683,Simcolourproject_2stim_asymm_v5,2020.2.10,MacIntel,60,61025ae37ef11b136ea224fe,,,,,,,,,2160,-34.62109375,60.1796875,1,0,1,response7disk,,0,-3.1640625,7.73828125,1,0,1,rectangle,-3.1640625,7.73828125,1,0,1,,,,,,,-3.1640625,7.73828125,1,0,1,,0,158,158,143,1,
,,,,,,,,,,,,,FF,,,,,,,,0.8844,,,,,,,,,,,,,,,,,,,,,,61020974d844343a3ff517d7,61036e9cc3d9ba9972f153eb,2021-07-29_23h15.29.683,Simcolourproject_2stim_asymm_v5,2020.2.10,MacIntel,60,61025ae37ef11b136ea224fe,,,,,,,,,4045,26.65234375,57.73828125,1,0,1,response1disk,,7,6.328125,6.21875,1,0,1,rectangle,6.328125,6.21875,1,0,1,,,,,,,6.328125,6.21875,1,0,1,,0,159,159,102,1,
,,,,,,,,,,,,,FF,,,,,,,,1.2653,,,,,,,,,,,,,,,,,,,,,,61020974d844343a3ff517d7,61036e9cc3d9ba9972f153eb,2021-07-29_23h15.29.683,Simcolourproject_2stim_asymm_v5,2020.2.10,MacIntel,60,61025ae37ef11b136ea224fe,,,,,,,,,3996,-58.7109375,31.734375,1,0,1,response7disk,,1,-7.6171875,4.1640625,1,0,1,rectangle,-7.6171875,4.1640625,1,0,1,,,,,,,-7.6171875,4.1640625,1,0,1,,1,0,160,20,1,
,,,,,,,,,,,,,FF,,,,,,,,0.9499,,,,,,,,,,,,,,,,,,,,,,61020974d844343a3ff517d7,61036e9cc3d9ba9972f153eb,2021-07-29_23h15.29.683,Simcolourproject_2stim_asymm_v5,2020.2.10,MacIntel,60,61025ae37ef11b136ea224fe,,,,,,,,,3472,-56.01953125,29.56640625,1,0,1,response7disk,,1,-10.39453125,-8.7265625,1,0,1,rectangle,-10.39453125,-8.7265625,1,0,1,,,,,,,-10.39453125,-8.7265625,1,0,1,,1,1,161,37,1,
,,,,,,,,,,,,,FF,,,,,,,,3.4175,,,,,,,,,,,,,,,,,,,,,,61020974d844343a3ff517d7,61036e9cc3d9ba9972f153eb,2021-07-29_23h15.29.683,Simcolourproject_2stim_asymm_v5,2020.2.10,MacIntel,60,61025ae37ef11b136ea224fe,,,,,,,,,3904,-29.35546875,-66.69921875,1,0,1,response5disk,,3,2.92578125,-5.58203125,1,0,1,rectangle,2.92578125,-5.58203125,1,0,1,,,,,,,2.92578125,-5.58203125,1,0,1,,1,2,162,77,1,
,,,,,,,,,,,,,FF,,,,,,,,1.1652,,,,,,,,,,,,,,,,,,,,,,61020974d844343a3ff517d7,61036e9cc3d9ba9972f153eb,2021-07-29_23h15.29.683,Simcolourproject_2stim_asymm_v5,2020.2.10,MacIntel,60,61025ae37ef11b136ea224fe,,,,,,,,,3428,-62.76171875,31.265625,1,0,1,response7disk,,1,-19.3828125,4.69140625,1,0,1,rectangle,-19.3828125,4.69140625,1,0,1,,,,,,,-19.3828125,4.69140625,1,0,1,,1,3,163,35,1,
,,,,,,,,,,,,,FF,,,,,,,,4.4826,,,,,,,,,,,,,,,,,,,,,,61020974d844343a3ff517d7,61036e9cc3d9ba9972f153eb,2021-07-29_23h15.29.683,Simcolourproject_2stim_asymm_v5,2020.2.10,MacIntel,60,61025ae37ef11b136ea224fe,,,,,,,,,3173,74.6953125,-50.765625,1,0,1,response3disk,,5,-3.9140625,-1.00390625,1,0,1,rectangle,-3.9140625,-1.00390625,1,0,1,,,,,,,-3.9140625,-1.00390625,1,0,1,,1,4,164,0,1,
,,,,,,,,,,,,,FF,,,,,,,,4.65,,,,,,,,,,,,,,,,,,,,,,61020974d844343a3ff517d7,61036e9cc3d9ba9972f153eb,2021-07-29_23h15.29.683,Simcolourproject_2stim_asymm_v5,2020.2.10,MacIntel,60,61025ae37ef11b136ea224fe,,,,,,,,,428,45.00390625,52.48046875,1,0,1,response1disk,,7,20.57421875,-0.10546875,1,0,1,rectangle,20.57421875,-0.10546875,1,0,1,,,,,,,20.57421875,-0.10546875,1,0,1,,1,5,165,18,1,
,,,,,,,,,,,,,FF,,,,,,,,0.951,,,,,,,,,,,,,,,,,,,,,,61020974d844343a3ff517d7,61036e9cc3d9ba9972f153eb,2021-07-29_23h15.29.683,Simcolourproject_2stim_asymm_v5,2020.2.10,MacIntel,60,61025ae37ef11b136ea224fe,,,,,,,,,189,-56.15625,30.69921875,1,0,1,response7disk,,1,-9.83203125,-11.49609375,1,0,1,rectangle,-9.83203125,-11.49609375,1,0,1,,,,,,,-9.83203125,-11.49609375,1,0,1,,1,6,166,47,1,
,,,,,,,,,,,,,FF,,,,,,,,2.3154,,,,,,,,,,,,,,,,,,,,,,61020974d844343a3ff517d7,61036e9cc3d9ba9972f153eb,2021-07-29_23h15.29.683,Simcolourproject_2stim_asymm_v5,2020.2.10,MacIntel,60,61025ae37ef11b136ea224fe,,,,,,,,,451,56.02734375,24.76171875,1,0,1,response1disk,,6,12.63671875,-4.69921875,1,0,1,rectangle,12.63671875,-4.69921875,1,0,1,,,,,,,12.63671875,-4.69921875,1,0,1,,1,7,167,156,1,
,,,,,,,,,,,,,FF,,,,,,,,0.8671,,,,,,,,,,,,,,,,,,,,,,61020974d844343a3ff517d7,61036e9cc3d9ba9972f153eb,2021-07-29_23h15.29.683,Simcolourproject_2stim_asymm_v5,2020.2.10,MacIntel,60,61025ae37ef11b136ea224fe,,,,,,,,,3464,-59.41796875,37.76171875,1,0,1,response7disk,,1,-20.36328125,6.08984375,1,0,1,rectangle,-20.36328125,6.08984375,1,0,1,,,,,,,-20.36328125,6.08984375,1,0,1,,1,8,168,121,1,
,,,,,,,,,,,,,FF,,,,,,,,1.0349,,,,,,,,,,,,,,,,,,,,,,61020974d844343a3ff517d7,61036e9cc3d9ba9972f153eb,2021-07-29_23h15.29.683,Simcolourproject_2stim_asymm_v5,2020.2.10,MacIntel,60,61025ae37ef11b136ea224fe,,,,,,,,,4085,-62.2578125,38.46484375,1,0,1,response7disk,,1,-8.5234375,0,1,0,1,rectangle,-8.5234375,0,1,0,1,,,,,,,-8.5234375,0,1,0,1,,1,9,169,143,1,
,,,,,,,,,,,,,FF,,,,,,,,1.7333,,,,,,,,,,,,,,,,,,,,,,61020974d844343a3ff517d7,61036e9cc3d9ba9972f153eb,2021-07-29_23h15.29.683,Simcolourproject_2stim_asymm_v5,2020.2.10,MacIntel,60,61025ae37ef11b136ea224fe,,,,,,,,,1027,-62.875,-45.3046875,1,0,1,response5disk,,2,-5.43359375,-6.890625,1,0,1,rectangle,-5.43359375,-6.890625,1,0,1,,,,,,,-5.43359375,-6.890625,1,0,1,,1,10,170,116,1,
,,,,,,,,,,,,,FF,,,,,,,,1.5511,,,,,,,,,,,,,,,,,,,,,,61020974d844343a3ff517d7,61036e9cc3d9ba9972f153eb,2021-07-29_23h15.29.683,Simcolourproject_2stim_asymm_v5,2020.2.10,MacIntel,60,61025ae37ef11b136ea224fe,,,,,,,,,926,57.29296875,74.53515625,1,0,1,response1disk,,7,17.70703125,3.9765625,1,0,1,rectangle,17.70703125,3.9765625,1,0,1,,,,,,,17.70703125,3.9765625,1,0,1,,1,11,171,133,1,
,,,,,,,,,,,,,FF,,,,,,,,0.9846,,,,,,,,,,,,,,,,,,,,,,61020974d844343a3ff517d7,61036e9cc3d9ba9972f153eb,2021-07-29_23h15.29.683,Simcolourproject_2stim_asymm_v5,2020.2.10,MacIntel,60,61025ae37ef11b136ea224fe,,,,,,,,,976,-52.58984375,28.6953125,1,0,1,response7disk,,1,-2.1171875,-2.5,1,0,1,rectangle,-2.1171875,-2.5,1,0,1,,,,,,,-2.1171875,-2.5,1,0,1,,1,12,172,127,1,
,,,,,,,,,,,,,FF,,,,,,,,0.8992,,,,,,,,,,,,,,,,,,,,,,61020974d844343a3ff517d7,61036e9cc3d9ba9972f153eb,2021-07-29_23h15.29.683,Simcolourproject_2stim_asymm_v5,2020.2.10,MacIntel,60,61025ae37ef11b136ea224fe,,,,,,,,,2616,45.55078125,68.9296875,1,0,1,response1disk,,7,10.33203125,8.62890625,1,0,1,rectangle,10.33203125,8.62890625,1,0,1,,,,,,,10.33203125,8.62890625,1,0,1,,1,13,173,67,1,
,,,,,,,,,,,,,FF,,,,,,,,2.103,,,,,,,,,,,,,,,,,,,,,,61020974d844343a3ff517d7,61036e9cc3d9ba9972f153eb,2021-07-29_23h15.29.683,Simcolourproject_2stim_asymm_v5,2020.2.10,MacIntel,60,61025ae37ef11b136ea224fe,,,,,,,,,2544,-59.80078125,22.82421875,1,0,1,response7disk,,1,-6.078125,-1.84375,1,0,1,rectangle,-6.078125,-1.84375,1,0,1,,,,,,,-6.078125,-1.84375,1,0,1,,1,14,174,48,1,
,,,,,,,,,,,,,FF,,,,,,,,1.5497,,,,,,,,,,,,,,,,,,,,,,61020974d844343a3ff517d7,61036e9cc3d9ba9972f153eb,2021-07-29_23h15.29.683,Simcolourproject_2stim_asymm_v5,2020.2.10,MacIntel,60,61025ae37ef11b136ea224fe,,,,,,,,,2447,48.8828125,69.16796875,1,0,1,response1disk,,7,6.75,2.84765625,1,0,1,rectangle,6.75,2.84765625,1,0,1,,,,,,,6.75,2.84765625,1,0,1,,1,15,175,141,1,
,,,,,,,,,,,,,FF,,,,,,,,0.7672,,,,,,,,,,,,,,,,,,,,,,61020974d844343a3ff517d7,61036e9cc3d9ba9972f153eb,2021-07-29_23h15.29.683,Simcolourproject_2stim_asymm_v5,2020.2.10,MacIntel,60,61025ae37ef11b136ea224fe,,,,,,,,,3090,-61.44140625,23.96875,1,0,1,response7disk,,1,-6.90234375,-0.08203125,1,0,1,rectangle,-6.90234375,-0.08203125,1,0,1,,,,,,,-6.90234375,-0.08203125,1,0,1,,1,16,176,36,1,
,,,,,,,,,,,,,FF,,,,,,,,0.9997,,,,,,,,,,,,,,,,,,,,,,61020974d844343a3ff517d7,61036e9cc3d9ba9972f153eb,2021-07-29_23h15.29.683,Simcolourproject_2stim_asymm_v5,2020.2.10,MacIntel,60,61025ae37ef11b136ea224fe,,,,,,,,,502,45.4765625,67.9375,1,0,1,response1disk,,7,20.41796875,-4.453125,1,0,1,rectangle,20.41796875,-4.453125,1,0,1,,,,,,,20.41796875,-4.453125,1,0,1,,1,17,177,34,1,
,,,,,,,,,,,,,FF,,,,,,,,1.2344,,,,,,,,,,,,,,,,,,,,,,61020974d844343a3ff517d7,61036e9cc3d9ba9972f153eb,2021-07-29_23h15.29.683,Simcolourproject_2stim_asymm_v5,2020.2.10,MacIntel,60,61025ae37ef11b136ea224fe,,,,,,,,,3277,50.97265625,91.1171875,1,0,1,response1disk,,7,14.02734375,-3.62109375,1,0,1,rectangle,14.02734375,-3.62109375,1,0,1,,,,,,,14.02734375,-3.62109375,1,0,1,,1,18,178,152,1,
,,,,,,,,,,,,,FF,,,,,,,,0.7496,,,,,,,,,,,,,,,,,,,,,,61020974d844343a3ff517d7,61036e9cc3d9ba9972f153eb,2021-07-29_23h15.29.683,Simcolourproject_2stim_asymm_v5,2020.2.10,MacIntel,60,61025ae37ef11b136ea224fe,,,,,,,,,4152,38.78515625,59.51953125,1,0,1,response1disk,,7,17.66015625,6.19921875,1,0,1,rectangle,17.66015625,6.19921875,1,0,1,,,,,,,17.66015625,6.19921875,1,0,1,,1,19,179,42,1,
,,,,,,,,,,,,,FF,,,,,,,,0.7003,,,,,,,,,,,,,,,,,,,,,,61020974d844343a3ff517d7,61036e9cc3d9ba9972f153eb,2021-07-29_23h15.29.683,Simcolourproject_2stim_asymm_v5,2020.2.10,MacIntel,60,61025ae37ef11b136ea224fe,,,,,,,,,4292,44.8515625,60.4453125,1,0,1,response1disk,,7,21.6484375,5.86328125,1,0,1,rectangle,21.6484375,5.86328125,1,0,1,,,,,,,21.6484375,5.86328125,1,0,1,,1,20,180,58,1,
,,,,,,,,,,,,,FF,,,,,,,,0.9013,,,,,,,,,,,,,,,,,,,,,,61020974d844343a3ff517d7,61036e9cc3d9ba9972f153eb,2021-07-29_23h15.29.683,Simcolourproject_2stim_asymm_v5,2020.2.10,MacIntel,60,61025ae37ef11b136ea224fe,,,,,,,,,3814,-54.80078125,35.625,1,0,1,response7disk,,1,-12.71484375,13.15234375,1,0,1,rectangle,-12.71484375,13.15234375,1,0,1,,,,,,,-12.71484375,13.15234375,1,0,1,,1,21,181,12,1,
,,,,,,,,,,,,,FF,,,,,,,,3.1852,,,,,,,,,,,,,,,,,,,,,,61020974d844343a3ff517d7,61036e9cc3d9ba9972f153eb,2021-07-29_23h15.29.683,Simcolourproject_2stim_asymm_v5,2020.2.10,MacIntel,60,61025ae37ef11b136ea224fe,,,,,,,,,949,-79.78515625,-34.43359375,1,0,1,response5disk,,2,-28.5078125,-5.5546875,1,0,1,rectangle,-28.5078125,-5.5546875,1,0,1,,,,,,,-28.5078125,-5.5546875,1,0,1,,1,22,182,32,1,
,,,,,,,,,,,,,FF,,,,,,,,1.0514,,,,,,,,,,,,,,,,,,,,,,61020974d844343a3ff517d7,61036e9cc3d9ba9972f153eb,2021-07-29_23h15.29.683,Simcolourproject_2stim_asymm_v5,2020.2.10,MacIntel,60,61025ae37ef11b136ea224fe,,,,,,,,,1876,47.921875,79.9140625,1,0,1,response1disk,,7,17.93359375,2.9765625,1,0,1,rectangle,17.93359375,2.9765625,1,0,1,,,,,,,17.93359375,2.9765625,1,0,1,,1,23,183,53,1,
,,,,,,,,,,,,,FF,,,,,,,,0.8677,,,,,,,,,,,,,,,,,,,,,,61020974d844343a3ff517d7,61036e9cc3d9ba9972f153eb,2021-07-29_23h15.29.683,Simcolourproject_2stim_asymm_v5,2020.2.10,MacIntel,60,61025ae37ef11b136ea224fe,,,,,,,,,216,44.13671875,56.5078125,1,0,1,response1disk,,7,17.17578125,0.65234375,1,0,1,rectangle,17.17578125,0.65234375,1,0,1,,,,,,,17.17578125,0.65234375,1,0,1,,1,24,184,131,1,
,,,,,,,,,,,,,FF,,,,,,,,1.0162,,,,,,,,,,,,,,,,,,,,,,61020974d844343a3ff517d7,61036e9cc3d9ba9972f153eb,2021-07-29_23h15.29.683,Simcolourproject_2stim_asymm_v5,2020.2.10,MacIntel,60,61025ae37ef11b136ea224fe,,,,,,,,,370,-65.828125,36.63671875,1,0,1,response7disk,,1,-7.9296875,-2.6640625,1,0,1,rectangle,-7.9296875,-2.6640625,1,0,1,,,,,,,-7.9296875,-2.6640625,1,0,1,,1,25,185,33,1,
,,,,,,,,,,,,,FF,,,,,,,,0.9007,,,,,,,,,,,,,,,,,,,,,,61020974d844343a3ff517d7,61036e9cc3d9ba9972f153eb,2021-07-29_23h15.29.683,Simcolourproject_2stim_asymm_v5,2020.2.10,MacIntel,60,61025ae37ef11b136ea224fe,,,,,,,,,1934,20.140625,53.6328125,1,0,1,response1disk,,7,6.203125,2.34765625,1,0,1,rectangle,6.203125,2.34765625,1,0,1,,,,,,,6.203125,2.34765625,1,0,1,,1,26,186,8,1,
,,,,,,,,,,,,,FF,,,,,,,,0.7489,,,,,,,,,,,,,,,,,,,,,,61020974d844343a3ff517d7,61036e9cc3d9ba9972f153eb,2021-07-29_23h15.29.683,Simcolourproject_2stim_asymm_v5,2020.2.10,MacIntel,60,61025ae37ef11b136ea224fe,,,,,,,,,3902,-72.1875,26.73046875,1,0,1,response7disk,,1,-6.3359375,1.39453125,1,0,1,rectangle,-6.3359375,1.39453125,1,0,1,,,,,,,-6.3359375,1.39453125,1,0,1,,1,27,187,24,1,
,,,,,,,,,,,,,FF,,,,,,,,0.8167,,,,,,,,,,,,,,,,,,,,,,61020974d844343a3ff517d7,61036e9cc3d9ba9972f153eb,2021-07-29_23h15.29.683,Simcolourproject_2stim_asymm_v5,2020.2.10,MacIntel,60,61025ae37ef11b136ea224fe,,,,,,,,,2732,-62.29296875,21.609375,1,0,1,response7disk,,1,-25.94921875,1.26171875,1,0,1,rectangle,-25.94921875,1.26171875,1,0,1,,,,,,,-25.94921875,1.26171875,1,0,1,,1,28,188,82,1,
,,,,,,,,,,,,,FF,,,,,,,,1.3499,,,,,,,,,,,,,,,,,,,,,,61020974d844343a3ff517d7,61036e9cc3d9ba9972f153eb,2021-07-29_23h15.29.683,Simcolourproject_2stim_asymm_v5,2020.2.10,MacIntel,60,61025ae37ef11b136ea224fe,,,,,,,,,2550,47.5859375,-72.12890625,1,0,1,response3disk,,4,25.86328125,-8.91015625,1,0,1,rectangle,25.86328125,-8.91015625,1,0,1,,,,,,,25.86328125,-8.91015625,1,0,1,,1,29,189,85,1,
,,,,,,,,,,,,,FF,,,,,,,,0.9839,,,,,,,,,,,,,,,,,,,,,,61020974d844343a3ff517d7,61036e9cc3d9ba9972f153eb,2021-07-29_23h15.29.683,Simcolourproject_2stim_asymm_v5,2020.2.10,MacIntel,60,61025ae37ef11b136ea224fe,,,,,,,,,1214,-83.3046875,31.12890625,1,0,1,response7disk,,1,2.01953125,-17.26171875,1,0,1,rectangle,2.01953125,-17.26171875,1,0,1,,,,,,,2.01953125,-17.26171875,1,0,1,,1,30,190,135,1,
,,,,,,,,,,,,,FF,,,,,,,,3.9192,,,,,,,,,,,,,,,,,,,,,,61020974d844343a3ff517d7,61036e9cc3d9ba9972f153eb,2021-07-29_23h15.29.683,Simcolourproject_2stim_asymm_v5,2020.2.10,MacIntel,60,61025ae37ef11b136ea224fe,,,,,,,,,999,26.01953125,-72.65625,1,0,1,response3disk,,4,-3.8359375,5.625,1,0,1,rectangle,-3.8359375,5.625,1,0,1,,,,,,,-3.8359375,5.625,1,0,1,,1,31,191,4,1,
,,,,,,,,,,,,,FF,,,,,,,,0.9825,,,,,,,,,,,,,,,,,,,,,,61020974d844343a3ff517d7,61036e9cc3d9ba9972f153eb,2021-07-29_23h15.29.683,Simcolourproject_2stim_asymm_v5,2020.2.10,MacIntel,60,61025ae37ef11b136ea224fe,,,,,,,,,2199,20.6171875,63.5,1,0,1,response1disk,,7,5.109375,6.44140625,1,0,1,rectangle,5.109375,6.44140625,1,0,1,,,,,,,5.109375,6.44140625,1,0,1,,1,32,192,62,1,
,,,,,,,,,,,,,FF,,,,,,,,0.7993,,,,,,,,,,,,,,,,,,,,,,61020974d844343a3ff517d7,61036e9cc3d9ba9972f153eb,2021-07-29_23h15.29.683,Simcolourproject_2stim_asymm_v5,2020.2.10,MacIntel,60,61025ae37ef11b136ea224fe,,,,,,,,,4269,-65.13671875,33.4609375,1,0,1,response7disk,,1,-4.0546875,-0.60546875,1,0,1,rectangle,-4.0546875,-0.60546875,1,0,1,,,,,,,-4.0546875,-0.60546875,1,0,1,,1,33,193,100,1,
,,,,,,,,,,,,,FF,,,,,,,,1.6159,,,,,,,,,,,,,,,,,,,,,,61020974d844343a3ff517d7,61036e9cc3d9ba9972f153eb,2021-07-29_23h15.29.683,Simcolourproject_2stim_asymm_v5,2020.2.10,MacIntel,60,61025ae37ef11b136ea224fe,,,,,,,,,448,-72.7578125,18.2578125,1,0,1,response7disk,,1,-23.5703125,-6.6328125,1,0,1,rectangle,-23.5703125,-6.6328125,1,0,1,,,,,,,-23.5703125,-6.6328125,1,0,1,,1,34,194,73,1,
,,,,,,,,,,,,,FF,,,,,,,,0.7845,,,,,,,,,,,,,,,,,,,,,,61020974d844343a3ff517d7,61036e9cc3d9ba9972f153eb,2021-07-29_23h15.29.683,Simcolourproject_2stim_asymm_v5,2020.2.10,MacIntel,60,61025ae37ef11b136ea224fe,,,,,,,,,1830,-54.89453125,27.48828125,1,0,1,response7disk,,1,-5.17578125,-3.171875,1,0,1,rectangle,-5.17578125,-3.171875,1,0,1,,,,,,,-5.17578125,-3.171875,1,0,1,,1,35,195,96,1,
,,,,,,,,,,,,,FF,,,,,,,,0.7672,,,,,,,,,,,,,,,,,,,,,,61020974d844343a3ff517d7,61036e9cc3d9ba9972f153eb,2021-07-29_23h15.29.683,Simcolourproject_2stim_asymm_v5,2020.2.10,MacIntel,60,61025ae37ef11b136ea224fe,,,,,,,,,3473,-60.29296875,30.9609375,1,0,1,response7disk,,1,-1.7265625,-1.25,1,0,1,rectangle,-1.7265625,-1.25,1,0,1,,,,,,,-1.7265625,-1.25,1,0,1,,1,36,196,129,1,
,,,,,,,,,,,,,FF,,,,,,,,1.1493,,,,,,,,,,,,,,,,,,,,,,61020974d844343a3ff517d7,61036e9cc3d9ba9972f153eb,2021-07-29_23h15.29.683,Simcolourproject_2stim_asymm_v5,2020.2.10,MacIntel,60,61025ae37ef11b136ea224fe,,,,,,,,,3406,40.765625,55.05859375,1,0,1,response1disk,,7,24.4375,15.73046875,1,0,1,rectangle,24.4375,15.73046875,1,0,1,,,,,,,24.4375,15.73046875,1,0,1,,1,37,197,26,1,
,,,,,,,,,,,,,FF,,,,,,,,0.8167,,,,,,,,,,,,,,,,,,,,,,61020974d844343a3ff517d7,61036e9cc3d9ba9972f153eb,2021-07-29_23h15.29.683,Simcolourproject_2stim_asymm_v5,2020.2.10,MacIntel,60,61025ae37ef11b136ea224fe,,,,,,,,,507,26.66796875,35.578125,1,0,1,response1disk,,7,13.5390625,-0.38671875,1,0,1,rectangle,13.5390625,-0.38671875,1,0,1,,,,,,,13.5390625,-0.38671875,1,0,1,,1,38,198,44,1,
,,,,,,,,,,,,,FF,,,,,,,,2.6996,,,,,,,,,,,,,,,,,,,,,,61020974d844343a3ff517d7,61036e9cc3d9ba9972f153eb,2021-07-29_23h15.29.683,Simcolourproject_2stim_asymm_v5,2020.2.10,MacIntel,60,61025ae37ef11b136ea224fe,,,,,,,,,1077,-67.4921875,-52.4921875,1,0,1,response5disk,,2,3.6875,6.81640625,1,0,1,rectangle,3.6875,6.81640625,1,0,1,,,,,,,3.6875,6.81640625,1,0,1,,1,39,199,17,1,
,,,,,,,,,,,,,FF,,,,,,,,1.4821,,,,,,,,,,,,,,,,,,,,,,61020974d844343a3ff517d7,61036e9cc3d9ba9972f153eb,2021-07-29_23h15.29.683,Simcolourproject_2stim_asymm_v5,2020.2.10,MacIntel,60,61025ae37ef11b136ea224fe,,,,,,,,,2468,71.125,24.62890625,1,0,1,response1disk,,6,25.58984375,-5.82421875,1,0,1,rectangle,25.58984375,-5.82421875,1,0,1,,,,,,,25.58984375,-5.82421875,1,0,1,,1,40,200,6,1,
,,,,,,,,,,,,,FF,,,,,,,,1.7515,,,,,,,,,,,,,,,,,,,,,,61020974d844343a3ff517d7,61036e9cc3d9ba9972f153eb,2021-07-29_23h15.29.683,Simcolourproject_2stim_asymm_v5,2020.2.10,MacIntel,60,61025ae37ef11b136ea224fe,,,,,,,,,788,-64.171875,-55.25,1,0,1,response5disk,,2,-16.21875,-12.39453125,1,0,1,rectangle,-16.21875,-12.39453125,1,0,1,,,,,,,-16.21875,-12.39453125,1,0,1,,1,41,201,60,1,
,,,,,,,,,,,,,FF,,,,,,,,1.5007,,,,,,,,,,,,,,,,,,,,,,61020974d844343a3ff517d7,61036e9cc3d9ba9972f153eb,2021-07-29_23h15.29.683,Simcolourproject_2stim_asymm_v5,2020.2.10,MacIntel,60,61025ae37ef11b136ea224fe,,,,,,,,,3616,-29.6015625,-66.7734375,1,0,1,response5disk,,3,4.80859375,-2.9296875,1,0,1,rectangle,4.80859375,-2.9296875,1,0,1,,,,,,,4.80859375,-2.9296875,1,0,1,,1,42,202,122,1,
,,,,,,,,,,,,,FF,,,,,,,,0.9182,,,,,,,,,,,,,,,,,,,,,,61020974d844343a3ff517d7,61036e9cc3d9ba9972f153eb,2021-07-29_23h15.29.683,Simcolourproject_2stim_asymm_v5,2020.2.10,MacIntel,60,61025ae37ef11b136ea224fe,,,,,,,,,82,-53.38671875,25.3125,1,0,1,response7disk,,1,0.62890625,2.6875,1,0,1,rectangle,0.62890625,2.6875,1,0,1,,,,,,,0.62890625,2.6875,1,0,1,,1,43,203,1,1,
,,,,,,,,,,,,,FF,,,,,,,,1.3321,,,,,,,,,,,,,,,,,,,,,,61020974d844343a3ff517d7,61036e9cc3d9ba9972f153eb,2021-07-29_23h15.29.683,Simcolourproject_2stim_asymm_v5,2020.2.10,MacIntel,60,61025ae37ef11b136ea224fe,,,,,,,,,1388,-34.8828125,-70.05078125,1,0,1,response5disk,,3,-4.16796875,-12.52734375,1,0,1,rectangle,-4.16796875,-12.52734375,1,0,1,,,,,,,-4.16796875,-12.52734375,1,0,1,,1,44,204,113,1,
,,,,,,,,,,,,,FF,,,,,,,,2.0651,,,,,,,,,,,,,,,,,,,,,,61020974d844343a3ff517d7,61036e9cc3d9ba9972f153eb,2021-07-29_23h15.29.683,Simcolourproject_2stim_asymm_v5,2020.2.10,MacIntel,60,61025ae37ef11b136ea224fe,,,,,,,,,160,68.078125,34.5,1,0,1,response1disk,,6,16.55078125,0.0390625,1,0,1,rectangle,16.55078125,0.0390625,1,0,1,,,,,,,16.55078125,0.0390625,1,0,1,,1,45,205,86,1,
,,,,,,,,,,,,,FF,,,,,,,,0.95,,,,,,,,,,,,,,,,,,,,,,61020974d844343a3ff517d7,61036e9cc3d9ba9972f153eb,2021-07-29_23h15.29.683,Simcolourproject_2stim_asymm_v5,2020.2.10,MacIntel,60,61025ae37ef11b136ea224fe,,,,,,,,,2755,66.5078125,65.00390625,1,0,1,response1disk,,6,3.9375,-0.9140625,1,0,1,rectangle,3.9375,-0.9140625,1,0,1,,,,,,,3.9375,-0.9140625,1,0,1,,1,46,206,25,1,
,,,,,,,,,,,,,FF,,,,,,,,2.3818,,,,,,,,,,,,,,,,,,,,,,61020974d844343a3ff517d7,61036e9cc3d9ba9972f153eb,2021-07-29_23h15.29.683,Simcolourproject_2stim_asymm_v5,2020.2.10,MacIntel,60,61025ae37ef11b136ea224fe,,,,,,,,,1556,79.84375,48.3359375,1,0,1,response1disk,,6,18.01171875,1.61328125,1,0,1,rectangle,18.01171875,1.61328125,1,0,1,,,,,,,18.01171875,1.61328125,1,0,1,,1,47,207,136,1,
,,,,,,,,,,,,,FF,,,,,,,,0.9326,,,,,,,,,,,,,,,,,,,,,,61020974d844343a3ff517d7,61036e9cc3d9ba9972f153eb,2021-07-29_23h15.29.683,Simcolourproject_2stim_asymm_v5,2020.2.10,MacIntel,60,61025ae37ef11b136ea224fe,,,,,,,,,526,-72.40234375,30.2578125,1,0,1,response7disk,,1,-16.1796875,5.86328125,1,0,1,rectangle,-16.1796875,5.86328125,1,0,1,,,,,,,-16.1796875,5.86328125,1,0,1,,1,48,208,149,1,
,,,,,,,,,,,,,FF,,,,,,,,1.2501,,,,,,,,,,,,,,,,,,,,,,61020974d844343a3ff517d7,61036e9cc3d9ba9972f153eb,2021-07-29_23h15.29.683,Simcolourproject_2stim_asymm_v5,2020.2.10,MacIntel,60,61025ae37ef11b136ea224fe,,,,,,,,,323,27.23046875,70.1171875,1,0,1,response1disk,,7,8,-6.7265625,1,0,1,rectangle,8,-6.7265625,1,0,1,,,,,,,8,-6.7265625,1,0,1,,1,49,209,118,1,
,,,,,,,,,,,,,FF,,,,,,,,0.9835,,,,,,,,,,,,,,,,,,,,,,61020974d844343a3ff517d7,61036e9cc3d9ba9972f153eb,2021-07-29_23h15.29.683,Simcolourproject_2stim_asymm_v5,2020.2.10,MacIntel,60,61025ae37ef11b136ea224fe,,,,,,,,,4068,36.71875,79.6640625,1,0,1,response1disk,,7,1.8515625,7.16015625,1,0,1,rectangle,1.8515625,7.16015625,1,0,1,,,,,,,1.8515625,7.16015625,1,0,1,,1,50,210,126,1,
,,,,,,,,,,,,,FF,,,,,,,,1.0009,,,,,,,,,,,,,,,,,,,,,,61020974d844343a3ff517d7,61036e9cc3d9ba9972f153eb,2021-07-29_23h15.29.683,Simcolourproject_2stim_asymm_v5,2020.2.10,MacIntel,60,61025ae37ef11b136ea224fe,,,,,,,,,2091,30.734375,73.07421875,1,0,1,response1disk,,7,10.296875,16.1640625,1,0,1,rectangle,10.296875,16.1640625,1,0,1,,,,,,,10.296875,16.1640625,1,0,1,,1,51,211,10,1,
,,,,,,,,,,,,,FF,,,,,,,,2.0338,,,,,,,,,,,,,,,,,,,,,,61020974d844343a3ff517d7,61036e9cc3d9ba9972f153eb,2021-07-29_23h15.29.683,Simcolourproject_2stim_asymm_v5,2020.2.10,MacIntel,60,61025ae37ef11b136ea224fe,,,,,,,,,610,-93.34765625,-43.88671875,1,0,1,response5disk,,2,-31.35546875,0.08203125,1,0,1,rectangle,-31.35546875,0.08203125,1,0,1,,,,,,,-31.35546875,0.08203125,1,0,1,,1,52,212,9,1,
,,,,,,,,,,,,,FF,,,,,,,,1.918,,,,,,,,,,,,,,,,,,,,,,61020974d844343a3ff517d7,61036e9cc3d9ba9972f153eb,2021-07-29_23h15.29.683,Simcolourproject_2stim_asymm_v5,2020.2.10,MacIntel,60,61025ae37ef11b136ea224fe,,,,,,,,,2351,37.84765625,71.12109375,1,0,1,response1disk,,7,7.06640625,1.56640625,1,0,1,rectangle,7.06640625,1.56640625,1,0,1,,,,,,,7.06640625,1.56640625,1,0,1,,1,53,213,134,1,
,,,,,,,,,,,,,FF,,,,,,,,0.9338,,,,,,,,,,,,,,,,,,,,,,61020974d844343a3ff517d7,61036e9cc3d9ba9972f153eb,2021-07-29_23h15.29.683,Simcolourproject_2stim_asymm_v5,2020.2.10,MacIntel,60,61025ae37ef11b136ea224fe,,,,,,,,,3816,-59.0234375,32.875,1,0,1,response7disk,,1,8.19921875,0.47265625,1,0,1,rectangle,8.19921875,0.47265625,1,0,1,,,,,,,8.19921875,0.47265625,1,0,1,,1,54,214,119,1,
,,,,,,,,,,,,,FF,,,,,,,,1.6653,,,,,,,,,,,,,,,,,,,,,,61020974d844343a3ff517d7,61036e9cc3d9ba9972f153eb,2021-07-29_23h15.29.683,Simcolourproject_2stim_asymm_v5,2020.2.10,MacIntel,60,61025ae37ef11b136ea224fe,,,,,,,,,1634,38.49609375,62.69921875,1,0,1,response1disk,,7,3.85546875,4.87890625,1,0,1,rectangle,35.5546875,-60.984375,1,0,1,response3disk_3,TRUE,4,4,"[106,10,231,278,50,126,146,32,216,27,1,286,61,104,234,98,100,82,50,91]",2.1671,5.3828125,2.25,1,0,1,rectangle,1,55,215,146,1,
,,,,,,,,,,,,,FF,,,,,,,,1.3504,,,,,,,,,,,,,,,,,,,,,,61020974d844343a3ff517d7,61036e9cc3d9ba9972f153eb,2021-07-29_23h15.29.683,Simcolourproject_2stim_asymm_v5,2020.2.10,MacIntel,60,61025ae37ef11b136ea224fe,,,,,,,,,3356,55.921875,84.21484375,1,0,1,response1disk,,7,15.82421875,-2.328125,1,0,1,rectangle,15.82421875,-2.328125,1,0,1,,,,,,,15.82421875,-2.328125,1,0,1,,1,56,216,84,1,
,,,,,,,,,,,,,FF,,,,,,,,2.352,,,,,,,,,,,,,,,,,,,,,,61020974d844343a3ff517d7,61036e9cc3d9ba9972f153eb,2021-07-29_23h15.29.683,Simcolourproject_2stim_asymm_v5,2020.2.10,MacIntel,60,61025ae37ef11b136ea224fe,,,,,,,,,2958,37.2890625,57.41015625,1,0,1,response1disk,,7,11.26953125,0.17578125,1,0,1,rectangle,11.26953125,0.17578125,1,0,1,,,,,,,11.26953125,0.17578125,1,0,1,,1,57,217,87,1,
,,,,,,,,,,,,,FF,,,,,,,,1.1992,,,,,,,,,,,,,,,,,,,,,,61020974d844343a3ff517d7,61036e9cc3d9ba9972f153eb,2021-07-29_23h15.29.683,Simcolourproject_2stim_asymm_v5,2020.2.10,MacIntel,60,61025ae37ef11b136ea224fe,,,,,,,,,3563,38.234375,65.97265625,1,0,1,response1disk,,7,13.7265625,3.1953125,1,0,1,rectangle,13.7265625,3.1953125,1,0,1,,,,,,,13.7265625,3.1953125,1,0,1,,1,58,218,155,1,
,,,,,,,,,,,,,FF,,,,,,,,0.8825,,,,,,,,,,,,,,,,,,,,,,61020974d844343a3ff517d7,61036e9cc3d9ba9972f153eb,2021-07-29_23h15.29.683,Simcolourproject_2stim_asymm_v5,2020.2.10,MacIntel,60,61025ae37ef11b136ea224fe,,,,,,,,,1134,-85.01953125,39.93359375,1,0,1,response7disk,,1,-15.203125,-4.3984375,1,0,1,rectangle,-15.203125,-4.3984375,1,0,1,,,,,,,-15.203125,-4.3984375,1,0,1,,1,59,219,50,1,
,,,,,,,,,,,,,FF,,,,,,,,2.3987,,,,,,,,,,,,,,,,,,,,,,61020974d844343a3ff517d7,61036e9cc3d9ba9972f153eb,2021-07-29_23h15.29.683,Simcolourproject_2stim_asymm_v5,2020.2.10,MacIntel,60,61025ae37ef11b136ea224fe,,,,,,,,,2592,-28.90234375,-71.60546875,1,0,1,response5disk,,3,-11.01953125,-2.46875,1,0,1,rectangle,-11.01953125,-2.46875,1,0,1,,,,,,,-11.01953125,-2.46875,1,0,1,,1,60,220,99,1,
,,,,,,,,,,,,,FF,,,,,,,,4.5851,,,,,,,,,,,,,,,,,,,,,,61020974d844343a3ff517d7,61036e9cc3d9ba9972f153eb,2021-07-29_23h15.29.683,Simcolourproject_2stim_asymm_v5,2020.2.10,MacIntel,60,61025ae37ef11b136ea224fe,,,,,,,,,657,74.4375,-88.890625,1,0,1,response3disk,,4,4.66015625,0.5703125,1,0,1,rectangle,4.66015625,0.5703125,1,0,1,,,,,,,4.66015625,0.5703125,1,0,1,,1,61,221,139,1,
,,,,,,,,,,,,,FF,,,,,,,,2.5657,,,,,,,,,,,,,,,,,,,,,,61020974d844343a3ff517d7,61036e9cc3d9ba9972f153eb,2021-07-29_23h15.29.683,Simcolourproject_2stim_asymm_v5,2020.2.10,MacIntel,60,61025ae37ef11b136ea224fe,,,,,,,,,1166,52.5078125,-88.35546875,1,0,1,response3disk,,4,8.1640625,1.203125,1,0,1,rectangle,8.1640625,1.203125,1,0,1,,,,,,,8.1640625,1.203125,1,0,1,,1,62,222,157,1,
,,,,,,,,,,,,,FF,,,,,,,,1.0987,,,,,,,,,,,,,,,,,,,,,,61020974d844343a3ff517d7,61036e9cc3d9ba9972f153eb,2021-07-29_23h15.29.683,Simcolourproject_2stim_asymm_v5,2020.2.10,MacIntel,60,61025ae37ef11b136ea224fe,,,,,,,,,848,40.97265625,78.80859375,1,0,1,response1disk,,7,11.52734375,3.5078125,1,0,1,rectangle,11.52734375,3.5078125,1,0,1,,,,,,,11.52734375,3.5078125,1,0,1,,1,63,223,125,1,
,,,,,,,,,,,,,FF,,,,,,,,1.2686,,,,,,,,,,,,,,,,,,,,,,61020974d844343a3ff517d7,61036e9cc3d9ba9972f153eb,2021-07-29_23h15.29.683,Simcolourproject_2stim_asymm_v5,2020.2.10,MacIntel,60,61025ae37ef11b136ea224fe,,,,,,,,,3074,47.19921875,64.72265625,1,0,1,response1disk,,7,18.79296875,2.3203125,1,0,1,rectangle,18.79296875,2.3203125,1,0,1,,,,,,,18.79296875,2.3203125,1,0,1,,1,64,224,81,1,
,,,,,,,,,,,,,FF,,,,,,,,2.5331,,,,,,,,,,,,,,,,,,,,,,61020974d844343a3ff517d7,61036e9cc3d9ba9972f153eb,2021-07-29_23h15.29.683,Simcolourproject_2stim_asymm_v5,2020.2.10,MacIntel,60,61025ae37ef11b136ea224fe,,,,,,,,,1512,-69.4921875,-48.484375,1,0,1,response5disk,,2,-2.42578125,-2.73046875,1,0,1,rectangle,-2.42578125,-2.73046875,1,0,1,,,,,,,-2.42578125,-2.73046875,1,0,1,,1,65,225,7,1,
,,,,,,,,,,,,,FF,,,,,,,,0.916,,,,,,,,,,,,,,,,,,,,,,61020974d844343a3ff517d7,61036e9cc3d9ba9972f153eb,2021-07-29_23h15.29.683,Simcolourproject_2stim_asymm_v5,2020.2.10,MacIntel,60,61025ae37ef11b136ea224fe,,,,,,,,,2662,-36.46875,73.02734375,1,0,1,response7disk,,0,2.640625,8.015625,1,0,1,rectangle,2.640625,8.015625,1,0,1,,,,,,,2.640625,8.015625,1,0,1,,1,66,226,14,1,
,,,,,,,,,,,,,FF,,,,,,,,1.2169,,,,,,,,,,,,,,,,,,,,,,61020974d844343a3ff517d7,61036e9cc3d9ba9972f153eb,2021-07-29_23h15.29.683,Simcolourproject_2stim_asymm_v5,2020.2.10,MacIntel,60,61025ae37ef11b136ea224fe,,,,,,,,,3096,-34.6171875,66.0234375,1,0,1,response7disk,,0,-0.59765625,-2.49609375,1,0,1,rectangle,-0.59765625,-2.49609375,1,0,1,,,,,,,-0.59765625,-2.49609375,1,0,1,,1,67,227,117,1,
,,,,,,,,,,,,,FF,,,,,,,,0.8653,,,,,,,,,,,,,,,,,,,,,,61020974d844343a3ff517d7,61036e9cc3d9ba9972f153eb,2021-07-29_23h15.29.683,Simcolourproject_2stim_asymm_v5,2020.2.10,MacIntel,60,61025ae37ef11b136ea224fe,,,,,,,,,873,-67.8203125,33.71484375,1,0,1,response7disk,,1,-6.53515625,-13.53515625,1,0,1,rectangle,-6.53515625,-13.53515625,1,0,1,,,,,,,-6.53515625,-13.53515625,1,0,1,,1,68,228,63,1,
,,,,,,,,,,,,,FF,,,,,,,,1.1839,,,,,,,,,,,,,,,,,,,,,,61020974d844343a3ff517d7,61036e9cc3d9ba9972f153eb,2021-07-29_23h15.29.683,Simcolourproject_2stim_asymm_v5,2020.2.10,MacIntel,60,61025ae37ef11b136ea224fe,,,,,,,,,3067,-73.7578125,-42.8515625,1,0,1,response5disk,,2,-14.30859375,-2.37109375,1,0,1,rectangle,-14.30859375,-2.37109375,1,0,1,,,,,,,-14.30859375,-2.37109375,1,0,1,,1,69,229,159,1,
,,,,,,,,,,,,,FF,,,,,,,,0.9826,,,,,,,,,,,,,,,,,,,,,,61020974d844343a3ff517d7,61036e9cc3d9ba9972f153eb,2021-07-29_23h15.29.683,Simcolourproject_2stim_asymm_v5,2020.2.10,MacIntel,60,61025ae37ef11b136ea224fe,,,,,,,,,3322,78.40234375,38.3671875,1,0,1,response1disk,,6,11.96484375,-0.21484375,1,0,1,rectangle,28.7578125,72.39453125,1,0,1,response1disk_3,TRUE,7,7,"[106,10,231,278,50,126,146,32,216,27,1,286,61,104,234,98,100,82,50,91]",1.9168,10.7890625,-3.44921875,1,0,1,rectangle,1,70,230,15,1,
,,,,,,,,,,,,,FF,,,,,,,,0.8992,,,,,,,,,,,,,,,,,,,,,,61020974d844343a3ff517d7,61036e9cc3d9ba9972f153eb,2021-07-29_23h15.29.683,Simcolourproject_2stim_asymm_v5,2020.2.10,MacIntel,60,61025ae37ef11b136ea224fe,,,,,,,,,355,-33.78125,69.53125,1,0,1,response7disk,,0,-0.859375,-1.28125,1,0,1,rectangle,-0.859375,-1.28125,1,0,1,,,,,,,-0.859375,-1.28125,1,0,1,,1,71,231,90,1,
,,,,,,,,,,,,,FF,,,,,,,,1.1849,,,,,,,,,,,,,,,,,,,,,,61020974d844343a3ff517d7,61036e9cc3d9ba9972f153eb,2021-07-29_23h15.29.683,Simcolourproject_2stim_asymm_v5,2020.2.10,MacIntel,60,61025ae37ef11b136ea224fe,,,,,,,,,224,88.7890625,44.3984375,1,0,1,response1disk,,6,18.00390625,-3.55078125,1,0,1,rectangle,18.00390625,-3.55078125,1,0,1,,,,,,,18.00390625,-3.55078125,1,0,1,,1,72,232,83,1,
,,,,,,,,,,,,,FF,,,,,,,,1.0389,,,,,,,,,,,,,,,,,,,,,,61020974d844343a3ff517d7,61036e9cc3d9ba9972f153eb,2021-07-29_23h15.29.683,Simcolourproject_2stim_asymm_v5,2020.2.10,MacIntel,60,61025ae37ef11b136ea224fe,,,,,,,,,2671,-64.203125,37.53125,1,0,1,response7disk,,1,1.1171875,-8.95703125,1,0,1,rectangle,88.08203125,35.79296875,1,0,1,response1disk_3,TRUE,6,6,"[106,10,231,278,50,126,146,32,216,27,1,286,61,104,234,98,100,82,50,91]",1.8986,15.7265625,-7.3984375,1,0,1,rectangle,1,73,233,59,1,
,,,,,,,,,,,,,FF,,,,,,,,1.0172,,,,,,,,,,,,,,,,,,,,,,61020974d844343a3ff517d7,61036e9cc3d9ba9972f153eb,2021-07-29_23h15.29.683,Simcolourproject_2stim_asymm_v5,2020.2.10,MacIntel,60,61025ae37ef11b136ea224fe,,,,,,,,,4139,28.94921875,83.71875,1,0,1,response1disk,,7,5.28125,4.90625,1,0,1,rectangle,5.28125,4.90625,1,0,1,,,,,,,5.28125,4.90625,1,0,1,,1,74,234,88,1,
,,,,,,,,,,,,,FF,,,,,,,,2.6837,,,,,,,,,,,,,,,,,,,,,,61020974d844343a3ff517d7,61036e9cc3d9ba9972f153eb,2021-07-29_23h15.29.683,Simcolourproject_2stim_asymm_v5,2020.2.10,MacIntel,60,61025ae37ef11b136ea224fe,,,,,,,,,4198,48.6875,66.7265625,1,0,1,response1disk,,7,13.69140625,0.12109375,1,0,1,rectangle,13.69140625,0.12109375,1,0,1,,,,,,,13.69140625,0.12109375,1,0,1,,1,75,235,106,1,
,,,,,,,,,,,,,FF,,,,,,,,0.8829,,,,,,,,,,,,,,,,,,,,,,61020974d844343a3ff517d7,61036e9cc3d9ba9972f153eb,2021-07-29_23h15.29.683,Simcolourproject_2stim_asymm_v5,2020.2.10,MacIntel,60,61025ae37ef11b136ea224fe,,,,,,,,,2226,-24.828125,51.484375,1,0,1,response7disk,,0,0.35546875,12.74609375,1,0,1,rectangle,0.35546875,12.74609375,1,0,1,,,,,,,0.35546875,12.74609375,1,0,1,,1,76,236,94,1,
,,,,,,,,,,,,,FF,,,,,,,,1.3671,,,,,,,,,,,,,,,,,,,,,,61020974d844343a3ff517d7,61036e9cc3d9ba9972f153eb,2021-07-29_23h15.29.683,Simcolourproject_2stim_asymm_v5,2020.2.10,MacIntel,60,61025ae37ef11b136ea224fe,,,,,,,,,4225,-32.94140625,55.3203125,1,0,1,response7disk,,0,-2.8359375,4.44921875,1,0,1,rectangle,-2.8359375,4.44921875,1,0,1,,,,,,,-2.8359375,4.44921875,1,0,1,,1,77,237,64,1,
,,,,,,,,,,,,,FF,,,,,,,,0.9672,,,,,,,,,,,,,,,,,,,,,,61020974d844343a3ff517d7,61036e9cc3d9ba9972f153eb,2021-07-29_23h15.29.683,Simcolourproject_2stim_asymm_v5,2020.2.10,MacIntel,60,61025ae37ef11b136ea224fe,,,,,,,,,2147,39.22265625,50.421875,1,0,1,response1disk,,7,23.125,11.9375,1,0,1,rectangle,23.125,11.9375,1,0,1,,,,,,,23.125,11.9375,1,0,1,,1,78,238,148,1,
,,,,,,,,,,,,,FF,,,,,,,,1.466,,,,,,,,,,,,,,,,,,,,,,61020974d844343a3ff517d7,61036e9cc3d9ba9972f153eb,2021-07-29_23h15.29.683,Simcolourproject_2stim_asymm_v5,2020.2.10,MacIntel,60,61025ae37ef11b136ea224fe,,,,,,,,,1254,-24.5078125,-71.484375,1,0,1,response5disk,,3,11.90234375,4.765625,1,0,1,rectangle,11.90234375,4.765625,1,0,1,,,,,,,11.90234375,4.765625,1,0,1,,1,79,239,115,1,
,,,,,,,,,,,,,FF,,,,,,,,1.1659,,,,,,,,,,,,,,,,,,,,,,61020974d844343a3ff517d7,61036e9cc3d9ba9972f153eb,2021-07-29_23h15.29.683,Simcolourproject_2stim_asymm_v5,2020.2.10,MacIntel,60,61025ae37ef11b136ea224fe,,,,,,,,,1069,-72.48828125,33.97265625,1,0,1,response7disk,,1,-12.32421875,1.57421875,1,0,1,rectangle,-12.32421875,1.57421875,1,0,1,,,,,,,-12.32421875,1.57421875,1,0,1,,1,80,240,23,1,
,,,,,,,,,,,,,FF,,,,,,,,1.4319,,,,,,,,,,,,,,,,,,,,,,61020974d844343a3ff517d7,61036e9cc3d9ba9972f153eb,2021-07-29_23h15.29.683,Simcolourproject_2stim_asymm_v5,2020.2.10,MacIntel,60,61025ae37ef11b136ea224fe,,,,,,,,,1075,81.890625,-29.4140625,1,0,1,response3disk,,5,19.671875,8.49609375,1,0,1,rectangle,19.671875,8.49609375,1,0,1,,,,,,,19.671875,8.49609375,1,0,1,,1,81,241,71,1,
,,,,,,,,,,,,,FF,,,,,,,,1.2835,,,,,,,,,,,,,,,,,,,,,,61020974d844343a3ff517d7,61036e9cc3d9ba9972f153eb,2021-07-29_23h15.29.683,Simcolourproject_2stim_asymm_v5,2020.2.10,MacIntel,60,61025ae37ef11b136ea224fe,,,,,,,,,534,-60.83203125,-39.859375,1,0,1,response5disk,,2,-9.1015625,-2.7734375,1,0,1,rectangle,-9.1015625,-2.7734375,1,0,1,,,,,,,-9.1015625,-2.7734375,1,0,1,,1,82,242,22,1,
,,,,,,,,,,,,,FF,,,,,,,,2.2173,,,,,,,,,,,,,,,,,,,,,,61020974d844343a3ff517d7,61036e9cc3d9ba9972f153eb,2021-07-29_23h15.29.683,Simcolourproject_2stim_asymm_v5,2020.2.10,MacIntel,60,61025ae37ef11b136ea224fe,,,,,,,,,2203,39.58984375,75.8125,1,0,1,response1disk,,7,22.54296875,2.4375,1,0,1,rectangle,22.54296875,2.4375,1,0,1,,,,,,,22.54296875,2.4375,1,0,1,,1,83,243,72,1,
,,,,,,,,,,,,,FF,,,,,,,,1.0327,,,,,,,,,,,,,,,,,,,,,,61020974d844343a3ff517d7,61036e9cc3d9ba9972f153eb,2021-07-29_23h15.29.683,Simcolourproject_2stim_asymm_v5,2020.2.10,MacIntel,60,61025ae37ef11b136ea224fe,,,,,,,,,579,43.859375,50.26171875,1,0,1,response1disk,,7,26.90234375,1.75,1,0,1,rectangle,26.90234375,1.75,1,0,1,,,,,,,26.90234375,1.75,1,0,1,,1,84,244,27,1,
,,,,,,,,,,,,,FF,,,,,,,,0.9163,,,,,,,,,,,,,,,,,,,,,,61020974d844343a3ff517d7,61036e9cc3d9ba9972f153eb,2021-07-29_23h15.29.683,Simcolourproject_2stim_asymm_v5,2020.2.10,MacIntel,60,61025ae37ef11b136ea224fe,,,,,,,,,413,37.875,53.07421875,1,0,1,response1disk,,7,22.234375,-10.42578125,1,0,1,rectangle,22.234375,-10.42578125,1,0,1,,,,,,,22.234375,-10.42578125,1,0,1,,1,85,245,40,1,
,,,,,,,,,,,,,FF,,,,,,,,1.0836,,,,,,,,,,,,,,,,,,,,,,61020974d844343a3ff517d7,61036e9cc3d9ba9972f153eb,2021-07-29_23h15.29.683,Simcolourproject_2stim_asymm_v5,2020.2.10,MacIntel,60,61025ae37ef11b136ea224fe,,,,,,,,,1968,-84.109375,45.7734375,1,0,1,response7disk,,1,-15.875,-10.68359375,1,0,1,rectangle,-15.875,-10.68359375,1,0,1,,,,,,,-15.875,-10.68359375,1,0,1,,1,86,246,70,1,
,,,,,,,,,,,,,FF,,,,,,,,1.4005,,,,,,,,,,,,,,,,,,,,,,61020974d844343a3ff517d7,61036e9cc3d9ba9972f153eb,2021-07-29_23h15.29.683,Simcolourproject_2stim_asymm_v5,2020.2.10,MacIntel,60,61025ae37ef11b136ea224fe,,,,,,,,,3272,26.77734375,62.515625,1,0,1,response1disk,,7,-3.0390625,2.4140625,1,0,1,rectangle,-3.0390625,2.4140625,1,0,1,,,,,,,-3.0390625,2.4140625,1,0,1,,1,87,247,29,1,
,,,,,,,,,,,,,FF,,,,,,,,1.9668,,,,,,,,,,,,,,,,,,,,,,61020974d844343a3ff517d7,61036e9cc3d9ba9972f153eb,2021-07-29_23h15.29.683,Simcolourproject_2stim_asymm_v5,2020.2.10,MacIntel,60,61025ae37ef11b136ea224fe,,,,,,,,,1536,-60.8984375,28.38671875,1,0,1,response7disk,,1,-17.11328125,-1.32421875,1,0,1,rectangle,-17.11328125,-1.32421875,1,0,1,,,,,,,-17.11328125,-1.32421875,1,0,1,,1,88,248,130,1,
