key_resp.keys,key_resp.rt,key_resp_14.keys,key_resp_14.rt,key_resp_15.keys,key_resp_15.rt,key_resp_17.keys,key_resp_17.rt,key_resp_9.keys,key_resp_9.rt,key_resp_10.keys,key_resp_10.rt,practice_comparison,Ecc,mouse_5.x,mouse_5.y,mouse_5.leftButton,mouse_5.midButton,mouse_5.rightButton,mouse_5.clicked_name,pracsimilarity,response_time,mouse_10.x,mouse_10.y,mouse_10.leftButton,mouse_10.midButton,mouse_10.rightButton,mouse_10.clicked_name,mouse_7.x,mouse_7.y,mouse_7.leftButton,mouse_7.midButton,mouse_7.rightButton,mouse_6.x,mouse_6.y,mouse_6.leftButton,mouse_6.midButton,mouse_6.rightButton,duringprac.thisRepN,duringprac.thisTrialN,duringprac.thisN,duringprac.thisIndex,duringprac.ran,participant,session,date,expName,psychopyVersion,OS,frameRate,study_id,mouse_7.clicked_name,catchpracsimilarity,catch_response_time,catchnumberprac,catchtrialorderprac,mouse_6.clicked_name,key_resp_22.keys,key_resp_22.rt,realcomparison,mouse.x,mouse.y,mouse.leftButton,mouse.midButton,mouse.rightButton,mouse.clicked_name,Colour2,similarity,mouse_2.x,mouse_2.y,mouse_2.leftButton,mouse_2.midButton,mouse_2.rightButton,mouse_2.clicked_name,mouse_3.x,mouse_3.y,mouse_3.leftButton,mouse_3.midButton,mouse_3.rightButton,mouse_11.x,mouse_11.y,mouse_11.leftButton,mouse_11.midButton,mouse_11.rightButton,trials_2.thisRepN,trials_2.thisTrialN,trials_2.thisN,trials_2.thisIndex,trials_2.ran,Colour1,mouse_3.clicked_name,catchornah,catchsimilarity,catchnumber,catchtrialorder,catchRT,mouse_11.clicked_name
space,2.0649,space,17.0541,space,32.0046,space,6.4464,space,1.6232,space,4.953,7,FF,76.00002134,-32.66667837,1,0,0,response3disk_5,5,30.477,6.000019252,-4.000010848,1,0,0,rectangle_8,6.000019252,-4.000010848,1,0,0,6.000019252,-4.000010848,1,0,0,0,0,0,3,1,6102d6071567279a56ff3479,6103696b1f748f2d73008842,2021-07-29_22h52.55.441,Simcolourproject_2stim_asymm_v5,2020.2.10,Win32,60,61025ae37ef11b136ea224fe,,,,,,,,,,,,,,,,,,,,,,,,,,,,,,,,,,,,,,,,,,,,,,
,,,,,,,,,,,,132,FF,50.00002056,-80.00001311,1,0,0,response3disk_5,4,24.1091,-9.999981225,5.333322763,1,0,0,rectangle_8,-35.999982,93.99999207,1,0,0,4.000019193,-0.666677415,1,0,0,0,1,1,0,1,6102d6071567279a56ff3479,6103696b1f748f2d73008842,2021-07-29_22h52.55.441,Simcolourproject_2stim_asymm_v5,2020.2.10,Win32,60,61025ae37ef11b136ea224fe,response7disk_7,0,3.6004,0,"[2,5]",rectangle_4,,,,,,,,,,,,,,,,,,,,,,,,,,,,,,,,,,,,,,,,
,,,,,,,,,,,,6,PF,82.00002152,35.99999034,1,0,0,response1disk_5,6,7.465,7.333393315,1.333322644,1,0,0,rectangle_8,7.333393315,1.333322644,1,0,0,7.333393315,1.333322644,1,0,0,0,2,2,2,1,6102d6071567279a56ff3479,6103696b1f748f2d73008842,2021-07-29_22h52.55.441,Simcolourproject_2stim_asymm_v5,2020.2.10,Win32,60,61025ae37ef11b136ea224fe,,,,,,,,,,,,,,,,,,,,,,,,,,,,,,,,,,,,,,,,,,,,,,
,,,,,,,,,,,,69,PF,70.66668785,-45.33334541,1,0,0,response3disk_5,5,7.7143,1.9735E-05,4.666656077,1,0,0,rectangle_8,1.9735E-05,4.666656077,1,0,0,1.9735E-05,4.666656077,1,0,0,0,3,3,1,1,6102d6071567279a56ff3479,6103696b1f748f2d73008842,2021-07-29_22h52.55.441,Simcolourproject_2stim_asymm_v5,2020.2.10,Win32,60,61025ae37ef11b136ea224fe,,,,,,,,,,,,,,,,,,,,,,,,,,,,,,,,,,,,,,,,,,,,,,
,,,,,,,,,,,,81,FF,82.6666882,-29.33334494,1,0,0,response3disk_5,5,4.6985,8.666685998,-1.333344102,1,0,0,rectangle_8,-46.66660829,93.99999207,1,0,0,-3.999981046,-8.000010967,1,0,0,0,4,4,5,1,6102d6071567279a56ff3479,6103696b1f748f2d73008842,2021-07-29_22h52.55.441,Simcolourproject_2stim_asymm_v5,2020.2.10,Win32,60,61025ae37ef11b136ea224fe,response7disk_7,0,2.0655,0,"[2,5]",rectangle_4,,,,,,,,,,,,,,,,,,,,,,,,,,,,,,,,,,,,,,,,
,,,,,,,,,,,,107,PF,46.00002044,85.3333048,1,0,0,response1disk_5,7,4.0983,28.00001991,6.666656137,1,0,0,rectangle_8,28.00001991,6.666656137,1,0,0,28.00001991,6.666656137,1,0,0,0,5,5,6,1,6102d6071567279a56ff3479,6103696b1f748f2d73008842,2021-07-29_22h52.55.441,Simcolourproject_2stim_asymm_v5,2020.2.10,Win32,60,61025ae37ef11b136ea224fe,,,,,,,,,,,,,,,,,,,,,,,,,,,,,,,,,,,,,,,,,,,,,,
,,,,,,,,,,,,1,PF,35.33339415,-70.6666795,1,0,0,response3disk_5,4,1.9161,11.33339343,13.99998969,1,0,0,rectangle_8,11.33339343,13.99998969,1,0,0,11.33339343,13.99998969,1,0,0,0,6,6,4,1,6102d6071567279a56ff3479,6103696b1f748f2d73008842,2021-07-29_22h52.55.441,Simcolourproject_2stim_asymm_v5,2020.2.10,Win32,60,61025ae37ef11b136ea224fe,,,,,,,,,,,,,,,,,,,,,,,,,,,,,,,,,,,,,,,,,,,,,,
,,,,,,,,,,,,,FF,,,,,,,,6.7155,,,,,,,,,,,,,,,,,,,,,,6102d6071567279a56ff3479,6103696b1f748f2d73008842,2021-07-29_22h52.55.441,Simcolourproject_2stim_asymm_v5,2020.2.10,Win32,60,61025ae37ef11b136ea224fe,,,,,,,space,3.015,949,51.33335394,-33.33334506,1,0,0,response3disk,,5,-5.333314419,-8.000010967,1,0,0,rectangle,-5.333314419,-8.000010967,1,0,0,-5.333314419,-8.000010967,1,0,0,0,0,0,77,1,,,,,,,,
,,,,,,,,,,,,,FF,,,,,,,,2.2525,,,,,,,,,,,,,,,,,,,,,,6102d6071567279a56ff3479,6103696b1f748f2d73008842,2021-07-29_22h52.55.441,Simcolourproject_2stim_asymm_v5,2020.2.10,Win32,60,61025ae37ef11b136ea224fe,,,,,,,,,3816,34.66668677,-80.00001311,1,0,0,response3disk,,4,10.00001937,-1.333344102,1,0,0,rectangle,10.00001937,-1.333344102,1,0,0,10.00001937,-1.333344102,1,0,0,0,1,1,106,1,,,,,,,,
,,,,,,,,,,,,,FF,,,,,,,,2.7027,,,,,,,,,,,,,,,,,,,,,,6102d6071567279a56ff3479,6103696b1f748f2d73008842,2021-07-29_22h52.55.441,Simcolourproject_2stim_asymm_v5,2020.2.10,Win32,60,61025ae37ef11b136ea224fe,,,,,,,,,3416,68.66668779,38.66665709,1,0,0,response1disk,,6,16.00001955,0.666655958,1,0,0,rectangle,45.33335376,86.66665852,1,0,0,6.000019252,3.99998939,1,0,0,0,2,2,89,1,,response1disk_3,TRUE,7,7,"[271,92,198,189,250,5,207,312,68,238,312,307,298,27,253,251,187,3,274,77]",2.9502,rectangle
,,,,,,,,,,,,,FF,,,,,,,,3.2656,,,,,,,,,,,,,,,,,,,,,,6102d6071567279a56ff3479,6103696b1f748f2d73008842,2021-07-29_22h52.55.441,Simcolourproject_2stim_asymm_v5,2020.2.10,Win32,60,61025ae37ef11b136ea224fe,,,,,,,,,2567,80.66668814,47.33330367,1,0,0,response1disk,,6,6.000019252,-12.66667777,1,0,0,rectangle,6.000019252,-12.66667777,1,0,0,6.000019252,-12.66667777,1,0,0,0,3,3,156,1,,,,,,,,
,,,,,,,,,,,,,FF,,,,,,,,3.4867,,,,,,,,,,,,,,,,,,,,,,6102d6071567279a56ff3479,6103696b1f748f2d73008842,2021-07-29_22h52.55.441,Simcolourproject_2stim_asymm_v5,2020.2.10,Win32,60,61025ae37ef11b136ea224fe,,,,,,,,,381,76.66668802,-24.66667813,1,0,0,response3disk,,5,20.00001967,-2.666677475,1,0,0,rectangle,-26.6666077,65.99999124,1,0,0,-8.666607161,11.33332294,1,0,0,0,4,4,145,1,,response7disk_3,TRUE,0,0,"[271,92,198,189,250,5,207,312,68,238,312,307,298,27,253,251,187,3,274,77]",2.198,rectangle
,,,,,,,,,,,,,FF,,,,,,,,9.1303,,,,,,,,,,,,,,,,,,,,,,6102d6071567279a56ff3479,6103696b1f748f2d73008842,2021-07-29_22h52.55.441,Simcolourproject_2stim_asymm_v5,2020.2.10,Win32,60,61025ae37ef11b136ea224fe,,,,,,,,,4323,82.6666882,-57.33334577,1,0,0,response3disk,,5,2.000019133,6.666656137,1,0,0,rectangle,2.000019133,6.666656137,1,0,0,2.000019133,6.666656137,1,0,0,0,5,5,114,1,,,,,,,,
,,,,,,,,,,,,,FF,,,,,,,,1.1999,,,,,,,,,,,,,,,,,,,,,,6102d6071567279a56ff3479,6103696b1f748f2d73008842,2021-07-29_22h52.55.441,Simcolourproject_2stim_asymm_v5,2020.2.10,Win32,60,61025ae37ef11b136ea224fe,,,,,,,,,625,64.00002098,-33.33334506,1,0,0,response3disk,,5,-3.333314359,-4.000010848,1,0,0,rectangle,-3.333314359,-4.000010848,1,0,0,-3.333314359,-4.000010848,1,0,0,0,6,6,28,1,,,,,,,,
,,,,,,,,,,,,,FF,,,,,,,,3.1659,,,,,,,,,,,,,,,,,,,,,,6102d6071567279a56ff3479,6103696b1f748f2d73008842,2021-07-29_22h52.55.441,Simcolourproject_2stim_asymm_v5,2020.2.10,Win32,60,61025ae37ef11b136ea224fe,,,,,,,,,1768,54.66668737,-81.33334649,1,0,0,response3disk,,4,3.333393196,-2.000010788,1,0,0,rectangle,3.333393196,-2.000010788,1,0,0,3.333393196,-2.000010788,1,0,0,0,7,7,5,1,,,,,,,,
,,,,,,,,,,,,,FF,,,,,,,,6.4148,,,,,,,,,,,,,,,,,,,,,,6102d6071567279a56ff3479,6103696b1f748f2d73008842,2021-07-29_22h52.55.441,Simcolourproject_2stim_asymm_v5,2020.2.10,Win32,60,61025ae37ef11b136ea224fe,,,,,,,,,1644,80.00002146,40.66665715,1,0,0,response1disk,,6,-31.33331519,-2.666677475,1,0,0,rectangle,-31.33331519,-2.666677475,1,0,0,-31.33331519,-2.666677475,1,0,0,0,8,8,65,1,,,,,,,,
,,,,,,,,,,,,,FF,,,,,,,,3.5324,,,,,,,,,,,,,,,,,,,,,,6102d6071567279a56ff3479,6103696b1f748f2d73008842,2021-07-29_22h52.55.441,Simcolourproject_2stim_asymm_v5,2020.2.10,Win32,60,61025ae37ef11b136ea224fe,,,,,,,,,4110,26.66668653,92.6666587,1,0,0,response1disk,,7,-13.99998134,9.999989569,1,0,0,rectangle,-13.99998134,9.999989569,1,0,0,-13.99998134,9.999989569,1,0,0,0,9,9,75,1,,,,,,,,
,,,,,,,,,,,,,FF,,,,,,,,2.6162,,,,,,,,,,,,,,,,,,,,,,6102d6071567279a56ff3479,6103696b1f748f2d73008842,2021-07-29_22h52.55.441,Simcolourproject_2stim_asymm_v5,2020.2.10,Win32,60,61025ae37ef11b136ea224fe,,,,,,,,,1459,-76.66660919,33.33330325,1,0,0,response7disk,,1,-5.333314419,-5.333344221,1,0,0,rectangle,-5.333314419,-5.333344221,1,0,0,-5.333314419,-5.333344221,1,0,0,0,10,10,127,1,,,,,,,,
,,,,,,,,,,,,,FF,,,,,,,,2.6325,,,,,,,,,,,,,,,,,,,,,,6102d6071567279a56ff3479,6103696b1f748f2d73008842,2021-07-29_22h52.55.441,Simcolourproject_2stim_asymm_v5,2020.2.10,Win32,60,61025ae37ef11b136ea224fe,,,,,,,,,1480,86.66668832,41.99999052,1,0,0,response1disk,,6,-2.666606983,-5.333344221,1,0,0,rectangle,-2.666606983,-5.333344221,1,0,0,-2.666606983,-5.333344221,1,0,0,0,11,11,8,1,,,,,,,,
,,,,,,,,,,,,,FF,,,,,,,,5.215,,,,,,,,,,,,,,,,,,,,,,6102d6071567279a56ff3479,6103696b1f748f2d73008842,2021-07-29_22h52.55.441,Simcolourproject_2stim_asymm_v5,2020.2.10,Win32,60,61025ae37ef11b136ea224fe,,,,,,,,,1279,30.66668665,75.99999154,1,0,0,response1disk,,7,-5.333314419,1.333322644,1,0,0,rectangle,-5.333314419,1.333322644,1,0,0,-5.333314419,1.333322644,1,0,0,0,12,12,96,1,,,,,,,,
,,,,,,,,,,,,,FF,,,,,,,,1.7999,,,,,,,,,,,,,,,,,,,,,,6102d6071567279a56ff3479,6103696b1f748f2d73008842,2021-07-29_22h52.55.441,Simcolourproject_2stim_asymm_v5,2020.2.10,Win32,60,61025ae37ef11b136ea224fe,,,,,,,,,4208,-72.66660907,37.9999904,1,0,0,response7disk,,1,-3.333314359,3.99998939,1,0,0,rectangle,-3.333314359,3.99998939,1,0,0,-3.333314359,3.99998939,1,0,0,0,13,13,142,1,,,,,,,,
,,,,,,,,,,,,,FF,,,,,,,,2.1326,,,,,,,,,,,,,,,,,,,,,,6102d6071567279a56ff3479,6103696b1f748f2d73008842,2021-07-29_22h52.55.441,Simcolourproject_2stim_asymm_v5,2020.2.10,Win32,60,61025ae37ef11b136ea224fe,,,,,,,,,3279,36.66668683,66.66665792,1,0,0,response1disk,,7,12.66668612,-6.000010908,1,0,0,rectangle,12.66668612,-6.000010908,1,0,0,12.66668612,-6.000010908,1,0,0,0,14,14,47,1,,,,,,,,
,,,,,,,,,,,,,FF,,,,,,,,2.2162,,,,,,,,,,,,,,,,,,,,,,6102d6071567279a56ff3479,6103696b1f748f2d73008842,2021-07-29_22h52.55.441,Simcolourproject_2stim_asymm_v5,2020.2.10,Win32,60,61025ae37ef11b136ea224fe,,,,,,,,,590,75.33335465,33.99999028,1,0,0,response1disk,,6,14.00001949,8.666656196,1,0,0,rectangle,14.00001949,8.666656196,1,0,0,14.00001949,8.666656196,1,0,0,0,15,15,97,1,,,,,,,,
,,,,,,,,,,,,,FF,,,,,,,,2.216,,,,,,,,,,,,,,,,,,,,,,6102d6071567279a56ff3479,6103696b1f748f2d73008842,2021-07-29_22h52.55.441,Simcolourproject_2stim_asymm_v5,2020.2.10,Win32,60,61025ae37ef11b136ea224fe,,,,,,,,,3287,32.00002003,-67.33334607,1,0,0,response3disk,,4,-11.3333146,1.333322644,1,0,0,rectangle,-11.3333146,1.333322644,1,0,0,-11.3333146,1.333322644,1,0,0,0,16,16,78,1,,,,,,,,
,,,,,,,,,,,,,FF,,,,,,,,3.0989,,,,,,,,,,,,,,,,,,,,,,6102d6071567279a56ff3479,6103696b1f748f2d73008842,2021-07-29_22h52.55.441,Simcolourproject_2stim_asymm_v5,2020.2.10,Win32,60,61025ae37ef11b136ea224fe,,,,,,,,,188,-45.9999823,-102.0000138,1,0,0,response5disk,,3,-8.666607161,-2.000010788,1,0,0,rectangle,-8.666607161,-2.000010788,1,0,0,-8.666607161,-2.000010788,1,0,0,0,17,17,98,1,,,,,,,,
,,,,,,,,,,,,,FF,,,,,,,,2.8991,,,,,,,,,,,,,,,,,,,,,,6102d6071567279a56ff3479,6103696b1f748f2d73008842,2021-07-29_22h52.55.441,Simcolourproject_2stim_asymm_v5,2020.2.10,Win32,60,61025ae37ef11b136ea224fe,,,,,,,,,3727,98.00002199,-34.00001174,1,0,0,response3disk,,5,-13.33331466,1.333322644,1,0,0,rectangle,-13.33331466,1.333322644,1,0,0,-13.33331466,1.333322644,1,0,0,0,18,18,115,1,,,,,,,,
,,,,,,,,,,,,,FF,,,,,,,,4.7958,,,,,,,,,,,,,,,,,,,,,,6102d6071567279a56ff3479,6103696b1f748f2d73008842,2021-07-29_22h52.55.441,Simcolourproject_2stim_asymm_v5,2020.2.10,Win32,60,61025ae37ef11b136ea224fe,,,,,,,,,711,86.66668832,-44.66667873,1,0,0,response3disk,,5,-16.6666074,10.66665626,1,0,0,rectangle,-16.6666074,10.66665626,1,0,0,-16.6666074,10.66665626,1,0,0,0,19,19,103,1,,,,,,,,
,,,,,,,,,,,,,FF,,,,,,,,2.7826,,,,,,,,,,,,,,,,,,,,,,6102d6071567279a56ff3479,6103696b1f748f2d73008842,2021-07-29_22h52.55.441,Simcolourproject_2stim_asymm_v5,2020.2.10,Win32,60,61025ae37ef11b136ea224fe,,,,,,,,,2331,56.66668743,40.66665715,1,0,0,response1disk,,6,-7.999981165,6.666656137,1,0,0,rectangle,-7.999981165,6.666656137,1,0,0,-7.999981165,6.666656137,1,0,0,0,20,20,143,1,,,,,,,,
,,,,,,,,,,,,,FF,,,,,,,,2.2496,,,,,,,,,,,,,,,,,,,,,,6102d6071567279a56ff3479,6103696b1f748f2d73008842,2021-07-29_22h52.55.441,Simcolourproject_2stim_asymm_v5,2020.2.10,Win32,60,61025ae37ef11b136ea224fe,,,,,,,,,3027,73.33335459,47.9999907,1,0,0,response1disk,,6,21.33339373,-1.333344102,1,0,0,rectangle,21.33339373,-1.333344102,1,0,0,21.33339373,-1.333344102,1,0,0,0,21,21,149,1,,,,,,,,
,,,,,,,,,,,,,FF,,,,,,,,2.7991,,,,,,,,,,,,,,,,,,,,,,6102d6071567279a56ff3479,6103696b1f748f2d73008842,2021-07-29_22h52.55.441,Simcolourproject_2stim_asymm_v5,2020.2.10,Win32,60,61025ae37ef11b136ea224fe,,,,,,,,,2231,68.66668779,-54.66667902,1,0,0,response3disk,,5,-11.99998128,-1.07288E-05,1,0,0,rectangle,-11.99998128,-1.07288E-05,1,0,0,-11.99998128,-1.07288E-05,1,0,0,0,22,22,31,1,,,,,,,,
,,,,,,,,,,,,,FF,,,,,,,,1.6679,,,,,,,,,,,,,,,,,,,,,,6102d6071567279a56ff3479,6103696b1f748f2d73008842,2021-07-29_22h52.55.441,Simcolourproject_2stim_asymm_v5,2020.2.10,Win32,60,61025ae37ef11b136ea224fe,,,,,,,,,1511,40.00002027,78.66665828,1,0,0,response1disk,,7,-3.333314359,0.666655958,1,0,0,rectangle,-3.333314359,0.666655958,1,0,0,-3.333314359,0.666655958,1,0,0,0,23,23,125,1,,,,,,,,
,,,,,,,,,,,,,FF,,,,,,,,2.8492,,,,,,,,,,,,,,,,,,,,,,6102d6071567279a56ff3479,6103696b1f748f2d73008842,2021-07-29_22h52.55.441,Simcolourproject_2stim_asymm_v5,2020.2.10,Win32,60,61025ae37ef11b136ea224fe,,,,,,,,,1405,73.33335459,-43.33334535,1,0,0,response3disk,,5,-6.666607102,0.666655958,1,0,0,rectangle,-6.666607102,0.666655958,1,0,0,-6.666607102,0.666655958,1,0,0,0,24,24,64,1,,,,,,,,
,,,,,,,,,,,,,FF,,,,,,,,2.0164,,,,,,,,,,,,,,,,,,,,,,6102d6071567279a56ff3479,6103696b1f748f2d73008842,2021-07-29_22h52.55.441,Simcolourproject_2stim_asymm_v5,2020.2.10,Win32,60,61025ae37ef11b136ea224fe,,,,,,,,,3861,73.33335459,-39.33334523,1,0,0,response3disk,,5,-2.666606983,-2.666677475,1,0,0,rectangle,-2.666606983,-2.666677475,1,0,0,-2.666606983,-2.666677475,1,0,0,0,25,25,104,1,,,,,,,,
,,,,,,,,,,,,,FF,,,,,,,,1.8998,,,,,,,,,,,,,,,,,,,,,,6102d6071567279a56ff3479,6103696b1f748f2d73008842,2021-07-29_22h52.55.441,Simcolourproject_2stim_asymm_v5,2020.2.10,Win32,60,61025ae37ef11b136ea224fe,,,,,,,,,525,44.00002038,-77.33334637,1,0,0,response3disk,,4,-8.666607161,9.333322883,1,0,0,rectangle,-21.99998158,-78.66667974,1,0,0,-15.33331472,5.333322763,1,0,0,0,26,26,60,1,,response5disk_3,TRUE,3,3,"[271,92,198,189,250,5,207,312,68,238,312,307,298,27,253,251,187,3,274,77]",2.4824,rectangle
,,,,,,,,,,,,,FF,,,,,,,,5.2818,,,,,,,,,,,,,,,,,,,,,,6102d6071567279a56ff3479,6103696b1f748f2d73008842,2021-07-29_22h52.55.441,Simcolourproject_2stim_asymm_v5,2020.2.10,Win32,60,61025ae37ef11b136ea224fe,,,,,,,,,332,70.66668785,-44.66667873,1,0,0,response3disk,,5,-9.333314538,-2.666677475,1,0,0,rectangle,-9.333314538,-2.666677475,1,0,0,-9.333314538,-2.666677475,1,0,0,0,27,27,154,1,,,,,,,,
,,,,,,,,,,,,,FF,,,,,,,,5.4817,,,,,,,,,,,,,,,,,,,,,,6102d6071567279a56ff3479,6103696b1f748f2d73008842,2021-07-29_22h52.55.441,Simcolourproject_2stim_asymm_v5,2020.2.10,Win32,60,61025ae37ef11b136ea224fe,,,,,,,,,2424,20.66668636,-86.00001329,1,0,0,response3disk,,4,-17.33331478,4.666656077,1,0,0,rectangle,-17.33331478,4.666656077,1,0,0,-17.33331478,4.666656077,1,0,0,0,28,28,122,1,,,,,,,,
,,,,,,,,,,,,,FF,,,,,,,,1.4507,,,,,,,,,,,,,,,,,,,,,,6102d6071567279a56ff3479,6103696b1f748f2d73008842,2021-07-29_22h52.55.441,Simcolourproject_2stim_asymm_v5,2020.2.10,Win32,60,61025ae37ef11b136ea224fe,,,,,,,,,3628,22.00001973,-81.33334649,1,0,0,response3disk,,4,-8.666607161,4.666656077,1,0,0,rectangle,-8.666607161,4.666656077,1,0,0,-8.666607161,4.666656077,1,0,0,0,29,29,69,1,,,,,,,,
,,,,,,,,,,,,,FF,,,,,,,,2.3827,,,,,,,,,,,,,,,,,,,,,,6102d6071567279a56ff3479,6103696b1f748f2d73008842,2021-07-29_22h52.55.441,Simcolourproject_2stim_asymm_v5,2020.2.10,Win32,60,61025ae37ef11b136ea224fe,,,,,,,,,608,98.00002199,47.33330367,1,0,0,response1disk,,6,1.9735E-05,7.333322823,1,0,0,rectangle,1.9735E-05,7.333322823,1,0,0,1.9735E-05,7.333322823,1,0,0,0,30,30,21,1,,,,,,,,
,,,,,,,,,,,,,FF,,,,,,,,1.0997,,,,,,,,,,,,,,,,,,,,,,6102d6071567279a56ff3479,6103696b1f748f2d73008842,2021-07-29_22h52.55.441,Simcolourproject_2stim_asymm_v5,2020.2.10,Win32,60,61025ae37ef11b136ea224fe,,,,,,,,,4104,26.00001985,-70.00001281,1,0,0,response3disk,,4,4.000019193,4.666656077,1,0,0,rectangle,4.000019193,4.666656077,1,0,0,4.000019193,4.666656077,1,0,0,0,31,31,128,1,,,,,,,,
,,,,,,,,,,,,,FF,,,,,,,,1.1497,,,,,,,,,,,,,,,,,,,,,,6102d6071567279a56ff3479,6103696b1f748f2d73008842,2021-07-29_22h52.55.441,Simcolourproject_2stim_asymm_v5,2020.2.10,Win32,60,61025ae37ef11b136ea224fe,,,,,,,,,1620,72.00002122,23.33330295,1,0,0,response1disk,,6,2.000019133,-6.666677594,1,0,0,rectangle,2.000019133,-6.666677594,1,0,0,2.000019133,-6.666677594,1,0,0,0,32,32,135,1,,,,,,,,
,,,,,,,,,,,,,FF,,,,,,,,1.1331,,,,,,,,,,,,,,,,,,,,,,6102d6071567279a56ff3479,6103696b1f748f2d73008842,2021-07-29_22h52.55.441,Simcolourproject_2stim_asymm_v5,2020.2.10,Win32,60,61025ae37ef11b136ea224fe,,,,,,,,,1742,82.00002152,26.66665673,1,0,0,response1disk,,6,14.00001949,5.333322763,1,0,0,rectangle,14.00001949,5.333322763,1,0,0,14.00001949,5.333322763,1,0,0,0,33,33,13,1,,,,,,,,
,,,,,,,,,,,,,FF,,,,,,,,1.1995,,,,,,,,,,,,,,,,,,,,,,6102d6071567279a56ff3479,6103696b1f748f2d73008842,2021-07-29_22h52.55.441,Simcolourproject_2stim_asymm_v5,2020.2.10,Win32,60,61025ae37ef11b136ea224fe,,,,,,,,,391,46.66668713,-20.00001132,1,0,0,response3disk,,5,16.66668624,-5.333344221,1,0,0,rectangle,16.66668624,-5.333344221,1,0,0,16.66668624,-5.333344221,1,0,0,0,34,34,10,1,,,,,,,,
,,,,,,,,,,,,,FF,,,,,,,,1.2331,,,,,,,,,,,,,,,,,,,,,,6102d6071567279a56ff3479,6103696b1f748f2d73008842,2021-07-29_22h52.55.441,Simcolourproject_2stim_asymm_v5,2020.2.10,Win32,60,61025ae37ef11b136ea224fe,,,,,,,,,940,62.00002092,21.3333029,1,0,0,response1disk,,6,9.333393375,7.99998951,1,0,0,rectangle,9.333393375,7.99998951,1,0,0,9.333393375,7.99998951,1,0,0,0,35,35,73,1,,,,,,,,
,,,,,,,,,,,,,FF,,,,,,,,2.3328,,,,,,,,,,,,,,,,,,,,,,6102d6071567279a56ff3479,6103696b1f748f2d73008842,2021-07-29_22h52.55.441,Simcolourproject_2stim_asymm_v5,2020.2.10,Win32,60,61025ae37ef11b136ea224fe,,,,,,,,,574,62.66668761,-22.66667807,1,0,0,response3disk,,5,-15.9999814,6.666656137,1,0,0,rectangle,-15.9999814,6.666656137,1,0,0,-15.9999814,6.666656137,1,0,0,0,36,36,136,1,,,,,,,,
,,,,,,,,,,,,,FF,,,,,,,,1.2331,,,,,,,,,,,,,,,,,,,,,,6102d6071567279a56ff3479,6103696b1f748f2d73008842,2021-07-29_22h52.55.441,Simcolourproject_2stim_asymm_v5,2020.2.10,Win32,60,61025ae37ef11b136ea224fe,,,,,,,,,288,28.00001991,-54.00001234,1,0,0,response3disk,,4,-12.66660728,-4.666677535,1,0,0,rectangle,-12.66660728,-4.666677535,1,0,0,-12.66660728,-4.666677535,1,0,0,0,37,37,152,1,,,,,,,,
,,,,,,,,,,,,,FF,,,,,,,,1.189,,,,,,,,,,,,,,,,,,,,,,6102d6071567279a56ff3479,6103696b1f748f2d73008842,2021-07-29_22h52.55.441,Simcolourproject_2stim_asymm_v5,2020.2.10,Win32,60,61025ae37ef11b136ea224fe,,,,,,,,,1747,27.33339391,-72.00001287,1,0,0,response3disk,,4,0.66668576,-5.333344221,1,0,0,rectangle,0.66668576,-5.333344221,1,0,0,0.66668576,-5.333344221,1,0,0,0,38,38,27,1,,,,,,,,
,,,,,,,,,,,,,FF,,,,,,,,1.4828,,,,,,,,,,,,,,,,,,,,,,6102d6071567279a56ff3479,6103696b1f748f2d73008842,2021-07-29_22h52.55.441,Simcolourproject_2stim_asymm_v5,2020.2.10,Win32,60,61025ae37ef11b136ea224fe,,,,,,,,,2189,65.33335435,27.99999011,1,0,0,response1disk,,6,8.666685998,-5.333344221,1,0,0,rectangle,8.666685998,-5.333344221,1,0,0,8.666685998,-5.333344221,1,0,0,0,39,39,120,1,,,,,,,,
,,,,,,,,,,,,,FF,,,,,,,,4.9293,,,,,,,,,,,,,,,,,,,,,,6102d6071567279a56ff3479,6103696b1f748f2d73008842,2021-07-29_22h52.55.441,Simcolourproject_2stim_asymm_v5,2020.2.10,Win32,60,61025ae37ef11b136ea224fe,,,,,,,,,2491,48.66668719,73.99999148,1,0,0,response1disk,,7,8.000019312,-3.333344162,1,0,0,rectangle,8.000019312,-3.333344162,1,0,0,8.000019312,-3.333344162,1,0,0,0,40,40,123,1,,,,,,,,
,,,,,,,,,,,,,FF,,,,,,,,1.6366,,,,,,,,,,,,,,,,,,,,,,6102d6071567279a56ff3479,6103696b1f748f2d73008842,2021-07-29_22h52.55.441,Simcolourproject_2stim_asymm_v5,2020.2.10,Win32,60,61025ae37ef11b136ea224fe,,,,,,,,,3786,35.33339415,22.66665661,1,0,0,response1disk,,6,13.33339349,1.999989331,1,0,0,rectangle,13.33339349,1.999989331,1,0,0,13.33339349,1.999989331,1,0,0,0,41,41,43,1,,,,,,,,
,,,,,,,,,,,,,FF,,,,,,,,1.233,,,,,,,,,,,,,,,,,,,,,,6102d6071567279a56ff3479,6103696b1f748f2d73008842,2021-07-29_22h52.55.441,Simcolourproject_2stim_asymm_v5,2020.2.10,Win32,60,61025ae37ef11b136ea224fe,,,,,,,,,1643,64.00002098,-31.333345,1,0,0,response3disk,,5,15.33339355,9.333322883,1,0,0,rectangle,15.33339355,9.333322883,1,0,0,15.33339355,9.333322883,1,0,0,0,42,42,49,1,,,,,,,,
,,,,,,,,,,,,,FF,,,,,,,,1.0664,,,,,,,,,,,,,,,,,,,,,,6102d6071567279a56ff3479,6103696b1f748f2d73008842,2021-07-29_22h52.55.441,Simcolourproject_2stim_asymm_v5,2020.2.10,Win32,60,61025ae37ef11b136ea224fe,,,,,,,,,2697,59.33335418,-29.33334494,1,0,0,response3disk,,5,16.66668624,-4.000010848,1,0,0,rectangle,16.66668624,-4.000010848,1,0,0,16.66668624,-4.000010848,1,0,0,0,43,43,118,1,,,,,,,,
,,,,,,,,,,,,,FF,,,,,,,,0.8498,,,,,,,,,,,,,,,,,,,,,,6102d6071567279a56ff3479,6103696b1f748f2d73008842,2021-07-29_22h52.55.441,Simcolourproject_2stim_asymm_v5,2020.2.10,Win32,60,61025ae37ef11b136ea224fe,,,,,,,,,479,64.00002098,-39.33334523,1,0,0,response3disk,,5,18.6666863,-1.07288E-05,1,0,0,rectangle,18.6666863,-1.07288E-05,1,0,0,18.6666863,-1.07288E-05,1,0,0,0,44,44,158,1,,,,,,,,
,,,,,,,,,,,,,FF,,,,,,,,0.9664,,,,,,,,,,,,,,,,,,,,,,6102d6071567279a56ff3479,6103696b1f748f2d73008842,2021-07-29_22h52.55.441,Simcolourproject_2stim_asymm_v5,2020.2.10,Win32,60,61025ae37ef11b136ea224fe,,,,,,,,,857,54.66668737,18.66665649,1,0,0,response1disk,,6,20.00001967,8.666656196,1,0,0,rectangle,20.00001967,8.666656196,1,0,0,20.00001967,8.666656196,1,0,0,0,45,45,108,1,,,,,,,,
,,,,,,,,,,,,,FF,,,,,,,,0.8336,,,,,,,,,,,,,,,,,,,,,,6102d6071567279a56ff3479,6103696b1f748f2d73008842,2021-07-29_22h52.55.441,Simcolourproject_2stim_asymm_v5,2020.2.10,Win32,60,61025ae37ef11b136ea224fe,,,,,,,,,788,67.33335441,21.3333029,1,0,0,response1disk,,6,23.33339379,12.66665632,1,0,0,rectangle,23.33339379,12.66665632,1,0,0,23.33339379,12.66665632,1,0,0,0,46,46,42,1,,,,,,,,
,,,,,,,,,,,,,FF,,,,,,,,1.1051,,,,,,,,,,,,,,,,,,,,,,6102d6071567279a56ff3479,6103696b1f748f2d73008842,2021-07-29_22h52.55.441,Simcolourproject_2stim_asymm_v5,2020.2.10,Win32,60,61025ae37ef11b136ea224fe,,,,,,,,,1558,107.3333556,-45.33334541,1,0,0,response3disk,,5,1.9735E-05,11.33332294,1,0,0,rectangle,1.9735E-05,11.33332294,1,0,0,1.9735E-05,11.33332294,1,0,0,0,47,47,29,1,,,,,,,,
,,,,,,,,,,,,,FF,,,,,,,,1.6828,,,,,,,,,,,,,,,,,,,,,,6102d6071567279a56ff3479,6103696b1f748f2d73008842,2021-07-29_22h52.55.441,Simcolourproject_2stim_asymm_v5,2020.2.10,Win32,60,61025ae37ef11b136ea224fe,,,,,,,,,4209,50.00002056,42.66665721,1,0,0,response1disk,,6,12.00001943,1.333322644,1,0,0,rectangle,12.00001943,1.333322644,1,0,0,12.00001943,1.333322644,1,0,0,0,48,48,99,1,,,,,,,,
,,,,,,,,,,,,,FF,,,,,,,,1.5993,,,,,,,,,,,,,,,,,,,,,,6102d6071567279a56ff3479,6103696b1f748f2d73008842,2021-07-29_22h52.55.441,Simcolourproject_2stim_asymm_v5,2020.2.10,Win32,60,61025ae37ef11b136ea224fe,,,,,,,,,3331,41.33339433,29.33330313,1,0,0,response1disk,,6,16.66668624,10.66665626,1,0,0,rectangle,16.66668624,10.66665626,1,0,0,16.66668624,10.66665626,1,0,0,0,49,49,80,1,,,,,,,,
,,,,,,,,,,,,,FF,,,,,,,,1.6332,,,,,,,,,,,,,,,,,,,,,,6102d6071567279a56ff3479,6103696b1f748f2d73008842,2021-07-29_22h52.55.441,Simcolourproject_2stim_asymm_v5,2020.2.10,Win32,60,61025ae37ef11b136ea224fe,,,,,,,,,909,48.66668719,77.33330456,1,0,0,response1disk,,7,22.66668642,12.66665632,1,0,0,rectangle,22.66668642,12.66665632,1,0,0,22.66668642,12.66665632,1,0,0,0,50,50,36,1,,,,,,,,
,,,,,,,,,,,,,FF,,,,,,,,1.0329,,,,,,,,,,,,,,,,,,,,,,6102d6071567279a56ff3479,6103696b1f748f2d73008842,2021-07-29_22h52.55.441,Simcolourproject_2stim_asymm_v5,2020.2.10,Win32,60,61025ae37ef11b136ea224fe,,,,,,,,,3402,62.00002092,27.99999011,1,0,0,response1disk,,6,12.66668612,-4.666677535,1,0,0,rectangle,12.66668612,-4.666677535,1,0,0,12.66668612,-4.666677535,1,0,0,0,51,51,159,1,,,,,,,,
,,,,,,,,,,,,,FF,,,,,,,,1.8329,,,,,,,,,,,,,,,,,,,,,,6102d6071567279a56ff3479,6103696b1f748f2d73008842,2021-07-29_22h52.55.441,Simcolourproject_2stim_asymm_v5,2020.2.10,Win32,60,61025ae37ef11b136ea224fe,,,,,,,,,2678,65.33335435,-30.00001162,1,0,0,response3disk,,5,23.33339379,7.99998951,1,0,0,rectangle,23.33339379,7.99998951,1,0,0,23.33339379,7.99998951,1,0,0,0,52,52,131,1,,,,,,,,
,,,,,,,,,,,,,FF,,,,,,,,1.0666,,,,,,,,,,,,,,,,,,,,,,6102d6071567279a56ff3479,6103696b1f748f2d73008842,2021-07-29_22h52.55.441,Simcolourproject_2stim_asymm_v5,2020.2.10,Win32,60,61025ae37ef11b136ea224fe,,,,,,,,,2492,63.33335429,-44.66667873,1,0,0,response3disk,,5,11.33339343,-5.333344221,1,0,0,rectangle,11.33339343,-5.333344221,1,0,0,11.33339343,-5.333344221,1,0,0,0,53,53,79,1,,,,,,,,
,,,,,,,,,,,,,FF,,,,,,,,1.1165,,,,,,,,,,,,,,,,,,,,,,6102d6071567279a56ff3479,6103696b1f748f2d73008842,2021-07-29_22h52.55.441,Simcolourproject_2stim_asymm_v5,2020.2.10,Win32,60,61025ae37ef11b136ea224fe,,,,,,,,,4162,48.66668719,-51.33334559,1,0,0,response3disk,,4,12.00001943,-0.666677415,1,0,0,rectangle,12.00001943,-0.666677415,1,0,0,12.00001943,-0.666677415,1,0,0,0,54,54,151,1,,,,,,,,
,,,,,,,,,,,,,FF,,,,,,,,1.417,,,,,,,,,,,,,,,,,,,,,,6102d6071567279a56ff3479,6103696b1f748f2d73008842,2021-07-29_22h52.55.441,Simcolourproject_2stim_asymm_v5,2020.2.10,Win32,60,61025ae37ef11b136ea224fe,,,,,,,,,3405,78.66668808,-55.33334571,1,0,0,response3disk,,5,-0.666606923,9.999989569,1,0,0,rectangle,-0.666606923,9.999989569,1,0,0,-0.666606923,9.999989569,1,0,0,0,55,55,32,1,,,,,,,,
,,,,,,,,,,,,,FF,,,,,,,,1.0002,,,,,,,,,,,,,,,,,,,,,,6102d6071567279a56ff3479,6103696b1f748f2d73008842,2021-07-29_22h52.55.441,Simcolourproject_2stim_asymm_v5,2020.2.10,Win32,60,61025ae37ef11b136ea224fe,,,,,,,,,3341,55.33335406,-49.33334553,1,0,0,response3disk,,5,6.666685939,-2.000010788,1,0,0,rectangle,6.666685939,-2.000010788,1,0,0,6.666685939,-2.000010788,1,0,0,0,56,56,81,1,,,,,,,,
,,,,,,,,,,,,,FF,,,,,,,,0.9662,,,,,,,,,,,,,,,,,,,,,,6102d6071567279a56ff3479,6103696b1f748f2d73008842,2021-07-29_22h52.55.441,Simcolourproject_2stim_asymm_v5,2020.2.10,Win32,60,61025ae37ef11b136ea224fe,,,,,,,,,1144,83.33335489,-39.33334523,1,0,0,response3disk,,5,26.00001985,-3.333344162,1,0,0,rectangle,26.00001985,-3.333344162,1,0,0,26.00001985,-3.333344162,1,0,0,0,57,57,119,1,,,,,,,,
,,,,,,,,,,,,,FF,,,,,,,,0.4822,,,,,,,,,,,,,,,,,,,,,,6102d6071567279a56ff3479,6103696b1f748f2d73008842,2021-07-29_22h52.55.441,Simcolourproject_2stim_asymm_v5,2020.2.10,Win32,60,61025ae37ef11b136ea224fe,,,,,,,,,1861,69.33335447,-36.0000118,1,0,0,response3disk,,5,13.33339349,-7.333344281,1,0,0,rectangle,13.33339349,-7.333344281,1,0,0,13.33339349,-7.333344281,1,0,0,0,58,58,88,1,,,,,,,,
,,,,,,,,,,,,,FF,,,,,,,,0.3327,,,,,,,,,,,,,,,,,,,,,,6102d6071567279a56ff3479,6103696b1f748f2d73008842,2021-07-29_22h52.55.441,Simcolourproject_2stim_asymm_v5,2020.2.10,Win32,60,61025ae37ef11b136ea224fe,,,,,,,,,3146,90.00002176,35.99999034,1,0,0,response1disk,,6,-5.333314419,-1.07288E-05,1,0,0,rectangle,-5.333314419,-1.07288E-05,1,0,0,-5.333314419,-1.07288E-05,1,0,0,0,59,59,132,1,,,,,,,,
,,,,,,,,,,,,,FF,,,,,,,,0.4488,,,,,,,,,,,,,,,,,,,,,,6102d6071567279a56ff3479,6103696b1f748f2d73008842,2021-07-29_22h52.55.441,Simcolourproject_2stim_asymm_v5,2020.2.10,Win32,60,61025ae37ef11b136ea224fe,,,,,,,,,214,78.0000214,31.33330319,1,0,0,response1disk,,6,-8.666607161,-6.000010908,1,0,0,rectangle,-8.666607161,-6.000010908,1,0,0,-8.666607161,-6.000010908,1,0,0,0,60,60,117,1,,,,,,,,
,,,,,,,,,,,,,FF,,,,,,,,0.4152,,,,,,,,,,,,,,,,,,,,,,6102d6071567279a56ff3479,6103696b1f748f2d73008842,2021-07-29_22h52.55.441,Simcolourproject_2stim_asymm_v5,2020.2.10,Win32,60,61025ae37ef11b136ea224fe,,,,,,,,,2712,98.66668868,47.33330367,1,0,0,response1disk,,6,6.666685939,-6.000010908,1,0,0,rectangle,6.666685939,-6.000010908,1,0,0,6.666685939,-6.000010908,1,0,0,0,61,61,1,1,,,,,,,,
,,,,,,,,,,,,,FF,,,,,,,,0.4327,,,,,,,,,,,,,,,,,,,,,,6102d6071567279a56ff3479,6103696b1f748f2d73008842,2021-07-29_22h52.55.441,Simcolourproject_2stim_asymm_v5,2020.2.10,Win32,60,61025ae37ef11b136ea224fe,,,,,,,,,2436,60.00002086,-51.33334559,1,0,0,response3disk,,5,6.666685939,8.666656196,1,0,0,rectangle,6.666685939,8.666656196,1,0,0,6.666685939,8.666656196,1,0,0,0,62,62,94,1,,,,,,,,
,,,,,,,,,,,,,FF,,,,,,,,0.3827,,,,,,,,,,,,,,,,,,,,,,6102d6071567279a56ff3479,6103696b1f748f2d73008842,2021-07-29_22h52.55.441,Simcolourproject_2stim_asymm_v5,2020.2.10,Win32,60,61025ae37ef11b136ea224fe,,,,,,,,,284,90.66668844,41.99999052,1,0,0,response1disk,,6,-21.99998158,-6.000010908,1,0,0,rectangle,-21.99998158,-6.000010908,1,0,0,-21.99998158,-6.000010908,1,0,0,0,63,63,51,1,,,,,,,,
,,,,,,,,,,,,,FF,,,,,,,,0.1664,,,,,,,,,,,,,,,,,,,,,,6102d6071567279a56ff3479,6103696b1f748f2d73008842,2021-07-29_22h52.55.441,Simcolourproject_2stim_asymm_v5,2020.2.10,Win32,60,61025ae37ef11b136ea224fe,,,,,,,,,3261,54.66668737,-33.33334506,1,0,0,response3disk,,5,-3.999981046,7.99998951,1,0,0,rectangle,-3.999981046,7.99998951,1,0,0,-3.999981046,7.99998951,1,0,0,0,64,64,55,1,,,,,,,,
,,,,,,,,,,,,,FF,,,,,,,,0.1334,,,,,,,,,,,,,,,,,,,,,,6102d6071567279a56ff3479,6103696b1f748f2d73008842,2021-07-29_22h52.55.441,Simcolourproject_2stim_asymm_v5,2020.2.10,Win32,60,61025ae37ef11b136ea224fe,,,,,,,,,2450,68.66668779,35.33330331,1,0,0,response1disk,,6,2.66668582,1.333322644,1,0,0,rectangle,2.66668582,1.333322644,1,0,0,2.66668582,1.333322644,1,0,0,0,65,65,11,1,,,,,,,,
,,,,,,,,,,,,,FF,,,,,,,,0.1828,,,,,,,,,,,,,,,,,,,,,,6102d6071567279a56ff3479,6103696b1f748f2d73008842,2021-07-29_22h52.55.441,Simcolourproject_2stim_asymm_v5,2020.2.10,Win32,60,61025ae37ef11b136ea224fe,,,,,,,,,1805,46.00002044,-27.33334488,1,0,0,response3disk,,5,-9.999981225,9.333322883,1,0,0,rectangle,-9.999981225,9.333322883,1,0,0,-9.999981225,9.333322883,1,0,0,0,66,66,133,1,,,,,,,,
,,,,,,,,,,,,,FF,,,,,,,,0.1335,,,,,,,,,,,,,,,,,,,,,,6102d6071567279a56ff3479,6103696b1f748f2d73008842,2021-07-29_22h52.55.441,Simcolourproject_2stim_asymm_v5,2020.2.10,Win32,60,61025ae37ef11b136ea224fe,,,,,,,,,1882,84.66668826,55.33330391,1,0,0,response1disk,,6,-0.666606923,11.33332294,1,0,0,rectangle,33.33339409,-78.66667974,1,0,0,6.666685939,10.66665626,1,0,0,0,67,67,39,1,,response3disk_3,TRUE,4,4,"[271,92,198,189,250,5,207,312,68,238,312,307,298,27,253,251,187,3,274,77]",2.5153,rectangle
,,,,,,,,,,,,,FF,,,,,,,,0.5829,,,,,,,,,,,,,,,,,,,,,,6102d6071567279a56ff3479,6103696b1f748f2d73008842,2021-07-29_22h52.55.441,Simcolourproject_2stim_asymm_v5,2020.2.10,Win32,60,61025ae37ef11b136ea224fe,,,,,,,,,209,53.333354,-34.66667843,1,0,0,response3disk,,5,26.00001985,7.333322823,1,0,0,rectangle,26.00001985,7.333322823,1,0,0,26.00001985,7.333322823,1,0,0,0,68,68,90,1,,,,,,,,
,,,,,,,,,,,,,FF,,,,,,,,0.1002,,,,,,,,,,,,,,,,,,,,,,6102d6071567279a56ff3479,6103696b1f748f2d73008842,2021-07-29_22h52.55.441,Simcolourproject_2stim_asymm_v5,2020.2.10,Win32,60,61025ae37ef11b136ea224fe,,,,,,,,,739,44.66668707,34.66665697,1,0,0,response1disk,,6,6.000019252,3.99998939,1,0,0,rectangle,6.000019252,3.99998939,1,0,0,6.000019252,3.99998939,1,0,0,0,69,69,130,1,,,,,,,,
,,,,,,,,,,,,,FF,,,,,,,,0.2338,,,,,,,,,,,,,,,,,,,,,,6102d6071567279a56ff3479,6103696b1f748f2d73008842,2021-07-29_22h52.55.441,Simcolourproject_2stim_asymm_v5,2020.2.10,Win32,60,61025ae37ef11b136ea224fe,,,,,,,,,2443,60.66668755,27.33330307,1,0,0,response1disk,,6,4.666685879,8.666656196,1,0,0,rectangle,4.666685879,8.666656196,1,0,0,4.666685879,8.666656196,1,0,0,0,70,70,129,1,,,,,,,,
,,,,,,,,,,,,,FF,,,,,,,,2.9125,,,,,,,,,,,,,,,,,,,,,,6102d6071567279a56ff3479,6103696b1f748f2d73008842,2021-07-29_22h52.55.441,Simcolourproject_2stim_asymm_v5,2020.2.10,Win32,60,61025ae37ef11b136ea224fe,,,,,,,,,2294,-52.66660847,-66.66667938,1,0,0,response5disk,,3,-9.999981225,0.666655958,1,0,0,rectangle,-9.999981225,0.666655958,1,0,0,-9.999981225,0.666655958,1,0,0,0,71,71,46,1,,,,,,,,
,,,,,,,,,,,,,FF,,,,,,,,1.869,,,,,,,,,,,,,,,,,,,,,,6102d6071567279a56ff3479,6103696b1f748f2d73008842,2021-07-29_22h52.55.441,Simcolourproject_2stim_asymm_v5,2020.2.10,Win32,60,61025ae37ef11b136ea224fe,,,,,,,,,584,23.33339379,-67.33334607,1,0,0,response3disk,,4,8.666685998,5.333322763,1,0,0,rectangle,8.666685998,5.333322763,1,0,0,8.666685998,5.333322763,1,0,0,0,72,72,26,1,,,,,,,,
,,,,,,,,,,,,,FF,,,,,,,,0.6337,,,,,,,,,,,,,,,,,,,,,,6102d6071567279a56ff3479,6103696b1f748f2d73008842,2021-07-29_22h52.55.441,Simcolourproject_2stim_asymm_v5,2020.2.10,Win32,60,61025ae37ef11b136ea224fe,,,,,,,,,1570,62.66668761,-73.33334625,1,0,0,response3disk,,4,22.00001973,-9.33334434,1,0,0,rectangle,22.00001973,-9.33334434,1,0,0,22.00001973,-9.33334434,1,0,0,0,73,73,7,1,,,,,,,,
,,,,,,,,,,,,,FF,,,,,,,,0.2961,,,,,,,,,,,,,,,,,,,,,,6102d6071567279a56ff3479,6103696b1f748f2d73008842,2021-07-29_22h52.55.441,Simcolourproject_2stim_asymm_v5,2020.2.10,Win32,60,61025ae37ef11b136ea224fe,,,,,,,,,2774,50.00002056,-32.00001168,1,0,0,response3disk,,5,-4.666607042,8.666656196,1,0,0,rectangle,-4.666607042,8.666656196,1,0,0,-4.666607042,8.666656196,1,0,0,0,74,74,35,1,,,,,,,,
,,,,,,,,,,,,,FF,,,,,,,,0.5034,,,,,,,,,,,,,,,,,,,,,,6102d6071567279a56ff3479,6103696b1f748f2d73008842,2021-07-29_22h52.55.441,Simcolourproject_2stim_asymm_v5,2020.2.10,Win32,60,61025ae37ef11b136ea224fe,,,,,,,,,1999,69.33335447,76.66665822,1,0,0,response1disk,,7,18.00001961,7.333322823,1,0,0,rectangle,18.00001961,7.333322823,1,0,0,18.00001961,7.333322823,1,0,0,0,75,75,116,1,,,,,,,,
,,,,,,,,,,,,,FF,,,,,,,,0.383,,,,,,,,,,,,,,,,,,,,,,6102d6071567279a56ff3479,6103696b1f748f2d73008842,2021-07-29_22h52.55.441,Simcolourproject_2stim_asymm_v5,2020.2.10,Win32,60,61025ae37ef11b136ea224fe,,,,,,,,,653,69.33335447,-22.66667807,1,0,0,response3disk,,5,2.66668582,5.99998945,1,0,0,rectangle,-45.33331561,105.3333257,1,0,0,-4.666607042,-8.000010967,1,0,0,0,76,76,4,1,,response7disk_3,TRUE,0,0,"[271,92,198,189,250,5,207,312,68,238,312,307,298,27,253,251,187,3,274,77]",1.7986,rectangle
,,,,,,,,,,,,,FF,,,,,,,,0.5656,,,,,,,,,,,,,,,,,,,,,,6102d6071567279a56ff3479,6103696b1f748f2d73008842,2021-07-29_22h52.55.441,Simcolourproject_2stim_asymm_v5,2020.2.10,Win32,60,61025ae37ef11b136ea224fe,,,,,,,,,4322,104.6666889,-22.66667807,1,0,0,response3disk,,5,8.000019312,6.666656137,1,0,0,rectangle,8.000019312,6.666656137,1,0,0,8.000019312,6.666656137,1,0,0,0,77,77,12,1,,,,,,,,
,,,,,,,,,,,,,FF,,,,,,,,0.2327,,,,,,,,,,,,,,,,,,,,,,6102d6071567279a56ff3479,6103696b1f748f2d73008842,2021-07-29_22h52.55.441,Simcolourproject_2stim_asymm_v5,2020.2.10,Win32,60,61025ae37ef11b136ea224fe,,,,,,,,,1925,57.33335412,-39.33334523,1,0,0,response3disk,,5,18.00001961,8.666656196,1,0,0,rectangle,18.00001961,8.666656196,1,0,0,18.00001961,8.666656196,1,0,0,0,78,78,112,1,,,,,,,,
,,,,,,,,,,,,,FF,,,,,,,,0.2833,,,,,,,,,,,,,,,,,,,,,,6102d6071567279a56ff3479,6103696b1f748f2d73008842,2021-07-29_22h52.55.441,Simcolourproject_2stim_asymm_v5,2020.2.10,Win32,60,61025ae37ef11b136ea224fe,,,,,,,,,671,78.66668808,-49.33334553,1,0,0,response3disk,,5,12.00001943,1.333322644,1,0,0,rectangle,12.00001943,1.333322644,1,0,0,12.00001943,1.333322644,1,0,0,0,79,79,37,1,,,,,,,,
,,,,,,,,,,,,,FF,,,,,,,,0.2495,,,,,,,,,,,,,,,,,,,,,,6102d6071567279a56ff3479,6103696b1f748f2d73008842,2021-07-29_22h52.55.441,Simcolourproject_2stim_asymm_v5,2020.2.10,Win32,60,61025ae37ef11b136ea224fe,,,,,,,,,2056,74.66668797,-42.00001198,1,0,0,response3disk,,5,6.000019252,-10.00001103,1,0,0,rectangle,6.000019252,-10.00001103,1,0,0,6.000019252,-10.00001103,1,0,0,0,80,80,126,1,,,,,,,,
,,,,,,,,,,,,,FF,,,,,,,,0.6495,,,,,,,,,,,,,,,,,,,,,,6102d6071567279a56ff3479,6103696b1f748f2d73008842,2021-07-29_22h52.55.441,Simcolourproject_2stim_asymm_v5,2020.2.10,Win32,60,61025ae37ef11b136ea224fe,,,,,,,,,4018,56.00002074,-32.66667837,1,0,0,response3disk,,5,20.66668636,3.333322704,1,0,0,rectangle,20.66668636,3.333322704,1,0,0,20.66668636,3.333322704,1,0,0,0,81,81,33,1,,,,,,,,
,,,,,,,,,,,,,FF,,,,,,,,0.4132,,,,,,,,,,,,,,,,,,,,,,6102d6071567279a56ff3479,6103696b1f748f2d73008842,2021-07-29_22h52.55.441,Simcolourproject_2stim_asymm_v5,2020.2.10,Win32,60,61025ae37ef11b136ea224fe,,,,,,,,,1523,101.3333554,-54.66667902,1,0,0,response3disk,,5,-1.999980986,1.999989331,1,0,0,rectangle,-1.999980986,1.999989331,1,0,0,-1.999980986,1.999989331,1,0,0,0,82,82,20,1,,,,,,,,
,,,,,,,,,,,,,FF,,,,,,,,1.1498,,,,,,,,,,,,,,,,,,,,,,6102d6071567279a56ff3479,6103696b1f748f2d73008842,2021-07-29_22h52.55.441,Simcolourproject_2stim_asymm_v5,2020.2.10,Win32,60,61025ae37ef11b136ea224fe,,,,,,,,,1005,-35.999982,-79.33334643,1,0,0,response5disk,,3,4.666685879,6.666656137,1,0,0,rectangle,4.666685879,6.666656137,1,0,0,4.666685879,6.666656137,1,0,0,0,83,83,57,1,,,,,,,,
,,,,,,,,,,,,,FF,,,,,,,,0.4627,,,,,,,,,,,,,,,,,,,,,,6102d6071567279a56ff3479,6103696b1f748f2d73008842,2021-07-29_22h52.55.441,Simcolourproject_2stim_asymm_v5,2020.2.10,Win32,60,61025ae37ef11b136ea224fe,,,,,,,,,1159,-44.66660823,-75.33334631,1,0,0,response5disk,,3,-17.99998146,-4.000010848,1,0,0,rectangle,-17.99998146,-4.000010848,1,0,0,-17.99998146,-4.000010848,1,0,0,0,84,84,72,1,,,,,,,,
,,,,,,,,,,,,,FF,,,,,,,,0.7321,,,,,,,,,,,,,,,,,,,,,,6102d6071567279a56ff3479,6103696b1f748f2d73008842,2021-07-29_22h52.55.441,Simcolourproject_2stim_asymm_v5,2020.2.10,Win32,60,61025ae37ef11b136ea224fe,,,,,,,,,3200,-45.33331561,-65.33334601,1,0,0,response5disk,,3,-4.666607042,-2.000010788,1,0,0,rectangle,-4.666607042,-2.000010788,1,0,0,-4.666607042,-2.000010788,1,0,0,0,85,85,111,1,,,,,,,,
,,,,,,,,,,,,,FF,,,,,,,,3.9656,,,,,,,,,,,,,,,,,,,,,,6102d6071567279a56ff3479,6103696b1f748f2d73008842,2021-07-29_22h52.55.441,Simcolourproject_2stim_asymm_v5,2020.2.10,Win32,60,61025ae37ef11b136ea224fe,,,,,,,,,1284,56.66668743,-35.33334512,1,0,0,response3disk,,5,0.66668576,-4.666677535,1,0,0,rectangle,0.66668576,-4.666677535,1,0,0,0.66668576,-4.666677535,1,0,0,0,86,86,14,1,,,,,,,,
,,,,,,,,,,,,,FF,,,,,,,,2.0156,,,,,,,,,,,,,,,,,,,,,,6102d6071567279a56ff3479,6103696b1f748f2d73008842,2021-07-29_22h52.55.441,Simcolourproject_2stim_asymm_v5,2020.2.10,Win32,60,61025ae37ef11b136ea224fe,,,,,,,,,675,97.33335531,31.99999022,1,0,0,response1disk,,6,-19.99998152,1.999989331,1,0,0,rectangle,-19.99998152,1.999989331,1,0,0,-19.99998152,1.999989331,1,0,0,0,87,87,23,1,,,,,,,,
,,,,,,,,,,,,,FF,,,,,,,,0.4306,,,,,,,,,,,,,,,,,,,,,,6102d6071567279a56ff3479,6103696b1f748f2d73008842,2021-07-29_22h52.55.441,Simcolourproject_2stim_asymm_v5,2020.2.10,Win32,60,61025ae37ef11b136ea224fe,,,,,,,,,283,54.00002068,33.99999028,1,0,0,response1disk,,6,-5.333314419,-1.07288E-05,1,0,0,rectangle,-5.333314419,-1.07288E-05,1,0,0,-5.333314419,-1.07288E-05,1,0,0,0,88,88,62,1,,,,,,,,
,,,,,,,,,,,,,FF,,,,,,,,1.6164,,,,,,,,,,,,,,,,,,,,,,6102d6071567279a56ff3479,6103696b1f748f2d73008842,2021-07-29_22h52.55.441,Simcolourproject_2stim_asymm_v5,2020.2.10,Win32,60,61025ae37ef11b136ea224fe,,,,,,,,,770,84.00002158,31.33330319,1,0,0,response1disk,,6,12.00001943,-6.666677594,1,0,0,rectangle,12.00001943,-6.666677594,1,0,0,12.00001943,-6.666677594,1,0,0,0,89,89,100,1,,,,,,,,
,,,,,,,,,,,,,FF,,,,,,,,1.0997,,,,,,,,,,,,,,,,,,,,,,6102d6071567279a56ff3479,6103696b1f748f2d73008842,2021-07-29_22h52.55.441,Simcolourproject_2stim_asymm_v5,2020.2.10,Win32,60,61025ae37ef11b136ea224fe,,,,,,,,,1714,74.00002128,34.66665697,1,0,0,response1disk,,6,-13.33331466,-10.00001103,1,0,0,rectangle,-13.33331466,-10.00001103,1,0,0,-13.33331466,-10.00001103,1,0,0,0,90,90,50,1,,,,,,,,
,,,,,,,,,,,,,FF,,,,,,,,0.3999,,,,,,,,,,,,,,,,,,,,,,6102d6071567279a56ff3479,6103696b1f748f2d73008842,2021-07-29_22h52.55.441,Simcolourproject_2stim_asymm_v5,2020.2.10,Win32,60,61025ae37ef11b136ea224fe,,,,,,,,,2163,88.0000217,33.33330325,1,0,0,response1disk,,6,4.666685879,-2.666677475,1,0,0,rectangle,73.33335459,-33.33334506,1,0,0,-1.999980986,1.999989331,1,0,0,0,91,91,87,1,,response3disk_3,TRUE,5,5,"[271,92,198,189,250,5,207,312,68,238,312,307,298,27,253,251,187,3,274,77]",2.054,rectangle
,,,,,,,,,,,,,FF,,,,,,,,3.1661,,,,,,,,,,,,,,,,,,,,,,6102d6071567279a56ff3479,6103696b1f748f2d73008842,2021-07-29_22h52.55.441,Simcolourproject_2stim_asymm_v5,2020.2.10,Win32,60,61025ae37ef11b136ea224fe,,,,,,,,,1897,36.00002015,-66.0000127,1,0,0,response3disk,,4,11.33339343,-10.66667771,1,0,0,rectangle,11.33339343,-10.66667771,1,0,0,11.33339343,-10.66667771,1,0,0,0,92,92,19,1,,,,,,,,
,,,,,,,,,,,,,FF,,,,,,,,2.1994,,,,,,,,,,,,,,,,,,,,,,6102d6071567279a56ff3479,6103696b1f748f2d73008842,2021-07-29_22h52.55.441,Simcolourproject_2stim_asymm_v5,2020.2.10,Win32,60,61025ae37ef11b136ea224fe,,,,,,,,,3768,68.66668779,-19.33334464,1,0,0,response3disk,,5,-2.666606983,0.666655958,1,0,0,rectangle,-2.666606983,0.666655958,1,0,0,-2.666606983,0.666655958,1,0,0,0,93,93,134,1,,,,,,,,
,,,,,,,,,,,,,FF,,,,,,,,0.4496,,,,,,,,,,,,,,,,,,,,,,6102d6071567279a56ff3479,6103696b1f748f2d73008842,2021-07-29_22h52.55.441,Simcolourproject_2stim_asymm_v5,2020.2.10,Win32,60,61025ae37ef11b136ea224fe,,,,,,,,,206,74.66668797,-48.00001216,1,0,0,response3disk,,5,4.000019193,6.666656137,1,0,0,rectangle,4.000019193,6.666656137,1,0,0,4.000019193,6.666656137,1,0,0,0,94,94,144,1,,,,,,,,
,,,,,,,,,,,,,FF,,,,,,,,0.3325,,,,,,,,,,,,,,,,,,,,,,6102d6071567279a56ff3479,6103696b1f748f2d73008842,2021-07-29_22h52.55.441,Simcolourproject_2stim_asymm_v5,2020.2.10,Win32,60,61025ae37ef11b136ea224fe,,,,,,,,,4128,59.33335418,-38.00001186,1,0,0,response3disk,,5,22.66668642,-8.000010967,1,0,0,rectangle,22.66668642,-8.000010967,1,0,0,22.66668642,-8.000010967,1,0,0,0,95,95,83,1,,,,,,,,
,,,,,,,,,,,,,FF,,,,,,,,0.2499,,,,,,,,,,,,,,,,,,,,,,6102d6071567279a56ff3479,6103696b1f748f2d73008842,2021-07-29_22h52.55.441,Simcolourproject_2stim_asymm_v5,2020.2.10,Win32,60,61025ae37ef11b136ea224fe,,,,,,,,,440,52.66668731,-34.00001174,1,0,0,response3disk,,5,15.33339355,9.999989569,1,0,0,rectangle,15.33339355,9.999989569,1,0,0,15.33339355,9.999989569,1,0,0,0,96,96,41,1,,,,,,,,
,,,,,,,,,,,,,FF,,,,,,,,0.2665,,,,,,,,,,,,,,,,,,,,,,6102d6071567279a56ff3479,6103696b1f748f2d73008842,2021-07-29_22h52.55.441,Simcolourproject_2stim_asymm_v5,2020.2.10,Win32,60,61025ae37ef11b136ea224fe,,,,,,,,,3125,55.33335406,-30.66667831,1,0,0,response3disk,,5,22.66668642,-1.333344102,1,0,0,rectangle,22.66668642,-1.333344102,1,0,0,22.66668642,-1.333344102,1,0,0,0,97,97,76,1,,,,,,,,
,,,,,,,,,,,,,FF,,,,,,,,0.3496,,,,,,,,,,,,,,,,,,,,,,6102d6071567279a56ff3479,6103696b1f748f2d73008842,2021-07-29_22h52.55.441,Simcolourproject_2stim_asymm_v5,2020.2.10,Win32,60,61025ae37ef11b136ea224fe,,,,,,,,,966,52.66668731,-34.00001174,1,0,0,response3disk,,5,14.00001949,-0.666677415,1,0,0,rectangle,14.00001949,-0.666677415,1,0,0,14.00001949,-0.666677415,1,0,0,0,98,98,0,1,,,,,,,,
,,,,,,,,,,,,,FF,,,,,,,,0.3825,,,,,,,,,,,,,,,,,,,,,,6102d6071567279a56ff3479,6103696b1f748f2d73008842,2021-07-29_22h52.55.441,Simcolourproject_2stim_asymm_v5,2020.2.10,Win32,60,61025ae37ef11b136ea224fe,,,,,,,,,2937,56.00002074,-46.66667879,1,0,0,response3disk,,5,6.000019252,7.99998951,1,0,0,rectangle,6.000019252,7.99998951,1,0,0,6.000019252,7.99998951,1,0,0,0,99,99,107,1,,,,,,,,
,,,,,,,,,,,,,FF,,,,,,,,0.4332,,,,,,,,,,,,,,,,,,,,,,6102d6071567279a56ff3479,6103696b1f748f2d73008842,2021-07-29_22h52.55.441,Simcolourproject_2stim_asymm_v5,2020.2.10,Win32,60,61025ae37ef11b136ea224fe,,,,,,,,,2362,70.66668785,17.99998981,1,0,0,response1disk,,6,2.000019133,-11.3333444,1,0,0,rectangle,2.000019133,-11.3333444,1,0,0,2.000019133,-11.3333444,1,0,0,0,100,100,22,1,,,,,,,,
,,,,,,,,,,,,,FF,,,,,,,,0.3665,,,,,,,,,,,,,,,,,,,,,,6102d6071567279a56ff3479,6103696b1f748f2d73008842,2021-07-29_22h52.55.441,Simcolourproject_2stim_asymm_v5,2020.2.10,Win32,60,61025ae37ef11b136ea224fe,,,,,,,,,1231,43.3333537,-56.66667908,1,0,0,response3disk,,4,0.66668576,-0.666677415,1,0,0,rectangle,0.66668576,-0.666677415,1,0,0,0.66668576,-0.666677415,1,0,0,0,101,101,30,1,,,,,,,,
,,,,,,,,,,,,,FF,,,,,,,,0.4166,,,,,,,,,,,,,,,,,,,,,,6102d6071567279a56ff3479,6103696b1f748f2d73008842,2021-07-29_22h52.55.441,Simcolourproject_2stim_asymm_v5,2020.2.10,Win32,60,61025ae37ef11b136ea224fe,,,,,,,,,3785,-35.33331531,-60.6666792,1,0,0,response5disk,,3,-1.999980986,-2.000010788,1,0,0,rectangle,-1.999980986,-2.000010788,1,0,0,-1.999980986,-2.000010788,1,0,0,0,102,102,93,1,,,,,,,,
,,,,,,,,,,,,,FF,,,,,,,,0.3329,,,,,,,,,,,,,,,,,,,,,,6102d6071567279a56ff3479,6103696b1f748f2d73008842,2021-07-29_22h52.55.441,Simcolourproject_2stim_asymm_v5,2020.2.10,Win32,60,61025ae37ef11b136ea224fe,,,,,,,,,2320,71.33335453,-20.66667801,1,0,0,response3disk,,5,3.333393196,-4.666677535,1,0,0,rectangle,3.333393196,-4.666677535,1,0,0,3.333393196,-4.666677535,1,0,0,0,103,103,63,1,,,,,,,,
,,,,,,,,,,,,,FF,,,,,,,,0.2656,,,,,,,,,,,,,,,,,,,,,,6102d6071567279a56ff3479,6103696b1f748f2d73008842,2021-07-29_22h52.55.441,Simcolourproject_2stim_asymm_v5,2020.2.10,Win32,60,61025ae37ef11b136ea224fe,,,,,,,,,2857,46.00002044,-59.33334583,1,0,0,response3disk,,4,10.00001937,1.333322644,1,0,0,rectangle,10.00001937,1.333322644,1,0,0,10.00001937,1.333322644,1,0,0,0,104,104,140,1,,,,,,,,
,,,,,,,,,,,,,FF,,,,,,,,0.3985,,,,,,,,,,,,,,,,,,,,,,6102d6071567279a56ff3479,6103696b1f748f2d73008842,2021-07-29_22h52.55.441,Simcolourproject_2stim_asymm_v5,2020.2.10,Win32,60,61025ae37ef11b136ea224fe,,,,,,,,,895,67.33335441,27.33330307,1,0,0,response1disk,,6,15.33339355,-5.333344221,1,0,0,rectangle,15.33339355,-5.333344221,1,0,0,15.33339355,-5.333344221,1,0,0,0,105,105,138,1,,,,,,,,
,,,,,,,,,,,,,FF,,,,,,,,0.4158,,,,,,,,,,,,,,,,,,,,,,6102d6071567279a56ff3479,6103696b1f748f2d73008842,2021-07-29_22h52.55.441,Simcolourproject_2stim_asymm_v5,2020.2.10,Win32,60,61025ae37ef11b136ea224fe,,,,,,,,,2352,-79.99998331,-36.66667849,1,0,0,response5disk,,2,12.00001943,-9.33334434,1,0,0,rectangle,12.00001943,-9.33334434,1,0,0,12.00001943,-9.33334434,1,0,0,0,106,106,110,1,,,,,,,,
,,,,,,,,,,,,,FF,,,,,,,,0.233,,,,,,,,,,,,,,,,,,,,,,6102d6071567279a56ff3479,6103696b1f748f2d73008842,2021-07-29_22h52.55.441,Simcolourproject_2stim_asymm_v5,2020.2.10,Win32,60,61025ae37ef11b136ea224fe,,,,,,,,,41,71.33335453,-35.33334512,1,0,0,response3disk,,5,9.333393375,-2.666677475,1,0,0,rectangle,9.333393375,-2.666677475,1,0,0,9.333393375,-2.666677475,1,0,0,0,107,107,102,1,,,,,,,,
,,,,,,,,,,,,,FF,,,,,,,,0.2163,,,,,,,,,,,,,,,,,,,,,,6102d6071567279a56ff3479,6103696b1f748f2d73008842,2021-07-29_22h52.55.441,Simcolourproject_2stim_asymm_v5,2020.2.10,Win32,60,61025ae37ef11b136ea224fe,,,,,,,,,3391,42.66668701,-69.33334613,1,0,0,response3disk,,4,8.666685998,-3.333344162,1,0,0,rectangle,8.666685998,-3.333344162,1,0,0,8.666685998,-3.333344162,1,0,0,0,108,108,25,1,,,,,,,,
,,,,,,,,,,,,,FF,,,,,,,,0.2165,,,,,,,,,,,,,,,,,,,,,,6102d6071567279a56ff3479,6103696b1f748f2d73008842,2021-07-29_22h52.55.441,Simcolourproject_2stim_asymm_v5,2020.2.10,Win32,60,61025ae37ef11b136ea224fe,,,,,,,,,2088,60.66668755,-22.00001138,1,0,0,response3disk,,5,4.000019193,7.333322823,1,0,0,rectangle,4.000019193,7.333322823,1,0,0,4.000019193,7.333322823,1,0,0,0,109,109,86,1,,,,,,,,
,,,,,,,,,,,,,FF,,,,,,,,0.349,,,,,,,,,,,,,,,,,,,,,,6102d6071567279a56ff3479,6103696b1f748f2d73008842,2021-07-29_22h52.55.441,Simcolourproject_2stim_asymm_v5,2020.2.10,Win32,60,61025ae37ef11b136ea224fe,,,,,,,,,3182,32.66668671,-58.66667914,1,0,0,response3disk,,4,6.666685939,-3.333344162,1,0,0,rectangle,6.666685939,-3.333344162,1,0,0,6.666685939,-3.333344162,1,0,0,0,110,110,18,1,,,,,,,,
,,,,,,,,,,,,,FF,,,,,,,,0.283,,,,,,,,,,,,,,,,,,,,,,6102d6071567279a56ff3479,6103696b1f748f2d73008842,2021-07-29_22h52.55.441,Simcolourproject_2stim_asymm_v5,2020.2.10,Win32,60,61025ae37ef11b136ea224fe,,,,,,,,,3559,78.0000214,-36.66667849,1,0,0,response3disk,,5,2.000019133,-6.000010908,1,0,0,rectangle,2.000019133,-6.000010908,1,0,0,2.000019133,-6.000010908,1,0,0,0,111,111,38,1,,,,,,,,
,,,,,,,,,,,,,FF,,,,,,,,1.6295,,,,,,,,,,,,,,,,,,,,,,6102d6071567279a56ff3479,6103696b1f748f2d73008842,2021-07-29_22h52.55.441,Simcolourproject_2stim_asymm_v5,2020.2.10,Win32,60,61025ae37ef11b136ea224fe,,,,,,,,,3877,82.00002152,-39.33334523,1,0,0,response3disk,,5,-15.33331472,11.33332294,1,0,0,rectangle,-15.33331472,11.33332294,1,0,0,-15.33331472,11.33332294,1,0,0,0,112,112,59,1,,,,,,,,
,,,,,,,,,,,,,FF,,,,,,,,0.2129,,,,,,,,,,,,,,,,,,,,,,6102d6071567279a56ff3479,6103696b1f748f2d73008842,2021-07-29_22h52.55.441,Simcolourproject_2stim_asymm_v5,2020.2.10,Win32,60,61025ae37ef11b136ea224fe,,,,,,,,,2698,72.66668791,-54.00001234,1,0,0,response3disk,,5,6.666685939,-3.333344162,1,0,0,rectangle,6.666685939,-3.333344162,1,0,0,6.666685939,-3.333344162,1,0,0,0,113,113,139,1,,,,,,,,
,,,,,,,,,,,,,FF,,,,,,,,0.2297,,,,,,,,,,,,,,,,,,,,,,6102d6071567279a56ff3479,6103696b1f748f2d73008842,2021-07-29_22h52.55.441,Simcolourproject_2stim_asymm_v5,2020.2.10,Win32,60,61025ae37ef11b136ea224fe,,,,,,,,,765,68.66668779,-52.66667897,1,0,0,response3disk,,5,4.666685879,7.99998951,1,0,0,rectangle,4.666685879,7.99998951,1,0,0,4.666685879,7.99998951,1,0,0,0,114,114,6,1,,,,,,,,
,,,,,,,,,,,,,FF,,,,,,,,0.2998,,,,,,,,,,,,,,,,,,,,,,6102d6071567279a56ff3479,6103696b1f748f2d73008842,2021-07-29_22h52.55.441,Simcolourproject_2stim_asymm_v5,2020.2.10,Win32,60,61025ae37ef11b136ea224fe,,,,,,,,,1896,82.00002152,-58.00001246,1,0,0,response3disk,,5,-1.999980986,-0.666677415,1,0,0,rectangle,-1.999980986,-0.666677415,1,0,0,-1.999980986,-0.666677415,1,0,0,0,115,115,74,1,,,,,,,,
,,,,,,,,,,,,,FF,,,,,,,,0.4173,,,,,,,,,,,,,,,,,,,,,,6102d6071567279a56ff3479,6103696b1f748f2d73008842,2021-07-29_22h52.55.441,Simcolourproject_2stim_asymm_v5,2020.2.10,Win32,60,61025ae37ef11b136ea224fe,,,,,,,,,3374,-45.9999823,-63.33334595,1,0,0,response5disk,,3,6.000019252,-4.666677535,1,0,0,rectangle,6.000019252,-4.666677535,1,0,0,6.000019252,-4.666677535,1,0,0,0,116,116,91,1,,,,,,,,
,,,,,,,,,,,,,FF,,,,,,,,0.397,,,,,,,,,,,,,,,,,,,,,,6102d6071567279a56ff3479,6103696b1f748f2d73008842,2021-07-29_22h52.55.441,Simcolourproject_2stim_asymm_v5,2020.2.10,Win32,60,61025ae37ef11b136ea224fe,,,,,,,,,4062,-49.99998242,-56.66667908,1,0,0,response5disk,,3,-13.33331466,1.333322644,1,0,0,rectangle,-13.33331466,1.333322644,1,0,0,-13.33331466,1.333322644,1,0,0,0,117,117,58,1,,,,,,,,
,,,,,,,,,,,,,FF,,,,,,,,1.8035,,,,,,,,,,,,,,,,,,,,,,6102d6071567279a56ff3479,6103696b1f748f2d73008842,2021-07-29_22h52.55.441,Simcolourproject_2stim_asymm_v5,2020.2.10,Win32,60,61025ae37ef11b136ea224fe,,,,,,,,,3310,30.66668665,-94.66668022,1,0,0,response3disk,,4,-17.99998146,-2.666677475,1,0,0,rectangle,-17.99998146,-2.666677475,1,0,0,-17.99998146,-2.666677475,1,0,0,0,118,118,148,1,,,,,,,,
,,,,,,,,,,,,,FF,,,,,,,,1.8328,,,,,,,,,,,,,,,,,,,,,,6102d6071567279a56ff3479,6103696b1f748f2d73008842,2021-07-29_22h52.55.441,Simcolourproject_2stim_asymm_v5,2020.2.10,Win32,60,61025ae37ef11b136ea224fe,,,,,,,,,2646,83.33335489,-50.00001222,1,0,0,response3disk,,5,-8.666607161,6.666656137,1,0,0,rectangle,-8.666607161,6.666656137,1,0,0,-8.666607161,6.666656137,1,0,0,0,119,119,153,1,,,,,,,,
,,,,,,,,,,,,,FF,,,,,,,,0.2998,,,,,,,,,,,,,,,,,,,,,,6102d6071567279a56ff3479,6103696b1f748f2d73008842,2021-07-29_22h52.55.441,Simcolourproject_2stim_asymm_v5,2020.2.10,Win32,60,61025ae37ef11b136ea224fe,,,,,,,,,462,75.33335465,-42.00001198,1,0,0,response3disk,,5,10.00001937,-1.333344102,1,0,0,rectangle,10.00001937,-1.333344102,1,0,0,10.00001937,-1.333344102,1,0,0,0,120,120,85,1,,,,,,,,
,,,,,,,,,,,,,FF,,,,,,,,0.3324,,,,,,,,,,,,,,,,,,,,,,6102d6071567279a56ff3479,6103696b1f748f2d73008842,2021-07-29_22h52.55.441,Simcolourproject_2stim_asymm_v5,2020.2.10,Win32,60,61025ae37ef11b136ea224fe,,,,,,,,,3477,-37.33331537,-51.33334559,1,0,0,response5disk,,3,8.000019312,0.666655958,1,0,0,rectangle,8.000019312,0.666655958,1,0,0,8.000019312,0.666655958,1,0,0,0,121,121,66,1,,,,,,,,
,,,,,,,,,,,,,FF,,,,,,,,0.1804,,,,,,,,,,,,,,,,,,,,,,6102d6071567279a56ff3479,6103696b1f748f2d73008842,2021-07-29_22h52.55.441,Simcolourproject_2stim_asymm_v5,2020.2.10,Win32,60,61025ae37ef11b136ea224fe,,,,,,,,,2714,-41.99998218,-65.33334601,1,0,0,response5disk,,3,4.666685879,1.999989331,1,0,0,rectangle,4.666685879,1.999989331,1,0,0,4.666685879,1.999989331,1,0,0,0,122,122,44,1,,,,,,,,
,,,,,,,,,,,,,FF,,,,,,,,0.2161,,,,,,,,,,,,,,,,,,,,,,6102d6071567279a56ff3479,6103696b1f748f2d73008842,2021-07-29_22h52.55.441,Simcolourproject_2stim_asymm_v5,2020.2.10,Win32,60,61025ae37ef11b136ea224fe,,,,,,,,,1336,-44.66660823,-54.00001234,1,0,0,response5disk,,3,3.333393196,-4.666677535,1,0,0,rectangle,3.333393196,-4.666677535,1,0,0,3.333393196,-4.666677535,1,0,0,0,123,123,52,1,,,,,,,,
,,,,,,,,,,,,,FF,,,,,,,,0.2025,,,,,,,,,,,,,,,,,,,,,,6102d6071567279a56ff3479,6103696b1f748f2d73008842,2021-07-29_22h52.55.441,Simcolourproject_2stim_asymm_v5,2020.2.10,Win32,60,61025ae37ef11b136ea224fe,,,,,,,,,1827,-37.33331537,-64.00001264,1,0,0,response5disk,,3,8.000019312,-13.33334446,1,0,0,rectangle,8.000019312,-13.33334446,1,0,0,8.000019312,-13.33334446,1,0,0,0,124,124,105,1,,,,,,,,
,,,,,,,,,,,,,FF,,,,,,,,0.9301,,,,,,,,,,,,,,,,,,,,,,6102d6071567279a56ff3479,6103696b1f748f2d73008842,2021-07-29_22h52.55.441,Simcolourproject_2stim_asymm_v5,2020.2.10,Win32,60,61025ae37ef11b136ea224fe,,,,,,,,,2905,23.33339379,-67.33334607,1,0,0,response3disk,,4,16.00001955,9.333322883,1,0,0,rectangle,16.00001955,9.333322883,1,0,0,16.00001955,9.333322883,1,0,0,0,125,125,2,1,,,,,,,,
,,,,,,,,,,,,,FF,,,,,,,,0.2458,,,,,,,,,,,,,,,,,,,,,,6102d6071567279a56ff3479,6103696b1f748f2d73008842,2021-07-29_22h52.55.441,Simcolourproject_2stim_asymm_v5,2020.2.10,Win32,60,61025ae37ef11b136ea224fe,,,,,,,,,572,64.00002098,-39.33334523,1,0,0,response3disk,,5,16.00001955,-10.66667771,1,0,0,rectangle,16.00001955,-10.66667771,1,0,0,16.00001955,-10.66667771,1,0,0,0,126,126,68,1,,,,,,,,
,,,,,,,,,,,,,FF,,,,,,,,0.2142,,,,,,,,,,,,,,,,,,,,,,6102d6071567279a56ff3479,6103696b1f748f2d73008842,2021-07-29_22h52.55.441,Simcolourproject_2stim_asymm_v5,2020.2.10,Win32,60,61025ae37ef11b136ea224fe,,,,,,,,,2116,52.00002062,-34.00001174,1,0,0,response3disk,,5,12.00001943,-0.666677415,1,0,0,rectangle,12.00001943,-0.666677415,1,0,0,12.00001943,-0.666677415,1,0,0,0,127,127,53,1,,,,,,,,
,,,,,,,,,,,,,FF,,,,,,,,0.2335,,,,,,,,,,,,,,,,,,,,,,6102d6071567279a56ff3479,6103696b1f748f2d73008842,2021-07-29_22h52.55.441,Simcolourproject_2stim_asymm_v5,2020.2.10,Win32,60,61025ae37ef11b136ea224fe,,,,,,,,,998,54.66668737,-32.66667837,1,0,0,response3disk,,5,14.66668618,-12.00001109,1,0,0,rectangle,14.66668618,-12.00001109,1,0,0,14.66668618,-12.00001109,1,0,0,0,128,128,48,1,,,,,,,,
,,,,,,,,,,,,,FF,,,,,,,,0.2999,,,,,,,,,,,,,,,,,,,,,,6102d6071567279a56ff3479,6103696b1f748f2d73008842,2021-07-29_22h52.55.441,Simcolourproject_2stim_asymm_v5,2020.2.10,Win32,60,61025ae37ef11b136ea224fe,,,,,,,,,3323,25.33339385,-51.33334559,1,0,0,response3disk,,4,2.66668582,5.99998945,1,0,0,rectangle,2.66668582,5.99998945,1,0,0,2.66668582,5.99998945,1,0,0,0,129,129,95,1,,,,,,,,
,,,,,,,,,,,,,FF,,,,,,,,0.2331,,,,,,,,,,,,,,,,,,,,,,6102d6071567279a56ff3479,6103696b1f748f2d73008842,2021-07-29_22h52.55.441,Simcolourproject_2stim_asymm_v5,2020.2.10,Win32,60,61025ae37ef11b136ea224fe,,,,,,,,,413,74.00002128,-66.0000127,1,0,0,response3disk,,5,16.00001955,-2.000010788,1,0,0,rectangle,16.00001955,-2.000010788,1,0,0,16.00001955,-2.000010788,1,0,0,0,130,130,121,1,,,,,,,,
,,,,,,,,,,,,,FF,,,,,,,,0.2163,,,,,,,,,,,,,,,,,,,,,,6102d6071567279a56ff3479,6103696b1f748f2d73008842,2021-07-29_22h52.55.441,Simcolourproject_2stim_asymm_v5,2020.2.10,Win32,60,61025ae37ef11b136ea224fe,,,,,,,,,1148,72.66668791,-53.33334565,1,0,0,response3disk,,5,8.666685998,-6.000010908,1,0,0,rectangle,8.666685998,-6.000010908,1,0,0,8.666685998,-6.000010908,1,0,0,0,131,131,17,1,,,,,,,,
,,,,,,,,,,,,,FF,,,,,,,,0.1678,,,,,,,,,,,,,,,,,,,,,,6102d6071567279a56ff3479,6103696b1f748f2d73008842,2021-07-29_22h52.55.441,Simcolourproject_2stim_asymm_v5,2020.2.10,Win32,60,61025ae37ef11b136ea224fe,,,,,,,,,4185,81.33335483,-62.66667926,1,0,0,response3disk,,5,25.33339385,-8.000010967,1,0,0,rectangle,25.33339385,-8.000010967,1,0,0,25.33339385,-8.000010967,1,0,0,0,132,132,15,1,,,,,,,,
,,,,,,,,,,,,,FF,,,,,,,,0.1664,,,,,,,,,,,,,,,,,,,,,,6102d6071567279a56ff3479,6103696b1f748f2d73008842,2021-07-29_22h52.55.441,Simcolourproject_2stim_asymm_v5,2020.2.10,Win32,60,61025ae37ef11b136ea224fe,,,,,,,,,2875,72.00002122,-46.0000121,1,0,0,response3disk,,5,2.000019133,-1.333344102,1,0,0,rectangle,2.000019133,-1.333344102,1,0,0,2.000019133,-1.333344102,1,0,0,0,133,133,40,1,,,,,,,,
,,,,,,,,,,,,,FF,,,,,,,,0.1331,,,,,,,,,,,,,,,,,,,,,,6102d6071567279a56ff3479,6103696b1f748f2d73008842,2021-07-29_22h52.55.441,Simcolourproject_2stim_asymm_v5,2020.2.10,Win32,60,61025ae37ef11b136ea224fe,,,,,,,,,1887,60.00002086,-42.00001198,1,0,0,response3disk,,5,21.33339373,-5.333344221,1,0,0,rectangle,21.33339373,-5.333344221,1,0,0,21.33339373,-5.333344221,1,0,0,0,134,134,101,1,,,,,,,,
,,,,,,,,,,,,,FF,,,,,,,,0.1163,,,,,,,,,,,,,,,,,,,,,,6102d6071567279a56ff3479,6103696b1f748f2d73008842,2021-07-29_22h52.55.441,Simcolourproject_2stim_asymm_v5,2020.2.10,Win32,60,61025ae37ef11b136ea224fe,,,,,,,,,1134,62.00002092,-52.00001228,1,0,0,response3disk,,5,28.00001991,-6.666677594,1,0,0,rectangle,28.00001991,-6.666677594,1,0,0,28.00001991,-6.666677594,1,0,0,0,135,135,137,1,,,,,,,,
,,,,,,,,,,,,,FF,,,,,,,,0.0669,,,,,,,,,,,,,,,,,,,,,,6102d6071567279a56ff3479,6103696b1f748f2d73008842,2021-07-29_22h52.55.441,Simcolourproject_2stim_asymm_v5,2020.2.10,Win32,60,61025ae37ef11b136ea224fe,,,,,,,,,2654,60.66668755,-52.66667897,1,0,0,response3disk,,5,8.000019312,11.99998963,1,0,0,rectangle,8.000019312,11.99998963,1,0,0,8.000019312,11.99998963,1,0,0,0,136,136,84,1,,,,,,,,
,,,,,,,,,,,,,FF,,,,,,,,0.184,,,,,,,,,,,,,,,,,,,,,,6102d6071567279a56ff3479,6103696b1f748f2d73008842,2021-07-29_22h52.55.441,Simcolourproject_2stim_asymm_v5,2020.2.10,Win32,60,61025ae37ef11b136ea224fe,,,,,,,,,3366,75.33335465,-64.66667932,1,0,0,response3disk,,5,14.00001949,6.666656137,1,0,0,rectangle,14.00001949,6.666656137,1,0,0,14.00001949,6.666656137,1,0,0,0,137,137,16,1,,,,,,,,
,,,,,,,,,,,,,FF,,,,,,,,0.1307,,,,,,,,,,,,,,,,,,,,,,6102d6071567279a56ff3479,6103696b1f748f2d73008842,2021-07-29_22h52.55.441,Simcolourproject_2stim_asymm_v5,2020.2.10,Win32,60,61025ae37ef11b136ea224fe,,,,,,,,,1464,57.33335412,-44.66667873,1,0,0,response3disk,,5,15.33339355,9.333322883,1,0,0,rectangle,15.33339355,9.333322883,1,0,0,15.33339355,9.333322883,1,0,0,0,138,138,157,1,,,,,,,,
,,,,,,,,,,,,,FF,,,,,,,,0.4797,,,,,,,,,,,,,,,,,,,,,,6102d6071567279a56ff3479,6103696b1f748f2d73008842,2021-07-29_22h52.55.441,Simcolourproject_2stim_asymm_v5,2020.2.10,Win32,60,61025ae37ef11b136ea224fe,,,,,,,,,3450,49.33335388,59.99999106,1,0,0,response1disk,,7,4.666685879,2.666656017,1,0,0,rectangle,4.666685879,2.666656017,1,0,0,4.666685879,2.666656017,1,0,0,0,139,139,141,1,,,,,,,,
,,,,,,,,,,,,,FF,,,,,,,,0.3391,,,,,,,,,,,,,,,,,,,,,,6102d6071567279a56ff3479,6103696b1f748f2d73008842,2021-07-29_22h52.55.441,Simcolourproject_2stim_asymm_v5,2020.2.10,Win32,60,61025ae37ef11b136ea224fe,,,,,,,,,3614,38.66668689,49.99999076,1,0,0,response1disk,,7,-5.333314419,-4.000010848,1,0,0,rectangle,-5.333314419,-4.000010848,1,0,0,-5.333314419,-4.000010848,1,0,0,0,140,140,109,1,,,,,,,,
,,,,,,,,,,,,,FF,,,,,,,,0.2669,,,,,,,,,,,,,,,,,,,,,,6102d6071567279a56ff3479,6103696b1f748f2d73008842,2021-07-29_22h52.55.441,Simcolourproject_2stim_asymm_v5,2020.2.10,Win32,60,61025ae37ef11b136ea224fe,,,,,,,,,1691,75.33335465,35.33330331,1,0,0,response1disk,,6,12.66668612,-5.333344221,1,0,0,rectangle,12.66668612,-5.333344221,1,0,0,12.66668612,-5.333344221,1,0,0,0,141,141,24,1,,,,,,,,
,,,,,,,,,,,,,FF,,,,,,,,1.5323,,,,,,,,,,,,,,,,,,,,,,6102d6071567279a56ff3479,6103696b1f748f2d73008842,2021-07-29_22h52.55.441,Simcolourproject_2stim_asymm_v5,2020.2.10,Win32,60,61025ae37ef11b136ea224fe,,,,,,,,,1401,70.00002116,-56.0000124,1,0,0,response3disk,,5,7.333393315,-2.000010788,1,0,0,rectangle,7.333393315,-2.000010788,1,0,0,7.333393315,-2.000010788,1,0,0,0,142,142,70,1,,,,,,,,
,,,,,,,,,,,,,FF,,,,,,,,0.2801,,,,,,,,,,,,,,,,,,,,,,6102d6071567279a56ff3479,6103696b1f748f2d73008842,2021-07-29_22h52.55.441,Simcolourproject_2stim_asymm_v5,2020.2.10,Win32,60,61025ae37ef11b136ea224fe,,,,,,,,,2534,68.66668779,-30.66667831,1,0,0,response3disk,,5,5.333393256,9.333322883,1,0,0,rectangle,5.333393256,9.333322883,1,0,0,5.333393256,9.333322883,1,0,0,0,143,143,82,1,,,,,,,,
,,,,,,,,,,,,,FF,,,,,,,,0.3138,,,,,,,,,,,,,,,,,,,,,,6102d6071567279a56ff3479,6103696b1f748f2d73008842,2021-07-29_22h52.55.441,Simcolourproject_2stim_asymm_v5,2020.2.10,Win32,60,61025ae37ef11b136ea224fe,,,,,,,,,3083,84.66668826,-36.66667849,1,0,0,response3disk,,5,2.000019133,-11.3333444,1,0,0,rectangle,2.000019133,-11.3333444,1,0,0,2.000019133,-11.3333444,1,0,0,0,144,144,67,1,,,,,,,,
,,,,,,,,,,,,,FF,,,,,,,,0.2347,,,,,,,,,,,,,,,,,,,,,,6102d6071567279a56ff3479,6103696b1f748f2d73008842,2021-07-29_22h52.55.441,Simcolourproject_2stim_asymm_v5,2020.2.10,Win32,60,61025ae37ef11b136ea224fe,,,,,,,,,794,46.00002044,-64.66667932,1,0,0,response3disk,,4,8.000019312,-1.333344102,1,0,0,rectangle,8.000019312,-1.333344102,1,0,0,8.000019312,-1.333344102,1,0,0,0,145,145,92,1,,,,,,,,
,,,,,,,,,,,,,FF,,,,,,,,0.1965,,,,,,,,,,,,,,,,,,,,,,6102d6071567279a56ff3479,6103696b1f748f2d73008842,2021-07-29_22h52.55.441,Simcolourproject_2stim_asymm_v5,2020.2.10,Win32,60,61025ae37ef11b136ea224fe,,,,,,,,,489,26.66668653,-58.66667914,1,0,0,response3disk,,4,8.000019312,-11.3333444,1,0,0,rectangle,8.000019312,-11.3333444,1,0,0,8.000019312,-11.3333444,1,0,0,0,146,146,34,1,,,,,,,,
,,,,,,,,,,,,,FF,,,,,,,,0.231,,,,,,,,,,,,,,,,,,,,,,6102d6071567279a56ff3479,6103696b1f748f2d73008842,2021-07-29_22h52.55.441,Simcolourproject_2stim_asymm_v5,2020.2.10,Win32,60,61025ae37ef11b136ea224fe,,,,,,,,,960,24.66668648,-68.66667944,1,0,0,response3disk,,4,24.00001979,7.333322823,1,0,0,rectangle,24.00001979,7.333322823,1,0,0,24.00001979,7.333322823,1,0,0,0,147,147,150,1,,,,,,,,
,,,,,,,,,,,,,FF,,,,,,,,0.2336,,,,,,,,,,,,,,,,,,,,,,6102d6071567279a56ff3479,6103696b1f748f2d73008842,2021-07-29_22h52.55.441,Simcolourproject_2stim_asymm_v5,2020.2.10,Win32,60,61025ae37ef11b136ea224fe,,,,,,,,,3551,43.3333537,40.66665715,1,0,0,response1disk,,6,0.66668576,1.999989331,1,0,0,rectangle,0.66668576,1.999989331,1,0,0,0.66668576,1.999989331,1,0,0,0,148,148,113,1,,,,,,,,
,,,,,,,,,,,,,FF,,,,,,,,1.4534,,,,,,,,,,,,,,,,,,,,,,6102d6071567279a56ff3479,6103696b1f748f2d73008842,2021-07-29_22h52.55.441,Simcolourproject_2stim_asymm_v5,2020.2.10,Win32,60,61025ae37ef11b136ea224fe,,,,,,,,,929,29.33339397,79.99999166,1,0,0,response1disk,,7,8.666685998,-7.333344281,1,0,0,rectangle,8.666685998,-7.333344281,1,0,0,8.666685998,-7.333344281,1,0,0,0,149,149,54,1,,,,,,,,
,,,,,,,,,,,,,FF,,,,,,,,1.2332,,,,,,,,,,,,,,,,,,,,,,6102d6071567279a56ff3479,6103696b1f748f2d73008842,2021-07-29_22h52.55.441,Simcolourproject_2stim_asymm_v5,2020.2.10,Win32,60,61025ae37ef11b136ea224fe,,,,,,,,,2817,70.00002116,36.66665703,1,0,0,response1disk,,6,0.66668576,-4.666677535,1,0,0,rectangle,0.66668576,-4.666677535,1,0,0,0.66668576,-4.666677535,1,0,0,0,150,150,147,1,,,,,,,,
,,,,,,,,,,,,,FF,,,,,,,,2.2162,,,,,,,,,,,,,,,,,,,,,,6102d6071567279a56ff3479,6103696b1f748f2d73008842,2021-07-29_22h52.55.441,Simcolourproject_2stim_asymm_v5,2020.2.10,Win32,60,61025ae37ef11b136ea224fe,,,,,,,,,1655,32.66668671,29.33330313,1,0,0,response1disk,,6,-1.999980986,-0.666677415,1,0,0,rectangle,-1.999980986,-0.666677415,1,0,0,-1.999980986,-0.666677415,1,0,0,0,151,151,56,1,,,,,,,,
,,,,,,,,,,,,,FF,,,,,,,,0.4822,,,,,,,,,,,,,,,,,,,,,,6102d6071567279a56ff3479,6103696b1f748f2d73008842,2021-07-29_22h52.55.441,Simcolourproject_2stim_asymm_v5,2020.2.10,Win32,60,61025ae37ef11b136ea224fe,,,,,,,,,1749,83.33335489,25.99999005,1,0,0,response1disk,,6,-13.33331466,-4.666677535,1,0,0,rectangle,-13.33331466,-4.666677535,1,0,0,-13.33331466,-4.666677535,1,0,0,0,152,152,9,1,,,,,,,,
,,,,,,,,,,,,,FF,,,,,,,,0.6189,,,,,,,,,,,,,,,,,,,,,,6102d6071567279a56ff3479,6103696b1f748f2d73008842,2021-07-29_22h52.55.441,Simcolourproject_2stim_asymm_v5,2020.2.10,Win32,60,61025ae37ef11b136ea224fe,,,,,,,,,144,72.00002122,22.66665661,1,0,0,response1disk,,6,20.66668636,5.99998945,1,0,0,rectangle,20.66668636,5.99998945,1,0,0,20.66668636,5.99998945,1,0,0,0,153,153,155,1,,,,,,,,
,,,,,,,,,,,,,FF,,,,,,,,0.2843,,,,,,,,,,,,,,,,,,,,,,6102d6071567279a56ff3479,6103696b1f748f2d73008842,2021-07-29_22h52.55.441,Simcolourproject_2stim_asymm_v5,2020.2.10,Win32,60,61025ae37ef11b136ea224fe,,,,,,,,,1539,88.0000217,33.33330325,1,0,0,response1disk,,6,14.66668618,-3.333344162,1,0,0,rectangle,14.66668618,-3.333344162,1,0,0,14.66668618,-3.333344162,1,0,0,0,154,154,124,1,,,,,,,,
,,,,,,,,,,,,,FF,,,,,,,,0.2964,,,,,,,,,,,,,,,,,,,,,,6102d6071567279a56ff3479,6103696b1f748f2d73008842,2021-07-29_22h52.55.441,Simcolourproject_2stim_asymm_v5,2020.2.10,Win32,60,61025ae37ef11b136ea224fe,,,,,,,,,1912,60.66668755,-52.66667897,1,0,0,response3disk,,5,1.333393137,1.333322644,1,0,0,rectangle,1.333393137,1.333322644,1,0,0,1.333393137,1.333322644,1,0,0,0,155,155,146,1,,,,,,,,
,,,,,,,,,,,,,FF,,,,,,,,1.7527,,,,,,,,,,,,,,,,,,,,,,6102d6071567279a56ff3479,6103696b1f748f2d73008842,2021-07-29_22h52.55.441,Simcolourproject_2stim_asymm_v5,2020.2.10,Win32,60,61025ae37ef11b136ea224fe,,,,,,,,,886,-60.66660871,31.33330319,1,0,0,response7disk,,1,6.000019252,-1.07288E-05,1,0,0,rectangle,6.000019252,-1.07288E-05,1,0,0,6.000019252,-1.07288E-05,1,0,0,0,156,156,71,1,,,,,,,,
,,,,,,,,,,,,,FF,,,,,,,,1.2515,,,,,,,,,,,,,,,,,,,,,,6102d6071567279a56ff3479,6103696b1f748f2d73008842,2021-07-29_22h52.55.441,Simcolourproject_2stim_asymm_v5,2020.2.10,Win32,60,61025ae37ef11b136ea224fe,,,,,,,,,1018,71.33335453,-46.0000121,1,0,0,response3disk,,5,16.66668624,-1.07288E-05,1,0,0,rectangle,16.66668624,-1.07288E-05,1,0,0,16.66668624,-1.07288E-05,1,0,0,0,157,157,61,1,,,,,,,,
,,,,,,,,,,,,,FF,,,,,,,,0.2632,,,,,,,,,,,,,,,,,,,,,,6102d6071567279a56ff3479,6103696b1f748f2d73008842,2021-07-29_22h52.55.441,Simcolourproject_2stim_asymm_v5,2020.2.10,Win32,60,61025ae37ef11b136ea224fe,,,,,,,,,4005,58.66668749,-48.00001216,1,0,0,response3disk,,5,12.00001943,5.333322763,1,0,0,rectangle,12.00001943,5.333322763,1,0,0,12.00001943,5.333322763,1,0,0,0,158,158,45,1,,,,,,,,
,,,,,,,,,,,,,FF,,,,,,,,0.2661,,,,,,,,,,,,,,,,,,,,,,6102d6071567279a56ff3479,6103696b1f748f2d73008842,2021-07-29_22h52.55.441,Simcolourproject_2stim_asymm_v5,2020.2.10,Win32,60,61025ae37ef11b136ea224fe,,,,,,,,,2617,71.33335453,-82.66667986,1,0,0,response3disk,,4,17.33339361,-3.333344162,1,0,0,rectangle,17.33339361,-3.333344162,1,0,0,17.33339361,-3.333344162,1,0,0,0,159,159,3,1,,,,,,,,
,,,,,,,,,,,,,FF,,,,,,,,0.2658,,,,,,,,,,,,,,,,,,,,,,6102d6071567279a56ff3479,6103696b1f748f2d73008842,2021-07-29_22h52.55.441,Simcolourproject_2stim_asymm_v5,2020.2.10,Win32,60,61025ae37ef11b136ea224fe,,,,,,,,,949,62.66668761,-54.66667902,1,0,0,response3disk,,5,15.33339355,4.666656077,1,0,0,rectangle,15.33339355,4.666656077,1,0,0,15.33339355,4.666656077,1,0,0,1,0,160,3,1,,,,,,,,
,,,,,,,,,,,,,FF,,,,,,,,0.2495,,,,,,,,,,,,,,,,,,,,,,6102d6071567279a56ff3479,6103696b1f748f2d73008842,2021-07-29_22h52.55.441,Simcolourproject_2stim_asymm_v5,2020.2.10,Win32,60,61025ae37ef11b136ea224fe,,,,,,,,,3816,61.33335423,-68.66667944,1,0,0,response3disk,,4,12.66668612,-4.000010848,1,0,0,rectangle,12.66668612,-4.000010848,1,0,0,12.66668612,-4.000010848,1,0,0,1,1,161,32,1,,,,,,,,
,,,,,,,,,,,,,FF,,,,,,,,1.0832,,,,,,,,,,,,,,,,,,,,,,6102d6071567279a56ff3479,6103696b1f748f2d73008842,2021-07-29_22h52.55.441,Simcolourproject_2stim_asymm_v5,2020.2.10,Win32,60,61025ae37ef11b136ea224fe,,,,,,,,,3416,44.66668707,76.66665822,1,0,0,response1disk,,7,13.33339349,4.666656077,1,0,0,rectangle,13.33339349,4.666656077,1,0,0,13.33339349,4.666656077,1,0,0,1,2,162,7,1,,,,,,,,
,,,,,,,,,,,,,FF,,,,,,,,0.3634,,,,,,,,,,,,,,,,,,,,,,6102d6071567279a56ff3479,6103696b1f748f2d73008842,2021-07-29_22h52.55.441,Simcolourproject_2stim_asymm_v5,2020.2.10,Win32,60,61025ae37ef11b136ea224fe,,,,,,,,,2567,66.00002104,34.66665697,1,0,0,response1disk,,6,6.000019252,-10.00001103,1,0,0,rectangle,6.000019252,-10.00001103,1,0,0,6.000019252,-10.00001103,1,0,0,1,3,163,55,1,,,,,,,,
,,,,,,,,,,,,,FF,,,,,,,,0.3323,,,,,,,,,,,,,,,,,,,,,,6102d6071567279a56ff3479,6103696b1f748f2d73008842,2021-07-29_22h52.55.441,Simcolourproject_2stim_asymm_v5,2020.2.10,Win32,60,61025ae37ef11b136ea224fe,,,,,,,,,381,60.00002086,-48.66667885,1,0,0,response3disk,,5,14.66668618,-4.000010848,1,0,0,rectangle,14.66668618,-4.000010848,1,0,0,14.66668618,-4.000010848,1,0,0,1,4,164,25,1,,,,,,,,
,,,,,,,,,,,,,FF,,,,,,,,0.3631,,,,,,,,,,,,,,,,,,,,,,6102d6071567279a56ff3479,6103696b1f748f2d73008842,2021-07-29_22h52.55.441,Simcolourproject_2stim_asymm_v5,2020.2.10,Win32,60,61025ae37ef11b136ea224fe,,,,,,,,,4323,40.66668695,-72.00001287,1,0,0,response3disk,,4,20.66668636,1.333322644,1,0,0,rectangle,20.66668636,1.333322644,1,0,0,20.66668636,1.333322644,1,0,0,1,5,165,145,1,,,,,,,,
,,,,,,,,,,,,,FF,,,,,,,,0.2999,,,,,,,,,,,,,,,,,,,,,,6102d6071567279a56ff3479,6103696b1f748f2d73008842,2021-07-29_22h52.55.441,Simcolourproject_2stim_asymm_v5,2020.2.10,Win32,60,61025ae37ef11b136ea224fe,,,,,,,,,625,49.33335388,-73.33334625,1,0,0,response3disk,,4,12.66668612,7.99998951,1,0,0,rectangle,12.66668612,7.99998951,1,0,0,12.66668612,7.99998951,1,0,0,1,6,166,150,1,,,,,,,,
,,,,,,,,,,,,,FF,,,,,,,,0.2496,,,,,,,,,,,,,,,,,,,,,,6102d6071567279a56ff3479,6103696b1f748f2d73008842,2021-07-29_22h52.55.441,Simcolourproject_2stim_asymm_v5,2020.2.10,Win32,60,61025ae37ef11b136ea224fe,,,,,,,,,1768,33.33339409,-64.66667932,1,0,0,response3disk,,4,20.00001967,-3.333344162,1,0,0,rectangle,20.00001967,-3.333344162,1,0,0,20.00001967,-3.333344162,1,0,0,1,7,167,139,1,,,,,,,,
,,,,,,,,,,,,,FF,,,,,,,,0.2657,,,,,,,,,,,,,,,,,,,,,,6102d6071567279a56ff3479,6103696b1f748f2d73008842,2021-07-29_22h52.55.441,Simcolourproject_2stim_asymm_v5,2020.2.10,Win32,60,61025ae37ef11b136ea224fe,,,,,,,,,1644,69.33335447,-16.66667789,1,0,0,response3disk,,5,15.33339355,-1.333344102,1,0,0,rectangle,15.33339355,-1.333344102,1,0,0,15.33339355,-1.333344102,1,0,0,1,8,168,35,1,,,,,,,,
,,,,,,,,,,,,,FF,,,,,,,,0.2638,,,,,,,,,,,,,,,,,,,,,,6102d6071567279a56ff3479,6103696b1f748f2d73008842,2021-07-29_22h52.55.441,Simcolourproject_2stim_asymm_v5,2020.2.10,Win32,60,61025ae37ef11b136ea224fe,,,,,,,,,4110,64.66668767,-50.66667891,1,0,0,response3disk,,5,14.00001949,8.666656196,1,0,0,rectangle,14.00001949,8.666656196,1,0,0,14.00001949,8.666656196,1,0,0,1,9,169,85,1,,,,,,,,
,,,,,,,,,,,,,FF,,,,,,,,0.2657,,,,,,,,,,,,,,,,,,,,,,6102d6071567279a56ff3479,6103696b1f748f2d73008842,2021-07-29_22h52.55.441,Simcolourproject_2stim_asymm_v5,2020.2.10,Win32,60,61025ae37ef11b136ea224fe,,,,,,,,,1459,65.33335435,-45.33334541,1,0,0,response3disk,,5,-18.66660746,-4.666677535,1,0,0,rectangle,-18.66660746,-4.666677535,1,0,0,-18.66660746,-4.666677535,1,0,0,1,10,170,130,1,,,,,,,,
,,,,,,,,,,,,,FF,,,,,,,,0.7833,,,,,,,,,,,,,,,,,,,,,,6102d6071567279a56ff3479,6103696b1f748f2d73008842,2021-07-29_22h52.55.441,Simcolourproject_2stim_asymm_v5,2020.2.10,Win32,60,61025ae37ef11b136ea224fe,,,,,,,,,1480,80.00002146,39.99999046,1,0,0,response1disk,,6,18.6666863,-0.666677415,1,0,0,rectangle,18.6666863,-0.666677415,1,0,0,18.6666863,-0.666677415,1,0,0,1,11,171,73,1,,,,,,,,
,,,,,,,,,,,,,FF,,,,,,,,0.4338,,,,,,,,,,,,,,,,,,,,,,6102d6071567279a56ff3479,6103696b1f748f2d73008842,2021-07-29_22h52.55.441,Simcolourproject_2stim_asymm_v5,2020.2.10,Win32,60,61025ae37ef11b136ea224fe,,,,,,,,,1279,74.00002128,43.33330355,1,0,0,response1disk,,6,19.33339367,-8.000010967,1,0,0,rectangle,19.33339367,-8.000010967,1,0,0,19.33339367,-8.000010967,1,0,0,1,12,172,115,1,,,,,,,,
,,,,,,,,,,,,,FF,,,,,,,,0.2865,,,,,,,,,,,,,,,,,,,,,,6102d6071567279a56ff3479,6103696b1f748f2d73008842,2021-07-29_22h52.55.441,Simcolourproject_2stim_asymm_v5,2020.2.10,Win32,60,61025ae37ef11b136ea224fe,,,,,,,,,4208,52.00002062,-39.33334523,1,0,0,response3disk,,5,18.00001961,-0.666677415,1,0,0,rectangle,18.00001961,-0.666677415,1,0,0,18.00001961,-0.666677415,1,0,0,1,13,173,50,1,,,,,,,,
,,,,,,,,,,,,,FF,,,,,,,,0.5302,,,,,,,,,,,,,,,,,,,,,,6102d6071567279a56ff3479,6103696b1f748f2d73008842,2021-07-29_22h52.55.441,Simcolourproject_2stim_asymm_v5,2020.2.10,Win32,60,61025ae37ef11b136ea224fe,,,,,,,,,3279,70.00002116,31.33330319,1,0,0,response1disk,,6,6.666685939,2.666656017,1,0,0,rectangle,6.666685939,2.666656017,1,0,0,6.666685939,2.666656017,1,0,0,1,14,174,59,1,,,,,,,,
,,,,,,,,,,,,,FF,,,,,,,,0.3697,,,,,,,,,,,,,,,,,,,,,,6102d6071567279a56ff3479,6103696b1f748f2d73008842,2021-07-29_22h52.55.441,Simcolourproject_2stim_asymm_v5,2020.2.10,Win32,60,61025ae37ef11b136ea224fe,,,,,,,,,590,84.00002158,-74.00001293,1,0,0,response3disk,,5,20.66668636,-5.333344221,1,0,0,rectangle,20.66668636,-5.333344221,1,0,0,20.66668636,-5.333344221,1,0,0,1,15,175,15,1,,,,,,,,
,,,,,,,,,,,,,FF,,,,,,,,0.1665,,,,,,,,,,,,,,,,,,,,,,6102d6071567279a56ff3479,6103696b1f748f2d73008842,2021-07-29_22h52.55.441,Simcolourproject_2stim_asymm_v5,2020.2.10,Win32,60,61025ae37ef11b136ea224fe,,,,,,,,,3287,81.33335483,-42.66667867,1,0,0,response3disk,,5,10.00001937,-0.666677415,1,0,0,rectangle,10.00001937,-0.666677415,1,0,0,10.00001937,-0.666677415,1,0,0,1,16,176,136,1,,,,,,,,
,,,,,,,,,,,,,FF,,,,,,,,0.2499,,,,,,,,,,,,,,,,,,,,,,6102d6071567279a56ff3479,6103696b1f748f2d73008842,2021-07-29_22h52.55.441,Simcolourproject_2stim_asymm_v5,2020.2.10,Win32,60,61025ae37ef11b136ea224fe,,,,,,,,,188,56.00002074,-42.66667867,1,0,0,response3disk,,5,12.00001943,1.333322644,1,0,0,rectangle,12.00001943,1.333322644,1,0,0,12.00001943,1.333322644,1,0,0,1,17,177,19,1,,,,,,,,
,,,,,,,,,,,,,FF,,,,,,,,0.1666,,,,,,,,,,,,,,,,,,,,,,6102d6071567279a56ff3479,6103696b1f748f2d73008842,2021-07-29_22h52.55.441,Simcolourproject_2stim_asymm_v5,2020.2.10,Win32,60,61025ae37ef11b136ea224fe,,,,,,,,,3727,59.33335418,-36.0000118,1,0,0,response3disk,,5,-9.333314538,13.99998969,1,0,0,rectangle,-9.333314538,13.99998969,1,0,0,-9.333314538,13.99998969,1,0,0,1,18,178,87,1,,,,,,,,
,,,,,,,,,,,,,FF,,,,,,,,0.2162,,,,,,,,,,,,,,,,,,,,,,6102d6071567279a56ff3479,6103696b1f748f2d73008842,2021-07-29_22h52.55.441,Simcolourproject_2stim_asymm_v5,2020.2.10,Win32,60,61025ae37ef11b136ea224fe,,,,,,,,,711,51.33335394,-57.33334577,1,0,0,response3disk,,4,2.66668582,-0.666677415,1,0,0,rectangle,2.66668582,-0.666677415,1,0,0,2.66668582,-0.666677415,1,0,0,1,19,179,58,1,,,,,,,,
,,,,,,,,,,,,,FF,,,,,,,,0.2501,,,,,,,,,,,,,,,,,,,,,,6102d6071567279a56ff3479,6103696b1f748f2d73008842,2021-07-29_22h52.55.441,Simcolourproject_2stim_asymm_v5,2020.2.10,Win32,60,61025ae37ef11b136ea224fe,,,,,,,,,2331,84.66668826,47.9999907,1,0,0,response1disk,,6,-9.999981225,9.333322883,1,0,0,rectangle,-9.999981225,9.333322883,1,0,0,-9.999981225,9.333322883,1,0,0,1,20,180,64,1,,,,,,,,
,,,,,,,,,,,,,FF,,,,,,,,0.3493,,,,,,,,,,,,,,,,,,,,,,6102d6071567279a56ff3479,6103696b1f748f2d73008842,2021-07-29_22h52.55.441,Simcolourproject_2stim_asymm_v5,2020.2.10,Win32,60,61025ae37ef11b136ea224fe,,,,,,,,,3027,84.00002158,37.33330337,1,0,0,response1disk,,6,3.333393196,5.333322763,1,0,0,rectangle,3.333393196,5.333322763,1,0,0,3.333393196,5.333322763,1,0,0,1,21,181,1,1,,,,,,,,
,,,,,,,,,,,,,FF,,,,,,,,0.3151,,,,,,,,,,,,,,,,,,,,,,6102d6071567279a56ff3479,6103696b1f748f2d73008842,2021-07-29_22h52.55.441,Simcolourproject_2stim_asymm_v5,2020.2.10,Win32,60,61025ae37ef11b136ea224fe,,,,,,,,,2231,63.33335429,-63.33334595,1,0,0,response3disk,,5,18.00001961,6.666656137,1,0,0,rectangle,18.00001961,6.666656137,1,0,0,18.00001961,6.666656137,1,0,0,1,22,182,28,1,,,,,,,,
,,,,,,,,,,,,,FF,,,,,,,,1.2128,,,,,,,,,,,,,,,,,,,,,,6102d6071567279a56ff3479,6103696b1f748f2d73008842,2021-07-29_22h52.55.441,Simcolourproject_2stim_asymm_v5,2020.2.10,Win32,60,61025ae37ef11b136ea224fe,,,,,,,,,1511,88.66668838,-29.33334494,1,0,0,response3disk,,5,-23.33331496,1.999989331,1,0,0,rectangle,-23.33331496,1.999989331,1,0,0,-23.33331496,1.999989331,1,0,0,1,23,183,20,1,,,,,,,,
,,,,,,,,,,,,,FF,,,,,,,,0.2323,,,,,,,,,,,,,,,,,,,,,,6102d6071567279a56ff3479,6103696b1f748f2d73008842,2021-07-29_22h52.55.441,Simcolourproject_2stim_asymm_v5,2020.2.10,Win32,60,61025ae37ef11b136ea224fe,,,,,,,,,1405,68.66668779,-50.66667891,1,0,0,response3disk,,5,2.66668582,-1.333344102,1,0,0,rectangle,2.66668582,-1.333344102,1,0,0,2.66668582,-1.333344102,1,0,0,1,24,184,84,1,,,,,,,,
,,,,,,,,,,,,,FF,,,,,,,,0.0838,,,,,,,,,,,,,,,,,,,,,,6102d6071567279a56ff3479,6103696b1f748f2d73008842,2021-07-29_22h52.55.441,Simcolourproject_2stim_asymm_v5,2020.2.10,Win32,60,61025ae37ef11b136ea224fe,,,,,,,,,3861,70.66668785,-22.66667807,1,0,0,response3disk,,5,7.333393315,9.333322883,1,0,0,rectangle,7.333393315,9.333322883,1,0,0,7.333393315,9.333322883,1,0,0,1,25,185,147,1,,,,,,,,
,,,,,,,,,,,,,FF,,,,,,,,0.1166,,,,,,,,,,,,,,,,,,,,,,6102d6071567279a56ff3479,6103696b1f748f2d73008842,2021-07-29_22h52.55.441,Simcolourproject_2stim_asymm_v5,2020.2.10,Win32,60,61025ae37ef11b136ea224fe,,,,,,,,,525,65.33335435,-42.00001198,1,0,0,response3disk,,5,9.333393375,3.333322704,1,0,0,rectangle,-27.33331507,67.33330427,1,0,0,0.66668576,-8.000010967,1,0,0,1,26,186,156,1,,response7disk_3,TRUE,0,0,"[271,92,198,189,250,5,207,312,68,238,312,307,298,27,253,251,187,3,274,77]",1.5659,rectangle
,,,,,,,,,,,,,FF,,,,,,,,0.2333,,,,,,,,,,,,,,,,,,,,,,6102d6071567279a56ff3479,6103696b1f748f2d73008842,2021-07-29_22h52.55.441,Simcolourproject_2stim_asymm_v5,2020.2.10,Win32,60,61025ae37ef11b136ea224fe,,,,,,,,,332,61.33335423,-36.66667849,1,0,0,response3disk,,5,5.333393256,8.666656196,1,0,0,rectangle,5.333393256,8.666656196,1,0,0,5.333393256,8.666656196,1,0,0,1,27,187,124,1,,,,,,,,
,,,,,,,,,,,,,FF,,,,,,,,0.2003,,,,,,,,,,,,,,,,,,,,,,6102d6071567279a56ff3479,6103696b1f748f2d73008842,2021-07-29_22h52.55.441,Simcolourproject_2stim_asymm_v5,2020.2.10,Win32,60,61025ae37ef11b136ea224fe,,,,,,,,,2424,62.66668761,27.99999011,1,0,0,response1disk,,6,0.66668576,-10.00001103,1,0,0,rectangle,74.00002128,-34.66667843,1,0,0,-0.666606923,3.99998939,1,0,0,1,28,188,45,1,,response3disk_3,TRUE,5,5,"[271,92,198,189,250,5,207,312,68,238,312,307,298,27,253,251,187,3,274,77]",1.4901,rectangle
,,,,,,,,,,,,,FF,,,,,,,,0.1667,,,,,,,,,,,,,,,,,,,,,,6102d6071567279a56ff3479,6103696b1f748f2d73008842,2021-07-29_22h52.55.441,Simcolourproject_2stim_asymm_v5,2020.2.10,Win32,60,61025ae37ef11b136ea224fe,,,,,,,,,3628,56.66668743,-48.66667885,1,0,0,response3disk,,5,6.000019252,-1.333344102,1,0,0,rectangle,6.000019252,-1.333344102,1,0,0,6.000019252,-1.333344102,1,0,0,1,29,189,102,1,,,,,,,,
,,,,,,,,,,,,,FF,,,,,,,,0.2335,,,,,,,,,,,,,,,,,,,,,,6102d6071567279a56ff3479,6103696b1f748f2d73008842,2021-07-29_22h52.55.441,Simcolourproject_2stim_asymm_v5,2020.2.10,Win32,60,61025ae37ef11b136ea224fe,,,,,,,,,608,57.33335412,-53.33334565,1,0,0,response3disk,,5,15.33339355,-11.3333444,1,0,0,rectangle,15.33339355,-11.3333444,1,0,0,15.33339355,-11.3333444,1,0,0,1,30,190,53,1,,,,,,,,
,,,,,,,,,,,,,FF,,,,,,,,0.2,,,,,,,,,,,,,,,,,,,,,,6102d6071567279a56ff3479,6103696b1f748f2d73008842,2021-07-29_22h52.55.441,Simcolourproject_2stim_asymm_v5,2020.2.10,Win32,60,61025ae37ef11b136ea224fe,,,,,,,,,4104,36.00002015,-61.33334589,1,0,0,response3disk,,4,-0.666606923,-0.666677415,1,0,0,rectangle,-0.666606923,-0.666677415,1,0,0,-0.666606923,-0.666677415,1,0,0,1,31,191,49,1,,,,,,,,
,,,,,,,,,,,,,FF,,,,,,,,0.4157,,,,,,,,,,,,,,,,,,,,,,6102d6071567279a56ff3479,6103696b1f748f2d73008842,2021-07-29_22h52.55.441,Simcolourproject_2stim_asymm_v5,2020.2.10,Win32,60,61025ae37ef11b136ea224fe,,,,,,,,,1620,-74.66660913,-59.33334583,1,0,0,response5disk,,2,19.33339367,6.666656137,1,0,0,rectangle,19.33339367,6.666656137,1,0,0,19.33339367,6.666656137,1,0,0,1,32,192,29,1,,,,,,,,
,,,,,,,,,,,,,FF,,,,,,,,1.2831,,,,,,,,,,,,,,,,,,,,,,6102d6071567279a56ff3479,6103696b1f748f2d73008842,2021-07-29_22h52.55.441,Simcolourproject_2stim_asymm_v5,2020.2.10,Win32,60,61025ae37ef11b136ea224fe,,,,,,,,,1742,24.00001979,76.66665822,1,0,0,response1disk,,7,16.00001955,3.99998939,1,0,0,rectangle,16.00001955,3.99998939,1,0,0,16.00001955,3.99998939,1,0,0,1,33,193,37,1,,,,,,,,
,,,,,,,,,,,,,FF,,,,,,,,0.2495,,,,,,,,,,,,,,,,,,,,,,6102d6071567279a56ff3479,6103696b1f748f2d73008842,2021-07-29_22h52.55.441,Simcolourproject_2stim_asymm_v5,2020.2.10,Win32,60,61025ae37ef11b136ea224fe,,,,,,,,,391,69.33335447,-46.0000121,1,0,0,response3disk,,5,2.000019133,2.666656017,1,0,0,rectangle,2.000019133,2.666656017,1,0,0,2.000019133,2.666656017,1,0,0,1,34,194,101,1,,,,,,,,
,,,,,,,,,,,,,FF,,,,,,,,0.2657,,,,,,,,,,,,,,,,,,,,,,6102d6071567279a56ff3479,6103696b1f748f2d73008842,2021-07-29_22h52.55.441,Simcolourproject_2stim_asymm_v5,2020.2.10,Win32,60,61025ae37ef11b136ea224fe,,,,,,,,,940,36.00002015,-25.33334482,1,0,0,response3disk,,5,-15.9999814,13.99998969,1,0,0,rectangle,-15.9999814,13.99998969,1,0,0,-15.9999814,13.99998969,1,0,0,1,35,195,69,1,,,,,,,,
,,,,,,,,,,,,,FF,,,,,,,,0.2335,,,,,,,,,,,,,,,,,,,,,,6102d6071567279a56ff3479,6103696b1f748f2d73008842,2021-07-29_22h52.55.441,Simcolourproject_2stim_asymm_v5,2020.2.10,Win32,60,61025ae37ef11b136ea224fe,,,,,,,,,574,46.00002044,-34.66667843,1,0,0,response3disk,,5,5.333393256,3.333322704,1,0,0,rectangle,5.333393256,3.333322704,1,0,0,5.333393256,3.333322704,1,0,0,1,36,196,106,1,,,,,,,,
,,,,,,,,,,,,,FF,,,,,,,,0.2138,,,,,,,,,,,,,,,,,,,,,,6102d6071567279a56ff3479,6103696b1f748f2d73008842,2021-07-29_22h52.55.441,Simcolourproject_2stim_asymm_v5,2020.2.10,Win32,60,61025ae37ef11b136ea224fe,,,,,,,,,288,47.33335382,-32.66667837,1,0,0,response3disk,,5,16.00001955,-1.07288E-05,1,0,0,rectangle,-79.33331662,33.33330325,1,0,0,-13.33331466,-3.333344162,1,0,0,1,37,197,88,1,,response7disk_3,TRUE,1,1,"[271,92,198,189,250,5,207,312,68,238,312,307,298,27,253,251,187,3,274,77]",1.766,rectangle
,,,,,,,,,,,,,FF,,,,,,,,0.1851,,,,,,,,,,,,,,,,,,,,,,6102d6071567279a56ff3479,6103696b1f748f2d73008842,2021-07-29_22h52.55.441,Simcolourproject_2stim_asymm_v5,2020.2.10,Win32,60,61025ae37ef11b136ea224fe,,,,,,,,,1747,33.33339409,-56.66667908,1,0,0,response3disk,,4,2.66668582,-1.333344102,1,0,0,rectangle,2.66668582,-1.333344102,1,0,0,2.66668582,-1.333344102,1,0,0,1,38,198,93,1,,,,,,,,
,,,,,,,,,,,,,FF,,,,,,,,0.8995,,,,,,,,,,,,,,,,,,,,,,6102d6071567279a56ff3479,6103696b1f748f2d73008842,2021-07-29_22h52.55.441,Simcolourproject_2stim_asymm_v5,2020.2.10,Win32,60,61025ae37ef11b136ea224fe,,,,,,,,,2189,57.33335412,-16.00001121,1,0,0,response3disk,,5,4.000019193,10.66665626,1,0,0,rectangle,4.000019193,10.66665626,1,0,0,4.000019193,10.66665626,1,0,0,1,39,199,103,1,,,,,,,,
,,,,,,,,,,,,,FF,,,,,,,,0.1837,,,,,,,,,,,,,,,,,,,,,,6102d6071567279a56ff3479,6103696b1f748f2d73008842,2021-07-29_22h52.55.441,Simcolourproject_2stim_asymm_v5,2020.2.10,Win32,60,61025ae37ef11b136ea224fe,,,,,,,,,2491,83.33335489,33.99999028,1,0,0,response1disk,,6,10.66668606,9.999989569,1,0,0,rectangle,10.66668606,9.999989569,1,0,0,10.66668606,9.999989569,1,0,0,1,40,200,10,1,,,,,,,,
,,,,,,,,,,,,,FF,,,,,,,,0.3492,,,,,,,,,,,,,,,,,,,,,,6102d6071567279a56ff3479,6103696b1f748f2d73008842,2021-07-29_22h52.55.441,Simcolourproject_2stim_asymm_v5,2020.2.10,Win32,60,61025ae37ef11b136ea224fe,,,,,,,,,3786,54.00002068,59.99999106,1,0,0,response1disk,,7,7.333393315,-8.000010967,1,0,0,rectangle,7.333393315,-8.000010967,1,0,0,7.333393315,-8.000010967,1,0,0,1,41,201,72,1,,,,,,,,
,,,,,,,,,,,,,FF,,,,,,,,0.1499,,,,,,,,,,,,,,,,,,,,,,6102d6071567279a56ff3479,6103696b1f748f2d73008842,2021-07-29_22h52.55.441,Simcolourproject_2stim_asymm_v5,2020.2.10,Win32,60,61025ae37ef11b136ea224fe,,,,,,,,,1643,40.66668695,-58.00001246,1,0,0,response3disk,,4,2.000019133,-0.666677415,1,0,0,rectangle,2.000019133,-0.666677415,1,0,0,2.000019133,-0.666677415,1,0,0,1,42,202,141,1,,,,,,,,
,,,,,,,,,,,,,FF,,,,,,,,0.2301,,,,,,,,,,,,,,,,,,,,,,6102d6071567279a56ff3479,6103696b1f748f2d73008842,2021-07-29_22h52.55.441,Simcolourproject_2stim_asymm_v5,2020.2.10,Win32,60,61025ae37ef11b136ea224fe,,,,,,,,,2697,50.66668725,-28.00001156,1,0,0,response3disk,,5,-13.99998134,3.99998939,1,0,0,rectangle,-13.99998134,3.99998939,1,0,0,-13.99998134,3.99998939,1,0,0,1,43,203,18,1,,,,,,,,
,,,,,,,,,,,,,FF,,,,,,,,0.288,,,,,,,,,,,,,,,,,,,,,,6102d6071567279a56ff3479,6103696b1f748f2d73008842,2021-07-29_22h52.55.441,Simcolourproject_2stim_asymm_v5,2020.2.10,Win32,60,61025ae37ef11b136ea224fe,,,,,,,,,479,66.00002104,18.66665649,1,0,0,response1disk,,6,8.666685998,-2.000010788,1,0,0,rectangle,8.666685998,-2.000010788,1,0,0,8.666685998,-2.000010788,1,0,0,1,44,204,151,1,,,,,,,,
,,,,,,,,,,,,,FF,,,,,,,,0.2637,,,,,,,,,,,,,,,,,,,,,,6102d6071567279a56ff3479,6103696b1f748f2d73008842,2021-07-29_22h52.55.441,Simcolourproject_2stim_asymm_v5,2020.2.10,Win32,60,61025ae37ef11b136ea224fe,,,,,,,,,857,72.00002122,-30.00001162,1,0,0,response3disk,,5,8.666685998,3.333322704,1,0,0,rectangle,8.666685998,3.333322704,1,0,0,8.666685998,3.333322704,1,0,0,1,45,205,71,1,,,,,,,,
,,,,,,,,,,,,,FF,,,,,,,,0.2639,,,,,,,,,,,,,,,,,,,,,,6102d6071567279a56ff3479,6103696b1f748f2d73008842,2021-07-29_22h52.55.441,Simcolourproject_2stim_asymm_v5,2020.2.10,Win32,60,61025ae37ef11b136ea224fe,,,,,,,,,788,62.66668761,-24.66667813,1,0,0,response3disk,,5,6.000019252,6.666656137,1,0,0,rectangle,91.33335513,33.99999028,1,0,0,26.66668653,7.99998951,1,0,0,1,46,206,40,1,,response1disk_3,TRUE,6,6,"[271,92,198,189,250,5,207,312,68,238,312,307,298,27,253,251,187,3,274,77]",1.2828,rectangle
,,,,,,,,,,,,,FF,,,,,,,,1.413,,,,,,,,,,,,,,,,,,,,,,6102d6071567279a56ff3479,6103696b1f748f2d73008842,2021-07-29_22h52.55.441,Simcolourproject_2stim_asymm_v5,2020.2.10,Win32,60,61025ae37ef11b136ea224fe,,,,,,,,,1558,24.00001979,-59.33334583,1,0,0,response3disk,,4,-3.999981046,-10.00001103,1,0,0,rectangle,-3.999981046,-10.00001103,1,0,0,-3.999981046,-10.00001103,1,0,0,1,47,207,22,1,,,,,,,,
,,,,,,,,,,,,,FF,,,,,,,,1.0001,,,,,,,,,,,,,,,,,,,,,,6102d6071567279a56ff3479,6103696b1f748f2d73008842,2021-07-29_22h52.55.441,Simcolourproject_2stim_asymm_v5,2020.2.10,Win32,60,61025ae37ef11b136ea224fe,,,,,,,,,4209,35.33339415,69.33330433,1,0,0,response1disk,,7,10.00001937,8.666656196,1,0,0,rectangle,10.00001937,8.666656196,1,0,0,10.00001937,8.666656196,1,0,0,1,48,208,76,1,,,,,,,,
,,,,,,,,,,,,,FF,,,,,,,,1.033,,,,,,,,,,,,,,,,,,,,,,6102d6071567279a56ff3479,6103696b1f748f2d73008842,2021-07-29_22h52.55.441,Simcolourproject_2stim_asymm_v5,2020.2.10,Win32,60,61025ae37ef11b136ea224fe,,,,,,,,,3331,74.00002128,41.33330349,1,0,0,response1disk,,6,24.66668648,-9.33334434,1,0,0,rectangle,24.66668648,-9.33334434,1,0,0,24.66668648,-9.33334434,1,0,0,1,49,209,142,1,,,,,,,,
,,,,,,,,,,,,,FF,,,,,,,,0.4169,,,,,,,,,,,,,,,,,,,,,,6102d6071567279a56ff3479,6103696b1f748f2d73008842,2021-07-29_22h52.55.441,Simcolourproject_2stim_asymm_v5,2020.2.10,Win32,60,61025ae37ef11b136ea224fe,,,,,,,,,909,31.33339403,-49.33334553,1,0,0,response3disk,,4,-9.999981225,-8.000010967,1,0,0,rectangle,-9.999981225,-8.000010967,1,0,0,-9.999981225,-8.000010967,1,0,0,1,50,210,47,1,,,,,,,,
,,,,,,,,,,,,,FF,,,,,,,,0.2664,,,,,,,,,,,,,,,,,,,,,,6102d6071567279a56ff3479,6103696b1f748f2d73008842,2021-07-29_22h52.55.441,Simcolourproject_2stim_asymm_v5,2020.2.10,Win32,60,61025ae37ef11b136ea224fe,,,,,,,,,3402,42.00002033,-28.66667825,1,0,0,response3disk,,5,12.00001943,6.666656137,1,0,0,rectangle,12.00001943,6.666656137,1,0,0,12.00001943,6.666656137,1,0,0,1,51,211,13,1,,,,,,,,
,,,,,,,,,,,,,FF,,,,,,,,0.4836,,,,,,,,,,,,,,,,,,,,,,6102d6071567279a56ff3479,6103696b1f748f2d73008842,2021-07-29_22h52.55.441,Simcolourproject_2stim_asymm_v5,2020.2.10,Win32,60,61025ae37ef11b136ea224fe,,,,,,,,,2678,59.33335418,22.66665661,1,0,0,response1disk,,6,4.666685879,1.999989331,1,0,0,rectangle,4.666685879,1.999989331,1,0,0,4.666685879,1.999989331,1,0,0,1,52,212,12,1,,,,,,,,
,,,,,,,,,,,,,FF,,,,,,,,0.2518,,,,,,,,,,,,,,,,,,,,,,6102d6071567279a56ff3479,6103696b1f748f2d73008842,2021-07-29_22h52.55.441,Simcolourproject_2stim_asymm_v5,2020.2.10,Win32,60,61025ae37ef11b136ea224fe,,,,,,,,,2492,45.33335376,-50.00001222,1,0,0,response3disk,,4,2.000019133,-14.00001115,1,0,0,rectangle,2.000019133,-14.00001115,1,0,0,2.000019133,-14.00001115,1,0,0,1,53,213,65,1,,,,,,,,
,,,,,,,,,,,,,FF,,,,,,,,0.3336,,,,,,,,,,,,,,,,,,,,,,6102d6071567279a56ff3479,6103696b1f748f2d73008842,2021-07-29_22h52.55.441,Simcolourproject_2stim_asymm_v5,2020.2.10,Win32,60,61025ae37ef11b136ea224fe,,,,,,,,,4162,68.0000211,23.99998999,1,0,0,response1disk,,6,17.33339361,3.333322704,1,0,0,rectangle,17.33339361,3.333322704,1,0,0,17.33339361,3.333322704,1,0,0,1,54,214,126,1,,,,,,,,
,,,,,,,,,,,,,FF,,,,,,,,0.2039,,,,,,,,,,,,,,,,,,,,,,6102d6071567279a56ff3479,6103696b1f748f2d73008842,2021-07-29_22h52.55.441,Simcolourproject_2stim_asymm_v5,2020.2.10,Win32,60,61025ae37ef11b136ea224fe,,,,,,,,,3405,60.66668755,-38.66667855,1,0,0,response3disk,,5,15.33339355,2.666656017,1,0,0,rectangle,15.33339355,2.666656017,1,0,0,15.33339355,2.666656017,1,0,0,1,55,215,46,1,,,,,,,,
,,,,,,,,,,,,,FF,,,,,,,,0.0997,,,,,,,,,,,,,,,,,,,,,,6102d6071567279a56ff3479,6103696b1f748f2d73008842,2021-07-29_22h52.55.441,Simcolourproject_2stim_asymm_v5,2020.2.10,Win32,60,61025ae37ef11b136ea224fe,,,,,,,,,3341,54.00002068,-38.66667855,1,0,0,response3disk,,5,21.33339373,-9.33334434,1,0,0,rectangle,21.33339373,-9.33334434,1,0,0,21.33339373,-9.33334434,1,0,0,1,56,216,38,1,,,,,,,,
,,,,,,,,,,,,,FF,,,,,,,,0.1039,,,,,,,,,,,,,,,,,,,,,,6102d6071567279a56ff3479,6103696b1f748f2d73008842,2021-07-29_22h52.55.441,Simcolourproject_2stim_asymm_v5,2020.2.10,Win32,60,61025ae37ef11b136ea224fe,,,,,,,,,1144,74.00002128,-52.66667897,1,0,0,response3disk,,5,22.00001973,-3.333344162,1,0,0,rectangle,22.00001973,-3.333344162,1,0,0,22.00001973,-3.333344162,1,0,0,1,57,217,0,1,,,,,,,,
,,,,,,,,,,,,,FF,,,,,,,,0.1339,,,,,,,,,,,,,,,,,,,,,,6102d6071567279a56ff3479,6103696b1f748f2d73008842,2021-07-29_22h52.55.441,Simcolourproject_2stim_asymm_v5,2020.2.10,Win32,60,61025ae37ef11b136ea224fe,,,,,,,,,1861,34.00002009,-76.66667968,1,0,0,response3disk,,4,3.333393196,-3.333344162,1,0,0,rectangle,3.333393196,-3.333344162,1,0,0,3.333393196,-3.333344162,1,0,0,1,58,218,79,1,,,,,,,,
,,,,,,,,,,,,,FF,,,,,,,,0.1341,,,,,,,,,,,,,,,,,,,,,,6102d6071567279a56ff3479,6103696b1f748f2d73008842,2021-07-29_22h52.55.441,Simcolourproject_2stim_asymm_v5,2020.2.10,Win32,60,61025ae37ef11b136ea224fe,,,,,,,,,3146,30.66668665,-75.33334631,1,0,0,response3disk,,4,9.333393375,3.333322704,1,0,0,rectangle,9.333393375,3.333322704,1,0,0,9.333393375,3.333322704,1,0,0,1,59,219,154,1,,,,,,,,
,,,,,,,,,,,,,FF,,,,,,,,0.5846,,,,,,,,,,,,,,,,,,,,,,6102d6071567279a56ff3479,6103696b1f748f2d73008842,2021-07-29_22h52.55.441,Simcolourproject_2stim_asymm_v5,2020.2.10,Win32,60,61025ae37ef11b136ea224fe,,,,,,,,,214,56.66668743,53.33330385,1,0,0,response1disk,,6,-13.99998134,-10.00001103,1,0,0,rectangle,-13.99998134,-10.00001103,1,0,0,-13.99998134,-10.00001103,1,0,0,1,60,220,52,1,,,,,,,,
,,,,,,,,,,,,,FF,,,,,,,,0.462,,,,,,,,,,,,,,,,,,,,,,6102d6071567279a56ff3479,6103696b1f748f2d73008842,2021-07-29_22h52.55.441,Simcolourproject_2stim_asymm_v5,2020.2.10,Win32,60,61025ae37ef11b136ea224fe,,,,,,,,,2712,68.0000211,-22.66667807,1,0,0,response3disk,,5,-10.66660722,7.99998951,1,0,0,rectangle,-10.66660722,7.99998951,1,0,0,-10.66660722,7.99998951,1,0,0,1,61,221,144,1,,,,,,,,
,,,,,,,,,,,,,FF,,,,,,,,1.5524,,,,,,,,,,,,,,,,,,,,,,6102d6071567279a56ff3479,6103696b1f748f2d73008842,2021-07-29_22h52.55.441,Simcolourproject_2stim_asymm_v5,2020.2.10,Win32,60,61025ae37ef11b136ea224fe,,,,,,,,,2436,65.33335435,62.66665781,1,0,0,response1disk,,6,13.33339349,7.333322823,1,0,0,rectangle,13.33339349,7.333322823,1,0,0,13.33339349,7.333322823,1,0,0,1,62,222,129,1,,,,,,,,
,,,,,,,,,,,,,FF,,,,,,,,0.2665,,,,,,,,,,,,,,,,,,,,,,6102d6071567279a56ff3479,6103696b1f748f2d73008842,2021-07-29_22h52.55.441,Simcolourproject_2stim_asymm_v5,2020.2.10,Win32,60,61025ae37ef11b136ea224fe,,,,,,,,,284,64.66668767,21.99998993,1,0,0,response1disk,,6,3.333393196,3.333322704,1,0,0,rectangle,3.333393196,3.333322704,1,0,0,3.333393196,3.333322704,1,0,0,1,63,223,92,1,,,,,,,,
,,,,,,,,,,,,,FF,,,,,,,,1.0168,,,,,,,,,,,,,,,,,,,,,,6102d6071567279a56ff3479,6103696b1f748f2d73008842,2021-07-29_22h52.55.441,Simcolourproject_2stim_asymm_v5,2020.2.10,Win32,60,61025ae37ef11b136ea224fe,,,,,,,,,3261,68.0000211,-42.00001198,1,0,0,response3disk,,5,1.333393137,2.666656017,1,0,0,rectangle,1.333393137,2.666656017,1,0,0,1.333393137,2.666656017,1,0,0,1,64,224,86,1,,,,,,,,
,,,,,,,,,,,,,FF,,,,,,,,0.282,,,,,,,,,,,,,,,,,,,,,,6102d6071567279a56ff3479,6103696b1f748f2d73008842,2021-07-29_22h52.55.441,Simcolourproject_2stim_asymm_v5,2020.2.10,Win32,60,61025ae37ef11b136ea224fe,,,,,,,,,2450,62.66668761,-30.66667831,1,0,0,response3disk,,5,12.00001943,1.333322644,1,0,0,rectangle,12.00001943,1.333322644,1,0,0,12.00001943,1.333322644,1,0,0,1,65,225,11,1,,,,,,,,
,,,,,,,,,,,,,FF,,,,,,,,0.2801,,,,,,,,,,,,,,,,,,,,,,6102d6071567279a56ff3479,6103696b1f748f2d73008842,2021-07-29_22h52.55.441,Simcolourproject_2stim_asymm_v5,2020.2.10,Win32,60,61025ae37ef11b136ea224fe,,,,,,,,,1805,62.66668761,-32.00001168,1,0,0,response3disk,,5,19.33339367,-5.333344221,1,0,0,rectangle,19.33339367,-5.333344221,1,0,0,19.33339367,-5.333344221,1,0,0,1,66,226,16,1,,,,,,,,
,,,,,,,,,,,,,FF,,,,,,,,0.3499,,,,,,,,,,,,,,,,,,,,,,6102d6071567279a56ff3479,6103696b1f748f2d73008842,2021-07-29_22h52.55.441,Simcolourproject_2stim_asymm_v5,2020.2.10,Win32,60,61025ae37ef11b136ea224fe,,,,,,,,,1882,58.0000208,53.33330385,1,0,0,response1disk,,6,12.66668612,-0.666677415,1,0,0,rectangle,12.66668612,-0.666677415,1,0,0,12.66668612,-0.666677415,1,0,0,1,67,227,39,1,,,,,,,,
,,,,,,,,,,,,,FF,,,,,,,,0.2501,,,,,,,,,,,,,,,,,,,,,,6102d6071567279a56ff3479,6103696b1f748f2d73008842,2021-07-29_22h52.55.441,Simcolourproject_2stim_asymm_v5,2020.2.10,Win32,60,61025ae37ef11b136ea224fe,,,,,,,,,209,62.00002092,21.3333029,1,0,0,response1disk,,6,15.33339355,2.666656017,1,0,0,rectangle,15.33339355,2.666656017,1,0,0,15.33339355,2.666656017,1,0,0,1,68,228,80,1,,,,,,,,
,,,,,,,,,,,,,FF,,,,,,,,0.1972,,,,,,,,,,,,,,,,,,,,,,6102d6071567279a56ff3479,6103696b1f748f2d73008842,2021-07-29_22h52.55.441,Simcolourproject_2stim_asymm_v5,2020.2.10,Win32,60,61025ae37ef11b136ea224fe,,,,,,,,,739,78.0000214,35.99999034,1,0,0,response1disk,,6,10.00001937,1.333322644,1,0,0,rectangle,10.00001937,1.333322644,1,0,0,10.00001937,1.333322644,1,0,0,1,69,229,51,1,,,,,,,,
,,,,,,,,,,,,,FF,,,,,,,,0.2383,,,,,,,,,,,,,,,,,,,,,,6102d6071567279a56ff3479,6103696b1f748f2d73008842,2021-07-29_22h52.55.441,Simcolourproject_2stim_asymm_v5,2020.2.10,Win32,60,61025ae37ef11b136ea224fe,,,,,,,,,2443,69.33335447,21.3333029,1,0,0,response1disk,,6,14.66668618,-3.333344162,1,0,0,rectangle,14.66668618,-3.333344162,1,0,0,14.66668618,-3.333344162,1,0,0,1,70,230,132,1,,,,,,,,
,,,,,,,,,,,,,FF,,,,,,,,0.2504,,,,,,,,,,,,,,,,,,,,,,6102d6071567279a56ff3479,6103696b1f748f2d73008842,2021-07-29_22h52.55.441,Simcolourproject_2stim_asymm_v5,2020.2.10,Win32,60,61025ae37ef11b136ea224fe,,,,,,,,,2294,78.66668808,29.33330313,1,0,0,response1disk,,6,-9.333314538,2.666656017,1,0,0,rectangle,-9.333314538,2.666656017,1,0,0,-9.333314538,2.666656017,1,0,0,1,71,231,30,1,,,,,,,,
,,,,,,,,,,,,,FF,,,,,,,,0.266,,,,,,,,,,,,,,,,,,,,,,6102d6071567279a56ff3479,6103696b1f748f2d73008842,2021-07-29_22h52.55.441,Simcolourproject_2stim_asymm_v5,2020.2.10,Win32,60,61025ae37ef11b136ea224fe,,,,,,,,,584,-32.66660788,-58.66667914,1,0,0,response5disk,,3,9.333393375,-1.07288E-05,1,0,0,rectangle,9.333393375,-1.07288E-05,1,0,0,9.333393375,-1.07288E-05,1,0,0,1,72,232,90,1,,,,,,,,
,,,,,,,,,,,,,FF,,,,,,,,0.2973,,,,,,,,,,,,,,,,,,,,,,6102d6071567279a56ff3479,6103696b1f748f2d73008842,2021-07-29_22h52.55.441,Simcolourproject_2stim_asymm_v5,2020.2.10,Win32,60,61025ae37ef11b136ea224fe,,,,,,,,,1570,34.00002009,-68.66667944,1,0,0,response3disk,,4,1.333393137,1.999989331,1,0,0,rectangle,1.333393137,1.999989331,1,0,0,1.333393137,1.999989331,1,0,0,1,73,233,82,1,,,,,,,,
,,,,,,,,,,,,,FF,,,,,,,,0.3452,,,,,,,,,,,,,,,,,,,,,,6102d6071567279a56ff3479,6103696b1f748f2d73008842,2021-07-29_22h52.55.441,Simcolourproject_2stim_asymm_v5,2020.2.10,Win32,60,61025ae37ef11b136ea224fe,,,,,,,,,2774,38.66668689,-46.66667879,1,0,0,response3disk,,4,19.33339367,-12.66667777,1,0,0,rectangle,19.33339367,-12.66667777,1,0,0,19.33339367,-12.66667777,1,0,0,1,74,234,122,1,,,,,,,,
,,,,,,,,,,,,,FF,,,,,,,,0.4489,,,,,,,,,,,,,,,,,,,,,,6102d6071567279a56ff3479,6103696b1f748f2d73008842,2021-07-29_22h52.55.441,Simcolourproject_2stim_asymm_v5,2020.2.10,Win32,60,61025ae37ef11b136ea224fe,,,,,,,,,1999,64.00002098,56.66665763,1,0,0,response1disk,,6,30.00001997,-0.666677415,1,0,0,rectangle,30.00001997,-0.666677415,1,0,0,30.00001997,-0.666677415,1,0,0,1,75,235,134,1,,,,,,,,
,,,,,,,,,,,,,FF,,,,,,,,0.1671,,,,,,,,,,,,,,,,,,,,,,6102d6071567279a56ff3479,6103696b1f748f2d73008842,2021-07-29_22h52.55.441,Simcolourproject_2stim_asymm_v5,2020.2.10,Win32,60,61025ae37ef11b136ea224fe,,,,,,,,,653,56.00002074,-30.00001162,1,0,0,response3disk,,5,9.333393375,2.666656017,1,0,0,rectangle,9.333393375,2.666656017,1,0,0,9.333393375,2.666656017,1,0,0,1,76,236,21,1,,,,,,,,
,,,,,,,,,,,,,FF,,,,,,,,0.153,,,,,,,,,,,,,,,,,,,,,,6102d6071567279a56ff3479,6103696b1f748f2d73008842,2021-07-29_22h52.55.441,Simcolourproject_2stim_asymm_v5,2020.2.10,Win32,60,61025ae37ef11b136ea224fe,,,,,,,,,4322,58.66668749,-37.33334517,1,0,0,response3disk,,5,22.00001973,-1.333344102,1,0,0,rectangle,-77.33331656,-42.66667867,1,0,0,-13.99998134,-5.333344221,1,0,0,1,77,237,42,1,,response5disk_3,TRUE,2,2,"[271,92,198,189,250,5,207,312,68,238,312,307,298,27,253,251,187,3,274,77]",1.8953,rectangle
,,,,,,,,,,,,,FF,,,,,,,,0.2499,,,,,,,,,,,,,,,,,,,,,,6102d6071567279a56ff3479,6103696b1f748f2d73008842,2021-07-29_22h52.55.441,Simcolourproject_2stim_asymm_v5,2020.2.10,Win32,60,61025ae37ef11b136ea224fe,,,,,,,,,1925,36.66668683,-32.66667837,1,0,0,response3disk,,5,-5.333314419,7.99998951,1,0,0,rectangle,-5.333314419,7.99998951,1,0,0,-5.333314419,7.99998951,1,0,0,1,78,238,120,1,,,,,,,,
,,,,,,,,,,,,,FF,,,,,,,,0.1502,,,,,,,,,,,,,,,,,,,,,,6102d6071567279a56ff3479,6103696b1f748f2d73008842,2021-07-29_22h52.55.441,Simcolourproject_2stim_asymm_v5,2020.2.10,Win32,60,61025ae37ef11b136ea224fe,,,,,,,,,671,74.00002128,-24.66667813,1,0,0,response3disk,,5,24.66668648,7.333322823,1,0,0,rectangle,24.66668648,7.333322823,1,0,0,24.66668648,7.333322823,1,0,0,1,79,239,14,1,,,,,,,,
,,,,,,,,,,,,,FF,,,,,,,,0.1001,,,,,,,,,,,,,,,,,,,,,,6102d6071567279a56ff3479,6103696b1f748f2d73008842,2021-07-29_22h52.55.441,Simcolourproject_2stim_asymm_v5,2020.2.10,Win32,60,61025ae37ef11b136ea224fe,,,,,,,,,2056,80.00002146,-44.66667873,1,0,0,response3disk,,5,5.333393256,3.99998939,1,0,0,rectangle,5.333393256,3.99998939,1,0,0,5.333393256,3.99998939,1,0,0,1,80,240,146,1,,,,,,,,
,,,,,,,,,,,,,FF,,,,,,,,0.3663,,,,,,,,,,,,,,,,,,,,,,6102d6071567279a56ff3479,6103696b1f748f2d73008842,2021-07-29_22h52.55.441,Simcolourproject_2stim_asymm_v5,2020.2.10,Win32,60,61025ae37ef11b136ea224fe,,,,,,,,,4018,64.00002098,25.99999005,1,0,0,response1disk,,6,16.00001955,9.333322883,1,0,0,rectangle,16.00001955,9.333322883,1,0,0,16.00001955,9.333322883,1,0,0,1,81,241,27,1,,,,,,,,
,,,,,,,,,,,,,FF,,,,,,,,0.2,,,,,,,,,,,,,,,,,,,,,,6102d6071567279a56ff3479,6103696b1f748f2d73008842,2021-07-29_22h52.55.441,Simcolourproject_2stim_asymm_v5,2020.2.10,Win32,60,61025ae37ef11b136ea224fe,,,,,,,,,1523,74.00002128,23.33330295,1,0,0,response1disk,,6,20.66668636,13.333323,1,0,0,rectangle,20.66668636,13.333323,1,0,0,20.66668636,13.333323,1,0,0,1,82,242,94,1,,,,,,,,
,,,,,,,,,,,,,FF,,,,,,,,0.7995,,,,,,,,,,,,,,,,,,,,,,6102d6071567279a56ff3479,6103696b1f748f2d73008842,2021-07-29_22h52.55.441,Simcolourproject_2stim_asymm_v5,2020.2.10,Win32,60,61025ae37ef11b136ea224fe,,,,,,,,,1005,86.66668832,-58.00001246,1,0,0,response3disk,,5,14.66668618,-2.000010788,1,0,0,rectangle,14.66668618,-2.000010788,1,0,0,14.66668618,-2.000010788,1,0,0,1,83,243,116,1,,,,,,,,
,,,,,,,,,,,,,FF,,,,,,,,0.3659,,,,,,,,,,,,,,,,,,,,,,6102d6071567279a56ff3479,6103696b1f748f2d73008842,2021-07-29_22h52.55.441,Simcolourproject_2stim_asymm_v5,2020.2.10,Win32,60,61025ae37ef11b136ea224fe,,,,,,,,,1159,82.00002152,-44.00001204,1,0,0,response3disk,,5,-5.333314419,5.333322763,1,0,0,rectangle,-5.333314419,5.333322763,1,0,0,-5.333314419,5.333322763,1,0,0,1,84,244,41,1,,,,,,,,
