key_resp.keys,key_resp.rt,key_resp_14.keys,key_resp_14.rt,key_resp_15.keys,key_resp_15.rt,key_resp_17.keys,key_resp_17.rt,key_resp_9.keys,key_resp_9.rt,key_resp_10.keys,key_resp_10.rt,practice_comparison,Ecc,mouse_5.x,mouse_5.y,mouse_5.leftButton,mouse_5.midButton,mouse_5.rightButton,mouse_5.clicked_name,pracsimilarity,response_time,mouse_10.x,mouse_10.y,mouse_10.leftButton,mouse_10.midButton,mouse_10.rightButton,mouse_10.clicked_name,mouse_7.x,mouse_7.y,mouse_7.leftButton,mouse_7.midButton,mouse_7.rightButton,mouse_6.x,mouse_6.y,mouse_6.leftButton,mouse_6.midButton,mouse_6.rightButton,duringprac.thisRepN,duringprac.thisTrialN,duringprac.thisN,duringprac.thisIndex,duringprac.ran,participant,session,date,expName,psychopyVersion,OS,frameRate,study_id,mouse_7.clicked_name,catchpracsimilarity,catch_response_time,catchnumberprac,catchtrialorderprac,mouse_6.clicked_name,key_resp_22.keys,key_resp_22.rt,realcomparison,mouse.x,mouse.y,mouse.leftButton,mouse.midButton,mouse.rightButton,mouse.clicked_name,Colour2,similarity,mouse_2.x,mouse_2.y,mouse_2.leftButton,mouse_2.midButton,mouse_2.rightButton,mouse_2.clicked_name,mouse_3.x,mouse_3.y,mouse_3.leftButton,mouse_3.midButton,mouse_3.rightButton,mouse_11.x,mouse_11.y,mouse_11.leftButton,mouse_11.midButton,mouse_11.rightButton,trials_2.thisRepN,trials_2.thisTrialN,trials_2.thisN,trials_2.thisIndex,trials_2.ran,Colour1,mouse_3.clicked_name,catchornah,catchsimilarity,catchnumber,catchtrialorder,catchRT,mouse_11.clicked_name
space,1.2105,space,2.3811,space,8.591,space,5.6694,space,4.5839,space,2.2433,33,FF,-77.91522217,-27.89651489,1,0,0,response5disk_5,2,4.8369,-2.360961914,8.578918457,1,0,0,rectangle_8,-2.360961914,8.578918457,1,0,0,-2.360961914,8.578918457,1,0,0,0,0,0,3,1,61023602e6e4517b310c24aa,61036c5d4ea5c745f29813cf,2021-07-30_13h06.09.669,Simcolourproject_2stim_asymm_v5,2020.2.10,MacIntel,60,61025ae37ef11b136ea224fe,,,,,,,,,,,,,,,,,,,,,,,,,,,,,,,,,,,,,,,,,,,,,,
,,,,,,,,,,,,124,PF,80.02386475,-24.25445557,1,0,0,response3disk_5,5,3.3463,-9.682800293,-2.996887207,1,0,0,rectangle_8,24.7434082,-76.77789307,1,0,0,0.673583984,-1.783752441,1,0,0,0,1,1,4,1,61023602e6e4517b310c24aa,61036c5d4ea5c745f29813cf,2021-07-30_13h06.09.669,Simcolourproject_2stim_asymm_v5,2020.2.10,MacIntel,60,61025ae37ef11b136ea224fe,response3disk_7,4,3.5839,4,"[2,5]",rectangle_4,,,,,,,,,,,,,,,,,,,,,,,,,,,,,,,,,,,,,,,,
,,,,,,,,,,,,69,FF,35.10791016,-69.09014893,1,0,0,response3disk_5,4,3.3695,0.443725586,11.1418457,1,0,0,rectangle_8,0.443725586,11.1418457,1,0,0,0.443725586,11.1418457,1,0,0,0,2,2,0,1,61023602e6e4517b310c24aa,61036c5d4ea5c745f29813cf,2021-07-30_13h06.09.669,Simcolourproject_2stim_asymm_v5,2020.2.10,MacIntel,60,61025ae37ef11b136ea224fe,,,,,,,,,,,,,,,,,,,,,,,,,,,,,,,,,,,,,,,,,,,,,,
,,,,,,,,,,,,124,PF,73.81726074,-21.01245117,1,0,0,response3disk_5,5,4.0545,-2.536132813,4.4559021,1,0,0,rectangle_8,-2.536132813,4.4559021,1,0,0,-2.536132813,4.4559021,1,0,0,0,3,3,1,1,61023602e6e4517b310c24aa,61036c5d4ea5c745f29813cf,2021-07-30_13h06.09.669,Simcolourproject_2stim_asymm_v5,2020.2.10,MacIntel,60,61025ae37ef11b136ea224fe,,,,,,,,,,,,,,,,,,,,,,,,,,,,,,,,,,,,,,,,,,,,,,
,,,,,,,,,,,,150,FF,68.42700195,29.54830933,1,0,0,response1disk_5,6,2.7788,0.395874023,-1.48348999,1,0,0,rectangle_8,31.36376953,-64.14904785,1,0,0,-5.121276855,6.791137695,1,0,0,0,4,4,5,1,61023602e6e4517b310c24aa,61036c5d4ea5c745f29813cf,2021-07-30_13h06.09.669,Simcolourproject_2stim_asymm_v5,2020.2.10,MacIntel,60,61025ae37ef11b136ea224fe,response3disk_7,4,2.6489,4,"[2,5]",rectangle_4,,,,,,,,,,,,,,,,,,,,,,,,,,,,,,,,,,,,,,,,
,,,,,,,,,,,,137,PF,-63.73937988,-31.9274292,1,0,0,response5disk_5,2,1.634,-1.246337891,-3.4581604,1,0,0,rectangle_8,-1.246337891,-3.4581604,1,0,0,-1.246337891,-3.4581604,1,0,0,0,5,5,2,1,61023602e6e4517b310c24aa,61036c5d4ea5c745f29813cf,2021-07-30_13h06.09.669,Simcolourproject_2stim_asymm_v5,2020.2.10,MacIntel,60,61025ae37ef11b136ea224fe,,,,,,,,,,,,,,,,,,,,,,,,,,,,,,,,,,,,,,,,,,,,,,
,,,,,,,,,,,,69,PF,72.80480957,-41.36206055,1,0,0,response3disk_5,5,2.6121,1.021362305,-8.338195801,1,0,0,rectangle_8,1.021362305,-8.338195801,1,0,0,1.021362305,-8.338195801,1,0,0,0,6,6,6,1,61023602e6e4517b310c24aa,61036c5d4ea5c745f29813cf,2021-07-30_13h06.09.669,Simcolourproject_2stim_asymm_v5,2020.2.10,MacIntel,60,61025ae37ef11b136ea224fe,,,,,,,,,,,,,,,,,,,,,,,,,,,,,,,,,,,,,,,,,,,,,,
,,,,,,,,,,,,,FF,,,,,,,,3.3843,,,,,,,,,,,,,,,,,,,,,,61023602e6e4517b310c24aa,61036c5d4ea5c745f29813cf,2021-07-30_13h06.09.669,Simcolourproject_2stim_asymm_v5,2020.2.10,MacIntel,60,61025ae37ef11b136ea224fe,,,,,,,space,1.6066,2078,41.36456299,-57.80950928,1,0,0,response3disk,,4,7.065063477,1.018920898,1,0,0,rectangle,7.065063477,1.018920898,1,0,0,7.065063477,1.018920898,1,0,0,0,0,0,138,1,,,,,,,,
,,,,,,,,,,,,,FF,,,,,,,,2.236,,,,,,,,,,,,,,,,,,,,,,61023602e6e4517b310c24aa,61036c5d4ea5c745f29813cf,2021-07-30_13h06.09.669,Simcolourproject_2stim_asymm_v5,2020.2.10,MacIntel,60,61025ae37ef11b136ea224fe,,,,,,,,,298,83.11584473,-49.11880493,1,0,0,response3disk,,5,-5.636352539,9.921539307,1,0,0,rectangle,-5.636352539,9.921539307,1,0,0,-5.636352539,9.921539307,1,0,0,0,1,1,149,1,,,,,,,,
,,,,,,,,,,,,,FF,,,,,,,,1.5171,,,,,,,,,,,,,,,,,,,,,,61023602e6e4517b310c24aa,61036c5d4ea5c745f29813cf,2021-07-30_13h06.09.669,Simcolourproject_2stim_asymm_v5,2020.2.10,MacIntel,60,61025ae37ef11b136ea224fe,,,,,,,,,3302,48.34570313,-29.74993896,1,0,0,response3disk,,5,-0.557128906,4.984222412,1,0,0,rectangle,65.76220703,38.49871826,1,0,0,10.44940186,14.19677734,1,0,0,0,2,2,68,1,,response1disk_3,TRUE,6,6,"[45,31,87,246,156,223,189,122,141,3,155,126,25,98,298,175,310,120,304,74]",2.2367,rectangle
,,,,,,,,,,,,,FF,,,,,,,,1.9789,,,,,,,,,,,,,,,,,,,,,,61023602e6e4517b310c24aa,61036c5d4ea5c745f29813cf,2021-07-30_13h06.09.669,Simcolourproject_2stim_asymm_v5,2020.2.10,MacIntel,60,61025ae37ef11b136ea224fe,,,,,,,,,4054,16.42938232,-64.23742676,1,0,0,response3disk,,4,4.097717285,-13.47021484,1,0,0,rectangle,4.097717285,-13.47021484,1,0,0,4.097717285,-13.47021484,1,0,0,0,3,3,11,1,,,,,,,,
,,,,,,,,,,,,,FF,,,,,,,,1.5628,,,,,,,,,,,,,,,,,,,,,,61023602e6e4517b310c24aa,61036c5d4ea5c745f29813cf,2021-07-30_13h06.09.669,Simcolourproject_2stim_asymm_v5,2020.2.10,MacIntel,60,61025ae37ef11b136ea224fe,,,,,,,,,2607,30.60162354,-75.75756836,1,0,0,response3disk,,4,6.345214844,-8.105895996,1,0,0,rectangle,6.345214844,-8.105895996,1,0,0,6.345214844,-8.105895996,1,0,0,0,4,4,117,1,,,,,,,,
,,,,,,,,,,,,,FF,,,,,,,,2.5663,,,,,,,,,,,,,,,,,,,,,,61023602e6e4517b310c24aa,61036c5d4ea5c745f29813cf,2021-07-30_13h06.09.669,Simcolourproject_2stim_asymm_v5,2020.2.10,MacIntel,60,61025ae37ef11b136ea224fe,,,,,,,,,3213,69.09881592,34.29589844,1,0,0,response1disk,,6,-4.163818359,-5.152954102,1,0,0,rectangle,-4.163818359,-5.152954102,1,0,0,-4.163818359,-5.152954102,1,0,0,0,5,5,52,1,,,,,,,,
,,,,,,,,,,,,,FF,,,,,,,,1.3171,,,,,,,,,,,,,,,,,,,,,,61023602e6e4517b310c24aa,61036c5d4ea5c745f29813cf,2021-07-30_13h06.09.669,Simcolourproject_2stim_asymm_v5,2020.2.10,MacIntel,60,61025ae37ef11b136ea224fe,,,,,,,,,2669,-48.31713867,-21.81628418,1,0,0,response5disk,,2,-6.534545898,-3.472167969,1,0,0,rectangle,-6.534545898,-3.472167969,1,0,0,-6.534545898,-3.472167969,1,0,0,0,6,6,66,1,,,,,,,,
,,,,,,,,,,,,,FF,,,,,,,,3.0331,,,,,,,,,,,,,,,,,,,,,,61023602e6e4517b310c24aa,61036c5d4ea5c745f29813cf,2021-07-30_13h06.09.669,Simcolourproject_2stim_asymm_v5,2020.2.10,MacIntel,60,61025ae37ef11b136ea224fe,,,,,,,,,2759,61.37023926,-38.10119629,1,0,0,response3disk,,5,-5.596191406,-4.14151001,1,0,0,rectangle,-5.596191406,-4.14151001,1,0,0,-5.596191406,-4.14151001,1,0,0,0,7,7,159,1,,,,,,,,
,,,,,,,,,,,,,FF,,,,,,,,1.6983,,,,,,,,,,,,,,,,,,,,,,61023602e6e4517b310c24aa,61036c5d4ea5c745f29813cf,2021-07-30_13h06.09.669,Simcolourproject_2stim_asymm_v5,2020.2.10,MacIntel,60,61025ae37ef11b136ea224fe,,,,,,,,,3267,74.40966797,33.81359863,1,0,0,response1disk,,6,-3.581726074,11.02508545,1,0,0,rectangle,-3.581726074,11.02508545,1,0,0,-3.581726074,11.02508545,1,0,0,0,8,8,128,1,,,,,,,,
,,,,,,,,,,,,,FF,,,,,,,,2.0005,,,,,,,,,,,,,,,,,,,,,,61023602e6e4517b310c24aa,61036c5d4ea5c745f29813cf,2021-07-30_13h06.09.669,Simcolourproject_2stim_asymm_v5,2020.2.10,MacIntel,60,61025ae37ef11b136ea224fe,,,,,,,,,557,-24.24462891,-65.07568359,1,0,0,response5disk,,3,-2.311218262,-1.477416992,1,0,0,rectangle,-2.311218262,-1.477416992,1,0,0,-2.311218262,-1.477416992,1,0,0,0,9,9,72,1,,,,,,,,
,,,,,,,,,,,,,FF,,,,,,,,2.3009,,,,,,,,,,,,,,,,,,,,,,61023602e6e4517b310c24aa,61036c5d4ea5c745f29813cf,2021-07-30_13h06.09.669,Simcolourproject_2stim_asymm_v5,2020.2.10,MacIntel,60,61025ae37ef11b136ea224fe,,,,,,,,,2684,52.48760986,-73.24554443,1,0,0,response3disk,,4,16.87060547,-3.307647705,1,0,0,rectangle,16.87060547,-3.307647705,1,0,0,16.87060547,-3.307647705,1,0,0,0,10,10,61,1,,,,,,,,
,,,,,,,,,,,,,FF,,,,,,,,1.5517,,,,,,,,,,,,,,,,,,,,,,61023602e6e4517b310c24aa,61036c5d4ea5c745f29813cf,2021-07-30_13h06.09.669,Simcolourproject_2stim_asymm_v5,2020.2.10,MacIntel,60,61025ae37ef11b136ea224fe,,,,,,,,,2405,-21.44512939,-51.08248901,1,0,0,response5disk,,3,2.752807617,-1.956176758,1,0,0,rectangle,2.752807617,-1.956176758,1,0,0,2.752807617,-1.956176758,1,0,0,0,11,11,75,1,,,,,,,,
,,,,,,,,,,,,,FF,,,,,,,,2.8171,,,,,,,,,,,,,,,,,,,,,,61023602e6e4517b310c24aa,61036c5d4ea5c745f29813cf,2021-07-30_13h06.09.669,Simcolourproject_2stim_asymm_v5,2020.2.10,MacIntel,60,61025ae37ef11b136ea224fe,,,,,,,,,3699,38.55529785,-67.07849121,1,0,0,response3disk,,4,-14.83691406,14.39932251,1,0,0,rectangle,-14.83691406,14.39932251,1,0,0,-14.83691406,14.39932251,1,0,0,0,12,12,35,1,,,,,,,,
,,,,,,,,,,,,,FF,,,,,,,,2.3458,,,,,,,,,,,,,,,,,,,,,,61023602e6e4517b310c24aa,61036c5d4ea5c745f29813cf,2021-07-30_13h06.09.669,Simcolourproject_2stim_asymm_v5,2020.2.10,MacIntel,60,61025ae37ef11b136ea224fe,,,,,,,,,254,46.15856934,-36.48745728,1,0,0,response3disk,,5,-12.73712158,-8.891479492,1,0,0,rectangle,-12.73712158,-8.891479492,1,0,0,-12.73712158,-8.891479492,1,0,0,0,13,13,110,1,,,,,,,,
,,,,,,,,,,,,,FF,,,,,,,,1.7979,,,,,,,,,,,,,,,,,,,,,,61023602e6e4517b310c24aa,61036c5d4ea5c745f29813cf,2021-07-30_13h06.09.669,Simcolourproject_2stim_asymm_v5,2020.2.10,MacIntel,60,61025ae37ef11b136ea224fe,,,,,,,,,1750,-37.73040771,-69.44958496,1,0,0,response5disk,,3,-7.542663574,3.991455078,1,0,0,rectangle,-7.542663574,3.991455078,1,0,0,-7.542663574,3.991455078,1,0,0,0,14,14,90,1,,,,,,,,
,,,,,,,,,,,,,FF,,,,,,,,2.0842,,,,,,,,,,,,,,,,,,,,,,61023602e6e4517b310c24aa,61036c5d4ea5c745f29813cf,2021-07-30_13h06.09.669,Simcolourproject_2stim_asymm_v5,2020.2.10,MacIntel,60,61025ae37ef11b136ea224fe,,,,,,,,,1392,65.62487793,-21.42471313,1,0,0,response3disk,,5,7.951538086,-5.408233643,1,0,0,rectangle,7.951538086,-5.408233643,1,0,0,7.951538086,-5.408233643,1,0,0,0,15,15,121,1,,,,,,,,
,,,,,,,,,,,,,FF,,,,,,,,2.6857,,,,,,,,,,,,,,,,,,,,,,61023602e6e4517b310c24aa,61036c5d4ea5c745f29813cf,2021-07-30_13h06.09.669,Simcolourproject_2stim_asymm_v5,2020.2.10,MacIntel,60,61025ae37ef11b136ea224fe,,,,,,,,,2867,63.2454834,34.97753906,1,0,0,response1disk,,6,-12.82025146,-5.247802734,1,0,0,rectangle,-12.82025146,-5.247802734,1,0,0,-12.82025146,-5.247802734,1,0,0,0,16,16,78,1,,,,,,,,
,,,,,,,,,,,,,FF,,,,,,,,0.9348,,,,,,,,,,,,,,,,,,,,,,61023602e6e4517b310c24aa,61036c5d4ea5c745f29813cf,2021-07-30_13h06.09.669,Simcolourproject_2stim_asymm_v5,2020.2.10,MacIntel,60,61025ae37ef11b136ea224fe,,,,,,,,,1789,63.79547119,24.03292847,1,0,0,response1disk,,6,14.63348389,-7.368347168,1,0,0,rectangle,14.63348389,-7.368347168,1,0,0,14.63348389,-7.368347168,1,0,0,0,17,17,39,1,,,,,,,,
,,,,,,,,,,,,,FF,,,,,,,,1.8328,,,,,,,,,,,,,,,,,,,,,,61023602e6e4517b310c24aa,61036c5d4ea5c745f29813cf,2021-07-30_13h06.09.669,Simcolourproject_2stim_asymm_v5,2020.2.10,MacIntel,60,61025ae37ef11b136ea224fe,,,,,,,,,3060,31.29345703,-72.35290527,1,0,0,response3disk,,4,4.721679688,-0.237548828,1,0,0,rectangle,4.721679688,-0.237548828,1,0,0,4.721679688,-0.237548828,1,0,0,0,18,18,85,1,,,,,,,,
,,,,,,,,,,,,,FF,,,,,,,,2.0508,,,,,,,,,,,,,,,,,,,,,,61023602e6e4517b310c24aa,61036c5d4ea5c745f29813cf,2021-07-30_13h06.09.669,Simcolourproject_2stim_asymm_v5,2020.2.10,MacIntel,60,61025ae37ef11b136ea224fe,,,,,,,,,651,-20.29040527,-63.94561768,1,0,0,response5disk,,3,2.122680664,-2.50201416,1,0,0,rectangle,2.122680664,-2.50201416,1,0,0,2.122680664,-2.50201416,1,0,0,0,19,19,64,1,,,,,,,,
,,,,,,,,,,,,,FF,,,,,,,,3.2324,,,,,,,,,,,,,,,,,,,,,,61023602e6e4517b310c24aa,61036c5d4ea5c745f29813cf,2021-07-30_13h06.09.669,Simcolourproject_2stim_asymm_v5,2020.2.10,MacIntel,60,61025ae37ef11b136ea224fe,,,,,,,,,1666,30.96990967,-44.19512939,1,0,0,response3disk,,4,-5.189086914,4.643371582,1,0,0,rectangle,-5.189086914,4.643371582,1,0,0,-5.189086914,4.643371582,1,0,0,0,20,20,124,1,,,,,,,,
,,,,,,,,,,,,,FF,,,,,,,,2.1171,,,,,,,,,,,,,,,,,,,,,,61023602e6e4517b310c24aa,61036c5d4ea5c745f29813cf,2021-07-30_13h06.09.669,Simcolourproject_2stim_asymm_v5,2020.2.10,MacIntel,60,61025ae37ef11b136ea224fe,,,,,,,,,1404,66.74090576,33.80609131,1,0,0,response1disk,,6,9.493225098,2.133270264,1,0,0,rectangle,9.493225098,2.133270264,1,0,0,9.493225098,2.133270264,1,0,0,0,21,21,112,1,,,,,,,,
,,,,,,,,,,,,,FF,,,,,,,,1.0031,,,,,,,,,,,,,,,,,,,,,,61023602e6e4517b310c24aa,61036c5d4ea5c745f29813cf,2021-07-30_13h06.09.669,Simcolourproject_2stim_asymm_v5,2020.2.10,MacIntel,60,61025ae37ef11b136ea224fe,,,,,,,,,610,52.39044189,29.03918457,1,0,0,response1disk,,6,3.573791504,15.25708008,1,0,0,rectangle,3.573791504,15.25708008,1,0,0,3.573791504,15.25708008,1,0,0,0,22,22,106,1,,,,,,,,
,,,,,,,,,,,,,FF,,,,,,,,0.6531,,,,,,,,,,,,,,,,,,,,,,61023602e6e4517b310c24aa,61036c5d4ea5c745f29813cf,2021-07-30_13h06.09.669,Simcolourproject_2stim_asymm_v5,2020.2.10,MacIntel,60,61025ae37ef11b136ea224fe,,,,,,,,,1167,55.44812012,21.15545654,1,0,0,response1disk,,6,7.362060547,3.695617676,1,0,0,rectangle,7.362060547,3.695617676,1,0,0,7.362060547,3.695617676,1,0,0,0,23,23,148,1,,,,,,,,
,,,,,,,,,,,,,FF,,,,,,,,1.6979,,,,,,,,,,,,,,,,,,,,,,61023602e6e4517b310c24aa,61036c5d4ea5c745f29813cf,2021-07-30_13h06.09.669,Simcolourproject_2stim_asymm_v5,2020.2.10,MacIntel,60,61025ae37ef11b136ea224fe,,,,,,,,,2610,68.55175781,-35.0486145,1,0,0,response3disk,,5,8.524536133,-1.887329102,1,0,0,rectangle,-20.71112061,-63.45220947,1,0,0,1.09777832,-4.653625488,1,0,0,0,24,24,16,1,,response5disk_3,TRUE,3,3,"[45,31,87,246,156,223,189,122,141,3,155,126,25,98,298,175,310,120,304,74]",3.2329,rectangle
,,,,,,,,,,,,,FF,,,,,,,,2.5218,,,,,,,,,,,,,,,,,,,,,,61023602e6e4517b310c24aa,61036c5d4ea5c745f29813cf,2021-07-30_13h06.09.669,Simcolourproject_2stim_asymm_v5,2020.2.10,MacIntel,60,61025ae37ef11b136ea224fe,,,,,,,,,792,71.77709961,-22.6932373,1,0,0,response3disk,,5,-11.49902344,-5.951965332,1,0,0,rectangle,-11.49902344,-5.951965332,1,0,0,-11.49902344,-5.951965332,1,0,0,0,25,25,65,1,,,,,,,,
,,,,,,,,,,,,,FF,,,,,,,,2.6466,,,,,,,,,,,,,,,,,,,,,,61023602e6e4517b310c24aa,61036c5d4ea5c745f29813cf,2021-07-30_13h06.09.669,Simcolourproject_2stim_asymm_v5,2020.2.10,MacIntel,60,61025ae37ef11b136ea224fe,,,,,,,,,2163,36.10681152,-64.85229492,1,0,0,response3disk,,4,-0.345275879,4.192810059,1,0,0,rectangle,-0.345275879,4.192810059,1,0,0,-0.345275879,4.192810059,1,0,0,0,26,26,114,1,,,,,,,,
,,,,,,,,,,,,,FF,,,,,,,,1.2493,,,,,,,,,,,,,,,,,,,,,,61023602e6e4517b310c24aa,61036c5d4ea5c745f29813cf,2021-07-30_13h06.09.669,Simcolourproject_2stim_asymm_v5,2020.2.10,MacIntel,60,61025ae37ef11b136ea224fe,,,,,,,,,3781,-25.30023193,-73.85119629,1,0,0,response5disk,,3,-5.752319336,-4.814331055,1,0,0,rectangle,-5.752319336,-4.814331055,1,0,0,-5.752319336,-4.814331055,1,0,0,0,27,27,40,1,,,,,,,,
,,,,,,,,,,,,,FF,,,,,,,,0.9654,,,,,,,,,,,,,,,,,,,,,,61023602e6e4517b310c24aa,61036c5d4ea5c745f29813cf,2021-07-30_13h06.09.669,Simcolourproject_2stim_asymm_v5,2020.2.10,MacIntel,60,61025ae37ef11b136ea224fe,,,,,,,,,1888,-60.91290283,-32.32885742,1,0,0,response5disk,,2,15.41558838,1.246765137,1,0,0,rectangle,15.41558838,1.246765137,1,0,0,15.41558838,1.246765137,1,0,0,0,28,28,34,1,,,,,,,,
,,,,,,,,,,,,,FF,,,,,,,,1.6672,,,,,,,,,,,,,,,,,,,,,,61023602e6e4517b310c24aa,61036c5d4ea5c745f29813cf,2021-07-30_13h06.09.669,Simcolourproject_2stim_asymm_v5,2020.2.10,MacIntel,60,61025ae37ef11b136ea224fe,,,,,,,,,3200,-20.57580566,-76.11663818,1,0,0,response5disk,,3,0.763000488,-4.242614746,1,0,0,rectangle,0.763000488,-4.242614746,1,0,0,0.763000488,-4.242614746,1,0,0,0,29,29,94,1,,,,,,,,
,,,,,,,,,,,,,FF,,,,,,,,3.0337,,,,,,,,,,,,,,,,,,,,,,61023602e6e4517b310c24aa,61036c5d4ea5c745f29813cf,2021-07-30_13h06.09.669,Simcolourproject_2stim_asymm_v5,2020.2.10,MacIntel,60,61025ae37ef11b136ea224fe,,,,,,,,,1072,64.56341553,-56.19973755,1,0,0,response3disk,,5,-1.932983398,1.709838867,1,0,0,rectangle,64.84637451,-34.53088379,1,0,0,5.452697754,-0.621459961,1,0,0,0,30,30,81,1,,response3disk_3,TRUE,5,5,"[45,31,87,246,156,223,189,122,141,3,155,126,25,98,298,175,310,120,304,74]",1.8332,rectangle
,,,,,,,,,,,,,FF,,,,,,,,1.2339,,,,,,,,,,,,,,,,,,,,,,61023602e6e4517b310c24aa,61036c5d4ea5c745f29813cf,2021-07-30_13h06.09.669,Simcolourproject_2stim_asymm_v5,2020.2.10,MacIntel,60,61025ae37ef11b136ea224fe,,,,,,,,,1783,41.69946289,-23.56570435,1,0,0,response3disk,,5,-19.59844971,3.231140137,1,0,0,rectangle,-19.59844971,3.231140137,1,0,0,-19.59844971,3.231140137,1,0,0,0,31,31,70,1,,,,,,,,
,,,,,,,,,,,,,FF,,,,,,,,0.8209,,,,,,,,,,,,,,,,,,,,,,61023602e6e4517b310c24aa,61036c5d4ea5c745f29813cf,2021-07-30_13h06.09.669,Simcolourproject_2stim_asymm_v5,2020.2.10,MacIntel,60,61025ae37ef11b136ea224fe,,,,,,,,,411,64.74676514,-17.54064941,1,0,0,response3disk,,5,5.510009766,12.58380127,1,0,0,rectangle,5.510009766,12.58380127,1,0,0,5.510009766,12.58380127,1,0,0,0,32,32,84,1,,,,,,,,
,,,,,,,,,,,,,FF,,,,,,,,2.068,,,,,,,,,,,,,,,,,,,,,,61023602e6e4517b310c24aa,61036c5d4ea5c745f29813cf,2021-07-30_13h06.09.669,Simcolourproject_2stim_asymm_v5,2020.2.10,MacIntel,60,61025ae37ef11b136ea224fe,,,,,,,,,465,66.79309082,53.64776611,1,0,0,response1disk,,6,0.290283203,1.33581543,1,0,0,rectangle,0.290283203,1.33581543,1,0,0,0.290283203,1.33581543,1,0,0,0,33,33,59,1,,,,,,,,
,,,,,,,,,,,,,FF,,,,,,,,0.7223,,,,,,,,,,,,,,,,,,,,,,61023602e6e4517b310c24aa,61036c5d4ea5c745f29813cf,2021-07-30_13h06.09.669,Simcolourproject_2stim_asymm_v5,2020.2.10,MacIntel,60,61025ae37ef11b136ea224fe,,,,,,,,,4211,67.90057373,20.08969116,1,0,0,response1disk,,6,10.86743164,0.502990723,1,0,0,rectangle,10.86743164,0.502990723,1,0,0,10.86743164,0.502990723,1,0,0,0,34,34,5,1,,,,,,,,
,,,,,,,,,,,,,FF,,,,,,,,0.7489,,,,,,,,,,,,,,,,,,,,,,61023602e6e4517b310c24aa,61036c5d4ea5c745f29813cf,2021-07-30_13h06.09.669,Simcolourproject_2stim_asymm_v5,2020.2.10,MacIntel,60,61025ae37ef11b136ea224fe,,,,,,,,,575,59.36834717,24.48797607,1,0,0,response1disk,,6,-12.07263184,-5.256958008,1,0,0,rectangle,-12.07263184,-5.256958008,1,0,0,-12.07263184,-5.256958008,1,0,0,0,35,35,51,1,,,,,,,,
,,,,,,,,,,,,,FF,,,,,,,,1.4135,,,,,,,,,,,,,,,,,,,,,,61023602e6e4517b310c24aa,61036c5d4ea5c745f29813cf,2021-07-30_13h06.09.669,Simcolourproject_2stim_asymm_v5,2020.2.10,MacIntel,60,61025ae37ef11b136ea224fe,,,,,,,,,3906,-29.33374023,60.50744629,1,0,0,response7disk,,0,2.504943848,-8.20501709,1,0,0,rectangle,2.504943848,-8.20501709,1,0,0,2.504943848,-8.20501709,1,0,0,0,36,36,71,1,,,,,,,,
,,,,,,,,,,,,,FF,,,,,,,,2.1722,,,,,,,,,,,,,,,,,,,,,,61023602e6e4517b310c24aa,61036c5d4ea5c745f29813cf,2021-07-30_13h06.09.669,Simcolourproject_2stim_asymm_v5,2020.2.10,MacIntel,60,61025ae37ef11b136ea224fe,,,,,,,,,763,79.77832031,-42.62823486,1,0,0,response3disk,,5,-1.496887207,-0.065917969,1,0,0,rectangle,-1.496887207,-0.065917969,1,0,0,-1.496887207,-0.065917969,1,0,0,0,37,37,155,1,,,,,,,,
,,,,,,,,,,,,,FF,,,,,,,,1.3352,,,,,,,,,,,,,,,,,,,,,,61023602e6e4517b310c24aa,61036c5d4ea5c745f29813cf,2021-07-30_13h06.09.669,Simcolourproject_2stim_asymm_v5,2020.2.10,MacIntel,60,61025ae37ef11b136ea224fe,,,,,,,,,3202,-29.75671387,-65.18328857,1,0,0,response5disk,,3,0.225219727,7.74798584,1,0,0,rectangle,0.225219727,7.74798584,1,0,0,0.225219727,7.74798584,1,0,0,0,38,38,123,1,,,,,,,,
,,,,,,,,,,,,,FF,,,,,,,,1.2643,,,,,,,,,,,,,,,,,,,,,,61023602e6e4517b310c24aa,61036c5d4ea5c745f29813cf,2021-07-30_13h06.09.669,Simcolourproject_2stim_asymm_v5,2020.2.10,MacIntel,60,61025ae37ef11b136ea224fe,,,,,,,,,4336,-55.45397949,-32.56945801,1,0,0,response5disk,,2,5.274902344,-5.661865234,1,0,0,rectangle,5.274902344,-5.661865234,1,0,0,5.274902344,-5.661865234,1,0,0,0,39,39,21,1,,,,,,,,
,,,,,,,,,,,,,FF,,,,,,,,1.4669,,,,,,,,,,,,,,,,,,,,,,61023602e6e4517b310c24aa,61036c5d4ea5c745f29813cf,2021-07-30_13h06.09.669,Simcolourproject_2stim_asymm_v5,2020.2.10,MacIntel,60,61025ae37ef11b136ea224fe,,,,,,,,,3667,68.25195313,-34.4302063,1,0,0,response3disk,,5,3.03137207,-4.927612305,1,0,0,rectangle,3.03137207,-4.927612305,1,0,0,3.03137207,-4.927612305,1,0,0,0,40,40,73,1,,,,,,,,
,,,,,,,,,,,,,FF,,,,,,,,1.319,,,,,,,,,,,,,,,,,,,,,,61023602e6e4517b310c24aa,61036c5d4ea5c745f29813cf,2021-07-30_13h06.09.669,Simcolourproject_2stim_asymm_v5,2020.2.10,MacIntel,60,61025ae37ef11b136ea224fe,,,,,,,,,3474,-33.77709961,-62.86694336,1,0,0,response5disk,,3,-4.113220215,-8.987182617,1,0,0,rectangle,-4.113220215,-8.987182617,1,0,0,-4.113220215,-8.987182617,1,0,0,0,41,41,105,1,,,,,,,,
,,,,,,,,,,,,,FF,,,,,,,,1.1007,,,,,,,,,,,,,,,,,,,,,,61023602e6e4517b310c24aa,61036c5d4ea5c745f29813cf,2021-07-30_13h06.09.669,Simcolourproject_2stim_asymm_v5,2020.2.10,MacIntel,60,61025ae37ef11b136ea224fe,,,,,,,,,3731,41.3092041,-79.17358398,1,0,0,response3disk,,4,-4.747070313,-5.322143555,1,0,0,rectangle,-4.747070313,-5.322143555,1,0,0,-4.747070313,-5.322143555,1,0,0,0,42,42,82,1,,,,,,,,
,,,,,,,,,,,,,FF,,,,,,,,1.6336,,,,,,,,,,,,,,,,,,,,,,61023602e6e4517b310c24aa,61036c5d4ea5c745f29813cf,2021-07-30_13h06.09.669,Simcolourproject_2stim_asymm_v5,2020.2.10,MacIntel,60,61025ae37ef11b136ea224fe,,,,,,,,,312,58.30487061,29.91741943,1,0,0,response1disk,,6,9.829528809,3.921051025,1,0,0,rectangle,9.829528809,3.921051025,1,0,0,9.829528809,3.921051025,1,0,0,0,43,43,32,1,,,,,,,,
,,,,,,,,,,,,,FF,,,,,,,,0.7806,,,,,,,,,,,,,,,,,,,,,,61023602e6e4517b310c24aa,61036c5d4ea5c745f29813cf,2021-07-30_13h06.09.669,Simcolourproject_2stim_asymm_v5,2020.2.10,MacIntel,60,61025ae37ef11b136ea224fe,,,,,,,,,993,57.17077637,19.69555664,1,0,0,response1disk,,6,2.918701172,-7.563110352,1,0,0,rectangle,-30.99737549,62.72607422,1,0,0,-2.281311035,3.431762695,1,0,0,0,44,44,115,1,,response7disk_3,TRUE,0,0,"[45,31,87,246,156,223,189,122,141,3,155,126,25,98,298,175,310,120,304,74]",1.7172,rectangle
,,,,,,,,,,,,,FF,,,,,,,,2.8002,,,,,,,,,,,,,,,,,,,,,,61023602e6e4517b310c24aa,61036c5d4ea5c745f29813cf,2021-07-30_13h06.09.669,Simcolourproject_2stim_asymm_v5,2020.2.10,MacIntel,60,61025ae37ef11b136ea224fe,,,,,,,,,1814,34.91345215,-60.38879395,1,0,0,response3disk,,4,14.52423096,-0.571563721,1,0,0,rectangle,14.52423096,-0.571563721,1,0,0,14.52423096,-0.571563721,1,0,0,0,45,45,101,1,,,,,,,,
,,,,,,,,,,,,,FF,,,,,,,,1.5855,,,,,,,,,,,,,,,,,,,,,,61023602e6e4517b310c24aa,61036c5d4ea5c745f29813cf,2021-07-30_13h06.09.669,Simcolourproject_2stim_asymm_v5,2020.2.10,MacIntel,60,61025ae37ef11b136ea224fe,,,,,,,,,2942,64.44268799,-28.73010254,1,0,0,response3disk,,5,6.249755859,-2.051208496,1,0,0,rectangle,6.249755859,-2.051208496,1,0,0,6.249755859,-2.051208496,1,0,0,0,46,46,37,1,,,,,,,,
,,,,,,,,,,,,,FF,,,,,,,,2.1197,,,,,,,,,,,,,,,,,,,,,,61023602e6e4517b310c24aa,61036c5d4ea5c745f29813cf,2021-07-30_13h06.09.669,Simcolourproject_2stim_asymm_v5,2020.2.10,MacIntel,60,61025ae37ef11b136ea224fe,,,,,,,,,3483,66.25372314,32.96496582,1,0,0,response1disk,,6,11.08825684,11.70565796,1,0,0,rectangle,11.08825684,11.70565796,1,0,0,11.08825684,11.70565796,1,0,0,0,47,47,57,1,,,,,,,,
,,,,,,,,,,,,,FF,,,,,,,,2.7719,,,,,,,,,,,,,,,,,,,,,,61023602e6e4517b310c24aa,61036c5d4ea5c745f29813cf,2021-07-30_13h06.09.669,Simcolourproject_2stim_asymm_v5,2020.2.10,MacIntel,60,61025ae37ef11b136ea224fe,,,,,,,,,2121,40.27984619,25.0406189,1,0,0,response1disk,,6,-1.942260742,4.155212402,1,0,0,rectangle,-1.942260742,4.155212402,1,0,0,-1.942260742,4.155212402,1,0,0,0,48,48,140,1,,,,,,,,
,,,,,,,,,,,,,FF,,,,,,,,1.2156,,,,,,,,,,,,,,,,,,,,,,61023602e6e4517b310c24aa,61036c5d4ea5c745f29813cf,2021-07-30_13h06.09.669,Simcolourproject_2stim_asymm_v5,2020.2.10,MacIntel,60,61025ae37ef11b136ea224fe,,,,,,,,,4180,72.39654541,43.51092529,1,0,0,response1disk,,6,10.33612061,2.923522949,1,0,0,rectangle,10.33612061,2.923522949,1,0,0,10.33612061,2.923522949,1,0,0,0,49,49,98,1,,,,,,,,
,,,,,,,,,,,,,FF,,,,,,,,2.5184,,,,,,,,,,,,,,,,,,,,,,61023602e6e4517b310c24aa,61036c5d4ea5c745f29813cf,2021-07-30_13h06.09.669,Simcolourproject_2stim_asymm_v5,2020.2.10,MacIntel,60,61025ae37ef11b136ea224fe,,,,,,,,,882,56.00311279,-30.70587158,1,0,0,response3disk,,5,-0.955505371,4.051940918,1,0,0,rectangle,-0.955505371,4.051940918,1,0,0,-0.955505371,4.051940918,1,0,0,0,50,50,83,1,,,,,,,,
,,,,,,,,,,,,,FF,,,,,,,,2.1885,,,,,,,,,,,,,,,,,,,,,,61023602e6e4517b310c24aa,61036c5d4ea5c745f29813cf,2021-07-30_13h06.09.669,Simcolourproject_2stim_asymm_v5,2020.2.10,MacIntel,60,61025ae37ef11b136ea224fe,,,,,,,,,4301,46.13671875,-37.63098145,1,0,0,response3disk,,5,-14.34649658,-4.684661865,1,0,0,rectangle,-14.34649658,-4.684661865,1,0,0,-14.34649658,-4.684661865,1,0,0,0,51,51,143,1,,,,,,,,
,,,,,,,,,,,,,FF,,,,,,,,1.02,,,,,,,,,,,,,,,,,,,,,,61023602e6e4517b310c24aa,61036c5d4ea5c745f29813cf,2021-07-30_13h06.09.669,Simcolourproject_2stim_asymm_v5,2020.2.10,MacIntel,60,61025ae37ef11b136ea224fe,,,,,,,,,149,44.9307251,-23.68054199,1,0,0,response3disk,,5,-12.86700439,8.035400391,1,0,0,rectangle,-12.86700439,8.035400391,1,0,0,-12.86700439,8.035400391,1,0,0,0,52,52,49,1,,,,,,,,
,,,,,,,,,,,,,FF,,,,,,,,0.9996,,,,,,,,,,,,,,,,,,,,,,61023602e6e4517b310c24aa,61036c5d4ea5c745f29813cf,2021-07-30_13h06.09.669,Simcolourproject_2stim_asymm_v5,2020.2.10,MacIntel,60,61025ae37ef11b136ea224fe,,,,,,,,,2210,68.98425293,-38.96807861,1,0,0,response3disk,,5,19.38555908,-8.666534424,1,0,0,rectangle,19.38555908,-8.666534424,1,0,0,19.38555908,-8.666534424,1,0,0,0,53,53,26,1,,,,,,,,
,,,,,,,,,,,,,FF,,,,,,,,1.5671,,,,,,,,,,,,,,,,,,,,,,61023602e6e4517b310c24aa,61036c5d4ea5c745f29813cf,2021-07-30_13h06.09.669,Simcolourproject_2stim_asymm_v5,2020.2.10,MacIntel,60,61025ae37ef11b136ea224fe,,,,,,,,,975,-66.45129395,-32.88366699,1,0,0,response5disk,,2,3.13494873,-2.070556641,1,0,0,rectangle,3.13494873,-2.070556641,1,0,0,3.13494873,-2.070556641,1,0,0,0,54,54,10,1,,,,,,,,
,,,,,,,,,,,,,FF,,,,,,,,0.8494,,,,,,,,,,,,,,,,,,,,,,61023602e6e4517b310c24aa,61036c5d4ea5c745f29813cf,2021-07-30_13h06.09.669,Simcolourproject_2stim_asymm_v5,2020.2.10,MacIntel,60,61025ae37ef11b136ea224fe,,,,,,,,,1487,80.36877441,-43.34707642,1,0,0,response3disk,,5,5.58392334,-3.778198242,1,0,0,rectangle,5.58392334,-3.778198242,1,0,0,5.58392334,-3.778198242,1,0,0,0,55,55,18,1,,,,,,,,
,,,,,,,,,,,,,FF,,,,,,,,1.6809,,,,,,,,,,,,,,,,,,,,,,61023602e6e4517b310c24aa,61036c5d4ea5c745f29813cf,2021-07-30_13h06.09.669,Simcolourproject_2stim_asymm_v5,2020.2.10,MacIntel,60,61025ae37ef11b136ea224fe,,,,,,,,,137,61.10272217,23.83349609,1,0,0,response1disk,,6,-0.499267578,-2.945556641,1,0,0,rectangle,-0.499267578,-2.945556641,1,0,0,-0.499267578,-2.945556641,1,0,0,0,56,56,91,1,,,,,,,,
,,,,,,,,,,,,,FF,,,,,,,,1.2511,,,,,,,,,,,,,,,,,,,,,,61023602e6e4517b310c24aa,61036c5d4ea5c745f29813cf,2021-07-30_13h06.09.669,Simcolourproject_2stim_asymm_v5,2020.2.10,MacIntel,60,61025ae37ef11b136ea224fe,,,,,,,,,4257,36.57189941,45.3364563,1,0,0,response1disk,,7,7.809570313,2.007629395,1,0,0,rectangle,7.809570313,2.007629395,1,0,0,7.809570313,2.007629395,1,0,0,0,57,57,119,1,,,,,,,,
,,,,,,,,,,,,,FF,,,,,,,,1.2349,,,,,,,,,,,,,,,,,,,,,,61023602e6e4517b310c24aa,61036c5d4ea5c745f29813cf,2021-07-30_13h06.09.669,Simcolourproject_2stim_asymm_v5,2020.2.10,MacIntel,60,61025ae37ef11b136ea224fe,,,,,,,,,2027,-27.54571533,-69.41357422,1,0,0,response5disk,,3,0.023803711,-6.916137695,1,0,0,rectangle,0.023803711,-6.916137695,1,0,0,0.023803711,-6.916137695,1,0,0,0,58,58,24,1,,,,,,,,
,,,,,,,,,,,,,FF,,,,,,,,1.1827,,,,,,,,,,,,,,,,,,,,,,61023602e6e4517b310c24aa,61036c5d4ea5c745f29813cf,2021-07-30_13h06.09.669,Simcolourproject_2stim_asymm_v5,2020.2.10,MacIntel,60,61025ae37ef11b136ea224fe,,,,,,,,,3659,74.01452637,-44.38092041,1,0,0,response3disk,,5,3.118713379,-6.862426758,1,0,0,rectangle,3.118713379,-6.862426758,1,0,0,3.118713379,-6.862426758,1,0,0,0,59,59,43,1,,,,,,,,
,,,,,,,,,,,,,FF,,,,,,,,1.3856,,,,,,,,,,,,,,,,,,,,,,61023602e6e4517b310c24aa,61036c5d4ea5c745f29813cf,2021-07-30_13h06.09.669,Simcolourproject_2stim_asymm_v5,2020.2.10,MacIntel,60,61025ae37ef11b136ea224fe,,,,,,,,,174,32.33093262,-76.33477783,1,0,0,response3disk,,4,-7.235595703,15.72399902,1,0,0,rectangle,-7.235595703,15.72399902,1,0,0,-7.235595703,15.72399902,1,0,0,0,60,60,50,1,,,,,,,,
,,,,,,,,,,,,,FF,,,,,,,,1.1646,,,,,,,,,,,,,,,,,,,,,,61023602e6e4517b310c24aa,61036c5d4ea5c745f29813cf,2021-07-30_13h06.09.669,Simcolourproject_2stim_asymm_v5,2020.2.10,MacIntel,60,61025ae37ef11b136ea224fe,,,,,,,,,111,73.77124023,-32.86160278,1,0,0,response3disk,,5,8.478271484,-2.989135742,1,0,0,rectangle,8.478271484,-2.989135742,1,0,0,8.478271484,-2.989135742,1,0,0,0,61,61,79,1,,,,,,,,
,,,,,,,,,,,,,FF,,,,,,,,1.1874,,,,,,,,,,,,,,,,,,,,,,61023602e6e4517b310c24aa,61036c5d4ea5c745f29813cf,2021-07-30_13h06.09.669,Simcolourproject_2stim_asymm_v5,2020.2.10,MacIntel,60,61025ae37ef11b136ea224fe,,,,,,,,,747,78.30786133,19.31677246,1,0,0,response1disk,,6,18.26806641,-2.979309082,1,0,0,rectangle,18.26806641,-2.979309082,1,0,0,18.26806641,-2.979309082,1,0,0,0,62,62,17,1,,,,,,,,
,,,,,,,,,,,,,FF,,,,,,,,0.9149,,,,,,,,,,,,,,,,,,,,,,61023602e6e4517b310c24aa,61036c5d4ea5c745f29813cf,2021-07-30_13h06.09.669,Simcolourproject_2stim_asymm_v5,2020.2.10,MacIntel,60,61025ae37ef11b136ea224fe,,,,,,,,,4024,-40.95367432,-59.85745239,1,0,0,response5disk,,3,-15.94219971,5.025146484,1,0,0,rectangle,-15.94219971,5.025146484,1,0,0,-15.94219971,5.025146484,1,0,0,0,63,63,25,1,,,,,,,,
,,,,,,,,,,,,,FF,,,,,,,,0.8017,,,,,,,,,,,,,,,,,,,,,,61023602e6e4517b310c24aa,61036c5d4ea5c745f29813cf,2021-07-30_13h06.09.669,Simcolourproject_2stim_asymm_v5,2020.2.10,MacIntel,60,61025ae37ef11b136ea224fe,,,,,,,,,3143,-26.07641602,-63.53674316,1,0,0,response5disk,,3,-6.223449707,-1.262573242,1,0,0,rectangle,-6.223449707,-1.262573242,1,0,0,-6.223449707,-1.262573242,1,0,0,0,64,64,102,1,,,,,,,,
,,,,,,,,,,,,,FF,,,,,,,,1.0172,,,,,,,,,,,,,,,,,,,,,,61023602e6e4517b310c24aa,61036c5d4ea5c745f29813cf,2021-07-30_13h06.09.669,Simcolourproject_2stim_asymm_v5,2020.2.10,MacIntel,60,61025ae37ef11b136ea224fe,,,,,,,,,2158,-28.83001709,-55.31756592,1,0,0,response5disk,,3,-5.737854004,10.60101318,1,0,0,rectangle,-5.737854004,10.60101318,1,0,0,-5.737854004,10.60101318,1,0,0,0,65,65,132,1,,,,,,,,
,,,,,,,,,,,,,FF,,,,,,,,2.6816,,,,,,,,,,,,,,,,,,,,,,61023602e6e4517b310c24aa,61036c5d4ea5c745f29813cf,2021-07-30_13h06.09.669,Simcolourproject_2stim_asymm_v5,2020.2.10,MacIntel,60,61025ae37ef11b136ea224fe,,,,,,,,,2488,61.67681885,-37.76773071,1,0,0,response3disk,,5,21.52661133,-14.77856445,1,0,0,rectangle,21.52661133,-14.77856445,1,0,0,21.52661133,-14.77856445,1,0,0,0,66,66,139,1,,,,,,,,
,,,,,,,,,,,,,FF,,,,,,,,1.6672,,,,,,,,,,,,,,,,,,,,,,61023602e6e4517b310c24aa,61036c5d4ea5c745f29813cf,2021-07-30_13h06.09.669,Simcolourproject_2stim_asymm_v5,2020.2.10,MacIntel,60,61025ae37ef11b136ea224fe,,,,,,,,,410,56.47296143,-31.64309692,1,0,0,response3disk,,5,4.030029297,-3.243103027,1,0,0,rectangle,4.030029297,-3.243103027,1,0,0,4.030029297,-3.243103027,1,0,0,0,67,67,69,1,,,,,,,,
,,,,,,,,,,,,,FF,,,,,,,,1.4485,,,,,,,,,,,,,,,,,,,,,,61023602e6e4517b310c24aa,61036c5d4ea5c745f29813cf,2021-07-30_13h06.09.669,Simcolourproject_2stim_asymm_v5,2020.2.10,MacIntel,60,61025ae37ef11b136ea224fe,,,,,,,,,3007,-39.29675293,-63.26513672,1,0,0,response5disk,,3,3.460571289,-1.233123779,1,0,0,rectangle,3.460571289,-1.233123779,1,0,0,3.460571289,-1.233123779,1,0,0,0,68,68,126,1,,,,,,,,
,,,,,,,,,,,,,FF,,,,,,,,2.1054,,,,,,,,,,,,,,,,,,,,,,61023602e6e4517b310c24aa,61036c5d4ea5c745f29813cf,2021-07-30_13h06.09.669,Simcolourproject_2stim_asymm_v5,2020.2.10,MacIntel,60,61025ae37ef11b136ea224fe,,,,,,,,,1476,65.05407715,-40.1880188,1,0,0,response3disk,,5,8.088989258,-3.596282959,1,0,0,rectangle,8.088989258,-3.596282959,1,0,0,8.088989258,-3.596282959,1,0,0,0,69,69,28,1,,,,,,,,
,,,,,,,,,,,,,FF,,,,,,,,2.9151,,,,,,,,,,,,,,,,,,,,,,61023602e6e4517b310c24aa,61036c5d4ea5c745f29813cf,2021-07-30_13h06.09.669,Simcolourproject_2stim_asymm_v5,2020.2.10,MacIntel,60,61025ae37ef11b136ea224fe,,,,,,,,,1442,51.90600586,-33.28759766,1,0,0,response3disk,,5,2.065490723,-8.709106445,1,0,0,rectangle,2.065490723,-8.709106445,1,0,0,2.065490723,-8.709106445,1,0,0,0,70,70,9,1,,,,,,,,
,,,,,,,,,,,,,FF,,,,,,,,0.8551,,,,,,,,,,,,,,,,,,,,,,61023602e6e4517b310c24aa,61036c5d4ea5c745f29813cf,2021-07-30_13h06.09.669,Simcolourproject_2stim_asymm_v5,2020.2.10,MacIntel,60,61025ae37ef11b136ea224fe,,,,,,,,,4109,59.06390381,-35.07800293,1,0,0,response3disk,,5,1.119873047,-4.893920898,1,0,0,rectangle,1.119873047,-4.893920898,1,0,0,1.119873047,-4.893920898,1,0,0,0,71,71,58,1,,,,,,,,
,,,,,,,,,,,,,FF,,,,,,,,1.3291,,,,,,,,,,,,,,,,,,,,,,61023602e6e4517b310c24aa,61036c5d4ea5c745f29813cf,2021-07-30_13h06.09.669,Simcolourproject_2stim_asymm_v5,2020.2.10,MacIntel,60,61025ae37ef11b136ea224fe,,,,,,,,,4071,-57.73913574,25.51080322,1,0,0,response7disk,,1,13.15344238,-5.202209473,1,0,0,rectangle,13.15344238,-5.202209473,1,0,0,13.15344238,-5.202209473,1,0,0,0,72,72,77,1,,,,,,,,
,,,,,,,,,,,,,FF,,,,,,,,1.5716,,,,,,,,,,,,,,,,,,,,,,61023602e6e4517b310c24aa,61036c5d4ea5c745f29813cf,2021-07-30_13h06.09.669,Simcolourproject_2stim_asymm_v5,2020.2.10,MacIntel,60,61025ae37ef11b136ea224fe,,,,,,,,,1989,54.3125,-26.48590088,1,0,0,response3disk,,5,-5.192443848,-4.130249023,1,0,0,rectangle,30.40454102,60.23153687,1,0,0,12.66070557,-6.628845215,1,0,0,0,73,73,93,1,,response1disk_3,TRUE,7,7,"[45,31,87,246,156,223,189,122,141,3,155,126,25,98,298,175,310,120,304,74]",1.6471,rectangle
,,,,,,,,,,,,,FF,,,,,,,,1.8853,,,,,,,,,,,,,,,,,,,,,,61023602e6e4517b310c24aa,61036c5d4ea5c745f29813cf,2021-07-30_13h06.09.669,Simcolourproject_2stim_asymm_v5,2020.2.10,MacIntel,60,61025ae37ef11b136ea224fe,,,,,,,,,2558,72.08068848,25.4593811,1,0,0,response1disk,,6,6.773986816,-6.722717285,1,0,0,rectangle,6.773986816,-6.722717285,1,0,0,6.773986816,-6.722717285,1,0,0,0,74,74,12,1,,,,,,,,
,,,,,,,,,,,,,FF,,,,,,,,0.7146,,,,,,,,,,,,,,,,,,,,,,61023602e6e4517b310c24aa,61036c5d4ea5c745f29813cf,2021-07-30_13h06.09.669,Simcolourproject_2stim_asymm_v5,2020.2.10,MacIntel,60,61025ae37ef11b136ea224fe,,,,,,,,,1553,50.48284912,26.95721436,1,0,0,response1disk,,6,-4.074707031,2.086334229,1,0,0,rectangle,-4.074707031,2.086334229,1,0,0,-4.074707031,2.086334229,1,0,0,0,75,75,47,1,,,,,,,,
,,,,,,,,,,,,,FF,,,,,,,,0.7837,,,,,,,,,,,,,,,,,,,,,,61023602e6e4517b310c24aa,61036c5d4ea5c745f29813cf,2021-07-30_13h06.09.669,Simcolourproject_2stim_asymm_v5,2020.2.10,MacIntel,60,61025ae37ef11b136ea224fe,,,,,,,,,2490,72.27703857,36.95211792,1,0,0,response1disk,,6,6.611328125,0.299133301,1,0,0,rectangle,6.611328125,0.299133301,1,0,0,6.611328125,0.299133301,1,0,0,0,76,76,129,1,,,,,,,,
,,,,,,,,,,,,,FF,,,,,,,,2.0704,,,,,,,,,,,,,,,,,,,,,,61023602e6e4517b310c24aa,61036c5d4ea5c745f29813cf,2021-07-30_13h06.09.669,Simcolourproject_2stim_asymm_v5,2020.2.10,MacIntel,60,61025ae37ef11b136ea224fe,,,,,,,,,926,63.69396973,27.50457764,1,0,0,response1disk,,6,-10.04217529,-9.341583252,1,0,0,rectangle,-10.04217529,-9.341583252,1,0,0,-10.04217529,-9.341583252,1,0,0,0,77,77,55,1,,,,,,,,
,,,,,,,,,,,,,FF,,,,,,,,1.2309,,,,,,,,,,,,,,,,,,,,,,61023602e6e4517b310c24aa,61036c5d4ea5c745f29813cf,2021-07-30_13h06.09.669,Simcolourproject_2stim_asymm_v5,2020.2.10,MacIntel,60,61025ae37ef11b136ea224fe,,,,,,,,,399,62.32281494,31.26403809,1,0,0,response1disk,,6,8.412109375,-4.867126465,1,0,0,rectangle,8.412109375,-4.867126465,1,0,0,8.412109375,-4.867126465,1,0,0,0,78,78,8,1,,,,,,,,
,,,,,,,,,,,,,FF,,,,,,,,0.7175,,,,,,,,,,,,,,,,,,,,,,61023602e6e4517b310c24aa,61036c5d4ea5c745f29813cf,2021-07-30_13h06.09.669,Simcolourproject_2stim_asymm_v5,2020.2.10,MacIntel,60,61025ae37ef11b136ea224fe,,,,,,,,,1841,67.20031738,41.5100708,1,0,0,response1disk,,6,5.210144043,-3.648986816,1,0,0,rectangle,5.210144043,-3.648986816,1,0,0,5.210144043,-3.648986816,1,0,0,0,79,79,134,1,,,,,,,,
,,,,,,,,,,,,,FF,,,,,,,,2.0347,,,,,,,,,,,,,,,,,,,,,,61023602e6e4517b310c24aa,61036c5d4ea5c745f29813cf,2021-07-30_13h06.09.669,Simcolourproject_2stim_asymm_v5,2020.2.10,MacIntel,60,61025ae37ef11b136ea224fe,,,,,,,,,181,63.4755249,-32.27978516,1,0,0,response3disk,,5,-9.120178223,-8.843994141,1,0,0,rectangle,-9.120178223,-8.843994141,1,0,0,-9.120178223,-8.843994141,1,0,0,0,80,80,63,1,,,,,,,,
,,,,,,,,,,,,,FF,,,,,,,,0.831,,,,,,,,,,,,,,,,,,,,,,61023602e6e4517b310c24aa,61036c5d4ea5c745f29813cf,2021-07-30_13h06.09.669,Simcolourproject_2stim_asymm_v5,2020.2.10,MacIntel,60,61025ae37ef11b136ea224fe,,,,,,,,,3231,57.98693848,22.66339111,1,0,0,response1disk,,6,-13.68682861,-14.20794678,1,0,0,rectangle,-13.68682861,-14.20794678,1,0,0,-13.68682861,-14.20794678,1,0,0,0,81,81,153,1,,,,,,,,
,,,,,,,,,,,,,FF,,,,,,,,2.6672,,,,,,,,,,,,,,,,,,,,,,61023602e6e4517b310c24aa,61036c5d4ea5c745f29813cf,2021-07-30_13h06.09.669,Simcolourproject_2stim_asymm_v5,2020.2.10,MacIntel,60,61025ae37ef11b136ea224fe,,,,,,,,,1533,44.07421875,-74.6227417,1,0,0,response3disk,,4,10.58172607,-10.39956665,1,0,0,rectangle,10.58172607,-10.39956665,1,0,0,10.58172607,-10.39956665,1,0,0,0,82,82,36,1,,,,,,,,
,,,,,,,,,,,,,FF,,,,,,,,0.8683,,,,,,,,,,,,,,,,,,,,,,61023602e6e4517b310c24aa,61036c5d4ea5c745f29813cf,2021-07-30_13h06.09.669,Simcolourproject_2stim_asymm_v5,2020.2.10,MacIntel,60,61025ae37ef11b136ea224fe,,,,,,,,,3624,-34.30029297,-54.42492676,1,0,0,response5disk,,3,-8.858398438,10.1619873,1,0,0,rectangle,-8.858398438,10.1619873,1,0,0,-8.858398438,10.1619873,1,0,0,0,83,83,116,1,,,,,,,,
,,,,,,,,,,,,,FF,,,,,,,,0.9314,,,,,,,,,,,,,,,,,,,,,,61023602e6e4517b310c24aa,61036c5d4ea5c745f29813cf,2021-07-30_13h06.09.669,Simcolourproject_2stim_asymm_v5,2020.2.10,MacIntel,60,61025ae37ef11b136ea224fe,,,,,,,,,3955,48.37756348,-23.12216187,1,0,0,response3disk,,5,6.661987305,-8.810546875,1,0,0,rectangle,6.661987305,-8.810546875,1,0,0,6.661987305,-8.810546875,1,0,0,0,84,84,125,1,,,,,,,,
,,,,,,,,,,,,,FF,,,,,,,,1.8373,,,,,,,,,,,,,,,,,,,,,,61023602e6e4517b310c24aa,61036c5d4ea5c745f29813cf,2021-07-30_13h06.09.669,Simcolourproject_2stim_asymm_v5,2020.2.10,MacIntel,60,61025ae37ef11b136ea224fe,,,,,,,,,759,64.3538208,-41.8934021,1,0,0,response3disk,,5,15.74072266,-13.32635498,1,0,0,rectangle,15.74072266,-13.32635498,1,0,0,15.74072266,-13.32635498,1,0,0,0,85,85,95,1,,,,,,,,
,,,,,,,,,,,,,FF,,,,,,,,1.0044,,,,,,,,,,,,,,,,,,,,,,61023602e6e4517b310c24aa,61036c5d4ea5c745f29813cf,2021-07-30_13h06.09.669,Simcolourproject_2stim_asymm_v5,2020.2.10,MacIntel,60,61025ae37ef11b136ea224fe,,,,,,,,,2859,51.6585083,37.97268677,1,0,0,response1disk,,6,-10.02325439,9.669433594,1,0,0,rectangle,40.53948975,69.64645386,1,0,0,-10.67236328,2.323730469,1,0,0,0,86,86,111,1,,response1disk_3,TRUE,7,7,"[45,31,87,246,156,223,189,122,141,3,155,126,25,98,298,175,310,120,304,74]",1.433,rectangle
,,,,,,,,,,,,,FF,,,,,,,,27.7711,,,,,,,,,,,,,,,,,,,,,,61023602e6e4517b310c24aa,61036c5d4ea5c745f29813cf,2021-07-30_13h06.09.669,Simcolourproject_2stim_asymm_v5,2020.2.10,MacIntel,60,61025ae37ef11b136ea224fe,,,,,,,,,4159,36.16925049,-54.54443359,1,0,0,response3disk,,4,18.57226563,-7.648620605,1,0,0,rectangle,18.57226563,-7.648620605,1,0,0,18.57226563,-7.648620605,1,0,0,0,87,87,92,1,,,,,,,,
,,,,,,,,,,,,,FF,,,,,,,,1.0212,,,,,,,,,,,,,,,,,,,,,,61023602e6e4517b310c24aa,61036c5d4ea5c745f29813cf,2021-07-30_13h06.09.669,Simcolourproject_2stim_asymm_v5,2020.2.10,MacIntel,60,61025ae37ef11b136ea224fe,,,,,,,,,2303,21.45324707,-56.3348999,1,0,0,response3disk,,4,3.083984375,-6.12487793,1,0,0,rectangle,3.083984375,-6.12487793,1,0,0,3.083984375,-6.12487793,1,0,0,0,88,88,145,1,,,,,,,,
,,,,,,,,,,,,,FF,,,,,,,,1.0698,,,,,,,,,,,,,,,,,,,,,,61023602e6e4517b310c24aa,61036c5d4ea5c745f29813cf,2021-07-30_13h06.09.669,Simcolourproject_2stim_asymm_v5,2020.2.10,MacIntel,60,61025ae37ef11b136ea224fe,,,,,,,,,2776,-29.13293457,-49.75430298,1,0,0,response5disk,,3,-16.79486084,-5.781433105,1,0,0,rectangle,-16.79486084,-5.781433105,1,0,0,-16.79486084,-5.781433105,1,0,0,0,89,89,14,1,,,,,,,,
,,,,,,,,,,,,,FF,,,,,,,,1.6545,,,,,,,,,,,,,,,,,,,,,,61023602e6e4517b310c24aa,61036c5d4ea5c745f29813cf,2021-07-30_13h06.09.669,Simcolourproject_2stim_asymm_v5,2020.2.10,MacIntel,60,61025ae37ef11b136ea224fe,,,,,,,,,824,30.02203369,-55.17440796,1,0,0,response3disk,,4,10.57556152,-7.878143311,1,0,0,rectangle,10.57556152,-7.878143311,1,0,0,10.57556152,-7.878143311,1,0,0,0,90,90,48,1,,,,,,,,
,,,,,,,,,,,,,FF,,,,,,,,1.1808,,,,,,,,,,,,,,,,,,,,,,61023602e6e4517b310c24aa,61036c5d4ea5c745f29813cf,2021-07-30_13h06.09.669,Simcolourproject_2stim_asymm_v5,2020.2.10,MacIntel,60,61025ae37ef11b136ea224fe,,,,,,,,,2843,22.81646729,-48.95272827,1,0,0,response3disk,,4,3.147888184,-2.33404541,1,0,0,rectangle,3.147888184,-2.33404541,1,0,0,3.147888184,-2.33404541,1,0,0,0,91,91,156,1,,,,,,,,
,,,,,,,,,,,,,FF,,,,,,,,1.3853,,,,,,,,,,,,,,,,,,,,,,61023602e6e4517b310c24aa,61036c5d4ea5c745f29813cf,2021-07-30_13h06.09.669,Simcolourproject_2stim_asymm_v5,2020.2.10,MacIntel,60,61025ae37ef11b136ea224fe,,,,,,,,,260,-62.44781494,-46.00650024,1,0,0,response5disk,,2,-2.503356934,-0.122161865,1,0,0,rectangle,-2.503356934,-0.122161865,1,0,0,-2.503356934,-0.122161865,1,0,0,0,92,92,157,1,,,,,,,,
,,,,,,,,,,,,,FF,,,,,,,,0.9752,,,,,,,,,,,,,,,,,,,,,,61023602e6e4517b310c24aa,61036c5d4ea5c745f29813cf,2021-07-30_13h06.09.669,Simcolourproject_2stim_asymm_v5,2020.2.10,MacIntel,60,61025ae37ef11b136ea224fe,,,,,,,,,3582,75.41125488,40.1222229,1,0,0,response1disk,,6,-4.260437012,0.20111084,1,0,0,rectangle,-4.260437012,0.20111084,1,0,0,-4.260437012,0.20111084,1,0,0,0,93,93,74,1,,,,,,,,
,,,,,,,,,,,,,FF,,,,,,,,2.5467,,,,,,,,,,,,,,,,,,,,,,61023602e6e4517b310c24aa,61036c5d4ea5c745f29813cf,2021-07-30_13h06.09.669,Simcolourproject_2stim_asymm_v5,2020.2.10,MacIntel,60,61025ae37ef11b136ea224fe,,,,,,,,,4075,-17.77807617,-71.28063965,1,0,0,response5disk,,3,-4.587158203,-5.453735352,1,0,0,rectangle,-4.587158203,-5.453735352,1,0,0,-4.587158203,-5.453735352,1,0,0,0,94,94,3,1,,,,,,,,
,,,,,,,,,,,,,FF,,,,,,,,0.9643,,,,,,,,,,,,,,,,,,,,,,61023602e6e4517b310c24aa,61036c5d4ea5c745f29813cf,2021-07-30_13h06.09.669,Simcolourproject_2stim_asymm_v5,2020.2.10,MacIntel,60,61025ae37ef11b136ea224fe,,,,,,,,,1460,-22.12713623,-71.00854492,1,0,0,response5disk,,3,-6.986083984,17.72686768,1,0,0,rectangle,-6.986083984,17.72686768,1,0,0,-6.986083984,17.72686768,1,0,0,0,95,95,54,1,,,,,,,,
,,,,,,,,,,,,,FF,,,,,,,,0.9497,,,,,,,,,,,,,,,,,,,,,,61023602e6e4517b310c24aa,61036c5d4ea5c745f29813cf,2021-07-30_13h06.09.669,Simcolourproject_2stim_asymm_v5,2020.2.10,MacIntel,60,61025ae37ef11b136ea224fe,,,,,,,,,1583,68.38513184,-36.00665283,1,0,0,response3disk,,5,12.99493408,-3.40032959,1,0,0,rectangle,12.99493408,-3.40032959,1,0,0,12.99493408,-3.40032959,1,0,0,0,96,96,144,1,,,,,,,,
,,,,,,,,,,,,,FF,,,,,,,,1.35,,,,,,,,,,,,,,,,,,,,,,61023602e6e4517b310c24aa,61036c5d4ea5c745f29813cf,2021-07-30_13h06.09.669,Simcolourproject_2stim_asymm_v5,2020.2.10,MacIntel,60,61025ae37ef11b136ea224fe,,,,,,,,,2172,53.38134766,-32.09936523,1,0,0,response3disk,,5,-5.897583008,13.35171509,1,0,0,rectangle,69.5625,28.64282227,1,0,0,1.425964355,-11.12109375,1,0,0,0,97,97,133,1,,response1disk_3,TRUE,6,6,"[45,31,87,246,156,223,189,122,141,3,155,126,25,98,298,175,310,120,304,74]",1.7163,rectangle
,,,,,,,,,,,,,FF,,,,,,,,0.9016,,,,,,,,,,,,,,,,,,,,,,61023602e6e4517b310c24aa,61036c5d4ea5c745f29813cf,2021-07-30_13h06.09.669,Simcolourproject_2stim_asymm_v5,2020.2.10,MacIntel,60,61025ae37ef11b136ea224fe,,,,,,,,,1523,-28.40734863,-45.31164551,1,0,0,response5disk,,3,3.688598633,7.768096924,1,0,0,rectangle,3.688598633,7.768096924,1,0,0,3.688598633,7.768096924,1,0,0,0,98,98,88,1,,,,,,,,
,,,,,,,,,,,,,FF,,,,,,,,1.1683,,,,,,,,,,,,,,,,,,,,,,61023602e6e4517b310c24aa,61036c5d4ea5c745f29813cf,2021-07-30_13h06.09.669,Simcolourproject_2stim_asymm_v5,2020.2.10,MacIntel,60,61025ae37ef11b136ea224fe,,,,,,,,,1485,37.7388916,-63.40661621,1,0,0,response3disk,,4,-0.573364258,3.427062988,1,0,0,rectangle,-0.573364258,3.427062988,1,0,0,-0.573364258,3.427062988,1,0,0,0,99,99,0,1,,,,,,,,
,,,,,,,,,,,,,FF,,,,,,,,1.3336,,,,,,,,,,,,,,,,,,,,,,61023602e6e4517b310c24aa,61036c5d4ea5c745f29813cf,2021-07-30_13h06.09.669,Simcolourproject_2stim_asymm_v5,2020.2.10,MacIntel,60,61025ae37ef11b136ea224fe,,,,,,,,,2295,-31.86407471,-70.61035156,1,0,0,response5disk,,3,-5.812133789,-7.997253418,1,0,0,rectangle,-5.812133789,-7.997253418,1,0,0,-5.812133789,-7.997253418,1,0,0,0,100,100,120,1,,,,,,,,
,,,,,,,,,,,,,FF,,,,,,,,1.8287,,,,,,,,,,,,,,,,,,,,,,61023602e6e4517b310c24aa,61036c5d4ea5c745f29813cf,2021-07-30_13h06.09.669,Simcolourproject_2stim_asymm_v5,2020.2.10,MacIntel,60,61025ae37ef11b136ea224fe,,,,,,,,,2559,61.1315918,-22.87054443,1,0,0,response3disk,,5,-6.356140137,-0.046813965,1,0,0,rectangle,-6.356140137,-0.046813965,1,0,0,-6.356140137,-0.046813965,1,0,0,0,101,101,29,1,,,,,,,,
,,,,,,,,,,,,,FF,,,,,,,,1.3877,,,,,,,,,,,,,,,,,,,,,,61023602e6e4517b310c24aa,61036c5d4ea5c745f29813cf,2021-07-30_13h06.09.669,Simcolourproject_2stim_asymm_v5,2020.2.10,MacIntel,60,61025ae37ef11b136ea224fe,,,,,,,,,723,24.66711426,-70.8805542,1,0,0,response3disk,,4,4.589355469,-4.463989258,1,0,0,rectangle,4.589355469,-4.463989258,1,0,0,4.589355469,-4.463989258,1,0,0,0,102,102,46,1,,,,,,,,
,,,,,,,,,,,,,FF,,,,,,,,1.2795,,,,,,,,,,,,,,,,,,,,,,61023602e6e4517b310c24aa,61036c5d4ea5c745f29813cf,2021-07-30_13h06.09.669,Simcolourproject_2stim_asymm_v5,2020.2.10,MacIntel,60,61025ae37ef11b136ea224fe,,,,,,,,,1820,27.96447754,-52.64883423,1,0,0,response3disk,,4,5.152099609,2.937072754,1,0,0,rectangle,5.152099609,2.937072754,1,0,0,5.152099609,2.937072754,1,0,0,0,103,103,13,1,,,,,,,,
,,,,,,,,,,,,,FF,,,,,,,,1.2007,,,,,,,,,,,,,,,,,,,,,,61023602e6e4517b310c24aa,61036c5d4ea5c745f29813cf,2021-07-30_13h06.09.669,Simcolourproject_2stim_asymm_v5,2020.2.10,MacIntel,60,61025ae37ef11b136ea224fe,,,,,,,,,1215,-21.63891602,-45.33807373,1,0,0,response5disk,,3,-8.04864502,-2.638214111,1,0,0,rectangle,-8.04864502,-2.638214111,1,0,0,-8.04864502,-2.638214111,1,0,0,0,104,104,30,1,,,,,,,,
,,,,,,,,,,,,,FF,,,,,,,,1.0021,,,,,,,,,,,,,,,,,,,,,,61023602e6e4517b310c24aa,61036c5d4ea5c745f29813cf,2021-07-30_13h06.09.669,Simcolourproject_2stim_asymm_v5,2020.2.10,MacIntel,60,61025ae37ef11b136ea224fe,,,,,,,,,2214,73.30664063,-38.62533569,1,0,0,response3disk,,5,2.951782227,6.689147949,1,0,0,rectangle,2.951782227,6.689147949,1,0,0,2.951782227,6.689147949,1,0,0,0,105,105,2,1,,,,,,,,
,,,,,,,,,,,,,FF,,,,,,,,1.7483,,,,,,,,,,,,,,,,,,,,,,61023602e6e4517b310c24aa,61036c5d4ea5c745f29813cf,2021-07-30_13h06.09.669,Simcolourproject_2stim_asymm_v5,2020.2.10,MacIntel,60,61025ae37ef11b136ea224fe,,,,,,,,,1319,35.58447266,-60.3291626,1,0,0,response3disk,,4,3.437744141,-2.236175537,1,0,0,rectangle,3.437744141,-2.236175537,1,0,0,3.437744141,-2.236175537,1,0,0,0,106,106,158,1,,,,,,,,
,,,,,,,,,,,,,FF,,,,,,,,9.07,,,,,,,,,,,,,,,,,,,,,,61023602e6e4517b310c24aa,61036c5d4ea5c745f29813cf,2021-07-30_13h06.09.669,Simcolourproject_2stim_asymm_v5,2020.2.10,MacIntel,60,61025ae37ef11b136ea224fe,,,,,,,,,110,34.40386963,-63.00244141,1,0,0,response3disk,,4,-5.926696777,4.737182617,1,0,0,rectangle,-5.926696777,4.737182617,1,0,0,-5.926696777,4.737182617,1,0,0,0,107,107,38,1,,,,,,,,
,,,,,,,,,,,,,FF,,,,,,,,0.8983,,,,,,,,,,,,,,,,,,,,,,61023602e6e4517b310c24aa,61036c5d4ea5c745f29813cf,2021-07-30_13h06.09.669,Simcolourproject_2stim_asymm_v5,2020.2.10,MacIntel,60,61025ae37ef11b136ea224fe,,,,,,,,,108,-36.52331543,-78.05334473,1,0,0,response5disk,,3,-3.976501465,-3.656280518,1,0,0,rectangle,-3.976501465,-3.656280518,1,0,0,-3.976501465,-3.656280518,1,0,0,0,108,108,76,1,,,,,,,,
,,,,,,,,,,,,,FF,,,,,,,,1.033,,,,,,,,,,,,,,,,,,,,,,61023602e6e4517b310c24aa,61036c5d4ea5c745f29813cf,2021-07-30_13h06.09.669,Simcolourproject_2stim_asymm_v5,2020.2.10,MacIntel,60,61025ae37ef11b136ea224fe,,,,,,,,,3192,-29.53088379,-60.34619141,1,0,0,response5disk,,3,-2.291992188,9.59552002,1,0,0,rectangle,-2.291992188,9.59552002,1,0,0,-2.291992188,9.59552002,1,0,0,0,109,109,56,1,,,,,,,,
,,,,,,,,,,,,,FF,,,,,,,,1.0192,,,,,,,,,,,,,,,,,,,,,,61023602e6e4517b310c24aa,61036c5d4ea5c745f29813cf,2021-07-30_13h06.09.669,Simcolourproject_2stim_asymm_v5,2020.2.10,MacIntel,60,61025ae37ef11b136ea224fe,,,,,,,,,1047,47.29418945,-24.97415161,1,0,0,response3disk,,5,5.913696289,-7.25994873,1,0,0,rectangle,5.913696289,-7.25994873,1,0,0,5.913696289,-7.25994873,1,0,0,0,110,110,113,1,,,,,,,,
,,,,,,,,,,,,,FF,,,,,,,,2.5311,,,,,,,,,,,,,,,,,,,,,,61023602e6e4517b310c24aa,61036c5d4ea5c745f29813cf,2021-07-30_13h06.09.669,Simcolourproject_2stim_asymm_v5,2020.2.10,MacIntel,60,61025ae37ef11b136ea224fe,,,,,,,,,536,40.52453613,-25.86395264,1,0,0,response3disk,,5,-6.714660645,10.86325073,1,0,0,rectangle,-6.714660645,10.86325073,1,0,0,-6.714660645,10.86325073,1,0,0,0,111,111,7,1,,,,,,,,
,,,,,,,,,,,,,FF,,,,,,,,1.0835,,,,,,,,,,,,,,,,,,,,,,61023602e6e4517b310c24aa,61036c5d4ea5c745f29813cf,2021-07-30_13h06.09.669,Simcolourproject_2stim_asymm_v5,2020.2.10,MacIntel,60,61025ae37ef11b136ea224fe,,,,,,,,,3400,-30.00354004,-55.99859619,1,0,0,response5disk,,3,0.584899902,-1.994567871,1,0,0,rectangle,0.584899902,-1.994567871,1,0,0,0.584899902,-1.994567871,1,0,0,0,112,112,141,1,,,,,,,,
,,,,,,,,,,,,,FF,,,,,,,,1.5308,,,,,,,,,,,,,,,,,,,,,,61023602e6e4517b310c24aa,61036c5d4ea5c745f29813cf,2021-07-30_13h06.09.669,Simcolourproject_2stim_asymm_v5,2020.2.10,MacIntel,60,61025ae37ef11b136ea224fe,,,,,,,,,4236,-31.4498291,-59.91662598,1,0,0,response5disk,,3,-7.294372559,-16.94207764,1,0,0,rectangle,-7.294372559,-16.94207764,1,0,0,-7.294372559,-16.94207764,1,0,0,0,113,113,150,1,,,,,,,,
,,,,,,,,,,,,,FF,,,,,,,,2.3856,,,,,,,,,,,,,,,,,,,,,,61023602e6e4517b310c24aa,61036c5d4ea5c745f29813cf,2021-07-30_13h06.09.669,Simcolourproject_2stim_asymm_v5,2020.2.10,MacIntel,60,61025ae37ef11b136ea224fe,,,,,,,,,3413,39.41949463,-69.05621338,1,0,0,response3disk,,4,-5.652587891,-1.063964844,1,0,0,rectangle,-5.652587891,-1.063964844,1,0,0,-5.652587891,-1.063964844,1,0,0,0,114,114,142,1,,,,,,,,
,,,,,,,,,,,,,FF,,,,,,,,1.8806,,,,,,,,,,,,,,,,,,,,,,61023602e6e4517b310c24aa,61036c5d4ea5c745f29813cf,2021-07-30_13h06.09.669,Simcolourproject_2stim_asymm_v5,2020.2.10,MacIntel,60,61025ae37ef11b136ea224fe,,,,,,,,,2380,44.5670166,-28.53643799,1,0,0,response3disk,,5,4.506958008,9.928955078,1,0,0,rectangle,4.506958008,9.928955078,1,0,0,4.506958008,9.928955078,1,0,0,0,115,115,41,1,,,,,,,,
,,,,,,,,,,,,,FF,,,,,,,,1.8134,,,,,,,,,,,,,,,,,,,,,,61023602e6e4517b310c24aa,61036c5d4ea5c745f29813cf,2021-07-30_13h06.09.669,Simcolourproject_2stim_asymm_v5,2020.2.10,MacIntel,60,61025ae37ef11b136ea224fe,,,,,,,,,2006,76.3125,26.31088257,1,0,0,response1disk,,6,0.432373047,-4.109802246,1,0,0,rectangle,0.432373047,-4.109802246,1,0,0,0.432373047,-4.109802246,1,0,0,0,116,116,137,1,,,,,,,,
,,,,,,,,,,,,,FF,,,,,,,,0.7829,,,,,,,,,,,,,,,,,,,,,,61023602e6e4517b310c24aa,61036c5d4ea5c745f29813cf,2021-07-30_13h06.09.669,Simcolourproject_2stim_asymm_v5,2020.2.10,MacIntel,60,61025ae37ef11b136ea224fe,,,,,,,,,493,57.17718506,26.22393799,1,0,0,response1disk,,6,-4.46697998,0.012268066,1,0,0,rectangle,-4.46697998,0.012268066,1,0,0,-4.46697998,0.012268066,1,0,0,0,117,117,135,1,,,,,,,,
,,,,,,,,,,,,,FF,,,,,,,,1.4029,,,,,,,,,,,,,,,,,,,,,,61023602e6e4517b310c24aa,61036c5d4ea5c745f29813cf,2021-07-30_13h06.09.669,Simcolourproject_2stim_asymm_v5,2020.2.10,MacIntel,60,61025ae37ef11b136ea224fe,,,,,,,,,3523,38.69598389,-23.6842041,1,0,0,response3disk,,5,-8.750244141,-4.98260498,1,0,0,rectangle,-8.750244141,-4.98260498,1,0,0,-8.750244141,-4.98260498,1,0,0,0,118,118,27,1,,,,,,,,
,,,,,,,,,,,,,FF,,,,,,,,2.4516,,,,,,,,,,,,,,,,,,,,,,61023602e6e4517b310c24aa,61036c5d4ea5c745f29813cf,2021-07-30_13h06.09.669,Simcolourproject_2stim_asymm_v5,2020.2.10,MacIntel,60,61025ae37ef11b136ea224fe,,,,,,,,,1207,21.64819336,-74.21984863,1,0,0,response3disk,,4,5.849304199,-6.663757324,1,0,0,rectangle,69.60565186,-30.95336914,1,0,0,10.82940674,-3.009887695,1,0,0,0,119,119,130,1,,response3disk_3,TRUE,5,5,"[45,31,87,246,156,223,189,122,141,3,155,126,25,98,298,175,310,120,304,74]",1.5664,rectangle
,,,,,,,,,,,,,FF,,,,,,,,1.1833,,,,,,,,,,,,,,,,,,,,,,61023602e6e4517b310c24aa,61036c5d4ea5c745f29813cf,2021-07-30_13h06.09.669,Simcolourproject_2stim_asymm_v5,2020.2.10,MacIntel,60,61025ae37ef11b136ea224fe,,,,,,,,,2882,32.82183838,-64.66015625,1,0,0,response3disk,,4,3.489868164,3.174865723,1,0,0,rectangle,3.489868164,3.174865723,1,0,0,3.489868164,3.174865723,1,0,0,0,120,120,60,1,,,,,,,,
,,,,,,,,,,,,,FF,,,,,,,,0.9536,,,,,,,,,,,,,,,,,,,,,,61023602e6e4517b310c24aa,61036c5d4ea5c745f29813cf,2021-07-30_13h06.09.669,Simcolourproject_2stim_asymm_v5,2020.2.10,MacIntel,60,61025ae37ef11b136ea224fe,,,,,,,,,2553,56.9263916,-33.48846436,1,0,0,response3disk,,5,5.041992188,-4.496276855,1,0,0,rectangle,36.41625977,-64.58862305,1,0,0,10.9519043,1.899291992,1,0,0,0,121,121,44,1,,response3disk_3,TRUE,4,4,"[45,31,87,246,156,223,189,122,141,3,155,126,25,98,298,175,310,120,304,74]",2.233,rectangle
,,,,,,,,,,,,,FF,,,,,,,,6.346,,,,,,,,,,,,,,,,,,,,,,61023602e6e4517b310c24aa,61036c5d4ea5c745f29813cf,2021-07-30_13h06.09.669,Simcolourproject_2stim_asymm_v5,2020.2.10,MacIntel,60,61025ae37ef11b136ea224fe,,,,,,,,,1196,56.36566162,21.86376953,1,0,0,response1disk,,6,-1.32043457,-5.26171875,1,0,0,rectangle,-1.32043457,-5.26171875,1,0,0,-1.32043457,-5.26171875,1,0,0,0,122,122,154,1,,,,,,,,
,,,,,,,,,,,,,FF,,,,,,,,1.0836,,,,,,,,,,,,,,,,,,,,,,61023602e6e4517b310c24aa,61036c5d4ea5c745f29813cf,2021-07-30_13h06.09.669,Simcolourproject_2stim_asymm_v5,2020.2.10,MacIntel,60,61025ae37ef11b136ea224fe,,,,,,,,,2894,-22.80200195,-47.7454834,1,0,0,response5disk,,3,-2.262268066,-6.84942627,1,0,0,rectangle,-2.262268066,-6.84942627,1,0,0,-2.262268066,-6.84942627,1,0,0,0,123,123,89,1,,,,,,,,
,,,,,,,,,,,,,FF,,,,,,,,5.6697,,,,,,,,,,,,,,,,,,,,,,61023602e6e4517b310c24aa,61036c5d4ea5c745f29813cf,2021-07-30_13h06.09.669,Simcolourproject_2stim_asymm_v5,2020.2.10,MacIntel,60,61025ae37ef11b136ea224fe,,,,,,,,,207,52.85351563,-69.94152832,1,0,0,response3disk,,4,11.31066895,-8.567626953,1,0,0,rectangle,11.31066895,-8.567626953,1,0,0,11.31066895,-8.567626953,1,0,0,0,124,124,122,1,,,,,,,,
,,,,,,,,,,,,,FF,,,,,,,,0.8511,,,,,,,,,,,,,,,,,,,,,,61023602e6e4517b310c24aa,61036c5d4ea5c745f29813cf,2021-07-30_13h06.09.669,Simcolourproject_2stim_asymm_v5,2020.2.10,MacIntel,60,61025ae37ef11b136ea224fe,,,,,,,,,1726,62.68304443,31.9239502,1,0,0,response1disk,,6,11.51300049,3.790466309,1,0,0,rectangle,57.95983887,32.22509766,1,0,0,10.30859375,0.313140869,1,0,0,0,125,125,152,1,,response1disk_3,TRUE,6,6,"[45,31,87,246,156,223,189,122,141,3,155,126,25,98,298,175,310,120,304,74]",1.6876,rectangle
,,,,,,,,,,,,,FF,,,,,,,,1.43,,,,,,,,,,,,,,,,,,,,,,61023602e6e4517b310c24aa,61036c5d4ea5c745f29813cf,2021-07-30_13h06.09.669,Simcolourproject_2stim_asymm_v5,2020.2.10,MacIntel,60,61025ae37ef11b136ea224fe,,,,,,,,,2824,61.61572266,-30.78234863,1,0,0,response3disk,,5,-9.649230957,-2.075592041,1,0,0,rectangle,-9.649230957,-2.075592041,1,0,0,-9.649230957,-2.075592041,1,0,0,0,126,126,4,1,,,,,,,,
,,,,,,,,,,,,,FF,,,,,,,,1.2836,,,,,,,,,,,,,,,,,,,,,,61023602e6e4517b310c24aa,61036c5d4ea5c745f29813cf,2021-07-30_13h06.09.669,Simcolourproject_2stim_asymm_v5,2020.2.10,MacIntel,60,61025ae37ef11b136ea224fe,,,,,,,,,2578,69.8572998,23.4569397,1,0,0,response1disk,,6,8.206420898,-4.09197998,1,0,0,rectangle,8.206420898,-4.09197998,1,0,0,8.206420898,-4.09197998,1,0,0,0,127,127,127,1,,,,,,,,
,,,,,,,,,,,,,FF,,,,,,,,2.1333,,,,,,,,,,,,,,,,,,,,,,61023602e6e4517b310c24aa,61036c5d4ea5c745f29813cf,2021-07-30_13h06.09.669,Simcolourproject_2stim_asymm_v5,2020.2.10,MacIntel,60,61025ae37ef11b136ea224fe,,,,,,,,,1144,24.20343018,-76.93249512,1,0,0,response3disk,,4,-4.063659668,8.168518066,1,0,0,rectangle,-4.063659668,8.168518066,1,0,0,-4.063659668,8.168518066,1,0,0,0,128,128,136,1,,,,,,,,
,,,,,,,,,,,,,FF,,,,,,,,1.2322,,,,,,,,,,,,,,,,,,,,,,61023602e6e4517b310c24aa,61036c5d4ea5c745f29813cf,2021-07-30_13h06.09.669,Simcolourproject_2stim_asymm_v5,2020.2.10,MacIntel,60,61025ae37ef11b136ea224fe,,,,,,,,,2612,76.92224121,14.75213623,1,0,0,response1disk,,6,11.17102051,-11.82791138,1,0,0,rectangle,11.17102051,-11.82791138,1,0,0,11.17102051,-11.82791138,1,0,0,0,129,129,62,1,,,,,,,,
,,,,,,,,,,,,,FF,,,,,,,,1.4672,,,,,,,,,,,,,,,,,,,,,,61023602e6e4517b310c24aa,61036c5d4ea5c745f29813cf,2021-07-30_13h06.09.669,Simcolourproject_2stim_asymm_v5,2020.2.10,MacIntel,60,61025ae37ef11b136ea224fe,,,,,,,,,3938,-67.0100708,-39.95251465,1,0,0,response5disk,,2,9.502319336,-7.847412109,1,0,0,rectangle,9.502319336,-7.847412109,1,0,0,9.502319336,-7.847412109,1,0,0,0,130,130,33,1,,,,,,,,
,,,,,,,,,,,,,FF,,,,,,,,1.3516,,,,,,,,,,,,,,,,,,,,,,61023602e6e4517b310c24aa,61036c5d4ea5c745f29813cf,2021-07-30_13h06.09.669,Simcolourproject_2stim_asymm_v5,2020.2.10,MacIntel,60,61025ae37ef11b136ea224fe,,,,,,,,,1181,58.96405029,-25.6628418,1,0,0,response3disk,,5,16.19580078,2.337585449,1,0,0,rectangle,16.19580078,2.337585449,1,0,0,16.19580078,2.337585449,1,0,0,0,131,131,22,1,,,,,,,,
,,,,,,,,,,,,,FF,,,,,,,,1.8643,,,,,,,,,,,,,,,,,,,,,,61023602e6e4517b310c24aa,61036c5d4ea5c745f29813cf,2021-07-30_13h06.09.669,Simcolourproject_2stim_asymm_v5,2020.2.10,MacIntel,60,61025ae37ef11b136ea224fe,,,,,,,,,3493,68.27319336,-27.13092041,1,0,0,response3disk,,5,13.48486328,-5.105529785,1,0,0,rectangle,13.48486328,-5.105529785,1,0,0,13.48486328,-5.105529785,1,0,0,0,132,132,131,1,,,,,,,,
,,,,,,,,,,,,,FF,,,,,,,,2.0792,,,,,,,,,,,,,,,,,,,,,,61023602e6e4517b310c24aa,61036c5d4ea5c745f29813cf,2021-07-30_13h06.09.669,Simcolourproject_2stim_asymm_v5,2020.2.10,MacIntel,60,61025ae37ef11b136ea224fe,,,,,,,,,3604,32.68005371,-73.01330566,1,0,0,response3disk,,4,3.268676758,-0.639465332,1,0,0,rectangle,3.268676758,-0.639465332,1,0,0,3.268676758,-0.639465332,1,0,0,0,133,133,42,1,,,,,,,,
,,,,,,,,,,,,,FF,,,,,,,,2.7511,,,,,,,,,,,,,,,,,,,,,,61023602e6e4517b310c24aa,61036c5d4ea5c745f29813cf,2021-07-30_13h06.09.669,Simcolourproject_2stim_asymm_v5,2020.2.10,MacIntel,60,61025ae37ef11b136ea224fe,,,,,,,,,2839,77.5213623,-37.19827271,1,0,0,response3disk,,5,4.831726074,4.394073486,1,0,0,rectangle,4.831726074,4.394073486,1,0,0,4.831726074,4.394073486,1,0,0,0,134,134,107,1,,,,,,,,
,,,,,,,,,,,,,FF,,,,,,,,1.5707,,,,,,,,,,,,,,,,,,,,,,61023602e6e4517b310c24aa,61036c5d4ea5c745f29813cf,2021-07-30_13h06.09.669,Simcolourproject_2stim_asymm_v5,2020.2.10,MacIntel,60,61025ae37ef11b136ea224fe,,,,,,,,,2675,23.75738525,-72.81237793,1,0,0,response3disk,,4,4.867553711,2.175720215,1,0,0,rectangle,4.867553711,2.175720215,1,0,0,4.867553711,2.175720215,1,0,0,0,135,135,19,1,,,,,,,,
,,,,,,,,,,,,,FF,,,,,,,,1.1278,,,,,,,,,,,,,,,,,,,,,,61023602e6e4517b310c24aa,61036c5d4ea5c745f29813cf,2021-07-30_13h06.09.669,Simcolourproject_2stim_asymm_v5,2020.2.10,MacIntel,60,61025ae37ef11b136ea224fe,,,,,,,,,3391,-42.99383545,-67.4440918,1,0,0,response5disk,,3,3.589599609,-0.365020752,1,0,0,rectangle,3.589599609,-0.365020752,1,0,0,3.589599609,-0.365020752,1,0,0,0,136,136,53,1,,,,,,,,
,,,,,,,,,,,,,FF,,,,,,,,1.0689,,,,,,,,,,,,,,,,,,,,,,61023602e6e4517b310c24aa,61036c5d4ea5c745f29813cf,2021-07-30_13h06.09.669,Simcolourproject_2stim_asymm_v5,2020.2.10,MacIntel,60,61025ae37ef11b136ea224fe,,,,,,,,,3507,-77.75628662,-45.88873291,1,0,0,response5disk,,2,6.938232422,4.658843994,1,0,0,rectangle,6.938232422,4.658843994,1,0,0,6.938232422,4.658843994,1,0,0,0,137,137,97,1,,,,,,,,
,,,,,,,,,,,,,FF,,,,,,,,1.3302,,,,,,,,,,,,,,,,,,,,,,61023602e6e4517b310c24aa,61036c5d4ea5c745f29813cf,2021-07-30_13h06.09.669,Simcolourproject_2stim_asymm_v5,2020.2.10,MacIntel,60,61025ae37ef11b136ea224fe,,,,,,,,,1770,53.85180664,-22.24411011,1,0,0,response3disk,,5,15.19934082,6.593536377,1,0,0,rectangle,15.19934082,6.593536377,1,0,0,15.19934082,6.593536377,1,0,0,0,138,138,118,1,,,,,,,,
,,,,,,,,,,,,,FF,,,,,,,,1.112,,,,,,,,,,,,,,,,,,,,,,61023602e6e4517b310c24aa,61036c5d4ea5c745f29813cf,2021-07-30_13h06.09.669,Simcolourproject_2stim_asymm_v5,2020.2.10,MacIntel,60,61025ae37ef11b136ea224fe,,,,,,,,,1037,61.16357422,46.18209839,1,0,0,response1disk,,6,-13.15374756,-7.802124023,1,0,0,rectangle,-13.15374756,-7.802124023,1,0,0,-13.15374756,-7.802124023,1,0,0,0,139,139,67,1,,,,,,,,
,,,,,,,,,,,,,FF,,,,,,,,1.4455,,,,,,,,,,,,,,,,,,,,,,61023602e6e4517b310c24aa,61036c5d4ea5c745f29813cf,2021-07-30_13h06.09.669,Simcolourproject_2stim_asymm_v5,2020.2.10,MacIntel,60,61025ae37ef11b136ea224fe,,,,,,,,,355,-28.88037109,-65.15625,1,0,0,response5disk,,3,8.421813965,-4.046142578,1,0,0,rectangle,-63.23303223,-36.01904297,1,0,0,-0.728027344,-6.887420654,1,0,0,0,140,140,20,1,,response5disk_3,TRUE,2,2,"[45,31,87,246,156,223,189,122,141,3,155,126,25,98,298,175,310,120,304,74]",2.0189,rectangle
,,,,,,,,,,,,,FF,,,,,,,,2.2713,,,,,,,,,,,,,,,,,,,,,,61023602e6e4517b310c24aa,61036c5d4ea5c745f29813cf,2021-07-30_13h06.09.669,Simcolourproject_2stim_asymm_v5,2020.2.10,MacIntel,60,61025ae37ef11b136ea224fe,,,,,,,,,4310,34.01965332,-55.4475708,1,0,0,response3disk,,4,1.554870605,3.540527344,1,0,0,rectangle,1.554870605,3.540527344,1,0,0,1.554870605,3.540527344,1,0,0,0,141,141,147,1,,,,,,,,
,,,,,,,,,,,,,FF,,,,,,,,1.4871,,,,,,,,,,,,,,,,,,,,,,61023602e6e4517b310c24aa,61036c5d4ea5c745f29813cf,2021-07-30_13h06.09.669,Simcolourproject_2stim_asymm_v5,2020.2.10,MacIntel,60,61025ae37ef11b136ea224fe,,,,,,,,,4332,56.49493408,44.79815674,1,0,0,response1disk,,6,5.323974609,-2.518554688,1,0,0,rectangle,5.323974609,-2.518554688,1,0,0,5.323974609,-2.518554688,1,0,0,0,142,142,109,1,,,,,,,,
,,,,,,,,,,,,,FF,,,,,,,,1.8274,,,,,,,,,,,,,,,,,,,,,,61023602e6e4517b310c24aa,61036c5d4ea5c745f29813cf,2021-07-30_13h06.09.669,Simcolourproject_2stim_asymm_v5,2020.2.10,MacIntel,60,61025ae37ef11b136ea224fe,,,,,,,,,3134,68.02264404,35.40942383,1,0,0,response1disk,,6,13.37280273,1.645812988,1,0,0,rectangle,13.37280273,1.645812988,1,0,0,13.37280273,1.645812988,1,0,0,0,143,143,45,1,,,,,,,,
,,,,,,,,,,,,,FF,,,,,,,,2.3111,,,,,,,,,,,,,,,,,,,,,,61023602e6e4517b310c24aa,61036c5d4ea5c745f29813cf,2021-07-30_13h06.09.669,Simcolourproject_2stim_asymm_v5,2020.2.10,MacIntel,60,61025ae37ef11b136ea224fe,,,,,,,,,1192,62.82897949,-39.31500244,1,0,0,response3disk,,5,3.984863281,5.848937988,1,0,0,rectangle,3.984863281,5.848937988,1,0,0,3.984863281,5.848937988,1,0,0,0,144,144,146,1,,,,,,,,
,,,,,,,,,,,,,FF,,,,,,,,1.2296,,,,,,,,,,,,,,,,,,,,,,61023602e6e4517b310c24aa,61036c5d4ea5c745f29813cf,2021-07-30_13h06.09.669,Simcolourproject_2stim_asymm_v5,2020.2.10,MacIntel,60,61025ae37ef11b136ea224fe,,,,,,,,,2391,74.70129395,23.06573486,1,0,0,response1disk,,6,2.828308105,-6.362243652,1,0,0,rectangle,2.828308105,-6.362243652,1,0,0,2.828308105,-6.362243652,1,0,0,0,145,145,104,1,,,,,,,,
,,,,,,,,,,,,,FF,,,,,,,,1.2318,,,,,,,,,,,,,,,,,,,,,,61023602e6e4517b310c24aa,61036c5d4ea5c745f29813cf,2021-07-30_13h06.09.669,Simcolourproject_2stim_asymm_v5,2020.2.10,MacIntel,60,61025ae37ef11b136ea224fe,,,,,,,,,3115,68.60668945,-41.15786743,1,0,0,response3disk,,5,-7.036132813,7.799621582,1,0,0,rectangle,-7.036132813,7.799621582,1,0,0,-7.036132813,7.799621582,1,0,0,0,146,146,151,1,,,,,,,,
,,,,,,,,,,,,,FF,,,,,,,,3.0163,,,,,,,,,,,,,,,,,,,,,,61023602e6e4517b310c24aa,61036c5d4ea5c745f29813cf,2021-07-30_13h06.09.669,Simcolourproject_2stim_asymm_v5,2020.2.10,MacIntel,60,61025ae37ef11b136ea224fe,,,,,,,,,1698,43.06829834,-56.83468628,1,0,0,response3disk,,4,-10.05737305,0.368469238,1,0,0,rectangle,-10.05737305,0.368469238,1,0,0,-10.05737305,0.368469238,1,0,0,0,147,147,23,1,,,,,,,,
,,,,,,,,,,,,,FF,,,,,,,,3.2842,,,,,,,,,,,,,,,,,,,,,,61023602e6e4517b310c24aa,61036c5d4ea5c745f29813cf,2021-07-30_13h06.09.669,Simcolourproject_2stim_asymm_v5,2020.2.10,MacIntel,60,61025ae37ef11b136ea224fe,,,,,,,,,3884,59.63720703,-43.05325317,1,0,0,response3disk,,5,2.631286621,-3.456359863,1,0,0,rectangle,2.631286621,-3.456359863,1,0,0,2.631286621,-3.456359863,1,0,0,0,148,148,1,1,,,,,,,,
,,,,,,,,,,,,,FF,,,,,,,,2.5129,,,,,,,,,,,,,,,,,,,,,,61023602e6e4517b310c24aa,61036c5d4ea5c745f29813cf,2021-07-30_13h06.09.669,Simcolourproject_2stim_asymm_v5,2020.2.10,MacIntel,60,61025ae37ef11b136ea224fe,,,,,,,,,1565,50.0524292,-28.39199829,1,0,0,response3disk,,5,2.500061035,13.97644043,1,0,0,rectangle,2.500061035,13.97644043,1,0,0,2.500061035,13.97644043,1,0,0,0,149,149,6,1,,,,,,,,
,,,,,,,,,,,,,FF,,,,,,,,1.2506,,,,,,,,,,,,,,,,,,,,,,61023602e6e4517b310c24aa,61036c5d4ea5c745f29813cf,2021-07-30_13h06.09.669,Simcolourproject_2stim_asymm_v5,2020.2.10,MacIntel,60,61025ae37ef11b136ea224fe,,,,,,,,,251,59.95343018,-33.79141235,1,0,0,response3disk,,5,9.390869141,1.05065918,1,0,0,rectangle,9.390869141,1.05065918,1,0,0,9.390869141,1.05065918,1,0,0,0,150,150,96,1,,,,,,,,
,,,,,,,,,,,,,FF,,,,,,,,0.811,,,,,,,,,,,,,,,,,,,,,,61023602e6e4517b310c24aa,61036c5d4ea5c745f29813cf,2021-07-30_13h06.09.669,Simcolourproject_2stim_asymm_v5,2020.2.10,MacIntel,60,61025ae37ef11b136ea224fe,,,,,,,,,2705,73.91363525,-46.8878479,1,0,0,response3disk,,5,11.07745361,-9.468933105,1,0,0,rectangle,11.07745361,-9.468933105,1,0,0,11.07745361,-9.468933105,1,0,0,0,151,151,15,1,,,,,,,,
,,,,,,,,,,,,,FF,,,,,,,,3.2847,,,,,,,,,,,,,,,,,,,,,,61023602e6e4517b310c24aa,61036c5d4ea5c745f29813cf,2021-07-30_13h06.09.669,Simcolourproject_2stim_asymm_v5,2020.2.10,MacIntel,60,61025ae37ef11b136ea224fe,,,,,,,,,3141,52.62359619,-18.22073364,1,0,0,response3disk,,5,-2.701660156,0.664459229,1,0,0,rectangle,-2.701660156,0.664459229,1,0,0,-2.701660156,0.664459229,1,0,0,0,152,152,108,1,,,,,,,,
,,,,,,,,,,,,,FF,,,,,,,,3.25,,,,,,,,,,,,,,,,,,,,,,61023602e6e4517b310c24aa,61036c5d4ea5c745f29813cf,2021-07-30_13h06.09.669,Simcolourproject_2stim_asymm_v5,2020.2.10,MacIntel,60,61025ae37ef11b136ea224fe,,,,,,,,,2546,52.60388184,-41.87774658,1,0,0,response3disk,,5,11.41784668,-10.20132446,1,0,0,rectangle,11.41784668,-10.20132446,1,0,0,11.41784668,-10.20132446,1,0,0,0,153,153,103,1,,,,,,,,
,,,,,,,,,,,,,FF,,,,,,,,2.7661,,,,,,,,,,,,,,,,,,,,,,61023602e6e4517b310c24aa,61036c5d4ea5c745f29813cf,2021-07-30_13h06.09.669,Simcolourproject_2stim_asymm_v5,2020.2.10,MacIntel,60,61025ae37ef11b136ea224fe,,,,,,,,,918,61.44274902,24.7288208,1,0,0,response1disk,,6,2.406799316,-0.52166748,1,0,0,rectangle,-48.34960938,-35.609375,1,0,0,8.116943359,-13.0111084,1,0,0,0,154,154,87,1,,response5disk_3,TRUE,2,2,"[45,31,87,246,156,223,189,122,141,3,155,126,25,98,298,175,310,120,304,74]",1.6984,rectangle
,,,,,,,,,,,,,FF,,,,,,,,1.2492,,,,,,,,,,,,,,,,,,,,,,61023602e6e4517b310c24aa,61036c5d4ea5c745f29813cf,2021-07-30_13h06.09.669,Simcolourproject_2stim_asymm_v5,2020.2.10,MacIntel,60,61025ae37ef11b136ea224fe,,,,,,,,,1132,23.10803223,-66.13659668,1,0,0,response3disk,,4,-4.098510742,4.110168457,1,0,0,rectangle,-39.58392334,70.07861328,1,0,0,-10.05767822,1.985137939,1,0,0,0,155,155,86,1,,response7disk_3,TRUE,0,0,"[45,31,87,246,156,223,189,122,141,3,155,126,25,98,298,175,310,120,304,74]",1.4989,rectangle
,,,,,,,,,,,,,FF,,,,,,,,2.1167,,,,,,,,,,,,,,,,,,,,,,61023602e6e4517b310c24aa,61036c5d4ea5c745f29813cf,2021-07-30_13h06.09.669,Simcolourproject_2stim_asymm_v5,2020.2.10,MacIntel,60,61025ae37ef11b136ea224fe,,,,,,,,,3690,33.92767334,-72.72741699,1,0,0,response3disk,,4,1.256958008,-4.027435303,1,0,0,rectangle,1.256958008,-4.027435303,1,0,0,1.256958008,-4.027435303,1,0,0,0,156,156,80,1,,,,,,,,
,,,,,,,,,,,,,FF,,,,,,,,1.7036,,,,,,,,,,,,,,,,,,,,,,61023602e6e4517b310c24aa,61036c5d4ea5c745f29813cf,2021-07-30_13h06.09.669,Simcolourproject_2stim_asymm_v5,2020.2.10,MacIntel,60,61025ae37ef11b136ea224fe,,,,,,,,,3491,35.98608398,-75.09936523,1,0,0,response3disk,,4,1.604431152,-3.95513916,1,0,0,rectangle,1.604431152,-3.95513916,1,0,0,1.604431152,-3.95513916,1,0,0,0,157,157,100,1,,,,,,,,
,,,,,,,,,,,,,FF,,,,,,,,1.2139,,,,,,,,,,,,,,,,,,,,,,61023602e6e4517b310c24aa,61036c5d4ea5c745f29813cf,2021-07-30_13h06.09.669,Simcolourproject_2stim_asymm_v5,2020.2.10,MacIntel,60,61025ae37ef11b136ea224fe,,,,,,,,,361,63.33709717,28.82736206,1,0,0,response1disk,,6,-1.553649902,6.798217773,1,0,0,rectangle,-1.553649902,6.798217773,1,0,0,-1.553649902,6.798217773,1,0,0,0,158,158,31,1,,,,,,,,
,,,,,,,,,,,,,FF,,,,,,,,0.8792,,,,,,,,,,,,,,,,,,,,,,61023602e6e4517b310c24aa,61036c5d4ea5c745f29813cf,2021-07-30_13h06.09.669,Simcolourproject_2stim_asymm_v5,2020.2.10,MacIntel,60,61025ae37ef11b136ea224fe,,,,,,,,,1366,56.75842285,16.14923096,1,0,0,response1disk,,6,-2.637756348,-4.181274414,1,0,0,rectangle,-2.637756348,-4.181274414,1,0,0,-2.637756348,-4.181274414,1,0,0,0,159,159,99,1,,,,,,,,
,,,,,,,,,,,,,FF,,,,,,,,0.6341,,,,,,,,,,,,,,,,,,,,,,61023602e6e4517b310c24aa,61036c5d4ea5c745f29813cf,2021-07-30_13h06.09.669,Simcolourproject_2stim_asymm_v5,2020.2.10,MacIntel,60,61025ae37ef11b136ea224fe,,,,,,,,,2078,65.42071533,32.13626099,1,0,0,response1disk,,6,7.167297363,-7.107177734,1,0,0,rectangle,7.167297363,-7.107177734,1,0,0,7.167297363,-7.107177734,1,0,0,1,0,160,147,1,,,,,,,,
,,,,,,,,,,,,,FF,,,,,,,,2.113,,,,,,,,,,,,,,,,,,,,,,61023602e6e4517b310c24aa,61036c5d4ea5c745f29813cf,2021-07-30_13h06.09.669,Simcolourproject_2stim_asymm_v5,2020.2.10,MacIntel,60,61025ae37ef11b136ea224fe,,,,,,,,,298,19.30657959,-41.10070801,1,0,0,response3disk,,4,3.110229492,-2.64642334,1,0,0,rectangle,3.110229492,-2.64642334,1,0,0,3.110229492,-2.64642334,1,0,0,1,1,161,30,1,,,,,,,,
,,,,,,,,,,,,,FF,,,,,,,,1.4203,,,,,,,,,,,,,,,,,,,,,,61023602e6e4517b310c24aa,61036c5d4ea5c745f29813cf,2021-07-30_13h06.09.669,Simcolourproject_2stim_asymm_v5,2020.2.10,MacIntel,60,61025ae37ef11b136ea224fe,,,,,,,,,3302,83.50476074,38.83135986,1,0,0,response1disk,,6,-4.1015625,-0.848327637,1,0,0,rectangle,-4.1015625,-0.848327637,1,0,0,-4.1015625,-0.848327637,1,0,0,1,2,162,8,1,,,,,,,,
,,,,,,,,,,,,,FF,,,,,,,,1.7483,,,,,,,,,,,,,,,,,,,,,,61023602e6e4517b310c24aa,61036c5d4ea5c745f29813cf,2021-07-30_13h06.09.669,Simcolourproject_2stim_asymm_v5,2020.2.10,MacIntel,60,61025ae37ef11b136ea224fe,,,,,,,,,4054,67.34344482,-42.24993896,1,0,0,response3disk,,5,12.10021973,0.881500244,1,0,0,rectangle,12.10021973,0.881500244,1,0,0,12.10021973,0.881500244,1,0,0,1,3,163,120,1,,,,,,,,
,,,,,,,,,,,,,FF,,,,,,,,1.5723,,,,,,,,,,,,,,,,,,,,,,61023602e6e4517b310c24aa,61036c5d4ea5c745f29813cf,2021-07-30_13h06.09.669,Simcolourproject_2stim_asymm_v5,2020.2.10,MacIntel,60,61025ae37ef11b136ea224fe,,,,,,,,,2607,37.90087891,-63.44158936,1,0,0,response3disk,,4,-3.105163574,-8.214111328,1,0,0,rectangle,-3.105163574,-8.214111328,1,0,0,-3.105163574,-8.214111328,1,0,0,1,4,164,65,1,,,,,,,,
,,,,,,,,,,,,,FF,,,,,,,,1.0341,,,,,,,,,,,,,,,,,,,,,,61023602e6e4517b310c24aa,61036c5d4ea5c745f29813cf,2021-07-30_13h06.09.669,Simcolourproject_2stim_asymm_v5,2020.2.10,MacIntel,60,61025ae37ef11b136ea224fe,,,,,,,,,3213,66.5692749,-26.54824829,1,0,0,response3disk,,5,4.873291016,-6.816497803,1,0,0,rectangle,4.873291016,-6.816497803,1,0,0,4.873291016,-6.816497803,1,0,0,1,5,165,19,1,,,,,,,,
,,,,,,,,,,,,,FF,,,,,,,,1.1147,,,,,,,,,,,,,,,,,,,,,,61023602e6e4517b310c24aa,61036c5d4ea5c745f29813cf,2021-07-30_13h06.09.669,Simcolourproject_2stim_asymm_v5,2020.2.10,MacIntel,60,61025ae37ef11b136ea224fe,,,,,,,,,2669,23.04309082,-59.93426514,1,0,0,response3disk,,4,2.927856445,-2.001831055,1,0,0,rectangle,2.927856445,-2.001831055,1,0,0,2.927856445,-2.001831055,1,0,0,1,6,166,21,1,,,,,,,,
,,,,,,,,,,,,,FF,,,,,,,,1.0014,,,,,,,,,,,,,,,,,,,,,,61023602e6e4517b310c24aa,61036c5d4ea5c745f29813cf,2021-07-30_13h06.09.669,Simcolourproject_2stim_asymm_v5,2020.2.10,MacIntel,60,61025ae37ef11b136ea224fe,,,,,,,,,2759,56.62103271,-29.30041504,1,0,0,response3disk,,5,1.31829834,-1.769592285,1,0,0,rectangle,1.31829834,-1.769592285,1,0,0,1.31829834,-1.769592285,1,0,0,1,7,167,117,1,,,,,,,,
,,,,,,,,,,,,,FF,,,,,,,,1.6954,,,,,,,,,,,,,,,,,,,,,,61023602e6e4517b310c24aa,61036c5d4ea5c745f29813cf,2021-07-30_13h06.09.669,Simcolourproject_2stim_asymm_v5,2020.2.10,MacIntel,60,61025ae37ef11b136ea224fe,,,,,,,,,3267,71.58459473,-22.02667236,1,0,0,response3disk,,5,-0.488830566,-0.022033691,1,0,0,rectangle,-0.488830566,-0.022033691,1,0,0,-0.488830566,-0.022033691,1,0,0,1,8,168,33,1,,,,,,,,
,,,,,,,,,,,,,FF,,,,,,,,2.6999,,,,,,,,,,,,,,,,,,,,,,61023602e6e4517b310c24aa,61036c5d4ea5c745f29813cf,2021-07-30_13h06.09.669,Simcolourproject_2stim_asymm_v5,2020.2.10,MacIntel,60,61025ae37ef11b136ea224fe,,,,,,,,,557,62.69567871,26.77502441,1,0,0,response1disk,,6,-0.490722656,-0.326202393,1,0,0,rectangle,-0.490722656,-0.326202393,1,0,0,-0.490722656,-0.326202393,1,0,0,1,9,169,143,1,,,,,,,,
,,,,,,,,,,,,,FF,,,,,,,,1.488,,,,,,,,,,,,,,,,,,,,,,61023602e6e4517b310c24aa,61036c5d4ea5c745f29813cf,2021-07-30_13h06.09.669,Simcolourproject_2stim_asymm_v5,2020.2.10,MacIntel,60,61025ae37ef11b136ea224fe,,,,,,,,,2684,49.33215332,18.04669189,1,0,0,response1disk,,6,-7.533081055,-3.020507813,1,0,0,rectangle,-7.533081055,-3.020507813,1,0,0,-7.533081055,-3.020507813,1,0,0,1,10,170,71,1,,,,,,,,
,,,,,,,,,,,,,FF,,,,,,,,0.8151,,,,,,,,,,,,,,,,,,,,,,61023602e6e4517b310c24aa,61036c5d4ea5c745f29813cf,2021-07-30_13h06.09.669,Simcolourproject_2stim_asymm_v5,2020.2.10,MacIntel,60,61025ae37ef11b136ea224fe,,,,,,,,,2405,64.90966797,11.21765137,1,0,0,response1disk,,6,25.71734619,-4.53918457,1,0,0,rectangle,25.71734619,-4.53918457,1,0,0,25.71734619,-4.53918457,1,0,0,1,11,171,131,1,,,,,,,,
,,,,,,,,,,,,,FF,,,,,,,,4.4188,,,,,,,,,,,,,,,,,,,,,,61023602e6e4517b310c24aa,61036c5d4ea5c745f29813cf,2021-07-30_13h06.09.669,Simcolourproject_2stim_asymm_v5,2020.2.10,MacIntel,60,61025ae37ef11b136ea224fe,,,,,,,,,3699,68.57849121,-36.89178467,1,0,0,response3disk,,5,3.43737793,-3.742431641,1,0,0,rectangle,3.43737793,-3.742431641,1,0,0,3.43737793,-3.742431641,1,0,0,1,12,172,11,1,,,,,,,,
,,,,,,,,,,,,,FF,,,,,,,,1.2826,,,,,,,,,,,,,,,,,,,,,,61023602e6e4517b310c24aa,61036c5d4ea5c745f29813cf,2021-07-30_13h06.09.669,Simcolourproject_2stim_asymm_v5,2020.2.10,MacIntel,60,61025ae37ef11b136ea224fe,,,,,,,,,254,75.46014404,29.41259766,1,0,0,response1disk,,6,11.418396,-16.68829346,1,0,0,rectangle,11.418396,-16.68829346,1,0,0,11.418396,-16.68829346,1,0,0,1,13,173,86,1,,,,,,,,
,,,,,,,,,,,,,FF,,,,,,,,1.8134,,,,,,,,,,,,,,,,,,,,,,61023602e6e4517b310c24aa,61036c5d4ea5c745f29813cf,2021-07-30_13h06.09.669,Simcolourproject_2stim_asymm_v5,2020.2.10,MacIntel,60,61025ae37ef11b136ea224fe,,,,,,,,,1750,19.08782959,-65.77563477,1,0,0,response3disk,,4,-14.4041748,-0.809692383,1,0,0,rectangle,58.89050293,-77.80975342,1,0,0,16.91955566,-3.782958984,1,0,0,1,14,174,125,1,,response3disk_3,TRUE,4,4,"[45,31,87,246,156,223,189,122,141,3,155,126,25,98,298,175,310,120,304,74]",2.5498,rectangle
,,,,,,,,,,,,,FF,,,,,,,,1.4454,,,,,,,,,,,,,,,,,,,,,,61023602e6e4517b310c24aa,61036c5d4ea5c745f29813cf,2021-07-30_13h06.09.669,Simcolourproject_2stim_asymm_v5,2020.2.10,MacIntel,60,61025ae37ef11b136ea224fe,,,,,,,,,1392,69.77075195,-27.56951904,1,0,0,response3disk,,5,11.15844727,-3.042388916,1,0,0,rectangle,11.15844727,-3.042388916,1,0,0,11.15844727,-3.042388916,1,0,0,1,15,175,141,1,,,,,,,,
,,,,,,,,,,,,,FF,,,,,,,,2.0193,,,,,,,,,,,,,,,,,,,,,,61023602e6e4517b310c24aa,61036c5d4ea5c745f29813cf,2021-07-30_13h06.09.669,Simcolourproject_2stim_asymm_v5,2020.2.10,MacIntel,60,61025ae37ef11b136ea224fe,,,,,,,,,2867,76.43609619,-36.3152771,1,0,0,response3disk,,5,11.97705078,6.955841064,1,0,0,rectangle,11.97705078,6.955841064,1,0,0,11.97705078,6.955841064,1,0,0,1,16,176,48,1,,,,,,,,
,,,,,,,,,,,,,FF,,,,,,,,5.98,,,,,,,,,,,,,,,,,,,,,,61023602e6e4517b310c24aa,61036c5d4ea5c745f29813cf,2021-07-30_13h06.09.669,Simcolourproject_2stim_asymm_v5,2020.2.10,MacIntel,60,61025ae37ef11b136ea224fe,,,,,,,,,1789,64.49639893,-35.06518555,1,0,0,response3disk,,5,-9.696044922,-0.020629883,1,0,0,rectangle,-9.696044922,-0.020629883,1,0,0,-9.696044922,-0.020629883,1,0,0,1,17,177,3,1,,,,,,,,
,,,,,,,,,,,,,FF,,,,,,,,1.816,,,,,,,,,,,,,,,,,,,,,,61023602e6e4517b310c24aa,61036c5d4ea5c745f29813cf,2021-07-30_13h06.09.669,Simcolourproject_2stim_asymm_v5,2020.2.10,MacIntel,60,61025ae37ef11b136ea224fe,,,,,,,,,3060,44.33221436,-69.16699219,1,0,0,response3disk,,4,7.692443848,2.12677002,1,0,0,rectangle,7.692443848,2.12677002,1,0,0,7.692443848,2.12677002,1,0,0,1,18,178,7,1,,,,,,,,
,,,,,,,,,,,,,FF,,,,,,,,1.3977,,,,,,,,,,,,,,,,,,,,,,61023602e6e4517b310c24aa,61036c5d4ea5c745f29813cf,2021-07-30_13h06.09.669,Simcolourproject_2stim_asymm_v5,2020.2.10,MacIntel,60,61025ae37ef11b136ea224fe,,,,,,,,,651,58.47015381,-28.78820801,1,0,0,response3disk,,5,0.606811523,11.91223145,1,0,0,rectangle,0.606811523,11.91223145,1,0,0,0.606811523,11.91223145,1,0,0,1,19,179,4,1,,,,,,,,
,,,,,,,,,,,,,FF,,,,,,,,0.7699,,,,,,,,,,,,,,,,,,,,,,61023602e6e4517b310c24aa,61036c5d4ea5c745f29813cf,2021-07-30_13h06.09.669,Simcolourproject_2stim_asymm_v5,2020.2.10,MacIntel,60,61025ae37ef11b136ea224fe,,,,,,,,,1666,63.52368164,37.59637451,1,0,0,response1disk,,6,5.53918457,0.65612793,1,0,0,rectangle,5.53918457,0.65612793,1,0,0,5.53918457,0.65612793,1,0,0,1,20,180,91,1,,,,,,,,
,,,,,,,,,,,,,FF,,,,,,,,0.8316,,,,,,,,,,,,,,,,,,,,,,61023602e6e4517b310c24aa,61036c5d4ea5c745f29813cf,2021-07-30_13h06.09.669,Simcolourproject_2stim_asymm_v5,2020.2.10,MacIntel,60,61025ae37ef11b136ea224fe,,,,,,,,,1404,27.45092773,56.66360474,1,0,0,response1disk,,7,2.54510498,-3.402832031,1,0,0,rectangle,2.54510498,-3.402832031,1,0,0,2.54510498,-3.402832031,1,0,0,1,21,181,72,1,,,,,,,,
,,,,,,,,,,,,,FF,,,,,,,,0.6328,,,,,,,,,,,,,,,,,,,,,,61023602e6e4517b310c24aa,61036c5d4ea5c745f29813cf,2021-07-30_13h06.09.669,Simcolourproject_2stim_asymm_v5,2020.2.10,MacIntel,60,61025ae37ef11b136ea224fe,,,,,,,,,610,21.19525146,50.72528076,1,0,0,response1disk,,7,7.592773438,4.043945313,1,0,0,rectangle,7.592773438,4.043945313,1,0,0,7.592773438,4.043945313,1,0,0,1,22,182,145,1,,,,,,,,
,,,,,,,,,,,,,FF,,,,,,,,0.716,,,,,,,,,,,,,,,,,,,,,,61023602e6e4517b310c24aa,61036c5d4ea5c745f29813cf,2021-07-30_13h06.09.669,Simcolourproject_2stim_asymm_v5,2020.2.10,MacIntel,60,61025ae37ef11b136ea224fe,,,,,,,,,1167,28.53833008,64.05712891,1,0,0,response1disk,,7,8.901000977,-0.949951172,1,0,0,rectangle,8.901000977,-0.949951172,1,0,0,8.901000977,-0.949951172,1,0,0,1,23,183,130,1,,,,,,,,
,,,,,,,,,,,,,FF,,,,,,,,1.6213,,,,,,,,,,,,,,,,,,,,,,61023602e6e4517b310c24aa,61036c5d4ea5c745f29813cf,2021-07-30_13h06.09.669,Simcolourproject_2stim_asymm_v5,2020.2.10,MacIntel,60,61025ae37ef11b136ea224fe,,,,,,,,,2610,67.81860352,-42.37121582,1,0,0,response3disk,,5,2.298339844,-5.119567871,1,0,0,rectangle,2.298339844,-5.119567871,1,0,0,2.298339844,-5.119567871,1,0,0,1,24,184,122,1,,,,,,,,
,,,,,,,,,,,,,FF,,,,,,,,2.4176,,,,,,,,,,,,,,,,,,,,,,61023602e6e4517b310c24aa,61036c5d4ea5c745f29813cf,2021-07-30_13h06.09.669,Simcolourproject_2stim_asymm_v5,2020.2.10,MacIntel,60,61025ae37ef11b136ea224fe,,,,,,,,,792,66.79742432,-45.80441284,1,0,0,response3disk,,5,-3.39263916,-8.087768555,1,0,0,rectangle,-3.39263916,-8.087768555,1,0,0,-3.39263916,-8.087768555,1,0,0,1,25,185,98,1,,,,,,,,
,,,,,,,,,,,,,FF,,,,,,,,1.5196,,,,,,,,,,,,,,,,,,,,,,61023602e6e4517b310c24aa,61036c5d4ea5c745f29813cf,2021-07-30_13h06.09.669,Simcolourproject_2stim_asymm_v5,2020.2.10,MacIntel,60,61025ae37ef11b136ea224fe,,,,,,,,,2163,45.52056885,-63.09710693,1,0,0,response3disk,,4,11.96520996,-5.188964844,1,0,0,rectangle,11.96520996,-5.188964844,1,0,0,11.96520996,-5.188964844,1,0,0,1,26,186,99,1,,,,,,,,
,,,,,,,,,,,,,FF,,,,,,,,1.4464,,,,,,,,,,,,,,,,,,,,,,61023602e6e4517b310c24aa,61036c5d4ea5c745f29813cf,2021-07-30_13h06.09.669,Simcolourproject_2stim_asymm_v5,2020.2.10,MacIntel,60,61025ae37ef11b136ea224fe,,,,,,,,,3781,-15.16638184,-78.50897217,1,0,0,response5disk,,3,2.434387207,-5.212158203,1,0,0,rectangle,2.434387207,-5.212158203,1,0,0,2.434387207,-5.212158203,1,0,0,1,27,187,2,1,,,,,,,,
,,,,,,,,,,,,,FF,,,,,,,,1.0003,,,,,,,,,,,,,,,,,,,,,,61023602e6e4517b310c24aa,61036c5d4ea5c745f29813cf,2021-07-30_13h06.09.669,Simcolourproject_2stim_asymm_v5,2020.2.10,MacIntel,60,61025ae37ef11b136ea224fe,,,,,,,,,1888,-64.75396729,21.89556885,1,0,0,response7disk,,1,-0.16583252,3.545593262,1,0,0,rectangle,41.50372314,55.61566162,1,0,0,-2.173400879,-3.767913818,1,0,0,1,28,188,157,1,,response1disk_3,TRUE,7,7,"[45,31,87,246,156,223,189,122,141,3,155,126,25,98,298,175,310,120,304,74]",1.5,rectangle
,,,,,,,,,,,,,FF,,,,,,,,2.7878,,,,,,,,,,,,,,,,,,,,,,61023602e6e4517b310c24aa,61036c5d4ea5c745f29813cf,2021-07-30_13h06.09.669,Simcolourproject_2stim_asymm_v5,2020.2.10,MacIntel,60,61025ae37ef11b136ea224fe,,,,,,,,,3200,-32.81323242,-66.08624268,1,0,0,response5disk,,3,4.51940918,3.301391602,1,0,0,rectangle,4.51940918,3.301391602,1,0,0,4.51940918,3.301391602,1,0,0,1,29,189,151,1,,,,,,,,
,,,,,,,,,,,,,FF,,,,,,,,0.9645,,,,,,,,,,,,,,,,,,,,,,61023602e6e4517b310c24aa,61036c5d4ea5c745f29813cf,2021-07-30_13h06.09.669,Simcolourproject_2stim_asymm_v5,2020.2.10,MacIntel,60,61025ae37ef11b136ea224fe,,,,,,,,,1072,57.29589844,-34.74169922,1,0,0,response3disk,,5,-17.10003662,11.82946777,1,0,0,rectangle,-17.10003662,11.82946777,1,0,0,-17.10003662,11.82946777,1,0,0,1,30,190,121,1,,,,,,,,
,,,,,,,,,,,,,FF,,,,,,,,1.8535,,,,,,,,,,,,,,,,,,,,,,61023602e6e4517b310c24aa,61036c5d4ea5c745f29813cf,2021-07-30_13h06.09.669,Simcolourproject_2stim_asymm_v5,2020.2.10,MacIntel,60,61025ae37ef11b136ea224fe,,,,,,,,,1783,50.29003906,-21.13006592,1,0,0,response3disk,,5,-3.19128418,-1.388763428,1,0,0,rectangle,-3.19128418,-1.388763428,1,0,0,-3.19128418,-1.388763428,1,0,0,1,31,191,129,1,,,,,,,,
,,,,,,,,,,,,,FF,,,,,,,,2.1729,,,,,,,,,,,,,,,,,,,,,,61023602e6e4517b310c24aa,61036c5d4ea5c745f29813cf,2021-07-30_13h06.09.669,Simcolourproject_2stim_asymm_v5,2020.2.10,MacIntel,60,61025ae37ef11b136ea224fe,,,,,,,,,411,73.04980469,26.91760254,1,0,0,response1disk,,6,6.654541016,0.283935547,1,0,0,rectangle,6.654541016,0.283935547,1,0,0,6.654541016,0.283935547,1,0,0,1,32,192,108,1,,,,,,,,
,,,,,,,,,,,,,FF,,,,,,,,2.5291,,,,,,,,,,,,,,,,,,,,,,61023602e6e4517b310c24aa,61036c5d4ea5c745f29813cf,2021-07-30_13h06.09.669,Simcolourproject_2stim_asymm_v5,2020.2.10,MacIntel,60,61025ae37ef11b136ea224fe,,,,,,,,,465,71.37084961,17.13214111,1,0,0,response1disk,,6,9.304199219,1.121124268,1,0,0,rectangle,9.304199219,1.121124268,1,0,0,9.304199219,1.121124268,1,0,0,1,33,193,1,1,,,,,,,,
,,,,,,,,,,,,,FF,,,,,,,,2.2006,,,,,,,,,,,,,,,,,,,,,,61023602e6e4517b310c24aa,61036c5d4ea5c745f29813cf,2021-07-30_13h06.09.669,Simcolourproject_2stim_asymm_v5,2020.2.10,MacIntel,60,61025ae37ef11b136ea224fe,,,,,,,,,4211,27.62884521,65.39279175,1,0,0,response1disk,,7,-3.26550293,4.000061035,1,0,0,rectangle,-3.26550293,4.000061035,1,0,0,-3.26550293,4.000061035,1,0,0,1,34,194,76,1,,,,,,,,
,,,,,,,,,,,,,FF,,,,,,,,1.7952,,,,,,,,,,,,,,,,,,,,,,61023602e6e4517b310c24aa,61036c5d4ea5c745f29813cf,2021-07-30_13h06.09.669,Simcolourproject_2stim_asymm_v5,2020.2.10,MacIntel,60,61025ae37ef11b136ea224fe,,,,,,,,,575,22.90545654,-72.15142822,1,0,0,response3disk,,4,2.367492676,2.725006104,1,0,0,rectangle,2.367492676,2.725006104,1,0,0,2.367492676,2.725006104,1,0,0,1,35,195,74,1,,,,,,,,
,,,,,,,,,,,,,FF,,,,,,,,1.4638,,,,,,,,,,,,,,,,,,,,,,61023602e6e4517b310c24aa,61036c5d4ea5c745f29813cf,2021-07-30_13h06.09.669,Simcolourproject_2stim_asymm_v5,2020.2.10,MacIntel,60,61025ae37ef11b136ea224fe,,,,,,,,,3906,-32.05090332,59.40270996,1,0,0,response7disk,,0,-5.957275391,-1.132873535,1,0,0,rectangle,-5.957275391,-1.132873535,1,0,0,-5.957275391,-1.132873535,1,0,0,1,36,196,34,1,,,,,,,,
,,,,,,,,,,,,,FF,,,,,,,,2.0675,,,,,,,,,,,,,,,,,,,,,,61023602e6e4517b310c24aa,61036c5d4ea5c745f29813cf,2021-07-30_13h06.09.669,Simcolourproject_2stim_asymm_v5,2020.2.10,MacIntel,60,61025ae37ef11b136ea224fe,,,,,,,,,763,53.82843018,25.35174561,1,0,0,response1disk,,6,8.109863281,-7.984619141,1,0,0,rectangle,8.109863281,-7.984619141,1,0,0,8.109863281,-7.984619141,1,0,0,1,37,197,6,1,,,,,,,,
,,,,,,,,,,,,,FF,,,,,,,,1.3463,,,,,,,,,,,,,,,,,,,,,,61023602e6e4517b310c24aa,61036c5d4ea5c745f29813cf,2021-07-30_13h06.09.669,Simcolourproject_2stim_asymm_v5,2020.2.10,MacIntel,60,61025ae37ef11b136ea224fe,,,,,,,,,3202,32.08276367,-77.45129395,1,0,0,response3disk,,4,8.907531738,-10.83740234,1,0,0,rectangle,8.907531738,-10.83740234,1,0,0,8.907531738,-10.83740234,1,0,0,1,38,198,0,1,,,,,,,,
,,,,,,,,,,,,,FF,,,,,,,,1.1479,,,,,,,,,,,,,,,,,,,,,,61023602e6e4517b310c24aa,61036c5d4ea5c745f29813cf,2021-07-30_13h06.09.669,Simcolourproject_2stim_asymm_v5,2020.2.10,MacIntel,60,61025ae37ef11b136ea224fe,,,,,,,,,4336,-25.84558105,-62.37670898,1,0,0,response5disk,,3,-5.200622559,-0.100891113,1,0,0,rectangle,-5.200622559,-0.100891113,1,0,0,-5.200622559,-0.100891113,1,0,0,1,39,199,42,1,,,,,,,,
,,,,,,,,,,,,,FF,,,,,,,,1.3189,,,,,,,,,,,,,,,,,,,,,,61023602e6e4517b310c24aa,61036c5d4ea5c745f29813cf,2021-07-30_13h06.09.669,Simcolourproject_2stim_asymm_v5,2020.2.10,MacIntel,60,61025ae37ef11b136ea224fe,,,,,,,,,3667,67.25738525,-32.46740723,1,0,0,response3disk,,5,19.9239502,-3.407409668,1,0,0,rectangle,19.9239502,-3.407409668,1,0,0,19.9239502,-3.407409668,1,0,0,1,40,200,142,1,,,,,,,,
,,,,,,,,,,,,,FF,,,,,,,,3.8032,,,,,,,,,,,,,,,,,,,,,,61023602e6e4517b310c24aa,61036c5d4ea5c745f29813cf,2021-07-30_13h06.09.669,Simcolourproject_2stim_asymm_v5,2020.2.10,MacIntel,60,61025ae37ef11b136ea224fe,,,,,,,,,3474,44.95758057,-72.38604736,1,0,0,response3disk,,4,9.24206543,-3.772766113,1,0,0,rectangle,9.24206543,-3.772766113,1,0,0,9.24206543,-3.772766113,1,0,0,1,41,201,53,1,,,,,,,,
,,,,,,,,,,,,,FF,,,,,,,,1.3679,,,,,,,,,,,,,,,,,,,,,,61023602e6e4517b310c24aa,61036c5d4ea5c745f29813cf,2021-07-30_13h06.09.669,Simcolourproject_2stim_asymm_v5,2020.2.10,MacIntel,60,61025ae37ef11b136ea224fe,,,,,,,,,3731,65.44580078,25.50201416,1,0,0,response1disk,,6,3.450439453,-7.979187012,1,0,0,rectangle,3.450439453,-7.979187012,1,0,0,3.450439453,-7.979187012,1,0,0,1,42,202,29,1,,,,,,,,
,,,,,,,,,,,,,FF,,,,,,,,0.6501,,,,,,,,,,,,,,,,,,,,,,61023602e6e4517b310c24aa,61036c5d4ea5c745f29813cf,2021-07-30_13h06.09.669,Simcolourproject_2stim_asymm_v5,2020.2.10,MacIntel,60,61025ae37ef11b136ea224fe,,,,,,,,,312,54.81134033,23.42669678,1,0,0,response1disk,,6,-15.96191406,-2.30368042,1,0,0,rectangle,-15.96191406,-2.30368042,1,0,0,-15.96191406,-2.30368042,1,0,0,1,43,203,118,1,,,,,,,,
,,,,,,,,,,,,,FF,,,,,,,,0.6658,,,,,,,,,,,,,,,,,,,,,,61023602e6e4517b310c24aa,61036c5d4ea5c745f29813cf,2021-07-30_13h06.09.669,Simcolourproject_2stim_asymm_v5,2020.2.10,MacIntel,60,61025ae37ef11b136ea224fe,,,,,,,,,993,48.79699707,21.08343506,1,0,0,response1disk,,6,5.307006836,-3.274383545,1,0,0,rectangle,5.307006836,-3.274383545,1,0,0,5.307006836,-3.274383545,1,0,0,1,44,204,25,1,,,,,,,,
,,,,,,,,,,,,,FF,,,,,,,,1.4344,,,,,,,,,,,,,,,,,,,,,,61023602e6e4517b310c24aa,61036c5d4ea5c745f29813cf,2021-07-30_13h06.09.669,Simcolourproject_2stim_asymm_v5,2020.2.10,MacIntel,60,61025ae37ef11b136ea224fe,,,,,,,,,1814,-22.19244385,-53.73260498,1,0,0,response5disk,,3,2.454345703,14.10519409,1,0,0,rectangle,2.454345703,14.10519409,1,0,0,2.454345703,14.10519409,1,0,0,1,45,205,104,1,,,,,,,,
,,,,,,,,,,,,,FF,,,,,,,,1.2012,,,,,,,,,,,,,,,,,,,,,,61023602e6e4517b310c24aa,61036c5d4ea5c745f29813cf,2021-07-30_13h06.09.669,Simcolourproject_2stim_asymm_v5,2020.2.10,MacIntel,60,61025ae37ef11b136ea224fe,,,,,,,,,2942,24.52758789,-58.69888306,1,0,0,response3disk,,4,2.376220703,2.122192383,1,0,0,rectangle,2.376220703,2.122192383,1,0,0,2.376220703,2.122192383,1,0,0,1,46,206,116,1,,,,,,,,
,,,,,,,,,,,,,FF,,,,,,,,2.1834,,,,,,,,,,,,,,,,,,,,,,61023602e6e4517b310c24aa,61036c5d4ea5c745f29813cf,2021-07-30_13h06.09.669,Simcolourproject_2stim_asymm_v5,2020.2.10,MacIntel,60,61025ae37ef11b136ea224fe,,,,,,,,,3483,61.71325684,42.19900513,1,0,0,response1disk,,6,-5.974121094,0.731872559,1,0,0,rectangle,-5.974121094,0.731872559,1,0,0,-5.974121094,0.731872559,1,0,0,1,47,207,51,1,,,,,,,,
,,,,,,,,,,,,,FF,,,,,,,,1.2533,,,,,,,,,,,,,,,,,,,,,,61023602e6e4517b310c24aa,61036c5d4ea5c745f29813cf,2021-07-30_13h06.09.669,Simcolourproject_2stim_asymm_v5,2020.2.10,MacIntel,60,61025ae37ef11b136ea224fe,,,,,,,,,2121,59.75762939,27.37979126,1,0,0,response1disk,,6,9.292175293,5.258270264,1,0,0,rectangle,9.292175293,5.258270264,1,0,0,9.292175293,5.258270264,1,0,0,1,48,208,43,1,,,,,,,,
,,,,,,,,,,,,,FF,,,,,,,,1.2853,,,,,,,,,,,,,,,,,,,,,,61023602e6e4517b310c24aa,61036c5d4ea5c745f29813cf,2021-07-30_13h06.09.669,Simcolourproject_2stim_asymm_v5,2020.2.10,MacIntel,60,61025ae37ef11b136ea224fe,,,,,,,,,4180,22.86260986,79.28948975,1,0,0,response1disk,,7,4.798095703,-12.72357178,1,0,0,rectangle,4.798095703,-12.72357178,1,0,0,4.798095703,-12.72357178,1,0,0,1,49,209,55,1,,,,,,,,
,,,,,,,,,,,,,FF,,,,,,,,1.1502,,,,,,,,,,,,,,,,,,,,,,61023602e6e4517b310c24aa,61036c5d4ea5c745f29813cf,2021-07-30_13h06.09.669,Simcolourproject_2stim_asymm_v5,2020.2.10,MacIntel,60,61025ae37ef11b136ea224fe,,,,,,,,,882,45.09887695,-74.64788818,1,0,0,response3disk,,4,0.538330078,-5.038391113,1,0,0,rectangle,0.538330078,-5.038391113,1,0,0,0.538330078,-5.038391113,1,0,0,1,50,210,159,1,,,,,,,,
,,,,,,,,,,,,,FF,,,,,,,,1.7166,,,,,,,,,,,,,,,,,,,,,,61023602e6e4517b310c24aa,61036c5d4ea5c745f29813cf,2021-07-30_13h06.09.669,Simcolourproject_2stim_asymm_v5,2020.2.10,MacIntel,60,61025ae37ef11b136ea224fe,,,,,,,,,4301,53.42712402,-34.75238037,1,0,0,response3disk,,5,-13.29101563,1.406066895,1,0,0,rectangle,-13.29101563,1.406066895,1,0,0,-13.29101563,1.406066895,1,0,0,1,51,211,70,1,,,,,,,,
,,,,,,,,,,,,,FF,,,,,,,,0.7839,,,,,,,,,,,,,,,,,,,,,,61023602e6e4517b310c24aa,61036c5d4ea5c745f29813cf,2021-07-30_13h06.09.669,Simcolourproject_2stim_asymm_v5,2020.2.10,MacIntel,60,61025ae37ef11b136ea224fe,,,,,,,,,149,68.71069336,37.48236084,1,0,0,response1disk,,6,0.183288574,-6.553344727,1,0,0,rectangle,0.183288574,-6.553344727,1,0,0,0.183288574,-6.553344727,1,0,0,1,52,212,128,1,,,,,,,,
,,,,,,,,,,,,,FF,,,,,,,,1.0017,,,,,,,,,,,,,,,,,,,,,,61023602e6e4517b310c24aa,61036c5d4ea5c745f29813cf,2021-07-30_13h06.09.669,Simcolourproject_2stim_asymm_v5,2020.2.10,MacIntel,60,61025ae37ef11b136ea224fe,,,,,,,,,2210,24.19256592,62.65167236,1,0,0,response1disk,,7,-0.927978516,7.026428223,1,0,0,rectangle,-0.927978516,7.026428223,1,0,0,-0.927978516,7.026428223,1,0,0,1,53,213,150,1,,,,,,,,
,,,,,,,,,,,,,FF,,,,,,,,1.3999,,,,,,,,,,,,,,,,,,,,,,61023602e6e4517b310c24aa,61036c5d4ea5c745f29813cf,2021-07-30_13h06.09.669,Simcolourproject_2stim_asymm_v5,2020.2.10,MacIntel,60,61025ae37ef11b136ea224fe,,,,,,,,,975,-66.8302002,-37.02630615,1,0,0,response5disk,,2,-17.7956543,-8.917236328,1,0,0,rectangle,-17.7956543,-8.917236328,1,0,0,-17.7956543,-8.917236328,1,0,0,1,54,214,83,1,,,,,,,,
,,,,,,,,,,,,,FF,,,,,,,,2.2518,,,,,,,,,,,,,,,,,,,,,,61023602e6e4517b310c24aa,61036c5d4ea5c745f29813cf,2021-07-30_13h06.09.669,Simcolourproject_2stim_asymm_v5,2020.2.10,MacIntel,60,61025ae37ef11b136ea224fe,,,,,,,,,1487,52.61108398,-24.80697632,1,0,0,response3disk,,5,2.062011719,-1.35067749,1,0,0,rectangle,2.062011719,-1.35067749,1,0,0,2.062011719,-1.35067749,1,0,0,1,55,215,45,1,,,,,,,,
,,,,,,,,,,,,,FF,,,,,,,,1.6491,,,,,,,,,,,,,,,,,,,,,,61023602e6e4517b310c24aa,61036c5d4ea5c745f29813cf,2021-07-30_13h06.09.669,Simcolourproject_2stim_asymm_v5,2020.2.10,MacIntel,60,61025ae37ef11b136ea224fe,,,,,,,,,137,42.02294922,64.53582764,1,0,0,response1disk,,7,12.15362549,4.030151367,1,0,0,rectangle,12.15362549,4.030151367,1,0,0,12.15362549,4.030151367,1,0,0,1,56,216,97,1,,,,,,,,
,,,,,,,,,,,,,FF,,,,,,,,0.7849,,,,,,,,,,,,,,,,,,,,,,61023602e6e4517b310c24aa,61036c5d4ea5c745f29813cf,2021-07-30_13h06.09.669,Simcolourproject_2stim_asymm_v5,2020.2.10,MacIntel,60,61025ae37ef11b136ea224fe,,,,,,,,,4257,17.79418945,39.45126343,1,0,0,response1disk,,7,2.921203613,-3.024780273,1,0,0,rectangle,2.921203613,-3.024780273,1,0,0,2.921203613,-3.024780273,1,0,0,1,57,217,75,1,,,,,,,,
,,,,,,,,,,,,,FF,,,,,,,,1.1843,,,,,,,,,,,,,,,,,,,,,,61023602e6e4517b310c24aa,61036c5d4ea5c745f29813cf,2021-07-30_13h06.09.669,Simcolourproject_2stim_asymm_v5,2020.2.10,MacIntel,60,61025ae37ef11b136ea224fe,,,,,,,,,2027,-43.69970703,-66.42736816,1,0,0,response5disk,,3,1.077819824,6.66696167,1,0,0,rectangle,1.077819824,6.66696167,1,0,0,1.077819824,6.66696167,1,0,0,1,58,218,67,1,,,,,,,,
,,,,,,,,,,,,,FF,,,,,,,,1.1495,,,,,,,,,,,,,,,,,,,,,,61023602e6e4517b310c24aa,61036c5d4ea5c745f29813cf,2021-07-30_13h06.09.669,Simcolourproject_2stim_asymm_v5,2020.2.10,MacIntel,60,61025ae37ef11b136ea224fe,,,,,,,,,3659,49.52349854,-24.23794556,1,0,0,response3disk,,5,9.317260742,9.659881592,1,0,0,rectangle,9.317260742,9.659881592,1,0,0,9.317260742,9.659881592,1,0,0,1,59,219,47,1,,,,,,,,
,,,,,,,,,,,,,FF,,,,,,,,1.7199,,,,,,,,,,,,,,,,,,,,,,61023602e6e4517b310c24aa,61036c5d4ea5c745f29813cf,2021-07-30_13h06.09.669,Simcolourproject_2stim_asymm_v5,2020.2.10,MacIntel,60,61025ae37ef11b136ea224fe,,,,,,,,,174,55.96295166,-68.35595703,1,0,0,response3disk,,4,12.34552002,-6.905944824,1,0,0,rectangle,12.34552002,-6.905944824,1,0,0,12.34552002,-6.905944824,1,0,0,1,60,220,87,1,,,,,,,,
,,,,,,,,,,,,,FF,,,,,,,,0.8165,,,,,,,,,,,,,,,,,,,,,,61023602e6e4517b310c24aa,61036c5d4ea5c745f29813cf,2021-07-30_13h06.09.669,Simcolourproject_2stim_asymm_v5,2020.2.10,MacIntel,60,61025ae37ef11b136ea224fe,,,,,,,,,111,30.10296631,46.42303467,1,0,0,response1disk,,7,9.256347656,-5.749938965,1,0,0,rectangle,9.256347656,-5.749938965,1,0,0,9.256347656,-5.749938965,1,0,0,1,61,221,96,1,,,,,,,,
,,,,,,,,,,,,,FF,,,,,,,,3.2486,,,,,,,,,,,,,,,,,,,,,,61023602e6e4517b310c24aa,61036c5d4ea5c745f29813cf,2021-07-30_13h06.09.669,Simcolourproject_2stim_asymm_v5,2020.2.10,MacIntel,60,61025ae37ef11b136ea224fe,,,,,,,,,747,24.66564941,-68.8482666,1,0,0,response3disk,,4,8.94744873,-3.051025391,1,0,0,rectangle,-65.34185791,-43.55059814,1,0,0,-8.612304688,-7.616455078,1,0,0,1,62,222,109,1,,response5disk_3,TRUE,2,2,"[45,31,87,246,156,223,189,122,141,3,155,126,25,98,298,175,310,120,304,74]",1.6678,rectangle
,,,,,,,,,,,,,FF,,,,,,,,1.8716,,,,,,,,,,,,,,,,,,,,,,61023602e6e4517b310c24aa,61036c5d4ea5c745f29813cf,2021-07-30_13h06.09.669,Simcolourproject_2stim_asymm_v5,2020.2.10,MacIntel,60,61025ae37ef11b136ea224fe,,,,,,,,,4024,25.17974854,-68.62280273,1,0,0,response3disk,,4,7.14855957,-9.715148926,1,0,0,rectangle,7.14855957,-9.715148926,1,0,0,7.14855957,-9.715148926,1,0,0,1,63,223,103,1,,,,,,,,
,,,,,,,,,,,,,FF,,,,,,,,1.4164,,,,,,,,,,,,,,,,,,,,,,61023602e6e4517b310c24aa,61036c5d4ea5c745f29813cf,2021-07-30_13h06.09.669,Simcolourproject_2stim_asymm_v5,2020.2.10,MacIntel,60,61025ae37ef11b136ea224fe,,,,,,,,,3143,39.64923096,-67.35906982,1,0,0,response3disk,,4,10.63049316,-13.06665039,1,0,0,rectangle,10.63049316,-13.06665039,1,0,0,10.63049316,-13.06665039,1,0,0,1,64,224,14,1,,,,,,,,
,,,,,,,,,,,,,FF,,,,,,,,4.1028,,,,,,,,,,,,,,,,,,,,,,61023602e6e4517b310c24aa,61036c5d4ea5c745f29813cf,2021-07-30_13h06.09.669,Simcolourproject_2stim_asymm_v5,2020.2.10,MacIntel,60,61025ae37ef11b136ea224fe,,,,,,,,,2158,71.18664551,29.12771606,1,0,0,response1disk,,6,12.22485352,-6.336486816,1,0,0,rectangle,12.22485352,-6.336486816,1,0,0,12.22485352,-6.336486816,1,0,0,1,65,225,89,1,,,,,,,,
,,,,,,,,,,,,,FF,,,,,,,,0.9317,,,,,,,,,,,,,,,,,,,,,,61023602e6e4517b310c24aa,61036c5d4ea5c745f29813cf,2021-07-30_13h06.09.669,Simcolourproject_2stim_asymm_v5,2020.2.10,MacIntel,60,61025ae37ef11b136ea224fe,,,,,,,,,2488,59.06988525,24.77490234,1,0,0,response1disk,,6,14.77868652,-0.20123291,1,0,0,rectangle,14.77868652,-0.20123291,1,0,0,14.77868652,-0.20123291,1,0,0,1,66,226,18,1,,,,,,,,
,,,,,,,,,,,,,FF,,,,,,,,1.084,,,,,,,,,,,,,,,,,,,,,,61023602e6e4517b310c24aa,61036c5d4ea5c745f29813cf,2021-07-30_13h06.09.669,Simcolourproject_2stim_asymm_v5,2020.2.10,MacIntel,60,61025ae37ef11b136ea224fe,,,,,,,,,410,25.58959961,62.13110352,1,0,0,response1disk,,7,-1.481811523,4.326965332,1,0,0,rectangle,-1.481811523,4.326965332,1,0,0,-1.481811523,4.326965332,1,0,0,1,67,227,35,1,,,,,,,,
,,,,,,,,,,,,,FF,,,,,,,,1.6502,,,,,,,,,,,,,,,,,,,,,,61023602e6e4517b310c24aa,61036c5d4ea5c745f29813cf,2021-07-30_13h06.09.669,Simcolourproject_2stim_asymm_v5,2020.2.10,MacIntel,60,61025ae37ef11b136ea224fe,,,,,,,,,3007,-30.46020508,-81.69940186,1,0,0,response5disk,,3,-1.875549316,-0.782470703,1,0,0,rectangle,-1.875549316,-0.782470703,1,0,0,-1.875549316,-0.782470703,1,0,0,1,68,228,40,1,,,,,,,,
,,,,,,,,,,,,,FF,,,,,,,,2.75,,,,,,,,,,,,,,,,,,,,,,61023602e6e4517b310c24aa,61036c5d4ea5c745f29813cf,2021-07-30_13h06.09.669,Simcolourproject_2stim_asymm_v5,2020.2.10,MacIntel,60,61025ae37ef11b136ea224fe,,,,,,,,,1476,85.61010742,38.77566528,1,0,0,response1disk,,6,0.354064941,-6.136047363,1,0,0,rectangle,0.354064941,-6.136047363,1,0,0,0.354064941,-6.136047363,1,0,0,1,69,229,92,1,,,,,,,,
,,,,,,,,,,,,,FF,,,,,,,,1.3834,,,,,,,,,,,,,,,,,,,,,,61023602e6e4517b310c24aa,61036c5d4ea5c745f29813cf,2021-07-30_13h06.09.669,Simcolourproject_2stim_asymm_v5,2020.2.10,MacIntel,60,61025ae37ef11b136ea224fe,,,,,,,,,1442,32.23303223,-76.96185303,1,0,0,response3disk,,4,2.421630859,-3.44329834,1,0,0,rectangle,2.421630859,-3.44329834,1,0,0,2.421630859,-3.44329834,1,0,0,1,70,230,66,1,,,,,,,,
,,,,,,,,,,,,,FF,,,,,,,,0.7823,,,,,,,,,,,,,,,,,,,,,,61023602e6e4517b310c24aa,61036c5d4ea5c745f29813cf,2021-07-30_13h06.09.669,Simcolourproject_2stim_asymm_v5,2020.2.10,MacIntel,60,61025ae37ef11b136ea224fe,,,,,,,,,4109,29.02252197,66.57165527,1,0,0,response1disk,,7,6.07409668,-1.925109863,1,0,0,rectangle,6.07409668,-1.925109863,1,0,0,6.07409668,-1.925109863,1,0,0,1,71,231,146,1,,,,,,,,
,,,,,,,,,,,,,FF,,,,,,,,1.0824,,,,,,,,,,,,,,,,,,,,,,61023602e6e4517b310c24aa,61036c5d4ea5c745f29813cf,2021-07-30_13h06.09.669,Simcolourproject_2stim_asymm_v5,2020.2.10,MacIntel,60,61025ae37ef11b136ea224fe,,,,,,,,,4071,-27.66693115,55.44628906,1,0,0,response7disk,,0,-2.59979248,0.480712891,1,0,0,rectangle,-2.59979248,0.480712891,1,0,0,-2.59979248,0.480712891,1,0,0,1,72,232,106,1,,,,,,,,
,,,,,,,,,,,,,FF,,,,,,,,1.1014,,,,,,,,,,,,,,,,,,,,,,61023602e6e4517b310c24aa,61036c5d4ea5c745f29813cf,2021-07-30_13h06.09.669,Simcolourproject_2stim_asymm_v5,2020.2.10,MacIntel,60,61025ae37ef11b136ea224fe,,,,,,,,,1989,77.3770752,25.69268799,1,0,0,response1disk,,6,18.82470703,-4.729248047,1,0,0,rectangle,18.82470703,-4.729248047,1,0,0,18.82470703,-4.729248047,1,0,0,1,73,233,16,1,,,,,,,,
,,,,,,,,,,,,,FF,,,,,,,,0.7296,,,,,,,,,,,,,,,,,,,,,,61023602e6e4517b310c24aa,61036c5d4ea5c745f29813cf,2021-07-30_13h06.09.669,Simcolourproject_2stim_asymm_v5,2020.2.10,MacIntel,60,61025ae37ef11b136ea224fe,,,,,,,,,2558,62.55084229,31.24853516,1,0,0,response1disk,,6,1.336608887,5.715087891,1,0,0,rectangle,1.336608887,5.715087891,1,0,0,1.336608887,5.715087891,1,0,0,1,74,234,107,1,,,,,,,,
,,,,,,,,,,,,,FF,,,,,,,,0.7496,,,,,,,,,,,,,,,,,,,,,,61023602e6e4517b310c24aa,61036c5d4ea5c745f29813cf,2021-07-30_13h06.09.669,Simcolourproject_2stim_asymm_v5,2020.2.10,MacIntel,60,61025ae37ef11b136ea224fe,,,,,,,,,1553,57.61810303,28.39797974,1,0,0,response1disk,,6,-2.770019531,4.651367188,1,0,0,rectangle,-2.770019531,4.651367188,1,0,0,-2.770019531,4.651367188,1,0,0,1,75,235,115,1,,,,,,,,
,,,,,,,,,,,,,FF,,,,,,,,0.8309,,,,,,,,,,,,,,,,,,,,,,61023602e6e4517b310c24aa,61036c5d4ea5c745f29813cf,2021-07-30_13h06.09.669,Simcolourproject_2stim_asymm_v5,2020.2.10,MacIntel,60,61025ae37ef11b136ea224fe,,,,,,,,,2490,51.05297852,32.12246704,1,0,0,response1disk,,6,-9.542602539,-2.53213501,1,0,0,rectangle,-9.542602539,-2.53213501,1,0,0,-9.542602539,-2.53213501,1,0,0,1,76,236,63,1,,,,,,,,
,,,,,,,,,,,,,FF,,,,,,,,0.7179,,,,,,,,,,,,,,,,,,,,,,61023602e6e4517b310c24aa,61036c5d4ea5c745f29813cf,2021-07-30_13h06.09.669,Simcolourproject_2stim_asymm_v5,2020.2.10,MacIntel,60,61025ae37ef11b136ea224fe,,,,,,,,,926,73.67340088,33.0135498,1,0,0,response1disk,,6,11.03167725,3.851776123,1,0,0,rectangle,11.03167725,3.851776123,1,0,0,11.03167725,3.851776123,1,0,0,1,77,237,126,1,,,,,,,,
,,,,,,,,,,,,,FF,,,,,,,,0.7718,,,,,,,,,,,,,,,,,,,,,,61023602e6e4517b310c24aa,61036c5d4ea5c745f29813cf,2021-07-30_13h06.09.669,Simcolourproject_2stim_asymm_v5,2020.2.10,MacIntel,60,61025ae37ef11b136ea224fe,,,,,,,,,399,69.80053711,33.60806274,1,0,0,response1disk,,6,16.49224854,8.913208008,1,0,0,rectangle,16.49224854,8.913208008,1,0,0,16.49224854,8.913208008,1,0,0,1,78,238,44,1,,,,,,,,
,,,,,,,,,,,,,FF,,,,,,,,0.6696,,,,,,,,,,,,,,,,,,,,,,61023602e6e4517b310c24aa,61036c5d4ea5c745f29813cf,2021-07-30_13h06.09.669,Simcolourproject_2stim_asymm_v5,2020.2.10,MacIntel,60,61025ae37ef11b136ea224fe,,,,,,,,,1841,62.32263184,28.98425293,1,0,0,response1disk,,6,10.621521,-8.289672852,1,0,0,rectangle,10.621521,-8.289672852,1,0,0,10.621521,-8.289672852,1,0,0,1,79,239,156,1,,,,,,,,
,,,,,,,,,,,,,FF,,,,,,,,1.9351,,,,,,,,,,,,,,,,,,,,,,61023602e6e4517b310c24aa,61036c5d4ea5c745f29813cf,2021-07-30_13h06.09.669,Simcolourproject_2stim_asymm_v5,2020.2.10,MacIntel,60,61025ae37ef11b136ea224fe,,,,,,,,,181,53.58874512,-34.80450439,1,0,0,response3disk,,5,6.35333252,-6.302703857,1,0,0,rectangle,6.35333252,-6.302703857,1,0,0,6.35333252,-6.302703857,1,0,0,1,80,240,12,1,,,,,,,,
