key_resp.keys,key_resp.rt,key_resp_14.keys,key_resp_14.rt,key_resp_15.keys,key_resp_15.rt,key_resp_17.keys,key_resp_17.rt,key_resp_9.keys,key_resp_9.rt,key_resp_10.keys,key_resp_10.rt,practice_comparison,Ecc,mouse_5.x,mouse_5.y,mouse_5.leftButton,mouse_5.midButton,mouse_5.rightButton,mouse_5.clicked_name,pracsimilarity,response_time,mouse_10.x,mouse_10.y,mouse_10.leftButton,mouse_10.midButton,mouse_10.rightButton,mouse_10.clicked_name,mouse_7.x,mouse_7.y,mouse_7.leftButton,mouse_7.midButton,mouse_7.rightButton,mouse_6.x,mouse_6.y,mouse_6.leftButton,mouse_6.midButton,mouse_6.rightButton,duringprac.thisRepN,duringprac.thisTrialN,duringprac.thisN,duringprac.thisIndex,duringprac.ran,participant,session,date,expName,psychopyVersion,OS,frameRate,study_id,mouse_7.clicked_name,catchpracsimilarity,catch_response_time,catchnumberprac,catchtrialorderprac,mouse_6.clicked_name,key_resp_22.keys,key_resp_22.rt,realcomparison,mouse.x,mouse.y,mouse.leftButton,mouse.midButton,mouse.rightButton,mouse.clicked_name,Colour2,similarity,mouse_2.x,mouse_2.y,mouse_2.leftButton,mouse_2.midButton,mouse_2.rightButton,mouse_2.clicked_name,mouse_3.x,mouse_3.y,mouse_3.leftButton,mouse_3.midButton,mouse_3.rightButton,mouse_11.x,mouse_11.y,mouse_11.leftButton,mouse_11.midButton,mouse_11.rightButton,trials_2.thisRepN,trials_2.thisTrialN,trials_2.thisN,trials_2.thisIndex,trials_2.ran,Colour1,mouse_3.clicked_name,catchornah,catchsimilarity,catchnumber,catchtrialorder,catchRT,mouse_11.clicked_name
space,2.0473,space,34.6251,space,43.8032,space,19.2519,space,1.5936,space,3.8345,14,PF,-45,59,1,0,0,response7disk_5,0,1.5527,-8,-7,1,0,0,rectangle_8,-8,-7,1,0,0,-8,-7,1,0,0,0,0,0,4,1,61027e7e28245b6b5cab5e60,61036d616fe90b4772fc1a9b,2021-07-30_05h09.59.128,Simcolourproject_2stim_asymm_v5,2020.2.10,Win32,60,61025ae37ef11b136ea224fe,,,,,,,,,,,,,,,,,,,,,,,,,,,,,,,,,,,,,,,,,,,,,,
,,,,,,,,,,,,8,FF,-37,-91,1,0,0,response5disk_5,3,1.885,17,4,1,0,0,rectangle_8,61,-38,1,0,0,8,5,1,0,0,0,1,1,5,1,61027e7e28245b6b5cab5e60,61036d616fe90b4772fc1a9b,2021-07-30_05h09.59.128,Simcolourproject_2stim_asymm_v5,2020.2.10,Win32,60,61025ae37ef11b136ea224fe,response3disk_7,5,2.365,5,"[2,5]",rectangle_4,,,,,,,,,,,,,,,,,,,,,,,,,,,,,,,,,,,,,,,,
,,,,,,,,,,,,21,FF,59,93,1,0,0,response1disk_5,7,2.7182,6,-6,1,0,0,rectangle_8,6,-6,1,0,0,6,-6,1,0,0,0,2,2,3,1,61027e7e28245b6b5cab5e60,61036d616fe90b4772fc1a9b,2021-07-30_05h09.59.128,Simcolourproject_2stim_asymm_v5,2020.2.10,Win32,60,61025ae37ef11b136ea224fe,,,,,,,,,,,,,,,,,,,,,,,,,,,,,,,,,,,,,,,,,,,,,,
,,,,,,,,,,,,92,FF,48,-73,1,0,0,response3disk_5,4,3.034,-1,-7,1,0,0,rectangle_8,-1,-7,1,0,0,-1,-7,1,0,0,0,3,3,0,1,61027e7e28245b6b5cab5e60,61036d616fe90b4772fc1a9b,2021-07-30_05h09.59.128,Simcolourproject_2stim_asymm_v5,2020.2.10,Win32,60,61025ae37ef11b136ea224fe,,,,,,,,,,,,,,,,,,,,,,,,,,,,,,,,,,,,,,,,,,,,,,
,,,,,,,,,,,,25,PF,70,86,1,0,0,response1disk_5,7,1.2819,-2,7,1,0,0,rectangle_8,78,-48,1,0,0,-1,-3,1,0,0,0,4,4,1,1,61027e7e28245b6b5cab5e60,61036d616fe90b4772fc1a9b,2021-07-30_05h09.59.128,Simcolourproject_2stim_asymm_v5,2020.2.10,Win32,60,61025ae37ef11b136ea224fe,response3disk_7,5,2.0868,5,"[2,5]",rectangle_4,,,,,,,,,,,,,,,,,,,,,,,,,,,,,,,,,,,,,,,,
,,,,,,,,,,,,48,PF,-54,-68,1,0,0,response5disk_5,3,1.5005,-15,-10,1,0,0,rectangle_8,-15,-10,1,0,0,-15,-10,1,0,0,0,5,5,6,1,61027e7e28245b6b5cab5e60,61036d616fe90b4772fc1a9b,2021-07-30_05h09.59.128,Simcolourproject_2stim_asymm_v5,2020.2.10,Win32,60,61025ae37ef11b136ea224fe,,,,,,,,,,,,,,,,,,,,,,,,,,,,,,,,,,,,,,,,,,,,,,
,,,,,,,,,,,,93,PF,-35,-59,1,0,0,response5disk_5,3,1.1847,1,12,1,0,0,rectangle_8,1,12,1,0,0,1,12,1,0,0,0,6,6,2,1,61027e7e28245b6b5cab5e60,61036d616fe90b4772fc1a9b,2021-07-30_05h09.59.128,Simcolourproject_2stim_asymm_v5,2020.2.10,Win32,60,61025ae37ef11b136ea224fe,,,,,,,,,,,,,,,,,,,,,,,,,,,,,,,,,,,,,,,,,,,,,,
,,,,,,,,,,,,,FF,,,,,,,,1.5706,,,,,,,,,,,,,,,,,,,,,,61027e7e28245b6b5cab5e60,61036d616fe90b4772fc1a9b,2021-07-30_05h09.59.128,Simcolourproject_2stim_asymm_v5,2020.2.10,Win32,60,61025ae37ef11b136ea224fe,,,,,,,space,4.3681,920,-80,-41,1,0,0,response5disk,,2,-12,8,1,0,0,rectangle,-12,8,1,0,0,-12,8,1,0,0,0,0,0,63,1,,,,,,,,
,,,,,,,,,,,,,FF,,,,,,,,1.5137,,,,,,,,,,,,,,,,,,,,,,61027e7e28245b6b5cab5e60,61036d616fe90b4772fc1a9b,2021-07-30_05h09.59.128,Simcolourproject_2stim_asymm_v5,2020.2.10,Win32,60,61025ae37ef11b136ea224fe,,,,,,,,,4223,72,-32,1,0,0,response3disk,,5,22,-2,1,0,0,rectangle,22,-2,1,0,0,22,-2,1,0,0,0,1,1,93,1,,,,,,,,
,,,,,,,,,,,,,FF,,,,,,,,0.9005,,,,,,,,,,,,,,,,,,,,,,61027e7e28245b6b5cab5e60,61036d616fe90b4772fc1a9b,2021-07-30_05h09.59.128,Simcolourproject_2stim_asymm_v5,2020.2.10,Win32,60,61025ae37ef11b136ea224fe,,,,,,,,,2798,-71,-29,1,0,0,response5disk,,2,12,10,1,0,0,rectangle,12,10,1,0,0,12,10,1,0,0,0,2,2,108,1,,,,,,,,
,,,,,,,,,,,,,FF,,,,,,,,2.4004,,,,,,,,,,,,,,,,,,,,,,61027e7e28245b6b5cab5e60,61036d616fe90b4772fc1a9b,2021-07-30_05h09.59.128,Simcolourproject_2stim_asymm_v5,2020.2.10,Win32,60,61025ae37ef11b136ea224fe,,,,,,,,,172,-41,-70,1,0,0,response5disk,,3,15,-4,1,0,0,rectangle,15,-4,1,0,0,15,-4,1,0,0,0,3,3,21,1,,,,,,,,
,,,,,,,,,,,,,FF,,,,,,,,2.8178,,,,,,,,,,,,,,,,,,,,,,61027e7e28245b6b5cab5e60,61036d616fe90b4772fc1a9b,2021-07-30_05h09.59.128,Simcolourproject_2stim_asymm_v5,2020.2.10,Win32,60,61025ae37ef11b136ea224fe,,,,,,,,,3470,77,46,1,0,0,response1disk,,6,22,-5,1,0,0,rectangle,22,-5,1,0,0,22,-5,1,0,0,0,4,4,99,1,,,,,,,,
,,,,,,,,,,,,,FF,,,,,,,,3.5009,,,,,,,,,,,,,,,,,,,,,,61027e7e28245b6b5cab5e60,61036d616fe90b4772fc1a9b,2021-07-30_05h09.59.128,Simcolourproject_2stim_asymm_v5,2020.2.10,Win32,60,61025ae37ef11b136ea224fe,,,,,,,,,3539,-100,-53,1,0,0,response5disk,,2,0,11,1,0,0,rectangle,-48,43,1,0,0,0,-2,1,0,0,0,5,5,37,1,,response7disk_3,TRUE,1,1,"[303,156,138,291,27,6,159,246,262,299,162,148,216,125,227,265,30,84,13,302]",2.2868,rectangle
,,,,,,,,,,,,,FF,,,,,,,,1.6668,,,,,,,,,,,,,,,,,,,,,,61027e7e28245b6b5cab5e60,61036d616fe90b4772fc1a9b,2021-07-30_05h09.59.128,Simcolourproject_2stim_asymm_v5,2020.2.10,Win32,60,61025ae37ef11b136ea224fe,,,,,,,,,1611,81,57,1,0,0,response1disk,,6,3,-12,1,0,0,rectangle,3,-12,1,0,0,3,-12,1,0,0,0,6,6,35,1,,,,,,,,
,,,,,,,,,,,,,FF,,,,,,,,1.3496,,,,,,,,,,,,,,,,,,,,,,61027e7e28245b6b5cab5e60,61036d616fe90b4772fc1a9b,2021-07-30_05h09.59.128,Simcolourproject_2stim_asymm_v5,2020.2.10,Win32,60,61025ae37ef11b136ea224fe,,,,,,,,,585,-40,51,1,0,0,response7disk,,0,-27,-4,1,0,0,rectangle,-27,-4,1,0,0,-27,-4,1,0,0,0,7,7,10,1,,,,,,,,
,,,,,,,,,,,,,FF,,,,,,,,1.5506,,,,,,,,,,,,,,,,,,,,,,61027e7e28245b6b5cab5e60,61036d616fe90b4772fc1a9b,2021-07-30_05h09.59.128,Simcolourproject_2stim_asymm_v5,2020.2.10,Win32,60,61025ae37ef11b136ea224fe,,,,,,,,,2363,70,58,1,0,0,response1disk,,6,-9,4,1,0,0,rectangle,-9,4,1,0,0,-9,4,1,0,0,0,8,8,8,1,,,,,,,,
,,,,,,,,,,,,,FF,,,,,,,,2.0161,,,,,,,,,,,,,,,,,,,,,,61027e7e28245b6b5cab5e60,61036d616fe90b4772fc1a9b,2021-07-30_05h09.59.128,Simcolourproject_2stim_asymm_v5,2020.2.10,Win32,60,61025ae37ef11b136ea224fe,,,,,,,,,3689,-63,-34,1,0,0,response5disk,,2,0,11,1,0,0,rectangle,0,11,1,0,0,0,11,1,0,0,0,9,9,56,1,,,,,,,,
,,,,,,,,,,,,,FF,,,,,,,,1.1004,,,,,,,,,,,,,,,,,,,,,,61027e7e28245b6b5cab5e60,61036d616fe90b4772fc1a9b,2021-07-30_05h09.59.128,Simcolourproject_2stim_asymm_v5,2020.2.10,Win32,60,61025ae37ef11b136ea224fe,,,,,,,,,199,-64,-31,1,0,0,response5disk,,2,-13,0,1,0,0,rectangle,-13,0,1,0,0,-13,0,1,0,0,0,10,10,64,1,,,,,,,,
,,,,,,,,,,,,,FF,,,,,,,,1.1495,,,,,,,,,,,,,,,,,,,,,,61027e7e28245b6b5cab5e60,61036d616fe90b4772fc1a9b,2021-07-30_05h09.59.128,Simcolourproject_2stim_asymm_v5,2020.2.10,Win32,60,61025ae37ef11b136ea224fe,,,,,,,,,3413,-62,-30,1,0,0,response5disk,,2,-15,11,1,0,0,rectangle,-15,11,1,0,0,-15,11,1,0,0,0,11,11,81,1,,,,,,,,
,,,,,,,,,,,,,FF,,,,,,,,0.8692,,,,,,,,,,,,,,,,,,,,,,61027e7e28245b6b5cab5e60,61036d616fe90b4772fc1a9b,2021-07-30_05h09.59.128,Simcolourproject_2stim_asymm_v5,2020.2.10,Win32,60,61025ae37ef11b136ea224fe,,,,,,,,,3561,-60,33,1,0,0,response7disk,,1,-11,0,1,0,0,rectangle,66,27,1,0,0,13,3,1,0,0,0,12,12,67,1,,response1disk_3,TRUE,6,6,"[303,156,138,291,27,6,159,246,262,299,162,148,216,125,227,265,30,84,13,302]",2.6163,rectangle
,,,,,,,,,,,,,FF,,,,,,,,1.6513,,,,,,,,,,,,,,,,,,,,,,61027e7e28245b6b5cab5e60,61036d616fe90b4772fc1a9b,2021-07-30_05h09.59.128,Simcolourproject_2stim_asymm_v5,2020.2.10,Win32,60,61025ae37ef11b136ea224fe,,,,,,,,,255,60,-17,1,0,0,response3disk,,5,3,13,1,0,0,rectangle,3,13,1,0,0,3,13,1,0,0,0,13,13,135,1,,,,,,,,
,,,,,,,,,,,,,FF,,,,,,,,1.9652,,,,,,,,,,,,,,,,,,,,,,61027e7e28245b6b5cab5e60,61036d616fe90b4772fc1a9b,2021-07-30_05h09.59.128,Simcolourproject_2stim_asymm_v5,2020.2.10,Win32,60,61025ae37ef11b136ea224fe,,,,,,,,,3122,-66,-44,1,0,0,response5disk,,2,-3,-15,1,0,0,rectangle,-3,-15,1,0,0,-3,-15,1,0,0,0,14,14,129,1,,,,,,,,
,,,,,,,,,,,,,FF,,,,,,,,1.6843,,,,,,,,,,,,,,,,,,,,,,61027e7e28245b6b5cab5e60,61036d616fe90b4772fc1a9b,2021-07-30_05h09.59.128,Simcolourproject_2stim_asymm_v5,2020.2.10,Win32,60,61025ae37ef11b136ea224fe,,,,,,,,,4072,-62,-24,1,0,0,response5disk,,2,-3,0,1,0,0,rectangle,-3,0,1,0,0,-3,0,1,0,0,0,15,15,70,1,,,,,,,,
,,,,,,,,,,,,,FF,,,,,,,,1.3675,,,,,,,,,,,,,,,,,,,,,,61027e7e28245b6b5cab5e60,61036d616fe90b4772fc1a9b,2021-07-30_05h09.59.128,Simcolourproject_2stim_asymm_v5,2020.2.10,Win32,60,61025ae37ef11b136ea224fe,,,,,,,,,3773,-96,31,1,0,0,response7disk,,1,-8,15,1,0,0,rectangle,-8,15,1,0,0,-8,15,1,0,0,0,16,16,150,1,,,,,,,,
,,,,,,,,,,,,,FF,,,,,,,,0.8199,,,,,,,,,,,,,,,,,,,,,,61027e7e28245b6b5cab5e60,61036d616fe90b4772fc1a9b,2021-07-30_05h09.59.128,Simcolourproject_2stim_asymm_v5,2020.2.10,Win32,60,61025ae37ef11b136ea224fe,,,,,,,,,1106,-29,46,1,0,0,response7disk,,0,-6,3,1,0,0,rectangle,-6,3,1,0,0,-6,3,1,0,0,0,17,17,98,1,,,,,,,,
,,,,,,,,,,,,,FF,,,,,,,,0.6838,,,,,,,,,,,,,,,,,,,,,,61027e7e28245b6b5cab5e60,61036d616fe90b4772fc1a9b,2021-07-30_05h09.59.128,Simcolourproject_2stim_asymm_v5,2020.2.10,Win32,60,61025ae37ef11b136ea224fe,,,,,,,,,2063,-28,43,1,0,0,response7disk,,0,-9,3,1,0,0,rectangle,-9,3,1,0,0,-9,3,1,0,0,0,18,18,111,1,,,,,,,,
,,,,,,,,,,,,,FF,,,,,,,,0.7505,,,,,,,,,,,,,,,,,,,,,,61027e7e28245b6b5cab5e60,61036d616fe90b4772fc1a9b,2021-07-30_05h09.59.128,Simcolourproject_2stim_asymm_v5,2020.2.10,Win32,60,61025ae37ef11b136ea224fe,,,,,,,,,2492,-30,50,1,0,0,response7disk,,0,-8,1,1,0,0,rectangle,-8,1,1,0,0,-8,1,1,0,0,0,19,19,151,1,,,,,,,,
,,,,,,,,,,,,,FF,,,,,,,,0.634,,,,,,,,,,,,,,,,,,,,,,61027e7e28245b6b5cab5e60,61036d616fe90b4772fc1a9b,2021-07-30_05h09.59.128,Simcolourproject_2stim_asymm_v5,2020.2.10,Win32,60,61025ae37ef11b136ea224fe,,,,,,,,,3807,-32,69,1,0,0,response7disk,,0,-10,3,1,0,0,rectangle,-10,3,1,0,0,-10,3,1,0,0,0,20,20,55,1,,,,,,,,
,,,,,,,,,,,,,FF,,,,,,,,0.5645,,,,,,,,,,,,,,,,,,,,,,61027e7e28245b6b5cab5e60,61036d616fe90b4772fc1a9b,2021-07-30_05h09.59.128,Simcolourproject_2stim_asymm_v5,2020.2.10,Win32,60,61025ae37ef11b136ea224fe,,,,,,,,,2461,-45,48,1,0,0,response7disk,,0,-10,-3,1,0,0,rectangle,-10,-3,1,0,0,-10,-3,1,0,0,0,21,21,53,1,,,,,,,,
,,,,,,,,,,,,,FF,,,,,,,,0.5812,,,,,,,,,,,,,,,,,,,,,,61027e7e28245b6b5cab5e60,61036d616fe90b4772fc1a9b,2021-07-30_05h09.59.128,Simcolourproject_2stim_asymm_v5,2020.2.10,Win32,60,61025ae37ef11b136ea224fe,,,,,,,,,472,-31,68,1,0,0,response7disk,,0,-11,7,1,0,0,rectangle,-11,7,1,0,0,-11,7,1,0,0,0,22,22,33,1,,,,,,,,
,,,,,,,,,,,,,FF,,,,,,,,0.5832,,,,,,,,,,,,,,,,,,,,,,61027e7e28245b6b5cab5e60,61036d616fe90b4772fc1a9b,2021-07-30_05h09.59.128,Simcolourproject_2stim_asymm_v5,2020.2.10,Win32,60,61025ae37ef11b136ea224fe,,,,,,,,,2322,-36,59,1,0,0,response7disk,,0,-6,9,1,0,0,rectangle,-6,9,1,0,0,-6,9,1,0,0,0,23,23,41,1,,,,,,,,
,,,,,,,,,,,,,FF,,,,,,,,0.6671,,,,,,,,,,,,,,,,,,,,,,61027e7e28245b6b5cab5e60,61036d616fe90b4772fc1a9b,2021-07-30_05h09.59.128,Simcolourproject_2stim_asymm_v5,2020.2.10,Win32,60,61025ae37ef11b136ea224fe,,,,,,,,,712,-25,54,1,0,0,response7disk,,0,-10,7,1,0,0,rectangle,-10,7,1,0,0,-10,7,1,0,0,0,24,24,97,1,,,,,,,,
,,,,,,,,,,,,,FF,,,,,,,,0.6038,,,,,,,,,,,,,,,,,,,,,,61027e7e28245b6b5cab5e60,61036d616fe90b4772fc1a9b,2021-07-30_05h09.59.128,Simcolourproject_2stim_asymm_v5,2020.2.10,Win32,60,61025ae37ef11b136ea224fe,,,,,,,,,565,-36,54,1,0,0,response7disk,,0,1,-7,1,0,0,rectangle,1,-7,1,0,0,1,-7,1,0,0,0,25,25,105,1,,,,,,,,
,,,,,,,,,,,,,FF,,,,,,,,0.6521,,,,,,,,,,,,,,,,,,,,,,61027e7e28245b6b5cab5e60,61036d616fe90b4772fc1a9b,2021-07-30_05h09.59.128,Simcolourproject_2stim_asymm_v5,2020.2.10,Win32,60,61025ae37ef11b136ea224fe,,,,,,,,,3854,-32,52,1,0,0,response7disk,,0,-13,4,1,0,0,rectangle,28,-88,1,0,0,15,-3,1,0,0,0,26,26,122,1,,response3disk_3,TRUE,4,4,"[303,156,138,291,27,6,159,246,262,299,162,148,216,125,227,265,30,84,13,302]",2.2501,rectangle
,,,,,,,,,,,,,FF,,,,,,,,1.0372,,,,,,,,,,,,,,,,,,,,,,61027e7e28245b6b5cab5e60,61036d616fe90b4772fc1a9b,2021-07-30_05h09.59.128,Simcolourproject_2stim_asymm_v5,2020.2.10,Win32,60,61025ae37ef11b136ea224fe,,,,,,,,,2265,-41,75,1,0,0,response7disk,,0,-4,4,1,0,0,rectangle,-4,4,1,0,0,-4,4,1,0,0,0,27,27,91,1,,,,,,,,
,,,,,,,,,,,,,FF,,,,,,,,0.834,,,,,,,,,,,,,,,,,,,,,,61027e7e28245b6b5cab5e60,61036d616fe90b4772fc1a9b,2021-07-30_05h09.59.128,Simcolourproject_2stim_asymm_v5,2020.2.10,Win32,60,61025ae37ef11b136ea224fe,,,,,,,,,3280,-38,58,1,0,0,response7disk,,0,0,-14,1,0,0,rectangle,0,-14,1,0,0,0,-14,1,0,0,0,28,28,100,1,,,,,,,,
,,,,,,,,,,,,,FF,,,,,,,,0.6333,,,,,,,,,,,,,,,,,,,,,,61027e7e28245b6b5cab5e60,61036d616fe90b4772fc1a9b,2021-07-30_05h09.59.128,Simcolourproject_2stim_asymm_v5,2020.2.10,Win32,60,61025ae37ef11b136ea224fe,,,,,,,,,2391,-33,59,1,0,0,response7disk,,0,-9,5,1,0,0,rectangle,-66,-57,1,0,0,-5,-4,1,0,0,0,29,29,59,1,,response5disk_3,TRUE,2,2,"[303,156,138,291,27,6,159,246,262,299,162,148,216,125,227,265,30,84,13,302]",1.4673,rectangle
,,,,,,,,,,,,,FF,,,,,,,,2.1187,,,,,,,,,,,,,,,,,,,,,,61027e7e28245b6b5cab5e60,61036d616fe90b4772fc1a9b,2021-07-30_05h09.59.128,Simcolourproject_2stim_asymm_v5,2020.2.10,Win32,60,61025ae37ef11b136ea224fe,,,,,,,,,2666,-83,-29,1,0,0,response5disk,,2,-16,4,1,0,0,rectangle,-16,4,1,0,0,-16,4,1,0,0,0,30,30,107,1,,,,,,,,
,,,,,,,,,,,,,FF,,,,,,,,1.5859,,,,,,,,,,,,,,,,,,,,,,61027e7e28245b6b5cab5e60,61036d616fe90b4772fc1a9b,2021-07-30_05h09.59.128,Simcolourproject_2stim_asymm_v5,2020.2.10,Win32,60,61025ae37ef11b136ea224fe,,,,,,,,,3092,-64,-21,1,0,0,response5disk,,2,-8,-1,1,0,0,rectangle,-8,-1,1,0,0,-8,-1,1,0,0,0,31,31,71,1,,,,,,,,
,,,,,,,,,,,,,FF,,,,,,,,1.6005,,,,,,,,,,,,,,,,,,,,,,61027e7e28245b6b5cab5e60,61036d616fe90b4772fc1a9b,2021-07-30_05h09.59.128,Simcolourproject_2stim_asymm_v5,2020.2.10,Win32,60,61025ae37ef11b136ea224fe,,,,,,,,,2893,95,56,1,0,0,response1disk,,6,-2,8,1,0,0,rectangle,-2,8,1,0,0,-2,8,1,0,0,0,32,32,23,1,,,,,,,,
,,,,,,,,,,,,,FF,,,,,,,,1.7194,,,,,,,,,,,,,,,,,,,,,,61027e7e28245b6b5cab5e60,61036d616fe90b4772fc1a9b,2021-07-30_05h09.59.128,Simcolourproject_2stim_asymm_v5,2020.2.10,Win32,60,61025ae37ef11b136ea224fe,,,,,,,,,4031,-56,-86,1,0,0,response5disk,,3,-13,-8,1,0,0,rectangle,-13,-8,1,0,0,-13,-8,1,0,0,0,33,33,3,1,,,,,,,,
,,,,,,,,,,,,,FF,,,,,,,,1.348,,,,,,,,,,,,,,,,,,,,,,61027e7e28245b6b5cab5e60,61036d616fe90b4772fc1a9b,2021-07-30_05h09.59.128,Simcolourproject_2stim_asymm_v5,2020.2.10,Win32,60,61025ae37ef11b136ea224fe,,,,,,,,,3659,-38,81,1,0,0,response7disk,,0,-13,13,1,0,0,rectangle,-13,13,1,0,0,-13,13,1,0,0,0,34,34,31,1,,,,,,,,
,,,,,,,,,,,,,FF,,,,,,,,1.0009,,,,,,,,,,,,,,,,,,,,,,61027e7e28245b6b5cab5e60,61036d616fe90b4772fc1a9b,2021-07-30_05h09.59.128,Simcolourproject_2stim_asymm_v5,2020.2.10,Win32,60,61025ae37ef11b136ea224fe,,,,,,,,,2890,83,42,1,0,0,response1disk,,6,-15,8,1,0,0,rectangle,-15,8,1,0,0,-15,8,1,0,0,0,35,35,104,1,,,,,,,,
,,,,,,,,,,,,,FF,,,,,,,,0.967,,,,,,,,,,,,,,,,,,,,,,61027e7e28245b6b5cab5e60,61036d616fe90b4772fc1a9b,2021-07-30_05h09.59.128,Simcolourproject_2stim_asymm_v5,2020.2.10,Win32,60,61025ae37ef11b136ea224fe,,,,,,,,,3180,-27,66,1,0,0,response7disk,,0,-4,7,1,0,0,rectangle,-4,7,1,0,0,-4,7,1,0,0,0,36,36,134,1,,,,,,,,
,,,,,,,,,,,,,FF,,,,,,,,1.4674,,,,,,,,,,,,,,,,,,,,,,61027e7e28245b6b5cab5e60,61036d616fe90b4772fc1a9b,2021-07-30_05h09.59.128,Simcolourproject_2stim_asymm_v5,2020.2.10,Win32,60,61025ae37ef11b136ea224fe,,,,,,,,,577,-42,65,1,0,0,response7disk,,0,-17,-4,1,0,0,rectangle,-17,-4,1,0,0,-17,-4,1,0,0,0,37,37,140,1,,,,,,,,
,,,,,,,,,,,,,FF,,,,,,,,1.5978,,,,,,,,,,,,,,,,,,,,,,61027e7e28245b6b5cab5e60,61036d616fe90b4772fc1a9b,2021-07-30_05h09.59.128,Simcolourproject_2stim_asymm_v5,2020.2.10,Win32,60,61025ae37ef11b136ea224fe,,,,,,,,,101,-18,-94,1,0,0,response5disk,,3,5,-5,1,0,0,rectangle,5,-5,1,0,0,5,-5,1,0,0,0,38,38,60,1,,,,,,,,
,,,,,,,,,,,,,FF,,,,,,,,1.0658,,,,,,,,,,,,,,,,,,,,,,61027e7e28245b6b5cab5e60,61036d616fe90b4772fc1a9b,2021-07-30_05h09.59.128,Simcolourproject_2stim_asymm_v5,2020.2.10,Win32,60,61025ae37ef11b136ea224fe,,,,,,,,,3559,23,65,1,0,0,response1disk,,7,2,6,1,0,0,rectangle,2,6,1,0,0,2,6,1,0,0,0,39,39,12,1,,,,,,,,
,,,,,,,,,,,,,FF,,,,,,,,2.3338,,,,,,,,,,,,,,,,,,,,,,61027e7e28245b6b5cab5e60,61036d616fe90b4772fc1a9b,2021-07-30_05h09.59.128,Simcolourproject_2stim_asymm_v5,2020.2.10,Win32,60,61025ae37ef11b136ea224fe,,,,,,,,,2426,-51,-87,1,0,0,response5disk,,3,4,3,1,0,0,rectangle,4,3,1,0,0,4,3,1,0,0,0,40,40,27,1,,,,,,,,
,,,,,,,,,,,,,FF,,,,,,,,0.9667,,,,,,,,,,,,,,,,,,,,,,61027e7e28245b6b5cab5e60,61036d616fe90b4772fc1a9b,2021-07-30_05h09.59.128,Simcolourproject_2stim_asymm_v5,2020.2.10,Win32,60,61025ae37ef11b136ea224fe,,,,,,,,,3512,48,77,1,0,0,response1disk,,7,-4,7,1,0,0,rectangle,-4,7,1,0,0,-4,7,1,0,0,0,41,41,158,1,,,,,,,,
,,,,,,,,,,,,,FF,,,,,,,,5.0324,,,,,,,,,,,,,,,,,,,,,,61027e7e28245b6b5cab5e60,61036d616fe90b4772fc1a9b,2021-07-30_05h09.59.128,Simcolourproject_2stim_asymm_v5,2020.2.10,Win32,60,61025ae37ef11b136ea224fe,,,,,,,,,783,-62,24,1,0,0,response7disk,,1,7,9,1,0,0,rectangle,7,9,1,0,0,7,9,1,0,0,0,42,42,80,1,,,,,,,,
,,,,,,,,,,,,,FF,,,,,,,,1.0333,,,,,,,,,,,,,,,,,,,,,,61027e7e28245b6b5cab5e60,61036d616fe90b4772fc1a9b,2021-07-30_05h09.59.128,Simcolourproject_2stim_asymm_v5,2020.2.10,Win32,60,61025ae37ef11b136ea224fe,,,,,,,,,769,-63,35,1,0,0,response7disk,,1,-24,-4,1,0,0,rectangle,-24,-4,1,0,0,-24,-4,1,0,0,0,43,43,85,1,,,,,,,,
,,,,,,,,,,,,,FF,,,,,,,,1.5996,,,,,,,,,,,,,,,,,,,,,,61027e7e28245b6b5cab5e60,61036d616fe90b4772fc1a9b,2021-07-30_05h09.59.128,Simcolourproject_2stim_asymm_v5,2020.2.10,Win32,60,61025ae37ef11b136ea224fe,,,,,,,,,741,-68,-36,1,0,0,response5disk,,2,9,4,1,0,0,rectangle,9,4,1,0,0,9,4,1,0,0,0,44,44,28,1,,,,,,,,
,,,,,,,,,,,,,FF,,,,,,,,1.3511,,,,,,,,,,,,,,,,,,,,,,61027e7e28245b6b5cab5e60,61036d616fe90b4772fc1a9b,2021-07-30_05h09.59.128,Simcolourproject_2stim_asymm_v5,2020.2.10,Win32,60,61025ae37ef11b136ea224fe,,,,,,,,,3626,-67,26,1,0,0,response7disk,,1,-20,2,1,0,0,rectangle,-20,2,1,0,0,-20,2,1,0,0,0,45,45,89,1,,,,,,,,
,,,,,,,,,,,,,FF,,,,,,,,1.5167,,,,,,,,,,,,,,,,,,,,,,61027e7e28245b6b5cab5e60,61036d616fe90b4772fc1a9b,2021-07-30_05h09.59.128,Simcolourproject_2stim_asymm_v5,2020.2.10,Win32,60,61025ae37ef11b136ea224fe,,,,,,,,,1549,-51,-76,1,0,0,response5disk,,3,5,4,1,0,0,rectangle,5,4,1,0,0,5,4,1,0,0,0,46,46,92,1,,,,,,,,
,,,,,,,,,,,,,FF,,,,,,,,0.8664,,,,,,,,,,,,,,,,,,,,,,61027e7e28245b6b5cab5e60,61036d616fe90b4772fc1a9b,2021-07-30_05h09.59.128,Simcolourproject_2stim_asymm_v5,2020.2.10,Win32,60,61025ae37ef11b136ea224fe,,,,,,,,,2785,-57,-89,1,0,0,response5disk,,3,8,4,1,0,0,rectangle,8,4,1,0,0,8,4,1,0,0,0,47,47,112,1,,,,,,,,
,,,,,,,,,,,,,FF,,,,,,,,0.7834,,,,,,,,,,,,,,,,,,,,,,61027e7e28245b6b5cab5e60,61036d616fe90b4772fc1a9b,2021-07-30_05h09.59.128,Simcolourproject_2stim_asymm_v5,2020.2.10,Win32,60,61025ae37ef11b136ea224fe,,,,,,,,,1389,-28,-55,1,0,0,response5disk,,3,6,-1,1,0,0,rectangle,6,-1,1,0,0,6,-1,1,0,0,0,48,48,131,1,,,,,,,,
,,,,,,,,,,,,,FF,,,,,,,,1.8663,,,,,,,,,,,,,,,,,,,,,,61027e7e28245b6b5cab5e60,61036d616fe90b4772fc1a9b,2021-07-30_05h09.59.128,Simcolourproject_2stim_asymm_v5,2020.2.10,Win32,60,61025ae37ef11b136ea224fe,,,,,,,,,1141,-47,-38,1,0,0,response5disk,,2,-8,-7,1,0,0,rectangle,-8,-7,1,0,0,-8,-7,1,0,0,0,49,49,45,1,,,,,,,,
,,,,,,,,,,,,,FF,,,,,,,,0.9502,,,,,,,,,,,,,,,,,,,,,,61027e7e28245b6b5cab5e60,61036d616fe90b4772fc1a9b,2021-07-30_05h09.59.128,Simcolourproject_2stim_asymm_v5,2020.2.10,Win32,60,61025ae37ef11b136ea224fe,,,,,,,,,2146,-69,-47,1,0,0,response5disk,,2,-12,9,1,0,0,rectangle,-12,9,1,0,0,-12,9,1,0,0,0,50,50,148,1,,,,,,,,
,,,,,,,,,,,,,FF,,,,,,,,1.6005,,,,,,,,,,,,,,,,,,,,,,61027e7e28245b6b5cab5e60,61036d616fe90b4772fc1a9b,2021-07-30_05h09.59.128,Simcolourproject_2stim_asymm_v5,2020.2.10,Win32,60,61025ae37ef11b136ea224fe,,,,,,,,,2824,-81,-42,1,0,0,response5disk,,2,-18,-4,1,0,0,rectangle,-18,-4,1,0,0,-18,-4,1,0,0,0,51,51,58,1,,,,,,,,
,,,,,,,,,,,,,FF,,,,,,,,2.0824,,,,,,,,,,,,,,,,,,,,,,61027e7e28245b6b5cab5e60,61036d616fe90b4772fc1a9b,2021-07-30_05h09.59.128,Simcolourproject_2stim_asymm_v5,2020.2.10,Win32,60,61025ae37ef11b136ea224fe,,,,,,,,,3082,-43,64,1,0,0,response7disk,,0,-23,-7,1,0,0,rectangle,-23,-7,1,0,0,-23,-7,1,0,0,0,52,52,90,1,,,,,,,,
,,,,,,,,,,,,,FF,,,,,,,,0.8,,,,,,,,,,,,,,,,,,,,,,61027e7e28245b6b5cab5e60,61036d616fe90b4772fc1a9b,2021-07-30_05h09.59.128,Simcolourproject_2stim_asymm_v5,2020.2.10,Win32,60,61025ae37ef11b136ea224fe,,,,,,,,,2567,-30,57,1,0,0,response7disk,,0,-3,2,1,0,0,rectangle,-3,2,1,0,0,-3,2,1,0,0,0,53,53,102,1,,,,,,,,
,,,,,,,,,,,,,FF,,,,,,,,0.6834,,,,,,,,,,,,,,,,,,,,,,61027e7e28245b6b5cab5e60,61036d616fe90b4772fc1a9b,2021-07-30_05h09.59.128,Simcolourproject_2stim_asymm_v5,2020.2.10,Win32,60,61025ae37ef11b136ea224fe,,,,,,,,,2573,-32,39,1,0,0,response7disk,,0,-11,11,1,0,0,rectangle,-11,11,1,0,0,-11,11,1,0,0,0,54,54,62,1,,,,,,,,
,,,,,,,,,,,,,FF,,,,,,,,0.6331,,,,,,,,,,,,,,,,,,,,,,61027e7e28245b6b5cab5e60,61036d616fe90b4772fc1a9b,2021-07-30_05h09.59.128,Simcolourproject_2stim_asymm_v5,2020.2.10,Win32,60,61025ae37ef11b136ea224fe,,,,,,,,,747,-26,48,1,0,0,response7disk,,0,6,1,1,0,0,rectangle,6,1,1,0,0,6,1,1,0,0,0,55,55,69,1,,,,,,,,
,,,,,,,,,,,,,FF,,,,,,,,0.533,,,,,,,,,,,,,,,,,,,,,,61027e7e28245b6b5cab5e60,61036d616fe90b4772fc1a9b,2021-07-30_05h09.59.128,Simcolourproject_2stim_asymm_v5,2020.2.10,Win32,60,61025ae37ef11b136ea224fe,,,,,,,,,3834,-24,59,1,0,0,response7disk,,0,-13,15,1,0,0,rectangle,-13,15,1,0,0,-13,15,1,0,0,0,56,56,114,1,,,,,,,,
,,,,,,,,,,,,,FF,,,,,,,,0.867,,,,,,,,,,,,,,,,,,,,,,61027e7e28245b6b5cab5e60,61036d616fe90b4772fc1a9b,2021-07-30_05h09.59.128,Simcolourproject_2stim_asymm_v5,2020.2.10,Win32,60,61025ae37ef11b136ea224fe,,,,,,,,,3209,-37,61,1,0,0,response7disk,,0,-3,6,1,0,0,rectangle,-3,6,1,0,0,-3,6,1,0,0,0,57,57,124,1,,,,,,,,
,,,,,,,,,,,,,FF,,,,,,,,0.6172,,,,,,,,,,,,,,,,,,,,,,61027e7e28245b6b5cab5e60,61036d616fe90b4772fc1a9b,2021-07-30_05h09.59.128,Simcolourproject_2stim_asymm_v5,2020.2.10,Win32,60,61025ae37ef11b136ea224fe,,,,,,,,,395,-37,86,1,0,0,response7disk,,0,-12,-2,1,0,0,rectangle,-12,-2,1,0,0,-12,-2,1,0,0,0,58,58,48,1,,,,,,,,
,,,,,,,,,,,,,FF,,,,,,,,0.5332,,,,,,,,,,,,,,,,,,,,,,61027e7e28245b6b5cab5e60,61036d616fe90b4772fc1a9b,2021-07-30_05h09.59.128,Simcolourproject_2stim_asymm_v5,2020.2.10,Win32,60,61025ae37ef11b136ea224fe,,,,,,,,,3788,-34,65,1,0,0,response7disk,,0,-9,12,1,0,0,rectangle,-9,12,1,0,0,-9,12,1,0,0,0,59,59,79,1,,,,,,,,
,,,,,,,,,,,,,FF,,,,,,,,0.5668,,,,,,,,,,,,,,,,,,,,,,61027e7e28245b6b5cab5e60,61036d616fe90b4772fc1a9b,2021-07-30_05h09.59.128,Simcolourproject_2stim_asymm_v5,2020.2.10,Win32,60,61025ae37ef11b136ea224fe,,,,,,,,,1918,-22,51,1,0,0,response7disk,,0,-11,-8,1,0,0,rectangle,-11,-8,1,0,0,-11,-8,1,0,0,0,60,60,157,1,,,,,,,,
,,,,,,,,,,,,,FF,,,,,,,,1.3167,,,,,,,,,,,,,,,,,,,,,,61027e7e28245b6b5cab5e60,61036d616fe90b4772fc1a9b,2021-07-30_05h09.59.128,Simcolourproject_2stim_asymm_v5,2020.2.10,Win32,60,61025ae37ef11b136ea224fe,,,,,,,,,2162,-68,-31,1,0,0,response5disk,,2,-25,-13,1,0,0,rectangle,-25,-13,1,0,0,-25,-13,1,0,0,0,61,61,26,1,,,,,,,,
,,,,,,,,,,,,,FF,,,,,,,,1.1832,,,,,,,,,,,,,,,,,,,,,,61027e7e28245b6b5cab5e60,61036d616fe90b4772fc1a9b,2021-07-30_05h09.59.128,Simcolourproject_2stim_asymm_v5,2020.2.10,Win32,60,61025ae37ef11b136ea224fe,,,,,,,,,1136,-42,-17,1,0,0,response5disk,,2,1,0,1,0,0,rectangle,1,0,1,0,0,1,0,1,0,0,0,62,62,74,1,,,,,,,,
,,,,,,,,,,,,,FF,,,,,,,,0.9162,,,,,,,,,,,,,,,,,,,,,,61027e7e28245b6b5cab5e60,61036d616fe90b4772fc1a9b,2021-07-30_05h09.59.128,Simcolourproject_2stim_asymm_v5,2020.2.10,Win32,60,61025ae37ef11b136ea224fe,,,,,,,,,593,-40,102,1,0,0,response7disk,,0,-16,7,1,0,0,rectangle,-16,7,1,0,0,-16,7,1,0,0,0,63,63,68,1,,,,,,,,
,,,,,,,,,,,,,FF,,,,,,,,0.8,,,,,,,,,,,,,,,,,,,,,,61027e7e28245b6b5cab5e60,61036d616fe90b4772fc1a9b,2021-07-30_05h09.59.128,Simcolourproject_2stim_asymm_v5,2020.2.10,Win32,60,61025ae37ef11b136ea224fe,,,,,,,,,2445,-17,58,1,0,0,response7disk,,0,-9,2,1,0,0,rectangle,-9,2,1,0,0,-9,2,1,0,0,0,64,64,147,1,,,,,,,,
,,,,,,,,,,,,,FF,,,,,,,,0.9003,,,,,,,,,,,,,,,,,,,,,,61027e7e28245b6b5cab5e60,61036d616fe90b4772fc1a9b,2021-07-30_05h09.59.128,Simcolourproject_2stim_asymm_v5,2020.2.10,Win32,60,61025ae37ef11b136ea224fe,,,,,,,,,2732,-25,65,1,0,0,response7disk,,0,-16,10,1,0,0,rectangle,-16,10,1,0,0,-16,10,1,0,0,0,65,65,40,1,,,,,,,,
,,,,,,,,,,,,,FF,,,,,,,,1.1338,,,,,,,,,,,,,,,,,,,,,,61027e7e28245b6b5cab5e60,61036d616fe90b4772fc1a9b,2021-07-30_05h09.59.128,Simcolourproject_2stim_asymm_v5,2020.2.10,Win32,60,61025ae37ef11b136ea224fe,,,,,,,,,2768,-26,48,1,0,0,response7disk,,0,-22,2,1,0,0,rectangle,-22,2,1,0,0,-22,2,1,0,0,0,66,66,29,1,,,,,,,,
,,,,,,,,,,,,,FF,,,,,,,,1.3832,,,,,,,,,,,,,,,,,,,,,,61027e7e28245b6b5cab5e60,61036d616fe90b4772fc1a9b,2021-07-30_05h09.59.128,Simcolourproject_2stim_asymm_v5,2020.2.10,Win32,60,61025ae37ef11b136ea224fe,,,,,,,,,3517,50,81,1,0,0,response1disk,,7,7,15,1,0,0,rectangle,7,15,1,0,0,7,15,1,0,0,0,67,67,136,1,,,,,,,,
,,,,,,,,,,,,,FF,,,,,,,,0.6831,,,,,,,,,,,,,,,,,,,,,,61027e7e28245b6b5cab5e60,61036d616fe90b4772fc1a9b,2021-07-30_05h09.59.128,Simcolourproject_2stim_asymm_v5,2020.2.10,Win32,60,61025ae37ef11b136ea224fe,,,,,,,,,3432,38,68,1,0,0,response1disk,,7,13,-8,1,0,0,rectangle,13,-8,1,0,0,13,-8,1,0,0,0,68,68,4,1,,,,,,,,
,,,,,,,,,,,,,FF,,,,,,,,1.6002,,,,,,,,,,,,,,,,,,,,,,61027e7e28245b6b5cab5e60,61036d616fe90b4772fc1a9b,2021-07-30_05h09.59.128,Simcolourproject_2stim_asymm_v5,2020.2.10,Win32,60,61025ae37ef11b136ea224fe,,,,,,,,,1458,86,-25,1,0,0,response3disk,,5,11,13,1,0,0,rectangle,11,13,1,0,0,11,13,1,0,0,0,69,69,14,1,,,,,,,,
,,,,,,,,,,,,,FF,,,,,,,,1.2169,,,,,,,,,,,,,,,,,,,,,,61027e7e28245b6b5cab5e60,61036d616fe90b4772fc1a9b,2021-07-30_05h09.59.128,Simcolourproject_2stim_asymm_v5,2020.2.10,Win32,60,61025ae37ef11b136ea224fe,,,,,,,,,1407,-36,78,1,0,0,response7disk,,0,-12,9,1,0,0,rectangle,-12,9,1,0,0,-12,9,1,0,0,0,70,70,109,1,,,,,,,,
,,,,,,,,,,,,,FF,,,,,,,,1.3004,,,,,,,,,,,,,,,,,,,,,,61027e7e28245b6b5cab5e60,61036d616fe90b4772fc1a9b,2021-07-30_05h09.59.128,Simcolourproject_2stim_asymm_v5,2020.2.10,Win32,60,61025ae37ef11b136ea224fe,,,,,,,,,766,-33,55,1,0,0,response7disk,,0,-15,-1,1,0,0,rectangle,-15,-1,1,0,0,-15,-1,1,0,0,0,71,71,142,1,,,,,,,,
,,,,,,,,,,,,,FF,,,,,,,,2.0668,,,,,,,,,,,,,,,,,,,,,,61027e7e28245b6b5cab5e60,61036d616fe90b4772fc1a9b,2021-07-30_05h09.59.128,Simcolourproject_2stim_asymm_v5,2020.2.10,Win32,60,61025ae37ef11b136ea224fe,,,,,,,,,2985,-27,-33,1,0,0,response5disk,,3,-14,1,1,0,0,rectangle,-14,1,1,0,0,-14,1,1,0,0,0,72,72,17,1,,,,,,,,
,,,,,,,,,,,,,FF,,,,,,,,0.8829,,,,,,,,,,,,,,,,,,,,,,61027e7e28245b6b5cab5e60,61036d616fe90b4772fc1a9b,2021-07-30_05h09.59.128,Simcolourproject_2stim_asymm_v5,2020.2.10,Win32,60,61025ae37ef11b136ea224fe,,,,,,,,,3879,-20,84,1,0,0,response7disk,,0,4,9,1,0,0,rectangle,4,9,1,0,0,4,9,1,0,0,0,73,73,137,1,,,,,,,,
,,,,,,,,,,,,,FF,,,,,,,,0.6832,,,,,,,,,,,,,,,,,,,,,,61027e7e28245b6b5cab5e60,61036d616fe90b4772fc1a9b,2021-07-30_05h09.59.128,Simcolourproject_2stim_asymm_v5,2020.2.10,Win32,60,61025ae37ef11b136ea224fe,,,,,,,,,111,-29,66,1,0,0,response7disk,,0,-22,4,1,0,0,rectangle,-22,4,1,0,0,-22,4,1,0,0,0,74,74,72,1,,,,,,,,
,,,,,,,,,,,,,FF,,,,,,,,0.6338,,,,,,,,,,,,,,,,,,,,,,61027e7e28245b6b5cab5e60,61036d616fe90b4772fc1a9b,2021-07-30_05h09.59.128,Simcolourproject_2stim_asymm_v5,2020.2.10,Win32,60,61025ae37ef11b136ea224fe,,,,,,,,,2687,-22,49,1,0,0,response7disk,,0,-6,0,1,0,0,rectangle,-6,0,1,0,0,-6,0,1,0,0,0,75,75,42,1,,,,,,,,
,,,,,,,,,,,,,FF,,,,,,,,0.5996,,,,,,,,,,,,,,,,,,,,,,61027e7e28245b6b5cab5e60,61036d616fe90b4772fc1a9b,2021-07-30_05h09.59.128,Simcolourproject_2stim_asymm_v5,2020.2.10,Win32,60,61025ae37ef11b136ea224fe,,,,,,,,,3380,-20,49,1,0,0,response7disk,,0,-10,-2,1,0,0,rectangle,-10,-2,1,0,0,-10,-2,1,0,0,0,76,76,138,1,,,,,,,,
,,,,,,,,,,,,,FF,,,,,,,,0.5835,,,,,,,,,,,,,,,,,,,,,,61027e7e28245b6b5cab5e60,61036d616fe90b4772fc1a9b,2021-07-30_05h09.59.128,Simcolourproject_2stim_asymm_v5,2020.2.10,Win32,60,61025ae37ef11b136ea224fe,,,,,,,,,433,-37,52,1,0,0,response7disk,,0,-18,7,1,0,0,rectangle,-18,7,1,0,0,-18,7,1,0,0,0,77,77,110,1,,,,,,,,
,,,,,,,,,,,,,FF,,,,,,,,0.5499,,,,,,,,,,,,,,,,,,,,,,61027e7e28245b6b5cab5e60,61036d616fe90b4772fc1a9b,2021-07-30_05h09.59.128,Simcolourproject_2stim_asymm_v5,2020.2.10,Win32,60,61025ae37ef11b136ea224fe,,,,,,,,,3722,-20,45,1,0,0,response7disk,,0,-16,-3,1,0,0,rectangle,-16,-3,1,0,0,-16,-3,1,0,0,0,78,78,96,1,,,,,,,,
,,,,,,,,,,,,,FF,,,,,,,,0.7499,,,,,,,,,,,,,,,,,,,,,,61027e7e28245b6b5cab5e60,61036d616fe90b4772fc1a9b,2021-07-30_05h09.59.128,Simcolourproject_2stim_asymm_v5,2020.2.10,Win32,60,61025ae37ef11b136ea224fe,,,,,,,,,1080,-26,47,1,0,0,response7disk,,0,-11,8,1,0,0,rectangle,-11,8,1,0,0,-11,8,1,0,0,0,79,79,128,1,,,,,,,,
,,,,,,,,,,,,,FF,,,,,,,,1.8172,,,,,,,,,,,,,,,,,,,,,,61027e7e28245b6b5cab5e60,61036d616fe90b4772fc1a9b,2021-07-30_05h09.59.128,Simcolourproject_2stim_asymm_v5,2020.2.10,Win32,60,61025ae37ef11b136ea224fe,,,,,,,,,3913,99,-22,1,0,0,response3disk,,5,15,15,1,0,0,rectangle,15,15,1,0,0,15,15,1,0,0,0,80,80,113,1,,,,,,,,
,,,,,,,,,,,,,FF,,,,,,,,0.8334,,,,,,,,,,,,,,,,,,,,,,61027e7e28245b6b5cab5e60,61036d616fe90b4772fc1a9b,2021-07-30_05h09.59.128,Simcolourproject_2stim_asymm_v5,2020.2.10,Win32,60,61025ae37ef11b136ea224fe,,,,,,,,,3481,-41,66,1,0,0,response7disk,,0,-7,0,1,0,0,rectangle,-7,0,1,0,0,-7,0,1,0,0,0,81,81,87,1,,,,,,,,
,,,,,,,,,,,,,FF,,,,,,,,1.0173,,,,,,,,,,,,,,,,,,,,,,61027e7e28245b6b5cab5e60,61036d616fe90b4772fc1a9b,2021-07-30_05h09.59.128,Simcolourproject_2stim_asymm_v5,2020.2.10,Win32,60,61025ae37ef11b136ea224fe,,,,,,,,,2750,-33,76,1,0,0,response7disk,,0,-13,8,1,0,0,rectangle,-13,8,1,0,0,-13,8,1,0,0,0,82,82,82,1,,,,,,,,
,,,,,,,,,,,,,FF,,,,,,,,3.516,,,,,,,,,,,,,,,,,,,,,,61027e7e28245b6b5cab5e60,61036d616fe90b4772fc1a9b,2021-07-30_05h09.59.128,Simcolourproject_2stim_asymm_v5,2020.2.10,Win32,60,61025ae37ef11b136ea224fe,,,,,,,,,3277,-38,92,1,0,0,response7disk,,0,-7,12,1,0,0,rectangle,116,-78,1,0,0,-12,4,1,0,0,0,83,83,7,1,,response3disk_3,TRUE,5,5,"[303,156,138,291,27,6,159,246,262,299,162,148,216,125,227,265,30,84,13,302]",2.5344,rectangle
,,,,,,,,,,,,,FF,,,,,,,,11.4217,,,,,,,,,,,,,,,,,,,,,,61027e7e28245b6b5cab5e60,61036d616fe90b4772fc1a9b,2021-07-30_05h09.59.128,Simcolourproject_2stim_asymm_v5,2020.2.10,Win32,60,61025ae37ef11b136ea224fe,,,,,,,,,1663,-47,52,1,0,0,response7disk,,0,-10,-5,1,0,0,rectangle,-10,-5,1,0,0,-10,-5,1,0,0,0,84,84,5,1,,,,,,,,
,,,,,,,,,,,,,FF,,,,,,,,1.2363,,,,,,,,,,,,,,,,,,,,,,61027e7e28245b6b5cab5e60,61036d616fe90b4772fc1a9b,2021-07-30_05h09.59.128,Simcolourproject_2stim_asymm_v5,2020.2.10,Win32,60,61025ae37ef11b136ea224fe,,,,,,,,,3447,-26,44,1,0,0,response7disk,,0,-16,8,1,0,0,rectangle,-16,8,1,0,0,-16,8,1,0,0,0,85,85,57,1,,,,,,,,
,,,,,,,,,,,,,FF,,,,,,,,0.5345,,,,,,,,,,,,,,,,,,,,,,61027e7e28245b6b5cab5e60,61036d616fe90b4772fc1a9b,2021-07-30_05h09.59.128,Simcolourproject_2stim_asymm_v5,2020.2.10,Win32,60,61025ae37ef11b136ea224fe,,,,,,,,,254,-15,36,1,0,0,response7disk,,0,-4,-1,1,0,0,rectangle,-4,-1,1,0,0,-4,-1,1,0,0,0,86,86,46,1,,,,,,,,
,,,,,,,,,,,,,FF,,,,,,,,0.6174,,,,,,,,,,,,,,,,,,,,,,61027e7e28245b6b5cab5e60,61036d616fe90b4772fc1a9b,2021-07-30_05h09.59.128,Simcolourproject_2stim_asymm_v5,2020.2.10,Win32,60,61025ae37ef11b136ea224fe,,,,,,,,,1127,-33,66,1,0,0,response7disk,,0,0,13,1,0,0,rectangle,0,13,1,0,0,0,13,1,0,0,0,87,87,11,1,,,,,,,,
,,,,,,,,,,,,,FF,,,,,,,,0.5487,,,,,,,,,,,,,,,,,,,,,,61027e7e28245b6b5cab5e60,61036d616fe90b4772fc1a9b,2021-07-30_05h09.59.128,Simcolourproject_2stim_asymm_v5,2020.2.10,Win32,60,61025ae37ef11b136ea224fe,,,,,,,,,2011,-32,51,1,0,0,response7disk,,0,-14,14,1,0,0,rectangle,-14,14,1,0,0,-14,14,1,0,0,0,88,88,95,1,,,,,,,,
,,,,,,,,,,,,,FF,,,,,,,,2.7814,,,,,,,,,,,,,,,,,,,,,,61027e7e28245b6b5cab5e60,61036d616fe90b4772fc1a9b,2021-07-30_05h09.59.128,Simcolourproject_2stim_asymm_v5,2020.2.10,Win32,60,61025ae37ef11b136ea224fe,,,,,,,,,1689,-89,40,1,0,0,response7disk,,1,-10,7,1,0,0,rectangle,-10,7,1,0,0,-10,7,1,0,0,0,89,89,75,1,,,,,,,,
,,,,,,,,,,,,,FF,,,,,,,,1.1648,,,,,,,,,,,,,,,,,,,,,,61027e7e28245b6b5cab5e60,61036d616fe90b4772fc1a9b,2021-07-30_05h09.59.128,Simcolourproject_2stim_asymm_v5,2020.2.10,Win32,60,61025ae37ef11b136ea224fe,,,,,,,,,637,-65,23,1,0,0,response7disk,,1,-23,-6,1,0,0,rectangle,-23,-6,1,0,0,-23,-6,1,0,0,0,90,90,154,1,,,,,,,,
,,,,,,,,,,,,,FF,,,,,,,,0.6196,,,,,,,,,,,,,,,,,,,,,,61027e7e28245b6b5cab5e60,61036d616fe90b4772fc1a9b,2021-07-30_05h09.59.128,Simcolourproject_2stim_asymm_v5,2020.2.10,Win32,60,61025ae37ef11b136ea224fe,,,,,,,,,2510,-28,48,1,0,0,response7disk,,0,12,3,1,0,0,rectangle,12,3,1,0,0,12,3,1,0,0,0,91,91,0,1,,,,,,,,
,,,,,,,,,,,,,FF,,,,,,,,0.5841,,,,,,,,,,,,,,,,,,,,,,61027e7e28245b6b5cab5e60,61036d616fe90b4772fc1a9b,2021-07-30_05h09.59.128,Simcolourproject_2stim_asymm_v5,2020.2.10,Win32,60,61025ae37ef11b136ea224fe,,,,,,,,,734,-36,63,1,0,0,response7disk,,0,-19,9,1,0,0,rectangle,-19,9,1,0,0,-19,9,1,0,0,0,92,92,78,1,,,,,,,,
,,,,,,,,,,,,,FF,,,,,,,,0.6675,,,,,,,,,,,,,,,,,,,,,,61027e7e28245b6b5cab5e60,61036d616fe90b4772fc1a9b,2021-07-30_05h09.59.128,Simcolourproject_2stim_asymm_v5,2020.2.10,Win32,60,61025ae37ef11b136ea224fe,,,,,,,,,3508,-26,62,1,0,0,response7disk,,0,-8,-2,1,0,0,rectangle,-8,-2,1,0,0,-8,-2,1,0,0,0,93,93,152,1,,,,,,,,
,,,,,,,,,,,,,FF,,,,,,,,0.7035,,,,,,,,,,,,,,,,,,,,,,61027e7e28245b6b5cab5e60,61036d616fe90b4772fc1a9b,2021-07-30_05h09.59.128,Simcolourproject_2stim_asymm_v5,2020.2.10,Win32,60,61025ae37ef11b136ea224fe,,,,,,,,,2268,-22,34,1,0,0,response7disk,,0,-17,-2,1,0,0,rectangle,-17,-2,1,0,0,-17,-2,1,0,0,0,94,94,83,1,,,,,,,,
,,,,,,,,,,,,,FF,,,,,,,,1.1688,,,,,,,,,,,,,,,,,,,,,,61027e7e28245b6b5cab5e60,61036d616fe90b4772fc1a9b,2021-07-30_05h09.59.128,Simcolourproject_2stim_asymm_v5,2020.2.10,Win32,60,61025ae37ef11b136ea224fe,,,,,,,,,3771,-33,50,1,0,0,response7disk,,0,-12,10,1,0,0,rectangle,-12,10,1,0,0,-12,10,1,0,0,0,95,95,125,1,,,,,,,,
,,,,,,,,,,,,,FF,,,,,,,,0.715,,,,,,,,,,,,,,,,,,,,,,61027e7e28245b6b5cab5e60,61036d616fe90b4772fc1a9b,2021-07-30_05h09.59.128,Simcolourproject_2stim_asymm_v5,2020.2.10,Win32,60,61025ae37ef11b136ea224fe,,,,,,,,,3276,-19,53,1,0,0,response7disk,,0,-16,-9,1,0,0,rectangle,-16,-9,1,0,0,-16,-9,1,0,0,0,96,96,86,1,,,,,,,,
,,,,,,,,,,,,,FF,,,,,,,,0.5026,,,,,,,,,,,,,,,,,,,,,,61027e7e28245b6b5cab5e60,61036d616fe90b4772fc1a9b,2021-07-30_05h09.59.128,Simcolourproject_2stim_asymm_v5,2020.2.10,Win32,60,61025ae37ef11b136ea224fe,,,,,,,,,3530,-35,63,1,0,0,response7disk,,0,-22,14,1,0,0,rectangle,-22,14,1,0,0,-22,14,1,0,0,0,97,97,66,1,,,,,,,,
,,,,,,,,,,,,,FF,,,,,,,,0.534,,,,,,,,,,,,,,,,,,,,,,61027e7e28245b6b5cab5e60,61036d616fe90b4772fc1a9b,2021-07-30_05h09.59.128,Simcolourproject_2stim_asymm_v5,2020.2.10,Win32,60,61025ae37ef11b136ea224fe,,,,,,,,,870,-26,55,1,0,0,response7disk,,0,-20,-2,1,0,0,rectangle,-20,-2,1,0,0,-20,-2,1,0,0,0,98,98,22,1,,,,,,,,
,,,,,,,,,,,,,FF,,,,,,,,0.753,,,,,,,,,,,,,,,,,,,,,,61027e7e28245b6b5cab5e60,61036d616fe90b4772fc1a9b,2021-07-30_05h09.59.128,Simcolourproject_2stim_asymm_v5,2020.2.10,Win32,60,61025ae37ef11b136ea224fe,,,,,,,,,1483,-33,57,1,0,0,response7disk,,0,-14,-7,1,0,0,rectangle,-14,-7,1,0,0,-14,-7,1,0,0,0,99,99,133,1,,,,,,,,
,,,,,,,,,,,,,FF,,,,,,,,1.3525,,,,,,,,,,,,,,,,,,,,,,61027e7e28245b6b5cab5e60,61036d616fe90b4772fc1a9b,2021-07-30_05h09.59.128,Simcolourproject_2stim_asymm_v5,2020.2.10,Win32,60,61025ae37ef11b136ea224fe,,,,,,,,,2091,-36,70,1,0,0,response7disk,,0,-10,1,1,0,0,rectangle,-10,1,1,0,0,-10,1,1,0,0,0,100,100,6,1,,,,,,,,
,,,,,,,,,,,,,FF,,,,,,,,0.6001,,,,,,,,,,,,,,,,,,,,,,61027e7e28245b6b5cab5e60,61036d616fe90b4772fc1a9b,2021-07-30_05h09.59.128,Simcolourproject_2stim_asymm_v5,2020.2.10,Win32,60,61025ae37ef11b136ea224fe,,,,,,,,,2673,-15,73,1,0,0,response7disk,,0,-15,-3,1,0,0,rectangle,-15,-3,1,0,0,-15,-3,1,0,0,0,101,101,101,1,,,,,,,,
,,,,,,,,,,,,,FF,,,,,,,,0.7022,,,,,,,,,,,,,,,,,,,,,,61027e7e28245b6b5cab5e60,61036d616fe90b4772fc1a9b,2021-07-30_05h09.59.128,Simcolourproject_2stim_asymm_v5,2020.2.10,Win32,60,61025ae37ef11b136ea224fe,,,,,,,,,1927,-31,54,1,0,0,response7disk,,0,-4,10,1,0,0,rectangle,-4,10,1,0,0,-4,10,1,0,0,0,102,102,121,1,,,,,,,,
,,,,,,,,,,,,,FF,,,,,,,,0.6687,,,,,,,,,,,,,,,,,,,,,,61027e7e28245b6b5cab5e60,61036d616fe90b4772fc1a9b,2021-07-30_05h09.59.128,Simcolourproject_2stim_asymm_v5,2020.2.10,Win32,60,61025ae37ef11b136ea224fe,,,,,,,,,1262,-31,64,1,0,0,response7disk,,0,-20,-6,1,0,0,rectangle,-20,-6,1,0,0,-20,-6,1,0,0,0,103,103,50,1,,,,,,,,
,,,,,,,,,,,,,FF,,,,,,,,0.6374,,,,,,,,,,,,,,,,,,,,,,61027e7e28245b6b5cab5e60,61036d616fe90b4772fc1a9b,2021-07-30_05h09.59.128,Simcolourproject_2stim_asymm_v5,2020.2.10,Win32,60,61025ae37ef11b136ea224fe,,,,,,,,,2856,-28,66,1,0,0,response7disk,,0,-20,8,1,0,0,rectangle,-20,8,1,0,0,-20,8,1,0,0,0,104,104,106,1,,,,,,,,
,,,,,,,,,,,,,FF,,,,,,,,0.6043,,,,,,,,,,,,,,,,,,,,,,61027e7e28245b6b5cab5e60,61036d616fe90b4772fc1a9b,2021-07-30_05h09.59.128,Simcolourproject_2stim_asymm_v5,2020.2.10,Win32,60,61025ae37ef11b136ea224fe,,,,,,,,,2976,-29,63,1,0,0,response7disk,,0,-4,-2,1,0,0,rectangle,-4,-2,1,0,0,-4,-2,1,0,0,0,105,105,156,1,,,,,,,,
,,,,,,,,,,,,,FF,,,,,,,,0.6319,,,,,,,,,,,,,,,,,,,,,,61027e7e28245b6b5cab5e60,61036d616fe90b4772fc1a9b,2021-07-30_05h09.59.128,Simcolourproject_2stim_asymm_v5,2020.2.10,Win32,60,61025ae37ef11b136ea224fe,,,,,,,,,424,-40,56,1,0,0,response7disk,,0,-14,-13,1,0,0,rectangle,-14,-13,1,0,0,-14,-13,1,0,0,0,106,106,13,1,,,,,,,,
,,,,,,,,,,,,,FF,,,,,,,,0.8345,,,,,,,,,,,,,,,,,,,,,,61027e7e28245b6b5cab5e60,61036d616fe90b4772fc1a9b,2021-07-30_05h09.59.128,Simcolourproject_2stim_asymm_v5,2020.2.10,Win32,60,61025ae37ef11b136ea224fe,,,,,,,,,1777,-23,61,1,0,0,response7disk,,0,-12,-2,1,0,0,rectangle,-12,-2,1,0,0,-12,-2,1,0,0,0,107,107,32,1,,,,,,,,
,,,,,,,,,,,,,FF,,,,,,,,0.9972,,,,,,,,,,,,,,,,,,,,,,61027e7e28245b6b5cab5e60,61036d616fe90b4772fc1a9b,2021-07-30_05h09.59.128,Simcolourproject_2stim_asymm_v5,2020.2.10,Win32,60,61025ae37ef11b136ea224fe,,,,,,,,,1537,-49,-29,1,0,0,response5disk,,2,-8,-12,1,0,0,rectangle,-8,-12,1,0,0,-8,-12,1,0,0,0,108,108,143,1,,,,,,,,
,,,,,,,,,,,,,FF,,,,,,,,0.9515,,,,,,,,,,,,,,,,,,,,,,61027e7e28245b6b5cab5e60,61036d616fe90b4772fc1a9b,2021-07-30_05h09.59.128,Simcolourproject_2stim_asymm_v5,2020.2.10,Win32,60,61025ae37ef11b136ea224fe,,,,,,,,,2965,-36,74,1,0,0,response7disk,,0,0,2,1,0,0,rectangle,0,2,1,0,0,0,2,1,0,0,0,109,109,117,1,,,,,,,,
,,,,,,,,,,,,,FF,,,,,,,,0.7152,,,,,,,,,,,,,,,,,,,,,,61027e7e28245b6b5cab5e60,61036d616fe90b4772fc1a9b,2021-07-30_05h09.59.128,Simcolourproject_2stim_asymm_v5,2020.2.10,Win32,60,61025ae37ef11b136ea224fe,,,,,,,,,151,-38,54,1,0,0,response7disk,,0,-34,6,1,0,0,rectangle,-34,6,1,0,0,-34,6,1,0,0,0,110,110,24,1,,,,,,,,
,,,,,,,,,,,,,FF,,,,,,,,0.7825,,,,,,,,,,,,,,,,,,,,,,61027e7e28245b6b5cab5e60,61036d616fe90b4772fc1a9b,2021-07-30_05h09.59.128,Simcolourproject_2stim_asymm_v5,2020.2.10,Win32,60,61025ae37ef11b136ea224fe,,,,,,,,,486,-32,99,1,0,0,response7disk,,0,-12,1,1,0,0,rectangle,-12,1,1,0,0,-12,1,1,0,0,0,111,111,76,1,,,,,,,,
,,,,,,,,,,,,,FF,,,,,,,,2.3503,,,,,,,,,,,,,,,,,,,,,,61027e7e28245b6b5cab5e60,61036d616fe90b4772fc1a9b,2021-07-30_05h09.59.128,Simcolourproject_2stim_asymm_v5,2020.2.10,Win32,60,61025ae37ef11b136ea224fe,,,,,,,,,4358,-90,49,1,0,0,response7disk,,1,-14,-4,1,0,0,rectangle,-14,-4,1,0,0,-14,-4,1,0,0,0,112,112,115,1,,,,,,,,
,,,,,,,,,,,,,FF,,,,,,,,2.0169,,,,,,,,,,,,,,,,,,,,,,61027e7e28245b6b5cab5e60,61036d616fe90b4772fc1a9b,2021-07-30_05h09.59.128,Simcolourproject_2stim_asymm_v5,2020.2.10,Win32,60,61025ae37ef11b136ea224fe,,,,,,,,,4219,-31,65,1,0,0,response7disk,,0,-3,2,1,0,0,rectangle,-3,2,1,0,0,-3,2,1,0,0,0,113,113,47,1,,,,,,,,
,,,,,,,,,,,,,FF,,,,,,,,0.7006,,,,,,,,,,,,,,,,,,,,,,61027e7e28245b6b5cab5e60,61036d616fe90b4772fc1a9b,2021-07-30_05h09.59.128,Simcolourproject_2stim_asymm_v5,2020.2.10,Win32,60,61025ae37ef11b136ea224fe,,,,,,,,,946,-22,51,1,0,0,response7disk,,0,-11,6,1,0,0,rectangle,-11,6,1,0,0,-11,6,1,0,0,0,114,114,77,1,,,,,,,,
,,,,,,,,,,,,,FF,,,,,,,,0.6163,,,,,,,,,,,,,,,,,,,,,,61027e7e28245b6b5cab5e60,61036d616fe90b4772fc1a9b,2021-07-30_05h09.59.128,Simcolourproject_2stim_asymm_v5,2020.2.10,Win32,60,61025ae37ef11b136ea224fe,,,,,,,,,3497,-37,53,1,0,0,response7disk,,0,-11,-10,1,0,0,rectangle,-11,-10,1,0,0,-11,-10,1,0,0,0,115,115,9,1,,,,,,,,
,,,,,,,,,,,,,FF,,,,,,,,1.5993,,,,,,,,,,,,,,,,,,,,,,61027e7e28245b6b5cab5e60,61036d616fe90b4772fc1a9b,2021-07-30_05h09.59.128,Simcolourproject_2stim_asymm_v5,2020.2.10,Win32,60,61025ae37ef11b136ea224fe,,,,,,,,,4329,-66,44,1,0,0,response7disk,,1,-18,3,1,0,0,rectangle,-18,3,1,0,0,-18,3,1,0,0,0,116,116,149,1,,,,,,,,
,,,,,,,,,,,,,FF,,,,,,,,1.6505,,,,,,,,,,,,,,,,,,,,,,61027e7e28245b6b5cab5e60,61036d616fe90b4772fc1a9b,2021-07-30_05h09.59.128,Simcolourproject_2stim_asymm_v5,2020.2.10,Win32,60,61025ae37ef11b136ea224fe,,,,,,,,,1543,-58,46,1,0,0,response7disk,,1,-11,-4,1,0,0,rectangle,-11,-4,1,0,0,-11,-4,1,0,0,0,117,117,65,1,,,,,,,,
,,,,,,,,,,,,,FF,,,,,,,,0.9665,,,,,,,,,,,,,,,,,,,,,,61027e7e28245b6b5cab5e60,61036d616fe90b4772fc1a9b,2021-07-30_05h09.59.128,Simcolourproject_2stim_asymm_v5,2020.2.10,Win32,60,61025ae37ef11b136ea224fe,,,,,,,,,1020,-31,48,1,0,0,response7disk,,0,-16,15,1,0,0,rectangle,-16,15,1,0,0,-16,15,1,0,0,0,118,118,88,1,,,,,,,,
,,,,,,,,,,,,,FF,,,,,,,,0.9661,,,,,,,,,,,,,,,,,,,,,,61027e7e28245b6b5cab5e60,61036d616fe90b4772fc1a9b,2021-07-30_05h09.59.128,Simcolourproject_2stim_asymm_v5,2020.2.10,Win32,60,61025ae37ef11b136ea224fe,,,,,,,,,171,25,82,1,0,0,response1disk,,7,-3,-1,1,0,0,rectangle,-3,-1,1,0,0,-3,-1,1,0,0,0,119,119,19,1,,,,,,,,
,,,,,,,,,,,,,FF,,,,,,,,0.8494,,,,,,,,,,,,,,,,,,,,,,61027e7e28245b6b5cab5e60,61036d616fe90b4772fc1a9b,2021-07-30_05h09.59.128,Simcolourproject_2stim_asymm_v5,2020.2.10,Win32,60,61025ae37ef11b136ea224fe,,,,,,,,,290,-30,73,1,0,0,response7disk,,0,-22,12,1,0,0,rectangle,-22,12,1,0,0,-22,12,1,0,0,0,120,120,116,1,,,,,,,,
,,,,,,,,,,,,,FF,,,,,,,,1.4002,,,,,,,,,,,,,,,,,,,,,,61027e7e28245b6b5cab5e60,61036d616fe90b4772fc1a9b,2021-07-30_05h09.59.128,Simcolourproject_2stim_asymm_v5,2020.2.10,Win32,60,61025ae37ef11b136ea224fe,,,,,,,,,2244,-29,80,1,0,0,response7disk,,0,8,-10,1,0,0,rectangle,8,-10,1,0,0,8,-10,1,0,0,0,121,121,20,1,,,,,,,,
,,,,,,,,,,,,,FF,,,,,,,,1.3665,,,,,,,,,,,,,,,,,,,,,,61027e7e28245b6b5cab5e60,61036d616fe90b4772fc1a9b,2021-07-30_05h09.59.128,Simcolourproject_2stim_asymm_v5,2020.2.10,Win32,60,61025ae37ef11b136ea224fe,,,,,,,,,3103,-18,-68,1,0,0,response5disk,,3,5,1,1,0,0,rectangle,5,1,1,0,0,5,1,1,0,0,0,122,122,103,1,,,,,,,,
,,,,,,,,,,,,,FF,,,,,,,,1.1329,,,,,,,,,,,,,,,,,,,,,,61027e7e28245b6b5cab5e60,61036d616fe90b4772fc1a9b,2021-07-30_05h09.59.128,Simcolourproject_2stim_asymm_v5,2020.2.10,Win32,60,61025ae37ef11b136ea224fe,,,,,,,,,1753,54,58,1,0,0,response1disk,,7,9,-3,1,0,0,rectangle,9,-3,1,0,0,9,-3,1,0,0,0,123,123,155,1,,,,,,,,
,,,,,,,,,,,,,FF,,,,,,,,0.9673,,,,,,,,,,,,,,,,,,,,,,61027e7e28245b6b5cab5e60,61036d616fe90b4772fc1a9b,2021-07-30_05h09.59.128,Simcolourproject_2stim_asymm_v5,2020.2.10,Win32,60,61025ae37ef11b136ea224fe,,,,,,,,,3347,-25,84,1,0,0,response7disk,,0,-2,-7,1,0,0,rectangle,39,-83,1,0,0,7,8,1,0,0,0,124,124,144,1,,response3disk_3,TRUE,4,4,"[303,156,138,291,27,6,159,246,262,299,162,148,216,125,227,265,30,84,13,302]",1.4497,rectangle
,,,,,,,,,,,,,FF,,,,,,,,0.9678,,,,,,,,,,,,,,,,,,,,,,61027e7e28245b6b5cab5e60,61036d616fe90b4772fc1a9b,2021-07-30_05h09.59.128,Simcolourproject_2stim_asymm_v5,2020.2.10,Win32,60,61025ae37ef11b136ea224fe,,,,,,,,,532,24,81,1,0,0,response1disk,,7,22,-11,1,0,0,rectangle,22,-11,1,0,0,22,-11,1,0,0,0,125,125,38,1,,,,,,,,
,,,,,,,,,,,,,FF,,,,,,,,0.6975,,,,,,,,,,,,,,,,,,,,,,61027e7e28245b6b5cab5e60,61036d616fe90b4772fc1a9b,2021-07-30_05h09.59.128,Simcolourproject_2stim_asymm_v5,2020.2.10,Win32,60,61025ae37ef11b136ea224fe,,,,,,,,,4235,46,59,1,0,0,response1disk,,7,16,1,1,0,0,rectangle,16,1,1,0,0,16,1,1,0,0,0,126,126,30,1,,,,,,,,
,,,,,,,,,,,,,FF,,,,,,,,1.0144,,,,,,,,,,,,,,,,,,,,,,61027e7e28245b6b5cab5e60,61036d616fe90b4772fc1a9b,2021-07-30_05h09.59.128,Simcolourproject_2stim_asymm_v5,2020.2.10,Win32,60,61025ae37ef11b136ea224fe,,,,,,,,,2651,-50,85,1,0,0,response7disk,,0,-8,-4,1,0,0,rectangle,-8,-4,1,0,0,-8,-4,1,0,0,0,127,127,94,1,,,,,,,,
,,,,,,,,,,,,,FF,,,,,,,,1.4004,,,,,,,,,,,,,,,,,,,,,,61027e7e28245b6b5cab5e60,61036d616fe90b4772fc1a9b,2021-07-30_05h09.59.128,Simcolourproject_2stim_asymm_v5,2020.2.10,Win32,60,61025ae37ef11b136ea224fe,,,,,,,,,3451,-41,57,1,0,0,response7disk,,0,-21,3,1,0,0,rectangle,-21,3,1,0,0,-21,3,1,0,0,0,128,128,130,1,,,,,,,,
,,,,,,,,,,,,,FF,,,,,,,,0.6362,,,,,,,,,,,,,,,,,,,,,,61027e7e28245b6b5cab5e60,61036d616fe90b4772fc1a9b,2021-07-30_05h09.59.128,Simcolourproject_2stim_asymm_v5,2020.2.10,Win32,60,61025ae37ef11b136ea224fe,,,,,,,,,1359,-21,41,1,0,0,response7disk,,0,-14,-3,1,0,0,rectangle,-14,-3,1,0,0,-14,-3,1,0,0,0,129,129,54,1,,,,,,,,
,,,,,,,,,,,,,FF,,,,,,,,0.601,,,,,,,,,,,,,,,,,,,,,,61027e7e28245b6b5cab5e60,61036d616fe90b4772fc1a9b,2021-07-30_05h09.59.128,Simcolourproject_2stim_asymm_v5,2020.2.10,Win32,60,61025ae37ef11b136ea224fe,,,,,,,,,3904,-30,46,1,0,0,response7disk,,0,-11,-3,1,0,0,rectangle,-11,-3,1,0,0,-11,-3,1,0,0,0,130,130,141,1,,,,,,,,
,,,,,,,,,,,,,FF,,,,,,,,1.7675,,,,,,,,,,,,,,,,,,,,,,61027e7e28245b6b5cab5e60,61036d616fe90b4772fc1a9b,2021-07-30_05h09.59.128,Simcolourproject_2stim_asymm_v5,2020.2.10,Win32,60,61025ae37ef11b136ea224fe,,,,,,,,,906,-68,-32,1,0,0,response5disk,,2,-4,1,1,0,0,rectangle,-4,1,1,0,0,-4,1,1,0,0,0,131,131,146,1,,,,,,,,
,,,,,,,,,,,,,FF,,,,,,,,2.2857,,,,,,,,,,,,,,,,,,,,,,61027e7e28245b6b5cab5e60,61036d616fe90b4772fc1a9b,2021-07-30_05h09.59.128,Simcolourproject_2stim_asymm_v5,2020.2.10,Win32,60,61025ae37ef11b136ea224fe,,,,,,,,,988,-82,-45,1,0,0,response5disk,,2,-21,15,1,0,0,rectangle,-21,15,1,0,0,-21,15,1,0,0,0,132,132,52,1,,,,,,,,
,,,,,,,,,,,,,FF,,,,,,,,1.3668,,,,,,,,,,,,,,,,,,,,,,61027e7e28245b6b5cab5e60,61036d616fe90b4772fc1a9b,2021-07-30_05h09.59.128,Simcolourproject_2stim_asymm_v5,2020.2.10,Win32,60,61025ae37ef11b136ea224fe,,,,,,,,,1746,55,31,1,0,0,response1disk,,6,7,9,0,0,1,rectangle,7,9,0,0,1,7,9,0,0,1,0,133,133,16,1,,,,,,,,
,,,,,,,,,,,,,FF,,,,,,,,1.2342,,,,,,,,,,,,,,,,,,,,,,61027e7e28245b6b5cab5e60,61036d616fe90b4772fc1a9b,2021-07-30_05h09.59.128,Simcolourproject_2stim_asymm_v5,2020.2.10,Win32,60,61025ae37ef11b136ea224fe,,,,,,,,,2014,-31,100,1,0,0,response7disk,,0,-5,11,1,0,0,rectangle,-5,11,1,0,0,-5,11,1,0,0,0,134,134,126,1,,,,,,,,
,,,,,,,,,,,,,FF,,,,,,,,0.717,,,,,,,,,,,,,,,,,,,,,,61027e7e28245b6b5cab5e60,61036d616fe90b4772fc1a9b,2021-07-30_05h09.59.128,Simcolourproject_2stim_asymm_v5,2020.2.10,Win32,60,61025ae37ef11b136ea224fe,,,,,,,,,1855,-20,54,1,0,0,response7disk,,0,-10,-10,1,0,0,rectangle,-10,-10,1,0,0,-10,-10,1,0,0,0,135,135,2,1,,,,,,,,
,,,,,,,,,,,,,FF,,,,,,,,0.6171,,,,,,,,,,,,,,,,,,,,,,61027e7e28245b6b5cab5e60,61036d616fe90b4772fc1a9b,2021-07-30_05h09.59.128,Simcolourproject_2stim_asymm_v5,2020.2.10,Win32,60,61025ae37ef11b136ea224fe,,,,,,,,,1556,-40,66,1,0,0,response7disk,,0,-4,0,1,0,0,rectangle,-4,0,1,0,0,-4,0,1,0,0,0,136,136,49,1,,,,,,,,
,,,,,,,,,,,,,FF,,,,,,,,0.6163,,,,,,,,,,,,,,,,,,,,,,61027e7e28245b6b5cab5e60,61036d616fe90b4772fc1a9b,2021-07-30_05h09.59.128,Simcolourproject_2stim_asymm_v5,2020.2.10,Win32,60,61025ae37ef11b136ea224fe,,,,,,,,,883,-31,62,1,0,0,response7disk,,0,-11,8,1,0,0,rectangle,-53,-17,1,0,0,-1,-2,1,0,0,0,137,137,39,1,,response5disk_3,TRUE,2,2,"[303,156,138,291,27,6,159,246,262,299,162,148,216,125,227,265,30,84,13,302]",1.6666,rectangle
,,,,,,,,,,,,,FF,,,,,,,,0.7682,,,,,,,,,,,,,,,,,,,,,,61027e7e28245b6b5cab5e60,61036d616fe90b4772fc1a9b,2021-07-30_05h09.59.128,Simcolourproject_2stim_asymm_v5,2020.2.10,Win32,60,61025ae37ef11b136ea224fe,,,,,,,,,3758,-59,76,1,0,0,response7disk,,0,-5,-1,1,0,0,rectangle,-5,-1,1,0,0,-5,-1,1,0,0,0,138,138,145,1,,,,,,,,
,,,,,,,,,,,,,FF,,,,,,,,0.6002,,,,,,,,,,,,,,,,,,,,,,61027e7e28245b6b5cab5e60,61036d616fe90b4772fc1a9b,2021-07-30_05h09.59.128,Simcolourproject_2stim_asymm_v5,2020.2.10,Win32,60,61025ae37ef11b136ea224fe,,,,,,,,,3355,-24,55,1,0,0,response7disk,,0,-8,-2,1,0,0,rectangle,-8,-2,1,0,0,-8,-2,1,0,0,0,139,139,127,1,,,,,,,,
,,,,,,,,,,,,,FF,,,,,,,,0.5996,,,,,,,,,,,,,,,,,,,,,,61027e7e28245b6b5cab5e60,61036d616fe90b4772fc1a9b,2021-07-30_05h09.59.128,Simcolourproject_2stim_asymm_v5,2020.2.10,Win32,60,61025ae37ef11b136ea224fe,,,,,,,,,2075,-30,65,1,0,0,response7disk,,0,-5,0,1,0,0,rectangle,-5,0,1,0,0,-5,0,1,0,0,0,140,140,118,1,,,,,,,,
,,,,,,,,,,,,,FF,,,,,,,,0.5497,,,,,,,,,,,,,,,,,,,,,,61027e7e28245b6b5cab5e60,61036d616fe90b4772fc1a9b,2021-07-30_05h09.59.128,Simcolourproject_2stim_asymm_v5,2020.2.10,Win32,60,61025ae37ef11b136ea224fe,,,,,,,,,435,-34,51,1,0,0,response7disk,,0,-9,-2,1,0,0,rectangle,-9,-2,1,0,0,-9,-2,1,0,0,0,141,141,123,1,,,,,,,,
,,,,,,,,,,,,,FF,,,,,,,,2.0333,,,,,,,,,,,,,,,,,,,,,,61027e7e28245b6b5cab5e60,61036d616fe90b4772fc1a9b,2021-07-30_05h09.59.128,Simcolourproject_2stim_asymm_v5,2020.2.10,Win32,60,61025ae37ef11b136ea224fe,,,,,,,,,3673,-95,26,1,0,0,response7disk,,1,-22,-3,1,0,0,rectangle,-22,-3,1,0,0,-22,-3,1,0,0,0,142,142,153,1,,,,,,,,
,,,,,,,,,,,,,FF,,,,,,,,0.6672,,,,,,,,,,,,,,,,,,,,,,61027e7e28245b6b5cab5e60,61036d616fe90b4772fc1a9b,2021-07-30_05h09.59.128,Simcolourproject_2stim_asymm_v5,2020.2.10,Win32,60,61025ae37ef11b136ea224fe,,,,,,,,,511,-37,94,1,0,0,response7disk,,0,-18,13,1,0,0,rectangle,-18,13,1,0,0,-18,13,1,0,0,0,143,143,36,1,,,,,,,,
,,,,,,,,,,,,,FF,,,,,,,,0.6332,,,,,,,,,,,,,,,,,,,,,,61027e7e28245b6b5cab5e60,61036d616fe90b4772fc1a9b,2021-07-30_05h09.59.128,Simcolourproject_2stim_asymm_v5,2020.2.10,Win32,60,61025ae37ef11b136ea224fe,,,,,,,,,2969,-36,82,1,0,0,response7disk,,0,-15,13,1,0,0,rectangle,-15,13,1,0,0,-15,13,1,0,0,0,144,144,159,1,,,,,,,,
,,,,,,,,,,,,,FF,,,,,,,,1.3504,,,,,,,,,,,,,,,,,,,,,,61027e7e28245b6b5cab5e60,61036d616fe90b4772fc1a9b,2021-07-30_05h09.59.128,Simcolourproject_2stim_asymm_v5,2020.2.10,Win32,60,61025ae37ef11b136ea224fe,,,,,,,,,1823,47,94,1,0,0,response1disk,,7,-8,-3,1,0,0,rectangle,-8,-3,1,0,0,-8,-3,1,0,0,0,145,145,132,1,,,,,,,,
,,,,,,,,,,,,,FF,,,,,,,,0.8164,,,,,,,,,,,,,,,,,,,,,,61027e7e28245b6b5cab5e60,61036d616fe90b4772fc1a9b,2021-07-30_05h09.59.128,Simcolourproject_2stim_asymm_v5,2020.2.10,Win32,60,61025ae37ef11b136ea224fe,,,,,,,,,903,-25,65,1,0,0,response7disk,,0,-7,1,1,0,0,rectangle,-7,1,1,0,0,-7,1,1,0,0,0,146,146,120,1,,,,,,,,
,,,,,,,,,,,,,FF,,,,,,,,1.1005,,,,,,,,,,,,,,,,,,,,,,61027e7e28245b6b5cab5e60,61036d616fe90b4772fc1a9b,2021-07-30_05h09.59.128,Simcolourproject_2stim_asymm_v5,2020.2.10,Win32,60,61025ae37ef11b136ea224fe,,,,,,,,,3247,70,20,1,0,0,response1disk,,6,-21,8,1,0,0,rectangle,-32,-63,1,0,0,-1,-4,1,0,0,0,147,147,73,1,,response5disk_3,TRUE,3,3,"[303,156,138,291,27,6,159,246,262,299,162,148,216,125,227,265,30,84,13,302]",2.432,rectangle
,,,,,,,,,,,,,FF,,,,,,,,1.2343,,,,,,,,,,,,,,,,,,,,,,61027e7e28245b6b5cab5e60,61036d616fe90b4772fc1a9b,2021-07-30_05h09.59.128,Simcolourproject_2stim_asymm_v5,2020.2.10,Win32,60,61025ae37ef11b136ea224fe,,,,,,,,,1214,-55,-34,1,0,0,response5disk,,2,-7,-13,1,0,0,rectangle,-7,-13,1,0,0,-7,-13,1,0,0,0,148,148,18,1,,,,,,,,
,,,,,,,,,,,,,FF,,,,,,,,1.1169,,,,,,,,,,,,,,,,,,,,,,61027e7e28245b6b5cab5e60,61036d616fe90b4772fc1a9b,2021-07-30_05h09.59.128,Simcolourproject_2stim_asymm_v5,2020.2.10,Win32,60,61025ae37ef11b136ea224fe,,,,,,,,,524,-37,45,1,0,0,response7disk,,0,-2,3,1,0,0,rectangle,-2,3,1,0,0,-2,3,1,0,0,0,149,149,15,1,,,,,,,,
,,,,,,,,,,,,,FF,,,,,,,,0.9504,,,,,,,,,,,,,,,,,,,,,,61027e7e28245b6b5cab5e60,61036d616fe90b4772fc1a9b,2021-07-30_05h09.59.128,Simcolourproject_2stim_asymm_v5,2020.2.10,Win32,60,61025ae37ef11b136ea224fe,,,,,,,,,3147,39,50,1,0,0,response1disk,,7,9,-4,1,0,0,rectangle,9,-4,1,0,0,9,-4,1,0,0,0,150,150,119,1,,,,,,,,
,,,,,,,,,,,,,FF,,,,,,,,2.6673,,,,,,,,,,,,,,,,,,,,,,61027e7e28245b6b5cab5e60,61036d616fe90b4772fc1a9b,2021-07-30_05h09.59.128,Simcolourproject_2stim_asymm_v5,2020.2.10,Win32,60,61025ae37ef11b136ea224fe,,,,,,,,,3988,-54,119,1,0,0,response7disk,,0,-26,-4,1,0,0,rectangle,-26,-4,1,0,0,-26,-4,1,0,0,0,151,151,139,1,,,,,,,,
,,,,,,,,,,,,,FF,,,,,,,,2.0331,,,,,,,,,,,,,,,,,,,,,,61027e7e28245b6b5cab5e60,61036d616fe90b4772fc1a9b,2021-07-30_05h09.59.128,Simcolourproject_2stim_asymm_v5,2020.2.10,Win32,60,61025ae37ef11b136ea224fe,,,,,,,,,688,-30,111,1,0,0,response7disk,,0,7,-6,1,0,0,rectangle,7,-6,1,0,0,7,-6,1,0,0,0,152,152,25,1,,,,,,,,
,,,,,,,,,,,,,FF,,,,,,,,1.2828,,,,,,,,,,,,,,,,,,,,,,61027e7e28245b6b5cab5e60,61036d616fe90b4772fc1a9b,2021-07-30_05h09.59.128,Simcolourproject_2stim_asymm_v5,2020.2.10,Win32,60,61025ae37ef11b136ea224fe,,,,,,,,,319,-36,70,1,0,0,response7disk,,0,0,6,1,0,0,rectangle,0,6,1,0,0,0,6,1,0,0,0,153,153,44,1,,,,,,,,
,,,,,,,,,,,,,FF,,,,,,,,1.2161,,,,,,,,,,,,,,,,,,,,,,61027e7e28245b6b5cab5e60,61036d616fe90b4772fc1a9b,2021-07-30_05h09.59.128,Simcolourproject_2stim_asymm_v5,2020.2.10,Win32,60,61025ae37ef11b136ea224fe,,,,,,,,,608,-32,104,1,0,0,response7disk,,0,-14,-3,1,0,0,rectangle,-14,-3,1,0,0,-14,-3,1,0,0,0,154,154,1,1,,,,,,,,
,,,,,,,,,,,,,FF,,,,,,,,1.3169,,,,,,,,,,,,,,,,,,,,,,61027e7e28245b6b5cab5e60,61036d616fe90b4772fc1a9b,2021-07-30_05h09.59.128,Simcolourproject_2stim_asymm_v5,2020.2.10,Win32,60,61025ae37ef11b136ea224fe,,,,,,,,,4292,-31,85,1,0,0,response7disk,,0,-23,8,1,0,0,rectangle,-92,75,1,0,0,-4,-9,1,0,0,0,155,155,43,1,,response7disk_3,TRUE,1,1,"[303,156,138,291,27,6,159,246,262,299,162,148,216,125,227,265,30,84,13,302]",2.4497,rectangle
,,,,,,,,,,,,,FF,,,,,,,,2.0341,,,,,,,,,,,,,,,,,,,,,,61027e7e28245b6b5cab5e60,61036d616fe90b4772fc1a9b,2021-07-30_05h09.59.128,Simcolourproject_2stim_asymm_v5,2020.2.10,Win32,60,61025ae37ef11b136ea224fe,,,,,,,,,3774,-83,-42,1,0,0,response5disk,,2,3,-1,1,0,0,rectangle,3,-1,1,0,0,3,-1,1,0,0,0,156,156,51,1,,,,,,,,
,,,,,,,,,,,,,FF,,,,,,,,0.6496,,,,,,,,,,,,,,,,,,,,,,61027e7e28245b6b5cab5e60,61036d616fe90b4772fc1a9b,2021-07-30_05h09.59.128,Simcolourproject_2stim_asymm_v5,2020.2.10,Win32,60,61025ae37ef11b136ea224fe,,,,,,,,,3976,-41,48,1,0,0,response7disk,,0,-16,-2,1,0,0,rectangle,-16,-2,1,0,0,-16,-2,1,0,0,0,157,157,34,1,,,,,,,,
,,,,,,,,,,,,,FF,,,,,,,,0.5506,,,,,,,,,,,,,,,,,,,,,,61027e7e28245b6b5cab5e60,61036d616fe90b4772fc1a9b,2021-07-30_05h09.59.128,Simcolourproject_2stim_asymm_v5,2020.2.10,Win32,60,61025ae37ef11b136ea224fe,,,,,,,,,1869,-22,58,1,0,0,response7disk,,0,-6,-1,1,0,0,rectangle,75,103,1,0,0,25,-5,1,0,0,0,158,158,61,1,,response1disk_3,TRUE,7,7,"[303,156,138,291,27,6,159,246,262,299,162,148,216,125,227,265,30,84,13,302]",2.1492,rectangle
,,,,,,,,,,,,,FF,,,,,,,,1.0667,,,,,,,,,,,,,,,,,,,,,,61027e7e28245b6b5cab5e60,61036d616fe90b4772fc1a9b,2021-07-30_05h09.59.128,Simcolourproject_2stim_asymm_v5,2020.2.10,Win32,60,61025ae37ef11b136ea224fe,,,,,,,,,3107,72,23,1,0,0,response1disk,,6,9,-7,1,0,0,rectangle,9,-7,1,0,0,9,-7,1,0,0,0,159,159,84,1,,,,,,,,
,,,,,,,,,,,,,FF,,,,,,,,1.2327,,,,,,,,,,,,,,,,,,,,,,61027e7e28245b6b5cab5e60,61036d616fe90b4772fc1a9b,2021-07-30_05h09.59.128,Simcolourproject_2stim_asymm_v5,2020.2.10,Win32,60,61025ae37ef11b136ea224fe,,,,,,,,,920,-26,86,1,0,0,response7disk,,0,-7,14,1,0,0,rectangle,-7,14,1,0,0,-7,14,1,0,0,1,0,160,101,1,,,,,,,,
,,,,,,,,,,,,,FF,,,,,,,,1.0994,,,,,,,,,,,,,,,,,,,,,,61027e7e28245b6b5cab5e60,61036d616fe90b4772fc1a9b,2021-07-30_05h09.59.128,Simcolourproject_2stim_asymm_v5,2020.2.10,Win32,60,61025ae37ef11b136ea224fe,,,,,,,,,4223,-53,-30,1,0,0,response5disk,,2,-7,-10,1,0,0,rectangle,41,-96,1,0,0,17,-6,1,0,0,1,1,161,84,1,,response3disk_3,TRUE,4,4,"[303,156,138,291,27,6,159,246,262,299,162,148,216,125,227,265,30,84,13,302]",1.8994,rectangle
,,,,,,,,,,,,,FF,,,,,,,,1.7669,,,,,,,,,,,,,,,,,,,,,,61027e7e28245b6b5cab5e60,61036d616fe90b4772fc1a9b,2021-07-30_05h09.59.128,Simcolourproject_2stim_asymm_v5,2020.2.10,Win32,60,61025ae37ef11b136ea224fe,,,,,,,,,2798,-61,-74,1,0,0,response5disk,,3,-1,-4,1,0,0,rectangle,-1,-4,1,0,0,-1,-4,1,0,0,1,2,162,136,1,,,,,,,,
,,,,,,,,,,,,,FF,,,,,,,,2.9332,,,,,,,,,,,,,,,,,,,,,,61027e7e28245b6b5cab5e60,61036d616fe90b4772fc1a9b,2021-07-30_05h09.59.128,Simcolourproject_2stim_asymm_v5,2020.2.10,Win32,60,61025ae37ef11b136ea224fe,,,,,,,,,172,-55,-65,1,0,0,response5disk,,3,-1,-5,1,0,0,rectangle,-1,-5,1,0,0,-1,-5,1,0,0,1,3,163,52,1,,,,,,,,
,,,,,,,,,,,,,FF,,,,,,,,1.97,,,,,,,,,,,,,,,,,,,,,,61027e7e28245b6b5cab5e60,61036d616fe90b4772fc1a9b,2021-07-30_05h09.59.128,Simcolourproject_2stim_asymm_v5,2020.2.10,Win32,60,61025ae37ef11b136ea224fe,,,,,,,,,3470,73,73,1,0,0,response1disk,,7,18,10,1,0,0,rectangle,18,10,1,0,0,18,10,1,0,0,1,4,164,118,1,,,,,,,,
,,,,,,,,,,,,,FF,,,,,,,,1.3009,,,,,,,,,,,,,,,,,,,,,,61027e7e28245b6b5cab5e60,61036d616fe90b4772fc1a9b,2021-07-30_05h09.59.128,Simcolourproject_2stim_asymm_v5,2020.2.10,Win32,60,61025ae37ef11b136ea224fe,,,,,,,,,3539,-39,75,1,0,0,response7disk,,0,-11,-7,1,0,0,rectangle,-11,-7,1,0,0,-11,-7,1,0,0,1,5,165,1,1,,,,,,,,
,,,,,,,,,,,,,FF,,,,,,,,0.9163,,,,,,,,,,,,,,,,,,,,,,61027e7e28245b6b5cab5e60,61036d616fe90b4772fc1a9b,2021-07-30_05h09.59.128,Simcolourproject_2stim_asymm_v5,2020.2.10,Win32,60,61025ae37ef11b136ea224fe,,,,,,,,,1611,57,75,1,0,0,response1disk,,7,10,11,1,0,0,rectangle,10,11,1,0,0,10,11,1,0,0,1,6,166,10,1,,,,,,,,
,,,,,,,,,,,,,FF,,,,,,,,0.7664,,,,,,,,,,,,,,,,,,,,,,61027e7e28245b6b5cab5e60,61036d616fe90b4772fc1a9b,2021-07-30_05h09.59.128,Simcolourproject_2stim_asymm_v5,2020.2.10,Win32,60,61025ae37ef11b136ea224fe,,,,,,,,,585,-33,70,1,0,0,response7disk,,0,-19,10,1,0,0,rectangle,-19,10,1,0,0,-19,10,1,0,0,1,7,167,126,1,,,,,,,,
,,,,,,,,,,,,,FF,,,,,,,,1.0184,,,,,,,,,,,,,,,,,,,,,,61027e7e28245b6b5cab5e60,61036d616fe90b4772fc1a9b,2021-07-30_05h09.59.128,Simcolourproject_2stim_asymm_v5,2020.2.10,Win32,60,61025ae37ef11b136ea224fe,,,,,,,,,2363,46,63,1,0,0,response1disk,,7,19,-3,1,0,0,rectangle,19,-3,1,0,0,19,-3,1,0,0,1,8,168,45,1,,,,,,,,
,,,,,,,,,,,,,FF,,,,,,,,1.6337,,,,,,,,,,,,,,,,,,,,,,61027e7e28245b6b5cab5e60,61036d616fe90b4772fc1a9b,2021-07-30_05h09.59.128,Simcolourproject_2stim_asymm_v5,2020.2.10,Win32,60,61025ae37ef11b136ea224fe,,,,,,,,,3689,-49,73,1,0,0,response7disk,,0,9,-7,1,0,0,rectangle,9,-7,1,0,0,9,-7,1,0,0,1,9,169,27,1,,,,,,,,
,,,,,,,,,,,,,FF,,,,,,,,1.0684,,,,,,,,,,,,,,,,,,,,,,61027e7e28245b6b5cab5e60,61036d616fe90b4772fc1a9b,2021-07-30_05h09.59.128,Simcolourproject_2stim_asymm_v5,2020.2.10,Win32,60,61025ae37ef11b136ea224fe,,,,,,,,,199,-38,63,1,0,0,response7disk,,0,-23,10,1,0,0,rectangle,-23,10,1,0,0,-23,10,1,0,0,1,10,170,112,1,,,,,,,,
,,,,,,,,,,,,,FF,,,,,,,,0.6497,,,,,,,,,,,,,,,,,,,,,,61027e7e28245b6b5cab5e60,61036d616fe90b4772fc1a9b,2021-07-30_05h09.59.128,Simcolourproject_2stim_asymm_v5,2020.2.10,Win32,60,61025ae37ef11b136ea224fe,,,,,,,,,3413,-33,74,1,0,0,response7disk,,0,-18,-9,1,0,0,rectangle,-18,-9,1,0,0,-18,-9,1,0,0,1,11,171,133,1,,,,,,,,
,,,,,,,,,,,,,FF,,,,,,,,0.6338,,,,,,,,,,,,,,,,,,,,,,61027e7e28245b6b5cab5e60,61036d616fe90b4772fc1a9b,2021-07-30_05h09.59.128,Simcolourproject_2stim_asymm_v5,2020.2.10,Win32,60,61025ae37ef11b136ea224fe,,,,,,,,,3561,-20,70,1,0,0,response7disk,,0,-7,10,1,0,0,rectangle,-7,10,1,0,0,-7,10,1,0,0,1,12,172,141,1,,,,,,,,
,,,,,,,,,,,,,FF,,,,,,,,1.6833,,,,,,,,,,,,,,,,,,,,,,61027e7e28245b6b5cab5e60,61036d616fe90b4772fc1a9b,2021-07-30_05h09.59.128,Simcolourproject_2stim_asymm_v5,2020.2.10,Win32,60,61025ae37ef11b136ea224fe,,,,,,,,,255,-37,-89,1,0,0,response5disk,,3,3,-1,1,0,0,rectangle,3,-1,1,0,0,3,-1,1,0,0,1,13,173,90,1,,,,,,,,
,,,,,,,,,,,,,FF,,,,,,,,1.0167,,,,,,,,,,,,,,,,,,,,,,61027e7e28245b6b5cab5e60,61036d616fe90b4772fc1a9b,2021-07-30_05h09.59.128,Simcolourproject_2stim_asymm_v5,2020.2.10,Win32,60,61025ae37ef11b136ea224fe,,,,,,,,,3122,-43,72,1,0,0,response7disk,,0,-24,8,1,0,0,rectangle,-24,8,1,0,0,-24,8,1,0,0,1,14,174,48,1,,,,,,,,
,,,,,,,,,,,,,FF,,,,,,,,0.6662,,,,,,,,,,,,,,,,,,,,,,61027e7e28245b6b5cab5e60,61036d616fe90b4772fc1a9b,2021-07-30_05h09.59.128,Simcolourproject_2stim_asymm_v5,2020.2.10,Win32,60,61025ae37ef11b136ea224fe,,,,,,,,,4072,-35,60,1,0,0,response7disk,,0,-11,5,1,0,0,rectangle,-11,5,1,0,0,-11,5,1,0,0,1,15,175,97,1,,,,,,,,
,,,,,,,,,,,,,FF,,,,,,,,0.9167,,,,,,,,,,,,,,,,,,,,,,61027e7e28245b6b5cab5e60,61036d616fe90b4772fc1a9b,2021-07-30_05h09.59.128,Simcolourproject_2stim_asymm_v5,2020.2.10,Win32,60,61025ae37ef11b136ea224fe,,,,,,,,,3773,-39,81,1,0,0,response7disk,,0,-4,10,1,0,0,rectangle,-4,10,1,0,0,-4,10,1,0,0,1,16,176,117,1,,,,,,,,
,,,,,,,,,,,,,FF,,,,,,,,1.1179,,,,,,,,,,,,,,,,,,,,,,61027e7e28245b6b5cab5e60,61036d616fe90b4772fc1a9b,2021-07-30_05h09.59.128,Simcolourproject_2stim_asymm_v5,2020.2.10,Win32,60,61025ae37ef11b136ea224fe,,,,,,,,,1106,-16,59,1,0,0,response7disk,,0,-9,-12,1,0,0,rectangle,-9,-12,1,0,0,-9,-12,1,0,0,1,17,177,98,1,,,,,,,,
,,,,,,,,,,,,,FF,,,,,,,,0.667,,,,,,,,,,,,,,,,,,,,,,61027e7e28245b6b5cab5e60,61036d616fe90b4772fc1a9b,2021-07-30_05h09.59.128,Simcolourproject_2stim_asymm_v5,2020.2.10,Win32,60,61025ae37ef11b136ea224fe,,,,,,,,,2063,-39,85,1,0,0,response7disk,,0,-6,-3,1,0,0,rectangle,-6,-3,1,0,0,-6,-3,1,0,0,1,18,178,8,1,,,,,,,,
,,,,,,,,,,,,,FF,,,,,,,,1.0173,,,,,,,,,,,,,,,,,,,,,,61027e7e28245b6b5cab5e60,61036d616fe90b4772fc1a9b,2021-07-30_05h09.59.128,Simcolourproject_2stim_asymm_v5,2020.2.10,Win32,60,61025ae37ef11b136ea224fe,,,,,,,,,2492,-32,57,1,0,0,response7disk,,0,-4,-9,1,0,0,rectangle,-4,-9,1,0,0,-4,-9,1,0,0,1,19,179,81,1,,,,,,,,
,,,,,,,,,,,,,FF,,,,,,,,0.7502,,,,,,,,,,,,,,,,,,,,,,61027e7e28245b6b5cab5e60,61036d616fe90b4772fc1a9b,2021-07-30_05h09.59.128,Simcolourproject_2stim_asymm_v5,2020.2.10,Win32,60,61025ae37ef11b136ea224fe,,,,,,,,,3807,-30,66,1,0,0,response7disk,,0,-16,-5,1,0,0,rectangle,-16,-5,1,0,0,-16,-5,1,0,0,1,20,180,70,1,,,,,,,,
,,,,,,,,,,,,,FF,,,,,,,,0.6835,,,,,,,,,,,,,,,,,,,,,,61027e7e28245b6b5cab5e60,61036d616fe90b4772fc1a9b,2021-07-30_05h09.59.128,Simcolourproject_2stim_asymm_v5,2020.2.10,Win32,60,61025ae37ef11b136ea224fe,,,,,,,,,2461,-37,64,1,0,0,response7disk,,0,-27,9,1,0,0,rectangle,-27,9,1,0,0,-27,9,1,0,0,1,21,181,113,1,,,,,,,,
,,,,,,,,,,,,,FF,,,,,,,,0.6181,,,,,,,,,,,,,,,,,,,,,,61027e7e28245b6b5cab5e60,61036d616fe90b4772fc1a9b,2021-07-30_05h09.59.128,Simcolourproject_2stim_asymm_v5,2020.2.10,Win32,60,61025ae37ef11b136ea224fe,,,,,,,,,472,-33,71,1,0,0,response7disk,,0,-6,-3,1,0,0,rectangle,-6,-3,1,0,0,-6,-3,1,0,0,1,22,182,7,1,,,,,,,,
,,,,,,,,,,,,,FF,,,,,,,,0.6664,,,,,,,,,,,,,,,,,,,,,,61027e7e28245b6b5cab5e60,61036d616fe90b4772fc1a9b,2021-07-30_05h09.59.128,Simcolourproject_2stim_asymm_v5,2020.2.10,Win32,60,61025ae37ef11b136ea224fe,,,,,,,,,2322,-30,51,1,0,0,response7disk,,0,-6,-2,1,0,0,rectangle,-6,-2,1,0,0,-6,-2,1,0,0,1,23,183,36,1,,,,,,,,
,,,,,,,,,,,,,FF,,,,,,,,0.6995,,,,,,,,,,,,,,,,,,,,,,61027e7e28245b6b5cab5e60,61036d616fe90b4772fc1a9b,2021-07-30_05h09.59.128,Simcolourproject_2stim_asymm_v5,2020.2.10,Win32,60,61025ae37ef11b136ea224fe,,,,,,,,,712,-27,77,1,0,0,response7disk,,0,-2,-2,1,0,0,rectangle,-2,-2,1,0,0,-2,-2,1,0,0,1,24,184,128,1,,,,,,,,
,,,,,,,,,,,,,FF,,,,,,,,0.6998,,,,,,,,,,,,,,,,,,,,,,61027e7e28245b6b5cab5e60,61036d616fe90b4772fc1a9b,2021-07-30_05h09.59.128,Simcolourproject_2stim_asymm_v5,2020.2.10,Win32,60,61025ae37ef11b136ea224fe,,,,,,,,,565,-39,62,1,0,0,response7disk,,0,-12,0,1,0,0,rectangle,-12,0,1,0,0,-12,0,1,0,0,1,25,185,30,1,,,,,,,,
,,,,,,,,,,,,,FF,,,,,,,,0.7499,,,,,,,,,,,,,,,,,,,,,,61027e7e28245b6b5cab5e60,61036d616fe90b4772fc1a9b,2021-07-30_05h09.59.128,Simcolourproject_2stim_asymm_v5,2020.2.10,Win32,60,61025ae37ef11b136ea224fe,,,,,,,,,3854,-49,89,1,0,0,response7disk,,0,-19,11,1,0,0,rectangle,-19,11,1,0,0,-19,11,1,0,0,1,26,186,23,1,,,,,,,,
,,,,,,,,,,,,,FF,,,,,,,,0.6168,,,,,,,,,,,,,,,,,,,,,,61027e7e28245b6b5cab5e60,61036d616fe90b4772fc1a9b,2021-07-30_05h09.59.128,Simcolourproject_2stim_asymm_v5,2020.2.10,Win32,60,61025ae37ef11b136ea224fe,,,,,,,,,2265,-42,76,1,0,0,response7disk,,0,-19,9,1,0,0,rectangle,-19,9,1,0,0,-19,9,1,0,0,1,27,187,43,1,,,,,,,,
,,,,,,,,,,,,,FF,,,,,,,,1.0211,,,,,,,,,,,,,,,,,,,,,,61027e7e28245b6b5cab5e60,61036d616fe90b4772fc1a9b,2021-07-30_05h09.59.128,Simcolourproject_2stim_asymm_v5,2020.2.10,Win32,60,61025ae37ef11b136ea224fe,,,,,,,,,3280,-24,47,1,0,0,response7disk,,0,-10,-7,1,0,0,rectangle,-10,-7,1,0,0,-10,-7,1,0,0,1,28,188,31,1,,,,,,,,
,,,,,,,,,,,,,FF,,,,,,,,0.7209,,,,,,,,,,,,,,,,,,,,,,61027e7e28245b6b5cab5e60,61036d616fe90b4772fc1a9b,2021-07-30_05h09.59.128,Simcolourproject_2stim_asymm_v5,2020.2.10,Win32,60,61025ae37ef11b136ea224fe,,,,,,,,,2391,-22,49,1,0,0,response7disk,,0,-16,-10,1,0,0,rectangle,-16,-10,1,0,0,-16,-10,1,0,0,1,29,189,152,1,,,,,,,,
,,,,,,,,,,,,,FF,,,,,,,,1.4662,,,,,,,,,,,,,,,,,,,,,,61027e7e28245b6b5cab5e60,61036d616fe90b4772fc1a9b,2021-07-30_05h09.59.128,Simcolourproject_2stim_asymm_v5,2020.2.10,Win32,60,61025ae37ef11b136ea224fe,,,,,,,,,2666,-20,-45,1,0,0,response5disk,,3,5,2,1,0,0,rectangle,5,2,1,0,0,5,2,1,0,0,1,30,190,89,1,,,,,,,,
,,,,,,,,,,,,,FF,,,,,,,,1.8508,,,,,,,,,,,,,,,,,,,,,,61027e7e28245b6b5cab5e60,61036d616fe90b4772fc1a9b,2021-07-30_05h09.59.128,Simcolourproject_2stim_asymm_v5,2020.2.10,Win32,60,61025ae37ef11b136ea224fe,,,,,,,,,3092,-68,-33,1,0,0,response5disk,,2,-22,-1,1,0,0,rectangle,-22,-1,1,0,0,-22,-1,1,0,0,1,31,191,153,1,,,,,,,,
,,,,,,,,,,,,,FF,,,,,,,,1.3506,,,,,,,,,,,,,,,,,,,,,,61027e7e28245b6b5cab5e60,61036d616fe90b4772fc1a9b,2021-07-30_05h09.59.128,Simcolourproject_2stim_asymm_v5,2020.2.10,Win32,60,61025ae37ef11b136ea224fe,,,,,,,,,2893,72,97,1,0,0,response1disk,,7,-16,12,1,0,0,rectangle,-16,12,1,0,0,-16,12,1,0,0,1,32,192,60,1,,,,,,,,
,,,,,,,,,,,,,FF,,,,,,,,0.933,,,,,,,,,,,,,,,,,,,,,,61027e7e28245b6b5cab5e60,61036d616fe90b4772fc1a9b,2021-07-30_05h09.59.128,Simcolourproject_2stim_asymm_v5,2020.2.10,Win32,60,61025ae37ef11b136ea224fe,,,,,,,,,4031,-34,58,1,0,0,response7disk,,0,17,3,1,0,0,rectangle,17,3,1,0,0,17,3,1,0,0,1,33,193,108,1,,,,,,,,
,,,,,,,,,,,,,FF,,,,,,,,0.8887,,,,,,,,,,,,,,,,,,,,,,61027e7e28245b6b5cab5e60,61036d616fe90b4772fc1a9b,2021-07-30_05h09.59.128,Simcolourproject_2stim_asymm_v5,2020.2.10,Win32,60,61025ae37ef11b136ea224fe,,,,,,,,,3659,-34,66,1,0,0,response7disk,,0,2,3,1,0,0,rectangle,2,3,1,0,0,2,3,1,0,0,1,34,194,47,1,,,,,,,,
,,,,,,,,,,,,,FF,,,,,,,,1.9159,,,,,,,,,,,,,,,,,,,,,,61027e7e28245b6b5cab5e60,61036d616fe90b4772fc1a9b,2021-07-30_05h09.59.128,Simcolourproject_2stim_asymm_v5,2020.2.10,Win32,60,61025ae37ef11b136ea224fe,,,,,,,,,2890,104,-52,1,0,0,response3disk,,5,-9,9,1,0,0,rectangle,-9,9,1,0,0,-9,9,1,0,0,1,35,195,2,1,,,,,,,,
,,,,,,,,,,,,,FF,,,,,,,,2.2002,,,,,,,,,,,,,,,,,,,,,,61027e7e28245b6b5cab5e60,61036d616fe90b4772fc1a9b,2021-07-30_05h09.59.128,Simcolourproject_2stim_asymm_v5,2020.2.10,Win32,60,61025ae37ef11b136ea224fe,,,,,,,,,3180,-74,-31,1,0,0,response5disk,,2,-16,-5,1,0,0,rectangle,-16,-5,1,0,0,-16,-5,1,0,0,1,36,196,53,1,,,,,,,,
,,,,,,,,,,,,,FF,,,,,,,,0.9173,,,,,,,,,,,,,,,,,,,,,,61027e7e28245b6b5cab5e60,61036d616fe90b4772fc1a9b,2021-07-30_05h09.59.128,Simcolourproject_2stim_asymm_v5,2020.2.10,Win32,60,61025ae37ef11b136ea224fe,,,,,,,,,577,-45,68,1,0,0,response7disk,,0,1,0,1,0,0,rectangle,1,0,1,0,0,1,0,1,0,0,1,37,197,44,1,,,,,,,,
,,,,,,,,,,,,,FF,,,,,,,,1.6837,,,,,,,,,,,,,,,,,,,,,,61027e7e28245b6b5cab5e60,61036d616fe90b4772fc1a9b,2021-07-30_05h09.59.128,Simcolourproject_2stim_asymm_v5,2020.2.10,Win32,60,61025ae37ef11b136ea224fe,,,,,,,,,101,31,-101,1,0,0,response3disk,,4,14,-3,1,0,0,rectangle,14,-3,1,0,0,14,-3,1,0,0,1,38,198,110,1,,,,,,,,
,,,,,,,,,,,,,FF,,,,,,,,0.9687,,,,,,,,,,,,,,,,,,,,,,61027e7e28245b6b5cab5e60,61036d616fe90b4772fc1a9b,2021-07-30_05h09.59.128,Simcolourproject_2stim_asymm_v5,2020.2.10,Win32,60,61025ae37ef11b136ea224fe,,,,,,,,,3559,44,68,1,0,0,response1disk,,7,-1,4,1,0,0,rectangle,-1,4,1,0,0,-1,4,1,0,0,1,39,199,28,1,,,,,,,,
,,,,,,,,,,,,,FF,,,,,,,,2.7502,,,,,,,,,,,,,,,,,,,,,,61027e7e28245b6b5cab5e60,61036d616fe90b4772fc1a9b,2021-07-30_05h09.59.128,Simcolourproject_2stim_asymm_v5,2020.2.10,Win32,60,61025ae37ef11b136ea224fe,,,,,,,,,2426,-91,78,1,0,0,response7disk,,1,-27,6,1,0,0,rectangle,-27,6,1,0,0,-27,6,1,0,0,1,40,200,143,1,,,,,,,,
,,,,,,,,,,,,,FF,,,,,,,,1.3833,,,,,,,,,,,,,,,,,,,,,,61027e7e28245b6b5cab5e60,61036d616fe90b4772fc1a9b,2021-07-30_05h09.59.128,Simcolourproject_2stim_asymm_v5,2020.2.10,Win32,60,61025ae37ef11b136ea224fe,,,,,,,,,3512,76,-59,1,0,0,response3disk,,5,30,13,1,0,0,rectangle,30,13,1,0,0,30,13,1,0,0,1,41,201,157,1,,,,,,,,
,,,,,,,,,,,,,FF,,,,,,,,1.067,,,,,,,,,,,,,,,,,,,,,,61027e7e28245b6b5cab5e60,61036d616fe90b4772fc1a9b,2021-07-30_05h09.59.128,Simcolourproject_2stim_asymm_v5,2020.2.10,Win32,60,61025ae37ef11b136ea224fe,,,,,,,,,783,-31,97,1,0,0,response7disk,,0,-8,-4,1,0,0,rectangle,-8,-4,1,0,0,-8,-4,1,0,0,1,42,202,74,1,,,,,,,,
,,,,,,,,,,,,,FF,,,,,,,,0.7332,,,,,,,,,,,,,,,,,,,,,,61027e7e28245b6b5cab5e60,61036d616fe90b4772fc1a9b,2021-07-30_05h09.59.128,Simcolourproject_2stim_asymm_v5,2020.2.10,Win32,60,61025ae37ef11b136ea224fe,,,,,,,,,769,-23,49,1,0,0,response7disk,,0,-16,-8,1,0,0,rectangle,-16,-8,1,0,0,-16,-8,1,0,0,1,43,203,130,1,,,,,,,,
,,,,,,,,,,,,,FF,,,,,,,,0.7834,,,,,,,,,,,,,,,,,,,,,,61027e7e28245b6b5cab5e60,61036d616fe90b4772fc1a9b,2021-07-30_05h09.59.128,Simcolourproject_2stim_asymm_v5,2020.2.10,Win32,60,61025ae37ef11b136ea224fe,,,,,,,,,741,-23,43,1,0,0,response7disk,,0,-14,-6,1,0,0,rectangle,-14,-6,1,0,0,-14,-6,1,0,0,1,44,204,158,1,,,,,,,,
,,,,,,,,,,,,,FF,,,,,,,,1.0007,,,,,,,,,,,,,,,,,,,,,,61027e7e28245b6b5cab5e60,61036d616fe90b4772fc1a9b,2021-07-30_05h09.59.128,Simcolourproject_2stim_asymm_v5,2020.2.10,Win32,60,61025ae37ef11b136ea224fe,,,,,,,,,3626,-38,88,1,0,0,response7disk,,0,2,-1,1,0,0,rectangle,2,-1,1,0,0,2,-1,1,0,0,1,45,205,9,1,,,,,,,,
,,,,,,,,,,,,,FF,,,,,,,,0.6839,,,,,,,,,,,,,,,,,,,,,,61027e7e28245b6b5cab5e60,61036d616fe90b4772fc1a9b,2021-07-30_05h09.59.128,Simcolourproject_2stim_asymm_v5,2020.2.10,Win32,60,61025ae37ef11b136ea224fe,,,,,,,,,1549,-45,53,1,0,0,response7disk,,0,-11,-6,1,0,0,rectangle,-11,-6,1,0,0,-11,-6,1,0,0,1,46,206,131,1,,,,,,,,
,,,,,,,,,,,,,FF,,,,,,,,1.4336,,,,,,,,,,,,,,,,,,,,,,61027e7e28245b6b5cab5e60,61036d616fe90b4772fc1a9b,2021-07-30_05h09.59.128,Simcolourproject_2stim_asymm_v5,2020.2.10,Win32,60,61025ae37ef11b136ea224fe,,,,,,,,,2785,39,-65,1,0,0,response3disk,,4,11,5,1,0,0,rectangle,11,5,1,0,0,11,5,1,0,0,1,47,207,104,1,,,,,,,,
,,,,,,,,,,,,,FF,,,,,,,,1.3502,,,,,,,,,,,,,,,,,,,,,,61027e7e28245b6b5cab5e60,61036d616fe90b4772fc1a9b,2021-07-30_05h09.59.128,Simcolourproject_2stim_asymm_v5,2020.2.10,Win32,60,61025ae37ef11b136ea224fe,,,,,,,,,1389,-61,-36,1,0,0,response5disk,,2,0,2,1,0,0,rectangle,0,2,1,0,0,0,2,1,0,0,1,48,208,87,1,,,,,,,,
,,,,,,,,,,,,,FF,,,,,,,,1.6195,,,,,,,,,,,,,,,,,,,,,,61027e7e28245b6b5cab5e60,61036d616fe90b4772fc1a9b,2021-07-30_05h09.59.128,Simcolourproject_2stim_asymm_v5,2020.2.10,Win32,60,61025ae37ef11b136ea224fe,,,,,,,,,1141,-36,50,1,0,0,response7disk,,0,-6,-3,1,0,0,rectangle,-6,-3,1,0,0,-6,-3,1,0,0,1,49,209,156,1,,,,,,,,
,,,,,,,,,,,,,FF,,,,,,,,1.3839,,,,,,,,,,,,,,,,,,,,,,61027e7e28245b6b5cab5e60,61036d616fe90b4772fc1a9b,2021-07-30_05h09.59.128,Simcolourproject_2stim_asymm_v5,2020.2.10,Win32,60,61025ae37ef11b136ea224fe,,,,,,,,,2146,-47,64,1,0,0,response7disk,,0,7,14,1,0,0,rectangle,7,14,1,0,0,7,14,1,0,0,1,50,210,88,1,,,,,,,,
,,,,,,,,,,,,,FF,,,,,,,,3.0661,,,,,,,,,,,,,,,,,,,,,,61027e7e28245b6b5cab5e60,61036d616fe90b4772fc1a9b,2021-07-30_05h09.59.128,Simcolourproject_2stim_asymm_v5,2020.2.10,Win32,60,61025ae37ef11b136ea224fe,,,,,,,,,2824,-64,-40,1,0,0,response5disk,,2,-24,-3,1,0,0,rectangle,-24,-3,1,0,0,-24,-3,1,0,0,1,51,211,73,1,,,,,,,,
,,,,,,,,,,,,,FF,,,,,,,,1.4001,,,,,,,,,,,,,,,,,,,,,,61027e7e28245b6b5cab5e60,61036d616fe90b4772fc1a9b,2021-07-30_05h09.59.128,Simcolourproject_2stim_asymm_v5,2020.2.10,Win32,60,61025ae37ef11b136ea224fe,,,,,,,,,3082,-37,-26,1,0,0,response5disk,,2,15,2,1,0,0,rectangle,15,2,1,0,0,15,2,1,0,0,1,52,212,5,1,,,,,,,,
,,,,,,,,,,,,,FF,,,,,,,,2.3162,,,,,,,,,,,,,,,,,,,,,,61027e7e28245b6b5cab5e60,61036d616fe90b4772fc1a9b,2021-07-30_05h09.59.128,Simcolourproject_2stim_asymm_v5,2020.2.10,Win32,60,61025ae37ef11b136ea224fe,,,,,,,,,2567,-25,58,1,0,0,response7disk,,0,1,-12,1,0,0,rectangle,1,-12,1,0,0,1,-12,1,0,0,1,53,213,34,1,,,,,,,,
,,,,,,,,,,,,,FF,,,,,,,,0.8503,,,,,,,,,,,,,,,,,,,,,,61027e7e28245b6b5cab5e60,61036d616fe90b4772fc1a9b,2021-07-30_05h09.59.128,Simcolourproject_2stim_asymm_v5,2020.2.10,Win32,60,61025ae37ef11b136ea224fe,,,,,,,,,2573,-52,92,1,0,0,response7disk,,0,-2,-4,1,0,0,rectangle,-2,-4,1,0,0,-2,-4,1,0,0,1,54,214,49,1,,,,,,,,
,,,,,,,,,,,,,FF,,,,,,,,0.7836,,,,,,,,,,,,,,,,,,,,,,61027e7e28245b6b5cab5e60,61036d616fe90b4772fc1a9b,2021-07-30_05h09.59.128,Simcolourproject_2stim_asymm_v5,2020.2.10,Win32,60,61025ae37ef11b136ea224fe,,,,,,,,,747,-40,72,1,0,0,response7disk,,0,-10,5,1,0,0,rectangle,-41,-75,1,0,0,4,-1,1,0,0,1,55,215,26,1,,response5disk_3,TRUE,3,3,"[303,156,138,291,27,6,159,246,262,299,162,148,216,125,227,265,30,84,13,302]",5.6838,rectangle
,,,,,,,,,,,,,FF,,,,,,,,1.8174,,,,,,,,,,,,,,,,,,,,,,61027e7e28245b6b5cab5e60,61036d616fe90b4772fc1a9b,2021-07-30_05h09.59.128,Simcolourproject_2stim_asymm_v5,2020.2.10,Win32,60,61025ae37ef11b136ea224fe,,,,,,,,,3834,-30,51,1,0,0,response7disk,,0,-1,-6,1,0,0,rectangle,-1,-6,1,0,0,-1,-6,1,0,0,1,56,216,61,1,,,,,,,,
,,,,,,,,,,,,,FF,,,,,,,,1.4173,,,,,,,,,,,,,,,,,,,,,,61027e7e28245b6b5cab5e60,61036d616fe90b4772fc1a9b,2021-07-30_05h09.59.128,Simcolourproject_2stim_asymm_v5,2020.2.10,Win32,60,61025ae37ef11b136ea224fe,,,,,,,,,3209,-81,-23,1,0,0,response5disk,,2,-6,0,1,0,0,rectangle,-6,0,1,0,0,-6,0,1,0,0,1,57,217,76,1,,,,,,,,
,,,,,,,,,,,,,FF,,,,,,,,0.8838,,,,,,,,,,,,,,,,,,,,,,61027e7e28245b6b5cab5e60,61036d616fe90b4772fc1a9b,2021-07-30_05h09.59.128,Simcolourproject_2stim_asymm_v5,2020.2.10,Win32,60,61025ae37ef11b136ea224fe,,,,,,,,,395,-50,89,1,0,0,response7disk,,0,-10,-5,1,0,0,rectangle,-10,-5,1,0,0,-10,-5,1,0,0,1,58,218,72,1,,,,,,,,
,,,,,,,,,,,,,FF,,,,,,,,0.6507,,,,,,,,,,,,,,,,,,,,,,61027e7e28245b6b5cab5e60,61036d616fe90b4772fc1a9b,2021-07-30_05h09.59.128,Simcolourproject_2stim_asymm_v5,2020.2.10,Win32,60,61025ae37ef11b136ea224fe,,,,,,,,,3788,-33,88,1,0,0,response7disk,,0,-17,14,1,0,0,rectangle,-17,14,1,0,0,-17,14,1,0,0,1,59,219,42,1,,,,,,,,
,,,,,,,,,,,,,FF,,,,,,,,0.6514,,,,,,,,,,,,,,,,,,,,,,61027e7e28245b6b5cab5e60,61036d616fe90b4772fc1a9b,2021-07-30_05h09.59.128,Simcolourproject_2stim_asymm_v5,2020.2.10,Win32,60,61025ae37ef11b136ea224fe,,,,,,,,,1918,-50,57,1,0,0,response7disk,,0,-10,-12,1,0,0,rectangle,-10,-12,1,0,0,-10,-12,1,0,0,1,60,220,79,1,,,,,,,,
,,,,,,,,,,,,,FF,,,,,,,,1.5714,,,,,,,,,,,,,,,,,,,,,,61027e7e28245b6b5cab5e60,61036d616fe90b4772fc1a9b,2021-07-30_05h09.59.128,Simcolourproject_2stim_asymm_v5,2020.2.10,Win32,60,61025ae37ef11b136ea224fe,,,,,,,,,2162,-40,-81,1,0,0,response5disk,,3,0,4,1,0,0,rectangle,0,4,1,0,0,0,4,1,0,0,1,61,221,144,1,,,,,,,,
,,,,,,,,,,,,,FF,,,,,,,,2.0673,,,,,,,,,,,,,,,,,,,,,,61027e7e28245b6b5cab5e60,61036d616fe90b4772fc1a9b,2021-07-30_05h09.59.128,Simcolourproject_2stim_asymm_v5,2020.2.10,Win32,60,61025ae37ef11b136ea224fe,,,,,,,,,1136,64,73,1,0,0,response1disk,,7,-27,-2,1,0,0,rectangle,-27,-2,1,0,0,-27,-2,1,0,0,1,62,222,92,1,,,,,,,,
,,,,,,,,,,,,,FF,,,,,,,,2.9837,,,,,,,,,,,,,,,,,,,,,,61027e7e28245b6b5cab5e60,61036d616fe90b4772fc1a9b,2021-07-30_05h09.59.128,Simcolourproject_2stim_asymm_v5,2020.2.10,Win32,60,61025ae37ef11b136ea224fe,,,,,,,,,593,-93,58,1,0,0,response7disk,,1,-1,-1,1,0,0,rectangle,-1,-1,1,0,0,-1,-1,1,0,0,1,63,223,63,1,,,,,,,,
,,,,,,,,,,,,,FF,,,,,,,,0.9165,,,,,,,,,,,,,,,,,,,,,,61027e7e28245b6b5cab5e60,61036d616fe90b4772fc1a9b,2021-07-30_05h09.59.128,Simcolourproject_2stim_asymm_v5,2020.2.10,Win32,60,61025ae37ef11b136ea224fe,,,,,,,,,2445,-35,57,1,0,0,response7disk,,0,-2,11,1,0,0,rectangle,-2,11,1,0,0,-2,11,1,0,0,1,64,224,11,1,,,,,,,,
,,,,,,,,,,,,,FF,,,,,,,,1.7179,,,,,,,,,,,,,,,,,,,,,,61027e7e28245b6b5cab5e60,61036d616fe90b4772fc1a9b,2021-07-30_05h09.59.128,Simcolourproject_2stim_asymm_v5,2020.2.10,Win32,60,61025ae37ef11b136ea224fe,,,,,,,,,2732,-75,31,1,0,0,response7disk,,1,-3,2,1,0,0,rectangle,-3,2,1,0,0,-3,2,1,0,0,1,65,225,134,1,,,,,,,,
,,,,,,,,,,,,,FF,,,,,,,,4.4173,,,,,,,,,,,,,,,,,,,,,,61027e7e28245b6b5cab5e60,61036d616fe90b4772fc1a9b,2021-07-30_05h09.59.128,Simcolourproject_2stim_asymm_v5,2020.2.10,Win32,60,61025ae37ef11b136ea224fe,,,,,,,,,2768,-36,64,1,0,0,response7disk,,0,-3,1,1,0,0,rectangle,-45,42,1,0,0,-24,5,1,0,0,1,66,226,16,1,,response7disk_3,TRUE,1,1,"[303,156,138,291,27,6,159,246,262,299,162,148,216,125,227,265,30,84,13,302]",2.2003,rectangle
,,,,,,,,,,,,,FF,,,,,,,,1.2339,,,,,,,,,,,,,,,,,,,,,,61027e7e28245b6b5cab5e60,61036d616fe90b4772fc1a9b,2021-07-30_05h09.59.128,Simcolourproject_2stim_asymm_v5,2020.2.10,Win32,60,61025ae37ef11b136ea224fe,,,,,,,,,3517,21,61,1,0,0,response1disk,,7,5,8,1,0,0,rectangle,5,8,1,0,0,5,8,1,0,0,1,67,227,22,1,,,,,,,,
,,,,,,,,,,,,,FF,,,,,,,,1.0997,,,,,,,,,,,,,,,,,,,,,,61027e7e28245b6b5cab5e60,61036d616fe90b4772fc1a9b,2021-07-30_05h09.59.128,Simcolourproject_2stim_asymm_v5,2020.2.10,Win32,60,61025ae37ef11b136ea224fe,,,,,,,,,3432,36,62,1,0,0,response1disk,,7,-6,1,1,0,0,rectangle,-6,1,1,0,0,-6,1,1,0,0,1,68,228,150,1,,,,,,,,
,,,,,,,,,,,,,FF,,,,,,,,1.1495,,,,,,,,,,,,,,,,,,,,,,61027e7e28245b6b5cab5e60,61036d616fe90b4772fc1a9b,2021-07-30_05h09.59.128,Simcolourproject_2stim_asymm_v5,2020.2.10,Win32,60,61025ae37ef11b136ea224fe,,,,,,,,,1458,105,44,1,0,0,response1disk,,6,8,7,1,0,0,rectangle,8,7,1,0,0,8,7,1,0,0,1,69,229,39,1,,,,,,,,
,,,,,,,,,,,,,FF,,,,,,,,0.8499,,,,,,,,,,,,,,,,,,,,,,61027e7e28245b6b5cab5e60,61036d616fe90b4772fc1a9b,2021-07-30_05h09.59.128,Simcolourproject_2stim_asymm_v5,2020.2.10,Win32,60,61025ae37ef11b136ea224fe,,,,,,,,,1407,-39,76,1,0,0,response7disk,,0,-22,6,1,0,0,rectangle,-22,6,1,0,0,-22,6,1,0,0,1,70,230,147,1,,,,,,,,
,,,,,,,,,,,,,FF,,,,,,,,0.5666,,,,,,,,,,,,,,,,,,,,,,61027e7e28245b6b5cab5e60,61036d616fe90b4772fc1a9b,2021-07-30_05h09.59.128,Simcolourproject_2stim_asymm_v5,2020.2.10,Win32,60,61025ae37ef11b136ea224fe,,,,,,,,,766,-26,62,1,0,0,response7disk,,0,-18,15,1,0,0,rectangle,-18,15,1,0,0,-18,15,1,0,0,1,71,231,86,1,,,,,,,,
,,,,,,,,,,,,,FF,,,,,,,,0.9335,,,,,,,,,,,,,,,,,,,,,,61027e7e28245b6b5cab5e60,61036d616fe90b4772fc1a9b,2021-07-30_05h09.59.128,Simcolourproject_2stim_asymm_v5,2020.2.10,Win32,60,61025ae37ef11b136ea224fe,,,,,,,,,2985,-27,99,1,0,0,response7disk,,0,-23,3,1,0,0,rectangle,-23,3,1,0,0,-23,3,1,0,0,1,72,232,6,1,,,,,,,,
,,,,,,,,,,,,,FF,,,,,,,,0.7502,,,,,,,,,,,,,,,,,,,,,,61027e7e28245b6b5cab5e60,61036d616fe90b4772fc1a9b,2021-07-30_05h09.59.128,Simcolourproject_2stim_asymm_v5,2020.2.10,Win32,60,61025ae37ef11b136ea224fe,,,,,,,,,3879,-32,50,1,0,0,response7disk,,0,4,-10,1,0,0,rectangle,4,-10,1,0,0,4,-10,1,0,0,1,73,233,137,1,,,,,,,,
,,,,,,,,,,,,,FF,,,,,,,,0.7665,,,,,,,,,,,,,,,,,,,,,,61027e7e28245b6b5cab5e60,61036d616fe90b4772fc1a9b,2021-07-30_05h09.59.128,Simcolourproject_2stim_asymm_v5,2020.2.10,Win32,60,61025ae37ef11b136ea224fe,,,,,,,,,111,-32,71,1,0,0,response7disk,,0,-21,6,1,0,0,rectangle,-21,6,1,0,0,-21,6,1,0,0,1,74,234,51,1,,,,,,,,
,,,,,,,,,,,,,FF,,,,,,,,0.6165,,,,,,,,,,,,,,,,,,,,,,61027e7e28245b6b5cab5e60,61036d616fe90b4772fc1a9b,2021-07-30_05h09.59.128,Simcolourproject_2stim_asymm_v5,2020.2.10,Win32,60,61025ae37ef11b136ea224fe,,,,,,,,,2687,-36,51,1,0,0,response7disk,,0,-11,12,1,0,0,rectangle,-11,12,1,0,0,-11,12,1,0,0,1,75,235,75,1,,,,,,,,
,,,,,,,,,,,,,FF,,,,,,,,0.6835,,,,,,,,,,,,,,,,,,,,,,61027e7e28245b6b5cab5e60,61036d616fe90b4772fc1a9b,2021-07-30_05h09.59.128,Simcolourproject_2stim_asymm_v5,2020.2.10,Win32,60,61025ae37ef11b136ea224fe,,,,,,,,,3380,-33,73,1,0,0,response7disk,,0,-7,0,1,0,0,rectangle,-7,0,1,0,0,-7,0,1,0,0,1,76,236,100,1,,,,,,,,
,,,,,,,,,,,,,FF,,,,,,,,0.6669,,,,,,,,,,,,,,,,,,,,,,61027e7e28245b6b5cab5e60,61036d616fe90b4772fc1a9b,2021-07-30_05h09.59.128,Simcolourproject_2stim_asymm_v5,2020.2.10,Win32,60,61025ae37ef11b136ea224fe,,,,,,,,,433,-18,53,1,0,0,response7disk,,0,-3,11,1,0,0,rectangle,-3,11,1,0,0,-3,11,1,0,0,1,77,237,96,1,,,,,,,,
,,,,,,,,,,,,,FF,,,,,,,,4.1839,,,,,,,,,,,,,,,,,,,,,,61027e7e28245b6b5cab5e60,61036d616fe90b4772fc1a9b,2021-07-30_05h09.59.128,Simcolourproject_2stim_asymm_v5,2020.2.10,Win32,60,61025ae37ef11b136ea224fe,,,,,,,,,3722,-19,44,1,0,0,response7disk,,0,-8,2,1,0,0,rectangle,-8,2,1,0,0,-8,2,1,0,0,1,78,238,46,1,,,,,,,,
,,,,,,,,,,,,,FF,,,,,,,,0.7165,,,,,,,,,,,,,,,,,,,,,,61027e7e28245b6b5cab5e60,61036d616fe90b4772fc1a9b,2021-07-30_05h09.59.128,Simcolourproject_2stim_asymm_v5,2020.2.10,Win32,60,61025ae37ef11b136ea224fe,,,,,,,,,1080,-24,68,1,0,0,response7disk,,0,-4,3,1,0,0,rectangle,-4,3,1,0,0,-4,3,1,0,0,1,79,239,0,1,,,,,,,,
,,,,,,,,,,,,,FF,,,,,,,,1.967,,,,,,,,,,,,,,,,,,,,,,61027e7e28245b6b5cab5e60,61036d616fe90b4772fc1a9b,2021-07-30_05h09.59.128,Simcolourproject_2stim_asymm_v5,2020.2.10,Win32,60,61025ae37ef11b136ea224fe,,,,,,,,,3913,112,40,1,0,0,response1disk,,6,-17,4,1,0,0,rectangle,-17,4,1,0,0,-17,4,1,0,0,1,80,240,55,1,,,,,,,,
,,,,,,,,,,,,,FF,,,,,,,,2.6672,,,,,,,,,,,,,,,,,,,,,,61027e7e28245b6b5cab5e60,61036d616fe90b4772fc1a9b,2021-07-30_05h09.59.128,Simcolourproject_2stim_asymm_v5,2020.2.10,Win32,60,61025ae37ef11b136ea224fe,,,,,,,,,3481,-67,62,1,0,0,response7disk,,1,0,0,1,0,0,rectangle,0,0,1,0,0,0,0,1,0,0,1,81,241,56,1,,,,,,,,
,,,,,,,,,,,,,FF,,,,,,,,1.7335,,,,,,,,,,,,,,,,,,,,,,61027e7e28245b6b5cab5e60,61036d616fe90b4772fc1a9b,2021-07-30_05h09.59.128,Simcolourproject_2stim_asymm_v5,2020.2.10,Win32,60,61025ae37ef11b136ea224fe,,,,,,,,,2750,-49,74,1,0,0,response7disk,,0,-23,-2,1,0,0,rectangle,-23,-2,1,0,0,-23,-2,1,0,0,1,82,242,106,1,,,,,,,,
,,,,,,,,,,,,,FF,,,,,,,,0.7991,,,,,,,,,,,,,,,,,,,,,,61027e7e28245b6b5cab5e60,61036d616fe90b4772fc1a9b,2021-07-30_05h09.59.128,Simcolourproject_2stim_asymm_v5,2020.2.10,Win32,60,61025ae37ef11b136ea224fe,,,,,,,,,3277,-37,48,1,0,0,response7disk,,0,-6,7,1,0,0,rectangle,-6,7,1,0,0,-6,7,1,0,0,1,83,243,115,1,,,,,,,,
,,,,,,,,,,,,,FF,,,,,,,,0.8665,,,,,,,,,,,,,,,,,,,,,,61027e7e28245b6b5cab5e60,61036d616fe90b4772fc1a9b,2021-07-30_05h09.59.128,Simcolourproject_2stim_asymm_v5,2020.2.10,Win32,60,61025ae37ef11b136ea224fe,,,,,,,,,1663,-27,71,1,0,0,response7disk,,0,-5,-2,1,0,0,rectangle,-5,-2,1,0,0,-5,-2,1,0,0,1,84,244,140,1,,,,,,,,
,,,,,,,,,,,,,FF,,,,,,,,0.883,,,,,,,,,,,,,,,,,,,,,,61027e7e28245b6b5cab5e60,61036d616fe90b4772fc1a9b,2021-07-30_05h09.59.128,Simcolourproject_2stim_asymm_v5,2020.2.10,Win32,60,61025ae37ef11b136ea224fe,,,,,,,,,3447,-22,71,1,0,0,response7disk,,0,-10,-3,1,0,0,rectangle,87,-35,1,0,0,-4,15,1,0,0,1,85,245,50,1,,response3disk_3,TRUE,5,5,"[303,156,138,291,27,6,159,246,262,299,162,148,216,125,227,265,30,84,13,302]",2.6502,rectangle
,,,,,,,,,,,,,FF,,,,,,,,1.3343,,,,,,,,,,,,,,,,,,,,,,61027e7e28245b6b5cab5e60,61036d616fe90b4772fc1a9b,2021-07-30_05h09.59.128,Simcolourproject_2stim_asymm_v5,2020.2.10,Win32,60,61025ae37ef11b136ea224fe,,,,,,,,,254,-54,78,1,0,0,response7disk,,0,-8,-4,1,0,0,rectangle,-8,-4,1,0,0,-8,-4,1,0,0,1,86,246,124,1,,,,,,,,
,,,,,,,,,,,,,FF,,,,,,,,0.833,,,,,,,,,,,,,,,,,,,,,,61027e7e28245b6b5cab5e60,61036d616fe90b4772fc1a9b,2021-07-30_05h09.59.128,Simcolourproject_2stim_asymm_v5,2020.2.10,Win32,60,61025ae37ef11b136ea224fe,,,,,,,,,1127,-44,68,1,0,0,response7disk,,0,-6,5,1,0,0,rectangle,-6,5,1,0,0,-6,5,1,0,0,1,87,247,138,1,,,,,,,,
,,,,,,,,,,,,,FF,,,,,,,,0.634,,,,,,,,,,,,,,,,,,,,,,61027e7e28245b6b5cab5e60,61036d616fe90b4772fc1a9b,2021-07-30_05h09.59.128,Simcolourproject_2stim_asymm_v5,2020.2.10,Win32,60,61025ae37ef11b136ea224fe,,,,,,,,,2011,-30,55,1,0,0,response7disk,,0,-6,10,1,0,0,rectangle,-6,10,1,0,0,-6,10,1,0,0,1,88,248,103,1,,,,,,,,
,,,,,,,,,,,,,FF,,,,,,,,1.4494,,,,,,,,,,,,,,,,,,,,,,61027e7e28245b6b5cab5e60,61036d616fe90b4772fc1a9b,2021-07-30_05h09.59.128,Simcolourproject_2stim_asymm_v5,2020.2.10,Win32,60,61025ae37ef11b136ea224fe,,,,,,,,,1689,-78,23,1,0,0,response7disk,,1,5,11,1,0,0,rectangle,5,11,1,0,0,5,11,1,0,0,1,89,249,59,1,,,,,,,,
,,,,,,,,,,,,,FF,,,,,,,,2.317,,,,,,,,,,,,,,,,,,,,,,61027e7e28245b6b5cab5e60,61036d616fe90b4772fc1a9b,2021-07-30_05h09.59.128,Simcolourproject_2stim_asymm_v5,2020.2.10,Win32,60,61025ae37ef11b136ea224fe,,,,,,,,,637,100,-39,1,0,0,response3disk,,5,4,5,1,0,0,rectangle,4,5,1,0,0,4,5,1,0,0,1,90,250,67,1,,,,,,,,
,,,,,,,,,,,,,FF,,,,,,,,0.8,,,,,,,,,,,,,,,,,,,,,,61027e7e28245b6b5cab5e60,61036d616fe90b4772fc1a9b,2021-07-30_05h09.59.128,Simcolourproject_2stim_asymm_v5,2020.2.10,Win32,60,61025ae37ef11b136ea224fe,,,,,,,,,2510,-35,83,1,0,0,response7disk,,0,12,-1,1,0,0,rectangle,12,-1,1,0,0,12,-1,1,0,0,1,91,251,24,1,,,,,,,,
,,,,,,,,,,,,,FF,,,,,,,,0.8002,,,,,,,,,,,,,,,,,,,,,,61027e7e28245b6b5cab5e60,61036d616fe90b4772fc1a9b,2021-07-30_05h09.59.128,Simcolourproject_2stim_asymm_v5,2020.2.10,Win32,60,61025ae37ef11b136ea224fe,,,,,,,,,734,-58,100,1,0,0,response7disk,,0,-5,3,1,0,0,rectangle,-5,3,1,0,0,-5,3,1,0,0,1,92,252,146,1,,,,,,,,
,,,,,,,,,,,,,FF,,,,,,,,1.0674,,,,,,,,,,,,,,,,,,,,,,61027e7e28245b6b5cab5e60,61036d616fe90b4772fc1a9b,2021-07-30_05h09.59.128,Simcolourproject_2stim_asymm_v5,2020.2.10,Win32,60,61025ae37ef11b136ea224fe,,,,,,,,,3508,-43,69,1,0,0,response7disk,,0,-25,6,1,0,0,rectangle,-25,6,1,0,0,-25,6,1,0,0,1,93,253,58,1,,,,,,,,
,,,,,,,,,,,,,FF,,,,,,,,2.3503,,,,,,,,,,,,,,,,,,,,,,61027e7e28245b6b5cab5e60,61036d616fe90b4772fc1a9b,2021-07-30_05h09.59.128,Simcolourproject_2stim_asymm_v5,2020.2.10,Win32,60,61025ae37ef11b136ea224fe,,,,,,,,,2268,-42,105,1,0,0,response7disk,,0,-4,10,1,0,0,rectangle,-4,10,1,0,0,-4,10,1,0,0,1,94,254,148,1,,,,,,,,
,,,,,,,,,,,,,FF,,,,,,,,2.9838,,,,,,,,,,,,,,,,,,,,,,61027e7e28245b6b5cab5e60,61036d616fe90b4772fc1a9b,2021-07-30_05h09.59.128,Simcolourproject_2stim_asymm_v5,2020.2.10,Win32,60,61025ae37ef11b136ea224fe,,,,,,,,,3771,-17,42,1,0,0,response7disk,,0,-3,-8,1,0,0,rectangle,-3,-8,1,0,0,-3,-8,1,0,0,1,95,255,135,1,,,,,,,,
,,,,,,,,,,,,,FF,,,,,,,,0.8669,,,,,,,,,,,,,,,,,,,,,,61027e7e28245b6b5cab5e60,61036d616fe90b4772fc1a9b,2021-07-30_05h09.59.128,Simcolourproject_2stim_asymm_v5,2020.2.10,Win32,60,61025ae37ef11b136ea224fe,,,,,,,,,3276,-49,80,1,0,0,response7disk,,0,0,4,1,0,0,rectangle,0,4,1,0,0,0,4,1,0,0,1,96,256,159,1,,,,,,,,
,,,,,,,,,,,,,FF,,,,,,,,1.6336,,,,,,,,,,,,,,,,,,,,,,61027e7e28245b6b5cab5e60,61036d616fe90b4772fc1a9b,2021-07-30_05h09.59.128,Simcolourproject_2stim_asymm_v5,2020.2.10,Win32,60,61025ae37ef11b136ea224fe,,,,,,,,,3530,-46,69,1,0,0,response7disk,,0,-10,8,1,0,0,rectangle,-10,8,1,0,0,-10,8,1,0,0,1,97,257,78,1,,,,,,,,
,,,,,,,,,,,,,FF,,,,,,,,1.4181,,,,,,,,,,,,,,,,,,,,,,61027e7e28245b6b5cab5e60,61036d616fe90b4772fc1a9b,2021-07-30_05h09.59.128,Simcolourproject_2stim_asymm_v5,2020.2.10,Win32,60,61025ae37ef11b136ea224fe,,,,,,,,,870,-51,91,1,0,0,response7disk,,0,-3,4,1,0,0,rectangle,-3,4,1,0,0,-3,4,1,0,0,1,98,258,35,1,,,,,,,,
,,,,,,,,,,,,,FF,,,,,,,,0.9669,,,,,,,,,,,,,,,,,,,,,,61027e7e28245b6b5cab5e60,61036d616fe90b4772fc1a9b,2021-07-30_05h09.59.128,Simcolourproject_2stim_asymm_v5,2020.2.10,Win32,60,61025ae37ef11b136ea224fe,,,,,,,,,1483,-30,67,1,0,0,response7disk,,0,-6,12,1,0,0,rectangle,-6,12,1,0,0,-6,12,1,0,0,1,99,259,54,1,,,,,,,,
,,,,,,,,,,,,,FF,,,,,,,,0.7672,,,,,,,,,,,,,,,,,,,,,,61027e7e28245b6b5cab5e60,61036d616fe90b4772fc1a9b,2021-07-30_05h09.59.128,Simcolourproject_2stim_asymm_v5,2020.2.10,Win32,60,61025ae37ef11b136ea224fe,,,,,,,,,2091,-33,57,1,0,0,response7disk,,0,-1,-3,1,0,0,rectangle,-1,-3,1,0,0,-1,-3,1,0,0,1,100,260,99,1,,,,,,,,
,,,,,,,,,,,,,FF,,,,,,,,1.6839,,,,,,,,,,,,,,,,,,,,,,61027e7e28245b6b5cab5e60,61036d616fe90b4772fc1a9b,2021-07-30_05h09.59.128,Simcolourproject_2stim_asymm_v5,2020.2.10,Win32,60,61025ae37ef11b136ea224fe,,,,,,,,,2673,-73,56,1,0,0,response7disk,,1,-27,13,1,0,0,rectangle,102,-24,1,0,0,0,10,1,0,0,1,101,261,33,1,,response3disk_3,TRUE,5,5,"[303,156,138,291,27,6,159,246,262,299,162,148,216,125,227,265,30,84,13,302]",2.8836,rectangle
,,,,,,,,,,,,,FF,,,,,,,,1.2187,,,,,,,,,,,,,,,,,,,,,,61027e7e28245b6b5cab5e60,61036d616fe90b4772fc1a9b,2021-07-30_05h09.59.128,Simcolourproject_2stim_asymm_v5,2020.2.10,Win32,60,61025ae37ef11b136ea224fe,,,,,,,,,1927,-21,66,1,0,0,response7disk,,0,-6,2,1,0,0,rectangle,-6,2,1,0,0,-6,2,1,0,0,1,102,262,116,1,,,,,,,,
,,,,,,,,,,,,,FF,,,,,,,,0.8661,,,,,,,,,,,,,,,,,,,,,,61027e7e28245b6b5cab5e60,61036d616fe90b4772fc1a9b,2021-07-30_05h09.59.128,Simcolourproject_2stim_asymm_v5,2020.2.10,Win32,60,61025ae37ef11b136ea224fe,,,,,,,,,1262,-42,63,1,0,0,response7disk,,0,-18,6,1,0,0,rectangle,-18,6,1,0,0,-18,6,1,0,0,1,103,263,17,1,,,,,,,,
,,,,,,,,,,,,,FF,,,,,,,,0.6336,,,,,,,,,,,,,,,,,,,,,,61027e7e28245b6b5cab5e60,61036d616fe90b4772fc1a9b,2021-07-30_05h09.59.128,Simcolourproject_2stim_asymm_v5,2020.2.10,Win32,60,61025ae37ef11b136ea224fe,,,,,,,,,2856,-41,76,1,0,0,response7disk,,0,-4,-3,1,0,0,rectangle,99,-34,1,0,0,30,-4,1,0,0,1,104,264,111,1,,response3disk_3,TRUE,5,5,"[303,156,138,291,27,6,159,246,262,299,162,148,216,125,227,265,30,84,13,302]",2.3165,rectangle
,,,,,,,,,,,,,FF,,,,,,,,4.0841,,,,,,,,,,,,,,,,,,,,,,61027e7e28245b6b5cab5e60,61036d616fe90b4772fc1a9b,2021-07-30_05h09.59.128,Simcolourproject_2stim_asymm_v5,2020.2.10,Win32,60,61025ae37ef11b136ea224fe,,,,,,,,,2976,-78,-24,1,0,0,response5disk,,2,4,3,1,0,0,rectangle,4,3,1,0,0,4,3,1,0,0,1,105,265,68,1,,,,,,,,
,,,,,,,,,,,,,FF,,,,,,,,1.3335,,,,,,,,,,,,,,,,,,,,,,61027e7e28245b6b5cab5e60,61036d616fe90b4772fc1a9b,2021-07-30_05h09.59.128,Simcolourproject_2stim_asymm_v5,2020.2.10,Win32,60,61025ae37ef11b136ea224fe,,,,,,,,,424,-19,44,1,0,0,response7disk,,0,-17,3,1,0,0,rectangle,-17,3,1,0,0,-17,3,1,0,0,1,106,266,105,1,,,,,,,,
,,,,,,,,,,,,,FF,,,,,,,,0.8672,,,,,,,,,,,,,,,,,,,,,,61027e7e28245b6b5cab5e60,61036d616fe90b4772fc1a9b,2021-07-30_05h09.59.128,Simcolourproject_2stim_asymm_v5,2020.2.10,Win32,60,61025ae37ef11b136ea224fe,,,,,,,,,1777,-40,79,1,0,0,response7disk,,0,10,4,1,0,0,rectangle,10,4,1,0,0,10,4,1,0,0,1,107,267,66,1,,,,,,,,
,,,,,,,,,,,,,FF,,,,,,,,1.1339,,,,,,,,,,,,,,,,,,,,,,61027e7e28245b6b5cab5e60,61036d616fe90b4772fc1a9b,2021-07-30_05h09.59.128,Simcolourproject_2stim_asymm_v5,2020.2.10,Win32,60,61025ae37ef11b136ea224fe,,,,,,,,,1537,-58,-27,1,0,0,response5disk,,2,-8,-2,1,0,0,rectangle,-8,-2,1,0,0,-8,-2,1,0,0,1,108,268,120,1,,,,,,,,
,,,,,,,,,,,,,FF,,,,,,,,1.2004,,,,,,,,,,,,,,,,,,,,,,61027e7e28245b6b5cab5e60,61036d616fe90b4772fc1a9b,2021-07-30_05h09.59.128,Simcolourproject_2stim_asymm_v5,2020.2.10,Win32,60,61025ae37ef11b136ea224fe,,,,,,,,,2965,-54,63,1,0,0,response7disk,,0,-14,13,1,0,0,rectangle,-14,13,1,0,0,-14,13,1,0,0,1,109,269,95,1,,,,,,,,
,,,,,,,,,,,,,FF,,,,,,,,0.9625,,,,,,,,,,,,,,,,,,,,,,61027e7e28245b6b5cab5e60,61036d616fe90b4772fc1a9b,2021-07-30_05h09.59.128,Simcolourproject_2stim_asymm_v5,2020.2.10,Win32,60,61025ae37ef11b136ea224fe,,,,,,,,,151,-18,48,1,0,0,response7disk,,0,-3,-6,1,0,0,rectangle,-3,-6,1,0,0,-3,-6,1,0,0,1,110,270,37,1,,,,,,,,
,,,,,,,,,,,,,FF,,,,,,,,2.2165,,,,,,,,,,,,,,,,,,,,,,61027e7e28245b6b5cab5e60,61036d616fe90b4772fc1a9b,2021-07-30_05h09.59.128,Simcolourproject_2stim_asymm_v5,2020.2.10,Win32,60,61025ae37ef11b136ea224fe,,,,,,,,,486,-46,71,1,0,0,response7disk,,0,-4,12,1,0,0,rectangle,-4,12,1,0,0,-4,12,1,0,0,1,111,271,25,1,,,,,,,,
,,,,,,,,,,,,,FF,,,,,,,,3.0006,,,,,,,,,,,,,,,,,,,,,,61027e7e28245b6b5cab5e60,61036d616fe90b4772fc1a9b,2021-07-30_05h09.59.128,Simcolourproject_2stim_asymm_v5,2020.2.10,Win32,60,61025ae37ef11b136ea224fe,,,,,,,,,4358,-43,-87,1,0,0,response5disk,,3,-1,0,1,0,0,rectangle,-1,0,1,0,0,-1,0,1,0,0,1,112,272,83,1,,,,,,,,
,,,,,,,,,,,,,FF,,,,,,,,1.3666,,,,,,,,,,,,,,,,,,,,,,61027e7e28245b6b5cab5e60,61036d616fe90b4772fc1a9b,2021-07-30_05h09.59.128,Simcolourproject_2stim_asymm_v5,2020.2.10,Win32,60,61025ae37ef11b136ea224fe,,,,,,,,,4219,-26,83,1,0,0,response7disk,,0,8,6,1,0,0,rectangle,8,6,1,0,0,8,6,1,0,0,1,113,273,149,1,,,,,,,,
,,,,,,,,,,,,,FF,,,,,,,,2.6839,,,,,,,,,,,,,,,,,,,,,,61027e7e28245b6b5cab5e60,61036d616fe90b4772fc1a9b,2021-07-30_05h09.59.128,Simcolourproject_2stim_asymm_v5,2020.2.10,Win32,60,61025ae37ef11b136ea224fe,,,,,,,,,946,-28,64,1,0,0,response7disk,,0,3,-8,1,0,0,rectangle,3,-8,1,0,0,3,-8,1,0,0,1,114,274,4,1,,,,,,,,
,,,,,,,,,,,,,FF,,,,,,,,2.919,,,,,,,,,,,,,,,,,,,,,,61027e7e28245b6b5cab5e60,61036d616fe90b4772fc1a9b,2021-07-30_05h09.59.128,Simcolourproject_2stim_asymm_v5,2020.2.10,Win32,60,61025ae37ef11b136ea224fe,,,,,,,,,3497,-37,89,1,0,0,response7disk,,0,-6,-5,1,0,0,rectangle,-6,-5,1,0,0,-6,-5,1,0,0,1,115,275,57,1,,,,,,,,
,,,,,,,,,,,,,FF,,,,,,,,1.0163,,,,,,,,,,,,,,,,,,,,,,61027e7e28245b6b5cab5e60,61036d616fe90b4772fc1a9b,2021-07-30_05h09.59.128,Simcolourproject_2stim_asymm_v5,2020.2.10,Win32,60,61025ae37ef11b136ea224fe,,,,,,,,,4329,-42,28,1,0,0,response7disk,,1,-15,0,1,0,0,rectangle,-15,0,1,0,0,-15,0,1,0,0,1,116,276,114,1,,,,,,,,
,,,,,,,,,,,,,FF,,,,,,,,2.4664,,,,,,,,,,,,,,,,,,,,,,61027e7e28245b6b5cab5e60,61036d616fe90b4772fc1a9b,2021-07-30_05h09.59.128,Simcolourproject_2stim_asymm_v5,2020.2.10,Win32,60,61025ae37ef11b136ea224fe,,,,,,,,,1543,-41,34,1,0,0,response7disk,,1,-6,-1,1,0,0,rectangle,-6,-1,1,0,0,-6,-1,1,0,0,1,117,277,154,1,,,,,,,,
,,,,,,,,,,,,,FF,,,,,,,,5.8182,,,,,,,,,,,,,,,,,,,,,,61027e7e28245b6b5cab5e60,61036d616fe90b4772fc1a9b,2021-07-30_05h09.59.128,Simcolourproject_2stim_asymm_v5,2020.2.10,Win32,60,61025ae37ef11b136ea224fe,,,,,,,,,1020,-36,54,1,0,0,response7disk,,0,-16,7,1,0,0,rectangle,-16,7,1,0,0,-16,7,1,0,0,1,118,278,119,1,,,,,,,,
,,,,,,,,,,,,,FF,,,,,,,,1.0835,,,,,,,,,,,,,,,,,,,,,,61027e7e28245b6b5cab5e60,61036d616fe90b4772fc1a9b,2021-07-30_05h09.59.128,Simcolourproject_2stim_asymm_v5,2020.2.10,Win32,60,61025ae37ef11b136ea224fe,,,,,,,,,171,44,29,1,0,0,response1disk,,6,11,-11,1,0,0,rectangle,11,-11,1,0,0,11,-11,1,0,0,1,119,279,91,1,,,,,,,,
,,,,,,,,,,,,,FF,,,,,,,,0.8834,,,,,,,,,,,,,,,,,,,,,,61027e7e28245b6b5cab5e60,61036d616fe90b4772fc1a9b,2021-07-30_05h09.59.128,Simcolourproject_2stim_asymm_v5,2020.2.10,Win32,60,61025ae37ef11b136ea224fe,,,,,,,,,290,-26,46,1,0,0,response7disk,,0,-8,-4,1,0,0,rectangle,-8,-4,1,0,0,-8,-4,1,0,0,1,120,280,139,1,,,,,,,,
,,,,,,,,,,,,,FF,,,,,,,,1.2664,,,,,,,,,,,,,,,,,,,,,,61027e7e28245b6b5cab5e60,61036d616fe90b4772fc1a9b,2021-07-30_05h09.59.128,Simcolourproject_2stim_asymm_v5,2020.2.10,Win32,60,61025ae37ef11b136ea224fe,,,,,,,,,2244,-79,40,1,0,0,response7disk,,1,-21,6,1,0,0,rectangle,-21,6,1,0,0,-21,6,1,0,0,1,121,281,125,1,,,,,,,,
,,,,,,,,,,,,,FF,,,,,,,,2.1334,,,,,,,,,,,,,,,,,,,,,,61027e7e28245b6b5cab5e60,61036d616fe90b4772fc1a9b,2021-07-30_05h09.59.128,Simcolourproject_2stim_asymm_v5,2020.2.10,Win32,60,61025ae37ef11b136ea224fe,,,,,,,,,3103,-39,39,1,0,0,response7disk,,1,-12,-7,1,0,0,rectangle,-12,-7,1,0,0,-12,-7,1,0,0,1,122,282,121,1,,,,,,,,
,,,,,,,,,,,,,FF,,,,,,,,2.919,,,,,,,,,,,,,,,,,,,,,,61027e7e28245b6b5cab5e60,61036d616fe90b4772fc1a9b,2021-07-30_05h09.59.128,Simcolourproject_2stim_asymm_v5,2020.2.10,Win32,60,61025ae37ef11b136ea224fe,,,,,,,,,1753,-73,-24,1,0,0,response5disk,,2,1,-9,1,0,0,rectangle,1,-9,1,0,0,1,-9,1,0,0,1,123,283,142,1,,,,,,,,
,,,,,,,,,,,,,FF,,,,,,,,1.1173,,,,,,,,,,,,,,,,,,,,,,61027e7e28245b6b5cab5e60,61036d616fe90b4772fc1a9b,2021-07-30_05h09.59.128,Simcolourproject_2stim_asymm_v5,2020.2.10,Win32,60,61025ae37ef11b136ea224fe,,,,,,,,,3347,-39,98,1,0,0,response7disk,,0,-10,6,1,0,0,rectangle,-10,6,1,0,0,-10,6,1,0,0,1,124,284,69,1,,,,,,,,
,,,,,,,,,,,,,FF,,,,,,,,0.8334,,,,,,,,,,,,,,,,,,,,,,61027e7e28245b6b5cab5e60,61036d616fe90b4772fc1a9b,2021-07-30_05h09.59.128,Simcolourproject_2stim_asymm_v5,2020.2.10,Win32,60,61025ae37ef11b136ea224fe,,,,,,,,,532,25,62,1,0,0,response1disk,,7,-2,2,1,0,0,rectangle,-2,2,1,0,0,-2,2,1,0,0,1,125,285,38,1,,,,,,,,
,,,,,,,,,,,,,FF,,,,,,,,2.2335,,,,,,,,,,,,,,,,,,,,,,61027e7e28245b6b5cab5e60,61036d616fe90b4772fc1a9b,2021-07-30_05h09.59.128,Simcolourproject_2stim_asymm_v5,2020.2.10,Win32,60,61025ae37ef11b136ea224fe,,,,,,,,,4235,20,79,1,0,0,response1disk,,7,3,8,1,0,0,rectangle,3,8,1,0,0,3,8,1,0,0,1,126,286,20,1,,,,,,,,
,,,,,,,,,,,,,FF,,,,,,,,1.1502,,,,,,,,,,,,,,,,,,,,,,61027e7e28245b6b5cab5e60,61036d616fe90b4772fc1a9b,2021-07-30_05h09.59.128,Simcolourproject_2stim_asymm_v5,2020.2.10,Win32,60,61025ae37ef11b136ea224fe,,,,,,,,,2651,-37,58,1,0,0,response7disk,,0,-8,5,1,0,0,rectangle,-8,5,1,0,0,-8,5,1,0,0,1,127,287,14,1,,,,,,,,
,,,,,,,,,,,,,FF,,,,,,,,1.1503,,,,,,,,,,,,,,,,,,,,,,61027e7e28245b6b5cab5e60,61036d616fe90b4772fc1a9b,2021-07-30_05h09.59.128,Simcolourproject_2stim_asymm_v5,2020.2.10,Win32,60,61025ae37ef11b136ea224fe,,,,,,,,,3451,-35,64,1,0,0,response7disk,,0,-15,15,1,0,0,rectangle,-15,15,1,0,0,-15,15,1,0,0,1,128,288,18,1,,,,,,,,
,,,,,,,,,,,,,FF,,,,,,,,0.8186,,,,,,,,,,,,,,,,,,,,,,61027e7e28245b6b5cab5e60,61036d616fe90b4772fc1a9b,2021-07-30_05h09.59.128,Simcolourproject_2stim_asymm_v5,2020.2.10,Win32,60,61025ae37ef11b136ea224fe,,,,,,,,,1359,-28,72,1,0,0,response7disk,,0,-2,7,1,0,0,rectangle,-2,7,1,0,0,-2,7,1,0,0,1,129,289,62,1,,,,,,,,
,,,,,,,,,,,,,FF,,,,,,,,2.0978,,,,,,,,,,,,,,,,,,,,,,61027e7e28245b6b5cab5e60,61036d616fe90b4772fc1a9b,2021-07-30_05h09.59.128,Simcolourproject_2stim_asymm_v5,2020.2.10,Win32,60,61025ae37ef11b136ea224fe,,,,,,,,,3904,-26,42,0,0,1,response7disk,,0,-2,4,1,0,0,rectangle,-24,63,1,0,0,7,7,1,0,0,1,130,290,127,1,,response7disk_3,TRUE,0,0,"[303,156,138,291,27,6,159,246,262,299,162,148,216,125,227,265,30,84,13,302]",2.4171,rectangle
,,,,,,,,,,,,,FF,,,,,,,,1.483,,,,,,,,,,,,,,,,,,,,,,61027e7e28245b6b5cab5e60,61036d616fe90b4772fc1a9b,2021-07-30_05h09.59.128,Simcolourproject_2stim_asymm_v5,2020.2.10,Win32,60,61025ae37ef11b136ea224fe,,,,,,,,,906,-83,-22,1,0,0,response5disk,,2,-25,-6,1,0,0,rectangle,-25,-6,1,0,0,-25,-6,1,0,0,1,131,291,145,1,,,,,,,,
,,,,,,,,,,,,,FF,,,,,,,,1.1511,,,,,,,,,,,,,,,,,,,,,,61027e7e28245b6b5cab5e60,61036d616fe90b4772fc1a9b,2021-07-30_05h09.59.128,Simcolourproject_2stim_asymm_v5,2020.2.10,Win32,60,61025ae37ef11b136ea224fe,,,,,,,,,988,-48,-29,1,0,0,response5disk,,2,-3,4,1,0,0,rectangle,-3,4,1,0,0,-3,4,1,0,0,1,132,292,3,1,,,,,,,,
,,,,,,,,,,,,,FF,,,,,,,,2.0173,,,,,,,,,,,,,,,,,,,,,,61027e7e28245b6b5cab5e60,61036d616fe90b4772fc1a9b,2021-07-30_05h09.59.128,Simcolourproject_2stim_asymm_v5,2020.2.10,Win32,60,61025ae37ef11b136ea224fe,,,,,,,,,1746,-53,-36,1,0,0,response5disk,,2,0,4,1,0,0,rectangle,0,4,1,0,0,0,4,1,0,0,1,133,293,80,1,,,,,,,,
,,,,,,,,,,,,,FF,,,,,,,,1.8342,,,,,,,,,,,,,,,,,,,,,,61027e7e28245b6b5cab5e60,61036d616fe90b4772fc1a9b,2021-07-30_05h09.59.128,Simcolourproject_2stim_asymm_v5,2020.2.10,Win32,60,61025ae37ef11b136ea224fe,,,,,,,,,2014,-44,69,1,0,0,response7disk,,0,-14,7,1,0,0,rectangle,-14,7,1,0,0,-14,7,1,0,0,1,134,294,32,1,,,,,,,,
,,,,,,,,,,,,,FF,,,,,,,,1.4668,,,,,,,,,,,,,,,,,,,,,,61027e7e28245b6b5cab5e60,61036d616fe90b4772fc1a9b,2021-07-30_05h09.59.128,Simcolourproject_2stim_asymm_v5,2020.2.10,Win32,60,61025ae37ef11b136ea224fe,,,,,,,,,1855,-52,94,1,0,0,response7disk,,0,-6,12,1,0,0,rectangle,-6,12,1,0,0,-6,12,1,0,0,1,135,295,65,1,,,,,,,,
,,,,,,,,,,,,,FF,,,,,,,,3.8341,,,,,,,,,,,,,,,,,,,,,,61027e7e28245b6b5cab5e60,61036d616fe90b4772fc1a9b,2021-07-30_05h09.59.128,Simcolourproject_2stim_asymm_v5,2020.2.10,Win32,60,61025ae37ef11b136ea224fe,,,,,,,,,1556,-39,50,1,0,0,response7disk,,0,-13,11,1,0,0,rectangle,-13,11,1,0,0,-13,11,1,0,0,1,136,296,129,1,,,,,,,,
,,,,,,,,,,,,,FF,,,,,,,,1.3171,,,,,,,,,,,,,,,,,,,,,,61027e7e28245b6b5cab5e60,61036d616fe90b4772fc1a9b,2021-07-30_05h09.59.128,Simcolourproject_2stim_asymm_v5,2020.2.10,Win32,60,61025ae37ef11b136ea224fe,,,,,,,,,883,-27,85,1,0,0,response7disk,,0,9,6,1,0,0,rectangle,9,6,1,0,0,9,6,1,0,0,1,137,297,151,1,,,,,,,,
,,,,,,,,,,,,,FF,,,,,,,,1.501,,,,,,,,,,,,,,,,,,,,,,61027e7e28245b6b5cab5e60,61036d616fe90b4772fc1a9b,2021-07-30_05h09.59.128,Simcolourproject_2stim_asymm_v5,2020.2.10,Win32,60,61025ae37ef11b136ea224fe,,,,,,,,,3758,-23,67,1,0,0,response7disk,,0,-4,-5,1,0,0,rectangle,-97,-60,1,0,0,-7,-10,1,0,0,1,138,298,109,1,,response5disk_3,TRUE,2,2,"[303,156,138,291,27,6,159,246,262,299,162,148,216,125,227,265,30,84,13,302]",2.4837,rectangle
,,,,,,,,,,,,,FF,,,,,,,,2.0496,,,,,,,,,,,,,,,,,,,,,,61027e7e28245b6b5cab5e60,61036d616fe90b4772fc1a9b,2021-07-30_05h09.59.128,Simcolourproject_2stim_asymm_v5,2020.2.10,Win32,60,61025ae37ef11b136ea224fe,,,,,,,,,3355,-55,91,1,0,0,response7disk,,0,10,-4,1,0,0,rectangle,10,-4,1,0,0,10,-4,1,0,0,1,139,299,77,1,,,,,,,,
,,,,,,,,,,,,,FF,,,,,,,,0.9332,,,,,,,,,,,,,,,,,,,,,,61027e7e28245b6b5cab5e60,61036d616fe90b4772fc1a9b,2021-07-30_05h09.59.128,Simcolourproject_2stim_asymm_v5,2020.2.10,Win32,60,61025ae37ef11b136ea224fe,,,,,,,,,2075,-29,61,1,0,0,response7disk,,0,-7,8,1,0,0,rectangle,-7,8,1,0,0,-7,8,1,0,0,1,140,300,40,1,,,,,,,,
