key_resp.keys,key_resp.rt,key_resp_14.keys,key_resp_14.rt,key_resp_15.keys,key_resp_15.rt,key_resp_17.keys,key_resp_17.rt,key_resp_9.keys,key_resp_9.rt,key_resp_10.keys,key_resp_10.rt,practice_comparison,Ecc,mouse_5.x,mouse_5.y,mouse_5.leftButton,mouse_5.midButton,mouse_5.rightButton,mouse_5.clicked_name,pracsimilarity,response_time,mouse_10.x,mouse_10.y,mouse_10.leftButton,mouse_10.midButton,mouse_10.rightButton,mouse_10.clicked_name,mouse_7.x,mouse_7.y,mouse_7.leftButton,mouse_7.midButton,mouse_7.rightButton,mouse_6.x,mouse_6.y,mouse_6.leftButton,mouse_6.midButton,mouse_6.rightButton,duringprac.thisRepN,duringprac.thisTrialN,duringprac.thisN,duringprac.thisIndex,duringprac.ran,participant,session,date,expName,psychopyVersion,OS,frameRate,study_id,mouse_7.clicked_name,catchpracsimilarity,catch_response_time,catchnumberprac,catchtrialorderprac,mouse_6.clicked_name,key_resp_22.keys,key_resp_22.rt,realcomparison,mouse.x,mouse.y,mouse.leftButton,mouse.midButton,mouse.rightButton,mouse.clicked_name,Colour2,similarity,mouse_2.x,mouse_2.y,mouse_2.leftButton,mouse_2.midButton,mouse_2.rightButton,mouse_2.clicked_name,mouse_3.x,mouse_3.y,mouse_3.leftButton,mouse_3.midButton,mouse_3.rightButton,mouse_11.x,mouse_11.y,mouse_11.leftButton,mouse_11.midButton,mouse_11.rightButton,trials_2.thisRepN,trials_2.thisTrialN,trials_2.thisN,trials_2.thisIndex,trials_2.ran,Colour1,mouse_3.clicked_name,catchornah,catchsimilarity,catchnumber,catchtrialorder,catchRT,mouse_11.clicked_name
space,1.3759,space,1.0154,space,7.9019,space,1.6194,space,0.6066,space,2.4657,80,PF,49.33166504,91.15393066,1,0,0,response1disk_5,7,3.5334,-4.732849121,-8.390380859,1,0,0,rectangle_8,-4.732849121,-8.390380859,1,0,0,-4.732849121,-8.390380859,1,0,0,0,0,0,2,1,61022223a350329c8ca81df5,61036d36f7272343cda56396,2021-07-29_20h10.41.611,Simcolourproject_2stim_asymm_v5,2020.2.10,MacIntel,60,61025ae37ef11b136ea224fe,,,,,,,,,,,,,,,,,,,,,,,,,,,,,,,,,,,,,,,,,,,,,,
,,,,,,,,,,,,93,FF,44.27166748,-96.86920166,1,0,0,response3disk_5,4,2.6159,-2.501953125,7.977355957,1,0,0,rectangle_8,-87.21356201,-34.90478516,1,0,0,-3.429260254,4.191772461,1,0,0,0,1,1,0,1,61022223a350329c8ca81df5,61036d36f7272343cda56396,2021-07-29_20h10.41.611,Simcolourproject_2stim_asymm_v5,2020.2.10,MacIntel,60,61025ae37ef11b136ea224fe,response5disk_7,2,3.5504,2,"[2,5]",rectangle_4,,,,,,,,,,,,,,,,,,,,,,,,,,,,,,,,,,,,,,,,
,,,,,,,,,,,,135,PF,89.12860107,-76.18707275,1,0,0,response3disk_5,5,1.8007,10.89587402,-4.043945313,1,0,0,rectangle_8,10.89587402,-4.043945313,1,0,0,10.89587402,-4.043945313,1,0,0,0,2,2,4,1,61022223a350329c8ca81df5,61036d36f7272343cda56396,2021-07-29_20h10.41.611,Simcolourproject_2stim_asymm_v5,2020.2.10,MacIntel,60,61025ae37ef11b136ea224fe,,,,,,,,,,,,,,,,,,,,,,,,,,,,,,,,,,,,,,,,,,,,,,
,,,,,,,,,,,,77,PF,-60.25134277,-92.65155029,1,0,0,response5disk_5,3,1.7989,7.38861084,2.171203613,1,0,0,rectangle_8,7.38861084,2.171203613,1,0,0,7.38861084,2.171203613,1,0,0,0,3,3,1,1,61022223a350329c8ca81df5,61036d36f7272343cda56396,2021-07-29_20h10.41.611,Simcolourproject_2stim_asymm_v5,2020.2.10,MacIntel,60,61025ae37ef11b136ea224fe,,,,,,,,,,,,,,,,,,,,,,,,,,,,,,,,,,,,,,,,,,,,,,
,,,,,,,,,,,,98,FF,-42.03271484,-74.19909668,1,0,0,response5disk_5,3,0.9335,3.505432129,-6.651367188,1,0,0,rectangle_8,-91.18603516,-43.02706909,1,0,0,-9.944091797,-2.710266113,1,0,0,0,4,4,5,1,61022223a350329c8ca81df5,61036d36f7272343cda56396,2021-07-29_20h10.41.611,Simcolourproject_2stim_asymm_v5,2020.2.10,MacIntel,60,61025ae37ef11b136ea224fe,response5disk_7,2,2.1009,2,"[2,5]",rectangle_4,,,,,,,,,,,,,,,,,,,,,,,,,,,,,,,,,,,,,,,,
,,,,,,,,,,,,58,PF,-78.33209229,-34.61914063,1,0,0,response5disk_5,2,1.0657,-29.03747559,-14.53756714,1,0,0,rectangle_8,-29.03747559,-14.53756714,1,0,0,-29.03747559,-14.53756714,1,0,0,0,5,5,6,1,61022223a350329c8ca81df5,61036d36f7272343cda56396,2021-07-29_20h10.41.611,Simcolourproject_2stim_asymm_v5,2020.2.10,MacIntel,60,61025ae37ef11b136ea224fe,,,,,,,,,,,,,,,,,,,,,,,,,,,,,,,,,,,,,,,,,,,,,,
,,,,,,,,,,,,119,FF,-41.87512207,-89.67681885,1,0,0,response5disk_5,3,0.6993,-5.876098633,-16.63452148,1,0,0,rectangle_8,-5.876098633,-16.63452148,1,0,0,-5.876098633,-16.63452148,1,0,0,0,6,6,3,1,61022223a350329c8ca81df5,61036d36f7272343cda56396,2021-07-29_20h10.41.611,Simcolourproject_2stim_asymm_v5,2020.2.10,MacIntel,60,61025ae37ef11b136ea224fe,,,,,,,,,,,,,,,,,,,,,,,,,,,,,,,,,,,,,,,,,,,,,,
,,,,,,,,,,,,,FF,,,,,,,,2.0511,,,,,,,,,,,,,,,,,,,,,,61022223a350329c8ca81df5,61036d36f7272343cda56396,2021-07-29_20h10.41.611,Simcolourproject_2stim_asymm_v5,2020.2.10,MacIntel,60,61025ae37ef11b136ea224fe,,,,,,,space,2.0146,2691,19.50097656,72.3848877,1,0,0,response1disk,,7,-4.374023438,10.2277832,1,0,0,rectangle,-4.374023438,10.2277832,1,0,0,-4.374023438,10.2277832,1,0,0,0,0,0,130,1,,,,,,,,
,,,,,,,,,,,,,FF,,,,,,,,0.9993,,,,,,,,,,,,,,,,,,,,,,61022223a350329c8ca81df5,61036d36f7272343cda56396,2021-07-29_20h10.41.611,Simcolourproject_2stim_asymm_v5,2020.2.10,MacIntel,60,61025ae37ef11b136ea224fe,,,,,,,,,3475,-78.51037598,-36.26965332,1,0,0,response5disk,,2,3.325012207,1.317138672,1,0,0,rectangle,3.325012207,1.317138672,1,0,0,3.325012207,1.317138672,1,0,0,0,1,1,141,1,,,,,,,,
,,,,,,,,,,,,,FF,,,,,,,,1.1501,,,,,,,,,,,,,,,,,,,,,,61022223a350329c8ca81df5,61036d36f7272343cda56396,2021-07-29_20h10.41.611,Simcolourproject_2stim_asymm_v5,2020.2.10,MacIntel,60,61025ae37ef11b136ea224fe,,,,,,,,,4273,91.74487305,64.73535156,1,0,0,response1disk,,6,9.930358887,0.645812988,1,0,0,rectangle,9.930358887,0.645812988,1,0,0,9.930358887,0.645812988,1,0,0,0,2,2,117,1,,,,,,,,
,,,,,,,,,,,,,FF,,,,,,,,1.1335,,,,,,,,,,,,,,,,,,,,,,61022223a350329c8ca81df5,61036d36f7272343cda56396,2021-07-29_20h10.41.611,Simcolourproject_2stim_asymm_v5,2020.2.10,MacIntel,60,61025ae37ef11b136ea224fe,,,,,,,,,2805,98.57373047,-40.5118103,1,0,0,response3disk,,5,13.97955322,11.72494507,1,0,0,rectangle,100.6091919,35.57666016,1,0,0,13.64813232,-7.272033691,1,0,0,0,3,3,132,1,,response1disk_3,TRUE,6,6,"[157,236,198,195,256,51,65,197,27,36,121,271,213,46,8,195,122,196,4,58]",2.0839,rectangle
,,,,,,,,,,,,,FF,,,,,,,,0.7996,,,,,,,,,,,,,,,,,,,,,,61022223a350329c8ca81df5,61036d36f7272343cda56396,2021-07-29_20h10.41.611,Simcolourproject_2stim_asymm_v5,2020.2.10,MacIntel,60,61025ae37ef11b136ea224fe,,,,,,,,,2425,-45.21911621,-89.97637939,1,0,0,response5disk,,3,2.809204102,-9.789886475,1,0,0,rectangle,2.809204102,-9.789886475,1,0,0,2.809204102,-9.789886475,1,0,0,0,4,4,60,1,,,,,,,,
,,,,,,,,,,,,,FF,,,,,,,,0.9163,,,,,,,,,,,,,,,,,,,,,,61022223a350329c8ca81df5,61036d36f7272343cda56396,2021-07-29_20h10.41.611,Simcolourproject_2stim_asymm_v5,2020.2.10,MacIntel,60,61025ae37ef11b136ea224fe,,,,,,,,,2510,87.66644287,-58.02615356,1,0,0,response3disk,,5,25.91223145,-5.446350098,1,0,0,rectangle,25.91223145,-5.446350098,1,0,0,25.91223145,-5.446350098,1,0,0,0,5,5,18,1,,,,,,,,
,,,,,,,,,,,,,FF,,,,,,,,0.617,,,,,,,,,,,,,,,,,,,,,,61022223a350329c8ca81df5,61036d36f7272343cda56396,2021-07-29_20h10.41.611,Simcolourproject_2stim_asymm_v5,2020.2.10,MacIntel,60,61025ae37ef11b136ea224fe,,,,,,,,,2903,38.9576416,-69.55438232,1,0,0,response3disk,,4,20.70074463,-10.83810425,1,0,0,rectangle,20.70074463,-10.83810425,1,0,0,20.70074463,-10.83810425,1,0,0,0,6,6,62,1,,,,,,,,
,,,,,,,,,,,,,FF,,,,,,,,0.6335,,,,,,,,,,,,,,,,,,,,,,61022223a350329c8ca81df5,61036d36f7272343cda56396,2021-07-29_20h10.41.611,Simcolourproject_2stim_asymm_v5,2020.2.10,MacIntel,60,61025ae37ef11b136ea224fe,,,,,,,,,1238,69.0994873,-35.46582031,1,0,0,response3disk,,5,11.04467773,7.670684814,1,0,0,rectangle,20.7109375,-80.12554932,1,0,0,8.678710938,-15.41558838,1,0,0,0,7,7,101,1,,response3disk_3,TRUE,4,4,"[157,236,198,195,256,51,65,197,27,36,121,271,213,46,8,195,122,196,4,58]",1.6175,rectangle
,,,,,,,,,,,,,FF,,,,,,,,0.6665,,,,,,,,,,,,,,,,,,,,,,61022223a350329c8ca81df5,61036d36f7272343cda56396,2021-07-29_20h10.41.611,Simcolourproject_2stim_asymm_v5,2020.2.10,MacIntel,60,61025ae37ef11b136ea224fe,,,,,,,,,268,75.80981445,-35.54016113,1,0,0,response3disk,,5,24.14978027,4.377563477,1,0,0,rectangle,24.14978027,4.377563477,1,0,0,24.14978027,4.377563477,1,0,0,0,8,8,77,1,,,,,,,,
,,,,,,,,,,,,,FF,,,,,,,,1.3167,,,,,,,,,,,,,,,,,,,,,,61022223a350329c8ca81df5,61036d36f7272343cda56396,2021-07-29_20h10.41.611,Simcolourproject_2stim_asymm_v5,2020.2.10,MacIntel,60,61025ae37ef11b136ea224fe,,,,,,,,,4326,-41.5958252,89.16479492,1,0,0,response7disk,,0,-13.74908447,-4.815307617,1,0,0,rectangle,-13.74908447,-4.815307617,1,0,0,-13.74908447,-4.815307617,1,0,0,0,9,9,107,1,,,,,,,,
,,,,,,,,,,,,,FF,,,,,,,,0.6319,,,,,,,,,,,,,,,,,,,,,,61022223a350329c8ca81df5,61036d36f7272343cda56396,2021-07-29_20h10.41.611,Simcolourproject_2stim_asymm_v5,2020.2.10,MacIntel,60,61025ae37ef11b136ea224fe,,,,,,,,,2355,-30.38720703,54.17431641,1,0,0,response7disk,,0,2.075195313,-1.823852539,1,0,0,rectangle,2.075195313,-1.823852539,1,0,0,2.075195313,-1.823852539,1,0,0,0,10,10,51,1,,,,,,,,
,,,,,,,,,,,,,FF,,,,,,,,2.2662,,,,,,,,,,,,,,,,,,,,,,61022223a350329c8ca81df5,61036d36f7272343cda56396,2021-07-29_20h10.41.611,Simcolourproject_2stim_asymm_v5,2020.2.10,MacIntel,60,61025ae37ef11b136ea224fe,,,,,,,,,1371,55.2052002,-64.16699219,1,0,0,response3disk,,4,2.403259277,1.894683838,1,0,0,rectangle,2.403259277,1.894683838,1,0,0,2.403259277,1.894683838,1,0,0,0,11,11,135,1,,,,,,,,
,,,,,,,,,,,,,FF,,,,,,,,1.1341,,,,,,,,,,,,,,,,,,,,,,61022223a350329c8ca81df5,61036d36f7272343cda56396,2021-07-29_20h10.41.611,Simcolourproject_2stim_asymm_v5,2020.2.10,MacIntel,60,61025ae37ef11b136ea224fe,,,,,,,,,515,34.04150391,-53.61547852,1,0,0,response3disk,,4,9.474060059,-1.397033691,1,0,0,rectangle,9.474060059,-1.397033691,1,0,0,9.474060059,-1.397033691,1,0,0,0,12,12,43,1,,,,,,,,
,,,,,,,,,,,,,FF,,,,,,,,1.2497,,,,,,,,,,,,,,,,,,,,,,61022223a350329c8ca81df5,61036d36f7272343cda56396,2021-07-29_20h10.41.611,Simcolourproject_2stim_asymm_v5,2020.2.10,MacIntel,60,61025ae37ef11b136ea224fe,,,,,,,,,2210,104.2404785,-68.28234863,1,0,0,response3disk,,5,16.44042969,-7.899414063,1,0,0,rectangle,16.44042969,-7.899414063,1,0,0,16.44042969,-7.899414063,1,0,0,0,13,13,31,1,,,,,,,,
,,,,,,,,,,,,,FF,,,,,,,,0.6165,,,,,,,,,,,,,,,,,,,,,,61022223a350329c8ca81df5,61036d36f7272343cda56396,2021-07-29_20h10.41.611,Simcolourproject_2stim_asymm_v5,2020.2.10,MacIntel,60,61025ae37ef11b136ea224fe,,,,,,,,,1004,93.79345703,-35.81939697,1,0,0,response3disk,,5,21.94842529,-2.605163574,1,0,0,rectangle,21.94842529,-2.605163574,1,0,0,21.94842529,-2.605163574,1,0,0,0,14,14,47,1,,,,,,,,
,,,,,,,,,,,,,FF,,,,,,,,0.7166,,,,,,,,,,,,,,,,,,,,,,61022223a350329c8ca81df5,61036d36f7272343cda56396,2021-07-29_20h10.41.611,Simcolourproject_2stim_asymm_v5,2020.2.10,MacIntel,60,61025ae37ef11b136ea224fe,,,,,,,,,1948,74.3460083,-45.78408813,1,0,0,response3disk,,5,11.44256592,-3.432250977,1,0,0,rectangle,11.44256592,-3.432250977,1,0,0,11.44256592,-3.432250977,1,0,0,0,15,15,41,1,,,,,,,,
,,,,,,,,,,,,,FF,,,,,,,,0.4669,,,,,,,,,,,,,,,,,,,,,,61022223a350329c8ca81df5,61036d36f7272343cda56396,2021-07-29_20h10.41.611,Simcolourproject_2stim_asymm_v5,2020.2.10,MacIntel,60,61025ae37ef11b136ea224fe,,,,,,,,,2609,87.32470703,-49.22595215,1,0,0,response3disk,,5,11.78723145,-5.202941895,1,0,0,rectangle,11.78723145,-5.202941895,1,0,0,11.78723145,-5.202941895,1,0,0,0,16,16,146,1,,,,,,,,
,,,,,,,,,,,,,FF,,,,,,,,0.4671,,,,,,,,,,,,,,,,,,,,,,61022223a350329c8ca81df5,61036d36f7272343cda56396,2021-07-29_20h10.41.611,Simcolourproject_2stim_asymm_v5,2020.2.10,MacIntel,60,61025ae37ef11b136ea224fe,,,,,,,,,1043,92.90466309,-64.24468994,1,0,0,response3disk,,5,15.88317871,-1.864471436,1,0,0,rectangle,15.88317871,-1.864471436,1,0,0,15.88317871,-1.864471436,1,0,0,0,17,17,52,1,,,,,,,,
,,,,,,,,,,,,,FF,,,,,,,,1.1501,,,,,,,,,,,,,,,,,,,,,,61022223a350329c8ca81df5,61036d36f7272343cda56396,2021-07-29_20h10.41.611,Simcolourproject_2stim_asymm_v5,2020.2.10,MacIntel,60,61025ae37ef11b136ea224fe,,,,,,,,,2274,112.3359375,62.26025391,1,0,0,response1disk,,6,-6.729003906,8.528198242,1,0,0,rectangle,-6.729003906,8.528198242,1,0,0,-6.729003906,8.528198242,1,0,0,0,18,18,145,1,,,,,,,,
,,,,,,,,,,,,,FF,,,,,,,,0.7003,,,,,,,,,,,,,,,,,,,,,,61022223a350329c8ca81df5,61036d36f7272343cda56396,2021-07-29_20h10.41.611,Simcolourproject_2stim_asymm_v5,2020.2.10,MacIntel,60,61025ae37ef11b136ea224fe,,,,,,,,,2110,83.28234863,-48.90921021,1,0,0,response3disk,,5,14.43505859,-4.688232422,1,0,0,rectangle,14.43505859,-4.688232422,1,0,0,14.43505859,-4.688232422,1,0,0,0,19,19,88,1,,,,,,,,
,,,,,,,,,,,,,FF,,,,,,,,0.6342,,,,,,,,,,,,,,,,,,,,,,61022223a350329c8ca81df5,61036d36f7272343cda56396,2021-07-29_20h10.41.611,Simcolourproject_2stim_asymm_v5,2020.2.10,MacIntel,60,61025ae37ef11b136ea224fe,,,,,,,,,2827,56.70550537,-94.74389648,1,0,0,response3disk,,4,6.88293457,0.466705322,1,0,0,rectangle,6.88293457,0.466705322,1,0,0,6.88293457,0.466705322,1,0,0,0,20,20,34,1,,,,,,,,
,,,,,,,,,,,,,FF,,,,,,,,0.6843,,,,,,,,,,,,,,,,,,,,,,61022223a350329c8ca81df5,61036d36f7272343cda56396,2021-07-29_20h10.41.611,Simcolourproject_2stim_asymm_v5,2020.2.10,MacIntel,60,61025ae37ef11b136ea224fe,,,,,,,,,3838,44.19396973,-60.98538208,1,0,0,response3disk,,4,16.15478516,-2.50579834,1,0,0,rectangle,16.15478516,-2.50579834,1,0,0,16.15478516,-2.50579834,1,0,0,0,21,21,104,1,,,,,,,,
,,,,,,,,,,,,,FF,,,,,,,,1.2671,,,,,,,,,,,,,,,,,,,,,,61022223a350329c8ca81df5,61036d36f7272343cda56396,2021-07-29_20h10.41.611,Simcolourproject_2stim_asymm_v5,2020.2.10,MacIntel,60,61025ae37ef11b136ea224fe,,,,,,,,,770,60.77032471,86.04626465,1,0,0,response1disk,,7,20.13879395,17.36584473,1,0,0,rectangle,20.13879395,17.36584473,1,0,0,20.13879395,17.36584473,1,0,0,0,22,22,39,1,,,,,,,,
,,,,,,,,,,,,,FF,,,,,,,,0.6493,,,,,,,,,,,,,,,,,,,,,,61022223a350329c8ca81df5,61036d36f7272343cda56396,2021-07-29_20h10.41.611,Simcolourproject_2stim_asymm_v5,2020.2.10,MacIntel,60,61025ae37ef11b136ea224fe,,,,,,,,,2950,72.89465332,-45.02944946,1,0,0,response3disk,,5,-4.547485352,-7.084960938,1,0,0,rectangle,-4.547485352,-7.084960938,1,0,0,-4.547485352,-7.084960938,1,0,0,0,23,23,44,1,,,,,,,,
,,,,,,,,,,,,,FF,,,,,,,,0.683,,,,,,,,,,,,,,,,,,,,,,61022223a350329c8ca81df5,61036d36f7272343cda56396,2021-07-29_20h10.41.611,Simcolourproject_2stim_asymm_v5,2020.2.10,MacIntel,60,61025ae37ef11b136ea224fe,,,,,,,,,1005,71.88140869,30.36016846,1,0,0,response1disk,,6,-33.77227783,2.852294922,1,0,0,rectangle,-33.77227783,2.852294922,1,0,0,-33.77227783,2.852294922,1,0,0,0,24,24,125,1,,,,,,,,
,,,,,,,,,,,,,FF,,,,,,,,0.7499,,,,,,,,,,,,,,,,,,,,,,61022223a350329c8ca81df5,61036d36f7272343cda56396,2021-07-29_20h10.41.611,Simcolourproject_2stim_asymm_v5,2020.2.10,MacIntel,60,61025ae37ef11b136ea224fe,,,,,,,,,3932,87.71600342,-58.25494385,1,0,0,response3disk,,5,8.262695313,-0.95123291,1,0,0,rectangle,8.262695313,-0.95123291,1,0,0,8.262695313,-0.95123291,1,0,0,0,25,25,76,1,,,,,,,,
,,,,,,,,,,,,,FF,,,,,,,,0.4659,,,,,,,,,,,,,,,,,,,,,,61022223a350329c8ca81df5,61036d36f7272343cda56396,2021-07-29_20h10.41.611,Simcolourproject_2stim_asymm_v5,2020.2.10,MacIntel,60,61025ae37ef11b136ea224fe,,,,,,,,,2636,103.2373657,-52.98858643,1,0,0,response3disk,,5,14.84356689,2.892242432,1,0,0,rectangle,-67.66485596,-39.47491455,1,0,0,3.739440918,2.83404541,1,0,0,0,26,26,38,1,,response5disk_3,TRUE,2,2,"[157,236,198,195,256,51,65,197,27,36,121,271,213,46,8,195,122,196,4,58]",1.3495,rectangle
,,,,,,,,,,,,,FF,,,,,,,,1.0999,,,,,,,,,,,,,,,,,,,,,,61022223a350329c8ca81df5,61036d36f7272343cda56396,2021-07-29_20h10.41.611,Simcolourproject_2stim_asymm_v5,2020.2.10,MacIntel,60,61025ae37ef11b136ea224fe,,,,,,,,,1352,83.28283691,-40.32373047,1,0,0,response3disk,,5,17.57653809,-5.354553223,1,0,0,rectangle,17.57653809,-5.354553223,1,0,0,17.57653809,-5.354553223,1,0,0,0,27,27,54,1,,,,,,,,
,,,,,,,,,,,,,FF,,,,,,,,0.3993,,,,,,,,,,,,,,,,,,,,,,61022223a350329c8ca81df5,61036d36f7272343cda56396,2021-07-29_20h10.41.611,Simcolourproject_2stim_asymm_v5,2020.2.10,MacIntel,60,61025ae37ef11b136ea224fe,,,,,,,,,398,92.26116943,-41.228302,1,0,0,response3disk,,5,8.162414551,-7.981658936,1,0,0,rectangle,8.162414551,-7.981658936,1,0,0,8.162414551,-7.981658936,1,0,0,0,28,28,4,1,,,,,,,,
,,,,,,,,,,,,,FF,,,,,,,,0.5661,,,,,,,,,,,,,,,,,,,,,,61022223a350329c8ca81df5,61036d36f7272343cda56396,2021-07-29_20h10.41.611,Simcolourproject_2stim_asymm_v5,2020.2.10,MacIntel,60,61025ae37ef11b136ea224fe,,,,,,,,,4031,50.91992188,-59.11468506,1,0,0,response3disk,,4,9.278930664,4.378601074,1,0,0,rectangle,9.278930664,4.378601074,1,0,0,9.278930664,4.378601074,1,0,0,0,29,29,59,1,,,,,,,,
,,,,,,,,,,,,,FF,,,,,,,,0.5336,,,,,,,,,,,,,,,,,,,,,,61022223a350329c8ca81df5,61036d36f7272343cda56396,2021-07-29_20h10.41.611,Simcolourproject_2stim_asymm_v5,2020.2.10,MacIntel,60,61025ae37ef11b136ea224fe,,,,,,,,,1916,28.20861816,-65.23956299,1,0,0,response3disk,,4,-5.699829102,1.4269104,1,0,0,rectangle,-5.699829102,1.4269104,1,0,0,-5.699829102,1.4269104,1,0,0,0,30,30,131,1,,,,,,,,
,,,,,,,,,,,,,FF,,,,,,,,0.8679,,,,,,,,,,,,,,,,,,,,,,61022223a350329c8ca81df5,61036d36f7272343cda56396,2021-07-29_20h10.41.611,Simcolourproject_2stim_asymm_v5,2020.2.10,MacIntel,60,61025ae37ef11b136ea224fe,,,,,,,,,445,-74.57037354,-44.52868652,1,0,0,response5disk,,2,-22.4041748,-0.086151123,1,0,0,rectangle,-22.4041748,-0.086151123,1,0,0,-22.4041748,-0.086151123,1,0,0,0,31,31,49,1,,,,,,,,
,,,,,,,,,,,,,FF,,,,,,,,0.7671,,,,,,,,,,,,,,,,,,,,,,61022223a350329c8ca81df5,61036d36f7272343cda56396,2021-07-29_20h10.41.611,Simcolourproject_2stim_asymm_v5,2020.2.10,MacIntel,60,61025ae37ef11b136ea224fe,,,,,,,,,4307,59.48907471,104.4051514,1,0,0,response1disk,,7,13.84887695,9.849487305,1,0,0,rectangle,13.84887695,9.849487305,1,0,0,13.84887695,9.849487305,1,0,0,0,32,32,83,1,,,,,,,,
,,,,,,,,,,,,,FF,,,,,,,,0.7679,,,,,,,,,,,,,,,,,,,,,,61022223a350329c8ca81df5,61036d36f7272343cda56396,2021-07-29_20h10.41.611,Simcolourproject_2stim_asymm_v5,2020.2.10,MacIntel,60,61025ae37ef11b136ea224fe,,,,,,,,,442,-38.52655029,-50.75439453,1,0,0,response5disk,,3,-15.59265137,-7.262207031,1,0,0,rectangle,-15.59265137,-7.262207031,1,0,0,-15.59265137,-7.262207031,1,0,0,0,33,33,10,1,,,,,,,,
,,,,,,,,,,,,,FF,,,,,,,,1.2333,,,,,,,,,,,,,,,,,,,,,,61022223a350329c8ca81df5,61036d36f7272343cda56396,2021-07-29_20h10.41.611,Simcolourproject_2stim_asymm_v5,2020.2.10,MacIntel,60,61025ae37ef11b136ea224fe,,,,,,,,,941,37.65844727,94.70068359,1,0,0,response1disk,,7,16.94226074,2.09753418,1,0,0,rectangle,16.94226074,2.09753418,1,0,0,16.94226074,2.09753418,1,0,0,0,34,34,116,1,,,,,,,,
,,,,,,,,,,,,,FF,,,,,,,,0.6506,,,,,,,,,,,,,,,,,,,,,,61022223a350329c8ca81df5,61036d36f7272343cda56396,2021-07-29_20h10.41.611,Simcolourproject_2stim_asymm_v5,2020.2.10,MacIntel,60,61025ae37ef11b136ea224fe,,,,,,,,,3914,-41.769104,-67.78668213,1,0,0,response5disk,,3,-32.90667725,-8.998962402,1,0,0,rectangle,77.26599121,-51.3711853,1,0,0,4.73449707,-15.43292236,1,0,0,0,35,35,29,1,,response3disk_3,TRUE,5,5,"[157,236,198,195,256,51,65,197,27,36,121,271,213,46,8,195,122,196,4,58]",1.2507,rectangle
,,,,,,,,,,,,,FF,,,,,,,,1.1002,,,,,,,,,,,,,,,,,,,,,,61022223a350329c8ca81df5,61036d36f7272343cda56396,2021-07-29_20h10.41.611,Simcolourproject_2stim_asymm_v5,2020.2.10,MacIntel,60,61025ae37ef11b136ea224fe,,,,,,,,,40,93.73455811,21.98117065,1,0,0,response1disk,,6,8.354187012,-13.0696106,1,0,0,rectangle,8.354187012,-13.0696106,1,0,0,8.354187012,-13.0696106,1,0,0,0,36,36,16,1,,,,,,,,
,,,,,,,,,,,,,FF,,,,,,,,0.7321,,,,,,,,,,,,,,,,,,,,,,61022223a350329c8ca81df5,61036d36f7272343cda56396,2021-07-29_20h10.41.611,Simcolourproject_2stim_asymm_v5,2020.2.10,MacIntel,60,61025ae37ef11b136ea224fe,,,,,,,,,4092,67.02587891,-36.99914551,1,0,0,response3disk,,5,-7.438781738,-8.915893555,1,0,0,rectangle,-7.438781738,-8.915893555,1,0,0,-7.438781738,-8.915893555,1,0,0,0,37,37,97,1,,,,,,,,
,,,,,,,,,,,,,FF,,,,,,,,1.0833,,,,,,,,,,,,,,,,,,,,,,61022223a350329c8ca81df5,61036d36f7272343cda56396,2021-07-29_20h10.41.611,Simcolourproject_2stim_asymm_v5,2020.2.10,MacIntel,60,61025ae37ef11b136ea224fe,,,,,,,,,1447,-64.73754883,27.21420288,1,0,0,response7disk,,1,-6.913574219,14.90545654,1,0,0,rectangle,-6.913574219,14.90545654,1,0,0,-6.913574219,14.90545654,1,0,0,0,38,38,87,1,,,,,,,,
,,,,,,,,,,,,,FF,,,,,,,,0.8491,,,,,,,,,,,,,,,,,,,,,,61022223a350329c8ca81df5,61036d36f7272343cda56396,2021-07-29_20h10.41.611,Simcolourproject_2stim_asymm_v5,2020.2.10,MacIntel,60,61025ae37ef11b136ea224fe,,,,,,,,,3500,97.99871826,-24.65600586,1,0,0,response3disk,,5,-15.69543457,-13.52044678,1,0,0,rectangle,-15.69543457,-13.52044678,1,0,0,-15.69543457,-13.52044678,1,0,0,0,39,39,8,1,,,,,,,,
,,,,,,,,,,,,,FF,,,,,,,,1.0834,,,,,,,,,,,,,,,,,,,,,,61022223a350329c8ca81df5,61036d36f7272343cda56396,2021-07-29_20h10.41.611,Simcolourproject_2stim_asymm_v5,2020.2.10,MacIntel,60,61025ae37ef11b136ea224fe,,,,,,,,,1253,105.9192505,29.00463867,1,0,0,response1disk,,6,-2.477783203,-3.956359863,1,0,0,rectangle,-2.477783203,-3.956359863,1,0,0,-2.477783203,-3.956359863,1,0,0,0,40,40,22,1,,,,,,,,
,,,,,,,,,,,,,FF,,,,,,,,0.7992,,,,,,,,,,,,,,,,,,,,,,61022223a350329c8ca81df5,61036d36f7272343cda56396,2021-07-29_20h10.41.611,Simcolourproject_2stim_asymm_v5,2020.2.10,MacIntel,60,61025ae37ef11b136ea224fe,,,,,,,,,3097,-65.90783691,26.35205078,1,0,0,response7disk,,1,-1.067993164,0.44128418,1,0,0,rectangle,-1.067993164,0.44128418,1,0,0,-1.067993164,0.44128418,1,0,0,0,41,41,11,1,,,,,,,,
,,,,,,,,,,,,,FF,,,,,,,,0.6,,,,,,,,,,,,,,,,,,,,,,61022223a350329c8ca81df5,61036d36f7272343cda56396,2021-07-29_20h10.41.611,Simcolourproject_2stim_asymm_v5,2020.2.10,MacIntel,60,61025ae37ef11b136ea224fe,,,,,,,,,2220,83.07128906,-29.4826355,1,0,0,response3disk,,5,-4.493164063,-3.694152832,1,0,0,rectangle,-4.493164063,-3.694152832,1,0,0,-4.493164063,-3.694152832,1,0,0,0,42,42,92,1,,,,,,,,
,,,,,,,,,,,,,FF,,,,,,,,0.4832,,,,,,,,,,,,,,,,,,,,,,61022223a350329c8ca81df5,61036d36f7272343cda56396,2021-07-29_20h10.41.611,Simcolourproject_2stim_asymm_v5,2020.2.10,MacIntel,60,61025ae37ef11b136ea224fe,,,,,,,,,2333,94.7902832,39.20648193,1,0,0,response1disk,,6,4.149230957,10.15112305,1,0,0,rectangle,4.149230957,10.15112305,1,0,0,4.149230957,10.15112305,1,0,0,0,43,43,155,1,,,,,,,,
,,,,,,,,,,,,,FF,,,,,,,,0.4002,,,,,,,,,,,,,,,,,,,,,,61022223a350329c8ca81df5,61036d36f7272343cda56396,2021-07-29_20h10.41.611,Simcolourproject_2stim_asymm_v5,2020.2.10,MacIntel,60,61025ae37ef11b136ea224fe,,,,,,,,,1710,77.80786133,46.58047485,1,0,0,response1disk,,6,-4.000671387,6.368652344,1,0,0,rectangle,-4.000671387,6.368652344,1,0,0,-4.000671387,6.368652344,1,0,0,0,44,44,106,1,,,,,,,,
,,,,,,,,,,,,,FF,,,,,,,,0.7497,,,,,,,,,,,,,,,,,,,,,,61022223a350329c8ca81df5,61036d36f7272343cda56396,2021-07-29_20h10.41.611,Simcolourproject_2stim_asymm_v5,2020.2.10,MacIntel,60,61025ae37ef11b136ea224fe,,,,,,,,,525,-76.55548096,-33.79150391,1,0,0,response5disk,,2,-14.87854004,-14.48883057,1,0,0,rectangle,25.81536865,-71.44189453,1,0,0,-0.293518066,-7.705688477,1,0,0,0,45,45,119,1,,response3disk_3,TRUE,4,4,"[157,236,198,195,256,51,65,197,27,36,121,271,213,46,8,195,122,196,4,58]",1.6333,rectangle
,,,,,,,,,,,,,FF,,,,,,,,0.7002,,,,,,,,,,,,,,,,,,,,,,61022223a350329c8ca81df5,61036d36f7272343cda56396,2021-07-29_20h10.41.611,Simcolourproject_2stim_asymm_v5,2020.2.10,MacIntel,60,61025ae37ef11b136ea224fe,,,,,,,,,3459,48.46826172,87.48446655,1,0,0,response1disk,,7,24.74047852,13.77972412,1,0,0,rectangle,24.74047852,13.77972412,1,0,0,24.74047852,13.77972412,1,0,0,0,46,46,148,1,,,,,,,,
,,,,,,,,,,,,,FF,,,,,,,,0.5828,,,,,,,,,,,,,,,,,,,,,,61022223a350329c8ca81df5,61036d36f7272343cda56396,2021-07-29_20h10.41.611,Simcolourproject_2stim_asymm_v5,2020.2.10,MacIntel,60,61025ae37ef11b136ea224fe,,,,,,,,,2158,38.40332031,53.36499023,1,0,0,response1disk,,7,5.038818359,-14.59936523,1,0,0,rectangle,5.038818359,-14.59936523,1,0,0,5.038818359,-14.59936523,1,0,0,0,47,47,74,1,,,,,,,,
,,,,,,,,,,,,,FF,,,,,,,,0.7001,,,,,,,,,,,,,,,,,,,,,,61022223a350329c8ca81df5,61036d36f7272343cda56396,2021-07-29_20h10.41.611,Simcolourproject_2stim_asymm_v5,2020.2.10,MacIntel,60,61025ae37ef11b136ea224fe,,,,,,,,,666,78.64691162,41.15136719,1,0,0,response1disk,,6,32.62811279,6.774658203,1,0,0,rectangle,32.62811279,6.774658203,1,0,0,32.62811279,6.774658203,1,0,0,0,48,48,28,1,,,,,,,,
,,,,,,,,,,,,,FF,,,,,,,,1.1515,,,,,,,,,,,,,,,,,,,,,,61022223a350329c8ca81df5,61036d36f7272343cda56396,2021-07-29_20h10.41.611,Simcolourproject_2stim_asymm_v5,2020.2.10,MacIntel,60,61025ae37ef11b136ea224fe,,,,,,,,,3995,-34.74230957,-57.87313843,1,0,0,response5disk,,3,-5.836547852,-11.92260742,1,0,0,rectangle,-5.836547852,-11.92260742,1,0,0,-5.836547852,-11.92260742,1,0,0,0,49,49,79,1,,,,,,,,
,,,,,,,,,,,,,FF,,,,,,,,0.7496,,,,,,,,,,,,,,,,,,,,,,61022223a350329c8ca81df5,61036d36f7272343cda56396,2021-07-29_20h10.41.611,Simcolourproject_2stim_asymm_v5,2020.2.10,MacIntel,60,61025ae37ef11b136ea224fe,,,,,,,,,2443,72.23974609,36.91012573,1,0,0,response1disk,,6,17.55053711,7.038391113,1,0,0,rectangle,-57.38317871,-86.93908691,1,0,0,-7.489929199,-12.70159912,1,0,0,0,50,50,67,1,,response5disk_3,TRUE,3,3,"[157,236,198,195,256,51,65,197,27,36,121,271,213,46,8,195,122,196,4,58]",1.2176,rectangle
,,,,,,,,,,,,,FF,,,,,,,,1.1831,,,,,,,,,,,,,,,,,,,,,,61022223a350329c8ca81df5,61036d36f7272343cda56396,2021-07-29_20h10.41.611,Simcolourproject_2stim_asymm_v5,2020.2.10,MacIntel,60,61025ae37ef11b136ea224fe,,,,,,,,,1118,17.49145508,-67.52990723,1,0,0,response3disk,,4,-5.504943848,-14.1517334,1,0,0,rectangle,-5.504943848,-14.1517334,1,0,0,-5.504943848,-14.1517334,1,0,0,0,51,51,126,1,,,,,,,,
,,,,,,,,,,,,,FF,,,,,,,,0.6008,,,,,,,,,,,,,,,,,,,,,,61022223a350329c8ca81df5,61036d36f7272343cda56396,2021-07-29_20h10.41.611,Simcolourproject_2stim_asymm_v5,2020.2.10,MacIntel,60,61025ae37ef11b136ea224fe,,,,,,,,,4147,-43.70623779,-58.93054199,1,0,0,response5disk,,3,-30.77783203,-4.03137207,1,0,0,rectangle,-30.77783203,-4.03137207,1,0,0,-30.77783203,-4.03137207,1,0,0,0,52,52,133,1,,,,,,,,
,,,,,,,,,,,,,FF,,,,,,,,0.6501,,,,,,,,,,,,,,,,,,,,,,61022223a350329c8ca81df5,61036d36f7272343cda56396,2021-07-29_20h10.41.611,Simcolourproject_2stim_asymm_v5,2020.2.10,MacIntel,60,61025ae37ef11b136ea224fe,,,,,,,,,2649,25.35168457,51.81066895,1,0,0,response1disk,,7,7.861694336,0.427124023,1,0,0,rectangle,7.861694336,0.427124023,1,0,0,7.861694336,0.427124023,1,0,0,0,53,53,157,1,,,,,,,,
,,,,,,,,,,,,,FF,,,,,,,,0.5669,,,,,,,,,,,,,,,,,,,,,,61022223a350329c8ca81df5,61036d36f7272343cda56396,2021-07-29_20h10.41.611,Simcolourproject_2stim_asymm_v5,2020.2.10,MacIntel,60,61025ae37ef11b136ea224fe,,,,,,,,,834,70.31054688,34.32348633,1,0,0,response1disk,,6,22.28973389,7.443054199,1,0,0,rectangle,22.28973389,7.443054199,1,0,0,22.28973389,7.443054199,1,0,0,0,54,54,3,1,,,,,,,,
,,,,,,,,,,,,,FF,,,,,,,,0.4337,,,,,,,,,,,,,,,,,,,,,,61022223a350329c8ca81df5,61036d36f7272343cda56396,2021-07-29_20h10.41.611,Simcolourproject_2stim_asymm_v5,2020.2.10,MacIntel,60,61025ae37ef11b136ea224fe,,,,,,,,,1263,74.85595703,39.28637695,1,0,0,response1disk,,6,14.5135498,13.54370117,1,0,0,rectangle,14.5135498,13.54370117,1,0,0,14.5135498,13.54370117,1,0,0,0,55,55,73,1,,,,,,,,
,,,,,,,,,,,,,FF,,,,,,,,0.5332,,,,,,,,,,,,,,,,,,,,,,61022223a350329c8ca81df5,61036d36f7272343cda56396,2021-07-29_20h10.41.611,Simcolourproject_2stim_asymm_v5,2020.2.10,MacIntel,60,61025ae37ef11b136ea224fe,,,,,,,,,561,94.25500488,48.18902588,1,0,0,response1disk,,6,22.46466064,9.252685547,1,0,0,rectangle,22.46466064,9.252685547,1,0,0,22.46466064,9.252685547,1,0,0,0,56,56,94,1,,,,,,,,
,,,,,,,,,,,,,FF,,,,,,,,0.8339,,,,,,,,,,,,,,,,,,,,,,61022223a350329c8ca81df5,61036d36f7272343cda56396,2021-07-29_20h10.41.611,Simcolourproject_2stim_asymm_v5,2020.2.10,MacIntel,60,61025ae37ef11b136ea224fe,,,,,,,,,2416,91.96289063,33.07299805,1,0,0,response1disk,,6,25.8293457,1.940856934,1,0,0,rectangle,-36.39770508,70.55957031,1,0,0,-3.443969727,3.928955078,1,0,0,0,57,57,64,1,,response7disk_3,TRUE,0,0,"[157,236,198,195,256,51,65,197,27,36,121,271,213,46,8,195,122,196,4,58]",1.3506,rectangle
,,,,,,,,,,,,,FF,,,,,,,,1.1839,,,,,,,,,,,,,,,,,,,,,,61022223a350329c8ca81df5,61036d36f7272343cda56396,2021-07-29_20h10.41.611,Simcolourproject_2stim_asymm_v5,2020.2.10,MacIntel,60,61025ae37ef11b136ea224fe,,,,,,,,,550,-80.58947754,38.03436279,1,0,0,response7disk,,1,-2.643737793,4.215209961,1,0,0,rectangle,-2.643737793,4.215209961,1,0,0,-2.643737793,4.215209961,1,0,0,0,58,58,111,1,,,,,,,,
,,,,,,,,,,,,,FF,,,,,,,,0.5661,,,,,,,,,,,,,,,,,,,,,,61022223a350329c8ca81df5,61036d36f7272343cda56396,2021-07-29_20h10.41.611,Simcolourproject_2stim_asymm_v5,2020.2.10,MacIntel,60,61025ae37ef11b136ea224fe,,,,,,,,,2154,66.34875488,25.87033081,1,0,0,response1disk,,6,-28.25927734,12.60119629,1,0,0,rectangle,-28.25927734,12.60119629,1,0,0,-28.25927734,12.60119629,1,0,0,0,59,59,105,1,,,,,,,,
,,,,,,,,,,,,,FF,,,,,,,,0.4666,,,,,,,,,,,,,,,,,,,,,,61022223a350329c8ca81df5,61036d36f7272343cda56396,2021-07-29_20h10.41.611,Simcolourproject_2stim_asymm_v5,2020.2.10,MacIntel,60,61025ae37ef11b136ea224fe,,,,,,,,,936,68.74920654,34.76812744,1,0,0,response1disk,,6,-8.960998535,5.210449219,1,0,0,rectangle,-8.960998535,5.210449219,1,0,0,-8.960998535,5.210449219,1,0,0,0,60,60,5,1,,,,,,,,
,,,,,,,,,,,,,FF,,,,,,,,0.9997,,,,,,,,,,,,,,,,,,,,,,61022223a350329c8ca81df5,61036d36f7272343cda56396,2021-07-29_20h10.41.611,Simcolourproject_2stim_asymm_v5,2020.2.10,MacIntel,60,61025ae37ef11b136ea224fe,,,,,,,,,2213,95.27258301,44.82601929,1,0,0,response1disk,,6,5.203918457,-7.488372803,1,0,0,rectangle,5.203918457,-7.488372803,1,0,0,5.203918457,-7.488372803,1,0,0,0,61,61,99,1,,,,,,,,
,,,,,,,,,,,,,FF,,,,,,,,0.4338,,,,,,,,,,,,,,,,,,,,,,61022223a350329c8ca81df5,61036d36f7272343cda56396,2021-07-29_20h10.41.611,Simcolourproject_2stim_asymm_v5,2020.2.10,MacIntel,60,61025ae37ef11b136ea224fe,,,,,,,,,4192,82.11199951,43.71875,1,0,0,response1disk,,6,-23.61523438,-0.215270996,1,0,0,rectangle,-23.61523438,-0.215270996,1,0,0,-23.61523438,-0.215270996,1,0,0,0,62,62,108,1,,,,,,,,
,,,,,,,,,,,,,FF,,,,,,,,0.7171,,,,,,,,,,,,,,,,,,,,,,61022223a350329c8ca81df5,61036d36f7272343cda56396,2021-07-29_20h10.41.611,Simcolourproject_2stim_asymm_v5,2020.2.10,MacIntel,60,61025ae37ef11b136ea224fe,,,,,,,,,3201,-41.4206543,-61.79360962,1,0,0,response5disk,,3,-1.51373291,-1.638580322,1,0,0,rectangle,-1.51373291,-1.638580322,1,0,0,-1.51373291,-1.638580322,1,0,0,0,63,63,81,1,,,,,,,,
,,,,,,,,,,,,,FF,,,,,,,,0.4329,,,,,,,,,,,,,,,,,,,,,,61022223a350329c8ca81df5,61036d36f7272343cda56396,2021-07-29_20h10.41.611,Simcolourproject_2stim_asymm_v5,2020.2.10,MacIntel,60,61025ae37ef11b136ea224fe,,,,,,,,,3473,-41.74761963,-70.79290771,1,0,0,response5disk,,3,-24.89654541,-9.376098633,1,0,0,rectangle,53.8404541,97.728302,1,0,0,6.25378418,5.963012695,1,0,0,0,64,64,158,1,,response1disk_3,TRUE,7,7,"[157,236,198,195,256,51,65,197,27,36,121,271,213,46,8,195,122,196,4,58]",1.3842,rectangle
,,,,,,,,,,,,,FF,,,,,,,,1.2495,,,,,,,,,,,,,,,,,,,,,,61022223a350329c8ca81df5,61036d36f7272343cda56396,2021-07-29_20h10.41.611,Simcolourproject_2stim_asymm_v5,2020.2.10,MacIntel,60,61025ae37ef11b136ea224fe,,,,,,,,,2670,87.33154297,38.13775635,1,0,0,response1disk,,6,-13.40924072,-13.65170288,1,0,0,rectangle,-13.40924072,-13.65170288,1,0,0,-13.40924072,-13.65170288,1,0,0,0,65,65,57,1,,,,,,,,
,,,,,,,,,,,,,FF,,,,,,,,0.3845,,,,,,,,,,,,,,,,,,,,,,61022223a350329c8ca81df5,61036d36f7272343cda56396,2021-07-29_20h10.41.611,Simcolourproject_2stim_asymm_v5,2020.2.10,MacIntel,60,61025ae37ef11b136ea224fe,,,,,,,,,3695,66.20562744,31.85009766,1,0,0,response1disk,,6,-28.1708374,1.272827148,1,0,0,rectangle,-28.1708374,1.272827148,1,0,0,-28.1708374,1.272827148,1,0,0,0,66,66,84,1,,,,,,,,
,,,,,,,,,,,,,FF,,,,,,,,0.3995,,,,,,,,,,,,,,,,,,,,,,61022223a350329c8ca81df5,61036d36f7272343cda56396,2021-07-29_20h10.41.611,Simcolourproject_2stim_asymm_v5,2020.2.10,MacIntel,60,61025ae37ef11b136ea224fe,,,,,,,,,420,71.4407959,34.121521,1,0,0,response1disk,,6,4.578918457,0.776031494,1,0,0,rectangle,4.578918457,0.776031494,1,0,0,4.578918457,0.776031494,1,0,0,0,67,67,85,1,,,,,,,,
,,,,,,,,,,,,,FF,,,,,,,,0.3668,,,,,,,,,,,,,,,,,,,,,,61022223a350329c8ca81df5,61036d36f7272343cda56396,2021-07-29_20h10.41.611,Simcolourproject_2stim_asymm_v5,2020.2.10,MacIntel,60,61025ae37ef11b136ea224fe,,,,,,,,,1168,85.75872803,41.65313721,1,0,0,response1disk,,6,6.221984863,3.791687012,1,0,0,rectangle,6.221984863,3.791687012,1,0,0,6.221984863,3.791687012,1,0,0,0,68,68,48,1,,,,,,,,
,,,,,,,,,,,,,FF,,,,,,,,0.4837,,,,,,,,,,,,,,,,,,,,,,61022223a350329c8ca81df5,61036d36f7272343cda56396,2021-07-29_20h10.41.611,Simcolourproject_2stim_asymm_v5,2020.2.10,MacIntel,60,61025ae37ef11b136ea224fe,,,,,,,,,1929,75.7880249,36.01855469,1,0,0,response1disk,,6,16.18225098,6.157623291,1,0,0,rectangle,16.18225098,6.157623291,1,0,0,16.18225098,6.157623291,1,0,0,0,69,69,37,1,,,,,,,,
,,,,,,,,,,,,,FF,,,,,,,,1.1503,,,,,,,,,,,,,,,,,,,,,,61022223a350329c8ca81df5,61036d36f7272343cda56396,2021-07-29_20h10.41.611,Simcolourproject_2stim_asymm_v5,2020.2.10,MacIntel,60,61025ae37ef11b136ea224fe,,,,,,,,,206,86.8359375,-47.41574097,1,0,0,response3disk,,5,9.530456543,-7.525817871,1,0,0,rectangle,9.530456543,-7.525817871,1,0,0,9.530456543,-7.525817871,1,0,0,0,70,70,120,1,,,,,,,,
,,,,,,,,,,,,,FF,,,,,,,,0.7168,,,,,,,,,,,,,,,,,,,,,,61022223a350329c8ca81df5,61036d36f7272343cda56396,2021-07-29_20h10.41.611,Simcolourproject_2stim_asymm_v5,2020.2.10,MacIntel,60,61025ae37ef11b136ea224fe,,,,,,,,,845,90.71948242,26.30786133,1,0,0,response1disk,,6,13.49298096,12.18890381,1,0,0,rectangle,13.49298096,12.18890381,1,0,0,13.49298096,12.18890381,1,0,0,0,71,71,35,1,,,,,,,,
,,,,,,,,,,,,,FF,,,,,,,,0.9502,,,,,,,,,,,,,,,,,,,,,,61022223a350329c8ca81df5,61036d36f7272343cda56396,2021-07-29_20h10.41.611,Simcolourproject_2stim_asymm_v5,2020.2.10,MacIntel,60,61025ae37ef11b136ea224fe,,,,,,,,,4034,82.45214844,-41.4859314,1,0,0,response3disk,,5,7.628417969,-6.194091797,1,0,0,rectangle,7.628417969,-6.194091797,1,0,0,7.628417969,-6.194091797,1,0,0,0,72,72,12,1,,,,,,,,
,,,,,,,,,,,,,FF,,,,,,,,0.4993,,,,,,,,,,,,,,,,,,,,,,61022223a350329c8ca81df5,61036d36f7272343cda56396,2021-07-29_20h10.41.611,Simcolourproject_2stim_asymm_v5,2020.2.10,MacIntel,60,61025ae37ef11b136ea224fe,,,,,,,,,953,124.2108154,43.99438477,1,0,0,response1disk,,6,24.38574219,14.16992188,1,0,0,rectangle,24.38574219,14.16992188,1,0,0,24.38574219,14.16992188,1,0,0,0,73,73,100,1,,,,,,,,
,,,,,,,,,,,,,FF,,,,,,,,1.0836,,,,,,,,,,,,,,,,,,,,,,61022223a350329c8ca81df5,61036d36f7272343cda56396,2021-07-29_20h10.41.611,Simcolourproject_2stim_asymm_v5,2020.2.10,MacIntel,60,61025ae37ef11b136ea224fe,,,,,,,,,891,-46.56585693,-69.18640137,1,0,0,response5disk,,3,-5.968383789,-7.524078369,1,0,0,rectangle,-5.968383789,-7.524078369,1,0,0,-5.968383789,-7.524078369,1,0,0,0,74,74,122,1,,,,,,,,
,,,,,,,,,,,,,FF,,,,,,,,0.9658,,,,,,,,,,,,,,,,,,,,,,61022223a350329c8ca81df5,61036d36f7272343cda56396,2021-07-29_20h10.41.611,Simcolourproject_2stim_asymm_v5,2020.2.10,MacIntel,60,61025ae37ef11b136ea224fe,,,,,,,,,1547,94.82659912,34.56262207,1,0,0,response1disk,,6,13.69873047,12.52355957,1,0,0,rectangle,13.69873047,12.52355957,1,0,0,13.69873047,12.52355957,1,0,0,0,75,75,78,1,,,,,,,,
,,,,,,,,,,,,,FF,,,,,,,,0.3499,,,,,,,,,,,,,,,,,,,,,,61022223a350329c8ca81df5,61036d36f7272343cda56396,2021-07-29_20h10.41.611,Simcolourproject_2stim_asymm_v5,2020.2.10,MacIntel,60,61025ae37ef11b136ea224fe,,,,,,,,,1554,78.30255127,33.81292725,1,0,0,response1disk,,6,11.82080078,10.84716797,1,0,0,rectangle,11.82080078,10.84716797,1,0,0,11.82080078,10.84716797,1,0,0,0,76,76,110,1,,,,,,,,
,,,,,,,,,,,,,FF,,,,,,,,1.1503,,,,,,,,,,,,,,,,,,,,,,61022223a350329c8ca81df5,61036d36f7272343cda56396,2021-07-29_20h10.41.611,Simcolourproject_2stim_asymm_v5,2020.2.10,MacIntel,60,61025ae37ef11b136ea224fe,,,,,,,,,1755,-54.82763672,-88.20471191,1,0,0,response5disk,,3,-19.83056641,-1.727752686,1,0,0,rectangle,-19.83056641,-1.727752686,1,0,0,-19.83056641,-1.727752686,1,0,0,0,77,77,90,1,,,,,,,,
,,,,,,,,,,,,,FF,,,,,,,,0.4,,,,,,,,,,,,,,,,,,,,,,61022223a350329c8ca81df5,61036d36f7272343cda56396,2021-07-29_20h10.41.611,Simcolourproject_2stim_asymm_v5,2020.2.10,MacIntel,60,61025ae37ef11b136ea224fe,,,,,,,,,4262,72.87701416,19.55172729,1,0,0,response1disk,,6,10.27825928,6.381774902,1,0,0,rectangle,10.27825928,6.381774902,1,0,0,10.27825928,6.381774902,1,0,0,0,78,78,66,1,,,,,,,,
,,,,,,,,,,,,,FF,,,,,,,,0.7164,,,,,,,,,,,,,,,,,,,,,,61022223a350329c8ca81df5,61036d36f7272343cda56396,2021-07-29_20h10.41.611,Simcolourproject_2stim_asymm_v5,2020.2.10,MacIntel,60,61025ae37ef11b136ea224fe,,,,,,,,,2025,-37.3034668,70.26647949,1,0,0,response7disk,,0,-24.5581665,11.74707031,1,0,0,rectangle,-24.5581665,11.74707031,1,0,0,-24.5581665,11.74707031,1,0,0,0,79,79,150,1,,,,,,,,
,,,,,,,,,,,,,FF,,,,,,,,0.4837,,,,,,,,,,,,,,,,,,,,,,61022223a350329c8ca81df5,61036d36f7272343cda56396,2021-07-29_20h10.41.611,Simcolourproject_2stim_asymm_v5,2020.2.10,MacIntel,60,61025ae37ef11b136ea224fe,,,,,,,,,2400,69.80969238,31.25164795,1,0,0,response1disk,,6,31.65814209,9.361328125,1,0,0,rectangle,31.65814209,9.361328125,1,0,0,31.65814209,9.361328125,1,0,0,0,80,80,98,1,,,,,,,,
,,,,,,,,,,,,,FF,,,,,,,,0.3487,,,,,,,,,,,,,,,,,,,,,,61022223a350329c8ca81df5,61036d36f7272343cda56396,2021-07-29_20h10.41.611,Simcolourproject_2stim_asymm_v5,2020.2.10,MacIntel,60,61025ae37ef11b136ea224fe,,,,,,,,,3008,81.0847168,38.04663086,1,0,0,response1disk,,6,23.13824463,8.534362793,1,0,0,rectangle,23.13824463,8.534362793,1,0,0,23.13824463,8.534362793,1,0,0,0,81,81,114,1,,,,,,,,
,,,,,,,,,,,,,FF,,,,,,,,0.315,,,,,,,,,,,,,,,,,,,,,,61022223a350329c8ca81df5,61036d36f7272343cda56396,2021-07-29_20h10.41.611,Simcolourproject_2stim_asymm_v5,2020.2.10,MacIntel,60,61025ae37ef11b136ea224fe,,,,,,,,,2506,91.09753418,43.69967651,1,0,0,response1disk,,6,25.75756836,10.34112549,1,0,0,rectangle,25.75756836,10.34112549,1,0,0,25.75756836,10.34112549,1,0,0,0,82,82,32,1,,,,,,,,
,,,,,,,,,,,,,FF,,,,,,,,0.3333,,,,,,,,,,,,,,,,,,,,,,61022223a350329c8ca81df5,61036d36f7272343cda56396,2021-07-29_20h10.41.611,Simcolourproject_2stim_asymm_v5,2020.2.10,MacIntel,60,61025ae37ef11b136ea224fe,,,,,,,,,580,94.93475342,42.98693848,1,0,0,response1disk,,6,17.1494751,10.68579102,1,0,0,rectangle,17.1494751,10.68579102,1,0,0,17.1494751,10.68579102,1,0,0,0,83,83,140,1,,,,,,,,
,,,,,,,,,,,,,FF,,,,,,,,0.533,,,,,,,,,,,,,,,,,,,,,,61022223a350329c8ca81df5,61036d36f7272343cda56396,2021-07-29_20h10.41.611,Simcolourproject_2stim_asymm_v5,2020.2.10,MacIntel,60,61025ae37ef11b136ea224fe,,,,,,,,,1802,74.2947998,29.42388916,1,0,0,response1disk,,6,18.53900146,5.958740234,1,0,0,rectangle,18.53900146,5.958740234,1,0,0,18.53900146,5.958740234,1,0,0,0,84,84,159,1,,,,,,,,
,,,,,,,,,,,,,FF,,,,,,,,0.4337,,,,,,,,,,,,,,,,,,,,,,61022223a350329c8ca81df5,61036d36f7272343cda56396,2021-07-29_20h10.41.611,Simcolourproject_2stim_asymm_v5,2020.2.10,MacIntel,60,61025ae37ef11b136ea224fe,,,,,,,,,2536,83.41802979,22.61810303,1,0,0,response1disk,,6,10.31616211,-9.98046875,1,0,0,rectangle,10.31616211,-9.98046875,1,0,0,10.31616211,-9.98046875,1,0,0,0,85,85,30,1,,,,,,,,
,,,,,,,,,,,,,FF,,,,,,,,0.3841,,,,,,,,,,,,,,,,,,,,,,61022223a350329c8ca81df5,61036d36f7272343cda56396,2021-07-29_20h10.41.611,Simcolourproject_2stim_asymm_v5,2020.2.10,MacIntel,60,61025ae37ef11b136ea224fe,,,,,,,,,3142,82.70568848,17.85351563,1,0,0,response1disk,,6,-2.559143066,-1.317840576,1,0,0,rectangle,-2.559143066,-1.317840576,1,0,0,-2.559143066,-1.317840576,1,0,0,0,86,86,89,1,,,,,,,,
,,,,,,,,,,,,,FF,,,,,,,,1.0822,,,,,,,,,,,,,,,,,,,,,,61022223a350329c8ca81df5,61036d36f7272343cda56396,2021-07-29_20h10.41.611,Simcolourproject_2stim_asymm_v5,2020.2.10,MacIntel,60,61025ae37ef11b136ea224fe,,,,,,,,,3391,-72.11694336,-34.51867676,1,0,0,response5disk,,2,-15.81689453,-12.7109375,1,0,0,rectangle,-15.81689453,-12.7109375,1,0,0,-15.81689453,-12.7109375,1,0,0,0,87,87,109,1,,,,,,,,
,,,,,,,,,,,,,FF,,,,,,,,0.5662,,,,,,,,,,,,,,,,,,,,,,61022223a350329c8ca81df5,61036d36f7272343cda56396,2021-07-29_20h10.41.611,Simcolourproject_2stim_asymm_v5,2020.2.10,MacIntel,60,61025ae37ef11b136ea224fe,,,,,,,,,1599,-62.38171387,-43.57623291,1,0,0,response5disk,,2,-26.78106689,-14.92687988,1,0,0,rectangle,-26.78106689,-14.92687988,1,0,0,-26.78106689,-14.92687988,1,0,0,0,88,88,91,1,,,,,,,,
,,,,,,,,,,,,,FF,,,,,,,,0.8659,,,,,,,,,,,,,,,,,,,,,,61022223a350329c8ca81df5,61036d36f7272343cda56396,2021-07-29_20h10.41.611,Simcolourproject_2stim_asymm_v5,2020.2.10,MacIntel,60,61025ae37ef11b136ea224fe,,,,,,,,,1256,82.23272705,49.3888855,1,0,0,response1disk,,6,2.785827637,-4.253173828,1,0,0,rectangle,2.785827637,-4.253173828,1,0,0,2.785827637,-4.253173828,1,0,0,0,89,89,27,1,,,,,,,,
,,,,,,,,,,,,,FF,,,,,,,,0.3672,,,,,,,,,,,,,,,,,,,,,,61022223a350329c8ca81df5,61036d36f7272343cda56396,2021-07-29_20h10.41.611,Simcolourproject_2stim_asymm_v5,2020.2.10,MacIntel,60,61025ae37ef11b136ea224fe,,,,,,,,,3086,74.20446777,28.10144043,1,0,0,response1disk,,6,-11.38806152,6.44039917,1,0,0,rectangle,-11.38806152,6.44039917,1,0,0,-11.38806152,6.44039917,1,0,0,0,90,90,33,1,,,,,,,,
,,,,,,,,,,,,,FF,,,,,,,,0.4157,,,,,,,,,,,,,,,,,,,,,,61022223a350329c8ca81df5,61036d36f7272343cda56396,2021-07-29_20h10.41.611,Simcolourproject_2stim_asymm_v5,2020.2.10,MacIntel,60,61025ae37ef11b136ea224fe,,,,,,,,,3986,64.94152832,26.80755615,1,0,0,response1disk,,6,-2.716186523,-8.794494629,1,0,0,rectangle,-2.716186523,-8.794494629,1,0,0,-2.716186523,-8.794494629,1,0,0,0,91,91,153,1,,,,,,,,
,,,,,,,,,,,,,FF,,,,,,,,0.3324,,,,,,,,,,,,,,,,,,,,,,61022223a350329c8ca81df5,61036d36f7272343cda56396,2021-07-29_20h10.41.611,Simcolourproject_2stim_asymm_v5,2020.2.10,MacIntel,60,61025ae37ef11b136ea224fe,,,,,,,,,2451,83.21459961,31.02999878,1,0,0,response1disk,,6,5.845031738,7.139373779,1,0,0,rectangle,5.845031738,7.139373779,1,0,0,5.845031738,7.139373779,1,0,0,0,92,92,102,1,,,,,,,,
,,,,,,,,,,,,,FF,,,,,,,,0.2827,,,,,,,,,,,,,,,,,,,,,,61022223a350329c8ca81df5,61036d36f7272343cda56396,2021-07-29_20h10.41.611,Simcolourproject_2stim_asymm_v5,2020.2.10,MacIntel,60,61025ae37ef11b136ea224fe,,,,,,,,,3881,77.24951172,23.56619263,1,0,0,response1disk,,6,18.51446533,0.04510498,1,0,0,rectangle,18.51446533,0.04510498,1,0,0,18.51446533,0.04510498,1,0,0,0,93,93,82,1,,,,,,,,
,,,,,,,,,,,,,FF,,,,,,,,0.3493,,,,,,,,,,,,,,,,,,,,,,61022223a350329c8ca81df5,61036d36f7272343cda56396,2021-07-29_20h10.41.611,Simcolourproject_2stim_asymm_v5,2020.2.10,MacIntel,60,61025ae37ef11b136ea224fe,,,,,,,,,3289,84.15014648,17.85644531,1,0,0,response1disk,,6,8.450683594,10.39245605,1,0,0,rectangle,8.450683594,10.39245605,1,0,0,8.450683594,10.39245605,1,0,0,0,94,94,118,1,,,,,,,,
,,,,,,,,,,,,,FF,,,,,,,,0.2832,,,,,,,,,,,,,,,,,,,,,,61022223a350329c8ca81df5,61036d36f7272343cda56396,2021-07-29_20h10.41.611,Simcolourproject_2stim_asymm_v5,2020.2.10,MacIntel,60,61025ae37ef11b136ea224fe,,,,,,,,,1009,96.33666992,45.71325684,1,0,0,response1disk,,6,-22.66235352,1.404632568,1,0,0,rectangle,-22.66235352,1.404632568,1,0,0,-22.66235352,1.404632568,1,0,0,0,95,95,13,1,,,,,,,,
,,,,,,,,,,,,,FF,,,,,,,,0.333,,,,,,,,,,,,,,,,,,,,,,61022223a350329c8ca81df5,61036d36f7272343cda56396,2021-07-29_20h10.41.611,Simcolourproject_2stim_asymm_v5,2020.2.10,MacIntel,60,61025ae37ef11b136ea224fe,,,,,,,,,2145,86.17785645,37.44512939,1,0,0,response1disk,,6,12.15698242,5.445556641,1,0,0,rectangle,12.15698242,5.445556641,1,0,0,12.15698242,5.445556641,1,0,0,0,96,96,124,1,,,,,,,,
,,,,,,,,,,,,,FF,,,,,,,,0.3664,,,,,,,,,,,,,,,,,,,,,,61022223a350329c8ca81df5,61036d36f7272343cda56396,2021-07-29_20h10.41.611,Simcolourproject_2stim_asymm_v5,2020.2.10,MacIntel,60,61025ae37ef11b136ea224fe,,,,,,,,,4165,98.95025635,37.42565918,1,0,0,response1disk,,6,16.37756348,-1.613708496,1,0,0,rectangle,16.37756348,-1.613708496,1,0,0,16.37756348,-1.613708496,1,0,0,0,97,97,6,1,,,,,,,,
,,,,,,,,,,,,,FF,,,,,,,,0.9005,,,,,,,,,,,,,,,,,,,,,,61022223a350329c8ca81df5,61036d36f7272343cda56396,2021-07-29_20h10.41.611,Simcolourproject_2stim_asymm_v5,2020.2.10,MacIntel,60,61025ae37ef11b136ea224fe,,,,,,,,,2892,-17.47906494,-83.44836426,1,0,0,response5disk,,3,-4.420410156,-5.247375488,1,0,0,rectangle,-4.420410156,-5.247375488,1,0,0,-4.420410156,-5.247375488,1,0,0,0,98,98,71,1,,,,,,,,
,,,,,,,,,,,,,FF,,,,,,,,1.1514,,,,,,,,,,,,,,,,,,,,,,61022223a350329c8ca81df5,61036d36f7272343cda56396,2021-07-29_20h10.41.611,Simcolourproject_2stim_asymm_v5,2020.2.10,MacIntel,60,61025ae37ef11b136ea224fe,,,,,,,,,2187,116.4193726,67.00158691,1,0,0,response1disk,,6,4.047912598,-11.03341675,1,0,0,rectangle,4.047912598,-11.03341675,1,0,0,4.047912598,-11.03341675,1,0,0,0,99,99,156,1,,,,,,,,
,,,,,,,,,,,,,FF,,,,,,,,0.6333,,,,,,,,,,,,,,,,,,,,,,61022223a350329c8ca81df5,61036d36f7272343cda56396,2021-07-29_20h10.41.611,Simcolourproject_2stim_asymm_v5,2020.2.10,MacIntel,60,61025ae37ef11b136ea224fe,,,,,,,,,830,70.22637939,20.02606201,1,0,0,response1disk,,6,12.0380249,-1.688171387,1,0,0,rectangle,12.0380249,-1.688171387,1,0,0,12.0380249,-1.688171387,1,0,0,0,100,100,115,1,,,,,,,,
,,,,,,,,,,,,,FF,,,,,,,,0.3502,,,,,,,,,,,,,,,,,,,,,,61022223a350329c8ca81df5,61036d36f7272343cda56396,2021-07-29_20h10.41.611,Simcolourproject_2stim_asymm_v5,2020.2.10,MacIntel,60,61025ae37ef11b136ea224fe,,,,,,,,,2497,62.28808594,21.47357178,1,0,0,response1disk,,6,10.50024414,-0.236572266,1,0,0,rectangle,10.50024414,-0.236572266,1,0,0,10.50024414,-0.236572266,1,0,0,0,101,101,75,1,,,,,,,,
,,,,,,,,,,,,,FF,,,,,,,,0.4995,,,,,,,,,,,,,,,,,,,,,,61022223a350329c8ca81df5,61036d36f7272343cda56396,2021-07-29_20h10.41.611,Simcolourproject_2stim_asymm_v5,2020.2.10,MacIntel,60,61025ae37ef11b136ea224fe,,,,,,,,,3805,76.23522949,29.3637085,1,0,0,response1disk,,6,11.63879395,7.907348633,1,0,0,rectangle,11.63879395,7.907348633,1,0,0,11.63879395,7.907348633,1,0,0,0,102,102,46,1,,,,,,,,
,,,,,,,,,,,,,FF,,,,,,,,0.3999,,,,,,,,,,,,,,,,,,,,,,61022223a350329c8ca81df5,61036d36f7272343cda56396,2021-07-29_20h10.41.611,Simcolourproject_2stim_asymm_v5,2020.2.10,MacIntel,60,61025ae37ef11b136ea224fe,,,,,,,,,1093,87.64489746,45.20541382,1,0,0,response1disk,,6,-4.572692871,4.12802124,1,0,0,rectangle,-4.572692871,4.12802124,1,0,0,-4.572692871,4.12802124,1,0,0,0,103,103,23,1,,,,,,,,
,,,,,,,,,,,,,FF,,,,,,,,0.2659,,,,,,,,,,,,,,,,,,,,,,61022223a350329c8ca81df5,61036d36f7272343cda56396,2021-07-29_20h10.41.611,Simcolourproject_2stim_asymm_v5,2020.2.10,MacIntel,60,61025ae37ef11b136ea224fe,,,,,,,,,1636,102.440979,54.52233887,1,0,0,response1disk,,6,2.605407715,0.713134766,1,0,0,rectangle,2.605407715,0.713134766,1,0,0,2.605407715,0.713134766,1,0,0,0,104,104,142,1,,,,,,,,
,,,,,,,,,,,,,FF,,,,,,,,0.7838,,,,,,,,,,,,,,,,,,,,,,61022223a350329c8ca81df5,61036d36f7272343cda56396,2021-07-29_20h10.41.611,Simcolourproject_2stim_asymm_v5,2020.2.10,MacIntel,60,61025ae37ef11b136ea224fe,,,,,,,,,612,-55.7121582,-64.21582031,1,0,0,response5disk,,3,0.816772461,-5.437744141,1,0,0,rectangle,0.816772461,-5.437744141,1,0,0,0.816772461,-5.437744141,1,0,0,0,105,105,139,1,,,,,,,,
,,,,,,,,,,,,,FF,,,,,,,,0.5488,,,,,,,,,,,,,,,,,,,,,,61022223a350329c8ca81df5,61036d36f7272343cda56396,2021-07-29_20h10.41.611,Simcolourproject_2stim_asymm_v5,2020.2.10,MacIntel,60,61025ae37ef11b136ea224fe,,,,,,,,,657,96.3381958,16.09136963,1,0,0,response1disk,,6,-8.846740723,2.780700684,1,0,0,rectangle,-8.846740723,2.780700684,1,0,0,-8.846740723,2.780700684,1,0,0,0,106,106,93,1,,,,,,,,
,,,,,,,,,,,,,FF,,,,,,,,0.3666,,,,,,,,,,,,,,,,,,,,,,61022223a350329c8ca81df5,61036d36f7272343cda56396,2021-07-29_20h10.41.611,Simcolourproject_2stim_asymm_v5,2020.2.10,MacIntel,60,61025ae37ef11b136ea224fe,,,,,,,,,1160,64.91796875,32.78201294,1,0,0,response1disk,,6,-3.789428711,3.243408203,1,0,0,rectangle,-3.789428711,3.243408203,1,0,0,-3.789428711,3.243408203,1,0,0,0,107,107,1,1,,,,,,,,
,,,,,,,,,,,,,FF,,,,,,,,0.3166,,,,,,,,,,,,,,,,,,,,,,61022223a350329c8ca81df5,61036d36f7272343cda56396,2021-07-29_20h10.41.611,Simcolourproject_2stim_asymm_v5,2020.2.10,MacIntel,60,61025ae37ef11b136ea224fe,,,,,,,,,2863,84.22229004,43.95480347,1,0,0,response1disk,,6,-2.113891602,0.836242676,1,0,0,rectangle,-2.113891602,0.836242676,1,0,0,-2.113891602,0.836242676,1,0,0,0,108,108,154,1,,,,,,,,
,,,,,,,,,,,,,FF,,,,,,,,0.3162,,,,,,,,,,,,,,,,,,,,,,61022223a350329c8ca81df5,61036d36f7272343cda56396,2021-07-29_20h10.41.611,Simcolourproject_2stim_asymm_v5,2020.2.10,MacIntel,60,61025ae37ef11b136ea224fe,,,,,,,,,954,91.76062012,34.59332275,1,0,0,response1disk,,6,13.69970703,-4.210144043,1,0,0,rectangle,13.69970703,-4.210144043,1,0,0,13.69970703,-4.210144043,1,0,0,0,109,109,112,1,,,,,,,,
,,,,,,,,,,,,,FF,,,,,,,,0.5684,,,,,,,,,,,,,,,,,,,,,,61022223a350329c8ca81df5,61036d36f7272343cda56396,2021-07-29_20h10.41.611,Simcolourproject_2stim_asymm_v5,2020.2.10,MacIntel,60,61025ae37ef11b136ea224fe,,,,,,,,,70,-32.98529053,-52.93579102,1,0,0,response5disk,,3,-1.324829102,6.373474121,1,0,0,rectangle,-1.324829102,6.373474121,1,0,0,-1.324829102,6.373474121,1,0,0,0,110,110,113,1,,,,,,,,
,,,,,,,,,,,,,FF,,,,,,,,0.5167,,,,,,,,,,,,,,,,,,,,,,61022223a350329c8ca81df5,61036d36f7272343cda56396,2021-07-29_20h10.41.611,Simcolourproject_2stim_asymm_v5,2020.2.10,MacIntel,60,61025ae37ef11b136ea224fe,,,,,,,,,2543,-44.86682129,-65.4362793,1,0,0,response5disk,,3,-1.865783691,-3.912963867,1,0,0,rectangle,-1.865783691,-3.912963867,1,0,0,-1.865783691,-3.912963867,1,0,0,0,111,111,68,1,,,,,,,,
,,,,,,,,,,,,,FF,,,,,,,,0.5835,,,,,,,,,,,,,,,,,,,,,,61022223a350329c8ca81df5,61036d36f7272343cda56396,2021-07-29_20h10.41.611,Simcolourproject_2stim_asymm_v5,2020.2.10,MacIntel,60,61025ae37ef11b136ea224fe,,,,,,,,,902,62.04064941,17.88421631,1,0,0,response1disk,,6,4.066650391,-11.16104126,1,0,0,rectangle,4.066650391,-11.16104126,1,0,0,4.066650391,-11.16104126,1,0,0,0,112,112,103,1,,,,,,,,
,,,,,,,,,,,,,FF,,,,,,,,0.4513,,,,,,,,,,,,,,,,,,,,,,61022223a350329c8ca81df5,61036d36f7272343cda56396,2021-07-29_20h10.41.611,Simcolourproject_2stim_asymm_v5,2020.2.10,MacIntel,60,61025ae37ef11b136ea224fe,,,,,,,,,2069,86.23339844,38.06573486,1,0,0,response1disk,,6,3.587646484,2.505737305,1,0,0,rectangle,3.587646484,2.505737305,1,0,0,3.587646484,2.505737305,1,0,0,0,113,113,7,1,,,,,,,,
,,,,,,,,,,,,,FF,,,,,,,,0.6833,,,,,,,,,,,,,,,,,,,,,,61022223a350329c8ca81df5,61036d36f7272343cda56396,2021-07-29_20h10.41.611,Simcolourproject_2stim_asymm_v5,2020.2.10,MacIntel,60,61025ae37ef11b136ea224fe,,,,,,,,,346,-40.45684814,-60.70672607,1,0,0,response5disk,,3,-19.84008789,-15.66650391,1,0,0,rectangle,-19.84008789,-15.66650391,1,0,0,-19.84008789,-15.66650391,1,0,0,0,114,114,15,1,,,,,,,,
,,,,,,,,,,,,,FF,,,,,,,,0.8499,,,,,,,,,,,,,,,,,,,,,,61022223a350329c8ca81df5,61036d36f7272343cda56396,2021-07-29_20h10.41.611,Simcolourproject_2stim_asymm_v5,2020.2.10,MacIntel,60,61025ae37ef11b136ea224fe,,,,,,,,,2077,75.75250244,24.03778076,1,0,0,response1disk,,6,14.96368408,-8.500579834,1,0,0,rectangle,14.96368408,-8.500579834,1,0,0,14.96368408,-8.500579834,1,0,0,0,115,115,129,1,,,,,,,,
,,,,,,,,,,,,,FF,,,,,,,,0.366,,,,,,,,,,,,,,,,,,,,,,61022223a350329c8ca81df5,61036d36f7272343cda56396,2021-07-29_20h10.41.611,Simcolourproject_2stim_asymm_v5,2020.2.10,MacIntel,60,61025ae37ef11b136ea224fe,,,,,,,,,2569,85.94219971,31.16238403,1,0,0,response1disk,,6,7.60369873,0.139221191,1,0,0,rectangle,7.60369873,0.139221191,1,0,0,7.60369873,0.139221191,1,0,0,0,116,116,36,1,,,,,,,,
,,,,,,,,,,,,,FF,,,,,,,,1.1004,,,,,,,,,,,,,,,,,,,,,,61022223a350329c8ca81df5,61036d36f7272343cda56396,2021-07-29_20h10.41.611,Simcolourproject_2stim_asymm_v5,2020.2.10,MacIntel,60,61025ae37ef11b136ea224fe,,,,,,,,,4137,72.24121094,25.68502808,1,0,0,response1disk,,6,1.367919922,-0.169830322,0,0,1,rectangle,1.367919922,-0.169830322,0,0,1,1.367919922,-0.169830322,0,0,1,0,117,117,40,1,,,,,,,,
,,,,,,,,,,,,,FF,,,,,,,,1.0502,,,,,,,,,,,,,,,,,,,,,,61022223a350329c8ca81df5,61036d36f7272343cda56396,2021-07-29_20h10.41.611,Simcolourproject_2stim_asymm_v5,2020.2.10,MacIntel,60,61025ae37ef11b136ea224fe,,,,,,,,,1811,63.50061035,27.93127441,1,0,1,response1disk,,6,6.625549316,5.987060547,1,0,1,rectangle,6.625549316,5.987060547,1,0,1,6.625549316,5.987060547,1,0,1,0,118,118,63,1,,,,,,,,
,,,,,,,,,,,,,FF,,,,,,,,0.3483,,,,,,,,,,,,,,,,,,,,,,61022223a350329c8ca81df5,61036d36f7272343cda56396,2021-07-29_20h10.41.611,Simcolourproject_2stim_asymm_v5,2020.2.10,MacIntel,60,61025ae37ef11b136ea224fe,,,,,,,,,1463,65.37481689,23.50335693,1,0,1,response1disk,,6,6.400512695,14.85263062,1,0,1,rectangle,6.400512695,14.85263062,1,0,1,6.400512695,14.85263062,1,0,1,0,119,119,26,1,,,,,,,,
,,,,,,,,,,,,,FF,,,,,,,,0.3512,,,,,,,,,,,,,,,,,,,,,,61022223a350329c8ca81df5,61036d36f7272343cda56396,2021-07-29_20h10.41.611,Simcolourproject_2stim_asymm_v5,2020.2.10,MacIntel,60,61025ae37ef11b136ea224fe,,,,,,,,,4308,85.12915039,30.61529541,1,0,1,response1disk,,6,-1.057922363,12.0072937,1,0,1,rectangle,70.73095703,-44.13806152,1,0,1,-2.192016602,1.253723145,1,0,1,0,120,120,72,1,,response3disk_3,TRUE,5,5,"[157,236,198,195,256,51,65,197,27,36,121,271,213,46,8,195,122,196,4,58]",1.6326,rectangle
,,,,,,,,,,,,,FF,,,,,,,,0.9515,,,,,,,,,,,,,,,,,,,,,,61022223a350329c8ca81df5,61036d36f7272343cda56396,2021-07-29_20h10.41.611,Simcolourproject_2stim_asymm_v5,2020.2.10,MacIntel,60,61025ae37ef11b136ea224fe,,,,,,,,,521,43.31781006,19.7310791,1,0,1,response1disk,,6,12.54589844,-7.684204102,1,0,1,rectangle,-53.51220703,-74.67797852,1,0,1,6.059997559,-16.3069458,1,0,1,0,121,121,127,1,,response5disk_3,TRUE,3,3,"[157,236,198,195,256,51,65,197,27,36,121,271,213,46,8,195,122,196,4,58]",1.6663,rectangle
,,,,,,,,,,,,,FF,,,,,,,,1.5658,,,,,,,,,,,,,,,,,,,,,,61022223a350329c8ca81df5,61036d36f7272343cda56396,2021-07-29_20h10.41.611,Simcolourproject_2stim_asymm_v5,2020.2.10,MacIntel,60,61025ae37ef11b136ea224fe,,,,,,,,,1254,38.27392578,-45.80877686,1,0,1,response3disk,,4,18.84771729,-7.762145996,1,0,1,rectangle,18.84771729,-7.762145996,1,0,1,18.84771729,-7.762145996,1,0,1,0,122,122,128,1,,,,,,,,
,,,,,,,,,,,,,FF,,,,,,,,1.1495,,,,,,,,,,,,,,,,,,,,,,61022223a350329c8ca81df5,61036d36f7272343cda56396,2021-07-29_20h10.41.611,Simcolourproject_2stim_asymm_v5,2020.2.10,MacIntel,60,61025ae37ef11b136ea224fe,,,,,,,,,3000,-27.67663574,67.61959839,1,0,1,response7disk,,0,2.9921875,5.958190918,1,0,1,rectangle,2.9921875,5.958190918,1,0,1,2.9921875,5.958190918,1,0,1,0,123,123,19,1,,,,,,,,
,,,,,,,,,,,,,FF,,,,,,,,0.5006,,,,,,,,,,,,,,,,,,,,,,61022223a350329c8ca81df5,61036d36f7272343cda56396,2021-07-29_20h10.41.611,Simcolourproject_2stim_asymm_v5,2020.2.10,MacIntel,60,61025ae37ef11b136ea224fe,,,,,,,,,1312,41.97619629,22.34973145,1,0,1,response1disk,,6,0.028076172,1.438598633,1,0,1,rectangle,0.028076172,1.438598633,1,0,1,0.028076172,1.438598633,1,0,1,0,124,124,61,1,,,,,,,,
,,,,,,,,,,,,,FF,,,,,,,,1.0499,,,,,,,,,,,,,,,,,,,,,,61022223a350329c8ca81df5,61036d36f7272343cda56396,2021-07-29_20h10.41.611,Simcolourproject_2stim_asymm_v5,2020.2.10,MacIntel,60,61025ae37ef11b136ea224fe,,,,,,,,,3006,-20.27758789,-88.82891846,1,0,1,response5disk,,3,-10.41442871,-7.562347412,1,0,1,rectangle,-10.41442871,-7.562347412,1,0,1,-10.41442871,-7.562347412,1,0,1,0,125,125,56,1,,,,,,,,
,,,,,,,,,,,,,FF,,,,,,,,0.5493,,,,,,,,,,,,,,,,,,,,,,61022223a350329c8ca81df5,61036d36f7272343cda56396,2021-07-29_20h10.41.611,Simcolourproject_2stim_asymm_v5,2020.2.10,MacIntel,60,61025ae37ef11b136ea224fe,,,,,,,,,65,-35.51477051,-49.5534668,1,0,1,response5disk,,3,-28.12280273,-11.25021362,1,0,1,rectangle,-28.12280273,-11.25021362,1,0,1,-28.12280273,-11.25021362,1,0,1,0,126,126,96,1,,,,,,,,
,,,,,,,,,,,,,FF,,,,,,,,0.4001,,,,,,,,,,,,,,,,,,,,,,61022223a350329c8ca81df5,61036d36f7272343cda56396,2021-07-29_20h10.41.611,Simcolourproject_2stim_asymm_v5,2020.2.10,MacIntel,60,61025ae37ef11b136ea224fe,,,,,,,,,2360,-47.8927002,-62.24200439,1,0,1,response5disk,,3,-21.0177002,-17.74612427,1,0,1,rectangle,-21.0177002,-17.74612427,1,0,1,-21.0177002,-17.74612427,1,0,1,0,127,127,20,1,,,,,,,,
,,,,,,,,,,,,,FF,,,,,,,,0.5666,,,,,,,,,,,,,,,,,,,,,,61022223a350329c8ca81df5,61036d36f7272343cda56396,2021-07-29_20h10.41.611,Simcolourproject_2stim_asymm_v5,2020.2.10,MacIntel,60,61025ae37ef11b136ea224fe,,,,,,,,,1414,67.59442139,-30.36752319,1,0,1,response3disk,,5,14.08319092,-8.589782715,1,0,1,rectangle,14.08319092,-8.589782715,1,0,1,14.08319092,-8.589782715,1,0,1,0,128,128,134,1,,,,,,,,
,,,,,,,,,,,,,FF,,,,,,,,0.6334,,,,,,,,,,,,,,,,,,,,,,61022223a350329c8ca81df5,61036d36f7272343cda56396,2021-07-29_20h10.41.611,Simcolourproject_2stim_asymm_v5,2020.2.10,MacIntel,60,61025ae37ef11b136ea224fe,,,,,,,,,3167,46.70068359,-37.59924316,1,0,1,response3disk,,5,9.931030273,-10.08404541,1,0,1,rectangle,9.931030273,-10.08404541,1,0,1,9.931030273,-10.08404541,1,0,1,0,129,129,58,1,,,,,,,,
,,,,,,,,,,,,,FF,,,,,,,,0.4317,,,,,,,,,,,,,,,,,,,,,,61022223a350329c8ca81df5,61036d36f7272343cda56396,2021-07-29_20h10.41.611,Simcolourproject_2stim_asymm_v5,2020.2.10,MacIntel,60,61025ae37ef11b136ea224fe,,,,,,,,,2869,53.88745117,-24.93780518,1,0,1,response3disk,,5,20.90826416,-2.701263428,1,0,1,rectangle,20.90826416,-2.701263428,1,0,1,20.90826416,-2.701263428,1,0,1,0,130,130,144,1,,,,,,,,
,,,,,,,,,,,,,FF,,,,,,,,0.4339,,,,,,,,,,,,,,,,,,,,,,61022223a350329c8ca81df5,61036d36f7272343cda56396,2021-07-29_20h10.41.611,Simcolourproject_2stim_asymm_v5,2020.2.10,MacIntel,60,61025ae37ef11b136ea224fe,,,,,,,,,2896,74.57287598,-33.57891846,1,0,1,response3disk,,5,14.00524902,-9.393798828,1,0,1,rectangle,14.00524902,-9.393798828,1,0,1,14.00524902,-9.393798828,1,0,1,0,131,131,147,1,,,,,,,,
,,,,,,,,,,,,,FF,,,,,,,,0.7666,,,,,,,,,,,,,,,,,,,,,,61022223a350329c8ca81df5,61036d36f7272343cda56396,2021-07-29_20h10.41.611,Simcolourproject_2stim_asymm_v5,2020.2.10,MacIntel,60,61025ae37ef11b136ea224fe,,,,,,,,,3712,-43.29394531,-55.49951172,1,0,1,response5disk,,3,-11.98864746,-7.16607666,1,0,1,rectangle,-11.98864746,-7.16607666,1,0,1,-11.98864746,-7.16607666,1,0,1,0,132,132,86,1,,,,,,,,
,,,,,,,,,,,,,FF,,,,,,,,0.5005,,,,,,,,,,,,,,,,,,,,,,61022223a350329c8ca81df5,61036d36f7272343cda56396,2021-07-29_20h10.41.611,Simcolourproject_2stim_asymm_v5,2020.2.10,MacIntel,60,61025ae37ef11b136ea224fe,,,,,,,,,2729,-32.90844727,-52.56997681,1,0,1,response5disk,,3,-15.66870117,-8.040161133,1,0,1,rectangle,-15.66870117,-8.040161133,1,0,1,-15.66870117,-8.040161133,1,0,1,0,133,133,137,1,,,,,,,,
,,,,,,,,,,,,,FF,,,,,,,,0.5489,,,,,,,,,,,,,,,,,,,,,,61022223a350329c8ca81df5,61036d36f7272343cda56396,2021-07-29_20h10.41.611,Simcolourproject_2stim_asymm_v5,2020.2.10,MacIntel,60,61025ae37ef11b136ea224fe,,,,,,,,,2140,67.67681885,-34.09320068,1,0,1,response3disk,,5,14.71899414,9.645141602,1,0,1,rectangle,14.71899414,9.645141602,1,0,1,14.71899414,9.645141602,1,0,1,0,134,134,55,1,,,,,,,,
,,,,,,,,,,,,,FF,,,,,,,,0.5325,,,,,,,,,,,,,,,,,,,,,,61022223a350329c8ca81df5,61036d36f7272343cda56396,2021-07-29_20h10.41.611,Simcolourproject_2stim_asymm_v5,2020.2.10,MacIntel,60,61025ae37ef11b136ea224fe,,,,,,,,,1921,54.06256104,18.23248291,1,0,1,response1disk,,6,8.234558105,-6.041046143,1,0,1,rectangle,8.234558105,-6.041046143,1,0,1,8.234558105,-6.041046143,1,0,1,0,135,135,138,1,,,,,,,,
,,,,,,,,,,,,,FF,,,,,,,,0.283,,,,,,,,,,,,,,,,,,,,,,61022223a350329c8ca81df5,61036d36f7272343cda56396,2021-07-29_20h10.41.611,Simcolourproject_2stim_asymm_v5,2020.2.10,MacIntel,60,61025ae37ef11b136ea224fe,,,,,,,,,2979,76.92132568,43.32366943,1,0,1,response1disk,,6,15.64208984,4.728881836,1,0,1,rectangle,15.64208984,4.728881836,1,0,1,15.64208984,4.728881836,1,0,1,0,136,136,50,1,,,,,,,,
,,,,,,,,,,,,,FF,,,,,,,,0.3008,,,,,,,,,,,,,,,,,,,,,,61022223a350329c8ca81df5,61036d36f7272343cda56396,2021-07-29_20h10.41.611,Simcolourproject_2stim_asymm_v5,2020.2.10,MacIntel,60,61025ae37ef11b136ea224fe,,,,,,,,,1903,41.80255127,47.02923584,1,0,1,response1disk,,7,6.233642578,7.648376465,1,0,1,rectangle,6.233642578,7.648376465,1,0,1,6.233642578,7.648376465,1,0,1,0,137,137,151,1,,,,,,,,
,,,,,,,,,,,,,FF,,,,,,,,0.3659,,,,,,,,,,,,,,,,,,,,,,61022223a350329c8ca81df5,61036d36f7272343cda56396,2021-07-29_20h10.41.611,Simcolourproject_2stim_asymm_v5,2020.2.10,MacIntel,60,61025ae37ef11b136ea224fe,,,,,,,,,2821,43.34613037,58.2901001,1,0,1,response1disk,,7,20.38708496,14.08944702,1,0,1,rectangle,20.38708496,14.08944702,1,0,1,20.38708496,14.08944702,1,0,1,0,138,138,42,1,,,,,,,,
,,,,,,,,,,,,,FF,,,,,,,,0.3826,,,,,,,,,,,,,,,,,,,,,,61022223a350329c8ca81df5,61036d36f7272343cda56396,2021-07-29_20h10.41.611,Simcolourproject_2stim_asymm_v5,2020.2.10,MacIntel,60,61025ae37ef11b136ea224fe,,,,,,,,,2157,53.05883789,56.90789795,1,0,1,response1disk,,7,8.820922852,11.6583252,1,0,1,rectangle,8.820922852,11.6583252,1,0,1,8.820922852,11.6583252,1,0,1,0,139,139,17,1,,,,,,,,
,,,,,,,,,,,,,FF,,,,,,,,0.2507,,,,,,,,,,,,,,,,,,,,,,61022223a350329c8ca81df5,61036d36f7272343cda56396,2021-07-29_20h10.41.611,Simcolourproject_2stim_asymm_v5,2020.2.10,MacIntel,60,61025ae37ef11b136ea224fe,,,,,,,,,2527,47.15625,87.93286133,1,0,1,response1disk,,7,6.958862305,10.81726074,1,0,1,rectangle,6.958862305,10.81726074,1,0,1,6.958862305,10.81726074,1,0,1,0,140,140,80,1,,,,,,,,
,,,,,,,,,,,,,FF,,,,,,,,0.317,,,,,,,,,,,,,,,,,,,,,,61022223a350329c8ca81df5,61036d36f7272343cda56396,2021-07-29_20h10.41.611,Simcolourproject_2stim_asymm_v5,2020.2.10,MacIntel,60,61025ae37ef11b136ea224fe,,,,,,,,,407,44.89337158,58.87145996,1,0,1,response1disk,,7,9.398620605,4.03692627,1,0,1,rectangle,9.398620605,4.03692627,1,0,1,9.398620605,4.03692627,1,0,1,0,141,141,24,1,,,,,,,,
,,,,,,,,,,,,,FF,,,,,,,,0.4014,,,,,,,,,,,,,,,,,,,,,,61022223a350329c8ca81df5,61036d36f7272343cda56396,2021-07-29_20h10.41.611,Simcolourproject_2stim_asymm_v5,2020.2.10,MacIntel,60,61025ae37ef11b136ea224fe,,,,,,,,,3192,51.62384033,47.64099121,1,0,1,response1disk,,6,-4.079284668,-12.05853271,1,0,1,rectangle,-4.079284668,-12.05853271,1,0,1,-4.079284668,-12.05853271,1,0,1,0,142,142,95,1,,,,,,,,
,,,,,,,,,,,,,FF,,,,,,,,0.5843,,,,,,,,,,,,,,,,,,,,,,61022223a350329c8ca81df5,61036d36f7272343cda56396,2021-07-29_20h10.41.611,Simcolourproject_2stim_asymm_v5,2020.2.10,MacIntel,60,61025ae37ef11b136ea224fe,,,,,,,,,1575,24.63146973,45.92614746,1,0,1,response1disk,,7,6.751586914,-4.422607422,1,0,1,rectangle,6.751586914,-4.422607422,1,0,1,6.751586914,-4.422607422,1,0,1,0,143,143,25,1,,,,,,,,
,,,,,,,,,,,,,FF,,,,,,,,0.4999,,,,,,,,,,,,,,,,,,,,,,61022223a350329c8ca81df5,61036d36f7272343cda56396,2021-07-29_20h10.41.611,Simcolourproject_2stim_asymm_v5,2020.2.10,MacIntel,60,61025ae37ef11b136ea224fe,,,,,,,,,2969,36.20526123,55.65612793,1,0,1,response1disk,,7,11.90722656,15.722229,1,0,1,rectangle,11.90722656,15.722229,1,0,1,11.90722656,15.722229,1,0,1,0,144,144,0,1,,,,,,,,
,,,,,,,,,,,,,FF,,,,,,,,0.8674,,,,,,,,,,,,,,,,,,,,,,61022223a350329c8ca81df5,61036d36f7272343cda56396,2021-07-29_20h10.41.611,Simcolourproject_2stim_asymm_v5,2020.2.10,MacIntel,60,61025ae37ef11b136ea224fe,,,,,,,,,3148,-54.57611084,-62.46740723,1,0,1,response5disk,,3,-25.09973145,-7.458190918,1,0,1,rectangle,-25.09973145,-7.458190918,1,0,1,-25.09973145,-7.458190918,1,0,1,0,145,145,2,1,,,,,,,,
,,,,,,,,,,,,,FF,,,,,,,,0.7172,,,,,,,,,,,,,,,,,,,,,,61022223a350329c8ca81df5,61036d36f7272343cda56396,2021-07-29_20h10.41.611,Simcolourproject_2stim_asymm_v5,2020.2.10,MacIntel,60,61025ae37ef11b136ea224fe,,,,,,,,,1431,18.69238281,-54.32092285,1,0,1,response3disk,,4,15.73114014,-8.592010498,1,0,1,rectangle,15.73114014,-8.592010498,1,0,1,15.73114014,-8.592010498,1,0,1,0,146,146,45,1,,,,,,,,
,,,,,,,,,,,,,FF,,,,,,,,0.9665,,,,,,,,,,,,,,,,,,,,,,61022223a350329c8ca81df5,61036d36f7272343cda56396,2021-07-29_20h10.41.611,Simcolourproject_2stim_asymm_v5,2020.2.10,MacIntel,60,61025ae37ef11b136ea224fe,,,,,,,,,2315,59.25476074,-38.12097168,1,0,1,response3disk,,5,-9.388366699,-9.628845215,1,0,1,rectangle,-9.388366699,-9.628845215,1,0,1,-9.388366699,-9.628845215,1,0,1,0,147,147,121,1,,,,,,,,
,,,,,,,,,,,,,FF,,,,,,,,0.751,,,,,,,,,,,,,,,,,,,,,,61022223a350329c8ca81df5,61036d36f7272343cda56396,2021-07-29_20h10.41.611,Simcolourproject_2stim_asymm_v5,2020.2.10,MacIntel,60,61025ae37ef11b136ea224fe,,,,,,,,,2423,-37.63012695,-81.13012695,1,0,1,response5disk,,3,-12.24029541,-6.232116699,1,0,1,rectangle,-12.24029541,-6.232116699,1,0,1,-12.24029541,-6.232116699,1,0,1,0,148,148,149,1,,,,,,,,
,,,,,,,,,,,,,FF,,,,,,,,0.5504,,,,,,,,,,,,,,,,,,,,,,61022223a350329c8ca81df5,61036d36f7272343cda56396,2021-07-29_20h10.41.611,Simcolourproject_2stim_asymm_v5,2020.2.10,MacIntel,60,61025ae37ef11b136ea224fe,,,,,,,,,3941,-44.57086182,-71.1151123,1,0,1,response5disk,,3,-7.429931641,0.827880859,1,0,1,rectangle,-7.429931641,0.827880859,1,0,1,-7.429931641,0.827880859,1,0,1,0,149,149,69,1,,,,,,,,
,,,,,,,,,,,,,FF,,,,,,,,0.7335,,,,,,,,,,,,,,,,,,,,,,61022223a350329c8ca81df5,61036d36f7272343cda56396,2021-07-29_20h10.41.611,Simcolourproject_2stim_asymm_v5,2020.2.10,MacIntel,60,61025ae37ef11b136ea224fe,,,,,,,,,2472,58.1907959,-27.73461914,1,0,1,response3disk,,5,9.266967773,-8.246612549,1,0,1,rectangle,9.266967773,-8.246612549,1,0,1,9.266967773,-8.246612549,1,0,1,0,150,150,14,1,,,,,,,,
,,,,,,,,,,,,,FF,,,,,,,,0.716,,,,,,,,,,,,,,,,,,,,,,61022223a350329c8ca81df5,61036d36f7272343cda56396,2021-07-29_20h10.41.611,Simcolourproject_2stim_asymm_v5,2020.2.10,MacIntel,60,61025ae37ef11b136ea224fe,,,,,,,,,11,60.84631348,-60.80465698,1,0,1,response3disk,,5,13.66589355,-15.36730957,1,0,1,rectangle,13.66589355,-15.36730957,1,0,1,13.66589355,-15.36730957,1,0,1,0,151,151,9,1,,,,,,,,
,,,,,,,,,,,,,FF,,,,,,,,0.5175,,,,,,,,,,,,,,,,,,,,,,61022223a350329c8ca81df5,61036d36f7272343cda56396,2021-07-29_20h10.41.611,Simcolourproject_2stim_asymm_v5,2020.2.10,MacIntel,60,61025ae37ef11b136ea224fe,,,,,,,,,4106,54.69787598,-24.39892578,1,0,1,response3disk,,5,19.80450439,-5.143798828,1,0,1,rectangle,19.80450439,-5.143798828,1,0,1,19.80450439,-5.143798828,1,0,1,0,152,152,136,1,,,,,,,,
,,,,,,,,,,,,,FF,,,,,,,,0.433,,,,,,,,,,,,,,,,,,,,,,61022223a350329c8ca81df5,61036d36f7272343cda56396,2021-07-29_20h10.41.611,Simcolourproject_2stim_asymm_v5,2020.2.10,MacIntel,60,61025ae37ef11b136ea224fe,,,,,,,,,1534,70.45874023,-31.45513916,1,0,1,response3disk,,5,4.446838379,1.821044922,1,0,1,rectangle,4.446838379,1.821044922,1,0,1,4.446838379,1.821044922,1,0,1,0,153,153,143,1,,,,,,,,
,,,,,,,,,,,,,FF,,,,,,,,0.3486,,,,,,,,,,,,,,,,,,,,,,61022223a350329c8ca81df5,61036d36f7272343cda56396,2021-07-29_20h10.41.611,Simcolourproject_2stim_asymm_v5,2020.2.10,MacIntel,60,61025ae37ef11b136ea224fe,,,,,,,,,991,72.24719238,-41.77526855,1,0,1,response3disk,,5,10.69677734,-9.223815918,1,0,1,rectangle,10.69677734,-9.223815918,1,0,1,10.69677734,-9.223815918,1,0,1,0,154,154,21,1,,,,,,,,
,,,,,,,,,,,,,FF,,,,,,,,0.3167,,,,,,,,,,,,,,,,,,,,,,61022223a350329c8ca81df5,61036d36f7272343cda56396,2021-07-29_20h10.41.611,Simcolourproject_2stim_asymm_v5,2020.2.10,MacIntel,60,61025ae37ef11b136ea224fe,,,,,,,,,1722,77.67669678,-41.68084717,1,0,1,response3disk,,5,23.08813477,-5.935974121,1,0,1,rectangle,23.08813477,-5.935974121,1,0,1,23.08813477,-5.935974121,1,0,1,0,155,155,70,1,,,,,,,,
,,,,,,,,,,,,,FF,,,,,,,,0.3333,,,,,,,,,,,,,,,,,,,,,,61022223a350329c8ca81df5,61036d36f7272343cda56396,2021-07-29_20h10.41.611,Simcolourproject_2stim_asymm_v5,2020.2.10,MacIntel,60,61025ae37ef11b136ea224fe,,,,,,,,,658,57.14093018,-27.91134644,1,0,1,response3disk,,5,-1.593566895,1.719177246,1,0,1,rectangle,73.02349854,-32.62915039,1,0,1,30.99890137,2.38168335,1,0,1,0,156,156,65,1,,response3disk_3,TRUE,5,5,"[157,236,198,195,256,51,65,197,27,36,121,271,213,46,8,195,122,196,4,58]",1.7329,rectangle
,,,,,,,,,,,,,FF,,,,,,,,0.8328,,,,,,,,,,,,,,,,,,,,,,61022223a350329c8ca81df5,61036d36f7272343cda56396,2021-07-29_20h10.41.611,Simcolourproject_2stim_asymm_v5,2020.2.10,MacIntel,60,61025ae37ef11b136ea224fe,,,,,,,,,3211,53.38769531,-22.21038818,1,0,1,response3disk,,5,8.967773438,-2.996704102,1,0,1,rectangle,8.967773438,-2.996704102,1,0,1,8.967773438,-2.996704102,1,0,1,0,157,157,152,1,,,,,,,,
,,,,,,,,,,,,,FF,,,,,,,,0.4008,,,,,,,,,,,,,,,,,,,,,,61022223a350329c8ca81df5,61036d36f7272343cda56396,2021-07-29_20h10.41.611,Simcolourproject_2stim_asymm_v5,2020.2.10,MacIntel,60,61025ae37ef11b136ea224fe,,,,,,,,,3647,65.22601318,-50.38955688,1,0,1,response3disk,,5,9.766662598,-17.70355225,1,0,1,rectangle,9.766662598,-17.70355225,1,0,1,9.766662598,-17.70355225,1,0,1,0,158,158,53,1,,,,,,,,
,,,,,,,,,,,,,FF,,,,,,,,0.3835,,,,,,,,,,,,,,,,,,,,,,61022223a350329c8ca81df5,61036d36f7272343cda56396,2021-07-29_20h10.41.611,Simcolourproject_2stim_asymm_v5,2020.2.10,MacIntel,60,61025ae37ef11b136ea224fe,,,,,,,,,288,63.16717529,-31.30584717,1,0,1,response3disk,,5,6.25390625,-7.241394043,1,0,1,rectangle,6.25390625,-7.241394043,1,0,1,6.25390625,-7.241394043,1,0,1,0,159,159,123,1,,,,,,,,
,,,,,,,,,,,,,FF,,,,,,,,0.3167,,,,,,,,,,,,,,,,,,,,,,61022223a350329c8ca81df5,61036d36f7272343cda56396,2021-07-29_20h10.41.611,Simcolourproject_2stim_asymm_v5,2020.2.10,MacIntel,60,61025ae37ef11b136ea224fe,,,,,,,,,2691,48.97753906,-36.30886841,1,0,1,response3disk,,5,-1.922058105,3.447540283,1,0,1,rectangle,-1.922058105,3.447540283,1,0,1,-1.922058105,3.447540283,1,0,1,1,0,160,89,1,,,,,,,,
,,,,,,,,,,,,,FF,,,,,,,,0.9328,,,,,,,,,,,,,,,,,,,,,,61022223a350329c8ca81df5,61036d36f7272343cda56396,2021-07-29_20h10.41.611,Simcolourproject_2stim_asymm_v5,2020.2.10,MacIntel,60,61025ae37ef11b136ea224fe,,,,,,,,,3475,-75.27667236,-31.57391357,1,0,1,response5disk,,2,-7.094543457,-10.99597168,1,0,1,rectangle,-7.094543457,-10.99597168,1,0,1,-7.094543457,-10.99597168,1,0,1,1,1,161,143,1,,,,,,,,
,,,,,,,,,,,,,FF,,,,,,,,0.5012,,,,,,,,,,,,,,,,,,,,,,61022223a350329c8ca81df5,61036d36f7272343cda56396,2021-07-29_20h10.41.611,Simcolourproject_2stim_asymm_v5,2020.2.10,MacIntel,60,61025ae37ef11b136ea224fe,,,,,,,,,4273,60.9342041,27.34954834,1,0,1,response1disk,,6,-9.414794922,-1.984649658,1,0,1,rectangle,-9.414794922,-1.984649658,1,0,1,-9.414794922,-1.984649658,1,0,1,1,2,162,6,1,,,,,,,,
,,,,,,,,,,,,,FF,,,,,,,,0.3335,,,,,,,,,,,,,,,,,,,,,,61022223a350329c8ca81df5,61036d36f7272343cda56396,2021-07-29_20h10.41.611,Simcolourproject_2stim_asymm_v5,2020.2.10,MacIntel,60,61025ae37ef11b136ea224fe,,,,,,,,,2805,40.55859375,53.18487549,1,0,1,response1disk,,7,7.807861328,9.856964111,1,0,1,rectangle,7.807861328,9.856964111,1,0,1,7.807861328,9.856964111,1,0,1,1,3,163,106,1,,,,,,,,
,,,,,,,,,,,,,FF,,,,,,,,0.7496,,,,,,,,,,,,,,,,,,,,,,61022223a350329c8ca81df5,61036d36f7272343cda56396,2021-07-29_20h10.41.611,Simcolourproject_2stim_asymm_v5,2020.2.10,MacIntel,60,61025ae37ef11b136ea224fe,,,,,,,,,2425,-63.53625488,-30.11535645,1,0,1,response5disk,,2,-19.27856445,-15.71582031,1,0,1,rectangle,-19.27856445,-15.71582031,1,0,1,-19.27856445,-15.71582031,1,0,1,1,4,164,14,1,,,,,,,,
,,,,,,,,,,,,,FF,,,,,,,,1.2992,,,,,,,,,,,,,,,,,,,,,,61022223a350329c8ca81df5,61036d36f7272343cda56396,2021-07-29_20h10.41.611,Simcolourproject_2stim_asymm_v5,2020.2.10,MacIntel,60,61025ae37ef11b136ea224fe,,,,,,,,,2510,17.83227539,45.76577759,1,0,1,response1disk,,7,9.899902344,5.657501221,1,0,1,rectangle,9.899902344,5.657501221,1,0,1,9.899902344,5.657501221,1,0,1,1,5,165,137,1,,,,,,,,
,,,,,,,,,,,,,FF,,,,,,,,0.3833,,,,,,,,,,,,,,,,,,,,,,61022223a350329c8ca81df5,61036d36f7272343cda56396,2021-07-29_20h10.41.611,Simcolourproject_2stim_asymm_v5,2020.2.10,MacIntel,60,61025ae37ef11b136ea224fe,,,,,,,,,2903,29.31237793,53.12649536,1,0,1,response1disk,,7,14.33770752,6.842590332,1,0,1,rectangle,14.33770752,6.842590332,1,0,1,14.33770752,6.842590332,1,0,1,1,6,166,45,1,,,,,,,,
,,,,,,,,,,,,,FF,,,,,,,,0.2836,,,,,,,,,,,,,,,,,,,,,,61022223a350329c8ca81df5,61036d36f7272343cda56396,2021-07-29_20h10.41.611,Simcolourproject_2stim_asymm_v5,2020.2.10,MacIntel,60,61025ae37ef11b136ea224fe,,,,,,,,,1238,53.53131104,61.89044189,1,0,1,response1disk,,7,25.14526367,15.85266113,1,0,1,rectangle,25.14526367,15.85266113,1,0,1,25.14526367,15.85266113,1,0,1,1,7,167,99,1,,,,,,,,
,,,,,,,,,,,,,FF,,,,,,,,0.2661,,,,,,,,,,,,,,,,,,,,,,61022223a350329c8ca81df5,61036d36f7272343cda56396,2021-07-29_20h10.41.611,Simcolourproject_2stim_asymm_v5,2020.2.10,MacIntel,60,61025ae37ef11b136ea224fe,,,,,,,,,268,43.27313232,66.94787598,1,0,1,response1disk,,7,28.277771,17.9263916,1,0,1,rectangle,28.277771,17.9263916,1,0,1,28.277771,17.9263916,1,0,1,1,8,168,33,1,,,,,,,,
,,,,,,,,,,,,,FF,,,,,,,,0.6825,,,,,,,,,,,,,,,,,,,,,,61022223a350329c8ca81df5,61036d36f7272343cda56396,2021-07-29_20h10.41.611,Simcolourproject_2stim_asymm_v5,2020.2.10,MacIntel,60,61025ae37ef11b136ea224fe,,,,,,,,,4326,-27.68841553,75.84078979,1,0,1,response7disk,,0,0.207214355,0.208496094,1,0,1,rectangle,0.207214355,0.208496094,1,0,1,0.207214355,0.208496094,1,0,1,1,9,169,123,1,,,,,,,,
,,,,,,,,,,,,,FF,,,,,,,,0.6496,,,,,,,,,,,,,,,,,,,,,,61022223a350329c8ca81df5,61036d36f7272343cda56396,2021-07-29_20h10.41.611,Simcolourproject_2stim_asymm_v5,2020.2.10,MacIntel,60,61025ae37ef11b136ea224fe,,,,,,,,,2355,-31.93505859,57.34811401,1,0,1,response7disk,,0,-14.15563965,-7.500854492,1,0,1,rectangle,-14.15563965,-7.500854492,1,0,1,-14.15563965,-7.500854492,1,0,1,1,10,170,22,1,,,,,,,,
,,,,,,,,,,,,,FF,,,,,,,,1.0836,,,,,,,,,,,,,,,,,,,,,,61022223a350329c8ca81df5,61036d36f7272343cda56396,2021-07-29_20h10.41.611,Simcolourproject_2stim_asymm_v5,2020.2.10,MacIntel,60,61025ae37ef11b136ea224fe,,,,,,,,,1371,-70.40881348,36.35205078,1,0,1,response7disk,,1,-25.87561035,1.809753418,1,0,1,rectangle,-25.87561035,1.809753418,1,0,1,-25.87561035,1.809753418,1,0,1,1,11,171,51,1,,,,,,,,
,,,,,,,,,,,,,FF,,,,,,,,0.5508,,,,,,,,,,,,,,,,,,,,,,61022223a350329c8ca81df5,61036d36f7272343cda56396,2021-07-29_20h10.41.611,Simcolourproject_2stim_asymm_v5,2020.2.10,MacIntel,60,61025ae37ef11b136ea224fe,,,,,,,,,515,26.76068115,63.02868652,1,0,1,response1disk,,7,-2.512695313,3.106140137,1,0,1,rectangle,-2.512695313,3.106140137,1,0,1,-2.512695313,3.106140137,1,0,1,1,12,172,145,1,,,,,,,,
,,,,,,,,,,,,,FF,,,,,,,,0.3338,,,,,,,,,,,,,,,,,,,,,,61022223a350329c8ca81df5,61036d36f7272343cda56396,2021-07-29_20h10.41.611,Simcolourproject_2stim_asymm_v5,2020.2.10,MacIntel,60,61025ae37ef11b136ea224fe,,,,,,,,,2210,43.45446777,70.66061401,1,0,1,response1disk,,7,9.972412109,8.742919922,1,0,1,rectangle,9.972412109,8.742919922,1,0,1,9.972412109,8.742919922,1,0,1,1,13,173,148,1,,,,,,,,
,,,,,,,,,,,,,FF,,,,,,,,0.365,,,,,,,,,,,,,,,,,,,,,,61022223a350329c8ca81df5,61036d36f7272343cda56396,2021-07-29_20h10.41.611,Simcolourproject_2stim_asymm_v5,2020.2.10,MacIntel,60,61025ae37ef11b136ea224fe,,,,,,,,,1004,39.84185791,58.34506226,1,0,1,response1disk,,7,6.106445313,-7.20904541,1,0,1,rectangle,6.106445313,-7.20904541,1,0,1,6.106445313,-7.20904541,1,0,1,1,14,174,76,1,,,,,,,,
,,,,,,,,,,,,,FF,,,,,,,,0.6002,,,,,,,,,,,,,,,,,,,,,,61022223a350329c8ca81df5,61036d36f7272343cda56396,2021-07-29_20h10.41.611,Simcolourproject_2stim_asymm_v5,2020.2.10,MacIntel,60,61025ae37ef11b136ea224fe,,,,,,,,,1948,57.39715576,51.56652832,1,0,1,response1disk,,6,20.5010376,-6.532989502,1,0,1,rectangle,20.5010376,-6.532989502,1,0,1,20.5010376,-6.532989502,1,0,1,1,15,175,124,1,,,,,,,,
,,,,,,,,,,,,,FF,,,,,,,,0.4678,,,,,,,,,,,,,,,,,,,,,,61022223a350329c8ca81df5,61036d36f7272343cda56396,2021-07-29_20h10.41.611,Simcolourproject_2stim_asymm_v5,2020.2.10,MacIntel,60,61025ae37ef11b136ea224fe,,,,,,,,,2609,44.66064453,15.54193115,1,0,1,response1disk,,6,3.31048584,-4.904663086,1,0,1,rectangle,3.31048584,-4.904663086,1,0,1,3.31048584,-4.904663086,1,0,1,1,16,176,142,1,,,,,,,,
,,,,,,,,,,,,,FF,,,,,,,,0.351,,,,,,,,,,,,,,,,,,,,,,61022223a350329c8ca81df5,61036d36f7272343cda56396,2021-07-29_20h10.41.611,Simcolourproject_2stim_asymm_v5,2020.2.10,MacIntel,60,61025ae37ef11b136ea224fe,,,,,,,,,1043,57.33740234,29.13739014,1,0,1,response1disk,,6,10.79382324,2.335845947,1,0,1,rectangle,10.79382324,2.335845947,1,0,1,10.79382324,2.335845947,1,0,1,1,17,177,149,1,,,,,,,,
,,,,,,,,,,,,,FF,,,,,,,,0.5157,,,,,,,,,,,,,,,,,,,,,,61022223a350329c8ca81df5,61036d36f7272343cda56396,2021-07-29_20h10.41.611,Simcolourproject_2stim_asymm_v5,2020.2.10,MacIntel,60,61025ae37ef11b136ea224fe,,,,,,,,,2274,34.33105469,34.30395508,1,0,1,response1disk,,6,-1.004455566,-1.748901367,1,0,1,rectangle,-1.004455566,-1.748901367,1,0,1,-1.004455566,-1.748901367,1,0,1,1,18,178,84,1,,,,,,,,
,,,,,,,,,,,,,FF,,,,,,,,0.3833,,,,,,,,,,,,,,,,,,,,,,61022223a350329c8ca81df5,61036d36f7272343cda56396,2021-07-29_20h10.41.611,Simcolourproject_2stim_asymm_v5,2020.2.10,MacIntel,60,61025ae37ef11b136ea224fe,,,,,,,,,2110,49.22241211,46.57867432,1,0,1,response1disk,,6,5.773925781,-8.462982178,1,0,1,rectangle,5.773925781,-8.462982178,1,0,1,5.773925781,-8.462982178,1,0,1,1,19,179,80,1,,,,,,,,
,,,,,,,,,,,,,FF,,,,,,,,0.2998,,,,,,,,,,,,,,,,,,,,,,61022223a350329c8ca81df5,61036d36f7272343cda56396,2021-07-29_20h10.41.611,Simcolourproject_2stim_asymm_v5,2020.2.10,MacIntel,60,61025ae37ef11b136ea224fe,,,,,,,,,2827,48.85876465,43.32284546,1,0,1,response1disk,,6,15.07965088,10.93432617,1,0,1,rectangle,15.07965088,10.93432617,1,0,1,15.07965088,10.93432617,1,0,1,1,20,180,79,1,,,,,,,,
,,,,,,,,,,,,,FF,,,,,,,,0.3673,,,,,,,,,,,,,,,,,,,,,,61022223a350329c8ca81df5,61036d36f7272343cda56396,2021-07-29_20h10.41.611,Simcolourproject_2stim_asymm_v5,2020.2.10,MacIntel,60,61025ae37ef11b136ea224fe,,,,,,,,,3838,39.15136719,44.57962036,1,0,1,response1disk,,7,19.70440674,-0.307189941,1,0,1,rectangle,19.70440674,-0.307189941,1,0,1,19.70440674,-0.307189941,1,0,1,1,21,181,158,1,,,,,,,,
,,,,,,,,,,,,,FF,,,,,,,,0.2994,,,,,,,,,,,,,,,,,,,,,,61022223a350329c8ca81df5,61036d36f7272343cda56396,2021-07-29_20h10.41.611,Simcolourproject_2stim_asymm_v5,2020.2.10,MacIntel,60,61025ae37ef11b136ea224fe,,,,,,,,,770,59.08746338,59.98022461,1,0,1,response1disk,,7,23.1449585,11.94519043,1,0,1,rectangle,23.1449585,11.94519043,1,0,1,23.1449585,11.94519043,1,0,1,1,22,182,152,1,,,,,,,,
,,,,,,,,,,,,,FF,,,,,,,,0.2832,,,,,,,,,,,,,,,,,,,,,,61022223a350329c8ca81df5,61036d36f7272343cda56396,2021-07-29_20h10.41.611,Simcolourproject_2stim_asymm_v5,2020.2.10,MacIntel,60,61025ae37ef11b136ea224fe,,,,,,,,,2950,61.07531738,70.88000488,1,0,1,response1disk,,7,34.80072021,16.57049561,1,0,1,rectangle,34.80072021,16.57049561,1,0,1,34.80072021,16.57049561,1,0,1,1,23,183,107,1,,,,,,,,
,,,,,,,,,,,,,FF,,,,,,,,0.6339,,,,,,,,,,,,,,,,,,,,,,61022223a350329c8ca81df5,61036d36f7272343cda56396,2021-07-29_20h10.41.611,Simcolourproject_2stim_asymm_v5,2020.2.10,MacIntel,60,61025ae37ef11b136ea224fe,,,,,,,,,1005,38.12194824,55.69384766,1,0,1,response1disk,,7,-1.228759766,0.732177734,1,0,1,rectangle,-1.228759766,0.732177734,1,0,1,-1.228759766,0.732177734,1,0,1,1,24,184,138,1,,,,,,,,
,,,,,,,,,,,,,FF,,,,,,,,0.5997,,,,,,,,,,,,,,,,,,,,,,61022223a350329c8ca81df5,61036d36f7272343cda56396,2021-07-29_20h10.41.611,Simcolourproject_2stim_asymm_v5,2020.2.10,MacIntel,60,61025ae37ef11b136ea224fe,,,,,,,,,3932,23.40283203,40.43084717,1,0,1,response1disk,,7,6.379333496,-0.752685547,1,0,1,rectangle,6.379333496,-0.752685547,1,0,1,6.379333496,-0.752685547,1,0,1,1,25,185,69,1,,,,,,,,
,,,,,,,,,,,,,FF,,,,,,,,0.5503,,,,,,,,,,,,,,,,,,,,,,61022223a350329c8ca81df5,61036d36f7272343cda56396,2021-07-29_20h10.41.611,Simcolourproject_2stim_asymm_v5,2020.2.10,MacIntel,60,61025ae37ef11b136ea224fe,,,,,,,,,2636,52.2722168,34.76092529,1,0,1,response1disk,,6,11.52233887,8.372253418,1,0,1,rectangle,11.52233887,8.372253418,1,0,1,11.52233887,8.372253418,1,0,1,1,26,186,154,1,,,,,,,,
,,,,,,,,,,,,,FF,,,,,,,,0.7165,,,,,,,,,,,,,,,,,,,,,,61022223a350329c8ca81df5,61036d36f7272343cda56396,2021-07-29_20h10.41.611,Simcolourproject_2stim_asymm_v5,2020.2.10,MacIntel,60,61025ae37ef11b136ea224fe,,,,,,,,,1352,37.00244141,-40.76370239,1,0,1,response3disk,,4,7.051513672,-11.50363159,1,0,1,rectangle,7.051513672,-11.50363159,1,0,1,7.051513672,-11.50363159,1,0,1,1,27,187,18,1,,,,,,,,
,,,,,,,,,,,,,FF,,,,,,,,0.4163,,,,,,,,,,,,,,,,,,,,,,61022223a350329c8ca81df5,61036d36f7272343cda56396,2021-07-29_20h10.41.611,Simcolourproject_2stim_asymm_v5,2020.2.10,MacIntel,60,61025ae37ef11b136ea224fe,,,,,,,,,398,59.88134766,28.10629272,1,0,1,response1disk,,6,-1.815307617,-2.526123047,1,0,1,rectangle,-1.815307617,-2.526123047,1,0,1,-1.815307617,-2.526123047,1,0,1,1,28,188,115,1,,,,,,,,
,,,,,,,,,,,,,FF,,,,,,,,0.3653,,,,,,,,,,,,,,,,,,,,,,61022223a350329c8ca81df5,61036d36f7272343cda56396,2021-07-29_20h10.41.611,Simcolourproject_2stim_asymm_v5,2020.2.10,MacIntel,60,61025ae37ef11b136ea224fe,,,,,,,,,4031,56.28259277,36.54718018,1,0,1,response1disk,,6,4.069519043,5.740783691,1,0,1,rectangle,4.069519043,5.740783691,1,0,1,4.069519043,5.740783691,1,0,1,1,29,189,88,1,,,,,,,,
,,,,,,,,,,,,,FF,,,,,,,,0.3827,,,,,,,,,,,,,,,,,,,,,,61022223a350329c8ca81df5,61036d36f7272343cda56396,2021-07-29_20h10.41.611,Simcolourproject_2stim_asymm_v5,2020.2.10,MacIntel,60,61025ae37ef11b136ea224fe,,,,,,,,,1916,52.44281006,38.76205444,1,0,1,response1disk,,6,-8.075195313,-2.307189941,1,0,1,rectangle,-8.075195313,-2.307189941,1,0,1,-8.075195313,-2.307189941,1,0,1,1,30,190,126,1,,,,,,,,
,,,,,,,,,,,,,FF,,,,,,,,1.0004,,,,,,,,,,,,,,,,,,,,,,61022223a350329c8ca81df5,61036d36f7272343cda56396,2021-07-29_20h10.41.611,Simcolourproject_2stim_asymm_v5,2020.2.10,MacIntel,60,61025ae37ef11b136ea224fe,,,,,,,,,445,-76.58416748,31.55279541,1,0,1,response7disk,,1,-5.00378418,-7.97668457,1,0,1,rectangle,-5.00378418,-7.97668457,1,0,1,-5.00378418,-7.97668457,1,0,1,1,31,191,117,1,,,,,,,,
,,,,,,,,,,,,,FF,,,,,,,,0.9154,,,,,,,,,,,,,,,,,,,,,,61022223a350329c8ca81df5,61036d36f7272343cda56396,2021-07-29_20h10.41.611,Simcolourproject_2stim_asymm_v5,2020.2.10,MacIntel,60,61025ae37ef11b136ea224fe,,,,,,,,,4307,65.61804199,49.80004883,1,0,1,response1disk,,6,-2.656433105,-4.579559326,1,0,1,rectangle,-2.656433105,-4.579559326,1,0,1,-2.656433105,-4.579559326,1,0,1,1,32,192,0,1,,,,,,,,
,,,,,,,,,,,,,FF,,,,,,,,1.7339,,,,,,,,,,,,,,,,,,,,,,61022223a350329c8ca81df5,61036d36f7272343cda56396,2021-07-29_20h10.41.611,Simcolourproject_2stim_asymm_v5,2020.2.10,MacIntel,60,61025ae37ef11b136ea224fe,,,,,,,,,442,49.43695068,-37.12442017,1,0,1,response3disk,,5,-2.847473145,-6.203460693,1,0,1,rectangle,-2.847473145,-6.203460693,1,0,1,-2.847473145,-6.203460693,1,0,1,1,33,193,156,1,,,,,,,,
,,,,,,,,,,,,,FF,,,,,,,,0.8169,,,,,,,,,,,,,,,,,,,,,,61022223a350329c8ca81df5,61036d36f7272343cda56396,2021-07-29_20h10.41.611,Simcolourproject_2stim_asymm_v5,2020.2.10,MacIntel,60,61025ae37ef11b136ea224fe,,,,,,,,,941,18.88018799,-55.75292969,1,0,1,response3disk,,4,6.593383789,-6.148925781,1,0,1,rectangle,-33.21051025,-59.90145874,1,0,1,1.492126465,-7.49798584,1,0,1,1,34,194,94,1,,response5disk_3,TRUE,3,3,"[157,236,198,195,256,51,65,197,27,36,121,271,213,46,8,195,122,196,4,58]",1.2485,rectangle
,,,,,,,,,,,,,FF,,,,,,,,0.7002,,,,,,,,,,,,,,,,,,,,,,61022223a350329c8ca81df5,61036d36f7272343cda56396,2021-07-29_20h10.41.611,Simcolourproject_2stim_asymm_v5,2020.2.10,MacIntel,60,61025ae37ef11b136ea224fe,,,,,,,,,3914,-34.24584961,-60.1786499,1,0,1,response5disk,,3,-5.617431641,2.9140625,1,0,1,rectangle,86.1630249,23.17895508,1,0,1,23.89196777,0.110229492,1,0,1,1,35,195,70,1,,response1disk_3,TRUE,6,6,"[157,236,198,195,256,51,65,197,27,36,121,271,213,46,8,195,122,196,4,58]",1.3674,rectangle
,,,,,,,,,,,,,FF,,,,,,,,1.9171,,,,,,,,,,,,,,,,,,,,,,61022223a350329c8ca81df5,61036d36f7272343cda56396,2021-07-29_20h10.41.611,Simcolourproject_2stim_asymm_v5,2020.2.10,MacIntel,60,61025ae37ef11b136ea224fe,,,,,,,,,40,79.48846436,29.85427856,1,0,1,response1disk,,6,3.986083984,-0.505065918,1,0,1,rectangle,77.60180664,-17.90106201,1,0,1,16.98413086,4.767883301,1,0,1,1,36,196,116,1,,response3disk_3,TRUE,5,5,"[157,236,198,195,256,51,65,197,27,36,121,271,213,46,8,195,122,196,4,58]",1.3813,rectangle
,,,,,,,,,,,,,FF,,,,,,,,1.1661,,,,,,,,,,,,,,,,,,,,,,61022223a350329c8ca81df5,61036d36f7272343cda56396,2021-07-29_20h10.41.611,Simcolourproject_2stim_asymm_v5,2020.2.10,MacIntel,60,61025ae37ef11b136ea224fe,,,,,,,,,4092,38.49475098,70.91888428,1,0,1,response1disk,,7,10.27301025,-14.86560059,1,0,1,rectangle,50.67510986,86.41186523,1,0,1,26.70367432,12.90161133,1,0,1,1,37,197,150,1,,response1disk_3,TRUE,7,7,"[157,236,198,195,256,51,65,197,27,36,121,271,213,46,8,195,122,196,4,58]",1.0667,rectangle
,,,,,,,,,,,,,FF,,,,,,,,1.4165,,,,,,,,,,,,,,,,,,,,,,61022223a350329c8ca81df5,61036d36f7272343cda56396,2021-07-29_20h10.41.611,Simcolourproject_2stim_asymm_v5,2020.2.10,MacIntel,60,61025ae37ef11b136ea224fe,,,,,,,,,1447,-68.24139404,32.93417358,1,0,1,response7disk,,1,-13.55151367,5.212890625,1,0,1,rectangle,-13.55151367,5.212890625,1,0,1,-13.55151367,5.212890625,1,0,1,1,38,198,72,1,,,,,,,,
,,,,,,,,,,,,,FF,,,,,,,,1.2002,,,,,,,,,,,,,,,,,,,,,,61022223a350329c8ca81df5,61036d36f7272343cda56396,2021-07-29_20h10.41.611,Simcolourproject_2stim_asymm_v5,2020.2.10,MacIntel,60,61025ae37ef11b136ea224fe,,,,,,,,,3500,63.58752441,-31.45465088,1,0,1,response3disk,,5,-2.432495117,-5.775177002,1,0,1,rectangle,-2.432495117,-5.775177002,1,0,1,-2.432495117,-5.775177002,1,0,1,1,39,199,27,1,,,,,,,,
,,,,,,,,,,,,,FF,,,,,,,,1.3827,,,,,,,,,,,,,,,,,,,,,,61022223a350329c8ca81df5,61036d36f7272343cda56396,2021-07-29_20h10.41.611,Simcolourproject_2stim_asymm_v5,2020.2.10,MacIntel,60,61025ae37ef11b136ea224fe,,,,,,,,,1253,69.01324463,-35.18579102,1,0,1,response3disk,,5,-8.287963867,-14.44525146,1,0,1,rectangle,-8.287963867,-14.44525146,1,0,1,-8.287963867,-14.44525146,1,0,1,1,40,200,13,1,,,,,,,,
,,,,,,,,,,,,,FF,,,,,,,,0.8004,,,,,,,,,,,,,,,,,,,,,,61022223a350329c8ca81df5,61036d36f7272343cda56396,2021-07-29_20h10.41.611,Simcolourproject_2stim_asymm_v5,2020.2.10,MacIntel,60,61025ae37ef11b136ea224fe,,,,,,,,,3097,-68.2310791,-35.3006897,1,0,1,response5disk,,2,1.235595703,1.206542969,1,0,1,rectangle,1.235595703,1.206542969,1,0,1,1.235595703,1.206542969,1,0,1,1,41,201,90,1,,,,,,,,
,,,,,,,,,,,,,FF,,,,,,,,0.5834,,,,,,,,,,,,,,,,,,,,,,61022223a350329c8ca81df5,61036d36f7272343cda56396,2021-07-29_20h10.41.611,Simcolourproject_2stim_asymm_v5,2020.2.10,MacIntel,60,61025ae37ef11b136ea224fe,,,,,,,,,2220,70.35107422,-28.49493408,1,0,1,response3disk,,5,16.1940918,-4.860595703,1,0,1,rectangle,16.1940918,-4.860595703,1,0,1,16.1940918,-4.860595703,1,0,1,1,42,202,19,1,,,,,,,,
,,,,,,,,,,,,,FF,,,,,,,,0.4155,,,,,,,,,,,,,,,,,,,,,,61022223a350329c8ca81df5,61036d36f7272343cda56396,2021-07-29_20h10.41.611,Simcolourproject_2stim_asymm_v5,2020.2.10,MacIntel,60,61025ae37ef11b136ea224fe,,,,,,,,,2333,78.67034912,-39.18145752,1,0,1,response3disk,,5,2.454772949,-2.695037842,1,0,1,rectangle,2.454772949,-2.695037842,1,0,1,2.454772949,-2.695037842,1,0,1,1,43,203,29,1,,,,,,,,
,,,,,,,,,,,,,FF,,,,,,,,0.2664,,,,,,,,,,,,,,,,,,,,,,61022223a350329c8ca81df5,61036d36f7272343cda56396,2021-07-29_20h10.41.611,Simcolourproject_2stim_asymm_v5,2020.2.10,MacIntel,60,61025ae37ef11b136ea224fe,,,,,,,,,1710,71.6270752,-38.1907959,1,0,1,response3disk,,5,3.323669434,-8.056304932,1,0,1,rectangle,3.323669434,-8.056304932,1,0,1,3.323669434,-8.056304932,1,0,1,1,44,204,91,1,,,,,,,,
,,,,,,,,,,,,,FF,,,,,,,,0.5667,,,,,,,,,,,,,,,,,,,,,,61022223a350329c8ca81df5,61036d36f7272343cda56396,2021-07-29_20h10.41.611,Simcolourproject_2stim_asymm_v5,2020.2.10,MacIntel,60,61025ae37ef11b136ea224fe,,,,,,,,,525,-55.88812256,-32.93328857,1,0,1,response5disk,,2,12.2567749,6.739562988,1,0,1,rectangle,12.2567749,6.739562988,1,0,1,12.2567749,6.739562988,1,0,1,1,45,205,68,1,,,,,,,,
,,,,,,,,,,,,,FF,,,,,,,,0.584,,,,,,,,,,,,,,,,,,,,,,61022223a350329c8ca81df5,61036d36f7272343cda56396,2021-07-29_20h10.41.611,Simcolourproject_2stim_asymm_v5,2020.2.10,MacIntel,60,61025ae37ef11b136ea224fe,,,,,,,,,3459,43.80963135,70.09411621,1,0,1,response1disk,,7,15.11853027,6.858703613,1,0,1,rectangle,15.11853027,6.858703613,1,0,1,15.11853027,6.858703613,1,0,1,1,46,206,159,1,,,,,,,,
,,,,,,,,,,,,,FF,,,,,,,,0.4327,,,,,,,,,,,,,,,,,,,,,,61022223a350329c8ca81df5,61036d36f7272343cda56396,2021-07-29_20h10.41.611,Simcolourproject_2stim_asymm_v5,2020.2.10,MacIntel,60,61025ae37ef11b136ea224fe,,,,,,,,,2158,27.89196777,46.33843994,1,0,1,response1disk,,7,18.72485352,-3.833068848,1,0,1,rectangle,18.72485352,-3.833068848,1,0,1,18.72485352,-3.833068848,1,0,1,1,47,207,132,1,,,,,,,,
,,,,,,,,,,,,,FF,,,,,,,,0.4165,,,,,,,,,,,,,,,,,,,,,,61022223a350329c8ca81df5,61036d36f7272343cda56396,2021-07-29_20h10.41.611,Simcolourproject_2stim_asymm_v5,2020.2.10,MacIntel,60,61025ae37ef11b136ea224fe,,,,,,,,,666,38.41656494,47.08709717,1,0,1,response1disk,,7,25.31506348,-2.186340332,1,0,1,rectangle,25.31506348,-2.186340332,1,0,1,25.31506348,-2.186340332,1,0,1,1,48,208,55,1,,,,,,,,
,,,,,,,,,,,,,FF,,,,,,,,0.9162,,,,,,,,,,,,,,,,,,,,,,61022223a350329c8ca81df5,61036d36f7272343cda56396,2021-07-29_20h10.41.611,Simcolourproject_2stim_asymm_v5,2020.2.10,MacIntel,60,61025ae37ef11b136ea224fe,,,,,,,,,3995,-95.45703125,-37.16546631,1,0,1,response5disk,,2,1.316101074,-0.753723145,1,0,1,rectangle,1.316101074,-0.753723145,1,0,1,1.316101074,-0.753723145,1,0,1,1,49,209,113,1,,,,,,,,
,,,,,,,,,,,,,FF,,,,,,,,1.0828,,,,,,,,,,,,,,,,,,,,,,61022223a350329c8ca81df5,61036d36f7272343cda56396,2021-07-29_20h10.41.611,Simcolourproject_2stim_asymm_v5,2020.2.10,MacIntel,60,61025ae37ef11b136ea224fe,,,,,,,,,2443,20.44158936,47.31890869,1,0,1,response1disk,,7,19.41748047,11.40390015,1,0,1,rectangle,19.41748047,11.40390015,1,0,1,19.41748047,11.40390015,1,0,1,1,50,210,24,1,,,,,,,,
,,,,,,,,,,,,,FF,,,,,,,,0.4172,,,,,,,,,,,,,,,,,,,,,,61022223a350329c8ca81df5,61036d36f7272343cda56396,2021-07-29_20h10.41.611,Simcolourproject_2stim_asymm_v5,2020.2.10,MacIntel,60,61025ae37ef11b136ea224fe,,,,,,,,,1118,23.15740967,45.6819458,1,0,1,response1disk,,7,23.15740967,-1.057891846,1,0,1,rectangle,23.15740967,-1.057891846,1,0,1,23.15740967,-1.057891846,1,0,1,1,51,211,26,1,,,,,,,,
,,,,,,,,,,,,,FF,,,,,,,,0.6667,,,,,,,,,,,,,,,,,,,,,,61022223a350329c8ca81df5,61036d36f7272343cda56396,2021-07-29_20h10.41.611,Simcolourproject_2stim_asymm_v5,2020.2.10,MacIntel,60,61025ae37ef11b136ea224fe,,,,,,,,,4147,-32.98431396,-44.27780151,1,0,1,response5disk,,3,-15.9743042,-14.081604,1,0,1,rectangle,35.82757568,-64.01745605,1,0,1,5.542358398,1.546936035,1,0,1,1,52,212,98,1,,response3disk_3,TRUE,4,4,"[157,236,198,195,256,51,65,197,27,36,121,271,213,46,8,195,122,196,4,58]",1.1837,rectangle
,,,,,,,,,,,,,FF,,,,,,,,0.6987,,,,,,,,,,,,,,,,,,,,,,61022223a350329c8ca81df5,61036d36f7272343cda56396,2021-07-29_20h10.41.611,Simcolourproject_2stim_asymm_v5,2020.2.10,MacIntel,60,61025ae37ef11b136ea224fe,,,,,,,,,2649,71.50775146,-33.2170105,1,0,1,response3disk,,5,16.14129639,-4.058959961,1,0,1,rectangle,16.14129639,-4.058959961,1,0,1,16.14129639,-4.058959961,1,0,1,1,53,213,108,1,,,,,,,,
,,,,,,,,,,,,,FF,,,,,,,,0.8831,,,,,,,,,,,,,,,,,,,,,,61022223a350329c8ca81df5,61036d36f7272343cda56396,2021-07-29_20h10.41.611,Simcolourproject_2stim_asymm_v5,2020.2.10,MacIntel,60,61025ae37ef11b136ea224fe,,,,,,,,,834,73.08129883,-38.39105225,1,0,1,response3disk,,5,10.82751465,5.131286621,1,0,1,rectangle,10.82751465,5.131286621,1,0,1,10.82751465,5.131286621,1,0,1,1,54,214,121,1,,,,,,,,
,,,,,,,,,,,,,FF,,,,,,,,0.8315,,,,,,,,,,,,,,,,,,,,,,61022223a350329c8ca81df5,61036d36f7272343cda56396,2021-07-29_20h10.41.611,Simcolourproject_2stim_asymm_v5,2020.2.10,MacIntel,60,61025ae37ef11b136ea224fe,,,,,,,,,1263,88.14685059,-36.29974365,1,0,1,response3disk,,5,17.94482422,-10.02874756,1,0,1,rectangle,17.94482422,-10.02874756,1,0,1,17.94482422,-10.02874756,1,0,1,1,55,215,36,1,,,,,,,,
,,,,,,,,,,,,,FF,,,,,,,,0.6167,,,,,,,,,,,,,,,,,,,,,,61022223a350329c8ca81df5,61036d36f7272343cda56396,2021-07-29_20h10.41.611,Simcolourproject_2stim_asymm_v5,2020.2.10,MacIntel,60,61025ae37ef11b136ea224fe,,,,,,,,,561,73.15441895,30.81323242,1,0,1,response1disk,,6,11.73156738,1.995605469,1,0,1,rectangle,11.73156738,1.995605469,1,0,1,11.73156738,1.995605469,1,0,1,1,56,216,144,1,,,,,,,,
,,,,,,,,,,,,,FF,,,,,,,,0.418,,,,,,,,,,,,,,,,,,,,,,61022223a350329c8ca81df5,61036d36f7272343cda56396,2021-07-29_20h10.41.611,Simcolourproject_2stim_asymm_v5,2020.2.10,MacIntel,60,61025ae37ef11b136ea224fe,,,,,,,,,2416,83.17407227,40.44195557,1,0,1,response1disk,,6,16.35333252,6.192230225,1,0,1,rectangle,16.35333252,6.192230225,1,0,1,16.35333252,6.192230225,1,0,1,1,57,217,119,1,,,,,,,,
,,,,,,,,,,,,,FF,,,,,,,,0.4166,,,,,,,,,,,,,,,,,,,,,,61022223a350329c8ca81df5,61036d36f7272343cda56396,2021-07-29_20h10.41.611,Simcolourproject_2stim_asymm_v5,2020.2.10,MacIntel,60,61025ae37ef11b136ea224fe,,,,,,,,,550,65.30151367,25.08312988,1,0,1,response1disk,,6,5.03729248,-5.284606934,1,0,1,rectangle,5.03729248,-5.284606934,1,0,1,5.03729248,-5.284606934,1,0,1,1,58,218,37,1,,,,,,,,
,,,,,,,,,,,,,FF,,,,,,,,0.3495,,,,,,,,,,,,,,,,,,,,,,61022223a350329c8ca81df5,61036d36f7272343cda56396,2021-07-29_20h10.41.611,Simcolourproject_2stim_asymm_v5,2020.2.10,MacIntel,60,61025ae37ef11b136ea224fe,,,,,,,,,2154,63.74597168,26.04364014,1,0,1,response1disk,,6,5.309570313,-6.621459961,1,0,1,rectangle,5.309570313,-6.621459961,1,0,1,5.309570313,-6.621459961,1,0,1,1,59,219,9,1,,,,,,,,
,,,,,,,,,,,,,FF,,,,,,,,0.3827,,,,,,,,,,,,,,,,,,,,,,61022223a350329c8ca81df5,61036d36f7272343cda56396,2021-07-29_20h10.41.611,Simcolourproject_2stim_asymm_v5,2020.2.10,MacIntel,60,61025ae37ef11b136ea224fe,,,,,,,,,936,65.62286377,28.89556885,1,0,1,response1disk,,6,-1.618041992,4.454925537,1,0,1,rectangle,-1.618041992,4.454925537,1,0,1,-1.618041992,4.454925537,1,0,1,1,60,220,75,1,,,,,,,,
,,,,,,,,,,,,,FF,,,,,,,,0.3828,,,,,,,,,,,,,,,,,,,,,,61022223a350329c8ca81df5,61036d36f7272343cda56396,2021-07-29_20h10.41.611,Simcolourproject_2stim_asymm_v5,2020.2.10,MacIntel,60,61025ae37ef11b136ea224fe,,,,,,,,,2213,67.98406982,30.04730225,1,0,1,response1disk,,6,6.384521484,3.167144775,1,0,1,rectangle,6.384521484,3.167144775,1,0,1,6.384521484,3.167144775,1,0,1,1,61,221,103,1,,,,,,,,
,,,,,,,,,,,,,FF,,,,,,,,0.3336,,,,,,,,,,,,,,,,,,,,,,61022223a350329c8ca81df5,61036d36f7272343cda56396,2021-07-29_20h10.41.611,Simcolourproject_2stim_asymm_v5,2020.2.10,MacIntel,60,61025ae37ef11b136ea224fe,,,,,,,,,4192,76.03771973,37.34069824,1,0,1,response1disk,,6,6.789794922,-2.922424316,1,0,1,rectangle,6.789794922,-2.922424316,1,0,1,6.789794922,-2.922424316,1,0,1,1,62,222,86,1,,,,,,,,
,,,,,,,,,,,,,FF,,,,,,,,1.4833,,,,,,,,,,,,,,,,,,,,,,61022223a350329c8ca81df5,61036d36f7272343cda56396,2021-07-29_20h10.41.611,Simcolourproject_2stim_asymm_v5,2020.2.10,MacIntel,60,61025ae37ef11b136ea224fe,,,,,,,,,3201,-19.12219238,-68.99066162,1,0,1,response5disk,,3,22.61444092,-0.496398926,1,0,1,rectangle,22.61444092,-0.496398926,1,0,1,22.61444092,-0.496398926,1,0,1,1,63,223,155,1,,,,,,,,
,,,,,,,,,,,,,FF,,,,,,,,0.4838,,,,,,,,,,,,,,,,,,,,,,61022223a350329c8ca81df5,61036d36f7272343cda56396,2021-07-29_20h10.41.611,Simcolourproject_2stim_asymm_v5,2020.2.10,MacIntel,60,61025ae37ef11b136ea224fe,,,,,,,,,3473,-16.51794434,-44.60961914,1,0,1,response5disk,,3,-2.541992188,-5.870147705,1,0,1,rectangle,-2.541992188,-5.870147705,1,0,1,-2.541992188,-5.870147705,1,0,1,1,64,224,81,1,,,,,,,,
,,,,,,,,,,,,,FF,,,,,,,,0.9499,,,,,,,,,,,,,,,,,,,,,,61022223a350329c8ca81df5,61036d36f7272343cda56396,2021-07-29_20h10.41.611,Simcolourproject_2stim_asymm_v5,2020.2.10,MacIntel,60,61025ae37ef11b136ea224fe,,,,,,,,,2670,75.70251465,-56.92492676,1,0,1,response3disk,,5,-3.235961914,-1.362365723,1,0,1,rectangle,-3.235961914,-1.362365723,1,0,1,-3.235961914,-1.362365723,1,0,1,1,65,225,133,1,,,,,,,,
,,,,,,,,,,,,,FF,,,,,,,,0.4833,,,,,,,,,,,,,,,,,,,,,,61022223a350329c8ca81df5,61036d36f7272343cda56396,2021-07-29_20h10.41.611,Simcolourproject_2stim_asymm_v5,2020.2.10,MacIntel,60,61025ae37ef11b136ea224fe,,,,,,,,,3695,61.84106445,-30.36038208,1,0,1,response3disk,,5,23.60748291,1.171447754,1,0,1,rectangle,23.60748291,1.171447754,1,0,1,23.60748291,1.171447754,1,0,1,1,66,226,105,1,,,,,,,,
,,,,,,,,,,,,,FF,,,,,,,,0.4832,,,,,,,,,,,,,,,,,,,,,,61022223a350329c8ca81df5,61036d36f7272343cda56396,2021-07-29_20h10.41.611,Simcolourproject_2stim_asymm_v5,2020.2.10,MacIntel,60,61025ae37ef11b136ea224fe,,,,,,,,,420,90.75769043,-29.98516846,1,0,1,response3disk,,5,-4.707519531,-0.153015137,1,0,1,rectangle,-4.707519531,-0.153015137,1,0,1,-4.707519531,-0.153015137,1,0,1,1,67,227,56,1,,,,,,,,
,,,,,,,,,,,,,FF,,,,,,,,0.4172,,,,,,,,,,,,,,,,,,,,,,61022223a350329c8ca81df5,61036d36f7272343cda56396,2021-07-29_20h10.41.611,Simcolourproject_2stim_asymm_v5,2020.2.10,MacIntel,60,61025ae37ef11b136ea224fe,,,,,,,,,1168,86.73358154,-43.20031738,1,0,1,response3disk,,5,7.113525391,-13.8659668,1,0,1,rectangle,7.113525391,-13.8659668,1,0,1,7.113525391,-13.8659668,1,0,1,1,68,228,114,1,,,,,,,,
,,,,,,,,,,,,,FF,,,,,,,,0.4166,,,,,,,,,,,,,,,,,,,,,,61022223a350329c8ca81df5,61036d36f7272343cda56396,2021-07-29_20h10.41.611,Simcolourproject_2stim_asymm_v5,2020.2.10,MacIntel,60,61025ae37ef11b136ea224fe,,,,,,,,,1929,74.894104,-39.9631958,1,0,1,response3disk,,5,-0.170288086,-2.049560547,1,0,1,rectangle,-0.170288086,-2.049560547,1,0,1,-0.170288086,-2.049560547,1,0,1,1,69,229,1,1,,,,,,,,
,,,,,,,,,,,,,FF,,,,,,,,0.3833,,,,,,,,,,,,,,,,,,,,,,61022223a350329c8ca81df5,61036d36f7272343cda56396,2021-07-29_20h10.41.611,Simcolourproject_2stim_asymm_v5,2020.2.10,MacIntel,60,61025ae37ef11b136ea224fe,,,,,,,,,206,59.56323242,-29.8651123,1,0,1,response3disk,,5,-5.906738281,2.524200439,1,0,1,rectangle,-5.906738281,2.524200439,1,0,1,-5.906738281,2.524200439,1,0,1,1,70,230,42,1,,,,,,,,
,,,,,,,,,,,,,FF,,,,,,,,0.3988,,,,,,,,,,,,,,,,,,,,,,61022223a350329c8ca81df5,61036d36f7272343cda56396,2021-07-29_20h10.41.611,Simcolourproject_2stim_asymm_v5,2020.2.10,MacIntel,60,61025ae37ef11b136ea224fe,,,,,,,,,845,62.56408691,-34.59762573,1,0,1,response3disk,,5,0.336791992,-11.92422485,1,0,1,rectangle,0.336791992,-11.92422485,1,0,1,0.336791992,-11.92422485,1,0,1,1,71,231,127,1,,,,,,,,
,,,,,,,,,,,,,FF,,,,,,,,0.4839,,,,,,,,,,,,,,,,,,,,,,61022223a350329c8ca81df5,61036d36f7272343cda56396,2021-07-29_20h10.41.611,Simcolourproject_2stim_asymm_v5,2020.2.10,MacIntel,60,61025ae37ef11b136ea224fe,,,,,,,,,4034,64.26586914,-54.34674072,1,0,1,response3disk,,5,-6.386779785,-9.389892578,1,0,1,rectangle,-6.386779785,-9.389892578,1,0,1,-6.386779785,-9.389892578,1,0,1,1,72,232,62,1,,,,,,,,
,,,,,,,,,,,,,FF,,,,,,,,0.287,,,,,,,,,,,,,,,,,,,,,,61022223a350329c8ca81df5,61036d36f7272343cda56396,2021-07-29_20h10.41.611,Simcolourproject_2stim_asymm_v5,2020.2.10,MacIntel,60,61025ae37ef11b136ea224fe,,,,,,,,,953,65.35241699,-36.34069824,1,0,1,response3disk,,5,3.420043945,-15.51751709,1,0,1,rectangle,3.420043945,-15.51751709,1,0,1,3.420043945,-15.51751709,1,0,1,1,73,233,147,1,,,,,,,,
,,,,,,,,,,,,,FF,,,,,,,,0.7495,,,,,,,,,,,,,,,,,,,,,,61022223a350329c8ca81df5,61036d36f7272343cda56396,2021-07-29_20h10.41.611,Simcolourproject_2stim_asymm_v5,2020.2.10,MacIntel,60,61025ae37ef11b136ea224fe,,,,,,,,,891,-35.26062012,-74.92883301,1,0,1,response5disk,,3,0.387390137,-8.012023926,1,0,1,rectangle,0.387390137,-8.012023926,1,0,1,0.387390137,-8.012023926,1,0,1,1,74,234,93,1,,,,,,,,
,,,,,,,,,,,,,FF,,,,,,,,0.5151,,,,,,,,,,,,,,,,,,,,,,61022223a350329c8ca81df5,61036d36f7272343cda56396,2021-07-29_20h10.41.611,Simcolourproject_2stim_asymm_v5,2020.2.10,MacIntel,60,61025ae37ef11b136ea224fe,,,,,,,,,1547,102.2171631,-32.89929199,1,0,1,response3disk,,5,12.5703125,4.109527588,1,0,1,rectangle,43.81530762,74.39691162,1,0,1,29.99682617,7.531616211,1,0,1,1,75,235,77,1,,response1disk_3,TRUE,7,7,"[157,236,198,195,256,51,65,197,27,36,121,271,213,46,8,195,122,196,4,58]",1.1666,rectangle
,,,,,,,,,,,,,FF,,,,,,,,1.4505,,,,,,,,,,,,,,,,,,,,,,61022223a350329c8ca81df5,61036d36f7272343cda56396,2021-07-29_20h10.41.611,Simcolourproject_2stim_asymm_v5,2020.2.10,MacIntel,60,61025ae37ef11b136ea224fe,,,,,,,,,1554,75.31225586,-27.45935059,1,0,1,response3disk,,5,5.389038086,12.54177856,1,0,1,rectangle,5.389038086,12.54177856,1,0,1,5.389038086,12.54177856,1,0,1,1,76,236,17,1,,,,,,,,
,,,,,,,,,,,,,FF,,,,,,,,0.6499,,,,,,,,,,,,,,,,,,,,,,61022223a350329c8ca81df5,61036d36f7272343cda56396,2021-07-29_20h10.41.611,Simcolourproject_2stim_asymm_v5,2020.2.10,MacIntel,60,61025ae37ef11b136ea224fe,,,,,,,,,1755,-40.16320801,-38.20620728,1,0,1,response5disk,,2,-28.01623535,2.132751465,1,0,1,rectangle,-28.01623535,2.132751465,1,0,1,-28.01623535,2.132751465,1,0,1,1,77,237,102,1,,,,,,,,
,,,,,,,,,,,,,FF,,,,,,,,0.4997,,,,,,,,,,,,,,,,,,,,,,61022223a350329c8ca81df5,61036d36f7272343cda56396,2021-07-29_20h10.41.611,Simcolourproject_2stim_asymm_v5,2020.2.10,MacIntel,60,61025ae37ef11b136ea224fe,,,,,,,,,4262,30.37548828,55.42608643,1,0,1,response1disk,,7,3.655395508,-0.661682129,1,0,1,rectangle,3.655395508,-0.661682129,1,0,1,3.655395508,-0.661682129,1,0,1,1,78,238,25,1,,,,,,,,
,,,,,,,,,,,,,FF,,,,,,,,0.65,,,,,,,,,,,,,,,,,,,,,,61022223a350329c8ca81df5,61036d36f7272343cda56396,2021-07-29_20h10.41.611,Simcolourproject_2stim_asymm_v5,2020.2.10,MacIntel,60,61025ae37ef11b136ea224fe,,,,,,,,,2025,-32.29956055,77.57025146,1,0,1,response7disk,,0,-20.02026367,2.789001465,1,0,1,rectangle,-20.02026367,2.789001465,1,0,1,-20.02026367,2.789001465,1,0,1,1,79,239,87,1,,,,,,,,
,,,,,,,,,,,,,FF,,,,,,,,0.8834,,,,,,,,,,,,,,,,,,,,,,61022223a350329c8ca81df5,61036d36f7272343cda56396,2021-07-29_20h10.41.611,Simcolourproject_2stim_asymm_v5,2020.2.10,MacIntel,60,61025ae37ef11b136ea224fe,,,,,,,,,2400,32.83093262,72.1673584,1,0,1,response1disk,,7,12.59692383,-3.71206665,1,0,1,rectangle,12.59692383,-3.71206665,1,0,1,12.59692383,-3.71206665,1,0,1,1,80,240,140,1,,,,,,,,
