key_resp.keys,key_resp.rt,key_resp_14.keys,key_resp_14.rt,key_resp_15.keys,key_resp_15.rt,key_resp_17.keys,key_resp_17.rt,key_resp_9.keys,key_resp_9.rt,key_resp_10.keys,key_resp_10.rt,practice_comparison,Ecc,mouse_5.x,mouse_5.y,mouse_5.leftButton,mouse_5.midButton,mouse_5.rightButton,mouse_5.clicked_name,pracsimilarity,response_time,mouse_10.x,mouse_10.y,mouse_10.leftButton,mouse_10.midButton,mouse_10.rightButton,mouse_10.clicked_name,mouse_7.x,mouse_7.y,mouse_7.leftButton,mouse_7.midButton,mouse_7.rightButton,mouse_6.x,mouse_6.y,mouse_6.leftButton,mouse_6.midButton,mouse_6.rightButton,duringprac.thisRepN,duringprac.thisTrialN,duringprac.thisN,duringprac.thisIndex,duringprac.ran,participant,session,date,expName,psychopyVersion,OS,frameRate,study_id,mouse_7.clicked_name,catchpracsimilarity,catch_response_time,catchnumberprac,catchtrialorderprac,mouse_6.clicked_name,key_resp_22.keys,key_resp_22.rt,realcomparison,mouse.x,mouse.y,mouse.leftButton,mouse.midButton,mouse.rightButton,mouse.clicked_name,Colour2,similarity,mouse_2.x,mouse_2.y,mouse_2.leftButton,mouse_2.midButton,mouse_2.rightButton,mouse_2.clicked_name,mouse_3.x,mouse_3.y,mouse_3.leftButton,mouse_3.midButton,mouse_3.rightButton,mouse_11.x,mouse_11.y,mouse_11.leftButton,mouse_11.midButton,mouse_11.rightButton,trials_2.thisRepN,trials_2.thisTrialN,trials_2.thisN,trials_2.thisIndex,trials_2.ran,Colour1,mouse_3.clicked_name,catchornah,catchsimilarity,catchnumber,catchtrialorder,catchRT,mouse_11.clicked_name
space,0.8744,space,10.6274,space,28.1832,space,6.4873,space,2.0992,space,4.9698,58,FF,85,-47,1,0,0,response3disk_5,5,7.9113,11,1,1,0,0,rectangle_8,11,1,1,0,0,11,1,1,0,0,0,0,0,3,1,61022d296d11b07dd50a6793,61036a30236ad4ffc5587c4c,2021-07-29_22h57.51.232,Simcolourproject_2stim_asymm_v5,2020.2.10,Win32,60,61025ae37ef11b136ea224fe,,,,,,,,,,,,,,,,,,,,,,,,,,,,,,,,,,,,,,,,,,,,,,
,,,,,,,,,,,,43,PF,-110,-58,1,0,0,response5disk_5,2,1.9614,-8,5,1,0,0,rectangle_8,-112,55,1,0,0,0,-4,1,0,0,0,1,1,1,1,61022d296d11b07dd50a6793,61036a30236ad4ffc5587c4c,2021-07-29_22h57.51.232,Simcolourproject_2stim_asymm_v5,2020.2.10,Win32,60,61025ae37ef11b136ea224fe,response7disk_7,1,5.2038,1,"[2,5]",rectangle_4,,,,,,,,,,,,,,,,,,,,,,,,,,,,,,,,,,,,,,,,
,,,,,,,,,,,,126,FF,144,-52,1,0,0,response3disk_5,5,1.841,-8,0,1,0,0,rectangle_8,-8,0,1,0,0,-8,0,1,0,0,0,2,2,5,1,61022d296d11b07dd50a6793,61036a30236ad4ffc5587c4c,2021-07-29_22h57.51.232,Simcolourproject_2stim_asymm_v5,2020.2.10,Win32,60,61025ae37ef11b136ea224fe,,,,,,,,,,,,,,,,,,,,,,,,,,,,,,,,,,,,,,,,,,,,,,
,,,,,,,,,,,,142,FF,103,25,1,0,0,response1disk_5,6,1.6581,7,-8,1,0,0,rectangle_8,7,-8,1,0,0,7,-8,1,0,0,0,3,3,0,1,61022d296d11b07dd50a6793,61036a30236ad4ffc5587c4c,2021-07-29_22h57.51.232,Simcolourproject_2stim_asymm_v5,2020.2.10,Win32,60,61025ae37ef11b136ea224fe,,,,,,,,,,,,,,,,,,,,,,,,,,,,,,,,,,,,,,,,,,,,,,
,,,,,,,,,,,,58,PF,51,-29,1,0,0,response3disk_5,5,0.7858,-1,-1,1,0,0,rectangle_8,-95,36,1,0,0,15,1,1,0,0,0,4,4,6,1,61022d296d11b07dd50a6793,61036a30236ad4ffc5587c4c,2021-07-29_22h57.51.232,Simcolourproject_2stim_asymm_v5,2020.2.10,Win32,60,61025ae37ef11b136ea224fe,response7disk_7,1,1.9893,1,"[2,5]",rectangle_4,,,,,,,,,,,,,,,,,,,,,,,,,,,,,,,,,,,,,,,,
,,,,,,,,,,,,155,PF,-55,-78,1,0,0,response5disk_5,3,2.1609,19,3,1,0,0,rectangle_8,19,3,1,0,0,19,3,1,0,0,0,5,5,2,1,61022d296d11b07dd50a6793,61036a30236ad4ffc5587c4c,2021-07-29_22h57.51.232,Simcolourproject_2stim_asymm_v5,2020.2.10,Win32,60,61025ae37ef11b136ea224fe,,,,,,,,,,,,,,,,,,,,,,,,,,,,,,,,,,,,,,,,,,,,,,
,,,,,,,,,,,,92,PF,47,-100,1,0,0,response3disk_5,4,1.5207,-20,4,1,0,0,rectangle_8,-20,4,1,0,0,-20,4,1,0,0,0,6,6,4,1,61022d296d11b07dd50a6793,61036a30236ad4ffc5587c4c,2021-07-29_22h57.51.232,Simcolourproject_2stim_asymm_v5,2020.2.10,Win32,60,61025ae37ef11b136ea224fe,,,,,,,,,,,,,,,,,,,,,,,,,,,,,,,,,,,,,,,,,,,,,,
,,,,,,,,,,,,,FF,,,,,,,,1.9862,,,,,,,,,,,,,,,,,,,,,,61022d296d11b07dd50a6793,61036a30236ad4ffc5587c4c,2021-07-29_22h57.51.232,Simcolourproject_2stim_asymm_v5,2020.2.10,Win32,60,61025ae37ef11b136ea224fe,,,,,,,space,3.0318,2840,45,-94,1,0,0,response3disk,,4,7,0,1,0,0,rectangle,7,0,1,0,0,7,0,1,0,0,0,0,0,16,1,,,,,,,,
,,,,,,,,,,,,,FF,,,,,,,,1.6141,,,,,,,,,,,,,,,,,,,,,,61022d296d11b07dd50a6793,61036a30236ad4ffc5587c4c,2021-07-29_22h57.51.232,Simcolourproject_2stim_asymm_v5,2020.2.10,Win32,60,61025ae37ef11b136ea224fe,,,,,,,,,1622,66,-36,1,0,0,response3disk,,5,16,-5,1,0,0,rectangle,16,-5,1,0,0,16,-5,1,0,0,0,1,1,151,1,,,,,,,,
,,,,,,,,,,,,,FF,,,,,,,,1.0223,,,,,,,,,,,,,,,,,,,,,,61022d296d11b07dd50a6793,61036a30236ad4ffc5587c4c,2021-07-29_22h57.51.232,Simcolourproject_2stim_asymm_v5,2020.2.10,Win32,60,61025ae37ef11b136ea224fe,,,,,,,,,505,-37,-81,1,0,0,response5disk,,3,5,-3,1,0,0,rectangle,5,-3,1,0,0,5,-3,1,0,0,0,2,2,130,1,,,,,,,,
,,,,,,,,,,,,,FF,,,,,,,,0.9736,,,,,,,,,,,,,,,,,,,,,,61022d296d11b07dd50a6793,61036a30236ad4ffc5587c4c,2021-07-29_22h57.51.232,Simcolourproject_2stim_asymm_v5,2020.2.10,Win32,60,61025ae37ef11b136ea224fe,,,,,,,,,4012,74,33,1,0,0,response1disk,,6,33,3,1,0,0,rectangle,33,3,1,0,0,33,3,1,0,0,0,3,3,100,1,,,,,,,,
,,,,,,,,,,,,,FF,,,,,,,,1.2538,,,,,,,,,,,,,,,,,,,,,,61022d296d11b07dd50a6793,61036a30236ad4ffc5587c4c,2021-07-29_22h57.51.232,Simcolourproject_2stim_asymm_v5,2020.2.10,Win32,60,61025ae37ef11b136ea224fe,,,,,,,,,1779,52,-99,1,0,0,response3disk,,4,4,-5,1,0,0,rectangle,4,-5,1,0,0,4,-5,1,0,0,0,4,4,117,1,,,,,,,,
,,,,,,,,,,,,,FF,,,,,,,,0.8,,,,,,,,,,,,,,,,,,,,,,61022d296d11b07dd50a6793,61036a30236ad4ffc5587c4c,2021-07-29_22h57.51.232,Simcolourproject_2stim_asymm_v5,2020.2.10,Win32,60,61025ae37ef11b136ea224fe,,,,,,,,,3813,-65,-40,1,0,0,response5disk,,2,6,-8,1,0,0,rectangle,6,-8,1,0,0,6,-8,1,0,0,0,5,5,15,1,,,,,,,,
,,,,,,,,,,,,,FF,,,,,,,,7.9665,,,,,,,,,,,,,,,,,,,,,,61022d296d11b07dd50a6793,61036a30236ad4ffc5587c4c,2021-07-29_22h57.51.232,Simcolourproject_2stim_asymm_v5,2020.2.10,Win32,60,61025ae37ef11b136ea224fe,,,,,,,,,109,-51,-105,1,0,0,response5disk,,3,-9,5,1,0,0,rectangle,-119,-59,1,0,0,-4,-10,1,0,0,0,6,6,120,1,,response5disk_3,TRUE,2,2,"[64,8,219,85,173,218,68,320,14,12,222,177,290,15,57,303,294,19,7,245]",2.2144,rectangle
,,,,,,,,,,,,,FF,,,,,,,,0.9621,,,,,,,,,,,,,,,,,,,,,,61022d296d11b07dd50a6793,61036a30236ad4ffc5587c4c,2021-07-29_22h57.51.232,Simcolourproject_2stim_asymm_v5,2020.2.10,Win32,60,61025ae37ef11b136ea224fe,,,,,,,,,3560,-96,-71,1,0,0,response5disk,,2,-13,-14,1,0,0,rectangle,-98,72,1,0,0,14,3,1,0,0,0,7,7,143,1,,response7disk_3,TRUE,1,1,"[64,8,219,85,173,218,68,320,14,12,222,177,290,15,57,303,294,19,7,245]",1.4409,rectangle
,,,,,,,,,,,,,FF,,,,,,,,0.7738,,,,,,,,,,,,,,,,,,,,,,61022d296d11b07dd50a6793,61036a30236ad4ffc5587c4c,2021-07-29_22h57.51.232,Simcolourproject_2stim_asymm_v5,2020.2.10,Win32,60,61025ae37ef11b136ea224fe,,,,,,,,,2266,71,-55,1,0,0,response3disk,,5,4,0,1,0,0,rectangle,4,0,1,0,0,4,0,1,0,0,0,8,8,18,1,,,,,,,,
,,,,,,,,,,,,,FF,,,,,,,,0.5872,,,,,,,,,,,,,,,,,,,,,,61022d296d11b07dd50a6793,61036a30236ad4ffc5587c4c,2021-07-29_22h57.51.232,Simcolourproject_2stim_asymm_v5,2020.2.10,Win32,60,61025ae37ef11b136ea224fe,,,,,,,,,3839,-39,-103,1,0,0,response5disk,,3,-12,-5,1,0,0,rectangle,-12,-5,1,0,0,-12,-5,1,0,0,0,9,9,84,1,,,,,,,,
,,,,,,,,,,,,,FF,,,,,,,,0.787,,,,,,,,,,,,,,,,,,,,,,61022d296d11b07dd50a6793,61036a30236ad4ffc5587c4c,2021-07-29_22h57.51.232,Simcolourproject_2stim_asymm_v5,2020.2.10,Win32,60,61025ae37ef11b136ea224fe,,,,,,,,,1778,93,-56,1,0,0,response3disk,,5,24,12,1,0,0,rectangle,24,12,1,0,0,24,12,1,0,0,0,10,10,91,1,,,,,,,,
,,,,,,,,,,,,,FF,,,,,,,,1.2002,,,,,,,,,,,,,,,,,,,,,,61022d296d11b07dd50a6793,61036a30236ad4ffc5587c4c,2021-07-29_22h57.51.232,Simcolourproject_2stim_asymm_v5,2020.2.10,Win32,60,61025ae37ef11b136ea224fe,,,,,,,,,2276,94,-50,1,0,0,response3disk,,5,13,4,1,0,0,rectangle,-49,111,1,0,0,10,-12,1,0,0,0,11,11,9,1,,response7disk_3,TRUE,0,0,"[64,8,219,85,173,218,68,320,14,12,222,177,290,15,57,303,294,19,7,245]",1.2934,rectangle
,,,,,,,,,,,,,FF,,,,,,,,2.9854,,,,,,,,,,,,,,,,,,,,,,61022d296d11b07dd50a6793,61036a30236ad4ffc5587c4c,2021-07-29_22h57.51.232,Simcolourproject_2stim_asymm_v5,2020.2.10,Win32,60,61025ae37ef11b136ea224fe,,,,,,,,,3494,50,-104,1,0,0,response3disk,,4,-4,5,1,0,0,rectangle,-4,5,1,0,0,-4,5,1,0,0,0,12,12,47,1,,,,,,,,
,,,,,,,,,,,,,FF,,,,,,,,4.0287,,,,,,,,,,,,,,,,,,,,,,61022d296d11b07dd50a6793,61036a30236ad4ffc5587c4c,2021-07-29_22h57.51.232,Simcolourproject_2stim_asymm_v5,2020.2.10,Win32,60,61025ae37ef11b136ea224fe,,,,,,,,,239,64,-132,1,0,0,response3disk,,4,2,-10,1,0,0,rectangle,-111,-56,1,0,0,3,-7,1,0,0,0,13,13,76,1,,response5disk_3,TRUE,2,2,"[64,8,219,85,173,218,68,320,14,12,222,177,290,15,57,303,294,19,7,245]",1.5203,rectangle
,,,,,,,,,,,,,FF,,,,,,,,2.7149,,,,,,,,,,,,,,,,,,,,,,61022d296d11b07dd50a6793,61036a30236ad4ffc5587c4c,2021-07-29_22h57.51.232,Simcolourproject_2stim_asymm_v5,2020.2.10,Win32,60,61025ae37ef11b136ea224fe,,,,,,,,,2865,-39,-63,1,0,0,response5disk,,3,-11,-1,1,0,0,rectangle,81,-131,1,0,0,4,4,1,0,0,0,14,14,4,1,,response3disk_3,TRUE,4,4,"[64,8,219,85,173,218,68,320,14,12,222,177,290,15,57,303,294,19,7,245]",1.4006,rectangle
,,,,,,,,,,,,,FF,,,,,,,,0.8536,,,,,,,,,,,,,,,,,,,,,,61022d296d11b07dd50a6793,61036a30236ad4ffc5587c4c,2021-07-29_22h57.51.232,Simcolourproject_2stim_asymm_v5,2020.2.10,Win32,60,61025ae37ef11b136ea224fe,,,,,,,,,4124,-57,-106,1,0,0,response5disk,,3,10,2,1,0,0,rectangle,10,2,1,0,0,10,2,1,0,0,0,15,15,46,1,,,,,,,,
,,,,,,,,,,,,,FF,,,,,,,,1.227,,,,,,,,,,,,,,,,,,,,,,61022d296d11b07dd50a6793,61036a30236ad4ffc5587c4c,2021-07-29_22h57.51.232,Simcolourproject_2stim_asymm_v5,2020.2.10,Win32,60,61025ae37ef11b136ea224fe,,,,,,,,,2591,75,-41,1,0,0,response3disk,,5,12,-3,1,0,0,rectangle,12,-3,1,0,0,12,-3,1,0,0,0,16,16,22,1,,,,,,,,
,,,,,,,,,,,,,FF,,,,,,,,2.5476,,,,,,,,,,,,,,,,,,,,,,61022d296d11b07dd50a6793,61036a30236ad4ffc5587c4c,2021-07-29_22h57.51.232,Simcolourproject_2stim_asymm_v5,2020.2.10,Win32,60,61025ae37ef11b136ea224fe,,,,,,,,,3738,42,-81,1,0,0,response3disk,,4,3,6,1,0,0,rectangle,3,6,1,0,0,3,6,1,0,0,0,17,17,26,1,,,,,,,,
,,,,,,,,,,,,,FF,,,,,,,,0.7188,,,,,,,,,,,,,,,,,,,,,,61022d296d11b07dd50a6793,61036a30236ad4ffc5587c4c,2021-07-29_22h57.51.232,Simcolourproject_2stim_asymm_v5,2020.2.10,Win32,60,61025ae37ef11b136ea224fe,,,,,,,,,255,-36,-76,1,0,0,response5disk,,3,7,-2,1,0,0,rectangle,-111,65,1,0,0,25,8,1,0,0,0,18,18,67,1,,response7disk_3,TRUE,1,1,"[64,8,219,85,173,218,68,320,14,12,222,177,290,15,57,303,294,19,7,245]",1.2269,rectangle
,,,,,,,,,,,,,FF,,,,,,,,1.4132,,,,,,,,,,,,,,,,,,,,,,61022d296d11b07dd50a6793,61036a30236ad4ffc5587c4c,2021-07-29_22h57.51.232,Simcolourproject_2stim_asymm_v5,2020.2.10,Win32,60,61025ae37ef11b136ea224fe,,,,,,,,,1004,53,-111,1,0,0,response3disk,,4,-3,5,1,0,0,rectangle,-3,5,1,0,0,-3,5,1,0,0,0,19,19,58,1,,,,,,,,
,,,,,,,,,,,,,FF,,,,,,,,1.3343,,,,,,,,,,,,,,,,,,,,,,61022d296d11b07dd50a6793,61036a30236ad4ffc5587c4c,2021-07-29_22h57.51.232,Simcolourproject_2stim_asymm_v5,2020.2.10,Win32,60,61025ae37ef11b136ea224fe,,,,,,,,,3101,-54,-98,1,0,0,response5disk,,3,4,3,1,0,0,rectangle,4,3,1,0,0,4,3,1,0,0,0,20,20,54,1,,,,,,,,
,,,,,,,,,,,,,FF,,,,,,,,0.9426,,,,,,,,,,,,,,,,,,,,,,61022d296d11b07dd50a6793,61036a30236ad4ffc5587c4c,2021-07-29_22h57.51.232,Simcolourproject_2stim_asymm_v5,2020.2.10,Win32,60,61025ae37ef11b136ea224fe,,,,,,,,,1358,61,-89,1,0,0,response3disk,,4,0,2,1,0,0,rectangle,0,2,1,0,0,0,2,1,0,0,0,21,21,51,1,,,,,,,,
,,,,,,,,,,,,,FF,,,,,,,,1.011,,,,,,,,,,,,,,,,,,,,,,61022d296d11b07dd50a6793,61036a30236ad4ffc5587c4c,2021-07-29_22h57.51.232,Simcolourproject_2stim_asymm_v5,2020.2.10,Win32,60,61025ae37ef11b136ea224fe,,,,,,,,,4106,-42,-115,1,0,0,response5disk,,3,-1,-4,1,0,0,rectangle,-1,-4,1,0,0,-1,-4,1,0,0,0,22,22,133,1,,,,,,,,
,,,,,,,,,,,,,FF,,,,,,,,0.9853,,,,,,,,,,,,,,,,,,,,,,61022d296d11b07dd50a6793,61036a30236ad4ffc5587c4c,2021-07-29_22h57.51.232,Simcolourproject_2stim_asymm_v5,2020.2.10,Win32,60,61025ae37ef11b136ea224fe,,,,,,,,,548,-66,-76,1,0,0,response5disk,,3,-28,2,1,0,0,rectangle,-28,2,1,0,0,-28,2,1,0,0,0,23,23,97,1,,,,,,,,
,,,,,,,,,,,,,FF,,,,,,,,2.0829,,,,,,,,,,,,,,,,,,,,,,61022d296d11b07dd50a6793,61036a30236ad4ffc5587c4c,2021-07-29_22h57.51.232,Simcolourproject_2stim_asymm_v5,2020.2.10,Win32,60,61025ae37ef11b136ea224fe,,,,,,,,,4290,94,56,1,0,0,response1disk,,6,16,-6,1,0,0,rectangle,16,-6,1,0,0,16,-6,1,0,0,0,24,24,21,1,,,,,,,,
,,,,,,,,,,,,,FF,,,,,,,,0.9336,,,,,,,,,,,,,,,,,,,,,,61022d296d11b07dd50a6793,61036a30236ad4ffc5587c4c,2021-07-29_22h57.51.232,Simcolourproject_2stim_asymm_v5,2020.2.10,Win32,60,61025ae37ef11b136ea224fe,,,,,,,,,3211,-36,-80,1,0,0,response5disk,,3,8,-1,1,0,0,rectangle,8,-1,1,0,0,8,-1,1,0,0,0,25,25,30,1,,,,,,,,
,,,,,,,,,,,,,FF,,,,,,,,0.9586,,,,,,,,,,,,,,,,,,,,,,61022d296d11b07dd50a6793,61036a30236ad4ffc5587c4c,2021-07-29_22h57.51.232,Simcolourproject_2stim_asymm_v5,2020.2.10,Win32,60,61025ae37ef11b136ea224fe,,,,,,,,,3200,-29,-98,1,0,0,response5disk,,3,17,2,1,0,0,rectangle,17,2,1,0,0,17,2,1,0,0,0,26,26,88,1,,,,,,,,
,,,,,,,,,,,,,FF,,,,,,,,1.3065,,,,,,,,,,,,,,,,,,,,,,61022d296d11b07dd50a6793,61036a30236ad4ffc5587c4c,2021-07-29_22h57.51.232,Simcolourproject_2stim_asymm_v5,2020.2.10,Win32,60,61025ae37ef11b136ea224fe,,,,,,,,,3537,105,45,1,0,0,response1disk,,6,20,7,1,0,0,rectangle,20,7,1,0,0,20,7,1,0,0,0,27,27,106,1,,,,,,,,
,,,,,,,,,,,,,FF,,,,,,,,1.0272,,,,,,,,,,,,,,,,,,,,,,61022d296d11b07dd50a6793,61036a30236ad4ffc5587c4c,2021-07-29_22h57.51.232,Simcolourproject_2stim_asymm_v5,2020.2.10,Win32,60,61025ae37ef11b136ea224fe,,,,,,,,,3621,46,93,1,0,0,response1disk,,7,22,7,1,0,0,rectangle,22,7,1,0,0,22,7,1,0,0,0,28,28,14,1,,,,,,,,
,,,,,,,,,,,,,FF,,,,,,,,0.827,,,,,,,,,,,,,,,,,,,,,,61022d296d11b07dd50a6793,61036a30236ad4ffc5587c4c,2021-07-29_22h57.51.232,Simcolourproject_2stim_asymm_v5,2020.2.10,Win32,60,61025ae37ef11b136ea224fe,,,,,,,,,1869,92,-47,1,0,0,response3disk,,5,6,13,1,0,0,rectangle,6,13,1,0,0,6,13,1,0,0,0,29,29,150,1,,,,,,,,
,,,,,,,,,,,,,FF,,,,,,,,1.8562,,,,,,,,,,,,,,,,,,,,,,61022d296d11b07dd50a6793,61036a30236ad4ffc5587c4c,2021-07-29_22h57.51.232,Simcolourproject_2stim_asymm_v5,2020.2.10,Win32,60,61025ae37ef11b136ea224fe,,,,,,,,,1122,33,-85,1,0,0,response3disk,,4,-4,-8,1,0,0,rectangle,-4,-8,1,0,0,-4,-8,1,0,0,0,30,30,114,1,,,,,,,,
,,,,,,,,,,,,,FF,,,,,,,,0.6274,,,,,,,,,,,,,,,,,,,,,,61022d296d11b07dd50a6793,61036a30236ad4ffc5587c4c,2021-07-29_22h57.51.232,Simcolourproject_2stim_asymm_v5,2020.2.10,Win32,60,61025ae37ef11b136ea224fe,,,,,,,,,343,-40,-91,1,0,0,response5disk,,3,9,-3,1,0,0,rectangle,9,-3,1,0,0,9,-3,1,0,0,0,31,31,69,1,,,,,,,,
,,,,,,,,,,,,,FF,,,,,,,,0.9872,,,,,,,,,,,,,,,,,,,,,,61022d296d11b07dd50a6793,61036a30236ad4ffc5587c4c,2021-07-29_22h57.51.232,Simcolourproject_2stim_asymm_v5,2020.2.10,Win32,60,61025ae37ef11b136ea224fe,,,,,,,,,416,83,41,1,0,0,response1disk,,6,23,-18,1,0,0,rectangle,23,-18,1,0,0,23,-18,1,0,0,0,32,32,52,1,,,,,,,,
,,,,,,,,,,,,,FF,,,,,,,,0.9071,,,,,,,,,,,,,,,,,,,,,,61022d296d11b07dd50a6793,61036a30236ad4ffc5587c4c,2021-07-29_22h57.51.232,Simcolourproject_2stim_asymm_v5,2020.2.10,Win32,60,61025ae37ef11b136ea224fe,,,,,,,,,3018,52,81,1,0,0,response1disk,,7,26,-6,1,0,0,rectangle,26,-6,1,0,0,26,-6,1,0,0,0,33,33,137,1,,,,,,,,
,,,,,,,,,,,,,FF,,,,,,,,1.4672,,,,,,,,,,,,,,,,,,,,,,61022d296d11b07dd50a6793,61036a30236ad4ffc5587c4c,2021-07-29_22h57.51.232,Simcolourproject_2stim_asymm_v5,2020.2.10,Win32,60,61025ae37ef11b136ea224fe,,,,,,,,,2940,-85,58,1,0,0,response7disk,,1,19,2,1,0,0,rectangle,19,2,1,0,0,19,2,1,0,0,0,34,34,156,1,,,,,,,,
,,,,,,,,,,,,,FF,,,,,,,,1.0538,,,,,,,,,,,,,,,,,,,,,,61022d296d11b07dd50a6793,61036a30236ad4ffc5587c4c,2021-07-29_22h57.51.232,Simcolourproject_2stim_asymm_v5,2020.2.10,Win32,60,61025ae37ef11b136ea224fe,,,,,,,,,1415,79,-24,1,0,0,response3disk,,5,16,3,1,0,0,rectangle,16,3,1,0,0,16,3,1,0,0,0,35,35,5,1,,,,,,,,
,,,,,,,,,,,,,FF,,,,,,,,0.7057,,,,,,,,,,,,,,,,,,,,,,61022d296d11b07dd50a6793,61036a30236ad4ffc5587c4c,2021-07-29_22h57.51.232,Simcolourproject_2stim_asymm_v5,2020.2.10,Win32,60,61025ae37ef11b136ea224fe,,,,,,,,,4039,-48,-64,1,0,0,response5disk,,3,-14,1,1,0,0,rectangle,-14,1,1,0,0,-14,1,1,0,0,0,36,36,148,1,,,,,,,,
,,,,,,,,,,,,,FF,,,,,,,,0.827,,,,,,,,,,,,,,,,,,,,,,61022d296d11b07dd50a6793,61036a30236ad4ffc5587c4c,2021-07-29_22h57.51.232,Simcolourproject_2stim_asymm_v5,2020.2.10,Win32,60,61025ae37ef11b136ea224fe,,,,,,,,,1008,-72,-51,1,0,0,response5disk,,2,-10,13,1,0,0,rectangle,-10,13,1,0,0,-10,13,1,0,0,0,37,37,11,1,,,,,,,,
,,,,,,,,,,,,,FF,,,,,,,,0.8938,,,,,,,,,,,,,,,,,,,,,,61022d296d11b07dd50a6793,61036a30236ad4ffc5587c4c,2021-07-29_22h57.51.232,Simcolourproject_2stim_asymm_v5,2020.2.10,Win32,60,61025ae37ef11b136ea224fe,,,,,,,,,3111,-36,-66,1,0,0,response5disk,,3,-4,-4,1,0,0,rectangle,-4,-4,1,0,0,-4,-4,1,0,0,0,38,38,62,1,,,,,,,,
,,,,,,,,,,,,,FF,,,,,,,,1.4807,,,,,,,,,,,,,,,,,,,,,,61022d296d11b07dd50a6793,61036a30236ad4ffc5587c4c,2021-07-29_22h57.51.232,Simcolourproject_2stim_asymm_v5,2020.2.10,Win32,60,61025ae37ef11b136ea224fe,,,,,,,,,4323,88,-61,1,0,0,response3disk,,5,9,-8,1,0,0,rectangle,9,-8,1,0,0,9,-8,1,0,0,0,39,39,124,1,,,,,,,,
,,,,,,,,,,,,,FF,,,,,,,,1.3606,,,,,,,,,,,,,,,,,,,,,,61022d296d11b07dd50a6793,61036a30236ad4ffc5587c4c,2021-07-29_22h57.51.232,Simcolourproject_2stim_asymm_v5,2020.2.10,Win32,60,61025ae37ef11b136ea224fe,,,,,,,,,4333,59,79,1,0,0,response1disk,,7,18,4,1,0,0,rectangle,18,4,1,0,0,18,4,1,0,0,0,40,40,93,1,,,,,,,,
,,,,,,,,,,,,,FF,,,,,,,,1.0256,,,,,,,,,,,,,,,,,,,,,,61022d296d11b07dd50a6793,61036a30236ad4ffc5587c4c,2021-07-29_22h57.51.232,Simcolourproject_2stim_asymm_v5,2020.2.10,Win32,60,61025ae37ef11b136ea224fe,,,,,,,,,2644,97,-79,1,0,0,response3disk,,5,22,12,1,0,0,rectangle,22,12,1,0,0,22,12,1,0,0,0,41,41,141,1,,,,,,,,
,,,,,,,,,,,,,FF,,,,,,,,1.5739,,,,,,,,,,,,,,,,,,,,,,61022d296d11b07dd50a6793,61036a30236ad4ffc5587c4c,2021-07-29_22h57.51.232,Simcolourproject_2stim_asymm_v5,2020.2.10,Win32,60,61025ae37ef11b136ea224fe,,,,,,,,,277,-86,-34,1,0,0,response5disk,,2,3,6,1,0,0,rectangle,3,6,1,0,0,3,6,1,0,0,0,42,42,77,1,,,,,,,,
,,,,,,,,,,,,,FF,,,,,,,,0.8136,,,,,,,,,,,,,,,,,,,,,,61022d296d11b07dd50a6793,61036a30236ad4ffc5587c4c,2021-07-29_22h57.51.232,Simcolourproject_2stim_asymm_v5,2020.2.10,Win32,60,61025ae37ef11b136ea224fe,,,,,,,,,3427,-55,93,1,0,0,response7disk,,0,28,3,1,0,0,rectangle,28,3,1,0,0,28,3,1,0,0,0,43,43,158,1,,,,,,,,
,,,,,,,,,,,,,FF,,,,,,,,0.6079,,,,,,,,,,,,,,,,,,,,,,61022d296d11b07dd50a6793,61036a30236ad4ffc5587c4c,2021-07-29_22h57.51.232,Simcolourproject_2stim_asymm_v5,2020.2.10,Win32,60,61025ae37ef11b136ea224fe,,,,,,,,,3639,-68,-45,1,0,0,response5disk,,2,-11,-12,1,0,0,rectangle,-11,-12,1,0,0,-11,-12,1,0,0,0,44,44,3,1,,,,,,,,
,,,,,,,,,,,,,FF,,,,,,,,0.6139,,,,,,,,,,,,,,,,,,,,,,61022d296d11b07dd50a6793,61036a30236ad4ffc5587c4c,2021-07-29_22h57.51.232,Simcolourproject_2stim_asymm_v5,2020.2.10,Win32,60,61025ae37ef11b136ea224fe,,,,,,,,,2303,-60,-44,1,0,0,response5disk,,2,-2,-10,1,0,0,rectangle,-2,-10,1,0,0,-2,-10,1,0,0,0,45,45,118,1,,,,,,,,
,,,,,,,,,,,,,FF,,,,,,,,0.8936,,,,,,,,,,,,,,,,,,,,,,61022d296d11b07dd50a6793,61036a30236ad4ffc5587c4c,2021-07-29_22h57.51.232,Simcolourproject_2stim_asymm_v5,2020.2.10,Win32,60,61025ae37ef11b136ea224fe,,,,,,,,,1906,50,-92,1,0,0,response3disk,,4,1,-6,1,0,0,rectangle,1,-6,1,0,0,1,-6,1,0,0,0,46,46,136,1,,,,,,,,
,,,,,,,,,,,,,FF,,,,,,,,1.1471,,,,,,,,,,,,,,,,,,,,,,61022d296d11b07dd50a6793,61036a30236ad4ffc5587c4c,2021-07-29_22h57.51.232,Simcolourproject_2stim_asymm_v5,2020.2.10,Win32,60,61025ae37ef11b136ea224fe,,,,,,,,,2537,96,-36,1,0,0,response3disk,,5,22,8,1,0,0,rectangle,22,8,1,0,0,22,8,1,0,0,0,47,47,6,1,,,,,,,,
,,,,,,,,,,,,,FF,,,,,,,,2.2541,,,,,,,,,,,,,,,,,,,,,,61022d296d11b07dd50a6793,61036a30236ad4ffc5587c4c,2021-07-29_22h57.51.232,Simcolourproject_2stim_asymm_v5,2020.2.10,Win32,60,61025ae37ef11b136ea224fe,,,,,,,,,964,113,43,1,0,0,response1disk,,6,-1,2,1,0,0,rectangle,-1,2,1,0,0,-1,2,1,0,0,0,48,48,38,1,,,,,,,,
,,,,,,,,,,,,,FF,,,,,,,,0.5344,,,,,,,,,,,,,,,,,,,,,,61022d296d11b07dd50a6793,61036a30236ad4ffc5587c4c,2021-07-29_22h57.51.232,Simcolourproject_2stim_asymm_v5,2020.2.10,Win32,60,61025ae37ef11b136ea224fe,,,,,,,,,2987,-40,-68,1,0,0,response5disk,,3,21,10,1,0,0,rectangle,21,10,1,0,0,21,10,1,0,0,0,49,49,85,1,,,,,,,,
,,,,,,,,,,,,,FF,,,,,,,,0.6653,,,,,,,,,,,,,,,,,,,,,,61022d296d11b07dd50a6793,61036a30236ad4ffc5587c4c,2021-07-29_22h57.51.232,Simcolourproject_2stim_asymm_v5,2020.2.10,Win32,60,61025ae37ef11b136ea224fe,,,,,,,,,2242,-78,-50,1,0,0,response5disk,,2,-18,-13,1,0,0,rectangle,-18,-13,1,0,0,-18,-13,1,0,0,0,50,50,116,1,,,,,,,,
,,,,,,,,,,,,,FF,,,,,,,,0.907,,,,,,,,,,,,,,,,,,,,,,61022d296d11b07dd50a6793,61036a30236ad4ffc5587c4c,2021-07-29_22h57.51.232,Simcolourproject_2stim_asymm_v5,2020.2.10,Win32,60,61025ae37ef11b136ea224fe,,,,,,,,,3450,91,-53,1,0,0,response3disk,,5,-2,-8,1,0,0,rectangle,-2,-8,1,0,0,-2,-8,1,0,0,0,51,51,55,1,,,,,,,,
,,,,,,,,,,,,,FF,,,,,,,,0.5222,,,,,,,,,,,,,,,,,,,,,,61022d296d11b07dd50a6793,61036a30236ad4ffc5587c4c,2021-07-29_22h57.51.232,Simcolourproject_2stim_asymm_v5,2020.2.10,Win32,60,61025ae37ef11b136ea224fe,,,,,,,,,1013,60,-95,1,0,0,response3disk,,4,5,-6,1,0,0,rectangle,5,-6,1,0,0,5,-6,1,0,0,0,52,52,157,1,,,,,,,,
,,,,,,,,,,,,,FF,,,,,,,,1.2271,,,,,,,,,,,,,,,,,,,,,,61022d296d11b07dd50a6793,61036a30236ad4ffc5587c4c,2021-07-29_22h57.51.232,Simcolourproject_2stim_asymm_v5,2020.2.10,Win32,60,61025ae37ef11b136ea224fe,,,,,,,,,2100,-89,48,1,0,0,response7disk,,1,-2,-6,1,0,0,rectangle,-2,-6,1,0,0,-2,-6,1,0,0,0,53,53,90,1,,,,,,,,
,,,,,,,,,,,,,FF,,,,,,,,1.2805,,,,,,,,,,,,,,,,,,,,,,61022d296d11b07dd50a6793,61036a30236ad4ffc5587c4c,2021-07-29_22h57.51.232,Simcolourproject_2stim_asymm_v5,2020.2.10,Win32,60,61025ae37ef11b136ea224fe,,,,,,,,,3493,98,-55,1,0,0,response3disk,,5,-38,5,1,0,0,rectangle,-38,5,1,0,0,-38,5,1,0,0,0,54,54,102,1,,,,,,,,
,,,,,,,,,,,,,FF,,,,,,,,1.3072,,,,,,,,,,,,,,,,,,,,,,61022d296d11b07dd50a6793,61036a30236ad4ffc5587c4c,2021-07-29_22h57.51.232,Simcolourproject_2stim_asymm_v5,2020.2.10,Win32,60,61025ae37ef11b136ea224fe,,,,,,,,,2979,93,33,1,0,0,response1disk,,6,27,-6,1,0,0,rectangle,27,-6,1,0,0,27,-6,1,0,0,0,55,55,50,1,,,,,,,,
,,,,,,,,,,,,,FF,,,,,,,,0.8671,,,,,,,,,,,,,,,,,,,,,,61022d296d11b07dd50a6793,61036a30236ad4ffc5587c4c,2021-07-29_22h57.51.232,Simcolourproject_2stim_asymm_v5,2020.2.10,Win32,60,61025ae37ef11b136ea224fe,,,,,,,,,2225,70,41,1,0,0,response1disk,,6,0,-12,1,0,0,rectangle,-65,110,1,0,0,-12,-3,1,0,0,0,56,56,1,1,,response7disk_3,TRUE,0,0,"[64,8,219,85,173,218,68,320,14,12,222,177,290,15,57,303,294,19,7,245]",1.0669,rectangle
,,,,,,,,,,,,,FF,,,,,,,,1.1729,,,,,,,,,,,,,,,,,,,,,,61022d296d11b07dd50a6793,61036a30236ad4ffc5587c4c,2021-07-29_22h57.51.232,Simcolourproject_2stim_asymm_v5,2020.2.10,Win32,60,61025ae37ef11b136ea224fe,,,,,,,,,4249,55,-103,1,0,0,response3disk,,4,-19,-9,1,0,0,rectangle,-19,-9,1,0,0,-19,-9,1,0,0,0,57,57,56,1,,,,,,,,
,,,,,,,,,,,,,FF,,,,,,,,2.1475,,,,,,,,,,,,,,,,,,,,,,61022d296d11b07dd50a6793,61036a30236ad4ffc5587c4c,2021-07-29_22h57.51.232,Simcolourproject_2stim_asymm_v5,2020.2.10,Win32,60,61025ae37ef11b136ea224fe,,,,,,,,,2638,103,36,1,0,0,response1disk,,6,26,-5,1,0,0,rectangle,26,-5,1,0,0,26,-5,1,0,0,0,58,58,134,1,,,,,,,,
,,,,,,,,,,,,,FF,,,,,,,,0.6319,,,,,,,,,,,,,,,,,,,,,,61022d296d11b07dd50a6793,61036a30236ad4ffc5587c4c,2021-07-29_22h57.51.232,Simcolourproject_2stim_asymm_v5,2020.2.10,Win32,60,61025ae37ef11b136ea224fe,,,,,,,,,504,-35,-94,1,0,0,response5disk,,3,-3,-15,1,0,0,rectangle,-3,-15,1,0,0,-3,-15,1,0,0,0,59,59,153,1,,,,,,,,
,,,,,,,,,,,,,FF,,,,,,,,0.7995,,,,,,,,,,,,,,,,,,,,,,61022d296d11b07dd50a6793,61036a30236ad4ffc5587c4c,2021-07-29_22h57.51.232,Simcolourproject_2stim_asymm_v5,2020.2.10,Win32,60,61025ae37ef11b136ea224fe,,,,,,,,,4176,92,40,1,0,0,response1disk,,6,-13,-5,1,0,0,rectangle,-13,-5,1,0,0,-13,-5,1,0,0,0,60,60,41,1,,,,,,,,
,,,,,,,,,,,,,FF,,,,,,,,0.6549,,,,,,,,,,,,,,,,,,,,,,61022d296d11b07dd50a6793,61036a30236ad4ffc5587c4c,2021-07-29_22h57.51.232,Simcolourproject_2stim_asymm_v5,2020.2.10,Win32,60,61025ae37ef11b136ea224fe,,,,,,,,,2077,58,-85,1,0,0,response3disk,,4,-17,-11,1,0,0,rectangle,-17,-11,1,0,0,-17,-11,1,0,0,0,61,61,140,1,,,,,,,,
,,,,,,,,,,,,,FF,,,,,,,,0.9177,,,,,,,,,,,,,,,,,,,,,,61022d296d11b07dd50a6793,61036a30236ad4ffc5587c4c,2021-07-29_22h57.51.232,Simcolourproject_2stim_asymm_v5,2020.2.10,Win32,60,61025ae37ef11b136ea224fe,,,,,,,,,2111,120,-52,1,0,0,response3disk,,5,18,1,1,0,0,rectangle,18,1,1,0,0,18,1,1,0,0,0,62,62,0,1,,,,,,,,
,,,,,,,,,,,,,FF,,,,,,,,0.5584,,,,,,,,,,,,,,,,,,,,,,61022d296d11b07dd50a6793,61036a30236ad4ffc5587c4c,2021-07-29_22h57.51.232,Simcolourproject_2stim_asymm_v5,2020.2.10,Win32,60,61025ae37ef11b136ea224fe,,,,,,,,,2597,80,-44,1,0,0,response3disk,,5,1,10,1,0,0,rectangle,124,60,1,0,0,29,-1,1,0,0,0,63,63,73,1,,response1disk_3,TRUE,6,6,"[64,8,219,85,173,218,68,320,14,12,222,177,290,15,57,303,294,19,7,245]",1.1646,rectangle
,,,,,,,,,,,,,FF,,,,,,,,3.517,,,,,,,,,,,,,,,,,,,,,,61022d296d11b07dd50a6793,61036a30236ad4ffc5587c4c,2021-07-29_22h57.51.232,Simcolourproject_2stim_asymm_v5,2020.2.10,Win32,60,61025ae37ef11b136ea224fe,,,,,,,,,2140,69,-90,1,0,0,response3disk,,4,-1,3,1,0,0,rectangle,-1,3,1,0,0,-1,3,1,0,0,0,64,64,121,1,,,,,,,,
,,,,,,,,,,,,,FF,,,,,,,,0.5431,,,,,,,,,,,,,,,,,,,,,,61022d296d11b07dd50a6793,61036a30236ad4ffc5587c4c,2021-07-29_22h57.51.232,Simcolourproject_2stim_asymm_v5,2020.2.10,Win32,60,61025ae37ef11b136ea224fe,,,,,,,,,1546,94,-48,1,0,0,response3disk,,5,-1,10,1,0,0,rectangle,-1,10,1,0,0,-1,10,1,0,0,0,65,65,43,1,,,,,,,,
,,,,,,,,,,,,,FF,,,,,,,,0.6276,,,,,,,,,,,,,,,,,,,,,,61022d296d11b07dd50a6793,61036a30236ad4ffc5587c4c,2021-07-29_22h57.51.232,Simcolourproject_2stim_asymm_v5,2020.2.10,Win32,60,61025ae37ef11b136ea224fe,,,,,,,,,1574,-61,-89,1,0,0,response5disk,,3,-3,-3,1,0,0,rectangle,-3,-3,1,0,0,-3,-3,1,0,0,0,66,66,83,1,,,,,,,,
,,,,,,,,,,,,,FF,,,,,,,,0.8497,,,,,,,,,,,,,,,,,,,,,,61022d296d11b07dd50a6793,61036a30236ad4ffc5587c4c,2021-07-29_22h57.51.232,Simcolourproject_2stim_asymm_v5,2020.2.10,Win32,60,61025ae37ef11b136ea224fe,,,,,,,,,4357,-82,-55,1,0,0,response5disk,,2,9,19,1,0,0,rectangle,-78,-110,1,0,0,3,-1,1,0,0,0,67,67,64,1,,response5disk_3,TRUE,3,3,"[64,8,219,85,173,218,68,320,14,12,222,177,290,15,57,303,294,19,7,245]",1.7741,rectangle
,,,,,,,,,,,,,FF,,,,,,,,0.7557,,,,,,,,,,,,,,,,,,,,,,61022d296d11b07dd50a6793,61036a30236ad4ffc5587c4c,2021-07-29_22h57.51.232,Simcolourproject_2stim_asymm_v5,2020.2.10,Win32,60,61025ae37ef11b136ea224fe,,,,,,,,,164,-95,-55,1,0,0,response5disk,,2,4,-7,1,0,0,rectangle,4,-7,1,0,0,4,-7,1,0,0,0,68,68,10,1,,,,,,,,
,,,,,,,,,,,,,FF,,,,,,,,0.6408,,,,,,,,,,,,,,,,,,,,,,61022d296d11b07dd50a6793,61036a30236ad4ffc5587c4c,2021-07-29_22h57.51.232,Simcolourproject_2stim_asymm_v5,2020.2.10,Win32,60,61025ae37ef11b136ea224fe,,,,,,,,,1623,56,-118,1,0,0,response3disk,,4,6,-3,1,0,0,rectangle,6,-3,1,0,0,6,-3,1,0,0,0,69,69,7,1,,,,,,,,
,,,,,,,,,,,,,FF,,,,,,,,0.6288,,,,,,,,,,,,,,,,,,,,,,61022d296d11b07dd50a6793,61036a30236ad4ffc5587c4c,2021-07-29_22h57.51.232,Simcolourproject_2stim_asymm_v5,2020.2.10,Win32,60,61025ae37ef11b136ea224fe,,,,,,,,,1771,-50,-89,1,0,0,response5disk,,3,-19,8,1,0,0,rectangle,-19,8,1,0,0,-19,8,1,0,0,0,70,70,105,1,,,,,,,,
,,,,,,,,,,,,,FF,,,,,,,,0.8269,,,,,,,,,,,,,,,,,,,,,,61022d296d11b07dd50a6793,61036a30236ad4ffc5587c4c,2021-07-29_22h57.51.232,Simcolourproject_2stim_asymm_v5,2020.2.10,Win32,60,61025ae37ef11b136ea224fe,,,,,,,,,2024,107,29,1,0,0,response1disk,,6,-5,-15,1,0,0,rectangle,-5,-15,1,0,0,-5,-15,1,0,0,0,71,71,108,1,,,,,,,,
,,,,,,,,,,,,,FF,,,,,,,,0.5068,,,,,,,,,,,,,,,,,,,,,,61022d296d11b07dd50a6793,61036a30236ad4ffc5587c4c,2021-07-29_22h57.51.232,Simcolourproject_2stim_asymm_v5,2020.2.10,Win32,60,61025ae37ef11b136ea224fe,,,,,,,,,3402,99,-58,1,0,0,response3disk,,5,9,-4,1,0,0,rectangle,9,-4,1,0,0,9,-4,1,0,0,0,72,72,155,1,,,,,,,,
,,,,,,,,,,,,,FF,,,,,,,,0.4926,,,,,,,,,,,,,,,,,,,,,,61022d296d11b07dd50a6793,61036a30236ad4ffc5587c4c,2021-07-29_22h57.51.232,Simcolourproject_2stim_asymm_v5,2020.2.10,Win32,60,61025ae37ef11b136ea224fe,,,,,,,,,2653,83,-112,1,0,0,response3disk,,4,-15,9,1,0,0,rectangle,-15,9,1,0,0,-15,9,1,0,0,0,73,73,57,1,,,,,,,,
,,,,,,,,,,,,,FF,,,,,,,,0.6402,,,,,,,,,,,,,,,,,,,,,,61022d296d11b07dd50a6793,61036a30236ad4ffc5587c4c,2021-07-29_22h57.51.232,Simcolourproject_2stim_asymm_v5,2020.2.10,Win32,60,61025ae37ef11b136ea224fe,,,,,,,,,3459,112,41,1,0,0,response1disk,,6,14,-3,1,0,0,rectangle,14,-3,1,0,0,14,-3,1,0,0,0,74,74,8,1,,,,,,,,
,,,,,,,,,,,,,FF,,,,,,,,1.7072,,,,,,,,,,,,,,,,,,,,,,61022d296d11b07dd50a6793,61036a30236ad4ffc5587c4c,2021-07-29_22h57.51.232,Simcolourproject_2stim_asymm_v5,2020.2.10,Win32,60,61025ae37ef11b136ea224fe,,,,,,,,,2612,-44,-112,1,0,0,response5disk,,3,17,-11,1,0,0,rectangle,17,-11,1,0,0,17,-11,1,0,0,0,75,75,29,1,,,,,,,,
,,,,,,,,,,,,,FF,,,,,,,,1.2806,,,,,,,,,,,,,,,,,,,,,,61022d296d11b07dd50a6793,61036a30236ad4ffc5587c4c,2021-07-29_22h57.51.232,Simcolourproject_2stim_asymm_v5,2020.2.10,Win32,60,61025ae37ef11b136ea224fe,,,,,,,,,2656,120,-67,1,0,0,response3disk,,5,0,14,1,0,0,rectangle,0,14,1,0,0,0,14,1,0,0,0,76,76,24,1,,,,,,,,
,,,,,,,,,,,,,FF,,,,,,,,1.16,,,,,,,,,,,,,,,,,,,,,,61022d296d11b07dd50a6793,61036a30236ad4ffc5587c4c,2021-07-29_22h57.51.232,Simcolourproject_2stim_asymm_v5,2020.2.10,Win32,60,61025ae37ef11b136ea224fe,,,,,,,,,3032,44,-83,1,0,0,response3disk,,4,-2,-1,1,0,0,rectangle,-2,-1,1,0,0,-2,-1,1,0,0,0,77,77,40,1,,,,,,,,
,,,,,,,,,,,,,FF,,,,,,,,0.6121,,,,,,,,,,,,,,,,,,,,,,61022d296d11b07dd50a6793,61036a30236ad4ffc5587c4c,2021-07-29_22h57.51.232,Simcolourproject_2stim_asymm_v5,2020.2.10,Win32,60,61025ae37ef11b136ea224fe,,,,,,,,,2697,131,-47,1,0,0,response3disk,,5,20,9,1,0,0,rectangle,20,9,1,0,0,20,9,1,0,0,0,78,78,144,1,,,,,,,,
,,,,,,,,,,,,,FF,,,,,,,,0.5053,,,,,,,,,,,,,,,,,,,,,,61022d296d11b07dd50a6793,61036a30236ad4ffc5587c4c,2021-07-29_22h57.51.232,Simcolourproject_2stim_asymm_v5,2020.2.10,Win32,60,61025ae37ef11b136ea224fe,,,,,,,,,1311,46,-112,1,0,0,response3disk,,4,5,-12,1,0,0,rectangle,5,-12,1,0,0,5,-12,1,0,0,0,79,79,128,1,,,,,,,,
,,,,,,,,,,,,,FF,,,,,,,,0.505,,,,,,,,,,,,,,,,,,,,,,61022d296d11b07dd50a6793,61036a30236ad4ffc5587c4c,2021-07-29_22h57.51.232,Simcolourproject_2stim_asymm_v5,2020.2.10,Win32,60,61025ae37ef11b136ea224fe,,,,,,,,,3749,-41,-102,1,0,0,response5disk,,3,0,-10,1,0,0,rectangle,0,-10,1,0,0,0,-10,1,0,0,0,80,80,68,1,,,,,,,,
,,,,,,,,,,,,,FF,,,,,,,,0.6269,,,,,,,,,,,,,,,,,,,,,,61022d296d11b07dd50a6793,61036a30236ad4ffc5587c4c,2021-07-29_22h57.51.232,Simcolourproject_2stim_asymm_v5,2020.2.10,Win32,60,61025ae37ef11b136ea224fe,,,,,,,,,242,-85,-45,1,0,0,response5disk,,2,16,-9,1,0,0,rectangle,16,-9,1,0,0,16,-9,1,0,0,0,81,81,35,1,,,,,,,,
,,,,,,,,,,,,,FF,,,,,,,,0.4403,,,,,,,,,,,,,,,,,,,,,,61022d296d11b07dd50a6793,61036a30236ad4ffc5587c4c,2021-07-29_22h57.51.232,Simcolourproject_2stim_asymm_v5,2020.2.10,Win32,60,61025ae37ef11b136ea224fe,,,,,,,,,3500,103,38,1,0,0,response1disk,,6,42,9,1,0,0,rectangle,42,9,1,0,0,42,9,1,0,0,0,82,82,28,1,,,,,,,,
,,,,,,,,,,,,,FF,,,,,,,,1.0959,,,,,,,,,,,,,,,,,,,,,,61022d296d11b07dd50a6793,61036a30236ad4ffc5587c4c,2021-07-29_22h57.51.232,Simcolourproject_2stim_asymm_v5,2020.2.10,Win32,60,61025ae37ef11b136ea224fe,,,,,,,,,3213,53,-121,1,0,0,response3disk,,4,-19,-6,1,0,0,rectangle,-19,-6,1,0,0,-19,-6,1,0,0,0,83,83,95,1,,,,,,,,
,,,,,,,,,,,,,FF,,,,,,,,0.3714,,,,,,,,,,,,,,,,,,,,,,61022d296d11b07dd50a6793,61036a30236ad4ffc5587c4c,2021-07-29_22h57.51.232,Simcolourproject_2stim_asymm_v5,2020.2.10,Win32,60,61025ae37ef11b136ea224fe,,,,,,,,,2583,-34,-123,1,0,0,response5disk,,3,1,1,1,0,0,rectangle,-123,56,1,0,0,1,14,1,0,0,0,84,84,94,1,,response7disk_3,TRUE,1,1,"[64,8,219,85,173,218,68,320,14,12,222,177,290,15,57,303,294,19,7,245]",1.1606,rectangle
,,,,,,,,,,,,,FF,,,,,,,,0.667,,,,,,,,,,,,,,,,,,,,,,61022d296d11b07dd50a6793,61036a30236ad4ffc5587c4c,2021-07-29_22h57.51.232,Simcolourproject_2stim_asymm_v5,2020.2.10,Win32,60,61025ae37ef11b136ea224fe,,,,,,,,,3781,-78,39,1,0,0,response7disk,,1,5,-4,1,0,0,rectangle,5,-4,1,0,0,5,-4,1,0,0,0,85,85,126,1,,,,,,,,
,,,,,,,,,,,,,FF,,,,,,,,0.5586,,,,,,,,,,,,,,,,,,,,,,61022d296d11b07dd50a6793,61036a30236ad4ffc5587c4c,2021-07-29_22h57.51.232,Simcolourproject_2stim_asymm_v5,2020.2.10,Win32,60,61025ae37ef11b136ea224fe,,,,,,,,,2678,-124,-55,1,0,0,response5disk,,2,-11,-21,1,0,0,rectangle,-11,-21,1,0,0,-11,-21,1,0,0,0,86,86,131,1,,,,,,,,
,,,,,,,,,,,,,FF,,,,,,,,0.5468,,,,,,,,,,,,,,,,,,,,,,61022d296d11b07dd50a6793,61036a30236ad4ffc5587c4c,2021-07-29_22h57.51.232,Simcolourproject_2stim_asymm_v5,2020.2.10,Win32,60,61025ae37ef11b136ea224fe,,,,,,,,,4,-47,-105,1,0,0,response5disk,,3,5,3,1,0,0,rectangle,5,3,1,0,0,5,3,1,0,0,0,87,87,72,1,,,,,,,,
,,,,,,,,,,,,,FF,,,,,,,,0.5188,,,,,,,,,,,,,,,,,,,,,,61022d296d11b07dd50a6793,61036a30236ad4ffc5587c4c,2021-07-29_22h57.51.232,Simcolourproject_2stim_asymm_v5,2020.2.10,Win32,60,61025ae37ef11b136ea224fe,,,,,,,,,2802,117,-51,1,0,0,response3disk,,5,8,13,1,0,0,rectangle,8,13,1,0,0,8,13,1,0,0,0,88,88,103,1,,,,,,,,
,,,,,,,,,,,,,FF,,,,,,,,0.533,,,,,,,,,,,,,,,,,,,,,,61022d296d11b07dd50a6793,61036a30236ad4ffc5587c4c,2021-07-29_22h57.51.232,Simcolourproject_2stim_asymm_v5,2020.2.10,Win32,60,61025ae37ef11b136ea224fe,,,,,,,,,2700,55,-103,1,0,0,response3disk,,4,-3,9,1,0,0,rectangle,-3,9,1,0,0,-3,9,1,0,0,0,89,89,79,1,,,,,,,,
,,,,,,,,,,,,,FF,,,,,,,,1.1471,,,,,,,,,,,,,,,,,,,,,,61022d296d11b07dd50a6793,61036a30236ad4ffc5587c4c,2021-07-29_22h57.51.232,Simcolourproject_2stim_asymm_v5,2020.2.10,Win32,60,61025ae37ef11b136ea224fe,,,,,,,,,894,-52,-108,1,0,0,response5disk,,3,-39,18,1,0,0,rectangle,-39,18,1,0,0,-39,18,1,0,0,0,90,90,36,1,,,,,,,,
,,,,,,,,,,,,,FF,,,,,,,,0.9736,,,,,,,,,,,,,,,,,,,,,,61022d296d11b07dd50a6793,61036a30236ad4ffc5587c4c,2021-07-29_22h57.51.232,Simcolourproject_2stim_asymm_v5,2020.2.10,Win32,60,61025ae37ef11b136ea224fe,,,,,,,,,1804,106,-46,1,0,0,response3disk,,5,25,15,1,0,0,rectangle,25,15,1,0,0,25,15,1,0,0,0,91,91,34,1,,,,,,,,
,,,,,,,,,,,,,FF,,,,,,,,0.4788,,,,,,,,,,,,,,,,,,,,,,61022d296d11b07dd50a6793,61036a30236ad4ffc5587c4c,2021-07-29_22h57.51.232,Simcolourproject_2stim_asymm_v5,2020.2.10,Win32,60,61025ae37ef11b136ea224fe,,,,,,,,,250,74,27,1,0,0,response1disk,,6,-14,-16,1,0,0,rectangle,-14,-16,1,0,0,-14,-16,1,0,0,0,92,92,110,1,,,,,,,,
,,,,,,,,,,,,,FF,,,,,,,,0.9204,,,,,,,,,,,,,,,,,,,,,,61022d296d11b07dd50a6793,61036a30236ad4ffc5587c4c,2021-07-29_22h57.51.232,Simcolourproject_2stim_asymm_v5,2020.2.10,Win32,60,61025ae37ef11b136ea224fe,,,,,,,,,501,67,-105,1,0,0,response3disk,,4,9,13,1,0,0,rectangle,9,13,1,0,0,9,13,1,0,0,0,93,93,101,1,,,,,,,,
,,,,,,,,,,,,,FF,,,,,,,,0.6803,,,,,,,,,,,,,,,,,,,,,,61022d296d11b07dd50a6793,61036a30236ad4ffc5587c4c,2021-07-29_22h57.51.232,Simcolourproject_2stim_asymm_v5,2020.2.10,Win32,60,61025ae37ef11b136ea224fe,,,,,,,,,2370,-59,-94,1,0,0,response5disk,,3,8,13,1,0,0,rectangle,8,13,1,0,0,8,13,1,0,0,0,94,94,146,1,,,,,,,,
,,,,,,,,,,,,,FF,,,,,,,,0.707,,,,,,,,,,,,,,,,,,,,,,61022d296d11b07dd50a6793,61036a30236ad4ffc5587c4c,2021-07-29_22h57.51.232,Simcolourproject_2stim_asymm_v5,2020.2.10,Win32,60,61025ae37ef11b136ea224fe,,,,,,,,,3635,115,68,1,0,0,response1disk,,6,-18,10,1,0,0,rectangle,-18,10,1,0,0,-18,10,1,0,0,0,95,95,127,1,,,,,,,,
,,,,,,,,,,,,,FF,,,,,,,,0.7068,,,,,,,,,,,,,,,,,,,,,,61022d296d11b07dd50a6793,61036a30236ad4ffc5587c4c,2021-07-29_22h57.51.232,Simcolourproject_2stim_asymm_v5,2020.2.10,Win32,60,61025ae37ef11b136ea224fe,,,,,,,,,2490,103,43,1,0,0,response1disk,,6,5,-8,1,0,0,rectangle,5,-8,1,0,0,5,-8,1,0,0,0,96,96,33,1,,,,,,,,
,,,,,,,,,,,,,FF,,,,,,,,1.3071,,,,,,,,,,,,,,,,,,,,,,61022d296d11b07dd50a6793,61036a30236ad4ffc5587c4c,2021-07-29_22h57.51.232,Simcolourproject_2stim_asymm_v5,2020.2.10,Win32,60,61025ae37ef11b136ea224fe,,,,,,,,,1380,65,-103,1,0,0,response3disk,,4,10,-15,1,0,0,rectangle,10,-15,1,0,0,10,-15,1,0,0,0,97,97,53,1,,,,,,,,
,,,,,,,,,,,,,FF,,,,,,,,0.6403,,,,,,,,,,,,,,,,,,,,,,61022d296d11b07dd50a6793,61036a30236ad4ffc5587c4c,2021-07-29_22h57.51.232,Simcolourproject_2stim_asymm_v5,2020.2.10,Win32,60,61025ae37ef11b136ea224fe,,,,,,,,,2999,-39,-87,1,0,0,response5disk,,3,-3,0,1,0,0,rectangle,-3,0,1,0,0,-3,0,1,0,0,0,98,98,20,1,,,,,,,,
,,,,,,,,,,,,,FF,,,,,,,,0.7586,,,,,,,,,,,,,,,,,,,,,,61022d296d11b07dd50a6793,61036a30236ad4ffc5587c4c,2021-07-29_22h57.51.232,Simcolourproject_2stim_asymm_v5,2020.2.10,Win32,60,61025ae37ef11b136ea224fe,,,,,,,,,1034,89,-55,1,0,0,response3disk,,5,7,-1,1,0,0,rectangle,7,-1,1,0,0,7,-1,1,0,0,0,99,99,23,1,,,,,,,,
,,,,,,,,,,,,,FF,,,,,,,,1.5472,,,,,,,,,,,,,,,,,,,,,,61022d296d11b07dd50a6793,61036a30236ad4ffc5587c4c,2021-07-29_22h57.51.232,Simcolourproject_2stim_asymm_v5,2020.2.10,Win32,60,61025ae37ef11b136ea224fe,,,,,,,,,1859,-56,-112,1,0,0,response5disk,,3,19,-3,1,0,0,rectangle,19,-3,1,0,0,19,-3,1,0,0,0,100,100,39,1,,,,,,,,
,,,,,,,,,,,,,FF,,,,,,,,0.9873,,,,,,,,,,,,,,,,,,,,,,61022d296d11b07dd50a6793,61036a30236ad4ffc5587c4c,2021-07-29_22h57.51.232,Simcolourproject_2stim_asymm_v5,2020.2.10,Win32,60,61025ae37ef11b136ea224fe,,,,,,,,,2912,89,-64,1,0,0,response3disk,,5,-2,-12,1,0,0,rectangle,-2,-12,1,0,0,-2,-12,1,0,0,0,101,101,13,1,,,,,,,,
,,,,,,,,,,,,,FF,,,,,,,,1.7207,,,,,,,,,,,,,,,,,,,,,,61022d296d11b07dd50a6793,61036a30236ad4ffc5587c4c,2021-07-29_22h57.51.232,Simcolourproject_2stim_asymm_v5,2020.2.10,Win32,60,61025ae37ef11b136ea224fe,,,,,,,,,3831,42,-98,1,0,0,response3disk,,4,-8,-9,1,0,0,rectangle,-8,-9,1,0,0,-8,-9,1,0,0,0,102,102,159,1,,,,,,,,
,,,,,,,,,,,,,FF,,,,,,,,0.6804,,,,,,,,,,,,,,,,,,,,,,61022d296d11b07dd50a6793,61036a30236ad4ffc5587c4c,2021-07-29_22h57.51.232,Simcolourproject_2stim_asymm_v5,2020.2.10,Win32,60,61025ae37ef11b136ea224fe,,,,,,,,,2939,96,42,1,0,0,response1disk,,6,10,10,1,0,0,rectangle,10,10,1,0,0,10,10,1,0,0,0,103,103,89,1,,,,,,,,
,,,,,,,,,,,,,FF,,,,,,,,1.2127,,,,,,,,,,,,,,,,,,,,,,61022d296d11b07dd50a6793,61036a30236ad4ffc5587c4c,2021-07-29_22h57.51.232,Simcolourproject_2stim_asymm_v5,2020.2.10,Win32,60,61025ae37ef11b136ea224fe,,,,,,,,,1900,49,-96,1,0,0,response3disk,,4,-6,0,1,0,0,rectangle,-6,0,1,0,0,-6,0,1,0,0,0,104,104,59,1,,,,,,,,
,,,,,,,,,,,,,FF,,,,,,,,0.852,,,,,,,,,,,,,,,,,,,,,,61022d296d11b07dd50a6793,61036a30236ad4ffc5587c4c,2021-07-29_22h57.51.232,Simcolourproject_2stim_asymm_v5,2020.2.10,Win32,60,61025ae37ef11b136ea224fe,,,,,,,,,3253,91,35,1,0,0,response1disk,,6,7,0,1,0,0,rectangle,7,0,1,0,0,7,0,1,0,0,0,105,105,66,1,,,,,,,,
,,,,,,,,,,,,,FF,,,,,,,,0.8403,,,,,,,,,,,,,,,,,,,,,,61022d296d11b07dd50a6793,61036a30236ad4ffc5587c4c,2021-07-29_22h57.51.232,Simcolourproject_2stim_asymm_v5,2020.2.10,Win32,60,61025ae37ef11b136ea224fe,,,,,,,,,1897,-82,-52,1,0,0,response5disk,,2,7,3,1,0,0,rectangle,7,3,1,0,0,7,3,1,0,0,0,106,106,145,1,,,,,,,,
,,,,,,,,,,,,,FF,,,,,,,,1.1615,,,,,,,,,,,,,,,,,,,,,,61022d296d11b07dd50a6793,61036a30236ad4ffc5587c4c,2021-07-29_22h57.51.232,Simcolourproject_2stim_asymm_v5,2020.2.10,Win32,60,61025ae37ef11b136ea224fe,,,,,,,,,3597,-76,28,1,0,0,response7disk,,1,-15,19,1,0,0,rectangle,-15,19,1,0,0,-15,19,1,0,0,0,107,107,107,1,,,,,,,,
,,,,,,,,,,,,,FF,,,,,,,,0.587,,,,,,,,,,,,,,,,,,,,,,61022d296d11b07dd50a6793,61036a30236ad4ffc5587c4c,2021-07-29_22h57.51.232,Simcolourproject_2stim_asymm_v5,2020.2.10,Win32,60,61025ae37ef11b136ea224fe,,,,,,,,,3007,-95,42,1,0,0,response7disk,,1,7,-6,1,0,0,rectangle,7,-6,1,0,0,7,-6,1,0,0,0,108,108,74,1,,,,,,,,
,,,,,,,,,,,,,FF,,,,,,,,0.6988,,,,,,,,,,,,,,,,,,,,,,61022d296d11b07dd50a6793,61036a30236ad4ffc5587c4c,2021-07-29_22h57.51.232,Simcolourproject_2stim_asymm_v5,2020.2.10,Win32,60,61025ae37ef11b136ea224fe,,,,,,,,,3361,85,-40,1,0,0,response3disk,,5,-2,-2,1,0,0,rectangle,-2,-2,1,0,0,-2,-2,1,0,0,0,109,109,61,1,,,,,,,,
,,,,,,,,,,,,,FF,,,,,,,,0.6402,,,,,,,,,,,,,,,,,,,,,,61022d296d11b07dd50a6793,61036a30236ad4ffc5587c4c,2021-07-29_22h57.51.232,Simcolourproject_2stim_asymm_v5,2020.2.10,Win32,60,61025ae37ef11b136ea224fe,,,,,,,,,187,69,-101,1,0,0,response3disk,,4,10,-8,1,0,0,rectangle,10,-8,1,0,0,10,-8,1,0,0,0,110,110,98,1,,,,,,,,
,,,,,,,,,,,,,FF,,,,,,,,0.8402,,,,,,,,,,,,,,,,,,,,,,61022d296d11b07dd50a6793,61036a30236ad4ffc5587c4c,2021-07-29_22h57.51.232,Simcolourproject_2stim_asymm_v5,2020.2.10,Win32,60,61025ae37ef11b136ea224fe,,,,,,,,,2359,-72,-87,1,0,0,response5disk,,3,-25,-14,1,0,0,rectangle,-25,-14,1,0,0,-25,-14,1,0,0,0,111,111,63,1,,,,,,,,
,,,,,,,,,,,,,FF,,,,,,,,0.9471,,,,,,,,,,,,,,,,,,,,,,61022d296d11b07dd50a6793,61036a30236ad4ffc5587c4c,2021-07-29_22h57.51.232,Simcolourproject_2stim_asymm_v5,2020.2.10,Win32,60,61025ae37ef11b136ea224fe,,,,,,,,,1253,83,38,1,0,0,response1disk,,6,-1,-12,1,0,0,rectangle,-1,-12,1,0,0,-1,-12,1,0,0,0,112,112,152,1,,,,,,,,
,,,,,,,,,,,,,FF,,,,,,,,0.6085,,,,,,,,,,,,,,,,,,,,,,61022d296d11b07dd50a6793,61036a30236ad4ffc5587c4c,2021-07-29_22h57.51.232,Simcolourproject_2stim_asymm_v5,2020.2.10,Win32,60,61025ae37ef11b136ea224fe,,,,,,,,,1481,91,-44,1,0,0,response3disk,,5,6,-3,1,0,0,rectangle,6,-3,1,0,0,6,-3,1,0,0,0,113,113,87,1,,,,,,,,
,,,,,,,,,,,,,FF,,,,,,,,0.6671,,,,,,,,,,,,,,,,,,,,,,61022d296d11b07dd50a6793,61036a30236ad4ffc5587c4c,2021-07-29_22h57.51.232,Simcolourproject_2stim_asymm_v5,2020.2.10,Win32,60,61025ae37ef11b136ea224fe,,,,,,,,,4006,52,-99,1,0,0,response3disk,,4,-2,0,1,0,0,rectangle,-2,0,1,0,0,-2,0,1,0,0,0,114,114,45,1,,,,,,,,
,,,,,,,,,,,,,FF,,,,,,,,1.4184,,,,,,,,,,,,,,,,,,,,,,61022d296d11b07dd50a6793,61036a30236ad4ffc5587c4c,2021-07-29_22h57.51.232,Simcolourproject_2stim_asymm_v5,2020.2.10,Win32,60,61025ae37ef11b136ea224fe,,,,,,,,,2058,48,-86,1,0,0,response3disk,,4,2,-1,1,0,0,rectangle,2,-1,1,0,0,2,-1,1,0,0,0,115,115,139,1,,,,,,,,
,,,,,,,,,,,,,FF,,,,,,,,2.0937,,,,,,,,,,,,,,,,,,,,,,61022d296d11b07dd50a6793,61036a30236ad4ffc5587c4c,2021-07-29_22h57.51.232,Simcolourproject_2stim_asymm_v5,2020.2.10,Win32,60,61025ae37ef11b136ea224fe,,,,,,,,,1998,88,43,1,0,0,response1disk,,6,2,-1,1,0,0,rectangle,2,-1,1,0,0,2,-1,1,0,0,0,116,116,32,1,,,,,,,,
,,,,,,,,,,,,,FF,,,,,,,,1.0137,,,,,,,,,,,,,,,,,,,,,,61022d296d11b07dd50a6793,61036a30236ad4ffc5587c4c,2021-07-29_22h57.51.232,Simcolourproject_2stim_asymm_v5,2020.2.10,Win32,60,61025ae37ef11b136ea224fe,,,,,,,,,2054,53,-111,1,0,0,response3disk,,4,-19,3,1,0,0,rectangle,-19,3,1,0,0,-19,3,1,0,0,0,117,117,81,1,,,,,,,,
,,,,,,,,,,,,,FF,,,,,,,,1.6672,,,,,,,,,,,,,,,,,,,,,,61022d296d11b07dd50a6793,61036a30236ad4ffc5587c4c,2021-07-29_22h57.51.232,Simcolourproject_2stim_asymm_v5,2020.2.10,Win32,60,61025ae37ef11b136ea224fe,,,,,,,,,2456,-48,-78,1,0,0,response5disk,,3,-1,0,1,0,0,rectangle,-1,0,1,0,0,-1,0,1,0,0,0,118,118,42,1,,,,,,,,
,,,,,,,,,,,,,FF,,,,,,,,0.9331,,,,,,,,,,,,,,,,,,,,,,61022d296d11b07dd50a6793,61036a30236ad4ffc5587c4c,2021-07-29_22h57.51.232,Simcolourproject_2stim_asymm_v5,2020.2.10,Win32,60,61025ae37ef11b136ea224fe,,,,,,,,,1654,100,-69,1,0,0,response3disk,,5,-4,-7,1,0,0,rectangle,-4,-7,1,0,0,-4,-7,1,0,0,0,119,119,99,1,,,,,,,,
,,,,,,,,,,,,,FF,,,,,,,,0.4134,,,,,,,,,,,,,,,,,,,,,,61022d296d11b07dd50a6793,61036a30236ad4ffc5587c4c,2021-07-29_22h57.51.232,Simcolourproject_2stim_asymm_v5,2020.2.10,Win32,60,61025ae37ef11b136ea224fe,,,,,,,,,4050,104,-110,1,0,0,response3disk,,4,20,-9,1,0,0,rectangle,20,-9,1,0,0,20,-9,1,0,0,0,120,120,82,1,,,,,,,,
,,,,,,,,,,,,,FF,,,,,,,,0.8406,,,,,,,,,,,,,,,,,,,,,,61022d296d11b07dd50a6793,61036a30236ad4ffc5587c4c,2021-07-29_22h57.51.232,Simcolourproject_2stim_asymm_v5,2020.2.10,Win32,60,61025ae37ef11b136ea224fe,,,,,,,,,649,107,40,1,0,0,response1disk,,6,7,-2,1,0,0,rectangle,7,-2,1,0,0,7,-2,1,0,0,0,121,121,109,1,,,,,,,,
,,,,,,,,,,,,,FF,,,,,,,,0.5019,,,,,,,,,,,,,,,,,,,,,,61022d296d11b07dd50a6793,61036a30236ad4ffc5587c4c,2021-07-29_22h57.51.232,Simcolourproject_2stim_asymm_v5,2020.2.10,Win32,60,61025ae37ef11b136ea224fe,,,,,,,,,1591,61,-113,1,0,0,response3disk,,4,1,3,1,0,0,rectangle,1,3,1,0,0,1,3,1,0,0,0,122,122,48,1,,,,,,,,
,,,,,,,,,,,,,FF,,,,,,,,0.4666,,,,,,,,,,,,,,,,,,,,,,61022d296d11b07dd50a6793,61036a30236ad4ffc5587c4c,2021-07-29_22h57.51.232,Simcolourproject_2stim_asymm_v5,2020.2.10,Win32,60,61025ae37ef11b136ea224fe,,,,,,,,,2212,96,35,1,0,0,response1disk,,6,28,-1,1,0,0,rectangle,28,-1,1,0,0,28,-1,1,0,0,0,123,123,142,1,,,,,,,,
,,,,,,,,,,,,,FF,,,,,,,,0.6138,,,,,,,,,,,,,,,,,,,,,,61022d296d11b07dd50a6793,61036a30236ad4ffc5587c4c,2021-07-29_22h57.51.232,Simcolourproject_2stim_asymm_v5,2020.2.10,Win32,60,61025ae37ef11b136ea224fe,,,,,,,,,1108,70,-107,1,0,0,response3disk,,4,0,-3,1,0,0,rectangle,0,-3,1,0,0,0,-3,1,0,0,0,124,124,80,1,,,,,,,,
,,,,,,,,,,,,,FF,,,,,,,,0.6821,,,,,,,,,,,,,,,,,,,,,,61022d296d11b07dd50a6793,61036a30236ad4ffc5587c4c,2021-07-29_22h57.51.232,Simcolourproject_2stim_asymm_v5,2020.2.10,Win32,60,61025ae37ef11b136ea224fe,,,,,,,,,227,84,32,1,0,0,response1disk,,6,22,0,1,0,0,rectangle,22,0,1,0,0,22,0,1,0,0,0,125,125,12,1,,,,,,,,
,,,,,,,,,,,,,FF,,,,,,,,0.4287,,,,,,,,,,,,,,,,,,,,,,61022d296d11b07dd50a6793,61036a30236ad4ffc5587c4c,2021-07-29_22h57.51.232,Simcolourproject_2stim_asymm_v5,2020.2.10,Win32,60,61025ae37ef11b136ea224fe,,,,,,,,,25,81,-49,1,0,0,response3disk,,5,14,-4,1,0,0,rectangle,14,-4,1,0,0,14,-4,1,0,0,0,126,126,31,1,,,,,,,,
,,,,,,,,,,,,,FF,,,,,,,,0.827,,,,,,,,,,,,,,,,,,,,,,61022d296d11b07dd50a6793,61036a30236ad4ffc5587c4c,2021-07-29_22h57.51.232,Simcolourproject_2stim_asymm_v5,2020.2.10,Win32,60,61025ae37ef11b136ea224fe,,,,,,,,,3941,-52,-88,1,0,0,response5disk,,3,-20,12,1,0,0,rectangle,-20,12,1,0,0,-20,12,1,0,0,0,127,127,65,1,,,,,,,,
,,,,,,,,,,,,,FF,,,,,,,,0.5868,,,,,,,,,,,,,,,,,,,,,,61022d296d11b07dd50a6793,61036a30236ad4ffc5587c4c,2021-07-29_22h57.51.232,Simcolourproject_2stim_asymm_v5,2020.2.10,Win32,60,61025ae37ef11b136ea224fe,,,,,,,,,4206,-52,-38,1,0,0,response5disk,,2,-10,10,1,0,0,rectangle,-10,10,1,0,0,-10,10,1,0,0,0,128,128,112,1,,,,,,,,
,,,,,,,,,,,,,FF,,,,,,,,1.1203,,,,,,,,,,,,,,,,,,,,,,61022d296d11b07dd50a6793,61036a30236ad4ffc5587c4c,2021-07-29_22h57.51.232,Simcolourproject_2stim_asymm_v5,2020.2.10,Win32,60,61025ae37ef11b136ea224fe,,,,,,,,,411,109,-45,1,0,0,response3disk,,5,5,3,1,0,0,rectangle,5,3,1,0,0,5,3,1,0,0,0,129,129,111,1,,,,,,,,
,,,,,,,,,,,,,FF,,,,,,,,0.8226,,,,,,,,,,,,,,,,,,,,,,61022d296d11b07dd50a6793,61036a30236ad4ffc5587c4c,2021-07-29_22h57.51.232,Simcolourproject_2stim_asymm_v5,2020.2.10,Win32,60,61025ae37ef11b136ea224fe,,,,,,,,,173,-22,-83,1,0,0,response5disk,,3,12,-4,1,0,0,rectangle,12,-4,1,0,0,12,-4,1,0,0,0,130,130,122,1,,,,,,,,
,,,,,,,,,,,,,FF,,,,,,,,0.4669,,,,,,,,,,,,,,,,,,,,,,61022d296d11b07dd50a6793,61036a30236ad4ffc5587c4c,2021-07-29_22h57.51.232,Simcolourproject_2stim_asymm_v5,2020.2.10,Win32,60,61025ae37ef11b136ea224fe,,,,,,,,,4069,47,-74,1,0,0,response3disk,,4,12,-8,1,0,0,rectangle,12,-8,1,0,0,12,-8,1,0,0,0,131,131,132,1,,,,,,,,
,,,,,,,,,,,,,FF,,,,,,,,0.8537,,,,,,,,,,,,,,,,,,,,,,61022d296d11b07dd50a6793,61036a30236ad4ffc5587c4c,2021-07-29_22h57.51.232,Simcolourproject_2stim_asymm_v5,2020.2.10,Win32,60,61025ae37ef11b136ea224fe,,,,,,,,,1224,61,25,1,0,0,response1disk,,6,21,-3,1,0,0,rectangle,21,-3,1,0,0,21,-3,1,0,0,0,132,132,135,1,,,,,,,,
,,,,,,,,,,,,,FF,,,,,,,,0.6003,,,,,,,,,,,,,,,,,,,,,,61022d296d11b07dd50a6793,61036a30236ad4ffc5587c4c,2021-07-29_22h57.51.232,Simcolourproject_2stim_asymm_v5,2020.2.10,Win32,60,61025ae37ef11b136ea224fe,,,,,,,,,2662,-63,-38,1,0,0,response5disk,,2,-7,12,1,0,0,rectangle,-7,12,1,0,0,-7,12,1,0,0,0,133,133,25,1,,,,,,,,
,,,,,,,,,,,,,FF,,,,,,,,0.747,,,,,,,,,,,,,,,,,,,,,,61022d296d11b07dd50a6793,61036a30236ad4ffc5587c4c,2021-07-29_22h57.51.232,Simcolourproject_2stim_asymm_v5,2020.2.10,Win32,60,61025ae37ef11b136ea224fe,,,,,,,,,1080,72,-41,1,0,0,response3disk,,5,-20,17,1,0,0,rectangle,-20,17,1,0,0,-20,17,1,0,0,0,134,134,96,1,,,,,,,,
,,,,,,,,,,,,,FF,,,,,,,,0.6786,,,,,,,,,,,,,,,,,,,,,,61022d296d11b07dd50a6793,61036a30236ad4ffc5587c4c,2021-07-29_22h57.51.232,Simcolourproject_2stim_asymm_v5,2020.2.10,Win32,60,61025ae37ef11b136ea224fe,,,,,,,,,2536,42,-79,1,0,0,response3disk,,4,1,-6,1,0,0,rectangle,1,-6,1,0,0,1,-6,1,0,0,0,135,135,19,1,,,,,,,,
,,,,,,,,,,,,,FF,,,,,,,,0.4935,,,,,,,,,,,,,,,,,,,,,,61022d296d11b07dd50a6793,61036a30236ad4ffc5587c4c,2021-07-29_22h57.51.232,Simcolourproject_2stim_asymm_v5,2020.2.10,Win32,60,61025ae37ef11b136ea224fe,,,,,,,,,1802,78,46,1,0,0,response1disk,,6,30,16,1,0,0,rectangle,30,16,1,0,0,30,16,1,0,0,0,136,136,60,1,,,,,,,,
,,,,,,,,,,,,,FF,,,,,,,,0.8005,,,,,,,,,,,,,,,,,,,,,,61022d296d11b07dd50a6793,61036a30236ad4ffc5587c4c,2021-07-29_22h57.51.232,Simcolourproject_2stim_asymm_v5,2020.2.10,Win32,60,61025ae37ef11b136ea224fe,,,,,,,,,3035,53,-86,1,0,0,response3disk,,4,15,-8,1,0,0,rectangle,15,-8,1,0,0,15,-8,1,0,0,0,137,137,2,1,,,,,,,,
,,,,,,,,,,,,,FF,,,,,,,,1.0807,,,,,,,,,,,,,,,,,,,,,,61022d296d11b07dd50a6793,61036a30236ad4ffc5587c4c,2021-07-29_22h57.51.232,Simcolourproject_2stim_asymm_v5,2020.2.10,Win32,60,61025ae37ef11b136ea224fe,,,,,,,,,315,82,54,1,0,0,response1disk,,6,36,7,1,0,0,rectangle,36,7,1,0,0,36,7,1,0,0,0,138,138,138,1,,,,,,,,
,,,,,,,,,,,,,FF,,,,,,,,0.4673,,,,,,,,,,,,,,,,,,,,,,61022d296d11b07dd50a6793,61036a30236ad4ffc5587c4c,2021-07-29_22h57.51.232,Simcolourproject_2stim_asymm_v5,2020.2.10,Win32,60,61025ae37ef11b136ea224fe,,,,,,,,,1499,117,-71,1,0,0,response3disk,,5,-2,-8,1,0,0,rectangle,-2,-8,1,0,0,-2,-8,1,0,0,0,139,139,147,1,,,,,,,,
,,,,,,,,,,,,,FF,,,,,,,,0.3601,,,,,,,,,,,,,,,,,,,,,,61022d296d11b07dd50a6793,61036a30236ad4ffc5587c4c,2021-07-29_22h57.51.232,Simcolourproject_2stim_asymm_v5,2020.2.10,Win32,60,61025ae37ef11b136ea224fe,,,,,,,,,3580,53,-111,1,0,0,response3disk,,4,-14,-6,1,0,0,rectangle,-14,-6,1,0,0,-14,-6,1,0,0,0,140,140,27,1,,,,,,,,
,,,,,,,,,,,,,FF,,,,,,,,0.827,,,,,,,,,,,,,,,,,,,,,,61022d296d11b07dd50a6793,61036a30236ad4ffc5587c4c,2021-07-29_22h57.51.232,Simcolourproject_2stim_asymm_v5,2020.2.10,Win32,60,61025ae37ef11b136ea224fe,,,,,,,,,888,-76,-44,1,0,0,response5disk,,2,-40,-5,1,0,0,rectangle,-40,-5,1,0,0,-40,-5,1,0,0,0,141,141,37,1,,,,,,,,
,,,,,,,,,,,,,FF,,,,,,,,0.7158,,,,,,,,,,,,,,,,,,,,,,61022d296d11b07dd50a6793,61036a30236ad4ffc5587c4c,2021-07-29_22h57.51.232,Simcolourproject_2stim_asymm_v5,2020.2.10,Win32,60,61025ae37ef11b136ea224fe,,,,,,,,,2263,-69,-93,1,0,0,response5disk,,3,20,-3,1,0,0,rectangle,20,-3,1,0,0,20,-3,1,0,0,0,142,142,113,1,,,,,,,,
,,,,,,,,,,,,,FF,,,,,,,,0.5054,,,,,,,,,,,,,,,,,,,,,,61022d296d11b07dd50a6793,61036a30236ad4ffc5587c4c,2021-07-29_22h57.51.232,Simcolourproject_2stim_asymm_v5,2020.2.10,Win32,60,61025ae37ef11b136ea224fe,,,,,,,,,3656,76,-87,1,0,0,response3disk,,4,20,0,1,0,0,rectangle,20,0,1,0,0,20,0,1,0,0,0,143,143,78,1,,,,,,,,
,,,,,,,,,,,,,FF,,,,,,,,0.9396,,,,,,,,,,,,,,,,,,,,,,61022d296d11b07dd50a6793,61036a30236ad4ffc5587c4c,2021-07-29_22h57.51.232,Simcolourproject_2stim_asymm_v5,2020.2.10,Win32,60,61025ae37ef11b136ea224fe,,,,,,,,,1475,56,37,1,0,0,response1disk,,6,27,6,1,0,0,rectangle,27,6,1,0,0,27,6,1,0,0,0,144,144,71,1,,,,,,,,
,,,,,,,,,,,,,FF,,,,,,,,0.9603,,,,,,,,,,,,,,,,,,,,,,61022d296d11b07dd50a6793,61036a30236ad4ffc5587c4c,2021-07-29_22h57.51.232,Simcolourproject_2stim_asymm_v5,2020.2.10,Win32,60,61025ae37ef11b136ea224fe,,,,,,,,,3783,-98,-55,1,0,0,response5disk,,2,-29,2,1,0,0,rectangle,-29,2,1,0,0,-29,2,1,0,0,0,145,145,125,1,,,,,,,,
,,,,,,,,,,,,,FF,,,,,,,,2.4008,,,,,,,,,,,,,,,,,,,,,,61022d296d11b07dd50a6793,61036a30236ad4ffc5587c4c,2021-07-29_22h57.51.232,Simcolourproject_2stim_asymm_v5,2020.2.10,Win32,60,61025ae37ef11b136ea224fe,,,,,,,,,3662,-62,-38,1,0,0,response5disk,,2,-13,1,1,0,0,rectangle,-13,1,1,0,0,-13,1,1,0,0,0,146,146,44,1,,,,,,,,
,,,,,,,,,,,,,FF,,,,,,,,0.6268,,,,,,,,,,,,,,,,,,,,,,61022d296d11b07dd50a6793,61036a30236ad4ffc5587c4c,2021-07-29_22h57.51.232,Simcolourproject_2stim_asymm_v5,2020.2.10,Win32,60,61025ae37ef11b136ea224fe,,,,,,,,,3038,-61,-33,1,0,0,response5disk,,2,-6,-3,1,0,0,rectangle,-6,-3,1,0,0,-6,-3,1,0,0,0,147,147,86,1,,,,,,,,
,,,,,,,,,,,,,FF,,,,,,,,0.4936,,,,,,,,,,,,,,,,,,,,,,61022d296d11b07dd50a6793,61036a30236ad4ffc5587c4c,2021-07-29_22h57.51.232,Simcolourproject_2stim_asymm_v5,2020.2.10,Win32,60,61025ae37ef11b136ea224fe,,,,,,,,,2916,-36,-80,1,0,0,response5disk,,3,6,-4,1,0,0,rectangle,6,-4,1,0,0,6,-4,1,0,0,0,148,148,123,1,,,,,,,,
,,,,,,,,,,,,,FF,,,,,,,,0.4935,,,,,,,,,,,,,,,,,,,,,,61022d296d11b07dd50a6793,61036a30236ad4ffc5587c4c,2021-07-29_22h57.51.232,Simcolourproject_2stim_asymm_v5,2020.2.10,Win32,60,61025ae37ef11b136ea224fe,,,,,,,,,1531,36,-76,1,0,0,response3disk,,4,-3,-5,1,0,0,rectangle,-3,-5,1,0,0,-3,-5,1,0,0,0,149,149,129,1,,,,,,,,
,,,,,,,,,,,,,FF,,,,,,,,1.3323,,,,,,,,,,,,,,,,,,,,,,61022d296d11b07dd50a6793,61036a30236ad4ffc5587c4c,2021-07-29_22h57.51.232,Simcolourproject_2stim_asymm_v5,2020.2.10,Win32,60,61025ae37ef11b136ea224fe,,,,,,,,,1758,36,-81,1,0,0,response3disk,,4,-23,6,1,0,0,rectangle,-23,6,1,0,0,-23,6,1,0,0,0,150,150,115,1,,,,,,,,
,,,,,,,,,,,,,FF,,,,,,,,0.6673,,,,,,,,,,,,,,,,,,,,,,61022d296d11b07dd50a6793,61036a30236ad4ffc5587c4c,2021-07-29_22h57.51.232,Simcolourproject_2stim_asymm_v5,2020.2.10,Win32,60,61025ae37ef11b136ea224fe,,,,,,,,,3989,123,-36,1,0,0,response3disk,,5,0,15,1,0,0,rectangle,0,15,1,0,0,0,15,1,0,0,0,151,151,75,1,,,,,,,,
,,,,,,,,,,,,,FF,,,,,,,,0.7603,,,,,,,,,,,,,,,,,,,,,,61022d296d11b07dd50a6793,61036a30236ad4ffc5587c4c,2021-07-29_22h57.51.232,Simcolourproject_2stim_asymm_v5,2020.2.10,Win32,60,61025ae37ef11b136ea224fe,,,,,,,,,3382,-94,-41,1,0,0,response5disk,,2,6,-2,1,0,0,rectangle,6,-2,1,0,0,6,-2,1,0,0,0,152,152,92,1,,,,,,,,
,,,,,,,,,,,,,FF,,,,,,,,0.7563,,,,,,,,,,,,,,,,,,,,,,61022d296d11b07dd50a6793,61036a30236ad4ffc5587c4c,2021-07-29_22h57.51.232,Simcolourproject_2stim_asymm_v5,2020.2.10,Win32,60,61025ae37ef11b136ea224fe,,,,,,,,,2026,-76,-26,1,0,0,response5disk,,2,-6,-11,1,0,0,rectangle,-6,-11,1,0,0,-6,-11,1,0,0,0,153,153,70,1,,,,,,,,
,,,,,,,,,,,,,FF,,,,,,,,1.2895,,,,,,,,,,,,,,,,,,,,,,61022d296d11b07dd50a6793,61036a30236ad4ffc5587c4c,2021-07-29_22h57.51.232,Simcolourproject_2stim_asymm_v5,2020.2.10,Win32,60,61025ae37ef11b136ea224fe,,,,,,,,,4185,-37,-93,1,0,0,response5disk,,3,3,-6,1,0,0,rectangle,3,-6,1,0,0,3,-6,1,0,0,0,154,154,104,1,,,,,,,,
,,,,,,,,,,,,,FF,,,,,,,,1.0003,,,,,,,,,,,,,,,,,,,,,,61022d296d11b07dd50a6793,61036a30236ad4ffc5587c4c,2021-07-29_22h57.51.232,Simcolourproject_2stim_asymm_v5,2020.2.10,Win32,60,61025ae37ef11b136ea224fe,,,,,,,,,725,84,-68,1,0,0,response3disk,,5,-8,-12,1,0,0,rectangle,-8,-12,1,0,0,-8,-12,1,0,0,0,155,155,154,1,,,,,,,,
,,,,,,,,,,,,,FF,,,,,,,,1.0803,,,,,,,,,,,,,,,,,,,,,,61022d296d11b07dd50a6793,61036a30236ad4ffc5587c4c,2021-07-29_22h57.51.232,Simcolourproject_2stim_asymm_v5,2020.2.10,Win32,60,61025ae37ef11b136ea224fe,,,,,,,,,3758,98,52,1,0,0,response1disk,,6,27,-10,1,0,0,rectangle,27,-10,1,0,0,27,-10,1,0,0,0,156,156,149,1,,,,,,,,
,,,,,,,,,,,,,FF,,,,,,,,0.9337,,,,,,,,,,,,,,,,,,,,,,61022d296d11b07dd50a6793,61036a30236ad4ffc5587c4c,2021-07-29_22h57.51.232,Simcolourproject_2stim_asymm_v5,2020.2.10,Win32,60,61025ae37ef11b136ea224fe,,,,,,,,,3160,81,-30,1,0,0,response3disk,,5,9,-5,1,0,0,rectangle,9,-5,1,0,0,9,-5,1,0,0,0,157,157,49,1,,,,,,,,
,,,,,,,,,,,,,FF,,,,,,,,4.3253,,,,,,,,,,,,,,,,,,,,,,61022d296d11b07dd50a6793,61036a30236ad4ffc5587c4c,2021-07-29_22h57.51.232,Simcolourproject_2stim_asymm_v5,2020.2.10,Win32,60,61025ae37ef11b136ea224fe,,,,,,,,,1742,-56,-94,1,0,0,response5disk,,3,-18,8,1,0,0,rectangle,-18,8,1,0,0,-18,8,1,0,0,0,158,158,119,1,,,,,,,,
,,,,,,,,,,,,,FF,,,,,,,,2.4499,,,,,,,,,,,,,,,,,,,,,,61022d296d11b07dd50a6793,61036a30236ad4ffc5587c4c,2021-07-29_22h57.51.232,Simcolourproject_2stim_asymm_v5,2020.2.10,Win32,60,61025ae37ef11b136ea224fe,,,,,,,,,1177,55,-127,1,0,0,response3disk,,4,-14,5,1,0,0,rectangle,-14,5,1,0,0,-14,5,1,0,0,0,159,159,17,1,,,,,,,,
,,,,,,,,,,,,,FF,,,,,,,,1.4008,,,,,,,,,,,,,,,,,,,,,,61022d296d11b07dd50a6793,61036a30236ad4ffc5587c4c,2021-07-29_22h57.51.232,Simcolourproject_2stim_asymm_v5,2020.2.10,Win32,60,61025ae37ef11b136ea224fe,,,,,,,,,2840,39,-108,1,0,0,response3disk,,4,8,-7,1,0,0,rectangle,8,-7,1,0,0,8,-7,1,0,0,1,0,160,33,1,,,,,,,,
,,,,,,,,,,,,,FF,,,,,,,,3.4279,,,,,,,,,,,,,,,,,,,,,,61022d296d11b07dd50a6793,61036a30236ad4ffc5587c4c,2021-07-29_22h57.51.232,Simcolourproject_2stim_asymm_v5,2020.2.10,Win32,60,61025ae37ef11b136ea224fe,,,,,,,,,1622,134,-85,1,0,0,response3disk,,5,8,-10,1,0,0,rectangle,8,-10,1,0,0,8,-10,1,0,0,1,1,161,72,1,,,,,,,,
,,,,,,,,,,,,,FF,,,,,,,,0.5202,,,,,,,,,,,,,,,,,,,,,,61022d296d11b07dd50a6793,61036a30236ad4ffc5587c4c,2021-07-29_22h57.51.232,Simcolourproject_2stim_asymm_v5,2020.2.10,Win32,60,61025ae37ef11b136ea224fe,,,,,,,,,505,117,-68,1,0,0,response3disk,,5,6,20,1,0,0,rectangle,6,20,1,0,0,6,20,1,0,0,1,2,162,78,1,,,,,,,,
,,,,,,,,,,,,,FF,,,,,,,,0.4003,,,,,,,,,,,,,,,,,,,,,,61022d296d11b07dd50a6793,61036a30236ad4ffc5587c4c,2021-07-29_22h57.51.232,Simcolourproject_2stim_asymm_v5,2020.2.10,Win32,60,61025ae37ef11b136ea224fe,,,,,,,,,4012,122,40,1,0,0,response1disk,,6,-10,11,1,0,0,rectangle,-10,11,1,0,0,-10,11,1,0,0,1,3,163,104,1,,,,,,,,
,,,,,,,,,,,,,FF,,,,,,,,0.3382,,,,,,,,,,,,,,,,,,,,,,61022d296d11b07dd50a6793,61036a30236ad4ffc5587c4c,2021-07-29_22h57.51.232,Simcolourproject_2stim_asymm_v5,2020.2.10,Win32,60,61025ae37ef11b136ea224fe,,,,,,,,,1779,112,-86,1,0,0,response3disk,,5,6,-3,1,0,0,rectangle,6,-3,1,0,0,6,-3,1,0,0,1,4,164,0,1,,,,,,,,
,,,,,,,,,,,,,FF,,,,,,,,0.4005,,,,,,,,,,,,,,,,,,,,,,61022d296d11b07dd50a6793,61036a30236ad4ffc5587c4c,2021-07-29_22h57.51.232,Simcolourproject_2stim_asymm_v5,2020.2.10,Win32,60,61025ae37ef11b136ea224fe,,,,,,,,,3813,62,-97,1,0,0,response3disk,,4,-36,13,1,0,0,rectangle,-36,13,1,0,0,-36,13,1,0,0,1,5,165,98,1,,,,,,,,
,,,,,,,,,,,,,FF,,,,,,,,0.4935,,,,,,,,,,,,,,,,,,,,,,61022d296d11b07dd50a6793,61036a30236ad4ffc5587c4c,2021-07-29_22h57.51.232,Simcolourproject_2stim_asymm_v5,2020.2.10,Win32,60,61025ae37ef11b136ea224fe,,,,,,,,,109,-23,-77,1,0,0,response5disk,,3,-30,5,1,0,0,rectangle,-30,5,1,0,0,-30,5,1,0,0,1,6,166,117,1,,,,,,,,
,,,,,,,,,,,,,FF,,,,,,,,0.4802,,,,,,,,,,,,,,,,,,,,,,61022d296d11b07dd50a6793,61036a30236ad4ffc5587c4c,2021-07-29_22h57.51.232,Simcolourproject_2stim_asymm_v5,2020.2.10,Win32,60,61025ae37ef11b136ea224fe,,,,,,,,,3560,71,-51,1,0,0,response3disk,,5,5,11,1,0,0,rectangle,5,11,1,0,0,5,11,1,0,0,1,7,167,107,1,,,,,,,,
,,,,,,,,,,,,,FF,,,,,,,,0.4981,,,,,,,,,,,,,,,,,,,,,,61022d296d11b07dd50a6793,61036a30236ad4ffc5587c4c,2021-07-29_22h57.51.232,Simcolourproject_2stim_asymm_v5,2020.2.10,Win32,60,61025ae37ef11b136ea224fe,,,,,,,,,2266,50,-79,1,0,0,response3disk,,4,22,-19,1,0,0,rectangle,22,-19,1,0,0,22,-19,1,0,0,1,8,168,141,1,,,,,,,,
,,,,,,,,,,,,,FF,,,,,,,,0.8145,,,,,,,,,,,,,,,,,,,,,,61022d296d11b07dd50a6793,61036a30236ad4ffc5587c4c,2021-07-29_22h57.51.232,Simcolourproject_2stim_asymm_v5,2020.2.10,Win32,60,61025ae37ef11b136ea224fe,,,,,,,,,3839,92,-50,1,0,0,response3disk,,5,3,5,1,0,0,rectangle,3,5,1,0,0,3,5,1,0,0,1,9,169,55,1,,,,,,,,
,,,,,,,,,,,,,FF,,,,,,,,0.6537,,,,,,,,,,,,,,,,,,,,,,61022d296d11b07dd50a6793,61036a30236ad4ffc5587c4c,2021-07-29_22h57.51.232,Simcolourproject_2stim_asymm_v5,2020.2.10,Win32,60,61025ae37ef11b136ea224fe,,,,,,,,,1778,75,-44,1,0,0,response3disk,,5,-13,4,1,0,0,rectangle,-13,4,1,0,0,-13,4,1,0,0,1,10,170,47,1,,,,,,,,
,,,,,,,,,,,,,FF,,,,,,,,0.9933,,,,,,,,,,,,,,,,,,,,,,61022d296d11b07dd50a6793,61036a30236ad4ffc5587c4c,2021-07-29_22h57.51.232,Simcolourproject_2stim_asymm_v5,2020.2.10,Win32,60,61025ae37ef11b136ea224fe,,,,,,,,,2276,76,-54,1,0,0,response3disk,,5,-27,-15,1,0,0,rectangle,-27,-15,1,0,0,-27,-15,1,0,0,1,11,171,9,1,,,,,,,,
,,,,,,,,,,,,,FF,,,,,,,,0.8044,,,,,,,,,,,,,,,,,,,,,,61022d296d11b07dd50a6793,61036a30236ad4ffc5587c4c,2021-07-29_22h57.51.232,Simcolourproject_2stim_asymm_v5,2020.2.10,Win32,60,61025ae37ef11b136ea224fe,,,,,,,,,3494,76,33,1,0,0,response1disk,,6,0,6,1,0,0,rectangle,75,-122,1,0,0,14,-2,1,0,0,1,12,172,102,1,,response3disk_3,TRUE,4,4,"[64,8,219,85,173,218,68,320,14,12,222,177,290,15,57,303,294,19,7,245]",1.801,rectangle
,,,,,,,,,,,,,FF,,,,,,,,0.7605,,,,,,,,,,,,,,,,,,,,,,61022d296d11b07dd50a6793,61036a30236ad4ffc5587c4c,2021-07-29_22h57.51.232,Simcolourproject_2stim_asymm_v5,2020.2.10,Win32,60,61025ae37ef11b136ea224fe,,,,,,,,,239,124,44,1,0,0,response1disk,,6,5,-5,1,0,0,rectangle,5,-5,1,0,0,5,-5,1,0,0,1,13,173,158,1,,,,,,,,
,,,,,,,,,,,,,FF,,,,,,,,1.3322,,,,,,,,,,,,,,,,,,,,,,61022d296d11b07dd50a6793,61036a30236ad4ffc5587c4c,2021-07-29_22h57.51.232,Simcolourproject_2stim_asymm_v5,2020.2.10,Win32,60,61025ae37ef11b136ea224fe,,,,,,,,,2865,156,-52,1,0,0,response3disk,,5,8,3,1,0,0,rectangle,8,3,1,0,0,8,3,1,0,0,1,14,174,136,1,,,,,,,,
,,,,,,,,,,,,,FF,,,,,,,,3.4162,,,,,,,,,,,,,,,,,,,,,,61022d296d11b07dd50a6793,61036a30236ad4ffc5587c4c,2021-07-29_22h57.51.232,Simcolourproject_2stim_asymm_v5,2020.2.10,Win32,60,61025ae37ef11b136ea224fe,,,,,,,,,4124,-58,-162,1,0,0,response5disk,,3,-13,-12,1,0,0,rectangle,-13,-12,1,0,0,-13,-12,1,0,0,1,15,175,86,1,,,,,,,,
,,,,,,,,,,,,,FF,,,,,,,,1.4138,,,,,,,,,,,,,,,,,,,,,,61022d296d11b07dd50a6793,61036a30236ad4ffc5587c4c,2021-07-29_22h57.51.232,Simcolourproject_2stim_asymm_v5,2020.2.10,Win32,60,61025ae37ef11b136ea224fe,,,,,,,,,2591,104,45,1,0,0,response1disk,,6,33,7,1,0,0,rectangle,124,-56,1,0,0,3,-5,1,0,0,1,16,176,156,1,,response3disk_3,TRUE,5,5,"[64,8,219,85,173,218,68,320,14,12,222,177,290,15,57,303,294,19,7,245]",1.4196,rectangle
,,,,,,,,,,,,,FF,,,,,,,,1.9072,,,,,,,,,,,,,,,,,,,,,,61022d296d11b07dd50a6793,61036a30236ad4ffc5587c4c,2021-07-29_22h57.51.232,Simcolourproject_2stim_asymm_v5,2020.2.10,Win32,60,61025ae37ef11b136ea224fe,,,,,,,,,3738,48,-95,1,0,0,response3disk,,4,-4,-3,1,0,0,rectangle,-4,-3,1,0,0,-4,-3,1,0,0,1,17,177,146,1,,,,,,,,
,,,,,,,,,,,,,FF,,,,,,,,1.9625,,,,,,,,,,,,,,,,,,,,,,61022d296d11b07dd50a6793,61036a30236ad4ffc5587c4c,2021-07-29_22h57.51.232,Simcolourproject_2stim_asymm_v5,2020.2.10,Win32,60,61025ae37ef11b136ea224fe,,,,,,,,,255,-120,43,1,0,0,response7disk,,1,2,-7,1,0,0,rectangle,2,-7,1,0,0,2,-7,1,0,0,1,18,178,35,1,,,,,,,,
,,,,,,,,,,,,,FF,,,,,,,,3.3078,,,,,,,,,,,,,,,,,,,,,,61022d296d11b07dd50a6793,61036a30236ad4ffc5587c4c,2021-07-29_22h57.51.232,Simcolourproject_2stim_asymm_v5,2020.2.10,Win32,60,61025ae37ef11b136ea224fe,,,,,,,,,1004,-88,-66,1,0,0,response5disk,,2,-12,-15,1,0,0,rectangle,-12,-15,1,0,0,-12,-15,1,0,0,1,19,179,144,1,,,,,,,,
,,,,,,,,,,,,,FF,,,,,,,,0.5201,,,,,,,,,,,,,,,,,,,,,,61022d296d11b07dd50a6793,61036a30236ad4ffc5587c4c,2021-07-29_22h57.51.232,Simcolourproject_2stim_asymm_v5,2020.2.10,Win32,60,61025ae37ef11b136ea224fe,,,,,,,,,3101,-61,-33,1,0,0,response5disk,,2,-2,15,1,0,0,rectangle,-2,15,1,0,0,-2,15,1,0,0,1,20,180,152,1,,,,,,,,
,,,,,,,,,,,,,FF,,,,,,,,0.5601,,,,,,,,,,,,,,,,,,,,,,61022d296d11b07dd50a6793,61036a30236ad4ffc5587c4c,2021-07-29_22h57.51.232,Simcolourproject_2stim_asymm_v5,2020.2.10,Win32,60,61025ae37ef11b136ea224fe,,,,,,,,,1358,77,-44,1,0,0,response3disk,,5,6,-12,1,0,0,rectangle,6,-12,1,0,0,6,-12,1,0,0,1,21,181,116,1,,,,,,,,
,,,,,,,,,,,,,FF,,,,,,,,0.6713,,,,,,,,,,,,,,,,,,,,,,61022d296d11b07dd50a6793,61036a30236ad4ffc5587c4c,2021-07-29_22h57.51.232,Simcolourproject_2stim_asymm_v5,2020.2.10,Win32,60,61025ae37ef11b136ea224fe,,,,,,,,,4106,-47,-76,1,0,0,response5disk,,3,-9,-3,1,0,0,rectangle,-9,-3,1,0,0,-9,-3,1,0,0,1,22,182,93,1,,,,,,,,
,,,,,,,,,,,,,FF,,,,,,,,0.6802,,,,,,,,,,,,,,,,,,,,,,61022d296d11b07dd50a6793,61036a30236ad4ffc5587c4c,2021-07-29_22h57.51.232,Simcolourproject_2stim_asymm_v5,2020.2.10,Win32,60,61025ae37ef11b136ea224fe,,,,,,,,,548,-92,-49,1,0,0,response5disk,,2,-32,-6,1,0,0,rectangle,-32,-6,1,0,0,-32,-6,1,0,0,1,23,183,121,1,,,,,,,,
,,,,,,,,,,,,,FF,,,,,,,,2.2667,,,,,,,,,,,,,,,,,,,,,,61022d296d11b07dd50a6793,61036a30236ad4ffc5587c4c,2021-07-29_22h57.51.232,Simcolourproject_2stim_asymm_v5,2020.2.10,Win32,60,61025ae37ef11b136ea224fe,,,,,,,,,4290,64,-93,1,0,0,response3disk,,4,22,4,1,0,0,rectangle,22,4,1,0,0,22,4,1,0,0,1,24,184,43,1,,,,,,,,
,,,,,,,,,,,,,FF,,,,,,,,0.9738,,,,,,,,,,,,,,,,,,,,,,61022d296d11b07dd50a6793,61036a30236ad4ffc5587c4c,2021-07-29_22h57.51.232,Simcolourproject_2stim_asymm_v5,2020.2.10,Win32,60,61025ae37ef11b136ea224fe,,,,,,,,,3211,77,-45,1,0,0,response3disk,,5,17,-18,1,0,0,rectangle,17,-18,1,0,0,17,-18,1,0,0,1,25,185,125,1,,,,,,,,
,,,,,,,,,,,,,FF,,,,,,,,0.7188,,,,,,,,,,,,,,,,,,,,,,61022d296d11b07dd50a6793,61036a30236ad4ffc5587c4c,2021-07-29_22h57.51.232,Simcolourproject_2stim_asymm_v5,2020.2.10,Win32,60,61025ae37ef11b136ea224fe,,,,,,,,,3200,-44,-92,1,0,0,response5disk,,3,9,-8,1,0,0,rectangle,9,-8,1,0,0,9,-8,1,0,0,1,26,186,38,1,,,,,,,,
,,,,,,,,,,,,,FF,,,,,,,,1.0804,,,,,,,,,,,,,,,,,,,,,,61022d296d11b07dd50a6793,61036a30236ad4ffc5587c4c,2021-07-29_22h57.51.232,Simcolourproject_2stim_asymm_v5,2020.2.10,Win32,60,61025ae37ef11b136ea224fe,,,,,,,,,3537,-49,-111,1,0,0,response5disk,,3,-1,-13,1,0,0,rectangle,-1,-13,1,0,0,-1,-13,1,0,0,1,27,187,44,1,,,,,,,,
,,,,,,,,,,,,,FF,,,,,,,,1.0405,,,,,,,,,,,,,,,,,,,,,,61022d296d11b07dd50a6793,61036a30236ad4ffc5587c4c,2021-07-29_22h57.51.232,Simcolourproject_2stim_asymm_v5,2020.2.10,Win32,60,61025ae37ef11b136ea224fe,,,,,,,,,3621,64,-134,1,0,0,response3disk,,4,11,3,1,0,0,rectangle,11,3,1,0,0,11,3,1,0,0,1,28,188,101,1,,,,,,,,
,,,,,,,,,,,,,FF,,,,,,,,1.3872,,,,,,,,,,,,,,,,,,,,,,61022d296d11b07dd50a6793,61036a30236ad4ffc5587c4c,2021-07-29_22h57.51.232,Simcolourproject_2stim_asymm_v5,2020.2.10,Win32,60,61025ae37ef11b136ea224fe,,,,,,,,,1869,98,59,1,0,0,response1disk,,6,1,3,1,0,0,rectangle,1,3,1,0,0,1,3,1,0,0,1,29,189,126,1,,,,,,,,
,,,,,,,,,,,,,FF,,,,,,,,1.7205,,,,,,,,,,,,,,,,,,,,,,61022d296d11b07dd50a6793,61036a30236ad4ffc5587c4c,2021-07-29_22h57.51.232,Simcolourproject_2stim_asymm_v5,2020.2.10,Win32,60,61025ae37ef11b136ea224fe,,,,,,,,,1122,78,-119,1,0,0,response3disk,,4,19,-16,1,0,0,rectangle,19,-16,1,0,0,19,-16,1,0,0,1,30,190,52,1,,,,,,,,
,,,,,,,,,,,,,FF,,,,,,,,0.6134,,,,,,,,,,,,,,,,,,,,,,61022d296d11b07dd50a6793,61036a30236ad4ffc5587c4c,2021-07-29_22h57.51.232,Simcolourproject_2stim_asymm_v5,2020.2.10,Win32,60,61025ae37ef11b136ea224fe,,,,,,,,,343,-37,-71,1,0,0,response5disk,,3,-7,-6,1,0,0,rectangle,-7,-6,1,0,0,-7,-6,1,0,0,1,31,191,114,1,,,,,,,,
,,,,,,,,,,,,,FF,,,,,,,,0.6268,,,,,,,,,,,,,,,,,,,,,,61022d296d11b07dd50a6793,61036a30236ad4ffc5587c4c,2021-07-29_22h57.51.232,Simcolourproject_2stim_asymm_v5,2020.2.10,Win32,60,61025ae37ef11b136ea224fe,,,,,,,,,416,81,-47,1,0,0,response3disk,,5,11,-7,1,0,0,rectangle,11,-7,1,0,0,11,-7,1,0,0,1,32,192,54,1,,,,,,,,
,,,,,,,,,,,,,FF,,,,,,,,1.1723,,,,,,,,,,,,,,,,,,,,,,61022d296d11b07dd50a6793,61036a30236ad4ffc5587c4c,2021-07-29_22h57.51.232,Simcolourproject_2stim_asymm_v5,2020.2.10,Win32,60,61025ae37ef11b136ea224fe,,,,,,,,,3018,60,33,1,0,0,response1disk,,6,-3,-5,1,0,0,rectangle,-3,-5,1,0,0,-3,-5,1,0,0,1,33,193,45,1,,,,,,,,
,,,,,,,,,,,,,FF,,,,,,,,1.2272,,,,,,,,,,,,,,,,,,,,,,61022d296d11b07dd50a6793,61036a30236ad4ffc5587c4c,2021-07-29_22h57.51.232,Simcolourproject_2stim_asymm_v5,2020.2.10,Win32,60,61025ae37ef11b136ea224fe,,,,,,,,,2940,-103,24,1,0,0,response7disk,,1,12,4,1,0,0,rectangle,12,4,1,0,0,12,4,1,0,0,1,34,194,62,1,,,,,,,,
,,,,,,,,,,,,,FF,,,,,,,,1.3323,,,,,,,,,,,,,,,,,,,,,,61022d296d11b07dd50a6793,61036a30236ad4ffc5587c4c,2021-07-29_22h57.51.232,Simcolourproject_2stim_asymm_v5,2020.2.10,Win32,60,61025ae37ef11b136ea224fe,,,,,,,,,1415,40,-88,1,0,0,response3disk,,4,20,4,1,0,0,rectangle,20,4,1,0,0,20,4,1,0,0,1,35,195,41,1,,,,,,,,
,,,,,,,,,,,,,FF,,,,,,,,1.0804,,,,,,,,,,,,,,,,,,,,,,61022d296d11b07dd50a6793,61036a30236ad4ffc5587c4c,2021-07-29_22h57.51.232,Simcolourproject_2stim_asymm_v5,2020.2.10,Win32,60,61025ae37ef11b136ea224fe,,,,,,,,,4039,-72,-46,1,0,0,response5disk,,2,-29,-10,1,0,0,rectangle,-29,-10,1,0,0,-29,-10,1,0,0,1,36,196,29,1,,,,,,,,
,,,,,,,,,,,,,FF,,,,,,,,1.0561,,,,,,,,,,,,,,,,,,,,,,61022d296d11b07dd50a6793,61036a30236ad4ffc5587c4c,2021-07-29_22h57.51.232,Simcolourproject_2stim_asymm_v5,2020.2.10,Win32,60,61025ae37ef11b136ea224fe,,,,,,,,,1008,99,-46,1,0,0,response3disk,,5,5,7,1,0,0,rectangle,5,7,1,0,0,5,7,1,0,0,1,37,197,147,1,,,,,,,,
,,,,,,,,,,,,,FF,,,,,,,,0.5077,,,,,,,,,,,,,,,,,,,,,,61022d296d11b07dd50a6793,61036a30236ad4ffc5587c4c,2021-07-29_22h57.51.232,Simcolourproject_2stim_asymm_v5,2020.2.10,Win32,60,61025ae37ef11b136ea224fe,,,,,,,,,3111,50,-76,1,0,0,response3disk,,4,10,-7,1,0,0,rectangle,10,-7,1,0,0,10,-7,1,0,0,1,38,198,64,1,,,,,,,,
,,,,,,,,,,,,,FF,,,,,,,,0.7749,,,,,,,,,,,,,,,,,,,,,,61022d296d11b07dd50a6793,61036a30236ad4ffc5587c4c,2021-07-29_22h57.51.232,Simcolourproject_2stim_asymm_v5,2020.2.10,Win32,60,61025ae37ef11b136ea224fe,,,,,,,,,4323,92,39,1,0,0,response1disk,,6,21,0,1,0,0,rectangle,21,0,1,0,0,21,0,1,0,0,1,39,199,73,1,,,,,,,,
,,,,,,,,,,,,,FF,,,,,,,,2.3075,,,,,,,,,,,,,,,,,,,,,,61022d296d11b07dd50a6793,61036a30236ad4ffc5587c4c,2021-07-29_22h57.51.232,Simcolourproject_2stim_asymm_v5,2020.2.10,Win32,60,61025ae37ef11b136ea224fe,,,,,,,,,4333,41,121,1,0,0,response1disk,,7,23,-10,1,0,0,rectangle,23,-10,1,0,0,23,-10,1,0,0,1,40,200,31,1,,,,,,,,
,,,,,,,,,,,,,FF,,,,,,,,0.9057,,,,,,,,,,,,,,,,,,,,,,61022d296d11b07dd50a6793,61036a30236ad4ffc5587c4c,2021-07-29_22h57.51.232,Simcolourproject_2stim_asymm_v5,2020.2.10,Win32,60,61025ae37ef11b136ea224fe,,,,,,,,,2644,52,-113,1,0,0,response3disk,,4,17,-2,1,0,0,rectangle,17,-2,1,0,0,17,-2,1,0,0,1,41,201,96,1,,,,,,,,
,,,,,,,,,,,,,FF,,,,,,,,0.9597,,,,,,,,,,,,,,,,,,,,,,61022d296d11b07dd50a6793,61036a30236ad4ffc5587c4c,2021-07-29_22h57.51.232,Simcolourproject_2stim_asymm_v5,2020.2.10,Win32,60,61025ae37ef11b136ea224fe,,,,,,,,,277,-106,-81,1,0,0,response5disk,,2,-15,9,1,0,0,rectangle,-15,9,1,0,0,-15,9,1,0,0,1,42,202,140,1,,,,,,,,
,,,,,,,,,,,,,FF,,,,,,,,0.5603,,,,,,,,,,,,,,,,,,,,,,61022d296d11b07dd50a6793,61036a30236ad4ffc5587c4c,2021-07-29_22h57.51.232,Simcolourproject_2stim_asymm_v5,2020.2.10,Win32,60,61025ae37ef11b136ea224fe,,,,,,,,,3427,-82,-51,1,0,0,response5disk,,2,-2,10,1,0,0,rectangle,-2,10,1,0,0,-2,10,1,0,0,1,43,203,57,1,,,,,,,,
,,,,,,,,,,,,,FF,,,,,,,,0.8666,,,,,,,,,,,,,,,,,,,,,,61022d296d11b07dd50a6793,61036a30236ad4ffc5587c4c,2021-07-29_22h57.51.232,Simcolourproject_2stim_asymm_v5,2020.2.10,Win32,60,61025ae37ef11b136ea224fe,,,,,,,,,3639,97,46,1,0,0,response1disk,,6,19,-5,1,0,0,rectangle,19,-5,1,0,0,19,-5,1,0,0,1,44,204,3,1,,,,,,,,
,,,,,,,,,,,,,FF,,,,,,,,0.827,,,,,,,,,,,,,,,,,,,,,,61022d296d11b07dd50a6793,61036a30236ad4ffc5587c4c,2021-07-29_22h57.51.232,Simcolourproject_2stim_asymm_v5,2020.2.10,Win32,60,61025ae37ef11b136ea224fe,,,,,,,,,2303,94,-53,1,0,0,response3disk,,5,18,-21,1,0,0,rectangle,18,-21,1,0,0,18,-21,1,0,0,1,45,205,46,1,,,,,,,,
,,,,,,,,,,,,,FF,,,,,,,,1.0397,,,,,,,,,,,,,,,,,,,,,,61022d296d11b07dd50a6793,61036a30236ad4ffc5587c4c,2021-07-29_22h57.51.232,Simcolourproject_2stim_asymm_v5,2020.2.10,Win32,60,61025ae37ef11b136ea224fe,,,,,,,,,1906,93,34,1,0,0,response1disk,,6,28,-1,1,0,0,rectangle,28,-1,1,0,0,28,-1,1,0,0,1,46,206,92,1,,,,,,,,
,,,,,,,,,,,,,FF,,,,,,,,0.8004,,,,,,,,,,,,,,,,,,,,,,61022d296d11b07dd50a6793,61036a30236ad4ffc5587c4c,2021-07-29_22h57.51.232,Simcolourproject_2stim_asymm_v5,2020.2.10,Win32,60,61025ae37ef11b136ea224fe,,,,,,,,,2537,113,-50,1,0,0,response3disk,,5,28,-9,1,0,0,rectangle,28,-9,1,0,0,28,-9,1,0,0,1,47,207,28,1,,,,,,,,
,,,,,,,,,,,,,FF,,,,,,,,0.4665,,,,,,,,,,,,,,,,,,,,,,61022d296d11b07dd50a6793,61036a30236ad4ffc5587c4c,2021-07-29_22h57.51.232,Simcolourproject_2stim_asymm_v5,2020.2.10,Win32,60,61025ae37ef11b136ea224fe,,,,,,,,,964,122,-49,1,0,0,response3disk,,5,26,7,1,0,0,rectangle,26,7,1,0,0,26,7,1,0,0,1,48,208,137,1,,,,,,,,
,,,,,,,,,,,,,FF,,,,,,,,0.4917,,,,,,,,,,,,,,,,,,,,,,61022d296d11b07dd50a6793,61036a30236ad4ffc5587c4c,2021-07-29_22h57.51.232,Simcolourproject_2stim_asymm_v5,2020.2.10,Win32,60,61025ae37ef11b136ea224fe,,,,,,,,,2987,84,-41,1,0,0,response3disk,,5,19,1,1,0,0,rectangle,19,1,1,0,0,19,1,1,0,0,1,49,209,79,1,,,,,,,,
,,,,,,,,,,,,,FF,,,,,,,,1.2789,,,,,,,,,,,,,,,,,,,,,,61022d296d11b07dd50a6793,61036a30236ad4ffc5587c4c,2021-07-29_22h57.51.232,Simcolourproject_2stim_asymm_v5,2020.2.10,Win32,60,61025ae37ef11b136ea224fe,,,,,,,,,2242,44,-95,1,0,0,response3disk,,4,-12,10,1,0,0,rectangle,-12,10,1,0,0,-12,10,1,0,0,1,50,210,2,1,,,,,,,,
,,,,,,,,,,,,,FF,,,,,,,,0.7602,,,,,,,,,,,,,,,,,,,,,,61022d296d11b07dd50a6793,61036a30236ad4ffc5587c4c,2021-07-29_22h57.51.232,Simcolourproject_2stim_asymm_v5,2020.2.10,Win32,60,61025ae37ef11b136ea224fe,,,,,,,,,3450,69,112,1,0,0,response1disk,,7,18,7,1,0,0,rectangle,18,7,1,0,0,18,7,1,0,0,1,51,211,36,1,,,,,,,,
,,,,,,,,,,,,,FF,,,,,,,,0.7336,,,,,,,,,,,,,,,,,,,,,,61022d296d11b07dd50a6793,61036a30236ad4ffc5587c4c,2021-07-29_22h57.51.232,Simcolourproject_2stim_asymm_v5,2020.2.10,Win32,60,61025ae37ef11b136ea224fe,,,,,,,,,1013,87,43,1,0,0,response1disk,,6,-3,-9,1,0,0,rectangle,-3,-9,1,0,0,-3,-9,1,0,0,1,52,212,133,1,,,,,,,,
,,,,,,,,,,,,,FF,,,,,,,,0.9054,,,,,,,,,,,,,,,,,,,,,,61022d296d11b07dd50a6793,61036a30236ad4ffc5587c4c,2021-07-29_22h57.51.232,Simcolourproject_2stim_asymm_v5,2020.2.10,Win32,60,61025ae37ef11b136ea224fe,,,,,,,,,2100,-55,-139,1,0,0,response5disk,,3,-4,-17,1,0,0,rectangle,-4,-17,1,0,0,-4,-17,1,0,0,1,53,213,4,1,,,,,,,,
,,,,,,,,,,,,,FF,,,,,,,,0.6136,,,,,,,,,,,,,,,,,,,,,,61022d296d11b07dd50a6793,61036a30236ad4ffc5587c4c,2021-07-29_22h57.51.232,Simcolourproject_2stim_asymm_v5,2020.2.10,Win32,60,61025ae37ef11b136ea224fe,,,,,,,,,3493,68,-108,1,0,0,response3disk,,4,10,-10,1,0,0,rectangle,10,-10,1,0,0,10,-10,1,0,0,1,54,214,124,1,,,,,,,,
,,,,,,,,,,,,,FF,,,,,,,,0.5331,,,,,,,,,,,,,,,,,,,,,,61022d296d11b07dd50a6793,61036a30236ad4ffc5587c4c,2021-07-29_22h57.51.232,Simcolourproject_2stim_asymm_v5,2020.2.10,Win32,60,61025ae37ef11b136ea224fe,,,,,,,,,2979,83,-45,1,0,0,response3disk,,5,24,1,1,0,0,rectangle,24,1,1,0,0,24,1,1,0,0,1,55,215,150,1,,,,,,,,
,,,,,,,,,,,,,FF,,,,,,,,1.0538,,,,,,,,,,,,,,,,,,,,,,61022d296d11b07dd50a6793,61036a30236ad4ffc5587c4c,2021-07-29_22h57.51.232,Simcolourproject_2stim_asymm_v5,2020.2.10,Win32,60,61025ae37ef11b136ea224fe,,,,,,,,,2225,57,45,1,0,0,response1disk,,6,36,5,1,0,0,rectangle,36,5,1,0,0,36,5,1,0,0,1,56,216,37,1,,,,,,,,
,,,,,,,,,,,,,FF,,,,,,,,1.0255,,,,,,,,,,,,,,,,,,,,,,61022d296d11b07dd50a6793,61036a30236ad4ffc5587c4c,2021-07-29_22h57.51.232,Simcolourproject_2stim_asymm_v5,2020.2.10,Win32,60,61025ae37ef11b136ea224fe,,,,,,,,,4249,-39,-86,1,0,0,response5disk,,3,9,5,1,0,0,rectangle,-120,59,1,0,0,-26,9,1,0,0,1,57,217,108,1,,response7disk_3,TRUE,1,1,"[64,8,219,85,173,218,68,320,14,12,222,177,290,15,57,303,294,19,7,245]",1.2408,rectangle
,,,,,,,,,,,,,FF,,,,,,,,3.4679,,,,,,,,,,,,,,,,,,,,,,61022d296d11b07dd50a6793,61036a30236ad4ffc5587c4c,2021-07-29_22h57.51.232,Simcolourproject_2stim_asymm_v5,2020.2.10,Win32,60,61025ae37ef11b136ea224fe,,,,,,,,,2638,70,-59,1,0,0,response3disk,,5,2,10,1,0,0,rectangle,-44,101,1,0,0,0,2,1,0,0,1,58,218,91,1,,response7disk_3,TRUE,0,0,"[64,8,219,85,173,218,68,320,14,12,222,177,290,15,57,303,294,19,7,245]",1.0268,rectangle
,,,,,,,,,,,,,FF,,,,,,,,1.147,,,,,,,,,,,,,,,,,,,,,,61022d296d11b07dd50a6793,61036a30236ad4ffc5587c4c,2021-07-29_22h57.51.232,Simcolourproject_2stim_asymm_v5,2020.2.10,Win32,60,61025ae37ef11b136ea224fe,,,,,,,,,504,79,47,1,0,0,response1disk,,6,31,10,1,0,0,rectangle,31,10,1,0,0,31,10,1,0,0,1,59,219,149,1,,,,,,,,
,,,,,,,,,,,,,FF,,,,,,,,1.0938,,,,,,,,,,,,,,,,,,,,,,61022d296d11b07dd50a6793,61036a30236ad4ffc5587c4c,2021-07-29_22h57.51.232,Simcolourproject_2stim_asymm_v5,2020.2.10,Win32,60,61025ae37ef11b136ea224fe,,,,,,,,,4176,90,-41,1,0,0,response3disk,,5,22,6,1,0,0,rectangle,22,6,1,0,0,22,6,1,0,0,1,60,220,66,1,,,,,,,,
,,,,,,,,,,,,,FF,,,,,,,,1.5273,,,,,,,,,,,,,,,,,,,,,,61022d296d11b07dd50a6793,61036a30236ad4ffc5587c4c,2021-07-29_22h57.51.232,Simcolourproject_2stim_asymm_v5,2020.2.10,Win32,60,61025ae37ef11b136ea224fe,,,,,,,,,2077,53,-125,1,0,0,response3disk,,4,24,-5,1,0,0,rectangle,64,-128,1,0,0,-15,6,1,0,0,1,61,221,139,1,,response3disk_3,TRUE,4,4,"[64,8,219,85,173,218,68,320,14,12,222,177,290,15,57,303,294,19,7,245]",1.5336,rectangle
,,,,,,,,,,,,,FF,,,,,,,,1.3054,,,,,,,,,,,,,,,,,,,,,,61022d296d11b07dd50a6793,61036a30236ad4ffc5587c4c,2021-07-29_22h57.51.232,Simcolourproject_2stim_asymm_v5,2020.2.10,Win32,60,61025ae37ef11b136ea224fe,,,,,,,,,2111,70,-120,1,0,0,response3disk,,4,-5,-10,1,0,0,rectangle,-5,-10,1,0,0,-5,-10,1,0,0,1,62,222,15,1,,,,,,,,
,,,,,,,,,,,,,FF,,,,,,,,1.2273,,,,,,,,,,,,,,,,,,,,,,61022d296d11b07dd50a6793,61036a30236ad4ffc5587c4c,2021-07-29_22h57.51.232,Simcolourproject_2stim_asymm_v5,2020.2.10,Win32,60,61025ae37ef11b136ea224fe,,,,,,,,,2597,91,-70,1,0,0,response3disk,,5,4,-4,1,0,0,rectangle,4,-4,1,0,0,4,-4,1,0,0,1,63,223,130,1,,,,,,,,
,,,,,,,,,,,,,FF,,,,,,,,0.8146,,,,,,,,,,,,,,,,,,,,,,61022d296d11b07dd50a6793,61036a30236ad4ffc5587c4c,2021-07-29_22h57.51.232,Simcolourproject_2stim_asymm_v5,2020.2.10,Win32,60,61025ae37ef11b136ea224fe,,,,,,,,,2140,-36,-115,1,0,0,response5disk,,3,1,8,1,0,0,rectangle,1,8,1,0,0,1,8,1,0,0,1,64,224,63,1,,,,,,,,
,,,,,,,,,,,,,FF,,,,,,,,1.267,,,,,,,,,,,,,,,,,,,,,,61022d296d11b07dd50a6793,61036a30236ad4ffc5587c4c,2021-07-29_22h57.51.232,Simcolourproject_2stim_asymm_v5,2020.2.10,Win32,60,61025ae37ef11b136ea224fe,,,,,,,,,1546,118,-74,1,0,0,response3disk,,5,31,-15,1,0,0,rectangle,31,-15,1,0,0,31,-15,1,0,0,1,65,225,151,1,,,,,,,,
,,,,,,,,,,,,,FF,,,,,,,,0.5201,,,,,,,,,,,,,,,,,,,,,,61022d296d11b07dd50a6793,61036a30236ad4ffc5587c4c,2021-07-29_22h57.51.232,Simcolourproject_2stim_asymm_v5,2020.2.10,Win32,60,61025ae37ef11b136ea224fe,,,,,,,,,1574,86,-48,1,0,0,response3disk,,5,20,-1,1,0,0,rectangle,20,-1,1,0,0,20,-1,1,0,0,1,66,226,159,1,,,,,,,,
,,,,,,,,,,,,,FF,,,,,,,,1.7688,,,,,,,,,,,,,,,,,,,,,,61022d296d11b07dd50a6793,61036a30236ad4ffc5587c4c,2021-07-29_22h57.51.232,Simcolourproject_2stim_asymm_v5,2020.2.10,Win32,60,61025ae37ef11b136ea224fe,,,,,,,,,4357,-129,38,1,0,0,response7disk,,1,-9,4,1,0,0,rectangle,-9,4,1,0,0,-9,4,1,0,0,1,67,227,42,1,,,,,,,,
,,,,,,,,,,,,,FF,,,,,,,,1.4805,,,,,,,,,,,,,,,,,,,,,,61022d296d11b07dd50a6793,61036a30236ad4ffc5587c4c,2021-07-29_22h57.51.232,Simcolourproject_2stim_asymm_v5,2020.2.10,Win32,60,61025ae37ef11b136ea224fe,,,,,,,,,164,-94,-56,1,0,0,response5disk,,2,-19,-21,1,0,0,rectangle,-19,-21,1,0,0,-19,-21,1,0,0,1,68,228,12,1,,,,,,,,
,,,,,,,,,,,,,FF,,,,,,,,1.0626,,,,,,,,,,,,,,,,,,,,,,61022d296d11b07dd50a6793,61036a30236ad4ffc5587c4c,2021-07-29_22h57.51.232,Simcolourproject_2stim_asymm_v5,2020.2.10,Win32,60,61025ae37ef11b136ea224fe,,,,,,,,,1623,94,39,1,0,0,response1disk,,6,29,9,1,0,0,rectangle,29,9,1,0,0,29,9,1,0,0,1,69,229,106,1,,,,,,,,
,,,,,,,,,,,,,FF,,,,,,,,0.8251,,,,,,,,,,,,,,,,,,,,,,61022d296d11b07dd50a6793,61036a30236ad4ffc5587c4c,2021-07-29_22h57.51.232,Simcolourproject_2stim_asymm_v5,2020.2.10,Win32,60,61025ae37ef11b136ea224fe,,,,,,,,,1771,48,-99,1,0,0,response3disk,,4,1,-14,1,0,0,rectangle,1,-14,1,0,0,1,-14,1,0,0,1,70,230,105,1,,,,,,,,
,,,,,,,,,,,,,FF,,,,,,,,0.9735,,,,,,,,,,,,,,,,,,,,,,61022d296d11b07dd50a6793,61036a30236ad4ffc5587c4c,2021-07-29_22h57.51.232,Simcolourproject_2stim_asymm_v5,2020.2.10,Win32,60,61025ae37ef11b136ea224fe,,,,,,,,,2024,64,-79,1,0,0,response3disk,,4,16,15,1,0,0,rectangle,16,15,1,0,0,16,15,1,0,0,1,71,231,11,1,,,,,,,,
,,,,,,,,,,,,,FF,,,,,,,,1.9607,,,,,,,,,,,,,,,,,,,,,,61022d296d11b07dd50a6793,61036a30236ad4ffc5587c4c,2021-07-29_22h57.51.232,Simcolourproject_2stim_asymm_v5,2020.2.10,Win32,60,61025ae37ef11b136ea224fe,,,,,,,,,3402,42,-76,1,0,0,response3disk,,4,17,-4,1,0,0,rectangle,17,-4,1,0,0,17,-4,1,0,0,1,72,232,65,1,,,,,,,,
,,,,,,,,,,,,,FF,,,,,,,,0.7137,,,,,,,,,,,,,,,,,,,,,,61022d296d11b07dd50a6793,61036a30236ad4ffc5587c4c,2021-07-29_22h57.51.232,Simcolourproject_2stim_asymm_v5,2020.2.10,Win32,60,61025ae37ef11b136ea224fe,,,,,,,,,2653,46,-80,1,0,0,response3disk,,4,17,0,1,0,0,rectangle,17,0,1,0,0,17,0,1,0,0,1,73,233,27,1,,,,,,,,
,,,,,,,,,,,,,FF,,,,,,,,2.7486,,,,,,,,,,,,,,,,,,,,,,61022d296d11b07dd50a6793,61036a30236ad4ffc5587c4c,2021-07-29_22h57.51.232,Simcolourproject_2stim_asymm_v5,2020.2.10,Win32,60,61025ae37ef11b136ea224fe,,,,,,,,,3459,73,40,1,0,0,response1disk,,6,14,2,1,0,0,rectangle,14,2,1,0,0,14,2,1,0,0,1,74,234,90,1,,,,,,,,
,,,,,,,,,,,,,FF,,,,,,,,0.6544,,,,,,,,,,,,,,,,,,,,,,61022d296d11b07dd50a6793,61036a30236ad4ffc5587c4c,2021-07-29_22h57.51.232,Simcolourproject_2stim_asymm_v5,2020.2.10,Win32,60,61025ae37ef11b136ea224fe,,,,,,,,,2612,72,-56,1,0,0,response3disk,,5,15,-15,1,0,0,rectangle,15,-15,1,0,0,15,-15,1,0,0,1,75,235,17,1,,,,,,,,
,,,,,,,,,,,,,FF,,,,,,,,2.539,,,,,,,,,,,,,,,,,,,,,,61022d296d11b07dd50a6793,61036a30236ad4ffc5587c4c,2021-07-29_22h57.51.232,Simcolourproject_2stim_asymm_v5,2020.2.10,Win32,60,61025ae37ef11b136ea224fe,,,,,,,,,2656,48,-63,1,0,0,response3disk,,4,15,-13,1,0,0,rectangle,15,-13,1,0,0,15,-13,1,0,0,1,76,236,87,1,,,,,,,,
,,,,,,,,,,,,,FF,,,,,,,,0.6423,,,,,,,,,,,,,,,,,,,,,,61022d296d11b07dd50a6793,61036a30236ad4ffc5587c4c,2021-07-29_22h57.51.232,Simcolourproject_2stim_asymm_v5,2020.2.10,Win32,60,61025ae37ef11b136ea224fe,,,,,,,,,3032,67,-45,1,0,0,response3disk,,5,-11,-5,1,0,0,rectangle,-11,-5,1,0,0,-11,-5,1,0,0,1,77,237,138,1,,,,,,,,
,,,,,,,,,,,,,FF,,,,,,,,1.4308,,,,,,,,,,,,,,,,,,,,,,61022d296d11b07dd50a6793,61036a30236ad4ffc5587c4c,2021-07-29_22h57.51.232,Simcolourproject_2stim_asymm_v5,2020.2.10,Win32,60,61025ae37ef11b136ea224fe,,,,,,,,,2697,40,-67,1,0,0,response3disk,,4,-2,-9,1,0,0,rectangle,-2,-9,1,0,0,-2,-9,1,0,0,1,78,238,70,1,,,,,,,,
,,,,,,,,,,,,,FF,,,,,,,,1.0404,,,,,,,,,,,,,,,,,,,,,,61022d296d11b07dd50a6793,61036a30236ad4ffc5587c4c,2021-07-29_22h57.51.232,Simcolourproject_2stim_asymm_v5,2020.2.10,Win32,60,61025ae37ef11b136ea224fe,,,,,,,,,1311,-48,-81,1,0,0,response5disk,,3,11,1,1,0,0,rectangle,11,1,1,0,0,11,1,1,0,0,1,79,239,155,1,,,,,,,,
,,,,,,,,,,,,,FF,,,,,,,,0.8519,,,,,,,,,,,,,,,,,,,,,,61022d296d11b07dd50a6793,61036a30236ad4ffc5587c4c,2021-07-29_22h57.51.232,Simcolourproject_2stim_asymm_v5,2020.2.10,Win32,60,61025ae37ef11b136ea224fe,,,,,,,,,3749,-36,-89,1,0,0,response5disk,,3,16,-5,1,0,0,rectangle,16,-5,1,0,0,16,-5,1,0,0,1,80,240,30,1,,,,,,,,
,,,,,,,,,,,,,FF,,,,,,,,0.587,,,,,,,,,,,,,,,,,,,,,,61022d296d11b07dd50a6793,61036a30236ad4ffc5587c4c,2021-07-29_22h57.51.232,Simcolourproject_2stim_asymm_v5,2020.2.10,Win32,60,61025ae37ef11b136ea224fe,,,,,,,,,242,44,-85,1,0,0,response3disk,,4,7,7,1,0,0,rectangle,7,7,1,0,0,7,7,1,0,0,1,81,241,115,1,,,,,,,,
,,,,,,,,,,,,,FF,,,,,,,,1.0671,,,,,,,,,,,,,,,,,,,,,,61022d296d11b07dd50a6793,61036a30236ad4ffc5587c4c,2021-07-29_22h57.51.232,Simcolourproject_2stim_asymm_v5,2020.2.10,Win32,60,61025ae37ef11b136ea224fe,,,,,,,,,3500,68,-38,1,0,0,response3disk,,5,4,-2,1,0,0,rectangle,4,-2,1,0,0,4,-2,1,0,0,1,82,242,24,1,,,,,,,,
,,,,,,,,,,,,,FF,,,,,,,,0.92,,,,,,,,,,,,,,,,,,,,,,61022d296d11b07dd50a6793,61036a30236ad4ffc5587c4c,2021-07-29_22h57.51.232,Simcolourproject_2stim_asymm_v5,2020.2.10,Win32,60,61025ae37ef11b136ea224fe,,,,,,,,,3213,77,-48,1,0,0,response3disk,,5,16,0,1,0,0,rectangle,16,0,1,0,0,16,0,1,0,0,1,83,243,49,1,,,,,,,,
,,,,,,,,,,,,,FF,,,,,,,,2.883,,,,,,,,,,,,,,,,,,,,,,61022d296d11b07dd50a6793,61036a30236ad4ffc5587c4c,2021-07-29_22h57.51.232,Simcolourproject_2stim_asymm_v5,2020.2.10,Win32,60,61025ae37ef11b136ea224fe,,,,,,,,,2583,49,-39,1,0,0,response3disk,,5,-14,-7,1,0,0,rectangle,-50,-98,1,0,0,-1,9,1,0,0,1,84,244,14,1,,response5disk_3,TRUE,3,3,"[64,8,219,85,173,218,68,320,14,12,222,177,290,15,57,303,294,19,7,245]",1.4141,rectangle
,,,,,,,,,,,,,FF,,,,,,,,0.6669,,,,,,,,,,,,,,,,,,,,,,61022d296d11b07dd50a6793,61036a30236ad4ffc5587c4c,2021-07-29_22h57.51.232,Simcolourproject_2stim_asymm_v5,2020.2.10,Win32,60,61025ae37ef11b136ea224fe,,,,,,,,,3781,-73,-46,1,0,0,response5disk,,2,11,8,1,0,0,rectangle,11,8,1,0,0,11,8,1,0,0,1,85,245,148,1,,,,,,,,
,,,,,,,,,,,,,FF,,,,,,,,0.6613,,,,,,,,,,,,,,,,,,,,,,61022d296d11b07dd50a6793,61036a30236ad4ffc5587c4c,2021-07-29_22h57.51.232,Simcolourproject_2stim_asymm_v5,2020.2.10,Win32,60,61025ae37ef11b136ea224fe,,,,,,,,,2678,-37,-63,1,0,0,response5disk,,3,-33,-2,1,0,0,rectangle,-33,-2,1,0,0,-33,-2,1,0,0,1,86,246,131,1,,,,,,,,
,,,,,,,,,,,,,FF,,,,,,,,2.0674,,,,,,,,,,,,,,,,,,,,,,61022d296d11b07dd50a6793,61036a30236ad4ffc5587c4c,2021-07-29_22h57.51.232,Simcolourproject_2stim_asymm_v5,2020.2.10,Win32,60,61025ae37ef11b136ea224fe,,,,,,,,,4,-37,-94,1,0,0,response5disk,,3,-25,-2,1,0,0,rectangle,-25,-2,1,0,0,-25,-2,1,0,0,1,87,247,113,1,,,,,,,,
,,,,,,,,,,,,,FF,,,,,,,,0.8672,,,,,,,,,,,,,,,,,,,,,,61022d296d11b07dd50a6793,61036a30236ad4ffc5587c4c,2021-07-29_22h57.51.232,Simcolourproject_2stim_asymm_v5,2020.2.10,Win32,60,61025ae37ef11b136ea224fe,,,,,,,,,2802,88,-51,1,0,0,response3disk,,5,7,-15,1,0,0,rectangle,7,-15,1,0,0,7,-15,1,0,0,1,88,248,22,1,,,,,,,,
,,,,,,,,,,,,,FF,,,,,,,,1.4139,,,,,,,,,,,,,,,,,,,,,,61022d296d11b07dd50a6793,61036a30236ad4ffc5587c4c,2021-07-29_22h57.51.232,Simcolourproject_2stim_asymm_v5,2020.2.10,Win32,60,61025ae37ef11b136ea224fe,,,,,,,,,2700,71,34,1,0,0,response1disk,,6,-8,9,1,0,0,rectangle,-8,9,1,0,0,-8,9,1,0,0,1,89,249,19,1,,,,,,,,
,,,,,,,,,,,,,FF,,,,,,,,0.8933,,,,,,,,,,,,,,,,,,,,,,61022d296d11b07dd50a6793,61036a30236ad4ffc5587c4c,2021-07-29_22h57.51.232,Simcolourproject_2stim_asymm_v5,2020.2.10,Win32,60,61025ae37ef11b136ea224fe,,,,,,,,,894,-36,-98,1,0,0,response5disk,,3,-21,-11,1,0,0,rectangle,-21,-11,1,0,0,-21,-11,1,0,0,1,90,250,20,1,,,,,,,,
,,,,,,,,,,,,,FF,,,,,,,,0.5987,,,,,,,,,,,,,,,,,,,,,,61022d296d11b07dd50a6793,61036a30236ad4ffc5587c4c,2021-07-29_22h57.51.232,Simcolourproject_2stim_asymm_v5,2020.2.10,Win32,60,61025ae37ef11b136ea224fe,,,,,,,,,1804,57,-79,1,0,0,response3disk,,4,5,-5,1,0,0,rectangle,5,-5,1,0,0,5,-5,1,0,0,1,91,251,5,1,,,,,,,,
,,,,,,,,,,,,,FF,,,,,,,,0.8802,,,,,,,,,,,,,,,,,,,,,,61022d296d11b07dd50a6793,61036a30236ad4ffc5587c4c,2021-07-29_22h57.51.232,Simcolourproject_2stim_asymm_v5,2020.2.10,Win32,60,61025ae37ef11b136ea224fe,,,,,,,,,250,-26,-77,1,0,0,response5disk,,3,-5,4,1,0,0,rectangle,-5,4,1,0,0,-5,4,1,0,0,1,92,252,48,1,,,,,,,,
,,,,,,,,,,,,,FF,,,,,,,,0.5728,,,,,,,,,,,,,,,,,,,,,,61022d296d11b07dd50a6793,61036a30236ad4ffc5587c4c,2021-07-29_22h57.51.232,Simcolourproject_2stim_asymm_v5,2020.2.10,Win32,60,61025ae37ef11b136ea224fe,,,,,,,,,501,51,-79,1,0,0,response3disk,,4,13,-10,1,0,0,rectangle,13,-10,1,0,0,13,-10,1,0,0,1,93,253,85,1,,,,,,,,
,,,,,,,,,,,,,FF,,,,,,,,0.7603,,,,,,,,,,,,,,,,,,,,,,61022d296d11b07dd50a6793,61036a30236ad4ffc5587c4c,2021-07-29_22h57.51.232,Simcolourproject_2stim_asymm_v5,2020.2.10,Win32,60,61025ae37ef11b136ea224fe,,,,,,,,,2370,39,-69,1,0,0,response3disk,,4,-1,-6,1,0,0,rectangle,-1,-6,1,0,0,-1,-6,1,0,0,1,94,254,34,1,,,,,,,,
,,,,,,,,,,,,,FF,,,,,,,,0.6134,,,,,,,,,,,,,,,,,,,,,,61022d296d11b07dd50a6793,61036a30236ad4ffc5587c4c,2021-07-29_22h57.51.232,Simcolourproject_2stim_asymm_v5,2020.2.10,Win32,60,61025ae37ef11b136ea224fe,,,,,,,,,3635,-48,-69,1,0,0,response5disk,,3,-11,-5,1,0,0,rectangle,-11,-5,1,0,0,-11,-5,1,0,0,1,95,255,16,1,,,,,,,,
,,,,,,,,,,,,,FF,,,,,,,,0.907,,,,,,,,,,,,,,,,,,,,,,61022d296d11b07dd50a6793,61036a30236ad4ffc5587c4c,2021-07-29_22h57.51.232,Simcolourproject_2stim_asymm_v5,2020.2.10,Win32,60,61025ae37ef11b136ea224fe,,,,,,,,,2490,50,-42,1,0,0,response3disk,,5,5,0,1,0,0,rectangle,5,0,1,0,0,5,0,1,0,0,1,96,256,142,1,,,,,,,,
,,,,,,,,,,,,,FF,,,,,,,,0.6136,,,,,,,,,,,,,,,,,,,,,,61022d296d11b07dd50a6793,61036a30236ad4ffc5587c4c,2021-07-29_22h57.51.232,Simcolourproject_2stim_asymm_v5,2020.2.10,Win32,60,61025ae37ef11b136ea224fe,,,,,,,,,1380,-40,-63,1,0,0,response5disk,,3,-5,6,1,0,0,rectangle,-5,6,1,0,0,-5,6,1,0,0,1,97,257,58,1,,,,,,,,
,,,,,,,,,,,,,FF,,,,,,,,0.9728,,,,,,,,,,,,,,,,,,,,,,61022d296d11b07dd50a6793,61036a30236ad4ffc5587c4c,2021-07-29_22h57.51.232,Simcolourproject_2stim_asymm_v5,2020.2.10,Win32,60,61025ae37ef11b136ea224fe,,,,,,,,,2999,-67,-50,1,0,0,response5disk,,2,-15,-9,1,0,0,rectangle,-15,-9,1,0,0,-15,-9,1,0,0,1,98,258,1,1,,,,,,,,
,,,,,,,,,,,,,FF,,,,,,,,4.6284,,,,,,,,,,,,,,,,,,,,,,61022d296d11b07dd50a6793,61036a30236ad4ffc5587c4c,2021-07-29_22h57.51.232,Simcolourproject_2stim_asymm_v5,2020.2.10,Win32,60,61025ae37ef11b136ea224fe,,,,,,,,,1034,47,-86,1,0,0,response3disk,,4,8,-7,1,0,0,rectangle,8,-7,1,0,0,8,-7,1,0,0,1,99,259,118,1,,,,,,,,
,,,,,,,,,,,,,FF,,,,,,,,0.7554,,,,,,,,,,,,,,,,,,,,,,61022d296d11b07dd50a6793,61036a30236ad4ffc5587c4c,2021-07-29_22h57.51.232,Simcolourproject_2stim_asymm_v5,2020.2.10,Win32,60,61025ae37ef11b136ea224fe,,,,,,,,,1859,70,-41,1,0,0,response3disk,,5,22,-6,1,0,0,rectangle,22,-6,1,0,0,22,-6,1,0,0,1,100,260,74,1,,,,,,,,
,,,,,,,,,,,,,FF,,,,,,,,1.0269,,,,,,,,,,,,,,,,,,,,,,61022d296d11b07dd50a6793,61036a30236ad4ffc5587c4c,2021-07-29_22h57.51.232,Simcolourproject_2stim_asymm_v5,2020.2.10,Win32,60,61025ae37ef11b136ea224fe,,,,,,,,,2912,52,-69,1,0,0,response3disk,,4,11,15,1,0,0,rectangle,11,15,1,0,0,11,15,1,0,0,1,101,261,23,1,,,,,,,,
,,,,,,,,,,,,,FF,,,,,,,,0.5427,,,,,,,,,,,,,,,,,,,,,,61022d296d11b07dd50a6793,61036a30236ad4ffc5587c4c,2021-07-29_22h57.51.232,Simcolourproject_2stim_asymm_v5,2020.2.10,Win32,60,61025ae37ef11b136ea224fe,,,,,,,,,3831,44,-77,1,0,0,response3disk,,4,9,10,1,0,0,rectangle,9,10,1,0,0,9,10,1,0,0,1,102,262,80,1,,,,,,,,
,,,,,,,,,,,,,FF,,,,,,,,1.107,,,,,,,,,,,,,,,,,,,,,,61022d296d11b07dd50a6793,61036a30236ad4ffc5587c4c,2021-07-29_22h57.51.232,Simcolourproject_2stim_asymm_v5,2020.2.10,Win32,60,61025ae37ef11b136ea224fe,,,,,,,,,2939,68,-49,1,0,0,response3disk,,5,22,6,1,0,0,rectangle,22,6,1,0,0,22,6,1,0,0,1,103,263,153,1,,,,,,,,
,,,,,,,,,,,,,FF,,,,,,,,0.5331,,,,,,,,,,,,,,,,,,,,,,61022d296d11b07dd50a6793,61036a30236ad4ffc5587c4c,2021-07-29_22h57.51.232,Simcolourproject_2stim_asymm_v5,2020.2.10,Win32,60,61025ae37ef11b136ea224fe,,,,,,,,,1900,25,-63,1,0,0,response3disk,,4,-8,4,1,0,0,rectangle,-8,4,1,0,0,-8,4,1,0,0,1,104,264,60,1,,,,,,,,
,,,,,,,,,,,,,FF,,,,,,,,0.6704,,,,,,,,,,,,,,,,,,,,,,61022d296d11b07dd50a6793,61036a30236ad4ffc5587c4c,2021-07-29_22h57.51.232,Simcolourproject_2stim_asymm_v5,2020.2.10,Win32,60,61025ae37ef11b136ea224fe,,,,,,,,,3253,41,-103,1,0,0,response3disk,,4,6,-2,1,0,0,rectangle,6,-2,1,0,0,6,-2,1,0,0,1,105,265,132,1,,,,,,,,
,,,,,,,,,,,,,FF,,,,,,,,1.3606,,,,,,,,,,,,,,,,,,,,,,61022d296d11b07dd50a6793,61036a30236ad4ffc5587c4c,2021-07-29_22h57.51.232,Simcolourproject_2stim_asymm_v5,2020.2.10,Win32,60,61025ae37ef11b136ea224fe,,,,,,,,,1897,-68,-47,1,0,0,response5disk,,2,-5,-3,1,0,0,rectangle,-5,-3,1,0,0,-5,-3,1,0,0,1,106,266,51,1,,,,,,,,
,,,,,,,,,,,,,FF,,,,,,,,1.5389,,,,,,,,,,,,,,,,,,,,,,61022d296d11b07dd50a6793,61036a30236ad4ffc5587c4c,2021-07-29_22h57.51.232,Simcolourproject_2stim_asymm_v5,2020.2.10,Win32,60,61025ae37ef11b136ea224fe,,,,,,,,,3597,-69,-40,1,0,0,response5disk,,2,-19,-9,1,0,0,rectangle,-19,-9,1,0,0,-19,-9,1,0,0,1,107,267,119,1,,,,,,,,
,,,,,,,,,,,,,FF,,,,,,,,1.8131,,,,,,,,,,,,,,,,,,,,,,61022d296d11b07dd50a6793,61036a30236ad4ffc5587c4c,2021-07-29_22h57.51.232,Simcolourproject_2stim_asymm_v5,2020.2.10,Win32,60,61025ae37ef11b136ea224fe,,,,,,,,,3007,-37,-83,1,0,0,response5disk,,3,5,-3,1,0,0,rectangle,5,-3,1,0,0,5,-3,1,0,0,1,108,268,50,1,,,,,,,,
,,,,,,,,,,,,,FF,,,,,,,,0.6402,,,,,,,,,,,,,,,,,,,,,,61022d296d11b07dd50a6793,61036a30236ad4ffc5587c4c,2021-07-29_22h57.51.232,Simcolourproject_2stim_asymm_v5,2020.2.10,Win32,60,61025ae37ef11b136ea224fe,,,,,,,,,3361,-28,-72,1,0,0,response5disk,,3,-11,-6,1,0,0,rectangle,-11,-6,1,0,0,-11,-6,1,0,0,1,109,269,39,1,,,,,,,,
,,,,,,,,,,,,,FF,,,,,,,,1.079,,,,,,,,,,,,,,,,,,,,,,61022d296d11b07dd50a6793,61036a30236ad4ffc5587c4c,2021-07-29_22h57.51.232,Simcolourproject_2stim_asymm_v5,2020.2.10,Win32,60,61025ae37ef11b136ea224fe,,,,,,,,,187,68,-51,1,0,0,response3disk,,5,21,-4,1,0,0,rectangle,21,-4,1,0,0,21,-4,1,0,0,1,110,270,100,1,,,,,,,,
,,,,,,,,,,,,,FF,,,,,,,,1.0804,,,,,,,,,,,,,,,,,,,,,,61022d296d11b07dd50a6793,61036a30236ad4ffc5587c4c,2021-07-29_22h57.51.232,Simcolourproject_2stim_asymm_v5,2020.2.10,Win32,60,61025ae37ef11b136ea224fe,,,,,,,,,2359,-80,-55,1,0,0,response5disk,,2,-23,-5,1,0,0,rectangle,-23,-5,1,0,0,-23,-5,1,0,0,1,111,271,134,1,,,,,,,,
,,,,,,,,,,,,,FF,,,,,,,,0.7871,,,,,,,,,,,,,,,,,,,,,,61022d296d11b07dd50a6793,61036a30236ad4ffc5587c4c,2021-07-29_22h57.51.232,Simcolourproject_2stim_asymm_v5,2020.2.10,Win32,60,61025ae37ef11b136ea224fe,,,,,,,,,1253,32,-88,1,0,0,response3disk,,4,4,9,1,0,0,rectangle,4,9,1,0,0,4,9,1,0,0,1,112,272,112,1,,,,,,,,
,,,,,,,,,,,,,FF,,,,,,,,0.6269,,,,,,,,,,,,,,,,,,,,,,61022d296d11b07dd50a6793,61036a30236ad4ffc5587c4c,2021-07-29_22h57.51.232,Simcolourproject_2stim_asymm_v5,2020.2.10,Win32,60,61025ae37ef11b136ea224fe,,,,,,,,,1481,-40,-74,1,0,0,response5disk,,3,-4,-1,1,0,0,rectangle,-4,-1,1,0,0,-4,-1,1,0,0,1,113,273,18,1,,,,,,,,
,,,,,,,,,,,,,FF,,,,,,,,1.6003,,,,,,,,,,,,,,,,,,,,,,61022d296d11b07dd50a6793,61036a30236ad4ffc5587c4c,2021-07-29_22h57.51.232,Simcolourproject_2stim_asymm_v5,2020.2.10,Win32,60,61025ae37ef11b136ea224fe,,,,,,,,,4006,-60,-84,1,0,0,response5disk,,3,2,8,1,0,0,rectangle,2,8,1,0,0,2,8,1,0,0,1,114,274,84,1,,,,,,,,
,,,,,,,,,,,,,FF,,,,,,,,0.787,,,,,,,,,,,,,,,,,,,,,,61022d296d11b07dd50a6793,61036a30236ad4ffc5587c4c,2021-07-29_22h57.51.232,Simcolourproject_2stim_asymm_v5,2020.2.10,Win32,60,61025ae37ef11b136ea224fe,,,,,,,,,2058,34,-42,1,0,0,response3disk,,4,-19,-6,1,0,0,rectangle,-19,-6,1,0,0,-19,-6,1,0,0,1,115,275,82,1,,,,,,,,
,,,,,,,,,,,,,FF,,,,,,,,3.5703,,,,,,,,,,,,,,,,,,,,,,61022d296d11b07dd50a6793,61036a30236ad4ffc5587c4c,2021-07-29_22h57.51.232,Simcolourproject_2stim_asymm_v5,2020.2.10,Win32,60,61025ae37ef11b136ea224fe,,,,,,,,,1998,125,-53,1,0,0,response3disk,,5,4,-2,1,0,0,rectangle,4,-2,1,0,0,4,-2,1,0,0,1,116,276,77,1,,,,,,,,
,,,,,,,,,,,,,FF,,,,,,,,1.0816,,,,,,,,,,,,,,,,,,,,,,61022d296d11b07dd50a6793,61036a30236ad4ffc5587c4c,2021-07-29_22h57.51.232,Simcolourproject_2stim_asymm_v5,2020.2.10,Win32,60,61025ae37ef11b136ea224fe,,,,,,,,,2054,44,-81,1,0,0,response3disk,,4,9,-6,1,0,0,rectangle,9,-6,1,0,0,9,-6,1,0,0,1,117,277,89,1,,,,,,,,
,,,,,,,,,,,,,FF,,,,,,,,1.0352,,,,,,,,,,,,,,,,,,,,,,61022d296d11b07dd50a6793,61036a30236ad4ffc5587c4c,2021-07-29_22h57.51.232,Simcolourproject_2stim_asymm_v5,2020.2.10,Win32,60,61025ae37ef11b136ea224fe,,,,,,,,,2456,59,-80,1,0,0,response3disk,,4,5,-7,1,0,0,rectangle,5,-7,1,0,0,5,-7,1,0,0,1,118,278,94,1,,,,,,,,
,,,,,,,,,,,,,FF,,,,,,,,4.4598,,,,,,,,,,,,,,,,,,,,,,61022d296d11b07dd50a6793,61036a30236ad4ffc5587c4c,2021-07-29_22h57.51.232,Simcolourproject_2stim_asymm_v5,2020.2.10,Win32,60,61025ae37ef11b136ea224fe,,,,,,,,,1654,-55,-88,1,0,0,response5disk,,3,28,-14,1,0,0,rectangle,28,-14,1,0,0,28,-14,1,0,0,1,119,279,81,1,,,,,,,,
,,,,,,,,,,,,,FF,,,,,,,,0.987,,,,,,,,,,,,,,,,,,,,,,61022d296d11b07dd50a6793,61036a30236ad4ffc5587c4c,2021-07-29_22h57.51.232,Simcolourproject_2stim_asymm_v5,2020.2.10,Win32,60,61025ae37ef11b136ea224fe,,,,,,,,,4050,-44,-80,1,0,0,response5disk,,3,0,-4,1,0,0,rectangle,0,-4,1,0,0,0,-4,1,0,0,1,120,280,123,1,,,,,,,,
,,,,,,,,,,,,,FF,,,,,,,,0.6788,,,,,,,,,,,,,,,,,,,,,,61022d296d11b07dd50a6793,61036a30236ad4ffc5587c4c,2021-07-29_22h57.51.232,Simcolourproject_2stim_asymm_v5,2020.2.10,Win32,60,61025ae37ef11b136ea224fe,,,,,,,,,649,84,-53,1,0,0,response3disk,,5,4,-4,1,0,0,rectangle,4,-4,1,0,0,4,-4,1,0,0,1,121,281,53,1,,,,,,,,
,,,,,,,,,,,,,FF,,,,,,,,0.6002,,,,,,,,,,,,,,,,,,,,,,61022d296d11b07dd50a6793,61036a30236ad4ffc5587c4c,2021-07-29_22h57.51.232,Simcolourproject_2stim_asymm_v5,2020.2.10,Win32,60,61025ae37ef11b136ea224fe,,,,,,,,,1591,40,-67,1,0,0,response3disk,,4,14,-5,1,0,0,rectangle,14,-5,1,0,0,14,-5,1,0,0,1,122,282,97,1,,,,,,,,
,,,,,,,,,,,,,FF,,,,,,,,1.2538,,,,,,,,,,,,,,,,,,,,,,61022d296d11b07dd50a6793,61036a30236ad4ffc5587c4c,2021-07-29_22h57.51.232,Simcolourproject_2stim_asymm_v5,2020.2.10,Win32,60,61025ae37ef11b136ea224fe,,,,,,,,,2212,59,-38,1,0,0,response3disk,,5,11,-10,1,0,0,rectangle,11,-10,1,0,0,11,-10,1,0,0,1,123,283,10,1,,,,,,,,
,,,,,,,,,,,,,FF,,,,,,,,1.8924,,,,,,,,,,,,,,,,,,,,,,61022d296d11b07dd50a6793,61036a30236ad4ffc5587c4c,2021-07-29_22h57.51.232,Simcolourproject_2stim_asymm_v5,2020.2.10,Win32,60,61025ae37ef11b136ea224fe,,,,,,,,,1108,44,-169,1,0,0,response3disk,,4,1,-12,1,0,0,rectangle,1,-12,1,0,0,1,-12,1,0,0,1,124,284,157,1,,,,,,,,
,,,,,,,,,,,,,FF,,,,,,,,1.6674,,,,,,,,,,,,,,,,,,,,,,61022d296d11b07dd50a6793,61036a30236ad4ffc5587c4c,2021-07-29_22h57.51.232,Simcolourproject_2stim_asymm_v5,2020.2.10,Win32,60,61025ae37ef11b136ea224fe,,,,,,,,,227,131,-57,1,0,0,response3disk,,5,-10,9,1,0,0,rectangle,-10,9,1,0,0,-10,9,1,0,0,1,125,285,76,1,,,,,,,,
,,,,,,,,,,,,,FF,,,,,,,,0.707,,,,,,,,,,,,,,,,,,,,,,61022d296d11b07dd50a6793,61036a30236ad4ffc5587c4c,2021-07-29_22h57.51.232,Simcolourproject_2stim_asymm_v5,2020.2.10,Win32,60,61025ae37ef11b136ea224fe,,,,,,,,,25,95,-31,1,0,0,response3disk,,5,29,4,1,0,0,rectangle,29,4,1,0,0,29,4,1,0,0,1,126,286,13,1,,,,,,,,
,,,,,,,,,,,,,FF,,,,,,,,0.7644,,,,,,,,,,,,,,,,,,,,,,61022d296d11b07dd50a6793,61036a30236ad4ffc5587c4c,2021-07-29_22h57.51.232,Simcolourproject_2stim_asymm_v5,2020.2.10,Win32,60,61025ae37ef11b136ea224fe,,,,,,,,,3941,-52,-107,1,0,0,response5disk,,3,-22,8,1,0,0,rectangle,-22,8,1,0,0,-22,8,1,0,0,1,127,287,143,1,,,,,,,,
,,,,,,,,,,,,,FF,,,,,,,,0.6137,,,,,,,,,,,,,,,,,,,,,,61022d296d11b07dd50a6793,61036a30236ad4ffc5587c4c,2021-07-29_22h57.51.232,Simcolourproject_2stim_asymm_v5,2020.2.10,Win32,60,61025ae37ef11b136ea224fe,,,,,,,,,4206,-69,-46,1,0,0,response5disk,,2,-15,-7,1,0,0,rectangle,-15,-7,1,0,0,-15,-7,1,0,0,1,128,288,95,1,,,,,,,,
,,,,,,,,,,,,,FF,,,,,,,,1.7982,,,,,,,,,,,,,,,,,,,,,,61022d296d11b07dd50a6793,61036a30236ad4ffc5587c4c,2021-07-29_22h57.51.232,Simcolourproject_2stim_asymm_v5,2020.2.10,Win32,60,61025ae37ef11b136ea224fe,,,,,,,,,411,-54,-99,1,0,0,response5disk,,3,14,-4,1,0,0,rectangle,56,-109,1,0,0,18,13,1,0,0,1,129,289,145,1,,response3disk_3,TRUE,4,4,"[64,8,219,85,173,218,68,320,14,12,222,177,290,15,57,303,294,19,7,245]",1.7927,rectangle
,,,,,,,,,,,,,FF,,,,,,,,0.7337,,,,,,,,,,,,,,,,,,,,,,61022d296d11b07dd50a6793,61036a30236ad4ffc5587c4c,2021-07-29_22h57.51.232,Simcolourproject_2stim_asymm_v5,2020.2.10,Win32,60,61025ae37ef11b136ea224fe,,,,,,,,,173,-45,-125,1,0,0,response5disk,,3,8,-7,1,0,0,rectangle,8,-7,1,0,0,8,-7,1,0,0,1,130,290,111,1,,,,,,,,
,,,,,,,,,,,,,FF,,,,,,,,1.8855,,,,,,,,,,,,,,,,,,,,,,61022d296d11b07dd50a6793,61036a30236ad4ffc5587c4c,2021-07-29_22h57.51.232,Simcolourproject_2stim_asymm_v5,2020.2.10,Win32,60,61025ae37ef11b136ea224fe,,,,,,,,,4069,103,-78,1,0,0,response3disk,,5,12,-2,1,0,0,rectangle,12,-2,1,0,0,12,-2,1,0,0,1,131,291,71,1,,,,,,,,
,,,,,,,,,,,,,FF,,,,,,,,1.7608,,,,,,,,,,,,,,,,,,,,,,61022d296d11b07dd50a6793,61036a30236ad4ffc5587c4c,2021-07-29_22h57.51.232,Simcolourproject_2stim_asymm_v5,2020.2.10,Win32,60,61025ae37ef11b136ea224fe,,,,,,,,,1224,-49,-113,1,0,0,response5disk,,3,-7,-16,1,0,0,rectangle,-7,-16,1,0,0,-7,-16,1,0,0,1,132,292,88,1,,,,,,,,
,,,,,,,,,,,,,FF,,,,,,,,1.1193,,,,,,,,,,,,,,,,,,,,,,61022d296d11b07dd50a6793,61036a30236ad4ffc5587c4c,2021-07-29_22h57.51.232,Simcolourproject_2stim_asymm_v5,2020.2.10,Win32,60,61025ae37ef11b136ea224fe,,,,,,,,,2662,-105,64,1,0,0,response7disk,,1,-35,6,1,0,0,rectangle,-54,148,1,0,0,7,4,1,0,0,1,133,293,127,1,,response7disk_3,TRUE,0,0,"[64,8,219,85,173,218,68,320,14,12,222,177,290,15,57,303,294,19,7,245]",1.0536,rectangle
,,,,,,,,,,,,,FF,,,,,,,,1.3205,,,,,,,,,,,,,,,,,,,,,,61022d296d11b07dd50a6793,61036a30236ad4ffc5587c4c,2021-07-29_22h57.51.232,Simcolourproject_2stim_asymm_v5,2020.2.10,Win32,60,61025ae37ef11b136ea224fe,,,,,,,,,1080,107,43,1,0,0,response1disk,,6,19,4,1,0,0,rectangle,19,4,1,0,0,19,4,1,0,0,1,134,294,135,1,,,,,,,,
,,,,,,,,,,,,,FF,,,,,,,,1.0936,,,,,,,,,,,,,,,,,,,,,,61022d296d11b07dd50a6793,61036a30236ad4ffc5587c4c,2021-07-29_22h57.51.232,Simcolourproject_2stim_asymm_v5,2020.2.10,Win32,60,61025ae37ef11b136ea224fe,,,,,,,,,2536,59,-107,1,0,0,response3disk,,4,11,3,1,0,0,rectangle,11,3,1,0,0,11,3,1,0,0,1,135,295,120,1,,,,,,,,
,,,,,,,,,,,,,FF,,,,,,,,2.0939,,,,,,,,,,,,,,,,,,,,,,61022d296d11b07dd50a6793,61036a30236ad4ffc5587c4c,2021-07-29_22h57.51.232,Simcolourproject_2stim_asymm_v5,2020.2.10,Win32,60,61025ae37ef11b136ea224fe,,,,,,,,,1802,96,-72,1,0,0,response3disk,,5,24,-6,1,0,0,rectangle,24,-6,1,0,0,24,-6,1,0,0,1,136,296,6,1,,,,,,,,
,,,,,,,,,,,,,FF,,,,,,,,0.7524,,,,,,,,,,,,,,,,,,,,,,61022d296d11b07dd50a6793,61036a30236ad4ffc5587c4c,2021-07-29_22h57.51.232,Simcolourproject_2stim_asymm_v5,2020.2.10,Win32,60,61025ae37ef11b136ea224fe,,,,,,,,,3035,101,-46,1,0,0,response3disk,,5,-4,-10,1,0,0,rectangle,-4,-10,1,0,0,-4,-10,1,0,0,1,137,297,8,1,,,,,,,,
,,,,,,,,,,,,,FF,,,,,,,,0.6938,,,,,,,,,,,,,,,,,,,,,,61022d296d11b07dd50a6793,61036a30236ad4ffc5587c4c,2021-07-29_22h57.51.232,Simcolourproject_2stim_asymm_v5,2020.2.10,Win32,60,61025ae37ef11b136ea224fe,,,,,,,,,315,68,-125,1,0,0,response3disk,,4,-7,-11,1,0,0,rectangle,-7,-11,1,0,0,-7,-11,1,0,0,1,138,298,25,1,,,,,,,,
,,,,,,,,,,,,,FF,,,,,,,,2.5074,,,,,,,,,,,,,,,,,,,,,,61022d296d11b07dd50a6793,61036a30236ad4ffc5587c4c,2021-07-29_22h57.51.232,Simcolourproject_2stim_asymm_v5,2020.2.10,Win32,60,61025ae37ef11b136ea224fe,,,,,,,,,1499,88,-50,1,0,0,response3disk,,5,-9,-3,1,0,0,rectangle,-9,-3,1,0,0,-9,-3,1,0,0,1,139,299,122,1,,,,,,,,
,,,,,,,,,,,,,FF,,,,,,,,2.8687,,,,,,,,,,,,,,,,,,,,,,61022d296d11b07dd50a6793,61036a30236ad4ffc5587c4c,2021-07-29_22h57.51.232,Simcolourproject_2stim_asymm_v5,2020.2.10,Win32,60,61025ae37ef11b136ea224fe,,,,,,,,,3580,103,-48,1,0,0,response3disk,,5,9,8,1,0,0,rectangle,9,8,1,0,0,9,8,1,0,0,1,140,300,129,1,,,,,,,,
,,,,,,,,,,,,,FF,,,,,,,,1.5338,,,,,,,,,,,,,,,,,,,,,,61022d296d11b07dd50a6793,61036a30236ad4ffc5587c4c,2021-07-29_22h57.51.232,Simcolourproject_2stim_asymm_v5,2020.2.10,Win32,60,61025ae37ef11b136ea224fe,,,,,,,,,888,-125,40,1,0,0,response7disk,,1,8,-2,1,0,0,rectangle,8,-2,1,0,0,8,-2,1,0,0,1,141,301,21,1,,,,,,,,
