key_resp.keys,key_resp.rt,key_resp_14.keys,key_resp_14.rt,key_resp_15.keys,key_resp_15.rt,key_resp_17.keys,key_resp_17.rt,key_resp_9.keys,key_resp_9.rt,key_resp_10.keys,key_resp_10.rt,practice_comparison,Ecc,mouse_5.x,mouse_5.y,mouse_5.leftButton,mouse_5.midButton,mouse_5.rightButton,mouse_5.clicked_name,pracsimilarity,response_time,mouse_10.x,mouse_10.y,mouse_10.leftButton,mouse_10.midButton,mouse_10.rightButton,mouse_10.clicked_name,mouse_7.x,mouse_7.y,mouse_7.leftButton,mouse_7.midButton,mouse_7.rightButton,mouse_6.x,mouse_6.y,mouse_6.leftButton,mouse_6.midButton,mouse_6.rightButton,duringprac.thisRepN,duringprac.thisTrialN,duringprac.thisN,duringprac.thisIndex,duringprac.ran,participant,session,date,expName,psychopyVersion,OS,frameRate,study_id,mouse_7.clicked_name,catchpracsimilarity,catch_response_time,catchnumberprac,catchtrialorderprac,mouse_6.clicked_name,key_resp_22.keys,key_resp_22.rt,realcomparison,mouse.x,mouse.y,mouse.leftButton,mouse.midButton,mouse.rightButton,mouse.clicked_name,Colour2,similarity,mouse_2.x,mouse_2.y,mouse_2.leftButton,mouse_2.midButton,mouse_2.rightButton,mouse_2.clicked_name,mouse_3.x,mouse_3.y,mouse_3.leftButton,mouse_3.midButton,mouse_3.rightButton,mouse_11.x,mouse_11.y,mouse_11.leftButton,mouse_11.midButton,mouse_11.rightButton,trials_2.thisRepN,trials_2.thisTrialN,trials_2.thisN,trials_2.thisIndex,trials_2.ran,Colour1,mouse_3.clicked_name,catchornah,catchsimilarity,catchnumber,catchtrialorder,catchRT,mouse_11.clicked_name
space,1.6126,space,11.2455,space,19.7409,space,4.1895,space,2.7012,space,8.3394,65,FF,-27.19998896,-88.80000776,1,0,0,response5disk_5,3,8.4357,-0.799988568,11.99999374,1,0,0,rectangle_8,-0.799988568,11.99999374,1,0,0,-0.799988568,11.99999374,1,0,0,0,0,0,3,1,6102fc0089a279de6a998e7d,61036e281cbe328e09cf2619,2021-07-30_04h13.03.811,Simcolourproject_2stim_asymm_v5,2020.2.10,Win32,60,61025ae37ef11b136ea224fe,,,,,,,,,,,,,,,,,,,,,,,,,,,,,,,,,,,,,,,,,,,,,,
,,,,,,,,,,,,99,PF,61.60001236,119.1999709,1,0,0,response1disk_5,7,9.097,12.80001163,-4.000006497,1,0,0,rectangle_8,30.4000119,85.59999484,1,0,0,2.40001148,-2.400006473,1,0,0,0,1,1,6,1,6102fc0089a279de6a998e7d,61036e281cbe328e09cf2619,2021-07-30_04h13.03.811,Simcolourproject_2stim_asymm_v5,2020.2.10,Win32,60,61025ae37ef11b136ea224fe,response1disk_7,7,3.5499,7,"[2,5]",rectangle_4,,,,,,,,,,,,,,,,,,,,,,,,,,,,,,,,,,,,,,,,
,,,,,,,,,,,,143,FF,110.4000131,33.59999406,1,0,0,response1disk_5,6,6.2987,-9.599988699,-0.800006449,1,0,0,rectangle_8,-9.599988699,-0.800006449,1,0,0,-9.599988699,-0.800006449,1,0,0,0,2,2,5,1,6102fc0089a279de6a998e7d,61036e281cbe328e09cf2619,2021-07-30_04h13.03.811,Simcolourproject_2stim_asymm_v5,2020.2.10,Win32,60,61025ae37ef11b136ea224fe,,,,,,,,,,,,,,,,,,,,,,,,,,,,,,,,,,,,,,,,,,,,,,
,,,,,,,,,,,,70,PF,-73.59998965,-40.80000705,1,0,0,response5disk_5,2,6.5156,-1.59998858,7.999993682,1,0,0,rectangle_8,-1.59998858,7.999993682,1,0,0,-1.59998858,7.999993682,1,0,0,0,3,3,1,1,6102fc0089a279de6a998e7d,61036e281cbe328e09cf2619,2021-07-30_04h13.03.811,Simcolourproject_2stim_asymm_v5,2020.2.10,Win32,60,61025ae37ef11b136ea224fe,,,,,,,,,,,,,,,,,,,,,,,,,,,,,,,,,,,,,,,,,,,,,,
,,,,,,,,,,,,111,FF,-37.59998912,-89.6000566,1,0,0,response5disk_5,3,1.7663,-11.19998872,4.799993634,1,0,0,rectangle_8,42.40001208,97.59999502,1,0,0,-3.999988616,-1.600006461,1,0,0,0,4,4,0,1,6102fc0089a279de6a998e7d,61036e281cbe328e09cf2619,2021-07-30_04h13.03.811,Simcolourproject_2stim_asymm_v5,2020.2.10,Win32,60,61025ae37ef11b136ea224fe,response1disk_7,7,1.9158,7,"[2,5]",rectangle_4,,,,,,,,,,,,,,,,,,,,,,,,,,,,,,,,,,,,,,,,
,,,,,,,,,,,,12,PF,-33.59998906,-117.600057,1,0,0,response5disk_5,3,2.0326,-7.999988675,-0.800006449,1,0,0,rectangle_8,-7.999988675,-0.800006449,1,0,0,-7.999988675,-0.800006449,1,0,0,0,5,5,2,1,6102fc0089a279de6a998e7d,61036e281cbe328e09cf2619,2021-07-30_04h13.03.811,Simcolourproject_2stim_asymm_v5,2020.2.10,Win32,60,61025ae37ef11b136ea224fe,,,,,,,,,,,,,,,,,,,,,,,,,,,,,,,,,,,,,,,,,,,,,,
,,,,,,,,,,,,10,PF,111.2000131,-48.00000715,1,0,0,response3disk_5,5,4.5639,13.60006047,-6.4373E-06,1,0,0,rectangle_8,13.60006047,-6.4373E-06,1,0,0,13.60006047,-6.4373E-06,1,0,0,0,6,6,4,1,6102fc0089a279de6a998e7d,61036e281cbe328e09cf2619,2021-07-30_04h13.03.811,Simcolourproject_2stim_asymm_v5,2020.2.10,Win32,60,61025ae37ef11b136ea224fe,,,,,,,,,,,,,,,,,,,,,,,,,,,,,,,,,,,,,,,,,,,,,,
,,,,,,,,,,,,,FF,,,,,,,,6.6337,,,,,,,,,,,,,,,,,,,,,,6102fc0089a279de6a998e7d,61036e281cbe328e09cf2619,2021-07-30_04h13.03.811,Simcolourproject_2stim_asymm_v5,2020.2.10,Win32,60,61025ae37ef11b136ea224fe,,,,,,,space,5.3392,2681,101.600013,-60.00000733,1,0,0,response3disk,,5,21.60006059,3.999993622,1,0,0,rectangle,21.60006059,3.999993622,1,0,0,21.60006059,3.999993622,1,0,0,0,0,0,131,1,,,,,,,,
,,,,,,,,,,,,,FF,,,,,,,,2.8335,,,,,,,,,,,,,,,,,,,,,,6102fc0089a279de6a998e7d,61036e281cbe328e09cf2619,2021-07-30_04h13.03.811,Simcolourproject_2stim_asymm_v5,2020.2.10,Win32,60,61025ae37ef11b136ea224fe,,,,,,,,,1585,28.80001187,75.19997027,1,0,0,response1disk,,7,-7.999988675,7.999993682,1,0,0,rectangle,-7.999988675,7.999993682,1,0,0,-7.999988675,7.999993682,1,0,0,0,1,1,81,1,,,,,,,,
,,,,,,,,,,,,,FF,,,,,,,,1.8501,,,,,,,,,,,,,,,,,,,,,,6102fc0089a279de6a998e7d,61036e281cbe328e09cf2619,2021-07-30_04h13.03.811,Simcolourproject_2stim_asymm_v5,2020.2.10,Win32,60,61025ae37ef11b136ea224fe,,,,,,,,,3266,113.6000131,-35.20000696,1,0,0,response3disk,,5,-2.399939764,-3.200006485,1,0,0,rectangle,-2.399939764,-3.200006485,1,0,0,-2.399939764,-3.200006485,1,0,0,0,2,2,76,1,,,,,,,,
,,,,,,,,,,,,,FF,,,,,,,,3.598,,,,,,,,,,,,,,,,,,,,,,6102fc0089a279de6a998e7d,61036e281cbe328e09cf2619,2021-07-30_04h13.03.811,Simcolourproject_2stim_asymm_v5,2020.2.10,Win32,60,61025ae37ef11b136ea224fe,,,,,,,,,3561,50.4000122,-96.00000787,1,0,0,response3disk,,4,0.800011456,-5.600006521,1,0,0,rectangle,0.800011456,-5.600006521,1,0,0,0.800011456,-5.600006521,1,0,0,0,3,3,126,1,,,,,,,,
,,,,,,,,,,,,,FF,,,,,,,,2.2338,,,,,,,,,,,,,,,,,,,,,,6102fc0089a279de6a998e7d,61036e281cbe328e09cf2619,2021-07-30_04h13.03.811,Simcolourproject_2stim_asymm_v5,2020.2.10,Win32,60,61025ae37ef11b136ea224fe,,,,,,,,,665,45.60006095,-116.8000082,1,0,0,response3disk,,4,-4.799988627,-2.400006473,1,0,0,rectangle,-4.799988627,-2.400006473,1,0,0,-4.799988627,-2.400006473,1,0,0,0,4,4,156,1,,,,,,,,
,,,,,,,,,,,,,FF,,,,,,,,2.2987,,,,,,,,,,,,,,,,,,,,,,6102fc0089a279de6a998e7d,61036e281cbe328e09cf2619,2021-07-30_04h13.03.811,Simcolourproject_2stim_asymm_v5,2020.2.10,Win32,60,61025ae37ef11b136ea224fe,,,,,,,,,1636,30.4000119,87.99999487,1,0,0,response1disk,,7,-19.19998884,1.599993587,1,0,0,rectangle,-19.19998884,1.599993587,1,0,0,-19.19998884,1.599993587,1,0,0,0,5,5,58,1,,,,,,,,
,,,,,,,,,,,,,FF,,,,,,,,2.5996,,,,,,,,,,,,,,,,,,,,,,6102fc0089a279de6a998e7d,61036e281cbe328e09cf2619,2021-07-30_04h13.03.811,Simcolourproject_2stim_asymm_v5,2020.2.10,Win32,60,61025ae37ef11b136ea224fe,,,,,,,,,4326,-47.19998926,120.7999954,1,0,0,response7disk,,0,-11.19998872,11.99999374,1,0,0,rectangle,-11.19998872,11.99999374,1,0,0,-11.19998872,11.99999374,1,0,0,0,6,6,24,1,,,,,,,,
,,,,,,,,,,,,,FF,,,,,,,,2.6996,,,,,,,,,,,,,,,,,,,,,,6102fc0089a279de6a998e7d,61036e281cbe328e09cf2619,2021-07-30_04h13.03.811,Simcolourproject_2stim_asymm_v5,2020.2.10,Win32,60,61025ae37ef11b136ea224fe,,,,,,,,,3094,-72.79998964,-51.2000072,1,0,0,response5disk,,2,-1.59998858,8.799993694,1,0,0,rectangle,-1.59998858,8.799993694,1,0,0,-1.59998858,8.799993694,1,0,0,0,7,7,103,1,,,,,,,,
,,,,,,,,,,,,,FF,,,,,,,,1.5832,,,,,,,,,,,,,,,,,,,,,,6102fc0089a279de6a998e7d,61036e281cbe328e09cf2619,2021-07-30_04h13.03.811,Simcolourproject_2stim_asymm_v5,2020.2.10,Win32,60,61025ae37ef11b136ea224fe,,,,,,,,,504,102.400013,41.59999418,1,0,0,response1disk,,6,-15.19998878,7.999993682,1,0,0,rectangle,-15.19998878,7.999993682,1,0,0,-15.19998878,7.999993682,1,0,0,0,8,8,38,1,,,,,,,,
,,,,,,,,,,,,,FF,,,,,,,,1.2502,,,,,,,,,,,,,,,,,,,,,,6102fc0089a279de6a998e7d,61036e281cbe328e09cf2619,2021-07-30_04h13.03.811,Simcolourproject_2stim_asymm_v5,2020.2.10,Win32,60,61025ae37ef11b136ea224fe,,,,,,,,,2715,-87.99998987,-48.80000716,1,0,0,response5disk,,2,-9.599988699,4.799993634,1,0,0,rectangle,-9.599988699,4.799993634,1,0,0,-9.599988699,4.799993634,1,0,0,0,9,9,11,1,,,,,,,,
,,,,,,,,,,,,,FF,,,,,,,,1.5329,,,,,,,,,,,,,,,,,,,,,,6102fc0089a279de6a998e7d,61036e281cbe328e09cf2619,2021-07-30_04h13.03.811,Simcolourproject_2stim_asymm_v5,2020.2.10,Win32,60,61025ae37ef11b136ea224fe,,,,,,,,,3944,47.20001215,-93.60005666,1,0,0,response3disk,,4,2.40001148,2.399993598,1,0,0,rectangle,2.40001148,2.399993598,1,0,0,2.40001148,2.399993598,1,0,0,0,10,10,33,1,,,,,,,,
,,,,,,,,,,,,,FF,,,,,,,,3.6811,,,,,,,,,,,,,,,,,,,,,,6102fc0089a279de6a998e7d,61036e281cbe328e09cf2619,2021-07-30_04h13.03.811,Simcolourproject_2stim_asymm_v5,2020.2.10,Win32,60,61025ae37ef11b136ea224fe,,,,,,,,,1809,112.0000131,-37.600007,1,0,0,response3disk,,5,4.800011516,-6.4373E-06,1,0,0,rectangle,4.800011516,-6.4373E-06,1,0,0,4.800011516,-6.4373E-06,1,0,0,0,11,11,159,1,,,,,,,,
,,,,,,,,,,,,,FF,,,,,,,,4.7816,,,,,,,,,,,,,,,,,,,,,,6102fc0089a279de6a998e7d,61036e281cbe328e09cf2619,2021-07-30_04h13.03.811,Simcolourproject_2stim_asymm_v5,2020.2.10,Win32,60,61025ae37ef11b136ea224fe,,,,,,,,,4073,81.60001266,-63.20000738,1,0,0,response3disk,,5,12.00001162,-8.800006568,1,0,0,rectangle,12.00001162,-8.800006568,1,0,0,12.00001162,-8.800006568,1,0,0,0,12,12,92,1,,,,,,,,
,,,,,,,,,,,,,FF,,,,,,,,3.9658,,,,,,,,,,,,,,,,,,,,,,6102fc0089a279de6a998e7d,61036e281cbe328e09cf2619,2021-07-30_04h13.03.811,Simcolourproject_2stim_asymm_v5,2020.2.10,Win32,60,61025ae37ef11b136ea224fe,,,,,,,,,4256,48.00001216,-101.6000568,1,0,0,response3disk,,4,-2.399939764,2.399993598,1,0,0,rectangle,-2.399939764,2.399993598,1,0,0,-2.399939764,2.399993598,1,0,0,0,13,13,66,1,,,,,,,,
,,,,,,,,,,,,,FF,,,,,,,,1.816,,,,,,,,,,,,,,,,,,,,,,6102fc0089a279de6a998e7d,61036e281cbe328e09cf2619,2021-07-30_04h13.03.811,Simcolourproject_2stim_asymm_v5,2020.2.10,Win32,60,61025ae37ef11b136ea224fe,,,,,,,,,3159,42.40001208,87.19997045,1,0,0,response1disk,,7,8.800011575,3.999993622,1,0,0,rectangle,8.800011575,3.999993622,1,0,0,8.800011575,3.999993622,1,0,0,0,14,14,106,1,,,,,,,,
,,,,,,,,,,,,,FF,,,,,,,,2.7993,,,,,,,,,,,,,,,,,,,,,,6102fc0089a279de6a998e7d,61036e281cbe328e09cf2619,2021-07-30_04h13.03.811,Simcolourproject_2stim_asymm_v5,2020.2.10,Win32,60,61025ae37ef11b136ea224fe,,,,,,,,,2157,96.80001289,-44.00000709,1,0,0,response3disk,,5,-15.19998878,-4.000006497,1,0,0,rectangle,-15.19998878,-4.000006497,1,0,0,-15.19998878,-4.000006497,1,0,0,0,15,15,46,1,,,,,,,,
,,,,,,,,,,,,,FF,,,,,,,,1.1165,,,,,,,,,,,,,,,,,,,,,,6102fc0089a279de6a998e7d,61036e281cbe328e09cf2619,2021-07-30_04h13.03.811,Simcolourproject_2stim_asymm_v5,2020.2.10,Win32,60,61025ae37ef11b136ea224fe,,,,,,,,,3265,89.60001278,-36.80000699,1,0,0,response3disk,,5,-15.19998878,1.599993587,1,0,0,rectangle,-15.19998878,1.599993587,1,0,0,-15.19998878,1.599993587,1,0,0,0,16,16,54,1,,,,,,,,
,,,,,,,,,,,,,FF,,,,,,,,3.4158,,,,,,,,,,,,,,,,,,,,,,6102fc0089a279de6a998e7d,61036e281cbe328e09cf2619,2021-07-30_04h13.03.811,Simcolourproject_2stim_asymm_v5,2020.2.10,Win32,60,61025ae37ef11b136ea224fe,,,,,,,,,188,-42.39994036,-108.000008,1,0,0,response5disk,,3,-19.99998885,-3.200006485,1,0,0,rectangle,-36.7999891,-106.400008,1,0,0,-7.199988663,3.999993622,1,0,0,0,17,17,138,1,,response5disk_3,TRUE,3,3,"[85,41,308,298,18,143,269,102,58,204,166,246,33,231,280,45,319,69,317,21]",2.5986,rectangle
,,,,,,,,,,,,,FF,,,,,,,,1.0993,,,,,,,,,,,,,,,,,,,,,,6102fc0089a279de6a998e7d,61036e281cbe328e09cf2619,2021-07-30_04h13.03.811,Simcolourproject_2stim_asymm_v5,2020.2.10,Win32,60,61025ae37ef11b136ea224fe,,,,,,,,,43,35.20001197,103.9999951,1,0,0,response1disk,,7,3.200011492,3.19999361,1,0,0,rectangle,3.200011492,3.19999361,1,0,0,3.200011492,3.19999361,1,0,0,0,18,18,34,1,,,,,,,,
,,,,,,,,,,,,,FF,,,,,,,,46.5179,,,,,,,,,,,,,,,,,,,,,,6102fc0089a279de6a998e7d,61036e281cbe328e09cf2619,2021-07-30_04h13.03.811,Simcolourproject_2stim_asymm_v5,2020.2.10,Win32,60,61025ae37ef11b136ea224fe,,,,,,,,,1948,46.40001214,-116.8000082,1,0,0,response3disk,,4,14.40001166,1.599993587,1,0,0,rectangle,14.40001166,1.599993587,1,0,0,14.40001166,1.599993587,1,0,0,0,19,19,108,1,,,,,,,,
,,,,,,,,,,,,,FF,,,,,,,,4.4147,,,,,,,,,,,,,,,,,,,,,,6102fc0089a279de6a998e7d,61036e281cbe328e09cf2619,2021-07-30_04h13.03.811,Simcolourproject_2stim_asymm_v5,2020.2.10,Win32,60,61025ae37ef11b136ea224fe,,,,,,,,,3253,65.60001242,-101.6000568,1,0,0,response3disk,,4,17.60006053,-5.600006521,1,0,0,rectangle,126.4000133,-36.80000699,1,0,0,16.80001169,-8.800006568,1,0,0,0,20,20,44,1,,response3disk_3,TRUE,5,5,"[85,41,308,298,18,143,269,102,58,204,166,246,33,231,280,45,319,69,317,21]",1078.9131,rectangle
,,,,,,,,,,,,,FF,,,,,,,,2.1,,,,,,,,,,,,,,,,,,,,,,6102fc0089a279de6a998e7d,61036e281cbe328e09cf2619,2021-07-30_04h13.03.811,Simcolourproject_2stim_asymm_v5,2020.2.10,Win32,60,61025ae37ef11b136ea224fe,,,,,,,,,2208,39.20001203,88.79999489,1,0,0,response1disk,,7,-15.19998878,9.599993706,1,0,0,rectangle,-15.19998878,9.599993706,1,0,0,-15.19998878,9.599993706,1,0,0,0,21,21,3,1,,,,,,,,
,,,,,,,,,,,,,FF,,,,,,,,3.8948,,,,,,,,,,,,,,,,,,,,,,6102fc0089a279de6a998e7d,61036e281cbe328e09cf2619,2021-07-30_04h13.03.811,Simcolourproject_2stim_asymm_v5,2020.2.10,Win32,60,61025ae37ef11b136ea224fe,,,,,,,,,3876,-35.99998909,-121.6000571,1,0,0,response5disk,,3,-4.799988627,-3.200006485,1,0,0,rectangle,-4.799988627,-3.200006485,1,0,0,-4.799988627,-3.200006485,1,0,0,0,22,22,61,1,,,,,,,,
,,,,,,,,,,,,,FF,,,,,,,,1.484,,,,,,,,,,,,,,,,,,,,,,6102fc0089a279de6a998e7d,61036e281cbe328e09cf2619,2021-07-30_04h13.03.811,Simcolourproject_2stim_asymm_v5,2020.2.10,Win32,60,61025ae37ef11b136ea224fe,,,,,,,,,3372,-35.99998909,-76.80000758,1,0,0,response5disk,,3,-11.19998872,7.999993682,1,0,0,rectangle,-11.19998872,7.999993682,1,0,0,-11.19998872,7.999993682,1,0,0,0,23,23,59,1,,,,,,,,
,,,,,,,,,,,,,FF,,,,,,,,1.4968,,,,,,,,,,,,,,,,,,,,,,6102fc0089a279de6a998e7d,61036e281cbe328e09cf2619,2021-07-30_04h13.03.811,Simcolourproject_2stim_asymm_v5,2020.2.10,Win32,60,61025ae37ef11b136ea224fe,,,,,,,,,4089,104.800013,-51.2000072,1,0,0,response3disk,,5,5.600060356,-6.400006533,1,0,0,rectangle,5.600060356,-6.400006533,1,0,0,5.600060356,-6.400006533,1,0,0,0,24,24,49,1,,,,,,,,
,,,,,,,,,,,,,FF,,,,,,,,1.6341,,,,,,,,,,,,,,,,,,,,,,6102fc0089a279de6a998e7d,61036e281cbe328e09cf2619,2021-07-30_04h13.03.811,Simcolourproject_2stim_asymm_v5,2020.2.10,Win32,60,61025ae37ef11b136ea224fe,,,,,,,,,2304,45.60006095,-116.8000082,1,0,0,response3disk,,4,-12.79998875,-6.4373E-06,1,0,0,rectangle,-12.79998875,-6.4373E-06,1,0,0,-12.79998875,-6.4373E-06,1,0,0,0,25,25,39,1,,,,,,,,
,,,,,,,,,,,,,FF,,,,,,,,2.5488,,,,,,,,,,,,,,,,,,,,,,6102fc0089a279de6a998e7d,61036e281cbe328e09cf2619,2021-07-30_04h13.03.811,Simcolourproject_2stim_asymm_v5,2020.2.10,Win32,60,61025ae37ef11b136ea224fe,,,,,,,,,130,109.6000131,56.79999441,1,0,0,response1disk,,6,20.00001174,13.59999377,1,0,0,rectangle,20.00001174,13.59999377,1,0,0,20.00001174,13.59999377,1,0,0,0,26,26,64,1,,,,,,,,
,,,,,,,,,,,,,FF,,,,,,,,1.1167,,,,,,,,,,,,,,,,,,,,,,6102fc0089a279de6a998e7d,61036e281cbe328e09cf2619,2021-07-30_04h13.03.811,Simcolourproject_2stim_asymm_v5,2020.2.10,Win32,60,61025ae37ef11b136ea224fe,,,,,,,,,1180,110.4000131,-51.2000072,1,0,0,response3disk,,5,8.000011563,-4.800006509,1,0,0,rectangle,8.000011563,-4.800006509,1,0,0,8.000011563,-4.800006509,1,0,0,0,27,27,85,1,,,,,,,,
,,,,,,,,,,,,,FF,,,,,,,,4.0004,,,,,,,,,,,,,,,,,,,,,,6102fc0089a279de6a998e7d,61036e281cbe328e09cf2619,2021-07-30_04h13.03.811,Simcolourproject_2stim_asymm_v5,2020.2.10,Win32,60,61025ae37ef11b136ea224fe,,,,,,,,,3157,-93.59998995,40.79999417,1,0,0,response7disk,,1,-17.59998882,3.999993622,1,0,0,rectangle,-17.59998882,3.999993622,1,0,0,-17.59998882,3.999993622,1,0,0,0,28,28,99,1,,,,,,,,
,,,,,,,,,,,,,FF,,,,,,,,1.2678,,,,,,,,,,,,,,,,,,,,,,6102fc0089a279de6a998e7d,61036e281cbe328e09cf2619,2021-07-30_04h13.03.811,Simcolourproject_2stim_asymm_v5,2020.2.10,Win32,60,61025ae37ef11b136ea224fe,,,,,,,,,2696,-56.7999894,-118.4000082,1,0,0,response5disk,,3,8.000011563,-4.000006497,1,0,0,rectangle,8.000011563,-4.000006497,1,0,0,8.000011563,-4.000006497,1,0,0,0,29,29,26,1,,,,,,,,
,,,,,,,,,,,,,FF,,,,,,,,1.4666,,,,,,,,,,,,,,,,,,,,,,6102fc0089a279de6a998e7d,61036e281cbe328e09cf2619,2021-07-30_04h13.03.811,Simcolourproject_2stim_asymm_v5,2020.2.10,Win32,60,61025ae37ef11b136ea224fe,,,,,,,,,2348,24.0000118,-107.200008,1,0,0,response3disk,,4,-4.799988627,8.799993694,1,0,0,rectangle,-4.799988627,8.799993694,1,0,0,-4.799988627,8.799993694,1,0,0,0,30,30,153,1,,,,,,,,
,,,,,,,,,,,,,FF,,,,,,,,1.3169,,,,,,,,,,,,,,,,,,,,,,6102fc0089a279de6a998e7d,61036e281cbe328e09cf2619,2021-07-30_04h13.03.811,Simcolourproject_2stim_asymm_v5,2020.2.10,Win32,60,61025ae37ef11b136ea224fe,,,,,,,,,3261,99.20001292,50.39999431,1,0,0,response1disk,,6,11.20001161,4.799993634,1,0,0,rectangle,11.20001161,4.799993634,1,0,0,11.20001161,4.799993634,1,0,0,0,31,31,111,1,,,,,,,,
,,,,,,,,,,,,,FF,,,,,,,,1.9509,,,,,,,,,,,,,,,,,,,,,,6102fc0089a279de6a998e7d,61036e281cbe328e09cf2619,2021-07-30_04h13.03.811,Simcolourproject_2stim_asymm_v5,2020.2.10,Win32,60,61025ae37ef11b136ea224fe,,,,,,,,,2755,104.800013,28.79999399,1,0,0,response1disk,,6,-4.799988627,11.99999374,1,0,0,rectangle,-51.19998932,-102.400008,1,0,0,14.40001166,3.19999361,1,0,0,0,32,32,1,1,,response5disk_3,TRUE,3,7,"[85,41,308,298,18,143,269,102,58,204,166,246,33,231,280,45,319,69,317,21]",3.3124,rectangle
,,,,,,,,,,,,,FF,,,,,,,,3.4149,,,,,,,,,,,,,,,,,,,,,,6102fc0089a279de6a998e7d,61036e281cbe328e09cf2619,2021-07-30_04h13.03.811,Simcolourproject_2stim_asymm_v5,2020.2.10,Win32,60,61025ae37ef11b136ea224fe,,,,,,,,,1562,120.8000132,31.99999404,1,0,0,response1disk,,6,-13.59998876,-4.000006497,1,0,0,rectangle,-13.59998876,-4.000006497,1,0,0,-13.59998876,-4.000006497,1,0,0,0,33,33,140,1,,,,,,,,
,,,,,,,,,,,,,FF,,,,,,,,1.3785,,,,,,,,,,,,,,,,,,,,,,6102fc0089a279de6a998e7d,61036e281cbe328e09cf2619,2021-07-30_04h13.03.811,Simcolourproject_2stim_asymm_v5,2020.2.10,Win32,60,61025ae37ef11b136ea224fe,,,,,,,,,769,66.40001243,99.19997063,1,0,0,response1disk,,7,-9.599988699,11.19999373,1,0,0,rectangle,-9.599988699,11.19999373,1,0,0,-9.599988699,11.19999373,1,0,0,0,34,34,55,1,,,,,,,,
,,,,,,,,,,,,,FF,,,,,,,,1.816,,,,,,,,,,,,,,,,,,,,,,6102fc0089a279de6a998e7d,61036e281cbe328e09cf2619,2021-07-30_04h13.03.811,Simcolourproject_2stim_asymm_v5,2020.2.10,Win32,60,61025ae37ef11b136ea224fe,,,,,,,,,3126,64.0000124,112.7999952,1,0,0,response1disk,,7,4.800011516,-9.60000658,1,0,0,rectangle,4.800011516,-9.60000658,1,0,0,4.800011516,-9.60000658,1,0,0,0,35,35,117,1,,,,,,,,
,,,,,,,,,,,,,FF,,,,,,,,1.1717,,,,,,,,,,,,,,,,,,,,,,6102fc0089a279de6a998e7d,61036e281cbe328e09cf2619,2021-07-30_04h13.03.811,Simcolourproject_2stim_asymm_v5,2020.2.10,Win32,60,61025ae37ef11b136ea224fe,,,,,,,,,2883,32.00001192,-89.6000566,1,0,0,response3disk,,4,-7.999988675,0.799993575,1,0,0,rectangle,-7.999988675,0.799993575,1,0,0,-7.999988675,0.799993575,1,0,0,0,36,36,50,1,,,,,,,,
,,,,,,,,,,,,,FF,,,,,,,,2.1839,,,,,,,,,,,,,,,,,,,,,,6102fc0089a279de6a998e7d,61036e281cbe328e09cf2619,2021-07-30_04h13.03.811,Simcolourproject_2stim_asymm_v5,2020.2.10,Win32,60,61025ae37ef11b136ea224fe,,,,,,,,,1978,116.0000132,34.39999408,1,0,0,response1disk,,6,-25.59998894,3.19999361,1,0,0,rectangle,-25.59998894,3.19999361,1,0,0,-25.59998894,3.19999361,1,0,0,0,37,37,37,1,,,,,,,,
,,,,,,,,,,,,,FF,,,,,,,,1.6787,,,,,,,,,,,,,,,,,,,,,,6102fc0089a279de6a998e7d,61036e281cbe328e09cf2619,2021-07-30_04h13.03.811,Simcolourproject_2stim_asymm_v5,2020.2.10,Win32,60,61025ae37ef11b136ea224fe,,,,,,,,,2901,-60.79998946,-96.00000787,1,0,0,response5disk,,3,1.14441E-05,5.599993646,1,0,0,rectangle,1.14441E-05,5.599993646,1,0,0,1.14441E-05,5.599993646,1,0,0,0,38,38,2,1,,,,,,,,
,,,,,,,,,,,,,FF,,,,,,,,1.721,,,,,,,,,,,,,,,,,,,,,,6102fc0089a279de6a998e7d,61036e281cbe328e09cf2619,2021-07-30_04h13.03.811,Simcolourproject_2stim_asymm_v5,2020.2.10,Win32,60,61025ae37ef11b136ea224fe,,,,,,,,,3602,91.2000128,-40.80000705,1,0,0,response3disk,,5,10.4000116,7.999993682,1,0,0,rectangle,10.4000116,7.999993682,1,0,0,10.4000116,7.999993682,1,0,0,0,39,39,72,1,,,,,,,,
,,,,,,,,,,,,,FF,,,,,,,,1.4123,,,,,,,,,,,,,,,,,,,,,,6102fc0089a279de6a998e7d,61036e281cbe328e09cf2619,2021-07-30_04h13.03.811,Simcolourproject_2stim_asymm_v5,2020.2.10,Win32,60,61025ae37ef11b136ea224fe,,,,,,,,,1862,102.400013,63.99999452,1,0,0,response1disk,,6,-0.799988568,16.79999381,1,0,0,rectangle,-35.99998909,-100.0000079,1,0,0,2.40001148,-8.000006557,1,0,0,0,40,40,27,1,,response5disk_3,TRUE,3,3,"[85,41,308,298,18,143,269,102,58,204,166,246,33,231,280,45,319,69,317,21]",498.0667,rectangle
,,,,,,,,,,,,,FF,,,,,,,,1.5663,,,,,,,,,,,,,,,,,,,,,,6102fc0089a279de6a998e7d,61036e281cbe328e09cf2619,2021-07-30_04h13.03.811,Simcolourproject_2stim_asymm_v5,2020.2.10,Win32,60,61025ae37ef11b136ea224fe,,,,,,,,,1685,-82.39994096,33.59999406,1,0,0,response7disk,,1,0.800011456,-5.600006521,1,0,0,rectangle,0.800011456,-5.600006521,1,0,0,0.800011456,-5.600006521,1,0,0,0,41,41,146,1,,,,,,,,
,,,,,,,,,,,,,FF,,,,,,,,1.7495,,,,,,,,,,,,,,,,,,,,,,6102fc0089a279de6a998e7d,61036e281cbe328e09cf2619,2021-07-30_04h13.03.811,Simcolourproject_2stim_asymm_v5,2020.2.10,Win32,60,61025ae37ef11b136ea224fe,,,,,,,,,832,42.40001208,-92.00000781,1,0,0,response3disk,,4,14.40001166,4.799993634,1,0,0,rectangle,14.40001166,4.799993634,1,0,0,14.40001166,4.799993634,1,0,0,0,42,42,154,1,,,,,,,,
,,,,,,,,,,,,,FF,,,,,,,,1.4005,,,,,,,,,,,,,,,,,,,,,,6102fc0089a279de6a998e7d,61036e281cbe328e09cf2619,2021-07-30_04h13.03.811,Simcolourproject_2stim_asymm_v5,2020.2.10,Win32,60,61025ae37ef11b136ea224fe,,,,,,,,,4192,32.80001193,115.1999709,1,0,0,response1disk,,7,-11.99998873,-11.2000066,1,0,0,rectangle,-11.99998873,-11.2000066,1,0,0,-11.99998873,-11.2000066,1,0,0,0,43,43,88,1,,,,,,,,
,,,,,,,,,,,,,FF,,,,,,,,2.3273,,,,,,,,,,,,,,,,,,,,,,6102fc0089a279de6a998e7d,61036e281cbe328e09cf2619,2021-07-30_04h13.03.811,Simcolourproject_2stim_asymm_v5,2020.2.10,Win32,60,61025ae37ef11b136ea224fe,,,,,,,,,1702,118.4000132,-44.8000071,1,0,0,response3disk,,5,12.00001162,10.39999372,1,0,0,rectangle,-35.19998908,-104.800008,1,0,0,-3.999988616,-12.80000663,1,0,0,0,44,44,28,1,,response5disk_3,TRUE,3,5,"[85,41,308,298,18,143,269,102,58,204,166,246,33,231,280,45,319,69,317,21]",2.615,rectangle
,,,,,,,,,,,,,FF,,,,,,,,3.5179,,,,,,,,,,,,,,,,,,,,,,6102fc0089a279de6a998e7d,61036e281cbe328e09cf2619,2021-07-30_04h13.03.811,Simcolourproject_2stim_asymm_v5,2020.2.10,Win32,60,61025ae37ef11b136ea224fe,,,,,,,,,1810,42.40001208,117.5999953,1,0,0,response1disk,,7,-3.199988604,-8.800006568,1,0,0,rectangle,-3.199988604,-8.800006568,1,0,0,-3.199988604,-8.800006568,1,0,0,0,45,45,21,1,,,,,,,,
,,,,,,,,,,,,,FF,,,,,,,,1.9661,,,,,,,,,,,,,,,,,,,,,,6102fc0089a279de6a998e7d,61036e281cbe328e09cf2619,2021-07-30_04h13.03.811,Simcolourproject_2stim_asymm_v5,2020.2.10,Win32,60,61025ae37ef11b136ea224fe,,,,,,,,,938,76.80001259,27.99999398,1,0,0,response1disk,,6,-0.799988568,-7.200006545,1,0,0,rectangle,-0.799988568,-7.200006545,1,0,0,-0.799988568,-7.200006545,1,0,0,0,46,46,60,1,,,,,,,,
,,,,,,,,,,,,,FF,,,,,,,,1.5,,,,,,,,,,,,,,,,,,,,,,6102fc0089a279de6a998e7d,61036e281cbe328e09cf2619,2021-07-30_04h13.03.811,Simcolourproject_2stim_asymm_v5,2020.2.10,Win32,60,61025ae37ef11b136ea224fe,,,,,,,,,3912,-107.1999902,-50.40000719,1,0,0,response5disk,,2,-10.39993988,-2.400006473,1,0,0,rectangle,-10.39993988,-2.400006473,1,0,0,-10.39993988,-2.400006473,1,0,0,0,47,47,79,1,,,,,,,,
,,,,,,,,,,,,,FF,,,,,,,,2.3996,,,,,,,,,,,,,,,,,,,,,,6102fc0089a279de6a998e7d,61036e281cbe328e09cf2619,2021-07-30_04h13.03.811,Simcolourproject_2stim_asymm_v5,2020.2.10,Win32,60,61025ae37ef11b136ea224fe,,,,,,,,,3943,-99.99999005,-42.40000707,1,0,0,response5disk,,2,-17.59998882,-0.800006449,1,0,0,rectangle,-17.59998882,-0.800006449,1,0,0,-17.59998882,-0.800006449,1,0,0,0,48,48,96,1,,,,,,,,
,,,,,,,,,,,,,FF,,,,,,,,0.9495,,,,,,,,,,,,,,,,,,,,,,6102fc0089a279de6a998e7d,61036e281cbe328e09cf2619,2021-07-30_04h13.03.811,Simcolourproject_2stim_asymm_v5,2020.2.10,Win32,60,61025ae37ef11b136ea224fe,,,,,,,,,2727,-38.3999403,-93.60005666,1,0,0,response5disk,,3,-14.39993994,4.799993634,1,0,0,rectangle,-14.39993994,4.799993634,1,0,0,-14.39993994,4.799993634,1,0,0,0,49,49,110,1,,,,,,,,
,,,,,,,,,,,,,FF,,,,,,,,2.2153,,,,,,,,,,,,,,,,,,,,,,6102fc0089a279de6a998e7d,61036e281cbe328e09cf2619,2021-07-30_04h13.03.811,Simcolourproject_2stim_asymm_v5,2020.2.10,Win32,60,61025ae37ef11b136ea224fe,,,,,,,,,798,94.40001285,47.19996985,1,0,0,response1disk,,6,0.800011456,2.399993598,1,0,0,rectangle,0.800011456,2.399993598,1,0,0,0.800011456,2.399993598,1,0,0,0,50,50,114,1,,,,,,,,
,,,,,,,,,,,,,FF,,,,,,,,3.0822,,,,,,,,,,,,,,,,,,,,,,6102fc0089a279de6a998e7d,61036e281cbe328e09cf2619,2021-07-30_04h13.03.811,Simcolourproject_2stim_asymm_v5,2020.2.10,Win32,60,61025ae37ef11b136ea224fe,,,,,,,,,2724,-99.19999003,-43.20000708,1,0,0,response5disk,,2,-5.599988639,6.399993658,1,0,0,rectangle,-5.599988639,6.399993658,1,0,0,-5.599988639,6.399993658,1,0,0,0,51,51,122,1,,,,,,,,
,,,,,,,,,,,,,FF,,,,,,,,2.2995,,,,,,,,,,,,,,,,,,,,,,6102fc0089a279de6a998e7d,61036e281cbe328e09cf2619,2021-07-30_04h13.03.811,Simcolourproject_2stim_asymm_v5,2020.2.10,Win32,60,61025ae37ef11b136ea224fe,,,,,,,,,4276,119.2000132,-42.40000707,1,0,0,response3disk,,5,9.600060415,-0.800006449,1,0,0,rectangle,9.600060415,-0.800006449,1,0,0,9.600060415,-0.800006449,1,0,0,0,52,52,31,1,,,,,,,,
,,,,,,,,,,,,,FF,,,,,,,,3.0822,,,,,,,,,,,,,,,,,,,,,,6102fc0089a279de6a998e7d,61036e281cbe328e09cf2619,2021-07-30_04h13.03.811,Simcolourproject_2stim_asymm_v5,2020.2.10,Win32,60,61025ae37ef11b136ea224fe,,,,,,,,,1698,-85.59998983,-44.8000071,1,0,0,response5disk,,2,-29.599989,11.99999374,1,0,0,rectangle,-29.599989,11.99999374,1,0,0,-29.599989,11.99999374,1,0,0,0,53,53,157,1,,,,,,,,
,,,,,,,,,,,,,FF,,,,,,,,2.2996,,,,,,,,,,,,,,,,,,,,,,6102fc0089a279de6a998e7d,61036e281cbe328e09cf2619,2021-07-30_04h13.03.811,Simcolourproject_2stim_asymm_v5,2020.2.10,Win32,60,61025ae37ef11b136ea224fe,,,,,,,,,2113,-50.39994048,-114.4000081,1,0,0,response5disk,,3,-4.799988627,-4.800006509,1,0,0,rectangle,-4.799988627,-4.800006509,1,0,0,-4.799988627,-4.800006509,1,0,0,0,54,54,75,1,,,,,,,,
,,,,,,,,,,,,,FF,,,,,,,,1.5329,,,,,,,,,,,,,,,,,,,,,,6102fc0089a279de6a998e7d,61036e281cbe328e09cf2619,2021-07-30_04h13.03.811,Simcolourproject_2stim_asymm_v5,2020.2.10,Win32,60,61025ae37ef11b136ea224fe,,,,,,,,,1541,-114.3999414,-28.00000685,1,0,0,response5disk,,2,-27.19998896,-1.600006461,1,0,0,rectangle,-27.19998896,-1.600006461,1,0,0,-27.19998896,-1.600006461,1,0,0,0,55,55,155,1,,,,,,,,
,,,,,,,,,,,,,FF,,,,,,,,1.1999,,,,,,,,,,,,,,,,,,,,,,6102fc0089a279de6a998e7d,61036e281cbe328e09cf2619,2021-07-30_04h13.03.811,Simcolourproject_2stim_asymm_v5,2020.2.10,Win32,60,61025ae37ef11b136ea224fe,,,,,,,,,4168,-119.1999903,65.59999454,1,0,0,response7disk,,1,-19.99998885,10.39999372,1,0,0,rectangle,-19.99998885,10.39999372,1,0,0,-19.99998885,10.39999372,1,0,0,0,56,56,13,1,,,,,,,,
,,,,,,,,,,,,,FF,,,,,,,,1.2166,,,,,,,,,,,,,,,,,,,,,,6102fc0089a279de6a998e7d,61036e281cbe328e09cf2619,2021-07-30_04h13.03.811,Simcolourproject_2stim_asymm_v5,2020.2.10,Win32,60,61025ae37ef11b136ea224fe,,,,,,,,,725,-43.1999892,-84.00000769,1,0,0,response5disk,,3,-3.199988604,-7.200006545,1,0,0,rectangle,-95.99998999,44.79999423,1,0,0,-7.199988663,4.799993634,1,0,0,0,57,57,144,1,,response7disk_3,TRUE,1,1,"[85,41,308,298,18,143,269,102,58,204,166,246,33,231,280,45,319,69,317,21]",1.7169,rectangle
,,,,,,,,,,,,,FF,,,,,,,,1.0508,,,,,,,,,,,,,,,,,,,,,,6102fc0089a279de6a998e7d,61036e281cbe328e09cf2619,2021-07-30_04h13.03.811,Simcolourproject_2stim_asymm_v5,2020.2.10,Win32,60,61025ae37ef11b136ea224fe,,,,,,,,,1317,-119.9999903,-48.80000716,1,0,0,response5disk,,2,-23.1999889,-9.60000658,1,0,0,rectangle,-23.1999889,-9.60000658,1,0,0,-23.1999889,-9.60000658,1,0,0,0,58,58,45,1,,,,,,,,
,,,,,,,,,,,,,FF,,,,,,,,1.4164,,,,,,,,,,,,,,,,,,,,,,6102fc0089a279de6a998e7d,61036e281cbe328e09cf2619,2021-07-30_04h13.03.811,Simcolourproject_2stim_asymm_v5,2020.2.10,Win32,60,61025ae37ef11b136ea224fe,,,,,,,,,3813,-96.79999,-49.60000718,1,0,0,response5disk,,2,-23.1999889,-8.800006568,1,0,0,rectangle,-23.1999889,-8.800006568,1,0,0,-23.1999889,-8.800006568,1,0,0,0,59,59,93,1,,,,,,,,
,,,,,,,,,,,,,FF,,,,,,,,1.0998,,,,,,,,,,,,,,,,,,,,,,6102fc0089a279de6a998e7d,61036e281cbe328e09cf2619,2021-07-30_04h13.03.811,Simcolourproject_2stim_asymm_v5,2020.2.10,Win32,60,61025ae37ef11b136ea224fe,,,,,,,,,2618,-41.59998918,-100.8000079,1,0,0,response5disk,,3,-1.59998858,0.799993575,1,0,0,rectangle,-1.59998858,0.799993575,1,0,0,-1.59998858,0.799993575,1,0,0,0,60,60,95,1,,,,,,,,
,,,,,,,,,,,,,FF,,,,,,,,1.5164,,,,,,,,,,,,,,,,,,,,,,6102fc0089a279de6a998e7d,61036e281cbe328e09cf2619,2021-07-30_04h13.03.811,Simcolourproject_2stim_asymm_v5,2020.2.10,Win32,60,61025ae37ef11b136ea224fe,,,,,,,,,625,88.00001276,50.39999431,1,0,0,response1disk,,6,-8.799988687,0.799993575,1,0,0,rectangle,-8.799988687,0.799993575,1,0,0,-8.799988687,0.799993575,1,0,0,0,61,61,17,1,,,,,,,,
,,,,,,,,,,,,,FF,,,,,,,,1.249,,,,,,,,,,,,,,,,,,,,,,6102fc0089a279de6a998e7d,61036e281cbe328e09cf2619,2021-07-30_04h13.03.811,Simcolourproject_2stim_asymm_v5,2020.2.10,Win32,60,61025ae37ef11b136ea224fe,,,,,,,,,2278,52.80001223,80.79999477,1,0,0,response1disk,,7,-3.199988604,-0.800006449,1,0,0,rectangle,-3.199988604,-0.800006449,1,0,0,-3.199988604,-0.800006449,1,0,0,0,62,62,90,1,,,,,,,,
,,,,,,,,,,,,,FF,,,,,,,,2.4659,,,,,,,,,,,,,,,,,,,,,,6102fc0089a279de6a998e7d,61036e281cbe328e09cf2619,2021-07-30_04h13.03.811,Simcolourproject_2stim_asymm_v5,2020.2.10,Win32,60,61025ae37ef11b136ea224fe,,,,,,,,,2882,31.20001191,-80.00000763,1,0,0,response3disk,,4,-0.799988568,10.39999372,1,0,0,rectangle,-0.799988568,10.39999372,1,0,0,-0.799988568,10.39999372,1,0,0,0,63,63,23,1,,,,,,,,
,,,,,,,,,,,,,FF,,,,,,,,1.7891,,,,,,,,,,,,,,,,,,,,,,6102fc0089a279de6a998e7d,61036e281cbe328e09cf2619,2021-07-30_04h13.03.811,Simcolourproject_2stim_asymm_v5,2020.2.10,Win32,60,61025ae37ef11b136ea224fe,,,,,,,,,4170,-106.3999413,-45.60000712,1,0,0,response5disk,,2,-18.39994,-3.200006485,1,0,0,rectangle,-18.39994,-3.200006485,1,0,0,-18.39994,-3.200006485,1,0,0,0,64,64,7,1,,,,,,,,
,,,,,,,,,,,,,FF,,,,,,,,1.0561,,,,,,,,,,,,,,,,,,,,,,6102fc0089a279de6a998e7d,61036e281cbe328e09cf2619,2021-07-30_04h13.03.811,Simcolourproject_2stim_asymm_v5,2020.2.10,Win32,60,61025ae37ef11b136ea224fe,,,,,,,,,1316,-53.59998935,-80.80000764,1,0,0,response5disk,,3,-11.19998872,-1.600006461,1,0,0,rectangle,-11.19998872,-1.600006461,1,0,0,-11.19998872,-1.600006461,1,0,0,0,65,65,18,1,,,,,,,,
,,,,,,,,,,,,,FF,,,,,,,,1.0333,,,,,,,,,,,,,,,,,,,,,,6102fc0089a279de6a998e7d,61036e281cbe328e09cf2619,2021-07-30_04h13.03.811,Simcolourproject_2stim_asymm_v5,2020.2.10,Win32,60,61025ae37ef11b136ea224fe,,,,,,,,,959,32.00001192,79.99999475,1,0,0,response1disk,,7,-1.59998858,0.799993575,1,0,0,rectangle,-1.59998858,0.799993575,1,0,0,-1.59998858,0.799993575,1,0,0,0,66,66,10,1,,,,,,,,
,,,,,,,,,,,,,FF,,,,,,,,1.2998,,,,,,,,,,,,,,,,,,,,,,6102fc0089a279de6a998e7d,61036e281cbe328e09cf2619,2021-07-30_04h13.03.811,Simcolourproject_2stim_asymm_v5,2020.2.10,Win32,60,61025ae37ef11b136ea224fe,,,,,,,,,1741,115.2000132,51.99999434,1,0,0,response1disk,,6,12.80001163,6.399993658,1,0,0,rectangle,12.80001163,6.399993658,1,0,0,12.80001163,6.399993658,1,0,0,0,67,67,48,1,,,,,,,,
,,,,,,,,,,,,,FF,,,,,,,,2.3672,,,,,,,,,,,,,,,,,,,,,,6102fc0089a279de6a998e7d,61036e281cbe328e09cf2619,2021-07-30_04h13.03.811,Simcolourproject_2stim_asymm_v5,2020.2.10,Win32,60,61025ae37ef11b136ea224fe,,,,,,,,,1594,-86.39994102,-43.20000708,1,0,0,response5disk,,2,-4.799988627,-6.4373E-06,1,0,0,rectangle,-83.1999898,-40.00000703,1,0,0,-9.599988699,6.399993658,1,0,0,0,68,68,29,1,,response5disk_3,TRUE,2,2,"[85,41,308,298,18,143,269,102,58,204,166,246,33,231,280,45,319,69,317,21]",2.3113,rectangle
,,,,,,,,,,,,,FF,,,,,,,,1.462,,,,,,,,,,,,,,,,,,,,,,6102fc0089a279de6a998e7d,61036e281cbe328e09cf2619,2021-07-30_04h13.03.811,Simcolourproject_2stim_asymm_v5,2020.2.10,Win32,60,61025ae37ef11b136ea224fe,,,,,,,,,1208,-49.5999893,-108.8000081,1,0,0,response5disk,,3,14.40001166,-0.800006449,1,0,0,rectangle,14.40001166,-0.800006449,1,0,0,14.40001166,-0.800006449,1,0,0,0,69,69,57,1,,,,,,,,
,,,,,,,,,,,,,FF,,,,,,,,1.3166,,,,,,,,,,,,,,,,,,,,,,6102fc0089a279de6a998e7d,61036e281cbe328e09cf2619,2021-07-30_04h13.03.811,Simcolourproject_2stim_asymm_v5,2020.2.10,Win32,60,61025ae37ef11b136ea224fe,,,,,,,,,4225,-107.1999902,38.39999413,1,0,0,response7disk,,1,-10.39993988,-6.400006533,1,0,0,rectangle,-10.39993988,-6.400006533,1,0,0,-10.39993988,-6.400006533,1,0,0,0,70,70,5,1,,,,,,,,
,,,,,,,,,,,,,FF,,,,,,,,1.3666,,,,,,,,,,,,,,,,,,,,,,6102fc0089a279de6a998e7d,61036e281cbe328e09cf2619,2021-07-30_04h13.03.811,Simcolourproject_2stim_asymm_v5,2020.2.10,Win32,60,61025ae37ef11b136ea224fe,,,,,,,,,3245,-110.3999414,35.9999941,1,0,0,response7disk,,1,-2.399939764,-5.600006521,1,0,0,rectangle,-2.399939764,-5.600006521,1,0,0,-2.399939764,-5.600006521,1,0,0,0,71,71,8,1,,,,,,,,
,,,,,,,,,,,,,FF,,,,,,,,3.9483,,,,,,,,,,,,,,,,,,,,,,6102fc0089a279de6a998e7d,61036e281cbe328e09cf2619,2021-07-30_04h13.03.811,Simcolourproject_2stim_asymm_v5,2020.2.10,Win32,60,61025ae37ef11b136ea224fe,,,,,,,,,1953,110.4000131,-56.80000728,1,0,0,response3disk,,5,7.200011551,3.19999361,1,0,0,rectangle,7.200011551,3.19999361,1,0,0,7.200011551,3.19999361,1,0,0,0,72,72,40,1,,,,,,,,
,,,,,,,,,,,,,FF,,,,,,,,1.033,,,,,,,,,,,,,,,,,,,,,,6102fc0089a279de6a998e7d,61036e281cbe328e09cf2619,2021-07-30_04h13.03.811,Simcolourproject_2stim_asymm_v5,2020.2.10,Win32,60,61025ae37ef11b136ea224fe,,,,,,,,,3985,55.20001227,93.59999496,1,0,0,response1disk,,7,-3.199988604,-0.800006449,1,0,0,rectangle,-3.199988604,-0.800006449,1,0,0,-3.199988604,-0.800006449,1,0,0,0,73,73,42,1,,,,,,,,
,,,,,,,,,,,,,FF,,,,,,,,1.8493,,,,,,,,,,,,,,,,,,,,,,6102fc0089a279de6a998e7d,61036e281cbe328e09cf2619,2021-07-30_04h13.03.811,Simcolourproject_2stim_asymm_v5,2020.2.10,Win32,60,61025ae37ef11b136ea224fe,,,,,,,,,737,97.6000129,-60.80000734,1,0,0,response3disk,,5,4.000011504,-8.000006557,1,0,0,rectangle,4.000011504,-8.000006557,1,0,0,4.000011504,-8.000006557,1,0,0,0,74,74,102,1,,,,,,,,
,,,,,,,,,,,,,FF,,,,,,,,1.3326,,,,,,,,,,,,,,,,,,,,,,6102fc0089a279de6a998e7d,61036e281cbe328e09cf2619,2021-07-30_04h13.03.811,Simcolourproject_2stim_asymm_v5,2020.2.10,Win32,60,61025ae37ef11b136ea224fe,,,,,,,,,1519,112.8000131,27.19996955,1,0,0,response1disk,,6,-3.199988604,-8.000006557,1,0,0,rectangle,-3.199988604,-8.000006557,1,0,0,-3.199988604,-8.000006557,1,0,0,0,75,75,94,1,,,,,,,,
,,,,,,,,,,,,,FF,,,,,,,,1.9174,,,,,,,,,,,,,,,,,,,,,,6102fc0089a279de6a998e7d,61036e281cbe328e09cf2619,2021-07-30_04h13.03.811,Simcolourproject_2stim_asymm_v5,2020.2.10,Win32,60,61025ae37ef11b136ea224fe,,,,,,,,,2522,42.40001208,83.19997039,1,0,0,response1disk,,7,1.600060296,-6.4373E-06,1,0,0,rectangle,1.600060296,-6.4373E-06,1,0,0,1.600060296,-6.4373E-06,1,0,0,0,76,76,89,1,,,,,,,,
,,,,,,,,,,,,,FF,,,,,,,,1.5993,,,,,,,,,,,,,,,,,,,,,,6102fc0089a279de6a998e7d,61036e281cbe328e09cf2619,2021-07-30_04h13.03.811,Simcolourproject_2stim_asymm_v5,2020.2.10,Win32,60,61025ae37ef11b136ea224fe,,,,,,,,,2937,94.40001285,47.99999428,1,0,0,response1disk,,6,15.20001167,-6.4373E-06,1,0,0,rectangle,15.20001167,-6.4373E-06,1,0,0,15.20001167,-6.4373E-06,1,0,0,0,77,77,151,1,,,,,,,,
,,,,,,,,,,,,,FF,,,,,,,,1.4993,,,,,,,,,,,,,,,,,,,,,,6102fc0089a279de6a998e7d,61036e281cbe328e09cf2619,2021-07-30_04h13.03.811,Simcolourproject_2stim_asymm_v5,2020.2.10,Win32,60,61025ae37ef11b136ea224fe,,,,,,,,,4289,52.80001223,107.9999952,1,0,0,response1disk,,7,0.800011456,-11.2000066,1,0,0,rectangle,0.800011456,-11.2000066,1,0,0,0.800011456,-11.2000066,1,0,0,0,78,78,51,1,,,,,,,,
,,,,,,,,,,,,,FF,,,,,,,,1.5331,,,,,,,,,,,,,,,,,,,,,,6102fc0089a279de6a998e7d,61036e281cbe328e09cf2619,2021-07-30_04h13.03.811,Simcolourproject_2stim_asymm_v5,2020.2.10,Win32,60,61025ae37ef11b136ea224fe,,,,,,,,,4228,104.800013,40.79999417,1,0,0,response1disk,,6,-2.399939764,0.799993575,1,0,0,rectangle,-2.399939764,0.799993575,1,0,0,-2.399939764,0.799993575,1,0,0,0,79,79,12,1,,,,,,,,
,,,,,,,,,,,,,FF,,,,,,,,1.2498,,,,,,,,,,,,,,,,,,,,,,6102fc0089a279de6a998e7d,61036e281cbe328e09cf2619,2021-07-30_04h13.03.811,Simcolourproject_2stim_asymm_v5,2020.2.10,Win32,60,61025ae37ef11b136ea224fe,,,,,,,,,3076,37.60006083,80.79999477,1,0,0,response1disk,,7,12.00001162,-6.4373E-06,1,0,0,rectangle,12.00001162,-6.4373E-06,1,0,0,12.00001162,-6.4373E-06,1,0,0,0,80,80,105,1,,,,,,,,
,,,,,,,,,,,,,FF,,,,,,,,1.1835,,,,,,,,,,,,,,,,,,,,,,6102fc0089a279de6a998e7d,61036e281cbe328e09cf2619,2021-07-30_04h13.03.811,Simcolourproject_2stim_asymm_v5,2020.2.10,Win32,60,61025ae37ef11b136ea224fe,,,,,,,,,873,69.60001248,-39.20000702,1,0,0,response3disk,,5,12.80001163,-1.600006461,1,0,0,rectangle,12.80001163,-1.600006461,1,0,0,12.80001163,-1.600006461,1,0,0,0,81,81,20,1,,,,,,,,
,,,,,,,,,,,,,FF,,,,,,,,1.1835,,,,,,,,,,,,,,,,,,,,,,6102fc0089a279de6a998e7d,61036e281cbe328e09cf2619,2021-07-30_04h13.03.811,Simcolourproject_2stim_asymm_v5,2020.2.10,Win32,60,61025ae37ef11b136ea224fe,,,,,,,,,3391,-98.39994119,44.79999423,1,0,0,response7disk,,1,8.800011575,-3.200006485,1,0,0,rectangle,8.800011575,-3.200006485,1,0,0,8.800011575,-3.200006485,1,0,0,0,82,82,25,1,,,,,,,,
,,,,,,,,,,,,,FF,,,,,,,,2.1498,,,,,,,,,,,,,,,,,,,,,,6102fc0089a279de6a998e7d,61036e281cbe328e09cf2619,2021-07-30_04h13.03.811,Simcolourproject_2stim_asymm_v5,2020.2.10,Win32,60,61025ae37ef11b136ea224fe,,,,,,,,,4051,53.60001224,72.79999465,1,0,0,response1disk,,7,12.00001162,-4.800006509,1,0,0,rectangle,12.00001162,-4.800006509,1,0,0,12.00001162,-4.800006509,1,0,0,0,83,83,0,1,,,,,,,,
,,,,,,,,,,,,,FF,,,,,,,,1.3165,,,,,,,,,,,,,,,,,,,,,,6102fc0089a279de6a998e7d,61036e281cbe328e09cf2619,2021-07-30_04h13.03.811,Simcolourproject_2stim_asymm_v5,2020.2.10,Win32,60,61025ae37ef11b136ea224fe,,,,,,,,,4354,-29.599989,-57.6000073,1,0,0,response5disk,,3,-4.799988627,-6.400006533,1,0,0,rectangle,-86.39994102,46.39999425,1,0,0,2.40001148,-8.800006568,1,0,0,0,84,84,128,1,,response7disk_3,TRUE,1,1,"[85,41,308,298,18,143,269,102,58,204,166,246,33,231,280,45,319,69,317,21]",1.6668,rectangle
,,,,,,,,,,,,,FF,,,,,,,,1.249,,,,,,,,,,,,,,,,,,,,,,6102fc0089a279de6a998e7d,61036e281cbe328e09cf2619,2021-07-30_04h13.03.811,Simcolourproject_2stim_asymm_v5,2020.2.10,Win32,60,61025ae37ef11b136ea224fe,,,,,,,,,3297,-103.9999901,63.99999452,1,0,0,response7disk,,1,8.000011563,-4.000006497,1,0,0,rectangle,8.000011563,-4.000006497,1,0,0,8.000011563,-4.000006497,1,0,0,0,85,85,73,1,,,,,,,,
,,,,,,,,,,,,,FF,,,,,,,,1.3496,,,,,,,,,,,,,,,,,,,,,,6102fc0089a279de6a998e7d,61036e281cbe328e09cf2619,2021-07-30_04h13.03.811,Simcolourproject_2stim_asymm_v5,2020.2.10,Win32,60,61025ae37ef11b136ea224fe,,,,,,,,,2102,-106.3999413,38.39999413,1,0,0,response7disk,,1,-23.1999889,-3.200006485,1,0,0,rectangle,-23.1999889,-3.200006485,1,0,0,-23.1999889,-3.200006485,1,0,0,0,86,86,36,1,,,,,,,,
,,,,,,,,,,,,,FF,,,,,,,,1.4228,,,,,,,,,,,,,,,,,,,,,,6102fc0089a279de6a998e7d,61036e281cbe328e09cf2619,2021-07-30_04h13.03.811,Simcolourproject_2stim_asymm_v5,2020.2.10,Win32,60,61025ae37ef11b136ea224fe,,,,,,,,,3333,91.2000128,37.59999412,1,0,0,response1disk,,6,8.000011563,0.799993575,1,0,0,rectangle,8.000011563,0.799993575,1,0,0,8.000011563,0.799993575,1,0,0,0,87,87,107,1,,,,,,,,
,,,,,,,,,,,,,FF,,,,,,,,2.2006,,,,,,,,,,,,,,,,,,,,,,6102fc0089a279de6a998e7d,61036e281cbe328e09cf2619,2021-07-30_04h13.03.811,Simcolourproject_2stim_asymm_v5,2020.2.10,Win32,60,61025ae37ef11b136ea224fe,,,,,,,,,3946,-70.39994078,-97.60005672,1,0,0,response5disk,,3,-1.59998858,-8.000006557,1,0,0,rectangle,-1.59998858,-8.000006557,1,0,0,-1.59998858,-8.000006557,1,0,0,0,88,88,91,1,,,,,,,,
,,,,,,,,,,,,,FF,,,,,,,,1.7163,,,,,,,,,,,,,,,,,,,,,,6102fc0089a279de6a998e7d,61036e281cbe328e09cf2619,2021-07-30_04h13.03.811,Simcolourproject_2stim_asymm_v5,2020.2.10,Win32,60,61025ae37ef11b136ea224fe,,,,,,,,,488,84.80001271,35.9999941,1,0,0,response1disk,,6,11.20001161,-5.600006521,1,0,0,rectangle,11.20001161,-5.600006521,1,0,0,11.20001161,-5.600006521,1,0,0,0,89,89,149,1,,,,,,,,
,,,,,,,,,,,,,FF,,,,,,,,1.6336,,,,,,,,,,,,,,,,,,,,,,6102fc0089a279de6a998e7d,61036e281cbe328e09cf2619,2021-07-30_04h13.03.811,Simcolourproject_2stim_asymm_v5,2020.2.10,Win32,60,61025ae37ef11b136ea224fe,,,,,,,,,3378,88.00001276,-35.20000696,1,0,0,response3disk,,5,-11.99998873,7.19999367,1,0,0,rectangle,-11.99998873,7.19999367,1,0,0,-11.99998873,7.19999367,1,0,0,0,90,90,120,1,,,,,,,,
,,,,,,,,,,,,,FF,,,,,,,,1.3627,,,,,,,,,,,,,,,,,,,,,,6102fc0089a279de6a998e7d,61036e281cbe328e09cf2619,2021-07-30_04h13.03.811,Simcolourproject_2stim_asymm_v5,2020.2.10,Win32,60,61025ae37ef11b136ea224fe,,,,,,,,,50,48.00001216,57.59999442,1,0,0,response1disk,,7,-7.999988675,5.599993646,1,0,0,rectangle,-7.999988675,5.599993646,1,0,0,-7.999988675,5.599993646,1,0,0,0,91,91,150,1,,,,,,,,
,,,,,,,,,,,,,FF,,,,,,,,1.1831,,,,,,,,,,,,,,,,,,,,,,6102fc0089a279de6a998e7d,61036e281cbe328e09cf2619,2021-07-30_04h13.03.811,Simcolourproject_2stim_asymm_v5,2020.2.10,Win32,60,61025ae37ef11b136ea224fe,,,,,,,,,3149,-114.3999414,36.79999411,1,0,0,response7disk,,1,-21.59998888,-6.400006533,1,0,0,rectangle,-21.59998888,-6.400006533,1,0,0,-21.59998888,-6.400006533,1,0,0,0,92,92,133,1,,,,,,,,
,,,,,,,,,,,,,FF,,,,,,,,1.0657,,,,,,,,,,,,,,,,,,,,,,6102fc0089a279de6a998e7d,61036e281cbe328e09cf2619,2021-07-30_04h13.03.811,Simcolourproject_2stim_asymm_v5,2020.2.10,Win32,60,61025ae37ef11b136ea224fe,,,,,,,,,4332,33.60006077,88.79999489,1,0,0,response1disk,,7,-1.59998858,-3.200006485,1,0,0,rectangle,-1.59998858,-3.200006485,1,0,0,-1.59998858,-3.200006485,1,0,0,0,93,93,141,1,,,,,,,,
,,,,,,,,,,,,,FF,,,,,,,,1.1664,,,,,,,,,,,,,,,,,,,,,,6102fc0089a279de6a998e7d,61036e281cbe328e09cf2619,2021-07-30_04h13.03.811,Simcolourproject_2stim_asymm_v5,2020.2.10,Win32,60,61025ae37ef11b136ea224fe,,,,,,,,,719,-123.1999904,39.99999416,1,0,0,response7disk,,1,4.000011504,-8.800006568,1,0,0,rectangle,4.000011504,-8.800006568,1,0,0,4.000011504,-8.800006568,1,0,0,0,94,94,113,1,,,,,,,,
,,,,,,,,,,,,,FF,,,,,,,,1.1327,,,,,,,,,,,,,,,,,,,,,,6102fc0089a279de6a998e7d,61036e281cbe328e09cf2619,2021-07-30_04h13.03.811,Simcolourproject_2stim_asymm_v5,2020.2.10,Win32,60,61025ae37ef11b136ea224fe,,,,,,,,,996,86.40001273,-45.60000712,1,0,0,response3disk,,5,6.400011539,9.599993706,1,0,0,rectangle,6.400011539,9.599993706,1,0,0,6.400011539,9.599993706,1,0,0,0,95,95,65,1,,,,,,,,
,,,,,,,,,,,,,FF,,,,,,,,3.0485,,,,,,,,,,,,,,,,,,,,,,6102fc0089a279de6a998e7d,61036e281cbe328e09cf2619,2021-07-30_04h13.03.811,Simcolourproject_2stim_asymm_v5,2020.2.10,Win32,60,61025ae37ef11b136ea224fe,,,,,,,,,819,42.40001208,-107.200008,1,0,0,response3disk,,4,5.600060356,-14.40000665,1,0,0,rectangle,5.600060356,-14.40000665,1,0,0,5.600060356,-14.40000665,1,0,0,0,96,96,121,1,,,,,,,,
,,,,,,,,,,,,,FF,,,,,,,,1.2833,,,,,,,,,,,,,,,,,,,,,,6102fc0089a279de6a998e7d,61036e281cbe328e09cf2619,2021-07-30_04h13.03.811,Simcolourproject_2stim_asymm_v5,2020.2.10,Win32,60,61025ae37ef11b136ea224fe,,,,,,,,,3897,37.60006083,108.7999952,1,0,0,response1disk,,7,-9.599988699,-6.4373E-06,1,0,0,rectangle,-9.599988699,-6.4373E-06,1,0,0,-9.599988699,-6.4373E-06,1,0,0,0,97,97,112,1,,,,,,,,
,,,,,,,,,,,,,FF,,,,,,,,2.4507,,,,,,,,,,,,,,,,,,,,,,6102fc0089a279de6a998e7d,61036e281cbe328e09cf2619,2021-07-30_04h13.03.811,Simcolourproject_2stim_asymm_v5,2020.2.10,Win32,60,61025ae37ef11b136ea224fe,,,,,,,,,3486,100.8000129,-43.20000708,1,0,0,response3disk,,5,-4.799988627,3.19999361,1,0,0,rectangle,-4.799988627,3.19999361,1,0,0,-4.799988627,3.19999361,1,0,0,0,98,98,69,1,,,,,,,,
,,,,,,,,,,,,,FF,,,,,,,,1.6819,,,,,,,,,,,,,,,,,,,,,,6102fc0089a279de6a998e7d,61036e281cbe328e09cf2619,2021-07-30_04h13.03.811,Simcolourproject_2stim_asymm_v5,2020.2.10,Win32,60,61025ae37ef11b136ea224fe,,,,,,,,,1859,81.60001266,38.39999413,1,0,0,response1disk,,6,14.40001166,7.19999367,1,0,0,rectangle,14.40001166,7.19999367,1,0,0,14.40001166,7.19999367,1,0,0,0,99,99,82,1,,,,,,,,
,,,,,,,,,,,,,FF,,,,,,,,1.1494,,,,,,,,,,,,,,,,,,,,,,6102fc0089a279de6a998e7d,61036e281cbe328e09cf2619,2021-07-30_04h13.03.811,Simcolourproject_2stim_asymm_v5,2020.2.10,Win32,60,61025ae37ef11b136ea224fe,,,,,,,,,605,102.400013,31.99999404,1,0,0,response1disk,,6,28.00001186,-0.800006449,1,0,0,rectangle,28.00001186,-0.800006449,1,0,0,28.00001186,-0.800006449,1,0,0,0,100,100,148,1,,,,,,,,
,,,,,,,,,,,,,FF,,,,,,,,2.7993,,,,,,,,,,,,,,,,,,,,,,6102fc0089a279de6a998e7d,61036e281cbe328e09cf2619,2021-07-30_04h13.03.811,Simcolourproject_2stim_asymm_v5,2020.2.10,Win32,60,61025ae37ef11b136ea224fe,,,,,,,,,1868,56.00001228,79.99999475,1,0,0,response1disk,,7,17.60006053,-4.000006497,1,0,0,rectangle,-36.7999891,-98.4000079,1,0,0,-3.999988616,-1.600006461,1,0,0,0,101,101,86,1,,response5disk_3,TRUE,3,3,"[85,41,308,298,18,143,269,102,58,204,166,246,33,231,280,45,319,69,317,21]",6.2683,rectangle
,,,,,,,,,,,,,FF,,,,,,,,1.2344,,,,,,,,,,,,,,,,,,,,,,6102fc0089a279de6a998e7d,61036e281cbe328e09cf2619,2021-07-30_04h13.03.811,Simcolourproject_2stim_asymm_v5,2020.2.10,Win32,60,61025ae37ef11b136ea224fe,,,,,,,,,2563,52.80001223,99.19997063,1,0,0,response1disk,,7,3.200011492,-3.200006485,1,0,0,rectangle,3.200011492,-3.200006485,1,0,0,3.200011492,-3.200006485,1,0,0,0,102,102,101,1,,,,,,,,
,,,,,,,,,,,,,FF,,,,,,,,6.5196,,,,,,,,,,,,,,,,,,,,,,6102fc0089a279de6a998e7d,61036e281cbe328e09cf2619,2021-07-30_04h13.03.811,Simcolourproject_2stim_asymm_v5,2020.2.10,Win32,60,61025ae37ef11b136ea224fe,,,,,,,,,581,88.00001276,-47.20000714,1,0,0,response3disk,,5,-0.799988568,3.999993622,1,0,0,rectangle,-0.799988568,3.999993622,1,0,0,-0.799988568,3.999993622,1,0,0,0,103,103,127,1,,,,,,,,
,,,,,,,,,,,,,FF,,,,,,,,1.1176,,,,,,,,,,,,,,,,,,,,,,6102fc0089a279de6a998e7d,61036e281cbe328e09cf2619,2021-07-30_04h13.03.811,Simcolourproject_2stim_asymm_v5,2020.2.10,Win32,60,61025ae37ef11b136ea224fe,,,,,,,,,47,23.20001179,74.39999467,1,0,0,response1disk,,7,1.600060296,-0.800006449,1,0,0,rectangle,1.600060296,-0.800006449,1,0,0,1.600060296,-0.800006449,1,0,0,0,104,104,68,1,,,,,,,,
,,,,,,,,,,,,,FF,,,,,,,,2.5663,,,,,,,,,,,,,,,,,,,,,,6102fc0089a279de6a998e7d,61036e281cbe328e09cf2619,2021-07-30_04h13.03.811,Simcolourproject_2stim_asymm_v5,2020.2.10,Win32,60,61025ae37ef11b136ea224fe,,,,,,,,,2129,45.60006095,83.19997039,1,0,0,response1disk,,7,8.800011575,7.19999367,1,0,0,rectangle,8.800011575,7.19999367,1,0,0,8.800011575,7.19999367,1,0,0,0,105,105,145,1,,,,,,,,
,,,,,,,,,,,,,FF,,,,,,,,1.0177,,,,,,,,,,,,,,,,,,,,,,6102fc0089a279de6a998e7d,61036e281cbe328e09cf2619,2021-07-30_04h13.03.811,Simcolourproject_2stim_asymm_v5,2020.2.10,Win32,60,61025ae37ef11b136ea224fe,,,,,,,,,1501,44.80001211,89.5999949,1,0,0,response1disk,,7,1.14441E-05,13.59999377,1,0,0,rectangle,1.14441E-05,13.59999377,1,0,0,1.14441E-05,13.59999377,1,0,0,0,106,106,119,1,,,,,,,,
,,,,,,,,,,,,,FF,,,,,,,,1.5491,,,,,,,,,,,,,,,,,,,,,,6102fc0089a279de6a998e7d,61036e281cbe328e09cf2619,2021-07-30_04h13.03.811,Simcolourproject_2stim_asymm_v5,2020.2.10,Win32,60,61025ae37ef11b136ea224fe,,,,,,,,,2900,-85.59998983,39.99999416,1,0,0,response7disk,,1,4.800011516,6.399993658,1,0,0,rectangle,4.800011516,6.399993658,1,0,0,4.800011516,6.399993658,1,0,0,0,107,107,62,1,,,,,,,,
,,,,,,,,,,,,,FF,,,,,,,,1.318,,,,,,,,,,,,,,,,,,,,,,6102fc0089a279de6a998e7d,61036e281cbe328e09cf2619,2021-07-30_04h13.03.811,Simcolourproject_2stim_asymm_v5,2020.2.10,Win32,60,61025ae37ef11b136ea224fe,,,,,,,,,2266,98.40001291,-32.00000691,1,0,0,response3disk,,5,24.0000118,4.799993634,1,0,0,rectangle,24.0000118,4.799993634,1,0,0,24.0000118,4.799993634,1,0,0,0,108,108,14,1,,,,,,,,
,,,,,,,,,,,,,FF,,,,,,,,1.117,,,,,,,,,,,,,,,,,,,,,,6102fc0089a279de6a998e7d,61036e281cbe328e09cf2619,2021-07-30_04h13.03.811,Simcolourproject_2stim_asymm_v5,2020.2.10,Win32,60,61025ae37ef11b136ea224fe,,,,,,,,,1473,36.80001199,-80.00000763,1,0,0,response3disk,,4,-3.999988616,-4.800006509,1,0,0,rectangle,-3.999988616,-4.800006509,1,0,0,-3.999988616,-4.800006509,1,0,0,0,109,109,80,1,,,,,,,,
,,,,,,,,,,,,,FF,,,,,,,,1.2506,,,,,,,,,,,,,,,,,,,,,,6102fc0089a279de6a998e7d,61036e281cbe328e09cf2619,2021-07-30_04h13.03.811,Simcolourproject_2stim_asymm_v5,2020.2.10,Win32,60,61025ae37ef11b136ea224fe,,,,,,,,,2438,-27.99998897,-86.40000772,1,0,0,response5disk,,3,-7.199988663,-2.400006473,1,0,0,rectangle,-7.199988663,-2.400006473,1,0,0,-7.199988663,-2.400006473,1,0,0,0,110,110,139,1,,,,,,,,
,,,,,,,,,,,,,FF,,,,,,,,1.2555,,,,,,,,,,,,,,,,,,,,,,6102fc0089a279de6a998e7d,61036e281cbe328e09cf2619,2021-07-30_04h13.03.811,Simcolourproject_2stim_asymm_v5,2020.2.10,Win32,60,61025ae37ef11b136ea224fe,,,,,,,,,1074,-19.19998884,-82.40000767,1,0,0,response5disk,,3,3.200011492,1.599993587,1,0,0,rectangle,3.200011492,1.599993587,1,0,0,3.200011492,1.599993587,1,0,0,0,111,111,125,1,,,,,,,,
,,,,,,,,,,,,,FF,,,,,,,,1.0502,,,,,,,,,,,,,,,,,,,,,,6102fc0089a279de6a998e7d,61036e281cbe328e09cf2619,2021-07-30_04h13.03.811,Simcolourproject_2stim_asymm_v5,2020.2.10,Win32,60,61025ae37ef11b136ea224fe,,,,,,,,,1890,-75.99998969,-48.80000716,1,0,0,response5disk,,2,-29.599989,-6.4373E-06,1,0,0,rectangle,-29.599989,-6.4373E-06,1,0,0,-29.599989,-6.4373E-06,1,0,0,0,112,112,115,1,,,,,,,,
,,,,,,,,,,,,,FF,,,,,,,,1.5007,,,,,,,,,,,,,,,,,,,,,,6102fc0089a279de6a998e7d,61036e281cbe328e09cf2619,2021-07-30_04h13.03.811,Simcolourproject_2stim_asymm_v5,2020.2.10,Win32,60,61025ae37ef11b136ea224fe,,,,,,,,,883,56.80001229,-77.60000759,1,0,0,response3disk,,4,12.80001163,-4.800006509,1,0,0,rectangle,12.80001163,-4.800006509,1,0,0,12.80001163,-4.800006509,1,0,0,0,113,113,30,1,,,,,,,,
,,,,,,,,,,,,,FF,,,,,,,,1.8836,,,,,,,,,,,,,,,,,,,,,,6102fc0089a279de6a998e7d,61036e281cbe328e09cf2619,2021-07-30_04h13.03.811,Simcolourproject_2stim_asymm_v5,2020.2.10,Win32,60,61025ae37ef11b136ea224fe,,,,,,,,,3948,48.80001217,79.99999475,1,0,0,response1disk,,7,-7.999988675,-2.400006473,1,0,0,rectangle,-7.999988675,-2.400006473,1,0,0,-7.999988675,-2.400006473,1,0,0,0,114,114,83,1,,,,,,,,
,,,,,,,,,,,,,FF,,,,,,,,1.3667,,,,,,,,,,,,,,,,,,,,,,6102fc0089a279de6a998e7d,61036e281cbe328e09cf2619,2021-07-30_04h13.03.811,Simcolourproject_2stim_asymm_v5,2020.2.10,Win32,60,61025ae37ef11b136ea224fe,,,,,,,,,19,33.60006077,115.1999709,1,0,0,response1disk,,7,11.20001161,-5.600006521,1,0,0,rectangle,11.20001161,-5.600006521,1,0,0,11.20001161,-5.600006521,1,0,0,0,115,115,129,1,,,,,,,,
,,,,,,,,,,,,,FF,,,,,,,,1.4336,,,,,,,,,,,,,,,,,,,,,,6102fc0089a279de6a998e7d,61036e281cbe328e09cf2619,2021-07-30_04h13.03.811,Simcolourproject_2stim_asymm_v5,2020.2.10,Win32,60,61025ae37ef11b136ea224fe,,,,,,,,,755,51.20001221,79.99999475,1,0,0,response1disk,,7,14.40001166,-4.800006509,1,0,0,rectangle,14.40001166,-4.800006509,1,0,0,14.40001166,-4.800006509,1,0,0,0,116,116,53,1,,,,,,,,
,,,,,,,,,,,,,FF,,,,,,,,1.0153,,,,,,,,,,,,,,,,,,,,,,6102fc0089a279de6a998e7d,61036e281cbe328e09cf2619,2021-07-30_04h13.03.811,Simcolourproject_2stim_asymm_v5,2020.2.10,Win32,60,61025ae37ef11b136ea224fe,,,,,,,,,484,26.40001184,73.59999466,1,0,0,response1disk,,7,-3.199988604,4.799993634,1,0,0,rectangle,-3.199988604,4.799993634,1,0,0,-3.199988604,4.799993634,1,0,0,0,117,117,56,1,,,,,,,,
,,,,,,,,,,,,,FF,,,,,,,,1.3505,,,,,,,,,,,,,,,,,,,,,,6102fc0089a279de6a998e7d,61036e281cbe328e09cf2619,2021-07-30_04h13.03.811,Simcolourproject_2stim_asymm_v5,2020.2.10,Win32,60,61025ae37ef11b136ea224fe,,,,,,,,,2482,-49.5999893,89.5999949,1,0,0,response7disk,,0,-16.79998881,0.799993575,1,0,0,rectangle,-16.79998881,0.799993575,1,0,0,-16.79998881,0.799993575,1,0,0,0,118,118,98,1,,,,,,,,
,,,,,,,,,,,,,FF,,,,,,,,1.8998,,,,,,,,,,,,,,,,,,,,,,6102fc0089a279de6a998e7d,61036e281cbe328e09cf2619,2021-07-30_04h13.03.811,Simcolourproject_2stim_asymm_v5,2020.2.10,Win32,60,61025ae37ef11b136ea224fe,,,,,,,,,1818,-88.79998988,33.59999406,1,0,0,response7disk,,1,-3.199988604,-12.00000662,1,0,0,rectangle,-3.199988604,-12.00000662,1,0,0,-3.199988604,-12.00000662,1,0,0,0,119,119,142,1,,,,,,,,
,,,,,,,,,,,,,FF,,,,,,,,1.5833,,,,,,,,,,,,,,,,,,,,,,6102fc0089a279de6a998e7d,61036e281cbe328e09cf2619,2021-07-30_04h13.03.811,Simcolourproject_2stim_asymm_v5,2020.2.10,Win32,60,61025ae37ef11b136ea224fe,,,,,,,,,2712,-110.3999414,-46.40000713,1,0,0,response5disk,,2,-3.999988616,-1.600006461,1,0,0,rectangle,-3.999988616,-1.600006461,1,0,0,-3.999988616,-1.600006461,1,0,0,0,120,120,97,1,,,,,,,,
,,,,,,,,,,,,,FF,,,,,,,,1.1824,,,,,,,,,,,,,,,,,,,,,,6102fc0089a279de6a998e7d,61036e281cbe328e09cf2619,2021-07-30_04h13.03.811,Simcolourproject_2stim_asymm_v5,2020.2.10,Win32,60,61025ae37ef11b136ea224fe,,,,,,,,,702,-40.79998916,-95.20000786,1,0,0,response5disk,,3,-8.799988687,1.599993587,1,0,0,rectangle,-8.799988687,1.599993587,1,0,0,-8.799988687,1.599993587,1,0,0,0,121,121,104,1,,,,,,,,
,,,,,,,,,,,,,FF,,,,,,,,1.5827,,,,,,,,,,,,,,,,,,,,,,6102fc0089a279de6a998e7d,61036e281cbe328e09cf2619,2021-07-30_04h13.03.811,Simcolourproject_2stim_asymm_v5,2020.2.10,Win32,60,61025ae37ef11b136ea224fe,,,,,,,,,1777,-50.39994048,-93.60005666,1,0,0,response5disk,,3,-1.59998858,7.999993682,1,0,0,rectangle,-1.59998858,7.999993682,1,0,0,-1.59998858,7.999993682,1,0,0,0,122,122,22,1,,,,,,,,
,,,,,,,,,,,,,FF,,,,,,,,1.9663,,,,,,,,,,,,,,,,,,,,,,6102fc0089a279de6a998e7d,61036e281cbe328e09cf2619,2021-07-30_04h13.03.811,Simcolourproject_2stim_asymm_v5,2020.2.10,Win32,60,61025ae37ef11b136ea224fe,,,,,,,,,3116,102.400013,-42.40000707,1,0,0,response3disk,,5,16.00001168,-2.400006473,1,0,0,rectangle,16.00001168,-2.400006473,1,0,0,16.00001168,-2.400006473,1,0,0,0,123,123,123,1,,,,,,,,
,,,,,,,,,,,,,FF,,,,,,,,1.4987,,,,,,,,,,,,,,,,,,,,,,6102fc0089a279de6a998e7d,61036e281cbe328e09cf2619,2021-07-30_04h13.03.811,Simcolourproject_2stim_asymm_v5,2020.2.10,Win32,60,61025ae37ef11b136ea224fe,,,,,,,,,2329,110.4000131,30.39999402,1,0,0,response1disk,,6,9.600060415,1.599993587,1,0,0,rectangle,9.600060415,1.599993587,1,0,0,9.600060415,1.599993587,1,0,0,0,124,124,6,1,,,,,,,,
,,,,,,,,,,,,,FF,,,,,,,,1.2827,,,,,,,,,,,,,,,,,,,,,,6102fc0089a279de6a998e7d,61036e281cbe328e09cf2619,2021-07-30_04h13.03.811,Simcolourproject_2stim_asymm_v5,2020.2.10,Win32,60,61025ae37ef11b136ea224fe,,,,,,,,,2510,113.6000131,38.39999413,1,0,0,response1disk,,6,-0.799988568,-6.400006533,1,0,0,rectangle,-0.799988568,-6.400006533,1,0,0,-0.799988568,-6.400006533,1,0,0,0,125,125,77,1,,,,,,,,
,,,,,,,,,,,,,FF,,,,,,,,1.5495,,,,,,,,,,,,,,,,,,,,,,6102fc0089a279de6a998e7d,61036e281cbe328e09cf2619,2021-07-30_04h13.03.811,Simcolourproject_2stim_asymm_v5,2020.2.10,Win32,60,61025ae37ef11b136ea224fe,,,,,,,,,1761,-47.99998927,-109.6000569,1,0,0,response5disk,,3,-10.39993988,-4.000006497,1,0,0,rectangle,-10.39993988,-4.000006497,1,0,0,-10.39993988,-4.000006497,1,0,0,0,126,126,67,1,,,,,,,,
,,,,,,,,,,,,,FF,,,,,,,,1.7496,,,,,,,,,,,,,,,,,,,,,,6102fc0089a279de6a998e7d,61036e281cbe328e09cf2619,2021-07-30_04h13.03.811,Simcolourproject_2stim_asymm_v5,2020.2.10,Win32,60,61025ae37ef11b136ea224fe,,,,,,,,,3213,38.40001202,85.59999484,1,0,0,response1disk,,7,7.200011551,7.19999367,1,0,0,rectangle,7.200011551,7.19999367,1,0,0,7.200011551,7.19999367,1,0,0,0,127,127,15,1,,,,,,,,
,,,,,,,,,,,,,FF,,,,,,,,6.5309,,,,,,,,,,,,,,,,,,,,,,6102fc0089a279de6a998e7d,61036e281cbe328e09cf2619,2021-07-30_04h13.03.811,Simcolourproject_2stim_asymm_v5,2020.2.10,Win32,60,61025ae37ef11b136ea224fe,,,,,,,,,3112,34.40001196,-101.6000568,1,0,0,response3disk,,4,19.20001173,10.39999372,1,0,0,rectangle,19.20001173,10.39999372,1,0,0,19.20001173,10.39999372,1,0,0,0,128,128,19,1,,,,,,,,
,,,,,,,,,,,,,FF,,,,,,,,1.0328,,,,,,,,,,,,,,,,,,,,,,6102fc0089a279de6a998e7d,61036e281cbe328e09cf2619,2021-07-30_04h13.03.811,Simcolourproject_2stim_asymm_v5,2020.2.10,Win32,60,61025ae37ef11b136ea224fe,,,,,,,,,2096,-83.1999898,-40.00000703,1,0,0,response5disk,,2,-10.39993988,-0.800006449,1,0,0,rectangle,-10.39993988,-0.800006449,1,0,0,-10.39993988,-0.800006449,1,0,0,0,129,129,63,1,,,,,,,,
,,,,,,,,,,,,,FF,,,,,,,,1.1501,,,,,,,,,,,,,,,,,,,,,,6102fc0089a279de6a998e7d,61036e281cbe328e09cf2619,2021-07-30_04h13.03.811,Simcolourproject_2stim_asymm_v5,2020.2.10,Win32,60,61025ae37ef11b136ea224fe,,,,,,,,,4209,37.60006083,98.39999503,1,0,0,response1disk,,7,12.00001162,-8.800006568,1,0,0,rectangle,12.00001162,-8.800006568,1,0,0,12.00001162,-8.800006568,1,0,0,0,130,130,143,1,,,,,,,,
,,,,,,,,,,,,,FF,,,,,,,,1.633,,,,,,,,,,,,,,,,,,,,,,6102fc0089a279de6a998e7d,61036e281cbe328e09cf2619,2021-07-30_04h13.03.811,Simcolourproject_2stim_asymm_v5,2020.2.10,Win32,60,61025ae37ef11b136ea224fe,,,,,,,,,973,-55.19998938,-88.00000775,1,0,0,response5disk,,3,-4.799988627,-4.800006509,1,0,0,rectangle,-4.799988627,-4.800006509,1,0,0,-4.799988627,-4.800006509,1,0,0,0,131,131,136,1,,,,,,,,
,,,,,,,,,,,,,FF,,,,,,,,1.4334,,,,,,,,,,,,,,,,,,,,,,6102fc0089a279de6a998e7d,61036e281cbe328e09cf2619,2021-07-30_04h13.03.811,Simcolourproject_2stim_asymm_v5,2020.2.10,Win32,60,61025ae37ef11b136ea224fe,,,,,,,,,3409,92.80001283,39.19996973,1,0,0,response1disk,,6,13.60006047,-8.000006557,1,0,0,rectangle,13.60006047,-8.000006557,1,0,0,13.60006047,-8.000006557,1,0,0,0,132,132,43,1,,,,,,,,
,,,,,,,,,,,,,FF,,,,,,,,1.116,,,,,,,,,,,,,,,,,,,,,,6102fc0089a279de6a998e7d,61036e281cbe328e09cf2619,2021-07-30_04h13.03.811,Simcolourproject_2stim_asymm_v5,2020.2.10,Win32,60,61025ae37ef11b136ea224fe,,,,,,,,,1409,36.80001199,84.79999483,1,0,0,response1disk,,7,7.200011551,-0.800006449,1,0,0,rectangle,7.200011551,-0.800006449,1,0,0,7.200011551,-0.800006449,1,0,0,0,133,133,52,1,,,,,,,,
,,,,,,,,,,,,,FF,,,,,,,,1.0832,,,,,,,,,,,,,,,,,,,,,,6102fc0089a279de6a998e7d,61036e281cbe328e09cf2619,2021-07-30_04h13.03.811,Simcolourproject_2stim_asymm_v5,2020.2.10,Win32,60,61025ae37ef11b136ea224fe,,,,,,,,,772,34.40001196,79.19997033,1,0,0,response1disk,,7,-1.59998858,9.599993706,1,0,0,rectangle,-1.59998858,9.599993706,1,0,0,-1.59998858,9.599993706,1,0,0,0,134,134,158,1,,,,,,,,
,,,,,,,,,,,,,FF,,,,,,,,1.3661,,,,,,,,,,,,,,,,,,,,,,6102fc0089a279de6a998e7d,61036e281cbe328e09cf2619,2021-07-30_04h13.03.811,Simcolourproject_2stim_asymm_v5,2020.2.10,Win32,60,61025ae37ef11b136ea224fe,,,,,,,,,802,-101.5999901,48.79999429,1,0,0,response7disk,,1,-12.79998875,-7.200006545,1,0,0,rectangle,-12.79998875,-7.200006545,1,0,0,-12.79998875,-7.200006545,1,0,0,0,135,135,109,1,,,,,,,,
,,,,,,,,,,,,,FF,,,,,,,,2.066,,,,,,,,,,,,,,,,,,,,,,6102fc0089a279de6a998e7d,61036e281cbe328e09cf2619,2021-07-30_04h13.03.811,Simcolourproject_2stim_asymm_v5,2020.2.10,Win32,60,61025ae37ef11b136ea224fe,,,,,,,,,663,40.80001205,-97.60005672,1,0,0,response3disk,,4,11.20001161,-8.000006557,1,0,0,rectangle,11.20001161,-8.000006557,1,0,0,11.20001161,-8.000006557,1,0,0,0,136,136,9,1,,,,,,,,
,,,,,,,,,,,,,FF,,,,,,,,1.6329,,,,,,,,,,,,,,,,,,,,,,6102fc0089a279de6a998e7d,61036e281cbe328e09cf2619,2021-07-30_04h13.03.811,Simcolourproject_2stim_asymm_v5,2020.2.10,Win32,60,61025ae37ef11b136ea224fe,,,,,,,,,2091,50.4000122,-93.60005666,1,0,0,response3disk,,4,12.00001162,5.599993646,1,0,0,rectangle,12.00001162,5.599993646,1,0,0,12.00001162,5.599993646,1,0,0,0,137,137,4,1,,,,,,,,
,,,,,,,,,,,,,FF,,,,,,,,1.7501,,,,,,,,,,,,,,,,,,,,,,6102fc0089a279de6a998e7d,61036e281cbe328e09cf2619,2021-07-30_04h13.03.811,Simcolourproject_2stim_asymm_v5,2020.2.10,Win32,60,61025ae37ef11b136ea224fe,,,,,,,,,3691,47.20001215,94.39999497,1,0,0,response1disk,,7,1.600060296,5.599993646,1,0,0,rectangle,1.600060296,5.599993646,1,0,0,1.600060296,5.599993646,1,0,0,0,138,138,84,1,,,,,,,,
,,,,,,,,,,,,,FF,,,,,,,,1.1331,,,,,,,,,,,,,,,,,,,,,,6102fc0089a279de6a998e7d,61036e281cbe328e09cf2619,2021-07-30_04h13.03.811,Simcolourproject_2stim_asymm_v5,2020.2.10,Win32,60,61025ae37ef11b136ea224fe,,,,,,,,,1612,36.80001199,-90.40000778,1,0,0,response3disk,,4,11.20001161,6.399993658,1,0,0,rectangle,11.20001161,6.399993658,1,0,0,11.20001161,6.399993658,1,0,0,0,139,139,132,1,,,,,,,,
,,,,,,,,,,,,,FF,,,,,,,,6.3148,,,,,,,,,,,,,,,,,,,,,,6102fc0089a279de6a998e7d,61036e281cbe328e09cf2619,2021-07-30_04h13.03.811,Simcolourproject_2stim_asymm_v5,2020.2.10,Win32,60,61025ae37ef11b136ea224fe,,,,,,,,,1374,-72.79998964,-104.800008,1,0,0,response5disk,,3,-8.799988687,-0.800006449,1,0,0,rectangle,-8.799988687,-0.800006449,1,0,0,-8.799988687,-0.800006449,1,0,0,0,140,140,41,1,,,,,,,,
,,,,,,,,,,,,,FF,,,,,,,,2.9328,,,,,,,,,,,,,,,,,,,,,,6102fc0089a279de6a998e7d,61036e281cbe328e09cf2619,2021-07-30_04h13.03.811,Simcolourproject_2stim_asymm_v5,2020.2.10,Win32,60,61025ae37ef11b136ea224fe,,,,,,,,,923,93.60001284,-64.00000739,1,0,0,response3disk,,5,10.4000116,7.19999367,1,0,0,rectangle,10.4000116,7.19999367,1,0,0,10.4000116,7.19999367,1,0,0,0,141,141,137,1,,,,,,,,
,,,,,,,,,,,,,FF,,,,,,,,1.0007,,,,,,,,,,,,,,,,,,,,,,6102fc0089a279de6a998e7d,61036e281cbe328e09cf2619,2021-07-30_04h13.03.811,Simcolourproject_2stim_asymm_v5,2020.2.10,Win32,60,61025ae37ef11b136ea224fe,,,,,,,,,3493,41.60006089,89.5999949,1,0,0,response1disk,,7,8.000011563,5.599993646,1,0,0,rectangle,112.8000131,-39.20000702,1,0,0,-8.799988687,-8.000006557,1,0,0,0,142,142,70,1,,response3disk_3,TRUE,5,5,"[85,41,308,298,18,143,269,102,58,204,166,246,33,231,280,45,319,69,317,21]",367.8439,rectangle
,,,,,,,,,,,,,FF,,,,,,,,52.9048,,,,,,,,,,,,,,,,,,,,,,6102fc0089a279de6a998e7d,61036e281cbe328e09cf2619,2021-07-30_04h13.03.811,Simcolourproject_2stim_asymm_v5,2020.2.10,Win32,60,61025ae37ef11b136ea224fe,,,,,,,,,3896,39.20001203,-102.4000071,1,0,0,response3disk,,4,11.20001161,13.59999458,1,0,0,rectangle,11.20001161,13.59999458,1,0,0,11.20001161,13.59999458,1,0,0,0,143,143,71,1,,,,,,,,
,,,,,,,,,,,,,FF,,,,,,,,5.7327,,,,,,,,,,,,,,,,,,,,,,6102fc0089a279de6a998e7d,61036e281cbe328e09cf2619,2021-07-30_04h13.03.811,Simcolourproject_2stim_asymm_v5,2020.2.10,Win32,60,61025ae37ef11b136ea224fe,,,,,,,,,1105,-43.1999892,-82.40000685,1,0,0,response5disk,,3,3.200011492,-2.400005654,1,0,0,rectangle,3.200011492,-2.400005654,1,0,0,3.200011492,-2.400005654,1,0,0,0,144,144,87,1,,,,,,,,
,,,,,,,,,,,,,FF,,,,,,,,7.1811,,,,,,,,,,,,,,,,,,,,,,6102fc0089a279de6a998e7d,61036e281cbe328e09cf2619,2021-07-30_04h13.03.811,Simcolourproject_2stim_asymm_v5,2020.2.10,Win32,60,61025ae37ef11b136ea224fe,,,,,,,,,3663,36.00001198,-98.40000708,1,0,0,response3disk,,4,-5.599988639,0.799994394,1,0,0,rectangle,-5.599988639,0.799994394,1,0,0,-5.599988639,0.799994394,1,0,0,0,145,145,118,1,,,,,,,,
,,,,,,,,,,,,,FF,,,,,,,,2.9653,,,,,,,,,,,,,,,,,,,,,,6102fc0089a279de6a998e7d,61036e281cbe328e09cf2619,2021-07-30_04h13.03.811,Simcolourproject_2stim_asymm_v5,2020.2.10,Win32,60,61025ae37ef11b136ea224fe,,,,,,,,,24,112.0000131,-46.40000631,1,0,0,response3disk,,5,3.200011492,-3.200005665,1,0,0,rectangle,3.200011492,-3.200005665,1,0,0,3.200011492,-3.200005665,1,0,0,0,146,146,16,1,,,,,,,,
,,,,,,,,,,,,,FF,,,,,,,,209.4459,,,,,,,,,,,,,,,,,,,,,,6102fc0089a279de6a998e7d,61036e281cbe328e09cf2619,2021-07-30_04h13.03.811,Simcolourproject_2stim_asymm_v5,2020.2.10,Win32,60,61025ae37ef11b136ea224fe,,,,,,,,,4219,-42.39994036,-91.20000698,1,0,0,response5disk,,3,15.20001167,3.199970016,1,0,0,rectangle,15.20001167,3.199970016,1,0,0,15.20001167,3.199970016,1,0,0,0,147,147,124,1,,,,,,,,
,,,,,,,,,,,,,FF,,,,,,,,8.4475,,,,,,,,,,,,,,,,,,,,,,6102fc0089a279de6a998e7d,61036e281cbe328e09cf2619,2021-07-30_04h13.03.811,Simcolourproject_2stim_asymm_v5,2020.2.10,Win32,60,61025ae37ef11b136ea224fe,,,,,,,,,3637,54.40001225,-98.40000708,1,0,0,response3disk,,4,8.000011563,-5.61774E-06,1,0,0,rectangle,8.000011563,-5.61774E-06,1,0,0,8.000011563,-5.61774E-06,1,0,0,0,148,148,116,1,,,,,,,,
,,,,,,,,,,,,,FF,,,,,,,,2.3827,,,,,,,,,,,,,,,,,,,,,,6102fc0089a279de6a998e7d,61036e281cbe328e09cf2619,2021-07-30_04h13.03.811,Simcolourproject_2stim_asymm_v5,2020.2.10,Win32,60,61025ae37ef11b136ea224fe,,,,,,,,,812,55.20001227,101.5999959,1,0,0,response1disk,,7,-14.39993994,-14.40000583,1,0,0,rectangle,-14.39993994,-14.40000583,1,0,0,-14.39993994,-14.40000583,1,0,0,0,149,149,100,1,,,,,,,,
,,,,,,,,,,,,,FF,,,,,,,,0.8658,,,,,,,,,,,,,,,,,,,,,,6102fc0089a279de6a998e7d,61036e281cbe328e09cf2619,2021-07-30_04h13.03.811,Simcolourproject_2stim_asymm_v5,2020.2.10,Win32,60,61025ae37ef11b136ea224fe,,,,,,,,,3363,40.00001204,86.39999567,1,0,0,response1disk,,7,5.600060356,10.39999454,1,0,0,rectangle,5.600060356,10.39999454,1,0,0,5.600060356,10.39999454,1,0,0,0,150,150,78,1,,,,,,,,
,,,,,,,,,,,,,FF,,,,,,,,0.7998,,,,,,,,,,,,,,,,,,,,,,6102fc0089a279de6a998e7d,61036e281cbe328e09cf2619,2021-07-30_04h13.03.811,Simcolourproject_2stim_asymm_v5,2020.2.10,Win32,60,61025ae37ef11b136ea224fe,,,,,,,,,3935,39.20001203,83.19997121,1,0,0,response1disk,,7,6.400011539,-8.000005737,1,0,0,rectangle,6.400011539,-8.000005737,1,0,0,6.400011539,-8.000005737,1,0,0,0,151,151,130,1,,,,,,,,
,,,,,,,,,,,,,FF,,,,,,,,2.0827,,,,,,,,,,,,,,,,,,,,,,6102fc0089a279de6a998e7d,61036e281cbe328e09cf2619,2021-07-30_04h13.03.811,Simcolourproject_2stim_asymm_v5,2020.2.10,Win32,60,61025ae37ef11b136ea224fe,,,,,,,,,98,73.60001254,-105.600056,1,0,0,response3disk,,4,1.600060296,4.799994454,1,0,0,rectangle,1.600060296,4.799994454,1,0,0,1.600060296,4.799994454,1,0,0,0,152,152,152,1,,,,,,,,
,,,,,,,,,,,,,FF,,,,,,,,8.2478,,,,,,,,,,,,,,,,,,,,,,6102fc0089a279de6a998e7d,61036e281cbe328e09cf2619,2021-07-30_04h13.03.811,Simcolourproject_2stim_asymm_v5,2020.2.10,Win32,60,61025ae37ef11b136ea224fe,,,,,,,,,4275,-38.3999403,-108.0000072,1,0,0,response5disk,,3,8.000011563,3.199970016,1,0,0,rectangle,8.000011563,3.199970016,1,0,0,8.000011563,3.199970016,1,0,0,0,153,153,32,1,,,,,,,,
,,,,,,,,,,,,,FF,,,,,,,,1.3554,,,,,,,,,,,,,,,,,,,,,,6102fc0089a279de6a998e7d,61036e281cbe328e09cf2619,2021-07-30_04h13.03.811,Simcolourproject_2stim_asymm_v5,2020.2.10,Win32,60,61025ae37ef11b136ea224fe,,,,,,,,,2859,47.20001215,88.79999571,1,0,0,response1disk,,7,3.200011492,-8.000005737,1,0,0,rectangle,3.200011492,-8.000005737,1,0,0,3.200011492,-8.000005737,1,0,0,0,154,154,47,1,,,,,,,,
,,,,,,,,,,,,,FF,,,,,,,,2.0166,,,,,,,,,,,,,,,,,,,,,,6102fc0089a279de6a998e7d,61036e281cbe328e09cf2619,2021-07-30_04h13.03.811,Simcolourproject_2stim_asymm_v5,2020.2.10,Win32,60,61025ae37ef11b136ea224fe,,,,,,,,,3312,63.20001239,-58.40000649,1,0,0,response3disk,,5,14.40001166,-1.600005642,1,0,0,rectangle,14.40001166,-1.600005642,1,0,0,14.40001166,-1.600005642,1,0,0,0,155,155,134,1,,,,,,,,
,,,,,,,,,,,,,FF,,,,,,,,0.784,,,,,,,,,,,,,,,,,,,,,,6102fc0089a279de6a998e7d,61036e281cbe328e09cf2619,2021-07-30_04h13.03.811,Simcolourproject_2stim_asymm_v5,2020.2.10,Win32,60,61025ae37ef11b136ea224fe,,,,,,,,,1078,73.60001254,-32.00000609,1,0,0,response3disk,,5,6.400011539,11.99999456,1,0,0,rectangle,6.400011539,11.99999456,1,0,0,6.400011539,11.99999456,1,0,0,0,156,156,147,1,,,,,,,,
,,,,,,,,,,,,,FF,,,,,,,,2.5164,,,,,,,,,,,,,,,,,,,,,,6102fc0089a279de6a998e7d,61036e281cbe328e09cf2619,2021-07-30_04h13.03.811,Simcolourproject_2stim_asymm_v5,2020.2.10,Win32,60,61025ae37ef11b136ea224fe,,,,,,,,,4052,-34.39994024,103.1999715,1,0,0,response7disk,,0,-4.799988627,-0.800030044,1,0,0,rectangle,-4.799988627,-0.800030044,1,0,0,-4.799988627,-0.800030044,1,0,0,0,157,157,35,1,,,,,,,,
,,,,,,,,,,,,,FF,,,,,,,,1.1159,,,,,,,,,,,,,,,,,,,,,,6102fc0089a279de6a998e7d,61036e281cbe328e09cf2619,2021-07-30_04h13.03.811,Simcolourproject_2stim_asymm_v5,2020.2.10,Win32,60,61025ae37ef11b136ea224fe,,,,,,,,,1098,36.80001199,75.99999551,1,0,0,response1disk,,7,-2.399939764,-7.200005725,1,0,0,rectangle,-2.399939764,-7.200005725,1,0,0,-2.399939764,-7.200005725,1,0,0,0,158,158,135,1,,,,,,,,
,,,,,,,,,,,,,FF,,,,,,,,2.3161,,,,,,,,,,,,,,,,,,,,,,6102fc0089a279de6a998e7d,61036e281cbe328e09cf2619,2021-07-30_04h13.03.811,Simcolourproject_2stim_asymm_v5,2020.2.10,Win32,60,61025ae37ef11b136ea224fe,,,,,,,,,4202,43.20001209,-102.4000071,1,0,0,response3disk,,4,-15.19998878,-5.61774E-06,1,0,0,rectangle,-15.19998878,-5.61774E-06,1,0,0,-15.19998878,-5.61774E-06,1,0,0,0,159,159,74,1,,,,,,,,
,,,,,,,,,,,,,FF,,,,,,,,3.6973,,,,,,,,,,,,,,,,,,,,,,6102fc0089a279de6a998e7d,61036e281cbe328e09cf2619,2021-07-30_04h13.03.811,Simcolourproject_2stim_asymm_v5,2020.2.10,Win32,60,61025ae37ef11b136ea224fe,,,,,,,,,2681,82.40001267,31.99999486,1,0,0,response1disk,,6,-15.19998878,3.999994442,1,0,0,rectangle,-15.19998878,3.999994442,1,0,0,-15.19998878,3.999994442,1,0,0,1,0,160,46,1,,,,,,,,
,,,,,,,,,,,,,FF,,,,,,,,1.3996,,,,,,,,,,,,,,,,,,,,,,6102fc0089a279de6a998e7d,61036e281cbe328e09cf2619,2021-07-30_04h13.03.811,Simcolourproject_2stim_asymm_v5,2020.2.10,Win32,60,61025ae37ef11b136ea224fe,,,,,,,,,1585,112.0000131,79.99999557,1,0,0,response1disk,,6,24.80001181,-3.200005665,1,0,0,rectangle,24.80001181,-3.200005665,1,0,0,24.80001181,-3.200005665,1,0,0,1,1,161,85,1,,,,,,,,
,,,,,,,,,,,,,FF,,,,,,,,0.7,,,,,,,,,,,,,,,,,,,,,,6102fc0089a279de6a998e7d,61036e281cbe328e09cf2619,2021-07-30_04h13.03.811,Simcolourproject_2stim_asymm_v5,2020.2.10,Win32,60,61025ae37ef11b136ea224fe,,,,,,,,,3266,80.00001264,29.59999482,1,0,0,response1disk,,6,-2.399939764,3.199970016,1,0,0,rectangle,-2.399939764,3.199970016,1,0,0,-2.399939764,3.199970016,1,0,0,1,2,162,109,1,,,,,,,,
,,,,,,,,,,,,,FF,,,,,,,,4.2646,,,,,,,,,,,,,,,,,,,,,,6102fc0089a279de6a998e7d,61036e281cbe328e09cf2619,2021-07-30_04h13.03.811,Simcolourproject_2stim_asymm_v5,2020.2.10,Win32,60,61025ae37ef11b136ea224fe,,,,,,,,,3561,33.60006077,-72.8000067,1,0,0,response3disk,,4,-8.799988687,-8.000005737,1,0,0,rectangle,-8.799988687,-8.000005737,1,0,0,-8.799988687,-8.000005737,1,0,0,1,3,163,128,1,,,,,,,,
,,,,,,,,,,,,,FF,,,,,,,,3.1325,,,,,,,,,,,,,,,,,,,,,,6102fc0089a279de6a998e7d,61036e281cbe328e09cf2619,2021-07-30_04h13.03.811,Simcolourproject_2stim_asymm_v5,2020.2.10,Win32,60,61025ae37ef11b136ea224fe,,,,,,,,,665,45.60006095,-109.6000561,1,0,0,response3disk,,4,-8.799988687,-0.800030044,1,0,0,rectangle,-8.799988687,-0.800030044,1,0,0,-8.799988687,-0.800030044,1,0,0,1,4,164,27,1,,,,,,,,
,,,,,,,,,,,,,FF,,,,,,,,2.3831,,,,,,,,,,,,,,,,,,,,,,6102fc0089a279de6a998e7d,61036e281cbe328e09cf2619,2021-07-30_04h13.03.811,Simcolourproject_2stim_asymm_v5,2020.2.10,Win32,60,61025ae37ef11b136ea224fe,,,,,,,,,1636,32.00001192,83.99999563,1,0,0,response1disk,,7,8.800011575,11.99999456,1,0,0,rectangle,37.60006083,-125.6000563,1,0,0,1.600060296,-13.60000582,1,0,0,1,5,165,90,1,,response3disk_3,TRUE,4,4,"[85,41,308,298,18,143,269,102,58,204,166,246,33,231,280,45,319,69,317,21]",2.6662,rectangle
,,,,,,,,,,,,,FF,,,,,,,,2.2657,,,,,,,,,,,,,,,,,,,,,,6102fc0089a279de6a998e7d,61036e281cbe328e09cf2619,2021-07-30_04h13.03.811,Simcolourproject_2stim_asymm_v5,2020.2.10,Win32,60,61025ae37ef11b136ea224fe,,,,,,,,,4326,-44.79998922,91.99999575,1,0,0,response7disk,,0,-1.59998858,0.799994394,1,0,0,rectangle,-1.59998858,0.799994394,1,0,0,-1.59998858,0.799994394,1,0,0,1,6,166,71,1,,,,,,,,
,,,,,,,,,,,,,FF,,,,,,,,1.4828,,,,,,,,,,,,,,,,,,,,,,6102fc0089a279de6a998e7d,61036e281cbe328e09cf2619,2021-07-30_04h13.03.811,Simcolourproject_2stim_asymm_v5,2020.2.10,Win32,60,61025ae37ef11b136ea224fe,,,,,,,,,3094,-33.59998906,-80.80000682,1,0,0,response5disk,,3,6.400011539,9.599994525,1,0,0,rectangle,6.400011539,9.599994525,1,0,0,6.400011539,9.599994525,1,0,0,1,7,167,8,1,,,,,,,,
,,,,,,,,,,,,,FF,,,,,,,,1.0007,,,,,,,,,,,,,,,,,,,,,,6102fc0089a279de6a998e7d,61036e281cbe328e09cf2619,2021-07-30_04h13.03.811,Simcolourproject_2stim_asymm_v5,2020.2.10,Win32,60,61025ae37ef11b136ea224fe,,,,,,,,,504,52.00001222,95.19997139,1,0,0,response1disk,,7,13.60006047,-4.000005677,1,0,0,rectangle,13.60006047,-4.000005677,1,0,0,13.60006047,-4.000005677,1,0,0,1,8,168,50,1,,,,,,,,
,,,,,,,,,,,,,FF,,,,,,,,0.9666,,,,,,,,,,,,,,,,,,,,,,6102fc0089a279de6a998e7d,61036e281cbe328e09cf2619,2021-07-30_04h13.03.811,Simcolourproject_2stim_asymm_v5,2020.2.10,Win32,60,61025ae37ef11b136ea224fe,,,,,,,,,2715,-38.3999403,-89.60005578,1,0,0,response5disk,,3,0.800011456,-8.000005737,1,0,0,rectangle,0.800011456,-8.000005737,1,0,0,0.800011456,-8.000005737,1,0,0,1,9,169,30,1,,,,,,,,
,,,,,,,,,,,,,FF,,,,,,,,2.3822,,,,,,,,,,,,,,,,,,,,,,6102fc0089a279de6a998e7d,61036e281cbe328e09cf2619,2021-07-30_04h13.03.811,Simcolourproject_2stim_asymm_v5,2020.2.10,Win32,60,61025ae37ef11b136ea224fe,,,,,,,,,3944,116.0000132,-29.60000606,1,0,0,response3disk,,5,-7.999988675,3.999994442,1,0,0,rectangle,-7.999988675,3.999994442,1,0,0,-7.999988675,3.999994442,1,0,0,1,10,170,36,1,,,,,,,,
,,,,,,,,,,,,,FF,,,,,,,,1.7323,,,,,,,,,,,,,,,,,,,,,,6102fc0089a279de6a998e7d,61036e281cbe328e09cf2619,2021-07-30_04h13.03.811,Simcolourproject_2stim_asymm_v5,2020.2.10,Win32,60,61025ae37ef11b136ea224fe,,,,,,,,,1809,34.40001196,-82.40000685,1,0,0,response3disk,,4,-11.19998872,-2.400005654,1,0,0,rectangle,-11.19998872,-2.400005654,1,0,0,-11.19998872,-2.400005654,1,0,0,1,11,171,151,1,,,,,,,,
,,,,,,,,,,,,,FF,,,,,,,,2.7825,,,,,,,,,,,,,,,,,,,,,,6102fc0089a279de6a998e7d,61036e281cbe328e09cf2619,2021-07-30_04h13.03.811,Simcolourproject_2stim_asymm_v5,2020.2.10,Win32,60,61025ae37ef11b136ea224fe,,,,,,,,,4073,51.20001221,109.599996,1,0,0,response1disk,,7,-4.799988627,4.799994454,1,0,0,rectangle,-4.799988627,4.799994454,1,0,0,-4.799988627,4.799994454,1,0,0,1,12,172,156,1,,,,,,,,
,,,,,,,,,,,,,FF,,,,,,,,1.2667,,,,,,,,,,,,,,,,,,,,,,6102fc0089a279de6a998e7d,61036e281cbe328e09cf2619,2021-07-30_04h13.03.811,Simcolourproject_2stim_asymm_v5,2020.2.10,Win32,60,61025ae37ef11b136ea224fe,,,,,,,,,4256,102.400013,-65.60005542,1,0,0,response3disk,,5,1.600060296,2.399994418,1,0,0,rectangle,1.600060296,2.399994418,1,0,0,1.600060296,2.399994418,1,0,0,1,13,173,111,1,,,,,,,,
,,,,,,,,,,,,,FF,,,,,,,,1.7678,,,,,,,,,,,,,,,,,,,,,,6102fc0089a279de6a998e7d,61036e281cbe328e09cf2619,2021-07-30_04h13.03.811,Simcolourproject_2stim_asymm_v5,2020.2.10,Win32,60,61025ae37ef11b136ea224fe,,,,,,,,,3159,25.60006065,83.19997121,1,0,0,response1disk,,7,1.600060296,1.599994406,1,0,0,rectangle,1.600060296,1.599994406,1,0,0,1.600060296,1.599994406,1,0,0,1,14,174,96,1,,,,,,,,
,,,,,,,,,,,,,FF,,,,,,,,0.7166,,,,,,,,,,,,,,,,,,,,,,6102fc0089a279de6a998e7d,61036e281cbe328e09cf2619,2021-07-30_04h13.03.811,Simcolourproject_2stim_asymm_v5,2020.2.10,Win32,60,61025ae37ef11b136ea224fe,,,,,,,,,2157,51.20001221,107.999996,1,0,0,response1disk,,7,9.600060415,1.599994406,1,0,0,rectangle,9.600060415,1.599994406,1,0,0,9.600060415,1.599994406,1,0,0,1,15,175,63,1,,,,,,,,
,,,,,,,,,,,,,FF,,,,,,,,0.7662,,,,,,,,,,,,,,,,,,,,,,6102fc0089a279de6a998e7d,61036e281cbe328e09cf2619,2021-07-30_04h13.03.811,Simcolourproject_2stim_asymm_v5,2020.2.10,Win32,60,61025ae37ef11b136ea224fe,,,,,,,,,3265,47.20001215,72.79999547,1,0,0,response1disk,,7,13.60006047,1.599994406,1,0,0,rectangle,13.60006047,1.599994406,1,0,0,13.60006047,1.599994406,1,0,0,1,16,176,133,1,,,,,,,,
,,,,,,,,,,,,,FF,,,,,,,,1.333,,,,,,,,,,,,,,,,,,,,,,6102fc0089a279de6a998e7d,61036e281cbe328e09cf2619,2021-07-30_04h13.03.811,Simcolourproject_2stim_asymm_v5,2020.2.10,Win32,60,61025ae37ef11b136ea224fe,,,,,,,,,188,-36.7999891,-94.40000702,1,0,0,response5disk,,3,8.800011575,3.199970016,1,0,0,rectangle,8.800011575,3.199970016,1,0,0,8.800011575,3.199970016,1,0,0,1,17,177,68,1,,,,,,,,
,,,,,,,,,,,,,FF,,,,,,,,1.2164,,,,,,,,,,,,,,,,,,,,,,6102fc0089a279de6a998e7d,61036e281cbe328e09cf2619,2021-07-30_04h13.03.811,Simcolourproject_2stim_asymm_v5,2020.2.10,Win32,60,61025ae37ef11b136ea224fe,,,,,,,,,43,41.60006089,127.9999963,1,0,0,response1disk,,7,11.20001161,5.599994466,1,0,0,rectangle,11.20001161,5.599994466,1,0,0,11.20001161,5.599994466,1,0,0,1,18,178,29,1,,,,,,,,
,,,,,,,,,,,,,FF,,,,,,,,0.733,,,,,,,,,,,,,,,,,,,,,,6102fc0089a279de6a998e7d,61036e281cbe328e09cf2619,2021-07-30_04h13.03.811,Simcolourproject_2stim_asymm_v5,2020.2.10,Win32,60,61025ae37ef11b136ea224fe,,,,,,,,,1948,40.80001205,87.99999569,1,0,0,response1disk,,7,-10.39993988,9.599994525,1,0,0,rectangle,-10.39993988,9.599994525,1,0,0,-10.39993988,9.599994525,1,0,0,1,19,179,82,1,,,,,,,,
,,,,,,,,,,,,,FF,,,,,,,,0.7497,,,,,,,,,,,,,,,,,,,,,,6102fc0089a279de6a998e7d,61036e281cbe328e09cf2619,2021-07-30_04h13.03.811,Simcolourproject_2stim_asymm_v5,2020.2.10,Win32,60,61025ae37ef11b136ea224fe,,,,,,,,,3253,45.60006095,95.99999581,1,0,0,response1disk,,7,-3.999988616,-7.200005725,1,0,0,rectangle,-3.999988616,-7.200005725,1,0,0,-3.999988616,-7.200005725,1,0,0,1,20,180,13,1,,,,,,,,
,,,,,,,,,,,,,FF,,,,,,,,0.8177,,,,,,,,,,,,,,,,,,,,,,6102fc0089a279de6a998e7d,61036e281cbe328e09cf2619,2021-07-30_04h13.03.811,Simcolourproject_2stim_asymm_v5,2020.2.10,Win32,60,61025ae37ef11b136ea224fe,,,,,,,,,2208,36.00001198,92.79999577,1,0,0,response1disk,,7,-11.99998873,-8.000005737,1,0,0,rectangle,-11.99998873,-8.000005737,1,0,0,-11.99998873,-8.000005737,1,0,0,1,21,181,134,1,,,,,,,,
,,,,,,,,,,,,,FF,,,,,,,,1.6157,,,,,,,,,,,,,,,,,,,,,,6102fc0089a279de6a998e7d,61036e281cbe328e09cf2619,2021-07-30_04h13.03.811,Simcolourproject_2stim_asymm_v5,2020.2.10,Win32,60,61025ae37ef11b136ea224fe,,,,,,,,,3876,62.40001237,-119.2000074,1,0,0,response3disk,,4,3.200011492,-14.40000583,1,0,0,rectangle,3.200011492,-14.40000583,1,0,0,3.200011492,-14.40000583,1,0,0,1,22,182,87,1,,,,,,,,
,,,,,,,,,,,,,FF,,,,,,,,2.8495,,,,,,,,,,,,,,,,,,,,,,6102fc0089a279de6a998e7d,61036e281cbe328e09cf2619,2021-07-30_04h13.03.811,Simcolourproject_2stim_asymm_v5,2020.2.10,Win32,60,61025ae37ef11b136ea224fe,,,,,,,,,3372,-79.99998975,-39.2000062,1,0,0,response5disk,,2,-17.59998882,-1.600005642,1,0,0,rectangle,-17.59998882,-1.600005642,1,0,0,-17.59998882,-1.600005642,1,0,0,1,23,183,159,1,,,,,,,,
,,,,,,,,,,,,,FF,,,,,,,,2.3994,,,,,,,,,,,,,,,,,,,,,,6102fc0089a279de6a998e7d,61036e281cbe328e09cf2619,2021-07-30_04h13.03.811,Simcolourproject_2stim_asymm_v5,2020.2.10,Win32,60,61025ae37ef11b136ea224fe,,,,,,,,,4089,82.40001267,-115.2000073,1,0,0,response3disk,,4,-26.39994012,-8.800030163,1,0,0,rectangle,-26.39994012,-8.800030163,1,0,0,-26.39994012,-8.800030163,1,0,0,1,24,184,3,1,,,,,,,,
,,,,,,,,,,,,,FF,,,,,,,,1.0332,,,,,,,,,,,,,,,,,,,,,,6102fc0089a279de6a998e7d,61036e281cbe328e09cf2619,2021-07-30_04h13.03.811,Simcolourproject_2stim_asymm_v5,2020.2.10,Win32,60,61025ae37ef11b136ea224fe,,,,,,,,,2304,50.4000122,-68.00000663,1,0,0,response3disk,,4,4.000011504,-8.000005737,1,0,0,rectangle,4.000011504,-8.000005737,1,0,0,4.000011504,-8.000005737,1,0,0,1,25,185,2,1,,,,,,,,
,,,,,,,,,,,,,FF,,,,,,,,0.9994,,,,,,,,,,,,,,,,,,,,,,6102fc0089a279de6a998e7d,61036e281cbe328e09cf2619,2021-07-30_04h13.03.811,Simcolourproject_2stim_asymm_v5,2020.2.10,Win32,60,61025ae37ef11b136ea224fe,,,,,,,,,130,44.80001211,90.39999573,1,0,0,response1disk,,7,14.40001166,-13.60000582,1,0,0,rectangle,14.40001166,-13.60000582,1,0,0,14.40001166,-13.60000582,1,0,0,1,26,186,89,1,,,,,,,,
,,,,,,,,,,,,,FF,,,,,,,,1.3163,,,,,,,,,,,,,,,,,,,,,,6102fc0089a279de6a998e7d,61036e281cbe328e09cf2619,2021-07-30_04h13.03.811,Simcolourproject_2stim_asymm_v5,2020.2.10,Win32,60,61025ae37ef11b136ea224fe,,,,,,,,,1180,48.80001217,98.39999585,1,0,0,response1disk,,7,6.400011539,10.39999454,1,0,0,rectangle,6.400011539,10.39999454,1,0,0,6.400011539,10.39999454,1,0,0,1,27,187,131,1,,,,,,,,
,,,,,,,,,,,,,FF,,,,,,,,1.5995,,,,,,,,,,,,,,,,,,,,,,6102fc0089a279de6a998e7d,61036e281cbe328e09cf2619,2021-07-30_04h13.03.811,Simcolourproject_2stim_asymm_v5,2020.2.10,Win32,60,61025ae37ef11b136ea224fe,,,,,,,,,3157,-91.19998991,-32.80000611,1,0,0,response5disk,,2,-27.19998896,6.399994478,1,0,0,rectangle,-27.19998896,6.399994478,1,0,0,-27.19998896,6.399994478,1,0,0,1,28,188,49,1,,,,,,,,
,,,,,,,,,,,,,FF,,,,,,,,1.5994,,,,,,,,,,,,,,,,,,,,,,6102fc0089a279de6a998e7d,61036e281cbe328e09cf2619,2021-07-30_04h13.03.811,Simcolourproject_2stim_asymm_v5,2020.2.10,Win32,60,61025ae37ef11b136ea224fe,,,,,,,,,2696,54.40001225,112.7999961,1,0,0,response1disk,,7,5.600060356,2.399994418,1,0,0,rectangle,5.600060356,2.399994418,1,0,0,5.600060356,2.399994418,1,0,0,1,29,189,157,1,,,,,,,,
,,,,,,,,,,,,,FF,,,,,,,,0.966,,,,,,,,,,,,,,,,,,,,,,6102fc0089a279de6a998e7d,61036e281cbe328e09cf2619,2021-07-30_04h13.03.811,Simcolourproject_2stim_asymm_v5,2020.2.10,Win32,60,61025ae37ef11b136ea224fe,,,,,,,,,2348,-47.99998927,-77.6000556,1,0,0,response5disk,,3,17.60006053,-11.20000578,1,0,0,rectangle,17.60006053,-11.20000578,1,0,0,17.60006053,-11.20000578,1,0,0,1,30,190,65,1,,,,,,,,
,,,,,,,,,,,,,FF,,,,,,,,1.1668,,,,,,,,,,,,,,,,,,,,,,6102fc0089a279de6a998e7d,61036e281cbe328e09cf2619,2021-07-30_04h13.03.811,Simcolourproject_2stim_asymm_v5,2020.2.10,Win32,60,61025ae37ef11b136ea224fe,,,,,,,,,3261,96.80001289,56.79999523,1,0,0,response1disk,,6,3.200011492,-10.40000577,1,0,0,rectangle,3.200011492,-10.40000577,1,0,0,3.200011492,-10.40000577,1,0,0,1,31,191,75,1,,,,,,,,
,,,,,,,,,,,,,FF,,,,,,,,1.4166,,,,,,,,,,,,,,,,,,,,,,6102fc0089a279de6a998e7d,61036e281cbe328e09cf2619,2021-07-30_04h13.03.811,Simcolourproject_2stim_asymm_v5,2020.2.10,Win32,60,61025ae37ef11b136ea224fe,,,,,,,,,2755,-36.7999891,-102.4000071,1,0,0,response5disk,,3,-6.399939823,3.999994442,1,0,0,rectangle,-6.399939823,3.999994442,1,0,0,-6.399939823,3.999994442,1,0,0,1,32,192,99,1,,,,,,,,
,,,,,,,,,,,,,FF,,,,,,,,0.9827,,,,,,,,,,,,,,,,,,,,,,6102fc0089a279de6a998e7d,61036e281cbe328e09cf2619,2021-07-30_04h13.03.811,Simcolourproject_2stim_asymm_v5,2020.2.10,Win32,60,61025ae37ef11b136ea224fe,,,,,,,,,1562,-33.59998906,-78.40000679,1,0,0,response5disk,,3,3.200011492,-8.800030163,1,0,0,rectangle,3.200011492,-8.800030163,1,0,0,3.200011492,-8.800030163,1,0,0,1,33,193,62,1,,,,,,,,
,,,,,,,,,,,,,FF,,,,,,,,1.3166,,,,,,,,,,,,,,,,,,,,,,6102fc0089a279de6a998e7d,61036e281cbe328e09cf2619,2021-07-30_04h13.03.811,Simcolourproject_2stim_asymm_v5,2020.2.10,Win32,60,61025ae37ef11b136ea224fe,,,,,,,,,769,62.40001237,111.9999961,1,0,0,response1disk,,7,-3.199988604,-8.000005737,1,0,0,rectangle,-3.199988604,-8.000005737,1,0,0,-3.199988604,-8.000005737,1,0,0,1,34,194,152,1,,,,,,,,
,,,,,,,,,,,,,FF,,,,,,,,0.6666,,,,,,,,,,,,,,,,,,,,,,6102fc0089a279de6a998e7d,61036e281cbe328e09cf2619,2021-07-30_04h13.03.811,Simcolourproject_2stim_asymm_v5,2020.2.10,Win32,60,61025ae37ef11b136ea224fe,,,,,,,,,3126,48.80001217,102.3999959,1,0,0,response1disk,,7,6.400011539,7.999994501,1,0,0,rectangle,6.400011539,7.999994501,1,0,0,6.400011539,7.999994501,1,0,0,1,35,195,33,1,,,,,,,,
,,,,,,,,,,,,,FF,,,,,,,,1.183,,,,,,,,,,,,,,,,,,,,,,6102fc0089a279de6a998e7d,61036e281cbe328e09cf2619,2021-07-30_04h13.03.811,Simcolourproject_2stim_asymm_v5,2020.2.10,Win32,60,61025ae37ef11b136ea224fe,,,,,,,,,2883,46.40001214,-104.0000072,1,0,0,response3disk,,4,1.600060296,-4.800030103,1,0,0,rectangle,1.600060296,-4.800030103,1,0,0,1.600060296,-4.800030103,1,0,0,1,36,196,11,1,,,,,,,,
,,,,,,,,,,,,,FF,,,,,,,,0.8165,,,,,,,,,,,,,,,,,,,,,,6102fc0089a279de6a998e7d,61036e281cbe328e09cf2619,2021-07-30_04h13.03.811,Simcolourproject_2stim_asymm_v5,2020.2.10,Win32,60,61025ae37ef11b136ea224fe,,,,,,,,,1978,49.60006101,130.3999963,1,0,0,response1disk,,7,-2.399939764,8.799994513,1,0,0,rectangle,-2.399939764,8.799994513,1,0,0,-2.399939764,8.799994513,1,0,0,1,37,197,15,1,,,,,,,,
,,,,,,,,,,,,,FF,,,,,,,,2.8655,,,,,,,,,,,,,,,,,,,,,,6102fc0089a279de6a998e7d,61036e281cbe328e09cf2619,2021-07-30_04h13.03.811,Simcolourproject_2stim_asymm_v5,2020.2.10,Win32,60,61025ae37ef11b136ea224fe,,,,,,,,,2901,-88.79998988,-63.20000656,1,0,0,response5disk,,2,16.00001168,11.19997014,1,0,0,rectangle,16.00001168,11.19997014,1,0,0,16.00001168,11.19997014,1,0,0,1,38,198,7,1,,,,,,,,
,,,,,,,,,,,,,FF,,,,,,,,1.3493,,,,,,,,,,,,,,,,,,,,,,6102fc0089a279de6a998e7d,61036e281cbe328e09cf2619,2021-07-30_04h13.03.811,Simcolourproject_2stim_asymm_v5,2020.2.10,Win32,60,61025ae37ef11b136ea224fe,,,,,,,,,3602,-76.7999897,-46.40000631,1,0,0,response5disk,,2,1.600060296,9.599994525,1,0,0,rectangle,1.600060296,9.599994525,1,0,0,1.600060296,9.599994525,1,0,0,1,39,199,149,1,,,,,,,,
,,,,,,,,,,,,,FF,,,,,,,,1.0498,,,,,,,,,,,,,,,,,,,,,,6102fc0089a279de6a998e7d,61036e281cbe328e09cf2619,2021-07-30_04h13.03.811,Simcolourproject_2stim_asymm_v5,2020.2.10,Win32,60,61025ae37ef11b136ea224fe,,,,,,,,,1862,64.0000124,87.19997127,1,0,0,response1disk,,7,21.60006059,-6.400005713,1,0,0,rectangle,21.60006059,-6.400005713,1,0,0,21.60006059,-6.400005713,1,0,0,1,40,200,110,1,,,,,,,,
,,,,,,,,,,,,,FF,,,,,,,,0.7333,,,,,,,,,,,,,,,,,,,,,,6102fc0089a279de6a998e7d,61036e281cbe328e09cf2619,2021-07-30_04h13.03.811,Simcolourproject_2stim_asymm_v5,2020.2.10,Win32,60,61025ae37ef11b136ea224fe,,,,,,,,,1685,45.60006095,108.799996,1,0,0,response1disk,,7,-6.399939823,5.599994466,1,0,0,rectangle,-6.399939823,5.599994466,1,0,0,-6.399939823,5.599994466,1,0,0,1,41,201,137,1,,,,,,,,
,,,,,,,,,,,,,FF,,,,,,,,0.8664,,,,,,,,,,,,,,,,,,,,,,6102fc0089a279de6a998e7d,61036e281cbe328e09cf2619,2021-07-30_04h13.03.811,Simcolourproject_2stim_asymm_v5,2020.2.10,Win32,60,61025ae37ef11b136ea224fe,,,,,,,,,832,48.80001217,92.79999577,1,0,0,response1disk,,7,8.800011575,2.399994418,1,0,0,rectangle,8.800011575,2.399994418,1,0,0,8.800011575,2.399994418,1,0,0,1,42,202,74,1,,,,,,,,
,,,,,,,,,,,,,FF,,,,,,,,1,,,,,,,,,,,,,,,,,,,,,,6102fc0089a279de6a998e7d,61036e281cbe328e09cf2619,2021-07-30_04h13.03.811,Simcolourproject_2stim_asymm_v5,2020.2.10,Win32,60,61025ae37ef11b136ea224fe,,,,,,,,,4192,42.40001208,119.1999717,1,0,0,response1disk,,7,0.800011456,9.599994525,1,0,0,rectangle,60.00001234,111.1999716,1,0,0,2.40001148,7.199970075,1,0,0,1,43,203,35,1,,response1disk_3,TRUE,7,7,"[85,41,308,298,18,143,269,102,58,204,166,246,33,231,280,45,319,69,317,21]",1.7003,rectangle
,,,,,,,,,,,,,FF,,,,,,,,0.8171,,,,,,,,,,,,,,,,,,,,,,6102fc0089a279de6a998e7d,61036e281cbe328e09cf2619,2021-07-30_04h13.03.811,Simcolourproject_2stim_asymm_v5,2020.2.10,Win32,60,61025ae37ef11b136ea224fe,,,,,,,,,1702,36.80001199,106.399996,1,0,0,response1disk,,7,-11.19998872,8.799994513,1,0,0,rectangle,-11.19998872,8.799994513,1,0,0,-11.19998872,8.799994513,1,0,0,1,44,204,106,1,,,,,,,,
,,,,,,,,,,,,,FF,,,,,,,,2.9322,,,,,,,,,,,,,,,,,,,,,,6102fc0089a279de6a998e7d,61036e281cbe328e09cf2619,2021-07-30_04h13.03.811,Simcolourproject_2stim_asymm_v5,2020.2.10,Win32,60,61025ae37ef11b136ea224fe,,,,,,,,,1810,36.80001199,-79.2000068,1,0,0,response3disk,,4,7.200011551,-8.800030163,1,0,0,rectangle,7.200011551,-8.800030163,1,0,0,7.200011551,-8.800030163,1,0,0,1,45,205,146,1,,,,,,,,
,,,,,,,,,,,,,FF,,,,,,,,1.4164,,,,,,,,,,,,,,,,,,,,,,6102fc0089a279de6a998e7d,61036e281cbe328e09cf2619,2021-07-30_04h13.03.811,Simcolourproject_2stim_asymm_v5,2020.2.10,Win32,60,61025ae37ef11b136ea224fe,,,,,,,,,938,32.80001193,112.7999961,1,0,0,response1disk,,7,1.14441E-05,-11.20000578,1,0,0,rectangle,1.14441E-05,-11.20000578,1,0,0,1.14441E-05,-11.20000578,1,0,0,1,46,206,76,1,,,,,,,,
,,,,,,,,,,,,,FF,,,,,,,,0.6164,,,,,,,,,,,,,,,,,,,,,,6102fc0089a279de6a998e7d,61036e281cbe328e09cf2619,2021-07-30_04h13.03.811,Simcolourproject_2stim_asymm_v5,2020.2.10,Win32,60,61025ae37ef11b136ea224fe,,,,,,,,,3912,49.60006101,96.79999582,1,0,0,response1disk,,7,-15.19998878,5.599994466,1,0,0,rectangle,-15.19998878,5.599994466,1,0,0,-15.19998878,5.599994466,1,0,0,1,47,207,155,1,,,,,,,,
,,,,,,,,,,,,,FF,,,,,,,,1.2661,,,,,,,,,,,,,,,,,,,,,,6102fc0089a279de6a998e7d,61036e281cbe328e09cf2619,2021-07-30_04h13.03.811,Simcolourproject_2stim_asymm_v5,2020.2.10,Win32,60,61025ae37ef11b136ea224fe,,,,,,,,,3943,-43.1999892,90.39999573,1,0,0,response7disk,,0,-5.599988639,9.599994525,1,0,0,rectangle,-5.599988639,9.599994525,1,0,0,-5.599988639,9.599994525,1,0,0,1,48,208,54,1,,,,,,,,
,,,,,,,,,,,,,FF,,,,,,,,1.2331,,,,,,,,,,,,,,,,,,,,,,6102fc0089a279de6a998e7d,61036e281cbe328e09cf2619,2021-07-30_04h13.03.811,Simcolourproject_2stim_asymm_v5,2020.2.10,Win32,60,61025ae37ef11b136ea224fe,,,,,,,,,2727,-78.3999409,38.39999495,1,0,0,response7disk,,1,13.60006047,10.39999454,1,0,0,rectangle,13.60006047,10.39999454,1,0,0,13.60006047,10.39999454,1,0,0,1,49,209,70,1,,,,,,,,
,,,,,,,,,,,,,FF,,,,,,,,1.3498,,,,,,,,,,,,,,,,,,,,,,6102fc0089a279de6a998e7d,61036e281cbe328e09cf2619,2021-07-30_04h13.03.811,Simcolourproject_2stim_asymm_v5,2020.2.10,Win32,60,61025ae37ef11b136ea224fe,,,,,,,,,798,47.20001215,95.99999581,1,0,0,response1disk,,7,18.40001172,11.99999456,1,0,0,rectangle,18.40001172,11.99999456,1,0,0,18.40001172,11.99999456,1,0,0,1,50,210,153,1,,,,,,,,
,,,,,,,,,,,,,FF,,,,,,,,1.2669,,,,,,,,,,,,,,,,,,,,,,6102fc0089a279de6a998e7d,61036e281cbe328e09cf2619,2021-07-30_04h13.03.811,Simcolourproject_2stim_asymm_v5,2020.2.10,Win32,60,61025ae37ef11b136ea224fe,,,,,,,,,2724,-65.59998953,-35.20000614,1,0,0,response5disk,,2,-15.19998878,-1.600005642,1,0,0,rectangle,-15.19998878,-1.600005642,1,0,0,-15.19998878,-1.600005642,1,0,0,1,51,211,28,1,,,,,,,,
,,,,,,,,,,,,,FF,,,,,,,,1.2993,,,,,,,,,,,,,,,,,,,,,,6102fc0089a279de6a998e7d,61036e281cbe328e09cf2619,2021-07-30_04h13.03.811,Simcolourproject_2stim_asymm_v5,2020.2.10,Win32,60,61025ae37ef11b136ea224fe,,,,,,,,,4276,20.80001175,50.39999513,1,0,0,response1disk,,7,4.800011516,-7.200005725,1,0,0,rectangle,4.800011516,-7.200005725,1,0,0,4.800011516,-7.200005725,1,0,0,1,52,212,129,1,,,,,,,,
,,,,,,,,,,,,,FF,,,,,,,,1.516,,,,,,,,,,,,,,,,,,,,,,6102fc0089a279de6a998e7d,61036e281cbe328e09cf2619,2021-07-30_04h13.03.811,Simcolourproject_2stim_asymm_v5,2020.2.10,Win32,60,61025ae37ef11b136ea224fe,,,,,,,,,1698,-108.7999902,102.3999959,1,0,0,response7disk,,1,-7.999988675,-4.800030103,1,0,0,rectangle,-7.999988675,-4.800030103,1,0,0,-7.999988675,-4.800030103,1,0,0,1,53,213,19,1,,,,,,,,
,,,,,,,,,,,,,FF,,,,,,,,2.1158,,,,,,,,,,,,,,,,,,,,,,6102fc0089a279de6a998e7d,61036e281cbe328e09cf2619,2021-07-30_04h13.03.811,Simcolourproject_2stim_asymm_v5,2020.2.10,Win32,60,61025ae37ef11b136ea224fe,,,,,,,,,2113,88.00001276,-53.60000642,1,0,0,response3disk,,5,12.80001163,-10.40000577,1,0,0,rectangle,12.80001163,-10.40000577,1,0,0,12.80001163,-10.40000577,1,0,0,1,54,214,45,1,,,,,,,,
,,,,,,,,,,,,,FF,,,,,,,,1.9494,,,,,,,,,,,,,,,,,,,,,,6102fc0089a279de6a998e7d,61036e281cbe328e09cf2619,2021-07-30_04h13.03.811,Simcolourproject_2stim_asymm_v5,2020.2.10,Win32,60,61025ae37ef11b136ea224fe,,,,,,,,,1541,80.80001265,27.19997037,1,0,0,response1disk,,6,26.40001184,13.59999458,1,0,0,rectangle,26.40001184,13.59999458,1,0,0,26.40001184,13.59999458,1,0,0,1,55,215,22,1,,,,,,,,
,,,,,,,,,,,,,FF,,,,,,,,1.167,,,,,,,,,,,,,,,,,,,,,,6102fc0089a279de6a998e7d,61036e281cbe328e09cf2619,2021-07-30_04h13.03.811,Simcolourproject_2stim_asymm_v5,2020.2.10,Win32,60,61025ae37ef11b136ea224fe,,,,,,,,,4168,-32.79998904,111.1999716,1,0,0,response7disk,,0,-9.599988699,0.799994394,1,0,0,rectangle,-9.599988699,0.799994394,1,0,0,-9.599988699,0.799994394,1,0,0,1,56,216,56,1,,,,,,,,
,,,,,,,,,,,,,FF,,,,,,,,2.3817,,,,,,,,,,,,,,,,,,,,,,6102fc0089a279de6a998e7d,61036e281cbe328e09cf2619,2021-07-30_04h13.03.811,Simcolourproject_2stim_asymm_v5,2020.2.10,Win32,60,61025ae37ef11b136ea224fe,,,,,,,,,725,-22.39994006,-78.40000679,1,0,0,response5disk,,3,9.600060415,-0.800030044,1,0,0,rectangle,9.600060415,-0.800030044,1,0,0,9.600060415,-0.800030044,1,0,0,1,57,217,142,1,,,,,,,,
,,,,,,,,,,,,,FF,,,,,,,,1.3832,,,,,,,,,,,,,,,,,,,,,,6102fc0089a279de6a998e7d,61036e281cbe328e09cf2619,2021-07-30_04h13.03.811,Simcolourproject_2stim_asymm_v5,2020.2.10,Win32,60,61025ae37ef11b136ea224fe,,,,,,,,,1317,46.40001214,-82.40000685,1,0,0,response3disk,,4,-5.599988639,-4.800030103,1,0,0,rectangle,-5.599988639,-4.800030103,1,0,0,-5.599988639,-4.800030103,1,0,0,1,58,218,105,1,,,,,,,,
,,,,,,,,,,,,,FF,,,,,,,,1.3662,,,,,,,,,,,,,,,,,,,,,,6102fc0089a279de6a998e7d,61036e281cbe328e09cf2619,2021-07-30_04h13.03.811,Simcolourproject_2stim_asymm_v5,2020.2.10,Win32,60,61025ae37ef11b136ea224fe,,,,,,,,,3813,52.00001222,-83.20000686,1,0,0,response3disk,,4,-3.999988616,-11.20000578,1,0,0,rectangle,-3.999988616,-11.20000578,1,0,0,-3.999988616,-11.20000578,1,0,0,1,59,219,32,1,,,,,,,,
,,,,,,,,,,,,,FF,,,,,,,,1.7662,,,,,,,,,,,,,,,,,,,,,,6102fc0089a279de6a998e7d,61036e281cbe328e09cf2619,2021-07-30_04h13.03.811,Simcolourproject_2stim_asymm_v5,2020.2.10,Win32,60,61025ae37ef11b136ea224fe,,,,,,,,,2618,41.60006089,103.1999715,1,0,0,response1disk,,7,1.600060296,-0.800030044,1,0,0,rectangle,1.600060296,-0.800030044,1,0,0,1.600060296,-0.800030044,1,0,0,1,60,220,6,1,,,,,,,,
,,,,,,,,,,,,,FF,,,,,,,,1.9489,,,,,,,,,,,,,,,,,,,,,,6102fc0089a279de6a998e7d,61036e281cbe328e09cf2619,2021-07-30_04h13.03.811,Simcolourproject_2stim_asymm_v5,2020.2.10,Win32,60,61025ae37ef11b136ea224fe,,,,,,,,,625,35.20001197,-107.2000072,1,0,0,response3disk,,4,-11.99998873,-12.80003022,1,0,0,rectangle,-11.99998873,-12.80003022,1,0,0,-11.99998873,-12.80003022,1,0,0,1,61,221,130,1,,,,,,,,
,,,,,,,,,,,,,FF,,,,,,,,2.7985,,,,,,,,,,,,,,,,,,,,,,6102fc0089a279de6a998e7d,61036e281cbe328e09cf2619,2021-07-30_04h13.03.811,Simcolourproject_2stim_asymm_v5,2020.2.10,Win32,60,61025ae37ef11b136ea224fe,,,,,,,,,2278,35.20001197,-80.80000682,1,0,0,response3disk,,4,2.40001148,-9.600005761,1,0,0,rectangle,2.40001148,-9.600005761,1,0,0,2.40001148,-9.600005761,1,0,0,1,62,222,91,1,,,,,,,,
,,,,,,,,,,,,,FF,,,,,,,,0.95,,,,,,,,,,,,,,,,,,,,,,6102fc0089a279de6a998e7d,61036e281cbe328e09cf2619,2021-07-30_04h13.03.811,Simcolourproject_2stim_asymm_v5,2020.2.10,Win32,60,61025ae37ef11b136ea224fe,,,,,,,,,2882,40.80001205,86.39999567,1,0,0,response1disk,,7,8.000011563,-2.400005654,1,0,0,rectangle,8.000011563,-2.400005654,1,0,0,8.000011563,-2.400005654,1,0,0,1,63,223,10,1,,,,,,,,
,,,,,,,,,,,,,FF,,,,,,,,1.0659,,,,,,,,,,,,,,,,,,,,,,6102fc0089a279de6a998e7d,61036e281cbe328e09cf2619,2021-07-30_04h13.03.811,Simcolourproject_2stim_asymm_v5,2020.2.10,Win32,60,61025ae37ef11b136ea224fe,,,,,,,,,4170,-46.39994042,-82.40000685,1,0,0,response5disk,,3,-4.799988627,-6.400005713,1,0,0,rectangle,-4.799988627,-6.400005713,1,0,0,-4.799988627,-6.400005713,1,0,0,1,64,224,121,1,,,,,,,,
,,,,,,,,,,,,,FF,,,,,,,,2.1829,,,,,,,,,,,,,,,,,,,,,,6102fc0089a279de6a998e7d,61036e281cbe328e09cf2619,2021-07-30_04h13.03.811,Simcolourproject_2stim_asymm_v5,2020.2.10,Win32,60,61025ae37ef11b136ea224fe,,,,,,,,,1316,-31.19998902,98.39999585,1,0,0,response7disk,,0,-10.39993988,8.799994513,1,0,0,rectangle,-10.39993988,8.799994513,1,0,0,-10.39993988,8.799994513,1,0,0,1,65,225,59,1,,,,,,,,
,,,,,,,,,,,,,FF,,,,,,,,2.6667,,,,,,,,,,,,,,,,,,,,,,6102fc0089a279de6a998e7d,61036e281cbe328e09cf2619,2021-07-30_04h13.03.811,Simcolourproject_2stim_asymm_v5,2020.2.10,Win32,60,61025ae37ef11b136ea224fe,,,,,,,,,959,96.00001287,-56.00000645,1,0,0,response3disk,,5,3.200011492,-8.800030163,1,0,0,rectangle,3.200011492,-8.800030163,1,0,0,3.200011492,-8.800030163,1,0,0,1,66,226,94,1,,,,,,,,
,,,,,,,,,,,,,FF,,,,,,,,1.3661,,,,,,,,,,,,,,,,,,,,,,6102fc0089a279de6a998e7d,61036e281cbe328e09cf2619,2021-07-30_04h13.03.811,Simcolourproject_2stim_asymm_v5,2020.2.10,Win32,60,61025ae37ef11b136ea224fe,,,,,,,,,1741,17.60006053,74.39999549,1,0,0,response1disk,,7,-10.39993988,-13.60000582,1,0,0,rectangle,-10.39993988,-13.60000582,1,0,0,-10.39993988,-13.60000582,1,0,0,1,67,227,103,1,,,,,,,,
,,,,,,,,,,,,,FF,,,,,,,,0.8496,,,,,,,,,,,,,,,,,,,,,,6102fc0089a279de6a998e7d,61036e281cbe328e09cf2619,2021-07-30_04h13.03.811,Simcolourproject_2stim_asymm_v5,2020.2.10,Win32,60,61025ae37ef11b136ea224fe,,,,,,,,,1594,62.40001237,95.99999581,1,0,0,response1disk,,7,12.80001163,2.399994418,1,0,0,rectangle,12.80001163,2.399994418,1,0,0,12.80001163,2.399994418,1,0,0,1,68,228,138,1,,,,,,,,
,,,,,,,,,,,,,FF,,,,,,,,0.8998,,,,,,,,,,,,,,,,,,,,,,6102fc0089a279de6a998e7d,61036e281cbe328e09cf2619,2021-07-30_04h13.03.811,Simcolourproject_2stim_asymm_v5,2020.2.10,Win32,60,61025ae37ef11b136ea224fe,,,,,,,,,1208,52.80001223,84.79999565,1,0,0,response1disk,,7,2.40001148,13.59999458,1,0,0,rectangle,2.40001148,13.59999458,1,0,0,2.40001148,13.59999458,1,0,0,1,69,229,38,1,,,,,,,,
,,,,,,,,,,,,,FF,,,,,,,,2.0664,,,,,,,,,,,,,,,,,,,,,,6102fc0089a279de6a998e7d,61036e281cbe328e09cf2619,2021-07-30_04h13.03.811,Simcolourproject_2stim_asymm_v5,2020.2.10,Win32,60,61025ae37ef11b136ea224fe,,,,,,,,,4225,-95.19998997,59.99999528,1,0,0,response7disk,,1,-4.799988627,5.599994466,1,0,0,rectangle,113.6000131,35.99999492,1,0,0,11.20001161,-5.61774E-06,1,0,0,1,70,230,97,1,,response1disk_3,TRUE,6,0,"[85,41,308,298,18,143,269,102,58,204,166,246,33,231,280,45,319,69,317,21]",1.6165,rectangle
,,,,,,,,,,,,,FF,,,,,,,,7.3474,,,,,,,,,,,,,,,,,,,,,,6102fc0089a279de6a998e7d,61036e281cbe328e09cf2619,2021-07-30_04h13.03.811,Simcolourproject_2stim_asymm_v5,2020.2.10,Win32,60,61025ae37ef11b136ea224fe,,,,,,,,,3245,86.40001273,-123.2000075,1,0,0,response3disk,,4,17.60006053,-8.800030163,1,0,0,rectangle,17.60006053,-8.800030163,1,0,0,17.60006053,-8.800030163,1,0,0,1,71,231,92,1,,,,,,,,
,,,,,,,,,,,,,FF,,,,,,,,1.066,,,,,,,,,,,,,,,,,,,,,,6102fc0089a279de6a998e7d,61036e281cbe328e09cf2619,2021-07-30_04h13.03.811,Simcolourproject_2stim_asymm_v5,2020.2.10,Win32,60,61025ae37ef11b136ea224fe,,,,,,,,,1953,53.60001224,79.19997115,1,0,0,response1disk,,7,20.00001174,-8.000005737,1,0,0,rectangle,20.00001174,-8.000005737,1,0,0,20.00001174,-8.000005737,1,0,0,1,72,232,86,1,,,,,,,,
,,,,,,,,,,,,,FF,,,,,,,,0.6497,,,,,,,,,,,,,,,,,,,,,,6102fc0089a279de6a998e7d,61036e281cbe328e09cf2619,2021-07-30_04h13.03.811,Simcolourproject_2stim_asymm_v5,2020.2.10,Win32,60,61025ae37ef11b136ea224fe,,,,,,,,,3985,37.60006083,79.99999557,1,0,0,response1disk,,7,2.40001148,0.799994394,1,0,0,rectangle,2.40001148,0.799994394,1,0,0,2.40001148,0.799994394,1,0,0,1,73,233,21,1,,,,,,,,
,,,,,,,,,,,,,FF,,,,,,,,0.7164,,,,,,,,,,,,,,,,,,,,,,6102fc0089a279de6a998e7d,61036e281cbe328e09cf2619,2021-07-30_04h13.03.811,Simcolourproject_2stim_asymm_v5,2020.2.10,Win32,60,61025ae37ef11b136ea224fe,,,,,,,,,737,47.20001215,95.19997139,1,0,0,response1disk,,7,7.200011551,11.19997014,1,0,0,rectangle,7.200011551,11.19997014,1,0,0,7.200011551,11.19997014,1,0,0,1,74,234,143,1,,,,,,,,
,,,,,,,,,,,,,FF,,,,,,,,0.7663,,,,,,,,,,,,,,,,,,,,,,6102fc0089a279de6a998e7d,61036e281cbe328e09cf2619,2021-07-30_04h13.03.811,Simcolourproject_2stim_asymm_v5,2020.2.10,Win32,60,61025ae37ef11b136ea224fe,,,,,,,,,1519,52.00001222,105.599996,1,0,0,response1disk,,7,-1.59998858,11.99999456,1,0,0,rectangle,-1.59998858,11.99999456,1,0,0,-1.59998858,11.99999456,1,0,0,1,75,235,5,1,,,,,,,,
,,,,,,,,,,,,,FF,,,,,,,,1.5659,,,,,,,,,,,,,,,,,,,,,,6102fc0089a279de6a998e7d,61036e281cbe328e09cf2619,2021-07-30_04h13.03.811,Simcolourproject_2stim_asymm_v5,2020.2.10,Win32,60,61025ae37ef11b136ea224fe,,,,,,,,,2522,36.00001198,97.59999584,1,0,0,response1disk,,7,-5.599988639,7.199970075,1,0,0,rectangle,-5.599988639,7.199970075,1,0,0,-5.599988639,7.199970075,1,0,0,1,76,236,66,1,,,,,,,,
,,,,,,,,,,,,,FF,,,,,,,,1.5659,,,,,,,,,,,,,,,,,,,,,,6102fc0089a279de6a998e7d,61036e281cbe328e09cf2619,2021-07-30_04h13.03.811,Simcolourproject_2stim_asymm_v5,2020.2.10,Win32,60,61025ae37ef11b136ea224fe,,,,,,,,,2937,84.0000127,77.59999554,1,0,0,response1disk,,6,10.4000116,-12.0000058,1,0,0,rectangle,10.4000116,-12.0000058,1,0,0,10.4000116,-12.0000058,1,0,0,1,77,237,79,1,,,,,,,,
,,,,,,,,,,,,,FF,,,,,,,,0.9328,,,,,,,,,,,,,,,,,,,,,,6102fc0089a279de6a998e7d,61036e281cbe328e09cf2619,2021-07-30_04h13.03.811,Simcolourproject_2stim_asymm_v5,2020.2.10,Win32,60,61025ae37ef11b136ea224fe,,,,,,,,,4289,51.20001221,81.5999956,1,0,0,response1disk,,7,19.20001173,-4.800030103,1,0,0,rectangle,19.20001173,-4.800030103,1,0,0,19.20001173,-4.800030103,1,0,0,1,78,238,84,1,,,,,,,,
,,,,,,,,,,,,,FF,,,,,,,,0.8166,,,,,,,,,,,,,,,,,,,,,,6102fc0089a279de6a998e7d,61036e281cbe328e09cf2619,2021-07-30_04h13.03.811,Simcolourproject_2stim_asymm_v5,2020.2.10,Win32,60,61025ae37ef11b136ea224fe,,,,,,,,,4228,36.80001199,84.79999565,1,0,0,response1disk,,7,8.800011575,-9.600005761,1,0,0,rectangle,8.800011575,-9.600005761,1,0,0,8.800011575,-9.600005761,1,0,0,1,79,239,132,1,,,,,,,,
,,,,,,,,,,,,,FF,,,,,,,,0.8663,,,,,,,,,,,,,,,,,,,,,,6102fc0089a279de6a998e7d,61036e281cbe328e09cf2619,2021-07-30_04h13.03.811,Simcolourproject_2stim_asymm_v5,2020.2.10,Win32,60,61025ae37ef11b136ea224fe,,,,,,,,,3076,48.80001217,91.19997133,1,0,0,response1disk,,7,1.600060296,2.399994418,1,0,0,rectangle,1.600060296,2.399994418,1,0,0,1.600060296,2.399994418,1,0,0,1,80,240,115,1,,,,,,,,
,,,,,,,,,,,,,FF,,,,,,,,1.6328,,,,,,,,,,,,,,,,,,,,,,6102fc0089a279de6a998e7d,61036e281cbe328e09cf2619,2021-07-30_04h13.03.811,Simcolourproject_2stim_asymm_v5,2020.2.10,Win32,60,61025ae37ef11b136ea224fe,,,,,,,,,873,30.4000119,-96.80000706,1,0,0,response3disk,,4,-3.199988604,4.799994454,1,0,0,rectangle,-3.199988604,4.799994454,1,0,0,-3.199988604,4.799994454,1,0,0,1,81,241,125,1,,,,,,,,
,,,,,,,,,,,,,FF,,,,,,,,0.9994,,,,,,,,,,,,,,,,,,,,,,6102fc0089a279de6a998e7d,61036e281cbe328e09cf2619,2021-07-30_04h13.03.811,Simcolourproject_2stim_asymm_v5,2020.2.10,Win32,60,61025ae37ef11b136ea224fe,,,,,,,,,3391,-44.79998922,88.79999571,1,0,0,response7disk,,0,-7.199988663,-5.600005701,1,0,0,rectangle,-7.199988663,-5.600005701,1,0,0,-7.199988663,-5.600005701,1,0,0,1,82,242,16,1,,,,,,,,
,,,,,,,,,,,,,FF,,,,,,,,1.1165,,,,,,,,,,,,,,,,,,,,,,6102fc0089a279de6a998e7d,61036e281cbe328e09cf2619,2021-07-30_04h13.03.811,Simcolourproject_2stim_asymm_v5,2020.2.10,Win32,60,61025ae37ef11b136ea224fe,,,,,,,,,4051,-36.7999891,-71.20000668,1,0,0,response5disk,,3,8.800011575,3.199970016,1,0,0,rectangle,8.800011575,3.199970016,1,0,0,8.800011575,3.199970016,1,0,0,1,83,243,158,1,,,,,,,,
