key_resp.keys,key_resp.rt,key_resp_14.keys,key_resp_14.rt,key_resp_15.keys,key_resp_15.rt,key_resp_17.keys,key_resp_17.rt,key_resp_9.keys,key_resp_9.rt,key_resp_10.keys,key_resp_10.rt,practice_comparison,Ecc,mouse_5.x,mouse_5.y,mouse_5.leftButton,mouse_5.midButton,mouse_5.rightButton,mouse_5.clicked_name,pracsimilarity,response_time,mouse_10.x,mouse_10.y,mouse_10.leftButton,mouse_10.midButton,mouse_10.rightButton,mouse_10.clicked_name,mouse_7.x,mouse_7.y,mouse_7.leftButton,mouse_7.midButton,mouse_7.rightButton,mouse_6.x,mouse_6.y,mouse_6.leftButton,mouse_6.midButton,mouse_6.rightButton,duringprac.thisRepN,duringprac.thisTrialN,duringprac.thisN,duringprac.thisIndex,duringprac.ran,participant,session,date,expName,psychopyVersion,OS,frameRate,study_id,mouse_7.clicked_name,catchpracsimilarity,catch_response_time,catchnumberprac,catchtrialorderprac,mouse_6.clicked_name,key_resp_22.keys,key_resp_22.rt,realcomparison,mouse.x,mouse.y,mouse.leftButton,mouse.midButton,mouse.rightButton,mouse.clicked_name,Colour2,similarity,mouse_2.x,mouse_2.y,mouse_2.leftButton,mouse_2.midButton,mouse_2.rightButton,mouse_2.clicked_name,mouse_3.x,mouse_3.y,mouse_3.leftButton,mouse_3.midButton,mouse_3.rightButton,mouse_11.x,mouse_11.y,mouse_11.leftButton,mouse_11.midButton,mouse_11.rightButton,trials_2.thisRepN,trials_2.thisTrialN,trials_2.thisN,trials_2.thisIndex,trials_2.ran,Colour1,mouse_3.clicked_name,catchornah,catchsimilarity,catchnumber,catchtrialorder,catchRT,mouse_11.clicked_name
space,1.6503,space,25.9268,space,22.3647,space,2.2363,space,1.1822,space,4.033,28,FF,-34.29999021,70.79999462,1,0,0,response7disk_5,0,4.034,1.700010329,-0.400006443,1,0,0,rectangle_8,1.700010329,-0.400006443,1,0,0,1.700010329,-0.400006443,1,0,0,0,0,0,5,1,6102bfa4053527360211a7b8,61036abe83a9273083c856cf,2021-07-29_22h01.12.158,Simcolourproject_2stim_asymm_v5,2020.2.10,Win32,60,61025ae37ef11b136ea224fe,,,,,,,,,,,,,,,,,,,,,,,,,,,,,,,,,,,,,,,,,,,,,,
,,,,,,,,,,,,96,PF,-57.09999055,-36.40000698,1,0,0,response5disk_5,2,2.8926,12.9000105,-3.200006485,1,0,0,rectangle_8,81.30001152,28.39999399,1,0,0,5.300010383,-6.000006527,1,0,0,0,1,1,4,1,6102bfa4053527360211a7b8,61036abe83a9273083c856cf,2021-07-29_22h01.12.158,Simcolourproject_2stim_asymm_v5,2020.2.10,Win32,60,61025ae37ef11b136ea224fe,response1disk_7,6,2.4758,6,"[2,5]",rectangle_4,,,,,,,,,,,,,,,,,,,,,,,,,,,,,,,,,,,,,,,,
,,,,,,,,,,,,158,FF,74.90001142,26.79999396,1,0,0,response1disk_5,6,2.2006,-4.699989766,4.399993628,1,0,0,rectangle_8,-4.699989766,4.399993628,1,0,0,-4.699989766,4.399993628,1,0,0,0,2,2,3,1,6102bfa4053527360211a7b8,61036abe83a9273083c856cf,2021-07-29_22h01.12.158,Simcolourproject_2stim_asymm_v5,2020.2.10,Win32,60,61025ae37ef11b136ea224fe,,,,,,,,,,,,,,,,,,,,,,,,,,,,,,,,,,,,,,,,,,,,,,
,,,,,,,,,,,,4,PF,73.7000114,-34.00000694,1,0,0,response3disk_5,5,2.1505,4.900010377,-4.000006497,1,0,0,rectangle_8,4.900010377,-4.000006497,1,0,0,4.900010377,-4.000006497,1,0,0,0,3,3,2,1,6102bfa4053527360211a7b8,61036abe83a9273083c856cf,2021-07-29_22h01.12.158,Simcolourproject_2stim_asymm_v5,2020.2.10,Win32,60,61025ae37ef11b136ea224fe,,,,,,,,,,,,,,,,,,,,,,,,,,,,,,,,,,,,,,,,,,,,,,
,,,,,,,,,,,,48,PF,63.70001125,-31.60000691,1,0,0,response3disk_5,5,1.3001,15.70001054,-1.600006461,1,0,0,rectangle_8,104.1000607,21.19999388,1,0,0,9.300010443,-10.40000659,1,0,0,0,4,4,1,1,6102bfa4053527360211a7b8,61036abe83a9273083c856cf,2021-07-29_22h01.12.158,Simcolourproject_2stim_asymm_v5,2020.2.10,Win32,60,61025ae37ef11b136ea224fe,response1disk_7,6,2.1167,6,"[2,5]",rectangle_4,,,,,,,,,,,,,,,,,,,,,,,,,,,,,,,,,,,,,,,,
,,,,,,,,,,,,35,PF,-26.69999009,-54.00000724,1,0,0,response5disk_5,3,1.4838,9.300010443,0.799993575,1,0,0,rectangle_8,9.300010443,0.799993575,1,0,0,9.300010443,0.799993575,1,0,0,0,5,5,6,1,6102bfa4053527360211a7b8,61036abe83a9273083c856cf,2021-07-29_22h01.12.158,Simcolourproject_2stim_asymm_v5,2020.2.10,Win32,60,61025ae37ef11b136ea224fe,,,,,,,,,,,,,,,,,,,,,,,,,,,,,,,,,,,,,,,,,,,,,,
,,,,,,,,,,,,32,FF,-26.69999009,-69.60000747,1,0,0,response5disk_5,3,4.5169,10.10005928,-6.000006527,1,0,0,rectangle_8,10.10005928,-6.000006527,1,0,0,10.10005928,-6.000006527,1,0,0,0,6,6,0,1,6102bfa4053527360211a7b8,61036abe83a9273083c856cf,2021-07-29_22h01.12.158,Simcolourproject_2stim_asymm_v5,2020.2.10,Win32,60,61025ae37ef11b136ea224fe,,,,,,,,,,,,,,,,,,,,,,,,,,,,,,,,,,,,,,,,,,,,,,
,,,,,,,,,,,,,FF,,,,,,,,1.8005,,,,,,,,,,,,,,,,,,,,,,6102bfa4053527360211a7b8,61036abe83a9273083c856cf,2021-07-29_22h01.12.158,Simcolourproject_2stim_asymm_v5,2020.2.10,Win32,60,61025ae37ef11b136ea224fe,,,,,,,space,3.0593,2735,-35.49999022,-65.20000741,1,0,0,response5disk,,3,7.300010413,8.799993694,1,0,0,rectangle,7.300010413,8.799993694,1,0,0,7.300010413,8.799993694,1,0,0,0,0,0,156,1,,,,,,,,
,,,,,,,,,,,,,FF,,,,,,,,1.416,,,,,,,,,,,,,,,,,,,,,,6102bfa4053527360211a7b8,61036abe83a9273083c856cf,2021-07-29_22h01.12.158,Simcolourproject_2stim_asymm_v5,2020.2.10,Win32,60,61025ae37ef11b136ea224fe,,,,,,,,,484,34.50001082,-57.20000729,1,0,0,response3disk,,4,11.70001048,5.999993652,1,0,0,rectangle,11.70001048,5.999993652,1,0,0,11.70001048,5.999993652,1,0,0,0,1,1,45,1,,,,,,,,
,,,,,,,,,,,,,FF,,,,,,,,2.2503,,,,,,,,,,,,,,,,,,,,,,6102bfa4053527360211a7b8,61036abe83a9273083c856cf,2021-07-29_22h01.12.158,Simcolourproject_2stim_asymm_v5,2020.2.10,Win32,60,61025ae37ef11b136ea224fe,,,,,,,,,3835,59.70001119,-35.20000696,1,0,0,response3disk,,5,19.30001059,3.599993616,1,0,0,rectangle,19.30001059,3.599993616,1,0,0,19.30001059,3.599993616,1,0,0,0,2,2,14,1,,,,,,,,
,,,,,,,,,,,,,FF,,,,,,,,1.6091,,,,,,,,,,,,,,,,,,,,,,6102bfa4053527360211a7b8,61036abe83a9273083c856cf,2021-07-29_22h01.12.158,Simcolourproject_2stim_asymm_v5,2020.2.10,Win32,60,61025ae37ef11b136ea224fe,,,,,,,,,3664,-32.29999018,-78.40000761,1,0,0,response5disk,,3,5.300010383,3.999993622,1,0,0,rectangle,5.300010383,3.999993622,1,0,0,5.300010383,3.999993622,1,0,0,0,3,3,155,1,,,,,,,,
,,,,,,,,,,,,,FF,,,,,,,,2.4082,,,,,,,,,,,,,,,,,,,,,,6102bfa4053527360211a7b8,61036abe83a9273083c856cf,2021-07-29_22h01.12.158,Simcolourproject_2stim_asymm_v5,2020.2.10,Win32,60,61025ae37ef11b136ea224fe,,,,,,,,,4309,77.70001146,-41.60000706,1,0,0,response3disk,,5,19.7000106,-2.000006467,1,0,0,rectangle,19.7000106,-2.000006467,1,0,0,19.7000106,-2.000006467,1,0,0,0,4,4,92,1,,,,,,,,
,,,,,,,,,,,,,FF,,,,,,,,1.1999,,,,,,,,,,,,,,,,,,,,,,6102bfa4053527360211a7b8,61036abe83a9273083c856cf,2021-07-29_22h01.12.158,Simcolourproject_2stim_asymm_v5,2020.2.10,Win32,60,61025ae37ef11b136ea224fe,,,,,,,,,906,30.90001076,-42.00000706,1,0,0,response3disk,,4,8.100059253,4.399993628,1,0,0,rectangle,8.100059253,4.399993628,1,0,0,8.100059253,4.399993628,1,0,0,0,5,5,20,1,,,,,,,,
,,,,,,,,,,,,,FF,,,,,,,,1.3504,,,,,,,,,,,,,,,,,,,,,,6102bfa4053527360211a7b8,61036abe83a9273083c856cf,2021-07-29_22h01.12.158,Simcolourproject_2stim_asymm_v5,2020.2.10,Win32,60,61025ae37ef11b136ea224fe,,,,,,,,,645,-35.8999414,-58.80000731,1,0,0,response5disk,,3,-6.699989796,0.799993575,1,0,0,rectangle,-6.699989796,0.799993575,1,0,0,-6.699989796,0.799993575,1,0,0,0,6,6,61,1,,,,,,,,
,,,,,,,,,,,,,FF,,,,,,,,1.9168,,,,,,,,,,,,,,,,,,,,,,6102bfa4053527360211a7b8,61036abe83a9273083c856cf,2021-07-29_22h01.12.158,Simcolourproject_2stim_asymm_v5,2020.2.10,Win32,60,61025ae37ef11b136ea224fe,,,,,,,,,301,84.90001157,-21.60000676,1,0,0,response3disk,,5,10.90001047,6.399993658,1,0,0,rectangle,10.90001047,6.399993658,1,0,0,10.90001047,6.399993658,1,0,0,0,7,7,138,1,,,,,,,,
,,,,,,,,,,,,,FF,,,,,,,,1.4337,,,,,,,,,,,,,,,,,,,,,,6102bfa4053527360211a7b8,61036abe83a9273083c856cf,2021-07-29_22h01.12.158,Simcolourproject_2stim_asymm_v5,2020.2.10,Win32,60,61025ae37ef11b136ea224fe,,,,,,,,,2448,90.90001166,-30.00000688,1,0,0,response3disk,,5,16.90001056,6.399993658,1,0,0,rectangle,16.90001056,6.399993658,1,0,0,16.90001056,6.399993658,1,0,0,0,8,8,55,1,,,,,,,,
,,,,,,,,,,,,,FF,,,,,,,,1.1502,,,,,,,,,,,,,,,,,,,,,,6102bfa4053527360211a7b8,61036abe83a9273083c856cf,2021-07-29_22h01.12.158,Simcolourproject_2stim_asymm_v5,2020.2.10,Win32,60,61025ae37ef11b136ea224fe,,,,,,,,,2308,-33.4999902,-75.20000756,1,0,0,response5disk,,3,0.900010318,-4.400006503,1,0,0,rectangle,0.900010318,-4.400006503,1,0,0,0.900010318,-4.400006503,1,0,0,0,9,9,43,1,,,,,,,,
,,,,,,,,,,,,,FF,,,,,,,,1.4496,,,,,,,,,,,,,,,,,,,,,,6102bfa4053527360211a7b8,61036abe83a9273083c856cf,2021-07-29_22h01.12.158,Simcolourproject_2stim_asymm_v5,2020.2.10,Win32,60,61025ae37ef11b136ea224fe,,,,,,,,,1182,66.9000113,39.99999416,1,0,0,response1disk,,6,18.1000594,0.799993575,1,0,0,rectangle,18.1000594,0.799993575,1,0,0,18.1000594,0.799993575,1,0,0,0,10,10,123,1,,,,,,,,
,,,,,,,,,,,,,FF,,,,,,,,1.3338,,,,,,,,,,,,,,,,,,,,,,6102bfa4053527360211a7b8,61036abe83a9273083c856cf,2021-07-29_22h01.12.158,Simcolourproject_2stim_asymm_v5,2020.2.10,Win32,60,61025ae37ef11b136ea224fe,,,,,,,,,840,54.50001112,-29.60000688,1,0,0,response3disk,,5,-4.699989766,-2.000006467,1,0,0,rectangle,-4.699989766,-2.000006467,1,0,0,-4.699989766,-2.000006467,1,0,0,0,11,11,4,1,,,,,,,,
,,,,,,,,,,,,,FF,,,,,,,,3.6002,,,,,,,,,,,,,,,,,,,,,,6102bfa4053527360211a7b8,61036abe83a9273083c856cf,2021-07-29_22h01.12.158,Simcolourproject_2stim_asymm_v5,2020.2.10,Win32,60,61025ae37ef11b136ea224fe,,,,,,,,,2088,69.70001134,27.99999398,1,0,0,response1disk,,6,12.10005931,-8.800006568,1,0,0,rectangle,12.10005931,-8.800006568,1,0,0,12.10005931,-8.800006568,1,0,0,0,12,12,78,1,,,,,,,,
,,,,,,,,,,,,,FF,,,,,,,,2.6668,,,,,,,,,,,,,,,,,,,,,,6102bfa4053527360211a7b8,61036abe83a9273083c856cf,2021-07-29_22h01.12.158,Simcolourproject_2stim_asymm_v5,2020.2.10,Win32,60,61025ae37ef11b136ea224fe,,,,,,,,,2056,65.30001128,-22.80000678,1,0,0,response3disk,,5,10.90001047,5.999993652,1,0,0,rectangle,10.90001047,5.999993652,1,0,0,10.90001047,5.999993652,1,0,0,0,13,13,112,1,,,,,,,,
,,,,,,,,,,,,,FF,,,,,,,,2.2167,,,,,,,,,,,,,,,,,,,,,,6102bfa4053527360211a7b8,61036abe83a9273083c856cf,2021-07-29_22h01.12.158,Simcolourproject_2stim_asymm_v5,2020.2.10,Win32,60,61025ae37ef11b136ea224fe,,,,,,,,,1858,38.1000597,-66.40000743,1,0,0,response3disk,,4,8.900010437,0.399993569,1,0,0,rectangle,8.900010437,0.399993569,1,0,0,8.900010437,0.399993569,1,0,0,0,14,14,39,1,,,,,,,,
,,,,,,,,,,,,,FF,,,,,,,,1.8835,,,,,,,,,,,,,,,,,,,,,,6102bfa4053527360211a7b8,61036abe83a9273083c856cf,2021-07-29_22h01.12.158,Simcolourproject_2stim_asymm_v5,2020.2.10,Win32,60,61025ae37ef11b136ea224fe,,,,,,,,,4150,-57.49999055,-70.00000748,1,0,0,response5disk,,3,3.300010353,7.999993682,1,0,0,rectangle,3.300010353,7.999993682,1,0,0,3.300010353,7.999993682,1,0,0,0,15,15,108,1,,,,,,,,
,,,,,,,,,,,,,FF,,,,,,,,1.1001,,,,,,,,,,,,,,,,,,,,,,6102bfa4053527360211a7b8,61036abe83a9273083c856cf,2021-07-29_22h01.12.158,Simcolourproject_2stim_asymm_v5,2020.2.10,Win32,60,61025ae37ef11b136ea224fe,,,,,,,,,245,62.90001124,-20.40000674,1,0,0,response3disk,,5,20.90001062,4.399993628,1,0,0,rectangle,20.90001062,4.399993628,1,0,0,20.90001062,4.399993628,1,0,0,0,16,16,36,1,,,,,,,,
,,,,,,,,,,,,,FF,,,,,,,,1.2422,,,,,,,,,,,,,,,,,,,,,,6102bfa4053527360211a7b8,61036abe83a9273083c856cf,2021-07-29_22h01.12.158,Simcolourproject_2stim_asymm_v5,2020.2.10,Win32,60,61025ae37ef11b136ea224fe,,,,,,,,,3476,-49.89994161,-37.600007,1,0,0,response5disk,,2,-7.899940985,-7.600006551,1,0,0,rectangle,-7.899940985,-7.600006551,1,0,0,-7.899940985,-7.600006551,1,0,0,0,17,17,83,1,,,,,,,,
,,,,,,,,,,,,,FF,,,,,,,,1.7431,,,,,,,,,,,,,,,,,,,,,,6102bfa4053527360211a7b8,61036abe83a9273083c856cf,2021-07-29_22h01.12.158,Simcolourproject_2stim_asymm_v5,2020.2.10,Win32,60,61025ae37ef11b136ea224fe,,,,,,,,,344,79.70001149,-22.00000677,1,0,0,response3disk,,5,19.7000106,-2.800006479,1,0,0,rectangle,19.7000106,-2.800006479,1,0,0,19.7000106,-2.800006479,1,0,0,0,18,18,147,1,,,,,,,,
,,,,,,,,,,,,,FF,,,,,,,,1.7001,,,,,,,,,,,,,,,,,,,,,,6102bfa4053527360211a7b8,61036abe83a9273083c856cf,2021-07-29_22h01.12.158,Simcolourproject_2stim_asymm_v5,2020.2.10,Win32,60,61025ae37ef11b136ea224fe,,,,,,,,,3627,38.1000597,-72.80000752,1,0,0,response3disk,,4,6.900010407,-4.400006503,1,0,0,rectangle,6.900010407,-4.400006503,1,0,0,6.900010407,-4.400006503,1,0,0,0,19,19,93,1,,,,,,,,
,,,,,,,,,,,,,FF,,,,,,,,1.1002,,,,,,,,,,,,,,,,,,,,,,6102bfa4053527360211a7b8,61036abe83a9273083c856cf,2021-07-29_22h01.12.158,Simcolourproject_2stim_asymm_v5,2020.2.10,Win32,60,61025ae37ef11b136ea224fe,,,,,,,,,1560,56.90001115,-36.40000698,1,0,0,response3disk,,5,13.70001051,6.399993658,1,0,0,rectangle,13.70001051,6.399993658,1,0,0,13.70001051,6.399993658,1,0,0,0,20,20,127,1,,,,,,,,
,,,,,,,,,,,,,FF,,,,,,,,1.4504,,,,,,,,,,,,,,,,,,,,,,6102bfa4053527360211a7b8,61036abe83a9273083c856cf,2021-07-29_22h01.12.158,Simcolourproject_2stim_asymm_v5,2020.2.10,Win32,60,61025ae37ef11b136ea224fe,,,,,,,,,2100,-54.69999051,-26.00000682,1,0,0,response5disk,,2,0.500010312,3.999993622,1,0,0,rectangle,0.500010312,3.999993622,1,0,0,0.500010312,3.999993622,1,0,0,0,21,21,48,1,,,,,,,,
,,,,,,,,,,,,,FF,,,,,,,,2.6835,,,,,,,,,,,,,,,,,,,,,,6102bfa4053527360211a7b8,61036abe83a9273083c856cf,2021-07-29_22h01.12.158,Simcolourproject_2stim_asymm_v5,2020.2.10,Win32,60,61025ae37ef11b136ea224fe,,,,,,,,,3585,44.90001097,-22.40000677,1,0,0,response3disk,,5,7.300010413,0.799993575,1,0,0,rectangle,7.300010413,0.799993575,1,0,0,7.300010413,0.799993575,1,0,0,0,22,22,3,1,,,,,,,,
,,,,,,,,,,,,,FF,,,,,,,,2.076,,,,,,,,,,,,,,,,,,,,,,6102bfa4053527360211a7b8,61036abe83a9273083c856cf,2021-07-29_22h01.12.158,Simcolourproject_2stim_asymm_v5,2020.2.10,Win32,60,61025ae37ef11b136ea224fe,,,,,,,,,1207,34.90001082,-90.80000779,1,0,0,response3disk,,4,-1.499989718,-8.000006557,1,0,0,rectangle,-1.499989718,-8.000006557,1,0,0,-1.499989718,-8.000006557,1,0,0,0,23,23,109,1,,,,,,,,
,,,,,,,,,,,,,FF,,,,,,,,1.0502,,,,,,,,,,,,,,,,,,,,,,6102bfa4053527360211a7b8,61036abe83a9273083c856cf,2021-07-29_22h01.12.158,Simcolourproject_2stim_asymm_v5,2020.2.10,Win32,60,61025ae37ef11b136ea224fe,,,,,,,,,2231,-35.09999022,-54.80000725,1,0,0,response5disk,,3,-5.099989772,9.999993712,1,0,0,rectangle,-5.099989772,9.999993712,1,0,0,-5.099989772,9.999993712,1,0,0,0,24,24,74,1,,,,,,,,
,,,,,,,,,,,,,FF,,,,,,,,2.2921,,,,,,,,,,,,,,,,,,,,,,6102bfa4053527360211a7b8,61036abe83a9273083c856cf,2021-07-29_22h01.12.158,Simcolourproject_2stim_asymm_v5,2020.2.10,Win32,60,61025ae37ef11b136ea224fe,,,,,,,,,2293,-47.89994158,-67.20000744,1,0,0,response5disk,,3,0.500010312,-1.200006455,1,0,0,rectangle,0.500010312,-1.200006455,1,0,0,0.500010312,-1.200006455,1,0,0,0,25,25,132,1,,,,,,,,
,,,,,,,,,,,,,FF,,,,,,,,1.7838,,,,,,,,,,,,,,,,,,,,,,6102bfa4053527360211a7b8,61036abe83a9273083c856cf,2021-07-29_22h01.12.158,Simcolourproject_2stim_asymm_v5,2020.2.10,Win32,60,61025ae37ef11b136ea224fe,,,,,,,,,3029,93.7000117,31.19996961,1,0,0,response1disk,,6,31.70001078,-4.000006497,1,0,0,rectangle,31.70001078,-4.000006497,1,0,0,31.70001078,-4.000006497,1,0,0,0,26,26,117,1,,,,,,,,
,,,,,,,,,,,,,FF,,,,,,,,0.9501,,,,,,,,,,,,,,,,,,,,,,6102bfa4053527360211a7b8,61036abe83a9273083c856cf,2021-07-29_22h01.12.158,Simcolourproject_2stim_asymm_v5,2020.2.10,Win32,60,61025ae37ef11b136ea224fe,,,,,,,,,1610,-57.49999055,-17.6000067,1,0,0,response5disk,,2,1.300010324,10.39999372,1,0,0,rectangle,1.300010324,10.39999372,1,0,0,1.300010324,10.39999372,1,0,0,0,27,27,158,1,,,,,,,,
,,,,,,,,,,,,,FF,,,,,,,,1.5502,,,,,,,,,,,,,,,,,,,,,,6102bfa4053527360211a7b8,61036abe83a9273083c856cf,2021-07-29_22h01.12.158,Simcolourproject_2stim_asymm_v5,2020.2.10,Win32,60,61025ae37ef11b136ea224fe,,,,,,,,,2757,80.10006033,27.99999398,1,0,0,response1disk,,6,10.90001047,-2.000006467,1,0,0,rectangle,10.90001047,-2.000006467,1,0,0,10.90001047,-2.000006467,1,0,0,0,28,28,130,1,,,,,,,,
,,,,,,,,,,,,,FF,,,,,,,,1.0339,,,,,,,,,,,,,,,,,,,,,,6102bfa4053527360211a7b8,61036abe83a9273083c856cf,2021-07-29_22h01.12.158,Simcolourproject_2stim_asymm_v5,2020.2.10,Win32,60,61025ae37ef11b136ea224fe,,,,,,,,,1009,50.90001106,41.59999418,1,0,0,response1disk,,6,14.90001053,-16.00000668,1,0,0,rectangle,14.90001053,-16.00000668,1,0,0,14.90001053,-16.00000668,1,0,0,0,29,29,99,1,,,,,,,,
,,,,,,,,,,,,,FF,,,,,,,,1.5335,,,,,,,,,,,,,,,,,,,,,,6102bfa4053527360211a7b8,61036abe83a9273083c856cf,2021-07-29_22h01.12.158,Simcolourproject_2stim_asymm_v5,2020.2.10,Win32,60,61025ae37ef11b136ea224fe,,,,,,,,,1405,-31.49999017,-78.80000761,1,0,0,response5disk,,3,3.700010359,-4.400006503,1,0,0,rectangle,3.700010359,-4.400006503,1,0,0,3.700010359,-4.400006503,1,0,0,0,30,30,53,1,,,,,,,,
,,,,,,,,,,,,,FF,,,,,,,,1.0838,,,,,,,,,,,,,,,,,,,,,,6102bfa4053527360211a7b8,61036abe83a9273083c856cf,2021-07-29_22h01.12.158,Simcolourproject_2stim_asymm_v5,2020.2.10,Win32,60,61025ae37ef11b136ea224fe,,,,,,,,,3313,39.30001089,-21.60000676,1,0,0,response3disk,,5,8.900010437,5.599993646,1,0,0,rectangle,8.900010437,5.599993646,1,0,0,8.900010437,5.599993646,1,0,0,0,31,31,5,1,,,,,,,,
,,,,,,,,,,,,,FF,,,,,,,,1.2497,,,,,,,,,,,,,,,,,,,,,,6102bfa4053527360211a7b8,61036abe83a9273083c856cf,2021-07-29_22h01.12.158,Simcolourproject_2stim_asymm_v5,2020.2.10,Win32,60,61025ae37ef11b136ea224fe,,,,,,,,,2981,29.70001075,-72.00000751,1,0,0,response3disk,,4,0.500010312,-6.400006533,1,0,0,rectangle,0.500010312,-6.400006533,1,0,0,0.500010312,-6.400006533,1,0,0,0,32,32,18,1,,,,,,,,
,,,,,,,,,,,,,FF,,,,,,,,1.2005,,,,,,,,,,,,,,,,,,,,,,6102bfa4053527360211a7b8,61036abe83a9273083c856cf,2021-07-29_22h01.12.158,Simcolourproject_2stim_asymm_v5,2020.2.10,Win32,60,61025ae37ef11b136ea224fe,,,,,,,,,1022,48.50001103,-25.20000681,1,0,0,response3disk,,5,9.700010449,8.399993688,1,0,0,rectangle,9.700010449,8.399993688,1,0,0,9.700010449,8.399993688,1,0,0,0,33,33,21,1,,,,,,,,
,,,,,,,,,,,,,FF,,,,,,,,1.8504,,,,,,,,,,,,,,,,,,,,,,6102bfa4053527360211a7b8,61036abe83a9273083c856cf,2021-07-29_22h01.12.158,Simcolourproject_2stim_asymm_v5,2020.2.10,Win32,60,61025ae37ef11b136ea224fe,,,,,,,,,2925,77.30001146,-59.60000733,1,0,0,response3disk,,5,12.10005931,-4.400006503,1,0,0,rectangle,12.10005931,-4.400006503,1,0,0,12.10005931,-4.400006503,1,0,0,0,34,34,87,1,,,,,,,,
,,,,,,,,,,,,,FF,,,,,,,,1.7339,,,,,,,,,,,,,,,,,,,,,,6102bfa4053527360211a7b8,61036abe83a9273083c856cf,2021-07-29_22h01.12.158,Simcolourproject_2stim_asymm_v5,2020.2.10,Win32,60,61025ae37ef11b136ea224fe,,,,,,,,,4047,-18.29998997,-48.00000715,1,0,0,response5disk,,3,7.300010413,-6.400006533,1,0,0,rectangle,-31.89994134,-72.40000752,1,0,0,-4.29998976,-8.800006568,1,0,0,0,35,35,105,1,,response5disk_3,TRUE,3,3,"[102,281,190,139,311,177,111,111,237,64,104,47,59,299,74,67,309,149,36,246]",2.1391,rectangle
,,,,,,,,,,,,,FF,,,,,,,,1.5504,,,,,,,,,,,,,,,,,,,,,,6102bfa4053527360211a7b8,61036abe83a9273083c856cf,2021-07-29_22h01.12.158,Simcolourproject_2stim_asymm_v5,2020.2.10,Win32,60,61025ae37ef11b136ea224fe,,,,,,,,,1225,-46.29999039,-50.00000718,1,0,0,response5disk,,3,-1.899940896,16.79999381,1,0,0,rectangle,-1.899940896,16.79999381,1,0,0,-1.899940896,16.79999381,1,0,0,0,36,36,149,1,,,,,,,,
,,,,,,,,,,,,,FF,,,,,,,,1.5502,,,,,,,,,,,,,,,,,,,,,,6102bfa4053527360211a7b8,61036abe83a9273083c856cf,2021-07-29_22h01.12.158,Simcolourproject_2stim_asymm_v5,2020.2.10,Win32,60,61025ae37ef11b136ea224fe,,,,,,,,,3549,24.90001068,-72.00000751,1,0,0,response3disk,,4,3.300010353,-6.000006527,1,0,0,rectangle,3.300010353,-6.000006527,1,0,0,3.300010353,-6.000006527,1,0,0,0,37,37,75,1,,,,,,,,
,,,,,,,,,,,,,FF,,,,,,,,0.9668,,,,,,,,,,,,,,,,,,,,,,6102bfa4053527360211a7b8,61036abe83a9273083c856cf,2021-07-29_22h01.12.158,Simcolourproject_2stim_asymm_v5,2020.2.10,Win32,60,61025ae37ef11b136ea224fe,,,,,,,,,3139,-39.09999028,-80.80000764,1,0,0,response5disk,,3,12.9000105,-7.600006551,1,0,0,rectangle,12.9000105,-7.600006551,1,0,0,12.9000105,-7.600006551,1,0,0,0,38,38,159,1,,,,,,,,
,,,,,,,,,,,,,FF,,,,,,,,2.6999,,,,,,,,,,,,,,,,,,,,,,6102bfa4053527360211a7b8,61036abe83a9273083c856cf,2021-07-29_22h01.12.158,Simcolourproject_2stim_asymm_v5,2020.2.10,Win32,60,61025ae37ef11b136ea224fe,,,,,,,,,186,-75.49999082,-45.20000711,1,0,0,response5disk,,2,-9.899941015,7.999993682,1,0,0,rectangle,-9.899941015,7.999993682,1,0,0,-9.899941015,7.999993682,1,0,0,0,39,39,72,1,,,,,,,,
,,,,,,,,,,,,,FF,,,,,,,,1.2001,,,,,,,,,,,,,,,,,,,,,,6102bfa4053527360211a7b8,61036abe83a9273083c856cf,2021-07-29_22h01.12.158,Simcolourproject_2stim_asymm_v5,2020.2.10,Win32,60,61025ae37ef11b136ea224fe,,,,,,,,,2561,81.70001152,-26.80000684,1,0,0,response3disk,,5,4.900010377,8.799993694,1,0,0,rectangle,4.900010377,8.799993694,1,0,0,4.900010377,8.799993694,1,0,0,0,40,40,90,1,,,,,,,,
,,,,,,,,,,,,,FF,,,,,,,,0.8999,,,,,,,,,,,,,,,,,,,,,,6102bfa4053527360211a7b8,61036abe83a9273083c856cf,2021-07-29_22h01.12.158,Simcolourproject_2stim_asymm_v5,2020.2.10,Win32,60,61025ae37ef11b136ea224fe,,,,,,,,,339,81.30001152,-14.80000666,1,0,0,response3disk,,5,14.10005934,-0.800006449,1,0,0,rectangle,14.10005934,-0.800006449,1,0,0,14.10005934,-0.800006449,1,0,0,0,41,41,104,1,,,,,,,,
,,,,,,,,,,,,,FF,,,,,,,,1.0005,,,,,,,,,,,,,,,,,,,,,,6102bfa4053527360211a7b8,61036abe83a9273083c856cf,2021-07-29_22h01.12.158,Simcolourproject_2stim_asymm_v5,2020.2.10,Win32,60,61025ae37ef11b136ea224fe,,,,,,,,,1942,-25.89994125,-48.80000716,1,0,0,response5disk,,3,7.700010419,-2.800006479,1,0,0,rectangle,7.700010419,-2.800006479,1,0,0,7.700010419,-2.800006479,1,0,0,0,42,42,7,1,,,,,,,,
,,,,,,,,,,,,,FF,,,,,,,,1.0673,,,,,,,,,,,,,,,,,,,,,,6102bfa4053527360211a7b8,61036abe83a9273083c856cf,2021-07-29_22h01.12.158,Simcolourproject_2stim_asymm_v5,2020.2.10,Win32,60,61025ae37ef11b136ea224fe,,,,,,,,,3653,57.30001116,-29.20000687,1,0,0,response3disk,,5,16.50001055,-7.600006551,1,0,0,rectangle,16.50001055,-7.600006551,1,0,0,16.50001055,-7.600006551,1,0,0,0,43,43,52,1,,,,,,,,
,,,,,,,,,,,,,FF,,,,,,,,1.0334,,,,,,,,,,,,,,,,,,,,,,6102bfa4053527360211a7b8,61036abe83a9273083c856cf,2021-07-29_22h01.12.158,Simcolourproject_2stim_asymm_v5,2020.2.10,Win32,60,61025ae37ef11b136ea224fe,,,,,,,,,1138,-64.29999065,-29.60000688,1,0,0,response5disk,,2,-14.69998991,-1.200006455,1,0,0,rectangle,-14.69998991,-1.200006455,1,0,0,-14.69998991,-1.200006455,1,0,0,0,44,44,125,1,,,,,,,,
,,,,,,,,,,,,,FF,,,,,,,,1.8165,,,,,,,,,,,,,,,,,,,,,,6102bfa4053527360211a7b8,61036abe83a9273083c856cf,2021-07-29_22h01.12.158,Simcolourproject_2stim_asymm_v5,2020.2.10,Win32,60,61025ae37ef11b136ea224fe,,,,,,,,,3891,87.30001161,15.19999379,1,0,0,response1disk,,6,14.90001053,3.999993622,1,0,0,rectangle,14.90001053,3.999993622,1,0,0,14.90001053,3.999993622,1,0,0,0,45,45,113,1,,,,,,,,
,,,,,,,,,,,,,FF,,,,,,,,1.1669,,,,,,,,,,,,,,,,,,,,,,6102bfa4053527360211a7b8,61036abe83a9273083c856cf,2021-07-29_22h01.12.158,Simcolourproject_2stim_asymm_v5,2020.2.10,Win32,60,61025ae37ef11b136ea224fe,,,,,,,,,78,-25.09999007,-62.40000737,1,0,0,response5disk,,3,13.3000105,-13.20000663,1,0,0,rectangle,-49.49999043,36.39999411,1,0,0,1.300010324,-4.800006509,1,0,0,0,46,46,124,1,,response7disk_3,TRUE,1,1,"[102,281,190,139,311,177,111,111,237,64,104,47,59,299,74,67,309,149,36,246]",1.6331,rectangle
,,,,,,,,,,,,,FF,,,,,,,,2.1336,,,,,,,,,,,,,,,,,,,,,,6102bfa4053527360211a7b8,61036abe83a9273083c856cf,2021-07-29_22h01.12.158,Simcolourproject_2stim_asymm_v5,2020.2.10,Win32,60,61025ae37ef11b136ea224fe,,,,,,,,,2398,91.70001167,-52.00000721,1,0,0,response3disk,,5,-3.099989742,-2.000006467,1,0,0,rectangle,-3.099989742,-2.000006467,1,0,0,-3.099989742,-2.000006467,1,0,0,0,47,47,144,1,,,,,,,,
,,,,,,,,,,,,,FF,,,,,,,,1.7,,,,,,,,,,,,,,,,,,,,,,6102bfa4053527360211a7b8,61036abe83a9273083c856cf,2021-07-29_22h01.12.158,Simcolourproject_2stim_asymm_v5,2020.2.10,Win32,60,61025ae37ef11b136ea224fe,,,,,,,,,3616,34.90001082,-44.4000071,1,0,0,response3disk,,4,2.900010347,1.999993593,1,0,0,rectangle,2.900010347,1.999993593,1,0,0,2.900010347,1.999993593,1,0,0,0,48,48,115,1,,,,,,,,
,,,,,,,,,,,,,FF,,,,,,,,0.9667,,,,,,,,,,,,,,,,,,,,,,6102bfa4053527360211a7b8,61036abe83a9273083c856cf,2021-07-29_22h01.12.158,Simcolourproject_2stim_asymm_v5,2020.2.10,Win32,60,61025ae37ef11b136ea224fe,,,,,,,,,1274,-31.89994134,-58.0000073,1,0,0,response5disk,,3,15.70001054,-14.00000665,1,0,0,rectangle,15.70001054,-14.00000665,1,0,0,15.70001054,-14.00000665,1,0,0,0,49,49,1,1,,,,,,,,
,,,,,,,,,,,,,FF,,,,,,,,0.9169,,,,,,,,,,,,,,,,,,,,,,6102bfa4053527360211a7b8,61036abe83a9273083c856cf,2021-07-29_22h01.12.158,Simcolourproject_2stim_asymm_v5,2020.2.10,Win32,60,61025ae37ef11b136ea224fe,,,,,,,,,3699,20.50001061,-51.60000721,1,0,0,response3disk,,4,6.100059223,-11.60000661,1,0,0,rectangle,6.100059223,-11.60000661,1,0,0,6.100059223,-11.60000661,1,0,0,0,50,50,35,1,,,,,,,,
,,,,,,,,,,,,,FF,,,,,,,,1.4331,,,,,,,,,,,,,,,,,,,,,,6102bfa4053527360211a7b8,61036abe83a9273083c856cf,2021-07-29_22h01.12.158,Simcolourproject_2stim_asymm_v5,2020.2.10,Win32,60,61025ae37ef11b136ea224fe,,,,,,,,,3909,-71.49999076,-38.40000701,1,0,0,response5disk,,2,-19.89994116,1.999993593,1,0,0,rectangle,-19.89994116,1.999993593,1,0,0,-19.89994116,1.999993593,1,0,0,0,51,51,66,1,,,,,,,,
,,,,,,,,,,,,,FF,,,,,,,,1.067,,,,,,,,,,,,,,,,,,,,,,6102bfa4053527360211a7b8,61036abe83a9273083c856cf,2021-07-29_22h01.12.158,Simcolourproject_2stim_asymm_v5,2020.2.10,Win32,60,61025ae37ef11b136ea224fe,,,,,,,,,3321,41.30001092,-24.00000679,1,0,0,response3disk,,5,-2.29998973,-5.200006515,1,0,0,rectangle,-2.29998973,-5.200006515,1,0,0,-2.29998973,-5.200006515,1,0,0,0,52,52,19,1,,,,,,,,
,,,,,,,,,,,,,FF,,,,,,,,0.817,,,,,,,,,,,,,,,,,,,,,,6102bfa4053527360211a7b8,61036abe83a9273083c856cf,2021-07-29_22h01.12.158,Simcolourproject_2stim_asymm_v5,2020.2.10,Win32,60,61025ae37ef11b136ea224fe,,,,,,,,,667,-37.49999025,-60.80000734,1,0,0,response5disk,,3,9.700010449,-6.4373E-06,1,0,0,rectangle,9.700010449,-6.4373E-06,1,0,0,9.700010449,-6.4373E-06,1,0,0,0,53,53,67,1,,,,,,,,
,,,,,,,,,,,,,FF,,,,,,,,1.0333,,,,,,,,,,,,,,,,,,,,,,6102bfa4053527360211a7b8,61036abe83a9273083c856cf,2021-07-29_22h01.12.158,Simcolourproject_2stim_asymm_v5,2020.2.10,Win32,60,61025ae37ef11b136ea224fe,,,,,,,,,4293,-35.09999022,24.39999393,1,0,0,response7disk,,1,-17.09998995,6.799993664,1,0,0,rectangle,-17.09998995,6.799993664,1,0,0,-17.09998995,6.799993664,1,0,0,0,54,54,100,1,,,,,,,,
,,,,,,,,,,,,,FF,,,,,,,,1.2834,,,,,,,,,,,,,,,,,,,,,,6102bfa4053527360211a7b8,61036abe83a9273083c856cf,2021-07-29_22h01.12.158,Simcolourproject_2stim_asymm_v5,2020.2.10,Win32,60,61025ae37ef11b136ea224fe,,,,,,,,,2192,66.5000113,54.79999438,1,0,0,response1disk,,6,9.300010443,13.59999377,1,0,0,rectangle,9.300010443,13.59999377,1,0,0,9.300010443,13.59999377,1,0,0,0,55,55,17,1,,,,,,,,
,,,,,,,,,,,,,FF,,,,,,,,0.8333,,,,,,,,,,,,,,,,,,,,,,6102bfa4053527360211a7b8,61036abe83a9273083c856cf,2021-07-29_22h01.12.158,Simcolourproject_2stim_asymm_v5,2020.2.10,Win32,60,61025ae37ef11b136ea224fe,,,,,,,,,3724,30.10005958,54.39999437,1,0,0,response1disk,,7,18.90001059,4.399993628,1,0,0,rectangle,18.90001059,4.399993628,1,0,0,18.90001059,4.399993628,1,0,0,0,56,56,102,1,,,,,,,,
,,,,,,,,,,,,,FF,,,,,,,,1.8834,,,,,,,,,,,,,,,,,,,,,,6102bfa4053527360211a7b8,61036abe83a9273083c856cf,2021-07-29_22h01.12.158,Simcolourproject_2stim_asymm_v5,2020.2.10,Win32,60,61025ae37ef11b136ea224fe,,,,,,,,,4275,25.30001068,-63.60000739,1,0,0,response3disk,,4,12.50001049,-15.20000666,1,0,0,rectangle,12.50001049,-15.20000666,1,0,0,12.50001049,-15.20000666,1,0,0,0,57,57,32,1,,,,,,,,
,,,,,,,,,,,,,FF,,,,,,,,0.8833,,,,,,,,,,,,,,,,,,,,,,6102bfa4053527360211a7b8,61036abe83a9273083c856cf,2021-07-29_22h01.12.158,Simcolourproject_2stim_asymm_v5,2020.2.10,Win32,60,61025ae37ef11b136ea224fe,,,,,,,,,1252,64.10006009,-34.00000694,1,0,0,response3disk,,5,19.30001059,-5.200006515,1,0,0,rectangle,-25.49999008,81.19997036,1,0,0,1.300010324,5.999993652,1,0,0,0,58,58,8,1,,response7disk_3,TRUE,0,0,"[102,281,190,139,311,177,111,111,237,64,104,47,59,299,74,67,309,149,36,246]",1.5661,rectangle
,,,,,,,,,,,,,FF,,,,,,,,1.2165,,,,,,,,,,,,,,,,,,,,,,6102bfa4053527360211a7b8,61036abe83a9273083c856cf,2021-07-29_22h01.12.158,Simcolourproject_2stim_asymm_v5,2020.2.10,Win32,60,61025ae37ef11b136ea224fe,,,,,,,,,1262,29.70001075,-46.40000713,1,0,0,response3disk,,4,14.10005934,-2.400006473,1,0,0,rectangle,14.10005934,-2.400006473,1,0,0,14.10005934,-2.400006473,1,0,0,0,59,59,76,1,,,,,,,,
,,,,,,,,,,,,,FF,,,,,,,,1.0508,,,,,,,,,,,,,,,,,,,,,,6102bfa4053527360211a7b8,61036abe83a9273083c856cf,2021-07-29_22h01.12.158,Simcolourproject_2stim_asymm_v5,2020.2.10,Win32,60,61025ae37ef11b136ea224fe,,,,,,,,,3777,-27.0999901,-82.40000767,1,0,0,response5disk,,3,9.300010443,1.999993593,1,0,0,rectangle,9.300010443,1.999993593,1,0,0,9.300010443,1.999993593,1,0,0,0,60,60,49,1,,,,,,,,
,,,,,,,,,,,,,FF,,,,,,,,1.7499,,,,,,,,,,,,,,,,,,,,,,6102bfa4053527360211a7b8,61036abe83a9273083c856cf,2021-07-29_22h01.12.158,Simcolourproject_2stim_asymm_v5,2020.2.10,Win32,60,61025ae37ef11b136ea224fe,,,,,,,,,3859,27.70001072,-46.40000713,1,0,0,response3disk,,4,2.500010341,5.599993646,1,0,0,rectangle,2.500010341,5.599993646,1,0,0,2.500010341,5.599993646,1,0,0,0,61,61,136,1,,,,,,,,
,,,,,,,,,,,,,FF,,,,,,,,1.1665,,,,,,,,,,,,,,,,,,,,,,6102bfa4053527360211a7b8,61036abe83a9273083c856cf,2021-07-29_22h01.12.158,Simcolourproject_2stim_asymm_v5,2020.2.10,Win32,60,61025ae37ef11b136ea224fe,,,,,,,,,1709,28.10005955,95.19997057,1,0,0,response1disk,,7,10.10005928,11.59999374,1,0,0,rectangle,10.10005928,11.59999374,1,0,0,10.10005928,11.59999374,1,0,0,0,62,62,89,1,,,,,,,,
,,,,,,,,,,,,,FF,,,,,,,,2.0166,,,,,,,,,,,,,,,,,,,,,,6102bfa4053527360211a7b8,61036abe83a9273083c856cf,2021-07-29_22h01.12.158,Simcolourproject_2stim_asymm_v5,2020.2.10,Win32,60,61025ae37ef11b136ea224fe,,,,,,,,,162,26.5000107,-66.00000742,1,0,0,response3disk,,4,12.9000105,-4.400006503,1,0,0,rectangle,24.50001067,89.19997048,1,0,0,7.300010413,9.599993706,1,0,0,0,63,63,11,1,,response1disk_3,TRUE,7,7,"[102,281,190,139,311,177,111,111,237,64,104,47,59,299,74,67,309,149,36,246]",2.1669,rectangle
,,,,,,,,,,,,,FF,,,,,,,,1.1,,,,,,,,,,,,,,,,,,,,,,6102bfa4053527360211a7b8,61036abe83a9273083c856cf,2021-07-29_22h01.12.158,Simcolourproject_2stim_asymm_v5,2020.2.10,Win32,60,61025ae37ef11b136ea224fe,,,,,,,,,42,34.50001082,-67.20000744,1,0,0,response3disk,,4,4.100059193,1.999993593,1,0,0,rectangle,4.100059193,1.999993593,1,0,0,4.100059193,1.999993593,1,0,0,0,64,64,133,1,,,,,,,,
,,,,,,,,,,,,,FF,,,,,,,,1.7498,,,,,,,,,,,,,,,,,,,,,,6102bfa4053527360211a7b8,61036abe83a9273083c856cf,2021-07-29_22h01.12.158,Simcolourproject_2stim_asymm_v5,2020.2.10,Win32,60,61025ae37ef11b136ea224fe,,,,,,,,,3280,99.70001179,-38.000007,1,0,0,response3disk,,5,25.30001068,-11.2000066,1,0,0,rectangle,25.30001068,-11.2000066,1,0,0,25.30001068,-11.2000066,1,0,0,0,65,65,54,1,,,,,,,,
,,,,,,,,,,,,,FF,,,,,,,,0.9007,,,,,,,,,,,,,,,,,,,,,,6102bfa4053527360211a7b8,61036abe83a9273083c856cf,2021-07-29_22h01.12.158,Simcolourproject_2stim_asymm_v5,2020.2.10,Win32,60,61025ae37ef11b136ea224fe,,,,,,,,,2468,77.30001146,-19.20000672,1,0,0,response3disk,,5,24.90001068,-6.4373E-06,1,0,0,rectangle,-69.49999073,-48.00000715,1,0,0,13.3000105,-2.000006467,1,0,0,0,66,66,126,1,,response5disk_3,TRUE,2,2,"[102,281,190,139,311,177,111,111,237,64,104,47,59,299,74,67,309,149,36,246]",2.2332,rectangle
,,,,,,,,,,,,,FF,,,,,,,,1.8334,,,,,,,,,,,,,,,,,,,,,,6102bfa4053527360211a7b8,61036abe83a9273083c856cf,2021-07-29_22h01.12.158,Simcolourproject_2stim_asymm_v5,2020.2.10,Win32,60,61025ae37ef11b136ea224fe,,,,,,,,,1586,-73.09999079,-48.40000716,1,0,0,response5disk,,2,-6.699989796,-3.200006485,1,0,0,rectangle,-6.699989796,-3.200006485,1,0,0,-6.699989796,-3.200006485,1,0,0,0,67,67,25,1,,,,,,,,
,,,,,,,,,,,,,FF,,,,,,,,1.4832,,,,,,,,,,,,,,,,,,,,,,6102bfa4053527360211a7b8,61036abe83a9273083c856cf,2021-07-29_22h01.12.158,Simcolourproject_2stim_asymm_v5,2020.2.10,Win32,60,61025ae37ef11b136ea224fe,,,,,,,,,928,43.30001095,-70.80000749,1,0,0,response3disk,,4,6.100059223,-3.200006485,1,0,0,rectangle,6.100059223,-3.200006485,1,0,0,6.100059223,-3.200006485,1,0,0,0,68,68,118,1,,,,,,,,
,,,,,,,,,,,,,FF,,,,,,,,1.0664,,,,,,,,,,,,,,,,,,,,,,6102bfa4053527360211a7b8,61036abe83a9273083c856cf,2021-07-29_22h01.12.158,Simcolourproject_2stim_asymm_v5,2020.2.10,Win32,60,61025ae37ef11b136ea224fe,,,,,,,,,2962,-16.29998994,-65.20000741,1,0,0,response5disk,,3,6.900010407,-4.800006509,1,0,0,rectangle,6.900010407,-4.800006509,1,0,0,6.900010407,-4.800006509,1,0,0,0,69,69,120,1,,,,,,,,
,,,,,,,,,,,,,FF,,,,,,,,0.9999,,,,,,,,,,,,,,,,,,,,,,6102bfa4053527360211a7b8,61036abe83a9273083c856cf,2021-07-29_22h01.12.158,Simcolourproject_2stim_asymm_v5,2020.2.10,Win32,60,61025ae37ef11b136ea224fe,,,,,,,,,145,38.50001088,-59.60000733,1,0,0,response3disk,,4,10.10005928,-5.600006521,1,0,0,rectangle,10.10005928,-5.600006521,1,0,0,10.10005928,-5.600006521,1,0,0,0,70,70,6,1,,,,,,,,
,,,,,,,,,,,,,FF,,,,,,,,1.2834,,,,,,,,,,,,,,,,,,,,,,6102bfa4053527360211a7b8,61036abe83a9273083c856cf,2021-07-29_22h01.12.158,Simcolourproject_2stim_asymm_v5,2020.2.10,Win32,60,61025ae37ef11b136ea224fe,,,,,,,,,25,58.10006,-33.20000693,1,0,0,response3disk,,5,10.90001047,-5.200006515,1,0,0,rectangle,10.90001047,-5.200006515,1,0,0,10.90001047,-5.200006515,1,0,0,0,71,71,70,1,,,,,,,,
,,,,,,,,,,,,,FF,,,,,,,,1.0837,,,,,,,,,,,,,,,,,,,,,,6102bfa4053527360211a7b8,61036abe83a9273083c856cf,2021-07-29_22h01.12.158,Simcolourproject_2stim_asymm_v5,2020.2.10,Win32,60,61025ae37ef11b136ea224fe,,,,,,,,,4188,-59.49999058,-41.20000705,1,0,0,response5disk,,2,7.700010419,5.999993652,1,0,0,rectangle,7.700010419,5.999993652,1,0,0,7.700010419,5.999993652,1,0,0,0,72,72,71,1,,,,,,,,
,,,,,,,,,,,,,FF,,,,,,,,1.317,,,,,,,,,,,,,,,,,,,,,,6102bfa4053527360211a7b8,61036abe83a9273083c856cf,2021-07-29_22h01.12.158,Simcolourproject_2stim_asymm_v5,2020.2.10,Win32,60,61025ae37ef11b136ea224fe,,,,,,,,,309,36.10005967,-52.40000722,1,0,0,response3disk,,4,2.500010341,0.799993575,1,0,0,rectangle,26.5000107,63.59999451,1,0,0,9.700010449,-4.800006509,1,0,0,0,73,73,86,1,,response1disk_3,TRUE,7,7,"[102,281,190,139,311,177,111,111,237,64,104,47,59,299,74,67,309,149,36,246]",1.5495,rectangle
,,,,,,,,,,,,,FF,,,,,,,,1.6006,,,,,,,,,,,,,,,,,,,,,,6102bfa4053527360211a7b8,61036abe83a9273083c856cf,2021-07-29_22h01.12.158,Simcolourproject_2stim_asymm_v5,2020.2.10,Win32,60,61025ae37ef11b136ea224fe,,,,,,,,,632,-85.09999096,-58.80000731,1,0,0,response5disk,,2,-6.29998979,-10.40000659,1,0,0,rectangle,-6.29998979,-10.40000659,1,0,0,-6.29998979,-10.40000659,1,0,0,0,74,74,141,1,,,,,,,,
,,,,,,,,,,,,,FF,,,,,,,,1.2665,,,,,,,,,,,,,,,,,,,,,,6102bfa4053527360211a7b8,61036abe83a9273083c856cf,2021-07-29_22h01.12.158,Simcolourproject_2stim_asymm_v5,2020.2.10,Win32,60,61025ae37ef11b136ea224fe,,,,,,,,,1866,69.70001134,-36.00000697,1,0,0,response3disk,,5,20.10005943,6.399993658,1,0,0,rectangle,20.10005943,6.399993658,1,0,0,20.10005943,6.399993658,1,0,0,0,75,75,22,1,,,,,,,,
,,,,,,,,,,,,,FF,,,,,,,,1.1165,,,,,,,,,,,,,,,,,,,,,,6102bfa4053527360211a7b8,61036abe83a9273083c856cf,2021-07-29_22h01.12.158,Simcolourproject_2stim_asymm_v5,2020.2.10,Win32,60,61025ae37ef11b136ea224fe,,,,,,,,,3793,82.50001153,31.59999403,1,0,0,response1disk,,6,8.900010437,-6.4373E-06,1,0,0,rectangle,8.900010437,-6.4373E-06,1,0,0,8.900010437,-6.4373E-06,1,0,0,0,76,76,84,1,,,,,,,,
,,,,,,,,,,,,,FF,,,,,,,,0.9506,,,,,,,,,,,,,,,,,,,,,,6102bfa4053527360211a7b8,61036abe83a9273083c856cf,2021-07-29_22h01.12.158,Simcolourproject_2stim_asymm_v5,2020.2.10,Win32,60,61025ae37ef11b136ea224fe,,,,,,,,,4,-46.69999039,-68.40000746,1,0,0,response5disk,,3,-16.29998994,-6.400006533,1,0,0,rectangle,-16.29998994,-6.400006533,1,0,0,-16.29998994,-6.400006533,1,0,0,0,77,77,150,1,,,,,,,,
,,,,,,,,,,,,,FF,,,,,,,,0.9168,,,,,,,,,,,,,,,,,,,,,,6102bfa4053527360211a7b8,61036abe83a9273083c856cf,2021-07-29_22h01.12.158,Simcolourproject_2stim_asymm_v5,2020.2.10,Win32,60,61025ae37ef11b136ea224fe,,,,,,,,,1984,57.30001116,-27.20000684,1,0,0,response3disk,,5,11.70001048,-6.400006533,1,0,0,rectangle,11.70001048,-6.400006533,1,0,0,11.70001048,-6.400006533,1,0,0,0,78,78,26,1,,,,,,,,
,,,,,,,,,,,,,FF,,,,,,,,1.3504,,,,,,,,,,,,,,,,,,,,,,6102bfa4053527360211a7b8,61036abe83a9273083c856cf,2021-07-29_22h01.12.158,Simcolourproject_2stim_asymm_v5,2020.2.10,Win32,60,61025ae37ef11b136ea224fe,,,,,,,,,2104,111.300012,42.39999419,1,0,0,response1disk,,6,16.50001055,-8.000006557,1,0,0,rectangle,16.50001055,-8.000006557,1,0,0,16.50001055,-8.000006557,1,0,0,0,79,79,60,1,,,,,,,,
,,,,,,,,,,,,,FF,,,,,,,,1.1165,,,,,,,,,,,,,,,,,,,,,,6102bfa4053527360211a7b8,61036abe83a9273083c856cf,2021-07-29_22h01.12.158,Simcolourproject_2stim_asymm_v5,2020.2.10,Win32,60,61025ae37ef11b136ea224fe,,,,,,,,,1059,41.70001093,-63.20000738,1,0,0,response3disk,,4,2.900010347,-7.600006551,1,0,0,rectangle,2.900010347,-7.600006551,1,0,0,2.900010347,-7.600006551,1,0,0,0,80,80,122,1,,,,,,,,
,,,,,,,,,,,,,FF,,,,,,,,1.2169,,,,,,,,,,,,,,,,,,,,,,6102bfa4053527360211a7b8,61036abe83a9273083c856cf,2021-07-29_22h01.12.158,Simcolourproject_2stim_asymm_v5,2020.2.10,Win32,60,61025ae37ef11b136ea224fe,,,,,,,,,475,18.50001058,-66.80000743,1,0,0,response3disk,,4,-4.29998976,-8.800006568,1,0,0,rectangle,-4.29998976,-8.800006568,1,0,0,-4.29998976,-8.800006568,1,0,0,0,81,81,137,1,,,,,,,,
,,,,,,,,,,,,,FF,,,,,,,,1.2667,,,,,,,,,,,,,,,,,,,,,,6102bfa4053527360211a7b8,61036abe83a9273083c856cf,2021-07-29_22h01.12.158,Simcolourproject_2stim_asymm_v5,2020.2.10,Win32,60,61025ae37ef11b136ea224fe,,,,,,,,,3432,-29.49999014,-66.00000742,1,0,0,response5disk,,3,-3.099989742,-6.400006533,1,0,0,rectangle,-3.099989742,-6.400006533,1,0,0,-3.099989742,-6.400006533,1,0,0,0,82,82,88,1,,,,,,,,
,,,,,,,,,,,,,FF,,,,,,,,1.9166,,,,,,,,,,,,,,,,,,,,,,6102bfa4053527360211a7b8,61036abe83a9273083c856cf,2021-07-29_22h01.12.158,Simcolourproject_2stim_asymm_v5,2020.2.10,Win32,60,61025ae37ef11b136ea224fe,,,,,,,,,3640,16.90001056,-65.60000741,1,0,0,response3disk,,4,-1.099989712,-15.60000667,1,0,0,rectangle,-1.099989712,-15.60000667,1,0,0,-1.099989712,-15.60000667,1,0,0,0,83,83,29,1,,,,,,,,
,,,,,,,,,,,,,FF,,,,,,,,1.2833,,,,,,,,,,,,,,,,,,,,,,6102bfa4053527360211a7b8,61036abe83a9273083c856cf,2021-07-29_22h01.12.158,Simcolourproject_2stim_asymm_v5,2020.2.10,Win32,60,61025ae37ef11b136ea224fe,,,,,,,,,3729,59.70001119,-42.00000706,1,0,0,response3disk,,5,4.100059193,0.799993575,1,0,0,rectangle,4.100059193,0.799993575,1,0,0,4.100059193,0.799993575,1,0,0,0,84,84,145,1,,,,,,,,
,,,,,,,,,,,,,FF,,,,,,,,0.867,,,,,,,,,,,,,,,,,,,,,,6102bfa4053527360211a7b8,61036abe83a9273083c856cf,2021-07-29_22h01.12.158,Simcolourproject_2stim_asymm_v5,2020.2.10,Win32,60,61025ae37ef11b136ea224fe,,,,,,,,,2846,-31.09999016,-57.6000073,1,0,0,response5disk,,3,-1.899940896,-7.600006551,1,0,0,rectangle,-1.899940896,-7.600006551,1,0,0,-1.899940896,-7.600006551,1,0,0,0,85,85,119,1,,,,,,,,
,,,,,,,,,,,,,FF,,,,,,,,1.4499,,,,,,,,,,,,,,,,,,,,,,6102bfa4053527360211a7b8,61036abe83a9273083c856cf,2021-07-29_22h01.12.158,Simcolourproject_2stim_asymm_v5,2020.2.10,Win32,60,61025ae37ef11b136ea224fe,,,,,,,,,3346,81.30001152,-26.00000682,1,0,0,response3disk,,5,4.100059193,3.599993616,1,0,0,rectangle,4.100059193,3.599993616,1,0,0,4.100059193,3.599993616,1,0,0,0,86,86,80,1,,,,,,,,
,,,,,,,,,,,,,FF,,,,,,,,1.9669,,,,,,,,,,,,,,,,,,,,,,6102bfa4053527360211a7b8,61036abe83a9273083c856cf,2021-07-29_22h01.12.158,Simcolourproject_2stim_asymm_v5,2020.2.10,Win32,60,61025ae37ef11b136ea224fe,,,,,,,,,1213,-60.6999906,-23.20000678,1,0,0,response5disk,,2,-18.69998997,-13.20000663,1,0,0,rectangle,-18.69998997,-13.20000663,1,0,0,-18.69998997,-13.20000663,1,0,0,0,87,87,146,1,,,,,,,,
,,,,,,,,,,,,,FF,,,,,,,,1.817,,,,,,,,,,,,,,,,,,,,,,6102bfa4053527360211a7b8,61036abe83a9273083c856cf,2021-07-29_22h01.12.158,Simcolourproject_2stim_asymm_v5,2020.2.10,Win32,60,61025ae37ef11b136ea224fe,,,,,,,,,4211,74.10006024,-34.00000694,1,0,0,response3disk,,5,4.500010371,12.79999375,1,0,0,rectangle,4.500010371,12.79999375,1,0,0,4.500010371,12.79999375,1,0,0,0,88,88,50,1,,,,,,,,
,,,,,,,,,,,,,FF,,,,,,,,1.0003,,,,,,,,,,,,,,,,,,,,,,6102bfa4053527360211a7b8,61036abe83a9273083c856cf,2021-07-29_22h01.12.158,Simcolourproject_2stim_asymm_v5,2020.2.10,Win32,60,61025ae37ef11b136ea224fe,,,,,,,,,3471,-50.69999045,-20.00000674,1,0,0,response5disk,,2,12.9000105,10.79999372,1,0,0,rectangle,12.9000105,10.79999372,1,0,0,12.9000105,10.79999372,1,0,0,0,89,89,12,1,,,,,,,,
,,,,,,,,,,,,,FF,,,,,,,,1.0333,,,,,,,,,,,,,,,,,,,,,,6102bfa4053527360211a7b8,61036abe83a9273083c856cf,2021-07-29_22h01.12.158,Simcolourproject_2stim_asymm_v5,2020.2.10,Win32,60,61025ae37ef11b136ea224fe,,,,,,,,,94,-42.69999033,-21.60000676,1,0,0,response5disk,,2,-1.899940896,-5.200006515,1,0,0,rectangle,-1.899940896,-5.200006515,1,0,0,-1.899940896,-5.200006515,1,0,0,0,90,90,139,1,,,,,,,,
,,,,,,,,,,,,,FF,,,,,,,,0.9669,,,,,,,,,,,,,,,,,,,,,,6102bfa4053527360211a7b8,61036abe83a9273083c856cf,2021-07-29_22h01.12.158,Simcolourproject_2stim_asymm_v5,2020.2.10,Win32,60,61025ae37ef11b136ea224fe,,,,,,,,,1374,-43.89994152,-69.20000747,1,0,0,response5disk,,3,-7.499989808,-14.80000666,1,0,0,rectangle,-7.499989808,-14.80000666,1,0,0,-7.499989808,-14.80000666,1,0,0,0,91,91,107,1,,,,,,,,
,,,,,,,,,,,,,FF,,,,,,,,1.5165,,,,,,,,,,,,,,,,,,,,,,6102bfa4053527360211a7b8,61036abe83a9273083c856cf,2021-07-29_22h01.12.158,Simcolourproject_2stim_asymm_v5,2020.2.10,Win32,60,61025ae37ef11b136ea224fe,,,,,,,,,1016,30.90001076,-64.8000074,1,0,0,response3disk,,4,12.9000105,-13.60000664,1,0,0,rectangle,12.9000105,-13.60000664,1,0,0,12.9000105,-13.60000664,1,0,0,0,92,92,98,1,,,,,,,,
,,,,,,,,,,,,,FF,,,,,,,,2.317,,,,,,,,,,,,,,,,,,,,,,6102bfa4053527360211a7b8,61036abe83a9273083c856cf,2021-07-29_22h01.12.158,Simcolourproject_2stim_asymm_v5,2020.2.10,Win32,60,61025ae37ef11b136ea224fe,,,,,,,,,1841,39.30001089,-82.00000766,1,0,0,response3disk,,4,4.900010377,-3.600006491,1,0,0,rectangle,4.900010377,-3.600006491,1,0,0,4.900010377,-3.600006491,1,0,0,0,93,93,2,1,,,,,,,,
,,,,,,,,,,,,,FF,,,,,,,,1.5505,,,,,,,,,,,,,,,,,,,,,,6102bfa4053527360211a7b8,61036abe83a9273083c856cf,2021-07-29_22h01.12.158,Simcolourproject_2stim_asymm_v5,2020.2.10,Win32,60,61025ae37ef11b136ea224fe,,,,,,,,,3992,-41.49999031,-92.00000781,1,0,0,response5disk,,3,8.900010437,4.799993634,1,0,0,rectangle,8.900010437,4.799993634,1,0,0,8.900010437,4.799993634,1,0,0,0,94,94,79,1,,,,,,,,
,,,,,,,,,,,,,FF,,,,,,,,0.8672,,,,,,,,,,,,,,,,,,,,,,6102bfa4053527360211a7b8,61036abe83a9273083c856cf,2021-07-29_22h01.12.158,Simcolourproject_2stim_asymm_v5,2020.2.10,Win32,60,61025ae37ef11b136ea224fe,,,,,,,,,2041,-57.49999055,-30.40000689,1,0,0,response5disk,,2,-21.09999001,-1.600006461,1,0,0,rectangle,-21.09999001,-1.600006461,1,0,0,-21.09999001,-1.600006461,1,0,0,0,95,95,63,1,,,,,,,,
,,,,,,,,,,,,,FF,,,,,,,,1.0333,,,,,,,,,,,,,,,,,,,,,,6102bfa4053527360211a7b8,61036abe83a9273083c856cf,2021-07-29_22h01.12.158,Simcolourproject_2stim_asymm_v5,2020.2.10,Win32,60,61025ae37ef11b136ea224fe,,,,,,,,,77,-57.89994173,31.99999404,1,0,0,response7disk,,1,5.300010383,-0.400006443,1,0,0,rectangle,5.300010383,-0.400006443,1,0,0,5.300010383,-0.400006443,1,0,0,0,96,96,91,1,,,,,,,,
,,,,,,,,,,,,,FF,,,,,,,,1.3167,,,,,,,,,,,,,,,,,,,,,,6102bfa4053527360211a7b8,61036abe83a9273083c856cf,2021-07-29_22h01.12.158,Simcolourproject_2stim_asymm_v5,2020.2.10,Win32,60,61025ae37ef11b136ea224fe,,,,,,,,,144,31.70001078,-68.80000746,1,0,0,response3disk,,4,-0.699989706,-5.200006515,1,0,0,rectangle,-0.699989706,-5.200006515,1,0,0,-0.699989706,-5.200006515,1,0,0,0,97,97,157,1,,,,,,,,
,,,,,,,,,,,,,FF,,,,,,,,1.2501,,,,,,,,,,,,,,,,,,,,,,6102bfa4053527360211a7b8,61036abe83a9273083c856cf,2021-07-29_22h01.12.158,Simcolourproject_2stim_asymm_v5,2020.2.10,Win32,60,61025ae37ef11b136ea224fe,,,,,,,,,2485,-30.69999015,-65.20000741,1,0,0,response5disk,,3,13.70001051,-8.400006562,1,0,0,rectangle,13.70001051,-8.400006562,1,0,0,13.70001051,-8.400006562,1,0,0,0,98,98,46,1,,,,,,,,
,,,,,,,,,,,,,FF,,,,,,,,0.9,,,,,,,,,,,,,,,,,,,,,,6102bfa4053527360211a7b8,61036abe83a9273083c856cf,2021-07-29_22h01.12.158,Simcolourproject_2stim_asymm_v5,2020.2.10,Win32,60,61025ae37ef11b136ea224fe,,,,,,,,,771,47.30001101,-75.20000756,1,0,0,response3disk,,4,11.70001048,5.599993646,1,0,0,rectangle,11.70001048,5.599993646,1,0,0,11.70001048,5.599993646,1,0,0,0,99,99,10,1,,,,,,,,
,,,,,,,,,,,,,FF,,,,,,,,3.4169,,,,,,,,,,,,,,,,,,,,,,6102bfa4053527360211a7b8,61036abe83a9273083c856cf,2021-07-29_22h01.12.158,Simcolourproject_2stim_asymm_v5,2020.2.10,Win32,60,61025ae37ef11b136ea224fe,,,,,,,,,3707,-56.69999054,43.99999422,1,0,0,response7disk,,1,-10.69998986,-7.600006551,1,0,0,rectangle,-10.69998986,-7.600006551,1,0,0,-10.69998986,-7.600006551,1,0,0,0,100,100,129,1,,,,,,,,
,,,,,,,,,,,,,FF,,,,,,,,0.9668,,,,,,,,,,,,,,,,,,,,,,6102bfa4053527360211a7b8,61036abe83a9273083c856cf,2021-07-29_22h01.12.158,Simcolourproject_2stim_asymm_v5,2020.2.10,Win32,60,61025ae37ef11b136ea224fe,,,,,,,,,2165,-54.2999905,-29.60000688,1,0,0,response5disk,,2,16.90001056,-8.400006562,1,0,0,rectangle,36.10005967,69.5999946,1,0,0,2.100059164,3.999993622,1,0,0,0,101,101,152,1,,response1disk_3,TRUE,7,7,"[102,281,190,139,311,177,111,111,237,64,104,47,59,299,74,67,309,149,36,246]",2.3579,rectangle
,,,,,,,,,,,,,FF,,,,,,,,0.8749,,,,,,,,,,,,,,,,,,,,,,6102bfa4053527360211a7b8,61036abe83a9273083c856cf,2021-07-29_22h01.12.158,Simcolourproject_2stim_asymm_v5,2020.2.10,Win32,60,61025ae37ef11b136ea224fe,,,,,,,,,202,28.50001073,-56.80000728,1,0,0,response3disk,,4,-25.89994125,2.799993604,1,0,0,rectangle,-25.89994125,2.799993604,1,0,0,-25.89994125,2.799993604,1,0,0,0,102,102,33,1,,,,,,,,
,,,,,,,,,,,,,FF,,,,,,,,1.4832,,,,,,,,,,,,,,,,,,,,,,6102bfa4053527360211a7b8,61036abe83a9273083c856cf,2021-07-29_22h01.12.158,Simcolourproject_2stim_asymm_v5,2020.2.10,Win32,60,61025ae37ef11b136ea224fe,,,,,,,,,2216,84.50001156,22.3999939,1,0,0,response1disk,,6,11.70001048,-6.000006527,1,0,0,rectangle,-29.49999014,-72.00000751,1,0,0,12.9000105,11.59999374,1,0,0,0,103,103,69,1,,response5disk_3,TRUE,3,3,"[102,281,190,139,311,177,111,111,237,64,104,47,59,299,74,67,309,149,36,246]",2.317,rectangle
,,,,,,,,,,,,,FF,,,,,,,,0.8841,,,,,,,,,,,,,,,,,,,,,,6102bfa4053527360211a7b8,61036abe83a9273083c856cf,2021-07-29_22h01.12.158,Simcolourproject_2stim_asymm_v5,2020.2.10,Win32,60,61025ae37ef11b136ea224fe,,,,,,,,,334,72.90001139,-44.00000709,1,0,0,response3disk,,5,-8.29998982,4.399993628,1,0,0,rectangle,-8.29998982,4.399993628,1,0,0,-8.29998982,4.399993628,1,0,0,0,104,104,114,1,,,,,,,,
,,,,,,,,,,,,,FF,,,,,,,,1.3671,,,,,,,,,,,,,,,,,,,,,,6102bfa4053527360211a7b8,61036abe83a9273083c856cf,2021-07-29_22h01.12.158,Simcolourproject_2stim_asymm_v5,2020.2.10,Win32,60,61025ae37ef11b136ea224fe,,,,,,,,,206,38.1000597,-70.80000749,1,0,0,response3disk,,4,3.300010353,-13.20000663,1,0,0,rectangle,3.300010353,-13.20000663,1,0,0,3.300010353,-13.20000663,1,0,0,0,105,105,41,1,,,,,,,,
,,,,,,,,,,,,,FF,,,,,,,,0.8579,,,,,,,,,,,,,,,,,,,,,,6102bfa4053527360211a7b8,61036abe83a9273083c856cf,2021-07-29_22h01.12.158,Simcolourproject_2stim_asymm_v5,2020.2.10,Win32,60,61025ae37ef11b136ea224fe,,,,,,,,,3831,24.50001067,-78.0000076,1,0,0,response3disk,,4,-0.2999897,5.19999364,1,0,0,rectangle,-0.2999897,5.19999364,1,0,0,-0.2999897,5.19999364,1,0,0,0,106,106,106,1,,,,,,,,
,,,,,,,,,,,,,FF,,,,,,,,0.9837,,,,,,,,,,,,,,,,,,,,,,6102bfa4053527360211a7b8,61036abe83a9273083c856cf,2021-07-29_22h01.12.158,Simcolourproject_2stim_asymm_v5,2020.2.10,Win32,60,61025ae37ef11b136ea224fe,,,,,,,,,171,-55.8999417,-28.80000687,1,0,0,response5disk,,2,8.900010437,-2.000006467,1,0,0,rectangle,8.900010437,-2.000006467,1,0,0,8.900010437,-2.000006467,1,0,0,0,107,107,0,1,,,,,,,,
,,,,,,,,,,,,,FF,,,,,,,,0.9831,,,,,,,,,,,,,,,,,,,,,,6102bfa4053527360211a7b8,61036abe83a9273083c856cf,2021-07-29_22h01.12.158,Simcolourproject_2stim_asymm_v5,2020.2.10,Win32,60,61025ae37ef11b136ea224fe,,,,,,,,,298,48.10005985,-58.0000073,1,0,0,response3disk,,4,4.500010371,-0.800006449,1,0,0,rectangle,4.500010371,-0.800006449,1,0,0,4.500010371,-0.800006449,1,0,0,0,108,108,131,1,,,,,,,,
,,,,,,,,,,,,,FF,,,,,,,,1.2334,,,,,,,,,,,,,,,,,,,,,,6102bfa4053527360211a7b8,61036abe83a9273083c856cf,2021-07-29_22h01.12.158,Simcolourproject_2stim_asymm_v5,2020.2.10,Win32,60,61025ae37ef11b136ea224fe,,,,,,,,,433,-41.49999031,-89.20000777,1,0,0,response5disk,,3,-15.8999411,0.799993575,1,0,0,rectangle,-15.8999411,0.799993575,1,0,0,-15.8999411,0.799993575,1,0,0,0,109,109,153,1,,,,,,,,
,,,,,,,,,,,,,FF,,,,,,,,1.1168,,,,,,,,,,,,,,,,,,,,,,6102bfa4053527360211a7b8,61036abe83a9273083c856cf,2021-07-29_22h01.12.158,Simcolourproject_2stim_asymm_v5,2020.2.10,Win32,60,61025ae37ef11b136ea224fe,,,,,,,,,880,42.50001094,-66.80000743,1,0,0,response3disk,,4,-6.699989796,-5.600006521,1,0,0,rectangle,75.70001143,24.79999393,1,0,0,6.900010407,-3.600006491,1,0,0,0,110,110,101,1,,response1disk_3,TRUE,6,6,"[102,281,190,139,311,177,111,111,237,64,104,47,59,299,74,67,309,149,36,246]",1.3835,rectangle
,,,,,,,,,,,,,FF,,,,,,,,0.833,,,,,,,,,,,,,,,,,,,,,,6102bfa4053527360211a7b8,61036abe83a9273083c856cf,2021-07-29_22h01.12.158,Simcolourproject_2stim_asymm_v5,2020.2.10,Win32,60,61025ae37ef11b136ea224fe,,,,,,,,,3396,-39.49999028,-82.00000766,1,0,0,response5disk,,3,1.700010329,-10.40000659,1,0,0,rectangle,1.700010329,-10.40000659,1,0,0,1.700010329,-10.40000659,1,0,0,0,111,111,154,1,,,,,,,,
,,,,,,,,,,,,,FF,,,,,,,,1.5835,,,,,,,,,,,,,,,,,,,,,,6102bfa4053527360211a7b8,61036abe83a9273083c856cf,2021-07-29_22h01.12.158,Simcolourproject_2stim_asymm_v5,2020.2.10,Win32,60,61025ae37ef11b136ea224fe,,,,,,,,,3621,76.10006027,24.79999393,1,0,0,response1disk,,6,15.30001053,7.999993682,1,0,0,rectangle,15.30001053,7.999993682,1,0,0,15.30001053,7.999993682,1,0,0,0,112,112,111,1,,,,,,,,
,,,,,,,,,,,,,FF,,,,,,,,0.8668,,,,,,,,,,,,,,,,,,,,,,6102bfa4053527360211a7b8,61036abe83a9273083c856cf,2021-07-29_22h01.12.158,Simcolourproject_2stim_asymm_v5,2020.2.10,Win32,60,61025ae37ef11b136ea224fe,,,,,,,,,1809,32.50001079,-56.40000728,1,0,0,response3disk,,4,5.700010389,-8.800006568,1,0,0,rectangle,5.700010389,-8.800006568,1,0,0,5.700010389,-8.800006568,1,0,0,0,113,113,62,1,,,,,,,,
,,,,,,,,,,,,,FF,,,,,,,,1.6011,,,,,,,,,,,,,,,,,,,,,,6102bfa4053527360211a7b8,61036abe83a9273083c856cf,2021-07-29_22h01.12.158,Simcolourproject_2stim_asymm_v5,2020.2.10,Win32,60,61025ae37ef11b136ea224fe,,,,,,,,,2284,43.30001095,-77.20000759,1,0,0,response3disk,,4,14.50001052,-8.800006568,1,0,0,rectangle,14.50001052,-8.800006568,1,0,0,14.50001052,-8.800006568,1,0,0,0,114,114,42,1,,,,,,,,
,,,,,,,,,,,,,FF,,,,,,,,1.1084,,,,,,,,,,,,,,,,,,,,,,6102bfa4053527360211a7b8,61036abe83a9273083c856cf,2021-07-29_22h01.12.158,Simcolourproject_2stim_asymm_v5,2020.2.10,Win32,60,61025ae37ef11b136ea224fe,,,,,,,,,4252,-67.89994188,38.79999414,1,0,0,response7disk,,1,4.900010377,0.799993575,1,0,0,rectangle,4.900010377,0.799993575,1,0,0,4.900010377,0.799993575,1,0,0,0,115,115,51,1,,,,,,,,
,,,,,,,,,,,,,FF,,,,,,,,0.8921,,,,,,,,,,,,,,,,,,,,,,6102bfa4053527360211a7b8,61036abe83a9273083c856cf,2021-07-29_22h01.12.158,Simcolourproject_2stim_asymm_v5,2020.2.10,Win32,60,61025ae37ef11b136ea224fe,,,,,,,,,3444,93.30001169,-42.80000708,1,0,0,response3disk,,5,-3.099989742,14.79999378,1,0,0,rectangle,-3.099989742,14.79999378,1,0,0,-3.099989742,14.79999378,1,0,0,0,116,116,57,1,,,,,,,,
,,,,,,,,,,,,,FF,,,,,,,,1.0161,,,,,,,,,,,,,,,,,,,,,,6102bfa4053527360211a7b8,61036abe83a9273083c856cf,2021-07-29_22h01.12.158,Simcolourproject_2stim_asymm_v5,2020.2.10,Win32,60,61025ae37ef11b136ea224fe,,,,,,,,,3168,54.50001112,-75.20000756,1,0,0,response3disk,,4,-14.29998991,-3.600006491,1,0,0,rectangle,-14.29998991,-3.600006491,1,0,0,-14.29998991,-3.600006491,1,0,0,0,117,117,73,1,,,,,,,,
,,,,,,,,,,,,,FF,,,,,,,,0.9334,,,,,,,,,,,,,,,,,,,,,,6102bfa4053527360211a7b8,61036abe83a9273083c856cf,2021-07-29_22h01.12.158,Simcolourproject_2stim_asymm_v5,2020.2.10,Win32,60,61025ae37ef11b136ea224fe,,,,,,,,,2607,-53.49999049,23.99999392,1,0,0,response7disk,,1,6.500010401,1.999993593,1,0,0,rectangle,6.500010401,1.999993593,1,0,0,6.500010401,1.999993593,1,0,0,0,118,118,28,1,,,,,,,,
,,,,,,,,,,,,,FF,,,,,,,,0.8841,,,,,,,,,,,,,,,,,,,,,,6102bfa4053527360211a7b8,61036abe83a9273083c856cf,2021-07-29_22h01.12.158,Simcolourproject_2stim_asymm_v5,2020.2.10,Win32,60,61025ae37ef11b136ea224fe,,,,,,,,,916,44.10005979,-52.80000722,1,0,0,response3disk,,4,2.500010341,-1.600006461,1,0,0,rectangle,2.500010341,-1.600006461,1,0,0,2.500010341,-1.600006461,1,0,0,0,119,119,140,1,,,,,,,,
,,,,,,,,,,,,,FF,,,,,,,,1.2,,,,,,,,,,,,,,,,,,,,,,6102bfa4053527360211a7b8,61036abe83a9273083c856cf,2021-07-29_22h01.12.158,Simcolourproject_2stim_asymm_v5,2020.2.10,Win32,60,61025ae37ef11b136ea224fe,,,,,,,,,4002,81.70001152,44.39999422,1,0,0,response1disk,,6,-0.699989706,-1.200006455,1,0,0,rectangle,-0.699989706,-1.200006455,1,0,0,-0.699989706,-1.200006455,1,0,0,0,120,120,58,1,,,,,,,,
,,,,,,,,,,,,,FF,,,,,,,,0.8503,,,,,,,,,,,,,,,,,,,,,,6102bfa4053527360211a7b8,61036abe83a9273083c856cf,2021-07-29_22h01.12.158,Simcolourproject_2stim_asymm_v5,2020.2.10,Win32,60,61025ae37ef11b136ea224fe,,,,,,,,,108,52.90001109,-79.60000762,1,0,0,response3disk,,4,-0.699989706,-14.80000666,1,0,0,rectangle,-0.699989706,-14.80000666,1,0,0,-0.699989706,-14.80000666,1,0,0,0,121,121,116,1,,,,,,,,
,,,,,,,,,,,,,FF,,,,,,,,1.0172,,,,,,,,,,,,,,,,,,,,,,6102bfa4053527360211a7b8,61036abe83a9273083c856cf,2021-07-29_22h01.12.158,Simcolourproject_2stim_asymm_v5,2020.2.10,Win32,60,61025ae37ef11b136ea224fe,,,,,,,,,2957,89.30001163,-59.20000732,1,0,0,response3disk,,5,12.9000105,1.599993587,1,0,0,rectangle,12.9000105,1.599993587,1,0,0,12.9000105,1.599993587,1,0,0,0,122,122,110,1,,,,,,,,
,,,,,,,,,,,,,FF,,,,,,,,0.6749,,,,,,,,,,,,,,,,,,,,,,6102bfa4053527360211a7b8,61036abe83a9273083c856cf,2021-07-29_22h01.12.158,Simcolourproject_2stim_asymm_v5,2020.2.10,Win32,60,61025ae37ef11b136ea224fe,,,,,,,,,123,60.50001121,-34.00000694,1,0,0,response3disk,,5,-5.099989772,0.799993575,1,0,0,rectangle,-5.099989772,0.799993575,1,0,0,-5.099989772,0.799993575,1,0,0,0,123,123,27,1,,,,,,,,
,,,,,,,,,,,,,FF,,,,,,,,0.9999,,,,,,,,,,,,,,,,,,,,,,6102bfa4053527360211a7b8,61036abe83a9273083c856cf,2021-07-29_22h01.12.158,Simcolourproject_2stim_asymm_v5,2020.2.10,Win32,60,61025ae37ef11b136ea224fe,,,,,,,,,111,41.70001093,-67.60000744,1,0,0,response3disk,,4,-11.49998987,-0.400006443,1,0,0,rectangle,-11.49998987,-0.400006443,1,0,0,-11.49998987,-0.400006443,1,0,0,0,124,124,103,1,,,,,,,,
,,,,,,,,,,,,,FF,,,,,,,,0.8499,,,,,,,,,,,,,,,,,,,,,,6102bfa4053527360211a7b8,61036abe83a9273083c856cf,2021-07-29_22h01.12.158,Simcolourproject_2stim_asymm_v5,2020.2.10,Win32,60,61025ae37ef11b136ea224fe,,,,,,,,,1454,-60.29999059,23.99999392,1,0,0,response7disk,,1,16.10005937,-9.60000658,1,0,0,rectangle,16.10005937,-9.60000658,1,0,0,16.10005937,-9.60000658,1,0,0,0,125,125,135,1,,,,,,,,
,,,,,,,,,,,,,FF,,,,,,,,1.0173,,,,,,,,,,,,,,,,,,,,,,6102bfa4053527360211a7b8,61036abe83a9273083c856cf,2021-07-29_22h01.12.158,Simcolourproject_2stim_asymm_v5,2020.2.10,Win32,60,61025ae37ef11b136ea224fe,,,,,,,,,1607,-53.49999049,-36.40000698,1,0,0,response5disk,,2,14.10005934,3.19999361,1,0,0,rectangle,14.10005934,3.19999361,1,0,0,14.10005934,3.19999361,1,0,0,0,126,126,94,1,,,,,,,,
,,,,,,,,,,,,,FF,,,,,,,,0.8,,,,,,,,,,,,,,,,,,,,,,6102bfa4053527360211a7b8,61036abe83a9273083c856cf,2021-07-29_22h01.12.158,Simcolourproject_2stim_asymm_v5,2020.2.10,Win32,60,61025ae37ef11b136ea224fe,,,,,,,,,3849,-35.8999414,-73.20000753,1,0,0,response5disk,,3,2.100059164,-3.200006485,1,0,0,rectangle,2.100059164,-3.200006485,1,0,0,2.100059164,-3.200006485,1,0,0,0,127,127,9,1,,,,,,,,
,,,,,,,,,,,,,FF,,,,,,,,1.9,,,,,,,,,,,,,,,,,,,,,,6102bfa4053527360211a7b8,61036abe83a9273083c856cf,2021-07-29_22h01.12.158,Simcolourproject_2stim_asymm_v5,2020.2.10,Win32,60,61025ae37ef11b136ea224fe,,,,,,,,,1157,30.50001076,-59.20000732,1,0,0,response3disk,,4,-1.099989712,4.799993634,1,0,0,rectangle,-1.099989712,4.799993634,1,0,0,-1.099989712,4.799993634,1,0,0,0,128,128,56,1,,,,,,,,
,,,,,,,,,,,,,FF,,,,,,,,1.2339,,,,,,,,,,,,,,,,,,,,,,6102bfa4053527360211a7b8,61036abe83a9273083c856cf,2021-07-29_22h01.12.158,Simcolourproject_2stim_asymm_v5,2020.2.10,Win32,60,61025ae37ef11b136ea224fe,,,,,,,,,2040,25.70001069,-67.20000744,1,0,0,response3disk,,4,-11.09998986,5.599993646,1,0,0,rectangle,-11.09998986,5.599993646,1,0,0,-11.09998986,5.599993646,1,0,0,0,129,129,81,1,,,,,,,,
,,,,,,,,,,,,,FF,,,,,,,,1.1681,,,,,,,,,,,,,,,,,,,,,,6102bfa4053527360211a7b8,61036abe83a9273083c856cf,2021-07-29_22h01.12.158,Simcolourproject_2stim_asymm_v5,2020.2.10,Win32,60,61025ae37ef11b136ea224fe,,,,,,,,,705,45.70001099,68.79999459,1,0,0,response1disk,,7,11.30001047,-2.800006479,1,0,0,rectangle,11.30001047,-2.800006479,1,0,0,11.30001047,-2.800006479,1,0,0,0,130,130,23,1,,,,,,,,
,,,,,,,,,,,,,FF,,,,,,,,1.4005,,,,,,,,,,,,,,,,,,,,,,6102bfa4053527360211a7b8,61036abe83a9273083c856cf,2021-07-29_22h01.12.158,Simcolourproject_2stim_asymm_v5,2020.2.10,Win32,60,61025ae37ef11b136ea224fe,,,,,,,,,1040,30.10005958,-68.40000746,1,0,0,response3disk,,4,12.10005931,-7.200006545,1,0,0,rectangle,12.10005931,-7.200006545,1,0,0,12.10005931,-7.200006545,1,0,0,0,131,131,24,1,,,,,,,,
,,,,,,,,,,,,,FF,,,,,,,,2.0518,,,,,,,,,,,,,,,,,,,,,,6102bfa4053527360211a7b8,61036abe83a9273083c856cf,2021-07-29_22h01.12.158,Simcolourproject_2stim_asymm_v5,2020.2.10,Win32,60,61025ae37ef11b136ea224fe,,,,,,,,,1316,56.50001115,-66.40000743,1,0,0,response3disk,,4,-3.499989748,3.19999361,1,0,0,rectangle,-3.499989748,3.19999361,1,0,0,-3.499989748,3.19999361,1,0,0,0,132,132,97,1,,,,,,,,
,,,,,,,,,,,,,FF,,,,,,,,0.7081,,,,,,,,,,,,,,,,,,,,,,6102bfa4053527360211a7b8,61036abe83a9273083c856cf,2021-07-29_22h01.12.158,Simcolourproject_2stim_asymm_v5,2020.2.10,Win32,60,61025ae37ef11b136ea224fe,,,,,,,,,723,-32.29999018,-78.80000761,1,0,0,response5disk,,3,11.70001048,-10.40000659,1,0,0,rectangle,11.70001048,-10.40000659,1,0,0,11.70001048,-10.40000659,1,0,0,0,133,133,16,1,,,,,,,,
,,,,,,,,,,,,,FF,,,,,,,,1.1496,,,,,,,,,,,,,,,,,,,,,,6102bfa4053527360211a7b8,61036abe83a9273083c856cf,2021-07-29_22h01.12.158,Simcolourproject_2stim_asymm_v5,2020.2.10,Win32,60,61025ae37ef11b136ea224fe,,,,,,,,,3542,27.70001072,69.99999461,1,0,0,response1disk,,7,3.700010359,-0.800006449,1,0,0,rectangle,3.700010359,-0.800006449,1,0,0,3.700010359,-0.800006449,1,0,0,0,134,134,13,1,,,,,,,,
,,,,,,,,,,,,,FF,,,,,,,,1.4837,,,,,,,,,,,,,,,,,,,,,,6102bfa4053527360211a7b8,61036abe83a9273083c856cf,2021-07-29_22h01.12.158,Simcolourproject_2stim_asymm_v5,2020.2.10,Win32,60,61025ae37ef11b136ea224fe,,,,,,,,,2478,33.3000108,73.99999467,1,0,0,response1disk,,7,28.50001073,4.799993634,1,0,0,rectangle,28.50001073,4.799993634,1,0,0,28.50001073,4.799993634,1,0,0,0,135,135,142,1,,,,,,,,
,,,,,,,,,,,,,FF,,,,,,,,1.7336,,,,,,,,,,,,,,,,,,,,,,6102bfa4053527360211a7b8,61036abe83a9273083c856cf,2021-07-29_22h01.12.158,Simcolourproject_2stim_asymm_v5,2020.2.10,Win32,60,61025ae37ef11b136ea224fe,,,,,,,,,429,72.50001138,-48.40000716,1,0,0,response3disk,,5,1.700010329,-8.800006568,1,0,0,rectangle,1.700010329,-8.800006568,1,0,0,1.700010329,-8.800006568,1,0,0,0,136,136,148,1,,,,,,,,
,,,,,,,,,,,,,FF,,,,,,,,1.2504,,,,,,,,,,,,,,,,,,,,,,6102bfa4053527360211a7b8,61036abe83a9273083c856cf,2021-07-29_22h01.12.158,Simcolourproject_2stim_asymm_v5,2020.2.10,Win32,60,61025ae37ef11b136ea224fe,,,,,,,,,299,70.10006018,27.99999398,1,0,0,response1disk,,6,10.10005928,-2.400006473,1,0,0,rectangle,10.10005928,-2.400006473,1,0,0,10.10005928,-2.400006473,1,0,0,0,137,137,15,1,,,,,,,,
,,,,,,,,,,,,,FF,,,,,,,,1.0418,,,,,,,,,,,,,,,,,,,,,,6102bfa4053527360211a7b8,61036abe83a9273083c856cf,2021-07-29_22h01.12.158,Simcolourproject_2stim_asymm_v5,2020.2.10,Win32,60,61025ae37ef11b136ea224fe,,,,,,,,,1969,41.30001092,-74.40000755,1,0,0,response3disk,,4,-11.49998987,8.799993694,1,0,0,rectangle,34.10005964,-78.0000076,1,0,0,-5.499989778,-4.000006497,1,0,0,0,138,138,40,1,,response3disk_3,TRUE,4,4,"[102,281,190,139,311,177,111,111,237,64,104,47,59,299,74,67,309,149,36,246]",1.683,rectangle
,,,,,,,,,,,,,FF,,,,,,,,1.0668,,,,,,,,,,,,,,,,,,,,,,6102bfa4053527360211a7b8,61036abe83a9273083c856cf,2021-07-29_22h01.12.158,Simcolourproject_2stim_asymm_v5,2020.2.10,Win32,60,61025ae37ef11b136ea224fe,,,,,,,,,1708,74.10006024,-37.20000699,1,0,0,response3disk,,5,8.900010437,7.599993676,1,0,0,rectangle,8.900010437,7.599993676,1,0,0,8.900010437,7.599993676,1,0,0,0,139,139,121,1,,,,,,,,
,,,,,,,,,,,,,FF,,,,,,,,1.858,,,,,,,,,,,,,,,,,,,,,,6102bfa4053527360211a7b8,61036abe83a9273083c856cf,2021-07-29_22h01.12.158,Simcolourproject_2stim_asymm_v5,2020.2.10,Win32,60,61025ae37ef11b136ea224fe,,,,,,,,,2282,39.30001089,64.79999453,1,0,0,response1disk,,7,18.50001058,-2.800006479,1,0,0,rectangle,18.50001058,-2.800006479,1,0,0,18.50001058,-2.800006479,1,0,0,0,140,140,44,1,,,,,,,,
,,,,,,,,,,,,,FF,,,,,,,,0.833,,,,,,,,,,,,,,,,,,,,,,6102bfa4053527360211a7b8,61036abe83a9273083c856cf,2021-07-29_22h01.12.158,Simcolourproject_2stim_asymm_v5,2020.2.10,Win32,60,61025ae37ef11b136ea224fe,,,,,,,,,2309,29.70001075,81.19997036,1,0,0,response1disk,,7,8.500010431,2.399993598,1,0,0,rectangle,8.500010431,2.399993598,1,0,0,8.500010431,2.399993598,1,0,0,0,141,141,59,1,,,,,,,,
,,,,,,,,,,,,,FF,,,,,,,,1.0839,,,,,,,,,,,,,,,,,,,,,,6102bfa4053527360211a7b8,61036abe83a9273083c856cf,2021-07-29_22h01.12.158,Simcolourproject_2stim_asymm_v5,2020.2.10,Win32,60,61025ae37ef11b136ea224fe,,,,,,,,,4239,36.10005967,-79.60000762,1,0,0,response3disk,,4,-2.29998973,-0.400006443,1,0,0,rectangle,-2.29998973,-0.400006443,1,0,0,-2.29998973,-0.400006443,1,0,0,0,142,142,96,1,,,,,,,,
,,,,,,,,,,,,,FF,,,,,,,,0.9415,,,,,,,,,,,,,,,,,,,,,,6102bfa4053527360211a7b8,61036abe83a9273083c856cf,2021-07-29_22h01.12.158,Simcolourproject_2stim_asymm_v5,2020.2.10,Win32,60,61025ae37ef11b136ea224fe,,,,,,,,,4244,-24.69999006,-75.60000756,1,0,0,response5disk,,3,0.900010318,-6.4373E-06,1,0,0,rectangle,0.900010318,-6.4373E-06,1,0,0,0.900010318,-6.4373E-06,1,0,0,0,143,143,128,1,,,,,,,,
,,,,,,,,,,,,,FF,,,,,,,,0.9889,,,,,,,,,,,,,,,,,,,,,,6102bfa4053527360211a7b8,61036abe83a9273083c856cf,2021-07-29_22h01.12.158,Simcolourproject_2stim_asymm_v5,2020.2.10,Win32,60,61025ae37ef11b136ea224fe,,,,,,,,,1238,49.30001104,-62.40000737,1,0,0,response3disk,,4,-18.69998997,2.399993598,1,0,0,rectangle,-18.69998997,2.399993598,1,0,0,-18.69998997,2.399993598,1,0,0,0,144,144,65,1,,,,,,,,
,,,,,,,,,,,,,FF,,,,,,,,0.9335,,,,,,,,,,,,,,,,,,,,,,6102bfa4053527360211a7b8,61036abe83a9273083c856cf,2021-07-29_22h01.12.158,Simcolourproject_2stim_asymm_v5,2020.2.10,Win32,60,61025ae37ef11b136ea224fe,,,,,,,,,3118,33.70001081,-66.80000743,1,0,0,response3disk,,4,-9.099989831,-3.200006485,1,0,0,rectangle,-9.099989831,-3.200006485,1,0,0,-9.099989831,-3.200006485,1,0,0,0,145,145,38,1,,,,,,,,
,,,,,,,,,,,,,FF,,,,,,,,2.2582,,,,,,,,,,,,,,,,,,,,,,6102bfa4053527360211a7b8,61036abe83a9273083c856cf,2021-07-29_22h01.12.158,Simcolourproject_2stim_asymm_v5,2020.2.10,Win32,60,61025ae37ef11b136ea224fe,,,,,,,,,3190,-77.49999085,-51.2000072,1,0,0,response5disk,,2,-21.49999002,-6.400006533,1,0,0,rectangle,-21.49999002,-6.400006533,1,0,0,-21.49999002,-6.400006533,1,0,0,0,146,146,31,1,,,,,,,,
,,,,,,,,,,,,,FF,,,,,,,,2.1022,,,,,,,,,,,,,,,,,,,,,,6102bfa4053527360211a7b8,61036abe83a9273083c856cf,2021-07-29_22h01.12.158,Simcolourproject_2stim_asymm_v5,2020.2.10,Win32,60,61025ae37ef11b136ea224fe,,,,,,,,,3206,76.90001145,-32.40000692,1,0,0,response3disk,,5,-15.09998992,2.399993598,1,0,0,rectangle,-15.09998992,2.399993598,1,0,0,-15.09998992,2.399993598,1,0,0,0,147,147,77,1,,,,,,,,
,,,,,,,,,,,,,FF,,,,,,,,1.05,,,,,,,,,,,,,,,,,,,,,,6102bfa4053527360211a7b8,61036abe83a9273083c856cf,2021-07-29_22h01.12.158,Simcolourproject_2stim_asymm_v5,2020.2.10,Win32,60,61025ae37ef11b136ea224fe,,,,,,,,,736,35.30001083,-66.00000742,1,0,0,response3disk,,4,9.700010449,-9.200006574,1,0,0,rectangle,30.10005958,66.79999456,1,0,0,12.10005931,3.599993616,1,0,0,0,148,148,64,1,,response1disk_3,TRUE,7,7,"[102,281,190,139,311,177,111,111,237,64,104,47,59,299,74,67,309,149,36,246]",2.4658,rectangle
,,,,,,,,,,,,,FF,,,,,,,,1.2502,,,,,,,,,,,,,,,,,,,,,,6102bfa4053527360211a7b8,61036abe83a9273083c856cf,2021-07-29_22h01.12.158,Simcolourproject_2stim_asymm_v5,2020.2.10,Win32,60,61025ae37ef11b136ea224fe,,,,,,,,,172,-63.89994182,-19.60000673,1,0,0,response5disk,,2,-18.69998997,2.799993604,1,0,0,rectangle,-18.69998997,2.799993604,1,0,0,-18.69998997,2.799993604,1,0,0,0,149,149,47,1,,,,,,,,
,,,,,,,,,,,,,FF,,,,,,,,1.0666,,,,,,,,,,,,,,,,,,,,,,6102bfa4053527360211a7b8,61036abe83a9273083c856cf,2021-07-29_22h01.12.158,Simcolourproject_2stim_asymm_v5,2020.2.10,Win32,60,61025ae37ef11b136ea224fe,,,,,,,,,3481,-49.09999043,-60.00000733,1,0,0,response5disk,,3,0.100059134,-9.60000658,1,0,0,rectangle,0.100059134,-9.60000658,1,0,0,0.100059134,-9.60000658,1,0,0,0,150,150,95,1,,,,,,,,
,,,,,,,,,,,,,FF,,,,,,,,2.0507,,,,,,,,,,,,,,,,,,,,,,6102bfa4053527360211a7b8,61036abe83a9273083c856cf,2021-07-29_22h01.12.158,Simcolourproject_2stim_asymm_v5,2020.2.10,Win32,60,61025ae37ef11b136ea224fe,,,,,,,,,2378,-20.29999,-83.20000768,1,0,0,response5disk,,3,15.30001053,-4.800006509,1,0,0,rectangle,15.30001053,-4.800006509,1,0,0,15.30001053,-4.800006509,1,0,0,0,151,151,151,1,,,,,,,,
,,,,,,,,,,,,,FF,,,,,,,,0.9503,,,,,,,,,,,,,,,,,,,,,,6102bfa4053527360211a7b8,61036abe83a9273083c856cf,2021-07-29_22h01.12.158,Simcolourproject_2stim_asymm_v5,2020.2.10,Win32,60,61025ae37ef11b136ea224fe,,,,,,,,,1908,20.50001061,-41.60000706,1,0,0,response3disk,,4,2.500010341,0.799993575,1,0,0,rectangle,2.500010341,0.799993575,1,0,0,2.500010341,0.799993575,1,0,0,0,152,152,134,1,,,,,,,,
,,,,,,,,,,,,,FF,,,,,,,,1.7841,,,,,,,,,,,,,,,,,,,,,,6102bfa4053527360211a7b8,61036abe83a9273083c856cf,2021-07-29_22h01.12.158,Simcolourproject_2stim_asymm_v5,2020.2.10,Win32,60,61025ae37ef11b136ea224fe,,,,,,,,,4109,24.90001068,69.99999461,1,0,0,response1disk,,7,10.50001046,14.39999378,1,0,0,rectangle,10.50001046,14.39999378,1,0,0,10.50001046,14.39999378,1,0,0,0,153,153,68,1,,,,,,,,
,,,,,,,,,,,,,FF,,,,,,,,1.8337,,,,,,,,,,,,,,,,,,,,,,6102bfa4053527360211a7b8,61036abe83a9273083c856cf,2021-07-29_22h01.12.158,Simcolourproject_2stim_asymm_v5,2020.2.10,Win32,60,61025ae37ef11b136ea224fe,,,,,,,,,1564,21.70001063,-57.6000073,1,0,0,response3disk,,4,-5.899940956,-4.000006497,1,0,0,rectangle,-5.899940956,-4.000006497,1,0,0,-5.899940956,-4.000006497,1,0,0,0,154,154,37,1,,,,,,,,
,,,,,,,,,,,,,FF,,,,,,,,0.8349,,,,,,,,,,,,,,,,,,,,,,6102bfa4053527360211a7b8,61036abe83a9273083c856cf,2021-07-29_22h01.12.158,Simcolourproject_2stim_asymm_v5,2020.2.10,Win32,60,61025ae37ef11b136ea224fe,,,,,,,,,3681,37.70001087,-28.80000687,1,0,0,response3disk,,5,-3.899940926,15.5999938,1,0,0,rectangle,-3.899940926,15.5999938,1,0,0,-3.899940926,15.5999938,1,0,0,0,155,155,85,1,,,,,,,,
,,,,,,,,,,,,,FF,,,,,,,,1.1253,,,,,,,,,,,,,,,,,,,,,,6102bfa4053527360211a7b8,61036abe83a9273083c856cf,2021-07-29_22h01.12.158,Simcolourproject_2stim_asymm_v5,2020.2.10,Win32,60,61025ae37ef11b136ea224fe,,,,,,,,,1910,29.70001075,-91.60005663,1,0,0,response3disk,,4,4.100059193,7.599993676,1,0,0,rectangle,4.100059193,7.599993676,1,0,0,4.100059193,7.599993676,1,0,0,0,156,156,30,1,,,,,,,,
,,,,,,,,,,,,,FF,,,,,,,,2.5056,,,,,,,,,,,,,,,,,,,,,,6102bfa4053527360211a7b8,61036abe83a9273083c856cf,2021-07-29_22h01.12.158,Simcolourproject_2stim_asymm_v5,2020.2.10,Win32,60,61025ae37ef11b136ea224fe,,,,,,,,,2224,64.10006009,-95.20000786,1,0,0,response3disk,,4,-15.09998992,-1.600006461,1,0,0,rectangle,-15.09998992,-1.600006461,1,0,0,-15.09998992,-1.600006461,1,0,0,0,157,157,143,1,,,,,,,,
,,,,,,,,,,,,,FF,,,,,,,,0.8503,,,,,,,,,,,,,,,,,,,,,,6102bfa4053527360211a7b8,61036abe83a9273083c856cf,2021-07-29_22h01.12.158,Simcolourproject_2stim_asymm_v5,2020.2.10,Win32,60,61025ae37ef11b136ea224fe,,,,,,,,,2412,66.10006012,-46.80000713,1,0,0,response3disk,,5,21.30001062,-0.800006449,1,0,0,rectangle,21.30001062,-0.800006449,1,0,0,21.30001062,-0.800006449,1,0,0,0,158,158,34,1,,,,,,,,
,,,,,,,,,,,,,FF,,,,,,,,1.7834,,,,,,,,,,,,,,,,,,,,,,6102bfa4053527360211a7b8,61036abe83a9273083c856cf,2021-07-29_22h01.12.158,Simcolourproject_2stim_asymm_v5,2020.2.10,Win32,60,61025ae37ef11b136ea224fe,,,,,,,,,3795,44.90001097,-75.60000756,1,0,0,response3disk,,4,9.700010449,-5.200006515,1,0,0,rectangle,9.700010449,-5.200006515,1,0,0,9.700010449,-5.200006515,1,0,0,0,159,159,82,1,,,,,,,,
,,,,,,,,,,,,,FF,,,,,,,,0.9835,,,,,,,,,,,,,,,,,,,,,,6102bfa4053527360211a7b8,61036abe83a9273083c856cf,2021-07-29_22h01.12.158,Simcolourproject_2stim_asymm_v5,2020.2.10,Win32,60,61025ae37ef11b136ea224fe,,,,,,,,,2735,-21.89994119,-78.0000076,1,0,0,response5disk,,3,10.90001047,12.79999375,1,0,0,rectangle,10.90001047,12.79999375,1,0,0,10.90001047,12.79999375,1,0,0,1,0,160,12,1,,,,,,,,
,,,,,,,,,,,,,FF,,,,,,,,1.2165,,,,,,,,,,,,,,,,,,,,,,6102bfa4053527360211a7b8,61036abe83a9273083c856cf,2021-07-29_22h01.12.158,Simcolourproject_2stim_asymm_v5,2020.2.10,Win32,60,61025ae37ef11b136ea224fe,,,,,,,,,484,-27.49999011,-76.80000758,1,0,0,response5disk,,3,10.50001046,-1.600006461,1,0,0,rectangle,10.50001046,-1.600006461,1,0,0,10.50001046,-1.600006461,1,0,0,1,1,161,101,1,,,,,,,,
,,,,,,,,,,,,,FF,,,,,,,,1.7502,,,,,,,,,,,,,,,,,,,,,,6102bfa4053527360211a7b8,61036abe83a9273083c856cf,2021-07-29_22h01.12.158,Simcolourproject_2stim_asymm_v5,2020.2.10,Win32,60,61025ae37ef11b136ea224fe,,,,,,,,,3835,72.10006021,-53.20000723,1,0,0,response3disk,,5,-18.29998997,5.999993652,1,0,0,rectangle,-18.29998997,5.999993652,1,0,0,-18.29998997,5.999993652,1,0,0,1,2,162,110,1,,,,,,,,
,,,,,,,,,,,,,FF,,,,,,,,1.3834,,,,,,,,,,,,,,,,,,,,,,6102bfa4053527360211a7b8,61036abe83a9273083c856cf,2021-07-29_22h01.12.158,Simcolourproject_2stim_asymm_v5,2020.2.10,Win32,60,61025ae37ef11b136ea224fe,,,,,,,,,3664,44.10005979,-75.60000756,1,0,0,response3disk,,4,-12.69998989,6.799993664,1,0,0,rectangle,-12.69998989,6.799993664,1,0,0,-12.69998989,6.799993664,1,0,0,1,3,163,70,1,,,,,,,,
,,,,,,,,,,,,,FF,,,,,,,,0.7,,,,,,,,,,,,,,,,,,,,,,6102bfa4053527360211a7b8,61036abe83a9273083c856cf,2021-07-29_22h01.12.158,Simcolourproject_2stim_asymm_v5,2020.2.10,Win32,60,61025ae37ef11b136ea224fe,,,,,,,,,4309,62.10006006,-39.20000702,1,0,0,response3disk,,5,7.700010419,-3.600006491,1,0,0,rectangle,7.700010419,-3.600006491,1,0,0,7.700010419,-3.600006491,1,0,0,1,4,164,97,1,,,,,,,,
,,,,,,,,,,,,,FF,,,,,,,,1.0001,,,,,,,,,,,,,,,,,,,,,,6102bfa4053527360211a7b8,61036abe83a9273083c856cf,2021-07-29_22h01.12.158,Simcolourproject_2stim_asymm_v5,2020.2.10,Win32,60,61025ae37ef11b136ea224fe,,,,,,,,,906,66.10006012,-28.80000687,1,0,0,response3disk,,5,10.50001046,-11.60000661,1,0,0,rectangle,10.50001046,-11.60000661,1,0,0,10.50001046,-11.60000661,1,0,0,1,5,165,98,1,,,,,,,,
,,,,,,,,,,,,,FF,,,,,,,,0.9672,,,,,,,,,,,,,,,,,,,,,,6102bfa4053527360211a7b8,61036abe83a9273083c856cf,2021-07-29_22h01.12.158,Simcolourproject_2stim_asymm_v5,2020.2.10,Win32,60,61025ae37ef11b136ea224fe,,,,,,,,,645,-26.29999009,-84.40000769,1,0,0,response5disk,,3,4.900010377,-5.600006521,1,0,0,rectangle,4.900010377,-5.600006521,1,0,0,4.900010377,-5.600006521,1,0,0,1,6,166,11,1,,,,,,,,
,,,,,,,,,,,,,FF,,,,,,,,0.9165,,,,,,,,,,,,,,,,,,,,,,6102bfa4053527360211a7b8,61036abe83a9273083c856cf,2021-07-29_22h01.12.158,Simcolourproject_2stim_asymm_v5,2020.2.10,Win32,60,61025ae37ef11b136ea224fe,,,,,,,,,301,18.50001058,-62.40000737,1,0,0,response3disk,,4,-4.29998976,2.799993604,1,0,0,rectangle,-4.29998976,2.799993604,1,0,0,-4.29998976,2.799993604,1,0,0,1,7,167,87,1,,,,,,,,
,,,,,,,,,,,,,FF,,,,,,,,0.8996,,,,,,,,,,,,,,,,,,,,,,6102bfa4053527360211a7b8,61036abe83a9273083c856cf,2021-07-29_22h01.12.158,Simcolourproject_2stim_asymm_v5,2020.2.10,Win32,60,61025ae37ef11b136ea224fe,,,,,,,,,2448,52.50001109,-33.60000694,1,0,0,response3disk,,5,19.7000106,-7.600006551,1,0,0,rectangle,19.7000106,-7.600006551,1,0,0,19.7000106,-7.600006551,1,0,0,1,8,168,49,1,,,,,,,,
,,,,,,,,,,,,,FF,,,,,,,,1.6667,,,,,,,,,,,,,,,,,,,,,,6102bfa4053527360211a7b8,61036abe83a9273083c856cf,2021-07-29_22h01.12.158,Simcolourproject_2stim_asymm_v5,2020.2.10,Win32,60,61025ae37ef11b136ea224fe,,,,,,,,,2308,20.10005943,-56.80000728,1,0,0,response3disk,,4,2.500010341,-5.200006515,1,0,0,rectangle,2.500010341,-5.200006515,1,0,0,2.500010341,-5.200006515,1,0,0,1,9,169,79,1,,,,,,,,
,,,,,,,,,,,,,FF,,,,,,,,0.758,,,,,,,,,,,,,,,,,,,,,,6102bfa4053527360211a7b8,61036abe83a9273083c856cf,2021-07-29_22h01.12.158,Simcolourproject_2stim_asymm_v5,2020.2.10,Win32,60,61025ae37ef11b136ea224fe,,,,,,,,,1182,66.9000113,-26.00000682,1,0,0,response3disk,,5,20.90001062,5.19999364,1,0,0,rectangle,20.90001062,5.19999364,1,0,0,20.90001062,5.19999364,1,0,0,1,10,170,59,1,,,,,,,,
,,,,,,,,,,,,,FF,,,,,,,,0.7336,,,,,,,,,,,,,,,,,,,,,,6102bfa4053527360211a7b8,61036abe83a9273083c856cf,2021-07-29_22h01.12.158,Simcolourproject_2stim_asymm_v5,2020.2.10,Win32,60,61025ae37ef11b136ea224fe,,,,,,,,,840,44.90001097,-88.80000776,1,0,0,response3disk,,4,-2.699989736,1.599993587,1,0,0,rectangle,-2.699989736,1.599993587,1,0,0,-2.699989736,1.599993587,1,0,0,1,11,171,107,1,,,,,,,,
,,,,,,,,,,,,,FF,,,,,,,,0.9836,,,,,,,,,,,,,,,,,,,,,,6102bfa4053527360211a7b8,61036abe83a9273083c856cf,2021-07-29_22h01.12.158,Simcolourproject_2stim_asymm_v5,2020.2.10,Win32,60,61025ae37ef11b136ea224fe,,,,,,,,,2088,-55.49999052,-73.20000753,1,0,0,response5disk,,3,5.300010383,-6.400006533,1,0,0,rectangle,5.300010383,-6.400006533,1,0,0,5.300010383,-6.400006533,1,0,0,1,12,172,82,1,,,,,,,,
,,,,,,,,,,,,,FF,,,,,,,,0.7746,,,,,,,,,,,,,,,,,,,,,,6102bfa4053527360211a7b8,61036abe83a9273083c856cf,2021-07-29_22h01.12.158,Simcolourproject_2stim_asymm_v5,2020.2.10,Win32,60,61025ae37ef11b136ea224fe,,,,,,,,,2056,39.30001089,-54.80000725,1,0,0,response3disk,,4,2.500010341,15.5999938,1,0,0,rectangle,2.500010341,15.5999938,1,0,0,2.500010341,15.5999938,1,0,0,1,13,173,117,1,,,,,,,,
,,,,,,,,,,,,,FF,,,,,,,,0.8,,,,,,,,,,,,,,,,,,,,,,6102bfa4053527360211a7b8,61036abe83a9273083c856cf,2021-07-29_22h01.12.158,Simcolourproject_2stim_asymm_v5,2020.2.10,Win32,60,61025ae37ef11b136ea224fe,,,,,,,,,1858,62.50001124,-34.80000696,1,0,0,response3disk,,5,20.50001061,-6.800006539,1,0,0,rectangle,20.50001061,-6.800006539,1,0,0,20.50001061,-6.800006539,1,0,0,1,14,174,37,1,,,,,,,,
,,,,,,,,,,,,,FF,,,,,,,,1.4502,,,,,,,,,,,,,,,,,,,,,,6102bfa4053527360211a7b8,61036abe83a9273083c856cf,2021-07-29_22h01.12.158,Simcolourproject_2stim_asymm_v5,2020.2.10,Win32,60,61025ae37ef11b136ea224fe,,,,,,,,,4150,-57.49999055,-36.40000698,1,0,0,response5disk,,2,13.3000105,13.19999376,1,0,0,rectangle,13.3000105,13.19999376,1,0,0,13.3000105,13.19999376,1,0,0,1,15,175,26,1,,,,,,,,
,,,,,,,,,,,,,FF,,,,,,,,1.1581,,,,,,,,,,,,,,,,,,,,,,6102bfa4053527360211a7b8,61036abe83a9273083c856cf,2021-07-29_22h01.12.158,Simcolourproject_2stim_asymm_v5,2020.2.10,Win32,60,61025ae37ef11b136ea224fe,,,,,,,,,245,-35.49999022,-32.80000693,1,0,0,response5disk,,2,7.700010419,-2.000006467,1,0,0,rectangle,93.7000117,31.99999404,1,0,0,6.500010401,1.599993587,1,0,0,1,16,176,140,1,,response1disk_3,TRUE,6,6,"[102,281,190,139,311,177,111,111,237,64,104,47,59,299,74,67,309,149,36,246]",1.7611,rectangle
,,,,,,,,,,,,,FF,,,,,,,,1.1667,,,,,,,,,,,,,,,,,,,,,,6102bfa4053527360211a7b8,61036abe83a9273083c856cf,2021-07-29_22h01.12.158,Simcolourproject_2stim_asymm_v5,2020.2.10,Win32,60,61025ae37ef11b136ea224fe,,,,,,,,,3476,-39.49999028,-24.4000068,1,0,0,response5disk,,2,10.10005928,6.799993664,1,0,0,rectangle,10.10005928,6.799993664,1,0,0,10.10005928,6.799993664,1,0,0,1,17,177,24,1,,,,,,,,
,,,,,,,,,,,,,FF,,,,,,,,0.7166,,,,,,,,,,,,,,,,,,,,,,6102bfa4053527360211a7b8,61036abe83a9273083c856cf,2021-07-29_22h01.12.158,Simcolourproject_2stim_asymm_v5,2020.2.10,Win32,60,61025ae37ef11b136ea224fe,,,,,,,,,344,32.10005961,-64.4000074,1,0,0,response3disk,,4,7.700010419,-2.400006473,1,0,0,rectangle,7.700010419,-2.400006473,1,0,0,7.700010419,-2.400006473,1,0,0,1,18,178,25,1,,,,,,,,
,,,,,,,,,,,,,FF,,,,,,,,0.9338,,,,,,,,,,,,,,,,,,,,,,6102bfa4053527360211a7b8,61036abe83a9273083c856cf,2021-07-29_22h01.12.158,Simcolourproject_2stim_asymm_v5,2020.2.10,Win32,60,61025ae37ef11b136ea224fe,,,,,,,,,3627,-42.29999033,-60.40000734,1,0,0,response5disk,,3,-6.29998979,-4.400006503,1,0,0,rectangle,-6.29998979,-4.400006503,1,0,0,-6.29998979,-4.400006503,1,0,0,1,19,179,50,1,,,,,,,,
,,,,,,,,,,,,,FF,,,,,,,,0.8502,,,,,,,,,,,,,,,,,,,,,,6102bfa4053527360211a7b8,61036abe83a9273083c856cf,2021-07-29_22h01.12.158,Simcolourproject_2stim_asymm_v5,2020.2.10,Win32,60,61025ae37ef11b136ea224fe,,,,,,,,,1560,20.90001062,-51.2000072,1,0,0,response3disk,,4,-2.29998973,2.399993598,1,0,0,rectangle,-2.29998973,2.399993598,1,0,0,-2.29998973,2.399993598,1,0,0,1,20,180,31,1,,,,,,,,
,,,,,,,,,,,,,FF,,,,,,,,1.2502,,,,,,,,,,,,,,,,,,,,,,6102bfa4053527360211a7b8,61036abe83a9273083c856cf,2021-07-29_22h01.12.158,Simcolourproject_2stim_asymm_v5,2020.2.10,Win32,60,61025ae37ef11b136ea224fe,,,,,,,,,2100,-42.69999033,26.39999396,1,0,0,response7disk,,1,-24.69999006,15.5999938,1,0,0,rectangle,-24.69999006,15.5999938,1,0,0,-24.69999006,15.5999938,1,0,0,1,21,181,80,1,,,,,,,,
,,,,,,,,,,,,,FF,,,,,,,,1.1833,,,,,,,,,,,,,,,,,,,,,,6102bfa4053527360211a7b8,61036abe83a9273083c856cf,2021-07-29_22h01.12.158,Simcolourproject_2stim_asymm_v5,2020.2.10,Win32,60,61025ae37ef11b136ea224fe,,,,,,,,,3585,-59.09999058,-24.80000681,1,0,0,response5disk,,2,-31.09999016,-7.200006545,1,0,0,rectangle,-31.09999016,-7.200006545,1,0,0,-31.09999016,-7.200006545,1,0,0,1,22,182,106,1,,,,,,,,
,,,,,,,,,,,,,FF,,,,,,,,1.7999,,,,,,,,,,,,,,,,,,,,,,6102bfa4053527360211a7b8,61036abe83a9273083c856cf,2021-07-29_22h01.12.158,Simcolourproject_2stim_asymm_v5,2020.2.10,Win32,60,61025ae37ef11b136ea224fe,,,,,,,,,1207,53.3000111,-43.20000708,1,0,0,response3disk,,5,18.1000594,-16.40000668,1,0,0,rectangle,18.1000594,-16.40000668,1,0,0,18.1000594,-16.40000668,1,0,0,1,23,183,94,1,,,,,,,,
,,,,,,,,,,,,,FF,,,,,,,,1.433,,,,,,,,,,,,,,,,,,,,,,6102bfa4053527360211a7b8,61036abe83a9273083c856cf,2021-07-29_22h01.12.158,Simcolourproject_2stim_asymm_v5,2020.2.10,Win32,60,61025ae37ef11b136ea224fe,,,,,,,,,2231,-21.49999002,-68.00000745,1,0,0,response5disk,,3,4.100059193,-9.60000658,1,0,0,rectangle,4.100059193,-9.60000658,1,0,0,4.100059193,-9.60000658,1,0,0,1,24,184,10,1,,,,,,,,
,,,,,,,,,,,,,FF,,,,,,,,2.5166,,,,,,,,,,,,,,,,,,,,,,6102bfa4053527360211a7b8,61036abe83a9273083c856cf,2021-07-29_22h01.12.158,Simcolourproject_2stim_asymm_v5,2020.2.10,Win32,60,61025ae37ef11b136ea224fe,,,,,,,,,2293,24.50001067,-59.20000732,1,0,0,response3disk,,4,12.9000105,-11.60000661,1,0,0,rectangle,12.9000105,-11.60000661,1,0,0,12.9000105,-11.60000661,1,0,0,1,25,185,8,1,,,,,,,,
,,,,,,,,,,,,,FF,,,,,,,,2.0833,,,,,,,,,,,,,,,,,,,,,,6102bfa4053527360211a7b8,61036abe83a9273083c856cf,2021-07-29_22h01.12.158,Simcolourproject_2stim_asymm_v5,2020.2.10,Win32,60,61025ae37ef11b136ea224fe,,,,,,,,,3029,71.70001137,-40.80000705,1,0,0,response3disk,,5,20.90001062,-5.600006521,1,0,0,rectangle,20.90001062,-5.600006521,1,0,0,20.90001062,-5.600006521,1,0,0,1,26,186,109,1,,,,,,,,
,,,,,,,,,,,,,FF,,,,,,,,0.9,,,,,,,,,,,,,,,,,,,,,,6102bfa4053527360211a7b8,61036abe83a9273083c856cf,2021-07-29_22h01.12.158,Simcolourproject_2stim_asymm_v5,2020.2.10,Win32,60,61025ae37ef11b136ea224fe,,,,,,,,,1610,-43.89994152,19.59999385,1,0,0,response7disk,,1,-20.69999,5.599993646,1,0,0,rectangle,-20.69999,5.599993646,1,0,0,-20.69999,5.599993646,1,0,0,1,27,187,89,1,,,,,,,,
,,,,,,,,,,,,,FF,,,,,,,,1.8501,,,,,,,,,,,,,,,,,,,,,,6102bfa4053527360211a7b8,61036abe83a9273083c856cf,2021-07-29_22h01.12.158,Simcolourproject_2stim_asymm_v5,2020.2.10,Win32,60,61025ae37ef11b136ea224fe,,,,,,,,,2757,42.50001094,-15.60000667,1,0,0,response3disk,,5,14.50001052,-1.600006461,1,0,0,rectangle,14.50001052,-1.600006461,1,0,0,14.50001052,-1.600006461,1,0,0,1,28,188,27,1,,,,,,,,
,,,,,,,,,,,,,FF,,,,,,,,0.9335,,,,,,,,,,,,,,,,,,,,,,6102bfa4053527360211a7b8,61036abe83a9273083c856cf,2021-07-29_22h01.12.158,Simcolourproject_2stim_asymm_v5,2020.2.10,Win32,60,61025ae37ef11b136ea224fe,,,,,,,,,1009,68.50001132,-21.20000675,1,0,0,response3disk,,5,20.10005943,-5.600006521,1,0,0,rectangle,-34.69999021,-66.00000742,1,0,0,-8.29998982,-11.60000661,1,0,0,1,29,189,34,1,,response5disk_3,TRUE,3,3,"[102,281,190,139,311,177,111,111,237,64,104,47,59,299,74,67,309,149,36,246]",2.1661,rectangle
,,,,,,,,,,,,,FF,,,,,,,,1.2,,,,,,,,,,,,,,,,,,,,,,6102bfa4053527360211a7b8,61036abe83a9273083c856cf,2021-07-29_22h01.12.158,Simcolourproject_2stim_asymm_v5,2020.2.10,Win32,60,61025ae37ef11b136ea224fe,,,,,,,,,1405,-55.09999052,-39.60000703,1,0,0,response5disk,,2,-3.899940926,0.399993569,1,0,0,rectangle,-3.899940926,0.399993569,1,0,0,-3.899940926,0.399993569,1,0,0,1,30,190,4,1,,,,,,,,
,,,,,,,,,,,,,FF,,,,,,,,0.883,,,,,,,,,,,,,,,,,,,,,,6102bfa4053527360211a7b8,61036abe83a9273083c856cf,2021-07-29_22h01.12.158,Simcolourproject_2stim_asymm_v5,2020.2.10,Win32,60,61025ae37ef11b136ea224fe,,,,,,,,,3313,51.70001107,-28.40000686,1,0,0,response3disk,,5,24.50001067,-8.000006557,1,0,0,rectangle,24.50001067,-8.000006557,1,0,0,24.50001067,-8.000006557,1,0,0,1,31,191,135,1,,,,,,,,
,,,,,,,,,,,,,FF,,,,,,,,1.7,,,,,,,,,,,,,,,,,,,,,,6102bfa4053527360211a7b8,61036abe83a9273083c856cf,2021-07-29_22h01.12.158,Simcolourproject_2stim_asymm_v5,2020.2.10,Win32,60,61025ae37ef11b136ea224fe,,,,,,,,,2981,62.90001124,17.19999382,1,0,0,response1disk,,6,18.90001059,-6.800006539,1,0,0,rectangle,18.90001059,-6.800006539,1,0,0,18.90001059,-6.800006539,1,0,0,1,32,192,157,1,,,,,,,,
,,,,,,,,,,,,,FF,,,,,,,,1.1007,,,,,,,,,,,,,,,,,,,,,,6102bfa4053527360211a7b8,61036abe83a9273083c856cf,2021-07-29_22h01.12.158,Simcolourproject_2stim_asymm_v5,2020.2.10,Win32,60,61025ae37ef11b136ea224fe,,,,,,,,,1022,47.70001101,-63.20000738,1,0,0,response3disk,,4,2.900010347,-2.000006467,1,0,0,rectangle,2.900010347,-2.000006467,1,0,0,2.900010347,-2.000006467,1,0,0,1,33,193,159,1,,,,,,,,
,,,,,,,,,,,,,FF,,,,,,,,1.6083,,,,,,,,,,,,,,,,,,,,,,6102bfa4053527360211a7b8,61036abe83a9273083c856cf,2021-07-29_22h01.12.158,Simcolourproject_2stim_asymm_v5,2020.2.10,Win32,60,61025ae37ef11b136ea224fe,,,,,,,,,2925,16.90001056,-63.60000739,1,0,0,response3disk,,4,2.500010341,4.399993628,1,0,0,rectangle,2.500010341,4.399993628,1,0,0,2.500010341,4.399993628,1,0,0,1,34,194,57,1,,,,,,,,
,,,,,,,,,,,,,FF,,,,,,,,1.2333,,,,,,,,,,,,,,,,,,,,,,6102bfa4053527360211a7b8,61036abe83a9273083c856cf,2021-07-29_22h01.12.158,Simcolourproject_2stim_asymm_v5,2020.2.10,Win32,60,61025ae37ef11b136ea224fe,,,,,,,,,4047,-41.09999031,-52.80000722,1,0,0,response5disk,,3,-8.29998982,-6.000006527,1,0,0,rectangle,-8.29998982,-6.000006527,1,0,0,-8.29998982,-6.000006527,1,0,0,1,35,195,133,1,,,,,,,,
,,,,,,,,,,,,,FF,,,,,,,,1.1169,,,,,,,,,,,,,,,,,,,,,,6102bfa4053527360211a7b8,61036abe83a9273083c856cf,2021-07-29_22h01.12.158,Simcolourproject_2stim_asymm_v5,2020.2.10,Win32,60,61025ae37ef11b136ea224fe,,,,,,,,,1225,-44.69999036,-48.00000715,1,0,0,response5disk,,3,-3.099989742,-3.600006491,1,0,0,rectangle,-3.099989742,-3.600006491,1,0,0,-3.099989742,-3.600006491,1,0,0,1,36,196,48,1,,,,,,,,
,,,,,,,,,,,,,FF,,,,,,,,1.0671,,,,,,,,,,,,,,,,,,,,,,6102bfa4053527360211a7b8,61036abe83a9273083c856cf,2021-07-29_22h01.12.158,Simcolourproject_2stim_asymm_v5,2020.2.10,Win32,60,61025ae37ef11b136ea224fe,,,,,,,,,3549,-33.09999019,-60.40000734,1,0,0,response5disk,,3,8.100059253,-7.200006545,1,0,0,rectangle,8.100059253,-7.200006545,1,0,0,8.100059253,-7.200006545,1,0,0,1,37,197,39,1,,,,,,,,
,,,,,,,,,,,,,FF,,,,,,,,1.9251,,,,,,,,,,,,,,,,,,,,,,6102bfa4053527360211a7b8,61036abe83a9273083c856cf,2021-07-29_22h01.12.158,Simcolourproject_2stim_asymm_v5,2020.2.10,Win32,60,61025ae37ef11b136ea224fe,,,,,,,,,3139,-65.09999067,-25.60000682,1,0,0,response5disk,,2,-4.699989766,4.399993628,1,0,0,rectangle,-4.699989766,4.399993628,1,0,0,-4.699989766,4.399993628,1,0,0,1,38,198,81,1,,,,,,,,
,,,,,,,,,,,,,FF,,,,,,,,1.0839,,,,,,,,,,,,,,,,,,,,,,6102bfa4053527360211a7b8,61036abe83a9273083c856cf,2021-07-29_22h01.12.158,Simcolourproject_2stim_asymm_v5,2020.2.10,Win32,60,61025ae37ef11b136ea224fe,,,,,,,,,186,-57.49999055,24.79999393,1,0,0,response7disk,,1,-23.89994122,11.19999373,1,0,0,rectangle,-23.89994122,11.19999373,1,0,0,-23.89994122,11.19999373,1,0,0,1,39,199,41,1,,,,,,,,
,,,,,,,,,,,,,FF,,,,,,,,0.817,,,,,,,,,,,,,,,,,,,,,,6102bfa4053527360211a7b8,61036abe83a9273083c856cf,2021-07-29_22h01.12.158,Simcolourproject_2stim_asymm_v5,2020.2.10,Win32,60,61025ae37ef11b136ea224fe,,,,,,,,,2561,24.90001068,-54.00000724,1,0,0,response3disk,,4,10.50001046,-6.800006539,1,0,0,rectangle,10.50001046,-6.800006539,1,0,0,10.50001046,-6.800006539,1,0,0,1,40,200,105,1,,,,,,,,
,,,,,,,,,,,,,FF,,,,,,,,0.9669,,,,,,,,,,,,,,,,,,,,,,6102bfa4053527360211a7b8,61036abe83a9273083c856cf,2021-07-29_22h01.12.158,Simcolourproject_2stim_asymm_v5,2020.2.10,Win32,60,61025ae37ef11b136ea224fe,,,,,,,,,339,78.90001148,-38.40000701,1,0,0,response3disk,,5,14.90001053,4.799993634,1,0,0,rectangle,14.90001053,4.799993634,1,0,0,14.90001053,4.799993634,1,0,0,1,41,201,84,1,,,,,,,,
,,,,,,,,,,,,,FF,,,,,,,,1.0339,,,,,,,,,,,,,,,,,,,,,,6102bfa4053527360211a7b8,61036abe83a9273083c856cf,2021-07-29_22h01.12.158,Simcolourproject_2stim_asymm_v5,2020.2.10,Win32,60,61025ae37ef11b136ea224fe,,,,,,,,,1942,43.70001096,-75.60000756,1,0,0,response3disk,,4,-0.699989706,-6.000006527,1,0,0,rectangle,-0.699989706,-6.000006527,1,0,0,-0.699989706,-6.000006527,1,0,0,1,42,202,64,1,,,,,,,,
,,,,,,,,,,,,,FF,,,,,,,,0.7666,,,,,,,,,,,,,,,,,,,,,,6102bfa4053527360211a7b8,61036abe83a9273083c856cf,2021-07-29_22h01.12.158,Simcolourproject_2stim_asymm_v5,2020.2.10,Win32,60,61025ae37ef11b136ea224fe,,,,,,,,,3653,62.90001124,38.39999413,1,0,0,response1disk,,6,7.300010413,-7.600006551,1,0,0,rectangle,7.300010413,-7.600006551,1,0,0,7.300010413,-7.600006551,1,0,0,1,43,203,1,1,,,,,,,,
,,,,,,,,,,,,,FF,,,,,,,,1.3172,,,,,,,,,,,,,,,,,,,,,,6102bfa4053527360211a7b8,61036abe83a9273083c856cf,2021-07-29_22h01.12.158,Simcolourproject_2stim_asymm_v5,2020.2.10,Win32,60,61025ae37ef11b136ea224fe,,,,,,,,,1138,-45.09999037,43.59999421,1,0,0,response7disk,,1,-3.499989748,1.199993581,1,0,0,rectangle,-3.499989748,1.199993581,1,0,0,-3.499989748,1.199993581,1,0,0,1,44,204,152,1,,,,,,,,
,,,,,,,,,,,,,FF,,,,,,,,1.3331,,,,,,,,,,,,,,,,,,,,,,6102bfa4053527360211a7b8,61036abe83a9273083c856cf,2021-07-29_22h01.12.158,Simcolourproject_2stim_asymm_v5,2020.2.10,Win32,60,61025ae37ef11b136ea224fe,,,,,,,,,3891,-75.49999082,-42.00000706,1,0,0,response5disk,,2,-17.49998996,-8.400006562,1,0,0,rectangle,-17.49998996,-8.400006562,1,0,0,-17.49998996,-8.400006562,1,0,0,1,45,205,78,1,,,,,,,,
,,,,,,,,,,,,,FF,,,,,,,,0.8009,,,,,,,,,,,,,,,,,,,,,,6102bfa4053527360211a7b8,61036abe83a9273083c856cf,2021-07-29_22h01.12.158,Simcolourproject_2stim_asymm_v5,2020.2.10,Win32,60,61025ae37ef11b136ea224fe,,,,,,,,,78,-52.69999048,-26.00000682,1,0,0,response5disk,,2,-9.099989831,1.999993593,1,0,0,rectangle,-9.099989831,1.999993593,1,0,0,-9.099989831,1.999993593,1,0,0,1,46,206,17,1,,,,,,,,
,,,,,,,,,,,,,FF,,,,,,,,0.9169,,,,,,,,,,,,,,,,,,,,,,6102bfa4053527360211a7b8,61036abe83a9273083c856cf,2021-07-29_22h01.12.158,Simcolourproject_2stim_asymm_v5,2020.2.10,Win32,60,61025ae37ef11b136ea224fe,,,,,,,,,2398,-30.69999015,-57.20000729,1,0,0,response5disk,,3,2.100059164,-6.000006527,1,0,0,rectangle,2.100059164,-6.000006527,1,0,0,2.100059164,-6.000006527,1,0,0,1,47,207,69,1,,,,,,,,
,,,,,,,,,,,,,FF,,,,,,,,1.1331,,,,,,,,,,,,,,,,,,,,,,6102bfa4053527360211a7b8,61036abe83a9273083c856cf,2021-07-29_22h01.12.158,Simcolourproject_2stim_asymm_v5,2020.2.10,Win32,60,61025ae37ef11b136ea224fe,,,,,,,,,3616,-73.49999079,-41.60000706,1,0,0,response5disk,,2,-13.89994107,-8.400006562,1,0,0,rectangle,-13.89994107,-8.400006562,1,0,0,-13.89994107,-8.400006562,1,0,0,1,48,208,56,1,,,,,,,,
,,,,,,,,,,,,,FF,,,,,,,,2.3836,,,,,,,,,,,,,,,,,,,,,,6102bfa4053527360211a7b8,61036abe83a9273083c856cf,2021-07-29_22h01.12.158,Simcolourproject_2stim_asymm_v5,2020.2.10,Win32,60,61025ae37ef11b136ea224fe,,,,,,,,,1274,-28.69999012,-76.00000757,1,0,0,response5disk,,3,0.100059134,-11.2000066,1,0,0,rectangle,0.100059134,-11.2000066,1,0,0,0.100059134,-11.2000066,1,0,0,1,49,209,6,1,,,,,,,,
,,,,,,,,,,,,,FF,,,,,,,,1.0838,,,,,,,,,,,,,,,,,,,,,,6102bfa4053527360211a7b8,61036abe83a9273083c856cf,2021-07-29_22h01.12.158,Simcolourproject_2stim_asymm_v5,2020.2.10,Win32,60,61025ae37ef11b136ea224fe,,,,,,,,,3699,-28.29999012,-57.20000729,1,0,0,response5disk,,3,-2.29998973,-6.400006533,1,0,0,rectangle,-2.29998973,-6.400006533,1,0,0,-2.29998973,-6.400006533,1,0,0,1,50,210,142,1,,,,,,,,
,,,,,,,,,,,,,FF,,,,,,,,0.9004,,,,,,,,,,,,,,,,,,,,,,6102bfa4053527360211a7b8,61036abe83a9273083c856cf,2021-07-29_22h01.12.158,Simcolourproject_2stim_asymm_v5,2020.2.10,Win32,60,61025ae37ef11b136ea224fe,,,,,,,,,3909,-62.29999062,-28.00000685,1,0,0,response5disk,,2,-15.09998992,-0.800006449,1,0,0,rectangle,-15.09998992,-0.800006449,1,0,0,-15.09998992,-0.800006449,1,0,0,1,51,211,86,1,,,,,,,,
,,,,,,,,,,,,,FF,,,,,,,,1.0333,,,,,,,,,,,,,,,,,,,,,,6102bfa4053527360211a7b8,61036abe83a9273083c856cf,2021-07-29_22h01.12.158,Simcolourproject_2stim_asymm_v5,2020.2.10,Win32,60,61025ae37ef11b136ea224fe,,,,,,,,,3321,15.70001054,-74.00000754,1,0,0,response3disk,,4,9.700010449,-11.60000661,1,0,0,rectangle,9.700010449,-11.60000661,1,0,0,9.700010449,-11.60000661,1,0,0,1,52,212,75,1,,,,,,,,
,,,,,,,,,,,,,FF,,,,,,,,1.4668,,,,,,,,,,,,,,,,,,,,,,6102bfa4053527360211a7b8,61036abe83a9273083c856cf,2021-07-29_22h01.12.158,Simcolourproject_2stim_asymm_v5,2020.2.10,Win32,60,61025ae37ef11b136ea224fe,,,,,,,,,667,-18.29998997,-50.80000719,1,0,0,response5disk,,3,2.900010347,-4.800006509,1,0,0,rectangle,2.900010347,-4.800006509,1,0,0,2.900010347,-4.800006509,1,0,0,1,53,213,45,1,,,,,,,,
,,,,,,,,,,,,,FF,,,,,,,,1.7334,,,,,,,,,,,,,,,,,,,,,,6102bfa4053527360211a7b8,61036abe83a9273083c856cf,2021-07-29_22h01.12.158,Simcolourproject_2stim_asymm_v5,2020.2.10,Win32,60,61025ae37ef11b136ea224fe,,,,,,,,,4293,-65.89994185,33.19996964,1,0,0,response7disk,,1,-16.69998994,5.19999364,1,0,0,rectangle,-16.69998994,5.19999364,1,0,0,-16.69998994,5.19999364,1,0,0,1,54,214,93,1,,,,,,,,
,,,,,,,,,,,,,FF,,,,,,,,1.1669,,,,,,,,,,,,,,,,,,,,,,6102bfa4053527360211a7b8,61036abe83a9273083c856cf,2021-07-29_22h01.12.158,Simcolourproject_2stim_asymm_v5,2020.2.10,Win32,60,61025ae37ef11b136ea224fe,,,,,,,,,2192,41.70001093,-77.20000759,1,0,0,response3disk,,4,1.700010329,-4.800006509,1,0,0,rectangle,1.700010329,-4.800006509,1,0,0,1.700010329,-4.800006509,1,0,0,1,55,215,156,1,,,,,,,,
,,,,,,,,,,,,,FF,,,,,,,,0.8503,,,,,,,,,,,,,,,,,,,,,,6102bfa4053527360211a7b8,61036abe83a9273083c856cf,2021-07-29_22h01.12.158,Simcolourproject_2stim_asymm_v5,2020.2.10,Win32,60,61025ae37ef11b136ea224fe,,,,,,,,,3724,92.1000605,-39.20000702,1,0,0,response3disk,,5,21.30001062,0.799993575,1,0,0,rectangle,21.30001062,0.799993575,1,0,0,21.30001062,0.799993575,1,0,0,1,56,216,103,1,,,,,,,,
,,,,,,,,,,,,,FF,,,,,,,,0.968,,,,,,,,,,,,,,,,,,,,,,6102bfa4053527360211a7b8,61036abe83a9273083c856cf,2021-07-29_22h01.12.158,Simcolourproject_2stim_asymm_v5,2020.2.10,Win32,60,61025ae37ef11b136ea224fe,,,,,,,,,4275,25.30001068,-63.60000739,1,0,0,response3disk,,4,5.300010383,-1.200006455,1,0,0,rectangle,5.300010383,-1.200006455,1,0,0,5.300010383,-1.200006455,1,0,0,1,57,217,131,1,,,,,,,,
,,,,,,,,,,,,,FF,,,,,,,,0.8171,,,,,,,,,,,,,,,,,,,,,,6102bfa4053527360211a7b8,61036abe83a9273083c856cf,2021-07-29_22h01.12.158,Simcolourproject_2stim_asymm_v5,2020.2.10,Win32,60,61025ae37ef11b136ea224fe,,,,,,,,,1252,50.90001106,-30.40000689,1,0,0,response3disk,,5,14.50001052,3.999993622,1,0,0,rectangle,14.50001052,3.999993622,1,0,0,14.50001052,3.999993622,1,0,0,1,58,218,141,1,,,,,,,,
,,,,,,,,,,,,,FF,,,,,,,,1.1336,,,,,,,,,,,,,,,,,,,,,,6102bfa4053527360211a7b8,61036abe83a9273083c856cf,2021-07-29_22h01.12.158,Simcolourproject_2stim_asymm_v5,2020.2.10,Win32,60,61025ae37ef11b136ea224fe,,,,,,,,,1262,-33.09999019,-55.20000726,1,0,0,response5disk,,3,-0.699989706,-6.000006527,1,0,0,rectangle,-0.699989706,-6.000006527,1,0,0,-0.699989706,-6.000006527,1,0,0,1,59,219,126,1,,,,,,,,
,,,,,,,,,,,,,FF,,,,,,,,1.4166,,,,,,,,,,,,,,,,,,,,,,6102bfa4053527360211a7b8,61036abe83a9273083c856cf,2021-07-29_22h01.12.158,Simcolourproject_2stim_asymm_v5,2020.2.10,Win32,60,61025ae37ef11b136ea224fe,,,,,,,,,3777,-59.09999058,-24.00000679,1,0,0,response5disk,,2,-23.09999004,1.999993593,1,0,0,rectangle,-23.09999004,1.999993593,1,0,0,-23.09999004,1.999993593,1,0,0,1,60,220,30,1,,,,,,,,
,,,,,,,,,,,,,FF,,,,,,,,1.7505,,,,,,,,,,,,,,,,,,,,,,6102bfa4053527360211a7b8,61036abe83a9273083c856cf,2021-07-29_22h01.12.158,Simcolourproject_2stim_asymm_v5,2020.2.10,Win32,60,61025ae37ef11b136ea224fe,,,,,,,,,3859,17.30001056,-76.00000757,1,0,0,response3disk,,4,7.700010419,-6.000006527,1,0,0,rectangle,7.700010419,-6.000006527,1,0,0,7.700010419,-6.000006527,1,0,0,1,61,221,90,1,,,,,,,,
,,,,,,,,,,,,,FF,,,,,,,,0.8668,,,,,,,,,,,,,,,,,,,,,,6102bfa4053527360211a7b8,61036abe83a9273083c856cf,2021-07-29_22h01.12.158,Simcolourproject_2stim_asymm_v5,2020.2.10,Win32,60,61025ae37ef11b136ea224fe,,,,,,,,,1709,76.90001145,-36.80000699,1,0,0,response3disk,,5,17.30001056,-0.400006443,1,0,0,rectangle,17.30001056,-0.400006443,1,0,0,17.30001056,-0.400006443,1,0,0,1,62,222,9,1,,,,,,,,
,,,,,,,,,,,,,FF,,,,,,,,1.0364,,,,,,,,,,,,,,,,,,,,,,6102bfa4053527360211a7b8,61036abe83a9273083c856cf,2021-07-29_22h01.12.158,Simcolourproject_2stim_asymm_v5,2020.2.10,Win32,60,61025ae37ef11b136ea224fe,,,,,,,,,162,-47.4999904,-63.60000739,1,0,0,response5disk,,3,-11.49998987,0.799993575,1,0,0,rectangle,-11.49998987,0.799993575,1,0,0,-11.49998987,0.799993575,1,0,0,1,63,223,29,1,,,,,,,,
,,,,,,,,,,,,,FF,,,,,,,,0.9665,,,,,,,,,,,,,,,,,,,,,,6102bfa4053527360211a7b8,61036abe83a9273083c856cf,2021-07-29_22h01.12.158,Simcolourproject_2stim_asymm_v5,2020.2.10,Win32,60,61025ae37ef11b136ea224fe,,,,,,,,,42,-39.89994146,-55.20000726,1,0,0,response5disk,,3,-6.29998979,-2.000006467,1,0,0,rectangle,-6.29998979,-2.000006467,1,0,0,-6.29998979,-2.000006467,1,0,0,1,64,224,77,1,,,,,,,,
,,,,,,,,,,,,,FF,,,,,,,,0.9337,,,,,,,,,,,,,,,,,,,,,,6102bfa4053527360211a7b8,61036abe83a9273083c856cf,2021-07-29_22h01.12.158,Simcolourproject_2stim_asymm_v5,2020.2.10,Win32,60,61025ae37ef11b136ea224fe,,,,,,,,,3280,26.9000107,-58.40000731,1,0,0,response3disk,,4,0.500010312,-14.00000665,1,0,0,rectangle,0.500010312,-14.00000665,1,0,0,0.500010312,-14.00000665,1,0,0,1,65,225,138,1,,,,,,,,
,,,,,,,,,,,,,FF,,,,,,,,0.734,,,,,,,,,,,,,,,,,,,,,,6102bfa4053527360211a7b8,61036abe83a9273083c856cf,2021-07-29_22h01.12.158,Simcolourproject_2stim_asymm_v5,2020.2.10,Win32,60,61025ae37ef11b136ea224fe,,,,,,,,,2468,53.7000111,-27.60000685,1,0,0,response3disk,,5,13.3000105,-7.600006551,1,0,0,rectangle,13.3000105,-7.600006551,1,0,0,13.3000105,-7.600006551,1,0,0,1,66,226,16,1,,,,,,,,
,,,,,,,,,,,,,FF,,,,,,,,1.1,,,,,,,,,,,,,,,,,,,,,,6102bfa4053527360211a7b8,61036abe83a9273083c856cf,2021-07-29_22h01.12.158,Simcolourproject_2stim_asymm_v5,2020.2.10,Win32,60,61025ae37ef11b136ea224fe,,,,,,,,,1586,-51.09999046,20.79999387,1,0,0,response7disk,,1,-20.69999,5.999993652,1,0,0,rectangle,-20.69999,5.999993652,1,0,0,-20.69999,5.999993652,1,0,0,1,67,227,95,1,,,,,,,,
,,,,,,,,,,,,,FF,,,,,,,,1.2502,,,,,,,,,,,,,,,,,,,,,,6102bfa4053527360211a7b8,61036abe83a9273083c856cf,2021-07-29_22h01.12.158,Simcolourproject_2stim_asymm_v5,2020.2.10,Win32,60,61025ae37ef11b136ea224fe,,,,,,,,,928,-44.29999036,-54.00000724,1,0,0,response5disk,,3,-3.899940926,-1.600006461,1,0,0,rectangle,-3.899940926,-1.600006461,1,0,0,-3.899940926,-1.600006461,1,0,0,1,68,228,14,1,,,,,,,,
,,,,,,,,,,,,,FF,,,,,,,,1.5168,,,,,,,,,,,,,,,,,,,,,,6102bfa4053527360211a7b8,61036abe83a9273083c856cf,2021-07-29_22h01.12.158,Simcolourproject_2stim_asymm_v5,2020.2.10,Win32,60,61025ae37ef11b136ea224fe,,,,,,,,,2962,25.30001068,-61.60000736,1,0,0,response3disk,,4,9.700010449,-14.80000666,1,0,0,rectangle,9.700010449,-14.80000666,1,0,0,9.700010449,-14.80000666,1,0,0,1,69,229,28,1,,,,,,,,
,,,,,,,,,,,,,FF,,,,,,,,0.7587,,,,,,,,,,,,,,,,,,,,,,6102bfa4053527360211a7b8,61036abe83a9273083c856cf,2021-07-29_22h01.12.158,Simcolourproject_2stim_asymm_v5,2020.2.10,Win32,60,61025ae37ef11b136ea224fe,,,,,,,,,145,31.30001077,-40.00000703,1,0,0,response3disk,,4,11.70001048,-5.200006515,1,0,0,rectangle,11.70001048,-5.200006515,1,0,0,11.70001048,-5.200006515,1,0,0,1,70,230,137,1,,,,,,,,
,,,,,,,,,,,,,FF,,,,,,,,0.7666,,,,,,,,,,,,,,,,,,,,,,6102bfa4053527360211a7b8,61036abe83a9273083c856cf,2021-07-29_22h01.12.158,Simcolourproject_2stim_asymm_v5,2020.2.10,Win32,60,61025ae37ef11b136ea224fe,,,,,,,,,25,46.500011,-29.20000687,1,0,0,response3disk,,5,11.70001048,4.799993634,1,0,0,rectangle,11.70001048,4.799993634,1,0,0,11.70001048,4.799993634,1,0,0,1,71,231,124,1,,,,,,,,
,,,,,,,,,,,,,FF,,,,,,,,0.9,,,,,,,,,,,,,,,,,,,,,,6102bfa4053527360211a7b8,61036abe83a9273083c856cf,2021-07-29_22h01.12.158,Simcolourproject_2stim_asymm_v5,2020.2.10,Win32,60,61025ae37ef11b136ea224fe,,,,,,,,,4188,34.90001082,-48.00000715,1,0,0,response3disk,,4,12.9000105,-6.400006533,1,0,0,rectangle,12.9000105,-6.400006533,1,0,0,12.9000105,-6.400006533,1,0,0,1,72,232,18,1,,,,,,,,
,,,,,,,,,,,,,FF,,,,,,,,0.9004,,,,,,,,,,,,,,,,,,,,,,6102bfa4053527360211a7b8,61036abe83a9273083c856cf,2021-07-29_22h01.12.158,Simcolourproject_2stim_asymm_v5,2020.2.10,Win32,60,61025ae37ef11b136ea224fe,,,,,,,,,309,58.50001118,-26.00000682,1,0,0,response3disk,,5,18.1000594,-4.800006509,1,0,0,rectangle,18.1000594,-4.800006509,1,0,0,18.1000594,-4.800006509,1,0,0,1,73,233,51,1,,,,,,,,
,,,,,,,,,,,,,FF,,,,,,,,1.3503,,,,,,,,,,,,,,,,,,,,,,6102bfa4053527360211a7b8,61036abe83a9273083c856cf,2021-07-29_22h01.12.158,Simcolourproject_2stim_asymm_v5,2020.2.10,Win32,60,61025ae37ef11b136ea224fe,,,,,,,,,632,-53.49999049,-24.4000068,1,0,0,response5disk,,2,-1.099989712,10.39999372,1,0,0,rectangle,-1.099989712,10.39999372,1,0,0,-1.099989712,10.39999372,1,0,0,1,74,234,136,1,,,,,,,,
,,,,,,,,,,,,,FF,,,,,,,,2.3839,,,,,,,,,,,,,,,,,,,,,,6102bfa4053527360211a7b8,61036abe83a9273083c856cf,2021-07-29_22h01.12.158,Simcolourproject_2stim_asymm_v5,2020.2.10,Win32,60,61025ae37ef11b136ea224fe,,,,,,,,,1866,31.30001077,-63.20000738,1,0,0,response3disk,,4,4.500010371,5.999993652,1,0,0,rectangle,4.500010371,5.999993652,1,0,0,4.500010371,5.999993652,1,0,0,1,75,235,108,1,,,,,,,,
,,,,,,,,,,,,,FF,,,,,,,,0.8167,,,,,,,,,,,,,,,,,,,,,,6102bfa4053527360211a7b8,61036abe83a9273083c856cf,2021-07-29_22h01.12.158,Simcolourproject_2stim_asymm_v5,2020.2.10,Win32,60,61025ae37ef11b136ea224fe,,,,,,,,,3793,69.70001134,-30.40000689,1,0,0,response3disk,,5,30.10005958,-6.4373E-06,1,0,0,rectangle,27.30001071,-88.00000775,1,0,0,4.500010371,-15.20000666,1,0,0,1,76,236,38,1,,response3disk_3,TRUE,4,4,"[102,281,190,139,311,177,111,111,237,64,104,47,59,299,74,67,309,149,36,246]",1.5508,rectangle
,,,,,,,,,,,,,FF,,,,,,,,0.8171,,,,,,,,,,,,,,,,,,,,,,6102bfa4053527360211a7b8,61036abe83a9273083c856cf,2021-07-29_22h01.12.158,Simcolourproject_2stim_asymm_v5,2020.2.10,Win32,60,61025ae37ef11b136ea224fe,,,,,,,,,4,22.50001064,-61.20000735,1,0,0,response3disk,,4,5.700010389,-2.800006479,1,0,0,rectangle,5.700010389,-2.800006479,1,0,0,5.700010389,-2.800006479,1,0,0,1,77,237,151,1,,,,,,,,
,,,,,,,,,,,,,FF,,,,,,,,0.9502,,,,,,,,,,,,,,,,,,,,,,6102bfa4053527360211a7b8,61036abe83a9273083c856cf,2021-07-29_22h01.12.158,Simcolourproject_2stim_asymm_v5,2020.2.10,Win32,60,61025ae37ef11b136ea224fe,,,,,,,,,1984,39.7000109,-57.6000073,1,0,0,response3disk,,4,10.90001047,2.399993598,1,0,0,rectangle,10.90001047,2.399993598,1,0,0,10.90001047,2.399993598,1,0,0,1,78,238,129,1,,,,,,,,
,,,,,,,,,,,,,FF,,,,,,,,0.9672,,,,,,,,,,,,,,,,,,,,,,6102bfa4053527360211a7b8,61036abe83a9273083c856cf,2021-07-29_22h01.12.158,Simcolourproject_2stim_asymm_v5,2020.2.10,Win32,60,61025ae37ef11b136ea224fe,,,,,,,,,2104,-29.49999014,-65.20000741,1,0,0,response5disk,,3,3.300010353,-2.000006467,1,0,0,rectangle,3.300010353,-2.000006467,1,0,0,3.300010353,-2.000006467,1,0,0,1,79,239,139,1,,,,,,,,
,,,,,,,,,,,,,FF,,,,,,,,1.3666,,,,,,,,,,,,,,,,,,,,,,6102bfa4053527360211a7b8,61036abe83a9273083c856cf,2021-07-29_22h01.12.158,Simcolourproject_2stim_asymm_v5,2020.2.10,Win32,60,61025ae37ef11b136ea224fe,,,,,,,,,1059,32.10005961,-43.20000708,1,0,0,response3disk,,4,4.500010371,-6.4373E-06,1,0,0,rectangle,4.500010371,-6.4373E-06,1,0,0,4.500010371,-6.4373E-06,1,0,0,1,80,240,118,1,,,,,,,,
,,,,,,,,,,,,,FF,,,,,,,,1.1166,,,,,,,,,,,,,,,,,,,,,,6102bfa4053527360211a7b8,61036abe83a9273083c856cf,2021-07-29_22h01.12.158,Simcolourproject_2stim_asymm_v5,2020.2.10,Win32,60,61025ae37ef11b136ea224fe,,,,,,,,,475,-26.29999009,-72.80000752,1,0,0,response5disk,,3,9.300010443,-1.600006461,1,0,0,rectangle,9.300010443,-1.600006461,1,0,0,9.300010443,-1.600006461,1,0,0,1,81,241,15,1,,,,,,,,
,,,,,,,,,,,,,FF,,,,,,,,1.0077,,,,,,,,,,,,,,,,,,,,,,6102bfa4053527360211a7b8,61036abe83a9273083c856cf,2021-07-29_22h01.12.158,Simcolourproject_2stim_asymm_v5,2020.2.10,Win32,60,61025ae37ef11b136ea224fe,,,,,,,,,3432,-55.8999417,-30.00000688,1,0,0,response5disk,,2,-26.29999009,-8.800006568,1,0,0,rectangle,-26.29999009,-8.800006568,1,0,0,-26.29999009,-8.800006568,1,0,0,1,82,242,158,1,,,,,,,,
,,,,,,,,,,,,,FF,,,,,,,,0.8839,,,,,,,,,,,,,,,,,,,,,,6102bfa4053527360211a7b8,61036abe83a9273083c856cf,2021-07-29_22h01.12.158,Simcolourproject_2stim_asymm_v5,2020.2.10,Win32,60,61025ae37ef11b136ea224fe,,,,,,,,,3640,37.70001087,-63.60000739,1,0,0,response3disk,,4,2.500010341,-6.4373E-06,1,0,0,rectangle,2.500010341,-6.4373E-06,1,0,0,2.500010341,-6.4373E-06,1,0,0,1,83,243,23,1,,,,,,,,
