key_resp.keys,key_resp.rt,key_resp_14.keys,key_resp_14.rt,key_resp_15.keys,key_resp_15.rt,key_resp_17.keys,key_resp_17.rt,key_resp_9.keys,key_resp_9.rt,key_resp_10.keys,key_resp_10.rt,practice_comparison,Ecc,mouse_5.x,mouse_5.y,mouse_5.leftButton,mouse_5.midButton,mouse_5.rightButton,mouse_5.clicked_name,pracsimilarity,response_time,mouse_10.x,mouse_10.y,mouse_10.leftButton,mouse_10.midButton,mouse_10.rightButton,mouse_10.clicked_name,mouse_7.x,mouse_7.y,mouse_7.leftButton,mouse_7.midButton,mouse_7.rightButton,mouse_6.x,mouse_6.y,mouse_6.leftButton,mouse_6.midButton,mouse_6.rightButton,duringprac.thisRepN,duringprac.thisTrialN,duringprac.thisN,duringprac.thisIndex,duringprac.ran,participant,session,date,expName,psychopyVersion,OS,frameRate,study_id,mouse_7.clicked_name,catchpracsimilarity,catch_response_time,catchnumberprac,catchtrialorderprac,mouse_6.clicked_name,key_resp_22.keys,key_resp_22.rt,realcomparison,mouse.x,mouse.y,mouse.leftButton,mouse.midButton,mouse.rightButton,mouse.clicked_name,Colour2,similarity,mouse_2.x,mouse_2.y,mouse_2.leftButton,mouse_2.midButton,mouse_2.rightButton,mouse_2.clicked_name,mouse_3.x,mouse_3.y,mouse_3.leftButton,mouse_3.midButton,mouse_3.rightButton,mouse_11.x,mouse_11.y,mouse_11.leftButton,mouse_11.midButton,mouse_11.rightButton,trials_2.thisRepN,trials_2.thisTrialN,trials_2.thisN,trials_2.thisIndex,trials_2.ran,Colour1,mouse_3.clicked_name,catchornah,catchsimilarity,catchnumber,catchtrialorder,catchRT,mouse_11.clicked_name
space,1.3343,space,14.3285,space,21.3142,space,3.9484,space,18.9015,space,1.767,110,PF,29.00001994,-87.66668001,1,0,0,response3disk_5,4,7.2864,1.000019103,1.999989331,1,0,0,rectangle_8,1.000019103,1.999989331,1,0,0,1.000019103,1.999989331,1,0,0,0,0,0,4,1,6102990f8b3b06f480d1ae4d,61036c85c47011d51cdbae6e,2021-07-29_22h11.09.236,Simcolourproject_2stim_asymm_v5,2020.2.10,Win32,60,61025ae37ef11b136ea224fe,,,,,,,,,,,,,,,,,,,,,,,,,,,,,,,,,,,,,,,,,,,,,,
,,,,,,,,,,,,123,PF,106.0000222,42.33330352,1,0,0,response1disk_5,6,4.5172,6.000019252,9.333322883,1,0,0,rectangle_8,37.00002018,-91.66668013,1,0,0,10.3333934,7.99998951,1,0,0,0,1,1,1,1,6102990f8b3b06f480d1ae4d,61036c85c47011d51cdbae6e,2021-07-29_22h11.09.236,Simcolourproject_2stim_asymm_v5,2020.2.10,Win32,60,61025ae37ef11b136ea224fe,response3disk_7,4,2.9626,4,"[2,5]",rectangle_4,,,,,,,,,,,,,,,,,,,,,,,,,,,,,,,,,,,,,,,,
,,,,,,,,,,,,122,FF,-56.99998263,-68.00001276,1,0,0,response5disk_5,3,3.2496,-7.333314478,2.333322674,1,0,0,rectangle_8,-7.333314478,2.333322674,1,0,0,-7.333314478,2.333322674,1,0,0,0,2,2,3,1,6102990f8b3b06f480d1ae4d,61036c85c47011d51cdbae6e,2021-07-29_22h11.09.236,Simcolourproject_2stim_asymm_v5,2020.2.10,Win32,60,61025ae37ef11b136ea224fe,,,,,,,,,,,,,,,,,,,,,,,,,,,,,,,,,,,,,,,,,,,,,,
,,,,,,,,,,,,113,FF,64.33335432,57.999991,1,0,0,response1disk_5,6,2.4029,11.33339343,-6.000010908,1,0,0,rectangle_8,11.33339343,-6.000010908,1,0,0,11.33339343,-6.000010908,1,0,0,0,3,3,0,1,6102990f8b3b06f480d1ae4d,61036c85c47011d51cdbae6e,2021-07-29_22h11.09.236,Simcolourproject_2stim_asymm_v5,2020.2.10,Win32,60,61025ae37ef11b136ea224fe,,,,,,,,,,,,,,,,,,,,,,,,,,,,,,,,,,,,,,,,,,,,,,
,,,,,,,,,,,,54,FF,94.33335522,47.66665736,1,0,0,response1disk_5,6,1.4494,9.000019342,1.333322644,1,0,0,rectangle_8,42.00002033,-99.33334702,1,0,0,3.666685849,5.666656107,1,0,0,0,4,4,5,1,6102990f8b3b06f480d1ae4d,61036c85c47011d51cdbae6e,2021-07-29_22h11.09.236,Simcolourproject_2stim_asymm_v5,2020.2.10,Win32,60,61025ae37ef11b136ea224fe,response3disk_7,4,1.9159,4,"[2,5]",rectangle_4,,,,,,,,,,,,,,,,,,,,,,,,,,,,,,,,,,,,,,,,
,,,,,,,,,,,,84,PF,-46.33331564,-71.00001284,1,0,0,response5disk_5,3,1.8499,9.000019342,0.666655958,1,0,0,rectangle_8,9.000019342,0.666655958,1,0,0,9.000019342,0.666655958,1,0,0,0,5,5,6,1,6102990f8b3b06f480d1ae4d,61036c85c47011d51cdbae6e,2021-07-29_22h11.09.236,Simcolourproject_2stim_asymm_v5,2020.2.10,Win32,60,61025ae37ef11b136ea224fe,,,,,,,,,,,,,,,,,,,,,,,,,,,,,,,,,,,,,,,,,,,,,,
,,,,,,,,,,,,57,PF,79.33335477,-16.33334455,1,0,0,response3disk_5,5,1.3997,6.000019252,6.99998948,1,0,0,rectangle_8,6.000019252,6.99998948,1,0,0,6.000019252,6.99998948,1,0,0,0,6,6,2,1,6102990f8b3b06f480d1ae4d,61036c85c47011d51cdbae6e,2021-07-29_22h11.09.236,Simcolourproject_2stim_asymm_v5,2020.2.10,Win32,60,61025ae37ef11b136ea224fe,,,,,,,,,,,,,,,,,,,,,,,,,,,,,,,,,,,,,,,,,,,,,,
,,,,,,,,,,,,,FF,,,,,,,,2.2326,,,,,,,,,,,,,,,,,,,,,,6102990f8b3b06f480d1ae4d,61036c85c47011d51cdbae6e,2021-07-29_22h11.09.236,Simcolourproject_2stim_asymm_v5,2020.2.10,Win32,60,61025ae37ef11b136ea224fe,,,,,,,space,2.2834,1213,-67.99998295,-33.00001171,1,0,0,response5disk,,2,-8.999981195,9.999989569,1,0,0,rectangle,-8.999981195,9.999989569,1,0,0,-8.999981195,9.999989569,1,0,0,0,0,0,116,1,,,,,,,,
,,,,,,,,,,,,,FF,,,,,,,,2.1662,,,,,,,,,,,,,,,,,,,,,,6102990f8b3b06f480d1ae4d,61036c85c47011d51cdbae6e,2021-07-29_22h11.09.236,Simcolourproject_2stim_asymm_v5,2020.2.10,Win32,60,61025ae37ef11b136ea224fe,,,,,,,,,2334,50.33335391,-77.66667971,1,0,0,response3disk,,4,3.666685849,4.99998942,1,0,0,rectangle,3.666685849,4.99998942,1,0,0,3.666685849,4.99998942,1,0,0,0,1,1,24,1,,,,,,,,
,,,,,,,,,,,,,FF,,,,,,,,2.8335,,,,,,,,,,,,,,,,,,,,,,6102990f8b3b06f480d1ae4d,61036c85c47011d51cdbae6e,2021-07-29_22h11.09.236,Simcolourproject_2stim_asymm_v5,2020.2.10,Win32,60,61025ae37ef11b136ea224fe,,,,,,,,,435,-46.99998233,-88.33334669,1,0,0,response5disk,,3,-19.66660749,5.333322763,1,0,0,rectangle,-19.66660749,5.333322763,1,0,0,-19.66660749,5.333322763,1,0,0,0,2,2,44,1,,,,,,,,
,,,,,,,,,,,,,FF,,,,,,,,2.2663,,,,,,,,,,,,,,,,,,,,,,6102990f8b3b06f480d1ae4d,61036c85c47011d51cdbae6e,2021-07-29_22h11.09.236,Simcolourproject_2stim_asymm_v5,2020.2.10,Win32,60,61025ae37ef11b136ea224fe,,,,,,,,,2404,34.66668677,-77.66667971,1,0,0,response3disk,,4,-1.666606953,4.666656077,1,0,0,rectangle,-1.666606953,4.666656077,1,0,0,-1.666606953,4.666656077,1,0,0,0,3,3,47,1,,,,,,,,
,,,,,,,,,,,,,FF,,,,,,,,1.0663,,,,,,,,,,,,,,,,,,,,,,6102990f8b3b06f480d1ae4d,61036c85c47011d51cdbae6e,2021-07-29_22h11.09.236,Simcolourproject_2stim_asymm_v5,2020.2.10,Win32,60,61025ae37ef11b136ea224fe,,,,,,,,,858,83.66668823,43.99999058,1,0,0,response1disk,,6,-26.33331504,-8.000010967,1,0,0,rectangle,-26.33331504,-8.000010967,1,0,0,-26.33331504,-8.000010967,1,0,0,0,4,4,58,1,,,,,,,,
,,,,,,,,,,,,,FF,,,,,,,,1.216,,,,,,,,,,,,,,,,,,,,,,6102990f8b3b06f480d1ae4d,61036c85c47011d51cdbae6e,2021-07-29_22h11.09.236,Simcolourproject_2stim_asymm_v5,2020.2.10,Win32,60,61025ae37ef11b136ea224fe,,,,,,,,,2700,50.33335391,86.66665852,1,0,0,response1disk,,7,-3.999981046,0.666655958,1,0,0,rectangle,-3.999981046,0.666655958,1,0,0,-3.999981046,0.666655958,1,0,0,0,5,5,57,1,,,,,,,,
,,,,,,,,,,,,,FF,,,,,,,,1.1494,,,,,,,,,,,,,,,,,,,,,,6102990f8b3b06f480d1ae4d,61036c85c47011d51cdbae6e,2021-07-29_22h11.09.236,Simcolourproject_2stim_asymm_v5,2020.2.10,Win32,60,61025ae37ef11b136ea224fe,,,,,,,,,3539,38.00002021,74.33330447,1,0,0,response1disk,,7,9.666686028,-1.333344102,1,0,0,rectangle,9.666686028,-1.333344102,1,0,0,9.666686028,-1.333344102,1,0,0,0,6,6,148,1,,,,,,,,
,,,,,,,,,,,,,FF,,,,,,,,1.3316,,,,,,,,,,,,,,,,,,,,,,6102990f8b3b06f480d1ae4d,61036c85c47011d51cdbae6e,2021-07-29_22h11.09.236,Simcolourproject_2stim_asymm_v5,2020.2.10,Win32,60,61025ae37ef11b136ea224fe,,,,,,,,,625,75.666688,51.99999082,1,0,0,response1disk,,6,-20.99998155,-6.333344251,1,0,0,rectangle,-20.99998155,-6.333344251,1,0,0,-20.99998155,-6.333344251,1,0,0,0,7,7,71,1,,,,,,,,
,,,,,,,,,,,,,FF,,,,,,,,1.3167,,,,,,,,,,,,,,,,,,,,,,6102990f8b3b06f480d1ae4d,61036c85c47011d51cdbae6e,2021-07-29_22h11.09.236,Simcolourproject_2stim_asymm_v5,2020.2.10,Win32,60,61025ae37ef11b136ea224fe,,,,,,,,,623,41.0000203,81.99999171,1,0,0,response1disk,,7,-10.99998125,9.666656226,1,0,0,rectangle,-10.99998125,9.666656226,1,0,0,-10.99998125,9.666656226,1,0,0,0,8,8,110,1,,,,,,,,
,,,,,,,,,,,,,FF,,,,,,,,2,,,,,,,,,,,,,,,,,,,,,,6102990f8b3b06f480d1ae4d,61036c85c47011d51cdbae6e,2021-07-29_22h11.09.236,Simcolourproject_2stim_asymm_v5,2020.2.10,Win32,60,61025ae37ef11b136ea224fe,,,,,,,,,2639,68.33335444,38.66665709,1,0,0,response1disk,,6,1.66668579,11.33332294,1,0,0,rectangle,1.66668579,11.33332294,1,0,0,1.66668579,11.33332294,1,0,0,0,9,9,41,1,,,,,,,,
,,,,,,,,,,,,,FF,,,,,,,,0.9995,,,,,,,,,,,,,,,,,,,,,,6102990f8b3b06f480d1ae4d,61036c85c47011d51cdbae6e,2021-07-29_22h11.09.236,Simcolourproject_2stim_asymm_v5,2020.2.10,Win32,60,61025ae37ef11b136ea224fe,,,,,,,,,2978,78.33335474,54.33330388,1,0,0,response1disk,,6,-1.999980986,5.666656107,1,0,0,rectangle,-1.999980986,5.666656107,1,0,0,-1.999980986,5.666656107,1,0,0,0,10,10,51,1,,,,,,,,
,,,,,,,,,,,,,FF,,,,,,,,1.4162,,,,,,,,,,,,,,,,,,,,,,6102990f8b3b06f480d1ae4d,61036c85c47011d51cdbae6e,2021-07-29_22h11.09.236,Simcolourproject_2stim_asymm_v5,2020.2.10,Win32,60,61025ae37ef11b136ea224fe,,,,,,,,,884,-59.33331603,-71.00001284,1,0,0,response5disk,,3,-15.66660737,-8.000010967,1,0,0,rectangle,-15.66660737,-8.000010967,1,0,0,-15.66660737,-8.000010967,1,0,0,0,11,11,73,1,,,,,,,,
,,,,,,,,,,,,,FF,,,,,,,,1.3662,,,,,,,,,,,,,,,,,,,,,,6102990f8b3b06f480d1ae4d,61036c85c47011d51cdbae6e,2021-07-29_22h11.09.236,Simcolourproject_2stim_asymm_v5,2020.2.10,Win32,60,61025ae37ef11b136ea224fe,,,,,,,,,4279,-28.66660776,-71.33334619,1,0,0,response5disk,,3,5.333393256,-4.000010848,1,0,0,rectangle,5.333393256,-4.000010848,1,0,0,5.333393256,-4.000010848,1,0,0,0,12,12,107,1,,,,,,,,
,,,,,,,,,,,,,FF,,,,,,,,1.0161,,,,,,,,,,,,,,,,,,,,,,6102990f8b3b06f480d1ae4d,61036c85c47011d51cdbae6e,2021-07-29_22h11.09.236,Simcolourproject_2stim_asymm_v5,2020.2.10,Win32,60,61025ae37ef11b136ea224fe,,,,,,,,,82,-38.99998209,-62.00001258,1,0,0,response5disk,,3,-28.3333151,-6.666677594,1,0,0,rectangle,-28.3333151,-6.666677594,1,0,0,-28.3333151,-6.666677594,1,0,0,0,13,13,75,1,,,,,,,,
,,,,,,,,,,,,,FF,,,,,,,,1.0353,,,,,,,,,,,,,,,,,,,,,,6102990f8b3b06f480d1ae4d,61036c85c47011d51cdbae6e,2021-07-29_22h11.09.236,Simcolourproject_2stim_asymm_v5,2020.2.10,Win32,60,61025ae37ef11b136ea224fe,,,,,,,,,3187,-36.666608,-63.66667929,1,0,0,response5disk,,3,-12.66660728,-8.000010967,1,0,0,rectangle,-12.66660728,-8.000010967,1,0,0,-12.66660728,-8.000010967,1,0,0,0,14,14,28,1,,,,,,,,
,,,,,,,,,,,,,FF,,,,,,,,1.0164,,,,,,,,,,,,,,,,,,,,,,6102990f8b3b06f480d1ae4d,61036c85c47011d51cdbae6e,2021-07-29_22h11.09.236,Simcolourproject_2stim_asymm_v5,2020.2.10,Win32,60,61025ae37ef11b136ea224fe,,,,,,,,,3448,80.66668814,46.66665733,1,0,0,response1disk,,6,8.000019312,-0.333344072,1,0,0,rectangle,8.000019312,-0.333344072,1,0,0,8.000019312,-0.333344072,1,0,0,0,15,15,82,1,,,,,,,,
,,,,,,,,,,,,,FF,,,,,,,,2.0159,,,,,,,,,,,,,,,,,,,,,,6102990f8b3b06f480d1ae4d,61036c85c47011d51cdbae6e,2021-07-29_22h11.09.236,Simcolourproject_2stim_asymm_v5,2020.2.10,Win32,60,61025ae37ef11b136ea224fe,,,,,,,,,168,-44.33331558,-82.00001317,1,0,0,response5disk,,3,-3.999981046,1.333322644,1,0,0,rectangle,-3.999981046,1.333322644,1,0,0,-3.999981046,1.333322644,1,0,0,0,16,16,65,1,,,,,,,,
,,,,,,,,,,,,,FF,,,,,,,,1.3996,,,,,,,,,,,,,,,,,,,,,,6102990f8b3b06f480d1ae4d,61036c85c47011d51cdbae6e,2021-07-29_22h11.09.236,Simcolourproject_2stim_asymm_v5,2020.2.10,Win32,60,61025ae37ef11b136ea224fe,,,,,,,,,3919,-34.99998197,-76.66667968,1,0,0,response5disk,,3,-1.3333143,0.333322614,1,0,0,rectangle,-1.3333143,0.333322614,1,0,0,-1.3333143,0.333322614,1,0,0,0,17,17,18,1,,,,,,,,
,,,,,,,,,,,,,FF,,,,,,,,1.0493,,,,,,,,,,,,,,,,,,,,,,6102990f8b3b06f480d1ae4d,61036c85c47011d51cdbae6e,2021-07-29_22h11.09.236,Simcolourproject_2stim_asymm_v5,2020.2.10,Win32,60,61025ae37ef11b136ea224fe,,,,,,,,,1947,76.00002134,-47.33334547,1,0,0,response3disk,,5,-15.66660737,-1.333344102,1,0,0,rectangle,-15.66660737,-1.333344102,1,0,0,-15.66660737,-1.333344102,1,0,0,0,18,18,26,1,,,,,,,,
,,,,,,,,,,,,,FF,,,,,,,,1.3495,,,,,,,,,,,,,,,,,,,,,,6102990f8b3b06f480d1ae4d,61036c85c47011d51cdbae6e,2021-07-29_22h11.09.236,Simcolourproject_2stim_asymm_v5,2020.2.10,Win32,60,61025ae37ef11b136ea224fe,,,,,,,,,532,-74.99998316,-26.33334485,1,0,0,response5disk,,2,-7.999981165,-7.333344281,1,0,0,rectangle,-7.999981165,-7.333344281,1,0,0,-7.999981165,-7.333344281,1,0,0,0,19,19,56,1,,,,,,,,
,,,,,,,,,,,,,FF,,,,,,,,1.0519,,,,,,,,,,,,,,,,,,,,,,6102990f8b3b06f480d1ae4d,61036c85c47011d51cdbae6e,2021-07-29_22h11.09.236,Simcolourproject_2stim_asymm_v5,2020.2.10,Win32,60,61025ae37ef11b136ea224fe,,,,,,,,,2311,54.66668737,-46.33334544,1,0,0,response3disk,,5,8.666685998,-7.000010937,1,0,0,rectangle,8.666685998,-7.000010937,1,0,0,8.666685998,-7.000010937,1,0,0,0,20,20,23,1,,,,,,,,
,,,,,,,,,,,,,FF,,,,,,,,1.4494,,,,,,,,,,,,,,,,,,,,,,6102990f8b3b06f480d1ae4d,61036c85c47011d51cdbae6e,2021-07-29_22h11.09.236,Simcolourproject_2stim_asymm_v5,2020.2.10,Win32,60,61025ae37ef11b136ea224fe,,,,,,,,,2951,24.33339382,-74.66667962,1,0,0,response3disk,,4,1.9735E-05,-4.333344191,1,0,0,rectangle,1.9735E-05,-4.333344191,1,0,0,1.9735E-05,-4.333344191,1,0,0,0,21,21,29,1,,,,,,,,
,,,,,,,,,,,,,FF,,,,,,,,1.3826,,,,,,,,,,,,,,,,,,,,,,6102990f8b3b06f480d1ae4d,61036c85c47011d51cdbae6e,2021-07-29_22h11.09.236,Simcolourproject_2stim_asymm_v5,2020.2.10,Win32,60,61025ae37ef11b136ea224fe,,,,,,,,,2961,87.66668835,-50.33334556,1,0,0,response3disk,,5,8.333393345,-7.333344281,1,0,0,rectangle,8.333393345,-7.333344281,1,0,0,8.333393345,-7.333344281,1,0,0,0,22,22,55,1,,,,,,,,
,,,,,,,,,,,,,FF,,,,,,,,1.1497,,,,,,,,,,,,,,,,,,,,,,6102990f8b3b06f480d1ae4d,61036c85c47011d51cdbae6e,2021-07-29_22h11.09.236,Simcolourproject_2stim_asymm_v5,2020.2.10,Win32,60,61025ae37ef11b136ea224fe,,,,,,,,,2430,33.66668674,-70.6666795,1,0,0,response3disk,,4,0.66668576,-1.666677445,1,0,0,rectangle,0.66668576,-1.666677445,1,0,0,0.66668576,-1.666677445,1,0,0,0,23,23,61,1,,,,,,,,
,,,,,,,,,,,,,FF,,,,,,,,1.3333,,,,,,,,,,,,,,,,,,,,,,6102990f8b3b06f480d1ae4d,61036c85c47011d51cdbae6e,2021-07-29_22h11.09.236,Simcolourproject_2stim_asymm_v5,2020.2.10,Win32,60,61025ae37ef11b136ea224fe,,,,,,,,,3190,-64.99998286,-35.33334512,1,0,0,response5disk,,2,6.666685939,3.333322704,1,0,0,rectangle,6.666685939,3.333322704,1,0,0,6.666685939,3.333322704,1,0,0,0,24,24,30,1,,,,,,,,
,,,,,,,,,,,,,FF,,,,,,,,1.833,,,,,,,,,,,,,,,,,,,,,,6102990f8b3b06f480d1ae4d,61036c85c47011d51cdbae6e,2021-07-29_22h11.09.236,Simcolourproject_2stim_asymm_v5,2020.2.10,Win32,60,61025ae37ef11b136ea224fe,,,,,,,,,2720,-76.99998322,-42.66667867,1,0,0,response5disk,,2,-13.99998134,5.666656107,1,0,0,rectangle,-13.99998134,5.666656107,1,0,0,-13.99998134,5.666656107,1,0,0,0,25,25,25,1,,,,,,,,
,,,,,,,,,,,,,FF,,,,,,,,1.5164,,,,,,,,,,,,,,,,,,,,,,6102990f8b3b06f480d1ae4d,61036c85c47011d51cdbae6e,2021-07-29_22h11.09.236,Simcolourproject_2stim_asymm_v5,2020.2.10,Win32,60,61025ae37ef11b136ea224fe,,,,,,,,,2957,27.00001988,-45.66667876,1,0,0,response3disk,,4,-5.333314419,-8.000010967,1,0,0,rectangle,-5.333314419,-8.000010967,1,0,0,-5.333314419,-8.000010967,1,0,0,0,26,26,15,1,,,,,,,,
,,,,,,,,,,,,,FF,,,,,,,,1.4998,,,,,,,,,,,,,,,,,,,,,,6102990f8b3b06f480d1ae4d,61036c85c47011d51cdbae6e,2021-07-29_22h11.09.236,Simcolourproject_2stim_asymm_v5,2020.2.10,Win32,60,61025ae37ef11b136ea224fe,,,,,,,,,3953,-54.66660853,-59.33334583,1,0,0,response5disk,,3,-7.333314478,-7.000010937,1,0,0,rectangle,-7.333314478,-7.000010937,1,0,0,-7.333314478,-7.000010937,1,0,0,0,27,27,17,1,,,,,,,,
,,,,,,,,,,,,,FF,,,,,,,,1.3193,,,,,,,,,,,,,,,,,,,,,,6102990f8b3b06f480d1ae4d,61036c85c47011d51cdbae6e,2021-07-29_22h11.09.236,Simcolourproject_2stim_asymm_v5,2020.2.10,Win32,60,61025ae37ef11b136ea224fe,,,,,,,,,3603,57.00002077,-61.66667923,1,0,0,response3disk,,4,5.000019222,2.999989361,1,0,0,rectangle,5.000019222,2.999989361,1,0,0,5.000019222,2.999989361,1,0,0,0,28,28,156,1,,,,,,,,
,,,,,,,,,,,,,FF,,,,,,,,1.9162,,,,,,,,,,,,,,,,,,,,,,6102990f8b3b06f480d1ae4d,61036c85c47011d51cdbae6e,2021-07-29_22h11.09.236,Simcolourproject_2stim_asymm_v5,2020.2.10,Win32,60,61025ae37ef11b136ea224fe,,,,,,,,,471,44.00002038,-70.6666795,1,0,0,response3disk,,4,9.333393375,1.333322644,1,0,0,rectangle,75.666688,57.33330397,1,0,0,4.666685879,12.33332297,1,0,0,0,29,29,97,1,,response1disk_3,TRUE,6,6,"[297,44,111,320,107,307,126,228,221,154,303,30,323,250,149,32,163,42,56,62]",2.0497,rectangle
,,,,,,,,,,,,,FF,,,,,,,,1.5529,,,,,,,,,,,,,,,,,,,,,,6102990f8b3b06f480d1ae4d,61036c85c47011d51cdbae6e,2021-07-29_22h11.09.236,Simcolourproject_2stim_asymm_v5,2020.2.10,Win32,60,61025ae37ef11b136ea224fe,,,,,,,,,3300,45.33335376,-70.6666795,1,0,0,response3disk,,4,11.66668609,5.333322763,1,0,0,rectangle,11.66668609,5.333322763,1,0,0,11.66668609,5.333322763,1,0,0,0,30,30,146,1,,,,,,,,
,,,,,,,,,,,,,FF,,,,,,,,3.9496,,,,,,,,,,,,,,,,,,,,,,6102990f8b3b06f480d1ae4d,61036c85c47011d51cdbae6e,2021-07-29_22h11.09.236,Simcolourproject_2stim_asymm_v5,2020.2.10,Win32,60,61025ae37ef11b136ea224fe,,,,,,,,,409,32.33339406,-69.00001279,1,0,0,response3disk,,4,-2.333314329,9.666656226,1,0,0,rectangle,94.00002187,60.33330406,1,0,0,-0.33331427,1.333322644,1,0,0,0,31,31,139,1,,response1disk_3,TRUE,6,6,"[297,44,111,320,107,307,126,228,221,154,303,30,323,250,149,32,163,42,56,62]",2.1826,rectangle
,,,,,,,,,,,,,FF,,,,,,,,1.183,,,,,,,,,,,,,,,,,,,,,,6102990f8b3b06f480d1ae4d,61036c85c47011d51cdbae6e,2021-07-29_22h11.09.236,Simcolourproject_2stim_asymm_v5,2020.2.10,Win32,60,61025ae37ef11b136ea224fe,,,,,,,,,1577,50.33335391,-34.00001174,1,0,0,response3disk,,5,3.666685849,9.999989569,1,0,0,rectangle,3.666685849,9.999989569,1,0,0,3.666685849,9.999989569,1,0,0,0,32,32,86,1,,,,,,,,
,,,,,,,,,,,,,FF,,,,,,,,1.6162,,,,,,,,,,,,,,,,,,,,,,6102990f8b3b06f480d1ae4d,61036c85c47011d51cdbae6e,2021-07-29_22h11.09.236,Simcolourproject_2stim_asymm_v5,2020.2.10,Win32,60,61025ae37ef11b136ea224fe,,,,,,,,,4293,-27.33331507,99.99999225,1,0,0,response7disk,,0,-26.6666077,-1.333344102,1,0,0,rectangle,-26.6666077,-1.333344102,1,0,0,-26.6666077,-1.333344102,1,0,0,0,33,33,87,1,,,,,,,,
,,,,,,,,,,,,,FF,,,,,,,,1.35,,,,,,,,,,,,,,,,,,,,,,6102990f8b3b06f480d1ae4d,61036c85c47011d51cdbae6e,2021-07-29_22h11.09.236,Simcolourproject_2stim_asymm_v5,2020.2.10,Win32,60,61025ae37ef11b136ea224fe,,,,,,,,,3020,75.666688,-27.33334488,1,0,0,response3disk,,5,7.333393315,-4.333344191,1,0,0,rectangle,7.333393315,-4.333344191,1,0,0,7.333393315,-4.333344191,1,0,0,0,34,34,19,1,,,,,,,,
,,,,,,,,,,,,,FF,,,,,,,,0.9163,,,,,,,,,,,,,,,,,,,,,,6102990f8b3b06f480d1ae4d,61036c85c47011d51cdbae6e,2021-07-29_22h11.09.236,Simcolourproject_2stim_asymm_v5,2020.2.10,Win32,60,61025ae37ef11b136ea224fe,,,,,,,,,1559,80.66668814,-31.333345,1,0,0,response3disk,,5,-11.99998128,-4.333344191,1,0,0,rectangle,-11.99998128,-4.333344191,1,0,0,-11.99998128,-4.333344191,1,0,0,0,35,35,38,1,,,,,,,,
,,,,,,,,,,,,,FF,,,,,,,,1.0498,,,,,,,,,,,,,,,,,,,,,,6102990f8b3b06f480d1ae4d,61036c85c47011d51cdbae6e,2021-07-29_22h11.09.236,Simcolourproject_2stim_asymm_v5,2020.2.10,Win32,60,61025ae37ef11b136ea224fe,,,,,,,,,3396,-45.33331561,-57.66667911,1,0,0,response5disk,,3,-9.333314538,-2.666677475,1,0,0,rectangle,-9.333314538,-2.666677475,1,0,0,-9.333314538,-2.666677475,1,0,0,0,36,36,92,1,,,,,,,,
,,,,,,,,,,,,,FF,,,,,,,,1.0663,,,,,,,,,,,,,,,,,,,,,,6102990f8b3b06f480d1ae4d,61036c85c47011d51cdbae6e,2021-07-29_22h11.09.236,Simcolourproject_2stim_asymm_v5,2020.2.10,Win32,60,61025ae37ef11b136ea224fe,,,,,,,,,3288,-35.66660797,-55.00001237,1,0,0,response5disk,,3,-15.66660737,1.666655988,1,0,0,rectangle,-15.66660737,1.666655988,1,0,0,-15.66660737,1.666655988,1,0,0,0,37,37,98,1,,,,,,,,
,,,,,,,,,,,,,FF,,,,,,,,1.4493,,,,,,,,,,,,,,,,,,,,,,6102990f8b3b06f480d1ae4d,61036c85c47011d51cdbae6e,2021-07-29_22h11.09.236,Simcolourproject_2stim_asymm_v5,2020.2.10,Win32,60,61025ae37ef11b136ea224fe,,,,,,,,,876,62.33335426,55.6666576,1,0,0,response1disk,,6,-8.666607161,2.999989361,1,0,0,rectangle,-8.666607161,2.999989361,1,0,0,-8.666607161,2.999989361,1,0,0,0,38,38,81,1,,,,,,,,
,,,,,,,,,,,,,FF,,,,,,,,1.9499,,,,,,,,,,,,,,,,,,,,,,6102990f8b3b06f480d1ae4d,61036c85c47011d51cdbae6e,2021-07-29_22h11.09.236,Simcolourproject_2stim_asymm_v5,2020.2.10,Win32,60,61025ae37ef11b136ea224fe,,,,,,,,,3352,85.66668829,-43.6666787,1,0,0,response3disk,,5,11.66668609,-7.666677624,1,0,0,rectangle,11.66668609,-7.666677624,1,0,0,11.66668609,-7.666677624,1,0,0,0,39,39,111,1,,,,,,,,
,,,,,,,,,,,,,FF,,,,,,,,1.8167,,,,,,,,,,,,,,,,,,,,,,6102990f8b3b06f480d1ae4d,61036c85c47011d51cdbae6e,2021-07-29_22h11.09.236,Simcolourproject_2stim_asymm_v5,2020.2.10,Win32,60,61025ae37ef11b136ea224fe,,,,,,,,,3000,-67.33331627,38.3333034,1,0,0,response7disk,,1,-4.666607042,0.333322614,1,0,0,rectangle,-4.666607042,0.333322614,1,0,0,-4.666607042,0.333322614,1,0,0,0,40,40,85,1,,,,,,,,
,,,,,,,,,,,,,FF,,,,,,,,1.1325,,,,,,,,,,,,,,,,,,,,,,6102990f8b3b06f480d1ae4d,61036c85c47011d51cdbae6e,2021-07-29_22h11.09.236,Simcolourproject_2stim_asymm_v5,2020.2.10,Win32,60,61025ae37ef11b136ea224fe,,,,,,,,,2111,38.00002021,-65.66667935,1,0,0,response3disk,,4,10.66668606,2.999989361,1,0,0,rectangle,37.00002018,-81.00001314,1,0,0,2.333393166,6.99998948,1,0,0,0,41,41,83,1,,response3disk_3,TRUE,4,4,"[297,44,111,320,107,307,126,228,221,154,303,30,323,250,149,32,163,42,56,62]",1.4658,rectangle
,,,,,,,,,,,,,FF,,,,,,,,1.3338,,,,,,,,,,,,,,,,,,,,,,6102990f8b3b06f480d1ae4d,61036c85c47011d51cdbae6e,2021-07-29_22h11.09.236,Simcolourproject_2stim_asymm_v5,2020.2.10,Win32,60,61025ae37ef11b136ea224fe,,,,,,,,,2895,41.0000203,-61.33334589,1,0,0,response3disk,,4,5.000019222,-10.00001103,1,0,0,rectangle,5.000019222,-10.00001103,1,0,0,5.000019222,-10.00001103,1,0,0,0,42,42,37,1,,,,,,,,
,,,,,,,,,,,,,FF,,,,,,,,1.1163,,,,,,,,,,,,,,,,,,,,,,6102990f8b3b06f480d1ae4d,61036c85c47011d51cdbae6e,2021-07-29_22h11.09.236,Simcolourproject_2stim_asymm_v5,2020.2.10,Win32,60,61025ae37ef11b136ea224fe,,,,,,,,,4203,-33.33331525,-60.00001252,1,0,0,response5disk,,3,-21.99998158,2.666656017,1,0,0,rectangle,21.33339373,-72.00001287,1,0,0,1.66668579,-5.666677564,1,0,0,0,43,43,128,1,,response3disk_3,TRUE,4,4,"[297,44,111,320,107,307,126,228,221,154,303,30,323,250,149,32,163,42,56,62]",1.1663,rectangle
,,,,,,,,,,,,,FF,,,,,,,,1.3331,,,,,,,,,,,,,,,,,,,,,,6102990f8b3b06f480d1ae4d,61036c85c47011d51cdbae6e,2021-07-29_22h11.09.236,Simcolourproject_2stim_asymm_v5,2020.2.10,Win32,60,61025ae37ef11b136ea224fe,,,,,,,,,799,48.66668719,-90.6666801,1,0,0,response3disk,,4,12.66668612,-1.07288E-05,1,0,0,rectangle,12.66668612,-1.07288E-05,1,0,0,12.66668612,-1.07288E-05,1,0,0,0,44,44,70,1,,,,,,,,
,,,,,,,,,,,,,FF,,,,,,,,1.083,,,,,,,,,,,,,,,,,,,,,,6102990f8b3b06f480d1ae4d,61036c85c47011d51cdbae6e,2021-07-29_22h11.09.236,Simcolourproject_2stim_asymm_v5,2020.2.10,Win32,60,61025ae37ef11b136ea224fe,,,,,,,,,2906,86.33335498,-49.66667888,1,0,0,response3disk,,5,5.000019222,6.333322793,1,0,0,rectangle,5.000019222,6.333322793,1,0,0,5.000019222,6.333322793,1,0,0,0,45,45,48,1,,,,,,,,
,,,,,,,,,,,,,FF,,,,,,,,0.9982,,,,,,,,,,,,,,,,,,,,,,6102990f8b3b06f480d1ae4d,61036c85c47011d51cdbae6e,2021-07-29_22h11.09.236,Simcolourproject_2stim_asymm_v5,2020.2.10,Win32,60,61025ae37ef11b136ea224fe,,,,,,,,,2140,66.00002104,-18.66667795,1,0,0,response3disk,,5,25.33339385,3.333322704,1,0,0,rectangle,25.33339385,3.333322704,1,0,0,25.33339385,3.333322704,1,0,0,0,46,46,33,1,,,,,,,,
,,,,,,,,,,,,,FF,,,,,,,,0.9996,,,,,,,,,,,,,,,,,,,,,,6102990f8b3b06f480d1ae4d,61036c85c47011d51cdbae6e,2021-07-29_22h11.09.236,Simcolourproject_2stim_asymm_v5,2020.2.10,Win32,60,61025ae37ef11b136ea224fe,,,,,,,,,4351,-33.33331525,-80.6666798,1,0,0,response5disk,,3,-4.333314389,11.33332294,1,0,0,rectangle,-4.333314389,11.33332294,1,0,0,-4.333314389,11.33332294,1,0,0,0,47,47,22,1,,,,,,,,
,,,,,,,,,,,,,FF,,,,,,,,0.9521,,,,,,,,,,,,,,,,,,,,,,6102990f8b3b06f480d1ae4d,61036c85c47011d51cdbae6e,2021-07-29_22h11.09.236,Simcolourproject_2stim_asymm_v5,2020.2.10,Win32,60,61025ae37ef11b136ea224fe,,,,,,,,,2242,37.66668686,-67.00001273,1,0,0,response3disk,,4,2.66668582,1.999989331,1,0,0,rectangle,2.66668582,1.999989331,1,0,0,2.66668582,1.999989331,1,0,0,0,48,48,68,1,,,,,,,,
,,,,,,,,,,,,,FF,,,,,,,,1.1003,,,,,,,,,,,,,,,,,,,,,,6102990f8b3b06f480d1ae4d,61036c85c47011d51cdbae6e,2021-07-29_22h11.09.236,Simcolourproject_2stim_asymm_v5,2020.2.10,Win32,60,61025ae37ef11b136ea224fe,,,,,,,,,1435,67.33335441,-42.00001198,1,0,0,response3disk,,5,4.333393226,3.333322704,1,0,0,rectangle,4.333393226,3.333322704,1,0,0,4.333393226,3.333322704,1,0,0,0,49,49,39,1,,,,,,,,
,,,,,,,,,,,,,FF,,,,,,,,2.85,,,,,,,,,,,,,,,,,,,,,,6102990f8b3b06f480d1ae4d,61036c85c47011d51cdbae6e,2021-07-29_22h11.09.236,Simcolourproject_2stim_asymm_v5,2020.2.10,Win32,60,61025ae37ef11b136ea224fe,,,,,,,,,3468,-68.3333163,53.33330385,1,0,0,response7disk,,1,6.666685939,6.333322793,1,0,0,rectangle,6.666685939,6.333322793,1,0,0,6.666685939,6.333322793,1,0,0,0,50,50,131,1,,,,,,,,
,,,,,,,,,,,,,FF,,,,,,,,1.5499,,,,,,,,,,,,,,,,,,,,,,6102990f8b3b06f480d1ae4d,61036c85c47011d51cdbae6e,2021-07-29_22h11.09.236,Simcolourproject_2stim_asymm_v5,2020.2.10,Win32,60,61025ae37ef11b136ea224fe,,,,,,,,,1971,52.00002062,48.3333037,1,0,0,response1disk,,6,-1.999980986,-7.000010937,1,0,0,rectangle,-1.999980986,-7.000010937,1,0,0,-1.999980986,-7.000010937,1,0,0,0,51,51,127,1,,,,,,,,
,,,,,,,,,,,,,FF,,,,,,,,1.1503,,,,,,,,,,,,,,,,,,,,,,6102990f8b3b06f480d1ae4d,61036c85c47011d51cdbae6e,2021-07-29_22h11.09.236,Simcolourproject_2stim_asymm_v5,2020.2.10,Win32,60,61025ae37ef11b136ea224fe,,,,,,,,,2411,83.33335489,-36.0000118,1,0,0,response3disk,,5,15.00001952,1.333322644,1,0,0,rectangle,15.00001952,1.333322644,1,0,0,15.00001952,1.333322644,1,0,0,0,52,52,109,1,,,,,,,,
,,,,,,,,,,,,,FF,,,,,,,,0.9034,,,,,,,,,,,,,,,,,,,,,,6102990f8b3b06f480d1ae4d,61036c85c47011d51cdbae6e,2021-07-29_22h11.09.236,Simcolourproject_2stim_asymm_v5,2020.2.10,Win32,60,61025ae37ef11b136ea224fe,,,,,,,,,761,62.33335426,-31.00001165,1,0,0,response3disk,,5,5.333393256,-3.333344162,1,0,0,rectangle,5.333393256,-3.333344162,1,0,0,5.333393256,-3.333344162,1,0,0,0,53,53,53,1,,,,,,,,
,,,,,,,,,,,,,FF,,,,,,,,1.0667,,,,,,,,,,,,,,,,,,,,,,6102990f8b3b06f480d1ae4d,61036c85c47011d51cdbae6e,2021-07-29_22h11.09.236,Simcolourproject_2stim_asymm_v5,2020.2.10,Win32,60,61025ae37ef11b136ea224fe,,,,,,,,,330,74.66668797,-32.66667837,1,0,0,response3disk,,5,8.000019312,1.666655988,1,0,0,rectangle,8.000019312,1.666655988,1,0,0,8.000019312,1.666655988,1,0,0,0,54,54,106,1,,,,,,,,
,,,,,,,,,,,,,FF,,,,,,,,1.1671,,,,,,,,,,,,,,,,,,,,,,6102990f8b3b06f480d1ae4d,61036c85c47011d51cdbae6e,2021-07-29_22h11.09.236,Simcolourproject_2stim_asymm_v5,2020.2.10,Win32,60,61025ae37ef11b136ea224fe,,,,,,,,,2278,91.66668847,55.33330391,1,0,0,response1disk,,6,22.66668642,4.99998942,1,0,0,rectangle,40.3333943,99.99999225,1,0,0,5.333393256,-2.333344132,1,0,0,0,55,55,95,1,,response1disk_3,TRUE,7,7,"[297,44,111,320,107,307,126,228,221,154,303,30,323,250,149,32,163,42,56,62]",1.6158,rectangle
,,,,,,,,,,,,,FF,,,,,,,,1.0495,,,,,,,,,,,,,,,,,,,,,,6102990f8b3b06f480d1ae4d,61036c85c47011d51cdbae6e,2021-07-29_22h11.09.236,Simcolourproject_2stim_asymm_v5,2020.2.10,Win32,60,61025ae37ef11b136ea224fe,,,,,,,,,643,75.00002131,63.66665784,1,0,0,response1disk,,6,-1.999980986,-1.000010759,1,0,0,rectangle,-1.999980986,-1.000010759,1,0,0,-1.999980986,-1.000010759,1,0,0,0,56,56,67,1,,,,,,,,
,,,,,,,,,,,,,FF,,,,,,,,0.8166,,,,,,,,,,,,,,,,,,,,,,6102990f8b3b06f480d1ae4d,61036c85c47011d51cdbae6e,2021-07-29_22h11.09.236,Simcolourproject_2stim_asymm_v5,2020.2.10,Win32,60,61025ae37ef11b136ea224fe,,,,,,,,,1043,52.66668731,40.66665715,1,0,0,response1disk,,6,6.333393286,-8.666677654,1,0,0,rectangle,6.333393286,-8.666677654,1,0,0,6.333393286,-8.666677654,1,0,0,0,57,57,5,1,,,,,,,,
,,,,,,,,,,,,,FF,,,,,,,,0.7333,,,,,,,,,,,,,,,,,,,,,,6102990f8b3b06f480d1ae4d,61036c85c47011d51cdbae6e,2021-07-29_22h11.09.236,Simcolourproject_2stim_asymm_v5,2020.2.10,Win32,60,61025ae37ef11b136ea224fe,,,,,,,,,4018,70.00002116,48.99999073,1,0,0,response1disk,,6,-3.666607012,-11.66667774,1,0,0,rectangle,-3.666607012,-11.66667774,1,0,0,-3.666607012,-11.66667774,1,0,0,0,58,58,112,1,,,,,,,,
,,,,,,,,,,,,,FF,,,,,,,,1.1832,,,,,,,,,,,,,,,,,,,,,,6102990f8b3b06f480d1ae4d,61036c85c47011d51cdbae6e,2021-07-29_22h11.09.236,Simcolourproject_2stim_asymm_v5,2020.2.10,Win32,60,61025ae37ef11b136ea224fe,,,,,,,,,443,-66.66660889,24.33330298,1,0,0,response7disk,,1,-24.33331499,-7.333344281,1,0,0,rectangle,-24.33331499,-7.333344281,1,0,0,-24.33331499,-7.333344281,1,0,0,0,59,59,45,1,,,,,,,,
,,,,,,,,,,,,,FF,,,,,,,,1.0163,,,,,,,,,,,,,,,,,,,,,,6102990f8b3b06f480d1ae4d,61036c85c47011d51cdbae6e,2021-07-29_22h11.09.236,Simcolourproject_2stim_asymm_v5,2020.2.10,Win32,60,61025ae37ef11b136ea224fe,,,,,,,,,1370,-66.99998292,30.66665685,1,0,0,response7disk,,1,-1.999980986,0.333322614,1,0,0,rectangle,-1.999980986,0.333322614,1,0,0,-1.999980986,0.333322614,1,0,0,0,60,60,21,1,,,,,,,,
,,,,,,,,,,,,,FF,,,,,,,,1.3996,,,,,,,,,,,,,,,,,,,,,,6102990f8b3b06f480d1ae4d,61036c85c47011d51cdbae6e,2021-07-29_22h11.09.236,Simcolourproject_2stim_asymm_v5,2020.2.10,Win32,60,61025ae37ef11b136ea224fe,,,,,,,,,1008,65.6666877,-45.33334541,1,0,0,response3disk,,5,8.666685998,-10.33334437,1,0,0,rectangle,35.00002012,87.33330486,1,0,0,2.66668582,-8.333344311,1,0,0,0,61,61,125,1,,response1disk_3,TRUE,7,7,"[297,44,111,320,107,307,126,228,221,154,303,30,323,250,149,32,163,42,56,62]",1.6651,rectangle
,,,,,,,,,,,,,FF,,,,,,,,1.1329,,,,,,,,,,,,,,,,,,,,,,6102990f8b3b06f480d1ae4d,61036c85c47011d51cdbae6e,2021-07-29_22h11.09.236,Simcolourproject_2stim_asymm_v5,2020.2.10,Win32,60,61025ae37ef11b136ea224fe,,,,,,,,,2248,65.6666877,35.99999034,1,0,0,response1disk,,6,-4.666607042,-3.333344162,1,0,0,rectangle,-4.666607042,-3.333344162,1,0,0,-4.666607042,-3.333344162,1,0,0,0,62,62,80,1,,,,,,,,
,,,,,,,,,,,,,FF,,,,,,,,1.1836,,,,,,,,,,,,,,,,,,,,,,6102990f8b3b06f480d1ae4d,61036c85c47011d51cdbae6e,2021-07-29_22h11.09.236,Simcolourproject_2stim_asymm_v5,2020.2.10,Win32,60,61025ae37ef11b136ea224fe,,,,,,,,,3092,-85.99998349,-50.00001222,1,0,0,response5disk,,2,3.000019163,-4.333344191,1,0,0,rectangle,3.000019163,-4.333344191,1,0,0,3.000019163,-4.333344191,1,0,0,0,63,63,150,1,,,,,,,,
,,,,,,,,,,,,,FF,,,,,,,,0.8834,,,,,,,,,,,,,,,,,,,,,,6102990f8b3b06f480d1ae4d,61036c85c47011d51cdbae6e,2021-07-29_22h11.09.236,Simcolourproject_2stim_asymm_v5,2020.2.10,Win32,60,61025ae37ef11b136ea224fe,,,,,,,,,1081,76.66668802,-38.3333452,1,0,0,response3disk,,5,14.33339352,-7.666677624,1,0,0,rectangle,14.33339352,-7.666677624,1,0,0,14.33339352,-7.666677624,1,0,0,0,64,64,96,1,,,,,,,,
,,,,,,,,,,,,,FF,,,,,,,,2.7331,,,,,,,,,,,,,,,,,,,,,,6102990f8b3b06f480d1ae4d,61036c85c47011d51cdbae6e,2021-07-29_22h11.09.236,Simcolourproject_2stim_asymm_v5,2020.2.10,Win32,60,61025ae37ef11b136ea224fe,,,,,,,,,2840,26.33339388,-88.33334669,1,0,0,response3disk,,4,-2.666606983,0.666655958,1,0,0,rectangle,-2.666606983,0.666655958,1,0,0,-2.666606983,0.666655958,1,0,0,0,65,65,7,1,,,,,,,,
,,,,,,,,,,,,,FF,,,,,,,,0.9833,,,,,,,,,,,,,,,,,,,,,,6102990f8b3b06f480d1ae4d,61036c85c47011d51cdbae6e,2021-07-29_22h11.09.236,Simcolourproject_2stim_asymm_v5,2020.2.10,Win32,60,61025ae37ef11b136ea224fe,,,,,,,,,2431,31.00002,-80.00001311,1,0,0,response3disk,,4,13.33339349,-3.333344162,1,0,0,rectangle,13.33339349,-3.333344162,1,0,0,13.33339349,-3.333344162,1,0,0,0,66,66,137,1,,,,,,,,
,,,,,,,,,,,,,FF,,,,,,,,1.1165,,,,,,,,,,,,,,,,,,,,,,6102990f8b3b06f480d1ae4d,61036c85c47011d51cdbae6e,2021-07-29_22h11.09.236,Simcolourproject_2stim_asymm_v5,2020.2.10,Win32,60,61025ae37ef11b136ea224fe,,,,,,,,,341,-56.33331594,-65.66667935,1,0,0,response5disk,,3,-8.666607161,8.333322853,1,0,0,rectangle,-8.666607161,8.333322853,1,0,0,-8.666607161,8.333322853,1,0,0,0,67,67,36,1,,,,,,,,
,,,,,,,,,,,,,FF,,,,,,,,0.9331,,,,,,,,,,,,,,,,,,,,,,6102990f8b3b06f480d1ae4d,61036c85c47011d51cdbae6e,2021-07-29_22h11.09.236,Simcolourproject_2stim_asymm_v5,2020.2.10,Win32,60,61025ae37ef11b136ea224fe,,,,,,,,,2686,30.00001997,-63.33334595,1,0,0,response3disk,,4,4.333393226,-3.333344162,1,0,0,rectangle,4.333393226,-3.333344162,1,0,0,4.333393226,-3.333344162,1,0,0,0,68,68,102,1,,,,,,,,
,,,,,,,,,,,,,FF,,,,,,,,1.0828,,,,,,,,,,,,,,,,,,,,,,6102990f8b3b06f480d1ae4d,61036c85c47011d51cdbae6e,2021-07-29_22h11.09.236,Simcolourproject_2stim_asymm_v5,2020.2.10,Win32,60,61025ae37ef11b136ea224fe,,,,,,,,,3523,89.33335507,-49.00001219,1,0,0,response3disk,,5,9.333393375,-1.333344102,1,0,0,rectangle,9.333393375,-1.333344102,1,0,0,9.333393375,-1.333344102,1,0,0,0,69,69,64,1,,,,,,,,
,,,,,,,,,,,,,FF,,,,,,,,1.3161,,,,,,,,,,,,,,,,,,,,,,6102990f8b3b06f480d1ae4d,61036c85c47011d51cdbae6e,2021-07-29_22h11.09.236,Simcolourproject_2stim_asymm_v5,2020.2.10,Win32,60,61025ae37ef11b136ea224fe,,,,,,,,,405,67.66668776,35.666657,1,0,0,response1disk,,6,-20.99998155,-1.333344102,1,0,0,rectangle,-20.99998155,-1.333344102,1,0,0,-20.99998155,-1.333344102,1,0,0,0,70,70,1,1,,,,,,,,
,,,,,,,,,,,,,FF,,,,,,,,0.7832,,,,,,,,,,,,,,,,,,,,,,6102990f8b3b06f480d1ae4d,61036c85c47011d51cdbae6e,2021-07-29_22h11.09.236,Simcolourproject_2stim_asymm_v5,2020.2.10,Win32,60,61025ae37ef11b136ea224fe,,,,,,,,,1500,54.33335403,50.66665745,1,0,0,response1disk,,6,7.000019282,-1.07288E-05,1,0,0,rectangle,7.000019282,-1.07288E-05,1,0,0,7.000019282,-1.07288E-05,1,0,0,0,71,71,2,1,,,,,,,,
,,,,,,,,,,,,,FF,,,,,,,,1.4504,,,,,,,,,,,,,,,,,,,,,,6102990f8b3b06f480d1ae4d,61036c85c47011d51cdbae6e,2021-07-29_22h11.09.236,Simcolourproject_2stim_asymm_v5,2020.2.10,Win32,60,61025ae37ef11b136ea224fe,,,,,,,,,3341,75.00002131,62.33330412,1,0,0,response1disk,,6,-0.999980956,6.666656137,1,0,0,rectangle,-0.999980956,6.666656137,1,0,0,-0.999980956,6.666656137,1,0,0,0,72,72,145,1,,,,,,,,
,,,,,,,,,,,,,FF,,,,,,,,1.5,,,,,,,,,,,,,,,,,,,,,,6102990f8b3b06f480d1ae4d,61036c85c47011d51cdbae6e,2021-07-29_22h11.09.236,Simcolourproject_2stim_asymm_v5,2020.2.10,Win32,60,61025ae37ef11b136ea224fe,,,,,,,,,2945,-55.66660856,-92.00001347,1,0,0,response5disk,,3,6.000019252,2.333322674,1,0,0,rectangle,6.000019252,2.333322674,1,0,0,6.000019252,2.333322674,1,0,0,0,73,73,42,1,,,,,,,,
,,,,,,,,,,,,,FF,,,,,,,,1.1834,,,,,,,,,,,,,,,,,,,,,,6102990f8b3b06f480d1ae4d,61036c85c47011d51cdbae6e,2021-07-29_22h11.09.236,Simcolourproject_2stim_asymm_v5,2020.2.10,Win32,60,61025ae37ef11b136ea224fe,,,,,,,,,66,46.33335379,-71.66667953,1,0,0,response3disk,,4,14.33339352,0.333322614,1,0,0,rectangle,14.33339352,0.333322614,1,0,0,14.33339352,0.333322614,1,0,0,0,74,74,43,1,,,,,,,,
,,,,,,,,,,,,,FF,,,,,,,,1.3665,,,,,,,,,,,,,,,,,,,,,,6102990f8b3b06f480d1ae4d,61036c85c47011d51cdbae6e,2021-07-29_22h11.09.236,Simcolourproject_2stim_asymm_v5,2020.2.10,Win32,60,61025ae37ef11b136ea224fe,,,,,,,,,593,44.00002038,-23.33334476,1,0,0,response3disk,,5,-2.333314329,0.666655958,1,0,0,rectangle,-2.333314329,0.666655958,1,0,0,-2.333314329,0.666655958,1,0,0,0,75,75,89,1,,,,,,,,
,,,,,,,,,,,,,FF,,,,,,,,1.6498,,,,,,,,,,,,,,,,,,,,,,6102990f8b3b06f480d1ae4d,61036c85c47011d51cdbae6e,2021-07-29_22h11.09.236,Simcolourproject_2stim_asymm_v5,2020.2.10,Win32,60,61025ae37ef11b136ea224fe,,,,,,,,,909,41.0000203,-90.6666801,1,0,0,response3disk,,4,11.66668609,-5.333344221,1,0,0,rectangle,11.66668609,-5.333344221,1,0,0,11.66668609,-5.333344221,1,0,0,0,76,76,114,1,,,,,,,,
,,,,,,,,,,,,,FF,,,,,,,,0.9996,,,,,,,,,,,,,,,,,,,,,,6102990f8b3b06f480d1ae4d,61036c85c47011d51cdbae6e,2021-07-29_22h11.09.236,Simcolourproject_2stim_asymm_v5,2020.2.10,Win32,60,61025ae37ef11b136ea224fe,,,,,,,,,1892,-46.99998233,-69.00001279,1,0,0,response5disk,,3,-27.33331507,-9.666677684,1,0,0,rectangle,-27.33331507,-9.666677684,1,0,0,-27.33331507,-9.666677684,1,0,0,0,77,77,144,1,,,,,,,,
,,,,,,,,,,,,,FF,,,,,,,,1.933,,,,,,,,,,,,,,,,,,,,,,6102990f8b3b06f480d1ae4d,61036c85c47011d51cdbae6e,2021-07-29_22h11.09.236,Simcolourproject_2stim_asymm_v5,2020.2.10,Win32,60,61025ae37ef11b136ea224fe,,,,,,,,,913,-32.66660788,-76.66667968,1,0,0,response5disk,,3,-15.9999814,5.99998945,1,0,0,rectangle,-15.9999814,5.99998945,1,0,0,-15.9999814,5.99998945,1,0,0,0,78,78,122,1,,,,,,,,
,,,,,,,,,,,,,FF,,,,,,,,0.8497,,,,,,,,,,,,,,,,,,,,,,6102990f8b3b06f480d1ae4d,61036c85c47011d51cdbae6e,2021-07-29_22h11.09.236,Simcolourproject_2stim_asymm_v5,2020.2.10,Win32,60,61025ae37ef11b136ea224fe,,,,,,,,,3693,78.33335474,49.99999076,1,0,0,response1disk,,6,4.000019193,2.333322674,1,0,0,rectangle,4.000019193,2.333322674,1,0,0,4.000019193,2.333322674,1,0,0,0,79,79,143,1,,,,,,,,
,,,,,,,,,,,,,FF,,,,,,,,0.9162,,,,,,,,,,,,,,,,,,,,,,6102990f8b3b06f480d1ae4d,61036c85c47011d51cdbae6e,2021-07-29_22h11.09.236,Simcolourproject_2stim_asymm_v5,2020.2.10,Win32,60,61025ae37ef11b136ea224fe,,,,,,,,,1025,93.33335519,71.66665807,1,0,0,response1disk,,6,9.333393375,5.666656107,1,0,0,rectangle,9.333393375,5.666656107,1,0,0,9.333393375,5.666656107,1,0,0,0,80,80,126,1,,,,,,,,
,,,,,,,,,,,,,FF,,,,,,,,1.5668,,,,,,,,,,,,,,,,,,,,,,6102990f8b3b06f480d1ae4d,61036c85c47011d51cdbae6e,2021-07-29_22h11.09.236,Simcolourproject_2stim_asymm_v5,2020.2.10,Win32,60,61025ae37ef11b136ea224fe,,,,,,,,,3993,-24.99998167,100.6666589,1,0,0,response7disk,,0,-1.3333143,-4.333344191,1,0,0,rectangle,-1.3333143,-4.333344191,1,0,0,-1.3333143,-4.333344191,1,0,0,0,81,81,100,1,,,,,,,,
,,,,,,,,,,,,,FF,,,,,,,,1.0332,,,,,,,,,,,,,,,,,,,,,,6102990f8b3b06f480d1ae4d,61036c85c47011d51cdbae6e,2021-07-29_22h11.09.236,Simcolourproject_2stim_asymm_v5,2020.2.10,Win32,60,61025ae37ef11b136ea224fe,,,,,,,,,2245,93.33335519,41.33330349,1,0,0,response1disk,,6,19.33339367,-1.666677445,1,0,0,rectangle,19.33339367,-1.666677445,1,0,0,19.33339367,-1.666677445,1,0,0,0,82,82,153,1,,,,,,,,
,,,,,,,,,,,,,FF,,,,,,,,1.9662,,,,,,,,,,,,,,,,,,,,,,6102990f8b3b06f480d1ae4d,61036c85c47011d51cdbae6e,2021-07-29_22h11.09.236,Simcolourproject_2stim_asymm_v5,2020.2.10,Win32,60,61025ae37ef11b136ea224fe,,,,,,,,,1618,32.00002003,-57.66667911,1,0,0,response3disk,,4,9.000019342,-1.666677445,1,0,0,rectangle,9.000019342,-1.666677445,1,0,0,9.000019342,-1.666677445,1,0,0,0,83,83,155,1,,,,,,,,
,,,,,,,,,,,,,FF,,,,,,,,1.116,,,,,,,,,,,,,,,,,,,,,,6102990f8b3b06f480d1ae4d,61036c85c47011d51cdbae6e,2021-07-29_22h11.09.236,Simcolourproject_2stim_asymm_v5,2020.2.10,Win32,60,61025ae37ef11b136ea224fe,,,,,,,,,815,79.33335477,-59.33334583,1,0,0,response3disk,,5,-4.333314389,-11.3333444,1,0,0,rectangle,-4.333314389,-11.3333444,1,0,0,-4.333314389,-11.3333444,1,0,0,0,84,84,147,1,,,,,,,,
,,,,,,,,,,,,,FF,,,,,,,,0.9667,,,,,,,,,,,,,,,,,,,,,,6102990f8b3b06f480d1ae4d,61036c85c47011d51cdbae6e,2021-07-29_22h11.09.236,Simcolourproject_2stim_asymm_v5,2020.2.10,Win32,60,61025ae37ef11b136ea224fe,,,,,,,,,1946,72.00002122,-70.6666795,1,0,0,response3disk,,5,6.333393286,7.99998951,1,0,0,rectangle,6.333393286,7.99998951,1,0,0,6.333393286,7.99998951,1,0,0,0,85,85,113,1,,,,,,,,
,,,,,,,,,,,,,FF,,,,,,,,1.3496,,,,,,,,,,,,,,,,,,,,,,6102990f8b3b06f480d1ae4d,61036c85c47011d51cdbae6e,2021-07-29_22h11.09.236,Simcolourproject_2stim_asymm_v5,2020.2.10,Win32,60,61025ae37ef11b136ea224fe,,,,,,,,,1211,-46.66660829,68.3333043,1,0,0,response7disk,,0,-16.99998143,-3.666677505,1,0,0,rectangle,-16.99998143,-3.666677505,1,0,0,-16.99998143,-3.666677505,1,0,0,0,86,86,117,1,,,,,,,,
,,,,,,,,,,,,,FF,,,,,,,,1.6825,,,,,,,,,,,,,,,,,,,,,,6102990f8b3b06f480d1ae4d,61036c85c47011d51cdbae6e,2021-07-29_22h11.09.236,Simcolourproject_2stim_asymm_v5,2020.2.10,Win32,60,61025ae37ef11b136ea224fe,,,,,,,,,3881,83.33335489,-47.00001213,1,0,0,response3disk,,5,-13.33331466,-7.333344281,1,0,0,rectangle,-13.33331466,-7.333344281,1,0,0,-13.33331466,-7.333344281,1,0,0,0,87,87,63,1,,,,,,,,
,,,,,,,,,,,,,FF,,,,,,,,1.1816,,,,,,,,,,,,,,,,,,,,,,6102990f8b3b06f480d1ae4d,61036c85c47011d51cdbae6e,2021-07-29_22h11.09.236,Simcolourproject_2stim_asymm_v5,2020.2.10,Win32,60,61025ae37ef11b136ea224fe,,,,,,,,,3959,27.00001988,-75.66667965,1,0,0,response3disk,,4,17.00001958,-4.333344191,1,0,0,rectangle,17.00001958,-4.333344191,1,0,0,17.00001958,-4.333344191,1,0,0,0,88,88,6,1,,,,,,,,
,,,,,,,,,,,,,FF,,,,,,,,1.9162,,,,,,,,,,,,,,,,,,,,,,6102990f8b3b06f480d1ae4d,61036c85c47011d51cdbae6e,2021-07-29_22h11.09.236,Simcolourproject_2stim_asymm_v5,2020.2.10,Win32,60,61025ae37ef11b136ea224fe,,,,,,,,,3114,82.33335486,-41.00001195,1,0,0,response3disk,,5,-16.6666074,-5.666677564,1,0,0,rectangle,-16.6666074,-5.666677564,1,0,0,-16.6666074,-5.666677564,1,0,0,0,89,89,118,1,,,,,,,,
,,,,,,,,,,,,,FF,,,,,,,,1.4997,,,,,,,,,,,,,,,,,,,,,,6102990f8b3b06f480d1ae4d,61036c85c47011d51cdbae6e,2021-07-29_22h11.09.236,Simcolourproject_2stim_asymm_v5,2020.2.10,Win32,60,61025ae37ef11b136ea224fe,,,,,,,,,575,79.00002143,-40.33334526,1,0,0,response3disk,,5,-13.66660731,4.99998942,1,0,0,rectangle,-13.66660731,4.99998942,1,0,0,-13.66660731,4.99998942,1,0,0,0,90,90,72,1,,,,,,,,
,,,,,,,,,,,,,FF,,,,,,,,0.8165,,,,,,,,,,,,,,,,,,,,,,6102990f8b3b06f480d1ae4d,61036c85c47011d51cdbae6e,2021-07-29_22h11.09.236,Simcolourproject_2stim_asymm_v5,2020.2.10,Win32,60,61025ae37ef11b136ea224fe,,,,,,,,,1531,67.33335441,-34.33334509,1,0,0,response3disk,,5,-17.99998146,2.333322674,1,0,0,rectangle,-17.99998146,2.333322674,1,0,0,-17.99998146,2.333322674,1,0,0,0,91,91,76,1,,,,,,,,
,,,,,,,,,,,,,FF,,,,,,,,1.0997,,,,,,,,,,,,,,,,,,,,,,6102990f8b3b06f480d1ae4d,61036c85c47011d51cdbae6e,2021-07-29_22h11.09.236,Simcolourproject_2stim_asymm_v5,2020.2.10,Win32,60,61025ae37ef11b136ea224fe,,,,,,,,,3558,-74.66660913,-21.00001135,1,0,0,response5disk,,2,-2.999981016,8.666656196,1,0,0,rectangle,-2.999981016,8.666656196,1,0,0,-2.999981016,8.666656196,1,0,0,0,92,92,50,1,,,,,,,,
,,,,,,,,,,,,,FF,,,,,,,,1.0661,,,,,,,,,,,,,,,,,,,,,,6102990f8b3b06f480d1ae4d,61036c85c47011d51cdbae6e,2021-07-29_22h11.09.236,Simcolourproject_2stim_asymm_v5,2020.2.10,Win32,60,61025ae37ef11b136ea224fe,,,,,,,,,1543,58.66668749,-74.66667962,1,0,0,response3disk,,4,17.33339361,-5.333344221,1,0,0,rectangle,17.33339361,-5.333344221,1,0,0,17.33339361,-5.333344221,1,0,0,0,93,93,152,1,,,,,,,,
,,,,,,,,,,,,,FF,,,,,,,,1.0164,,,,,,,,,,,,,,,,,,,,,,6102990f8b3b06f480d1ae4d,61036c85c47011d51cdbae6e,2021-07-29_22h11.09.236,Simcolourproject_2stim_asymm_v5,2020.2.10,Win32,60,61025ae37ef11b136ea224fe,,,,,,,,,72,-72.66660907,-51.66667894,1,0,0,response5disk,,2,7.333393315,-7.666677624,1,0,0,rectangle,7.333393315,-7.666677624,1,0,0,7.333393315,-7.666677624,1,0,0,0,94,94,121,1,,,,,,,,
,,,,,,,,,,,,,FF,,,,,,,,2.2473,,,,,,,,,,,,,,,,,,,,,,6102990f8b3b06f480d1ae4d,61036c85c47011d51cdbae6e,2021-07-29_22h11.09.236,Simcolourproject_2stim_asymm_v5,2020.2.10,Win32,60,61025ae37ef11b136ea224fe,,,,,,,,,1644,79.33335477,-30.00001162,1,0,0,response3disk,,5,-3.666607012,-1.07288E-05,1,0,0,rectangle,-3.666607012,-1.07288E-05,1,0,0,-3.666607012,-1.07288E-05,1,0,0,0,95,95,135,1,,,,,,,,
,,,,,,,,,,,,,FF,,,,,,,,1.0165,,,,,,,,,,,,,,,,,,,,,,6102990f8b3b06f480d1ae4d,61036c85c47011d51cdbae6e,2021-07-29_22h11.09.236,Simcolourproject_2stim_asymm_v5,2020.2.10,Win32,60,61025ae37ef11b136ea224fe,,,,,,,,,3502,77.66668805,-55.33334571,1,0,0,response3disk,,5,18.6666863,-7.000010937,1,0,0,rectangle,18.6666863,-7.000010937,1,0,0,18.6666863,-7.000010937,1,0,0,0,96,96,104,1,,,,,,,,
,,,,,,,,,,,,,FF,,,,,,,,0.9662,,,,,,,,,,,,,,,,,,,,,,6102990f8b3b06f480d1ae4d,61036c85c47011d51cdbae6e,2021-07-29_22h11.09.236,Simcolourproject_2stim_asymm_v5,2020.2.10,Win32,60,61025ae37ef11b136ea224fe,,,,,,,,,681,54.33335403,-99.66668037,1,0,0,response3disk,,4,-15.66660737,-7.000010937,1,0,0,rectangle,-15.66660737,-7.000010937,1,0,0,-15.66660737,-7.000010937,1,0,0,0,97,97,34,1,,,,,,,,
,,,,,,,,,,,,,FF,,,,,,,,1.0498,,,,,,,,,,,,,,,,,,,,,,6102990f8b3b06f480d1ae4d,61036c85c47011d51cdbae6e,2021-07-29_22h11.09.236,Simcolourproject_2stim_asymm_v5,2020.2.10,Win32,60,61025ae37ef11b136ea224fe,,,,,,,,,3968,-36.99998203,-59.33334583,1,0,0,response5disk,,3,-11.3333146,1.999989331,1,0,0,rectangle,-11.3333146,1.999989331,1,0,0,-11.3333146,1.999989331,1,0,0,0,98,98,52,1,,,,,,,,
,,,,,,,,,,,,,FF,,,,,,,,0.9668,,,,,,,,,,,,,,,,,,,,,,6102990f8b3b06f480d1ae4d,61036c85c47011d51cdbae6e,2021-07-29_22h11.09.236,Simcolourproject_2stim_asymm_v5,2020.2.10,Win32,60,61025ae37ef11b136ea224fe,,,,,,,,,948,37.33339421,-72.66667956,1,0,0,response3disk,,4,0.333393107,11.66665629,1,0,0,rectangle,0.333393107,11.66665629,1,0,0,0.333393107,11.66665629,1,0,0,0,99,99,9,1,,,,,,,,
,,,,,,,,,,,,,FF,,,,,,,,1.3995,,,,,,,,,,,,,,,,,,,,,,6102990f8b3b06f480d1ae4d,61036c85c47011d51cdbae6e,2021-07-29_22h11.09.236,Simcolourproject_2stim_asymm_v5,2020.2.10,Win32,60,61025ae37ef11b136ea224fe,,,,,,,,,4236,-53.6666085,-62.66667926,1,0,0,response5disk,,3,-17.66660743,-14.33334449,1,0,0,rectangle,-17.66660743,-14.33334449,1,0,0,-17.66660743,-14.33334449,1,0,0,0,100,100,90,1,,,,,,,,
,,,,,,,,,,,,,FF,,,,,,,,1.0997,,,,,,,,,,,,,,,,,,,,,,6102990f8b3b06f480d1ae4d,61036c85c47011d51cdbae6e,2021-07-29_22h11.09.236,Simcolourproject_2stim_asymm_v5,2020.2.10,Win32,60,61025ae37ef11b136ea224fe,,,,,,,,,1766,-34.99998197,-83.66667989,1,0,0,response5disk,,3,-1.999980986,12.33332297,1,0,0,rectangle,-1.999980986,12.33332297,1,0,0,-1.999980986,12.33332297,1,0,0,0,101,101,99,1,,,,,,,,
,,,,,,,,,,,,,FF,,,,,,,,1.1999,,,,,,,,,,,,,,,,,,,,,,6102990f8b3b06f480d1ae4d,61036c85c47011d51cdbae6e,2021-07-29_22h11.09.236,Simcolourproject_2stim_asymm_v5,2020.2.10,Win32,60,61025ae37ef11b136ea224fe,,,,,,,,,1614,-21.3333149,-52.00001228,1,0,0,response5disk,,3,5.333393256,7.99998951,1,0,0,rectangle,5.333393256,7.99998951,1,0,0,5.333393256,7.99998951,1,0,0,0,102,102,27,1,,,,,,,,
,,,,,,,,,,,,,FF,,,,,,,,0.8663,,,,,,,,,,,,,,,,,,,,,,6102990f8b3b06f480d1ae4d,61036c85c47011d51cdbae6e,2021-07-29_22h11.09.236,Simcolourproject_2stim_asymm_v5,2020.2.10,Win32,60,61025ae37ef11b136ea224fe,,,,,,,,,1566,26.00001985,-58.66667914,1,0,0,response3disk,,4,-7.666607132,-9.000010997,1,0,0,rectangle,-7.666607132,-9.000010997,1,0,0,-7.666607132,-9.000010997,1,0,0,0,103,103,115,1,,,,,,,,
,,,,,,,,,,,,,FF,,,,,,,,1.1334,,,,,,,,,,,,,,,,,,,,,,6102990f8b3b06f480d1ae4d,61036c85c47011d51cdbae6e,2021-07-29_22h11.09.236,Simcolourproject_2stim_asymm_v5,2020.2.10,Win32,60,61025ae37ef11b136ea224fe,,,,,,,,,578,48.66668719,-63.66667929,1,0,0,response3disk,,4,2.000019133,-6.666677594,1,0,0,rectangle,2.000019133,-6.666677594,1,0,0,2.000019133,-6.666677594,1,0,0,0,104,104,151,1,,,,,,,,
,,,,,,,,,,,,,FF,,,,,,,,1.3495,,,,,,,,,,,,,,,,,,,,,,6102990f8b3b06f480d1ae4d,61036c85c47011d51cdbae6e,2021-07-29_22h11.09.236,Simcolourproject_2stim_asymm_v5,2020.2.10,Win32,60,61025ae37ef11b136ea224fe,,,,,,,,,4177,68.33335444,-45.33334541,1,0,0,response3disk,,5,-13.33331466,1.666655988,1,0,0,rectangle,-13.33331466,1.666655988,1,0,0,-13.33331466,1.666655988,1,0,0,0,105,105,4,1,,,,,,,,
,,,,,,,,,,,,,FF,,,,,,,,1.5833,,,,,,,,,,,,,,,,,,,,,,6102990f8b3b06f480d1ae4d,61036c85c47011d51cdbae6e,2021-07-29_22h11.09.236,Simcolourproject_2stim_asymm_v5,2020.2.10,Win32,60,61025ae37ef11b136ea224fe,,,,,,,,,4291,54.00002068,49.33330373,1,0,0,response1disk,,6,-10.66660722,-13.33334446,1,0,0,rectangle,-64.33331618,43.66665724,1,0,0,-11.99998128,-6.333344251,1,0,0,0,106,106,120,1,,response7disk_3,TRUE,1,1,"[297,44,111,320,107,307,126,228,221,154,303,30,323,250,149,32,163,42,56,62]",1.6823,rectangle
,,,,,,,,,,,,,FF,,,,,,,,1.4164,,,,,,,,,,,,,,,,,,,,,,6102990f8b3b06f480d1ae4d,61036c85c47011d51cdbae6e,2021-07-29_22h11.09.236,Simcolourproject_2stim_asymm_v5,2020.2.10,Win32,60,61025ae37ef11b136ea224fe,,,,,,,,,3493,77.66668805,-34.66667843,1,0,0,response3disk,,5,10.3333934,10.33332291,1,0,0,rectangle,10.3333934,10.33332291,1,0,0,10.3333934,10.33332291,1,0,0,0,107,107,119,1,,,,,,,,
,,,,,,,,,,,,,FF,,,,,,,,0.8497,,,,,,,,,,,,,,,,,,,,,,6102990f8b3b06f480d1ae4d,61036c85c47011d51cdbae6e,2021-07-29_22h11.09.236,Simcolourproject_2stim_asymm_v5,2020.2.10,Win32,60,61025ae37ef11b136ea224fe,,,,,,,,,4232,49.00002053,-21.3333447,1,0,0,response3disk,,5,15.33339355,-8.333344311,1,0,0,rectangle,15.33339355,-8.333344311,1,0,0,15.33339355,-8.333344311,1,0,0,0,108,108,140,1,,,,,,,,
,,,,,,,,,,,,,FF,,,,,,,,0.9661,,,,,,,,,,,,,,,,,,,,,,6102990f8b3b06f480d1ae4d,61036c85c47011d51cdbae6e,2021-07-29_22h11.09.236,Simcolourproject_2stim_asymm_v5,2020.2.10,Win32,60,61025ae37ef11b136ea224fe,,,,,,,,,349,-35.33331531,-55.33334571,1,0,0,response5disk,,3,-3.333314359,-11.66667774,1,0,0,rectangle,-3.333314359,-11.66667774,1,0,0,-3.333314359,-11.66667774,1,0,0,0,109,109,94,1,,,,,,,,
,,,,,,,,,,,,,FF,,,,,,,,1.3505,,,,,,,,,,,,,,,,,,,,,,6102990f8b3b06f480d1ae4d,61036c85c47011d51cdbae6e,2021-07-29_22h11.09.236,Simcolourproject_2stim_asymm_v5,2020.2.10,Win32,60,61025ae37ef11b136ea224fe,,,,,,,,,1927,94.00002187,-48.66667885,1,0,0,response3disk,,5,5.666685909,8.999989539,1,0,0,rectangle,-52.66660847,19.66665652,1,0,0,9.333393375,8.333322853,1,0,0,0,110,110,149,1,,response7disk_3,TRUE,1,1,"[297,44,111,320,107,307,126,228,221,154,303,30,323,250,149,32,163,42,56,62]",1.4169,rectangle
,,,,,,,,,,,,,FF,,,,,,,,1.2162,,,,,,,,,,,,,,,,,,,,,,6102990f8b3b06f480d1ae4d,61036c85c47011d51cdbae6e,2021-07-29_22h11.09.236,Simcolourproject_2stim_asymm_v5,2020.2.10,Win32,60,61025ae37ef11b136ea224fe,,,,,,,,,1405,82.33335486,-30.00001162,1,0,0,response3disk,,5,-7.999981165,-7.000010937,1,0,0,rectangle,-7.999981165,-7.000010937,1,0,0,-7.999981165,-7.000010937,1,0,0,0,111,111,132,1,,,,,,,,
,,,,,,,,,,,,,FF,,,,,,,,0.7997,,,,,,,,,,,,,,,,,,,,,,6102990f8b3b06f480d1ae4d,61036c85c47011d51cdbae6e,2021-07-29_22h11.09.236,Simcolourproject_2stim_asymm_v5,2020.2.10,Win32,60,61025ae37ef11b136ea224fe,,,,,,,,,2212,60.00002086,-33.00001171,1,0,0,response3disk,,5,-7.666607132,-4.333344191,1,0,0,rectangle,-7.666607132,-4.333344191,1,0,0,-7.666607132,-4.333344191,1,0,0,0,112,112,105,1,,,,,,,,
,,,,,,,,,,,,,FF,,,,,,,,0.9665,,,,,,,,,,,,,,,,,,,,,,6102990f8b3b06f480d1ae4d,61036c85c47011d51cdbae6e,2021-07-29_22h11.09.236,Simcolourproject_2stim_asymm_v5,2020.2.10,Win32,60,61025ae37ef11b136ea224fe,,,,,,,,,4300,86.00002164,-53.00001231,1,0,0,response3disk,,5,-9.999981225,-8.666677654,1,0,0,rectangle,-9.999981225,-8.666677654,1,0,0,-9.999981225,-8.666677654,1,0,0,0,113,113,79,1,,,,,,,,
,,,,,,,,,,,,,FF,,,,,,,,0.8833,,,,,,,,,,,,,,,,,,,,,,6102990f8b3b06f480d1ae4d,61036c85c47011d51cdbae6e,2021-07-29_22h11.09.236,Simcolourproject_2stim_asymm_v5,2020.2.10,Win32,60,61025ae37ef11b136ea224fe,,,,,,,,,2693,72.66668791,-49.00001219,1,0,0,response3disk,,5,15.00001952,6.333322793,1,0,0,rectangle,15.00001952,6.333322793,1,0,0,15.00001952,6.333322793,1,0,0,0,114,114,11,1,,,,,,,,
,,,,,,,,,,,,,FF,,,,,,,,0.8165,,,,,,,,,,,,,,,,,,,,,,6102990f8b3b06f480d1ae4d,61036c85c47011d51cdbae6e,2021-07-29_22h11.09.236,Simcolourproject_2stim_asymm_v5,2020.2.10,Win32,60,61025ae37ef11b136ea224fe,,,,,,,,,3455,65.00002101,-30.33334497,1,0,0,response3disk,,5,-3.999981046,13.333323,1,0,0,rectangle,-3.999981046,13.333323,1,0,0,-3.999981046,13.333323,1,0,0,0,115,115,124,1,,,,,,,,
,,,,,,,,,,,,,FF,,,,,,,,0.8167,,,,,,,,,,,,,,,,,,,,,,6102990f8b3b06f480d1ae4d,61036c85c47011d51cdbae6e,2021-07-29_22h11.09.236,Simcolourproject_2stim_asymm_v5,2020.2.10,Win32,60,61025ae37ef11b136ea224fe,,,,,,,,,285,88.0000217,-33.00001171,1,0,0,response3disk,,5,11.0000194,-1.07288E-05,1,0,0,rectangle,11.0000194,-1.07288E-05,1,0,0,11.0000194,-1.07288E-05,1,0,0,0,116,116,54,1,,,,,,,,
,,,,,,,,,,,,,FF,,,,,,,,0.75,,,,,,,,,,,,,,,,,,,,,,6102990f8b3b06f480d1ae4d,61036c85c47011d51cdbae6e,2021-07-29_22h11.09.236,Simcolourproject_2stim_asymm_v5,2020.2.10,Win32,60,61025ae37ef11b136ea224fe,,,,,,,,,1641,74.66668797,-39.33334523,1,0,0,response3disk,,5,18.6666863,-2.000010788,1,0,0,rectangle,18.6666863,-2.000010788,1,0,0,18.6666863,-2.000010788,1,0,0,0,117,117,0,1,,,,,,,,
,,,,,,,,,,,,,FF,,,,,,,,1.0662,,,,,,,,,,,,,,,,,,,,,,6102990f8b3b06f480d1ae4d,61036c85c47011d51cdbae6e,2021-07-29_22h11.09.236,Simcolourproject_2stim_asymm_v5,2020.2.10,Win32,60,61025ae37ef11b136ea224fe,,,,,,,,,1975,-46.99998233,-50.66667891,1,0,0,response5disk,,3,-14.99998137,-0.666677415,1,0,0,rectangle,-14.99998137,-0.666677415,1,0,0,-14.99998137,-0.666677415,1,0,0,0,118,118,13,1,,,,,,,,
,,,,,,,,,,,,,FF,,,,,,,,0.9163,,,,,,,,,,,,,,,,,,,,,,6102990f8b3b06f480d1ae4d,61036c85c47011d51cdbae6e,2021-07-29_22h11.09.236,Simcolourproject_2stim_asymm_v5,2020.2.10,Win32,60,61025ae37ef11b136ea224fe,,,,,,,,,1343,101.3333554,-49.66667888,1,0,0,response3disk,,5,19.66668633,2.333322674,1,0,0,rectangle,19.66668633,2.333322674,1,0,0,19.66668633,2.333322674,1,0,0,0,119,119,31,1,,,,,,,,
,,,,,,,,,,,,,FF,,,,,,,,0.8828,,,,,,,,,,,,,,,,,,,,,,6102990f8b3b06f480d1ae4d,61036c85c47011d51cdbae6e,2021-07-29_22h11.09.236,Simcolourproject_2stim_asymm_v5,2020.2.10,Win32,60,61025ae37ef11b136ea224fe,,,,,,,,,4094,54.00002068,-23.33334476,1,0,0,response3disk,,5,6.333393286,4.333322734,1,0,0,rectangle,6.333393286,4.333322734,1,0,0,6.333393286,4.333322734,1,0,0,0,120,120,66,1,,,,,,,,
,,,,,,,,,,,,,FF,,,,,,,,0.9995,,,,,,,,,,,,,,,,,,,,,,6102990f8b3b06f480d1ae4d,61036c85c47011d51cdbae6e,2021-07-29_22h11.09.236,Simcolourproject_2stim_asymm_v5,2020.2.10,Win32,60,61025ae37ef11b136ea224fe,,,,,,,,,468,-30.99998185,-54.66667902,1,0,0,response5disk,,3,-4.666607042,-1.333344102,1,0,0,rectangle,-4.666607042,-1.333344102,1,0,0,-4.666607042,-1.333344102,1,0,0,0,121,121,84,1,,,,,,,,
,,,,,,,,,,,,,FF,,,,,,,,0.8501,,,,,,,,,,,,,,,,,,,,,,6102990f8b3b06f480d1ae4d,61036c85c47011d51cdbae6e,2021-07-29_22h11.09.236,Simcolourproject_2stim_asymm_v5,2020.2.10,Win32,60,61025ae37ef11b136ea224fe,,,,,,,,,4145,-38.3333154,-38.66667855,1,0,0,response5disk,,3,-16.99998143,0.333322614,1,0,0,rectangle,-16.99998143,0.333322614,1,0,0,-16.99998143,0.333322614,1,0,0,0,122,122,20,1,,,,,,,,
,,,,,,,,,,,,,FF,,,,,,,,0.9839,,,,,,,,,,,,,,,,,,,,,,6102990f8b3b06f480d1ae4d,61036c85c47011d51cdbae6e,2021-07-29_22h11.09.236,Simcolourproject_2stim_asymm_v5,2020.2.10,Win32,60,61025ae37ef11b136ea224fe,,,,,,,,,3367,74.33335462,-31.66667834,1,0,0,response3disk,,5,5.333393256,5.333322763,1,0,0,rectangle,5.333393256,5.333322763,1,0,0,5.333393256,5.333322763,1,0,0,0,123,123,108,1,,,,,,,,
,,,,,,,,,,,,,FF,,,,,,,,1.4165,,,,,,,,,,,,,,,,,,,,,,6102990f8b3b06f480d1ae4d,61036c85c47011d51cdbae6e,2021-07-29_22h11.09.236,Simcolourproject_2stim_asymm_v5,2020.2.10,Win32,60,61025ae37ef11b136ea224fe,,,,,,,,,2036,68.66668779,-84.00001323,1,0,0,response3disk,,4,13.00001946,1.333322644,1,0,0,rectangle,13.00001946,1.333322644,1,0,0,13.00001946,1.333322644,1,0,0,0,124,124,130,1,,,,,,,,
,,,,,,,,,,,,,FF,,,,,,,,0.9,,,,,,,,,,,,,,,,,,,,,,6102990f8b3b06f480d1ae4d,61036c85c47011d51cdbae6e,2021-07-29_22h11.09.236,Simcolourproject_2stim_asymm_v5,2020.2.10,Win32,60,61025ae37ef11b136ea224fe,,,,,,,,,2270,86.66668832,-43.33334535,1,0,0,response3disk,,5,-6.666607102,6.666656137,1,0,0,rectangle,65.6666877,48.99999073,1,0,0,3.666685849,-0.666677415,1,0,0,0,125,125,138,1,,response1disk_3,TRUE,6,6,"[297,44,111,320,107,307,126,228,221,154,303,30,323,250,149,32,163,42,56,62]",1.6998,rectangle
,,,,,,,,,,,,,FF,,,,,,,,2.1828,,,,,,,,,,,,,,,,,,,,,,6102990f8b3b06f480d1ae4d,61036c85c47011d51cdbae6e,2021-07-29_22h11.09.236,Simcolourproject_2stim_asymm_v5,2020.2.10,Win32,60,61025ae37ef11b136ea224fe,,,,,,,,,2780,83.33335489,-57.33334577,1,0,0,response3disk,,5,-12.99998131,3.666656047,1,0,0,rectangle,-12.99998131,3.666656047,1,0,0,-12.99998131,3.666656047,1,0,0,0,126,126,93,1,,,,,,,,
,,,,,,,,,,,,,FF,,,,,,,,0.7663,,,,,,,,,,,,,,,,,,,,,,6102990f8b3b06f480d1ae4d,61036c85c47011d51cdbae6e,2021-07-29_22h11.09.236,Simcolourproject_2stim_asymm_v5,2020.2.10,Win32,60,61025ae37ef11b136ea224fe,,,,,,,,,2649,59.00002083,-42.00001198,1,0,0,response3disk,,5,-5.666607072,-3.000010818,1,0,0,rectangle,-5.666607072,-3.000010818,1,0,0,-5.666607072,-3.000010818,1,0,0,0,127,127,88,1,,,,,,,,
,,,,,,,,,,,,,FF,,,,,,,,0.7496,,,,,,,,,,,,,,,,,,,,,,6102990f8b3b06f480d1ae4d,61036c85c47011d51cdbae6e,2021-07-29_22h11.09.236,Simcolourproject_2stim_asymm_v5,2020.2.10,Win32,60,61025ae37ef11b136ea224fe,,,,,,,,,3325,86.33335498,-46.0000121,1,0,0,response3disk,,5,10.66668606,6.666656137,1,0,0,rectangle,10.66668606,6.666656137,1,0,0,10.66668606,6.666656137,1,0,0,0,128,128,129,1,,,,,,,,
,,,,,,,,,,,,,FF,,,,,,,,0.7998,,,,,,,,,,,,,,,,,,,,,,6102990f8b3b06f480d1ae4d,61036c85c47011d51cdbae6e,2021-07-29_22h11.09.236,Simcolourproject_2stim_asymm_v5,2020.2.10,Win32,60,61025ae37ef11b136ea224fe,,,,,,,,,339,68.33335444,-31.66667834,1,0,0,response3disk,,5,9.333393375,4.99998942,1,0,0,rectangle,9.333393375,4.99998942,1,0,0,9.333393375,4.99998942,1,0,0,0,129,129,134,1,,,,,,,,
,,,,,,,,,,,,,FF,,,,,,,,1.2498,,,,,,,,,,,,,,,,,,,,,,6102990f8b3b06f480d1ae4d,61036c85c47011d51cdbae6e,2021-07-29_22h11.09.236,Simcolourproject_2stim_asymm_v5,2020.2.10,Win32,60,61025ae37ef11b136ea224fe,,,,,,,,,3826,-29.66660779,-67.33334607,1,0,0,response5disk,,3,1.9735E-05,3.99998939,1,0,0,rectangle,1.9735E-05,3.99998939,1,0,0,1.9735E-05,3.99998939,1,0,0,0,130,130,78,1,,,,,,,,
,,,,,,,,,,,,,FF,,,,,,,,1.0495,,,,,,,,,,,,,,,,,,,,,,6102990f8b3b06f480d1ae4d,61036c85c47011d51cdbae6e,2021-07-29_22h11.09.236,Simcolourproject_2stim_asymm_v5,2020.2.10,Win32,60,61025ae37ef11b136ea224fe,,,,,,,,,3165,-30.66660782,-58.3333458,1,0,0,response5disk,,3,2.000019133,-6.666677594,1,0,0,rectangle,2.000019133,-6.666677594,1,0,0,2.000019133,-6.666677594,1,0,0,0,131,131,10,1,,,,,,,,
,,,,,,,,,,,,,FF,,,,,,,,0.8344,,,,,,,,,,,,,,,,,,,,,,6102990f8b3b06f480d1ae4d,61036c85c47011d51cdbae6e,2021-07-29_22h11.09.236,Simcolourproject_2stim_asymm_v5,2020.2.10,Win32,60,61025ae37ef11b136ea224fe,,,,,,,,,1330,-37.33331537,-54.33334568,1,0,0,response5disk,,3,-15.66660737,-0.666677415,1,0,0,rectangle,-15.66660737,-0.666677415,1,0,0,-15.66660737,-0.666677415,1,0,0,0,132,132,136,1,,,,,,,,
,,,,,,,,,,,,,FF,,,,,,,,1.1333,,,,,,,,,,,,,,,,,,,,,,6102990f8b3b06f480d1ae4d,61036c85c47011d51cdbae6e,2021-07-29_22h11.09.236,Simcolourproject_2stim_asymm_v5,2020.2.10,Win32,60,61025ae37ef11b136ea224fe,,,,,,,,,801,-67.99998295,-23.00001141,1,0,0,response5disk,,2,-0.999980956,4.99998942,1,0,0,rectangle,-0.999980956,4.99998942,1,0,0,-0.999980956,4.99998942,1,0,0,0,133,133,133,1,,,,,,,,
,,,,,,,,,,,,,FF,,,,,,,,1.0333,,,,,,,,,,,,,,,,,,,,,,6102990f8b3b06f480d1ae4d,61036c85c47011d51cdbae6e,2021-07-29_22h11.09.236,Simcolourproject_2stim_asymm_v5,2020.2.10,Win32,60,61025ae37ef11b136ea224fe,,,,,,,,,1160,89.66668841,50.66665745,1,0,0,response1disk,,6,-6.333314449,-7.000010937,1,0,0,rectangle,-6.333314449,-7.000010937,1,0,0,-6.333314449,-7.000010937,1,0,0,0,134,134,40,1,,,,,,,,
,,,,,,,,,,,,,FF,,,,,,,,0.9162,,,,,,,,,,,,,,,,,,,,,,6102990f8b3b06f480d1ae4d,61036c85c47011d51cdbae6e,2021-07-29_22h11.09.236,Simcolourproject_2stim_asymm_v5,2020.2.10,Win32,60,61025ae37ef11b136ea224fe,,,,,,,,,1865,69.33335447,-35.33334512,1,0,0,response3disk,,5,-8.666607161,0.333322614,1,0,0,rectangle,-8.666607161,0.333322614,1,0,0,-8.666607161,0.333322614,1,0,0,0,135,135,142,1,,,,,,,,
,,,,,,,,,,,,,FF,,,,,,,,0.7831,,,,,,,,,,,,,,,,,,,,,,6102990f8b3b06f480d1ae4d,61036c85c47011d51cdbae6e,2021-07-29_22h11.09.236,Simcolourproject_2stim_asymm_v5,2020.2.10,Win32,60,61025ae37ef11b136ea224fe,,,,,,,,,856,42.66668701,-27.33334488,1,0,0,response3disk,,5,-0.33331427,-1.666677445,1,0,0,rectangle,-0.33331427,-1.666677445,1,0,0,-0.33331427,-1.666677445,1,0,0,0,136,136,158,1,,,,,,,,
,,,,,,,,,,,,,FF,,,,,,,,0.729,,,,,,,,,,,,,,,,,,,,,,6102990f8b3b06f480d1ae4d,61036c85c47011d51cdbae6e,2021-07-29_22h11.09.236,Simcolourproject_2stim_asymm_v5,2020.2.10,Win32,60,61025ae37ef11b136ea224fe,,,,,,,,,1079,71.66668788,-40.00001192,1,0,0,response3disk,,5,-4.999981076,3.333322704,1,0,0,rectangle,-4.999981076,3.333322704,1,0,0,-4.999981076,3.333322704,1,0,0,0,137,137,14,1,,,,,,,,
,,,,,,,,,,,,,FF,,,,,,,,0.983,,,,,,,,,,,,,,,,,,,,,,6102990f8b3b06f480d1ae4d,61036c85c47011d51cdbae6e,2021-07-29_22h11.09.236,Simcolourproject_2stim_asymm_v5,2020.2.10,Win32,60,61025ae37ef11b136ea224fe,,,,,,,,,2330,81.00002149,48.66665739,1,0,0,response1disk,,6,-13.99998134,-5.000010878,1,0,0,rectangle,-13.99998134,-5.000010878,1,0,0,-13.99998134,-5.000010878,1,0,0,0,138,138,62,1,,,,,,,,
,,,,,,,,,,,,,FF,,,,,,,,0.9664,,,,,,,,,,,,,,,,,,,,,,6102990f8b3b06f480d1ae4d,61036c85c47011d51cdbae6e,2021-07-29_22h11.09.236,Simcolourproject_2stim_asymm_v5,2020.2.10,Win32,60,61025ae37ef11b136ea224fe,,,,,,,,,1904,56.33335409,-59.00001249,1,0,0,response3disk,,4,3.666685849,-6.666677594,1,0,0,rectangle,3.666685849,-6.666677594,1,0,0,3.666685849,-6.666677594,1,0,0,0,139,139,91,1,,,,,,,,
,,,,,,,,,,,,,FF,,,,,,,,1.033,,,,,,,,,,,,,,,,,,,,,,6102990f8b3b06f480d1ae4d,61036c85c47011d51cdbae6e,2021-07-29_22h11.09.236,Simcolourproject_2stim_asymm_v5,2020.2.10,Win32,60,61025ae37ef11b136ea224fe,,,,,,,,,1702,-40.33331546,-46.33334544,1,0,0,response5disk,,3,-24.66660764,5.333322763,1,0,0,rectangle,-24.66660764,5.333322763,1,0,0,-24.66660764,5.333322763,1,0,0,0,140,140,35,1,,,,,,,,
,,,,,,,,,,,,,FF,,,,,,,,0.7834,,,,,,,,,,,,,,,,,,,,,,6102990f8b3b06f480d1ae4d,61036c85c47011d51cdbae6e,2021-07-29_22h11.09.236,Simcolourproject_2stim_asymm_v5,2020.2.10,Win32,60,61025ae37ef11b136ea224fe,,,,,,,,,1253,-50.33331576,-55.00001237,1,0,0,response5disk,,3,2.000019133,2.666656017,1,0,0,rectangle,2.000019133,2.666656017,1,0,0,2.000019133,2.666656017,1,0,0,0,141,141,32,1,,,,,,,,
,,,,,,,,,,,,,FF,,,,,,,,0.8168,,,,,,,,,,,,,,,,,,,,,,6102990f8b3b06f480d1ae4d,61036c85c47011d51cdbae6e,2021-07-29_22h11.09.236,Simcolourproject_2stim_asymm_v5,2020.2.10,Win32,60,61025ae37ef11b136ea224fe,,,,,,,,,2869,68.0000211,-50.33334556,1,0,0,response3disk,,5,20.00001967,-10.00001103,1,0,0,rectangle,20.00001967,-10.00001103,1,0,0,20.00001967,-10.00001103,1,0,0,0,142,142,12,1,,,,,,,,
,,,,,,,,,,,,,FF,,,,,,,,1.4997,,,,,,,,,,,,,,,,,,,,,,6102990f8b3b06f480d1ae4d,61036c85c47011d51cdbae6e,2021-07-29_22h11.09.236,Simcolourproject_2stim_asymm_v5,2020.2.10,Win32,60,61025ae37ef11b136ea224fe,,,,,,,,,1247,63.33335429,-39.00001189,1,0,0,response3disk,,5,-4.333312988,-9.666687012,1,0,0,rectangle,-4.333312988,-9.666687012,1,0,0,-4.333312988,-9.666687012,1,0,0,0,143,143,69,1,,,,,,,,
,,,,,,,,,,,,,FF,,,,,,,,1.6831,,,,,,,,,,,,,,,,,,,,,,6102990f8b3b06f480d1ae4d,61036c85c47011d51cdbae6e,2021-07-29_22h11.09.236,Simcolourproject_2stim_asymm_v5,2020.2.10,Win32,60,61025ae37ef11b136ea224fe,,,,,,,,,1985,74.66668797,25.6666567,1,0,0,response1disk,,6,-8.666625977,1.333312988,1,0,0,rectangle,-8.666625977,1.333312988,1,0,0,-8.666625977,1.333312988,1,0,0,0,144,144,8,1,,,,,,,,
,,,,,,,,,,,,,FF,,,,,,,,1.5553,,,,,,,,,,,,,,,,,,,,,,6102990f8b3b06f480d1ae4d,61036c85c47011d51cdbae6e,2021-07-29_22h11.09.236,Simcolourproject_2stim_asymm_v5,2020.2.10,Win32,60,61025ae37ef11b136ea224fe,,,,,,,,,1062,71.33335453,-29.00001159,1,0,0,response3disk,,5,0.666687012,0,1,0,0,rectangle,0.666687012,0,1,0,0,0.666687012,0,1,0,0,0,145,145,154,1,,,,,,,,
,,,,,,,,,,,,,FF,,,,,,,,1.3031,,,,,,,,,,,,,,,,,,,,,,6102990f8b3b06f480d1ae4d,61036c85c47011d51cdbae6e,2021-07-29_22h11.09.236,Simcolourproject_2stim_asymm_v5,2020.2.10,Win32,60,61025ae37ef11b136ea224fe,,,,,,,,,3901,-36.666608,-56.33334574,1,0,0,response5disk,,3,1.333374023,-2.333343506,1,0,0,rectangle,1.333374023,-2.333343506,1,0,0,1.333374023,-2.333343506,1,0,0,0,146,146,3,1,,,,,,,,
,,,,,,,,,,,,,FF,,,,,,,,1.8334,,,,,,,,,,,,,,,,,,,,,,6102990f8b3b06f480d1ae4d,61036c85c47011d51cdbae6e,2021-07-29_22h11.09.236,Simcolourproject_2stim_asymm_v5,2020.2.10,Win32,60,61025ae37ef11b136ea224fe,,,,,,,,,1177,77.33335471,-19.0000113,1,0,0,response3disk,,5,1,9.333312988,1,0,0,rectangle,1,9.333312988,1,0,0,1,9.333312988,1,0,0,0,147,147,77,1,,,,,,,,
,,,,,,,,,,,,,FF,,,,,,,,1.1663,,,,,,,,,,,,,,,,,,,,,,6102990f8b3b06f480d1ae4d,61036c85c47011d51cdbae6e,2021-07-29_22h11.09.236,Simcolourproject_2stim_asymm_v5,2020.2.10,Win32,60,61025ae37ef11b136ea224fe,,,,,,,,,218,-49.99998242,-50.66667891,1,0,0,response5disk,,3,2.666687012,2.666656494,1,0,0,rectangle,43.00002035,-74.66667962,1,0,0,-2,-6,1,0,0,0,148,148,16,1,,response3disk_3,TRUE,4,4,"[297,44,111,320,107,307,126,228,221,154,303,30,323,250,149,32,163,42,56,62]",1.6996,rectangle
,,,,,,,,,,,,,FF,,,,,,,,1.2162,,,,,,,,,,,,,,,,,,,,,,6102990f8b3b06f480d1ae4d,61036c85c47011d51cdbae6e,2021-07-29_22h11.09.236,Simcolourproject_2stim_asymm_v5,2020.2.10,Win32,60,61025ae37ef11b136ea224fe,,,,,,,,,65,-38.99998209,-83.0000132,1,0,0,response5disk,,3,-16.33331299,0,1,0,0,rectangle,-16.33331299,0,1,0,0,-16.33331299,0,1,0,0,0,149,149,46,1,,,,,,,,
,,,,,,,,,,,,,FF,,,,,,,,1.1668,,,,,,,,,,,,,,,,,,,,,,6102990f8b3b06f480d1ae4d,61036c85c47011d51cdbae6e,2021-07-29_22h11.09.236,Simcolourproject_2stim_asymm_v5,2020.2.10,Win32,60,61025ae37ef11b136ea224fe,,,,,,,,,2086,57.33335412,-77.00001302,1,0,0,response3disk,,4,14,-9,1,0,0,rectangle,14,-9,1,0,0,14,-9,1,0,0,0,150,150,60,1,,,,,,,,
,,,,,,,,,,,,,FF,,,,,,,,1.1661,,,,,,,,,,,,,,,,,,,,,,6102990f8b3b06f480d1ae4d,61036c85c47011d51cdbae6e,2021-07-29_22h11.09.236,Simcolourproject_2stim_asymm_v5,2020.2.10,Win32,60,61025ae37ef11b136ea224fe,,,,,,,,,3841,49.33335388,-63.00001261,1,0,0,response3disk,,4,-3.666625977,1.666656494,1,0,0,rectangle,-3.666625977,1.666656494,1,0,0,-3.666625977,1.666656494,1,0,0,0,151,151,159,1,,,,,,,,
,,,,,,,,,,,,,FF,,,,,,,,1.9331,,,,,,,,,,,,,,,,,,,,,,6102990f8b3b06f480d1ae4d,61036c85c47011d51cdbae6e,2021-07-29_22h11.09.236,Simcolourproject_2stim_asymm_v5,2020.2.10,Win32,60,61025ae37ef11b136ea224fe,,,,,,,,,3660,-75.66660916,-34.00001174,1,0,0,response5disk,,2,2.333374023,1.333312988,1,0,0,rectangle,2.333374023,1.333312988,1,0,0,2.333374023,1.333312988,1,0,0,0,152,152,49,1,,,,,,,,
,,,,,,,,,,,,,FF,,,,,,,,0.9822,,,,,,,,,,,,,,,,,,,,,,6102990f8b3b06f480d1ae4d,61036c85c47011d51cdbae6e,2021-07-29_22h11.09.236,Simcolourproject_2stim_asymm_v5,2020.2.10,Win32,60,61025ae37ef11b136ea224fe,,,,,,,,,1264,105.3333555,-36.33334514,1,0,0,response3disk,,5,13.33337402,0.666656494,1,0,0,rectangle,34.33339412,103.9999924,1,0,0,-2,-6.333343506,1,0,0,0,153,153,157,1,,response1disk_3,TRUE,7,7,"[297,44,111,320,107,307,126,228,221,154,303,30,323,250,149,32,163,42,56,62]",1.9823,rectangle
,,,,,,,,,,,,,FF,,,,,,,,1.0164,,,,,,,,,,,,,,,,,,,,,,6102990f8b3b06f480d1ae4d,61036c85c47011d51cdbae6e,2021-07-29_22h11.09.236,Simcolourproject_2stim_asymm_v5,2020.2.10,Win32,60,61025ae37ef11b136ea224fe,,,,,,,,,3783,-40.99998215,-48.3333455,1,0,0,response5disk,,3,6.666687012,-10,1,0,0,rectangle,6.666687012,-10,1,0,0,6.666687012,-10,1,0,0,0,154,154,101,1,,,,,,,,
,,,,,,,,,,,,,FF,,,,,,,,1.9634,,,,,,,,,,,,,,,,,,,,,,6102990f8b3b06f480d1ae4d,61036c85c47011d51cdbae6e,2021-07-29_22h11.09.236,Simcolourproject_2stim_asymm_v5,2020.2.10,Win32,60,61025ae37ef11b136ea224fe,,,,,,,,,4246,29.00001994,-94.33334687,1,0,0,response3disk,,4,-10.33331299,1.666656494,1,0,0,rectangle,-10.33331299,1.666656494,1,0,0,-10.33331299,1.666656494,1,0,0,0,155,155,123,1,,,,,,,,
,,,,,,,,,,,,,FF,,,,,,,,1.2664,,,,,,,,,,,,,,,,,,,,,,6102990f8b3b06f480d1ae4d,61036c85c47011d51cdbae6e,2021-07-29_22h11.09.236,Simcolourproject_2stim_asymm_v5,2020.2.10,Win32,60,61025ae37ef11b136ea224fe,,,,,,,,,3800,69.33335447,48.66665739,1,0,0,response1disk,,6,-2.333312988,-13.66668701,1,0,0,rectangle,-2.333312988,-13.66668701,1,0,0,-2.333312988,-13.66668701,1,0,0,0,156,156,59,1,,,,,,,,
,,,,,,,,,,,,,FF,,,,,,,,0.9331,,,,,,,,,,,,,,,,,,,,,,6102990f8b3b06f480d1ae4d,61036c85c47011d51cdbae6e,2021-07-29_22h11.09.236,Simcolourproject_2stim_asymm_v5,2020.2.10,Win32,60,61025ae37ef11b136ea224fe,,,,,,,,,1237,73.33335459,61.66665778,1,0,0,response1disk,,6,-1,-14.33334351,1,0,0,rectangle,-1,-14.33334351,1,0,0,-1,-14.33334351,1,0,0,0,157,157,141,1,,,,,,,,
,,,,,,,,,,,,,FF,,,,,,,,0.9828,,,,,,,,,,,,,,,,,,,,,,6102990f8b3b06f480d1ae4d,61036c85c47011d51cdbae6e,2021-07-29_22h11.09.236,Simcolourproject_2stim_asymm_v5,2020.2.10,Win32,60,61025ae37ef11b136ea224fe,,,,,,,,,1243,73.66668794,70.99999139,1,0,0,response1disk,,6,-6,-5.333343506,1,0,0,rectangle,-6,-5.333343506,1,0,0,-6,-5.333343506,1,0,0,0,158,158,103,1,,,,,,,,
,,,,,,,,,,,,,FF,,,,,,,,1.6995,,,,,,,,,,,,,,,,,,,,,,6102990f8b3b06f480d1ae4d,61036c85c47011d51cdbae6e,2021-07-29_22h11.09.236,Simcolourproject_2stim_asymm_v5,2020.2.10,Win32,60,61025ae37ef11b136ea224fe,,,,,,,,,3338,43.00002035,-77.00001302,1,0,0,response3disk,,4,-6,-12.33334351,1,0,0,rectangle,-6,-12.33334351,1,0,0,-6,-12.33334351,1,0,0,0,159,159,74,1,,,,,,,,
,,,,,,,,,,,,,FF,,,,,,,,1.3495,,,,,,,,,,,,,,,,,,,,,,6102990f8b3b06f480d1ae4d,61036c85c47011d51cdbae6e,2021-07-29_22h11.09.236,Simcolourproject_2stim_asymm_v5,2020.2.10,Win32,60,61025ae37ef11b136ea224fe,,,,,,,,,1213,-91.99998367,-29.33334494,1,0,0,response5disk,,2,-18,0,1,0,0,rectangle,-18,0,1,0,0,-18,0,1,0,0,1,0,160,40,1,,,,,,,,
,,,,,,,,,,,,,FF,,,,,,,,1.1496,,,,,,,,,,,,,,,,,,,,,,6102990f8b3b06f480d1ae4d,61036c85c47011d51cdbae6e,2021-07-29_22h11.09.236,Simcolourproject_2stim_asymm_v5,2020.2.10,Win32,60,61025ae37ef11b136ea224fe,,,,,,,,,2334,74.33335462,-57.33334577,1,0,0,response3disk,,5,-4.333312988,-7.666687012,1,0,0,rectangle,-4.333312988,-7.666687012,1,0,0,-4.333312988,-7.666687012,1,0,0,1,1,161,120,1,,,,,,,,
,,,,,,,,,,,,,FF,,,,,,,,1.4162,,,,,,,,,,,,,,,,,,,,,,6102990f8b3b06f480d1ae4d,61036c85c47011d51cdbae6e,2021-07-29_22h11.09.236,Simcolourproject_2stim_asymm_v5,2020.2.10,Win32,60,61025ae37ef11b136ea224fe,,,,,,,,,435,-24.66660764,-82.33334652,1,0,0,response5disk,,3,-3.333312988,6.333312988,1,0,0,rectangle,-41.33331549,-71.66667953,1,0,0,0.666687012,9,1,0,0,1,2,162,142,1,,response5disk_3,TRUE,3,3,"[297,44,111,320,107,307,126,228,221,154,303,30,323,250,149,32,163,42,56,62]",1.6324,rectangle
,,,,,,,,,,,,,FF,,,,,,,,1.233,,,,,,,,,,,,,,,,,,,,,,6102990f8b3b06f480d1ae4d,61036c85c47011d51cdbae6e,2021-07-29_22h11.09.236,Simcolourproject_2stim_asymm_v5,2020.2.10,Win32,60,61025ae37ef11b136ea224fe,,,,,,,,,2404,55.33335406,-88.00001335,1,0,0,response3disk,,4,7.333374023,10,1,0,0,rectangle,7.333374023,10,1,0,0,7.333374023,10,1,0,0,1,3,163,15,1,,,,,,,,
,,,,,,,,,,,,,FF,,,,,,,,1.1828,,,,,,,,,,,,,,,,,,,,,,6102990f8b3b06f480d1ae4d,61036c85c47011d51cdbae6e,2021-07-29_22h11.09.236,Simcolourproject_2stim_asymm_v5,2020.2.10,Win32,60,61025ae37ef11b136ea224fe,,,,,,,,,858,73.00002125,-36.33334514,1,0,0,response3disk,,5,-6.333312988,-9.333343506,1,0,0,rectangle,-6.333312988,-9.333343506,1,0,0,-6.333312988,-9.333343506,1,0,0,1,4,164,81,1,,,,,,,,
,,,,,,,,,,,,,FF,,,,,,,,0.8828,,,,,,,,,,,,,,,,,,,,,,6102990f8b3b06f480d1ae4d,61036c85c47011d51cdbae6e,2021-07-29_22h11.09.236,Simcolourproject_2stim_asymm_v5,2020.2.10,Win32,60,61025ae37ef11b136ea224fe,,,,,,,,,2700,80.3333548,-31.333345,1,0,0,response3disk,,5,1.333374023,-4,1,0,0,rectangle,1.333374023,-4,1,0,0,1.333374023,-4,1,0,0,1,5,165,104,1,,,,,,,,
,,,,,,,,,,,,,FF,,,,,,,,0.6831,,,,,,,,,,,,,,,,,,,,,,6102990f8b3b06f480d1ae4d,61036c85c47011d51cdbae6e,2021-07-29_22h11.09.236,Simcolourproject_2stim_asymm_v5,2020.2.10,Win32,60,61025ae37ef11b136ea224fe,,,,,,,,,3539,80.3333548,-31.333345,1,0,0,response3disk,,5,-8.333312988,-10,1,0,0,rectangle,-8.333312988,-10,1,0,0,-8.333312988,-10,1,0,0,1,6,166,157,1,,,,,,,,
,,,,,,,,,,,,,FF,,,,,,,,0.966,,,,,,,,,,,,,,,,,,,,,,6102990f8b3b06f480d1ae4d,61036c85c47011d51cdbae6e,2021-07-29_22h11.09.236,Simcolourproject_2stim_asymm_v5,2020.2.10,Win32,60,61025ae37ef11b136ea224fe,,,,,,,,,625,66.66668773,-51.33334559,1,0,0,response3disk,,5,-9,-7.333343506,1,0,0,rectangle,-9,-7.333343506,1,0,0,-9,-7.333343506,1,0,0,1,7,167,20,1,,,,,,,,
,,,,,,,,,,,,,FF,,,,,,,,1.316,,,,,,,,,,,,,,,,,,,,,,6102990f8b3b06f480d1ae4d,61036c85c47011d51cdbae6e,2021-07-29_22h11.09.236,Simcolourproject_2stim_asymm_v5,2020.2.10,Win32,60,61025ae37ef11b136ea224fe,,,,,,,,,623,75.666688,-36.0000118,1,0,0,response3disk,,5,-10.33331299,-7,1,0,0,rectangle,-10.33331299,-7,1,0,0,-10.33331299,-7,1,0,0,1,8,168,119,1,,,,,,,,
,,,,,,,,,,,,,FF,,,,,,,,0.9827,,,,,,,,,,,,,,,,,,,,,,6102990f8b3b06f480d1ae4d,61036c85c47011d51cdbae6e,2021-07-29_22h11.09.236,Simcolourproject_2stim_asymm_v5,2020.2.10,Win32,60,61025ae37ef11b136ea224fe,,,,,,,,,2639,66.00002104,-38.3333452,1,0,0,response3disk,,5,-9.666625977,-7.666687012,1,0,0,rectangle,-9.666625977,-7.666687012,1,0,0,-9.666625977,-7.666687012,1,0,0,1,9,169,8,1,,,,,,,,
,,,,,,,,,,,,,FF,,,,,,,,1.3325,,,,,,,,,,,,,,,,,,,,,,6102990f8b3b06f480d1ae4d,61036c85c47011d51cdbae6e,2021-07-29_22h11.09.236,Simcolourproject_2stim_asymm_v5,2020.2.10,Win32,60,61025ae37ef11b136ea224fe,,,,,,,,,2978,62.66668761,-56.33334574,1,0,0,response3disk,,5,-8.333312988,1,1,0,0,rectangle,-8.333312988,1,1,0,0,-8.333312988,1,1,0,0,1,10,170,112,1,,,,,,,,
,,,,,,,,,,,,,FF,,,,,,,,1.0667,,,,,,,,,,,,,,,,,,,,,,6102990f8b3b06f480d1ae4d,61036c85c47011d51cdbae6e,2021-07-29_22h11.09.236,Simcolourproject_2stim_asymm_v5,2020.2.10,Win32,60,61025ae37ef11b136ea224fe,,,,,,,,,884,64.66668767,-32.66667837,1,0,0,response3disk,,5,-6,-5,1,0,0,rectangle,-6,-5,1,0,0,-6,-5,1,0,0,1,11,171,79,1,,,,,,,,
,,,,,,,,,,,,,FF,,,,,,,,0.9994,,,,,,,,,,,,,,,,,,,,,,6102990f8b3b06f480d1ae4d,61036c85c47011d51cdbae6e,2021-07-29_22h11.09.236,Simcolourproject_2stim_asymm_v5,2020.2.10,Win32,60,61025ae37ef11b136ea224fe,,,,,,,,,4279,66.66668773,-35.66667846,1,0,0,response3disk,,5,-11,-6,1,0,0,rectangle,-11,-6,1,0,0,-11,-6,1,0,0,1,12,172,133,1,,,,,,,,
,,,,,,,,,,,,,FF,,,,,,,,1.3828,,,,,,,,,,,,,,,,,,,,,,6102990f8b3b06f480d1ae4d,61036c85c47011d51cdbae6e,2021-07-29_22h11.09.236,Simcolourproject_2stim_asymm_v5,2020.2.10,Win32,60,61025ae37ef11b136ea224fe,,,,,,,,,82,-93.99998373,-27.00001153,1,0,0,response5disk,,2,-9.666625977,2.666656494,1,0,0,rectangle,-9.666625977,2.666656494,1,0,0,-9.666625977,2.666656494,1,0,0,1,13,173,7,1,,,,,,,,
,,,,,,,,,,,,,FF,,,,,,,,3.0831,,,,,,,,,,,,,,,,,,,,,,6102990f8b3b06f480d1ae4d,61036c85c47011d51cdbae6e,2021-07-29_22h11.09.236,Simcolourproject_2stim_asymm_v5,2020.2.10,Win32,60,61025ae37ef11b136ea224fe,,,,,,,,,3187,-34.66662598,-39.66668701,1,0,0,response5disk,,3,-11.33331299,-6.333343506,1,0,0,rectangle,-11.33331299,-6.333343506,1,0,0,-11.33331299,-6.333343506,1,0,0,1,14,174,57,1,,,,,,,,
,,,,,,,,,,,,,FF,,,,,,,,0.8499,,,,,,,,,,,,,,,,,,,,,,6102990f8b3b06f480d1ae4d,61036c85c47011d51cdbae6e,2021-07-29_22h11.09.236,Simcolourproject_2stim_asymm_v5,2020.2.10,Win32,60,61025ae37ef11b136ea224fe,,,,,,,,,3448,40.66668701,-32,1,0,0,response3disk,,5,-6.333312988,7,1,0,0,rectangle,-6.333312988,7,1,0,0,-6.333312988,7,1,0,0,1,15,175,98,1,,,,,,,,
,,,,,,,,,,,,,FF,,,,,,,,0.8502,,,,,,,,,,,,,,,,,,,,,,6102990f8b3b06f480d1ae4d,61036c85c47011d51cdbae6e,2021-07-29_22h11.09.236,Simcolourproject_2stim_asymm_v5,2020.2.10,Win32,60,61025ae37ef11b136ea224fe,,,,,,,,,168,47.33337402,-27.66668701,1,0,0,response3disk,,5,-7.666625977,-6.333343506,1,0,0,rectangle,-7.666625977,-6.333343506,1,0,0,-7.666625977,-6.333343506,1,0,0,1,16,176,42,1,,,,,,,,
,,,,,,,,,,,,,FF,,,,,,,,0.8169,,,,,,,,,,,,,,,,,,,,,,6102990f8b3b06f480d1ae4d,61036c85c47011d51cdbae6e,2021-07-29_22h11.09.236,Simcolourproject_2stim_asymm_v5,2020.2.10,Win32,60,61025ae37ef11b136ea224fe,,,,,,,,,3919,32.00002003,-65.66667935,1,0,0,response3disk,,4,-12.66662598,-4,1,0,0,rectangle,-12.66662598,-4,1,0,0,-12.66662598,-4,1,0,0,1,17,177,151,1,,,,,,,,
,,,,,,,,,,,,,FF,,,,,,,,1.1499,,,,,,,,,,,,,,,,,,,,,,6102990f8b3b06f480d1ae4d,61036c85c47011d51cdbae6e,2021-07-29_22h11.09.236,Simcolourproject_2stim_asymm_v5,2020.2.10,Win32,60,61025ae37ef11b136ea224fe,,,,,,,,,1947,88.0000217,64.99999121,1,0,0,response1disk,,6,-15.66662598,-0.666687012,1,0,0,rectangle,-15.66662598,-0.666687012,1,0,0,-15.66662598,-0.666687012,1,0,0,1,18,178,148,1,,,,,,,,
,,,,,,,,,,,,,FF,,,,,,,,1.0166,,,,,,,,,,,,,,,,,,,,,,6102990f8b3b06f480d1ae4d,61036c85c47011d51cdbae6e,2021-07-29_22h11.09.236,Simcolourproject_2stim_asymm_v5,2020.2.10,Win32,60,61025ae37ef11b136ea224fe,,,,,,,,,532,-18.66660746,-61.66667923,1,0,0,response5disk,,3,-9.666625977,10.66665649,1,0,0,rectangle,-9.666625977,10.66665649,1,0,0,-9.666625977,10.66665649,1,0,0,1,19,179,2,1,,,,,,,,
,,,,,,,,,,,,,FF,,,,,,,,1.2156,,,,,,,,,,,,,,,,,,,,,,6102990f8b3b06f480d1ae4d,61036c85c47011d51cdbae6e,2021-07-29_22h11.09.236,Simcolourproject_2stim_asymm_v5,2020.2.10,Win32,60,61025ae37ef11b136ea224fe,,,,,,,,,2311,22.66668642,-84.00001323,1,0,0,response3disk,,4,-8,-2,1,0,0,rectangle,-8,-2,1,0,0,-8,-2,1,0,0,1,20,180,89,1,,,,,,,,
,,,,,,,,,,,,,FF,,,,,,,,1.1829,,,,,,,,,,,,,,,,,,,,,,6102990f8b3b06f480d1ae4d,61036c85c47011d51cdbae6e,2021-07-29_22h11.09.236,Simcolourproject_2stim_asymm_v5,2020.2.10,Win32,60,61025ae37ef11b136ea224fe,,,,,,,,,2951,-48.3333157,-108.0000139,1,0,0,response5disk,,3,-19.33331299,-2.333343506,1,0,0,rectangle,-19.33331299,-2.333343506,1,0,0,-19.33331299,-2.333343506,1,0,0,1,21,181,34,1,,,,,,,,
,,,,,,,,,,,,,FF,,,,,,,,1.0367,,,,,,,,,,,,,,,,,,,,,,6102990f8b3b06f480d1ae4d,61036c85c47011d51cdbae6e,2021-07-29_22h11.09.236,Simcolourproject_2stim_asymm_v5,2020.2.10,Win32,60,61025ae37ef11b136ea224fe,,,,,,,,,2961,49.66668722,-76.33334634,1,0,0,response3disk,,4,-23.33331299,1.333312988,1,0,0,rectangle,-23.33331299,1.333312988,1,0,0,-23.33331299,1.333312988,1,0,0,1,22,182,24,1,,,,,,,,
,,,,,,,,,,,,,FF,,,,,,,,1.0831,,,,,,,,,,,,,,,,,,,,,,6102990f8b3b06f480d1ae4d,61036c85c47011d51cdbae6e,2021-07-29_22h11.09.236,Simcolourproject_2stim_asymm_v5,2020.2.10,Win32,60,61025ae37ef11b136ea224fe,,,,,,,,,2430,40.00002027,-88.00001335,1,0,0,response3disk,,4,-6.333312988,-9.666687012,1,0,0,rectangle,-6.333312988,-9.666687012,1,0,0,-6.333312988,-9.666687012,1,0,0,1,23,183,159,1,,,,,,,,
,,,,,,,,,,,,,FF,,,,,,,,1.5662,,,,,,,,,,,,,,,,,,,,,,6102990f8b3b06f480d1ae4d,61036c85c47011d51cdbae6e,2021-07-29_22h11.09.236,Simcolourproject_2stim_asymm_v5,2020.2.10,Win32,60,61025ae37ef11b136ea224fe,,,,,,,,,3190,-80.66660931,-30.66667831,1,0,0,response5disk,,2,-6.666625977,7.666656494,1,0,0,rectangle,-6.666625977,7.666656494,1,0,0,-6.666625977,7.666656494,1,0,0,1,24,184,26,1,,,,,,,,
,,,,,,,,,,,,,FF,,,,,,,,0.9661,,,,,,,,,,,,,,,,,,,,,,6102990f8b3b06f480d1ae4d,61036c85c47011d51cdbae6e,2021-07-29_22h11.09.236,Simcolourproject_2stim_asymm_v5,2020.2.10,Win32,60,61025ae37ef11b136ea224fe,,,,,,,,,2720,-105.3333174,-48.00001216,1,0,0,response5disk,,2,-12.33331299,4.666656494,1,0,0,rectangle,-12.33331299,4.666656494,1,0,0,-12.33331299,4.666656494,1,0,0,1,25,185,80,1,,,,,,,,
,,,,,,,,,,,,,FF,,,,,,,,1.133,,,,,,,,,,,,,,,,,,,,,,6102990f8b3b06f480d1ae4d,61036c85c47011d51cdbae6e,2021-07-29_22h11.09.236,Simcolourproject_2stim_asymm_v5,2020.2.10,Win32,60,61025ae37ef11b136ea224fe,,,,,,,,,2957,64.33335432,-77.66667971,1,0,0,response3disk,,4,-7,-7.666687012,1,0,0,rectangle,-7,-7.666687012,1,0,0,-7,-7.666687012,1,0,0,1,26,186,99,1,,,,,,,,
,,,,,,,,,,,,,FF,,,,,,,,0.9495,,,,,,,,,,,,,,,,,,,,,,6102990f8b3b06f480d1ae4d,61036c85c47011d51cdbae6e,2021-07-29_22h11.09.236,Simcolourproject_2stim_asymm_v5,2020.2.10,Win32,60,61025ae37ef11b136ea224fe,,,,,,,,,3953,55.33335406,-91.66668013,1,0,0,response3disk,,4,-13.33331299,-5,1,0,0,rectangle,-13.33331299,-5,1,0,0,-13.33331299,-5,1,0,0,1,27,187,35,1,,,,,,,,
,,,,,,,,,,,,,FF,,,,,,,,1.033,,,,,,,,,,,,,,,,,,,,,,6102990f8b3b06f480d1ae4d,61036c85c47011d51cdbae6e,2021-07-29_22h11.09.236,Simcolourproject_2stim_asymm_v5,2020.2.10,Win32,60,61025ae37ef11b136ea224fe,,,,,,,,,3603,73.00002125,-91.66668013,1,0,0,response3disk,,4,-10,-0.666687012,1,0,0,rectangle,-10,-0.666687012,1,0,0,-10,-0.666687012,1,0,0,1,28,188,77,1,,,,,,,,
,,,,,,,,,,,,,FF,,,,,,,,0.933,,,,,,,,,,,,,,,,,,,,,,6102990f8b3b06f480d1ae4d,61036c85c47011d51cdbae6e,2021-07-29_22h11.09.236,Simcolourproject_2stim_asymm_v5,2020.2.10,Win32,60,61025ae37ef11b136ea224fe,,,,,,,,,471,63.66668764,-92.33334681,1,0,0,response3disk,,4,-16.66662598,-3.333343506,1,0,0,rectangle,-16.66662598,-3.333343506,1,0,0,-16.66662598,-3.333343506,1,0,0,1,29,189,117,1,,,,,,,,
,,,,,,,,,,,,,FF,,,,,,,,1.0328,,,,,,,,,,,,,,,,,,,,,,6102990f8b3b06f480d1ae4d,61036c85c47011d51cdbae6e,2021-07-29_22h11.09.236,Simcolourproject_2stim_asymm_v5,2020.2.10,Win32,60,61025ae37ef11b136ea224fe,,,,,,,,,3300,54.00002068,-92.33334681,1,0,0,response3disk,,4,-18.66662598,-4,1,0,0,rectangle,-18.66662598,-4,1,0,0,-18.66662598,-4,1,0,0,1,30,190,69,1,,,,,,,,
,,,,,,,,,,,,,FF,,,,,,,,1.3991,,,,,,,,,,,,,,,,,,,,,,6102990f8b3b06f480d1ae4d,61036c85c47011d51cdbae6e,2021-07-29_22h11.09.236,Simcolourproject_2stim_asymm_v5,2020.2.10,Win32,60,61025ae37ef11b136ea224fe,,,,,,,,,409,91.00002179,-24.33334479,1,0,0,response3disk,,5,-12.66662598,0.666656494,1,0,0,rectangle,-12.66662598,0.666656494,1,0,0,-12.66662598,0.666656494,1,0,0,1,31,191,3,1,,,,,,,,
,,,,,,,,,,,,,FF,,,,,,,,0.7494,,,,,,,,,,,,,,,,,,,,,,6102990f8b3b06f480d1ae4d,61036c85c47011d51cdbae6e,2021-07-29_22h11.09.236,Simcolourproject_2stim_asymm_v5,2020.2.10,Win32,60,61025ae37ef11b136ea224fe,,,,,,,,,1577,77.00002137,-37.00001183,1,0,0,response3disk,,5,-9.666625977,-3.666687012,1,0,0,rectangle,-9.666625977,-3.666687012,1,0,0,-9.666625977,-3.666687012,1,0,0,1,32,192,23,1,,,,,,,,
,,,,,,,,,,,,,FF,,,,,,,,1.2833,,,,,,,,,,,,,,,,,,,,,,6102990f8b3b06f480d1ae4d,61036c85c47011d51cdbae6e,2021-07-29_22h11.09.236,Simcolourproject_2stim_asymm_v5,2020.2.10,Win32,60,61025ae37ef11b136ea224fe,,,,,,,,,4293,-69.66660898,32.99999025,1,0,0,response7disk,,1,-7.666625977,-2,1,0,0,rectangle,-7.666625977,-2,1,0,0,-7.666625977,-2,1,0,0,1,33,193,49,1,,,,,,,,
,,,,,,,,,,,,,FF,,,,,,,,1.933,,,,,,,,,,,,,,,,,,,,,,6102990f8b3b06f480d1ae4d,61036c85c47011d51cdbae6e,2021-07-29_22h11.09.236,Simcolourproject_2stim_asymm_v5,2020.2.10,Win32,60,61025ae37ef11b136ea224fe,,,,,,,,,3020,-28.66660776,83.33330474,1,0,0,response7disk,,0,-18.66662598,0,1,0,0,rectangle,-18.66662598,0,1,0,0,-18.66662598,0,1,0,0,1,34,194,149,1,,,,,,,,
,,,,,,,,,,,,,FF,,,,,,,,1.2161,,,,,,,,,,,,,,,,,,,,,,6102990f8b3b06f480d1ae4d,61036c85c47011d51cdbae6e,2021-07-29_22h11.09.236,Simcolourproject_2stim_asymm_v5,2020.2.10,Win32,60,61025ae37ef11b136ea224fe,,,,,,,,,1559,-33.66660791,93.33330504,1,0,0,response7disk,,0,-12.66662598,0,1,0,0,rectangle,-12.66662598,0,1,0,0,-12.66662598,0,1,0,0,1,35,195,59,1,,,,,,,,
,,,,,,,,,,,,,FF,,,,,,,,1.483,,,,,,,,,,,,,,,,,,,,,,6102990f8b3b06f480d1ae4d,61036c85c47011d51cdbae6e,2021-07-29_22h11.09.236,Simcolourproject_2stim_asymm_v5,2020.2.10,Win32,60,61025ae37ef11b136ea224fe,,,,,,,,,3396,-95.3333171,-41.33334529,1,0,0,response5disk,,2,-24.33331299,-4.333343506,1,0,0,rectangle,-24.33331299,-4.333343506,1,0,0,-24.33331299,-4.333343506,1,0,0,1,36,196,113,1,,,,,,,,
,,,,,,,,,,,,,FF,,,,,,,,1.1163,,,,,,,,,,,,,,,,,,,,,,6102990f8b3b06f480d1ae4d,61036c85c47011d51cdbae6e,2021-07-29_22h11.09.236,Simcolourproject_2stim_asymm_v5,2020.2.10,Win32,60,61025ae37ef11b136ea224fe,,,,,,,,,3288,97.00002196,-97.00001362,1,0,0,response3disk,,5,-13.66662598,0.666656494,1,0,0,rectangle,-13.66662598,0.666656494,1,0,0,-13.66662598,0.666656494,1,0,0,1,37,197,4,1,,,,,,,,
,,,,,,,,,,,,,FF,,,,,,,,2.816,,,,,,,,,,,,,,,,,,,,,,6102990f8b3b06f480d1ae4d,61036c85c47011d51cdbae6e,2021-07-29_22h11.09.236,Simcolourproject_2stim_asymm_v5,2020.2.10,Win32,60,61025ae37ef11b136ea224fe,,,,,,,,,876,62.66668761,44.33330358,1,0,0,response1disk,,6,-21,-3.333343506,1,0,0,rectangle,-21,-3.333343506,1,0,0,-21,-3.333343506,1,0,0,1,38,198,48,1,,,,,,,,
,,,,,,,,,,,,,FF,,,,,,,,0.9826,,,,,,,,,,,,,,,,,,,,,,6102990f8b3b06f480d1ae4d,61036c85c47011d51cdbae6e,2021-07-29_22h11.09.236,Simcolourproject_2stim_asymm_v5,2020.2.10,Win32,60,61025ae37ef11b136ea224fe,,,,,,,,,3352,69.33335447,47.9999907,1,0,0,response1disk,,6,-19.33331299,-5,1,0,0,rectangle,-19.33331299,-5,1,0,0,-19.33331299,-5,1,0,0,1,39,199,10,1,,,,,,,,
,,,,,,,,,,,,,FF,,,,,,,,1.1161,,,,,,,,,,,,,,,,,,,,,,6102990f8b3b06f480d1ae4d,61036c85c47011d51cdbae6e,2021-07-29_22h11.09.236,Simcolourproject_2stim_asymm_v5,2020.2.10,Win32,60,61025ae37ef11b136ea224fe,,,,,,,,,3000,-42.33331552,-69.66667947,1,0,0,response5disk,,3,-17.66662598,1.666656494,1,0,0,rectangle,-17.66662598,1.666656494,1,0,0,-17.66662598,1.666656494,1,0,0,1,40,200,94,1,,,,,,,,
,,,,,,,,,,,,,FF,,,,,,,,1.0661,,,,,,,,,,,,,,,,,,,,,,6102990f8b3b06f480d1ae4d,61036c85c47011d51cdbae6e,2021-07-29_22h11.09.236,Simcolourproject_2stim_asymm_v5,2020.2.10,Win32,60,61025ae37ef11b136ea224fe,,,,,,,,,2111,17.66668627,-106.3333472,1,0,0,response3disk,,4,-13,9.333312988,1,0,0,rectangle,-13,9.333312988,1,0,0,-13,9.333312988,1,0,0,1,41,201,122,1,,,,,,,,
,,,,,,,,,,,,,FF,,,,,,,,1.3833,,,,,,,,,,,,,,,,,,,,,,6102990f8b3b06f480d1ae4d,61036c85c47011d51cdbae6e,2021-07-29_22h11.09.236,Simcolourproject_2stim_asymm_v5,2020.2.10,Win32,60,61025ae37ef11b136ea224fe,,,,,,,,,2895,-84.66660943,-42.66667867,1,0,0,response5disk,,2,-15.33331299,0,1,0,0,rectangle,-15.33331299,0,1,0,0,-15.33331299,0,1,0,0,1,42,202,126,1,,,,,,,,
,,,,,,,,,,,,,FF,,,,,,,,0.8832,,,,,,,,,,,,,,,,,,,,,,6102990f8b3b06f480d1ae4d,61036c85c47011d51cdbae6e,2021-07-29_22h11.09.236,Simcolourproject_2stim_asymm_v5,2020.2.10,Win32,60,61025ae37ef11b136ea224fe,,,,,,,,,4203,-94.66660972,-39.66667858,1,0,0,response5disk,,2,-15,2,1,0,0,rectangle,-15,2,1,0,0,-15,2,1,0,0,1,43,203,75,1,,,,,,,,
,,,,,,,,,,,,,FF,,,,,,,,1.1161,,,,,,,,,,,,,,,,,,,,,,6102990f8b3b06f480d1ae4d,61036c85c47011d51cdbae6e,2021-07-29_22h11.09.236,Simcolourproject_2stim_asymm_v5,2020.2.10,Win32,60,61025ae37ef11b136ea224fe,,,,,,,,,799,67.66668776,-84.33334658,1,0,0,response3disk,,4,-14.66662598,-3,1,0,0,rectangle,-14.66662598,-3,1,0,0,-14.66662598,-3,1,0,0,1,44,204,147,1,,,,,,,,
,,,,,,,,,,,,,FF,,,,,,,,1.2996,,,,,,,,,,,,,,,,,,,,,,6102990f8b3b06f480d1ae4d,61036c85c47011d51cdbae6e,2021-07-29_22h11.09.236,Simcolourproject_2stim_asymm_v5,2020.2.10,Win32,60,61025ae37ef11b136ea224fe,,,,,,,,,2906,68.66668779,-22.33334473,1,0,0,response3disk,,5,-12,5.333312988,1,0,0,rectangle,-12,5.333312988,1,0,0,-12,5.333312988,1,0,0,1,45,205,152,1,,,,,,,,
,,,,,,,,,,,,,FF,,,,,,,,1.8661,,,,,,,,,,,,,,,,,,,,,,6102990f8b3b06f480d1ae4d,61036c85c47011d51cdbae6e,2021-07-29_22h11.09.236,Simcolourproject_2stim_asymm_v5,2020.2.10,Win32,60,61025ae37ef11b136ea224fe,,,,,,,,,2140,77.00002137,49.33330373,1,0,0,response1disk,,6,-16.66662598,2.333312988,1,0,0,rectangle,-16.66662598,2.333312988,1,0,0,-16.66662598,2.333312988,1,0,0,1,46,206,13,1,,,,,,,,
,,,,,,,,,,,,,FF,,,,,,,,1.0497,,,,,,,,,,,,,,,,,,,,,,6102990f8b3b06f480d1ae4d,61036c85c47011d51cdbae6e,2021-07-29_22h11.09.236,Simcolourproject_2stim_asymm_v5,2020.2.10,Win32,60,61025ae37ef11b136ea224fe,,,,,,,,,4351,-63.33331615,-22.33334473,1,0,0,response5disk,,2,-11.66662598,-1.333343506,1,0,0,rectangle,-11.66662598,-1.333343506,1,0,0,-11.66662598,-1.333343506,1,0,0,1,47,207,73,1,,,,,,,,
,,,,,,,,,,,,,FF,,,,,,,,1.4534,,,,,,,,,,,,,,,,,,,,,,6102990f8b3b06f480d1ae4d,61036c85c47011d51cdbae6e,2021-07-29_22h11.09.236,Simcolourproject_2stim_asymm_v5,2020.2.10,Win32,60,61025ae37ef11b136ea224fe,,,,,,,,,2242,55.6666874,-96.66668028,1,0,0,response3disk,,4,-10.66662598,-1.666687012,1,0,0,rectangle,-10.66662598,-1.666687012,1,0,0,-10.66662598,-1.666687012,1,0,0,1,48,208,47,1,,,,,,,,
,,,,,,,,,,,,,FF,,,,,,,,1.1166,,,,,,,,,,,,,,,,,,,,,,6102990f8b3b06f480d1ae4d,61036c85c47011d51cdbae6e,2021-07-29_22h11.09.236,Simcolourproject_2stim_asymm_v5,2020.2.10,Win32,60,61025ae37ef11b136ea224fe,,,,,,,,,1435,68.66668779,-51.33334559,1,0,0,response3disk,,5,-16,9,1,0,0,rectangle,-16,9,1,0,0,-16,9,1,0,0,1,49,209,93,1,,,,,,,,
,,,,,,,,,,,,,FF,,,,,,,,0.9329,,,,,,,,,,,,,,,,,,,,,,6102990f8b3b06f480d1ae4d,61036c85c47011d51cdbae6e,2021-07-29_22h11.09.236,Simcolourproject_2stim_asymm_v5,2020.2.10,Win32,60,61025ae37ef11b136ea224fe,,,,,,,,,3468,-70.66660901,-41.66667864,1,0,0,response5disk,,2,-8.666625977,-2.333343506,1,0,0,rectangle,-8.666625977,-2.333343506,1,0,0,-8.666625977,-2.333343506,1,0,0,1,50,210,66,1,,,,,,,,
,,,,,,,,,,,,,FF,,,,,,,,1.0329,,,,,,,,,,,,,,,,,,,,,,6102990f8b3b06f480d1ae4d,61036c85c47011d51cdbae6e,2021-07-29_22h11.09.236,Simcolourproject_2stim_asymm_v5,2020.2.10,Win32,60,61025ae37ef11b136ea224fe,,,,,,,,,1971,24.66668648,-49.33334553,1,0,0,response3disk,,4,-18.33331299,-13.33334351,1,0,0,rectangle,-18.33331299,-13.33334351,1,0,0,-18.33331299,-13.33334351,1,0,0,1,51,211,21,1,,,,,,,,
,,,,,,,,,,,,,FF,,,,,,,,1.183,,,,,,,,,,,,,,,,,,,,,,6102990f8b3b06f480d1ae4d,61036c85c47011d51cdbae6e,2021-07-29_22h11.09.236,Simcolourproject_2stim_asymm_v5,2020.2.10,Win32,60,61025ae37ef11b136ea224fe,,,,,,,,,2411,34.00002009,-68.66667944,1,0,0,response3disk,,4,-13,4.666656494,1,0,0,rectangle,-13,4.666656494,1,0,0,-13,4.666656494,1,0,0,1,52,212,72,1,,,,,,,,
,,,,,,,,,,,,,FF,,,,,,,,1.1162,,,,,,,,,,,,,,,,,,,,,,6102990f8b3b06f480d1ae4d,61036c85c47011d51cdbae6e,2021-07-29_22h11.09.236,Simcolourproject_2stim_asymm_v5,2020.2.10,Win32,60,61025ae37ef11b136ea224fe,,,,,,,,,761,85.33335495,-31.00001165,1,0,0,response3disk,,5,-16,2.666656494,1,0,0,rectangle,-16,2.666656494,1,0,0,-16,2.666656494,1,0,0,1,53,213,68,1,,,,,,,,
,,,,,,,,,,,,,FF,,,,,,,,1.116,,,,,,,,,,,,,,,,,,,,,,6102990f8b3b06f480d1ae4d,61036c85c47011d51cdbae6e,2021-07-29_22h11.09.236,Simcolourproject_2stim_asymm_v5,2020.2.10,Win32,60,61025ae37ef11b136ea224fe,,,,,,,,,330,82.00002152,60.66665775,1,0,0,response1disk,,6,-18,-3.666687012,1,0,0,rectangle,-18,-3.666687012,1,0,0,-18,-3.666687012,1,0,0,1,54,214,28,1,,,,,,,,
,,,,,,,,,,,,,FF,,,,,,,,1.4828,,,,,,,,,,,,,,,,,,,,,,6102990f8b3b06f480d1ae4d,61036c85c47011d51cdbae6e,2021-07-29_22h11.09.236,Simcolourproject_2stim_asymm_v5,2020.2.10,Win32,60,61025ae37ef11b136ea224fe,,,,,,,,,2278,32.33339406,77.66665825,1,0,0,response1disk,,7,-18.66662598,-8,1,0,0,rectangle,-18.66662598,-8,1,0,0,-18.66662598,-8,1,0,0,1,55,215,14,1,,,,,,,,
,,,,,,,,,,,,,FF,,,,,,,,0.9328,,,,,,,,,,,,,,,,,,,,,,6102990f8b3b06f480d1ae4d,61036c85c47011d51cdbae6e,2021-07-29_22h11.09.236,Simcolourproject_2stim_asymm_v5,2020.2.10,Win32,60,61025ae37ef11b136ea224fe,,,,,,,,,643,80.00002146,-36.66667849,1,0,0,response3disk,,5,-9.666625977,-10.33334351,1,0,0,rectangle,-9.666625977,-10.33334351,1,0,0,-9.666625977,-10.33334351,1,0,0,1,56,216,125,1,,,,,,,,
,,,,,,,,,,,,,FF,,,,,,,,1.2496,,,,,,,,,,,,,,,,,,,,,,6102990f8b3b06f480d1ae4d,61036c85c47011d51cdbae6e,2021-07-29_22h11.09.236,Simcolourproject_2stim_asymm_v5,2020.2.10,Win32,60,61025ae37ef11b136ea224fe,,,,,,,,,1043,78.0000214,-40.00001192,1,0,0,response3disk,,5,-17,2.333312988,1,0,0,rectangle,-17,2.333312988,1,0,0,-17,2.333312988,1,0,0,1,57,217,92,1,,,,,,,,
,,,,,,,,,,,,,FF,,,,,,,,1.0492,,,,,,,,,,,,,,,,,,,,,,6102990f8b3b06f480d1ae4d,61036c85c47011d51cdbae6e,2021-07-29_22h11.09.236,Simcolourproject_2stim_asymm_v5,2020.2.10,Win32,60,61025ae37ef11b136ea224fe,,,,,,,,,4018,65.6666877,-51.33334559,1,0,0,response3disk,,5,-10,5.666656494,1,0,0,rectangle,-10,5.666656494,1,0,0,-10,5.666656494,1,0,0,1,58,218,87,1,,,,,,,,
,,,,,,,,,,,,,FF,,,,,,,,1.2327,,,,,,,,,,,,,,,,,,,,,,6102990f8b3b06f480d1ae4d,61036c85c47011d51cdbae6e,2021-07-29_22h11.09.236,Simcolourproject_2stim_asymm_v5,2020.2.10,Win32,60,61025ae37ef11b136ea224fe,,,,,,,,,443,-76.99998322,-22.66667807,1,0,0,response5disk,,2,-11.33331299,12.66665649,1,0,0,rectangle,-11.33331299,12.66665649,1,0,0,-11.33331299,12.66665649,1,0,0,1,59,219,31,1,,,,,,,,
,,,,,,,,,,,,,FF,,,,,,,,1.0663,,,,,,,,,,,,,,,,,,,,,,6102990f8b3b06f480d1ae4d,61036c85c47011d51cdbae6e,2021-07-29_22h11.09.236,Simcolourproject_2stim_asymm_v5,2020.2.10,Win32,60,61025ae37ef11b136ea224fe,,,,,,,,,1370,-98.66660984,-43.00001201,1,0,0,response5disk,,2,-10.66662598,13,1,0,0,rectangle,78.0000214,-24.00001144,1,0,0,-15,-3.666687012,1,0,0,1,60,220,0,1,,response3disk_3,TRUE,5,3,"[297,44,111,320,107,307,126,228,221,154,303,30,323,250,149,32,163,42,56,62]",2.1821,rectangle
,,,,,,,,,,,,,FF,,,,,,,,1.1666,,,,,,,,,,,,,,,,,,,,,,6102990f8b3b06f480d1ae4d,61036c85c47011d51cdbae6e,2021-07-29_22h11.09.236,Simcolourproject_2stim_asymm_v5,2020.2.10,Win32,60,61025ae37ef11b136ea224fe,,,,,,,,,1008,73.33335459,-69.33334613,1,0,0,response3disk,,5,-13.66662598,-1.666687012,1,0,0,rectangle,-13.66662598,-1.666687012,1,0,0,-13.66662598,-1.666687012,1,0,0,1,61,221,30,1,,,,,,,,
,,,,,,,,,,,,,FF,,,,,,,,0.8661,,,,,,,,,,,,,,,,,,,,,,6102990f8b3b06f480d1ae4d,61036c85c47011d51cdbae6e,2021-07-29_22h11.09.236,Simcolourproject_2stim_asymm_v5,2020.2.10,Win32,60,61025ae37ef11b136ea224fe,,,,,,,,,2248,43.3333537,-91.33334678,1,0,0,response3disk,,4,-23.66662598,6.333312988,1,0,0,rectangle,-23.66662598,6.333312988,1,0,0,-23.66662598,6.333312988,1,0,0,1,62,222,100,1,,,,,,,,
,,,,,,,,,,,,,FF,,,,,,,,1.166,,,,,,,,,,,,,,,,,,,,,,6102990f8b3b06f480d1ae4d,61036c85c47011d51cdbae6e,2021-07-29_22h11.09.236,Simcolourproject_2stim_asymm_v5,2020.2.10,Win32,60,61025ae37ef11b136ea224fe,,,,,,,,,3092,-81.99998337,-36.0000118,1,0,0,response5disk,,2,-17.66662598,9.333312988,1,0,0,rectangle,-17.66662598,9.333312988,1,0,0,-17.66662598,9.333312988,1,0,0,1,63,223,158,1,,,,,,,,
,,,,,,,,,,,,,FF,,,,,,,,2.9162,,,,,,,,,,,,,,,,,,,,,,6102990f8b3b06f480d1ae4d,61036c85c47011d51cdbae6e,2021-07-29_22h11.09.236,Simcolourproject_2stim_asymm_v5,2020.2.10,Win32,60,61025ae37ef11b136ea224fe,,,,,,,,,1081,82.33335486,28.66665679,1,0,0,response1disk,,6,-18.33331299,-5.333343506,1,0,0,rectangle,-18.33331299,-5.333343506,1,0,0,-18.33331299,-5.333343506,1,0,0,1,64,224,53,1,,,,,,,,
,,,,,,,,,,,,,FF,,,,,,,,1.2327,,,,,,,,,,,,,,,,,,,,,,6102990f8b3b06f480d1ae4d,61036c85c47011d51cdbae6e,2021-07-29_22h11.09.236,Simcolourproject_2stim_asymm_v5,2020.2.10,Win32,60,61025ae37ef11b136ea224fe,,,,,,,,,2840,94.33335522,-46.0000121,1,0,0,response3disk,,5,-18,0,1,0,0,rectangle,-18,0,1,0,0,-18,0,1,0,0,1,65,225,78,1,,,,,,,,
,,,,,,,,,,,,,FF,,,,,,,,0.9329,,,,,,,,,,,,,,,,,,,,,,6102990f8b3b06f480d1ae4d,61036c85c47011d51cdbae6e,2021-07-29_22h11.09.236,Simcolourproject_2stim_asymm_v5,2020.2.10,Win32,60,61025ae37ef11b136ea224fe,,,,,,,,,2431,102.0000221,-43.6666787,1,0,0,response3disk,,5,-9.666625977,2,1,0,0,rectangle,-9.666625977,2,1,0,0,-9.666625977,2,1,0,0,1,66,226,155,1,,,,,,,,
,,,,,,,,,,,,,FF,,,,,,,,1.5161,,,,,,,,,,,,,,,,,,,,,,6102990f8b3b06f480d1ae4d,61036c85c47011d51cdbae6e,2021-07-29_22h11.09.236,Simcolourproject_2stim_asymm_v5,2020.2.10,Win32,60,61025ae37ef11b136ea224fe,,,,,,,,,341,35.00002012,-82.33334652,1,0,0,response3disk,,4,-21,8.333312988,1,0,0,rectangle,77.33335471,30.9999902,1,0,0,-17.66662598,-13.66668701,1,0,0,1,67,227,17,1,,response1disk_3,TRUE,6,6,"[297,44,111,320,107,307,126,228,221,154,303,30,323,250,149,32,163,42,56,62]",2.0518,rectangle
,,,,,,,,,,,,,FF,,,,,,,,2.0827,,,,,,,,,,,,,,,,,,,,,,6102990f8b3b06f480d1ae4d,61036c85c47011d51cdbae6e,2021-07-29_22h11.09.236,Simcolourproject_2stim_asymm_v5,2020.2.10,Win32,60,61025ae37ef11b136ea224fe,,,,,,,,,2686,79.33335477,45.99999064,1,0,0,response1disk,,6,-22.66662598,-3,1,0,0,rectangle,-22.66662598,-3,1,0,0,-22.66662598,-3,1,0,0,1,68,228,86,1,,,,,,,,
,,,,,,,,,,,,,FF,,,,,,,,1.6162,,,,,,,,,,,,,,,,,,,,,,6102990f8b3b06f480d1ae4d,61036c85c47011d51cdbae6e,2021-07-29_22h11.09.236,Simcolourproject_2stim_asymm_v5,2020.2.10,Win32,60,61025ae37ef11b136ea224fe,,,,,,,,,3523,57.00002077,-76.66667968,1,0,0,response3disk,,4,-16.66662598,-0.666687012,1,0,0,rectangle,-16.66662598,-0.666687012,1,0,0,-16.66662598,-0.666687012,1,0,0,1,69,229,130,1,,,,,,,,
,,,,,,,,,,,,,FF,,,,,,,,0.8666,,,,,,,,,,,,,,,,,,,,,,6102990f8b3b06f480d1ae4d,61036c85c47011d51cdbae6e,2021-07-29_22h11.09.236,Simcolourproject_2stim_asymm_v5,2020.2.10,Win32,60,61025ae37ef11b136ea224fe,,,,,,,,,405,84.66668826,-33.00001171,1,0,0,response3disk,,5,-14,2.333312988,1,0,0,rectangle,-14,2.333312988,1,0,0,-14,2.333312988,1,0,0,1,70,230,16,1,,,,,,,,
,,,,,,,,,,,,,FF,,,,,,,,1.0663,,,,,,,,,,,,,,,,,,,,,,6102990f8b3b06f480d1ae4d,61036c85c47011d51cdbae6e,2021-07-29_22h11.09.236,Simcolourproject_2stim_asymm_v5,2020.2.10,Win32,60,61025ae37ef11b136ea224fe,,,,,,,,,1500,71.33335453,63.33330415,1,0,0,response1disk,,6,-21.33331299,5.666656494,1,0,0,rectangle,-21.33331299,5.666656494,1,0,0,-21.33331299,5.666656494,1,0,0,1,71,231,74,1,,,,,,,,
,,,,,,,,,,,,,FF,,,,,,,,1.0994,,,,,,,,,,,,,,,,,,,,,,6102990f8b3b06f480d1ae4d,61036c85c47011d51cdbae6e,2021-07-29_22h11.09.236,Simcolourproject_2stim_asymm_v5,2020.2.10,Win32,60,61025ae37ef11b136ea224fe,,,,,,,,,3341,-42.66660817,-77.66667971,1,0,0,response5disk,,3,-24.33331299,-10,1,0,0,rectangle,-24.33331299,-10,1,0,0,-24.33331299,-10,1,0,0,1,72,232,105,1,,,,,,,,
,,,,,,,,,,,,,FF,,,,,,,,0.6165,,,,,,,,,,,,,,,,,,,,,,6102990f8b3b06f480d1ae4d,61036c85c47011d51cdbae6e,2021-07-29_22h11.09.236,Simcolourproject_2stim_asymm_v5,2020.2.10,Win32,60,61025ae37ef11b136ea224fe,,,,,,,,,2945,-42.66660817,-77.66667971,1,0,0,response5disk,,3,-18.33331299,-2,1,0,0,rectangle,-18.33331299,-2,1,0,0,-18.33331299,-2,1,0,0,1,73,233,153,1,,,,,,,,
,,,,,,,,,,,,,FF,,,,,,,,0.9662,,,,,,,,,,,,,,,,,,,,,,6102990f8b3b06f480d1ae4d,61036c85c47011d51cdbae6e,2021-07-29_22h11.09.236,Simcolourproject_2stim_asymm_v5,2020.2.10,Win32,60,61025ae37ef11b136ea224fe,,,,,,,,,66,-41.66660814,-57.66667911,1,0,0,response5disk,,3,-18,1.666656494,1,0,0,rectangle,-18,1.666656494,1,0,0,-18,1.666656494,1,0,0,1,74,234,118,1,,,,,,,,
,,,,,,,,,,,,,FF,,,,,,,,1.0166,,,,,,,,,,,,,,,,,,,,,,6102990f8b3b06f480d1ae4d,61036c85c47011d51cdbae6e,2021-07-29_22h11.09.236,Simcolourproject_2stim_asymm_v5,2020.2.10,Win32,60,61025ae37ef11b136ea224fe,,,,,,,,,593,77.66668805,-36.0000118,1,0,0,response3disk,,5,-5.666625977,1,1,0,0,rectangle,-5.666625977,1,1,0,0,-5.666625977,1,1,0,0,1,75,235,52,1,,,,,,,,
,,,,,,,,,,,,,FF,,,,,,,,1.0827,,,,,,,,,,,,,,,,,,,,,,6102990f8b3b06f480d1ae4d,61036c85c47011d51cdbae6e,2021-07-29_22h11.09.236,Simcolourproject_2stim_asymm_v5,2020.2.10,Win32,60,61025ae37ef11b136ea224fe,,,,,,,,,909,58.66668749,-57.00001243,1,0,0,response3disk,,5,-22,-4.666687012,1,0,0,rectangle,-22,-4.666687012,1,0,0,-22,-4.666687012,1,0,0,1,76,236,55,1,,,,,,,,
,,,,,,,,,,,,,FF,,,,,,,,1.0161,,,,,,,,,,,,,,,,,,,,,,6102990f8b3b06f480d1ae4d,61036c85c47011d51cdbae6e,2021-07-29_22h11.09.236,Simcolourproject_2stim_asymm_v5,2020.2.10,Win32,60,61025ae37ef11b136ea224fe,,,,,,,,,1892,-63.99998283,-24.00001144,1,0,0,response5disk,,2,-16.33331299,7.333312988,1,0,0,rectangle,-16.33331299,7.333312988,1,0,0,-16.33331299,7.333312988,1,0,0,1,77,237,45,1,,,,,,,,
,,,,,,,,,,,,,FF,,,,,,,,1.0501,,,,,,,,,,,,,,,,,,,,,,6102990f8b3b06f480d1ae4d,61036c85c47011d51cdbae6e,2021-07-29_22h11.09.236,Simcolourproject_2stim_asymm_v5,2020.2.10,Win32,60,61025ae37ef11b136ea224fe,,,,,,,,,913,83.66668823,52.33330382,1,0,0,response1disk,,6,-23,-3.333343506,1,0,0,rectangle,-23,-3.333343506,1,0,0,-23,-3.333343506,1,0,0,1,78,238,37,1,,,,,,,,
,,,,,,,,,,,,,FF,,,,,,,,0.8496,,,,,,,,,,,,,,,,,,,,,,6102990f8b3b06f480d1ae4d,61036c85c47011d51cdbae6e,2021-07-29_22h11.09.236,Simcolourproject_2stim_asymm_v5,2020.2.10,Win32,60,61025ae37ef11b136ea224fe,,,,,,,,,3693,83.33335489,70.33330436,1,0,0,response1disk,,6,-24.66662598,-9,1,0,0,rectangle,-24.66662598,-9,1,0,0,-24.66662598,-9,1,0,0,1,79,239,29,1,,,,,,,,
,,,,,,,,,,,,,FF,,,,,,,,0.8328,,,,,,,,,,,,,,,,,,,,,,6102990f8b3b06f480d1ae4d,61036c85c47011d51cdbae6e,2021-07-29_22h11.09.236,Simcolourproject_2stim_asymm_v5,2020.2.10,Win32,60,61025ae37ef11b136ea224fe,,,,,,,,,1025,73.33335459,66.66665792,1,0,0,response1disk,,6,-3,-2,1,0,0,rectangle,-3,-2,1,0,0,-3,-2,1,0,0,1,80,240,64,1,,,,,,,,
,,,,,,,,,,,,,FF,,,,,,,,1.516,,,,,,,,,,,,,,,,,,,,,,6102990f8b3b06f480d1ae4d,61036c85c47011d51cdbae6e,2021-07-29_22h11.09.236,Simcolourproject_2stim_asymm_v5,2020.2.10,Win32,60,61025ae37ef11b136ea224fe,,,,,,,,,3993,-52.66660847,79.66665831,1,0,0,response7disk,,0,-8.333312988,0.666656494,1,0,0,rectangle,-8.333312988,0.666656494,1,0,0,-8.333312988,0.666656494,1,0,0,1,81,241,27,1,,,,,,,,
,,,,,,,,,,,,,FF,,,,,,,,1.5328,,,,,,,,,,,,,,,,,,,,,,6102990f8b3b06f480d1ae4d,61036c85c47011d51cdbae6e,2021-07-29_22h11.09.236,Simcolourproject_2stim_asymm_v5,2020.2.10,Win32,60,61025ae37ef11b136ea224fe,,,,,,,,,2245,-28.99998179,-93.0000135,1,0,0,response5disk,,3,-22,-7,1,0,0,rectangle,-22,-7,1,0,0,-22,-7,1,0,0,1,82,242,38,1,,,,,,,,
,,,,,,,,,,,,,FF,,,,,,,,1.8495,,,,,,,,,,,,,,,,,,,,,,6102990f8b3b06f480d1ae4d,61036c85c47011d51cdbae6e,2021-07-29_22h11.09.236,Simcolourproject_2stim_asymm_v5,2020.2.10,Win32,60,61025ae37ef11b136ea224fe,,,,,,,,,1618,72.33335456,-47.00001213,1,0,0,response3disk,,5,-16.33331299,-11.33334351,1,0,0,rectangle,-16.33331299,-11.33334351,1,0,0,-16.33331299,-11.33334351,1,0,0,1,83,243,1,1,,,,,,,,
,,,,,,,,,,,,,FF,,,,,,,,0.9496,,,,,,,,,,,,,,,,,,,,,,6102990f8b3b06f480d1ae4d,61036c85c47011d51cdbae6e,2021-07-29_22h11.09.236,Simcolourproject_2stim_asymm_v5,2020.2.10,Win32,60,61025ae37ef11b136ea224fe,,,,,,,,,815,76.00002134,-14.00001115,1,0,0,response3disk,,5,-19.33331299,12,1,0,0,rectangle,-19.33331299,12,1,0,0,-19.33331299,12,1,0,0,1,84,244,109,1,,,,,,,,
,,,,,,,,,,,,,FF,,,,,,,,1.2163,,,,,,,,,,,,,,,,,,,,,,6102990f8b3b06f480d1ae4d,61036c85c47011d51cdbae6e,2021-07-29_22h11.09.236,Simcolourproject_2stim_asymm_v5,2020.2.10,Win32,60,61025ae37ef11b136ea224fe,,,,,,,,,1946,79.00002143,30.9999902,1,0,0,response1disk,,6,-18.33331299,9.333312988,1,0,0,rectangle,-18.33331299,9.333312988,1,0,0,-18.33331299,9.333312988,1,0,0,1,85,245,137,1,,,,,,,,
,,,,,,,,,,,,,FF,,,,,,,,1.1328,,,,,,,,,,,,,,,,,,,,,,6102990f8b3b06f480d1ae4d,61036c85c47011d51cdbae6e,2021-07-29_22h11.09.236,Simcolourproject_2stim_asymm_v5,2020.2.10,Win32,60,61025ae37ef11b136ea224fe,,,,,,,,,1211,-55.9999826,94.33330507,1,0,0,response7disk,,0,-19.33331299,0,1,0,0,rectangle,-19.33331299,0,1,0,0,-19.33331299,0,1,0,0,1,86,246,71,1,,,,,,,,
,,,,,,,,,,,,,FF,,,,,,,,1.1828,,,,,,,,,,,,,,,,,,,,,,6102990f8b3b06f480d1ae4d,61036c85c47011d51cdbae6e,2021-07-29_22h11.09.236,Simcolourproject_2stim_asymm_v5,2020.2.10,Win32,60,61025ae37ef11b136ea224fe,,,,,,,,,3881,29.00001994,-41.66667864,1,0,0,response3disk,,4,-16.66662598,-4.333343506,1,0,0,rectangle,-16.66662598,-4.333343506,1,0,0,-16.66662598,-4.333343506,1,0,0,1,87,247,41,1,,,,,,,,
