key_resp.keys,key_resp.rt,key_resp_14.keys,key_resp_14.rt,key_resp_15.keys,key_resp_15.rt,key_resp_17.keys,key_resp_17.rt,key_resp_9.keys,key_resp_9.rt,key_resp_10.keys,key_resp_10.rt,practice_comparison,Ecc,mouse_5.x,mouse_5.y,mouse_5.leftButton,mouse_5.midButton,mouse_5.rightButton,mouse_5.clicked_name,pracsimilarity,response_time,mouse_10.x,mouse_10.y,mouse_10.leftButton,mouse_10.midButton,mouse_10.rightButton,mouse_10.clicked_name,mouse_7.x,mouse_7.y,mouse_7.leftButton,mouse_7.midButton,mouse_7.rightButton,mouse_6.x,mouse_6.y,mouse_6.leftButton,mouse_6.midButton,mouse_6.rightButton,duringprac.thisRepN,duringprac.thisTrialN,duringprac.thisN,duringprac.thisIndex,duringprac.ran,participant,session,date,expName,psychopyVersion,OS,frameRate,study_id,mouse_7.clicked_name,catchpracsimilarity,catch_response_time,catchnumberprac,catchtrialorderprac,mouse_6.clicked_name,key_resp_22.keys,key_resp_22.rt,realcomparison,mouse.x,mouse.y,mouse.leftButton,mouse.midButton,mouse.rightButton,mouse.clicked_name,Colour2,similarity,mouse_2.x,mouse_2.y,mouse_2.leftButton,mouse_2.midButton,mouse_2.rightButton,mouse_2.clicked_name,mouse_3.x,mouse_3.y,mouse_3.leftButton,mouse_3.midButton,mouse_3.rightButton,mouse_11.x,mouse_11.y,mouse_11.leftButton,mouse_11.midButton,mouse_11.rightButton,trials_2.thisRepN,trials_2.thisTrialN,trials_2.thisN,trials_2.thisIndex,trials_2.ran,Colour1,mouse_3.clicked_name,catchornah,catchsimilarity,catchnumber,catchtrialorder,catchRT,mouse_11.clicked_name
space,1.2831,space,7.6296,space,12.2009,space,5.4328,space,1.3861,space,6.4953,115,PF,-44.62109375,-99.34375,1,0,0,response5disk_5,3,2.3029,4.23046875,-1.3359375,1,0,0,rectangle_8,4.23046875,-1.3359375,1,0,0,4.23046875,-1.3359375,1,0,0,0,0,0,4,1,610202bb0ca06f14b87d1605,61036b17bda2a5c4581698aa,2021-07-29_21h01.08.350,Simcolourproject_2stim_asymm_v5,2020.2.10,MacIntel,60,61025ae37ef11b136ea224fe,,,,,,,,,,,,,,,,,,,,,,,,,,,,,,,,,,,,,,,,,,,,,,
,,,,,,,,,,,,129,FF,55.00390625,94.890625,1,0,0,response1disk_5,7,3.2325,2.94921875,3.875,1,0,0,rectangle_8,77.87109375,-36.62109375,1,0,0,-8.7421875,-2.58984375,1,0,0,0,1,1,0,1,610202bb0ca06f14b87d1605,61036b17bda2a5c4581698aa,2021-07-29_21h01.08.350,Simcolourproject_2stim_asymm_v5,2020.2.10,MacIntel,60,61025ae37ef11b136ea224fe,response3disk_7,5,2.4055,5,"[2,5]",rectangle_4,,,,,,,,,,,,,,,,,,,,,,,,,,,,,,,,,,,,,,,,
,,,,,,,,,,,,65,PF,30.9296875,-107.8867188,1,0,0,response3disk_5,4,5.0172,-12.6015625,-0.0703125,1,0,0,rectangle_8,-12.6015625,-0.0703125,1,0,0,-12.6015625,-0.0703125,1,0,0,0,2,2,1,1,610202bb0ca06f14b87d1605,61036b17bda2a5c4581698aa,2021-07-29_21h01.08.350,Simcolourproject_2stim_asymm_v5,2020.2.10,MacIntel,60,61025ae37ef11b136ea224fe,,,,,,,,,,,,,,,,,,,,,,,,,,,,,,,,,,,,,,,,,,,,,,
,,,,,,,,,,,,112,PF,36.4375,92.99609375,1,0,0,response1disk_5,7,1.1333,0.08203125,-2.390625,1,0,0,rectangle_8,0.08203125,-2.390625,1,0,0,0.08203125,-2.390625,1,0,0,0,3,3,6,1,610202bb0ca06f14b87d1605,61036b17bda2a5c4581698aa,2021-07-29_21h01.08.350,Simcolourproject_2stim_asymm_v5,2020.2.10,MacIntel,60,61025ae37ef11b136ea224fe,,,,,,,,,,,,,,,,,,,,,,,,,,,,,,,,,,,,,,,,,,,,,,
,,,,,,,,,,,,105,FF,54.79296875,-87.6640625,1,0,0,response3disk_5,4,4.2166,3,-5.88671875,1,0,0,rectangle_8,95.52734375,-40.48046875,1,0,0,-5.8828125,1.68359375,1,0,0,0,4,4,5,1,610202bb0ca06f14b87d1605,61036b17bda2a5c4581698aa,2021-07-29_21h01.08.350,Simcolourproject_2stim_asymm_v5,2020.2.10,MacIntel,60,61025ae37ef11b136ea224fe,response3disk_7,5,1.8336,5,"[2,5]",rectangle_4,,,,,,,,,,,,,,,,,,,,,,,,,,,,,,,,,,,,,,,,
,,,,,,,,,,,,50,PF,45.37890625,85.25390625,1,0,0,response1disk_5,7,1.267,9.2109375,0.35546875,1,0,0,rectangle_8,9.2109375,0.35546875,1,0,0,9.2109375,0.35546875,1,0,0,0,5,5,2,1,610202bb0ca06f14b87d1605,61036b17bda2a5c4581698aa,2021-07-29_21h01.08.350,Simcolourproject_2stim_asymm_v5,2020.2.10,MacIntel,60,61025ae37ef11b136ea224fe,,,,,,,,,,,,,,,,,,,,,,,,,,,,,,,,,,,,,,,,,,,,,,
,,,,,,,,,,,,114,FF,115.4375,-81.9375,1,0,0,response3disk_5,5,1.8154,3.90625,-4.37890625,1,0,0,rectangle_8,3.90625,-4.37890625,1,0,0,3.90625,-4.37890625,1,0,0,0,6,6,3,1,610202bb0ca06f14b87d1605,61036b17bda2a5c4581698aa,2021-07-29_21h01.08.350,Simcolourproject_2stim_asymm_v5,2020.2.10,MacIntel,60,61025ae37ef11b136ea224fe,,,,,,,,,,,,,,,,,,,,,,,,,,,,,,,,,,,,,,,,,,,,,,
,,,,,,,,,,,,,FF,,,,,,,,1.6327,,,,,,,,,,,,,,,,,,,,,,610202bb0ca06f14b87d1605,61036b17bda2a5c4581698aa,2021-07-29_21h01.08.350,Simcolourproject_2stim_asymm_v5,2020.2.10,MacIntel,60,61025ae37ef11b136ea224fe,,,,,,,space,2.8514,993,41.05078125,-71.515625,1,0,0,response3disk,,4,6.3125,1.28515625,1,0,0,rectangle,6.3125,1.28515625,1,0,0,6.3125,1.28515625,1,0,0,0,0,0,124,1,,,,,,,,
,,,,,,,,,,,,,FF,,,,,,,,1.6166,,,,,,,,,,,,,,,,,,,,,,610202bb0ca06f14b87d1605,61036b17bda2a5c4581698aa,2021-07-29_21h01.08.350,Simcolourproject_2stim_asymm_v5,2020.2.10,MacIntel,60,61025ae37ef11b136ea224fe,,,,,,,,,3560,-44.57421875,-68.046875,1,0,0,response5disk,,3,-2.3515625,6.66796875,1,0,0,rectangle,-2.3515625,6.66796875,1,0,0,-2.3515625,6.66796875,1,0,0,0,1,1,123,1,,,,,,,,
,,,,,,,,,,,,,FF,,,,,,,,0.8337,,,,,,,,,,,,,,,,,,,,,,610202bb0ca06f14b87d1605,61036b17bda2a5c4581698aa,2021-07-29_21h01.08.350,Simcolourproject_2stim_asymm_v5,2020.2.10,MacIntel,60,61025ae37ef11b136ea224fe,,,,,,,,,1772,48.51953125,108.1132813,1,0,0,response1disk,,7,24.94921875,2.62109375,1,0,0,rectangle,24.94921875,2.62109375,1,0,0,24.94921875,2.62109375,1,0,0,0,2,2,7,1,,,,,,,,
,,,,,,,,,,,,,FF,,,,,,,,0.9842,,,,,,,,,,,,,,,,,,,,,,610202bb0ca06f14b87d1605,61036b17bda2a5c4581698aa,2021-07-29_21h01.08.350,Simcolourproject_2stim_asymm_v5,2020.2.10,MacIntel,60,61025ae37ef11b136ea224fe,,,,,,,,,770,40.609375,71.59375,1,0,0,response1disk,,7,22.4609375,1.84375,1,0,0,rectangle,22.4609375,1.84375,1,0,0,22.4609375,1.84375,1,0,0,0,3,3,39,1,,,,,,,,
,,,,,,,,,,,,,FF,,,,,,,,1.2171,,,,,,,,,,,,,,,,,,,,,,610202bb0ca06f14b87d1605,61036b17bda2a5c4581698aa,2021-07-29_21h01.08.350,Simcolourproject_2stim_asymm_v5,2020.2.10,MacIntel,60,61025ae37ef11b136ea224fe,,,,,,,,,4000,74.6484375,-49.16796875,1,0,0,response3disk,,5,5.37890625,-6.06640625,1,0,0,rectangle,5.37890625,-6.06640625,1,0,0,5.37890625,-6.06640625,1,0,0,0,4,4,148,1,,,,,,,,
,,,,,,,,,,,,,FF,,,,,,,,1.0648,,,,,,,,,,,,,,,,,,,,,,610202bb0ca06f14b87d1605,61036b17bda2a5c4581698aa,2021-07-29_21h01.08.350,Simcolourproject_2stim_asymm_v5,2020.2.10,MacIntel,60,61025ae37ef11b136ea224fe,,,,,,,,,681,45.6015625,67.0546875,1,0,0,response1disk,,7,18.8125,-11.44140625,1,0,0,rectangle,18.8125,-11.44140625,1,0,0,18.8125,-11.44140625,1,0,0,0,5,5,77,1,,,,,,,,
,,,,,,,,,,,,,FF,,,,,,,,0.8494,,,,,,,,,,,,,,,,,,,,,,610202bb0ca06f14b87d1605,61036b17bda2a5c4581698aa,2021-07-29_21h01.08.350,Simcolourproject_2stim_asymm_v5,2020.2.10,MacIntel,60,61025ae37ef11b136ea224fe,,,,,,,,,1669,50.0625,87.31640625,1,0,0,response1disk,,7,16.171875,2.09375,1,0,0,rectangle,16.171875,2.09375,1,0,0,16.171875,2.09375,1,0,0,0,6,6,110,1,,,,,,,,
,,,,,,,,,,,,,FF,,,,,,,,2.6165,,,,,,,,,,,,,,,,,,,,,,610202bb0ca06f14b87d1605,61036b17bda2a5c4581698aa,2021-07-29_21h01.08.350,Simcolourproject_2stim_asymm_v5,2020.2.10,MacIntel,60,61025ae37ef11b136ea224fe,,,,,,,,,2933,33.84375,-67.17578125,1,0,0,response3disk,,4,8.37109375,1.09375,1,0,0,rectangle,8.37109375,1.09375,1,0,0,8.37109375,1.09375,1,0,0,0,7,7,19,1,,,,,,,,
,,,,,,,,,,,,,FF,,,,,,,,1.8511,,,,,,,,,,,,,,,,,,,,,,610202bb0ca06f14b87d1605,61036b17bda2a5c4581698aa,2021-07-29_21h01.08.350,Simcolourproject_2stim_asymm_v5,2020.2.10,MacIntel,60,61025ae37ef11b136ea224fe,,,,,,,,,2369,81.83203125,-53.68359375,1,0,0,response3disk,,5,8.99609375,-9.56640625,1,0,0,rectangle,8.99609375,-9.56640625,1,0,0,8.99609375,-9.56640625,1,0,0,0,8,8,27,1,,,,,,,,
,,,,,,,,,,,,,FF,,,,,,,,1.668,,,,,,,,,,,,,,,,,,,,,,610202bb0ca06f14b87d1605,61036b17bda2a5c4581698aa,2021-07-29_21h01.08.350,Simcolourproject_2stim_asymm_v5,2020.2.10,MacIntel,60,61025ae37ef11b136ea224fe,,,,,,,,,868,37.0703125,-87.703125,1,0,0,response3disk,,4,12.359375,-3.71484375,1,0,0,rectangle,12.359375,-3.71484375,1,0,0,12.359375,-3.71484375,1,0,0,0,9,9,98,1,,,,,,,,
,,,,,,,,,,,,,FF,,,,,,,,2.316,,,,,,,,,,,,,,,,,,,,,,610202bb0ca06f14b87d1605,61036b17bda2a5c4581698aa,2021-07-29_21h01.08.350,Simcolourproject_2stim_asymm_v5,2020.2.10,MacIntel,60,61025ae37ef11b136ea224fe,,,,,,,,,553,65.65625,-41.5234375,1,0,0,response3disk,,5,14.11328125,5.11328125,1,0,0,rectangle,14.11328125,5.11328125,1,0,0,14.11328125,5.11328125,1,0,0,0,10,10,125,1,,,,,,,,
,,,,,,,,,,,,,FF,,,,,,,,1.2802,,,,,,,,,,,,,,,,,,,,,,610202bb0ca06f14b87d1605,61036b17bda2a5c4581698aa,2021-07-29_21h01.08.350,Simcolourproject_2stim_asymm_v5,2020.2.10,MacIntel,60,61025ae37ef11b136ea224fe,,,,,,,,,1157,33.0625,57.58203125,1,0,0,response1disk,,7,-1.11328125,6.0625,1,0,0,rectangle,-1.11328125,6.0625,1,0,0,-1.11328125,6.0625,1,0,0,0,11,11,153,1,,,,,,,,
,,,,,,,,,,,,,FF,,,,,,,,0.9503,,,,,,,,,,,,,,,,,,,,,,610202bb0ca06f14b87d1605,61036b17bda2a5c4581698aa,2021-07-29_21h01.08.350,Simcolourproject_2stim_asymm_v5,2020.2.10,MacIntel,60,61025ae37ef11b136ea224fe,,,,,,,,,2004,43.73828125,89.16796875,1,0,0,response1disk,,7,10.7421875,-1.90625,1,0,0,rectangle,49.7890625,102.78125,1,0,0,-1.8125,2.1171875,1,0,0,0,12,12,91,1,,response1disk_3,TRUE,7,7,"[62,292,213,232,237,162,36,316,146,236,190,29,252,239,266,169,320,224,96,13]",2.0346,rectangle
,,,,,,,,,,,,,FF,,,,,,,,1.449,,,,,,,,,,,,,,,,,,,,,,610202bb0ca06f14b87d1605,61036b17bda2a5c4581698aa,2021-07-29_21h01.08.350,Simcolourproject_2stim_asymm_v5,2020.2.10,MacIntel,60,61025ae37ef11b136ea224fe,,,,,,,,,1297,-82.47265625,25.55859375,1,0,0,response7disk,,1,-13.203125,-0.44140625,1,0,0,rectangle,-13.203125,-0.44140625,1,0,0,-13.203125,-0.44140625,1,0,0,0,13,13,15,1,,,,,,,,
,,,,,,,,,,,,,FF,,,,,,,,1.0805,,,,,,,,,,,,,,,,,,,,,,610202bb0ca06f14b87d1605,61036b17bda2a5c4581698aa,2021-07-29_21h01.08.350,Simcolourproject_2stim_asymm_v5,2020.2.10,MacIntel,60,61025ae37ef11b136ea224fe,,,,,,,,,996,88.8046875,47.53515625,1,0,0,response1disk,,6,-11.77734375,-5.76953125,1,0,0,rectangle,-11.77734375,-5.76953125,1,0,0,-11.77734375,-5.76953125,1,0,0,0,14,14,8,1,,,,,,,,
,,,,,,,,,,,,,FF,,,,,,,,0.7166,,,,,,,,,,,,,,,,,,,,,,610202bb0ca06f14b87d1605,61036b17bda2a5c4581698aa,2021-07-29_21h01.08.350,Simcolourproject_2stim_asymm_v5,2020.2.10,MacIntel,60,61025ae37ef11b136ea224fe,,,,,,,,,2702,30.3828125,66.71875,1,0,0,response1disk,,7,4.5546875,-5.8828125,1,0,0,rectangle,4.5546875,-5.8828125,1,0,0,4.5546875,-5.8828125,1,0,0,0,15,15,90,1,,,,,,,,
,,,,,,,,,,,,,FF,,,,,,,,1.2159,,,,,,,,,,,,,,,,,,,,,,610202bb0ca06f14b87d1605,61036b17bda2a5c4581698aa,2021-07-29_21h01.08.350,Simcolourproject_2stim_asymm_v5,2020.2.10,MacIntel,60,61025ae37ef11b136ea224fe,,,,,,,,,855,83.9765625,-39.94921875,1,0,0,response3disk,,5,21.2578125,-4.09765625,1,0,0,rectangle,21.2578125,-4.09765625,1,0,0,21.2578125,-4.09765625,1,0,0,0,16,16,132,1,,,,,,,,
,,,,,,,,,,,,,FF,,,,,,,,1.5838,,,,,,,,,,,,,,,,,,,,,,610202bb0ca06f14b87d1605,61036b17bda2a5c4581698aa,2021-07-29_21h01.08.350,Simcolourproject_2stim_asymm_v5,2020.2.10,MacIntel,60,61025ae37ef11b136ea224fe,,,,,,,,,4107,106.390625,68.66015625,1,0,0,response1disk,,6,23.83984375,1.453125,1,0,0,rectangle,23.83984375,1.453125,1,0,0,23.83984375,1.453125,1,0,0,0,17,17,103,1,,,,,,,,
,,,,,,,,,,,,,FF,,,,,,,,0.6998,,,,,,,,,,,,,,,,,,,,,,610202bb0ca06f14b87d1605,61036b17bda2a5c4581698aa,2021-07-29_21h01.08.350,Simcolourproject_2stim_asymm_v5,2020.2.10,MacIntel,60,61025ae37ef11b136ea224fe,,,,,,,,,3315,32.109375,70.0078125,1,0,0,response1disk,,7,18.2578125,2.0390625,1,0,0,rectangle,18.2578125,2.0390625,1,0,0,18.2578125,2.0390625,1,0,0,0,18,18,23,1,,,,,,,,
,,,,,,,,,,,,,FF,,,,,,,,1.0167,,,,,,,,,,,,,,,,,,,,,,610202bb0ca06f14b87d1605,61036b17bda2a5c4581698aa,2021-07-29_21h01.08.350,Simcolourproject_2stim_asymm_v5,2020.2.10,MacIntel,60,61025ae37ef11b136ea224fe,,,,,,,,,4344,-31.234375,69.265625,1,0,0,response7disk,,0,4.00390625,1.1484375,1,0,0,rectangle,4.00390625,1.1484375,1,0,0,4.00390625,1.1484375,1,0,0,0,19,19,83,1,,,,,,,,
,,,,,,,,,,,,,FF,,,,,,,,0.8669,,,,,,,,,,,,,,,,,,,,,,610202bb0ca06f14b87d1605,61036b17bda2a5c4581698aa,2021-07-29_21h01.08.350,Simcolourproject_2stim_asymm_v5,2020.2.10,MacIntel,60,61025ae37ef11b136ea224fe,,,,,,,,,3389,-77.97265625,31.3515625,1,0,0,response7disk,,1,-16.94921875,-0.26171875,1,0,0,rectangle,-16.94921875,-0.26171875,1,0,0,-16.94921875,-0.26171875,1,0,0,0,20,20,146,1,,,,,,,,
,,,,,,,,,,,,,FF,,,,,,,,0.6984,,,,,,,,,,,,,,,,,,,,,,610202bb0ca06f14b87d1605,61036b17bda2a5c4581698aa,2021-07-29_21h01.08.350,Simcolourproject_2stim_asymm_v5,2020.2.10,MacIntel,60,61025ae37ef11b136ea224fe,,,,,,,,,3884,35.83984375,78.09765625,1,0,0,response1disk,,7,14.46875,0.53515625,1,0,0,rectangle,14.46875,0.53515625,1,0,0,14.46875,0.53515625,1,0,0,0,21,21,42,1,,,,,,,,
,,,,,,,,,,,,,FF,,,,,,,,0.6829,,,,,,,,,,,,,,,,,,,,,,610202bb0ca06f14b87d1605,61036b17bda2a5c4581698aa,2021-07-29_21h01.08.350,Simcolourproject_2stim_asymm_v5,2020.2.10,MacIntel,60,61025ae37ef11b136ea224fe,,,,,,,,,2819,42.20703125,71.9375,1,0,0,response1disk,,7,26.453125,-2.51171875,1,0,0,rectangle,26.453125,-2.51171875,1,0,0,26.453125,-2.51171875,1,0,0,0,22,22,31,1,,,,,,,,
,,,,,,,,,,,,,FF,,,,,,,,0.8161,,,,,,,,,,,,,,,,,,,,,,610202bb0ca06f14b87d1605,61036b17bda2a5c4581698aa,2021-07-29_21h01.08.350,Simcolourproject_2stim_asymm_v5,2020.2.10,MacIntel,60,61025ae37ef11b136ea224fe,,,,,,,,,4237,-64.74609375,-37.14453125,1,0,0,response5disk,,2,1.03515625,-4.55078125,1,0,0,rectangle,1.03515625,-4.55078125,1,0,0,1.03515625,-4.55078125,1,0,0,0,23,23,100,1,,,,,,,,
,,,,,,,,,,,,,FF,,,,,,,,1.3995,,,,,,,,,,,,,,,,,,,,,,610202bb0ca06f14b87d1605,61036b17bda2a5c4581698aa,2021-07-29_21h01.08.350,Simcolourproject_2stim_asymm_v5,2020.2.10,MacIntel,60,61025ae37ef11b136ea224fe,,,,,,,,,3090,50.09765625,-83.65625,1,0,0,response3disk,,4,0.09765625,-7.16015625,1,0,0,rectangle,0.09765625,-7.16015625,1,0,0,0.09765625,-7.16015625,1,0,0,0,24,24,157,1,,,,,,,,
,,,,,,,,,,,,,FF,,,,,,,,0.6496,,,,,,,,,,,,,,,,,,,,,,610202bb0ca06f14b87d1605,61036b17bda2a5c4581698aa,2021-07-29_21h01.08.350,Simcolourproject_2stim_asymm_v5,2020.2.10,MacIntel,60,61025ae37ef11b136ea224fe,,,,,,,,,1906,35.85546875,85.296875,1,0,0,response1disk,,7,21.21484375,-6.92578125,1,0,0,rectangle,21.21484375,-6.92578125,1,0,0,21.21484375,-6.92578125,1,0,0,0,25,25,58,1,,,,,,,,
,,,,,,,,,,,,,FF,,,,,,,,0.7427,,,,,,,,,,,,,,,,,,,,,,610202bb0ca06f14b87d1605,61036b17bda2a5c4581698aa,2021-07-29_21h01.08.350,Simcolourproject_2stim_asymm_v5,2020.2.10,MacIntel,60,61025ae37ef11b136ea224fe,,,,,,,,,578,32.73828125,71.6015625,1,0,0,response1disk,,7,23.0859375,1.83984375,1,0,0,rectangle,23.0859375,1.83984375,1,0,0,23.0859375,1.83984375,1,0,0,0,26,26,149,1,,,,,,,,
,,,,,,,,,,,,,FF,,,,,,,,1.4809,,,,,,,,,,,,,,,,,,,,,,610202bb0ca06f14b87d1605,61036b17bda2a5c4581698aa,2021-07-29_21h01.08.350,Simcolourproject_2stim_asymm_v5,2020.2.10,MacIntel,60,61025ae37ef11b136ea224fe,,,,,,,,,4339,62.9375,-95.05078125,1,0,0,response3disk,,4,10.703125,-12.88671875,1,0,0,rectangle,10.703125,-12.88671875,1,0,0,10.703125,-12.88671875,1,0,0,0,27,27,14,1,,,,,,,,
,,,,,,,,,,,,,FF,,,,,,,,2.4476,,,,,,,,,,,,,,,,,,,,,,610202bb0ca06f14b87d1605,61036b17bda2a5c4581698aa,2021-07-29_21h01.08.350,Simcolourproject_2stim_asymm_v5,2020.2.10,MacIntel,60,61025ae37ef11b136ea224fe,,,,,,,,,2783,66.91015625,-30.625,1,0,0,response3disk,,5,0.44921875,1.078125,1,0,0,rectangle,-61.77734375,75.15234375,1,0,0,-19.67578125,10.30859375,1,0,0,0,28,28,156,1,,response7disk_3,TRUE,0,0,"[62,292,213,232,237,162,36,316,146,236,190,29,252,239,266,169,320,224,96,13]",1.298,rectangle
,,,,,,,,,,,,,FF,,,,,,,,0.7992,,,,,,,,,,,,,,,,,,,,,,610202bb0ca06f14b87d1605,61036b17bda2a5c4581698aa,2021-07-29_21h01.08.350,Simcolourproject_2stim_asymm_v5,2020.2.10,MacIntel,60,61025ae37ef11b136ea224fe,,,,,,,,,1655,35.80859375,92.2265625,1,0,0,response1disk,,7,9.734375,-9.63671875,1,0,0,rectangle,9.734375,-9.63671875,1,0,0,9.734375,-9.63671875,1,0,0,0,29,29,87,1,,,,,,,,
,,,,,,,,,,,,,FF,,,,,,,,0.6157,,,,,,,,,,,,,,,,,,,,,,610202bb0ca06f14b87d1605,61036b17bda2a5c4581698aa,2021-07-29_21h01.08.350,Simcolourproject_2stim_asymm_v5,2020.2.10,MacIntel,60,61025ae37ef11b136ea224fe,,,,,,,,,1174,43.1640625,78.85546875,1,0,0,response1disk,,7,2.01171875,-13.0859375,1,0,0,rectangle,2.01171875,-13.0859375,1,0,0,2.01171875,-13.0859375,1,0,0,0,30,30,67,1,,,,,,,,
,,,,,,,,,,,,,FF,,,,,,,,0.9173,,,,,,,,,,,,,,,,,,,,,,610202bb0ca06f14b87d1605,61036b17bda2a5c4581698aa,2021-07-29_21h01.08.350,Simcolourproject_2stim_asymm_v5,2020.2.10,MacIntel,60,61025ae37ef11b136ea224fe,,,,,,,,,3198,86.57421875,-46.44921875,1,0,0,response3disk,,5,10.08203125,10.49609375,1,0,0,rectangle,10.08203125,10.49609375,1,0,0,10.08203125,10.49609375,1,0,0,0,31,31,5,1,,,,,,,,
,,,,,,,,,,,,,FF,,,,,,,,1.4824,,,,,,,,,,,,,,,,,,,,,,610202bb0ca06f14b87d1605,61036b17bda2a5c4581698aa,2021-07-29_21h01.08.350,Simcolourproject_2stim_asymm_v5,2020.2.10,MacIntel,60,61025ae37ef11b136ea224fe,,,,,,,,,4130,31.1015625,-88.25,1,0,0,response3disk,,4,4.37890625,-4.6015625,1,0,0,rectangle,4.37890625,-4.6015625,1,0,0,4.37890625,-4.6015625,1,0,0,0,32,32,95,1,,,,,,,,
,,,,,,,,,,,,,FF,,,,,,,,2.4675,,,,,,,,,,,,,,,,,,,,,,610202bb0ca06f14b87d1605,61036b17bda2a5c4581698aa,2021-07-29_21h01.08.350,Simcolourproject_2stim_asymm_v5,2020.2.10,MacIntel,60,61025ae37ef11b136ea224fe,,,,,,,,,963,94.609375,30.125,1,0,0,response1disk,,6,11.234375,-1.375,1,0,0,rectangle,11.234375,-1.375,1,0,0,11.234375,-1.375,1,0,0,0,33,33,140,1,,,,,,,,
,,,,,,,,,,,,,FF,,,,,,,,0.8329,,,,,,,,,,,,,,,,,,,,,,610202bb0ca06f14b87d1605,61036b17bda2a5c4581698aa,2021-07-29_21h01.08.350,Simcolourproject_2stim_asymm_v5,2020.2.10,MacIntel,60,61025ae37ef11b136ea224fe,,,,,,,,,2765,59.39453125,89.16796875,1,0,0,response1disk,,7,20.359375,5.16015625,1,0,0,rectangle,20.359375,5.16015625,1,0,0,20.359375,5.16015625,1,0,0,0,34,34,51,1,,,,,,,,
,,,,,,,,,,,,,FF,,,,,,,,0.9158,,,,,,,,,,,,,,,,,,,,,,610202bb0ca06f14b87d1605,61036b17bda2a5c4581698aa,2021-07-29_21h01.08.350,Simcolourproject_2stim_asymm_v5,2020.2.10,MacIntel,60,61025ae37ef11b136ea224fe,,,,,,,,,2388,44.359375,75.8125,1,0,0,response1disk,,7,9.26171875,-3.15625,1,0,0,rectangle,39.74609375,95.8125,1,0,0,14.53125,1.31640625,1,0,0,0,35,35,79,1,,response1disk_3,TRUE,7,7,"[62,292,213,232,237,162,36,316,146,236,190,29,252,239,266,169,320,224,96,13]",1.2171,rectangle
,,,,,,,,,,,,,FF,,,,,,,,0.7164,,,,,,,,,,,,,,,,,,,,,,610202bb0ca06f14b87d1605,61036b17bda2a5c4581698aa,2021-07-29_21h01.08.350,Simcolourproject_2stim_asymm_v5,2020.2.10,MacIntel,60,61025ae37ef11b136ea224fe,,,,,,,,,297,40.3515625,78.73828125,1,0,0,response1disk,,7,18.1875,3.21484375,1,0,0,rectangle,18.1875,3.21484375,1,0,0,18.1875,3.21484375,1,0,0,0,36,36,97,1,,,,,,,,
,,,,,,,,,,,,,FF,,,,,,,,0.533,,,,,,,,,,,,,,,,,,,,,,610202bb0ca06f14b87d1605,61036b17bda2a5c4581698aa,2021-07-29_21h01.08.350,Simcolourproject_2stim_asymm_v5,2020.2.10,MacIntel,60,61025ae37ef11b136ea224fe,,,,,,,,,3833,19.58203125,16.4921875,1,0,0,response1disk,,6,-5.94140625,1.2890625,1,0,0,rectangle,-5.94140625,1.2890625,1,0,0,-5.94140625,1.2890625,1,0,0,0,37,37,99,1,,,,,,,,
,,,,,,,,,,,,,FF,,,,,,,,0.9658,,,,,,,,,,,,,,,,,,,,,,610202bb0ca06f14b87d1605,61036b17bda2a5c4581698aa,2021-07-29_21h01.08.350,Simcolourproject_2stim_asymm_v5,2020.2.10,MacIntel,60,61025ae37ef11b136ea224fe,,,,,,,,,3009,90.67578125,33.65234375,1,0,0,response1disk,,6,2.57421875,2.703125,1,0,0,rectangle,2.57421875,2.703125,1,0,0,2.57421875,2.703125,1,0,0,0,38,38,114,1,,,,,,,,
,,,,,,,,,,,,,FF,,,,,,,,0.951,,,,,,,,,,,,,,,,,,,,,,610202bb0ca06f14b87d1605,61036b17bda2a5c4581698aa,2021-07-29_21h01.08.350,Simcolourproject_2stim_asymm_v5,2020.2.10,MacIntel,60,61025ae37ef11b136ea224fe,,,,,,,,,2852,41.76171875,100.5507813,1,0,0,response1disk,,7,3.72265625,1.03125,1,0,0,rectangle,3.72265625,1.03125,1,0,0,3.72265625,1.03125,1,0,0,0,39,39,76,1,,,,,,,,
,,,,,,,,,,,,,FF,,,,,,,,1.1686,,,,,,,,,,,,,,,,,,,,,,610202bb0ca06f14b87d1605,61036b17bda2a5c4581698aa,2021-07-29_21h01.08.350,Simcolourproject_2stim_asymm_v5,2020.2.10,MacIntel,60,61025ae37ef11b136ea224fe,,,,,,,,,3997,74.625,-46.93359375,1,0,0,response3disk,,5,2.0234375,-1.53515625,1,0,0,rectangle,2.0234375,-1.53515625,1,0,0,2.0234375,-1.53515625,1,0,0,0,40,40,29,1,,,,,,,,
,,,,,,,,,,,,,FF,,,,,,,,0.8998,,,,,,,,,,,,,,,,,,,,,,610202bb0ca06f14b87d1605,61036b17bda2a5c4581698aa,2021-07-29_21h01.08.350,Simcolourproject_2stim_asymm_v5,2020.2.10,MacIntel,60,61025ae37ef11b136ea224fe,,,,,,,,,1656,39.73828125,82.35546875,1,0,0,response1disk,,7,11.234375,2.96484375,1,0,0,rectangle,11.234375,2.96484375,1,0,0,11.234375,2.96484375,1,0,0,0,41,41,34,1,,,,,,,,
,,,,,,,,,,,,,FF,,,,,,,,0.6671,,,,,,,,,,,,,,,,,,,,,,610202bb0ca06f14b87d1605,61036b17bda2a5c4581698aa,2021-07-29_21h01.08.350,Simcolourproject_2stim_asymm_v5,2020.2.10,MacIntel,60,61025ae37ef11b136ea224fe,,,,,,,,,708,36.09765625,87.8203125,1,0,0,response1disk,,7,14.15625,7.3359375,1,0,0,rectangle,14.15625,7.3359375,1,0,0,14.15625,7.3359375,1,0,0,0,42,42,113,1,,,,,,,,
,,,,,,,,,,,,,FF,,,,,,,,0.9336,,,,,,,,,,,,,,,,,,,,,,610202bb0ca06f14b87d1605,61036b17bda2a5c4581698aa,2021-07-29_21h01.08.350,Simcolourproject_2stim_asymm_v5,2020.2.10,MacIntel,60,61025ae37ef11b136ea224fe,,,,,,,,,1373,-46.03515625,-121.0117188,1,0,0,response5disk,,3,-10.640625,-5.87890625,1,0,0,rectangle,-10.640625,-5.87890625,1,0,0,-10.640625,-5.87890625,1,0,0,0,43,43,136,1,,,,,,,,
,,,,,,,,,,,,,FF,,,,,,,,1.4001,,,,,,,,,,,,,,,,,,,,,,610202bb0ca06f14b87d1605,61036b17bda2a5c4581698aa,2021-07-29_21h01.08.350,Simcolourproject_2stim_asymm_v5,2020.2.10,MacIntel,60,61025ae37ef11b136ea224fe,,,,,,,,,1540,78.875,-57.5,1,0,0,response3disk,,5,4.9296875,-4.73828125,1,0,0,rectangle,4.9296875,-4.73828125,1,0,0,4.9296875,-4.73828125,1,0,0,0,44,44,2,1,,,,,,,,
,,,,,,,,,,,,,FF,,,,,,,,1.4671,,,,,,,,,,,,,,,,,,,,,,610202bb0ca06f14b87d1605,61036b17bda2a5c4581698aa,2021-07-29_21h01.08.350,Simcolourproject_2stim_asymm_v5,2020.2.10,MacIntel,60,61025ae37ef11b136ea224fe,,,,,,,,,4336,-30.62890625,-66.08984375,1,0,0,response5disk,,3,-5.04296875,12.484375,1,0,0,rectangle,-5.04296875,12.484375,1,0,0,-5.04296875,12.484375,1,0,0,0,45,45,86,1,,,,,,,,
,,,,,,,,,,,,,FF,,,,,,,,0.6172,,,,,,,,,,,,,,,,,,,,,,610202bb0ca06f14b87d1605,61036b17bda2a5c4581698aa,2021-07-29_21h01.08.350,Simcolourproject_2stim_asymm_v5,2020.2.10,MacIntel,60,61025ae37ef11b136ea224fe,,,,,,,,,913,34.3046875,80.92578125,1,0,0,response1disk,,7,12.3828125,-4.6875,1,0,0,rectangle,12.3828125,-4.6875,1,0,0,12.3828125,-4.6875,1,0,0,0,46,46,13,1,,,,,,,,
,,,,,,,,,,,,,FF,,,,,,,,1.0501,,,,,,,,,,,,,,,,,,,,,,610202bb0ca06f14b87d1605,61036b17bda2a5c4581698aa,2021-07-29_21h01.08.350,Simcolourproject_2stim_asymm_v5,2020.2.10,MacIntel,60,61025ae37ef11b136ea224fe,,,,,,,,,3,88.33984375,-52.734375,1,0,0,response3disk,,5,-0.625,-4.23828125,1,0,0,rectangle,-0.625,-4.23828125,1,0,0,-0.625,-4.23828125,1,0,0,0,47,47,71,1,,,,,,,,
,,,,,,,,,,,,,FF,,,,,,,,0.8505,,,,,,,,,,,,,,,,,,,,,,610202bb0ca06f14b87d1605,61036b17bda2a5c4581698aa,2021-07-29_21h01.08.350,Simcolourproject_2stim_asymm_v5,2020.2.10,MacIntel,60,61025ae37ef11b136ea224fe,,,,,,,,,4318,94.23828125,51.7734375,1,0,0,response1disk,,6,23.4140625,1.59765625,1,0,0,rectangle,23.4140625,1.59765625,1,0,0,23.4140625,1.59765625,1,0,0,0,48,48,134,1,,,,,,,,
,,,,,,,,,,,,,FF,,,,,,,,0.9004,,,,,,,,,,,,,,,,,,,,,,610202bb0ca06f14b87d1605,61036b17bda2a5c4581698aa,2021-07-29_21h01.08.350,Simcolourproject_2stim_asymm_v5,2020.2.10,MacIntel,60,61025ae37ef11b136ea224fe,,,,,,,,,632,-24.33203125,-52.76953125,1,0,0,response5disk,,3,-1.19140625,1.81640625,1,0,0,rectangle,-1.19140625,1.81640625,1,0,0,-1.19140625,1.81640625,1,0,0,0,49,49,102,1,,,,,,,,
,,,,,,,,,,,,,FF,,,,,,,,0.6831,,,,,,,,,,,,,,,,,,,,,,610202bb0ca06f14b87d1605,61036b17bda2a5c4581698aa,2021-07-29_21h01.08.350,Simcolourproject_2stim_asymm_v5,2020.2.10,MacIntel,60,61025ae37ef11b136ea224fe,,,,,,,,,309,44.4609375,87.609375,1,0,0,response1disk,,7,6.44140625,1.58203125,1,0,0,rectangle,6.44140625,1.58203125,1,0,0,6.44140625,1.58203125,1,0,0,0,50,50,129,1,,,,,,,,
,,,,,,,,,,,,,FF,,,,,,,,0.835,,,,,,,,,,,,,,,,,,,,,,610202bb0ca06f14b87d1605,61036b17bda2a5c4581698aa,2021-07-29_21h01.08.350,Simcolourproject_2stim_asymm_v5,2020.2.10,MacIntel,60,61025ae37ef11b136ea224fe,,,,,,,,,735,41.90234375,76.6796875,1,0,0,response1disk,,7,-0.09765625,2.1171875,1,0,0,rectangle,-0.09765625,2.1171875,1,0,0,-0.09765625,2.1171875,1,0,0,0,51,51,135,1,,,,,,,,
,,,,,,,,,,,,,FF,,,,,,,,1.3984,,,,,,,,,,,,,,,,,,,,,,610202bb0ca06f14b87d1605,61036b17bda2a5c4581698aa,2021-07-29_21h01.08.350,Simcolourproject_2stim_asymm_v5,2020.2.10,MacIntel,60,61025ae37ef11b136ea224fe,,,,,,,,,2289,84.38671875,-55.98828125,1,0,0,response3disk,,5,10.875,-0.5546875,1,0,0,rectangle,10.875,-0.5546875,1,0,0,10.875,-0.5546875,1,0,0,0,52,52,85,1,,,,,,,,
,,,,,,,,,,,,,FF,,,,,,,,0.601,,,,,,,,,,,,,,,,,,,,,,610202bb0ca06f14b87d1605,61036b17bda2a5c4581698aa,2021-07-29_21h01.08.350,Simcolourproject_2stim_asymm_v5,2020.2.10,MacIntel,60,61025ae37ef11b136ea224fe,,,,,,,,,2807,34.58203125,78.1484375,1,0,0,response1disk,,7,9.08984375,1.08203125,1,0,0,rectangle,9.08984375,1.08203125,1,0,0,9.08984375,1.08203125,1,0,0,0,53,53,127,1,,,,,,,,
,,,,,,,,,,,,,FF,,,,,,,,1.2516,,,,,,,,,,,,,,,,,,,,,,610202bb0ca06f14b87d1605,61036b17bda2a5c4581698aa,2021-07-29_21h01.08.350,Simcolourproject_2stim_asymm_v5,2020.2.10,MacIntel,60,61025ae37ef11b136ea224fe,,,,,,,,,2356,61.3671875,-72.2265625,1,0,0,response3disk,,4,19.34765625,0.30859375,1,0,0,rectangle,19.34765625,0.30859375,1,0,0,19.34765625,0.30859375,1,0,0,0,54,54,107,1,,,,,,,,
,,,,,,,,,,,,,FF,,,,,,,,0.5833,,,,,,,,,,,,,,,,,,,,,,610202bb0ca06f14b87d1605,61036b17bda2a5c4581698aa,2021-07-29_21h01.08.350,Simcolourproject_2stim_asymm_v5,2020.2.10,MacIntel,60,61025ae37ef11b136ea224fe,,,,,,,,,2071,48.77734375,90.15234375,1,0,0,response1disk,,7,10.63671875,-0.3515625,1,0,0,rectangle,10.63671875,-0.3515625,1,0,0,10.63671875,-0.3515625,1,0,0,0,55,55,48,1,,,,,,,,
,,,,,,,,,,,,,FF,,,,,,,,0.5837,,,,,,,,,,,,,,,,,,,,,,610202bb0ca06f14b87d1605,61036b17bda2a5c4581698aa,2021-07-29_21h01.08.350,Simcolourproject_2stim_asymm_v5,2020.2.10,MacIntel,60,61025ae37ef11b136ea224fe,,,,,,,,,1804,52.34375,85.94921875,1,0,0,response1disk,,7,23.10546875,0.08984375,1,0,0,rectangle,23.10546875,0.08984375,1,0,0,23.10546875,0.08984375,1,0,0,0,56,56,66,1,,,,,,,,
,,,,,,,,,,,,,FF,,,,,,,,0.8496,,,,,,,,,,,,,,,,,,,,,,610202bb0ca06f14b87d1605,61036b17bda2a5c4581698aa,2021-07-29_21h01.08.350,Simcolourproject_2stim_asymm_v5,2020.2.10,MacIntel,60,61025ae37ef11b136ea224fe,,,,,,,,,2443,27.890625,62.0625,1,0,0,response1disk,,7,15.30859375,-8.26171875,1,0,0,rectangle,15.30859375,-8.26171875,1,0,0,15.30859375,-8.26171875,1,0,0,0,57,57,133,1,,,,,,,,
,,,,,,,,,,,,,FF,,,,,,,,0.9506,,,,,,,,,,,,,,,,,,,,,,610202bb0ca06f14b87d1605,61036b17bda2a5c4581698aa,2021-07-29_21h01.08.350,Simcolourproject_2stim_asymm_v5,2020.2.10,MacIntel,60,61025ae37ef11b136ea224fe,,,,,,,,,4163,-37.0859375,-81.8359375,1,0,0,response5disk,,3,-11.8671875,-2.94140625,1,0,0,rectangle,-11.8671875,-2.94140625,1,0,0,-11.8671875,-2.94140625,1,0,0,0,58,58,37,1,,,,,,,,
,,,,,,,,,,,,,FF,,,,,,,,0.9497,,,,,,,,,,,,,,,,,,,,,,610202bb0ca06f14b87d1605,61036b17bda2a5c4581698aa,2021-07-29_21h01.08.350,Simcolourproject_2stim_asymm_v5,2020.2.10,MacIntel,60,61025ae37ef11b136ea224fe,,,,,,,,,1535,50.27734375,-90.6171875,1,0,0,response3disk,,4,-0.19921875,-2.30859375,1,0,0,rectangle,-0.19921875,-2.30859375,1,0,0,-0.19921875,-2.30859375,1,0,0,0,59,59,17,1,,,,,,,,
,,,,,,,,,,,,,FF,,,,,,,,1.1172,,,,,,,,,,,,,,,,,,,,,,610202bb0ca06f14b87d1605,61036b17bda2a5c4581698aa,2021-07-29_21h01.08.350,Simcolourproject_2stim_asymm_v5,2020.2.10,MacIntel,60,61025ae37ef11b136ea224fe,,,,,,,,,3161,98.4765625,-40.0234375,1,0,0,response3disk,,5,14.1796875,5.53515625,1,0,0,rectangle,14.1796875,5.53515625,1,0,0,14.1796875,5.53515625,1,0,0,0,60,60,62,1,,,,,,,,
,,,,,,,,,,,,,FF,,,,,,,,0.5337,,,,,,,,,,,,,,,,,,,,,,610202bb0ca06f14b87d1605,61036b17bda2a5c4581698aa,2021-07-29_21h01.08.350,Simcolourproject_2stim_asymm_v5,2020.2.10,MacIntel,60,61025ae37ef11b136ea224fe,,,,,,,,,1494,29.58984375,85.578125,1,0,0,response1disk,,7,9.25390625,2.1328125,1,0,0,rectangle,-78.61328125,-35.42578125,1,0,0,-0.0625,2.37890625,1,0,0,0,61,61,49,1,,response5disk_3,TRUE,2,2,"[62,292,213,232,237,162,36,316,146,236,190,29,252,239,266,169,320,224,96,13]",1.6163,rectangle
,,,,,,,,,,,,,FF,,,,,,,,1.0495,,,,,,,,,,,,,,,,,,,,,,610202bb0ca06f14b87d1605,61036b17bda2a5c4581698aa,2021-07-29_21h01.08.350,Simcolourproject_2stim_asymm_v5,2020.2.10,MacIntel,60,61025ae37ef11b136ea224fe,,,,,,,,,145,80.72265625,-28.25390625,1,0,0,response3disk,,5,3.95703125,-5.66015625,1,0,0,rectangle,3.95703125,-5.66015625,1,0,0,3.95703125,-5.66015625,1,0,0,0,62,62,9,1,,,,,,,,
,,,,,,,,,,,,,FF,,,,,,,,1.1338,,,,,,,,,,,,,,,,,,,,,,610202bb0ca06f14b87d1605,61036b17bda2a5c4581698aa,2021-07-29_21h01.08.350,Simcolourproject_2stim_asymm_v5,2020.2.10,MacIntel,60,61025ae37ef11b136ea224fe,,,,,,,,,4251,-81.90234375,56.1796875,1,0,0,response7disk,,1,4.5859375,-1.83203125,1,0,0,rectangle,4.5859375,-1.83203125,1,0,0,4.5859375,-1.83203125,1,0,0,0,63,63,43,1,,,,,,,,
,,,,,,,,,,,,,FF,,,,,,,,0.6163,,,,,,,,,,,,,,,,,,,,,,610202bb0ca06f14b87d1605,61036b17bda2a5c4581698aa,2021-07-29_21h01.08.350,Simcolourproject_2stim_asymm_v5,2020.2.10,MacIntel,60,61025ae37ef11b136ea224fe,,,,,,,,,3489,54.578125,99.0703125,1,0,0,response1disk,,7,10.7734375,-1.68359375,1,0,0,rectangle,10.7734375,-1.68359375,1,0,0,10.7734375,-1.68359375,1,0,0,0,64,64,22,1,,,,,,,,
,,,,,,,,,,,,,FF,,,,,,,,0.967,,,,,,,,,,,,,,,,,,,,,,610202bb0ca06f14b87d1605,61036b17bda2a5c4581698aa,2021-07-29_21h01.08.350,Simcolourproject_2stim_asymm_v5,2020.2.10,MacIntel,60,61025ae37ef11b136ea224fe,,,,,,,,,2237,76.77734375,-42.40625,1,0,0,response3disk,,5,-14.30078125,1.66796875,1,0,0,rectangle,-14.30078125,1.66796875,1,0,0,-14.30078125,1.66796875,1,0,0,0,65,65,75,1,,,,,,,,
,,,,,,,,,,,,,FF,,,,,,,,0.6849,,,,,,,,,,,,,,,,,,,,,,610202bb0ca06f14b87d1605,61036b17bda2a5c4581698aa,2021-07-29_21h01.08.350,Simcolourproject_2stim_asymm_v5,2020.2.10,MacIntel,60,61025ae37ef11b136ea224fe,,,,,,,,,226,45.11328125,88.4609375,1,0,0,response1disk,,7,6.66015625,-1.50390625,1,0,0,rectangle,6.66015625,-1.50390625,1,0,0,6.66015625,-1.50390625,1,0,0,0,66,66,104,1,,,,,,,,
,,,,,,,,,,,,,FF,,,,,,,,1.4674,,,,,,,,,,,,,,,,,,,,,,610202bb0ca06f14b87d1605,61036b17bda2a5c4581698aa,2021-07-29_21h01.08.350,Simcolourproject_2stim_asymm_v5,2020.2.10,MacIntel,60,61025ae37ef11b136ea224fe,,,,,,,,,1295,120.03125,31.76953125,1,0,0,response1disk,,6,6.88671875,-1.0078125,1,0,0,rectangle,6.88671875,-1.0078125,1,0,0,6.88671875,-1.0078125,1,0,0,0,67,67,4,1,,,,,,,,
,,,,,,,,,,,,,FF,,,,,,,,1.2335,,,,,,,,,,,,,,,,,,,,,,610202bb0ca06f14b87d1605,61036b17bda2a5c4581698aa,2021-07-29_21h01.08.350,Simcolourproject_2stim_asymm_v5,2020.2.10,MacIntel,60,61025ae37ef11b136ea224fe,,,,,,,,,2154,86.984375,39.62109375,1,0,0,response1disk,,6,27.984375,12.3046875,1,0,0,rectangle,27.984375,12.3046875,1,0,0,27.984375,12.3046875,1,0,0,0,68,68,0,1,,,,,,,,
,,,,,,,,,,,,,FF,,,,,,,,0.5646,,,,,,,,,,,,,,,,,,,,,,610202bb0ca06f14b87d1605,61036b17bda2a5c4581698aa,2021-07-29_21h01.08.350,Simcolourproject_2stim_asymm_v5,2020.2.10,MacIntel,60,61025ae37ef11b136ea224fe,,,,,,,,,1279,37.48828125,71.984375,1,0,0,response1disk,,7,16.625,-6.17578125,1,0,0,rectangle,16.625,-6.17578125,1,0,0,16.625,-6.17578125,1,0,0,0,69,69,54,1,,,,,,,,
,,,,,,,,,,,,,FF,,,,,,,,1.1497,,,,,,,,,,,,,,,,,,,,,,610202bb0ca06f14b87d1605,61036b17bda2a5c4581698aa,2021-07-29_21h01.08.350,Simcolourproject_2stim_asymm_v5,2020.2.10,MacIntel,60,61025ae37ef11b136ea224fe,,,,,,,,,433,75,47.2109375,1,0,0,response1disk,,6,18.47265625,13.58984375,1,0,0,rectangle,18.47265625,13.58984375,1,0,0,18.47265625,13.58984375,1,0,0,0,70,70,32,1,,,,,,,,
,,,,,,,,,,,,,FF,,,,,,,,0.5501,,,,,,,,,,,,,,,,,,,,,,610202bb0ca06f14b87d1605,61036b17bda2a5c4581698aa,2021-07-29_21h01.08.350,Simcolourproject_2stim_asymm_v5,2020.2.10,MacIntel,60,61025ae37ef11b136ea224fe,,,,,,,,,4184,45.01171875,81.16015625,1,0,0,response1disk,,7,12.66015625,1.78515625,1,0,0,rectangle,12.66015625,1.78515625,1,0,0,12.66015625,1.78515625,1,0,0,0,71,71,52,1,,,,,,,,
,,,,,,,,,,,,,FF,,,,,,,,1.3507,,,,,,,,,,,,,,,,,,,,,,610202bb0ca06f14b87d1605,61036b17bda2a5c4581698aa,2021-07-29_21h01.08.350,Simcolourproject_2stim_asymm_v5,2020.2.10,MacIntel,60,61025ae37ef11b136ea224fe,,,,,,,,,3373,-29.69140625,-61.7734375,1,0,0,response5disk,,3,-14.55078125,0.828125,1,0,0,rectangle,-14.55078125,0.828125,1,0,0,-14.55078125,0.828125,1,0,0,0,72,72,10,1,,,,,,,,
,,,,,,,,,,,,,FF,,,,,,,,1.0162,,,,,,,,,,,,,,,,,,,,,,610202bb0ca06f14b87d1605,61036b17bda2a5c4581698aa,2021-07-29_21h01.08.350,Simcolourproject_2stim_asymm_v5,2020.2.10,MacIntel,60,61025ae37ef11b136ea224fe,,,,,,,,,8,93.80078125,-42.578125,1,0,0,response3disk,,5,-1.8828125,-5.78125,1,0,0,rectangle,-1.8828125,-5.78125,1,0,0,-1.8828125,-5.78125,1,0,0,0,73,73,46,1,,,,,,,,
,,,,,,,,,,,,,FF,,,,,,,,0.9499,,,,,,,,,,,,,,,,,,,,,,610202bb0ca06f14b87d1605,61036b17bda2a5c4581698aa,2021-07-29_21h01.08.350,Simcolourproject_2stim_asymm_v5,2020.2.10,MacIntel,60,61025ae37ef11b136ea224fe,,,,,,,,,4027,82.05859375,-25.7421875,1,0,0,response3disk,,5,29.09765625,0.94921875,1,0,0,rectangle,29.09765625,0.94921875,1,0,0,29.09765625,0.94921875,1,0,0,0,74,74,3,1,,,,,,,,
,,,,,,,,,,,,,FF,,,,,,,,0.849,,,,,,,,,,,,,,,,,,,,,,610202bb0ca06f14b87d1605,61036b17bda2a5c4581698aa,2021-07-29_21h01.08.350,Simcolourproject_2stim_asymm_v5,2020.2.10,MacIntel,60,61025ae37ef11b136ea224fe,,,,,,,,,3823,46.56640625,109.359375,1,0,0,response1disk,,7,-3.07421875,1.67578125,1,0,0,rectangle,-3.07421875,1.67578125,1,0,0,-3.07421875,1.67578125,1,0,0,0,75,75,126,1,,,,,,,,
,,,,,,,,,,,,,FF,,,,,,,,2.0495,,,,,,,,,,,,,,,,,,,,,,610202bb0ca06f14b87d1605,61036b17bda2a5c4581698aa,2021-07-29_21h01.08.350,Simcolourproject_2stim_asymm_v5,2020.2.10,MacIntel,60,61025ae37ef11b136ea224fe,,,,,,,,,4216,42.6796875,69.671875,1,0,0,response1disk,,7,6.515625,-8.96484375,1,0,0,rectangle,6.515625,-8.96484375,1,0,0,6.515625,-8.96484375,1,0,0,0,76,76,24,1,,,,,,,,
,,,,,,,,,,,,,FF,,,,,,,,1.0167,,,,,,,,,,,,,,,,,,,,,,610202bb0ca06f14b87d1605,61036b17bda2a5c4581698aa,2021-07-29_21h01.08.350,Simcolourproject_2stim_asymm_v5,2020.2.10,MacIntel,60,61025ae37ef11b136ea224fe,,,,,,,,,2742,98.625,47.0390625,1,0,0,response1disk,,6,2.18359375,6.36328125,1,0,0,rectangle,2.18359375,6.36328125,1,0,0,2.18359375,6.36328125,1,0,0,0,77,77,25,1,,,,,,,,
,,,,,,,,,,,,,FF,,,,,,,,0.6162,,,,,,,,,,,,,,,,,,,,,,610202bb0ca06f14b87d1605,61036b17bda2a5c4581698aa,2021-07-29_21h01.08.350,Simcolourproject_2stim_asymm_v5,2020.2.10,MacIntel,60,61025ae37ef11b136ea224fe,,,,,,,,,756,34.8828125,91.1015625,1,0,0,response1disk,,7,-1.8203125,7.67578125,1,0,0,rectangle,-1.8203125,7.67578125,1,0,0,-1.8203125,7.67578125,1,0,0,0,78,78,36,1,,,,,,,,
,,,,,,,,,,,,,FF,,,,,,,,0.5996,,,,,,,,,,,,,,,,,,,,,,610202bb0ca06f14b87d1605,61036b17bda2a5c4581698aa,2021-07-29_21h01.08.350,Simcolourproject_2stim_asymm_v5,2020.2.10,MacIntel,60,61025ae37ef11b136ea224fe,,,,,,,,,2382,43.125,95.9140625,1,0,0,response1disk,,7,15.078125,6.9921875,1,0,0,rectangle,15.078125,6.9921875,1,0,0,15.078125,6.9921875,1,0,0,0,79,79,41,1,,,,,,,,
,,,,,,,,,,,,,FF,,,,,,,,1.4678,,,,,,,,,,,,,,,,,,,,,,610202bb0ca06f14b87d1605,61036b17bda2a5c4581698aa,2021-07-29_21h01.08.350,Simcolourproject_2stim_asymm_v5,2020.2.10,MacIntel,60,61025ae37ef11b136ea224fe,,,,,,,,,2433,96.46875,38.62109375,1,0,0,response1disk,,6,10.90234375,-0.9765625,1,0,0,rectangle,10.90234375,-0.9765625,1,0,0,10.90234375,-0.9765625,1,0,0,0,80,80,65,1,,,,,,,,
,,,,,,,,,,,,,FF,,,,,,,,0.5487,,,,,,,,,,,,,,,,,,,,,,610202bb0ca06f14b87d1605,61036b17bda2a5c4581698aa,2021-07-29_21h01.08.350,Simcolourproject_2stim_asymm_v5,2020.2.10,MacIntel,60,61025ae37ef11b136ea224fe,,,,,,,,,330,41.57421875,78.37109375,1,0,0,response1disk,,7,25.67578125,7.87890625,1,0,0,rectangle,25.67578125,7.87890625,1,0,0,25.67578125,7.87890625,1,0,0,0,81,81,158,1,,,,,,,,
,,,,,,,,,,,,,FF,,,,,,,,1.1005,,,,,,,,,,,,,,,,,,,,,,610202bb0ca06f14b87d1605,61036b17bda2a5c4581698aa,2021-07-29_21h01.08.350,Simcolourproject_2stim_asymm_v5,2020.2.10,MacIntel,60,61025ae37ef11b136ea224fe,,,,,,,,,3291,94.03125,-55.4765625,1,0,0,response3disk,,5,11.59765625,1.95703125,1,0,0,rectangle,11.59765625,1.95703125,1,0,0,11.59765625,1.95703125,1,0,0,0,82,82,44,1,,,,,,,,
,,,,,,,,,,,,,FF,,,,,,,,0.9056,,,,,,,,,,,,,,,,,,,,,,610202bb0ca06f14b87d1605,61036b17bda2a5c4581698aa,2021-07-29_21h01.08.350,Simcolourproject_2stim_asymm_v5,2020.2.10,MacIntel,60,61025ae37ef11b136ea224fe,,,,,,,,,978,103.28125,-41.8046875,1,0,0,response3disk,,5,11.890625,-5.7578125,1,0,0,rectangle,11.890625,-5.7578125,1,0,0,11.890625,-5.7578125,1,0,0,0,83,83,70,1,,,,,,,,
,,,,,,,,,,,,,FF,,,,,,,,0.5507,,,,,,,,,,,,,,,,,,,,,,610202bb0ca06f14b87d1605,61036b17bda2a5c4581698aa,2021-07-29_21h01.08.350,Simcolourproject_2stim_asymm_v5,2020.2.10,MacIntel,60,61025ae37ef11b136ea224fe,,,,,,,,,584,41.16796875,67.6015625,1,0,0,response1disk,,7,17.04296875,-9.5,1,0,0,rectangle,17.04296875,-9.5,1,0,0,17.04296875,-9.5,1,0,0,0,84,84,33,1,,,,,,,,
,,,,,,,,,,,,,FF,,,,,,,,0.4827,,,,,,,,,,,,,,,,,,,,,,610202bb0ca06f14b87d1605,61036b17bda2a5c4581698aa,2021-07-29_21h01.08.350,Simcolourproject_2stim_asymm_v5,2020.2.10,MacIntel,60,61025ae37ef11b136ea224fe,,,,,,,,,2758,35.0546875,68.51171875,1,0,0,response1disk,,7,24.62109375,-3.12109375,1,0,0,rectangle,24.62109375,-3.12109375,1,0,0,24.62109375,-3.12109375,1,0,0,0,85,85,35,1,,,,,,,,
,,,,,,,,,,,,,FF,,,,,,,,0.4512,,,,,,,,,,,,,,,,,,,,,,610202bb0ca06f14b87d1605,61036b17bda2a5c4581698aa,2021-07-29_21h01.08.350,Simcolourproject_2stim_asymm_v5,2020.2.10,MacIntel,60,61025ae37ef11b136ea224fe,,,,,,,,,1797,36.19140625,85.47265625,1,0,0,response1disk,,7,23.3125,5.7734375,1,0,0,rectangle,23.3125,5.7734375,1,0,0,23.3125,5.7734375,1,0,0,0,86,86,47,1,,,,,,,,
,,,,,,,,,,,,,FF,,,,,,,,0.5673,,,,,,,,,,,,,,,,,,,,,,610202bb0ca06f14b87d1605,61036b17bda2a5c4581698aa,2021-07-29_21h01.08.350,Simcolourproject_2stim_asymm_v5,2020.2.10,MacIntel,60,61025ae37ef11b136ea224fe,,,,,,,,,1861,40.15234375,67.55078125,1,0,0,response1disk,,7,21.58203125,0.91015625,1,0,0,rectangle,21.58203125,0.91015625,1,0,0,21.58203125,0.91015625,1,0,0,0,87,87,74,1,,,,,,,,
,,,,,,,,,,,,,FF,,,,,,,,1.4989,,,,,,,,,,,,,,,,,,,,,,610202bb0ca06f14b87d1605,61036b17bda2a5c4581698aa,2021-07-29_21h01.08.350,Simcolourproject_2stim_asymm_v5,2020.2.10,MacIntel,60,61025ae37ef11b136ea224fe,,,,,,,,,3506,51.3671875,-71.51953125,1,0,0,response3disk,,4,8.89453125,-9.70703125,1,0,0,rectangle,8.89453125,-9.70703125,1,0,0,8.89453125,-9.70703125,1,0,0,0,88,88,72,1,,,,,,,,
,,,,,,,,,,,,,FF,,,,,,,,1.8502,,,,,,,,,,,,,,,,,,,,,,610202bb0ca06f14b87d1605,61036b17bda2a5c4581698aa,2021-07-29_21h01.08.350,Simcolourproject_2stim_asymm_v5,2020.2.10,MacIntel,60,61025ae37ef11b136ea224fe,,,,,,,,,3682,35.5078125,66.1953125,1,0,0,response1disk,,7,18.16796875,-1.2890625,1,0,0,rectangle,18.16796875,-1.2890625,1,0,0,18.16796875,-1.2890625,1,0,0,0,89,89,138,1,,,,,,,,
,,,,,,,,,,,,,FF,,,,,,,,0.6495,,,,,,,,,,,,,,,,,,,,,,610202bb0ca06f14b87d1605,61036b17bda2a5c4581698aa,2021-07-29_21h01.08.350,Simcolourproject_2stim_asymm_v5,2020.2.10,MacIntel,60,61025ae37ef11b136ea224fe,,,,,,,,,3425,-41.67578125,76.140625,1,0,0,response7disk,,0,-12.96484375,0.8359375,1,0,0,rectangle,-12.96484375,0.8359375,1,0,0,-12.96484375,0.8359375,1,0,0,0,90,90,26,1,,,,,,,,
,,,,,,,,,,,,,FF,,,,,,,,2.3666,,,,,,,,,,,,,,,,,,,,,,610202bb0ca06f14b87d1605,61036b17bda2a5c4581698aa,2021-07-29_21h01.08.350,Simcolourproject_2stim_asymm_v5,2020.2.10,MacIntel,60,61025ae37ef11b136ea224fe,,,,,,,,,3601,81.078125,-61.80859375,1,0,0,response3disk,,5,17.60546875,8.3515625,1,0,0,rectangle,17.60546875,8.3515625,1,0,0,17.60546875,8.3515625,1,0,0,0,91,91,119,1,,,,,,,,
,,,,,,,,,,,,,FF,,,,,,,,0.6499,,,,,,,,,,,,,,,,,,,,,,610202bb0ca06f14b87d1605,61036b17bda2a5c4581698aa,2021-07-29_21h01.08.350,Simcolourproject_2stim_asymm_v5,2020.2.10,MacIntel,60,61025ae37ef11b136ea224fe,,,,,,,,,3300,41.84375,68.625,1,0,0,response1disk,,7,15.8203125,-4.69921875,1,0,0,rectangle,15.8203125,-4.69921875,1,0,0,15.8203125,-4.69921875,1,0,0,0,92,92,112,1,,,,,,,,
,,,,,,,,,,,,,FF,,,,,,,,0.5168,,,,,,,,,,,,,,,,,,,,,,610202bb0ca06f14b87d1605,61036b17bda2a5c4581698aa,2021-07-29_21h01.08.350,Simcolourproject_2stim_asymm_v5,2020.2.10,MacIntel,60,61025ae37ef11b136ea224fe,,,,,,,,,779,35.6796875,66.18359375,1,0,0,response1disk,,7,25.171875,-17.07421875,1,0,0,rectangle,25.171875,-17.07421875,1,0,0,25.171875,-17.07421875,1,0,0,0,93,93,59,1,,,,,,,,
,,,,,,,,,,,,,FF,,,,,,,,0.8839,,,,,,,,,,,,,,,,,,,,,,610202bb0ca06f14b87d1605,61036b17bda2a5c4581698aa,2021-07-29_21h01.08.350,Simcolourproject_2stim_asymm_v5,2020.2.10,MacIntel,60,61025ae37ef11b136ea224fe,,,,,,,,,1365,58.69921875,89.5234375,1,0,0,response1disk,,7,19.20703125,3.18359375,1,0,0,rectangle,19.20703125,3.18359375,1,0,0,19.20703125,3.18359375,1,0,0,0,94,94,11,1,,,,,,,,
,,,,,,,,,,,,,FF,,,,,,,,1.233,,,,,,,,,,,,,,,,,,,,,,610202bb0ca06f14b87d1605,61036b17bda2a5c4581698aa,2021-07-29_21h01.08.350,Simcolourproject_2stim_asymm_v5,2020.2.10,MacIntel,60,61025ae37ef11b136ea224fe,,,,,,,,,4254,18.515625,-106.59375,1,0,0,response3disk,,4,-0.58203125,6.66015625,1,0,0,rectangle,93.4140625,-38.35546875,1,0,0,-4.37890625,-0.171875,1,0,0,0,95,95,50,1,,response3disk_3,TRUE,5,5,"[62,292,213,232,237,162,36,316,146,236,190,29,252,239,266,169,320,224,96,13]",1.4828,rectangle
,,,,,,,,,,,,,FF,,,,,,,,0.8175,,,,,,,,,,,,,,,,,,,,,,610202bb0ca06f14b87d1605,61036b17bda2a5c4581698aa,2021-07-29_21h01.08.350,Simcolourproject_2stim_asymm_v5,2020.2.10,MacIntel,60,61025ae37ef11b136ea224fe,,,,,,,,,1062,90.21875,42.703125,1,0,0,response1disk,,6,-3.2734375,0.33203125,1,0,0,rectangle,-3.2734375,0.33203125,1,0,0,-3.2734375,0.33203125,1,0,0,0,96,96,121,1,,,,,,,,
,,,,,,,,,,,,,FF,,,,,,,,0.5936,,,,,,,,,,,,,,,,,,,,,,610202bb0ca06f14b87d1605,61036b17bda2a5c4581698aa,2021-07-29_21h01.08.350,Simcolourproject_2stim_asymm_v5,2020.2.10,MacIntel,60,61025ae37ef11b136ea224fe,,,,,,,,,3628,32.57421875,90.92578125,1,0,0,response1disk,,7,10.5234375,4.30078125,1,0,0,rectangle,10.5234375,4.30078125,1,0,0,10.5234375,4.30078125,1,0,0,0,97,97,68,1,,,,,,,,
,,,,,,,,,,,,,FF,,,,,,,,1.3176,,,,,,,,,,,,,,,,,,,,,,610202bb0ca06f14b87d1605,61036b17bda2a5c4581698aa,2021-07-29_21h01.08.350,Simcolourproject_2stim_asymm_v5,2020.2.10,MacIntel,60,61025ae37ef11b136ea224fe,,,,,,,,,2166,54.02734375,-94.41796875,1,0,0,response3disk,,4,14.984375,-9.16015625,1,0,0,rectangle,14.984375,-9.16015625,1,0,0,14.984375,-9.16015625,1,0,0,0,98,98,69,1,,,,,,,,
,,,,,,,,,,,,,FF,,,,,,,,1.0993,,,,,,,,,,,,,,,,,,,,,,610202bb0ca06f14b87d1605,61036b17bda2a5c4581698aa,2021-07-29_21h01.08.350,Simcolourproject_2stim_asymm_v5,2020.2.10,MacIntel,60,61025ae37ef11b136ea224fe,,,,,,,,,2129,94.09765625,42.97265625,1,0,0,response1disk,,6,10.8515625,7.52734375,1,0,0,rectangle,10.8515625,7.52734375,1,0,0,10.8515625,7.52734375,1,0,0,0,99,99,109,1,,,,,,,,
,,,,,,,,,,,,,FF,,,,,,,,1.3999,,,,,,,,,,,,,,,,,,,,,,610202bb0ca06f14b87d1605,61036b17bda2a5c4581698aa,2021-07-29_21h01.08.350,Simcolourproject_2stim_asymm_v5,2020.2.10,MacIntel,60,61025ae37ef11b136ea224fe,,,,,,,,,2310,59.484375,71.421875,1,0,0,response1disk,,7,17.33984375,-3.51953125,1,0,0,rectangle,17.33984375,-3.51953125,1,0,0,17.33984375,-3.51953125,1,0,0,0,100,100,139,1,,,,,,,,
,,,,,,,,,,,,,FF,,,,,,,,0.567,,,,,,,,,,,,,,,,,,,,,,610202bb0ca06f14b87d1605,61036b17bda2a5c4581698aa,2021-07-29_21h01.08.350,Simcolourproject_2stim_asymm_v5,2020.2.10,MacIntel,60,61025ae37ef11b136ea224fe,,,,,,,,,137,34.79296875,54.8125,1,0,0,response1disk,,7,19.2578125,0.19921875,1,0,0,rectangle,19.2578125,0.19921875,1,0,0,19.2578125,0.19921875,1,0,0,0,101,101,60,1,,,,,,,,
,,,,,,,,,,,,,FF,,,,,,,,0.7172,,,,,,,,,,,,,,,,,,,,,,610202bb0ca06f14b87d1605,61036b17bda2a5c4581698aa,2021-07-29_21h01.08.350,Simcolourproject_2stim_asymm_v5,2020.2.10,MacIntel,60,61025ae37ef11b136ea224fe,,,,,,,,,3727,30.5859375,72.15234375,1,0,0,response1disk,,7,16.390625,4.4609375,1,0,0,rectangle,16.390625,4.4609375,1,0,0,16.390625,4.4609375,1,0,0,0,102,102,108,1,,,,,,,,
,,,,,,,,,,,,,FF,,,,,,,,0.9339,,,,,,,,,,,,,,,,,,,,,,610202bb0ca06f14b87d1605,61036b17bda2a5c4581698aa,2021-07-29_21h01.08.350,Simcolourproject_2stim_asymm_v5,2020.2.10,MacIntel,60,61025ae37ef11b136ea224fe,,,,,,,,,3840,81.3671875,-61.41796875,1,0,0,response3disk,,5,9.1875,-8.34375,1,0,0,rectangle,9.1875,-8.34375,1,0,0,9.1875,-8.34375,1,0,0,0,103,103,78,1,,,,,,,,
,,,,,,,,,,,,,FF,,,,,,,,0.8833,,,,,,,,,,,,,,,,,,,,,,610202bb0ca06f14b87d1605,61036b17bda2a5c4581698aa,2021-07-29_21h01.08.350,Simcolourproject_2stim_asymm_v5,2020.2.10,MacIntel,60,61025ae37ef11b136ea224fe,,,,,,,,,2167,-92.2421875,39.8671875,1,0,0,response7disk,,1,-18.63671875,-0.16796875,1,0,0,rectangle,-18.63671875,-0.16796875,1,0,0,-18.63671875,-0.16796875,1,0,0,0,104,104,64,1,,,,,,,,
,,,,,,,,,,,,,FF,,,,,,,,1.5501,,,,,,,,,,,,,,,,,,,,,,610202bb0ca06f14b87d1605,61036b17bda2a5c4581698aa,2021-07-29_21h01.08.350,Simcolourproject_2stim_asymm_v5,2020.2.10,MacIntel,60,61025ae37ef11b136ea224fe,,,,,,,,,873,89.03515625,-49.36328125,1,0,0,response3disk,,5,-5.66015625,-4.58984375,1,0,0,rectangle,-5.66015625,-4.58984375,1,0,0,-5.66015625,-4.58984375,1,0,0,0,105,105,137,1,,,,,,,,
,,,,,,,,,,,,,FF,,,,,,,,0.5497,,,,,,,,,,,,,,,,,,,,,,610202bb0ca06f14b87d1605,61036b17bda2a5c4581698aa,2021-07-29_21h01.08.350,Simcolourproject_2stim_asymm_v5,2020.2.10,MacIntel,60,61025ae37ef11b136ea224fe,,,,,,,,,1696,49.36328125,110.5195313,1,0,0,response1disk,,7,11.6484375,-3.8984375,1,0,0,rectangle,11.6484375,-3.8984375,1,0,0,11.6484375,-3.8984375,1,0,0,0,106,106,63,1,,,,,,,,
,,,,,,,,,,,,,FF,,,,,,,,1.0161,,,,,,,,,,,,,,,,,,,,,,610202bb0ca06f14b87d1605,61036b17bda2a5c4581698aa,2021-07-29_21h01.08.350,Simcolourproject_2stim_asymm_v5,2020.2.10,MacIntel,60,61025ae37ef11b136ea224fe,,,,,,,,,557,103.1601563,-46.11328125,1,0,0,response3disk,,5,24.8984375,-4.68359375,1,0,0,rectangle,24.8984375,-4.68359375,1,0,0,24.8984375,-4.68359375,1,0,0,0,107,107,16,1,,,,,,,,
,,,,,,,,,,,,,FF,,,,,,,,1.5507,,,,,,,,,,,,,,,,,,,,,,610202bb0ca06f14b87d1605,61036b17bda2a5c4581698aa,2021-07-29_21h01.08.350,Simcolourproject_2stim_asymm_v5,2020.2.10,MacIntel,60,61025ae37ef11b136ea224fe,,,,,,,,,442,-25.671875,-83.203125,1,0,0,response5disk,,3,-25.671875,-3.8828125,1,0,0,rectangle,-25.671875,-3.8828125,1,0,0,-25.671875,-3.8828125,1,0,0,0,108,108,57,1,,,,,,,,
,,,,,,,,,,,,,FF,,,,,,,,0.601,,,,,,,,,,,,,,,,,,,,,,610202bb0ca06f14b87d1605,61036b17bda2a5c4581698aa,2021-07-29_21h01.08.350,Simcolourproject_2stim_asymm_v5,2020.2.10,MacIntel,60,61025ae37ef11b136ea224fe,,,,,,,,,1013,32.83203125,77.6484375,1,0,0,response1disk,,7,18.390625,0.50390625,1,0,0,rectangle,18.390625,0.50390625,1,0,0,18.390625,0.50390625,1,0,0,0,109,109,21,1,,,,,,,,
,,,,,,,,,,,,,FF,,,,,,,,0.8842,,,,,,,,,,,,,,,,,,,,,,610202bb0ca06f14b87d1605,61036b17bda2a5c4581698aa,2021-07-29_21h01.08.350,Simcolourproject_2stim_asymm_v5,2020.2.10,MacIntel,60,61025ae37ef11b136ea224fe,,,,,,,,,2218,-58.21875,32.8515625,1,0,0,response7disk,,1,-8.47265625,-6.86328125,1,0,0,rectangle,-8.47265625,-6.86328125,1,0,0,-8.47265625,-6.86328125,1,0,0,0,110,110,94,1,,,,,,,,
,,,,,,,,,,,,,FF,,,,,,,,0.7487,,,,,,,,,,,,,,,,,,,,,,610202bb0ca06f14b87d1605,61036b17bda2a5c4581698aa,2021-07-29_21h01.08.350,Simcolourproject_2stim_asymm_v5,2020.2.10,MacIntel,60,61025ae37ef11b136ea224fe,,,,,,,,,651,47.453125,77.04296875,1,0,0,response1disk,,7,15.71484375,-16.22265625,1,0,0,rectangle,15.71484375,-16.22265625,1,0,0,15.71484375,-16.22265625,1,0,0,0,111,111,101,1,,,,,,,,
,,,,,,,,,,,,,FF,,,,,,,,0.7817,,,,,,,,,,,,,,,,,,,,,,610202bb0ca06f14b87d1605,61036b17bda2a5c4581698aa,2021-07-29_21h01.08.350,Simcolourproject_2stim_asymm_v5,2020.2.10,MacIntel,60,61025ae37ef11b136ea224fe,,,,,,,,,2341,28.78515625,76.77734375,1,0,0,response1disk,,7,25.86328125,8.07421875,1,0,0,rectangle,25.86328125,8.07421875,1,0,0,25.86328125,8.07421875,1,0,0,0,112,112,105,1,,,,,,,,
,,,,,,,,,,,,,FF,,,,,,,,1.3507,,,,,,,,,,,,,,,,,,,,,,610202bb0ca06f14b87d1605,61036b17bda2a5c4581698aa,2021-07-29_21h01.08.350,Simcolourproject_2stim_asymm_v5,2020.2.10,MacIntel,60,61025ae37ef11b136ea224fe,,,,,,,,,1080,43.125,83.97265625,1,0,0,response1disk,,7,18.3046875,6.7578125,1,0,0,rectangle,18.3046875,6.7578125,1,0,0,18.3046875,6.7578125,1,0,0,0,113,113,141,1,,,,,,,,
,,,,,,,,,,,,,FF,,,,,,,,1.317,,,,,,,,,,,,,,,,,,,,,,610202bb0ca06f14b87d1605,61036b17bda2a5c4581698aa,2021-07-29_21h01.08.350,Simcolourproject_2stim_asymm_v5,2020.2.10,MacIntel,60,61025ae37ef11b136ea224fe,,,,,,,,,3526,44.36328125,85.5078125,1,0,0,response1disk,,7,-3.84765625,-4.68359375,1,0,0,rectangle,-3.84765625,-4.68359375,1,0,0,-3.84765625,-4.68359375,1,0,0,0,114,114,55,1,,,,,,,,
,,,,,,,,,,,,,FF,,,,,,,,1.3162,,,,,,,,,,,,,,,,,,,,,,610202bb0ca06f14b87d1605,61036b17bda2a5c4581698aa,2021-07-29_21h01.08.350,Simcolourproject_2stim_asymm_v5,2020.2.10,MacIntel,60,61025ae37ef11b136ea224fe,,,,,,,,,1618,-66.96484375,20.8984375,1,0,0,response7disk,,1,-18.66796875,-7.0234375,1,0,0,rectangle,-18.66796875,-7.0234375,1,0,0,-18.66796875,-7.0234375,1,0,0,0,115,115,53,1,,,,,,,,
,,,,,,,,,,,,,FF,,,,,,,,0.7666,,,,,,,,,,,,,,,,,,,,,,610202bb0ca06f14b87d1605,61036b17bda2a5c4581698aa,2021-07-29_21h01.08.350,Simcolourproject_2stim_asymm_v5,2020.2.10,MacIntel,60,61025ae37ef11b136ea224fe,,,,,,,,,1717,58.06640625,89.86328125,1,0,0,response1disk,,7,-11.765625,5.1171875,1,0,0,rectangle,-11.765625,5.1171875,1,0,0,-11.765625,5.1171875,1,0,0,0,116,116,117,1,,,,,,,,
,,,,,,,,,,,,,FF,,,,,,,,1.3838,,,,,,,,,,,,,,,,,,,,,,610202bb0ca06f14b87d1605,61036b17bda2a5c4581698aa,2021-07-29_21h01.08.350,Simcolourproject_2stim_asymm_v5,2020.2.10,MacIntel,60,61025ae37ef11b136ea224fe,,,,,,,,,3996,30.8984375,62.828125,1,0,0,response1disk,,7,-7.890625,-4.265625,1,0,0,rectangle,-7.890625,-4.265625,1,0,0,-7.890625,-4.265625,1,0,0,0,117,117,20,1,,,,,,,,
,,,,,,,,,,,,,FF,,,,,,,,0.9832,,,,,,,,,,,,,,,,,,,,,,610202bb0ca06f14b87d1605,61036b17bda2a5c4581698aa,2021-07-29_21h01.08.350,Simcolourproject_2stim_asymm_v5,2020.2.10,MacIntel,60,61025ae37ef11b136ea224fe,,,,,,,,,2297,-70.19140625,35.52734375,1,0,0,response7disk,,1,11.49609375,5.1015625,1,0,0,rectangle,11.49609375,5.1015625,1,0,0,11.49609375,5.1015625,1,0,0,0,118,118,12,1,,,,,,,,
,,,,,,,,,,,,,FF,,,,,,,,1.0495,,,,,,,,,,,,,,,,,,,,,,610202bb0ca06f14b87d1605,61036b17bda2a5c4581698aa,2021-07-29_21h01.08.350,Simcolourproject_2stim_asymm_v5,2020.2.10,MacIntel,60,61025ae37ef11b136ea224fe,,,,,,,,,3818,-60.07421875,-25.0625,1,0,0,response5disk,,2,-11.05859375,-5.02734375,1,0,0,rectangle,-11.05859375,-5.02734375,1,0,0,-11.05859375,-5.02734375,1,0,0,0,119,119,93,1,,,,,,,,
,,,,,,,,,,,,,FF,,,,,,,,0.668,,,,,,,,,,,,,,,,,,,,,,610202bb0ca06f14b87d1605,61036b17bda2a5c4581698aa,2021-07-29_21h01.08.350,Simcolourproject_2stim_asymm_v5,2020.2.10,MacIntel,60,61025ae37ef11b136ea224fe,,,,,,,,,1627,29.46484375,61.07421875,1,0,0,response1disk,,7,12.80859375,-0.3203125,1,0,0,rectangle,12.80859375,-0.3203125,1,0,0,12.80859375,-0.3203125,1,0,0,0,120,120,118,1,,,,,,,,
,,,,,,,,,,,,,FF,,,,,,,,1.5165,,,,,,,,,,,,,,,,,,,,,,610202bb0ca06f14b87d1605,61036b17bda2a5c4581698aa,2021-07-29_21h01.08.350,Simcolourproject_2stim_asymm_v5,2020.2.10,MacIntel,60,61025ae37ef11b136ea224fe,,,,,,,,,1582,88.43359375,34.09765625,1,0,0,response1disk,,6,24.74609375,4.07421875,1,0,0,rectangle,24.74609375,4.07421875,1,0,0,24.74609375,4.07421875,1,0,0,0,121,121,92,1,,,,,,,,
,,,,,,,,,,,,,FF,,,,,,,,1.0153,,,,,,,,,,,,,,,,,,,,,,610202bb0ca06f14b87d1605,61036b17bda2a5c4581698aa,2021-07-29_21h01.08.350,Simcolourproject_2stim_asymm_v5,2020.2.10,MacIntel,60,61025ae37ef11b136ea224fe,,,,,,,,,4253,-66.140625,37.42578125,1,0,0,response7disk,,1,-6.921875,0.2578125,1,0,0,rectangle,-6.921875,0.2578125,1,0,0,-6.921875,0.2578125,1,0,0,0,122,122,82,1,,,,,,,,
,,,,,,,,,,,,,FF,,,,,,,,1.5495,,,,,,,,,,,,,,,,,,,,,,610202bb0ca06f14b87d1605,61036b17bda2a5c4581698aa,2021-07-29_21h01.08.350,Simcolourproject_2stim_asymm_v5,2020.2.10,MacIntel,60,61025ae37ef11b136ea224fe,,,,,,,,,1196,107.96875,44.90625,1,0,0,response1disk,,6,17.64453125,4.52734375,1,0,0,rectangle,17.64453125,4.52734375,1,0,0,17.64453125,4.52734375,1,0,0,0,123,123,28,1,,,,,,,,
,,,,,,,,,,,,,FF,,,,,,,,0.9987,,,,,,,,,,,,,,,,,,,,,,610202bb0ca06f14b87d1605,61036b17bda2a5c4581698aa,2021-07-29_21h01.08.350,Simcolourproject_2stim_asymm_v5,2020.2.10,MacIntel,60,61025ae37ef11b136ea224fe,,,,,,,,,3835,38.48046875,65.51171875,1,0,0,response1disk,,7,15.07421875,-0.92578125,1,0,0,rectangle,15.07421875,-0.92578125,1,0,0,15.07421875,-0.92578125,1,0,0,0,124,124,30,1,,,,,,,,
,,,,,,,,,,,,,FF,,,,,,,,1.3669,,,,,,,,,,,,,,,,,,,,,,610202bb0ca06f14b87d1605,61036b17bda2a5c4581698aa,2021-07-29_21h01.08.350,Simcolourproject_2stim_asymm_v5,2020.2.10,MacIntel,60,61025ae37ef11b136ea224fe,,,,,,,,,3703,-78.453125,-29.19140625,1,0,0,response5disk,,2,-4.203125,-5.6953125,1,0,0,rectangle,-4.203125,-5.6953125,1,0,0,-4.203125,-5.6953125,1,0,0,0,125,125,88,1,,,,,,,,
,,,,,,,,,,,,,FF,,,,,,,,0.9669,,,,,,,,,,,,,,,,,,,,,,610202bb0ca06f14b87d1605,61036b17bda2a5c4581698aa,2021-07-29_21h01.08.350,Simcolourproject_2stim_asymm_v5,2020.2.10,MacIntel,60,61025ae37ef11b136ea224fe,,,,,,,,,3676,-87.7578125,-43.44921875,1,0,0,response5disk,,2,14.83984375,-0.76953125,1,0,0,rectangle,14.83984375,-0.76953125,1,0,0,14.83984375,-0.76953125,1,0,0,0,126,126,61,1,,,,,,,,
,,,,,,,,,,,,,FF,,,,,,,,0.6822,,,,,,,,,,,,,,,,,,,,,,610202bb0ca06f14b87d1605,61036b17bda2a5c4581698aa,2021-07-29_21h01.08.350,Simcolourproject_2stim_asymm_v5,2020.2.10,MacIntel,60,61025ae37ef11b136ea224fe,,,,,,,,,124,62.71484375,91.7109375,1,0,0,response1disk,,7,8.234375,-2.66796875,1,0,0,rectangle,8.234375,-2.66796875,1,0,0,8.234375,-2.66796875,1,0,0,0,127,127,73,1,,,,,,,,
,,,,,,,,,,,,,FF,,,,,,,,1.7009,,,,,,,,,,,,,,,,,,,,,,610202bb0ca06f14b87d1605,61036b17bda2a5c4581698aa,2021-07-29_21h01.08.350,Simcolourproject_2stim_asymm_v5,2020.2.10,MacIntel,60,61025ae37ef11b136ea224fe,,,,,,,,,1332,36.546875,66.109375,1,0,0,response1disk,,7,0.0625,-0.84375,1,0,0,rectangle,0.0625,-0.84375,1,0,0,0.0625,-0.84375,1,0,0,0,128,128,130,1,,,,,,,,
,,,,,,,,,,,,,FF,,,,,,,,0.6682,,,,,,,,,,,,,,,,,,,,,,610202bb0ca06f14b87d1605,61036b17bda2a5c4581698aa,2021-07-29_21h01.08.350,Simcolourproject_2stim_asymm_v5,2020.2.10,MacIntel,60,61025ae37ef11b136ea224fe,,,,,,,,,2076,23.92578125,79.28515625,1,0,0,response1disk,,7,6.9609375,-15.3671875,1,0,0,rectangle,6.9609375,-15.3671875,1,0,0,6.9609375,-15.3671875,1,0,0,0,129,129,80,1,,,,,,,,
,,,,,,,,,,,,,FF,,,,,,,,0.7509,,,,,,,,,,,,,,,,,,,,,,610202bb0ca06f14b87d1605,61036b17bda2a5c4581698aa,2021-07-29_21h01.08.350,Simcolourproject_2stim_asymm_v5,2020.2.10,MacIntel,60,61025ae37ef11b136ea224fe,,,,,,,,,4174,26.10546875,95.73046875,1,0,0,response1disk,,7,15.08984375,0.8046875,1,0,0,rectangle,15.08984375,0.8046875,1,0,0,15.08984375,0.8046875,1,0,0,0,130,130,111,1,,,,,,,,
,,,,,,,,,,,,,FF,,,,,,,,0.5321,,,,,,,,,,,,,,,,,,,,,,610202bb0ca06f14b87d1605,61036b17bda2a5c4581698aa,2021-07-29_21h01.08.350,Simcolourproject_2stim_asymm_v5,2020.2.10,MacIntel,60,61025ae37ef11b136ea224fe,,,,,,,,,3765,41.6171875,66.484375,1,0,0,response1disk,,7,16.03125,-12.43359375,1,0,0,rectangle,16.03125,-12.43359375,1,0,0,16.03125,-12.43359375,1,0,0,0,131,131,147,1,,,,,,,,
,,,,,,,,,,,,,FF,,,,,,,,0.9852,,,,,,,,,,,,,,,,,,,,,,610202bb0ca06f14b87d1605,61036b17bda2a5c4581698aa,2021-07-29_21h01.08.350,Simcolourproject_2stim_asymm_v5,2020.2.10,MacIntel,60,61025ae37ef11b136ea224fe,,,,,,,,,3130,28.33984375,52.0546875,1,0,0,response1disk,,7,15.6796875,-5.62890625,1,0,0,rectangle,15.6796875,-5.62890625,1,0,0,15.6796875,-5.62890625,1,0,0,0,132,132,150,1,,,,,,,,
,,,,,,,,,,,,,FF,,,,,,,,1.0495,,,,,,,,,,,,,,,,,,,,,,610202bb0ca06f14b87d1605,61036b17bda2a5c4581698aa,2021-07-29_21h01.08.350,Simcolourproject_2stim_asymm_v5,2020.2.10,MacIntel,60,61025ae37ef11b136ea224fe,,,,,,,,,2220,-44.6640625,-105.7070313,1,0,0,response5disk,,3,9.4375,-8.20703125,1,0,0,rectangle,9.4375,-8.20703125,1,0,0,9.4375,-8.20703125,1,0,0,0,133,133,84,1,,,,,,,,
,,,,,,,,,,,,,FF,,,,,,,,0.8348,,,,,,,,,,,,,,,,,,,,,,610202bb0ca06f14b87d1605,61036b17bda2a5c4581698aa,2021-07-29_21h01.08.350,Simcolourproject_2stim_asymm_v5,2020.2.10,MacIntel,60,61025ae37ef11b136ea224fe,,,,,,,,,1569,38.69140625,89.265625,1,0,0,response1disk,,7,4.13671875,-8.09375,1,0,0,rectangle,4.13671875,-8.09375,1,0,0,4.13671875,-8.09375,1,0,0,0,134,134,96,1,,,,,,,,
,,,,,,,,,,,,,FF,,,,,,,,0.8012,,,,,,,,,,,,,,,,,,,,,,610202bb0ca06f14b87d1605,61036b17bda2a5c4581698aa,2021-07-29_21h01.08.350,Simcolourproject_2stim_asymm_v5,2020.2.10,MacIntel,60,61025ae37ef11b136ea224fe,,,,,,,,,921,32.01171875,65.11328125,1,0,0,response1disk,,7,6.9453125,-9.05859375,1,0,0,rectangle,6.9453125,-9.05859375,1,0,0,6.9453125,-9.05859375,1,0,0,0,135,135,155,1,,,,,,,,
,,,,,,,,,,,,,FF,,,,,,,,1.3173,,,,,,,,,,,,,,,,,,,,,,610202bb0ca06f14b87d1605,61036b17bda2a5c4581698aa,2021-07-29_21h01.08.350,Simcolourproject_2stim_asymm_v5,2020.2.10,MacIntel,60,61025ae37ef11b136ea224fe,,,,,,,,,2716,29.2734375,-67.12890625,1,0,0,response3disk,,4,17.8515625,0,1,0,0,rectangle,17.8515625,0,1,0,0,17.8515625,0,1,0,0,0,136,136,81,1,,,,,,,,
,,,,,,,,,,,,,FF,,,,,,,,2.1829,,,,,,,,,,,,,,,,,,,,,,610202bb0ca06f14b87d1605,61036b17bda2a5c4581698aa,2021-07-29_21h01.08.350,Simcolourproject_2stim_asymm_v5,2020.2.10,MacIntel,60,61025ae37ef11b136ea224fe,,,,,,,,,139,58.296875,54.65234375,1,0,0,response1disk,,6,7.0078125,3.3984375,1,0,0,rectangle,7.0078125,3.3984375,1,0,0,7.0078125,3.3984375,1,0,0,0,137,137,152,1,,,,,,,,
,,,,,,,,,,,,,FF,,,,,,,,0.6009,,,,,,,,,,,,,,,,,,,,,,610202bb0ca06f14b87d1605,61036b17bda2a5c4581698aa,2021-07-29_21h01.08.350,Simcolourproject_2stim_asymm_v5,2020.2.10,MacIntel,60,61025ae37ef11b136ea224fe,,,,,,,,,2119,34.0390625,51.5859375,1,0,0,response1disk,,7,1.33203125,-8.1015625,1,0,0,rectangle,1.33203125,-8.1015625,1,0,0,1.33203125,-8.1015625,1,0,0,0,138,138,142,1,,,,,,,,
,,,,,,,,,,,,,FF,,,,,,,,0.5499,,,,,,,,,,,,,,,,,,,,,,610202bb0ca06f14b87d1605,61036b17bda2a5c4581698aa,2021-07-29_21h01.08.350,Simcolourproject_2stim_asymm_v5,2020.2.10,MacIntel,60,61025ae37ef11b136ea224fe,,,,,,,,,324,29.58984375,79.8125,1,0,0,response1disk,,7,3.55859375,-3.1640625,1,0,0,rectangle,3.55859375,-3.1640625,1,0,0,3.55859375,-3.1640625,1,0,0,0,139,139,143,1,,,,,,,,
,,,,,,,,,,,,,FF,,,,,,,,0.3989,,,,,,,,,,,,,,,,,,,,,,610202bb0ca06f14b87d1605,61036b17bda2a5c4581698aa,2021-07-29_21h01.08.350,Simcolourproject_2stim_asymm_v5,2020.2.10,MacIntel,60,61025ae37ef11b136ea224fe,,,,,,,,,760,45.2265625,48.41015625,1,0,0,response1disk,,7,30.71875,8.5625,1,0,0,rectangle,30.71875,8.5625,1,0,0,30.71875,8.5625,1,0,0,0,140,140,1,1,,,,,,,,
,,,,,,,,,,,,,FF,,,,,,,,1.0324,,,,,,,,,,,,,,,,,,,,,,610202bb0ca06f14b87d1605,61036b17bda2a5c4581698aa,2021-07-29_21h01.08.350,Simcolourproject_2stim_asymm_v5,2020.2.10,MacIntel,60,61025ae37ef11b136ea224fe,,,,,,,,,4061,-29.5078125,-97.70703125,1,0,0,response5disk,,3,2.42578125,-3.42578125,1,0,0,rectangle,2.42578125,-3.42578125,1,0,0,2.42578125,-3.42578125,1,0,0,0,141,141,144,1,,,,,,,,
,,,,,,,,,,,,,FF,,,,,,,,0.866,,,,,,,,,,,,,,,,,,,,,,610202bb0ca06f14b87d1605,61036b17bda2a5c4581698aa,2021-07-29_21h01.08.350,Simcolourproject_2stim_asymm_v5,2020.2.10,MacIntel,60,61025ae37ef11b136ea224fe,,,,,,,,,4029,-36.8046875,-71.0625,1,0,0,response5disk,,3,-4.5625,-11.765625,1,0,0,rectangle,-4.5625,-11.765625,1,0,0,-4.5625,-11.765625,1,0,0,0,142,142,38,1,,,,,,,,
,,,,,,,,,,,,,FF,,,,,,,,0.617,,,,,,,,,,,,,,,,,,,,,,610202bb0ca06f14b87d1605,61036b17bda2a5c4581698aa,2021-07-29_21h01.08.350,Simcolourproject_2stim_asymm_v5,2020.2.10,MacIntel,60,61025ae37ef11b136ea224fe,,,,,,,,,85,39.33984375,56.16015625,1,0,0,response1disk,,7,9.640625,-10.8125,1,0,0,rectangle,9.640625,-10.8125,1,0,0,9.640625,-10.8125,1,0,0,0,143,143,56,1,,,,,,,,
,,,,,,,,,,,,,FF,,,,,,,,0.5986,,,,,,,,,,,,,,,,,,,,,,610202bb0ca06f14b87d1605,61036b17bda2a5c4581698aa,2021-07-29_21h01.08.350,Simcolourproject_2stim_asymm_v5,2020.2.10,MacIntel,60,61025ae37ef11b136ea224fe,,,,,,,,,2245,33.46875,52.3359375,1,0,0,response1disk,,7,23.97265625,4.640625,1,0,0,rectangle,23.97265625,4.640625,1,0,0,23.97265625,4.640625,1,0,0,0,144,144,45,1,,,,,,,,
,,,,,,,,,,,,,FF,,,,,,,,0.6837,,,,,,,,,,,,,,,,,,,,,,610202bb0ca06f14b87d1605,61036b17bda2a5c4581698aa,2021-07-29_21h01.08.350,Simcolourproject_2stim_asymm_v5,2020.2.10,MacIntel,60,61025ae37ef11b136ea224fe,,,,,,,,,1782,38.140625,54.62109375,1,0,0,response1disk,,7,28.58203125,-2.59765625,1,0,0,rectangle,67.89453125,-49.1640625,1,0,0,-16.44921875,0.15625,1,0,0,0,145,145,116,1,,response3disk_3,TRUE,5,5,"[62,292,213,232,237,162,36,316,146,236,190,29,252,239,266,169,320,224,96,13]",1.3002,rectangle
,,,,,,,,,,,,,FF,,,,,,,,0.7666,,,,,,,,,,,,,,,,,,,,,,610202bb0ca06f14b87d1605,61036b17bda2a5c4581698aa,2021-07-29_21h01.08.350,Simcolourproject_2stim_asymm_v5,2020.2.10,MacIntel,60,61025ae37ef11b136ea224fe,,,,,,,,,4363,-69.0859375,28.98046875,1,0,0,response7disk,,1,2.875,5.234375,1,0,0,rectangle,2.875,5.234375,1,0,0,2.875,5.234375,1,0,0,0,146,146,40,1,,,,,,,,
,,,,,,,,,,,,,FF,,,,,,,,0.9492,,,,,,,,,,,,,,,,,,,,,,610202bb0ca06f14b87d1605,61036b17bda2a5c4581698aa,2021-07-29_21h01.08.350,Simcolourproject_2stim_asymm_v5,2020.2.10,MacIntel,60,61025ae37ef11b136ea224fe,,,,,,,,,3942,-52.015625,-37.28515625,1,0,0,response5disk,,2,-0.88671875,-0.3046875,1,0,0,rectangle,-0.88671875,-0.3046875,1,0,0,-0.88671875,-0.3046875,1,0,0,0,147,147,115,1,,,,,,,,
,,,,,,,,,,,,,FF,,,,,,,,1.2009,,,,,,,,,,,,,,,,,,,,,,610202bb0ca06f14b87d1605,61036b17bda2a5c4581698aa,2021-07-29_21h01.08.350,Simcolourproject_2stim_asymm_v5,2020.2.10,MacIntel,60,61025ae37ef11b136ea224fe,,,,,,,,,1537,-79.62890625,-56.0859375,1,0,0,response5disk,,2,-5.1015625,-1.890625,1,0,0,rectangle,-5.1015625,-1.890625,1,0,0,-5.1015625,-1.890625,1,0,0,0,148,148,122,1,,,,,,,,
,,,,,,,,,,,,,FF,,,,,,,,0.6335,,,,,,,,,,,,,,,,,,,,,,610202bb0ca06f14b87d1605,61036b17bda2a5c4581698aa,2021-07-29_21h01.08.350,Simcolourproject_2stim_asymm_v5,2020.2.10,MacIntel,60,61025ae37ef11b136ea224fe,,,,,,,,,3289,28.20703125,60.203125,1,0,0,response1disk,,7,17.27734375,-1.171875,1,0,0,rectangle,17.27734375,-1.171875,1,0,0,17.27734375,-1.171875,1,0,0,0,149,149,89,1,,,,,,,,
,,,,,,,,,,,,,FF,,,,,,,,0.8666,,,,,,,,,,,,,,,,,,,,,,610202bb0ca06f14b87d1605,61036b17bda2a5c4581698aa,2021-07-29_21h01.08.350,Simcolourproject_2stim_asymm_v5,2020.2.10,MacIntel,60,61025ae37ef11b136ea224fe,,,,,,,,,697,35.77734375,50.49609375,1,0,0,response1disk,,7,21.66015625,-9.14453125,1,0,0,rectangle,21.66015625,-9.14453125,1,0,0,21.66015625,-9.14453125,1,0,0,0,150,150,159,1,,,,,,,,
,,,,,,,,,,,,,FF,,,,,,,,0.7486,,,,,,,,,,,,,,,,,,,,,,610202bb0ca06f14b87d1605,61036b17bda2a5c4581698aa,2021-07-29_21h01.08.350,Simcolourproject_2stim_asymm_v5,2020.2.10,MacIntel,60,61025ae37ef11b136ea224fe,,,,,,,,,2941,-70.53515625,34.93359375,1,0,0,response7disk,,1,0.69140625,15.34765625,1,0,0,rectangle,0.69140625,15.34765625,1,0,0,0.69140625,15.34765625,1,0,0,0,151,151,18,1,,,,,,,,
,,,,,,,,,,,,,FF,,,,,,,,1.5008,,,,,,,,,,,,,,,,,,,,,,610202bb0ca06f14b87d1605,61036b17bda2a5c4581698aa,2021-07-29_21h01.08.350,Simcolourproject_2stim_asymm_v5,2020.2.10,MacIntel,60,61025ae37ef11b136ea224fe,,,,,,,,,1177,30.578125,67.65625,1,0,0,response1disk,,7,22.53515625,8.109375,1,0,0,rectangle,22.53515625,8.109375,1,0,0,22.53515625,8.109375,1,0,0,0,152,152,145,1,,,,,,,,
,,,,,,,,,,,,,FF,,,,,,,,0.6833,,,,,,,,,,,,,,,,,,,,,,610202bb0ca06f14b87d1605,61036b17bda2a5c4581698aa,2021-07-29_21h01.08.350,Simcolourproject_2stim_asymm_v5,2020.2.10,MacIntel,60,61025ae37ef11b136ea224fe,,,,,,,,,767,46.359375,68.859375,1,0,0,response1disk,,7,10.06640625,-1.05859375,1,0,0,rectangle,10.06640625,-1.05859375,1,0,0,10.06640625,-1.05859375,1,0,0,0,153,153,6,1,,,,,,,,
,,,,,,,,,,,,,FF,,,,,,,,0.9823,,,,,,,,,,,,,,,,,,,,,,610202bb0ca06f14b87d1605,61036b17bda2a5c4581698aa,2021-07-29_21h01.08.350,Simcolourproject_2stim_asymm_v5,2020.2.10,MacIntel,60,61025ae37ef11b136ea224fe,,,,,,,,,4002,-25.15234375,-79.1171875,1,0,0,response5disk,,3,-0.078125,-11.515625,1,0,0,rectangle,-0.078125,-11.515625,1,0,0,-0.078125,-11.515625,1,0,0,0,154,154,131,1,,,,,,,,
,,,,,,,,,,,,,FF,,,,,,,,2.0175,,,,,,,,,,,,,,,,,,,,,,610202bb0ca06f14b87d1605,61036b17bda2a5c4581698aa,2021-07-29_21h01.08.350,Simcolourproject_2stim_asymm_v5,2020.2.10,MacIntel,60,61025ae37ef11b136ea224fe,,,,,,,,,3586,-57.9453125,-29.50390625,1,0,0,response5disk,,2,-1.55078125,-6.05859375,1,0,0,rectangle,-1.55078125,-6.05859375,1,0,0,-1.55078125,-6.05859375,1,0,0,0,155,155,120,1,,,,,,,,
,,,,,,,,,,,,,FF,,,,,,,,0.666,,,,,,,,,,,,,,,,,,,,,,610202bb0ca06f14b87d1605,61036b17bda2a5c4581698aa,2021-07-29_21h01.08.350,Simcolourproject_2stim_asymm_v5,2020.2.10,MacIntel,60,61025ae37ef11b136ea224fe,,,,,,,,,1011,40.96875,85.90625,1,0,0,response1disk,,7,1.8515625,-0.16796875,1,0,0,rectangle,1.8515625,-0.16796875,1,0,0,1.8515625,-0.16796875,1,0,0,0,156,156,151,1,,,,,,,,
,,,,,,,,,,,,,FF,,,,,,,,0.5668,,,,,,,,,,,,,,,,,,,,,,610202bb0ca06f14b87d1605,61036b17bda2a5c4581698aa,2021-07-29_21h01.08.350,Simcolourproject_2stim_asymm_v5,2020.2.10,MacIntel,60,61025ae37ef11b136ea224fe,,,,,,,,,1555,23.546875,44.68359375,1,0,0,response1disk,,7,2.3203125,-7.66015625,1,0,0,rectangle,2.3203125,-7.66015625,1,0,0,2.3203125,-7.66015625,1,0,0,0,157,157,106,1,,,,,,,,
,,,,,,,,,,,,,FF,,,,,,,,0.7997,,,,,,,,,,,,,,,,,,,,,,610202bb0ca06f14b87d1605,61036b17bda2a5c4581698aa,2021-07-29_21h01.08.350,Simcolourproject_2stim_asymm_v5,2020.2.10,MacIntel,60,61025ae37ef11b136ea224fe,,,,,,,,,4126,-70.0390625,-44.05078125,1,0,0,response5disk,,2,3.2734375,7.109375,1,0,0,rectangle,3.2734375,7.109375,1,0,0,3.2734375,7.109375,1,0,0,0,158,158,128,1,,,,,,,,
,,,,,,,,,,,,,FF,,,,,,,,0.6745,,,,,,,,,,,,,,,,,,,,,,610202bb0ca06f14b87d1605,61036b17bda2a5c4581698aa,2021-07-29_21h01.08.350,Simcolourproject_2stim_asymm_v5,2020.2.10,MacIntel,60,61025ae37ef11b136ea224fe,,,,,,,,,3661,-63.796875,-35.27734375,1,0,0,response5disk,,2,8.71875,-4.7578125,1,0,0,rectangle,8.71875,-4.7578125,1,0,0,8.71875,-4.7578125,1,0,0,0,159,159,154,1,,,,,,,,
,,,,,,,,,,,,,FF,,,,,,,,0.6014,,,,,,,,,,,,,,,,,,,,,,610202bb0ca06f14b87d1605,61036b17bda2a5c4581698aa,2021-07-29_21h01.08.350,Simcolourproject_2stim_asymm_v5,2020.2.10,MacIntel,60,61025ae37ef11b136ea224fe,,,,,,,,,993,33.88671875,48.28125,1,0,0,response1disk,,7,26.4765625,-0.53515625,1,0,0,rectangle,26.4765625,-0.53515625,1,0,0,26.4765625,-0.53515625,1,0,0,1,0,160,20,1,,,,,,,,
,,,,,,,,,,,,,FF,,,,,,,,0.5679,,,,,,,,,,,,,,,,,,,,,,610202bb0ca06f14b87d1605,61036b17bda2a5c4581698aa,2021-07-29_21h01.08.350,Simcolourproject_2stim_asymm_v5,2020.2.10,MacIntel,60,61025ae37ef11b136ea224fe,,,,,,,,,3560,115.046875,78.9765625,1,0,0,response1disk,,6,27.65234375,5.01953125,1,0,0,rectangle,-83.4375,-39.85546875,1,0,0,-17.640625,4.9921875,1,0,0,1,1,161,92,1,,response5disk_3,TRUE,2,2,"[62,292,213,232,237,162,36,316,146,236,190,29,252,239,266,169,320,224,96,13]",1.316,rectangle
,,,,,,,,,,,,,FF,,,,,,,,0.7339,,,,,,,,,,,,,,,,,,,,,,610202bb0ca06f14b87d1605,61036b17bda2a5c4581698aa,2021-07-29_21h01.08.350,Simcolourproject_2stim_asymm_v5,2020.2.10,MacIntel,60,61025ae37ef11b136ea224fe,,,,,,,,,1772,29.5546875,65.7109375,1,0,0,response1disk,,7,20.00390625,-1.2734375,1,0,0,rectangle,20.00390625,-1.2734375,1,0,0,20.00390625,-1.2734375,1,0,0,1,2,162,45,1,,,,,,,,
,,,,,,,,,,,,,FF,,,,,,,,0.7991,,,,,,,,,,,,,,,,,,,,,,610202bb0ca06f14b87d1605,61036b17bda2a5c4581698aa,2021-07-29_21h01.08.350,Simcolourproject_2stim_asymm_v5,2020.2.10,MacIntel,60,61025ae37ef11b136ea224fe,,,,,,,,,770,25.14453125,50.10546875,1,0,0,response1disk,,7,17.4765625,3.9140625,1,0,0,rectangle,17.4765625,3.9140625,1,0,0,17.4765625,3.9140625,1,0,0,1,3,163,84,1,,,,,,,,
,,,,,,,,,,,,,FF,,,,,,,,1.8311,,,,,,,,,,,,,,,,,,,,,,610202bb0ca06f14b87d1605,61036b17bda2a5c4581698aa,2021-07-29_21h01.08.350,Simcolourproject_2stim_asymm_v5,2020.2.10,MacIntel,60,61025ae37ef11b136ea224fe,,,,,,,,,4000,92.18359375,22.3515625,1,0,0,response1disk,,6,-3.625,-9.76171875,1,0,0,rectangle,-3.625,-9.76171875,1,0,0,-3.625,-9.76171875,1,0,0,1,4,164,53,1,,,,,,,,
,,,,,,,,,,,,,FF,,,,,,,,0.8168,,,,,,,,,,,,,,,,,,,,,,610202bb0ca06f14b87d1605,61036b17bda2a5c4581698aa,2021-07-29_21h01.08.350,Simcolourproject_2stim_asymm_v5,2020.2.10,MacIntel,60,61025ae37ef11b136ea224fe,,,,,,,,,681,77.8046875,37.93359375,1,0,0,response1disk,,6,2.33203125,-10.6953125,1,0,0,rectangle,2.33203125,-10.6953125,1,0,0,2.33203125,-10.6953125,1,0,0,1,5,165,49,1,,,,,,,,
,,,,,,,,,,,,,FF,,,,,,,,0.4998,,,,,,,,,,,,,,,,,,,,,,610202bb0ca06f14b87d1605,61036b17bda2a5c4581698aa,2021-07-29_21h01.08.350,Simcolourproject_2stim_asymm_v5,2020.2.10,MacIntel,60,61025ae37ef11b136ea224fe,,,,,,,,,1669,39.33984375,81.2109375,1,0,0,response1disk,,7,14.08984375,-0.5859375,1,0,0,rectangle,14.08984375,-0.5859375,1,0,0,14.08984375,-0.5859375,1,0,0,1,6,166,54,1,,,,,,,,
,,,,,,,,,,,,,FF,,,,,,,,0.9516,,,,,,,,,,,,,,,,,,,,,,610202bb0ca06f14b87d1605,61036b17bda2a5c4581698aa,2021-07-29_21h01.08.350,Simcolourproject_2stim_asymm_v5,2020.2.10,MacIntel,60,61025ae37ef11b136ea224fe,,,,,,,,,2933,-63.40234375,-30.1484375,1,0,0,response5disk,,2,-6.546875,-3.640625,1,0,0,rectangle,-6.546875,-3.640625,1,0,0,-6.546875,-3.640625,1,0,0,1,7,167,68,1,,,,,,,,
,,,,,,,,,,,,,FF,,,,,,,,1.2672,,,,,,,,,,,,,,,,,,,,,,610202bb0ca06f14b87d1605,61036b17bda2a5c4581698aa,2021-07-29_21h01.08.350,Simcolourproject_2stim_asymm_v5,2020.2.10,MacIntel,60,61025ae37ef11b136ea224fe,,,,,,,,,2369,-78.69140625,-36.171875,1,0,0,response5disk,,2,10.36328125,-7.77734375,1,0,0,rectangle,40.05859375,79.984375,1,0,0,21.03125,-1.20703125,1,0,0,1,8,168,32,1,,response1disk_3,TRUE,7,7,"[62,292,213,232,237,162,36,316,146,236,190,29,252,239,266,169,320,224,96,13]",1.3334,rectangle
,,,,,,,,,,,,,FF,,,,,,,,1.1507,,,,,,,,,,,,,,,,,,,,,,610202bb0ca06f14b87d1605,61036b17bda2a5c4581698aa,2021-07-29_21h01.08.350,Simcolourproject_2stim_asymm_v5,2020.2.10,MacIntel,60,61025ae37ef11b136ea224fe,,,,,,,,,868,75.1171875,29.81640625,1,0,0,response1disk,,6,14.29296875,5.875,1,0,0,rectangle,14.29296875,5.875,1,0,0,14.29296875,5.875,1,0,0,1,9,169,62,1,,,,,,,,
,,,,,,,,,,,,,FF,,,,,,,,0.9152,,,,,,,,,,,,,,,,,,,,,,610202bb0ca06f14b87d1605,61036b17bda2a5c4581698aa,2021-07-29_21h01.08.350,Simcolourproject_2stim_asymm_v5,2020.2.10,MacIntel,60,61025ae37ef11b136ea224fe,,,,,,,,,553,89.20703125,51.72265625,1,0,0,response1disk,,6,1.30078125,3.72265625,1,0,0,rectangle,1.30078125,3.72265625,1,0,0,1.30078125,3.72265625,1,0,0,1,10,170,93,1,,,,,,,,
,,,,,,,,,,,,,FF,,,,,,,,2.4164,,,,,,,,,,,,,,,,,,,,,,610202bb0ca06f14b87d1605,61036b17bda2a5c4581698aa,2021-07-29_21h01.08.350,Simcolourproject_2stim_asymm_v5,2020.2.10,MacIntel,60,61025ae37ef11b136ea224fe,,,,,,,,,1157,68.8125,31.9140625,1,0,0,response1disk,,6,14.22265625,4.23046875,1,0,0,rectangle,14.22265625,4.23046875,1,0,0,14.22265625,4.23046875,1,0,0,1,11,171,155,1,,,,,,,,
,,,,,,,,,,,,,FF,,,,,,,,0.5001,,,,,,,,,,,,,,,,,,,,,,610202bb0ca06f14b87d1605,61036b17bda2a5c4581698aa,2021-07-29_21h01.08.350,Simcolourproject_2stim_asymm_v5,2020.2.10,MacIntel,60,61025ae37ef11b136ea224fe,,,,,,,,,2004,29.6015625,72.46484375,1,0,0,response1disk,,7,18.08984375,-14.95703125,1,0,0,rectangle,18.08984375,-14.95703125,1,0,0,18.08984375,-14.95703125,1,0,0,1,12,172,117,1,,,,,,,,
,,,,,,,,,,,,,FF,,,,,,,,0.734,,,,,,,,,,,,,,,,,,,,,,610202bb0ca06f14b87d1605,61036b17bda2a5c4581698aa,2021-07-29_21h01.08.350,Simcolourproject_2stim_asymm_v5,2020.2.10,MacIntel,60,61025ae37ef11b136ea224fe,,,,,,,,,1297,-75.6640625,-40.53515625,1,0,0,response5disk,,2,-15.10546875,-11.140625,1,0,0,rectangle,-15.10546875,-11.140625,1,0,0,-15.10546875,-11.140625,1,0,0,1,13,173,25,1,,,,,,,,
,,,,,,,,,,,,,FF,,,,,,,,0.6322,,,,,,,,,,,,,,,,,,,,,,610202bb0ca06f14b87d1605,61036b17bda2a5c4581698aa,2021-07-29_21h01.08.350,Simcolourproject_2stim_asymm_v5,2020.2.10,MacIntel,60,61025ae37ef11b136ea224fe,,,,,,,,,996,30.890625,55.4609375,1,0,0,response1disk,,7,18.11328125,5.3046875,1,0,0,rectangle,18.11328125,5.3046875,1,0,0,18.11328125,5.3046875,1,0,0,1,14,174,12,1,,,,,,,,
,,,,,,,,,,,,,FF,,,,,,,,0.6644,,,,,,,,,,,,,,,,,,,,,,610202bb0ca06f14b87d1605,61036b17bda2a5c4581698aa,2021-07-29_21h01.08.350,Simcolourproject_2stim_asymm_v5,2020.2.10,MacIntel,60,61025ae37ef11b136ea224fe,,,,,,,,,2702,19.890625,33.12890625,1,0,0,response1disk,,7,16.2421875,0.09765625,1,0,0,rectangle,16.2421875,0.09765625,1,0,0,16.2421875,0.09765625,1,0,0,1,15,175,57,1,,,,,,,,
,,,,,,,,,,,,,FF,,,,,,,,0.585,,,,,,,,,,,,,,,,,,,,,,610202bb0ca06f14b87d1605,61036b17bda2a5c4581698aa,2021-07-29_21h01.08.350,Simcolourproject_2stim_asymm_v5,2020.2.10,MacIntel,60,61025ae37ef11b136ea224fe,,,,,,,,,855,22.61328125,61.24609375,1,0,0,response1disk,,7,17.4765625,1.15234375,1,0,0,rectangle,17.4765625,1.15234375,1,0,0,17.4765625,1.15234375,1,0,0,1,16,176,27,1,,,,,,,,
,,,,,,,,,,,,,FF,,,,,,,,0.8332,,,,,,,,,,,,,,,,,,,,,,610202bb0ca06f14b87d1605,61036b17bda2a5c4581698aa,2021-07-29_21h01.08.350,Simcolourproject_2stim_asymm_v5,2020.2.10,MacIntel,60,61025ae37ef11b136ea224fe,,,,,,,,,4107,112.1875,32.30859375,1,0,0,response1disk,,6,29.37890625,3.17578125,1,0,0,rectangle,29.37890625,3.17578125,1,0,0,29.37890625,3.17578125,1,0,0,1,17,177,69,1,,,,,,,,
,,,,,,,,,,,,,FF,,,,,,,,0.4839,,,,,,,,,,,,,,,,,,,,,,610202bb0ca06f14b87d1605,61036b17bda2a5c4581698aa,2021-07-29_21h01.08.350,Simcolourproject_2stim_asymm_v5,2020.2.10,MacIntel,60,61025ae37ef11b136ea224fe,,,,,,,,,3315,44.37890625,50.69140625,1,0,0,response1disk,,7,13.390625,-0.50390625,1,0,0,rectangle,13.390625,-0.50390625,1,0,0,13.390625,-0.50390625,1,0,0,1,18,178,81,1,,,,,,,,
,,,,,,,,,,,,,FF,,,,,,,,0.9997,,,,,,,,,,,,,,,,,,,,,,610202bb0ca06f14b87d1605,61036b17bda2a5c4581698aa,2021-07-29_21h01.08.350,Simcolourproject_2stim_asymm_v5,2020.2.10,MacIntel,60,61025ae37ef11b136ea224fe,,,,,,,,,4344,-60.6875,93.4609375,1,0,0,response7disk,,0,-8.40234375,7.6875,1,0,0,rectangle,-8.40234375,7.6875,1,0,0,-8.40234375,7.6875,1,0,0,1,19,179,70,1,,,,,,,,
,,,,,,,,,,,,,FF,,,,,,,,0.9661,,,,,,,,,,,,,,,,,,,,,,610202bb0ca06f14b87d1605,61036b17bda2a5c4581698aa,2021-07-29_21h01.08.350,Simcolourproject_2stim_asymm_v5,2020.2.10,MacIntel,60,61025ae37ef11b136ea224fe,,,,,,,,,3389,-76.7421875,37.5703125,1,0,0,response7disk,,1,-17.60546875,-1.76171875,1,0,0,rectangle,-17.60546875,-1.76171875,1,0,0,-17.60546875,-1.76171875,1,0,0,1,20,180,16,1,,,,,,,,
,,,,,,,,,,,,,FF,,,,,,,,0.6825,,,,,,,,,,,,,,,,,,,,,,610202bb0ca06f14b87d1605,61036b17bda2a5c4581698aa,2021-07-29_21h01.08.350,Simcolourproject_2stim_asymm_v5,2020.2.10,MacIntel,60,61025ae37ef11b136ea224fe,,,,,,,,,3884,27.01171875,70.34375,1,0,0,response1disk,,7,9.375,1.21484375,1,0,0,rectangle,9.375,1.21484375,1,0,0,9.375,1.21484375,1,0,0,1,21,181,104,1,,,,,,,,
,,,,,,,,,,,,,FF,,,,,,,,0.534,,,,,,,,,,,,,,,,,,,,,,610202bb0ca06f14b87d1605,61036b17bda2a5c4581698aa,2021-07-29_21h01.08.350,Simcolourproject_2stim_asymm_v5,2020.2.10,MacIntel,60,61025ae37ef11b136ea224fe,,,,,,,,,2819,24.28125,77.06640625,1,0,0,response1disk,,7,12.94140625,-0.8828125,1,0,0,rectangle,12.94140625,-0.8828125,1,0,0,12.94140625,-0.8828125,1,0,0,1,22,182,67,1,,,,,,,,
,,,,,,,,,,,,,FF,,,,,,,,0.8153,,,,,,,,,,,,,,,,,,,,,,610202bb0ca06f14b87d1605,61036b17bda2a5c4581698aa,2021-07-29_21h01.08.350,Simcolourproject_2stim_asymm_v5,2020.2.10,MacIntel,60,61025ae37ef11b136ea224fe,,,,,,,,,4237,-43.56640625,72.5390625,1,0,0,response7disk,,0,-2.7109375,-9.28125,1,0,0,rectangle,-2.7109375,-9.28125,1,0,0,-2.7109375,-9.28125,1,0,0,1,23,183,34,1,,,,,,,,
,,,,,,,,,,,,,FF,,,,,,,,1.1323,,,,,,,,,,,,,,,,,,,,,,610202bb0ca06f14b87d1605,61036b17bda2a5c4581698aa,2021-07-29_21h01.08.350,Simcolourproject_2stim_asymm_v5,2020.2.10,MacIntel,60,61025ae37ef11b136ea224fe,,,,,,,,,3090,-45.66796875,-81.6171875,1,0,0,response5disk,,3,-12.55078125,-4.00390625,1,0,0,rectangle,-12.55078125,-4.00390625,1,0,0,-12.55078125,-4.00390625,1,0,0,1,24,184,60,1,,,,,,,,
,,,,,,,,,,,,,FF,,,,,,,,2.7503,,,,,,,,,,,,,,,,,,,,,,610202bb0ca06f14b87d1605,61036b17bda2a5c4581698aa,2021-07-29_21h01.08.350,Simcolourproject_2stim_asymm_v5,2020.2.10,MacIntel,60,61025ae37ef11b136ea224fe,,,,,,,,,1906,39.19140625,-69.16796875,1,0,0,response3disk,,4,8.08984375,2.5703125,1,0,0,rectangle,8.08984375,2.5703125,1,0,0,8.08984375,2.5703125,1,0,0,1,25,185,103,1,,,,,,,,
,,,,,,,,,,,,,FF,,,,,,,,1.9993,,,,,,,,,,,,,,,,,,,,,,610202bb0ca06f14b87d1605,61036b17bda2a5c4581698aa,2021-07-29_21h01.08.350,Simcolourproject_2stim_asymm_v5,2020.2.10,MacIntel,60,61025ae37ef11b136ea224fe,,,,,,,,,578,67.79296875,-55.70703125,1,0,0,response3disk,,5,-5.22265625,-1.00390625,1,0,0,rectangle,-5.22265625,-1.00390625,1,0,0,-5.22265625,-1.00390625,1,0,0,1,26,186,24,1,,,,,,,,
,,,,,,,,,,,,,FF,,,,,,,,1.2342,,,,,,,,,,,,,,,,,,,,,,610202bb0ca06f14b87d1605,61036b17bda2a5c4581698aa,2021-07-29_21h01.08.350,Simcolourproject_2stim_asymm_v5,2020.2.10,MacIntel,60,61025ae37ef11b136ea224fe,,,,,,,,,4339,76.78515625,36.078125,1,0,0,response1disk,,6,-6.828125,-3.62890625,1,0,0,rectangle,-6.828125,-3.62890625,1,0,0,-6.828125,-3.62890625,1,0,0,1,27,187,143,1,,,,,,,,
,,,,,,,,,,,,,FF,,,,,,,,2.3001,,,,,,,,,,,,,,,,,,,,,,610202bb0ca06f14b87d1605,61036b17bda2a5c4581698aa,2021-07-29_21h01.08.350,Simcolourproject_2stim_asymm_v5,2020.2.10,MacIntel,60,61025ae37ef11b136ea224fe,,,,,,,,,2783,-32.03125,-66.05078125,1,0,0,response5disk,,3,9.859375,-1.32421875,1,0,0,rectangle,9.859375,-1.32421875,1,0,0,9.859375,-1.32421875,1,0,0,1,28,188,125,1,,,,,,,,
,,,,,,,,,,,,,FF,,,,,,,,0.5169,,,,,,,,,,,,,,,,,,,,,,610202bb0ca06f14b87d1605,61036b17bda2a5c4581698aa,2021-07-29_21h01.08.350,Simcolourproject_2stim_asymm_v5,2020.2.10,MacIntel,60,61025ae37ef11b136ea224fe,,,,,,,,,1655,29.86328125,82.73828125,1,0,0,response1disk,,7,-5.1875,2.83203125,1,0,0,rectangle,81.96875,-49.34765625,1,0,0,3.49609375,0.76171875,1,0,0,1,29,189,134,1,,response3disk_3,TRUE,5,5,"[62,292,213,232,237,162,36,316,146,236,190,29,252,239,266,169,320,224,96,13]",1.4661,rectangle
,,,,,,,,,,,,,FF,,,,,,,,0.4995,,,,,,,,,,,,,,,,,,,,,,610202bb0ca06f14b87d1605,61036b17bda2a5c4581698aa,2021-07-29_21h01.08.350,Simcolourproject_2stim_asymm_v5,2020.2.10,MacIntel,60,61025ae37ef11b136ea224fe,,,,,,,,,1174,31.05078125,85.99609375,1,0,0,response1disk,,7,5.609375,5.5859375,1,0,0,rectangle,5.609375,5.5859375,1,0,0,5.609375,5.5859375,1,0,0,1,30,190,127,1,,,,,,,,
,,,,,,,,,,,,,FF,,,,,,,,0.8658,,,,,,,,,,,,,,,,,,,,,,610202bb0ca06f14b87d1605,61036b17bda2a5c4581698aa,2021-07-29_21h01.08.350,Simcolourproject_2stim_asymm_v5,2020.2.10,MacIntel,60,61025ae37ef11b136ea224fe,,,,,,,,,3198,-23.33984375,-56.8984375,1,0,0,response5disk,,3,-7.671875,-11.296875,1,0,0,rectangle,-7.671875,-11.296875,1,0,0,-7.671875,-11.296875,1,0,0,1,31,191,47,1,,,,,,,,
,,,,,,,,,,,,,FF,,,,,,,,0.8993,,,,,,,,,,,,,,,,,,,,,,610202bb0ca06f14b87d1605,61036b17bda2a5c4581698aa,2021-07-29_21h01.08.350,Simcolourproject_2stim_asymm_v5,2020.2.10,MacIntel,60,61025ae37ef11b136ea224fe,,,,,,,,,4130,30.1484375,-77.02734375,1,0,0,response3disk,,4,13.03515625,-5.15234375,1,0,0,rectangle,13.03515625,-5.15234375,1,0,0,13.03515625,-5.15234375,1,0,0,1,32,192,141,1,,,,,,,,
,,,,,,,,,,,,,FF,,,,,,,,1.0499,,,,,,,,,,,,,,,,,,,,,,610202bb0ca06f14b87d1605,61036b17bda2a5c4581698aa,2021-07-29_21h01.08.350,Simcolourproject_2stim_asymm_v5,2020.2.10,MacIntel,60,61025ae37ef11b136ea224fe,,,,,,,,,963,78.6953125,40.09375,1,0,0,response1disk,,6,11.6015625,-3.33203125,1,0,0,rectangle,11.6015625,-3.33203125,1,0,0,11.6015625,-3.33203125,1,0,0,1,33,193,150,1,,,,,,,,
,,,,,,,,,,,,,FF,,,,,,,,0.4997,,,,,,,,,,,,,,,,,,,,,,610202bb0ca06f14b87d1605,61036b17bda2a5c4581698aa,2021-07-29_21h01.08.350,Simcolourproject_2stim_asymm_v5,2020.2.10,MacIntel,60,61025ae37ef11b136ea224fe,,,,,,,,,2765,26.2109375,82.18359375,1,0,0,response1disk,,7,-1.25,-0.3671875,1,0,0,rectangle,-1.25,-0.3671875,1,0,0,-1.25,-0.3671875,1,0,0,1,34,194,83,1,,,,,,,,
,,,,,,,,,,,,,FF,,,,,,,,0.466,,,,,,,,,,,,,,,,,,,,,,610202bb0ca06f14b87d1605,61036b17bda2a5c4581698aa,2021-07-29_21h01.08.350,Simcolourproject_2stim_asymm_v5,2020.2.10,MacIntel,60,61025ae37ef11b136ea224fe,,,,,,,,,2388,26.62890625,62.69921875,1,0,0,response1disk,,7,8.515625,-4.37109375,1,0,0,rectangle,8.515625,-4.37109375,1,0,0,8.515625,-4.37109375,1,0,0,1,35,195,38,1,,,,,,,,
,,,,,,,,,,,,,FF,,,,,,,,0.8503,,,,,,,,,,,,,,,,,,,,,,610202bb0ca06f14b87d1605,61036b17bda2a5c4581698aa,2021-07-29_21h01.08.350,Simcolourproject_2stim_asymm_v5,2020.2.10,MacIntel,60,61025ae37ef11b136ea224fe,,,,,,,,,297,21.00390625,50.94921875,1,0,0,response1disk,,7,-1.28125,-9.59375,1,0,0,rectangle,-1.28125,-9.59375,1,0,0,-1.28125,-9.59375,1,0,0,1,36,196,120,1,,,,,,,,
,,,,,,,,,,,,,FF,,,,,,,,0.7173,,,,,,,,,,,,,,,,,,,,,,610202bb0ca06f14b87d1605,61036b17bda2a5c4581698aa,2021-07-29_21h01.08.350,Simcolourproject_2stim_asymm_v5,2020.2.10,MacIntel,60,61025ae37ef11b136ea224fe,,,,,,,,,3833,85.953125,37.7265625,1,0,0,response1disk,,6,-1.0078125,-2.70703125,1,0,0,rectangle,-1.0078125,-2.70703125,1,0,0,-1.0078125,-2.70703125,1,0,0,1,37,197,115,1,,,,,,,,
,,,,,,,,,,,,,FF,,,,,,,,0.584,,,,,,,,,,,,,,,,,,,,,,610202bb0ca06f14b87d1605,61036b17bda2a5c4581698aa,2021-07-29_21h01.08.350,Simcolourproject_2stim_asymm_v5,2020.2.10,MacIntel,60,61025ae37ef11b136ea224fe,,,,,,,,,3009,39.0078125,103.1015625,1,0,0,response1disk,,7,8.41015625,-8.92578125,1,0,0,rectangle,8.41015625,-8.92578125,1,0,0,8.41015625,-8.92578125,1,0,0,1,38,198,154,1,,,,,,,,
,,,,,,,,,,,,,FF,,,,,,,,0.4981,,,,,,,,,,,,,,,,,,,,,,610202bb0ca06f14b87d1605,61036b17bda2a5c4581698aa,2021-07-29_21h01.08.350,Simcolourproject_2stim_asymm_v5,2020.2.10,MacIntel,60,61025ae37ef11b136ea224fe,,,,,,,,,2852,52.94921875,77.56640625,1,0,0,response1disk,,7,19.44921875,-5.42578125,1,0,0,rectangle,19.44921875,-5.42578125,1,0,0,19.44921875,-5.42578125,1,0,0,1,39,199,111,1,,,,,,,,
,,,,,,,,,,,,,FF,,,,,,,,1.5003,,,,,,,,,,,,,,,,,,,,,,610202bb0ca06f14b87d1605,61036b17bda2a5c4581698aa,2021-07-29_21h01.08.350,Simcolourproject_2stim_asymm_v5,2020.2.10,MacIntel,60,61025ae37ef11b136ea224fe,,,,,,,,,3997,-70.6015625,-84.4140625,1,0,0,response5disk,,3,-7.234375,6.41796875,1,0,0,rectangle,-7.234375,6.41796875,1,0,0,-7.234375,6.41796875,1,0,0,1,40,200,37,1,,,,,,,,
,,,,,,,,,,,,,FF,,,,,,,,0.7664,,,,,,,,,,,,,,,,,,,,,,610202bb0ca06f14b87d1605,61036b17bda2a5c4581698aa,2021-07-29_21h01.08.350,Simcolourproject_2stim_asymm_v5,2020.2.10,MacIntel,60,61025ae37ef11b136ea224fe,,,,,,,,,1656,31.1171875,75.96875,1,0,0,response1disk,,7,15.1015625,7.703125,1,0,0,rectangle,15.1015625,7.703125,1,0,0,15.1015625,7.703125,1,0,0,1,41,201,0,1,,,,,,,,
,,,,,,,,,,,,,FF,,,,,,,,0.5663,,,,,,,,,,,,,,,,,,,,,,610202bb0ca06f14b87d1605,61036b17bda2a5c4581698aa,2021-07-29_21h01.08.350,Simcolourproject_2stim_asymm_v5,2020.2.10,MacIntel,60,61025ae37ef11b136ea224fe,,,,,,,,,708,30.79296875,85.17578125,1,0,0,response1disk,,7,21.87890625,-3.4453125,1,0,0,rectangle,21.87890625,-3.4453125,1,0,0,21.87890625,-3.4453125,1,0,0,1,42,202,11,1,,,,,,,,
,,,,,,,,,,,,,FF,,,,,,,,0.9331,,,,,,,,,,,,,,,,,,,,,,610202bb0ca06f14b87d1605,61036b17bda2a5c4581698aa,2021-07-29_21h01.08.350,Simcolourproject_2stim_asymm_v5,2020.2.10,MacIntel,60,61025ae37ef11b136ea224fe,,,,,,,,,1373,-66.6015625,-35.73828125,1,0,0,response5disk,,2,-1.73828125,1.0390625,1,0,0,rectangle,-1.73828125,1.0390625,1,0,0,-1.73828125,1.0390625,1,0,0,1,43,203,48,1,,,,,,,,
,,,,,,,,,,,,,FF,,,,,,,,0.6167,,,,,,,,,,,,,,,,,,,,,,610202bb0ca06f14b87d1605,61036b17bda2a5c4581698aa,2021-07-29_21h01.08.350,Simcolourproject_2stim_asymm_v5,2020.2.10,MacIntel,60,61025ae37ef11b136ea224fe,,,,,,,,,1540,-48.546875,-119.8945313,1,0,0,response5disk,,3,-5.5234375,2.55078125,1,0,0,rectangle,-5.5234375,2.55078125,1,0,0,-5.5234375,2.55078125,1,0,0,1,44,204,126,1,,,,,,,,
,,,,,,,,,,,,,FF,,,,,,,,1.0166,,,,,,,,,,,,,,,,,,,,,,610202bb0ca06f14b87d1605,61036b17bda2a5c4581698aa,2021-07-29_21h01.08.350,Simcolourproject_2stim_asymm_v5,2020.2.10,MacIntel,60,61025ae37ef11b136ea224fe,,,,,,,,,4336,-86.31640625,-38.4921875,1,0,0,response5disk,,2,-21.95703125,-1.24609375,1,0,0,rectangle,-21.95703125,-1.24609375,1,0,0,-21.95703125,-1.24609375,1,0,0,1,45,205,10,1,,,,,,,,
,,,,,,,,,,,,,FF,,,,,,,,0.6829,,,,,,,,,,,,,,,,,,,,,,610202bb0ca06f14b87d1605,61036b17bda2a5c4581698aa,2021-07-29_21h01.08.350,Simcolourproject_2stim_asymm_v5,2020.2.10,MacIntel,60,61025ae37ef11b136ea224fe,,,,,,,,,913,34.6328125,92.0390625,1,0,0,response1disk,,7,-5.5234375,-4.1640625,1,0,0,rectangle,-5.5234375,-4.1640625,1,0,0,-5.5234375,-4.1640625,1,0,0,1,46,206,146,1,,,,,,,,
,,,,,,,,,,,,,FF,,,,,,,,0.7492,,,,,,,,,,,,,,,,,,,,,,610202bb0ca06f14b87d1605,61036b17bda2a5c4581698aa,2021-07-29_21h01.08.350,Simcolourproject_2stim_asymm_v5,2020.2.10,MacIntel,60,61025ae37ef11b136ea224fe,,,,,,,,,3,-33.34765625,-68.11328125,1,0,0,response5disk,,3,1.88671875,2.21875,1,0,0,rectangle,1.88671875,2.21875,1,0,0,1.88671875,2.21875,1,0,0,1,47,207,130,1,,,,,,,,
,,,,,,,,,,,,,FF,,,,,,,,1.1173,,,,,,,,,,,,,,,,,,,,,,610202bb0ca06f14b87d1605,61036b17bda2a5c4581698aa,2021-07-29_21h01.08.350,Simcolourproject_2stim_asymm_v5,2020.2.10,MacIntel,60,61025ae37ef11b136ea224fe,,,,,,,,,4318,80.2421875,-49.9921875,1,0,0,response3disk,,5,-5.6875,-4.49609375,1,0,0,rectangle,-5.6875,-4.49609375,1,0,0,-5.6875,-4.49609375,1,0,0,1,48,208,106,1,,,,,,,,
,,,,,,,,,,,,,FF,,,,,,,,1.1166,,,,,,,,,,,,,,,,,,,,,,610202bb0ca06f14b87d1605,61036b17bda2a5c4581698aa,2021-07-29_21h01.08.350,Simcolourproject_2stim_asymm_v5,2020.2.10,MacIntel,60,61025ae37ef11b136ea224fe,,,,,,,,,632,59.7734375,28.09375,1,0,0,response1disk,,6,-4,-0.2109375,1,0,0,rectangle,-4,-0.2109375,1,0,0,-4,-0.2109375,1,0,0,1,49,209,96,1,,,,,,,,
,,,,,,,,,,,,,FF,,,,,,,,0.801,,,,,,,,,,,,,,,,,,,,,,610202bb0ca06f14b87d1605,61036b17bda2a5c4581698aa,2021-07-29_21h01.08.350,Simcolourproject_2stim_asymm_v5,2020.2.10,MacIntel,60,61025ae37ef11b136ea224fe,,,,,,,,,309,47.6953125,88.1640625,1,0,0,response1disk,,7,10.91796875,11.859375,1,0,0,rectangle,10.91796875,11.859375,1,0,0,10.91796875,11.859375,1,0,0,1,50,210,6,1,,,,,,,,
,,,,,,,,,,,,,FF,,,,,,,,1.2836,,,,,,,,,,,,,,,,,,,,,,610202bb0ca06f14b87d1605,61036b17bda2a5c4581698aa,2021-07-29_21h01.08.350,Simcolourproject_2stim_asymm_v5,2020.2.10,MacIntel,60,61025ae37ef11b136ea224fe,,,,,,,,,735,66.359375,-85.25,1,0,0,response3disk,,4,-8.4140625,6.97265625,1,0,0,rectangle,-8.4140625,6.97265625,1,0,0,-8.4140625,6.97265625,1,0,0,1,51,211,132,1,,,,,,,,
,,,,,,,,,,,,,FF,,,,,,,,0.8195,,,,,,,,,,,,,,,,,,,,,,610202bb0ca06f14b87d1605,61036b17bda2a5c4581698aa,2021-07-29_21h01.08.350,Simcolourproject_2stim_asymm_v5,2020.2.10,MacIntel,60,61025ae37ef11b136ea224fe,,,,,,,,,2289,-26.49609375,-86.95703125,1,0,0,response5disk,,3,6.63671875,1.56640625,1,0,0,rectangle,-37.80859375,85.27734375,1,0,0,-13.1015625,2.64453125,1,0,0,1,52,212,97,1,,response7disk_3,TRUE,0,0,"[62,292,213,232,237,162,36,316,146,236,190,29,252,239,266,169,320,224,96,13]",1.3821,rectangle
,,,,,,,,,,,,,FF,,,,,,,,0.7002,,,,,,,,,,,,,,,,,,,,,,610202bb0ca06f14b87d1605,61036b17bda2a5c4581698aa,2021-07-29_21h01.08.350,Simcolourproject_2stim_asymm_v5,2020.2.10,MacIntel,60,61025ae37ef11b136ea224fe,,,,,,,,,2807,78.28125,46.90234375,1,0,0,response1disk,,6,-2.23046875,-3.078125,1,0,0,rectangle,-2.23046875,-3.078125,1,0,0,-2.23046875,-3.078125,1,0,0,1,53,213,17,1,,,,,,,,
,,,,,,,,,,,,,FF,,,,,,,,0.7488,,,,,,,,,,,,,,,,,,,,,,610202bb0ca06f14b87d1605,61036b17bda2a5c4581698aa,2021-07-29_21h01.08.350,Simcolourproject_2stim_asymm_v5,2020.2.10,MacIntel,60,61025ae37ef11b136ea224fe,,,,,,,,,2356,-57.140625,-68.0625,1,0,0,response5disk,,3,-22.4375,-3.43359375,1,0,0,rectangle,-22.4375,-3.43359375,1,0,0,-22.4375,-3.43359375,1,0,0,1,54,214,74,1,,,,,,,,
,,,,,,,,,,,,,FF,,,,,,,,1.1333,,,,,,,,,,,,,,,,,,,,,,610202bb0ca06f14b87d1605,61036b17bda2a5c4581698aa,2021-07-29_21h01.08.350,Simcolourproject_2stim_asymm_v5,2020.2.10,MacIntel,60,61025ae37ef11b136ea224fe,,,,,,,,,2071,48.828125,72.10546875,1,0,0,response1disk,,7,20.28125,8.44140625,1,0,0,rectangle,20.28125,8.44140625,1,0,0,20.28125,8.44140625,1,0,0,1,55,215,50,1,,,,,,,,
,,,,,,,,,,,,,FF,,,,,,,,0.5856,,,,,,,,,,,,,,,,,,,,,,610202bb0ca06f14b87d1605,61036b17bda2a5c4581698aa,2021-07-29_21h01.08.350,Simcolourproject_2stim_asymm_v5,2020.2.10,MacIntel,60,61025ae37ef11b136ea224fe,,,,,,,,,1804,45.43359375,89.32421875,1,0,0,response1disk,,7,14.7734375,-8.2890625,1,0,0,rectangle,14.7734375,-8.2890625,1,0,0,14.7734375,-8.2890625,1,0,0,1,56,216,140,1,,,,,,,,
,,,,,,,,,,,,,FF,,,,,,,,0.5828,,,,,,,,,,,,,,,,,,,,,,610202bb0ca06f14b87d1605,61036b17bda2a5c4581698aa,2021-07-29_21h01.08.350,Simcolourproject_2stim_asymm_v5,2020.2.10,MacIntel,60,61025ae37ef11b136ea224fe,,,,,,,,,2443,31.69140625,77.703125,1,0,0,response1disk,,7,13.8828125,-2.98828125,1,0,0,rectangle,13.8828125,-2.98828125,1,0,0,13.8828125,-2.98828125,1,0,0,1,57,217,42,1,,,,,,,,
,,,,,,,,,,,,,FF,,,,,,,,0.7999,,,,,,,,,,,,,,,,,,,,,,610202bb0ca06f14b87d1605,61036b17bda2a5c4581698aa,2021-07-29_21h01.08.350,Simcolourproject_2stim_asymm_v5,2020.2.10,MacIntel,60,61025ae37ef11b136ea224fe,,,,,,,,,4163,-70.015625,-36.6171875,1,0,0,response5disk,,2,-0.7109375,8.31640625,1,0,0,rectangle,-0.7109375,8.31640625,1,0,0,-0.7109375,8.31640625,1,0,0,1,58,218,1,1,,,,,,,,
,,,,,,,,,,,,,FF,,,,,,,,0.8512,,,,,,,,,,,,,,,,,,,,,,610202bb0ca06f14b87d1605,61036b17bda2a5c4581698aa,2021-07-29_21h01.08.350,Simcolourproject_2stim_asymm_v5,2020.2.10,MacIntel,60,61025ae37ef11b136ea224fe,,,,,,,,,1535,-71.15625,34.11328125,1,0,0,response7disk,,1,10.17578125,-2.38671875,1,0,0,rectangle,10.17578125,-2.38671875,1,0,0,10.17578125,-2.38671875,1,0,0,1,59,219,135,1,,,,,,,,
,,,,,,,,,,,,,FF,,,,,,,,0.9503,,,,,,,,,,,,,,,,,,,,,,610202bb0ca06f14b87d1605,61036b17bda2a5c4581698aa,2021-07-29_21h01.08.350,Simcolourproject_2stim_asymm_v5,2020.2.10,MacIntel,60,61025ae37ef11b136ea224fe,,,,,,,,,3161,30.4765625,-89.1328125,1,0,0,response3disk,,4,-8.953125,-2.171875,1,0,0,rectangle,-8.953125,-2.171875,1,0,0,-8.953125,-2.171875,1,0,0,1,60,220,136,1,,,,,,,,
,,,,,,,,,,,,,FF,,,,,,,,0.7324,,,,,,,,,,,,,,,,,,,,,,610202bb0ca06f14b87d1605,61036b17bda2a5c4581698aa,2021-07-29_21h01.08.350,Simcolourproject_2stim_asymm_v5,2020.2.10,MacIntel,60,61025ae37ef11b136ea224fe,,,,,,,,,1494,26.625,102.8242188,1,0,0,response1disk,,7,3.98046875,3.52734375,1,0,0,rectangle,3.98046875,3.52734375,1,0,0,3.98046875,3.52734375,1,0,0,1,61,221,144,1,,,,,,,,
,,,,,,,,,,,,,FF,,,,,,,,0.5671,,,,,,,,,,,,,,,,,,,,,,610202bb0ca06f14b87d1605,61036b17bda2a5c4581698aa,2021-07-29_21h01.08.350,Simcolourproject_2stim_asymm_v5,2020.2.10,MacIntel,60,61025ae37ef11b136ea224fe,,,,,,,,,145,44.87109375,86.16015625,1,0,0,response1disk,,7,18.671875,6.07421875,1,0,0,rectangle,18.671875,6.07421875,1,0,0,18.671875,6.07421875,1,0,0,1,62,222,22,1,,,,,,,,
,,,,,,,,,,,,,FF,,,,,,,,0.6838,,,,,,,,,,,,,,,,,,,,,,610202bb0ca06f14b87d1605,61036b17bda2a5c4581698aa,2021-07-29_21h01.08.350,Simcolourproject_2stim_asymm_v5,2020.2.10,MacIntel,60,61025ae37ef11b136ea224fe,,,,,,,,,4251,-49.46875,86.37109375,1,0,0,response7disk,,0,-8.91015625,5.6796875,1,0,0,rectangle,79.62890625,-46.24609375,1,0,0,4.75390625,10.15625,1,0,0,1,63,223,56,1,,response3disk_3,TRUE,5,5,"[62,292,213,232,237,162,36,316,146,236,190,29,252,239,266,169,320,224,96,13]",1.3155,rectangle
,,,,,,,,,,,,,FF,,,,,,,,0.5683,,,,,,,,,,,,,,,,,,,,,,610202bb0ca06f14b87d1605,61036b17bda2a5c4581698aa,2021-07-29_21h01.08.350,Simcolourproject_2stim_asymm_v5,2020.2.10,MacIntel,60,61025ae37ef11b136ea224fe,,,,,,,,,3489,26.02734375,67.9765625,1,0,0,response1disk,,7,10.875,2.50390625,1,0,0,rectangle,10.875,2.50390625,1,0,0,10.875,2.50390625,1,0,0,1,64,224,80,1,,,,,,,,
,,,,,,,,,,,,,FF,,,,,,,,0.8663,,,,,,,,,,,,,,,,,,,,,,610202bb0ca06f14b87d1605,61036b17bda2a5c4581698aa,2021-07-29_21h01.08.350,Simcolourproject_2stim_asymm_v5,2020.2.10,MacIntel,60,61025ae37ef11b136ea224fe,,,,,,,,,2237,-35.7265625,-63.0625,1,0,0,response5disk,,3,8.70703125,10.12109375,1,0,0,rectangle,8.70703125,10.12109375,1,0,0,8.70703125,10.12109375,1,0,0,1,65,225,61,1,,,,,,,,
,,,,,,,,,,,,,FF,,,,,,,,0.5698,,,,,,,,,,,,,,,,,,,,,,610202bb0ca06f14b87d1605,61036b17bda2a5c4581698aa,2021-07-29_21h01.08.350,Simcolourproject_2stim_asymm_v5,2020.2.10,MacIntel,60,61025ae37ef11b136ea224fe,,,,,,,,,226,26.71875,60.36328125,1,0,0,response1disk,,7,13.390625,-4.19140625,1,0,0,rectangle,13.390625,-4.19140625,1,0,0,13.390625,-4.19140625,1,0,0,1,66,226,55,1,,,,,,,,
,,,,,,,,,,,,,FF,,,,,,,,0.9831,,,,,,,,,,,,,,,,,,,,,,610202bb0ca06f14b87d1605,61036b17bda2a5c4581698aa,2021-07-29_21h01.08.350,Simcolourproject_2stim_asymm_v5,2020.2.10,MacIntel,60,61025ae37ef11b136ea224fe,,,,,,,,,1295,68.66015625,-28.5,1,0,0,response3disk,,5,-10.84375,1.6171875,1,0,0,rectangle,-10.84375,1.6171875,1,0,0,-10.84375,1.6171875,1,0,0,1,67,227,139,1,,,,,,,,
,,,,,,,,,,,,,FF,,,,,,,,0.598,,,,,,,,,,,,,,,,,,,,,,610202bb0ca06f14b87d1605,61036b17bda2a5c4581698aa,2021-07-29_21h01.08.350,Simcolourproject_2stim_asymm_v5,2020.2.10,MacIntel,60,61025ae37ef11b136ea224fe,,,,,,,,,2154,26.875,89.27734375,1,0,0,response1disk,,7,8.33984375,2.90234375,1,0,0,rectangle,8.33984375,2.90234375,1,0,0,8.33984375,2.90234375,1,0,0,1,68,228,116,1,,,,,,,,
,,,,,,,,,,,,,FF,,,,,,,,0.566,,,,,,,,,,,,,,,,,,,,,,610202bb0ca06f14b87d1605,61036b17bda2a5c4581698aa,2021-07-29_21h01.08.350,Simcolourproject_2stim_asymm_v5,2020.2.10,MacIntel,60,61025ae37ef11b136ea224fe,,,,,,,,,1279,34.94921875,94.66015625,1,0,0,response1disk,,7,11.98046875,-6.75,1,0,0,rectangle,11.98046875,-6.75,1,0,0,11.98046875,-6.75,1,0,0,1,69,229,59,1,,,,,,,,
,,,,,,,,,,,,,FF,,,,,,,,1.1497,,,,,,,,,,,,,,,,,,,,,,610202bb0ca06f14b87d1605,61036b17bda2a5c4581698aa,2021-07-29_21h01.08.350,Simcolourproject_2stim_asymm_v5,2020.2.10,MacIntel,60,61025ae37ef11b136ea224fe,,,,,,,,,433,64.203125,-43.11328125,1,0,0,response3disk,,5,17.45703125,7.01953125,1,0,0,rectangle,17.45703125,7.01953125,1,0,0,17.45703125,7.01953125,1,0,0,1,70,230,151,1,,,,,,,,
,,,,,,,,,,,,,FF,,,,,,,,0.766,,,,,,,,,,,,,,,,,,,,,,610202bb0ca06f14b87d1605,61036b17bda2a5c4581698aa,2021-07-29_21h01.08.350,Simcolourproject_2stim_asymm_v5,2020.2.10,MacIntel,60,61025ae37ef11b136ea224fe,,,,,,,,,4184,43.35546875,84.765625,1,0,0,response1disk,,7,6.3203125,0.79296875,1,0,0,rectangle,-32.46484375,-90.94921875,1,0,0,-11.08984375,-4.484375,1,0,0,1,71,231,7,1,,response5disk_3,TRUE,3,3,"[62,292,213,232,237,162,36,316,146,236,190,29,252,239,266,169,320,224,96,13]",1.1508,rectangle
,,,,,,,,,,,,,FF,,,,,,,,2.2489,,,,,,,,,,,,,,,,,,,,,,610202bb0ca06f14b87d1605,61036b17bda2a5c4581698aa,2021-07-29_21h01.08.350,Simcolourproject_2stim_asymm_v5,2020.2.10,MacIntel,60,61025ae37ef11b136ea224fe,,,,,,,,,3373,52.15234375,-57.50390625,1,0,0,response3disk,,4,-5.69921875,2.62109375,1,0,0,rectangle,-5.69921875,2.62109375,1,0,0,-5.69921875,2.62109375,1,0,0,1,72,232,58,1,,,,,,,,
,,,,,,,,,,,,,FF,,,,,,,,2.6178,,,,,,,,,,,,,,,,,,,,,,610202bb0ca06f14b87d1605,61036b17bda2a5c4581698aa,2021-07-29_21h01.08.350,Simcolourproject_2stim_asymm_v5,2020.2.10,MacIntel,60,61025ae37ef11b136ea224fe,,,,,,,,,8,46.671875,-58.2578125,1,0,0,response3disk,,4,10.76171875,-6.99609375,1,0,0,rectangle,10.76171875,-6.99609375,1,0,0,10.76171875,-6.99609375,1,0,0,1,73,233,153,1,,,,,,,,
,,,,,,,,,,,,,FF,,,,,,,,1.0013,,,,,,,,,,,,,,,,,,,,,,610202bb0ca06f14b87d1605,61036b17bda2a5c4581698aa,2021-07-29_21h01.08.350,Simcolourproject_2stim_asymm_v5,2020.2.10,MacIntel,60,61025ae37ef11b136ea224fe,,,,,,,,,4027,-21.19140625,-48.40625,1,0,0,response5disk,,3,0.91015625,-0.2265625,1,0,0,rectangle,0.91015625,-0.2265625,1,0,0,0.91015625,-0.2265625,1,0,0,1,74,234,79,1,,,,,,,,
,,,,,,,,,,,,,FF,,,,,,,,0.6317,,,,,,,,,,,,,,,,,,,,,,610202bb0ca06f14b87d1605,61036b17bda2a5c4581698aa,2021-07-29_21h01.08.350,Simcolourproject_2stim_asymm_v5,2020.2.10,MacIntel,60,61025ae37ef11b136ea224fe,,,,,,,,,3823,36.7109375,93.203125,1,0,0,response1disk,,7,17.20703125,-7.953125,1,0,0,rectangle,45.9375,102.5351563,1,0,0,11.71875,5.16796875,1,0,0,1,75,235,152,1,,response1disk_3,TRUE,7,7,"[62,292,213,232,237,162,36,316,146,236,190,29,252,239,266,169,320,224,96,13]",1.3838,rectangle
,,,,,,,,,,,,,FF,,,,,,,,0.8817,,,,,,,,,,,,,,,,,,,,,,610202bb0ca06f14b87d1605,61036b17bda2a5c4581698aa,2021-07-29_21h01.08.350,Simcolourproject_2stim_asymm_v5,2020.2.10,MacIntel,60,61025ae37ef11b136ea224fe,,,,,,,,,4216,34.59765625,-94.26171875,1,0,0,response3disk,,4,18.984375,-2.88671875,1,0,0,rectangle,-72.23046875,-39.7421875,1,0,0,-2.05078125,-4.40234375,1,0,0,1,76,236,128,1,,response5disk_3,TRUE,2,2,"[62,292,213,232,237,162,36,316,146,236,190,29,252,239,266,169,320,224,96,13]",1.1661,rectangle
,,,,,,,,,,,,,FF,,,,,,,,0.6001,,,,,,,,,,,,,,,,,,,,,,610202bb0ca06f14b87d1605,61036b17bda2a5c4581698aa,2021-07-29_21h01.08.350,Simcolourproject_2stim_asymm_v5,2020.2.10,MacIntel,60,61025ae37ef11b136ea224fe,,,,,,,,,2742,50.5859375,82.703125,1,0,0,response1disk,,7,25.859375,-2.13671875,1,0,0,rectangle,25.859375,-2.13671875,1,0,0,25.859375,-2.13671875,1,0,0,1,77,237,8,1,,,,,,,,
,,,,,,,,,,,,,FF,,,,,,,,0.5674,,,,,,,,,,,,,,,,,,,,,,610202bb0ca06f14b87d1605,61036b17bda2a5c4581698aa,2021-07-29_21h01.08.350,Simcolourproject_2stim_asymm_v5,2020.2.10,MacIntel,60,61025ae37ef11b136ea224fe,,,,,,,,,756,50.34375,58.828125,1,0,0,response1disk,,7,11.796875,-7.921875,1,0,0,rectangle,-82.8671875,31.19140625,1,0,0,-13.92578125,-8.14453125,1,0,0,1,78,238,108,1,,response7disk_3,TRUE,1,1,"[62,292,213,232,237,162,36,316,146,236,190,29,252,239,266,169,320,224,96,13]",1.2657,rectangle
,,,,,,,,,,,,,FF,,,,,,,,0.7503,,,,,,,,,,,,,,,,,,,,,,610202bb0ca06f14b87d1605,61036b17bda2a5c4581698aa,2021-07-29_21h01.08.350,Simcolourproject_2stim_asymm_v5,2020.2.10,MacIntel,60,61025ae37ef11b136ea224fe,,,,,,,,,2382,30.12109375,89.23828125,1,0,0,response1disk,,7,17.71484375,-7.890625,1,0,0,rectangle,17.71484375,-7.890625,1,0,0,17.71484375,-7.890625,1,0,0,1,79,239,129,1,,,,,,,,
,,,,,,,,,,,,,FF,,,,,,,,1.1499,,,,,,,,,,,,,,,,,,,,,,610202bb0ca06f14b87d1605,61036b17bda2a5c4581698aa,2021-07-29_21h01.08.350,Simcolourproject_2stim_asymm_v5,2020.2.10,MacIntel,60,61025ae37ef11b136ea224fe,,,,,,,,,2433,38.94140625,-96.578125,1,0,0,response3disk,,4,16.1953125,-2.37890625,1,0,0,rectangle,16.1953125,-2.37890625,1,0,0,16.1953125,-2.37890625,1,0,0,1,80,240,86,1,,,,,,,,
,,,,,,,,,,,,,FF,,,,,,,,0.516,,,,,,,,,,,,,,,,,,,,,,610202bb0ca06f14b87d1605,61036b17bda2a5c4581698aa,2021-07-29_21h01.08.350,Simcolourproject_2stim_asymm_v5,2020.2.10,MacIntel,60,61025ae37ef11b136ea224fe,,,,,,,,,330,39.28515625,88.41015625,1,0,0,response1disk,,7,6.5,3.53125,1,0,0,rectangle,6.5,3.53125,1,0,0,6.5,3.53125,1,0,0,1,81,241,51,1,,,,,,,,
,,,,,,,,,,,,,FF,,,,,,,,0.8169,,,,,,,,,,,,,,,,,,,,,,610202bb0ca06f14b87d1605,61036b17bda2a5c4581698aa,2021-07-29_21h01.08.350,Simcolourproject_2stim_asymm_v5,2020.2.10,MacIntel,60,61025ae37ef11b136ea224fe,,,,,,,,,3291,-31.55078125,-51.02734375,1,0,0,response5disk,,3,-20.703125,-2.5078125,1,0,0,rectangle,-20.703125,-2.5078125,1,0,0,-20.703125,-2.5078125,1,0,0,1,82,242,3,1,,,,,,,,
,,,,,,,,,,,,,FF,,,,,,,,1.166,,,,,,,,,,,,,,,,,,,,,,610202bb0ca06f14b87d1605,61036b17bda2a5c4581698aa,2021-07-29_21h01.08.350,Simcolourproject_2stim_asymm_v5,2020.2.10,MacIntel,60,61025ae37ef11b136ea224fe,,,,,,,,,978,32.3828125,-64.6796875,1,0,0,response3disk,,4,16.359375,-13.90625,1,0,0,rectangle,16.359375,-13.90625,1,0,0,16.359375,-13.90625,1,0,0,1,83,243,102,1,,,,,,,,
,,,,,,,,,,,,,FF,,,,,,,,0.7343,,,,,,,,,,,,,,,,,,,,,,610202bb0ca06f14b87d1605,61036b17bda2a5c4581698aa,2021-07-29_21h01.08.350,Simcolourproject_2stim_asymm_v5,2020.2.10,MacIntel,60,61025ae37ef11b136ea224fe,,,,,,,,,584,25.66015625,63.97265625,1,0,0,response1disk,,7,13.6875,-11.68359375,1,0,0,rectangle,13.6875,-11.68359375,1,0,0,13.6875,-11.68359375,1,0,0,1,84,244,158,1,,,,,,,,
,,,,,,,,,,,,,FF,,,,,,,,0.5175,,,,,,,,,,,,,,,,,,,,,,610202bb0ca06f14b87d1605,61036b17bda2a5c4581698aa,2021-07-29_21h01.08.350,Simcolourproject_2stim_asymm_v5,2020.2.10,MacIntel,60,61025ae37ef11b136ea224fe,,,,,,,,,2758,44.71875,101.2851563,1,0,0,response1disk,,7,22.3671875,-3.1171875,1,0,0,rectangle,22.3671875,-3.1171875,1,0,0,22.3671875,-3.1171875,1,0,0,1,85,245,122,1,,,,,,,,
,,,,,,,,,,,,,FF,,,,,,,,0.6154,,,,,,,,,,,,,,,,,,,,,,610202bb0ca06f14b87d1605,61036b17bda2a5c4581698aa,2021-07-29_21h01.08.350,Simcolourproject_2stim_asymm_v5,2020.2.10,MacIntel,60,61025ae37ef11b136ea224fe,,,,,,,,,1797,47.234375,81.9296875,1,0,0,response1disk,,7,27.2578125,-8.4140625,1,0,0,rectangle,27.2578125,-8.4140625,1,0,0,27.2578125,-8.4140625,1,0,0,1,86,246,138,1,,,,,,,,
,,,,,,,,,,,,,FF,,,,,,,,0.6319,,,,,,,,,,,,,,,,,,,,,,610202bb0ca06f14b87d1605,61036b17bda2a5c4581698aa,2021-07-29_21h01.08.350,Simcolourproject_2stim_asymm_v5,2020.2.10,MacIntel,60,61025ae37ef11b136ea224fe,,,,,,,,,1861,36.44140625,82.33984375,1,0,0,response1disk,,7,17.41015625,-6.42578125,1,0,0,rectangle,17.41015625,-6.42578125,1,0,0,17.41015625,-6.42578125,1,0,0,1,87,247,149,1,,,,,,,,
,,,,,,,,,,,,,FF,,,,,,,,1.0149,,,,,,,,,,,,,,,,,,,,,,610202bb0ca06f14b87d1605,61036b17bda2a5c4581698aa,2021-07-29_21h01.08.350,Simcolourproject_2stim_asymm_v5,2020.2.10,MacIntel,60,61025ae37ef11b136ea224fe,,,,,,,,,3506,30.26953125,-100.46875,1,0,0,response3disk,,4,-13.66015625,-7.4296875,1,0,0,rectangle,-13.66015625,-7.4296875,1,0,0,-13.66015625,-7.4296875,1,0,0,1,88,248,124,1,,,,,,,,
