key_resp.keys,key_resp.rt,key_resp_14.keys,key_resp_14.rt,key_resp_15.keys,key_resp_15.rt,key_resp_17.keys,key_resp_17.rt,key_resp_9.keys,key_resp_9.rt,key_resp_10.keys,key_resp_10.rt,practice_comparison,Ecc,mouse_5.x,mouse_5.y,mouse_5.leftButton,mouse_5.midButton,mouse_5.rightButton,mouse_5.clicked_name,pracsimilarity,response_time,mouse_10.x,mouse_10.y,mouse_10.leftButton,mouse_10.midButton,mouse_10.rightButton,mouse_10.clicked_name,mouse_7.x,mouse_7.y,mouse_7.leftButton,mouse_7.midButton,mouse_7.rightButton,mouse_6.x,mouse_6.y,mouse_6.leftButton,mouse_6.midButton,mouse_6.rightButton,duringprac.thisRepN,duringprac.thisTrialN,duringprac.thisN,duringprac.thisIndex,duringprac.ran,participant,session,date,expName,psychopyVersion,OS,frameRate,study_id,mouse_7.clicked_name,catchpracsimilarity,catch_response_time,catchnumberprac,catchtrialorderprac,mouse_6.clicked_name,key_resp_22.keys,key_resp_22.rt,realcomparison,mouse.x,mouse.y,mouse.leftButton,mouse.midButton,mouse.rightButton,mouse.clicked_name,Colour2,similarity,mouse_2.x,mouse_2.y,mouse_2.leftButton,mouse_2.midButton,mouse_2.rightButton,mouse_2.clicked_name,mouse_3.x,mouse_3.y,mouse_3.leftButton,mouse_3.midButton,mouse_3.rightButton,mouse_11.x,mouse_11.y,mouse_11.leftButton,mouse_11.midButton,mouse_11.rightButton,trials_2.thisRepN,trials_2.thisTrialN,trials_2.thisN,trials_2.thisIndex,trials_2.ran,Colour1,mouse_3.clicked_name,catchornah,catchsimilarity,catchnumber,catchtrialorder,catchRT,mouse_11.clicked_name
space,3.1687,space,7.4978,space,21.9177,space,13.1472,space,1.3386,space,3.2576,137,FF,-53,-36,1,0,0,response5disk_5,2,6.4546,0,6,1,0,0,rectangle_8,0,6,1,0,0,0,6,1,0,0,0,0,0,0,1,610237c272f68683ee0ae662,61036a0cb6b0254c3532739f,2021-07-29_19h58.29.887,Simcolourproject_2stim_asymm_v5,2020.2.10,Win32,60,61025ae37ef11b136ea224fe,,,,,,,,,,,,,,,,,,,,,,,,,,,,,,,,,,,,,,,,,,,,,,
,,,,,,,,,,,,86,PF,48,82,1,0,0,response1disk_5,7,5.8845,-3,-3,1,0,0,rectangle_8,-22,84,1,0,0,7,0,1,0,0,0,1,1,6,1,610237c272f68683ee0ae662,61036a0cb6b0254c3532739f,2021-07-29_19h58.29.887,Simcolourproject_2stim_asymm_v5,2020.2.10,Win32,60,61025ae37ef11b136ea224fe,response7disk_7,0,2.6852,0,"[2,5]",rectangle_4,,,,,,,,,,,,,,,,,,,,,,,,,,,,,,,,,,,,,,,,
,,,,,,,,,,,,113,PF,35,56,1,0,0,response1disk_5,7,2.9374,-1,-3,1,0,0,rectangle_8,-1,-3,1,0,0,-1,-3,1,0,0,0,2,2,2,1,610237c272f68683ee0ae662,61036a0cb6b0254c3532739f,2021-07-29_19h58.29.887,Simcolourproject_2stim_asymm_v5,2020.2.10,Win32,60,61025ae37ef11b136ea224fe,,,,,,,,,,,,,,,,,,,,,,,,,,,,,,,,,,,,,,,,,,,,,,
,,,,,,,,,,,,107,PF,-22,-56,1,0,0,response5disk_5,3,3.2016,0,-3,1,0,0,rectangle_8,0,-3,1,0,0,0,-3,1,0,0,0,3,3,1,1,610237c272f68683ee0ae662,61036a0cb6b0254c3532739f,2021-07-29_19h58.29.887,Simcolourproject_2stim_asymm_v5,2020.2.10,Win32,60,61025ae37ef11b136ea224fe,,,,,,,,,,,,,,,,,,,,,,,,,,,,,,,,,,,,,,,,,,,,,,
,,,,,,,,,,,,124,FF,-29,65,1,0,0,response7disk_5,0,2.5002,-6,-6,1,0,0,rectangle_8,-40,77,1,0,0,18,-4,1,0,0,0,4,4,5,1,610237c272f68683ee0ae662,61036a0cb6b0254c3532739f,2021-07-29_19h58.29.887,Simcolourproject_2stim_asymm_v5,2020.2.10,Win32,60,61025ae37ef11b136ea224fe,response7disk_7,0,1.9654,0,"[2,5]",rectangle_4,,,,,,,,,,,,,,,,,,,,,,,,,,,,,,,,,,,,,,,,
,,,,,,,,,,,,86,PF,43,66,1,0,0,response1disk_5,7,5.268,8,8,1,0,0,rectangle_8,8,8,1,0,0,8,8,1,0,0,0,5,5,4,1,610237c272f68683ee0ae662,61036a0cb6b0254c3532739f,2021-07-29_19h58.29.887,Simcolourproject_2stim_asymm_v5,2020.2.10,Win32,60,61025ae37ef11b136ea224fe,,,,,,,,,,,,,,,,,,,,,,,,,,,,,,,,,,,,,,,,,,,,,,
,,,,,,,,,,,,142,FF,28,57,1,0,0,response1disk_5,7,1.1335,19,2,1,0,0,rectangle_8,19,2,1,0,0,19,2,1,0,0,0,6,6,3,1,610237c272f68683ee0ae662,61036a0cb6b0254c3532739f,2021-07-29_19h58.29.887,Simcolourproject_2stim_asymm_v5,2020.2.10,Win32,60,61025ae37ef11b136ea224fe,,,,,,,,,,,,,,,,,,,,,,,,,,,,,,,,,,,,,,,,,,,,,,
,,,,,,,,,,,,,FF,,,,,,,,2.05,,,,,,,,,,,,,,,,,,,,,,610237c272f68683ee0ae662,61036a0cb6b0254c3532739f,2021-07-29_19h58.29.887,Simcolourproject_2stim_asymm_v5,2020.2.10,Win32,60,61025ae37ef11b136ea224fe,,,,,,,space,2.6051,1632,27,42,1,0,0,response1disk,,7,-11,-3,1,0,0,rectangle,-11,-3,1,0,0,-11,-3,1,0,0,0,0,0,152,1,,,,,,,,
,,,,,,,,,,,,,FF,,,,,,,,3.0669,,,,,,,,,,,,,,,,,,,,,,610237c272f68683ee0ae662,61036a0cb6b0254c3532739f,2021-07-29_19h58.29.887,Simcolourproject_2stim_asymm_v5,2020.2.10,Win32,60,61025ae37ef11b136ea224fe,,,,,,,,,2348,19,58,1,0,0,response1disk,,7,3,7,1,0,0,rectangle,3,7,1,0,0,3,7,1,0,0,0,1,1,73,1,,,,,,,,
,,,,,,,,,,,,,FF,,,,,,,,0.9008,,,,,,,,,,,,,,,,,,,,,,610237c272f68683ee0ae662,61036a0cb6b0254c3532739f,2021-07-29_19h58.29.887,Simcolourproject_2stim_asymm_v5,2020.2.10,Win32,60,61025ae37ef11b136ea224fe,,,,,,,,,567,45,70,1,0,0,response1disk,,7,8,4,1,0,0,rectangle,8,4,1,0,0,8,4,1,0,0,0,2,2,117,1,,,,,,,,
,,,,,,,,,,,,,FF,,,,,,,,1.2666,,,,,,,,,,,,,,,,,,,,,,610237c272f68683ee0ae662,61036a0cb6b0254c3532739f,2021-07-29_19h58.29.887,Simcolourproject_2stim_asymm_v5,2020.2.10,Win32,60,61025ae37ef11b136ea224fe,,,,,,,,,3330,-62,36,1,0,0,response7disk,,1,7,-2,1,0,0,rectangle,7,-2,1,0,0,7,-2,1,0,0,0,3,3,86,1,,,,,,,,
,,,,,,,,,,,,,FF,,,,,,,,3.5182,,,,,,,,,,,,,,,,,,,,,,610237c272f68683ee0ae662,61036a0cb6b0254c3532739f,2021-07-29_19h58.29.887,Simcolourproject_2stim_asymm_v5,2020.2.10,Win32,60,61025ae37ef11b136ea224fe,,,,,,,,,892,39,-69,1,0,0,response3disk,,4,-10,-4,1,0,0,rectangle,-10,-4,1,0,0,-10,-4,1,0,0,0,4,4,79,1,,,,,,,,
,,,,,,,,,,,,,FF,,,,,,,,2.0909,,,,,,,,,,,,,,,,,,,,,,610237c272f68683ee0ae662,61036a0cb6b0254c3532739f,2021-07-29_19h58.29.887,Simcolourproject_2stim_asymm_v5,2020.2.10,Win32,60,61025ae37ef11b136ea224fe,,,,,,,,,4204,-84,-24,1,0,0,response5disk,,2,3,0,1,0,0,rectangle,3,0,1,0,0,3,0,1,0,0,0,5,5,18,1,,,,,,,,
,,,,,,,,,,,,,FF,,,,,,,,1.3375,,,,,,,,,,,,,,,,,,,,,,610237c272f68683ee0ae662,61036a0cb6b0254c3532739f,2021-07-29_19h58.29.887,Simcolourproject_2stim_asymm_v5,2020.2.10,Win32,60,61025ae37ef11b136ea224fe,,,,,,,,,3775,60,103,1,0,0,response1disk,,7,-5,7,1,0,0,rectangle,-5,7,1,0,0,-5,7,1,0,0,0,6,6,115,1,,,,,,,,
,,,,,,,,,,,,,FF,,,,,,,,2.6166,,,,,,,,,,,,,,,,,,,,,,610237c272f68683ee0ae662,61036a0cb6b0254c3532739f,2021-07-29_19h58.29.887,Simcolourproject_2stim_asymm_v5,2020.2.10,Win32,60,61025ae37ef11b136ea224fe,,,,,,,,,2967,70,31,1,0,0,response1disk,,6,-5,-7,1,0,0,rectangle,-5,-7,1,0,0,-5,-7,1,0,0,0,7,7,146,1,,,,,,,,
,,,,,,,,,,,,,FF,,,,,,,,1.3008,,,,,,,,,,,,,,,,,,,,,,610237c272f68683ee0ae662,61036a0cb6b0254c3532739f,2021-07-29_19h58.29.887,Simcolourproject_2stim_asymm_v5,2020.2.10,Win32,60,61025ae37ef11b136ea224fe,,,,,,,,,4104,-43,-32,1,0,0,response5disk,,2,1,-2,1,0,0,rectangle,1,-2,1,0,0,1,-2,1,0,0,0,8,8,139,1,,,,,,,,
,,,,,,,,,,,,,FF,,,,,,,,1.3674,,,,,,,,,,,,,,,,,,,,,,610237c272f68683ee0ae662,61036a0cb6b0254c3532739f,2021-07-29_19h58.29.887,Simcolourproject_2stim_asymm_v5,2020.2.10,Win32,60,61025ae37ef11b136ea224fe,,,,,,,,,3964,27,87,1,0,0,response1disk,,7,-1,2,1,0,0,rectangle,-1,2,1,0,0,-1,2,1,0,0,0,9,9,61,1,,,,,,,,
,,,,,,,,,,,,,FF,,,,,,,,0.9678,,,,,,,,,,,,,,,,,,,,,,610237c272f68683ee0ae662,61036a0cb6b0254c3532739f,2021-07-29_19h58.29.887,Simcolourproject_2stim_asymm_v5,2020.2.10,Win32,60,61025ae37ef11b136ea224fe,,,,,,,,,3132,36,68,1,0,0,response1disk,,7,-3,3,1,0,0,rectangle,-3,3,1,0,0,-3,3,1,0,0,0,10,10,103,1,,,,,,,,
,,,,,,,,,,,,,FF,,,,,,,,1.0828,,,,,,,,,,,,,,,,,,,,,,610237c272f68683ee0ae662,61036a0cb6b0254c3532739f,2021-07-29_19h58.29.887,Simcolourproject_2stim_asymm_v5,2020.2.10,Win32,60,61025ae37ef11b136ea224fe,,,,,,,,,3194,34,79,1,0,0,response1disk,,7,0,3,1,0,0,rectangle,0,3,1,0,0,0,3,1,0,0,0,11,11,136,1,,,,,,,,
,,,,,,,,,,,,,FF,,,,,,,,1.5173,,,,,,,,,,,,,,,,,,,,,,610237c272f68683ee0ae662,61036a0cb6b0254c3532739f,2021-07-29_19h58.29.887,Simcolourproject_2stim_asymm_v5,2020.2.10,Win32,60,61025ae37ef11b136ea224fe,,,,,,,,,3031,45,57,1,0,0,response1disk,,7,7,-1,1,0,0,rectangle,7,-1,1,0,0,7,-1,1,0,0,0,12,12,57,1,,,,,,,,
,,,,,,,,,,,,,FF,,,,,,,,1.1338,,,,,,,,,,,,,,,,,,,,,,610237c272f68683ee0ae662,61036a0cb6b0254c3532739f,2021-07-29_19h58.29.887,Simcolourproject_2stim_asymm_v5,2020.2.10,Win32,60,61025ae37ef11b136ea224fe,,,,,,,,,1799,45,66,1,0,0,response1disk,,7,3,-1,1,0,0,rectangle,3,-1,1,0,0,3,-1,1,0,0,0,13,13,78,1,,,,,,,,
,,,,,,,,,,,,,FF,,,,,,,,1.167,,,,,,,,,,,,,,,,,,,,,,610237c272f68683ee0ae662,61036a0cb6b0254c3532739f,2021-07-29_19h58.29.887,Simcolourproject_2stim_asymm_v5,2020.2.10,Win32,60,61025ae37ef11b136ea224fe,,,,,,,,,2983,33,64,1,0,0,response1disk,,7,-16,3,1,0,0,rectangle,-72,-41,1,0,0,1,2,1,0,0,0,14,14,59,1,,response5disk_3,TRUE,2,2,"[217,115,160,75,15,306,88,107,91,56,38,206,166,50,47,314,238,216,288,110]",2.2163,rectangle
,,,,,,,,,,,,,FF,,,,,,,,3.483,,,,,,,,,,,,,,,,,,,,,,610237c272f68683ee0ae662,61036a0cb6b0254c3532739f,2021-07-29_19h58.29.887,Simcolourproject_2stim_asymm_v5,2020.2.10,Win32,60,61025ae37ef11b136ea224fe,,,,,,,,,3238,-74,-27,1,0,0,response5disk,,2,-10,-1,1,0,0,rectangle,-10,-1,1,0,0,-10,-1,1,0,0,0,15,15,46,1,,,,,,,,
,,,,,,,,,,,,,FF,,,,,,,,0.6333,,,,,,,,,,,,,,,,,,,,,,610237c272f68683ee0ae662,61036a0cb6b0254c3532739f,2021-07-29_19h58.29.887,Simcolourproject_2stim_asymm_v5,2020.2.10,Win32,60,61025ae37ef11b136ea224fe,,,,,,,,,1185,40,73,1,0,0,response1disk,,7,5,-7,1,0,0,rectangle,5,-7,1,0,0,5,-7,1,0,0,0,16,16,45,1,,,,,,,,
,,,,,,,,,,,,,FF,,,,,,,,0.9173,,,,,,,,,,,,,,,,,,,,,,610237c272f68683ee0ae662,61036a0cb6b0254c3532739f,2021-07-29_19h58.29.887,Simcolourproject_2stim_asymm_v5,2020.2.10,Win32,60,61025ae37ef11b136ea224fe,,,,,,,,,2346,30,56,1,0,0,response1disk,,7,-5,6,1,0,0,rectangle,-5,6,1,0,0,-5,6,1,0,0,0,17,17,128,1,,,,,,,,
,,,,,,,,,,,,,FF,,,,,,,,2.0344,,,,,,,,,,,,,,,,,,,,,,610237c272f68683ee0ae662,61036a0cb6b0254c3532739f,2021-07-29_19h58.29.887,Simcolourproject_2stim_asymm_v5,2020.2.10,Win32,60,61025ae37ef11b136ea224fe,,,,,,,,,3878,63,28,1,0,0,response1disk,,6,1,-2,1,0,0,rectangle,1,-2,1,0,0,1,-2,1,0,0,0,18,18,66,1,,,,,,,,
,,,,,,,,,,,,,FF,,,,,,,,1.0971,,,,,,,,,,,,,,,,,,,,,,610237c272f68683ee0ae662,61036a0cb6b0254c3532739f,2021-07-29_19h58.29.887,Simcolourproject_2stim_asymm_v5,2020.2.10,Win32,60,61025ae37ef11b136ea224fe,,,,,,,,,1702,32,77,1,0,0,response1disk,,7,-3,6,1,0,0,rectangle,-3,6,1,0,0,-3,6,1,0,0,0,19,19,62,1,,,,,,,,
,,,,,,,,,,,,,FF,,,,,,,,0.6676,,,,,,,,,,,,,,,,,,,,,,610237c272f68683ee0ae662,61036a0cb6b0254c3532739f,2021-07-29_19h58.29.887,Simcolourproject_2stim_asymm_v5,2020.2.10,Win32,60,61025ae37ef11b136ea224fe,,,,,,,,,507,45,71,1,0,0,response1disk,,7,5,-2,1,0,0,rectangle,5,-2,1,0,0,5,-2,1,0,0,0,20,20,81,1,,,,,,,,
,,,,,,,,,,,,,FF,,,,,,,,0.8504,,,,,,,,,,,,,,,,,,,,,,610237c272f68683ee0ae662,61036a0cb6b0254c3532739f,2021-07-29_19h58.29.887,Simcolourproject_2stim_asymm_v5,2020.2.10,Win32,60,61025ae37ef11b136ea224fe,,,,,,,,,177,39,58,1,0,0,response1disk,,7,11,7,1,0,0,rectangle,11,7,1,0,0,11,7,1,0,0,0,21,21,38,1,,,,,,,,
,,,,,,,,,,,,,FF,,,,,,,,1.0731,,,,,,,,,,,,,,,,,,,,,,610237c272f68683ee0ae662,61036a0cb6b0254c3532739f,2021-07-29_19h58.29.887,Simcolourproject_2stim_asymm_v5,2020.2.10,Win32,60,61025ae37ef11b136ea224fe,,,,,,,,,2755,42,69,1,0,0,response1disk,,7,8,-7,1,0,0,rectangle,8,-7,1,0,0,8,-7,1,0,0,0,22,22,104,1,,,,,,,,
,,,,,,,,,,,,,FF,,,,,,,,0.9844,,,,,,,,,,,,,,,,,,,,,,610237c272f68683ee0ae662,61036a0cb6b0254c3532739f,2021-07-29_19h58.29.887,Simcolourproject_2stim_asymm_v5,2020.2.10,Win32,60,61025ae37ef11b136ea224fe,,,,,,,,,3729,31,73,1,0,0,response1disk,,7,-1,-13,1,0,0,rectangle,-1,-13,1,0,0,-1,-13,1,0,0,0,23,23,39,1,,,,,,,,
,,,,,,,,,,,,,FF,,,,,,,,1.6673,,,,,,,,,,,,,,,,,,,,,,610237c272f68683ee0ae662,61036a0cb6b0254c3532739f,2021-07-29_19h58.29.887,Simcolourproject_2stim_asymm_v5,2020.2.10,Win32,60,61025ae37ef11b136ea224fe,,,,,,,,,2495,72,32,1,0,0,response1disk,,6,-1,0,1,0,0,rectangle,-1,0,1,0,0,-1,0,1,0,0,0,24,24,138,1,,,,,,,,
,,,,,,,,,,,,,FF,,,,,,,,2.8182,,,,,,,,,,,,,,,,,,,,,,610237c272f68683ee0ae662,61036a0cb6b0254c3532739f,2021-07-29_19h58.29.887,Simcolourproject_2stim_asymm_v5,2020.2.10,Win32,60,61025ae37ef11b136ea224fe,,,,,,,,,3302,63,33,1,0,0,response1disk,,6,-8,-2,1,0,0,rectangle,-8,-2,1,0,0,-8,-2,1,0,0,0,25,25,159,1,,,,,,,,
,,,,,,,,,,,,,FF,,,,,,,,0.9196,,,,,,,,,,,,,,,,,,,,,,610237c272f68683ee0ae662,61036a0cb6b0254c3532739f,2021-07-29_19h58.29.887,Simcolourproject_2stim_asymm_v5,2020.2.10,Win32,60,61025ae37ef11b136ea224fe,,,,,,,,,219,45,88,1,0,0,response1disk,,7,4,2,1,0,0,rectangle,4,2,1,0,0,4,2,1,0,0,0,26,26,82,1,,,,,,,,
,,,,,,,,,,,,,FF,,,,,,,,0.8576,,,,,,,,,,,,,,,,,,,,,,610237c272f68683ee0ae662,61036a0cb6b0254c3532739f,2021-07-29_19h58.29.887,Simcolourproject_2stim_asymm_v5,2020.2.10,Win32,60,61025ae37ef11b136ea224fe,,,,,,,,,109,41,65,1,0,0,response1disk,,7,-5,0,1,0,0,rectangle,-5,0,1,0,0,-5,0,1,0,0,0,27,27,130,1,,,,,,,,
,,,,,,,,,,,,,FF,,,,,,,,1.8666,,,,,,,,,,,,,,,,,,,,,,610237c272f68683ee0ae662,61036a0cb6b0254c3532739f,2021-07-29_19h58.29.887,Simcolourproject_2stim_asymm_v5,2020.2.10,Win32,60,61025ae37ef11b136ea224fe,,,,,,,,,2593,99,36,1,0,0,response1disk,,6,5,0,1,0,0,rectangle,5,0,1,0,0,5,0,1,0,0,0,28,28,23,1,,,,,,,,
,,,,,,,,,,,,,FF,,,,,,,,0.6834,,,,,,,,,,,,,,,,,,,,,,610237c272f68683ee0ae662,61036a0cb6b0254c3532739f,2021-07-29_19h58.29.887,Simcolourproject_2stim_asymm_v5,2020.2.10,Win32,60,61025ae37ef11b136ea224fe,,,,,,,,,2215,32,65,1,0,0,response1disk,,7,8,3,1,0,0,rectangle,8,3,1,0,0,8,3,1,0,0,0,29,29,119,1,,,,,,,,
,,,,,,,,,,,,,FF,,,,,,,,1.5849,,,,,,,,,,,,,,,,,,,,,,610237c272f68683ee0ae662,61036a0cb6b0254c3532739f,2021-07-29_19h58.29.887,Simcolourproject_2stim_asymm_v5,2020.2.10,Win32,60,61025ae37ef11b136ea224fe,,,,,,,,,2291,-36,83,1,0,0,response7disk,,0,0,2,1,0,0,rectangle,0,2,1,0,0,0,2,1,0,0,0,30,30,56,1,,,,,,,,
,,,,,,,,,,,,,FF,,,,,,,,1.2504,,,,,,,,,,,,,,,,,,,,,,610237c272f68683ee0ae662,61036a0cb6b0254c3532739f,2021-07-29_19h58.29.887,Simcolourproject_2stim_asymm_v5,2020.2.10,Win32,60,61025ae37ef11b136ea224fe,,,,,,,,,1576,38,74,1,0,0,response1disk,,7,7,-2,1,0,0,rectangle,7,-2,1,0,0,7,-2,1,0,0,0,31,31,21,1,,,,,,,,
,,,,,,,,,,,,,FF,,,,,,,,2.2969,,,,,,,,,,,,,,,,,,,,,,610237c272f68683ee0ae662,61036a0cb6b0254c3532739f,2021-07-29_19h58.29.887,Simcolourproject_2stim_asymm_v5,2020.2.10,Win32,60,61025ae37ef11b136ea224fe,,,,,,,,,2681,27,92,1,0,0,response1disk,,7,23,-12,1,0,0,rectangle,23,-12,1,0,0,23,-12,1,0,0,0,32,32,150,1,,,,,,,,
,,,,,,,,,,,,,FF,,,,,,,,0.9171,,,,,,,,,,,,,,,,,,,,,,610237c272f68683ee0ae662,61036a0cb6b0254c3532739f,2021-07-29_19h58.29.887,Simcolourproject_2stim_asymm_v5,2020.2.10,Win32,60,61025ae37ef11b136ea224fe,,,,,,,,,4309,36,76,1,0,0,response1disk,,7,-9,2,1,0,0,rectangle,-9,2,1,0,0,-9,2,1,0,0,0,33,33,148,1,,,,,,,,
,,,,,,,,,,,,,FF,,,,,,,,0.7513,,,,,,,,,,,,,,,,,,,,,,610237c272f68683ee0ae662,61036a0cb6b0254c3532739f,2021-07-29_19h58.29.887,Simcolourproject_2stim_asymm_v5,2020.2.10,Win32,60,61025ae37ef11b136ea224fe,,,,,,,,,2159,35,56,1,0,0,response1disk,,7,-14,-11,1,0,0,rectangle,-14,-11,1,0,0,-14,-11,1,0,0,0,34,34,85,1,,,,,,,,
,,,,,,,,,,,,,FF,,,,,,,,1.1552,,,,,,,,,,,,,,,,,,,,,,610237c272f68683ee0ae662,61036a0cb6b0254c3532739f,2021-07-29_19h58.29.887,Simcolourproject_2stim_asymm_v5,2020.2.10,Win32,60,61025ae37ef11b136ea224fe,,,,,,,,,787,66,25,1,0,0,response1disk,,6,5,-2,1,0,0,rectangle,5,-2,1,0,0,5,-2,1,0,0,0,35,35,41,1,,,,,,,,
,,,,,,,,,,,,,FF,,,,,,,,0.6511,,,,,,,,,,,,,,,,,,,,,,610237c272f68683ee0ae662,61036a0cb6b0254c3532739f,2021-07-29_19h58.29.887,Simcolourproject_2stim_asymm_v5,2020.2.10,Win32,60,61025ae37ef11b136ea224fe,,,,,,,,,3453,51,88,1,0,0,response1disk,,7,9,6,1,0,0,rectangle,9,6,1,0,0,9,6,1,0,0,0,36,36,19,1,,,,,,,,
,,,,,,,,,,,,,FF,,,,,,,,1.9336,,,,,,,,,,,,,,,,,,,,,,610237c272f68683ee0ae662,61036a0cb6b0254c3532739f,2021-07-29_19h58.29.887,Simcolourproject_2stim_asymm_v5,2020.2.10,Win32,60,61025ae37ef11b136ea224fe,,,,,,,,,1135,68,25,1,0,0,response1disk,,6,11,-3,1,0,0,rectangle,27,-80,1,0,0,7,0,1,0,0,0,37,37,13,1,,response3disk_3,TRUE,4,4,"[217,115,160,75,15,306,88,107,91,56,38,206,166,50,47,314,238,216,288,110]",2.4318,rectangle
,,,,,,,,,,,,,FF,,,,,,,,0.8006,,,,,,,,,,,,,,,,,,,,,,610237c272f68683ee0ae662,61036a0cb6b0254c3532739f,2021-07-29_19h58.29.887,Simcolourproject_2stim_asymm_v5,2020.2.10,Win32,60,61025ae37ef11b136ea224fe,,,,,,,,,4172,43,81,1,0,0,response1disk,,7,7,-3,1,0,0,rectangle,7,-3,1,0,0,7,-3,1,0,0,0,38,38,26,1,,,,,,,,
,,,,,,,,,,,,,FF,,,,,,,,1.2188,,,,,,,,,,,,,,,,,,,,,,610237c272f68683ee0ae662,61036a0cb6b0254c3532739f,2021-07-29_19h58.29.887,Simcolourproject_2stim_asymm_v5,2020.2.10,Win32,60,61025ae37ef11b136ea224fe,,,,,,,,,2782,-27,79,1,0,0,response7disk,,0,24,-2,1,0,0,rectangle,24,-2,1,0,0,24,-2,1,0,0,0,39,39,22,1,,,,,,,,
,,,,,,,,,,,,,FF,,,,,,,,1.169,,,,,,,,,,,,,,,,,,,,,,610237c272f68683ee0ae662,61036a0cb6b0254c3532739f,2021-07-29_19h58.29.887,Simcolourproject_2stim_asymm_v5,2020.2.10,Win32,60,61025ae37ef11b136ea224fe,,,,,,,,,4179,33,74,1,0,0,response1disk,,7,-6,-2,1,0,0,rectangle,-6,-2,1,0,0,-6,-2,1,0,0,0,40,40,9,1,,,,,,,,
,,,,,,,,,,,,,FF,,,,,,,,0.6339,,,,,,,,,,,,,,,,,,,,,,610237c272f68683ee0ae662,61036a0cb6b0254c3532739f,2021-07-29_19h58.29.887,Simcolourproject_2stim_asymm_v5,2020.2.10,Win32,60,61025ae37ef11b136ea224fe,,,,,,,,,843,32,77,1,0,0,response1disk,,7,4,-7,1,0,0,rectangle,4,-7,1,0,0,4,-7,1,0,0,0,41,41,33,1,,,,,,,,
,,,,,,,,,,,,,FF,,,,,,,,0.9108,,,,,,,,,,,,,,,,,,,,,,610237c272f68683ee0ae662,61036a0cb6b0254c3532739f,2021-07-29_19h58.29.887,Simcolourproject_2stim_asymm_v5,2020.2.10,Win32,60,61025ae37ef11b136ea224fe,,,,,,,,,449,41,59,1,0,0,response1disk,,7,17,8,1,0,0,rectangle,17,8,1,0,0,17,8,1,0,0,0,42,42,15,1,,,,,,,,
,,,,,,,,,,,,,FF,,,,,,,,2.8666,,,,,,,,,,,,,,,,,,,,,,610237c272f68683ee0ae662,61036a0cb6b0254c3532739f,2021-07-29_19h58.29.887,Simcolourproject_2stim_asymm_v5,2020.2.10,Win32,60,61025ae37ef11b136ea224fe,,,,,,,,,1165,38,-62,1,0,0,response3disk,,4,5,-5,1,0,0,rectangle,5,-5,1,0,0,5,-5,1,0,0,0,43,43,2,1,,,,,,,,
,,,,,,,,,,,,,FF,,,,,,,,0.6333,,,,,,,,,,,,,,,,,,,,,,610237c272f68683ee0ae662,61036a0cb6b0254c3532739f,2021-07-29_19h58.29.887,Simcolourproject_2stim_asymm_v5,2020.2.10,Win32,60,61025ae37ef11b136ea224fe,,,,,,,,,2500,36,71,1,0,0,response1disk,,7,3,5,1,0,0,rectangle,3,5,1,0,0,3,5,1,0,0,0,44,44,90,1,,,,,,,,
,,,,,,,,,,,,,FF,,,,,,,,0.5518,,,,,,,,,,,,,,,,,,,,,,610237c272f68683ee0ae662,61036a0cb6b0254c3532739f,2021-07-29_19h58.29.887,Simcolourproject_2stim_asymm_v5,2020.2.10,Win32,60,61025ae37ef11b136ea224fe,,,,,,,,,2340,46,79,1,0,0,response1disk,,7,15,-7,1,0,0,rectangle,15,-7,1,0,0,15,-7,1,0,0,0,45,45,52,1,,,,,,,,
,,,,,,,,,,,,,FF,,,,,,,,1.4184,,,,,,,,,,,,,,,,,,,,,,610237c272f68683ee0ae662,61036a0cb6b0254c3532739f,2021-07-29_19h58.29.887,Simcolourproject_2stim_asymm_v5,2020.2.10,Win32,60,61025ae37ef11b136ea224fe,,,,,,,,,2964,30,92,1,0,0,response1disk,,7,-22,5,1,0,0,rectangle,-29,67,1,0,0,0,-2,1,0,0,0,46,46,67,1,,response7disk_3,TRUE,0,0,"[217,115,160,75,15,306,88,107,91,56,38,206,166,50,47,314,238,216,288,110]",1.3492,rectangle
,,,,,,,,,,,,,FF,,,,,,,,2.9574,,,,,,,,,,,,,,,,,,,,,,610237c272f68683ee0ae662,61036a0cb6b0254c3532739f,2021-07-29_19h58.29.887,Simcolourproject_2stim_asymm_v5,2020.2.10,Win32,60,61025ae37ef11b136ea224fe,,,,,,,,,3944,-28,-69,1,0,0,response5disk,,3,-3,0,1,0,0,rectangle,-3,0,1,0,0,-3,0,1,0,0,0,47,47,32,1,,,,,,,,
,,,,,,,,,,,,,FF,,,,,,,,1.8999,,,,,,,,,,,,,,,,,,,,,,610237c272f68683ee0ae662,61036a0cb6b0254c3532739f,2021-07-29_19h58.29.887,Simcolourproject_2stim_asymm_v5,2020.2.10,Win32,60,61025ae37ef11b136ea224fe,,,,,,,,,549,-68,29,1,0,0,response7disk,,1,-6,6,1,0,0,rectangle,-6,6,1,0,0,-6,6,1,0,0,0,48,48,94,1,,,,,,,,
,,,,,,,,,,,,,FF,,,,,,,,2.2502,,,,,,,,,,,,,,,,,,,,,,610237c272f68683ee0ae662,61036a0cb6b0254c3532739f,2021-07-29_19h58.29.887,Simcolourproject_2stim_asymm_v5,2020.2.10,Win32,60,61025ae37ef11b136ea224fe,,,,,,,,,259,-43,-74,1,0,0,response5disk,,3,10,-3,1,0,0,rectangle,37,-56,1,0,0,4,11,1,0,0,0,49,49,40,1,,response3disk_3,TRUE,4,4,"[217,115,160,75,15,306,88,107,91,56,38,206,166,50,47,314,238,216,288,110]",1.6651,rectangle
,,,,,,,,,,,,,FF,,,,,,,,0.6507,,,,,,,,,,,,,,,,,,,,,,610237c272f68683ee0ae662,61036a0cb6b0254c3532739f,2021-07-29_19h58.29.887,Simcolourproject_2stim_asymm_v5,2020.2.10,Win32,60,61025ae37ef11b136ea224fe,,,,,,,,,4212,33,90,1,0,0,response1disk,,7,-2,-4,1,0,0,rectangle,-2,-4,1,0,0,-2,-4,1,0,0,0,50,50,101,1,,,,,,,,
,,,,,,,,,,,,,FF,,,,,,,,0.7511,,,,,,,,,,,,,,,,,,,,,,610237c272f68683ee0ae662,61036a0cb6b0254c3532739f,2021-07-29_19h58.29.887,Simcolourproject_2stim_asymm_v5,2020.2.10,Win32,60,61025ae37ef11b136ea224fe,,,,,,,,,2071,42,80,1,0,0,response1disk,,7,-4,4,1,0,0,rectangle,-4,4,1,0,0,-4,4,1,0,0,0,51,51,95,1,,,,,,,,
,,,,,,,,,,,,,FF,,,,,,,,1.0225,,,,,,,,,,,,,,,,,,,,,,610237c272f68683ee0ae662,61036a0cb6b0254c3532739f,2021-07-29_19h58.29.887,Simcolourproject_2stim_asymm_v5,2020.2.10,Win32,60,61025ae37ef11b136ea224fe,,,,,,,,,2005,42,90,1,0,0,response1disk,,7,-2,1,1,0,0,rectangle,-2,1,1,0,0,-2,1,1,0,0,0,52,52,35,1,,,,,,,,
,,,,,,,,,,,,,FF,,,,,,,,0.6442,,,,,,,,,,,,,,,,,,,,,,610237c272f68683ee0ae662,61036a0cb6b0254c3532739f,2021-07-29_19h58.29.887,Simcolourproject_2stim_asymm_v5,2020.2.10,Win32,60,61025ae37ef11b136ea224fe,,,,,,,,,1512,50,84,1,0,0,response1disk,,7,7,10,1,0,0,rectangle,7,10,1,0,0,7,10,1,0,0,0,53,53,151,1,,,,,,,,
,,,,,,,,,,,,,FF,,,,,,,,0.7186,,,,,,,,,,,,,,,,,,,,,,610237c272f68683ee0ae662,61036a0cb6b0254c3532739f,2021-07-29_19h58.29.887,Simcolourproject_2stim_asymm_v5,2020.2.10,Win32,60,61025ae37ef11b136ea224fe,,,,,,,,,2391,26,84,1,0,0,response1disk,,7,3,4,1,0,0,rectangle,3,4,1,0,0,3,4,1,0,0,0,54,54,102,1,,,,,,,,
,,,,,,,,,,,,,FF,,,,,,,,0.5168,,,,,,,,,,,,,,,,,,,,,,610237c272f68683ee0ae662,61036a0cb6b0254c3532739f,2021-07-29_19h58.29.887,Simcolourproject_2stim_asymm_v5,2020.2.10,Win32,60,61025ae37ef11b136ea224fe,,,,,,,,,2506,30,81,1,0,0,response1disk,,7,-12,-1,1,0,0,rectangle,88,28,1,0,0,10,4,1,0,0,0,55,55,10,1,,response1disk_3,TRUE,6,6,"[217,115,160,75,15,306,88,107,91,56,38,206,166,50,47,314,238,216,288,110]",1.7381,rectangle
,,,,,,,,,,,,,FF,,,,,,,,1.9169,,,,,,,,,,,,,,,,,,,,,,610237c272f68683ee0ae662,61036a0cb6b0254c3532739f,2021-07-29_19h58.29.887,Simcolourproject_2stim_asymm_v5,2020.2.10,Win32,60,61025ae37ef11b136ea224fe,,,,,,,,,925,44,67,1,0,0,response1disk,,7,-6,14,1,0,0,rectangle,-6,14,1,0,0,-6,14,1,0,0,0,56,56,30,1,,,,,,,,
,,,,,,,,,,,,,FF,,,,,,,,2.017,,,,,,,,,,,,,,,,,,,,,,610237c272f68683ee0ae662,61036a0cb6b0254c3532739f,2021-07-29_19h58.29.887,Simcolourproject_2stim_asymm_v5,2020.2.10,Win32,60,61025ae37ef11b136ea224fe,,,,,,,,,3350,-74,-47,1,0,0,response5disk,,2,-5,-6,1,0,0,rectangle,-5,-6,1,0,0,-5,-6,1,0,0,0,57,57,14,1,,,,,,,,
,,,,,,,,,,,,,FF,,,,,,,,0.7336,,,,,,,,,,,,,,,,,,,,,,610237c272f68683ee0ae662,61036a0cb6b0254c3532739f,2021-07-29_19h58.29.887,Simcolourproject_2stim_asymm_v5,2020.2.10,Win32,60,61025ae37ef11b136ea224fe,,,,,,,,,3685,37,71,1,0,0,response1disk,,7,-3,-6,1,0,0,rectangle,-3,-6,1,0,0,-3,-6,1,0,0,0,58,58,89,1,,,,,,,,
,,,,,,,,,,,,,FF,,,,,,,,0.5681,,,,,,,,,,,,,,,,,,,,,,610237c272f68683ee0ae662,61036a0cb6b0254c3532739f,2021-07-29_19h58.29.887,Simcolourproject_2stim_asymm_v5,2020.2.10,Win32,60,61025ae37ef11b136ea224fe,,,,,,,,,1190,30,68,1,0,0,response1disk,,7,-8,3,1,0,0,rectangle,-8,3,1,0,0,-8,3,1,0,0,0,59,59,12,1,,,,,,,,
,,,,,,,,,,,,,FF,,,,,,,,0.8354,,,,,,,,,,,,,,,,,,,,,,610237c272f68683ee0ae662,61036a0cb6b0254c3532739f,2021-07-29_19h58.29.887,Simcolourproject_2stim_asymm_v5,2020.2.10,Win32,60,61025ae37ef11b136ea224fe,,,,,,,,,3271,31,64,1,0,0,response1disk,,7,-4,7,1,0,0,rectangle,-4,7,1,0,0,-4,7,1,0,0,0,60,60,149,1,,,,,,,,
,,,,,,,,,,,,,FF,,,,,,,,0.9704,,,,,,,,,,,,,,,,,,,,,,610237c272f68683ee0ae662,61036a0cb6b0254c3532739f,2021-07-29_19h58.29.887,Simcolourproject_2stim_asymm_v5,2020.2.10,Win32,60,61025ae37ef11b136ea224fe,,,,,,,,,1099,43,70,1,0,0,response1disk,,7,2,0,1,0,0,rectangle,2,0,1,0,0,2,0,1,0,0,0,61,61,143,1,,,,,,,,
,,,,,,,,,,,,,FF,,,,,,,,1.6307,,,,,,,,,,,,,,,,,,,,,,610237c272f68683ee0ae662,61036a0cb6b0254c3532739f,2021-07-29_19h58.29.887,Simcolourproject_2stim_asymm_v5,2020.2.10,Win32,60,61025ae37ef11b136ea224fe,,,,,,,,,2168,24,-62,1,0,0,response3disk,,4,-5,-7,1,0,0,rectangle,-5,-7,1,0,0,-5,-7,1,0,0,0,62,62,137,1,,,,,,,,
,,,,,,,,,,,,,FF,,,,,,,,3.2346,,,,,,,,,,,,,,,,,,,,,,610237c272f68683ee0ae662,61036a0cb6b0254c3532739f,2021-07-29_19h58.29.887,Simcolourproject_2stim_asymm_v5,2020.2.10,Win32,60,61025ae37ef11b136ea224fe,,,,,,,,,1682,-90,25,1,0,0,response7disk,,1,1,-3,1,0,0,rectangle,1,-3,1,0,0,1,-3,1,0,0,0,63,63,107,1,,,,,,,,
,,,,,,,,,,,,,FF,,,,,,,,0.6445,,,,,,,,,,,,,,,,,,,,,,610237c272f68683ee0ae662,61036a0cb6b0254c3532739f,2021-07-29_19h58.29.887,Simcolourproject_2stim_asymm_v5,2020.2.10,Win32,60,61025ae37ef11b136ea224fe,,,,,,,,,452,38,64,1,0,0,response1disk,,7,-17,-1,1,0,0,rectangle,-17,-1,1,0,0,-17,-1,1,0,0,0,64,64,142,1,,,,,,,,
,,,,,,,,,,,,,FF,,,,,,,,1.3172,,,,,,,,,,,,,,,,,,,,,,610237c272f68683ee0ae662,61036a0cb6b0254c3532739f,2021-07-29_19h58.29.887,Simcolourproject_2stim_asymm_v5,2020.2.10,Win32,60,61025ae37ef11b136ea224fe,,,,,,,,,2535,29,77,1,0,0,response1disk,,7,13,4,1,0,0,rectangle,13,4,1,0,0,13,4,1,0,0,0,65,65,42,1,,,,,,,,
,,,,,,,,,,,,,FF,,,,,,,,0.4669,,,,,,,,,,,,,,,,,,,,,,610237c272f68683ee0ae662,61036a0cb6b0254c3532739f,2021-07-29_19h58.29.887,Simcolourproject_2stim_asymm_v5,2020.2.10,Win32,60,61025ae37ef11b136ea224fe,,,,,,,,,1164,36,63,1,0,0,response1disk,,7,1,0,1,0,0,rectangle,1,0,1,0,0,1,0,1,0,0,0,66,66,20,1,,,,,,,,
,,,,,,,,,,,,,FF,,,,,,,,2.7846,,,,,,,,,,,,,,,,,,,,,,610237c272f68683ee0ae662,61036a0cb6b0254c3532739f,2021-07-29_19h58.29.887,Simcolourproject_2stim_asymm_v5,2020.2.10,Win32,60,61025ae37ef11b136ea224fe,,,,,,,,,1894,-81,15,1,0,0,response7disk,,1,-3,4,1,0,0,rectangle,-3,4,1,0,0,-3,4,1,0,0,0,67,67,144,1,,,,,,,,
,,,,,,,,,,,,,FF,,,,,,,,0.7503,,,,,,,,,,,,,,,,,,,,,,610237c272f68683ee0ae662,61036a0cb6b0254c3532739f,2021-07-29_19h58.29.887,Simcolourproject_2stim_asymm_v5,2020.2.10,Win32,60,61025ae37ef11b136ea224fe,,,,,,,,,4134,50,67,1,0,0,response1disk,,7,-5,2,1,0,0,rectangle,-5,2,1,0,0,-5,2,1,0,0,0,68,68,51,1,,,,,,,,
,,,,,,,,,,,,,FF,,,,,,,,0.6872,,,,,,,,,,,,,,,,,,,,,,610237c272f68683ee0ae662,61036a0cb6b0254c3532739f,2021-07-29_19h58.29.887,Simcolourproject_2stim_asymm_v5,2020.2.10,Win32,60,61025ae37ef11b136ea224fe,,,,,,,,,3221,36,77,1,0,0,response1disk,,7,9,0,1,0,0,rectangle,9,0,1,0,0,9,0,1,0,0,0,69,69,69,1,,,,,,,,
,,,,,,,,,,,,,FF,,,,,,,,0.5992,,,,,,,,,,,,,,,,,,,,,,610237c272f68683ee0ae662,61036a0cb6b0254c3532739f,2021-07-29_19h58.29.887,Simcolourproject_2stim_asymm_v5,2020.2.10,Win32,60,61025ae37ef11b136ea224fe,,,,,,,,,218,34,84,1,0,0,response1disk,,7,12,4,1,0,0,rectangle,12,4,1,0,0,12,4,1,0,0,0,70,70,8,1,,,,,,,,
,,,,,,,,,,,,,FF,,,,,,,,1.4204,,,,,,,,,,,,,,,,,,,,,,610237c272f68683ee0ae662,61036a0cb6b0254c3532739f,2021-07-29_19h58.29.887,Simcolourproject_2stim_asymm_v5,2020.2.10,Win32,60,61025ae37ef11b136ea224fe,,,,,,,,,850,36,85,1,0,0,response1disk,,7,-11,-4,1,0,0,rectangle,-11,-4,1,0,0,-11,-4,1,0,0,0,71,71,5,1,,,,,,,,
,,,,,,,,,,,,,FF,,,,,,,,0.8987,,,,,,,,,,,,,,,,,,,,,,610237c272f68683ee0ae662,61036a0cb6b0254c3532739f,2021-07-29_19h58.29.887,Simcolourproject_2stim_asymm_v5,2020.2.10,Win32,60,61025ae37ef11b136ea224fe,,,,,,,,,257,24,62,1,0,0,response1disk,,7,3,3,1,0,0,rectangle,3,3,1,0,0,3,3,1,0,0,0,72,72,156,1,,,,,,,,
,,,,,,,,,,,,,FF,,,,,,,,0.5828,,,,,,,,,,,,,,,,,,,,,,610237c272f68683ee0ae662,61036a0cb6b0254c3532739f,2021-07-29_19h58.29.887,Simcolourproject_2stim_asymm_v5,2020.2.10,Win32,60,61025ae37ef11b136ea224fe,,,,,,,,,667,44,72,1,0,0,response1disk,,7,3,1,1,0,0,rectangle,3,1,1,0,0,3,1,1,0,0,0,73,73,37,1,,,,,,,,
,,,,,,,,,,,,,FF,,,,,,,,0.6484,,,,,,,,,,,,,,,,,,,,,,610237c272f68683ee0ae662,61036a0cb6b0254c3532739f,2021-07-29_19h58.29.887,Simcolourproject_2stim_asymm_v5,2020.2.10,Win32,60,61025ae37ef11b136ea224fe,,,,,,,,,3796,39,71,1,0,0,response1disk,,7,7,1,1,0,0,rectangle,-66,-32,1,0,0,-8,2,1,0,0,0,74,74,3,1,,response5disk_3,TRUE,2,2,"[217,115,160,75,15,306,88,107,91,56,38,206,166,50,47,314,238,216,288,110]",1.7532,rectangle
,,,,,,,,,,,,,FF,,,,,,,,3.0327,,,,,,,,,,,,,,,,,,,,,,610237c272f68683ee0ae662,61036a0cb6b0254c3532739f,2021-07-29_19h58.29.887,Simcolourproject_2stim_asymm_v5,2020.2.10,Win32,60,61025ae37ef11b136ea224fe,,,,,,,,,3206,73,37,1,0,0,response1disk,,6,6,-1,1,0,0,rectangle,6,-1,1,0,0,6,-1,1,0,0,0,75,75,80,1,,,,,,,,
,,,,,,,,,,,,,FF,,,,,,,,0.6015,,,,,,,,,,,,,,,,,,,,,,610237c272f68683ee0ae662,61036a0cb6b0254c3532739f,2021-07-29_19h58.29.887,Simcolourproject_2stim_asymm_v5,2020.2.10,Win32,60,61025ae37ef11b136ea224fe,,,,,,,,,2524,37,53,1,0,0,response1disk,,7,11,10,1,0,0,rectangle,11,10,1,0,0,11,10,1,0,0,0,76,76,157,1,,,,,,,,
,,,,,,,,,,,,,FF,,,,,,,,1.5495,,,,,,,,,,,,,,,,,,,,,,610237c272f68683ee0ae662,61036a0cb6b0254c3532739f,2021-07-29_19h58.29.887,Simcolourproject_2stim_asymm_v5,2020.2.10,Win32,60,61025ae37ef11b136ea224fe,,,,,,,,,2837,30,-60,1,0,0,response3disk,,4,0,0,1,0,0,rectangle,0,0,1,0,0,0,0,1,0,0,0,77,77,87,1,,,,,,,,
,,,,,,,,,,,,,FF,,,,,,,,0.7002,,,,,,,,,,,,,,,,,,,,,,610237c272f68683ee0ae662,61036a0cb6b0254c3532739f,2021-07-29_19h58.29.887,Simcolourproject_2stim_asymm_v5,2020.2.10,Win32,60,61025ae37ef11b136ea224fe,,,,,,,,,2320,21,75,1,0,0,response1disk,,7,0,7,1,0,0,rectangle,0,7,1,0,0,0,7,1,0,0,0,78,78,131,1,,,,,,,,
,,,,,,,,,,,,,FF,,,,,,,,4.0939,,,,,,,,,,,,,,,,,,,,,,610237c272f68683ee0ae662,61036a0cb6b0254c3532739f,2021-07-29_19h58.29.887,Simcolourproject_2stim_asymm_v5,2020.2.10,Win32,60,61025ae37ef11b136ea224fe,,,,,,,,,1874,42,92,1,0,0,response1disk,,7,2,-7,1,0,0,rectangle,2,-7,1,0,0,2,-7,1,0,0,0,79,79,71,1,,,,,,,,
,,,,,,,,,,,,,FF,,,,,,,,0.9509,,,,,,,,,,,,,,,,,,,,,,610237c272f68683ee0ae662,61036a0cb6b0254c3532739f,2021-07-29_19h58.29.887,Simcolourproject_2stim_asymm_v5,2020.2.10,Win32,60,61025ae37ef11b136ea224fe,,,,,,,,,1183,44,77,1,0,0,response1disk,,7,4,1,1,0,0,rectangle,4,1,1,0,0,4,1,1,0,0,0,80,80,16,1,,,,,,,,
,,,,,,,,,,,,,FF,,,,,,,,1.9412,,,,,,,,,,,,,,,,,,,,,,610237c272f68683ee0ae662,61036a0cb6b0254c3532739f,2021-07-29_19h58.29.887,Simcolourproject_2stim_asymm_v5,2020.2.10,Win32,60,61025ae37ef11b136ea224fe,,,,,,,,,721,-59,-44,1,0,0,response5disk,,2,-9,6,1,0,0,rectangle,-9,6,1,0,0,-9,6,1,0,0,0,81,81,29,1,,,,,,,,
,,,,,,,,,,,,,FF,,,,,,,,0.6166,,,,,,,,,,,,,,,,,,,,,,610237c272f68683ee0ae662,61036a0cb6b0254c3532739f,2021-07-29_19h58.29.887,Simcolourproject_2stim_asymm_v5,2020.2.10,Win32,60,61025ae37ef11b136ea224fe,,,,,,,,,1156,39,68,1,0,0,response1disk,,7,2,-3,1,0,0,rectangle,2,-3,1,0,0,2,-3,1,0,0,0,82,82,154,1,,,,,,,,
,,,,,,,,,,,,,FF,,,,,,,,0.5335,,,,,,,,,,,,,,,,,,,,,,610237c272f68683ee0ae662,61036a0cb6b0254c3532739f,2021-07-29_19h58.29.887,Simcolourproject_2stim_asymm_v5,2020.2.10,Win32,60,61025ae37ef11b136ea224fe,,,,,,,,,3740,38,96,1,0,0,response1disk,,7,0,-2,1,0,0,rectangle,0,-2,1,0,0,0,-2,1,0,0,0,83,83,72,1,,,,,,,,
,,,,,,,,,,,,,FF,,,,,,,,0.5351,,,,,,,,,,,,,,,,,,,,,,610237c272f68683ee0ae662,61036a0cb6b0254c3532739f,2021-07-29_19h58.29.887,Simcolourproject_2stim_asymm_v5,2020.2.10,Win32,60,61025ae37ef11b136ea224fe,,,,,,,,,554,37,72,1,0,0,response1disk,,7,0,-8,1,0,0,rectangle,0,-8,1,0,0,0,-8,1,0,0,0,84,84,83,1,,,,,,,,
,,,,,,,,,,,,,FF,,,,,,,,1.5555,,,,,,,,,,,,,,,,,,,,,,610237c272f68683ee0ae662,61036a0cb6b0254c3532739f,2021-07-29_19h58.29.887,Simcolourproject_2stim_asymm_v5,2020.2.10,Win32,60,61025ae37ef11b136ea224fe,,,,,,,,,552,34,-75,1,0,0,response3disk,,4,-6,0,1,0,0,rectangle,-6,0,1,0,0,-6,0,1,0,0,0,85,85,116,1,,,,,,,,
,,,,,,,,,,,,,FF,,,,,,,,0.5669,,,,,,,,,,,,,,,,,,,,,,610237c272f68683ee0ae662,61036a0cb6b0254c3532739f,2021-07-29_19h58.29.887,Simcolourproject_2stim_asymm_v5,2020.2.10,Win32,60,61025ae37ef11b136ea224fe,,,,,,,,,2109,35,74,1,0,0,response1disk,,7,10,4,1,0,0,rectangle,10,4,1,0,0,10,4,1,0,0,0,86,86,49,1,,,,,,,,
,,,,,,,,,,,,,FF,,,,,,,,0.628,,,,,,,,,,,,,,,,,,,,,,610237c272f68683ee0ae662,61036a0cb6b0254c3532739f,2021-07-29_19h58.29.887,Simcolourproject_2stim_asymm_v5,2020.2.10,Win32,60,61025ae37ef11b136ea224fe,,,,,,,,,2840,28,59,1,0,0,response1disk,,7,8,-3,1,0,0,rectangle,-77,40,1,0,0,-8,3,1,0,0,0,87,87,141,1,,response7disk_3,TRUE,1,1,"[217,115,160,75,15,306,88,107,91,56,38,206,166,50,47,314,238,216,288,110]",1.3935,rectangle
,,,,,,,,,,,,,FF,,,,,,,,1.8175,,,,,,,,,,,,,,,,,,,,,,610237c272f68683ee0ae662,61036a0cb6b0254c3532739f,2021-07-29_19h58.29.887,Simcolourproject_2stim_asymm_v5,2020.2.10,Win32,60,61025ae37ef11b136ea224fe,,,,,,,,,1744,-81,34,1,0,0,response7disk,,1,-4,4,1,0,0,rectangle,-4,4,1,0,0,-4,4,1,0,0,0,88,88,60,1,,,,,,,,
,,,,,,,,,,,,,FF,,,,,,,,1.7678,,,,,,,,,,,,,,,,,,,,,,610237c272f68683ee0ae662,61036a0cb6b0254c3532739f,2021-07-29_19h58.29.887,Simcolourproject_2stim_asymm_v5,2020.2.10,Win32,60,61025ae37ef11b136ea224fe,,,,,,,,,2286,40,71,1,0,0,response1disk,,7,15,-5,1,0,0,rectangle,15,-5,1,0,0,15,-5,1,0,0,0,89,89,31,1,,,,,,,,
,,,,,,,,,,,,,FF,,,,,,,,3.6162,,,,,,,,,,,,,,,,,,,,,,610237c272f68683ee0ae662,61036a0cb6b0254c3532739f,2021-07-29_19h58.29.887,Simcolourproject_2stim_asymm_v5,2020.2.10,Win32,60,61025ae37ef11b136ea224fe,,,,,,,,,263,99,-32,1,0,0,response3disk,,5,8,-2,1,0,0,rectangle,-26,-71,1,0,0,8,10,1,0,0,0,90,90,70,1,,response5disk_3,TRUE,3,3,"[217,115,160,75,15,306,88,107,91,56,38,206,166,50,47,314,238,216,288,110]",1.5809,rectangle
,,,,,,,,,,,,,FF,,,,,,,,1.7157,,,,,,,,,,,,,,,,,,,,,,610237c272f68683ee0ae662,61036a0cb6b0254c3532739f,2021-07-29_19h58.29.887,Simcolourproject_2stim_asymm_v5,2020.2.10,Win32,60,61025ae37ef11b136ea224fe,,,,,,,,,1913,33,86,1,0,0,response1disk,,7,9,0,1,0,0,rectangle,9,0,1,0,0,9,0,1,0,0,0,91,91,129,1,,,,,,,,
,,,,,,,,,,,,,FF,,,,,,,,0.6335,,,,,,,,,,,,,,,,,,,,,,610237c272f68683ee0ae662,61036a0cb6b0254c3532739f,2021-07-29_19h58.29.887,Simcolourproject_2stim_asymm_v5,2020.2.10,Win32,60,61025ae37ef11b136ea224fe,,,,,,,,,4137,37,64,1,0,0,response1disk,,7,11,2,1,0,0,rectangle,11,2,1,0,0,11,2,1,0,0,0,92,92,64,1,,,,,,,,
,,,,,,,,,,,,,FF,,,,,,,,1.6323,,,,,,,,,,,,,,,,,,,,,,610237c272f68683ee0ae662,61036a0cb6b0254c3532739f,2021-07-29_19h58.29.887,Simcolourproject_2stim_asymm_v5,2020.2.10,Win32,60,61025ae37ef11b136ea224fe,,,,,,,,,3868,-48,-70,1,0,0,response5disk,,3,1,-3,1,0,0,rectangle,1,-3,1,0,0,1,-3,1,0,0,0,93,93,48,1,,,,,,,,
,,,,,,,,,,,,,FF,,,,,,,,1.5946,,,,,,,,,,,,,,,,,,,,,,610237c272f68683ee0ae662,61036a0cb6b0254c3532739f,2021-07-29_19h58.29.887,Simcolourproject_2stim_asymm_v5,2020.2.10,Win32,60,61025ae37ef11b136ea224fe,,,,,,,,,6,85,-34,1,0,0,response3disk,,5,-13,7,1,0,0,rectangle,-13,7,1,0,0,-13,7,1,0,0,0,94,94,91,1,,,,,,,,
,,,,,,,,,,,,,FF,,,,,,,,0.6455,,,,,,,,,,,,,,,,,,,,,,610237c272f68683ee0ae662,61036a0cb6b0254c3532739f,2021-07-29_19h58.29.887,Simcolourproject_2stim_asymm_v5,2020.2.10,Win32,60,61025ae37ef11b136ea224fe,,,,,,,,,2754,32,78,1,0,0,response1disk,,7,-6,1,1,0,0,rectangle,-6,1,1,0,0,-6,1,1,0,0,0,95,95,44,1,,,,,,,,
,,,,,,,,,,,,,FF,,,,,,,,0.518,,,,,,,,,,,,,,,,,,,,,,610237c272f68683ee0ae662,61036a0cb6b0254c3532739f,2021-07-29_19h58.29.887,Simcolourproject_2stim_asymm_v5,2020.2.10,Win32,60,61025ae37ef11b136ea224fe,,,,,,,,,1167,35,58,1,0,0,response1disk,,7,2,-1,1,0,0,rectangle,2,-1,1,0,0,2,-1,1,0,0,0,96,96,96,1,,,,,,,,
,,,,,,,,,,,,,FF,,,,,,,,1.2782,,,,,,,,,,,,,,,,,,,,,,610237c272f68683ee0ae662,61036a0cb6b0254c3532739f,2021-07-29_19h58.29.887,Simcolourproject_2stim_asymm_v5,2020.2.10,Win32,60,61025ae37ef11b136ea224fe,,,,,,,,,3162,89,-36,1,0,0,response3disk,,5,3,-8,1,0,0,rectangle,3,-8,1,0,0,3,-8,1,0,0,0,97,97,99,1,,,,,,,,
,,,,,,,,,,,,,FF,,,,,,,,0.7731,,,,,,,,,,,,,,,,,,,,,,610237c272f68683ee0ae662,61036a0cb6b0254c3532739f,2021-07-29_19h58.29.887,Simcolourproject_2stim_asymm_v5,2020.2.10,Win32,60,61025ae37ef11b136ea224fe,,,,,,,,,1780,24,87,1,0,0,response1disk,,7,-12,6,1,0,0,rectangle,-12,6,1,0,0,-12,6,1,0,0,0,98,98,65,1,,,,,,,,
,,,,,,,,,,,,,FF,,,,,,,,0.719,,,,,,,,,,,,,,,,,,,,,,610237c272f68683ee0ae662,61036a0cb6b0254c3532739f,2021-07-29_19h58.29.887,Simcolourproject_2stim_asymm_v5,2020.2.10,Win32,60,61025ae37ef11b136ea224fe,,,,,,,,,1255,31,68,1,0,0,response1disk,,7,1,4,1,0,0,rectangle,1,4,1,0,0,1,4,1,0,0,0,99,99,123,1,,,,,,,,
,,,,,,,,,,,,,FF,,,,,,,,0.5669,,,,,,,,,,,,,,,,,,,,,,610237c272f68683ee0ae662,61036a0cb6b0254c3532739f,2021-07-29_19h58.29.887,Simcolourproject_2stim_asymm_v5,2020.2.10,Win32,60,61025ae37ef11b136ea224fe,,,,,,,,,2157,31,65,1,0,0,response1disk,,7,-14,-3,1,0,0,rectangle,-14,-3,1,0,0,-14,-3,1,0,0,0,100,100,98,1,,,,,,,,
,,,,,,,,,,,,,FF,,,,,,,,1.9503,,,,,,,,,,,,,,,,,,,,,,610237c272f68683ee0ae662,61036a0cb6b0254c3532739f,2021-07-29_19h58.29.887,Simcolourproject_2stim_asymm_v5,2020.2.10,Win32,60,61025ae37ef11b136ea224fe,,,,,,,,,3757,109,45,1,0,0,response1disk,,6,8,-1,1,0,0,rectangle,8,-1,1,0,0,8,-1,1,0,0,0,101,101,110,1,,,,,,,,
,,,,,,,,,,,,,FF,,,,,,,,0.8002,,,,,,,,,,,,,,,,,,,,,,610237c272f68683ee0ae662,61036a0cb6b0254c3532739f,2021-07-29_19h58.29.887,Simcolourproject_2stim_asymm_v5,2020.2.10,Win32,60,61025ae37ef11b136ea224fe,,,,,,,,,3119,41,68,1,0,0,response1disk,,7,-3,-8,1,0,0,rectangle,-3,-8,1,0,0,-3,-8,1,0,0,0,102,102,100,1,,,,,,,,
,,,,,,,,,,,,,FF,,,,,,,,0.7329,,,,,,,,,,,,,,,,,,,,,,610237c272f68683ee0ae662,61036a0cb6b0254c3532739f,2021-07-29_19h58.29.887,Simcolourproject_2stim_asymm_v5,2020.2.10,Win32,60,61025ae37ef11b136ea224fe,,,,,,,,,2117,52,70,1,0,0,response1disk,,7,6,3,1,0,0,rectangle,6,3,1,0,0,6,3,1,0,0,0,103,103,55,1,,,,,,,,
,,,,,,,,,,,,,FF,,,,,,,,0.5176,,,,,,,,,,,,,,,,,,,,,,610237c272f68683ee0ae662,61036a0cb6b0254c3532739f,2021-07-29_19h58.29.887,Simcolourproject_2stim_asymm_v5,2020.2.10,Win32,60,61025ae37ef11b136ea224fe,,,,,,,,,1251,37,55,1,0,0,response1disk,,7,-9,-6,1,0,0,rectangle,-9,-6,1,0,0,-9,-6,1,0,0,0,104,104,84,1,,,,,,,,
,,,,,,,,,,,,,FF,,,,,,,,1.7001,,,,,,,,,,,,,,,,,,,,,,610237c272f68683ee0ae662,61036a0cb6b0254c3532739f,2021-07-29_19h58.29.887,Simcolourproject_2stim_asymm_v5,2020.2.10,Win32,60,61025ae37ef11b136ea224fe,,,,,,,,,1466,-52,-75,1,0,0,response5disk,,3,-9,2,1,0,0,rectangle,-9,2,1,0,0,-9,2,1,0,0,0,105,105,24,1,,,,,,,,
,,,,,,,,,,,,,FF,,,,,,,,0.5402,,,,,,,,,,,,,,,,,,,,,,610237c272f68683ee0ae662,61036a0cb6b0254c3532739f,2021-07-29_19h58.29.887,Simcolourproject_2stim_asymm_v5,2020.2.10,Win32,60,61025ae37ef11b136ea224fe,,,,,,,,,4038,44,66,1,0,0,response1disk,,7,10,-9,1,0,0,rectangle,37,-96,1,0,0,0,1,1,0,0,0,106,106,77,1,,response3disk_3,TRUE,4,4,"[217,115,160,75,15,306,88,107,91,56,38,206,166,50,47,314,238,216,288,110]",3.0657,rectangle
,,,,,,,,,,,,,FF,,,,,,,,1.5007,,,,,,,,,,,,,,,,,,,,,,610237c272f68683ee0ae662,61036a0cb6b0254c3532739f,2021-07-29_19h58.29.887,Simcolourproject_2stim_asymm_v5,2020.2.10,Win32,60,61025ae37ef11b136ea224fe,,,,,,,,,2768,-35,-61,1,0,0,response5disk,,3,-9,3,1,0,0,rectangle,-9,3,1,0,0,-9,3,1,0,0,0,107,107,7,1,,,,,,,,
,,,,,,,,,,,,,FF,,,,,,,,0.7374,,,,,,,,,,,,,,,,,,,,,,610237c272f68683ee0ae662,61036a0cb6b0254c3532739f,2021-07-29_19h58.29.887,Simcolourproject_2stim_asymm_v5,2020.2.10,Win32,60,61025ae37ef11b136ea224fe,,,,,,,,,1015,74,117,1,0,0,response1disk,,7,20,8,1,0,0,rectangle,20,8,1,0,0,20,8,1,0,0,0,108,108,53,1,,,,,,,,
,,,,,,,,,,,,,FF,,,,,,,,1.199,,,,,,,,,,,,,,,,,,,,,,610237c272f68683ee0ae662,61036a0cb6b0254c3532739f,2021-07-29_19h58.29.887,Simcolourproject_2stim_asymm_v5,2020.2.10,Win32,60,61025ae37ef11b136ea224fe,,,,,,,,,1054,-83,32,1,0,0,response7disk,,1,-2,2,1,0,0,rectangle,-44,-77,1,0,0,-5,9,1,0,0,0,109,109,75,1,,response5disk_3,TRUE,3,3,"[217,115,160,75,15,306,88,107,91,56,38,206,166,50,47,314,238,216,288,110]",2.2807,rectangle
,,,,,,,,,,,,,FF,,,,,,,,1.9503,,,,,,,,,,,,,,,,,,,,,,610237c272f68683ee0ae662,61036a0cb6b0254c3532739f,2021-07-29_19h58.29.887,Simcolourproject_2stim_asymm_v5,2020.2.10,Win32,60,61025ae37ef11b136ea224fe,,,,,,,,,3188,-79,24,1,0,0,response7disk,,1,-5,7,1,0,0,rectangle,-5,7,1,0,0,-5,7,1,0,0,0,110,110,155,1,,,,,,,,
,,,,,,,,,,,,,FF,,,,,,,,1.1176,,,,,,,,,,,,,,,,,,,,,,610237c272f68683ee0ae662,61036a0cb6b0254c3532739f,2021-07-29_19h58.29.887,Simcolourproject_2stim_asymm_v5,2020.2.10,Win32,60,61025ae37ef11b136ea224fe,,,,,,,,,3752,-35,-61,1,0,0,response5disk,,3,3,5,1,0,0,rectangle,3,5,1,0,0,3,5,1,0,0,0,111,111,17,1,,,,,,,,
,,,,,,,,,,,,,FF,,,,,,,,0.5356,,,,,,,,,,,,,,,,,,,,,,610237c272f68683ee0ae662,61036a0cb6b0254c3532739f,2021-07-29_19h58.29.887,Simcolourproject_2stim_asymm_v5,2020.2.10,Win32,60,61025ae37ef11b136ea224fe,,,,,,,,,1210,26,48,1,0,0,response1disk,,7,19,-12,1,0,0,rectangle,19,-12,1,0,0,19,-12,1,0,0,0,112,112,93,1,,,,,,,,
,,,,,,,,,,,,,FF,,,,,,,,0.6356,,,,,,,,,,,,,,,,,,,,,,610237c272f68683ee0ae662,61036a0cb6b0254c3532739f,2021-07-29_19h58.29.887,Simcolourproject_2stim_asymm_v5,2020.2.10,Win32,60,61025ae37ef11b136ea224fe,,,,,,,,,2020,32,68,1,0,0,response1disk,,7,-2,6,1,0,0,rectangle,-2,6,1,0,0,-2,6,1,0,0,0,113,113,118,1,,,,,,,,
,,,,,,,,,,,,,FF,,,,,,,,0.501,,,,,,,,,,,,,,,,,,,,,,610237c272f68683ee0ae662,61036a0cb6b0254c3532739f,2021-07-29_19h58.29.887,Simcolourproject_2stim_asymm_v5,2020.2.10,Win32,60,61025ae37ef11b136ea224fe,,,,,,,,,3692,25,70,1,0,0,response1disk,,7,6,-1,1,0,0,rectangle,-20,71,1,0,0,-3,2,1,0,0,0,114,114,43,1,,response7disk_3,TRUE,0,0,"[217,115,160,75,15,306,88,107,91,56,38,206,166,50,47,314,238,216,288,110]",1.2985,rectangle
,,,,,,,,,,,,,FF,,,,,,,,2.6503,,,,,,,,,,,,,,,,,,,,,,610237c272f68683ee0ae662,61036a0cb6b0254c3532739f,2021-07-29_19h58.29.887,Simcolourproject_2stim_asymm_v5,2020.2.10,Win32,60,61025ae37ef11b136ea224fe,,,,,,,,,699,80,29,1,0,0,response1disk,,6,-8,1,1,0,0,rectangle,-8,1,1,0,0,-8,1,1,0,0,0,115,115,4,1,,,,,,,,
,,,,,,,,,,,,,FF,,,,,,,,0.4995,,,,,,,,,,,,,,,,,,,,,,610237c272f68683ee0ae662,61036a0cb6b0254c3532739f,2021-07-29_19h58.29.887,Simcolourproject_2stim_asymm_v5,2020.2.10,Win32,60,61025ae37ef11b136ea224fe,,,,,,,,,2794,30,71,1,0,0,response1disk,,7,4,-3,1,0,0,rectangle,4,-3,1,0,0,4,-3,1,0,0,0,116,116,97,1,,,,,,,,
,,,,,,,,,,,,,FF,,,,,,,,0.535,,,,,,,,,,,,,,,,,,,,,,610237c272f68683ee0ae662,61036a0cb6b0254c3532739f,2021-07-29_19h58.29.887,Simcolourproject_2stim_asymm_v5,2020.2.10,Win32,60,61025ae37ef11b136ea224fe,,,,,,,,,1947,32,60,1,0,0,response1disk,,7,7,8,1,0,0,rectangle,7,8,1,0,0,7,8,1,0,0,0,117,117,111,1,,,,,,,,
,,,,,,,,,,,,,FF,,,,,,,,0.4666,,,,,,,,,,,,,,,,,,,,,,610237c272f68683ee0ae662,61036a0cb6b0254c3532739f,2021-07-29_19h58.29.887,Simcolourproject_2stim_asymm_v5,2020.2.10,Win32,60,61025ae37ef11b136ea224fe,,,,,,,,,2514,34,69,1,0,0,response1disk,,7,9,-11,1,0,0,rectangle,9,-11,1,0,0,9,-11,1,0,0,0,118,118,28,1,,,,,,,,
,,,,,,,,,,,,,FF,,,,,,,,0.4815,,,,,,,,,,,,,,,,,,,,,,610237c272f68683ee0ae662,61036a0cb6b0254c3532739f,2021-07-29_19h58.29.887,Simcolourproject_2stim_asymm_v5,2020.2.10,Win32,60,61025ae37ef11b136ea224fe,,,,,,,,,2388,26,72,1,0,0,response1disk,,7,-4,0,1,0,0,rectangle,-4,0,1,0,0,-4,0,1,0,0,0,119,119,112,1,,,,,,,,
,,,,,,,,,,,,,FF,,,,,,,,0.4673,,,,,,,,,,,,,,,,,,,,,,610237c272f68683ee0ae662,61036a0cb6b0254c3532739f,2021-07-29_19h58.29.887,Simcolourproject_2stim_asymm_v5,2020.2.10,Win32,60,61025ae37ef11b136ea224fe,,,,,,,,,3075,31,56,1,0,0,response1disk,,7,5,0,1,0,0,rectangle,5,0,1,0,0,5,0,1,0,0,0,120,120,113,1,,,,,,,,
,,,,,,,,,,,,,FF,,,,,,,,0.6335,,,,,,,,,,,,,,,,,,,,,,610237c272f68683ee0ae662,61036a0cb6b0254c3532739f,2021-07-29_19h58.29.887,Simcolourproject_2stim_asymm_v5,2020.2.10,Win32,60,61025ae37ef11b136ea224fe,,,,,,,,,1319,26,63,1,0,0,response1disk,,7,10,10,1,0,0,rectangle,10,10,1,0,0,10,10,1,0,0,0,121,121,158,1,,,,,,,,
,,,,,,,,,,,,,FF,,,,,,,,0.7361,,,,,,,,,,,,,,,,,,,,,,610237c272f68683ee0ae662,61036a0cb6b0254c3532739f,2021-07-29_19h58.29.887,Simcolourproject_2stim_asymm_v5,2020.2.10,Win32,60,61025ae37ef11b136ea224fe,,,,,,,,,416,41,58,1,0,0,response1disk,,7,10,1,1,0,0,rectangle,10,1,1,0,0,10,1,1,0,0,0,122,122,58,1,,,,,,,,
,,,,,,,,,,,,,FF,,,,,,,,1.7326,,,,,,,,,,,,,,,,,,,,,,610237c272f68683ee0ae662,61036a0cb6b0254c3532739f,2021-07-29_19h58.29.887,Simcolourproject_2stim_asymm_v5,2020.2.10,Win32,60,61025ae37ef11b136ea224fe,,,,,,,,,4267,-61,-31,1,0,0,response5disk,,2,-6,-5,1,0,0,rectangle,-6,-5,1,0,0,-6,-5,1,0,0,0,123,123,88,1,,,,,,,,
,,,,,,,,,,,,,FF,,,,,,,,1.1198,,,,,,,,,,,,,,,,,,,,,,610237c272f68683ee0ae662,61036a0cb6b0254c3532739f,2021-07-29_19h58.29.887,Simcolourproject_2stim_asymm_v5,2020.2.10,Win32,60,61025ae37ef11b136ea224fe,,,,,,,,,3585,-72,36,1,0,0,response7disk,,1,16,-4,1,0,0,rectangle,16,-4,1,0,0,16,-4,1,0,0,0,124,124,74,1,,,,,,,,
,,,,,,,,,,,,,FF,,,,,,,,0.4667,,,,,,,,,,,,,,,,,,,,,,610237c272f68683ee0ae662,61036a0cb6b0254c3532739f,2021-07-29_19h58.29.887,Simcolourproject_2stim_asymm_v5,2020.2.10,Win32,60,61025ae37ef11b136ea224fe,,,,,,,,,3731,40,61,1,0,0,response1disk,,7,2,1,1,0,0,rectangle,2,1,1,0,0,2,1,1,0,0,0,125,125,125,1,,,,,,,,
,,,,,,,,,,,,,FF,,,,,,,,1.902,,,,,,,,,,,,,,,,,,,,,,610237c272f68683ee0ae662,61036a0cb6b0254c3532739f,2021-07-29_19h58.29.887,Simcolourproject_2stim_asymm_v5,2020.2.10,Win32,60,61025ae37ef11b136ea224fe,,,,,,,,,2844,77,25,1,0,0,response1disk,,6,7,0,1,0,0,rectangle,7,0,1,0,0,7,0,1,0,0,0,126,126,140,1,,,,,,,,
,,,,,,,,,,,,,FF,,,,,,,,0.6564,,,,,,,,,,,,,,,,,,,,,,610237c272f68683ee0ae662,61036a0cb6b0254c3532739f,2021-07-29_19h58.29.887,Simcolourproject_2stim_asymm_v5,2020.2.10,Win32,60,61025ae37ef11b136ea224fe,,,,,,,,,1334,27,59,1,0,0,response1disk,,7,2,-2,1,0,0,rectangle,2,-2,1,0,0,2,-2,1,0,0,0,127,127,63,1,,,,,,,,
,,,,,,,,,,,,,FF,,,,,,,,1.3343,,,,,,,,,,,,,,,,,,,,,,610237c272f68683ee0ae662,61036a0cb6b0254c3532739f,2021-07-29_19h58.29.887,Simcolourproject_2stim_asymm_v5,2020.2.10,Win32,60,61025ae37ef11b136ea224fe,,,,,,,,,2111,27,76,1,0,0,response1disk,,7,1,0,1,0,0,rectangle,1,0,1,0,0,1,0,1,0,0,0,128,128,68,1,,,,,,,,
,,,,,,,,,,,,,FF,,,,,,,,0.6677,,,,,,,,,,,,,,,,,,,,,,610237c272f68683ee0ae662,61036a0cb6b0254c3532739f,2021-07-29_19h58.29.887,Simcolourproject_2stim_asymm_v5,2020.2.10,Win32,60,61025ae37ef11b136ea224fe,,,,,,,,,2021,35,63,1,0,0,response1disk,,7,7,0,1,0,0,rectangle,7,0,1,0,0,7,0,1,0,0,0,129,129,105,1,,,,,,,,
,,,,,,,,,,,,,FF,,,,,,,,0.4628,,,,,,,,,,,,,,,,,,,,,,610237c272f68683ee0ae662,61036a0cb6b0254c3532739f,2021-07-29_19h58.29.887,Simcolourproject_2stim_asymm_v5,2020.2.10,Win32,60,61025ae37ef11b136ea224fe,,,,,,,,,2092,25,59,1,0,0,response1disk,,7,3,-8,1,0,0,rectangle,3,-8,1,0,0,3,-8,1,0,0,0,130,130,127,1,,,,,,,,
,,,,,,,,,,,,,FF,,,,,,,,0.447,,,,,,,,,,,,,,,,,,,,,,610237c272f68683ee0ae662,61036a0cb6b0254c3532739f,2021-07-29_19h58.29.887,Simcolourproject_2stim_asymm_v5,2020.2.10,Win32,60,61025ae37ef11b136ea224fe,,,,,,,,,3932,40,65,1,0,0,response1disk,,7,10,-5,1,0,0,rectangle,10,-5,1,0,0,10,-5,1,0,0,0,131,131,145,1,,,,,,,,
,,,,,,,,,,,,,FF,,,,,,,,1.517,,,,,,,,,,,,,,,,,,,,,,610237c272f68683ee0ae662,61036a0cb6b0254c3532739f,2021-07-29_19h58.29.887,Simcolourproject_2stim_asymm_v5,2020.2.10,Win32,60,61025ae37ef11b136ea224fe,,,,,,,,,4029,27,51,1,0,0,response1disk,,7,5,3,1,0,0,rectangle,5,3,1,0,0,5,3,1,0,0,0,132,132,109,1,,,,,,,,
,,,,,,,,,,,,,FF,,,,,,,,0.5169,,,,,,,,,,,,,,,,,,,,,,610237c272f68683ee0ae662,61036a0cb6b0254c3532739f,2021-07-29_19h58.29.887,Simcolourproject_2stim_asymm_v5,2020.2.10,Win32,60,61025ae37ef11b136ea224fe,,,,,,,,,147,26,48,1,0,0,response1disk,,7,3,8,1,0,0,rectangle,3,8,1,0,0,3,8,1,0,0,0,133,133,121,1,,,,,,,,
,,,,,,,,,,,,,FF,,,,,,,,0.4999,,,,,,,,,,,,,,,,,,,,,,610237c272f68683ee0ae662,61036a0cb6b0254c3532739f,2021-07-29_19h58.29.887,Simcolourproject_2stim_asymm_v5,2020.2.10,Win32,60,61025ae37ef11b136ea224fe,,,,,,,,,2637,26,56,1,0,0,response1disk,,7,-10,8,1,0,0,rectangle,-10,8,1,0,0,-10,8,1,0,0,0,134,134,54,1,,,,,,,,
,,,,,,,,,,,,,FF,,,,,,,,2.1701,,,,,,,,,,,,,,,,,,,,,,610237c272f68683ee0ae662,61036a0cb6b0254c3532739f,2021-07-29_19h58.29.887,Simcolourproject_2stim_asymm_v5,2020.2.10,Win32,60,61025ae37ef11b136ea224fe,,,,,,,,,192,24,-71,1,0,0,response3disk,,4,3,6,1,0,0,rectangle,3,6,1,0,0,3,6,1,0,0,0,135,135,114,1,,,,,,,,
,,,,,,,,,,,,,FF,,,,,,,,2.2993,,,,,,,,,,,,,,,,,,,,,,610237c272f68683ee0ae662,61036a0cb6b0254c3532739f,2021-07-29_19h58.29.887,Simcolourproject_2stim_asymm_v5,2020.2.10,Win32,60,61025ae37ef11b136ea224fe,,,,,,,,,1161,69,23,1,0,0,response1disk,,6,7,-7,1,0,0,rectangle,7,-7,1,0,0,7,-7,1,0,0,0,136,136,11,1,,,,,,,,
,,,,,,,,,,,,,FF,,,,,,,,1.4969,,,,,,,,,,,,,,,,,,,,,,610237c272f68683ee0ae662,61036a0cb6b0254c3532739f,2021-07-29_19h58.29.887,Simcolourproject_2stim_asymm_v5,2020.2.10,Win32,60,61025ae37ef11b136ea224fe,,,,,,,,,3971,-72,28,1,0,0,response7disk,,1,-16,-2,1,0,0,rectangle,-16,-2,1,0,0,-16,-2,1,0,0,0,137,137,134,1,,,,,,,,
,,,,,,,,,,,,,FF,,,,,,,,0.4866,,,,,,,,,,,,,,,,,,,,,,610237c272f68683ee0ae662,61036a0cb6b0254c3532739f,2021-07-29_19h58.29.887,Simcolourproject_2stim_asymm_v5,2020.2.10,Win32,60,61025ae37ef11b136ea224fe,,,,,,,,,50,29,51,1,0,0,response1disk,,7,5,-2,1,0,0,rectangle,5,-2,1,0,0,5,-2,1,0,0,0,138,138,1,1,,,,,,,,
,,,,,,,,,,,,,FF,,,,,,,,0.7337,,,,,,,,,,,,,,,,,,,,,,610237c272f68683ee0ae662,61036a0cb6b0254c3532739f,2021-07-29_19h58.29.887,Simcolourproject_2stim_asymm_v5,2020.2.10,Win32,60,61025ae37ef11b136ea224fe,,,,,,,,,1624,35,59,1,0,0,response1disk,,7,7,0,1,0,0,rectangle,7,0,1,0,0,7,0,1,0,0,0,139,139,76,1,,,,,,,,
,,,,,,,,,,,,,FF,,,,,,,,0.5343,,,,,,,,,,,,,,,,,,,,,,610237c272f68683ee0ae662,61036a0cb6b0254c3532739f,2021-07-29_19h58.29.887,Simcolourproject_2stim_asymm_v5,2020.2.10,Win32,60,61025ae37ef11b136ea224fe,,,,,,,,,121,26,60,1,0,0,response1disk,,7,2,6,1,0,0,rectangle,2,6,1,0,0,2,6,1,0,0,0,140,140,108,1,,,,,,,,
,,,,,,,,,,,,,FF,,,,,,,,0.4337,,,,,,,,,,,,,,,,,,,,,,610237c272f68683ee0ae662,61036a0cb6b0254c3532739f,2021-07-29_19h58.29.887,Simcolourproject_2stim_asymm_v5,2020.2.10,Win32,60,61025ae37ef11b136ea224fe,,,,,,,,,27,39,66,1,0,0,response1disk,,7,6,5,1,0,0,rectangle,6,5,1,0,0,6,5,1,0,0,0,141,141,25,1,,,,,,,,
,,,,,,,,,,,,,FF,,,,,,,,0.9526,,,,,,,,,,,,,,,,,,,,,,610237c272f68683ee0ae662,61036a0cb6b0254c3532739f,2021-07-29_19h58.29.887,Simcolourproject_2stim_asymm_v5,2020.2.10,Win32,60,61025ae37ef11b136ea224fe,,,,,,,,,1109,52,76,1,0,0,response1disk,,7,6,-4,1,0,0,rectangle,6,-4,1,0,0,6,-4,1,0,0,0,142,142,133,1,,,,,,,,
,,,,,,,,,,,,,FF,,,,,,,,0.7835,,,,,,,,,,,,,,,,,,,,,,610237c272f68683ee0ae662,61036a0cb6b0254c3532739f,2021-07-29_19h58.29.887,Simcolourproject_2stim_asymm_v5,2020.2.10,Win32,60,61025ae37ef11b136ea224fe,,,,,,,,,479,28,58,1,0,0,response1disk,,7,-7,2,1,0,0,rectangle,-7,2,1,0,0,-7,2,1,0,0,0,143,143,132,1,,,,,,,,
,,,,,,,,,,,,,FF,,,,,,,,0.7496,,,,,,,,,,,,,,,,,,,,,,610237c272f68683ee0ae662,61036a0cb6b0254c3532739f,2021-07-29_19h58.29.887,Simcolourproject_2stim_asymm_v5,2020.2.10,Win32,60,61025ae37ef11b136ea224fe,,,,,,,,,3079,20,66,1,0,0,response1disk,,7,6,6,1,0,0,rectangle,6,6,1,0,0,6,6,1,0,0,0,144,144,47,1,,,,,,,,
,,,,,,,,,,,,,FF,,,,,,,,1.1013,,,,,,,,,,,,,,,,,,,,,,610237c272f68683ee0ae662,61036a0cb6b0254c3532739f,2021-07-29_19h58.29.887,Simcolourproject_2stim_asymm_v5,2020.2.10,Win32,60,61025ae37ef11b136ea224fe,,,,,,,,,378,80,27,1,0,0,response1disk,,6,0,-4,1,0,0,rectangle,0,-4,1,0,0,0,-4,1,0,0,0,145,145,106,1,,,,,,,,
,,,,,,,,,,,,,FF,,,,,,,,1.0168,,,,,,,,,,,,,,,,,,,,,,610237c272f68683ee0ae662,61036a0cb6b0254c3532739f,2021-07-29_19h58.29.887,Simcolourproject_2stim_asymm_v5,2020.2.10,Win32,60,61025ae37ef11b136ea224fe,,,,,,,,,3,-80,-37,1,0,0,response5disk,,2,-1,2,1,0,0,rectangle,-1,2,1,0,0,-1,2,1,0,0,0,146,146,36,1,,,,,,,,
,,,,,,,,,,,,,FF,,,,,,,,0.5326,,,,,,,,,,,,,,,,,,,,,,610237c272f68683ee0ae662,61036a0cb6b0254c3532739f,2021-07-29_19h58.29.887,Simcolourproject_2stim_asymm_v5,2020.2.10,Win32,60,61025ae37ef11b136ea224fe,,,,,,,,,756,23,77,1,0,0,response1disk,,7,18,8,1,0,0,rectangle,18,8,1,0,0,18,8,1,0,0,0,147,147,122,1,,,,,,,,
,,,,,,,,,,,,,FF,,,,,,,,1.6007,,,,,,,,,,,,,,,,,,,,,,610237c272f68683ee0ae662,61036a0cb6b0254c3532739f,2021-07-29_19h58.29.887,Simcolourproject_2stim_asymm_v5,2020.2.10,Win32,60,61025ae37ef11b136ea224fe,,,,,,,,,4187,70,-50,1,0,0,response3disk,,5,-10,-5,1,0,0,rectangle,-10,-5,1,0,0,-10,-5,1,0,0,0,148,148,135,1,,,,,,,,
,,,,,,,,,,,,,FF,,,,,,,,0.4001,,,,,,,,,,,,,,,,,,,,,,610237c272f68683ee0ae662,61036a0cb6b0254c3532739f,2021-07-29_19h58.29.887,Simcolourproject_2stim_asymm_v5,2020.2.10,Win32,60,61025ae37ef11b136ea224fe,,,,,,,,,1500,23,71,1,0,0,response1disk,,7,8,0,1,0,0,rectangle,8,0,1,0,0,8,0,1,0,0,0,149,149,147,1,,,,,,,,
,,,,,,,,,,,,,FF,,,,,,,,0.4788,,,,,,,,,,,,,,,,,,,,,,610237c272f68683ee0ae662,61036a0cb6b0254c3532739f,2021-07-29_19h58.29.887,Simcolourproject_2stim_asymm_v5,2020.2.10,Win32,60,61025ae37ef11b136ea224fe,,,,,,,,,708,38,68,1,0,0,response1disk,,7,14,2,1,0,0,rectangle,14,2,1,0,0,14,2,1,0,0,0,150,150,34,1,,,,,,,,
,,,,,,,,,,,,,FF,,,,,,,,0.4335,,,,,,,,,,,,,,,,,,,,,,610237c272f68683ee0ae662,61036a0cb6b0254c3532739f,2021-07-29_19h58.29.887,Simcolourproject_2stim_asymm_v5,2020.2.10,Win32,60,61025ae37ef11b136ea224fe,,,,,,,,,206,23,62,1,0,0,response1disk,,7,-5,-2,1,0,0,rectangle,-5,-2,1,0,0,-5,-2,1,0,0,0,151,151,153,1,,,,,,,,
,,,,,,,,,,,,,FF,,,,,,,,0.5828,,,,,,,,,,,,,,,,,,,,,,610237c272f68683ee0ae662,61036a0cb6b0254c3532739f,2021-07-29_19h58.29.887,Simcolourproject_2stim_asymm_v5,2020.2.10,Win32,60,61025ae37ef11b136ea224fe,,,,,,,,,1357,29,70,1,0,0,response1disk,,7,-3,-1,1,0,0,rectangle,-3,-1,1,0,0,-3,-1,1,0,0,0,152,152,120,1,,,,,,,,
,,,,,,,,,,,,,FF,,,,,,,,0.5498,,,,,,,,,,,,,,,,,,,,,,610237c272f68683ee0ae662,61036a0cb6b0254c3532739f,2021-07-29_19h58.29.887,Simcolourproject_2stim_asymm_v5,2020.2.10,Win32,60,61025ae37ef11b136ea224fe,,,,,,,,,1731,46,76,1,0,0,response1disk,,7,11,-1,1,0,0,rectangle,11,-1,1,0,0,11,-1,1,0,0,0,153,153,92,1,,,,,,,,
,,,,,,,,,,,,,FF,,,,,,,,0.3687,,,,,,,,,,,,,,,,,,,,,,610237c272f68683ee0ae662,61036a0cb6b0254c3532739f,2021-07-29_19h58.29.887,Simcolourproject_2stim_asymm_v5,2020.2.10,Win32,60,61025ae37ef11b136ea224fe,,,,,,,,,122,46,75,1,0,0,response1disk,,7,-7,-1,1,0,0,rectangle,-7,-1,1,0,0,-7,-1,1,0,0,0,154,154,6,1,,,,,,,,
,,,,,,,,,,,,,FF,,,,,,,,0.7166,,,,,,,,,,,,,,,,,,,,,,610237c272f68683ee0ae662,61036a0cb6b0254c3532739f,2021-07-29_19h58.29.887,Simcolourproject_2stim_asymm_v5,2020.2.10,Win32,60,61025ae37ef11b136ea224fe,,,,,,,,,4361,-28,67,1,0,0,response7disk,,0,-1,10,1,0,0,rectangle,-1,10,1,0,0,-1,10,1,0,0,0,155,155,124,1,,,,,,,,
,,,,,,,,,,,,,FF,,,,,,,,1.8356,,,,,,,,,,,,,,,,,,,,,,610237c272f68683ee0ae662,61036a0cb6b0254c3532739f,2021-07-29_19h58.29.887,Simcolourproject_2stim_asymm_v5,2020.2.10,Win32,60,61025ae37ef11b136ea224fe,,,,,,,,,3515,-44,-81,1,0,0,response5disk,,3,2,-1,1,0,0,rectangle,2,-1,1,0,0,2,-1,1,0,0,0,156,156,50,1,,,,,,,,
,,,,,,,,,,,,,FF,,,,,,,,2.6837,,,,,,,,,,,,,,,,,,,,,,610237c272f68683ee0ae662,61036a0cb6b0254c3532739f,2021-07-29_19h58.29.887,Simcolourproject_2stim_asymm_v5,2020.2.10,Win32,60,61025ae37ef11b136ea224fe,,,,,,,,,3561,92,21,1,0,0,response1disk,,6,-7,7,1,0,0,rectangle,-7,7,1,0,0,-7,7,1,0,0,0,157,157,0,1,,,,,,,,
,,,,,,,,,,,,,FF,,,,,,,,0.5268,,,,,,,,,,,,,,,,,,,,,,610237c272f68683ee0ae662,61036a0cb6b0254c3532739f,2021-07-29_19h58.29.887,Simcolourproject_2stim_asymm_v5,2020.2.10,Win32,60,61025ae37ef11b136ea224fe,,,,,,,,,3073,22,79,1,0,0,response1disk,,7,13,6,1,0,0,rectangle,13,6,1,0,0,13,6,1,0,0,0,158,158,126,1,,,,,,,,
,,,,,,,,,,,,,FF,,,,,,,,1.0647,,,,,,,,,,,,,,,,,,,,,,610237c272f68683ee0ae662,61036a0cb6b0254c3532739f,2021-07-29_19h58.29.887,Simcolourproject_2stim_asymm_v5,2020.2.10,Win32,60,61025ae37ef11b136ea224fe,,,,,,,,,4006,40,85,1,0,0,response1disk,,7,7,1,1,0,0,rectangle,-32,81,1,0,0,9,4,1,0,0,0,159,159,27,1,,response7disk_3,TRUE,0,0,"[217,115,160,75,15,306,88,107,91,56,38,206,166,50,47,314,238,216,288,110]",1.1448,rectangle
,,,,,,,,,,,,,FF,,,,,,,,1.501,,,,,,,,,,,,,,,,,,,,,,610237c272f68683ee0ae662,61036a0cb6b0254c3532739f,2021-07-29_19h58.29.887,Simcolourproject_2stim_asymm_v5,2020.2.10,Win32,60,61025ae37ef11b136ea224fe,,,,,,,,,1632,38,73,1,0,0,response1disk,,7,2,-4,1,0,0,rectangle,2,-4,1,0,0,2,-4,1,0,0,1,0,160,80,1,,,,,,,,
,,,,,,,,,,,,,FF,,,,,,,,0.601,,,,,,,,,,,,,,,,,,,,,,610237c272f68683ee0ae662,61036a0cb6b0254c3532739f,2021-07-29_19h58.29.887,Simcolourproject_2stim_asymm_v5,2020.2.10,Win32,60,61025ae37ef11b136ea224fe,,,,,,,,,2348,35,60,1,0,0,response1disk,,7,16,-2,1,0,0,rectangle,16,-2,1,0,0,16,-2,1,0,0,1,1,161,20,1,,,,,,,,
,,,,,,,,,,,,,FF,,,,,,,,0.4581,,,,,,,,,,,,,,,,,,,,,,610237c272f68683ee0ae662,61036a0cb6b0254c3532739f,2021-07-29_19h58.29.887,Simcolourproject_2stim_asymm_v5,2020.2.10,Win32,60,61025ae37ef11b136ea224fe,,,,,,,,,567,34,61,1,0,0,response1disk,,7,3,-2,1,0,0,rectangle,3,-2,1,0,0,3,-2,1,0,0,1,2,162,78,1,,,,,,,,
,,,,,,,,,,,,,FF,,,,,,,,1.7933,,,,,,,,,,,,,,,,,,,,,,610237c272f68683ee0ae662,61036a0cb6b0254c3532739f,2021-07-29_19h58.29.887,Simcolourproject_2stim_asymm_v5,2020.2.10,Win32,60,61025ae37ef11b136ea224fe,,,,,,,,,3330,-74,-31,1,0,0,response5disk,,2,0,5,1,0,0,rectangle,0,5,1,0,0,0,5,1,0,0,1,3,163,63,1,,,,,,,,
,,,,,,,,,,,,,FF,,,,,,,,1.1322,,,,,,,,,,,,,,,,,,,,,,610237c272f68683ee0ae662,61036a0cb6b0254c3532739f,2021-07-29_19h58.29.887,Simcolourproject_2stim_asymm_v5,2020.2.10,Win32,60,61025ae37ef11b136ea224fe,,,,,,,,,892,-72,-34,1,0,0,response5disk,,2,0,7,1,0,0,rectangle,0,7,1,0,0,0,7,1,0,0,1,4,164,72,1,,,,,,,,
,,,,,,,,,,,,,FF,,,,,,,,0.7495,,,,,,,,,,,,,,,,,,,,,,610237c272f68683ee0ae662,61036a0cb6b0254c3532739f,2021-07-29_19h58.29.887,Simcolourproject_2stim_asymm_v5,2020.2.10,Win32,60,61025ae37ef11b136ea224fe,,,,,,,,,4204,-57,-21,1,0,0,response5disk,,2,-13,1,1,0,0,rectangle,-26,68,1,0,0,1,-10,1,0,0,1,5,165,113,1,,response7disk_3,TRUE,0,0,"[217,115,160,75,15,306,88,107,91,56,38,206,166,50,47,314,238,216,288,110]",1.0572,rectangle
,,,,,,,,,,,,,FF,,,,,,,,0.6331,,,,,,,,,,,,,,,,,,,,,,610237c272f68683ee0ae662,61036a0cb6b0254c3532739f,2021-07-29_19h58.29.887,Simcolourproject_2stim_asymm_v5,2020.2.10,Win32,60,61025ae37ef11b136ea224fe,,,,,,,,,3775,33,65,1,0,0,response1disk,,7,12,-4,1,0,0,rectangle,12,-4,1,0,0,12,-4,1,0,0,1,6,166,89,1,,,,,,,,
,,,,,,,,,,,,,FF,,,,,,,,0.6152,,,,,,,,,,,,,,,,,,,,,,610237c272f68683ee0ae662,61036a0cb6b0254c3532739f,2021-07-29_19h58.29.887,Simcolourproject_2stim_asymm_v5,2020.2.10,Win32,60,61025ae37ef11b136ea224fe,,,,,,,,,2967,38,64,1,0,0,response1disk,,7,11,3,1,0,0,rectangle,11,3,1,0,0,11,3,1,0,0,1,7,167,37,1,,,,,,,,
,,,,,,,,,,,,,FF,,,,,,,,1.0003,,,,,,,,,,,,,,,,,,,,,,610237c272f68683ee0ae662,61036a0cb6b0254c3532739f,2021-07-29_19h58.29.887,Simcolourproject_2stim_asymm_v5,2020.2.10,Win32,60,61025ae37ef11b136ea224fe,,,,,,,,,4104,-40,-61,1,0,0,response5disk,,3,-7,-12,1,0,0,rectangle,-7,-12,1,0,0,-7,-12,1,0,0,1,8,168,5,1,,,,,,,,
,,,,,,,,,,,,,FF,,,,,,,,0.6664,,,,,,,,,,,,,,,,,,,,,,610237c272f68683ee0ae662,61036a0cb6b0254c3532739f,2021-07-29_19h58.29.887,Simcolourproject_2stim_asymm_v5,2020.2.10,Win32,60,61025ae37ef11b136ea224fe,,,,,,,,,3964,40,60,1,0,0,response1disk,,7,2,6,1,0,0,rectangle,2,6,1,0,0,2,6,1,0,0,1,9,169,48,1,,,,,,,,
,,,,,,,,,,,,,FF,,,,,,,,3.1666,,,,,,,,,,,,,,,,,,,,,,610237c272f68683ee0ae662,61036a0cb6b0254c3532739f,2021-07-29_19h58.29.887,Simcolourproject_2stim_asymm_v5,2020.2.10,Win32,60,61025ae37ef11b136ea224fe,,,,,,,,,3132,28,57,1,0,0,response1disk,,7,14,5,1,0,0,rectangle,14,5,1,0,0,14,5,1,0,0,1,10,170,103,1,,,,,,,,
,,,,,,,,,,,,,FF,,,,,,,,0.8031,,,,,,,,,,,,,,,,,,,,,,610237c272f68683ee0ae662,61036a0cb6b0254c3532739f,2021-07-29_19h58.29.887,Simcolourproject_2stim_asymm_v5,2020.2.10,Win32,60,61025ae37ef11b136ea224fe,,,,,,,,,3194,44,70,1,0,0,response1disk,,7,17,2,1,0,0,rectangle,17,2,1,0,0,17,2,1,0,0,1,11,171,57,1,,,,,,,,
,,,,,,,,,,,,,FF,,,,,,,,0.7164,,,,,,,,,,,,,,,,,,,,,,610237c272f68683ee0ae662,61036a0cb6b0254c3532739f,2021-07-29_19h58.29.887,Simcolourproject_2stim_asymm_v5,2020.2.10,Win32,60,61025ae37ef11b136ea224fe,,,,,,,,,3031,22,68,1,0,0,response1disk,,7,-2,-7,1,0,0,rectangle,-2,-7,1,0,0,-2,-7,1,0,0,1,12,172,83,1,,,,,,,,
,,,,,,,,,,,,,FF,,,,,,,,0.5072,,,,,,,,,,,,,,,,,,,,,,610237c272f68683ee0ae662,61036a0cb6b0254c3532739f,2021-07-29_19h58.29.887,Simcolourproject_2stim_asymm_v5,2020.2.10,Win32,60,61025ae37ef11b136ea224fe,,,,,,,,,1799,32,59,1,0,0,response1disk,,7,7,-3,1,0,0,rectangle,7,-3,1,0,0,7,-3,1,0,0,1,13,173,41,1,,,,,,,,
,,,,,,,,,,,,,FF,,,,,,,,0.617,,,,,,,,,,,,,,,,,,,,,,610237c272f68683ee0ae662,61036a0cb6b0254c3532739f,2021-07-29_19h58.29.887,Simcolourproject_2stim_asymm_v5,2020.2.10,Win32,60,61025ae37ef11b136ea224fe,,,,,,,,,2983,24,57,1,0,0,response1disk,,7,-6,1,1,0,0,rectangle,-6,1,1,0,0,-6,1,1,0,0,1,14,174,67,1,,,,,,,,
,,,,,,,,,,,,,FF,,,,,,,,2.0845,,,,,,,,,,,,,,,,,,,,,,610237c272f68683ee0ae662,61036a0cb6b0254c3532739f,2021-07-29_19h58.29.887,Simcolourproject_2stim_asymm_v5,2020.2.10,Win32,60,61025ae37ef11b136ea224fe,,,,,,,,,3238,-69,-40,1,0,0,response5disk,,2,-3,-8,1,0,0,rectangle,-3,-8,1,0,0,-3,-8,1,0,0,1,15,175,30,1,,,,,,,,
,,,,,,,,,,,,,FF,,,,,,,,0.7336,,,,,,,,,,,,,,,,,,,,,,610237c272f68683ee0ae662,61036a0cb6b0254c3532739f,2021-07-29_19h58.29.887,Simcolourproject_2stim_asymm_v5,2020.2.10,Win32,60,61025ae37ef11b136ea224fe,,,,,,,,,1185,37,54,1,0,0,response1disk,,7,6,7,1,0,0,rectangle,6,7,1,0,0,6,7,1,0,0,1,16,176,25,1,,,,,,,,
,,,,,,,,,,,,,FF,,,,,,,,0.6338,,,,,,,,,,,,,,,,,,,,,,610237c272f68683ee0ae662,61036a0cb6b0254c3532739f,2021-07-29_19h58.29.887,Simcolourproject_2stim_asymm_v5,2020.2.10,Win32,60,61025ae37ef11b136ea224fe,,,,,,,,,2346,29,66,1,0,0,response1disk,,7,-14,-6,1,0,0,rectangle,-14,-6,1,0,0,-14,-6,1,0,0,1,17,177,124,1,,,,,,,,
,,,,,,,,,,,,,FF,,,,,,,,2.7999,,,,,,,,,,,,,,,,,,,,,,610237c272f68683ee0ae662,61036a0cb6b0254c3532739f,2021-07-29_19h58.29.887,Simcolourproject_2stim_asymm_v5,2020.2.10,Win32,60,61025ae37ef11b136ea224fe,,,,,,,,,3878,31,52,1,0,0,response1disk,,7,4,-6,1,0,0,rectangle,4,-6,1,0,0,4,-6,1,0,0,1,18,178,29,1,,,,,,,,
,,,,,,,,,,,,,FF,,,,,,,,0.6494,,,,,,,,,,,,,,,,,,,,,,610237c272f68683ee0ae662,61036a0cb6b0254c3532739f,2021-07-29_19h58.29.887,Simcolourproject_2stim_asymm_v5,2020.2.10,Win32,60,61025ae37ef11b136ea224fe,,,,,,,,,1702,33,65,1,0,0,response1disk,,7,-5,1,1,0,0,rectangle,-5,1,1,0,0,-5,1,1,0,0,1,19,179,127,1,,,,,,,,
,,,,,,,,,,,,,FF,,,,,,,,0.484,,,,,,,,,,,,,,,,,,,,,,610237c272f68683ee0ae662,61036a0cb6b0254c3532739f,2021-07-29_19h58.29.887,Simcolourproject_2stim_asymm_v5,2020.2.10,Win32,60,61025ae37ef11b136ea224fe,,,,,,,,,507,32,54,1,0,0,response1disk,,7,-2,0,1,0,0,rectangle,-2,0,1,0,0,-2,0,1,0,0,1,20,180,58,1,,,,,,,,
,,,,,,,,,,,,,FF,,,,,,,,0.4492,,,,,,,,,,,,,,,,,,,,,,610237c272f68683ee0ae662,61036a0cb6b0254c3532739f,2021-07-29_19h58.29.887,Simcolourproject_2stim_asymm_v5,2020.2.10,Win32,60,61025ae37ef11b136ea224fe,,,,,,,,,177,29,51,1,0,0,response1disk,,7,0,8,1,0,0,rectangle,0,8,1,0,0,0,8,1,0,0,1,21,181,3,1,,,,,,,,
,,,,,,,,,,,,,FF,,,,,,,,0.3832,,,,,,,,,,,,,,,,,,,,,,610237c272f68683ee0ae662,61036a0cb6b0254c3532739f,2021-07-29_19h58.29.887,Simcolourproject_2stim_asymm_v5,2020.2.10,Win32,60,61025ae37ef11b136ea224fe,,,,,,,,,2755,29,62,1,0,0,response1disk,,7,2,6,1,0,0,rectangle,2,6,1,0,0,2,6,1,0,0,1,22,182,27,1,,,,,,,,
,,,,,,,,,,,,,FF,,,,,,,,0.3629,,,,,,,,,,,,,,,,,,,,,,610237c272f68683ee0ae662,61036a0cb6b0254c3532739f,2021-07-29_19h58.29.887,Simcolourproject_2stim_asymm_v5,2020.2.10,Win32,60,61025ae37ef11b136ea224fe,,,,,,,,,3729,31,57,1,0,0,response1disk,,7,2,1,1,0,0,rectangle,2,1,1,0,0,2,1,1,0,0,1,23,183,50,1,,,,,,,,
,,,,,,,,,,,,,FF,,,,,,,,2.0325,,,,,,,,,,,,,,,,,,,,,,610237c272f68683ee0ae662,61036a0cb6b0254c3532739f,2021-07-29_19h58.29.887,Simcolourproject_2stim_asymm_v5,2020.2.10,Win32,60,61025ae37ef11b136ea224fe,,,,,,,,,2495,75,32,1,0,0,response1disk,,6,11,7,1,0,0,rectangle,11,7,1,0,0,11,7,1,0,0,1,24,184,153,1,,,,,,,,
,,,,,,,,,,,,,FF,,,,,,,,1.0668,,,,,,,,,,,,,,,,,,,,,,610237c272f68683ee0ae662,61036a0cb6b0254c3532739f,2021-07-29_19h58.29.887,Simcolourproject_2stim_asymm_v5,2020.2.10,Win32,60,61025ae37ef11b136ea224fe,,,,,,,,,3302,91,15,1,0,0,response1disk,,6,13,-7,1,0,0,rectangle,13,-7,1,0,0,13,-7,1,0,0,1,25,185,44,1,,,,,,,,
,,,,,,,,,,,,,FF,,,,,,,,0.4165,,,,,,,,,,,,,,,,,,,,,,610237c272f68683ee0ae662,61036a0cb6b0254c3532739f,2021-07-29_19h58.29.887,Simcolourproject_2stim_asymm_v5,2020.2.10,Win32,60,61025ae37ef11b136ea224fe,,,,,,,,,219,37,60,1,0,0,response1disk,,7,-7,8,1,0,0,rectangle,-7,8,1,0,0,-7,8,1,0,0,1,26,186,109,1,,,,,,,,
,,,,,,,,,,,,,FF,,,,,,,,0.3822,,,,,,,,,,,,,,,,,,,,,,610237c272f68683ee0ae662,61036a0cb6b0254c3532739f,2021-07-29_19h58.29.887,Simcolourproject_2stim_asymm_v5,2020.2.10,Win32,60,61025ae37ef11b136ea224fe,,,,,,,,,109,28,60,1,0,0,response1disk,,7,-7,-1,1,0,0,rectangle,-7,-1,1,0,0,-7,-1,1,0,0,1,27,187,36,1,,,,,,,,
,,,,,,,,,,,,,FF,,,,,,,,1.8189,,,,,,,,,,,,,,,,,,,,,,610237c272f68683ee0ae662,61036a0cb6b0254c3532739f,2021-07-29_19h58.29.887,Simcolourproject_2stim_asymm_v5,2020.2.10,Win32,60,61025ae37ef11b136ea224fe,,,,,,,,,2593,37,50,1,0,0,response1disk,,7,-6,-5,1,0,0,rectangle,-6,-5,1,0,0,-6,-5,1,0,0,1,28,188,16,1,,,,,,,,
,,,,,,,,,,,,,FF,,,,,,,,0.5008,,,,,,,,,,,,,,,,,,,,,,610237c272f68683ee0ae662,61036a0cb6b0254c3532739f,2021-07-29_19h58.29.887,Simcolourproject_2stim_asymm_v5,2020.2.10,Win32,60,61025ae37ef11b136ea224fe,,,,,,,,,2215,35,48,1,0,0,response1disk,,7,-7,3,1,0,0,rectangle,-7,3,1,0,0,-7,3,1,0,0,1,29,189,101,1,,,,,,,,
,,,,,,,,,,,,,FF,,,,,,,,0.7339,,,,,,,,,,,,,,,,,,,,,,610237c272f68683ee0ae662,61036a0cb6b0254c3532739f,2021-07-29_19h58.29.887,Simcolourproject_2stim_asymm_v5,2020.2.10,Win32,60,61025ae37ef11b136ea224fe,,,,,,,,,2291,-42,73,1,0,0,response7disk,,0,-3,4,1,0,0,rectangle,-3,4,1,0,0,-3,4,1,0,0,1,30,190,38,1,,,,,,,,
,,,,,,,,,,,,,FF,,,,,,,,1.0976,,,,,,,,,,,,,,,,,,,,,,610237c272f68683ee0ae662,61036a0cb6b0254c3532739f,2021-07-29_19h58.29.887,Simcolourproject_2stim_asymm_v5,2020.2.10,Win32,60,61025ae37ef11b136ea224fe,,,,,,,,,1576,54,81,1,0,0,response1disk,,7,12,-4,1,0,0,rectangle,12,-4,1,0,0,12,-4,1,0,0,1,31,191,110,1,,,,,,,,
,,,,,,,,,,,,,FF,,,,,,,,1.9504,,,,,,,,,,,,,,,,,,,,,,610237c272f68683ee0ae662,61036a0cb6b0254c3532739f,2021-07-29_19h58.29.887,Simcolourproject_2stim_asymm_v5,2020.2.10,Win32,60,61025ae37ef11b136ea224fe,,,,,,,,,2681,107,23,1,0,0,response1disk,,6,20,0,1,0,0,rectangle,20,0,1,0,0,20,0,1,0,0,1,32,192,7,1,,,,,,,,
,,,,,,,,,,,,,FF,,,,,,,,0.5005,,,,,,,,,,,,,,,,,,,,,,610237c272f68683ee0ae662,61036a0cb6b0254c3532739f,2021-07-29_19h58.29.887,Simcolourproject_2stim_asymm_v5,2020.2.10,Win32,60,61025ae37ef11b136ea224fe,,,,,,,,,4309,48,64,1,0,0,response1disk,,7,-13,6,1,0,0,rectangle,-13,6,1,0,0,-13,6,1,0,0,1,33,193,77,1,,,,,,,,
,,,,,,,,,,,,,FF,,,,,,,,0.6661,,,,,,,,,,,,,,,,,,,,,,610237c272f68683ee0ae662,61036a0cb6b0254c3532739f,2021-07-29_19h58.29.887,Simcolourproject_2stim_asymm_v5,2020.2.10,Win32,60,61025ae37ef11b136ea224fe,,,,,,,,,2159,54,65,1,0,0,response1disk,,7,11,1,1,0,0,rectangle,11,1,1,0,0,11,1,1,0,0,1,34,194,92,1,,,,,,,,
,,,,,,,,,,,,,FF,,,,,,,,2.3503,,,,,,,,,,,,,,,,,,,,,,610237c272f68683ee0ae662,61036a0cb6b0254c3532739f,2021-07-29_19h58.29.887,Simcolourproject_2stim_asymm_v5,2020.2.10,Win32,60,61025ae37ef11b136ea224fe,,,,,,,,,787,61,-38,1,0,0,response3disk,,5,-9,-1,1,0,0,rectangle,-9,-1,1,0,0,-9,-1,1,0,0,1,35,195,115,1,,,,,,,,
,,,,,,,,,,,,,FF,,,,,,,,0.5514,,,,,,,,,,,,,,,,,,,,,,610237c272f68683ee0ae662,61036a0cb6b0254c3532739f,2021-07-29_19h58.29.887,Simcolourproject_2stim_asymm_v5,2020.2.10,Win32,60,61025ae37ef11b136ea224fe,,,,,,,,,3453,35,61,1,0,0,response1disk,,7,3,0,1,0,0,rectangle,3,0,1,0,0,3,0,1,0,0,1,36,196,40,1,,,,,,,,
,,,,,,,,,,,,,FF,,,,,,,,1.7004,,,,,,,,,,,,,,,,,,,,,,610237c272f68683ee0ae662,61036a0cb6b0254c3532739f,2021-07-29_19h58.29.887,Simcolourproject_2stim_asymm_v5,2020.2.10,Win32,60,61025ae37ef11b136ea224fe,,,,,,,,,1135,-86,-46,1,0,0,response5disk,,2,8,1,1,0,0,rectangle,8,1,1,0,0,8,1,1,0,0,1,37,197,14,1,,,,,,,,
,,,,,,,,,,,,,FF,,,,,,,,0.5316,,,,,,,,,,,,,,,,,,,,,,610237c272f68683ee0ae662,61036a0cb6b0254c3532739f,2021-07-29_19h58.29.887,Simcolourproject_2stim_asymm_v5,2020.2.10,Win32,60,61025ae37ef11b136ea224fe,,,,,,,,,4172,43,59,1,0,0,response1disk,,7,-1,2,1,0,0,rectangle,-1,2,1,0,0,-1,2,1,0,0,1,38,198,155,1,,,,,,,,
,,,,,,,,,,,,,FF,,,,,,,,1.1504,,,,,,,,,,,,,,,,,,,,,,610237c272f68683ee0ae662,61036a0cb6b0254c3532739f,2021-07-29_19h58.29.887,Simcolourproject_2stim_asymm_v5,2020.2.10,Win32,60,61025ae37ef11b136ea224fe,,,,,,,,,2782,-71,29,1,0,0,response7disk,,1,2,7,1,0,0,rectangle,2,7,1,0,0,2,7,1,0,0,1,39,199,73,1,,,,,,,,
,,,,,,,,,,,,,FF,,,,,,,,0.4322,,,,,,,,,,,,,,,,,,,,,,610237c272f68683ee0ae662,61036a0cb6b0254c3532739f,2021-07-29_19h58.29.887,Simcolourproject_2stim_asymm_v5,2020.2.10,Win32,60,61025ae37ef11b136ea224fe,,,,,,,,,4179,35,65,1,0,0,response1disk,,7,7,-4,1,0,0,rectangle,7,-4,1,0,0,7,-4,1,0,0,1,40,200,137,1,,,,,,,,
,,,,,,,,,,,,,FF,,,,,,,,0.5504,,,,,,,,,,,,,,,,,,,,,,610237c272f68683ee0ae662,61036a0cb6b0254c3532739f,2021-07-29_19h58.29.887,Simcolourproject_2stim_asymm_v5,2020.2.10,Win32,60,61025ae37ef11b136ea224fe,,,,,,,,,843,29,57,1,0,0,response1disk,,7,5,-4,1,0,0,rectangle,5,-4,1,0,0,5,-4,1,0,0,1,41,201,102,1,,,,,,,,
,,,,,,,,,,,,,FF,,,,,,,,0.8826,,,,,,,,,,,,,,,,,,,,,,610237c272f68683ee0ae662,61036a0cb6b0254c3532739f,2021-07-29_19h58.29.887,Simcolourproject_2stim_asymm_v5,2020.2.10,Win32,60,61025ae37ef11b136ea224fe,,,,,,,,,449,34,49,1,0,0,response1disk,,7,-5,1,1,0,0,rectangle,-5,1,1,0,0,-5,1,1,0,0,1,42,202,6,1,,,,,,,,
,,,,,,,,,,,,,FF,,,,,,,,0.5185,,,,,,,,,,,,,,,,,,,,,,610237c272f68683ee0ae662,61036a0cb6b0254c3532739f,2021-07-29_19h58.29.887,Simcolourproject_2stim_asymm_v5,2020.2.10,Win32,60,61025ae37ef11b136ea224fe,,,,,,,,,1165,24,53,1,0,0,response1disk,,7,6,-6,1,0,0,rectangle,6,-6,1,0,0,6,-6,1,0,0,1,43,203,119,1,,,,,,,,
,,,,,,,,,,,,,FF,,,,,,,,0.5477,,,,,,,,,,,,,,,,,,,,,,610237c272f68683ee0ae662,61036a0cb6b0254c3532739f,2021-07-29_19h58.29.887,Simcolourproject_2stim_asymm_v5,2020.2.10,Win32,60,61025ae37ef11b136ea224fe,,,,,,,,,2500,22,42,1,0,0,response1disk,,7,7,-2,1,0,0,rectangle,7,-2,1,0,0,7,-2,1,0,0,1,44,204,158,1,,,,,,,,
,,,,,,,,,,,,,FF,,,,,,,,0.4836,,,,,,,,,,,,,,,,,,,,,,610237c272f68683ee0ae662,61036a0cb6b0254c3532739f,2021-07-29_19h58.29.887,Simcolourproject_2stim_asymm_v5,2020.2.10,Win32,60,61025ae37ef11b136ea224fe,,,,,,,,,2340,21,41,1,0,0,response1disk,,7,-2,-4,1,0,0,rectangle,40,-67,1,0,0,9,1,1,0,0,1,45,205,4,1,,response3disk_3,TRUE,4,4,"[217,115,160,75,15,306,88,107,91,56,38,206,166,50,47,314,238,216,288,110]",2.4497,rectangle
,,,,,,,,,,,,,FF,,,,,,,,0.9676,,,,,,,,,,,,,,,,,,,,,,610237c272f68683ee0ae662,61036a0cb6b0254c3532739f,2021-07-29_19h58.29.887,Simcolourproject_2stim_asymm_v5,2020.2.10,Win32,60,61025ae37ef11b136ea224fe,,,,,,,,,2964,28,70,1,0,0,response1disk,,7,-1,11,1,0,0,rectangle,-1,11,1,0,0,-1,11,1,0,0,1,46,206,134,1,,,,,,,,
,,,,,,,,,,,,,FF,,,,,,,,3.1016,,,,,,,,,,,,,,,,,,,,,,610237c272f68683ee0ae662,61036a0cb6b0254c3532739f,2021-07-29_19h58.29.887,Simcolourproject_2stim_asymm_v5,2020.2.10,Win32,60,61025ae37ef11b136ea224fe,,,,,,,,,3944,-24,-68,1,0,0,response5disk,,3,8,-2,1,0,0,rectangle,8,-2,1,0,0,8,-2,1,0,0,1,47,207,74,1,,,,,,,,
,,,,,,,,,,,,,FF,,,,,,,,1.0228,,,,,,,,,,,,,,,,,,,,,,610237c272f68683ee0ae662,61036a0cb6b0254c3532739f,2021-07-29_19h58.29.887,Simcolourproject_2stim_asymm_v5,2020.2.10,Win32,60,61025ae37ef11b136ea224fe,,,,,,,,,549,-31,-67,1,0,0,response5disk,,3,9,2,1,0,0,rectangle,9,2,1,0,0,9,2,1,0,0,1,48,208,154,1,,,,,,,,
,,,,,,,,,,,,,FF,,,,,,,,1.0999,,,,,,,,,,,,,,,,,,,,,,610237c272f68683ee0ae662,61036a0cb6b0254c3532739f,2021-07-29_19h58.29.887,Simcolourproject_2stim_asymm_v5,2020.2.10,Win32,60,61025ae37ef11b136ea224fe,,,,,,,,,259,47,-64,1,0,0,response3disk,,4,9,-2,1,0,0,rectangle,9,-2,1,0,0,9,-2,1,0,0,1,49,209,139,1,,,,,,,,
,,,,,,,,,,,,,FF,,,,,,,,0.5996,,,,,,,,,,,,,,,,,,,,,,610237c272f68683ee0ae662,61036a0cb6b0254c3532739f,2021-07-29_19h58.29.887,Simcolourproject_2stim_asymm_v5,2020.2.10,Win32,60,61025ae37ef11b136ea224fe,,,,,,,,,4212,34,58,1,0,0,response1disk,,7,11,-4,1,0,0,rectangle,11,-4,1,0,0,11,-4,1,0,0,1,50,210,95,1,,,,,,,,
,,,,,,,,,,,,,FF,,,,,,,,0.4841,,,,,,,,,,,,,,,,,,,,,,610237c272f68683ee0ae662,61036a0cb6b0254c3532739f,2021-07-29_19h58.29.887,Simcolourproject_2stim_asymm_v5,2020.2.10,Win32,60,61025ae37ef11b136ea224fe,,,,,,,,,2071,21,57,1,0,0,response1disk,,7,1,1,1,0,0,rectangle,1,1,1,0,0,1,1,1,0,0,1,51,211,143,1,,,,,,,,
,,,,,,,,,,,,,FF,,,,,,,,1.7506,,,,,,,,,,,,,,,,,,,,,,610237c272f68683ee0ae662,61036a0cb6b0254c3532739f,2021-07-29_19h58.29.887,Simcolourproject_2stim_asymm_v5,2020.2.10,Win32,60,61025ae37ef11b136ea224fe,,,,,,,,,2005,30,54,1,0,0,response1disk,,7,9,-3,1,0,0,rectangle,9,-3,1,0,0,9,-3,1,0,0,1,52,212,21,1,,,,,,,,
,,,,,,,,,,,,,FF,,,,,,,,1.8563,,,,,,,,,,,,,,,,,,,,,,610237c272f68683ee0ae662,61036a0cb6b0254c3532739f,2021-07-29_19h58.29.887,Simcolourproject_2stim_asymm_v5,2020.2.10,Win32,60,61025ae37ef11b136ea224fe,,,,,,,,,1512,65,42,1,0,0,response1disk,,6,-7,10,1,0,0,rectangle,-7,10,1,0,0,-7,10,1,0,0,1,53,213,148,1,,,,,,,,
,,,,,,,,,,,,,FF,,,,,,,,0.4325,,,,,,,,,,,,,,,,,,,,,,610237c272f68683ee0ae662,61036a0cb6b0254c3532739f,2021-07-29_19h58.29.887,Simcolourproject_2stim_asymm_v5,2020.2.10,Win32,60,61025ae37ef11b136ea224fe,,,,,,,,,2391,39,55,1,0,0,response1disk,,7,2,3,1,0,0,rectangle,2,3,1,0,0,2,3,1,0,0,1,54,214,33,1,,,,,,,,
,,,,,,,,,,,,,FF,,,,,,,,0.4673,,,,,,,,,,,,,,,,,,,,,,610237c272f68683ee0ae662,61036a0cb6b0254c3532739f,2021-07-29_19h58.29.887,Simcolourproject_2stim_asymm_v5,2020.2.10,Win32,60,61025ae37ef11b136ea224fe,,,,,,,,,2506,32,57,1,0,0,response1disk,,7,-7,-3,1,0,0,rectangle,-71,-44,1,0,0,-7,-4,1,0,0,1,55,215,39,1,,response5disk_3,TRUE,2,2,"[217,115,160,75,15,306,88,107,91,56,38,206,166,50,47,314,238,216,288,110]",1.5002,rectangle
,,,,,,,,,,,,,FF,,,,,,,,0.5499,,,,,,,,,,,,,,,,,,,,,,610237c272f68683ee0ae662,61036a0cb6b0254c3532739f,2021-07-29_19h58.29.887,Simcolourproject_2stim_asymm_v5,2020.2.10,Win32,60,61025ae37ef11b136ea224fe,,,,,,,,,925,23,38,1,0,0,response1disk,,7,17,2,1,0,0,rectangle,71,-35,1,0,0,8,0,1,0,0,1,56,216,35,1,,response3disk_3,TRUE,5,5,"[217,115,160,75,15,306,88,107,91,56,38,206,166,50,47,314,238,216,288,110]",2.0155,rectangle
,,,,,,,,,,,,,FF,,,,,,,,1.8504,,,,,,,,,,,,,,,,,,,,,,610237c272f68683ee0ae662,61036a0cb6b0254c3532739f,2021-07-29_19h58.29.887,Simcolourproject_2stim_asymm_v5,2020.2.10,Win32,60,61025ae37ef11b136ea224fe,,,,,,,,,3350,-69,-45,1,0,0,response5disk,,2,-13,-1,1,0,0,rectangle,-13,-1,1,0,0,-13,-1,1,0,0,1,57,217,52,1,,,,,,,,
,,,,,,,,,,,,,FF,,,,,,,,0.935,,,,,,,,,,,,,,,,,,,,,,610237c272f68683ee0ae662,61036a0cb6b0254c3532739f,2021-07-29_19h58.29.887,Simcolourproject_2stim_asymm_v5,2020.2.10,Win32,60,61025ae37ef11b136ea224fe,,,,,,,,,3685,26,65,1,0,0,response1disk,,7,2,1,1,0,0,rectangle,2,1,1,0,0,2,1,1,0,0,1,58,218,64,1,,,,,,,,
,,,,,,,,,,,,,FF,,,,,,,,0.9838,,,,,,,,,,,,,,,,,,,,,,610237c272f68683ee0ae662,61036a0cb6b0254c3532739f,2021-07-29_19h58.29.887,Simcolourproject_2stim_asymm_v5,2020.2.10,Win32,60,61025ae37ef11b136ea224fe,,,,,,,,,1190,31,49,1,0,0,response1disk,,7,-2,5,1,0,0,rectangle,-2,5,1,0,0,-2,5,1,0,0,1,59,219,122,1,,,,,,,,
,,,,,,,,,,,,,FF,,,,,,,,0.5265,,,,,,,,,,,,,,,,,,,,,,610237c272f68683ee0ae662,61036a0cb6b0254c3532739f,2021-07-29_19h58.29.887,Simcolourproject_2stim_asymm_v5,2020.2.10,Win32,60,61025ae37ef11b136ea224fe,,,,,,,,,3271,23,55,1,0,0,response1disk,,7,0,2,1,0,0,rectangle,0,2,1,0,0,0,2,1,0,0,1,60,220,116,1,,,,,,,,
,,,,,,,,,,,,,FF,,,,,,,,0.7052,,,,,,,,,,,,,,,,,,,,,,610237c272f68683ee0ae662,61036a0cb6b0254c3532739f,2021-07-29_19h58.29.887,Simcolourproject_2stim_asymm_v5,2020.2.10,Win32,60,61025ae37ef11b136ea224fe,,,,,,,,,1099,37,52,1,0,0,response1disk,,7,4,4,1,0,0,rectangle,4,4,1,0,0,4,4,1,0,0,1,61,221,12,1,,,,,,,,
,,,,,,,,,,,,,FF,,,,,,,,1.5245,,,,,,,,,,,,,,,,,,,,,,610237c272f68683ee0ae662,61036a0cb6b0254c3532739f,2021-07-29_19h58.29.887,Simcolourproject_2stim_asymm_v5,2020.2.10,Win32,60,61025ae37ef11b136ea224fe,,,,,,,,,2168,68,43,1,0,0,response1disk,,6,7,11,1,0,0,rectangle,7,11,1,0,0,7,11,1,0,0,1,62,222,132,1,,,,,,,,
,,,,,,,,,,,,,FF,,,,,,,,1.4832,,,,,,,,,,,,,,,,,,,,,,610237c272f68683ee0ae662,61036a0cb6b0254c3532739f,2021-07-29_19h58.29.887,Simcolourproject_2stim_asymm_v5,2020.2.10,Win32,60,61025ae37ef11b136ea224fe,,,,,,,,,1682,-29,-70,1,0,0,response5disk,,3,-3,-5,1,0,0,rectangle,-3,-5,1,0,0,-3,-5,1,0,0,1,63,223,26,1,,,,,,,,
,,,,,,,,,,,,,FF,,,,,,,,0.6502,,,,,,,,,,,,,,,,,,,,,,610237c272f68683ee0ae662,61036a0cb6b0254c3532739f,2021-07-29_19h58.29.887,Simcolourproject_2stim_asymm_v5,2020.2.10,Win32,60,61025ae37ef11b136ea224fe,,,,,,,,,452,33,47,1,0,0,response1disk,,7,19,-2,1,0,0,rectangle,19,-2,1,0,0,19,-2,1,0,0,1,64,224,51,1,,,,,,,,
,,,,,,,,,,,,,FF,,,,,,,,0.8834,,,,,,,,,,,,,,,,,,,,,,610237c272f68683ee0ae662,61036a0cb6b0254c3532739f,2021-07-29_19h58.29.887,Simcolourproject_2stim_asymm_v5,2020.2.10,Win32,60,61025ae37ef11b136ea224fe,,,,,,,,,2535,40,71,1,0,0,response1disk,,7,3,2,1,0,0,rectangle,3,2,1,0,0,3,2,1,0,0,1,65,225,45,1,,,,,,,,
,,,,,,,,,,,,,FF,,,,,,,,0.9835,,,,,,,,,,,,,,,,,,,,,,610237c272f68683ee0ae662,61036a0cb6b0254c3532739f,2021-07-29_19h58.29.887,Simcolourproject_2stim_asymm_v5,2020.2.10,Win32,60,61025ae37ef11b136ea224fe,,,,,,,,,1164,33,58,1,0,0,response1disk,,7,12,10,1,0,0,rectangle,12,10,1,0,0,12,10,1,0,0,1,66,226,90,1,,,,,,,,
,,,,,,,,,,,,,FF,,,,,,,,1.0547,,,,,,,,,,,,,,,,,,,,,,610237c272f68683ee0ae662,61036a0cb6b0254c3532739f,2021-07-29_19h58.29.887,Simcolourproject_2stim_asymm_v5,2020.2.10,Win32,60,61025ae37ef11b136ea224fe,,,,,,,,,1894,-80,-41,1,0,0,response5disk,,2,-3,-6,1,0,0,rectangle,-3,-6,1,0,0,-3,-6,1,0,0,1,67,227,147,1,,,,,,,,
,,,,,,,,,,,,,FF,,,,,,,,0.5438,,,,,,,,,,,,,,,,,,,,,,610237c272f68683ee0ae662,61036a0cb6b0254c3532739f,2021-07-29_19h58.29.887,Simcolourproject_2stim_asymm_v5,2020.2.10,Win32,60,61025ae37ef11b136ea224fe,,,,,,,,,4134,42,72,1,0,0,response1disk,,7,18,-2,1,0,0,rectangle,18,-2,1,0,0,18,-2,1,0,0,1,68,228,9,1,,,,,,,,
,,,,,,,,,,,,,FF,,,,,,,,0.4151,,,,,,,,,,,,,,,,,,,,,,610237c272f68683ee0ae662,61036a0cb6b0254c3532739f,2021-07-29_19h58.29.887,Simcolourproject_2stim_asymm_v5,2020.2.10,Win32,60,61025ae37ef11b136ea224fe,,,,,,,,,3221,39,58,1,0,0,response1disk,,7,12,-6,1,0,0,rectangle,12,-6,1,0,0,12,-6,1,0,0,1,69,229,87,1,,,,,,,,
,,,,,,,,,,,,,FF,,,,,,,,0.3801,,,,,,,,,,,,,,,,,,,,,,610237c272f68683ee0ae662,61036a0cb6b0254c3532739f,2021-07-29_19h58.29.887,Simcolourproject_2stim_asymm_v5,2020.2.10,Win32,60,61025ae37ef11b136ea224fe,,,,,,,,,218,32,62,1,0,0,response1disk,,7,12,-1,1,0,0,rectangle,12,-1,1,0,0,12,-1,1,0,0,1,70,230,126,1,,,,,,,,
,,,,,,,,,,,,,FF,,,,,,,,0.3651,,,,,,,,,,,,,,,,,,,,,,610237c272f68683ee0ae662,61036a0cb6b0254c3532739f,2021-07-29_19h58.29.887,Simcolourproject_2stim_asymm_v5,2020.2.10,Win32,60,61025ae37ef11b136ea224fe,,,,,,,,,850,26,53,1,0,0,response1disk,,7,5,3,1,0,0,rectangle,5,3,1,0,0,5,3,1,0,0,1,71,231,128,1,,,,,,,,
,,,,,,,,,,,,,FF,,,,,,,,0.4993,,,,,,,,,,,,,,,,,,,,,,610237c272f68683ee0ae662,61036a0cb6b0254c3532739f,2021-07-29_19h58.29.887,Simcolourproject_2stim_asymm_v5,2020.2.10,Win32,60,61025ae37ef11b136ea224fe,,,,,,,,,257,32,49,1,0,0,response1disk,,7,4,-2,1,0,0,rectangle,4,-2,1,0,0,4,-2,1,0,0,1,72,232,53,1,,,,,,,,
,,,,,,,,,,,,,FF,,,,,,,,0.4503,,,,,,,,,,,,,,,,,,,,,,610237c272f68683ee0ae662,61036a0cb6b0254c3532739f,2021-07-29_19h58.29.887,Simcolourproject_2stim_asymm_v5,2020.2.10,Win32,60,61025ae37ef11b136ea224fe,,,,,,,,,667,33,50,1,0,0,response1disk,,7,-12,2,1,0,0,rectangle,-12,2,1,0,0,-12,2,1,0,0,1,73,233,117,1,,,,,,,,
,,,,,,,,,,,,,FF,,,,,,,,0.4832,,,,,,,,,,,,,,,,,,,,,,610237c272f68683ee0ae662,61036a0cb6b0254c3532739f,2021-07-29_19h58.29.887,Simcolourproject_2stim_asymm_v5,2020.2.10,Win32,60,61025ae37ef11b136ea224fe,,,,,,,,,3796,19,39,1,0,0,response1disk,,7,3,2,1,0,0,rectangle,3,2,1,0,0,3,2,1,0,0,1,74,234,94,1,,,,,,,,
,,,,,,,,,,,,,FF,,,,,,,,1.3168,,,,,,,,,,,,,,,,,,,,,,610237c272f68683ee0ae662,61036a0cb6b0254c3532739f,2021-07-29_19h58.29.887,Simcolourproject_2stim_asymm_v5,2020.2.10,Win32,60,61025ae37ef11b136ea224fe,,,,,,,,,3206,71,40,1,0,0,response1disk,,6,6,4,1,0,0,rectangle,6,4,1,0,0,6,4,1,0,0,1,75,235,31,1,,,,,,,,
,,,,,,,,,,,,,FF,,,,,,,,0.4154,,,,,,,,,,,,,,,,,,,,,,610237c272f68683ee0ae662,61036a0cb6b0254c3532739f,2021-07-29_19h58.29.887,Simcolourproject_2stim_asymm_v5,2020.2.10,Win32,60,61025ae37ef11b136ea224fe,,,,,,,,,2524,47,75,1,0,0,response1disk,,7,-3,-3,1,0,0,rectangle,-3,-3,1,0,0,-3,-3,1,0,0,1,76,236,23,1,,,,,,,,
,,,,,,,,,,,,,FF,,,,,,,,1.6464,,,,,,,,,,,,,,,,,,,,,,610237c272f68683ee0ae662,61036a0cb6b0254c3532739f,2021-07-29_19h58.29.887,Simcolourproject_2stim_asymm_v5,2020.2.10,Win32,60,61025ae37ef11b136ea224fe,,,,,,,,,2837,34,-70,1,0,0,response3disk,,4,19,-9,1,0,0,rectangle,60,-30,1,0,0,6,1,1,0,0,1,77,237,106,1,,response3disk_3,TRUE,5,5,"[217,115,160,75,15,306,88,107,91,56,38,206,166,50,47,314,238,216,288,110]",1.3652,rectangle
,,,,,,,,,,,,,FF,,,,,,,,0.5828,,,,,,,,,,,,,,,,,,,,,,610237c272f68683ee0ae662,61036a0cb6b0254c3532739f,2021-07-29_19h58.29.887,Simcolourproject_2stim_asymm_v5,2020.2.10,Win32,60,61025ae37ef11b136ea224fe,,,,,,,,,2320,31,63,1,0,0,response1disk,,7,-7,-5,1,0,0,rectangle,-7,-5,1,0,0,-7,-5,1,0,0,1,78,238,108,1,,,,,,,,
,,,,,,,,,,,,,FF,,,,,,,,0.6321,,,,,,,,,,,,,,,,,,,,,,610237c272f68683ee0ae662,61036a0cb6b0254c3532739f,2021-07-29_19h58.29.887,Simcolourproject_2stim_asymm_v5,2020.2.10,Win32,60,61025ae37ef11b136ea224fe,,,,,,,,,1874,39,64,1,0,0,response1disk,,7,7,-2,1,0,0,rectangle,7,-2,1,0,0,7,-2,1,0,0,1,79,239,43,1,,,,,,,,
,,,,,,,,,,,,,FF,,,,,,,,0.5221,,,,,,,,,,,,,,,,,,,,,,610237c272f68683ee0ae662,61036a0cb6b0254c3532739f,2021-07-29_19h58.29.887,Simcolourproject_2stim_asymm_v5,2020.2.10,Win32,60,61025ae37ef11b136ea224fe,,,,,,,,,1183,35,54,1,0,0,response1disk,,7,4,-3,1,0,0,rectangle,4,-3,1,0,0,4,-3,1,0,0,1,80,240,93,1,,,,,,,,
,,,,,,,,,,,,,FF,,,,,,,,0.9661,,,,,,,,,,,,,,,,,,,,,,610237c272f68683ee0ae662,61036a0cb6b0254c3532739f,2021-07-29_19h58.29.887,Simcolourproject_2stim_asymm_v5,2020.2.10,Win32,60,61025ae37ef11b136ea224fe,,,,,,,,,721,-32,-45,1,0,0,response5disk,,3,17,-4,1,0,0,rectangle,17,-4,1,0,0,17,-4,1,0,0,1,81,241,120,1,,,,,,,,
,,,,,,,,,,,,,FF,,,,,,,,1.1331,,,,,,,,,,,,,,,,,,,,,,610237c272f68683ee0ae662,61036a0cb6b0254c3532739f,2021-07-29_19h58.29.887,Simcolourproject_2stim_asymm_v5,2020.2.10,Win32,60,61025ae37ef11b136ea224fe,,,,,,,,,1156,85,-33,1,0,0,response3disk,,5,-9,1,1,0,0,rectangle,-9,1,1,0,0,-9,1,1,0,0,1,82,242,19,1,,,,,,,,
,,,,,,,,,,,,,FF,,,,,,,,0.5331,,,,,,,,,,,,,,,,,,,,,,610237c272f68683ee0ae662,61036a0cb6b0254c3532739f,2021-07-29_19h58.29.887,Simcolourproject_2stim_asymm_v5,2020.2.10,Win32,60,61025ae37ef11b136ea224fe,,,,,,,,,3740,25,52,1,0,0,response1disk,,7,1,-9,1,0,0,rectangle,1,-9,1,0,0,1,-9,1,0,0,1,83,243,61,1,,,,,,,,
,,,,,,,,,,,,,FF,,,,,,,,0.7836,,,,,,,,,,,,,,,,,,,,,,610237c272f68683ee0ae662,61036a0cb6b0254c3532739f,2021-07-29_19h58.29.887,Simcolourproject_2stim_asymm_v5,2020.2.10,Win32,60,61025ae37ef11b136ea224fe,,,,,,,,,554,34,49,1,0,0,response1disk,,7,6,2,1,0,0,rectangle,6,2,1,0,0,6,2,1,0,0,1,84,244,84,1,,,,,,,,
,,,,,,,,,,,,,FF,,,,,,,,0.5002,,,,,,,,,,,,,,,,,,,,,,610237c272f68683ee0ae662,61036a0cb6b0254c3532739f,2021-07-29_19h58.29.887,Simcolourproject_2stim_asymm_v5,2020.2.10,Win32,60,61025ae37ef11b136ea224fe,,,,,,,,,552,26,53,1,0,0,response1disk,,7,-5,4,1,0,0,rectangle,-5,4,1,0,0,-5,4,1,0,0,1,85,245,141,1,,,,,,,,
,,,,,,,,,,,,,FF,,,,,,,,0.3998,,,,,,,,,,,,,,,,,,,,,,610237c272f68683ee0ae662,61036a0cb6b0254c3532739f,2021-07-29_19h58.29.887,Simcolourproject_2stim_asymm_v5,2020.2.10,Win32,60,61025ae37ef11b136ea224fe,,,,,,,,,2109,34,50,1,0,0,response1disk,,7,4,1,1,0,0,rectangle,4,1,1,0,0,4,1,1,0,0,1,86,246,144,1,,,,,,,,
,,,,,,,,,,,,,FF,,,,,,,,1.75,,,,,,,,,,,,,,,,,,,,,,610237c272f68683ee0ae662,61036a0cb6b0254c3532739f,2021-07-29_19h58.29.887,Simcolourproject_2stim_asymm_v5,2020.2.10,Win32,60,61025ae37ef11b136ea224fe,,,,,,,,,2840,49,-77,1,0,0,response3disk,,4,6,1,1,0,0,rectangle,6,1,1,0,0,6,1,1,0,0,1,87,247,0,1,,,,,,,,
,,,,,,,,,,,,,FF,,,,,,,,0.9502,,,,,,,,,,,,,,,,,,,,,,610237c272f68683ee0ae662,61036a0cb6b0254c3532739f,2021-07-29_19h58.29.887,Simcolourproject_2stim_asymm_v5,2020.2.10,Win32,60,61025ae37ef11b136ea224fe,,,,,,,,,1744,-48,-33,1,0,0,response5disk,,2,-3,-3,1,0,0,rectangle,-3,-3,1,0,0,-3,-3,1,0,0,1,88,248,55,1,,,,,,,,
,,,,,,,,,,,,,FF,,,,,,,,0.4995,,,,,,,,,,,,,,,,,,,,,,610237c272f68683ee0ae662,61036a0cb6b0254c3532739f,2021-07-29_19h58.29.887,Simcolourproject_2stim_asymm_v5,2020.2.10,Win32,60,61025ae37ef11b136ea224fe,,,,,,,,,2286,26,56,1,0,0,response1disk,,7,12,11,1,0,0,rectangle,12,11,1,0,0,12,11,1,0,0,1,89,249,71,1,,,,,,,,
,,,,,,,,,,,,,FF,,,,,,,,0.8338,,,,,,,,,,,,,,,,,,,,,,610237c272f68683ee0ae662,61036a0cb6b0254c3532739f,2021-07-29_19h58.29.887,Simcolourproject_2stim_asymm_v5,2020.2.10,Win32,60,61025ae37ef11b136ea224fe,,,,,,,,,263,-30,-66,1,0,0,response5disk,,3,-5,-5,1,0,0,rectangle,-5,-5,1,0,0,-5,-5,1,0,0,1,90,250,135,1,,,,,,,,
,,,,,,,,,,,,,FF,,,,,,,,0.534,,,,,,,,,,,,,,,,,,,,,,610237c272f68683ee0ae662,61036a0cb6b0254c3532739f,2021-07-29_19h58.29.887,Simcolourproject_2stim_asymm_v5,2020.2.10,Win32,60,61025ae37ef11b136ea224fe,,,,,,,,,1913,49,64,1,0,0,response1disk,,7,-7,6,1,0,0,rectangle,-7,6,1,0,0,-7,6,1,0,0,1,91,251,114,1,,,,,,,,
,,,,,,,,,,,,,FF,,,,,,,,0.3836,,,,,,,,,,,,,,,,,,,,,,610237c272f68683ee0ae662,61036a0cb6b0254c3532739f,2021-07-29_19h58.29.887,Simcolourproject_2stim_asymm_v5,2020.2.10,Win32,60,61025ae37ef11b136ea224fe,,,,,,,,,4137,38,62,1,0,0,response1disk,,7,4,-13,1,0,0,rectangle,4,-13,1,0,0,4,-13,1,0,0,1,92,252,151,1,,,,,,,,
,,,,,,,,,,,,,FF,,,,,,,,1.7799,,,,,,,,,,,,,,,,,,,,,,610237c272f68683ee0ae662,61036a0cb6b0254c3532739f,2021-07-29_19h58.29.887,Simcolourproject_2stim_asymm_v5,2020.2.10,Win32,60,61025ae37ef11b136ea224fe,,,,,,,,,3868,73,-42,1,0,0,response3disk,,5,0,2,1,0,0,rectangle,0,2,1,0,0,0,2,1,0,0,1,93,253,32,1,,,,,,,,
,,,,,,,,,,,,,FF,,,,,,,,1.317,,,,,,,,,,,,,,,,,,,,,,610237c272f68683ee0ae662,61036a0cb6b0254c3532739f,2021-07-29_19h58.29.887,Simcolourproject_2stim_asymm_v5,2020.2.10,Win32,60,61025ae37ef11b136ea224fe,,,,,,,,,6,34,-65,1,0,0,response3disk,,4,-1,3,1,0,0,rectangle,-1,3,1,0,0,-1,3,1,0,0,1,94,254,17,1,,,,,,,,
,,,,,,,,,,,,,FF,,,,,,,,0.5461,,,,,,,,,,,,,,,,,,,,,,610237c272f68683ee0ae662,61036a0cb6b0254c3532739f,2021-07-29_19h58.29.887,Simcolourproject_2stim_asymm_v5,2020.2.10,Win32,60,61025ae37ef11b136ea224fe,,,,,,,,,2754,25,70,1,0,0,response1disk,,7,1,9,1,0,0,rectangle,1,9,1,0,0,1,9,1,0,0,1,95,255,79,1,,,,,,,,
,,,,,,,,,,,,,FF,,,,,,,,0.3929,,,,,,,,,,,,,,,,,,,,,,610237c272f68683ee0ae662,61036a0cb6b0254c3532739f,2021-07-29_19h58.29.887,Simcolourproject_2stim_asymm_v5,2020.2.10,Win32,60,61025ae37ef11b136ea224fe,,,,,,,,,1167,25,51,1,0,0,response1disk,,7,12,10,1,0,0,rectangle,12,10,1,0,0,12,10,1,0,0,1,96,256,157,1,,,,,,,,
,,,,,,,,,,,,,FF,,,,,,,,2.3177,,,,,,,,,,,,,,,,,,,,,,610237c272f68683ee0ae662,61036a0cb6b0254c3532739f,2021-07-29_19h58.29.887,Simcolourproject_2stim_asymm_v5,2020.2.10,Win32,60,61025ae37ef11b136ea224fe,,,,,,,,,3162,-24,-84,1,0,0,response5disk,,3,-5,1,1,0,0,rectangle,-5,1,1,0,0,-5,1,1,0,0,1,97,257,91,1,,,,,,,,
,,,,,,,,,,,,,FF,,,,,,,,0.4334,,,,,,,,,,,,,,,,,,,,,,610237c272f68683ee0ae662,61036a0cb6b0254c3532739f,2021-07-29_19h58.29.887,Simcolourproject_2stim_asymm_v5,2020.2.10,Win32,60,61025ae37ef11b136ea224fe,,,,,,,,,1780,36,64,1,0,0,response1disk,,7,15,-3,1,0,0,rectangle,15,-3,1,0,0,15,-3,1,0,0,1,98,258,133,1,,,,,,,,
,,,,,,,,,,,,,FF,,,,,,,,0.6166,,,,,,,,,,,,,,,,,,,,,,610237c272f68683ee0ae662,61036a0cb6b0254c3532739f,2021-07-29_19h58.29.887,Simcolourproject_2stim_asymm_v5,2020.2.10,Win32,60,61025ae37ef11b136ea224fe,,,,,,,,,1255,23,72,1,0,0,response1disk,,7,2,5,1,0,0,rectangle,2,5,1,0,0,2,5,1,0,0,1,99,259,10,1,,,,,,,,
,,,,,,,,,,,,,FF,,,,,,,,0.7502,,,,,,,,,,,,,,,,,,,,,,610237c272f68683ee0ae662,61036a0cb6b0254c3532739f,2021-07-29_19h58.29.887,Simcolourproject_2stim_asymm_v5,2020.2.10,Win32,60,61025ae37ef11b136ea224fe,,,,,,,,,2157,24,52,1,0,0,response1disk,,7,3,-11,1,0,0,rectangle,3,-11,1,0,0,3,-11,1,0,0,1,100,260,54,1,,,,,,,,
,,,,,,,,,,,,,FF,,,,,,,,0.9001,,,,,,,,,,,,,,,,,,,,,,610237c272f68683ee0ae662,61036a0cb6b0254c3532739f,2021-07-29_19h58.29.887,Simcolourproject_2stim_asymm_v5,2020.2.10,Win32,60,61025ae37ef11b136ea224fe,,,,,,,,,3757,29,67,1,0,0,response1disk,,7,18,6,1,0,0,rectangle,18,6,1,0,0,18,6,1,0,0,1,101,261,66,1,,,,,,,,
,,,,,,,,,,,,,FF,,,,,,,,0.4003,,,,,,,,,,,,,,,,,,,,,,610237c272f68683ee0ae662,61036a0cb6b0254c3532739f,2021-07-29_19h58.29.887,Simcolourproject_2stim_asymm_v5,2020.2.10,Win32,60,61025ae37ef11b136ea224fe,,,,,,,,,3119,31,63,1,0,0,response1disk,,7,12,-1,1,0,0,rectangle,12,-1,1,0,0,12,-1,1,0,0,1,102,262,125,1,,,,,,,,
,,,,,,,,,,,,,FF,,,,,,,,0.3668,,,,,,,,,,,,,,,,,,,,,,610237c272f68683ee0ae662,61036a0cb6b0254c3532739f,2021-07-29_19h58.29.887,Simcolourproject_2stim_asymm_v5,2020.2.10,Win32,60,61025ae37ef11b136ea224fe,,,,,,,,,2117,25,57,1,0,0,response1disk,,7,0,0,1,0,0,rectangle,0,0,1,0,0,0,0,1,0,0,1,103,263,8,1,,,,,,,,
,,,,,,,,,,,,,FF,,,,,,,,0.7819,,,,,,,,,,,,,,,,,,,,,,610237c272f68683ee0ae662,61036a0cb6b0254c3532739f,2021-07-29_19h58.29.887,Simcolourproject_2stim_asymm_v5,2020.2.10,Win32,60,61025ae37ef11b136ea224fe,,,,,,,,,1251,22,49,1,0,0,response1disk,,7,8,-1,1,0,0,rectangle,8,-1,1,0,0,8,-1,1,0,0,1,104,264,49,1,,,,,,,,
,,,,,,,,,,,,,FF,,,,,,,,1.2673,,,,,,,,,,,,,,,,,,,,,,610237c272f68683ee0ae662,61036a0cb6b0254c3532739f,2021-07-29_19h58.29.887,Simcolourproject_2stim_asymm_v5,2020.2.10,Win32,60,61025ae37ef11b136ea224fe,,,,,,,,,1466,-33,-53,1,0,0,response5disk,,3,-18,-11,1,0,0,rectangle,-18,-11,1,0,0,-18,-11,1,0,0,1,105,265,105,1,,,,,,,,
,,,,,,,,,,,,,FF,,,,,,,,0.4496,,,,,,,,,,,,,,,,,,,,,,610237c272f68683ee0ae662,61036a0cb6b0254c3532739f,2021-07-29_19h58.29.887,Simcolourproject_2stim_asymm_v5,2020.2.10,Win32,60,61025ae37ef11b136ea224fe,,,,,,,,,4038,29,45,1,0,0,response1disk,,7,12,-2,1,0,0,rectangle,12,-2,1,0,0,12,-2,1,0,0,1,106,266,47,1,,,,,,,,
,,,,,,,,,,,,,FF,,,,,,,,1.4664,,,,,,,,,,,,,,,,,,,,,,610237c272f68683ee0ae662,61036a0cb6b0254c3532739f,2021-07-29_19h58.29.887,Simcolourproject_2stim_asymm_v5,2020.2.10,Win32,60,61025ae37ef11b136ea224fe,,,,,,,,,2768,32,-62,1,0,0,response3disk,,4,6,-3,1,0,0,rectangle,6,-3,1,0,0,6,-3,1,0,0,1,107,267,1,1,,,,,,,,
,,,,,,,,,,,,,FF,,,,,,,,0.4508,,,,,,,,,,,,,,,,,,,,,,610237c272f68683ee0ae662,61036a0cb6b0254c3532739f,2021-07-29_19h58.29.887,Simcolourproject_2stim_asymm_v5,2020.2.10,Win32,60,61025ae37ef11b136ea224fe,,,,,,,,,1015,33,57,1,0,0,response1disk,,7,12,1,1,0,0,rectangle,12,1,1,0,0,12,1,1,0,0,1,108,268,99,1,,,,,,,,
,,,,,,,,,,,,,FF,,,,,,,,0.9612,,,,,,,,,,,,,,,,,,,,,,610237c272f68683ee0ae662,61036a0cb6b0254c3532739f,2021-07-29_19h58.29.887,Simcolourproject_2stim_asymm_v5,2020.2.10,Win32,60,61025ae37ef11b136ea224fe,,,,,,,,,1054,-50,-32,1,0,0,response5disk,,2,-6,9,1,0,0,rectangle,-6,9,1,0,0,-6,9,1,0,0,1,109,269,34,1,,,,,,,,
,,,,,,,,,,,,,FF,,,,,,,,1.1504,,,,,,,,,,,,,,,,,,,,,,610237c272f68683ee0ae662,61036a0cb6b0254c3532739f,2021-07-29_19h58.29.887,Simcolourproject_2stim_asymm_v5,2020.2.10,Win32,60,61025ae37ef11b136ea224fe,,,,,,,,,3188,-77,-36,1,0,0,response5disk,,2,-9,5,1,0,0,rectangle,-9,5,1,0,0,-9,5,1,0,0,1,110,270,85,1,,,,,,,,
,,,,,,,,,,,,,FF,,,,,,,,1.2336,,,,,,,,,,,,,,,,,,,,,,610237c272f68683ee0ae662,61036a0cb6b0254c3532739f,2021-07-29_19h58.29.887,Simcolourproject_2stim_asymm_v5,2020.2.10,Win32,60,61025ae37ef11b136ea224fe,,,,,,,,,3752,35,65,1,0,0,response1disk,,7,3,14,1,0,0,rectangle,3,14,1,0,0,3,14,1,0,0,1,111,271,81,1,,,,,,,,
,,,,,,,,,,,,,FF,,,,,,,,0.4841,,,,,,,,,,,,,,,,,,,,,,610237c272f68683ee0ae662,61036a0cb6b0254c3532739f,2021-07-29_19h58.29.887,Simcolourproject_2stim_asymm_v5,2020.2.10,Win32,60,61025ae37ef11b136ea224fe,,,,,,,,,1210,37,66,1,0,0,response1disk,,7,13,1,1,0,0,rectangle,13,1,1,0,0,13,1,1,0,0,1,112,272,98,1,,,,,,,,
,,,,,,,,,,,,,FF,,,,,,,,0.7377,,,,,,,,,,,,,,,,,,,,,,610237c272f68683ee0ae662,61036a0cb6b0254c3532739f,2021-07-29_19h58.29.887,Simcolourproject_2stim_asymm_v5,2020.2.10,Win32,60,61025ae37ef11b136ea224fe,,,,,,,,,2020,26,51,1,0,0,response1disk,,7,2,1,1,0,0,rectangle,2,1,1,0,0,2,1,1,0,0,1,113,273,68,1,,,,,,,,
,,,,,,,,,,,,,FF,,,,,,,,0.4668,,,,,,,,,,,,,,,,,,,,,,610237c272f68683ee0ae662,61036a0cb6b0254c3532739f,2021-07-29_19h58.29.887,Simcolourproject_2stim_asymm_v5,2020.2.10,Win32,60,61025ae37ef11b136ea224fe,,,,,,,,,3692,21,48,1,0,0,response1disk,,7,0,0,1,0,0,rectangle,0,0,1,0,0,0,0,1,0,0,1,114,274,150,1,,,,,,,,
,,,,,,,,,,,,,FF,,,,,,,,0.5169,,,,,,,,,,,,,,,,,,,,,,610237c272f68683ee0ae662,61036a0cb6b0254c3532739f,2021-07-29_19h58.29.887,Simcolourproject_2stim_asymm_v5,2020.2.10,Win32,60,61025ae37ef11b136ea224fe,,,,,,,,,699,26,41,1,0,0,response1disk,,7,0,-9,1,0,0,rectangle,0,-9,1,0,0,0,-9,1,0,0,1,115,275,46,1,,,,,,,,
,,,,,,,,,,,,,FF,,,,,,,,0.4171,,,,,,,,,,,,,,,,,,,,,,610237c272f68683ee0ae662,61036a0cb6b0254c3532739f,2021-07-29_19h58.29.887,Simcolourproject_2stim_asymm_v5,2020.2.10,Win32,60,61025ae37ef11b136ea224fe,,,,,,,,,2794,25,36,1,0,0,response1disk,,7,-2,-1,1,0,0,rectangle,-2,-1,1,0,0,-2,-1,1,0,0,1,116,276,15,1,,,,,,,,
,,,,,,,,,,,,,FF,,,,,,,,0.4499,,,,,,,,,,,,,,,,,,,,,,610237c272f68683ee0ae662,61036a0cb6b0254c3532739f,2021-07-29_19h58.29.887,Simcolourproject_2stim_asymm_v5,2020.2.10,Win32,60,61025ae37ef11b136ea224fe,,,,,,,,,1947,30,47,1,0,0,response1disk,,7,0,1,1,0,0,rectangle,0,1,1,0,0,0,1,1,0,0,1,117,277,76,1,,,,,,,,
,,,,,,,,,,,,,FF,,,,,,,,0.406,,,,,,,,,,,,,,,,,,,,,,610237c272f68683ee0ae662,61036a0cb6b0254c3532739f,2021-07-29_19h58.29.887,Simcolourproject_2stim_asymm_v5,2020.2.10,Win32,60,61025ae37ef11b136ea224fe,,,,,,,,,2514,27,46,1,0,0,response1disk,,7,7,0,1,0,0,rectangle,7,0,1,0,0,7,0,1,0,0,1,118,278,97,1,,,,,,,,
,,,,,,,,,,,,,FF,,,,,,,,0.4026,,,,,,,,,,,,,,,,,,,,,,610237c272f68683ee0ae662,61036a0cb6b0254c3532739f,2021-07-29_19h58.29.887,Simcolourproject_2stim_asymm_v5,2020.2.10,Win32,60,61025ae37ef11b136ea224fe,,,,,,,,,2388,20,38,1,0,0,response1disk,,7,2,0,1,0,0,rectangle,2,0,1,0,0,2,0,1,0,0,1,119,279,100,1,,,,,,,,
,,,,,,,,,,,,,FF,,,,,,,,0.4334,,,,,,,,,,,,,,,,,,,,,,610237c272f68683ee0ae662,61036a0cb6b0254c3532739f,2021-07-29_19h58.29.887,Simcolourproject_2stim_asymm_v5,2020.2.10,Win32,60,61025ae37ef11b136ea224fe,,,,,,,,,3075,25,48,1,0,0,response1disk,,7,12,6,1,0,0,rectangle,12,6,1,0,0,12,6,1,0,0,1,120,280,112,1,,,,,,,,
,,,,,,,,,,,,,FF,,,,,,,,0.4172,,,,,,,,,,,,,,,,,,,,,,610237c272f68683ee0ae662,61036a0cb6b0254c3532739f,2021-07-29_19h58.29.887,Simcolourproject_2stim_asymm_v5,2020.2.10,Win32,60,61025ae37ef11b136ea224fe,,,,,,,,,1319,20,46,1,0,0,response1disk,,7,-1,10,1,0,0,rectangle,-1,10,1,0,0,-1,10,1,0,0,1,121,281,65,1,,,,,,,,
,,,,,,,,,,,,,FF,,,,,,,,0.4836,,,,,,,,,,,,,,,,,,,,,,610237c272f68683ee0ae662,61036a0cb6b0254c3532739f,2021-07-29_19h58.29.887,Simcolourproject_2stim_asymm_v5,2020.2.10,Win32,60,61025ae37ef11b136ea224fe,,,,,,,,,416,22,52,1,0,0,response1disk,,7,5,8,1,0,0,rectangle,5,8,1,0,0,5,8,1,0,0,1,122,282,59,1,,,,,,,,
,,,,,,,,,,,,,FF,,,,,,,,1.5833,,,,,,,,,,,,,,,,,,,,,,610237c272f68683ee0ae662,61036a0cb6b0254c3532739f,2021-07-29_19h58.29.887,Simcolourproject_2stim_asymm_v5,2020.2.10,Win32,60,61025ae37ef11b136ea224fe,,,,,,,,,4267,-46,-89,1,0,0,response5disk,,3,-4,2,1,0,0,rectangle,-4,2,1,0,0,-4,2,1,0,0,1,123,283,156,1,,,,,,,,
,,,,,,,,,,,,,FF,,,,,,,,1.3028,,,,,,,,,,,,,,,,,,,,,,610237c272f68683ee0ae662,61036a0cb6b0254c3532739f,2021-07-29_19h58.29.887,Simcolourproject_2stim_asymm_v5,2020.2.10,Win32,60,61025ae37ef11b136ea224fe,,,,,,,,,3585,-68,-31,1,0,0,response5disk,,2,10,6,1,0,0,rectangle,10,6,1,0,0,10,6,1,0,0,1,124,284,146,1,,,,,,,,
,,,,,,,,,,,,,FF,,,,,,,,0.4998,,,,,,,,,,,,,,,,,,,,,,610237c272f68683ee0ae662,61036a0cb6b0254c3532739f,2021-07-29_19h58.29.887,Simcolourproject_2stim_asymm_v5,2020.2.10,Win32,60,61025ae37ef11b136ea224fe,,,,,,,,,3731,21,49,1,0,0,response1disk,,7,13,7,1,0,0,rectangle,13,7,1,0,0,13,7,1,0,0,1,125,285,107,1,,,,,,,,
,,,,,,,,,,,,,FF,,,,,,,,1.5057,,,,,,,,,,,,,,,,,,,,,,610237c272f68683ee0ae662,61036a0cb6b0254c3532739f,2021-07-29_19h58.29.887,Simcolourproject_2stim_asymm_v5,2020.2.10,Win32,60,61025ae37ef11b136ea224fe,,,,,,,,,2844,68,-35,1,0,0,response3disk,,5,-11,4,1,0,0,rectangle,-11,4,1,0,0,-11,4,1,0,0,1,126,286,22,1,,,,,,,,
,,,,,,,,,,,,,FF,,,,,,,,0.3837,,,,,,,,,,,,,,,,,,,,,,610237c272f68683ee0ae662,61036a0cb6b0254c3532739f,2021-07-29_19h58.29.887,Simcolourproject_2stim_asymm_v5,2020.2.10,Win32,60,61025ae37ef11b136ea224fe,,,,,,,,,1334,22,50,1,0,0,response1disk,,7,-1,10,1,0,0,rectangle,-47,-87,1,0,0,-8,-1,1,0,0,1,127,287,129,1,,response5disk_3,TRUE,3,3,"[217,115,160,75,15,306,88,107,91,56,38,206,166,50,47,314,238,216,288,110]",1.7315,rectangle
,,,,,,,,,,,,,FF,,,,,,,,0.6817,,,,,,,,,,,,,,,,,,,,,,610237c272f68683ee0ae662,61036a0cb6b0254c3532739f,2021-07-29_19h58.29.887,Simcolourproject_2stim_asymm_v5,2020.2.10,Win32,60,61025ae37ef11b136ea224fe,,,,,,,,,2111,26,56,1,0,0,response1disk,,7,0,6,1,0,0,rectangle,0,6,1,0,0,0,6,1,0,0,1,128,288,136,1,,,,,,,,
,,,,,,,,,,,,,FF,,,,,,,,0.4337,,,,,,,,,,,,,,,,,,,,,,610237c272f68683ee0ae662,61036a0cb6b0254c3532739f,2021-07-29_19h58.29.887,Simcolourproject_2stim_asymm_v5,2020.2.10,Win32,60,61025ae37ef11b136ea224fe,,,,,,,,,2021,24,36,1,0,0,response1disk,,7,8,-3,1,0,0,rectangle,8,-3,1,0,0,8,-3,1,0,0,1,129,289,42,1,,,,,,,,
,,,,,,,,,,,,,FF,,,,,,,,0.4172,,,,,,,,,,,,,,,,,,,,,,610237c272f68683ee0ae662,61036a0cb6b0254c3532739f,2021-07-29_19h58.29.887,Simcolourproject_2stim_asymm_v5,2020.2.10,Win32,60,61025ae37ef11b136ea224fe,,,,,,,,,2092,28,52,1,0,0,response1disk,,7,2,-8,1,0,0,rectangle,2,-8,1,0,0,2,-8,1,0,0,1,130,290,70,1,,,,,,,,
,,,,,,,,,,,,,FF,,,,,,,,0.4834,,,,,,,,,,,,,,,,,,,,,,610237c272f68683ee0ae662,61036a0cb6b0254c3532739f,2021-07-29_19h58.29.887,Simcolourproject_2stim_asymm_v5,2020.2.10,Win32,60,61025ae37ef11b136ea224fe,,,,,,,,,3932,26,39,1,0,0,response1disk,,7,5,-1,1,0,0,rectangle,5,-1,1,0,0,5,-1,1,0,0,1,131,291,24,1,,,,,,,,
,,,,,,,,,,,,,FF,,,,,,,,0.484,,,,,,,,,,,,,,,,,,,,,,610237c272f68683ee0ae662,61036a0cb6b0254c3532739f,2021-07-29_19h58.29.887,Simcolourproject_2stim_asymm_v5,2020.2.10,Win32,60,61025ae37ef11b136ea224fe,,,,,,,,,4029,29,56,1,0,0,response1disk,,7,5,3,1,0,0,rectangle,5,3,1,0,0,5,3,1,0,0,1,132,292,104,1,,,,,,,,
,,,,,,,,,,,,,FF,,,,,,,,0.3529,,,,,,,,,,,,,,,,,,,,,,610237c272f68683ee0ae662,61036a0cb6b0254c3532739f,2021-07-29_19h58.29.887,Simcolourproject_2stim_asymm_v5,2020.2.10,Win32,60,61025ae37ef11b136ea224fe,,,,,,,,,147,31,54,1,0,0,response1disk,,7,9,9,1,0,0,rectangle,9,9,1,0,0,9,9,1,0,0,1,133,293,28,1,,,,,,,,
,,,,,,,,,,,,,FF,,,,,,,,0.6833,,,,,,,,,,,,,,,,,,,,,,610237c272f68683ee0ae662,61036a0cb6b0254c3532739f,2021-07-29_19h58.29.887,Simcolourproject_2stim_asymm_v5,2020.2.10,Win32,60,61025ae37ef11b136ea224fe,,,,,,,,,2637,44,69,1,0,0,response1disk,,7,9,3,1,0,0,rectangle,9,3,1,0,0,9,3,1,0,0,1,134,294,152,1,,,,,,,,
,,,,,,,,,,,,,FF,,,,,,,,1.8502,,,,,,,,,,,,,,,,,,,,,,610237c272f68683ee0ae662,61036a0cb6b0254c3532739f,2021-07-29_19h58.29.887,Simcolourproject_2stim_asymm_v5,2020.2.10,Win32,60,61025ae37ef11b136ea224fe,,,,,,,,,192,27,-75,1,0,0,response3disk,,4,11,-6,1,0,0,rectangle,11,-6,1,0,0,11,-6,1,0,0,1,135,295,75,1,,,,,,,,
,,,,,,,,,,,,,FF,,,,,,,,2.5837,,,,,,,,,,,,,,,,,,,,,,610237c272f68683ee0ae662,61036a0cb6b0254c3532739f,2021-07-29_19h58.29.887,Simcolourproject_2stim_asymm_v5,2020.2.10,Win32,60,61025ae37ef11b136ea224fe,,,,,,,,,1161,80,49,1,0,0,response1disk,,6,1,-3,1,0,0,rectangle,1,-3,1,0,0,1,-3,1,0,0,1,136,296,13,1,,,,,,,,
,,,,,,,,,,,,,FF,,,,,,,,1.7459,,,,,,,,,,,,,,,,,,,,,,610237c272f68683ee0ae662,61036a0cb6b0254c3532739f,2021-07-29_19h58.29.887,Simcolourproject_2stim_asymm_v5,2020.2.10,Win32,60,61025ae37ef11b136ea224fe,,,,,,,,,3971,-67,-50,1,0,0,response5disk,,2,-16,-4,1,0,0,rectangle,-16,-4,1,0,0,-16,-4,1,0,0,1,137,297,121,1,,,,,,,,
,,,,,,,,,,,,,FF,,,,,,,,0.4328,,,,,,,,,,,,,,,,,,,,,,610237c272f68683ee0ae662,61036a0cb6b0254c3532739f,2021-07-29_19h58.29.887,Simcolourproject_2stim_asymm_v5,2020.2.10,Win32,60,61025ae37ef11b136ea224fe,,,,,,,,,50,22,53,1,0,0,response1disk,,7,9,0,1,0,0,rectangle,9,0,1,0,0,9,0,1,0,0,1,138,298,118,1,,,,,,,,
,,,,,,,,,,,,,FF,,,,,,,,0.917,,,,,,,,,,,,,,,,,,,,,,610237c272f68683ee0ae662,61036a0cb6b0254c3532739f,2021-07-29_19h58.29.887,Simcolourproject_2stim_asymm_v5,2020.2.10,Win32,60,61025ae37ef11b136ea224fe,,,,,,,,,1624,27,36,1,0,0,response1disk,,7,11,-1,1,0,0,rectangle,11,-1,1,0,0,11,-1,1,0,0,1,139,299,11,1,,,,,,,,
,,,,,,,,,,,,,FF,,,,,,,,0.4169,,,,,,,,,,,,,,,,,,,,,,610237c272f68683ee0ae662,61036a0cb6b0254c3532739f,2021-07-29_19h58.29.887,Simcolourproject_2stim_asymm_v5,2020.2.10,Win32,60,61025ae37ef11b136ea224fe,,,,,,,,,121,19,44,1,0,0,response1disk,,7,7,2,1,0,0,rectangle,7,2,1,0,0,7,2,1,0,0,1,140,300,149,1,,,,,,,,
,,,,,,,,,,,,,FF,,,,,,,,0.3675,,,,,,,,,,,,,,,,,,,,,,610237c272f68683ee0ae662,61036a0cb6b0254c3532739f,2021-07-29_19h58.29.887,Simcolourproject_2stim_asymm_v5,2020.2.10,Win32,60,61025ae37ef11b136ea224fe,,,,,,,,,27,31,42,1,0,0,response1disk,,7,12,6,1,0,0,rectangle,12,6,1,0,0,12,6,1,0,0,1,141,301,123,1,,,,,,,,
,,,,,,,,,,,,,FF,,,,,,,,0.4166,,,,,,,,,,,,,,,,,,,,,,610237c272f68683ee0ae662,61036a0cb6b0254c3532739f,2021-07-29_19h58.29.887,Simcolourproject_2stim_asymm_v5,2020.2.10,Win32,60,61025ae37ef11b136ea224fe,,,,,,,,,1109,33,41,1,0,0,response1disk,,7,7,1,1,0,0,rectangle,7,1,1,0,0,7,1,1,0,0,1,142,302,62,1,,,,,,,,
,,,,,,,,,,,,,FF,,,,,,,,2.4712,,,,,,,,,,,,,,,,,,,,,,610237c272f68683ee0ae662,61036a0cb6b0254c3532739f,2021-07-29_19h58.29.887,Simcolourproject_2stim_asymm_v5,2020.2.10,Win32,60,61025ae37ef11b136ea224fe,,,,,,,,,479,33,52,1,0,0,response1disk,,7,9,6,1,0,0,rectangle,9,6,1,0,0,9,6,1,0,0,1,143,303,88,1,,,,,,,,
,,,,,,,,,,,,,FF,,,,,,,,0.8002,,,,,,,,,,,,,,,,,,,,,,610237c272f68683ee0ae662,61036a0cb6b0254c3532739f,2021-07-29_19h58.29.887,Simcolourproject_2stim_asymm_v5,2020.2.10,Win32,60,61025ae37ef11b136ea224fe,,,,,,,,,3079,43,56,1,0,0,response1disk,,7,11,10,1,0,0,rectangle,11,10,1,0,0,11,10,1,0,0,1,144,304,86,1,,,,,,,,
