key_resp.keys,key_resp.rt,key_resp_14.keys,key_resp_14.rt,key_resp_15.keys,key_resp_15.rt,key_resp_17.keys,key_resp_17.rt,key_resp_9.keys,key_resp_9.rt,key_resp_10.keys,key_resp_10.rt,practice_comparison,Ecc,mouse_5.x,mouse_5.y,mouse_5.leftButton,mouse_5.midButton,mouse_5.rightButton,mouse_5.clicked_name,pracsimilarity,response_time,mouse_10.x,mouse_10.y,mouse_10.leftButton,mouse_10.midButton,mouse_10.rightButton,mouse_10.clicked_name,mouse_7.x,mouse_7.y,mouse_7.leftButton,mouse_7.midButton,mouse_7.rightButton,mouse_6.x,mouse_6.y,mouse_6.leftButton,mouse_6.midButton,mouse_6.rightButton,duringprac.thisRepN,duringprac.thisTrialN,duringprac.thisN,duringprac.thisIndex,duringprac.ran,participant,session,date,expName,psychopyVersion,OS,frameRate,study_id,mouse_7.clicked_name,catchpracsimilarity,catch_response_time,catchnumberprac,catchtrialorderprac,mouse_6.clicked_name,key_resp_22.keys,key_resp_22.rt,realcomparison,mouse.x,mouse.y,mouse.leftButton,mouse.midButton,mouse.rightButton,mouse.clicked_name,Colour2,similarity,mouse_2.x,mouse_2.y,mouse_2.leftButton,mouse_2.midButton,mouse_2.rightButton,mouse_2.clicked_name,mouse_3.x,mouse_3.y,mouse_3.leftButton,mouse_3.midButton,mouse_3.rightButton,mouse_11.x,mouse_11.y,mouse_11.leftButton,mouse_11.midButton,mouse_11.rightButton,trials_2.thisRepN,trials_2.thisTrialN,trials_2.thisN,trials_2.thisIndex,trials_2.ran,Colour1,mouse_3.clicked_name,catchornah,catchsimilarity,catchnumber,catchtrialorder,catchRT,mouse_11.clicked_name
space,1.5327,space,9.8278,space,10.7405,space,5.9666,space,2.2829,space,4.3394,73,PF,87,51,1,0,0,response1disk_5,6,7.109,8,-1,1,0,0,rectangle_8,8,-1,1,0,0,8,-1,1,0,0,0,0,0,2,1,61022a84042923c389bf1499,61036870bc5fb54d72d13325,2021-07-29_22h53.38.980,Simcolourproject_2stim_asymm_v5,2020.2.10,Win32,60,61025ae37ef11b136ea224fe,,,,,,,,,,,,,,,,,,,,,,,,,,,,,,,,,,,,,,,,,,,,,,
,,,,,,,,,,,,22,PF,44,76,1,0,0,response1disk_5,7,2.5201,15,15,1,0,0,rectangle_8,-24,-54,1,0,0,19,0,1,0,0,0,1,1,6,1,61022a84042923c389bf1499,61036870bc5fb54d72d13325,2021-07-29_22h53.38.980,Simcolourproject_2stim_asymm_v5,2020.2.10,Win32,60,61025ae37ef11b136ea224fe,response5disk_7,3,2.8179,3,"[2,5]",rectangle_4,,,,,,,,,,,,,,,,,,,,,,,,,,,,,,,,,,,,,,,,
,,,,,,,,,,,,38,PF,31,47,1,0,0,response1disk_5,7,1.3617,3,-7,1,0,0,rectangle_8,3,-7,1,0,0,3,-7,1,0,0,0,2,2,1,1,61022a84042923c389bf1499,61036870bc5fb54d72d13325,2021-07-29_22h53.38.980,Simcolourproject_2stim_asymm_v5,2020.2.10,Win32,60,61025ae37ef11b136ea224fe,,,,,,,,,,,,,,,,,,,,,,,,,,,,,,,,,,,,,,,,,,,,,,
,,,,,,,,,,,,20,FF,37,60,1,0,0,response1disk_5,7,2.0886,6,8,1,0,0,rectangle_8,6,8,1,0,0,6,8,1,0,0,0,3,3,5,1,61022a84042923c389bf1499,61036870bc5fb54d72d13325,2021-07-29_22h53.38.980,Simcolourproject_2stim_asymm_v5,2020.2.10,Win32,60,61025ae37ef11b136ea224fe,,,,,,,,,,,,,,,,,,,,,,,,,,,,,,,,,,,,,,,,,,,,,,
,,,,,,,,,,,,117,PF,29,56,1,0,0,response1disk_5,7,1.6745,3,-5,1,0,0,rectangle_8,-27,-72,1,0,0,13,11,1,0,0,0,4,4,4,1,61022a84042923c389bf1499,61036870bc5fb54d72d13325,2021-07-29_22h53.38.980,Simcolourproject_2stim_asymm_v5,2020.2.10,Win32,60,61025ae37ef11b136ea224fe,response5disk_7,3,1.9065,3,"[2,5]",rectangle_4,,,,,,,,,,,,,,,,,,,,,,,,,,,,,,,,,,,,,,,,
,,,,,,,,,,,,54,FF,36,69,1,0,0,response1disk_5,7,1.0829,1,4,1,0,0,rectangle_8,1,4,1,0,0,1,4,1,0,0,0,5,5,3,1,61022a84042923c389bf1499,61036870bc5fb54d72d13325,2021-07-29_22h53.38.980,Simcolourproject_2stim_asymm_v5,2020.2.10,Win32,60,61025ae37ef11b136ea224fe,,,,,,,,,,,,,,,,,,,,,,,,,,,,,,,,,,,,,,,,,,,,,,
,,,,,,,,,,,,146,FF,67,-34,1,0,0,response3disk_5,5,1.9397,7,8,1,0,0,rectangle_8,7,8,1,0,0,7,8,1,0,0,0,6,6,0,1,61022a84042923c389bf1499,61036870bc5fb54d72d13325,2021-07-29_22h53.38.980,Simcolourproject_2stim_asymm_v5,2020.2.10,Win32,60,61025ae37ef11b136ea224fe,,,,,,,,,,,,,,,,,,,,,,,,,,,,,,,,,,,,,,,,,,,,,,
,,,,,,,,,,,,,FF,,,,,,,,3.3504,,,,,,,,,,,,,,,,,,,,,,61022a84042923c389bf1499,61036870bc5fb54d72d13325,2021-07-29_22h53.38.980,Simcolourproject_2stim_asymm_v5,2020.2.10,Win32,60,61025ae37ef11b136ea224fe,,,,,,,space,2.8894,4323,51,76,1,0,0,response1disk,,7,21,5,1,0,0,rectangle,21,5,1,0,0,21,5,1,0,0,0,0,0,126,1,,,,,,,,
,,,,,,,,,,,,,FF,,,,,,,,1.9424,,,,,,,,,,,,,,,,,,,,,,61022a84042923c389bf1499,61036870bc5fb54d72d13325,2021-07-29_22h53.38.980,Simcolourproject_2stim_asymm_v5,2020.2.10,Win32,60,61025ae37ef11b136ea224fe,,,,,,,,,2243,67,-39,1,0,0,response3disk,,5,16,-2,1,0,0,rectangle,16,-2,1,0,0,16,-2,1,0,0,0,1,1,15,1,,,,,,,,
,,,,,,,,,,,,,FF,,,,,,,,1.578,,,,,,,,,,,,,,,,,,,,,,61022a84042923c389bf1499,61036870bc5fb54d72d13325,2021-07-29_22h53.38.980,Simcolourproject_2stim_asymm_v5,2020.2.10,Win32,60,61025ae37ef11b136ea224fe,,,,,,,,,2978,47,74,1,0,0,response1disk,,7,5,1,1,0,0,rectangle,5,1,1,0,0,5,1,1,0,0,0,2,2,114,1,,,,,,,,
,,,,,,,,,,,,,FF,,,,,,,,2.0053,,,,,,,,,,,,,,,,,,,,,,61022a84042923c389bf1499,61036870bc5fb54d72d13325,2021-07-29_22h53.38.980,Simcolourproject_2stim_asymm_v5,2020.2.10,Win32,60,61025ae37ef11b136ea224fe,,,,,,,,,163,82,37,1,0,0,response1disk,,6,15,3,1,0,0,rectangle,15,3,1,0,0,15,3,1,0,0,0,3,3,139,1,,,,,,,,
,,,,,,,,,,,,,FF,,,,,,,,4.1495,,,,,,,,,,,,,,,,,,,,,,61022a84042923c389bf1499,61036870bc5fb54d72d13325,2021-07-29_22h53.38.980,Simcolourproject_2stim_asymm_v5,2020.2.10,Win32,60,61025ae37ef11b136ea224fe,,,,,,,,,2231,-20,-93,1,0,0,response5disk,,3,1,-5,1,0,0,rectangle,1,-5,1,0,0,1,-5,1,0,0,0,4,4,83,1,,,,,,,,
,,,,,,,,,,,,,FF,,,,,,,,1.727,,,,,,,,,,,,,,,,,,,,,,61022a84042923c389bf1499,61036870bc5fb54d72d13325,2021-07-29_22h53.38.980,Simcolourproject_2stim_asymm_v5,2020.2.10,Win32,60,61025ae37ef11b136ea224fe,,,,,,,,,2386,84,37,1,0,0,response1disk,,6,16,3,1,0,0,rectangle,16,3,1,0,0,16,3,1,0,0,0,5,5,2,1,,,,,,,,
,,,,,,,,,,,,,FF,,,,,,,,1.4767,,,,,,,,,,,,,,,,,,,,,,61022a84042923c389bf1499,61036870bc5fb54d72d13325,2021-07-29_22h53.38.980,Simcolourproject_2stim_asymm_v5,2020.2.10,Win32,60,61025ae37ef11b136ea224fe,,,,,,,,,28,36,75,1,0,0,response1disk,,7,1,-4,1,0,0,rectangle,1,-4,1,0,0,1,-4,1,0,0,0,6,6,150,1,,,,,,,,
,,,,,,,,,,,,,FF,,,,,,,,3.1336,,,,,,,,,,,,,,,,,,,,,,61022a84042923c389bf1499,61036870bc5fb54d72d13325,2021-07-29_22h53.38.980,Simcolourproject_2stim_asymm_v5,2020.2.10,Win32,60,61025ae37ef11b136ea224fe,,,,,,,,,2774,33,69,1,0,0,response1disk,,7,-1,2,1,0,0,rectangle,-1,2,1,0,0,-1,2,1,0,0,0,7,7,39,1,,,,,,,,
,,,,,,,,,,,,,FF,,,,,,,,1.4265,,,,,,,,,,,,,,,,,,,,,,61022a84042923c389bf1499,61036870bc5fb54d72d13325,2021-07-29_22h53.38.980,Simcolourproject_2stim_asymm_v5,2020.2.10,Win32,60,61025ae37ef11b136ea224fe,,,,,,,,,1742,27,65,1,0,0,response1disk,,7,10,2,1,0,0,rectangle,10,2,1,0,0,10,2,1,0,0,0,8,8,61,1,,,,,,,,
,,,,,,,,,,,,,FF,,,,,,,,4.4595,,,,,,,,,,,,,,,,,,,,,,61022a84042923c389bf1499,61036870bc5fb54d72d13325,2021-07-29_22h53.38.980,Simcolourproject_2stim_asymm_v5,2020.2.10,Win32,60,61025ae37ef11b136ea224fe,,,,,,,,,2384,59,35,1,0,0,response1disk,,6,-5,-9,1,0,0,rectangle,-5,-9,1,0,0,-5,-9,1,0,0,0,9,9,29,1,,,,,,,,
,,,,,,,,,,,,,FF,,,,,,,,2.1894,,,,,,,,,,,,,,,,,,,,,,61022a84042923c389bf1499,61036870bc5fb54d72d13325,2021-07-29_22h53.38.980,Simcolourproject_2stim_asymm_v5,2020.2.10,Win32,60,61025ae37ef11b136ea224fe,,,,,,,,,3038,-65,43,1,0,0,response7disk,,1,-13,5,1,0,0,rectangle,-13,5,1,0,0,-13,5,1,0,0,0,10,10,148,1,,,,,,,,
,,,,,,,,,,,,,FF,,,,,,,,2.6359,,,,,,,,,,,,,,,,,,,,,,61022a84042923c389bf1499,61036870bc5fb54d72d13325,2021-07-29_22h53.38.980,Simcolourproject_2stim_asymm_v5,2020.2.10,Win32,60,61025ae37ef11b136ea224fe,,,,,,,,,425,53,65,1,0,0,response1disk,,7,12,-7,1,0,0,rectangle,12,-7,1,0,0,12,-7,1,0,0,0,11,11,137,1,,,,,,,,
,,,,,,,,,,,,,FF,,,,,,,,1.2136,,,,,,,,,,,,,,,,,,,,,,61022a84042923c389bf1499,61036870bc5fb54d72d13325,2021-07-29_22h53.38.980,Simcolourproject_2stim_asymm_v5,2020.2.10,Win32,60,61025ae37ef11b136ea224fe,,,,,,,,,934,40,74,1,0,0,response1disk,,7,9,10,1,0,0,rectangle,9,10,1,0,0,9,10,1,0,0,0,12,12,115,1,,,,,,,,
,,,,,,,,,,,,,FF,,,,,,,,2.756,,,,,,,,,,,,,,,,,,,,,,61022a84042923c389bf1499,61036870bc5fb54d72d13325,2021-07-29_22h53.38.980,Simcolourproject_2stim_asymm_v5,2020.2.10,Win32,60,61025ae37ef11b136ea224fe,,,,,,,,,2033,-54,66,1,0,0,response7disk,,0,-8,4,1,0,0,rectangle,-8,4,1,0,0,-8,4,1,0,0,0,13,13,74,1,,,,,,,,
,,,,,,,,,,,,,FF,,,,,,,,0.9476,,,,,,,,,,,,,,,,,,,,,,61022a84042923c389bf1499,61036870bc5fb54d72d13325,2021-07-29_22h53.38.980,Simcolourproject_2stim_asymm_v5,2020.2.10,Win32,60,61025ae37ef11b136ea224fe,,,,,,,,,1523,-26,56,1,0,0,response7disk,,0,-2,6,1,0,0,rectangle,-2,6,1,0,0,-2,6,1,0,0,0,14,14,135,1,,,,,,,,
,,,,,,,,,,,,,FF,,,,,,,,1.497,,,,,,,,,,,,,,,,,,,,,,61022a84042923c389bf1499,61036870bc5fb54d72d13325,2021-07-29_22h53.38.980,Simcolourproject_2stim_asymm_v5,2020.2.10,Win32,60,61025ae37ef11b136ea224fe,,,,,,,,,1257,91,45,1,0,0,response1disk,,6,26,-1,1,0,0,rectangle,26,-1,1,0,0,26,-1,1,0,0,0,15,15,63,1,,,,,,,,
,,,,,,,,,,,,,FF,,,,,,,,3.1691,,,,,,,,,,,,,,,,,,,,,,61022a84042923c389bf1499,61036870bc5fb54d72d13325,2021-07-29_22h53.38.980,Simcolourproject_2stim_asymm_v5,2020.2.10,Win32,60,61025ae37ef11b136ea224fe,,,,,,,,,2502,56,73,1,0,0,response1disk,,7,11,-10,1,0,0,rectangle,11,-10,1,0,0,11,-10,1,0,0,0,16,16,73,1,,,,,,,,
,,,,,,,,,,,,,FF,,,,,,,,1.5757,,,,,,,,,,,,,,,,,,,,,,61022a84042923c389bf1499,61036870bc5fb54d72d13325,2021-07-29_22h53.38.980,Simcolourproject_2stim_asymm_v5,2020.2.10,Win32,60,61025ae37ef11b136ea224fe,,,,,,,,,2995,-32,-53,1,0,0,response5disk,,3,3,-8,1,0,0,rectangle,3,-8,1,0,0,3,-8,1,0,0,0,17,17,130,1,,,,,,,,
,,,,,,,,,,,,,FF,,,,,,,,1.061,,,,,,,,,,,,,,,,,,,,,,61022a84042923c389bf1499,61036870bc5fb54d72d13325,2021-07-29_22h53.38.980,Simcolourproject_2stim_asymm_v5,2020.2.10,Win32,60,61025ae37ef11b136ea224fe,,,,,,,,,3073,49,24,1,0,0,response1disk,,6,15,9,1,0,0,rectangle,-35,-76,1,0,0,10,4,1,0,0,0,18,18,20,1,,response5disk_3,TRUE,3,3,"[165,67,63,168,161,201,138,212,192,298,253,284,179,238,19,158,199,117,43,33]",1.4903,rectangle
,,,,,,,,,,,,,FF,,,,,,,,2.0895,,,,,,,,,,,,,,,,,,,,,,61022a84042923c389bf1499,61036870bc5fb54d72d13325,2021-07-29_22h53.38.980,Simcolourproject_2stim_asymm_v5,2020.2.10,Win32,60,61025ae37ef11b136ea224fe,,,,,,,,,1719,31,-66,1,0,0,response3disk,,4,-4,0,1,0,0,rectangle,-4,0,1,0,0,-4,0,1,0,0,0,19,19,48,1,,,,,,,,
,,,,,,,,,,,,,FF,,,,,,,,1.0125,,,,,,,,,,,,,,,,,,,,,,61022a84042923c389bf1499,61036870bc5fb54d72d13325,2021-07-29_22h53.38.980,Simcolourproject_2stim_asymm_v5,2020.2.10,Win32,60,61025ae37ef11b136ea224fe,,,,,,,,,1330,58,21,1,0,0,response1disk,,6,24,0,1,0,0,rectangle,24,0,1,0,0,24,0,1,0,0,0,20,20,118,1,,,,,,,,
,,,,,,,,,,,,,FF,,,,,,,,1.1109,,,,,,,,,,,,,,,,,,,,,,61022a84042923c389bf1499,61036870bc5fb54d72d13325,2021-07-29_22h53.38.980,Simcolourproject_2stim_asymm_v5,2020.2.10,Win32,60,61025ae37ef11b136ea224fe,,,,,,,,,2081,43,70,1,0,0,response1disk,,7,21,10,1,0,0,rectangle,21,10,1,0,0,21,10,1,0,0,0,21,21,26,1,,,,,,,,
,,,,,,,,,,,,,FF,,,,,,,,1.2094,,,,,,,,,,,,,,,,,,,,,,61022a84042923c389bf1499,61036870bc5fb54d72d13325,2021-07-29_22h53.38.980,Simcolourproject_2stim_asymm_v5,2020.2.10,Win32,60,61025ae37ef11b136ea224fe,,,,,,,,,2238,87,-50,1,0,0,response3disk,,5,4,1,1,0,0,rectangle,4,1,1,0,0,4,1,1,0,0,0,22,22,57,1,,,,,,,,
,,,,,,,,,,,,,FF,,,,,,,,0.8776,,,,,,,,,,,,,,,,,,,,,,61022a84042923c389bf1499,61036870bc5fb54d72d13325,2021-07-29_22h53.38.980,Simcolourproject_2stim_asymm_v5,2020.2.10,Win32,60,61025ae37ef11b136ea224fe,,,,,,,,,147,40,83,1,0,0,response1disk,,7,9,1,1,0,0,rectangle,9,1,1,0,0,9,1,1,0,0,0,23,23,31,1,,,,,,,,
,,,,,,,,,,,,,FF,,,,,,,,1.6295,,,,,,,,,,,,,,,,,,,,,,61022a84042923c389bf1499,61036870bc5fb54d72d13325,2021-07-29_22h53.38.980,Simcolourproject_2stim_asymm_v5,2020.2.10,Win32,60,61025ae37ef11b136ea224fe,,,,,,,,,18,42,90,1,0,0,response1disk,,7,-9,5,1,0,0,rectangle,-9,5,1,0,0,-9,5,1,0,0,0,24,24,111,1,,,,,,,,
,,,,,,,,,,,,,FF,,,,,,,,1.3612,,,,,,,,,,,,,,,,,,,,,,61022a84042923c389bf1499,61036870bc5fb54d72d13325,2021-07-29_22h53.38.980,Simcolourproject_2stim_asymm_v5,2020.2.10,Win32,60,61025ae37ef11b136ea224fe,,,,,,,,,1066,47,-34,1,0,0,response3disk,,5,15,-2,1,0,0,rectangle,15,-2,1,0,0,15,-2,1,0,0,0,25,25,153,1,,,,,,,,
,,,,,,,,,,,,,FF,,,,,,,,1.7245,,,,,,,,,,,,,,,,,,,,,,61022a84042923c389bf1499,61036870bc5fb54d72d13325,2021-07-29_22h53.38.980,Simcolourproject_2stim_asymm_v5,2020.2.10,Win32,60,61025ae37ef11b136ea224fe,,,,,,,,,538,42,75,1,0,0,response1disk,,7,9,0,1,0,0,rectangle,9,0,1,0,0,9,0,1,0,0,0,26,26,79,1,,,,,,,,
,,,,,,,,,,,,,FF,,,,,,,,1.5264,,,,,,,,,,,,,,,,,,,,,,61022a84042923c389bf1499,61036870bc5fb54d72d13325,2021-07-29_22h53.38.980,Simcolourproject_2stim_asymm_v5,2020.2.10,Win32,60,61025ae37ef11b136ea224fe,,,,,,,,,4209,24,65,1,0,0,response1disk,,7,-7,4,1,0,0,rectangle,-7,4,1,0,0,-7,4,1,0,0,0,27,27,112,1,,,,,,,,
,,,,,,,,,,,,,FF,,,,,,,,1.1622,,,,,,,,,,,,,,,,,,,,,,61022a84042923c389bf1499,61036870bc5fb54d72d13325,2021-07-29_22h53.38.980,Simcolourproject_2stim_asymm_v5,2020.2.10,Win32,60,61025ae37ef11b136ea224fe,,,,,,,,,513,37,64,1,0,0,response1disk,,7,3,7,1,0,0,rectangle,3,7,1,0,0,3,7,1,0,0,0,28,28,131,1,,,,,,,,
,,,,,,,,,,,,,FF,,,,,,,,1.3774,,,,,,,,,,,,,,,,,,,,,,61022a84042923c389bf1499,61036870bc5fb54d72d13325,2021-07-29_22h53.38.980,Simcolourproject_2stim_asymm_v5,2020.2.10,Win32,60,61025ae37ef11b136ea224fe,,,,,,,,,2615,-25,65,1,0,0,response7disk,,0,5,1,1,0,0,rectangle,5,1,1,0,0,5,1,1,0,0,0,29,29,105,1,,,,,,,,
,,,,,,,,,,,,,FF,,,,,,,,1.2462,,,,,,,,,,,,,,,,,,,,,,61022a84042923c389bf1499,61036870bc5fb54d72d13325,2021-07-29_22h53.38.980,Simcolourproject_2stim_asymm_v5,2020.2.10,Win32,60,61025ae37ef11b136ea224fe,,,,,,,,,4176,51,71,1,0,0,response1disk,,7,5,-14,1,0,0,rectangle,5,-14,1,0,0,5,-14,1,0,0,0,30,30,136,1,,,,,,,,
,,,,,,,,,,,,,FF,,,,,,,,0.8176,,,,,,,,,,,,,,,,,,,,,,61022a84042923c389bf1499,61036870bc5fb54d72d13325,2021-07-29_22h53.38.980,Simcolourproject_2stim_asymm_v5,2020.2.10,Win32,60,61025ae37ef11b136ea224fe,,,,,,,,,605,81,39,1,0,0,response1disk,,6,4,9,1,0,0,rectangle,4,9,1,0,0,4,9,1,0,0,0,31,31,124,1,,,,,,,,
,,,,,,,,,,,,,FF,,,,,,,,1.5121,,,,,,,,,,,,,,,,,,,,,,61022a84042923c389bf1499,61036870bc5fb54d72d13325,2021-07-29_22h53.38.980,Simcolourproject_2stim_asymm_v5,2020.2.10,Win32,60,61025ae37ef11b136ea224fe,,,,,,,,,798,43,63,1,0,0,response1disk,,7,14,10,1,0,0,rectangle,-27,62,1,0,0,10,1,1,0,0,0,32,32,60,1,,response7disk_3,TRUE,0,0,"[165,67,63,168,161,201,138,212,192,298,253,284,179,238,19,158,199,117,43,33]",1.7442,rectangle
,,,,,,,,,,,,,FF,,,,,,,,2.2409,,,,,,,,,,,,,,,,,,,,,,61022a84042923c389bf1499,61036870bc5fb54d72d13325,2021-07-29_22h53.38.980,Simcolourproject_2stim_asymm_v5,2020.2.10,Win32,60,61025ae37ef11b136ea224fe,,,,,,,,,2792,60,-30,1,0,0,response3disk,,5,21,-7,1,0,0,rectangle,21,-7,1,0,0,21,-7,1,0,0,0,33,33,71,1,,,,,,,,
,,,,,,,,,,,,,FF,,,,,,,,1.6777,,,,,,,,,,,,,,,,,,,,,,61022a84042923c389bf1499,61036870bc5fb54d72d13325,2021-07-29_22h53.38.980,Simcolourproject_2stim_asymm_v5,2020.2.10,Win32,60,61025ae37ef11b136ea224fe,,,,,,,,,2552,75,61,1,0,0,response1disk,,6,2,8,1,0,0,rectangle,2,8,1,0,0,2,8,1,0,0,0,34,34,55,1,,,,,,,,
,,,,,,,,,,,,,FF,,,,,,,,1.062,,,,,,,,,,,,,,,,,,,,,,61022a84042923c389bf1499,61036870bc5fb54d72d13325,2021-07-29_22h53.38.980,Simcolourproject_2stim_asymm_v5,2020.2.10,Win32,60,61025ae37ef11b136ea224fe,,,,,,,,,816,73,38,1,0,0,response1disk,,6,1,8,1,0,0,rectangle,1,8,1,0,0,1,8,1,0,0,0,35,35,94,1,,,,,,,,
,,,,,,,,,,,,,FF,,,,,,,,0.8131,,,,,,,,,,,,,,,,,,,,,,61022a84042923c389bf1499,61036870bc5fb54d72d13325,2021-07-29_22h53.38.980,Simcolourproject_2stim_asymm_v5,2020.2.10,Win32,60,61025ae37ef11b136ea224fe,,,,,,,,,3163,27,82,1,0,0,response1disk,,7,19,7,1,0,0,rectangle,19,7,1,0,0,19,7,1,0,0,0,36,36,129,1,,,,,,,,
,,,,,,,,,,,,,FF,,,,,,,,1.4798,,,,,,,,,,,,,,,,,,,,,,61022a84042923c389bf1499,61036870bc5fb54d72d13325,2021-07-29_22h53.38.980,Simcolourproject_2stim_asymm_v5,2020.2.10,Win32,60,61025ae37ef11b136ea224fe,,,,,,,,,3846,92,48,1,0,0,response1disk,,6,3,1,1,0,0,rectangle,3,1,1,0,0,3,1,1,0,0,0,37,37,125,1,,,,,,,,
,,,,,,,,,,,,,FF,,,,,,,,0.9133,,,,,,,,,,,,,,,,,,,,,,61022a84042923c389bf1499,61036870bc5fb54d72d13325,2021-07-29_22h53.38.980,Simcolourproject_2stim_asymm_v5,2020.2.10,Win32,60,61025ae37ef11b136ea224fe,,,,,,,,,846,41,96,1,0,0,response1disk,,7,13,5,1,0,0,rectangle,13,5,1,0,0,13,5,1,0,0,0,38,38,132,1,,,,,,,,
,,,,,,,,,,,,,FF,,,,,,,,1.6436,,,,,,,,,,,,,,,,,,,,,,61022a84042923c389bf1499,61036870bc5fb54d72d13325,2021-07-29_22h53.38.980,Simcolourproject_2stim_asymm_v5,2020.2.10,Win32,60,61025ae37ef11b136ea224fe,,,,,,,,,3880,86,35,1,0,0,response1disk,,6,13,-1,1,0,0,rectangle,13,-1,1,0,0,13,-1,1,0,0,0,39,39,157,1,,,,,,,,
,,,,,,,,,,,,,FF,,,,,,,,1.1304,,,,,,,,,,,,,,,,,,,,,,61022a84042923c389bf1499,61036870bc5fb54d72d13325,2021-07-29_22h53.38.980,Simcolourproject_2stim_asymm_v5,2020.2.10,Win32,60,61025ae37ef11b136ea224fe,,,,,,,,,1572,79,30,1,0,0,response1disk,,6,-3,-2,1,0,0,rectangle,-3,-2,1,0,0,-3,-2,1,0,0,0,40,40,101,1,,,,,,,,
,,,,,,,,,,,,,FF,,,,,,,,0.8651,,,,,,,,,,,,,,,,,,,,,,61022a84042923c389bf1499,61036870bc5fb54d72d13325,2021-07-29_22h53.38.980,Simcolourproject_2stim_asymm_v5,2020.2.10,Win32,60,61025ae37ef11b136ea224fe,,,,,,,,,4101,41,87,1,0,0,response1disk,,7,4,6,1,0,0,rectangle,4,6,1,0,0,4,6,1,0,0,0,41,41,120,1,,,,,,,,
,,,,,,,,,,,,,FF,,,,,,,,0.6655,,,,,,,,,,,,,,,,,,,,,,61022a84042923c389bf1499,61036870bc5fb54d72d13325,2021-07-29_22h53.38.980,Simcolourproject_2stim_asymm_v5,2020.2.10,Win32,60,61025ae37ef11b136ea224fe,,,,,,,,,3410,37,78,1,0,0,response1disk,,7,-3,0,1,0,0,rectangle,-61,31,1,0,0,-17,1,1,0,0,0,42,42,58,1,,response7disk_3,TRUE,1,1,"[165,67,63,168,161,201,138,212,192,298,253,284,179,238,19,158,199,117,43,33]",1.3798,rectangle
,,,,,,,,,,,,,FF,,,,,,,,0.828,,,,,,,,,,,,,,,,,,,,,,61022a84042923c389bf1499,61036870bc5fb54d72d13325,2021-07-29_22h53.38.980,Simcolourproject_2stim_asymm_v5,2020.2.10,Win32,60,61025ae37ef11b136ea224fe,,,,,,,,,496,25,67,1,0,0,response1disk,,7,2,2,1,0,0,rectangle,2,2,1,0,0,2,2,1,0,0,0,43,43,65,1,,,,,,,,
,,,,,,,,,,,,,FF,,,,,,,,1.0282,,,,,,,,,,,,,,,,,,,,,,61022a84042923c389bf1499,61036870bc5fb54d72d13325,2021-07-29_22h53.38.980,Simcolourproject_2stim_asymm_v5,2020.2.10,Win32,60,61025ae37ef11b136ea224fe,,,,,,,,,1293,31,-67,1,0,0,response3disk,,4,-2,5,1,0,0,rectangle,-2,5,1,0,0,-2,5,1,0,0,0,44,44,155,1,,,,,,,,
,,,,,,,,,,,,,FF,,,,,,,,1.3537,,,,,,,,,,,,,,,,,,,,,,61022a84042923c389bf1499,61036870bc5fb54d72d13325,2021-07-29_22h53.38.980,Simcolourproject_2stim_asymm_v5,2020.2.10,Win32,60,61025ae37ef11b136ea224fe,,,,,,,,,4345,54,33,1,0,0,response1disk,,6,-2,0,1,0,0,rectangle,-2,0,1,0,0,-2,0,1,0,0,0,45,45,127,1,,,,,,,,
,,,,,,,,,,,,,FF,,,,,,,,0.8013,,,,,,,,,,,,,,,,,,,,,,61022a84042923c389bf1499,61036870bc5fb54d72d13325,2021-07-29_22h53.38.980,Simcolourproject_2stim_asymm_v5,2020.2.10,Win32,60,61025ae37ef11b136ea224fe,,,,,,,,,501,35,78,1,0,0,response1disk,,7,4,5,1,0,0,rectangle,4,5,1,0,0,4,5,1,0,0,0,46,46,47,1,,,,,,,,
,,,,,,,,,,,,,FF,,,,,,,,1.6417,,,,,,,,,,,,,,,,,,,,,,61022a84042923c389bf1499,61036870bc5fb54d72d13325,2021-07-29_22h53.38.980,Simcolourproject_2stim_asymm_v5,2020.2.10,Win32,60,61025ae37ef11b136ea224fe,,,,,,,,,2219,-51,-26,1,0,0,response5disk,,2,9,9,1,0,0,rectangle,9,9,1,0,0,9,9,1,0,0,0,47,47,51,1,,,,,,,,
,,,,,,,,,,,,,FF,,,,,,,,1.7081,,,,,,,,,,,,,,,,,,,,,,61022a84042923c389bf1499,61036870bc5fb54d72d13325,2021-07-29_22h53.38.980,Simcolourproject_2stim_asymm_v5,2020.2.10,Win32,60,61025ae37ef11b136ea224fe,,,,,,,,,282,95,37,1,0,0,response1disk,,6,-1,-1,1,0,0,rectangle,-1,-1,1,0,0,-1,-1,1,0,0,0,48,48,86,1,,,,,,,,
,,,,,,,,,,,,,FF,,,,,,,,1.565,,,,,,,,,,,,,,,,,,,,,,61022a84042923c389bf1499,61036870bc5fb54d72d13325,2021-07-29_22h53.38.980,Simcolourproject_2stim_asymm_v5,2020.2.10,Win32,60,61025ae37ef11b136ea224fe,,,,,,,,,742,75,30,1,0,0,response1disk,,6,-18,-2,1,0,0,rectangle,-18,-2,1,0,0,-18,-2,1,0,0,0,49,49,96,1,,,,,,,,
,,,,,,,,,,,,,FF,,,,,,,,0.5968,,,,,,,,,,,,,,,,,,,,,,61022a84042923c389bf1499,61036870bc5fb54d72d13325,2021-07-29_22h53.38.980,Simcolourproject_2stim_asymm_v5,2020.2.10,Win32,60,61025ae37ef11b136ea224fe,,,,,,,,,3925,36,83,1,0,0,response1disk,,7,5,1,1,0,0,rectangle,5,1,1,0,0,5,1,1,0,0,0,50,50,97,1,,,,,,,,
,,,,,,,,,,,,,FF,,,,,,,,0.632,,,,,,,,,,,,,,,,,,,,,,61022a84042923c389bf1499,61036870bc5fb54d72d13325,2021-07-29_22h53.38.980,Simcolourproject_2stim_asymm_v5,2020.2.10,Win32,60,61025ae37ef11b136ea224fe,,,,,,,,,3738,36,92,1,0,0,response1disk,,7,7,3,1,0,0,rectangle,7,3,1,0,0,7,3,1,0,0,0,51,51,42,1,,,,,,,,
,,,,,,,,,,,,,FF,,,,,,,,1.0645,,,,,,,,,,,,,,,,,,,,,,61022a84042923c389bf1499,61036870bc5fb54d72d13325,2021-07-29_22h53.38.980,Simcolourproject_2stim_asymm_v5,2020.2.10,Win32,60,61025ae37ef11b136ea224fe,,,,,,,,,1856,34,67,1,0,0,response1disk,,7,4,-2,1,0,0,rectangle,4,-2,1,0,0,4,-2,1,0,0,0,52,52,59,1,,,,,,,,
,,,,,,,,,,,,,FF,,,,,,,,0.9454,,,,,,,,,,,,,,,,,,,,,,61022a84042923c389bf1499,61036870bc5fb54d72d13325,2021-07-29_22h53.38.980,Simcolourproject_2stim_asymm_v5,2020.2.10,Win32,60,61025ae37ef11b136ea224fe,,,,,,,,,565,48,35,1,0,0,response1disk,,6,9,8,1,0,0,rectangle,9,8,1,0,0,9,8,1,0,0,0,53,53,117,1,,,,,,,,
,,,,,,,,,,,,,FF,,,,,,,,0.548,,,,,,,,,,,,,,,,,,,,,,61022a84042923c389bf1499,61036870bc5fb54d72d13325,2021-07-29_22h53.38.980,Simcolourproject_2stim_asymm_v5,2020.2.10,Win32,60,61025ae37ef11b136ea224fe,,,,,,,,,4292,41,86,1,0,0,response1disk,,7,5,-7,1,0,0,rectangle,5,-7,1,0,0,5,-7,1,0,0,0,54,54,102,1,,,,,,,,
,,,,,,,,,,,,,FF,,,,,,,,0.8928,,,,,,,,,,,,,,,,,,,,,,61022a84042923c389bf1499,61036870bc5fb54d72d13325,2021-07-29_22h53.38.980,Simcolourproject_2stim_asymm_v5,2020.2.10,Win32,60,61025ae37ef11b136ea224fe,,,,,,,,,2207,104,41,1,0,0,response1disk,,6,10,-1,1,0,0,rectangle,10,-1,1,0,0,10,-1,1,0,0,0,55,55,49,1,,,,,,,,
,,,,,,,,,,,,,FF,,,,,,,,0.6137,,,,,,,,,,,,,,,,,,,,,,61022a84042923c389bf1499,61036870bc5fb54d72d13325,2021-07-29_22h53.38.980,Simcolourproject_2stim_asymm_v5,2020.2.10,Win32,60,61025ae37ef11b136ea224fe,,,,,,,,,3823,36,71,1,0,0,response1disk,,7,19,-10,1,0,0,rectangle,19,-10,1,0,0,19,-10,1,0,0,0,56,56,143,1,,,,,,,,
,,,,,,,,,,,,,FF,,,,,,,,1.7601,,,,,,,,,,,,,,,,,,,,,,61022a84042923c389bf1499,61036870bc5fb54d72d13325,2021-07-29_22h53.38.980,Simcolourproject_2stim_asymm_v5,2020.2.10,Win32,60,61025ae37ef11b136ea224fe,,,,,,,,,1751,-56,38,1,0,0,response7disk,,1,18,-10,1,0,0,rectangle,18,-10,1,0,0,18,-10,1,0,0,0,57,57,93,1,,,,,,,,
,,,,,,,,,,,,,FF,,,,,,,,7.198,,,,,,,,,,,,,,,,,,,,,,61022a84042923c389bf1499,61036870bc5fb54d72d13325,2021-07-29_22h53.38.980,Simcolourproject_2stim_asymm_v5,2020.2.10,Win32,60,61025ae37ef11b136ea224fe,,,,,,,,,3476,47,84,1,0,0,response1disk,,7,9,13,1,0,0,rectangle,9,13,1,0,0,9,13,1,0,0,0,58,58,50,1,,,,,,,,
,,,,,,,,,,,,,FF,,,,,,,,0.9635,,,,,,,,,,,,,,,,,,,,,,61022a84042923c389bf1499,61036870bc5fb54d72d13325,2021-07-29_22h53.38.980,Simcolourproject_2stim_asymm_v5,2020.2.10,Win32,60,61025ae37ef11b136ea224fe,,,,,,,,,2837,89,28,1,0,0,response1disk,,6,-10,-3,1,0,0,rectangle,-10,-3,1,0,0,-10,-3,1,0,0,0,59,59,147,1,,,,,,,,
,,,,,,,,,,,,,FF,,,,,,,,0.633,,,,,,,,,,,,,,,,,,,,,,61022a84042923c389bf1499,61036870bc5fb54d72d13325,2021-07-29_22h53.38.980,Simcolourproject_2stim_asymm_v5,2020.2.10,Win32,60,61025ae37ef11b136ea224fe,,,,,,,,,3272,46,78,1,0,0,response1disk,,7,10,9,1,0,0,rectangle,10,9,1,0,0,10,9,1,0,0,0,60,60,37,1,,,,,,,,
,,,,,,,,,,,,,FF,,,,,,,,1.1778,,,,,,,,,,,,,,,,,,,,,,61022a84042923c389bf1499,61036870bc5fb54d72d13325,2021-07-29_22h53.38.980,Simcolourproject_2stim_asymm_v5,2020.2.10,Win32,60,61025ae37ef11b136ea224fe,,,,,,,,,1310,51,-82,1,0,0,response3disk,,4,7,5,1,0,0,rectangle,7,5,1,0,0,7,5,1,0,0,0,61,61,0,1,,,,,,,,
,,,,,,,,,,,,,FF,,,,,,,,0.899,,,,,,,,,,,,,,,,,,,,,,61022a84042923c389bf1499,61036870bc5fb54d72d13325,2021-07-29_22h53.38.980,Simcolourproject_2stim_asymm_v5,2020.2.10,Win32,60,61025ae37ef11b136ea224fe,,,,,,,,,3036,-20,98,1,0,0,response7disk,,0,8,-3,1,0,0,rectangle,-54,-20,1,0,0,1,-4,1,0,0,0,62,62,103,1,,response5disk_3,TRUE,2,2,"[165,67,63,168,161,201,138,212,192,298,253,284,179,238,19,158,199,117,43,33]",1.3435,rectangle
,,,,,,,,,,,,,FF,,,,,,,,1.2933,,,,,,,,,,,,,,,,,,,,,,61022a84042923c389bf1499,61036870bc5fb54d72d13325,2021-07-29_22h53.38.980,Simcolourproject_2stim_asymm_v5,2020.2.10,Win32,60,61025ae37ef11b136ea224fe,,,,,,,,,3783,68,44,1,0,0,response1disk,,6,1,1,1,0,0,rectangle,1,1,1,0,0,1,1,1,0,0,0,63,63,25,1,,,,,,,,
,,,,,,,,,,,,,FF,,,,,,,,0.5969,,,,,,,,,,,,,,,,,,,,,,61022a84042923c389bf1499,61036870bc5fb54d72d13325,2021-07-29_22h53.38.980,Simcolourproject_2stim_asymm_v5,2020.2.10,Win32,60,61025ae37ef11b136ea224fe,,,,,,,,,3260,42,70,1,0,0,response1disk,,7,-1,8,1,0,0,rectangle,-1,8,1,0,0,-1,8,1,0,0,0,64,64,45,1,,,,,,,,
,,,,,,,,,,,,,FF,,,,,,,,1.3114,,,,,,,,,,,,,,,,,,,,,,61022a84042923c389bf1499,61036870bc5fb54d72d13325,2021-07-29_22h53.38.980,Simcolourproject_2stim_asymm_v5,2020.2.10,Win32,60,61025ae37ef11b136ea224fe,,,,,,,,,1733,-38,46,1,0,0,response7disk,,0,-3,8,1,0,0,rectangle,-3,8,1,0,0,-3,8,1,0,0,0,65,65,4,1,,,,,,,,
,,,,,,,,,,,,,FF,,,,,,,,0.6138,,,,,,,,,,,,,,,,,,,,,,61022a84042923c389bf1499,61036870bc5fb54d72d13325,2021-07-29_22h53.38.980,Simcolourproject_2stim_asymm_v5,2020.2.10,Win32,60,61025ae37ef11b136ea224fe,,,,,,,,,316,38,74,1,0,0,response1disk,,7,7,10,1,0,0,rectangle,85,-37,1,0,0,27,7,1,0,0,0,66,66,32,1,,response3disk_3,TRUE,5,5,"[165,67,63,168,161,201,138,212,192,298,253,284,179,238,19,158,199,117,43,33]",1.4292,rectangle
,,,,,,,,,,,,,FF,,,,,,,,1.112,,,,,,,,,,,,,,,,,,,,,,61022a84042923c389bf1499,61036870bc5fb54d72d13325,2021-07-29_22h53.38.980,Simcolourproject_2stim_asymm_v5,2020.2.10,Win32,60,61025ae37ef11b136ea224fe,,,,,,,,,2054,31,-71,1,0,0,response3disk,,4,15,-3,1,0,0,rectangle,15,-3,1,0,0,15,-3,1,0,0,0,67,67,21,1,,,,,,,,
,,,,,,,,,,,,,FF,,,,,,,,0.9784,,,,,,,,,,,,,,,,,,,,,,61022a84042923c389bf1499,61036870bc5fb54d72d13325,2021-07-29_22h53.38.980,Simcolourproject_2stim_asymm_v5,2020.2.10,Win32,60,61025ae37ef11b136ea224fe,,,,,,,,,2822,40,58,1,0,0,response1disk,,7,17,11,1,0,0,rectangle,17,11,1,0,0,17,11,1,0,0,0,68,68,149,1,,,,,,,,
,,,,,,,,,,,,,FF,,,,,,,,0.7623,,,,,,,,,,,,,,,,,,,,,,61022a84042923c389bf1499,61036870bc5fb54d72d13325,2021-07-29_22h53.38.980,Simcolourproject_2stim_asymm_v5,2020.2.10,Win32,60,61025ae37ef11b136ea224fe,,,,,,,,,3702,34,63,1,0,0,response1disk,,7,15,14,1,0,0,rectangle,15,14,1,0,0,15,14,1,0,0,0,69,69,156,1,,,,,,,,
,,,,,,,,,,,,,FF,,,,,,,,0.6486,,,,,,,,,,,,,,,,,,,,,,61022a84042923c389bf1499,61036870bc5fb54d72d13325,2021-07-29_22h53.38.980,Simcolourproject_2stim_asymm_v5,2020.2.10,Win32,60,61025ae37ef11b136ea224fe,,,,,,,,,3128,26,81,1,0,0,response1disk,,7,9,12,1,0,0,rectangle,9,12,1,0,0,9,12,1,0,0,0,70,70,91,1,,,,,,,,
,,,,,,,,,,,,,FF,,,,,,,,1.6928,,,,,,,,,,,,,,,,,,,,,,61022a84042923c389bf1499,61036870bc5fb54d72d13325,2021-07-29_22h53.38.980,Simcolourproject_2stim_asymm_v5,2020.2.10,Win32,60,61025ae37ef11b136ea224fe,,,,,,,,,1045,83,-40,1,0,0,response3disk,,5,13,5,1,0,0,rectangle,13,5,1,0,0,13,5,1,0,0,0,71,71,80,1,,,,,,,,
,,,,,,,,,,,,,FF,,,,,,,,0.6839,,,,,,,,,,,,,,,,,,,,,,61022a84042923c389bf1499,61036870bc5fb54d72d13325,2021-07-29_22h53.38.980,Simcolourproject_2stim_asymm_v5,2020.2.10,Win32,60,61025ae37ef11b136ea224fe,,,,,,,,,3793,45,81,1,0,0,response1disk,,7,0,11,1,0,0,rectangle,0,11,1,0,0,0,11,1,0,0,0,72,72,18,1,,,,,,,,
,,,,,,,,,,,,,FF,,,,,,,,4.1282,,,,,,,,,,,,,,,,,,,,,,61022a84042923c389bf1499,61036870bc5fb54d72d13325,2021-07-29_22h53.38.980,Simcolourproject_2stim_asymm_v5,2020.2.10,Win32,60,61025ae37ef11b136ea224fe,,,,,,,,,3974,70,29,1,0,0,response1disk,,6,4,-4,1,0,0,rectangle,4,-4,1,0,0,4,-4,1,0,0,0,73,73,154,1,,,,,,,,
,,,,,,,,,,,,,FF,,,,,,,,0.6299,,,,,,,,,,,,,,,,,,,,,,61022a84042923c389bf1499,61036870bc5fb54d72d13325,2021-07-29_22h53.38.980,Simcolourproject_2stim_asymm_v5,2020.2.10,Win32,60,61025ae37ef11b136ea224fe,,,,,,,,,4117,40,88,1,0,0,response1disk,,7,20,7,1,0,0,rectangle,20,7,1,0,0,20,7,1,0,0,0,74,74,119,1,,,,,,,,
,,,,,,,,,,,,,FF,,,,,,,,1.3793,,,,,,,,,,,,,,,,,,,,,,61022a84042923c389bf1499,61036870bc5fb54d72d13325,2021-07-29_22h53.38.980,Simcolourproject_2stim_asymm_v5,2020.2.10,Win32,60,61025ae37ef11b136ea224fe,,,,,,,,,1601,-21,-70,1,0,0,response5disk,,3,15,5,1,0,0,rectangle,15,5,1,0,0,15,5,1,0,0,0,75,75,1,1,,,,,,,,
,,,,,,,,,,,,,FF,,,,,,,,0.9954,,,,,,,,,,,,,,,,,,,,,,61022a84042923c389bf1499,61036870bc5fb54d72d13325,2021-07-29_22h53.38.980,Simcolourproject_2stim_asymm_v5,2020.2.10,Win32,60,61025ae37ef11b136ea224fe,,,,,,,,,1407,39,-40,1,0,0,response3disk,,4,17,0,1,0,0,rectangle,17,0,1,0,0,17,0,1,0,0,0,76,76,17,1,,,,,,,,
,,,,,,,,,,,,,FF,,,,,,,,1.0108,,,,,,,,,,,,,,,,,,,,,,61022a84042923c389bf1499,61036870bc5fb54d72d13325,2021-07-29_22h53.38.980,Simcolourproject_2stim_asymm_v5,2020.2.10,Win32,60,61025ae37ef11b136ea224fe,,,,,,,,,2582,78,-31,1,0,0,response3disk,,5,23,0,1,0,0,rectangle,23,0,1,0,0,23,0,1,0,0,0,77,77,108,1,,,,,,,,
,,,,,,,,,,,,,FF,,,,,,,,1.7411,,,,,,,,,,,,,,,,,,,,,,61022a84042923c389bf1499,61036870bc5fb54d72d13325,2021-07-29_22h53.38.980,Simcolourproject_2stim_asymm_v5,2020.2.10,Win32,60,61025ae37ef11b136ea224fe,,,,,,,,,449,79,-36,1,0,0,response3disk,,5,-9,-4,1,0,0,rectangle,-9,-4,1,0,0,-9,-4,1,0,0,0,78,78,67,1,,,,,,,,
,,,,,,,,,,,,,FF,,,,,,,,0.8228,,,,,,,,,,,,,,,,,,,,,,61022a84042923c389bf1499,61036870bc5fb54d72d13325,2021-07-29_22h53.38.980,Simcolourproject_2stim_asymm_v5,2020.2.10,Win32,60,61025ae37ef11b136ea224fe,,,,,,,,,2421,-43,-62,1,0,0,response5disk,,3,3,2,1,0,0,rectangle,3,2,1,0,0,3,2,1,0,0,0,79,79,16,1,,,,,,,,
,,,,,,,,,,,,,FF,,,,,,,,1.9255,,,,,,,,,,,,,,,,,,,,,,61022a84042923c389bf1499,61036870bc5fb54d72d13325,2021-07-29_22h53.38.980,Simcolourproject_2stim_asymm_v5,2020.2.10,Win32,60,61025ae37ef11b136ea224fe,,,,,,,,,1316,93,32,1,0,0,response1disk,,6,7,0,1,0,0,rectangle,7,0,1,0,0,7,0,1,0,0,0,80,80,52,1,,,,,,,,
,,,,,,,,,,,,,FF,,,,,,,,1.3625,,,,,,,,,,,,,,,,,,,,,,61022a84042923c389bf1499,61036870bc5fb54d72d13325,2021-07-29_22h53.38.980,Simcolourproject_2stim_asymm_v5,2020.2.10,Win32,60,61025ae37ef11b136ea224fe,,,,,,,,,1294,-50,-67,1,0,0,response5disk,,3,18,-4,1,0,0,rectangle,18,-4,1,0,0,18,-4,1,0,0,0,81,81,106,1,,,,,,,,
,,,,,,,,,,,,,FF,,,,,,,,0.9513,,,,,,,,,,,,,,,,,,,,,,61022a84042923c389bf1499,61036870bc5fb54d72d13325,2021-07-29_22h53.38.980,Simcolourproject_2stim_asymm_v5,2020.2.10,Win32,60,61025ae37ef11b136ea224fe,,,,,,,,,2588,37,81,1,0,0,response1disk,,7,4,-5,1,0,0,rectangle,4,-5,1,0,0,4,-5,1,0,0,0,82,82,24,1,,,,,,,,
,,,,,,,,,,,,,FF,,,,,,,,0.6166,,,,,,,,,,,,,,,,,,,,,,61022a84042923c389bf1499,61036870bc5fb54d72d13325,2021-07-29_22h53.38.980,Simcolourproject_2stim_asymm_v5,2020.2.10,Win32,60,61025ae37ef11b136ea224fe,,,,,,,,,3549,25,84,1,0,0,response1disk,,7,9,-5,1,0,0,rectangle,9,-5,1,0,0,9,-5,1,0,0,0,83,83,22,1,,,,,,,,
,,,,,,,,,,,,,FF,,,,,,,,0.6677,,,,,,,,,,,,,,,,,,,,,,61022a84042923c389bf1499,61036870bc5fb54d72d13325,2021-07-29_22h53.38.980,Simcolourproject_2stim_asymm_v5,2020.2.10,Win32,60,61025ae37ef11b136ea224fe,,,,,,,,,2256,30,60,1,0,0,response1disk,,7,17,6,1,0,0,rectangle,17,6,1,0,0,17,6,1,0,0,0,84,84,98,1,,,,,,,,
,,,,,,,,,,,,,FF,,,,,,,,0.5839,,,,,,,,,,,,,,,,,,,,,,61022a84042923c389bf1499,61036870bc5fb54d72d13325,2021-07-29_22h53.38.980,Simcolourproject_2stim_asymm_v5,2020.2.10,Win32,60,61025ae37ef11b136ea224fe,,,,,,,,,593,26,64,1,0,0,response1disk,,7,5,-13,1,0,0,rectangle,5,-13,1,0,0,5,-13,1,0,0,0,85,85,159,1,,,,,,,,
,,,,,,,,,,,,,FF,,,,,,,,0.6296,,,,,,,,,,,,,,,,,,,,,,61022a84042923c389bf1499,61036870bc5fb54d72d13325,2021-07-29_22h53.38.980,Simcolourproject_2stim_asymm_v5,2020.2.10,Win32,60,61025ae37ef11b136ea224fe,,,,,,,,,2820,28,58,1,0,0,response1disk,,7,17,4,1,0,0,rectangle,17,4,1,0,0,17,4,1,0,0,0,86,86,123,1,,,,,,,,
,,,,,,,,,,,,,FF,,,,,,,,0.9146,,,,,,,,,,,,,,,,,,,,,,61022a84042923c389bf1499,61036870bc5fb54d72d13325,2021-07-29_22h53.38.980,Simcolourproject_2stim_asymm_v5,2020.2.10,Win32,60,61025ae37ef11b136ea224fe,,,,,,,,,1877,28,70,1,0,0,response1disk,,7,19,-5,1,0,0,rectangle,19,-5,1,0,0,19,-5,1,0,0,0,87,87,53,1,,,,,,,,
,,,,,,,,,,,,,FF,,,,,,,,0.5242,,,,,,,,,,,,,,,,,,,,,,61022a84042923c389bf1499,61036870bc5fb54d72d13325,2021-07-29_22h53.38.980,Simcolourproject_2stim_asymm_v5,2020.2.10,Win32,60,61025ae37ef11b136ea224fe,,,,,,,,,2403,32,60,1,0,0,response1disk,,7,15,-1,1,0,0,rectangle,15,-1,1,0,0,15,-1,1,0,0,0,88,88,141,1,,,,,,,,
,,,,,,,,,,,,,FF,,,,,,,,1.0486,,,,,,,,,,,,,,,,,,,,,,61022a84042923c389bf1499,61036870bc5fb54d72d13325,2021-07-29_22h53.38.980,Simcolourproject_2stim_asymm_v5,2020.2.10,Win32,60,61025ae37ef11b136ea224fe,,,,,,,,,2946,78,-31,1,0,0,response3disk,,5,9,1,1,0,0,rectangle,9,1,1,0,0,9,1,1,0,0,0,89,89,70,1,,,,,,,,
,,,,,,,,,,,,,FF,,,,,,,,0.8956,,,,,,,,,,,,,,,,,,,,,,61022a84042923c389bf1499,61036870bc5fb54d72d13325,2021-07-29_22h53.38.980,Simcolourproject_2stim_asymm_v5,2020.2.10,Win32,60,61025ae37ef11b136ea224fe,,,,,,,,,126,37,58,1,0,0,response1disk,,7,29,-3,1,0,0,rectangle,29,-3,1,0,0,29,-3,1,0,0,0,90,90,11,1,,,,,,,,
,,,,,,,,,,,,,FF,,,,,,,,0.549,,,,,,,,,,,,,,,,,,,,,,61022a84042923c389bf1499,61036870bc5fb54d72d13325,2021-07-29_22h53.38.980,Simcolourproject_2stim_asymm_v5,2020.2.10,Win32,60,61025ae37ef11b136ea224fe,,,,,,,,,308,40,90,1,0,0,response1disk,,7,19,13,1,0,0,rectangle,19,13,1,0,0,19,13,1,0,0,0,91,91,64,1,,,,,,,,
,,,,,,,,,,,,,FF,,,,,,,,1.8208,,,,,,,,,,,,,,,,,,,,,,61022a84042923c389bf1499,61036870bc5fb54d72d13325,2021-07-29_22h53.38.980,Simcolourproject_2stim_asymm_v5,2020.2.10,Win32,60,61025ae37ef11b136ea224fe,,,,,,,,,3392,50,-46,1,0,0,response3disk,,5,6,12,1,0,0,rectangle,6,12,1,0,0,6,12,1,0,0,0,92,92,138,1,,,,,,,,
,,,,,,,,,,,,,FF,,,,,,,,1.0611,,,,,,,,,,,,,,,,,,,,,,61022a84042923c389bf1499,61036870bc5fb54d72d13325,2021-07-29_22h53.38.980,Simcolourproject_2stim_asymm_v5,2020.2.10,Win32,60,61025ae37ef11b136ea224fe,,,,,,,,,1121,-67,-53,1,0,0,response5disk,,2,-12,-8,1,0,0,rectangle,-12,-8,1,0,0,-12,-8,1,0,0,0,93,93,133,1,,,,,,,,
,,,,,,,,,,,,,FF,,,,,,,,1.1797,,,,,,,,,,,,,,,,,,,,,,61022a84042923c389bf1499,61036870bc5fb54d72d13325,2021-07-29_22h53.38.980,Simcolourproject_2stim_asymm_v5,2020.2.10,Win32,60,61025ae37ef11b136ea224fe,,,,,,,,,590,37,-67,1,0,0,response3disk,,4,21,2,1,0,0,rectangle,21,2,1,0,0,21,2,1,0,0,0,94,94,99,1,,,,,,,,
,,,,,,,,,,,,,FF,,,,,,,,0.9005,,,,,,,,,,,,,,,,,,,,,,61022a84042923c389bf1499,61036870bc5fb54d72d13325,2021-07-29_22h53.38.980,Simcolourproject_2stim_asymm_v5,2020.2.10,Win32,60,61025ae37ef11b136ea224fe,,,,,,,,,2389,26,80,1,0,0,response1disk,,7,-2,-11,1,0,0,rectangle,-2,-11,1,0,0,-2,-11,1,0,0,0,95,95,43,1,,,,,,,,
,,,,,,,,,,,,,FF,,,,,,,,0.915,,,,,,,,,,,,,,,,,,,,,,61022a84042923c389bf1499,61036870bc5fb54d72d13325,2021-07-29_22h53.38.980,Simcolourproject_2stim_asymm_v5,2020.2.10,Win32,60,61025ae37ef11b136ea224fe,,,,,,,,,1825,-74,-36,1,0,0,response5disk,,2,1,3,1,0,0,rectangle,1,3,1,0,0,1,3,1,0,0,0,96,96,109,1,,,,,,,,
,,,,,,,,,,,,,FF,,,,,,,,1.6953,,,,,,,,,,,,,,,,,,,,,,61022a84042923c389bf1499,61036870bc5fb54d72d13325,2021-07-29_22h53.38.980,Simcolourproject_2stim_asymm_v5,2020.2.10,Win32,60,61025ae37ef11b136ea224fe,,,,,,,,,2628,105,-51,1,0,0,response3disk,,5,-2,-1,1,0,0,rectangle,-2,-1,1,0,0,-2,-1,1,0,0,0,97,97,134,1,,,,,,,,
,,,,,,,,,,,,,FF,,,,,,,,0.7165,,,,,,,,,,,,,,,,,,,,,,61022a84042923c389bf1499,61036870bc5fb54d72d13325,2021-07-29_22h53.38.980,Simcolourproject_2stim_asymm_v5,2020.2.10,Win32,60,61025ae37ef11b136ea224fe,,,,,,,,,1820,39,62,1,0,0,response1disk,,7,19,9,1,0,0,rectangle,19,9,1,0,0,19,9,1,0,0,0,98,98,66,1,,,,,,,,
,,,,,,,,,,,,,FF,,,,,,,,0.8802,,,,,,,,,,,,,,,,,,,,,,61022a84042923c389bf1499,61036870bc5fb54d72d13325,2021-07-29_22h53.38.980,Simcolourproject_2stim_asymm_v5,2020.2.10,Win32,60,61025ae37ef11b136ea224fe,,,,,,,,,1067,-17,-53,1,0,0,response5disk,,3,13,10,1,0,0,rectangle,13,10,1,0,0,13,10,1,0,0,0,99,99,85,1,,,,,,,,
,,,,,,,,,,,,,FF,,,,,,,,1.574,,,,,,,,,,,,,,,,,,,,,,61022a84042923c389bf1499,61036870bc5fb54d72d13325,2021-07-29_22h53.38.980,Simcolourproject_2stim_asymm_v5,2020.2.10,Win32,60,61025ae37ef11b136ea224fe,,,,,,,,,659,92,26,1,0,0,response1disk,,6,2,-2,1,0,0,rectangle,2,-2,1,0,0,2,-2,1,0,0,0,100,100,28,1,,,,,,,,
,,,,,,,,,,,,,FF,,,,,,,,0.6689,,,,,,,,,,,,,,,,,,,,,,61022a84042923c389bf1499,61036870bc5fb54d72d13325,2021-07-29_22h53.38.980,Simcolourproject_2stim_asymm_v5,2020.2.10,Win32,60,61025ae37ef11b136ea224fe,,,,,,,,,3879,35,71,1,0,0,response1disk,,7,7,4,1,0,0,rectangle,7,4,1,0,0,7,4,1,0,0,0,101,101,78,1,,,,,,,,
,,,,,,,,,,,,,FF,,,,,,,,0.896,,,,,,,,,,,,,,,,,,,,,,61022a84042923c389bf1499,61036870bc5fb54d72d13325,2021-07-29_22h53.38.980,Simcolourproject_2stim_asymm_v5,2020.2.10,Win32,60,61025ae37ef11b136ea224fe,,,,,,,,,1935,37,70,1,0,0,response1disk,,7,20,15,1,0,0,rectangle,20,15,1,0,0,20,15,1,0,0,0,102,102,44,1,,,,,,,,
,,,,,,,,,,,,,FF,,,,,,,,1.8407,,,,,,,,,,,,,,,,,,,,,,61022a84042923c389bf1499,61036870bc5fb54d72d13325,2021-07-29_22h53.38.980,Simcolourproject_2stim_asymm_v5,2020.2.10,Win32,60,61025ae37ef11b136ea224fe,,,,,,,,,749,85,-26,1,0,0,response3disk,,5,10,4,1,0,0,rectangle,10,4,1,0,0,10,4,1,0,0,0,103,103,121,1,,,,,,,,
,,,,,,,,,,,,,FF,,,,,,,,1.4117,,,,,,,,,,,,,,,,,,,,,,61022a84042923c389bf1499,61036870bc5fb54d72d13325,2021-07-29_22h53.38.980,Simcolourproject_2stim_asymm_v5,2020.2.10,Win32,60,61025ae37ef11b136ea224fe,,,,,,,,,2940,-33,102,1,0,0,response7disk,,0,6,3,1,0,0,rectangle,6,3,1,0,0,6,3,1,0,0,0,104,104,38,1,,,,,,,,
,,,,,,,,,,,,,FF,,,,,,,,1.3616,,,,,,,,,,,,,,,,,,,,,,61022a84042923c389bf1499,61036870bc5fb54d72d13325,2021-07-29_22h53.38.980,Simcolourproject_2stim_asymm_v5,2020.2.10,Win32,60,61025ae37ef11b136ea224fe,,,,,,,,,3616,31,-67,1,0,0,response3disk,,4,4,-4,1,0,0,rectangle,4,-4,1,0,0,4,-4,1,0,0,0,105,105,110,1,,,,,,,,
,,,,,,,,,,,,,FF,,,,,,,,1.2315,,,,,,,,,,,,,,,,,,,,,,61022a84042923c389bf1499,61036870bc5fb54d72d13325,2021-07-29_22h53.38.980,Simcolourproject_2stim_asymm_v5,2020.2.10,Win32,60,61025ae37ef11b136ea224fe,,,,,,,,,1736,-59,37,1,0,0,response7disk,,1,-9,-1,1,0,0,rectangle,-9,-1,1,0,0,-9,-1,1,0,0,0,106,106,41,1,,,,,,,,
,,,,,,,,,,,,,FF,,,,,,,,0.6003,,,,,,,,,,,,,,,,,,,,,,61022a84042923c389bf1499,61036870bc5fb54d72d13325,2021-07-29_22h53.38.980,Simcolourproject_2stim_asymm_v5,2020.2.10,Win32,60,61025ae37ef11b136ea224fe,,,,,,,,,99,33,74,1,0,0,response1disk,,7,6,9,1,0,0,rectangle,6,9,1,0,0,6,9,1,0,0,0,107,107,144,1,,,,,,,,
,,,,,,,,,,,,,FF,,,,,,,,1.976,,,,,,,,,,,,,,,,,,,,,,61022a84042923c389bf1499,61036870bc5fb54d72d13325,2021-07-29_22h53.38.980,Simcolourproject_2stim_asymm_v5,2020.2.10,Win32,60,61025ae37ef11b136ea224fe,,,,,,,,,3761,23,46,1,0,0,response1disk,,7,13,9,1,0,0,rectangle,13,9,1,0,0,13,9,1,0,0,0,108,108,122,1,,,,,,,,
,,,,,,,,,,,,,FF,,,,,,,,0.8145,,,,,,,,,,,,,,,,,,,,,,61022a84042923c389bf1499,61036870bc5fb54d72d13325,2021-07-29_22h53.38.980,Simcolourproject_2stim_asymm_v5,2020.2.10,Win32,60,61025ae37ef11b136ea224fe,,,,,,,,,2608,-32,81,1,0,0,response7disk,,0,6,11,1,0,0,rectangle,6,11,1,0,0,6,11,1,0,0,0,109,109,33,1,,,,,,,,
,,,,,,,,,,,,,FF,,,,,,,,0.9988,,,,,,,,,,,,,,,,,,,,,,61022a84042923c389bf1499,61036870bc5fb54d72d13325,2021-07-29_22h53.38.980,Simcolourproject_2stim_asymm_v5,2020.2.10,Win32,60,61025ae37ef11b136ea224fe,,,,,,,,,573,45,65,1,0,0,response1disk,,7,9,6,1,0,0,rectangle,9,6,1,0,0,9,6,1,0,0,0,110,110,152,1,,,,,,,,
,,,,,,,,,,,,,FF,,,,,,,,1.1478,,,,,,,,,,,,,,,,,,,,,,61022a84042923c389bf1499,61036870bc5fb54d72d13325,2021-07-29_22h53.38.980,Simcolourproject_2stim_asymm_v5,2020.2.10,Win32,60,61025ae37ef11b136ea224fe,,,,,,,,,889,96,-31,1,0,0,response3disk,,5,-9,-1,1,0,0,rectangle,-9,-1,1,0,0,-9,-1,1,0,0,0,111,111,77,1,,,,,,,,
,,,,,,,,,,,,,FF,,,,,,,,0.7973,,,,,,,,,,,,,,,,,,,,,,61022a84042923c389bf1499,61036870bc5fb54d72d13325,2021-07-29_22h53.38.980,Simcolourproject_2stim_asymm_v5,2020.2.10,Win32,60,61025ae37ef11b136ea224fe,,,,,,,,,1009,40,87,1,0,0,response1disk,,7,23,-4,1,0,0,rectangle,23,-4,1,0,0,23,-4,1,0,0,0,112,112,116,1,,,,,,,,
,,,,,,,,,,,,,FF,,,,,,,,1.4469,,,,,,,,,,,,,,,,,,,,,,61022a84042923c389bf1499,61036870bc5fb54d72d13325,2021-07-29_22h53.38.980,Simcolourproject_2stim_asymm_v5,2020.2.10,Win32,60,61025ae37ef11b136ea224fe,,,,,,,,,2484,61,-74,1,0,0,response3disk,,4,4,0,1,0,0,rectangle,4,0,1,0,0,4,0,1,0,0,0,113,113,10,1,,,,,,,,
,,,,,,,,,,,,,FF,,,,,,,,0.8646,,,,,,,,,,,,,,,,,,,,,,61022a84042923c389bf1499,61036870bc5fb54d72d13325,2021-07-29_22h53.38.980,Simcolourproject_2stim_asymm_v5,2020.2.10,Win32,60,61025ae37ef11b136ea224fe,,,,,,,,,1159,-29,63,1,0,0,response7disk,,0,-2,10,1,0,0,rectangle,-2,10,1,0,0,-2,10,1,0,0,0,114,114,3,1,,,,,,,,
,,,,,,,,,,,,,FF,,,,,,,,3.3538,,,,,,,,,,,,,,,,,,,,,,61022a84042923c389bf1499,61036870bc5fb54d72d13325,2021-07-29_22h53.38.980,Simcolourproject_2stim_asymm_v5,2020.2.10,Win32,60,61025ae37ef11b136ea224fe,,,,,,,,,3047,92,42,1,0,0,response1disk,,6,20,12,1,0,0,rectangle,20,12,1,0,0,20,12,1,0,0,0,115,115,13,1,,,,,,,,
,,,,,,,,,,,,,FF,,,,,,,,0.7169,,,,,,,,,,,,,,,,,,,,,,61022a84042923c389bf1499,61036870bc5fb54d72d13325,2021-07-29_22h53.38.980,Simcolourproject_2stim_asymm_v5,2020.2.10,Win32,60,61025ae37ef11b136ea224fe,,,,,,,,,1272,38,92,1,0,0,response1disk,,7,4,-4,1,0,0,rectangle,-27,-71,1,0,0,12,-2,1,0,0,0,116,116,142,1,,response5disk_3,TRUE,3,3,"[165,67,63,168,161,201,138,212,192,298,253,284,179,238,19,158,199,117,43,33]",1.3607,rectangle
,,,,,,,,,,,,,FF,,,,,,,,0.5973,,,,,,,,,,,,,,,,,,,,,,61022a84042923c389bf1499,61036870bc5fb54d72d13325,2021-07-29_22h53.38.980,Simcolourproject_2stim_asymm_v5,2020.2.10,Win32,60,61025ae37ef11b136ea224fe,,,,,,,,,3122,28,71,1,0,0,response1disk,,7,5,-6,1,0,0,rectangle,5,-6,1,0,0,5,-6,1,0,0,0,117,117,95,1,,,,,,,,
,,,,,,,,,,,,,FF,,,,,,,,2.3717,,,,,,,,,,,,,,,,,,,,,,61022a84042923c389bf1499,61036870bc5fb54d72d13325,2021-07-29_22h53.38.980,Simcolourproject_2stim_asymm_v5,2020.2.10,Win32,60,61025ae37ef11b136ea224fe,,,,,,,,,3461,51,89,1,0,0,response1disk,,7,1,11,1,0,0,rectangle,1,11,1,0,0,1,11,1,0,0,0,118,118,75,1,,,,,,,,
,,,,,,,,,,,,,FF,,,,,,,,0.8325,,,,,,,,,,,,,,,,,,,,,,61022a84042923c389bf1499,61036870bc5fb54d72d13325,2021-07-29_22h53.38.980,Simcolourproject_2stim_asymm_v5,2020.2.10,Win32,60,61025ae37ef11b136ea224fe,,,,,,,,,4281,56,-18,1,0,0,response3disk,,5,13,-2,1,0,0,rectangle,13,-2,1,0,0,13,-2,1,0,0,0,119,119,81,1,,,,,,,,
,,,,,,,,,,,,,FF,,,,,,,,0.9656,,,,,,,,,,,,,,,,,,,,,,61022a84042923c389bf1499,61036870bc5fb54d72d13325,2021-07-29_22h53.38.980,Simcolourproject_2stim_asymm_v5,2020.2.10,Win32,60,61025ae37ef11b136ea224fe,,,,,,,,,639,40,-116,1,0,0,response3disk,,4,9,0,1,0,0,rectangle,9,0,1,0,0,9,0,1,0,0,0,120,120,68,1,,,,,,,,
,,,,,,,,,,,,,FF,,,,,,,,1.1005,,,,,,,,,,,,,,,,,,,,,,61022a84042923c389bf1499,61036870bc5fb54d72d13325,2021-07-29_22h53.38.980,Simcolourproject_2stim_asymm_v5,2020.2.10,Win32,60,61025ae37ef11b136ea224fe,,,,,,,,,643,95,47,1,0,0,response1disk,,6,4,6,1,0,0,rectangle,4,6,1,0,0,4,6,1,0,0,0,121,121,158,1,,,,,,,,
,,,,,,,,,,,,,FF,,,,,,,,0.9646,,,,,,,,,,,,,,,,,,,,,,61022a84042923c389bf1499,61036870bc5fb54d72d13325,2021-07-29_22h53.38.980,Simcolourproject_2stim_asymm_v5,2020.2.10,Win32,60,61025ae37ef11b136ea224fe,,,,,,,,,1369,91,-42,1,0,0,response3disk,,5,3,5,1,0,0,rectangle,3,5,1,0,0,3,5,1,0,0,0,122,122,27,1,,,,,,,,
,,,,,,,,,,,,,FF,,,,,,,,1.2462,,,,,,,,,,,,,,,,,,,,,,61022a84042923c389bf1499,61036870bc5fb54d72d13325,2021-07-29_22h53.38.980,Simcolourproject_2stim_asymm_v5,2020.2.10,Win32,60,61025ae37ef11b136ea224fe,,,,,,,,,1665,71,37,1,0,0,response1disk,,6,6,6,1,0,0,rectangle,6,6,1,0,0,6,6,1,0,0,0,123,123,151,1,,,,,,,,
,,,,,,,,,,,,,FF,,,,,,,,0.5669,,,,,,,,,,,,,,,,,,,,,,61022a84042923c389bf1499,61036870bc5fb54d72d13325,2021-07-29_22h53.38.980,Simcolourproject_2stim_asymm_v5,2020.2.10,Win32,60,61025ae37ef11b136ea224fe,,,,,,,,,4191,32,61,1,0,0,response1disk,,7,14,8,1,0,0,rectangle,14,8,1,0,0,14,8,1,0,0,0,124,124,128,1,,,,,,,,
,,,,,,,,,,,,,FF,,,,,,,,0.4555,,,,,,,,,,,,,,,,,,,,,,61022a84042923c389bf1499,61036870bc5fb54d72d13325,2021-07-29_22h53.38.980,Simcolourproject_2stim_asymm_v5,2020.2.10,Win32,60,61025ae37ef11b136ea224fe,,,,,,,,,503,31,56,1,0,0,response1disk,,7,12,-8,1,0,0,rectangle,12,-8,1,0,0,12,-8,1,0,0,0,125,125,145,1,,,,,,,,
,,,,,,,,,,,,,FF,,,,,,,,0.3999,,,,,,,,,,,,,,,,,,,,,,61022a84042923c389bf1499,61036870bc5fb54d72d13325,2021-07-29_22h53.38.980,Simcolourproject_2stim_asymm_v5,2020.2.10,Win32,60,61025ae37ef11b136ea224fe,,,,,,,,,1731,33,50,1,0,0,response1disk,,7,25,8,1,0,0,rectangle,25,8,1,0,0,25,8,1,0,0,0,126,126,62,1,,,,,,,,
,,,,,,,,,,,,,FF,,,,,,,,0.4995,,,,,,,,,,,,,,,,,,,,,,61022a84042923c389bf1499,61036870bc5fb54d72d13325,2021-07-29_22h53.38.980,Simcolourproject_2stim_asymm_v5,2020.2.10,Win32,60,61025ae37ef11b136ea224fe,,,,,,,,,3802,30,66,1,0,0,response1disk,,7,10,-11,1,0,0,rectangle,10,-11,1,0,0,10,-11,1,0,0,0,127,127,40,1,,,,,,,,
,,,,,,,,,,,,,FF,,,,,,,,0.4832,,,,,,,,,,,,,,,,,,,,,,61022a84042923c389bf1499,61036870bc5fb54d72d13325,2021-07-29_22h53.38.980,Simcolourproject_2stim_asymm_v5,2020.2.10,Win32,60,61025ae37ef11b136ea224fe,,,,,,,,,1249,31,72,1,0,0,response1disk,,7,28,3,1,0,0,rectangle,28,3,1,0,0,28,3,1,0,0,0,128,128,9,1,,,,,,,,
,,,,,,,,,,,,,FF,,,,,,,,0.6488,,,,,,,,,,,,,,,,,,,,,,61022a84042923c389bf1499,61036870bc5fb54d72d13325,2021-07-29_22h53.38.980,Simcolourproject_2stim_asymm_v5,2020.2.10,Win32,60,61025ae37ef11b136ea224fe,,,,,,,,,4298,36,83,1,0,0,response1disk,,7,20,4,1,0,0,rectangle,20,4,1,0,0,20,4,1,0,0,0,129,129,82,1,,,,,,,,
,,,,,,,,,,,,,FF,,,,,,,,0.484,,,,,,,,,,,,,,,,,,,,,,61022a84042923c389bf1499,61036870bc5fb54d72d13325,2021-07-29_22h53.38.980,Simcolourproject_2stim_asymm_v5,2020.2.10,Win32,60,61025ae37ef11b136ea224fe,,,,,,,,,1345,35,88,1,0,0,response1disk,,7,27,13,1,0,0,rectangle,27,13,1,0,0,27,13,1,0,0,0,130,130,146,1,,,,,,,,
,,,,,,,,,,,,,FF,,,,,,,,0.4502,,,,,,,,,,,,,,,,,,,,,,61022a84042923c389bf1499,61036870bc5fb54d72d13325,2021-07-29_22h53.38.980,Simcolourproject_2stim_asymm_v5,2020.2.10,Win32,60,61025ae37ef11b136ea224fe,,,,,,,,,1779,31,64,1,0,0,response1disk,,7,20,4,1,0,0,rectangle,20,4,1,0,0,20,4,1,0,0,0,131,131,6,1,,,,,,,,
,,,,,,,,,,,,,FF,,,,,,,,0.4186,,,,,,,,,,,,,,,,,,,,,,61022a84042923c389bf1499,61036870bc5fb54d72d13325,2021-07-29_22h53.38.980,Simcolourproject_2stim_asymm_v5,2020.2.10,Win32,60,61025ae37ef11b136ea224fe,,,,,,,,,122,22,63,1,0,0,response1disk,,7,22,12,1,0,0,rectangle,22,12,1,0,0,22,12,1,0,0,0,132,132,87,1,,,,,,,,
,,,,,,,,,,,,,FF,,,,,,,,0.3532,,,,,,,,,,,,,,,,,,,,,,61022a84042923c389bf1499,61036870bc5fb54d72d13325,2021-07-29_22h53.38.980,Simcolourproject_2stim_asymm_v5,2020.2.10,Win32,60,61025ae37ef11b136ea224fe,,,,,,,,,3223,28,49,1,0,0,response1disk,,7,24,6,1,0,0,rectangle,24,6,1,0,0,24,6,1,0,0,0,133,133,23,1,,,,,,,,
,,,,,,,,,,,,,FF,,,,,,,,1.0323,,,,,,,,,,,,,,,,,,,,,,61022a84042923c389bf1499,61036870bc5fb54d72d13325,2021-07-29_22h53.38.980,Simcolourproject_2stim_asymm_v5,2020.2.10,Win32,60,61025ae37ef11b136ea224fe,,,,,,,,,3094,70,-18,1,0,0,response3disk,,5,7,4,1,0,0,rectangle,7,4,1,0,0,7,4,1,0,0,0,134,134,35,1,,,,,,,,
,,,,,,,,,,,,,FF,,,,,,,,0.8482,,,,,,,,,,,,,,,,,,,,,,61022a84042923c389bf1499,61036870bc5fb54d72d13325,2021-07-29_22h53.38.980,Simcolourproject_2stim_asymm_v5,2020.2.10,Win32,60,61025ae37ef11b136ea224fe,,,,,,,,,2969,93,-37,1,0,0,response3disk,,5,14,-7,1,0,0,rectangle,14,-7,1,0,0,14,-7,1,0,0,0,135,135,76,1,,,,,,,,
,,,,,,,,,,,,,FF,,,,,,,,1.4624,,,,,,,,,,,,,,,,,,,,,,61022a84042923c389bf1499,61036870bc5fb54d72d13325,2021-07-29_22h53.38.980,Simcolourproject_2stim_asymm_v5,2020.2.10,Win32,60,61025ae37ef11b136ea224fe,,,,,,,,,4295,-33,-86,1,0,0,response5disk,,3,28,7,1,0,0,rectangle,28,7,1,0,0,28,7,1,0,0,0,136,136,88,1,,,,,,,,
,,,,,,,,,,,,,FF,,,,,,,,0.5003,,,,,,,,,,,,,,,,,,,,,,61022a84042923c389bf1499,61036870bc5fb54d72d13325,2021-07-29_22h53.38.980,Simcolourproject_2stim_asymm_v5,2020.2.10,Win32,60,61025ae37ef11b136ea224fe,,,,,,,,,3455,31,63,1,0,0,response1disk,,7,10,7,1,0,0,rectangle,-56,-28,1,0,0,-11,-3,1,0,0,0,137,137,104,1,,response5disk_3,TRUE,2,2,"[165,67,63,168,161,201,138,212,192,298,253,284,179,238,19,158,199,117,43,33]",1.3453,rectangle
,,,,,,,,,,,,,FF,,,,,,,,2.3429,,,,,,,,,,,,,,,,,,,,,,61022a84042923c389bf1499,61036870bc5fb54d72d13325,2021-07-29_22h53.38.980,Simcolourproject_2stim_asymm_v5,2020.2.10,Win32,60,61025ae37ef11b136ea224fe,,,,,,,,,803,-55,-73,1,0,0,response5disk,,3,-10,-8,1,0,0,rectangle,-10,-8,1,0,0,-10,-8,1,0,0,0,138,138,84,1,,,,,,,,
,,,,,,,,,,,,,FF,,,,,,,,0.96,,,,,,,,,,,,,,,,,,,,,,61022a84042923c389bf1499,61036870bc5fb54d72d13325,2021-07-29_22h53.38.980,Simcolourproject_2stim_asymm_v5,2020.2.10,Win32,60,61025ae37ef11b136ea224fe,,,,,,,,,1690,-62,-24,1,0,0,response5disk,,2,-5,8,1,0,0,rectangle,-5,8,1,0,0,-5,8,1,0,0,0,139,139,140,1,,,,,,,,
,,,,,,,,,,,,,FF,,,,,,,,0.9627,,,,,,,,,,,,,,,,,,,,,,61022a84042923c389bf1499,61036870bc5fb54d72d13325,2021-07-29_22h53.38.980,Simcolourproject_2stim_asymm_v5,2020.2.10,Win32,60,61025ae37ef11b136ea224fe,,,,,,,,,2419,-63,46,1,0,0,response7disk,,1,14,14,1,0,0,rectangle,14,14,1,0,0,14,14,1,0,0,0,140,140,34,1,,,,,,,,
,,,,,,,,,,,,,FF,,,,,,,,0.7321,,,,,,,,,,,,,,,,,,,,,,61022a84042923c389bf1499,61036870bc5fb54d72d13325,2021-07-29_22h53.38.980,Simcolourproject_2stim_asymm_v5,2020.2.10,Win32,60,61025ae37ef11b136ea224fe,,,,,,,,,891,-48,25,1,0,0,response7disk,,1,-11,1,1,0,0,rectangle,-11,1,1,0,0,-11,1,1,0,0,0,141,141,19,1,,,,,,,,
,,,,,,,,,,,,,FF,,,,,,,,1.1302,,,,,,,,,,,,,,,,,,,,,,61022a84042923c389bf1499,61036870bc5fb54d72d13325,2021-07-29_22h53.38.980,Simcolourproject_2stim_asymm_v5,2020.2.10,Win32,60,61025ae37ef11b136ea224fe,,,,,,,,,3006,-22,-63,1,0,0,response5disk,,3,10,-5,1,0,0,rectangle,10,-5,1,0,0,10,-5,1,0,0,0,142,142,7,1,,,,,,,,
,,,,,,,,,,,,,FF,,,,,,,,0.6299,,,,,,,,,,,,,,,,,,,,,,61022a84042923c389bf1499,61036870bc5fb54d72d13325,2021-07-29_22h53.38.980,Simcolourproject_2stim_asymm_v5,2020.2.10,Win32,60,61025ae37ef11b136ea224fe,,,,,,,,,2455,31,84,1,0,0,response1disk,,7,22,7,1,0,0,rectangle,22,7,1,0,0,22,7,1,0,0,0,143,143,90,1,,,,,,,,
,,,,,,,,,,,,,FF,,,,,,,,0.4999,,,,,,,,,,,,,,,,,,,,,,61022a84042923c389bf1499,61036870bc5fb54d72d13325,2021-07-29_22h53.38.980,Simcolourproject_2stim_asymm_v5,2020.2.10,Win32,60,61025ae37ef11b136ea224fe,,,,,,,,,3640,29,60,1,0,0,response1disk,,7,18,2,1,0,0,rectangle,18,2,1,0,0,18,2,1,0,0,0,144,144,8,1,,,,,,,,
,,,,,,,,,,,,,FF,,,,,,,,1.159,,,,,,,,,,,,,,,,,,,,,,61022a84042923c389bf1499,61036870bc5fb54d72d13325,2021-07-29_22h53.38.980,Simcolourproject_2stim_asymm_v5,2020.2.10,Win32,60,61025ae37ef11b136ea224fe,,,,,,,,,2821,86,40,1,0,0,response1disk,,6,8,-1,1,0,0,rectangle,8,-1,1,0,0,8,-1,1,0,0,0,145,145,54,1,,,,,,,,
,,,,,,,,,,,,,FF,,,,,,,,1.4101,,,,,,,,,,,,,,,,,,,,,,61022a84042923c389bf1499,61036870bc5fb54d72d13325,2021-07-29_22h53.38.980,Simcolourproject_2stim_asymm_v5,2020.2.10,Win32,60,61025ae37ef11b136ea224fe,,,,,,,,,551,65,20,1,0,0,response1disk,,6,18,3,1,0,0,rectangle,18,3,1,0,0,18,3,1,0,0,0,146,146,92,1,,,,,,,,
,,,,,,,,,,,,,FF,,,,,,,,1.0109,,,,,,,,,,,,,,,,,,,,,,61022a84042923c389bf1499,61036870bc5fb54d72d13325,2021-07-29_22h53.38.980,Simcolourproject_2stim_asymm_v5,2020.2.10,Win32,60,61025ae37ef11b136ea224fe,,,,,,,,,4367,57,-36,1,0,0,response3disk,,5,10,-1,1,0,0,rectangle,10,-1,1,0,0,10,-1,1,0,0,0,147,147,36,1,,,,,,,,
,,,,,,,,,,,,,FF,,,,,,,,0.8805,,,,,,,,,,,,,,,,,,,,,,61022a84042923c389bf1499,61036870bc5fb54d72d13325,2021-07-29_22h53.38.980,Simcolourproject_2stim_asymm_v5,2020.2.10,Win32,60,61025ae37ef11b136ea224fe,,,,,,,,,2493,25,53,1,0,0,response1disk,,7,4,15,1,0,0,rectangle,4,15,1,0,0,4,15,1,0,0,0,148,148,89,1,,,,,,,,
,,,,,,,,,,,,,FF,,,,,,,,0.763,,,,,,,,,,,,,,,,,,,,,,61022a84042923c389bf1499,61036870bc5fb54d72d13325,2021-07-29_22h53.38.980,Simcolourproject_2stim_asymm_v5,2020.2.10,Win32,60,61025ae37ef11b136ea224fe,,,,,,,,,584,26,55,1,0,0,response1disk,,7,21,5,1,0,0,rectangle,21,5,1,0,0,21,5,1,0,0,0,149,149,30,1,,,,,,,,
,,,,,,,,,,,,,FF,,,,,,,,0.4336,,,,,,,,,,,,,,,,,,,,,,61022a84042923c389bf1499,61036870bc5fb54d72d13325,2021-07-29_22h53.38.980,Simcolourproject_2stim_asymm_v5,2020.2.10,Win32,60,61025ae37ef11b136ea224fe,,,,,,,,,2671,33,51,1,0,0,response1disk,,7,24,-3,1,0,0,rectangle,24,-3,1,0,0,24,-3,1,0,0,0,150,150,12,1,,,,,,,,
,,,,,,,,,,,,,FF,,,,,,,,0.5469,,,,,,,,,,,,,,,,,,,,,,61022a84042923c389bf1499,61036870bc5fb54d72d13325,2021-07-29_22h53.38.980,Simcolourproject_2stim_asymm_v5,2020.2.10,Win32,60,61025ae37ef11b136ea224fe,,,,,,,,,474,28,72,1,0,0,response1disk,,7,25,2,1,0,0,rectangle,25,2,1,0,0,25,2,1,0,0,0,151,151,100,1,,,,,,,,
,,,,,,,,,,,,,FF,,,,,,,,1.0432,,,,,,,,,,,,,,,,,,,,,,61022a84042923c389bf1499,61036870bc5fb54d72d13325,2021-07-29_22h53.38.980,Simcolourproject_2stim_asymm_v5,2020.2.10,Win32,60,61025ae37ef11b136ea224fe,,,,,,,,,2603,76,33,1,0,0,response1disk,,6,28,6,1,0,0,rectangle,28,6,1,0,0,28,6,1,0,0,0,152,152,113,1,,,,,,,,
,,,,,,,,,,,,,FF,,,,,,,,0.6462,,,,,,,,,,,,,,,,,,,,,,61022a84042923c389bf1499,61036870bc5fb54d72d13325,2021-07-29_22h53.38.980,Simcolourproject_2stim_asymm_v5,2020.2.10,Win32,60,61025ae37ef11b136ea224fe,,,,,,,,,3230,29,48,1,0,0,response1disk,,7,12,0,1,0,0,rectangle,12,0,1,0,0,12,0,1,0,0,0,153,153,56,1,,,,,,,,
,,,,,,,,,,,,,FF,,,,,,,,0.8627,,,,,,,,,,,,,,,,,,,,,,61022a84042923c389bf1499,61036870bc5fb54d72d13325,2021-07-29_22h53.38.980,Simcolourproject_2stim_asymm_v5,2020.2.10,Win32,60,61025ae37ef11b136ea224fe,,,,,,,,,2401,17,62,1,0,0,response1disk,,7,10,1,1,0,0,rectangle,10,1,1,0,0,10,1,1,0,0,0,154,154,72,1,,,,,,,,
,,,,,,,,,,,,,FF,,,,,,,,0.8807,,,,,,,,,,,,,,,,,,,,,,61022a84042923c389bf1499,61036870bc5fb54d72d13325,2021-07-29_22h53.38.980,Simcolourproject_2stim_asymm_v5,2020.2.10,Win32,60,61025ae37ef11b136ea224fe,,,,,,,,,1134,82,-41,1,0,0,response3disk,,5,-29,0,1,0,0,rectangle,-29,0,1,0,0,-29,0,1,0,0,0,155,155,5,1,,,,,,,,
,,,,,,,,,,,,,FF,,,,,,,,0.5479,,,,,,,,,,,,,,,,,,,,,,61022a84042923c389bf1499,61036870bc5fb54d72d13325,2021-07-29_22h53.38.980,Simcolourproject_2stim_asymm_v5,2020.2.10,Win32,60,61025ae37ef11b136ea224fe,,,,,,,,,3144,24,83,1,0,0,response1disk,,7,15,10,1,0,0,rectangle,15,10,1,0,0,15,10,1,0,0,0,156,156,14,1,,,,,,,,
,,,,,,,,,,,,,FF,,,,,,,,1.8582,,,,,,,,,,,,,,,,,,,,,,61022a84042923c389bf1499,61036870bc5fb54d72d13325,2021-07-29_22h53.38.980,Simcolourproject_2stim_asymm_v5,2020.2.10,Win32,60,61025ae37ef11b136ea224fe,,,,,,,,,3540,82,-28,1,0,0,response3disk,,5,-15,12,1,0,0,rectangle,31,-55,1,0,0,19,-7,1,0,0,0,157,157,107,1,,response3disk_3,TRUE,4,4,"[165,67,63,168,161,201,138,212,192,298,253,284,179,238,19,158,199,117,43,33]",1.2833,rectangle
,,,,,,,,,,,,,FF,,,,,,,,0.8931,,,,,,,,,,,,,,,,,,,,,,61022a84042923c389bf1499,61036870bc5fb54d72d13325,2021-07-29_22h53.38.980,Simcolourproject_2stim_asymm_v5,2020.2.10,Win32,60,61025ae37ef11b136ea224fe,,,,,,,,,4221,68,22,1,0,0,response1disk,,6,-1,-7,1,0,0,rectangle,-1,-7,1,0,0,-1,-7,1,0,0,0,158,158,46,1,,,,,,,,
,,,,,,,,,,,,,FF,,,,,,,,0.9129,,,,,,,,,,,,,,,,,,,,,,61022a84042923c389bf1499,61036870bc5fb54d72d13325,2021-07-29_22h53.38.980,Simcolourproject_2stim_asymm_v5,2020.2.10,Win32,60,61025ae37ef11b136ea224fe,,,,,,,,,1841,40,-58,1,0,0,response3disk,,4,6,-15,1,0,0,rectangle,6,-15,1,0,0,6,-15,1,0,0,0,159,159,69,1,,,,,,,,
,,,,,,,,,,,,,FF,,,,,,,,0.8464,,,,,,,,,,,,,,,,,,,,,,61022a84042923c389bf1499,61036870bc5fb54d72d13325,2021-07-29_22h53.38.980,Simcolourproject_2stim_asymm_v5,2020.2.10,Win32,60,61025ae37ef11b136ea224fe,,,,,,,,,4323,38,64,1,0,0,response1disk,,7,13,2,1,0,0,rectangle,80,51,1,0,0,8,1,1,0,0,1,0,160,105,1,,response1disk_3,TRUE,6,6,"[165,67,63,168,161,201,138,212,192,298,253,284,179,238,19,158,199,117,43,33]",1.3981,rectangle
,,,,,,,,,,,,,FF,,,,,,,,1.7577,,,,,,,,,,,,,,,,,,,,,,61022a84042923c389bf1499,61036870bc5fb54d72d13325,2021-07-29_22h53.38.980,Simcolourproject_2stim_asymm_v5,2020.2.10,Win32,60,61025ae37ef11b136ea224fe,,,,,,,,,2243,41,-86,1,0,0,response3disk,,4,9,3,1,0,0,rectangle,9,3,1,0,0,9,3,1,0,0,1,1,161,114,1,,,,,,,,
,,,,,,,,,,,,,FF,,,,,,,,1.0447,,,,,,,,,,,,,,,,,,,,,,61022a84042923c389bf1499,61036870bc5fb54d72d13325,2021-07-29_22h53.38.980,Simcolourproject_2stim_asymm_v5,2020.2.10,Win32,60,61025ae37ef11b136ea224fe,,,,,,,,,2978,49,39,1,0,0,response1disk,,6,23,8,1,0,0,rectangle,23,8,1,0,0,23,8,1,0,0,1,2,162,74,1,,,,,,,,
,,,,,,,,,,,,,FF,,,,,,,,0.6311,,,,,,,,,,,,,,,,,,,,,,61022a84042923c389bf1499,61036870bc5fb54d72d13325,2021-07-29_22h53.38.980,Simcolourproject_2stim_asymm_v5,2020.2.10,Win32,60,61025ae37ef11b136ea224fe,,,,,,,,,163,37,68,1,0,0,response1disk,,7,9,-5,1,0,0,rectangle,9,-5,1,0,0,9,-5,1,0,0,1,3,163,94,1,,,,,,,,
,,,,,,,,,,,,,FF,,,,,,,,2.0182,,,,,,,,,,,,,,,,,,,,,,61022a84042923c389bf1499,61036870bc5fb54d72d13325,2021-07-29_22h53.38.980,Simcolourproject_2stim_asymm_v5,2020.2.10,Win32,60,61025ae37ef11b136ea224fe,,,,,,,,,2231,100,-23,1,0,0,response3disk,,5,30,-1,1,0,0,rectangle,40,88,1,0,0,19,-2,1,0,0,1,4,164,41,1,,response1disk_3,TRUE,7,7,"[165,67,63,168,161,201,138,212,192,298,253,284,179,238,19,158,199,117,43,33]",1.4923,rectangle
,,,,,,,,,,,,,FF,,,,,,,,1.2435,,,,,,,,,,,,,,,,,,,,,,61022a84042923c389bf1499,61036870bc5fb54d72d13325,2021-07-29_22h53.38.980,Simcolourproject_2stim_asymm_v5,2020.2.10,Win32,60,61025ae37ef11b136ea224fe,,,,,,,,,2386,60,32,1,0,0,response1disk,,6,12,-6,1,0,0,rectangle,12,-6,1,0,0,12,-6,1,0,0,1,5,165,17,1,,,,,,,,
,,,,,,,,,,,,,FF,,,,,,,,1.8291,,,,,,,,,,,,,,,,,,,,,,61022a84042923c389bf1499,61036870bc5fb54d72d13325,2021-07-29_22h53.38.980,Simcolourproject_2stim_asymm_v5,2020.2.10,Win32,60,61025ae37ef11b136ea224fe,,,,,,,,,28,34,81,1,0,0,response1disk,,7,17,1,1,0,0,rectangle,17,1,1,0,0,17,1,1,0,0,1,6,166,96,1,,,,,,,,
,,,,,,,,,,,,,FF,,,,,,,,0.9121,,,,,,,,,,,,,,,,,,,,,,61022a84042923c389bf1499,61036870bc5fb54d72d13325,2021-07-29_22h53.38.980,Simcolourproject_2stim_asymm_v5,2020.2.10,Win32,60,61025ae37ef11b136ea224fe,,,,,,,,,2774,38,119,1,0,0,response1disk,,7,21,4,1,0,0,rectangle,65,-37,1,0,0,20,-6,1,0,0,1,7,167,13,1,,response3disk_3,TRUE,5,5,"[165,67,63,168,161,201,138,212,192,298,253,284,179,238,19,158,199,117,43,33]",1.1435,rectangle
,,,,,,,,,,,,,FF,,,,,,,,0.8829,,,,,,,,,,,,,,,,,,,,,,61022a84042923c389bf1499,61036870bc5fb54d72d13325,2021-07-29_22h53.38.980,Simcolourproject_2stim_asymm_v5,2020.2.10,Win32,60,61025ae37ef11b136ea224fe,,,,,,,,,1742,40,63,1,0,0,response1disk,,7,11,10,1,0,0,rectangle,11,10,1,0,0,11,10,1,0,0,1,8,168,136,1,,,,,,,,
,,,,,,,,,,,,,FF,,,,,,,,0.5632,,,,,,,,,,,,,,,,,,,,,,61022a84042923c389bf1499,61036870bc5fb54d72d13325,2021-07-29_22h53.38.980,Simcolourproject_2stim_asymm_v5,2020.2.10,Win32,60,61025ae37ef11b136ea224fe,,,,,,,,,2384,35,77,1,0,0,response1disk,,7,10,11,1,0,0,rectangle,10,11,1,0,0,10,11,1,0,0,1,9,169,141,1,,,,,,,,
,,,,,,,,,,,,,FF,,,,,,,,0.7132,,,,,,,,,,,,,,,,,,,,,,61022a84042923c389bf1499,61036870bc5fb54d72d13325,2021-07-29_22h53.38.980,Simcolourproject_2stim_asymm_v5,2020.2.10,Win32,60,61025ae37ef11b136ea224fe,,,,,,,,,3038,62,-45,1,0,0,response3disk,,5,-6,-5,1,0,0,rectangle,-6,-5,1,0,0,-6,-5,1,0,0,1,10,170,85,1,,,,,,,,
,,,,,,,,,,,,,FF,,,,,,,,0.5474,,,,,,,,,,,,,,,,,,,,,,61022a84042923c389bf1499,61036870bc5fb54d72d13325,2021-07-29_22h53.38.980,Simcolourproject_2stim_asymm_v5,2020.2.10,Win32,60,61025ae37ef11b136ea224fe,,,,,,,,,425,30,71,1,0,0,response1disk,,7,24,7,1,0,0,rectangle,24,7,1,0,0,24,7,1,0,0,1,11,171,109,1,,,,,,,,
,,,,,,,,,,,,,FF,,,,,,,,0.4646,,,,,,,,,,,,,,,,,,,,,,61022a84042923c389bf1499,61036870bc5fb54d72d13325,2021-07-29_22h53.38.980,Simcolourproject_2stim_asymm_v5,2020.2.10,Win32,60,61025ae37ef11b136ea224fe,,,,,,,,,934,33,56,1,0,0,response1disk,,7,24,9,1,0,0,rectangle,24,9,1,0,0,24,9,1,0,0,1,12,172,0,1,,,,,,,,
,,,,,,,,,,,,,FF,,,,,,,,1.3937,,,,,,,,,,,,,,,,,,,,,,61022a84042923c389bf1499,61036870bc5fb54d72d13325,2021-07-29_22h53.38.980,Simcolourproject_2stim_asymm_v5,2020.2.10,Win32,60,61025ae37ef11b136ea224fe,,,,,,,,,2033,-26,-78,1,0,0,response5disk,,3,10,-1,1,0,0,rectangle,10,-1,1,0,0,10,-1,1,0,0,1,13,173,3,1,,,,,,,,
,,,,,,,,,,,,,FF,,,,,,,,0.9628,,,,,,,,,,,,,,,,,,,,,,61022a84042923c389bf1499,61036870bc5fb54d72d13325,2021-07-29_22h53.38.980,Simcolourproject_2stim_asymm_v5,2020.2.10,Win32,60,61025ae37ef11b136ea224fe,,,,,,,,,1523,-59,-18,1,0,0,response5disk,,2,3,4,1,0,0,rectangle,3,4,1,0,0,3,4,1,0,0,1,14,174,46,1,,,,,,,,
,,,,,,,,,,,,,FF,,,,,,,,0.7131,,,,,,,,,,,,,,,,,,,,,,61022a84042923c389bf1499,61036870bc5fb54d72d13325,2021-07-29_22h53.38.980,Simcolourproject_2stim_asymm_v5,2020.2.10,Win32,60,61025ae37ef11b136ea224fe,,,,,,,,,1257,23,48,1,0,0,response1disk,,7,17,-3,1,0,0,rectangle,17,-3,1,0,0,17,-3,1,0,0,1,15,175,111,1,,,,,,,,
,,,,,,,,,,,,,FF,,,,,,,,0.9456,,,,,,,,,,,,,,,,,,,,,,61022a84042923c389bf1499,61036870bc5fb54d72d13325,2021-07-29_22h53.38.980,Simcolourproject_2stim_asymm_v5,2020.2.10,Win32,60,61025ae37ef11b136ea224fe,,,,,,,,,2502,31,58,1,0,0,response1disk,,7,31,7,1,0,0,rectangle,31,7,1,0,0,31,7,1,0,0,1,16,176,37,1,,,,,,,,
,,,,,,,,,,,,,FF,,,,,,,,0.8638,,,,,,,,,,,,,,,,,,,,,,61022a84042923c389bf1499,61036870bc5fb54d72d13325,2021-07-29_22h53.38.980,Simcolourproject_2stim_asymm_v5,2020.2.10,Win32,60,61025ae37ef11b136ea224fe,,,,,,,,,2995,74,-24,1,0,0,response3disk,,5,21,-3,1,0,0,rectangle,21,-3,1,0,0,21,-3,1,0,0,1,17,177,152,1,,,,,,,,
,,,,,,,,,,,,,FF,,,,,,,,6.3175,,,,,,,,,,,,,,,,,,,,,,61022a84042923c389bf1499,61036870bc5fb54d72d13325,2021-07-29_22h53.38.980,Simcolourproject_2stim_asymm_v5,2020.2.10,Win32,60,61025ae37ef11b136ea224fe,,,,,,,,,3073,35,76,1,0,0,response1disk,,7,9,4,1,0,0,rectangle,100,-46,1,0,0,-1,5,1,0,0,1,18,178,30,1,,response3disk_3,TRUE,5,5,"[165,67,63,168,161,201,138,212,192,298,253,284,179,238,19,158,199,117,43,33]",1.9257,rectangle
,,,,,,,,,,,,,FF,,,,,,,,1.0624,,,,,,,,,,,,,,,,,,,,,,61022a84042923c389bf1499,61036870bc5fb54d72d13325,2021-07-29_22h53.38.980,Simcolourproject_2stim_asymm_v5,2020.2.10,Win32,60,61025ae37ef11b136ea224fe,,,,,,,,,1719,118,-22,1,0,0,response3disk,,5,-10,9,1,0,0,rectangle,-10,9,1,0,0,-10,9,1,0,0,1,19,179,29,1,,,,,,,,
,,,,,,,,,,,,,FF,,,,,,,,0.7678,,,,,,,,,,,,,,,,,,,,,,61022a84042923c389bf1499,61036870bc5fb54d72d13325,2021-07-29_22h53.38.980,Simcolourproject_2stim_asymm_v5,2020.2.10,Win32,60,61025ae37ef11b136ea224fe,,,,,,,,,1330,89,44,1,0,0,response1disk,,6,16,1,1,0,0,rectangle,16,1,1,0,0,16,1,1,0,0,1,20,180,110,1,,,,,,,,
,,,,,,,,,,,,,FF,,,,,,,,0.6139,,,,,,,,,,,,,,,,,,,,,,61022a84042923c389bf1499,61036870bc5fb54d72d13325,2021-07-29_22h53.38.980,Simcolourproject_2stim_asymm_v5,2020.2.10,Win32,60,61025ae37ef11b136ea224fe,,,,,,,,,2081,74,34,1,0,0,response1disk,,6,21,0,1,0,0,rectangle,21,0,1,0,0,21,0,1,0,0,1,21,181,48,1,,,,,,,,
,,,,,,,,,,,,,FF,,,,,,,,1.0296,,,,,,,,,,,,,,,,,,,,,,61022a84042923c389bf1499,61036870bc5fb54d72d13325,2021-07-29_22h53.38.980,Simcolourproject_2stim_asymm_v5,2020.2.10,Win32,60,61025ae37ef11b136ea224fe,,,,,,,,,2238,97,40,1,0,0,response1disk,,6,7,2,1,0,0,rectangle,7,2,1,0,0,7,2,1,0,0,1,22,182,87,1,,,,,,,,
,,,,,,,,,,,,,FF,,,,,,,,0.4977,,,,,,,,,,,,,,,,,,,,,,61022a84042923c389bf1499,61036870bc5fb54d72d13325,2021-07-29_22h53.38.980,Simcolourproject_2stim_asymm_v5,2020.2.10,Win32,60,61025ae37ef11b136ea224fe,,,,,,,,,147,30,65,1,0,0,response1disk,,7,15,6,1,0,0,rectangle,15,6,1,0,0,15,6,1,0,0,1,23,183,24,1,,,,,,,,
,,,,,,,,,,,,,FF,,,,,,,,0.5172,,,,,,,,,,,,,,,,,,,,,,61022a84042923c389bf1499,61036870bc5fb54d72d13325,2021-07-29_22h53.38.980,Simcolourproject_2stim_asymm_v5,2020.2.10,Win32,60,61025ae37ef11b136ea224fe,,,,,,,,,18,32,74,1,0,0,response1disk,,7,20,5,1,0,0,rectangle,20,5,1,0,0,20,5,1,0,0,1,24,184,130,1,,,,,,,,
,,,,,,,,,,,,,FF,,,,,,,,0.7019,,,,,,,,,,,,,,,,,,,,,,61022a84042923c389bf1499,61036870bc5fb54d72d13325,2021-07-29_22h53.38.980,Simcolourproject_2stim_asymm_v5,2020.2.10,Win32,60,61025ae37ef11b136ea224fe,,,,,,,,,1066,77,41,1,0,0,response1disk,,6,12,9,1,0,0,rectangle,12,9,1,0,0,12,9,1,0,0,1,25,185,113,1,,,,,,,,
,,,,,,,,,,,,,FF,,,,,,,,0.7787,,,,,,,,,,,,,,,,,,,,,,61022a84042923c389bf1499,61036870bc5fb54d72d13325,2021-07-29_22h53.38.980,Simcolourproject_2stim_asymm_v5,2020.2.10,Win32,60,61025ae37ef11b136ea224fe,,,,,,,,,538,29,70,1,0,0,response1disk,,7,17,0,1,0,0,rectangle,17,0,1,0,0,17,0,1,0,0,1,26,186,97,1,,,,,,,,
,,,,,,,,,,,,,FF,,,,,,,,0.6471,,,,,,,,,,,,,,,,,,,,,,61022a84042923c389bf1499,61036870bc5fb54d72d13325,2021-07-29_22h53.38.980,Simcolourproject_2stim_asymm_v5,2020.2.10,Win32,60,61025ae37ef11b136ea224fe,,,,,,,,,4209,40,75,1,0,0,response1disk,,7,18,0,1,0,0,rectangle,18,0,1,0,0,18,0,1,0,0,1,27,187,103,1,,,,,,,,
,,,,,,,,,,,,,FF,,,,,,,,0.2987,,,,,,,,,,,,,,,,,,,,,,61022a84042923c389bf1499,61036870bc5fb54d72d13325,2021-07-29_22h53.38.980,Simcolourproject_2stim_asymm_v5,2020.2.10,Win32,60,61025ae37ef11b136ea224fe,,,,,,,,,513,46,72,1,0,0,response1disk,,7,32,13,1,0,0,rectangle,32,13,1,0,0,32,13,1,0,0,1,28,188,34,1,,,,,,,,
,,,,,,,,,,,,,FF,,,,,,,,0.7133,,,,,,,,,,,,,,,,,,,,,,61022a84042923c389bf1499,61036870bc5fb54d72d13325,2021-07-29_22h53.38.980,Simcolourproject_2stim_asymm_v5,2020.2.10,Win32,60,61025ae37ef11b136ea224fe,,,,,,,,,2615,53,-70,1,0,0,response3disk,,4,13,7,1,0,0,rectangle,13,7,1,0,0,13,7,1,0,0,1,29,189,57,1,,,,,,,,
,,,,,,,,,,,,,FF,,,,,,,,0.4841,,,,,,,,,,,,,,,,,,,,,,61022a84042923c389bf1499,61036870bc5fb54d72d13325,2021-07-29_22h53.38.980,Simcolourproject_2stim_asymm_v5,2020.2.10,Win32,60,61025ae37ef11b136ea224fe,,,,,,,,,4176,21,78,1,0,0,response1disk,,7,9,-3,1,0,0,rectangle,9,-3,1,0,0,9,-3,1,0,0,1,30,190,35,1,,,,,,,,
,,,,,,,,,,,,,FF,,,,,,,,0.5515,,,,,,,,,,,,,,,,,,,,,,61022a84042923c389bf1499,61036870bc5fb54d72d13325,2021-07-29_22h53.38.980,Simcolourproject_2stim_asymm_v5,2020.2.10,Win32,60,61025ae37ef11b136ea224fe,,,,,,,,,605,29,51,1,0,0,response1disk,,7,7,-6,1,0,0,rectangle,-30,81,1,0,0,6,-12,1,0,0,1,31,191,49,1,,response7disk_3,TRUE,0,0,"[165,67,63,168,161,201,138,212,192,298,253,284,179,238,19,158,199,117,43,33]",1.4465,rectangle
,,,,,,,,,,,,,FF,,,,,,,,0.6135,,,,,,,,,,,,,,,,,,,,,,61022a84042923c389bf1499,61036870bc5fb54d72d13325,2021-07-29_22h53.38.980,Simcolourproject_2stim_asymm_v5,2020.2.10,Win32,60,61025ae37ef11b136ea224fe,,,,,,,,,798,44,88,1,0,0,response1disk,,7,7,-4,1,0,0,rectangle,7,-4,1,0,0,7,-4,1,0,0,1,32,192,72,1,,,,,,,,
,,,,,,,,,,,,,FF,,,,,,,,0.6928,,,,,,,,,,,,,,,,,,,,,,61022a84042923c389bf1499,61036870bc5fb54d72d13325,2021-07-29_22h53.38.980,Simcolourproject_2stim_asymm_v5,2020.2.10,Win32,60,61025ae37ef11b136ea224fe,,,,,,,,,2792,43,92,1,0,0,response1disk,,7,17,-12,1,0,0,rectangle,17,-12,1,0,0,17,-12,1,0,0,1,33,193,16,1,,,,,,,,
,,,,,,,,,,,,,FF,,,,,,,,0.7668,,,,,,,,,,,,,,,,,,,,,,61022a84042923c389bf1499,61036870bc5fb54d72d13325,2021-07-29_22h53.38.980,Simcolourproject_2stim_asymm_v5,2020.2.10,Win32,60,61025ae37ef11b136ea224fe,,,,,,,,,2552,67,-28,1,0,0,response3disk,,5,-1,-5,1,0,0,rectangle,-1,-5,1,0,0,-1,-5,1,0,0,1,34,194,15,1,,,,,,,,
,,,,,,,,,,,,,FF,,,,,,,,0.7466,,,,,,,,,,,,,,,,,,,,,,61022a84042923c389bf1499,61036870bc5fb54d72d13325,2021-07-29_22h53.38.980,Simcolourproject_2stim_asymm_v5,2020.2.10,Win32,60,61025ae37ef11b136ea224fe,,,,,,,,,816,60,-41,1,0,0,response3disk,,5,4,-5,1,0,0,rectangle,4,-5,1,0,0,4,-5,1,0,0,1,35,195,52,1,,,,,,,,
,,,,,,,,,,,,,FF,,,,,,,,0.4989,,,,,,,,,,,,,,,,,,,,,,61022a84042923c389bf1499,61036870bc5fb54d72d13325,2021-07-29_22h53.38.980,Simcolourproject_2stim_asymm_v5,2020.2.10,Win32,60,61025ae37ef11b136ea224fe,,,,,,,,,3163,29,76,1,0,0,response1disk,,7,20,-14,1,0,0,rectangle,20,-14,1,0,0,20,-14,1,0,0,1,36,196,1,1,,,,,,,,
,,,,,,,,,,,,,FF,,,,,,,,0.7162,,,,,,,,,,,,,,,,,,,,,,61022a84042923c389bf1499,61036870bc5fb54d72d13325,2021-07-29_22h53.38.980,Simcolourproject_2stim_asymm_v5,2020.2.10,Win32,60,61025ae37ef11b136ea224fe,,,,,,,,,3846,68,28,1,0,0,response1disk,,6,-21,-9,1,0,0,rectangle,-21,-9,1,0,0,-21,-9,1,0,0,1,37,197,59,1,,,,,,,,
,,,,,,,,,,,,,FF,,,,,,,,1.3101,,,,,,,,,,,,,,,,,,,,,,61022a84042923c389bf1499,61036870bc5fb54d72d13325,2021-07-29_22h53.38.980,Simcolourproject_2stim_asymm_v5,2020.2.10,Win32,60,61025ae37ef11b136ea224fe,,,,,,,,,846,39,64,1,0,0,response1disk,,7,26,3,1,0,0,rectangle,69,38,1,0,0,16,5,1,0,0,1,38,198,144,1,,response1disk_3,TRUE,6,6,"[165,67,63,168,161,201,138,212,192,298,253,284,179,238,19,158,199,117,43,33]",1.347,rectangle
,,,,,,,,,,,,,FF,,,,,,,,0.8816,,,,,,,,,,,,,,,,,,,,,,61022a84042923c389bf1499,61036870bc5fb54d72d13325,2021-07-29_22h53.38.980,Simcolourproject_2stim_asymm_v5,2020.2.10,Win32,60,61025ae37ef11b136ea224fe,,,,,,,,,3880,68,38,1,0,0,response1disk,,6,25,5,1,0,0,rectangle,25,5,1,0,0,25,5,1,0,0,1,39,199,116,1,,,,,,,,
,,,,,,,,,,,,,FF,,,,,,,,1.2634,,,,,,,,,,,,,,,,,,,,,,61022a84042923c389bf1499,61036870bc5fb54d72d13325,2021-07-29_22h53.38.980,Simcolourproject_2stim_asymm_v5,2020.2.10,Win32,60,61025ae37ef11b136ea224fe,,,,,,,,,1572,45,72,1,0,0,response1disk,,7,12,5,1,0,0,rectangle,-62,-39,1,0,0,14,-1,1,0,0,1,40,200,55,1,,response5disk_3,TRUE,2,2,"[165,67,63,168,161,201,138,212,192,298,253,284,179,238,19,158,199,117,43,33]",1.2966,rectangle
,,,,,,,,,,,,,FF,,,,,,,,0.8495,,,,,,,,,,,,,,,,,,,,,,61022a84042923c389bf1499,61036870bc5fb54d72d13325,2021-07-29_22h53.38.980,Simcolourproject_2stim_asymm_v5,2020.2.10,Win32,60,61025ae37ef11b136ea224fe,,,,,,,,,4101,22,58,1,0,0,response1disk,,7,6,6,1,0,0,rectangle,6,6,1,0,0,6,6,1,0,0,1,41,201,32,1,,,,,,,,
,,,,,,,,,,,,,FF,,,,,,,,0.421,,,,,,,,,,,,,,,,,,,,,,61022a84042923c389bf1499,61036870bc5fb54d72d13325,2021-07-29_22h53.38.980,Simcolourproject_2stim_asymm_v5,2020.2.10,Win32,60,61025ae37ef11b136ea224fe,,,,,,,,,3410,35,69,1,0,0,response1disk,,7,22,8,1,0,0,rectangle,22,8,1,0,0,22,8,1,0,0,1,42,202,65,1,,,,,,,,
,,,,,,,,,,,,,FF,,,,,,,,0.6854,,,,,,,,,,,,,,,,,,,,,,61022a84042923c389bf1499,61036870bc5fb54d72d13325,2021-07-29_22h53.38.980,Simcolourproject_2stim_asymm_v5,2020.2.10,Win32,60,61025ae37ef11b136ea224fe,,,,,,,,,496,37,71,1,0,0,response1disk,,7,3,-3,1,0,0,rectangle,3,-3,1,0,0,3,-3,1,0,0,1,43,203,137,1,,,,,,,,
,,,,,,,,,,,,,FF,,,,,,,,0.8981,,,,,,,,,,,,,,,,,,,,,,61022a84042923c389bf1499,61036870bc5fb54d72d13325,2021-07-29_22h53.38.980,Simcolourproject_2stim_asymm_v5,2020.2.10,Win32,60,61025ae37ef11b136ea224fe,,,,,,,,,1293,63,29,1,0,0,response1disk,,6,6,-3,1,0,0,rectangle,6,-3,1,0,0,6,-3,1,0,0,1,44,204,19,1,,,,,,,,
,,,,,,,,,,,,,FF,,,,,,,,1.3806,,,,,,,,,,,,,,,,,,,,,,61022a84042923c389bf1499,61036870bc5fb54d72d13325,2021-07-29_22h53.38.980,Simcolourproject_2stim_asymm_v5,2020.2.10,Win32,60,61025ae37ef11b136ea224fe,,,,,,,,,4345,77,28,1,0,0,response1disk,,6,25,6,1,0,0,rectangle,25,6,1,0,0,25,6,1,0,0,1,45,205,145,1,,,,,,,,
,,,,,,,,,,,,,FF,,,,,,,,0.6326,,,,,,,,,,,,,,,,,,,,,,61022a84042923c389bf1499,61036870bc5fb54d72d13325,2021-07-29_22h53.38.980,Simcolourproject_2stim_asymm_v5,2020.2.10,Win32,60,61025ae37ef11b136ea224fe,,,,,,,,,501,24,52,1,0,0,response1disk,,7,23,-10,1,0,0,rectangle,23,-10,1,0,0,23,-10,1,0,0,1,46,206,39,1,,,,,,,,
,,,,,,,,,,,,,FF,,,,,,,,1.3307,,,,,,,,,,,,,,,,,,,,,,61022a84042923c389bf1499,61036870bc5fb54d72d13325,2021-07-29_22h53.38.980,Simcolourproject_2stim_asymm_v5,2020.2.10,Win32,60,61025ae37ef11b136ea224fe,,,,,,,,,2219,77,16,1,0,0,response1disk,,6,-3,0,1,0,0,rectangle,-3,0,1,0,0,-3,0,1,0,0,1,47,207,69,1,,,,,,,,
,,,,,,,,,,,,,FF,,,,,,,,0.8166,,,,,,,,,,,,,,,,,,,,,,61022a84042923c389bf1499,61036870bc5fb54d72d13325,2021-07-29_22h53.38.980,Simcolourproject_2stim_asymm_v5,2020.2.10,Win32,60,61025ae37ef11b136ea224fe,,,,,,,,,282,51,30,1,0,0,response1disk,,6,9,0,1,0,0,rectangle,9,0,1,0,0,9,0,1,0,0,1,48,208,134,1,,,,,,,,
,,,,,,,,,,,,,FF,,,,,,,,0.795,,,,,,,,,,,,,,,,,,,,,,61022a84042923c389bf1499,61036870bc5fb54d72d13325,2021-07-29_22h53.38.980,Simcolourproject_2stim_asymm_v5,2020.2.10,Win32,60,61025ae37ef11b136ea224fe,,,,,,,,,742,83,-30,1,0,0,response3disk,,5,14,1,1,0,0,rectangle,14,1,1,0,0,14,1,1,0,0,1,49,209,158,1,,,,,,,,
,,,,,,,,,,,,,FF,,,,,,,,0.5013,,,,,,,,,,,,,,,,,,,,,,61022a84042923c389bf1499,61036870bc5fb54d72d13325,2021-07-29_22h53.38.980,Simcolourproject_2stim_asymm_v5,2020.2.10,Win32,60,61025ae37ef11b136ea224fe,,,,,,,,,3925,40,61,1,0,0,response1disk,,7,31,14,1,0,0,rectangle,31,14,1,0,0,31,14,1,0,0,1,50,210,14,1,,,,,,,,
,,,,,,,,,,,,,FF,,,,,,,,0.4164,,,,,,,,,,,,,,,,,,,,,,61022a84042923c389bf1499,61036870bc5fb54d72d13325,2021-07-29_22h53.38.980,Simcolourproject_2stim_asymm_v5,2020.2.10,Win32,60,61025ae37ef11b136ea224fe,,,,,,,,,3738,30,68,1,0,0,response1disk,,7,21,-8,1,0,0,rectangle,24,-58,1,0,0,7,10,1,0,0,1,51,211,155,1,,response3disk_3,TRUE,4,4,"[165,67,63,168,161,201,138,212,192,298,253,284,179,238,19,158,199,117,43,33]",1.1786,rectangle
,,,,,,,,,,,,,FF,,,,,,,,0.6863,,,,,,,,,,,,,,,,,,,,,,61022a84042923c389bf1499,61036870bc5fb54d72d13325,2021-07-29_22h53.38.980,Simcolourproject_2stim_asymm_v5,2020.2.10,Win32,60,61025ae37ef11b136ea224fe,,,,,,,,,1856,29,120,1,0,0,response1disk,,7,22,14,1,0,0,rectangle,22,14,1,0,0,22,14,1,0,0,1,52,212,106,1,,,,,,,,
,,,,,,,,,,,,,FF,,,,,,,,0.9123,,,,,,,,,,,,,,,,,,,,,,61022a84042923c389bf1499,61036870bc5fb54d72d13325,2021-07-29_22h53.38.980,Simcolourproject_2stim_asymm_v5,2020.2.10,Win32,60,61025ae37ef11b136ea224fe,,,,,,,,,565,80,35,1,0,0,response1disk,,6,12,8,1,0,0,rectangle,12,8,1,0,0,12,8,1,0,0,1,53,213,27,1,,,,,,,,
,,,,,,,,,,,,,FF,,,,,,,,0.5179,,,,,,,,,,,,,,,,,,,,,,61022a84042923c389bf1499,61036870bc5fb54d72d13325,2021-07-29_22h53.38.980,Simcolourproject_2stim_asymm_v5,2020.2.10,Win32,60,61025ae37ef11b136ea224fe,,,,,,,,,4292,20,50,1,0,0,response1disk,,7,14,-10,1,0,0,rectangle,14,-10,1,0,0,14,-10,1,0,0,1,54,214,89,1,,,,,,,,
,,,,,,,,,,,,,FF,,,,,,,,1.03,,,,,,,,,,,,,,,,,,,,,,61022a84042923c389bf1499,61036870bc5fb54d72d13325,2021-07-29_22h53.38.980,Simcolourproject_2stim_asymm_v5,2020.2.10,Win32,60,61025ae37ef11b136ea224fe,,,,,,,,,2207,39,74,1,0,0,response1disk,,7,16,10,1,0,0,rectangle,16,10,1,0,0,16,10,1,0,0,1,55,215,5,1,,,,,,,,
,,,,,,,,,,,,,FF,,,,,,,,0.5357,,,,,,,,,,,,,,,,,,,,,,61022a84042923c389bf1499,61036870bc5fb54d72d13325,2021-07-29_22h53.38.980,Simcolourproject_2stim_asymm_v5,2020.2.10,Win32,60,61025ae37ef11b136ea224fe,,,,,,,,,3823,37,90,1,0,0,response1disk,,7,26,7,1,0,0,rectangle,26,7,1,0,0,26,7,1,0,0,1,56,216,42,1,,,,,,,,
,,,,,,,,,,,,,FF,,,,,,,,0.8643,,,,,,,,,,,,,,,,,,,,,,61022a84042923c389bf1499,61036870bc5fb54d72d13325,2021-07-29_22h53.38.980,Simcolourproject_2stim_asymm_v5,2020.2.10,Win32,60,61025ae37ef11b136ea224fe,,,,,,,,,1751,-22,-38,1,0,0,response5disk,,3,7,6,1,0,0,rectangle,7,6,1,0,0,7,6,1,0,0,1,57,217,122,1,,,,,,,,
,,,,,,,,,,,,,FF,,,,,,,,0.5179,,,,,,,,,,,,,,,,,,,,,,61022a84042923c389bf1499,61036870bc5fb54d72d13325,2021-07-29_22h53.38.980,Simcolourproject_2stim_asymm_v5,2020.2.10,Win32,60,61025ae37ef11b136ea224fe,,,,,,,,,3476,35,71,1,0,0,response1disk,,7,16,8,1,0,0,rectangle,16,8,1,0,0,16,8,1,0,0,1,58,218,47,1,,,,,,,,
,,,,,,,,,,,,,FF,,,,,,,,0.8646,,,,,,,,,,,,,,,,,,,,,,61022a84042923c389bf1499,61036870bc5fb54d72d13325,2021-07-29_22h53.38.980,Simcolourproject_2stim_asymm_v5,2020.2.10,Win32,60,61025ae37ef11b136ea224fe,,,,,,,,,2837,71,-23,1,0,0,response3disk,,5,-30,-11,1,0,0,rectangle,-30,-11,1,0,0,-30,-11,1,0,0,1,59,219,93,1,,,,,,,,
,,,,,,,,,,,,,FF,,,,,,,,0.6816,,,,,,,,,,,,,,,,,,,,,,61022a84042923c389bf1499,61036870bc5fb54d72d13325,2021-07-29_22h53.38.980,Simcolourproject_2stim_asymm_v5,2020.2.10,Win32,60,61025ae37ef11b136ea224fe,,,,,,,,,3272,84,106,1,0,0,response1disk,,7,19,1,1,0,0,rectangle,19,1,1,0,0,19,1,1,0,0,1,60,220,112,1,,,,,,,,
,,,,,,,,,,,,,FF,,,,,,,,1.2309,,,,,,,,,,,,,,,,,,,,,,61022a84042923c389bf1499,61036870bc5fb54d72d13325,2021-07-29_22h53.38.980,Simcolourproject_2stim_asymm_v5,2020.2.10,Win32,60,61025ae37ef11b136ea224fe,,,,,,,,,1310,72,-70,1,0,0,response3disk,,5,19,-2,1,0,0,rectangle,19,-2,1,0,0,19,-2,1,0,0,1,61,221,156,1,,,,,,,,
,,,,,,,,,,,,,FF,,,,,,,,1.0946,,,,,,,,,,,,,,,,,,,,,,61022a84042923c389bf1499,61036870bc5fb54d72d13325,2021-07-29_22h53.38.980,Simcolourproject_2stim_asymm_v5,2020.2.10,Win32,60,61025ae37ef11b136ea224fe,,,,,,,,,3036,-24,65,1,0,0,response7disk,,0,18,-8,1,0,0,rectangle,18,-8,1,0,0,18,-8,1,0,0,1,62,222,154,1,,,,,,,,
,,,,,,,,,,,,,FF,,,,,,,,1.285,,,,,,,,,,,,,,,,,,,,,,61022a84042923c389bf1499,61036870bc5fb54d72d13325,2021-07-29_22h53.38.980,Simcolourproject_2stim_asymm_v5,2020.2.10,Win32,60,61025ae37ef11b136ea224fe,,,,,,,,,3783,-42,-71,1,0,0,response5disk,,3,17,7,1,0,0,rectangle,17,7,1,0,0,17,7,1,0,0,1,63,223,92,1,,,,,,,,
,,,,,,,,,,,,,FF,,,,,,,,0.6299,,,,,,,,,,,,,,,,,,,,,,61022a84042923c389bf1499,61036870bc5fb54d72d13325,2021-07-29_22h53.38.980,Simcolourproject_2stim_asymm_v5,2020.2.10,Win32,60,61025ae37ef11b136ea224fe,,,,,,,,,3260,31,55,1,0,0,response1disk,,7,21,5,1,0,0,rectangle,21,5,1,0,0,21,5,1,0,0,1,64,224,159,1,,,,,,,,
,,,,,,,,,,,,,FF,,,,,,,,0.6951,,,,,,,,,,,,,,,,,,,,,,61022a84042923c389bf1499,61036870bc5fb54d72d13325,2021-07-29_22h53.38.980,Simcolourproject_2stim_asymm_v5,2020.2.10,Win32,60,61025ae37ef11b136ea224fe,,,,,,,,,1733,-62,-30,1,0,0,response5disk,,2,10,-8,1,0,0,rectangle,10,-8,1,0,0,10,-8,1,0,0,1,65,225,10,1,,,,,,,,
,,,,,,,,,,,,,FF,,,,,,,,0.5969,,,,,,,,,,,,,,,,,,,,,,61022a84042923c389bf1499,61036870bc5fb54d72d13325,2021-07-29_22h53.38.980,Simcolourproject_2stim_asymm_v5,2020.2.10,Win32,60,61025ae37ef11b136ea224fe,,,,,,,,,316,33,46,1,0,0,response1disk,,7,25,-8,1,0,0,rectangle,25,-8,1,0,0,25,-8,1,0,0,1,66,226,127,1,,,,,,,,
,,,,,,,,,,,,,FF,,,,,,,,1.7741,,,,,,,,,,,,,,,,,,,,,,61022a84042923c389bf1499,61036870bc5fb54d72d13325,2021-07-29_22h53.38.980,Simcolourproject_2stim_asymm_v5,2020.2.10,Win32,60,61025ae37ef11b136ea224fe,,,,,,,,,2054,105,24,1,0,0,response1disk,,6,27,-2,1,0,0,rectangle,27,-2,1,0,0,27,-2,1,0,0,1,67,227,99,1,,,,,,,,
,,,,,,,,,,,,,FF,,,,,,,,0.679,,,,,,,,,,,,,,,,,,,,,,61022a84042923c389bf1499,61036870bc5fb54d72d13325,2021-07-29_22h53.38.980,Simcolourproject_2stim_asymm_v5,2020.2.10,Win32,60,61025ae37ef11b136ea224fe,,,,,,,,,2822,26,61,1,0,0,response1disk,,7,17,6,1,0,0,rectangle,17,6,1,0,0,17,6,1,0,0,1,68,228,84,1,,,,,,,,
,,,,,,,,,,,,,FF,,,,,,,,0.4198,,,,,,,,,,,,,,,,,,,,,,61022a84042923c389bf1499,61036870bc5fb54d72d13325,2021-07-29_22h53.38.980,Simcolourproject_2stim_asymm_v5,2020.2.10,Win32,60,61025ae37ef11b136ea224fe,,,,,,,,,3702,29,81,1,0,0,response1disk,,7,19,14,1,0,0,rectangle,19,14,1,0,0,19,14,1,0,0,1,69,229,142,1,,,,,,,,
,,,,,,,,,,,,,FF,,,,,,,,0.4972,,,,,,,,,,,,,,,,,,,,,,61022a84042923c389bf1499,61036870bc5fb54d72d13325,2021-07-29_22h53.38.980,Simcolourproject_2stim_asymm_v5,2020.2.10,Win32,60,61025ae37ef11b136ea224fe,,,,,,,,,3128,22,41,1,0,0,response1disk,,7,18,12,1,0,0,rectangle,18,12,1,0,0,18,12,1,0,0,1,70,230,8,1,,,,,,,,
,,,,,,,,,,,,,FF,,,,,,,,0.7142,,,,,,,,,,,,,,,,,,,,,,61022a84042923c389bf1499,61036870bc5fb54d72d13325,2021-07-29_22h53.38.980,Simcolourproject_2stim_asymm_v5,2020.2.10,Win32,60,61025ae37ef11b136ea224fe,,,,,,,,,1045,82,23,1,0,0,response1disk,,6,-11,-13,1,0,0,rectangle,-11,-13,1,0,0,-11,-13,1,0,0,1,71,231,107,1,,,,,,,,
,,,,,,,,,,,,,FF,,,,,,,,0.9127,,,,,,,,,,,,,,,,,,,,,,61022a84042923c389bf1499,61036870bc5fb54d72d13325,2021-07-29_22h53.38.980,Simcolourproject_2stim_asymm_v5,2020.2.10,Win32,60,61025ae37ef11b136ea224fe,,,,,,,,,3793,24,52,1,0,0,response1disk,,7,11,7,1,0,0,rectangle,11,7,1,0,0,11,7,1,0,0,1,72,232,100,1,,,,,,,,
,,,,,,,,,,,,,FF,,,,,,,,0.7301,,,,,,,,,,,,,,,,,,,,,,61022a84042923c389bf1499,61036870bc5fb54d72d13325,2021-07-29_22h53.38.980,Simcolourproject_2stim_asymm_v5,2020.2.10,Win32,60,61025ae37ef11b136ea224fe,,,,,,,,,3974,78,40,1,0,0,response1disk,,6,11,10,1,0,0,rectangle,11,10,1,0,0,11,10,1,0,0,1,73,233,108,1,,,,,,,,
,,,,,,,,,,,,,FF,,,,,,,,1.7434,,,,,,,,,,,,,,,,,,,,,,61022a84042923c389bf1499,61036870bc5fb54d72d13325,2021-07-29_22h53.38.980,Simcolourproject_2stim_asymm_v5,2020.2.10,Win32,60,61025ae37ef11b136ea224fe,,,,,,,,,4117,49,101,1,0,0,response1disk,,7,12,-4,1,0,0,rectangle,12,-4,1,0,0,12,-4,1,0,0,1,74,234,135,1,,,,,,,,
,,,,,,,,,,,,,FF,,,,,,,,0.8318,,,,,,,,,,,,,,,,,,,,,,61022a84042923c389bf1499,61036870bc5fb54d72d13325,2021-07-29_22h53.38.980,Simcolourproject_2stim_asymm_v5,2020.2.10,Win32,60,61025ae37ef11b136ea224fe,,,,,,,,,1601,-21,-46,1,0,0,response5disk,,3,14,-6,1,0,0,rectangle,14,-6,1,0,0,14,-6,1,0,0,1,75,235,58,1,,,,,,,,
,,,,,,,,,,,,,FF,,,,,,,,1.514,,,,,,,,,,,,,,,,,,,,,,61022a84042923c389bf1499,61036870bc5fb54d72d13325,2021-07-29_22h53.38.980,Simcolourproject_2stim_asymm_v5,2020.2.10,Win32,60,61025ae37ef11b136ea224fe,,,,,,,,,1407,46,61,1,0,0,response1disk,,7,23,3,1,0,0,rectangle,23,3,1,0,0,23,3,1,0,0,1,76,236,133,1,,,,,,,,
,,,,,,,,,,,,,FF,,,,,,,,0.9168,,,,,,,,,,,,,,,,,,,,,,61022a84042923c389bf1499,61036870bc5fb54d72d13325,2021-07-29_22h53.38.980,Simcolourproject_2stim_asymm_v5,2020.2.10,Win32,60,61025ae37ef11b136ea224fe,,,,,,,,,2582,23,62,1,0,0,response1disk,,7,20,6,1,0,0,rectangle,-31,104,1,0,0,4,10,1,0,0,1,77,237,26,1,,response7disk_3,TRUE,0,0,"[165,67,63,168,161,201,138,212,192,298,253,284,179,238,19,158,199,117,43,33]",1.5398,rectangle
,,,,,,,,,,,,,FF,,,,,,,,1.3096,,,,,,,,,,,,,,,,,,,,,,61022a84042923c389bf1499,61036870bc5fb54d72d13325,2021-07-29_22h53.38.980,Simcolourproject_2stim_asymm_v5,2020.2.10,Win32,60,61025ae37ef11b136ea224fe,,,,,,,,,449,31,72,1,0,0,response1disk,,7,22,11,1,0,0,rectangle,22,11,1,0,0,22,11,1,0,0,1,78,238,139,1,,,,,,,,
,,,,,,,,,,,,,FF,,,,,,,,1.7076,,,,,,,,,,,,,,,,,,,,,,61022a84042923c389bf1499,61036870bc5fb54d72d13325,2021-07-29_22h53.38.980,Simcolourproject_2stim_asymm_v5,2020.2.10,Win32,60,61025ae37ef11b136ea224fe,,,,,,,,,2421,-36,-32,1,0,0,response5disk,,2,12,6,1,0,0,rectangle,12,6,1,0,0,12,6,1,0,0,1,79,239,40,1,,,,,,,,
,,,,,,,,,,,,,FF,,,,,,,,1.1992,,,,,,,,,,,,,,,,,,,,,,61022a84042923c389bf1499,61036870bc5fb54d72d13325,2021-07-29_22h53.38.980,Simcolourproject_2stim_asymm_v5,2020.2.10,Win32,60,61025ae37ef11b136ea224fe,,,,,,,,,1316,56,-81,1,0,0,response3disk,,4,20,5,1,0,0,rectangle,20,5,1,0,0,20,5,1,0,0,1,80,240,143,1,,,,,,,,
,,,,,,,,,,,,,FF,,,,,,,,0.7995,,,,,,,,,,,,,,,,,,,,,,61022a84042923c389bf1499,61036870bc5fb54d72d13325,2021-07-29_22h53.38.980,Simcolourproject_2stim_asymm_v5,2020.2.10,Win32,60,61025ae37ef11b136ea224fe,,,,,,,,,1294,-46,-82,1,0,0,response5disk,,3,0,-4,1,0,0,rectangle,0,-4,1,0,0,0,-4,1,0,0,1,81,241,128,1,,,,,,,,
,,,,,,,,,,,,,FF,,,,,,,,0.5161,,,,,,,,,,,,,,,,,,,,,,61022a84042923c389bf1499,61036870bc5fb54d72d13325,2021-07-29_22h53.38.980,Simcolourproject_2stim_asymm_v5,2020.2.10,Win32,60,61025ae37ef11b136ea224fe,,,,,,,,,2588,30,55,1,0,0,response1disk,,7,7,4,1,0,0,rectangle,7,4,1,0,0,7,4,1,0,0,1,82,242,18,1,,,,,,,,
,,,,,,,,,,,,,FF,,,,,,,,0.4343,,,,,,,,,,,,,,,,,,,,,,61022a84042923c389bf1499,61036870bc5fb54d72d13325,2021-07-29_22h53.38.980,Simcolourproject_2stim_asymm_v5,2020.2.10,Win32,60,61025ae37ef11b136ea224fe,,,,,,,,,3549,32,52,1,0,0,response1disk,,7,13,8,1,0,0,rectangle,13,8,1,0,0,13,8,1,0,0,1,83,243,77,1,,,,,,,,
,,,,,,,,,,,,,FF,,,,,,,,0.3362,,,,,,,,,,,,,,,,,,,,,,61022a84042923c389bf1499,61036870bc5fb54d72d13325,2021-07-29_22h53.38.980,Simcolourproject_2stim_asymm_v5,2020.2.10,Win32,60,61025ae37ef11b136ea224fe,,,,,,,,,2256,25,35,1,0,0,response1disk,,7,14,-4,1,0,0,rectangle,14,-4,1,0,0,14,-4,1,0,0,1,84,244,71,1,,,,,,,,
,,,,,,,,,,,,,FF,,,,,,,,0.5046,,,,,,,,,,,,,,,,,,,,,,61022a84042923c389bf1499,61036870bc5fb54d72d13325,2021-07-29_22h53.38.980,Simcolourproject_2stim_asymm_v5,2020.2.10,Win32,60,61025ae37ef11b136ea224fe,,,,,,,,,593,26,56,1,0,0,response1disk,,7,23,7,1,0,0,rectangle,23,7,1,0,0,23,7,1,0,0,1,85,245,83,1,,,,,,,,
,,,,,,,,,,,,,FF,,,,,,,,0.5315,,,,,,,,,,,,,,,,,,,,,,61022a84042923c389bf1499,61036870bc5fb54d72d13325,2021-07-29_22h53.38.980,Simcolourproject_2stim_asymm_v5,2020.2.10,Win32,60,61025ae37ef11b136ea224fe,,,,,,,,,2820,25,50,1,0,0,response1disk,,7,23,10,1,0,0,rectangle,23,10,1,0,0,23,10,1,0,0,1,86,246,36,1,,,,,,,,
,,,,,,,,,,,,,FF,,,,,,,,0.7146,,,,,,,,,,,,,,,,,,,,,,61022a84042923c389bf1499,61036870bc5fb54d72d13325,2021-07-29_22h53.38.980,Simcolourproject_2stim_asymm_v5,2020.2.10,Win32,60,61025ae37ef11b136ea224fe,,,,,,,,,1877,33,64,1,0,0,response1disk,,7,22,14,1,0,0,rectangle,22,14,1,0,0,22,14,1,0,0,1,87,247,126,1,,,,,,,,
,,,,,,,,,,,,,FF,,,,,,,,0.467,,,,,,,,,,,,,,,,,,,,,,61022a84042923c389bf1499,61036870bc5fb54d72d13325,2021-07-29_22h53.38.980,Simcolourproject_2stim_asymm_v5,2020.2.10,Win32,60,61025ae37ef11b136ea224fe,,,,,,,,,2403,28,45,1,0,0,response1disk,,7,24,13,1,0,0,rectangle,24,13,1,0,0,24,13,1,0,0,1,88,248,146,1,,,,,,,,
,,,,,,,,,,,,,FF,,,,,,,,2.1919,,,,,,,,,,,,,,,,,,,,,,61022a84042923c389bf1499,61036870bc5fb54d72d13325,2021-07-29_22h53.38.980,Simcolourproject_2stim_asymm_v5,2020.2.10,Win32,60,61025ae37ef11b136ea224fe,,,,,,,,,2946,20,-65,1,0,0,response3disk,,4,14,-12,1,0,0,rectangle,14,-12,1,0,0,14,-12,1,0,0,1,89,249,9,1,,,,,,,,
,,,,,,,,,,,,,FF,,,,,,,,2.7055,,,,,,,,,,,,,,,,,,,,,,61022a84042923c389bf1499,61036870bc5fb54d72d13325,2021-07-29_22h53.38.980,Simcolourproject_2stim_asymm_v5,2020.2.10,Win32,60,61025ae37ef11b136ea224fe,,,,,,,,,126,32,52,1,0,0,response1disk,,7,26,-8,1,0,0,rectangle,26,-8,1,0,0,26,-8,1,0,0,1,90,250,95,1,,,,,,,,
,,,,,,,,,,,,,FF,,,,,,,,0.3871,,,,,,,,,,,,,,,,,,,,,,61022a84042923c389bf1499,61036870bc5fb54d72d13325,2021-07-29_22h53.38.980,Simcolourproject_2stim_asymm_v5,2020.2.10,Win32,60,61025ae37ef11b136ea224fe,,,,,,,,,308,32,70,1,0,0,response1disk,,7,14,0,1,0,0,rectangle,14,0,1,0,0,14,0,1,0,0,1,91,251,43,1,,,,,,,,
,,,,,,,,,,,,,FF,,,,,,,,0.8161,,,,,,,,,,,,,,,,,,,,,,61022a84042923c389bf1499,61036870bc5fb54d72d13325,2021-07-29_22h53.38.980,Simcolourproject_2stim_asymm_v5,2020.2.10,Win32,60,61025ae37ef11b136ea224fe,,,,,,,,,3392,68,-25,1,0,0,response3disk,,5,4,-12,1,0,0,rectangle,64,-32,1,0,0,24,-1,1,0,0,1,92,252,62,1,,response3disk_3,TRUE,5,5,"[165,67,63,168,161,201,138,212,192,298,253,284,179,238,19,158,199,117,43,33]",1.3138,rectangle
,,,,,,,,,,,,,FF,,,,,,,,1.4282,,,,,,,,,,,,,,,,,,,,,,61022a84042923c389bf1499,61036870bc5fb54d72d13325,2021-07-29_22h53.38.980,Simcolourproject_2stim_asymm_v5,2020.2.10,Win32,60,61025ae37ef11b136ea224fe,,,,,,,,,1121,-70,-31,1,0,0,response5disk,,2,4,5,1,0,0,rectangle,4,5,1,0,0,4,5,1,0,0,1,93,253,50,1,,,,,,,,
,,,,,,,,,,,,,FF,,,,,,,,0.7985,,,,,,,,,,,,,,,,,,,,,,61022a84042923c389bf1499,61036870bc5fb54d72d13325,2021-07-29_22h53.38.980,Simcolourproject_2stim_asymm_v5,2020.2.10,Win32,60,61025ae37ef11b136ea224fe,,,,,,,,,590,43,84,1,0,0,response1disk,,7,27,-4,1,0,0,rectangle,27,-4,1,0,0,27,-4,1,0,0,1,94,254,63,1,,,,,,,,
,,,,,,,,,,,,,FF,,,,,,,,0.4347,,,,,,,,,,,,,,,,,,,,,,61022a84042923c389bf1499,61036870bc5fb54d72d13325,2021-07-29_22h53.38.980,Simcolourproject_2stim_asymm_v5,2020.2.10,Win32,60,61025ae37ef11b136ea224fe,,,,,,,,,2389,30,54,1,0,0,response1disk,,7,18,5,1,0,0,rectangle,18,5,1,0,0,18,5,1,0,0,1,95,255,45,1,,,,,,,,
,,,,,,,,,,,,,FF,,,,,,,,1.4447,,,,,,,,,,,,,,,,,,,,,,61022a84042923c389bf1499,61036870bc5fb54d72d13325,2021-07-29_22h53.38.980,Simcolourproject_2stim_asymm_v5,2020.2.10,Win32,60,61025ae37ef11b136ea224fe,,,,,,,,,1825,-47,-63,1,0,0,response5disk,,3,-8,-8,1,0,0,rectangle,-8,-8,1,0,0,-8,-8,1,0,0,1,96,256,147,1,,,,,,,,
,,,,,,,,,,,,,FF,,,,,,,,0.5687,,,,,,,,,,,,,,,,,,,,,,61022a84042923c389bf1499,61036870bc5fb54d72d13325,2021-07-29_22h53.38.980,Simcolourproject_2stim_asymm_v5,2020.2.10,Win32,60,61025ae37ef11b136ea224fe,,,,,,,,,2628,24,62,1,0,0,response1disk,,7,17,-4,1,0,0,rectangle,17,-4,1,0,0,17,-4,1,0,0,1,97,257,6,1,,,,,,,,
,,,,,,,,,,,,,FF,,,,,,,,0.9308,,,,,,,,,,,,,,,,,,,,,,61022a84042923c389bf1499,61036870bc5fb54d72d13325,2021-07-29_22h53.38.980,Simcolourproject_2stim_asymm_v5,2020.2.10,Win32,60,61025ae37ef11b136ea224fe,,,,,,,,,1820,-30,-71,1,0,0,response5disk,,3,17,-12,1,0,0,rectangle,17,-12,1,0,0,17,-12,1,0,0,1,98,258,149,1,,,,,,,,
,,,,,,,,,,,,,FF,,,,,,,,0.9826,,,,,,,,,,,,,,,,,,,,,,61022a84042923c389bf1499,61036870bc5fb54d72d13325,2021-07-29_22h53.38.980,Simcolourproject_2stim_asymm_v5,2020.2.10,Win32,60,61025ae37ef11b136ea224fe,,,,,,,,,1067,74,-59,1,0,0,response3disk,,5,-2,7,1,0,0,rectangle,-2,7,1,0,0,-2,7,1,0,0,1,99,259,78,1,,,,,,,,
,,,,,,,,,,,,,FF,,,,,,,,1.5076,,,,,,,,,,,,,,,,,,,,,,61022a84042923c389bf1499,61036870bc5fb54d72d13325,2021-07-29_22h53.38.980,Simcolourproject_2stim_asymm_v5,2020.2.10,Win32,60,61025ae37ef11b136ea224fe,,,,,,,,,659,71,-46,1,0,0,response3disk,,5,23,-14,1,0,0,rectangle,23,-14,1,0,0,23,-14,1,0,0,1,100,260,66,1,,,,,,,,
,,,,,,,,,,,,,FF,,,,,,,,0.6162,,,,,,,,,,,,,,,,,,,,,,61022a84042923c389bf1499,61036870bc5fb54d72d13325,2021-07-29_22h53.38.980,Simcolourproject_2stim_asymm_v5,2020.2.10,Win32,60,61025ae37ef11b136ea224fe,,,,,,,,,3879,22,58,1,0,0,response1disk,,7,21,-1,1,0,0,rectangle,21,-1,1,0,0,21,-1,1,0,0,1,101,261,64,1,,,,,,,,
,,,,,,,,,,,,,FF,,,,,,,,0.6636,,,,,,,,,,,,,,,,,,,,,,61022a84042923c389bf1499,61036870bc5fb54d72d13325,2021-07-29_22h53.38.980,Simcolourproject_2stim_asymm_v5,2020.2.10,Win32,60,61025ae37ef11b136ea224fe,,,,,,,,,1935,31,75,1,0,0,response1disk,,7,17,5,1,0,0,rectangle,17,5,1,0,0,17,5,1,0,0,1,102,262,82,1,,,,,,,,
,,,,,,,,,,,,,FF,,,,,,,,0.6671,,,,,,,,,,,,,,,,,,,,,,61022a84042923c389bf1499,61036870bc5fb54d72d13325,2021-07-29_22h53.38.980,Simcolourproject_2stim_asymm_v5,2020.2.10,Win32,60,61025ae37ef11b136ea224fe,,,,,,,,,749,60,27,1,0,0,response1disk,,6,26,3,1,0,0,rectangle,26,3,1,0,0,26,3,1,0,0,1,103,263,11,1,,,,,,,,
,,,,,,,,,,,,,FF,,,,,,,,0.8127,,,,,,,,,,,,,,,,,,,,,,61022a84042923c389bf1499,61036870bc5fb54d72d13325,2021-07-29_22h53.38.980,Simcolourproject_2stim_asymm_v5,2020.2.10,Win32,60,61025ae37ef11b136ea224fe,,,,,,,,,2940,-31,69,1,0,0,response7disk,,0,19,2,1,0,0,rectangle,19,2,1,0,0,19,2,1,0,0,1,104,264,119,1,,,,,,,,
,,,,,,,,,,,,,FF,,,,,,,,0.5313,,,,,,,,,,,,,,,,,,,,,,61022a84042923c389bf1499,61036870bc5fb54d72d13325,2021-07-29_22h53.38.980,Simcolourproject_2stim_asymm_v5,2020.2.10,Win32,60,61025ae37ef11b136ea224fe,,,,,,,,,3616,33,44,1,0,0,response1disk,,7,19,14,1,0,0,rectangle,19,14,1,0,0,19,14,1,0,0,1,105,265,90,1,,,,,,,,
,,,,,,,,,,,,,FF,,,,,,,,1.3781,,,,,,,,,,,,,,,,,,,,,,61022a84042923c389bf1499,61036870bc5fb54d72d13325,2021-07-29_22h53.38.980,Simcolourproject_2stim_asymm_v5,2020.2.10,Win32,60,61025ae37ef11b136ea224fe,,,,,,,,,1736,-33,-75,1,0,0,response5disk,,3,24,-2,1,0,0,rectangle,24,-2,1,0,0,24,-2,1,0,0,1,106,266,23,1,,,,,,,,
,,,,,,,,,,,,,FF,,,,,,,,0.5485,,,,,,,,,,,,,,,,,,,,,,61022a84042923c389bf1499,61036870bc5fb54d72d13325,2021-07-29_22h53.38.980,Simcolourproject_2stim_asymm_v5,2020.2.10,Win32,60,61025ae37ef11b136ea224fe,,,,,,,,,99,30,56,1,0,0,response1disk,,7,28,6,1,0,0,rectangle,28,6,1,0,0,28,6,1,0,0,1,107,267,54,1,,,,,,,,
,,,,,,,,,,,,,FF,,,,,,,,0.4185,,,,,,,,,,,,,,,,,,,,,,61022a84042923c389bf1499,61036870bc5fb54d72d13325,2021-07-29_22h53.38.980,Simcolourproject_2stim_asymm_v5,2020.2.10,Win32,60,61025ae37ef11b136ea224fe,,,,,,,,,3761,25,35,1,0,0,response1disk,,7,20,9,1,0,0,rectangle,20,9,1,0,0,20,9,1,0,0,1,108,268,60,1,,,,,,,,
,,,,,,,,,,,,,FF,,,,,,,,0.6974,,,,,,,,,,,,,,,,,,,,,,61022a84042923c389bf1499,61036870bc5fb54d72d13325,2021-07-29_22h53.38.980,Simcolourproject_2stim_asymm_v5,2020.2.10,Win32,60,61025ae37ef11b136ea224fe,,,,,,,,,2608,-58,23,1,0,0,response7disk,,1,10,6,1,0,0,rectangle,10,6,1,0,0,10,6,1,0,0,1,109,269,68,1,,,,,,,,
,,,,,,,,,,,,,FF,,,,,,,,0.4874,,,,,,,,,,,,,,,,,,,,,,61022a84042923c389bf1499,61036870bc5fb54d72d13325,2021-07-29_22h53.38.980,Simcolourproject_2stim_asymm_v5,2020.2.10,Win32,60,61025ae37ef11b136ea224fe,,,,,,,,,573,23,55,1,0,0,response1disk,,7,16,3,1,0,0,rectangle,16,3,1,0,0,16,3,1,0,0,1,110,270,120,1,,,,,,,,
,,,,,,,,,,,,,FF,,,,,,,,1.8076,,,,,,,,,,,,,,,,,,,,,,61022a84042923c389bf1499,61036870bc5fb54d72d13325,2021-07-29_22h53.38.980,Simcolourproject_2stim_asymm_v5,2020.2.10,Win32,60,61025ae37ef11b136ea224fe,,,,,,,,,889,19,60,1,0,0,response1disk,,7,8,14,1,0,0,rectangle,8,14,1,0,0,8,14,1,0,0,1,111,271,140,1,,,,,,,,
,,,,,,,,,,,,,FF,,,,,,,,0.6332,,,,,,,,,,,,,,,,,,,,,,61022a84042923c389bf1499,61036870bc5fb54d72d13325,2021-07-29_22h53.38.980,Simcolourproject_2stim_asymm_v5,2020.2.10,Win32,60,61025ae37ef11b136ea224fe,,,,,,,,,1009,15,43,1,0,0,response1disk,,7,8,2,1,0,0,rectangle,8,2,1,0,0,8,2,1,0,0,1,112,272,70,1,,,,,,,,
,,,,,,,,,,,,,FF,,,,,,,,0.9517,,,,,,,,,,,,,,,,,,,,,,61022a84042923c389bf1499,61036870bc5fb54d72d13325,2021-07-29_22h53.38.980,Simcolourproject_2stim_asymm_v5,2020.2.10,Win32,60,61025ae37ef11b136ea224fe,,,,,,,,,2484,81,-26,1,0,0,response3disk,,5,2,-11,1,0,0,rectangle,2,-11,1,0,0,2,-11,1,0,0,1,113,273,7,1,,,,,,,,
,,,,,,,,,,,,,FF,,,,,,,,0.9453,,,,,,,,,,,,,,,,,,,,,,61022a84042923c389bf1499,61036870bc5fb54d72d13325,2021-07-29_22h53.38.980,Simcolourproject_2stim_asymm_v5,2020.2.10,Win32,60,61025ae37ef11b136ea224fe,,,,,,,,,1159,-38,44,1,0,0,response7disk,,0,6,0,1,0,0,rectangle,6,0,1,0,0,6,0,1,0,0,1,114,274,117,1,,,,,,,,
,,,,,,,,,,,,,FF,,,,,,,,1.4484,,,,,,,,,,,,,,,,,,,,,,61022a84042923c389bf1499,61036870bc5fb54d72d13325,2021-07-29_22h53.38.980,Simcolourproject_2stim_asymm_v5,2020.2.10,Win32,60,61025ae37ef11b136ea224fe,,,,,,,,,3047,-72,30,1,0,0,response7disk,,1,8,6,1,0,0,rectangle,8,6,1,0,0,8,6,1,0,0,1,115,275,101,1,,,,,,,,
,,,,,,,,,,,,,FF,,,,,,,,0.6161,,,,,,,,,,,,,,,,,,,,,,61022a84042923c389bf1499,61036870bc5fb54d72d13325,2021-07-29_22h53.38.980,Simcolourproject_2stim_asymm_v5,2020.2.10,Win32,60,61025ae37ef11b136ea224fe,,,,,,,,,1272,19,89,1,0,0,response1disk,,7,12,7,1,0,0,rectangle,12,7,1,0,0,12,7,1,0,0,1,116,276,104,1,,,,,,,,
,,,,,,,,,,,,,FF,,,,,,,,0.4171,,,,,,,,,,,,,,,,,,,,,,61022a84042923c389bf1499,61036870bc5fb54d72d13325,2021-07-29_22h53.38.980,Simcolourproject_2stim_asymm_v5,2020.2.10,Win32,60,61025ae37ef11b136ea224fe,,,,,,,,,3122,25,63,1,0,0,response1disk,,7,15,11,1,0,0,rectangle,15,11,1,0,0,15,11,1,0,0,1,117,277,22,1,,,,,,,,
,,,,,,,,,,,,,FF,,,,,,,,0.384,,,,,,,,,,,,,,,,,,,,,,61022a84042923c389bf1499,61036870bc5fb54d72d13325,2021-07-29_22h53.38.980,Simcolourproject_2stim_asymm_v5,2020.2.10,Win32,60,61025ae37ef11b136ea224fe,,,,,,,,,3461,29,59,1,0,0,response1disk,,7,10,1,1,0,0,rectangle,10,1,1,0,0,10,1,1,0,0,1,118,278,25,1,,,,,,,,
,,,,,,,,,,,,,FF,,,,,,,,0.8125,,,,,,,,,,,,,,,,,,,,,,61022a84042923c389bf1499,61036870bc5fb54d72d13325,2021-07-29_22h53.38.980,Simcolourproject_2stim_asymm_v5,2020.2.10,Win32,60,61025ae37ef11b136ea224fe,,,,,,,,,4281,69,-43,1,0,0,response3disk,,5,22,-14,1,0,0,rectangle,22,-14,1,0,0,22,-14,1,0,0,1,119,279,98,1,,,,,,,,
,,,,,,,,,,,,,FF,,,,,,,,0.9453,,,,,,,,,,,,,,,,,,,,,,61022a84042923c389bf1499,61036870bc5fb54d72d13325,2021-07-29_22h53.38.980,Simcolourproject_2stim_asymm_v5,2020.2.10,Win32,60,61025ae37ef11b136ea224fe,,,,,,,,,639,36,-63,1,0,0,response3disk,,4,7,-7,1,0,0,rectangle,7,-7,1,0,0,7,-7,1,0,0,1,120,280,38,1,,,,,,,,
,,,,,,,,,,,,,FF,,,,,,,,0.8998,,,,,,,,,,,,,,,,,,,,,,61022a84042923c389bf1499,61036870bc5fb54d72d13325,2021-07-29_22h53.38.980,Simcolourproject_2stim_asymm_v5,2020.2.10,Win32,60,61025ae37ef11b136ea224fe,,,,,,,,,643,95,24,1,0,0,response1disk,,6,12,7,1,0,0,rectangle,12,7,1,0,0,12,7,1,0,0,1,121,281,138,1,,,,,,,,
,,,,,,,,,,,,,FF,,,,,,,,0.8182,,,,,,,,,,,,,,,,,,,,,,61022a84042923c389bf1499,61036870bc5fb54d72d13325,2021-07-29_22h53.38.980,Simcolourproject_2stim_asymm_v5,2020.2.10,Win32,60,61025ae37ef11b136ea224fe,,,,,,,,,1369,66,-33,1,0,0,response3disk,,5,10,3,1,0,0,rectangle,10,3,1,0,0,10,3,1,0,0,1,122,282,153,1,,,,,,,,
,,,,,,,,,,,,,FF,,,,,,,,0.5163,,,,,,,,,,,,,,,,,,,,,,61022a84042923c389bf1499,61036870bc5fb54d72d13325,2021-07-29_22h53.38.980,Simcolourproject_2stim_asymm_v5,2020.2.10,Win32,60,61025ae37ef11b136ea224fe,,,,,,,,,1665,22,58,1,0,0,response1disk,,7,18,6,1,0,0,rectangle,-37,18,1,0,0,-10,3,1,0,0,1,123,283,129,1,,response7disk_3,TRUE,1,1,"[165,67,63,168,161,201,138,212,192,298,253,284,179,238,19,158,199,117,43,33]",1.2579,rectangle
,,,,,,,,,,,,,FF,,,,,,,,2.0394,,,,,,,,,,,,,,,,,,,,,,61022a84042923c389bf1499,61036870bc5fb54d72d13325,2021-07-29_22h53.38.980,Simcolourproject_2stim_asymm_v5,2020.2.10,Win32,60,61025ae37ef11b136ea224fe,,,,,,,,,4191,41,82,1,0,0,response1disk,,7,3,7,1,0,0,rectangle,3,7,1,0,0,3,7,1,0,0,1,124,284,102,1,,,,,,,,
,,,,,,,,,,,,,FF,,,,,,,,0.6492,,,,,,,,,,,,,,,,,,,,,,61022a84042923c389bf1499,61036870bc5fb54d72d13325,2021-07-29_22h53.38.980,Simcolourproject_2stim_asymm_v5,2020.2.10,Win32,60,61025ae37ef11b136ea224fe,,,,,,,,,503,22,60,1,0,0,response1disk,,7,7,12,1,0,0,rectangle,7,12,1,0,0,7,12,1,0,0,1,125,285,4,1,,,,,,,,
,,,,,,,,,,,,,FF,,,,,,,,0.5654,,,,,,,,,,,,,,,,,,,,,,61022a84042923c389bf1499,61036870bc5fb54d72d13325,2021-07-29_22h53.38.980,Simcolourproject_2stim_asymm_v5,2020.2.10,Win32,60,61025ae37ef11b136ea224fe,,,,,,,,,1731,23,50,1,0,0,response1disk,,7,9,14,1,0,0,rectangle,9,14,1,0,0,9,14,1,0,0,1,126,286,31,1,,,,,,,,
,,,,,,,,,,,,,FF,,,,,,,,0.4511,,,,,,,,,,,,,,,,,,,,,,61022a84042923c389bf1499,61036870bc5fb54d72d13325,2021-07-29_22h53.38.980,Simcolourproject_2stim_asymm_v5,2020.2.10,Win32,60,61025ae37ef11b136ea224fe,,,,,,,,,3802,26,51,1,0,0,response1disk,,7,15,15,1,0,0,rectangle,15,15,1,0,0,15,15,1,0,0,1,127,287,51,1,,,,,,,,
,,,,,,,,,,,,,FF,,,,,,,,0.3332,,,,,,,,,,,,,,,,,,,,,,61022a84042923c389bf1499,61036870bc5fb54d72d13325,2021-07-29_22h53.38.980,Simcolourproject_2stim_asymm_v5,2020.2.10,Win32,60,61025ae37ef11b136ea224fe,,,,,,,,,1249,26,51,1,0,0,response1disk,,7,13,-3,1,0,0,rectangle,13,-3,1,0,0,13,-3,1,0,0,1,128,288,79,1,,,,,,,,
,,,,,,,,,,,,,FF,,,,,,,,0.7967,,,,,,,,,,,,,,,,,,,,,,61022a84042923c389bf1499,61036870bc5fb54d72d13325,2021-07-29_22h53.38.980,Simcolourproject_2stim_asymm_v5,2020.2.10,Win32,60,61025ae37ef11b136ea224fe,,,,,,,,,4298,28,44,1,0,0,response1disk,,7,15,14,1,0,0,rectangle,15,14,1,0,0,15,14,1,0,0,1,129,289,61,1,,,,,,,,
,,,,,,,,,,,,,FF,,,,,,,,0.4479,,,,,,,,,,,,,,,,,,,,,,61022a84042923c389bf1499,61036870bc5fb54d72d13325,2021-07-29_22h53.38.980,Simcolourproject_2stim_asymm_v5,2020.2.10,Win32,60,61025ae37ef11b136ea224fe,,,,,,,,,1345,23,59,1,0,0,response1disk,,7,18,7,1,0,0,rectangle,18,7,1,0,0,18,7,1,0,0,1,130,290,28,1,,,,,,,,
,,,,,,,,,,,,,FF,,,,,,,,0.5365,,,,,,,,,,,,,,,,,,,,,,61022a84042923c389bf1499,61036870bc5fb54d72d13325,2021-07-29_22h53.38.980,Simcolourproject_2stim_asymm_v5,2020.2.10,Win32,60,61025ae37ef11b136ea224fe,,,,,,,,,1779,33,66,1,0,0,response1disk,,7,23,8,1,0,0,rectangle,23,8,1,0,0,23,8,1,0,0,1,131,291,44,1,,,,,,,,
,,,,,,,,,,,,,FF,,,,,,,,0.4315,,,,,,,,,,,,,,,,,,,,,,61022a84042923c389bf1499,61036870bc5fb54d72d13325,2021-07-29_22h53.38.980,Simcolourproject_2stim_asymm_v5,2020.2.10,Win32,60,61025ae37ef11b136ea224fe,,,,,,,,,122,36,72,1,0,0,response1disk,,7,22,12,1,0,0,rectangle,22,12,1,0,0,22,12,1,0,0,1,132,292,125,1,,,,,,,,
,,,,,,,,,,,,,FF,,,,,,,,0.4143,,,,,,,,,,,,,,,,,,,,,,61022a84042923c389bf1499,61036870bc5fb54d72d13325,2021-07-29_22h53.38.980,Simcolourproject_2stim_asymm_v5,2020.2.10,Win32,60,61025ae37ef11b136ea224fe,,,,,,,,,3223,35,82,1,0,0,response1disk,,7,17,-9,1,0,0,rectangle,17,-9,1,0,0,17,-9,1,0,0,1,133,293,56,1,,,,,,,,
,,,,,,,,,,,,,FF,,,,,,,,0.8455,,,,,,,,,,,,,,,,,,,,,,61022a84042923c389bf1499,61036870bc5fb54d72d13325,2021-07-29_22h53.38.980,Simcolourproject_2stim_asymm_v5,2020.2.10,Win32,60,61025ae37ef11b136ea224fe,,,,,,,,,3094,57,48,1,0,0,response1disk,,6,18,8,1,0,0,rectangle,18,8,1,0,0,18,8,1,0,0,1,134,294,20,1,,,,,,,,
,,,,,,,,,,,,,FF,,,,,,,,1.0322,,,,,,,,,,,,,,,,,,,,,,61022a84042923c389bf1499,61036870bc5fb54d72d13325,2021-07-29_22h53.38.980,Simcolourproject_2stim_asymm_v5,2020.2.10,Win32,60,61025ae37ef11b136ea224fe,,,,,,,,,2969,68,31,1,0,0,response1disk,,6,17,-8,1,0,0,rectangle,17,-8,1,0,0,17,-8,1,0,0,1,135,295,88,1,,,,,,,,
,,,,,,,,,,,,,FF,,,,,,,,0.9347,,,,,,,,,,,,,,,,,,,,,,61022a84042923c389bf1499,61036870bc5fb54d72d13325,2021-07-29_22h53.38.980,Simcolourproject_2stim_asymm_v5,2020.2.10,Win32,60,61025ae37ef11b136ea224fe,,,,,,,,,4295,61,-40,1,0,0,response3disk,,5,5,3,1,0,0,rectangle,5,3,1,0,0,5,3,1,0,0,1,136,296,121,1,,,,,,,,
,,,,,,,,,,,,,FF,,,,,,,,0.3856,,,,,,,,,,,,,,,,,,,,,,61022a84042923c389bf1499,61036870bc5fb54d72d13325,2021-07-29_22h53.38.980,Simcolourproject_2stim_asymm_v5,2020.2.10,Win32,60,61025ae37ef11b136ea224fe,,,,,,,,,3455,26,72,1,0,0,response1disk,,7,20,6,1,0,0,rectangle,26,88,1,0,0,17,14,1,0,0,1,137,297,131,1,,response1disk_3,TRUE,7,7,"[165,67,63,168,161,201,138,212,192,298,253,284,179,238,19,158,199,117,43,33]",1.3178,rectangle
,,,,,,,,,,,,,FF,,,,,,,,1.5461,,,,,,,,,,,,,,,,,,,,,,61022a84042923c389bf1499,61036870bc5fb54d72d13325,2021-07-29_22h53.38.980,Simcolourproject_2stim_asymm_v5,2020.2.10,Win32,60,61025ae37ef11b136ea224fe,,,,,,,,,803,-60,-37,1,0,0,response5disk,,2,-3,0,1,0,0,rectangle,-3,0,1,0,0,-3,0,1,0,0,1,138,298,12,1,,,,,,,,
,,,,,,,,,,,,,FF,,,,,,,,0.6314,,,,,,,,,,,,,,,,,,,,,,61022a84042923c389bf1499,61036870bc5fb54d72d13325,2021-07-29_22h53.38.980,Simcolourproject_2stim_asymm_v5,2020.2.10,Win32,60,61025ae37ef11b136ea224fe,,,,,,,,,1690,-73,-25,1,0,0,response5disk,,2,-1,11,1,0,0,rectangle,-1,11,1,0,0,-1,11,1,0,0,1,139,299,148,1,,,,,,,,
,,,,,,,,,,,,,FF,,,,,,,,0.9655,,,,,,,,,,,,,,,,,,,,,,61022a84042923c389bf1499,61036870bc5fb54d72d13325,2021-07-29_22h53.38.980,Simcolourproject_2stim_asymm_v5,2020.2.10,Win32,60,61025ae37ef11b136ea224fe,,,,,,,,,2419,-69,-31,1,0,0,response5disk,,2,14,3,1,0,0,rectangle,14,3,1,0,0,14,3,1,0,0,1,140,300,33,1,,,,,,,,
,,,,,,,,,,,,,FF,,,,,,,,0.6646,,,,,,,,,,,,,,,,,,,,,,61022a84042923c389bf1499,61036870bc5fb54d72d13325,2021-07-29_22h53.38.980,Simcolourproject_2stim_asymm_v5,2020.2.10,Win32,60,61025ae37ef11b136ea224fe,,,,,,,,,891,-24,-53,1,0,0,response5disk,,3,8,-15,1,0,0,rectangle,8,-15,1,0,0,8,-15,1,0,0,1,141,301,132,1,,,,,,,,
,,,,,,,,,,,,,FF,,,,,,,,0.73,,,,,,,,,,,,,,,,,,,,,,61022a84042923c389bf1499,61036870bc5fb54d72d13325,2021-07-29_22h53.38.980,Simcolourproject_2stim_asymm_v5,2020.2.10,Win32,60,61025ae37ef11b136ea224fe,,,,,,,,,3006,27,-53,1,0,0,response3disk,,4,-11,13,1,0,0,rectangle,-11,13,1,0,0,-11,13,1,0,0,1,142,302,81,1,,,,,,,,
