key_resp.keys,key_resp.rt,key_resp_14.keys,key_resp_14.rt,key_resp_15.keys,key_resp_15.rt,key_resp_17.keys,key_resp_17.rt,key_resp_9.keys,key_resp_9.rt,key_resp_10.keys,key_resp_10.rt,practice_comparison,Ecc,mouse_5.x,mouse_5.y,mouse_5.leftButton,mouse_5.midButton,mouse_5.rightButton,mouse_5.clicked_name,pracsimilarity,response_time,mouse_10.x,mouse_10.y,mouse_10.leftButton,mouse_10.midButton,mouse_10.rightButton,mouse_10.clicked_name,mouse_7.x,mouse_7.y,mouse_7.leftButton,mouse_7.midButton,mouse_7.rightButton,mouse_6.x,mouse_6.y,mouse_6.leftButton,mouse_6.midButton,mouse_6.rightButton,duringprac.thisRepN,duringprac.thisTrialN,duringprac.thisN,duringprac.thisIndex,duringprac.ran,participant,session,date,expName,psychopyVersion,OS,frameRate,study_id,mouse_7.clicked_name,catchpracsimilarity,catch_response_time,catchnumberprac,catchtrialorderprac,mouse_6.clicked_name,key_resp_22.keys,key_resp_22.rt,realcomparison,mouse.x,mouse.y,mouse.leftButton,mouse.midButton,mouse.rightButton,mouse.clicked_name,Colour2,similarity,mouse_2.x,mouse_2.y,mouse_2.leftButton,mouse_2.midButton,mouse_2.rightButton,mouse_2.clicked_name,mouse_3.x,mouse_3.y,mouse_3.leftButton,mouse_3.midButton,mouse_3.rightButton,mouse_11.x,mouse_11.y,mouse_11.leftButton,mouse_11.midButton,mouse_11.rightButton,trials_2.thisRepN,trials_2.thisTrialN,trials_2.thisN,trials_2.thisIndex,trials_2.ran,Colour1,mouse_3.clicked_name,catchornah,catchsimilarity,catchnumber,catchtrialorder,catchRT,mouse_11.clicked_name
space,1.4448,space,11.5948,space,36.1823,space,9.3973,space,1.2413,space,5.9786,5,FF,52.953125,79.6015625,1,0,0,response1disk_5,7,5.8164,4.99609375,-4.36328125,1,0,0,rectangle_8,4.99609375,-4.36328125,1,0,0,4.99609375,-4.36328125,1,0,0,0,0,0,3,1,61020c152715b970291062db,610367acb30e8eca97f09957,2021-07-29_19h45.31.738,Simcolourproject_2stim_asymm_v5,2020.2.10,MacIntel,60,61025ae37ef11b136ea224fe,,,,,,,,,,,,,,,,,,,,,,,,,,,,,,,,,,,,,,,,,,,,,,
,,,,,,,,,,,,61,PF,51.56640625,-99.69140625,1,0,0,response3disk_5,4,9.9998,3.640625,-2.6484375,1,0,0,rectangle_8,38.25,-97.8515625,1,0,0,1.48828125,3.8203125,1,0,0,0,1,1,4,1,61020c152715b970291062db,610367acb30e8eca97f09957,2021-07-29_19h45.31.738,Simcolourproject_2stim_asymm_v5,2020.2.10,MacIntel,60,61025ae37ef11b136ea224fe,response3disk_7,4,4.7344,4,"[2,5]",rectangle_4,,,,,,,,,,,,,,,,,,,,,,,,,,,,,,,,,,,,,,,,
,,,,,,,,,,,,31,FF,78.00390625,-51.51171875,1,0,0,response3disk_5,5,5.4167,4.671875,2.5234375,1,0,0,rectangle_8,4.671875,2.5234375,1,0,0,4.671875,2.5234375,1,0,0,0,2,2,5,1,61020c152715b970291062db,610367acb30e8eca97f09957,2021-07-29_19h45.31.738,Simcolourproject_2stim_asymm_v5,2020.2.10,MacIntel,60,61025ae37ef11b136ea224fe,,,,,,,,,,,,,,,,,,,,,,,,,,,,,,,,,,,,,,,,,,,,,,
,,,,,,,,,,,,95,FF,-78.6328125,46.86328125,1,0,0,response7disk_5,1,3.3499,-3.9453125,-2.79296875,1,0,0,rectangle_8,-3.9453125,-2.79296875,1,0,0,-3.9453125,-2.79296875,1,0,0,0,3,3,0,1,61020c152715b970291062db,610367acb30e8eca97f09957,2021-07-29_19h45.31.738,Simcolourproject_2stim_asymm_v5,2020.2.10,MacIntel,60,61025ae37ef11b136ea224fe,,,,,,,,,,,,,,,,,,,,,,,,,,,,,,,,,,,,,,,,,,,,,,
,,,,,,,,,,,,105,PF,54.41796875,92.875,1,0,0,response1disk_5,7,3.9997,3.30078125,-8.63671875,1,0,0,rectangle_8,37.9375,-88.5859375,1,0,0,1.53125,-4.79296875,1,0,0,0,4,4,1,1,61020c152715b970291062db,610367acb30e8eca97f09957,2021-07-29_19h45.31.738,Simcolourproject_2stim_asymm_v5,2020.2.10,MacIntel,60,61025ae37ef11b136ea224fe,response3disk_7,4,1.6011,4,"[2,5]",rectangle_4,,,,,,,,,,,,,,,,,,,,,,,,,,,,,,,,,,,,,,,,
,,,,,,,,,,,,108,PF,-82.96875,-40.83203125,1,0,0,response5disk_5,2,1.8503,-1.046875,-3.7109375,1,0,0,rectangle_8,-1.046875,-3.7109375,1,0,0,-1.046875,-3.7109375,1,0,0,0,5,5,2,1,61020c152715b970291062db,610367acb30e8eca97f09957,2021-07-29_19h45.31.738,Simcolourproject_2stim_asymm_v5,2020.2.10,MacIntel,60,61025ae37ef11b136ea224fe,,,,,,,,,,,,,,,,,,,,,,,,,,,,,,,,,,,,,,,,,,,,,,
,,,,,,,,,,,,8,PF,33.08984375,71.171875,1,0,0,response1disk_5,7,1.0839,14.7890625,0.8125,1,0,0,rectangle_8,14.7890625,0.8125,1,0,0,14.7890625,0.8125,1,0,0,0,6,6,6,1,61020c152715b970291062db,610367acb30e8eca97f09957,2021-07-29_19h45.31.738,Simcolourproject_2stim_asymm_v5,2020.2.10,MacIntel,60,61025ae37ef11b136ea224fe,,,,,,,,,,,,,,,,,,,,,,,,,,,,,,,,,,,,,,,,,,,,,,
,,,,,,,,,,,,,FF,,,,,,,,1.3999,,,,,,,,,,,,,,,,,,,,,,61020c152715b970291062db,610367acb30e8eca97f09957,2021-07-29_19h45.31.738,Simcolourproject_2stim_asymm_v5,2020.2.10,MacIntel,60,61025ae37ef11b136ea224fe,,,,,,,space,2.7588,3732,43.4453125,92.69140625,1,0,0,response1disk,,7,4.01953125,-0.046875,1,0,0,rectangle,4.01953125,-0.046875,1,0,0,4.01953125,-0.046875,1,0,0,0,0,0,42,1,,,,,,,,
,,,,,,,,,,,,,FF,,,,,,,,0.9677,,,,,,,,,,,,,,,,,,,,,,61020c152715b970291062db,610367acb30e8eca97f09957,2021-07-29_19h45.31.738,Simcolourproject_2stim_asymm_v5,2020.2.10,MacIntel,60,61025ae37ef11b136ea224fe,,,,,,,,,3380,59.46484375,100.7421875,1,0,0,response1disk,,7,-1.53125,-0.80078125,1,0,0,rectangle,-1.53125,-0.80078125,1,0,0,-1.53125,-0.80078125,1,0,0,0,1,1,135,1,,,,,,,,
,,,,,,,,,,,,,FF,,,,,,,,2.3004,,,,,,,,,,,,,,,,,,,,,,61020c152715b970291062db,610367acb30e8eca97f09957,2021-07-29_19h45.31.738,Simcolourproject_2stim_asymm_v5,2020.2.10,MacIntel,60,61025ae37ef11b136ea224fe,,,,,,,,,795,90.8203125,38.90625,1,0,0,response1disk,,6,4.87890625,2.91796875,1,0,0,rectangle,4.87890625,2.91796875,1,0,0,4.87890625,2.91796875,1,0,0,0,2,2,74,1,,,,,,,,
,,,,,,,,,,,,,FF,,,,,,,,2.2,,,,,,,,,,,,,,,,,,,,,,61020c152715b970291062db,610367acb30e8eca97f09957,2021-07-29_19h45.31.738,Simcolourproject_2stim_asymm_v5,2020.2.10,MacIntel,60,61025ae37ef11b136ea224fe,,,,,,,,,3893,45.078125,99.6015625,1,0,0,response1disk,,7,9.640625,-0.00390625,1,0,0,rectangle,9.640625,-0.00390625,1,0,0,9.640625,-0.00390625,1,0,0,0,3,3,81,1,,,,,,,,
,,,,,,,,,,,,,FF,,,,,,,,1.3831,,,,,,,,,,,,,,,,,,,,,,61020c152715b970291062db,610367acb30e8eca97f09957,2021-07-29_19h45.31.738,Simcolourproject_2stim_asymm_v5,2020.2.10,MacIntel,60,61025ae37ef11b136ea224fe,,,,,,,,,3615,41.9921875,86.8984375,1,0,0,response1disk,,7,-0.31640625,-2.39453125,1,0,0,rectangle,-0.31640625,-2.39453125,1,0,0,-0.31640625,-2.39453125,1,0,0,0,4,4,54,1,,,,,,,,
,,,,,,,,,,,,,FF,,,,,,,,2.2663,,,,,,,,,,,,,,,,,,,,,,61020c152715b970291062db,610367acb30e8eca97f09957,2021-07-29_19h45.31.738,Simcolourproject_2stim_asymm_v5,2020.2.10,MacIntel,60,61025ae37ef11b136ea224fe,,,,,,,,,2808,77.73828125,30.15234375,1,0,0,response1disk,,6,6.79296875,2.0859375,1,0,0,rectangle,-86.66015625,-52.1953125,1,0,0,-4.43359375,1.98046875,1,0,0,0,5,5,136,1,,response5disk_3,TRUE,2,2,"[148,6,84,287,51,312,123,11,239,83,184,291,45,151,255,298,34,82,100,195]",2.0168,rectangle
,,,,,,,,,,,,,FF,,,,,,,,0.9671,,,,,,,,,,,,,,,,,,,,,,61020c152715b970291062db,610367acb30e8eca97f09957,2021-07-29_19h45.31.738,Simcolourproject_2stim_asymm_v5,2020.2.10,MacIntel,60,61025ae37ef11b136ea224fe,,,,,,,,,3591,-35.50390625,68.84765625,1,0,0,response7disk,,0,8.8203125,2.94921875,1,0,0,rectangle,8.8203125,2.94921875,1,0,0,8.8203125,2.94921875,1,0,0,0,6,6,118,1,,,,,,,,
,,,,,,,,,,,,,FF,,,,,,,,2.3491,,,,,,,,,,,,,,,,,,,,,,61020c152715b970291062db,610367acb30e8eca97f09957,2021-07-29_19h45.31.738,Simcolourproject_2stim_asymm_v5,2020.2.10,MacIntel,60,61025ae37ef11b136ea224fe,,,,,,,,,637,-96.19921875,-32.4765625,1,0,0,response5disk,,2,7.78515625,2.59765625,1,0,0,rectangle,7.78515625,2.59765625,1,0,0,7.78515625,2.59765625,1,0,0,0,7,7,12,1,,,,,,,,
,,,,,,,,,,,,,FF,,,,,,,,1.0997,,,,,,,,,,,,,,,,,,,,,,61020c152715b970291062db,610367acb30e8eca97f09957,2021-07-29_19h45.31.738,Simcolourproject_2stim_asymm_v5,2020.2.10,MacIntel,60,61025ae37ef11b136ea224fe,,,,,,,,,1247,103.6953125,40.62109375,1,0,0,response1disk,,6,3.37109375,3.90234375,1,0,0,rectangle,3.37109375,3.90234375,1,0,0,3.37109375,3.90234375,1,0,0,0,8,8,80,1,,,,,,,,
,,,,,,,,,,,,,FF,,,,,,,,1.6673,,,,,,,,,,,,,,,,,,,,,,61020c152715b970291062db,610367acb30e8eca97f09957,2021-07-29_19h45.31.738,Simcolourproject_2stim_asymm_v5,2020.2.10,MacIntel,60,61025ae37ef11b136ea224fe,,,,,,,,,3991,-39.5,-69.69921875,1,0,0,response5disk,,3,-1.59375,-0.390625,1,0,0,rectangle,-1.59375,-0.390625,1,0,0,-1.59375,-0.390625,1,0,0,0,9,9,22,1,,,,,,,,
,,,,,,,,,,,,,FF,,,,,,,,1.1504,,,,,,,,,,,,,,,,,,,,,,61020c152715b970291062db,610367acb30e8eca97f09957,2021-07-29_19h45.31.738,Simcolourproject_2stim_asymm_v5,2020.2.10,MacIntel,60,61025ae37ef11b136ea224fe,,,,,,,,,1331,67.94921875,35.75,1,0,0,response1disk,,6,5.9921875,-6.62890625,1,0,0,rectangle,30.01171875,71.8203125,1,0,0,1.13671875,-1.61328125,1,0,0,0,10,10,72,1,,response1disk_3,TRUE,7,7,"[148,6,84,287,51,312,123,11,239,83,184,291,45,151,255,298,34,82,100,195]",1.2664,rectangle
,,,,,,,,,,,,,FF,,,,,,,,2.3487,,,,,,,,,,,,,,,,,,,,,,61020c152715b970291062db,610367acb30e8eca97f09957,2021-07-29_19h45.31.738,Simcolourproject_2stim_asymm_v5,2020.2.10,MacIntel,60,61025ae37ef11b136ea224fe,,,,,,,,,1613,-93.44140625,-31.609375,1,0,0,response5disk,,2,-8.71484375,0.07421875,1,0,0,rectangle,-8.71484375,0.07421875,1,0,0,-8.71484375,0.07421875,1,0,0,0,11,11,10,1,,,,,,,,
,,,,,,,,,,,,,FF,,,,,,,,3.0006,,,,,,,,,,,,,,,,,,,,,,61020c152715b970291062db,610367acb30e8eca97f09957,2021-07-29_19h45.31.738,Simcolourproject_2stim_asymm_v5,2020.2.10,MacIntel,60,61025ae37ef11b136ea224fe,,,,,,,,,605,-63.18359375,-96.57421875,1,0,0,response5disk,,3,1.81640625,3.33203125,1,0,0,rectangle,1.81640625,3.33203125,1,0,0,1.81640625,3.33203125,1,0,0,0,12,12,59,1,,,,,,,,
,,,,,,,,,,,,,FF,,,,,,,,5.0339,,,,,,,,,,,,,,,,,,,,,,61020c152715b970291062db,610367acb30e8eca97f09957,2021-07-29_19h45.31.738,Simcolourproject_2stim_asymm_v5,2020.2.10,MacIntel,60,61025ae37ef11b136ea224fe,,,,,,,,,4070,79.390625,46.29296875,1,0,0,response1disk,,6,-2.7421875,-0.3046875,1,0,0,rectangle,-2.7421875,-0.3046875,1,0,0,-2.7421875,-0.3046875,1,0,0,0,13,13,117,1,,,,,,,,
,,,,,,,,,,,,,FF,,,,,,,,5.766,,,,,,,,,,,,,,,,,,,,,,61020c152715b970291062db,610367acb30e8eca97f09957,2021-07-29_19h45.31.738,Simcolourproject_2stim_asymm_v5,2020.2.10,MacIntel,60,61025ae37ef11b136ea224fe,,,,,,,,,1238,78.9140625,-29.9921875,1,0,0,response3disk,,5,20.58203125,-12.28125,1,0,0,rectangle,20.58203125,-12.28125,1,0,0,20.58203125,-12.28125,1,0,0,0,14,14,51,1,,,,,,,,
,,,,,,,,,,,,,FF,,,,,,,,3.7502,,,,,,,,,,,,,,,,,,,,,,61020c152715b970291062db,610367acb30e8eca97f09957,2021-07-29_19h45.31.738,Simcolourproject_2stim_asymm_v5,2020.2.10,MacIntel,60,61025ae37ef11b136ea224fe,,,,,,,,,482,-57.34375,-89.046875,1,0,0,response5disk,,3,2.8046875,3.9921875,1,0,0,rectangle,2.8046875,3.9921875,1,0,0,2.8046875,3.9921875,1,0,0,0,15,15,92,1,,,,,,,,
,,,,,,,,,,,,,FF,,,,,,,,2.7566,,,,,,,,,,,,,,,,,,,,,,61020c152715b970291062db,610367acb30e8eca97f09957,2021-07-29_19h45.31.738,Simcolourproject_2stim_asymm_v5,2020.2.10,MacIntel,60,61025ae37ef11b136ea224fe,,,,,,,,,632,-82.3125,30.015625,1,0,0,response7disk,,1,4.015625,1.078125,1,0,0,rectangle,4.015625,1.078125,1,0,0,4.015625,1.078125,1,0,0,0,16,16,108,1,,,,,,,,
,,,,,,,,,,,,,FF,,,,,,,,1.5665,,,,,,,,,,,,,,,,,,,,,,61020c152715b970291062db,610367acb30e8eca97f09957,2021-07-29_19h45.31.738,Simcolourproject_2stim_asymm_v5,2020.2.10,MacIntel,60,61025ae37ef11b136ea224fe,,,,,,,,,3071,40.2265625,77.7734375,1,0,0,response1disk,,7,10.75,9.4921875,1,0,0,rectangle,10.75,9.4921875,1,0,0,10.75,9.4921875,1,0,0,0,17,17,138,1,,,,,,,,
,,,,,,,,,,,,,FF,,,,,,,,3.5325,,,,,,,,,,,,,,,,,,,,,,61020c152715b970291062db,610367acb30e8eca97f09957,2021-07-29_19h45.31.738,Simcolourproject_2stim_asymm_v5,2020.2.10,MacIntel,60,61025ae37ef11b136ea224fe,,,,,,,,,2875,57.5625,91.3515625,1,0,0,response1disk,,7,-12.0078125,2.08203125,1,0,0,rectangle,-12.0078125,2.08203125,1,0,0,-12.0078125,2.08203125,1,0,0,0,18,18,147,1,,,,,,,,
,,,,,,,,,,,,,FF,,,,,,,,1.6485,,,,,,,,,,,,,,,,,,,,,,61020c152715b970291062db,610367acb30e8eca97f09957,2021-07-29_19h45.31.738,Simcolourproject_2stim_asymm_v5,2020.2.10,MacIntel,60,61025ae37ef11b136ea224fe,,,,,,,,,238,59.80078125,79.81640625,1,0,0,response1disk,,7,-3.296875,-4.94921875,1,0,0,rectangle,-3.296875,-4.94921875,1,0,0,-3.296875,-4.94921875,1,0,0,0,19,19,89,1,,,,,,,,
,,,,,,,,,,,,,FF,,,,,,,,1.9333,,,,,,,,,,,,,,,,,,,,,,61020c152715b970291062db,610367acb30e8eca97f09957,2021-07-29_19h45.31.738,Simcolourproject_2stim_asymm_v5,2020.2.10,MacIntel,60,61025ae37ef11b136ea224fe,,,,,,,,,777,28.23046875,100.1992188,1,0,0,response1disk,,7,-1.97265625,0.33984375,1,0,0,rectangle,-1.97265625,0.33984375,1,0,0,-1.97265625,0.33984375,1,0,0,0,20,20,69,1,,,,,,,,
,,,,,,,,,,,,,FF,,,,,,,,0.899,,,,,,,,,,,,,,,,,,,,,,61020c152715b970291062db,610367acb30e8eca97f09957,2021-07-29_19h45.31.738,Simcolourproject_2stim_asymm_v5,2020.2.10,MacIntel,60,61025ae37ef11b136ea224fe,,,,,,,,,261,-88.4765625,28.79296875,1,0,0,response7disk,,1,-9.48046875,5.328125,1,0,0,rectangle,-9.48046875,5.328125,1,0,0,-9.48046875,5.328125,1,0,0,0,21,21,13,1,,,,,,,,
,,,,,,,,,,,,,FF,,,,,,,,1.6837,,,,,,,,,,,,,,,,,,,,,,61020c152715b970291062db,610367acb30e8eca97f09957,2021-07-29_19h45.31.738,Simcolourproject_2stim_asymm_v5,2020.2.10,MacIntel,60,61025ae37ef11b136ea224fe,,,,,,,,,378,-54.25390625,-88.94140625,1,0,0,response5disk,,3,5.23828125,8.90234375,1,0,0,rectangle,5.23828125,8.90234375,1,0,0,5.23828125,8.90234375,1,0,0,0,22,22,133,1,,,,,,,,
,,,,,,,,,,,,,FF,,,,,,,,0.9493,,,,,,,,,,,,,,,,,,,,,,61020c152715b970291062db,610367acb30e8eca97f09957,2021-07-29_19h45.31.738,Simcolourproject_2stim_asymm_v5,2020.2.10,MacIntel,60,61025ae37ef11b136ea224fe,,,,,,,,,1922,50.140625,82.12890625,1,0,0,response1disk,,7,16.3359375,6.9609375,1,0,0,rectangle,16.3359375,6.9609375,1,0,0,16.3359375,6.9609375,1,0,0,0,23,23,66,1,,,,,,,,
,,,,,,,,,,,,,FF,,,,,,,,0.951,,,,,,,,,,,,,,,,,,,,,,61020c152715b970291062db,610367acb30e8eca97f09957,2021-07-29_19h45.31.738,Simcolourproject_2stim_asymm_v5,2020.2.10,MacIntel,60,61025ae37ef11b136ea224fe,,,,,,,,,650,38.64453125,89.13671875,1,0,0,response1disk,,7,18.78125,15.43359375,1,0,0,rectangle,18.78125,15.43359375,1,0,0,18.78125,15.43359375,1,0,0,0,24,24,8,1,,,,,,,,
,,,,,,,,,,,,,FF,,,,,,,,0.7495,,,,,,,,,,,,,,,,,,,,,,61020c152715b970291062db,610367acb30e8eca97f09957,2021-07-29_19h45.31.738,Simcolourproject_2stim_asymm_v5,2020.2.10,MacIntel,60,61025ae37ef11b136ea224fe,,,,,,,,,842,35.33203125,79.44140625,1,0,0,response1disk,,7,7.98046875,10.7578125,1,0,0,rectangle,7.98046875,10.7578125,1,0,0,7.98046875,10.7578125,1,0,0,0,25,25,86,1,,,,,,,,
,,,,,,,,,,,,,FF,,,,,,,,3.6166,,,,,,,,,,,,,,,,,,,,,,61020c152715b970291062db,610367acb30e8eca97f09957,2021-07-29_19h45.31.738,Simcolourproject_2stim_asymm_v5,2020.2.10,MacIntel,60,61025ae37ef11b136ea224fe,,,,,,,,,4128,-98.87890625,-77.8203125,1,0,0,response5disk,,2,-1.28515625,0.421875,1,0,0,rectangle,-1.28515625,0.421875,1,0,0,-1.28515625,0.421875,1,0,0,0,26,26,41,1,,,,,,,,
,,,,,,,,,,,,,FF,,,,,,,,2.8156,,,,,,,,,,,,,,,,,,,,,,61020c152715b970291062db,610367acb30e8eca97f09957,2021-07-29_19h45.31.738,Simcolourproject_2stim_asymm_v5,2020.2.10,MacIntel,60,61025ae37ef11b136ea224fe,,,,,,,,,1509,53.54296875,81.8203125,1,0,0,response1disk,,7,3.015625,1.8359375,1,0,0,rectangle,3.015625,1.8359375,1,0,0,3.015625,1.8359375,1,0,0,0,27,27,144,1,,,,,,,,
,,,,,,,,,,,,,FF,,,,,,,,0.7163,,,,,,,,,,,,,,,,,,,,,,61020c152715b970291062db,610367acb30e8eca97f09957,2021-07-29_19h45.31.738,Simcolourproject_2stim_asymm_v5,2020.2.10,MacIntel,60,61025ae37ef11b136ea224fe,,,,,,,,,2497,36.03515625,86.71875,1,0,0,response1disk,,7,13.05859375,-1.3515625,1,0,0,rectangle,13.05859375,-1.3515625,1,0,0,13.05859375,-1.3515625,1,0,0,0,28,28,57,1,,,,,,,,
,,,,,,,,,,,,,FF,,,,,,,,1.2167,,,,,,,,,,,,,,,,,,,,,,61020c152715b970291062db,610367acb30e8eca97f09957,2021-07-29_19h45.31.738,Simcolourproject_2stim_asymm_v5,2020.2.10,MacIntel,60,61025ae37ef11b136ea224fe,,,,,,,,,1045,43.9609375,86.94921875,1,0,0,response1disk,,7,6.796875,6.859375,1,0,0,rectangle,6.796875,6.859375,1,0,0,6.796875,6.859375,1,0,0,0,29,29,143,1,,,,,,,,
,,,,,,,,,,,,,FF,,,,,,,,1.5349,,,,,,,,,,,,,,,,,,,,,,61020c152715b970291062db,610367acb30e8eca97f09957,2021-07-29_19h45.31.738,Simcolourproject_2stim_asymm_v5,2020.2.10,MacIntel,60,61025ae37ef11b136ea224fe,,,,,,,,,3395,-80.08203125,-27.859375,1,0,0,response5disk,,2,-6.94921875,4.0625,1,0,0,rectangle,-6.94921875,4.0625,1,0,0,-6.94921875,4.0625,1,0,0,0,30,30,1,1,,,,,,,,
,,,,,,,,,,,,,FF,,,,,,,,2.7344,,,,,,,,,,,,,,,,,,,,,,61020c152715b970291062db,610367acb30e8eca97f09957,2021-07-29_19h45.31.738,Simcolourproject_2stim_asymm_v5,2020.2.10,MacIntel,60,61025ae37ef11b136ea224fe,,,,,,,,,1994,93.2421875,39.125,1,0,0,response1disk,,6,-5.53125,2.453125,1,0,0,rectangle,-5.53125,2.453125,1,0,0,-5.53125,2.453125,1,0,0,0,31,31,104,1,,,,,,,,
,,,,,,,,,,,,,FF,,,,,,,,0.7169,,,,,,,,,,,,,,,,,,,,,,61020c152715b970291062db,610367acb30e8eca97f09957,2021-07-29_19h45.31.738,Simcolourproject_2stim_asymm_v5,2020.2.10,MacIntel,60,61025ae37ef11b136ea224fe,,,,,,,,,1368,-42.24609375,76.4609375,1,0,0,response7disk,,0,-4.84765625,6.14453125,1,0,0,rectangle,-4.84765625,6.14453125,1,0,0,-4.84765625,6.14453125,1,0,0,0,32,32,47,1,,,,,,,,
,,,,,,,,,,,,,FF,,,,,,,,0.8336,,,,,,,,,,,,,,,,,,,,,,61020c152715b970291062db,610367acb30e8eca97f09957,2021-07-29_19h45.31.738,Simcolourproject_2stim_asymm_v5,2020.2.10,MacIntel,60,61025ae37ef11b136ea224fe,,,,,,,,,2948,-77.9453125,25.265625,1,0,0,response7disk,,1,0.94921875,9.44921875,1,0,0,rectangle,-83.8125,-47.1640625,1,0,0,10.5546875,3.265625,1,0,0,0,33,33,88,1,,response5disk_3,TRUE,2,2,"[148,6,84,287,51,312,123,11,239,83,184,291,45,151,255,298,34,82,100,195]",1.8332,rectangle
,,,,,,,,,,,,,FF,,,,,,,,0.9823,,,,,,,,,,,,,,,,,,,,,,61020c152715b970291062db,610367acb30e8eca97f09957,2021-07-29_19h45.31.738,Simcolourproject_2stim_asymm_v5,2020.2.10,MacIntel,60,61025ae37ef11b136ea224fe,,,,,,,,,970,-64.18359375,38.890625,1,0,0,response7disk,,1,-4.6015625,2.125,1,0,0,rectangle,-4.6015625,2.125,1,0,0,-4.6015625,2.125,1,0,0,0,34,34,127,1,,,,,,,,
,,,,,,,,,,,,,FF,,,,,,,,1.0499,,,,,,,,,,,,,,,,,,,,,,61020c152715b970291062db,610367acb30e8eca97f09957,2021-07-29_19h45.31.738,Simcolourproject_2stim_asymm_v5,2020.2.10,MacIntel,60,61025ae37ef11b136ea224fe,,,,,,,,,421,33.62109375,71.15625,1,0,0,response1disk,,7,-0.61328125,3.96484375,1,0,0,rectangle,-0.61328125,3.96484375,1,0,0,-0.61328125,3.96484375,1,0,0,0,35,35,71,1,,,,,,,,
,,,,,,,,,,,,,FF,,,,,,,,0.6495,,,,,,,,,,,,,,,,,,,,,,61020c152715b970291062db,610367acb30e8eca97f09957,2021-07-29_19h45.31.738,Simcolourproject_2stim_asymm_v5,2020.2.10,MacIntel,60,61025ae37ef11b136ea224fe,,,,,,,,,935,37.63671875,83.09375,1,0,0,response1disk,,7,11.3359375,11.30859375,1,0,0,rectangle,11.3359375,11.30859375,1,0,0,11.3359375,11.30859375,1,0,0,0,36,36,152,1,,,,,,,,
,,,,,,,,,,,,,FF,,,,,,,,0.5667,,,,,,,,,,,,,,,,,,,,,,61020c152715b970291062db,610367acb30e8eca97f09957,2021-07-29_19h45.31.738,Simcolourproject_2stim_asymm_v5,2020.2.10,MacIntel,60,61025ae37ef11b136ea224fe,,,,,,,,,1189,34.3828125,70.83984375,1,0,0,response1disk,,7,6.61328125,10.27734375,1,0,0,rectangle,6.61328125,10.27734375,1,0,0,6.61328125,10.27734375,1,0,0,0,37,37,96,1,,,,,,,,
,,,,,,,,,,,,,FF,,,,,,,,0.9331,,,,,,,,,,,,,,,,,,,,,,61020c152715b970291062db,610367acb30e8eca97f09957,2021-07-29_19h45.31.738,Simcolourproject_2stim_asymm_v5,2020.2.10,MacIntel,60,61025ae37ef11b136ea224fe,,,,,,,,,2451,45.515625,89.80078125,1,0,0,response1disk,,7,-0.61328125,9.1328125,1,0,0,rectangle,-0.61328125,9.1328125,1,0,0,-0.61328125,9.1328125,1,0,0,0,38,38,101,1,,,,,,,,
,,,,,,,,,,,,,FF,,,,,,,,8.1512,,,,,,,,,,,,,,,,,,,,,,61020c152715b970291062db,610367acb30e8eca97f09957,2021-07-29_19h45.31.738,Simcolourproject_2stim_asymm_v5,2020.2.10,MacIntel,60,61025ae37ef11b136ea224fe,,,,,,,,,1226,-69.546875,-94.30859375,1,0,0,response5disk,,3,-2.95703125,-10.515625,1,0,0,rectangle,-2.95703125,-10.515625,1,0,0,-2.95703125,-10.515625,1,0,0,0,39,39,112,1,,,,,,,,
,,,,,,,,,,,,,FF,,,,,,,,0.8838,,,,,,,,,,,,,,,,,,,,,,61020c152715b970291062db,610367acb30e8eca97f09957,2021-07-29_19h45.31.738,Simcolourproject_2stim_asymm_v5,2020.2.10,MacIntel,60,61025ae37ef11b136ea224fe,,,,,,,,,3318,41.65625,95.734375,1,0,0,response1disk,,7,-12.9375,3.3125,1,0,0,rectangle,-12.9375,3.3125,1,0,0,-12.9375,3.3125,1,0,0,0,40,40,29,1,,,,,,,,
,,,,,,,,,,,,,FF,,,,,,,,0.9659,,,,,,,,,,,,,,,,,,,,,,61020c152715b970291062db,610367acb30e8eca97f09957,2021-07-29_19h45.31.738,Simcolourproject_2stim_asymm_v5,2020.2.10,MacIntel,60,61025ae37ef11b136ea224fe,,,,,,,,,3044,30.375,93.04296875,1,0,0,response1disk,,7,-3.234375,4.23828125,1,0,0,rectangle,-3.234375,4.23828125,1,0,0,-3.234375,4.23828125,1,0,0,0,41,41,95,1,,,,,,,,
,,,,,,,,,,,,,FF,,,,,,,,0.9166,,,,,,,,,,,,,,,,,,,,,,61020c152715b970291062db,610367acb30e8eca97f09957,2021-07-29_19h45.31.738,Simcolourproject_2stim_asymm_v5,2020.2.10,MacIntel,60,61025ae37ef11b136ea224fe,,,,,,,,,72,-68.6484375,27.51171875,1,0,0,response7disk,,1,-13.31640625,3.39453125,1,0,0,rectangle,-13.31640625,3.39453125,1,0,0,-13.31640625,3.39453125,1,0,0,0,42,42,31,1,,,,,,,,
,,,,,,,,,,,,,FF,,,,,,,,1.0659,,,,,,,,,,,,,,,,,,,,,,61020c152715b970291062db,610367acb30e8eca97f09957,2021-07-29_19h45.31.738,Simcolourproject_2stim_asymm_v5,2020.2.10,MacIntel,60,61025ae37ef11b136ea224fe,,,,,,,,,1133,-74.01171875,-38.29296875,1,0,0,response5disk,,2,5.63671875,3.75390625,1,0,0,rectangle,5.63671875,3.75390625,1,0,0,5.63671875,3.75390625,1,0,0,0,43,43,98,1,,,,,,,,
,,,,,,,,,,,,,FF,,,,,,,,4.8836,,,,,,,,,,,,,,,,,,,,,,61020c152715b970291062db,610367acb30e8eca97f09957,2021-07-29_19h45.31.738,Simcolourproject_2stim_asymm_v5,2020.2.10,MacIntel,60,61025ae37ef11b136ea224fe,,,,,,,,,3463,-53.63671875,-77.84375,1,0,0,response5disk,,3,6.12109375,-7.6640625,1,0,0,rectangle,64.859375,-37.66796875,1,0,0,9.5546875,-1.8203125,1,0,0,0,44,44,113,1,,response3disk_3,TRUE,5,5,"[148,6,84,287,51,312,123,11,239,83,184,291,45,151,255,298,34,82,100,195]",1.1495,rectangle
,,,,,,,,,,,,,FF,,,,,,,,1.5174,,,,,,,,,,,,,,,,,,,,,,61020c152715b970291062db,610367acb30e8eca97f09957,2021-07-29_19h45.31.738,Simcolourproject_2stim_asymm_v5,2020.2.10,MacIntel,60,61025ae37ef11b136ea224fe,,,,,,,,,24,85.38671875,47.02734375,1,0,0,response1disk,,6,-3.25,-8.4375,1,0,0,rectangle,-3.25,-8.4375,1,0,0,-3.25,-8.4375,1,0,0,0,45,45,19,1,,,,,,,,
,,,,,,,,,,,,,FF,,,,,,,,1.4154,,,,,,,,,,,,,,,,,,,,,,61020c152715b970291062db,610367acb30e8eca97f09957,2021-07-29_19h45.31.738,Simcolourproject_2stim_asymm_v5,2020.2.10,MacIntel,60,61025ae37ef11b136ea224fe,,,,,,,,,3715,-51.03515625,-78.21484375,1,0,0,response5disk,,3,-11.6171875,-5.80078125,1,0,0,rectangle,-11.6171875,-5.80078125,1,0,0,-11.6171875,-5.80078125,1,0,0,0,46,46,85,1,,,,,,,,
,,,,,,,,,,,,,FF,,,,,,,,2.1165,,,,,,,,,,,,,,,,,,,,,,61020c152715b970291062db,610367acb30e8eca97f09957,2021-07-29_19h45.31.738,Simcolourproject_2stim_asymm_v5,2020.2.10,MacIntel,60,61025ae37ef11b136ea224fe,,,,,,,,,2019,76.16015625,-92.12890625,1,0,0,response3disk,,4,18.45703125,0.171875,1,0,0,rectangle,18.45703125,0.171875,1,0,0,18.45703125,0.171875,1,0,0,0,47,47,149,1,,,,,,,,
,,,,,,,,,,,,,FF,,,,,,,,3.9151,,,,,,,,,,,,,,,,,,,,,,61020c152715b970291062db,610367acb30e8eca97f09957,2021-07-29_19h45.31.738,Simcolourproject_2stim_asymm_v5,2020.2.10,MacIntel,60,61025ae37ef11b136ea224fe,,,,,,,,,3397,-88.421875,-53.37109375,1,0,0,response5disk,,2,-15.203125,-9.59765625,1,0,0,rectangle,-15.203125,-9.59765625,1,0,0,-15.203125,-9.59765625,1,0,0,0,48,48,73,1,,,,,,,,
,,,,,,,,,,,,,FF,,,,,,,,0.8839,,,,,,,,,,,,,,,,,,,,,,61020c152715b970291062db,610367acb30e8eca97f09957,2021-07-29_19h45.31.738,Simcolourproject_2stim_asymm_v5,2020.2.10,MacIntel,60,61025ae37ef11b136ea224fe,,,,,,,,,1493,38.43359375,101.3945313,1,0,0,response1disk,,7,3.62109375,-5.75390625,1,0,0,rectangle,3.62109375,-5.75390625,1,0,0,3.62109375,-5.75390625,1,0,0,0,49,49,157,1,,,,,,,,
,,,,,,,,,,,,,FF,,,,,,,,0.9149,,,,,,,,,,,,,,,,,,,,,,61020c152715b970291062db,610367acb30e8eca97f09957,2021-07-29_19h45.31.738,Simcolourproject_2stim_asymm_v5,2020.2.10,MacIntel,60,61025ae37ef11b136ea224fe,,,,,,,,,2233,-71.359375,28.39453125,1,0,0,response7disk,,1,0.40625,7.12109375,1,0,0,rectangle,82.890625,-53.75390625,1,0,0,10.078125,-9.046875,1,0,0,0,50,50,63,1,,response3disk_3,TRUE,5,5,"[148,6,84,287,51,312,123,11,239,83,184,291,45,151,255,298,34,82,100,195]",1.4991,rectangle
,,,,,,,,,,,,,FF,,,,,,,,2.6994,,,,,,,,,,,,,,,,,,,,,,61020c152715b970291062db,610367acb30e8eca97f09957,2021-07-29_19h45.31.738,Simcolourproject_2stim_asymm_v5,2020.2.10,MacIntel,60,61025ae37ef11b136ea224fe,,,,,,,,,4159,87.1875,45.48046875,1,0,0,response1disk,,6,28.30859375,8.84765625,1,0,0,rectangle,28.30859375,8.84765625,1,0,0,28.30859375,8.84765625,1,0,0,0,51,51,32,1,,,,,,,,
,,,,,,,,,,,,,FF,,,,,,,,0.9333,,,,,,,,,,,,,,,,,,,,,,61020c152715b970291062db,610367acb30e8eca97f09957,2021-07-29_19h45.31.738,Simcolourproject_2stim_asymm_v5,2020.2.10,MacIntel,60,61025ae37ef11b136ea224fe,,,,,,,,,3972,-79.56640625,33.37109375,1,0,0,response7disk,,1,0.6484375,8.79296875,1,0,0,rectangle,0.6484375,8.79296875,1,0,0,0.6484375,8.79296875,1,0,0,0,52,52,120,1,,,,,,,,
,,,,,,,,,,,,,FF,,,,,,,,1.9011,,,,,,,,,,,,,,,,,,,,,,61020c152715b970291062db,610367acb30e8eca97f09957,2021-07-29_19h45.31.738,Simcolourproject_2stim_asymm_v5,2020.2.10,MacIntel,60,61025ae37ef11b136ea224fe,,,,,,,,,4032,-42.94921875,-69.41015625,1,0,0,response5disk,,3,-7.25390625,-9.25390625,1,0,0,rectangle,-7.25390625,-9.25390625,1,0,0,-7.25390625,-9.25390625,1,0,0,0,53,53,93,1,,,,,,,,
,,,,,,,,,,,,,FF,,,,,,,,2.1169,,,,,,,,,,,,,,,,,,,,,,61020c152715b970291062db,610367acb30e8eca97f09957,2021-07-29_19h45.31.738,Simcolourproject_2stim_asymm_v5,2020.2.10,MacIntel,60,61025ae37ef11b136ea224fe,,,,,,,,,1070,-51.24609375,-85.48828125,1,0,0,response5disk,,3,10.046875,3.98828125,1,0,0,rectangle,10.046875,3.98828125,1,0,0,10.046875,3.98828125,1,0,0,0,54,54,6,1,,,,,,,,
,,,,,,,,,,,,,FF,,,,,,,,1.6162,,,,,,,,,,,,,,,,,,,,,,61020c152715b970291062db,610367acb30e8eca97f09957,2021-07-29_19h45.31.738,Simcolourproject_2stim_asymm_v5,2020.2.10,MacIntel,60,61025ae37ef11b136ea224fe,,,,,,,,,1588,46.25390625,-72.6796875,1,0,0,response3disk,,4,16.57421875,-3.0625,1,0,0,rectangle,16.57421875,-3.0625,1,0,0,16.57421875,-3.0625,1,0,0,0,55,55,38,1,,,,,,,,
,,,,,,,,,,,,,FF,,,,,,,,4.067,,,,,,,,,,,,,,,,,,,,,,61020c152715b970291062db,610367acb30e8eca97f09957,2021-07-29_19h45.31.738,Simcolourproject_2stim_asymm_v5,2020.2.10,MacIntel,60,61025ae37ef11b136ea224fe,,,,,,,,,2314,78.41015625,-65.2578125,1,0,0,response3disk,,5,20.625,-1.21875,1,0,0,rectangle,20.625,-1.21875,1,0,0,20.625,-1.21875,1,0,0,0,56,56,130,1,,,,,,,,
,,,,,,,,,,,,,FF,,,,,,,,1.2996,,,,,,,,,,,,,,,,,,,,,,61020c152715b970291062db,610367acb30e8eca97f09957,2021-07-29_19h45.31.738,Simcolourproject_2stim_asymm_v5,2020.2.10,MacIntel,60,61025ae37ef11b136ea224fe,,,,,,,,,1461,-50.46484375,-93.546875,1,0,0,response5disk,,3,6.8671875,-15.8203125,1,0,0,rectangle,6.8671875,-15.8203125,1,0,0,6.8671875,-15.8203125,1,0,0,0,57,57,122,1,,,,,,,,
,,,,,,,,,,,,,FF,,,,,,,,5.2166,,,,,,,,,,,,,,,,,,,,,,61020c152715b970291062db,610367acb30e8eca97f09957,2021-07-29_19h45.31.738,Simcolourproject_2stim_asymm_v5,2020.2.10,MacIntel,60,61025ae37ef11b136ea224fe,,,,,,,,,3292,-35.765625,-82.8671875,1,0,0,response5disk,,3,-3.78125,-4.18359375,1,0,0,rectangle,-3.78125,-4.18359375,1,0,0,-3.78125,-4.18359375,1,0,0,0,58,58,87,1,,,,,,,,
,,,,,,,,,,,,,FF,,,,,,,,1.8491,,,,,,,,,,,,,,,,,,,,,,61020c152715b970291062db,610367acb30e8eca97f09957,2021-07-29_19h45.31.738,Simcolourproject_2stim_asymm_v5,2020.2.10,MacIntel,60,61025ae37ef11b136ea224fe,,,,,,,,,36,39.2421875,76.17578125,1,0,0,response1disk,,7,15.171875,8.41796875,1,0,0,rectangle,15.171875,8.41796875,1,0,0,15.171875,8.41796875,1,0,0,0,59,59,115,1,,,,,,,,
,,,,,,,,,,,,,FF,,,,,,,,0.7173,,,,,,,,,,,,,,,,,,,,,,61020c152715b970291062db,610367acb30e8eca97f09957,2021-07-29_19h45.31.738,Simcolourproject_2stim_asymm_v5,2020.2.10,MacIntel,60,61025ae37ef11b136ea224fe,,,,,,,,,1169,42.7578125,96.2421875,1,0,0,response1disk,,7,2.73046875,10.21875,1,0,0,rectangle,2.73046875,10.21875,1,0,0,2.73046875,10.21875,1,0,0,0,60,60,140,1,,,,,,,,
,,,,,,,,,,,,,FF,,,,,,,,1.4341,,,,,,,,,,,,,,,,,,,,,,61020c152715b970291062db,610367acb30e8eca97f09957,2021-07-29_19h45.31.738,Simcolourproject_2stim_asymm_v5,2020.2.10,MacIntel,60,61025ae37ef11b136ea224fe,,,,,,,,,2186,91.09765625,35.48046875,1,0,0,response1disk,,6,15.078125,9.71484375,1,0,0,rectangle,15.078125,9.71484375,1,0,0,15.078125,9.71484375,1,0,0,0,61,61,2,1,,,,,,,,
,,,,,,,,,,,,,FF,,,,,,,,3.4338,,,,,,,,,,,,,,,,,,,,,,61020c152715b970291062db,610367acb30e8eca97f09957,2021-07-29_19h45.31.738,Simcolourproject_2stim_asymm_v5,2020.2.10,MacIntel,60,61025ae37ef11b136ea224fe,,,,,,,,,12,81.13671875,-72.984375,1,0,0,response3disk,,5,18.44140625,-17.34375,1,0,0,rectangle,18.44140625,-17.34375,1,0,0,18.44140625,-17.34375,1,0,0,0,62,62,129,1,,,,,,,,
,,,,,,,,,,,,,FF,,,,,,,,1.5835,,,,,,,,,,,,,,,,,,,,,,61020c152715b970291062db,610367acb30e8eca97f09957,2021-07-29_19h45.31.738,Simcolourproject_2stim_asymm_v5,2020.2.10,MacIntel,60,61025ae37ef11b136ea224fe,,,,,,,,,1711,37.81640625,89.0234375,1,0,0,response1disk,,7,-9.66796875,-5.19921875,1,0,0,rectangle,-9.66796875,-5.19921875,1,0,0,-9.66796875,-5.19921875,1,0,0,0,63,63,24,1,,,,,,,,
,,,,,,,,,,,,,FF,,,,,,,,1.116,,,,,,,,,,,,,,,,,,,,,,61020c152715b970291062db,610367acb30e8eca97f09957,2021-07-29_19h45.31.738,Simcolourproject_2stim_asymm_v5,2020.2.10,MacIntel,60,61025ae37ef11b136ea224fe,,,,,,,,,338,20.17578125,-81.39453125,1,0,0,response3disk,,4,-6.58203125,-9.1796875,1,0,0,rectangle,-6.58203125,-9.1796875,1,0,0,-6.58203125,-9.1796875,1,0,0,0,64,64,100,1,,,,,,,,
,,,,,,,,,,,,,FF,,,,,,,,2.9337,,,,,,,,,,,,,,,,,,,,,,61020c152715b970291062db,610367acb30e8eca97f09957,2021-07-29_19h45.31.738,Simcolourproject_2stim_asymm_v5,2020.2.10,MacIntel,60,61025ae37ef11b136ea224fe,,,,,,,,,1246,90.078125,30.73046875,1,0,0,response1disk,,6,13.55078125,-3.4765625,1,0,0,rectangle,13.55078125,-3.4765625,1,0,0,13.55078125,-3.4765625,1,0,0,0,65,65,64,1,,,,,,,,
,,,,,,,,,,,,,FF,,,,,,,,0.7834,,,,,,,,,,,,,,,,,,,,,,61020c152715b970291062db,610367acb30e8eca97f09957,2021-07-29_19h45.31.738,Simcolourproject_2stim_asymm_v5,2020.2.10,MacIntel,60,61025ae37ef11b136ea224fe,,,,,,,,,137,33.28125,69.421875,1,0,0,response1disk,,7,-1.734375,3.92578125,1,0,0,rectangle,-1.734375,3.92578125,1,0,0,-1.734375,3.92578125,1,0,0,0,66,66,37,1,,,,,,,,
,,,,,,,,,,,,,FF,,,,,,,,1.4327,,,,,,,,,,,,,,,,,,,,,,61020c152715b970291062db,610367acb30e8eca97f09957,2021-07-29_19h45.31.738,Simcolourproject_2stim_asymm_v5,2020.2.10,MacIntel,60,61025ae37ef11b136ea224fe,,,,,,,,,955,53.68359375,-100.3671875,1,0,0,response3disk,,4,4.5703125,4.3828125,1,0,0,rectangle,4.5703125,4.3828125,1,0,0,4.5703125,4.3828125,1,0,0,0,67,67,45,1,,,,,,,,
,,,,,,,,,,,,,FF,,,,,,,,1.5496,,,,,,,,,,,,,,,,,,,,,,61020c152715b970291062db,610367acb30e8eca97f09957,2021-07-29_19h45.31.738,Simcolourproject_2stim_asymm_v5,2020.2.10,MacIntel,60,61025ae37ef11b136ea224fe,,,,,,,,,3654,40.3828125,63.8515625,1,0,0,response1disk,,7,19.03125,11.8125,1,0,0,rectangle,19.03125,11.8125,1,0,0,19.03125,11.8125,1,0,0,0,68,68,107,1,,,,,,,,
,,,,,,,,,,,,,FF,,,,,,,,0.9676,,,,,,,,,,,,,,,,,,,,,,61020c152715b970291062db,610367acb30e8eca97f09957,2021-07-29_19h45.31.738,Simcolourproject_2stim_asymm_v5,2020.2.10,MacIntel,60,61025ae37ef11b136ea224fe,,,,,,,,,786,-40.90625,-63.06640625,1,0,0,response5disk,,3,-8.09765625,7.33203125,1,0,0,rectangle,-8.09765625,7.33203125,1,0,0,-8.09765625,7.33203125,1,0,0,0,69,69,39,1,,,,,,,,
,,,,,,,,,,,,,FF,,,,,,,,0.8998,,,,,,,,,,,,,,,,,,,,,,61020c152715b970291062db,610367acb30e8eca97f09957,2021-07-29_19h45.31.738,Simcolourproject_2stim_asymm_v5,2020.2.10,MacIntel,60,61025ae37ef11b136ea224fe,,,,,,,,,2242,-39.140625,-54.5390625,1,0,0,response5disk,,3,-10.40234375,-1.23828125,1,0,0,rectangle,-10.40234375,-1.23828125,1,0,0,-10.40234375,-1.23828125,1,0,0,0,70,70,78,1,,,,,,,,
,,,,,,,,,,,,,FF,,,,,,,,1.1504,,,,,,,,,,,,,,,,,,,,,,61020c152715b970291062db,610367acb30e8eca97f09957,2021-07-29_19h45.31.738,Simcolourproject_2stim_asymm_v5,2020.2.10,MacIntel,60,61025ae37ef11b136ea224fe,,,,,,,,,3630,-36.0625,70.0625,1,0,0,response7disk,,0,-4.24609375,7.58984375,1,0,0,rectangle,-4.24609375,7.58984375,1,0,0,-4.24609375,7.58984375,1,0,0,0,71,71,121,1,,,,,,,,
,,,,,,,,,,,,,FF,,,,,,,,1.9655,,,,,,,,,,,,,,,,,,,,,,61020c152715b970291062db,610367acb30e8eca97f09957,2021-07-29_19h45.31.738,Simcolourproject_2stim_asymm_v5,2020.2.10,MacIntel,60,61025ae37ef11b136ea224fe,,,,,,,,,3751,-41.1015625,-81.49609375,1,0,0,response5disk,,3,-15.2265625,-15.44140625,1,0,0,rectangle,-15.2265625,-15.44140625,1,0,0,-15.2265625,-15.44140625,1,0,0,0,72,72,77,1,,,,,,,,
,,,,,,,,,,,,,FF,,,,,,,,0.8497,,,,,,,,,,,,,,,,,,,,,,61020c152715b970291062db,610367acb30e8eca97f09957,2021-07-29_19h45.31.738,Simcolourproject_2stim_asymm_v5,2020.2.10,MacIntel,60,61025ae37ef11b136ea224fe,,,,,,,,,2135,42.17578125,88.4140625,1,0,0,response1disk,,7,-13.48828125,-1.6875,1,0,0,rectangle,-13.48828125,-1.6875,1,0,0,-13.48828125,-1.6875,1,0,0,0,73,73,52,1,,,,,,,,
,,,,,,,,,,,,,FF,,,,,,,,0.6994,,,,,,,,,,,,,,,,,,,,,,61020c152715b970291062db,610367acb30e8eca97f09957,2021-07-29_19h45.31.738,Simcolourproject_2stim_asymm_v5,2020.2.10,MacIntel,60,61025ae37ef11b136ea224fe,,,,,,,,,503,31.8359375,70.828125,1,0,0,response1disk,,7,19.81640625,14.75390625,1,0,0,rectangle,19.81640625,14.75390625,1,0,0,19.81640625,14.75390625,1,0,0,0,74,74,94,1,,,,,,,,
,,,,,,,,,,,,,FF,,,,,,,,2.4162,,,,,,,,,,,,,,,,,,,,,,61020c152715b970291062db,610367acb30e8eca97f09957,2021-07-29_19h45.31.738,Simcolourproject_2stim_asymm_v5,2020.2.10,MacIntel,60,61025ae37ef11b136ea224fe,,,,,,,,,1607,69.25390625,-82.609375,1,0,0,response3disk,,4,7.44140625,6.3046875,1,0,0,rectangle,7.44140625,6.3046875,1,0,0,7.44140625,6.3046875,1,0,0,0,75,75,90,1,,,,,,,,
,,,,,,,,,,,,,FF,,,,,,,,1.883,,,,,,,,,,,,,,,,,,,,,,61020c152715b970291062db,610367acb30e8eca97f09957,2021-07-29_19h45.31.738,Simcolourproject_2stim_asymm_v5,2020.2.10,MacIntel,60,61025ae37ef11b136ea224fe,,,,,,,,,2668,-47.1640625,-90.5859375,1,0,0,response5disk,,3,3.3828125,4.2265625,1,0,0,rectangle,3.3828125,4.2265625,1,0,0,3.3828125,4.2265625,1,0,0,0,76,76,60,1,,,,,,,,
,,,,,,,,,,,,,FF,,,,,,,,1.1,,,,,,,,,,,,,,,,,,,,,,61020c152715b970291062db,610367acb30e8eca97f09957,2021-07-29_19h45.31.738,Simcolourproject_2stim_asymm_v5,2020.2.10,MacIntel,60,61025ae37ef11b136ea224fe,,,,,,,,,2180,76.50390625,-53.1640625,1,0,0,response3disk,,5,13.73046875,-11.48828125,1,0,0,rectangle,13.73046875,-11.48828125,1,0,0,13.73046875,-11.48828125,1,0,0,0,77,77,67,1,,,,,,,,
,,,,,,,,,,,,,FF,,,,,,,,1.2163,,,,,,,,,,,,,,,,,,,,,,61020c152715b970291062db,610367acb30e8eca97f09957,2021-07-29_19h45.31.738,Simcolourproject_2stim_asymm_v5,2020.2.10,MacIntel,60,61025ae37ef11b136ea224fe,,,,,,,,,2720,-45.8671875,-103.4648438,1,0,0,response5disk,,3,-6.46875,-1.90625,1,0,0,rectangle,-6.46875,-1.90625,1,0,0,-6.46875,-1.90625,1,0,0,0,78,78,14,1,,,,,,,,
,,,,,,,,,,,,,FF,,,,,,,,1.0319,,,,,,,,,,,,,,,,,,,,,,61020c152715b970291062db,610367acb30e8eca97f09957,2021-07-29_19h45.31.738,Simcolourproject_2stim_asymm_v5,2020.2.10,MacIntel,60,61025ae37ef11b136ea224fe,,,,,,,,,4267,-42.44140625,-65.4140625,1,0,0,response5disk,,3,-9.61328125,-4.16015625,1,0,0,rectangle,-9.61328125,-4.16015625,1,0,0,-9.61328125,-4.16015625,1,0,0,0,79,79,26,1,,,,,,,,
,,,,,,,,,,,,,FF,,,,,,,,2.1339,,,,,,,,,,,,,,,,,,,,,,61020c152715b970291062db,610367acb30e8eca97f09957,2021-07-29_19h45.31.738,Simcolourproject_2stim_asymm_v5,2020.2.10,MacIntel,60,61025ae37ef11b136ea224fe,,,,,,,,,3996,31.26171875,-89.671875,1,0,0,response3disk,,4,1.66796875,4.3125,1,0,0,rectangle,1.66796875,4.3125,1,0,0,1.66796875,4.3125,1,0,0,0,80,80,75,1,,,,,,,,
,,,,,,,,,,,,,FF,,,,,,,,1.0162,,,,,,,,,,,,,,,,,,,,,,61020c152715b970291062db,610367acb30e8eca97f09957,2021-07-29_19h45.31.738,Simcolourproject_2stim_asymm_v5,2020.2.10,MacIntel,60,61025ae37ef11b136ea224fe,,,,,,,,,1869,28.89453125,70.33203125,1,0,0,response1disk,,7,2.1015625,8.84375,1,0,0,rectangle,-34.20703125,-80.78515625,1,0,0,3.62109375,-7.25390625,1,0,0,0,81,81,35,1,,response5disk_3,TRUE,3,3,"[148,6,84,287,51,312,123,11,239,83,184,291,45,151,255,298,34,82,100,195]",1.6165,rectangle
,,,,,,,,,,,,,FF,,,,,,,,7.5988,,,,,,,,,,,,,,,,,,,,,,61020c152715b970291062db,610367acb30e8eca97f09957,2021-07-29_19h45.31.738,Simcolourproject_2stim_asymm_v5,2020.2.10,MacIntel,60,61025ae37ef11b136ea224fe,,,,,,,,,253,44.91015625,-63.73828125,1,0,0,response3disk,,4,2.05859375,-3.4296875,1,0,0,rectangle,80.7578125,-47.19140625,1,0,0,-2.8984375,1.4453125,1,0,0,0,82,82,154,1,,response3disk_3,TRUE,5,5,"[148,6,84,287,51,312,123,11,239,83,184,291,45,151,255,298,34,82,100,195]",1.8508,rectangle
,,,,,,,,,,,,,FF,,,,,,,,0.8335,,,,,,,,,,,,,,,,,,,,,,61020c152715b970291062db,610367acb30e8eca97f09957,2021-07-29_19h45.31.738,Simcolourproject_2stim_asymm_v5,2020.2.10,MacIntel,60,61025ae37ef11b136ea224fe,,,,,,,,,2579,33.17578125,97.2421875,1,0,0,response1disk,,7,10.16796875,-1.80078125,1,0,0,rectangle,85.35546875,-41.27734375,1,0,0,-1.6171875,4.13671875,1,0,0,0,83,83,30,1,,response3disk_3,TRUE,5,5,"[148,6,84,287,51,312,123,11,239,83,184,291,45,151,255,298,34,82,100,195]",1.1507,rectangle
,,,,,,,,,,,,,FF,,,,,,,,3.0674,,,,,,,,,,,,,,,,,,,,,,61020c152715b970291062db,610367acb30e8eca97f09957,2021-07-29_19h45.31.738,Simcolourproject_2stim_asymm_v5,2020.2.10,MacIntel,60,61025ae37ef11b136ea224fe,,,,,,,,,1879,88.1484375,-59.0234375,1,0,0,response3disk,,5,12.5,-13.64453125,1,0,0,rectangle,12.5,-13.64453125,1,0,0,12.5,-13.64453125,1,0,0,0,84,84,137,1,,,,,,,,
,,,,,,,,,,,,,FF,,,,,,,,2.666,,,,,,,,,,,,,,,,,,,,,,61020c152715b970291062db,610367acb30e8eca97f09957,2021-07-29_19h45.31.738,Simcolourproject_2stim_asymm_v5,2020.2.10,MacIntel,60,61025ae37ef11b136ea224fe,,,,,,,,,655,89.42578125,-68.36328125,1,0,0,response3disk,,5,8.28125,-6.5390625,1,0,0,rectangle,8.28125,-6.5390625,1,0,0,8.28125,-6.5390625,1,0,0,0,85,85,114,1,,,,,,,,
,,,,,,,,,,,,,FF,,,,,,,,3.3662,,,,,,,,,,,,,,,,,,,,,,61020c152715b970291062db,610367acb30e8eca97f09957,2021-07-29_19h45.31.738,Simcolourproject_2stim_asymm_v5,2020.2.10,MacIntel,60,61025ae37ef11b136ea224fe,,,,,,,,,4227,90.12890625,33.3203125,1,0,0,response1disk,,6,-13.421875,-0.08203125,1,0,0,rectangle,-13.421875,-0.08203125,1,0,0,-13.421875,-0.08203125,1,0,0,0,86,86,70,1,,,,,,,,
,,,,,,,,,,,,,FF,,,,,,,,0.9505,,,,,,,,,,,,,,,,,,,,,,61020c152715b970291062db,610367acb30e8eca97f09957,2021-07-29_19h45.31.738,Simcolourproject_2stim_asymm_v5,2020.2.10,MacIntel,60,61025ae37ef11b136ea224fe,,,,,,,,,3224,45.29296875,84.3359375,1,0,0,response1disk,,7,8.046875,2.0859375,1,0,0,rectangle,8.046875,2.0859375,1,0,0,8.046875,2.0859375,1,0,0,0,87,87,50,1,,,,,,,,
,,,,,,,,,,,,,FF,,,,,,,,1.634,,,,,,,,,,,,,,,,,,,,,,61020c152715b970291062db,610367acb30e8eca97f09957,2021-07-29_19h45.31.738,Simcolourproject_2stim_asymm_v5,2020.2.10,MacIntel,60,61025ae37ef11b136ea224fe,,,,,,,,,3745,41.81640625,-96.83984375,1,0,0,response3disk,,4,16.93359375,6.33984375,1,0,0,rectangle,16.93359375,6.33984375,1,0,0,16.93359375,6.33984375,1,0,0,0,88,88,20,1,,,,,,,,
,,,,,,,,,,,,,FF,,,,,,,,2.1333,,,,,,,,,,,,,,,,,,,,,,61020c152715b970291062db,610367acb30e8eca97f09957,2021-07-29_19h45.31.738,Simcolourproject_2stim_asymm_v5,2020.2.10,MacIntel,60,61025ae37ef11b136ea224fe,,,,,,,,,3838,72.45703125,-54.296875,1,0,0,response3disk,,5,-8.625,3.75390625,1,0,0,rectangle,-8.625,3.75390625,1,0,0,-8.625,3.75390625,1,0,0,0,89,89,145,1,,,,,,,,
,,,,,,,,,,,,,FF,,,,,,,,0.6839,,,,,,,,,,,,,,,,,,,,,,61020c152715b970291062db,610367acb30e8eca97f09957,2021-07-29_19h45.31.738,Simcolourproject_2stim_asymm_v5,2020.2.10,MacIntel,60,61025ae37ef11b136ea224fe,,,,,,,,,2464,46.40234375,64.7109375,1,0,0,response1disk,,7,7.44140625,-5.17578125,1,0,0,rectangle,7.44140625,-5.17578125,1,0,0,7.44140625,-5.17578125,1,0,0,0,90,90,53,1,,,,,,,,
,,,,,,,,,,,,,FF,,,,,,,,0.5493,,,,,,,,,,,,,,,,,,,,,,61020c152715b970291062db,610367acb30e8eca97f09957,2021-07-29_19h45.31.738,Simcolourproject_2stim_asymm_v5,2020.2.10,MacIntel,60,61025ae37ef11b136ea224fe,,,,,,,,,3269,42.546875,70.44140625,1,0,0,response1disk,,7,10.25,-3.91796875,1,0,0,rectangle,10.25,-3.91796875,1,0,0,10.25,-3.91796875,1,0,0,0,91,91,17,1,,,,,,,,
,,,,,,,,,,,,,FF,,,,,,,,0.7836,,,,,,,,,,,,,,,,,,,,,,61020c152715b970291062db,610367acb30e8eca97f09957,2021-07-29_19h45.31.738,Simcolourproject_2stim_asymm_v5,2020.2.10,MacIntel,60,61025ae37ef11b136ea224fe,,,,,,,,,944,54.3359375,75.69140625,1,0,0,response1disk,,7,8.41015625,6.17578125,1,0,0,rectangle,8.41015625,6.17578125,1,0,0,8.41015625,6.17578125,1,0,0,0,92,92,139,1,,,,,,,,
,,,,,,,,,,,,,FF,,,,,,,,3.8164,,,,,,,,,,,,,,,,,,,,,,61020c152715b970291062db,610367acb30e8eca97f09957,2021-07-29_19h45.31.738,Simcolourproject_2stim_asymm_v5,2020.2.10,MacIntel,60,61025ae37ef11b136ea224fe,,,,,,,,,1120,99.328125,-75.8203125,1,0,0,response3disk,,5,5.66015625,-2.03515625,1,0,0,rectangle,5.66015625,-2.03515625,1,0,0,5.66015625,-2.03515625,1,0,0,0,93,93,106,1,,,,,,,,
,,,,,,,,,,,,,FF,,,,,,,,1.0656,,,,,,,,,,,,,,,,,,,,,,61020c152715b970291062db,610367acb30e8eca97f09957,2021-07-29_19h45.31.738,Simcolourproject_2stim_asymm_v5,2020.2.10,MacIntel,60,61025ae37ef11b136ea224fe,,,,,,,,,1892,-54.86328125,-102.8398438,1,0,0,response5disk,,3,-4.4765625,-14.55078125,1,0,0,rectangle,-4.4765625,-14.55078125,1,0,0,-4.4765625,-14.55078125,1,0,0,0,94,94,4,1,,,,,,,,
,,,,,,,,,,,,,FF,,,,,,,,0.9334,,,,,,,,,,,,,,,,,,,,,,61020c152715b970291062db,610367acb30e8eca97f09957,2021-07-29_19h45.31.738,Simcolourproject_2stim_asymm_v5,2020.2.10,MacIntel,60,61025ae37ef11b136ea224fe,,,,,,,,,1684,-76.9453125,-29.1484375,1,0,0,response5disk,,2,-24.51953125,-4.9140625,1,0,0,rectangle,-24.51953125,-4.9140625,1,0,0,-24.51953125,-4.9140625,1,0,0,0,95,95,142,1,,,,,,,,
,,,,,,,,,,,,,FF,,,,,,,,1.9833,,,,,,,,,,,,,,,,,,,,,,61020c152715b970291062db,610367acb30e8eca97f09957,2021-07-29_19h45.31.738,Simcolourproject_2stim_asymm_v5,2020.2.10,MacIntel,60,61025ae37ef11b136ea224fe,,,,,,,,,2152,21.25,-97.609375,1,0,0,response3disk,,4,3.328125,-9.41796875,1,0,0,rectangle,3.328125,-9.41796875,1,0,0,3.328125,-9.41796875,1,0,0,0,96,96,28,1,,,,,,,,
,,,,,,,,,,,,,FF,,,,,,,,0.9009,,,,,,,,,,,,,,,,,,,,,,61020c152715b970291062db,610367acb30e8eca97f09957,2021-07-29_19h45.31.738,Simcolourproject_2stim_asymm_v5,2020.2.10,MacIntel,60,61025ae37ef11b136ea224fe,,,,,,,,,1670,-36.12890625,86.921875,1,0,0,response7disk,,0,-2.73046875,-4.2421875,1,0,0,rectangle,-2.73046875,-4.2421875,1,0,0,-2.73046875,-4.2421875,1,0,0,0,97,97,46,1,,,,,,,,
,,,,,,,,,,,,,FF,,,,,,,,0.8827,,,,,,,,,,,,,,,,,,,,,,61020c152715b970291062db,610367acb30e8eca97f09957,2021-07-29_19h45.31.738,Simcolourproject_2stim_asymm_v5,2020.2.10,MacIntel,60,61025ae37ef11b136ea224fe,,,,,,,,,4215,47.1640625,76.90234375,1,0,0,response1disk,,7,6.21875,6.74609375,1,0,0,rectangle,6.21875,6.74609375,1,0,0,6.21875,6.74609375,1,0,0,0,98,98,103,1,,,,,,,,
,,,,,,,,,,,,,FF,,,,,,,,1.2172,,,,,,,,,,,,,,,,,,,,,,61020c152715b970291062db,610367acb30e8eca97f09957,2021-07-29_19h45.31.738,Simcolourproject_2stim_asymm_v5,2020.2.10,MacIntel,60,61025ae37ef11b136ea224fe,,,,,,,,,3113,93.46484375,-61.23828125,1,0,0,response3disk,,5,-3.78515625,-4.984375,1,0,0,rectangle,44.296875,-88.68359375,1,0,0,2.6171875,0.56640625,1,0,0,0,99,99,65,1,,response3disk_3,TRUE,4,4,"[148,6,84,287,51,312,123,11,239,83,184,291,45,151,255,298,34,82,100,195]",1.5497,rectangle
,,,,,,,,,,,,,FF,,,,,,,,0.7835,,,,,,,,,,,,,,,,,,,,,,61020c152715b970291062db,610367acb30e8eca97f09957,2021-07-29_19h45.31.738,Simcolourproject_2stim_asymm_v5,2020.2.10,MacIntel,60,61025ae37ef11b136ea224fe,,,,,,,,,841,45.0078125,85.54296875,1,0,0,response1disk,,7,11.95703125,2.37890625,1,0,0,rectangle,11.95703125,2.37890625,1,0,0,11.95703125,2.37890625,1,0,0,0,100,100,16,1,,,,,,,,
,,,,,,,,,,,,,FF,,,,,,,,1.0497,,,,,,,,,,,,,,,,,,,,,,61020c152715b970291062db,610367acb30e8eca97f09957,2021-07-29_19h45.31.738,Simcolourproject_2stim_asymm_v5,2020.2.10,MacIntel,60,61025ae37ef11b136ea224fe,,,,,,,,,3070,52.23828125,89.48046875,1,0,0,response1disk,,7,5.18359375,-0.078125,1,0,0,rectangle,5.18359375,-0.078125,1,0,0,5.18359375,-0.078125,1,0,0,0,101,101,9,1,,,,,,,,
,,,,,,,,,,,,,FF,,,,,,,,1.0335,,,,,,,,,,,,,,,,,,,,,,61020c152715b970291062db,610367acb30e8eca97f09957,2021-07-29_19h45.31.738,Simcolourproject_2stim_asymm_v5,2020.2.10,MacIntel,60,61025ae37ef11b136ea224fe,,,,,,,,,362,41.30859375,61.75,1,0,0,response1disk,,7,-4.02734375,-12.96875,1,0,0,rectangle,-4.02734375,-12.96875,1,0,0,-4.02734375,-12.96875,1,0,0,0,102,102,21,1,,,,,,,,
,,,,,,,,,,,,,FF,,,,,,,,0.5998,,,,,,,,,,,,,,,,,,,,,,61020c152715b970291062db,610367acb30e8eca97f09957,2021-07-29_19h45.31.738,Simcolourproject_2stim_asymm_v5,2020.2.10,MacIntel,60,61025ae37ef11b136ea224fe,,,,,,,,,1872,24.68359375,37.03515625,1,0,0,response1disk,,7,1.3046875,-7.02734375,1,0,0,rectangle,1.3046875,-7.02734375,1,0,0,1.3046875,-7.02734375,1,0,0,0,103,103,125,1,,,,,,,,
,,,,,,,,,,,,,FF,,,,,,,,0.6333,,,,,,,,,,,,,,,,,,,,,,61020c152715b970291062db,610367acb30e8eca97f09957,2021-07-29_19h45.31.738,Simcolourproject_2stim_asymm_v5,2020.2.10,MacIntel,60,61025ae37ef11b136ea224fe,,,,,,,,,769,45.328125,73.68359375,1,0,0,response1disk,,7,9.58984375,5.51171875,1,0,0,rectangle,9.58984375,5.51171875,1,0,0,9.58984375,5.51171875,1,0,0,0,104,104,79,1,,,,,,,,
,,,,,,,,,,,,,FF,,,,,,,,0.6335,,,,,,,,,,,,,,,,,,,,,,61020c152715b970291062db,610367acb30e8eca97f09957,2021-07-29_19h45.31.738,Simcolourproject_2stim_asymm_v5,2020.2.10,MacIntel,60,61025ae37ef11b136ea224fe,,,,,,,,,1324,44.8828125,79.34375,1,0,0,response1disk,,7,15.91015625,5.953125,1,0,0,rectangle,15.91015625,5.953125,1,0,0,15.91015625,5.953125,1,0,0,0,105,105,15,1,,,,,,,,
,,,,,,,,,,,,,FF,,,,,,,,3.1001,,,,,,,,,,,,,,,,,,,,,,61020c152715b970291062db,610367acb30e8eca97f09957,2021-07-29_19h45.31.738,Simcolourproject_2stim_asymm_v5,2020.2.10,MacIntel,60,61025ae37ef11b136ea224fe,,,,,,,,,1953,58.484375,42.06640625,1,0,0,response1disk,,6,-8.05859375,3.61328125,1,0,0,rectangle,-8.05859375,3.61328125,1,0,0,-8.05859375,3.61328125,1,0,0,0,106,106,99,1,,,,,,,,
,,,,,,,,,,,,,FF,,,,,,,,0.6001,,,,,,,,,,,,,,,,,,,,,,61020c152715b970291062db,610367acb30e8eca97f09957,2021-07-29_19h45.31.738,Simcolourproject_2stim_asymm_v5,2020.2.10,MacIntel,60,61025ae37ef11b136ea224fe,,,,,,,,,2343,31.5546875,80.34375,1,0,0,response1disk,,7,6.14453125,-8.51953125,1,0,0,rectangle,6.14453125,-8.51953125,1,0,0,6.14453125,-8.51953125,1,0,0,0,107,107,55,1,,,,,,,,
,,,,,,,,,,,,,FF,,,,,,,,3.6331,,,,,,,,,,,,,,,,,,,,,,61020c152715b970291062db,610367acb30e8eca97f09957,2021-07-29_19h45.31.738,Simcolourproject_2stim_asymm_v5,2020.2.10,MacIntel,60,61025ae37ef11b136ea224fe,,,,,,,,,3187,88.14453125,-60.9921875,1,0,0,response3disk,,5,-2.8828125,-5.23828125,1,0,0,rectangle,-2.8828125,-5.23828125,1,0,0,-2.8828125,-5.23828125,1,0,0,0,108,108,23,1,,,,,,,,
,,,,,,,,,,,,,FF,,,,,,,,1.1997,,,,,,,,,,,,,,,,,,,,,,61020c152715b970291062db,610367acb30e8eca97f09957,2021-07-29_19h45.31.738,Simcolourproject_2stim_asymm_v5,2020.2.10,MacIntel,60,61025ae37ef11b136ea224fe,,,,,,,,,1406,36.23828125,63.25390625,1,0,0,response1disk,,7,3.82421875,4.2109375,1,0,0,rectangle,3.82421875,4.2109375,1,0,0,3.82421875,4.2109375,1,0,0,0,109,109,126,1,,,,,,,,
,,,,,,,,,,,,,FF,,,,,,,,0.5164,,,,,,,,,,,,,,,,,,,,,,61020c152715b970291062db,610367acb30e8eca97f09957,2021-07-29_19h45.31.738,Simcolourproject_2stim_asymm_v5,2020.2.10,MacIntel,60,61025ae37ef11b136ea224fe,,,,,,,,,1778,40.91015625,75.05859375,1,0,0,response1disk,,7,12.85546875,11.3515625,1,0,0,rectangle,12.85546875,11.3515625,1,0,0,12.85546875,11.3515625,1,0,0,0,110,110,109,1,,,,,,,,
,,,,,,,,,,,,,FF,,,,,,,,0.5168,,,,,,,,,,,,,,,,,,,,,,61020c152715b970291062db,610367acb30e8eca97f09957,2021-07-29_19h45.31.738,Simcolourproject_2stim_asymm_v5,2020.2.10,MacIntel,60,61025ae37ef11b136ea224fe,,,,,,,,,2588,34.05078125,78.078125,1,0,0,response1disk,,7,-0.1875,1.46484375,1,0,0,rectangle,-0.1875,1.46484375,1,0,0,-0.1875,1.46484375,1,0,0,0,111,111,158,1,,,,,,,,
,,,,,,,,,,,,,FF,,,,,,,,0.9509,,,,,,,,,,,,,,,,,,,,,,61020c152715b970291062db,610367acb30e8eca97f09957,2021-07-29_19h45.31.738,Simcolourproject_2stim_asymm_v5,2020.2.10,MacIntel,60,61025ae37ef11b136ea224fe,,,,,,,,,1445,-44.65234375,30.703125,1,0,0,response7disk,,1,3.125,-3.046875,1,0,0,rectangle,3.125,-3.046875,1,0,0,3.125,-3.046875,1,0,0,0,112,112,43,1,,,,,,,,
,,,,,,,,,,,,,FF,,,,,,,,2.0322,,,,,,,,,,,,,,,,,,,,,,61020c152715b970291062db,610367acb30e8eca97f09957,2021-07-29_19h45.31.738,Simcolourproject_2stim_asymm_v5,2020.2.10,MacIntel,60,61025ae37ef11b136ea224fe,,,,,,,,,4278,77.01953125,51.0625,1,0,0,response1disk,,6,1.5078125,-1.69921875,1,0,0,rectangle,1.5078125,-1.69921875,1,0,0,1.5078125,-1.69921875,1,0,0,0,113,113,131,1,,,,,,,,
,,,,,,,,,,,,,FF,,,,,,,,0.9,,,,,,,,,,,,,,,,,,,,,,61020c152715b970291062db,610367acb30e8eca97f09957,2021-07-29_19h45.31.738,Simcolourproject_2stim_asymm_v5,2020.2.10,MacIntel,60,61025ae37ef11b136ea224fe,,,,,,,,,78,-76.71484375,33.09375,1,0,0,response7disk,,1,6.390625,0.8671875,1,0,0,rectangle,6.390625,0.8671875,1,0,0,6.390625,0.8671875,1,0,0,0,114,114,148,1,,,,,,,,
,,,,,,,,,,,,,FF,,,,,,,,0.6669,,,,,,,,,,,,,,,,,,,,,,61020c152715b970291062db,610367acb30e8eca97f09957,2021-07-29_19h45.31.738,Simcolourproject_2stim_asymm_v5,2020.2.10,MacIntel,60,61025ae37ef11b136ea224fe,,,,,,,,,4233,37.25,88.3515625,1,0,0,response1disk,,7,2.140625,7.171875,1,0,0,rectangle,2.140625,7.171875,1,0,0,2.140625,7.171875,1,0,0,0,115,115,7,1,,,,,,,,
,,,,,,,,,,,,,FF,,,,,,,,1.1169,,,,,,,,,,,,,,,,,,,,,,61020c152715b970291062db,610367acb30e8eca97f09957,2021-07-29_19h45.31.738,Simcolourproject_2stim_asymm_v5,2020.2.10,MacIntel,60,61025ae37ef11b136ea224fe,,,,,,,,,1963,-61.09765625,39.92578125,1,0,0,response7disk,,1,-13.73828125,12.90234375,1,0,0,rectangle,-13.73828125,12.90234375,1,0,0,-13.73828125,12.90234375,1,0,0,0,116,116,61,1,,,,,,,,
,,,,,,,,,,,,,FF,,,,,,,,1.8171,,,,,,,,,,,,,,,,,,,,,,61020c152715b970291062db,610367acb30e8eca97f09957,2021-07-29_19h45.31.738,Simcolourproject_2stim_asymm_v5,2020.2.10,MacIntel,60,61025ae37ef11b136ea224fe,,,,,,,,,809,21.5390625,-69.32421875,1,0,0,response3disk,,4,-16.82421875,15.21484375,1,0,0,rectangle,-16.82421875,15.21484375,1,0,0,-16.82421875,15.21484375,1,0,0,0,117,117,146,1,,,,,,,,
,,,,,,,,,,,,,FF,,,,,,,,1.9166,,,,,,,,,,,,,,,,,,,,,,61020c152715b970291062db,610367acb30e8eca97f09957,2021-07-29_19h45.31.738,Simcolourproject_2stim_asymm_v5,2020.2.10,MacIntel,60,61025ae37ef11b136ea224fe,,,,,,,,,1209,57.79296875,80.859375,1,0,0,response1disk,,7,11.19921875,8.5703125,1,0,0,rectangle,11.19921875,8.5703125,1,0,0,11.19921875,8.5703125,1,0,0,0,118,118,111,1,,,,,,,,
,,,,,,,,,,,,,FF,,,,,,,,1.8507,,,,,,,,,,,,,,,,,,,,,,61020c152715b970291062db,610367acb30e8eca97f09957,2021-07-29_19h45.31.738,Simcolourproject_2stim_asymm_v5,2020.2.10,MacIntel,60,61025ae37ef11b136ea224fe,,,,,,,,,2276,61.23828125,101.5273438,1,0,0,response1disk,,7,-13.4609375,-7.0625,1,0,0,rectangle,-13.4609375,-7.0625,1,0,0,-13.4609375,-7.0625,1,0,0,0,119,119,123,1,,,,,,,,
,,,,,,,,,,,,,FF,,,,,,,,0.7841,,,,,,,,,,,,,,,,,,,,,,61020c152715b970291062db,610367acb30e8eca97f09957,2021-07-29_19h45.31.738,Simcolourproject_2stim_asymm_v5,2020.2.10,MacIntel,60,61025ae37ef11b136ea224fe,,,,,,,,,3183,40.87890625,87.59375,1,0,0,response1disk,,7,1.25390625,8.546875,1,0,0,rectangle,1.25390625,8.546875,1,0,0,1.25390625,8.546875,1,0,0,0,120,120,97,1,,,,,,,,
,,,,,,,,,,,,,FF,,,,,,,,1.7504,,,,,,,,,,,,,,,,,,,,,,61020c152715b970291062db,610367acb30e8eca97f09957,2021-07-29_19h45.31.738,Simcolourproject_2stim_asymm_v5,2020.2.10,MacIntel,60,61025ae37ef11b136ea224fe,,,,,,,,,1623,94.3828125,58.04296875,1,0,0,response1disk,,6,3.5390625,-2.16015625,1,0,0,rectangle,3.5390625,-2.16015625,1,0,0,3.5390625,-2.16015625,1,0,0,0,121,121,119,1,,,,,,,,
,,,,,,,,,,,,,FF,,,,,,,,1.2322,,,,,,,,,,,,,,,,,,,,,,61020c152715b970291062db,610367acb30e8eca97f09957,2021-07-29_19h45.31.738,Simcolourproject_2stim_asymm_v5,2020.2.10,MacIntel,60,61025ae37ef11b136ea224fe,,,,,,,,,3347,96.0859375,35.00390625,1,0,0,response1disk,,6,3.89453125,-3.05078125,1,0,0,rectangle,-74.5859375,-46.52734375,1,0,0,-5.81640625,-9.00390625,1,0,0,0,122,122,36,1,,response5disk_3,TRUE,2,2,"[148,6,84,287,51,312,123,11,239,83,184,291,45,151,255,298,34,82,100,195]",1.3991,rectangle
,,,,,,,,,,,,,FF,,,,,,,,1.5984,,,,,,,,,,,,,,,,,,,,,,61020c152715b970291062db,610367acb30e8eca97f09957,2021-07-29_19h45.31.738,Simcolourproject_2stim_asymm_v5,2020.2.10,MacIntel,60,61025ae37ef11b136ea224fe,,,,,,,,,2509,34.9140625,73.08203125,1,0,0,response1disk,,7,-8.375,-7.6328125,1,0,0,rectangle,-8.375,-7.6328125,1,0,0,-8.375,-7.6328125,1,0,0,0,123,123,5,1,,,,,,,,
,,,,,,,,,,,,,FF,,,,,,,,0.9348,,,,,,,,,,,,,,,,,,,,,,61020c152715b970291062db,610367acb30e8eca97f09957,2021-07-29_19h45.31.738,Simcolourproject_2stim_asymm_v5,2020.2.10,MacIntel,60,61025ae37ef11b136ea224fe,,,,,,,,,2608,-81.69140625,-41.0625,1,0,0,response5disk,,2,1.32421875,-0.64453125,1,0,0,rectangle,1.32421875,-0.64453125,1,0,0,1.32421875,-0.64453125,1,0,0,0,124,124,25,1,,,,,,,,
,,,,,,,,,,,,,FF,,,,,,,,1.9634,,,,,,,,,,,,,,,,,,,,,,61020c152715b970291062db,610367acb30e8eca97f09957,2021-07-29_19h45.31.738,Simcolourproject_2stim_asymm_v5,2020.2.10,MacIntel,60,61025ae37ef11b136ea224fe,,,,,,,,,464,45.05859375,-93.94921875,1,0,0,response3disk,,4,12.484375,4.125,1,0,0,rectangle,12.484375,4.125,1,0,0,12.484375,4.125,1,0,0,0,125,125,156,1,,,,,,,,
,,,,,,,,,,,,,FF,,,,,,,,2.5512,,,,,,,,,,,,,,,,,,,,,,61020c152715b970291062db,610367acb30e8eca97f09957,2021-07-29_19h45.31.738,Simcolourproject_2stim_asymm_v5,2020.2.10,MacIntel,60,61025ae37ef11b136ea224fe,,,,,,,,,2195,82.91796875,36.94921875,1,0,0,response1disk,,6,-10.671875,5.4609375,1,0,0,rectangle,-10.671875,5.4609375,1,0,0,-10.671875,5.4609375,1,0,0,0,126,126,82,1,,,,,,,,
,,,,,,,,,,,,,FF,,,,,,,,1.9166,,,,,,,,,,,,,,,,,,,,,,61020c152715b970291062db,610367acb30e8eca97f09957,2021-07-29_19h45.31.738,Simcolourproject_2stim_asymm_v5,2020.2.10,MacIntel,60,61025ae37ef11b136ea224fe,,,,,,,,,4123,101.546875,-60.5859375,1,0,0,response3disk,,5,9.265625,3.9921875,1,0,0,rectangle,9.265625,3.9921875,1,0,0,9.265625,3.9921875,1,0,0,0,127,127,49,1,,,,,,,,
,,,,,,,,,,,,,FF,,,,,,,,0.7994,,,,,,,,,,,,,,,,,,,,,,61020c152715b970291062db,610367acb30e8eca97f09957,2021-07-29_19h45.31.738,Simcolourproject_2stim_asymm_v5,2020.2.10,MacIntel,60,61025ae37ef11b136ea224fe,,,,,,,,,3015,23.76953125,96.0859375,1,0,0,response1disk,,7,-10.578125,-12.99609375,1,0,0,rectangle,-10.578125,-12.99609375,1,0,0,-10.578125,-12.99609375,1,0,0,0,128,128,62,1,,,,,,,,
,,,,,,,,,,,,,FF,,,,,,,,0.5666,,,,,,,,,,,,,,,,,,,,,,61020c152715b970291062db,610367acb30e8eca97f09957,2021-07-29_19h45.31.738,Simcolourproject_2stim_asymm_v5,2020.2.10,MacIntel,60,61025ae37ef11b136ea224fe,,,,,,,,,3646,31.51171875,71.9375,1,0,0,response1disk,,7,5.3828125,-11.49609375,1,0,0,rectangle,5.3828125,-11.49609375,1,0,0,5.3828125,-11.49609375,1,0,0,0,129,129,68,1,,,,,,,,
,,,,,,,,,,,,,FF,,,,,,,,0.7998,,,,,,,,,,,,,,,,,,,,,,61020c152715b970291062db,610367acb30e8eca97f09957,2021-07-29_19h45.31.738,Simcolourproject_2stim_asymm_v5,2020.2.10,MacIntel,60,61025ae37ef11b136ea224fe,,,,,,,,,1712,74.77734375,30.6875,1,0,0,response1disk,,6,8.37890625,10.98046875,1,0,0,rectangle,8.37890625,10.98046875,1,0,0,8.37890625,10.98046875,1,0,0,0,130,130,102,1,,,,,,,,
,,,,,,,,,,,,,FF,,,,,,,,1.5011,,,,,,,,,,,,,,,,,,,,,,61020c152715b970291062db,610367acb30e8eca97f09957,2021-07-29_19h45.31.738,Simcolourproject_2stim_asymm_v5,2020.2.10,MacIntel,60,61025ae37ef11b136ea224fe,,,,,,,,,3039,-39.0390625,-96.80859375,1,0,0,response5disk,,3,-18.37890625,-2.65625,1,0,0,rectangle,-18.37890625,-2.65625,1,0,0,-18.37890625,-2.65625,1,0,0,0,131,131,159,1,,,,,,,,
,,,,,,,,,,,,,FF,,,,,,,,1.2833,,,,,,,,,,,,,,,,,,,,,,61020c152715b970291062db,610367acb30e8eca97f09957,2021-07-29_19h45.31.738,Simcolourproject_2stim_asymm_v5,2020.2.10,MacIntel,60,61025ae37ef11b136ea224fe,,,,,,,,,4204,-32.890625,-58.609375,1,0,0,response5disk,,3,-0.484375,9.60546875,1,0,0,rectangle,-0.484375,9.60546875,1,0,0,-0.484375,9.60546875,1,0,0,0,132,132,44,1,,,,,,,,
,,,,,,,,,,,,,FF,,,,,,,,1.4498,,,,,,,,,,,,,,,,,,,,,,61020c152715b970291062db,610367acb30e8eca97f09957,2021-07-29_19h45.31.738,Simcolourproject_2stim_asymm_v5,2020.2.10,MacIntel,60,61025ae37ef11b136ea224fe,,,,,,,,,557,-37.4921875,-79.52734375,1,0,0,response5disk,,3,4.6328125,13.2421875,1,0,0,rectangle,4.6328125,13.2421875,1,0,0,4.6328125,13.2421875,1,0,0,0,133,133,153,1,,,,,,,,
,,,,,,,,,,,,,FF,,,,,,,,1.2159,,,,,,,,,,,,,,,,,,,,,,61020c152715b970291062db,610367acb30e8eca97f09957,2021-07-29_19h45.31.738,Simcolourproject_2stim_asymm_v5,2020.2.10,MacIntel,60,61025ae37ef11b136ea224fe,,,,,,,,,3523,31.625,-68.44921875,1,0,0,response3disk,,4,11.03515625,-11.5703125,1,0,0,rectangle,11.03515625,-11.5703125,1,0,0,11.03515625,-11.5703125,1,0,0,0,134,134,110,1,,,,,,,,
,,,,,,,,,,,,,FF,,,,,,,,1.4342,,,,,,,,,,,,,,,,,,,,,,61020c152715b970291062db,610367acb30e8eca97f09957,2021-07-29_19h45.31.738,Simcolourproject_2stim_asymm_v5,2020.2.10,MacIntel,60,61025ae37ef11b136ea224fe,,,,,,,,,257,-51.17578125,-82.57421875,1,0,0,response5disk,,3,-12.421875,-6.58984375,1,0,0,rectangle,-12.421875,-6.58984375,1,0,0,-12.421875,-6.58984375,1,0,0,0,135,135,150,1,,,,,,,,
,,,,,,,,,,,,,FF,,,,,,,,0.7996,,,,,,,,,,,,,,,,,,,,,,61020c152715b970291062db,610367acb30e8eca97f09957,2021-07-29_19h45.31.738,Simcolourproject_2stim_asymm_v5,2020.2.10,MacIntel,60,61025ae37ef11b136ea224fe,,,,,,,,,2421,-77.578125,-44.859375,1,0,0,response5disk,,2,-16.23046875,-9.375,1,0,0,rectangle,-16.23046875,-9.375,1,0,0,-16.23046875,-9.375,1,0,0,0,136,136,33,1,,,,,,,,
,,,,,,,,,,,,,FF,,,,,,,,0.7325,,,,,,,,,,,,,,,,,,,,,,61020c152715b970291062db,610367acb30e8eca97f09957,2021-07-29_19h45.31.738,Simcolourproject_2stim_asymm_v5,2020.2.10,MacIntel,60,61025ae37ef11b136ea224fe,,,,,,,,,404,41.421875,64.64453125,1,0,0,response1disk,,7,2.8671875,5.01953125,1,0,0,rectangle,2.8671875,5.01953125,1,0,0,2.8671875,5.01953125,1,0,0,0,137,137,27,1,,,,,,,,
,,,,,,,,,,,,,FF,,,,,,,,0.816,,,,,,,,,,,,,,,,,,,,,,61020c152715b970291062db,610367acb30e8eca97f09957,2021-07-29_19h45.31.738,Simcolourproject_2stim_asymm_v5,2020.2.10,MacIntel,60,61025ae37ef11b136ea224fe,,,,,,,,,1979,75.00390625,39.109375,1,0,0,response1disk,,6,3.7265625,2.81640625,1,0,0,rectangle,3.7265625,2.81640625,1,0,0,3.7265625,2.81640625,1,0,0,0,138,138,124,1,,,,,,,,
,,,,,,,,,,,,,FF,,,,,,,,1.367,,,,,,,,,,,,,,,,,,,,,,61020c152715b970291062db,610367acb30e8eca97f09957,2021-07-29_19h45.31.738,Simcolourproject_2stim_asymm_v5,2020.2.10,MacIntel,60,61025ae37ef11b136ea224fe,,,,,,,,,3148,-33.625,-51.88671875,1,0,0,response5disk,,3,-16.5,-11.84375,1,0,0,rectangle,-16.5,-11.84375,1,0,0,-16.5,-11.84375,1,0,0,0,139,139,34,1,,,,,,,,
,,,,,,,,,,,,,FF,,,,,,,,0.9664,,,,,,,,,,,,,,,,,,,,,,61020c152715b970291062db,610367acb30e8eca97f09957,2021-07-29_19h45.31.738,Simcolourproject_2stim_asymm_v5,2020.2.10,MacIntel,60,61025ae37ef11b136ea224fe,,,,,,,,,3820,28.10546875,-69.4375,1,0,0,response3disk,,4,-5.83203125,-6.6484375,1,0,0,rectangle,-5.83203125,-6.6484375,1,0,0,-5.83203125,-6.6484375,1,0,0,0,140,140,105,1,,,,,,,,
,,,,,,,,,,,,,FF,,,,,,,,0.8511,,,,,,,,,,,,,,,,,,,,,,61020c152715b970291062db,610367acb30e8eca97f09957,2021-07-29_19h45.31.738,Simcolourproject_2stim_asymm_v5,2020.2.10,MacIntel,60,61025ae37ef11b136ea224fe,,,,,,,,,144,39.65625,71.8984375,1,0,0,response1disk,,7,8.0546875,4.390625,1,0,0,rectangle,8.0546875,4.390625,1,0,0,8.0546875,4.390625,1,0,0,0,141,141,132,1,,,,,,,,
,,,,,,,,,,,,,FF,,,,,,,,0.7332,,,,,,,,,,,,,,,,,,,,,,61020c152715b970291062db,610367acb30e8eca97f09957,2021-07-29_19h45.31.738,Simcolourproject_2stim_asymm_v5,2020.2.10,MacIntel,60,61025ae37ef11b136ea224fe,,,,,,,,,1176,30.0234375,76.1953125,1,0,0,response1disk,,7,0.0859375,13.703125,1,0,0,rectangle,0.0859375,13.703125,1,0,0,0.0859375,13.703125,1,0,0,0,142,142,56,1,,,,,,,,
,,,,,,,,,,,,,FF,,,,,,,,0.6332,,,,,,,,,,,,,,,,,,,,,,61020c152715b970291062db,610367acb30e8eca97f09957,2021-07-29_19h45.31.738,Simcolourproject_2stim_asymm_v5,2020.2.10,MacIntel,60,61025ae37ef11b136ea224fe,,,,,,,,,2130,26.62890625,62.2578125,1,0,0,response1disk,,7,11.5859375,6.45703125,1,0,0,rectangle,11.5859375,6.45703125,1,0,0,11.5859375,6.45703125,1,0,0,0,143,143,18,1,,,,,,,,
,,,,,,,,,,,,,FF,,,,,,,,1.4338,,,,,,,,,,,,,,,,,,,,,,61020c152715b970291062db,610367acb30e8eca97f09957,2021-07-29_19h45.31.738,Simcolourproject_2stim_asymm_v5,2020.2.10,MacIntel,60,61025ae37ef11b136ea224fe,,,,,,,,,2150,39.0546875,58.9140625,1,0,0,response1disk,,7,8.5390625,-9.0390625,1,0,0,rectangle,8.5390625,-9.0390625,1,0,0,8.5390625,-9.0390625,1,0,0,0,144,144,151,1,,,,,,,,
,,,,,,,,,,,,,FF,,,,,,,,2.3831,,,,,,,,,,,,,,,,,,,,,,61020c152715b970291062db,610367acb30e8eca97f09957,2021-07-29_19h45.31.738,Simcolourproject_2stim_asymm_v5,2020.2.10,MacIntel,60,61025ae37ef11b136ea224fe,,,,,,,,,2487,38.28515625,-97.08203125,1,0,0,response3disk,,4,5.89453125,4.74609375,1,0,0,rectangle,5.89453125,4.74609375,1,0,0,5.89453125,4.74609375,1,0,0,0,145,145,141,1,,,,,,,,
,,,,,,,,,,,,,FF,,,,,,,,3.3336,,,,,,,,,,,,,,,,,,,,,,61020c152715b970291062db,610367acb30e8eca97f09957,2021-07-29_19h45.31.738,Simcolourproject_2stim_asymm_v5,2020.2.10,MacIntel,60,61025ae37ef11b136ea224fe,,,,,,,,,2406,38.49609375,69.86328125,1,0,0,response1disk,,7,3.19921875,6.81640625,1,0,0,rectangle,3.19921875,6.81640625,1,0,0,3.19921875,6.81640625,1,0,0,0,146,146,84,1,,,,,,,,
,,,,,,,,,,,,,FF,,,,,,,,1.2484,,,,,,,,,,,,,,,,,,,,,,61020c152715b970291062db,610367acb30e8eca97f09957,2021-07-29_19h45.31.738,Simcolourproject_2stim_asymm_v5,2020.2.10,MacIntel,60,61025ae37ef11b136ea224fe,,,,,,,,,3442,81.09765625,29.4375,1,0,0,response1disk,,6,3.6015625,-5.2109375,1,0,0,rectangle,-26.73046875,73.76171875,1,0,0,-10.41796875,2.38671875,1,0,0,0,147,147,58,1,,response7disk_3,TRUE,0,0,"[148,6,84,287,51,312,123,11,239,83,184,291,45,151,255,298,34,82,100,195]",1.1498,rectangle
,,,,,,,,,,,,,FF,,,,,,,,1.6002,,,,,,,,,,,,,,,,,,,,,,61020c152715b970291062db,610367acb30e8eca97f09957,2021-07-29_19h45.31.738,Simcolourproject_2stim_asymm_v5,2020.2.10,MacIntel,60,61025ae37ef11b136ea224fe,,,,,,,,,3530,38.71484375,95.73828125,1,0,0,response1disk,,7,-3.37109375,12.18359375,1,0,0,rectangle,-3.37109375,12.18359375,1,0,0,-3.37109375,12.18359375,1,0,0,0,148,148,128,1,,,,,,,,
,,,,,,,,,,,,,FF,,,,,,,,0.5665,,,,,,,,,,,,,,,,,,,,,,61020c152715b970291062db,610367acb30e8eca97f09957,2021-07-29_19h45.31.738,Simcolourproject_2stim_asymm_v5,2020.2.10,MacIntel,60,61025ae37ef11b136ea224fe,,,,,,,,,587,36.90234375,64.125,1,0,0,response1disk,,7,17.5625,2.15625,1,0,0,rectangle,17.5625,2.15625,1,0,0,17.5625,2.15625,1,0,0,0,149,149,134,1,,,,,,,,
,,,,,,,,,,,,,FF,,,,,,,,0.6509,,,,,,,,,,,,,,,,,,,,,,61020c152715b970291062db,610367acb30e8eca97f09957,2021-07-29_19h45.31.738,Simcolourproject_2stim_asymm_v5,2020.2.10,MacIntel,60,61025ae37ef11b136ea224fe,,,,,,,,,685,38.58203125,70.12109375,1,0,0,response1disk,,7,14.83203125,12.6640625,1,0,0,rectangle,37.66796875,84.87109375,1,0,0,-6.96875,2.671875,1,0,0,0,150,150,3,1,,response1disk_3,TRUE,7,7,"[148,6,84,287,51,312,123,11,239,83,184,291,45,151,255,298,34,82,100,195]",0.9663,rectangle
,,,,,,,,,,,,,FF,,,,,,,,1.9177,,,,,,,,,,,,,,,,,,,,,,61020c152715b970291062db,610367acb30e8eca97f09957,2021-07-29_19h45.31.738,Simcolourproject_2stim_asymm_v5,2020.2.10,MacIntel,60,61025ae37ef11b136ea224fe,,,,,,,,,1812,-100.359375,-56.2109375,1,0,0,response5disk,,2,-10.73046875,-0.80078125,1,0,0,rectangle,-10.73046875,-0.80078125,1,0,0,-10.73046875,-0.80078125,1,0,0,0,151,151,11,1,,,,,,,,
,,,,,,,,,,,,,FF,,,,,,,,1.867,,,,,,,,,,,,,,,,,,,,,,61020c152715b970291062db,610367acb30e8eca97f09957,2021-07-29_19h45.31.738,Simcolourproject_2stim_asymm_v5,2020.2.10,MacIntel,60,61025ae37ef11b136ea224fe,,,,,,,,,1430,85.33203125,-27.2265625,1,0,0,response3disk,,5,15.6328125,-9.30859375,1,0,0,rectangle,15.6328125,-9.30859375,1,0,0,15.6328125,-9.30859375,1,0,0,0,152,152,91,1,,,,,,,,
,,,,,,,,,,,,,FF,,,,,,,,1.5994,,,,,,,,,,,,,,,,,,,,,,61020c152715b970291062db,610367acb30e8eca97f09957,2021-07-29_19h45.31.738,Simcolourproject_2stim_asymm_v5,2020.2.10,MacIntel,60,61025ae37ef11b136ea224fe,,,,,,,,,2287,46.578125,-93.44921875,1,0,0,response3disk,,4,5.73828125,-1.984375,1,0,0,rectangle,5.73828125,-1.984375,1,0,0,5.73828125,-1.984375,1,0,0,0,153,153,48,1,,,,,,,,
,,,,,,,,,,,,,FF,,,,,,,,1.7161,,,,,,,,,,,,,,,,,,,,,,61020c152715b970291062db,610367acb30e8eca97f09957,2021-07-29_19h45.31.738,Simcolourproject_2stim_asymm_v5,2020.2.10,MacIntel,60,61025ae37ef11b136ea224fe,,,,,,,,,2721,-79.890625,-36.66796875,1,0,0,response5disk,,2,12.96484375,13.015625,1,0,0,rectangle,12.96484375,13.015625,1,0,0,12.96484375,13.015625,1,0,0,0,154,154,116,1,,,,,,,,
,,,,,,,,,,,,,FF,,,,,,,,1.1014,,,,,,,,,,,,,,,,,,,,,,61020c152715b970291062db,610367acb30e8eca97f09957,2021-07-29_19h45.31.738,Simcolourproject_2stim_asymm_v5,2020.2.10,MacIntel,60,61025ae37ef11b136ea224fe,,,,,,,,,3163,42.5546875,-59.546875,1,0,0,response3disk,,4,-7.3203125,-5.04296875,1,0,0,rectangle,-7.3203125,-5.04296875,1,0,0,-7.3203125,-5.04296875,1,0,0,0,155,155,155,1,,,,,,,,
,,,,,,,,,,,,,FF,,,,,,,,1.2166,,,,,,,,,,,,,,,,,,,,,,61020c152715b970291062db,610367acb30e8eca97f09957,2021-07-29_19h45.31.738,Simcolourproject_2stim_asymm_v5,2020.2.10,MacIntel,60,61025ae37ef11b136ea224fe,,,,,,,,,1888,-76.21875,-41.59375,1,0,0,response5disk,,2,-6.54296875,-8.71875,1,0,0,rectangle,-6.54296875,-8.71875,1,0,0,-6.54296875,-8.71875,1,0,0,0,156,156,76,1,,,,,,,,
,,,,,,,,,,,,,FF,,,,,,,,0.6999,,,,,,,,,,,,,,,,,,,,,,61020c152715b970291062db,610367acb30e8eca97f09957,2021-07-29_19h45.31.738,Simcolourproject_2stim_asymm_v5,2020.2.10,MacIntel,60,61025ae37ef11b136ea224fe,,,,,,,,,1207,39.9140625,69.578125,1,0,0,response1disk,,7,5.6328125,9.65625,1,0,0,rectangle,5.6328125,9.65625,1,0,0,5.6328125,9.65625,1,0,0,0,157,157,40,1,,,,,,,,
,,,,,,,,,,,,,FF,,,,,,,,0.9333,,,,,,,,,,,,,,,,,,,,,,61020c152715b970291062db,610367acb30e8eca97f09957,2021-07-29_19h45.31.738,Simcolourproject_2stim_asymm_v5,2020.2.10,MacIntel,60,61025ae37ef11b136ea224fe,,,,,,,,,2844,77.60546875,34.59765625,1,0,0,response1disk,,6,14.1484375,5.2734375,1,0,0,rectangle,14.1484375,5.2734375,1,0,0,14.1484375,5.2734375,1,0,0,0,158,158,0,1,,,,,,,,
,,,,,,,,,,,,,FF,,,,,,,,1.6326,,,,,,,,,,,,,,,,,,,,,,61020c152715b970291062db,610367acb30e8eca97f09957,2021-07-29_19h45.31.738,Simcolourproject_2stim_asymm_v5,2020.2.10,MacIntel,60,61025ae37ef11b136ea224fe,,,,,,,,,2094,-43.72265625,-71.1875,1,0,0,response5disk,,3,-21.52734375,2.703125,1,0,0,rectangle,-21.52734375,2.703125,1,0,0,-21.52734375,2.703125,1,0,0,0,159,159,83,1,,,,,,,,
,,,,,,,,,,,,,FF,,,,,,,,0.7506,,,,,,,,,,,,,,,,,,,,,,61020c152715b970291062db,610367acb30e8eca97f09957,2021-07-29_19h45.31.738,Simcolourproject_2stim_asymm_v5,2020.2.10,MacIntel,60,61025ae37ef11b136ea224fe,,,,,,,,,3732,28.80859375,66.16015625,1,0,0,response1disk,,7,-3.3984375,8.34765625,1,0,0,rectangle,-3.3984375,8.34765625,1,0,0,-3.3984375,8.34765625,1,0,0,1,0,160,117,1,,,,,,,,
,,,,,,,,,,,,,FF,,,,,,,,0.6327,,,,,,,,,,,,,,,,,,,,,,61020c152715b970291062db,610367acb30e8eca97f09957,2021-07-29_19h45.31.738,Simcolourproject_2stim_asymm_v5,2020.2.10,MacIntel,60,61025ae37ef11b136ea224fe,,,,,,,,,3380,17.2265625,55.6171875,1,0,0,response1disk,,7,-1.33203125,-0.19921875,1,0,0,rectangle,-1.33203125,-0.19921875,1,0,0,-1.33203125,-0.19921875,1,0,0,1,1,161,109,1,,,,,,,,
,,,,,,,,,,,,,FF,,,,,,,,0.6496,,,,,,,,,,,,,,,,,,,,,,61020c152715b970291062db,610367acb30e8eca97f09957,2021-07-29_19h45.31.738,Simcolourproject_2stim_asymm_v5,2020.2.10,MacIntel,60,61025ae37ef11b136ea224fe,,,,,,,,,795,37.14453125,64.42578125,1,0,0,response1disk,,7,7.2578125,7.5078125,1,0,0,rectangle,7.2578125,7.5078125,1,0,0,7.2578125,7.5078125,1,0,0,1,2,162,105,1,,,,,,,,
,,,,,,,,,,,,,FF,,,,,,,,0.45,,,,,,,,,,,,,,,,,,,,,,61020c152715b970291062db,610367acb30e8eca97f09957,2021-07-29_19h45.31.738,Simcolourproject_2stim_asymm_v5,2020.2.10,MacIntel,60,61025ae37ef11b136ea224fe,,,,,,,,,3893,37.91015625,61.8671875,1,0,0,response1disk,,7,9.55078125,1.546875,1,0,0,rectangle,9.55078125,1.546875,1,0,0,9.55078125,1.546875,1,0,0,1,3,163,56,1,,,,,,,,
,,,,,,,,,,,,,FF,,,,,,,,0.5996,,,,,,,,,,,,,,,,,,,,,,61020c152715b970291062db,610367acb30e8eca97f09957,2021-07-29_19h45.31.738,Simcolourproject_2stim_asymm_v5,2020.2.10,MacIntel,60,61025ae37ef11b136ea224fe,,,,,,,,,3615,31.07421875,59.234375,1,0,0,response1disk,,7,-0.890625,-2.3203125,1,0,0,rectangle,-0.890625,-2.3203125,1,0,0,-0.890625,-2.3203125,1,0,0,1,4,164,81,1,,,,,,,,
,,,,,,,,,,,,,FF,,,,,,,,1.1823,,,,,,,,,,,,,,,,,,,,,,61020c152715b970291062db,610367acb30e8eca97f09957,2021-07-29_19h45.31.738,Simcolourproject_2stim_asymm_v5,2020.2.10,MacIntel,60,61025ae37ef11b136ea224fe,,,,,,,,,2808,43.2578125,69.41796875,1,0,0,response1disk,,7,9.3671875,17.53515625,1,0,0,rectangle,9.3671875,17.53515625,1,0,0,9.3671875,17.53515625,1,0,0,1,5,165,114,1,,,,,,,,
,,,,,,,,,,,,,FF,,,,,,,,1.0008,,,,,,,,,,,,,,,,,,,,,,61020c152715b970291062db,610367acb30e8eca97f09957,2021-07-29_19h45.31.738,Simcolourproject_2stim_asymm_v5,2020.2.10,MacIntel,60,61025ae37ef11b136ea224fe,,,,,,,,,3591,-63.6875,37.5859375,1,0,0,response7disk,,1,-17.76953125,12.43359375,1,0,0,rectangle,-17.76953125,12.43359375,1,0,0,-17.76953125,12.43359375,1,0,0,1,6,166,63,1,,,,,,,,
,,,,,,,,,,,,,FF,,,,,,,,1.1844,,,,,,,,,,,,,,,,,,,,,,61020c152715b970291062db,610367acb30e8eca97f09957,2021-07-29_19h45.31.738,Simcolourproject_2stim_asymm_v5,2020.2.10,MacIntel,60,61025ae37ef11b136ea224fe,,,,,,,,,637,-80.140625,-28.22265625,1,0,0,response5disk,,2,-10.91796875,4.296875,1,0,0,rectangle,-10.91796875,4.296875,1,0,0,-10.91796875,4.296875,1,0,0,1,7,167,143,1,,,,,,,,
,,,,,,,,,,,,,FF,,,,,,,,0.766,,,,,,,,,,,,,,,,,,,,,,61020c152715b970291062db,610367acb30e8eca97f09957,2021-07-29_19h45.31.738,Simcolourproject_2stim_asymm_v5,2020.2.10,MacIntel,60,61025ae37ef11b136ea224fe,,,,,,,,,1247,22.4765625,60.56640625,1,0,0,response1disk,,7,-8.44140625,10.9140625,1,0,0,rectangle,-8.44140625,10.9140625,1,0,0,-8.44140625,10.9140625,1,0,0,1,8,168,116,1,,,,,,,,
,,,,,,,,,,,,,FF,,,,,,,,0.5681,,,,,,,,,,,,,,,,,,,,,,61020c152715b970291062db,610367acb30e8eca97f09957,2021-07-29_19h45.31.738,Simcolourproject_2stim_asymm_v5,2020.2.10,MacIntel,60,61025ae37ef11b136ea224fe,,,,,,,,,3991,33.37109375,77.71484375,1,0,0,response1disk,,7,10.16015625,13.1171875,1,0,0,rectangle,10.16015625,13.1171875,1,0,0,10.16015625,13.1171875,1,0,0,1,9,169,134,1,,,,,,,,
,,,,,,,,,,,,,FF,,,,,,,,0.5507,,,,,,,,,,,,,,,,,,,,,,61020c152715b970291062db,610367acb30e8eca97f09957,2021-07-29_19h45.31.738,Simcolourproject_2stim_asymm_v5,2020.2.10,MacIntel,60,61025ae37ef11b136ea224fe,,,,,,,,,1331,33.2421875,76.54296875,1,0,0,response1disk,,7,9.2265625,-5.48046875,1,0,0,rectangle,9.2265625,-5.48046875,1,0,0,9.2265625,-5.48046875,1,0,0,1,10,170,24,1,,,,,,,,
,,,,,,,,,,,,,FF,,,,,,,,0.7333,,,,,,,,,,,,,,,,,,,,,,61020c152715b970291062db,610367acb30e8eca97f09957,2021-07-29_19h45.31.738,Simcolourproject_2stim_asymm_v5,2020.2.10,MacIntel,60,61025ae37ef11b136ea224fe,,,,,,,,,1613,65.41796875,26.09765625,1,0,0,response1disk,,6,1.5390625,-6.1796875,1,0,0,rectangle,1.5390625,-6.1796875,1,0,0,1.5390625,-6.1796875,1,0,0,1,11,171,3,1,,,,,,,,
,,,,,,,,,,,,,FF,,,,,,,,1.8333,,,,,,,,,,,,,,,,,,,,,,61020c152715b970291062db,610367acb30e8eca97f09957,2021-07-29_19h45.31.738,Simcolourproject_2stim_asymm_v5,2020.2.10,MacIntel,60,61025ae37ef11b136ea224fe,,,,,,,,,605,60.44921875,-32.62890625,1,0,0,response3disk,,5,7.7734375,-0.28515625,1,0,0,rectangle,7.7734375,-0.28515625,1,0,0,7.7734375,-0.28515625,1,0,0,1,12,172,138,1,,,,,,,,
,,,,,,,,,,,,,FF,,,,,,,,0.717,,,,,,,,,,,,,,,,,,,,,,61020c152715b970291062db,610367acb30e8eca97f09957,2021-07-29_19h45.31.738,Simcolourproject_2stim_asymm_v5,2020.2.10,MacIntel,60,61025ae37ef11b136ea224fe,,,,,,,,,4070,43.97265625,79.328125,1,0,0,response1disk,,7,-2.61328125,4.55078125,1,0,0,rectangle,-2.61328125,4.55078125,1,0,0,-2.61328125,4.55078125,1,0,0,1,13,173,51,1,,,,,,,,
,,,,,,,,,,,,,FF,,,,,,,,1.9836,,,,,,,,,,,,,,,,,,,,,,61020c152715b970291062db,610367acb30e8eca97f09957,2021-07-29_19h45.31.738,Simcolourproject_2stim_asymm_v5,2020.2.10,MacIntel,60,61025ae37ef11b136ea224fe,,,,,,,,,1238,42.40625,77.58984375,1,0,0,response1disk,,7,12.81640625,10.3984375,1,0,0,rectangle,12.81640625,10.3984375,1,0,0,12.81640625,10.3984375,1,0,0,1,14,174,65,1,,,,,,,,
,,,,,,,,,,,,,FF,,,,,,,,1.2506,,,,,,,,,,,,,,,,,,,,,,61020c152715b970291062db,610367acb30e8eca97f09957,2021-07-29_19h45.31.738,Simcolourproject_2stim_asymm_v5,2020.2.10,MacIntel,60,61025ae37ef11b136ea224fe,,,,,,,,,482,67.8984375,29.1171875,1,0,0,response1disk,,6,14.171875,9.140625,1,0,0,rectangle,14.171875,9.140625,1,0,0,14.171875,9.140625,1,0,0,1,15,175,129,1,,,,,,,,
,,,,,,,,,,,,,FF,,,,,,,,2.0333,,,,,,,,,,,,,,,,,,,,,,61020c152715b970291062db,610367acb30e8eca97f09957,2021-07-29_19h45.31.738,Simcolourproject_2stim_asymm_v5,2020.2.10,MacIntel,60,61025ae37ef11b136ea224fe,,,,,,,,,632,-54.21875,-60.2578125,1,0,0,response5disk,,3,-24.12109375,-4.02734375,1,0,0,rectangle,-24.12109375,-4.02734375,1,0,0,-24.12109375,-4.02734375,1,0,0,1,16,176,113,1,,,,,,,,
,,,,,,,,,,,,,FF,,,,,,,,0.9341,,,,,,,,,,,,,,,,,,,,,,61020c152715b970291062db,610367acb30e8eca97f09957,2021-07-29_19h45.31.738,Simcolourproject_2stim_asymm_v5,2020.2.10,MacIntel,60,61025ae37ef11b136ea224fe,,,,,,,,,3071,41.01953125,86.9765625,1,0,0,response1disk,,7,-9.30859375,0.62109375,1,0,0,rectangle,-9.30859375,0.62109375,1,0,0,-9.30859375,0.62109375,1,0,0,1,17,177,61,1,,,,,,,,
,,,,,,,,,,,,,FF,,,,,,,,1.1325,,,,,,,,,,,,,,,,,,,,,,61020c152715b970291062db,610367acb30e8eca97f09957,2021-07-29_19h45.31.738,Simcolourproject_2stim_asymm_v5,2020.2.10,MacIntel,60,61025ae37ef11b136ea224fe,,,,,,,,,2875,44.73828125,80.765625,1,0,0,response1disk,,7,0.15625,7.92578125,1,0,0,rectangle,0.15625,7.92578125,1,0,0,0.15625,7.92578125,1,0,0,1,18,178,28,1,,,,,,,,
,,,,,,,,,,,,,FF,,,,,,,,0.6502,,,,,,,,,,,,,,,,,,,,,,61020c152715b970291062db,610367acb30e8eca97f09957,2021-07-29_19h45.31.738,Simcolourproject_2stim_asymm_v5,2020.2.10,MacIntel,60,61025ae37ef11b136ea224fe,,,,,,,,,238,44.83984375,79.703125,1,0,0,response1disk,,7,4.328125,-1.7265625,1,0,0,rectangle,4.328125,-1.7265625,1,0,0,4.328125,-1.7265625,1,0,0,1,19,179,115,1,,,,,,,,
,,,,,,,,,,,,,FF,,,,,,,,1.0675,,,,,,,,,,,,,,,,,,,,,,61020c152715b970291062db,610367acb30e8eca97f09957,2021-07-29_19h45.31.738,Simcolourproject_2stim_asymm_v5,2020.2.10,MacIntel,60,61025ae37ef11b136ea224fe,,,,,,,,,777,35.7578125,66.14453125,1,0,0,response1disk,,7,6.0625,8.3203125,1,0,0,rectangle,6.0625,8.3203125,1,0,0,6.0625,8.3203125,1,0,0,1,20,180,37,1,,,,,,,,
,,,,,,,,,,,,,FF,,,,,,,,0.9506,,,,,,,,,,,,,,,,,,,,,,61020c152715b970291062db,610367acb30e8eca97f09957,2021-07-29_19h45.31.738,Simcolourproject_2stim_asymm_v5,2020.2.10,MacIntel,60,61025ae37ef11b136ea224fe,,,,,,,,,261,-68.28125,-41.53125,1,0,0,response5disk,,2,-10.90234375,-0.91796875,1,0,0,rectangle,-10.90234375,-0.91796875,1,0,0,-10.90234375,-0.91796875,1,0,0,1,21,181,84,1,,,,,,,,
,,,,,,,,,,,,,FF,,,,,,,,1.4338,,,,,,,,,,,,,,,,,,,,,,61020c152715b970291062db,610367acb30e8eca97f09957,2021-07-29_19h45.31.738,Simcolourproject_2stim_asymm_v5,2020.2.10,MacIntel,60,61025ae37ef11b136ea224fe,,,,,,,,,378,28.3359375,-54.859375,1,0,0,response3disk,,4,2.30078125,-5.69140625,1,0,0,rectangle,2.30078125,-5.69140625,1,0,0,2.30078125,-5.69140625,1,0,0,1,22,182,1,1,,,,,,,,
,,,,,,,,,,,,,FF,,,,,,,,0.682,,,,,,,,,,,,,,,,,,,,,,61020c152715b970291062db,610367acb30e8eca97f09957,2021-07-29_19h45.31.738,Simcolourproject_2stim_asymm_v5,2020.2.10,MacIntel,60,61025ae37ef11b136ea224fe,,,,,,,,,1922,37.62890625,87.390625,1,0,0,response1disk,,7,-7.234375,-2.83203125,1,0,0,rectangle,62.609375,-57.70703125,1,0,0,2.22265625,-4.76171875,1,0,0,1,23,183,104,1,,response3disk_3,TRUE,5,5,"[148,6,84,287,51,312,123,11,239,83,184,291,45,151,255,298,34,82,100,195]",1.2827,rectangle
,,,,,,,,,,,,,FF,,,,,,,,3.1673,,,,,,,,,,,,,,,,,,,,,,61020c152715b970291062db,610367acb30e8eca97f09957,2021-07-29_19h45.31.738,Simcolourproject_2stim_asymm_v5,2020.2.10,MacIntel,60,61025ae37ef11b136ea224fe,,,,,,,,,650,74.26953125,35.17578125,1,0,0,response1disk,,6,5.75,0.6640625,1,0,0,rectangle,5.75,0.6640625,1,0,0,5.75,0.6640625,1,0,0,1,24,184,19,1,,,,,,,,
,,,,,,,,,,,,,FF,,,,,,,,1.2012,,,,,,,,,,,,,,,,,,,,,,61020c152715b970291062db,610367acb30e8eca97f09957,2021-07-29_19h45.31.738,Simcolourproject_2stim_asymm_v5,2020.2.10,MacIntel,60,61025ae37ef11b136ea224fe,,,,,,,,,842,29.62109375,59.60546875,1,0,0,response1disk,,7,-20.78515625,-0.671875,1,0,0,rectangle,-20.78515625,-0.671875,1,0,0,-20.78515625,-0.671875,1,0,0,1,25,185,130,1,,,,,,,,
,,,,,,,,,,,,,FF,,,,,,,,1.6672,,,,,,,,,,,,,,,,,,,,,,61020c152715b970291062db,610367acb30e8eca97f09957,2021-07-29_19h45.31.738,Simcolourproject_2stim_asymm_v5,2020.2.10,MacIntel,60,61025ae37ef11b136ea224fe,,,,,,,,,4128,46.046875,-75.7109375,1,0,0,response3disk,,4,2.00390625,-7.578125,1,0,0,rectangle,2.00390625,-7.578125,1,0,0,2.00390625,-7.578125,1,0,0,1,26,186,32,1,,,,,,,,
,,,,,,,,,,,,,FF,,,,,,,,1.6337,,,,,,,,,,,,,,,,,,,,,,61020c152715b970291062db,610367acb30e8eca97f09957,2021-07-29_19h45.31.738,Simcolourproject_2stim_asymm_v5,2020.2.10,MacIntel,60,61025ae37ef11b136ea224fe,,,,,,,,,1509,62.19921875,37.828125,1,0,0,response1disk,,6,4.921875,7.56640625,1,0,0,rectangle,4.921875,7.56640625,1,0,0,4.921875,7.56640625,1,0,0,1,27,187,7,1,,,,,,,,
,,,,,,,,,,,,,FF,,,,,,,,0.5673,,,,,,,,,,,,,,,,,,,,,,61020c152715b970291062db,610367acb30e8eca97f09957,2021-07-29_19h45.31.738,Simcolourproject_2stim_asymm_v5,2020.2.10,MacIntel,60,61025ae37ef11b136ea224fe,,,,,,,,,2497,23.59375,46.69921875,1,0,0,response1disk,,7,-1.77734375,-14.359375,1,0,0,rectangle,-1.77734375,-14.359375,1,0,0,-1.77734375,-14.359375,1,0,0,1,28,188,80,1,,,,,,,,
,,,,,,,,,,,,,FF,,,,,,,,0.9166,,,,,,,,,,,,,,,,,,,,,,61020c152715b970291062db,610367acb30e8eca97f09957,2021-07-29_19h45.31.738,Simcolourproject_2stim_asymm_v5,2020.2.10,MacIntel,60,61025ae37ef11b136ea224fe,,,,,,,,,1045,27.2265625,47.640625,1,0,0,response1disk,,7,2.06640625,3.4765625,1,0,0,rectangle,2.06640625,3.4765625,1,0,0,2.06640625,3.4765625,1,0,0,1,29,189,45,1,,,,,,,,
,,,,,,,,,,,,,FF,,,,,,,,2.3676,,,,,,,,,,,,,,,,,,,,,,61020c152715b970291062db,610367acb30e8eca97f09957,2021-07-29_19h45.31.738,Simcolourproject_2stim_asymm_v5,2020.2.10,MacIntel,60,61025ae37ef11b136ea224fe,,,,,,,,,3395,28.5390625,-71.81640625,1,0,0,response3disk,,4,11.1171875,1.7734375,1,0,0,rectangle,11.1171875,1.7734375,1,0,0,11.1171875,1.7734375,1,0,0,1,30,190,95,1,,,,,,,,
,,,,,,,,,,,,,FF,,,,,,,,1.0331,,,,,,,,,,,,,,,,,,,,,,61020c152715b970291062db,610367acb30e8eca97f09957,2021-07-29_19h45.31.738,Simcolourproject_2stim_asymm_v5,2020.2.10,MacIntel,60,61025ae37ef11b136ea224fe,,,,,,,,,1994,64.02734375,24.48828125,1,0,0,response1disk,,6,-8.40234375,-5.51953125,1,0,0,rectangle,-8.40234375,-5.51953125,1,0,0,-8.40234375,-5.51953125,1,0,0,1,31,191,157,1,,,,,,,,
,,,,,,,,,,,,,FF,,,,,,,,0.8999,,,,,,,,,,,,,,,,,,,,,,61020c152715b970291062db,610367acb30e8eca97f09957,2021-07-29_19h45.31.738,Simcolourproject_2stim_asymm_v5,2020.2.10,MacIntel,60,61025ae37ef11b136ea224fe,,,,,,,,,1368,-60.09375,-38.5,1,0,0,response5disk,,2,-8.125,-8.36328125,1,0,0,rectangle,-8.125,-8.36328125,1,0,0,-8.125,-8.36328125,1,0,0,1,32,192,55,1,,,,,,,,
,,,,,,,,,,,,,FF,,,,,,,,0.8343,,,,,,,,,,,,,,,,,,,,,,61020c152715b970291062db,610367acb30e8eca97f09957,2021-07-29_19h45.31.738,Simcolourproject_2stim_asymm_v5,2020.2.10,MacIntel,60,61025ae37ef11b136ea224fe,,,,,,,,,2948,-75.59765625,-32.8828125,1,0,0,response5disk,,2,-15.12109375,-11.6640625,1,0,0,rectangle,-15.12109375,-11.6640625,1,0,0,-15.12109375,-11.6640625,1,0,0,1,33,193,133,1,,,,,,,,
,,,,,,,,,,,,,FF,,,,,,,,1.1665,,,,,,,,,,,,,,,,,,,,,,61020c152715b970291062db,610367acb30e8eca97f09957,2021-07-29_19h45.31.738,Simcolourproject_2stim_asymm_v5,2020.2.10,MacIntel,60,61025ae37ef11b136ea224fe,,,,,,,,,970,-22.453125,-61.16796875,1,0,0,response5disk,,3,-14.640625,-3.109375,1,0,0,rectangle,41.08984375,-63.015625,1,0,0,-4.8828125,0.61328125,1,0,0,1,34,194,93,1,,response3disk_3,TRUE,4,4,"[148,6,84,287,51,312,123,11,239,83,184,291,45,151,255,298,34,82,100,195]",1.3821,rectangle
,,,,,,,,,,,,,FF,,,,,,,,2.95,,,,,,,,,,,,,,,,,,,,,,61020c152715b970291062db,610367acb30e8eca97f09957,2021-07-29_19h45.31.738,Simcolourproject_2stim_asymm_v5,2020.2.10,MacIntel,60,61025ae37ef11b136ea224fe,,,,,,,,,421,65.80859375,-61.18359375,1,0,0,response3disk,,5,6.7109375,7.59765625,1,0,0,rectangle,6.7109375,7.59765625,1,0,0,6.7109375,7.59765625,1,0,0,1,35,195,151,1,,,,,,,,
,,,,,,,,,,,,,FF,,,,,,,,0.7667,,,,,,,,,,,,,,,,,,,,,,61020c152715b970291062db,610367acb30e8eca97f09957,2021-07-29_19h45.31.738,Simcolourproject_2stim_asymm_v5,2020.2.10,MacIntel,60,61025ae37ef11b136ea224fe,,,,,,,,,935,37.69921875,68.0390625,1,0,0,response1disk,,7,13.31640625,4.8671875,1,0,0,rectangle,13.31640625,4.8671875,1,0,0,13.31640625,4.8671875,1,0,0,1,36,196,110,1,,,,,,,,
,,,,,,,,,,,,,FF,,,,,,,,1.1836,,,,,,,,,,,,,,,,,,,,,,61020c152715b970291062db,610367acb30e8eca97f09957,2021-07-29_19h45.31.738,Simcolourproject_2stim_asymm_v5,2020.2.10,MacIntel,60,61025ae37ef11b136ea224fe,,,,,,,,,1189,32.47265625,57.42578125,1,0,0,response1disk,,7,1.51953125,5.84765625,1,0,0,rectangle,1.51953125,5.84765625,1,0,0,1.51953125,5.84765625,1,0,0,1,37,197,52,1,,,,,,,,
,,,,,,,,,,,,,FF,,,,,,,,4.7,,,,,,,,,,,,,,,,,,,,,,61020c152715b970291062db,610367acb30e8eca97f09957,2021-07-29_19h45.31.738,Simcolourproject_2stim_asymm_v5,2020.2.10,MacIntel,60,61025ae37ef11b136ea224fe,,,,,,,,,2451,77.65625,17.46484375,1,0,0,response1disk,,6,-3.87109375,12.29296875,1,0,0,rectangle,-3.87109375,12.29296875,1,0,0,-3.87109375,12.29296875,1,0,0,1,38,198,106,1,,,,,,,,
,,,,,,,,,,,,,FF,,,,,,,,3.3514,,,,,,,,,,,,,,,,,,,,,,61020c152715b970291062db,610367acb30e8eca97f09957,2021-07-29_19h45.31.738,Simcolourproject_2stim_asymm_v5,2020.2.10,MacIntel,60,61025ae37ef11b136ea224fe,,,,,,,,,1226,75.96484375,-52.15625,1,0,0,response3disk,,5,-1.03125,10.05078125,1,0,0,rectangle,-1.03125,10.05078125,1,0,0,-1.03125,10.05078125,1,0,0,1,39,199,12,1,,,,,,,,
,,,,,,,,,,,,,FF,,,,,,,,0.6993,,,,,,,,,,,,,,,,,,,,,,61020c152715b970291062db,610367acb30e8eca97f09957,2021-07-29_19h45.31.738,Simcolourproject_2stim_asymm_v5,2020.2.10,MacIntel,60,61025ae37ef11b136ea224fe,,,,,,,,,3318,33.0390625,68.15234375,1,0,0,response1disk,,7,28.9375,-10.7734375,1,0,0,rectangle,28.9375,-10.7734375,1,0,0,28.9375,-10.7734375,1,0,0,1,40,200,67,1,,,,,,,,
,,,,,,,,,,,,,FF,,,,,,,,0.6,,,,,,,,,,,,,,,,,,,,,,61020c152715b970291062db,610367acb30e8eca97f09957,2021-07-29_19h45.31.738,Simcolourproject_2stim_asymm_v5,2020.2.10,MacIntel,60,61025ae37ef11b136ea224fe,,,,,,,,,3044,27.48046875,64.171875,1,0,0,response1disk,,7,12,-2.05078125,1,0,0,rectangle,12,-2.05078125,1,0,0,12,-2.05078125,1,0,0,1,41,201,149,1,,,,,,,,
,,,,,,,,,,,,,FF,,,,,,,,1.3171,,,,,,,,,,,,,,,,,,,,,,61020c152715b970291062db,610367acb30e8eca97f09957,2021-07-29_19h45.31.738,Simcolourproject_2stim_asymm_v5,2020.2.10,MacIntel,60,61025ae37ef11b136ea224fe,,,,,,,,,72,-73.3984375,-45.11328125,1,0,0,response5disk,,2,-9.70703125,2.9140625,1,0,0,rectangle,-9.70703125,2.9140625,1,0,0,-9.70703125,2.9140625,1,0,0,1,42,202,131,1,,,,,,,,
,,,,,,,,,,,,,FF,,,,,,,,0.934,,,,,,,,,,,,,,,,,,,,,,61020c152715b970291062db,610367acb30e8eca97f09957,2021-07-29_19h45.31.738,Simcolourproject_2stim_asymm_v5,2020.2.10,MacIntel,60,61025ae37ef11b136ea224fe,,,,,,,,,1133,-42.484375,-72.03515625,1,0,0,response5disk,,3,-6.2265625,-2.2421875,1,0,0,rectangle,-6.2265625,-2.2421875,1,0,0,-6.2265625,-2.2421875,1,0,0,1,43,203,92,1,,,,,,,,
,,,,,,,,,,,,,FF,,,,,,,,1.0321,,,,,,,,,,,,,,,,,,,,,,61020c152715b970291062db,610367acb30e8eca97f09957,2021-07-29_19h45.31.738,Simcolourproject_2stim_asymm_v5,2020.2.10,MacIntel,60,61025ae37ef11b136ea224fe,,,,,,,,,3463,-31.71875,-68.0625,1,0,0,response5disk,,3,-9.94921875,-8.34375,1,0,0,rectangle,-9.94921875,-8.34375,1,0,0,-9.94921875,-8.34375,1,0,0,1,44,204,30,1,,,,,,,,
,,,,,,,,,,,,,FF,,,,,,,,0.6508,,,,,,,,,,,,,,,,,,,,,,61020c152715b970291062db,610367acb30e8eca97f09957,2021-07-29_19h45.31.738,Simcolourproject_2stim_asymm_v5,2020.2.10,MacIntel,60,61025ae37ef11b136ea224fe,,,,,,,,,24,36.640625,55.99609375,1,0,0,response1disk,,7,10.64453125,11.046875,1,0,0,rectangle,10.64453125,11.046875,1,0,0,10.64453125,11.046875,1,0,0,1,45,205,72,1,,,,,,,,
,,,,,,,,,,,,,FF,,,,,,,,1.5157,,,,,,,,,,,,,,,,,,,,,,61020c152715b970291062db,610367acb30e8eca97f09957,2021-07-29_19h45.31.738,Simcolourproject_2stim_asymm_v5,2020.2.10,MacIntel,60,61025ae37ef11b136ea224fe,,,,,,,,,3715,43.0625,-62.2109375,1,0,0,response3disk,,4,13.1171875,-13.1875,1,0,0,rectangle,13.1171875,-13.1875,1,0,0,13.1171875,-13.1875,1,0,0,1,46,206,91,1,,,,,,,,
,,,,,,,,,,,,,FF,,,,,,,,1.2498,,,,,,,,,,,,,,,,,,,,,,61020c152715b970291062db,610367acb30e8eca97f09957,2021-07-29_19h45.31.738,Simcolourproject_2stim_asymm_v5,2020.2.10,MacIntel,60,61025ae37ef11b136ea224fe,,,,,,,,,2019,61.51171875,27.2734375,1,0,0,response1disk,,6,2.5546875,10.3359375,1,0,0,rectangle,2.5546875,10.3359375,1,0,0,2.5546875,10.3359375,1,0,0,1,47,207,76,1,,,,,,,,
,,,,,,,,,,,,,FF,,,,,,,,1.0175,,,,,,,,,,,,,,,,,,,,,,61020c152715b970291062db,610367acb30e8eca97f09957,2021-07-29_19h45.31.738,Simcolourproject_2stim_asymm_v5,2020.2.10,MacIntel,60,61025ae37ef11b136ea224fe,,,,,,,,,3397,27.16015625,-45.3046875,1,0,0,response3disk,,4,2.171875,-6.8984375,1,0,0,rectangle,2.171875,-6.8984375,1,0,0,2.171875,-6.8984375,1,0,0,1,48,208,54,1,,,,,,,,
,,,,,,,,,,,,,FF,,,,,,,,0.7496,,,,,,,,,,,,,,,,,,,,,,61020c152715b970291062db,610367acb30e8eca97f09957,2021-07-29_19h45.31.738,Simcolourproject_2stim_asymm_v5,2020.2.10,MacIntel,60,61025ae37ef11b136ea224fe,,,,,,,,,1493,45.578125,74.15625,1,0,0,response1disk,,7,15.3828125,-7.90625,1,0,0,rectangle,15.3828125,-7.90625,1,0,0,15.3828125,-7.90625,1,0,0,1,49,209,60,1,,,,,,,,
,,,,,,,,,,,,,FF,,,,,,,,1.1488,,,,,,,,,,,,,,,,,,,,,,61020c152715b970291062db,610367acb30e8eca97f09957,2021-07-29_19h45.31.738,Simcolourproject_2stim_asymm_v5,2020.2.10,MacIntel,60,61025ae37ef11b136ea224fe,,,,,,,,,2233,-64.875,-30.7109375,1,0,0,response5disk,,2,0.328125,-10.07421875,1,0,0,rectangle,0.328125,-10.07421875,1,0,0,0.328125,-10.07421875,1,0,0,1,50,210,9,1,,,,,,,,
,,,,,,,,,,,,,FF,,,,,,,,2.351,,,,,,,,,,,,,,,,,,,,,,61020c152715b970291062db,610367acb30e8eca97f09957,2021-07-29_19h45.31.738,Simcolourproject_2stim_asymm_v5,2020.2.10,MacIntel,60,61025ae37ef11b136ea224fe,,,,,,,,,4159,65.1171875,-52.08984375,1,0,0,response3disk,,5,-3.08203125,-15.46484375,1,0,0,rectangle,-3.08203125,-15.46484375,1,0,0,-3.08203125,-15.46484375,1,0,0,1,51,211,159,1,,,,,,,,
,,,,,,,,,,,,,FF,,,,,,,,1.3328,,,,,,,,,,,,,,,,,,,,,,61020c152715b970291062db,610367acb30e8eca97f09957,2021-07-29_19h45.31.738,Simcolourproject_2stim_asymm_v5,2020.2.10,MacIntel,60,61025ae37ef11b136ea224fe,,,,,,,,,3972,29.03125,-58.39453125,1,0,0,response3disk,,4,5.85546875,-11.60546875,1,0,0,rectangle,5.85546875,-11.60546875,1,0,0,5.85546875,-11.60546875,1,0,0,1,52,212,101,1,,,,,,,,
,,,,,,,,,,,,,FF,,,,,,,,1.566,,,,,,,,,,,,,,,,,,,,,,61020c152715b970291062db,610367acb30e8eca97f09957,2021-07-29_19h45.31.738,Simcolourproject_2stim_asymm_v5,2020.2.10,MacIntel,60,61025ae37ef11b136ea224fe,,,,,,,,,4032,46.1015625,-36.28515625,1,0,0,response3disk,,5,1.34375,-4.1640625,1,0,0,rectangle,1.34375,-4.1640625,1,0,0,1.34375,-4.1640625,1,0,0,1,53,213,40,1,,,,,,,,
,,,,,,,,,,,,,FF,,,,,,,,3.1151,,,,,,,,,,,,,,,,,,,,,,61020c152715b970291062db,610367acb30e8eca97f09957,2021-07-29_19h45.31.738,Simcolourproject_2stim_asymm_v5,2020.2.10,MacIntel,60,61025ae37ef11b136ea224fe,,,,,,,,,1070,61.33984375,-43.43359375,1,0,0,response3disk,,5,5.53515625,-1.98046875,1,0,0,rectangle,5.53515625,-1.98046875,1,0,0,5.53515625,-1.98046875,1,0,0,1,54,214,42,1,,,,,,,,
,,,,,,,,,,,,,FF,,,,,,,,1.0497,,,,,,,,,,,,,,,,,,,,,,61020c152715b970291062db,610367acb30e8eca97f09957,2021-07-29_19h45.31.738,Simcolourproject_2stim_asymm_v5,2020.2.10,MacIntel,60,61025ae37ef11b136ea224fe,,,,,,,,,1588,30.28125,52.90625,1,0,0,response1disk,,7,9.390625,5.5234375,1,0,0,rectangle,9.390625,5.5234375,1,0,0,9.390625,5.5234375,1,0,0,1,55,215,50,1,,,,,,,,
,,,,,,,,,,,,,FF,,,,,,,,1.1172,,,,,,,,,,,,,,,,,,,,,,61020c152715b970291062db,610367acb30e8eca97f09957,2021-07-29_19h45.31.738,Simcolourproject_2stim_asymm_v5,2020.2.10,MacIntel,60,61025ae37ef11b136ea224fe,,,,,,,,,2314,45.3046875,29.8046875,1,0,0,response1disk,,6,6.63671875,6.07421875,1,0,0,rectangle,6.63671875,6.07421875,1,0,0,6.63671875,6.07421875,1,0,0,1,56,216,146,1,,,,,,,,
,,,,,,,,,,,,,FF,,,,,,,,2.8504,,,,,,,,,,,,,,,,,,,,,,61020c152715b970291062db,610367acb30e8eca97f09957,2021-07-29_19h45.31.738,Simcolourproject_2stim_asymm_v5,2020.2.10,MacIntel,60,61025ae37ef11b136ea224fe,,,,,,,,,1461,33.87890625,-72.078125,1,0,0,response3disk,,4,3.8984375,-15.7890625,1,0,0,rectangle,3.8984375,-15.7890625,1,0,0,3.8984375,-15.7890625,1,0,0,1,57,217,153,1,,,,,,,,
,,,,,,,,,,,,,FF,,,,,,,,1.1832,,,,,,,,,,,,,,,,,,,,,,61020c152715b970291062db,610367acb30e8eca97f09957,2021-07-29_19h45.31.738,Simcolourproject_2stim_asymm_v5,2020.2.10,MacIntel,60,61025ae37ef11b136ea224fe,,,,,,,,,3292,-23.21875,-66.43359375,1,0,0,response5disk,,3,4.23828125,-10.30859375,1,0,0,rectangle,4.23828125,-10.30859375,1,0,0,4.23828125,-10.30859375,1,0,0,1,58,218,137,1,,,,,,,,
,,,,,,,,,,,,,FF,,,,,,,,4.6006,,,,,,,,,,,,,,,,,,,,,,61020c152715b970291062db,610367acb30e8eca97f09957,2021-07-29_19h45.31.738,Simcolourproject_2stim_asymm_v5,2020.2.10,MacIntel,60,61025ae37ef11b136ea224fe,,,,,,,,,36,19.59375,59.0703125,1,0,0,response1disk,,7,5.140625,-6.81640625,1,0,0,rectangle,5.140625,-6.81640625,1,0,0,5.140625,-6.81640625,1,0,0,1,59,219,25,1,,,,,,,,
,,,,,,,,,,,,,FF,,,,,,,,0.6823,,,,,,,,,,,,,,,,,,,,,,61020c152715b970291062db,610367acb30e8eca97f09957,2021-07-29_19h45.31.738,Simcolourproject_2stim_asymm_v5,2020.2.10,MacIntel,60,61025ae37ef11b136ea224fe,,,,,,,,,1169,35.0234375,68.73828125,1,0,0,response1disk,,7,7.25390625,4.578125,1,0,0,rectangle,7.25390625,4.578125,1,0,0,7.25390625,4.578125,1,0,0,1,60,220,23,1,,,,,,,,
,,,,,,,,,,,,,FF,,,,,,,,1.1155,,,,,,,,,,,,,,,,,,,,,,61020c152715b970291062db,610367acb30e8eca97f09957,2021-07-29_19h45.31.738,Simcolourproject_2stim_asymm_v5,2020.2.10,MacIntel,60,61025ae37ef11b136ea224fe,,,,,,,,,2186,77.296875,39.8671875,1,0,0,response1disk,,6,-2.27734375,6.0546875,1,0,0,rectangle,-2.27734375,6.0546875,1,0,0,-2.27734375,6.0546875,1,0,0,1,61,221,0,1,,,,,,,,
,,,,,,,,,,,,,FF,,,,,,,,2.3835,,,,,,,,,,,,,,,,,,,,,,61020c152715b970291062db,610367acb30e8eca97f09957,2021-07-29_19h45.31.738,Simcolourproject_2stim_asymm_v5,2020.2.10,MacIntel,60,61025ae37ef11b136ea224fe,,,,,,,,,12,56.73046875,25.06640625,1,0,0,response1disk,,6,-5.3984375,3.46484375,1,0,0,rectangle,-5.3984375,3.46484375,1,0,0,-5.3984375,3.46484375,1,0,0,1,62,222,27,1,,,,,,,,
,,,,,,,,,,,,,FF,,,,,,,,0.6837,,,,,,,,,,,,,,,,,,,,,,61020c152715b970291062db,610367acb30e8eca97f09957,2021-07-29_19h45.31.738,Simcolourproject_2stim_asymm_v5,2020.2.10,MacIntel,60,61025ae37ef11b136ea224fe,,,,,,,,,1711,39.13671875,50.5390625,1,0,0,response1disk,,7,5.67578125,-5.00390625,1,0,0,rectangle,5.67578125,-5.00390625,1,0,0,5.67578125,-5.00390625,1,0,0,1,63,223,59,1,,,,,,,,
,,,,,,,,,,,,,FF,,,,,,,,1.9832,,,,,,,,,,,,,,,,,,,,,,61020c152715b970291062db,610367acb30e8eca97f09957,2021-07-29_19h45.31.738,Simcolourproject_2stim_asymm_v5,2020.2.10,MacIntel,60,61025ae37ef11b136ea224fe,,,,,,,,,338,80.91015625,30.60546875,1,0,0,response1disk,,6,23.3203125,14.01171875,1,0,0,rectangle,23.3203125,14.01171875,1,0,0,23.3203125,14.01171875,1,0,0,1,64,224,139,1,,,,,,,,
,,,,,,,,,,,,,FF,,,,,,,,0.6503,,,,,,,,,,,,,,,,,,,,,,61020c152715b970291062db,610367acb30e8eca97f09957,2021-07-29_19h45.31.738,Simcolourproject_2stim_asymm_v5,2020.2.10,MacIntel,60,61025ae37ef11b136ea224fe,,,,,,,,,1246,26.328125,62.08984375,1,0,0,response1disk,,7,13.18359375,13.57421875,1,0,0,rectangle,13.18359375,13.57421875,1,0,0,13.18359375,13.57421875,1,0,0,1,65,225,75,1,,,,,,,,
,,,,,,,,,,,,,FF,,,,,,,,1.15,,,,,,,,,,,,,,,,,,,,,,61020c152715b970291062db,610367acb30e8eca97f09957,2021-07-29_19h45.31.738,Simcolourproject_2stim_asymm_v5,2020.2.10,MacIntel,60,61025ae37ef11b136ea224fe,,,,,,,,,137,31.60546875,62.8046875,1,0,0,response1disk,,7,4.9765625,2.84765625,1,0,0,rectangle,4.9765625,2.84765625,1,0,0,4.9765625,2.84765625,1,0,0,1,66,226,123,1,,,,,,,,
,,,,,,,,,,,,,FF,,,,,,,,1.4006,,,,,,,,,,,,,,,,,,,,,,61020c152715b970291062db,610367acb30e8eca97f09957,2021-07-29_19h45.31.738,Simcolourproject_2stim_asymm_v5,2020.2.10,MacIntel,60,61025ae37ef11b136ea224fe,,,,,,,,,955,65.04296875,-29.76171875,1,0,0,response3disk,,5,-14.05078125,-9.375,1,0,0,rectangle,-14.05078125,-9.375,1,0,0,-14.05078125,-9.375,1,0,0,1,67,227,148,1,,,,,,,,
,,,,,,,,,,,,,FF,,,,,,,,0.9179,,,,,,,,,,,,,,,,,,,,,,61020c152715b970291062db,610367acb30e8eca97f09957,2021-07-29_19h45.31.738,Simcolourproject_2stim_asymm_v5,2020.2.10,MacIntel,60,61025ae37ef11b136ea224fe,,,,,,,,,3654,31.05078125,52.84765625,1,0,0,response1disk,,7,3.76953125,7.40625,1,0,0,rectangle,3.76953125,7.40625,1,0,0,3.76953125,7.40625,1,0,0,1,68,228,69,1,,,,,,,,
,,,,,,,,,,,,,FF,,,,,,,,1.4164,,,,,,,,,,,,,,,,,,,,,,61020c152715b970291062db,610367acb30e8eca97f09957,2021-07-29_19h45.31.738,Simcolourproject_2stim_asymm_v5,2020.2.10,MacIntel,60,61025ae37ef11b136ea224fe,,,,,,,,,786,48.27734375,-40.3046875,1,0,0,response3disk,,5,-14.8515625,1.125,1,0,0,rectangle,-14.8515625,1.125,1,0,0,-14.8515625,1.125,1,0,0,1,69,229,150,1,,,,,,,,
,,,,,,,,,,,,,FF,,,,,,,,1.7498,,,,,,,,,,,,,,,,,,,,,,61020c152715b970291062db,610367acb30e8eca97f09957,2021-07-29_19h45.31.738,Simcolourproject_2stim_asymm_v5,2020.2.10,MacIntel,60,61025ae37ef11b136ea224fe,,,,,,,,,2242,38.7734375,-28.359375,1,0,0,response3disk,,5,11.2890625,-12.6640625,1,0,0,rectangle,11.2890625,-12.6640625,1,0,0,11.2890625,-12.6640625,1,0,0,1,70,230,4,1,,,,,,,,
,,,,,,,,,,,,,FF,,,,,,,,1.5003,,,,,,,,,,,,,,,,,,,,,,61020c152715b970291062db,610367acb30e8eca97f09957,2021-07-29_19h45.31.738,Simcolourproject_2stim_asymm_v5,2020.2.10,MacIntel,60,61025ae37ef11b136ea224fe,,,,,,,,,3630,-48.16796875,33.1015625,1,0,0,response7disk,,1,13.71484375,-3.7109375,1,0,0,rectangle,13.71484375,-3.7109375,1,0,0,13.71484375,-3.7109375,1,0,0,1,71,231,126,1,,,,,,,,
,,,,,,,,,,,,,FF,,,,,,,,1.5829,,,,,,,,,,,,,,,,,,,,,,61020c152715b970291062db,610367acb30e8eca97f09957,2021-07-29_19h45.31.738,Simcolourproject_2stim_asymm_v5,2020.2.10,MacIntel,60,61025ae37ef11b136ea224fe,,,,,,,,,3751,28.49609375,-61.60546875,1,0,0,response3disk,,4,12.4609375,-14.89453125,1,0,0,rectangle,12.4609375,-14.89453125,1,0,0,12.4609375,-14.89453125,1,0,0,1,72,232,16,1,,,,,,,,
,,,,,,,,,,,,,FF,,,,,,,,0.7824,,,,,,,,,,,,,,,,,,,,,,61020c152715b970291062db,610367acb30e8eca97f09957,2021-07-29_19h45.31.738,Simcolourproject_2stim_asymm_v5,2020.2.10,MacIntel,60,61025ae37ef11b136ea224fe,,,,,,,,,2135,32.46484375,47.7890625,1,0,0,response1disk,,7,4.77734375,-7.2109375,1,0,0,rectangle,4.77734375,-7.2109375,1,0,0,4.77734375,-7.2109375,1,0,0,1,73,233,141,1,,,,,,,,
,,,,,,,,,,,,,FF,,,,,,,,0.7833,,,,,,,,,,,,,,,,,,,,,,61020c152715b970291062db,610367acb30e8eca97f09957,2021-07-29_19h45.31.738,Simcolourproject_2stim_asymm_v5,2020.2.10,MacIntel,60,61025ae37ef11b136ea224fe,,,,,,,,,503,27.671875,51.48046875,1,0,0,response1disk,,7,8.09765625,1.4296875,1,0,0,rectangle,8.09765625,1.4296875,1,0,0,8.09765625,1.4296875,1,0,0,1,74,234,38,1,,,,,,,,
,,,,,,,,,,,,,FF,,,,,,,,2.0329,,,,,,,,,,,,,,,,,,,,,,61020c152715b970291062db,610367acb30e8eca97f09957,2021-07-29_19h45.31.738,Simcolourproject_2stim_asymm_v5,2020.2.10,MacIntel,60,61025ae37ef11b136ea224fe,,,,,,,,,1607,67.7109375,-45.8671875,1,0,0,response3disk,,5,0.87890625,-15.00390625,1,0,0,rectangle,0.87890625,-15.00390625,1,0,0,0.87890625,-15.00390625,1,0,0,1,75,235,41,1,,,,,,,,
,,,,,,,,,,,,,FF,,,,,,,,1.7321,,,,,,,,,,,,,,,,,,,,,,61020c152715b970291062db,610367acb30e8eca97f09957,2021-07-29_19h45.31.738,Simcolourproject_2stim_asymm_v5,2020.2.10,MacIntel,60,61025ae37ef11b136ea224fe,,,,,,,,,2668,34.49609375,-58.01953125,1,0,0,response3disk,,4,18.76953125,-11.65234375,1,0,0,rectangle,18.76953125,-11.65234375,1,0,0,18.76953125,-11.65234375,1,0,0,1,76,236,86,1,,,,,,,,
,,,,,,,,,,,,,FF,,,,,,,,0.95,,,,,,,,,,,,,,,,,,,,,,61020c152715b970291062db,610367acb30e8eca97f09957,2021-07-29_19h45.31.738,Simcolourproject_2stim_asymm_v5,2020.2.10,MacIntel,60,61025ae37ef11b136ea224fe,,,,,,,,,2180,52.8984375,26.69140625,1,0,0,response1disk,,6,2.6640625,0.90625,1,0,0,rectangle,2.6640625,0.90625,1,0,0,2.6640625,0.90625,1,0,0,1,77,237,82,1,,,,,,,,
,,,,,,,,,,,,,FF,,,,,,,,2.8166,,,,,,,,,,,,,,,,,,,,,,61020c152715b970291062db,610367acb30e8eca97f09957,2021-07-29_19h45.31.738,Simcolourproject_2stim_asymm_v5,2020.2.10,MacIntel,60,61025ae37ef11b136ea224fe,,,,,,,,,2720,-38.47265625,-72.70703125,1,0,0,response5disk,,3,-2.45703125,-2.63671875,1,0,0,rectangle,66.88671875,30.09765625,1,0,0,7.73828125,-6.90625,1,0,0,1,78,238,78,1,,response1disk_3,TRUE,6,6,"[148,6,84,287,51,312,123,11,239,83,184,291,45,151,255,298,34,82,100,195]",1.2011,rectangle
,,,,,,,,,,,,,FF,,,,,,,,2.9829,,,,,,,,,,,,,,,,,,,,,,61020c152715b970291062db,610367acb30e8eca97f09957,2021-07-29_19h45.31.738,Simcolourproject_2stim_asymm_v5,2020.2.10,MacIntel,60,61025ae37ef11b136ea224fe,,,,,,,,,4267,-22.515625,-60.1640625,1,0,0,response5disk,,3,10.76171875,-0.94921875,1,0,0,rectangle,10.76171875,-0.94921875,1,0,0,10.76171875,-0.94921875,1,0,0,1,79,239,8,1,,,,,,,,
,,,,,,,,,,,,,FF,,,,,,,,1.4335,,,,,,,,,,,,,,,,,,,,,,61020c152715b970291062db,610367acb30e8eca97f09957,2021-07-29_19h45.31.738,Simcolourproject_2stim_asymm_v5,2020.2.10,MacIntel,60,61025ae37ef11b136ea224fe,,,,,,,,,3996,-32.1171875,-54.5,1,0,0,response5disk,,3,-14.3125,-14.80859375,1,0,0,rectangle,-14.3125,-14.80859375,1,0,0,-14.3125,-14.80859375,1,0,0,1,80,240,79,1,,,,,,,,
,,,,,,,,,,,,,FF,,,,,,,,0.6667,,,,,,,,,,,,,,,,,,,,,,61020c152715b970291062db,610367acb30e8eca97f09957,2021-07-29_19h45.31.738,Simcolourproject_2stim_asymm_v5,2020.2.10,MacIntel,60,61025ae37ef11b136ea224fe,,,,,,,,,1869,35.015625,70.41015625,1,0,0,response1disk,,7,1.34765625,0.41015625,1,0,0,rectangle,1.34765625,0.41015625,1,0,0,1.34765625,0.41015625,1,0,0,1,81,241,15,1,,,,,,,,
,,,,,,,,,,,,,FF,,,,,,,,2.3497,,,,,,,,,,,,,,,,,,,,,,61020c152715b970291062db,610367acb30e8eca97f09957,2021-07-29_19h45.31.738,Simcolourproject_2stim_asymm_v5,2020.2.10,MacIntel,60,61025ae37ef11b136ea224fe,,,,,,,,,253,-27.50390625,-57.328125,1,0,0,response5disk,,3,2.51171875,-6.8828125,1,0,0,rectangle,2.51171875,-6.8828125,1,0,0,2.51171875,-6.8828125,1,0,0,1,82,242,96,1,,,,,,,,
,,,,,,,,,,,,,FF,,,,,,,,0.5992,,,,,,,,,,,,,,,,,,,,,,61020c152715b970291062db,610367acb30e8eca97f09957,2021-07-29_19h45.31.738,Simcolourproject_2stim_asymm_v5,2020.2.10,MacIntel,60,61025ae37ef11b136ea224fe,,,,,,,,,2579,35.83984375,66.7734375,1,0,0,response1disk,,7,5.47265625,1.484375,1,0,0,rectangle,5.47265625,1.484375,1,0,0,5.47265625,1.484375,1,0,0,1,83,243,100,1,,,,,,,,
,,,,,,,,,,,,,FF,,,,,,,,2.2006,,,,,,,,,,,,,,,,,,,,,,61020c152715b970291062db,610367acb30e8eca97f09957,2021-07-29_19h45.31.738,Simcolourproject_2stim_asymm_v5,2020.2.10,MacIntel,60,61025ae37ef11b136ea224fe,,,,,,,,,1879,54.421875,35.9921875,1,0,0,response1disk,,6,11.80859375,15.25390625,1,0,0,rectangle,11.80859375,15.25390625,1,0,0,11.80859375,15.25390625,1,0,0,1,84,244,128,1,,,,,,,,
,,,,,,,,,,,,,FF,,,,,,,,1.4332,,,,,,,,,,,,,,,,,,,,,,61020c152715b970291062db,610367acb30e8eca97f09957,2021-07-29_19h45.31.738,Simcolourproject_2stim_asymm_v5,2020.2.10,MacIntel,60,61025ae37ef11b136ea224fe,,,,,,,,,655,37.1796875,27.24609375,1,0,0,response1disk,,6,7.15234375,6.34765625,1,0,0,rectangle,7.15234375,6.34765625,1,0,0,7.15234375,6.34765625,1,0,0,1,85,245,36,1,,,,,,,,
,,,,,,,,,,,,,FF,,,,,,,,1.6831,,,,,,,,,,,,,,,,,,,,,,61020c152715b970291062db,610367acb30e8eca97f09957,2021-07-29_19h45.31.738,Simcolourproject_2stim_asymm_v5,2020.2.10,MacIntel,60,61025ae37ef11b136ea224fe,,,,,,,,,4227,27.34375,47.44921875,1,0,0,response1disk,,7,0.69921875,9.53125,1,0,0,rectangle,0.69921875,9.53125,1,0,0,0.69921875,9.53125,1,0,0,1,86,246,122,1,,,,,,,,
,,,,,,,,,,,,,FF,,,,,,,,0.5156,,,,,,,,,,,,,,,,,,,,,,61020c152715b970291062db,610367acb30e8eca97f09957,2021-07-29_19h45.31.738,Simcolourproject_2stim_asymm_v5,2020.2.10,MacIntel,60,61025ae37ef11b136ea224fe,,,,,,,,,3224,28.82421875,51.8671875,1,0,0,response1disk,,7,12.078125,2.44921875,1,0,0,rectangle,12.078125,2.44921875,1,0,0,12.078125,2.44921875,1,0,0,1,87,247,121,1,,,,,,,,
,,,,,,,,,,,,,FF,,,,,,,,1.5335,,,,,,,,,,,,,,,,,,,,,,61020c152715b970291062db,610367acb30e8eca97f09957,2021-07-29_19h45.31.738,Simcolourproject_2stim_asymm_v5,2020.2.10,MacIntel,60,61025ae37ef11b136ea224fe,,,,,,,,,3745,58.03125,26.92578125,1,0,0,response1disk,,6,16.67578125,8.20703125,1,0,0,rectangle,16.67578125,8.20703125,1,0,0,16.67578125,8.20703125,1,0,0,1,88,248,6,1,,,,,,,,
