key_resp.keys,key_resp.rt,key_resp_14.keys,key_resp_14.rt,key_resp_15.keys,key_resp_15.rt,key_resp_17.keys,key_resp_17.rt,key_resp_9.keys,key_resp_9.rt,key_resp_10.keys,key_resp_10.rt,practice_comparison,Ecc,mouse_5.x,mouse_5.y,mouse_5.leftButton,mouse_5.midButton,mouse_5.rightButton,mouse_5.clicked_name,pracsimilarity,response_time,mouse_10.x,mouse_10.y,mouse_10.leftButton,mouse_10.midButton,mouse_10.rightButton,mouse_10.clicked_name,mouse_7.x,mouse_7.y,mouse_7.leftButton,mouse_7.midButton,mouse_7.rightButton,mouse_6.x,mouse_6.y,mouse_6.leftButton,mouse_6.midButton,mouse_6.rightButton,duringprac.thisRepN,duringprac.thisTrialN,duringprac.thisN,duringprac.thisIndex,duringprac.ran,participant,session,date,expName,psychopyVersion,OS,frameRate,study_id,mouse_7.clicked_name,catchpracsimilarity,catch_response_time,catchnumberprac,catchtrialorderprac,mouse_6.clicked_name,key_resp_22.keys,key_resp_22.rt,realcomparison,mouse.x,mouse.y,mouse.leftButton,mouse.midButton,mouse.rightButton,mouse.clicked_name,Colour2,similarity,mouse_2.x,mouse_2.y,mouse_2.leftButton,mouse_2.midButton,mouse_2.rightButton,mouse_2.clicked_name,mouse_3.x,mouse_3.y,mouse_3.leftButton,mouse_3.midButton,mouse_3.rightButton,mouse_11.x,mouse_11.y,mouse_11.leftButton,mouse_11.midButton,mouse_11.rightButton,trials_2.thisRepN,trials_2.thisTrialN,trials_2.thisN,trials_2.thisIndex,trials_2.ran,Colour1,mouse_3.clicked_name,catchornah,catchsimilarity,catchnumber,catchtrialorder,catchRT,mouse_11.clicked_name
space,1.91751,space,11.21306,space,20.983155,space,18.784625,space,1.37485,space,4.3979,8,PF,40.265625,-94.0234375,1,0,0,response3disk_5,4,5.33405,3.484375,-7.5078125,1,0,0,rectangle_8,3.484375,-7.5078125,1,0,0,3.484375,-7.5078125,1,0,0,0,0,0,4,1,6102195038f3ffcb73225853,61036e15010ff41eda27ab20,2021-07-29_23h13.03.414,Simcolourproject_2stim_asymm_v5,2020.2.10,MacIntel,60,61025ae37ef11b136ea224fe,,,,,,,,,,,,,,,,,,,,,,,,,,,,,,,,,,,,,,,,,,,,,,
,,,,,,,,,,,,28,FF,66.26171875,-53.32421875,1,0,0,response3disk_5,5,2.085065,2.50390625,-0.19140625,1,0,0,rectangle_8,87.2578125,-50.16796875,1,0,0,3.3828125,1.75,1,0,0,0,1,1,3,1,6102195038f3ffcb73225853,61036e15010ff41eda27ab20,2021-07-29_23h13.03.414,Simcolourproject_2stim_asymm_v5,2020.2.10,MacIntel,60,61025ae37ef11b136ea224fe,response3disk_7,5,2.150615,5,"[2,5]",rectangle_4,,,,,,,,,,,,,,,,,,,,,,,,,,,,,,,,,,,,,,,,
,,,,,,,,,,,,41,PF,94.6640625,56.96484375,1,0,0,response1disk_5,6,5.96625,-5.54296875,-7.453125,1,0,0,rectangle_8,-5.54296875,-7.453125,1,0,0,-5.54296875,-7.453125,1,0,0,0,2,2,1,1,6102195038f3ffcb73225853,61036e15010ff41eda27ab20,2021-07-29_23h13.03.414,Simcolourproject_2stim_asymm_v5,2020.2.10,MacIntel,60,61025ae37ef11b136ea224fe,,,,,,,,,,,,,,,,,,,,,,,,,,,,,,,,,,,,,,,,,,,,,,
,,,,,,,,,,,,126,PF,25.73046875,48.6640625,1,0,0,response1disk_5,7,1.311725,0.83984375,-1.55078125,1,0,0,rectangle_8,0.83984375,-1.55078125,1,0,0,0.83984375,-1.55078125,1,0,0,0,3,3,2,1,6102195038f3ffcb73225853,61036e15010ff41eda27ab20,2021-07-29_23h13.03.414,Simcolourproject_2stim_asymm_v5,2020.2.10,MacIntel,60,61025ae37ef11b136ea224fe,,,,,,,,,,,,,,,,,,,,,,,,,,,,,,,,,,,,,,,,,,,,,,
,,,,,,,,,,,,15,FF,-61.76953125,-44.26171875,1,0,0,response5disk_5,2,1.51614,10.9375,-7.91015625,1,0,0,rectangle_8,99.69921875,-55.91796875,1,0,0,19.32421875,1.65625,1,0,0,0,4,4,5,1,6102195038f3ffcb73225853,61036e15010ff41eda27ab20,2021-07-29_23h13.03.414,Simcolourproject_2stim_asymm_v5,2020.2.10,MacIntel,60,61025ae37ef11b136ea224fe,response3disk_7,5,1.49941,5,"[2,5]",rectangle_4,,,,,,,,,,,,,,,,,,,,,,,,,,,,,,,,,,,,,,,,
,,,,,,,,,,,,136,PF,-32.93359375,61.9140625,1,0,0,response7disk_5,0,2.133385,-6.65234375,-5.20703125,1,0,0,rectangle_8,-6.65234375,-5.20703125,1,0,0,-6.65234375,-5.20703125,1,0,0,0,5,5,6,1,6102195038f3ffcb73225853,61036e15010ff41eda27ab20,2021-07-29_23h13.03.414,Simcolourproject_2stim_asymm_v5,2020.2.10,MacIntel,60,61025ae37ef11b136ea224fe,,,,,,,,,,,,,,,,,,,,,,,,,,,,,,,,,,,,,,,,,,,,,,
,,,,,,,,,,,,37,FF,-50.15625,-58.71875,1,0,0,response5disk_5,3,26.30144,7.5625,-9.4765625,1,0,0,rectangle_8,7.5625,-9.4765625,1,0,0,7.5625,-9.4765625,1,0,0,0,6,6,0,1,6102195038f3ffcb73225853,61036e15010ff41eda27ab20,2021-07-29_23h13.03.414,Simcolourproject_2stim_asymm_v5,2020.2.10,MacIntel,60,61025ae37ef11b136ea224fe,,,,,,,,,,,,,,,,,,,,,,,,,,,,,,,,,,,,,,,,,,,,,,
,,,,,,,,,,,,,FF,,,,,,,,1.901175,,,,,,,,,,,,,,,,,,,,,,6102195038f3ffcb73225853,61036e15010ff41eda27ab20,2021-07-29_23h13.03.414,Simcolourproject_2stim_asymm_v5,2020.2.10,MacIntel,60,61025ae37ef11b136ea224fe,,,,,,,space,1.776995,1127,77.94921875,-39.25390625,1,0,0,response3disk,,5,17.1953125,-0.86328125,1,0,0,rectangle,17.1953125,-0.86328125,1,0,0,17.1953125,-0.86328125,1,0,0,0,0,0,120,1,,,,,,,,
,,,,,,,,,,,,,FF,,,,,,,,3.386245,,,,,,,,,,,,,,,,,,,,,,6102195038f3ffcb73225853,61036e15010ff41eda27ab20,2021-07-29_23h13.03.414,Simcolourproject_2stim_asymm_v5,2020.2.10,MacIntel,60,61025ae37ef11b136ea224fe,,,,,,,,,930,-42.3046875,-61.14453125,1,0,0,response5disk,,3,-12.3828125,-10.1640625,1,0,0,rectangle,-12.3828125,-10.1640625,1,0,0,-12.3828125,-10.1640625,1,0,0,0,1,1,150,1,,,,,,,,
,,,,,,,,,,,,,FF,,,,,,,,6.232715,,,,,,,,,,,,,,,,,,,,,,6102195038f3ffcb73225853,61036e15010ff41eda27ab20,2021-07-29_23h13.03.414,Simcolourproject_2stim_asymm_v5,2020.2.10,MacIntel,60,61025ae37ef11b136ea224fe,,,,,,,,,4005,46.9609375,-98.7109375,1,0,0,response3disk,,4,-3.4296875,-9.12890625,1,0,0,rectangle,-3.4296875,-9.12890625,1,0,0,-3.4296875,-9.12890625,1,0,0,0,2,2,132,1,,,,,,,,
,,,,,,,,,,,,,FF,,,,,,,,5.16707,,,,,,,,,,,,,,,,,,,,,,6102195038f3ffcb73225853,61036e15010ff41eda27ab20,2021-07-29_23h13.03.414,Simcolourproject_2stim_asymm_v5,2020.2.10,MacIntel,60,61025ae37ef11b136ea224fe,,,,,,,,,4241,-33.67578125,-58.1328125,1,0,0,response5disk,,3,-2.9921875,-6.08203125,1,0,0,rectangle,-2.9921875,-6.08203125,1,0,0,-2.9921875,-6.08203125,1,0,0,0,3,3,104,1,,,,,,,,
,,,,,,,,,,,,,FF,,,,,,,,2.91666,,,,,,,,,,,,,,,,,,,,,,6102195038f3ffcb73225853,61036e15010ff41eda27ab20,2021-07-29_23h13.03.414,Simcolourproject_2stim_asymm_v5,2020.2.10,MacIntel,60,61025ae37ef11b136ea224fe,,,,,,,,,1933,96.5390625,33.67578125,1,0,0,response1disk,,6,8.26171875,5.07421875,1,0,0,rectangle,8.26171875,5.07421875,1,0,0,8.26171875,5.07421875,1,0,0,0,4,4,131,1,,,,,,,,
,,,,,,,,,,,,,FF,,,,,,,,1.96677,,,,,,,,,,,,,,,,,,,,,,6102195038f3ffcb73225853,61036e15010ff41eda27ab20,2021-07-29_23h13.03.414,Simcolourproject_2stim_asymm_v5,2020.2.10,MacIntel,60,61025ae37ef11b136ea224fe,,,,,,,,,1802,69.484375,27.30859375,1,0,0,response1disk,,6,-1.85546875,-1.75390625,1,0,0,rectangle,-1.85546875,-1.75390625,1,0,0,-1.85546875,-1.75390625,1,0,0,0,5,5,56,1,,,,,,,,
,,,,,,,,,,,,,FF,,,,,,,,1.850735,,,,,,,,,,,,,,,,,,,,,,6102195038f3ffcb73225853,61036e15010ff41eda27ab20,2021-07-29_23h13.03.414,Simcolourproject_2stim_asymm_v5,2020.2.10,MacIntel,60,61025ae37ef11b136ea224fe,,,,,,,,,717,-54.9609375,28.65234375,1,0,0,response7disk,,1,-3.91015625,-2.6796875,1,0,0,rectangle,-3.91015625,-2.6796875,1,0,0,-3.91015625,-2.6796875,1,0,0,0,6,6,53,1,,,,,,,,
,,,,,,,,,,,,,FF,,,,,,,,1.56761,,,,,,,,,,,,,,,,,,,,,,6102195038f3ffcb73225853,61036e15010ff41eda27ab20,2021-07-29_23h13.03.414,Simcolourproject_2stim_asymm_v5,2020.2.10,MacIntel,60,61025ae37ef11b136ea224fe,,,,,,,,,878,93.53125,35.26953125,1,0,0,response1disk,,6,10.8359375,-10.15625,1,0,0,rectangle,10.8359375,-10.15625,1,0,0,10.8359375,-10.15625,1,0,0,0,7,7,98,1,,,,,,,,
,,,,,,,,,,,,,FF,,,,,,,,3.183925,,,,,,,,,,,,,,,,,,,,,,6102195038f3ffcb73225853,61036e15010ff41eda27ab20,2021-07-29_23h13.03.414,Simcolourproject_2stim_asymm_v5,2020.2.10,MacIntel,60,61025ae37ef11b136ea224fe,,,,,,,,,1836,-39.8515625,-73.56640625,1,0,0,response5disk,,3,-1.08984375,-11.45703125,1,0,0,rectangle,-1.08984375,-11.45703125,1,0,0,-1.08984375,-11.45703125,1,0,0,0,8,8,145,1,,,,,,,,
,,,,,,,,,,,,,FF,,,,,,,,3.533365,,,,,,,,,,,,,,,,,,,,,,6102195038f3ffcb73225853,61036e15010ff41eda27ab20,2021-07-29_23h13.03.414,Simcolourproject_2stim_asymm_v5,2020.2.10,MacIntel,60,61025ae37ef11b136ea224fe,,,,,,,,,4321,88.4609375,60.0546875,1,0,0,response1disk,,6,4.21484375,-4.46875,1,0,0,rectangle,4.21484375,-4.46875,1,0,0,4.21484375,-4.46875,1,0,0,0,9,9,36,1,,,,,,,,
,,,,,,,,,,,,,FF,,,,,,,,1.80009,,,,,,,,,,,,,,,,,,,,,,6102195038f3ffcb73225853,61036e15010ff41eda27ab20,2021-07-29_23h13.03.414,Simcolourproject_2stim_asymm_v5,2020.2.10,MacIntel,60,61025ae37ef11b136ea224fe,,,,,,,,,1901,-81.05078125,-33.4140625,1,0,0,response5disk,,2,7.74609375,-7.14453125,1,0,0,rectangle,7.74609375,-7.14453125,1,0,0,7.74609375,-7.14453125,1,0,0,0,10,10,59,1,,,,,,,,
,,,,,,,,,,,,,FF,,,,,,,,4.4005,,,,,,,,,,,,,,,,,,,,,,6102195038f3ffcb73225853,61036e15010ff41eda27ab20,2021-07-29_23h13.03.414,Simcolourproject_2stim_asymm_v5,2020.2.10,MacIntel,60,61025ae37ef11b136ea224fe,,,,,,,,,337,34.64453125,-77.58203125,1,0,0,response3disk,,4,14.3515625,-0.9375,1,0,0,rectangle,14.3515625,-0.9375,1,0,0,14.3515625,-0.9375,1,0,0,0,11,11,23,1,,,,,,,,
,,,,,,,,,,,,,FF,,,,,,,,2.69947,,,,,,,,,,,,,,,,,,,,,,6102195038f3ffcb73225853,61036e15010ff41eda27ab20,2021-07-29_23h13.03.414,Simcolourproject_2stim_asymm_v5,2020.2.10,MacIntel,60,61025ae37ef11b136ea224fe,,,,,,,,,4217,70.62109375,54.1171875,1,0,0,response1disk,,6,7.44921875,-8.53125,1,0,0,rectangle,7.44921875,-8.53125,1,0,0,7.44921875,-8.53125,1,0,0,0,12,12,139,1,,,,,,,,
,,,,,,,,,,,,,FF,,,,,,,,3.51787,,,,,,,,,,,,,,,,,,,,,,6102195038f3ffcb73225853,61036e15010ff41eda27ab20,2021-07-29_23h13.03.414,Simcolourproject_2stim_asymm_v5,2020.2.10,MacIntel,60,61025ae37ef11b136ea224fe,,,,,,,,,3365,-36.484375,-59.359375,1,0,0,response5disk,,3,-4.49609375,-5.25,1,0,0,rectangle,-4.49609375,-5.25,1,0,0,-4.49609375,-5.25,1,0,0,0,13,13,70,1,,,,,,,,
,,,,,,,,,,,,,FF,,,,,,,,1.950595,,,,,,,,,,,,,,,,,,,,,,6102195038f3ffcb73225853,61036e15010ff41eda27ab20,2021-07-29_23h13.03.414,Simcolourproject_2stim_asymm_v5,2020.2.10,MacIntel,60,61025ae37ef11b136ea224fe,,,,,,,,,49,49.56640625,-80.26171875,1,0,0,response3disk,,4,35.14453125,-15.19140625,1,0,0,rectangle,35.14453125,-15.19140625,1,0,0,35.14453125,-15.19140625,1,0,0,0,14,14,87,1,,,,,,,,
,,,,,,,,,,,,,FF,,,,,,,,3.5657,,,,,,,,,,,,,,,,,,,,,,6102195038f3ffcb73225853,61036e15010ff41eda27ab20,2021-07-29_23h13.03.414,Simcolourproject_2stim_asymm_v5,2020.2.10,MacIntel,60,61025ae37ef11b136ea224fe,,,,,,,,,2999,-71.0859375,25.65234375,1,0,0,response7disk,,1,3.29296875,13.3828125,1,0,0,rectangle,3.29296875,13.3828125,1,0,0,3.29296875,13.3828125,1,0,0,0,15,15,152,1,,,,,,,,
,,,,,,,,,,,,,FF,,,,,,,,4.950005,,,,,,,,,,,,,,,,,,,,,,6102195038f3ffcb73225853,61036e15010ff41eda27ab20,2021-07-29_23h13.03.414,Simcolourproject_2stim_asymm_v5,2020.2.10,MacIntel,60,61025ae37ef11b136ea224fe,,,,,,,,,2194,77.671875,-52.87890625,1,0,0,response3disk,,5,-15.74609375,-1.15234375,1,0,0,rectangle,-15.74609375,-1.15234375,1,0,0,-15.74609375,-1.15234375,1,0,0,0,16,16,122,1,,,,,,,,
,,,,,,,,,,,,,FF,,,,,,,,12.885595,,,,,,,,,,,,,,,,,,,,,,6102195038f3ffcb73225853,61036e15010ff41eda27ab20,2021-07-29_23h13.03.414,Simcolourproject_2stim_asymm_v5,2020.2.10,MacIntel,60,61025ae37ef11b136ea224fe,,,,,,,,,3078,93.4375,30.94140625,1,0,0,response1disk,,6,-1.140625,1.40234375,1,0,0,rectangle,-1.140625,1.40234375,1,0,0,-1.140625,1.40234375,1,0,0,0,17,17,12,1,,,,,,,,
,,,,,,,,,,,,,FF,,,,,,,,2.61743,,,,,,,,,,,,,,,,,,,,,,6102195038f3ffcb73225853,61036e15010ff41eda27ab20,2021-07-29_23h13.03.414,Simcolourproject_2stim_asymm_v5,2020.2.10,MacIntel,60,61025ae37ef11b136ea224fe,,,,,,,,,2615,-72.10546875,-53.875,1,0,0,response5disk,,2,-1.63671875,9.10546875,1,0,0,rectangle,-1.63671875,9.10546875,1,0,0,-1.63671875,9.10546875,1,0,0,0,18,18,4,1,,,,,,,,
,,,,,,,,,,,,,FF,,,,,,,,1.733575,,,,,,,,,,,,,,,,,,,,,,6102195038f3ffcb73225853,61036e15010ff41eda27ab20,2021-07-29_23h13.03.414,Simcolourproject_2stim_asymm_v5,2020.2.10,MacIntel,60,61025ae37ef11b136ea224fe,,,,,,,,,2420,-59.75390625,27.57421875,1,0,0,response7disk,,1,-6.5,-0.02734375,1,0,0,rectangle,-6.5,-0.02734375,1,0,0,-6.5,-0.02734375,1,0,0,0,19,19,2,1,,,,,,,,
,,,,,,,,,,,,,FF,,,,,,,,2.58221,,,,,,,,,,,,,,,,,,,,,,6102195038f3ffcb73225853,61036e15010ff41eda27ab20,2021-07-29_23h13.03.414,Simcolourproject_2stim_asymm_v5,2020.2.10,MacIntel,60,61025ae37ef11b136ea224fe,,,,,,,,,2661,-40.21484375,-75.30078125,1,0,0,response5disk,,3,2.25390625,-12.74609375,1,0,0,rectangle,2.25390625,-12.74609375,1,0,0,2.25390625,-12.74609375,1,0,0,0,20,20,101,1,,,,,,,,
,,,,,,,,,,,,,FF,,,,,,,,1.799705,,,,,,,,,,,,,,,,,,,,,,6102195038f3ffcb73225853,61036e15010ff41eda27ab20,2021-07-29_23h13.03.414,Simcolourproject_2stim_asymm_v5,2020.2.10,MacIntel,60,61025ae37ef11b136ea224fe,,,,,,,,,1534,53.78515625,-78.63671875,1,0,0,response3disk,,4,6.01953125,-7.5078125,1,0,0,rectangle,6.01953125,-7.5078125,1,0,0,6.01953125,-7.5078125,1,0,0,0,21,21,115,1,,,,,,,,
,,,,,,,,,,,,,FF,,,,,,,,4.26631,,,,,,,,,,,,,,,,,,,,,,6102195038f3ffcb73225853,61036e15010ff41eda27ab20,2021-07-29_23h13.03.414,Simcolourproject_2stim_asymm_v5,2020.2.10,MacIntel,60,61025ae37ef11b136ea224fe,,,,,,,,,3110,-36.828125,-71.21484375,1,0,0,response5disk,,3,-3.73046875,-11.62890625,1,0,0,rectangle,-3.73046875,-11.62890625,1,0,0,-3.73046875,-11.62890625,1,0,0,0,22,22,8,1,,,,,,,,
,,,,,,,,,,,,,FF,,,,,,,,2.083305,,,,,,,,,,,,,,,,,,,,,,6102195038f3ffcb73225853,61036e15010ff41eda27ab20,2021-07-29_23h13.03.414,Simcolourproject_2stim_asymm_v5,2020.2.10,MacIntel,60,61025ae37ef11b136ea224fe,,,,,,,,,365,96.03125,45.4140625,1,0,0,response1disk,,6,35.37890625,9.3359375,1,0,0,rectangle,35.37890625,9.3359375,1,0,0,35.37890625,9.3359375,1,0,0,0,23,23,100,1,,,,,,,,
,,,,,,,,,,,,,FF,,,,,,,,3.399415,,,,,,,,,,,,,,,,,,,,,,6102195038f3ffcb73225853,61036e15010ff41eda27ab20,2021-07-29_23h13.03.414,Simcolourproject_2stim_asymm_v5,2020.2.10,MacIntel,60,61025ae37ef11b136ea224fe,,,,,,,,,3735,-51.84765625,-85.671875,1,0,0,response5disk,,3,18.9609375,6.38671875,1,0,0,rectangle,18.9609375,6.38671875,1,0,0,18.9609375,6.38671875,1,0,0,0,24,24,129,1,,,,,,,,
,,,,,,,,,,,,,FF,,,,,,,,1.484325,,,,,,,,,,,,,,,,,,,,,,6102195038f3ffcb73225853,61036e15010ff41eda27ab20,2021-07-29_23h13.03.414,Simcolourproject_2stim_asymm_v5,2020.2.10,MacIntel,60,61025ae37ef11b136ea224fe,,,,,,,,,2782,-94.265625,-43.26171875,1,0,0,response5disk,,2,-14.4140625,-5.05078125,1,0,0,rectangle,-14.4140625,-5.05078125,1,0,0,-14.4140625,-5.05078125,1,0,0,0,25,25,84,1,,,,,,,,
,,,,,,,,,,,,,FF,,,,,,,,1.80106,,,,,,,,,,,,,,,,,,,,,,6102195038f3ffcb73225853,61036e15010ff41eda27ab20,2021-07-29_23h13.03.414,Simcolourproject_2stim_asymm_v5,2020.2.10,MacIntel,60,61025ae37ef11b136ea224fe,,,,,,,,,598,88.453125,-32.48046875,1,0,0,response3disk,,5,3.38671875,10.3984375,1,0,0,rectangle,3.38671875,10.3984375,1,0,0,3.38671875,10.3984375,1,0,0,0,26,26,124,1,,,,,,,,
,,,,,,,,,,,,,FF,,,,,,,,2.11652,,,,,,,,,,,,,,,,,,,,,,6102195038f3ffcb73225853,61036e15010ff41eda27ab20,2021-07-29_23h13.03.414,Simcolourproject_2stim_asymm_v5,2020.2.10,MacIntel,60,61025ae37ef11b136ea224fe,,,,,,,,,2022,-32.9765625,-63.1171875,1,0,0,response5disk,,3,-2.39453125,-9.0546875,1,0,0,rectangle,-2.39453125,-9.0546875,1,0,0,-2.39453125,-9.0546875,1,0,0,0,27,27,90,1,,,,,,,,
,,,,,,,,,,,,,FF,,,,,,,,2.017115,,,,,,,,,,,,,,,,,,,,,,6102195038f3ffcb73225853,61036e15010ff41eda27ab20,2021-07-29_23h13.03.414,Simcolourproject_2stim_asymm_v5,2020.2.10,MacIntel,60,61025ae37ef11b136ea224fe,,,,,,,,,347,-72.91796875,-47.2265625,1,0,0,response5disk,,2,-11.82421875,1.67578125,1,0,0,rectangle,101.5625,-37.84375,1,0,0,3.0703125,-3.58984375,1,0,0,0,28,28,7,1,,response3disk_3,TRUE,5,5,"[136,299,225,242,179,288,290,256,297,318,101,300,129,221,219,78,225,195,259,29]",2.449155,rectangle
,,,,,,,,,,,,,FF,,,,,,,,2.066855,,,,,,,,,,,,,,,,,,,,,,6102195038f3ffcb73225853,61036e15010ff41eda27ab20,2021-07-29_23h13.03.414,Simcolourproject_2stim_asymm_v5,2020.2.10,MacIntel,60,61025ae37ef11b136ea224fe,,,,,,,,,3189,-81.515625,-28.29296875,1,0,0,response5disk,,2,-10.26171875,-13.77734375,1,0,0,rectangle,-10.26171875,-13.77734375,1,0,0,-10.26171875,-13.77734375,1,0,0,0,29,29,144,1,,,,,,,,
,,,,,,,,,,,,,FF,,,,,,,,0.9418,,,,,,,,,,,,,,,,,,,,,,6102195038f3ffcb73225853,61036e15010ff41eda27ab20,2021-07-29_23h13.03.414,Simcolourproject_2stim_asymm_v5,2020.2.10,MacIntel,60,61025ae37ef11b136ea224fe,,,,,,,,,1243,-80.0078125,-47.25390625,1,0,0,response5disk,,2,-2.6640625,-12.94921875,1,0,0,rectangle,-2.6640625,-12.94921875,1,0,0,-2.6640625,-12.94921875,1,0,0,0,30,30,135,1,,,,,,,,
,,,,,,,,,,,,,FF,,,,,,,,1.000715,,,,,,,,,,,,,,,,,,,,,,6102195038f3ffcb73225853,61036e15010ff41eda27ab20,2021-07-29_23h13.03.414,Simcolourproject_2stim_asymm_v5,2020.2.10,MacIntel,60,61025ae37ef11b136ea224fe,,,,,,,,,1558,68.44921875,-56.625,1,0,0,response3disk,,5,-16.140625,-5.5,1,0,0,rectangle,-16.140625,-5.5,1,0,0,-16.140625,-5.5,1,0,0,0,31,31,102,1,,,,,,,,
,,,,,,,,,,,,,FF,,,,,,,,1.84954,,,,,,,,,,,,,,,,,,,,,,6102195038f3ffcb73225853,61036e15010ff41eda27ab20,2021-07-29_23h13.03.414,Simcolourproject_2stim_asymm_v5,2020.2.10,MacIntel,60,61025ae37ef11b136ea224fe,,,,,,,,,610,-84.0703125,-40.09765625,1,0,0,response5disk,,2,-23.84765625,-0.7890625,1,0,0,rectangle,-23.84765625,-0.7890625,1,0,0,-23.84765625,-0.7890625,1,0,0,0,32,32,151,1,,,,,,,,
,,,,,,,,,,,,,FF,,,,,,,,6.984125,,,,,,,,,,,,,,,,,,,,,,6102195038f3ffcb73225853,61036e15010ff41eda27ab20,2021-07-29_23h13.03.414,Simcolourproject_2stim_asymm_v5,2020.2.10,MacIntel,60,61025ae37ef11b136ea224fe,,,,,,,,,2912,-55.85546875,-24.49609375,1,0,0,response5disk,,2,-7.84375,-3.140625,1,0,0,rectangle,-7.84375,-3.140625,1,0,0,-7.84375,-3.140625,1,0,0,0,33,33,142,1,,,,,,,,
,,,,,,,,,,,,,FF,,,,,,,,4.40033,,,,,,,,,,,,,,,,,,,,,,6102195038f3ffcb73225853,61036e15010ff41eda27ab20,2021-07-29_23h13.03.414,Simcolourproject_2stim_asymm_v5,2020.2.10,MacIntel,60,61025ae37ef11b136ea224fe,,,,,,,,,2282,49.921875,64.55078125,1,0,0,response1disk,,7,-0.90234375,4.2734375,1,0,0,rectangle,-0.90234375,4.2734375,1,0,0,-0.90234375,4.2734375,1,0,0,0,34,34,47,1,,,,,,,,
,,,,,,,,,,,,,FF,,,,,,,,2.16688,,,,,,,,,,,,,,,,,,,,,,6102195038f3ffcb73225853,61036e15010ff41eda27ab20,2021-07-29_23h13.03.414,Simcolourproject_2stim_asymm_v5,2020.2.10,MacIntel,60,61025ae37ef11b136ea224fe,,,,,,,,,3461,-70.22265625,42.03515625,1,0,0,response7disk,,1,-0.9140625,-3.515625,1,0,0,rectangle,-0.9140625,-3.515625,1,0,0,-0.9140625,-3.515625,1,0,0,0,35,35,86,1,,,,,,,,
,,,,,,,,,,,,,FF,,,,,,,,3.46606,,,,,,,,,,,,,,,,,,,,,,6102195038f3ffcb73225853,61036e15010ff41eda27ab20,2021-07-29_23h13.03.414,Simcolourproject_2stim_asymm_v5,2020.2.10,MacIntel,60,61025ae37ef11b136ea224fe,,,,,,,,,4035,-75.25390625,-46.2890625,1,0,0,response5disk,,2,-0.375,8.0234375,1,0,0,rectangle,-0.375,8.0234375,1,0,0,-0.375,8.0234375,1,0,0,0,36,36,126,1,,,,,,,,
,,,,,,,,,,,,,FF,,,,,,,,2.38305,,,,,,,,,,,,,,,,,,,,,,6102195038f3ffcb73225853,61036e15010ff41eda27ab20,2021-07-29_23h13.03.414,Simcolourproject_2stim_asymm_v5,2020.2.10,MacIntel,60,61025ae37ef11b136ea224fe,,,,,,,,,3015,75.67578125,-38.01171875,1,0,0,response3disk,,5,10.21484375,-3.13671875,1,0,0,rectangle,10.21484375,-3.13671875,1,0,0,10.21484375,-3.13671875,1,0,0,0,37,37,33,1,,,,,,,,
,,,,,,,,,,,,,FF,,,,,,,,2.252145,,,,,,,,,,,,,,,,,,,,,,6102195038f3ffcb73225853,61036e15010ff41eda27ab20,2021-07-29_23h13.03.414,Simcolourproject_2stim_asymm_v5,2020.2.10,MacIntel,60,61025ae37ef11b136ea224fe,,,,,,,,,2062,77.23828125,21.359375,1,0,0,response1disk,,6,0.70703125,-8.54296875,1,0,0,rectangle,0.70703125,-8.54296875,1,0,0,0.70703125,-8.54296875,1,0,0,0,38,38,42,1,,,,,,,,
,,,,,,,,,,,,,FF,,,,,,,,1.481835,,,,,,,,,,,,,,,,,,,,,,6102195038f3ffcb73225853,61036e15010ff41eda27ab20,2021-07-29_23h13.03.414,Simcolourproject_2stim_asymm_v5,2020.2.10,MacIntel,60,61025ae37ef11b136ea224fe,,,,,,,,,3994,-81.63671875,42.703125,1,0,0,response7disk,,1,28.4140625,4.4140625,1,0,0,rectangle,28.4140625,4.4140625,1,0,0,28.4140625,4.4140625,1,0,0,0,39,39,78,1,,,,,,,,
,,,,,,,,,,,,,FF,,,,,,,,1.13358,,,,,,,,,,,,,,,,,,,,,,6102195038f3ffcb73225853,61036e15010ff41eda27ab20,2021-07-29_23h13.03.414,Simcolourproject_2stim_asymm_v5,2020.2.10,MacIntel,60,61025ae37ef11b136ea224fe,,,,,,,,,3814,-67.84375,-44.5625,1,0,0,response5disk,,2,-6.5234375,-7.99609375,1,0,0,rectangle,-6.5234375,-7.99609375,1,0,0,-6.5234375,-7.99609375,1,0,0,0,40,40,99,1,,,,,,,,
,,,,,,,,,,,,,FF,,,,,,,,1.01598,,,,,,,,,,,,,,,,,,,,,,6102195038f3ffcb73225853,61036e15010ff41eda27ab20,2021-07-29_23h13.03.414,Simcolourproject_2stim_asymm_v5,2020.2.10,MacIntel,60,61025ae37ef11b136ea224fe,,,,,,,,,1028,70.83203125,-36.0859375,1,0,0,response3disk,,5,-1.10546875,12.0390625,1,0,0,rectangle,-1.10546875,12.0390625,1,0,0,-1.10546875,12.0390625,1,0,0,0,41,41,156,1,,,,,,,,
,,,,,,,,,,,,,FF,,,,,,,,1.39977,,,,,,,,,,,,,,,,,,,,,,6102195038f3ffcb73225853,61036e15010ff41eda27ab20,2021-07-29_23h13.03.414,Simcolourproject_2stim_asymm_v5,2020.2.10,MacIntel,60,61025ae37ef11b136ea224fe,,,,,,,,,1293,-75.80078125,20.2265625,1,0,0,response7disk,,1,-0.15625,4.96484375,1,0,0,rectangle,-0.15625,4.96484375,1,0,0,-0.15625,4.96484375,1,0,0,0,42,42,3,1,,,,,,,,
,,,,,,,,,,,,,FF,,,,,,,,1.1665,,,,,,,,,,,,,,,,,,,,,,6102195038f3ffcb73225853,61036e15010ff41eda27ab20,2021-07-29_23h13.03.414,Simcolourproject_2stim_asymm_v5,2020.2.10,MacIntel,60,61025ae37ef11b136ea224fe,,,,,,,,,2379,34.10546875,-71.2578125,1,0,0,response3disk,,4,-16.640625,7.62890625,1,0,0,rectangle,-16.640625,7.62890625,1,0,0,-16.640625,7.62890625,1,0,0,0,43,43,80,1,,,,,,,,
,,,,,,,,,,,,,FF,,,,,,,,1.83209,,,,,,,,,,,,,,,,,,,,,,6102195038f3ffcb73225853,61036e15010ff41eda27ab20,2021-07-29_23h13.03.414,Simcolourproject_2stim_asymm_v5,2020.2.10,MacIntel,60,61025ae37ef11b136ea224fe,,,,,,,,,829,-59.45703125,-89.49609375,1,0,0,response5disk,,3,7.50390625,-7.35546875,1,0,0,rectangle,7.50390625,-7.35546875,1,0,0,7.50390625,-7.35546875,1,0,0,0,44,44,77,1,,,,,,,,
,,,,,,,,,,,,,FF,,,,,,,,0.88379,,,,,,,,,,,,,,,,,,,,,,6102195038f3ffcb73225853,61036e15010ff41eda27ab20,2021-07-29_23h13.03.414,Simcolourproject_2stim_asymm_v5,2020.2.10,MacIntel,60,61025ae37ef11b136ea224fe,,,,,,,,,3384,-79.078125,21.96875,1,0,0,response7disk,,1,-6.93359375,8.12109375,1,0,0,rectangle,-6.93359375,8.12109375,1,0,0,-6.93359375,8.12109375,1,0,0,0,45,45,64,1,,,,,,,,
,,,,,,,,,,,,,FF,,,,,,,,1.63357,,,,,,,,,,,,,,,,,,,,,,6102195038f3ffcb73225853,61036e15010ff41eda27ab20,2021-07-29_23h13.03.414,Simcolourproject_2stim_asymm_v5,2020.2.10,MacIntel,60,61025ae37ef11b136ea224fe,,,,,,,,,223,57.8203125,-68.5859375,1,0,0,response3disk,,4,8.9140625,1.90234375,1,0,0,rectangle,8.9140625,1.90234375,1,0,0,8.9140625,1.90234375,1,0,0,0,46,46,108,1,,,,,,,,
,,,,,,,,,,,,,FF,,,,,,,,1.85005,,,,,,,,,,,,,,,,,,,,,,6102195038f3ffcb73225853,61036e15010ff41eda27ab20,2021-07-29_23h13.03.414,Simcolourproject_2stim_asymm_v5,2020.2.10,MacIntel,60,61025ae37ef11b136ea224fe,,,,,,,,,3833,72.66015625,-31.5859375,1,0,0,response3disk,,5,1.79296875,6.37109375,1,0,0,rectangle,1.79296875,6.37109375,1,0,0,1.79296875,6.37109375,1,0,0,0,47,47,50,1,,,,,,,,
,,,,,,,,,,,,,FF,,,,,,,,2.13322,,,,,,,,,,,,,,,,,,,,,,6102195038f3ffcb73225853,61036e15010ff41eda27ab20,2021-07-29_23h13.03.414,Simcolourproject_2stim_asymm_v5,2020.2.10,MacIntel,60,61025ae37ef11b136ea224fe,,,,,,,,,2135,102.7539063,25.59765625,1,0,0,response1disk,,6,-11.87890625,5.55859375,1,0,0,rectangle,-11.87890625,5.55859375,1,0,0,-11.87890625,5.55859375,1,0,0,0,48,48,58,1,,,,,,,,
,,,,,,,,,,,,,FF,,,,,,,,1.14987,,,,,,,,,,,,,,,,,,,,,,6102195038f3ffcb73225853,61036e15010ff41eda27ab20,2021-07-29_23h13.03.414,Simcolourproject_2stim_asymm_v5,2020.2.10,MacIntel,60,61025ae37ef11b136ea224fe,,,,,,,,,3003,-69.91796875,32.31640625,1,0,0,response7disk,,1,-7.734375,1.19140625,1,0,0,rectangle,-7.734375,1.19140625,1,0,0,-7.734375,1.19140625,1,0,0,0,49,49,88,1,,,,,,,,
,,,,,,,,,,,,,FF,,,,,,,,1.167545,,,,,,,,,,,,,,,,,,,,,,6102195038f3ffcb73225853,61036e15010ff41eda27ab20,2021-07-29_23h13.03.414,Simcolourproject_2stim_asymm_v5,2020.2.10,MacIntel,60,61025ae37ef11b136ea224fe,,,,,,,,,3767,71.51953125,32.0625,1,0,0,response1disk,,6,7,1.8046875,1,0,0,rectangle,7,1.8046875,1,0,0,7,1.8046875,1,0,0,0,50,50,22,1,,,,,,,,
,,,,,,,,,,,,,FF,,,,,,,,0.939185,,,,,,,,,,,,,,,,,,,,,,6102195038f3ffcb73225853,61036e15010ff41eda27ab20,2021-07-29_23h13.03.414,Simcolourproject_2stim_asymm_v5,2020.2.10,MacIntel,60,61025ae37ef11b136ea224fe,,,,,,,,,2627,91.7890625,43.0390625,1,0,0,response1disk,,6,-4.34375,1.140625,1,0,0,rectangle,-4.34375,1.140625,1,0,0,-4.34375,1.140625,1,0,0,0,51,51,6,1,,,,,,,,
,,,,,,,,,,,,,FF,,,,,,,,1.81605,,,,,,,,,,,,,,,,,,,,,,6102195038f3ffcb73225853,61036e15010ff41eda27ab20,2021-07-29_23h13.03.414,Simcolourproject_2stim_asymm_v5,2020.2.10,MacIntel,60,61025ae37ef11b136ea224fe,,,,,,,,,2975,71.91796875,-33.3359375,1,0,0,response3disk,,5,27.65625,9.71484375,1,0,0,rectangle,27.65625,9.71484375,1,0,0,27.65625,9.71484375,1,0,0,0,52,52,105,1,,,,,,,,
,,,,,,,,,,,,,FF,,,,,,,,2.036985,,,,,,,,,,,,,,,,,,,,,,6102195038f3ffcb73225853,61036e15010ff41eda27ab20,2021-07-29_23h13.03.414,Simcolourproject_2stim_asymm_v5,2020.2.10,MacIntel,60,61025ae37ef11b136ea224fe,,,,,,,,,1065,-92.0390625,-21.17578125,1,0,0,response5disk,,2,7.28515625,6.125,1,0,0,rectangle,7.28515625,6.125,1,0,0,7.28515625,6.125,1,0,0,0,53,53,119,1,,,,,,,,
,,,,,,,,,,,,,FF,,,,,,,,0.96613,,,,,,,,,,,,,,,,,,,,,,6102195038f3ffcb73225853,61036e15010ff41eda27ab20,2021-07-29_23h13.03.414,Simcolourproject_2stim_asymm_v5,2020.2.10,MacIntel,60,61025ae37ef11b136ea224fe,,,,,,,,,594,45.1796875,-74.734375,1,0,0,response3disk,,4,9.8046875,-5.62890625,1,0,0,rectangle,9.8046875,-5.62890625,1,0,0,9.8046875,-5.62890625,1,0,0,0,54,54,49,1,,,,,,,,
,,,,,,,,,,,,,FF,,,,,,,,1.13452,,,,,,,,,,,,,,,,,,,,,,6102195038f3ffcb73225853,61036e15010ff41eda27ab20,2021-07-29_23h13.03.414,Simcolourproject_2stim_asymm_v5,2020.2.10,MacIntel,60,61025ae37ef11b136ea224fe,,,,,,,,,364,55.21875,32.8671875,1,0,0,response1disk,,6,-5.70703125,5.21484375,1,0,0,rectangle,-5.70703125,5.21484375,1,0,0,-5.70703125,5.21484375,1,0,0,0,55,55,34,1,,,,,,,,
,,,,,,,,,,,,,FF,,,,,,,,1.18727,,,,,,,,,,,,,,,,,,,,,,6102195038f3ffcb73225853,61036e15010ff41eda27ab20,2021-07-29_23h13.03.414,Simcolourproject_2stim_asymm_v5,2020.2.10,MacIntel,60,61025ae37ef11b136ea224fe,,,,,,,,,2027,-51.29296875,42.5234375,1,0,0,response7disk,,1,-0.84765625,-3.24609375,1,0,0,rectangle,-0.84765625,-3.24609375,1,0,0,-0.84765625,-3.24609375,1,0,0,0,56,56,44,1,,,,,,,,
,,,,,,,,,,,,,FF,,,,,,,,2.91649,,,,,,,,,,,,,,,,,,,,,,6102195038f3ffcb73225853,61036e15010ff41eda27ab20,2021-07-29_23h13.03.414,Simcolourproject_2stim_asymm_v5,2020.2.10,MacIntel,60,61025ae37ef11b136ea224fe,,,,,,,,,3126,38.14453125,-87.45703125,1,0,0,response3disk,,4,-3.8515625,-1.02734375,1,0,0,rectangle,-3.8515625,-1.02734375,1,0,0,-3.8515625,-1.02734375,1,0,0,0,57,57,27,1,,,,,,,,
,,,,,,,,,,,,,FF,,,,,,,,1.03342,,,,,,,,,,,,,,,,,,,,,,6102195038f3ffcb73225853,61036e15010ff41eda27ab20,2021-07-29_23h13.03.414,Simcolourproject_2stim_asymm_v5,2020.2.10,MacIntel,60,61025ae37ef11b136ea224fe,,,,,,,,,2700,81.58984375,-43.44140625,1,0,0,response3disk,,5,2.37890625,-11.2578125,1,0,0,rectangle,2.37890625,-11.2578125,1,0,0,2.37890625,-11.2578125,1,0,0,0,58,58,73,1,,,,,,,,
,,,,,,,,,,,,,FF,,,,,,,,2.200795,,,,,,,,,,,,,,,,,,,,,,6102195038f3ffcb73225853,61036e15010ff41eda27ab20,2021-07-29_23h13.03.414,Simcolourproject_2stim_asymm_v5,2020.2.10,MacIntel,60,61025ae37ef11b136ea224fe,,,,,,,,,2877,-29.73046875,-78.77734375,1,0,0,response5disk,,3,-9.421875,-3.51171875,1,0,0,rectangle,-9.421875,-3.51171875,1,0,0,-9.421875,-3.51171875,1,0,0,0,59,59,14,1,,,,,,,,
,,,,,,,,,,,,,FF,,,,,,,,0.884145,,,,,,,,,,,,,,,,,,,,,,6102195038f3ffcb73225853,61036e15010ff41eda27ab20,2021-07-29_23h13.03.414,Simcolourproject_2stim_asymm_v5,2020.2.10,MacIntel,60,61025ae37ef11b136ea224fe,,,,,,,,,2013,90.7578125,-40.3203125,1,0,0,response3disk,,5,17.9375,-10.23828125,1,0,0,rectangle,17.9375,-10.23828125,1,0,0,17.9375,-10.23828125,1,0,0,0,60,60,30,1,,,,,,,,
,,,,,,,,,,,,,FF,,,,,,,,1.86725,,,,,,,,,,,,,,,,,,,,,,6102195038f3ffcb73225853,61036e15010ff41eda27ab20,2021-07-29_23h13.03.414,Simcolourproject_2stim_asymm_v5,2020.2.10,MacIntel,60,61025ae37ef11b136ea224fe,,,,,,,,,266,-64.40625,31.46484375,1,0,0,response7disk,,1,-12.71484375,-2.83984375,1,0,0,rectangle,-12.71484375,-2.83984375,1,0,0,-12.71484375,-2.83984375,1,0,0,0,61,61,85,1,,,,,,,,
,,,,,,,,,,,,,FF,,,,,,,,1.11738,,,,,,,,,,,,,,,,,,,,,,6102195038f3ffcb73225853,61036e15010ff41eda27ab20,2021-07-29_23h13.03.414,Simcolourproject_2stim_asymm_v5,2020.2.10,MacIntel,60,61025ae37ef11b136ea224fe,,,,,,,,,2873,82.2734375,-40.54296875,1,0,0,response3disk,,5,4.86328125,-14.40234375,1,0,0,rectangle,4.86328125,-14.40234375,1,0,0,4.86328125,-14.40234375,1,0,0,0,62,62,127,1,,,,,,,,
,,,,,,,,,,,,,FF,,,,,,,,1.783955,,,,,,,,,,,,,,,,,,,,,,6102195038f3ffcb73225853,61036e15010ff41eda27ab20,2021-07-29_23h13.03.414,Simcolourproject_2stim_asymm_v5,2020.2.10,MacIntel,60,61025ae37ef11b136ea224fe,,,,,,,,,2957,-34.58984375,-72.2421875,1,0,0,response5disk,,3,-5.1953125,6.4375,1,0,0,rectangle,-5.1953125,6.4375,1,0,0,-5.1953125,6.4375,1,0,0,0,63,63,116,1,,,,,,,,
,,,,,,,,,,,,,FF,,,,,,,,4.29996,,,,,,,,,,,,,,,,,,,,,,6102195038f3ffcb73225853,61036e15010ff41eda27ab20,2021-07-29_23h13.03.414,Simcolourproject_2stim_asymm_v5,2020.2.10,MacIntel,60,61025ae37ef11b136ea224fe,,,,,,,,,2874,81.77734375,-22.1953125,1,0,0,response3disk,,5,-21.8359375,4.9375,1,0,0,rectangle,-21.8359375,4.9375,1,0,0,-21.8359375,4.9375,1,0,0,0,64,64,114,1,,,,,,,,
,,,,,,,,,,,,,FF,,,,,,,,1.699215,,,,,,,,,,,,,,,,,,,,,,6102195038f3ffcb73225853,61036e15010ff41eda27ab20,2021-07-29_23h13.03.414,Simcolourproject_2stim_asymm_v5,2020.2.10,MacIntel,60,61025ae37ef11b136ea224fe,,,,,,,,,198,104,29.38671875,1,0,0,response1disk,,6,-11.23828125,-5.9375,1,0,0,rectangle,-11.23828125,-5.9375,1,0,0,-11.23828125,-5.9375,1,0,0,0,65,65,46,1,,,,,,,,
,,,,,,,,,,,,,FF,,,,,,,,1.131775,,,,,,,,,,,,,,,,,,,,,,6102195038f3ffcb73225853,61036e15010ff41eda27ab20,2021-07-29_23h13.03.414,Simcolourproject_2stim_asymm_v5,2020.2.10,MacIntel,60,61025ae37ef11b136ea224fe,,,,,,,,,417,56.2265625,25.6015625,1,0,0,response1disk,,6,-3.99609375,-8.70703125,1,0,0,rectangle,-3.99609375,-8.70703125,1,0,0,-3.99609375,-8.70703125,1,0,0,0,66,66,69,1,,,,,,,,
,,,,,,,,,,,,,FF,,,,,,,,1.599925,,,,,,,,,,,,,,,,,,,,,,6102195038f3ffcb73225853,61036e15010ff41eda27ab20,2021-07-29_23h13.03.414,Simcolourproject_2stim_asymm_v5,2020.2.10,MacIntel,60,61025ae37ef11b136ea224fe,,,,,,,,,1705,-45.03515625,-78.3125,1,0,0,response5disk,,3,6.34375,-11.8984375,1,0,0,rectangle,6.34375,-11.8984375,1,0,0,6.34375,-11.8984375,1,0,0,0,67,67,79,1,,,,,,,,
,,,,,,,,,,,,,FF,,,,,,,,1.636225,,,,,,,,,,,,,,,,,,,,,,6102195038f3ffcb73225853,61036e15010ff41eda27ab20,2021-07-29_23h13.03.414,Simcolourproject_2stim_asymm_v5,2020.2.10,MacIntel,60,61025ae37ef11b136ea224fe,,,,,,,,,2883,-49.76953125,-66.1875,1,0,0,response5disk,,3,11.2890625,-8.5859375,1,0,0,rectangle,11.2890625,-8.5859375,1,0,0,11.2890625,-8.5859375,1,0,0,0,68,68,153,1,,,,,,,,
,,,,,,,,,,,,,FF,,,,,,,,2.16834,,,,,,,,,,,,,,,,,,,,,,6102195038f3ffcb73225853,61036e15010ff41eda27ab20,2021-07-29_23h13.03.414,Simcolourproject_2stim_asymm_v5,2020.2.10,MacIntel,60,61025ae37ef11b136ea224fe,,,,,,,,,3959,21.25390625,-64.77734375,1,0,0,response3disk,,4,6.16015625,-10.30859375,1,0,0,rectangle,6.16015625,-10.30859375,1,0,0,6.16015625,-10.30859375,1,0,0,0,69,69,81,1,,,,,,,,
,,,,,,,,,,,,,FF,,,,,,,,2.24988,,,,,,,,,,,,,,,,,,,,,,6102195038f3ffcb73225853,61036e15010ff41eda27ab20,2021-07-29_23h13.03.414,Simcolourproject_2stim_asymm_v5,2020.2.10,MacIntel,60,61025ae37ef11b136ea224fe,,,,,,,,,1867,85,-47.98046875,1,0,0,response3disk,,5,7.99609375,-9.046875,1,0,0,rectangle,7.99609375,-9.046875,1,0,0,7.99609375,-9.046875,1,0,0,0,70,70,66,1,,,,,,,,
,,,,,,,,,,,,,FF,,,,,,,,1.04971,,,,,,,,,,,,,,,,,,,,,,6102195038f3ffcb73225853,61036e15010ff41eda27ab20,2021-07-29_23h13.03.414,Simcolourproject_2stim_asymm_v5,2020.2.10,MacIntel,60,61025ae37ef11b136ea224fe,,,,,,,,,2818,75.4609375,21.98828125,1,0,0,response1disk,,6,11.9609375,-1.62890625,1,0,0,rectangle,11.9609375,-1.62890625,1,0,0,11.9609375,-1.62890625,1,0,0,0,71,71,45,1,,,,,,,,
,,,,,,,,,,,,,FF,,,,,,,,1.08546,,,,,,,,,,,,,,,,,,,,,,6102195038f3ffcb73225853,61036e15010ff41eda27ab20,2021-07-29_23h13.03.414,Simcolourproject_2stim_asymm_v5,2020.2.10,MacIntel,60,61025ae37ef11b136ea224fe,,,,,,,,,3090,-100.3828125,23.859375,1,0,0,response7disk,,1,-11.35546875,6.96484375,1,0,0,rectangle,-11.35546875,6.96484375,1,0,0,-11.35546875,6.96484375,1,0,0,0,72,72,140,1,,,,,,,,
,,,,,,,,,,,,,FF,,,,,,,,1.133355,,,,,,,,,,,,,,,,,,,,,,6102195038f3ffcb73225853,61036e15010ff41eda27ab20,2021-07-29_23h13.03.414,Simcolourproject_2stim_asymm_v5,2020.2.10,MacIntel,60,61025ae37ef11b136ea224fe,,,,,,,,,2147,95.25390625,25.7265625,1,0,0,response1disk,,6,0.46484375,-0.125,1,0,0,rectangle,0.46484375,-0.125,1,0,0,0.46484375,-0.125,1,0,0,0,73,73,149,1,,,,,,,,
,,,,,,,,,,,,,FF,,,,,,,,3.016085,,,,,,,,,,,,,,,,,,,,,,6102195038f3ffcb73225853,61036e15010ff41eda27ab20,2021-07-29_23h13.03.414,Simcolourproject_2stim_asymm_v5,2020.2.10,MacIntel,60,61025ae37ef11b136ea224fe,,,,,,,,,865,45.2890625,-69.390625,1,0,0,response3disk,,4,4.12890625,-8.46484375,1,0,0,rectangle,4.12890625,-8.46484375,1,0,0,4.12890625,-8.46484375,1,0,0,0,74,74,158,1,,,,,,,,
,,,,,,,,,,,,,FF,,,,,,,,1.53348,,,,,,,,,,,,,,,,,,,,,,6102195038f3ffcb73225853,61036e15010ff41eda27ab20,2021-07-29_23h13.03.414,Simcolourproject_2stim_asymm_v5,2020.2.10,MacIntel,60,61025ae37ef11b136ea224fe,,,,,,,,,3566,-27.484375,-50.80078125,1,0,0,response5disk,,3,-13.43359375,-5.51171875,1,0,0,rectangle,-13.43359375,-5.51171875,1,0,0,-13.43359375,-5.51171875,1,0,0,0,75,75,17,1,,,,,,,,
,,,,,,,,,,,,,FF,,,,,,,,1.117795,,,,,,,,,,,,,,,,,,,,,,6102195038f3ffcb73225853,61036e15010ff41eda27ab20,2021-07-29_23h13.03.414,Simcolourproject_2stim_asymm_v5,2020.2.10,MacIntel,60,61025ae37ef11b136ea224fe,,,,,,,,,3635,-77.9140625,-39.84765625,1,0,0,response5disk,,2,-3.53515625,-4.82421875,1,0,0,rectangle,-3.53515625,-4.82421875,1,0,0,-3.53515625,-4.82421875,1,0,0,0,76,76,31,1,,,,,,,,
,,,,,,,,,,,,,FF,,,,,,,,0.899395,,,,,,,,,,,,,,,,,,,,,,6102195038f3ffcb73225853,61036e15010ff41eda27ab20,2021-07-29_23h13.03.414,Simcolourproject_2stim_asymm_v5,2020.2.10,MacIntel,60,61025ae37ef11b136ea224fe,,,,,,,,,1320,70.85546875,-50.609375,1,0,0,response3disk,,5,-13.4765625,-11.609375,1,0,0,rectangle,30.97265625,75.11328125,1,0,0,-2.75,2.30078125,1,0,0,0,77,77,112,1,,response1disk_3,TRUE,7,7,"[136,299,225,242,179,288,290,256,297,318,101,300,129,221,219,78,225,195,259,29]",2.533495,rectangle
,,,,,,,,,,,,,FF,,,,,,,,1.116505,,,,,,,,,,,,,,,,,,,,,,6102195038f3ffcb73225853,61036e15010ff41eda27ab20,2021-07-29_23h13.03.414,Simcolourproject_2stim_asymm_v5,2020.2.10,MacIntel,60,61025ae37ef11b136ea224fe,,,,,,,,,420,-31.15625,-62.98046875,1,0,0,response5disk,,3,23.27734375,4.03515625,1,0,0,rectangle,23.27734375,4.03515625,1,0,0,23.27734375,4.03515625,1,0,0,0,78,78,65,1,,,,,,,,
,,,,,,,,,,,,,FF,,,,,,,,2.198875,,,,,,,,,,,,,,,,,,,,,,6102195038f3ffcb73225853,61036e15010ff41eda27ab20,2021-07-29_23h13.03.414,Simcolourproject_2stim_asymm_v5,2020.2.10,MacIntel,60,61025ae37ef11b136ea224fe,,,,,,,,,687,48.390625,38.2890625,1,0,0,response1disk,,6,-1.3671875,-0.921875,1,0,0,rectangle,-1.3671875,-0.921875,1,0,0,-1.3671875,-0.921875,1,0,0,0,79,79,24,1,,,,,,,,
,,,,,,,,,,,,,FF,,,,,,,,1.465655,,,,,,,,,,,,,,,,,,,,,,6102195038f3ffcb73225853,61036e15010ff41eda27ab20,2021-07-29_23h13.03.414,Simcolourproject_2stim_asymm_v5,2020.2.10,MacIntel,60,61025ae37ef11b136ea224fe,,,,,,,,,129,68.7109375,-43.21875,1,0,0,response3disk,,5,10.24609375,4.53125,1,0,0,rectangle,10.24609375,4.53125,1,0,0,10.24609375,4.53125,1,0,0,0,80,80,38,1,,,,,,,,
,,,,,,,,,,,,,FF,,,,,,,,1.33275,,,,,,,,,,,,,,,,,,,,,,6102195038f3ffcb73225853,61036e15010ff41eda27ab20,2021-07-29_23h13.03.414,Simcolourproject_2stim_asymm_v5,2020.2.10,MacIntel,60,61025ae37ef11b136ea224fe,,,,,,,,,1741,-75.47265625,-48.75390625,1,0,0,response5disk,,2,-17.28125,-11.26953125,1,0,0,rectangle,-17.28125,-11.26953125,1,0,0,-17.28125,-11.26953125,1,0,0,0,81,81,96,1,,,,,,,,
,,,,,,,,,,,,,FF,,,,,,,,0.966565,,,,,,,,,,,,,,,,,,,,,,6102195038f3ffcb73225853,61036e15010ff41eda27ab20,2021-07-29_23h13.03.414,Simcolourproject_2stim_asymm_v5,2020.2.10,MacIntel,60,61025ae37ef11b136ea224fe,,,,,,,,,4339,-65.92578125,37.4140625,1,0,0,response7disk,,1,-1.796875,11.12109375,1,0,0,rectangle,-1.796875,11.12109375,1,0,0,-1.796875,11.12109375,1,0,0,0,82,82,147,1,,,,,,,,
,,,,,,,,,,,,,FF,,,,,,,,1.1168,,,,,,,,,,,,,,,,,,,,,,6102195038f3ffcb73225853,61036e15010ff41eda27ab20,2021-07-29_23h13.03.414,Simcolourproject_2stim_asymm_v5,2020.2.10,MacIntel,60,61025ae37ef11b136ea224fe,,,,,,,,,2191,36.20703125,-64.6484375,1,0,0,response3disk,,4,16.87890625,-9.65234375,1,0,0,rectangle,16.87890625,-9.65234375,1,0,0,16.87890625,-9.65234375,1,0,0,0,83,83,128,1,,,,,,,,
,,,,,,,,,,,,,FF,,,,,,,,0.951015,,,,,,,,,,,,,,,,,,,,,,6102195038f3ffcb73225853,61036e15010ff41eda27ab20,2021-07-29_23h13.03.414,Simcolourproject_2stim_asymm_v5,2020.2.10,MacIntel,60,61025ae37ef11b136ea224fe,,,,,,,,,4188,-35.5703125,-47.68359375,1,0,0,response5disk,,3,-9.953125,-14.6796875,1,0,0,rectangle,-9.953125,-14.6796875,1,0,0,-9.953125,-14.6796875,1,0,0,0,84,84,32,1,,,,,,,,
,,,,,,,,,,,,,FF,,,,,,,,0.99914,,,,,,,,,,,,,,,,,,,,,,6102195038f3ffcb73225853,61036e15010ff41eda27ab20,2021-07-29_23h13.03.414,Simcolourproject_2stim_asymm_v5,2020.2.10,MacIntel,60,61025ae37ef11b136ea224fe,,,,,,,,,3427,-28.69921875,79.74609375,1,0,0,response7disk,,0,-7.67578125,3.375,1,0,0,rectangle,-7.67578125,3.375,1,0,0,-7.67578125,3.375,1,0,0,0,85,85,125,1,,,,,,,,
,,,,,,,,,,,,,FF,,,,,,,,0.96645,,,,,,,,,,,,,,,,,,,,,,6102195038f3ffcb73225853,61036e15010ff41eda27ab20,2021-07-29_23h13.03.414,Simcolourproject_2stim_asymm_v5,2020.2.10,MacIntel,60,61025ae37ef11b136ea224fe,,,,,,,,,1827,-68.11328125,19.4453125,1,0,0,response7disk,,1,-9.08984375,-3.09375,1,0,0,rectangle,-9.08984375,-3.09375,1,0,0,-9.08984375,-3.09375,1,0,0,0,86,86,82,1,,,,,,,,
,,,,,,,,,,,,,FF,,,,,,,,0.683415,,,,,,,,,,,,,,,,,,,,,,6102195038f3ffcb73225853,61036e15010ff41eda27ab20,2021-07-29_23h13.03.414,Simcolourproject_2stim_asymm_v5,2020.2.10,MacIntel,60,61025ae37ef11b136ea224fe,,,,,,,,,1463,-85.43359375,48.63671875,1,0,0,response7disk,,1,-9.93359375,3.16015625,1,0,0,rectangle,-9.93359375,3.16015625,1,0,0,-9.93359375,3.16015625,1,0,0,0,87,87,40,1,,,,,,,,
,,,,,,,,,,,,,FF,,,,,,,,0.899955,,,,,,,,,,,,,,,,,,,,,,6102195038f3ffcb73225853,61036e15010ff41eda27ab20,2021-07-29_23h13.03.414,Simcolourproject_2stim_asymm_v5,2020.2.10,MacIntel,60,61025ae37ef11b136ea224fe,,,,,,,,,514,49.015625,-21.5234375,1,0,0,response3disk,,5,7.3203125,11.3828125,1,0,0,rectangle,7.3203125,11.3828125,1,0,0,7.3203125,11.3828125,1,0,0,0,88,88,43,1,,,,,,,,
,,,,,,,,,,,,,FF,,,,,,,,1.6671,,,,,,,,,,,,,,,,,,,,,,6102195038f3ffcb73225853,61036e15010ff41eda27ab20,2021-07-29_23h13.03.414,Simcolourproject_2stim_asymm_v5,2020.2.10,MacIntel,60,61025ae37ef11b136ea224fe,,,,,,,,,377,51.66796875,-27.4609375,1,0,0,response3disk,,5,26.0078125,-7.06640625,1,0,0,rectangle,26.0078125,-7.06640625,1,0,0,26.0078125,-7.06640625,1,0,0,0,89,89,155,1,,,,,,,,
,,,,,,,,,,,,,FF,,,,,,,,1.033155,,,,,,,,,,,,,,,,,,,,,,6102195038f3ffcb73225853,61036e15010ff41eda27ab20,2021-07-29_23h13.03.414,Simcolourproject_2stim_asymm_v5,2020.2.10,MacIntel,60,61025ae37ef11b136ea224fe,,,,,,,,,2134,83.265625,35.70703125,1,0,0,response1disk,,6,-6.1328125,-4.66015625,1,0,0,rectangle,-6.1328125,-4.66015625,1,0,0,-6.1328125,-4.66015625,1,0,0,0,90,90,1,1,,,,,,,,
,,,,,,,,,,,,,FF,,,,,,,,1.653545,,,,,,,,,,,,,,,,,,,,,,6102195038f3ffcb73225853,61036e15010ff41eda27ab20,2021-07-29_23h13.03.414,Simcolourproject_2stim_asymm_v5,2020.2.10,MacIntel,60,61025ae37ef11b136ea224fe,,,,,,,,,1930,24.26953125,-59.078125,1,0,0,response3disk,,4,4.12109375,-9.98046875,1,0,0,rectangle,4.12109375,-9.98046875,1,0,0,4.12109375,-9.98046875,1,0,0,0,91,91,118,1,,,,,,,,
,,,,,,,,,,,,,FF,,,,,,,,2.36703,,,,,,,,,,,,,,,,,,,,,,6102195038f3ffcb73225853,61036e15010ff41eda27ab20,2021-07-29_23h13.03.414,Simcolourproject_2stim_asymm_v5,2020.2.10,MacIntel,60,61025ae37ef11b136ea224fe,,,,,,,,,1863,60.30859375,-47.3671875,1,0,0,response3disk,,5,7.765625,1.2265625,1,0,0,rectangle,7.765625,1.2265625,1,0,0,7.765625,1.2265625,1,0,0,0,92,92,18,1,,,,,,,,
,,,,,,,,,,,,,FF,,,,,,,,1.28499,,,,,,,,,,,,,,,,,,,,,,6102195038f3ffcb73225853,61036e15010ff41eda27ab20,2021-07-29_23h13.03.414,Simcolourproject_2stim_asymm_v5,2020.2.10,MacIntel,60,61025ae37ef11b136ea224fe,,,,,,,,,3806,-35.16015625,-62.43359375,1,0,0,response5disk,,3,-5.63671875,-10.07421875,1,0,0,rectangle,-5.63671875,-10.07421875,1,0,0,-5.63671875,-10.07421875,1,0,0,0,93,93,94,1,,,,,,,,
,,,,,,,,,,,,,FF,,,,,,,,1.481985,,,,,,,,,,,,,,,,,,,,,,6102195038f3ffcb73225853,61036e15010ff41eda27ab20,2021-07-29_23h13.03.414,Simcolourproject_2stim_asymm_v5,2020.2.10,MacIntel,60,61025ae37ef11b136ea224fe,,,,,,,,,1840,-27.1484375,-66.62890625,1,0,0,response5disk,,3,1.99609375,1.37890625,1,0,0,rectangle,1.99609375,1.37890625,1,0,0,1.99609375,1.37890625,1,0,0,0,94,94,137,1,,,,,,,,
,,,,,,,,,,,,,FF,,,,,,,,1.699705,,,,,,,,,,,,,,,,,,,,,,6102195038f3ffcb73225853,61036e15010ff41eda27ab20,2021-07-29_23h13.03.414,Simcolourproject_2stim_asymm_v5,2020.2.10,MacIntel,60,61025ae37ef11b136ea224fe,,,,,,,,,2505,73.26953125,35.89453125,1,0,0,response1disk,,6,-4.55078125,10.25390625,1,0,0,rectangle,-4.55078125,10.25390625,1,0,0,-4.55078125,10.25390625,1,0,0,0,95,95,113,1,,,,,,,,
,,,,,,,,,,,,,FF,,,,,,,,0.84953,,,,,,,,,,,,,,,,,,,,,,6102195038f3ffcb73225853,61036e15010ff41eda27ab20,2021-07-29_23h13.03.414,Simcolourproject_2stim_asymm_v5,2020.2.10,MacIntel,60,61025ae37ef11b136ea224fe,,,,,,,,,3433,-58.07421875,35.40234375,1,0,0,response7disk,,1,18.390625,2.8203125,1,0,0,rectangle,18.390625,2.8203125,1,0,0,18.390625,2.8203125,1,0,0,0,96,96,10,1,,,,,,,,
,,,,,,,,,,,,,FF,,,,,,,,1.482445,,,,,,,,,,,,,,,,,,,,,,6102195038f3ffcb73225853,61036e15010ff41eda27ab20,2021-07-29_23h13.03.414,Simcolourproject_2stim_asymm_v5,2020.2.10,MacIntel,60,61025ae37ef11b136ea224fe,,,,,,,,,1814,-41.59375,-51.29296875,1,0,0,response5disk,,3,-24.4296875,-10.2890625,1,0,0,rectangle,-24.4296875,-10.2890625,1,0,0,-24.4296875,-10.2890625,1,0,0,0,97,97,138,1,,,,,,,,
,,,,,,,,,,,,,FF,,,,,,,,1.166145,,,,,,,,,,,,,,,,,,,,,,6102195038f3ffcb73225853,61036e15010ff41eda27ab20,2021-07-29_23h13.03.414,Simcolourproject_2stim_asymm_v5,2020.2.10,MacIntel,60,61025ae37ef11b136ea224fe,,,,,,,,,3650,58.5234375,-33.62890625,1,0,0,response3disk,,5,-19.89453125,-3.8984375,1,0,0,rectangle,-19.89453125,-3.8984375,1,0,0,-19.89453125,-3.8984375,1,0,0,0,98,98,75,1,,,,,,,,
,,,,,,,,,,,,,FF,,,,,,,,1.599805,,,,,,,,,,,,,,,,,,,,,,6102195038f3ffcb73225853,61036e15010ff41eda27ab20,2021-07-29_23h13.03.414,Simcolourproject_2stim_asymm_v5,2020.2.10,MacIntel,60,61025ae37ef11b136ea224fe,,,,,,,,,244,-33.27734375,-80.25,1,0,0,response5disk,,3,17.75,-0.34765625,1,0,0,rectangle,17.75,-0.34765625,1,0,0,17.75,-0.34765625,1,0,0,0,99,99,41,1,,,,,,,,
,,,,,,,,,,,,,FF,,,,,,,,0.933495,,,,,,,,,,,,,,,,,,,,,,6102195038f3ffcb73225853,61036e15010ff41eda27ab20,2021-07-29_23h13.03.414,Simcolourproject_2stim_asymm_v5,2020.2.10,MacIntel,60,61025ae37ef11b136ea224fe,,,,,,,,,2924,61.19921875,38.50390625,1,0,0,response1disk,,6,-9.34765625,2.265625,1,0,0,rectangle,26.01953125,-93.7109375,1,0,0,10.7265625,0.66796875,1,0,0,0,100,100,95,1,,response3disk_3,TRUE,4,4,"[136,299,225,242,179,288,290,256,297,318,101,300,129,221,219,78,225,195,259,29]",2.96711,rectangle
,,,,,,,,,,,,,FF,,,,,,,,3.498595,,,,,,,,,,,,,,,,,,,,,,6102195038f3ffcb73225853,61036e15010ff41eda27ab20,2021-07-29_23h13.03.414,Simcolourproject_2stim_asymm_v5,2020.2.10,MacIntel,60,61025ae37ef11b136ea224fe,,,,,,,,,1171,-42.6875,-72.453125,1,0,0,response5disk,,3,-10.55078125,-8.70703125,1,0,0,rectangle,-10.55078125,-8.70703125,1,0,0,-10.55078125,-8.70703125,1,0,0,0,101,101,134,1,,,,,,,,
,,,,,,,,,,,,,FF,,,,,,,,0.866725,,,,,,,,,,,,,,,,,,,,,,6102195038f3ffcb73225853,61036e15010ff41eda27ab20,2021-07-29_23h13.03.414,Simcolourproject_2stim_asymm_v5,2020.2.10,MacIntel,60,61025ae37ef11b136ea224fe,,,,,,,,,1318,-65.85546875,-36.20703125,1,0,0,response5disk,,2,2.453125,-9.5546875,1,0,0,rectangle,2.453125,-9.5546875,1,0,0,2.453125,-9.5546875,1,0,0,0,102,102,83,1,,,,,,,,
,,,,,,,,,,,,,FF,,,,,,,,0.748595,,,,,,,,,,,,,,,,,,,,,,6102195038f3ffcb73225853,61036e15010ff41eda27ab20,2021-07-29_23h13.03.414,Simcolourproject_2stim_asymm_v5,2020.2.10,MacIntel,60,61025ae37ef11b136ea224fe,,,,,,,,,4266,-39.69140625,54,1,0,0,response7disk,,0,-2.546875,9.3203125,1,0,0,rectangle,-2.546875,9.3203125,1,0,0,-2.546875,9.3203125,1,0,0,0,103,103,26,1,,,,,,,,
,,,,,,,,,,,,,FF,,,,,,,,1.74882,,,,,,,,,,,,,,,,,,,,,,6102195038f3ffcb73225853,61036e15010ff41eda27ab20,2021-07-29_23h13.03.414,Simcolourproject_2stim_asymm_v5,2020.2.10,MacIntel,60,61025ae37ef11b136ea224fe,,,,,,,,,1283,71.15625,-39.33203125,1,0,0,response3disk,,5,30.31640625,-14.921875,1,0,0,rectangle,30.31640625,-14.921875,1,0,0,30.31640625,-14.921875,1,0,0,0,104,104,21,1,,,,,,,,
,,,,,,,,,,,,,FF,,,,,,,,1.58315,,,,,,,,,,,,,,,,,,,,,,6102195038f3ffcb73225853,61036e15010ff41eda27ab20,2021-07-29_23h13.03.414,Simcolourproject_2stim_asymm_v5,2020.2.10,MacIntel,60,61025ae37ef11b136ea224fe,,,,,,,,,2128,62.99609375,-45.1171875,1,0,0,response3disk,,5,5.33203125,-7.9453125,1,0,0,rectangle,5.33203125,-7.9453125,1,0,0,5.33203125,-7.9453125,1,0,0,0,105,105,68,1,,,,,,,,
,,,,,,,,,,,,,FF,,,,,,,,1.449575,,,,,,,,,,,,,,,,,,,,,,6102195038f3ffcb73225853,61036e15010ff41eda27ab20,2021-07-29_23h13.03.414,Simcolourproject_2stim_asymm_v5,2020.2.10,MacIntel,60,61025ae37ef11b136ea224fe,,,,,,,,,797,32.51171875,-59.234375,1,0,0,response3disk,,4,3.8671875,-10.2421875,1,0,0,rectangle,3.8671875,-10.2421875,1,0,0,3.8671875,-10.2421875,1,0,0,0,106,106,28,1,,,,,,,,
,,,,,,,,,,,,,FF,,,,,,,,1.633515,,,,,,,,,,,,,,,,,,,,,,6102195038f3ffcb73225853,61036e15010ff41eda27ab20,2021-07-29_23h13.03.414,Simcolourproject_2stim_asymm_v5,2020.2.10,MacIntel,60,61025ae37ef11b136ea224fe,,,,,,,,,3128,63.78125,47.203125,1,0,0,response1disk,,6,11.6796875,4.67578125,1,0,0,rectangle,11.6796875,4.67578125,1,0,0,11.6796875,4.67578125,1,0,0,0,107,107,106,1,,,,,,,,
,,,,,,,,,,,,,FF,,,,,,,,1.41687,,,,,,,,,,,,,,,,,,,,,,6102195038f3ffcb73225853,61036e15010ff41eda27ab20,2021-07-29_23h13.03.414,Simcolourproject_2stim_asymm_v5,2020.2.10,MacIntel,60,61025ae37ef11b136ea224fe,,,,,,,,,3265,65.84375,-44.5625,1,0,0,response3disk,,5,2.60546875,-6.82421875,1,0,0,rectangle,2.60546875,-6.82421875,1,0,0,2.60546875,-6.82421875,1,0,0,0,108,108,76,1,,,,,,,,
,,,,,,,,,,,,,FF,,,,,,,,3.252405,,,,,,,,,,,,,,,,,,,,,,6102195038f3ffcb73225853,61036e15010ff41eda27ab20,2021-07-29_23h13.03.414,Simcolourproject_2stim_asymm_v5,2020.2.10,MacIntel,60,61025ae37ef11b136ea224fe,,,,,,,,,246,35.265625,-67.2265625,1,0,0,response3disk,,4,-5.484375,9.2421875,1,0,0,rectangle,-5.484375,9.2421875,1,0,0,-5.484375,9.2421875,1,0,0,0,109,109,11,1,,,,,,,,
,,,,,,,,,,,,,FF,,,,,,,,1.083245,,,,,,,,,,,,,,,,,,,,,,6102195038f3ffcb73225853,61036e15010ff41eda27ab20,2021-07-29_23h13.03.414,Simcolourproject_2stim_asymm_v5,2020.2.10,MacIntel,60,61025ae37ef11b136ea224fe,,,,,,,,,4239,-61.953125,23.26953125,1,0,0,response7disk,,1,-6.07421875,0.34765625,1,0,0,rectangle,-6.07421875,0.34765625,1,0,0,-6.07421875,0.34765625,1,0,0,0,110,110,107,1,,,,,,,,
,,,,,,,,,,,,,FF,,,,,,,,0.96687,,,,,,,,,,,,,,,,,,,,,,6102195038f3ffcb73225853,61036e15010ff41eda27ab20,2021-07-29_23h13.03.414,Simcolourproject_2stim_asymm_v5,2020.2.10,MacIntel,60,61025ae37ef11b136ea224fe,,,,,,,,,2549,-55.1015625,25.29296875,1,0,0,response7disk,,1,-11.125,0.5625,1,0,0,rectangle,-11.125,0.5625,1,0,0,-11.125,0.5625,1,0,0,0,111,111,29,1,,,,,,,,
,,,,,,,,,,,,,FF,,,,,,,,0.782275,,,,,,,,,,,,,,,,,,,,,,6102195038f3ffcb73225853,61036e15010ff41eda27ab20,2021-07-29_23h13.03.414,Simcolourproject_2stim_asymm_v5,2020.2.10,MacIntel,60,61025ae37ef11b136ea224fe,,,,,,,,,2666,-74.765625,35.94921875,1,0,0,response7disk,,1,-19.45703125,11.82421875,1,0,0,rectangle,-19.45703125,11.82421875,1,0,0,-19.45703125,11.82421875,1,0,0,0,112,112,15,1,,,,,,,,
,,,,,,,,,,,,,FF,,,,,,,,1.56735,,,,,,,,,,,,,,,,,,,,,,6102195038f3ffcb73225853,61036e15010ff41eda27ab20,2021-07-29_23h13.03.414,Simcolourproject_2stim_asymm_v5,2020.2.10,MacIntel,60,61025ae37ef11b136ea224fe,,,,,,,,,1843,40.2890625,-81.97265625,1,0,0,response3disk,,4,-1.50390625,3.80078125,1,0,0,rectangle,-1.50390625,3.80078125,1,0,0,-1.50390625,3.80078125,1,0,0,0,113,113,141,1,,,,,,,,
,,,,,,,,,,,,,FF,,,,,,,,1.961185,,,,,,,,,,,,,,,,,,,,,,6102195038f3ffcb73225853,61036e15010ff41eda27ab20,2021-07-29_23h13.03.414,Simcolourproject_2stim_asymm_v5,2020.2.10,MacIntel,60,61025ae37ef11b136ea224fe,,,,,,,,,3498,82.859375,-29.6484375,1,0,0,response3disk,,5,-1.953125,-3.875,1,0,0,rectangle,-1.953125,-3.875,1,0,0,-1.953125,-3.875,1,0,0,0,114,114,71,1,,,,,,,,
,,,,,,,,,,,,,FF,,,,,,,,1.40161,,,,,,,,,,,,,,,,,,,,,,6102195038f3ffcb73225853,61036e15010ff41eda27ab20,2021-07-29_23h13.03.414,Simcolourproject_2stim_asymm_v5,2020.2.10,MacIntel,60,61025ae37ef11b136ea224fe,,,,,,,,,4262,62.8359375,48.91015625,1,0,0,response1disk,,6,-0.85546875,3.1015625,1,0,0,rectangle,-0.85546875,3.1015625,1,0,0,-0.85546875,3.1015625,1,0,0,0,115,115,48,1,,,,,,,,
,,,,,,,,,,,,,FF,,,,,,,,1.566925,,,,,,,,,,,,,,,,,,,,,,6102195038f3ffcb73225853,61036e15010ff41eda27ab20,2021-07-29_23h13.03.414,Simcolourproject_2stim_asymm_v5,2020.2.10,MacIntel,60,61025ae37ef11b136ea224fe,,,,,,,,,1025,39.890625,-62.078125,1,0,0,response3disk,,4,-2.96875,-5.2421875,1,0,0,rectangle,-2.96875,-5.2421875,1,0,0,-2.96875,-5.2421875,1,0,0,0,116,116,130,1,,,,,,,,
,,,,,,,,,,,,,FF,,,,,,,,2.05016,,,,,,,,,,,,,,,,,,,,,,6102195038f3ffcb73225853,61036e15010ff41eda27ab20,2021-07-29_23h13.03.414,Simcolourproject_2stim_asymm_v5,2020.2.10,MacIntel,60,61025ae37ef11b136ea224fe,,,,,,,,,4053,-42.3828125,-53.0625,1,0,0,response5disk,,3,-15.890625,-2.640625,1,0,0,rectangle,-15.890625,-2.640625,1,0,0,-15.890625,-2.640625,1,0,0,0,117,117,143,1,,,,,,,,
,,,,,,,,,,,,,FF,,,,,,,,1.33265,,,,,,,,,,,,,,,,,,,,,,6102195038f3ffcb73225853,61036e15010ff41eda27ab20,2021-07-29_23h13.03.414,Simcolourproject_2stim_asymm_v5,2020.2.10,MacIntel,60,61025ae37ef11b136ea224fe,,,,,,,,,1718,95.07421875,-38.42578125,1,0,0,response3disk,,5,1.22265625,-7.5390625,1,0,0,rectangle,1.22265625,-7.5390625,1,0,0,1.22265625,-7.5390625,1,0,0,0,118,118,123,1,,,,,,,,
,,,,,,,,,,,,,FF,,,,,,,,1.81182,,,,,,,,,,,,,,,,,,,,,,6102195038f3ffcb73225853,61036e15010ff41eda27ab20,2021-07-29_23h13.03.414,Simcolourproject_2stim_asymm_v5,2020.2.10,MacIntel,60,61025ae37ef11b136ea224fe,,,,,,,,,2123,69.5390625,40,1,0,0,response1disk,,6,-11.05078125,-3.578125,1,0,0,rectangle,-11.05078125,-3.578125,1,0,0,-11.05078125,-3.578125,1,0,0,0,119,119,67,1,,,,,,,,
,,,,,,,,,,,,,FF,,,,,,,,0.9326,,,,,,,,,,,,,,,,,,,,,,6102195038f3ffcb73225853,61036e15010ff41eda27ab20,2021-07-29_23h13.03.414,Simcolourproject_2stim_asymm_v5,2020.2.10,MacIntel,60,61025ae37ef11b136ea224fe,,,,,,,,,4196,36.5390625,-53.06640625,1,0,0,response3disk,,4,-2.8828125,-5.46875,1,0,0,rectangle,-2.8828125,-5.46875,1,0,0,-2.8828125,-5.46875,1,0,0,0,120,120,54,1,,,,,,,,
,,,,,,,,,,,,,FF,,,,,,,,1.7181,,,,,,,,,,,,,,,,,,,,,,6102195038f3ffcb73225853,61036e15010ff41eda27ab20,2021-07-29_23h13.03.414,Simcolourproject_2stim_asymm_v5,2020.2.10,MacIntel,60,61025ae37ef11b136ea224fe,,,,,,,,,1859,82.66796875,-40.66015625,1,0,0,response3disk,,5,20.6484375,-10.296875,1,0,0,rectangle,20.6484375,-10.296875,1,0,0,20.6484375,-10.296875,1,0,0,0,121,121,72,1,,,,,,,,
,,,,,,,,,,,,,FF,,,,,,,,12.88822,,,,,,,,,,,,,,,,,,,,,,6102195038f3ffcb73225853,61036e15010ff41eda27ab20,2021-07-29_23h13.03.414,Simcolourproject_2stim_asymm_v5,2020.2.10,MacIntel,60,61025ae37ef11b136ea224fe,,,,,,,,,2800,64.57421875,-22.60546875,1,0,0,response3disk,,5,17.109375,-2.703125,1,0,0,rectangle,17.109375,-2.703125,1,0,0,17.109375,-2.703125,1,0,0,0,122,122,89,1,,,,,,,,
,,,,,,,,,,,,,FF,,,,,,,,5.453395,,,,,,,,,,,,,,,,,,,,,,6102195038f3ffcb73225853,61036e15010ff41eda27ab20,2021-07-29_23h13.03.414,Simcolourproject_2stim_asymm_v5,2020.2.10,MacIntel,60,61025ae37ef11b136ea224fe,,,,,,,,,47,48.5078125,-91.67578125,1,0,0,response3disk,,4,3.60546875,-2.8203125,1,0,0,rectangle,3.60546875,-2.8203125,1,0,0,3.60546875,-2.8203125,1,0,0,0,123,123,92,1,,,,,,,,
,,,,,,,,,,,,,FF,,,,,,,,0.76607,,,,,,,,,,,,,,,,,,,,,,6102195038f3ffcb73225853,61036e15010ff41eda27ab20,2021-07-29_23h13.03.414,Simcolourproject_2stim_asymm_v5,2020.2.10,MacIntel,60,61025ae37ef11b136ea224fe,,,,,,,,,4365,-40.58984375,64.37109375,1,0,0,response7disk,,0,-5.32421875,-10.78515625,1,0,0,rectangle,-5.32421875,-10.78515625,1,0,0,-5.32421875,-10.78515625,1,0,0,0,124,124,20,1,,,,,,,,
,,,,,,,,,,,,,FF,,,,,,,,0.98327,,,,,,,,,,,,,,,,,,,,,,6102195038f3ffcb73225853,61036e15010ff41eda27ab20,2021-07-29_23h13.03.414,Simcolourproject_2stim_asymm_v5,2020.2.10,MacIntel,60,61025ae37ef11b136ea224fe,,,,,,,,,3480,-58.4453125,-43.625,1,0,0,response5disk,,2,-0.35546875,-5.34765625,1,0,0,rectangle,-0.35546875,-5.34765625,1,0,0,-0.35546875,-5.34765625,1,0,0,0,125,125,157,1,,,,,,,,
,,,,,,,,,,,,,FF,,,,,,,,1.715775,,,,,,,,,,,,,,,,,,,,,,6102195038f3ffcb73225853,61036e15010ff41eda27ab20,2021-07-29_23h13.03.414,Simcolourproject_2stim_asymm_v5,2020.2.10,MacIntel,60,61025ae37ef11b136ea224fe,,,,,,,,,3171,43.4765625,-71.4140625,1,0,0,response3disk,,4,13.8671875,-4.21484375,1,0,0,rectangle,13.8671875,-4.21484375,1,0,0,13.8671875,-4.21484375,1,0,0,0,126,126,60,1,,,,,,,,
,,,,,,,,,,,,,FF,,,,,,,,4.350135,,,,,,,,,,,,,,,,,,,,,,6102195038f3ffcb73225853,61036e15010ff41eda27ab20,2021-07-29_23h13.03.414,Simcolourproject_2stim_asymm_v5,2020.2.10,MacIntel,60,61025ae37ef11b136ea224fe,,,,,,,,,2393,-30.79296875,-55.36328125,1,0,0,response5disk,,3,-12.33203125,-12.0703125,1,0,0,rectangle,-12.33203125,-12.0703125,1,0,0,-12.33203125,-12.0703125,1,0,0,0,127,127,39,1,,,,,,,,
,,,,,,,,,,,,,FF,,,,,,,,0.851075,,,,,,,,,,,,,,,,,,,,,,6102195038f3ffcb73225853,61036e15010ff41eda27ab20,2021-07-29_23h13.03.414,Simcolourproject_2stim_asymm_v5,2020.2.10,MacIntel,60,61025ae37ef11b136ea224fe,,,,,,,,,3502,85.00390625,-22.453125,1,0,0,response3disk,,5,-10.95703125,-14.15625,1,0,0,rectangle,35.98046875,-93.9765625,1,0,0,11.44921875,-6.3515625,1,0,0,0,128,128,148,1,,response3disk_3,TRUE,4,4,"[136,299,225,242,179,288,290,256,297,318,101,300,129,221,219,78,225,195,259,29]",1.98331,rectangle
,,,,,,,,,,,,,FF,,,,,,,,1.950025,,,,,,,,,,,,,,,,,,,,,,6102195038f3ffcb73225853,61036e15010ff41eda27ab20,2021-07-29_23h13.03.414,Simcolourproject_2stim_asymm_v5,2020.2.10,MacIntel,60,61025ae37ef11b136ea224fe,,,,,,,,,3089,-58.59375,27.34765625,1,0,0,response7disk,,1,17.44140625,-5.26171875,1,0,0,rectangle,17.44140625,-5.26171875,1,0,0,17.44140625,-5.26171875,1,0,0,0,129,129,154,1,,,,,,,,
,,,,,,,,,,,,,FF,,,,,,,,2.384945,,,,,,,,,,,,,,,,,,,,,,6102195038f3ffcb73225853,61036e15010ff41eda27ab20,2021-07-29_23h13.03.414,Simcolourproject_2stim_asymm_v5,2020.2.10,MacIntel,60,61025ae37ef11b136ea224fe,,,,,,,,,564,-81.5078125,-43.74609375,1,0,0,response5disk,,2,10.68359375,-7.06640625,1,0,0,rectangle,10.68359375,-7.06640625,1,0,0,10.68359375,-7.06640625,1,0,0,0,130,130,57,1,,,,,,,,
,,,,,,,,,,,,,FF,,,,,,,,1.519705,,,,,,,,,,,,,,,,,,,,,,6102195038f3ffcb73225853,61036e15010ff41eda27ab20,2021-07-29_23h13.03.414,Simcolourproject_2stim_asymm_v5,2020.2.10,MacIntel,60,61025ae37ef11b136ea224fe,,,,,,,,,330,78.0703125,-43.2421875,1,0,0,response3disk,,5,13.72265625,-17.0234375,1,0,0,rectangle,13.72265625,-17.0234375,1,0,0,13.72265625,-17.0234375,1,0,0,0,131,131,74,1,,,,,,,,
,,,,,,,,,,,,,FF,,,,,,,,3.26839,,,,,,,,,,,,,,,,,,,,,,6102195038f3ffcb73225853,61036e15010ff41eda27ab20,2021-07-29_23h13.03.414,Simcolourproject_2stim_asymm_v5,2020.2.10,MacIntel,60,61025ae37ef11b136ea224fe,,,,,,,,,617,-68.46484375,-45.87109375,1,0,0,response5disk,,2,-4.6953125,-8.8515625,1,0,0,rectangle,-4.6953125,-8.8515625,1,0,0,-4.6953125,-8.8515625,1,0,0,0,132,132,109,1,,,,,,,,
,,,,,,,,,,,,,FF,,,,,,,,1.750465,,,,,,,,,,,,,,,,,,,,,,6102195038f3ffcb73225853,61036e15010ff41eda27ab20,2021-07-29_23h13.03.414,Simcolourproject_2stim_asymm_v5,2020.2.10,MacIntel,60,61025ae37ef11b136ea224fe,,,,,,,,,2692,64.04296875,-29.73046875,1,0,0,response3disk,,5,14.39453125,-8.63671875,1,0,0,rectangle,14.39453125,-8.63671875,1,0,0,14.39453125,-8.63671875,1,0,0,0,133,133,13,1,,,,,,,,
,,,,,,,,,,,,,FF,,,,,,,,1.4503,,,,,,,,,,,,,,,,,,,,,,6102195038f3ffcb73225853,61036e15010ff41eda27ab20,2021-07-29_23h13.03.414,Simcolourproject_2stim_asymm_v5,2020.2.10,MacIntel,60,61025ae37ef11b136ea224fe,,,,,,,,,512,43.89453125,-54.9765625,1,0,0,response3disk,,4,1.890625,0.66796875,1,0,0,rectangle,1.890625,0.66796875,1,0,0,1.890625,0.66796875,1,0,0,0,134,134,62,1,,,,,,,,
,,,,,,,,,,,,,FF,,,,,,,,1.033085,,,,,,,,,,,,,,,,,,,,,,6102195038f3ffcb73225853,61036e15010ff41eda27ab20,2021-07-29_23h13.03.414,Simcolourproject_2stim_asymm_v5,2020.2.10,MacIntel,60,61025ae37ef11b136ea224fe,,,,,,,,,4200,-73.578125,41.25390625,1,0,0,response7disk,,1,-12.1328125,5.60546875,1,0,0,rectangle,-91.59375,32.375,1,0,0,-14.33984375,-3.84375,1,0,0,0,135,135,121,1,,response7disk_3,TRUE,1,1,"[136,299,225,242,179,288,290,256,297,318,101,300,129,221,219,78,225,195,259,29]",1.58289,rectangle
,,,,,,,,,,,,,FF,,,,,,,,0.78366,,,,,,,,,,,,,,,,,,,,,,6102195038f3ffcb73225853,61036e15010ff41eda27ab20,2021-07-29_23h13.03.414,Simcolourproject_2stim_asymm_v5,2020.2.10,MacIntel,60,61025ae37ef11b136ea224fe,,,,,,,,,4356,-35.24609375,77.53515625,1,0,0,response7disk,,0,-6.43359375,7.62890625,1,0,0,rectangle,-6.43359375,7.62890625,1,0,0,-6.43359375,7.62890625,1,0,0,0,136,136,117,1,,,,,,,,
,,,,,,,,,,,,,FF,,,,,,,,1.950895,,,,,,,,,,,,,,,,,,,,,,6102195038f3ffcb73225853,61036e15010ff41eda27ab20,2021-07-29_23h13.03.414,Simcolourproject_2stim_asymm_v5,2020.2.10,MacIntel,60,61025ae37ef11b136ea224fe,,,,,,,,,517,-65.40625,-50.14453125,1,0,0,response5disk,,2,1.484375,-5.1328125,1,0,0,rectangle,1.484375,-5.1328125,1,0,0,1.484375,-5.1328125,1,0,0,0,137,137,133,1,,,,,,,,
,,,,,,,,,,,,,FF,,,,,,,,0.785045,,,,,,,,,,,,,,,,,,,,,,6102195038f3ffcb73225853,61036e15010ff41eda27ab20,2021-07-29_23h13.03.414,Simcolourproject_2stim_asymm_v5,2020.2.10,MacIntel,60,61025ae37ef11b136ea224fe,,,,,,,,,1370,-92.23828125,46.2578125,1,0,0,response7disk,,1,-34.06640625,7.39453125,1,0,0,rectangle,-34.06640625,7.39453125,1,0,0,-34.06640625,7.39453125,1,0,0,0,138,138,136,1,,,,,,,,
,,,,,,,,,,,,,FF,,,,,,,,1.134335,,,,,,,,,,,,,,,,,,,,,,6102195038f3ffcb73225853,61036e15010ff41eda27ab20,2021-07-29_23h13.03.414,Simcolourproject_2stim_asymm_v5,2020.2.10,MacIntel,60,61025ae37ef11b136ea224fe,,,,,,,,,867,76.8359375,-47.890625,1,0,0,response3disk,,5,-8.38671875,0.515625,1,0,0,rectangle,-8.38671875,0.515625,1,0,0,-8.38671875,0.515625,1,0,0,0,139,139,25,1,,,,,,,,
,,,,,,,,,,,,,FF,,,,,,,,2.101025,,,,,,,,,,,,,,,,,,,,,,6102195038f3ffcb73225853,61036e15010ff41eda27ab20,2021-07-29_23h13.03.414,Simcolourproject_2stim_asymm_v5,2020.2.10,MacIntel,60,61025ae37ef11b136ea224fe,,,,,,,,,3573,79.83203125,-29.01953125,1,0,0,response3disk,,5,-5.72265625,7.9453125,1,0,0,rectangle,-5.72265625,7.9453125,1,0,0,-5.72265625,7.9453125,1,0,0,0,140,140,110,1,,,,,,,,
,,,,,,,,,,,,,FF,,,,,,,,2.04932,,,,,,,,,,,,,,,,,,,,,,6102195038f3ffcb73225853,61036e15010ff41eda27ab20,2021-07-29_23h13.03.414,Simcolourproject_2stim_asymm_v5,2020.2.10,MacIntel,60,61025ae37ef11b136ea224fe,,,,,,,,,395,81.39453125,49.57421875,1,0,0,response1disk,,6,-19.171875,7.89453125,1,0,0,rectangle,-19.171875,7.89453125,1,0,0,-19.171875,7.89453125,1,0,0,0,141,141,55,1,,,,,,,,
,,,,,,,,,,,,,FF,,,,,,,,3.23333,,,,,,,,,,,,,,,,,,,,,,6102195038f3ffcb73225853,61036e15010ff41eda27ab20,2021-07-29_23h13.03.414,Simcolourproject_2stim_asymm_v5,2020.2.10,MacIntel,60,61025ae37ef11b136ea224fe,,,,,,,,,1569,36.2109375,-70.14453125,1,0,0,response3disk,,4,4.08984375,-8.6171875,1,0,0,rectangle,4.08984375,-8.6171875,1,0,0,4.08984375,-8.6171875,1,0,0,0,142,142,37,1,,,,,,,,
,,,,,,,,,,,,,FF,,,,,,,,1.016825,,,,,,,,,,,,,,,,,,,,,,6102195038f3ffcb73225853,61036e15010ff41eda27ab20,2021-07-29_23h13.03.414,Simcolourproject_2stim_asymm_v5,2020.2.10,MacIntel,60,61025ae37ef11b136ea224fe,,,,,,,,,2781,-58.484375,20.57421875,1,0,0,response7disk,,1,4.4765625,-4.609375,1,0,0,rectangle,4.4765625,-4.609375,1,0,0,4.4765625,-4.609375,1,0,0,0,143,143,159,1,,,,,,,,
,,,,,,,,,,,,,FF,,,,,,,,0.76703,,,,,,,,,,,,,,,,,,,,,,6102195038f3ffcb73225853,61036e15010ff41eda27ab20,2021-07-29_23h13.03.414,Simcolourproject_2stim_asymm_v5,2020.2.10,MacIntel,60,61025ae37ef11b136ea224fe,,,,,,,,,1458,-45.9296875,36.9921875,1,0,0,response7disk,,1,-2.1640625,7.1015625,1,0,0,rectangle,-2.1640625,7.1015625,1,0,0,-2.1640625,7.1015625,1,0,0,0,144,144,5,1,,,,,,,,
,,,,,,,,,,,,,FF,,,,,,,,1.050065,,,,,,,,,,,,,,,,,,,,,,6102195038f3ffcb73225853,61036e15010ff41eda27ab20,2021-07-29_23h13.03.414,Simcolourproject_2stim_asymm_v5,2020.2.10,MacIntel,60,61025ae37ef11b136ea224fe,,,,,,,,,982,-66.8359375,-36.3828125,1,0,0,response5disk,,2,12.21484375,-3.04296875,1,0,0,rectangle,12.21484375,-3.04296875,1,0,0,12.21484375,-3.04296875,1,0,0,0,145,145,93,1,,,,,,,,
,,,,,,,,,,,,,FF,,,,,,,,2.900945,,,,,,,,,,,,,,,,,,,,,,6102195038f3ffcb73225853,61036e15010ff41eda27ab20,2021-07-29_23h13.03.414,Simcolourproject_2stim_asymm_v5,2020.2.10,MacIntel,60,61025ae37ef11b136ea224fe,,,,,,,,,1742,82.1015625,-21.625,1,0,0,response3disk,,5,-19.23828125,7.234375,1,0,0,rectangle,-19.23828125,7.234375,1,0,0,-19.23828125,7.234375,1,0,0,0,146,146,19,1,,,,,,,,
,,,,,,,,,,,,,FF,,,,,,,,1.23409,,,,,,,,,,,,,,,,,,,,,,6102195038f3ffcb73225853,61036e15010ff41eda27ab20,2021-07-29_23h13.03.414,Simcolourproject_2stim_asymm_v5,2020.2.10,MacIntel,60,61025ae37ef11b136ea224fe,,,,,,,,,3864,-39.37109375,-50.71875,1,0,0,response5disk,,3,-2.21875,-4.8125,1,0,0,rectangle,-2.21875,-4.8125,1,0,0,-2.21875,-4.8125,1,0,0,0,147,147,111,1,,,,,,,,
,,,,,,,,,,,,,FF,,,,,,,,1.100965,,,,,,,,,,,,,,,,,,,,,,6102195038f3ffcb73225853,61036e15010ff41eda27ab20,2021-07-29_23h13.03.414,Simcolourproject_2stim_asymm_v5,2020.2.10,MacIntel,60,61025ae37ef11b136ea224fe,,,,,,,,,2899,-69.80859375,43.61328125,0,0,1,response7disk,,1,-34.34765625,6.1015625,1,0,1,rectangle,-34.34765625,6.1015625,1,0,1,-34.34765625,6.1015625,1,0,1,0,148,148,146,1,,,,,,,,
,,,,,,,,,,,,,FF,,,,,,,,1.06714,,,,,,,,,,,,,,,,,,,,,,6102195038f3ffcb73225853,61036e15010ff41eda27ab20,2021-07-29_23h13.03.414,Simcolourproject_2stim_asymm_v5,2020.2.10,MacIntel,60,61025ae37ef11b136ea224fe,,,,,,,,,2786,-72.09765625,-32.4609375,1,0,1,response5disk,,2,4.9609375,-2.04296875,1,0,1,rectangle,4.9609375,-2.04296875,1,0,1,4.9609375,-2.04296875,1,0,1,0,149,149,52,1,,,,,,,,
,,,,,,,,,,,,,FF,,,,,,,,0.949575,,,,,,,,,,,,,,,,,,,,,,6102195038f3ffcb73225853,61036e15010ff41eda27ab20,2021-07-29_23h13.03.414,Simcolourproject_2stim_asymm_v5,2020.2.10,MacIntel,60,61025ae37ef11b136ea224fe,,,,,,,,,835,34.08984375,-47.77734375,1,0,1,response3disk,,4,4.23046875,7.6953125,1,0,1,rectangle,4.23046875,7.6953125,1,0,1,4.23046875,7.6953125,1,0,1,0,150,150,91,1,,,,,,,,
,,,,,,,,,,,,,FF,,,,,,,,1.19927,,,,,,,,,,,,,,,,,,,,,,6102195038f3ffcb73225853,61036e15010ff41eda27ab20,2021-07-29_23h13.03.414,Simcolourproject_2stim_asymm_v5,2020.2.10,MacIntel,60,61025ae37ef11b136ea224fe,,,,,,,,,817,-89.28125,-44,1,0,1,response5disk,,2,-8.59765625,-13.828125,1,0,1,rectangle,-8.59765625,-13.828125,1,0,1,-8.59765625,-13.828125,1,0,1,0,151,151,97,1,,,,,,,,
,,,,,,,,,,,,,FF,,,,,,,,1.251515,,,,,,,,,,,,,,,,,,,,,,6102195038f3ffcb73225853,61036e15010ff41eda27ab20,2021-07-29_23h13.03.414,Simcolourproject_2stim_asymm_v5,2020.2.10,MacIntel,60,61025ae37ef11b136ea224fe,,,,,,,,,1094,48.69921875,-74.52734375,1,0,1,response3disk,,4,14.59765625,2.59765625,1,0,1,rectangle,14.59765625,2.59765625,1,0,1,14.59765625,2.59765625,1,0,1,0,152,152,16,1,,,,,,,,
,,,,,,,,,,,,,FF,,,,,,,,1.900425,,,,,,,,,,,,,,,,,,,,,,6102195038f3ffcb73225853,61036e15010ff41eda27ab20,2021-07-29_23h13.03.414,Simcolourproject_2stim_asymm_v5,2020.2.10,MacIntel,60,61025ae37ef11b136ea224fe,,,,,,,,,2434,-38.62109375,-54.48828125,1,0,1,response5disk,,3,7.94140625,-15.81640625,1,0,1,rectangle,7.94140625,-15.81640625,1,0,1,7.94140625,-15.81640625,1,0,1,0,153,153,35,1,,,,,,,,
,,,,,,,,,,,,,FF,,,,,,,,1.032615,,,,,,,,,,,,,,,,,,,,,,6102195038f3ffcb73225853,61036e15010ff41eda27ab20,2021-07-29_23h13.03.414,Simcolourproject_2stim_asymm_v5,2020.2.10,MacIntel,60,61025ae37ef11b136ea224fe,,,,,,,,,2459,106.6484375,33.453125,1,0,1,response1disk,,6,10.91015625,4.55859375,1,0,1,rectangle,10.91015625,4.55859375,1,0,1,10.91015625,4.55859375,1,0,1,0,154,154,51,1,,,,,,,,
,,,,,,,,,,,,,FF,,,,,,,,1.61798,,,,,,,,,,,,,,,,,,,,,,6102195038f3ffcb73225853,61036e15010ff41eda27ab20,2021-07-29_23h13.03.414,Simcolourproject_2stim_asymm_v5,2020.2.10,MacIntel,60,61025ae37ef11b136ea224fe,,,,,,,,,881,61.97265625,-25.8359375,1,0,1,response3disk,,5,10.1015625,-6.8671875,1,0,1,rectangle,10.1015625,-6.8671875,1,0,1,10.1015625,-6.8671875,1,0,1,0,155,155,0,1,,,,,,,,
,,,,,,,,,,,,,FF,,,,,,,,1.183485,,,,,,,,,,,,,,,,,,,,,,6102195038f3ffcb73225853,61036e15010ff41eda27ab20,2021-07-29_23h13.03.414,Simcolourproject_2stim_asymm_v5,2020.2.10,MacIntel,60,61025ae37ef11b136ea224fe,,,,,,,,,4166,-46.1796875,-33.0703125,1,0,1,response5disk,,2,20.9765625,15.3828125,1,0,1,rectangle,20.9765625,15.3828125,1,0,1,20.9765625,15.3828125,1,0,1,0,156,156,9,1,,,,,,,,
,,,,,,,,,,,,,FF,,,,,,,,1.184655,,,,,,,,,,,,,,,,,,,,,,6102195038f3ffcb73225853,61036e15010ff41eda27ab20,2021-07-29_23h13.03.414,Simcolourproject_2stim_asymm_v5,2020.2.10,MacIntel,60,61025ae37ef11b136ea224fe,,,,,,,,,3100,-55.8671875,41.21875,1,0,1,response7disk,,1,-4.12109375,16.97265625,1,0,1,rectangle,-4.12109375,16.97265625,1,0,1,-4.12109375,16.97265625,1,0,1,0,157,157,103,1,,,,,,,,
,,,,,,,,,,,,,FF,,,,,,,,0.68474,,,,,,,,,,,,,,,,,,,,,,6102195038f3ffcb73225853,61036e15010ff41eda27ab20,2021-07-29_23h13.03.414,Simcolourproject_2stim_asymm_v5,2020.2.10,MacIntel,60,61025ae37ef11b136ea224fe,,,,,,,,,3247,-60.4296875,30.13671875,1,0,1,response7disk,,1,-19.4921875,6.47265625,1,0,1,rectangle,-19.4921875,6.47265625,1,0,1,-19.4921875,6.47265625,1,0,1,0,158,158,63,1,,,,,,,,
,,,,,,,,,,,,,FF,,,,,,,,1.20001,,,,,,,,,,,,,,,,,,,,,,6102195038f3ffcb73225853,61036e15010ff41eda27ab20,2021-07-29_23h13.03.414,Simcolourproject_2stim_asymm_v5,2020.2.10,MacIntel,60,61025ae37ef11b136ea224fe,,,,,,,,,2797,-30.15234375,-55.0078125,1,0,1,response5disk,,3,25.91796875,-2.96484375,1,0,1,rectangle,25.91796875,-2.96484375,1,0,1,25.91796875,-2.96484375,1,0,1,0,159,159,61,1,,,,,,,,
,,,,,,,,,,,,,FF,,,,,,,,1.100475,,,,,,,,,,,,,,,,,,,,,,6102195038f3ffcb73225853,61036e15010ff41eda27ab20,2021-07-29_23h13.03.414,Simcolourproject_2stim_asymm_v5,2020.2.10,MacIntel,60,61025ae37ef11b136ea224fe,,,,,,,,,1127,50.2109375,-29.37109375,1,0,1,response3disk,,5,16.109375,6.2265625,1,0,1,rectangle,16.109375,6.2265625,1,0,1,16.109375,6.2265625,1,0,1,1,0,160,16,1,,,,,,,,
,,,,,,,,,,,,,FF,,,,,,,,2.666165,,,,,,,,,,,,,,,,,,,,,,6102195038f3ffcb73225853,61036e15010ff41eda27ab20,2021-07-29_23h13.03.414,Simcolourproject_2stim_asymm_v5,2020.2.10,MacIntel,60,61025ae37ef11b136ea224fe,,,,,,,,,930,41.0703125,-70.68359375,1,0,1,response3disk,,4,32.8046875,-1.640625,1,0,1,rectangle,32.8046875,-1.640625,1,0,1,32.8046875,-1.640625,1,0,1,1,1,161,148,1,,,,,,,,
,,,,,,,,,,,,,FF,,,,,,,,1.116125,,,,,,,,,,,,,,,,,,,,,,6102195038f3ffcb73225853,61036e15010ff41eda27ab20,2021-07-29_23h13.03.414,Simcolourproject_2stim_asymm_v5,2020.2.10,MacIntel,60,61025ae37ef11b136ea224fe,,,,,,,,,4005,-43.4375,-68.62109375,1,0,1,response5disk,,3,2.234375,13.05859375,1,0,1,rectangle,2.234375,13.05859375,1,0,1,2.234375,13.05859375,1,0,1,1,2,162,27,1,,,,,,,,
,,,,,,,,,,,,,FF,,,,,,,,1.13394,,,,,,,,,,,,,,,,,,,,,,6102195038f3ffcb73225853,61036e15010ff41eda27ab20,2021-07-29_23h13.03.414,Simcolourproject_2stim_asymm_v5,2020.2.10,MacIntel,60,61025ae37ef11b136ea224fe,,,,,,,,,4241,-64.80078125,-28.08984375,1,0,1,response5disk,,2,-8.26171875,-11.83984375,1,0,1,rectangle,-8.26171875,-11.83984375,1,0,1,-8.26171875,-11.83984375,1,0,1,1,3,163,118,1,,,,,,,,
,,,,,,,,,,,,,FF,,,,,,,,0.99996,,,,,,,,,,,,,,,,,,,,,,6102195038f3ffcb73225853,61036e15010ff41eda27ab20,2021-07-29_23h13.03.414,Simcolourproject_2stim_asymm_v5,2020.2.10,MacIntel,60,61025ae37ef11b136ea224fe,,,,,,,,,1933,69.46484375,-32.01953125,1,0,1,response3disk,,5,6.20703125,5.40625,1,0,1,rectangle,6.20703125,5.40625,1,0,1,6.20703125,5.40625,1,0,1,1,4,164,8,1,,,,,,,,
,,,,,,,,,,,,,FF,,,,,,,,0.86701,,,,,,,,,,,,,,,,,,,,,,6102195038f3ffcb73225853,61036e15010ff41eda27ab20,2021-07-29_23h13.03.414,Simcolourproject_2stim_asymm_v5,2020.2.10,MacIntel,60,61025ae37ef11b136ea224fe,,,,,,,,,1802,74.5546875,22.2890625,1,0,1,response1disk,,6,10.234375,9.30859375,1,0,1,rectangle,10.234375,9.30859375,1,0,1,10.234375,9.30859375,1,0,1,1,5,165,116,1,,,,,,,,
,,,,,,,,,,,,,FF,,,,,,,,0.7828,,,,,,,,,,,,,,,,,,,,,,6102195038f3ffcb73225853,61036e15010ff41eda27ab20,2021-07-29_23h13.03.414,Simcolourproject_2stim_asymm_v5,2020.2.10,MacIntel,60,61025ae37ef11b136ea224fe,,,,,,,,,717,-45.40234375,61.71875,1,0,1,response7disk,,0,-5.89453125,-8.1875,1,0,1,rectangle,-5.89453125,-8.1875,1,0,1,-5.89453125,-8.1875,1,0,1,1,6,166,122,1,,,,,,,,
,,,,,,,,,,,,,FF,,,,,,,,1.249895,,,,,,,,,,,,,,,,,,,,,,6102195038f3ffcb73225853,61036e15010ff41eda27ab20,2021-07-29_23h13.03.414,Simcolourproject_2stim_asymm_v5,2020.2.10,MacIntel,60,61025ae37ef11b136ea224fe,,,,,,,,,878,89.80859375,22.57421875,1,0,1,response1disk,,6,-2.1875,10.66015625,1,0,1,rectangle,-2.1875,10.66015625,1,0,1,-2.1875,10.66015625,1,0,1,1,7,167,46,1,,,,,,,,
,,,,,,,,,,,,,FF,,,,,,,,1.46562,,,,,,,,,,,,,,,,,,,,,,6102195038f3ffcb73225853,61036e15010ff41eda27ab20,2021-07-29_23h13.03.414,Simcolourproject_2stim_asymm_v5,2020.2.10,MacIntel,60,61025ae37ef11b136ea224fe,,,,,,,,,1836,-42.19140625,-55.5390625,1,0,1,response5disk,,3,10.96875,-5.38671875,1,0,1,rectangle,10.96875,-5.38671875,1,0,1,10.96875,-5.38671875,1,0,1,1,8,168,106,1,,,,,,,,
,,,,,,,,,,,,,FF,,,,,,,,1.000265,,,,,,,,,,,,,,,,,,,,,,6102195038f3ffcb73225853,61036e15010ff41eda27ab20,2021-07-29_23h13.03.414,Simcolourproject_2stim_asymm_v5,2020.2.10,MacIntel,60,61025ae37ef11b136ea224fe,,,,,,,,,4321,48.36328125,-25.35546875,1,0,1,response3disk,,5,13.26953125,-16.96484375,1,0,1,rectangle,13.26953125,-16.96484375,1,0,1,13.26953125,-16.96484375,1,0,1,1,9,169,86,1,,,,,,,,
,,,,,,,,,,,,,FF,,,,,,,,0.91691,,,,,,,,,,,,,,,,,,,,,,6102195038f3ffcb73225853,61036e15010ff41eda27ab20,2021-07-29_23h13.03.414,Simcolourproject_2stim_asymm_v5,2020.2.10,MacIntel,60,61025ae37ef11b136ea224fe,,,,,,,,,1901,-53.43359375,-19.2109375,1,0,1,response5disk,,2,-11.1953125,-5.6875,1,0,1,rectangle,-11.1953125,-5.6875,1,0,1,-11.1953125,-5.6875,1,0,1,1,10,170,87,1,,,,,,,,
,,,,,,,,,,,,,FF,,,,,,,,1.833785,,,,,,,,,,,,,,,,,,,,,,6102195038f3ffcb73225853,61036e15010ff41eda27ab20,2021-07-29_23h13.03.414,Simcolourproject_2stim_asymm_v5,2020.2.10,MacIntel,60,61025ae37ef11b136ea224fe,,,,,,,,,337,-45.8046875,-30.80078125,1,0,1,response5disk,,2,-4.38671875,-5.17578125,1,0,1,rectangle,-4.38671875,-5.17578125,1,0,1,-4.38671875,-5.17578125,1,0,1,1,11,171,104,1,,,,,,,,
,,,,,,,,,,,,,FF,,,,,,,,1.41787,,,,,,,,,,,,,,,,,,,,,,6102195038f3ffcb73225853,61036e15010ff41eda27ab20,2021-07-29_23h13.03.414,Simcolourproject_2stim_asymm_v5,2020.2.10,MacIntel,60,61025ae37ef11b136ea224fe,,,,,,,,,4217,64.2109375,-18.3203125,1,0,1,response3disk,,5,3.59765625,1.58984375,1,0,1,rectangle,3.59765625,1.58984375,1,0,1,3.59765625,1.58984375,1,0,1,1,12,172,34,1,,,,,,,,
,,,,,,,,,,,,,FF,,,,,,,,2.004105,,,,,,,,,,,,,,,,,,,,,,6102195038f3ffcb73225853,61036e15010ff41eda27ab20,2021-07-29_23h13.03.414,Simcolourproject_2stim_asymm_v5,2020.2.10,MacIntel,60,61025ae37ef11b136ea224fe,,,,,,,,,3365,91.828125,20.3046875,1,0,1,response1disk,,6,11.15234375,2.4296875,1,0,1,rectangle,11.15234375,2.4296875,1,0,1,11.15234375,2.4296875,1,0,1,1,13,173,85,1,,,,,,,,
,,,,,,,,,,,,,FF,,,,,,,,2.532555,,,,,,,,,,,,,,,,,,,,,,6102195038f3ffcb73225853,61036e15010ff41eda27ab20,2021-07-29_23h13.03.414,Simcolourproject_2stim_asymm_v5,2020.2.10,MacIntel,60,61025ae37ef11b136ea224fe,,,,,,,,,49,40.1796875,-63.91796875,1,0,1,response3disk,,4,22.65625,5.38671875,1,0,1,rectangle,22.65625,5.38671875,1,0,1,22.65625,5.38671875,1,0,1,1,14,174,52,1,,,,,,,,
,,,,,,,,,,,,,FF,,,,,,,,0.96744,,,,,,,,,,,,,,,,,,,,,,6102195038f3ffcb73225853,61036e15010ff41eda27ab20,2021-07-29_23h13.03.414,Simcolourproject_2stim_asymm_v5,2020.2.10,MacIntel,60,61025ae37ef11b136ea224fe,,,,,,,,,2999,-75.9140625,44.76171875,1,0,1,response7disk,,1,-13.7109375,-5.58203125,1,0,1,rectangle,-13.7109375,-5.58203125,1,0,1,-13.7109375,-5.58203125,1,0,1,1,15,175,56,1,,,,,,,,
,,,,,,,,,,,,,FF,,,,,,,,2.98381,,,,,,,,,,,,,,,,,,,,,,6102195038f3ffcb73225853,61036e15010ff41eda27ab20,2021-07-29_23h13.03.414,Simcolourproject_2stim_asymm_v5,2020.2.10,MacIntel,60,61025ae37ef11b136ea224fe,,,,,,,,,2194,-27.0546875,-47.19140625,1,0,1,response5disk,,3,8.11328125,-9.3515625,1,0,1,rectangle,8.11328125,-9.3515625,1,0,1,8.11328125,-9.3515625,1,0,1,1,16,176,143,1,,,,,,,,
,,,,,,,,,,,,,FF,,,,,,,,1.283295,,,,,,,,,,,,,,,,,,,,,,6102195038f3ffcb73225853,61036e15010ff41eda27ab20,2021-07-29_23h13.03.414,Simcolourproject_2stim_asymm_v5,2020.2.10,MacIntel,60,61025ae37ef11b136ea224fe,,,,,,,,,3078,55.578125,-25.9140625,1,0,1,response3disk,,5,26.96875,-5.51953125,1,0,1,rectangle,26.96875,-5.51953125,1,0,1,26.96875,-5.51953125,1,0,1,1,17,177,99,1,,,,,,,,
,,,,,,,,,,,,,FF,,,,,,,,0.96687,,,,,,,,,,,,,,,,,,,,,,6102195038f3ffcb73225853,61036e15010ff41eda27ab20,2021-07-29_23h13.03.414,Simcolourproject_2stim_asymm_v5,2020.2.10,MacIntel,60,61025ae37ef11b136ea224fe,,,,,,,,,2615,-57.23046875,22.7421875,1,0,1,response7disk,,1,-12.68359375,2.32421875,1,0,1,rectangle,-36.875,-66.03515625,1,0,1,22.38671875,1.54296875,1,0,1,1,18,178,70,1,,response5disk_3,TRUE,3,3,"[136,299,225,242,179,288,290,256,297,318,101,300,129,221,219,78,225,195,259,29]",2.085415,rectangle
,,,,,,,,,,,,,FF,,,,,,,,0.818355,,,,,,,,,,,,,,,,,,,,,,6102195038f3ffcb73225853,61036e15010ff41eda27ab20,2021-07-29_23h13.03.414,Simcolourproject_2stim_asymm_v5,2020.2.10,MacIntel,60,61025ae37ef11b136ea224fe,,,,,,,,,2420,-76.32421875,21.9296875,1,0,1,response7disk,,1,-27.55078125,9.20703125,1,0,1,rectangle,-27.55078125,9.20703125,1,0,1,-27.55078125,9.20703125,1,0,1,1,19,179,147,1,,,,,,,,
,,,,,,,,,,,,,FF,,,,,,,,0.607955,,,,,,,,,,,,,,,,,,,,,,6102195038f3ffcb73225853,61036e15010ff41eda27ab20,2021-07-29_23h13.03.414,Simcolourproject_2stim_asymm_v5,2020.2.10,MacIntel,60,61025ae37ef11b136ea224fe,,,,,,,,,2661,-41.484375,19.2890625,1,0,1,response7disk,,1,9.1171875,-3.6875,1,0,1,rectangle,9.1171875,-3.6875,1,0,1,9.1171875,-3.6875,1,0,1,1,20,180,138,1,,,,,,,,
,,,,,,,,,,,,,FF,,,,,,,,1.01986,,,,,,,,,,,,,,,,,,,,,,6102195038f3ffcb73225853,61036e15010ff41eda27ab20,2021-07-29_23h13.03.414,Simcolourproject_2stim_asymm_v5,2020.2.10,MacIntel,60,61025ae37ef11b136ea224fe,,,,,,,,,1534,-66.28125,-25.98046875,1,0,1,response5disk,,2,11.65625,-9.71484375,1,0,1,rectangle,11.65625,-9.71484375,1,0,1,11.65625,-9.71484375,1,0,1,1,21,181,60,1,,,,,,,,
,,,,,,,,,,,,,FF,,,,,,,,0.85041,,,,,,,,,,,,,,,,,,,,,,6102195038f3ffcb73225853,61036e15010ff41eda27ab20,2021-07-29_23h13.03.414,Simcolourproject_2stim_asymm_v5,2020.2.10,MacIntel,60,61025ae37ef11b136ea224fe,,,,,,,,,3110,-57.17578125,-33.921875,1,0,1,response5disk,,2,11.95703125,-13.58984375,1,0,1,rectangle,11.95703125,-13.58984375,1,0,1,11.95703125,-13.58984375,1,0,1,1,22,182,13,1,,,,,,,,
,,,,,,,,,,,,,FF,,,,,,,,0.766335,,,,,,,,,,,,,,,,,,,,,,6102195038f3ffcb73225853,61036e15010ff41eda27ab20,2021-07-29_23h13.03.414,Simcolourproject_2stim_asymm_v5,2020.2.10,MacIntel,60,61025ae37ef11b136ea224fe,,,,,,,,,365,55.73828125,-16.91796875,1,0,1,response3disk,,5,10.234375,-0.609375,1,0,1,rectangle,10.234375,-0.609375,1,0,1,10.234375,-0.609375,1,0,1,1,23,183,41,1,,,,,,,,
,,,,,,,,,,,,,FF,,,,,,,,1.41671,,,,,,,,,,,,,,,,,,,,,,6102195038f3ffcb73225853,61036e15010ff41eda27ab20,2021-07-29_23h13.03.414,Simcolourproject_2stim_asymm_v5,2020.2.10,MacIntel,60,61025ae37ef11b136ea224fe,,,,,,,,,3735,-64.15625,-23.796875,1,0,1,response5disk,,2,-8.9921875,-3.39453125,1,0,1,rectangle,-8.9921875,-3.39453125,1,0,1,-8.9921875,-3.39453125,1,0,1,1,24,184,38,1,,,,,,,,
,,,,,,,,,,,,,FF,,,,,,,,0.83354,,,,,,,,,,,,,,,,,,,,,,6102195038f3ffcb73225853,61036e15010ff41eda27ab20,2021-07-29_23h13.03.414,Simcolourproject_2stim_asymm_v5,2020.2.10,MacIntel,60,61025ae37ef11b136ea224fe,,,,,,,,,2782,-63.01953125,32.50390625,1,0,1,response7disk,,1,-21.984375,14.34375,1,0,1,rectangle,-21.984375,14.34375,1,0,1,-21.984375,14.34375,1,0,1,1,25,185,133,1,,,,,,,,
,,,,,,,,,,,,,FF,,,,,,,,1.783635,,,,,,,,,,,,,,,,,,,,,,6102195038f3ffcb73225853,61036e15010ff41eda27ab20,2021-07-29_23h13.03.414,Simcolourproject_2stim_asymm_v5,2020.2.10,MacIntel,60,61025ae37ef11b136ea224fe,,,,,,,,,598,41.2421875,-55.828125,1,0,1,response3disk,,4,-19.28125,6.0859375,1,0,1,rectangle,-19.28125,6.0859375,1,0,1,-19.28125,6.0859375,1,0,1,1,26,186,28,1,,,,,,,,
,,,,,,,,,,,,,FF,,,,,,,,0.885165,,,,,,,,,,,,,,,,,,,,,,6102195038f3ffcb73225853,61036e15010ff41eda27ab20,2021-07-29_23h13.03.414,Simcolourproject_2stim_asymm_v5,2020.2.10,MacIntel,60,61025ae37ef11b136ea224fe,,,,,,,,,2022,79.765625,-31.1953125,1,0,1,response3disk,,5,-15.0234375,8.64453125,1,0,1,rectangle,-15.0234375,8.64453125,1,0,1,-15.0234375,8.64453125,1,0,1,1,27,187,10,1,,,,,,,,
,,,,,,,,,,,,,FF,,,,,,,,0.799,,,,,,,,,,,,,,,,,,,,,,6102195038f3ffcb73225853,61036e15010ff41eda27ab20,2021-07-29_23h13.03.414,Simcolourproject_2stim_asymm_v5,2020.2.10,MacIntel,60,61025ae37ef11b136ea224fe,,,,,,,,,347,-74.25390625,31.19140625,1,0,1,response7disk,,1,-26.65234375,7.09375,1,0,1,rectangle,-26.65234375,7.09375,1,0,1,-26.65234375,7.09375,1,0,1,1,28,188,33,1,,,,,,,,
,,,,,,,,,,,,,FF,,,,,,,,0.666985,,,,,,,,,,,,,,,,,,,,,,6102195038f3ffcb73225853,61036e15010ff41eda27ab20,2021-07-29_23h13.03.414,Simcolourproject_2stim_asymm_v5,2020.2.10,MacIntel,60,61025ae37ef11b136ea224fe,,,,,,,,,3189,-72.1640625,34.10546875,1,0,1,response7disk,,1,-17,9.1328125,1,0,1,rectangle,-17,9.1328125,1,0,1,-17,9.1328125,1,0,1,1,29,189,90,1,,,,,,,,
,,,,,,,,,,,,,FF,,,,,,,,0.882535,,,,,,,,,,,,,,,,,,,,,,6102195038f3ffcb73225853,61036e15010ff41eda27ab20,2021-07-29_23h13.03.414,Simcolourproject_2stim_asymm_v5,2020.2.10,MacIntel,60,61025ae37ef11b136ea224fe,,,,,,,,,1243,73.84375,36.1484375,1,0,1,response1disk,,6,19.18359375,4.96875,1,0,1,rectangle,19.18359375,4.96875,1,0,1,19.18359375,4.96875,1,0,1,1,30,190,126,1,,,,,,,,
,,,,,,,,,,,,,FF,,,,,,,,2.08373,,,,,,,,,,,,,,,,,,,,,,6102195038f3ffcb73225853,61036e15010ff41eda27ab20,2021-07-29_23h13.03.414,Simcolourproject_2stim_asymm_v5,2020.2.10,MacIntel,60,61025ae37ef11b136ea224fe,,,,,,,,,1558,59.359375,-35.55859375,1,0,1,response3disk,,5,0.32421875,-10.8828125,1,0,1,rectangle,0.32421875,-10.8828125,1,0,1,0.32421875,-10.8828125,1,0,1,1,31,191,9,1,,,,,,,,
,,,,,,,,,,,,,FF,,,,,,,,0.851495,,,,,,,,,,,,,,,,,,,,,,6102195038f3ffcb73225853,61036e15010ff41eda27ab20,2021-07-29_23h13.03.414,Simcolourproject_2stim_asymm_v5,2020.2.10,MacIntel,60,61025ae37ef11b136ea224fe,,,,,,,,,610,-60.80859375,-30.890625,1,0,1,response5disk,,2,16.66015625,-14.03125,1,0,1,rectangle,16.66015625,-14.03125,1,0,1,16.66015625,-14.03125,1,0,1,1,32,192,111,1,,,,,,,,
,,,,,,,,,,,,,FF,,,,,,,,0.75046,,,,,,,,,,,,,,,,,,,,,,6102195038f3ffcb73225853,61036e15010ff41eda27ab20,2021-07-29_23h13.03.414,Simcolourproject_2stim_asymm_v5,2020.2.10,MacIntel,60,61025ae37ef11b136ea224fe,,,,,,,,,2912,-34.59765625,-60.6015625,1,0,1,response5disk,,3,3.828125,0.09375,1,0,1,rectangle,3.828125,0.09375,1,0,1,3.828125,0.09375,1,0,1,1,33,193,84,1,,,,,,,,
,,,,,,,,,,,,,FF,,,,,,,,0.840245,,,,,,,,,,,,,,,,,,,,,,6102195038f3ffcb73225853,61036e15010ff41eda27ab20,2021-07-29_23h13.03.414,Simcolourproject_2stim_asymm_v5,2020.2.10,MacIntel,60,61025ae37ef11b136ea224fe,,,,,,,,,2282,52.35546875,71.57421875,1,0,1,response1disk,,7,9.13671875,-3.1015625,1,0,1,rectangle,113.8164063,47.9921875,1,0,1,0.31640625,-3.21875,1,0,1,1,34,194,12,1,,response1disk_3,TRUE,6,6,"[136,299,225,242,179,288,290,256,297,318,101,300,129,221,219,78,225,195,259,29]",1.69953,rectangle
,,,,,,,,,,,,,FF,,,,,,,,0.833225,,,,,,,,,,,,,,,,,,,,,,6102195038f3ffcb73225853,61036e15010ff41eda27ab20,2021-07-29_23h13.03.414,Simcolourproject_2stim_asymm_v5,2020.2.10,MacIntel,60,61025ae37ef11b136ea224fe,,,,,,,,,3461,-47.27734375,28.65625,1,0,1,response7disk,,1,-5.28515625,-4.640625,1,0,1,rectangle,-5.28515625,-4.640625,1,0,1,-5.28515625,-4.640625,1,0,1,1,35,195,158,1,,,,,,,,
,,,,,,,,,,,,,FF,,,,,,,,0.767475,,,,,,,,,,,,,,,,,,,,,,6102195038f3ffcb73225853,61036e15010ff41eda27ab20,2021-07-29_23h13.03.414,Simcolourproject_2stim_asymm_v5,2020.2.10,MacIntel,60,61025ae37ef11b136ea224fe,,,,,,,,,4035,57.453125,-34.55859375,1,0,1,response3disk,,5,5.32421875,-12.40234375,1,0,1,rectangle,5.32421875,-12.40234375,1,0,1,5.32421875,-12.40234375,1,0,1,1,36,196,112,1,,,,,,,,
,,,,,,,,,,,,,FF,,,,,,,,1.182655,,,,,,,,,,,,,,,,,,,,,,6102195038f3ffcb73225853,61036e15010ff41eda27ab20,2021-07-29_23h13.03.414,Simcolourproject_2stim_asymm_v5,2020.2.10,MacIntel,60,61025ae37ef11b136ea224fe,,,,,,,,,3015,74.18359375,31.4375,1,0,1,response1disk,,6,-4.11328125,5.5,1,0,1,rectangle,-4.11328125,5.5,1,0,1,-4.11328125,5.5,1,0,1,1,37,197,48,1,,,,,,,,
,,,,,,,,,,,,,FF,,,,,,,,1.030455,,,,,,,,,,,,,,,,,,,,,,6102195038f3ffcb73225853,61036e15010ff41eda27ab20,2021-07-29_23h13.03.414,Simcolourproject_2stim_asymm_v5,2020.2.10,MacIntel,60,61025ae37ef11b136ea224fe,,,,,,,,,2062,54.44140625,-46.3359375,1,0,1,response3disk,,5,-16.90234375,2.7265625,1,0,1,rectangle,-16.90234375,2.7265625,1,0,1,-16.90234375,2.7265625,1,0,1,1,38,198,65,1,,,,,,,,
,,,,,,,,,,,,,FF,,,,,,,,0.70053,,,,,,,,,,,,,,,,,,,,,,6102195038f3ffcb73225853,61036e15010ff41eda27ab20,2021-07-29_23h13.03.414,Simcolourproject_2stim_asymm_v5,2020.2.10,MacIntel,60,61025ae37ef11b136ea224fe,,,,,,,,,3994,-61.55078125,22.57421875,1,0,1,response7disk,,1,-7.42578125,-5.1875,1,0,1,rectangle,-7.42578125,-5.1875,1,0,1,-7.42578125,-5.1875,1,0,1,1,39,199,62,1,,,,,,,,
,,,,,,,,,,,,,FF,,,,,,,,0.682765,,,,,,,,,,,,,,,,,,,,,,6102195038f3ffcb73225853,61036e15010ff41eda27ab20,2021-07-29_23h13.03.414,Simcolourproject_2stim_asymm_v5,2020.2.10,MacIntel,60,61025ae37ef11b136ea224fe,,,,,,,,,3814,-74.57421875,38.03125,1,0,1,response7disk,,1,-28.3984375,15.828125,1,0,1,rectangle,-28.3984375,15.828125,1,0,1,-28.3984375,15.828125,1,0,1,1,40,200,159,1,,,,,,,,
,,,,,,,,,,,,,FF,,,,,,,,1.10016,,,,,,,,,,,,,,,,,,,,,,6102195038f3ffcb73225853,61036e15010ff41eda27ab20,2021-07-29_23h13.03.414,Simcolourproject_2stim_asymm_v5,2020.2.10,MacIntel,60,61025ae37ef11b136ea224fe,,,,,,,,,1028,109.453125,-52.859375,1,0,1,response3disk,,5,0.625,-10.8359375,1,0,1,rectangle,0.625,-10.8359375,1,0,1,0.625,-10.8359375,1,0,1,1,41,201,17,1,,,,,,,,
,,,,,,,,,,,,,FF,,,,,,,,1.033005,,,,,,,,,,,,,,,,,,,,,,6102195038f3ffcb73225853,61036e15010ff41eda27ab20,2021-07-29_23h13.03.414,Simcolourproject_2stim_asymm_v5,2020.2.10,MacIntel,60,61025ae37ef11b136ea224fe,,,,,,,,,1293,-44.18359375,36.51171875,1,0,1,response7disk,,1,-3.64453125,4.43359375,1,0,1,rectangle,-3.64453125,4.43359375,1,0,1,-3.64453125,4.43359375,1,0,1,1,42,202,114,1,,,,,,,,
,,,,,,,,,,,,,FF,,,,,,,,2.851295,,,,,,,,,,,,,,,,,,,,,,6102195038f3ffcb73225853,61036e15010ff41eda27ab20,2021-07-29_23h13.03.414,Simcolourproject_2stim_asymm_v5,2020.2.10,MacIntel,60,61025ae37ef11b136ea224fe,,,,,,,,,2379,86.65625,38.19921875,1,0,1,response1disk,,6,31.12890625,1.015625,1,0,1,rectangle,31.12890625,1.015625,1,0,1,31.12890625,1.015625,1,0,1,1,43,203,124,1,,,,,,,,
,,,,,,,,,,,,,FF,,,,,,,,3.06672,,,,,,,,,,,,,,,,,,,,,,6102195038f3ffcb73225853,61036e15010ff41eda27ab20,2021-07-29_23h13.03.414,Simcolourproject_2stim_asymm_v5,2020.2.10,MacIntel,60,61025ae37ef11b136ea224fe,,,,,,,,,829,-72.42578125,-42.421875,1,0,1,response5disk,,2,24.5859375,17.54296875,1,0,1,rectangle,24.5859375,17.54296875,1,0,1,24.5859375,17.54296875,1,0,1,1,44,204,20,1,,,,,,,,
,,,,,,,,,,,,,FF,,,,,,,,0.751155,,,,,,,,,,,,,,,,,,,,,,6102195038f3ffcb73225853,61036e15010ff41eda27ab20,2021-07-29_23h13.03.414,Simcolourproject_2stim_asymm_v5,2020.2.10,MacIntel,60,61025ae37ef11b136ea224fe,,,,,,,,,3384,-51.140625,44.0625,1,0,1,response7disk,,1,-28.31640625,6.79296875,1,0,1,rectangle,-28.31640625,6.79296875,1,0,1,-28.31640625,6.79296875,1,0,1,1,45,205,71,1,,,,,,,,
,,,,,,,,,,,,,FF,,,,,,,,1.13264,,,,,,,,,,,,,,,,,,,,,,6102195038f3ffcb73225853,61036e15010ff41eda27ab20,2021-07-29_23h13.03.414,Simcolourproject_2stim_asymm_v5,2020.2.10,MacIntel,60,61025ae37ef11b136ea224fe,,,,,,,,,223,78.6796875,-44.1796875,1,0,1,response3disk,,5,6.140625,7.75390625,1,0,1,rectangle,6.140625,7.75390625,1,0,1,6.140625,7.75390625,1,0,1,1,46,206,68,1,,,,,,,,
,,,,,,,,,,,,,FF,,,,,,,,1.59987,,,,,,,,,,,,,,,,,,,,,,6102195038f3ffcb73225853,61036e15010ff41eda27ab20,2021-07-29_23h13.03.414,Simcolourproject_2stim_asymm_v5,2020.2.10,MacIntel,60,61025ae37ef11b136ea224fe,,,,,,,,,3833,-82.28515625,-34.98046875,1,0,1,response5disk,,2,-13.06640625,-14.00390625,1,0,1,rectangle,-13.06640625,-14.00390625,1,0,1,-13.06640625,-14.00390625,1,0,1,1,47,207,125,1,,,,,,,,
,,,,,,,,,,,,,FF,,,,,,,,1.589885,,,,,,,,,,,,,,,,,,,,,,6102195038f3ffcb73225853,61036e15010ff41eda27ab20,2021-07-29_23h13.03.414,Simcolourproject_2stim_asymm_v5,2020.2.10,MacIntel,60,61025ae37ef11b136ea224fe,,,,,,,,,2135,88.7421875,-51.05078125,1,0,1,response3disk,,5,14.49609375,-16.90625,1,0,1,rectangle,14.49609375,-16.90625,1,0,1,14.49609375,-16.90625,1,0,1,1,48,208,96,1,,,,,,,,
,,,,,,,,,,,,,FF,,,,,,,,0.966355,,,,,,,,,,,,,,,,,,,,,,6102195038f3ffcb73225853,61036e15010ff41eda27ab20,2021-07-29_23h13.03.414,Simcolourproject_2stim_asymm_v5,2020.2.10,MacIntel,60,61025ae37ef11b136ea224fe,,,,,,,,,3003,-61.8125,30.69921875,1,0,1,response7disk,,1,-7.609375,-0.984375,1,0,1,rectangle,-7.609375,-0.984375,1,0,1,-7.609375,-0.984375,1,0,1,1,49,209,134,1,,,,,,,,
,,,,,,,,,,,,,FF,,,,,,,,1.00082,,,,,,,,,,,,,,,,,,,,,,6102195038f3ffcb73225853,61036e15010ff41eda27ab20,2021-07-29_23h13.03.414,Simcolourproject_2stim_asymm_v5,2020.2.10,MacIntel,60,61025ae37ef11b136ea224fe,,,,,,,,,3767,94.46875,-33.73046875,1,0,1,response3disk,,5,20.85546875,-1.55859375,1,0,1,rectangle,20.85546875,-1.55859375,1,0,1,20.85546875,-1.55859375,1,0,1,1,50,210,22,1,,,,,,,,
,,,,,,,,,,,,,FF,,,,,,,,0.73416,,,,,,,,,,,,,,,,,,,,,,6102195038f3ffcb73225853,61036e15010ff41eda27ab20,2021-07-29_23h13.03.414,Simcolourproject_2stim_asymm_v5,2020.2.10,MacIntel,60,61025ae37ef11b136ea224fe,,,,,,,,,2627,41.38671875,-27.9921875,1,0,1,response3disk,,5,4.04296875,1.55078125,1,0,1,rectangle,4.04296875,1.55078125,1,0,1,4.04296875,1.55078125,1,0,1,1,51,211,141,1,,,,,,,,
,,,,,,,,,,,,,FF,,,,,,,,0.99941,,,,,,,,,,,,,,,,,,,,,,6102195038f3ffcb73225853,61036e15010ff41eda27ab20,2021-07-29_23h13.03.414,Simcolourproject_2stim_asymm_v5,2020.2.10,MacIntel,60,61025ae37ef11b136ea224fe,,,,,,,,,2975,59.62109375,23.71484375,1,0,1,response1disk,,6,24.171875,-5.70703125,1,0,1,rectangle,24.171875,-5.70703125,1,0,1,24.171875,-5.70703125,1,0,1,1,52,212,24,1,,,,,,,,
,,,,,,,,,,,,,FF,,,,,,,,0.752005,,,,,,,,,,,,,,,,,,,,,,6102195038f3ffcb73225853,61036e15010ff41eda27ab20,2021-07-29_23h13.03.414,Simcolourproject_2stim_asymm_v5,2020.2.10,MacIntel,60,61025ae37ef11b136ea224fe,,,,,,,,,1065,-60.6953125,33.984375,1,0,1,response7disk,,1,-9.1328125,9.74609375,1,0,1,rectangle,-9.1328125,9.74609375,1,0,1,-9.1328125,9.74609375,1,0,1,1,53,213,132,1,,,,,,,,
,,,,,,,,,,,,,FF,,,,,,,,1.284635,,,,,,,,,,,,,,,,,,,,,,6102195038f3ffcb73225853,61036e15010ff41eda27ab20,2021-07-29_23h13.03.414,Simcolourproject_2stim_asymm_v5,2020.2.10,MacIntel,60,61025ae37ef11b136ea224fe,,,,,,,,,594,100.7734375,57.1484375,1,0,1,response1disk,,6,16.3203125,7.078125,1,0,1,rectangle,16.3203125,7.078125,1,0,1,16.3203125,7.078125,1,0,1,1,54,214,4,1,,,,,,,,
,,,,,,,,,,,,,FF,,,,,,,,1.13363,,,,,,,,,,,,,,,,,,,,,,6102195038f3ffcb73225853,61036e15010ff41eda27ab20,2021-07-29_23h13.03.414,Simcolourproject_2stim_asymm_v5,2020.2.10,MacIntel,60,61025ae37ef11b136ea224fe,,,,,,,,,364,70.70703125,23.03125,1,0,1,response1disk,,6,19.66015625,-5.5546875,1,0,1,rectangle,19.66015625,-5.5546875,1,0,1,19.66015625,-5.5546875,1,0,1,1,55,215,91,1,,,,,,,,
,,,,,,,,,,,,,FF,,,,,,,,3.365765,,,,,,,,,,,,,,,,,,,,,,6102195038f3ffcb73225853,61036e15010ff41eda27ab20,2021-07-29_23h13.03.414,Simcolourproject_2stim_asymm_v5,2020.2.10,MacIntel,60,61025ae37ef11b136ea224fe,,,,,,,,,2027,-82.9296875,15.85546875,1,0,1,response7disk,,1,-1.30078125,1.11328125,1,0,1,rectangle,-1.30078125,1.11328125,1,0,1,-1.30078125,1.11328125,1,0,1,1,56,216,32,1,,,,,,,,
,,,,,,,,,,,,,FF,,,,,,,,0.899905,,,,,,,,,,,,,,,,,,,,,,6102195038f3ffcb73225853,61036e15010ff41eda27ab20,2021-07-29_23h13.03.414,Simcolourproject_2stim_asymm_v5,2020.2.10,MacIntel,60,61025ae37ef11b136ea224fe,,,,,,,,,3126,82.296875,23.8203125,1,0,1,response1disk,,6,14.3984375,-0.73046875,1,0,1,rectangle,14.3984375,-0.73046875,1,0,1,14.3984375,-0.73046875,1,0,1,1,57,217,144,1,,,,,,,,
,,,,,,,,,,,,,FF,,,,,,,,0.61722,,,,,,,,,,,,,,,,,,,,,,6102195038f3ffcb73225853,61036e15010ff41eda27ab20,2021-07-29_23h13.03.414,Simcolourproject_2stim_asymm_v5,2020.2.10,MacIntel,60,61025ae37ef11b136ea224fe,,,,,,,,,2700,62.54296875,26.7265625,1,0,1,response1disk,,6,-17.7265625,-12.63671875,1,0,1,rectangle,38.484375,71.9609375,1,0,1,-4.26953125,1.91796875,1,0,1,1,58,218,121,1,,response1disk_3,TRUE,7,7,"[136,299,225,242,179,288,290,256,297,318,101,300,129,221,219,78,225,195,259,29]",1.68211,rectangle
,,,,,,,,,,,,,FF,,,,,,,,2.06673,,,,,,,,,,,,,,,,,,,,,,6102195038f3ffcb73225853,61036e15010ff41eda27ab20,2021-07-29_23h13.03.414,Simcolourproject_2stim_asymm_v5,2020.2.10,MacIntel,60,61025ae37ef11b136ea224fe,,,,,,,,,2877,83.24609375,-44.57421875,1,0,1,response3disk,,5,27.75390625,-7.59375,1,0,1,rectangle,27.75390625,-7.59375,1,0,1,27.75390625,-7.59375,1,0,1,1,59,219,47,1,,,,,,,,
,,,,,,,,,,,,,FF,,,,,,,,0.91584,,,,,,,,,,,,,,,,,,,,,,6102195038f3ffcb73225853,61036e15010ff41eda27ab20,2021-07-29_23h13.03.414,Simcolourproject_2stim_asymm_v5,2020.2.10,MacIntel,60,61025ae37ef11b136ea224fe,,,,,,,,,2013,65.62890625,-21.33984375,1,0,1,response3disk,,5,16.2265625,6.18359375,1,0,1,rectangle,57.01953125,83.4375,1,0,1,4.73828125,3.6328125,1,0,1,1,60,220,117,1,,response1disk_3,TRUE,7,7,"[136,299,225,242,179,288,290,256,297,318,101,300,129,221,219,78,225,195,259,29]",2.28413,rectangle
,,,,,,,,,,,,,FF,,,,,,,,0.834345,,,,,,,,,,,,,,,,,,,,,,6102195038f3ffcb73225853,61036e15010ff41eda27ab20,2021-07-29_23h13.03.414,Simcolourproject_2stim_asymm_v5,2020.2.10,MacIntel,60,61025ae37ef11b136ea224fe,,,,,,,,,266,-50.16015625,21.89453125,1,0,1,response7disk,,1,-12.44921875,-2.015625,1,0,1,rectangle,-12.44921875,-2.015625,1,0,1,-12.44921875,-2.015625,1,0,1,1,61,221,44,1,,,,,,,,
,,,,,,,,,,,,,FF,,,,,,,,0.900005,,,,,,,,,,,,,,,,,,,,,,6102195038f3ffcb73225853,61036e15010ff41eda27ab20,2021-07-29_23h13.03.414,Simcolourproject_2stim_asymm_v5,2020.2.10,MacIntel,60,61025ae37ef11b136ea224fe,,,,,,,,,2873,80.73046875,-35.99609375,1,0,1,response3disk,,5,-0.171875,-0.8359375,1,0,1,rectangle,-0.171875,-0.8359375,1,0,1,-0.171875,-0.8359375,1,0,1,1,62,222,93,1,,,,,,,,
,,,,,,,,,,,,,FF,,,,,,,,1.349855,,,,,,,,,,,,,,,,,,,,,,6102195038f3ffcb73225853,61036e15010ff41eda27ab20,2021-07-29_23h13.03.414,Simcolourproject_2stim_asymm_v5,2020.2.10,MacIntel,60,61025ae37ef11b136ea224fe,,,,,,,,,2957,67.6328125,-21.37109375,1,0,1,response3disk,,5,12.86328125,-9.9453125,1,0,1,rectangle,12.86328125,-9.9453125,1,0,1,12.86328125,-9.9453125,1,0,1,1,63,223,82,1,,,,,,,,
,,,,,,,,,,,,,FF,,,,,,,,1.417055,,,,,,,,,,,,,,,,,,,,,,6102195038f3ffcb73225853,61036e15010ff41eda27ab20,2021-07-29_23h13.03.414,Simcolourproject_2stim_asymm_v5,2020.2.10,MacIntel,60,61025ae37ef11b136ea224fe,,,,,,,,,2874,37.671875,-55.12890625,1,0,1,response3disk,,4,10.703125,6.8203125,1,0,1,rectangle,108.2695313,57.98046875,1,0,1,5.45703125,-1.4453125,1,0,1,1,64,224,146,1,,response1disk_3,TRUE,6,6,"[136,299,225,242,179,288,290,256,297,318,101,300,129,221,219,78,225,195,259,29]",1.73412,rectangle
,,,,,,,,,,,,,FF,,,,,,,,1.415945,,,,,,,,,,,,,,,,,,,,,,6102195038f3ffcb73225853,61036e15010ff41eda27ab20,2021-07-29_23h13.03.414,Simcolourproject_2stim_asymm_v5,2020.2.10,MacIntel,60,61025ae37ef11b136ea224fe,,,,,,,,,198,69.4296875,-32.04296875,1,0,1,response3disk,,5,10.6640625,-12.55078125,1,0,1,rectangle,10.6640625,-12.55078125,1,0,1,10.6640625,-12.55078125,1,0,1,1,65,225,109,1,,,,,,,,
,,,,,,,,,,,,,FF,,,,,,,,1.38413,,,,,,,,,,,,,,,,,,,,,,6102195038f3ffcb73225853,61036e15010ff41eda27ab20,2021-07-29_23h13.03.414,Simcolourproject_2stim_asymm_v5,2020.2.10,MacIntel,60,61025ae37ef11b136ea224fe,,,,,,,,,417,62.74609375,-37.09375,1,0,1,response3disk,,5,8.2109375,-7.01953125,1,0,1,rectangle,8.2109375,-7.01953125,1,0,1,8.2109375,-7.01953125,1,0,1,1,66,226,101,1,,,,,,,,
,,,,,,,,,,,,,FF,,,,,,,,0.63198,,,,,,,,,,,,,,,,,,,,,,6102195038f3ffcb73225853,61036e15010ff41eda27ab20,2021-07-29_23h13.03.414,Simcolourproject_2stim_asymm_v5,2020.2.10,MacIntel,60,61025ae37ef11b136ea224fe,,,,,,,,,1705,54.90234375,-41.46484375,1,0,1,response3disk,,5,7.14453125,-1.78125,1,0,1,rectangle,7.14453125,-1.78125,1,0,1,7.14453125,-1.78125,1,0,1,1,67,227,39,1,,,,,,,,
,,,,,,,,,,,,,FF,,,,,,,,1.33337,,,,,,,,,,,,,,,,,,,,,,6102195038f3ffcb73225853,61036e15010ff41eda27ab20,2021-07-29_23h13.03.414,Simcolourproject_2stim_asymm_v5,2020.2.10,MacIntel,60,61025ae37ef11b136ea224fe,,,,,,,,,2883,28.44140625,-80.7890625,1,0,1,response3disk,,4,-4.2734375,-9.765625,1,0,1,rectangle,-4.2734375,-9.765625,1,0,1,-4.2734375,-9.765625,1,0,1,1,68,228,18,1,,,,,,,,
,,,,,,,,,,,,,FF,,,,,,,,1.768325,,,,,,,,,,,,,,,,,,,,,,6102195038f3ffcb73225853,61036e15010ff41eda27ab20,2021-07-29_23h13.03.414,Simcolourproject_2stim_asymm_v5,2020.2.10,MacIntel,60,61025ae37ef11b136ea224fe,,,,,,,,,3959,-23.28125,-59.55078125,1,0,1,response5disk,,3,10.875,-4.203125,1,0,1,rectangle,10.875,-4.203125,1,0,1,10.875,-4.203125,1,0,1,1,69,229,35,1,,,,,,,,
,,,,,,,,,,,,,FF,,,,,,,,0.96556,,,,,,,,,,,,,,,,,,,,,,6102195038f3ffcb73225853,61036e15010ff41eda27ab20,2021-07-29_23h13.03.414,Simcolourproject_2stim_asymm_v5,2020.2.10,MacIntel,60,61025ae37ef11b136ea224fe,,,,,,,,,1867,88.16796875,-41.10546875,1,0,1,response3disk,,5,19.25,-3.56640625,1,0,1,rectangle,19.25,-3.56640625,1,0,1,19.25,-3.56640625,1,0,1,1,70,230,3,1,,,,,,,,
,,,,,,,,,,,,,FF,,,,,,,,0.58407,,,,,,,,,,,,,,,,,,,,,,6102195038f3ffcb73225853,61036e15010ff41eda27ab20,2021-07-29_23h13.03.414,Simcolourproject_2stim_asymm_v5,2020.2.10,MacIntel,60,61025ae37ef11b136ea224fe,,,,,,,,,2818,67.98046875,29.296875,1,0,1,response1disk,,6,3.29296875,4.9609375,1,0,1,rectangle,3.29296875,4.9609375,1,0,1,3.29296875,4.9609375,1,0,1,1,71,231,51,1,,,,,,,,
,,,,,,,,,,,,,FF,,,,,,,,1.25056,,,,,,,,,,,,,,,,,,,,,,6102195038f3ffcb73225853,61036e15010ff41eda27ab20,2021-07-29_23h13.03.414,Simcolourproject_2stim_asymm_v5,2020.2.10,MacIntel,60,61025ae37ef11b136ea224fe,,,,,,,,,3090,-54.60546875,35.4375,1,0,1,response7disk,,1,7.765625,3.59375,1,0,1,rectangle,7.765625,3.59375,1,0,1,7.765625,3.59375,1,0,1,1,72,232,31,1,,,,,,,,
,,,,,,,,,,,,,FF,,,,,,,,1.733475,,,,,,,,,,,,,,,,,,,,,,6102195038f3ffcb73225853,61036e15010ff41eda27ab20,2021-07-29_23h13.03.414,Simcolourproject_2stim_asymm_v5,2020.2.10,MacIntel,60,61025ae37ef11b136ea224fe,,,,,,,,,2147,39.55859375,68.20703125,1,0,1,response1disk,,7,10.3828125,4.16796875,1,0,1,rectangle,10.3828125,4.16796875,1,0,1,10.3828125,4.16796875,1,0,1,1,73,233,69,1,,,,,,,,
,,,,,,,,,,,,,FF,,,,,,,,1.367825,,,,,,,,,,,,,,,,,,,,,,6102195038f3ffcb73225853,61036e15010ff41eda27ab20,2021-07-29_23h13.03.414,Simcolourproject_2stim_asymm_v5,2020.2.10,MacIntel,60,61025ae37ef11b136ea224fe,,,,,,,,,865,73.9453125,65.61328125,1,0,1,response1disk,,6,14.29296875,8.2578125,1,0,1,rectangle,14.29296875,8.2578125,1,0,1,14.29296875,8.2578125,1,0,1,1,74,234,115,1,,,,,,,,
,,,,,,,,,,,,,FF,,,,,,,,1.03304,,,,,,,,,,,,,,,,,,,,,,6102195038f3ffcb73225853,61036e15010ff41eda27ab20,2021-07-29_23h13.03.414,Simcolourproject_2stim_asymm_v5,2020.2.10,MacIntel,60,61025ae37ef11b136ea224fe,,,,,,,,,3566,-68.765625,-52.51171875,1,0,1,response5disk,,2,5.46484375,-5.109375,1,0,1,rectangle,5.46484375,-5.109375,1,0,1,5.46484375,-5.109375,1,0,1,1,75,235,153,1,,,,,,,,
,,,,,,,,,,,,,FF,,,,,,,,0.900575,,,,,,,,,,,,,,,,,,,,,,6102195038f3ffcb73225853,61036e15010ff41eda27ab20,2021-07-29_23h13.03.414,Simcolourproject_2stim_asymm_v5,2020.2.10,MacIntel,60,61025ae37ef11b136ea224fe,,,,,,,,,3635,-64.86328125,-21.9765625,1,0,1,response5disk,,2,-12.32421875,8.328125,1,0,1,rectangle,-12.32421875,8.328125,1,0,1,-12.32421875,8.328125,1,0,1,1,76,236,40,1,,,,,,,,
,,,,,,,,,,,,,FF,,,,,,,,1.416655,,,,,,,,,,,,,,,,,,,,,,6102195038f3ffcb73225853,61036e15010ff41eda27ab20,2021-07-29_23h13.03.414,Simcolourproject_2stim_asymm_v5,2020.2.10,MacIntel,60,61025ae37ef11b136ea224fe,,,,,,,,,1320,-27.078125,-58.49609375,1,0,1,response5disk,,3,-6.7734375,-16.609375,1,0,1,rectangle,-6.7734375,-16.609375,1,0,1,-6.7734375,-16.609375,1,0,1,1,77,237,94,1,,,,,,,,
,,,,,,,,,,,,,FF,,,,,,,,2.4996,,,,,,,,,,,,,,,,,,,,,,6102195038f3ffcb73225853,61036e15010ff41eda27ab20,2021-07-29_23h13.03.414,Simcolourproject_2stim_asymm_v5,2020.2.10,MacIntel,60,61025ae37ef11b136ea224fe,,,,,,,,,420,39.3828125,-48.90625,1,0,1,response3disk,,4,-1.625,8.93359375,1,0,1,rectangle,-1.625,8.93359375,1,0,1,-1.625,8.93359375,1,0,1,1,78,238,102,1,,,,,,,,
,,,,,,,,,,,,,FF,,,,,,,,0.999335,,,,,,,,,,,,,,,,,,,,,,6102195038f3ffcb73225853,61036e15010ff41eda27ab20,2021-07-29_23h13.03.414,Simcolourproject_2stim_asymm_v5,2020.2.10,MacIntel,60,61025ae37ef11b136ea224fe,,,,,,,,,687,85.7578125,-28.80859375,1,0,1,response3disk,,5,7.234375,-12.1484375,1,0,1,rectangle,7.234375,-12.1484375,1,0,1,7.234375,-12.1484375,1,0,1,1,79,239,11,1,,,,,,,,
,,,,,,,,,,,,,FF,,,,,,,,1.134145,,,,,,,,,,,,,,,,,,,,,,6102195038f3ffcb73225853,61036e15010ff41eda27ab20,2021-07-29_23h13.03.414,Simcolourproject_2stim_asymm_v5,2020.2.10,MacIntel,60,61025ae37ef11b136ea224fe,,,,,,,,,129,86.28125,21.44140625,1,0,1,response1disk,,6,14.875,-5.0546875,1,0,1,rectangle,14.875,-5.0546875,1,0,1,14.875,-5.0546875,1,0,1,1,80,240,76,1,,,,,,,,
,,,,,,,,,,,,,FF,,,,,,,,1.21668,,,,,,,,,,,,,,,,,,,,,,6102195038f3ffcb73225853,61036e15010ff41eda27ab20,2021-07-29_23h13.03.414,Simcolourproject_2stim_asymm_v5,2020.2.10,MacIntel,60,61025ae37ef11b136ea224fe,,,,,,,,,1741,64.43359375,26.34375,1,0,1,response1disk,,6,9.46484375,5.640625,1,0,1,rectangle,95.796875,33.4296875,1,0,1,24.7109375,3.0234375,1,0,1,1,81,241,50,1,,response1disk_3,TRUE,6,6,"[136,299,225,242,179,288,290,256,297,318,101,300,129,221,219,78,225,195,259,29]",1.616905,rectangle
,,,,,,,,,,,,,FF,,,,,,,,0.865925,,,,,,,,,,,,,,,,,,,,,,6102195038f3ffcb73225853,61036e15010ff41eda27ab20,2021-07-29_23h13.03.414,Simcolourproject_2stim_asymm_v5,2020.2.10,MacIntel,60,61025ae37ef11b136ea224fe,,,,,,,,,4339,-82.20703125,33.27734375,1,0,1,response7disk,,1,-33.35546875,7.71875,1,0,1,rectangle,-33.35546875,7.71875,1,0,1,-33.35546875,7.71875,1,0,1,1,82,242,98,1,,,,,,,,
,,,,,,,,,,,,,FF,,,,,,,,1.36642,,,,,,,,,,,,,,,,,,,,,,6102195038f3ffcb73225853,61036e15010ff41eda27ab20,2021-07-29_23h13.03.414,Simcolourproject_2stim_asymm_v5,2020.2.10,MacIntel,60,61025ae37ef11b136ea224fe,,,,,,,,,2191,36.61328125,-68.55078125,1,0,1,response3disk,,4,-21.47265625,-4.46875,1,0,1,rectangle,-21.47265625,-4.46875,1,0,1,-21.47265625,-4.46875,1,0,1,1,83,243,131,1,,,,,,,,
,,,,,,,,,,,,,FF,,,,,,,,0.93351,,,,,,,,,,,,,,,,,,,,,,6102195038f3ffcb73225853,61036e15010ff41eda27ab20,2021-07-29_23h13.03.414,Simcolourproject_2stim_asymm_v5,2020.2.10,MacIntel,60,61025ae37ef11b136ea224fe,,,,,,,,,4188,-32.0859375,-72.2890625,1,0,1,response5disk,,3,-13.1328125,2.0078125,1,0,1,rectangle,-13.1328125,2.0078125,1,0,1,-13.1328125,2.0078125,1,0,1,1,84,244,15,1,,,,,,,,
,,,,,,,,,,,,,FF,,,,,,,,0.800565,,,,,,,,,,,,,,,,,,,,,,6102195038f3ffcb73225853,61036e15010ff41eda27ab20,2021-07-29_23h13.03.414,Simcolourproject_2stim_asymm_v5,2020.2.10,MacIntel,60,61025ae37ef11b136ea224fe,,,,,,,,,3427,-67.46484375,48.36328125,1,0,1,response7disk,,1,-24.46875,8.89453125,1,0,1,rectangle,-24.46875,8.89453125,1,0,1,-24.46875,8.89453125,1,0,1,1,85,245,7,1,,,,,,,,
,,,,,,,,,,,,,FF,,,,,,,,1.61724,,,,,,,,,,,,,,,,,,,,,,6102195038f3ffcb73225853,61036e15010ff41eda27ab20,2021-07-29_23h13.03.414,Simcolourproject_2stim_asymm_v5,2020.2.10,MacIntel,60,61025ae37ef11b136ea224fe,,,,,,,,,1827,-79.1171875,31.6328125,1,0,1,response7disk,,1,11.32421875,12.5234375,1,0,1,rectangle,11.32421875,12.5234375,1,0,1,11.32421875,12.5234375,1,0,1,1,86,246,6,1,,,,,,,,
,,,,,,,,,,,,,FF,,,,,,,,1.151755,,,,,,,,,,,,,,,,,,,,,,6102195038f3ffcb73225853,61036e15010ff41eda27ab20,2021-07-29_23h13.03.414,Simcolourproject_2stim_asymm_v5,2020.2.10,MacIntel,60,61025ae37ef11b136ea224fe,,,,,,,,,1463,-74.73828125,-32.34375,1,0,1,response5disk,,2,-23.25,-8.65234375,1,0,1,rectangle,-23.25,-8.65234375,1,0,1,-23.25,-8.65234375,1,0,1,1,87,247,29,1,,,,,,,,
