key_resp.keys,key_resp.rt,key_resp_14.keys,key_resp_14.rt,key_resp_15.keys,key_resp_15.rt,key_resp_17.keys,key_resp_17.rt,key_resp_9.keys,key_resp_9.rt,key_resp_10.keys,key_resp_10.rt,practice_comparison,Ecc,mouse_5.x,mouse_5.y,mouse_5.leftButton,mouse_5.midButton,mouse_5.rightButton,mouse_5.clicked_name,pracsimilarity,response_time,mouse_10.x,mouse_10.y,mouse_10.leftButton,mouse_10.midButton,mouse_10.rightButton,mouse_10.clicked_name,mouse_7.x,mouse_7.y,mouse_7.leftButton,mouse_7.midButton,mouse_7.rightButton,mouse_6.x,mouse_6.y,mouse_6.leftButton,mouse_6.midButton,mouse_6.rightButton,duringprac.thisRepN,duringprac.thisTrialN,duringprac.thisN,duringprac.thisIndex,duringprac.ran,participant,session,date,expName,psychopyVersion,OS,frameRate,study_id,mouse_7.clicked_name,catchpracsimilarity,catch_response_time,catchnumberprac,catchtrialorderprac,mouse_6.clicked_name,key_resp_22.keys,key_resp_22.rt,realcomparison,mouse.x,mouse.y,mouse.leftButton,mouse.midButton,mouse.rightButton,mouse.clicked_name,Colour2,similarity,mouse_2.x,mouse_2.y,mouse_2.leftButton,mouse_2.midButton,mouse_2.rightButton,mouse_2.clicked_name,mouse_3.x,mouse_3.y,mouse_3.leftButton,mouse_3.midButton,mouse_3.rightButton,mouse_11.x,mouse_11.y,mouse_11.leftButton,mouse_11.midButton,mouse_11.rightButton,trials_2.thisRepN,trials_2.thisTrialN,trials_2.thisN,trials_2.thisIndex,trials_2.ran,Colour1,mouse_3.clicked_name,catchornah,catchsimilarity,catchnumber,catchtrialorder,catchRT,mouse_11.clicked_name
space,1.096195,space,38.37246,space,25.511405,space,1.461455,space,1.491705,space,3.37519,157,PF,26.44287109,-62.16455078,1,0,0,response3disk_5,4,23.849135,-8.65246582,-7.037231445,1,0,0,rectangle_8,-8.65246582,-7.037231445,1,0,0,-8.65246582,-7.037231445,1,0,0,0,0,0,2,1,61024c6fb46fe099f45f2296,6103684f0433d8fb830d9faa,2021-07-29_21h51.24.637,Simcolourproject_2stim_asymm_v5,2020.2.10,Linux x86_64,60,61025ae37ef11b136ea224fe,,,,,,,,,,,,,,,,,,,,,,,,,,,,,,,,,,,,,,,,,,,,,,
,,,,,,,,,,,,72,FF,100.2561646,29.04165649,1,0,0,response1disk_5,6,6.83725,-11.0144043,-4.292602539,1,0,0,rectangle_8,-41.14575195,-63.18295288,1,0,0,20.05828857,-2.468017578,1,0,0,0,1,1,5,1,61024c6fb46fe099f45f2296,6103684f0433d8fb830d9faa,2021-07-29_21h51.24.637,Simcolourproject_2stim_asymm_v5,2020.2.10,Linux x86_64,60,61025ae37ef11b136ea224fe,response5disk_7,3,5.287455,2,"[2,5]",rectangle_4,,,,,,,,,,,,,,,,,,,,,,,,,,,,,,,,,,,,,,,,
,,,,,,,,,,,,31,FF,85.5012207,-43.58154297,1,0,0,response3disk_5,5,12.907695,27.89953613,7.420257568,1,0,0,rectangle_8,27.89953613,7.420257568,1,0,0,27.89953613,7.420257568,1,0,0,0,2,2,0,1,61024c6fb46fe099f45f2296,6103684f0433d8fb830d9faa,2021-07-29_21h51.24.637,Simcolourproject_2stim_asymm_v5,2020.2.10,Linux x86_64,60,61025ae37ef11b136ea224fe,,,,,,,,,,,,,,,,,,,,,,,,,,,,,,,,,,,,,,,,,,,,,,
,,,,,,,,,,,,94,PF,-62.19561768,-30.48699951,1,0,0,response5disk_5,2,3.552455,-0.772521973,-4.226287842,1,0,0,rectangle_8,-0.772521973,-4.226287842,1,0,0,-0.772521973,-4.226287842,1,0,0,0,3,3,4,1,61024c6fb46fe099f45f2296,6103684f0433d8fb830d9faa,2021-07-29_21h51.24.637,Simcolourproject_2stim_asymm_v5,2020.2.10,Linux x86_64,60,61025ae37ef11b136ea224fe,,,,,,,,,,,,,,,,,,,,,,,,,,,,,,,,,,,,,,,,,,,,,,
,,,,,,,,,,,,14,PF,-39.64788818,78.32373047,1,0,0,response7disk_5,0,2.868665,2.05657959,11.02728271,1,0,0,rectangle_8,-56.9753418,-40.46459961,1,0,0,-9.100891113,-1.61038208,1,0,0,0,4,4,6,1,61024c6fb46fe099f45f2296,6103684f0433d8fb830d9faa,2021-07-29_21h51.24.637,Simcolourproject_2stim_asymm_v5,2020.2.10,Linux x86_64,60,61025ae37ef11b136ea224fe,response5disk_7,2,4.88588,2,"[2,5]",rectangle_4,,,,,,,,,,,,,,,,,,,,,,,,,,,,,,,,,,,,,,,,
,,,,,,,,,,,,67,FF,88.81072998,63.45446777,1,0,0,response1disk_5,6,2.46979,-18.5402832,3.882263184,1,0,0,rectangle_8,-18.5402832,3.882263184,1,0,0,-18.5402832,3.882263184,1,0,0,0,5,5,3,1,61024c6fb46fe099f45f2296,6103684f0433d8fb830d9faa,2021-07-29_21h51.24.637,Simcolourproject_2stim_asymm_v5,2020.2.10,Linux x86_64,60,61025ae37ef11b136ea224fe,,,,,,,,,,,,,,,,,,,,,,,,,,,,,,,,,,,,,,,,,,,,,,
,,,,,,,,,,,,52,PF,-47.68365479,59.34817505,1,0,0,response7disk_5,0,2.6184,10.69067383,-4.566589355,1,0,0,rectangle_8,10.69067383,-4.566589355,1,0,0,10.69067383,-4.566589355,1,0,0,0,6,6,1,1,61024c6fb46fe099f45f2296,6103684f0433d8fb830d9faa,2021-07-29_21h51.24.637,Simcolourproject_2stim_asymm_v5,2020.2.10,Linux x86_64,60,61025ae37ef11b136ea224fe,,,,,,,,,,,,,,,,,,,,,,,,,,,,,,,,,,,,,,,,,,,,,,
,,,,,,,,,,,,,FF,,,,,,,,3.252855,,,,,,,,,,,,,,,,,,,,,,61024c6fb46fe099f45f2296,6103684f0433d8fb830d9faa,2021-07-29_21h51.24.637,Simcolourproject_2stim_asymm_v5,2020.2.10,Linux x86_64,60,61025ae37ef11b136ea224fe,,,,,,,space,2.77185,2101,-79.12493896,55.91079712,1,0,0,response7disk,,1,-2.940490723,-1.034332275,1,0,0,rectangle,-2.940490723,-1.034332275,1,0,0,-2.940490723,-1.034332275,1,0,0,0,0,0,73,1,,,,,,,,
,,,,,,,,,,,,,FF,,,,,,,,2.517705,,,,,,,,,,,,,,,,,,,,,,61024c6fb46fe099f45f2296,6103684f0433d8fb830d9faa,2021-07-29_21h51.24.637,Simcolourproject_2stim_asymm_v5,2020.2.10,Linux x86_64,60,61025ae37ef11b136ea224fe,,,,,,,,,1866,103.0185547,70.33859253,1,0,0,response1disk,,6,-2.329711914,7.275421143,1,0,0,rectangle,-2.329711914,7.275421143,1,0,0,-2.329711914,7.275421143,1,0,0,0,1,1,118,1,,,,,,,,
,,,,,,,,,,,,,FF,,,,,,,,2.117465,,,,,,,,,,,,,,,,,,,,,,61024c6fb46fe099f45f2296,6103684f0433d8fb830d9faa,2021-07-29_21h51.24.637,Simcolourproject_2stim_asymm_v5,2020.2.10,Linux x86_64,60,61025ae37ef11b136ea224fe,,,,,,,,,21,82.34136963,-38.38024902,1,0,0,response3disk,,5,4.924926758,-0.952209473,1,0,0,rectangle,4.924926758,-0.952209473,1,0,0,4.924926758,-0.952209473,1,0,0,0,2,2,23,1,,,,,,,,
,,,,,,,,,,,,,FF,,,,,,,,2.41659,,,,,,,,,,,,,,,,,,,,,,61024c6fb46fe099f45f2296,6103684f0433d8fb830d9faa,2021-07-29_21h51.24.637,Simcolourproject_2stim_asymm_v5,2020.2.10,Linux x86_64,60,61025ae37ef11b136ea224fe,,,,,,,,,2429,-42.6706543,-76.85610962,1,0,0,response5disk,,3,7.730712891,-1.144012451,1,0,0,rectangle,-52.23370361,64.25610352,1,0,0,-5.446716309,11.54071045,1,0,0,0,3,3,56,1,,response7disk_3,TRUE,0,0,"[218,288,321,178,280,141,250,145,83,72,265,4,50,274,42,275,46,267,159,13]",2.403195,rectangle
,,,,,,,,,,,,,FF,,,,,,,,3.402835,,,,,,,,,,,,,,,,,,,,,,61024c6fb46fe099f45f2296,6103684f0433d8fb830d9faa,2021-07-29_21h51.24.637,Simcolourproject_2stim_asymm_v5,2020.2.10,Linux x86_64,60,61025ae37ef11b136ea224fe,,,,,,,,,3799,86.74023438,26.24542236,1,0,0,response1disk,,6,-5.9765625,-11.040802,1,0,0,rectangle,-5.9765625,-11.040802,1,0,0,-5.9765625,-11.040802,1,0,0,0,4,4,36,1,,,,,,,,
,,,,,,,,,,,,,FF,,,,,,,,5.154,,,,,,,,,,,,,,,,,,,,,,61024c6fb46fe099f45f2296,6103684f0433d8fb830d9faa,2021-07-29_21h51.24.637,Simcolourproject_2stim_asymm_v5,2020.2.10,Linux x86_64,60,61025ae37ef11b136ea224fe,,,,,,,,,4133,91.52386475,14.81518555,1,0,0,response1disk,,6,9.638122559,-13.08209229,1,0,0,rectangle,9.638122559,-13.08209229,1,0,0,9.638122559,-13.08209229,1,0,0,0,5,5,103,1,,,,,,,,
,,,,,,,,,,,,,FF,,,,,,,,1.91675,,,,,,,,,,,,,,,,,,,,,,61024c6fb46fe099f45f2296,6103684f0433d8fb830d9faa,2021-07-29_21h51.24.637,Simcolourproject_2stim_asymm_v5,2020.2.10,Linux x86_64,60,61025ae37ef11b136ea224fe,,,,,,,,,3658,52.37402344,-26.5838623,1,0,0,response3disk,,5,19.93487549,13.66409302,1,0,0,rectangle,19.93487549,13.66409302,1,0,0,19.93487549,13.66409302,1,0,0,0,6,6,102,1,,,,,,,,
,,,,,,,,,,,,,FF,,,,,,,,1.818865,,,,,,,,,,,,,,,,,,,,,,61024c6fb46fe099f45f2296,6103684f0433d8fb830d9faa,2021-07-29_21h51.24.637,Simcolourproject_2stim_asymm_v5,2020.2.10,Linux x86_64,60,61025ae37ef11b136ea224fe,,,,,,,,,2573,68.8348999,-34.08972168,1,0,0,response3disk,,5,28.74871826,-5.750854492,1,0,0,rectangle,28.74871826,-5.750854492,1,0,0,28.74871826,-5.750854492,1,0,0,0,7,7,129,1,,,,,,,,
,,,,,,,,,,,,,FF,,,,,,,,3.635835,,,,,,,,,,,,,,,,,,,,,,61024c6fb46fe099f45f2296,6103684f0433d8fb830d9faa,2021-07-29_21h51.24.637,Simcolourproject_2stim_asymm_v5,2020.2.10,Linux x86_64,60,61025ae37ef11b136ea224fe,,,,,,,,,1637,95.61437988,35.62338257,1,0,0,response1disk,,6,14.52911377,-1.314880371,1,0,0,rectangle,14.52911377,-1.314880371,1,0,0,14.52911377,-1.314880371,1,0,0,0,8,8,123,1,,,,,,,,
,,,,,,,,,,,,,FF,,,,,,,,2.485065,,,,,,,,,,,,,,,,,,,,,,61024c6fb46fe099f45f2296,6103684f0433d8fb830d9faa,2021-07-29_21h51.24.637,Simcolourproject_2stim_asymm_v5,2020.2.10,Linux x86_64,60,61025ae37ef11b136ea224fe,,,,,,,,,4039,52.06072998,-89.15615845,1,0,0,response3disk,,4,6.091552734,2.202026367,1,0,0,rectangle,6.091552734,2.202026367,1,0,0,6.091552734,2.202026367,1,0,0,0,9,9,44,1,,,,,,,,
,,,,,,,,,,,,,FF,,,,,,,,2.333825,,,,,,,,,,,,,,,,,,,,,,61024c6fb46fe099f45f2296,6103684f0433d8fb830d9faa,2021-07-29_21h51.24.637,Simcolourproject_2stim_asymm_v5,2020.2.10,Linux x86_64,60,61025ae37ef11b136ea224fe,,,,,,,,,2660,-46.11700439,56.47091675,1,0,0,response7disk,,0,-5.078674316,9.519836426,1,0,0,rectangle,-5.078674316,9.519836426,1,0,0,-5.078674316,9.519836426,1,0,0,0,10,10,98,1,,,,,,,,
,,,,,,,,,,,,,FF,,,,,,,,1.889555,,,,,,,,,,,,,,,,,,,,,,61024c6fb46fe099f45f2296,6103684f0433d8fb830d9faa,2021-07-29_21h51.24.637,Simcolourproject_2stim_asymm_v5,2020.2.10,Linux x86_64,60,61025ae37ef11b136ea224fe,,,,,,,,,2346,-73.39300537,-23.57745361,1,0,0,response5disk,,2,3.753112793,6.165344238,1,0,0,rectangle,3.753112793,6.165344238,1,0,0,3.753112793,6.165344238,1,0,0,0,11,11,141,1,,,,,,,,
,,,,,,,,,,,,,FF,,,,,,,,1.70403,,,,,,,,,,,,,,,,,,,,,,61024c6fb46fe099f45f2296,6103684f0433d8fb830d9faa,2021-07-29_21h51.24.637,Simcolourproject_2stim_asymm_v5,2020.2.10,Linux x86_64,60,61025ae37ef11b136ea224fe,,,,,,,,,2517,77.59747314,52.27056885,1,0,0,response1disk,,6,-5.593322754,-3.292205811,1,0,0,rectangle,34.69537354,-70.34118652,1,0,0,4.026550293,-0.461425781,1,0,0,0,12,12,130,1,,response3disk_3,TRUE,4,4,"[218,288,321,178,280,141,250,145,83,72,265,4,50,274,42,275,46,267,159,13]",2.485895,rectangle
,,,,,,,,,,,,,FF,,,,,,,,2.20285,,,,,,,,,,,,,,,,,,,,,,61024c6fb46fe099f45f2296,6103684f0433d8fb830d9faa,2021-07-29_21h51.24.637,Simcolourproject_2stim_asymm_v5,2020.2.10,Linux x86_64,60,61025ae37ef11b136ea224fe,,,,,,,,,725,-47.91723633,-68.87634277,1,0,0,response5disk,,3,-15.32263184,-7.349884033,1,0,0,rectangle,-15.32263184,-7.349884033,1,0,0,-15.32263184,-7.349884033,1,0,0,0,13,13,63,1,,,,,,,,
,,,,,,,,,,,,,FF,,,,,,,,2.217255,,,,,,,,,,,,,,,,,,,,,,61024c6fb46fe099f45f2296,6103684f0433d8fb830d9faa,2021-07-29_21h51.24.637,Simcolourproject_2stim_asymm_v5,2020.2.10,Linux x86_64,60,61025ae37ef11b136ea224fe,,,,,,,,,1966,-77.1194458,29.12167358,1,0,0,response7disk,,1,-22.56689453,0.466918945,1,0,0,rectangle,-22.56689453,0.466918945,1,0,0,-22.56689453,0.466918945,1,0,0,0,14,14,109,1,,,,,,,,
,,,,,,,,,,,,,FF,,,,,,,,2.05222,,,,,,,,,,,,,,,,,,,,,,61024c6fb46fe099f45f2296,6103684f0433d8fb830d9faa,2021-07-29_21h51.24.637,Simcolourproject_2stim_asymm_v5,2020.2.10,Linux x86_64,60,61025ae37ef11b136ea224fe,,,,,,,,,2621,92.53546143,29.43051147,1,0,0,response1disk,,6,24.04394531,-0.407043457,1,0,0,rectangle,24.04394531,-0.407043457,1,0,0,24.04394531,-0.407043457,1,0,0,0,15,15,46,1,,,,,,,,
,,,,,,,,,,,,,FF,,,,,,,,1.303,,,,,,,,,,,,,,,,,,,,,,61024c6fb46fe099f45f2296,6103684f0433d8fb830d9faa,2021-07-29_21h51.24.637,Simcolourproject_2stim_asymm_v5,2020.2.10,Linux x86_64,60,61025ae37ef11b136ea224fe,,,,,,,,,4298,53.30303955,37.48428345,1,0,0,response1disk,,6,7.79498291,6.823822021,1,0,0,rectangle,7.79498291,6.823822021,1,0,0,7.79498291,6.823822021,1,0,0,0,16,16,152,1,,,,,,,,
,,,,,,,,,,,,,FF,,,,,,,,1.367175,,,,,,,,,,,,,,,,,,,,,,61024c6fb46fe099f45f2296,6103684f0433d8fb830d9faa,2021-07-29_21h51.24.637,Simcolourproject_2stim_asymm_v5,2020.2.10,Linux x86_64,60,61025ae37ef11b136ea224fe,,,,,,,,,297,29.61206055,-78.24557495,1,0,0,response3disk,,4,7.235046387,-6.040557861,1,0,0,rectangle,7.235046387,-6.040557861,1,0,0,7.235046387,-6.040557861,1,0,0,0,17,17,2,1,,,,,,,,
,,,,,,,,,,,,,FF,,,,,,,,2.117655,,,,,,,,,,,,,,,,,,,,,,61024c6fb46fe099f45f2296,6103684f0433d8fb830d9faa,2021-07-29_21h51.24.637,Simcolourproject_2stim_asymm_v5,2020.2.10,Linux x86_64,60,61025ae37ef11b136ea224fe,,,,,,,,,2337,38.74499512,103.0068359,1,0,0,response1disk,,7,-3.52722168,3.399597168,1,0,0,rectangle,-3.52722168,3.399597168,1,0,0,-3.52722168,3.399597168,1,0,0,0,18,18,153,1,,,,,,,,
,,,,,,,,,,,,,FF,,,,,,,,1.352255,,,,,,,,,,,,,,,,,,,,,,61024c6fb46fe099f45f2296,6103684f0433d8fb830d9faa,2021-07-29_21h51.24.637,Simcolourproject_2stim_asymm_v5,2020.2.10,Linux x86_64,60,61025ae37ef11b136ea224fe,,,,,,,,,4343,-35.68249512,48.80432129,1,0,0,response7disk,,0,11.05432129,-6.697540283,1,0,0,rectangle,11.05432129,-6.697540283,1,0,0,11.05432129,-6.697540283,1,0,0,0,19,19,21,1,,,,,,,,
,,,,,,,,,,,,,FF,,,,,,,,1.60089,,,,,,,,,,,,,,,,,,,,,,61024c6fb46fe099f45f2296,6103684f0433d8fb830d9faa,2021-07-29_21h51.24.637,Simcolourproject_2stim_asymm_v5,2020.2.10,Linux x86_64,60,61025ae37ef11b136ea224fe,,,,,,,,,3440,-52.66156006,-59.80041504,1,0,0,response5disk,,3,-10.12860107,-8.629669189,1,0,0,rectangle,-10.12860107,-8.629669189,1,0,0,-10.12860107,-8.629669189,1,0,0,0,20,20,59,1,,,,,,,,
,,,,,,,,,,,,,FF,,,,,,,,1.53478,,,,,,,,,,,,,,,,,,,,,,61024c6fb46fe099f45f2296,6103684f0433d8fb830d9faa,2021-07-29_21h51.24.637,Simcolourproject_2stim_asymm_v5,2020.2.10,Linux x86_64,60,61025ae37ef11b136ea224fe,,,,,,,,,791,-32.01519775,-64.79415894,1,0,0,response5disk,,3,-7.912597656,-5.530639648,1,0,0,rectangle,-7.912597656,-5.530639648,1,0,0,-7.912597656,-5.530639648,1,0,0,0,21,21,47,1,,,,,,,,
,,,,,,,,,,,,,FF,,,,,,,,1.984585,,,,,,,,,,,,,,,,,,,,,,61024c6fb46fe099f45f2296,6103684f0433d8fb830d9faa,2021-07-29_21h51.24.637,Simcolourproject_2stim_asymm_v5,2020.2.10,Linux x86_64,60,61025ae37ef11b136ea224fe,,,,,,,,,2482,-40.22155762,-66.68121338,1,0,0,response5disk,,3,-6.717163086,-6.491546631,1,0,0,rectangle,-6.717163086,-6.491546631,1,0,0,-6.717163086,-6.491546631,1,0,0,0,22,22,144,1,,,,,,,,
,,,,,,,,,,,,,FF,,,,,,,,1.251385,,,,,,,,,,,,,,,,,,,,,,61024c6fb46fe099f45f2296,6103684f0433d8fb830d9faa,2021-07-29_21h51.24.637,Simcolourproject_2stim_asymm_v5,2020.2.10,Linux x86_64,60,61025ae37ef11b136ea224fe,,,,,,,,,149,84.6463623,33.17999268,1,0,0,response1disk,,6,22.97393799,5.692993164,1,0,0,rectangle,22.97393799,5.692993164,1,0,0,22.97393799,5.692993164,1,0,0,0,23,23,138,1,,,,,,,,
,,,,,,,,,,,,,FF,,,,,,,,1.3679,,,,,,,,,,,,,,,,,,,,,,61024c6fb46fe099f45f2296,6103684f0433d8fb830d9faa,2021-07-29_21h51.24.637,Simcolourproject_2stim_asymm_v5,2020.2.10,Linux x86_64,60,61025ae37ef11b136ea224fe,,,,,,,,,189,35.73712158,-59.71734619,1,0,0,response3disk,,4,1.67956543,7.235809326,1,0,0,rectangle,1.67956543,7.235809326,1,0,0,1.67956543,7.235809326,1,0,0,0,24,24,1,1,,,,,,,,
,,,,,,,,,,,,,FF,,,,,,,,1.41914,,,,,,,,,,,,,,,,,,,,,,61024c6fb46fe099f45f2296,6103684f0433d8fb830d9faa,2021-07-29_21h51.24.637,Simcolourproject_2stim_asymm_v5,2020.2.10,Linux x86_64,60,61025ae37ef11b136ea224fe,,,,,,,,,2999,-36.16400146,-49.49002075,1,0,0,response5disk,,3,-11.33258057,-8.310058594,1,0,0,rectangle,-11.33258057,-8.310058594,1,0,0,-11.33258057,-8.310058594,1,0,0,0,25,25,122,1,,,,,,,,
,,,,,,,,,,,,,FF,,,,,,,,1.80005,,,,,,,,,,,,,,,,,,,,,,61024c6fb46fe099f45f2296,6103684f0433d8fb830d9faa,2021-07-29_21h51.24.637,Simcolourproject_2stim_asymm_v5,2020.2.10,Linux x86_64,60,61025ae37ef11b136ea224fe,,,,,,,,,805,-63.21875,-28.95922852,1,0,0,response5disk,,2,4.554748535,6.110595703,1,0,0,rectangle,4.554748535,6.110595703,1,0,0,4.554748535,6.110595703,1,0,0,0,26,26,88,1,,,,,,,,
,,,,,,,,,,,,,FF,,,,,,,,1.316985,,,,,,,,,,,,,,,,,,,,,,61024c6fb46fe099f45f2296,6103684f0433d8fb830d9faa,2021-07-29_21h51.24.637,Simcolourproject_2stim_asymm_v5,2020.2.10,Linux x86_64,60,61025ae37ef11b136ea224fe,,,,,,,,,2653,72.92407227,30.94458008,1,0,0,response1disk,,6,13.83032227,3.111907959,1,0,0,rectangle,13.83032227,3.111907959,1,0,0,13.83032227,3.111907959,1,0,0,0,27,27,4,1,,,,,,,,
,,,,,,,,,,,,,FF,,,,,,,,2.2685,,,,,,,,,,,,,,,,,,,,,,61024c6fb46fe099f45f2296,6103684f0433d8fb830d9faa,2021-07-29_21h51.24.637,Simcolourproject_2stim_asymm_v5,2020.2.10,Linux x86_64,60,61025ae37ef11b136ea224fe,,,,,,,,,1798,94.89489746,-47.58865356,1,0,0,response3disk,,5,26.359375,4.093200684,1,0,0,rectangle,26.359375,4.093200684,1,0,0,26.359375,4.093200684,1,0,0,0,28,28,10,1,,,,,,,,
,,,,,,,,,,,,,FF,,,,,,,,1.350515,,,,,,,,,,,,,,,,,,,,,,61024c6fb46fe099f45f2296,6103684f0433d8fb830d9faa,2021-07-29_21h51.24.637,Simcolourproject_2stim_asymm_v5,2020.2.10,Linux x86_64,60,61025ae37ef11b136ea224fe,,,,,,,,,2962,61.63165283,-18.2492981,1,0,0,response3disk,,5,23.17608643,-1.94354248,1,0,0,rectangle,23.17608643,-1.94354248,1,0,0,23.17608643,-1.94354248,1,0,0,0,29,29,16,1,,,,,,,,
,,,,,,,,,,,,,FF,,,,,,,,1.5194,,,,,,,,,,,,,,,,,,,,,,61024c6fb46fe099f45f2296,6103684f0433d8fb830d9faa,2021-07-29_21h51.24.637,Simcolourproject_2stim_asymm_v5,2020.2.10,Linux x86_64,60,61025ae37ef11b136ea224fe,,,,,,,,,1712,92.55151367,24.43341064,1,0,0,response1disk,,6,24.42681885,-1.541046143,1,0,0,rectangle,24.42681885,-1.541046143,1,0,0,24.42681885,-1.541046143,1,0,0,0,30,30,76,1,,,,,,,,
,,,,,,,,,,,,,FF,,,,,,,,1.251765,,,,,,,,,,,,,,,,,,,,,,61024c6fb46fe099f45f2296,6103684f0433d8fb830d9faa,2021-07-29_21h51.24.637,Simcolourproject_2stim_asymm_v5,2020.2.10,Linux x86_64,60,61025ae37ef11b136ea224fe,,,,,,,,,601,51.54333496,29.07040405,1,0,0,response1disk,,6,-18.6885376,-0.701019287,1,0,0,rectangle,-18.6885376,-0.701019287,1,0,0,-18.6885376,-0.701019287,1,0,0,0,31,31,125,1,,,,,,,,
,,,,,,,,,,,,,FF,,,,,,,,2.30163,,,,,,,,,,,,,,,,,,,,,,61024c6fb46fe099f45f2296,6103684f0433d8fb830d9faa,2021-07-29_21h51.24.637,Simcolourproject_2stim_asymm_v5,2020.2.10,Linux x86_64,60,61025ae37ef11b136ea224fe,,,,,,,,,2458,37.58587646,52.58428955,1,0,0,response1disk,,7,8.72052002,6.859771729,1,0,0,rectangle,8.72052002,6.859771729,1,0,0,8.72052002,6.859771729,1,0,0,0,32,32,127,1,,,,,,,,
,,,,,,,,,,,,,FF,,,,,,,,1.20087,,,,,,,,,,,,,,,,,,,,,,61024c6fb46fe099f45f2296,6103684f0433d8fb830d9faa,2021-07-29_21h51.24.637,Simcolourproject_2stim_asymm_v5,2020.2.10,Linux x86_64,60,61025ae37ef11b136ea224fe,,,,,,,,,3529,-51.88195801,-97.32852173,1,0,0,response5disk,,3,-0.706481934,-9.70916748,1,0,0,rectangle,-0.706481934,-9.70916748,1,0,0,-0.706481934,-9.70916748,1,0,0,0,33,33,11,1,,,,,,,,
,,,,,,,,,,,,,FF,,,,,,,,1.10091,,,,,,,,,,,,,,,,,,,,,,61024c6fb46fe099f45f2296,6103684f0433d8fb830d9faa,2021-07-29_21h51.24.637,Simcolourproject_2stim_asymm_v5,2020.2.10,Linux x86_64,60,61025ae37ef11b136ea224fe,,,,,,,,,4266,-21.40631104,65.60244751,1,0,0,response7disk,,0,5.599304199,3.633728027,1,0,0,rectangle,5.599304199,3.633728027,1,0,0,5.599304199,3.633728027,1,0,0,0,34,34,58,1,,,,,,,,
,,,,,,,,,,,,,FF,,,,,,,,1.51785,,,,,,,,,,,,,,,,,,,,,,61024c6fb46fe099f45f2296,6103684f0433d8fb830d9faa,2021-07-29_21h51.24.637,Simcolourproject_2stim_asymm_v5,2020.2.10,Linux x86_64,60,61025ae37ef11b136ea224fe,,,,,,,,,938,91.14959717,44.62744141,1,0,0,response1disk,,6,-1.219543457,6.018005371,1,0,0,rectangle,-1.219543457,6.018005371,1,0,0,-1.219543457,6.018005371,1,0,0,0,35,35,52,1,,,,,,,,
,,,,,,,,,,,,,FF,,,,,,,,1.98445,,,,,,,,,,,,,,,,,,,,,,61024c6fb46fe099f45f2296,6103684f0433d8fb830d9faa,2021-07-29_21h51.24.637,Simcolourproject_2stim_asymm_v5,2020.2.10,Linux x86_64,60,61025ae37ef11b136ea224fe,,,,,,,,,3719,-30.74871826,-52.72683716,1,0,0,response5disk,,3,-4.71875,0.167602539,1,0,0,rectangle,-4.71875,0.167602539,1,0,0,-4.71875,0.167602539,1,0,0,0,36,36,17,1,,,,,,,,
,,,,,,,,,,,,,FF,,,,,,,,2.53403,,,,,,,,,,,,,,,,,,,,,,61024c6fb46fe099f45f2296,6103684f0433d8fb830d9faa,2021-07-29_21h51.24.637,Simcolourproject_2stim_asymm_v5,2020.2.10,Linux x86_64,60,61025ae37ef11b136ea224fe,,,,,,,,,109,80.62109375,-33.56219482,1,0,0,response3disk,,5,24.35681152,-1.267578125,1,0,0,rectangle,24.35681152,-1.267578125,1,0,0,24.35681152,-1.267578125,1,0,0,0,37,37,64,1,,,,,,,,
,,,,,,,,,,,,,FF,,,,,,,,2.0679,,,,,,,,,,,,,,,,,,,,,,61024c6fb46fe099f45f2296,6103684f0433d8fb830d9faa,2021-07-29_21h51.24.637,Simcolourproject_2stim_asymm_v5,2020.2.10,Linux x86_64,60,61025ae37ef11b136ea224fe,,,,,,,,,1936,28.02636719,108.6270752,1,0,0,response1disk,,7,-4.877929688,8.210693359,1,0,0,rectangle,-4.877929688,8.210693359,1,0,0,-4.877929688,8.210693359,1,0,0,0,38,38,142,1,,,,,,,,
,,,,,,,,,,,,,FF,,,,,,,,1.25137,,,,,,,,,,,,,,,,,,,,,,61024c6fb46fe099f45f2296,6103684f0433d8fb830d9faa,2021-07-29_21h51.24.637,Simcolourproject_2stim_asymm_v5,2020.2.10,Linux x86_64,60,61025ae37ef11b136ea224fe,,,,,,,,,60,25.41760254,53.48928833,1,0,0,response1disk,,7,11.14123535,8.367980957,1,0,0,rectangle,11.14123535,8.367980957,1,0,0,11.14123535,8.367980957,1,0,0,0,39,39,22,1,,,,,,,,
,,,,,,,,,,,,,FF,,,,,,,,1.56913,,,,,,,,,,,,,,,,,,,,,,61024c6fb46fe099f45f2296,6103684f0433d8fb830d9faa,2021-07-29_21h51.24.637,Simcolourproject_2stim_asymm_v5,2020.2.10,Linux x86_64,60,61025ae37ef11b136ea224fe,,,,,,,,,3126,45.24377441,50.95254517,1,0,0,response1disk,,7,2.940551758,3.049041748,1,0,0,rectangle,2.940551758,3.049041748,1,0,0,2.940551758,3.049041748,1,0,0,0,40,40,137,1,,,,,,,,
,,,,,,,,,,,,,FF,,,,,,,,1.651325,,,,,,,,,,,,,,,,,,,,,,61024c6fb46fe099f45f2296,6103684f0433d8fb830d9faa,2021-07-29_21h51.24.637,Simcolourproject_2stim_asymm_v5,2020.2.10,Linux x86_64,60,61025ae37ef11b136ea224fe,,,,,,,,,2015,-40.53430176,-57.44406128,1,0,0,response5disk,,3,-15.41552734,-4.676147461,1,0,0,rectangle,-51.76483154,40.22637939,1,0,0,-11.48718262,2.771789551,1,0,0,0,41,41,112,1,,response7disk_3,TRUE,1,1,"[218,288,321,178,280,141,250,145,83,72,265,4,50,274,42,275,46,267,159,13]",2.067975,rectangle
,,,,,,,,,,,,,FF,,,,,,,,1.6507,,,,,,,,,,,,,,,,,,,,,,61024c6fb46fe099f45f2296,6103684f0433d8fb830d9faa,2021-07-29_21h51.24.637,Simcolourproject_2stim_asymm_v5,2020.2.10,Linux x86_64,60,61025ae37ef11b136ea224fe,,,,,,,,,1784,41.5871582,38.46566772,1,0,0,response1disk,,6,16.02947998,5.273193359,1,0,0,rectangle,16.02947998,5.273193359,1,0,0,16.02947998,5.273193359,1,0,0,0,42,42,146,1,,,,,,,,
,,,,,,,,,,,,,FF,,,,,,,,1.30062,,,,,,,,,,,,,,,,,,,,,,61024c6fb46fe099f45f2296,6103684f0433d8fb830d9faa,2021-07-29_21h51.24.637,Simcolourproject_2stim_asymm_v5,2020.2.10,Linux x86_64,60,61025ae37ef11b136ea224fe,,,,,,,,,4337,-46.21917725,-25.42904663,1,0,0,response5disk,,2,-8.188171387,-0.355529785,1,0,0,rectangle,-8.188171387,-0.355529785,1,0,0,-8.188171387,-0.355529785,1,0,0,0,43,43,66,1,,,,,,,,
,,,,,,,,,,,,,FF,,,,,,,,1.75193,,,,,,,,,,,,,,,,,,,,,,61024c6fb46fe099f45f2296,6103684f0433d8fb830d9faa,2021-07-29_21h51.24.637,Simcolourproject_2stim_asymm_v5,2020.2.10,Linux x86_64,60,61025ae37ef11b136ea224fe,,,,,,,,,1193,76.83721924,-29.61859131,1,0,0,response3disk,,5,28.29101563,-5.530395508,1,0,0,rectangle,28.29101563,-5.530395508,1,0,0,28.29101563,-5.530395508,1,0,0,0,44,44,149,1,,,,,,,,
,,,,,,,,,,,,,FF,,,,,,,,3.26776,,,,,,,,,,,,,,,,,,,,,,61024c6fb46fe099f45f2296,6103684f0433d8fb830d9faa,2021-07-29_21h51.24.637,Simcolourproject_2stim_asymm_v5,2020.2.10,Linux x86_64,60,61025ae37ef11b136ea224fe,,,,,,,,,3677,-87.47387695,17.51544189,1,0,0,response7disk,,1,8.976989746,8.175567627,1,0,0,rectangle,39.21240234,57.67987061,1,0,0,7.657043457,-2.747711182,1,0,0,0,45,45,133,1,,response1disk_3,TRUE,7,7,"[218,288,321,178,280,141,250,145,83,72,265,4,50,274,42,275,46,267,159,13]",2.30158,rectangle
,,,,,,,,,,,,,FF,,,,,,,,2.651225,,,,,,,,,,,,,,,,,,,,,,61024c6fb46fe099f45f2296,6103684f0433d8fb830d9faa,2021-07-29_21h51.24.637,Simcolourproject_2stim_asymm_v5,2020.2.10,Linux x86_64,60,61025ae37ef11b136ea224fe,,,,,,,,,3068,78.61560059,27.32672119,1,0,0,response1disk,,6,21.89086914,2.022064209,1,0,0,rectangle,21.89086914,2.022064209,1,0,0,21.89086914,2.022064209,1,0,0,0,46,46,89,1,,,,,,,,
,,,,,,,,,,,,,FF,,,,,,,,1.63456,,,,,,,,,,,,,,,,,,,,,,61024c6fb46fe099f45f2296,6103684f0433d8fb830d9faa,2021-07-29_21h51.24.637,Simcolourproject_2stim_asymm_v5,2020.2.10,Linux x86_64,60,61025ae37ef11b136ea224fe,,,,,,,,,596,48.23529053,62.51846313,1,0,0,response1disk,,7,6.12286377,-1.037567139,1,0,0,rectangle,6.12286377,-1.037567139,1,0,0,6.12286377,-1.037567139,1,0,0,0,47,47,51,1,,,,,,,,
,,,,,,,,,,,,,FF,,,,,,,,1.06634,,,,,,,,,,,,,,,,,,,,,,61024c6fb46fe099f45f2296,6103684f0433d8fb830d9faa,2021-07-29_21h51.24.637,Simcolourproject_2stim_asymm_v5,2020.2.10,Linux x86_64,60,61025ae37ef11b136ea224fe,,,,,,,,,426,88.55236816,25.23254395,1,0,0,response1disk,,6,18.31964111,-0.338256836,1,0,0,rectangle,18.31964111,-0.338256836,1,0,0,18.31964111,-0.338256836,1,0,0,0,48,48,14,1,,,,,,,,
,,,,,,,,,,,,,FF,,,,,,,,1.75241,,,,,,,,,,,,,,,,,,,,,,61024c6fb46fe099f45f2296,6103684f0433d8fb830d9faa,2021-07-29_21h51.24.637,Simcolourproject_2stim_asymm_v5,2020.2.10,Linux x86_64,60,61025ae37ef11b136ea224fe,,,,,,,,,2201,77.65240479,47.31613159,1,0,0,response1disk,,6,20.35498047,8.022949219,1,0,0,rectangle,28.13592529,-72.07470703,1,0,0,-2.455505371,6.530853271,1,0,0,0,49,49,140,1,,response3disk_3,TRUE,4,4,"[218,288,321,178,280,141,250,145,83,72,265,4,50,274,42,275,46,267,159,13]",2.56683,rectangle
,,,,,,,,,,,,,FF,,,,,,,,2.285615,,,,,,,,,,,,,,,,,,,,,,61024c6fb46fe099f45f2296,6103684f0433d8fb830d9faa,2021-07-29_21h51.24.637,Simcolourproject_2stim_asymm_v5,2020.2.10,Linux x86_64,60,61025ae37ef11b136ea224fe,,,,,,,,,1196,65.47253418,-75.52679443,1,0,0,response3disk,,4,15.23498535,-11.00497437,1,0,0,rectangle,15.23498535,-11.00497437,1,0,0,15.23498535,-11.00497437,1,0,0,0,50,50,95,1,,,,,,,,
,,,,,,,,,,,,,FF,,,,,,,,2.568735,,,,,,,,,,,,,,,,,,,,,,61024c6fb46fe099f45f2296,6103684f0433d8fb830d9faa,2021-07-29_21h51.24.637,Simcolourproject_2stim_asymm_v5,2020.2.10,Linux x86_64,60,61025ae37ef11b136ea224fe,,,,,,,,,1789,86.112854,25.12255859,1,0,0,response1disk,,6,5.483215332,5.302612305,1,0,0,rectangle,5.483215332,5.302612305,1,0,0,5.483215332,5.302612305,1,0,0,0,51,51,70,1,,,,,,,,
,,,,,,,,,,,,,FF,,,,,,,,1.117705,,,,,,,,,,,,,,,,,,,,,,61024c6fb46fe099f45f2296,6103684f0433d8fb830d9faa,2021-07-29_21h51.24.637,Simcolourproject_2stim_asymm_v5,2020.2.10,Linux x86_64,60,61025ae37ef11b136ea224fe,,,,,,,,,3382,-38.18023682,-58.9057312,1,0,0,response5disk,,3,-7.857849121,-8.637145996,1,0,0,rectangle,-7.857849121,-8.637145996,1,0,0,-7.857849121,-8.637145996,1,0,0,0,52,52,108,1,,,,,,,,
,,,,,,,,,,,,,FF,,,,,,,,1.100685,,,,,,,,,,,,,,,,,,,,,,61024c6fb46fe099f45f2296,6103684f0433d8fb830d9faa,2021-07-29_21h51.24.637,Simcolourproject_2stim_asymm_v5,2020.2.10,Linux x86_64,60,61025ae37ef11b136ea224fe,,,,,,,,,4205,-22.23248291,-51.96673584,1,0,0,response5disk,,3,-0.901306152,1.628662109,1,0,0,rectangle,-0.901306152,1.628662109,1,0,0,-0.901306152,1.628662109,1,0,0,0,53,53,0,1,,,,,,,,
,,,,,,,,,,,,,FF,,,,,,,,0.934165,,,,,,,,,,,,,,,,,,,,,,61024c6fb46fe099f45f2296,6103684f0433d8fb830d9faa,2021-07-29_21h51.24.637,Simcolourproject_2stim_asymm_v5,2020.2.10,Linux x86_64,60,61025ae37ef11b136ea224fe,,,,,,,,,3133,50.82958984,-38.03994751,1,0,0,response3disk,,5,13.90698242,-8.412750244,1,0,0,rectangle,13.90698242,-8.412750244,1,0,0,13.90698242,-8.412750244,1,0,0,0,54,54,131,1,,,,,,,,
,,,,,,,,,,,,,FF,,,,,,,,1.43586,,,,,,,,,,,,,,,,,,,,,,61024c6fb46fe099f45f2296,6103684f0433d8fb830d9faa,2021-07-29_21h51.24.637,Simcolourproject_2stim_asymm_v5,2020.2.10,Linux x86_64,60,61025ae37ef11b136ea224fe,,,,,,,,,2159,44.79144287,32.45651245,1,0,0,response1disk,,6,10.50744629,6.073883057,1,0,0,rectangle,10.50744629,6.073883057,1,0,0,10.50744629,6.073883057,1,0,0,0,55,55,37,1,,,,,,,,
,,,,,,,,,,,,,FF,,,,,,,,1.400615,,,,,,,,,,,,,,,,,,,,,,61024c6fb46fe099f45f2296,6103684f0433d8fb830d9faa,2021-07-29_21h51.24.637,Simcolourproject_2stim_asymm_v5,2020.2.10,Linux x86_64,60,61025ae37ef11b136ea224fe,,,,,,,,,851,34.72943115,62.40411377,1,0,0,response1disk,,7,5.163635254,4.217498779,1,0,0,rectangle,5.163635254,4.217498779,1,0,0,5.163635254,4.217498779,1,0,0,0,56,56,12,1,,,,,,,,
,,,,,,,,,,,,,FF,,,,,,,,1.151095,,,,,,,,,,,,,,,,,,,,,,61024c6fb46fe099f45f2296,6103684f0433d8fb830d9faa,2021-07-29_21h51.24.637,Simcolourproject_2stim_asymm_v5,2020.2.10,Linux x86_64,60,61025ae37ef11b136ea224fe,,,,,,,,,3720,47.74786377,29.63189697,1,0,0,response1disk,,6,15.32781982,8.782714844,1,0,0,rectangle,15.32781982,8.782714844,1,0,0,15.32781982,8.782714844,1,0,0,0,57,57,128,1,,,,,,,,
,,,,,,,,,,,,,FF,,,,,,,,1.217475,,,,,,,,,,,,,,,,,,,,,,61024c6fb46fe099f45f2296,6103684f0433d8fb830d9faa,2021-07-29_21h51.24.637,Simcolourproject_2stim_asymm_v5,2020.2.10,Linux x86_64,60,61025ae37ef11b136ea224fe,,,,,,,,,714,40.75042725,-66.06439209,1,0,0,response3disk,,4,1.668395996,4.652160645,1,0,0,rectangle,1.668395996,4.652160645,1,0,0,1.668395996,4.652160645,1,0,0,0,58,58,5,1,,,,,,,,
,,,,,,,,,,,,,FF,,,,,,,,1.266725,,,,,,,,,,,,,,,,,,,,,,61024c6fb46fe099f45f2296,6103684f0433d8fb830d9faa,2021-07-29_21h51.24.637,Simcolourproject_2stim_asymm_v5,2020.2.10,Linux x86_64,60,61025ae37ef11b136ea224fe,,,,,,,,,3346,-28.40447998,-76.75408936,1,0,0,response5disk,,3,-4.992736816,-5.312103271,1,0,0,rectangle,-4.992736816,-5.312103271,1,0,0,-4.992736816,-5.312103271,1,0,0,0,59,59,28,1,,,,,,,,
,,,,,,,,,,,,,FF,,,,,,,,1.18277,,,,,,,,,,,,,,,,,,,,,,61024c6fb46fe099f45f2296,6103684f0433d8fb830d9faa,2021-07-29_21h51.24.637,Simcolourproject_2stim_asymm_v5,2020.2.10,Linux x86_64,60,61025ae37ef11b136ea224fe,,,,,,,,,3644,22.55102539,-67.83126831,1,0,0,response3disk,,4,9.859375,-10.42681885,1,0,0,rectangle,9.859375,-10.42681885,1,0,0,9.859375,-10.42681885,1,0,0,0,60,60,107,1,,,,,,,,
,,,,,,,,,,,,,FF,,,,,,,,1.30225,,,,,,,,,,,,,,,,,,,,,,61024c6fb46fe099f45f2296,6103684f0433d8fb830d9faa,2021-07-29_21h51.24.637,Simcolourproject_2stim_asymm_v5,2020.2.10,Linux x86_64,60,61025ae37ef11b136ea224fe,,,,,,,,,2083,-33.50628662,-76.69393921,1,0,0,response5disk,,3,1.543884277,2.577697754,1,0,0,rectangle,1.543884277,2.577697754,1,0,0,1.543884277,2.577697754,1,0,0,0,61,61,13,1,,,,,,,,
,,,,,,,,,,,,,FF,,,,,,,,0.967375,,,,,,,,,,,,,,,,,,,,,,61024c6fb46fe099f45f2296,6103684f0433d8fb830d9faa,2021-07-29_21h51.24.637,Simcolourproject_2stim_asymm_v5,2020.2.10,Linux x86_64,60,61025ae37ef11b136ea224fe,,,,,,,,,1892,-88.99365234,-32.11459351,1,0,0,response5disk,,2,-24.86981201,3.903778076,1,0,0,rectangle,-24.86981201,3.903778076,1,0,0,-24.86981201,3.903778076,1,0,0,0,62,62,110,1,,,,,,,,
,,,,,,,,,,,,,FF,,,,,,,,2.419575,,,,,,,,,,,,,,,,,,,,,,61024c6fb46fe099f45f2296,6103684f0433d8fb830d9faa,2021-07-29_21h51.24.637,Simcolourproject_2stim_asymm_v5,2020.2.10,Linux x86_64,60,61025ae37ef11b136ea224fe,,,,,,,,,3182,96.9050293,21.94067383,1,0,0,response1disk,,6,14.88360596,-0.528320313,1,0,0,rectangle,14.88360596,-0.528320313,1,0,0,14.88360596,-0.528320313,1,0,0,0,63,63,31,1,,,,,,,,
,,,,,,,,,,,,,FF,,,,,,,,1.86793,,,,,,,,,,,,,,,,,,,,,,61024c6fb46fe099f45f2296,6103684f0433d8fb830d9faa,2021-07-29_21h51.24.637,Simcolourproject_2stim_asymm_v5,2020.2.10,Linux x86_64,60,61025ae37ef11b136ea224fe,,,,,,,,,3226,81.92974854,67.92733765,1,0,0,response1disk,,6,-0.098815918,9.520233154,1,0,0,rectangle,-0.098815918,9.520233154,1,0,0,-0.098815918,9.520233154,1,0,0,0,64,64,55,1,,,,,,,,
,,,,,,,,,,,,,FF,,,,,,,,2.23572,,,,,,,,,,,,,,,,,,,,,,61024c6fb46fe099f45f2296,6103684f0433d8fb830d9faa,2021-07-29_21h51.24.637,Simcolourproject_2stim_asymm_v5,2020.2.10,Linux x86_64,60,61025ae37ef11b136ea224fe,,,,,,,,,908,-96.06494141,-51.43621826,1,0,0,response5disk,,2,-9.877075195,-1.796051025,1,0,0,rectangle,-9.877075195,-1.796051025,1,0,0,-9.877075195,-1.796051025,1,0,0,0,65,65,121,1,,,,,,,,
,,,,,,,,,,,,,FF,,,,,,,,1.718435,,,,,,,,,,,,,,,,,,,,,,61024c6fb46fe099f45f2296,6103684f0433d8fb830d9faa,2021-07-29_21h51.24.637,Simcolourproject_2stim_asymm_v5,2020.2.10,Linux x86_64,60,61025ae37ef11b136ea224fe,,,,,,,,,933,67.17126465,48.69955444,1,0,0,response1disk,,6,3.207763672,-0.289916992,1,0,0,rectangle,3.207763672,-0.289916992,1,0,0,3.207763672,-0.289916992,1,0,0,0,66,66,9,1,,,,,,,,
,,,,,,,,,,,,,FF,,,,,,,,1.783195,,,,,,,,,,,,,,,,,,,,,,61024c6fb46fe099f45f2296,6103684f0433d8fb830d9faa,2021-07-29_21h51.24.637,Simcolourproject_2stim_asymm_v5,2020.2.10,Linux x86_64,60,61025ae37ef11b136ea224fe,,,,,,,,,2405,30.14880371,64.87896729,1,0,0,response1disk,,7,-1.608825684,4.804534912,1,0,0,rectangle,-1.608825684,4.804534912,1,0,0,-1.608825684,4.804534912,1,0,0,0,67,67,54,1,,,,,,,,
,,,,,,,,,,,,,FF,,,,,,,,1.286255,,,,,,,,,,,,,,,,,,,,,,61024c6fb46fe099f45f2296,6103684f0433d8fb830d9faa,2021-07-29_21h51.24.637,Simcolourproject_2stim_asymm_v5,2020.2.10,Linux x86_64,60,61025ae37ef11b136ea224fe,,,,,,,,,3211,27.98632813,-50.95065308,1,0,0,response3disk,,4,4.326416016,-8.250518799,1,0,0,rectangle,4.326416016,-8.250518799,1,0,0,4.326416016,-8.250518799,1,0,0,0,68,68,45,1,,,,,,,,
,,,,,,,,,,,,,FF,,,,,,,,2.186605,,,,,,,,,,,,,,,,,,,,,,61024c6fb46fe099f45f2296,6103684f0433d8fb830d9faa,2021-07-29_21h51.24.637,Simcolourproject_2stim_asymm_v5,2020.2.10,Linux x86_64,60,61025ae37ef11b136ea224fe,,,,,,,,,1478,77.82861328,-35.1237793,1,0,0,response3disk,,5,-0.93762207,-0.100311279,1,0,0,rectangle,-0.93762207,-0.100311279,1,0,0,-0.93762207,-0.100311279,1,0,0,0,69,69,24,1,,,,,,,,
,,,,,,,,,,,,,FF,,,,,,,,1.13331,,,,,,,,,,,,,,,,,,,,,,61024c6fb46fe099f45f2296,6103684f0433d8fb830d9faa,2021-07-29_21h51.24.637,Simcolourproject_2stim_asymm_v5,2020.2.10,Linux x86_64,60,61025ae37ef11b136ea224fe,,,,,,,,,1690,-69.99743652,-39.40286255,1,0,0,response5disk,,2,4.421875,4.533691406,1,0,0,rectangle,4.421875,4.533691406,1,0,0,4.421875,4.533691406,1,0,0,0,70,70,49,1,,,,,,,,
,,,,,,,,,,,,,FF,,,,,,,,2.311515,,,,,,,,,,,,,,,,,,,,,,61024c6fb46fe099f45f2296,6103684f0433d8fb830d9faa,2021-07-29_21h51.24.637,Simcolourproject_2stim_asymm_v5,2020.2.10,Linux x86_64,60,61025ae37ef11b136ea224fe,,,,,,,,,2317,97.9753418,25.91329956,1,0,0,response1disk,,6,24.85223389,5.019500732,1,0,0,rectangle,-43.67169189,62.00064087,1,0,0,9.887573242,-11.40048218,1,0,0,0,71,71,92,1,,response7disk_3,TRUE,0,0,"[218,288,321,178,280,141,250,145,83,72,265,4,50,274,42,275,46,267,159,13]",2.53469,rectangle
,,,,,,,,,,,,,FF,,,,,,,,1.350905,,,,,,,,,,,,,,,,,,,,,,61024c6fb46fe099f45f2296,6103684f0433d8fb830d9faa,2021-07-29_21h51.24.637,Simcolourproject_2stim_asymm_v5,2020.2.10,Linux x86_64,60,61025ae37ef11b136ea224fe,,,,,,,,,626,85.65106201,45.59777832,1,0,0,response1disk,,6,22.11981201,7.243530273,1,0,0,rectangle,22.11981201,7.243530273,1,0,0,22.11981201,7.243530273,1,0,0,0,72,72,106,1,,,,,,,,
,,,,,,,,,,,,,FF,,,,,,,,2.117835,,,,,,,,,,,,,,,,,,,,,,61024c6fb46fe099f45f2296,6103684f0433d8fb830d9faa,2021-07-29_21h51.24.637,Simcolourproject_2stim_asymm_v5,2020.2.10,Linux x86_64,60,61025ae37ef11b136ea224fe,,,,,,,,,984,-22.83880615,-70.17605591,1,0,0,response5disk,,3,-5.908203125,-3.697875977,1,0,0,rectangle,-5.908203125,-3.697875977,1,0,0,-5.908203125,-3.697875977,1,0,0,0,73,73,3,1,,,,,,,,
,,,,,,,,,,,,,FF,,,,,,,,2.01887,,,,,,,,,,,,,,,,,,,,,,61024c6fb46fe099f45f2296,6103684f0433d8fb830d9faa,2021-07-29_21h51.24.637,Simcolourproject_2stim_asymm_v5,2020.2.10,Linux x86_64,60,61025ae37ef11b136ea224fe,,,,,,,,,1488,57.82141113,85.94436646,1,0,0,response1disk,,7,0.340332031,5.76675415,1,0,0,rectangle,0.340332031,5.76675415,1,0,0,0.340332031,5.76675415,1,0,0,0,74,74,96,1,,,,,,,,
,,,,,,,,,,,,,FF,,,,,,,,1.619045,,,,,,,,,,,,,,,,,,,,,,61024c6fb46fe099f45f2296,6103684f0433d8fb830d9faa,2021-07-29_21h51.24.637,Simcolourproject_2stim_asymm_v5,2020.2.10,Linux x86_64,60,61025ae37ef11b136ea224fe,,,,,,,,,2998,-101.2587891,-45.96585083,1,0,0,response5disk,,2,-17.35101318,3.639587402,1,0,0,rectangle,-17.35101318,3.639587402,1,0,0,-17.35101318,3.639587402,1,0,0,0,75,75,93,1,,,,,,,,
,,,,,,,,,,,,,FF,,,,,,,,1.18407,,,,,,,,,,,,,,,,,,,,,,61024c6fb46fe099f45f2296,6103684f0433d8fb830d9faa,2021-07-29_21h51.24.637,Simcolourproject_2stim_asymm_v5,2020.2.10,Linux x86_64,60,61025ae37ef11b136ea224fe,,,,,,,,,1677,-89.42974854,49.20751953,1,0,0,response7disk,,1,-17.73425293,2.959869385,1,0,0,rectangle,-17.73425293,2.959869385,1,0,0,-17.73425293,2.959869385,1,0,0,0,76,76,83,1,,,,,,,,
,,,,,,,,,,,,,FF,,,,,,,,1.234125,,,,,,,,,,,,,,,,,,,,,,61024c6fb46fe099f45f2296,6103684f0433d8fb830d9faa,2021-07-29_21h51.24.637,Simcolourproject_2stim_asymm_v5,2020.2.10,Linux x86_64,60,61025ae37ef11b136ea224fe,,,,,,,,,3638,89.94616699,26.03302002,1,0,0,response1disk,,6,19.29821777,1.924713135,1,0,0,rectangle,19.29821777,1.924713135,1,0,0,19.29821777,1.924713135,1,0,0,0,77,77,29,1,,,,,,,,
,,,,,,,,,,,,,FF,,,,,,,,2.118255,,,,,,,,,,,,,,,,,,,,,,61024c6fb46fe099f45f2296,6103684f0433d8fb830d9faa,2021-07-29_21h51.24.637,Simcolourproject_2stim_asymm_v5,2020.2.10,Linux x86_64,60,61025ae37ef11b136ea224fe,,,,,,,,,2850,50.25311279,44.67678833,1,0,0,response1disk,,6,6.356628418,6.463592529,1,0,0,rectangle,6.356628418,6.463592529,1,0,0,6.356628418,6.463592529,1,0,0,0,78,78,40,1,,,,,,,,
,,,,,,,,,,,,,FF,,,,,,,,1.563985,,,,,,,,,,,,,,,,,,,,,,61024c6fb46fe099f45f2296,6103684f0433d8fb830d9faa,2021-07-29_21h51.24.637,Simcolourproject_2stim_asymm_v5,2020.2.10,Linux x86_64,60,61025ae37ef11b136ea224fe,,,,,,,,,1370,-83.98242188,29.63757324,1,0,0,response7disk,,1,-20.8067627,2.370117188,1,0,0,rectangle,-20.8067627,2.370117188,1,0,0,-20.8067627,2.370117188,1,0,0,0,79,79,19,1,,,,,,,,
,,,,,,,,,,,,,FF,,,,,,,,2.16916,,,,,,,,,,,,,,,,,,,,,,61024c6fb46fe099f45f2296,6103684f0433d8fb830d9faa,2021-07-29_21h51.24.637,Simcolourproject_2stim_asymm_v5,2020.2.10,Linux x86_64,60,61025ae37ef11b136ea224fe,,,,,,,,,95,-34.67242432,-51.78979492,1,0,0,response5disk,,3,-10.73919678,0.942016602,1,0,0,rectangle,-10.73919678,0.942016602,1,0,0,-10.73919678,0.942016602,1,0,0,0,80,80,132,1,,,,,,,,
,,,,,,,,,,,,,FF,,,,,,,,2.602635,,,,,,,,,,,,,,,,,,,,,,61024c6fb46fe099f45f2296,6103684f0433d8fb830d9faa,2021-07-29_21h51.24.637,Simcolourproject_2stim_asymm_v5,2020.2.10,Linux x86_64,60,61025ae37ef11b136ea224fe,,,,,,,,,4027,-65.19189453,-76.41992188,1,0,0,response5disk,,3,4.398803711,-0.550170898,1,0,0,rectangle,4.398803711,-0.550170898,1,0,0,4.398803711,-0.550170898,1,0,0,0,81,81,67,1,,,,,,,,
,,,,,,,,,,,,,FF,,,,,,,,1.216165,,,,,,,,,,,,,,,,,,,,,,61024c6fb46fe099f45f2296,6103684f0433d8fb830d9faa,2021-07-29_21h51.24.637,Simcolourproject_2stim_asymm_v5,2020.2.10,Linux x86_64,60,61025ae37ef11b136ea224fe,,,,,,,,,4254,-33.80322266,-67.72387695,1,0,0,response5disk,,3,-9.319274902,1.279876709,1,0,0,rectangle,63.06994629,35.09088135,1,0,0,25.14764404,5.645965576,1,0,0,0,82,82,79,1,,response1disk_3,TRUE,6,6,"[218,288,321,178,280,141,250,145,83,72,265,4,50,274,42,275,46,267,159,13]",1.817515,rectangle
,,,,,,,,,,,,,FF,,,,,,,,1.13454,,,,,,,,,,,,,,,,,,,,,,61024c6fb46fe099f45f2296,6103684f0433d8fb830d9faa,2021-07-29_21h51.24.637,Simcolourproject_2stim_asymm_v5,2020.2.10,Linux x86_64,60,61025ae37ef11b136ea224fe,,,,,,,,,432,-51.93603516,-70.64300537,1,0,0,response5disk,,3,-12.7746582,-7.927947998,1,0,0,rectangle,-12.7746582,-7.927947998,1,0,0,-12.7746582,-7.927947998,1,0,0,0,83,83,33,1,,,,,,,,
,,,,,,,,,,,,,FF,,,,,,,,1.452115,,,,,,,,,,,,,,,,,,,,,,61024c6fb46fe099f45f2296,6103684f0433d8fb830d9faa,2021-07-29_21h51.24.637,Simcolourproject_2stim_asymm_v5,2020.2.10,Linux x86_64,60,61025ae37ef11b136ea224fe,,,,,,,,,1100,88.92810059,39.78533936,1,0,0,response1disk,,6,22.44946289,8.522857666,1,0,0,rectangle,22.44946289,8.522857666,1,0,0,22.44946289,8.522857666,1,0,0,0,84,84,34,1,,,,,,,,
,,,,,,,,,,,,,FF,,,,,,,,2.03505,,,,,,,,,,,,,,,,,,,,,,61024c6fb46fe099f45f2296,6103684f0433d8fb830d9faa,2021-07-29_21h51.24.637,Simcolourproject_2stim_asymm_v5,2020.2.10,Linux x86_64,60,61025ae37ef11b136ea224fe,,,,,,,,,3084,-25.12097168,-95.90878296,1,0,0,response5disk,,3,-5.764587402,-7.807250977,1,0,0,rectangle,-5.764587402,-7.807250977,1,0,0,-5.764587402,-7.807250977,1,0,0,0,85,85,90,1,,,,,,,,
,,,,,,,,,,,,,FF,,,,,,,,2.41857,,,,,,,,,,,,,,,,,,,,,,61024c6fb46fe099f45f2296,6103684f0433d8fb830d9faa,2021-07-29_21h51.24.637,Simcolourproject_2stim_asymm_v5,2020.2.10,Linux x86_64,60,61025ae37ef11b136ea224fe,,,,,,,,,1506,61.13739014,26.91156006,1,0,0,response1disk,,6,15.65307617,0.38470459,1,0,0,rectangle,15.65307617,0.38470459,1,0,0,15.65307617,0.38470459,1,0,0,0,86,86,20,1,,,,,,,,
,,,,,,,,,,,,,FF,,,,,,,,1.40094,,,,,,,,,,,,,,,,,,,,,,61024c6fb46fe099f45f2296,6103684f0433d8fb830d9faa,2021-07-29_21h51.24.637,Simcolourproject_2stim_asymm_v5,2020.2.10,Linux x86_64,60,61025ae37ef11b136ea224fe,,,,,,,,,88,53.45263672,58.19384766,1,0,0,response1disk,,7,0.670837402,-4.008728027,1,0,0,rectangle,0.670837402,-4.008728027,1,0,0,0.670837402,-4.008728027,1,0,0,0,87,87,41,1,,,,,,,,
,,,,,,,,,,,,,FF,,,,,,,,1.485285,,,,,,,,,,,,,,,,,,,,,,61024c6fb46fe099f45f2296,6103684f0433d8fb830d9faa,2021-07-29_21h51.24.637,Simcolourproject_2stim_asymm_v5,2020.2.10,Linux x86_64,60,61025ae37ef11b136ea224fe,,,,,,,,,2463,83.37866211,29.91238403,1,0,0,response1disk,,6,-1.814941406,-9.95022583,1,0,0,rectangle,-1.814941406,-9.95022583,1,0,0,-1.814941406,-9.95022583,1,0,0,0,88,88,32,1,,,,,,,,
,,,,,,,,,,,,,FF,,,,,,,,1.71752,,,,,,,,,,,,,,,,,,,,,,61024c6fb46fe099f45f2296,6103684f0433d8fb830d9faa,2021-07-29_21h51.24.637,Simcolourproject_2stim_asymm_v5,2020.2.10,Linux x86_64,60,61025ae37ef11b136ea224fe,,,,,,,,,2135,30.66369629,86.10357666,1,0,0,response1disk,,7,-10.44073486,4.998657227,1,0,0,rectangle,-10.44073486,4.998657227,1,0,0,-10.44073486,4.998657227,1,0,0,0,89,89,104,1,,,,,,,,
,,,,,,,,,,,,,FF,,,,,,,,1.701335,,,,,,,,,,,,,,,,,,,,,,61024c6fb46fe099f45f2296,6103684f0433d8fb830d9faa,2021-07-29_21h51.24.637,Simcolourproject_2stim_asymm_v5,2020.2.10,Linux x86_64,60,61025ae37ef11b136ea224fe,,,,,,,,,1260,72.18817139,-47.59869385,1,0,0,response3disk,,5,19.46203613,-4.786560059,1,0,0,rectangle,19.46203613,-4.786560059,1,0,0,19.46203613,-4.786560059,1,0,0,0,90,90,35,1,,,,,,,,
,,,,,,,,,,,,,FF,,,,,,,,1.785405,,,,,,,,,,,,,,,,,,,,,,61024c6fb46fe099f45f2296,6103684f0433d8fb830d9faa,2021-07-29_21h51.24.637,Simcolourproject_2stim_asymm_v5,2020.2.10,Linux x86_64,60,61025ae37ef11b136ea224fe,,,,,,,,,2690,96.66485596,38.05438232,1,0,0,response1disk,,6,4.373901367,-5.054016113,1,0,0,rectangle,4.373901367,-5.054016113,1,0,0,4.373901367,-5.054016113,1,0,0,0,91,91,101,1,,,,,,,,
,,,,,,,,,,,,,FF,,,,,,,,1.986955,,,,,,,,,,,,,,,,,,,,,,61024c6fb46fe099f45f2296,6103684f0433d8fb830d9faa,2021-07-29_21h51.24.637,Simcolourproject_2stim_asymm_v5,2020.2.10,Linux x86_64,60,61025ae37ef11b136ea224fe,,,,,,,,,822,-55.15856934,-60.20767212,1,0,0,response5disk,,3,-13.96966553,-12.39425659,1,0,0,rectangle,-13.96966553,-12.39425659,1,0,0,-13.96966553,-12.39425659,1,0,0,0,92,92,30,1,,,,,,,,
,,,,,,,,,,,,,FF,,,,,,,,1.299665,,,,,,,,,,,,,,,,,,,,,,61024c6fb46fe099f45f2296,6103684f0433d8fb830d9faa,2021-07-29_21h51.24.637,Simcolourproject_2stim_asymm_v5,2020.2.10,Linux x86_64,60,61025ae37ef11b136ea224fe,,,,,,,,,77,-24.24987793,37.38943481,1,0,0,response7disk,,0,6.291564941,-3.991546631,1,0,0,rectangle,6.291564941,-3.991546631,1,0,0,6.291564941,-3.991546631,1,0,0,0,93,93,72,1,,,,,,,,
,,,,,,,,,,,,,FF,,,,,,,,2.719045,,,,,,,,,,,,,,,,,,,,,,61024c6fb46fe099f45f2296,6103684f0433d8fb830d9faa,2021-07-29_21h51.24.637,Simcolourproject_2stim_asymm_v5,2020.2.10,Linux x86_64,60,61025ae37ef11b136ea224fe,,,,,,,,,4144,-25.27661133,-70.35906982,1,0,0,response5disk,,3,-8.989135742,-6.223144531,1,0,0,rectangle,-8.989135742,-6.223144531,1,0,0,-8.989135742,-6.223144531,1,0,0,0,94,94,159,1,,,,,,,,
,,,,,,,,,,,,,FF,,,,,,,,1.25138,,,,,,,,,,,,,,,,,,,,,,61024c6fb46fe099f45f2296,6103684f0433d8fb830d9faa,2021-07-29_21h51.24.637,Simcolourproject_2stim_asymm_v5,2020.2.10,Linux x86_64,60,61025ae37ef11b136ea224fe,,,,,,,,,1968,-75.50372314,-49.927948,1,0,0,response5disk,,2,-18.12127686,-8.904296875,1,0,0,rectangle,-18.12127686,-8.904296875,1,0,0,-18.12127686,-8.904296875,1,0,0,0,95,95,156,1,,,,,,,,
,,,,,,,,,,,,,FF,,,,,,,,2.13449,,,,,,,,,,,,,,,,,,,,,,61024c6fb46fe099f45f2296,6103684f0433d8fb830d9faa,2021-07-29_21h51.24.637,Simcolourproject_2stim_asymm_v5,2020.2.10,Linux x86_64,60,61025ae37ef11b136ea224fe,,,,,,,,,1416,75.8918457,23.46035767,1,0,0,response1disk,,6,16.56555176,-2.329986572,1,0,0,rectangle,16.56555176,-2.329986572,1,0,0,16.56555176,-2.329986572,1,0,0,0,96,96,135,1,,,,,,,,
,,,,,,,,,,,,,FF,,,,,,,,1.51663,,,,,,,,,,,,,,,,,,,,,,61024c6fb46fe099f45f2296,6103684f0433d8fb830d9faa,2021-07-29_21h51.24.637,Simcolourproject_2stim_asymm_v5,2020.2.10,Linux x86_64,60,61025ae37ef11b136ea224fe,,,,,,,,,2951,-49.74536133,-61.45803833,1,0,0,response5disk,,3,-8.660400391,-13.76208496,1,0,0,rectangle,-8.660400391,-13.76208496,1,0,0,-8.660400391,-13.76208496,1,0,0,0,97,97,155,1,,,,,,,,
,,,,,,,,,,,,,FF,,,,,,,,1.065715,,,,,,,,,,,,,,,,,,,,,,61024c6fb46fe099f45f2296,6103684f0433d8fb830d9faa,2021-07-29_21h51.24.637,Simcolourproject_2stim_asymm_v5,2020.2.10,Linux x86_64,60,61025ae37ef11b136ea224fe,,,,,,,,,1691,-15.84875488,-51.59719849,1,0,0,response5disk,,3,8.828918457,-9.335876465,1,0,0,rectangle,8.828918457,-9.335876465,1,0,0,8.828918457,-9.335876465,1,0,0,0,98,98,38,1,,,,,,,,
,,,,,,,,,,,,,FF,,,,,,,,1.23474,,,,,,,,,,,,,,,,,,,,,,61024c6fb46fe099f45f2296,6103684f0433d8fb830d9faa,2021-07-29_21h51.24.637,Simcolourproject_2stim_asymm_v5,2020.2.10,Linux x86_64,60,61025ae37ef11b136ea224fe,,,,,,,,,2242,-70.53338623,-39.24609375,1,0,0,response5disk,,2,-15.21142578,2.081359863,1,0,0,rectangle,-15.21142578,2.081359863,1,0,0,-15.21142578,2.081359863,1,0,0,0,99,99,134,1,,,,,,,,
,,,,,,,,,,,,,FF,,,,,,,,1.334105,,,,,,,,,,,,,,,,,,,,,,61024c6fb46fe099f45f2296,6103684f0433d8fb830d9faa,2021-07-29_21h51.24.637,Simcolourproject_2stim_asymm_v5,2020.2.10,Linux x86_64,60,61025ae37ef11b136ea224fe,,,,,,,,,3195,-22.00115967,72.07244873,1,0,0,response7disk,,0,-4.009399414,7.003845215,1,0,0,rectangle,-4.009399414,7.003845215,1,0,0,-4.009399414,7.003845215,1,0,0,0,100,100,53,1,,,,,,,,
,,,,,,,,,,,,,FF,,,,,,,,2.583505,,,,,,,,,,,,,,,,,,,,,,61024c6fb46fe099f45f2296,6103684f0433d8fb830d9faa,2021-07-29_21h51.24.637,Simcolourproject_2stim_asymm_v5,2020.2.10,Linux x86_64,60,61025ae37ef11b136ea224fe,,,,,,,,,3387,71.23822021,-57.78060913,1,0,0,response3disk,,5,9.773986816,-7.500518799,1,0,0,rectangle,9.773986816,-7.500518799,1,0,0,9.773986816,-7.500518799,1,0,0,0,101,101,154,1,,,,,,,,
,,,,,,,,,,,,,FF,,,,,,,,1.301055,,,,,,,,,,,,,,,,,,,,,,61024c6fb46fe099f45f2296,6103684f0433d8fb830d9faa,2021-07-29_21h51.24.637,Simcolourproject_2stim_asymm_v5,2020.2.10,Linux x86_64,60,61025ae37ef11b136ea224fe,,,,,,,,,2139,43.31390381,59.21643066,1,0,0,response1disk,,7,-6.787902832,-5.276672363,1,0,0,rectangle,-6.787902832,-5.276672363,1,0,0,-6.787902832,-5.276672363,1,0,0,0,102,102,68,1,,,,,,,,
,,,,,,,,,,,,,FF,,,,,,,,3.35223,,,,,,,,,,,,,,,,,,,,,,61024c6fb46fe099f45f2296,6103684f0433d8fb830d9faa,2021-07-29_21h51.24.637,Simcolourproject_2stim_asymm_v5,2020.2.10,Linux x86_64,60,61025ae37ef11b136ea224fe,,,,,,,,,1218,-59.96954346,-30.31704712,1,0,0,response5disk,,2,9.116516113,5.58215332,1,0,0,rectangle,9.116516113,5.58215332,1,0,0,9.116516113,5.58215332,1,0,0,0,103,103,6,1,,,,,,,,
,,,,,,,,,,,,,FF,,,,,,,,2.05049,,,,,,,,,,,,,,,,,,,,,,61024c6fb46fe099f45f2296,6103684f0433d8fb830d9faa,2021-07-29_21h51.24.637,Simcolourproject_2stim_asymm_v5,2020.2.10,Linux x86_64,60,61025ae37ef11b136ea224fe,,,,,,,,,819,-29.60412598,-63.64733887,1,0,0,response5disk,,3,7.445007324,5.430114746,1,0,0,rectangle,7.445007324,5.430114746,1,0,0,7.445007324,5.430114746,1,0,0,0,104,104,18,1,,,,,,,,
,,,,,,,,,,,,,FF,,,,,,,,1.434645,,,,,,,,,,,,,,,,,,,,,,61024c6fb46fe099f45f2296,6103684f0433d8fb830d9faa,2021-07-29_21h51.24.637,Simcolourproject_2stim_asymm_v5,2020.2.10,Linux x86_64,60,61025ae37ef11b136ea224fe,,,,,,,,,465,30.81774902,-62.38244629,1,0,0,response3disk,,4,12.57196045,-2.079040527,1,0,0,rectangle,12.57196045,-2.079040527,1,0,0,12.57196045,-2.079040527,1,0,0,0,105,105,42,1,,,,,,,,
,,,,,,,,,,,,,FF,,,,,,,,1.5851,,,,,,,,,,,,,,,,,,,,,,61024c6fb46fe099f45f2296,6103684f0433d8fb830d9faa,2021-07-29_21h51.24.637,Simcolourproject_2stim_asymm_v5,2020.2.10,Linux x86_64,60,61025ae37ef11b136ea224fe,,,,,,,,,4056,26.25250244,75.6144104,1,0,0,response1disk,,7,4.710510254,-5.077087402,1,0,0,rectangle,4.710510254,-5.077087402,1,0,0,4.710510254,-5.077087402,1,0,0,0,106,106,120,1,,,,,,,,
,,,,,,,,,,,,,FF,,,,,,,,1.383705,,,,,,,,,,,,,,,,,,,,,,61024c6fb46fe099f45f2296,6103684f0433d8fb830d9faa,2021-07-29_21h51.24.637,Simcolourproject_2stim_asymm_v5,2020.2.10,Linux x86_64,60,61025ae37ef11b136ea224fe,,,,,,,,,610,52.14245605,72.83261108,1,0,0,response1disk,,7,13.38006592,-4.979003906,1,0,0,rectangle,13.38006592,-4.979003906,1,0,0,13.38006592,-4.979003906,1,0,0,0,107,107,60,1,,,,,,,,
,,,,,,,,,,,,,FF,,,,,,,,1.151945,,,,,,,,,,,,,,,,,,,,,,61024c6fb46fe099f45f2296,6103684f0433d8fb830d9faa,2021-07-29_21h51.24.637,Simcolourproject_2stim_asymm_v5,2020.2.10,Linux x86_64,60,61025ae37ef11b136ea224fe,,,,,,,,,3850,-46.82067871,-34.10571289,1,0,0,response5disk,,2,-12.7434082,-10.89154053,1,0,0,rectangle,-12.7434082,-10.89154053,1,0,0,-12.7434082,-10.89154053,1,0,0,0,108,108,117,1,,,,,,,,
,,,,,,,,,,,,,FF,,,,,,,,1.234805,,,,,,,,,,,,,,,,,,,,,,61024c6fb46fe099f45f2296,6103684f0433d8fb830d9faa,2021-07-29_21h51.24.637,Simcolourproject_2stim_asymm_v5,2020.2.10,Linux x86_64,60,61025ae37ef11b136ea224fe,,,,,,,,,1564,61.16357422,24.95092773,1,0,0,response1disk,,6,29.69586182,4.856201172,1,0,0,rectangle,29.69586182,4.856201172,1,0,0,29.69586182,4.856201172,1,0,0,0,109,109,143,1,,,,,,,,
,,,,,,,,,,,,,FF,,,,,,,,1.183725,,,,,,,,,,,,,,,,,,,,,,61024c6fb46fe099f45f2296,6103684f0433d8fb830d9faa,2021-07-29_21h51.24.637,Simcolourproject_2stim_asymm_v5,2020.2.10,Linux x86_64,60,61025ae37ef11b136ea224fe,,,,,,,,,1216,-56.40600586,-41.05438232,1,0,0,response5disk,,2,-18.73730469,-10.16290283,1,0,0,rectangle,-18.73730469,-10.16290283,1,0,0,-18.73730469,-10.16290283,1,0,0,0,110,110,91,1,,,,,,,,
,,,,,,,,,,,,,FF,,,,,,,,1.00281,,,,,,,,,,,,,,,,,,,,,,61024c6fb46fe099f45f2296,6103684f0433d8fb830d9faa,2021-07-29_21h51.24.637,Simcolourproject_2stim_asymm_v5,2020.2.10,Linux x86_64,60,61025ae37ef11b136ea224fe,,,,,,,,,3630,-16.79760742,52.10211182,1,0,0,response7disk,,0,-2.986206055,-4.957397461,1,0,0,rectangle,-2.986206055,-4.957397461,1,0,0,-2.986206055,-4.957397461,1,0,0,0,111,111,50,1,,,,,,,,
,,,,,,,,,,,,,FF,,,,,,,,1.317475,,,,,,,,,,,,,,,,,,,,,,61024c6fb46fe099f45f2296,6103684f0433d8fb830d9faa,2021-07-29_21h51.24.637,Simcolourproject_2stim_asymm_v5,2020.2.10,Linux x86_64,60,61025ae37ef11b136ea224fe,,,,,,,,,4038,45.63201904,-26.17965698,1,0,0,response3disk,,5,21.92608643,-5.586975098,1,0,0,rectangle,21.92608643,-5.586975098,1,0,0,21.92608643,-5.586975098,1,0,0,0,112,112,69,1,,,,,,,,
,,,,,,,,,,,,,FF,,,,,,,,1.118955,,,,,,,,,,,,,,,,,,,,,,61024c6fb46fe099f45f2296,6103684f0433d8fb830d9faa,2021-07-29_21h51.24.637,Simcolourproject_2stim_asymm_v5,2020.2.10,Linux x86_64,60,61025ae37ef11b136ea224fe,,,,,,,,,2320,52.84771729,25.64282227,1,0,0,response1disk,,6,13.04248047,1.115112305,1,0,0,rectangle,13.04248047,1.115112305,1,0,0,13.04248047,1.115112305,1,0,0,0,113,113,85,1,,,,,,,,
,,,,,,,,,,,,,FF,,,,,,,,2.66906,,,,,,,,,,,,,,,,,,,,,,61024c6fb46fe099f45f2296,6103684f0433d8fb830d9faa,2021-07-29_21h51.24.637,Simcolourproject_2stim_asymm_v5,2020.2.10,Linux x86_64,60,61025ae37ef11b136ea224fe,,,,,,,,,312,-51.07946777,-84.81781006,1,0,0,response5disk,,3,-3.652160645,-1.179382324,1,0,0,rectangle,-3.652160645,-1.179382324,1,0,0,-3.652160645,-1.179382324,1,0,0,0,114,114,145,1,,,,,,,,
,,,,,,,,,,,,,FF,,,,,,,,1.386225,,,,,,,,,,,,,,,,,,,,,,61024c6fb46fe099f45f2296,6103684f0433d8fb830d9faa,2021-07-29_21h51.24.637,Simcolourproject_2stim_asymm_v5,2020.2.10,Linux x86_64,60,61025ae37ef11b136ea224fe,,,,,,,,,3562,69.99908447,-37.27804565,1,0,0,response3disk,,5,13.79077148,-1.455413818,1,0,0,rectangle,13.79077148,-1.455413818,1,0,0,13.79077148,-1.455413818,1,0,0,0,115,115,115,1,,,,,,,,
,,,,,,,,,,,,,FF,,,,,,,,1.584505,,,,,,,,,,,,,,,,,,,,,,61024c6fb46fe099f45f2296,6103684f0433d8fb830d9faa,2021-07-29_21h51.24.637,Simcolourproject_2stim_asymm_v5,2020.2.10,Linux x86_64,60,61025ae37ef11b136ea224fe,,,,,,,,,350,-74.99731445,33.13537598,1,0,0,response7disk,,1,-4.812744141,-2.516998291,1,0,0,rectangle,-4.812744141,-2.516998291,1,0,0,-4.812744141,-2.516998291,1,0,0,0,116,116,43,1,,,,,,,,
,,,,,,,,,,,,,FF,,,,,,,,1.0861,,,,,,,,,,,,,,,,,,,,,,61024c6fb46fe099f45f2296,6103684f0433d8fb830d9faa,2021-07-29_21h51.24.637,Simcolourproject_2stim_asymm_v5,2020.2.10,Linux x86_64,60,61025ae37ef11b136ea224fe,,,,,,,,,1238,-50.10668945,-27.30526733,1,0,0,response5disk,,2,-17.12268066,-2.746063232,1,0,0,rectangle,-17.12268066,-2.746063232,1,0,0,-17.12268066,-2.746063232,1,0,0,0,117,117,39,1,,,,,,,,
,,,,,,,,,,,,,FF,,,,,,,,1.669175,,,,,,,,,,,,,,,,,,,,,,61024c6fb46fe099f45f2296,6103684f0433d8fb830d9faa,2021-07-29_21h51.24.637,Simcolourproject_2stim_asymm_v5,2020.2.10,Linux x86_64,60,61025ae37ef11b136ea224fe,,,,,,,,,3315,54.39282227,48.75344849,1,0,0,response1disk,,6,16.41644287,5.695465088,1,0,0,rectangle,16.41644287,5.695465088,1,0,0,16.41644287,5.695465088,1,0,0,0,118,118,151,1,,,,,,,,
,,,,,,,,,,,,,FF,,,,,,,,1.26668,,,,,,,,,,,,,,,,,,,,,,61024c6fb46fe099f45f2296,6103684f0433d8fb830d9faa,2021-07-29_21h51.24.637,Simcolourproject_2stim_asymm_v5,2020.2.10,Linux x86_64,60,61025ae37ef11b136ea224fe,,,,,,,,,79,-85.96789551,33.41204834,1,0,0,response7disk,,1,-19.44287109,8.582855225,1,0,0,rectangle,-19.44287109,8.582855225,1,0,0,-19.44287109,8.582855225,1,0,0,0,119,119,65,1,,,,,,,,
,,,,,,,,,,,,,FF,,,,,,,,1.08408,,,,,,,,,,,,,,,,,,,,,,61024c6fb46fe099f45f2296,6103684f0433d8fb830d9faa,2021-07-29_21h51.24.637,Simcolourproject_2stim_asymm_v5,2020.2.10,Linux x86_64,60,61025ae37ef11b136ea224fe,,,,,,,,,378,-46.20471191,-27.7097168,1,0,0,response5disk,,2,-3.819641113,1.293609619,1,0,0,rectangle,-3.819641113,1.293609619,1,0,0,-3.819641113,1.293609619,1,0,0,0,120,120,99,1,,,,,,,,
,,,,,,,,,,,,,FF,,,,,,,,1.18503,,,,,,,,,,,,,,,,,,,,,,61024c6fb46fe099f45f2296,6103684f0433d8fb830d9faa,2021-07-29_21h51.24.637,Simcolourproject_2stim_asymm_v5,2020.2.10,Linux x86_64,60,61025ae37ef11b136ea224fe,,,,,,,,,4306,-17.63903809,-67.76132202,1,0,0,response5disk,,3,11.08081055,-3.994812012,1,0,0,rectangle,11.08081055,-3.994812012,1,0,0,11.08081055,-3.994812012,1,0,0,0,121,121,62,1,,,,,,,,
,,,,,,,,,,,,,FF,,,,,,,,1.35145,,,,,,,,,,,,,,,,,,,,,,61024c6fb46fe099f45f2296,6103684f0433d8fb830d9faa,2021-07-29_21h51.24.637,Simcolourproject_2stim_asymm_v5,2020.2.10,Linux x86_64,60,61025ae37ef11b136ea224fe,,,,,,,,,3641,63.17565918,79.34112549,1,0,0,response1disk,,7,6.754333496,3.00012207,1,0,0,rectangle,6.754333496,3.00012207,1,0,0,6.754333496,3.00012207,1,0,0,0,122,122,48,1,,,,,,,,
,,,,,,,,,,,,,FF,,,,,,,,1.484205,,,,,,,,,,,,,,,,,,,,,,61024c6fb46fe099f45f2296,6103684f0433d8fb830d9faa,2021-07-29_21h51.24.637,Simcolourproject_2stim_asymm_v5,2020.2.10,Linux x86_64,60,61025ae37ef11b136ea224fe,,,,,,,,,866,103.1478271,45.60217285,1,0,0,response1disk,,6,16.18365479,-1.552978516,1,0,0,rectangle,16.18365479,-1.552978516,1,0,0,16.18365479,-1.552978516,1,0,0,0,123,123,82,1,,,,,,,,
,,,,,,,,,,,,,FF,,,,,,,,1.035125,,,,,,,,,,,,,,,,,,,,,,61024c6fb46fe099f45f2296,6103684f0433d8fb830d9faa,2021-07-29_21h51.24.637,Simcolourproject_2stim_asymm_v5,2020.2.10,Linux x86_64,60,61025ae37ef11b136ea224fe,,,,,,,,,2571,31.67816162,94.78091431,1,0,0,response1disk,,7,1.019287109,4.032348633,1,0,0,rectangle,1.019287109,4.032348633,1,0,0,1.019287109,4.032348633,1,0,0,0,124,124,86,1,,,,,,,,
,,,,,,,,,,,,,FF,,,,,,,,1.21829,,,,,,,,,,,,,,,,,,,,,,61024c6fb46fe099f45f2296,6103684f0433d8fb830d9faa,2021-07-29_21h51.24.637,Simcolourproject_2stim_asymm_v5,2020.2.10,Linux x86_64,60,61025ae37ef11b136ea224fe,,,,,,,,,2613,-60.09954834,-31.86880493,1,0,0,response5disk,,2,-25.02246094,-13.98052979,1,0,0,rectangle,-25.02246094,-13.98052979,1,0,0,-25.02246094,-13.98052979,1,0,0,0,125,125,75,1,,,,,,,,
,,,,,,,,,,,,,FF,,,,,,,,1.016615,,,,,,,,,,,,,,,,,,,,,,61024c6fb46fe099f45f2296,6103684f0433d8fb830d9faa,2021-07-29_21h51.24.637,Simcolourproject_2stim_asymm_v5,2020.2.10,Linux x86_64,60,61025ae37ef11b136ea224fe,,,,,,,,,1464,-65.77954102,-38.0007019,1,0,0,response5disk,,2,-30.93280029,1.052093506,1,0,0,rectangle,-30.93280029,1.052093506,1,0,0,-30.93280029,1.052093506,1,0,0,0,126,126,71,1,,,,,,,,
,,,,,,,,,,,,,FF,,,,,,,,1.45079,,,,,,,,,,,,,,,,,,,,,,61024c6fb46fe099f45f2296,6103684f0433d8fb830d9faa,2021-07-29_21h51.24.637,Simcolourproject_2stim_asymm_v5,2020.2.10,Linux x86_64,60,61025ae37ef11b136ea224fe,,,,,,,,,1997,93.53436279,28.89117432,1,0,0,response1disk,,6,25.82434082,0.134063721,1,0,0,rectangle,25.82434082,0.134063721,1,0,0,25.82434082,0.134063721,1,0,0,0,127,127,105,1,,,,,,,,
,,,,,,,,,,,,,FF,,,,,,,,1.58521,,,,,,,,,,,,,,,,,,,,,,61024c6fb46fe099f45f2296,6103684f0433d8fb830d9faa,2021-07-29_21h51.24.637,Simcolourproject_2stim_asymm_v5,2020.2.10,Linux x86_64,60,61025ae37ef11b136ea224fe,,,,,,,,,3949,44.56665039,-76.80090332,1,0,0,response3disk,,4,18.21447754,-10.16598511,1,0,0,rectangle,18.21447754,-10.16598511,1,0,0,18.21447754,-10.16598511,1,0,0,0,128,128,84,1,,,,,,,,
,,,,,,,,,,,,,FF,,,,,,,,1.04965,,,,,,,,,,,,,,,,,,,,,,61024c6fb46fe099f45f2296,6103684f0433d8fb830d9faa,2021-07-29_21h51.24.637,Simcolourproject_2stim_asymm_v5,2020.2.10,Linux x86_64,60,61025ae37ef11b136ea224fe,,,,,,,,,1608,-69.23071289,-34.83444214,1,0,0,response5disk,,2,-28.04626465,-9.246948242,1,0,0,rectangle,-28.04626465,-9.246948242,1,0,0,-28.04626465,-9.246948242,1,0,0,0,129,129,116,1,,,,,,,,
,,,,,,,,,,,,,FF,,,,,,,,1.06836,,,,,,,,,,,,,,,,,,,,,,61024c6fb46fe099f45f2296,6103684f0433d8fb830d9faa,2021-07-29_21h51.24.637,Simcolourproject_2stim_asymm_v5,2020.2.10,Linux x86_64,60,61025ae37ef11b136ea224fe,,,,,,,,,784,70.44061279,-23.7359314,1,0,0,response3disk,,5,25.26947021,-2.462554932,1,0,0,rectangle,25.26947021,-2.462554932,1,0,0,25.26947021,-2.462554932,1,0,0,0,130,130,8,1,,,,,,,,
,,,,,,,,,,,,,FF,,,,,,,,1.83515,,,,,,,,,,,,,,,,,,,,,,61024c6fb46fe099f45f2296,6103684f0433d8fb830d9faa,2021-07-29_21h51.24.637,Simcolourproject_2stim_asymm_v5,2020.2.10,Linux x86_64,60,61025ae37ef11b136ea224fe,,,,,,,,,1181,79.81964111,39.65002441,1,0,0,response1disk,,6,12.44995117,-1.518432617,1,0,0,rectangle,12.44995117,-1.518432617,1,0,0,12.44995117,-1.518432617,1,0,0,0,131,131,158,1,,,,,,,,
,,,,,,,,,,,,,FF,,,,,,,,0.918575,,,,,,,,,,,,,,,,,,,,,,61024c6fb46fe099f45f2296,6103684f0433d8fb830d9faa,2021-07-29_21h51.24.637,Simcolourproject_2stim_asymm_v5,2020.2.10,Linux x86_64,60,61025ae37ef11b136ea224fe,,,,,,,,,2371,-73.33789063,-46.92150879,1,0,0,response5disk,,2,-7.380554199,-11.36355591,1,0,0,rectangle,-7.380554199,-11.36355591,1,0,0,-7.380554199,-11.36355591,1,0,0,0,132,132,136,1,,,,,,,,
,,,,,,,,,,,,,FF,,,,,,,,1.36787,,,,,,,,,,,,,,,,,,,,,,61024c6fb46fe099f45f2296,6103684f0433d8fb830d9faa,2021-07-29_21h51.24.637,Simcolourproject_2stim_asymm_v5,2020.2.10,Linux x86_64,60,61025ae37ef11b136ea224fe,,,,,,,,,4333,34.77386475,-70.7142334,1,0,0,response3disk,,4,25.12890625,-3.367919922,1,0,0,rectangle,25.12890625,-3.367919922,1,0,0,25.12890625,-3.367919922,1,0,0,0,133,133,15,1,,,,,,,,
,,,,,,,,,,,,,FF,,,,,,,,1.067755,,,,,,,,,,,,,,,,,,,,,,61024c6fb46fe099f45f2296,6103684f0433d8fb830d9faa,2021-07-29_21h51.24.637,Simcolourproject_2stim_asymm_v5,2020.2.10,Linux x86_64,60,61025ae37ef11b136ea224fe,,,,,,,,,477,-32.80731201,-49.07806396,1,0,0,response5disk,,3,-11.53363037,-5.161254883,1,0,0,rectangle,-11.53363037,-5.161254883,1,0,0,-11.53363037,-5.161254883,1,0,0,0,134,134,74,1,,,,,,,,
,,,,,,,,,,,,,FF,,,,,,,,1.483755,,,,,,,,,,,,,,,,,,,,,,61024c6fb46fe099f45f2296,6103684f0433d8fb830d9faa,2021-07-29_21h51.24.637,Simcolourproject_2stim_asymm_v5,2020.2.10,Linux x86_64,60,61025ae37ef11b136ea224fe,,,,,,,,,2560,34.97705078,-64.04077148,1,0,0,response3disk,,4,9.561523438,-14.19485474,1,0,0,rectangle,9.561523438,-14.19485474,1,0,0,9.561523438,-14.19485474,1,0,0,0,135,135,26,1,,,,,,,,
,,,,,,,,,,,,,FF,,,,,,,,1.60105,,,,,,,,,,,,,,,,,,,,,,61024c6fb46fe099f45f2296,6103684f0433d8fb830d9faa,2021-07-29_21h51.24.637,Simcolourproject_2stim_asymm_v5,2020.2.10,Linux x86_64,60,61025ae37ef11b136ea224fe,,,,,,,,,4130,89.87976074,28.13214111,1,0,0,response1disk,,6,16.93737793,-9.362915039,1,0,0,rectangle,16.93737793,-9.362915039,1,0,0,16.93737793,-9.362915039,1,0,0,0,136,136,124,1,,,,,,,,
,,,,,,,,,,,,,FF,,,,,,,,1.31911,,,,,,,,,,,,,,,,,,,,,,61024c6fb46fe099f45f2296,6103684f0433d8fb830d9faa,2021-07-29_21h51.24.637,Simcolourproject_2stim_asymm_v5,2020.2.10,Linux x86_64,60,61025ae37ef11b136ea224fe,,,,,,,,,646,-33.83496094,-94.58670044,1,0,0,response5disk,,3,2.957702637,-2.70715332,1,0,0,rectangle,2.957702637,-2.70715332,1,0,0,2.957702637,-2.70715332,1,0,0,0,137,137,27,1,,,,,,,,
,,,,,,,,,,,,,FF,,,,,,,,1.51268,,,,,,,,,,,,,,,,,,,,,,61024c6fb46fe099f45f2296,6103684f0433d8fb830d9faa,2021-07-29_21h51.24.637,Simcolourproject_2stim_asymm_v5,2020.2.10,Linux x86_64,60,61025ae37ef11b136ea224fe,,,,,,,,,2520,80.16021729,-39.67050171,1,0,0,response3disk,,5,19.80944824,1.503265381,1,0,0,rectangle,19.80944824,1.503265381,1,0,0,19.80944824,1.503265381,1,0,0,0,138,138,61,1,,,,,,,,
,,,,,,,,,,,,,FF,,,,,,,,1.20032,,,,,,,,,,,,,,,,,,,,,,61024c6fb46fe099f45f2296,6103684f0433d8fb830d9faa,2021-07-29_21h51.24.637,Simcolourproject_2stim_asymm_v5,2020.2.10,Linux x86_64,60,61025ae37ef11b136ea224fe,,,,,,,,,1447,-47.5178833,20.99209595,1,0,0,response7disk,,1,17.03814697,9.858764648,1,0,0,rectangle,17.03814697,9.858764648,1,0,0,17.03814697,9.858764648,1,0,0,0,139,139,81,1,,,,,,,,
,,,,,,,,,,,,,FF,,,,,,,,1.23325,,,,,,,,,,,,,,,,,,,,,,61024c6fb46fe099f45f2296,6103684f0433d8fb830d9faa,2021-07-29_21h51.24.637,Simcolourproject_2stim_asymm_v5,2020.2.10,Linux x86_64,60,61025ae37ef11b136ea224fe,,,,,,,,,390,95.71484375,45.1986084,1,0,0,response1disk,,6,23.90136719,-3.744415283,1,0,0,rectangle,35.98748779,-90.92684937,1,0,0,4.142211914,8.969299316,1,0,0,0,140,140,157,1,,response3disk_3,TRUE,4,4,"[218,288,321,178,280,141,250,145,83,72,265,4,50,274,42,275,46,267,159,13]",2.651385,rectangle
,,,,,,,,,,,,,FF,,,,,,,,1.20078,,,,,,,,,,,,,,,,,,,,,,61024c6fb46fe099f45f2296,6103684f0433d8fb830d9faa,2021-07-29_21h51.24.637,Simcolourproject_2stim_asymm_v5,2020.2.10,Linux x86_64,60,61025ae37ef11b136ea224fe,,,,,,,,,3525,78.68151855,40.78903198,1,0,0,response1disk,,6,6.669311523,3.061645508,1,0,0,rectangle,6.669311523,3.061645508,1,0,0,6.669311523,3.061645508,1,0,0,0,141,141,111,1,,,,,,,,
,,,,,,,,,,,,,FF,,,,,,,,1.78583,,,,,,,,,,,,,,,,,,,,,,61024c6fb46fe099f45f2296,6103684f0433d8fb830d9faa,2021-07-29_21h51.24.637,Simcolourproject_2stim_asymm_v5,2020.2.10,Linux x86_64,60,61025ae37ef11b136ea224fe,,,,,,,,,3770,101.6842041,41.92001343,1,0,0,response1disk,,6,16.72155762,10.15576172,1,0,0,rectangle,16.72155762,10.15576172,1,0,0,16.72155762,10.15576172,1,0,0,0,142,142,114,1,,,,,,,,
,,,,,,,,,,,,,FF,,,,,,,,1.872765,,,,,,,,,,,,,,,,,,,,,,61024c6fb46fe099f45f2296,6103684f0433d8fb830d9faa,2021-07-29_21h51.24.637,Simcolourproject_2stim_asymm_v5,2020.2.10,Linux x86_64,60,61025ae37ef11b136ea224fe,,,,,,,,,223,23.79187012,-84.84588623,1,0,0,response3disk,,4,6.523925781,9.955078125,1,0,0,rectangle,6.523925781,9.955078125,1,0,0,6.523925781,9.955078125,1,0,0,0,143,143,80,1,,,,,,,,
,,,,,,,,,,,,,FF,,,,,,,,1.400775,,,,,,,,,,,,,,,,,,,,,,61024c6fb46fe099f45f2296,6103684f0433d8fb830d9faa,2021-07-29_21h51.24.637,Simcolourproject_2stim_asymm_v5,2020.2.10,Linux x86_64,60,61025ae37ef11b136ea224fe,,,,,,,,,224,-59.46447754,-59.49984741,1,0,0,response5disk,,3,7.19732666,-0.954223633,1,0,0,rectangle,-71.68981934,88.08499146,1,0,0,-8.824829102,9.821960449,1,0,0,0,144,144,126,1,,response7disk_3,TRUE,0,0,"[218,288,321,178,280,141,250,145,83,72,265,4,50,274,42,275,46,267,159,13]",1.98401,rectangle
,,,,,,,,,,,,,FF,,,,,,,,2.083355,,,,,,,,,,,,,,,,,,,,,,61024c6fb46fe099f45f2296,6103684f0433d8fb830d9faa,2021-07-29_21h51.24.637,Simcolourproject_2stim_asymm_v5,2020.2.10,Linux x86_64,60,61025ae37ef11b136ea224fe,,,,,,,,,121,85.98834229,16.78372192,1,0,0,response1disk,,6,17.0536499,12.9810791,1,0,0,rectangle,17.0536499,12.9810791,1,0,0,17.0536499,12.9810791,1,0,0,0,145,145,113,1,,,,,,,,
,,,,,,,,,,,,,FF,,,,,,,,1.10126,,,,,,,,,,,,,,,,,,,,,,61024c6fb46fe099f45f2296,6103684f0433d8fb830d9faa,2021-07-29_21h51.24.637,Simcolourproject_2stim_asymm_v5,2020.2.10,Linux x86_64,60,61025ae37ef11b136ea224fe,,,,,,,,,3147,-72.12957764,39.50076294,1,0,0,response7disk,,1,-30.25921631,4.334411621,1,0,0,rectangle,-30.25921631,4.334411621,1,0,0,-30.25921631,4.334411621,1,0,0,0,146,146,78,1,,,,,,,,
,,,,,,,,,,,,,FF,,,,,,,,1.13662,,,,,,,,,,,,,,,,,,,,,,61024c6fb46fe099f45f2296,6103684f0433d8fb830d9faa,2021-07-29_21h51.24.637,Simcolourproject_2stim_asymm_v5,2020.2.10,Linux x86_64,60,61025ae37ef11b136ea224fe,,,,,,,,,2041,-61.27697754,27.79266357,1,0,0,response7disk,,1,-20.13543701,10.71841431,1,0,0,rectangle,-20.13543701,10.71841431,1,0,0,-20.13543701,10.71841431,1,0,0,0,147,147,150,1,,,,,,,,
,,,,,,,,,,,,,FF,,,,,,,,2.95268,,,,,,,,,,,,,,,,,,,,,,61024c6fb46fe099f45f2296,6103684f0433d8fb830d9faa,2021-07-29_21h51.24.637,Simcolourproject_2stim_asymm_v5,2020.2.10,Linux x86_64,60,61025ae37ef11b136ea224fe,,,,,,,,,1404,68.54241943,51.46563721,1,0,0,response1disk,,6,16.3145752,5.307769775,1,0,0,rectangle,16.3145752,5.307769775,1,0,0,16.3145752,5.307769775,1,0,0,0,148,148,139,1,,,,,,,,
,,,,,,,,,,,,,FF,,,,,,,,1.334005,,,,,,,,,,,,,,,,,,,,,,61024c6fb46fe099f45f2296,6103684f0433d8fb830d9faa,2021-07-29_21h51.24.637,Simcolourproject_2stim_asymm_v5,2020.2.10,Linux x86_64,60,61025ae37ef11b136ea224fe,,,,,,,,,3159,38.22412109,56.88623047,1,0,0,response1disk,,7,23.90222168,-2.72467041,1,0,0,rectangle,23.90222168,-2.72467041,1,0,0,23.90222168,-2.72467041,1,0,0,0,149,149,119,1,,,,,,,,
,,,,,,,,,,,,,FF,,,,,,,,1.65208,,,,,,,,,,,,,,,,,,,,,,61024c6fb46fe099f45f2296,6103684f0433d8fb830d9faa,2021-07-29_21h51.24.637,Simcolourproject_2stim_asymm_v5,2020.2.10,Linux x86_64,60,61025ae37ef11b136ea224fe,,,,,,,,,2937,37.6239624,75.24380493,1,0,0,response1disk,,7,12.94726563,7.425811768,1,0,0,rectangle,12.94726563,7.425811768,1,0,0,12.94726563,7.425811768,1,0,0,0,150,150,100,1,,,,,,,,
,,,,,,,,,,,,,FF,,,,,,,,1.600435,,,,,,,,,,,,,,,,,,,,,,61024c6fb46fe099f45f2296,6103684f0433d8fb830d9faa,2021-07-29_21h51.24.637,Simcolourproject_2stim_asymm_v5,2020.2.10,Linux x86_64,60,61025ae37ef11b136ea224fe,,,,,,,,,823,-65.73742676,-46.37600708,1,0,0,response5disk,,2,4.781188965,10.76864624,1,0,0,rectangle,4.781188965,10.76864624,1,0,0,4.781188965,10.76864624,1,0,0,0,151,151,87,1,,,,,,,,
,,,,,,,,,,,,,FF,,,,,,,,1.15075,,,,,,,,,,,,,,,,,,,,,,61024c6fb46fe099f45f2296,6103684f0433d8fb830d9faa,2021-07-29_21h51.24.637,Simcolourproject_2stim_asymm_v5,2020.2.10,Linux x86_64,60,61025ae37ef11b136ea224fe,,,,,,,,,1791,56.26300049,72.41925049,1,0,0,response1disk,,7,13.4019165,6.203552246,1,0,0,rectangle,13.4019165,6.203552246,1,0,0,13.4019165,6.203552246,1,0,0,0,152,152,147,1,,,,,,,,
,,,,,,,,,,,,,FF,,,,,,,,1.269345,,,,,,,,,,,,,,,,,,,,,,61024c6fb46fe099f45f2296,6103684f0433d8fb830d9faa,2021-07-29_21h51.24.637,Simcolourproject_2stim_asymm_v5,2020.2.10,Linux x86_64,60,61025ae37ef11b136ea224fe,,,,,,,,,3778,-67.56896973,-45.30136108,1,0,0,response5disk,,2,-10.29626465,-8.331695557,1,0,0,rectangle,-10.29626465,-8.331695557,1,0,0,-10.29626465,-8.331695557,1,0,0,0,153,153,7,1,,,,,,,,
,,,,,,,,,,,,,FF,,,,,,,,1.25124,,,,,,,,,,,,,,,,,,,,,,61024c6fb46fe099f45f2296,6103684f0433d8fb830d9faa,2021-07-29_21h51.24.637,Simcolourproject_2stim_asymm_v5,2020.2.10,Linux x86_64,60,61025ae37ef11b136ea224fe,,,,,,,,,559,-64.47375488,-49.42776489,1,0,0,response5disk,,2,-3.788635254,-6.974029541,1,0,0,rectangle,-3.788635254,-6.974029541,1,0,0,-3.788635254,-6.974029541,1,0,0,0,154,154,77,1,,,,,,,,
,,,,,,,,,,,,,FF,,,,,,,,1.19978,,,,,,,,,,,,,,,,,,,,,,61024c6fb46fe099f45f2296,6103684f0433d8fb830d9faa,2021-07-29_21h51.24.637,Simcolourproject_2stim_asymm_v5,2020.2.10,Linux x86_64,60,61025ae37ef11b136ea224fe,,,,,,,,,1554,62.17175293,-30.26159668,1,0,0,response3disk,,5,30.45721436,1.906188965,1,0,0,rectangle,30.45721436,1.906188965,1,0,0,30.45721436,1.906188965,1,0,0,0,155,155,148,1,,,,,,,,
,,,,,,,,,,,,,FF,,,,,,,,2.118485,,,,,,,,,,,,,,,,,,,,,,61024c6fb46fe099f45f2296,6103684f0433d8fb830d9faa,2021-07-29_21h51.24.637,Simcolourproject_2stim_asymm_v5,2020.2.10,Linux x86_64,60,61025ae37ef11b136ea224fe,,,,,,,,,3810,-53.18774414,65.63546753,1,0,0,response7disk,,0,-3.535217285,-8.399230957,1,0,0,rectangle,-3.535217285,-8.399230957,1,0,0,-3.535217285,-8.399230957,1,0,0,0,156,156,94,1,,,,,,,,
,,,,,,,,,,,,,FF,,,,,,,,1.567655,,,,,,,,,,,,,,,,,,,,,,61024c6fb46fe099f45f2296,6103684f0433d8fb830d9faa,2021-07-29_21h51.24.637,Simcolourproject_2stim_asymm_v5,2020.2.10,Linux x86_64,60,61025ae37ef11b136ea224fe,,,,,,,,,1913,92.80889893,-24.00695801,1,0,0,response3disk,,5,20.45727539,3.335205078,1,0,0,rectangle,20.45727539,3.335205078,1,0,0,20.45727539,3.335205078,1,0,0,0,157,157,25,1,,,,,,,,
,,,,,,,,,,,,,FF,,,,,,,,1.235875,,,,,,,,,,,,,,,,,,,,,,61024c6fb46fe099f45f2296,6103684f0433d8fb830d9faa,2021-07-29_21h51.24.637,Simcolourproject_2stim_asymm_v5,2020.2.10,Linux x86_64,60,61025ae37ef11b136ea224fe,,,,,,,,,3694,47.33850098,32.36837769,1,0,0,response1disk,,6,11.36737061,-3.871582031,1,0,0,rectangle,-89.99224854,58.89846802,1,0,0,-2.504394531,-7.452148438,1,0,0,0,158,158,57,1,,response7disk_3,TRUE,1,1,"[218,288,321,178,280,141,250,145,83,72,265,4,50,274,42,275,46,267,159,13]",1.98444,rectangle
,,,,,,,,,,,,,FF,,,,,,,,1.151235,,,,,,,,,,,,,,,,,,,,,,61024c6fb46fe099f45f2296,6103684f0433d8fb830d9faa,2021-07-29_21h51.24.637,Simcolourproject_2stim_asymm_v5,2020.2.10,Linux x86_64,60,61025ae37ef11b136ea224fe,,,,,,,,,2266,83.09979248,48.80307007,1,0,0,response1disk,,6,14.88653564,5.77633667,1,0,0,rectangle,14.88653564,5.77633667,1,0,0,14.88653564,5.77633667,1,0,0,0,159,159,97,1,,,,,,,,
,,,,,,,,,,,,,FF,,,,,,,,1.30097,,,,,,,,,,,,,,,,,,,,,,61024c6fb46fe099f45f2296,6103684f0433d8fb830d9faa,2021-07-29_21h51.24.637,Simcolourproject_2stim_asymm_v5,2020.2.10,Linux x86_64,60,61025ae37ef11b136ea224fe,,,,,,,,,2101,-55.24749756,25.90899658,1,0,0,response7disk,,1,-17.24157715,6.280212402,1,0,0,rectangle,-17.24157715,6.280212402,1,0,0,-17.24157715,6.280212402,1,0,0,1,0,160,135,1,,,,,,,,
,,,,,,,,,,,,,FF,,,,,,,,1.6344,,,,,,,,,,,,,,,,,,,,,,61024c6fb46fe099f45f2296,6103684f0433d8fb830d9faa,2021-07-29_21h51.24.637,Simcolourproject_2stim_asymm_v5,2020.2.10,Linux x86_64,60,61025ae37ef11b136ea224fe,,,,,,,,,1866,55.48718262,73.96099854,1,0,0,response1disk,,7,3.776428223,2.074890137,1,0,0,rectangle,3.776428223,2.074890137,1,0,0,3.776428223,2.074890137,1,0,0,1,1,161,61,1,,,,,,,,
,,,,,,,,,,,,,FF,,,,,,,,1.75243,,,,,,,,,,,,,,,,,,,,,,61024c6fb46fe099f45f2296,6103684f0433d8fb830d9faa,2021-07-29_21h51.24.637,Simcolourproject_2stim_asymm_v5,2020.2.10,Linux x86_64,60,61025ae37ef11b136ea224fe,,,,,,,,,21,-22.72131348,-52.03488159,1,0,0,response5disk,,3,3.392578125,1.872680664,1,0,0,rectangle,3.392578125,1.872680664,1,0,0,3.392578125,1.872680664,1,0,0,1,2,162,149,1,,,,,,,,
,,,,,,,,,,,,,FF,,,,,,,,1.134405,,,,,,,,,,,,,,,,,,,,,,61024c6fb46fe099f45f2296,6103684f0433d8fb830d9faa,2021-07-29_21h51.24.637,Simcolourproject_2stim_asymm_v5,2020.2.10,Linux x86_64,60,61025ae37ef11b136ea224fe,,,,,,,,,2429,-56.18658447,-22.97253418,1,0,0,response5disk,,2,-16.27630615,-1.353240967,1,0,0,rectangle,-16.27630615,-1.353240967,1,0,0,-16.27630615,-1.353240967,1,0,0,1,3,163,81,1,,,,,,,,
,,,,,,,,,,,,,FF,,,,,,,,1.801185,,,,,,,,,,,,,,,,,,,,,,61024c6fb46fe099f45f2296,6103684f0433d8fb830d9faa,2021-07-29_21h51.24.637,Simcolourproject_2stim_asymm_v5,2020.2.10,Linux x86_64,60,61025ae37ef11b136ea224fe,,,,,,,,,3799,-19.79266357,-78.42166138,1,0,0,response5disk,,3,-3.657897949,-9.457092285,1,0,0,rectangle,-3.657897949,-9.457092285,1,0,0,-3.657897949,-9.457092285,1,0,0,1,4,164,137,1,,,,,,,,
,,,,,,,,,,,,,FF,,,,,,,,1.26779,,,,,,,,,,,,,,,,,,,,,,61024c6fb46fe099f45f2296,6103684f0433d8fb830d9faa,2021-07-29_21h51.24.637,Simcolourproject_2stim_asymm_v5,2020.2.10,Linux x86_64,60,61025ae37ef11b136ea224fe,,,,,,,,,4133,73.734375,26.30545044,1,0,0,response1disk,,6,19.27355957,3.438415527,1,0,0,rectangle,19.27355957,3.438415527,1,0,0,19.27355957,3.438415527,1,0,0,1,5,165,120,1,,,,,,,,
,,,,,,,,,,,,,FF,,,,,,,,1.68554,,,,,,,,,,,,,,,,,,,,,,61024c6fb46fe099f45f2296,6103684f0433d8fb830d9faa,2021-07-29_21h51.24.637,Simcolourproject_2stim_asymm_v5,2020.2.10,Linux x86_64,60,61025ae37ef11b136ea224fe,,,,,,,,,3658,39.03521729,-71.7885437,1,0,0,response3disk,,4,5.779968262,-5.127380371,1,0,0,rectangle,5.779968262,-5.127380371,1,0,0,5.779968262,-5.127380371,1,0,0,1,6,166,147,1,,,,,,,,
,,,,,,,,,,,,,FF,,,,,,,,1.30039,,,,,,,,,,,,,,,,,,,,,,61024c6fb46fe099f45f2296,6103684f0433d8fb830d9faa,2021-07-29_21h51.24.637,Simcolourproject_2stim_asymm_v5,2020.2.10,Linux x86_64,60,61025ae37ef11b136ea224fe,,,,,,,,,2573,84.02154541,26.37686157,1,0,0,response1disk,,6,7.492126465,-0.485412598,1,0,0,rectangle,7.492126465,-0.485412598,1,0,0,7.492126465,-0.485412598,1,0,0,1,7,167,16,1,,,,,,,,
,,,,,,,,,,,,,FF,,,,,,,,1.66753,,,,,,,,,,,,,,,,,,,,,,61024c6fb46fe099f45f2296,6103684f0433d8fb830d9faa,2021-07-29_21h51.24.637,Simcolourproject_2stim_asymm_v5,2020.2.10,Linux x86_64,60,61025ae37ef11b136ea224fe,,,,,,,,,1637,65.59777832,-21.93313599,1,0,0,response3disk,,5,10.52960205,-2.665008545,1,0,0,rectangle,10.52960205,-2.665008545,1,0,0,10.52960205,-2.665008545,1,0,0,1,8,168,80,1,,,,,,,,
,,,,,,,,,,,,,FF,,,,,,,,1.75209,,,,,,,,,,,,,,,,,,,,,,61024c6fb46fe099f45f2296,6103684f0433d8fb830d9faa,2021-07-29_21h51.24.637,Simcolourproject_2stim_asymm_v5,2020.2.10,Linux x86_64,60,61025ae37ef11b136ea224fe,,,,,,,,,4039,70.74346924,-31.46051025,1,0,0,response3disk,,5,11.20098877,-4.321960449,1,0,0,rectangle,11.20098877,-4.321960449,1,0,0,11.20098877,-4.321960449,1,0,0,1,9,169,157,1,,,,,,,,
,,,,,,,,,,,,,FF,,,,,,,,1.13249,,,,,,,,,,,,,,,,,,,,,,61024c6fb46fe099f45f2296,6103684f0433d8fb830d9faa,2021-07-29_21h51.24.637,Simcolourproject_2stim_asymm_v5,2020.2.10,Linux x86_64,60,61025ae37ef11b136ea224fe,,,,,,,,,2660,-32.89361572,53.0803833,1,0,0,response7disk,,0,3.697509766,6.521484375,1,0,0,rectangle,3.697509766,6.521484375,1,0,0,3.697509766,6.521484375,1,0,0,1,10,170,145,1,,,,,,,,
,,,,,,,,,,,,,FF,,,,,,,,1.818295,,,,,,,,,,,,,,,,,,,,,,61024c6fb46fe099f45f2296,6103684f0433d8fb830d9faa,2021-07-29_21h51.24.637,Simcolourproject_2stim_asymm_v5,2020.2.10,Linux x86_64,60,61025ae37ef11b136ea224fe,,,,,,,,,2346,-68.26220703,33.88296509,1,0,0,response7disk,,1,18.97070313,-8.564727783,1,0,0,rectangle,18.97070313,-8.564727783,1,0,0,18.97070313,-8.564727783,1,0,0,1,11,171,33,1,,,,,,,,
,,,,,,,,,,,,,FF,,,,,,,,1.16699,,,,,,,,,,,,,,,,,,,,,,61024c6fb46fe099f45f2296,6103684f0433d8fb830d9faa,2021-07-29_21h51.24.637,Simcolourproject_2stim_asymm_v5,2020.2.10,Linux x86_64,60,61025ae37ef11b136ea224fe,,,,,,,,,2517,56.88238525,21.29376221,1,0,0,response1disk,,6,18.39599609,5.009765625,1,0,0,rectangle,18.39599609,5.009765625,1,0,0,18.39599609,5.009765625,1,0,0,1,12,172,1,1,,,,,,,,
,,,,,,,,,,,,,FF,,,,,,,,1.100615,,,,,,,,,,,,,,,,,,,,,,61024c6fb46fe099f45f2296,6103684f0433d8fb830d9faa,2021-07-29_21h51.24.637,Simcolourproject_2stim_asymm_v5,2020.2.10,Linux x86_64,60,61025ae37ef11b136ea224fe,,,,,,,,,725,-44.23706055,-29.58944702,1,0,0,response5disk,,2,-13.9105835,-8.686767578,1,0,0,rectangle,-13.9105835,-8.686767578,1,0,0,-13.9105835,-8.686767578,1,0,0,1,13,173,96,1,,,,,,,,
,,,,,,,,,,,,,FF,,,,,,,,1.867595,,,,,,,,,,,,,,,,,,,,,,61024c6fb46fe099f45f2296,6103684f0433d8fb830d9faa,2021-07-29_21h51.24.637,Simcolourproject_2stim_asymm_v5,2020.2.10,Linux x86_64,60,61025ae37ef11b136ea224fe,,,,,,,,,1966,-60.88067627,32.58309937,1,0,0,response7disk,,1,14.0892334,0.167358398,1,0,0,rectangle,14.0892334,0.167358398,1,0,0,14.0892334,0.167358398,1,0,0,1,14,174,142,1,,,,,,,,
,,,,,,,,,,,,,FF,,,,,,,,1.251155,,,,,,,,,,,,,,,,,,,,,,61024c6fb46fe099f45f2296,6103684f0433d8fb830d9faa,2021-07-29_21h51.24.637,Simcolourproject_2stim_asymm_v5,2020.2.10,Linux x86_64,60,61025ae37ef11b136ea224fe,,,,,,,,,2621,-35.90112305,-56.33953857,1,0,0,response5disk,,3,-5.096435547,-4.418029785,1,0,0,rectangle,-5.096435547,-4.418029785,1,0,0,-5.096435547,-4.418029785,1,0,0,1,15,175,126,1,,,,,,,,
,,,,,,,,,,,,,FF,,,,,,,,1.117215,,,,,,,,,,,,,,,,,,,,,,61024c6fb46fe099f45f2296,6103684f0433d8fb830d9faa,2021-07-29_21h51.24.637,Simcolourproject_2stim_asymm_v5,2020.2.10,Linux x86_64,60,61025ae37ef11b136ea224fe,,,,,,,,,4298,88.86962891,-17.16723633,1,0,0,response3disk,,5,24.44445801,4.489044189,1,0,0,rectangle,24.44445801,4.489044189,1,0,0,24.44445801,4.489044189,1,0,0,1,16,176,95,1,,,,,,,,
,,,,,,,,,,,,,FF,,,,,,,,1.13353,,,,,,,,,,,,,,,,,,,,,,61024c6fb46fe099f45f2296,6103684f0433d8fb830d9faa,2021-07-29_21h51.24.637,Simcolourproject_2stim_asymm_v5,2020.2.10,Linux x86_64,60,61025ae37ef11b136ea224fe,,,,,,,,,297,-22.88146973,-46.08538818,1,0,0,response5disk,,3,-0.108764648,-6.644165039,1,0,0,rectangle,-83.84906006,-38.44940186,1,0,0,-10.75964355,-4.089691162,1,0,0,1,17,177,128,1,,response5disk_3,TRUE,2,2,"[218,288,321,178,280,141,250,145,83,72,265,4,50,274,42,275,46,267,159,13]",2.036885,rectangle
,,,,,,,,,,,,,FF,,,,,,,,1.367745,,,,,,,,,,,,,,,,,,,,,,61024c6fb46fe099f45f2296,6103684f0433d8fb830d9faa,2021-07-29_21h51.24.637,Simcolourproject_2stim_asymm_v5,2020.2.10,Linux x86_64,60,61025ae37ef11b136ea224fe,,,,,,,,,2337,67.03173828,30.07955933,1,0,0,response1disk,,6,6.109069824,-9.642547607,1,0,0,rectangle,6.109069824,-9.642547607,1,0,0,6.109069824,-9.642547607,1,0,0,1,18,178,34,1,,,,,,,,
,,,,,,,,,,,,,FF,,,,,,,,0.934785,,,,,,,,,,,,,,,,,,,,,,61024c6fb46fe099f45f2296,6103684f0433d8fb830d9faa,2021-07-29_21h51.24.637,Simcolourproject_2stim_asymm_v5,2020.2.10,Linux x86_64,60,61025ae37ef11b136ea224fe,,,,,,,,,4343,-42.4206543,66.3588562,1,0,0,response7disk,,0,-10.74645996,8.911193848,1,0,0,rectangle,-10.74645996,8.911193848,1,0,0,-10.74645996,8.911193848,1,0,0,1,19,179,56,1,,,,,,,,
,,,,,,,,,,,,,FF,,,,,,,,1.533655,,,,,,,,,,,,,,,,,,,,,,61024c6fb46fe099f45f2296,6103684f0433d8fb830d9faa,2021-07-29_21h51.24.637,Simcolourproject_2stim_asymm_v5,2020.2.10,Linux x86_64,60,61025ae37ef11b136ea224fe,,,,,,,,,3440,-76.55029297,-49.22216797,1,0,0,response5disk,,2,-3.700744629,-6.959381104,1,0,0,rectangle,-3.700744629,-6.959381104,1,0,0,-3.700744629,-6.959381104,1,0,0,1,20,180,97,1,,,,,,,,
,,,,,,,,,,,,,FF,,,,,,,,1.25014,,,,,,,,,,,,,,,,,,,,,,61024c6fb46fe099f45f2296,6103684f0433d8fb830d9faa,2021-07-29_21h51.24.637,Simcolourproject_2stim_asymm_v5,2020.2.10,Linux x86_64,60,61025ae37ef11b136ea224fe,,,,,,,,,791,-84.51208496,44.87640381,1,0,0,response7disk,,1,-16.69628906,11.42831421,1,0,0,rectangle,-16.69628906,11.42831421,1,0,0,-16.69628906,11.42831421,1,0,0,1,21,181,52,1,,,,,,,,
,,,,,,,,,,,,,FF,,,,,,,,1.23425,,,,,,,,,,,,,,,,,,,,,,61024c6fb46fe099f45f2296,6103684f0433d8fb830d9faa,2021-07-29_21h51.24.637,Simcolourproject_2stim_asymm_v5,2020.2.10,Linux x86_64,60,61025ae37ef11b136ea224fe,,,,,,,,,2482,-73.42926025,41.54412842,1,0,0,response7disk,,1,9.980651855,-1.765899658,1,0,0,rectangle,9.980651855,-1.765899658,1,0,0,9.980651855,-1.765899658,1,0,0,1,22,182,11,1,,,,,,,,
,,,,,,,,,,,,,FF,,,,,,,,1.11714,,,,,,,,,,,,,,,,,,,,,,61024c6fb46fe099f45f2296,6103684f0433d8fb830d9faa,2021-07-29_21h51.24.637,Simcolourproject_2stim_asymm_v5,2020.2.10,Linux x86_64,60,61025ae37ef11b136ea224fe,,,,,,,,,149,51.39093018,26.27984619,1,0,0,response1disk,,6,17.78192139,5.688018799,1,0,0,rectangle,17.78192139,5.688018799,1,0,0,17.78192139,5.688018799,1,0,0,1,23,183,71,1,,,,,,,,
,,,,,,,,,,,,,FF,,,,,,,,1.21645,,,,,,,,,,,,,,,,,,,,,,61024c6fb46fe099f45f2296,6103684f0433d8fb830d9faa,2021-07-29_21h51.24.637,Simcolourproject_2stim_asymm_v5,2020.2.10,Linux x86_64,60,61025ae37ef11b136ea224fe,,,,,,,,,189,-81.36187744,-27.7461853,1,0,0,response5disk,,2,-6.308288574,12.25668335,1,0,0,rectangle,-6.308288574,12.25668335,1,0,0,-6.308288574,12.25668335,1,0,0,1,24,184,129,1,,,,,,,,
,,,,,,,,,,,,,FF,,,,,,,,1.01727,,,,,,,,,,,,,,,,,,,,,,61024c6fb46fe099f45f2296,6103684f0433d8fb830d9faa,2021-07-29_21h51.24.637,Simcolourproject_2stim_asymm_v5,2020.2.10,Linux x86_64,60,61025ae37ef11b136ea224fe,,,,,,,,,2999,-45.53643799,25.68356323,1,0,0,response7disk,,1,-29.40698242,4.858123779,1,0,0,rectangle,-29.40698242,4.858123779,1,0,0,-29.40698242,4.858123779,1,0,0,1,25,185,151,1,,,,,,,,
,,,,,,,,,,,,,FF,,,,,,,,1.002,,,,,,,,,,,,,,,,,,,,,,61024c6fb46fe099f45f2296,6103684f0433d8fb830d9faa,2021-07-29_21h51.24.637,Simcolourproject_2stim_asymm_v5,2020.2.10,Linux x86_64,60,61025ae37ef11b136ea224fe,,,,,,,,,805,-72.63146973,46.38937378,1,0,0,response7disk,,1,-17.51879883,5.818572998,1,0,0,rectangle,-17.51879883,5.818572998,1,0,0,-17.51879883,5.818572998,1,0,0,1,26,186,58,1,,,,,,,,
,,,,,,,,,,,,,FF,,,,,,,,1.98544,,,,,,,,,,,,,,,,,,,,,,61024c6fb46fe099f45f2296,6103684f0433d8fb830d9faa,2021-07-29_21h51.24.637,Simcolourproject_2stim_asymm_v5,2020.2.10,Linux x86_64,60,61025ae37ef11b136ea224fe,,,,,,,,,2653,54.31176758,70.59552002,1,0,0,response1disk,,7,15.4118042,4.884735107,1,0,0,rectangle,15.4118042,4.884735107,1,0,0,15.4118042,4.884735107,1,0,0,1,27,187,90,1,,,,,,,,
,,,,,,,,,,,,,FF,,,,,,,,1.33527,,,,,,,,,,,,,,,,,,,,,,61024c6fb46fe099f45f2296,6103684f0433d8fb830d9faa,2021-07-29_21h51.24.637,Simcolourproject_2stim_asymm_v5,2020.2.10,Linux x86_64,60,61025ae37ef11b136ea224fe,,,,,,,,,1798,62.38244629,90.18154907,1,0,0,response1disk,,7,14.92694092,2.19519043,1,0,0,rectangle,14.92694092,2.19519043,1,0,0,14.92694092,2.19519043,1,0,0,1,28,188,78,1,,,,,,,,
,,,,,,,,,,,,,FF,,,,,,,,1.351175,,,,,,,,,,,,,,,,,,,,,,61024c6fb46fe099f45f2296,6103684f0433d8fb830d9faa,2021-07-29_21h51.24.637,Simcolourproject_2stim_asymm_v5,2020.2.10,Linux x86_64,60,61025ae37ef11b136ea224fe,,,,,,,,,2962,95.17120361,38.09848022,1,0,0,response1disk,,6,25.07983398,6.074371338,1,0,0,rectangle,25.07983398,6.074371338,1,0,0,25.07983398,6.074371338,1,0,0,1,29,189,144,1,,,,,,,,
,,,,,,,,,,,,,FF,,,,,,,,1.05002,,,,,,,,,,,,,,,,,,,,,,61024c6fb46fe099f45f2296,6103684f0433d8fb830d9faa,2021-07-29_21h51.24.637,Simcolourproject_2stim_asymm_v5,2020.2.10,Linux x86_64,60,61025ae37ef11b136ea224fe,,,,,,,,,1712,84.48205566,33.39050293,1,0,0,response1disk,,6,21.80023193,3.764556885,1,0,0,rectangle,21.80023193,3.764556885,1,0,0,21.80023193,3.764556885,1,0,0,1,30,190,48,1,,,,,,,,
,,,,,,,,,,,,,FF,,,,,,,,1.317455,,,,,,,,,,,,,,,,,,,,,,61024c6fb46fe099f45f2296,6103684f0433d8fb830d9faa,2021-07-29_21h51.24.637,Simcolourproject_2stim_asymm_v5,2020.2.10,Linux x86_64,60,61025ae37ef11b136ea224fe,,,,,,,,,601,56.4262085,81.15310669,1,0,0,response1disk,,7,23.69213867,2.064239502,1,0,0,rectangle,23.69213867,2.064239502,1,0,0,23.69213867,2.064239502,1,0,0,1,31,191,76,1,,,,,,,,
,,,,,,,,,,,,,FF,,,,,,,,1.45196,,,,,,,,,,,,,,,,,,,,,,61024c6fb46fe099f45f2296,6103684f0433d8fb830d9faa,2021-07-29_21h51.24.637,Simcolourproject_2stim_asymm_v5,2020.2.10,Linux x86_64,60,61025ae37ef11b136ea224fe,,,,,,,,,2458,28.62158203,44.72796631,1,0,0,response1disk,,7,25.0703125,3.014678955,1,0,0,rectangle,25.0703125,3.014678955,1,0,0,25.0703125,3.014678955,1,0,0,1,32,192,66,1,,,,,,,,
,,,,,,,,,,,,,FF,,,,,,,,1.88559,,,,,,,,,,,,,,,,,,,,,,61024c6fb46fe099f45f2296,6103684f0433d8fb830d9faa,2021-07-29_21h51.24.637,Simcolourproject_2stim_asymm_v5,2020.2.10,Linux x86_64,60,61025ae37ef11b136ea224fe,,,,,,,,,3529,-54.74359131,-68.55490112,1,0,0,response5disk,,3,-1.489868164,-9.157501221,1,0,0,rectangle,-1.489868164,-9.157501221,1,0,0,-1.489868164,-9.157501221,1,0,0,1,33,193,39,1,,,,,,,,
,,,,,,,,,,,,,FF,,,,,,,,1.052375,,,,,,,,,,,,,,,,,,,,,,61024c6fb46fe099f45f2296,6103684f0433d8fb830d9faa,2021-07-29_21h51.24.637,Simcolourproject_2stim_asymm_v5,2020.2.10,Linux x86_64,60,61025ae37ef11b136ea224fe,,,,,,,,,4266,-28.33679199,48.16641235,1,0,0,response7disk,,0,-10.80389404,7.322357178,1,0,0,rectangle,-10.80389404,7.322357178,1,0,0,-10.80389404,7.322357178,1,0,0,1,34,194,73,1,,,,,,,,
,,,,,,,,,,,,,FF,,,,,,,,1.67125,,,,,,,,,,,,,,,,,,,,,,61024c6fb46fe099f45f2296,6103684f0433d8fb830d9faa,2021-07-29_21h51.24.637,Simcolourproject_2stim_asymm_v5,2020.2.10,Linux x86_64,60,61025ae37ef11b136ea224fe,,,,,,,,,938,100.5011597,-22.0333252,1,0,0,response3disk,,5,17.402771,-4.922119141,1,0,0,rectangle,17.402771,-4.922119141,1,0,0,17.402771,-4.922119141,1,0,0,1,35,195,49,1,,,,,,,,
,,,,,,,,,,,,,FF,,,,,,,,1.46942,,,,,,,,,,,,,,,,,,,,,,61024c6fb46fe099f45f2296,6103684f0433d8fb830d9faa,2021-07-29_21h51.24.637,Simcolourproject_2stim_asymm_v5,2020.2.10,Linux x86_64,60,61025ae37ef11b136ea224fe,,,,,,,,,3719,-86.47991943,-41.54528809,1,0,0,response5disk,,2,-8.376464844,-9.073364258,1,0,0,rectangle,-8.376464844,-9.073364258,1,0,0,-8.376464844,-9.073364258,1,0,0,1,36,196,94,1,,,,,,,,
,,,,,,,,,,,,,FF,,,,,,,,1.350685,,,,,,,,,,,,,,,,,,,,,,61024c6fb46fe099f45f2296,6103684f0433d8fb830d9faa,2021-07-29_21h51.24.637,Simcolourproject_2stim_asymm_v5,2020.2.10,Linux x86_64,60,61025ae37ef11b136ea224fe,,,,,,,,,109,52.90643311,62.04837036,1,0,0,response1disk,,7,20.03448486,-1.161529541,1,0,0,rectangle,20.03448486,-1.161529541,1,0,0,20.03448486,-1.161529541,1,0,0,1,37,197,110,1,,,,,,,,
,,,,,,,,,,,,,FF,,,,,,,,1.18414,,,,,,,,,,,,,,,,,,,,,,61024c6fb46fe099f45f2296,6103684f0433d8fb830d9faa,2021-07-29_21h51.24.637,Simcolourproject_2stim_asymm_v5,2020.2.10,Linux x86_64,60,61025ae37ef11b136ea224fe,,,,,,,,,1936,22.8616333,48.52047729,1,0,0,response1disk,,7,18.63739014,-0.510925293,1,0,0,rectangle,18.63739014,-0.510925293,1,0,0,18.63739014,-0.510925293,1,0,0,1,38,198,85,1,,,,,,,,
,,,,,,,,,,,,,FF,,,,,,,,9.62232,,,,,,,,,,,,,,,,,,,,,,61024c6fb46fe099f45f2296,6103684f0433d8fb830d9faa,2021-07-29_21h51.24.637,Simcolourproject_2stim_asymm_v5,2020.2.10,Linux x86_64,60,61025ae37ef11b136ea224fe,,,,,,,,,60,92.26977539,26.65594482,1,0,0,response1disk,,6,3.559387207,-5.661132813,1,0,0,rectangle,3.559387207,-5.661132813,1,0,0,3.559387207,-5.661132813,1,0,0,1,39,199,59,1,,,,,,,,
,,,,,,,,,,,,,FF,,,,,,,,2.00057,,,,,,,,,,,,,,,,,,,,,,61024c6fb46fe099f45f2296,6103684f0433d8fb830d9faa,2021-07-29_21h51.24.637,Simcolourproject_2stim_asymm_v5,2020.2.10,Linux x86_64,60,61025ae37ef11b136ea224fe,,,,,,,,,3126,82.80010986,33.81271362,1,0,0,response1disk,,6,21.61206055,2.22277832,1,0,0,rectangle,21.61206055,2.22277832,1,0,0,21.61206055,2.22277832,1,0,0,1,40,200,136,1,,,,,,,,
,,,,,,,,,,,,,FF,,,,,,,,2.068025,,,,,,,,,,,,,,,,,,,,,,61024c6fb46fe099f45f2296,6103684f0433d8fb830d9faa,2021-07-29_21h51.24.637,Simcolourproject_2stim_asymm_v5,2020.2.10,Linux x86_64,60,61025ae37ef11b136ea224fe,,,,,,,,,2015,-82.3939209,-28.72851563,1,0,0,response5disk,,2,-26.22180176,-4.976074219,1,0,0,rectangle,-26.22180176,-4.976074219,1,0,0,-26.22180176,-4.976074219,1,0,0,1,41,201,111,1,,,,,,,,
,,,,,,,,,,,,,FF,,,,,,,,1.18527,,,,,,,,,,,,,,,,,,,,,,61024c6fb46fe099f45f2296,6103684f0433d8fb830d9faa,2021-07-29_21h51.24.637,Simcolourproject_2stim_asymm_v5,2020.2.10,Linux x86_64,60,61025ae37ef11b136ea224fe,,,,,,,,,1784,72.06634521,-24.51333618,1,0,0,response3disk,,5,23.63946533,-5.694641113,1,0,0,rectangle,23.63946533,-5.694641113,1,0,0,23.63946533,-5.694641113,1,0,0,1,42,202,118,1,,,,,,,,
,,,,,,,,,,,,,FF,,,,,,,,1.36779,,,,,,,,,,,,,,,,,,,,,,61024c6fb46fe099f45f2296,6103684f0433d8fb830d9faa,2021-07-29_21h51.24.637,Simcolourproject_2stim_asymm_v5,2020.2.10,Linux x86_64,60,61025ae37ef11b136ea224fe,,,,,,,,,4337,-62.48596191,49.27639771,1,0,0,response7disk,,1,-15.32849121,-5.245178223,1,0,0,rectangle,-15.32849121,-5.245178223,1,0,0,-15.32849121,-5.245178223,1,0,0,1,43,203,109,1,,,,,,,,
,,,,,,,,,,,,,FF,,,,,,,,1.317615,,,,,,,,,,,,,,,,,,,,,,61024c6fb46fe099f45f2296,6103684f0433d8fb830d9faa,2021-07-29_21h51.24.637,Simcolourproject_2stim_asymm_v5,2020.2.10,Linux x86_64,60,61025ae37ef11b136ea224fe,,,,,,,,,1193,29.88916016,51.95666504,1,0,0,response1disk,,7,4.744018555,-2.860595703,1,0,0,rectangle,4.744018555,-2.860595703,1,0,0,4.744018555,-2.860595703,1,0,0,1,44,204,26,1,,,,,,,,
,,,,,,,,,,,,,FF,,,,,,,,1.069635,,,,,,,,,,,,,,,,,,,,,,61024c6fb46fe099f45f2296,6103684f0433d8fb830d9faa,2021-07-29_21h51.24.637,Simcolourproject_2stim_asymm_v5,2020.2.10,Linux x86_64,60,61025ae37ef11b136ea224fe,,,,,,,,,3677,-53.95452881,-31.35662842,1,0,0,response5disk,,2,-13.39373779,-12.32754517,1,0,0,rectangle,-13.39373779,-12.32754517,1,0,0,-13.39373779,-12.32754517,1,0,0,1,45,205,21,1,,,,,,,,
,,,,,,,,,,,,,FF,,,,,,,,1.98497,,,,,,,,,,,,,,,,,,,,,,61024c6fb46fe099f45f2296,6103684f0433d8fb830d9faa,2021-07-29_21h51.24.637,Simcolourproject_2stim_asymm_v5,2020.2.10,Linux x86_64,60,61025ae37ef11b136ea224fe,,,,,,,,,3068,92.29394531,-77.21755981,1,0,0,response3disk,,5,8.736083984,5.315673828,1,0,0,rectangle,8.736083984,5.315673828,1,0,0,8.736083984,5.315673828,1,0,0,1,46,206,154,1,,,,,,,,
,,,,,,,,,,,,,FF,,,,,,,,3.585425,,,,,,,,,,,,,,,,,,,,,,61024c6fb46fe099f45f2296,6103684f0433d8fb830d9faa,2021-07-29_21h51.24.637,Simcolourproject_2stim_asymm_v5,2020.2.10,Linux x86_64,60,61025ae37ef11b136ea224fe,,,,,,,,,596,59.2333374,-18.58456421,1,0,0,response3disk,,5,6.484863281,1.502288818,1,0,0,rectangle,6.484863281,1.502288818,1,0,0,6.484863281,1.502288818,1,0,0,1,47,207,47,1,,,,,,,,
,,,,,,,,,,,,,FF,,,,,,,,0.95081,,,,,,,,,,,,,,,,,,,,,,61024c6fb46fe099f45f2296,6103684f0433d8fb830d9faa,2021-07-29_21h51.24.637,Simcolourproject_2stim_asymm_v5,2020.2.10,Linux x86_64,60,61025ae37ef11b136ea224fe,,,,,,,,,426,90.71685791,36.93273926,1,0,0,response1disk,,6,18.83514404,0.972381592,1,0,0,rectangle,18.83514404,0.972381592,1,0,0,18.83514404,0.972381592,1,0,0,1,48,208,152,1,,,,,,,,
,,,,,,,,,,,,,FF,,,,,,,,1.31793,,,,,,,,,,,,,,,,,,,,,,61024c6fb46fe099f45f2296,6103684f0433d8fb830d9faa,2021-07-29_21h51.24.637,Simcolourproject_2stim_asymm_v5,2020.2.10,Linux x86_64,60,61025ae37ef11b136ea224fe,,,,,,,,,2201,60.88208008,23.05764771,1,0,0,response1disk,,6,17.19744873,7.039581299,1,0,0,rectangle,17.19744873,7.039581299,1,0,0,17.19744873,7.039581299,1,0,0,1,49,209,15,1,,,,,,,,
,,,,,,,,,,,,,FF,,,,,,,,1.201455,,,,,,,,,,,,,,,,,,,,,,61024c6fb46fe099f45f2296,6103684f0433d8fb830d9faa,2021-07-29_21h51.24.637,Simcolourproject_2stim_asymm_v5,2020.2.10,Linux x86_64,60,61025ae37ef11b136ea224fe,,,,,,,,,1196,-67.42193604,-31.6529541,1,0,0,response5disk,,2,-17.07080078,-3.433135986,1,0,0,rectangle,-17.07080078,-3.433135986,1,0,0,-17.07080078,-3.433135986,1,0,0,1,50,210,117,1,,,,,,,,
,,,,,,,,,,,,,FF,,,,,,,,1.16798,,,,,,,,,,,,,,,,,,,,,,61024c6fb46fe099f45f2296,6103684f0433d8fb830d9faa,2021-07-29_21h51.24.637,Simcolourproject_2stim_asymm_v5,2020.2.10,Linux x86_64,60,61025ae37ef11b136ea224fe,,,,,,,,,1789,60.08007813,-21.18682861,1,0,0,response3disk,,5,-4.411315918,10.08892822,1,0,0,rectangle,-4.411315918,10.08892822,1,0,0,-4.411315918,10.08892822,1,0,0,1,51,211,18,1,,,,,,,,
,,,,,,,,,,,,,FF,,,,,,,,0.98382,,,,,,,,,,,,,,,,,,,,,,61024c6fb46fe099f45f2296,6103684f0433d8fb830d9faa,2021-07-29_21h51.24.637,Simcolourproject_2stim_asymm_v5,2020.2.10,Linux x86_64,60,61025ae37ef11b136ea224fe,,,,,,,,,3382,-65.9788208,30.17886353,1,0,0,response7disk,,1,-15.42840576,3.701202393,1,0,0,rectangle,-15.42840576,3.701202393,1,0,0,-15.42840576,3.701202393,1,0,0,1,52,212,83,1,,,,,,,,
,,,,,,,,,,,,,FF,,,,,,,,1.10086,,,,,,,,,,,,,,,,,,,,,,61024c6fb46fe099f45f2296,6103684f0433d8fb830d9faa,2021-07-29_21h51.24.637,Simcolourproject_2stim_asymm_v5,2020.2.10,Linux x86_64,60,61025ae37ef11b136ea224fe,,,,,,,,,4205,-61.94573975,-21.94799805,1,0,0,response5disk,,2,5.374816895,7.412536621,1,0,0,rectangle,5.374816895,7.412536621,1,0,0,5.374816895,7.412536621,1,0,0,1,53,213,7,1,,,,,,,,
,,,,,,,,,,,,,FF,,,,,,,,1.33505,,,,,,,,,,,,,,,,,,,,,,61024c6fb46fe099f45f2296,6103684f0433d8fb830d9faa,2021-07-29_21h51.24.637,Simcolourproject_2stim_asymm_v5,2020.2.10,Linux x86_64,60,61025ae37ef11b136ea224fe,,,,,,,,,3133,96.40063477,30.38238525,1,0,0,response1disk,,6,6.501220703,-4.730072021,1,0,0,rectangle,6.501220703,-4.730072021,1,0,0,6.501220703,-4.730072021,1,0,0,1,54,214,69,1,,,,,,,,
,,,,,,,,,,,,,FF,,,,,,,,0.96847,,,,,,,,,,,,,,,,,,,,,,61024c6fb46fe099f45f2296,6103684f0433d8fb830d9faa,2021-07-29_21h51.24.637,Simcolourproject_2stim_asymm_v5,2020.2.10,Linux x86_64,60,61025ae37ef11b136ea224fe,,,,,,,,,2159,36.23205566,59.02816772,1,0,0,response1disk,,7,14.14715576,10.27825928,1,0,0,rectangle,14.14715576,10.27825928,1,0,0,14.14715576,10.27825928,1,0,0,1,55,215,116,1,,,,,,,,
,,,,,,,,,,,,,FF,,,,,,,,1.15032,,,,,,,,,,,,,,,,,,,,,,61024c6fb46fe099f45f2296,6103684f0433d8fb830d9faa,2021-07-29_21h51.24.637,Simcolourproject_2stim_asymm_v5,2020.2.10,Linux x86_64,60,61025ae37ef11b136ea224fe,,,,,,,,,851,33.10369873,55.15960693,1,0,0,response1disk,,7,7.961120605,5.039154053,1,0,0,rectangle,7.961120605,5.039154053,1,0,0,7.961120605,5.039154053,1,0,0,1,56,216,25,1,,,,,,,,
,,,,,,,,,,,,,FF,,,,,,,,1.31855,,,,,,,,,,,,,,,,,,,,,,61024c6fb46fe099f45f2296,6103684f0433d8fb830d9faa,2021-07-29_21h51.24.637,Simcolourproject_2stim_asymm_v5,2020.2.10,Linux x86_64,60,61025ae37ef11b136ea224fe,,,,,,,,,3720,-71.36047363,-58.16287231,1,0,0,response5disk,,2,1.004089355,-8.57119751,1,0,0,rectangle,94.79016113,36.59957886,1,0,0,0.397705078,-6.208618164,1,0,0,1,57,217,8,1,,response1disk_3,TRUE,6,6,"[218,288,321,178,280,141,250,145,83,72,265,4,50,274,42,275,46,267,159,13]",1.903655,rectangle
,,,,,,,,,,,,,FF,,,,,,,,1.717925,,,,,,,,,,,,,,,,,,,,,,61024c6fb46fe099f45f2296,6103684f0433d8fb830d9faa,2021-07-29_21h51.24.637,Simcolourproject_2stim_asymm_v5,2020.2.10,Linux x86_64,60,61025ae37ef11b136ea224fe,,,,,,,,,714,98.06213379,-21.91650391,1,0,0,response3disk,,5,23.81231689,3.135162354,1,0,0,rectangle,23.81231689,3.135162354,1,0,0,23.81231689,3.135162354,1,0,0,1,58,218,51,1,,,,,,,,
,,,,,,,,,,,,,FF,,,,,,,,1.80161,,,,,,,,,,,,,,,,,,,,,,61024c6fb46fe099f45f2296,6103684f0433d8fb830d9faa,2021-07-29_21h51.24.637,Simcolourproject_2stim_asymm_v5,2020.2.10,Linux x86_64,60,61025ae37ef11b136ea224fe,,,,,,,,,3346,-51.02233887,-71.33166504,1,0,0,response5disk,,3,-8.659301758,-4.55960083,1,0,0,rectangle,-8.659301758,-4.55960083,1,0,0,-8.659301758,-4.55960083,1,0,0,1,59,219,40,1,,,,,,,,
,,,,,,,,,,,,,FF,,,,,,,,1.20317,,,,,,,,,,,,,,,,,,,,,,61024c6fb46fe099f45f2296,6103684f0433d8fb830d9faa,2021-07-29_21h51.24.637,Simcolourproject_2stim_asymm_v5,2020.2.10,Linux x86_64,60,61025ae37ef11b136ea224fe,,,,,,,,,3644,-42.3939209,-68.13638306,1,0,0,response5disk,,3,-9.383361816,0.927490234,1,0,0,rectangle,-9.383361816,0.927490234,1,0,0,-9.383361816,0.927490234,1,0,0,1,60,220,70,1,,,,,,,,
,,,,,,,,,,,,,FF,,,,,,,,1.883835,,,,,,,,,,,,,,,,,,,,,,61024c6fb46fe099f45f2296,6103684f0433d8fb830d9faa,2021-07-29_21h51.24.637,Simcolourproject_2stim_asymm_v5,2020.2.10,Linux x86_64,60,61025ae37ef11b136ea224fe,,,,,,,,,2083,-61.92144775,-31.94989014,1,0,0,response5disk,,2,-17.02789307,-7.181854248,1,0,0,rectangle,-17.02789307,-7.181854248,1,0,0,-17.02789307,-7.181854248,1,0,0,1,61,221,150,1,,,,,,,,
,,,,,,,,,,,,,FF,,,,,,,,1.051315,,,,,,,,,,,,,,,,,,,,,,61024c6fb46fe099f45f2296,6103684f0433d8fb830d9faa,2021-07-29_21h51.24.637,Simcolourproject_2stim_asymm_v5,2020.2.10,Linux x86_64,60,61025ae37ef11b136ea224fe,,,,,,,,,1892,-59.35375977,43.86050415,1,0,0,response7disk,,1,-18.68768311,2.77230835,1,0,0,rectangle,-18.68768311,2.77230835,1,0,0,-18.68768311,2.77230835,1,0,0,1,62,222,13,1,,,,,,,,
,,,,,,,,,,,,,FF,,,,,,,,1.149615,,,,,,,,,,,,,,,,,,,,,,61024c6fb46fe099f45f2296,6103684f0433d8fb830d9faa,2021-07-29_21h51.24.637,Simcolourproject_2stim_asymm_v5,2020.2.10,Linux x86_64,60,61025ae37ef11b136ea224fe,,,,,,,,,3182,80.53320313,24.6781311,1,0,0,response1disk,,6,8.807800293,-6.20602417,1,0,0,rectangle,8.807800293,-6.20602417,1,0,0,8.807800293,-6.20602417,1,0,0,1,63,223,124,1,,,,,,,,
,,,,,,,,,,,,,FF,,,,,,,,1.167965,,,,,,,,,,,,,,,,,,,,,,61024c6fb46fe099f45f2296,6103684f0433d8fb830d9faa,2021-07-29_21h51.24.637,Simcolourproject_2stim_asymm_v5,2020.2.10,Linux x86_64,60,61025ae37ef11b136ea224fe,,,,,,,,,3226,22.47509766,51.51394653,1,0,0,response1disk,,7,5.884155273,7.065826416,1,0,0,rectangle,5.884155273,7.065826416,1,0,0,5.884155273,7.065826416,1,0,0,1,64,224,12,1,,,,,,,,
,,,,,,,,,,,,,FF,,,,,,,,1.66298,,,,,,,,,,,,,,,,,,,,,,61024c6fb46fe099f45f2296,6103684f0433d8fb830d9faa,2021-07-29_21h51.24.637,Simcolourproject_2stim_asymm_v5,2020.2.10,Linux x86_64,60,61025ae37ef11b136ea224fe,,,,,,,,,908,-73.13476563,-25.45141602,1,0,0,response5disk,,2,-27.01495361,-2.084594727,1,0,0,rectangle,-27.01495361,-2.084594727,1,0,0,-27.01495361,-2.084594727,1,0,0,1,65,225,100,1,,,,,,,,
,,,,,,,,,,,,,FF,,,,,,,,1.034,,,,,,,,,,,,,,,,,,,,,,61024c6fb46fe099f45f2296,6103684f0433d8fb830d9faa,2021-07-29_21h51.24.637,Simcolourproject_2stim_asymm_v5,2020.2.10,Linux x86_64,60,61025ae37ef11b136ea224fe,,,,,,,,,933,50.61627197,64.53140259,1,0,0,response1disk,,7,10.68536377,5.602508545,1,0,0,rectangle,10.68536377,5.602508545,1,0,0,10.68536377,5.602508545,1,0,0,1,66,226,9,1,,,,,,,,
,,,,,,,,,,,,,FF,,,,,,,,1.317575,,,,,,,,,,,,,,,,,,,,,,61024c6fb46fe099f45f2296,6103684f0433d8fb830d9faa,2021-07-29_21h51.24.637,Simcolourproject_2stim_asymm_v5,2020.2.10,Linux x86_64,60,61025ae37ef11b136ea224fe,,,,,,,,,2405,27.53656006,56.57788086,1,0,0,response1disk,,7,6.408325195,1.794311523,1,0,0,rectangle,6.408325195,1.794311523,1,0,0,6.408325195,1.794311523,1,0,0,1,67,227,153,1,,,,,,,,
,,,,,,,,,,,,,FF,,,,,,,,1.15072,,,,,,,,,,,,,,,,,,,,,,61024c6fb46fe099f45f2296,6103684f0433d8fb830d9faa,2021-07-29_21h51.24.637,Simcolourproject_2stim_asymm_v5,2020.2.10,Linux x86_64,60,61025ae37ef11b136ea224fe,,,,,,,,,3211,49.53973389,-21.37350464,1,0,0,response3disk,,5,-3.564880371,8.477966309,1,0,0,rectangle,-3.564880371,8.477966309,1,0,0,-3.564880371,8.477966309,1,0,0,1,68,228,53,1,,,,,,,,
,,,,,,,,,,,,,FF,,,,,,,,1.850375,,,,,,,,,,,,,,,,,,,,,,61024c6fb46fe099f45f2296,6103684f0433d8fb830d9faa,2021-07-29_21h51.24.637,Simcolourproject_2stim_asymm_v5,2020.2.10,Linux x86_64,60,61025ae37ef11b136ea224fe,,,,,,,,,1478,47.73083496,63.13644409,1,0,0,response1disk,,7,11.5411377,3.05758667,1,0,0,rectangle,11.5411377,3.05758667,1,0,0,11.5411377,3.05758667,1,0,0,1,69,229,112,1,,,,,,,,
,,,,,,,,,,,,,FF,,,,,,,,1.118235,,,,,,,,,,,,,,,,,,,,,,61024c6fb46fe099f45f2296,6103684f0433d8fb830d9faa,2021-07-29_21h51.24.637,Simcolourproject_2stim_asymm_v5,2020.2.10,Linux x86_64,60,61025ae37ef11b136ea224fe,,,,,,,,,1690,-58.90881348,-27.51211548,1,0,0,response5disk,,2,-4.061096191,-1.942993164,1,0,0,rectangle,-4.061096191,-1.942993164,1,0,0,-4.061096191,-1.942993164,1,0,0,1,70,230,29,1,,,,,,,,
,,,,,,,,,,,,,FF,,,,,,,,2.134705,,,,,,,,,,,,,,,,,,,,,,61024c6fb46fe099f45f2296,6103684f0433d8fb830d9faa,2021-07-29_21h51.24.637,Simcolourproject_2stim_asymm_v5,2020.2.10,Linux x86_64,60,61025ae37ef11b136ea224fe,,,,,,,,,2317,47.68676758,-53.90383911,1,0,0,response3disk,,4,8.102966309,-0.132904053,1,0,0,rectangle,8.102966309,-0.132904053,1,0,0,8.102966309,-0.132904053,1,0,0,1,71,231,84,1,,,,,,,,
,,,,,,,,,,,,,FF,,,,,,,,1.31803,,,,,,,,,,,,,,,,,,,,,,61024c6fb46fe099f45f2296,6103684f0433d8fb830d9faa,2021-07-29_21h51.24.637,Simcolourproject_2stim_asymm_v5,2020.2.10,Linux x86_64,60,61025ae37ef11b136ea224fe,,,,,,,,,626,33.07165527,48.38711548,1,0,0,response1disk,,7,21.91137695,12.8828125,1,0,0,rectangle,21.91137695,12.8828125,1,0,0,21.91137695,12.8828125,1,0,0,1,72,232,87,1,,,,,,,,
,,,,,,,,,,,,,FF,,,,,,,,1.100415,,,,,,,,,,,,,,,,,,,,,,61024c6fb46fe099f45f2296,6103684f0433d8fb830d9faa,2021-07-29_21h51.24.637,Simcolourproject_2stim_asymm_v5,2020.2.10,Linux x86_64,60,61025ae37ef11b136ea224fe,,,,,,,,,984,-79.84942627,-41.37844849,1,0,0,response5disk,,2,-9.098022461,-3.35369873,1,0,0,rectangle,-9.098022461,-3.35369873,1,0,0,-9.098022461,-3.35369873,1,0,0,1,73,233,148,1,,,,,,,,
,,,,,,,,,,,,,FF,,,,,,,,1.151095,,,,,,,,,,,,,,,,,,,,,,61024c6fb46fe099f45f2296,6103684f0433d8fb830d9faa,2021-07-29_21h51.24.637,Simcolourproject_2stim_asymm_v5,2020.2.10,Linux x86_64,60,61025ae37ef11b136ea224fe,,,,,,,,,1488,48.72125244,22.95361328,1,0,0,response1disk,,6,21.48242188,1.820343018,1,0,0,rectangle,21.48242188,1.820343018,1,0,0,21.48242188,1.820343018,1,0,0,1,74,234,121,1,,,,,,,,
,,,,,,,,,,,,,FF,,,,,,,,1.11668,,,,,,,,,,,,,,,,,,,,,,61024c6fb46fe099f45f2296,6103684f0433d8fb830d9faa,2021-07-29_21h51.24.637,Simcolourproject_2stim_asymm_v5,2020.2.10,Linux x86_64,60,61025ae37ef11b136ea224fe,,,,,,,,,2998,-60.7401123,25.47567749,1,0,0,response7disk,,1,-19.32849121,-2.772399902,1,0,0,rectangle,-19.32849121,-2.772399902,1,0,0,-19.32849121,-2.772399902,1,0,0,1,75,235,91,1,,,,,,,,
,,,,,,,,,,,,,FF,,,,,,,,1.0359,,,,,,,,,,,,,,,,,,,,,,61024c6fb46fe099f45f2296,6103684f0433d8fb830d9faa,2021-07-29_21h51.24.637,Simcolourproject_2stim_asymm_v5,2020.2.10,Linux x86_64,60,61025ae37ef11b136ea224fe,,,,,,,,,1677,-62.6239624,34.1567688,1,0,0,response7disk,,1,-15.14587402,6.6171875,1,0,0,rectangle,-15.14587402,6.6171875,1,0,0,-15.14587402,6.6171875,1,0,0,1,76,236,37,1,,,,,,,,
,,,,,,,,,,,,,FF,,,,,,,,0.950725,,,,,,,,,,,,,,,,,,,,,,61024c6fb46fe099f45f2296,6103684f0433d8fb830d9faa,2021-07-29_21h51.24.637,Simcolourproject_2stim_asymm_v5,2020.2.10,Linux x86_64,60,61025ae37ef11b136ea224fe,,,,,,,,,3638,25.8538208,54.47268677,1,0,0,response1disk,,7,13.05157471,9.09866333,1,0,0,rectangle,13.05157471,9.09866333,1,0,0,13.05157471,9.09866333,1,0,0,1,77,237,146,1,,,,,,,,
,,,,,,,,,,,,,FF,,,,,,,,1.585135,,,,,,,,,,,,,,,,,,,,,,61024c6fb46fe099f45f2296,6103684f0433d8fb830d9faa,2021-07-29_21h51.24.637,Simcolourproject_2stim_asymm_v5,2020.2.10,Linux x86_64,60,61025ae37ef11b136ea224fe,,,,,,,,,2850,56.61724854,68.17224121,1,0,0,response1disk,,7,20.38891602,3.831726074,1,0,0,rectangle,20.38891602,3.831726074,1,0,0,20.38891602,3.831726074,1,0,0,1,78,238,125,1,,,,,,,,
