key_resp.keys,key_resp.rt,key_resp_14.keys,key_resp_14.rt,key_resp_15.keys,key_resp_15.rt,key_resp_17.keys,key_resp_17.rt,key_resp_9.keys,key_resp_9.rt,key_resp_10.keys,key_resp_10.rt,practice_comparison,Ecc,mouse_5.x,mouse_5.y,mouse_5.leftButton,mouse_5.midButton,mouse_5.rightButton,mouse_5.clicked_name,pracsimilarity,response_time,mouse_10.x,mouse_10.y,mouse_10.leftButton,mouse_10.midButton,mouse_10.rightButton,mouse_10.clicked_name,mouse_7.x,mouse_7.y,mouse_7.leftButton,mouse_7.midButton,mouse_7.rightButton,mouse_6.x,mouse_6.y,mouse_6.leftButton,mouse_6.midButton,mouse_6.rightButton,duringprac.thisRepN,duringprac.thisTrialN,duringprac.thisN,duringprac.thisIndex,duringprac.ran,participant,session,date,expName,psychopyVersion,OS,frameRate,study_id,mouse_7.clicked_name,catchpracsimilarity,catch_response_time,catchnumberprac,catchtrialorderprac,mouse_6.clicked_name,key_resp_22.keys,key_resp_22.rt,realcomparison,mouse.x,mouse.y,mouse.leftButton,mouse.midButton,mouse.rightButton,mouse.clicked_name,Colour2,similarity,mouse_2.x,mouse_2.y,mouse_2.leftButton,mouse_2.midButton,mouse_2.rightButton,mouse_2.clicked_name,mouse_3.x,mouse_3.y,mouse_3.leftButton,mouse_3.midButton,mouse_3.rightButton,mouse_11.x,mouse_11.y,mouse_11.leftButton,mouse_11.midButton,mouse_11.rightButton,trials_2.thisRepN,trials_2.thisTrialN,trials_2.thisN,trials_2.thisIndex,trials_2.ran,Colour1,mouse_3.clicked_name,catchornah,catchsimilarity,catchnumber,catchtrialorder,catchRT,mouse_11.clicked_name
space,2.564,space,18.425,space,18.266,space,9.185,space,0.851,space,3.808,18,FF,96,83,1,0,0,response1disk_5,6,3.399,-6,-3,1,0,0,rectangle_8,-6,-3,1,0,0,-6,-3,1,0,0,0,0,0,0,1,6102050090041d90dc5413f3,61036a27990ef8339d1e8cd7,2021-07-29_21h56.27.153,Simcolourproject_2stim_asymm_v5,2020.2.10,Win32,60,61025ae37ef11b136ea224fe,,,,,,,,,,,,,,,,,,,,,,,,,,,,,,,,,,,,,,,,,,,,,,
,,,,,,,,,,,,8,PF,-45,-45,1,0,0,response5disk_5,3,1.75,13,14,1,0,0,rectangle_8,-47,80,1,0,0,27,-3,1,0,0,0,1,1,2,1,6102050090041d90dc5413f3,61036a27990ef8339d1e8cd7,2021-07-29_21h56.27.153,Simcolourproject_2stim_asymm_v5,2020.2.10,Win32,60,61025ae37ef11b136ea224fe,response7disk_7,0,3.481,0,"[2,5]",rectangle_4,,,,,,,,,,,,,,,,,,,,,,,,,,,,,,,,,,,,,,,,
,,,,,,,,,,,,103,PF,43,-51,1,0,0,response3disk_5,4,2.049,5,4,1,0,0,rectangle_8,5,4,1,0,0,5,4,1,0,0,0,2,2,1,1,6102050090041d90dc5413f3,61036a27990ef8339d1e8cd7,2021-07-29_21h56.27.153,Simcolourproject_2stim_asymm_v5,2020.2.10,Win32,60,61025ae37ef11b136ea224fe,,,,,,,,,,,,,,,,,,,,,,,,,,,,,,,,,,,,,,,,,,,,,,
,,,,,,,,,,,,159,FF,62,-22,1,0,0,response3disk_5,5,1.434,3,-1,1,0,0,rectangle_8,3,-1,1,0,0,3,-1,1,0,0,0,3,3,5,1,6102050090041d90dc5413f3,61036a27990ef8339d1e8cd7,2021-07-29_21h56.27.153,Simcolourproject_2stim_asymm_v5,2020.2.10,Win32,60,61025ae37ef11b136ea224fe,,,,,,,,,,,,,,,,,,,,,,,,,,,,,,,,,,,,,,,,,,,,,,
,,,,,,,,,,,,142,FF,61,31,1,0,0,response1disk_5,6,1.799,-7,-7,1,0,0,rectangle_8,-44,68,1,0,0,10,8,1,0,0,0,4,4,3,1,6102050090041d90dc5413f3,61036a27990ef8339d1e8cd7,2021-07-29_21h56.27.153,Simcolourproject_2stim_asymm_v5,2020.2.10,Win32,60,61025ae37ef11b136ea224fe,response7disk_7,0,1.978,0,"[2,5]",rectangle_4,,,,,,,,,,,,,,,,,,,,,,,,,,,,,,,,,,,,,,,,
,,,,,,,,,,,,127,PF,88,73,1,0,0,response1disk_5,6,1.233,-1,0,1,0,0,rectangle_8,-1,0,1,0,0,-1,0,1,0,0,0,5,5,6,1,6102050090041d90dc5413f3,61036a27990ef8339d1e8cd7,2021-07-29_21h56.27.153,Simcolourproject_2stim_asymm_v5,2020.2.10,Win32,60,61025ae37ef11b136ea224fe,,,,,,,,,,,,,,,,,,,,,,,,,,,,,,,,,,,,,,,,,,,,,,
,,,,,,,,,,,,147,PF,83,-45,1,0,0,response3disk_5,5,1.952,-5,-3,1,0,0,rectangle_8,-5,-3,1,0,0,-5,-3,1,0,0,0,6,6,4,1,6102050090041d90dc5413f3,61036a27990ef8339d1e8cd7,2021-07-29_21h56.27.153,Simcolourproject_2stim_asymm_v5,2020.2.10,Win32,60,61025ae37ef11b136ea224fe,,,,,,,,,,,,,,,,,,,,,,,,,,,,,,,,,,,,,,,,,,,,,,
,,,,,,,,,,,,,FF,,,,,,,,1.466,,,,,,,,,,,,,,,,,,,,,,6102050090041d90dc5413f3,61036a27990ef8339d1e8cd7,2021-07-29_21h56.27.153,Simcolourproject_2stim_asymm_v5,2020.2.10,Win32,60,61025ae37ef11b136ea224fe,,,,,,,space,3.173,3767,30,81,1,0,0,response1disk,,7,2,-1,1,0,0,rectangle,2,-1,1,0,0,2,-1,1,0,0,0,0,0,107,1,,,,,,,,
,,,,,,,,,,,,,FF,,,,,,,,1.751,,,,,,,,,,,,,,,,,,,,,,6102050090041d90dc5413f3,61036a27990ef8339d1e8cd7,2021-07-29_21h56.27.153,Simcolourproject_2stim_asymm_v5,2020.2.10,Win32,60,61025ae37ef11b136ea224fe,,,,,,,,,1245,88,-54,1,0,0,response3disk,,5,-24,3,1,0,0,rectangle,-24,3,1,0,0,-24,3,1,0,0,0,1,1,73,1,,,,,,,,
,,,,,,,,,,,,,FF,,,,,,,,1.749,,,,,,,,,,,,,,,,,,,,,,6102050090041d90dc5413f3,61036a27990ef8339d1e8cd7,2021-07-29_21h56.27.153,Simcolourproject_2stim_asymm_v5,2020.2.10,Win32,60,61025ae37ef11b136ea224fe,,,,,,,,,2675,64,38,1,0,0,response1disk,,6,-1,-6,1,0,0,rectangle,-1,-6,1,0,0,-1,-6,1,0,0,0,2,2,12,1,,,,,,,,
,,,,,,,,,,,,,FF,,,,,,,,0.999,,,,,,,,,,,,,,,,,,,,,,6102050090041d90dc5413f3,61036a27990ef8339d1e8cd7,2021-07-29_21h56.27.153,Simcolourproject_2stim_asymm_v5,2020.2.10,Win32,60,61025ae37ef11b136ea224fe,,,,,,,,,2264,38,76,1,0,0,response1disk,,7,-1,10,1,0,0,rectangle,-1,10,1,0,0,-1,10,1,0,0,0,3,3,103,1,,,,,,,,
,,,,,,,,,,,,,FF,,,,,,,,1.331,,,,,,,,,,,,,,,,,,,,,,6102050090041d90dc5413f3,61036a27990ef8339d1e8cd7,2021-07-29_21h56.27.153,Simcolourproject_2stim_asymm_v5,2020.2.10,Win32,60,61025ae37ef11b136ea224fe,,,,,,,,,394,82,-39,1,0,0,response3disk,,5,0,13,1,0,0,rectangle,0,13,1,0,0,0,13,1,0,0,0,4,4,26,1,,,,,,,,
,,,,,,,,,,,,,FF,,,,,,,,1.399,,,,,,,,,,,,,,,,,,,,,,6102050090041d90dc5413f3,61036a27990ef8339d1e8cd7,2021-07-29_21h56.27.153,Simcolourproject_2stim_asymm_v5,2020.2.10,Win32,60,61025ae37ef11b136ea224fe,,,,,,,,,2112,103,-67,1,0,0,response3disk,,5,-7,5,1,0,0,rectangle,-7,5,1,0,0,-7,5,1,0,0,0,5,5,136,1,,,,,,,,
,,,,,,,,,,,,,FF,,,,,,,,1,,,,,,,,,,,,,,,,,,,,,,6102050090041d90dc5413f3,61036a27990ef8339d1e8cd7,2021-07-29_21h56.27.153,Simcolourproject_2stim_asymm_v5,2020.2.10,Win32,60,61025ae37ef11b136ea224fe,,,,,,,,,1117,67,40,1,0,0,response1disk,,6,-9,-5,1,0,0,rectangle,-9,-5,1,0,0,-9,-5,1,0,0,0,6,6,133,1,,,,,,,,
,,,,,,,,,,,,,FF,,,,,,,,1.017,,,,,,,,,,,,,,,,,,,,,,6102050090041d90dc5413f3,61036a27990ef8339d1e8cd7,2021-07-29_21h56.27.153,Simcolourproject_2stim_asymm_v5,2020.2.10,Win32,60,61025ae37ef11b136ea224fe,,,,,,,,,771,64,53,1,0,0,response1disk,,6,-11,1,1,0,0,rectangle,-11,1,1,0,0,-11,1,1,0,0,0,7,7,99,1,,,,,,,,
,,,,,,,,,,,,,FF,,,,,,,,2.151,,,,,,,,,,,,,,,,,,,,,,6102050090041d90dc5413f3,61036a27990ef8339d1e8cd7,2021-07-29_21h56.27.153,Simcolourproject_2stim_asymm_v5,2020.2.10,Win32,60,61025ae37ef11b136ea224fe,,,,,,,,,2174,-66,-23,1,0,0,response5disk,,2,-7,2,1,0,0,rectangle,92,37,1,0,0,10,2,1,0,0,0,8,8,71,1,,response1disk_3,TRUE,6,6,"[58,75,17,9,181,51,287,180,308,149,118,69,224,62,238,298,315,201,184,41]",2.615,rectangle
,,,,,,,,,,,,,FF,,,,,,,,1.621,,,,,,,,,,,,,,,,,,,,,,6102050090041d90dc5413f3,61036a27990ef8339d1e8cd7,2021-07-29_21h56.27.153,Simcolourproject_2stim_asymm_v5,2020.2.10,Win32,60,61025ae37ef11b136ea224fe,,,,,,,,,3306,81,57,1,0,0,response1disk,,6,-16,-3,1,0,0,rectangle,-16,-3,1,0,0,-16,-3,1,0,0,0,9,9,57,1,,,,,,,,
,,,,,,,,,,,,,FF,,,,,,,,1.585,,,,,,,,,,,,,,,,,,,,,,6102050090041d90dc5413f3,61036a27990ef8339d1e8cd7,2021-07-29_21h56.27.153,Simcolourproject_2stim_asymm_v5,2020.2.10,Win32,60,61025ae37ef11b136ea224fe,,,,,,,,,4034,58,-77,1,0,0,response3disk,,4,0,7,1,0,0,rectangle,0,7,1,0,0,0,7,1,0,0,0,10,10,146,1,,,,,,,,
,,,,,,,,,,,,,FF,,,,,,,,1.567,,,,,,,,,,,,,,,,,,,,,,6102050090041d90dc5413f3,61036a27990ef8339d1e8cd7,2021-07-29_21h56.27.153,Simcolourproject_2stim_asymm_v5,2020.2.10,Win32,60,61025ae37ef11b136ea224fe,,,,,,,,,1649,85,19,1,0,0,response1disk,,6,-11,2,1,0,0,rectangle,-11,2,1,0,0,-11,2,1,0,0,0,11,11,29,1,,,,,,,,
,,,,,,,,,,,,,FF,,,,,,,,1.586,,,,,,,,,,,,,,,,,,,,,,6102050090041d90dc5413f3,61036a27990ef8339d1e8cd7,2021-07-29_21h56.27.153,Simcolourproject_2stim_asymm_v5,2020.2.10,Win32,60,61025ae37ef11b136ea224fe,,,,,,,,,1696,25,-68,1,0,0,response3disk,,4,4,3,1,0,0,rectangle,4,3,1,0,0,4,3,1,0,0,0,12,12,30,1,,,,,,,,
,,,,,,,,,,,,,FF,,,,,,,,1.471,,,,,,,,,,,,,,,,,,,,,,6102050090041d90dc5413f3,61036a27990ef8339d1e8cd7,2021-07-29_21h56.27.153,Simcolourproject_2stim_asymm_v5,2020.2.10,Win32,60,61025ae37ef11b136ea224fe,,,,,,,,,2515,103,-31,1,0,0,response3disk,,5,3,10,1,0,0,rectangle,3,10,1,0,0,3,10,1,0,0,0,13,13,157,1,,,,,,,,
,,,,,,,,,,,,,FF,,,,,,,,0.816,,,,,,,,,,,,,,,,,,,,,,6102050090041d90dc5413f3,61036a27990ef8339d1e8cd7,2021-07-29_21h56.27.153,Simcolourproject_2stim_asymm_v5,2020.2.10,Win32,60,61025ae37ef11b136ea224fe,,,,,,,,,696,47,80,1,0,0,response1disk,,7,2,-10,1,0,0,rectangle,2,-10,1,0,0,2,-10,1,0,0,0,14,14,143,1,,,,,,,,
,,,,,,,,,,,,,FF,,,,,,,,1.102,,,,,,,,,,,,,,,,,,,,,,6102050090041d90dc5413f3,61036a27990ef8339d1e8cd7,2021-07-29_21h56.27.153,Simcolourproject_2stim_asymm_v5,2020.2.10,Win32,60,61025ae37ef11b136ea224fe,,,,,,,,,3016,39,85,1,0,0,response1disk,,7,6,-2,1,0,0,rectangle,6,-2,1,0,0,6,-2,1,0,0,0,15,15,98,1,,,,,,,,
,,,,,,,,,,,,,FF,,,,,,,,2.864,,,,,,,,,,,,,,,,,,,,,,6102050090041d90dc5413f3,61036a27990ef8339d1e8cd7,2021-07-29_21h56.27.153,Simcolourproject_2stim_asymm_v5,2020.2.10,Win32,60,61025ae37ef11b136ea224fe,,,,,,,,,3393,-36,-62,1,0,0,response5disk,,3,4,2,1,0,0,rectangle,-59,-28,1,0,0,-14,-6,1,0,0,0,16,16,138,1,,response5disk_3,TRUE,2,2,"[58,75,17,9,181,51,287,180,308,149,118,69,224,62,238,298,315,201,184,41]",2.394,rectangle
,,,,,,,,,,,,,FF,,,,,,,,0.95,,,,,,,,,,,,,,,,,,,,,,6102050090041d90dc5413f3,61036a27990ef8339d1e8cd7,2021-07-29_21h56.27.153,Simcolourproject_2stim_asymm_v5,2020.2.10,Win32,60,61025ae37ef11b136ea224fe,,,,,,,,,1007,88,-38,1,0,0,response3disk,,5,2,1,1,0,0,rectangle,2,1,1,0,0,2,1,1,0,0,0,17,17,18,1,,,,,,,,
,,,,,,,,,,,,,FF,,,,,,,,1.115,,,,,,,,,,,,,,,,,,,,,,6102050090041d90dc5413f3,61036a27990ef8339d1e8cd7,2021-07-29_21h56.27.153,Simcolourproject_2stim_asymm_v5,2020.2.10,Win32,60,61025ae37ef11b136ea224fe,,,,,,,,,3941,53,34,1,0,0,response1disk,,6,-5,7,1,0,0,rectangle,-5,7,1,0,0,-5,7,1,0,0,0,18,18,88,1,,,,,,,,
,,,,,,,,,,,,,FF,,,,,,,,1.48,,,,,,,,,,,,,,,,,,,,,,6102050090041d90dc5413f3,61036a27990ef8339d1e8cd7,2021-07-29_21h56.27.153,Simcolourproject_2stim_asymm_v5,2020.2.10,Win32,60,61025ae37ef11b136ea224fe,,,,,,,,,3922,42,-81,1,0,0,response3disk,,4,0,-4,1,0,0,rectangle,0,-4,1,0,0,0,-4,1,0,0,0,19,19,46,1,,,,,,,,
,,,,,,,,,,,,,FF,,,,,,,,2.613,,,,,,,,,,,,,,,,,,,,,,6102050090041d90dc5413f3,61036a27990ef8339d1e8cd7,2021-07-29_21h56.27.153,Simcolourproject_2stim_asymm_v5,2020.2.10,Win32,60,61025ae37ef11b136ea224fe,,,,,,,,,2951,-61,-78,1,0,0,response5disk,,3,-1,12,1,0,0,rectangle,-1,12,1,0,0,-1,12,1,0,0,0,20,20,48,1,,,,,,,,
,,,,,,,,,,,,,FF,,,,,,,,1.399,,,,,,,,,,,,,,,,,,,,,,6102050090041d90dc5413f3,61036a27990ef8339d1e8cd7,2021-07-29_21h56.27.153,Simcolourproject_2stim_asymm_v5,2020.2.10,Win32,60,61025ae37ef11b136ea224fe,,,,,,,,,2674,86,-15,1,0,0,response3disk,,5,-26,13,1,0,0,rectangle,-26,13,1,0,0,-26,13,1,0,0,0,21,21,34,1,,,,,,,,
,,,,,,,,,,,,,FF,,,,,,,,1.981,,,,,,,,,,,,,,,,,,,,,,6102050090041d90dc5413f3,61036a27990ef8339d1e8cd7,2021-07-29_21h56.27.153,Simcolourproject_2stim_asymm_v5,2020.2.10,Win32,60,61025ae37ef11b136ea224fe,,,,,,,,,1597,-54,-94,1,0,0,response5disk,,3,2,9,1,0,0,rectangle,2,9,1,0,0,2,9,1,0,0,0,22,22,76,1,,,,,,,,
,,,,,,,,,,,,,FF,,,,,,,,1.365,,,,,,,,,,,,,,,,,,,,,,6102050090041d90dc5413f3,61036a27990ef8339d1e8cd7,2021-07-29_21h56.27.153,Simcolourproject_2stim_asymm_v5,2020.2.10,Win32,60,61025ae37ef11b136ea224fe,,,,,,,,,2743,85,56,1,0,0,response1disk,,6,17,14,1,0,0,rectangle,17,14,1,0,0,17,14,1,0,0,0,23,23,10,1,,,,,,,,
,,,,,,,,,,,,,FF,,,,,,,,1.197,,,,,,,,,,,,,,,,,,,,,,6102050090041d90dc5413f3,61036a27990ef8339d1e8cd7,2021-07-29_21h56.27.153,Simcolourproject_2stim_asymm_v5,2020.2.10,Win32,60,61025ae37ef11b136ea224fe,,,,,,,,,795,38,-76,1,0,0,response3disk,,4,-2,7,1,0,0,rectangle,-2,7,1,0,0,-2,7,1,0,0,0,24,24,9,1,,,,,,,,
,,,,,,,,,,,,,FF,,,,,,,,1.265,,,,,,,,,,,,,,,,,,,,,,6102050090041d90dc5413f3,61036a27990ef8339d1e8cd7,2021-07-29_21h56.27.153,Simcolourproject_2stim_asymm_v5,2020.2.10,Win32,60,61025ae37ef11b136ea224fe,,,,,,,,,1617,-98,-56,1,0,0,response5disk,,2,1,1,1,0,0,rectangle,1,1,1,0,0,1,1,1,0,0,0,25,25,65,1,,,,,,,,
,,,,,,,,,,,,,FF,,,,,,,,0.7,,,,,,,,,,,,,,,,,,,,,,6102050090041d90dc5413f3,61036a27990ef8339d1e8cd7,2021-07-29_21h56.27.153,Simcolourproject_2stim_asymm_v5,2020.2.10,Win32,60,61025ae37ef11b136ea224fe,,,,,,,,,858,29,78,1,0,0,response1disk,,7,-4,6,1,0,0,rectangle,-4,6,1,0,0,-4,6,1,0,0,0,26,26,144,1,,,,,,,,
,,,,,,,,,,,,,FF,,,,,,,,1.186,,,,,,,,,,,,,,,,,,,,,,6102050090041d90dc5413f3,61036a27990ef8339d1e8cd7,2021-07-29_21h56.27.153,Simcolourproject_2stim_asymm_v5,2020.2.10,Win32,60,61025ae37ef11b136ea224fe,,,,,,,,,694,32,82,1,0,0,response1disk,,7,6,8,1,0,0,rectangle,6,8,1,0,0,6,8,1,0,0,0,27,27,67,1,,,,,,,,
,,,,,,,,,,,,,FF,,,,,,,,0.799,,,,,,,,,,,,,,,,,,,,,,6102050090041d90dc5413f3,61036a27990ef8339d1e8cd7,2021-07-29_21h56.27.153,Simcolourproject_2stim_asymm_v5,2020.2.10,Win32,60,61025ae37ef11b136ea224fe,,,,,,,,,1849,21,57,1,0,0,response1disk,,7,2,6,1,0,0,rectangle,2,6,1,0,0,2,6,1,0,0,0,28,28,2,1,,,,,,,,
,,,,,,,,,,,,,FF,,,,,,,,1.431,,,,,,,,,,,,,,,,,,,,,,6102050090041d90dc5413f3,61036a27990ef8339d1e8cd7,2021-07-29_21h56.27.153,Simcolourproject_2stim_asymm_v5,2020.2.10,Win32,60,61025ae37ef11b136ea224fe,,,,,,,,,909,-36,-90,1,0,0,response5disk,,3,1,-1,1,0,0,rectangle,1,-1,1,0,0,1,-1,1,0,0,0,29,29,118,1,,,,,,,,
,,,,,,,,,,,,,FF,,,,,,,,1.182,,,,,,,,,,,,,,,,,,,,,,6102050090041d90dc5413f3,61036a27990ef8339d1e8cd7,2021-07-29_21h56.27.153,Simcolourproject_2stim_asymm_v5,2020.2.10,Win32,60,61025ae37ef11b136ea224fe,,,,,,,,,1378,-26,-62,1,0,0,response5disk,,3,0,3,1,0,0,rectangle,0,3,1,0,0,0,3,1,0,0,0,30,30,114,1,,,,,,,,
,,,,,,,,,,,,,FF,,,,,,,,1.399,,,,,,,,,,,,,,,,,,,,,,6102050090041d90dc5413f3,61036a27990ef8339d1e8cd7,2021-07-29_21h56.27.153,Simcolourproject_2stim_asymm_v5,2020.2.10,Win32,60,61025ae37ef11b136ea224fe,,,,,,,,,3953,47,74,1,0,0,response1disk,,7,-21,-2,1,0,0,rectangle,-21,-2,1,0,0,-21,-2,1,0,0,0,31,31,28,1,,,,,,,,
,,,,,,,,,,,,,FF,,,,,,,,1.549,,,,,,,,,,,,,,,,,,,,,,6102050090041d90dc5413f3,61036a27990ef8339d1e8cd7,2021-07-29_21h56.27.153,Simcolourproject_2stim_asymm_v5,2020.2.10,Win32,60,61025ae37ef11b136ea224fe,,,,,,,,,2095,-87,-31,1,0,0,response5disk,,2,6,3,1,0,0,rectangle,6,3,1,0,0,6,3,1,0,0,0,32,32,96,1,,,,,,,,
,,,,,,,,,,,,,FF,,,,,,,,0.903,,,,,,,,,,,,,,,,,,,,,,6102050090041d90dc5413f3,61036a27990ef8339d1e8cd7,2021-07-29_21h56.27.153,Simcolourproject_2stim_asymm_v5,2020.2.10,Win32,60,61025ae37ef11b136ea224fe,,,,,,,,,4283,37,65,1,0,0,response1disk,,7,0,15,1,0,0,rectangle,0,15,1,0,0,0,15,1,0,0,0,33,33,61,1,,,,,,,,
,,,,,,,,,,,,,FF,,,,,,,,1.731,,,,,,,,,,,,,,,,,,,,,,6102050090041d90dc5413f3,61036a27990ef8339d1e8cd7,2021-07-29_21h56.27.153,Simcolourproject_2stim_asymm_v5,2020.2.10,Win32,60,61025ae37ef11b136ea224fe,,,,,,,,,719,-70,-18,1,0,0,response5disk,,2,0,3,1,0,0,rectangle,0,3,1,0,0,0,3,1,0,0,0,34,34,142,1,,,,,,,,
,,,,,,,,,,,,,FF,,,,,,,,0.85,,,,,,,,,,,,,,,,,,,,,,6102050090041d90dc5413f3,61036a27990ef8339d1e8cd7,2021-07-29_21h56.27.153,Simcolourproject_2stim_asymm_v5,2020.2.10,Win32,60,61025ae37ef11b136ea224fe,,,,,,,,,2490,-33,-101,1,0,0,response5disk,,3,-12,0,1,0,0,rectangle,-12,0,1,0,0,-12,0,1,0,0,0,35,35,83,1,,,,,,,,
,,,,,,,,,,,,,FF,,,,,,,,1.564,,,,,,,,,,,,,,,,,,,,,,6102050090041d90dc5413f3,61036a27990ef8339d1e8cd7,2021-07-29_21h56.27.153,Simcolourproject_2stim_asymm_v5,2020.2.10,Win32,60,61025ae37ef11b136ea224fe,,,,,,,,,3386,-42,-67,1,0,0,response5disk,,3,-5,-2,1,0,0,rectangle,-5,-2,1,0,0,-5,-2,1,0,0,0,36,36,92,1,,,,,,,,
,,,,,,,,,,,,,FF,,,,,,,,1.05,,,,,,,,,,,,,,,,,,,,,,6102050090041d90dc5413f3,61036a27990ef8339d1e8cd7,2021-07-29_21h56.27.153,Simcolourproject_2stim_asymm_v5,2020.2.10,Win32,60,61025ae37ef11b136ea224fe,,,,,,,,,671,82,-23,1,0,0,response3disk,,5,-26,6,1,0,0,rectangle,-26,6,1,0,0,-26,6,1,0,0,0,37,37,35,1,,,,,,,,
,,,,,,,,,,,,,FF,,,,,,,,1.247,,,,,,,,,,,,,,,,,,,,,,6102050090041d90dc5413f3,61036a27990ef8339d1e8cd7,2021-07-29_21h56.27.153,Simcolourproject_2stim_asymm_v5,2020.2.10,Win32,60,61025ae37ef11b136ea224fe,,,,,,,,,54,59,35,1,0,0,response1disk,,6,2,11,1,0,0,rectangle,2,11,1,0,0,2,11,1,0,0,0,38,38,122,1,,,,,,,,
,,,,,,,,,,,,,FF,,,,,,,,1.648,,,,,,,,,,,,,,,,,,,,,,6102050090041d90dc5413f3,61036a27990ef8339d1e8cd7,2021-07-29_21h56.27.153,Simcolourproject_2stim_asymm_v5,2020.2.10,Win32,60,61025ae37ef11b136ea224fe,,,,,,,,,3203,-53,-81,1,0,0,response5disk,,3,0,15,1,0,0,rectangle,0,15,1,0,0,0,15,1,0,0,0,39,39,51,1,,,,,,,,
,,,,,,,,,,,,,FF,,,,,,,,0.717,,,,,,,,,,,,,,,,,,,,,,6102050090041d90dc5413f3,61036a27990ef8339d1e8cd7,2021-07-29_21h56.27.153,Simcolourproject_2stim_asymm_v5,2020.2.10,Win32,60,61025ae37ef11b136ea224fe,,,,,,,,,2067,24,62,1,0,0,response1disk,,7,4,-3,1,0,0,rectangle,34,86,1,0,0,9,5,1,0,0,0,40,40,11,1,,response1disk_3,TRUE,7,7,"[58,75,17,9,181,51,287,180,308,149,118,69,224,62,238,298,315,201,184,41]",2.249,rectangle
,,,,,,,,,,,,,FF,,,,,,,,1.383,,,,,,,,,,,,,,,,,,,,,,6102050090041d90dc5413f3,61036a27990ef8339d1e8cd7,2021-07-29_21h56.27.153,Simcolourproject_2stim_asymm_v5,2020.2.10,Win32,60,61025ae37ef11b136ea224fe,,,,,,,,,4297,95,-52,1,0,0,response3disk,,5,-3,9,1,0,0,rectangle,-3,9,1,0,0,-3,9,1,0,0,0,41,41,124,1,,,,,,,,
,,,,,,,,,,,,,FF,,,,,,,,0.833,,,,,,,,,,,,,,,,,,,,,,6102050090041d90dc5413f3,61036a27990ef8339d1e8cd7,2021-07-29_21h56.27.153,Simcolourproject_2stim_asymm_v5,2020.2.10,Win32,60,61025ae37ef11b136ea224fe,,,,,,,,,447,39,-113,1,0,0,response3disk,,4,-9,4,1,0,0,rectangle,-9,4,1,0,0,-9,4,1,0,0,0,42,42,129,1,,,,,,,,
,,,,,,,,,,,,,FF,,,,,,,,0.65,,,,,,,,,,,,,,,,,,,,,,6102050090041d90dc5413f3,61036a27990ef8339d1e8cd7,2021-07-29_21h56.27.153,Simcolourproject_2stim_asymm_v5,2020.2.10,Win32,60,61025ae37ef11b136ea224fe,,,,,,,,,2140,60,82,1,0,0,response1disk,,7,1,-9,1,0,0,rectangle,1,-9,1,0,0,1,-9,1,0,0,0,43,43,81,1,,,,,,,,
,,,,,,,,,,,,,FF,,,,,,,,1.267,,,,,,,,,,,,,,,,,,,,,,6102050090041d90dc5413f3,61036a27990ef8339d1e8cd7,2021-07-29_21h56.27.153,Simcolourproject_2stim_asymm_v5,2020.2.10,Win32,60,61025ae37ef11b136ea224fe,,,,,,,,,2219,42,-112,1,0,0,response3disk,,4,-5,11,1,0,0,rectangle,-5,11,1,0,0,-5,11,1,0,0,0,44,44,59,1,,,,,,,,
,,,,,,,,,,,,,FF,,,,,,,,1.182,,,,,,,,,,,,,,,,,,,,,,6102050090041d90dc5413f3,61036a27990ef8339d1e8cd7,2021-07-29_21h56.27.153,Simcolourproject_2stim_asymm_v5,2020.2.10,Win32,60,61025ae37ef11b136ea224fe,,,,,,,,,1372,39,-111,1,0,0,response3disk,,4,-1,6,1,0,0,rectangle,-1,6,1,0,0,-1,6,1,0,0,0,45,45,90,1,,,,,,,,
,,,,,,,,,,,,,FF,,,,,,,,1.964,,,,,,,,,,,,,,,,,,,,,,6102050090041d90dc5413f3,61036a27990ef8339d1e8cd7,2021-07-29_21h56.27.153,Simcolourproject_2stim_asymm_v5,2020.2.10,Win32,60,61025ae37ef11b136ea224fe,,,,,,,,,644,74,-50,1,0,0,response3disk,,5,-3,12,1,0,0,rectangle,-3,12,1,0,0,-3,12,1,0,0,0,46,46,89,1,,,,,,,,
,,,,,,,,,,,,,FF,,,,,,,,0.654,,,,,,,,,,,,,,,,,,,,,,6102050090041d90dc5413f3,61036a27990ef8339d1e8cd7,2021-07-29_21h56.27.153,Simcolourproject_2stim_asymm_v5,2020.2.10,Win32,60,61025ae37ef11b136ea224fe,,,,,,,,,329,55,85,1,0,0,response1disk,,7,3,5,1,0,0,rectangle,3,5,1,0,0,3,5,1,0,0,0,47,47,43,1,,,,,,,,
,,,,,,,,,,,,,FF,,,,,,,,1.049,,,,,,,,,,,,,,,,,,,,,,6102050090041d90dc5413f3,61036a27990ef8339d1e8cd7,2021-07-29_21h56.27.153,Simcolourproject_2stim_asymm_v5,2020.2.10,Win32,60,61025ae37ef11b136ea224fe,,,,,,,,,216,33,83,1,0,0,response1disk,,7,-12,-5,1,0,0,rectangle,-12,-5,1,0,0,-12,-5,1,0,0,0,48,48,115,1,,,,,,,,
,,,,,,,,,,,,,FF,,,,,,,,0.499,,,,,,,,,,,,,,,,,,,,,,6102050090041d90dc5413f3,61036a27990ef8339d1e8cd7,2021-07-29_21h56.27.153,Simcolourproject_2stim_asymm_v5,2020.2.10,Win32,60,61025ae37ef11b136ea224fe,,,,,,,,,1494,51,71,1,0,0,response1disk,,7,-9,7,1,0,0,rectangle,-9,7,1,0,0,-9,7,1,0,0,0,49,49,134,1,,,,,,,,
,,,,,,,,,,,,,FF,,,,,,,,1.382,,,,,,,,,,,,,,,,,,,,,,6102050090041d90dc5413f3,61036a27990ef8339d1e8cd7,2021-07-29_21h56.27.153,Simcolourproject_2stim_asymm_v5,2020.2.10,Win32,60,61025ae37ef11b136ea224fe,,,,,,,,,917,74,28,1,0,0,response1disk,,6,-9,5,1,0,0,rectangle,-16,-87,1,0,0,4,-5,1,0,0,0,50,50,158,1,,response5disk_3,TRUE,3,3,"[58,75,17,9,181,51,287,180,308,149,118,69,224,62,238,298,315,201,184,41]",2.282,rectangle
,,,,,,,,,,,,,FF,,,,,,,,0.932,,,,,,,,,,,,,,,,,,,,,,6102050090041d90dc5413f3,61036a27990ef8339d1e8cd7,2021-07-29_21h56.27.153,Simcolourproject_2stim_asymm_v5,2020.2.10,Win32,60,61025ae37ef11b136ea224fe,,,,,,,,,2997,-34,-62,1,0,0,response5disk,,3,-2,6,1,0,0,rectangle,-2,6,1,0,0,-2,6,1,0,0,0,51,51,49,1,,,,,,,,
,,,,,,,,,,,,,FF,,,,,,,,1.032,,,,,,,,,,,,,,,,,,,,,,6102050090041d90dc5413f3,61036a27990ef8339d1e8cd7,2021-07-29_21h56.27.153,Simcolourproject_2stim_asymm_v5,2020.2.10,Win32,60,61025ae37ef11b136ea224fe,,,,,,,,,557,-78,-51,1,0,0,response5disk,,2,17,-7,1,0,0,rectangle,17,-7,1,0,0,17,-7,1,0,0,0,52,52,116,1,,,,,,,,
,,,,,,,,,,,,,FF,,,,,,,,0.916,,,,,,,,,,,,,,,,,,,,,,6102050090041d90dc5413f3,61036a27990ef8339d1e8cd7,2021-07-29_21h56.27.153,Simcolourproject_2stim_asymm_v5,2020.2.10,Win32,60,61025ae37ef11b136ea224fe,,,,,,,,,2021,47,34,1,0,0,response1disk,,6,-4,0,1,0,0,rectangle,-4,0,1,0,0,-4,0,1,0,0,0,53,53,15,1,,,,,,,,
,,,,,,,,,,,,,FF,,,,,,,,0.666,,,,,,,,,,,,,,,,,,,,,,6102050090041d90dc5413f3,61036a27990ef8339d1e8cd7,2021-07-29_21h56.27.153,Simcolourproject_2stim_asymm_v5,2020.2.10,Win32,60,61025ae37ef11b136ea224fe,,,,,,,,,241,23,50,1,0,0,response1disk,,7,4,4,1,0,0,rectangle,4,4,1,0,0,4,4,1,0,0,0,54,54,85,1,,,,,,,,
,,,,,,,,,,,,,FF,,,,,,,,0.733,,,,,,,,,,,,,,,,,,,,,,6102050090041d90dc5413f3,61036a27990ef8339d1e8cd7,2021-07-29_21h56.27.153,Simcolourproject_2stim_asymm_v5,2020.2.10,Win32,60,61025ae37ef11b136ea224fe,,,,,,,,,3490,47,73,1,0,0,response1disk,,7,6,-8,1,0,0,rectangle,6,-8,1,0,0,6,-8,1,0,0,0,55,55,21,1,,,,,,,,
,,,,,,,,,,,,,FF,,,,,,,,1.216,,,,,,,,,,,,,,,,,,,,,,6102050090041d90dc5413f3,61036a27990ef8339d1e8cd7,2021-07-29_21h56.27.153,Simcolourproject_2stim_asymm_v5,2020.2.10,Win32,60,61025ae37ef11b136ea224fe,,,,,,,,,834,74,35,1,0,0,response1disk,,6,15,11,1,0,0,rectangle,15,11,1,0,0,15,11,1,0,0,0,56,56,97,1,,,,,,,,
,,,,,,,,,,,,,FF,,,,,,,,0.867,,,,,,,,,,,,,,,,,,,,,,6102050090041d90dc5413f3,61036a27990ef8339d1e8cd7,2021-07-29_21h56.27.153,Simcolourproject_2stim_asymm_v5,2020.2.10,Win32,60,61025ae37ef11b136ea224fe,,,,,,,,,1537,-69,-40,1,0,0,response5disk,,2,-3,7,1,0,0,rectangle,-72,-48,1,0,0,6,-4,1,0,0,0,57,57,147,1,,response5disk_3,TRUE,2,2,"[58,75,17,9,181,51,287,180,308,149,118,69,224,62,238,298,315,201,184,41]",2.08,rectangle
,,,,,,,,,,,,,FF,,,,,,,,1.45,,,,,,,,,,,,,,,,,,,,,,6102050090041d90dc5413f3,61036a27990ef8339d1e8cd7,2021-07-29_21h56.27.153,Simcolourproject_2stim_asymm_v5,2020.2.10,Win32,60,61025ae37ef11b136ea224fe,,,,,,,,,463,49,-49,1,0,0,response3disk,,5,-5,-4,1,0,0,rectangle,-5,-4,1,0,0,-5,-4,1,0,0,0,58,58,113,1,,,,,,,,
,,,,,,,,,,,,,FF,,,,,,,,0.999,,,,,,,,,,,,,,,,,,,,,,6102050090041d90dc5413f3,61036a27990ef8339d1e8cd7,2021-07-29_21h56.27.153,Simcolourproject_2stim_asymm_v5,2020.2.10,Win32,60,61025ae37ef11b136ea224fe,,,,,,,,,3550,35,72,1,0,0,response1disk,,7,-13,-15,1,0,0,rectangle,-13,-15,1,0,0,-13,-15,1,0,0,0,59,59,93,1,,,,,,,,
,,,,,,,,,,,,,FF,,,,,,,,0.916,,,,,,,,,,,,,,,,,,,,,,6102050090041d90dc5413f3,61036a27990ef8339d1e8cd7,2021-07-29_21h56.27.153,Simcolourproject_2stim_asymm_v5,2020.2.10,Win32,60,61025ae37ef11b136ea224fe,,,,,,,,,1623,26,-48,1,0,0,response3disk,,4,10,12,1,0,0,rectangle,10,12,1,0,0,10,12,1,0,0,0,60,60,41,1,,,,,,,,
,,,,,,,,,,,,,FF,,,,,,,,0.666,,,,,,,,,,,,,,,,,,,,,,6102050090041d90dc5413f3,61036a27990ef8339d1e8cd7,2021-07-29_21h56.27.153,Simcolourproject_2stim_asymm_v5,2020.2.10,Win32,60,61025ae37ef11b136ea224fe,,,,,,,,,2910,18,56,1,0,0,response1disk,,7,10,6,1,0,0,rectangle,-18,102,1,0,0,-3,-12,1,0,0,0,61,61,64,1,,response7disk_3,TRUE,0,0,"[58,75,17,9,181,51,287,180,308,149,118,69,224,62,238,298,315,201,184,41]",1.348,rectangle
,,,,,,,,,,,,,FF,,,,,,,,1.233,,,,,,,,,,,,,,,,,,,,,,6102050090041d90dc5413f3,61036a27990ef8339d1e8cd7,2021-07-29_21h56.27.153,Simcolourproject_2stim_asymm_v5,2020.2.10,Win32,60,61025ae37ef11b136ea224fe,,,,,,,,,335,65,-26,1,0,0,response3disk,,5,10,5,1,0,0,rectangle,10,5,1,0,0,10,5,1,0,0,0,62,62,38,1,,,,,,,,
,,,,,,,,,,,,,FF,,,,,,,,0.984,,,,,,,,,,,,,,,,,,,,,,6102050090041d90dc5413f3,61036a27990ef8339d1e8cd7,2021-07-29_21h56.27.153,Simcolourproject_2stim_asymm_v5,2020.2.10,Win32,60,61025ae37ef11b136ea224fe,,,,,,,,,752,77,30,1,0,0,response1disk,,6,5,1,1,0,0,rectangle,5,1,1,0,0,5,1,1,0,0,0,63,63,149,1,,,,,,,,
,,,,,,,,,,,,,FF,,,,,,,,0.632,,,,,,,,,,,,,,,,,,,,,,6102050090041d90dc5413f3,61036a27990ef8339d1e8cd7,2021-07-29_21h56.27.153,Simcolourproject_2stim_asymm_v5,2020.2.10,Win32,60,61025ae37ef11b136ea224fe,,,,,,,,,1503,62,121,1,0,0,response1disk,,7,6,10,1,0,0,rectangle,6,10,1,0,0,6,10,1,0,0,0,64,64,17,1,,,,,,,,
,,,,,,,,,,,,,FF,,,,,,,,0.633,,,,,,,,,,,,,,,,,,,,,,6102050090041d90dc5413f3,61036a27990ef8339d1e8cd7,2021-07-29_21h56.27.153,Simcolourproject_2stim_asymm_v5,2020.2.10,Win32,60,61025ae37ef11b136ea224fe,,,,,,,,,561,39,72,1,0,0,response1disk,,7,2,-5,1,0,0,rectangle,2,-5,1,0,0,2,-5,1,0,0,0,65,65,112,1,,,,,,,,
,,,,,,,,,,,,,FF,,,,,,,,1.416,,,,,,,,,,,,,,,,,,,,,,6102050090041d90dc5413f3,61036a27990ef8339d1e8cd7,2021-07-29_21h56.27.153,Simcolourproject_2stim_asymm_v5,2020.2.10,Win32,60,61025ae37ef11b136ea224fe,,,,,,,,,2079,27,53,1,0,0,response1disk,,7,-6,3,1,0,0,rectangle,-6,3,1,0,0,-6,3,1,0,0,0,66,66,50,1,,,,,,,,
,,,,,,,,,,,,,FF,,,,,,,,0.833,,,,,,,,,,,,,,,,,,,,,,6102050090041d90dc5413f3,61036a27990ef8339d1e8cd7,2021-07-29_21h56.27.153,Simcolourproject_2stim_asymm_v5,2020.2.10,Win32,60,61025ae37ef11b136ea224fe,,,,,,,,,2966,23,54,1,0,0,response1disk,,7,1,12,1,0,0,rectangle,1,12,1,0,0,1,12,1,0,0,0,67,67,60,1,,,,,,,,
,,,,,,,,,,,,,FF,,,,,,,,2.166,,,,,,,,,,,,,,,,,,,,,,6102050090041d90dc5413f3,61036a27990ef8339d1e8cd7,2021-07-29_21h56.27.153,Simcolourproject_2stim_asymm_v5,2020.2.10,Win32,60,61025ae37ef11b136ea224fe,,,,,,,,,666,27,63,1,0,0,response1disk,,7,3,12,1,0,0,rectangle,-68,41,1,0,0,18,-9,1,0,0,0,68,68,3,1,,response7disk_3,TRUE,1,1,"[58,75,17,9,181,51,287,180,308,149,118,69,224,62,238,298,315,201,184,41]",1.696,rectangle
,,,,,,,,,,,,,FF,,,,,,,,0.699,,,,,,,,,,,,,,,,,,,,,,6102050090041d90dc5413f3,61036a27990ef8339d1e8cd7,2021-07-29_21h56.27.153,Simcolourproject_2stim_asymm_v5,2020.2.10,Win32,60,61025ae37ef11b136ea224fe,,,,,,,,,1151,36,111,1,0,0,response1disk,,7,-21,-10,1,0,0,rectangle,-21,-10,1,0,0,-21,-10,1,0,0,0,69,69,37,1,,,,,,,,
,,,,,,,,,,,,,FF,,,,,,,,0.567,,,,,,,,,,,,,,,,,,,,,,6102050090041d90dc5413f3,61036a27990ef8339d1e8cd7,2021-07-29_21h56.27.153,Simcolourproject_2stim_asymm_v5,2020.2.10,Win32,60,61025ae37ef11b136ea224fe,,,,,,,,,1859,28,76,1,0,0,response1disk,,7,-10,-5,1,0,0,rectangle,-10,-5,1,0,0,-10,-5,1,0,0,0,70,70,68,1,,,,,,,,
,,,,,,,,,,,,,FF,,,,,,,,1.1,,,,,,,,,,,,,,,,,,,,,,6102050090041d90dc5413f3,61036a27990ef8339d1e8cd7,2021-07-29_21h56.27.153,Simcolourproject_2stim_asymm_v5,2020.2.10,Win32,60,61025ae37ef11b136ea224fe,,,,,,,,,1579,46,-61,1,0,0,response3disk,,4,6,4,1,0,0,rectangle,6,4,1,0,0,6,4,1,0,0,0,71,71,127,1,,,,,,,,
,,,,,,,,,,,,,FF,,,,,,,,0.649,,,,,,,,,,,,,,,,,,,,,,6102050090041d90dc5413f3,61036a27990ef8339d1e8cd7,2021-07-29_21h56.27.153,Simcolourproject_2stim_asymm_v5,2020.2.10,Win32,60,61025ae37ef11b136ea224fe,,,,,,,,,4003,43,53,1,0,0,response1disk,,7,4,4,1,0,0,rectangle,4,4,1,0,0,4,4,1,0,0,0,72,72,31,1,,,,,,,,
,,,,,,,,,,,,,FF,,,,,,,,0.632,,,,,,,,,,,,,,,,,,,,,,6102050090041d90dc5413f3,61036a27990ef8339d1e8cd7,2021-07-29_21h56.27.153,Simcolourproject_2stim_asymm_v5,2020.2.10,Win32,60,61025ae37ef11b136ea224fe,,,,,,,,,4177,40,71,1,0,0,response1disk,,7,0,7,1,0,0,rectangle,0,7,1,0,0,0,7,1,0,0,0,73,73,32,1,,,,,,,,
,,,,,,,,,,,,,FF,,,,,,,,1.232,,,,,,,,,,,,,,,,,,,,,,6102050090041d90dc5413f3,61036a27990ef8339d1e8cd7,2021-07-29_21h56.27.153,Simcolourproject_2stim_asymm_v5,2020.2.10,Win32,60,61025ae37ef11b136ea224fe,,,,,,,,,3307,24,85,1,0,0,response1disk,,7,5,4,1,0,0,rectangle,-71,-21,1,0,0,-7,9,1,0,0,0,74,74,36,1,,response5disk_3,TRUE,2,2,"[58,75,17,9,181,51,287,180,308,149,118,69,224,62,238,298,315,201,184,41]",1.582,rectangle
,,,,,,,,,,,,,FF,,,,,,,,0.799,,,,,,,,,,,,,,,,,,,,,,6102050090041d90dc5413f3,61036a27990ef8339d1e8cd7,2021-07-29_21h56.27.153,Simcolourproject_2stim_asymm_v5,2020.2.10,Win32,60,61025ae37ef11b136ea224fe,,,,,,,,,2642,36,-74,1,0,0,response3disk,,4,5,0,1,0,0,rectangle,5,0,1,0,0,5,0,1,0,0,0,75,75,120,1,,,,,,,,
,,,,,,,,,,,,,FF,,,,,,,,1.03,,,,,,,,,,,,,,,,,,,,,,6102050090041d90dc5413f3,61036a27990ef8339d1e8cd7,2021-07-29_21h56.27.153,Simcolourproject_2stim_asymm_v5,2020.2.10,Win32,60,61025ae37ef11b136ea224fe,,,,,,,,,2816,31,77,1,0,0,response1disk,,7,3,8,1,0,0,rectangle,3,8,1,0,0,3,8,1,0,0,0,76,76,53,1,,,,,,,,
,,,,,,,,,,,,,FF,,,,,,,,0.716,,,,,,,,,,,,,,,,,,,,,,6102050090041d90dc5413f3,61036a27990ef8339d1e8cd7,2021-07-29_21h56.27.153,Simcolourproject_2stim_asymm_v5,2020.2.10,Win32,60,61025ae37ef11b136ea224fe,,,,,,,,,1425,31,55,1,0,0,response1disk,,7,-4,-6,1,0,0,rectangle,-4,-6,1,0,0,-4,-6,1,0,0,0,77,77,56,1,,,,,,,,
,,,,,,,,,,,,,FF,,,,,,,,1.099,,,,,,,,,,,,,,,,,,,,,,6102050090041d90dc5413f3,61036a27990ef8339d1e8cd7,2021-07-29_21h56.27.153,Simcolourproject_2stim_asymm_v5,2020.2.10,Win32,60,61025ae37ef11b136ea224fe,,,,,,,,,3420,84,44,1,0,0,response1disk,,6,7,3,1,0,0,rectangle,7,3,1,0,0,7,3,1,0,0,0,78,78,132,1,,,,,,,,
,,,,,,,,,,,,,FF,,,,,,,,0.882,,,,,,,,,,,,,,,,,,,,,,6102050090041d90dc5413f3,61036a27990ef8339d1e8cd7,2021-07-29_21h56.27.153,Simcolourproject_2stim_asymm_v5,2020.2.10,Win32,60,61025ae37ef11b136ea224fe,,,,,,,,,4364,-74,40,1,0,0,response7disk,,1,2,0,1,0,0,rectangle,2,0,1,0,0,2,0,1,0,0,0,79,79,105,1,,,,,,,,
,,,,,,,,,,,,,FF,,,,,,,,0.949,,,,,,,,,,,,,,,,,,,,,,6102050090041d90dc5413f3,61036a27990ef8339d1e8cd7,2021-07-29_21h56.27.153,Simcolourproject_2stim_asymm_v5,2020.2.10,Win32,60,61025ae37ef11b136ea224fe,,,,,,,,,3339,-68,-30,1,0,0,response5disk,,2,9,8,1,0,0,rectangle,9,8,1,0,0,9,8,1,0,0,0,80,80,154,1,,,,,,,,
,,,,,,,,,,,,,FF,,,,,,,,0.699,,,,,,,,,,,,,,,,,,,,,,6102050090041d90dc5413f3,61036a27990ef8339d1e8cd7,2021-07-29_21h56.27.153,Simcolourproject_2stim_asymm_v5,2020.2.10,Win32,60,61025ae37ef11b136ea224fe,,,,,,,,,3723,50,106,1,0,0,response1disk,,7,-16,6,1,0,0,rectangle,-16,6,1,0,0,-16,6,1,0,0,0,81,81,125,1,,,,,,,,
,,,,,,,,,,,,,FF,,,,,,,,0.768,,,,,,,,,,,,,,,,,,,,,,6102050090041d90dc5413f3,61036a27990ef8339d1e8cd7,2021-07-29_21h56.27.153,Simcolourproject_2stim_asymm_v5,2020.2.10,Win32,60,61025ae37ef11b136ea224fe,,,,,,,,,1345,65,91,1,0,0,response1disk,,7,19,15,1,0,0,rectangle,19,15,1,0,0,19,15,1,0,0,0,82,82,86,1,,,,,,,,
,,,,,,,,,,,,,FF,,,,,,,,1.166,,,,,,,,,,,,,,,,,,,,,,6102050090041d90dc5413f3,61036a27990ef8339d1e8cd7,2021-07-29_21h56.27.153,Simcolourproject_2stim_asymm_v5,2020.2.10,Win32,60,61025ae37ef11b136ea224fe,,,,,,,,,1363,30,79,1,0,0,response1disk,,7,-17,-9,1,0,0,rectangle,-17,-9,1,0,0,-17,-9,1,0,0,0,83,83,58,1,,,,,,,,
,,,,,,,,,,,,,FF,,,,,,,,0.667,,,,,,,,,,,,,,,,,,,,,,6102050090041d90dc5413f3,61036a27990ef8339d1e8cd7,2021-07-29_21h56.27.153,Simcolourproject_2stim_asymm_v5,2020.2.10,Win32,60,61025ae37ef11b136ea224fe,,,,,,,,,4043,44,61,1,0,0,response1disk,,7,-31,-2,1,0,0,rectangle,-31,-2,1,0,0,-31,-2,1,0,0,0,84,84,1,1,,,,,,,,
,,,,,,,,,,,,,FF,,,,,,,,1.266,,,,,,,,,,,,,,,,,,,,,,6102050090041d90dc5413f3,61036a27990ef8339d1e8cd7,2021-07-29_21h56.27.153,Simcolourproject_2stim_asymm_v5,2020.2.10,Win32,60,61025ae37ef11b136ea224fe,,,,,,,,,3972,-39,-41,1,0,0,response5disk,,3,-2,-5,1,0,0,rectangle,-2,-5,1,0,0,-2,-5,1,0,0,0,85,85,104,1,,,,,,,,
,,,,,,,,,,,,,FF,,,,,,,,2.015,,,,,,,,,,,,,,,,,,,,,,6102050090041d90dc5413f3,61036a27990ef8339d1e8cd7,2021-07-29_21h56.27.153,Simcolourproject_2stim_asymm_v5,2020.2.10,Win32,60,61025ae37ef11b136ea224fe,,,,,,,,,1242,61,19,1,0,0,response1disk,,6,-2,-5,1,0,0,rectangle,-2,-5,1,0,0,-2,-5,1,0,0,0,86,86,150,1,,,,,,,,
,,,,,,,,,,,,,FF,,,,,,,,1.765,,,,,,,,,,,,,,,,,,,,,,6102050090041d90dc5413f3,61036a27990ef8339d1e8cd7,2021-07-29_21h56.27.153,Simcolourproject_2stim_asymm_v5,2020.2.10,Win32,60,61025ae37ef11b136ea224fe,,,,,,,,,3780,18,-29,1,0,0,response3disk,,4,0,6,1,0,0,rectangle,0,6,1,0,0,0,6,1,0,0,0,87,87,42,1,,,,,,,,
,,,,,,,,,,,,,FF,,,,,,,,1.052,,,,,,,,,,,,,,,,,,,,,,6102050090041d90dc5413f3,61036a27990ef8339d1e8cd7,2021-07-29_21h56.27.153,Simcolourproject_2stim_asymm_v5,2020.2.10,Win32,60,61025ae37ef11b136ea224fe,,,,,,,,,3291,-45,-72,1,0,0,response5disk,,3,24,8,1,0,0,rectangle,24,8,1,0,0,24,8,1,0,0,0,88,88,63,1,,,,,,,,
,,,,,,,,,,,,,FF,,,,,,,,0.883,,,,,,,,,,,,,,,,,,,,,,6102050090041d90dc5413f3,61036a27990ef8339d1e8cd7,2021-07-29_21h56.27.153,Simcolourproject_2stim_asymm_v5,2020.2.10,Win32,60,61025ae37ef11b136ea224fe,,,,,,,,,736,19,-68,1,0,0,response3disk,,4,4,1,1,0,0,rectangle,4,1,1,0,0,4,1,1,0,0,0,89,89,33,1,,,,,,,,
,,,,,,,,,,,,,FF,,,,,,,,1.915,,,,,,,,,,,,,,,,,,,,,,6102050090041d90dc5413f3,61036a27990ef8339d1e8cd7,2021-07-29_21h56.27.153,Simcolourproject_2stim_asymm_v5,2020.2.10,Win32,60,61025ae37ef11b136ea224fe,,,,,,,,,3197,-76,-42,1,0,0,response5disk,,2,-9,12,1,0,0,rectangle,-9,12,1,0,0,-9,12,1,0,0,0,90,90,91,1,,,,,,,,
,,,,,,,,,,,,,FF,,,,,,,,1.349,,,,,,,,,,,,,,,,,,,,,,6102050090041d90dc5413f3,61036a27990ef8339d1e8cd7,2021-07-29_21h56.27.153,Simcolourproject_2stim_asymm_v5,2020.2.10,Win32,60,61025ae37ef11b136ea224fe,,,,,,,,,2791,-34,-82,1,0,0,response5disk,,3,5,-1,1,0,0,rectangle,5,-1,1,0,0,5,-1,1,0,0,0,91,91,62,1,,,,,,,,
,,,,,,,,,,,,,FF,,,,,,,,1.837,,,,,,,,,,,,,,,,,,,,,,6102050090041d90dc5413f3,61036a27990ef8339d1e8cd7,2021-07-29_21h56.27.153,Simcolourproject_2stim_asymm_v5,2020.2.10,Win32,60,61025ae37ef11b136ea224fe,,,,,,,,,3887,-36,-81,1,0,0,response5disk,,3,2,11,1,0,0,rectangle,2,11,1,0,0,2,11,1,0,0,0,92,92,70,1,,,,,,,,
,,,,,,,,,,,,,FF,,,,,,,,0.72,,,,,,,,,,,,,,,,,,,,,,6102050090041d90dc5413f3,61036a27990ef8339d1e8cd7,2021-07-29_21h56.27.153,Simcolourproject_2stim_asymm_v5,2020.2.10,Win32,60,61025ae37ef11b136ea224fe,,,,,,,,,4212,59,37,1,0,0,response1disk,,6,-12,3,1,0,0,rectangle,-12,3,1,0,0,-12,3,1,0,0,0,93,93,155,1,,,,,,,,
,,,,,,,,,,,,,FF,,,,,,,,0.899,,,,,,,,,,,,,,,,,,,,,,6102050090041d90dc5413f3,61036a27990ef8339d1e8cd7,2021-07-29_21h56.27.153,Simcolourproject_2stim_asymm_v5,2020.2.10,Win32,60,61025ae37ef11b136ea224fe,,,,,,,,,2774,45,91,1,0,0,response1disk,,7,10,-6,1,0,0,rectangle,10,-6,1,0,0,10,-6,1,0,0,0,94,94,23,1,,,,,,,,
,,,,,,,,,,,,,FF,,,,,,,,0.936,,,,,,,,,,,,,,,,,,,,,,6102050090041d90dc5413f3,61036a27990ef8339d1e8cd7,2021-07-29_21h56.27.153,Simcolourproject_2stim_asymm_v5,2020.2.10,Win32,60,61025ae37ef11b136ea224fe,,,,,,,,,2314,77,-72,1,0,0,response3disk,,5,5,1,1,0,0,rectangle,5,1,1,0,0,5,1,1,0,0,0,95,95,95,1,,,,,,,,
,,,,,,,,,,,,,FF,,,,,,,,0.633,,,,,,,,,,,,,,,,,,,,,,6102050090041d90dc5413f3,61036a27990ef8339d1e8cd7,2021-07-29_21h56.27.153,Simcolourproject_2stim_asymm_v5,2020.2.10,Win32,60,61025ae37ef11b136ea224fe,,,,,,,,,3072,32,57,1,0,0,response1disk,,7,8,-2,1,0,0,rectangle,8,-2,1,0,0,8,-2,1,0,0,0,96,96,119,1,,,,,,,,
,,,,,,,,,,,,,FF,,,,,,,,0.582,,,,,,,,,,,,,,,,,,,,,,6102050090041d90dc5413f3,61036a27990ef8339d1e8cd7,2021-07-29_21h56.27.153,Simcolourproject_2stim_asymm_v5,2020.2.10,Win32,60,61025ae37ef11b136ea224fe,,,,,,,,,3228,28,60,1,0,0,response1disk,,7,15,7,1,0,0,rectangle,15,7,1,0,0,15,7,1,0,0,0,97,97,102,1,,,,,,,,
,,,,,,,,,,,,,FF,,,,,,,,1.024,,,,,,,,,,,,,,,,,,,,,,6102050090041d90dc5413f3,61036a27990ef8339d1e8cd7,2021-07-29_21h56.27.153,Simcolourproject_2stim_asymm_v5,2020.2.10,Win32,60,61025ae37ef11b136ea224fe,,,,,,,,,1229,37,-57,1,0,0,response3disk,,4,-5,3,1,0,0,rectangle,-5,3,1,0,0,-5,3,1,0,0,0,98,98,108,1,,,,,,,,
,,,,,,,,,,,,,FF,,,,,,,,1.233,,,,,,,,,,,,,,,,,,,,,,6102050090041d90dc5413f3,61036a27990ef8339d1e8cd7,2021-07-29_21h56.27.153,Simcolourproject_2stim_asymm_v5,2020.2.10,Win32,60,61025ae37ef11b136ea224fe,,,,,,,,,3951,22,57,1,0,0,response1disk,,7,14,-6,1,0,0,rectangle,14,-6,1,0,0,14,-6,1,0,0,0,99,99,16,1,,,,,,,,
,,,,,,,,,,,,,FF,,,,,,,,0.817,,,,,,,,,,,,,,,,,,,,,,6102050090041d90dc5413f3,61036a27990ef8339d1e8cd7,2021-07-29_21h56.27.153,Simcolourproject_2stim_asymm_v5,2020.2.10,Win32,60,61025ae37ef11b136ea224fe,,,,,,,,,1463,40,-81,1,0,0,response3disk,,4,-4,11,1,0,0,rectangle,-4,11,1,0,0,-4,11,1,0,0,0,100,100,13,1,,,,,,,,
,,,,,,,,,,,,,FF,,,,,,,,0.7,,,,,,,,,,,,,,,,,,,,,,6102050090041d90dc5413f3,61036a27990ef8339d1e8cd7,2021-07-29_21h56.27.153,Simcolourproject_2stim_asymm_v5,2020.2.10,Win32,60,61025ae37ef11b136ea224fe,,,,,,,,,3262,17,50,1,0,0,response1disk,,7,19,-9,1,0,0,rectangle,19,-9,1,0,0,19,-9,1,0,0,0,101,101,148,1,,,,,,,,
,,,,,,,,,,,,,FF,,,,,,,,0.953,,,,,,,,,,,,,,,,,,,,,,6102050090041d90dc5413f3,61036a27990ef8339d1e8cd7,2021-07-29_21h56.27.153,Simcolourproject_2stim_asymm_v5,2020.2.10,Win32,60,61025ae37ef11b136ea224fe,,,,,,,,,1203,-32,66,1,0,0,response7disk,,0,-9,10,1,0,0,rectangle,-9,10,1,0,0,-9,10,1,0,0,0,102,102,79,1,,,,,,,,
,,,,,,,,,,,,,FF,,,,,,,,1.139,,,,,,,,,,,,,,,,,,,,,,6102050090041d90dc5413f3,61036a27990ef8339d1e8cd7,2021-07-29_21h56.27.153,Simcolourproject_2stim_asymm_v5,2020.2.10,Win32,60,61025ae37ef11b136ea224fe,,,,,,,,,1194,-53,-26,1,0,0,response5disk,,2,-15,4,1,0,0,rectangle,-15,4,1,0,0,-15,4,1,0,0,0,103,103,5,1,,,,,,,,
,,,,,,,,,,,,,FF,,,,,,,,0.932,,,,,,,,,,,,,,,,,,,,,,6102050090041d90dc5413f3,61036a27990ef8339d1e8cd7,2021-07-29_21h56.27.153,Simcolourproject_2stim_asymm_v5,2020.2.10,Win32,60,61025ae37ef11b136ea224fe,,,,,,,,,125,45,67,1,0,0,response1disk,,7,0,-4,1,0,0,rectangle,0,-4,1,0,0,0,-4,1,0,0,0,104,104,75,1,,,,,,,,
,,,,,,,,,,,,,FF,,,,,,,,0.782,,,,,,,,,,,,,,,,,,,,,,6102050090041d90dc5413f3,61036a27990ef8339d1e8cd7,2021-07-29_21h56.27.153,Simcolourproject_2stim_asymm_v5,2020.2.10,Win32,60,61025ae37ef11b136ea224fe,,,,,,,,,4001,40,93,1,0,0,response1disk,,7,11,9,1,0,0,rectangle,11,9,1,0,0,11,9,1,0,0,0,105,105,8,1,,,,,,,,
,,,,,,,,,,,,,FF,,,,,,,,1.245,,,,,,,,,,,,,,,,,,,,,,6102050090041d90dc5413f3,61036a27990ef8339d1e8cd7,2021-07-29_21h56.27.153,Simcolourproject_2stim_asymm_v5,2020.2.10,Win32,60,61025ae37ef11b136ea224fe,,,,,,,,,3000,-39,68,1,0,0,response7disk,,0,-4,8,1,0,0,rectangle,-4,8,1,0,0,-4,8,1,0,0,0,106,106,106,1,,,,,,,,
,,,,,,,,,,,,,FF,,,,,,,,0.733,,,,,,,,,,,,,,,,,,,,,,6102050090041d90dc5413f3,61036a27990ef8339d1e8cd7,2021-07-29_21h56.27.153,Simcolourproject_2stim_asymm_v5,2020.2.10,Win32,60,61025ae37ef11b136ea224fe,,,,,,,,,1302,55,81,1,0,0,response1disk,,7,8,3,1,0,0,rectangle,8,3,1,0,0,8,3,1,0,0,0,107,107,139,1,,,,,,,,
,,,,,,,,,,,,,FF,,,,,,,,0.532,,,,,,,,,,,,,,,,,,,,,,6102050090041d90dc5413f3,61036a27990ef8339d1e8cd7,2021-07-29_21h56.27.153,Simcolourproject_2stim_asymm_v5,2020.2.10,Win32,60,61025ae37ef11b136ea224fe,,,,,,,,,2197,39,65,1,0,0,response1disk,,7,7,2,1,0,0,rectangle,7,2,1,0,0,7,2,1,0,0,0,108,108,7,1,,,,,,,,
,,,,,,,,,,,,,FF,,,,,,,,0.517,,,,,,,,,,,,,,,,,,,,,,6102050090041d90dc5413f3,61036a27990ef8339d1e8cd7,2021-07-29_21h56.27.153,Simcolourproject_2stim_asymm_v5,2020.2.10,Win32,60,61025ae37ef11b136ea224fe,,,,,,,,,71,32,65,1,0,0,response1disk,,7,-10,-9,1,0,0,rectangle,-10,-9,1,0,0,-10,-9,1,0,0,0,109,109,126,1,,,,,,,,
,,,,,,,,,,,,,FF,,,,,,,,0.935,,,,,,,,,,,,,,,,,,,,,,6102050090041d90dc5413f3,61036a27990ef8339d1e8cd7,2021-07-29_21h56.27.153,Simcolourproject_2stim_asymm_v5,2020.2.10,Win32,60,61025ae37ef11b136ea224fe,,,,,,,,,632,-48,-48,1,0,0,response5disk,,3,10,-1,1,0,0,rectangle,10,-1,1,0,0,10,-1,1,0,0,0,110,110,14,1,,,,,,,,
,,,,,,,,,,,,,FF,,,,,,,,0.699,,,,,,,,,,,,,,,,,,,,,,6102050090041d90dc5413f3,61036a27990ef8339d1e8cd7,2021-07-29_21h56.27.153,Simcolourproject_2stim_asymm_v5,2020.2.10,Win32,60,61025ae37ef11b136ea224fe,,,,,,,,,851,36,94,1,0,0,response1disk,,7,-14,0,1,0,0,rectangle,-14,0,1,0,0,-14,0,1,0,0,0,111,111,110,1,,,,,,,,
,,,,,,,,,,,,,FF,,,,,,,,0.566,,,,,,,,,,,,,,,,,,,,,,6102050090041d90dc5413f3,61036a27990ef8339d1e8cd7,2021-07-29_21h56.27.153,Simcolourproject_2stim_asymm_v5,2020.2.10,Win32,60,61025ae37ef11b136ea224fe,,,,,,,,,151,42,70,1,0,0,response1disk,,7,9,-6,1,0,0,rectangle,9,-6,1,0,0,9,-6,1,0,0,0,112,112,123,1,,,,,,,,
,,,,,,,,,,,,,FF,,,,,,,,0.567,,,,,,,,,,,,,,,,,,,,,,6102050090041d90dc5413f3,61036a27990ef8339d1e8cd7,2021-07-29_21h56.27.153,Simcolourproject_2stim_asymm_v5,2020.2.10,Win32,60,61025ae37ef11b136ea224fe,,,,,,,,,200,26,51,1,0,0,response1disk,,7,4,-2,1,0,0,rectangle,4,-2,1,0,0,4,-2,1,0,0,0,113,113,153,1,,,,,,,,
,,,,,,,,,,,,,FF,,,,,,,,0.582,,,,,,,,,,,,,,,,,,,,,,6102050090041d90dc5413f3,61036a27990ef8339d1e8cd7,2021-07-29_21h56.27.153,Simcolourproject_2stim_asymm_v5,2020.2.10,Win32,60,61025ae37ef11b136ea224fe,,,,,,,,,3616,50,83,1,0,0,response1disk,,7,9,-6,1,0,0,rectangle,9,-6,1,0,0,9,-6,1,0,0,0,114,114,109,1,,,,,,,,
,,,,,,,,,,,,,FF,,,,,,,,0.684,,,,,,,,,,,,,,,,,,,,,,6102050090041d90dc5413f3,61036a27990ef8339d1e8cd7,2021-07-29_21h56.27.153,Simcolourproject_2stim_asymm_v5,2020.2.10,Win32,60,61025ae37ef11b136ea224fe,,,,,,,,,2367,-19,-52,1,0,0,response5disk,,3,6,8,1,0,0,rectangle,6,8,1,0,0,6,8,1,0,0,0,115,115,84,1,,,,,,,,
,,,,,,,,,,,,,FF,,,,,,,,0.534,,,,,,,,,,,,,,,,,,,,,,6102050090041d90dc5413f3,61036a27990ef8339d1e8cd7,2021-07-29_21h56.27.153,Simcolourproject_2stim_asymm_v5,2020.2.10,Win32,60,61025ae37ef11b136ea224fe,,,,,,,,,514,29,73,1,0,0,response1disk,,7,3,-11,1,0,0,rectangle,3,-11,1,0,0,3,-11,1,0,0,0,116,116,131,1,,,,,,,,
,,,,,,,,,,,,,FF,,,,,,,,0.732,,,,,,,,,,,,,,,,,,,,,,6102050090041d90dc5413f3,61036a27990ef8339d1e8cd7,2021-07-29_21h56.27.153,Simcolourproject_2stim_asymm_v5,2020.2.10,Win32,60,61025ae37ef11b136ea224fe,,,,,,,,,1790,54,109,1,0,0,response1disk,,7,-12,-8,1,0,0,rectangle,68,-49,1,0,0,3,5,1,0,0,0,117,117,77,1,,response3disk_3,TRUE,5,5,"[58,75,17,9,181,51,287,180,308,149,118,69,224,62,238,298,315,201,184,41]",1.548,rectangle
,,,,,,,,,,,,,FF,,,,,,,,0.917,,,,,,,,,,,,,,,,,,,,,,6102050090041d90dc5413f3,61036a27990ef8339d1e8cd7,2021-07-29_21h56.27.153,Simcolourproject_2stim_asymm_v5,2020.2.10,Win32,60,61025ae37ef11b136ea224fe,,,,,,,,,2805,73,44,1,0,0,response1disk,,6,22,8,1,0,0,rectangle,22,8,1,0,0,22,8,1,0,0,0,118,118,6,1,,,,,,,,
,,,,,,,,,,,,,FF,,,,,,,,1.132,,,,,,,,,,,,,,,,,,,,,,6102050090041d90dc5413f3,61036a27990ef8339d1e8cd7,2021-07-29_21h56.27.153,Simcolourproject_2stim_asymm_v5,2020.2.10,Win32,60,61025ae37ef11b136ea224fe,,,,,,,,,1985,46,-80,1,0,0,response3disk,,4,20,2,1,0,0,rectangle,20,2,1,0,0,20,2,1,0,0,0,119,119,137,1,,,,,,,,
,,,,,,,,,,,,,FF,,,,,,,,0.667,,,,,,,,,,,,,,,,,,,,,,6102050090041d90dc5413f3,61036a27990ef8339d1e8cd7,2021-07-29_21h56.27.153,Simcolourproject_2stim_asymm_v5,2020.2.10,Win32,60,61025ae37ef11b136ea224fe,,,,,,,,,556,33,57,1,0,0,response1disk,,7,5,-2,1,0,0,rectangle,5,-2,1,0,0,5,-2,1,0,0,0,120,120,151,1,,,,,,,,
,,,,,,,,,,,,,FF,,,,,,,,0.6,,,,,,,,,,,,,,,,,,,,,,6102050090041d90dc5413f3,61036a27990ef8339d1e8cd7,2021-07-29_21h56.27.153,Simcolourproject_2stim_asymm_v5,2020.2.10,Win32,60,61025ae37ef11b136ea224fe,,,,,,,,,3084,34,59,1,0,0,response1disk,,7,7,10,1,0,0,rectangle,7,10,1,0,0,7,10,1,0,0,0,121,121,24,1,,,,,,,,
,,,,,,,,,,,,,FF,,,,,,,,1.216,,,,,,,,,,,,,,,,,,,,,,6102050090041d90dc5413f3,61036a27990ef8339d1e8cd7,2021-07-29_21h56.27.153,Simcolourproject_2stim_asymm_v5,2020.2.10,Win32,60,61025ae37ef11b136ea224fe,,,,,,,,,2880,30,-84,1,0,0,response3disk,,4,-4,5,1,0,0,rectangle,-4,5,1,0,0,-4,5,1,0,0,0,122,122,72,1,,,,,,,,
,,,,,,,,,,,,,FF,,,,,,,,1.066,,,,,,,,,,,,,,,,,,,,,,6102050090041d90dc5413f3,61036a27990ef8339d1e8cd7,2021-07-29_21h56.27.153,Simcolourproject_2stim_asymm_v5,2020.2.10,Win32,60,61025ae37ef11b136ea224fe,,,,,,,,,112,21,45,1,0,0,response1disk,,7,-7,-8,1,0,0,rectangle,-7,-8,1,0,0,-7,-8,1,0,0,0,123,123,159,1,,,,,,,,
,,,,,,,,,,,,,FF,,,,,,,,0.583,,,,,,,,,,,,,,,,,,,,,,6102050090041d90dc5413f3,61036a27990ef8339d1e8cd7,2021-07-29_21h56.27.153,Simcolourproject_2stim_asymm_v5,2020.2.10,Win32,60,61025ae37ef11b136ea224fe,,,,,,,,,3224,27,73,1,0,0,response1disk,,7,-12,-2,1,0,0,rectangle,-12,-2,1,0,0,-12,-2,1,0,0,0,124,124,66,1,,,,,,,,
,,,,,,,,,,,,,FF,,,,,,,,0.767,,,,,,,,,,,,,,,,,,,,,,6102050090041d90dc5413f3,61036a27990ef8339d1e8cd7,2021-07-29_21h56.27.153,Simcolourproject_2stim_asymm_v5,2020.2.10,Win32,60,61025ae37ef11b136ea224fe,,,,,,,,,2979,27,42,1,0,0,response1disk,,7,-5,-1,1,0,0,rectangle,-5,-1,1,0,0,-5,-1,1,0,0,0,125,125,100,1,,,,,,,,
,,,,,,,,,,,,,FF,,,,,,,,0.831,,,,,,,,,,,,,,,,,,,,,,6102050090041d90dc5413f3,61036a27990ef8339d1e8cd7,2021-07-29_21h56.27.153,Simcolourproject_2stim_asymm_v5,2020.2.10,Win32,60,61025ae37ef11b136ea224fe,,,,,,,,,3565,26,-68,1,0,0,response3disk,,4,1,10,1,0,0,rectangle,1,10,1,0,0,1,10,1,0,0,0,126,126,45,1,,,,,,,,
,,,,,,,,,,,,,FF,,,,,,,,0.732,,,,,,,,,,,,,,,,,,,,,,6102050090041d90dc5413f3,61036a27990ef8339d1e8cd7,2021-07-29_21h56.27.153,Simcolourproject_2stim_asymm_v5,2020.2.10,Win32,60,61025ae37ef11b136ea224fe,,,,,,,,,1700,30,59,1,0,0,response1disk,,7,-16,1,1,0,0,rectangle,-16,1,1,0,0,-16,1,1,0,0,0,127,127,55,1,,,,,,,,
,,,,,,,,,,,,,FF,,,,,,,,0.516,,,,,,,,,,,,,,,,,,,,,,6102050090041d90dc5413f3,61036a27990ef8339d1e8cd7,2021-07-29_21h56.27.153,Simcolourproject_2stim_asymm_v5,2020.2.10,Win32,60,61025ae37ef11b136ea224fe,,,,,,,,,783,44,84,1,0,0,response1disk,,7,-1,10,1,0,0,rectangle,-1,10,1,0,0,-1,10,1,0,0,0,128,128,52,1,,,,,,,,
,,,,,,,,,,,,,FF,,,,,,,,1.016,,,,,,,,,,,,,,,,,,,,,,6102050090041d90dc5413f3,61036a27990ef8339d1e8cd7,2021-07-29_21h56.27.153,Simcolourproject_2stim_asymm_v5,2020.2.10,Win32,60,61025ae37ef11b136ea224fe,,,,,,,,,2806,30,48,1,0,0,response1disk,,7,-1,-3,1,0,0,rectangle,-1,-3,1,0,0,-1,-3,1,0,0,0,129,129,135,1,,,,,,,,
,,,,,,,,,,,,,FF,,,,,,,,1.416,,,,,,,,,,,,,,,,,,,,,,6102050090041d90dc5413f3,61036a27990ef8339d1e8cd7,2021-07-29_21h56.27.153,Simcolourproject_2stim_asymm_v5,2020.2.10,Win32,60,61025ae37ef11b136ea224fe,,,,,,,,,3104,-81,-43,1,0,0,response5disk,,2,1,0,1,0,0,rectangle,1,0,1,0,0,1,0,1,0,0,0,130,130,80,1,,,,,,,,
,,,,,,,,,,,,,FF,,,,,,,,1.047,,,,,,,,,,,,,,,,,,,,,,6102050090041d90dc5413f3,61036a27990ef8339d1e8cd7,2021-07-29_21h56.27.153,Simcolourproject_2stim_asymm_v5,2020.2.10,Win32,60,61025ae37ef11b136ea224fe,,,,,,,,,3233,42,95,1,0,0,response1disk,,7,11,1,1,0,0,rectangle,11,1,1,0,0,11,1,1,0,0,0,131,131,78,1,,,,,,,,
,,,,,,,,,,,,,FF,,,,,,,,0.883,,,,,,,,,,,,,,,,,,,,,,6102050090041d90dc5413f3,61036a27990ef8339d1e8cd7,2021-07-29_21h56.27.153,Simcolourproject_2stim_asymm_v5,2020.2.10,Win32,60,61025ae37ef11b136ea224fe,,,,,,,,,2041,30,-66,1,0,0,response3disk,,4,1,6,1,0,0,rectangle,1,6,1,0,0,1,6,1,0,0,0,132,132,130,1,,,,,,,,
,,,,,,,,,,,,,FF,,,,,,,,0.55,,,,,,,,,,,,,,,,,,,,,,6102050090041d90dc5413f3,61036a27990ef8339d1e8cd7,2021-07-29_21h56.27.153,Simcolourproject_2stim_asymm_v5,2020.2.10,Win32,60,61025ae37ef11b136ea224fe,,,,,,,,,3175,39,76,1,0,0,response1disk,,7,-3,-14,1,0,0,rectangle,-3,-14,1,0,0,-3,-14,1,0,0,0,133,133,47,1,,,,,,,,
,,,,,,,,,,,,,FF,,,,,,,,0.448,,,,,,,,,,,,,,,,,,,,,,6102050090041d90dc5413f3,61036a27990ef8339d1e8cd7,2021-07-29_21h56.27.153,Simcolourproject_2stim_asymm_v5,2020.2.10,Win32,60,61025ae37ef11b136ea224fe,,,,,,,,,3077,47,94,1,0,0,response1disk,,7,1,-1,1,0,0,rectangle,1,-1,1,0,0,1,-1,1,0,0,0,134,134,0,1,,,,,,,,
,,,,,,,,,,,,,FF,,,,,,,,0.716,,,,,,,,,,,,,,,,,,,,,,6102050090041d90dc5413f3,61036a27990ef8339d1e8cd7,2021-07-29_21h56.27.153,Simcolourproject_2stim_asymm_v5,2020.2.10,Win32,60,61025ae37ef11b136ea224fe,,,,,,,,,2588,35,79,1,0,0,response1disk,,7,3,4,1,0,0,rectangle,3,4,1,0,0,3,4,1,0,0,0,135,135,152,1,,,,,,,,
,,,,,,,,,,,,,FF,,,,,,,,1.465,,,,,,,,,,,,,,,,,,,,,,6102050090041d90dc5413f3,61036a27990ef8339d1e8cd7,2021-07-29_21h56.27.153,Simcolourproject_2stim_asymm_v5,2020.2.10,Win32,60,61025ae37ef11b136ea224fe,,,,,,,,,1063,-89,-50,1,0,0,response5disk,,2,19,14,1,0,0,rectangle,19,14,1,0,0,19,14,1,0,0,0,136,136,40,1,,,,,,,,
,,,,,,,,,,,,,FF,,,,,,,,1.233,,,,,,,,,,,,,,,,,,,,,,6102050090041d90dc5413f3,61036a27990ef8339d1e8cd7,2021-07-29_21h56.27.153,Simcolourproject_2stim_asymm_v5,2020.2.10,Win32,60,61025ae37ef11b136ea224fe,,,,,,,,,297,87,35,1,0,0,response1disk,,6,16,-1,1,0,0,rectangle,16,-1,1,0,0,16,-1,1,0,0,0,137,137,69,1,,,,,,,,
,,,,,,,,,,,,,FF,,,,,,,,0.767,,,,,,,,,,,,,,,,,,,,,,6102050090041d90dc5413f3,61036a27990ef8339d1e8cd7,2021-07-29_21h56.27.153,Simcolourproject_2stim_asymm_v5,2020.2.10,Win32,60,61025ae37ef11b136ea224fe,,,,,,,,,2865,33,66,1,0,0,response1disk,,7,-6,3,1,0,0,rectangle,-6,3,1,0,0,-6,3,1,0,0,0,138,138,27,1,,,,,,,,
,,,,,,,,,,,,,FF,,,,,,,,1.149,,,,,,,,,,,,,,,,,,,,,,6102050090041d90dc5413f3,61036a27990ef8339d1e8cd7,2021-07-29_21h56.27.153,Simcolourproject_2stim_asymm_v5,2020.2.10,Win32,60,61025ae37ef11b136ea224fe,,,,,,,,,3678,36,-68,1,0,0,response3disk,,4,9,10,1,0,0,rectangle,9,10,1,0,0,9,10,1,0,0,0,139,139,19,1,,,,,,,,
,,,,,,,,,,,,,FF,,,,,,,,0.599,,,,,,,,,,,,,,,,,,,,,,6102050090041d90dc5413f3,61036a27990ef8339d1e8cd7,2021-07-29_21h56.27.153,Simcolourproject_2stim_asymm_v5,2020.2.10,Win32,60,61025ae37ef11b136ea224fe,,,,,,,,,2049,34,72,1,0,0,response1disk,,7,-7,-13,1,0,0,rectangle,-7,-13,1,0,0,-7,-13,1,0,0,0,140,140,145,1,,,,,,,,
,,,,,,,,,,,,,FF,,,,,,,,1.982,,,,,,,,,,,,,,,,,,,,,,6102050090041d90dc5413f3,61036a27990ef8339d1e8cd7,2021-07-29_21h56.27.153,Simcolourproject_2stim_asymm_v5,2020.2.10,Win32,60,61025ae37ef11b136ea224fe,,,,,,,,,1294,-44,-90,1,0,0,response5disk,,3,19,12,1,0,0,rectangle,19,12,1,0,0,19,12,1,0,0,0,141,141,121,1,,,,,,,,
,,,,,,,,,,,,,FF,,,,,,,,0.783,,,,,,,,,,,,,,,,,,,,,,6102050090041d90dc5413f3,61036a27990ef8339d1e8cd7,2021-07-29_21h56.27.153,Simcolourproject_2stim_asymm_v5,2020.2.10,Win32,60,61025ae37ef11b136ea224fe,,,,,,,,,623,43,-80,1,0,0,response3disk,,4,13,-10,1,0,0,rectangle,13,-10,1,0,0,13,-10,1,0,0,0,142,142,140,1,,,,,,,,
,,,,,,,,,,,,,FF,,,,,,,,1.018,,,,,,,,,,,,,,,,,,,,,,6102050090041d90dc5413f3,61036a27990ef8339d1e8cd7,2021-07-29_21h56.27.153,Simcolourproject_2stim_asymm_v5,2020.2.10,Win32,60,61025ae37ef11b136ea224fe,,,,,,,,,3320,88,58,1,0,0,response1disk,,6,6,6,1,0,0,rectangle,6,6,1,0,0,6,6,1,0,0,0,143,143,141,1,,,,,,,,
,,,,,,,,,,,,,FF,,,,,,,,1.283,,,,,,,,,,,,,,,,,,,,,,6102050090041d90dc5413f3,61036a27990ef8339d1e8cd7,2021-07-29_21h56.27.153,Simcolourproject_2stim_asymm_v5,2020.2.10,Win32,60,61025ae37ef11b136ea224fe,,,,,,,,,2129,84,-56,1,0,0,response3disk,,5,3,8,1,0,0,rectangle,3,8,1,0,0,3,8,1,0,0,0,144,144,128,1,,,,,,,,
,,,,,,,,,,,,,FF,,,,,,,,0.983,,,,,,,,,,,,,,,,,,,,,,6102050090041d90dc5413f3,61036a27990ef8339d1e8cd7,2021-07-29_21h56.27.153,Simcolourproject_2stim_asymm_v5,2020.2.10,Win32,60,61025ae37ef11b136ea224fe,,,,,,,,,744,89,-62,1,0,0,response3disk,,5,19,-1,1,0,0,rectangle,19,-1,1,0,0,19,-1,1,0,0,0,145,145,111,1,,,,,,,,
,,,,,,,,,,,,,FF,,,,,,,,0.799,,,,,,,,,,,,,,,,,,,,,,6102050090041d90dc5413f3,61036a27990ef8339d1e8cd7,2021-07-29_21h56.27.153,Simcolourproject_2stim_asymm_v5,2020.2.10,Win32,60,61025ae37ef11b136ea224fe,,,,,,,,,2803,36,94,1,0,0,response1disk,,7,-8,1,1,0,0,rectangle,-8,1,1,0,0,-8,1,1,0,0,0,146,146,74,1,,,,,,,,
,,,,,,,,,,,,,FF,,,,,,,,0.932,,,,,,,,,,,,,,,,,,,,,,6102050090041d90dc5413f3,61036a27990ef8339d1e8cd7,2021-07-29_21h56.27.153,Simcolourproject_2stim_asymm_v5,2020.2.10,Win32,60,61025ae37ef11b136ea224fe,,,,,,,,,228,26,60,1,0,0,response1disk,,7,-19,-15,1,0,0,rectangle,-19,-15,1,0,0,-19,-15,1,0,0,0,147,147,156,1,,,,,,,,
,,,,,,,,,,,,,FF,,,,,,,,1.315,,,,,,,,,,,,,,,,,,,,,,6102050090041d90dc5413f3,61036a27990ef8339d1e8cd7,2021-07-29_21h56.27.153,Simcolourproject_2stim_asymm_v5,2020.2.10,Win32,60,61025ae37ef11b136ea224fe,,,,,,,,,4147,49,-56,1,0,0,response3disk,,4,-6,13,1,0,0,rectangle,66,-27,1,0,0,12,9,1,0,0,0,148,148,117,1,,response3disk_3,TRUE,5,5,"[58,75,17,9,181,51,287,180,308,149,118,69,224,62,238,298,315,201,184,41]",1.198,rectangle
,,,,,,,,,,,,,FF,,,,,,,,0.833,,,,,,,,,,,,,,,,,,,,,,6102050090041d90dc5413f3,61036a27990ef8339d1e8cd7,2021-07-29_21h56.27.153,Simcolourproject_2stim_asymm_v5,2020.2.10,Win32,60,61025ae37ef11b136ea224fe,,,,,,,,,2540,27,74,1,0,0,response1disk,,7,-16,5,1,0,0,rectangle,-16,5,1,0,0,-16,5,1,0,0,0,149,149,54,1,,,,,,,,
,,,,,,,,,,,,,FF,,,,,,,,2.098,,,,,,,,,,,,,,,,,,,,,,6102050090041d90dc5413f3,61036a27990ef8339d1e8cd7,2021-07-29_21h56.27.153,Simcolourproject_2stim_asymm_v5,2020.2.10,Win32,60,61025ae37ef11b136ea224fe,,,,,,,,,3593,92,27,1,0,0,response1disk,,6,19,14,1,0,0,rectangle,19,14,1,0,0,19,14,1,0,0,0,150,150,94,1,,,,,,,,
,,,,,,,,,,,,,FF,,,,,,,,1.366,,,,,,,,,,,,,,,,,,,,,,6102050090041d90dc5413f3,61036a27990ef8339d1e8cd7,2021-07-29_21h56.27.153,Simcolourproject_2stim_asymm_v5,2020.2.10,Win32,60,61025ae37ef11b136ea224fe,,,,,,,,,1509,90,52,1,0,0,response1disk,,6,3,-9,1,0,0,rectangle,3,-9,1,0,0,3,-9,1,0,0,0,151,151,82,1,,,,,,,,
,,,,,,,,,,,,,FF,,,,,,,,0.567,,,,,,,,,,,,,,,,,,,,,,6102050090041d90dc5413f3,61036a27990ef8339d1e8cd7,2021-07-29_21h56.27.153,Simcolourproject_2stim_asymm_v5,2020.2.10,Win32,60,61025ae37ef11b136ea224fe,,,,,,,,,2521,68,47,1,0,0,response1disk,,6,17,2,1,0,0,rectangle,17,2,1,0,0,17,2,1,0,0,0,152,152,4,1,,,,,,,,
,,,,,,,,,,,,,FF,,,,,,,,0.636,,,,,,,,,,,,,,,,,,,,,,6102050090041d90dc5413f3,61036a27990ef8339d1e8cd7,2021-07-29_21h56.27.153,Simcolourproject_2stim_asymm_v5,2020.2.10,Win32,60,61025ae37ef11b136ea224fe,,,,,,,,,32,73,32,1,0,0,response1disk,,6,-17,5,1,0,0,rectangle,-17,5,1,0,0,-17,5,1,0,0,0,153,153,87,1,,,,,,,,
,,,,,,,,,,,,,FF,,,,,,,,1.998,,,,,,,,,,,,,,,,,,,,,,6102050090041d90dc5413f3,61036a27990ef8339d1e8cd7,2021-07-29_21h56.27.153,Simcolourproject_2stim_asymm_v5,2020.2.10,Win32,60,61025ae37ef11b136ea224fe,,,,,,,,,3343,-69,41,1,0,0,response7disk,,1,-6,5,1,0,0,rectangle,-6,5,1,0,0,-6,5,1,0,0,0,154,154,39,1,,,,,,,,
,,,,,,,,,,,,,FF,,,,,,,,1.698,,,,,,,,,,,,,,,,,,,,,,6102050090041d90dc5413f3,61036a27990ef8339d1e8cd7,2021-07-29_21h56.27.153,Simcolourproject_2stim_asymm_v5,2020.2.10,Win32,60,61025ae37ef11b136ea224fe,,,,,,,,,1099,-37,-83,1,0,0,response5disk,,3,7,7,1,0,0,rectangle,7,7,1,0,0,7,7,1,0,0,0,155,155,22,1,,,,,,,,
,,,,,,,,,,,,,FF,,,,,,,,1.199,,,,,,,,,,,,,,,,,,,,,,6102050090041d90dc5413f3,61036a27990ef8339d1e8cd7,2021-07-29_21h56.27.153,Simcolourproject_2stim_asymm_v5,2020.2.10,Win32,60,61025ae37ef11b136ea224fe,,,,,,,,,2033,-62,43,1,0,0,response7disk,,1,-6,-9,1,0,0,rectangle,-6,-9,1,0,0,-6,-9,1,0,0,0,156,156,44,1,,,,,,,,
,,,,,,,,,,,,,FF,,,,,,,,1.531,,,,,,,,,,,,,,,,,,,,,,6102050090041d90dc5413f3,61036a27990ef8339d1e8cd7,2021-07-29_21h56.27.153,Simcolourproject_2stim_asymm_v5,2020.2.10,Win32,60,61025ae37ef11b136ea224fe,,,,,,,,,1026,-45,-76,1,0,0,response5disk,,3,17,11,1,0,0,rectangle,17,11,1,0,0,17,11,1,0,0,0,157,157,25,1,,,,,,,,
,,,,,,,,,,,,,FF,,,,,,,,0.933,,,,,,,,,,,,,,,,,,,,,,6102050090041d90dc5413f3,61036a27990ef8339d1e8cd7,2021-07-29_21h56.27.153,Simcolourproject_2stim_asymm_v5,2020.2.10,Win32,60,61025ae37ef11b136ea224fe,,,,,,,,,2571,20,41,1,0,0,response1disk,,7,-6,-8,1,0,0,rectangle,-6,-8,1,0,0,-6,-8,1,0,0,0,158,158,20,1,,,,,,,,
,,,,,,,,,,,,,FF,,,,,,,,0.749,,,,,,,,,,,,,,,,,,,,,,6102050090041d90dc5413f3,61036a27990ef8339d1e8cd7,2021-07-29_21h56.27.153,Simcolourproject_2stim_asymm_v5,2020.2.10,Win32,60,61025ae37ef11b136ea224fe,,,,,,,,,96,22,-66,1,0,0,response3disk,,4,10,-1,1,0,0,rectangle,10,-1,1,0,0,10,-1,1,0,0,0,159,159,101,1,,,,,,,,
,,,,,,,,,,,,,FF,,,,,,,,0.883,,,,,,,,,,,,,,,,,,,,,,6102050090041d90dc5413f3,61036a27990ef8339d1e8cd7,2021-07-29_21h56.27.153,Simcolourproject_2stim_asymm_v5,2020.2.10,Win32,60,61025ae37ef11b136ea224fe,,,,,,,,,3767,65,45,1,0,0,response1disk,,6,-7,-1,1,0,0,rectangle,-7,-1,1,0,0,-7,-1,1,0,0,1,0,160,56,1,,,,,,,,
,,,,,,,,,,,,,FF,,,,,,,,1.199,,,,,,,,,,,,,,,,,,,,,,6102050090041d90dc5413f3,61036a27990ef8339d1e8cd7,2021-07-29_21h56.27.153,Simcolourproject_2stim_asymm_v5,2020.2.10,Win32,60,61025ae37ef11b136ea224fe,,,,,,,,,1245,73,35,1,0,0,response1disk,,6,6,2,1,0,0,rectangle,6,2,1,0,0,6,2,1,0,0,1,1,161,150,1,,,,,,,,
,,,,,,,,,,,,,FF,,,,,,,,1.065,,,,,,,,,,,,,,,,,,,,,,6102050090041d90dc5413f3,61036a27990ef8339d1e8cd7,2021-07-29_21h56.27.153,Simcolourproject_2stim_asymm_v5,2020.2.10,Win32,60,61025ae37ef11b136ea224fe,,,,,,,,,2675,67,-45,1,0,0,response3disk,,5,-11,8,1,0,0,rectangle,-11,8,1,0,0,-11,8,1,0,0,1,2,162,7,1,,,,,,,,
,,,,,,,,,,,,,FF,,,,,,,,0.615,,,,,,,,,,,,,,,,,,,,,,6102050090041d90dc5413f3,61036a27990ef8339d1e8cd7,2021-07-29_21h56.27.153,Simcolourproject_2stim_asymm_v5,2020.2.10,Win32,60,61025ae37ef11b136ea224fe,,,,,,,,,2264,56,81,1,0,0,response1disk,,7,-1,-1,1,0,0,rectangle,-1,-1,1,0,0,-1,-1,1,0,0,1,3,163,121,1,,,,,,,,
,,,,,,,,,,,,,FF,,,,,,,,1.083,,,,,,,,,,,,,,,,,,,,,,6102050090041d90dc5413f3,61036a27990ef8339d1e8cd7,2021-07-29_21h56.27.153,Simcolourproject_2stim_asymm_v5,2020.2.10,Win32,60,61025ae37ef11b136ea224fe,,,,,,,,,394,72,32,1,0,0,response1disk,,6,-8,6,1,0,0,rectangle,-8,6,1,0,0,-8,6,1,0,0,1,4,164,109,1,,,,,,,,
,,,,,,,,,,,,,FF,,,,,,,,0.782,,,,,,,,,,,,,,,,,,,,,,6102050090041d90dc5413f3,61036a27990ef8339d1e8cd7,2021-07-29_21h56.27.153,Simcolourproject_2stim_asymm_v5,2020.2.10,Win32,60,61025ae37ef11b136ea224fe,,,,,,,,,2112,71,-35,1,0,0,response3disk,,5,2,1,1,0,0,rectangle,2,1,1,0,0,2,1,1,0,0,1,5,165,6,1,,,,,,,,
,,,,,,,,,,,,,FF,,,,,,,,0.716,,,,,,,,,,,,,,,,,,,,,,6102050090041d90dc5413f3,61036a27990ef8339d1e8cd7,2021-07-29_21h56.27.153,Simcolourproject_2stim_asymm_v5,2020.2.10,Win32,60,61025ae37ef11b136ea224fe,,,,,,,,,1117,46,21,1,0,0,response1disk,,6,-9,3,1,0,0,rectangle,-9,3,1,0,0,-9,3,1,0,0,1,6,166,12,1,,,,,,,,
,,,,,,,,,,,,,FF,,,,,,,,0.75,,,,,,,,,,,,,,,,,,,,,,6102050090041d90dc5413f3,61036a27990ef8339d1e8cd7,2021-07-29_21h56.27.153,Simcolourproject_2stim_asymm_v5,2020.2.10,Win32,60,61025ae37ef11b136ea224fe,,,,,,,,,771,50,74,1,0,0,response1disk,,7,9,11,1,0,0,rectangle,9,11,1,0,0,9,11,1,0,0,1,7,167,95,1,,,,,,,,
,,,,,,,,,,,,,FF,,,,,,,,1.432,,,,,,,,,,,,,,,,,,,,,,6102050090041d90dc5413f3,61036a27990ef8339d1e8cd7,2021-07-29_21h56.27.153,Simcolourproject_2stim_asymm_v5,2020.2.10,Win32,60,61025ae37ef11b136ea224fe,,,,,,,,,2174,-57,32,1,0,0,response7disk,,1,-15,1,1,0,0,rectangle,-15,1,1,0,0,-15,1,1,0,0,1,8,168,11,1,,,,,,,,
,,,,,,,,,,,,,FF,,,,,,,,1.511,,,,,,,,,,,,,,,,,,,,,,6102050090041d90dc5413f3,61036a27990ef8339d1e8cd7,2021-07-29_21h56.27.153,Simcolourproject_2stim_asymm_v5,2020.2.10,Win32,60,61025ae37ef11b136ea224fe,,,,,,,,,3306,65,46,1,0,0,response1disk,,6,-8,2,1,0,0,rectangle,-8,2,1,0,0,-8,2,1,0,0,1,9,169,103,1,,,,,,,,
,,,,,,,,,,,,,FF,,,,,,,,1.115,,,,,,,,,,,,,,,,,,,,,,6102050090041d90dc5413f3,61036a27990ef8339d1e8cd7,2021-07-29_21h56.27.153,Simcolourproject_2stim_asymm_v5,2020.2.10,Win32,60,61025ae37ef11b136ea224fe,,,,,,,,,4034,41,-69,1,0,0,response3disk,,4,0,2,1,0,0,rectangle,0,2,1,0,0,0,2,1,0,0,1,10,170,93,1,,,,,,,,
,,,,,,,,,,,,,FF,,,,,,,,0.916,,,,,,,,,,,,,,,,,,,,,,6102050090041d90dc5413f3,61036a27990ef8339d1e8cd7,2021-07-29_21h56.27.153,Simcolourproject_2stim_asymm_v5,2020.2.10,Win32,60,61025ae37ef11b136ea224fe,,,,,,,,,1649,45,67,1,0,0,response1disk,,7,-6,6,1,0,0,rectangle,-6,6,1,0,0,-6,6,1,0,0,1,11,171,8,1,,,,,,,,
,,,,,,,,,,,,,FF,,,,,,,,1.083,,,,,,,,,,,,,,,,,,,,,,6102050090041d90dc5413f3,61036a27990ef8339d1e8cd7,2021-07-29_21h56.27.153,Simcolourproject_2stim_asymm_v5,2020.2.10,Win32,60,61025ae37ef11b136ea224fe,,,,,,,,,1696,107,31,1,0,0,response1disk,,6,-4,-2,1,0,0,rectangle,-4,-2,1,0,0,-4,-2,1,0,0,1,12,172,58,1,,,,,,,,
,,,,,,,,,,,,,FF,,,,,,,,0.931,,,,,,,,,,,,,,,,,,,,,,6102050090041d90dc5413f3,61036a27990ef8339d1e8cd7,2021-07-29_21h56.27.153,Simcolourproject_2stim_asymm_v5,2020.2.10,Win32,60,61025ae37ef11b136ea224fe,,,,,,,,,2515,74,43,1,0,0,response1disk,,6,2,14,1,0,0,rectangle,2,14,1,0,0,2,14,1,0,0,1,13,173,9,1,,,,,,,,
,,,,,,,,,,,,,FF,,,,,,,,0.767,,,,,,,,,,,,,,,,,,,,,,6102050090041d90dc5413f3,61036a27990ef8339d1e8cd7,2021-07-29_21h56.27.153,Simcolourproject_2stim_asymm_v5,2020.2.10,Win32,60,61025ae37ef11b136ea224fe,,,,,,,,,696,62,104,1,0,0,response1disk,,7,3,11,1,0,0,rectangle,3,11,1,0,0,3,11,1,0,0,1,14,174,146,1,,,,,,,,
,,,,,,,,,,,,,FF,,,,,,,,0.534,,,,,,,,,,,,,,,,,,,,,,6102050090041d90dc5413f3,61036a27990ef8339d1e8cd7,2021-07-29_21h56.27.153,Simcolourproject_2stim_asymm_v5,2020.2.10,Win32,60,61025ae37ef11b136ea224fe,,,,,,,,,3016,29,69,1,0,0,response1disk,,7,-6,4,1,0,0,rectangle,-6,4,1,0,0,-6,4,1,0,0,1,15,175,21,1,,,,,,,,
,,,,,,,,,,,,,FF,,,,,,,,1.066,,,,,,,,,,,,,,,,,,,,,,6102050090041d90dc5413f3,61036a27990ef8339d1e8cd7,2021-07-29_21h56.27.153,Simcolourproject_2stim_asymm_v5,2020.2.10,Win32,60,61025ae37ef11b136ea224fe,,,,,,,,,3393,73,-33,1,0,0,response3disk,,5,5,-2,1,0,0,rectangle,5,-2,1,0,0,5,-2,1,0,0,1,16,176,128,1,,,,,,,,
,,,,,,,,,,,,,FF,,,,,,,,1.066,,,,,,,,,,,,,,,,,,,,,,6102050090041d90dc5413f3,61036a27990ef8339d1e8cd7,2021-07-29_21h56.27.153,Simcolourproject_2stim_asymm_v5,2020.2.10,Win32,60,61025ae37ef11b136ea224fe,,,,,,,,,1007,65,39,1,0,0,response1disk,,6,-1,2,1,0,0,rectangle,-1,2,1,0,0,-1,2,1,0,0,1,17,177,75,1,,,,,,,,
,,,,,,,,,,,,,FF,,,,,,,,0.683,,,,,,,,,,,,,,,,,,,,,,6102050090041d90dc5413f3,61036a27990ef8339d1e8cd7,2021-07-29_21h56.27.153,Simcolourproject_2stim_asymm_v5,2020.2.10,Win32,60,61025ae37ef11b136ea224fe,,,,,,,,,3941,20,53,1,0,0,response1disk,,7,-3,-2,1,0,0,rectangle,-3,-2,1,0,0,-3,-2,1,0,0,1,18,178,1,1,,,,,,,,
,,,,,,,,,,,,,FF,,,,,,,,1.383,,,,,,,,,,,,,,,,,,,,,,6102050090041d90dc5413f3,61036a27990ef8339d1e8cd7,2021-07-29_21h56.27.153,Simcolourproject_2stim_asymm_v5,2020.2.10,Win32,60,61025ae37ef11b136ea224fe,,,,,,,,,3922,73,53,1,0,0,response1disk,,6,5,14,1,0,0,rectangle,-81,-44,1,0,0,-2,9,1,0,0,1,19,179,13,1,,response5disk_3,TRUE,2,2,"[58,75,17,9,181,51,287,180,308,149,118,69,224,62,238,298,315,201,184,41]",1.498,rectangle
,,,,,,,,,,,,,FF,,,,,,,,0.983,,,,,,,,,,,,,,,,,,,,,,6102050090041d90dc5413f3,61036a27990ef8339d1e8cd7,2021-07-29_21h56.27.153,Simcolourproject_2stim_asymm_v5,2020.2.10,Win32,60,61025ae37ef11b136ea224fe,,,,,,,,,2951,-38,-66,1,0,0,response5disk,,3,-8,8,1,0,0,rectangle,-84,33,1,0,0,-30,11,1,0,0,1,20,180,66,1,,response7disk_3,TRUE,1,1,"[58,75,17,9,181,51,287,180,308,149,118,69,224,62,238,298,315,201,184,41]",1.814,rectangle
,,,,,,,,,,,,,FF,,,,,,,,1.514,,,,,,,,,,,,,,,,,,,,,,6102050090041d90dc5413f3,61036a27990ef8339d1e8cd7,2021-07-29_21h56.27.153,Simcolourproject_2stim_asymm_v5,2020.2.10,Win32,60,61025ae37ef11b136ea224fe,,,,,,,,,2674,89,-42,1,0,0,response3disk,,5,9,-1,1,0,0,rectangle,9,-1,1,0,0,9,-1,1,0,0,1,21,181,122,1,,,,,,,,
,,,,,,,,,,,,,FF,,,,,,,,2.214,,,,,,,,,,,,,,,,,,,,,,6102050090041d90dc5413f3,61036a27990ef8339d1e8cd7,2021-07-29_21h56.27.153,Simcolourproject_2stim_asymm_v5,2020.2.10,Win32,60,61025ae37ef11b136ea224fe,,,,,,,,,1597,54,19,1,0,0,response1disk,,6,-17,-4,1,0,0,rectangle,-17,-4,1,0,0,-17,-4,1,0,0,1,22,182,139,1,,,,,,,,
,,,,,,,,,,,,,FF,,,,,,,,0.866,,,,,,,,,,,,,,,,,,,,,,6102050090041d90dc5413f3,61036a27990ef8339d1e8cd7,2021-07-29_21h56.27.153,Simcolourproject_2stim_asymm_v5,2020.2.10,Win32,60,61025ae37ef11b136ea224fe,,,,,,,,,2743,55,30,1,0,0,response1disk,,6,20,8,1,0,0,rectangle,93,41,1,0,0,-9,2,1,0,0,1,23,183,49,1,,response1disk_3,TRUE,6,6,"[58,75,17,9,181,51,287,180,308,149,118,69,224,62,238,298,315,201,184,41]",1.448,rectangle
,,,,,,,,,,,,,FF,,,,,,,,0.867,,,,,,,,,,,,,,,,,,,,,,6102050090041d90dc5413f3,61036a27990ef8339d1e8cd7,2021-07-29_21h56.27.153,Simcolourproject_2stim_asymm_v5,2020.2.10,Win32,60,61025ae37ef11b136ea224fe,,,,,,,,,795,99,35,1,0,0,response1disk,,6,14,-2,1,0,0,rectangle,14,-2,1,0,0,14,-2,1,0,0,1,24,184,48,1,,,,,,,,
,,,,,,,,,,,,,FF,,,,,,,,0.766,,,,,,,,,,,,,,,,,,,,,,6102050090041d90dc5413f3,61036a27990ef8339d1e8cd7,2021-07-29_21h56.27.153,Simcolourproject_2stim_asymm_v5,2020.2.10,Win32,60,61025ae37ef11b136ea224fe,,,,,,,,,1617,-42,-74,1,0,0,response5disk,,3,-9,-3,1,0,0,rectangle,-9,-3,1,0,0,-9,-3,1,0,0,1,25,185,115,1,,,,,,,,
,,,,,,,,,,,,,FF,,,,,,,,1.032,,,,,,,,,,,,,,,,,,,,,,6102050090041d90dc5413f3,61036a27990ef8339d1e8cd7,2021-07-29_21h56.27.153,Simcolourproject_2stim_asymm_v5,2020.2.10,Win32,60,61025ae37ef11b136ea224fe,,,,,,,,,858,75,48,1,0,0,response1disk,,6,7,-2,1,0,0,rectangle,7,-2,1,0,0,7,-2,1,0,0,1,26,186,130,1,,,,,,,,
,,,,,,,,,,,,,FF,,,,,,,,0.5,,,,,,,,,,,,,,,,,,,,,,6102050090041d90dc5413f3,61036a27990ef8339d1e8cd7,2021-07-29_21h56.27.153,Simcolourproject_2stim_asymm_v5,2020.2.10,Win32,60,61025ae37ef11b136ea224fe,,,,,,,,,694,31,59,1,0,0,response1disk,,7,-14,-10,1,0,0,rectangle,-14,-10,1,0,0,-14,-10,1,0,0,1,27,187,119,1,,,,,,,,
,,,,,,,,,,,,,FF,,,,,,,,0.483,,,,,,,,,,,,,,,,,,,,,,6102050090041d90dc5413f3,61036a27990ef8339d1e8cd7,2021-07-29_21h56.27.153,Simcolourproject_2stim_asymm_v5,2020.2.10,Win32,60,61025ae37ef11b136ea224fe,,,,,,,,,1849,53,85,1,0,0,response1disk,,7,3,12,1,0,0,rectangle,3,12,1,0,0,3,12,1,0,0,1,28,188,133,1,,,,,,,,
,,,,,,,,,,,,,FF,,,,,,,,0.726,,,,,,,,,,,,,,,,,,,,,,6102050090041d90dc5413f3,61036a27990ef8339d1e8cd7,2021-07-29_21h56.27.153,Simcolourproject_2stim_asymm_v5,2020.2.10,Win32,60,61025ae37ef11b136ea224fe,,,,,,,,,909,40,-65,1,0,0,response3disk,,4,8,-14,1,0,0,rectangle,8,-14,1,0,0,8,-14,1,0,0,1,29,189,89,1,,,,,,,,
,,,,,,,,,,,,,FF,,,,,,,,1.048,,,,,,,,,,,,,,,,,,,,,,6102050090041d90dc5413f3,61036a27990ef8339d1e8cd7,2021-07-29_21h56.27.153,Simcolourproject_2stim_asymm_v5,2020.2.10,Win32,60,61025ae37ef11b136ea224fe,,,,,,,,,1378,-51,-76,1,0,0,response5disk,,3,4,10,1,0,0,rectangle,4,10,1,0,0,4,10,1,0,0,1,30,190,83,1,,,,,,,,
,,,,,,,,,,,,,FF,,,,,,,,0.699,,,,,,,,,,,,,,,,,,,,,,6102050090041d90dc5413f3,61036a27990ef8339d1e8cd7,2021-07-29_21h56.27.153,Simcolourproject_2stim_asymm_v5,2020.2.10,Win32,60,61025ae37ef11b136ea224fe,,,,,,,,,3953,24,56,1,0,0,response1disk,,7,1,4,1,0,0,rectangle,1,4,1,0,0,1,4,1,0,0,1,31,191,0,1,,,,,,,,
,,,,,,,,,,,,,FF,,,,,,,,0.899,,,,,,,,,,,,,,,,,,,,,,6102050090041d90dc5413f3,61036a27990ef8339d1e8cd7,2021-07-29_21h56.27.153,Simcolourproject_2stim_asymm_v5,2020.2.10,Win32,60,61025ae37ef11b136ea224fe,,,,,,,,,2095,56,-27,1,0,0,response3disk,,5,2,2,1,0,0,rectangle,2,2,1,0,0,2,2,1,0,0,1,32,192,47,1,,,,,,,,
,,,,,,,,,,,,,FF,,,,,,,,0.866,,,,,,,,,,,,,,,,,,,,,,6102050090041d90dc5413f3,61036a27990ef8339d1e8cd7,2021-07-29_21h56.27.153,Simcolourproject_2stim_asymm_v5,2020.2.10,Win32,60,61025ae37ef11b136ea224fe,,,,,,,,,4283,43,102,1,0,0,response1disk,,7,-10,1,1,0,0,rectangle,-10,1,1,0,0,-10,1,1,0,0,1,33,193,107,1,,,,,,,,
,,,,,,,,,,,,,FF,,,,,,,,0.949,,,,,,,,,,,,,,,,,,,,,,6102050090041d90dc5413f3,61036a27990ef8339d1e8cd7,2021-07-29_21h56.27.153,Simcolourproject_2stim_asymm_v5,2020.2.10,Win32,60,61025ae37ef11b136ea224fe,,,,,,,,,719,-57,-114,1,0,0,response5disk,,3,10,15,1,0,0,rectangle,10,15,1,0,0,10,15,1,0,0,1,34,194,124,1,,,,,,,,
,,,,,,,,,,,,,FF,,,,,,,,1.283,,,,,,,,,,,,,,,,,,,,,,6102050090041d90dc5413f3,61036a27990ef8339d1e8cd7,2021-07-29_21h56.27.153,Simcolourproject_2stim_asymm_v5,2020.2.10,Win32,60,61025ae37ef11b136ea224fe,,,,,,,,,2490,80,-25,1,0,0,response3disk,,5,10,14,1,0,0,rectangle,10,14,1,0,0,10,14,1,0,0,1,35,195,79,1,,,,,,,,
,,,,,,,,,,,,,FF,,,,,,,,1.149,,,,,,,,,,,,,,,,,,,,,,6102050090041d90dc5413f3,61036a27990ef8339d1e8cd7,2021-07-29_21h56.27.153,Simcolourproject_2stim_asymm_v5,2020.2.10,Win32,60,61025ae37ef11b136ea224fe,,,,,,,,,3386,93,-43,1,0,0,response3disk,,5,-20,3,1,0,0,rectangle,-20,3,1,0,0,-20,3,1,0,0,1,36,196,51,1,,,,,,,,
,,,,,,,,,,,,,FF,,,,,,,,0.9,,,,,,,,,,,,,,,,,,,,,,6102050090041d90dc5413f3,61036a27990ef8339d1e8cd7,2021-07-29_21h56.27.153,Simcolourproject_2stim_asymm_v5,2020.2.10,Win32,60,61025ae37ef11b136ea224fe,,,,,,,,,671,87,37,1,0,0,response1disk,,6,-5,-4,1,0,0,rectangle,-5,-4,1,0,0,-5,-4,1,0,0,1,37,197,32,1,,,,,,,,
,,,,,,,,,,,,,FF,,,,,,,,1.582,,,,,,,,,,,,,,,,,,,,,,6102050090041d90dc5413f3,61036a27990ef8339d1e8cd7,2021-07-29_21h56.27.153,Simcolourproject_2stim_asymm_v5,2020.2.10,Win32,60,61025ae37ef11b136ea224fe,,,,,,,,,54,29,68,1,0,0,response1disk,,7,0,-1,1,0,0,rectangle,0,-1,1,0,0,0,-1,1,0,0,1,38,198,26,1,,,,,,,,
,,,,,,,,,,,,,FF,,,,,,,,1.099,,,,,,,,,,,,,,,,,,,,,,6102050090041d90dc5413f3,61036a27990ef8339d1e8cd7,2021-07-29_21h56.27.153,Simcolourproject_2stim_asymm_v5,2020.2.10,Win32,60,61025ae37ef11b136ea224fe,,,,,,,,,3203,-37,-64,1,0,0,response5disk,,3,2,14,1,0,0,rectangle,2,14,1,0,0,2,14,1,0,0,1,39,199,151,1,,,,,,,,
,,,,,,,,,,,,,FF,,,,,,,,1.382,,,,,,,,,,,,,,,,,,,,,,6102050090041d90dc5413f3,61036a27990ef8339d1e8cd7,2021-07-29_21h56.27.153,Simcolourproject_2stim_asymm_v5,2020.2.10,Win32,60,61025ae37ef11b136ea224fe,,,,,,,,,2067,92,-49,1,0,0,response3disk,,5,7,10,1,0,0,rectangle,84,35,1,0,0,7,8,1,0,0,1,40,200,23,1,,response1disk_3,TRUE,6,6,"[58,75,17,9,181,51,287,180,308,149,118,69,224,62,238,298,315,201,184,41]",1.568,rectangle
,,,,,,,,,,,,,FF,,,,,,,,1.865,,,,,,,,,,,,,,,,,,,,,,6102050090041d90dc5413f3,61036a27990ef8339d1e8cd7,2021-07-29_21h56.27.153,Simcolourproject_2stim_asymm_v5,2020.2.10,Win32,60,61025ae37ef11b136ea224fe,,,,,,,,,4297,42,-57,1,0,0,response3disk,,4,11,4,1,0,0,rectangle,11,4,1,0,0,11,4,1,0,0,1,41,201,138,1,,,,,,,,
,,,,,,,,,,,,,FF,,,,,,,,1.099,,,,,,,,,,,,,,,,,,,,,,6102050090041d90dc5413f3,61036a27990ef8339d1e8cd7,2021-07-29_21h56.27.153,Simcolourproject_2stim_asymm_v5,2020.2.10,Win32,60,61025ae37ef11b136ea224fe,,,,,,,,,447,107,-39,1,0,0,response3disk,,5,10,0,1,0,0,rectangle,10,0,1,0,0,10,0,1,0,0,1,42,202,28,1,,,,,,,,
,,,,,,,,,,,,,FF,,,,,,,,0.799,,,,,,,,,,,,,,,,,,,,,,6102050090041d90dc5413f3,61036a27990ef8339d1e8cd7,2021-07-29_21h56.27.153,Simcolourproject_2stim_asymm_v5,2020.2.10,Win32,60,61025ae37ef11b136ea224fe,,,,,,,,,2140,56,35,1,0,0,response1disk,,6,-4,-7,1,0,0,rectangle,-4,-7,1,0,0,-4,-7,1,0,0,1,43,203,137,1,,,,,,,,
,,,,,,,,,,,,,FF,,,,,,,,1.282,,,,,,,,,,,,,,,,,,,,,,6102050090041d90dc5413f3,61036a27990ef8339d1e8cd7,2021-07-29_21h56.27.153,Simcolourproject_2stim_asymm_v5,2020.2.10,Win32,60,61025ae37ef11b136ea224fe,,,,,,,,,2219,-22,-79,1,0,0,response5disk,,3,7,-1,1,0,0,rectangle,7,-1,1,0,0,7,-1,1,0,0,1,44,204,27,1,,,,,,,,
,,,,,,,,,,,,,FF,,,,,,,,1.067,,,,,,,,,,,,,,,,,,,,,,6102050090041d90dc5413f3,61036a27990ef8339d1e8cd7,2021-07-29_21h56.27.153,Simcolourproject_2stim_asymm_v5,2020.2.10,Win32,60,61025ae37ef11b136ea224fe,,,,,,,,,1372,61,-45,1,0,0,response3disk,,5,9,-1,1,0,0,rectangle,9,-1,1,0,0,9,-1,1,0,0,1,45,205,88,1,,,,,,,,
,,,,,,,,,,,,,FF,,,,,,,,0.999,,,,,,,,,,,,,,,,,,,,,,6102050090041d90dc5413f3,61036a27990ef8339d1e8cd7,2021-07-29_21h56.27.153,Simcolourproject_2stim_asymm_v5,2020.2.10,Win32,60,61025ae37ef11b136ea224fe,,,,,,,,,644,26,-73,1,0,0,response3disk,,4,2,8,1,0,0,rectangle,2,8,1,0,0,2,8,1,0,0,1,46,206,106,1,,,,,,,,
,,,,,,,,,,,,,FF,,,,,,,,0.766,,,,,,,,,,,,,,,,,,,,,,6102050090041d90dc5413f3,61036a27990ef8339d1e8cd7,2021-07-29_21h56.27.153,Simcolourproject_2stim_asymm_v5,2020.2.10,Win32,60,61025ae37ef11b136ea224fe,,,,,,,,,329,17,49,1,0,0,response1disk,,7,-4,-4,1,0,0,rectangle,-4,-4,1,0,0,-4,-4,1,0,0,1,47,207,40,1,,,,,,,,
,,,,,,,,,,,,,FF,,,,,,,,1.299,,,,,,,,,,,,,,,,,,,,,,6102050090041d90dc5413f3,61036a27990ef8339d1e8cd7,2021-07-29_21h56.27.153,Simcolourproject_2stim_asymm_v5,2020.2.10,Win32,60,61025ae37ef11b136ea224fe,,,,,,,,,216,66,33,1,0,0,response1disk,,6,19,11,1,0,0,rectangle,19,11,1,0,0,19,11,1,0,0,1,48,208,87,1,,,,,,,,
,,,,,,,,,,,,,FF,,,,,,,,0.949,,,,,,,,,,,,,,,,,,,,,,6102050090041d90dc5413f3,61036a27990ef8339d1e8cd7,2021-07-29_21h56.27.153,Simcolourproject_2stim_asymm_v5,2020.2.10,Win32,60,61025ae37ef11b136ea224fe,,,,,,,,,1494,36,97,1,0,0,response1disk,,7,-6,4,1,0,0,rectangle,-6,4,1,0,0,-6,4,1,0,0,1,49,209,153,1,,,,,,,,
,,,,,,,,,,,,,FF,,,,,,,,1.049,,,,,,,,,,,,,,,,,,,,,,6102050090041d90dc5413f3,61036a27990ef8339d1e8cd7,2021-07-29_21h56.27.153,Simcolourproject_2stim_asymm_v5,2020.2.10,Win32,60,61025ae37ef11b136ea224fe,,,,,,,,,917,74,32,1,0,0,response1disk,,6,-7,5,1,0,0,rectangle,-7,5,1,0,0,-7,5,1,0,0,1,50,210,149,1,,,,,,,,
,,,,,,,,,,,,,FF,,,,,,,,1.15,,,,,,,,,,,,,,,,,,,,,,6102050090041d90dc5413f3,61036a27990ef8339d1e8cd7,2021-07-29_21h56.27.153,Simcolourproject_2stim_asymm_v5,2020.2.10,Win32,60,61025ae37ef11b136ea224fe,,,,,,,,,2997,81,36,1,0,0,response1disk,,6,2,-1,1,0,0,rectangle,2,-1,1,0,0,2,-1,1,0,0,1,51,211,5,1,,,,,,,,
,,,,,,,,,,,,,FF,,,,,,,,1.931,,,,,,,,,,,,,,,,,,,,,,6102050090041d90dc5413f3,61036a27990ef8339d1e8cd7,2021-07-29_21h56.27.153,Simcolourproject_2stim_asymm_v5,2020.2.10,Win32,60,61025ae37ef11b136ea224fe,,,,,,,,,557,-56,-22,1,0,0,response5disk,,2,-7,7,1,0,0,rectangle,-7,7,1,0,0,-7,7,1,0,0,1,52,212,60,1,,,,,,,,
,,,,,,,,,,,,,FF,,,,,,,,1.299,,,,,,,,,,,,,,,,,,,,,,6102050090041d90dc5413f3,61036a27990ef8339d1e8cd7,2021-07-29_21h56.27.153,Simcolourproject_2stim_asymm_v5,2020.2.10,Win32,60,61025ae37ef11b136ea224fe,,,,,,,,,2021,75,-33,1,0,0,response3disk,,5,13,-4,1,0,0,rectangle,13,-4,1,0,0,13,-4,1,0,0,1,53,213,118,1,,,,,,,,
,,,,,,,,,,,,,FF,,,,,,,,1.115,,,,,,,,,,,,,,,,,,,,,,6102050090041d90dc5413f3,61036a27990ef8339d1e8cd7,2021-07-29_21h56.27.153,Simcolourproject_2stim_asymm_v5,2020.2.10,Win32,60,61025ae37ef11b136ea224fe,,,,,,,,,241,75,-38,1,0,0,response3disk,,5,3,4,1,0,0,rectangle,3,4,1,0,0,3,4,1,0,0,1,54,214,143,1,,,,,,,,
,,,,,,,,,,,,,FF,,,,,,,,0.548,,,,,,,,,,,,,,,,,,,,,,6102050090041d90dc5413f3,61036a27990ef8339d1e8cd7,2021-07-29_21h56.27.153,Simcolourproject_2stim_asymm_v5,2020.2.10,Win32,60,61025ae37ef11b136ea224fe,,,,,,,,,3490,46,55,1,0,0,response1disk,,7,-2,3,1,0,0,rectangle,-2,3,1,0,0,-2,3,1,0,0,1,55,215,90,1,,,,,,,,
,,,,,,,,,,,,,FF,,,,,,,,0.833,,,,,,,,,,,,,,,,,,,,,,6102050090041d90dc5413f3,61036a27990ef8339d1e8cd7,2021-07-29_21h56.27.153,Simcolourproject_2stim_asymm_v5,2020.2.10,Win32,60,61025ae37ef11b136ea224fe,,,,,,,,,834,38,86,1,0,0,response1disk,,7,-26,-8,1,0,0,rectangle,-26,-8,1,0,0,-26,-8,1,0,0,1,56,216,104,1,,,,,,,,
,,,,,,,,,,,,,FF,,,,,,,,0.732,,,,,,,,,,,,,,,,,,,,,,6102050090041d90dc5413f3,61036a27990ef8339d1e8cd7,2021-07-29_21h56.27.153,Simcolourproject_2stim_asymm_v5,2020.2.10,Win32,60,61025ae37ef11b136ea224fe,,,,,,,,,1537,-54,-31,1,0,0,response5disk,,2,-10,-8,1,0,0,rectangle,-10,-8,1,0,0,-10,-8,1,0,0,1,57,217,131,1,,,,,,,,
,,,,,,,,,,,,,FF,,,,,,,,1.117,,,,,,,,,,,,,,,,,,,,,,6102050090041d90dc5413f3,61036a27990ef8339d1e8cd7,2021-07-29_21h56.27.153,Simcolourproject_2stim_asymm_v5,2020.2.10,Win32,60,61025ae37ef11b136ea224fe,,,,,,,,,463,-35,-76,1,0,0,response5disk,,3,6,12,1,0,0,rectangle,6,12,1,0,0,6,12,1,0,0,1,58,218,69,1,,,,,,,,
,,,,,,,,,,,,,FF,,,,,,,,1.082,,,,,,,,,,,,,,,,,,,,,,6102050090041d90dc5413f3,61036a27990ef8339d1e8cd7,2021-07-29_21h56.27.153,Simcolourproject_2stim_asymm_v5,2020.2.10,Win32,60,61025ae37ef11b136ea224fe,,,,,,,,,3550,65,26,1,0,0,response1disk,,6,1,13,1,0,0,rectangle,1,13,1,0,0,1,13,1,0,0,1,59,219,85,1,,,,,,,,
,,,,,,,,,,,,,FF,,,,,,,,1.067,,,,,,,,,,,,,,,,,,,,,,6102050090041d90dc5413f3,61036a27990ef8339d1e8cd7,2021-07-29_21h56.27.153,Simcolourproject_2stim_asymm_v5,2020.2.10,Win32,60,61025ae37ef11b136ea224fe,,,,,,,,,1623,20,-75,1,0,0,response3disk,,4,-5,5,1,0,0,rectangle,-5,5,1,0,0,-5,5,1,0,0,1,60,220,62,1,,,,,,,,
,,,,,,,,,,,,,FF,,,,,,,,1.182,,,,,,,,,,,,,,,,,,,,,,6102050090041d90dc5413f3,61036a27990ef8339d1e8cd7,2021-07-29_21h56.27.153,Simcolourproject_2stim_asymm_v5,2020.2.10,Win32,60,61025ae37ef11b136ea224fe,,,,,,,,,2910,70,34,1,0,0,response1disk,,6,8,15,1,0,0,rectangle,8,15,1,0,0,8,15,1,0,0,1,61,221,134,1,,,,,,,,
,,,,,,,,,,,,,FF,,,,,,,,1.1,,,,,,,,,,,,,,,,,,,,,,6102050090041d90dc5413f3,61036a27990ef8339d1e8cd7,2021-07-29_21h56.27.153,Simcolourproject_2stim_asymm_v5,2020.2.10,Win32,60,61025ae37ef11b136ea224fe,,,,,,,,,335,68,-75,1,0,0,response3disk,,4,2,3,1,0,0,rectangle,2,3,1,0,0,2,3,1,0,0,1,62,222,73,1,,,,,,,,
,,,,,,,,,,,,,FF,,,,,,,,0.816,,,,,,,,,,,,,,,,,,,,,,6102050090041d90dc5413f3,61036a27990ef8339d1e8cd7,2021-07-29_21h56.27.153,Simcolourproject_2stim_asymm_v5,2020.2.10,Win32,60,61025ae37ef11b136ea224fe,,,,,,,,,752,55,26,1,0,0,response1disk,,6,-23,14,1,0,0,rectangle,61,-15,1,0,0,13,4,1,0,0,1,63,223,99,1,,response3disk_3,TRUE,5,5,"[58,75,17,9,181,51,287,180,308,149,118,69,224,62,238,298,315,201,184,41]",1.829,rectangle
,,,,,,,,,,,,,FF,,,,,,,,0.883,,,,,,,,,,,,,,,,,,,,,,6102050090041d90dc5413f3,61036a27990ef8339d1e8cd7,2021-07-29_21h56.27.153,Simcolourproject_2stim_asymm_v5,2020.2.10,Win32,60,61025ae37ef11b136ea224fe,,,,,,,,,1503,78,33,1,0,0,response1disk,,6,17,4,1,0,0,rectangle,17,4,1,0,0,17,4,1,0,0,1,64,224,77,1,,,,,,,,
,,,,,,,,,,,,,FF,,,,,,,,0.715,,,,,,,,,,,,,,,,,,,,,,6102050090041d90dc5413f3,61036a27990ef8339d1e8cd7,2021-07-29_21h56.27.153,Simcolourproject_2stim_asymm_v5,2020.2.10,Win32,60,61025ae37ef11b136ea224fe,,,,,,,,,561,65,-35,1,0,0,response3disk,,5,11,9,1,0,0,rectangle,11,9,1,0,0,11,9,1,0,0,1,65,225,96,1,,,,,,,,
,,,,,,,,,,,,,FF,,,,,,,,0.866,,,,,,,,,,,,,,,,,,,,,,6102050090041d90dc5413f3,61036a27990ef8339d1e8cd7,2021-07-29_21h56.27.153,Simcolourproject_2stim_asymm_v5,2020.2.10,Win32,60,61025ae37ef11b136ea224fe,,,,,,,,,2079,50,-38,1,0,0,response3disk,,5,22,-3,1,0,0,rectangle,22,-3,1,0,0,22,-3,1,0,0,1,66,226,36,1,,,,,,,,
,,,,,,,,,,,,,FF,,,,,,,,0.783,,,,,,,,,,,,,,,,,,,,,,6102050090041d90dc5413f3,61036a27990ef8339d1e8cd7,2021-07-29_21h56.27.153,Simcolourproject_2stim_asymm_v5,2020.2.10,Win32,60,61025ae37ef11b136ea224fe,,,,,,,,,2966,56,27,1,0,0,response1disk,,6,4,0,1,0,0,rectangle,4,0,1,0,0,4,0,1,0,0,1,67,227,101,1,,,,,,,,
,,,,,,,,,,,,,FF,,,,,,,,0.599,,,,,,,,,,,,,,,,,,,,,,6102050090041d90dc5413f3,61036a27990ef8339d1e8cd7,2021-07-29_21h56.27.153,Simcolourproject_2stim_asymm_v5,2020.2.10,Win32,60,61025ae37ef11b136ea224fe,,,,,,,,,666,52,70,1,0,0,response1disk,,7,9,0,1,0,0,rectangle,9,0,1,0,0,9,0,1,0,0,1,68,228,29,1,,,,,,,,
,,,,,,,,,,,,,FF,,,,,,,,1.062,,,,,,,,,,,,,,,,,,,,,,6102050090041d90dc5413f3,61036a27990ef8339d1e8cd7,2021-07-29_21h56.27.153,Simcolourproject_2stim_asymm_v5,2020.2.10,Win32,60,61025ae37ef11b136ea224fe,,,,,,,,,1151,31,-65,1,0,0,response3disk,,4,-15,11,1,0,0,rectangle,-15,11,1,0,0,-15,11,1,0,0,1,69,229,14,1,,,,,,,,
,,,,,,,,,,,,,FF,,,,,,,,1.016,,,,,,,,,,,,,,,,,,,,,,6102050090041d90dc5413f3,61036a27990ef8339d1e8cd7,2021-07-29_21h56.27.153,Simcolourproject_2stim_asymm_v5,2020.2.10,Win32,60,61025ae37ef11b136ea224fe,,,,,,,,,1859,39,84,1,0,0,response1disk,,7,-1,11,1,0,0,rectangle,-1,11,1,0,0,-1,11,1,0,0,1,70,230,112,1,,,,,,,,
,,,,,,,,,,,,,FF,,,,,,,,1.433,,,,,,,,,,,,,,,,,,,,,,6102050090041d90dc5413f3,61036a27990ef8339d1e8cd7,2021-07-29_21h56.27.153,Simcolourproject_2stim_asymm_v5,2020.2.10,Win32,60,61025ae37ef11b136ea224fe,,,,,,,,,1579,44,-46,1,0,0,response3disk,,4,5,13,1,0,0,rectangle,5,13,1,0,0,5,13,1,0,0,1,71,231,110,1,,,,,,,,
,,,,,,,,,,,,,FF,,,,,,,,0.7,,,,,,,,,,,,,,,,,,,,,,6102050090041d90dc5413f3,61036a27990ef8339d1e8cd7,2021-07-29_21h56.27.153,Simcolourproject_2stim_asymm_v5,2020.2.10,Win32,60,61025ae37ef11b136ea224fe,,,,,,,,,4003,25,89,1,0,0,response1disk,,7,-7,10,1,0,0,rectangle,-7,10,1,0,0,-7,10,1,0,0,1,72,232,70,1,,,,,,,,
,,,,,,,,,,,,,FF,,,,,,,,1.882,,,,,,,,,,,,,,,,,,,,,,6102050090041d90dc5413f3,61036a27990ef8339d1e8cd7,2021-07-29_21h56.27.153,Simcolourproject_2stim_asymm_v5,2020.2.10,Win32,60,61025ae37ef11b136ea224fe,,,,,,,,,4177,80,55,1,0,0,response1disk,,6,-2,9,1,0,0,rectangle,-2,9,1,0,0,-2,9,1,0,0,1,73,233,74,1,,,,,,,,
,,,,,,,,,,,,,FF,,,,,,,,0.75,,,,,,,,,,,,,,,,,,,,,,6102050090041d90dc5413f3,61036a27990ef8339d1e8cd7,2021-07-29_21h56.27.153,Simcolourproject_2stim_asymm_v5,2020.2.10,Win32,60,61025ae37ef11b136ea224fe,,,,,,,,,3307,19,117,1,0,0,response1disk,,7,-4,5,1,0,0,rectangle,-4,5,1,0,0,-4,5,1,0,0,1,74,234,158,1,,,,,,,,
,,,,,,,,,,,,,FF,,,,,,,,0.732,,,,,,,,,,,,,,,,,,,,,,6102050090041d90dc5413f3,61036a27990ef8339d1e8cd7,2021-07-29_21h56.27.153,Simcolourproject_2stim_asymm_v5,2020.2.10,Win32,60,61025ae37ef11b136ea224fe,,,,,,,,,2642,65,31,1,0,0,response1disk,,6,3,-2,1,0,0,rectangle,3,-2,1,0,0,3,-2,1,0,0,1,75,235,50,1,,,,,,,,
,,,,,,,,,,,,,FF,,,,,,,,0.815,,,,,,,,,,,,,,,,,,,,,,6102050090041d90dc5413f3,61036a27990ef8339d1e8cd7,2021-07-29_21h56.27.153,Simcolourproject_2stim_asymm_v5,2020.2.10,Win32,60,61025ae37ef11b136ea224fe,,,,,,,,,2816,67,20,1,0,0,response1disk,,6,-7,-6,1,0,0,rectangle,-7,-6,1,0,0,-7,-6,1,0,0,1,76,236,113,1,,,,,,,,
,,,,,,,,,,,,,FF,,,,,,,,1.249,,,,,,,,,,,,,,,,,,,,,,6102050090041d90dc5413f3,61036a27990ef8339d1e8cd7,2021-07-29_21h56.27.153,Simcolourproject_2stim_asymm_v5,2020.2.10,Win32,60,61025ae37ef11b136ea224fe,,,,,,,,,1425,27,97,1,0,0,response1disk,,7,-9,3,1,0,0,rectangle,62,-76,1,0,0,-7,12,1,0,0,1,77,237,2,1,,response3disk_3,TRUE,4,4,"[58,75,17,9,181,51,287,180,308,149,118,69,224,62,238,298,315,201,184,41]",1.232,rectangle
,,,,,,,,,,,,,FF,,,,,,,,0.95,,,,,,,,,,,,,,,,,,,,,,6102050090041d90dc5413f3,61036a27990ef8339d1e8cd7,2021-07-29_21h56.27.153,Simcolourproject_2stim_asymm_v5,2020.2.10,Win32,60,61025ae37ef11b136ea224fe,,,,,,,,,3420,61,31,1,0,0,response1disk,,6,-12,8,1,0,0,rectangle,-12,8,1,0,0,-12,8,1,0,0,1,78,238,154,1,,,,,,,,
,,,,,,,,,,,,,FF,,,,,,,,0.899,,,,,,,,,,,,,,,,,,,,,,6102050090041d90dc5413f3,61036a27990ef8339d1e8cd7,2021-07-29_21h56.27.153,Simcolourproject_2stim_asymm_v5,2020.2.10,Win32,60,61025ae37ef11b136ea224fe,,,,,,,,,4364,-39,-68,1,0,0,response5disk,,3,5,11,1,0,0,rectangle,5,11,1,0,0,5,11,1,0,0,1,79,239,125,1,,,,,,,,
,,,,,,,,,,,,,FF,,,,,,,,1.464,,,,,,,,,,,,,,,,,,,,,,6102050090041d90dc5413f3,61036a27990ef8339d1e8cd7,2021-07-29_21h56.27.153,Simcolourproject_2stim_asymm_v5,2020.2.10,Win32,60,61025ae37ef11b136ea224fe,,,,,,,,,3339,-53,-58,1,0,0,response5disk,,3,-8,-4,1,0,0,rectangle,-8,-4,1,0,0,-8,-4,1,0,0,1,80,240,44,1,,,,,,,,
,,,,,,,,,,,,,FF,,,,,,,,0.6,,,,,,,,,,,,,,,,,,,,,,6102050090041d90dc5413f3,61036a27990ef8339d1e8cd7,2021-07-29_21h56.27.153,Simcolourproject_2stim_asymm_v5,2020.2.10,Win32,60,61025ae37ef11b136ea224fe,,,,,,,,,3723,45,92,1,0,0,response1disk,,7,-4,6,1,0,0,rectangle,-4,6,1,0,0,-4,6,1,0,0,1,81,241,61,1,,,,,,,,
,,,,,,,,,,,,,FF,,,,,,,,1.315,,,,,,,,,,,,,,,,,,,,,,6102050090041d90dc5413f3,61036a27990ef8339d1e8cd7,2021-07-29_21h56.27.153,Simcolourproject_2stim_asymm_v5,2020.2.10,Win32,60,61025ae37ef11b136ea224fe,,,,,,,,,1345,42,81,1,0,0,response1disk,,7,-1,2,1,0,0,rectangle,-1,2,1,0,0,-1,2,1,0,0,1,82,242,159,1,,,,,,,,
,,,,,,,,,,,,,FF,,,,,,,,0.899,,,,,,,,,,,,,,,,,,,,,,6102050090041d90dc5413f3,61036a27990ef8339d1e8cd7,2021-07-29_21h56.27.153,Simcolourproject_2stim_asymm_v5,2020.2.10,Win32,60,61025ae37ef11b136ea224fe,,,,,,,,,1363,80,49,1,0,0,response1disk,,6,1,-5,1,0,0,rectangle,1,-5,1,0,0,1,-5,1,0,0,1,83,243,156,1,,,,,,,,
,,,,,,,,,,,,,FF,,,,,,,,0.849,,,,,,,,,,,,,,,,,,,,,,6102050090041d90dc5413f3,61036a27990ef8339d1e8cd7,2021-07-29_21h56.27.153,Simcolourproject_2stim_asymm_v5,2020.2.10,Win32,60,61025ae37ef11b136ea224fe,,,,,,,,,4043,61,35,1,0,0,response1disk,,6,14,12,1,0,0,rectangle,14,12,1,0,0,14,12,1,0,0,1,84,244,45,1,,,,,,,,
,,,,,,,,,,,,,FF,,,,,,,,0.683,,,,,,,,,,,,,,,,,,,,,,6102050090041d90dc5413f3,61036a27990ef8339d1e8cd7,2021-07-29_21h56.27.153,Simcolourproject_2stim_asymm_v5,2020.2.10,Win32,60,61025ae37ef11b136ea224fe,,,,,,,,,3972,78,-47,1,0,0,response3disk,,5,22,1,1,0,0,rectangle,22,1,1,0,0,22,1,1,0,0,1,85,245,68,1,,,,,,,,
,,,,,,,,,,,,,FF,,,,,,,,0.916,,,,,,,,,,,,,,,,,,,,,,6102050090041d90dc5413f3,61036a27990ef8339d1e8cd7,2021-07-29_21h56.27.153,Simcolourproject_2stim_asymm_v5,2020.2.10,Win32,60,61025ae37ef11b136ea224fe,,,,,,,,,1242,70,47,1,0,0,response1disk,,6,-8,-5,1,0,0,rectangle,-8,-5,1,0,0,-8,-5,1,0,0,1,86,246,136,1,,,,,,,,
,,,,,,,,,,,,,FF,,,,,,,,0.899,,,,,,,,,,,,,,,,,,,,,,6102050090041d90dc5413f3,61036a27990ef8339d1e8cd7,2021-07-29_21h56.27.153,Simcolourproject_2stim_asymm_v5,2020.2.10,Win32,60,61025ae37ef11b136ea224fe,,,,,,,,,3780,29,-89,1,0,0,response3disk,,4,-1,8,1,0,0,rectangle,-1,8,1,0,0,-1,8,1,0,0,1,87,247,100,1,,,,,,,,
,,,,,,,,,,,,,FF,,,,,,,,0.85,,,,,,,,,,,,,,,,,,,,,,6102050090041d90dc5413f3,61036a27990ef8339d1e8cd7,2021-07-29_21h56.27.153,Simcolourproject_2stim_asymm_v5,2020.2.10,Win32,60,61025ae37ef11b136ea224fe,,,,,,,,,3291,-52,-56,1,0,0,response5disk,,3,-12,-3,1,0,0,rectangle,-12,-3,1,0,0,-12,-3,1,0,0,1,88,248,55,1,,,,,,,,
,,,,,,,,,,,,,FF,,,,,,,,1.016,,,,,,,,,,,,,,,,,,,,,,6102050090041d90dc5413f3,61036a27990ef8339d1e8cd7,2021-07-29_21h56.27.153,Simcolourproject_2stim_asymm_v5,2020.2.10,Win32,60,61025ae37ef11b136ea224fe,,,,,,,,,736,28,-89,1,0,0,response3disk,,4,-8,-2,1,0,0,rectangle,-8,-2,1,0,0,-8,-2,1,0,0,1,89,249,65,1,,,,,,,,
,,,,,,,,,,,,,FF,,,,,,,,1.016,,,,,,,,,,,,,,,,,,,,,,6102050090041d90dc5413f3,61036a27990ef8339d1e8cd7,2021-07-29_21h56.27.153,Simcolourproject_2stim_asymm_v5,2020.2.10,Win32,60,61025ae37ef11b136ea224fe,,,,,,,,,3197,-41,-88,1,0,0,response5disk,,3,-1,13,1,0,0,rectangle,-1,13,1,0,0,-1,13,1,0,0,1,90,250,43,1,,,,,,,,
,,,,,,,,,,,,,FF,,,,,,,,1.016,,,,,,,,,,,,,,,,,,,,,,6102050090041d90dc5413f3,61036a27990ef8339d1e8cd7,2021-07-29_21h56.27.153,Simcolourproject_2stim_asymm_v5,2020.2.10,Win32,60,61025ae37ef11b136ea224fe,,,,,,,,,2791,60,-76,1,0,0,response3disk,,4,-1,4,1,0,0,rectangle,-1,4,1,0,0,-1,4,1,0,0,1,91,251,17,1,,,,,,,,
,,,,,,,,,,,,,FF,,,,,,,,0.749,,,,,,,,,,,,,,,,,,,,,,6102050090041d90dc5413f3,61036a27990ef8339d1e8cd7,2021-07-29_21h56.27.153,Simcolourproject_2stim_asymm_v5,2020.2.10,Win32,60,61025ae37ef11b136ea224fe,,,,,,,,,3887,45,-93,1,0,0,response3disk,,4,-3,-10,1,0,0,rectangle,-3,-10,1,0,0,-3,-10,1,0,0,1,92,252,144,1,,,,,,,,
,,,,,,,,,,,,,FF,,,,,,,,0.751,,,,,,,,,,,,,,,,,,,,,,6102050090041d90dc5413f3,61036a27990ef8339d1e8cd7,2021-07-29_21h56.27.153,Simcolourproject_2stim_asymm_v5,2020.2.10,Win32,60,61025ae37ef11b136ea224fe,,,,,,,,,4212,98,-46,1,0,0,response3disk,,5,23,11,1,0,0,rectangle,23,11,1,0,0,23,11,1,0,0,1,93,253,4,1,,,,,,,,
,,,,,,,,,,,,,FF,,,,,,,,1.099,,,,,,,,,,,,,,,,,,,,,,6102050090041d90dc5413f3,61036a27990ef8339d1e8cd7,2021-07-29_21h56.27.153,Simcolourproject_2stim_asymm_v5,2020.2.10,Win32,60,61025ae37ef11b136ea224fe,,,,,,,,,2774,44,82,1,0,0,response1disk,,7,-5,0,1,0,0,rectangle,-5,0,1,0,0,-5,0,1,0,0,1,94,254,10,1,,,,,,,,
,,,,,,,,,,,,,FF,,,,,,,,0.919,,,,,,,,,,,,,,,,,,,,,,6102050090041d90dc5413f3,61036a27990ef8339d1e8cd7,2021-07-29_21h56.27.153,Simcolourproject_2stim_asymm_v5,2020.2.10,Win32,60,61025ae37ef11b136ea224fe,,,,,,,,,2314,68,-45,1,0,0,response3disk,,5,3,3,1,0,0,rectangle,3,3,1,0,0,3,3,1,0,0,1,95,255,39,1,,,,,,,,
,,,,,,,,,,,,,FF,,,,,,,,0.633,,,,,,,,,,,,,,,,,,,,,,6102050090041d90dc5413f3,61036a27990ef8339d1e8cd7,2021-07-29_21h56.27.153,Simcolourproject_2stim_asymm_v5,2020.2.10,Win32,60,61025ae37ef11b136ea224fe,,,,,,,,,3072,33,80,1,0,0,response1disk,,7,-8,1,1,0,0,rectangle,-8,1,1,0,0,-8,1,1,0,0,1,96,256,84,1,,,,,,,,
,,,,,,,,,,,,,FF,,,,,,,,0.749,,,,,,,,,,,,,,,,,,,,,,6102050090041d90dc5413f3,61036a27990ef8339d1e8cd7,2021-07-29_21h56.27.153,Simcolourproject_2stim_asymm_v5,2020.2.10,Win32,60,61025ae37ef11b136ea224fe,,,,,,,,,3228,30,88,1,0,0,response1disk,,7,1,5,1,0,0,rectangle,1,5,1,0,0,1,5,1,0,0,1,97,257,132,1,,,,,,,,
,,,,,,,,,,,,,FF,,,,,,,,0.783,,,,,,,,,,,,,,,,,,,,,,6102050090041d90dc5413f3,61036a27990ef8339d1e8cd7,2021-07-29_21h56.27.153,Simcolourproject_2stim_asymm_v5,2020.2.10,Win32,60,61025ae37ef11b136ea224fe,,,,,,,,,1229,76,-31,1,0,0,response3disk,,5,1,5,1,0,0,rectangle,1,5,1,0,0,1,5,1,0,0,1,98,258,97,1,,,,,,,,
,,,,,,,,,,,,,FF,,,,,,,,0.714,,,,,,,,,,,,,,,,,,,,,,6102050090041d90dc5413f3,61036a27990ef8339d1e8cd7,2021-07-29_21h56.27.153,Simcolourproject_2stim_asymm_v5,2020.2.10,Win32,60,61025ae37ef11b136ea224fe,,,,,,,,,3951,91,52,1,0,0,response1disk,,6,12,11,1,0,0,rectangle,12,11,1,0,0,12,11,1,0,0,1,99,259,59,1,,,,,,,,
,,,,,,,,,,,,,FF,,,,,,,,0.549,,,,,,,,,,,,,,,,,,,,,,6102050090041d90dc5413f3,61036a27990ef8339d1e8cd7,2021-07-29_21h56.27.153,Simcolourproject_2stim_asymm_v5,2020.2.10,Win32,60,61025ae37ef11b136ea224fe,,,,,,,,,1463,59,33,1,0,0,response1disk,,6,1,-6,1,0,0,rectangle,1,-6,1,0,0,1,-6,1,0,0,1,100,260,98,1,,,,,,,,
,,,,,,,,,,,,,FF,,,,,,,,0.532,,,,,,,,,,,,,,,,,,,,,,6102050090041d90dc5413f3,61036a27990ef8339d1e8cd7,2021-07-29_21h56.27.153,Simcolourproject_2stim_asymm_v5,2020.2.10,Win32,60,61025ae37ef11b136ea224fe,,,,,,,,,3262,39,75,1,0,0,response1disk,,7,-2,10,1,0,0,rectangle,-2,10,1,0,0,-2,10,1,0,0,1,101,261,94,1,,,,,,,,
,,,,,,,,,,,,,FF,,,,,,,,0.849,,,,,,,,,,,,,,,,,,,,,,6102050090041d90dc5413f3,61036a27990ef8339d1e8cd7,2021-07-29_21h56.27.153,Simcolourproject_2stim_asymm_v5,2020.2.10,Win32,60,61025ae37ef11b136ea224fe,,,,,,,,,1203,-45,80,1,0,0,response7disk,,0,-12,10,1,0,0,rectangle,-12,10,1,0,0,-12,10,1,0,0,1,102,262,63,1,,,,,,,,
,,,,,,,,,,,,,FF,,,,,,,,0.884,,,,,,,,,,,,,,,,,,,,,,6102050090041d90dc5413f3,61036a27990ef8339d1e8cd7,2021-07-29_21h56.27.153,Simcolourproject_2stim_asymm_v5,2020.2.10,Win32,60,61025ae37ef11b136ea224fe,,,,,,,,,1194,-36,-20,1,0,0,response5disk,,2,-12,-6,1,0,0,rectangle,-12,-6,1,0,0,-12,-6,1,0,0,1,103,263,145,1,,,,,,,,
,,,,,,,,,,,,,FF,,,,,,,,0.921,,,,,,,,,,,,,,,,,,,,,,6102050090041d90dc5413f3,61036a27990ef8339d1e8cd7,2021-07-29_21h56.27.153,Simcolourproject_2stim_asymm_v5,2020.2.10,Win32,60,61025ae37ef11b136ea224fe,,,,,,,,,125,36,-70,1,0,0,response3disk,,4,11,0,1,0,0,rectangle,11,0,1,0,0,11,0,1,0,0,1,104,264,35,1,,,,,,,,
,,,,,,,,,,,,,FF,,,,,,,,0.683,,,,,,,,,,,,,,,,,,,,,,6102050090041d90dc5413f3,61036a27990ef8339d1e8cd7,2021-07-29_21h56.27.153,Simcolourproject_2stim_asymm_v5,2020.2.10,Win32,60,61025ae37ef11b136ea224fe,,,,,,,,,4001,25,38,1,0,0,response1disk,,7,0,-12,1,0,0,rectangle,0,-12,1,0,0,0,-12,1,0,0,1,105,265,64,1,,,,,,,,
,,,,,,,,,,,,,FF,,,,,,,,0.633,,,,,,,,,,,,,,,,,,,,,,6102050090041d90dc5413f3,61036a27990ef8339d1e8cd7,2021-07-29_21h56.27.153,Simcolourproject_2stim_asymm_v5,2020.2.10,Win32,60,61025ae37ef11b136ea224fe,,,,,,,,,3000,-36,41,1,0,0,response7disk,,0,-16,9,1,0,0,rectangle,-16,9,1,0,0,-16,9,1,0,0,1,106,266,92,1,,,,,,,,
,,,,,,,,,,,,,FF,,,,,,,,1.483,,,,,,,,,,,,,,,,,,,,,,6102050090041d90dc5413f3,61036a27990ef8339d1e8cd7,2021-07-29_21h56.27.153,Simcolourproject_2stim_asymm_v5,2020.2.10,Win32,60,61025ae37ef11b136ea224fe,,,,,,,,,1302,85,-38,1,0,0,response3disk,,5,1,6,1,0,0,rectangle,1,6,1,0,0,1,6,1,0,0,1,107,267,117,1,,,,,,,,
,,,,,,,,,,,,,FF,,,,,,,,0.95,,,,,,,,,,,,,,,,,,,,,,6102050090041d90dc5413f3,61036a27990ef8339d1e8cd7,2021-07-29_21h56.27.153,Simcolourproject_2stim_asymm_v5,2020.2.10,Win32,60,61025ae37ef11b136ea224fe,,,,,,,,,2197,47,81,1,0,0,response1disk,,7,9,11,1,0,0,rectangle,9,11,1,0,0,9,11,1,0,0,1,108,268,142,1,,,,,,,,
,,,,,,,,,,,,,FF,,,,,,,,0.666,,,,,,,,,,,,,,,,,,,,,,6102050090041d90dc5413f3,61036a27990ef8339d1e8cd7,2021-07-29_21h56.27.153,Simcolourproject_2stim_asymm_v5,2020.2.10,Win32,60,61025ae37ef11b136ea224fe,,,,,,,,,71,43,61,1,0,0,response1disk,,7,10,-4,1,0,0,rectangle,10,-4,1,0,0,10,-4,1,0,0,1,109,269,108,1,,,,,,,,
,,,,,,,,,,,,,FF,,,,,,,,0.766,,,,,,,,,,,,,,,,,,,,,,6102050090041d90dc5413f3,61036a27990ef8339d1e8cd7,2021-07-29_21h56.27.153,Simcolourproject_2stim_asymm_v5,2020.2.10,Win32,60,61025ae37ef11b136ea224fe,,,,,,,,,632,-38,-35,1,0,0,response5disk,,2,-21,-7,1,0,0,rectangle,-21,-7,1,0,0,-21,-7,1,0,0,1,110,270,123,1,,,,,,,,
,,,,,,,,,,,,,FF,,,,,,,,0.814,,,,,,,,,,,,,,,,,,,,,,6102050090041d90dc5413f3,61036a27990ef8339d1e8cd7,2021-07-29_21h56.27.153,Simcolourproject_2stim_asymm_v5,2020.2.10,Win32,60,61025ae37ef11b136ea224fe,,,,,,,,,851,73,27,1,0,0,response1disk,,6,0,-2,1,0,0,rectangle,0,-2,1,0,0,0,-2,1,0,0,1,111,271,72,1,,,,,,,,
,,,,,,,,,,,,,FF,,,,,,,,0.867,,,,,,,,,,,,,,,,,,,,,,6102050090041d90dc5413f3,61036a27990ef8339d1e8cd7,2021-07-29_21h56.27.153,Simcolourproject_2stim_asymm_v5,2020.2.10,Win32,60,61025ae37ef11b136ea224fe,,,,,,,,,151,24,47,1,0,0,response1disk,,7,-7,-13,1,0,0,rectangle,-7,-13,1,0,0,-7,-13,1,0,0,1,112,272,91,1,,,,,,,,
,,,,,,,,,,,,,FF,,,,,,,,0.567,,,,,,,,,,,,,,,,,,,,,,6102050090041d90dc5413f3,61036a27990ef8339d1e8cd7,2021-07-29_21h56.27.153,Simcolourproject_2stim_asymm_v5,2020.2.10,Win32,60,61025ae37ef11b136ea224fe,,,,,,,,,200,28,70,1,0,0,response1disk,,7,-2,-3,1,0,0,rectangle,-2,-3,1,0,0,-2,-3,1,0,0,1,113,273,54,1,,,,,,,,
,,,,,,,,,,,,,FF,,,,,,,,0.616,,,,,,,,,,,,,,,,,,,,,,6102050090041d90dc5413f3,61036a27990ef8339d1e8cd7,2021-07-29_21h56.27.153,Simcolourproject_2stim_asymm_v5,2020.2.10,Win32,60,61025ae37ef11b136ea224fe,,,,,,,,,3616,29,68,1,0,0,response1disk,,7,1,6,1,0,0,rectangle,1,6,1,0,0,1,6,1,0,0,1,114,274,86,1,,,,,,,,
,,,,,,,,,,,,,FF,,,,,,,,0.616,,,,,,,,,,,,,,,,,,,,,,6102050090041d90dc5413f3,61036a27990ef8339d1e8cd7,2021-07-29_21h56.27.153,Simcolourproject_2stim_asymm_v5,2020.2.10,Win32,60,61025ae37ef11b136ea224fe,,,,,,,,,2367,24,-70,1,0,0,response3disk,,4,2,12,1,0,0,rectangle,2,12,1,0,0,2,12,1,0,0,1,115,275,135,1,,,,,,,,
,,,,,,,,,,,,,FF,,,,,,,,1.349,,,,,,,,,,,,,,,,,,,,,,6102050090041d90dc5413f3,61036a27990ef8339d1e8cd7,2021-07-29_21h56.27.153,Simcolourproject_2stim_asymm_v5,2020.2.10,Win32,60,61025ae37ef11b136ea224fe,,,,,,,,,514,61,33,1,0,0,response1disk,,6,6,-2,1,0,0,rectangle,6,-2,1,0,0,6,-2,1,0,0,1,116,276,116,1,,,,,,,,
,,,,,,,,,,,,,FF,,,,,,,,0.649,,,,,,,,,,,,,,,,,,,,,,6102050090041d90dc5413f3,61036a27990ef8339d1e8cd7,2021-07-29_21h56.27.153,Simcolourproject_2stim_asymm_v5,2020.2.10,Win32,60,61025ae37ef11b136ea224fe,,,,,,,,,1790,28,50,1,0,0,response1disk,,7,-4,4,1,0,0,rectangle,-4,4,1,0,0,-4,4,1,0,0,1,117,277,81,1,,,,,,,,
,,,,,,,,,,,,,FF,,,,,,,,0.567,,,,,,,,,,,,,,,,,,,,,,6102050090041d90dc5413f3,61036a27990ef8339d1e8cd7,2021-07-29_21h56.27.153,Simcolourproject_2stim_asymm_v5,2020.2.10,Win32,60,61025ae37ef11b136ea224fe,,,,,,,,,2805,45,110,1,0,0,response1disk,,7,5,13,1,0,0,rectangle,5,13,1,0,0,5,13,1,0,0,1,118,278,129,1,,,,,,,,
,,,,,,,,,,,,,FF,,,,,,,,0.666,,,,,,,,,,,,,,,,,,,,,,6102050090041d90dc5413f3,61036a27990ef8339d1e8cd7,2021-07-29_21h56.27.153,Simcolourproject_2stim_asymm_v5,2020.2.10,Win32,60,61025ae37ef11b136ea224fe,,,,,,,,,1985,44,-67,1,0,0,response3disk,,4,19,-10,1,0,0,rectangle,19,-10,1,0,0,19,-10,1,0,0,1,119,279,30,1,,,,,,,,
,,,,,,,,,,,,,FF,,,,,,,,0.8,,,,,,,,,,,,,,,,,,,,,,6102050090041d90dc5413f3,61036a27990ef8339d1e8cd7,2021-07-29_21h56.27.153,Simcolourproject_2stim_asymm_v5,2020.2.10,Win32,60,61025ae37ef11b136ea224fe,,,,,,,,,556,74,-41,1,0,0,response3disk,,5,13,-7,1,0,0,rectangle,13,-7,1,0,0,13,-7,1,0,0,1,120,280,152,1,,,,,,,,
,,,,,,,,,,,,,FF,,,,,,,,0.733,,,,,,,,,,,,,,,,,,,,,,6102050090041d90dc5413f3,61036a27990ef8339d1e8cd7,2021-07-29_21h56.27.153,Simcolourproject_2stim_asymm_v5,2020.2.10,Win32,60,61025ae37ef11b136ea224fe,,,,,,,,,3084,52,75,1,0,0,response1disk,,7,10,-3,1,0,0,rectangle,10,-3,1,0,0,10,-3,1,0,0,1,121,281,114,1,,,,,,,,
,,,,,,,,,,,,,FF,,,,,,,,0.866,,,,,,,,,,,,,,,,,,,,,,6102050090041d90dc5413f3,61036a27990ef8339d1e8cd7,2021-07-29_21h56.27.153,Simcolourproject_2stim_asymm_v5,2020.2.10,Win32,60,61025ae37ef11b136ea224fe,,,,,,,,,2880,46,82,1,0,0,response1disk,,7,7,-8,1,0,0,rectangle,7,-8,1,0,0,7,-8,1,0,0,1,122,282,148,1,,,,,,,,
,,,,,,,,,,,,,FF,,,,,,,,0.65,,,,,,,,,,,,,,,,,,,,,,6102050090041d90dc5413f3,61036a27990ef8339d1e8cd7,2021-07-29_21h56.27.153,Simcolourproject_2stim_asymm_v5,2020.2.10,Win32,60,61025ae37ef11b136ea224fe,,,,,,,,,112,37,89,1,0,0,response1disk,,7,-5,0,1,0,0,rectangle,-5,0,1,0,0,-5,0,1,0,0,1,123,283,120,1,,,,,,,,
,,,,,,,,,,,,,FF,,,,,,,,0.833,,,,,,,,,,,,,,,,,,,,,,6102050090041d90dc5413f3,61036a27990ef8339d1e8cd7,2021-07-29_21h56.27.153,Simcolourproject_2stim_asymm_v5,2020.2.10,Win32,60,61025ae37ef11b136ea224fe,,,,,,,,,3224,41,91,1,0,0,response1disk,,7,-3,-3,1,0,0,rectangle,-3,-3,1,0,0,-3,-3,1,0,0,1,124,284,157,1,,,,,,,,
,,,,,,,,,,,,,FF,,,,,,,,0.582,,,,,,,,,,,,,,,,,,,,,,6102050090041d90dc5413f3,61036a27990ef8339d1e8cd7,2021-07-29_21h56.27.153,Simcolourproject_2stim_asymm_v5,2020.2.10,Win32,60,61025ae37ef11b136ea224fe,,,,,,,,,2979,44,81,1,0,0,response1disk,,7,0,4,1,0,0,rectangle,0,4,1,0,0,0,4,1,0,0,1,125,285,3,1,,,,,,,,
,,,,,,,,,,,,,FF,,,,,,,,0.866,,,,,,,,,,,,,,,,,,,,,,6102050090041d90dc5413f3,61036a27990ef8339d1e8cd7,2021-07-29_21h56.27.153,Simcolourproject_2stim_asymm_v5,2020.2.10,Win32,60,61025ae37ef11b136ea224fe,,,,,,,,,3565,67,-56,1,0,0,response3disk,,5,-14,2,1,0,0,rectangle,47,-114,1,0,0,9,10,1,0,0,1,126,286,37,1,,response3disk_3,TRUE,4,4,"[58,75,17,9,181,51,287,180,308,149,118,69,224,62,238,298,315,201,184,41]",1.285,rectangle
,,,,,,,,,,,,,FF,,,,,,,,0.999,,,,,,,,,,,,,,,,,,,,,,6102050090041d90dc5413f3,61036a27990ef8339d1e8cd7,2021-07-29_21h56.27.153,Simcolourproject_2stim_asymm_v5,2020.2.10,Win32,60,61025ae37ef11b136ea224fe,,,,,,,,,1700,49,81,1,0,0,response1disk,,7,-4,11,1,0,0,rectangle,-4,11,1,0,0,-4,11,1,0,0,1,127,287,25,1,,,,,,,,
,,,,,,,,,,,,,FF,,,,,,,,0.601,,,,,,,,,,,,,,,,,,,,,,6102050090041d90dc5413f3,61036a27990ef8339d1e8cd7,2021-07-29_21h56.27.153,Simcolourproject_2stim_asymm_v5,2020.2.10,Win32,60,61025ae37ef11b136ea224fe,,,,,,,,,783,40,82,1,0,0,response1disk,,7,-8,4,1,0,0,rectangle,-8,4,1,0,0,-8,4,1,0,0,1,128,288,127,1,,,,,,,,
,,,,,,,,,,,,,FF,,,,,,,,0.551,,,,,,,,,,,,,,,,,,,,,,6102050090041d90dc5413f3,61036a27990ef8339d1e8cd7,2021-07-29_21h56.27.153,Simcolourproject_2stim_asymm_v5,2020.2.10,Win32,60,61025ae37ef11b136ea224fe,,,,,,,,,2806,41,85,1,0,0,response1disk,,7,2,7,1,0,0,rectangle,2,7,1,0,0,2,7,1,0,0,1,129,289,76,1,,,,,,,,
,,,,,,,,,,,,,FF,,,,,,,,1.617,,,,,,,,,,,,,,,,,,,,,,6102050090041d90dc5413f3,61036a27990ef8339d1e8cd7,2021-07-29_21h56.27.153,Simcolourproject_2stim_asymm_v5,2020.2.10,Win32,60,61025ae37ef11b136ea224fe,,,,,,,,,3104,-70,-20,1,0,0,response5disk,,2,-2,5,1,0,0,rectangle,-2,5,1,0,0,-2,5,1,0,0,1,130,290,18,1,,,,,,,,
,,,,,,,,,,,,,FF,,,,,,,,0.934,,,,,,,,,,,,,,,,,,,,,,6102050090041d90dc5413f3,61036a27990ef8339d1e8cd7,2021-07-29_21h56.27.153,Simcolourproject_2stim_asymm_v5,2020.2.10,Win32,60,61025ae37ef11b136ea224fe,,,,,,,,,3233,55,-20,1,0,0,response3disk,,5,6,-1,1,0,0,rectangle,6,-1,1,0,0,6,-1,1,0,0,1,131,291,111,1,,,,,,,,
,,,,,,,,,,,,,FF,,,,,,,,0.934,,,,,,,,,,,,,,,,,,,,,,6102050090041d90dc5413f3,61036a27990ef8339d1e8cd7,2021-07-29_21h56.27.153,Simcolourproject_2stim_asymm_v5,2020.2.10,Win32,60,61025ae37ef11b136ea224fe,,,,,,,,,2041,-62,-101,1,0,0,response5disk,,3,-13,-4,1,0,0,rectangle,-13,-4,1,0,0,-13,-4,1,0,0,1,132,292,78,1,,,,,,,,
,,,,,,,,,,,,,FF,,,,,,,,0.533,,,,,,,,,,,,,,,,,,,,,,6102050090041d90dc5413f3,61036a27990ef8339d1e8cd7,2021-07-29_21h56.27.153,Simcolourproject_2stim_asymm_v5,2020.2.10,Win32,60,61025ae37ef11b136ea224fe,,,,,,,,,3175,31,64,1,0,0,response1disk,,7,1,6,1,0,0,rectangle,1,6,1,0,0,1,6,1,0,0,1,133,293,141,1,,,,,,,,
,,,,,,,,,,,,,FF,,,,,,,,0.533,,,,,,,,,,,,,,,,,,,,,,6102050090041d90dc5413f3,61036a27990ef8339d1e8cd7,2021-07-29_21h56.27.153,Simcolourproject_2stim_asymm_v5,2020.2.10,Win32,60,61025ae37ef11b136ea224fe,,,,,,,,,3077,20,90,1,0,0,response1disk,,7,-9,3,1,0,0,rectangle,-9,3,1,0,0,-9,3,1,0,0,1,134,294,38,1,,,,,,,,
,,,,,,,,,,,,,FF,,,,,,,,0.734,,,,,,,,,,,,,,,,,,,,,,6102050090041d90dc5413f3,61036a27990ef8339d1e8cd7,2021-07-29_21h56.27.153,Simcolourproject_2stim_asymm_v5,2020.2.10,Win32,60,61025ae37ef11b136ea224fe,,,,,,,,,2588,57,117,1,0,0,response1disk,,7,-4,5,1,0,0,rectangle,-4,5,1,0,0,-4,5,1,0,0,1,135,295,31,1,,,,,,,,
,,,,,,,,,,,,,FF,,,,,,,,1.449,,,,,,,,,,,,,,,,,,,,,,6102050090041d90dc5413f3,61036a27990ef8339d1e8cd7,2021-07-29_21h56.27.153,Simcolourproject_2stim_asymm_v5,2020.2.10,Win32,60,61025ae37ef11b136ea224fe,,,,,,,,,1063,-69,-36,1,0,0,response5disk,,2,-4,2,1,0,0,rectangle,-4,2,1,0,0,-4,2,1,0,0,1,136,296,20,1,,,,,,,,
,,,,,,,,,,,,,FF,,,,,,,,0.516,,,,,,,,,,,,,,,,,,,,,,6102050090041d90dc5413f3,61036a27990ef8339d1e8cd7,2021-07-29_21h56.27.153,Simcolourproject_2stim_asymm_v5,2020.2.10,Win32,60,61025ae37ef11b136ea224fe,,,,,,,,,297,37,52,1,0,0,response1disk,,7,-6,-8,1,0,0,rectangle,-32,-60,1,0,0,18,11,1,0,0,1,137,297,42,1,,response5disk_3,TRUE,3,3,"[58,75,17,9,181,51,287,180,308,149,118,69,224,62,238,298,315,201,184,41]",2.1,rectangle
,,,,,,,,,,,,,FF,,,,,,,,0.85,,,,,,,,,,,,,,,,,,,,,,6102050090041d90dc5413f3,61036a27990ef8339d1e8cd7,2021-07-29_21h56.27.153,Simcolourproject_2stim_asymm_v5,2020.2.10,Win32,60,61025ae37ef11b136ea224fe,,,,,,,,,2865,36,60,1,0,0,response1disk,,7,3,-12,1,0,0,rectangle,3,-12,1,0,0,3,-12,1,0,0,1,138,298,147,1,,,,,,,,
,,,,,,,,,,,,,FF,,,,,,,,0.915,,,,,,,,,,,,,,,,,,,,,,6102050090041d90dc5413f3,61036a27990ef8339d1e8cd7,2021-07-29_21h56.27.153,Simcolourproject_2stim_asymm_v5,2020.2.10,Win32,60,61025ae37ef11b136ea224fe,,,,,,,,,3678,31,-87,1,0,0,response3disk,,4,6,-8,1,0,0,rectangle,6,-8,1,0,0,6,-8,1,0,0,1,139,299,46,1,,,,,,,,
,,,,,,,,,,,,,FF,,,,,,,,0.85,,,,,,,,,,,,,,,,,,,,,,6102050090041d90dc5413f3,61036a27990ef8339d1e8cd7,2021-07-29_21h56.27.153,Simcolourproject_2stim_asymm_v5,2020.2.10,Win32,60,61025ae37ef11b136ea224fe,,,,,,,,,2049,88,52,1,0,0,response1disk,,6,15,-3,1,0,0,rectangle,15,-3,1,0,0,15,-3,1,0,0,1,140,300,80,1,,,,,,,,
,,,,,,,,,,,,,FF,,,,,,,,0.875,,,,,,,,,,,,,,,,,,,,,,6102050090041d90dc5413f3,61036a27990ef8339d1e8cd7,2021-07-29_21h56.27.153,Simcolourproject_2stim_asymm_v5,2020.2.10,Win32,60,61025ae37ef11b136ea224fe,,,,,,,,,1294,-24,-66,1,0,0,response5disk,,3,11,4,1,0,0,rectangle,11,4,1,0,0,11,4,1,0,0,1,141,301,53,1,,,,,,,,
,,,,,,,,,,,,,FF,,,,,,,,0.732,,,,,,,,,,,,,,,,,,,,,,6102050090041d90dc5413f3,61036a27990ef8339d1e8cd7,2021-07-29_21h56.27.153,Simcolourproject_2stim_asymm_v5,2020.2.10,Win32,60,61025ae37ef11b136ea224fe,,,,,,,,,623,-38,-78,1,0,0,response5disk,,3,5,-4,1,0,0,rectangle,5,-4,1,0,0,5,-4,1,0,0,1,142,302,126,1,,,,,,,,
,,,,,,,,,,,,,FF,,,,,,,,0.632,,,,,,,,,,,,,,,,,,,,,,6102050090041d90dc5413f3,61036a27990ef8339d1e8cd7,2021-07-29_21h56.27.153,Simcolourproject_2stim_asymm_v5,2020.2.10,Win32,60,61025ae37ef11b136ea224fe,,,,,,,,,3320,42,92,1,0,0,response1disk,,7,3,10,1,0,0,rectangle,3,10,1,0,0,3,10,1,0,0,1,143,303,82,1,,,,,,,,
,,,,,,,,,,,,,FF,,,,,,,,0.717,,,,,,,,,,,,,,,,,,,,,,6102050090041d90dc5413f3,61036a27990ef8339d1e8cd7,2021-07-29_21h56.27.153,Simcolourproject_2stim_asymm_v5,2020.2.10,Win32,60,61025ae37ef11b136ea224fe,,,,,,,,,2129,56,-43,1,0,0,response3disk,,5,10,-5,1,0,0,rectangle,10,-5,1,0,0,10,-5,1,0,0,1,144,304,52,1,,,,,,,,
