key_resp.keys,key_resp.rt,key_resp_14.keys,key_resp_14.rt,key_resp_15.keys,key_resp_15.rt,key_resp_17.keys,key_resp_17.rt,key_resp_9.keys,key_resp_9.rt,key_resp_10.keys,key_resp_10.rt,practice_comparison,Ecc,mouse_5.x,mouse_5.y,mouse_5.leftButton,mouse_5.midButton,mouse_5.rightButton,mouse_5.clicked_name,pracsimilarity,response_time,mouse_10.x,mouse_10.y,mouse_10.leftButton,mouse_10.midButton,mouse_10.rightButton,mouse_10.clicked_name,mouse_7.x,mouse_7.y,mouse_7.leftButton,mouse_7.midButton,mouse_7.rightButton,mouse_6.x,mouse_6.y,mouse_6.leftButton,mouse_6.midButton,mouse_6.rightButton,duringprac.thisRepN,duringprac.thisTrialN,duringprac.thisN,duringprac.thisIndex,duringprac.ran,participant,session,date,expName,psychopyVersion,OS,frameRate,study_id,mouse_7.clicked_name,catchpracsimilarity,catch_response_time,catchnumberprac,catchtrialorderprac,mouse_6.clicked_name,key_resp_22.keys,key_resp_22.rt,realcomparison,mouse.x,mouse.y,mouse.leftButton,mouse.midButton,mouse.rightButton,mouse.clicked_name,Colour2,similarity,mouse_2.x,mouse_2.y,mouse_2.leftButton,mouse_2.midButton,mouse_2.rightButton,mouse_2.clicked_name,mouse_3.x,mouse_3.y,mouse_3.leftButton,mouse_3.midButton,mouse_3.rightButton,mouse_11.x,mouse_11.y,mouse_11.leftButton,mouse_11.midButton,mouse_11.rightButton,trials_2.thisRepN,trials_2.thisTrialN,trials_2.thisN,trials_2.thisIndex,trials_2.ran,Colour1,mouse_3.clicked_name,catchornah,catchsimilarity,catchnumber,catchtrialorder,catchRT,mouse_11.clicked_name
space,1.092,space,3.505,space,17.872,space,11.109,space,1.259,space,5.626,16,FF,-37,-90,1,0,0,response5disk_5,3,7.636,1,-1,1,0,0,rectangle_8,1,-1,1,0,0,1,-1,1,0,0,0,0,0,0,1,6102e877042872b030f90bb6,61036a5db33d786f994eba7c,2021-07-29_21h59.45.436,Simcolourproject_2stim_asymm_v5,2020.2.10,MacIntel,60,61025ae37ef11b136ea224fe,,,,,,,,,,,,,,,,,,,,,,,,,,,,,,,,,,,,,,,,,,,,,,
,,,,,,,,,,,,26,PF,37,58,1,0,0,response1disk_5,7,1.567,10,0,1,0,0,rectangle_8,99,-41,1,0,0,12,-5,1,0,0,0,1,1,4,1,6102e877042872b030f90bb6,61036a5db33d786f994eba7c,2021-07-29_21h59.45.436,Simcolourproject_2stim_asymm_v5,2020.2.10,MacIntel,60,61025ae37ef11b136ea224fe,response3disk_7,5,2.8,5,"[2,5]",rectangle_4,,,,,,,,,,,,,,,,,,,,,,,,,,,,,,,,,,,,,,,,
,,,,,,,,,,,,129,FF,-70,48,1,0,0,response7disk_5,1,2.333,-9,-1,1,0,0,rectangle_8,-9,-1,1,0,0,-9,-1,1,0,0,0,2,2,3,1,6102e877042872b030f90bb6,61036a5db33d786f994eba7c,2021-07-29_21h59.45.436,Simcolourproject_2stim_asymm_v5,2020.2.10,MacIntel,60,61025ae37ef11b136ea224fe,,,,,,,,,,,,,,,,,,,,,,,,,,,,,,,,,,,,,,,,,,,,,,
,,,,,,,,,,,,65,FF,-58,-35,1,0,0,response5disk_5,2,1.651,-1,2,1,0,0,rectangle_8,-1,2,1,0,0,-1,2,1,0,0,0,3,3,5,1,6102e877042872b030f90bb6,61036a5db33d786f994eba7c,2021-07-29_21h59.45.436,Simcolourproject_2stim_asymm_v5,2020.2.10,MacIntel,60,61025ae37ef11b136ea224fe,,,,,,,,,,,,,,,,,,,,,,,,,,,,,,,,,,,,,,,,,,,,,,
,,,,,,,,,,,,134,PF,-31,-71,1,0,0,response5disk_5,3,1.333,6,-7,1,0,0,rectangle_8,71,-30,1,0,0,13,2,1,0,0,0,4,4,1,1,6102e877042872b030f90bb6,61036a5db33d786f994eba7c,2021-07-29_21h59.45.436,Simcolourproject_2stim_asymm_v5,2020.2.10,MacIntel,60,61025ae37ef11b136ea224fe,response3disk_7,5,1.484,5,"[2,5]",rectangle_4,,,,,,,,,,,,,,,,,,,,,,,,,,,,,,,,,,,,,,,,
,,,,,,,,,,,,35,PF,-57,-49,1,0,0,response5disk_5,2,1.451,1,-3,1,0,0,rectangle_8,1,-3,1,0,0,1,-3,1,0,0,0,5,5,6,1,6102e877042872b030f90bb6,61036a5db33d786f994eba7c,2021-07-29_21h59.45.436,Simcolourproject_2stim_asymm_v5,2020.2.10,MacIntel,60,61025ae37ef11b136ea224fe,,,,,,,,,,,,,,,,,,,,,,,,,,,,,,,,,,,,,,,,,,,,,,
,,,,,,,,,,,,65,PF,-30,-91,1,0,0,response5disk_5,3,0.95,13,7,1,0,0,rectangle_8,13,7,1,0,0,13,7,1,0,0,0,6,6,2,1,6102e877042872b030f90bb6,61036a5db33d786f994eba7c,2021-07-29_21h59.45.436,Simcolourproject_2stim_asymm_v5,2020.2.10,MacIntel,60,61025ae37ef11b136ea224fe,,,,,,,,,,,,,,,,,,,,,,,,,,,,,,,,,,,,,,,,,,,,,,
,,,,,,,,,,,,,FF,,,,,,,,1.207,,,,,,,,,,,,,,,,,,,,,,6102e877042872b030f90bb6,61036a5db33d786f994eba7c,2021-07-29_21h59.45.436,Simcolourproject_2stim_asymm_v5,2020.2.10,MacIntel,60,61025ae37ef11b136ea224fe,,,,,,,space,2.734,2396,71,33,1,0,0,response1disk,,6,7,-3,1,0,0,rectangle,7,-3,1,0,0,7,-3,1,0,0,0,0,0,139,1,,,,,,,,
,,,,,,,,,,,,,FF,,,,,,,,1.133,,,,,,,,,,,,,,,,,,,,,,6102e877042872b030f90bb6,61036a5db33d786f994eba7c,2021-07-29_21h59.45.436,Simcolourproject_2stim_asymm_v5,2020.2.10,MacIntel,60,61025ae37ef11b136ea224fe,,,,,,,,,4286,69,79,1,0,0,response1disk,,7,2,-6,1,0,0,rectangle,2,-6,1,0,0,2,-6,1,0,0,0,1,1,129,1,,,,,,,,
,,,,,,,,,,,,,FF,,,,,,,,3.417,,,,,,,,,,,,,,,,,,,,,,6102e877042872b030f90bb6,61036a5db33d786f994eba7c,2021-07-29_21h59.45.436,Simcolourproject_2stim_asymm_v5,2020.2.10,MacIntel,60,61025ae37ef11b136ea224fe,,,,,,,,,865,74,-35,1,0,0,response3disk,,5,20,-3,1,0,0,rectangle,20,-3,1,0,0,20,-3,1,0,0,0,2,2,8,1,,,,,,,,
,,,,,,,,,,,,,FF,,,,,,,,2.533,,,,,,,,,,,,,,,,,,,,,,6102e877042872b030f90bb6,61036a5db33d786f994eba7c,2021-07-29_21h59.45.436,Simcolourproject_2stim_asymm_v5,2020.2.10,MacIntel,60,61025ae37ef11b136ea224fe,,,,,,,,,644,76,-34,1,0,0,response3disk,,5,27,-3,1,0,0,rectangle,27,-3,1,0,0,27,-3,1,0,0,0,3,3,33,1,,,,,,,,
,,,,,,,,,,,,,FF,,,,,,,,1.1,,,,,,,,,,,,,,,,,,,,,,6102e877042872b030f90bb6,61036a5db33d786f994eba7c,2021-07-29_21h59.45.436,Simcolourproject_2stim_asymm_v5,2020.2.10,MacIntel,60,61025ae37ef11b136ea224fe,,,,,,,,,873,43,-75,1,0,0,response3disk,,4,9,3,1,0,0,rectangle,9,3,1,0,0,9,3,1,0,0,0,4,4,154,1,,,,,,,,
,,,,,,,,,,,,,FF,,,,,,,,2.45,,,,,,,,,,,,,,,,,,,,,,6102e877042872b030f90bb6,61036a5db33d786f994eba7c,2021-07-29_21h59.45.436,Simcolourproject_2stim_asymm_v5,2020.2.10,MacIntel,60,61025ae37ef11b136ea224fe,,,,,,,,,3758,87,41,1,0,0,response1disk,,6,26,5,1,0,0,rectangle,26,5,1,0,0,26,5,1,0,0,0,5,5,77,1,,,,,,,,
,,,,,,,,,,,,,FF,,,,,,,,1.05,,,,,,,,,,,,,,,,,,,,,,6102e877042872b030f90bb6,61036a5db33d786f994eba7c,2021-07-29_21h59.45.436,Simcolourproject_2stim_asymm_v5,2020.2.10,MacIntel,60,61025ae37ef11b136ea224fe,,,,,,,,,945,52,-30,1,0,0,response3disk,,5,11,4,1,0,0,rectangle,11,4,1,0,0,11,4,1,0,0,0,6,6,58,1,,,,,,,,
,,,,,,,,,,,,,FF,,,,,,,,3.833,,,,,,,,,,,,,,,,,,,,,,6102e877042872b030f90bb6,61036a5db33d786f994eba7c,2021-07-29_21h59.45.436,Simcolourproject_2stim_asymm_v5,2020.2.10,MacIntel,60,61025ae37ef11b136ea224fe,,,,,,,,,3405,62,38,1,0,0,response1disk,,6,8,0,1,0,0,rectangle,8,0,1,0,0,8,0,1,0,0,0,7,7,7,1,,,,,,,,
,,,,,,,,,,,,,FF,,,,,,,,2.466,,,,,,,,,,,,,,,,,,,,,,6102e877042872b030f90bb6,61036a5db33d786f994eba7c,2021-07-29_21h59.45.436,Simcolourproject_2stim_asymm_v5,2020.2.10,MacIntel,60,61025ae37ef11b136ea224fe,,,,,,,,,371,-33,-76,1,0,0,response5disk,,3,-5,-4,1,0,0,rectangle,-5,-4,1,0,0,-5,-4,1,0,0,0,8,8,69,1,,,,,,,,
,,,,,,,,,,,,,FF,,,,,,,,1.05,,,,,,,,,,,,,,,,,,,,,,6102e877042872b030f90bb6,61036a5db33d786f994eba7c,2021-07-29_21h59.45.436,Simcolourproject_2stim_asymm_v5,2020.2.10,MacIntel,60,61025ae37ef11b136ea224fe,,,,,,,,,2296,-32,-80,1,0,0,response5disk,,3,4,-3,1,0,0,rectangle,4,-3,1,0,0,4,-3,1,0,0,0,9,9,47,1,,,,,,,,
,,,,,,,,,,,,,FF,,,,,,,,1.317,,,,,,,,,,,,,,,,,,,,,,6102e877042872b030f90bb6,61036a5db33d786f994eba7c,2021-07-29_21h59.45.436,Simcolourproject_2stim_asymm_v5,2020.2.10,MacIntel,60,61025ae37ef11b136ea224fe,,,,,,,,,1646,37,75,1,0,0,response1disk,,7,5,2,1,0,0,rectangle,5,2,1,0,0,5,2,1,0,0,0,10,10,138,1,,,,,,,,
,,,,,,,,,,,,,FF,,,,,,,,14.25,,,,,,,,,,,,,,,,,,,,,,6102e877042872b030f90bb6,61036a5db33d786f994eba7c,2021-07-29_21h59.45.436,Simcolourproject_2stim_asymm_v5,2020.2.10,MacIntel,60,61025ae37ef11b136ea224fe,,,,,,,,,1996,-34,-61,1,0,0,response5disk,,3,15,0,1,0,0,rectangle,15,0,1,0,0,15,0,1,0,0,0,11,11,75,1,,,,,,,,
,,,,,,,,,,,,,FF,,,,,,,,0.783,,,,,,,,,,,,,,,,,,,,,,6102e877042872b030f90bb6,61036a5db33d786f994eba7c,2021-07-29_21h59.45.436,Simcolourproject_2stim_asymm_v5,2020.2.10,MacIntel,60,61025ae37ef11b136ea224fe,,,,,,,,,3450,68,-25,1,0,0,response3disk,,5,21,-7,1,0,0,rectangle,21,-7,1,0,0,21,-7,1,0,0,0,12,12,136,1,,,,,,,,
,,,,,,,,,,,,,FF,,,,,,,,1.416,,,,,,,,,,,,,,,,,,,,,,6102e877042872b030f90bb6,61036a5db33d786f994eba7c,2021-07-29_21h59.45.436,Simcolourproject_2stim_asymm_v5,2020.2.10,MacIntel,60,61025ae37ef11b136ea224fe,,,,,,,,,203,-36,-68,1,0,0,response5disk,,3,-2,-7,1,0,0,rectangle,-2,-7,1,0,0,-2,-7,1,0,0,0,13,13,94,1,,,,,,,,
,,,,,,,,,,,,,FF,,,,,,,,0.95,,,,,,,,,,,,,,,,,,,,,,6102e877042872b030f90bb6,61036a5db33d786f994eba7c,2021-07-29_21h59.45.436,Simcolourproject_2stim_asymm_v5,2020.2.10,MacIntel,60,61025ae37ef11b136ea224fe,,,,,,,,,1162,43,-59,1,0,0,response3disk,,4,22,-1,1,0,0,rectangle,22,-1,1,0,0,22,-1,1,0,0,0,14,14,5,1,,,,,,,,
,,,,,,,,,,,,,FF,,,,,,,,0.583,,,,,,,,,,,,,,,,,,,,,,6102e877042872b030f90bb6,61036a5db33d786f994eba7c,2021-07-29_21h59.45.436,Simcolourproject_2stim_asymm_v5,2020.2.10,MacIntel,60,61025ae37ef11b136ea224fe,,,,,,,,,933,52,-26,1,0,0,response3disk,,5,4,-10,1,0,0,rectangle,4,-10,1,0,0,4,-10,1,0,0,0,15,15,71,1,,,,,,,,
,,,,,,,,,,,,,FF,,,,,,,,1.05,,,,,,,,,,,,,,,,,,,,,,6102e877042872b030f90bb6,61036a5db33d786f994eba7c,2021-07-29_21h59.45.436,Simcolourproject_2stim_asymm_v5,2020.2.10,MacIntel,60,61025ae37ef11b136ea224fe,,,,,,,,,2490,-40,-75,1,0,0,response5disk,,3,15,3,1,0,0,rectangle,15,3,1,0,0,15,3,1,0,0,0,16,16,36,1,,,,,,,,
,,,,,,,,,,,,,FF,,,,,,,,0.683,,,,,,,,,,,,,,,,,,,,,,6102e877042872b030f90bb6,61036a5db33d786f994eba7c,2021-07-29_21h59.45.436,Simcolourproject_2stim_asymm_v5,2020.2.10,MacIntel,60,61025ae37ef11b136ea224fe,,,,,,,,,3316,50,56,1,0,0,response1disk,,7,20,7,1,0,0,rectangle,20,7,1,0,0,20,7,1,0,0,0,17,17,125,1,,,,,,,,
,,,,,,,,,,,,,FF,,,,,,,,0.533,,,,,,,,,,,,,,,,,,,,,,6102e877042872b030f90bb6,61036a5db33d786f994eba7c,2021-07-29_21h59.45.436,Simcolourproject_2stim_asymm_v5,2020.2.10,MacIntel,60,61025ae37ef11b136ea224fe,,,,,,,,,3397,82,20,1,0,0,response1disk,,6,15,-16,1,0,0,rectangle,15,-16,1,0,0,15,-16,1,0,0,0,18,18,54,1,,,,,,,,
,,,,,,,,,,,,,FF,,,,,,,,0.55,,,,,,,,,,,,,,,,,,,,,,6102e877042872b030f90bb6,61036a5db33d786f994eba7c,2021-07-29_21h59.45.436,Simcolourproject_2stim_asymm_v5,2020.2.10,MacIntel,60,61025ae37ef11b136ea224fe,,,,,,,,,4125,53,-73,1,0,0,response3disk,,4,6,15,1,0,0,rectangle,6,15,1,0,0,6,15,1,0,0,0,19,19,74,1,,,,,,,,
,,,,,,,,,,,,,FF,,,,,,,,0.4,,,,,,,,,,,,,,,,,,,,,,6102e877042872b030f90bb6,61036a5db33d786f994eba7c,2021-07-29_21h59.45.436,Simcolourproject_2stim_asymm_v5,2020.2.10,MacIntel,60,61025ae37ef11b136ea224fe,,,,,,,,,242,69,42,1,0,0,response1disk,,6,20,-12,1,0,0,rectangle,20,-12,1,0,0,20,-12,1,0,0,0,20,20,26,1,,,,,,,,
,,,,,,,,,,,,,FF,,,,,,,,0.251,,,,,,,,,,,,,,,,,,,,,,6102e877042872b030f90bb6,61036a5db33d786f994eba7c,2021-07-29_21h59.45.436,Simcolourproject_2stim_asymm_v5,2020.2.10,MacIntel,60,61025ae37ef11b136ea224fe,,,,,,,,,1874,35,-51,1,0,0,response3disk,,4,12,2,1,0,0,rectangle,12,2,1,0,0,12,2,1,0,0,0,21,21,142,1,,,,,,,,
,,,,,,,,,,,,,FF,,,,,,,,0.417,,,,,,,,,,,,,,,,,,,,,,6102e877042872b030f90bb6,61036a5db33d786f994eba7c,2021-07-29_21h59.45.436,Simcolourproject_2stim_asymm_v5,2020.2.10,MacIntel,60,61025ae37ef11b136ea224fe,,,,,,,,,1238,-32,-25,1,0,0,response5disk,,2,2,6,1,0,0,rectangle,2,6,1,0,0,2,6,1,0,0,0,22,22,48,1,,,,,,,,
,,,,,,,,,,,,,FF,,,,,,,,0.299,,,,,,,,,,,,,,,,,,,,,,6102e877042872b030f90bb6,61036a5db33d786f994eba7c,2021-07-29_21h59.45.436,Simcolourproject_2stim_asymm_v5,2020.2.10,MacIntel,60,61025ae37ef11b136ea224fe,,,,,,,,,1911,-44,-49,1,0,0,response5disk,,3,5,5,1,0,0,rectangle,5,5,1,0,0,5,5,1,0,0,0,23,23,1,1,,,,,,,,
,,,,,,,,,,,,,FF,,,,,,,,0.816,,,,,,,,,,,,,,,,,,,,,,6102e877042872b030f90bb6,61036a5db33d786f994eba7c,2021-07-29_21h59.45.436,Simcolourproject_2stim_asymm_v5,2020.2.10,MacIntel,60,61025ae37ef11b136ea224fe,,,,,,,,,151,52,30,1,0,0,response1disk,,6,9,11,1,0,0,rectangle,9,11,1,0,0,9,11,1,0,0,0,24,24,80,1,,,,,,,,
,,,,,,,,,,,,,FF,,,,,,,,0.25,,,,,,,,,,,,,,,,,,,,,,6102e877042872b030f90bb6,61036a5db33d786f994eba7c,2021-07-29_21h59.45.436,Simcolourproject_2stim_asymm_v5,2020.2.10,MacIntel,60,61025ae37ef11b136ea224fe,,,,,,,,,25,26,-71,1,0,0,response3disk,,4,9,4,1,0,0,rectangle,9,4,1,0,0,9,4,1,0,0,0,25,25,121,1,,,,,,,,
,,,,,,,,,,,,,FF,,,,,,,,0.283,,,,,,,,,,,,,,,,,,,,,,6102e877042872b030f90bb6,61036a5db33d786f994eba7c,2021-07-29_21h59.45.436,Simcolourproject_2stim_asymm_v5,2020.2.10,MacIntel,60,61025ae37ef11b136ea224fe,,,,,,,,,3028,65,26,1,0,0,response1disk,,6,17,6,1,0,0,rectangle,17,6,1,0,0,17,6,1,0,0,0,26,26,156,1,,,,,,,,
,,,,,,,,,,,,,FF,,,,,,,,0.218,,,,,,,,,,,,,,,,,,,,,,6102e877042872b030f90bb6,61036a5db33d786f994eba7c,2021-07-29_21h59.45.436,Simcolourproject_2stim_asymm_v5,2020.2.10,MacIntel,60,61025ae37ef11b136ea224fe,,,,,,,,,3883,76,-62,1,0,0,response3disk,,5,-2,4,1,0,0,rectangle,-2,4,1,0,0,-2,4,1,0,0,0,27,27,24,1,,,,,,,,
,,,,,,,,,,,,,FF,,,,,,,,0.235,,,,,,,,,,,,,,,,,,,,,,6102e877042872b030f90bb6,61036a5db33d786f994eba7c,2021-07-29_21h59.45.436,Simcolourproject_2stim_asymm_v5,2020.2.10,MacIntel,60,61025ae37ef11b136ea224fe,,,,,,,,,3420,70,25,1,0,0,response1disk,,6,18,-3,1,0,0,rectangle,18,-3,1,0,0,18,-3,1,0,0,0,28,28,16,1,,,,,,,,
,,,,,,,,,,,,,FF,,,,,,,,0.301,,,,,,,,,,,,,,,,,,,,,,6102e877042872b030f90bb6,61036a5db33d786f994eba7c,2021-07-29_21h59.45.436,Simcolourproject_2stim_asymm_v5,2020.2.10,MacIntel,60,61025ae37ef11b136ea224fe,,,,,,,,,336,42,-71,1,0,0,response3disk,,4,17,12,1,0,0,rectangle,17,12,1,0,0,17,12,1,0,0,0,29,29,105,1,,,,,,,,
,,,,,,,,,,,,,FF,,,,,,,,0.25,,,,,,,,,,,,,,,,,,,,,,6102e877042872b030f90bb6,61036a5db33d786f994eba7c,2021-07-29_21h59.45.436,Simcolourproject_2stim_asymm_v5,2020.2.10,MacIntel,60,61025ae37ef11b136ea224fe,,,,,,,,,3521,34,67,1,0,0,response1disk,,7,13,-4,1,0,0,rectangle,13,-4,1,0,0,13,-4,1,0,0,0,30,30,3,1,,,,,,,,
,,,,,,,,,,,,,FF,,,,,,,,0.417,,,,,,,,,,,,,,,,,,,,,,6102e877042872b030f90bb6,61036a5db33d786f994eba7c,2021-07-29_21h59.45.436,Simcolourproject_2stim_asymm_v5,2020.2.10,MacIntel,60,61025ae37ef11b136ea224fe,,,,,,,,,67,70,20,1,0,0,response1disk,,6,16,-2,1,0,0,rectangle,16,-2,1,0,0,16,-2,1,0,0,0,31,31,78,1,,,,,,,,
,,,,,,,,,,,,,FF,,,,,,,,0.317,,,,,,,,,,,,,,,,,,,,,,6102e877042872b030f90bb6,61036a5db33d786f994eba7c,2021-07-29_21h59.45.436,Simcolourproject_2stim_asymm_v5,2020.2.10,MacIntel,60,61025ae37ef11b136ea224fe,,,,,,,,,995,43,-70,1,0,0,response3disk,,4,8,6,1,0,0,rectangle,8,6,1,0,0,8,6,1,0,0,0,32,32,68,1,,,,,,,,
,,,,,,,,,,,,,FF,,,,,,,,0.3,,,,,,,,,,,,,,,,,,,,,,6102e877042872b030f90bb6,61036a5db33d786f994eba7c,2021-07-29_21h59.45.436,Simcolourproject_2stim_asymm_v5,2020.2.10,MacIntel,60,61025ae37ef11b136ea224fe,,,,,,,,,2574,65,46,1,0,0,response1disk,,6,24,2,1,0,0,rectangle,34,-75,1,0,0,9,1,1,0,0,0,33,33,42,1,,response3disk_3,TRUE,4,5,"[225,255,277,34,163,212,154,224,55,299,251,253,60,132,109,233,311,173,89,220]",0.732,rectangle
,,,,,,,,,,,,,FF,,,,,,,,0.533,,,,,,,,,,,,,,,,,,,,,,6102e877042872b030f90bb6,61036a5db33d786f994eba7c,2021-07-29_21h59.45.436,Simcolourproject_2stim_asymm_v5,2020.2.10,MacIntel,60,61025ae37ef11b136ea224fe,,,,,,,,,2455,56,-56,1,0,0,response3disk,,5,11,-16,1,0,0,rectangle,11,-16,1,0,0,11,-16,1,0,0,0,34,34,84,1,,,,,,,,
,,,,,,,,,,,,,FF,,,,,,,,0.549,,,,,,,,,,,,,,,,,,,,,,6102e877042872b030f90bb6,61036a5db33d786f994eba7c,2021-07-29_21h59.45.436,Simcolourproject_2stim_asymm_v5,2020.2.10,MacIntel,60,61025ae37ef11b136ea224fe,,,,,,,,,3286,-33,-64,1,0,0,response5disk,,3,1,0,1,0,0,rectangle,1,0,1,0,0,1,0,1,0,0,0,35,35,132,1,,,,,,,,
,,,,,,,,,,,,,FF,,,,,,,,0.699,,,,,,,,,,,,,,,,,,,,,,6102e877042872b030f90bb6,61036a5db33d786f994eba7c,2021-07-29_21h59.45.436,Simcolourproject_2stim_asymm_v5,2020.2.10,MacIntel,60,61025ae37ef11b136ea224fe,,,,,,,,,396,30,-68,1,0,0,response3disk,,4,2,1,1,0,0,rectangle,2,1,1,0,0,2,1,1,0,0,0,36,36,111,1,,,,,,,,
,,,,,,,,,,,,,FF,,,,,,,,0.433,,,,,,,,,,,,,,,,,,,,,,6102e877042872b030f90bb6,61036a5db33d786f994eba7c,2021-07-29_21h59.45.436,Simcolourproject_2stim_asymm_v5,2020.2.10,MacIntel,60,61025ae37ef11b136ea224fe,,,,,,,,,388,51,60,1,0,0,response1disk,,7,17,-2,1,0,0,rectangle,17,-2,1,0,0,17,-2,1,0,0,0,37,37,18,1,,,,,,,,
,,,,,,,,,,,,,FF,,,,,,,,1.267,,,,,,,,,,,,,,,,,,,,,,6102e877042872b030f90bb6,61036a5db33d786f994eba7c,2021-07-29_21h59.45.436,Simcolourproject_2stim_asymm_v5,2020.2.10,MacIntel,60,61025ae37ef11b136ea224fe,,,,,,,,,4341,-50,44,1,0,0,response7disk,,1,0,4,1,0,0,rectangle,0,4,1,0,0,0,4,1,0,0,0,38,38,118,1,,,,,,,,
,,,,,,,,,,,,,FF,,,,,,,,0.466,,,,,,,,,,,,,,,,,,,,,,6102e877042872b030f90bb6,61036a5db33d786f994eba7c,2021-07-29_21h59.45.436,Simcolourproject_2stim_asymm_v5,2020.2.10,MacIntel,60,61025ae37ef11b136ea224fe,,,,,,,,,2243,-26,48,1,0,0,response7disk,,0,-1,-17,1,0,0,rectangle,-1,-17,1,0,0,-1,-17,1,0,0,0,39,39,119,1,,,,,,,,
,,,,,,,,,,,,,FF,,,,,,,,0.251,,,,,,,,,,,,,,,,,,,,,,6102e877042872b030f90bb6,61036a5db33d786f994eba7c,2021-07-29_21h59.45.436,Simcolourproject_2stim_asymm_v5,2020.2.10,MacIntel,60,61025ae37ef11b136ea224fe,,,,,,,,,895,-39,-56,1,0,0,response5disk,,3,19,11,1,0,0,rectangle,19,11,1,0,0,19,11,1,0,0,0,40,40,150,1,,,,,,,,
,,,,,,,,,,,,,FF,,,,,,,,0.334,,,,,,,,,,,,,,,,,,,,,,6102e877042872b030f90bb6,61036a5db33d786f994eba7c,2021-07-29_21h59.45.436,Simcolourproject_2stim_asymm_v5,2020.2.10,MacIntel,60,61025ae37ef11b136ea224fe,,,,,,,,,660,43,-47,1,0,0,response3disk,,4,16,0,1,0,0,rectangle,16,0,1,0,0,16,0,1,0,0,0,41,41,10,1,,,,,,,,
,,,,,,,,,,,,,FF,,,,,,,,0.318,,,,,,,,,,,,,,,,,,,,,,6102e877042872b030f90bb6,61036a5db33d786f994eba7c,2021-07-29_21h59.45.436,Simcolourproject_2stim_asymm_v5,2020.2.10,MacIntel,60,61025ae37ef11b136ea224fe,,,,,,,,,3693,68,31,1,0,0,response1disk,,6,5,-9,1,0,0,rectangle,5,-9,1,0,0,5,-9,1,0,0,0,42,42,56,1,,,,,,,,
,,,,,,,,,,,,,FF,,,,,,,,0.652,,,,,,,,,,,,,,,,,,,,,,6102e877042872b030f90bb6,61036a5db33d786f994eba7c,2021-07-29_21h59.45.436,Simcolourproject_2stim_asymm_v5,2020.2.10,MacIntel,60,61025ae37ef11b136ea224fe,,,,,,,,,1110,-22,-54,1,0,0,response5disk,,3,-4,-14,1,0,0,rectangle,-4,-14,1,0,0,-4,-14,1,0,0,0,43,43,108,1,,,,,,,,
,,,,,,,,,,,,,FF,,,,,,,,0.2,,,,,,,,,,,,,,,,,,,,,,6102e877042872b030f90bb6,61036a5db33d786f994eba7c,2021-07-29_21h59.45.436,Simcolourproject_2stim_asymm_v5,2020.2.10,MacIntel,60,61025ae37ef11b136ea224fe,,,,,,,,,4083,-21,-63,1,0,0,response5disk,,3,10,-3,1,0,0,rectangle,10,-3,1,0,0,10,-3,1,0,0,0,44,44,4,1,,,,,,,,
,,,,,,,,,,,,,FF,,,,,,,,0.218,,,,,,,,,,,,,,,,,,,,,,6102e877042872b030f90bb6,61036a5db33d786f994eba7c,2021-07-29_21h59.45.436,Simcolourproject_2stim_asymm_v5,2020.2.10,MacIntel,60,61025ae37ef11b136ea224fe,,,,,,,,,3914,-25,-69,1,0,0,response5disk,,3,6,9,1,0,0,rectangle,6,9,1,0,0,6,9,1,0,0,0,45,45,137,1,,,,,,,,
,,,,,,,,,,,,,FF,,,,,,,,0.233,,,,,,,,,,,,,,,,,,,,,,6102e877042872b030f90bb6,61036a5db33d786f994eba7c,2021-07-29_21h59.45.436,Simcolourproject_2stim_asymm_v5,2020.2.10,MacIntel,60,61025ae37ef11b136ea224fe,,,,,,,,,820,-23,-56,1,0,0,response5disk,,3,5,-3,1,0,0,rectangle,5,-3,1,0,0,5,-3,1,0,0,0,46,46,76,1,,,,,,,,
,,,,,,,,,,,,,FF,,,,,,,,0.134,,,,,,,,,,,,,,,,,,,,,,6102e877042872b030f90bb6,61036a5db33d786f994eba7c,2021-07-29_21h59.45.436,Simcolourproject_2stim_asymm_v5,2020.2.10,MacIntel,60,61025ae37ef11b136ea224fe,,,,,,,,,2143,-26,-68,1,0,0,response5disk,,3,-2,-13,1,0,0,rectangle,-2,-13,1,0,0,-2,-13,1,0,0,0,47,47,34,1,,,,,,,,
,,,,,,,,,,,,,FF,,,,,,,,0.2,,,,,,,,,,,,,,,,,,,,,,6102e877042872b030f90bb6,61036a5db33d786f994eba7c,2021-07-29_21h59.45.436,Simcolourproject_2stim_asymm_v5,2020.2.10,MacIntel,60,61025ae37ef11b136ea224fe,,,,,,,,,3626,35,-62,1,0,0,response3disk,,4,14,-6,1,0,0,rectangle,14,-6,1,0,0,14,-6,1,0,0,0,48,48,62,1,,,,,,,,
,,,,,,,,,,,,,FF,,,,,,,,0.15,,,,,,,,,,,,,,,,,,,,,,6102e877042872b030f90bb6,61036a5db33d786f994eba7c,2021-07-29_21h59.45.436,Simcolourproject_2stim_asymm_v5,2020.2.10,MacIntel,60,61025ae37ef11b136ea224fe,,,,,,,,,845,57,30,1,0,0,response1disk,,6,11,5,1,0,0,rectangle,11,5,1,0,0,11,5,1,0,0,0,49,49,110,1,,,,,,,,
,,,,,,,,,,,,,FF,,,,,,,,0.185,,,,,,,,,,,,,,,,,,,,,,6102e877042872b030f90bb6,61036a5db33d786f994eba7c,2021-07-29_21h59.45.436,Simcolourproject_2stim_asymm_v5,2020.2.10,MacIntel,60,61025ae37ef11b136ea224fe,,,,,,,,,2775,45,-44,1,0,0,response3disk,,5,-12,5,1,0,0,rectangle,-12,5,1,0,0,-12,5,1,0,0,0,50,50,147,1,,,,,,,,
,,,,,,,,,,,,,FF,,,,,,,,0.266,,,,,,,,,,,,,,,,,,,,,,6102e877042872b030f90bb6,61036a5db33d786f994eba7c,2021-07-29_21h59.45.436,Simcolourproject_2stim_asymm_v5,2020.2.10,MacIntel,60,61025ae37ef11b136ea224fe,,,,,,,,,1949,-26,40,1,0,0,response7disk,,0,-9,-18,1,0,0,rectangle,-9,-18,1,0,0,-9,-18,1,0,0,0,51,51,31,1,,,,,,,,
,,,,,,,,,,,,,FF,,,,,,,,0.185,,,,,,,,,,,,,,,,,,,,,,6102e877042872b030f90bb6,61036a5db33d786f994eba7c,2021-07-29_21h59.45.436,Simcolourproject_2stim_asymm_v5,2020.2.10,MacIntel,60,61025ae37ef11b136ea224fe,,,,,,,,,1951,-30,-38,1,0,0,response5disk,,3,-5,0,1,0,0,rectangle,-5,0,1,0,0,-5,0,1,0,0,0,52,52,28,1,,,,,,,,
,,,,,,,,,,,,,FF,,,,,,,,0.334,,,,,,,,,,,,,,,,,,,,,,6102e877042872b030f90bb6,61036a5db33d786f994eba7c,2021-07-29_21h59.45.436,Simcolourproject_2stim_asymm_v5,2020.2.10,MacIntel,60,61025ae37ef11b136ea224fe,,,,,,,,,2053,-24,-42,1,0,0,response5disk,,3,-3,-2,1,0,0,rectangle,-3,-2,1,0,0,-3,-2,1,0,0,0,53,53,140,1,,,,,,,,
,,,,,,,,,,,,,FF,,,,,,,,0.567,,,,,,,,,,,,,,,,,,,,,,6102e877042872b030f90bb6,61036a5db33d786f994eba7c,2021-07-29_21h59.45.436,Simcolourproject_2stim_asymm_v5,2020.2.10,MacIntel,60,61025ae37ef11b136ea224fe,,,,,,,,,3060,-40,-57,1,0,0,response5disk,,3,-19,-8,1,0,0,rectangle,-40,82,1,0,0,-8,1,1,0,0,0,54,54,145,1,,response7disk_3,TRUE,0,0,"[225,255,277,34,163,212,154,224,55,299,251,253,60,132,109,233,311,173,89,220]",1.867,rectangle
,,,,,,,,,,,,,FF,,,,,,,,0.567,,,,,,,,,,,,,,,,,,,,,,6102e877042872b030f90bb6,61036a5db33d786f994eba7c,2021-07-29_21h59.45.436,Simcolourproject_2stim_asymm_v5,2020.2.10,MacIntel,60,61025ae37ef11b136ea224fe,,,,,,,,,1876,41,-35,1,0,0,response3disk,,5,-1,14,1,0,0,rectangle,-1,14,1,0,0,-1,14,1,0,0,0,55,55,127,1,,,,,,,,
,,,,,,,,,,,,,FF,,,,,,,,0.251,,,,,,,,,,,,,,,,,,,,,,6102e877042872b030f90bb6,61036a5db33d786f994eba7c,2021-07-29_21h59.45.436,Simcolourproject_2stim_asymm_v5,2020.2.10,MacIntel,60,61025ae37ef11b136ea224fe,,,,,,,,,2253,39,-66,1,0,0,response3disk,,4,18,-8,1,0,0,rectangle,18,-8,1,0,0,18,-8,1,0,0,0,56,56,65,1,,,,,,,,
,,,,,,,,,,,,,FF,,,,,,,,0.351,,,,,,,,,,,,,,,,,,,,,,6102e877042872b030f90bb6,61036a5db33d786f994eba7c,2021-07-29_21h59.45.436,Simcolourproject_2stim_asymm_v5,2020.2.10,MacIntel,60,61025ae37ef11b136ea224fe,,,,,,,,,3223,67,-53,1,0,0,response3disk,,5,5,3,1,0,0,rectangle,5,3,1,0,0,5,3,1,0,0,0,57,57,92,1,,,,,,,,
,,,,,,,,,,,,,FF,,,,,,,,0.284,,,,,,,,,,,,,,,,,,,,,,6102e877042872b030f90bb6,61036a5db33d786f994eba7c,2021-07-29_21h59.45.436,Simcolourproject_2stim_asymm_v5,2020.2.10,MacIntel,60,61025ae37ef11b136ea224fe,,,,,,,,,2005,38,-68,1,0,0,response3disk,,4,0,4,1,0,0,rectangle,0,4,1,0,0,0,4,1,0,0,0,58,58,55,1,,,,,,,,
,,,,,,,,,,,,,FF,,,,,,,,0.3,,,,,,,,,,,,,,,,,,,,,,6102e877042872b030f90bb6,61036a5db33d786f994eba7c,2021-07-29_21h59.45.436,Simcolourproject_2stim_asymm_v5,2020.2.10,MacIntel,60,61025ae37ef11b136ea224fe,,,,,,,,,2861,60,37,1,0,0,response1disk,,6,9,-3,1,0,0,rectangle,22,64,1,0,0,12,2,1,0,0,0,59,59,11,1,,response1disk_3,TRUE,7,7,"[225,255,277,34,163,212,154,224,55,299,251,253,60,132,109,233,311,173,89,220]",1.815,rectangle
,,,,,,,,,,,,,FF,,,,,,,,0.333,,,,,,,,,,,,,,,,,,,,,,6102e877042872b030f90bb6,61036a5db33d786f994eba7c,2021-07-29_21h59.45.436,Simcolourproject_2stim_asymm_v5,2020.2.10,MacIntel,60,61025ae37ef11b136ea224fe,,,,,,,,,1843,41,-35,1,0,0,response3disk,,5,19,10,1,0,0,rectangle,19,10,1,0,0,19,10,1,0,0,0,60,60,25,1,,,,,,,,
,,,,,,,,,,,,,FF,,,,,,,,0.25,,,,,,,,,,,,,,,,,,,,,,6102e877042872b030f90bb6,61036a5db33d786f994eba7c,2021-07-29_21h59.45.436,Simcolourproject_2stim_asymm_v5,2020.2.10,MacIntel,60,61025ae37ef11b136ea224fe,,,,,,,,,2618,36,-73,1,0,0,response3disk,,4,14,-12,1,0,0,rectangle,14,-12,1,0,0,14,-12,1,0,0,0,61,61,43,1,,,,,,,,
,,,,,,,,,,,,,FF,,,,,,,,0.235,,,,,,,,,,,,,,,,,,,,,,6102e877042872b030f90bb6,61036a5db33d786f994eba7c,2021-07-29_21h59.45.436,Simcolourproject_2stim_asymm_v5,2020.2.10,MacIntel,60,61025ae37ef11b136ea224fe,,,,,,,,,2329,-32,-75,1,0,0,response5disk,,3,6,-14,1,0,0,rectangle,6,-14,1,0,0,6,-14,1,0,0,0,62,62,22,1,,,,,,,,
,,,,,,,,,,,,,FF,,,,,,,,0.251,,,,,,,,,,,,,,,,,,,,,,6102e877042872b030f90bb6,61036a5db33d786f994eba7c,2021-07-29_21h59.45.436,Simcolourproject_2stim_asymm_v5,2020.2.10,MacIntel,60,61025ae37ef11b136ea224fe,,,,,,,,,3655,-44,-28,1,0,0,response5disk,,2,3,5,1,0,0,rectangle,3,5,1,0,0,3,5,1,0,0,0,63,63,117,1,,,,,,,,
,,,,,,,,,,,,,FF,,,,,,,,0.267,,,,,,,,,,,,,,,,,,,,,,6102e877042872b030f90bb6,61036a5db33d786f994eba7c,2021-07-29_21h59.45.436,Simcolourproject_2stim_asymm_v5,2020.2.10,MacIntel,60,61025ae37ef11b136ea224fe,,,,,,,,,2524,-20,68,1,0,0,response7disk,,0,-2,8,1,0,0,rectangle,-2,8,1,0,0,-2,8,1,0,0,0,64,64,61,1,,,,,,,,
,,,,,,,,,,,,,FF,,,,,,,,0.316,,,,,,,,,,,,,,,,,,,,,,6102e877042872b030f90bb6,61036a5db33d786f994eba7c,2021-07-29_21h59.45.436,Simcolourproject_2stim_asymm_v5,2020.2.10,MacIntel,60,61025ae37ef11b136ea224fe,,,,,,,,,636,49,58,1,0,0,response1disk,,7,15,10,1,0,0,rectangle,15,10,1,0,0,15,10,1,0,0,0,65,65,141,1,,,,,,,,
,,,,,,,,,,,,,FF,,,,,,,,0.283,,,,,,,,,,,,,,,,,,,,,,6102e877042872b030f90bb6,61036a5db33d786f994eba7c,2021-07-29_21h59.45.436,Simcolourproject_2stim_asymm_v5,2020.2.10,MacIntel,60,61025ae37ef11b136ea224fe,,,,,,,,,210,76,35,1,0,0,response1disk,,6,17,-1,1,0,0,rectangle,17,-1,1,0,0,17,-1,1,0,0,0,66,66,116,1,,,,,,,,
,,,,,,,,,,,,,FF,,,,,,,,0.25,,,,,,,,,,,,,,,,,,,,,,6102e877042872b030f90bb6,61036a5db33d786f994eba7c,2021-07-29_21h59.45.436,Simcolourproject_2stim_asymm_v5,2020.2.10,MacIntel,60,61025ae37ef11b136ea224fe,,,,,,,,,2410,17,-84,1,0,0,response3disk,,4,4,-12,1,0,0,rectangle,4,-12,1,0,0,4,-12,1,0,0,0,67,67,41,1,,,,,,,,
,,,,,,,,,,,,,FF,,,,,,,,0.967,,,,,,,,,,,,,,,,,,,,,,6102e877042872b030f90bb6,61036a5db33d786f994eba7c,2021-07-29_21h59.45.436,Simcolourproject_2stim_asymm_v5,2020.2.10,MacIntel,60,61025ae37ef11b136ea224fe,,,,,,,,,840,-79,25,1,0,0,response7disk,,1,-19,13,1,0,0,rectangle,-19,13,1,0,0,-19,13,1,0,0,0,68,68,113,1,,,,,,,,
,,,,,,,,,,,,,FF,,,,,,,,0.201,,,,,,,,,,,,,,,,,,,,,,6102e877042872b030f90bb6,61036a5db33d786f994eba7c,2021-07-29_21h59.45.436,Simcolourproject_2stim_asymm_v5,2020.2.10,MacIntel,60,61025ae37ef11b136ea224fe,,,,,,,,,2875,-48,-49,1,0,0,response5disk,,3,7,-11,1,0,0,rectangle,7,-11,1,0,0,7,-11,1,0,0,0,69,69,57,1,,,,,,,,
,,,,,,,,,,,,,FF,,,,,,,,0.184,,,,,,,,,,,,,,,,,,,,,,6102e877042872b030f90bb6,61036a5db33d786f994eba7c,2021-07-29_21h59.45.436,Simcolourproject_2stim_asymm_v5,2020.2.10,MacIntel,60,61025ae37ef11b136ea224fe,,,,,,,,,3531,-28,-84,1,0,0,response5disk,,3,12,-5,1,0,0,rectangle,12,-5,1,0,0,12,-5,1,0,0,0,70,70,97,1,,,,,,,,
,,,,,,,,,,,,,FF,,,,,,,,0.25,,,,,,,,,,,,,,,,,,,,,,6102e877042872b030f90bb6,61036a5db33d786f994eba7c,2021-07-29_21h59.45.436,Simcolourproject_2stim_asymm_v5,2020.2.10,MacIntel,60,61025ae37ef11b136ea224fe,,,,,,,,,3638,77,-38,1,0,0,response3disk,,5,13,-15,1,0,0,rectangle,13,-15,1,0,0,13,-15,1,0,0,0,71,71,101,1,,,,,,,,
,,,,,,,,,,,,,FF,,,,,,,,0.234,,,,,,,,,,,,,,,,,,,,,,6102e877042872b030f90bb6,61036a5db33d786f994eba7c,2021-07-29_21h59.45.436,Simcolourproject_2stim_asymm_v5,2020.2.10,MacIntel,60,61025ae37ef11b136ea224fe,,,,,,,,,657,42,73,1,0,0,response1disk,,7,6,5,1,0,0,rectangle,6,5,1,0,0,6,5,1,0,0,0,72,72,103,1,,,,,,,,
,,,,,,,,,,,,,FF,,,,,,,,0.25,,,,,,,,,,,,,,,,,,,,,,6102e877042872b030f90bb6,61036a5db33d786f994eba7c,2021-07-29_21h59.45.436,Simcolourproject_2stim_asymm_v5,2020.2.10,MacIntel,60,61025ae37ef11b136ea224fe,,,,,,,,,3685,79,40,1,0,0,response1disk,,6,20,-9,1,0,0,rectangle,20,-9,1,0,0,20,-9,1,0,0,0,73,73,81,1,,,,,,,,
,,,,,,,,,,,,,FF,,,,,,,,0.218,,,,,,,,,,,,,,,,,,,,,,6102e877042872b030f90bb6,61036a5db33d786f994eba7c,2021-07-29_21h59.45.436,Simcolourproject_2stim_asymm_v5,2020.2.10,MacIntel,60,61025ae37ef11b136ea224fe,,,,,,,,,2715,38,-85,1,0,0,response3disk,,4,3,3,1,0,0,rectangle,3,3,1,0,0,3,3,1,0,0,0,74,74,21,1,,,,,,,,
,,,,,,,,,,,,,FF,,,,,,,,0.184,,,,,,,,,,,,,,,,,,,,,,6102e877042872b030f90bb6,61036a5db33d786f994eba7c,2021-07-29_21h59.45.436,Simcolourproject_2stim_asymm_v5,2020.2.10,MacIntel,60,61025ae37ef11b136ea224fe,,,,,,,,,1528,-33,-80,1,0,0,response5disk,,3,-1,16,1,0,0,rectangle,-1,16,1,0,0,-1,16,1,0,0,0,75,75,99,1,,,,,,,,
,,,,,,,,,,,,,FF,,,,,,,,0.132,,,,,,,,,,,,,,,,,,,,,,6102e877042872b030f90bb6,61036a5db33d786f994eba7c,2021-07-29_21h59.45.436,Simcolourproject_2stim_asymm_v5,2020.2.10,MacIntel,60,61025ae37ef11b136ea224fe,,,,,,,,,886,-63,41,1,0,0,response7disk,,1,-19,-3,1,0,0,rectangle,-19,-3,1,0,0,-19,-3,1,0,0,0,76,76,90,1,,,,,,,,
,,,,,,,,,,,,,FF,,,,,,,,0.299,,,,,,,,,,,,,,,,,,,,,,6102e877042872b030f90bb6,61036a5db33d786f994eba7c,2021-07-29_21h59.45.436,Simcolourproject_2stim_asymm_v5,2020.2.10,MacIntel,60,61025ae37ef11b136ea224fe,,,,,,,,,1713,-50,-91,1,0,0,response5disk,,3,-13,-11,1,0,0,rectangle,-13,-11,1,0,0,-13,-11,1,0,0,0,77,77,93,1,,,,,,,,
,,,,,,,,,,,,,FF,,,,,,,,0.166,,,,,,,,,,,,,,,,,,,,,,6102e877042872b030f90bb6,61036a5db33d786f994eba7c,2021-07-29_21h59.45.436,Simcolourproject_2stim_asymm_v5,2020.2.10,MacIntel,60,61025ae37ef11b136ea224fe,,,,,,,,,3149,-33,-71,1,0,0,response5disk,,3,-5,-13,1,0,0,rectangle,-5,-13,1,0,0,-5,-13,1,0,0,0,78,78,15,1,,,,,,,,
,,,,,,,,,,,,,FF,,,,,,,,0.234,,,,,,,,,,,,,,,,,,,,,,6102e877042872b030f90bb6,61036a5db33d786f994eba7c,2021-07-29_21h59.45.436,Simcolourproject_2stim_asymm_v5,2020.2.10,MacIntel,60,61025ae37ef11b136ea224fe,,,,,,,,,3326,-35,-71,1,0,0,response5disk,,3,-2,-1,1,0,0,rectangle,-2,-1,1,0,0,-2,-1,1,0,0,0,79,79,123,1,,,,,,,,
,,,,,,,,,,,,,FF,,,,,,,,0.266,,,,,,,,,,,,,,,,,,,,,,6102e877042872b030f90bb6,61036a5db33d786f994eba7c,2021-07-29_21h59.45.436,Simcolourproject_2stim_asymm_v5,2020.2.10,MacIntel,60,61025ae37ef11b136ea224fe,,,,,,,,,2629,-34,-72,1,0,0,response5disk,,3,-3,-4,1,0,0,rectangle,-3,-4,1,0,0,-3,-4,1,0,0,0,80,80,134,1,,,,,,,,
,,,,,,,,,,,,,FF,,,,,,,,0.235,,,,,,,,,,,,,,,,,,,,,,6102e877042872b030f90bb6,61036a5db33d786f994eba7c,2021-07-29_21h59.45.436,Simcolourproject_2stim_asymm_v5,2020.2.10,MacIntel,60,61025ae37ef11b136ea224fe,,,,,,,,,3284,-36,-83,1,0,0,response5disk,,3,-6,0,1,0,0,rectangle,-6,0,1,0,0,-6,0,1,0,0,0,81,81,95,1,,,,,,,,
,,,,,,,,,,,,,FF,,,,,,,,0.218,,,,,,,,,,,,,,,,,,,,,,6102e877042872b030f90bb6,61036a5db33d786f994eba7c,2021-07-29_21h59.45.436,Simcolourproject_2stim_asymm_v5,2020.2.10,MacIntel,60,61025ae37ef11b136ea224fe,,,,,,,,,3872,40,-76,1,0,0,response3disk,,4,5,-1,1,0,0,rectangle,5,-1,1,0,0,5,-1,1,0,0,0,82,82,9,1,,,,,,,,
,,,,,,,,,,,,,FF,,,,,,,,0.651,,,,,,,,,,,,,,,,,,,,,,6102e877042872b030f90bb6,61036a5db33d786f994eba7c,2021-07-29_21h59.45.436,Simcolourproject_2stim_asymm_v5,2020.2.10,MacIntel,60,61025ae37ef11b136ea224fe,,,,,,,,,4305,-28,57,1,0,0,response7disk,,0,-4,-4,1,0,0,rectangle,-4,-4,1,0,0,-4,-4,1,0,0,0,83,83,51,1,,,,,,,,
,,,,,,,,,,,,,FF,,,,,,,,0.616,,,,,,,,,,,,,,,,,,,,,,6102e877042872b030f90bb6,61036a5db33d786f994eba7c,2021-07-29_21h59.45.436,Simcolourproject_2stim_asymm_v5,2020.2.10,MacIntel,60,61025ae37ef11b136ea224fe,,,,,,,,,1964,-58,32,1,0,0,response7disk,,1,-1,-9,1,0,0,rectangle,-1,-9,1,0,0,-1,-9,1,0,0,0,84,84,153,1,,,,,,,,
,,,,,,,,,,,,,FF,,,,,,,,0.368,,,,,,,,,,,,,,,,,,,,,,6102e877042872b030f90bb6,61036a5db33d786f994eba7c,2021-07-29_21h59.45.436,Simcolourproject_2stim_asymm_v5,2020.2.10,MacIntel,60,61025ae37ef11b136ea224fe,,,,,,,,,2055,-46,-25,1,0,0,response5disk,,2,1,-8,1,0,0,rectangle,1,-8,1,0,0,1,-8,1,0,0,0,85,85,63,1,,,,,,,,
,,,,,,,,,,,,,FF,,,,,,,,0.25,,,,,,,,,,,,,,,,,,,,,,6102e877042872b030f90bb6,61036a5db33d786f994eba7c,2021-07-29_21h59.45.436,Simcolourproject_2stim_asymm_v5,2020.2.10,MacIntel,60,61025ae37ef11b136ea224fe,,,,,,,,,2753,53,-54,1,0,0,response3disk,,4,13,-3,1,0,0,rectangle,13,-3,1,0,0,13,-3,1,0,0,0,86,86,27,1,,,,,,,,
,,,,,,,,,,,,,FF,,,,,,,,0.318,,,,,,,,,,,,,,,,,,,,,,6102e877042872b030f90bb6,61036a5db33d786f994eba7c,2021-07-29_21h59.45.436,Simcolourproject_2stim_asymm_v5,2020.2.10,MacIntel,60,61025ae37ef11b136ea224fe,,,,,,,,,1423,39,-28,1,0,0,response3disk,,5,2,5,1,0,0,rectangle,2,5,1,0,0,2,5,1,0,0,0,87,87,120,1,,,,,,,,
,,,,,,,,,,,,,FF,,,,,,,,0.267,,,,,,,,,,,,,,,,,,,,,,6102e877042872b030f90bb6,61036a5db33d786f994eba7c,2021-07-29_21h59.45.436,Simcolourproject_2stim_asymm_v5,2020.2.10,MacIntel,60,61025ae37ef11b136ea224fe,,,,,,,,,2007,45,40,1,0,0,response1disk,,6,13,-2,1,0,0,rectangle,-70,24,1,0,0,-7,0,1,0,0,0,88,88,89,1,,response7disk_3,TRUE,1,1,"[225,255,277,34,163,212,154,224,55,299,251,253,60,132,109,233,311,173,89,220]",1.515,rectangle
,,,,,,,,,,,,,FF,,,,,,,,0.234,,,,,,,,,,,,,,,,,,,,,,6102e877042872b030f90bb6,61036a5db33d786f994eba7c,2021-07-29_21h59.45.436,Simcolourproject_2stim_asymm_v5,2020.2.10,MacIntel,60,61025ae37ef11b136ea224fe,,,,,,,,,4334,-30,-64,1,0,0,response5disk,,3,4,-3,1,0,0,rectangle,4,-3,1,0,0,4,-3,1,0,0,0,89,89,14,1,,,,,,,,
,,,,,,,,,,,,,FF,,,,,,,,0.283,,,,,,,,,,,,,,,,,,,,,,6102e877042872b030f90bb6,61036a5db33d786f994eba7c,2021-07-29_21h59.45.436,Simcolourproject_2stim_asymm_v5,2020.2.10,MacIntel,60,61025ae37ef11b136ea224fe,,,,,,,,,1707,65,50,1,0,0,response1disk,,6,21,1,1,0,0,rectangle,21,1,1,0,0,21,1,1,0,0,0,90,90,70,1,,,,,,,,
,,,,,,,,,,,,,FF,,,,,,,,0.183,,,,,,,,,,,,,,,,,,,,,,6102e877042872b030f90bb6,61036a5db33d786f994eba7c,2021-07-29_21h59.45.436,Simcolourproject_2stim_asymm_v5,2020.2.10,MacIntel,60,61025ae37ef11b136ea224fe,,,,,,,,,3254,43,-66,1,0,0,response3disk,,4,22,-4,1,0,0,rectangle,22,-4,1,0,0,22,-4,1,0,0,0,91,91,106,1,,,,,,,,
,,,,,,,,,,,,,FF,,,,,,,,0.234,,,,,,,,,,,,,,,,,,,,,,6102e877042872b030f90bb6,61036a5db33d786f994eba7c,2021-07-29_21h59.45.436,Simcolourproject_2stim_asymm_v5,2020.2.10,MacIntel,60,61025ae37ef11b136ea224fe,,,,,,,,,1815,-33,-70,1,0,0,response5disk,,3,-3,-16,1,0,0,rectangle,-3,-16,1,0,0,-3,-16,1,0,0,0,92,92,143,1,,,,,,,,
,,,,,,,,,,,,,FF,,,,,,,,0.25,,,,,,,,,,,,,,,,,,,,,,6102e877042872b030f90bb6,61036a5db33d786f994eba7c,2021-07-29_21h59.45.436,Simcolourproject_2stim_asymm_v5,2020.2.10,MacIntel,60,61025ae37ef11b136ea224fe,,,,,,,,,3073,61,-52,1,0,0,response3disk,,5,10,3,1,0,0,rectangle,10,3,1,0,0,10,3,1,0,0,0,93,93,82,1,,,,,,,,
,,,,,,,,,,,,,FF,,,,,,,,0.683,,,,,,,,,,,,,,,,,,,,,,6102e877042872b030f90bb6,61036a5db33d786f994eba7c,2021-07-29_21h59.45.436,Simcolourproject_2stim_asymm_v5,2020.2.10,MacIntel,60,61025ae37ef11b136ea224fe,,,,,,,,,1535,54,50,1,0,0,response1disk,,6,23,-8,1,0,0,rectangle,23,-8,1,0,0,23,-8,1,0,0,0,94,94,148,1,,,,,,,,
,,,,,,,,,,,,,FF,,,,,,,,0.799,,,,,,,,,,,,,,,,,,,,,,6102e877042872b030f90bb6,61036a5db33d786f994eba7c,2021-07-29_21h59.45.436,Simcolourproject_2stim_asymm_v5,2020.2.10,MacIntel,60,61025ae37ef11b136ea224fe,,,,,,,,,3237,53,-24,1,0,0,response3disk,,5,-11,2,1,0,0,rectangle,-11,2,1,0,0,-11,2,1,0,0,0,95,95,104,1,,,,,,,,
,,,,,,,,,,,,,FF,,,,,,,,0.166,,,,,,,,,,,,,,,,,,,,,,6102e877042872b030f90bb6,61036a5db33d786f994eba7c,2021-07-29_21h59.45.436,Simcolourproject_2stim_asymm_v5,2020.2.10,MacIntel,60,61025ae37ef11b136ea224fe,,,,,,,,,1560,-21,-68,1,0,0,response5disk,,3,17,5,1,0,0,rectangle,17,5,1,0,0,17,5,1,0,0,0,96,96,115,1,,,,,,,,
,,,,,,,,,,,,,FF,,,,,,,,0.133,,,,,,,,,,,,,,,,,,,,,,6102e877042872b030f90bb6,61036a5db33d786f994eba7c,2021-07-29_21h59.45.436,Simcolourproject_2stim_asymm_v5,2020.2.10,MacIntel,60,61025ae37ef11b136ea224fe,,,,,,,,,1090,-42,-91,1,0,0,response5disk,,3,12,-8,1,0,0,rectangle,12,-8,1,0,0,12,-8,1,0,0,0,97,97,159,1,,,,,,,,
,,,,,,,,,,,,,FF,,,,,,,,0.166,,,,,,,,,,,,,,,,,,,,,,6102e877042872b030f90bb6,61036a5db33d786f994eba7c,2021-07-29_21h59.45.436,Simcolourproject_2stim_asymm_v5,2020.2.10,MacIntel,60,61025ae37ef11b136ea224fe,,,,,,,,,3676,40,-92,1,0,0,response3disk,,4,12,-11,1,0,0,rectangle,12,-11,1,0,0,12,-11,1,0,0,0,98,98,131,1,,,,,,,,
,,,,,,,,,,,,,FF,,,,,,,,0.2,,,,,,,,,,,,,,,,,,,,,,6102e877042872b030f90bb6,61036a5db33d786f994eba7c,2021-07-29_21h59.45.436,Simcolourproject_2stim_asymm_v5,2020.2.10,MacIntel,60,61025ae37ef11b136ea224fe,,,,,,,,,3813,54,-23,1,0,0,response3disk,,5,13,4,1,0,0,rectangle,13,4,1,0,0,13,4,1,0,0,0,99,99,72,1,,,,,,,,
,,,,,,,,,,,,,FF,,,,,,,,0.233,,,,,,,,,,,,,,,,,,,,,,6102e877042872b030f90bb6,61036a5db33d786f994eba7c,2021-07-29_21h59.45.436,Simcolourproject_2stim_asymm_v5,2020.2.10,MacIntel,60,61025ae37ef11b136ea224fe,,,,,,,,,2824,73,32,1,0,0,response1disk,,6,5,9,1,0,0,rectangle,5,9,1,0,0,5,9,1,0,0,0,100,100,79,1,,,,,,,,
,,,,,,,,,,,,,FF,,,,,,,,0.218,,,,,,,,,,,,,,,,,,,,,,6102e877042872b030f90bb6,61036a5db33d786f994eba7c,2021-07-29_21h59.45.436,Simcolourproject_2stim_asymm_v5,2020.2.10,MacIntel,60,61025ae37ef11b136ea224fe,,,,,,,,,1692,35,67,1,0,0,response1disk,,7,-10,-10,1,0,0,rectangle,-10,-10,1,0,0,-10,-10,1,0,0,0,101,101,49,1,,,,,,,,
,,,,,,,,,,,,,FF,,,,,,,,0.168,,,,,,,,,,,,,,,,,,,,,,6102e877042872b030f90bb6,61036a5db33d786f994eba7c,2021-07-29_21h59.45.436,Simcolourproject_2stim_asymm_v5,2020.2.10,MacIntel,60,61025ae37ef11b136ea224fe,,,,,,,,,2151,-46,-73,1,0,0,response5disk,,3,4,7,1,0,0,rectangle,4,7,1,0,0,4,7,1,0,0,0,102,102,144,1,,,,,,,,
,,,,,,,,,,,,,FF,,,,,,,,0.167,,,,,,,,,,,,,,,,,,,,,,6102e877042872b030f90bb6,61036a5db33d786f994eba7c,2021-07-29_21h59.45.436,Simcolourproject_2stim_asymm_v5,2020.2.10,MacIntel,60,61025ae37ef11b136ea224fe,,,,,,,,,1943,29,-63,1,0,0,response3disk,,4,15,2,1,0,0,rectangle,15,2,1,0,0,15,2,1,0,0,0,103,103,12,1,,,,,,,,
,,,,,,,,,,,,,FF,,,,,,,,0.5,,,,,,,,,,,,,,,,,,,,,,6102e877042872b030f90bb6,61036a5db33d786f994eba7c,2021-07-29_21h59.45.436,Simcolourproject_2stim_asymm_v5,2020.2.10,MacIntel,60,61025ae37ef11b136ea224fe,,,,,,,,,4349,-70,-38,1,0,0,response5disk,,2,-15,-9,1,0,0,rectangle,-15,-9,1,0,0,-15,-9,1,0,0,0,104,104,87,1,,,,,,,,
,,,,,,,,,,,,,FF,,,,,,,,0.284,,,,,,,,,,,,,,,,,,,,,,6102e877042872b030f90bb6,61036a5db33d786f994eba7c,2021-07-29_21h59.45.436,Simcolourproject_2stim_asymm_v5,2020.2.10,MacIntel,60,61025ae37ef11b136ea224fe,,,,,,,,,751,-37,-67,1,0,0,response5disk,,3,3,10,1,0,0,rectangle,3,10,1,0,0,3,10,1,0,0,0,105,105,149,1,,,,,,,,
,,,,,,,,,,,,,FF,,,,,,,,0.268,,,,,,,,,,,,,,,,,,,,,,6102e877042872b030f90bb6,61036a5db33d786f994eba7c,2021-07-29_21h59.45.436,Simcolourproject_2stim_asymm_v5,2020.2.10,MacIntel,60,61025ae37ef11b136ea224fe,,,,,,,,,3767,70,-45,1,0,0,response3disk,,5,8,4,1,0,0,rectangle,8,4,1,0,0,8,4,1,0,0,0,106,106,88,1,,,,,,,,
,,,,,,,,,,,,,FF,,,,,,,,0.167,,,,,,,,,,,,,,,,,,,,,,6102e877042872b030f90bb6,61036a5db33d786f994eba7c,2021-07-29_21h59.45.436,Simcolourproject_2stim_asymm_v5,2020.2.10,MacIntel,60,61025ae37ef11b136ea224fe,,,,,,,,,2399,65,25,1,0,0,response1disk,,6,11,3,1,0,0,rectangle,11,3,1,0,0,11,3,1,0,0,0,107,107,66,1,,,,,,,,
,,,,,,,,,,,,,FF,,,,,,,,0.266,,,,,,,,,,,,,,,,,,,,,,6102e877042872b030f90bb6,61036a5db33d786f994eba7c,2021-07-29_21h59.45.436,Simcolourproject_2stim_asymm_v5,2020.2.10,MacIntel,60,61025ae37ef11b136ea224fe,,,,,,,,,2065,-37,-76,1,0,0,response5disk,,3,9,16,1,0,0,rectangle,33,75,1,0,0,10,12,1,0,0,0,108,108,130,1,,response1disk_3,TRUE,7,7,"[225,255,277,34,163,212,154,224,55,299,251,253,60,132,109,233,311,173,89,220]",1.732,rectangle
,,,,,,,,,,,,,FF,,,,,,,,0.2,,,,,,,,,,,,,,,,,,,,,,6102e877042872b030f90bb6,61036a5db33d786f994eba7c,2021-07-29_21h59.45.436,Simcolourproject_2stim_asymm_v5,2020.2.10,MacIntel,60,61025ae37ef11b136ea224fe,,,,,,,,,226,-40,-61,1,0,0,response5disk,,3,-8,-13,1,0,0,rectangle,-8,-13,1,0,0,-8,-13,1,0,0,0,109,109,23,1,,,,,,,,
,,,,,,,,,,,,,FF,,,,,,,,0.184,,,,,,,,,,,,,,,,,,,,,,6102e877042872b030f90bb6,61036a5db33d786f994eba7c,2021-07-29_21h59.45.436,Simcolourproject_2stim_asymm_v5,2020.2.10,MacIntel,60,61025ae37ef11b136ea224fe,,,,,,,,,18,-63,-30,1,0,0,response5disk,,2,-5,3,1,0,0,rectangle,-5,3,1,0,0,-5,3,1,0,0,0,110,110,124,1,,,,,,,,
,,,,,,,,,,,,,FF,,,,,,,,0.118,,,,,,,,,,,,,,,,,,,,,,6102e877042872b030f90bb6,61036a5db33d786f994eba7c,2021-07-29_21h59.45.436,Simcolourproject_2stim_asymm_v5,2020.2.10,MacIntel,60,61025ae37ef11b136ea224fe,,,,,,,,,2205,43,-85,1,0,0,response3disk,,4,9,-11,1,0,0,rectangle,9,-11,1,0,0,9,-11,1,0,0,0,111,111,19,1,,,,,,,,
,,,,,,,,,,,,,FF,,,,,,,,0.15,,,,,,,,,,,,,,,,,,,,,,6102e877042872b030f90bb6,61036a5db33d786f994eba7c,2021-07-29_21h59.45.436,Simcolourproject_2stim_asymm_v5,2020.2.10,MacIntel,60,61025ae37ef11b136ea224fe,,,,,,,,,2772,58,-39,1,0,0,response3disk,,5,14,-5,1,0,0,rectangle,14,-5,1,0,0,14,-5,1,0,0,0,112,112,59,1,,,,,,,,
,,,,,,,,,,,,,FF,,,,,,,,0.151,,,,,,,,,,,,,,,,,,,,,,6102e877042872b030f90bb6,61036a5db33d786f994eba7c,2021-07-29_21h59.45.436,Simcolourproject_2stim_asymm_v5,2020.2.10,MacIntel,60,61025ae37ef11b136ea224fe,,,,,,,,,3787,68,34,1,0,0,response1disk,,6,19,3,1,0,0,rectangle,19,3,1,0,0,19,3,1,0,0,0,113,113,85,1,,,,,,,,
,,,,,,,,,,,,,FF,,,,,,,,0.099,,,,,,,,,,,,,,,,,,,,,,6102e877042872b030f90bb6,61036a5db33d786f994eba7c,2021-07-29_21h59.45.436,Simcolourproject_2stim_asymm_v5,2020.2.10,MacIntel,60,61025ae37ef11b136ea224fe,,,,,,,,,4158,27,55,1,0,0,response1disk,,7,5,-12,1,0,0,rectangle,5,-12,1,0,0,5,-12,1,0,0,0,114,114,114,1,,,,,,,,
,,,,,,,,,,,,,FF,,,,,,,,0.134,,,,,,,,,,,,,,,,,,,,,,6102e877042872b030f90bb6,61036a5db33d786f994eba7c,2021-07-29_21h59.45.436,Simcolourproject_2stim_asymm_v5,2020.2.10,MacIntel,60,61025ae37ef11b136ea224fe,,,,,,,,,3051,-65,-89,1,0,0,response5disk,,3,-5,-17,1,0,0,rectangle,-5,-17,1,0,0,-5,-17,1,0,0,0,115,115,128,1,,,,,,,,
,,,,,,,,,,,,,FF,,,,,,,,0.233,,,,,,,,,,,,,,,,,,,,,,6102e877042872b030f90bb6,61036a5db33d786f994eba7c,2021-07-29_21h59.45.436,Simcolourproject_2stim_asymm_v5,2020.2.10,MacIntel,60,61025ae37ef11b136ea224fe,,,,,,,,,762,-50,-40,1,0,0,response5disk,,2,-4,0,1,0,0,rectangle,-4,0,1,0,0,-4,0,1,0,0,0,116,116,133,1,,,,,,,,
,,,,,,,,,,,,,FF,,,,,,,,0.101,,,,,,,,,,,,,,,,,,,,,,6102e877042872b030f90bb6,61036a5db33d786f994eba7c,2021-07-29_21h59.45.436,Simcolourproject_2stim_asymm_v5,2020.2.10,MacIntel,60,61025ae37ef11b136ea224fe,,,,,,,,,168,31,-60,1,0,0,response3disk,,4,11,-10,1,0,0,rectangle,11,-10,1,0,0,11,-10,1,0,0,0,117,117,45,1,,,,,,,,
,,,,,,,,,,,,,FF,,,,,,,,0.085,,,,,,,,,,,,,,,,,,,,,,6102e877042872b030f90bb6,61036a5db33d786f994eba7c,2021-07-29_21h59.45.436,Simcolourproject_2stim_asymm_v5,2020.2.10,MacIntel,60,61025ae37ef11b136ea224fe,,,,,,,,,3022,61,-38,1,0,0,response3disk,,5,7,14,1,0,0,rectangle,7,14,1,0,0,7,14,1,0,0,0,118,118,73,1,,,,,,,,
,,,,,,,,,,,,,FF,,,,,,,,0.117,,,,,,,,,,,,,,,,,,,,,,6102e877042872b030f90bb6,61036a5db33d786f994eba7c,2021-07-29_21h59.45.436,Simcolourproject_2stim_asymm_v5,2020.2.10,MacIntel,60,61025ae37ef11b136ea224fe,,,,,,,,,3954,-73,-34,1,0,0,response5disk,,2,0,-15,1,0,0,rectangle,0,-15,1,0,0,0,-15,1,0,0,0,119,119,64,1,,,,,,,,
,,,,,,,,,,,,,FF,,,,,,,,0.184,,,,,,,,,,,,,,,,,,,,,,6102e877042872b030f90bb6,61036a5db33d786f994eba7c,2021-07-29_21h59.45.436,Simcolourproject_2stim_asymm_v5,2020.2.10,MacIntel,60,61025ae37ef11b136ea224fe,,,,,,,,,2826,-34,-71,1,0,0,response5disk,,3,-2,-11,1,0,0,rectangle,-2,-11,1,0,0,-2,-11,1,0,0,0,120,120,122,1,,,,,,,,
,,,,,,,,,,,,,FF,,,,,,,,0.399,,,,,,,,,,,,,,,,,,,,,,6102e877042872b030f90bb6,61036a5db33d786f994eba7c,2021-07-29_21h59.45.436,Simcolourproject_2stim_asymm_v5,2020.2.10,MacIntel,60,61025ae37ef11b136ea224fe,,,,,,,,,4038,-58,-43,1,0,0,response5disk,,2,-12,-7,1,0,0,rectangle,-12,-7,1,0,0,-12,-7,1,0,0,0,121,121,157,1,,,,,,,,
,,,,,,,,,,,,,FF,,,,,,,,0.249,,,,,,,,,,,,,,,,,,,,,,6102e877042872b030f90bb6,61036a5db33d786f994eba7c,2021-07-29_21h59.45.436,Simcolourproject_2stim_asymm_v5,2020.2.10,MacIntel,60,61025ae37ef11b136ea224fe,,,,,,,,,2639,-55,23,1,0,0,response7disk,,1,-21,2,1,0,0,rectangle,-21,2,1,0,0,-21,2,1,0,0,0,122,122,17,1,,,,,,,,
,,,,,,,,,,,,,FF,,,,,,,,0.233,,,,,,,,,,,,,,,,,,,,,,6102e877042872b030f90bb6,61036a5db33d786f994eba7c,2021-07-29_21h59.45.436,Simcolourproject_2stim_asymm_v5,2020.2.10,MacIntel,60,61025ae37ef11b136ea224fe,,,,,,,,,3996,67,36,1,0,0,response1disk,,6,20,-1,1,0,0,rectangle,20,-1,1,0,0,20,-1,1,0,0,0,123,123,2,1,,,,,,,,
,,,,,,,,,,,,,FF,,,,,,,,0.267,,,,,,,,,,,,,,,,,,,,,,6102e877042872b030f90bb6,61036a5db33d786f994eba7c,2021-07-29_21h59.45.436,Simcolourproject_2stim_asymm_v5,2020.2.10,MacIntel,60,61025ae37ef11b136ea224fe,,,,,,,,,3272,37,70,1,0,0,response1disk,,7,17,-8,1,0,0,rectangle,17,-8,1,0,0,17,-8,1,0,0,0,124,124,37,1,,,,,,,,
,,,,,,,,,,,,,FF,,,,,,,,0.133,,,,,,,,,,,,,,,,,,,,,,6102e877042872b030f90bb6,61036a5db33d786f994eba7c,2021-07-29_21h59.45.436,Simcolourproject_2stim_asymm_v5,2020.2.10,MacIntel,60,61025ae37ef11b136ea224fe,,,,,,,,,3106,33,-86,1,0,0,response3disk,,4,9,2,1,0,0,rectangle,9,2,1,0,0,9,2,1,0,0,0,125,125,13,1,,,,,,,,
,,,,,,,,,,,,,FF,,,,,,,,0.183,,,,,,,,,,,,,,,,,,,,,,6102e877042872b030f90bb6,61036a5db33d786f994eba7c,2021-07-29_21h59.45.436,Simcolourproject_2stim_asymm_v5,2020.2.10,MacIntel,60,61025ae37ef11b136ea224fe,,,,,,,,,3976,-23,-57,1,0,0,response5disk,,3,-2,-3,1,0,0,rectangle,-2,-3,1,0,0,-2,-3,1,0,0,0,126,126,102,1,,,,,,,,
,,,,,,,,,,,,,FF,,,,,,,,0.234,,,,,,,,,,,,,,,,,,,,,,6102e877042872b030f90bb6,61036a5db33d786f994eba7c,2021-07-29_21h59.45.436,Simcolourproject_2stim_asymm_v5,2020.2.10,MacIntel,60,61025ae37ef11b136ea224fe,,,,,,,,,3015,-72,-41,1,0,0,response5disk,,2,-9,-15,1,0,0,rectangle,-9,-15,1,0,0,-9,-15,1,0,0,0,127,127,29,1,,,,,,,,
,,,,,,,,,,,,,FF,,,,,,,,0.217,,,,,,,,,,,,,,,,,,,,,,6102e877042872b030f90bb6,61036a5db33d786f994eba7c,2021-07-29_21h59.45.436,Simcolourproject_2stim_asymm_v5,2020.2.10,MacIntel,60,61025ae37ef11b136ea224fe,,,,,,,,,4074,-48,33,1,0,0,response7disk,,1,7,-10,1,0,0,rectangle,7,-10,1,0,0,7,-10,1,0,0,0,128,128,86,1,,,,,,,,
,,,,,,,,,,,,,FF,,,,,,,,0.267,,,,,,,,,,,,,,,,,,,,,,6102e877042872b030f90bb6,61036a5db33d786f994eba7c,2021-07-29_21h59.45.436,Simcolourproject_2stim_asymm_v5,2020.2.10,MacIntel,60,61025ae37ef11b136ea224fe,,,,,,,,,3625,67,48,1,0,0,response1disk,,6,9,-2,1,0,0,rectangle,9,-2,1,0,0,9,-2,1,0,0,0,129,129,44,1,,,,,,,,
,,,,,,,,,,,,,FF,,,,,,,,0.218,,,,,,,,,,,,,,,,,,,,,,6102e877042872b030f90bb6,61036a5db33d786f994eba7c,2021-07-29_21h59.45.436,Simcolourproject_2stim_asymm_v5,2020.2.10,MacIntel,60,61025ae37ef11b136ea224fe,,,,,,,,,3738,38,73,1,0,0,response1disk,,7,14,12,1,0,0,rectangle,14,12,1,0,0,14,12,1,0,0,0,130,130,158,1,,,,,,,,
,,,,,,,,,,,,,FF,,,,,,,,0.234,,,,,,,,,,,,,,,,,,,,,,6102e877042872b030f90bb6,61036a5db33d786f994eba7c,2021-07-29_21h59.45.436,Simcolourproject_2stim_asymm_v5,2020.2.10,MacIntel,60,61025ae37ef11b136ea224fe,,,,,,,,,182,30,-66,1,0,0,response3disk,,4,18,7,1,0,0,rectangle,63,40,1,0,0,10,0,1,0,0,0,131,131,91,1,,response1disk_3,TRUE,6,6,"[225,255,277,34,163,212,154,224,55,299,251,253,60,132,109,233,311,173,89,220]",1.433,rectangle
,,,,,,,,,,,,,FF,,,,,,,,0.25,,,,,,,,,,,,,,,,,,,,,,6102e877042872b030f90bb6,61036a5db33d786f994eba7c,2021-07-29_21h59.45.436,Simcolourproject_2stim_asymm_v5,2020.2.10,MacIntel,60,61025ae37ef11b136ea224fe,,,,,,,,,761,45,62,1,0,0,response1disk,,7,13,-2,1,0,0,rectangle,13,-2,1,0,0,13,-2,1,0,0,0,132,132,40,1,,,,,,,,
,,,,,,,,,,,,,FF,,,,,,,,0.134,,,,,,,,,,,,,,,,,,,,,,6102e877042872b030f90bb6,61036a5db33d786f994eba7c,2021-07-29_21h59.45.436,Simcolourproject_2stim_asymm_v5,2020.2.10,MacIntel,60,61025ae37ef11b136ea224fe,,,,,,,,,405,-38,-72,1,0,0,response5disk,,3,-8,-16,1,0,0,rectangle,-8,-16,1,0,0,-8,-16,1,0,0,0,133,133,32,1,,,,,,,,
,,,,,,,,,,,,,FF,,,,,,,,0.217,,,,,,,,,,,,,,,,,,,,,,6102e877042872b030f90bb6,61036a5db33d786f994eba7c,2021-07-29_21h59.45.436,Simcolourproject_2stim_asymm_v5,2020.2.10,MacIntel,60,61025ae37ef11b136ea224fe,,,,,,,,,349,-51,-38,1,0,0,response5disk,,2,15,16,1,0,0,rectangle,15,16,1,0,0,15,16,1,0,0,0,134,134,146,1,,,,,,,,
,,,,,,,,,,,,,FF,,,,,,,,0.201,,,,,,,,,,,,,,,,,,,,,,6102e877042872b030f90bb6,61036a5db33d786f994eba7c,2021-07-29_21h59.45.436,Simcolourproject_2stim_asymm_v5,2020.2.10,MacIntel,60,61025ae37ef11b136ea224fe,,,,,,,,,1309,40,-83,1,0,0,response3disk,,4,11,3,1,0,0,rectangle,11,3,1,0,0,11,3,1,0,0,0,135,135,98,1,,,,,,,,
,,,,,,,,,,,,,FF,,,,,,,,0.117,,,,,,,,,,,,,,,,,,,,,,6102e877042872b030f90bb6,61036a5db33d786f994eba7c,2021-07-29_21h59.45.436,Simcolourproject_2stim_asymm_v5,2020.2.10,MacIntel,60,61025ae37ef11b136ea224fe,,,,,,,,,2617,76,-43,1,0,0,response3disk,,5,23,-11,1,0,0,rectangle,23,-11,1,0,0,23,-11,1,0,0,0,136,136,96,1,,,,,,,,
,,,,,,,,,,,,,FF,,,,,,,,0.217,,,,,,,,,,,,,,,,,,,,,,6102e877042872b030f90bb6,61036a5db33d786f994eba7c,2021-07-29_21h59.45.436,Simcolourproject_2stim_asymm_v5,2020.2.10,MacIntel,60,61025ae37ef11b136ea224fe,,,,,,,,,3644,35,-71,1,0,0,response3disk,,4,25,11,1,0,0,rectangle,25,11,1,0,0,25,11,1,0,0,0,137,137,38,1,,,,,,,,
,,,,,,,,,,,,,FF,,,,,,,,0.133,,,,,,,,,,,,,,,,,,,,,,6102e877042872b030f90bb6,61036a5db33d786f994eba7c,2021-07-29_21h59.45.436,Simcolourproject_2stim_asymm_v5,2020.2.10,MacIntel,60,61025ae37ef11b136ea224fe,,,,,,,,,2320,-36,-70,1,0,0,response5disk,,3,2,3,1,0,0,rectangle,2,3,1,0,0,2,3,1,0,0,0,138,138,112,1,,,,,,,,
,,,,,,,,,,,,,FF,,,,,,,,0.201,,,,,,,,,,,,,,,,,,,,,,6102e877042872b030f90bb6,61036a5db33d786f994eba7c,2021-07-29_21h59.45.436,Simcolourproject_2stim_asymm_v5,2020.2.10,MacIntel,60,61025ae37ef11b136ea224fe,,,,,,,,,2871,-14,67,1,0,0,response7disk,,0,-5,2,1,0,0,rectangle,-5,2,1,0,0,-5,2,1,0,0,0,139,139,100,1,,,,,,,,
,,,,,,,,,,,,,FF,,,,,,,,0.234,,,,,,,,,,,,,,,,,,,,,,6102e877042872b030f90bb6,61036a5db33d786f994eba7c,2021-07-29_21h59.45.436,Simcolourproject_2stim_asymm_v5,2020.2.10,MacIntel,60,61025ae37ef11b136ea224fe,,,,,,,,,1533,64,40,1,0,0,response1disk,,6,18,0,1,0,0,rectangle,18,0,1,0,0,18,0,1,0,0,0,140,140,135,1,,,,,,,,
,,,,,,,,,,,,,FF,,,,,,,,0.2,,,,,,,,,,,,,,,,,,,,,,6102e877042872b030f90bb6,61036a5db33d786f994eba7c,2021-07-29_21h59.45.436,Simcolourproject_2stim_asymm_v5,2020.2.10,MacIntel,60,61025ae37ef11b136ea224fe,,,,,,,,,2962,48,55,1,0,0,response1disk,,7,23,-6,1,0,0,rectangle,23,-6,1,0,0,23,-6,1,0,0,0,141,141,0,1,,,,,,,,
,,,,,,,,,,,,,FF,,,,,,,,0.184,,,,,,,,,,,,,,,,,,,,,,6102e877042872b030f90bb6,61036a5db33d786f994eba7c,2021-07-29_21h59.45.436,Simcolourproject_2stim_asymm_v5,2020.2.10,MacIntel,60,61025ae37ef11b136ea224fe,,,,,,,,,812,-35,-60,1,0,0,response5disk,,3,11,9,1,0,0,rectangle,11,9,1,0,0,11,9,1,0,0,0,142,142,35,1,,,,,,,,
,,,,,,,,,,,,,FF,,,,,,,,0.201,,,,,,,,,,,,,,,,,,,,,,6102e877042872b030f90bb6,61036a5db33d786f994eba7c,2021-07-29_21h59.45.436,Simcolourproject_2stim_asymm_v5,2020.2.10,MacIntel,60,61025ae37ef11b136ea224fe,,,,,,,,,1479,-59,-38,1,0,0,response5disk,,2,-6,-6,1,0,0,rectangle,-6,-6,1,0,0,-6,-6,1,0,0,0,143,143,151,1,,,,,,,,
,,,,,,,,,,,,,FF,,,,,,,,0.134,,,,,,,,,,,,,,,,,,,,,,6102e877042872b030f90bb6,61036a5db33d786f994eba7c,2021-07-29_21h59.45.436,Simcolourproject_2stim_asymm_v5,2020.2.10,MacIntel,60,61025ae37ef11b136ea224fe,,,,,,,,,1160,36,-65,1,0,0,response3disk,,4,2,8,1,0,0,rectangle,2,8,1,0,0,2,8,1,0,0,0,144,144,126,1,,,,,,,,
,,,,,,,,,,,,,FF,,,,,,,,0.267,,,,,,,,,,,,,,,,,,,,,,6102e877042872b030f90bb6,61036a5db33d786f994eba7c,2021-07-29_21h59.45.436,Simcolourproject_2stim_asymm_v5,2020.2.10,MacIntel,60,61025ae37ef11b136ea224fe,,,,,,,,,2416,90,48,1,0,0,response1disk,,6,16,-7,1,0,0,rectangle,16,-7,1,0,0,16,-7,1,0,0,0,145,145,53,1,,,,,,,,
,,,,,,,,,,,,,FF,,,,,,,,0.2,,,,,,,,,,,,,,,,,,,,,,6102e877042872b030f90bb6,61036a5db33d786f994eba7c,2021-07-29_21h59.45.436,Simcolourproject_2stim_asymm_v5,2020.2.10,MacIntel,60,61025ae37ef11b136ea224fe,,,,,,,,,2802,-72,30,1,0,0,response7disk,,1,-3,-8,1,0,0,rectangle,-3,-8,1,0,0,-3,-8,1,0,0,0,146,146,109,1,,,,,,,,
,,,,,,,,,,,,,FF,,,,,,,,0.201,,,,,,,,,,,,,,,,,,,,,,6102e877042872b030f90bb6,61036a5db33d786f994eba7c,2021-07-29_21h59.45.436,Simcolourproject_2stim_asymm_v5,2020.2.10,MacIntel,60,61025ae37ef11b136ea224fe,,,,,,,,,1159,-36,-75,1,0,0,response5disk,,3,9,0,1,0,0,rectangle,9,0,1,0,0,9,0,1,0,0,0,147,147,107,1,,,,,,,,
,,,,,,,,,,,,,FF,,,,,,,,0.15,,,,,,,,,,,,,,,,,,,,,,6102e877042872b030f90bb6,61036a5db33d786f994eba7c,2021-07-29_21h59.45.436,Simcolourproject_2stim_asymm_v5,2020.2.10,MacIntel,60,61025ae37ef11b136ea224fe,,,,,,,,,2085,32,-79,1,0,0,response3disk,,4,21,-17,1,0,0,rectangle,21,-17,1,0,0,21,-17,1,0,0,0,148,148,20,1,,,,,,,,
,,,,,,,,,,,,,FF,,,,,,,,0.117,,,,,,,,,,,,,,,,,,,,,,6102e877042872b030f90bb6,61036a5db33d786f994eba7c,2021-07-29_21h59.45.436,Simcolourproject_2stim_asymm_v5,2020.2.10,MacIntel,60,61025ae37ef11b136ea224fe,,,,,,,,,3719,57,-42,1,0,0,response3disk,,5,3,11,1,0,0,rectangle,3,11,1,0,0,3,11,1,0,0,0,149,149,30,1,,,,,,,,
,,,,,,,,,,,,,FF,,,,,,,,0.249,,,,,,,,,,,,,,,,,,,,,,6102e877042872b030f90bb6,61036a5db33d786f994eba7c,2021-07-29_21h59.45.436,Simcolourproject_2stim_asymm_v5,2020.2.10,MacIntel,60,61025ae37ef11b136ea224fe,,,,,,,,,4255,-78,-32,1,0,0,response5disk,,2,-6,0,1,0,0,rectangle,-6,0,1,0,0,-6,0,1,0,0,0,150,150,155,1,,,,,,,,
,,,,,,,,,,,,,FF,,,,,,,,0.234,,,,,,,,,,,,,,,,,,,,,,6102e877042872b030f90bb6,61036a5db33d786f994eba7c,2021-07-29_21h59.45.436,Simcolourproject_2stim_asymm_v5,2020.2.10,MacIntel,60,61025ae37ef11b136ea224fe,,,,,,,,,2100,-31,-62,1,0,0,response5disk,,3,-4,-6,1,0,0,rectangle,-4,-6,1,0,0,-4,-6,1,0,0,0,151,151,60,1,,,,,,,,
,,,,,,,,,,,,,FF,,,,,,,,0.25,,,,,,,,,,,,,,,,,,,,,,6102e877042872b030f90bb6,61036a5db33d786f994eba7c,2021-07-29_21h59.45.436,Simcolourproject_2stim_asymm_v5,2020.2.10,MacIntel,60,61025ae37ef11b136ea224fe,,,,,,,,,3934,-53,-40,1,0,0,response5disk,,2,5,1,1,0,0,rectangle,5,1,1,0,0,5,1,1,0,0,0,152,152,46,1,,,,,,,,
,,,,,,,,,,,,,FF,,,,,,,,0.218,,,,,,,,,,,,,,,,,,,,,,6102e877042872b030f90bb6,61036a5db33d786f994eba7c,2021-07-29_21h59.45.436,Simcolourproject_2stim_asymm_v5,2020.2.10,MacIntel,60,61025ae37ef11b136ea224fe,,,,,,,,,432,53,-60,1,0,0,response3disk,,4,22,-1,1,0,0,rectangle,76,52,1,0,0,15,1,1,0,0,0,153,153,152,1,,response1disk_3,TRUE,6,6,"[225,255,277,34,163,212,154,224,55,299,251,253,60,132,109,233,311,173,89,220]",1.433,rectangle
,,,,,,,,,,,,,FF,,,,,,,,0.235,,,,,,,,,,,,,,,,,,,,,,6102e877042872b030f90bb6,61036a5db33d786f994eba7c,2021-07-29_21h59.45.436,Simcolourproject_2stim_asymm_v5,2020.2.10,MacIntel,60,61025ae37ef11b136ea224fe,,,,,,,,,3264,68,46,1,0,0,response1disk,,6,28,2,1,0,0,rectangle,28,2,1,0,0,28,2,1,0,0,0,154,154,83,1,,,,,,,,
,,,,,,,,,,,,,FF,,,,,,,,0.267,,,,,,,,,,,,,,,,,,,,,,6102e877042872b030f90bb6,61036a5db33d786f994eba7c,2021-07-29_21h59.45.436,Simcolourproject_2stim_asymm_v5,2020.2.10,MacIntel,60,61025ae37ef11b136ea224fe,,,,,,,,,1152,25,57,1,0,0,response1disk,,7,8,0,1,0,0,rectangle,8,0,1,0,0,8,0,1,0,0,0,155,155,67,1,,,,,,,,
,,,,,,,,,,,,,FF,,,,,,,,0.167,,,,,,,,,,,,,,,,,,,,,,6102e877042872b030f90bb6,61036a5db33d786f994eba7c,2021-07-29_21h59.45.436,Simcolourproject_2stim_asymm_v5,2020.2.10,MacIntel,60,61025ae37ef11b136ea224fe,,,,,,,,,1875,28,-73,1,0,0,response3disk,,4,4,-11,1,0,0,rectangle,4,-11,1,0,0,4,-11,1,0,0,0,156,156,39,1,,,,,,,,
,,,,,,,,,,,,,FF,,,,,,,,0.2,,,,,,,,,,,,,,,,,,,,,,6102e877042872b030f90bb6,61036a5db33d786f994eba7c,2021-07-29_21h59.45.436,Simcolourproject_2stim_asymm_v5,2020.2.10,MacIntel,60,61025ae37ef11b136ea224fe,,,,,,,,,3549,-30,-65,1,0,0,response5disk,,3,1,8,1,0,0,rectangle,1,8,1,0,0,1,8,1,0,0,0,157,157,6,1,,,,,,,,
,,,,,,,,,,,,,FF,,,,,,,,0.434,,,,,,,,,,,,,,,,,,,,,,6102e877042872b030f90bb6,61036a5db33d786f994eba7c,2021-07-29_21h59.45.436,Simcolourproject_2stim_asymm_v5,2020.2.10,MacIntel,60,61025ae37ef11b136ea224fe,,,,,,,,,1587,51,24,1,0,0,response1disk,,6,14,-5,1,0,0,rectangle,14,-5,1,0,0,14,-5,1,0,0,0,158,158,52,1,,,,,,,,
,,,,,,,,,,,,,FF,,,,,,,,0.15,,,,,,,,,,,,,,,,,,,,,,6102e877042872b030f90bb6,61036a5db33d786f994eba7c,2021-07-29_21h59.45.436,Simcolourproject_2stim_asymm_v5,2020.2.10,MacIntel,60,61025ae37ef11b136ea224fe,,,,,,,,,3398,31,-97,1,0,0,response3disk,,4,9,-14,1,0,0,rectangle,9,-14,1,0,0,9,-14,1,0,0,0,159,159,50,1,,,,,,,,
,,,,,,,,,,,,,FF,,,,,,,,0.166,,,,,,,,,,,,,,,,,,,,,,6102e877042872b030f90bb6,61036a5db33d786f994eba7c,2021-07-29_21h59.45.436,Simcolourproject_2stim_asymm_v5,2020.2.10,MacIntel,60,61025ae37ef11b136ea224fe,,,,,,,,,2396,-33,-72,1,0,0,response5disk,,3,7,-4,1,0,0,rectangle,7,-4,1,0,0,7,-4,1,0,0,1,0,160,23,1,,,,,,,,
,,,,,,,,,,,,,FF,,,,,,,,0.217,,,,,,,,,,,,,,,,,,,,,,6102e877042872b030f90bb6,61036a5db33d786f994eba7c,2021-07-29_21h59.45.436,Simcolourproject_2stim_asymm_v5,2020.2.10,MacIntel,60,61025ae37ef11b136ea224fe,,,,,,,,,4286,-64,-43,1,0,0,response5disk,,2,-4,0,1,0,0,rectangle,-4,0,1,0,0,-4,0,1,0,0,1,1,161,152,1,,,,,,,,
,,,,,,,,,,,,,FF,,,,,,,,0.385,,,,,,,,,,,,,,,,,,,,,,6102e877042872b030f90bb6,61036a5db33d786f994eba7c,2021-07-29_21h59.45.436,Simcolourproject_2stim_asymm_v5,2020.2.10,MacIntel,60,61025ae37ef11b136ea224fe,,,,,,,,,865,60,28,1,0,0,response1disk,,6,12,0,1,0,0,rectangle,38,101,1,0,0,19,10,1,0,0,1,2,162,97,1,,response1disk_3,TRUE,7,7,"[225,255,277,34,163,212,154,224,55,299,251,253,60,132,109,233,311,173,89,220]",1.216,rectangle
,,,,,,,,,,,,,FF,,,,,,,,0.234,,,,,,,,,,,,,,,,,,,,,,6102e877042872b030f90bb6,61036a5db33d786f994eba7c,2021-07-29_21h59.45.436,Simcolourproject_2stim_asymm_v5,2020.2.10,MacIntel,60,61025ae37ef11b136ea224fe,,,,,,,,,644,40,-90,1,0,0,response3disk,,4,28,2,1,0,0,rectangle,28,2,1,0,0,28,2,1,0,0,1,3,163,88,1,,,,,,,,
,,,,,,,,,,,,,FF,,,,,,,,0.167,,,,,,,,,,,,,,,,,,,,,,6102e877042872b030f90bb6,61036a5db33d786f994eba7c,2021-07-29_21h59.45.436,Simcolourproject_2stim_asymm_v5,2020.2.10,MacIntel,60,61025ae37ef11b136ea224fe,,,,,,,,,873,75,-23,1,0,0,response3disk,,5,27,6,1,0,0,rectangle,27,6,1,0,0,27,6,1,0,0,1,4,164,118,1,,,,,,,,
,,,,,,,,,,,,,FF,,,,,,,,0.2,,,,,,,,,,,,,,,,,,,,,,6102e877042872b030f90bb6,61036a5db33d786f994eba7c,2021-07-29_21h59.45.436,Simcolourproject_2stim_asymm_v5,2020.2.10,MacIntel,60,61025ae37ef11b136ea224fe,,,,,,,,,3758,-55,-25,1,0,0,response5disk,,2,-9,-1,1,0,0,rectangle,-9,-1,1,0,0,-9,-1,1,0,0,1,5,165,92,1,,,,,,,,
,,,,,,,,,,,,,FF,,,,,,,,0.234,,,,,,,,,,,,,,,,,,,,,,6102e877042872b030f90bb6,61036a5db33d786f994eba7c,2021-07-29_21h59.45.436,Simcolourproject_2stim_asymm_v5,2020.2.10,MacIntel,60,61025ae37ef11b136ea224fe,,,,,,,,,945,-62,48,1,0,0,response7disk,,1,-4,4,1,0,0,rectangle,-4,4,1,0,0,-4,4,1,0,0,1,6,166,94,1,,,,,,,,
,,,,,,,,,,,,,FF,,,,,,,,0.217,,,,,,,,,,,,,,,,,,,,,,6102e877042872b030f90bb6,61036a5db33d786f994eba7c,2021-07-29_21h59.45.436,Simcolourproject_2stim_asymm_v5,2020.2.10,MacIntel,60,61025ae37ef11b136ea224fe,,,,,,,,,3405,68,23,1,0,0,response1disk,,6,19,-12,1,0,0,rectangle,19,-12,1,0,0,19,-12,1,0,0,1,7,167,14,1,,,,,,,,
,,,,,,,,,,,,,FF,,,,,,,,0.217,,,,,,,,,,,,,,,,,,,,,,6102e877042872b030f90bb6,61036a5db33d786f994eba7c,2021-07-29_21h59.45.436,Simcolourproject_2stim_asymm_v5,2020.2.10,MacIntel,60,61025ae37ef11b136ea224fe,,,,,,,,,371,38,-66,1,0,0,response3disk,,4,8,-10,1,0,0,rectangle,8,-10,1,0,0,8,-10,1,0,0,1,8,168,78,1,,,,,,,,
,,,,,,,,,,,,,FF,,,,,,,,0.268,,,,,,,,,,,,,,,,,,,,,,6102e877042872b030f90bb6,61036a5db33d786f994eba7c,2021-07-29_21h59.45.436,Simcolourproject_2stim_asymm_v5,2020.2.10,MacIntel,60,61025ae37ef11b136ea224fe,,,,,,,,,2296,-23,-45,1,0,0,response5disk,,3,-2,-11,1,0,0,rectangle,-2,-11,1,0,0,-2,-11,1,0,0,1,9,169,65,1,,,,,,,,
,,,,,,,,,,,,,FF,,,,,,,,2.734,,,,,,,,,,,,,,,,,,,,,,6102e877042872b030f90bb6,61036a5db33d786f994eba7c,2021-07-29_21h59.45.436,Simcolourproject_2stim_asymm_v5,2020.2.10,MacIntel,60,61025ae37ef11b136ea224fe,,,,,,,,,1646,89,34,1,0,0,response1disk,,6,16,1,1,0,0,rectangle,16,1,1,0,0,16,1,1,0,0,1,10,170,43,1,,,,,,,,
,,,,,,,,,,,,,FF,,,,,,,,0.734,,,,,,,,,,,,,,,,,,,,,,6102e877042872b030f90bb6,61036a5db33d786f994eba7c,2021-07-29_21h59.45.436,Simcolourproject_2stim_asymm_v5,2020.2.10,MacIntel,60,61025ae37ef11b136ea224fe,,,,,,,,,1996,-36,-37,1,0,0,response5disk,,3,-12,-15,1,0,0,rectangle,-12,-15,1,0,0,-12,-15,1,0,0,1,11,171,50,1,,,,,,,,
,,,,,,,,,,,,,FF,,,,,,,,0.317,,,,,,,,,,,,,,,,,,,,,,6102e877042872b030f90bb6,61036a5db33d786f994eba7c,2021-07-29_21h59.45.436,Simcolourproject_2stim_asymm_v5,2020.2.10,MacIntel,60,61025ae37ef11b136ea224fe,,,,,,,,,3450,18,-89,1,0,0,response3disk,,4,11,-7,1,0,0,rectangle,-61,78,1,0,0,3,2,1,0,0,1,12,172,19,1,,response7disk_3,TRUE,0,0,"[225,255,277,34,163,212,154,224,55,299,251,253,60,132,109,233,311,173,89,220]",1.432,rectangle
,,,,,,,,,,,,,FF,,,,,,,,0.233,,,,,,,,,,,,,,,,,,,,,,6102e877042872b030f90bb6,61036a5db33d786f994eba7c,2021-07-29_21h59.45.436,Simcolourproject_2stim_asymm_v5,2020.2.10,MacIntel,60,61025ae37ef11b136ea224fe,,,,,,,,,203,69,27,1,0,0,response1disk,,6,15,-7,1,0,0,rectangle,15,-7,1,0,0,15,-7,1,0,0,1,13,173,82,1,,,,,,,,
,,,,,,,,,,,,,FF,,,,,,,,0.15,,,,,,,,,,,,,,,,,,,,,,6102e877042872b030f90bb6,61036a5db33d786f994eba7c,2021-07-29_21h59.45.436,Simcolourproject_2stim_asymm_v5,2020.2.10,MacIntel,60,61025ae37ef11b136ea224fe,,,,,,,,,1162,-34,-74,1,0,0,response5disk,,3,-12,-12,1,0,0,rectangle,-12,-12,1,0,0,-12,-12,1,0,0,1,14,174,67,1,,,,,,,,
,,,,,,,,,,,,,FF,,,,,,,,0.135,,,,,,,,,,,,,,,,,,,,,,6102e877042872b030f90bb6,61036a5db33d786f994eba7c,2021-07-29_21h59.45.436,Simcolourproject_2stim_asymm_v5,2020.2.10,MacIntel,60,61025ae37ef11b136ea224fe,,,,,,,,,933,37,-64,1,0,0,response3disk,,4,13,6,1,0,0,rectangle,13,6,1,0,0,13,6,1,0,0,1,15,175,155,1,,,,,,,,
,,,,,,,,,,,,,FF,,,,,,,,0.101,,,,,,,,,,,,,,,,,,,,,,6102e877042872b030f90bb6,61036a5db33d786f994eba7c,2021-07-29_21h59.45.436,Simcolourproject_2stim_asymm_v5,2020.2.10,MacIntel,60,61025ae37ef11b136ea224fe,,,,,,,,,2490,66,-63,1,0,0,response3disk,,5,12,-1,1,0,0,rectangle,12,-1,1,0,0,12,-1,1,0,0,1,16,176,127,1,,,,,,,,
,,,,,,,,,,,,,FF,,,,,,,,0.2,,,,,,,,,,,,,,,,,,,,,,6102e877042872b030f90bb6,61036a5db33d786f994eba7c,2021-07-29_21h59.45.436,Simcolourproject_2stim_asymm_v5,2020.2.10,MacIntel,60,61025ae37ef11b136ea224fe,,,,,,,,,3316,38,-78,1,0,0,response3disk,,4,2,-6,1,0,0,rectangle,2,-6,1,0,0,2,-6,1,0,0,1,17,177,105,1,,,,,,,,
,,,,,,,,,,,,,FF,,,,,,,,0.217,,,,,,,,,,,,,,,,,,,,,,6102e877042872b030f90bb6,61036a5db33d786f994eba7c,2021-07-29_21h59.45.436,Simcolourproject_2stim_asymm_v5,2020.2.10,MacIntel,60,61025ae37ef11b136ea224fe,,,,,,,,,3397,-26,-57,1,0,0,response5disk,,3,-3,-6,1,0,0,rectangle,-3,-6,1,0,0,-3,-6,1,0,0,1,18,178,71,1,,,,,,,,
,,,,,,,,,,,,,FF,,,,,,,,1.483,,,,,,,,,,,,,,,,,,,,,,6102e877042872b030f90bb6,61036a5db33d786f994eba7c,2021-07-29_21h59.45.436,Simcolourproject_2stim_asymm_v5,2020.2.10,MacIntel,60,61025ae37ef11b136ea224fe,,,,,,,,,4125,52,-64,1,0,0,response3disk,,4,11,-3,1,0,0,rectangle,11,-3,1,0,0,11,-3,1,0,0,1,19,179,32,1,,,,,,,,
,,,,,,,,,,,,,FF,,,,,,,,0.267,,,,,,,,,,,,,,,,,,,,,,6102e877042872b030f90bb6,61036a5db33d786f994eba7c,2021-07-29_21h59.45.436,Simcolourproject_2stim_asymm_v5,2020.2.10,MacIntel,60,61025ae37ef11b136ea224fe,,,,,,,,,242,-28,-55,1,0,0,response5disk,,3,-10,0,1,0,0,rectangle,-10,0,1,0,0,-10,0,1,0,0,1,20,180,108,1,,,,,,,,
,,,,,,,,,,,,,FF,,,,,,,,0.201,,,,,,,,,,,,,,,,,,,,,,6102e877042872b030f90bb6,61036a5db33d786f994eba7c,2021-07-29_21h59.45.436,Simcolourproject_2stim_asymm_v5,2020.2.10,MacIntel,60,61025ae37ef11b136ea224fe,,,,,,,,,1874,-49,-32,1,0,0,response5disk,,2,-15,7,1,0,0,rectangle,-15,7,1,0,0,-15,7,1,0,0,1,21,181,102,1,,,,,,,,
,,,,,,,,,,,,,FF,,,,,,,,0.134,,,,,,,,,,,,,,,,,,,,,,6102e877042872b030f90bb6,61036a5db33d786f994eba7c,2021-07-29_21h59.45.436,Simcolourproject_2stim_asymm_v5,2020.2.10,MacIntel,60,61025ae37ef11b136ea224fe,,,,,,,,,1238,66,-78,1,0,0,response3disk,,4,10,-1,1,0,0,rectangle,10,-1,1,0,0,10,-1,1,0,0,1,22,182,159,1,,,,,,,,
,,,,,,,,,,,,,FF,,,,,,,,0.201,,,,,,,,,,,,,,,,,,,,,,6102e877042872b030f90bb6,61036a5db33d786f994eba7c,2021-07-29_21h59.45.436,Simcolourproject_2stim_asymm_v5,2020.2.10,MacIntel,60,61025ae37ef11b136ea224fe,,,,,,,,,1911,60,24,1,0,0,response1disk,,6,16,-5,1,0,0,rectangle,16,-5,1,0,0,16,-5,1,0,0,1,23,183,1,1,,,,,,,,
,,,,,,,,,,,,,FF,,,,,,,,0.149,,,,,,,,,,,,,,,,,,,,,,6102e877042872b030f90bb6,61036a5db33d786f994eba7c,2021-07-29_21h59.45.436,Simcolourproject_2stim_asymm_v5,2020.2.10,MacIntel,60,61025ae37ef11b136ea224fe,,,,,,,,,151,-59,-41,1,0,0,response5disk,,2,-14,0,1,0,0,rectangle,-14,0,1,0,0,-14,0,1,0,0,1,24,184,29,1,,,,,,,,
,,,,,,,,,,,,,FF,,,,,,,,0.117,,,,,,,,,,,,,,,,,,,,,,6102e877042872b030f90bb6,61036a5db33d786f994eba7c,2021-07-29_21h59.45.436,Simcolourproject_2stim_asymm_v5,2020.2.10,MacIntel,60,61025ae37ef11b136ea224fe,,,,,,,,,25,72,-54,1,0,0,response3disk,,5,19,4,1,0,0,rectangle,19,4,1,0,0,19,4,1,0,0,1,25,185,57,1,,,,,,,,
,,,,,,,,,,,,,FF,,,,,,,,0.15,,,,,,,,,,,,,,,,,,,,,,6102e877042872b030f90bb6,61036a5db33d786f994eba7c,2021-07-29_21h59.45.436,Simcolourproject_2stim_asymm_v5,2020.2.10,MacIntel,60,61025ae37ef11b136ea224fe,,,,,,,,,3028,-38,-74,1,0,0,response5disk,,3,-21,-11,1,0,0,rectangle,-21,-11,1,0,0,-21,-11,1,0,0,1,26,186,20,1,,,,,,,,
,,,,,,,,,,,,,FF,,,,,,,,0.166,,,,,,,,,,,,,,,,,,,,,,6102e877042872b030f90bb6,61036a5db33d786f994eba7c,2021-07-29_21h59.45.436,Simcolourproject_2stim_asymm_v5,2020.2.10,MacIntel,60,61025ae37ef11b136ea224fe,,,,,,,,,3883,-40,50,1,0,0,response7disk,,0,-8,-10,1,0,0,rectangle,-8,-10,1,0,0,-8,-10,1,0,0,1,27,187,132,1,,,,,,,,
,,,,,,,,,,,,,FF,,,,,,,,0.23,,,,,,,,,,,,,,,,,,,,,,6102e877042872b030f90bb6,61036a5db33d786f994eba7c,2021-07-29_21h59.45.436,Simcolourproject_2stim_asymm_v5,2020.2.10,MacIntel,60,61025ae37ef11b136ea224fe,,,,,,,,,3420,53,32,1,0,0,response1disk,,6,11,-3,1,0,0,rectangle,11,-3,1,0,0,11,-3,1,0,0,1,28,188,96,1,,,,,,,,
,,,,,,,,,,,,,FF,,,,,,,,0.201,,,,,,,,,,,,,,,,,,,,,,6102e877042872b030f90bb6,61036a5db33d786f994eba7c,2021-07-29_21h59.45.436,Simcolourproject_2stim_asymm_v5,2020.2.10,MacIntel,60,61025ae37ef11b136ea224fe,,,,,,,,,336,-49,34,1,0,0,response7disk,,1,-6,-5,1,0,0,rectangle,-6,-5,1,0,0,-6,-5,1,0,0,1,29,189,137,1,,,,,,,,
,,,,,,,,,,,,,FF,,,,,,,,0.222,,,,,,,,,,,,,,,,,,,,,,6102e877042872b030f90bb6,61036a5db33d786f994eba7c,2021-07-29_21h59.45.436,Simcolourproject_2stim_asymm_v5,2020.2.10,MacIntel,60,61025ae37ef11b136ea224fe,,,,,,,,,3521,-32,-79,1,0,0,response5disk,,3,0,-10,1,0,0,rectangle,0,-10,1,0,0,0,-10,1,0,0,1,30,190,128,1,,,,,,,,
,,,,,,,,,,,,,FF,,,,,,,,0.2,,,,,,,,,,,,,,,,,,,,,,6102e877042872b030f90bb6,61036a5db33d786f994eba7c,2021-07-29_21h59.45.436,Simcolourproject_2stim_asymm_v5,2020.2.10,MacIntel,60,61025ae37ef11b136ea224fe,,,,,,,,,67,31,-49,1,0,0,response3disk,,4,7,10,1,0,0,rectangle,7,10,1,0,0,7,10,1,0,0,1,31,191,58,1,,,,,,,,
,,,,,,,,,,,,,FF,,,,,,,,0.235,,,,,,,,,,,,,,,,,,,,,,6102e877042872b030f90bb6,61036a5db33d786f994eba7c,2021-07-29_21h59.45.436,Simcolourproject_2stim_asymm_v5,2020.2.10,MacIntel,60,61025ae37ef11b136ea224fe,,,,,,,,,995,50,23,1,0,0,response1disk,,6,10,-17,1,0,0,rectangle,10,-17,1,0,0,10,-17,1,0,0,1,32,192,74,1,,,,,,,,
,,,,,,,,,,,,,FF,,,,,,,,0.134,,,,,,,,,,,,,,,,,,,,,,6102e877042872b030f90bb6,61036a5db33d786f994eba7c,2021-07-29_21h59.45.436,Simcolourproject_2stim_asymm_v5,2020.2.10,MacIntel,60,61025ae37ef11b136ea224fe,,,,,,,,,2574,-66,-59,1,0,0,response5disk,,2,-11,-8,1,0,0,rectangle,-11,-8,1,0,0,-11,-8,1,0,0,1,33,193,150,1,,,,,,,,
,,,,,,,,,,,,,FF,,,,,,,,0.151,,,,,,,,,,,,,,,,,,,,,,6102e877042872b030f90bb6,61036a5db33d786f994eba7c,2021-07-29_21h59.45.436,Simcolourproject_2stim_asymm_v5,2020.2.10,MacIntel,60,61025ae37ef11b136ea224fe,,,,,,,,,2455,48,-51,1,0,0,response3disk,,4,15,0,1,0,0,rectangle,15,0,1,0,0,15,0,1,0,0,1,34,194,157,1,,,,,,,,
,,,,,,,,,,,,,FF,,,,,,,,0.266,,,,,,,,,,,,,,,,,,,,,,6102e877042872b030f90bb6,61036a5db33d786f994eba7c,2021-07-29_21h59.45.436,Simcolourproject_2stim_asymm_v5,2020.2.10,MacIntel,60,61025ae37ef11b136ea224fe,,,,,,,,,3286,71,-42,1,0,0,response3disk,,5,15,7,1,0,0,rectangle,15,7,1,0,0,15,7,1,0,0,1,35,195,115,1,,,,,,,,
,,,,,,,,,,,,,FF,,,,,,,,0.249,,,,,,,,,,,,,,,,,,,,,,6102e877042872b030f90bb6,61036a5db33d786f994eba7c,2021-07-29_21h59.45.436,Simcolourproject_2stim_asymm_v5,2020.2.10,MacIntel,60,61025ae37ef11b136ea224fe,,,,,,,,,396,58,28,1,0,0,response1disk,,6,12,-6,1,0,0,rectangle,12,-6,1,0,0,12,-6,1,0,0,1,36,196,26,1,,,,,,,,
,,,,,,,,,,,,,FF,,,,,,,,0.133,,,,,,,,,,,,,,,,,,,,,,6102e877042872b030f90bb6,61036a5db33d786f994eba7c,2021-07-29_21h59.45.436,Simcolourproject_2stim_asymm_v5,2020.2.10,MacIntel,60,61025ae37ef11b136ea224fe,,,,,,,,,388,45,-70,1,0,0,response3disk,,4,26,-16,1,0,0,rectangle,26,-16,1,0,0,26,-16,1,0,0,1,37,197,10,1,,,,,,,,
,,,,,,,,,,,,,FF,,,,,,,,0.267,,,,,,,,,,,,,,,,,,,,,,6102e877042872b030f90bb6,61036a5db33d786f994eba7c,2021-07-29_21h59.45.436,Simcolourproject_2stim_asymm_v5,2020.2.10,MacIntel,60,61025ae37ef11b136ea224fe,,,,,,,,,4341,-28,-55,1,0,0,response5disk,,3,0,-9,1,0,0,rectangle,0,-9,1,0,0,0,-9,1,0,0,1,38,198,104,1,,,,,,,,
,,,,,,,,,,,,,FF,,,,,,,,0.234,,,,,,,,,,,,,,,,,,,,,,6102e877042872b030f90bb6,61036a5db33d786f994eba7c,2021-07-29_21h59.45.436,Simcolourproject_2stim_asymm_v5,2020.2.10,MacIntel,60,61025ae37ef11b136ea224fe,,,,,,,,,2243,60,31,1,0,0,response1disk,,6,26,-3,1,0,0,rectangle,26,-3,1,0,0,26,-3,1,0,0,1,39,199,27,1,,,,,,,,
,,,,,,,,,,,,,FF,,,,,,,,0.283,,,,,,,,,,,,,,,,,,,,,,6102e877042872b030f90bb6,61036a5db33d786f994eba7c,2021-07-29_21h59.45.436,Simcolourproject_2stim_asymm_v5,2020.2.10,MacIntel,60,61025ae37ef11b136ea224fe,,,,,,,,,895,30,54,1,0,0,response1disk,,7,24,14,1,0,0,rectangle,24,14,1,0,0,24,14,1,0,0,1,40,200,146,1,,,,,,,,
,,,,,,,,,,,,,FF,,,,,,,,0.434,,,,,,,,,,,,,,,,,,,,,,6102e877042872b030f90bb6,61036a5db33d786f994eba7c,2021-07-29_21h59.45.436,Simcolourproject_2stim_asymm_v5,2020.2.10,MacIntel,60,61025ae37ef11b136ea224fe,,,,,,,,,660,43,-36,1,0,0,response3disk,,5,23,-6,1,0,0,rectangle,23,-6,1,0,0,23,-6,1,0,0,1,41,201,107,1,,,,,,,,
,,,,,,,,,,,,,FF,,,,,,,,0.201,,,,,,,,,,,,,,,,,,,,,,6102e877042872b030f90bb6,61036a5db33d786f994eba7c,2021-07-29_21h59.45.436,Simcolourproject_2stim_asymm_v5,2020.2.10,MacIntel,60,61025ae37ef11b136ea224fe,,,,,,,,,3693,-15,-61,1,0,0,response5disk,,3,-2,-3,1,0,0,rectangle,-2,-3,1,0,0,-2,-3,1,0,0,1,42,202,68,1,,,,,,,,
,,,,,,,,,,,,,FF,,,,,,,,0.284,,,,,,,,,,,,,,,,,,,,,,6102e877042872b030f90bb6,61036a5db33d786f994eba7c,2021-07-29_21h59.45.436,Simcolourproject_2stim_asymm_v5,2020.2.10,MacIntel,60,61025ae37ef11b136ea224fe,,,,,,,,,1110,-54,-16,1,0,0,response5disk,,2,-9,3,1,0,0,rectangle,-9,3,1,0,0,-9,3,1,0,0,1,43,203,141,1,,,,,,,,
,,,,,,,,,,,,,FF,,,,,,,,0.101,,,,,,,,,,,,,,,,,,,,,,6102e877042872b030f90bb6,61036a5db33d786f994eba7c,2021-07-29_21h59.45.436,Simcolourproject_2stim_asymm_v5,2020.2.10,MacIntel,60,61025ae37ef11b136ea224fe,,,,,,,,,4083,33,-72,1,0,0,response3disk,,4,8,-8,1,0,0,rectangle,8,-8,1,0,0,8,-8,1,0,0,1,44,204,7,1,,,,,,,,
,,,,,,,,,,,,,FF,,,,,,,,0.167,,,,,,,,,,,,,,,,,,,,,,6102e877042872b030f90bb6,61036a5db33d786f994eba7c,2021-07-29_21h59.45.436,Simcolourproject_2stim_asymm_v5,2020.2.10,MacIntel,60,61025ae37ef11b136ea224fe,,,,,,,,,3914,62,-36,1,0,0,response3disk,,5,9,13,1,0,0,rectangle,9,13,1,0,0,9,13,1,0,0,1,45,205,123,1,,,,,,,,
,,,,,,,,,,,,,FF,,,,,,,,0.2,,,,,,,,,,,,,,,,,,,,,,6102e877042872b030f90bb6,61036a5db33d786f994eba7c,2021-07-29_21h59.45.436,Simcolourproject_2stim_asymm_v5,2020.2.10,MacIntel,60,61025ae37ef11b136ea224fe,,,,,,,,,820,-25,-52,1,0,0,response5disk,,3,-12,-13,1,0,0,rectangle,-12,-13,1,0,0,-12,-13,1,0,0,1,46,206,101,1,,,,,,,,
,,,,,,,,,,,,,FF,,,,,,,,0.217,,,,,,,,,,,,,,,,,,,,,,6102e877042872b030f90bb6,61036a5db33d786f994eba7c,2021-07-29_21h59.45.436,Simcolourproject_2stim_asymm_v5,2020.2.10,MacIntel,60,61025ae37ef11b136ea224fe,,,,,,,,,2143,-40,-30,1,0,0,response5disk,,2,-14,6,1,0,0,rectangle,-14,6,1,0,0,-14,6,1,0,0,1,47,207,139,1,,,,,,,,
,,,,,,,,,,,,,FF,,,,,,,,0.201,,,,,,,,,,,,,,,,,,,,,,6102e877042872b030f90bb6,61036a5db33d786f994eba7c,2021-07-29_21h59.45.436,Simcolourproject_2stim_asymm_v5,2020.2.10,MacIntel,60,61025ae37ef11b136ea224fe,,,,,,,,,3626,73,32,1,0,0,response1disk,,6,26,-8,1,0,0,rectangle,26,-8,1,0,0,26,-8,1,0,0,1,48,208,3,1,,,,,,,,
,,,,,,,,,,,,,FF,,,,,,,,0.416,,,,,,,,,,,,,,,,,,,,,,6102e877042872b030f90bb6,61036a5db33d786f994eba7c,2021-07-29_21h59.45.436,Simcolourproject_2stim_asymm_v5,2020.2.10,MacIntel,60,61025ae37ef11b136ea224fe,,,,,,,,,845,29,-77,1,0,0,response3disk,,4,5,11,1,0,0,rectangle,5,11,1,0,0,5,11,1,0,0,1,49,209,15,1,,,,,,,,
,,,,,,,,,,,,,FF,,,,,,,,0.2,,,,,,,,,,,,,,,,,,,,,,6102e877042872b030f90bb6,61036a5db33d786f994eba7c,2021-07-29_21h59.45.436,Simcolourproject_2stim_asymm_v5,2020.2.10,MacIntel,60,61025ae37ef11b136ea224fe,,,,,,,,,2775,-28,-50,1,0,0,response5disk,,3,-15,-3,1,0,0,rectangle,-15,-3,1,0,0,-15,-3,1,0,0,1,50,210,54,1,,,,,,,,
,,,,,,,,,,,,,FF,,,,,,,,0.251,,,,,,,,,,,,,,,,,,,,,,6102e877042872b030f90bb6,61036a5db33d786f994eba7c,2021-07-29_21h59.45.436,Simcolourproject_2stim_asymm_v5,2020.2.10,MacIntel,60,61025ae37ef11b136ea224fe,,,,,,,,,1949,-53,19,1,0,0,response7disk,,1,-7,-14,1,0,0,rectangle,41,-75,1,0,0,8,3,1,0,0,1,51,211,98,1,,response3disk_3,TRUE,4,4,"[225,255,277,34,163,212,154,224,55,299,251,253,60,132,109,233,311,173,89,220]",1.683,rectangle
,,,,,,,,,,,,,FF,,,,,,,,0.2,,,,,,,,,,,,,,,,,,,,,,6102e877042872b030f90bb6,61036a5db33d786f994eba7c,2021-07-29_21h59.45.436,Simcolourproject_2stim_asymm_v5,2020.2.10,MacIntel,60,61025ae37ef11b136ea224fe,,,,,,,,,1951,46,21,1,0,0,response1disk,,6,17,-4,1,0,0,rectangle,17,-4,1,0,0,17,-4,1,0,0,1,52,212,111,1,,,,,,,,
,,,,,,,,,,,,,FF,,,,,,,,0.1,,,,,,,,,,,,,,,,,,,,,,6102e877042872b030f90bb6,61036a5db33d786f994eba7c,2021-07-29_21h59.45.436,Simcolourproject_2stim_asymm_v5,2020.2.10,MacIntel,60,61025ae37ef11b136ea224fe,,,,,,,,,2053,41,-73,1,0,0,response3disk,,4,10,-3,1,0,0,rectangle,10,-3,1,0,0,10,-3,1,0,0,1,53,213,66,1,,,,,,,,
,,,,,,,,,,,,,FF,,,,,,,,0.134,,,,,,,,,,,,,,,,,,,,,,6102e877042872b030f90bb6,61036a5db33d786f994eba7c,2021-07-29_21h59.45.436,Simcolourproject_2stim_asymm_v5,2020.2.10,MacIntel,60,61025ae37ef11b136ea224fe,,,,,,,,,3060,57,-51,1,0,0,response3disk,,5,-4,-3,1,0,0,rectangle,-4,-3,1,0,0,-4,-3,1,0,0,1,54,214,70,1,,,,,,,,
,,,,,,,,,,,,,FF,,,,,,,,0.168,,,,,,,,,,,,,,,,,,,,,,6102e877042872b030f90bb6,61036a5db33d786f994eba7c,2021-07-29_21h59.45.436,Simcolourproject_2stim_asymm_v5,2020.2.10,MacIntel,60,61025ae37ef11b136ea224fe,,,,,,,,,1876,-60,-36,1,0,0,response5disk,,2,-18,-4,1,0,0,rectangle,-18,-4,1,0,0,-18,-4,1,0,0,1,55,215,33,1,,,,,,,,
,,,,,,,,,,,,,FF,,,,,,,,0.201,,,,,,,,,,,,,,,,,,,,,,6102e877042872b030f90bb6,61036a5db33d786f994eba7c,2021-07-29_21h59.45.436,Simcolourproject_2stim_asymm_v5,2020.2.10,MacIntel,60,61025ae37ef11b136ea224fe,,,,,,,,,2253,-30,-62,1,0,0,response5disk,,3,3,10,1,0,0,rectangle,3,10,1,0,0,3,10,1,0,0,1,56,216,62,1,,,,,,,,
,,,,,,,,,,,,,FF,,,,,,,,0.202,,,,,,,,,,,,,,,,,,,,,,6102e877042872b030f90bb6,61036a5db33d786f994eba7c,2021-07-29_21h59.45.436,Simcolourproject_2stim_asymm_v5,2020.2.10,MacIntel,60,61025ae37ef11b136ea224fe,,,,,,,,,3223,67,41,1,0,0,response1disk,,6,15,-9,1,0,0,rectangle,15,-9,1,0,0,15,-9,1,0,0,1,57,217,131,1,,,,,,,,
,,,,,,,,,,,,,FF,,,,,,,,0.182,,,,,,,,,,,,,,,,,,,,,,6102e877042872b030f90bb6,61036a5db33d786f994eba7c,2021-07-29_21h59.45.436,Simcolourproject_2stim_asymm_v5,2020.2.10,MacIntel,60,61025ae37ef11b136ea224fe,,,,,,,,,2005,43,-67,1,0,0,response3disk,,4,16,2,1,0,0,rectangle,16,2,1,0,0,16,2,1,0,0,1,58,218,44,1,,,,,,,,
,,,,,,,,,,,,,FF,,,,,,,,0.168,,,,,,,,,,,,,,,,,,,,,,6102e877042872b030f90bb6,61036a5db33d786f994eba7c,2021-07-29_21h59.45.436,Simcolourproject_2stim_asymm_v5,2020.2.10,MacIntel,60,61025ae37ef11b136ea224fe,,,,,,,,,2861,-44,-70,1,0,0,response5disk,,3,-6,-16,1,0,0,rectangle,-65,-34,1,0,0,-7,-1,1,0,0,1,59,219,37,1,,response5disk_3,TRUE,2,2,"[225,255,277,34,163,212,154,224,55,299,251,253,60,132,109,233,311,173,89,220]",1.548,rectangle
,,,,,,,,,,,,,FF,,,,,,,,0.218,,,,,,,,,,,,,,,,,,,,,,6102e877042872b030f90bb6,61036a5db33d786f994eba7c,2021-07-29_21h59.45.436,Simcolourproject_2stim_asymm_v5,2020.2.10,MacIntel,60,61025ae37ef11b136ea224fe,,,,,,,,,1843,-27,-51,1,0,0,response5disk,,3,-1,2,1,0,0,rectangle,-1,2,1,0,0,-1,2,1,0,0,1,60,220,17,1,,,,,,,,
,,,,,,,,,,,,,FF,,,,,,,,0.151,,,,,,,,,,,,,,,,,,,,,,6102e877042872b030f90bb6,61036a5db33d786f994eba7c,2021-07-29_21h59.45.436,Simcolourproject_2stim_asymm_v5,2020.2.10,MacIntel,60,61025ae37ef11b136ea224fe,,,,,,,,,2618,82,25,1,0,0,response1disk,,6,32,-6,1,0,0,rectangle,32,-6,1,0,0,32,-6,1,0,0,1,61,221,83,1,,,,,,,,
,,,,,,,,,,,,,FF,,,,,,,,0.151,,,,,,,,,,,,,,,,,,,,,,6102e877042872b030f90bb6,61036a5db33d786f994eba7c,2021-07-29_21h59.45.436,Simcolourproject_2stim_asymm_v5,2020.2.10,MacIntel,60,61025ae37ef11b136ea224fe,,,,,,,,,2329,40,-62,1,0,0,response3disk,,4,18,-8,1,0,0,rectangle,18,-8,1,0,0,18,-8,1,0,0,1,62,222,149,1,,,,,,,,
,,,,,,,,,,,,,FF,,,,,,,,0.151,,,,,,,,,,,,,,,,,,,,,,6102e877042872b030f90bb6,61036a5db33d786f994eba7c,2021-07-29_21h59.45.436,Simcolourproject_2stim_asymm_v5,2020.2.10,MacIntel,60,61025ae37ef11b136ea224fe,,,,,,,,,3655,-30,-73,1,0,0,response5disk,,3,-8,0,1,0,0,rectangle,-61,28,1,0,0,-16,-5,1,0,0,1,63,223,22,1,,response7disk_3,TRUE,1,1,"[225,255,277,34,163,212,154,224,55,299,251,253,60,132,109,233,311,173,89,220]",1.066,rectangle
,,,,,,,,,,,,,FF,,,,,,,,0.25,,,,,,,,,,,,,,,,,,,,,,6102e877042872b030f90bb6,61036a5db33d786f994eba7c,2021-07-29_21h59.45.436,Simcolourproject_2stim_asymm_v5,2020.2.10,MacIntel,60,61025ae37ef11b136ea224fe,,,,,,,,,2524,53,30,1,0,0,response1disk,,6,4,6,1,0,0,rectangle,26,64,1,0,0,19,3,1,0,0,1,64,224,121,1,,response1disk_3,TRUE,7,7,"[225,255,277,34,163,212,154,224,55,299,251,253,60,132,109,233,311,173,89,220]",1.099,rectangle
,,,,,,,,,,,,,FF,,,,,,,,0.25,,,,,,,,,,,,,,,,,,,,,,6102e877042872b030f90bb6,61036a5db33d786f994eba7c,2021-07-29_21h59.45.436,Simcolourproject_2stim_asymm_v5,2020.2.10,MacIntel,60,61025ae37ef11b136ea224fe,,,,,,,,,636,78,32,1,0,0,response1disk,,6,18,-9,1,0,0,rectangle,18,-9,1,0,0,18,-9,1,0,0,1,65,225,18,1,,,,,,,,
,,,,,,,,,,,,,FF,,,,,,,,0.183,,,,,,,,,,,,,,,,,,,,,,6102e877042872b030f90bb6,61036a5db33d786f994eba7c,2021-07-29_21h59.45.436,Simcolourproject_2stim_asymm_v5,2020.2.10,MacIntel,60,61025ae37ef11b136ea224fe,,,,,,,,,210,29,-50,1,0,0,response3disk,,4,10,2,1,0,0,rectangle,10,2,1,0,0,10,2,1,0,0,1,66,226,46,1,,,,,,,,
,,,,,,,,,,,,,FF,,,,,,,,0.416,,,,,,,,,,,,,,,,,,,,,,6102e877042872b030f90bb6,61036a5db33d786f994eba7c,2021-07-29_21h59.45.436,Simcolourproject_2stim_asymm_v5,2020.2.10,MacIntel,60,61025ae37ef11b136ea224fe,,,,,,,,,2410,73,31,1,0,0,response1disk,,6,11,-5,1,0,0,rectangle,11,-5,1,0,0,11,-5,1,0,0,1,67,227,99,1,,,,,,,,
,,,,,,,,,,,,,FF,,,,,,,,0.299,,,,,,,,,,,,,,,,,,,,,,6102e877042872b030f90bb6,61036a5db33d786f994eba7c,2021-07-29_21h59.45.436,Simcolourproject_2stim_asymm_v5,2020.2.10,MacIntel,60,61025ae37ef11b136ea224fe,,,,,,,,,840,48,-40,1,0,0,response3disk,,5,8,-2,1,0,0,rectangle,8,-2,1,0,0,8,-2,1,0,0,1,68,228,153,1,,,,,,,,
,,,,,,,,,,,,,FF,,,,,,,,0.467,,,,,,,,,,,,,,,,,,,,,,6102e877042872b030f90bb6,61036a5db33d786f994eba7c,2021-07-29_21h59.45.436,Simcolourproject_2stim_asymm_v5,2020.2.10,MacIntel,60,61025ae37ef11b136ea224fe,,,,,,,,,2875,52,37,1,0,0,response1disk,,6,10,-4,1,0,0,rectangle,10,-4,1,0,0,10,-4,1,0,0,1,69,229,75,1,,,,,,,,
,,,,,,,,,,,,,FF,,,,,,,,0.384,,,,,,,,,,,,,,,,,,,,,,6102e877042872b030f90bb6,61036a5db33d786f994eba7c,2021-07-29_21h59.45.436,Simcolourproject_2stim_asymm_v5,2020.2.10,MacIntel,60,61025ae37ef11b136ea224fe,,,,,,,,,3531,39,-66,1,0,0,response3disk,,4,29,4,1,0,0,rectangle,29,4,1,0,0,29,4,1,0,0,1,70,230,81,1,,,,,,,,
,,,,,,,,,,,,,FF,,,,,,,,0.317,,,,,,,,,,,,,,,,,,,,,,6102e877042872b030f90bb6,61036a5db33d786f994eba7c,2021-07-29_21h59.45.436,Simcolourproject_2stim_asymm_v5,2020.2.10,MacIntel,60,61025ae37ef11b136ea224fe,,,,,,,,,3638,66,20,1,0,0,response1disk,,6,20,-9,1,0,0,rectangle,20,-9,1,0,0,20,-9,1,0,0,1,71,231,2,1,,,,,,,,
,,,,,,,,,,,,,FF,,,,,,,,0.715,,,,,,,,,,,,,,,,,,,,,,6102e877042872b030f90bb6,61036a5db33d786f994eba7c,2021-07-29_21h59.45.436,Simcolourproject_2stim_asymm_v5,2020.2.10,MacIntel,60,61025ae37ef11b136ea224fe,,,,,,,,,657,-43,16,1,0,0,response7disk,,1,-9,1,1,0,0,rectangle,85,-37,1,0,0,9,2,1,0,0,1,72,232,21,1,,response3disk_3,TRUE,5,5,"[225,255,277,34,163,212,154,224,55,299,251,253,60,132,109,233,311,173,89,220]",1.416,rectangle
,,,,,,,,,,,,,FF,,,,,,,,0.151,,,,,,,,,,,,,,,,,,,,,,6102e877042872b030f90bb6,61036a5db33d786f994eba7c,2021-07-29_21h59.45.436,Simcolourproject_2stim_asymm_v5,2020.2.10,MacIntel,60,61025ae37ef11b136ea224fe,,,,,,,,,3685,55,28,1,0,0,response1disk,,6,20,-2,1,0,0,rectangle,20,-2,1,0,0,20,-2,1,0,0,1,73,233,5,1,,,,,,,,
,,,,,,,,,,,,,FF,,,,,,,,0.217,,,,,,,,,,,,,,,,,,,,,,6102e877042872b030f90bb6,61036a5db33d786f994eba7c,2021-07-29_21h59.45.436,Simcolourproject_2stim_asymm_v5,2020.2.10,MacIntel,60,61025ae37ef11b136ea224fe,,,,,,,,,2715,41,-52,1,0,0,response3disk,,4,25,0,1,0,0,rectangle,25,0,1,0,0,25,0,1,0,0,1,74,234,125,1,,,,,,,,
,,,,,,,,,,,,,FF,,,,,,,,1.165,,,,,,,,,,,,,,,,,,,,,,6102e877042872b030f90bb6,61036a5db33d786f994eba7c,2021-07-29_21h59.45.436,Simcolourproject_2stim_asymm_v5,2020.2.10,MacIntel,60,61025ae37ef11b136ea224fe,,,,,,,,,1528,-48,-25,1,0,0,response5disk,,2,-9,-2,1,0,0,rectangle,-9,-2,1,0,0,-9,-2,1,0,0,1,75,235,89,1,,,,,,,,
,,,,,,,,,,,,,FF,,,,,,,,1.799,,,,,,,,,,,,,,,,,,,,,,6102e877042872b030f90bb6,61036a5db33d786f994eba7c,2021-07-29_21h59.45.436,Simcolourproject_2stim_asymm_v5,2020.2.10,MacIntel,60,61025ae37ef11b136ea224fe,,,,,,,,,886,-82,-21,1,0,0,response5disk,,2,-7,10,1,0,0,rectangle,-7,10,1,0,0,-7,10,1,0,0,1,76,236,12,1,,,,,,,,
,,,,,,,,,,,,,FF,,,,,,,,0.699,,,,,,,,,,,,,,,,,,,,,,6102e877042872b030f90bb6,61036a5db33d786f994eba7c,2021-07-29_21h59.45.436,Simcolourproject_2stim_asymm_v5,2020.2.10,MacIntel,60,61025ae37ef11b136ea224fe,,,,,,,,,1713,54,19,1,0,0,response1disk,,6,-17,1,1,0,0,rectangle,-17,1,1,0,0,-17,1,1,0,0,1,77,237,136,1,,,,,,,,
,,,,,,,,,,,,,FF,,,,,,,,0.617,,,,,,,,,,,,,,,,,,,,,,6102e877042872b030f90bb6,61036a5db33d786f994eba7c,2021-07-29_21h59.45.436,Simcolourproject_2stim_asymm_v5,2020.2.10,MacIntel,60,61025ae37ef11b136ea224fe,,,,,,,,,3149,-31,21,1,0,0,response7disk,,1,5,5,1,0,0,rectangle,5,5,1,0,0,5,5,1,0,0,1,78,238,130,1,,,,,,,,
,,,,,,,,,,,,,FF,,,,,,,,0.434,,,,,,,,,,,,,,,,,,,,,,6102e877042872b030f90bb6,61036a5db33d786f994eba7c,2021-07-29_21h59.45.436,Simcolourproject_2stim_asymm_v5,2020.2.10,MacIntel,60,61025ae37ef11b136ea224fe,,,,,,,,,3326,-32,-41,1,0,0,response5disk,,3,2,10,1,0,0,rectangle,2,10,1,0,0,2,10,1,0,0,1,79,239,11,1,,,,,,,,
,,,,,,,,,,,,,FF,,,,,,,,0.117,,,,,,,,,,,,,,,,,,,,,,6102e877042872b030f90bb6,61036a5db33d786f994eba7c,2021-07-29_21h59.45.436,Simcolourproject_2stim_asymm_v5,2020.2.10,MacIntel,60,61025ae37ef11b136ea224fe,,,,,,,,,2629,36,-52,1,0,0,response3disk,,4,20,8,1,0,0,rectangle,20,8,1,0,0,20,8,1,0,0,1,80,240,90,1,,,,,,,,
,,,,,,,,,,,,,FF,,,,,,,,0.183,,,,,,,,,,,,,,,,,,,,,,6102e877042872b030f90bb6,61036a5db33d786f994eba7c,2021-07-29_21h59.45.436,Simcolourproject_2stim_asymm_v5,2020.2.10,MacIntel,60,61025ae37ef11b136ea224fe,,,,,,,,,3284,69,29,1,0,0,response1disk,,6,17,-4,1,0,0,rectangle,17,-4,1,0,0,17,-4,1,0,0,1,81,241,91,1,,,,,,,,
,,,,,,,,,,,,,FF,,,,,,,,0.135,,,,,,,,,,,,,,,,,,,,,,6102e877042872b030f90bb6,61036a5db33d786f994eba7c,2021-07-29_21h59.45.436,Simcolourproject_2stim_asymm_v5,2020.2.10,MacIntel,60,61025ae37ef11b136ea224fe,,,,,,,,,3872,32,-65,1,0,0,response3disk,,4,5,-15,1,0,0,rectangle,5,-15,1,0,0,5,-15,1,0,0,1,82,242,126,1,,,,,,,,
,,,,,,,,,,,,,FF,,,,,,,,0.133,,,,,,,,,,,,,,,,,,,,,,6102e877042872b030f90bb6,61036a5db33d786f994eba7c,2021-07-29_21h59.45.436,Simcolourproject_2stim_asymm_v5,2020.2.10,MacIntel,60,61025ae37ef11b136ea224fe,,,,,,,,,4305,-20,-60,1,0,0,response5disk,,3,-3,-4,1,0,0,rectangle,-3,-4,1,0,0,-3,-4,1,0,0,1,83,243,30,1,,,,,,,,
,,,,,,,,,,,,,FF,,,,,,,,0.334,,,,,,,,,,,,,,,,,,,,,,6102e877042872b030f90bb6,61036a5db33d786f994eba7c,2021-07-29_21h59.45.436,Simcolourproject_2stim_asymm_v5,2020.2.10,MacIntel,60,61025ae37ef11b136ea224fe,,,,,,,,,1964,45,-55,1,0,0,response3disk,,4,26,11,1,0,0,rectangle,26,11,1,0,0,26,11,1,0,0,1,84,244,110,1,,,,,,,,
,,,,,,,,,,,,,FF,,,,,,,,0.299,,,,,,,,,,,,,,,,,,,,,,6102e877042872b030f90bb6,61036a5db33d786f994eba7c,2021-07-29_21h59.45.436,Simcolourproject_2stim_asymm_v5,2020.2.10,MacIntel,60,61025ae37ef11b136ea224fe,,,,,,,,,2055,-35,-79,1,0,0,response5disk,,3,9,11,1,0,0,rectangle,9,11,1,0,0,9,11,1,0,0,1,85,245,72,1,,,,,,,,
,,,,,,,,,,,,,FF,,,,,,,,0.668,,,,,,,,,,,,,,,,,,,,,,6102e877042872b030f90bb6,61036a5db33d786f994eba7c,2021-07-29_21h59.45.436,Simcolourproject_2stim_asymm_v5,2020.2.10,MacIntel,60,61025ae37ef11b136ea224fe,,,,,,,,,2753,68,22,1,0,0,response1disk,,6,18,4,1,0,0,rectangle,18,4,1,0,0,18,4,1,0,0,1,86,246,9,1,,,,,,,,
,,,,,,,,,,,,,FF,,,,,,,,0.199,,,,,,,,,,,,,,,,,,,,,,6102e877042872b030f90bb6,61036a5db33d786f994eba7c,2021-07-29_21h59.45.436,Simcolourproject_2stim_asymm_v5,2020.2.10,MacIntel,60,61025ae37ef11b136ea224fe,,,,,,,,,1423,69,36,1,0,0,response1disk,,6,29,13,1,0,0,rectangle,29,13,1,0,0,29,13,1,0,0,1,87,247,48,1,,,,,,,,
,,,,,,,,,,,,,FF,,,,,,,,0.183,,,,,,,,,,,,,,,,,,,,,,6102e877042872b030f90bb6,61036a5db33d786f994eba7c,2021-07-29_21h59.45.436,Simcolourproject_2stim_asymm_v5,2020.2.10,MacIntel,60,61025ae37ef11b136ea224fe,,,,,,,,,2007,86,44,1,0,0,response1disk,,6,28,6,1,0,0,rectangle,28,6,1,0,0,28,6,1,0,0,1,88,248,53,1,,,,,,,,
,,,,,,,,,,,,,FF,,,,,,,,0.583,,,,,,,,,,,,,,,,,,,,,,6102e877042872b030f90bb6,61036a5db33d786f994eba7c,2021-07-29_21h59.45.436,Simcolourproject_2stim_asymm_v5,2020.2.10,MacIntel,60,61025ae37ef11b136ea224fe,,,,,,,,,4334,46,64,1,0,0,response1disk,,7,29,4,1,0,0,rectangle,29,4,1,0,0,29,4,1,0,0,1,89,249,60,1,,,,,,,,
,,,,,,,,,,,,,FF,,,,,,,,0.2,,,,,,,,,,,,,,,,,,,,,,6102e877042872b030f90bb6,61036a5db33d786f994eba7c,2021-07-29_21h59.45.436,Simcolourproject_2stim_asymm_v5,2020.2.10,MacIntel,60,61025ae37ef11b136ea224fe,,,,,,,,,1707,76,46,1,0,0,response1disk,,6,17,-1,1,0,0,rectangle,72,27,1,0,0,24,10,1,0,0,1,90,250,138,1,,response1disk_3,TRUE,6,6,"[225,255,277,34,163,212,154,224,55,299,251,253,60,132,109,233,311,173,89,220]",1.315,rectangle
,,,,,,,,,,,,,FF,,,,,,,,0.366,,,,,,,,,,,,,,,,,,,,,,6102e877042872b030f90bb6,61036a5db33d786f994eba7c,2021-07-29_21h59.45.436,Simcolourproject_2stim_asymm_v5,2020.2.10,MacIntel,60,61025ae37ef11b136ea224fe,,,,,,,,,3254,73,46,1,0,0,response1disk,,6,34,3,1,0,0,rectangle,34,3,1,0,0,34,3,1,0,0,1,91,251,109,1,,,,,,,,
,,,,,,,,,,,,,FF,,,,,,,,0.484,,,,,,,,,,,,,,,,,,,,,,6102e877042872b030f90bb6,61036a5db33d786f994eba7c,2021-07-29_21h59.45.436,Simcolourproject_2stim_asymm_v5,2020.2.10,MacIntel,60,61025ae37ef11b136ea224fe,,,,,,,,,1815,-32,49,1,0,0,response7disk,,0,-8,-4,1,0,0,rectangle,-50,74,1,0,0,-18,5,1,0,0,1,92,252,145,1,,response7disk_3,TRUE,0,0,"[225,255,277,34,163,212,154,224,55,299,251,253,60,132,109,233,311,173,89,220]",1.099,rectangle
,,,,,,,,,,,,,FF,,,,,,,,0.351,,,,,,,,,,,,,,,,,,,,,,6102e877042872b030f90bb6,61036a5db33d786f994eba7c,2021-07-29_21h59.45.436,Simcolourproject_2stim_asymm_v5,2020.2.10,MacIntel,60,61025ae37ef11b136ea224fe,,,,,,,,,3073,35,-39,1,0,0,response3disk,,4,21,7,1,0,0,rectangle,21,7,1,0,0,21,7,1,0,0,1,93,253,129,1,,,,,,,,
,,,,,,,,,,,,,FF,,,,,,,,0.217,,,,,,,,,,,,,,,,,,,,,,6102e877042872b030f90bb6,61036a5db33d786f994eba7c,2021-07-29_21h59.45.436,Simcolourproject_2stim_asymm_v5,2020.2.10,MacIntel,60,61025ae37ef11b136ea224fe,,,,,,,,,1535,-26,-65,1,0,0,response5disk,,3,10,-1,1,0,0,rectangle,-76,36,1,0,0,8,0,1,0,0,1,94,254,47,1,,response7disk_3,TRUE,1,1,"[225,255,277,34,163,212,154,224,55,299,251,253,60,132,109,233,311,173,89,220]",1.348,rectangle
,,,,,,,,,,,,,FF,,,,,,,,0.667,,,,,,,,,,,,,,,,,,,,,,6102e877042872b030f90bb6,61036a5db33d786f994eba7c,2021-07-29_21h59.45.436,Simcolourproject_2stim_asymm_v5,2020.2.10,MacIntel,60,61025ae37ef11b136ea224fe,,,,,,,,,3237,-54,-64,1,0,0,response5disk,,3,0,7,1,0,0,rectangle,0,7,1,0,0,0,7,1,0,0,1,95,255,95,1,,,,,,,,
,,,,,,,,,,,,,FF,,,,,,,,0.549,,,,,,,,,,,,,,,,,,,,,,6102e877042872b030f90bb6,61036a5db33d786f994eba7c,2021-07-29_21h59.45.436,Simcolourproject_2stim_asymm_v5,2020.2.10,MacIntel,60,61025ae37ef11b136ea224fe,,,,,,,,,1560,-54,32,1,0,0,response7disk,,1,-12,-2,1,0,0,rectangle,-12,-2,1,0,0,-12,-2,1,0,0,1,96,256,69,1,,,,,,,,
,,,,,,,,,,,,,FF,,,,,,,,0.2,,,,,,,,,,,,,,,,,,,,,,6102e877042872b030f90bb6,61036a5db33d786f994eba7c,2021-07-29_21h59.45.436,Simcolourproject_2stim_asymm_v5,2020.2.10,MacIntel,60,61025ae37ef11b136ea224fe,,,,,,,,,1090,39,45,1,0,0,response1disk,,7,8,0,1,0,0,rectangle,8,0,1,0,0,8,0,1,0,0,1,97,257,133,1,,,,,,,,
,,,,,,,,,,,,,FF,,,,,,,,0.183,,,,,,,,,,,,,,,,,,,,,,6102e877042872b030f90bb6,61036a5db33d786f994eba7c,2021-07-29_21h59.45.436,Simcolourproject_2stim_asymm_v5,2020.2.10,MacIntel,60,61025ae37ef11b136ea224fe,,,,,,,,,3676,83,63,1,0,0,response1disk,,6,23,-2,1,0,0,rectangle,23,-2,1,0,0,23,-2,1,0,0,1,98,258,147,1,,,,,,,,
,,,,,,,,,,,,,FF,,,,,,,,0.199,,,,,,,,,,,,,,,,,,,,,,6102e877042872b030f90bb6,61036a5db33d786f994eba7c,2021-07-29_21h59.45.436,Simcolourproject_2stim_asymm_v5,2020.2.10,MacIntel,60,61025ae37ef11b136ea224fe,,,,,,,,,3813,34,-87,1,0,0,response3disk,,4,21,-7,1,0,0,rectangle,21,-7,1,0,0,21,-7,1,0,0,1,99,259,140,1,,,,,,,,
,,,,,,,,,,,,,FF,,,,,,,,0.166,,,,,,,,,,,,,,,,,,,,,,6102e877042872b030f90bb6,61036a5db33d786f994eba7c,2021-07-29_21h59.45.436,Simcolourproject_2stim_asymm_v5,2020.2.10,MacIntel,60,61025ae37ef11b136ea224fe,,,,,,,,,2824,-23,-82,1,0,0,response5disk,,3,6,-5,1,0,0,rectangle,6,-5,1,0,0,6,-5,1,0,0,1,100,260,124,1,,,,,,,,
,,,,,,,,,,,,,FF,,,,,,,,0.201,,,,,,,,,,,,,,,,,,,,,,6102e877042872b030f90bb6,61036a5db33d786f994eba7c,2021-07-29_21h59.45.436,Simcolourproject_2stim_asymm_v5,2020.2.10,MacIntel,60,61025ae37ef11b136ea224fe,,,,,,,,,1692,-49,-46,1,0,0,response5disk,,2,-11,-11,1,0,0,rectangle,-11,-11,1,0,0,-11,-11,1,0,0,1,101,261,59,1,,,,,,,,
,,,,,,,,,,,,,FF,,,,,,,,0.117,,,,,,,,,,,,,,,,,,,,,,6102e877042872b030f90bb6,61036a5db33d786f994eba7c,2021-07-29_21h59.45.436,Simcolourproject_2stim_asymm_v5,2020.2.10,MacIntel,60,61025ae37ef11b136ea224fe,,,,,,,,,2151,32,-74,1,0,0,response3disk,,4,8,14,1,0,0,rectangle,8,14,1,0,0,8,14,1,0,0,1,102,262,112,1,,,,,,,,
,,,,,,,,,,,,,FF,,,,,,,,0.134,,,,,,,,,,,,,,,,,,,,,,6102e877042872b030f90bb6,61036a5db33d786f994eba7c,2021-07-29_21h59.45.436,Simcolourproject_2stim_asymm_v5,2020.2.10,MacIntel,60,61025ae37ef11b136ea224fe,,,,,,,,,1943,71,-58,1,0,0,response3disk,,5,19,0,1,0,0,rectangle,19,0,1,0,0,19,0,1,0,0,1,103,263,55,1,,,,,,,,
,,,,,,,,,,,,,FF,,,,,,,,0.149,,,,,,,,,,,,,,,,,,,,,,6102e877042872b030f90bb6,61036a5db33d786f994eba7c,2021-07-29_21h59.45.436,Simcolourproject_2stim_asymm_v5,2020.2.10,MacIntel,60,61025ae37ef11b136ea224fe,,,,,,,,,4349,78,45,1,0,0,response1disk,,6,13,-1,1,0,0,rectangle,13,-1,1,0,0,13,-1,1,0,0,1,104,264,103,1,,,,,,,,
,,,,,,,,,,,,,FF,,,,,,,,0.213,,,,,,,,,,,,,,,,,,,,,,6102e877042872b030f90bb6,61036a5db33d786f994eba7c,2021-07-29_21h59.45.436,Simcolourproject_2stim_asymm_v5,2020.2.10,MacIntel,60,61025ae37ef11b136ea224fe,,,,,,,,,751,30,66,1,0,0,response1disk,,7,11,-2,1,0,0,rectangle,11,-2,1,0,0,11,-2,1,0,0,1,105,265,73,1,,,,,,,,
,,,,,,,,,,,,,FF,,,,,,,,0.184,,,,,,,,,,,,,,,,,,,,,,6102e877042872b030f90bb6,61036a5db33d786f994eba7c,2021-07-29_21h59.45.436,Simcolourproject_2stim_asymm_v5,2020.2.10,MacIntel,60,61025ae37ef11b136ea224fe,,,,,,,,,3767,-26,-85,1,0,0,response5disk,,3,12,-4,1,0,0,rectangle,12,-4,1,0,0,12,-4,1,0,0,1,106,266,38,1,,,,,,,,
,,,,,,,,,,,,,FF,,,,,,,,0.168,,,,,,,,,,,,,,,,,,,,,,6102e877042872b030f90bb6,61036a5db33d786f994eba7c,2021-07-29_21h59.45.436,Simcolourproject_2stim_asymm_v5,2020.2.10,MacIntel,60,61025ae37ef11b136ea224fe,,,,,,,,,2399,31,-86,1,0,0,response3disk,,4,9,-11,1,0,0,rectangle,9,-11,1,0,0,9,-11,1,0,0,1,107,267,51,1,,,,,,,,
,,,,,,,,,,,,,FF,,,,,,,,0.148,,,,,,,,,,,,,,,,,,,,,,6102e877042872b030f90bb6,61036a5db33d786f994eba7c,2021-07-29_21h59.45.436,Simcolourproject_2stim_asymm_v5,2020.2.10,MacIntel,60,61025ae37ef11b136ea224fe,,,,,,,,,2065,73,-61,1,0,0,response3disk,,5,26,7,1,0,0,rectangle,26,7,1,0,0,26,7,1,0,0,1,108,268,0,1,,,,,,,,
,,,,,,,,,,,,,FF,,,,,,,,0.266,,,,,,,,,,,,,,,,,,,,,,6102e877042872b030f90bb6,61036a5db33d786f994eba7c,2021-07-29_21h59.45.436,Simcolourproject_2stim_asymm_v5,2020.2.10,MacIntel,60,61025ae37ef11b136ea224fe,,,,,,,,,226,37,-89,1,0,0,response3disk,,4,8,5,1,0,0,rectangle,8,5,1,0,0,8,5,1,0,0,1,109,269,13,1,,,,,,,,
,,,,,,,,,,,,,FF,,,,,,,,0.217,,,,,,,,,,,,,,,,,,,,,,6102e877042872b030f90bb6,61036a5db33d786f994eba7c,2021-07-29_21h59.45.436,Simcolourproject_2stim_asymm_v5,2020.2.10,MacIntel,60,61025ae37ef11b136ea224fe,,,,,,,,,18,-31,-89,1,0,0,response5disk,,3,10,-7,1,0,0,rectangle,10,-7,1,0,0,10,-7,1,0,0,1,110,270,117,1,,,,,,,,
,,,,,,,,,,,,,FF,,,,,,,,0.234,,,,,,,,,,,,,,,,,,,,,,6102e877042872b030f90bb6,61036a5db33d786f994eba7c,2021-07-29_21h59.45.436,Simcolourproject_2stim_asymm_v5,2020.2.10,MacIntel,60,61025ae37ef11b136ea224fe,,,,,,,,,2205,-58,-43,1,0,0,response5disk,,2,4,7,1,0,0,rectangle,4,7,1,0,0,4,7,1,0,0,1,111,271,80,1,,,,,,,,
,,,,,,,,,,,,,FF,,,,,,,,0.134,,,,,,,,,,,,,,,,,,,,,,6102e877042872b030f90bb6,61036a5db33d786f994eba7c,2021-07-29_21h59.45.436,Simcolourproject_2stim_asymm_v5,2020.2.10,MacIntel,60,61025ae37ef11b136ea224fe,,,,,,,,,2772,78,31,1,0,0,response1disk,,6,7,-11,1,0,0,rectangle,7,-11,1,0,0,7,-11,1,0,0,1,112,272,135,1,,,,,,,,
,,,,,,,,,,,,,FF,,,,,,,,0.167,,,,,,,,,,,,,,,,,,,,,,6102e877042872b030f90bb6,61036a5db33d786f994eba7c,2021-07-29_21h59.45.436,Simcolourproject_2stim_asymm_v5,2020.2.10,MacIntel,60,61025ae37ef11b136ea224fe,,,,,,,,,3787,24,-80,1,0,0,response3disk,,4,3,-2,1,0,0,rectangle,3,-2,1,0,0,3,-2,1,0,0,1,113,273,64,1,,,,,,,,
,,,,,,,,,,,,,FF,,,,,,,,0.235,,,,,,,,,,,,,,,,,,,,,,6102e877042872b030f90bb6,61036a5db33d786f994eba7c,2021-07-29_21h59.45.436,Simcolourproject_2stim_asymm_v5,2020.2.10,MacIntel,60,61025ae37ef11b136ea224fe,,,,,,,,,4158,-28,-82,1,0,0,response5disk,,3,-5,-4,1,0,0,rectangle,-5,-4,1,0,0,-5,-4,1,0,0,1,114,274,143,1,,,,,,,,
,,,,,,,,,,,,,FF,,,,,,,,0.184,,,,,,,,,,,,,,,,,,,,,,6102e877042872b030f90bb6,61036a5db33d786f994eba7c,2021-07-29_21h59.45.436,Simcolourproject_2stim_asymm_v5,2020.2.10,MacIntel,60,61025ae37ef11b136ea224fe,,,,,,,,,3051,72,-28,1,0,0,response3disk,,5,10,16,1,0,0,rectangle,10,16,1,0,0,10,16,1,0,0,1,115,275,45,1,,,,,,,,
,,,,,,,,,,,,,FF,,,,,,,,0.217,,,,,,,,,,,,,,,,,,,,,,6102e877042872b030f90bb6,61036a5db33d786f994eba7c,2021-07-29_21h59.45.436,Simcolourproject_2stim_asymm_v5,2020.2.10,MacIntel,60,61025ae37ef11b136ea224fe,,,,,,,,,762,64,47,1,0,0,response1disk,,6,13,6,1,0,0,rectangle,24,-94,1,0,0,12,-4,1,0,0,1,116,276,134,1,,response3disk_3,TRUE,4,4,"[225,255,277,34,163,212,154,224,55,299,251,253,60,132,109,233,311,173,89,220]",1.883,rectangle
,,,,,,,,,,,,,FF,,,,,,,,0.434,,,,,,,,,,,,,,,,,,,,,,6102e877042872b030f90bb6,61036a5db33d786f994eba7c,2021-07-29_21h59.45.436,Simcolourproject_2stim_asymm_v5,2020.2.10,MacIntel,60,61025ae37ef11b136ea224fe,,,,,,,,,168,-44,-42,1,0,0,response5disk,,2,5,-3,1,0,0,rectangle,5,-3,1,0,0,5,-3,1,0,0,1,117,277,25,1,,,,,,,,
,,,,,,,,,,,,,FF,,,,,,,,0.233,,,,,,,,,,,,,,,,,,,,,,6102e877042872b030f90bb6,61036a5db33d786f994eba7c,2021-07-29_21h59.45.436,Simcolourproject_2stim_asymm_v5,2020.2.10,MacIntel,60,61025ae37ef11b136ea224fe,,,,,,,,,3022,26,-71,1,0,0,response3disk,,4,19,2,1,0,0,rectangle,19,2,1,0,0,19,2,1,0,0,1,118,278,28,1,,,,,,,,
,,,,,,,,,,,,,FF,,,,,,,,0.118,,,,,,,,,,,,,,,,,,,,,,6102e877042872b030f90bb6,61036a5db33d786f994eba7c,2021-07-29_21h59.45.436,Simcolourproject_2stim_asymm_v5,2020.2.10,MacIntel,60,61025ae37ef11b136ea224fe,,,,,,,,,3954,71,24,1,0,0,response1disk,,6,22,-12,1,0,0,rectangle,22,-12,1,0,0,22,-12,1,0,0,1,119,279,31,1,,,,,,,,
,,,,,,,,,,,,,FF,,,,,,,,0.216,,,,,,,,,,,,,,,,,,,,,,6102e877042872b030f90bb6,61036a5db33d786f994eba7c,2021-07-29_21h59.45.436,Simcolourproject_2stim_asymm_v5,2020.2.10,MacIntel,60,61025ae37ef11b136ea224fe,,,,,,,,,2826,38,-62,1,0,0,response3disk,,4,7,-17,1,0,0,rectangle,7,-17,1,0,0,7,-17,1,0,0,1,120,280,77,1,,,,,,,,
,,,,,,,,,,,,,FF,,,,,,,,0.783,,,,,,,,,,,,,,,,,,,,,,6102e877042872b030f90bb6,61036a5db33d786f994eba7c,2021-07-29_21h59.45.436,Simcolourproject_2stim_asymm_v5,2020.2.10,MacIntel,60,61025ae37ef11b136ea224fe,,,,,,,,,4038,-38,-83,1,0,0,response5disk,,3,-3,-6,1,0,0,rectangle,-3,-6,1,0,0,-3,-6,1,0,0,1,121,281,4,1,,,,,,,,
,,,,,,,,,,,,,FF,,,,,,,,0.234,,,,,,,,,,,,,,,,,,,,,,6102e877042872b030f90bb6,61036a5db33d786f994eba7c,2021-07-29_21h59.45.436,Simcolourproject_2stim_asymm_v5,2020.2.10,MacIntel,60,61025ae37ef11b136ea224fe,,,,,,,,,2639,98,46,1,0,0,response1disk,,6,10,-13,1,0,0,rectangle,10,-13,1,0,0,10,-13,1,0,0,1,122,282,63,1,,,,,,,,
,,,,,,,,,,,,,FF,,,,,,,,0.152,,,,,,,,,,,,,,,,,,,,,,6102e877042872b030f90bb6,61036a5db33d786f994eba7c,2021-07-29_21h59.45.436,Simcolourproject_2stim_asymm_v5,2020.2.10,MacIntel,60,61025ae37ef11b136ea224fe,,,,,,,,,3996,31,-67,1,0,0,response3disk,,4,9,6,1,0,0,rectangle,9,6,1,0,0,9,6,1,0,0,1,123,283,151,1,,,,,,,,
,,,,,,,,,,,,,FF,,,,,,,,0.249,,,,,,,,,,,,,,,,,,,,,,6102e877042872b030f90bb6,61036a5db33d786f994eba7c,2021-07-29_21h59.45.436,Simcolourproject_2stim_asymm_v5,2020.2.10,MacIntel,60,61025ae37ef11b136ea224fe,,,,,,,,,3272,-31,-72,1,0,0,response5disk,,3,-5,-1,1,0,0,rectangle,-5,-1,1,0,0,-5,-1,1,0,0,1,124,284,79,1,,,,,,,,
,,,,,,,,,,,,,FF,,,,,,,,0.234,,,,,,,,,,,,,,,,,,,,,,6102e877042872b030f90bb6,61036a5db33d786f994eba7c,2021-07-29_21h59.45.436,Simcolourproject_2stim_asymm_v5,2020.2.10,MacIntel,60,61025ae37ef11b136ea224fe,,,,,,,,,3106,61,61,1,0,0,response1disk,,7,18,-6,1,0,0,rectangle,18,-6,1,0,0,18,-6,1,0,0,1,125,285,34,1,,,,,,,,
,,,,,,,,,,,,,FF,,,,,,,,0.7,,,,,,,,,,,,,,,,,,,,,,6102e877042872b030f90bb6,61036a5db33d786f994eba7c,2021-07-29_21h59.45.436,Simcolourproject_2stim_asymm_v5,2020.2.10,MacIntel,60,61025ae37ef11b136ea224fe,,,,,,,,,3976,-31,-85,1,0,0,response5disk,,3,6,7,1,0,0,rectangle,6,7,1,0,0,6,7,1,0,0,1,126,286,84,1,,,,,,,,
,,,,,,,,,,,,,FF,,,,,,,,0.151,,,,,,,,,,,,,,,,,,,,,,6102e877042872b030f90bb6,61036a5db33d786f994eba7c,2021-07-29_21h59.45.436,Simcolourproject_2stim_asymm_v5,2020.2.10,MacIntel,60,61025ae37ef11b136ea224fe,,,,,,,,,3015,44,-83,1,0,0,response3disk,,4,14,-5,1,0,0,rectangle,14,-5,1,0,0,14,-5,1,0,0,1,127,287,35,1,,,,,,,,
,,,,,,,,,,,,,FF,,,,,,,,0.233,,,,,,,,,,,,,,,,,,,,,,6102e877042872b030f90bb6,61036a5db33d786f994eba7c,2021-07-29_21h59.45.436,Simcolourproject_2stim_asymm_v5,2020.2.10,MacIntel,60,61025ae37ef11b136ea224fe,,,,,,,,,4074,39,-72,1,0,0,response3disk,,4,5,-13,1,0,0,rectangle,5,-13,1,0,0,5,-13,1,0,0,1,128,288,61,1,,,,,,,,
,,,,,,,,,,,,,FF,,,,,,,,0.284,,,,,,,,,,,,,,,,,,,,,,6102e877042872b030f90bb6,61036a5db33d786f994eba7c,2021-07-29_21h59.45.436,Simcolourproject_2stim_asymm_v5,2020.2.10,MacIntel,60,61025ae37ef11b136ea224fe,,,,,,,,,3625,42,-80,1,0,0,response3disk,,4,7,-16,1,0,0,rectangle,7,-16,1,0,0,7,-16,1,0,0,1,129,289,106,1,,,,,,,,
,,,,,,,,,,,,,FF,,,,,,,,0.265,,,,,,,,,,,,,,,,,,,,,,6102e877042872b030f90bb6,61036a5db33d786f994eba7c,2021-07-29_21h59.45.436,Simcolourproject_2stim_asymm_v5,2020.2.10,MacIntel,60,61025ae37ef11b136ea224fe,,,,,,,,,3738,-40,-89,1,0,0,response5disk,,3,-2,10,1,0,0,rectangle,-2,10,1,0,0,-2,10,1,0,0,1,130,290,144,1,,,,,,,,
,,,,,,,,,,,,,FF,,,,,,,,0.166,,,,,,,,,,,,,,,,,,,,,,6102e877042872b030f90bb6,61036a5db33d786f994eba7c,2021-07-29_21h59.45.436,Simcolourproject_2stim_asymm_v5,2020.2.10,MacIntel,60,61025ae37ef11b136ea224fe,,,,,,,,,182,45,-68,1,0,0,response3disk,,4,-1,4,1,0,0,rectangle,-1,4,1,0,0,-1,4,1,0,0,1,131,291,24,1,,,,,,,,
,,,,,,,,,,,,,FF,,,,,,,,0.167,,,,,,,,,,,,,,,,,,,,,,6102e877042872b030f90bb6,61036a5db33d786f994eba7c,2021-07-29_21h59.45.436,Simcolourproject_2stim_asymm_v5,2020.2.10,MacIntel,60,61025ae37ef11b136ea224fe,,,,,,,,,761,-34,-70,1,0,0,response5disk,,3,-2,-14,1,0,0,rectangle,-2,-14,1,0,0,-2,-14,1,0,0,1,132,292,8,1,,,,,,,,
,,,,,,,,,,,,,FF,,,,,,,,0.217,,,,,,,,,,,,,,,,,,,,,,6102e877042872b030f90bb6,61036a5db33d786f994eba7c,2021-07-29_21h59.45.436,Simcolourproject_2stim_asymm_v5,2020.2.10,MacIntel,60,61025ae37ef11b136ea224fe,,,,,,,,,405,57,-53,1,0,0,response3disk,,5,12,6,1,0,0,rectangle,12,6,1,0,0,12,6,1,0,0,1,133,293,154,1,,,,,,,,
,,,,,,,,,,,,,FF,,,,,,,,0.184,,,,,,,,,,,,,,,,,,,,,,6102e877042872b030f90bb6,61036a5db33d786f994eba7c,2021-07-29_21h59.45.436,Simcolourproject_2stim_asymm_v5,2020.2.10,MacIntel,60,61025ae37ef11b136ea224fe,,,,,,,,,349,-41,-64,1,0,0,response5disk,,3,-3,3,1,0,0,rectangle,-3,3,1,0,0,-3,3,1,0,0,1,134,294,120,1,,,,,,,,
,,,,,,,,,,,,,FF,,,,,,,,0.149,,,,,,,,,,,,,,,,,,,,,,6102e877042872b030f90bb6,61036a5db33d786f994eba7c,2021-07-29_21h59.45.436,Simcolourproject_2stim_asymm_v5,2020.2.10,MacIntel,60,61025ae37ef11b136ea224fe,,,,,,,,,1309,27,-63,1,0,0,response3disk,,4,10,3,1,0,0,rectangle,10,3,1,0,0,10,3,1,0,0,1,135,295,87,1,,,,,,,,
,,,,,,,,,,,,,FF,,,,,,,,0.283,,,,,,,,,,,,,,,,,,,,,,6102e877042872b030f90bb6,61036a5db33d786f994eba7c,2021-07-29_21h59.45.436,Simcolourproject_2stim_asymm_v5,2020.2.10,MacIntel,60,61025ae37ef11b136ea224fe,,,,,,,,,2617,-25,-62,1,0,0,response5disk,,3,2,-7,1,0,0,rectangle,2,-7,1,0,0,2,-7,1,0,0,1,136,296,40,1,,,,,,,,
,,,,,,,,,,,,,FF,,,,,,,,0.25,,,,,,,,,,,,,,,,,,,,,,6102e877042872b030f90bb6,61036a5db33d786f994eba7c,2021-07-29_21h59.45.436,Simcolourproject_2stim_asymm_v5,2020.2.10,MacIntel,60,61025ae37ef11b136ea224fe,,,,,,,,,3644,31,-67,1,0,0,response3disk,,4,1,8,1,0,0,rectangle,1,8,1,0,0,1,8,1,0,0,1,137,297,114,1,,,,,,,,
,,,,,,,,,,,,,FF,,,,,,,,0.218,,,,,,,,,,,,,,,,,,,,,,6102e877042872b030f90bb6,61036a5db33d786f994eba7c,2021-07-29_21h59.45.436,Simcolourproject_2stim_asymm_v5,2020.2.10,MacIntel,60,61025ae37ef11b136ea224fe,,,,,,,,,2320,-21,-64,1,0,0,response5disk,,3,8,-3,1,0,0,rectangle,44,54,1,0,0,18,5,1,0,0,1,138,298,76,1,,response1disk_3,TRUE,7,7,"[225,255,277,34,163,212,154,224,55,299,251,253,60,132,109,233,311,173,89,220]",1.384,rectangle
,,,,,,,,,,,,,FF,,,,,,,,0.183,,,,,,,,,,,,,,,,,,,,,,6102e877042872b030f90bb6,61036a5db33d786f994eba7c,2021-07-29_21h59.45.436,Simcolourproject_2stim_asymm_v5,2020.2.10,MacIntel,60,61025ae37ef11b136ea224fe,,,,,,,,,2871,38,-62,1,0,0,response3disk,,4,20,7,1,0,0,rectangle,20,7,1,0,0,20,7,1,0,0,1,139,299,156,1,,,,,,,,
