key_resp.keys,key_resp.rt,key_resp_14.keys,key_resp_14.rt,key_resp_15.keys,key_resp_15.rt,key_resp_17.keys,key_resp_17.rt,key_resp_9.keys,key_resp_9.rt,key_resp_10.keys,key_resp_10.rt,practice_comparison,Ecc,mouse_5.x,mouse_5.y,mouse_5.leftButton,mouse_5.midButton,mouse_5.rightButton,mouse_5.clicked_name,pracsimilarity,response_time,mouse_10.x,mouse_10.y,mouse_10.leftButton,mouse_10.midButton,mouse_10.rightButton,mouse_10.clicked_name,mouse_7.x,mouse_7.y,mouse_7.leftButton,mouse_7.midButton,mouse_7.rightButton,mouse_6.x,mouse_6.y,mouse_6.leftButton,mouse_6.midButton,mouse_6.rightButton,duringprac.thisRepN,duringprac.thisTrialN,duringprac.thisN,duringprac.thisIndex,duringprac.ran,participant,session,date,expName,psychopyVersion,OS,frameRate,study_id,mouse_7.clicked_name,catchpracsimilarity,catch_response_time,catchnumberprac,catchtrialorderprac,mouse_6.clicked_name,key_resp_22.keys,key_resp_22.rt,realcomparison,mouse.x,mouse.y,mouse.leftButton,mouse.midButton,mouse.rightButton,mouse.clicked_name,Colour2,similarity,mouse_2.x,mouse_2.y,mouse_2.leftButton,mouse_2.midButton,mouse_2.rightButton,mouse_2.clicked_name,mouse_3.x,mouse_3.y,mouse_3.leftButton,mouse_3.midButton,mouse_3.rightButton,mouse_11.x,mouse_11.y,mouse_11.leftButton,mouse_11.midButton,mouse_11.rightButton,trials_2.thisRepN,trials_2.thisTrialN,trials_2.thisN,trials_2.thisIndex,trials_2.ran,Colour1,mouse_3.clicked_name,catchornah,catchsimilarity,catchnumber,catchtrialorder,catchRT,mouse_11.clicked_name
space,1.3296,space,2.4444,space,15.3184,space,4.1184,space,1.2513,space,3.6825,10,PF,-75.0869751,34.60186768,1,0,0,response7disk_5,1,9.1358,-2.751220703,-1.841125488,1,0,0,rectangle_8,-2.751220703,-1.841125488,1,0,0,-2.751220703,-1.841125488,1,0,0,0,0,0,4,1,6102eb79ffcced89eefe3062,61036f6444814199a34e8c65,2021-07-29_22h19.59.538,Simcolourproject_2stim_asymm_v5,2020.2.10,MacIntel,60,61025ae37ef11b136ea224fe,,,,,,,,,,,,,,,,,,,,,,,,,,,,,,,,,,,,,,,,,,,,,,
,,,,,,,,,,,,89,PF,-69.26049805,-42.02990723,1,0,0,response5disk_5,2,1.5796,1.746582031,-6.585998535,1,0,0,rectangle_8,88.13616943,-44.91964722,1,0,0,4.893066406,-2.638946533,1,0,0,0,1,1,2,1,6102eb79ffcced89eefe3062,61036f6444814199a34e8c65,2021-07-29_22h19.59.538,Simcolourproject_2stim_asymm_v5,2020.2.10,MacIntel,60,61025ae37ef11b136ea224fe,response3disk_7,5,2.1679,5,"[2,5]",rectangle_4,,,,,,,,,,,,,,,,,,,,,,,,,,,,,,,,,,,,,,,,
,,,,,,,,,,,,142,FF,84.11010742,39.80053711,1,0,0,response1disk_5,6,2.0663,2.895629883,1.525024414,1,0,0,rectangle_8,2.895629883,1.525024414,1,0,0,2.895629883,1.525024414,1,0,0,0,2,2,0,1,6102eb79ffcced89eefe3062,61036f6444814199a34e8c65,2021-07-29_22h19.59.538,Simcolourproject_2stim_asymm_v5,2020.2.10,MacIntel,60,61025ae37ef11b136ea224fe,,,,,,,,,,,,,,,,,,,,,,,,,,,,,,,,,,,,,,,,,,,,,,
,,,,,,,,,,,,152,FF,-45.90325928,-94.04046631,1,0,0,response5disk_5,3,1.2503,-2.284545898,0.226074219,1,0,0,rectangle_8,-2.284545898,0.226074219,1,0,0,-2.284545898,0.226074219,1,0,0,0,3,3,3,1,6102eb79ffcced89eefe3062,61036f6444814199a34e8c65,2021-07-29_22h19.59.538,Simcolourproject_2stim_asymm_v5,2020.2.10,MacIntel,60,61025ae37ef11b136ea224fe,,,,,,,,,,,,,,,,,,,,,,,,,,,,,,,,,,,,,,,,,,,,,,
,,,,,,,,,,,,16,PF,82.37371826,56.01098633,1,0,0,response1disk_5,6,1.5984,-0.114624023,-1.445953369,1,0,0,rectangle_8,87.43823242,-51.99633789,1,0,0,-6.13079834,-2.423034668,1,0,0,0,4,4,6,1,6102eb79ffcced89eefe3062,61036f6444814199a34e8c65,2021-07-29_22h19.59.538,Simcolourproject_2stim_asymm_v5,2020.2.10,MacIntel,60,61025ae37ef11b136ea224fe,response3disk_7,5,1.425,5,"[2,5]",rectangle_4,,,,,,,,,,,,,,,,,,,,,,,,,,,,,,,,,,,,,,,,
,,,,,,,,,,,,110,FF,-47.64532471,-86.11499023,1,0,0,response5disk_5,3,1.9824,1.114196777,5.236633301,1,0,0,rectangle_8,1.114196777,5.236633301,1,0,0,1.114196777,5.236633301,1,0,0,0,5,5,5,1,6102eb79ffcced89eefe3062,61036f6444814199a34e8c65,2021-07-29_22h19.59.538,Simcolourproject_2stim_asymm_v5,2020.2.10,MacIntel,60,61025ae37ef11b136ea224fe,,,,,,,,,,,,,,,,,,,,,,,,,,,,,,,,,,,,,,,,,,,,,,
,,,,,,,,,,,,31,PF,91.23510742,-61.53924561,1,0,0,response3disk_5,5,1.3352,2.862487793,-0.555023193,1,0,0,rectangle_8,2.862487793,-0.555023193,1,0,0,2.862487793,-0.555023193,1,0,0,0,6,6,1,1,6102eb79ffcced89eefe3062,61036f6444814199a34e8c65,2021-07-29_22h19.59.538,Simcolourproject_2stim_asymm_v5,2020.2.10,MacIntel,60,61025ae37ef11b136ea224fe,,,,,,,,,,,,,,,,,,,,,,,,,,,,,,,,,,,,,,,,,,,,,,
,,,,,,,,,,,,,FF,,,,,,,,1.7319,,,,,,,,,,,,,,,,,,,,,,6102eb79ffcced89eefe3062,61036f6444814199a34e8c65,2021-07-29_22h19.59.538,Simcolourproject_2stim_asymm_v5,2020.2.10,MacIntel,60,61025ae37ef11b136ea224fe,,,,,,,space,3.0496,1127,45.7355957,-80.13336182,1,0,0,response3disk,,4,-3.821594238,-11.98748779,1,0,0,rectangle,-3.821594238,-11.98748779,1,0,0,-3.821594238,-11.98748779,1,0,0,0,0,0,129,1,,,,,,,,
,,,,,,,,,,,,,FF,,,,,,,,1.5164,,,,,,,,,,,,,,,,,,,,,,6102eb79ffcced89eefe3062,61036f6444814199a34e8c65,2021-07-29_22h19.59.538,Simcolourproject_2stim_asymm_v5,2020.2.10,MacIntel,60,61025ae37ef11b136ea224fe,,,,,,,,,1349,-39.51251221,-93.6361084,1,0,0,response5disk,,3,1.081665039,2.915161133,1,0,0,rectangle,1.081665039,2.915161133,1,0,0,1.081665039,2.915161133,1,0,0,0,1,1,147,1,,,,,,,,
,,,,,,,,,,,,,FF,,,,,,,,2,,,,,,,,,,,,,,,,,,,,,,6102eb79ffcced89eefe3062,61036f6444814199a34e8c65,2021-07-29_22h19.59.538,Simcolourproject_2stim_asymm_v5,2020.2.10,MacIntel,60,61025ae37ef11b136ea224fe,,,,,,,,,364,61.2956543,-92.21069336,1,0,0,response3disk,,4,4.630371094,-0.931884766,1,0,0,rectangle,4.630371094,-0.931884766,1,0,0,4.630371094,-0.931884766,1,0,0,0,2,2,3,1,,,,,,,,
,,,,,,,,,,,,,FF,,,,,,,,1.5178,,,,,,,,,,,,,,,,,,,,,,6102eb79ffcced89eefe3062,61036f6444814199a34e8c65,2021-07-29_22h19.59.538,Simcolourproject_2stim_asymm_v5,2020.2.10,MacIntel,60,61025ae37ef11b136ea224fe,,,,,,,,,3849,-66.46331787,46.47814941,1,0,0,response7disk,,1,-1.579223633,-2.459350586,1,0,0,rectangle,-74.00177002,41.04205322,1,0,0,3.44708252,-6.499938965,1,0,0,0,3,3,105,1,,response7disk_3,TRUE,1,1,"[123,155,209,35,241,52,264,72,211,65,40,301,107,39,203,168,92,4,212,7]",1.5335,rectangle
,,,,,,,,,,,,,FF,,,,,,,,1.2176,,,,,,,,,,,,,,,,,,,,,,6102eb79ffcced89eefe3062,61036f6444814199a34e8c65,2021-07-29_22h19.59.538,Simcolourproject_2stim_asymm_v5,2020.2.10,MacIntel,60,61025ae37ef11b136ea224fe,,,,,,,,,3110,-48.74285889,-89.36639404,1,0,0,response5disk,,3,-1.689086914,-9.498046875,1,0,0,rectangle,-1.689086914,-9.498046875,1,0,0,-1.689086914,-9.498046875,1,0,0,0,4,4,143,1,,,,,,,,
,,,,,,,,,,,,,FF,,,,,,,,1.1839,,,,,,,,,,,,,,,,,,,,,,6102eb79ffcced89eefe3062,61036f6444814199a34e8c65,2021-07-29_22h19.59.538,Simcolourproject_2stim_asymm_v5,2020.2.10,MacIntel,60,61025ae37ef11b136ea224fe,,,,,,,,,264,-70.51159668,50.06884766,1,0,0,response7disk,,1,3.576538086,-0.84197998,1,0,0,rectangle,3.576538086,-0.84197998,1,0,0,3.576538086,-0.84197998,1,0,0,0,5,5,90,1,,,,,,,,
,,,,,,,,,,,,,FF,,,,,,,,1.1825,,,,,,,,,,,,,,,,,,,,,,6102eb79ffcced89eefe3062,61036f6444814199a34e8c65,2021-07-29_22h19.59.538,Simcolourproject_2stim_asymm_v5,2020.2.10,MacIntel,60,61025ae37ef11b136ea224fe,,,,,,,,,3756,-95.85784912,-44.09429932,1,0,0,response5disk,,2,6.275817871,-2.7762146,1,0,0,rectangle,32.03503418,74.81195068,1,0,0,0.639099121,6.150115967,1,0,0,0,6,6,93,1,,response1disk_3,TRUE,7,7,"[123,155,209,35,241,52,264,72,211,65,40,301,107,39,203,168,92,4,212,7]",1.4995,rectangle
,,,,,,,,,,,,,FF,,,,,,,,1.1827,,,,,,,,,,,,,,,,,,,,,,6102eb79ffcced89eefe3062,61036f6444814199a34e8c65,2021-07-29_22h19.59.538,Simcolourproject_2stim_asymm_v5,2020.2.10,MacIntel,60,61025ae37ef11b136ea224fe,,,,,,,,,617,-39.82269287,-87.22912598,1,0,0,response5disk,,3,1.849060059,0.457366943,1,0,0,rectangle,1.849060059,0.457366943,1,0,0,1.849060059,0.457366943,1,0,0,0,7,7,16,1,,,,,,,,
,,,,,,,,,,,,,FF,,,,,,,,1.8998,,,,,,,,,,,,,,,,,,,,,,6102eb79ffcced89eefe3062,61036f6444814199a34e8c65,2021-07-29_22h19.59.538,Simcolourproject_2stim_asymm_v5,2020.2.10,MacIntel,60,61025ae37ef11b136ea224fe,,,,,,,,,1516,97.66851807,32.47192383,1,0,0,response1disk,,6,-1.928833008,-8.174743652,1,0,0,rectangle,-1.928833008,-8.174743652,1,0,0,-1.928833008,-8.174743652,1,0,0,0,8,8,45,1,,,,,,,,
,,,,,,,,,,,,,FF,,,,,,,,1.2327,,,,,,,,,,,,,,,,,,,,,,6102eb79ffcced89eefe3062,61036f6444814199a34e8c65,2021-07-29_22h19.59.538,Simcolourproject_2stim_asymm_v5,2020.2.10,MacIntel,60,61025ae37ef11b136ea224fe,,,,,,,,,3374,-71.05822754,37.35443115,1,0,0,response7disk,,1,-7.928405762,-0.623352051,1,0,0,rectangle,-7.928405762,-0.623352051,1,0,0,-7.928405762,-0.623352051,1,0,0,0,9,9,132,1,,,,,,,,
,,,,,,,,,,,,,FF,,,,,,,,1.1339,,,,,,,,,,,,,,,,,,,,,,6102eb79ffcced89eefe3062,61036f6444814199a34e8c65,2021-07-29_22h19.59.538,Simcolourproject_2stim_asymm_v5,2020.2.10,MacIntel,60,61025ae37ef11b136ea224fe,,,,,,,,,3531,48.75891113,-86.5847168,1,0,0,response3disk,,4,3.624694824,-4.467285156,1,0,0,rectangle,3.624694824,-4.467285156,1,0,0,3.624694824,-4.467285156,1,0,0,0,10,10,139,1,,,,,,,,
,,,,,,,,,,,,,FF,,,,,,,,1.0675,,,,,,,,,,,,,,,,,,,,,,6102eb79ffcced89eefe3062,61036f6444814199a34e8c65,2021-07-29_22h19.59.538,Simcolourproject_2stim_asymm_v5,2020.2.10,MacIntel,60,61025ae37ef11b136ea224fe,,,,,,,,,1617,52.74133301,-91.66064453,1,0,0,response3disk,,4,9.45916748,4.450286865,1,0,0,rectangle,9.45916748,4.450286865,1,0,0,9.45916748,4.450286865,1,0,0,0,11,11,44,1,,,,,,,,
,,,,,,,,,,,,,FF,,,,,,,,1.2663,,,,,,,,,,,,,,,,,,,,,,6102eb79ffcced89eefe3062,61036f6444814199a34e8c65,2021-07-29_22h19.59.538,Simcolourproject_2stim_asymm_v5,2020.2.10,MacIntel,60,61025ae37ef11b136ea224fe,,,,,,,,,3571,80.32940674,56.68817139,1,0,0,response1disk,,6,1.106567383,0.896972656,1,0,0,rectangle,1.106567383,0.896972656,1,0,0,1.106567383,0.896972656,1,0,0,0,12,12,109,1,,,,,,,,
,,,,,,,,,,,,,FF,,,,,,,,1.1319,,,,,,,,,,,,,,,,,,,,,,6102eb79ffcced89eefe3062,61036f6444814199a34e8c65,2021-07-29_22h19.59.538,Simcolourproject_2stim_asymm_v5,2020.2.10,MacIntel,60,61025ae37ef11b136ea224fe,,,,,,,,,3732,42.09448242,87.44415283,1,0,0,response1disk,,7,4.011047363,3.305023193,1,0,0,rectangle,4.011047363,3.305023193,1,0,0,4.011047363,3.305023193,1,0,0,0,13,13,78,1,,,,,,,,
,,,,,,,,,,,,,FF,,,,,,,,1.1185,,,,,,,,,,,,,,,,,,,,,,6102eb79ffcced89eefe3062,61036f6444814199a34e8c65,2021-07-29_22h19.59.538,Simcolourproject_2stim_asymm_v5,2020.2.10,MacIntel,60,61025ae37ef11b136ea224fe,,,,,,,,,3499,46.48297119,-75.61132813,1,0,0,response3disk,,4,6.93548584,-4.712036133,1,0,0,rectangle,6.93548584,-4.712036133,1,0,0,6.93548584,-4.712036133,1,0,0,0,14,14,38,1,,,,,,,,
,,,,,,,,,,,,,FF,,,,,,,,3.4173,,,,,,,,,,,,,,,,,,,,,,6102eb79ffcced89eefe3062,61036f6444814199a34e8c65,2021-07-29_22h19.59.538,Simcolourproject_2stim_asymm_v5,2020.2.10,MacIntel,60,61025ae37ef11b136ea224fe,,,,,,,,,1785,71.92358398,-53.67922974,1,0,0,response3disk,,5,9.802368164,-10.70471191,1,0,0,rectangle,9.802368164,-10.70471191,1,0,0,9.802368164,-10.70471191,1,0,0,0,15,15,41,1,,,,,,,,
,,,,,,,,,,,,,FF,,,,,,,,1.2998,,,,,,,,,,,,,,,,,,,,,,6102eb79ffcced89eefe3062,61036f6444814199a34e8c65,2021-07-29_22h19.59.538,Simcolourproject_2stim_asymm_v5,2020.2.10,MacIntel,60,61025ae37ef11b136ea224fe,,,,,,,,,2765,90.21118164,41.77624512,1,0,0,response1disk,,6,-3.848999023,-0.061187744,1,0,0,rectangle,-3.848999023,-0.061187744,1,0,0,-3.848999023,-0.061187744,1,0,0,0,16,16,77,1,,,,,,,,
,,,,,,,,,,,,,FF,,,,,,,,0.9335,,,,,,,,,,,,,,,,,,,,,,6102eb79ffcced89eefe3062,61036f6444814199a34e8c65,2021-07-29_22h19.59.538,Simcolourproject_2stim_asymm_v5,2020.2.10,MacIntel,60,61025ae37ef11b136ea224fe,,,,,,,,,661,94.16931152,40.92333984,1,0,0,response1disk,,6,4.831115723,4.923095703,1,0,0,rectangle,4.831115723,4.923095703,1,0,0,4.831115723,4.923095703,1,0,0,0,17,17,52,1,,,,,,,,
,,,,,,,,,,,,,FF,,,,,,,,1.4164,,,,,,,,,,,,,,,,,,,,,,6102eb79ffcced89eefe3062,61036f6444814199a34e8c65,2021-07-29_22h19.59.538,Simcolourproject_2stim_asymm_v5,2020.2.10,MacIntel,60,61025ae37ef11b136ea224fe,,,,,,,,,1927,74.44885254,-64.0447998,1,0,0,response3disk,,5,3.543945313,1.430847168,1,0,0,rectangle,3.543945313,1.430847168,1,0,0,3.543945313,1.430847168,1,0,0,0,18,18,35,1,,,,,,,,
,,,,,,,,,,,,,FF,,,,,,,,1.1833,,,,,,,,,,,,,,,,,,,,,,6102eb79ffcced89eefe3062,61036f6444814199a34e8c65,2021-07-29_22h19.59.538,Simcolourproject_2stim_asymm_v5,2020.2.10,MacIntel,60,61025ae37ef11b136ea224fe,,,,,,,,,4162,-84.36419678,-42.88256836,1,0,0,response5disk,,2,12.91607666,4.732635498,1,0,0,rectangle,12.91607666,4.732635498,1,0,0,12.91607666,4.732635498,1,0,0,0,19,19,70,1,,,,,,,,
,,,,,,,,,,,,,FF,,,,,,,,1.3847,,,,,,,,,,,,,,,,,,,,,,6102eb79ffcced89eefe3062,61036f6444814199a34e8c65,2021-07-29_22h19.59.538,Simcolourproject_2stim_asymm_v5,2020.2.10,MacIntel,60,61025ae37ef11b136ea224fe,,,,,,,,,771,59.48052979,-103.8262329,1,0,0,response3disk,,4,6.236938477,2.482299805,1,0,0,rectangle,6.236938477,2.482299805,1,0,0,6.236938477,2.482299805,1,0,0,0,20,20,136,1,,,,,,,,
,,,,,,,,,,,,,FF,,,,,,,,1.1154,,,,,,,,,,,,,,,,,,,,,,6102eb79ffcced89eefe3062,61036f6444814199a34e8c65,2021-07-29_22h19.59.538,Simcolourproject_2stim_asymm_v5,2020.2.10,MacIntel,60,61025ae37ef11b136ea224fe,,,,,,,,,1436,84.56555176,50.39724731,1,0,0,response1disk,,6,-5.074279785,-9.628082275,1,0,0,rectangle,-5.074279785,-9.628082275,1,0,0,-5.074279785,-9.628082275,1,0,0,0,21,21,159,1,,,,,,,,
,,,,,,,,,,,,,FF,,,,,,,,1.05,,,,,,,,,,,,,,,,,,,,,,6102eb79ffcced89eefe3062,61036f6444814199a34e8c65,2021-07-29_22h19.59.538,Simcolourproject_2stim_asymm_v5,2020.2.10,MacIntel,60,61025ae37ef11b136ea224fe,,,,,,,,,1153,71.44482422,-46.08334351,1,0,0,response3disk,,5,9.481140137,-1.357086182,1,0,0,rectangle,9.481140137,-1.357086182,1,0,0,9.481140137,-1.357086182,1,0,0,0,22,22,146,1,,,,,,,,
,,,,,,,,,,,,,FF,,,,,,,,0.9159,,,,,,,,,,,,,,,,,,,,,,6102eb79ffcced89eefe3062,61036f6444814199a34e8c65,2021-07-29_22h19.59.538,Simcolourproject_2stim_asymm_v5,2020.2.10,MacIntel,60,61025ae37ef11b136ea224fe,,,,,,,,,4046,-41.75183105,62.64276123,1,0,0,response7disk,,0,-7.565979004,-6.99432373,1,0,0,rectangle,-7.565979004,-6.99432373,1,0,0,-7.565979004,-6.99432373,1,0,0,0,23,23,124,1,,,,,,,,
,,,,,,,,,,,,,FF,,,,,,,,1.233,,,,,,,,,,,,,,,,,,,,,,6102eb79ffcced89eefe3062,61036f6444814199a34e8c65,2021-07-29_22h19.59.538,Simcolourproject_2stim_asymm_v5,2020.2.10,MacIntel,60,61025ae37ef11b136ea224fe,,,,,,,,,3404,-43.28521729,-87.36981201,1,0,0,response5disk,,3,0.320800781,5.400604248,1,0,0,rectangle,0.320800781,5.400604248,1,0,0,0.320800781,5.400604248,1,0,0,0,24,24,8,1,,,,,,,,
,,,,,,,,,,,,,FF,,,,,,,,0.9832,,,,,,,,,,,,,,,,,,,,,,6102eb79ffcced89eefe3062,61036f6444814199a34e8c65,2021-07-29_22h19.59.538,Simcolourproject_2stim_asymm_v5,2020.2.10,MacIntel,60,61025ae37ef11b136ea224fe,,,,,,,,,3653,82.390625,39.78662109,1,0,0,response1disk,,6,7.16619873,-0.694824219,1,0,0,rectangle,7.16619873,-0.694824219,1,0,0,7.16619873,-0.694824219,1,0,0,0,25,25,53,1,,,,,,,,
,,,,,,,,,,,,,FF,,,,,,,,1.3333,,,,,,,,,,,,,,,,,,,,,,6102eb79ffcced89eefe3062,61036f6444814199a34e8c65,2021-07-29_22h19.59.538,Simcolourproject_2stim_asymm_v5,2020.2.10,MacIntel,60,61025ae37ef11b136ea224fe,,,,,,,,,2774,91.92016602,-46.04812622,1,0,0,response3disk,,5,3.086669922,-0.271606445,1,0,0,rectangle,3.086669922,-0.271606445,1,0,0,3.086669922,-0.271606445,1,0,0,0,26,26,100,1,,,,,,,,
,,,,,,,,,,,,,FF,,,,,,,,1.3329,,,,,,,,,,,,,,,,,,,,,,6102eb79ffcced89eefe3062,61036f6444814199a34e8c65,2021-07-29_22h19.59.538,Simcolourproject_2stim_asymm_v5,2020.2.10,MacIntel,60,61025ae37ef11b136ea224fe,,,,,,,,,753,45.2230835,-90.36663818,1,0,0,response3disk,,4,4.987792969,-4.474609375,1,0,0,rectangle,4.987792969,-4.474609375,1,0,0,4.987792969,-4.474609375,1,0,0,0,27,27,131,1,,,,,,,,
,,,,,,,,,,,,,FF,,,,,,,,1.1335,,,,,,,,,,,,,,,,,,,,,,6102eb79ffcced89eefe3062,61036f6444814199a34e8c65,2021-07-29_22h19.59.538,Simcolourproject_2stim_asymm_v5,2020.2.10,MacIntel,60,61025ae37ef11b136ea224fe,,,,,,,,,1553,77.57165527,-59.69235229,1,0,0,response3disk,,5,-2.555175781,-5.571105957,1,0,0,rectangle,-2.555175781,-5.571105957,1,0,0,-2.555175781,-5.571105957,1,0,0,0,28,28,21,1,,,,,,,,
,,,,,,,,,,,,,FF,,,,,,,,1.6009,,,,,,,,,,,,,,,,,,,,,,6102eb79ffcced89eefe3062,61036f6444814199a34e8c65,2021-07-29_22h19.59.538,Simcolourproject_2stim_asymm_v5,2020.2.10,MacIntel,60,61025ae37ef11b136ea224fe,,,,,,,,,1063,-47.2532959,-91.14611816,1,0,0,response5disk,,3,-0.594848633,2.319061279,1,0,0,rectangle,-0.594848633,2.319061279,1,0,0,-0.594848633,2.319061279,1,0,0,0,29,29,37,1,,,,,,,,
,,,,,,,,,,,,,FF,,,,,,,,1.5513,,,,,,,,,,,,,,,,,,,,,,6102eb79ffcced89eefe3062,61036f6444814199a34e8c65,2021-07-29_22h19.59.538,Simcolourproject_2stim_asymm_v5,2020.2.10,MacIntel,60,61025ae37ef11b136ea224fe,,,,,,,,,3148,-71.54718018,52.74780273,1,0,0,response7disk,,1,-18.92871094,4.559875488,1,0,0,rectangle,-18.92871094,4.559875488,1,0,0,-18.92871094,4.559875488,1,0,0,0,30,30,13,1,,,,,,,,
,,,,,,,,,,,,,FF,,,,,,,,1.0484,,,,,,,,,,,,,,,,,,,,,,6102eb79ffcced89eefe3062,61036f6444814199a34e8c65,2021-07-29_22h19.59.538,Simcolourproject_2stim_asymm_v5,2020.2.10,MacIntel,60,61025ae37ef11b136ea224fe,,,,,,,,,999,41.10198975,-85.38757324,1,0,0,response3disk,,4,5.684326172,1.105438232,1,0,0,rectangle,5.684326172,1.105438232,1,0,0,5.684326172,1.105438232,1,0,0,0,31,31,121,1,,,,,,,,
,,,,,,,,,,,,,FF,,,,,,,,0.9333,,,,,,,,,,,,,,,,,,,,,,6102eb79ffcced89eefe3062,61036f6444814199a34e8c65,2021-07-29_22h19.59.538,Simcolourproject_2stim_asymm_v5,2020.2.10,MacIntel,60,61025ae37ef11b136ea224fe,,,,,,,,,2575,51.64782715,-70.64770508,1,0,0,response3disk,,4,16.1105957,-6.113494873,1,0,0,rectangle,16.1105957,-6.113494873,1,0,0,16.1105957,-6.113494873,1,0,0,0,32,32,87,1,,,,,,,,
,,,,,,,,,,,,,FF,,,,,,,,1.2674,,,,,,,,,,,,,,,,,,,,,,6102eb79ffcced89eefe3062,61036f6444814199a34e8c65,2021-07-29_22h19.59.538,Simcolourproject_2stim_asymm_v5,2020.2.10,MacIntel,60,61025ae37ef11b136ea224fe,,,,,,,,,2822,93.69018555,40.31170654,1,0,0,response1disk,,6,3.166381836,-5.605041504,1,0,0,rectangle,3.166381836,-5.605041504,1,0,0,3.166381836,-5.605041504,1,0,0,0,33,33,66,1,,,,,,,,
,,,,,,,,,,,,,FF,,,,,,,,1.1999,,,,,,,,,,,,,,,,,,,,,,6102eb79ffcced89eefe3062,61036f6444814199a34e8c65,2021-07-29_22h19.59.538,Simcolourproject_2stim_asymm_v5,2020.2.10,MacIntel,60,61025ae37ef11b136ea224fe,,,,,,,,,356,-48.36120605,-81.4664917,1,0,0,response5disk,,3,-7.640380859,-4.596343994,1,0,0,rectangle,-40.56341553,-100.7443237,1,0,0,-1.248046875,-2.532897949,1,0,0,0,34,34,75,1,,response5disk_3,TRUE,3,3,"[123,155,209,35,241,52,264,72,211,65,40,301,107,39,203,168,92,4,212,7]",1.9331,rectangle
,,,,,,,,,,,,,FF,,,,,,,,0.9832,,,,,,,,,,,,,,,,,,,,,,6102eb79ffcced89eefe3062,61036f6444814199a34e8c65,2021-07-29_22h19.59.538,Simcolourproject_2stim_asymm_v5,2020.2.10,MacIntel,60,61025ae37ef11b136ea224fe,,,,,,,,,4367,-63.69140625,35.32434082,1,0,0,response7disk,,1,-1.806884766,-3.504058838,1,0,0,rectangle,-1.806884766,-3.504058838,1,0,0,-1.806884766,-3.504058838,1,0,0,0,35,35,27,1,,,,,,,,
,,,,,,,,,,,,,FF,,,,,,,,0.9334,,,,,,,,,,,,,,,,,,,,,,6102eb79ffcced89eefe3062,61036f6444814199a34e8c65,2021-07-29_22h19.59.538,Simcolourproject_2stim_asymm_v5,2020.2.10,MacIntel,60,61025ae37ef11b136ea224fe,,,,,,,,,1976,32.87896729,-69.6383667,1,0,0,response3disk,,4,2.559082031,-2.770751953,1,0,0,rectangle,2.559082031,-2.770751953,1,0,0,2.559082031,-2.770751953,1,0,0,0,36,36,4,1,,,,,,,,
,,,,,,,,,,,,,FF,,,,,,,,1.0496,,,,,,,,,,,,,,,,,,,,,,6102eb79ffcced89eefe3062,61036f6444814199a34e8c65,2021-07-29_22h19.59.538,Simcolourproject_2stim_asymm_v5,2020.2.10,MacIntel,60,61025ae37ef11b136ea224fe,,,,,,,,,3828,40.63555908,-79.58917236,1,0,0,response3disk,,4,10.34063721,0.612060547,1,0,0,rectangle,10.34063721,0.612060547,1,0,0,10.34063721,0.612060547,1,0,0,0,37,37,17,1,,,,,,,,
,,,,,,,,,,,,,FF,,,,,,,,0.8328,,,,,,,,,,,,,,,,,,,,,,6102eb79ffcced89eefe3062,61036f6444814199a34e8c65,2021-07-29_22h19.59.538,Simcolourproject_2stim_asymm_v5,2020.2.10,MacIntel,60,61025ae37ef11b136ea224fe,,,,,,,,,599,43.92016602,-74.57397461,1,0,0,response3disk,,4,3.720092773,-1.452026367,1,0,0,rectangle,-46.21856689,-88.56280518,1,0,0,-5.895141602,-6.881530762,1,0,0,0,38,38,42,1,,response5disk_3,TRUE,3,3,"[123,155,209,35,241,52,264,72,211,65,40,301,107,39,203,168,92,4,212,7]",1.4332,rectangle
,,,,,,,,,,,,,FF,,,,,,,,1.0331,,,,,,,,,,,,,,,,,,,,,,6102eb79ffcced89eefe3062,61036f6444814199a34e8c65,2021-07-29_22h19.59.538,Simcolourproject_2stim_asymm_v5,2020.2.10,MacIntel,60,61025ae37ef11b136ea224fe,,,,,,,,,307,90.91674805,-35.26235962,1,0,0,response3disk,,5,-3.101074219,4.120483398,1,0,0,rectangle,36.25158691,60.41470337,1,0,0,2.46295166,-7.623657227,1,0,0,0,39,39,157,1,,response1disk_3,TRUE,7,7,"[123,155,209,35,241,52,264,72,211,65,40,301,107,39,203,168,92,4,212,7]",1.3848,rectangle
,,,,,,,,,,,,,FF,,,,,,,,1.1995,,,,,,,,,,,,,,,,,,,,,,6102eb79ffcced89eefe3062,61036f6444814199a34e8c65,2021-07-29_22h19.59.538,Simcolourproject_2stim_asymm_v5,2020.2.10,MacIntel,60,61025ae37ef11b136ea224fe,,,,,,,,,3408,-53.97338867,-81.16162109,1,0,0,response5disk,,3,0.366943359,0.692871094,1,0,0,rectangle,0.366943359,0.692871094,1,0,0,0.366943359,0.692871094,1,0,0,0,40,40,89,1,,,,,,,,
,,,,,,,,,,,,,FF,,,,,,,,0.8836,,,,,,,,,,,,,,,,,,,,,,6102eb79ffcced89eefe3062,61036f6444814199a34e8c65,2021-07-29_22h19.59.538,Simcolourproject_2stim_asymm_v5,2020.2.10,MacIntel,60,61025ae37ef11b136ea224fe,,,,,,,,,1791,-34.92681885,-87.07501221,1,0,0,response5disk,,3,-4.923217773,0.090148926,1,0,0,rectangle,-4.923217773,0.090148926,1,0,0,-4.923217773,0.090148926,1,0,0,0,41,41,101,1,,,,,,,,
,,,,,,,,,,,,,FF,,,,,,,,0.7839,,,,,,,,,,,,,,,,,,,,,,6102eb79ffcced89eefe3062,61036f6444814199a34e8c65,2021-07-29_22h19.59.538,Simcolourproject_2stim_asymm_v5,2020.2.10,MacIntel,60,61025ae37ef11b136ea224fe,,,,,,,,,1027,42.16046143,-74.47363281,1,0,0,response3disk,,4,7.436706543,-8.302368164,1,0,0,rectangle,7.436706543,-8.302368164,1,0,0,7.436706543,-8.302368164,1,0,0,0,42,42,19,1,,,,,,,,
,,,,,,,,,,,,,FF,,,,,,,,1.0673,,,,,,,,,,,,,,,,,,,,,,6102eb79ffcced89eefe3062,61036f6444814199a34e8c65,2021-07-29_22h19.59.538,Simcolourproject_2stim_asymm_v5,2020.2.10,MacIntel,60,61025ae37ef11b136ea224fe,,,,,,,,,1220,-72.11022949,52.06097412,1,0,0,response7disk,,1,-14.71362305,1.299560547,1,0,0,rectangle,-14.71362305,1.299560547,1,0,0,-14.71362305,1.299560547,1,0,0,0,43,43,58,1,,,,,,,,
,,,,,,,,,,,,,FF,,,,,,,,0.7846,,,,,,,,,,,,,,,,,,,,,,6102eb79ffcced89eefe3062,61036f6444814199a34e8c65,2021-07-29_22h19.59.538,Simcolourproject_2stim_asymm_v5,2020.2.10,MacIntel,60,61025ae37ef11b136ea224fe,,,,,,,,,3054,-79.64044189,32.07818604,1,0,0,response7disk,,1,-8.019042969,-6.960662842,1,0,0,rectangle,-8.019042969,-6.960662842,1,0,0,-8.019042969,-6.960662842,1,0,0,0,44,44,127,1,,,,,,,,
,,,,,,,,,,,,,FF,,,,,,,,0.9646,,,,,,,,,,,,,,,,,,,,,,6102eb79ffcced89eefe3062,61036f6444814199a34e8c65,2021-07-29_22h19.59.538,Simcolourproject_2stim_asymm_v5,2020.2.10,MacIntel,60,61025ae37ef11b136ea224fe,,,,,,,,,3586,-85.7019043,-45.86044312,1,0,0,response5disk,,2,0.603088379,3.508178711,1,0,0,rectangle,0.603088379,3.508178711,1,0,0,0.603088379,3.508178711,1,0,0,0,45,45,134,1,,,,,,,,
,,,,,,,,,,,,,FF,,,,,,,,1.7672,,,,,,,,,,,,,,,,,,,,,,6102eb79ffcced89eefe3062,61036f6444814199a34e8c65,2021-07-29_22h19.59.538,Simcolourproject_2stim_asymm_v5,2020.2.10,MacIntel,60,61025ae37ef11b136ea224fe,,,,,,,,,4109,-46.97424316,-65.31665039,1,0,0,response5disk,,3,-0.749511719,3.642822266,1,0,0,rectangle,-0.749511719,3.642822266,1,0,0,-0.749511719,3.642822266,1,0,0,0,46,46,107,1,,,,,,,,
,,,,,,,,,,,,,FF,,,,,,,,2.0501,,,,,,,,,,,,,,,,,,,,,,6102eb79ffcced89eefe3062,61036f6444814199a34e8c65,2021-07-29_22h19.59.538,Simcolourproject_2stim_asymm_v5,2020.2.10,MacIntel,60,61025ae37ef11b136ea224fe,,,,,,,,,480,37.32647705,-95.84997559,1,0,0,response3disk,,4,2.959838867,9.085784912,1,0,0,rectangle,2.959838867,9.085784912,1,0,0,2.959838867,9.085784912,1,0,0,0,47,47,40,1,,,,,,,,
,,,,,,,,,,,,,FF,,,,,,,,1.5695,,,,,,,,,,,,,,,,,,,,,,6102eb79ffcced89eefe3062,61036f6444814199a34e8c65,2021-07-29_22h19.59.538,Simcolourproject_2stim_asymm_v5,2020.2.10,MacIntel,60,61025ae37ef11b136ea224fe,,,,,,,,,2527,88.77154541,51.77728271,1,0,0,response1disk,,6,0.297302246,-10.17480469,1,0,0,rectangle,0.297302246,-10.17480469,1,0,0,0.297302246,-10.17480469,1,0,0,0,48,48,85,1,,,,,,,,
,,,,,,,,,,,,,FF,,,,,,,,1.0501,,,,,,,,,,,,,,,,,,,,,,6102eb79ffcced89eefe3062,61036f6444814199a34e8c65,2021-07-29_22h19.59.538,Simcolourproject_2stim_asymm_v5,2020.2.10,MacIntel,60,61025ae37ef11b136ea224fe,,,,,,,,,4312,89.81408691,43.48703003,1,0,0,response1disk,,6,13.68884277,7.227600098,1,0,0,rectangle,13.68884277,7.227600098,1,0,0,13.68884277,7.227600098,1,0,0,0,49,49,71,1,,,,,,,,
,,,,,,,,,,,,,FF,,,,,,,,1.2165,,,,,,,,,,,,,,,,,,,,,,6102eb79ffcced89eefe3062,61036f6444814199a34e8c65,2021-07-29_22h19.59.538,Simcolourproject_2stim_asymm_v5,2020.2.10,MacIntel,60,61025ae37ef11b136ea224fe,,,,,,,,,3310,70.89422607,-66.56152344,1,0,0,response3disk,,5,1.248352051,0.72845459,1,0,0,rectangle,1.248352051,0.72845459,1,0,0,1.248352051,0.72845459,1,0,0,0,50,50,22,1,,,,,,,,
,,,,,,,,,,,,,FF,,,,,,,,1.6496,,,,,,,,,,,,,,,,,,,,,,6102eb79ffcced89eefe3062,61036f6444814199a34e8c65,2021-07-29_22h19.59.538,Simcolourproject_2stim_asymm_v5,2020.2.10,MacIntel,60,61025ae37ef11b136ea224fe,,,,,,,,,2113,49.40899658,-92.89624023,1,0,0,response3disk,,4,1.415649414,6.251525879,1,0,0,rectangle,-92.36071777,36.80609131,1,0,0,-4.765991211,-5.772216797,1,0,0,0,51,51,110,1,,response7disk_3,TRUE,1,1,"[123,155,209,35,241,52,264,72,211,65,40,301,107,39,203,168,92,4,212,7]",1.4331,rectangle
,,,,,,,,,,,,,FF,,,,,,,,0.8653,,,,,,,,,,,,,,,,,,,,,,6102eb79ffcced89eefe3062,61036f6444814199a34e8c65,2021-07-29_22h19.59.538,Simcolourproject_2stim_asymm_v5,2020.2.10,MacIntel,60,61025ae37ef11b136ea224fe,,,,,,,,,4075,-67.52612305,-40.56274414,1,0,0,response5disk,,2,4.575012207,6.149200439,1,0,0,rectangle,4.575012207,6.149200439,1,0,0,4.575012207,6.149200439,1,0,0,0,52,52,81,1,,,,,,,,
,,,,,,,,,,,,,FF,,,,,,,,0.8336,,,,,,,,,,,,,,,,,,,,,,6102eb79ffcced89eefe3062,61036f6444814199a34e8c65,2021-07-29_22h19.59.538,Simcolourproject_2stim_asymm_v5,2020.2.10,MacIntel,60,61025ae37ef11b136ea224fe,,,,,,,,,2125,61.20556641,-84.77062988,1,0,0,response3disk,,4,13.42816162,-13.67010498,1,0,0,rectangle,13.42816162,-13.67010498,1,0,0,13.42816162,-13.67010498,1,0,0,0,53,53,10,1,,,,,,,,
,,,,,,,,,,,,,FF,,,,,,,,0.75,,,,,,,,,,,,,,,,,,,,,,6102eb79ffcced89eefe3062,61036f6444814199a34e8c65,2021-07-29_22h19.59.538,Simcolourproject_2stim_asymm_v5,2020.2.10,MacIntel,60,61025ae37ef11b136ea224fe,,,,,,,,,2128,54.17858887,-94.22827148,1,0,0,response3disk,,4,8.187866211,3.505554199,1,0,0,rectangle,8.187866211,3.505554199,1,0,0,8.187866211,3.505554199,1,0,0,0,54,54,86,1,,,,,,,,
,,,,,,,,,,,,,FF,,,,,,,,1.2168,,,,,,,,,,,,,,,,,,,,,,6102eb79ffcced89eefe3062,61036f6444814199a34e8c65,2021-07-29_22h19.59.538,Simcolourproject_2stim_asymm_v5,2020.2.10,MacIntel,60,61025ae37ef11b136ea224fe,,,,,,,,,107,90.57818604,-56.84423828,1,0,0,response3disk,,5,9.416625977,-7.406188965,1,0,0,rectangle,9.416625977,-7.406188965,1,0,0,9.416625977,-7.406188965,1,0,0,0,55,55,49,1,,,,,,,,
,,,,,,,,,,,,,FF,,,,,,,,3.0665,,,,,,,,,,,,,,,,,,,,,,6102eb79ffcced89eefe3062,61036f6444814199a34e8c65,2021-07-29_22h19.59.538,Simcolourproject_2stim_asymm_v5,2020.2.10,MacIntel,60,61025ae37ef11b136ea224fe,,,,,,,,,3855,-40.81164551,-79.23162842,1,0,0,response5disk,,3,-10.25506592,-7.991729736,1,0,0,rectangle,-10.25506592,-7.991729736,1,0,0,-10.25506592,-7.991729736,1,0,0,0,56,56,36,1,,,,,,,,
,,,,,,,,,,,,,FF,,,,,,,,1.1162,,,,,,,,,,,,,,,,,,,,,,6102eb79ffcced89eefe3062,61036f6444814199a34e8c65,2021-07-29_22h19.59.538,Simcolourproject_2stim_asymm_v5,2020.2.10,MacIntel,60,61025ae37ef11b136ea224fe,,,,,,,,,213,-41.21118164,-77.73529053,1,0,0,response5disk,,3,7.580566406,5.743164063,1,0,0,rectangle,7.580566406,5.743164063,1,0,0,7.580566406,5.743164063,1,0,0,0,57,57,61,1,,,,,,,,
,,,,,,,,,,,,,FF,,,,,,,,1.0781,,,,,,,,,,,,,,,,,,,,,,6102eb79ffcced89eefe3062,61036f6444814199a34e8c65,2021-07-29_22h19.59.538,Simcolourproject_2stim_asymm_v5,2020.2.10,MacIntel,60,61025ae37ef11b136ea224fe,,,,,,,,,4360,-83.03234863,-40.95339966,1,0,0,response5disk,,2,-0.234741211,-2.600097656,1,0,0,rectangle,-0.234741211,-2.600097656,1,0,0,-0.234741211,-2.600097656,1,0,0,0,58,58,115,1,,,,,,,,
,,,,,,,,,,,,,FF,,,,,,,,0.984,,,,,,,,,,,,,,,,,,,,,,6102eb79ffcced89eefe3062,61036f6444814199a34e8c65,2021-07-29_22h19.59.538,Simcolourproject_2stim_asymm_v5,2020.2.10,MacIntel,60,61025ae37ef11b136ea224fe,,,,,,,,,445,-77.89807129,28.23733521,1,0,0,response7disk,,1,-12.84741211,2.938232422,1,0,0,rectangle,-12.84741211,2.938232422,1,0,0,-12.84741211,2.938232422,1,0,0,0,59,59,50,1,,,,,,,,
,,,,,,,,,,,,,FF,,,,,,,,0.7194,,,,,,,,,,,,,,,,,,,,,,6102eb79ffcced89eefe3062,61036f6444814199a34e8c65,2021-07-29_22h19.59.538,Simcolourproject_2stim_asymm_v5,2020.2.10,MacIntel,60,61025ae37ef11b136ea224fe,,,,,,,,,3091,-72.56091309,39.31530762,1,0,0,response7disk,,1,-5.801696777,-0.722290039,1,0,0,rectangle,-5.801696777,-0.722290039,1,0,0,-5.801696777,-0.722290039,1,0,0,0,60,60,123,1,,,,,,,,
,,,,,,,,,,,,,FF,,,,,,,,1.149,,,,,,,,,,,,,,,,,,,,,,6102eb79ffcced89eefe3062,61036f6444814199a34e8c65,2021-07-29_22h19.59.538,Simcolourproject_2stim_asymm_v5,2020.2.10,MacIntel,60,61025ae37ef11b136ea224fe,,,,,,,,,4265,93.00415039,31.58294678,1,0,0,response1disk,,6,-3.156616211,5.302734375,1,0,0,rectangle,-3.156616211,5.302734375,1,0,0,-3.156616211,5.302734375,1,0,0,0,61,61,154,1,,,,,,,,
,,,,,,,,,,,,,FF,,,,,,,,1.7668,,,,,,,,,,,,,,,,,,,,,,6102eb79ffcced89eefe3062,61036f6444814199a34e8c65,2021-07-29_22h19.59.538,Simcolourproject_2stim_asymm_v5,2020.2.10,MacIntel,60,61025ae37ef11b136ea224fe,,,,,,,,,1488,44.80725098,-68.45965576,1,0,0,response3disk,,4,-2.214538574,1.651428223,1,0,0,rectangle,-2.214538574,1.651428223,1,0,0,-2.214538574,1.651428223,1,0,0,0,62,62,133,1,,,,,,,,
,,,,,,,,,,,,,FF,,,,,,,,0.9,,,,,,,,,,,,,,,,,,,,,,6102eb79ffcced89eefe3062,61036f6444814199a34e8c65,2021-07-29_22h19.59.538,Simcolourproject_2stim_asymm_v5,2020.2.10,MacIntel,60,61025ae37ef11b136ea224fe,,,,,,,,,2622,-40.82336426,-83.13659668,1,0,0,response5disk,,3,1.234619141,-2.992675781,1,0,0,rectangle,1.234619141,-2.992675781,1,0,0,1.234619141,-2.992675781,1,0,0,0,63,63,5,1,,,,,,,,
,,,,,,,,,,,,,FF,,,,,,,,1.8674,,,,,,,,,,,,,,,,,,,,,,6102eb79ffcced89eefe3062,61036f6444814199a34e8c65,2021-07-29_22h19.59.538,Simcolourproject_2stim_asymm_v5,2020.2.10,MacIntel,60,61025ae37ef11b136ea224fe,,,,,,,,,2564,39.75805664,-103.0430908,1,0,0,response3disk,,4,7.549865723,6.995422363,1,0,0,rectangle,-49.00982666,-75.61657715,1,0,0,4.94342041,3.704956055,1,0,0,0,64,64,140,1,,response5disk_3,TRUE,3,3,"[123,155,209,35,241,52,264,72,211,65,40,301,107,39,203,168,92,4,212,7]",1.2519,rectangle
,,,,,,,,,,,,,FF,,,,,,,,0.7479,,,,,,,,,,,,,,,,,,,,,,6102eb79ffcced89eefe3062,61036f6444814199a34e8c65,2021-07-29_22h19.59.538,Simcolourproject_2stim_asymm_v5,2020.2.10,MacIntel,60,61025ae37ef11b136ea224fe,,,,,,,,,4320,-37.60699463,-77.4942627,1,0,0,response5disk,,3,-3.375,-9.948425293,1,0,0,rectangle,-3.375,-9.948425293,1,0,0,-3.375,-9.948425293,1,0,0,0,65,65,141,1,,,,,,,,
,,,,,,,,,,,,,FF,,,,,,,,1.0005,,,,,,,,,,,,,,,,,,,,,,6102eb79ffcced89eefe3062,61036f6444814199a34e8c65,2021-07-29_22h19.59.538,Simcolourproject_2stim_asymm_v5,2020.2.10,MacIntel,60,61025ae37ef11b136ea224fe,,,,,,,,,1746,-73.63098145,30.08847046,1,0,0,response7disk,,1,-9.441040039,-3.173431396,1,0,0,rectangle,-9.441040039,-3.173431396,1,0,0,-9.441040039,-3.173431396,1,0,0,0,66,66,26,1,,,,,,,,
,,,,,,,,,,,,,FF,,,,,,,,0.8689,,,,,,,,,,,,,,,,,,,,,,6102eb79ffcced89eefe3062,61036f6444814199a34e8c65,2021-07-29_22h19.59.538,Simcolourproject_2stim_asymm_v5,2020.2.10,MacIntel,60,61025ae37ef11b136ea224fe,,,,,,,,,1662,-51.50244141,-84.67224121,1,0,0,response5disk,,3,4.083496094,-0.204528809,1,0,0,rectangle,4.083496094,-0.204528809,1,0,0,4.083496094,-0.204528809,1,0,0,0,67,67,126,1,,,,,,,,
,,,,,,,,,,,,,FF,,,,,,,,1.3001,,,,,,,,,,,,,,,,,,,,,,6102eb79ffcced89eefe3062,61036f6444814199a34e8c65,2021-07-29_22h19.59.538,Simcolourproject_2stim_asymm_v5,2020.2.10,MacIntel,60,61025ae37ef11b136ea224fe,,,,,,,,,214,82.58856201,-42.51477051,1,0,0,response3disk,,5,7.598510742,-3.067718506,1,0,0,rectangle,7.598510742,-3.067718506,1,0,0,7.598510742,-3.067718506,1,0,0,0,68,68,59,1,,,,,,,,
,,,,,,,,,,,,,FF,,,,,,,,0.6827,,,,,,,,,,,,,,,,,,,,,,6102eb79ffcced89eefe3062,61036f6444814199a34e8c65,2021-07-29_22h19.59.538,Simcolourproject_2stim_asymm_v5,2020.2.10,MacIntel,60,61025ae37ef11b136ea224fe,,,,,,,,,308,84.43206787,-46.17327881,1,0,0,response3disk,,5,-7.33392334,9.718200684,1,0,0,rectangle,-7.33392334,9.718200684,1,0,0,-7.33392334,9.718200684,1,0,0,0,69,69,152,1,,,,,,,,
,,,,,,,,,,,,,FF,,,,,,,,0.8173,,,,,,,,,,,,,,,,,,,,,,6102eb79ffcced89eefe3062,61036f6444814199a34e8c65,2021-07-29_22h19.59.538,Simcolourproject_2stim_asymm_v5,2020.2.10,MacIntel,60,61025ae37ef11b136ea224fe,,,,,,,,,3766,-45.72875977,-65.98925781,1,0,0,response5disk,,3,-4.519836426,-1.601623535,1,0,0,rectangle,-4.519836426,-1.601623535,1,0,0,-4.519836426,-1.601623535,1,0,0,0,70,70,96,1,,,,,,,,
,,,,,,,,,,,,,FF,,,,,,,,0.7364,,,,,,,,,,,,,,,,,,,,,,6102eb79ffcced89eefe3062,61036f6444814199a34e8c65,2021-07-29_22h19.59.538,Simcolourproject_2stim_asymm_v5,2020.2.10,MacIntel,60,61025ae37ef11b136ea224fe,,,,,,,,,299,35.88867188,-78.58605957,1,0,0,response3disk,,4,10.31567383,-5.096313477,1,0,0,rectangle,-35.26727295,-92.40527344,1,0,0,-1.749267578,-4.34765625,1,0,0,0,71,71,2,1,,response5disk_3,TRUE,3,3,"[123,155,209,35,241,52,264,72,211,65,40,301,107,39,203,168,92,4,212,7]",1.0671,rectangle
,,,,,,,,,,,,,FF,,,,,,,,1.0678,,,,,,,,,,,,,,,,,,,,,,6102eb79ffcced89eefe3062,61036f6444814199a34e8c65,2021-07-29_22h19.59.538,Simcolourproject_2stim_asymm_v5,2020.2.10,MacIntel,60,61025ae37ef11b136ea224fe,,,,,,,,,717,-29.41357422,74.0279541,1,0,0,response7disk,,0,-5.933349609,1.800811768,1,0,0,rectangle,-5.933349609,1.800811768,1,0,0,-5.933349609,1.800811768,1,0,0,0,72,72,15,1,,,,,,,,
,,,,,,,,,,,,,FF,,,,,,,,0.8508,,,,,,,,,,,,,,,,,,,,,,6102eb79ffcced89eefe3062,61036f6444814199a34e8c65,2021-07-29_22h19.59.538,Simcolourproject_2stim_asymm_v5,2020.2.10,MacIntel,60,61025ae37ef11b136ea224fe,,,,,,,,,497,93.35437012,-51.40194702,1,0,0,response3disk,,5,8.588195801,-0.859069824,1,0,0,rectangle,8.588195801,-0.859069824,1,0,0,8.588195801,-0.859069824,1,0,0,0,73,73,148,1,,,,,,,,
,,,,,,,,,,,,,FF,,,,,,,,0.9172,,,,,,,,,,,,,,,,,,,,,,6102eb79ffcced89eefe3062,61036f6444814199a34e8c65,2021-07-29_22h19.59.538,Simcolourproject_2stim_asymm_v5,2020.2.10,MacIntel,60,61025ae37ef11b136ea224fe,,,,,,,,,2984,92.887146,63.89691162,1,0,0,response1disk,,6,-5.391723633,-11.55316162,1,0,0,rectangle,-5.391723633,-11.55316162,1,0,0,-5.391723633,-11.55316162,1,0,0,0,74,74,20,1,,,,,,,,
,,,,,,,,,,,,,FF,,,,,,,,0.9657,,,,,,,,,,,,,,,,,,,,,,6102eb79ffcced89eefe3062,61036f6444814199a34e8c65,2021-07-29_22h19.59.538,Simcolourproject_2stim_asymm_v5,2020.2.10,MacIntel,60,61025ae37ef11b136ea224fe,,,,,,,,,366,-62.76086426,47.00628662,1,0,0,response7disk,,1,3.85369873,0.669525146,1,0,0,rectangle,3.85369873,0.669525146,1,0,0,3.85369873,0.669525146,1,0,0,0,75,75,116,1,,,,,,,,
,,,,,,,,,,,,,FF,,,,,,,,1.0834,,,,,,,,,,,,,,,,,,,,,,6102eb79ffcced89eefe3062,61036f6444814199a34e8c65,2021-07-29_22h19.59.538,Simcolourproject_2stim_asymm_v5,2020.2.10,MacIntel,60,61025ae37ef11b136ea224fe,,,,,,,,,2373,73.71264648,-48.17123413,1,0,0,response3disk,,5,2.829650879,-1.054321289,1,0,0,rectangle,2.829650879,-1.054321289,1,0,0,2.829650879,-1.054321289,1,0,0,0,76,76,68,1,,,,,,,,
,,,,,,,,,,,,,FF,,,,,,,,0.7822,,,,,,,,,,,,,,,,,,,,,,6102eb79ffcced89eefe3062,61036f6444814199a34e8c65,2021-07-29_22h19.59.538,Simcolourproject_2stim_asymm_v5,2020.2.10,MacIntel,60,61025ae37ef11b136ea224fe,,,,,,,,,2695,95.25012207,-44.20855713,1,0,0,response3disk,,5,1.727905273,-9.266326904,1,0,0,rectangle,1.727905273,-9.266326904,1,0,0,1.727905273,-9.266326904,1,0,0,0,77,77,91,1,,,,,,,,
,,,,,,,,,,,,,FF,,,,,,,,0.8983,,,,,,,,,,,,,,,,,,,,,,6102eb79ffcced89eefe3062,61036f6444814199a34e8c65,2021-07-29_22h19.59.538,Simcolourproject_2stim_asymm_v5,2020.2.10,MacIntel,60,61025ae37ef11b136ea224fe,,,,,,,,,3086,98.94122314,61.88571167,1,0,0,response1disk,,6,-15.64691162,-4.478820801,1,0,0,rectangle,-15.64691162,-4.478820801,1,0,0,-15.64691162,-4.478820801,1,0,0,0,78,78,149,1,,,,,,,,
,,,,,,,,,,,,,FF,,,,,,,,0.9504,,,,,,,,,,,,,,,,,,,,,,6102eb79ffcced89eefe3062,61036f6444814199a34e8c65,2021-07-29_22h19.59.538,Simcolourproject_2stim_asymm_v5,2020.2.10,MacIntel,60,61025ae37ef11b136ea224fe,,,,,,,,,2681,81.63641357,44.82080078,1,0,0,response1disk,,6,11.56048584,4.87109375,1,0,0,rectangle,11.56048584,4.87109375,1,0,0,11.56048584,4.87109375,1,0,0,0,79,79,104,1,,,,,,,,
,,,,,,,,,,,,,FF,,,,,,,,1.0328,,,,,,,,,,,,,,,,,,,,,,6102eb79ffcced89eefe3062,61036f6444814199a34e8c65,2021-07-29_22h19.59.538,Simcolourproject_2stim_asymm_v5,2020.2.10,MacIntel,60,61025ae37ef11b136ea224fe,,,,,,,,,1763,-42.53985596,-79.0480957,1,0,0,response5disk,,3,0.938415527,-1.924560547,1,0,0,rectangle,0.938415527,-1.924560547,1,0,0,0.938415527,-1.924560547,1,0,0,0,80,80,32,1,,,,,,,,
,,,,,,,,,,,,,FF,,,,,,,,0.9338,,,,,,,,,,,,,,,,,,,,,,6102eb79ffcced89eefe3062,61036f6444814199a34e8c65,2021-07-29_22h19.59.538,Simcolourproject_2stim_asymm_v5,2020.2.10,MacIntel,60,61025ae37ef11b136ea224fe,,,,,,,,,1541,60.18157959,-79.98944092,1,0,0,response3disk,,4,5.305480957,4.930389404,1,0,0,rectangle,5.305480957,4.930389404,1,0,0,5.305480957,4.930389404,1,0,0,0,81,81,43,1,,,,,,,,
,,,,,,,,,,,,,FF,,,,,,,,5.3168,,,,,,,,,,,,,,,,,,,,,,6102eb79ffcced89eefe3062,61036f6444814199a34e8c65,2021-07-29_22h19.59.538,Simcolourproject_2stim_asymm_v5,2020.2.10,MacIntel,60,61025ae37ef11b136ea224fe,,,,,,,,,1463,-63.2833252,37.19873047,1,0,0,response7disk,,1,-9.5703125,-0.302215576,1,0,0,rectangle,-9.5703125,-0.302215576,1,0,0,-9.5703125,-0.302215576,1,0,0,0,82,82,98,1,,,,,,,,
,,,,,,,,,,,,,FF,,,,,,,,0.6161,,,,,,,,,,,,,,,,,,,,,,6102eb79ffcced89eefe3062,61036f6444814199a34e8c65,2021-07-29_22h19.59.538,Simcolourproject_2stim_asymm_v5,2020.2.10,MacIntel,60,61025ae37ef11b136ea224fe,,,,,,,,,3661,-77.52459717,33.71478271,1,0,0,response7disk,,1,-14.85565186,8.548278809,1,0,0,rectangle,-14.85565186,8.548278809,1,0,0,-14.85565186,8.548278809,1,0,0,0,83,83,106,1,,,,,,,,
,,,,,,,,,,,,,FF,,,,,,,,0.9673,,,,,,,,,,,,,,,,,,,,,,6102eb79ffcced89eefe3062,61036f6444814199a34e8c65,2021-07-29_22h19.59.538,Simcolourproject_2stim_asymm_v5,2020.2.10,MacIntel,60,61025ae37ef11b136ea224fe,,,,,,,,,4322,-51.09893799,-70.6786499,1,0,0,response5disk,,3,-2.027954102,-6.000854492,1,0,0,rectangle,-2.027954102,-6.000854492,1,0,0,-2.027954102,-6.000854492,1,0,0,0,84,84,92,1,,,,,,,,
,,,,,,,,,,,,,FF,,,,,,,,0.7826,,,,,,,,,,,,,,,,,,,,,,6102eb79ffcced89eefe3062,61036f6444814199a34e8c65,2021-07-29_22h19.59.538,Simcolourproject_2stim_asymm_v5,2020.2.10,MacIntel,60,61025ae37ef11b136ea224fe,,,,,,,,,641,-71.28570557,-29.78955078,1,0,0,response5disk,,2,-5.703552246,-0.059539795,1,0,0,rectangle,-5.703552246,-0.059539795,1,0,0,-5.703552246,-0.059539795,1,0,0,0,85,85,24,1,,,,,,,,
,,,,,,,,,,,,,FF,,,,,,,,0.8827,,,,,,,,,,,,,,,,,,,,,,6102eb79ffcced89eefe3062,61036f6444814199a34e8c65,2021-07-29_22h19.59.538,Simcolourproject_2stim_asymm_v5,2020.2.10,MacIntel,60,61025ae37ef11b136ea224fe,,,,,,,,,3861,40.19226074,-80.80944824,1,0,0,response3disk,,4,-1.488891602,1.668762207,1,0,0,rectangle,-1.488891602,1.668762207,1,0,0,-1.488891602,1.668762207,1,0,0,0,86,86,65,1,,,,,,,,
,,,,,,,,,,,,,FF,,,,,,,,0.8665,,,,,,,,,,,,,,,,,,,,,,6102eb79ffcced89eefe3062,61036f6444814199a34e8c65,2021-07-29_22h19.59.538,Simcolourproject_2stim_asymm_v5,2020.2.10,MacIntel,60,61025ae37ef11b136ea224fe,,,,,,,,,669,78.50866699,-41.60650635,1,0,0,response3disk,,5,12.50610352,-2.673278809,1,0,0,rectangle,12.50610352,-2.673278809,1,0,0,12.50610352,-2.673278809,1,0,0,0,87,87,76,1,,,,,,,,
,,,,,,,,,,,,,FF,,,,,,,,1.0001,,,,,,,,,,,,,,,,,,,,,,6102eb79ffcced89eefe3062,61036f6444814199a34e8c65,2021-07-29_22h19.59.538,Simcolourproject_2stim_asymm_v5,2020.2.10,MacIntel,60,61025ae37ef11b136ea224fe,,,,,,,,,4189,-69.57495117,33.80377197,1,0,0,response7disk,,1,-7.134094238,-2.187011719,1,0,0,rectangle,-7.134094238,-2.187011719,1,0,0,-7.134094238,-2.187011719,1,0,0,0,88,88,80,1,,,,,,,,
,,,,,,,,,,,,,FF,,,,,,,,0.9504,,,,,,,,,,,,,,,,,,,,,,6102eb79ffcced89eefe3062,61036f6444814199a34e8c65,2021-07-29_22h19.59.538,Simcolourproject_2stim_asymm_v5,2020.2.10,MacIntel,60,61025ae37ef11b136ea224fe,,,,,,,,,3058,-63.92315674,36.42449951,1,0,0,response7disk,,1,-6.040527344,2.991394043,1,0,0,rectangle,-6.040527344,2.991394043,1,0,0,-6.040527344,2.991394043,1,0,0,0,89,89,99,1,,,,,,,,
,,,,,,,,,,,,,FF,,,,,,,,0.9334,,,,,,,,,,,,,,,,,,,,,,6102eb79ffcced89eefe3062,61036f6444814199a34e8c65,2021-07-29_22h19.59.538,Simcolourproject_2stim_asymm_v5,2020.2.10,MacIntel,60,61025ae37ef11b136ea224fe,,,,,,,,,1869,88.62524414,-47.70300293,1,0,0,response3disk,,5,12.34960938,1.56427002,1,0,0,rectangle,12.34960938,1.56427002,1,0,0,12.34960938,1.56427002,1,0,0,0,90,90,47,1,,,,,,,,
,,,,,,,,,,,,,FF,,,,,,,,1.0845,,,,,,,,,,,,,,,,,,,,,,6102eb79ffcced89eefe3062,61036f6444814199a34e8c65,2021-07-29_22h19.59.538,Simcolourproject_2stim_asymm_v5,2020.2.10,MacIntel,60,61025ae37ef11b136ea224fe,,,,,,,,,242,84.64788818,-34.86712646,1,0,0,response3disk,,5,7.436035156,0.306793213,1,0,0,rectangle,-33.70458984,-90.82714844,1,0,0,0.521179199,-0.738464355,1,0,0,0,91,91,88,1,,response5disk_3,TRUE,3,3,"[123,155,209,35,241,52,264,72,211,65,40,301,107,39,203,168,92,4,212,7]",1.0503,rectangle
,,,,,,,,,,,,,FF,,,,,,,,0.9169,,,,,,,,,,,,,,,,,,,,,,6102eb79ffcced89eefe3062,61036f6444814199a34e8c65,2021-07-29_22h19.59.538,Simcolourproject_2stim_asymm_v5,2020.2.10,MacIntel,60,61025ae37ef11b136ea224fe,,,,,,,,,1931,-75.59466553,30.59783936,1,0,0,response7disk,,1,8.900939941,-8.76763916,1,0,0,rectangle,8.900939941,-8.76763916,1,0,0,8.900939941,-8.76763916,1,0,0,0,92,92,117,1,,,,,,,,
,,,,,,,,,,,,,FF,,,,,,,,1.3515,,,,,,,,,,,,,,,,,,,,,,6102eb79ffcced89eefe3062,61036f6444814199a34e8c65,2021-07-29_22h19.59.538,Simcolourproject_2stim_asymm_v5,2020.2.10,MacIntel,60,61025ae37ef11b136ea224fe,,,,,,,,,3174,-30.66235352,-89.18609619,1,0,0,response5disk,,3,12.77191162,6.307220459,1,0,0,rectangle,12.77191162,6.307220459,1,0,0,12.77191162,6.307220459,1,0,0,0,93,93,11,1,,,,,,,,
,,,,,,,,,,,,,FF,,,,,,,,0.6666,,,,,,,,,,,,,,,,,,,,,,6102eb79ffcced89eefe3062,61036f6444814199a34e8c65,2021-07-29_22h19.59.538,Simcolourproject_2stim_asymm_v5,2020.2.10,MacIntel,60,61025ae37ef11b136ea224fe,,,,,,,,,1247,71.52331543,-26.5776062,1,0,0,response3disk,,5,12.10473633,-2.562683105,1,0,0,rectangle,12.10473633,-2.562683105,1,0,0,12.10473633,-2.562683105,1,0,0,0,94,94,158,1,,,,,,,,
,,,,,,,,,,,,,FF,,,,,,,,0.6159,,,,,,,,,,,,,,,,,,,,,,6102eb79ffcced89eefe3062,61036f6444814199a34e8c65,2021-07-29_22h19.59.538,Simcolourproject_2stim_asymm_v5,2020.2.10,MacIntel,60,61025ae37ef11b136ea224fe,,,,,,,,,2917,65.390625,-37.01983643,1,0,0,response3disk,,5,4.833862305,-5.616027832,1,0,0,rectangle,4.833862305,-5.616027832,1,0,0,4.833862305,-5.616027832,1,0,0,0,95,95,113,1,,,,,,,,
,,,,,,,,,,,,,FF,,,,,,,,0.7004,,,,,,,,,,,,,,,,,,,,,,6102eb79ffcced89eefe3062,61036f6444814199a34e8c65,2021-07-29_22h19.59.538,Simcolourproject_2stim_asymm_v5,2020.2.10,MacIntel,60,61025ae37ef11b136ea224fe,,,,,,,,,761,84.1741333,-42.94387817,1,0,0,response3disk,,5,13.36499023,-8.058654785,1,0,0,rectangle,13.36499023,-8.058654785,1,0,0,13.36499023,-8.058654785,1,0,0,0,96,96,153,1,,,,,,,,
,,,,,,,,,,,,,FF,,,,,,,,0.8824,,,,,,,,,,,,,,,,,,,,,,6102eb79ffcced89eefe3062,61036f6444814199a34e8c65,2021-07-29_22h19.59.538,Simcolourproject_2stim_asymm_v5,2020.2.10,MacIntel,60,61025ae37ef11b136ea224fe,,,,,,,,,4131,47.76635742,79.30944824,1,0,0,response1disk,,7,7.566101074,1.27923584,1,0,0,rectangle,7.566101074,1.27923584,1,0,0,7.566101074,1.27923584,1,0,0,0,97,97,51,1,,,,,,,,
,,,,,,,,,,,,,FF,,,,,,,,0.8166,,,,,,,,,,,,,,,,,,,,,,6102eb79ffcced89eefe3062,61036f6444814199a34e8c65,2021-07-29_22h19.59.538,Simcolourproject_2stim_asymm_v5,2020.2.10,MacIntel,60,61025ae37ef11b136ea224fe,,,,,,,,,750,85.8737793,33.89550781,1,0,0,response1disk,,6,2.694335938,-2.169006348,1,0,0,rectangle,2.694335938,-2.169006348,1,0,0,2.694335938,-2.169006348,1,0,0,0,98,98,72,1,,,,,,,,
,,,,,,,,,,,,,FF,,,,,,,,0.95,,,,,,,,,,,,,,,,,,,,,,6102eb79ffcced89eefe3062,61036f6444814199a34e8c65,2021-07-29_22h19.59.538,Simcolourproject_2stim_asymm_v5,2020.2.10,MacIntel,60,61025ae37ef11b136ea224fe,,,,,,,,,2733,-78.46606445,-41.10467529,1,0,0,response5disk,,2,-4.634277344,-7.892608643,1,0,0,rectangle,-4.634277344,-7.892608643,1,0,0,-4.634277344,-7.892608643,1,0,0,0,99,99,108,1,,,,,,,,
,,,,,,,,,,,,,FF,,,,,,,,1.0498,,,,,,,,,,,,,,,,,,,,,,6102eb79ffcced89eefe3062,61036f6444814199a34e8c65,2021-07-29_22h19.59.538,Simcolourproject_2stim_asymm_v5,2020.2.10,MacIntel,60,61025ae37ef11b136ea224fe,,,,,,,,,2309,93.33325195,-53.93582153,1,0,0,response3disk,,5,-11.73138428,3.562255859,1,0,0,rectangle,-11.73138428,3.562255859,1,0,0,-11.73138428,3.562255859,1,0,0,0,100,100,83,1,,,,,,,,
,,,,,,,,,,,,,FF,,,,,,,,0.801,,,,,,,,,,,,,,,,,,,,,,6102eb79ffcced89eefe3062,61036f6444814199a34e8c65,2021-07-29_22h19.59.538,Simcolourproject_2stim_asymm_v5,2020.2.10,MacIntel,60,61025ae37ef11b136ea224fe,,,,,,,,,478,85.75402832,-54.65426636,1,0,0,response3disk,,5,-6.722839355,3.223510742,1,0,0,rectangle,-6.722839355,3.223510742,1,0,0,-6.722839355,3.223510742,1,0,0,0,101,101,31,1,,,,,,,,
,,,,,,,,,,,,,FF,,,,,,,,0.782,,,,,,,,,,,,,,,,,,,,,,6102eb79ffcced89eefe3062,61036f6444814199a34e8c65,2021-07-29_22h19.59.538,Simcolourproject_2stim_asymm_v5,2020.2.10,MacIntel,60,61025ae37ef11b136ea224fe,,,,,,,,,2034,-85.09088135,-32.86956787,1,0,0,response5disk,,2,0.511779785,4.337585449,1,0,0,rectangle,0.511779785,4.337585449,1,0,0,0.511779785,4.337585449,1,0,0,0,102,102,55,1,,,,,,,,
,,,,,,,,,,,,,FF,,,,,,,,0.8356,,,,,,,,,,,,,,,,,,,,,,6102eb79ffcced89eefe3062,61036f6444814199a34e8c65,2021-07-29_22h19.59.538,Simcolourproject_2stim_asymm_v5,2020.2.10,MacIntel,60,61025ae37ef11b136ea224fe,,,,,,,,,3376,-71.54980469,-38.69659424,1,0,0,response5disk,,2,2.62322998,5.619018555,1,0,0,rectangle,2.62322998,5.619018555,1,0,0,2.62322998,5.619018555,1,0,0,0,103,103,18,1,,,,,,,,
,,,,,,,,,,,,,FF,,,,,,,,1.7338,,,,,,,,,,,,,,,,,,,,,,6102eb79ffcced89eefe3062,61036f6444814199a34e8c65,2021-07-29_22h19.59.538,Simcolourproject_2stim_asymm_v5,2020.2.10,MacIntel,60,61025ae37ef11b136ea224fe,,,,,,,,,1172,40.31744385,-103.3187866,1,0,0,response3disk,,4,8.240356445,-1.516967773,1,0,0,rectangle,8.240356445,-1.516967773,1,0,0,8.240356445,-1.516967773,1,0,0,0,104,104,137,1,,,,,,,,
,,,,,,,,,,,,,FF,,,,,,,,0.8512,,,,,,,,,,,,,,,,,,,,,,6102eb79ffcced89eefe3062,61036f6444814199a34e8c65,2021-07-29_22h19.59.538,Simcolourproject_2stim_asymm_v5,2020.2.10,MacIntel,60,61025ae37ef11b136ea224fe,,,,,,,,,2070,78.19909668,-52.00878906,1,0,0,response3disk,,5,-0.116882324,-5.64251709,1,0,0,rectangle,-0.116882324,-5.64251709,1,0,0,-0.116882324,-5.64251709,1,0,0,0,105,105,73,1,,,,,,,,
,,,,,,,,,,,,,FF,,,,,,,,0.7505,,,,,,,,,,,,,,,,,,,,,,6102eb79ffcced89eefe3062,61036f6444814199a34e8c65,2021-07-29_22h19.59.538,Simcolourproject_2stim_asymm_v5,2020.2.10,MacIntel,60,61025ae37ef11b136ea224fe,,,,,,,,,2625,47.42114258,-79.37823486,1,0,0,response3disk,,4,-2.347106934,9.175842285,1,0,0,rectangle,89.10253906,-60.4564209,1,0,0,9.020996094,-2.16394043,1,0,0,0,106,106,95,1,,response3disk_3,TRUE,5,5,"[123,155,209,35,241,52,264,72,211,65,40,301,107,39,203,168,92,4,212,7]",1.4992,rectangle
,,,,,,,,,,,,,FF,,,,,,,,0.9201,,,,,,,,,,,,,,,,,,,,,,6102eb79ffcced89eefe3062,61036f6444814199a34e8c65,2021-07-29_22h19.59.538,Simcolourproject_2stim_asymm_v5,2020.2.10,MacIntel,60,61025ae37ef11b136ea224fe,,,,,,,,,2143,105.5821533,-77.60943604,1,0,0,response3disk,,5,4.467590332,-2.507629395,1,0,0,rectangle,4.467590332,-2.507629395,1,0,0,4.467590332,-2.507629395,1,0,0,0,107,107,118,1,,,,,,,,
,,,,,,,,,,,,,FF,,,,,,,,1.4663,,,,,,,,,,,,,,,,,,,,,,6102eb79ffcced89eefe3062,61036f6444814199a34e8c65,2021-07-29_22h19.59.538,Simcolourproject_2stim_asymm_v5,2020.2.10,MacIntel,60,61025ae37ef11b136ea224fe,,,,,,,,,1434,85.21594238,-50.42547607,1,0,0,response3disk,,5,-11.92340088,-6.109191895,1,0,0,rectangle,-11.92340088,-6.109191895,1,0,0,-11.92340088,-6.109191895,1,0,0,0,108,108,114,1,,,,,,,,
,,,,,,,,,,,,,FF,,,,,,,,1.1496,,,,,,,,,,,,,,,,,,,,,,6102eb79ffcced89eefe3062,61036f6444814199a34e8c65,2021-07-29_22h19.59.538,Simcolourproject_2stim_asymm_v5,2020.2.10,MacIntel,60,61025ae37ef11b136ea224fe,,,,,,,,,262,-41.50531006,70.73483276,1,0,0,response7disk,,0,-5.713745117,2.195129395,1,0,0,rectangle,-5.713745117,2.195129395,1,0,0,-5.713745117,2.195129395,1,0,0,0,109,109,64,1,,,,,,,,
,,,,,,,,,,,,,FF,,,,,,,,0.999,,,,,,,,,,,,,,,,,,,,,,6102eb79ffcced89eefe3062,61036f6444814199a34e8c65,2021-07-29_22h19.59.538,Simcolourproject_2stim_asymm_v5,2020.2.10,MacIntel,60,61025ae37ef11b136ea224fe,,,,,,,,,192,-70.35076904,31.97802734,1,0,0,response7disk,,1,-6.204589844,2.144592285,1,0,0,rectangle,-6.204589844,2.144592285,1,0,0,-6.204589844,2.144592285,1,0,0,0,110,110,14,1,,,,,,,,
,,,,,,,,,,,,,FF,,,,,,,,0.8173,,,,,,,,,,,,,,,,,,,,,,6102eb79ffcced89eefe3062,61036f6444814199a34e8c65,2021-07-29_22h19.59.538,Simcolourproject_2stim_asymm_v5,2020.2.10,MacIntel,60,61025ae37ef11b136ea224fe,,,,,,,,,3419,-36.15948486,-78.1807251,1,0,0,response5disk,,3,3.342773438,5.282226563,1,0,0,rectangle,3.342773438,5.282226563,1,0,0,3.342773438,5.282226563,1,0,0,0,111,111,54,1,,,,,,,,
,,,,,,,,,,,,,FF,,,,,,,,0.8258,,,,,,,,,,,,,,,,,,,,,,6102eb79ffcced89eefe3062,61036f6444814199a34e8c65,2021-07-29_22h19.59.538,Simcolourproject_2stim_asymm_v5,2020.2.10,MacIntel,60,61025ae37ef11b136ea224fe,,,,,,,,,4273,56.9440918,-72.15948486,1,0,0,response3disk,,4,2.5078125,11.88397217,1,0,0,rectangle,2.5078125,11.88397217,1,0,0,2.5078125,11.88397217,1,0,0,0,112,112,39,1,,,,,,,,
,,,,,,,,,,,,,FF,,,,,,,,0.549,,,,,,,,,,,,,,,,,,,,,,6102eb79ffcced89eefe3062,61036f6444814199a34e8c65,2021-07-29_22h19.59.538,Simcolourproject_2stim_asymm_v5,2020.2.10,MacIntel,60,61025ae37ef11b136ea224fe,,,,,,,,,1740,-46.91430664,-69.06726074,1,0,0,response5disk,,3,-11.15936279,-4.68560791,1,0,0,rectangle,-11.15936279,-4.68560791,1,0,0,-11.15936279,-4.68560791,1,0,0,0,113,113,0,1,,,,,,,,
,,,,,,,,,,,,,FF,,,,,,,,0.7656,,,,,,,,,,,,,,,,,,,,,,6102eb79ffcced89eefe3062,61036f6444814199a34e8c65,2021-07-29_22h19.59.538,Simcolourproject_2stim_asymm_v5,2020.2.10,MacIntel,60,61025ae37ef11b136ea224fe,,,,,,,,,3071,89.26617432,-39.34292603,1,0,0,response3disk,,5,7.766174316,-5.511749268,1,0,0,rectangle,7.766174316,-5.511749268,1,0,0,7.766174316,-5.511749268,1,0,0,0,114,114,63,1,,,,,,,,
,,,,,,,,,,,,,FF,,,,,,,,0.5502,,,,,,,,,,,,,,,,,,,,,,6102eb79ffcced89eefe3062,61036f6444814199a34e8c65,2021-07-29_22h19.59.538,Simcolourproject_2stim_asymm_v5,2020.2.10,MacIntel,60,61025ae37ef11b136ea224fe,,,,,,,,,3369,76.22839355,-36.46289063,1,0,0,response3disk,,5,19.29541016,-0.952636719,1,0,0,rectangle,19.29541016,-0.952636719,1,0,0,19.29541016,-0.952636719,1,0,0,0,115,115,125,1,,,,,,,,
,,,,,,,,,,,,,FF,,,,,,,,0.5665,,,,,,,,,,,,,,,,,,,,,,6102eb79ffcced89eefe3062,61036f6444814199a34e8c65,2021-07-29_22h19.59.538,Simcolourproject_2stim_asymm_v5,2020.2.10,MacIntel,60,61025ae37ef11b136ea224fe,,,,,,,,,2529,74.60412598,27.97296143,1,0,0,response1disk,,6,7.415283203,-3.86328125,1,0,0,rectangle,7.415283203,-3.86328125,1,0,0,7.415283203,-3.86328125,1,0,0,0,116,116,142,1,,,,,,,,
,,,,,,,,,,,,,FF,,,,,,,,1.0713,,,,,,,,,,,,,,,,,,,,,,6102eb79ffcced89eefe3062,61036f6444814199a34e8c65,2021-07-29_22h19.59.538,Simcolourproject_2stim_asymm_v5,2020.2.10,MacIntel,60,61025ae37ef11b136ea224fe,,,,,,,,,3288,84.73419189,25.87402344,1,0,0,response1disk,,6,-5.551879883,-5.983459473,1,0,0,rectangle,-5.551879883,-5.983459473,1,0,0,-5.551879883,-5.983459473,1,0,0,0,117,117,67,1,,,,,,,,
,,,,,,,,,,,,,FF,,,,,,,,1.1501,,,,,,,,,,,,,,,,,,,,,,6102eb79ffcced89eefe3062,61036f6444814199a34e8c65,2021-07-29_22h19.59.538,Simcolourproject_2stim_asymm_v5,2020.2.10,MacIntel,60,61025ae37ef11b136ea224fe,,,,,,,,,3752,-55.30529785,-73.04296875,1,0,0,response5disk,,3,0.172058105,2.495666504,1,0,0,rectangle,0.172058105,2.495666504,1,0,0,0.172058105,2.495666504,1,0,0,0,118,118,7,1,,,,,,,,
,,,,,,,,,,,,,FF,,,,,,,,0.8678,,,,,,,,,,,,,,,,,,,,,,6102eb79ffcced89eefe3062,61036f6444814199a34e8c65,2021-07-29_22h19.59.538,Simcolourproject_2stim_asymm_v5,2020.2.10,MacIntel,60,61025ae37ef11b136ea224fe,,,,,,,,,3544,-79.04034424,-40.137146,1,0,0,response5disk,,2,8.213684082,-1.772705078,1,0,0,rectangle,8.213684082,-1.772705078,1,0,0,8.213684082,-1.772705078,1,0,0,0,119,119,128,1,,,,,,,,
,,,,,,,,,,,,,FF,,,,,,,,0.6151,,,,,,,,,,,,,,,,,,,,,,6102eb79ffcced89eefe3062,61036f6444814199a34e8c65,2021-07-29_22h19.59.538,Simcolourproject_2stim_asymm_v5,2020.2.10,MacIntel,60,61025ae37ef11b136ea224fe,,,,,,,,,407,92.84313965,-47.64129639,1,0,0,response3disk,,5,7.356811523,-6.473144531,1,0,0,rectangle,7.356811523,-6.473144531,1,0,0,7.356811523,-6.473144531,1,0,0,0,120,120,94,1,,,,,,,,
,,,,,,,,,,,,,FF,,,,,,,,0.8501,,,,,,,,,,,,,,,,,,,,,,6102eb79ffcced89eefe3062,61036f6444814199a34e8c65,2021-07-29_22h19.59.538,Simcolourproject_2stim_asymm_v5,2020.2.10,MacIntel,60,61025ae37ef11b136ea224fe,,,,,,,,,3405,86.8828125,-44.71252441,1,0,0,response3disk,,5,10.12994385,-3.097351074,1,0,0,rectangle,10.12994385,-3.097351074,1,0,0,10.12994385,-3.097351074,1,0,0,0,121,121,144,1,,,,,,,,
,,,,,,,,,,,,,FF,,,,,,,,0.5659,,,,,,,,,,,,,,,,,,,,,,6102eb79ffcced89eefe3062,61036f6444814199a34e8c65,2021-07-29_22h19.59.538,Simcolourproject_2stim_asymm_v5,2020.2.10,MacIntel,60,61025ae37ef11b136ea224fe,,,,,,,,,2967,88.51049805,-40.55737305,1,0,0,response3disk,,5,4.900878906,-0.13293457,1,0,0,rectangle,93.4677124,-52.81561279,1,0,0,15.41717529,-0.696166992,1,0,0,0,122,122,34,1,,response3disk_3,TRUE,5,5,"[123,155,209,35,241,52,264,72,211,65,40,301,107,39,203,168,92,4,212,7]",1.1333,rectangle
,,,,,,,,,,,,,FF,,,,,,,,0.9995,,,,,,,,,,,,,,,,,,,,,,6102eb79ffcced89eefe3062,61036f6444814199a34e8c65,2021-07-29_22h19.59.538,Simcolourproject_2stim_asymm_v5,2020.2.10,MacIntel,60,61025ae37ef11b136ea224fe,,,,,,,,,585,91.65789795,53.84835815,1,0,0,response1disk,,6,3.807922363,-6.374572754,1,0,0,rectangle,3.807922363,-6.374572754,1,0,0,3.807922363,-6.374572754,1,0,0,0,123,123,69,1,,,,,,,,
,,,,,,,,,,,,,FF,,,,,,,,0.651,,,,,,,,,,,,,,,,,,,,,,6102eb79ffcced89eefe3062,61036f6444814199a34e8c65,2021-07-29_22h19.59.538,Simcolourproject_2stim_asymm_v5,2020.2.10,MacIntel,60,61025ae37ef11b136ea224fe,,,,,,,,,3490,79.82946777,45.1791687,1,0,0,response1disk,,6,-2.941772461,-3.015380859,1,0,0,rectangle,-2.941772461,-3.015380859,1,0,0,-2.941772461,-3.015380859,1,0,0,0,124,124,60,1,,,,,,,,
,,,,,,,,,,,,,FF,,,,,,,,0.6681,,,,,,,,,,,,,,,,,,,,,,6102eb79ffcced89eefe3062,61036f6444814199a34e8c65,2021-07-29_22h19.59.538,Simcolourproject_2stim_asymm_v5,2020.2.10,MacIntel,60,61025ae37ef11b136ea224fe,,,,,,,,,2845,78.79229736,-38.10913086,1,0,0,response3disk,,5,-3.114440918,6.216430664,1,0,0,rectangle,-3.114440918,6.216430664,1,0,0,-3.114440918,6.216430664,1,0,0,0,125,125,135,1,,,,,,,,
,,,,,,,,,,,,,FF,,,,,,,,0.8338,,,,,,,,,,,,,,,,,,,,,,6102eb79ffcced89eefe3062,61036f6444814199a34e8c65,2021-07-29_22h19.59.538,Simcolourproject_2stim_asymm_v5,2020.2.10,MacIntel,60,61025ae37ef11b136ea224fe,,,,,,,,,3850,-75.1887207,-46.83303833,1,0,0,response5disk,,2,-5.342895508,3.885925293,1,0,0,rectangle,-5.342895508,3.885925293,1,0,0,-5.342895508,3.885925293,1,0,0,0,126,126,130,1,,,,,,,,
,,,,,,,,,,,,,FF,,,,,,,,0.7004,,,,,,,,,,,,,,,,,,,,,,6102eb79ffcced89eefe3062,61036f6444814199a34e8c65,2021-07-29_22h19.59.538,Simcolourproject_2stim_asymm_v5,2020.2.10,MacIntel,60,61025ae37ef11b136ea224fe,,,,,,,,,2014,101.0506592,45.65368652,1,0,0,response1disk,,6,12.67736816,1.775817871,1,0,0,rectangle,12.67736816,1.775817871,1,0,0,12.67736816,1.775817871,1,0,0,0,127,127,30,1,,,,,,,,
,,,,,,,,,,,,,FF,,,,,,,,0.7152,,,,,,,,,,,,,,,,,,,,,,6102eb79ffcced89eefe3062,61036f6444814199a34e8c65,2021-07-29_22h19.59.538,Simcolourproject_2stim_asymm_v5,2020.2.10,MacIntel,60,61025ae37ef11b136ea224fe,,,,,,,,,3048,-79.39501953,30.1439209,1,0,0,response7disk,,1,-1.406616211,-1.794586182,1,0,0,rectangle,-1.406616211,-1.794586182,1,0,0,-1.406616211,-1.794586182,1,0,0,0,128,128,122,1,,,,,,,,
,,,,,,,,,,,,,FF,,,,,,,,0.8838,,,,,,,,,,,,,,,,,,,,,,6102eb79ffcced89eefe3062,61036f6444814199a34e8c65,2021-07-29_22h19.59.538,Simcolourproject_2stim_asymm_v5,2020.2.10,MacIntel,60,61025ae37ef11b136ea224fe,,,,,,,,,453,79.21923828,40.61541748,1,0,0,response1disk,,6,-5.624511719,-3.856567383,1,0,0,rectangle,-5.624511719,-3.856567383,1,0,0,-5.624511719,-3.856567383,1,0,0,0,129,129,103,1,,,,,,,,
,,,,,,,,,,,,,FF,,,,,,,,1.2327,,,,,,,,,,,,,,,,,,,,,,6102eb79ffcced89eefe3062,61036f6444814199a34e8c65,2021-07-29_22h19.59.538,Simcolourproject_2stim_asymm_v5,2020.2.10,MacIntel,60,61025ae37ef11b136ea224fe,,,,,,,,,2593,-81.96936035,-50.95935059,1,0,0,response5disk,,2,5.857543945,-2.395812988,1,0,0,rectangle,5.857543945,-2.395812988,1,0,0,5.857543945,-2.395812988,1,0,0,0,130,130,9,1,,,,,,,,
,,,,,,,,,,,,,FF,,,,,,,,0.7324,,,,,,,,,,,,,,,,,,,,,,6102eb79ffcced89eefe3062,61036f6444814199a34e8c65,2021-07-29_22h19.59.538,Simcolourproject_2stim_asymm_v5,2020.2.10,MacIntel,60,61025ae37ef11b136ea224fe,,,,,,,,,1339,98.15991211,42.52825928,1,0,0,response1disk,,6,2.404663086,-2.291778564,1,0,0,rectangle,2.404663086,-2.291778564,1,0,0,2.404663086,-2.291778564,1,0,0,0,131,131,155,1,,,,,,,,
,,,,,,,,,,,,,FF,,,,,,,,0.9506,,,,,,,,,,,,,,,,,,,,,,6102eb79ffcced89eefe3062,61036f6444814199a34e8c65,2021-07-29_22h19.59.538,Simcolourproject_2stim_asymm_v5,2020.2.10,MacIntel,60,61025ae37ef11b136ea224fe,,,,,,,,,4123,-39.01147461,-84.36315918,1,0,0,response5disk,,3,4.727966309,-9.324401855,1,0,0,rectangle,4.727966309,-9.324401855,1,0,0,4.727966309,-9.324401855,1,0,0,0,132,132,28,1,,,,,,,,
,,,,,,,,,,,,,FF,,,,,,,,0.6842,,,,,,,,,,,,,,,,,,,,,,6102eb79ffcced89eefe3062,61036f6444814199a34e8c65,2021-07-29_22h19.59.538,Simcolourproject_2stim_asymm_v5,2020.2.10,MacIntel,60,61025ae37ef11b136ea224fe,,,,,,,,,3051,-77.91992188,-32.36236572,1,0,0,response5disk,,2,-13.26177979,3.360290527,1,0,0,rectangle,-13.26177979,3.360290527,1,0,0,-13.26177979,3.360290527,1,0,0,0,133,133,48,1,,,,,,,,
,,,,,,,,,,,,,FF,,,,,,,,0.7621,,,,,,,,,,,,,,,,,,,,,,6102eb79ffcced89eefe3062,61036f6444814199a34e8c65,2021-07-29_22h19.59.538,Simcolourproject_2stim_asymm_v5,2020.2.10,MacIntel,60,61025ae37ef11b136ea224fe,,,,,,,,,3709,-77.12420654,-47.41967773,1,0,0,response5disk,,2,-0.23449707,-8.197631836,1,0,0,rectangle,-0.23449707,-8.197631836,1,0,0,-0.23449707,-8.197631836,1,0,0,0,134,134,74,1,,,,,,,,
,,,,,,,,,,,,,FF,,,,,,,,0.683,,,,,,,,,,,,,,,,,,,,,,6102eb79ffcced89eefe3062,61036f6444814199a34e8c65,2021-07-29_22h19.59.538,Simcolourproject_2stim_asymm_v5,2020.2.10,MacIntel,60,61025ae37ef11b136ea224fe,,,,,,,,,845,98.4654541,47.97283936,1,0,0,response1disk,,6,17.40570068,3.461578369,1,0,0,rectangle,17.40570068,3.461578369,1,0,0,17.40570068,3.461578369,1,0,0,0,135,135,33,1,,,,,,,,
,,,,,,,,,,,,,FF,,,,,,,,0.8335,,,,,,,,,,,,,,,,,,,,,,6102eb79ffcced89eefe3062,61036f6444814199a34e8c65,2021-07-29_22h19.59.538,Simcolourproject_2stim_asymm_v5,2020.2.10,MacIntel,60,61025ae37ef11b136ea224fe,,,,,,,,,3195,-48.94177246,75.47058105,1,0,0,response7disk,,0,-4.197814941,-1.235534668,1,0,0,rectangle,-4.197814941,-1.235534668,1,0,0,-4.197814941,-1.235534668,1,0,0,0,136,136,56,1,,,,,,,,
,,,,,,,,,,,,,FF,,,,,,,,1.3665,,,,,,,,,,,,,,,,,,,,,,6102eb79ffcced89eefe3062,61036f6444814199a34e8c65,2021-07-29_22h19.59.538,Simcolourproject_2stim_asymm_v5,2020.2.10,MacIntel,60,61025ae37ef11b136ea224fe,,,,,,,,,421,78.80523682,-58.14074707,1,0,0,response3disk,,5,10.69909668,-0.709777832,1,0,0,rectangle,10.69909668,-0.709777832,1,0,0,10.69909668,-0.709777832,1,0,0,0,137,137,23,1,,,,,,,,
,,,,,,,,,,,,,FF,,,,,,,,0.7512,,,,,,,,,,,,,,,,,,,,,,6102eb79ffcced89eefe3062,61036f6444814199a34e8c65,2021-07-29_22h19.59.538,Simcolourproject_2stim_asymm_v5,2020.2.10,MacIntel,60,61025ae37ef11b136ea224fe,,,,,,,,,689,99.76495361,46.54437256,1,0,0,response1disk,,6,-4.432983398,-8.457397461,1,0,0,rectangle,-4.432983398,-8.457397461,1,0,0,-4.432983398,-8.457397461,1,0,0,0,138,138,62,1,,,,,,,,
,,,,,,,,,,,,,FF,,,,,,,,0.5994,,,,,,,,,,,,,,,,,,,,,,6102eb79ffcced89eefe3062,61036f6444814199a34e8c65,2021-07-29_22h19.59.538,Simcolourproject_2stim_asymm_v5,2020.2.10,MacIntel,60,61025ae37ef11b136ea224fe,,,,,,,,,2437,73.65527344,48.58163452,1,0,0,response1disk,,6,0.791137695,0.393035889,1,0,0,rectangle,0.791137695,0.393035889,1,0,0,0.791137695,0.393035889,1,0,0,0,139,139,25,1,,,,,,,,
,,,,,,,,,,,,,FF,,,,,,,,1.0814,,,,,,,,,,,,,,,,,,,,,,6102eb79ffcced89eefe3062,61036f6444814199a34e8c65,2021-07-29_22h19.59.538,Simcolourproject_2stim_asymm_v5,2020.2.10,MacIntel,60,61025ae37ef11b136ea224fe,,,,,,,,,374,76.97619629,-45.57388306,1,0,0,response3disk,,5,7.32421875,0.398498535,1,0,0,rectangle,7.32421875,0.398498535,1,0,0,7.32421875,0.398498535,1,0,0,0,140,140,111,1,,,,,,,,
,,,,,,,,,,,,,FF,,,,,,,,0.6832,,,,,,,,,,,,,,,,,,,,,,6102eb79ffcced89eefe3062,61036f6444814199a34e8c65,2021-07-29_22h19.59.538,Simcolourproject_2stim_asymm_v5,2020.2.10,MacIntel,60,61025ae37ef11b136ea224fe,,,,,,,,,333,93.72296143,-46.45114136,1,0,0,response3disk,,5,11.85858154,-3.964050293,1,0,0,rectangle,11.85858154,-3.964050293,1,0,0,11.85858154,-3.964050293,1,0,0,0,141,141,145,1,,,,,,,,
,,,,,,,,,,,,,FF,,,,,,,,0.8498,,,,,,,,,,,,,,,,,,,,,,6102eb79ffcced89eefe3062,61036f6444814199a34e8c65,2021-07-29_22h19.59.538,Simcolourproject_2stim_asymm_v5,2020.2.10,MacIntel,60,61025ae37ef11b136ea224fe,,,,,,,,,911,88.7020874,37.8550415,1,0,0,response1disk,,6,2.23046875,-2.574951172,1,0,0,rectangle,2.23046875,-2.574951172,1,0,0,2.23046875,-2.574951172,1,0,0,0,142,142,29,1,,,,,,,,
,,,,,,,,,,,,,FF,,,,,,,,0.7008,,,,,,,,,,,,,,,,,,,,,,6102eb79ffcced89eefe3062,61036f6444814199a34e8c65,2021-07-29_22h19.59.538,Simcolourproject_2stim_asymm_v5,2020.2.10,MacIntel,60,61025ae37ef11b136ea224fe,,,,,,,,,3230,95.74237061,53.65045166,1,0,0,response1disk,,6,9.654541016,7.388427734,1,0,0,rectangle,9.654541016,7.388427734,1,0,0,9.654541016,7.388427734,1,0,0,0,143,143,120,1,,,,,,,,
,,,,,,,,,,,,,FF,,,,,,,,1.0333,,,,,,,,,,,,,,,,,,,,,,6102eb79ffcced89eefe3062,61036f6444814199a34e8c65,2021-07-29_22h19.59.538,Simcolourproject_2stim_asymm_v5,2020.2.10,MacIntel,60,61025ae37ef11b136ea224fe,,,,,,,,,560,89.07348633,-37.32733154,1,0,0,response3disk,,5,5.881286621,-10.07196045,1,0,0,rectangle,5.881286621,-10.07196045,1,0,0,5.881286621,-10.07196045,1,0,0,0,144,144,46,1,,,,,,,,
,,,,,,,,,,,,,FF,,,,,,,,0.7168,,,,,,,,,,,,,,,,,,,,,,6102eb79ffcced89eefe3062,61036f6444814199a34e8c65,2021-07-29_22h19.59.538,Simcolourproject_2stim_asymm_v5,2020.2.10,MacIntel,60,61025ae37ef11b136ea224fe,,,,,,,,,3173,86.41143799,-44.1517334,1,0,0,response3disk,,5,-0.956359863,-0.549743652,1,0,0,rectangle,-0.956359863,-0.549743652,1,0,0,-0.956359863,-0.549743652,1,0,0,0,145,145,138,1,,,,,,,,
,,,,,,,,,,,,,FF,,,,,,,,0.5821,,,,,,,,,,,,,,,,,,,,,,6102eb79ffcced89eefe3062,61036f6444814199a34e8c65,2021-07-29_22h19.59.538,Simcolourproject_2stim_asymm_v5,2020.2.10,MacIntel,60,61025ae37ef11b136ea224fe,,,,,,,,,604,84.9979248,41.68023682,1,0,0,response1disk,,6,3.127929688,-4.27633667,1,0,0,rectangle,3.127929688,-4.27633667,1,0,0,3.127929688,-4.27633667,1,0,0,0,146,146,57,1,,,,,,,,
,,,,,,,,,,,,,FF,,,,,,,,0.783,,,,,,,,,,,,,,,,,,,,,,6102eb79ffcced89eefe3062,61036f6444814199a34e8c65,2021-07-29_22h19.59.538,Simcolourproject_2stim_asymm_v5,2020.2.10,MacIntel,60,61025ae37ef11b136ea224fe,,,,,,,,,1374,-80.88220215,-27.00982666,1,0,0,response5disk,,2,-11.34753418,-2.810668945,1,0,0,rectangle,-11.34753418,-2.810668945,1,0,0,-11.34753418,-2.810668945,1,0,0,0,147,147,84,1,,,,,,,,
,,,,,,,,,,,,,FF,,,,,,,,0.8351,,,,,,,,,,,,,,,,,,,,,,6102eb79ffcced89eefe3062,61036f6444814199a34e8c65,2021-07-29_22h19.59.538,Simcolourproject_2stim_asymm_v5,2020.2.10,MacIntel,60,61025ae37ef11b136ea224fe,,,,,,,,,3328,-72.06195068,-32.35806274,1,0,0,response5disk,,2,-3.484619141,-3.976013184,1,0,0,rectangle,-3.484619141,-3.976013184,1,0,0,-3.484619141,-3.976013184,1,0,0,0,148,148,6,1,,,,,,,,
,,,,,,,,,,,,,FF,,,,,,,,0.8153,,,,,,,,,,,,,,,,,,,,,,6102eb79ffcced89eefe3062,61036f6444814199a34e8c65,2021-07-29_22h19.59.538,Simcolourproject_2stim_asymm_v5,2020.2.10,MacIntel,60,61025ae37ef11b136ea224fe,,,,,,,,,1551,-41.88824463,-94.09619141,1,0,0,response5disk,,3,5.813293457,-4.434783936,1,0,0,rectangle,5.813293457,-4.434783936,1,0,0,5.813293457,-4.434783936,1,0,0,0,149,149,112,1,,,,,,,,
,,,,,,,,,,,,,FF,,,,,,,,0.6663,,,,,,,,,,,,,,,,,,,,,,6102eb79ffcced89eefe3062,61036f6444814199a34e8c65,2021-07-29_22h19.59.538,Simcolourproject_2stim_asymm_v5,2020.2.10,MacIntel,60,61025ae37ef11b136ea224fe,,,,,,,,,334,86.38763428,-39.25616455,1,0,0,response3disk,,5,5.487976074,2.438262939,1,0,0,rectangle,5.487976074,2.438262939,1,0,0,5.487976074,2.438262939,1,0,0,0,150,150,102,1,,,,,,,,
,,,,,,,,,,,,,FF,,,,,,,,1.2665,,,,,,,,,,,,,,,,,,,,,,6102eb79ffcced89eefe3062,61036f6444814199a34e8c65,2021-07-29_22h19.59.538,Simcolourproject_2stim_asymm_v5,2020.2.10,MacIntel,60,61025ae37ef11b136ea224fe,,,,,,,,,980,-42.17016602,-83.65966797,1,0,0,response5disk,,3,-2.971374512,-10.22363281,1,0,0,rectangle,-2.971374512,-10.22363281,1,0,0,-2.971374512,-10.22363281,1,0,0,0,151,151,12,1,,,,,,,,
,,,,,,,,,,,,,FF,,,,,,,,1.2016,,,,,,,,,,,,,,,,,,,,,,6102eb79ffcced89eefe3062,61036f6444814199a34e8c65,2021-07-29_22h19.59.538,Simcolourproject_2stim_asymm_v5,2020.2.10,MacIntel,60,61025ae37ef11b136ea224fe,,,,,,,,,3687,-87.42089844,-43.50512695,1,0,0,response5disk,,2,13.66583252,11.39831543,1,0,0,rectangle,13.66583252,11.39831543,1,0,0,13.66583252,11.39831543,1,0,0,0,152,152,79,1,,,,,,,,
,,,,,,,,,,,,,FF,,,,,,,,1.5167,,,,,,,,,,,,,,,,,,,,,,6102eb79ffcced89eefe3062,61036f6444814199a34e8c65,2021-07-29_22h19.59.538,Simcolourproject_2stim_asymm_v5,2020.2.10,MacIntel,60,61025ae37ef11b136ea224fe,,,,,,,,,1379,-76.68597412,-38.0161438,1,0,0,response5disk,,2,12.28143311,6.562683105,1,0,0,rectangle,12.28143311,6.562683105,1,0,0,12.28143311,6.562683105,1,0,0,0,153,153,1,1,,,,,,,,
,,,,,,,,,,,,,FF,,,,,,,,6.2501,,,,,,,,,,,,,,,,,,,,,,6102eb79ffcced89eefe3062,61036f6444814199a34e8c65,2021-07-29_22h19.59.538,Simcolourproject_2stim_asymm_v5,2020.2.10,MacIntel,60,61025ae37ef11b136ea224fe,,,,,,,,,3446,-98.43133545,-51.26281738,1,0,0,response5disk,,2,8.541687012,0.976196289,1,0,0,rectangle,-45.09545898,89.63189697,1,0,0,1.188720703,-2.250305176,1,0,0,0,154,154,119,1,,response7disk_3,TRUE,0,0,"[123,155,209,35,241,52,264,72,211,65,40,301,107,39,203,168,92,4,212,7]",1.9501,rectangle
,,,,,,,,,,,,,FF,,,,,,,,0.7156,,,,,,,,,,,,,,,,,,,,,,6102eb79ffcced89eefe3062,61036f6444814199a34e8c65,2021-07-29_22h19.59.538,Simcolourproject_2stim_asymm_v5,2020.2.10,MacIntel,60,61025ae37ef11b136ea224fe,,,,,,,,,372,-76.92236328,-41.30661011,1,0,0,response5disk,,2,-3.921508789,-2.43447876,1,0,0,rectangle,-3.921508789,-2.43447876,1,0,0,-3.921508789,-2.43447876,1,0,0,0,155,155,97,1,,,,,,,,
,,,,,,,,,,,,,FF,,,,,,,,0.5667,,,,,,,,,,,,,,,,,,,,,,6102eb79ffcced89eefe3062,61036f6444814199a34e8c65,2021-07-29_22h19.59.538,Simcolourproject_2stim_asymm_v5,2020.2.10,MacIntel,60,61025ae37ef11b136ea224fe,,,,,,,,,383,-79.94482422,-58.97348022,1,0,0,response5disk,,2,1.613586426,-8.615722656,1,0,0,rectangle,1.613586426,-8.615722656,1,0,0,1.613586426,-8.615722656,1,0,0,0,156,156,82,1,,,,,,,,
,,,,,,,,,,,,,FF,,,,,,,,0.8165,,,,,,,,,,,,,,,,,,,,,,6102eb79ffcced89eefe3062,61036f6444814199a34e8c65,2021-07-29_22h19.59.538,Simcolourproject_2stim_asymm_v5,2020.2.10,MacIntel,60,61025ae37ef11b136ea224fe,,,,,,,,,3489,-73.93078613,-50.01879883,1,0,0,response5disk,,2,-2.429382324,-0.164855957,1,0,0,rectangle,-2.429382324,-0.164855957,1,0,0,-2.429382324,-0.164855957,1,0,0,0,157,157,150,1,,,,,,,,
,,,,,,,,,,,,,FF,,,,,,,,0.6481,,,,,,,,,,,,,,,,,,,,,,6102eb79ffcced89eefe3062,61036f6444814199a34e8c65,2021-07-29_22h19.59.538,Simcolourproject_2stim_asymm_v5,2020.2.10,MacIntel,60,61025ae37ef11b136ea224fe,,,,,,,,,4133,79.487854,-32.05999756,1,0,0,response3disk,,5,7.53503418,-3.882171631,1,0,0,rectangle,7.53503418,-3.882171631,1,0,0,7.53503418,-3.882171631,1,0,0,0,158,158,151,1,,,,,,,,
,,,,,,,,,,,,,FF,,,,,,,,0.6653,,,,,,,,,,,,,,,,,,,,,,6102eb79ffcced89eefe3062,61036f6444814199a34e8c65,2021-07-29_22h19.59.538,Simcolourproject_2stim_asymm_v5,2020.2.10,MacIntel,60,61025ae37ef11b136ea224fe,,,,,,,,,3483,102.1260986,37.38970947,1,0,0,response1disk,,6,0.750366211,-6.009216309,1,0,0,rectangle,0.750366211,-6.009216309,1,0,0,0.750366211,-6.009216309,1,0,0,0,159,159,156,1,,,,,,,,
,,,,,,,,,,,,,FF,,,,,,,,1.5697,,,,,,,,,,,,,,,,,,,,,,6102eb79ffcced89eefe3062,61036f6444814199a34e8c65,2021-07-29_22h19.59.538,Simcolourproject_2stim_asymm_v5,2020.2.10,MacIntel,60,61025ae37ef11b136ea224fe,,,,,,,,,1127,89.75799561,-55.875,1,0,0,response3disk,,5,7.473266602,-3.099853516,1,0,0,rectangle,7.473266602,-3.099853516,1,0,0,7.473266602,-3.099853516,1,0,0,1,0,160,139,1,,,,,,,,
,,,,,,,,,,,,,FF,,,,,,,,0.9334,,,,,,,,,,,,,,,,,,,,,,6102eb79ffcced89eefe3062,61036f6444814199a34e8c65,2021-07-29_22h19.59.538,Simcolourproject_2stim_asymm_v5,2020.2.10,MacIntel,60,61025ae37ef11b136ea224fe,,,,,,,,,1349,91.85339355,33.41693115,1,0,0,response1disk,,6,-3.630493164,-2.793273926,1,0,0,rectangle,-3.630493164,-2.793273926,1,0,0,-3.630493164,-2.793273926,1,0,0,1,1,161,155,1,,,,,,,,
,,,,,,,,,,,,,FF,,,,,,,,0.9324,,,,,,,,,,,,,,,,,,,,,,6102eb79ffcced89eefe3062,61036f6444814199a34e8c65,2021-07-29_22h19.59.538,Simcolourproject_2stim_asymm_v5,2020.2.10,MacIntel,60,61025ae37ef11b136ea224fe,,,,,,,,,364,97.31121826,35.40893555,1,0,0,response1disk,,6,-0.908691406,-7.944519043,1,0,0,rectangle,-0.908691406,-7.944519043,1,0,0,-0.908691406,-7.944519043,1,0,0,1,2,162,4,1,,,,,,,,
,,,,,,,,,,,,,FF,,,,,,,,0.718,,,,,,,,,,,,,,,,,,,,,,6102eb79ffcced89eefe3062,61036f6444814199a34e8c65,2021-07-29_22h19.59.538,Simcolourproject_2stim_asymm_v5,2020.2.10,MacIntel,60,61025ae37ef11b136ea224fe,,,,,,,,,3849,-87.00872803,-33.72155762,1,0,0,response5disk,,2,10.65570068,3.647705078,1,0,0,rectangle,10.65570068,3.647705078,1,0,0,10.65570068,3.647705078,1,0,0,1,3,163,14,1,,,,,,,,
,,,,,,,,,,,,,FF,,,,,,,,0.7538,,,,,,,,,,,,,,,,,,,,,,6102eb79ffcced89eefe3062,61036f6444814199a34e8c65,2021-07-29_22h19.59.538,Simcolourproject_2stim_asymm_v5,2020.2.10,MacIntel,60,61025ae37ef11b136ea224fe,,,,,,,,,3110,87.82006836,-28.32366943,1,0,0,response3disk,,5,-4.50390625,-0.129089355,1,0,0,rectangle,-4.50390625,-0.129089355,1,0,0,-4.50390625,-0.129089355,1,0,0,1,4,164,119,1,,,,,,,,
,,,,,,,,,,,,,FF,,,,,,,,0.816,,,,,,,,,,,,,,,,,,,,,,6102eb79ffcced89eefe3062,61036f6444814199a34e8c65,2021-07-29_22h19.59.538,Simcolourproject_2stim_asymm_v5,2020.2.10,MacIntel,60,61025ae37ef11b136ea224fe,,,,,,,,,264,-66.83642578,25.20050049,1,0,0,response7disk,,1,-4.990356445,-0.4637146,1,0,0,rectangle,-4.990356445,-0.4637146,1,0,0,-4.990356445,-0.4637146,1,0,0,1,5,165,59,1,,,,,,,,
,,,,,,,,,,,,,FF,,,,,,,,1.2009,,,,,,,,,,,,,,,,,,,,,,6102eb79ffcced89eefe3062,61036f6444814199a34e8c65,2021-07-29_22h19.59.538,Simcolourproject_2stim_asymm_v5,2020.2.10,MacIntel,60,61025ae37ef11b136ea224fe,,,,,,,,,3756,86.03234863,40.06573486,1,0,0,response1disk,,6,-10.17578125,2.450805664,1,0,0,rectangle,-10.17578125,2.450805664,1,0,0,-10.17578125,2.450805664,1,0,0,1,6,166,151,1,,,,,,,,
,,,,,,,,,,,,,FF,,,,,,,,0.8172,,,,,,,,,,,,,,,,,,,,,,6102eb79ffcced89eefe3062,61036f6444814199a34e8c65,2021-07-29_22h19.59.538,Simcolourproject_2stim_asymm_v5,2020.2.10,MacIntel,60,61025ae37ef11b136ea224fe,,,,,,,,,617,-92.29992676,-52.36651611,1,0,0,response5disk,,2,-1.444885254,4.140014648,1,0,0,rectangle,81.50354004,-50.56820679,1,0,0,10.34777832,-9.72644043,1,0,0,1,7,167,99,1,,response3disk_3,TRUE,5,5,"[123,155,209,35,241,52,264,72,211,65,40,301,107,39,203,168,92,4,212,7]",1.0492,rectangle
,,,,,,,,,,,,,FF,,,,,,,,1.1154,,,,,,,,,,,,,,,,,,,,,,6102eb79ffcced89eefe3062,61036f6444814199a34e8c65,2021-07-29_22h19.59.538,Simcolourproject_2stim_asymm_v5,2020.2.10,MacIntel,60,61025ae37ef11b136ea224fe,,,,,,,,,1516,-30.50067139,-82.4630127,1,0,0,response5disk,,3,0.678588867,7.49520874,1,0,0,rectangle,0.678588867,7.49520874,1,0,0,0.678588867,7.49520874,1,0,0,1,8,168,97,1,,,,,,,,
,,,,,,,,,,,,,FF,,,,,,,,0.8998,,,,,,,,,,,,,,,,,,,,,,6102eb79ffcced89eefe3062,61036f6444814199a34e8c65,2021-07-29_22h19.59.538,Simcolourproject_2stim_asymm_v5,2020.2.10,MacIntel,60,61025ae37ef11b136ea224fe,,,,,,,,,3374,-82.51452637,34.98175049,1,0,0,response7disk,,1,-3.692993164,0.361572266,1,0,0,rectangle,-3.692993164,0.361572266,1,0,0,-3.692993164,0.361572266,1,0,0,1,9,169,109,1,,,,,,,,
,,,,,,,,,,,,,FF,,,,,,,,0.7342,,,,,,,,,,,,,,,,,,,,,,6102eb79ffcced89eefe3062,61036f6444814199a34e8c65,2021-07-29_22h19.59.538,Simcolourproject_2stim_asymm_v5,2020.2.10,MacIntel,60,61025ae37ef11b136ea224fe,,,,,,,,,3531,102.392395,34.4793396,1,0,0,response1disk,,6,-1.120544434,-5.647033691,1,0,0,rectangle,-1.120544434,-5.647033691,1,0,0,-1.120544434,-5.647033691,1,0,0,1,10,170,130,1,,,,,,,,
,,,,,,,,,,,,,FF,,,,,,,,0.8833,,,,,,,,,,,,,,,,,,,,,,6102eb79ffcced89eefe3062,61036f6444814199a34e8c65,2021-07-29_22h19.59.538,Simcolourproject_2stim_asymm_v5,2020.2.10,MacIntel,60,61025ae37ef11b136ea224fe,,,,,,,,,1617,-84.2130127,-54.08575439,1,0,0,response5disk,,2,-4.875549316,-9.747070313,1,0,0,rectangle,-4.875549316,-9.747070313,1,0,0,-4.875549316,-9.747070313,1,0,0,1,11,171,56,1,,,,,,,,
,,,,,,,,,,,,,FF,,,,,,,,0.8152,,,,,,,,,,,,,,,,,,,,,,6102eb79ffcced89eefe3062,61036f6444814199a34e8c65,2021-07-29_22h19.59.538,Simcolourproject_2stim_asymm_v5,2020.2.10,MacIntel,60,61025ae37ef11b136ea224fe,,,,,,,,,3571,89.35827637,38.77630615,1,0,0,response1disk,,6,10.32019043,2.09463501,1,0,0,rectangle,10.32019043,2.09463501,1,0,0,10.32019043,2.09463501,1,0,0,1,12,172,152,1,,,,,,,,
,,,,,,,,,,,,,FF,,,,,,,,0.9162,,,,,,,,,,,,,,,,,,,,,,6102eb79ffcced89eefe3062,61036f6444814199a34e8c65,2021-07-29_22h19.59.538,Simcolourproject_2stim_asymm_v5,2020.2.10,MacIntel,60,61025ae37ef11b136ea224fe,,,,,,,,,3732,56.6819458,101.4051514,1,0,0,response1disk,,7,-7.190917969,-1.266906738,1,0,0,rectangle,-7.190917969,-1.266906738,1,0,0,-7.190917969,-1.266906738,1,0,0,1,13,173,88,1,,,,,,,,
,,,,,,,,,,,,,FF,,,,,,,,0.9292,,,,,,,,,,,,,,,,,,,,,,6102eb79ffcced89eefe3062,61036f6444814199a34e8c65,2021-07-29_22h19.59.538,Simcolourproject_2stim_asymm_v5,2020.2.10,MacIntel,60,61025ae37ef11b136ea224fe,,,,,,,,,3499,-80.74475098,29.72528076,1,0,0,response7disk,,1,-21.4979248,0.210418701,1,0,0,rectangle,-21.4979248,0.210418701,1,0,0,-21.4979248,0.210418701,1,0,0,1,14,174,5,1,,,,,,,,
,,,,,,,,,,,,,FF,,,,,,,,1.0326,,,,,,,,,,,,,,,,,,,,,,6102eb79ffcced89eefe3062,61036f6444814199a34e8c65,2021-07-29_22h19.59.538,Simcolourproject_2stim_asymm_v5,2020.2.10,MacIntel,60,61025ae37ef11b136ea224fe,,,,,,,,,1785,-48.4005127,-97.19390869,1,0,0,response5disk,,3,18.28088379,6.670532227,1,0,0,rectangle,18.28088379,6.670532227,1,0,0,18.28088379,6.670532227,1,0,0,1,15,175,17,1,,,,,,,,
,,,,,,,,,,,,,FF,,,,,,,,0.6994,,,,,,,,,,,,,,,,,,,,,,6102eb79ffcced89eefe3062,61036f6444814199a34e8c65,2021-07-29_22h19.59.538,Simcolourproject_2stim_asymm_v5,2020.2.10,MacIntel,60,61025ae37ef11b136ea224fe,,,,,,,,,2765,88.0793457,-44.97909546,1,0,0,response3disk,,5,-3.374450684,-4.639160156,1,0,0,rectangle,-3.374450684,-4.639160156,1,0,0,-3.374450684,-4.639160156,1,0,0,1,16,176,113,1,,,,,,,,
,,,,,,,,,,,,,FF,,,,,,,,1.1835,,,,,,,,,,,,,,,,,,,,,,6102eb79ffcced89eefe3062,61036f6444814199a34e8c65,2021-07-29_22h19.59.538,Simcolourproject_2stim_asymm_v5,2020.2.10,MacIntel,60,61025ae37ef11b136ea224fe,,,,,,,,,661,84.28106689,48.7845459,1,0,0,response1disk,,6,8.631713867,-6.016265869,1,0,0,rectangle,8.631713867,-6.016265869,1,0,0,8.631713867,-6.016265869,1,0,0,1,17,177,69,1,,,,,,,,
,,,,,,,,,,,,,FF,,,,,,,,0.7171,,,,,,,,,,,,,,,,,,,,,,6102eb79ffcced89eefe3062,61036f6444814199a34e8c65,2021-07-29_22h19.59.538,Simcolourproject_2stim_asymm_v5,2020.2.10,MacIntel,60,61025ae37ef11b136ea224fe,,,,,,,,,1927,85.81951904,35.30038452,1,0,0,response1disk,,6,-2.872436523,-3.974182129,1,0,0,rectangle,-2.872436523,-3.974182129,1,0,0,-2.872436523,-3.974182129,1,0,0,1,18,178,26,1,,,,,,,,
,,,,,,,,,,,,,FF,,,,,,,,0.7503,,,,,,,,,,,,,,,,,,,,,,6102eb79ffcced89eefe3062,61036f6444814199a34e8c65,2021-07-29_22h19.59.538,Simcolourproject_2stim_asymm_v5,2020.2.10,MacIntel,60,61025ae37ef11b136ea224fe,,,,,,,,,4162,-71.36071777,-45.99304199,1,0,0,response5disk,,2,1.873657227,6.272155762,1,0,0,rectangle,1.873657227,6.272155762,1,0,0,1.873657227,6.272155762,1,0,0,1,19,179,24,1,,,,,,,,
,,,,,,,,,,,,,FF,,,,,,,,0.9338,,,,,,,,,,,,,,,,,,,,,,6102eb79ffcced89eefe3062,61036f6444814199a34e8c65,2021-07-29_22h19.59.538,Simcolourproject_2stim_asymm_v5,2020.2.10,MacIntel,60,61025ae37ef11b136ea224fe,,,,,,,,,771,86.65032959,-40.62023926,1,0,0,response3disk,,5,2.54309082,-7.088623047,1,0,0,rectangle,2.54309082,-7.088623047,1,0,0,2.54309082,-7.088623047,1,0,0,1,20,180,22,1,,,,,,,,
,,,,,,,,,,,,,FF,,,,,,,,0.9511,,,,,,,,,,,,,,,,,,,,,,6102eb79ffcced89eefe3062,61036f6444814199a34e8c65,2021-07-29_22h19.59.538,Simcolourproject_2stim_asymm_v5,2020.2.10,MacIntel,60,61025ae37ef11b136ea224fe,,,,,,,,,1436,57.20355225,82.42111206,1,0,0,response1disk,,7,14.15380859,-1.29876709,1,0,0,rectangle,14.15380859,-1.29876709,1,0,0,14.15380859,-1.29876709,1,0,0,1,21,181,50,1,,,,,,,,
,,,,,,,,,,,,,FF,,,,,,,,1.5835,,,,,,,,,,,,,,,,,,,,,,6102eb79ffcced89eefe3062,61036f6444814199a34e8c65,2021-07-29_22h19.59.538,Simcolourproject_2stim_asymm_v5,2020.2.10,MacIntel,60,61025ae37ef11b136ea224fe,,,,,,,,,1153,-72.65692139,40.74642944,1,0,0,response7disk,,1,-5.724121094,1.778625488,1,0,0,rectangle,-5.724121094,1.778625488,1,0,0,-5.724121094,1.778625488,1,0,0,1,22,182,153,1,,,,,,,,
,,,,,,,,,,,,,FF,,,,,,,,0.9503,,,,,,,,,,,,,,,,,,,,,,6102eb79ffcced89eefe3062,61036f6444814199a34e8c65,2021-07-29_22h19.59.538,Simcolourproject_2stim_asymm_v5,2020.2.10,MacIntel,60,61025ae37ef11b136ea224fe,,,,,,,,,4046,-44.70800781,65.51367188,1,0,0,response7disk,,0,-6.512451172,-1.045166016,1,0,0,rectangle,-6.512451172,-1.045166016,1,0,0,-6.512451172,-1.045166016,1,0,0,1,23,183,106,1,,,,,,,,
,,,,,,,,,,,,,FF,,,,,,,,1.0003,,,,,,,,,,,,,,,,,,,,,,6102eb79ffcced89eefe3062,61036f6444814199a34e8c65,2021-07-29_22h19.59.538,Simcolourproject_2stim_asymm_v5,2020.2.10,MacIntel,60,61025ae37ef11b136ea224fe,,,,,,,,,3404,-87.75079346,-46.38104248,1,0,0,response5disk,,2,-13.74914551,-1.832519531,1,0,0,rectangle,-13.74914551,-1.832519531,1,0,0,-13.74914551,-1.832519531,1,0,0,1,24,184,124,1,,,,,,,,
,,,,,,,,,,,,,FF,,,,,,,,1.1999,,,,,,,,,,,,,,,,,,,,,,6102eb79ffcced89eefe3062,61036f6444814199a34e8c65,2021-07-29_22h19.59.538,Simcolourproject_2stim_asymm_v5,2020.2.10,MacIntel,60,61025ae37ef11b136ea224fe,,,,,,,,,3653,-75.31036377,-44.3026123,1,0,0,response5disk,,2,-1.559143066,3.165039063,1,0,0,rectangle,-1.559143066,3.165039063,1,0,0,-1.559143066,3.165039063,1,0,0,1,25,185,123,1,,,,,,,,
,,,,,,,,,,,,,FF,,,,,,,,1.1651,,,,,,,,,,,,,,,,,,,,,,6102eb79ffcced89eefe3062,61036f6444814199a34e8c65,2021-07-29_22h19.59.538,Simcolourproject_2stim_asymm_v5,2020.2.10,MacIntel,60,61025ae37ef11b136ea224fe,,,,,,,,,2774,87.85784912,43.54013062,1,0,0,response1disk,,6,2.866943359,3.116149902,1,0,0,rectangle,2.866943359,3.116149902,1,0,0,2.866943359,3.116149902,1,0,0,1,26,186,62,1,,,,,,,,
,,,,,,,,,,,,,FF,,,,,,,,0.9001,,,,,,,,,,,,,,,,,,,,,,6102eb79ffcced89eefe3062,61036f6444814199a34e8c65,2021-07-29_22h19.59.538,Simcolourproject_2stim_asymm_v5,2020.2.10,MacIntel,60,61025ae37ef11b136ea224fe,,,,,,,,,753,90.60430908,35.737854,1,0,0,response1disk,,6,0.506652832,-4.414306641,1,0,0,rectangle,0.506652832,-4.414306641,1,0,0,0.506652832,-4.414306641,1,0,0,1,27,187,71,1,,,,,,,,
,,,,,,,,,,,,,FF,,,,,,,,0.7502,,,,,,,,,,,,,,,,,,,,,,6102eb79ffcced89eefe3062,61036f6444814199a34e8c65,2021-07-29_22h19.59.538,Simcolourproject_2stim_asymm_v5,2020.2.10,MacIntel,60,61025ae37ef11b136ea224fe,,,,,,,,,1553,86.10308838,-24.05725098,1,0,0,response3disk,,5,-2.890258789,4.587646484,1,0,0,rectangle,-2.890258789,4.587646484,1,0,0,-2.890258789,4.587646484,1,0,0,1,28,188,10,1,,,,,,,,
,,,,,,,,,,,,,FF,,,,,,,,1.1019,,,,,,,,,,,,,,,,,,,,,,6102eb79ffcced89eefe3062,61036f6444814199a34e8c65,2021-07-29_22h19.59.538,Simcolourproject_2stim_asymm_v5,2020.2.10,MacIntel,60,61025ae37ef11b136ea224fe,,,,,,,,,1063,-39.5859375,-85.66784668,1,0,0,response5disk,,3,0.684204102,4.030303955,1,0,0,rectangle,0.684204102,4.030303955,1,0,0,0.684204102,4.030303955,1,0,0,1,29,189,53,1,,,,,,,,
,,,,,,,,,,,,,FF,,,,,,,,1.6681,,,,,,,,,,,,,,,,,,,,,,6102eb79ffcced89eefe3062,61036f6444814199a34e8c65,2021-07-29_22h19.59.538,Simcolourproject_2stim_asymm_v5,2020.2.10,MacIntel,60,61025ae37ef11b136ea224fe,,,,,,,,,3148,-86.80834961,-37.1031189,1,0,0,response5disk,,2,3.197998047,0.908050537,1,0,0,rectangle,3.197998047,0.908050537,1,0,0,3.197998047,0.908050537,1,0,0,1,30,190,29,1,,,,,,,,
,,,,,,,,,,,,,FF,,,,,,,,1.0341,,,,,,,,,,,,,,,,,,,,,,6102eb79ffcced89eefe3062,61036f6444814199a34e8c65,2021-07-29_22h19.59.538,Simcolourproject_2stim_asymm_v5,2020.2.10,MacIntel,60,61025ae37ef11b136ea224fe,,,,,,,,,999,-42.14361572,-93.58508301,1,0,0,response5disk,,3,-1.042358398,-7.212188721,1,0,0,rectangle,-1.042358398,-7.212188721,1,0,0,-1.042358398,-7.212188721,1,0,0,1,31,191,54,1,,,,,,,,
,,,,,,,,,,,,,FF,,,,,,,,1.1174,,,,,,,,,,,,,,,,,,,,,,6102eb79ffcced89eefe3062,61036f6444814199a34e8c65,2021-07-29_22h19.59.538,Simcolourproject_2stim_asymm_v5,2020.2.10,MacIntel,60,61025ae37ef11b136ea224fe,,,,,,,,,2575,54.46643066,79.68084717,1,0,0,response1disk,,7,14.29797363,-0.853790283,1,0,0,rectangle,14.29797363,-0.853790283,1,0,0,14.29797363,-0.853790283,1,0,0,1,32,192,132,1,,,,,,,,
,,,,,,,,,,,,,FF,,,,,,,,1.0853,,,,,,,,,,,,,,,,,,,,,,6102eb79ffcced89eefe3062,61036f6444814199a34e8c65,2021-07-29_22h19.59.538,Simcolourproject_2stim_asymm_v5,2020.2.10,MacIntel,60,61025ae37ef11b136ea224fe,,,,,,,,,2822,44.56555176,81.5758667,1,0,0,response1disk,,7,12.48199463,3.398864746,1,0,0,rectangle,12.48199463,3.398864746,1,0,0,12.48199463,3.398864746,1,0,0,1,33,193,100,1,,,,,,,,
,,,,,,,,,,,,,FF,,,,,,,,1.0169,,,,,,,,,,,,,,,,,,,,,,6102eb79ffcced89eefe3062,61036f6444814199a34e8c65,2021-07-29_22h19.59.538,Simcolourproject_2stim_asymm_v5,2020.2.10,MacIntel,60,61025ae37ef11b136ea224fe,,,,,,,,,356,-90.98260498,-52.99737549,1,0,0,response5disk,,2,3.766967773,-1.576599121,1,0,0,rectangle,3.766967773,-1.576599121,1,0,0,3.766967773,-1.576599121,1,0,0,1,34,194,75,1,,,,,,,,
,,,,,,,,,,,,,FF,,,,,,,,0.984,,,,,,,,,,,,,,,,,,,,,,6102eb79ffcced89eefe3062,61036f6444814199a34e8c65,2021-07-29_22h19.59.538,Simcolourproject_2stim_asymm_v5,2020.2.10,MacIntel,60,61025ae37ef11b136ea224fe,,,,,,,,,4367,-74.73516846,41.5536499,1,0,0,response7disk,,1,-10.81512451,3.261474609,1,0,0,rectangle,-10.81512451,3.261474609,1,0,0,-10.81512451,3.261474609,1,0,0,1,35,195,85,1,,,,,,,,
,,,,,,,,,,,,,FF,,,,,,,,0.8509,,,,,,,,,,,,,,,,,,,,,,6102eb79ffcced89eefe3062,61036f6444814199a34e8c65,2021-07-29_22h19.59.538,Simcolourproject_2stim_asymm_v5,2020.2.10,MacIntel,60,61025ae37ef11b136ea224fe,,,,,,,,,1976,-58.48937988,-86.82250977,1,0,0,response5disk,,3,1.592651367,-7.255310059,1,0,0,rectangle,1.592651367,-7.255310059,1,0,0,1.592651367,-7.255310059,1,0,0,1,36,196,147,1,,,,,,,,
,,,,,,,,,,,,,FF,,,,,,,,1.0839,,,,,,,,,,,,,,,,,,,,,,6102eb79ffcced89eefe3062,61036f6444814199a34e8c65,2021-07-29_22h19.59.538,Simcolourproject_2stim_asymm_v5,2020.2.10,MacIntel,60,61025ae37ef11b136ea224fe,,,,,,,,,3828,-38.73138428,-90.62426758,1,0,0,response5disk,,3,-3.265991211,4.98260498,1,0,0,rectangle,-3.265991211,4.98260498,1,0,0,-3.265991211,4.98260498,1,0,0,1,37,197,8,1,,,,,,,,
,,,,,,,,,,,,,FF,,,,,,,,0.5665,,,,,,,,,,,,,,,,,,,,,,6102eb79ffcced89eefe3062,61036f6444814199a34e8c65,2021-07-29_22h19.59.538,Simcolourproject_2stim_asymm_v5,2020.2.10,MacIntel,60,61025ae37ef11b136ea224fe,,,,,,,,,599,71.87133789,-30.69152832,1,0,0,response3disk,,5,3.496520996,4.966308594,1,0,0,rectangle,3.496520996,4.966308594,1,0,0,3.496520996,4.966308594,1,0,0,1,38,198,21,1,,,,,,,,
,,,,,,,,,,,,,FF,,,,,,,,0.6174,,,,,,,,,,,,,,,,,,,,,,6102eb79ffcced89eefe3062,61036f6444814199a34e8c65,2021-07-29_22h19.59.538,Simcolourproject_2stim_asymm_v5,2020.2.10,MacIntel,60,61025ae37ef11b136ea224fe,,,,,,,,,307,89.31005859,42.48641968,1,0,0,response1disk,,6,-0.034729004,-1.135559082,1,0,0,rectangle,-0.034729004,-1.135559082,1,0,0,-0.034729004,-1.135559082,1,0,0,1,39,199,114,1,,,,,,,,
,,,,,,,,,,,,,FF,,,,,,,,0.6166,,,,,,,,,,,,,,,,,,,,,,6102eb79ffcced89eefe3062,61036f6444814199a34e8c65,2021-07-29_22h19.59.538,Simcolourproject_2stim_asymm_v5,2020.2.10,MacIntel,60,61025ae37ef11b136ea224fe,,,,,,,,,3408,99.3104248,46.06723022,1,0,0,response1disk,,6,9.219055176,0.911621094,1,0,0,rectangle,9.219055176,0.911621094,1,0,0,9.219055176,0.911621094,1,0,0,1,40,200,49,1,,,,,,,,
,,,,,,,,,,,,,FF,,,,,,,,0.5666,,,,,,,,,,,,,,,,,,,,,,6102eb79ffcced89eefe3062,61036f6444814199a34e8c65,2021-07-29_22h19.59.538,Simcolourproject_2stim_asymm_v5,2020.2.10,MacIntel,60,61025ae37ef11b136ea224fe,,,,,,,,,1791,96.16943359,45.27597046,1,0,0,response1disk,,6,5.991638184,-2.780548096,1,0,0,rectangle,5.991638184,-2.780548096,1,0,0,5.991638184,-2.780548096,1,0,0,1,41,201,90,1,,,,,,,,
,,,,,,,,,,,,,FF,,,,,,,,0.5832,,,,,,,,,,,,,,,,,,,,,,6102eb79ffcced89eefe3062,61036f6444814199a34e8c65,2021-07-29_22h19.59.538,Simcolourproject_2stim_asymm_v5,2020.2.10,MacIntel,60,61025ae37ef11b136ea224fe,,,,,,,,,1027,73.46795654,-53.96697998,1,0,0,response3disk,,5,-3.052246094,-3.398651123,1,0,0,rectangle,51.47058105,-92.31835938,1,0,0,13.47039795,-2.484863281,1,0,0,1,42,202,107,1,,response3disk_3,TRUE,4,4,"[123,155,209,35,241,52,264,72,211,65,40,301,107,39,203,168,92,4,212,7]",1.4007,rectangle
,,,,,,,,,,,,,FF,,,,,,,,0.8324,,,,,,,,,,,,,,,,,,,,,,6102eb79ffcced89eefe3062,61036f6444814199a34e8c65,2021-07-29_22h19.59.538,Simcolourproject_2stim_asymm_v5,2020.2.10,MacIntel,60,61025ae37ef11b136ea224fe,,,,,,,,,1220,-75.59277344,-48.25027466,1,0,0,response5disk,,2,-6.403137207,1.576629639,1,0,0,rectangle,-6.403137207,1.576629639,1,0,0,-6.403137207,1.576629639,1,0,0,1,43,203,98,1,,,,,,,,
,,,,,,,,,,,,,FF,,,,,,,,0.705,,,,,,,,,,,,,,,,,,,,,,6102eb79ffcced89eefe3062,61036f6444814199a34e8c65,2021-07-29_22h19.59.538,Simcolourproject_2stim_asymm_v5,2020.2.10,MacIntel,60,61025ae37ef11b136ea224fe,,,,,,,,,3054,-80.61645508,-37.4866333,1,0,0,response5disk,,2,-3.274475098,6.831298828,1,0,0,rectangle,-3.274475098,6.831298828,1,0,0,-3.274475098,6.831298828,1,0,0,1,44,204,159,1,,,,,,,,
,,,,,,,,,,,,,FF,,,,,,,,0.6331,,,,,,,,,,,,,,,,,,,,,,6102eb79ffcced89eefe3062,61036f6444814199a34e8c65,2021-07-29_22h19.59.538,Simcolourproject_2stim_asymm_v5,2020.2.10,MacIntel,60,61025ae37ef11b136ea224fe,,,,,,,,,3586,-78.08129883,-33.40509033,1,0,0,response5disk,,2,-4.38684082,3.350769043,1,0,0,rectangle,-4.38684082,3.350769043,1,0,0,-4.38684082,3.350769043,1,0,0,1,45,205,136,1,,,,,,,,
,,,,,,,,,,,,,FF,,,,,,,,0.7834,,,,,,,,,,,,,,,,,,,,,,6102eb79ffcced89eefe3062,61036f6444814199a34e8c65,2021-07-29_22h19.59.538,Simcolourproject_2stim_asymm_v5,2020.2.10,MacIntel,60,61025ae37ef11b136ea224fe,,,,,,,,,4109,43.84405518,79.73284912,1,0,0,response1disk,,7,-0.302856445,-4.690002441,1,0,0,rectangle,-0.302856445,-4.690002441,1,0,0,-0.302856445,-4.690002441,1,0,0,1,46,206,61,1,,,,,,,,
,,,,,,,,,,,,,FF,,,,,,,,0.6823,,,,,,,,,,,,,,,,,,,,,,6102eb79ffcced89eefe3062,61036f6444814199a34e8c65,2021-07-29_22h19.59.538,Simcolourproject_2stim_asymm_v5,2020.2.10,MacIntel,60,61025ae37ef11b136ea224fe,,,,,,,,,480,82.15673828,39.70251465,1,0,0,response1disk,,6,-2.962341309,0.897521973,1,0,0,rectangle,-2.962341309,0.897521973,1,0,0,-2.962341309,0.897521973,1,0,0,1,47,207,36,1,,,,,,,,
,,,,,,,,,,,,,FF,,,,,,,,0.5997,,,,,,,,,,,,,,,,,,,,,,6102eb79ffcced89eefe3062,61036f6444814199a34e8c65,2021-07-29_22h19.59.538,Simcolourproject_2stim_asymm_v5,2020.2.10,MacIntel,60,61025ae37ef11b136ea224fe,,,,,,,,,2527,76.49639893,47.73461914,1,0,0,response1disk,,6,4.981933594,0.209716797,1,0,0,rectangle,78.8302002,-65.38018799,1,0,0,3.548095703,-1.33972168,1,0,0,1,48,208,42,1,,response3disk_3,TRUE,5,5,"[123,155,209,35,241,52,264,72,211,65,40,301,107,39,203,168,92,4,212,7]",1.0672,rectangle
,,,,,,,,,,,,,FF,,,,,,,,0.7672,,,,,,,,,,,,,,,,,,,,,,6102eb79ffcced89eefe3062,61036f6444814199a34e8c65,2021-07-29_22h19.59.538,Simcolourproject_2stim_asymm_v5,2020.2.10,MacIntel,60,61025ae37ef11b136ea224fe,,,,,,,,,4312,-81.88427734,-31.64196777,1,0,0,response5disk,,2,-6.256103516,4.212738037,1,0,0,rectangle,-6.256103516,4.212738037,1,0,0,-6.256103516,4.212738037,1,0,0,1,49,209,11,1,,,,,,,,
,,,,,,,,,,,,,FF,,,,,,,,0.8338,,,,,,,,,,,,,,,,,,,,,,6102eb79ffcced89eefe3062,61036f6444814199a34e8c65,2021-07-29_22h19.59.538,Simcolourproject_2stim_asymm_v5,2020.2.10,MacIntel,60,61025ae37ef11b136ea224fe,,,,,,,,,3310,92.83880615,47.13583374,1,0,0,response1disk,,6,7.592163086,-1.342041016,1,0,0,rectangle,38.51477051,-77.69116211,1,0,0,6.014038086,-1.779602051,1,0,0,1,50,210,35,1,,response3disk_3,TRUE,4,4,"[123,155,209,35,241,52,264,72,211,65,40,301,107,39,203,168,92,4,212,7]",1.151,rectangle
,,,,,,,,,,,,,FF,,,,,,,,0.7835,,,,,,,,,,,,,,,,,,,,,,6102eb79ffcced89eefe3062,61036f6444814199a34e8c65,2021-07-29_22h19.59.538,Simcolourproject_2stim_asymm_v5,2020.2.10,MacIntel,60,61025ae37ef11b136ea224fe,,,,,,,,,2113,-87.08532715,-51.94827271,1,0,0,response5disk,,2,13.14282227,6.665222168,1,0,0,rectangle,87.49084473,46.57781982,1,0,0,8.239501953,-3.938110352,1,0,0,1,51,211,64,1,,response1disk_3,TRUE,6,3,"[123,155,209,35,241,52,264,72,211,65,40,301,107,39,203,168,92,4,212,7]",3.8496,rectangle
,,,,,,,,,,,,,FF,,,,,,,,0.8348,,,,,,,,,,,,,,,,,,,,,,6102eb79ffcced89eefe3062,61036f6444814199a34e8c65,2021-07-29_22h19.59.538,Simcolourproject_2stim_asymm_v5,2020.2.10,MacIntel,60,61025ae37ef11b136ea224fe,,,,,,,,,4075,-85.46734619,-51.19445801,1,0,0,response5disk,,2,-3.547058105,-7.339538574,1,0,0,rectangle,-3.547058105,-7.339538574,1,0,0,-3.547058105,-7.339538574,1,0,0,1,52,212,83,1,,,,,,,,
,,,,,,,,,,,,,FF,,,,,,,,0.5825,,,,,,,,,,,,,,,,,,,,,,6102eb79ffcced89eefe3062,61036f6444814199a34e8c65,2021-07-29_22h19.59.538,Simcolourproject_2stim_asymm_v5,2020.2.10,MacIntel,60,61025ae37ef11b136ea224fe,,,,,,,,,2125,72.5255127,-27.56716919,1,0,0,response3disk,,5,4.746520996,-10.34790039,1,0,0,rectangle,4.746520996,-10.34790039,1,0,0,4.746520996,-10.34790039,1,0,0,1,53,213,143,1,,,,,,,,
,,,,,,,,,,,,,FF,,,,,,,,0.6495,,,,,,,,,,,,,,,,,,,,,,6102eb79ffcced89eefe3062,61036f6444814199a34e8c65,2021-07-29_22h19.59.538,Simcolourproject_2stim_asymm_v5,2020.2.10,MacIntel,60,61025ae37ef11b136ea224fe,,,,,,,,,2128,-74.69311523,-52.35668945,1,0,0,response5disk,,2,-11.87615967,1.26550293,1,0,0,rectangle,-11.87615967,1.26550293,1,0,0,-11.87615967,1.26550293,1,0,0,1,54,214,105,1,,,,,,,,
,,,,,,,,,,,,,FF,,,,,,,,3.0822,,,,,,,,,,,,,,,,,,,,,,6102eb79ffcced89eefe3062,61036f6444814199a34e8c65,2021-07-29_22h19.59.538,Simcolourproject_2stim_asymm_v5,2020.2.10,MacIntel,60,61025ae37ef11b136ea224fe,,,,,,,,,107,-41.68182373,-84.59484863,1,0,0,response5disk,,3,4.215026855,1.19519043,1,0,0,rectangle,4.215026855,1.19519043,1,0,0,4.215026855,1.19519043,1,0,0,1,55,215,86,1,,,,,,,,
,,,,,,,,,,,,,FF,,,,,,,,0.9176,,,,,,,,,,,,,,,,,,,,,,6102eb79ffcced89eefe3062,61036f6444814199a34e8c65,2021-07-29_22h19.59.538,Simcolourproject_2stim_asymm_v5,2020.2.10,MacIntel,60,61025ae37ef11b136ea224fe,,,,,,,,,3855,33.04412842,-73.99481201,1,0,0,response3disk,,4,7.732849121,-1.525817871,1,0,0,rectangle,7.732849121,-1.525817871,1,0,0,7.732849121,-1.525817871,1,0,0,1,56,216,48,1,,,,,,,,
,,,,,,,,,,,,,FF,,,,,,,,0.8339,,,,,,,,,,,,,,,,,,,,,,6102eb79ffcced89eefe3062,61036f6444814199a34e8c65,2021-07-29_22h19.59.538,Simcolourproject_2stim_asymm_v5,2020.2.10,MacIntel,60,61025ae37ef11b136ea224fe,,,,,,,,,213,46.89886475,-78.20709229,1,0,0,response3disk,,4,13.57623291,-8.564910889,1,0,0,rectangle,13.57623291,-8.564910889,1,0,0,13.57623291,-8.564910889,1,0,0,1,57,217,67,1,,,,,,,,
,,,,,,,,,,,,,FF,,,,,,,,0.9989,,,,,,,,,,,,,,,,,,,,,,6102eb79ffcced89eefe3062,61036f6444814199a34e8c65,2021-07-29_22h19.59.538,Simcolourproject_2stim_asymm_v5,2020.2.10,MacIntel,60,61025ae37ef11b136ea224fe,,,,,,,,,4360,-69.10803223,-75.65057373,1,0,0,response5disk,,3,-1.902893066,-2.370605469,1,0,0,rectangle,-1.902893066,-2.370605469,1,0,0,-1.902893066,-2.370605469,1,0,0,1,58,218,141,1,,,,,,,,
,,,,,,,,,,,,,FF,,,,,,,,1.1486,,,,,,,,,,,,,,,,,,,,,,6102eb79ffcced89eefe3062,61036f6444814199a34e8c65,2021-07-29_22h19.59.538,Simcolourproject_2stim_asymm_v5,2020.2.10,MacIntel,60,61025ae37ef11b136ea224fe,,,,,,,,,445,-78.27905273,30.36843872,1,0,0,response7disk,,1,3.461242676,-1.893890381,1,0,0,rectangle,3.461242676,-1.893890381,1,0,0,3.461242676,-1.893890381,1,0,0,1,59,219,96,1,,,,,,,,
,,,,,,,,,,,,,FF,,,,,,,,0.6333,,,,,,,,,,,,,,,,,,,,,,6102eb79ffcced89eefe3062,61036f6444814199a34e8c65,2021-07-29_22h19.59.538,Simcolourproject_2stim_asymm_v5,2020.2.10,MacIntel,60,61025ae37ef11b136ea224fe,,,,,,,,,3091,-79.79986572,38.64447021,1,0,0,response7disk,,1,-18.92279053,1.387207031,1,0,0,rectangle,-18.92279053,1.387207031,1,0,0,-18.92279053,1.387207031,1,0,0,1,60,220,142,1,,,,,,,,
,,,,,,,,,,,,,FF,,,,,,,,0.6341,,,,,,,,,,,,,,,,,,,,,,6102eb79ffcced89eefe3062,61036f6444814199a34e8c65,2021-07-29_22h19.59.538,Simcolourproject_2stim_asymm_v5,2020.2.10,MacIntel,60,61025ae37ef11b136ea224fe,,,,,,,,,4265,97.92425537,38.53451538,1,0,0,response1disk,,6,3.873962402,-3.77142334,1,0,0,rectangle,3.873962402,-3.77142334,1,0,0,3.873962402,-3.77142334,1,0,0,1,61,221,154,1,,,,,,,,
,,,,,,,,,,,,,FF,,,,,,,,0.8342,,,,,,,,,,,,,,,,,,,,,,6102eb79ffcced89eefe3062,61036f6444814199a34e8c65,2021-07-29_22h19.59.538,Simcolourproject_2stim_asymm_v5,2020.2.10,MacIntel,60,61025ae37ef11b136ea224fe,,,,,,,,,1488,101.4274292,49.6366272,1,0,0,response1disk,,6,-4.326904297,-9.719665527,1,0,0,rectangle,-4.326904297,-9.719665527,1,0,0,-4.326904297,-9.719665527,1,0,0,1,62,222,138,1,,,,,,,,
,,,,,,,,,,,,,FF,,,,,,,,1.0178,,,,,,,,,,,,,,,,,,,,,,6102eb79ffcced89eefe3062,61036f6444814199a34e8c65,2021-07-29_22h19.59.538,Simcolourproject_2stim_asymm_v5,2020.2.10,MacIntel,60,61025ae37ef11b136ea224fe,,,,,,,,,2622,-70.92089844,-50.19177246,1,0,0,response5disk,,2,-1.869018555,0.795166016,1,0,0,rectangle,-1.869018555,0.795166016,1,0,0,-1.869018555,0.795166016,1,0,0,1,63,223,133,1,,,,,,,,
,,,,,,,,,,,,,FF,,,,,,,,1.0677,,,,,,,,,,,,,,,,,,,,,,6102eb79ffcced89eefe3062,61036f6444814199a34e8c65,2021-07-29_22h19.59.538,Simcolourproject_2stim_asymm_v5,2020.2.10,MacIntel,60,61025ae37ef11b136ea224fe,,,,,,,,,2564,83.04833984,-43.9152832,1,0,0,response3disk,,5,-9.578552246,11.84130859,1,0,0,rectangle,-9.578552246,11.84130859,1,0,0,-9.578552246,11.84130859,1,0,0,1,64,224,158,1,,,,,,,,
,,,,,,,,,,,,,FF,,,,,,,,0.9342,,,,,,,,,,,,,,,,,,,,,,6102eb79ffcced89eefe3062,61036f6444814199a34e8c65,2021-07-29_22h19.59.538,Simcolourproject_2stim_asymm_v5,2020.2.10,MacIntel,60,61025ae37ef11b136ea224fe,,,,,,,,,4320,-44.1317749,-84.52697754,1,0,0,response5disk,,3,2.451049805,-1.428131104,1,0,0,rectangle,2.451049805,-1.428131104,1,0,0,2.451049805,-1.428131104,1,0,0,1,65,225,46,1,,,,,,,,
,,,,,,,,,,,,,FF,,,,,,,,0.8828,,,,,,,,,,,,,,,,,,,,,,6102eb79ffcced89eefe3062,61036f6444814199a34e8c65,2021-07-29_22h19.59.538,Simcolourproject_2stim_asymm_v5,2020.2.10,MacIntel,60,61025ae37ef11b136ea224fe,,,,,,,,,1746,-85.04406738,-40.31323242,1,0,0,response5disk,,2,9.15032959,0.837341309,1,0,0,rectangle,9.15032959,0.837341309,1,0,0,9.15032959,0.837341309,1,0,0,1,66,226,80,1,,,,,,,,
,,,,,,,,,,,,,FF,,,,,,,,0.7333,,,,,,,,,,,,,,,,,,,,,,6102eb79ffcced89eefe3062,61036f6444814199a34e8c65,2021-07-29_22h19.59.538,Simcolourproject_2stim_asymm_v5,2020.2.10,MacIntel,60,61025ae37ef11b136ea224fe,,,,,,,,,1662,-34.09069824,-81.38305664,1,0,0,response5disk,,3,2.124511719,-2.117706299,1,0,0,rectangle,2.124511719,-2.117706299,1,0,0,2.124511719,-2.117706299,1,0,0,1,67,227,15,1,,,,,,,,
,,,,,,,,,,,,,FF,,,,,,,,0.6825,,,,,,,,,,,,,,,,,,,,,,6102eb79ffcced89eefe3062,61036f6444814199a34e8c65,2021-07-29_22h19.59.538,Simcolourproject_2stim_asymm_v5,2020.2.10,MacIntel,60,61025ae37ef11b136ea224fe,,,,,,,,,214,81.92608643,-37.17782593,1,0,0,response3disk,,5,12.07043457,-0.532653809,1,0,0,rectangle,12.07043457,-0.532653809,1,0,0,12.07043457,-0.532653809,1,0,0,1,68,228,111,1,,,,,,,,
,,,,,,,,,,,,,FF,,,,,,,,0.5504,,,,,,,,,,,,,,,,,,,,,,6102eb79ffcced89eefe3062,61036f6444814199a34e8c65,2021-07-29_22h19.59.538,Simcolourproject_2stim_asymm_v5,2020.2.10,MacIntel,60,61025ae37ef11b136ea224fe,,,,,,,,,308,69.0725708,-44.63275146,1,0,0,response3disk,,5,1.526733398,-2.602661133,1,0,0,rectangle,1.526733398,-2.602661133,1,0,0,1.526733398,-2.602661133,1,0,0,1,69,229,121,1,,,,,,,,
,,,,,,,,,,,,,FF,,,,,,,,0.6835,,,,,,,,,,,,,,,,,,,,,,6102eb79ffcced89eefe3062,61036f6444814199a34e8c65,2021-07-29_22h19.59.538,Simcolourproject_2stim_asymm_v5,2020.2.10,MacIntel,60,61025ae37ef11b136ea224fe,,,,,,,,,3766,93.4798584,40.66009521,1,0,0,response1disk,,6,0.664367676,1.597473145,1,0,0,rectangle,0.664367676,1.597473145,1,0,0,0.664367676,1.597473145,1,0,0,1,70,230,110,1,,,,,,,,
,,,,,,,,,,,,,FF,,,,,,,,0.7502,,,,,,,,,,,,,,,,,,,,,,6102eb79ffcced89eefe3062,61036f6444814199a34e8c65,2021-07-29_22h19.59.538,Simcolourproject_2stim_asymm_v5,2020.2.10,MacIntel,60,61025ae37ef11b136ea224fe,,,,,,,,,299,80.70898438,-43.51123047,1,0,0,response3disk,,5,0.996582031,2.961273193,1,0,0,rectangle,0.996582031,2.961273193,1,0,0,0.996582031,2.961273193,1,0,0,1,71,231,129,1,,,,,,,,
,,,,,,,,,,,,,FF,,,,,,,,1.067,,,,,,,,,,,,,,,,,,,,,,6102eb79ffcced89eefe3062,61036f6444814199a34e8c65,2021-07-29_22h19.59.538,Simcolourproject_2stim_asymm_v5,2020.2.10,MacIntel,60,61025ae37ef11b136ea224fe,,,,,,,,,717,-48.77954102,76.44897461,1,0,0,response7disk,,0,-8.256958008,-1.869567871,1,0,0,rectangle,-8.256958008,-1.869567871,1,0,0,-8.256958008,-1.869567871,1,0,0,1,72,232,117,1,,,,,,,,
,,,,,,,,,,,,,FF,,,,,,,,0.7883,,,,,,,,,,,,,,,,,,,,,,6102eb79ffcced89eefe3062,61036f6444814199a34e8c65,2021-07-29_22h19.59.538,Simcolourproject_2stim_asymm_v5,2020.2.10,MacIntel,60,61025ae37ef11b136ea224fe,,,,,,,,,497,-40.38757324,-81.5,1,0,0,response5disk,,3,3.789306641,-1.138061523,1,0,0,rectangle,3.789306641,-1.138061523,1,0,0,3.789306641,-1.138061523,1,0,0,1,73,233,52,1,,,,,,,,
,,,,,,,,,,,,,FF,,,,,,,,1.7334,,,,,,,,,,,,,,,,,,,,,,6102eb79ffcced89eefe3062,61036f6444814199a34e8c65,2021-07-29_22h19.59.538,Simcolourproject_2stim_asymm_v5,2020.2.10,MacIntel,60,61025ae37ef11b136ea224fe,,,,,,,,,2984,-49.15814209,-67.44958496,1,0,0,response5disk,,3,-17.28674316,-3.366271973,1,0,0,rectangle,-17.28674316,-3.366271973,1,0,0,-17.28674316,-3.366271973,1,0,0,1,74,234,51,1,,,,,,,,
,,,,,,,,,,,,,FF,,,,,,,,0.8505,,,,,,,,,,,,,,,,,,,,,,6102eb79ffcced89eefe3062,61036f6444814199a34e8c65,2021-07-29_22h19.59.538,Simcolourproject_2stim_asymm_v5,2020.2.10,MacIntel,60,61025ae37ef11b136ea224fe,,,,,,,,,366,-43.90869141,65.83630371,1,0,0,response7disk,,0,-13.15087891,3.540374756,1,0,0,rectangle,-13.15087891,3.540374756,1,0,0,-13.15087891,3.540374756,1,0,0,1,75,235,28,1,,,,,,,,
,,,,,,,,,,,,,FF,,,,,,,,1.1327,,,,,,,,,,,,,,,,,,,,,,6102eb79ffcced89eefe3062,61036f6444814199a34e8c65,2021-07-29_22h19.59.538,Simcolourproject_2stim_asymm_v5,2020.2.10,MacIntel,60,61025ae37ef11b136ea224fe,,,,,,,,,2373,-36.72851563,-89.20428467,1,0,0,response5disk,,3,12.07861328,4.45300293,1,0,0,rectangle,12.07861328,4.45300293,1,0,0,12.07861328,4.45300293,1,0,0,1,76,236,38,1,,,,,,,,
,,,,,,,,,,,,,FF,,,,,,,,0.9502,,,,,,,,,,,,,,,,,,,,,,6102eb79ffcced89eefe3062,61036f6444814199a34e8c65,2021-07-29_22h19.59.538,Simcolourproject_2stim_asymm_v5,2020.2.10,MacIntel,60,61025ae37ef11b136ea224fe,,,,,,,,,2695,-32.76983643,74.26034546,1,0,0,response7disk,,0,-3.153930664,11.39630127,1,0,0,rectangle,-3.153930664,11.39630127,1,0,0,-3.153930664,11.39630127,1,0,0,1,77,237,33,1,,,,,,,,
,,,,,,,,,,,,,FF,,,,,,,,19.0829,,,,,,,,,,,,,,,,,,,,,,6102eb79ffcced89eefe3062,61036f6444814199a34e8c65,2021-07-29_22h19.59.538,Simcolourproject_2stim_asymm_v5,2020.2.10,MacIntel,60,61025ae37ef11b136ea224fe,,,,,,,,,3086,-33.32434082,-95.60797119,1,0,0,response5disk,,3,-0.898681641,-2.157745361,1,0,0,rectangle,-0.898681641,-2.157745361,1,0,0,-0.898681641,-2.157745361,1,0,0,1,78,238,82,1,,,,,,,,
,,,,,,,,,,,,,FF,,,,,,,,0.7668,,,,,,,,,,,,,,,,,,,,,,6102eb79ffcced89eefe3062,61036f6444814199a34e8c65,2021-07-29_22h19.59.538,Simcolourproject_2stim_asymm_v5,2020.2.10,MacIntel,60,61025ae37ef11b136ea224fe,,,,,,,,,2681,-39.12158203,-93.671875,1,0,0,response5disk,,3,10.30041504,8.46005249,1,0,0,rectangle,10.30041504,8.46005249,1,0,0,10.30041504,8.46005249,1,0,0,1,79,239,78,1,,,,,,,,
