key_resp.keys,key_resp.rt,key_resp_14.keys,key_resp_14.rt,key_resp_15.keys,key_resp_15.rt,key_resp_17.keys,key_resp_17.rt,key_resp_9.keys,key_resp_9.rt,key_resp_10.keys,key_resp_10.rt,practice_comparison,Ecc,mouse_5.x,mouse_5.y,mouse_5.leftButton,mouse_5.midButton,mouse_5.rightButton,mouse_5.clicked_name,pracsimilarity,response_time,mouse_10.x,mouse_10.y,mouse_10.leftButton,mouse_10.midButton,mouse_10.rightButton,mouse_10.clicked_name,mouse_7.x,mouse_7.y,mouse_7.leftButton,mouse_7.midButton,mouse_7.rightButton,mouse_6.x,mouse_6.y,mouse_6.leftButton,mouse_6.midButton,mouse_6.rightButton,duringprac.thisRepN,duringprac.thisTrialN,duringprac.thisN,duringprac.thisIndex,duringprac.ran,participant,session,date,expName,psychopyVersion,OS,frameRate,study_id,mouse_7.clicked_name,catchpracsimilarity,catch_response_time,catchnumberprac,catchtrialorderprac,mouse_6.clicked_name,key_resp_22.keys,key_resp_22.rt,realcomparison,mouse.x,mouse.y,mouse.leftButton,mouse.midButton,mouse.rightButton,mouse.clicked_name,Colour2,similarity,mouse_2.x,mouse_2.y,mouse_2.leftButton,mouse_2.midButton,mouse_2.rightButton,mouse_2.clicked_name,mouse_3.x,mouse_3.y,mouse_3.leftButton,mouse_3.midButton,mouse_3.rightButton,mouse_11.x,mouse_11.y,mouse_11.leftButton,mouse_11.midButton,mouse_11.rightButton,trials_2.thisRepN,trials_2.thisTrialN,trials_2.thisN,trials_2.thisIndex,trials_2.ran,Colour1,mouse_3.clicked_name,catchornah,catchsimilarity,catchnumber,catchtrialorder,catchRT,mouse_11.clicked_name
space,1.533,space,13.341,space,5.855,space,11.805,space,1.04,space,3.582,22,FF,92,29,1,0,0,response1disk_5,6,12.756,-9,-5,1,0,0,rectangle_8,-9,-5,1,0,0,-9,-5,1,0,0,0,0,0,0,1,6102185a2bc0fd85fda9aed0,61036e7db6e75d34076a7e00,2021-07-29_23h14.42.109,Simcolourproject_2stim_asymm_v5,2020.2.10,MacIntel,60,61025ae37ef11b136ea224fe,,,,,,,,,,,,,,,,,,,,,,,,,,,,,,,,,,,,,,,,,,,,,,
,,,,,,,,,,,,91,FF,-79,-39,1,0,0,response5disk_5,2,3.502,1,-7,1,0,0,rectangle_8,-39,-95,1,0,0,3,-2,1,0,0,0,1,1,5,1,6102185a2bc0fd85fda9aed0,61036e7db6e75d34076a7e00,2021-07-29_23h14.42.109,Simcolourproject_2stim_asymm_v5,2020.2.10,MacIntel,60,61025ae37ef11b136ea224fe,response5disk_7,3,2.784,3,"[2,5]",rectangle_4,,,,,,,,,,,,,,,,,,,,,,,,,,,,,,,,,,,,,,,,
,,,,,,,,,,,,11,PF,71,29,1,0,0,response1disk_5,6,2.246,2,-12,1,0,0,rectangle_8,2,-12,1,0,0,2,-12,1,0,0,0,2,2,2,1,6102185a2bc0fd85fda9aed0,61036e7db6e75d34076a7e00,2021-07-29_23h14.42.109,Simcolourproject_2stim_asymm_v5,2020.2.10,MacIntel,60,61025ae37ef11b136ea224fe,,,,,,,,,,,,,,,,,,,,,,,,,,,,,,,,,,,,,,,,,,,,,,
,,,,,,,,,,,,62,PF,-27,55,1,0,0,response7disk_5,0,1.915,1,-2,1,0,0,rectangle_8,1,-2,1,0,0,1,-2,1,0,0,0,3,3,6,1,6102185a2bc0fd85fda9aed0,61036e7db6e75d34076a7e00,2021-07-29_23h14.42.109,Simcolourproject_2stim_asymm_v5,2020.2.10,MacIntel,60,61025ae37ef11b136ea224fe,,,,,,,,,,,,,,,,,,,,,,,,,,,,,,,,,,,,,,,,,,,,,,
,,,,,,,,,,,,49,PF,65,-47,1,0,0,response3disk_5,5,6.636,-9,-2,1,0,0,rectangle_8,-38,-92,1,0,0,-3,-9,1,0,0,0,4,4,4,1,6102185a2bc0fd85fda9aed0,61036e7db6e75d34076a7e00,2021-07-29_23h14.42.109,Simcolourproject_2stim_asymm_v5,2020.2.10,MacIntel,60,61025ae37ef11b136ea224fe,response5disk_7,3,4.134,3,"[2,5]",rectangle_4,,,,,,,,,,,,,,,,,,,,,,,,,,,,,,,,,,,,,,,,
,,,,,,,,,,,,19,FF,37,-77,1,0,0,response3disk_5,4,2.629,-7,3,1,0,0,rectangle_8,-7,3,1,0,0,-7,3,1,0,0,0,5,5,3,1,6102185a2bc0fd85fda9aed0,61036e7db6e75d34076a7e00,2021-07-29_23h14.42.109,Simcolourproject_2stim_asymm_v5,2020.2.10,MacIntel,60,61025ae37ef11b136ea224fe,,,,,,,,,,,,,,,,,,,,,,,,,,,,,,,,,,,,,,,,,,,,,,
,,,,,,,,,,,,116,PF,87,-44,1,0,0,response3disk_5,5,3.951,-7,1,1,0,0,rectangle_8,-7,1,1,0,0,-7,1,1,0,0,0,6,6,1,1,6102185a2bc0fd85fda9aed0,61036e7db6e75d34076a7e00,2021-07-29_23h14.42.109,Simcolourproject_2stim_asymm_v5,2020.2.10,MacIntel,60,61025ae37ef11b136ea224fe,,,,,,,,,,,,,,,,,,,,,,,,,,,,,,,,,,,,,,,,,,,,,,
,,,,,,,,,,,,,FF,,,,,,,,2.871,,,,,,,,,,,,,,,,,,,,,,6102185a2bc0fd85fda9aed0,61036e7db6e75d34076a7e00,2021-07-29_23h14.42.109,Simcolourproject_2stim_asymm_v5,2020.2.10,MacIntel,60,61025ae37ef11b136ea224fe,,,,,,,space,2.265,4041,77,22,1,0,0,response1disk,,6,-6,-1,1,0,0,rectangle,-6,-1,1,0,0,-6,-1,1,0,0,0,0,0,73,1,,,,,,,,
,,,,,,,,,,,,,FF,,,,,,,,1.567,,,,,,,,,,,,,,,,,,,,,,6102185a2bc0fd85fda9aed0,61036e7db6e75d34076a7e00,2021-07-29_23h14.42.109,Simcolourproject_2stim_asymm_v5,2020.2.10,MacIntel,60,61025ae37ef11b136ea224fe,,,,,,,,,3623,-60,-34,1,0,0,response5disk,,2,-7,1,1,0,0,rectangle,-7,1,1,0,0,-7,1,1,0,0,0,1,1,4,1,,,,,,,,
,,,,,,,,,,,,,FF,,,,,,,,2.064,,,,,,,,,,,,,,,,,,,,,,6102185a2bc0fd85fda9aed0,61036e7db6e75d34076a7e00,2021-07-29_23h14.42.109,Simcolourproject_2stim_asymm_v5,2020.2.10,MacIntel,60,61025ae37ef11b136ea224fe,,,,,,,,,3821,-43,-73,1,0,0,response5disk,,3,-8,-2,1,0,0,rectangle,82,39,1,0,0,-4,-4,1,0,0,0,2,2,36,1,,response1disk_3,TRUE,6,6,"[118,298,217,261,109,208,272,91,25,288,291,188,310,94,158,3,235,97,112,317]",2.216,rectangle
,,,,,,,,,,,,,FF,,,,,,,,2.994,,,,,,,,,,,,,,,,,,,,,,6102185a2bc0fd85fda9aed0,61036e7db6e75d34076a7e00,2021-07-29_23h14.42.109,Simcolourproject_2stim_asymm_v5,2020.2.10,MacIntel,60,61025ae37ef11b136ea224fe,,,,,,,,,3292,34,-87,1,0,0,response3disk,,4,-4,14,1,0,0,rectangle,-4,14,1,0,0,-4,14,1,0,0,0,3,3,146,1,,,,,,,,
,,,,,,,,,,,,,FF,,,,,,,,1.183,,,,,,,,,,,,,,,,,,,,,,6102185a2bc0fd85fda9aed0,61036e7db6e75d34076a7e00,2021-07-29_23h14.42.109,Simcolourproject_2stim_asymm_v5,2020.2.10,MacIntel,60,61025ae37ef11b136ea224fe,,,,,,,,,1434,28,-69,1,0,0,response3disk,,4,4,9,1,0,0,rectangle,4,9,1,0,0,4,9,1,0,0,0,4,4,104,1,,,,,,,,
,,,,,,,,,,,,,FF,,,,,,,,1.41,,,,,,,,,,,,,,,,,,,,,,6102185a2bc0fd85fda9aed0,61036e7db6e75d34076a7e00,2021-07-29_23h14.42.109,Simcolourproject_2stim_asymm_v5,2020.2.10,MacIntel,60,61025ae37ef11b136ea224fe,,,,,,,,,3351,83,30,1,0,0,response1disk,,6,-2,-1,1,0,0,rectangle,-2,-1,1,0,0,-2,-1,1,0,0,0,5,5,94,1,,,,,,,,
,,,,,,,,,,,,,FF,,,,,,,,1.35,,,,,,,,,,,,,,,,,,,,,,6102185a2bc0fd85fda9aed0,61036e7db6e75d34076a7e00,2021-07-29_23h14.42.109,Simcolourproject_2stim_asymm_v5,2020.2.10,MacIntel,60,61025ae37ef11b136ea224fe,,,,,,,,,457,-41,-92,1,0,0,response5disk,,3,0,-1,1,0,0,rectangle,0,-1,1,0,0,0,-1,1,0,0,0,6,6,124,1,,,,,,,,
,,,,,,,,,,,,,FF,,,,,,,,1.047,,,,,,,,,,,,,,,,,,,,,,6102185a2bc0fd85fda9aed0,61036e7db6e75d34076a7e00,2021-07-29_23h14.42.109,Simcolourproject_2stim_asymm_v5,2020.2.10,MacIntel,60,61025ae37ef11b136ea224fe,,,,,,,,,2585,51,-75,1,0,0,response3disk,,4,1,1,1,0,0,rectangle,1,1,1,0,0,1,1,1,0,0,0,7,7,24,1,,,,,,,,
,,,,,,,,,,,,,FF,,,,,,,,1.294,,,,,,,,,,,,,,,,,,,,,,6102185a2bc0fd85fda9aed0,61036e7db6e75d34076a7e00,2021-07-29_23h14.42.109,Simcolourproject_2stim_asymm_v5,2020.2.10,MacIntel,60,61025ae37ef11b136ea224fe,,,,,,,,,117,-32,-68,1,0,0,response5disk,,3,8,9,1,0,0,rectangle,8,9,1,0,0,8,9,1,0,0,0,8,8,30,1,,,,,,,,
,,,,,,,,,,,,,FF,,,,,,,,1.144,,,,,,,,,,,,,,,,,,,,,,6102185a2bc0fd85fda9aed0,61036e7db6e75d34076a7e00,2021-07-29_23h14.42.109,Simcolourproject_2stim_asymm_v5,2020.2.10,MacIntel,60,61025ae37ef11b136ea224fe,,,,,,,,,4071,-55,30,1,0,0,response7disk,,1,2,-4,1,0,0,rectangle,2,-4,1,0,0,2,-4,1,0,0,0,9,9,138,1,,,,,,,,
,,,,,,,,,,,,,FF,,,,,,,,2.156,,,,,,,,,,,,,,,,,,,,,,6102185a2bc0fd85fda9aed0,61036e7db6e75d34076a7e00,2021-07-29_23h14.42.109,Simcolourproject_2stim_asymm_v5,2020.2.10,MacIntel,60,61025ae37ef11b136ea224fe,,,,,,,,,4301,50,-93,1,0,0,response3disk,,4,6,5,1,0,0,rectangle,6,5,1,0,0,6,5,1,0,0,0,10,10,76,1,,,,,,,,
,,,,,,,,,,,,,FF,,,,,,,,1.167,,,,,,,,,,,,,,,,,,,,,,6102185a2bc0fd85fda9aed0,61036e7db6e75d34076a7e00,2021-07-29_23h14.42.109,Simcolourproject_2stim_asymm_v5,2020.2.10,MacIntel,60,61025ae37ef11b136ea224fe,,,,,,,,,1790,78,46,1,0,0,response1disk,,6,1,-2,1,0,0,rectangle,1,-2,1,0,0,1,-2,1,0,0,0,11,11,105,1,,,,,,,,
,,,,,,,,,,,,,FF,,,,,,,,1.297,,,,,,,,,,,,,,,,,,,,,,6102185a2bc0fd85fda9aed0,61036e7db6e75d34076a7e00,2021-07-29_23h14.42.109,Simcolourproject_2stim_asymm_v5,2020.2.10,MacIntel,60,61025ae37ef11b136ea224fe,,,,,,,,,1113,-47,-107,1,0,0,response5disk,,3,7,1,1,0,0,rectangle,7,1,1,0,0,7,1,1,0,0,0,12,12,69,1,,,,,,,,
,,,,,,,,,,,,,FF,,,,,,,,1.046,,,,,,,,,,,,,,,,,,,,,,6102185a2bc0fd85fda9aed0,61036e7db6e75d34076a7e00,2021-07-29_23h14.42.109,Simcolourproject_2stim_asymm_v5,2020.2.10,MacIntel,60,61025ae37ef11b136ea224fe,,,,,,,,,3583,-90,-39,1,0,0,response5disk,,2,10,3,1,0,0,rectangle,10,3,1,0,0,10,3,1,0,0,0,13,13,42,1,,,,,,,,
,,,,,,,,,,,,,FF,,,,,,,,1.301,,,,,,,,,,,,,,,,,,,,,,6102185a2bc0fd85fda9aed0,61036e7db6e75d34076a7e00,2021-07-29_23h14.42.109,Simcolourproject_2stim_asymm_v5,2020.2.10,MacIntel,60,61025ae37ef11b136ea224fe,,,,,,,,,601,66,-42,1,0,0,response3disk,,5,17,2,1,0,0,rectangle,17,2,1,0,0,17,2,1,0,0,0,14,14,22,1,,,,,,,,
,,,,,,,,,,,,,FF,,,,,,,,0.995,,,,,,,,,,,,,,,,,,,,,,6102185a2bc0fd85fda9aed0,61036e7db6e75d34076a7e00,2021-07-29_23h14.42.109,Simcolourproject_2stim_asymm_v5,2020.2.10,MacIntel,60,61025ae37ef11b136ea224fe,,,,,,,,,1725,44,-74,1,0,0,response3disk,,4,7,-8,1,0,0,rectangle,7,-8,1,0,0,7,-8,1,0,0,0,15,15,51,1,,,,,,,,
,,,,,,,,,,,,,FF,,,,,,,,1.627,,,,,,,,,,,,,,,,,,,,,,6102185a2bc0fd85fda9aed0,61036e7db6e75d34076a7e00,2021-07-29_23h14.42.109,Simcolourproject_2stim_asymm_v5,2020.2.10,MacIntel,60,61025ae37ef11b136ea224fe,,,,,,,,,4107,-33,-87,1,0,0,response5disk,,3,-7,1,1,0,0,rectangle,-7,1,1,0,0,-7,1,1,0,0,0,16,16,158,1,,,,,,,,
,,,,,,,,,,,,,FF,,,,,,,,4.087,,,,,,,,,,,,,,,,,,,,,,6102185a2bc0fd85fda9aed0,61036e7db6e75d34076a7e00,2021-07-29_23h14.42.109,Simcolourproject_2stim_asymm_v5,2020.2.10,MacIntel,60,61025ae37ef11b136ea224fe,,,,,,,,,1372,-74,-44,1,0,0,response5disk,,2,2,-7,1,0,0,rectangle,2,-7,1,0,0,2,-7,1,0,0,0,17,17,125,1,,,,,,,,
,,,,,,,,,,,,,FF,,,,,,,,1.482,,,,,,,,,,,,,,,,,,,,,,6102185a2bc0fd85fda9aed0,61036e7db6e75d34076a7e00,2021-07-29_23h14.42.109,Simcolourproject_2stim_asymm_v5,2020.2.10,MacIntel,60,61025ae37ef11b136ea224fe,,,,,,,,,2862,51,72,1,0,0,response1disk,,7,-1,-4,1,0,0,rectangle,-1,-4,1,0,0,-1,-4,1,0,0,0,18,18,98,1,,,,,,,,
,,,,,,,,,,,,,FF,,,,,,,,4.047,,,,,,,,,,,,,,,,,,,,,,6102185a2bc0fd85fda9aed0,61036e7db6e75d34076a7e00,2021-07-29_23h14.42.109,Simcolourproject_2stim_asymm_v5,2020.2.10,MacIntel,60,61025ae37ef11b136ea224fe,,,,,,,,,2088,70,-50,1,0,0,response3disk,,5,-5,5,1,0,0,rectangle,-5,5,1,0,0,-5,5,1,0,0,0,19,19,86,1,,,,,,,,
,,,,,,,,,,,,,FF,,,,,,,,1.596,,,,,,,,,,,,,,,,,,,,,,6102185a2bc0fd85fda9aed0,61036e7db6e75d34076a7e00,2021-07-29_23h14.42.109,Simcolourproject_2stim_asymm_v5,2020.2.10,MacIntel,60,61025ae37ef11b136ea224fe,,,,,,,,,400,-34,-74,1,0,0,response5disk,,3,0,-8,1,0,0,rectangle,0,-8,1,0,0,0,-8,1,0,0,0,20,20,50,1,,,,,,,,
,,,,,,,,,,,,,FF,,,,,,,,1.477,,,,,,,,,,,,,,,,,,,,,,6102185a2bc0fd85fda9aed0,61036e7db6e75d34076a7e00,2021-07-29_23h14.42.109,Simcolourproject_2stim_asymm_v5,2020.2.10,MacIntel,60,61025ae37ef11b136ea224fe,,,,,,,,,1628,-47,-90,1,0,0,response5disk,,3,-7,2,1,0,0,rectangle,-7,2,1,0,0,-7,2,1,0,0,0,21,21,156,1,,,,,,,,
,,,,,,,,,,,,,FF,,,,,,,,0.988,,,,,,,,,,,,,,,,,,,,,,6102185a2bc0fd85fda9aed0,61036e7db6e75d34076a7e00,2021-07-29_23h14.42.109,Simcolourproject_2stim_asymm_v5,2020.2.10,MacIntel,60,61025ae37ef11b136ea224fe,,,,,,,,,4348,-66,-41,1,0,0,response5disk,,2,2,-9,1,0,0,rectangle,2,-9,1,0,0,2,-9,1,0,0,0,22,22,85,1,,,,,,,,
,,,,,,,,,,,,,FF,,,,,,,,0.772,,,,,,,,,,,,,,,,,,,,,,6102185a2bc0fd85fda9aed0,61036e7db6e75d34076a7e00,2021-07-29_23h14.42.109,Simcolourproject_2stim_asymm_v5,2020.2.10,MacIntel,60,61025ae37ef11b136ea224fe,,,,,,,,,888,-70,-40,1,0,0,response5disk,,2,20,-8,1,0,0,rectangle,20,-8,1,0,0,20,-8,1,0,0,0,23,23,17,1,,,,,,,,
,,,,,,,,,,,,,FF,,,,,,,,0.924,,,,,,,,,,,,,,,,,,,,,,6102185a2bc0fd85fda9aed0,61036e7db6e75d34076a7e00,2021-07-29_23h14.42.109,Simcolourproject_2stim_asymm_v5,2020.2.10,MacIntel,60,61025ae37ef11b136ea224fe,,,,,,,,,1410,67,-69,1,0,0,response3disk,,4,0,-10,1,0,0,rectangle,-87,34,1,0,0,13,-11,1,0,0,0,24,24,121,1,,response7disk_3,TRUE,1,1,"[118,298,217,261,109,208,272,91,25,288,291,188,310,94,158,3,235,97,112,317]",1.728,rectangle
,,,,,,,,,,,,,FF,,,,,,,,0.884,,,,,,,,,,,,,,,,,,,,,,6102185a2bc0fd85fda9aed0,61036e7db6e75d34076a7e00,2021-07-29_23h14.42.109,Simcolourproject_2stim_asymm_v5,2020.2.10,MacIntel,60,61025ae37ef11b136ea224fe,,,,,,,,,3974,-58,-41,1,0,0,response5disk,,2,0,2,1,0,0,rectangle,0,2,1,0,0,0,2,1,0,0,0,25,25,108,1,,,,,,,,
,,,,,,,,,,,,,FF,,,,,,,,1.602,,,,,,,,,,,,,,,,,,,,,,6102185a2bc0fd85fda9aed0,61036e7db6e75d34076a7e00,2021-07-29_23h14.42.109,Simcolourproject_2stim_asymm_v5,2020.2.10,MacIntel,60,61025ae37ef11b136ea224fe,,,,,,,,,3966,-71,-28,1,0,0,response5disk,,2,10,3,1,0,0,rectangle,10,3,1,0,0,10,3,1,0,0,0,26,26,64,1,,,,,,,,
,,,,,,,,,,,,,FF,,,,,,,,1.568,,,,,,,,,,,,,,,,,,,,,,6102185a2bc0fd85fda9aed0,61036e7db6e75d34076a7e00,2021-07-29_23h14.42.109,Simcolourproject_2stim_asymm_v5,2020.2.10,MacIntel,60,61025ae37ef11b136ea224fe,,,,,,,,,3240,-18,-89,1,0,0,response5disk,,3,13,-1,1,0,0,rectangle,13,-1,1,0,0,13,-1,1,0,0,0,27,27,93,1,,,,,,,,
,,,,,,,,,,,,,FF,,,,,,,,1.753,,,,,,,,,,,,,,,,,,,,,,6102185a2bc0fd85fda9aed0,61036e7db6e75d34076a7e00,2021-07-29_23h14.42.109,Simcolourproject_2stim_asymm_v5,2020.2.10,MacIntel,60,61025ae37ef11b136ea224fe,,,,,,,,,796,82,19,1,0,0,response1disk,,6,-2,-6,1,0,0,rectangle,-2,-6,1,0,0,-2,-6,1,0,0,0,28,28,89,1,,,,,,,,
,,,,,,,,,,,,,FF,,,,,,,,0.803,,,,,,,,,,,,,,,,,,,,,,6102185a2bc0fd85fda9aed0,61036e7db6e75d34076a7e00,2021-07-29_23h14.42.109,Simcolourproject_2stim_asymm_v5,2020.2.10,MacIntel,60,61025ae37ef11b136ea224fe,,,,,,,,,196,-41,-91,1,0,0,response5disk,,3,-1,-2,1,0,0,rectangle,-1,-2,1,0,0,-1,-2,1,0,0,0,29,29,26,1,,,,,,,,
,,,,,,,,,,,,,FF,,,,,,,,1.102,,,,,,,,,,,,,,,,,,,,,,6102185a2bc0fd85fda9aed0,61036e7db6e75d34076a7e00,2021-07-29_23h14.42.109,Simcolourproject_2stim_asymm_v5,2020.2.10,MacIntel,60,61025ae37ef11b136ea224fe,,,,,,,,,3527,77,32,1,0,0,response1disk,,6,19,-9,1,0,0,rectangle,19,-9,1,0,0,19,-9,1,0,0,0,30,30,20,1,,,,,,,,
,,,,,,,,,,,,,FF,,,,,,,,0.974,,,,,,,,,,,,,,,,,,,,,,6102185a2bc0fd85fda9aed0,61036e7db6e75d34076a7e00,2021-07-29_23h14.42.109,Simcolourproject_2stim_asymm_v5,2020.2.10,MacIntel,60,61025ae37ef11b136ea224fe,,,,,,,,,4207,-27,-73,1,0,0,response5disk,,3,2,10,1,0,0,rectangle,2,10,1,0,0,2,10,1,0,0,0,31,31,27,1,,,,,,,,
,,,,,,,,,,,,,FF,,,,,,,,0.746,,,,,,,,,,,,,,,,,,,,,,6102185a2bc0fd85fda9aed0,61036e7db6e75d34076a7e00,2021-07-29_23h14.42.109,Simcolourproject_2stim_asymm_v5,2020.2.10,MacIntel,60,61025ae37ef11b136ea224fe,,,,,,,,,224,47,-68,1,0,0,response3disk,,4,11,-4,1,0,0,rectangle,11,-4,1,0,0,11,-4,1,0,0,0,32,32,32,1,,,,,,,,
,,,,,,,,,,,,,FF,,,,,,,,1.198,,,,,,,,,,,,,,,,,,,,,,6102185a2bc0fd85fda9aed0,61036e7db6e75d34076a7e00,2021-07-29_23h14.42.109,Simcolourproject_2stim_asymm_v5,2020.2.10,MacIntel,60,61025ae37ef11b136ea224fe,,,,,,,,,3063,-56,-97,1,0,0,response5disk,,3,5,10,1,0,0,rectangle,5,10,1,0,0,5,10,1,0,0,0,33,33,12,1,,,,,,,,
,,,,,,,,,,,,,FF,,,,,,,,1.077,,,,,,,,,,,,,,,,,,,,,,6102185a2bc0fd85fda9aed0,61036e7db6e75d34076a7e00,2021-07-29_23h14.42.109,Simcolourproject_2stim_asymm_v5,2020.2.10,MacIntel,60,61025ae37ef11b136ea224fe,,,,,,,,,3458,41,93,1,0,0,response1disk,,7,10,2,1,0,0,rectangle,10,2,1,0,0,10,2,1,0,0,0,34,34,120,1,,,,,,,,
,,,,,,,,,,,,,FF,,,,,,,,2.243,,,,,,,,,,,,,,,,,,,,,,6102185a2bc0fd85fda9aed0,61036e7db6e75d34076a7e00,2021-07-29_23h14.42.109,Simcolourproject_2stim_asymm_v5,2020.2.10,MacIntel,60,61025ae37ef11b136ea224fe,,,,,,,,,1891,60,-37,1,0,0,response3disk,,5,19,0,1,0,0,rectangle,19,0,1,0,0,19,0,1,0,0,0,35,35,130,1,,,,,,,,
,,,,,,,,,,,,,FF,,,,,,,,1.186,,,,,,,,,,,,,,,,,,,,,,6102185a2bc0fd85fda9aed0,61036e7db6e75d34076a7e00,2021-07-29_23h14.42.109,Simcolourproject_2stim_asymm_v5,2020.2.10,MacIntel,60,61025ae37ef11b136ea224fe,,,,,,,,,1147,38,-88,1,0,0,response3disk,,4,3,-1,1,0,0,rectangle,3,-1,1,0,0,3,-1,1,0,0,0,36,36,140,1,,,,,,,,
,,,,,,,,,,,,,FF,,,,,,,,1.604,,,,,,,,,,,,,,,,,,,,,,6102185a2bc0fd85fda9aed0,61036e7db6e75d34076a7e00,2021-07-29_23h14.42.109,Simcolourproject_2stim_asymm_v5,2020.2.10,MacIntel,60,61025ae37ef11b136ea224fe,,,,,,,,,1716,92,52,1,0,0,response1disk,,6,-14,5,1,0,0,rectangle,-14,5,1,0,0,-14,5,1,0,0,0,37,37,46,1,,,,,,,,
,,,,,,,,,,,,,FF,,,,,,,,0.952,,,,,,,,,,,,,,,,,,,,,,6102185a2bc0fd85fda9aed0,61036e7db6e75d34076a7e00,2021-07-29_23h14.42.109,Simcolourproject_2stim_asymm_v5,2020.2.10,MacIntel,60,61025ae37ef11b136ea224fe,,,,,,,,,3339,-45,-87,1,0,0,response5disk,,3,10,3,1,0,0,rectangle,10,3,1,0,0,10,3,1,0,0,0,38,38,39,1,,,,,,,,
,,,,,,,,,,,,,FF,,,,,,,,1.202,,,,,,,,,,,,,,,,,,,,,,6102185a2bc0fd85fda9aed0,61036e7db6e75d34076a7e00,2021-07-29_23h14.42.109,Simcolourproject_2stim_asymm_v5,2020.2.10,MacIntel,60,61025ae37ef11b136ea224fe,,,,,,,,,3750,-41,-79,1,0,0,response5disk,,3,1,1,1,0,0,rectangle,1,1,1,0,0,1,1,1,0,0,0,39,39,33,1,,,,,,,,
,,,,,,,,,,,,,FF,,,,,,,,1.123,,,,,,,,,,,,,,,,,,,,,,6102185a2bc0fd85fda9aed0,61036e7db6e75d34076a7e00,2021-07-29_23h14.42.109,Simcolourproject_2stim_asymm_v5,2020.2.10,MacIntel,60,61025ae37ef11b136ea224fe,,,,,,,,,1875,-106,-43,1,0,0,response5disk,,2,-13,-10,1,0,0,rectangle,-13,-10,1,0,0,-13,-10,1,0,0,0,40,40,71,1,,,,,,,,
,,,,,,,,,,,,,FF,,,,,,,,2.401,,,,,,,,,,,,,,,,,,,,,,6102185a2bc0fd85fda9aed0,61036e7db6e75d34076a7e00,2021-07-29_23h14.42.109,Simcolourproject_2stim_asymm_v5,2020.2.10,MacIntel,60,61025ae37ef11b136ea224fe,,,,,,,,,3667,-73,-43,1,0,0,response5disk,,2,18,-2,1,0,0,rectangle,18,-2,1,0,0,18,-2,1,0,0,0,41,41,118,1,,,,,,,,
,,,,,,,,,,,,,FF,,,,,,,,0.846,,,,,,,,,,,,,,,,,,,,,,6102185a2bc0fd85fda9aed0,61036e7db6e75d34076a7e00,2021-07-29_23h14.42.109,Simcolourproject_2stim_asymm_v5,2020.2.10,MacIntel,60,61025ae37ef11b136ea224fe,,,,,,,,,1575,-25,-89,1,0,0,response5disk,,3,11,-2,1,0,0,rectangle,11,-2,1,0,0,11,-2,1,0,0,0,42,42,11,1,,,,,,,,
,,,,,,,,,,,,,FF,,,,,,,,1.034,,,,,,,,,,,,,,,,,,,,,,6102185a2bc0fd85fda9aed0,61036e7db6e75d34076a7e00,2021-07-29_23h14.42.109,Simcolourproject_2stim_asymm_v5,2020.2.10,MacIntel,60,61025ae37ef11b136ea224fe,,,,,,,,,4287,45,-91,1,0,0,response3disk,,4,-10,7,1,0,0,rectangle,-10,7,1,0,0,-10,7,1,0,0,0,43,43,157,1,,,,,,,,
,,,,,,,,,,,,,FF,,,,,,,,0.818,,,,,,,,,,,,,,,,,,,,,,6102185a2bc0fd85fda9aed0,61036e7db6e75d34076a7e00,2021-07-29_23h14.42.109,Simcolourproject_2stim_asymm_v5,2020.2.10,MacIntel,60,61025ae37ef11b136ea224fe,,,,,,,,,1165,81,-43,1,0,0,response3disk,,5,3,-7,1,0,0,rectangle,3,-7,1,0,0,3,-7,1,0,0,0,44,44,48,1,,,,,,,,
,,,,,,,,,,,,,FF,,,,,,,,1.217,,,,,,,,,,,,,,,,,,,,,,6102185a2bc0fd85fda9aed0,61036e7db6e75d34076a7e00,2021-07-29_23h14.42.109,Simcolourproject_2stim_asymm_v5,2020.2.10,MacIntel,60,61025ae37ef11b136ea224fe,,,,,,,,,1868,76,-46,1,0,0,response3disk,,5,5,-6,1,0,0,rectangle,5,-6,1,0,0,5,-6,1,0,0,0,45,45,116,1,,,,,,,,
,,,,,,,,,,,,,FF,,,,,,,,2.015,,,,,,,,,,,,,,,,,,,,,,6102185a2bc0fd85fda9aed0,61036e7db6e75d34076a7e00,2021-07-29_23h14.42.109,Simcolourproject_2stim_asymm_v5,2020.2.10,MacIntel,60,61025ae37ef11b136ea224fe,,,,,,,,,2402,29,-101,1,0,0,response3disk,,4,-2,6,1,0,0,rectangle,-2,6,1,0,0,-2,6,1,0,0,0,46,46,2,1,,,,,,,,
,,,,,,,,,,,,,FF,,,,,,,,1.434,,,,,,,,,,,,,,,,,,,,,,6102185a2bc0fd85fda9aed0,61036e7db6e75d34076a7e00,2021-07-29_23h14.42.109,Simcolourproject_2stim_asymm_v5,2020.2.10,MacIntel,60,61025ae37ef11b136ea224fe,,,,,,,,,3436,-70,-54,1,0,0,response5disk,,2,-7,-10,1,0,0,rectangle,-7,-10,1,0,0,-7,-10,1,0,0,0,47,47,107,1,,,,,,,,
,,,,,,,,,,,,,FF,,,,,,,,1.052,,,,,,,,,,,,,,,,,,,,,,6102185a2bc0fd85fda9aed0,61036e7db6e75d34076a7e00,2021-07-29_23h14.42.109,Simcolourproject_2stim_asymm_v5,2020.2.10,MacIntel,60,61025ae37ef11b136ea224fe,,,,,,,,,2933,-73,-37,1,0,0,response5disk,,2,9,-7,1,0,0,rectangle,9,-7,1,0,0,9,-7,1,0,0,0,48,48,29,1,,,,,,,,
,,,,,,,,,,,,,FF,,,,,,,,0.787,,,,,,,,,,,,,,,,,,,,,,6102185a2bc0fd85fda9aed0,61036e7db6e75d34076a7e00,2021-07-29_23h14.42.109,Simcolourproject_2stim_asymm_v5,2020.2.10,MacIntel,60,61025ae37ef11b136ea224fe,,,,,,,,,3657,-37,-74,1,0,0,response5disk,,3,7,-9,1,0,0,rectangle,7,-9,1,0,0,7,-9,1,0,0,0,49,49,101,1,,,,,,,,
,,,,,,,,,,,,,FF,,,,,,,,0.817,,,,,,,,,,,,,,,,,,,,,,6102185a2bc0fd85fda9aed0,61036e7db6e75d34076a7e00,2021-07-29_23h14.42.109,Simcolourproject_2stim_asymm_v5,2020.2.10,MacIntel,60,61025ae37ef11b136ea224fe,,,,,,,,,4253,-28,-78,1,0,0,response5disk,,3,-9,2,1,0,0,rectangle,-9,2,1,0,0,-9,2,1,0,0,0,50,50,59,1,,,,,,,,
,,,,,,,,,,,,,FF,,,,,,,,0.753,,,,,,,,,,,,,,,,,,,,,,6102185a2bc0fd85fda9aed0,61036e7db6e75d34076a7e00,2021-07-29_23h14.42.109,Simcolourproject_2stim_asymm_v5,2020.2.10,MacIntel,60,61025ae37ef11b136ea224fe,,,,,,,,,2689,46,-75,1,0,0,response3disk,,4,29,3,1,0,0,rectangle,29,3,1,0,0,29,3,1,0,0,0,51,51,68,1,,,,,,,,
,,,,,,,,,,,,,FF,,,,,,,,1.083,,,,,,,,,,,,,,,,,,,,,,6102185a2bc0fd85fda9aed0,61036e7db6e75d34076a7e00,2021-07-29_23h14.42.109,Simcolourproject_2stim_asymm_v5,2020.2.10,MacIntel,60,61025ae37ef11b136ea224fe,,,,,,,,,399,91,52,1,0,0,response1disk,,6,9,7,1,0,0,rectangle,9,7,1,0,0,9,7,1,0,0,0,52,52,150,1,,,,,,,,
,,,,,,,,,,,,,FF,,,,,,,,0.964,,,,,,,,,,,,,,,,,,,,,,6102185a2bc0fd85fda9aed0,61036e7db6e75d34076a7e00,2021-07-29_23h14.42.109,Simcolourproject_2stim_asymm_v5,2020.2.10,MacIntel,60,61025ae37ef11b136ea224fe,,,,,,,,,1719,81,-37,1,0,0,response3disk,,5,-5,-1,1,0,0,rectangle,-5,-1,1,0,0,-5,-1,1,0,0,0,53,53,37,1,,,,,,,,
,,,,,,,,,,,,,FF,,,,,,,,1.235,,,,,,,,,,,,,,,,,,,,,,6102185a2bc0fd85fda9aed0,61036e7db6e75d34076a7e00,2021-07-29_23h14.42.109,Simcolourproject_2stim_asymm_v5,2020.2.10,MacIntel,60,61025ae37ef11b136ea224fe,,,,,,,,,4009,49,65,1,0,0,response1disk,,7,-2,-4,1,0,0,rectangle,-2,-4,1,0,0,-2,-4,1,0,0,0,54,54,81,1,,,,,,,,
,,,,,,,,,,,,,FF,,,,,,,,0.879,,,,,,,,,,,,,,,,,,,,,,6102185a2bc0fd85fda9aed0,61036e7db6e75d34076a7e00,2021-07-29_23h14.42.109,Simcolourproject_2stim_asymm_v5,2020.2.10,MacIntel,60,61025ae37ef11b136ea224fe,,,,,,,,,3982,81,45,1,0,0,response1disk,,6,-2,-4,1,0,0,rectangle,-2,-4,1,0,0,-2,-4,1,0,0,0,55,55,63,1,,,,,,,,
,,,,,,,,,,,,,FF,,,,,,,,0.728,,,,,,,,,,,,,,,,,,,,,,6102185a2bc0fd85fda9aed0,61036e7db6e75d34076a7e00,2021-07-29_23h14.42.109,Simcolourproject_2stim_asymm_v5,2020.2.10,MacIntel,60,61025ae37ef11b136ea224fe,,,,,,,,,3782,94,-47,1,0,0,response3disk,,5,21,-16,1,0,0,rectangle,21,-16,1,0,0,21,-16,1,0,0,0,56,56,21,1,,,,,,,,
,,,,,,,,,,,,,FF,,,,,,,,0.781,,,,,,,,,,,,,,,,,,,,,,6102185a2bc0fd85fda9aed0,61036e7db6e75d34076a7e00,2021-07-29_23h14.42.109,Simcolourproject_2stim_asymm_v5,2020.2.10,MacIntel,60,61025ae37ef11b136ea224fe,,,,,,,,,2361,-68,-43,1,0,0,response5disk,,2,25,1,1,0,0,rectangle,25,1,1,0,0,25,1,1,0,0,0,57,57,109,1,,,,,,,,
,,,,,,,,,,,,,FF,,,,,,,,0.869,,,,,,,,,,,,,,,,,,,,,,6102185a2bc0fd85fda9aed0,61036e7db6e75d34076a7e00,2021-07-29_23h14.42.109,Simcolourproject_2stim_asymm_v5,2020.2.10,MacIntel,60,61025ae37ef11b136ea224fe,,,,,,,,,2704,24,-90,1,0,0,response3disk,,4,-20,-1,1,0,0,rectangle,-20,-1,1,0,0,-20,-1,1,0,0,0,58,58,99,1,,,,,,,,
,,,,,,,,,,,,,FF,,,,,,,,0.633,,,,,,,,,,,,,,,,,,,,,,6102185a2bc0fd85fda9aed0,61036e7db6e75d34076a7e00,2021-07-29_23h14.42.109,Simcolourproject_2stim_asymm_v5,2020.2.10,MacIntel,60,61025ae37ef11b136ea224fe,,,,,,,,,597,91,-26,1,0,0,response3disk,,5,18,-1,1,0,0,rectangle,18,-1,1,0,0,18,-1,1,0,0,0,59,59,88,1,,,,,,,,
,,,,,,,,,,,,,FF,,,,,,,,0.633,,,,,,,,,,,,,,,,,,,,,,6102185a2bc0fd85fda9aed0,61036e7db6e75d34076a7e00,2021-07-29_23h14.42.109,Simcolourproject_2stim_asymm_v5,2020.2.10,MacIntel,60,61025ae37ef11b136ea224fe,,,,,,,,,1032,-42,-76,1,0,0,response5disk,,3,0,-4,1,0,0,rectangle,0,-4,1,0,0,0,-4,1,0,0,0,60,60,61,1,,,,,,,,
,,,,,,,,,,,,,FF,,,,,,,,0.548,,,,,,,,,,,,,,,,,,,,,,6102185a2bc0fd85fda9aed0,61036e7db6e75d34076a7e00,2021-07-29_23h14.42.109,Simcolourproject_2stim_asymm_v5,2020.2.10,MacIntel,60,61025ae37ef11b136ea224fe,,,,,,,,,2812,56,-53,1,0,0,response3disk,,5,10,-2,1,0,0,rectangle,10,-2,1,0,0,10,-2,1,0,0,0,61,61,65,1,,,,,,,,
,,,,,,,,,,,,,FF,,,,,,,,1.034,,,,,,,,,,,,,,,,,,,,,,6102185a2bc0fd85fda9aed0,61036e7db6e75d34076a7e00,2021-07-29_23h14.42.109,Simcolourproject_2stim_asymm_v5,2020.2.10,MacIntel,60,61025ae37ef11b136ea224fe,,,,,,,,,2886,-52,87,1,0,0,response7disk,,0,-6,1,1,0,0,rectangle,-6,1,1,0,0,-6,1,1,0,0,0,62,62,6,1,,,,,,,,
,,,,,,,,,,,,,FF,,,,,,,,1.15,,,,,,,,,,,,,,,,,,,,,,6102185a2bc0fd85fda9aed0,61036e7db6e75d34076a7e00,2021-07-29_23h14.42.109,Simcolourproject_2stim_asymm_v5,2020.2.10,MacIntel,60,61025ae37ef11b136ea224fe,,,,,,,,,2848,30,-82,1,0,0,response3disk,,4,4,-4,1,0,0,rectangle,4,-4,1,0,0,4,-4,1,0,0,0,63,63,79,1,,,,,,,,
,,,,,,,,,,,,,FF,,,,,,,,0.93,,,,,,,,,,,,,,,,,,,,,,6102185a2bc0fd85fda9aed0,61036e7db6e75d34076a7e00,2021-07-29_23h14.42.109,Simcolourproject_2stim_asymm_v5,2020.2.10,MacIntel,60,61025ae37ef11b136ea224fe,,,,,,,,,2543,-19,-82,1,0,0,response5disk,,3,15,2,1,0,0,rectangle,15,2,1,0,0,15,2,1,0,0,0,64,64,57,1,,,,,,,,
,,,,,,,,,,,,,FF,,,,,,,,0.797,,,,,,,,,,,,,,,,,,,,,,6102185a2bc0fd85fda9aed0,61036e7db6e75d34076a7e00,2021-07-29_23h14.42.109,Simcolourproject_2stim_asymm_v5,2020.2.10,MacIntel,60,61025ae37ef11b136ea224fe,,,,,,,,,4024,-73,-50,1,0,0,response5disk,,2,-1,-4,1,0,0,rectangle,-1,-4,1,0,0,-1,-4,1,0,0,0,65,65,154,1,,,,,,,,
,,,,,,,,,,,,,FF,,,,,,,,1.136,,,,,,,,,,,,,,,,,,,,,,6102185a2bc0fd85fda9aed0,61036e7db6e75d34076a7e00,2021-07-29_23h14.42.109,Simcolourproject_2stim_asymm_v5,2020.2.10,MacIntel,60,61025ae37ef11b136ea224fe,,,,,,,,,3784,-78,-49,1,0,0,response5disk,,2,9,-8,1,0,0,rectangle,9,-8,1,0,0,9,-8,1,0,0,0,66,66,133,1,,,,,,,,
,,,,,,,,,,,,,FF,,,,,,,,1.247,,,,,,,,,,,,,,,,,,,,,,6102185a2bc0fd85fda9aed0,61036e7db6e75d34076a7e00,2021-07-29_23h14.42.109,Simcolourproject_2stim_asymm_v5,2020.2.10,MacIntel,60,61025ae37ef11b136ea224fe,,,,,,,,,2613,55,-76,1,0,0,response3disk,,4,11,-3,1,0,0,rectangle,11,-3,1,0,0,11,-3,1,0,0,0,67,67,117,1,,,,,,,,
,,,,,,,,,,,,,FF,,,,,,,,1.43,,,,,,,,,,,,,,,,,,,,,,6102185a2bc0fd85fda9aed0,61036e7db6e75d34076a7e00,2021-07-29_23h14.42.109,Simcolourproject_2stim_asymm_v5,2020.2.10,MacIntel,60,61025ae37ef11b136ea224fe,,,,,,,,,1892,-82,-46,1,0,0,response5disk,,2,1,-7,1,0,0,rectangle,1,-7,1,0,0,1,-7,1,0,0,0,68,68,19,1,,,,,,,,
,,,,,,,,,,,,,FF,,,,,,,,0.703,,,,,,,,,,,,,,,,,,,,,,6102185a2bc0fd85fda9aed0,61036e7db6e75d34076a7e00,2021-07-29_23h14.42.109,Simcolourproject_2stim_asymm_v5,2020.2.10,MacIntel,60,61025ae37ef11b136ea224fe,,,,,,,,,655,-42,-100,1,0,0,response5disk,,3,0,-1,1,0,0,rectangle,0,-1,1,0,0,0,-1,1,0,0,0,69,69,18,1,,,,,,,,
,,,,,,,,,,,,,FF,,,,,,,,1.187,,,,,,,,,,,,,,,,,,,,,,6102185a2bc0fd85fda9aed0,61036e7db6e75d34076a7e00,2021-07-29_23h14.42.109,Simcolourproject_2stim_asymm_v5,2020.2.10,MacIntel,60,61025ae37ef11b136ea224fe,,,,,,,,,1737,56,-99,1,0,0,response3disk,,4,1,1,1,0,0,rectangle,1,1,1,0,0,1,1,1,0,0,0,70,70,45,1,,,,,,,,
,,,,,,,,,,,,,FF,,,,,,,,0.985,,,,,,,,,,,,,,,,,,,,,,6102185a2bc0fd85fda9aed0,61036e7db6e75d34076a7e00,2021-07-29_23h14.42.109,Simcolourproject_2stim_asymm_v5,2020.2.10,MacIntel,60,61025ae37ef11b136ea224fe,,,,,,,,,3140,-80,-51,1,0,0,response5disk,,2,-9,-4,1,0,0,rectangle,-9,-4,1,0,0,-9,-4,1,0,0,0,71,71,67,1,,,,,,,,
,,,,,,,,,,,,,FF,,,,,,,,1.501,,,,,,,,,,,,,,,,,,,,,,6102185a2bc0fd85fda9aed0,61036e7db6e75d34076a7e00,2021-07-29_23h14.42.109,Simcolourproject_2stim_asymm_v5,2020.2.10,MacIntel,60,61025ae37ef11b136ea224fe,,,,,,,,,3992,-29,-99,1,0,0,response5disk,,3,14,7,1,0,0,rectangle,14,7,1,0,0,14,7,1,0,0,0,72,72,58,1,,,,,,,,
,,,,,,,,,,,,,FF,,,,,,,,1.19,,,,,,,,,,,,,,,,,,,,,,6102185a2bc0fd85fda9aed0,61036e7db6e75d34076a7e00,2021-07-29_23h14.42.109,Simcolourproject_2stim_asymm_v5,2020.2.10,MacIntel,60,61025ae37ef11b136ea224fe,,,,,,,,,2752,32,-68,1,0,0,response3disk,,4,10,-8,1,0,0,rectangle,10,-8,1,0,0,10,-8,1,0,0,0,73,73,106,1,,,,,,,,
,,,,,,,,,,,,,FF,,,,,,,,0.883,,,,,,,,,,,,,,,,,,,,,,6102185a2bc0fd85fda9aed0,61036e7db6e75d34076a7e00,2021-07-29_23h14.42.109,Simcolourproject_2stim_asymm_v5,2020.2.10,MacIntel,60,61025ae37ef11b136ea224fe,,,,,,,,,2093,-50,65,1,0,0,response7disk,,0,5,-6,1,0,0,rectangle,5,-6,1,0,0,5,-6,1,0,0,0,74,74,62,1,,,,,,,,
,,,,,,,,,,,,,FF,,,,,,,,0.819,,,,,,,,,,,,,,,,,,,,,,6102185a2bc0fd85fda9aed0,61036e7db6e75d34076a7e00,2021-07-29_23h14.42.109,Simcolourproject_2stim_asymm_v5,2020.2.10,MacIntel,60,61025ae37ef11b136ea224fe,,,,,,,,,1684,-69,-49,1,0,0,response5disk,,2,-17,-4,1,0,0,rectangle,-17,-4,1,0,0,-17,-4,1,0,0,0,75,75,5,1,,,,,,,,
,,,,,,,,,,,,,FF,,,,,,,,0.878,,,,,,,,,,,,,,,,,,,,,,6102185a2bc0fd85fda9aed0,61036e7db6e75d34076a7e00,2021-07-29_23h14.42.109,Simcolourproject_2stim_asymm_v5,2020.2.10,MacIntel,60,61025ae37ef11b136ea224fe,,,,,,,,,2259,-39,-94,1,0,0,response5disk,,3,16,-6,1,0,0,rectangle,16,-6,1,0,0,16,-6,1,0,0,0,76,76,95,1,,,,,,,,
,,,,,,,,,,,,,FF,,,,,,,,0.9,,,,,,,,,,,,,,,,,,,,,,6102185a2bc0fd85fda9aed0,61036e7db6e75d34076a7e00,2021-07-29_23h14.42.109,Simcolourproject_2stim_asymm_v5,2020.2.10,MacIntel,60,61025ae37ef11b136ea224fe,,,,,,,,,1989,83,-36,1,0,0,response3disk,,5,-2,-3,1,0,0,rectangle,-2,-3,1,0,0,-2,-3,1,0,0,0,77,77,97,1,,,,,,,,
,,,,,,,,,,,,,FF,,,,,,,,1.612,,,,,,,,,,,,,,,,,,,,,,6102185a2bc0fd85fda9aed0,61036e7db6e75d34076a7e00,2021-07-29_23h14.42.109,Simcolourproject_2stim_asymm_v5,2020.2.10,MacIntel,60,61025ae37ef11b136ea224fe,,,,,,,,,2043,-37,-80,1,0,0,response5disk,,3,-5,13,1,0,0,rectangle,-5,13,1,0,0,-5,13,1,0,0,0,78,78,10,1,,,,,,,,
,,,,,,,,,,,,,FF,,,,,,,,0.739,,,,,,,,,,,,,,,,,,,,,,6102185a2bc0fd85fda9aed0,61036e7db6e75d34076a7e00,2021-07-29_23h14.42.109,Simcolourproject_2stim_asymm_v5,2020.2.10,MacIntel,60,61025ae37ef11b136ea224fe,,,,,,,,,156,33,-76,1,0,0,response3disk,,4,-4,12,1,0,0,rectangle,-4,12,1,0,0,-4,12,1,0,0,0,79,79,110,1,,,,,,,,
,,,,,,,,,,,,,FF,,,,,,,,0.691,,,,,,,,,,,,,,,,,,,,,,6102185a2bc0fd85fda9aed0,61036e7db6e75d34076a7e00,2021-07-29_23h14.42.109,Simcolourproject_2stim_asymm_v5,2020.2.10,MacIntel,60,61025ae37ef11b136ea224fe,,,,,,,,,1459,-52,-92,1,0,0,response5disk,,3,1,-2,1,0,0,rectangle,1,-2,1,0,0,1,-2,1,0,0,0,80,80,9,1,,,,,,,,
,,,,,,,,,,,,,FF,,,,,,,,2.235,,,,,,,,,,,,,,,,,,,,,,6102185a2bc0fd85fda9aed0,61036e7db6e75d34076a7e00,2021-07-29_23h14.42.109,Simcolourproject_2stim_asymm_v5,2020.2.10,MacIntel,60,61025ae37ef11b136ea224fe,,,,,,,,,1861,28,-65,1,0,0,response3disk,,4,1,-7,1,0,0,rectangle,1,-7,1,0,0,1,-7,1,0,0,0,81,81,142,1,,,,,,,,
,,,,,,,,,,,,,FF,,,,,,,,1.551,,,,,,,,,,,,,,,,,,,,,,6102185a2bc0fd85fda9aed0,61036e7db6e75d34076a7e00,2021-07-29_23h14.42.109,Simcolourproject_2stim_asymm_v5,2020.2.10,MacIntel,60,61025ae37ef11b136ea224fe,,,,,,,,,2924,38,-98,1,0,0,response3disk,,4,10,14,1,0,0,rectangle,10,14,1,0,0,10,14,1,0,0,0,82,82,100,1,,,,,,,,
,,,,,,,,,,,,,FF,,,,,,,,0.658,,,,,,,,,,,,,,,,,,,,,,6102185a2bc0fd85fda9aed0,61036e7db6e75d34076a7e00,2021-07-29_23h14.42.109,Simcolourproject_2stim_asymm_v5,2020.2.10,MacIntel,60,61025ae37ef11b136ea224fe,,,,,,,,,3321,94,-28,1,0,0,response3disk,,5,14,3,1,0,0,rectangle,14,3,1,0,0,14,3,1,0,0,0,83,83,131,1,,,,,,,,
,,,,,,,,,,,,,FF,,,,,,,,0.777,,,,,,,,,,,,,,,,,,,,,,6102185a2bc0fd85fda9aed0,61036e7db6e75d34076a7e00,2021-07-29_23h14.42.109,Simcolourproject_2stim_asymm_v5,2020.2.10,MacIntel,60,61025ae37ef11b136ea224fe,,,,,,,,,215,113,48,1,0,0,response1disk,,6,10,-5,1,0,0,rectangle,10,-5,1,0,0,10,-5,1,0,0,0,84,84,31,1,,,,,,,,
,,,,,,,,,,,,,FF,,,,,,,,1.351,,,,,,,,,,,,,,,,,,,,,,6102185a2bc0fd85fda9aed0,61036e7db6e75d34076a7e00,2021-07-29_23h14.42.109,Simcolourproject_2stim_asymm_v5,2020.2.10,MacIntel,60,61025ae37ef11b136ea224fe,,,,,,,,,940,32,-74,1,0,0,response3disk,,4,2,-9,1,0,0,rectangle,2,-9,1,0,0,2,-9,1,0,0,0,85,85,14,1,,,,,,,,
,,,,,,,,,,,,,FF,,,,,,,,1.086,,,,,,,,,,,,,,,,,,,,,,6102185a2bc0fd85fda9aed0,61036e7db6e75d34076a7e00,2021-07-29_23h14.42.109,Simcolourproject_2stim_asymm_v5,2020.2.10,MacIntel,60,61025ae37ef11b136ea224fe,,,,,,,,,1513,45,-96,1,0,0,response3disk,,4,17,-6,1,0,0,rectangle,17,-6,1,0,0,17,-6,1,0,0,0,86,86,28,1,,,,,,,,
,,,,,,,,,,,,,FF,,,,,,,,0.784,,,,,,,,,,,,,,,,,,,,,,6102185a2bc0fd85fda9aed0,61036e7db6e75d34076a7e00,2021-07-29_23h14.42.109,Simcolourproject_2stim_asymm_v5,2020.2.10,MacIntel,60,61025ae37ef11b136ea224fe,,,,,,,,,3402,34,-86,1,0,0,response3disk,,4,16,-3,1,0,0,rectangle,16,-3,1,0,0,16,-3,1,0,0,0,87,87,82,1,,,,,,,,
,,,,,,,,,,,,,FF,,,,,,,,1.576,,,,,,,,,,,,,,,,,,,,,,6102185a2bc0fd85fda9aed0,61036e7db6e75d34076a7e00,2021-07-29_23h14.42.109,Simcolourproject_2stim_asymm_v5,2020.2.10,MacIntel,60,61025ae37ef11b136ea224fe,,,,,,,,,3072,73,26,1,0,0,response1disk,,6,-2,-15,1,0,0,rectangle,-2,-15,1,0,0,-2,-15,1,0,0,0,88,88,87,1,,,,,,,,
,,,,,,,,,,,,,FF,,,,,,,,0.573,,,,,,,,,,,,,,,,,,,,,,6102185a2bc0fd85fda9aed0,61036e7db6e75d34076a7e00,2021-07-29_23h14.42.109,Simcolourproject_2stim_asymm_v5,2020.2.10,MacIntel,60,61025ae37ef11b136ea224fe,,,,,,,,,2508,99,-58,1,0,0,response3disk,,5,23,-4,1,0,0,rectangle,23,-4,1,0,0,23,-4,1,0,0,0,89,89,148,1,,,,,,,,
,,,,,,,,,,,,,FF,,,,,,,,1.118,,,,,,,,,,,,,,,,,,,,,,6102185a2bc0fd85fda9aed0,61036e7db6e75d34076a7e00,2021-07-29_23h14.42.109,Simcolourproject_2stim_asymm_v5,2020.2.10,MacIntel,60,61025ae37ef11b136ea224fe,,,,,,,,,184,31,-89,1,0,0,response3disk,,4,-12,12,1,0,0,rectangle,48,98,1,0,0,18,6,1,0,0,0,90,90,103,1,,response1disk_3,TRUE,7,7,"[118,298,217,261,109,208,272,91,25,288,291,188,310,94,158,3,235,97,112,317]",2.138,rectangle
,,,,,,,,,,,,,FF,,,,,,,,1.054,,,,,,,,,,,,,,,,,,,,,,6102185a2bc0fd85fda9aed0,61036e7db6e75d34076a7e00,2021-07-29_23h14.42.109,Simcolourproject_2stim_asymm_v5,2020.2.10,MacIntel,60,61025ae37ef11b136ea224fe,,,,,,,,,97,-73,-40,1,0,0,response5disk,,2,-2,-3,1,0,0,rectangle,-2,-3,1,0,0,-2,-3,1,0,0,0,91,91,56,1,,,,,,,,
,,,,,,,,,,,,,FF,,,,,,,,1.312,,,,,,,,,,,,,,,,,,,,,,6102185a2bc0fd85fda9aed0,61036e7db6e75d34076a7e00,2021-07-29_23h14.42.109,Simcolourproject_2stim_asymm_v5,2020.2.10,MacIntel,60,61025ae37ef11b136ea224fe,,,,,,,,,3455,79,-52,1,0,0,response3disk,,5,10,0,1,0,0,rectangle,10,0,1,0,0,10,0,1,0,0,0,92,92,44,1,,,,,,,,
,,,,,,,,,,,,,FF,,,,,,,,0.668,,,,,,,,,,,,,,,,,,,,,,6102185a2bc0fd85fda9aed0,61036e7db6e75d34076a7e00,2021-07-29_23h14.42.109,Simcolourproject_2stim_asymm_v5,2020.2.10,MacIntel,60,61025ae37ef11b136ea224fe,,,,,,,,,761,-23,-62,1,0,0,response5disk,,3,13,-8,1,0,0,rectangle,48,-81,1,0,0,8,2,1,0,0,0,93,93,80,1,,response3disk_3,TRUE,4,4,"[118,298,217,261,109,208,272,91,25,288,291,188,310,94,158,3,235,97,112,317]",2.745,rectangle
,,,,,,,,,,,,,FF,,,,,,,,1.319,,,,,,,,,,,,,,,,,,,,,,6102185a2bc0fd85fda9aed0,61036e7db6e75d34076a7e00,2021-07-29_23h14.42.109,Simcolourproject_2stim_asymm_v5,2020.2.10,MacIntel,60,61025ae37ef11b136ea224fe,,,,,,,,,3401,-32,-57,1,0,0,response5disk,,3,10,0,1,0,0,rectangle,10,0,1,0,0,10,0,1,0,0,0,94,94,38,1,,,,,,,,
,,,,,,,,,,,,,FF,,,,,,,,0.91,,,,,,,,,,,,,,,,,,,,,,6102185a2bc0fd85fda9aed0,61036e7db6e75d34076a7e00,2021-07-29_23h14.42.109,Simcolourproject_2stim_asymm_v5,2020.2.10,MacIntel,60,61025ae37ef11b136ea224fe,,,,,,,,,3238,-55,-35,1,0,0,response5disk,,2,11,1,1,0,0,rectangle,11,1,1,0,0,11,1,1,0,0,0,95,95,23,1,,,,,,,,
,,,,,,,,,,,,,FF,,,,,,,,0.906,,,,,,,,,,,,,,,,,,,,,,6102185a2bc0fd85fda9aed0,61036e7db6e75d34076a7e00,2021-07-29_23h14.42.109,Simcolourproject_2stim_asymm_v5,2020.2.10,MacIntel,60,61025ae37ef11b136ea224fe,,,,,,,,,3309,42,-84,1,0,0,response3disk,,4,-3,-7,1,0,0,rectangle,-85,41,1,0,0,-7,-2,1,0,0,0,96,96,70,1,,response7disk_3,TRUE,1,1,"[118,298,217,261,109,208,272,91,25,288,291,188,310,94,158,3,235,97,112,317]",1.634,rectangle
,,,,,,,,,,,,,FF,,,,,,,,0.792,,,,,,,,,,,,,,,,,,,,,,6102185a2bc0fd85fda9aed0,61036e7db6e75d34076a7e00,2021-07-29_23h14.42.109,Simcolourproject_2stim_asymm_v5,2020.2.10,MacIntel,60,61025ae37ef11b136ea224fe,,,,,,,,,4133,77,-36,1,0,0,response3disk,,5,-1,-5,1,0,0,rectangle,-1,-5,1,0,0,-1,-5,1,0,0,0,97,97,40,1,,,,,,,,
,,,,,,,,,,,,,FF,,,,,,,,0.834,,,,,,,,,,,,,,,,,,,,,,6102185a2bc0fd85fda9aed0,61036e7db6e75d34076a7e00,2021-07-29_23h14.42.109,Simcolourproject_2stim_asymm_v5,2020.2.10,MacIntel,60,61025ae37ef11b136ea224fe,,,,,,,,,478,-50,-94,1,0,0,response5disk,,3,-2,-9,1,0,0,rectangle,-2,-9,1,0,0,-2,-9,1,0,0,0,98,98,134,1,,,,,,,,
,,,,,,,,,,,,,FF,,,,,,,,1.633,,,,,,,,,,,,,,,,,,,,,,6102185a2bc0fd85fda9aed0,61036e7db6e75d34076a7e00,2021-07-29_23h14.42.109,Simcolourproject_2stim_asymm_v5,2020.2.10,MacIntel,60,61025ae37ef11b136ea224fe,,,,,,,,,2442,42,-87,1,0,0,response3disk,,4,10,-4,1,0,0,rectangle,10,-4,1,0,0,10,-4,1,0,0,0,99,99,96,1,,,,,,,,
,,,,,,,,,,,,,FF,,,,,,,,1.034,,,,,,,,,,,,,,,,,,,,,,6102185a2bc0fd85fda9aed0,61036e7db6e75d34076a7e00,2021-07-29_23h14.42.109,Simcolourproject_2stim_asymm_v5,2020.2.10,MacIntel,60,61025ae37ef11b136ea224fe,,,,,,,,,3466,-60,-96,1,0,0,response5disk,,3,-8,-5,1,0,0,rectangle,-8,-5,1,0,0,-8,-5,1,0,0,0,100,100,141,1,,,,,,,,
,,,,,,,,,,,,,FF,,,,,,,,1.931,,,,,,,,,,,,,,,,,,,,,,6102185a2bc0fd85fda9aed0,61036e7db6e75d34076a7e00,2021-07-29_23h14.42.109,Simcolourproject_2stim_asymm_v5,2020.2.10,MacIntel,60,61025ae37ef11b136ea224fe,,,,,,,,,838,40,-83,1,0,0,response3disk,,4,2,-5,1,0,0,rectangle,2,-5,1,0,0,2,-5,1,0,0,0,101,101,7,1,,,,,,,,
,,,,,,,,,,,,,FF,,,,,,,,0.846,,,,,,,,,,,,,,,,,,,,,,6102185a2bc0fd85fda9aed0,61036e7db6e75d34076a7e00,2021-07-29_23h14.42.109,Simcolourproject_2stim_asymm_v5,2020.2.10,MacIntel,60,61025ae37ef11b136ea224fe,,,,,,,,,902,-103,-52,1,0,0,response5disk,,2,-8,-12,1,0,0,rectangle,-8,-12,1,0,0,-8,-12,1,0,0,0,102,102,127,1,,,,,,,,
,,,,,,,,,,,,,FF,,,,,,,,0.692,,,,,,,,,,,,,,,,,,,,,,6102185a2bc0fd85fda9aed0,61036e7db6e75d34076a7e00,2021-07-29_23h14.42.109,Simcolourproject_2stim_asymm_v5,2020.2.10,MacIntel,60,61025ae37ef11b136ea224fe,,,,,,,,,4259,-22,-100,1,0,0,response5disk,,3,13,-5,1,0,0,rectangle,13,-5,1,0,0,13,-5,1,0,0,0,103,103,91,1,,,,,,,,
,,,,,,,,,,,,,FF,,,,,,,,0.813,,,,,,,,,,,,,,,,,,,,,,6102185a2bc0fd85fda9aed0,61036e7db6e75d34076a7e00,2021-07-29_23h14.42.109,Simcolourproject_2stim_asymm_v5,2020.2.10,MacIntel,60,61025ae37ef11b136ea224fe,,,,,,,,,1584,39,-91,1,0,0,response3disk,,4,10,-2,1,0,0,rectangle,10,-2,1,0,0,10,-2,1,0,0,0,104,104,0,1,,,,,,,,
,,,,,,,,,,,,,FF,,,,,,,,0.851,,,,,,,,,,,,,,,,,,,,,,6102185a2bc0fd85fda9aed0,61036e7db6e75d34076a7e00,2021-07-29_23h14.42.109,Simcolourproject_2stim_asymm_v5,2020.2.10,MacIntel,60,61025ae37ef11b136ea224fe,,,,,,,,,4337,-81,-31,1,0,0,response5disk,,2,11,12,1,0,0,rectangle,11,12,1,0,0,11,12,1,0,0,0,105,105,159,1,,,,,,,,
,,,,,,,,,,,,,FF,,,,,,,,1.262,,,,,,,,,,,,,,,,,,,,,,6102185a2bc0fd85fda9aed0,61036e7db6e75d34076a7e00,2021-07-29_23h14.42.109,Simcolourproject_2stim_asymm_v5,2020.2.10,MacIntel,60,61025ae37ef11b136ea224fe,,,,,,,,,1056,-69,25,1,0,0,response7disk,,1,-8,1,1,0,0,rectangle,-8,1,1,0,0,-8,1,1,0,0,0,106,106,114,1,,,,,,,,
,,,,,,,,,,,,,FF,,,,,,,,2.357,,,,,,,,,,,,,,,,,,,,,,6102185a2bc0fd85fda9aed0,61036e7db6e75d34076a7e00,2021-07-29_23h14.42.109,Simcolourproject_2stim_asymm_v5,2020.2.10,MacIntel,60,61025ae37ef11b136ea224fe,,,,,,,,,2459,43,-87,1,0,0,response3disk,,4,9,-3,1,0,0,rectangle,9,-3,1,0,0,9,-3,1,0,0,0,107,107,74,1,,,,,,,,
,,,,,,,,,,,,,FF,,,,,,,,1.791,,,,,,,,,,,,,,,,,,,,,,6102185a2bc0fd85fda9aed0,61036e7db6e75d34076a7e00,2021-07-29_23h14.42.109,Simcolourproject_2stim_asymm_v5,2020.2.10,MacIntel,60,61025ae37ef11b136ea224fe,,,,,,,,,3523,-23,-88,1,0,0,response5disk,,3,5,-2,1,0,0,rectangle,-27,75,1,0,0,-10,0,1,0,0,0,108,108,132,1,,response7disk_3,TRUE,0,0,"[118,298,217,261,109,208,272,91,25,288,291,188,310,94,158,3,235,97,112,317]",1.451,rectangle
,,,,,,,,,,,,,FF,,,,,,,,1.101,,,,,,,,,,,,,,,,,,,,,,6102185a2bc0fd85fda9aed0,61036e7db6e75d34076a7e00,2021-07-29_23h14.42.109,Simcolourproject_2stim_asymm_v5,2020.2.10,MacIntel,60,61025ae37ef11b136ea224fe,,,,,,,,,3347,-29,-74,1,0,0,response5disk,,3,17,6,1,0,0,rectangle,17,6,1,0,0,17,6,1,0,0,0,109,109,92,1,,,,,,,,
,,,,,,,,,,,,,FF,,,,,,,,0.697,,,,,,,,,,,,,,,,,,,,,,6102185a2bc0fd85fda9aed0,61036e7db6e75d34076a7e00,2021-07-29_23h14.42.109,Simcolourproject_2stim_asymm_v5,2020.2.10,MacIntel,60,61025ae37ef11b136ea224fe,,,,,,,,,4161,-16,66,1,0,0,response7disk,,0,0,-9,1,0,0,rectangle,0,-9,1,0,0,0,-9,1,0,0,0,110,110,136,1,,,,,,,,
,,,,,,,,,,,,,FF,,,,,,,,2.154,,,,,,,,,,,,,,,,,,,,,,6102185a2bc0fd85fda9aed0,61036e7db6e75d34076a7e00,2021-07-29_23h14.42.109,Simcolourproject_2stim_asymm_v5,2020.2.10,MacIntel,60,61025ae37ef11b136ea224fe,,,,,,,,,1158,-39,-89,1,0,0,response5disk,,3,-6,-4,1,0,0,rectangle,-96,-59,1,0,0,-8,4,1,0,0,0,111,111,90,1,,response5disk_3,TRUE,2,2,"[118,298,217,261,109,208,272,91,25,288,291,188,310,94,158,3,235,97,112,317]",1.924,rectangle
,,,,,,,,,,,,,FF,,,,,,,,1.245,,,,,,,,,,,,,,,,,,,,,,6102185a2bc0fd85fda9aed0,61036e7db6e75d34076a7e00,2021-07-29_23h14.42.109,Simcolourproject_2stim_asymm_v5,2020.2.10,MacIntel,60,61025ae37ef11b136ea224fe,,,,,,,,,1951,-35,-75,1,0,0,response5disk,,3,-8,-9,1,0,0,rectangle,-8,-9,1,0,0,-8,-9,1,0,0,0,112,112,122,1,,,,,,,,
,,,,,,,,,,,,,FF,,,,,,,,0.685,,,,,,,,,,,,,,,,,,,,,,6102185a2bc0fd85fda9aed0,61036e7db6e75d34076a7e00,2021-07-29_23h14.42.109,Simcolourproject_2stim_asymm_v5,2020.2.10,MacIntel,60,61025ae37ef11b136ea224fe,,,,,,,,,4156,-46,-109,1,0,0,response5disk,,3,-6,-1,1,0,0,rectangle,-6,-1,1,0,0,-6,-1,1,0,0,0,113,113,43,1,,,,,,,,
,,,,,,,,,,,,,FF,,,,,,,,1.099,,,,,,,,,,,,,,,,,,,,,,6102185a2bc0fd85fda9aed0,61036e7db6e75d34076a7e00,2021-07-29_23h14.42.109,Simcolourproject_2stim_asymm_v5,2020.2.10,MacIntel,60,61025ae37ef11b136ea224fe,,,,,,,,,2606,-74,-35,1,0,0,response5disk,,2,-7,-3,1,0,0,rectangle,-7,-3,1,0,0,-7,-3,1,0,0,0,114,114,145,1,,,,,,,,
,,,,,,,,,,,,,FF,,,,,,,,1.197,,,,,,,,,,,,,,,,,,,,,,6102185a2bc0fd85fda9aed0,61036e7db6e75d34076a7e00,2021-07-29_23h14.42.109,Simcolourproject_2stim_asymm_v5,2020.2.10,MacIntel,60,61025ae37ef11b136ea224fe,,,,,,,,,3862,46,-74,1,0,0,response3disk,,4,8,2,1,0,0,rectangle,8,2,1,0,0,8,2,1,0,0,0,115,115,137,1,,,,,,,,
,,,,,,,,,,,,,FF,,,,,,,,0.895,,,,,,,,,,,,,,,,,,,,,,6102185a2bc0fd85fda9aed0,61036e7db6e75d34076a7e00,2021-07-29_23h14.42.109,Simcolourproject_2stim_asymm_v5,2020.2.10,MacIntel,60,61025ae37ef11b136ea224fe,,,,,,,,,3024,98,-42,1,0,0,response3disk,,5,12,8,1,0,0,rectangle,12,8,1,0,0,12,8,1,0,0,0,116,116,41,1,,,,,,,,
,,,,,,,,,,,,,FF,,,,,,,,1.914,,,,,,,,,,,,,,,,,,,,,,6102185a2bc0fd85fda9aed0,61036e7db6e75d34076a7e00,2021-07-29_23h14.42.109,Simcolourproject_2stim_asymm_v5,2020.2.10,MacIntel,60,61025ae37ef11b136ea224fe,,,,,,,,,2227,-44,-74,1,0,0,response5disk,,3,-2,-8,1,0,0,rectangle,-92,43,1,0,0,-6,-3,1,0,0,0,117,117,55,1,,response7disk_3,TRUE,1,1,"[118,298,217,261,109,208,272,91,25,288,291,188,310,94,158,3,235,97,112,317]",1.617,rectangle
,,,,,,,,,,,,,FF,,,,,,,,0.749,,,,,,,,,,,,,,,,,,,,,,6102185a2bc0fd85fda9aed0,61036e7db6e75d34076a7e00,2021-07-29_23h14.42.109,Simcolourproject_2stim_asymm_v5,2020.2.10,MacIntel,60,61025ae37ef11b136ea224fe,,,,,,,,,3471,-57,-73,1,0,0,response5disk,,3,17,6,1,0,0,rectangle,17,6,1,0,0,17,6,1,0,0,0,118,118,34,1,,,,,,,,
,,,,,,,,,,,,,FF,,,,,,,,0.768,,,,,,,,,,,,,,,,,,,,,,6102185a2bc0fd85fda9aed0,61036e7db6e75d34076a7e00,2021-07-29_23h14.42.109,Simcolourproject_2stim_asymm_v5,2020.2.10,MacIntel,60,61025ae37ef11b136ea224fe,,,,,,,,,2054,-40,-64,1,0,0,response5disk,,3,10,-2,1,0,0,rectangle,10,-2,1,0,0,10,-2,1,0,0,0,119,119,15,1,,,,,,,,
,,,,,,,,,,,,,FF,,,,,,,,1.105,,,,,,,,,,,,,,,,,,,,,,6102185a2bc0fd85fda9aed0,61036e7db6e75d34076a7e00,2021-07-29_23h14.42.109,Simcolourproject_2stim_asymm_v5,2020.2.10,MacIntel,60,61025ae37ef11b136ea224fe,,,,,,,,,786,-23,-86,1,0,0,response5disk,,3,13,8,1,0,0,rectangle,13,8,1,0,0,13,8,1,0,0,0,120,120,25,1,,,,,,,,
,,,,,,,,,,,,,FF,,,,,,,,0.648,,,,,,,,,,,,,,,,,,,,,,6102185a2bc0fd85fda9aed0,61036e7db6e75d34076a7e00,2021-07-29_23h14.42.109,Simcolourproject_2stim_asymm_v5,2020.2.10,MacIntel,60,61025ae37ef11b136ea224fe,,,,,,,,,326,31,-69,1,0,0,response3disk,,4,7,-10,1,0,0,rectangle,7,-10,1,0,0,7,-10,1,0,0,0,121,121,53,1,,,,,,,,
,,,,,,,,,,,,,FF,,,,,,,,0.96,,,,,,,,,,,,,,,,,,,,,,6102185a2bc0fd85fda9aed0,61036e7db6e75d34076a7e00,2021-07-29_23h14.42.109,Simcolourproject_2stim_asymm_v5,2020.2.10,MacIntel,60,61025ae37ef11b136ea224fe,,,,,,,,,2496,81,-52,1,0,0,response3disk,,5,12,-10,1,0,0,rectangle,12,-10,1,0,0,12,-10,1,0,0,0,122,122,151,1,,,,,,,,
,,,,,,,,,,,,,FF,,,,,,,,0.986,,,,,,,,,,,,,,,,,,,,,,6102185a2bc0fd85fda9aed0,61036e7db6e75d34076a7e00,2021-07-29_23h14.42.109,Simcolourproject_2stim_asymm_v5,2020.2.10,MacIntel,60,61025ae37ef11b136ea224fe,,,,,,,,,1545,73,-50,1,0,0,response3disk,,5,-4,-3,1,0,0,rectangle,-4,-3,1,0,0,-4,-3,1,0,0,0,123,123,129,1,,,,,,,,
,,,,,,,,,,,,,FF,,,,,,,,1.031,,,,,,,,,,,,,,,,,,,,,,6102185a2bc0fd85fda9aed0,61036e7db6e75d34076a7e00,2021-07-29_23h14.42.109,Simcolourproject_2stim_asymm_v5,2020.2.10,MacIntel,60,61025ae37ef11b136ea224fe,,,,,,,,,1429,33,-82,1,0,0,response3disk,,4,7,-1,1,0,0,rectangle,7,-1,1,0,0,7,-1,1,0,0,0,124,124,149,1,,,,,,,,
,,,,,,,,,,,,,FF,,,,,,,,0.867,,,,,,,,,,,,,,,,,,,,,,6102185a2bc0fd85fda9aed0,61036e7db6e75d34076a7e00,2021-07-29_23h14.42.109,Simcolourproject_2stim_asymm_v5,2020.2.10,MacIntel,60,61025ae37ef11b136ea224fe,,,,,,,,,712,27,-69,1,0,0,response3disk,,4,6,-2,1,0,0,rectangle,6,-2,1,0,0,6,-2,1,0,0,0,125,125,35,1,,,,,,,,
,,,,,,,,,,,,,FF,,,,,,,,1.535,,,,,,,,,,,,,,,,,,,,,,6102185a2bc0fd85fda9aed0,61036e7db6e75d34076a7e00,2021-07-29_23h14.42.109,Simcolourproject_2stim_asymm_v5,2020.2.10,MacIntel,60,61025ae37ef11b136ea224fe,,,,,,,,,3693,75,28,1,0,0,response1disk,,6,17,5,1,0,0,rectangle,17,5,1,0,0,17,5,1,0,0,0,126,126,144,1,,,,,,,,
,,,,,,,,,,,,,FF,,,,,,,,0.895,,,,,,,,,,,,,,,,,,,,,,6102185a2bc0fd85fda9aed0,61036e7db6e75d34076a7e00,2021-07-29_23h14.42.109,Simcolourproject_2stim_asymm_v5,2020.2.10,MacIntel,60,61025ae37ef11b136ea224fe,,,,,,,,,2866,37,-77,1,0,0,response3disk,,4,13,-5,1,0,0,rectangle,13,-5,1,0,0,13,-5,1,0,0,0,127,127,139,1,,,,,,,,
,,,,,,,,,,,,,FF,,,,,,,,0.751,,,,,,,,,,,,,,,,,,,,,,6102185a2bc0fd85fda9aed0,61036e7db6e75d34076a7e00,2021-07-29_23h14.42.109,Simcolourproject_2stim_asymm_v5,2020.2.10,MacIntel,60,61025ae37ef11b136ea224fe,,,,,,,,,3387,62,-37,1,0,0,response3disk,,5,10,-12,1,0,0,rectangle,10,-12,1,0,0,10,-12,1,0,0,0,128,128,126,1,,,,,,,,
,,,,,,,,,,,,,FF,,,,,,,,0.962,,,,,,,,,,,,,,,,,,,,,,6102185a2bc0fd85fda9aed0,61036e7db6e75d34076a7e00,2021-07-29_23h14.42.109,Simcolourproject_2stim_asymm_v5,2020.2.10,MacIntel,60,61025ae37ef11b136ea224fe,,,,,,,,,1175,31,-79,1,0,0,response3disk,,4,14,-7,1,0,0,rectangle,14,-7,1,0,0,14,-7,1,0,0,0,129,129,3,1,,,,,,,,
,,,,,,,,,,,,,FF,,,,,,,,2.868,,,,,,,,,,,,,,,,,,,,,,6102185a2bc0fd85fda9aed0,61036e7db6e75d34076a7e00,2021-07-29_23h14.42.109,Simcolourproject_2stim_asymm_v5,2020.2.10,MacIntel,60,61025ae37ef11b136ea224fe,,,,,,,,,3650,80,-38,1,0,0,response3disk,,5,-5,2,1,0,0,rectangle,-5,2,1,0,0,-5,2,1,0,0,0,130,130,128,1,,,,,,,,
,,,,,,,,,,,,,FF,,,,,,,,0.761,,,,,,,,,,,,,,,,,,,,,,6102185a2bc0fd85fda9aed0,61036e7db6e75d34076a7e00,2021-07-29_23h14.42.109,Simcolourproject_2stim_asymm_v5,2020.2.10,MacIntel,60,61025ae37ef11b136ea224fe,,,,,,,,,643,-27,-63,1,0,0,response5disk,,3,2,9,1,0,0,rectangle,2,9,1,0,0,2,9,1,0,0,0,131,131,72,1,,,,,,,,
,,,,,,,,,,,,,FF,,,,,,,,0.984,,,,,,,,,,,,,,,,,,,,,,6102185a2bc0fd85fda9aed0,61036e7db6e75d34076a7e00,2021-07-29_23h14.42.109,Simcolourproject_2stim_asymm_v5,2020.2.10,MacIntel,60,61025ae37ef11b136ea224fe,,,,,,,,,3376,-36,-76,1,0,0,response5disk,,3,-11,-5,1,0,0,rectangle,-11,-5,1,0,0,-11,-5,1,0,0,0,132,132,153,1,,,,,,,,
,,,,,,,,,,,,,FF,,,,,,,,1.801,,,,,,,,,,,,,,,,,,,,,,6102185a2bc0fd85fda9aed0,61036e7db6e75d34076a7e00,2021-07-29_23h14.42.109,Simcolourproject_2stim_asymm_v5,2020.2.10,MacIntel,60,61025ae37ef11b136ea224fe,,,,,,,,,2630,40,-72,1,0,0,response3disk,,4,7,-12,1,0,0,rectangle,7,-12,1,0,0,7,-12,1,0,0,0,133,133,1,1,,,,,,,,
,,,,,,,,,,,,,FF,,,,,,,,1.05,,,,,,,,,,,,,,,,,,,,,,6102185a2bc0fd85fda9aed0,61036e7db6e75d34076a7e00,2021-07-29_23h14.42.109,Simcolourproject_2stim_asymm_v5,2020.2.10,MacIntel,60,61025ae37ef11b136ea224fe,,,,,,,,,3500,69,-32,1,0,0,response3disk,,5,12,1,1,0,0,rectangle,12,1,1,0,0,12,1,1,0,0,0,134,134,113,1,,,,,,,,
,,,,,,,,,,,,,FF,,,,,,,,0.947,,,,,,,,,,,,,,,,,,,,,,6102185a2bc0fd85fda9aed0,61036e7db6e75d34076a7e00,2021-07-29_23h14.42.109,Simcolourproject_2stim_asymm_v5,2020.2.10,MacIntel,60,61025ae37ef11b136ea224fe,,,,,,,,,1849,91,-33,1,0,0,response3disk,,5,6,-8,1,0,0,rectangle,6,-8,1,0,0,6,-8,1,0,0,0,135,135,143,1,,,,,,,,
,,,,,,,,,,,,,FF,,,,,,,,0.732,,,,,,,,,,,,,,,,,,,,,,6102185a2bc0fd85fda9aed0,61036e7db6e75d34076a7e00,2021-07-29_23h14.42.109,Simcolourproject_2stim_asymm_v5,2020.2.10,MacIntel,60,61025ae37ef11b136ea224fe,,,,,,,,,3683,71,26,1,0,0,response1disk,,6,19,1,1,0,0,rectangle,19,1,1,0,0,19,1,1,0,0,0,136,136,83,1,,,,,,,,
,,,,,,,,,,,,,FF,,,,,,,,1.157,,,,,,,,,,,,,,,,,,,,,,6102185a2bc0fd85fda9aed0,61036e7db6e75d34076a7e00,2021-07-29_23h14.42.109,Simcolourproject_2stim_asymm_v5,2020.2.10,MacIntel,60,61025ae37ef11b136ea224fe,,,,,,,,,1401,66,27,1,0,0,response1disk,,6,12,-2,1,0,0,rectangle,12,-2,1,0,0,12,-2,1,0,0,0,137,137,155,1,,,,,,,,
,,,,,,,,,,,,,FF,,,,,,,,0.646,,,,,,,,,,,,,,,,,,,,,,6102185a2bc0fd85fda9aed0,61036e7db6e75d34076a7e00,2021-07-29_23h14.42.109,Simcolourproject_2stim_asymm_v5,2020.2.10,MacIntel,60,61025ae37ef11b136ea224fe,,,,,,,,,358,67,-42,1,0,0,response3disk,,5,1,0,1,0,0,rectangle,1,0,1,0,0,1,0,1,0,0,0,138,138,54,1,,,,,,,,
,,,,,,,,,,,,,FF,,,,,,,,0.629,,,,,,,,,,,,,,,,,,,,,,6102185a2bc0fd85fda9aed0,61036e7db6e75d34076a7e00,2021-07-29_23h14.42.109,Simcolourproject_2stim_asymm_v5,2020.2.10,MacIntel,60,61025ae37ef11b136ea224fe,,,,,,,,,1337,58,-37,1,0,0,response3disk,,5,3,6,1,0,0,rectangle,3,6,1,0,0,3,6,1,0,0,0,139,139,123,1,,,,,,,,
,,,,,,,,,,,,,FF,,,,,,,,0.929,,,,,,,,,,,,,,,,,,,,,,6102185a2bc0fd85fda9aed0,61036e7db6e75d34076a7e00,2021-07-29_23h14.42.109,Simcolourproject_2stim_asymm_v5,2020.2.10,MacIntel,60,61025ae37ef11b136ea224fe,,,,,,,,,1295,-53,-61,1,0,0,response5disk,,3,-11,-12,1,0,0,rectangle,-11,-12,1,0,0,-11,-12,1,0,0,0,140,140,75,1,,,,,,,,
,,,,,,,,,,,,,FF,,,,,,,,0.951,,,,,,,,,,,,,,,,,,,,,,6102185a2bc0fd85fda9aed0,61036e7db6e75d34076a7e00,2021-07-29_23h14.42.109,Simcolourproject_2stim_asymm_v5,2020.2.10,MacIntel,60,61025ae37ef11b136ea224fe,,,,,,,,,484,43,-65,1,0,0,response3disk,,4,5,-1,1,0,0,rectangle,5,-1,1,0,0,5,-1,1,0,0,0,141,141,77,1,,,,,,,,
,,,,,,,,,,,,,FF,,,,,,,,2.019,,,,,,,,,,,,,,,,,,,,,,6102185a2bc0fd85fda9aed0,61036e7db6e75d34076a7e00,2021-07-29_23h14.42.109,Simcolourproject_2stim_asymm_v5,2020.2.10,MacIntel,60,61025ae37ef11b136ea224fe,,,,,,,,,2995,-40,-84,1,0,0,response5disk,,3,-6,-10,1,0,0,rectangle,-6,-10,1,0,0,-6,-10,1,0,0,0,142,142,135,1,,,,,,,,
,,,,,,,,,,,,,FF,,,,,,,,0.616,,,,,,,,,,,,,,,,,,,,,,6102185a2bc0fd85fda9aed0,61036e7db6e75d34076a7e00,2021-07-29_23h14.42.109,Simcolourproject_2stim_asymm_v5,2020.2.10,MacIntel,60,61025ae37ef11b136ea224fe,,,,,,,,,1647,31,-90,1,0,0,response3disk,,4,18,-7,1,0,0,rectangle,18,-7,1,0,0,18,-7,1,0,0,0,143,143,111,1,,,,,,,,
,,,,,,,,,,,,,FF,,,,,,,,0.736,,,,,,,,,,,,,,,,,,,,,,6102185a2bc0fd85fda9aed0,61036e7db6e75d34076a7e00,2021-07-29_23h14.42.109,Simcolourproject_2stim_asymm_v5,2020.2.10,MacIntel,60,61025ae37ef11b136ea224fe,,,,,,,,,1469,-32,-65,1,0,0,response5disk,,3,-3,4,1,0,0,rectangle,-3,4,1,0,0,-3,4,1,0,0,0,144,144,115,1,,,,,,,,
,,,,,,,,,,,,,FF,,,,,,,,0.835,,,,,,,,,,,,,,,,,,,,,,6102185a2bc0fd85fda9aed0,61036e7db6e75d34076a7e00,2021-07-29_23h14.42.109,Simcolourproject_2stim_asymm_v5,2020.2.10,MacIntel,60,61025ae37ef11b136ea224fe,,,,,,,,,4322,51,-98,1,0,0,response3disk,,4,20,-8,1,0,0,rectangle,20,-8,1,0,0,20,-8,1,0,0,0,145,145,147,1,,,,,,,,
,,,,,,,,,,,,,FF,,,,,,,,0.844,,,,,,,,,,,,,,,,,,,,,,6102185a2bc0fd85fda9aed0,61036e7db6e75d34076a7e00,2021-07-29_23h14.42.109,Simcolourproject_2stim_asymm_v5,2020.2.10,MacIntel,60,61025ae37ef11b136ea224fe,,,,,,,,,445,-70,-34,1,0,0,response5disk,,2,-12,-10,1,0,0,rectangle,-12,-10,1,0,0,-12,-10,1,0,0,0,146,146,16,1,,,,,,,,
,,,,,,,,,,,,,FF,,,,,,,,0.756,,,,,,,,,,,,,,,,,,,,,,6102185a2bc0fd85fda9aed0,61036e7db6e75d34076a7e00,2021-07-29_23h14.42.109,Simcolourproject_2stim_asymm_v5,2020.2.10,MacIntel,60,61025ae37ef11b136ea224fe,,,,,,,,,2180,29,-61,1,0,0,response3disk,,4,15,-6,1,0,0,rectangle,15,-6,1,0,0,15,-6,1,0,0,0,147,147,8,1,,,,,,,,
,,,,,,,,,,,,,FF,,,,,,,,0.994,,,,,,,,,,,,,,,,,,,,,,6102185a2bc0fd85fda9aed0,61036e7db6e75d34076a7e00,2021-07-29_23h14.42.109,Simcolourproject_2stim_asymm_v5,2020.2.10,MacIntel,60,61025ae37ef11b136ea224fe,,,,,,,,,3222,47,-66,1,0,0,response3disk,,4,-4,13,1,0,0,rectangle,-4,13,1,0,0,-4,13,1,0,0,0,148,148,78,1,,,,,,,,
,,,,,,,,,,,,,FF,,,,,,,,0.532,,,,,,,,,,,,,,,,,,,,,,6102185a2bc0fd85fda9aed0,61036e7db6e75d34076a7e00,2021-07-29_23h14.42.109,Simcolourproject_2stim_asymm_v5,2020.2.10,MacIntel,60,61025ae37ef11b136ea224fe,,,,,,,,,3125,-21,-55,1,0,0,response5disk,,3,-3,-1,1,0,0,rectangle,-3,-1,1,0,0,-3,-1,1,0,0,0,149,149,66,1,,,,,,,,
,,,,,,,,,,,,,FF,,,,,,,,1.602,,,,,,,,,,,,,,,,,,,,,,6102185a2bc0fd85fda9aed0,61036e7db6e75d34076a7e00,2021-07-29_23h14.42.109,Simcolourproject_2stim_asymm_v5,2020.2.10,MacIntel,60,61025ae37ef11b136ea224fe,,,,,,,,,1978,70,-40,1,0,0,response3disk,,5,-2,2,1,0,0,rectangle,-2,2,1,0,0,-2,2,1,0,0,0,150,150,152,1,,,,,,,,
,,,,,,,,,,,,,FF,,,,,,,,0.575,,,,,,,,,,,,,,,,,,,,,,6102185a2bc0fd85fda9aed0,61036e7db6e75d34076a7e00,2021-07-29_23h14.42.109,Simcolourproject_2stim_asymm_v5,2020.2.10,MacIntel,60,61025ae37ef11b136ea224fe,,,,,,,,,2037,67,-30,1,0,0,response3disk,,5,16,2,1,0,0,rectangle,16,2,1,0,0,16,2,1,0,0,0,151,151,102,1,,,,,,,,
,,,,,,,,,,,,,FF,,,,,,,,0.78,,,,,,,,,,,,,,,,,,,,,,6102185a2bc0fd85fda9aed0,61036e7db6e75d34076a7e00,2021-07-29_23h14.42.109,Simcolourproject_2stim_asymm_v5,2020.2.10,MacIntel,60,61025ae37ef11b136ea224fe,,,,,,,,,3442,71,-36,1,0,0,response3disk,,5,7,0,1,0,0,rectangle,7,0,1,0,0,7,0,1,0,0,0,152,152,119,1,,,,,,,,
,,,,,,,,,,,,,FF,,,,,,,,0.74,,,,,,,,,,,,,,,,,,,,,,6102185a2bc0fd85fda9aed0,61036e7db6e75d34076a7e00,2021-07-29_23h14.42.109,Simcolourproject_2stim_asymm_v5,2020.2.10,MacIntel,60,61025ae37ef11b136ea224fe,,,,,,,,,2422,-29,-64,1,0,0,response5disk,,3,1,7,1,0,0,rectangle,1,7,1,0,0,1,7,1,0,0,0,153,153,84,1,,,,,,,,
,,,,,,,,,,,,,FF,,,,,,,,0.767,,,,,,,,,,,,,,,,,,,,,,6102185a2bc0fd85fda9aed0,61036e7db6e75d34076a7e00,2021-07-29_23h14.42.109,Simcolourproject_2stim_asymm_v5,2020.2.10,MacIntel,60,61025ae37ef11b136ea224fe,,,,,,,,,1977,51,-64,1,0,0,response3disk,,4,11,6,1,0,0,rectangle,11,6,1,0,0,11,6,1,0,0,0,154,154,49,1,,,,,,,,
,,,,,,,,,,,,,FF,,,,,,,,0.9,,,,,,,,,,,,,,,,,,,,,,6102185a2bc0fd85fda9aed0,61036e7db6e75d34076a7e00,2021-07-29_23h14.42.109,Simcolourproject_2stim_asymm_v5,2020.2.10,MacIntel,60,61025ae37ef11b136ea224fe,,,,,,,,,410,-26,-82,1,0,0,response5disk,,3,-7,-8,1,0,0,rectangle,-7,-8,1,0,0,-7,-8,1,0,0,0,155,155,112,1,,,,,,,,
,,,,,,,,,,,,,FF,,,,,,,,0.717,,,,,,,,,,,,,,,,,,,,,,6102185a2bc0fd85fda9aed0,61036e7db6e75d34076a7e00,2021-07-29_23h14.42.109,Simcolourproject_2stim_asymm_v5,2020.2.10,MacIntel,60,61025ae37ef11b136ea224fe,,,,,,,,,1811,32,-61,1,0,0,response3disk,,4,5,-7,1,0,0,rectangle,5,-7,1,0,0,5,-7,1,0,0,0,156,156,60,1,,,,,,,,
,,,,,,,,,,,,,FF,,,,,,,,0.686,,,,,,,,,,,,,,,,,,,,,,6102185a2bc0fd85fda9aed0,61036e7db6e75d34076a7e00,2021-07-29_23h14.42.109,Simcolourproject_2stim_asymm_v5,2020.2.10,MacIntel,60,61025ae37ef11b136ea224fe,,,,,,,,,2612,73,-47,1,0,0,response3disk,,5,6,-4,1,0,0,rectangle,-22,58,1,0,0,-18,0,1,0,0,0,157,157,13,1,,response7disk_3,TRUE,0,0,"[118,298,217,261,109,208,272,91,25,288,291,188,310,94,158,3,235,97,112,317]",1.376,rectangle
,,,,,,,,,,,,,FF,,,,,,,,0.782,,,,,,,,,,,,,,,,,,,,,,6102185a2bc0fd85fda9aed0,61036e7db6e75d34076a7e00,2021-07-29_23h14.42.109,Simcolourproject_2stim_asymm_v5,2020.2.10,MacIntel,60,61025ae37ef11b136ea224fe,,,,,,,,,3283,-70,-34,1,0,0,response5disk,,2,6,-12,1,0,0,rectangle,6,-12,1,0,0,6,-12,1,0,0,0,158,158,47,1,,,,,,,,
,,,,,,,,,,,,,FF,,,,,,,,0.68,,,,,,,,,,,,,,,,,,,,,,6102185a2bc0fd85fda9aed0,61036e7db6e75d34076a7e00,2021-07-29_23h14.42.109,Simcolourproject_2stim_asymm_v5,2020.2.10,MacIntel,60,61025ae37ef11b136ea224fe,,,,,,,,,4166,-32,-80,1,0,0,response5disk,,3,-3,10,1,0,0,rectangle,-3,10,1,0,0,-3,10,1,0,0,0,159,159,52,1,,,,,,,,
,,,,,,,,,,,,,FF,,,,,,,,0.884,,,,,,,,,,,,,,,,,,,,,,6102185a2bc0fd85fda9aed0,61036e7db6e75d34076a7e00,2021-07-29_23h14.42.109,Simcolourproject_2stim_asymm_v5,2020.2.10,MacIntel,60,61025ae37ef11b136ea224fe,,,,,,,,,4041,-31,-74,1,0,0,response5disk,,3,1,-8,1,0,0,rectangle,1,-8,1,0,0,1,-8,1,0,0,1,0,160,142,1,,,,,,,,
,,,,,,,,,,,,,FF,,,,,,,,1.862,,,,,,,,,,,,,,,,,,,,,,6102185a2bc0fd85fda9aed0,61036e7db6e75d34076a7e00,2021-07-29_23h14.42.109,Simcolourproject_2stim_asymm_v5,2020.2.10,MacIntel,60,61025ae37ef11b136ea224fe,,,,,,,,,3623,-22,-59,1,0,0,response5disk,,3,21,7,1,0,0,rectangle,21,7,1,0,0,21,7,1,0,0,1,1,161,4,1,,,,,,,,
,,,,,,,,,,,,,FF,,,,,,,,0.754,,,,,,,,,,,,,,,,,,,,,,6102185a2bc0fd85fda9aed0,61036e7db6e75d34076a7e00,2021-07-29_23h14.42.109,Simcolourproject_2stim_asymm_v5,2020.2.10,MacIntel,60,61025ae37ef11b136ea224fe,,,,,,,,,3821,40,-78,1,0,0,response3disk,,4,12,10,1,0,0,rectangle,12,10,1,0,0,12,10,1,0,0,1,2,162,122,1,,,,,,,,
,,,,,,,,,,,,,FF,,,,,,,,1.429,,,,,,,,,,,,,,,,,,,,,,6102185a2bc0fd85fda9aed0,61036e7db6e75d34076a7e00,2021-07-29_23h14.42.109,Simcolourproject_2stim_asymm_v5,2020.2.10,MacIntel,60,61025ae37ef11b136ea224fe,,,,,,,,,3292,-30,-76,1,0,0,response5disk,,3,-2,-1,1,0,0,rectangle,-2,-1,1,0,0,-2,-1,1,0,0,1,3,163,14,1,,,,,,,,
,,,,,,,,,,,,,FF,,,,,,,,0.951,,,,,,,,,,,,,,,,,,,,,,6102185a2bc0fd85fda9aed0,61036e7db6e75d34076a7e00,2021-07-29_23h14.42.109,Simcolourproject_2stim_asymm_v5,2020.2.10,MacIntel,60,61025ae37ef11b136ea224fe,,,,,,,,,1434,55,-65,1,0,0,response3disk,,4,8,-7,1,0,0,rectangle,8,-7,1,0,0,8,-7,1,0,0,1,4,164,47,1,,,,,,,,
,,,,,,,,,,,,,FF,,,,,,,,1.492,,,,,,,,,,,,,,,,,,,,,,6102185a2bc0fd85fda9aed0,61036e7db6e75d34076a7e00,2021-07-29_23h14.42.109,Simcolourproject_2stim_asymm_v5,2020.2.10,MacIntel,60,61025ae37ef11b136ea224fe,,,,,,,,,3351,84,-45,1,0,0,response3disk,,5,7,1,1,0,0,rectangle,7,1,1,0,0,7,1,1,0,0,1,5,165,99,1,,,,,,,,
,,,,,,,,,,,,,FF,,,,,,,,0.847,,,,,,,,,,,,,,,,,,,,,,6102185a2bc0fd85fda9aed0,61036e7db6e75d34076a7e00,2021-07-29_23h14.42.109,Simcolourproject_2stim_asymm_v5,2020.2.10,MacIntel,60,61025ae37ef11b136ea224fe,,,,,,,,,457,-45,-57,1,0,0,response5disk,,3,-7,9,1,0,0,rectangle,-7,9,1,0,0,-7,9,1,0,0,1,6,166,132,1,,,,,,,,
,,,,,,,,,,,,,FF,,,,,,,,0.652,,,,,,,,,,,,,,,,,,,,,,6102185a2bc0fd85fda9aed0,61036e7db6e75d34076a7e00,2021-07-29_23h14.42.109,Simcolourproject_2stim_asymm_v5,2020.2.10,MacIntel,60,61025ae37ef11b136ea224fe,,,,,,,,,2585,40,-80,1,0,0,response3disk,,4,5,-1,1,0,0,rectangle,5,-1,1,0,0,5,-1,1,0,0,1,7,167,130,1,,,,,,,,
,,,,,,,,,,,,,FF,,,,,,,,0.654,,,,,,,,,,,,,,,,,,,,,,6102185a2bc0fd85fda9aed0,61036e7db6e75d34076a7e00,2021-07-29_23h14.42.109,Simcolourproject_2stim_asymm_v5,2020.2.10,MacIntel,60,61025ae37ef11b136ea224fe,,,,,,,,,117,36,-61,1,0,0,response3disk,,4,14,-11,1,0,0,rectangle,14,-11,1,0,0,14,-11,1,0,0,1,8,168,58,1,,,,,,,,
,,,,,,,,,,,,,FF,,,,,,,,0.668,,,,,,,,,,,,,,,,,,,,,,6102185a2bc0fd85fda9aed0,61036e7db6e75d34076a7e00,2021-07-29_23h14.42.109,Simcolourproject_2stim_asymm_v5,2020.2.10,MacIntel,60,61025ae37ef11b136ea224fe,,,,,,,,,4071,-29,83,1,0,0,response7disk,,0,-10,0,1,0,0,rectangle,-10,0,1,0,0,-10,0,1,0,0,1,9,169,106,1,,,,,,,,
,,,,,,,,,,,,,FF,,,,,,,,0.597,,,,,,,,,,,,,,,,,,,,,,6102185a2bc0fd85fda9aed0,61036e7db6e75d34076a7e00,2021-07-29_23h14.42.109,Simcolourproject_2stim_asymm_v5,2020.2.10,MacIntel,60,61025ae37ef11b136ea224fe,,,,,,,,,4301,38,-65,1,0,0,response3disk,,4,10,-12,1,0,0,rectangle,10,-12,1,0,0,10,-12,1,0,0,1,10,170,51,1,,,,,,,,
,,,,,,,,,,,,,FF,,,,,,,,1.363,,,,,,,,,,,,,,,,,,,,,,6102185a2bc0fd85fda9aed0,61036e7db6e75d34076a7e00,2021-07-29_23h14.42.109,Simcolourproject_2stim_asymm_v5,2020.2.10,MacIntel,60,61025ae37ef11b136ea224fe,,,,,,,,,1790,53,-76,1,0,0,response3disk,,4,17,-11,1,0,0,rectangle,17,-11,1,0,0,17,-11,1,0,0,1,11,171,44,1,,,,,,,,
,,,,,,,,,,,,,FF,,,,,,,,0.686,,,,,,,,,,,,,,,,,,,,,,6102185a2bc0fd85fda9aed0,61036e7db6e75d34076a7e00,2021-07-29_23h14.42.109,Simcolourproject_2stim_asymm_v5,2020.2.10,MacIntel,60,61025ae37ef11b136ea224fe,,,,,,,,,1113,-27,-85,1,0,0,response5disk,,3,-7,-2,1,0,0,rectangle,-7,-2,1,0,0,-7,-2,1,0,0,1,12,172,38,1,,,,,,,,
,,,,,,,,,,,,,FF,,,,,,,,0.898,,,,,,,,,,,,,,,,,,,,,,6102185a2bc0fd85fda9aed0,61036e7db6e75d34076a7e00,2021-07-29_23h14.42.109,Simcolourproject_2stim_asymm_v5,2020.2.10,MacIntel,60,61025ae37ef11b136ea224fe,,,,,,,,,3583,-75,-41,1,0,0,response5disk,,2,0,9,1,0,0,rectangle,0,9,1,0,0,0,9,1,0,0,1,13,173,11,1,,,,,,,,
,,,,,,,,,,,,,FF,,,,,,,,1.366,,,,,,,,,,,,,,,,,,,,,,6102185a2bc0fd85fda9aed0,61036e7db6e75d34076a7e00,2021-07-29_23h14.42.109,Simcolourproject_2stim_asymm_v5,2020.2.10,MacIntel,60,61025ae37ef11b136ea224fe,,,,,,,,,601,89,-43,1,0,0,response3disk,,5,7,-9,1,0,0,rectangle,7,-9,1,0,0,7,-9,1,0,0,1,14,174,148,1,,,,,,,,
,,,,,,,,,,,,,FF,,,,,,,,1.49,,,,,,,,,,,,,,,,,,,,,,6102185a2bc0fd85fda9aed0,61036e7db6e75d34076a7e00,2021-07-29_23h14.42.109,Simcolourproject_2stim_asymm_v5,2020.2.10,MacIntel,60,61025ae37ef11b136ea224fe,,,,,,,,,1725,94,-43,1,0,0,response3disk,,5,6,-2,1,0,0,rectangle,6,-2,1,0,0,6,-2,1,0,0,1,15,175,28,1,,,,,,,,
,,,,,,,,,,,,,FF,,,,,,,,1.646,,,,,,,,,,,,,,,,,,,,,,6102185a2bc0fd85fda9aed0,61036e7db6e75d34076a7e00,2021-07-29_23h14.42.109,Simcolourproject_2stim_asymm_v5,2020.2.10,MacIntel,60,61025ae37ef11b136ea224fe,,,,,,,,,4107,-30,-102,1,0,0,response5disk,,3,-6,1,1,0,0,rectangle,-6,1,1,0,0,-6,1,1,0,0,1,16,176,108,1,,,,,,,,
,,,,,,,,,,,,,FF,,,,,,,,1,,,,,,,,,,,,,,,,,,,,,,6102185a2bc0fd85fda9aed0,61036e7db6e75d34076a7e00,2021-07-29_23h14.42.109,Simcolourproject_2stim_asymm_v5,2020.2.10,MacIntel,60,61025ae37ef11b136ea224fe,,,,,,,,,1372,-41,-48,1,0,0,response5disk,,3,-1,5,1,0,0,rectangle,-1,5,1,0,0,-1,5,1,0,0,1,17,177,32,1,,,,,,,,
,,,,,,,,,,,,,FF,,,,,,,,1.317,,,,,,,,,,,,,,,,,,,,,,6102185a2bc0fd85fda9aed0,61036e7db6e75d34076a7e00,2021-07-29_23h14.42.109,Simcolourproject_2stim_asymm_v5,2020.2.10,MacIntel,60,61025ae37ef11b136ea224fe,,,,,,,,,2862,-24,-75,1,0,0,response5disk,,3,4,-10,1,0,0,rectangle,4,-10,1,0,0,4,-10,1,0,0,1,18,178,153,1,,,,,,,,
,,,,,,,,,,,,,FF,,,,,,,,0.754,,,,,,,,,,,,,,,,,,,,,,6102185a2bc0fd85fda9aed0,61036e7db6e75d34076a7e00,2021-07-29_23h14.42.109,Simcolourproject_2stim_asymm_v5,2020.2.10,MacIntel,60,61025ae37ef11b136ea224fe,,,,,,,,,2088,37,-74,1,0,0,response3disk,,4,-6,9,1,0,0,rectangle,-6,9,1,0,0,-6,9,1,0,0,1,19,179,50,1,,,,,,,,
,,,,,,,,,,,,,FF,,,,,,,,0.815,,,,,,,,,,,,,,,,,,,,,,6102185a2bc0fd85fda9aed0,61036e7db6e75d34076a7e00,2021-07-29_23h14.42.109,Simcolourproject_2stim_asymm_v5,2020.2.10,MacIntel,60,61025ae37ef11b136ea224fe,,,,,,,,,400,37,-88,1,0,0,response3disk,,4,22,3,1,0,0,rectangle,22,3,1,0,0,22,3,1,0,0,1,20,180,45,1,,,,,,,,
,,,,,,,,,,,,,FF,,,,,,,,0.868,,,,,,,,,,,,,,,,,,,,,,6102185a2bc0fd85fda9aed0,61036e7db6e75d34076a7e00,2021-07-29_23h14.42.109,Simcolourproject_2stim_asymm_v5,2020.2.10,MacIntel,60,61025ae37ef11b136ea224fe,,,,,,,,,1628,61,-32,1,0,0,response3disk,,5,-4,4,1,0,0,rectangle,-4,4,1,0,0,-4,4,1,0,0,1,21,181,12,1,,,,,,,,
,,,,,,,,,,,,,FF,,,,,,,,1.209,,,,,,,,,,,,,,,,,,,,,,6102185a2bc0fd85fda9aed0,61036e7db6e75d34076a7e00,2021-07-29_23h14.42.109,Simcolourproject_2stim_asymm_v5,2020.2.10,MacIntel,60,61025ae37ef11b136ea224fe,,,,,,,,,4348,-40,-78,1,0,0,response5disk,,3,9,-5,1,0,0,rectangle,9,-5,1,0,0,9,-5,1,0,0,1,22,182,80,1,,,,,,,,
,,,,,,,,,,,,,FF,,,,,,,,0.764,,,,,,,,,,,,,,,,,,,,,,6102185a2bc0fd85fda9aed0,61036e7db6e75d34076a7e00,2021-07-29_23h14.42.109,Simcolourproject_2stim_asymm_v5,2020.2.10,MacIntel,60,61025ae37ef11b136ea224fe,,,,,,,,,888,-46,-69,1,0,0,response5disk,,3,17,10,1,0,0,rectangle,17,10,1,0,0,17,10,1,0,0,1,23,183,72,1,,,,,,,,
,,,,,,,,,,,,,FF,,,,,,,,0.736,,,,,,,,,,,,,,,,,,,,,,6102185a2bc0fd85fda9aed0,61036e7db6e75d34076a7e00,2021-07-29_23h14.42.109,Simcolourproject_2stim_asymm_v5,2020.2.10,MacIntel,60,61025ae37ef11b136ea224fe,,,,,,,,,1410,28,-66,1,0,0,response3disk,,4,-5,2,1,0,0,rectangle,-5,2,1,0,0,-5,2,1,0,0,1,24,184,124,1,,,,,,,,
,,,,,,,,,,,,,FF,,,,,,,,0.779,,,,,,,,,,,,,,,,,,,,,,6102185a2bc0fd85fda9aed0,61036e7db6e75d34076a7e00,2021-07-29_23h14.42.109,Simcolourproject_2stim_asymm_v5,2020.2.10,MacIntel,60,61025ae37ef11b136ea224fe,,,,,,,,,3974,-54,-87,1,0,0,response5disk,,3,-10,-11,1,0,0,rectangle,-10,-11,1,0,0,-10,-11,1,0,0,1,25,185,71,1,,,,,,,,
,,,,,,,,,,,,,FF,,,,,,,,0.742,,,,,,,,,,,,,,,,,,,,,,6102185a2bc0fd85fda9aed0,61036e7db6e75d34076a7e00,2021-07-29_23h14.42.109,Simcolourproject_2stim_asymm_v5,2020.2.10,MacIntel,60,61025ae37ef11b136ea224fe,,,,,,,,,3966,-56,-23,1,0,0,response5disk,,2,7,6,1,0,0,rectangle,7,6,1,0,0,7,6,1,0,0,1,26,186,82,1,,,,,,,,
,,,,,,,,,,,,,FF,,,,,,,,1.548,,,,,,,,,,,,,,,,,,,,,,6102185a2bc0fd85fda9aed0,61036e7db6e75d34076a7e00,2021-07-29_23h14.42.109,Simcolourproject_2stim_asymm_v5,2020.2.10,MacIntel,60,61025ae37ef11b136ea224fe,,,,,,,,,3240,-38,-70,1,0,0,response5disk,,3,2,-4,1,0,0,rectangle,63,71,1,0,0,7,-6,1,0,0,1,27,187,76,1,,response1disk_3,TRUE,7,7,"[118,298,217,261,109,208,272,91,25,288,291,188,310,94,158,3,235,97,112,317]",1.694,rectangle
,,,,,,,,,,,,,FF,,,,,,,,1.062,,,,,,,,,,,,,,,,,,,,,,6102185a2bc0fd85fda9aed0,61036e7db6e75d34076a7e00,2021-07-29_23h14.42.109,Simcolourproject_2stim_asymm_v5,2020.2.10,MacIntel,60,61025ae37ef11b136ea224fe,,,,,,,,,796,51,-60,1,0,0,response3disk,,4,13,-6,1,0,0,rectangle,13,-6,1,0,0,13,-6,1,0,0,1,28,188,66,1,,,,,,,,
,,,,,,,,,,,,,FF,,,,,,,,0.674,,,,,,,,,,,,,,,,,,,,,,6102185a2bc0fd85fda9aed0,61036e7db6e75d34076a7e00,2021-07-29_23h14.42.109,Simcolourproject_2stim_asymm_v5,2020.2.10,MacIntel,60,61025ae37ef11b136ea224fe,,,,,,,,,196,-22,-57,1,0,0,response5disk,,3,-6,-12,1,0,0,rectangle,-6,-12,1,0,0,-6,-12,1,0,0,1,29,189,29,1,,,,,,,,
,,,,,,,,,,,,,FF,,,,,,,,0.718,,,,,,,,,,,,,,,,,,,,,,6102185a2bc0fd85fda9aed0,61036e7db6e75d34076a7e00,2021-07-29_23h14.42.109,Simcolourproject_2stim_asymm_v5,2020.2.10,MacIntel,60,61025ae37ef11b136ea224fe,,,,,,,,,3527,88,-31,1,0,0,response3disk,,5,4,-15,1,0,0,rectangle,4,-15,1,0,0,4,-15,1,0,0,1,30,190,96,1,,,,,,,,
,,,,,,,,,,,,,FF,,,,,,,,1.129,,,,,,,,,,,,,,,,,,,,,,6102185a2bc0fd85fda9aed0,61036e7db6e75d34076a7e00,2021-07-29_23h14.42.109,Simcolourproject_2stim_asymm_v5,2020.2.10,MacIntel,60,61025ae37ef11b136ea224fe,,,,,,,,,4207,-61,25,1,0,0,response7disk,,1,12,-16,1,0,0,rectangle,12,-16,1,0,0,12,-16,1,0,0,1,31,191,48,1,,,,,,,,
,,,,,,,,,,,,,FF,,,,,,,,1.04,,,,,,,,,,,,,,,,,,,,,,6102185a2bc0fd85fda9aed0,61036e7db6e75d34076a7e00,2021-07-29_23h14.42.109,Simcolourproject_2stim_asymm_v5,2020.2.10,MacIntel,60,61025ae37ef11b136ea224fe,,,,,,,,,224,-37,-77,1,0,0,response5disk,,3,-5,-9,1,0,0,rectangle,-5,-9,1,0,0,-5,-9,1,0,0,1,32,192,114,1,,,,,,,,
,,,,,,,,,,,,,FF,,,,,,,,0.762,,,,,,,,,,,,,,,,,,,,,,6102185a2bc0fd85fda9aed0,61036e7db6e75d34076a7e00,2021-07-29_23h14.42.109,Simcolourproject_2stim_asymm_v5,2020.2.10,MacIntel,60,61025ae37ef11b136ea224fe,,,,,,,,,3063,-29,-59,1,0,0,response5disk,,3,0,-10,1,0,0,rectangle,0,-10,1,0,0,0,-10,1,0,0,1,33,193,112,1,,,,,,,,
,,,,,,,,,,,,,FF,,,,,,,,0.808,,,,,,,,,,,,,,,,,,,,,,6102185a2bc0fd85fda9aed0,61036e7db6e75d34076a7e00,2021-07-29_23h14.42.109,Simcolourproject_2stim_asymm_v5,2020.2.10,MacIntel,60,61025ae37ef11b136ea224fe,,,,,,,,,3458,82,-48,1,0,0,response3disk,,5,-16,-2,1,0,0,rectangle,-16,-2,1,0,0,-16,-2,1,0,0,1,34,194,64,1,,,,,,,,
,,,,,,,,,,,,,FF,,,,,,,,1.331,,,,,,,,,,,,,,,,,,,,,,6102185a2bc0fd85fda9aed0,61036e7db6e75d34076a7e00,2021-07-29_23h14.42.109,Simcolourproject_2stim_asymm_v5,2020.2.10,MacIntel,60,61025ae37ef11b136ea224fe,,,,,,,,,1891,78,-54,1,0,0,response3disk,,5,-16,-14,1,0,0,rectangle,-16,-14,1,0,0,-16,-14,1,0,0,1,35,195,6,1,,,,,,,,
,,,,,,,,,,,,,FF,,,,,,,,1.052,,,,,,,,,,,,,,,,,,,,,,6102185a2bc0fd85fda9aed0,61036e7db6e75d34076a7e00,2021-07-29_23h14.42.109,Simcolourproject_2stim_asymm_v5,2020.2.10,MacIntel,60,61025ae37ef11b136ea224fe,,,,,,,,,1147,-33,-77,1,0,0,response5disk,,3,14,0,1,0,0,rectangle,14,0,1,0,0,14,0,1,0,0,1,36,196,104,1,,,,,,,,
,,,,,,,,,,,,,FF,,,,,,,,0.936,,,,,,,,,,,,,,,,,,,,,,6102185a2bc0fd85fda9aed0,61036e7db6e75d34076a7e00,2021-07-29_23h14.42.109,Simcolourproject_2stim_asymm_v5,2020.2.10,MacIntel,60,61025ae37ef11b136ea224fe,,,,,,,,,1716,77,-37,1,0,0,response3disk,,5,8,-7,1,0,0,rectangle,8,-7,1,0,0,8,-7,1,0,0,1,37,197,141,1,,,,,,,,
,,,,,,,,,,,,,FF,,,,,,,,1.17,,,,,,,,,,,,,,,,,,,,,,6102185a2bc0fd85fda9aed0,61036e7db6e75d34076a7e00,2021-07-29_23h14.42.109,Simcolourproject_2stim_asymm_v5,2020.2.10,MacIntel,60,61025ae37ef11b136ea224fe,,,,,,,,,3339,-45,-76,1,0,0,response5disk,,3,-2,5,1,0,0,rectangle,-2,5,1,0,0,-2,5,1,0,0,1,38,198,1,1,,,,,,,,
,,,,,,,,,,,,,FF,,,,,,,,0.985,,,,,,,,,,,,,,,,,,,,,,6102185a2bc0fd85fda9aed0,61036e7db6e75d34076a7e00,2021-07-29_23h14.42.109,Simcolourproject_2stim_asymm_v5,2020.2.10,MacIntel,60,61025ae37ef11b136ea224fe,,,,,,,,,3750,78,-48,1,0,0,response3disk,,5,3,-1,1,0,0,rectangle,3,-1,1,0,0,3,-1,1,0,0,1,39,199,26,1,,,,,,,,
,,,,,,,,,,,,,FF,,,,,,,,0.716,,,,,,,,,,,,,,,,,,,,,,6102185a2bc0fd85fda9aed0,61036e7db6e75d34076a7e00,2021-07-29_23h14.42.109,Simcolourproject_2stim_asymm_v5,2020.2.10,MacIntel,60,61025ae37ef11b136ea224fe,,,,,,,,,1875,42,-81,1,0,0,response3disk,,4,11,-5,1,0,0,rectangle,11,-5,1,0,0,11,-5,1,0,0,1,40,200,54,1,,,,,,,,
,,,,,,,,,,,,,FF,,,,,,,,1.157,,,,,,,,,,,,,,,,,,,,,,6102185a2bc0fd85fda9aed0,61036e7db6e75d34076a7e00,2021-07-29_23h14.42.109,Simcolourproject_2stim_asymm_v5,2020.2.10,MacIntel,60,61025ae37ef11b136ea224fe,,,,,,,,,3667,76,-53,1,0,0,response3disk,,5,7,-6,1,0,0,rectangle,7,-6,1,0,0,7,-6,1,0,0,1,41,201,22,1,,,,,,,,
,,,,,,,,,,,,,FF,,,,,,,,2.87,,,,,,,,,,,,,,,,,,,,,,6102185a2bc0fd85fda9aed0,61036e7db6e75d34076a7e00,2021-07-29_23h14.42.109,Simcolourproject_2stim_asymm_v5,2020.2.10,MacIntel,60,61025ae37ef11b136ea224fe,,,,,,,,,1575,-46,-78,1,0,0,response5disk,,3,-3,-2,1,0,0,rectangle,-3,-2,1,0,0,-3,-2,1,0,0,1,42,202,56,1,,,,,,,,
,,,,,,,,,,,,,FF,,,,,,,,0.682,,,,,,,,,,,,,,,,,,,,,,6102185a2bc0fd85fda9aed0,61036e7db6e75d34076a7e00,2021-07-29_23h14.42.109,Simcolourproject_2stim_asymm_v5,2020.2.10,MacIntel,60,61025ae37ef11b136ea224fe,,,,,,,,,4287,85,-43,1,0,0,response3disk,,5,-2,-8,1,0,0,rectangle,-2,-8,1,0,0,-2,-8,1,0,0,1,43,203,60,1,,,,,,,,
,,,,,,,,,,,,,FF,,,,,,,,0.802,,,,,,,,,,,,,,,,,,,,,,6102185a2bc0fd85fda9aed0,61036e7db6e75d34076a7e00,2021-07-29_23h14.42.109,Simcolourproject_2stim_asymm_v5,2020.2.10,MacIntel,60,61025ae37ef11b136ea224fe,,,,,,,,,1165,70,35,1,0,0,response1disk,,6,-4,3,1,0,0,rectangle,-4,3,1,0,0,-4,3,1,0,0,1,44,204,30,1,,,,,,,,
,,,,,,,,,,,,,FF,,,,,,,,1.233,,,,,,,,,,,,,,,,,,,,,,6102185a2bc0fd85fda9aed0,61036e7db6e75d34076a7e00,2021-07-29_23h14.42.109,Simcolourproject_2stim_asymm_v5,2020.2.10,MacIntel,60,61025ae37ef11b136ea224fe,,,,,,,,,1868,70,-40,1,0,0,response3disk,,5,4,-7,1,0,0,rectangle,4,-7,1,0,0,4,-7,1,0,0,1,45,205,117,1,,,,,,,,
,,,,,,,,,,,,,FF,,,,,,,,0.929,,,,,,,,,,,,,,,,,,,,,,6102185a2bc0fd85fda9aed0,61036e7db6e75d34076a7e00,2021-07-29_23h14.42.109,Simcolourproject_2stim_asymm_v5,2020.2.10,MacIntel,60,61025ae37ef11b136ea224fe,,,,,,,,,2402,42,-93,1,0,0,response3disk,,4,23,-14,1,0,0,rectangle,23,-14,1,0,0,23,-14,1,0,0,1,46,206,113,1,,,,,,,,
,,,,,,,,,,,,,FF,,,,,,,,1.084,,,,,,,,,,,,,,,,,,,,,,6102185a2bc0fd85fda9aed0,61036e7db6e75d34076a7e00,2021-07-29_23h14.42.109,Simcolourproject_2stim_asymm_v5,2020.2.10,MacIntel,60,61025ae37ef11b136ea224fe,,,,,,,,,3436,81,-46,1,0,0,response3disk,,5,10,14,1,0,0,rectangle,31,73,1,0,0,9,-5,1,0,0,1,47,207,20,1,,response1disk_3,TRUE,7,7,"[118,298,217,261,109,208,272,91,25,288,291,188,310,94,158,3,235,97,112,317]",1.945,rectangle
,,,,,,,,,,,,,FF,,,,,,,,1.161,,,,,,,,,,,,,,,,,,,,,,6102185a2bc0fd85fda9aed0,61036e7db6e75d34076a7e00,2021-07-29_23h14.42.109,Simcolourproject_2stim_asymm_v5,2020.2.10,MacIntel,60,61025ae37ef11b136ea224fe,,,,,,,,,2933,-61,-31,1,0,0,response5disk,,2,13,-8,1,0,0,rectangle,13,-8,1,0,0,13,-8,1,0,0,1,48,208,68,1,,,,,,,,
,,,,,,,,,,,,,FF,,,,,,,,1.018,,,,,,,,,,,,,,,,,,,,,,6102185a2bc0fd85fda9aed0,61036e7db6e75d34076a7e00,2021-07-29_23h14.42.109,Simcolourproject_2stim_asymm_v5,2020.2.10,MacIntel,60,61025ae37ef11b136ea224fe,,,,,,,,,3657,41,-76,1,0,0,response3disk,,4,-6,-7,1,0,0,rectangle,-6,-7,1,0,0,-6,-7,1,0,0,1,49,209,94,1,,,,,,,,
,,,,,,,,,,,,,FF,,,,,,,,1.051,,,,,,,,,,,,,,,,,,,,,,6102185a2bc0fd85fda9aed0,61036e7db6e75d34076a7e00,2021-07-29_23h14.42.109,Simcolourproject_2stim_asymm_v5,2020.2.10,MacIntel,60,61025ae37ef11b136ea224fe,,,,,,,,,4253,-79,-27,1,0,0,response5disk,,2,0,6,1,0,0,rectangle,0,6,1,0,0,0,6,1,0,0,1,50,210,147,1,,,,,,,,
,,,,,,,,,,,,,FF,,,,,,,,0.674,,,,,,,,,,,,,,,,,,,,,,6102185a2bc0fd85fda9aed0,61036e7db6e75d34076a7e00,2021-07-29_23h14.42.109,Simcolourproject_2stim_asymm_v5,2020.2.10,MacIntel,60,61025ae37ef11b136ea224fe,,,,,,,,,2689,16,-86,1,0,0,response3disk,,4,-11,-4,1,0,0,rectangle,-11,-4,1,0,0,-11,-4,1,0,0,1,51,211,7,1,,,,,,,,
,,,,,,,,,,,,,FF,,,,,,,,0.86,,,,,,,,,,,,,,,,,,,,,,6102185a2bc0fd85fda9aed0,61036e7db6e75d34076a7e00,2021-07-29_23h14.42.109,Simcolourproject_2stim_asymm_v5,2020.2.10,MacIntel,60,61025ae37ef11b136ea224fe,,,,,,,,,399,-54,-73,1,0,0,response5disk,,3,11,9,1,0,0,rectangle,11,9,1,0,0,11,9,1,0,0,1,52,212,126,1,,,,,,,,
,,,,,,,,,,,,,FF,,,,,,,,1.045,,,,,,,,,,,,,,,,,,,,,,6102185a2bc0fd85fda9aed0,61036e7db6e75d34076a7e00,2021-07-29_23h14.42.109,Simcolourproject_2stim_asymm_v5,2020.2.10,MacIntel,60,61025ae37ef11b136ea224fe,,,,,,,,,1719,47,-57,1,0,0,response3disk,,4,16,-5,1,0,0,rectangle,16,-5,1,0,0,16,-5,1,0,0,1,53,213,158,1,,,,,,,,
,,,,,,,,,,,,,FF,,,,,,,,1.514,,,,,,,,,,,,,,,,,,,,,,6102185a2bc0fd85fda9aed0,61036e7db6e75d34076a7e00,2021-07-29_23h14.42.109,Simcolourproject_2stim_asymm_v5,2020.2.10,MacIntel,60,61025ae37ef11b136ea224fe,,,,,,,,,4009,40,-66,1,0,0,response3disk,,4,11,-1,1,0,0,rectangle,11,-1,1,0,0,11,-1,1,0,0,1,54,214,146,1,,,,,,,,
,,,,,,,,,,,,,FF,,,,,,,,1.354,,,,,,,,,,,,,,,,,,,,,,6102185a2bc0fd85fda9aed0,61036e7db6e75d34076a7e00,2021-07-29_23h14.42.109,Simcolourproject_2stim_asymm_v5,2020.2.10,MacIntel,60,61025ae37ef11b136ea224fe,,,,,,,,,3982,81,-34,1,0,0,response3disk,,5,-11,8,1,0,0,rectangle,-11,8,1,0,0,-11,8,1,0,0,1,55,215,52,1,,,,,,,,
,,,,,,,,,,,,,FF,,,,,,,,2.202,,,,,,,,,,,,,,,,,,,,,,6102185a2bc0fd85fda9aed0,61036e7db6e75d34076a7e00,2021-07-29_23h14.42.109,Simcolourproject_2stim_asymm_v5,2020.2.10,MacIntel,60,61025ae37ef11b136ea224fe,,,,,,,,,3782,46,-22,1,0,0,response3disk,,5,-6,6,1,0,0,rectangle,-18,50,1,0,0,10,-13,1,0,0,1,56,216,19,1,,response7disk_3,TRUE,0,0,"[118,298,217,261,109,208,272,91,25,288,291,188,310,94,158,3,235,97,112,317]",1.583,rectangle
,,,,,,,,,,,,,FF,,,,,,,,0.818,,,,,,,,,,,,,,,,,,,,,,6102185a2bc0fd85fda9aed0,61036e7db6e75d34076a7e00,2021-07-29_23h14.42.109,Simcolourproject_2stim_asymm_v5,2020.2.10,MacIntel,60,61025ae37ef11b136ea224fe,,,,,,,,,2361,-69,-38,1,0,0,response5disk,,2,7,-7,1,0,0,rectangle,7,-7,1,0,0,7,-7,1,0,0,1,57,217,103,1,,,,,,,,
,,,,,,,,,,,,,FF,,,,,,,,1.031,,,,,,,,,,,,,,,,,,,,,,6102185a2bc0fd85fda9aed0,61036e7db6e75d34076a7e00,2021-07-29_23h14.42.109,Simcolourproject_2stim_asymm_v5,2020.2.10,MacIntel,60,61025ae37ef11b136ea224fe,,,,,,,,,2704,-28,-80,1,0,0,response5disk,,3,2,-2,1,0,0,rectangle,2,-2,1,0,0,2,-2,1,0,0,1,58,218,115,1,,,,,,,,
,,,,,,,,,,,,,FF,,,,,,,,0.971,,,,,,,,,,,,,,,,,,,,,,6102185a2bc0fd85fda9aed0,61036e7db6e75d34076a7e00,2021-07-29_23h14.42.109,Simcolourproject_2stim_asymm_v5,2020.2.10,MacIntel,60,61025ae37ef11b136ea224fe,,,,,,,,,597,79,-49,1,0,0,response3disk,,5,8,0,1,0,0,rectangle,8,0,1,0,0,8,0,1,0,0,1,59,219,121,1,,,,,,,,
,,,,,,,,,,,,,FF,,,,,,,,1.068,,,,,,,,,,,,,,,,,,,,,,6102185a2bc0fd85fda9aed0,61036e7db6e75d34076a7e00,2021-07-29_23h14.42.109,Simcolourproject_2stim_asymm_v5,2020.2.10,MacIntel,60,61025ae37ef11b136ea224fe,,,,,,,,,1032,-74,-37,1,0,0,response5disk,,2,4,2,1,0,0,rectangle,4,2,1,0,0,4,2,1,0,0,1,60,220,154,1,,,,,,,,
,,,,,,,,,,,,,FF,,,,,,,,1.283,,,,,,,,,,,,,,,,,,,,,,6102185a2bc0fd85fda9aed0,61036e7db6e75d34076a7e00,2021-07-29_23h14.42.109,Simcolourproject_2stim_asymm_v5,2020.2.10,MacIntel,60,61025ae37ef11b136ea224fe,,,,,,,,,2812,78,-41,1,0,0,response3disk,,5,5,2,1,0,0,rectangle,5,2,1,0,0,5,2,1,0,0,1,61,221,24,1,,,,,,,,
,,,,,,,,,,,,,FF,,,,,,,,0.836,,,,,,,,,,,,,,,,,,,,,,6102185a2bc0fd85fda9aed0,61036e7db6e75d34076a7e00,2021-07-29_23h14.42.109,Simcolourproject_2stim_asymm_v5,2020.2.10,MacIntel,60,61025ae37ef11b136ea224fe,,,,,,,,,2886,-52,62,1,0,0,response7disk,,0,-9,-3,1,0,0,rectangle,-9,-3,1,0,0,-9,-3,1,0,0,1,62,222,128,1,,,,,,,,
,,,,,,,,,,,,,FF,,,,,,,,2.687,,,,,,,,,,,,,,,,,,,,,,6102185a2bc0fd85fda9aed0,61036e7db6e75d34076a7e00,2021-07-29_23h14.42.109,Simcolourproject_2stim_asymm_v5,2020.2.10,MacIntel,60,61025ae37ef11b136ea224fe,,,,,,,,,2848,-32,-78,1,0,0,response5disk,,3,14,-1,1,0,0,rectangle,14,-1,1,0,0,14,-1,1,0,0,1,63,223,15,1,,,,,,,,
,,,,,,,,,,,,,FF,,,,,,,,1.184,,,,,,,,,,,,,,,,,,,,,,6102185a2bc0fd85fda9aed0,61036e7db6e75d34076a7e00,2021-07-29_23h14.42.109,Simcolourproject_2stim_asymm_v5,2020.2.10,MacIntel,60,61025ae37ef11b136ea224fe,,,,,,,,,2543,-20,-72,1,0,0,response5disk,,3,9,2,1,0,0,rectangle,9,2,1,0,0,9,2,1,0,0,1,64,224,93,1,,,,,,,,
,,,,,,,,,,,,,FF,,,,,,,,0.833,,,,,,,,,,,,,,,,,,,,,,6102185a2bc0fd85fda9aed0,61036e7db6e75d34076a7e00,2021-07-29_23h14.42.109,Simcolourproject_2stim_asymm_v5,2020.2.10,MacIntel,60,61025ae37ef11b136ea224fe,,,,,,,,,4024,-75,-39,1,0,0,response5disk,,2,16,-3,1,0,0,rectangle,16,-3,1,0,0,16,-3,1,0,0,1,65,225,41,1,,,,,,,,
,,,,,,,,,,,,,FF,,,,,,,,1.369,,,,,,,,,,,,,,,,,,,,,,6102185a2bc0fd85fda9aed0,61036e7db6e75d34076a7e00,2021-07-29_23h14.42.109,Simcolourproject_2stim_asymm_v5,2020.2.10,MacIntel,60,61025ae37ef11b136ea224fe,,,,,,,,,3784,-35,-69,1,0,0,response5disk,,3,19,-6,1,0,0,rectangle,19,-6,1,0,0,19,-6,1,0,0,1,66,226,86,1,,,,,,,,
,,,,,,,,,,,,,FF,,,,,,,,2.377,,,,,,,,,,,,,,,,,,,,,,6102185a2bc0fd85fda9aed0,61036e7db6e75d34076a7e00,2021-07-29_23h14.42.109,Simcolourproject_2stim_asymm_v5,2020.2.10,MacIntel,60,61025ae37ef11b136ea224fe,,,,,,,,,2613,-80,-39,1,0,0,response5disk,,2,-6,4,1,0,0,rectangle,-6,4,1,0,0,-6,4,1,0,0,1,67,227,105,1,,,,,,,,
,,,,,,,,,,,,,FF,,,,,,,,1.091,,,,,,,,,,,,,,,,,,,,,,6102185a2bc0fd85fda9aed0,61036e7db6e75d34076a7e00,2021-07-29_23h14.42.109,Simcolourproject_2stim_asymm_v5,2020.2.10,MacIntel,60,61025ae37ef11b136ea224fe,,,,,,,,,1892,-78,-29,1,0,0,response5disk,,2,15,1,1,0,0,rectangle,15,1,1,0,0,15,1,1,0,0,1,68,228,123,1,,,,,,,,
,,,,,,,,,,,,,FF,,,,,,,,0.917,,,,,,,,,,,,,,,,,,,,,,6102185a2bc0fd85fda9aed0,61036e7db6e75d34076a7e00,2021-07-29_23h14.42.109,Simcolourproject_2stim_asymm_v5,2020.2.10,MacIntel,60,61025ae37ef11b136ea224fe,,,,,,,,,655,-30,-88,1,0,0,response5disk,,3,12,-4,1,0,0,rectangle,12,-4,1,0,0,12,-4,1,0,0,1,69,229,120,1,,,,,,,,
,,,,,,,,,,,,,FF,,,,,,,,0.811,,,,,,,,,,,,,,,,,,,,,,6102185a2bc0fd85fda9aed0,61036e7db6e75d34076a7e00,2021-07-29_23h14.42.109,Simcolourproject_2stim_asymm_v5,2020.2.10,MacIntel,60,61025ae37ef11b136ea224fe,,,,,,,,,1737,43,-71,1,0,0,response3disk,,4,18,-1,1,0,0,rectangle,18,-1,1,0,0,18,-1,1,0,0,1,70,230,10,1,,,,,,,,
,,,,,,,,,,,,,FF,,,,,,,,2.006,,,,,,,,,,,,,,,,,,,,,,6102185a2bc0fd85fda9aed0,61036e7db6e75d34076a7e00,2021-07-29_23h14.42.109,Simcolourproject_2stim_asymm_v5,2020.2.10,MacIntel,60,61025ae37ef11b136ea224fe,,,,,,,,,3140,-79,-40,1,0,0,response5disk,,2,-9,-6,1,0,0,rectangle,-9,-6,1,0,0,-9,-6,1,0,0,1,71,231,49,1,,,,,,,,
,,,,,,,,,,,,,FF,,,,,,,,1.361,,,,,,,,,,,,,,,,,,,,,,6102185a2bc0fd85fda9aed0,61036e7db6e75d34076a7e00,2021-07-29_23h14.42.109,Simcolourproject_2stim_asymm_v5,2020.2.10,MacIntel,60,61025ae37ef11b136ea224fe,,,,,,,,,3992,98,-51,1,0,0,response3disk,,5,-10,-8,1,0,0,rectangle,-10,-8,1,0,0,-10,-8,1,0,0,1,72,232,91,1,,,,,,,,
,,,,,,,,,,,,,FF,,,,,,,,1.342,,,,,,,,,,,,,,,,,,,,,,6102185a2bc0fd85fda9aed0,61036e7db6e75d34076a7e00,2021-07-29_23h14.42.109,Simcolourproject_2stim_asymm_v5,2020.2.10,MacIntel,60,61025ae37ef11b136ea224fe,,,,,,,,,2752,-20,-77,1,0,0,response5disk,,3,8,1,1,0,0,rectangle,8,1,1,0,0,8,1,1,0,0,1,73,233,83,1,,,,,,,,
,,,,,,,,,,,,,FF,,,,,,,,0.731,,,,,,,,,,,,,,,,,,,,,,6102185a2bc0fd85fda9aed0,61036e7db6e75d34076a7e00,2021-07-29_23h14.42.109,Simcolourproject_2stim_asymm_v5,2020.2.10,MacIntel,60,61025ae37ef11b136ea224fe,,,,,,,,,2093,-38,82,1,0,0,response7disk,,0,-6,-2,1,0,0,rectangle,-102,-46,1,0,0,-1,-6,1,0,0,1,74,234,69,1,,response5disk_3,TRUE,2,2,"[118,298,217,261,109,208,272,91,25,288,291,188,310,94,158,3,235,97,112,317]",1.686,rectangle
,,,,,,,,,,,,,FF,,,,,,,,0.781,,,,,,,,,,,,,,,,,,,,,,6102185a2bc0fd85fda9aed0,61036e7db6e75d34076a7e00,2021-07-29_23h14.42.109,Simcolourproject_2stim_asymm_v5,2020.2.10,MacIntel,60,61025ae37ef11b136ea224fe,,,,,,,,,1684,-80,-30,1,0,0,response5disk,,2,11,-2,1,0,0,rectangle,11,-2,1,0,0,11,-2,1,0,0,1,75,235,155,1,,,,,,,,
,,,,,,,,,,,,,FF,,,,,,,,0.959,,,,,,,,,,,,,,,,,,,,,,6102185a2bc0fd85fda9aed0,61036e7db6e75d34076a7e00,2021-07-29_23h14.42.109,Simcolourproject_2stim_asymm_v5,2020.2.10,MacIntel,60,61025ae37ef11b136ea224fe,,,,,,,,,2259,51,-76,1,0,0,response3disk,,4,20,12,1,0,0,rectangle,20,12,1,0,0,20,12,1,0,0,1,76,236,9,1,,,,,,,,
,,,,,,,,,,,,,FF,,,,,,,,1.533,,,,,,,,,,,,,,,,,,,,,,6102185a2bc0fd85fda9aed0,61036e7db6e75d34076a7e00,2021-07-29_23h14.42.109,Simcolourproject_2stim_asymm_v5,2020.2.10,MacIntel,60,61025ae37ef11b136ea224fe,,,,,,,,,1989,45,89,1,0,0,response1disk,,7,4,-2,1,0,0,rectangle,4,-2,1,0,0,4,-2,1,0,0,1,77,237,149,1,,,,,,,,
,,,,,,,,,,,,,FF,,,,,,,,1.298,,,,,,,,,,,,,,,,,,,,,,6102185a2bc0fd85fda9aed0,61036e7db6e75d34076a7e00,2021-07-29_23h14.42.109,Simcolourproject_2stim_asymm_v5,2020.2.10,MacIntel,60,61025ae37ef11b136ea224fe,,,,,,,,,2043,-26,-63,1,0,0,response5disk,,3,-7,-14,1,0,0,rectangle,-7,-14,1,0,0,-7,-14,1,0,0,1,78,238,61,1,,,,,,,,
,,,,,,,,,,,,,FF,,,,,,,,2.169,,,,,,,,,,,,,,,,,,,,,,6102185a2bc0fd85fda9aed0,61036e7db6e75d34076a7e00,2021-07-29_23h14.42.109,Simcolourproject_2stim_asymm_v5,2020.2.10,MacIntel,60,61025ae37ef11b136ea224fe,,,,,,,,,156,-32,-74,1,0,0,response5disk,,3,6,-2,1,0,0,rectangle,6,-2,1,0,0,6,-2,1,0,0,1,79,239,116,1,,,,,,,,
,,,,,,,,,,,,,FF,,,,,,,,1.718,,,,,,,,,,,,,,,,,,,,,,6102185a2bc0fd85fda9aed0,61036e7db6e75d34076a7e00,2021-07-29_23h14.42.109,Simcolourproject_2stim_asymm_v5,2020.2.10,MacIntel,60,61025ae37ef11b136ea224fe,,,,,,,,,1459,-84,-43,1,0,0,response5disk,,2,8,0,1,0,0,rectangle,8,0,1,0,0,8,0,1,0,0,1,80,240,90,1,,,,,,,,
,,,,,,,,,,,,,FF,,,,,,,,0.717,,,,,,,,,,,,,,,,,,,,,,6102185a2bc0fd85fda9aed0,61036e7db6e75d34076a7e00,2021-07-29_23h14.42.109,Simcolourproject_2stim_asymm_v5,2020.2.10,MacIntel,60,61025ae37ef11b136ea224fe,,,,,,,,,1861,70,-52,1,0,0,response3disk,,5,11,3,1,0,0,rectangle,11,3,1,0,0,11,3,1,0,0,1,81,241,143,1,,,,,,,,
,,,,,,,,,,,,,FF,,,,,,,,1.157,,,,,,,,,,,,,,,,,,,,,,6102185a2bc0fd85fda9aed0,61036e7db6e75d34076a7e00,2021-07-29_23h14.42.109,Simcolourproject_2stim_asymm_v5,2020.2.10,MacIntel,60,61025ae37ef11b136ea224fe,,,,,,,,,2924,38,-90,1,0,0,response3disk,,4,-2,3,1,0,0,rectangle,-2,3,1,0,0,-2,3,1,0,0,1,82,242,21,1,,,,,,,,
,,,,,,,,,,,,,FF,,,,,,,,0.744,,,,,,,,,,,,,,,,,,,,,,6102185a2bc0fd85fda9aed0,61036e7db6e75d34076a7e00,2021-07-29_23h14.42.109,Simcolourproject_2stim_asymm_v5,2020.2.10,MacIntel,60,61025ae37ef11b136ea224fe,,,,,,,,,3321,69,-37,1,0,0,response3disk,,5,8,2,1,0,0,rectangle,8,2,1,0,0,8,2,1,0,0,1,83,243,79,1,,,,,,,,
,,,,,,,,,,,,,FF,,,,,,,,0.553,,,,,,,,,,,,,,,,,,,,,,6102185a2bc0fd85fda9aed0,61036e7db6e75d34076a7e00,2021-07-29_23h14.42.109,Simcolourproject_2stim_asymm_v5,2020.2.10,MacIntel,60,61025ae37ef11b136ea224fe,,,,,,,,,215,70,-27,1,0,0,response3disk,,5,7,-4,1,0,0,rectangle,7,-4,1,0,0,7,-4,1,0,0,1,84,244,81,1,,,,,,,,
,,,,,,,,,,,,,FF,,,,,,,,0.551,,,,,,,,,,,,,,,,,,,,,,6102185a2bc0fd85fda9aed0,61036e7db6e75d34076a7e00,2021-07-29_23h14.42.109,Simcolourproject_2stim_asymm_v5,2020.2.10,MacIntel,60,61025ae37ef11b136ea224fe,,,,,,,,,940,75,-29,1,0,0,response3disk,,5,-9,1,1,0,0,rectangle,-9,1,1,0,0,-9,1,1,0,0,1,85,245,101,1,,,,,,,,
,,,,,,,,,,,,,FF,,,,,,,,1.084,,,,,,,,,,,,,,,,,,,,,,6102185a2bc0fd85fda9aed0,61036e7db6e75d34076a7e00,2021-07-29_23h14.42.109,Simcolourproject_2stim_asymm_v5,2020.2.10,MacIntel,60,61025ae37ef11b136ea224fe,,,,,,,,,1513,76,-42,1,0,0,response3disk,,5,1,6,1,0,0,rectangle,1,6,1,0,0,1,6,1,0,0,1,86,246,39,1,,,,,,,,
,,,,,,,,,,,,,FF,,,,,,,,0.466,,,,,,,,,,,,,,,,,,,,,,6102185a2bc0fd85fda9aed0,61036e7db6e75d34076a7e00,2021-07-29_23h14.42.109,Simcolourproject_2stim_asymm_v5,2020.2.10,MacIntel,60,61025ae37ef11b136ea224fe,,,,,,,,,3402,63,-30,1,0,0,response3disk,,5,7,-6,1,0,0,rectangle,7,-6,1,0,0,7,-6,1,0,0,1,87,247,55,1,,,,,,,,
,,,,,,,,,,,,,FF,,,,,,,,0.45,,,,,,,,,,,,,,,,,,,,,,6102185a2bc0fd85fda9aed0,61036e7db6e75d34076a7e00,2021-07-29_23h14.42.109,Simcolourproject_2stim_asymm_v5,2020.2.10,MacIntel,60,61025ae37ef11b136ea224fe,,,,,,,,,3072,55,-54,1,0,0,response3disk,,5,14,8,1,0,0,rectangle,14,8,1,0,0,14,8,1,0,0,1,88,248,25,1,,,,,,,,
,,,,,,,,,,,,,FF,,,,,,,,0.506,,,,,,,,,,,,,,,,,,,,,,6102185a2bc0fd85fda9aed0,61036e7db6e75d34076a7e00,2021-07-29_23h14.42.109,Simcolourproject_2stim_asymm_v5,2020.2.10,MacIntel,60,61025ae37ef11b136ea224fe,,,,,,,,,2508,65,-48,1,0,0,response3disk,,5,-21,5,1,0,0,rectangle,-21,5,1,0,0,-21,5,1,0,0,1,89,249,137,1,,,,,,,,
,,,,,,,,,,,,,FF,,,,,,,,1.285,,,,,,,,,,,,,,,,,,,,,,6102185a2bc0fd85fda9aed0,61036e7db6e75d34076a7e00,2021-07-29_23h14.42.109,Simcolourproject_2stim_asymm_v5,2020.2.10,MacIntel,60,61025ae37ef11b136ea224fe,,,,,,,,,184,43,-68,1,0,0,response3disk,,4,21,4,1,0,0,rectangle,21,4,1,0,0,21,4,1,0,0,1,90,250,139,1,,,,,,,,
,,,,,,,,,,,,,FF,,,,,,,,0.641,,,,,,,,,,,,,,,,,,,,,,6102185a2bc0fd85fda9aed0,61036e7db6e75d34076a7e00,2021-07-29_23h14.42.109,Simcolourproject_2stim_asymm_v5,2020.2.10,MacIntel,60,61025ae37ef11b136ea224fe,,,,,,,,,97,-34,-85,1,0,0,response5disk,,3,13,1,1,0,0,rectangle,13,1,1,0,0,13,1,1,0,0,1,91,251,59,1,,,,,,,,
,,,,,,,,,,,,,FF,,,,,,,,0.633,,,,,,,,,,,,,,,,,,,,,,6102185a2bc0fd85fda9aed0,61036e7db6e75d34076a7e00,2021-07-29_23h14.42.109,Simcolourproject_2stim_asymm_v5,2020.2.10,MacIntel,60,61025ae37ef11b136ea224fe,,,,,,,,,3455,80,-33,1,0,0,response3disk,,5,-3,2,1,0,0,rectangle,-3,2,1,0,0,-3,2,1,0,0,1,92,252,89,1,,,,,,,,
,,,,,,,,,,,,,FF,,,,,,,,1.283,,,,,,,,,,,,,,,,,,,,,,6102185a2bc0fd85fda9aed0,61036e7db6e75d34076a7e00,2021-07-29_23h14.42.109,Simcolourproject_2stim_asymm_v5,2020.2.10,MacIntel,60,61025ae37ef11b136ea224fe,,,,,,,,,761,78,47,1,0,0,response1disk,,6,9,7,1,0,0,rectangle,9,7,1,0,0,9,7,1,0,0,1,93,253,135,1,,,,,,,,
,,,,,,,,,,,,,FF,,,,,,,,0.661,,,,,,,,,,,,,,,,,,,,,,6102185a2bc0fd85fda9aed0,61036e7db6e75d34076a7e00,2021-07-29_23h14.42.109,Simcolourproject_2stim_asymm_v5,2020.2.10,MacIntel,60,61025ae37ef11b136ea224fe,,,,,,,,,3401,69,28,1,0,0,response1disk,,6,5,-2,1,0,0,rectangle,5,-2,1,0,0,5,-2,1,0,0,1,94,254,46,1,,,,,,,,
,,,,,,,,,,,,,FF,,,,,,,,0.909,,,,,,,,,,,,,,,,,,,,,,6102185a2bc0fd85fda9aed0,61036e7db6e75d34076a7e00,2021-07-29_23h14.42.109,Simcolourproject_2stim_asymm_v5,2020.2.10,MacIntel,60,61025ae37ef11b136ea224fe,,,,,,,,,3238,-54,-82,1,0,0,response5disk,,3,-9,-9,1,0,0,rectangle,-9,-9,1,0,0,-9,-9,1,0,0,1,95,255,87,1,,,,,,,,
,,,,,,,,,,,,,FF,,,,,,,,3.785,,,,,,,,,,,,,,,,,,,,,,6102185a2bc0fd85fda9aed0,61036e7db6e75d34076a7e00,2021-07-29_23h14.42.109,Simcolourproject_2stim_asymm_v5,2020.2.10,MacIntel,60,61025ae37ef11b136ea224fe,,,,,,,,,3309,68,-40,1,0,0,response3disk,,5,-5,12,1,0,0,rectangle,-5,12,1,0,0,-5,12,1,0,0,1,96,256,18,1,,,,,,,,
,,,,,,,,,,,,,FF,,,,,,,,0.729,,,,,,,,,,,,,,,,,,,,,,6102185a2bc0fd85fda9aed0,61036e7db6e75d34076a7e00,2021-07-29_23h14.42.109,Simcolourproject_2stim_asymm_v5,2020.2.10,MacIntel,60,61025ae37ef11b136ea224fe,,,,,,,,,4133,-57,-76,1,0,0,response5disk,,3,3,-7,1,0,0,rectangle,3,-7,1,0,0,3,-7,1,0,0,1,97,257,97,1,,,,,,,,
,,,,,,,,,,,,,FF,,,,,,,,1.227,,,,,,,,,,,,,,,,,,,,,,6102185a2bc0fd85fda9aed0,61036e7db6e75d34076a7e00,2021-07-29_23h14.42.109,Simcolourproject_2stim_asymm_v5,2020.2.10,MacIntel,60,61025ae37ef11b136ea224fe,,,,,,,,,478,-41,-69,1,0,0,response5disk,,3,0,-15,1,0,0,rectangle,0,-15,1,0,0,0,-15,1,0,0,1,98,258,34,1,,,,,,,,
,,,,,,,,,,,,,FF,,,,,,,,0.767,,,,,,,,,,,,,,,,,,,,,,6102185a2bc0fd85fda9aed0,61036e7db6e75d34076a7e00,2021-07-29_23h14.42.109,Simcolourproject_2stim_asymm_v5,2020.2.10,MacIntel,60,61025ae37ef11b136ea224fe,,,,,,,,,2442,75,-44,1,0,0,response3disk,,5,5,3,1,0,0,rectangle,5,3,1,0,0,5,3,1,0,0,1,99,259,151,1,,,,,,,,
,,,,,,,,,,,,,FF,,,,,,,,1.467,,,,,,,,,,,,,,,,,,,,,,6102185a2bc0fd85fda9aed0,61036e7db6e75d34076a7e00,2021-07-29_23h14.42.109,Simcolourproject_2stim_asymm_v5,2020.2.10,MacIntel,60,61025ae37ef11b136ea224fe,,,,,,,,,3466,42,-81,1,0,0,response3disk,,4,11,2,1,0,0,rectangle,-42,-72,1,0,0,2,0,1,0,0,1,100,260,43,1,,response5disk_3,TRUE,3,3,"[118,298,217,261,109,208,272,91,25,288,291,188,310,94,158,3,235,97,112,317]",1.72,rectangle
,,,,,,,,,,,,,FF,,,,,,,,1.216,,,,,,,,,,,,,,,,,,,,,,6102185a2bc0fd85fda9aed0,61036e7db6e75d34076a7e00,2021-07-29_23h14.42.109,Simcolourproject_2stim_asymm_v5,2020.2.10,MacIntel,60,61025ae37ef11b136ea224fe,,,,,,,,,838,50,-76,1,0,0,response3disk,,4,5,1,1,0,0,rectangle,5,1,1,0,0,5,1,1,0,0,1,101,261,17,1,,,,,,,,
,,,,,,,,,,,,,FF,,,,,,,,0.767,,,,,,,,,,,,,,,,,,,,,,6102185a2bc0fd85fda9aed0,61036e7db6e75d34076a7e00,2021-07-29_23h14.42.109,Simcolourproject_2stim_asymm_v5,2020.2.10,MacIntel,60,61025ae37ef11b136ea224fe,,,,,,,,,902,-44,-75,1,0,0,response5disk,,3,1,1,1,0,0,rectangle,1,1,1,0,0,1,1,1,0,0,1,102,262,110,1,,,,,,,,
,,,,,,,,,,,,,FF,,,,,,,,0.664,,,,,,,,,,,,,,,,,,,,,,6102185a2bc0fd85fda9aed0,61036e7db6e75d34076a7e00,2021-07-29_23h14.42.109,Simcolourproject_2stim_asymm_v5,2020.2.10,MacIntel,60,61025ae37ef11b136ea224fe,,,,,,,,,4259,54,-80,1,0,0,response3disk,,4,13,10,1,0,0,rectangle,13,10,1,0,0,13,10,1,0,0,1,103,263,109,1,,,,,,,,
,,,,,,,,,,,,,FF,,,,,,,,0.815,,,,,,,,,,,,,,,,,,,,,,6102185a2bc0fd85fda9aed0,61036e7db6e75d34076a7e00,2021-07-29_23h14.42.109,Simcolourproject_2stim_asymm_v5,2020.2.10,MacIntel,60,61025ae37ef11b136ea224fe,,,,,,,,,1584,-51,-64,1,0,0,response5disk,,3,5,-6,1,0,0,rectangle,5,-6,1,0,0,5,-6,1,0,0,1,104,264,107,1,,,,,,,,
,,,,,,,,,,,,,FF,,,,,,,,1.85,,,,,,,,,,,,,,,,,,,,,,6102185a2bc0fd85fda9aed0,61036e7db6e75d34076a7e00,2021-07-29_23h14.42.109,Simcolourproject_2stim_asymm_v5,2020.2.10,MacIntel,60,61025ae37ef11b136ea224fe,,,,,,,,,4337,-27,-94,1,0,0,response5disk,,3,4,13,1,0,0,rectangle,4,13,1,0,0,4,13,1,0,0,1,105,265,67,1,,,,,,,,
,,,,,,,,,,,,,FF,,,,,,,,0.741,,,,,,,,,,,,,,,,,,,,,,6102185a2bc0fd85fda9aed0,61036e7db6e75d34076a7e00,2021-07-29_23h14.42.109,Simcolourproject_2stim_asymm_v5,2020.2.10,MacIntel,60,61025ae37ef11b136ea224fe,,,,,,,,,1056,-74,-41,1,0,0,response5disk,,2,0,-2,1,0,0,rectangle,0,-2,1,0,0,0,-2,1,0,0,1,106,266,23,1,,,,,,,,
,,,,,,,,,,,,,FF,,,,,,,,0.631,,,,,,,,,,,,,,,,,,,,,,6102185a2bc0fd85fda9aed0,61036e7db6e75d34076a7e00,2021-07-29_23h14.42.109,Simcolourproject_2stim_asymm_v5,2020.2.10,MacIntel,60,61025ae37ef11b136ea224fe,,,,,,,,,2459,72,-48,1,0,0,response3disk,,5,7,-4,1,0,0,rectangle,7,-4,1,0,0,7,-4,1,0,0,1,107,267,40,1,,,,,,,,
,,,,,,,,,,,,,FF,,,,,,,,0.876,,,,,,,,,,,,,,,,,,,,,,6102185a2bc0fd85fda9aed0,61036e7db6e75d34076a7e00,2021-07-29_23h14.42.109,Simcolourproject_2stim_asymm_v5,2020.2.10,MacIntel,60,61025ae37ef11b136ea224fe,,,,,,,,,3523,49,-66,1,0,0,response3disk,,4,5,-3,1,0,0,rectangle,5,-3,1,0,0,5,-3,1,0,0,1,108,268,157,1,,,,,,,,
,,,,,,,,,,,,,FF,,,,,,,,0.716,,,,,,,,,,,,,,,,,,,,,,6102185a2bc0fd85fda9aed0,61036e7db6e75d34076a7e00,2021-07-29_23h14.42.109,Simcolourproject_2stim_asymm_v5,2020.2.10,MacIntel,60,61025ae37ef11b136ea224fe,,,,,,,,,3347,57,30,1,0,0,response1disk,,6,16,6,1,0,0,rectangle,16,6,1,0,0,16,6,1,0,0,1,109,269,37,1,,,,,,,,
,,,,,,,,,,,,,FF,,,,,,,,0.831,,,,,,,,,,,,,,,,,,,,,,6102185a2bc0fd85fda9aed0,61036e7db6e75d34076a7e00,2021-07-29_23h14.42.109,Simcolourproject_2stim_asymm_v5,2020.2.10,MacIntel,60,61025ae37ef11b136ea224fe,,,,,,,,,4161,-70,-37,1,0,0,response5disk,,2,-17,-5,1,0,0,rectangle,-17,-5,1,0,0,-17,-5,1,0,0,1,110,270,33,1,,,,,,,,
,,,,,,,,,,,,,FF,,,,,,,,1.25,,,,,,,,,,,,,,,,,,,,,,6102185a2bc0fd85fda9aed0,61036e7db6e75d34076a7e00,2021-07-29_23h14.42.109,Simcolourproject_2stim_asymm_v5,2020.2.10,MacIntel,60,61025ae37ef11b136ea224fe,,,,,,,,,1158,-41,-89,1,0,0,response5disk,,3,-2,-8,1,0,0,rectangle,-65,39,1,0,0,-14,13,1,0,0,1,111,271,73,1,,response7disk_3,TRUE,1,1,"[118,298,217,261,109,208,272,91,25,288,291,188,310,94,158,3,235,97,112,317]",1.269,rectangle
,,,,,,,,,,,,,FF,,,,,,,,1.735,,,,,,,,,,,,,,,,,,,,,,6102185a2bc0fd85fda9aed0,61036e7db6e75d34076a7e00,2021-07-29_23h14.42.109,Simcolourproject_2stim_asymm_v5,2020.2.10,MacIntel,60,61025ae37ef11b136ea224fe,,,,,,,,,1951,-33,-81,1,0,0,response5disk,,3,20,-7,1,0,0,rectangle,20,-7,1,0,0,20,-7,1,0,0,1,112,272,75,1,,,,,,,,
,,,,,,,,,,,,,FF,,,,,,,,2.755,,,,,,,,,,,,,,,,,,,,,,6102185a2bc0fd85fda9aed0,61036e7db6e75d34076a7e00,2021-07-29_23h14.42.109,Simcolourproject_2stim_asymm_v5,2020.2.10,MacIntel,60,61025ae37ef11b136ea224fe,,,,,,,,,4156,34,-79,1,0,0,response3disk,,4,-15,15,1,0,0,rectangle,-15,15,1,0,0,-15,15,1,0,0,1,113,273,119,1,,,,,,,,
,,,,,,,,,,,,,FF,,,,,,,,1.047,,,,,,,,,,,,,,,,,,,,,,6102185a2bc0fd85fda9aed0,61036e7db6e75d34076a7e00,2021-07-29_23h14.42.109,Simcolourproject_2stim_asymm_v5,2020.2.10,MacIntel,60,61025ae37ef11b136ea224fe,,,,,,,,,2606,-46,-93,1,0,0,response5disk,,3,11,-3,1,0,0,rectangle,11,-3,1,0,0,11,-3,1,0,0,1,114,274,118,1,,,,,,,,
,,,,,,,,,,,,,FF,,,,,,,,0.663,,,,,,,,,,,,,,,,,,,,,,6102185a2bc0fd85fda9aed0,61036e7db6e75d34076a7e00,2021-07-29_23h14.42.109,Simcolourproject_2stim_asymm_v5,2020.2.10,MacIntel,60,61025ae37ef11b136ea224fe,,,,,,,,,3862,80,15,1,0,0,response1disk,,6,4,-2,1,0,0,rectangle,4,-2,1,0,0,4,-2,1,0,0,1,115,275,31,1,,,,,,,,
,,,,,,,,,,,,,FF,,,,,,,,0.726,,,,,,,,,,,,,,,,,,,,,,6102185a2bc0fd85fda9aed0,61036e7db6e75d34076a7e00,2021-07-29_23h14.42.109,Simcolourproject_2stim_asymm_v5,2020.2.10,MacIntel,60,61025ae37ef11b136ea224fe,,,,,,,,,3024,45,70,1,0,0,response1disk,,7,4,5,1,0,0,rectangle,4,5,1,0,0,4,5,1,0,0,1,116,276,127,1,,,,,,,,
,,,,,,,,,,,,,FF,,,,,,,,0.761,,,,,,,,,,,,,,,,,,,,,,6102185a2bc0fd85fda9aed0,61036e7db6e75d34076a7e00,2021-07-29_23h14.42.109,Simcolourproject_2stim_asymm_v5,2020.2.10,MacIntel,60,61025ae37ef11b136ea224fe,,,,,,,,,2227,-42,-67,1,0,0,response5disk,,3,-16,0,1,0,0,rectangle,-16,0,1,0,0,-16,0,1,0,0,1,117,277,138,1,,,,,,,,
,,,,,,,,,,,,,FF,,,,,,,,1.067,,,,,,,,,,,,,,,,,,,,,,6102185a2bc0fd85fda9aed0,61036e7db6e75d34076a7e00,2021-07-29_23h14.42.109,Simcolourproject_2stim_asymm_v5,2020.2.10,MacIntel,60,61025ae37ef11b136ea224fe,,,,,,,,,3471,-81,-51,1,0,0,response5disk,,2,4,4,1,0,0,rectangle,4,4,1,0,0,4,4,1,0,0,1,118,278,85,1,,,,,,,,
,,,,,,,,,,,,,FF,,,,,,,,1.013,,,,,,,,,,,,,,,,,,,,,,6102185a2bc0fd85fda9aed0,61036e7db6e75d34076a7e00,2021-07-29_23h14.42.109,Simcolourproject_2stim_asymm_v5,2020.2.10,MacIntel,60,61025ae37ef11b136ea224fe,,,,,,,,,2054,47,-83,1,0,0,response3disk,,4,9,-14,1,0,0,rectangle,9,-14,1,0,0,9,-14,1,0,0,1,119,279,131,1,,,,,,,,
,,,,,,,,,,,,,FF,,,,,,,,1.299,,,,,,,,,,,,,,,,,,,,,,6102185a2bc0fd85fda9aed0,61036e7db6e75d34076a7e00,2021-07-29_23h14.42.109,Simcolourproject_2stim_asymm_v5,2020.2.10,MacIntel,60,61025ae37ef11b136ea224fe,,,,,,,,,786,41,-95,1,0,0,response3disk,,4,-17,8,1,0,0,rectangle,-17,8,1,0,0,-17,8,1,0,0,1,120,280,8,1,,,,,,,,
,,,,,,,,,,,,,FF,,,,,,,,0.597,,,,,,,,,,,,,,,,,,,,,,6102185a2bc0fd85fda9aed0,61036e7db6e75d34076a7e00,2021-07-29_23h14.42.109,Simcolourproject_2stim_asymm_v5,2020.2.10,MacIntel,60,61025ae37ef11b136ea224fe,,,,,,,,,326,70,-39,1,0,0,response3disk,,5,10,3,1,0,0,rectangle,10,3,1,0,0,10,3,1,0,0,1,121,281,136,1,,,,,,,,
,,,,,,,,,,,,,FF,,,,,,,,1.046,,,,,,,,,,,,,,,,,,,,,,6102185a2bc0fd85fda9aed0,61036e7db6e75d34076a7e00,2021-07-29_23h14.42.109,Simcolourproject_2stim_asymm_v5,2020.2.10,MacIntel,60,61025ae37ef11b136ea224fe,,,,,,,,,2496,88,-31,1,0,0,response3disk,,5,24,-1,1,0,0,rectangle,24,-1,1,0,0,24,-1,1,0,0,1,122,282,27,1,,,,,,,,
,,,,,,,,,,,,,FF,,,,,,,,0.669,,,,,,,,,,,,,,,,,,,,,,6102185a2bc0fd85fda9aed0,61036e7db6e75d34076a7e00,2021-07-29_23h14.42.109,Simcolourproject_2stim_asymm_v5,2020.2.10,MacIntel,60,61025ae37ef11b136ea224fe,,,,,,,,,1545,60,-40,1,0,0,response3disk,,5,6,-9,1,0,0,rectangle,6,-9,1,0,0,6,-9,1,0,0,1,123,283,13,1,,,,,,,,
,,,,,,,,,,,,,FF,,,,,,,,0.993,,,,,,,,,,,,,,,,,,,,,,6102185a2bc0fd85fda9aed0,61036e7db6e75d34076a7e00,2021-07-29_23h14.42.109,Simcolourproject_2stim_asymm_v5,2020.2.10,MacIntel,60,61025ae37ef11b136ea224fe,,,,,,,,,1429,-35,-86,1,0,0,response5disk,,3,-2,-14,1,0,0,rectangle,-2,-14,1,0,0,-2,-14,1,0,0,1,124,284,65,1,,,,,,,,
,,,,,,,,,,,,,FF,,,,,,,,0.784,,,,,,,,,,,,,,,,,,,,,,6102185a2bc0fd85fda9aed0,61036e7db6e75d34076a7e00,2021-07-29_23h14.42.109,Simcolourproject_2stim_asymm_v5,2020.2.10,MacIntel,60,61025ae37ef11b136ea224fe,,,,,,,,,712,57,-89,1,0,0,response3disk,,4,4,-6,1,0,0,rectangle,4,-6,1,0,0,4,-6,1,0,0,1,125,285,159,1,,,,,,,,
,,,,,,,,,,,,,FF,,,,,,,,0.679,,,,,,,,,,,,,,,,,,,,,,6102185a2bc0fd85fda9aed0,61036e7db6e75d34076a7e00,2021-07-29_23h14.42.109,Simcolourproject_2stim_asymm_v5,2020.2.10,MacIntel,60,61025ae37ef11b136ea224fe,,,,,,,,,3693,56,-32,1,0,0,response3disk,,5,-7,4,1,0,0,rectangle,-7,4,1,0,0,-7,4,1,0,0,1,126,286,62,1,,,,,,,,
,,,,,,,,,,,,,FF,,,,,,,,0.578,,,,,,,,,,,,,,,,,,,,,,6102185a2bc0fd85fda9aed0,61036e7db6e75d34076a7e00,2021-07-29_23h14.42.109,Simcolourproject_2stim_asymm_v5,2020.2.10,MacIntel,60,61025ae37ef11b136ea224fe,,,,,,,,,2866,77,26,1,0,0,response1disk,,6,9,-14,1,0,0,rectangle,-71,40,1,0,0,-4,-3,1,0,0,1,127,287,134,1,,response7disk_3,TRUE,1,1,"[118,298,217,261,109,208,272,91,25,288,291,188,310,94,158,3,235,97,112,317]",1.237,rectangle
,,,,,,,,,,,,,FF,,,,,,,,1.618,,,,,,,,,,,,,,,,,,,,,,6102185a2bc0fd85fda9aed0,61036e7db6e75d34076a7e00,2021-07-29_23h14.42.109,Simcolourproject_2stim_asymm_v5,2020.2.10,MacIntel,60,61025ae37ef11b136ea224fe,,,,,,,,,3387,43,-90,1,0,0,response3disk,,4,0,-8,1,0,0,rectangle,0,-8,1,0,0,0,-8,1,0,0,1,128,288,36,1,,,,,,,,
,,,,,,,,,,,,,FF,,,,,,,,1.1,,,,,,,,,,,,,,,,,,,,,,6102185a2bc0fd85fda9aed0,61036e7db6e75d34076a7e00,2021-07-29_23h14.42.109,Simcolourproject_2stim_asymm_v5,2020.2.10,MacIntel,60,61025ae37ef11b136ea224fe,,,,,,,,,1175,79,35,1,0,0,response1disk,,6,11,-9,1,0,0,rectangle,11,-9,1,0,0,11,-9,1,0,0,1,129,289,102,1,,,,,,,,
,,,,,,,,,,,,,FF,,,,,,,,0.962,,,,,,,,,,,,,,,,,,,,,,6102185a2bc0fd85fda9aed0,61036e7db6e75d34076a7e00,2021-07-29_23h14.42.109,Simcolourproject_2stim_asymm_v5,2020.2.10,MacIntel,60,61025ae37ef11b136ea224fe,,,,,,,,,3650,81,33,1,0,0,response1disk,,6,10,-11,1,0,0,rectangle,61,-80,1,0,0,-16,4,1,0,0,1,130,290,57,1,,response3disk_3,TRUE,4,4,"[118,298,217,261,109,208,272,91,25,288,291,188,310,94,158,3,235,97,112,317]",1.602,rectangle
,,,,,,,,,,,,,FF,,,,,,,,0.902,,,,,,,,,,,,,,,,,,,,,,6102185a2bc0fd85fda9aed0,61036e7db6e75d34076a7e00,2021-07-29_23h14.42.109,Simcolourproject_2stim_asymm_v5,2020.2.10,MacIntel,60,61025ae37ef11b136ea224fe,,,,,,,,,643,-39,-96,1,0,0,response5disk,,3,-10,-4,1,0,0,rectangle,-10,-4,1,0,0,-10,-4,1,0,0,1,131,291,98,1,,,,,,,,
,,,,,,,,,,,,,FF,,,,,,,,0.852,,,,,,,,,,,,,,,,,,,,,,6102185a2bc0fd85fda9aed0,61036e7db6e75d34076a7e00,2021-07-29_23h14.42.109,Simcolourproject_2stim_asymm_v5,2020.2.10,MacIntel,60,61025ae37ef11b136ea224fe,,,,,,,,,3376,-65,-40,1,0,0,response5disk,,2,-8,-6,1,0,0,rectangle,-8,-6,1,0,0,-8,-6,1,0,0,1,132,292,145,1,,,,,,,,
,,,,,,,,,,,,,FF,,,,,,,,0.701,,,,,,,,,,,,,,,,,,,,,,6102185a2bc0fd85fda9aed0,61036e7db6e75d34076a7e00,2021-07-29_23h14.42.109,Simcolourproject_2stim_asymm_v5,2020.2.10,MacIntel,60,61025ae37ef11b136ea224fe,,,,,,,,,2630,17,-85,1,0,0,response3disk,,4,4,10,1,0,0,rectangle,4,10,1,0,0,4,10,1,0,0,1,133,293,53,1,,,,,,,,
,,,,,,,,,,,,,FF,,,,,,,,0.961,,,,,,,,,,,,,,,,,,,,,,6102185a2bc0fd85fda9aed0,61036e7db6e75d34076a7e00,2021-07-29_23h14.42.109,Simcolourproject_2stim_asymm_v5,2020.2.10,MacIntel,60,61025ae37ef11b136ea224fe,,,,,,,,,3500,77,-42,1,0,0,response3disk,,5,12,-16,1,0,0,rectangle,12,-16,1,0,0,12,-16,1,0,0,1,134,294,0,1,,,,,,,,
,,,,,,,,,,,,,FF,,,,,,,,1.317,,,,,,,,,,,,,,,,,,,,,,6102185a2bc0fd85fda9aed0,61036e7db6e75d34076a7e00,2021-07-29_23h14.42.109,Simcolourproject_2stim_asymm_v5,2020.2.10,MacIntel,60,61025ae37ef11b136ea224fe,,,,,,,,,1849,75,42,1,0,0,response1disk,,6,29,1,1,0,0,rectangle,29,1,1,0,0,29,1,1,0,0,1,135,295,35,1,,,,,,,,
,,,,,,,,,,,,,FF,,,,,,,,1.162,,,,,,,,,,,,,,,,,,,,,,6102185a2bc0fd85fda9aed0,61036e7db6e75d34076a7e00,2021-07-29_23h14.42.109,Simcolourproject_2stim_asymm_v5,2020.2.10,MacIntel,60,61025ae37ef11b136ea224fe,,,,,,,,,3683,-30,-108,1,0,0,response5disk,,3,5,7,1,0,0,rectangle,5,7,1,0,0,5,7,1,0,0,1,136,296,129,1,,,,,,,,
,,,,,,,,,,,,,FF,,,,,,,,1.051,,,,,,,,,,,,,,,,,,,,,,6102185a2bc0fd85fda9aed0,61036e7db6e75d34076a7e00,2021-07-29_23h14.42.109,Simcolourproject_2stim_asymm_v5,2020.2.10,MacIntel,60,61025ae37ef11b136ea224fe,,,,,,,,,1401,77,-31,1,0,0,response3disk,,5,-16,12,1,0,0,rectangle,46,81,1,0,0,-6,-1,1,0,0,1,137,297,2,1,,response1disk_3,TRUE,7,7,"[118,298,217,261,109,208,272,91,25,288,291,188,310,94,158,3,235,97,112,317]",1.596,rectangle
,,,,,,,,,,,,,FF,,,,,,,,1.179,,,,,,,,,,,,,,,,,,,,,,6102185a2bc0fd85fda9aed0,61036e7db6e75d34076a7e00,2021-07-29_23h14.42.109,Simcolourproject_2stim_asymm_v5,2020.2.10,MacIntel,60,61025ae37ef11b136ea224fe,,,,,,,,,358,46,-92,1,0,0,response3disk,,4,8,4,1,0,0,rectangle,8,4,1,0,0,8,4,1,0,0,1,138,298,140,1,,,,,,,,
,,,,,,,,,,,,,FF,,,,,,,,0.452,,,,,,,,,,,,,,,,,,,,,,6102185a2bc0fd85fda9aed0,61036e7db6e75d34076a7e00,2021-07-29_23h14.42.109,Simcolourproject_2stim_asymm_v5,2020.2.10,MacIntel,60,61025ae37ef11b136ea224fe,,,,,,,,,1337,64,-31,1,0,0,response3disk,,5,13,-8,1,0,0,rectangle,13,-8,1,0,0,13,-8,1,0,0,1,139,299,84,1,,,,,,,,
,,,,,,,,,,,,,FF,,,,,,,,0.677,,,,,,,,,,,,,,,,,,,,,,6102185a2bc0fd85fda9aed0,61036e7db6e75d34076a7e00,2021-07-29_23h14.42.109,Simcolourproject_2stim_asymm_v5,2020.2.10,MacIntel,60,61025ae37ef11b136ea224fe,,,,,,,,,1295,-51,-76,1,0,0,response5disk,,3,4,6,1,0,0,rectangle,4,6,1,0,0,4,6,1,0,0,1,140,300,125,1,,,,,,,,
