key_resp.keys,key_resp.rt,key_resp_14.keys,key_resp_14.rt,key_resp_15.keys,key_resp_15.rt,key_resp_17.keys,key_resp_17.rt,key_resp_9.keys,key_resp_9.rt,key_resp_10.keys,key_resp_10.rt,practice_comparison,Ecc,mouse_5.x,mouse_5.y,mouse_5.leftButton,mouse_5.midButton,mouse_5.rightButton,mouse_5.clicked_name,pracsimilarity,response_time,mouse_10.x,mouse_10.y,mouse_10.leftButton,mouse_10.midButton,mouse_10.rightButton,mouse_10.clicked_name,mouse_7.x,mouse_7.y,mouse_7.leftButton,mouse_7.midButton,mouse_7.rightButton,mouse_6.x,mouse_6.y,mouse_6.leftButton,mouse_6.midButton,mouse_6.rightButton,duringprac.thisRepN,duringprac.thisTrialN,duringprac.thisN,duringprac.thisIndex,duringprac.ran,participant,session,date,expName,psychopyVersion,OS,frameRate,study_id,mouse_7.clicked_name,catchpracsimilarity,catch_response_time,catchnumberprac,catchtrialorderprac,mouse_6.clicked_name,key_resp_22.keys,key_resp_22.rt,realcomparison,mouse.x,mouse.y,mouse.leftButton,mouse.midButton,mouse.rightButton,mouse.clicked_name,Colour2,similarity,mouse_2.x,mouse_2.y,mouse_2.leftButton,mouse_2.midButton,mouse_2.rightButton,mouse_2.clicked_name,mouse_3.x,mouse_3.y,mouse_3.leftButton,mouse_3.midButton,mouse_3.rightButton,mouse_11.x,mouse_11.y,mouse_11.leftButton,mouse_11.midButton,mouse_11.rightButton,trials_2.thisRepN,trials_2.thisTrialN,trials_2.thisN,trials_2.thisIndex,trials_2.ran,Colour1,mouse_3.clicked_name,catchornah,catchsimilarity,catchnumber,catchtrialorder,catchRT,mouse_11.clicked_name
space,3.8564,space,10.0301,space,29.0237,space,3.5445,space,1.3094,space,4.1627,41,PF,46.40001214,-109.6000569,1,0,0,response3disk_5,4,10.911,-3.199988604,6.399993658,1,0,0,rectangle_8,-3.199988604,6.399993658,1,0,0,-3.199988604,6.399993658,1,0,0,0,0,0,2,1,6103683d0b7556494a758939,61036c4fbc3d8dca65f5a629,2021-07-29_23h06.36.062,Simcolourproject_2stim_asymm_v5,2020.2.10,Win32,60,61025ae37ef11b136ea224fe,,,,,,,,,,,,,,,,,,,,,,,,,,,,,,,,,,,,,,,,,,,,,,
,,,,,,,,,,,,51,PF,82.40001267,-30.40000689,1,0,0,response3disk_5,5,4.42,-3.999988616,-4.000006497,1,0,0,rectangle_8,-97.59999001,-64.00000739,1,0,0,-7.199988663,-3.200006485,1,0,0,0,1,1,4,1,6103683d0b7556494a758939,61036c4fbc3d8dca65f5a629,2021-07-29_23h06.36.062,Simcolourproject_2stim_asymm_v5,2020.2.10,Win32,60,61025ae37ef11b136ea224fe,response5disk_7,2,4.5742,2,"[2,5]",rectangle_4,,,,,,,,,,,,,,,,,,,,,,,,,,,,,,,,,,,,,,,,
,,,,,,,,,,,,40,FF,103.200013,-40.80000705,1,0,0,response3disk_5,5,6.9917,6.400011539,-8.000006557,1,0,0,rectangle_8,6.400011539,-8.000006557,1,0,0,6.400011539,-8.000006557,1,0,0,0,2,2,5,1,6103683d0b7556494a758939,61036c4fbc3d8dca65f5a629,2021-07-29_23h06.36.062,Simcolourproject_2stim_asymm_v5,2020.2.10,Win32,60,61025ae37ef11b136ea224fe,,,,,,,,,,,,,,,,,,,,,,,,,,,,,,,,,,,,,,,,,,,,,,
,,,,,,,,,,,,69,FF,96.00001287,22.3999939,1,0,0,response1disk_5,6,2.0227,9.600060415,3.19999361,1,0,0,rectangle_8,9.600060415,3.19999361,1,0,0,9.600060415,3.19999361,1,0,0,0,3,3,3,1,6103683d0b7556494a758939,61036c4fbc3d8dca65f5a629,2021-07-29_23h06.36.062,Simcolourproject_2stim_asymm_v5,2020.2.10,Win32,60,61025ae37ef11b136ea224fe,,,,,,,,,,,,,,,,,,,,,,,,,,,,,,,,,,,,,,,,,,,,,,
,,,,,,,,,,,,115,PF,34.40001196,-97.60005672,1,0,0,response3disk_5,4,3.9523,7.200011551,-5.600006521,1,0,0,rectangle_8,-81.59998977,-33.60000694,1,0,0,-11.19998872,-8.000006557,1,0,0,0,4,4,1,1,6103683d0b7556494a758939,61036c4fbc3d8dca65f5a629,2021-07-29_23h06.36.062,Simcolourproject_2stim_asymm_v5,2020.2.10,Win32,60,61025ae37ef11b136ea224fe,response5disk_7,2,1.5842,2,"[2,5]",rectangle_4,,,,,,,,,,,,,,,,,,,,,,,,,,,,,,,,,,,,,,,,
,,,,,,,,,,,,30,FF,108.8000131,46.39999425,1,0,0,response1disk_5,6,2.8179,-3.199988604,-5.600006521,1,0,0,rectangle_8,-3.199988604,-5.600006521,1,0,0,-3.199988604,-5.600006521,1,0,0,0,5,5,0,1,6103683d0b7556494a758939,61036c4fbc3d8dca65f5a629,2021-07-29_23h06.36.062,Simcolourproject_2stim_asymm_v5,2020.2.10,Win32,60,61025ae37ef11b136ea224fe,,,,,,,,,,,,,,,,,,,,,,,,,,,,,,,,,,,,,,,,,,,,,,
,,,,,,,,,,,,93,PF,-106.3999413,43.99999422,1,0,0,response7disk_5,1,3.6355,-3.999988616,6.399993658,1,0,0,rectangle_8,-3.999988616,6.399993658,1,0,0,-3.999988616,6.399993658,1,0,0,0,6,6,6,1,6103683d0b7556494a758939,61036c4fbc3d8dca65f5a629,2021-07-29_23h06.36.062,Simcolourproject_2stim_asymm_v5,2020.2.10,Win32,60,61025ae37ef11b136ea224fe,,,,,,,,,,,,,,,,,,,,,,,,,,,,,,,,,,,,,,,,,,,,,,
,,,,,,,,,,,,,FF,,,,,,,,3.2318,,,,,,,,,,,,,,,,,,,,,,6103683d0b7556494a758939,61036c4fbc3d8dca65f5a629,2021-07-29_23h06.36.062,Simcolourproject_2stim_asymm_v5,2020.2.10,Win32,60,61025ae37ef11b136ea224fe,,,,,,,space,4.4689,1239,33.60006077,-97.60005672,1,0,0,response3disk,,4,1.600060296,-4.000006497,1,0,0,rectangle,1.600060296,-4.000006497,1,0,0,1.600060296,-4.000006497,1,0,0,0,0,0,95,1,,,,,,,,
,,,,,,,,,,,,,FF,,,,,,,,1.2682,,,,,,,,,,,,,,,,,,,,,,6103683d0b7556494a758939,61036c4fbc3d8dca65f5a629,2021-07-29_23h06.36.062,Simcolourproject_2stim_asymm_v5,2020.2.10,Win32,60,61025ae37ef11b136ea224fe,,,,,,,,,3757,-91.99998993,-65.60000741,1,0,0,response5disk,,2,12.00001162,-2.400006473,1,0,0,rectangle,12.00001162,-2.400006473,1,0,0,12.00001162,-2.400006473,1,0,0,0,1,1,49,1,,,,,,,,
,,,,,,,,,,,,,FF,,,,,,,,1.4342,,,,,,,,,,,,,,,,,,,,,,6103683d0b7556494a758939,61036c4fbc3d8dca65f5a629,2021-07-29_23h06.36.062,Simcolourproject_2stim_asymm_v5,2020.2.10,Win32,60,61025ae37ef11b136ea224fe,,,,,,,,,1258,54.40001225,-48.00000715,1,0,0,response3disk,,5,-3.999988616,5.599993646,1,0,0,rectangle,-3.999988616,5.599993646,1,0,0,-3.999988616,5.599993646,1,0,0,0,2,2,75,1,,,,,,,,
,,,,,,,,,,,,,FF,,,,,,,,0.939,,,,,,,,,,,,,,,,,,,,,,6103683d0b7556494a758939,61036c4fbc3d8dca65f5a629,2021-07-29_23h06.36.062,Simcolourproject_2stim_asymm_v5,2020.2.10,Win32,60,61025ae37ef11b136ea224fe,,,,,,,,,2017,-59.99998945,-93.60005666,1,0,0,response5disk,,3,3.200011492,-10.40000659,1,0,0,rectangle,3.200011492,-10.40000659,1,0,0,3.200011492,-10.40000659,1,0,0,0,3,3,97,1,,,,,,,,
,,,,,,,,,,,,,FF,,,,,,,,1.1691,,,,,,,,,,,,,,,,,,,,,,6103683d0b7556494a758939,61036c4fbc3d8dca65f5a629,2021-07-29_23h06.36.062,Simcolourproject_2stim_asymm_v5,2020.2.10,Win32,60,61025ae37ef11b136ea224fe,,,,,,,,,1281,74.40001255,21.59999388,1,0,0,response1disk,,6,-21.59998888,-7.200006545,1,0,0,rectangle,-21.59998888,-7.200006545,1,0,0,-21.59998888,-7.200006545,1,0,0,0,4,4,7,1,,,,,,,,
,,,,,,,,,,,,,FF,,,,,,,,1.3557,,,,,,,,,,,,,,,,,,,,,,6103683d0b7556494a758939,61036c4fbc3d8dca65f5a629,2021-07-29_23h06.36.062,Simcolourproject_2stim_asymm_v5,2020.2.10,Win32,60,61025ae37ef11b136ea224fe,,,,,,,,,3367,72.80001253,52.79999435,1,0,0,response1disk,,6,-18.39994,11.19999373,1,0,0,rectangle,-18.39994,11.19999373,1,0,0,-18.39994,11.19999373,1,0,0,0,5,5,61,1,,,,,,,,
,,,,,,,,,,,,,FF,,,,,,,,1.3001,,,,,,,,,,,,,,,,,,,,,,6103683d0b7556494a758939,61036c4fbc3d8dca65f5a629,2021-07-29_23h06.36.062,Simcolourproject_2stim_asymm_v5,2020.2.10,Win32,60,61025ae37ef11b136ea224fe,,,,,,,,,4012,83.20001268,34.39999408,1,0,0,response1disk,,6,8.800011575,-4.000006497,1,0,0,rectangle,8.800011575,-4.000006497,1,0,0,8.800011575,-4.000006497,1,0,0,0,6,6,78,1,,,,,,,,
,,,,,,,,,,,,,FF,,,,,,,,1.0629,,,,,,,,,,,,,,,,,,,,,,6103683d0b7556494a758939,61036c4fbc3d8dca65f5a629,2021-07-29_23h06.36.062,Simcolourproject_2stim_asymm_v5,2020.2.10,Win32,60,61025ae37ef11b136ea224fe,,,,,,,,,4142,-75.99998969,-48.00000715,1,0,0,response5disk,,2,-3.199988604,-5.600006521,1,0,0,rectangle,-3.199988604,-5.600006521,1,0,0,-3.199988604,-5.600006521,1,0,0,0,7,7,79,1,,,,,,,,
,,,,,,,,,,,,,FF,,,,,,,,0.9294,,,,,,,,,,,,,,,,,,,,,,6103683d0b7556494a758939,61036c4fbc3d8dca65f5a629,2021-07-29_23h06.36.062,Simcolourproject_2stim_asymm_v5,2020.2.10,Win32,60,61025ae37ef11b136ea224fe,,,,,,,,,2920,88.80001277,-58.40000731,1,0,0,response3disk,,5,4.800011516,-2.400006473,1,0,0,rectangle,4.800011516,-2.400006473,1,0,0,4.800011516,-2.400006473,1,0,0,0,8,8,70,1,,,,,,,,
,,,,,,,,,,,,,FF,,,,,,,,0.8342,,,,,,,,,,,,,,,,,,,,,,6103683d0b7556494a758939,61036c4fbc3d8dca65f5a629,2021-07-29_23h06.36.062,Simcolourproject_2stim_asymm_v5,2020.2.10,Win32,60,61025ae37ef11b136ea224fe,,,,,,,,,4171,-87.99998987,-40.00000703,1,0,0,response5disk,,2,-4.799988627,-4.000006497,1,0,0,rectangle,-4.799988627,-4.000006497,1,0,0,-4.799988627,-4.000006497,1,0,0,0,9,9,50,1,,,,,,,,
,,,,,,,,,,,,,FF,,,,,,,,0.8348,,,,,,,,,,,,,,,,,,,,,,6103683d0b7556494a758939,61036c4fbc3d8dca65f5a629,2021-07-29_23h06.36.062,Simcolourproject_2stim_asymm_v5,2020.2.10,Win32,60,61025ae37ef11b136ea224fe,,,,,,,,,2218,-68.79998958,27.19996955,1,0,0,response7disk,,1,12.80001163,-15.20000666,1,0,0,rectangle,12.80001163,-15.20000666,1,0,0,12.80001163,-15.20000666,1,0,0,0,10,10,154,1,,,,,,,,
,,,,,,,,,,,,,FF,,,,,,,,1.6557,,,,,,,,,,,,,,,,,,,,,,6103683d0b7556494a758939,61036c4fbc3d8dca65f5a629,2021-07-29_23h06.36.062,Simcolourproject_2stim_asymm_v5,2020.2.10,Win32,60,61025ae37ef11b136ea224fe,,,,,,,,,2075,88.80001277,-52.80000722,1,0,0,response3disk,,5,3.200011492,-3.200006485,1,0,0,rectangle,3.200011492,-3.200006485,1,0,0,3.200011492,-3.200006485,1,0,0,0,11,11,69,1,,,,,,,,
,,,,,,,,,,,,,FF,,,,,,,,1.951,,,,,,,,,,,,,,,,,,,,,,6103683d0b7556494a758939,61036c4fbc3d8dca65f5a629,2021-07-29_23h06.36.062,Simcolourproject_2stim_asymm_v5,2020.2.10,Win32,60,61025ae37ef11b136ea224fe,,,,,,,,,1703,89.60001278,-64.00000739,1,0,0,response3disk,,5,-6.399939823,-4.800006509,1,0,0,rectangle,-6.399939823,-4.800006509,1,0,0,-6.399939823,-4.800006509,1,0,0,0,12,12,110,1,,,,,,,,
,,,,,,,,,,,,,FF,,,,,,,,1.0056,,,,,,,,,,,,,,,,,,,,,,6103683d0b7556494a758939,61036c4fbc3d8dca65f5a629,2021-07-29_23h06.36.062,Simcolourproject_2stim_asymm_v5,2020.2.10,Win32,60,61025ae37ef11b136ea224fe,,,,,,,,,3059,94.40001285,-55.20000726,1,0,0,response3disk,,5,4.800011516,-5.600006521,1,0,0,rectangle,4.800011516,-5.600006521,1,0,0,4.800011516,-5.600006521,1,0,0,0,13,13,114,1,,,,,,,,
,,,,,,,,,,,,,FF,,,,,,,,0.8507,,,,,,,,,,,,,,,,,,,,,,6103683d0b7556494a758939,61036c4fbc3d8dca65f5a629,2021-07-29_23h06.36.062,Simcolourproject_2stim_asymm_v5,2020.2.10,Win32,60,61025ae37ef11b136ea224fe,,,,,,,,,4048,50.4000122,-82.40000767,1,0,0,response3disk,,4,3.200011492,-5.600006521,1,0,0,rectangle,3.200011492,-5.600006521,1,0,0,3.200011492,-5.600006521,1,0,0,0,14,14,99,1,,,,,,,,
,,,,,,,,,,,,,FF,,,,,,,,1.2509,,,,,,,,,,,,,,,,,,,,,,6103683d0b7556494a758939,61036c4fbc3d8dca65f5a629,2021-07-29_23h06.36.062,Simcolourproject_2stim_asymm_v5,2020.2.10,Win32,60,61025ae37ef11b136ea224fe,,,,,,,,,946,52.80001223,82.39999479,1,0,0,response1disk,,7,-12.79998875,-2.400006473,1,0,0,rectangle,-12.79998875,-2.400006473,1,0,0,-12.79998875,-2.400006473,1,0,0,0,15,15,63,1,,,,,,,,
,,,,,,,,,,,,,FF,,,,,,,,2.5847,,,,,,,,,,,,,,,,,,,,,,6103683d0b7556494a758939,61036c4fbc3d8dca65f5a629,2021-07-29_23h06.36.062,Simcolourproject_2stim_asymm_v5,2020.2.10,Win32,60,61025ae37ef11b136ea224fe,,,,,,,,,3683,-29.599989,-84.00000769,1,0,0,response5disk,,3,-15.99998879,-11.2000066,1,0,0,rectangle,-15.99998879,-11.2000066,1,0,0,-15.99998879,-11.2000066,1,0,0,0,16,16,134,1,,,,,,,,
,,,,,,,,,,,,,FF,,,,,,,,1.0675,,,,,,,,,,,,,,,,,,,,,,6103683d0b7556494a758939,61036c4fbc3d8dca65f5a629,2021-07-29_23h06.36.062,Simcolourproject_2stim_asymm_v5,2020.2.10,Win32,60,61025ae37ef11b136ea224fe,,,,,,,,,2197,101.600013,-40.80000705,1,0,0,response3disk,,5,5.600060356,2.399993598,1,0,0,rectangle,5.600060356,2.399993598,1,0,0,5.600060356,2.399993598,1,0,0,0,17,17,40,1,,,,,,,,
,,,,,,,,,,,,,FF,,,,,,,,1.7508,,,,,,,,,,,,,,,,,,,,,,6103683d0b7556494a758939,61036c4fbc3d8dca65f5a629,2021-07-29_23h06.36.062,Simcolourproject_2stim_asymm_v5,2020.2.10,Win32,60,61025ae37ef11b136ea224fe,,,,,,,,,3193,-51.99998933,-88.00000775,1,0,0,response5disk,,3,-8.799988687,-8.000006557,1,0,0,rectangle,-8.799988687,-8.000006557,1,0,0,-8.799988687,-8.000006557,1,0,0,0,18,18,4,1,,,,,,,,
,,,,,,,,,,,,,FF,,,,,,,,1.2008,,,,,,,,,,,,,,,,,,,,,,6103683d0b7556494a758939,61036c4fbc3d8dca65f5a629,2021-07-29_23h06.36.062,Simcolourproject_2stim_asymm_v5,2020.2.10,Win32,60,61025ae37ef11b136ea224fe,,,,,,,,,2999,-60.79998946,-76.80000758,1,0,0,response5disk,,3,-2.399939764,-10.40000659,1,0,0,rectangle,-2.399939764,-10.40000659,1,0,0,-2.399939764,-10.40000659,1,0,0,0,19,19,18,1,,,,,,,,
,,,,,,,,,,,,,FF,,,,,,,,1.2012,,,,,,,,,,,,,,,,,,,,,,6103683d0b7556494a758939,61036c4fbc3d8dca65f5a629,2021-07-29_23h06.36.062,Simcolourproject_2stim_asymm_v5,2020.2.10,Win32,60,61025ae37ef11b136ea224fe,,,,,,,,,1368,-103.1999901,34.39999408,1,0,0,response7disk,,1,4.800011516,3.19999361,1,0,0,rectangle,4.800011516,3.19999361,1,0,0,4.800011516,3.19999361,1,0,0,0,20,20,149,1,,,,,,,,
,,,,,,,,,,,,,FF,,,,,,,,0.6683,,,,,,,,,,,,,,,,,,,,,,6103683d0b7556494a758939,61036c4fbc3d8dca65f5a629,2021-07-29_23h06.36.062,Simcolourproject_2stim_asymm_v5,2020.2.10,Win32,60,61025ae37ef11b136ea224fe,,,,,,,,,592,44.0000121,-71.2000075,1,0,0,response3disk,,4,8.800011575,-4.000006497,1,0,0,rectangle,8.800011575,-4.000006497,1,0,0,8.800011575,-4.000006497,1,0,0,0,21,21,147,1,,,,,,,,
,,,,,,,,,,,,,FF,,,,,,,,0.9063,,,,,,,,,,,,,,,,,,,,,,6103683d0b7556494a758939,61036c4fbc3d8dca65f5a629,2021-07-29_23h06.36.062,Simcolourproject_2stim_asymm_v5,2020.2.10,Win32,60,61025ae37ef11b136ea224fe,,,,,,,,,903,77.6000126,38.39999413,1,0,0,response1disk,,6,-0.799988568,-7.200006545,1,0,0,rectangle,-0.799988568,-7.200006545,1,0,0,-0.799988568,-7.200006545,1,0,0,0,22,22,68,1,,,,,,,,
,,,,,,,,,,,,,FF,,,,,,,,0.817,,,,,,,,,,,,,,,,,,,,,,6103683d0b7556494a758939,61036c4fbc3d8dca65f5a629,2021-07-29_23h06.36.062,Simcolourproject_2stim_asymm_v5,2020.2.10,Win32,60,61025ae37ef11b136ea224fe,,,,,,,,,2295,-77.59998971,-48.00000715,1,0,0,response5disk,,2,-6.399939823,-8.800006568,1,0,0,rectangle,-6.399939823,-8.800006568,1,0,0,-6.399939823,-8.800006568,1,0,0,0,23,23,89,1,,,,,,,,
,,,,,,,,,,,,,FF,,,,,,,,0.8055,,,,,,,,,,,,,,,,,,,,,,6103683d0b7556494a758939,61036c4fbc3d8dca65f5a629,2021-07-29_23h06.36.062,Simcolourproject_2stim_asymm_v5,2020.2.10,Win32,60,61025ae37ef11b136ea224fe,,,,,,,,,3017,78.40001261,21.59999388,1,0,0,response1disk,,6,7.200011551,-4.000006497,1,0,0,rectangle,7.200011551,-4.000006497,1,0,0,7.200011551,-4.000006497,1,0,0,0,24,24,86,1,,,,,,,,
,,,,,,,,,,,,,FF,,,,,,,,0.6555,,,,,,,,,,,,,,,,,,,,,,6103683d0b7556494a758939,61036c4fbc3d8dca65f5a629,2021-07-29_23h06.36.062,Simcolourproject_2stim_asymm_v5,2020.2.10,Win32,60,61025ae37ef11b136ea224fe,,,,,,,,,1798,72.00001252,47.99999428,1,0,0,response1disk,,6,6.400011539,9.599993706,1,0,0,rectangle,6.400011539,9.599993706,1,0,0,6.400011539,9.599993706,1,0,0,0,25,25,62,1,,,,,,,,
,,,,,,,,,,,,,FF,,,,,,,,0.8174,,,,,,,,,,,,,,,,,,,,,,6103683d0b7556494a758939,61036c4fbc3d8dca65f5a629,2021-07-29_23h06.36.062,Simcolourproject_2stim_asymm_v5,2020.2.10,Win32,60,61025ae37ef11b136ea224fe,,,,,,,,,2137,51.20001221,54.39999437,1,0,0,response1disk,,7,16.00001168,3.999993622,1,0,0,rectangle,16.00001168,3.999993622,1,0,0,16.00001168,3.999993622,1,0,0,0,26,26,14,1,,,,,,,,
,,,,,,,,,,,,,FF,,,,,,,,0.6891,,,,,,,,,,,,,,,,,,,,,,6103683d0b7556494a758939,61036c4fbc3d8dca65f5a629,2021-07-29_23h06.36.062,Simcolourproject_2stim_asymm_v5,2020.2.10,Win32,60,61025ae37ef11b136ea224fe,,,,,,,,,4183,-96.79999,-55.20000726,1,0,0,response5disk,,2,-8.799988687,-12.80000663,1,0,0,rectangle,-8.799988687,-12.80000663,1,0,0,-8.799988687,-12.80000663,1,0,0,0,27,27,73,1,,,,,,,,
,,,,,,,,,,,,,FF,,,,,,,,0.6393,,,,,,,,,,,,,,,,,,,,,,6103683d0b7556494a758939,61036c4fbc3d8dca65f5a629,2021-07-29_23h06.36.062,Simcolourproject_2stim_asymm_v5,2020.2.10,Win32,60,61025ae37ef11b136ea224fe,,,,,,,,,1497,72.00001252,-49.60000718,1,0,0,response3disk,,5,12.80001163,2.399993598,1,0,0,rectangle,12.80001163,2.399993598,1,0,0,12.80001163,2.399993598,1,0,0,0,28,28,41,1,,,,,,,,
,,,,,,,,,,,,,FF,,,,,,,,0.7004,,,,,,,,,,,,,,,,,,,,,,6103683d0b7556494a758939,61036c4fbc3d8dca65f5a629,2021-07-29_23h06.36.062,Simcolourproject_2stim_asymm_v5,2020.2.10,Win32,60,61025ae37ef11b136ea224fe,,,,,,,,,945,81.60001266,36.79999411,1,0,0,response1disk,,6,-12.79998875,-11.2000066,1,0,0,rectangle,-12.79998875,-11.2000066,1,0,0,-12.79998875,-11.2000066,1,0,0,0,29,29,43,1,,,,,,,,
,,,,,,,,,,,,,FF,,,,,,,,0.7006,,,,,,,,,,,,,,,,,,,,,,6103683d0b7556494a758939,61036c4fbc3d8dca65f5a629,2021-07-29_23h06.36.062,Simcolourproject_2stim_asymm_v5,2020.2.10,Win32,60,61025ae37ef11b136ea224fe,,,,,,,,,1849,63.20001239,27.19996955,1,0,0,response1disk,,6,-1.59998858,-3.200006485,1,0,0,rectangle,-1.59998858,-3.200006485,1,0,0,-1.59998858,-3.200006485,1,0,0,0,30,30,38,1,,,,,,,,
,,,,,,,,,,,,,FF,,,,,,,,0.7789,,,,,,,,,,,,,,,,,,,,,,6103683d0b7556494a758939,61036c4fbc3d8dca65f5a629,2021-07-29_23h06.36.062,Simcolourproject_2stim_asymm_v5,2020.2.10,Win32,60,61025ae37ef11b136ea224fe,,,,,,,,,2986,-99.99999005,29.599994,1,0,0,response7disk,,1,5.600060356,0.799993575,1,0,0,rectangle,5.600060356,0.799993575,1,0,0,5.600060356,0.799993575,1,0,0,0,31,31,54,1,,,,,,,,
,,,,,,,,,,,,,FF,,,,,,,,0.617,,,,,,,,,,,,,,,,,,,,,,6103683d0b7556494a758939,61036c4fbc3d8dca65f5a629,2021-07-29_23h06.36.062,Simcolourproject_2stim_asymm_v5,2020.2.10,Win32,60,61025ae37ef11b136ea224fe,,,,,,,,,2338,84.0000127,-31.2000069,1,0,0,response3disk,,5,11.20001161,4.799993634,1,0,0,rectangle,11.20001161,4.799993634,1,0,0,11.20001161,4.799993634,1,0,0,0,32,32,20,1,,,,,,,,
,,,,,,,,,,,,,FF,,,,,,,,0.634,,,,,,,,,,,,,,,,,,,,,,6103683d0b7556494a758939,61036c4fbc3d8dca65f5a629,2021-07-29_23h06.36.062,Simcolourproject_2stim_asymm_v5,2020.2.10,Win32,60,61025ae37ef11b136ea224fe,,,,,,,,,1047,61.60001236,27.19996955,1,0,0,response1disk,,6,-8.799988687,3.999993622,1,0,0,rectangle,-8.799988687,3.999993622,1,0,0,-8.799988687,3.999993622,1,0,0,0,33,33,23,1,,,,,,,,
,,,,,,,,,,,,,FF,,,,,,,,1.3507,,,,,,,,,,,,,,,,,,,,,,6103683d0b7556494a758939,61036c4fbc3d8dca65f5a629,2021-07-29_23h06.36.062,Simcolourproject_2stim_asymm_v5,2020.2.10,Win32,60,61025ae37ef11b136ea224fe,,,,,,,,,3844,-87.19998986,-47.20000714,1,0,0,response5disk,,2,-5.599988639,-5.600006521,1,0,0,rectangle,-5.599988639,-5.600006521,1,0,0,-5.599988639,-5.600006521,1,0,0,0,34,34,126,1,,,,,,,,
,,,,,,,,,,,,,FF,,,,,,,,0.7505,,,,,,,,,,,,,,,,,,,,,,6103683d0b7556494a758939,61036c4fbc3d8dca65f5a629,2021-07-29_23h06.36.062,Simcolourproject_2stim_asymm_v5,2020.2.10,Win32,60,61025ae37ef11b136ea224fe,,,,,,,,,3633,-42.39994036,-87.20000774,1,0,0,response5disk,,3,10.4000116,-9.60000658,1,0,0,rectangle,89.60001278,-42.40000707,1,0,0,-0.799988568,-9.60000658,1,0,0,0,35,35,132,1,,response3disk_3,TRUE,5,5,"[36,261,225,38,158,304,252,240,252,248,89,78,138,145,219,289,176,48,289,225]",3.0185,rectangle
,,,,,,,,,,,,,FF,,,,,,,,1.2009,,,,,,,,,,,,,,,,,,,,,,6103683d0b7556494a758939,61036c4fbc3d8dca65f5a629,2021-07-29_23h06.36.062,Simcolourproject_2stim_asymm_v5,2020.2.10,Win32,60,61025ae37ef11b136ea224fe,,,,,,,,,2413,-76.7999897,-58.40000731,1,0,0,response5disk,,2,-13.59998876,11.99999374,1,0,0,rectangle,-13.59998876,11.99999374,1,0,0,-13.59998876,11.99999374,1,0,0,0,36,36,37,1,,,,,,,,
,,,,,,,,,,,,,FF,,,,,,,,0.6508,,,,,,,,,,,,,,,,,,,,,,6103683d0b7556494a758939,61036c4fbc3d8dca65f5a629,2021-07-29_23h06.36.062,Simcolourproject_2stim_asymm_v5,2020.2.10,Win32,60,61025ae37ef11b136ea224fe,,,,,,,,,4294,-41.59998918,27.19996955,1,0,0,response7disk,,1,-0.799988568,-2.400006473,1,0,0,rectangle,102.400013,39.19996973,1,0,0,4.800011516,0.799993575,1,0,0,0,37,37,35,1,,response1disk_3,TRUE,6,6,"[36,261,225,38,158,304,252,240,252,248,89,78,138,145,219,289,176,48,289,225]",1.9537,rectangle
,,,,,,,,,,,,,FF,,,,,,,,0.9004,,,,,,,,,,,,,,,,,,,,,,6103683d0b7556494a758939,61036c4fbc3d8dca65f5a629,2021-07-29_23h06.36.062,Simcolourproject_2stim_asymm_v5,2020.2.10,Win32,60,61025ae37ef11b136ea224fe,,,,,,,,,3991,57.6000123,19.99999386,1,0,0,response1disk,,6,10.4000116,-1.600006461,1,0,0,rectangle,10.4000116,-1.600006461,1,0,0,10.4000116,-1.600006461,1,0,0,0,38,38,133,1,,,,,,,,
,,,,,,,,,,,,,FF,,,,,,,,0.6721,,,,,,,,,,,,,,,,,,,,,,6103683d0b7556494a758939,61036c4fbc3d8dca65f5a629,2021-07-29_23h06.36.062,Simcolourproject_2stim_asymm_v5,2020.2.10,Win32,60,61025ae37ef11b136ea224fe,,,,,,,,,2457,81.60001266,-45.60000712,1,0,0,response3disk,,5,7.200011551,-0.800006449,1,0,0,rectangle,7.200011551,-0.800006449,1,0,0,7.200011551,-0.800006449,1,0,0,0,39,39,72,1,,,,,,,,
,,,,,,,,,,,,,FF,,,,,,,,1.1342,,,,,,,,,,,,,,,,,,,,,,6103683d0b7556494a758939,61036c4fbc3d8dca65f5a629,2021-07-29_23h06.36.062,Simcolourproject_2stim_asymm_v5,2020.2.10,Win32,60,61025ae37ef11b136ea224fe,,,,,,,,,703,-58.3999406,-106.400008,1,0,0,response5disk,,3,6.400011539,-14.40000665,1,0,0,rectangle,6.400011539,-14.40000665,1,0,0,6.400011539,-14.40000665,1,0,0,0,40,40,6,1,,,,,,,,
,,,,,,,,,,,,,FF,,,,,,,,0.9339,,,,,,,,,,,,,,,,,,,,,,6103683d0b7556494a758939,61036c4fbc3d8dca65f5a629,2021-07-29_23h06.36.062,Simcolourproject_2stim_asymm_v5,2020.2.10,Win32,60,61025ae37ef11b136ea224fe,,,,,,,,,2767,-34.39994024,-102.400008,1,0,0,response5disk,,3,-8.799988687,-15.20000666,1,0,0,rectangle,-8.799988687,-15.20000666,1,0,0,-8.799988687,-15.20000666,1,0,0,0,41,41,13,1,,,,,,,,
,,,,,,,,,,,,,FF,,,,,,,,1.0176,,,,,,,,,,,,,,,,,,,,,,6103683d0b7556494a758939,61036c4fbc3d8dca65f5a629,2021-07-29_23h06.36.062,Simcolourproject_2stim_asymm_v5,2020.2.10,Win32,60,61025ae37ef11b136ea224fe,,,,,,,,,2729,-24.79998893,-72.00000751,1,0,0,response5disk,,3,-7.999988675,-0.800006449,1,0,0,rectangle,-7.999988675,-0.800006449,1,0,0,-7.999988675,-0.800006449,1,0,0,0,42,42,141,1,,,,,,,,
,,,,,,,,,,,,,FF,,,,,,,,0.7177,,,,,,,,,,,,,,,,,,,,,,6103683d0b7556494a758939,61036c4fbc3d8dca65f5a629,2021-07-29_23h06.36.062,Simcolourproject_2stim_asymm_v5,2020.2.10,Win32,60,61025ae37ef11b136ea224fe,,,,,,,,,834,83.20001268,-72.00000751,1,0,0,response3disk,,5,5.600060356,-3.200006485,1,0,0,rectangle,5.600060356,-3.200006485,1,0,0,5.600060356,-3.200006485,1,0,0,0,43,43,98,1,,,,,,,,
,,,,,,,,,,,,,FF,,,,,,,,0.8718,,,,,,,,,,,,,,,,,,,,,,6103683d0b7556494a758939,61036c4fbc3d8dca65f5a629,2021-07-29_23h06.36.062,Simcolourproject_2stim_asymm_v5,2020.2.10,Win32,60,61025ae37ef11b136ea224fe,,,,,,,,,3451,50.4000122,-86.40000772,1,0,0,response3disk,,4,-13.59998876,3.19999361,1,0,0,rectangle,-13.59998876,3.19999361,1,0,0,-13.59998876,3.19999361,1,0,0,0,44,44,143,1,,,,,,,,
,,,,,,,,,,,,,FF,,,,,,,,0.6843,,,,,,,,,,,,,,,,,,,,,,6103683d0b7556494a758939,61036c4fbc3d8dca65f5a629,2021-07-29_23h06.36.062,Simcolourproject_2stim_asymm_v5,2020.2.10,Win32,60,61025ae37ef11b136ea224fe,,,,,,,,,2247,71.20001251,29.599994,1,0,0,response1disk,,6,8.800011575,5.599993646,1,0,0,rectangle,8.800011575,5.599993646,1,0,0,8.800011575,5.599993646,1,0,0,0,45,45,124,1,,,,,,,,
,,,,,,,,,,,,,FF,,,,,,,,1.0171,,,,,,,,,,,,,,,,,,,,,,6103683d0b7556494a758939,61036c4fbc3d8dca65f5a629,2021-07-29_23h06.36.062,Simcolourproject_2stim_asymm_v5,2020.2.10,Win32,60,61025ae37ef11b136ea224fe,,,,,,,,,4075,-55.19998938,-100.8000079,1,0,0,response5disk,,3,-8.799988687,-9.60000658,1,0,0,rectangle,-8.799988687,-9.60000658,1,0,0,-8.799988687,-9.60000658,1,0,0,0,46,46,92,1,,,,,,,,
,,,,,,,,,,,,,FF,,,,,,,,0.9122,,,,,,,,,,,,,,,,,,,,,,6103683d0b7556494a758939,61036c4fbc3d8dca65f5a629,2021-07-29_23h06.36.062,Simcolourproject_2stim_asymm_v5,2020.2.10,Win32,60,61025ae37ef11b136ea224fe,,,,,,,,,2289,-33.59998906,-88.80000776,1,0,0,response5disk,,3,9.600060415,-11.2000066,1,0,0,rectangle,-27.99998897,-90.40000778,1,0,0,-15.19998878,-7.200006545,1,0,0,0,47,47,135,1,,response5disk_3,TRUE,3,3,"[36,261,225,38,158,304,252,240,252,248,89,78,138,145,219,289,176,48,289,225]",1.5341,rectangle
,,,,,,,,,,,,,FF,,,,,,,,0.7673,,,,,,,,,,,,,,,,,,,,,,6103683d0b7556494a758939,61036c4fbc3d8dca65f5a629,2021-07-29_23h06.36.062,Simcolourproject_2stim_asymm_v5,2020.2.10,Win32,60,61025ae37ef11b136ea224fe,,,,,,,,,3557,-79.19998974,-36.80000699,1,0,0,response5disk,,2,0.800011456,1.599993587,1,0,0,rectangle,0.800011456,1.599993587,1,0,0,0.800011456,1.599993587,1,0,0,0,48,48,131,1,,,,,,,,
,,,,,,,,,,,,,FF,,,,,,,,0.9724,,,,,,,,,,,,,,,,,,,,,,6103683d0b7556494a758939,61036c4fbc3d8dca65f5a629,2021-07-29_23h06.36.062,Simcolourproject_2stim_asymm_v5,2020.2.10,Win32,60,61025ae37ef11b136ea224fe,,,,,,,,,4135,44.80001211,-98.4000079,1,0,0,response3disk,,4,3.200011492,1.599993587,1,0,0,rectangle,3.200011492,1.599993587,1,0,0,3.200011492,1.599993587,1,0,0,0,49,49,3,1,,,,,,,,
,,,,,,,,,,,,,FF,,,,,,,,0.9513,,,,,,,,,,,,,,,,,,,,,,6103683d0b7556494a758939,61036c4fbc3d8dca65f5a629,2021-07-29_23h06.36.062,Simcolourproject_2stim_asymm_v5,2020.2.10,Win32,60,61025ae37ef11b136ea224fe,,,,,,,,,2541,-57.59998941,84.79999483,1,0,0,response7disk,,0,-10.39993988,9.599993706,1,0,0,rectangle,-10.39993988,9.599993706,1,0,0,-10.39993988,9.599993706,1,0,0,0,50,50,48,1,,,,,,,,
,,,,,,,,,,,,,FF,,,,,,,,0.8386,,,,,,,,,,,,,,,,,,,,,,6103683d0b7556494a758939,61036c4fbc3d8dca65f5a629,2021-07-29_23h06.36.062,Simcolourproject_2stim_asymm_v5,2020.2.10,Win32,60,61025ae37ef11b136ea224fe,,,,,,,,,3693,28.80001187,-104.000008,1,0,0,response3disk,,4,3.200011492,-4.000006497,1,0,0,rectangle,3.200011492,-4.000006497,1,0,0,3.200011492,-4.000006497,1,0,0,0,51,51,111,1,,,,,,,,
,,,,,,,,,,,,,FF,,,,,,,,1.4838,,,,,,,,,,,,,,,,,,,,,,6103683d0b7556494a758939,61036c4fbc3d8dca65f5a629,2021-07-29_23h06.36.062,Simcolourproject_2stim_asymm_v5,2020.2.10,Win32,60,61025ae37ef11b136ea224fe,,,,,,,,,329,89.60001278,-42.40000707,1,0,0,response3disk,,5,-3.199988604,-6.400006533,1,0,0,rectangle,-3.199988604,-6.400006533,1,0,0,-3.199988604,-6.400006533,1,0,0,0,52,52,150,1,,,,,,,,
,,,,,,,,,,,,,FF,,,,,,,,0.7171,,,,,,,,,,,,,,,,,,,,,,6103683d0b7556494a758939,61036c4fbc3d8dca65f5a629,2021-07-29_23h06.36.062,Simcolourproject_2stim_asymm_v5,2020.2.10,Win32,60,61025ae37ef11b136ea224fe,,,,,,,,,221,-63.99998951,-86.40000772,1,0,0,response5disk,,3,14.40001166,-12.80000663,1,0,0,rectangle,14.40001166,-12.80000663,1,0,0,14.40001166,-12.80000663,1,0,0,0,53,53,29,1,,,,,,,,
,,,,,,,,,,,,,FF,,,,,,,,0.7003,,,,,,,,,,,,,,,,,,,,,,6103683d0b7556494a758939,61036c4fbc3d8dca65f5a629,2021-07-29_23h06.36.062,Simcolourproject_2stim_asymm_v5,2020.2.10,Win32,60,61025ae37ef11b136ea224fe,,,,,,,,,1913,83.20001268,-60.80000734,1,0,0,response3disk,,5,-7.999988675,-6.400006533,1,0,0,rectangle,-7.999988675,-6.400006533,1,0,0,-7.999988675,-6.400006533,1,0,0,0,54,54,83,1,,,,,,,,
,,,,,,,,,,,,,FF,,,,,,,,0.6169,,,,,,,,,,,,,,,,,,,,,,6103683d0b7556494a758939,61036c4fbc3d8dca65f5a629,2021-07-29_23h06.36.062,Simcolourproject_2stim_asymm_v5,2020.2.10,Win32,60,61025ae37ef11b136ea224fe,,,,,,,,,2006,95.20001286,-54.40000725,1,0,0,response3disk,,5,24.80001181,-6.4373E-06,1,0,0,rectangle,24.80001181,-6.4373E-06,1,0,0,24.80001181,-6.4373E-06,1,0,0,0,55,55,102,1,,,,,,,,
,,,,,,,,,,,,,FF,,,,,,,,0.6288,,,,,,,,,,,,,,,,,,,,,,6103683d0b7556494a758939,61036c4fbc3d8dca65f5a629,2021-07-29_23h06.36.062,Simcolourproject_2stim_asymm_v5,2020.2.10,Win32,60,61025ae37ef11b136ea224fe,,,,,,,,,1121,54.40001225,-84.8000077,1,0,0,response3disk,,4,-6.399939823,-8.800006568,1,0,0,rectangle,-6.399939823,-8.800006568,1,0,0,-6.399939823,-8.800006568,1,0,0,0,56,56,118,1,,,,,,,,
,,,,,,,,,,,,,FF,,,,,,,,0.7057,,,,,,,,,,,,,,,,,,,,,,6103683d0b7556494a758939,61036c4fbc3d8dca65f5a629,2021-07-29_23h06.36.062,Simcolourproject_2stim_asymm_v5,2020.2.10,Win32,60,61025ae37ef11b136ea224fe,,,,,,,,,3442,-44.79998922,-46.40000713,1,0,0,response5disk,,3,5.600060356,-6.4373E-06,1,0,0,rectangle,5.600060356,-6.4373E-06,1,0,0,5.600060356,-6.4373E-06,1,0,0,0,57,57,30,1,,,,,,,,
,,,,,,,,,,,,,FF,,,,,,,,0.5547,,,,,,,,,,,,,,,,,,,,,,6103683d0b7556494a758939,61036c4fbc3d8dca65f5a629,2021-07-29_23h06.36.062,Simcolourproject_2stim_asymm_v5,2020.2.10,Win32,60,61025ae37ef11b136ea224fe,,,,,,,,,4092,41.60006089,-90.40000778,1,0,0,response3disk,,4,19.20001173,-7.200006545,1,0,0,rectangle,19.20001173,-7.200006545,1,0,0,19.20001173,-7.200006545,1,0,0,0,58,58,129,1,,,,,,,,
,,,,,,,,,,,,,FF,,,,,,,,0.6889,,,,,,,,,,,,,,,,,,,,,,6103683d0b7556494a758939,61036c4fbc3d8dca65f5a629,2021-07-29_23h06.36.062,Simcolourproject_2stim_asymm_v5,2020.2.10,Win32,60,61025ae37ef11b136ea224fe,,,,,,,,,2085,-55.19998938,-54.40000725,1,0,0,response5disk,,2,-11.99998873,-4.000006497,1,0,0,rectangle,-11.99998873,-4.000006497,1,0,0,-11.99998873,-4.000006497,1,0,0,0,59,59,137,1,,,,,,,,
,,,,,,,,,,,,,FF,,,,,,,,0.5889,,,,,,,,,,,,,,,,,,,,,,6103683d0b7556494a758939,61036c4fbc3d8dca65f5a629,2021-07-29_23h06.36.062,Simcolourproject_2stim_asymm_v5,2020.2.10,Win32,60,61025ae37ef11b136ea224fe,,,,,,,,,1777,-49.5999893,-76.80000758,1,0,0,response5disk,,3,0.800011456,1.599993587,1,0,0,rectangle,0.800011456,1.599993587,1,0,0,0.800011456,1.599993587,1,0,0,0,60,60,116,1,,,,,,,,
,,,,,,,,,,,,,FF,,,,,,,,0.9174,,,,,,,,,,,,,,,,,,,,,,6103683d0b7556494a758939,61036c4fbc3d8dca65f5a629,2021-07-29_23h06.36.062,Simcolourproject_2stim_asymm_v5,2020.2.10,Win32,60,61025ae37ef11b136ea224fe,,,,,,,,,723,-89.59998989,-46.40000713,1,0,0,response5disk,,2,4.800011516,-4.800006509,1,0,0,rectangle,4.800011516,-4.800006509,1,0,0,4.800011516,-4.800006509,1,0,0,0,61,61,153,1,,,,,,,,
,,,,,,,,,,,,,FF,,,,,,,,0.7172,,,,,,,,,,,,,,,,,,,,,,6103683d0b7556494a758939,61036c4fbc3d8dca65f5a629,2021-07-29_23h06.36.062,Simcolourproject_2stim_asymm_v5,2020.2.10,Win32,60,61025ae37ef11b136ea224fe,,,,,,,,,717,-66.39994072,37.59999412,1,0,0,response7disk,,1,-8.799988687,8.799993694,1,0,0,rectangle,-8.799988687,8.799993694,1,0,0,-8.799988687,8.799993694,1,0,0,0,62,62,158,1,,,,,,,,
,,,,,,,,,,,,,FF,,,,,,,,1.0225,,,,,,,,,,,,,,,,,,,,,,6103683d0b7556494a758939,61036c4fbc3d8dca65f5a629,2021-07-29_23h06.36.062,Simcolourproject_2stim_asymm_v5,2020.2.10,Win32,60,61025ae37ef11b136ea224fe,,,,,,,,,3652,92.00001281,51.19996991,1,0,0,response1disk,,6,7.200011551,-6.4373E-06,1,0,0,rectangle,7.200011551,-6.4373E-06,1,0,0,7.200011551,-6.4373E-06,1,0,0,0,63,63,11,1,,,,,,,,
,,,,,,,,,,,,,FF,,,,,,,,0.7011,,,,,,,,,,,,,,,,,,,,,,6103683d0b7556494a758939,61036c4fbc3d8dca65f5a629,2021-07-29_23h06.36.062,Simcolourproject_2stim_asymm_v5,2020.2.10,Win32,60,61025ae37ef11b136ea224fe,,,,,,,,,132,104.000013,35.9999941,1,0,0,response1disk,,6,-2.399939764,-14.40000665,1,0,0,rectangle,-2.399939764,-14.40000665,1,0,0,-2.399939764,-14.40000665,1,0,0,0,64,64,125,1,,,,,,,,
,,,,,,,,,,,,,FF,,,,,,,,0.9636,,,,,,,,,,,,,,,,,,,,,,6103683d0b7556494a758939,61036c4fbc3d8dca65f5a629,2021-07-29_23h06.36.062,Simcolourproject_2stim_asymm_v5,2020.2.10,Win32,60,61025ae37ef11b136ea224fe,,,,,,,,,402,60.80001235,-51.2000072,1,0,0,response3disk,,5,4.000011504,-8.000006557,1,0,0,rectangle,4.000011504,-8.000006557,1,0,0,4.000011504,-8.000006557,1,0,0,0,65,65,59,1,,,,,,,,
,,,,,,,,,,,,,FF,,,,,,,,0.9719,,,,,,,,,,,,,,,,,,,,,,6103683d0b7556494a758939,61036c4fbc3d8dca65f5a629,2021-07-29_23h06.36.062,Simcolourproject_2stim_asymm_v5,2020.2.10,Win32,60,61025ae37ef11b136ea224fe,,,,,,,,,3043,-42.39994036,-95.20000786,1,0,0,response5disk,,3,-1.59998858,-1.600006461,1,0,0,rectangle,-1.59998858,-1.600006461,1,0,0,-1.59998858,-1.600006461,1,0,0,0,66,66,5,1,,,,,,,,
,,,,,,,,,,,,,FF,,,,,,,,1.4851,,,,,,,,,,,,,,,,,,,,,,6103683d0b7556494a758939,61036c4fbc3d8dca65f5a629,2021-07-29_23h06.36.062,Simcolourproject_2stim_asymm_v5,2020.2.10,Win32,60,61025ae37ef11b136ea224fe,,,,,,,,,2681,82.40001267,47.99999428,1,0,0,response1disk,,6,4.000011504,-5.600006521,1,0,0,rectangle,4.000011504,-5.600006521,1,0,0,4.000011504,-5.600006521,1,0,0,0,67,67,71,1,,,,,,,,
,,,,,,,,,,,,,FF,,,,,,,,1.2387,,,,,,,,,,,,,,,,,,,,,,6103683d0b7556494a758939,61036c4fbc3d8dca65f5a629,2021-07-29_23h06.36.062,Simcolourproject_2stim_asymm_v5,2020.2.10,Win32,60,61025ae37ef11b136ea224fe,,,,,,,,,2789,-31.99998903,-72.80000752,1,0,0,response5disk,,3,-9.599988699,4.799993634,1,0,0,rectangle,-9.599988699,4.799993634,1,0,0,-9.599988699,4.799993634,1,0,0,0,68,68,24,1,,,,,,,,
,,,,,,,,,,,,,FF,,,,,,,,1.5725,,,,,,,,,,,,,,,,,,,,,,6103683d0b7556494a758939,61036c4fbc3d8dca65f5a629,2021-07-29_23h06.36.062,Simcolourproject_2stim_asymm_v5,2020.2.10,Win32,60,61025ae37ef11b136ea224fe,,,,,,,,,1953,39.20001203,-84.00000769,1,0,0,response3disk,,4,-1.59998858,-11.2000066,1,0,0,rectangle,-1.59998858,-11.2000066,1,0,0,-1.59998858,-11.2000066,1,0,0,0,69,69,146,1,,,,,,,,
,,,,,,,,,,,,,FF,,,,,,,,0.8172,,,,,,,,,,,,,,,,,,,,,,6103683d0b7556494a758939,61036c4fbc3d8dca65f5a629,2021-07-29_23h06.36.062,Simcolourproject_2stim_asymm_v5,2020.2.10,Win32,60,61025ae37ef11b136ea224fe,,,,,,,,,1095,78.40001261,29.599994,1,0,0,response1disk,,6,2.40001148,-3.200006485,1,0,0,rectangle,2.40001148,-3.200006485,1,0,0,2.40001148,-3.200006485,1,0,0,0,70,70,120,1,,,,,,,,
,,,,,,,,,,,,,FF,,,,,,,,0.8054,,,,,,,,,,,,,,,,,,,,,,6103683d0b7556494a758939,61036c4fbc3d8dca65f5a629,2021-07-29_23h06.36.062,Simcolourproject_2stim_asymm_v5,2020.2.10,Win32,60,61025ae37ef11b136ea224fe,,,,,,,,,2262,74.40001255,-50.40000719,1,0,0,response3disk,,5,16.00001168,-5.600006521,1,0,0,rectangle,16.00001168,-5.600006521,1,0,0,16.00001168,-5.600006521,1,0,0,0,71,71,12,1,,,,,,,,
,,,,,,,,,,,,,FF,,,,,,,,1.039,,,,,,,,,,,,,,,,,,,,,,6103683d0b7556494a758939,61036c4fbc3d8dca65f5a629,2021-07-29_23h06.36.062,Simcolourproject_2stim_asymm_v5,2020.2.10,Win32,60,61025ae37ef11b136ea224fe,,,,,,,,,4304,84.0000127,-40.80000705,1,0,0,response3disk,,5,15.20001167,-10.40000659,1,0,0,rectangle,15.20001167,-10.40000659,1,0,0,15.20001167,-10.40000659,1,0,0,0,72,72,39,1,,,,,,,,
,,,,,,,,,,,,,FF,,,,,,,,0.8506,,,,,,,,,,,,,,,,,,,,,,6103683d0b7556494a758939,61036c4fbc3d8dca65f5a629,2021-07-29_23h06.36.062,Simcolourproject_2stim_asymm_v5,2020.2.10,Win32,60,61025ae37ef11b136ea224fe,,,,,,,,,2936,-63.99998951,-24.80000681,1,0,0,response5disk,,2,-0.799988568,-5.600006521,1,0,0,rectangle,-0.799988568,-5.600006521,1,0,0,-0.799988568,-5.600006521,1,0,0,0,73,73,105,1,,,,,,,,
,,,,,,,,,,,,,FF,,,,,,,,0.7006,,,,,,,,,,,,,,,,,,,,,,6103683d0b7556494a758939,61036c4fbc3d8dca65f5a629,2021-07-29_23h06.36.062,Simcolourproject_2stim_asymm_v5,2020.2.10,Win32,60,61025ae37ef11b136ea224fe,,,,,,,,,2250,69.60001248,35.9999941,1,0,0,response1disk,,6,-18.39994,-12.00000662,1,0,0,rectangle,-18.39994,-12.00000662,1,0,0,-18.39994,-12.00000662,1,0,0,0,74,74,113,1,,,,,,,,
,,,,,,,,,,,,,FF,,,,,,,,1.4504,,,,,,,,,,,,,,,,,,,,,,6103683d0b7556494a758939,61036c4fbc3d8dca65f5a629,2021-07-29_23h06.36.062,Simcolourproject_2stim_asymm_v5,2020.2.10,Win32,60,61025ae37ef11b136ea224fe,,,,,,,,,189,-60.79998946,-60.00000733,1,0,0,response5disk,,2,-14.39993994,-14.40000665,1,0,0,rectangle,-14.39993994,-14.40000665,1,0,0,-14.39993994,-14.40000665,1,0,0,0,75,75,21,1,,,,,,,,
,,,,,,,,,,,,,FF,,,,,,,,1.1361,,,,,,,,,,,,,,,,,,,,,,6103683d0b7556494a758939,61036c4fbc3d8dca65f5a629,2021-07-29_23h06.36.062,Simcolourproject_2stim_asymm_v5,2020.2.10,Win32,60,61025ae37ef11b136ea224fe,,,,,,,,,3287,-48.79998928,-42.40000707,1,0,0,response5disk,,2,4.000011504,-6.4373E-06,1,0,0,rectangle,4.000011504,-6.4373E-06,1,0,0,4.000011504,-6.4373E-06,1,0,0,0,76,76,0,1,,,,,,,,
,,,,,,,,,,,,,FF,,,,,,,,0.6459,,,,,,,,,,,,,,,,,,,,,,6103683d0b7556494a758939,61036c4fbc3d8dca65f5a629,2021-07-29_23h06.36.062,Simcolourproject_2stim_asymm_v5,2020.2.10,Win32,60,61025ae37ef11b136ea224fe,,,,,,,,,3284,-83.1999898,-37.600007,1,0,0,response5disk,,2,12.80001163,-2.400006473,1,0,0,rectangle,-71.19998962,43.19996979,1,0,0,-9.599988699,4.799993634,1,0,0,0,77,77,91,1,,response7disk_3,TRUE,1,1,"[36,261,225,38,158,304,252,240,252,248,89,78,138,145,219,289,176,48,289,225]",1.5888,rectangle
,,,,,,,,,,,,,FF,,,,,,,,0.9841,,,,,,,,,,,,,,,,,,,,,,6103683d0b7556494a758939,61036c4fbc3d8dca65f5a629,2021-07-29_23h06.36.062,Simcolourproject_2stim_asymm_v5,2020.2.10,Win32,60,61025ae37ef11b136ea224fe,,,,,,,,,3277,-41.59998918,-89.6000566,1,0,0,response5disk,,3,22.40001178,-6.400006533,1,0,0,rectangle,22.40001178,-6.400006533,1,0,0,22.40001178,-6.400006533,1,0,0,0,78,78,103,1,,,,,,,,
,,,,,,,,,,,,,FF,,,,,,,,1.1391,,,,,,,,,,,,,,,,,,,,,,6103683d0b7556494a758939,61036c4fbc3d8dca65f5a629,2021-07-29_23h06.36.062,Simcolourproject_2stim_asymm_v5,2020.2.10,Win32,60,61025ae37ef11b136ea224fe,,,,,,,,,1061,43.20001209,-100.0000079,1,0,0,response3disk,,4,-2.399939764,-1.600006461,1,0,0,rectangle,-2.399939764,-1.600006461,1,0,0,-2.399939764,-1.600006461,1,0,0,0,79,79,77,1,,,,,,,,
,,,,,,,,,,,,,FF,,,,,,,,1.1274,,,,,,,,,,,,,,,,,,,,,,6103683d0b7556494a758939,61036c4fbc3d8dca65f5a629,2021-07-29_23h06.36.062,Simcolourproject_2stim_asymm_v5,2020.2.10,Win32,60,61025ae37ef11b136ea224fe,,,,,,,,,2225,36.00001198,-72.80000752,1,0,0,response3disk,,4,3.200011492,2.399993598,1,0,0,rectangle,3.200011492,2.399993598,1,0,0,3.200011492,2.399993598,1,0,0,0,80,80,17,1,,,,,,,,
,,,,,,,,,,,,,FF,,,,,,,,1.0508,,,,,,,,,,,,,,,,,,,,,,6103683d0b7556494a758939,61036c4fbc3d8dca65f5a629,2021-07-29_23h06.36.062,Simcolourproject_2stim_asymm_v5,2020.2.10,Win32,60,61025ae37ef11b136ea224fe,,,,,,,,,3602,-44.79998922,-88.00000775,1,0,0,response5disk,,3,-3.199988604,3.999993622,1,0,0,rectangle,-3.199988604,3.999993622,1,0,0,-3.199988604,3.999993622,1,0,0,0,81,81,67,1,,,,,,,,
,,,,,,,,,,,,,FF,,,,,,,,0.8723,,,,,,,,,,,,,,,,,,,,,,6103683d0b7556494a758939,61036c4fbc3d8dca65f5a629,2021-07-29_23h06.36.062,Simcolourproject_2stim_asymm_v5,2020.2.10,Win32,60,61025ae37ef11b136ea224fe,,,,,,,,,1431,56.00001228,-76.00000757,1,0,0,response3disk,,4,6.400011539,-6.400006533,1,0,0,rectangle,6.400011539,-6.400006533,1,0,0,6.400011539,-6.400006533,1,0,0,0,82,82,42,1,,,,,,,,
,,,,,,,,,,,,,FF,,,,,,,,0.7723,,,,,,,,,,,,,,,,,,,,,,6103683d0b7556494a758939,61036c4fbc3d8dca65f5a629,2021-07-29_23h06.36.062,Simcolourproject_2stim_asymm_v5,2020.2.10,Win32,60,61025ae37ef11b136ea224fe,,,,,,,,,3379,30.4000119,-67.20000744,1,0,0,response3disk,,4,-10.39993988,-7.200006545,1,0,0,rectangle,-10.39993988,-7.200006545,1,0,0,-10.39993988,-7.200006545,1,0,0,0,83,83,81,1,,,,,,,,
,,,,,,,,,,,,,FF,,,,,,,,0.9509,,,,,,,,,,,,,,,,,,,,,,6103683d0b7556494a758939,61036c4fbc3d8dca65f5a629,2021-07-29_23h06.36.062,Simcolourproject_2stim_asymm_v5,2020.2.10,Win32,60,61025ae37ef11b136ea224fe,,,,,,,,,605,-29.599989,-64.8000074,1,0,0,response5disk,,3,-4.799988627,-16.80000669,1,0,0,rectangle,-4.799988627,-16.80000669,1,0,0,-4.799988627,-16.80000669,1,0,0,0,84,84,9,1,,,,,,,,
,,,,,,,,,,,,,FF,,,,,,,,0.7336,,,,,,,,,,,,,,,,,,,,,,6103683d0b7556494a758939,61036c4fbc3d8dca65f5a629,2021-07-29_23h06.36.062,Simcolourproject_2stim_asymm_v5,2020.2.10,Win32,60,61025ae37ef11b136ea224fe,,,,,,,,,3071,85.60001272,26.39999396,1,0,0,response1disk,,6,18.40001172,-2.400006473,1,0,0,rectangle,18.40001172,-2.400006473,1,0,0,18.40001172,-2.400006473,1,0,0,0,85,85,58,1,,,,,,,,
,,,,,,,,,,,,,FF,,,,,,,,0.8007,,,,,,,,,,,,,,,,,,,,,,6103683d0b7556494a758939,61036c4fbc3d8dca65f5a629,2021-07-29_23h06.36.062,Simcolourproject_2stim_asymm_v5,2020.2.10,Win32,60,61025ae37ef11b136ea224fe,,,,,,,,,2217,-91.19998991,-47.20000714,1,0,0,response5disk,,2,0.800011456,-1.600006461,1,0,0,rectangle,0.800011456,-1.600006461,1,0,0,0.800011456,-1.600006461,1,0,0,0,86,86,138,1,,,,,,,,
,,,,,,,,,,,,,FF,,,,,,,,0.8672,,,,,,,,,,,,,,,,,,,,,,6103683d0b7556494a758939,61036c4fbc3d8dca65f5a629,2021-07-29_23h06.36.062,Simcolourproject_2stim_asymm_v5,2020.2.10,Win32,60,61025ae37ef11b136ea224fe,,,,,,,,,146,86.40001273,-63.20000738,1,0,0,response3disk,,5,15.20001167,-3.200006485,1,0,0,rectangle,15.20001167,-3.200006485,1,0,0,15.20001167,-3.200006485,1,0,0,0,87,87,100,1,,,,,,,,
,,,,,,,,,,,,,FF,,,,,,,,0.7556,,,,,,,,,,,,,,,,,,,,,,6103683d0b7556494a758939,61036c4fbc3d8dca65f5a629,2021-07-29_23h06.36.062,Simcolourproject_2stim_asymm_v5,2020.2.10,Win32,60,61025ae37ef11b136ea224fe,,,,,,,,,878,61.60001236,-40.00000703,1,0,0,response3disk,,5,-18.39994,10.39999372,1,0,0,rectangle,-89.59998989,30.39999402,1,0,0,7.200011551,-2.400006473,1,0,0,0,88,88,66,1,,response7disk_3,TRUE,1,1,"[36,261,225,38,158,304,252,240,252,248,89,78,138,145,219,289,176,48,289,225]",1.7728,rectangle
,,,,,,,,,,,,,FF,,,,,,,,0.9172,,,,,,,,,,,,,,,,,,,,,,6103683d0b7556494a758939,61036c4fbc3d8dca65f5a629,2021-07-29_23h06.36.062,Simcolourproject_2stim_asymm_v5,2020.2.10,Win32,60,61025ae37ef11b136ea224fe,,,,,,,,,2690,62.40001237,29.599994,1,0,0,response1disk,,6,8.800011575,-0.800006449,1,0,0,rectangle,8.800011575,-0.800006449,1,0,0,8.800011575,-0.800006449,1,0,0,0,89,89,144,1,,,,,,,,
,,,,,,,,,,,,,FF,,,,,,,,0.6553,,,,,,,,,,,,,,,,,,,,,,6103683d0b7556494a758939,61036c4fbc3d8dca65f5a629,2021-07-29_23h06.36.062,Simcolourproject_2stim_asymm_v5,2020.2.10,Win32,60,61025ae37ef11b136ea224fe,,,,,,,,,151,64.0000124,-64.8000074,1,0,0,response3disk,,4,9.600060415,-4.000006497,1,0,0,rectangle,9.600060415,-4.000006497,1,0,0,9.600060415,-4.000006497,1,0,0,0,90,90,34,1,,,,,,,,
,,,,,,,,,,,,,FF,,,,,,,,0.6502,,,,,,,,,,,,,,,,,,,,,,6103683d0b7556494a758939,61036c4fbc3d8dca65f5a629,2021-07-29_23h06.36.062,Simcolourproject_2stim_asymm_v5,2020.2.10,Win32,60,61025ae37ef11b136ea224fe,,,,,,,,,854,72.00001252,-46.40000713,1,0,0,response3disk,,5,12.00001162,-1.600006461,1,0,0,rectangle,12.00001162,-1.600006461,1,0,0,12.00001162,-1.600006461,1,0,0,0,91,91,139,1,,,,,,,,
,,,,,,,,,,,,,FF,,,,,,,,0.6169,,,,,,,,,,,,,,,,,,,,,,6103683d0b7556494a758939,61036c4fbc3d8dca65f5a629,2021-07-29_23h06.36.062,Simcolourproject_2stim_asymm_v5,2020.2.10,Win32,60,61025ae37ef11b136ea224fe,,,,,,,,,31,64.80001241,32.79999405,1,0,0,response1disk,,6,16.00001168,0.799993575,1,0,0,rectangle,16.00001168,0.799993575,1,0,0,16.00001168,0.799993575,1,0,0,0,92,92,55,1,,,,,,,,
,,,,,,,,,,,,,FF,,,,,,,,1.0389,,,,,,,,,,,,,,,,,,,,,,6103683d0b7556494a758939,61036c4fbc3d8dca65f5a629,2021-07-29_23h06.36.062,Simcolourproject_2stim_asymm_v5,2020.2.10,Win32,60,61025ae37ef11b136ea224fe,,,,,,,,,4168,-85.59998983,-30.40000689,1,0,0,response5disk,,2,7.200011551,-0.800006449,1,0,0,rectangle,7.200011551,-0.800006449,1,0,0,7.200011551,-0.800006449,1,0,0,0,93,93,151,1,,,,,,,,
,,,,,,,,,,,,,FF,,,,,,,,0.6222,,,,,,,,,,,,,,,,,,,,,,6103683d0b7556494a758939,61036c4fbc3d8dca65f5a629,2021-07-29_23h06.36.062,Simcolourproject_2stim_asymm_v5,2020.2.10,Win32,60,61025ae37ef11b136ea224fe,,,,,,,,,4325,98.40001291,-51.2000072,1,0,0,response3disk,,5,17.60006053,2.399993598,1,0,0,rectangle,17.60006053,2.399993598,1,0,0,17.60006053,2.399993598,1,0,0,0,94,94,108,1,,,,,,,,
,,,,,,,,,,,,,FF,,,,,,,,0.5221,,,,,,,,,,,,,,,,,,,,,,6103683d0b7556494a758939,61036c4fbc3d8dca65f5a629,2021-07-29_23h06.36.062,Simcolourproject_2stim_asymm_v5,2020.2.10,Win32,60,61025ae37ef11b136ea224fe,,,,,,,,,2807,56.80001229,26.39999396,1,0,0,response1disk,,6,-3.999988616,-8.000006557,1,0,0,rectangle,-3.999988616,-8.000006557,1,0,0,-3.999988616,-8.000006557,1,0,0,0,95,95,32,1,,,,,,,,
,,,,,,,,,,,,,FF,,,,,,,,0.6887,,,,,,,,,,,,,,,,,,,,,,6103683d0b7556494a758939,61036c4fbc3d8dca65f5a629,2021-07-29_23h06.36.062,Simcolourproject_2stim_asymm_v5,2020.2.10,Win32,60,61025ae37ef11b136ea224fe,,,,,,,,,1043,75.20001256,-42.40000707,1,0,0,response3disk,,5,0.800011456,9.599993706,1,0,0,rectangle,0.800011456,9.599993706,1,0,0,0.800011456,9.599993706,1,0,0,0,96,96,60,1,,,,,,,,
,,,,,,,,,,,,,FF,,,,,,,,0.8011,,,,,,,,,,,,,,,,,,,,,,6103683d0b7556494a758939,61036c4fbc3d8dca65f5a629,2021-07-29_23h06.36.062,Simcolourproject_2stim_asymm_v5,2020.2.10,Win32,60,61025ae37ef11b136ea224fe,,,,,,,,,2818,99.20001292,41.59999418,1,0,0,response1disk,,6,8.000011563,-5.600006521,1,0,0,rectangle,8.000011563,-5.600006521,1,0,0,8.000011563,-5.600006521,1,0,0,0,97,97,107,1,,,,,,,,
,,,,,,,,,,,,,FF,,,,,,,,1.0345,,,,,,,,,,,,,,,,,,,,,,6103683d0b7556494a758939,61036c4fbc3d8dca65f5a629,2021-07-29_23h06.36.062,Simcolourproject_2stim_asymm_v5,2020.2.10,Win32,60,61025ae37ef11b136ea224fe,,,,,,,,,970,-102.3999413,31.99999404,1,0,0,response7disk,,1,5.600060356,4.799993634,1,0,0,rectangle,5.600060356,4.799993634,1,0,0,5.600060356,4.799993634,1,0,0,0,98,98,128,1,,,,,,,,
,,,,,,,,,,,,,FF,,,,,,,,1.001,,,,,,,,,,,,,,,,,,,,,,6103683d0b7556494a758939,61036c4fbc3d8dca65f5a629,2021-07-29_23h06.36.062,Simcolourproject_2stim_asymm_v5,2020.2.10,Win32,60,61025ae37ef11b136ea224fe,,,,,,,,,1350,84.0000127,48.79999429,1,0,0,response1disk,,6,-1.59998858,11.19999373,1,0,0,rectangle,-1.59998858,11.19999373,1,0,0,-1.59998858,11.19999373,1,0,0,0,99,99,53,1,,,,,,,,
,,,,,,,,,,,,,FF,,,,,,,,15.6237,,,,,,,,,,,,,,,,,,,,,,6103683d0b7556494a758939,61036c4fbc3d8dca65f5a629,2021-07-29_23h06.36.062,Simcolourproject_2stim_asymm_v5,2020.2.10,Win32,60,61025ae37ef11b136ea224fe,,,,,,,,,1326,-42.39994036,-75.20000756,1,0,0,response5disk,,3,-6.399939823,-6.4373E-06,1,0,0,rectangle,-6.399939823,-6.4373E-06,1,0,0,-6.399939823,-6.4373E-06,1,0,0,0,100,100,136,1,,,,,,,,
,,,,,,,,,,,,,FF,,,,,,,,1.0675,,,,,,,,,,,,,,,,,,,,,,6103683d0b7556494a758939,61036c4fbc3d8dca65f5a629,2021-07-29_23h06.36.062,Simcolourproject_2stim_asymm_v5,2020.2.10,Win32,60,61025ae37ef11b136ea224fe,,,,,,,,,2801,91.2000128,-42.40000707,1,0,0,response3disk,,5,11.20001161,0.799993575,1,0,0,rectangle,11.20001161,0.799993575,1,0,0,11.20001161,0.799993575,1,0,0,0,101,101,15,1,,,,,,,,
,,,,,,,,,,,,,FF,,,,,,,,1.5226,,,,,,,,,,,,,,,,,,,,,,6103683d0b7556494a758939,61036c4fbc3d8dca65f5a629,2021-07-29_23h06.36.062,Simcolourproject_2stim_asymm_v5,2020.2.10,Win32,60,61025ae37ef11b136ea224fe,,,,,,,,,4306,-105.5999901,36.79999411,1,0,0,response7disk,,1,8.800011575,0.799993575,1,0,0,rectangle,8.800011575,0.799993575,1,0,0,8.800011575,0.799993575,1,0,0,0,102,102,93,1,,,,,,,,
,,,,,,,,,,,,,FF,,,,,,,,1.1059,,,,,,,,,,,,,,,,,,,,,,6103683d0b7556494a758939,61036c4fbc3d8dca65f5a629,2021-07-29_23h06.36.062,Simcolourproject_2stim_asymm_v5,2020.2.10,Win32,60,61025ae37ef11b136ea224fe,,,,,,,,,3810,-61.59998947,89.5999949,1,0,0,response7disk,,0,3.200011492,10.39999372,1,0,0,rectangle,3.200011492,10.39999372,1,0,0,3.200011492,10.39999372,1,0,0,0,103,103,64,1,,,,,,,,
,,,,,,,,,,,,,FF,,,,,,,,0.7677,,,,,,,,,,,,,,,,,,,,,,6103683d0b7556494a758939,61036c4fbc3d8dca65f5a629,2021-07-29_23h06.36.062,Simcolourproject_2stim_asymm_v5,2020.2.10,Win32,60,61025ae37ef11b136ea224fe,,,,,,,,,2720,-79.19998974,-45.60000712,1,0,0,response5disk,,2,-0.799988568,-6.400006533,1,0,0,rectangle,-0.799988568,-6.400006533,1,0,0,-0.799988568,-6.400006533,1,0,0,0,104,104,76,1,,,,,,,,
,,,,,,,,,,,,,FF,,,,,,,,0.6053,,,,,,,,,,,,,,,,,,,,,,6103683d0b7556494a758939,61036c4fbc3d8dca65f5a629,2021-07-29_23h06.36.062,Simcolourproject_2stim_asymm_v5,2020.2.10,Win32,60,61025ae37ef11b136ea224fe,,,,,,,,,2103,-48.79998928,-105.6000568,1,0,0,response5disk,,3,4.800011516,-12.80000663,1,0,0,rectangle,4.800011516,-12.80000663,1,0,0,4.800011516,-12.80000663,1,0,0,0,105,105,80,1,,,,,,,,
,,,,,,,,,,,,,FF,,,,,,,,0.4887,,,,,,,,,,,,,,,,,,,,,,6103683d0b7556494a758939,61036c4fbc3d8dca65f5a629,2021-07-29_23h06.36.062,Simcolourproject_2stim_asymm_v5,2020.2.10,Win32,60,61025ae37ef11b136ea224fe,,,,,,,,,1882,34.40001196,-72.00000751,1,0,0,response3disk,,4,-0.799988568,-10.40000659,1,0,0,rectangle,-0.799988568,-10.40000659,1,0,0,-0.799988568,-10.40000659,1,0,0,0,106,106,119,1,,,,,,,,
,,,,,,,,,,,,,FF,,,,,,,,0.7957,,,,,,,,,,,,,,,,,,,,,,6103683d0b7556494a758939,61036c4fbc3d8dca65f5a629,2021-07-29_23h06.36.062,Simcolourproject_2stim_asymm_v5,2020.2.10,Win32,60,61025ae37ef11b136ea224fe,,,,,,,,,2057,74.40001255,-33.60000694,1,0,0,response3disk,,5,-0.799988568,3.19999361,1,0,0,rectangle,-0.799988568,3.19999361,1,0,0,-0.799988568,3.19999361,1,0,0,0,107,107,31,1,,,,,,,,
,,,,,,,,,,,,,FF,,,,,,,,1.3174,,,,,,,,,,,,,,,,,,,,,,6103683d0b7556494a758939,61036c4fbc3d8dca65f5a629,2021-07-29_23h06.36.062,Simcolourproject_2stim_asymm_v5,2020.2.10,Win32,60,61025ae37ef11b136ea224fe,,,,,,,,,18,38.40001202,-85.60005654,1,0,0,response3disk,,4,1.14441E-05,-8.000006557,1,0,0,rectangle,1.14441E-05,-8.000006557,1,0,0,1.14441E-05,-8.000006557,1,0,0,0,108,108,117,1,,,,,,,,
,,,,,,,,,,,,,FF,,,,,,,,0.6669,,,,,,,,,,,,,,,,,,,,,,6103683d0b7556494a758939,61036c4fbc3d8dca65f5a629,2021-07-29_23h06.36.062,Simcolourproject_2stim_asymm_v5,2020.2.10,Win32,60,61025ae37ef11b136ea224fe,,,,,,,,,3320,56.80001229,30.39999402,1,0,0,response1disk,,6,1.14441E-05,-1.600006461,1,0,0,rectangle,1.14441E-05,-1.600006461,1,0,0,1.14441E-05,-1.600006461,1,0,0,0,109,109,130,1,,,,,,,,
,,,,,,,,,,,,,FF,,,,,,,,1.7685,,,,,,,,,,,,,,,,,,,,,,6103683d0b7556494a758939,61036c4fbc3d8dca65f5a629,2021-07-29_23h06.36.062,Simcolourproject_2stim_asymm_v5,2020.2.10,Win32,60,61025ae37ef11b136ea224fe,,,,,,,,,3088,71.20001251,41.59999418,1,0,0,response1disk,,6,-4.799988627,-4.000006497,1,0,0,rectangle,-4.799988627,-4.000006497,1,0,0,-4.799988627,-4.000006497,1,0,0,0,110,110,156,1,,,,,,,,
,,,,,,,,,,,,,FF,,,,,,,,1.2388,,,,,,,,,,,,,,,,,,,,,,6103683d0b7556494a758939,61036c4fbc3d8dca65f5a629,2021-07-29_23h06.36.062,Simcolourproject_2stim_asymm_v5,2020.2.10,Win32,60,61025ae37ef11b136ea224fe,,,,,,,,,1421,76.80001259,36.79999411,1,0,0,response1disk,,6,-3.999988616,-0.800006449,1,0,0,rectangle,-3.999988616,-0.800006449,1,0,0,-3.999988616,-0.800006449,1,0,0,0,111,111,2,1,,,,,,,,
,,,,,,,,,,,,,FF,,,,,,,,0.734,,,,,,,,,,,,,,,,,,,,,,6103683d0b7556494a758939,61036c4fbc3d8dca65f5a629,2021-07-29_23h06.36.062,Simcolourproject_2stim_asymm_v5,2020.2.10,Win32,60,61025ae37ef11b136ea224fe,,,,,,,,,434,-50.39994048,-88.80000776,1,0,0,response5disk,,3,-3.199988604,1.599993587,1,0,0,rectangle,-3.199988604,1.599993587,1,0,0,-3.199988604,1.599993587,1,0,0,0,112,112,155,1,,,,,,,,
,,,,,,,,,,,,,FF,,,,,,,,0.7006,,,,,,,,,,,,,,,,,,,,,,6103683d0b7556494a758939,61036c4fbc3d8dca65f5a629,2021-07-29_23h06.36.062,Simcolourproject_2stim_asymm_v5,2020.2.10,Win32,60,61025ae37ef11b136ea224fe,,,,,,,,,4276,67.20001245,-51.2000072,1,0,0,response3disk,,5,8.000011563,-11.2000066,1,0,0,rectangle,8.000011563,-11.2000066,1,0,0,8.000011563,-11.2000066,1,0,0,0,113,113,85,1,,,,,,,,
,,,,,,,,,,,,,FF,,,,,,,,0.8725,,,,,,,,,,,,,,,,,,,,,,6103683d0b7556494a758939,61036c4fbc3d8dca65f5a629,2021-07-29_23h06.36.062,Simcolourproject_2stim_asymm_v5,2020.2.10,Win32,60,61025ae37ef11b136ea224fe,,,,,,,,,905,53.60001224,-86.40000772,1,0,0,response3disk,,4,3.200011492,-4.000006497,1,0,0,rectangle,3.200011492,-4.000006497,1,0,0,3.200011492,-4.000006497,1,0,0,0,114,114,112,1,,,,,,,,
,,,,,,,,,,,,,FF,,,,,,,,1.1225,,,,,,,,,,,,,,,,,,,,,,6103683d0b7556494a758939,61036c4fbc3d8dca65f5a629,2021-07-29_23h06.36.062,Simcolourproject_2stim_asymm_v5,2020.2.10,Win32,60,61025ae37ef11b136ea224fe,,,,,,,,,3877,-47.19998926,-104.000008,1,0,0,response5disk,,3,-4.799988627,-8.800006568,1,0,0,rectangle,-4.799988627,-8.800006568,1,0,0,-4.799988627,-8.800006568,1,0,0,0,115,115,74,1,,,,,,,,
,,,,,,,,,,,,,FF,,,,,,,,0.6172,,,,,,,,,,,,,,,,,,,,,,6103683d0b7556494a758939,61036c4fbc3d8dca65f5a629,2021-07-29_23h06.36.062,Simcolourproject_2stim_asymm_v5,2020.2.10,Win32,60,61025ae37ef11b136ea224fe,,,,,,,,,2971,62.40001237,-77.60000759,1,0,0,response3disk,,4,13.60006047,-2.400006473,1,0,0,rectangle,13.60006047,-2.400006473,1,0,0,13.60006047,-2.400006473,1,0,0,0,116,116,51,1,,,,,,,,
,,,,,,,,,,,,,FF,,,,,,,,0.8055,,,,,,,,,,,,,,,,,,,,,,6103683d0b7556494a758939,61036c4fbc3d8dca65f5a629,2021-07-29_23h06.36.062,Simcolourproject_2stim_asymm_v5,2020.2.10,Win32,60,61025ae37ef11b136ea224fe,,,,,,,,,2943,-45.59998924,-91.2000078,1,0,0,response5disk,,3,-9.599988699,-11.2000066,1,0,0,rectangle,-9.599988699,-11.2000066,1,0,0,-9.599988699,-11.2000066,1,0,0,0,117,117,104,1,,,,,,,,
,,,,,,,,,,,,,FF,,,,,,,,1.4008,,,,,,,,,,,,,,,,,,,,,,6103683d0b7556494a758939,61036c4fbc3d8dca65f5a629,2021-07-29_23h06.36.062,Simcolourproject_2stim_asymm_v5,2020.2.10,Win32,60,61025ae37ef11b136ea224fe,,,,,,,,,1393,34.40001196,-85.60005654,1,0,0,response3disk,,4,-1.59998858,-4.800006509,1,0,0,rectangle,-1.59998858,-4.800006509,1,0,0,-1.59998858,-4.800006509,1,0,0,0,118,118,121,1,,,,,,,,
,,,,,,,,,,,,,FF,,,,,,,,1.0174,,,,,,,,,,,,,,,,,,,,,,6103683d0b7556494a758939,61036c4fbc3d8dca65f5a629,2021-07-29_23h06.36.062,Simcolourproject_2stim_asymm_v5,2020.2.10,Win32,60,61025ae37ef11b136ea224fe,,,,,,,,,3999,42.40001208,-108.8000081,1,0,0,response3disk,,4,8.000011563,-2.400006473,1,0,0,rectangle,8.000011563,-2.400006473,1,0,0,8.000011563,-2.400006473,1,0,0,0,119,119,25,1,,,,,,,,
,,,,,,,,,,,,,FF,,,,,,,,0.722,,,,,,,,,,,,,,,,,,,,,,6103683d0b7556494a758939,61036c4fbc3d8dca65f5a629,2021-07-29_23h06.36.062,Simcolourproject_2stim_asymm_v5,2020.2.10,Win32,60,61025ae37ef11b136ea224fe,,,,,,,,,378,65.60001242,39.99999416,1,0,0,response1disk,,6,-5.599988639,-9.60000658,1,0,0,rectangle,-5.599988639,-9.60000658,1,0,0,-5.599988639,-9.60000658,1,0,0,0,120,120,106,1,,,,,,,,
,,,,,,,,,,,,,FF,,,,,,,,1.5392,,,,,,,,,,,,,,,,,,,,,,6103683d0b7556494a758939,61036c4fbc3d8dca65f5a629,2021-07-29_23h06.36.062,Simcolourproject_2stim_asymm_v5,2020.2.10,Win32,60,61025ae37ef11b136ea224fe,,,,,,,,,3148,-48.79998928,-92.00000781,1,0,0,response5disk,,3,1.600060296,8.799993694,1,0,0,rectangle,1.600060296,8.799993694,1,0,0,1.600060296,8.799993694,1,0,0,0,121,121,142,1,,,,,,,,
,,,,,,,,,,,,,FF,,,,,,,,1.2171,,,,,,,,,,,,,,,,,,,,,,6103683d0b7556494a758939,61036c4fbc3d8dca65f5a629,2021-07-29_23h06.36.062,Simcolourproject_2stim_asymm_v5,2020.2.10,Win32,60,61025ae37ef11b136ea224fe,,,,,,,,,3586,-51.19998932,-104.800008,1,0,0,response5disk,,3,8.800011575,3.19999361,1,0,0,rectangle,8.800011575,3.19999361,1,0,0,8.800011575,3.19999361,1,0,0,0,122,122,36,1,,,,,,,,
,,,,,,,,,,,,,FF,,,,,,,,1.4673,,,,,,,,,,,,,,,,,,,,,,6103683d0b7556494a758939,61036c4fbc3d8dca65f5a629,2021-07-29_23h06.36.062,Simcolourproject_2stim_asymm_v5,2020.2.10,Win32,60,61025ae37ef11b136ea224fe,,,,,,,,,4221,-35.19998908,-92.80000782,1,0,0,response5disk,,3,10.4000116,-4.800006509,1,0,0,rectangle,10.4000116,-4.800006509,1,0,0,10.4000116,-4.800006509,1,0,0,0,123,123,101,1,,,,,,,,
,,,,,,,,,,,,,FF,,,,,,,,1.2175,,,,,,,,,,,,,,,,,,,,,,6103683d0b7556494a758939,61036c4fbc3d8dca65f5a629,2021-07-29_23h06.36.062,Simcolourproject_2stim_asymm_v5,2020.2.10,Win32,60,61025ae37ef11b136ea224fe,,,,,,,,,1349,69.60001248,31.99999404,1,0,0,response1disk,,6,1.14441E-05,3.999993622,1,0,0,rectangle,1.14441E-05,3.999993622,1,0,0,1.14441E-05,3.999993622,1,0,0,0,124,124,57,1,,,,,,,,
,,,,,,,,,,,,,FF,,,,,,,,0.7677,,,,,,,,,,,,,,,,,,,,,,6103683d0b7556494a758939,61036c4fbc3d8dca65f5a629,2021-07-29_23h06.36.062,Simcolourproject_2stim_asymm_v5,2020.2.10,Win32,60,61025ae37ef11b136ea224fe,,,,,,,,,1633,69.60001248,33.59999406,1,0,0,response1disk,,6,-10.39993988,-10.40000659,1,0,0,rectangle,-10.39993988,-10.40000659,1,0,0,-10.39993988,-10.40000659,1,0,0,0,125,125,27,1,,,,,,,,
,,,,,,,,,,,,,FF,,,,,,,,0.7502,,,,,,,,,,,,,,,,,,,,,,6103683d0b7556494a758939,61036c4fbc3d8dca65f5a629,2021-07-29_23h06.36.062,Simcolourproject_2stim_asymm_v5,2020.2.10,Win32,60,61025ae37ef11b136ea224fe,,,,,,,,,4335,-59.99998945,32.79999405,1,0,0,response7disk,,1,-6.399939823,-1.600006461,1,0,0,rectangle,-6.399939823,-1.600006461,1,0,0,-6.399939823,-1.600006461,1,0,0,0,126,126,10,1,,,,,,,,
,,,,,,,,,,,,,FF,,,,,,,,1.9226,,,,,,,,,,,,,,,,,,,,,,6103683d0b7556494a758939,61036c4fbc3d8dca65f5a629,2021-07-29_23h06.36.062,Simcolourproject_2stim_asymm_v5,2020.2.10,Win32,60,61025ae37ef11b136ea224fe,,,,,,,,,2911,80.80001265,47.19996985,1,0,0,response1disk,,6,-9.599988699,-10.40000659,1,0,0,rectangle,-9.599988699,-10.40000659,1,0,0,-9.599988699,-10.40000659,1,0,0,0,127,127,109,1,,,,,,,,
,,,,,,,,,,,,,FF,,,,,,,,1.4558,,,,,,,,,,,,,,,,,,,,,,6103683d0b7556494a758939,61036c4fbc3d8dca65f5a629,2021-07-29_23h06.36.062,Simcolourproject_2stim_asymm_v5,2020.2.10,Win32,60,61025ae37ef11b136ea224fe,,,,,,,,,2848,44.0000121,-94.40000784,1,0,0,response3disk,,4,5.600060356,6.399993658,1,0,0,rectangle,5.600060356,6.399993658,1,0,0,5.600060356,6.399993658,1,0,0,0,128,128,28,1,,,,,,,,
,,,,,,,,,,,,,FF,,,,,,,,0.8503,,,,,,,,,,,,,,,,,,,,,,6103683d0b7556494a758939,61036c4fbc3d8dca65f5a629,2021-07-29_23h06.36.062,Simcolourproject_2stim_asymm_v5,2020.2.10,Win32,60,61025ae37ef11b136ea224fe,,,,,,,,,4358,-87.19998986,-46.40000713,1,0,0,response5disk,,2,12.00001162,-3.200006485,1,0,0,rectangle,12.00001162,-3.200006485,1,0,0,12.00001162,-3.200006485,1,0,0,0,129,129,84,1,,,,,,,,
,,,,,,,,,,,,,FF,,,,,,,,0.6673,,,,,,,,,,,,,,,,,,,,,,6103683d0b7556494a758939,61036c4fbc3d8dca65f5a629,2021-07-29_23h06.36.062,Simcolourproject_2stim_asymm_v5,2020.2.10,Win32,60,61025ae37ef11b136ea224fe,,,,,,,,,385,66.40001243,-35.20000696,1,0,0,response3disk,,5,7.200011551,0.799993575,1,0,0,rectangle,7.200011551,0.799993575,1,0,0,7.200011551,0.799993575,1,0,0,0,130,130,88,1,,,,,,,,
,,,,,,,,,,,,,FF,,,,,,,,1.2054,,,,,,,,,,,,,,,,,,,,,,6103683d0b7556494a758939,61036c4fbc3d8dca65f5a629,2021-07-29_23h06.36.062,Simcolourproject_2stim_asymm_v5,2020.2.10,Win32,60,61025ae37ef11b136ea224fe,,,,,,,,,2450,48.00001216,63.99999452,1,0,0,response1disk,,7,11.20001161,9.599993706,1,0,0,rectangle,11.20001161,9.599993706,1,0,0,11.20001161,9.599993706,1,0,0,0,131,131,123,1,,,,,,,,
,,,,,,,,,,,,,FF,,,,,,,,0.7337,,,,,,,,,,,,,,,,,,,,,,6103683d0b7556494a758939,61036c4fbc3d8dca65f5a629,2021-07-29_23h06.36.062,Simcolourproject_2stim_asymm_v5,2020.2.10,Win32,60,61025ae37ef11b136ea224fe,,,,,,,,,3244,-78.3999409,-43.20000708,1,0,0,response5disk,,2,12.00001162,6.399993658,1,0,0,rectangle,12.00001162,6.399993658,1,0,0,12.00001162,6.399993658,1,0,0,0,132,132,56,1,,,,,,,,
,,,,,,,,,,,,,FF,,,,,,,,1.8675,,,,,,,,,,,,,,,,,,,,,,6103683d0b7556494a758939,61036c4fbc3d8dca65f5a629,2021-07-29_23h06.36.062,Simcolourproject_2stim_asymm_v5,2020.2.10,Win32,60,61025ae37ef11b136ea224fe,,,,,,,,,4191,85.60001272,-28.80000687,1,0,0,response3disk,,5,-5.599988639,9.599993706,1,0,0,rectangle,-5.599988639,9.599993706,1,0,0,-5.599988639,9.599993706,1,0,0,0,133,133,140,1,,,,,,,,
,,,,,,,,,,,,,FF,,,,,,,,0.8846,,,,,,,,,,,,,,,,,,,,,,6103683d0b7556494a758939,61036c4fbc3d8dca65f5a629,2021-07-29_23h06.36.062,Simcolourproject_2stim_asymm_v5,2020.2.10,Win32,60,61025ae37ef11b136ea224fe,,,,,,,,,1332,76.80001259,23.19996949,1,0,0,response1disk,,6,-15.99998879,9.599993706,1,0,0,rectangle,-15.99998879,9.599993706,1,0,0,-15.99998879,9.599993706,1,0,0,0,134,134,152,1,,,,,,,,
,,,,,,,,,,,,,FF,,,,,,,,0.7171,,,,,,,,,,,,,,,,,,,,,,6103683d0b7556494a758939,61036c4fbc3d8dca65f5a629,2021-07-29_23h06.36.062,Simcolourproject_2stim_asymm_v5,2020.2.10,Win32,60,61025ae37ef11b136ea224fe,,,,,,,,,1861,61.60001236,43.19996979,1,0,0,response1disk,,6,5.600060356,5.599993646,1,0,0,rectangle,5.600060356,5.599993646,1,0,0,5.600060356,5.599993646,1,0,0,0,135,135,16,1,,,,,,,,
,,,,,,,,,,,,,FF,,,,,,,,1.501,,,,,,,,,,,,,,,,,,,,,,6103683d0b7556494a758939,61036c4fbc3d8dca65f5a629,2021-07-29_23h06.36.062,Simcolourproject_2stim_asymm_v5,2020.2.10,Win32,60,61025ae37ef11b136ea224fe,,,,,,,,,1757,-91.99998993,-31.2000069,1,0,0,response5disk,,2,6.400011539,-8.000006557,1,0,0,rectangle,6.400011539,-8.000006557,1,0,0,6.400011539,-8.000006557,1,0,0,0,136,136,145,1,,,,,,,,
,,,,,,,,,,,,,FF,,,,,,,,0.9507,,,,,,,,,,,,,,,,,,,,,,6103683d0b7556494a758939,61036c4fbc3d8dca65f5a629,2021-07-29_23h06.36.062,Simcolourproject_2stim_asymm_v5,2020.2.10,Win32,60,61025ae37ef11b136ea224fe,,,,,,,,,792,67.20001245,30.39999402,1,0,0,response1disk,,6,4.000011504,3.19999361,1,0,0,rectangle,-26.39994012,-72.80000752,1,0,0,-5.599988639,-3.200006485,1,0,0,0,137,137,22,1,,response5disk_3,TRUE,3,3,"[36,261,225,38,158,304,252,240,252,248,89,78,138,145,219,289,176,48,289,225]",1.5844,rectangle
,,,,,,,,,,,,,FF,,,,,,,,0.6516,,,,,,,,,,,,,,,,,,,,,,6103683d0b7556494a758939,61036c4fbc3d8dca65f5a629,2021-07-29_23h06.36.062,Simcolourproject_2stim_asymm_v5,2020.2.10,Win32,60,61025ae37ef11b136ea224fe,,,,,,,,,1089,76.00001258,42.39999419,1,0,0,response1disk,,6,8.000011563,1.599993587,1,0,0,rectangle,8.000011563,1.599993587,1,0,0,8.000011563,1.599993587,1,0,0,0,138,138,19,1,,,,,,,,
,,,,,,,,,,,,,FF,,,,,,,,0.846,,,,,,,,,,,,,,,,,,,,,,6103683d0b7556494a758939,61036c4fbc3d8dca65f5a629,2021-07-29_23h06.36.062,Simcolourproject_2stim_asymm_v5,2020.2.10,Win32,60,61025ae37ef11b136ea224fe,,,,,,,,,4368,-69.59998959,39.99999416,1,0,0,response7disk,,1,-4.799988627,9.599993706,1,0,0,rectangle,-4.799988627,9.599993706,1,0,0,-4.799988627,9.599993706,1,0,0,0,139,139,148,1,,,,,,,,
,,,,,,,,,,,,,FF,,,,,,,,0.8007,,,,,,,,,,,,,,,,,,,,,,6103683d0b7556494a758939,61036c4fbc3d8dca65f5a629,2021-07-29_23h06.36.062,Simcolourproject_2stim_asymm_v5,2020.2.10,Win32,60,61025ae37ef11b136ea224fe,,,,,,,,,3093,-91.19998991,-27.20000684,1,0,0,response5disk,,2,-5.599988639,3.999993622,1,0,0,rectangle,-5.599988639,3.999993622,1,0,0,-5.599988639,3.999993622,1,0,0,0,140,140,47,1,,,,,,,,
,,,,,,,,,,,,,FF,,,,,,,,1.5179,,,,,,,,,,,,,,,,,,,,,,6103683d0b7556494a758939,61036c4fbc3d8dca65f5a629,2021-07-29_23h06.36.062,Simcolourproject_2stim_asymm_v5,2020.2.10,Win32,60,61025ae37ef11b136ea224fe,,,,,,,,,3403,38.40001202,-94.40000784,1,0,0,response3disk,,4,-5.599988639,-7.200006545,1,0,0,rectangle,-5.599988639,-7.200006545,1,0,0,-5.599988639,-7.200006545,1,0,0,0,141,141,8,1,,,,,,,,
,,,,,,,,,,,,,FF,,,,,,,,0.8339,,,,,,,,,,,,,,,,,,,,,,6103683d0b7556494a758939,61036c4fbc3d8dca65f5a629,2021-07-29_23h06.36.062,Simcolourproject_2stim_asymm_v5,2020.2.10,Win32,60,61025ae37ef11b136ea224fe,,,,,,,,,1735,-84.79998982,-28.00000685,1,0,0,response5disk,,2,1.600060296,2.399993598,1,0,0,rectangle,1.600060296,2.399993598,1,0,0,1.600060296,2.399993598,1,0,0,0,142,142,96,1,,,,,,,,
,,,,,,,,,,,,,FF,,,,,,,,0.7382,,,,,,,,,,,,,,,,,,,,,,6103683d0b7556494a758939,61036c4fbc3d8dca65f5a629,2021-07-29_23h06.36.062,Simcolourproject_2stim_asymm_v5,2020.2.10,Win32,60,61025ae37ef11b136ea224fe,,,,,,,,,2120,49.60006101,-67.20000744,1,0,0,response3disk,,4,8.000011563,-1.600006461,1,0,0,rectangle,8.000011563,-1.600006461,1,0,0,8.000011563,-1.600006461,1,0,0,0,143,143,65,1,,,,,,,,
,,,,,,,,,,,,,FF,,,,,,,,0.934,,,,,,,,,,,,,,,,,,,,,,6103683d0b7556494a758939,61036c4fbc3d8dca65f5a629,2021-07-29_23h06.36.062,Simcolourproject_2stim_asymm_v5,2020.2.10,Win32,60,61025ae37ef11b136ea224fe,,,,,,,,,134,83.20001268,-69.60000747,1,0,0,response3disk,,5,-1.59998858,-6.4373E-06,1,0,0,rectangle,63.20001239,111.1999708,1,0,0,-10.39993988,-9.60000658,1,0,0,0,144,144,45,1,,response1disk_3,TRUE,7,7,"[36,261,225,38,158,304,252,240,252,248,89,78,138,145,219,289,176,48,289,225]",2.234,rectangle
,,,,,,,,,,,,,FF,,,,,,,,1.4969,,,,,,,,,,,,,,,,,,,,,,6103683d0b7556494a758939,61036c4fbc3d8dca65f5a629,2021-07-29_23h06.36.062,Simcolourproject_2stim_asymm_v5,2020.2.10,Win32,60,61025ae37ef11b136ea224fe,,,,,,,,,3491,48.00001216,-84.00000769,1,0,0,response3disk,,4,-1.59998858,1.599993587,1,0,0,rectangle,-1.59998858,1.599993587,1,0,0,-1.59998858,1.599993587,1,0,0,0,145,145,1,1,,,,,,,,
,,,,,,,,,,,,,FF,,,,,,,,0.8293,,,,,,,,,,,,,,,,,,,,,,6103683d0b7556494a758939,61036c4fbc3d8dca65f5a629,2021-07-29_23h06.36.062,Simcolourproject_2stim_asymm_v5,2020.2.10,Win32,60,61025ae37ef11b136ea224fe,,,,,,,,,1468,40.80001205,-91.2000078,1,0,0,response3disk,,4,-3.199988604,-1.600006461,1,0,0,rectangle,-3.199988604,-1.600006461,1,0,0,-3.199988604,-1.600006461,1,0,0,0,146,146,94,1,,,,,,,,
,,,,,,,,,,,,,FF,,,,,,,,0.7389,,,,,,,,,,,,,,,,,,,,,,6103683d0b7556494a758939,61036c4fbc3d8dca65f5a629,2021-07-29_23h06.36.062,Simcolourproject_2stim_asymm_v5,2020.2.10,Win32,60,61025ae37ef11b136ea224fe,,,,,,,,,2811,68.80001247,-43.20000708,1,0,0,response3disk,,5,4.800011516,3.999993622,1,0,0,rectangle,4.800011516,3.999993622,1,0,0,4.800011516,3.999993622,1,0,0,0,147,147,122,1,,,,,,,,
,,,,,,,,,,,,,FF,,,,,,,,0.6838,,,,,,,,,,,,,,,,,,,,,,6103683d0b7556494a758939,61036c4fbc3d8dca65f5a629,2021-07-29_23h06.36.062,Simcolourproject_2stim_asymm_v5,2020.2.10,Win32,60,61025ae37ef11b136ea224fe,,,,,,,,,1626,92.00001281,51.99999434,1,0,0,response1disk,,6,-5.599988639,-4.800006509,1,0,0,rectangle,-5.599988639,-4.800006509,1,0,0,-5.599988639,-4.800006509,1,0,0,0,148,148,44,1,,,,,,,,
,,,,,,,,,,,,,FF,,,,,,,,0.7793,,,,,,,,,,,,,,,,,,,,,,6103683d0b7556494a758939,61036c4fbc3d8dca65f5a629,2021-07-29_23h06.36.062,Simcolourproject_2stim_asymm_v5,2020.2.10,Win32,60,61025ae37ef11b136ea224fe,,,,,,,,,2014,97.6000129,35.9999941,1,0,0,response1disk,,6,15.20001167,-6.400006533,1,0,0,rectangle,15.20001167,-6.400006533,1,0,0,15.20001167,-6.400006533,1,0,0,0,149,149,127,1,,,,,,,,
,,,,,,,,,,,,,FF,,,,,,,,1.4341,,,,,,,,,,,,,,,,,,,,,,6103683d0b7556494a758939,61036c4fbc3d8dca65f5a629,2021-07-29_23h06.36.062,Simcolourproject_2stim_asymm_v5,2020.2.10,Win32,60,61025ae37ef11b136ea224fe,,,,,,,,,1968,-68.79998958,-91.2000078,1,0,0,response5disk,,3,1.600060296,4.799993634,1,0,0,rectangle,1.600060296,4.799993634,1,0,0,1.600060296,4.799993634,1,0,0,0,150,150,82,1,,,,,,,,
,,,,,,,,,,,,,FF,,,,,,,,0.6338,,,,,,,,,,,,,,,,,,,,,,6103683d0b7556494a758939,61036c4fbc3d8dca65f5a629,2021-07-29_23h06.36.062,Simcolourproject_2stim_asymm_v5,2020.2.10,Win32,60,61025ae37ef11b136ea224fe,,,,,,,,,4111,72.00001252,-34.40000695,1,0,0,response3disk,,5,4.800011516,2.399993598,1,0,0,rectangle,4.800011516,2.399993598,1,0,0,4.800011516,2.399993598,1,0,0,0,151,151,33,1,,,,,,,,
,,,,,,,,,,,,,FF,,,,,,,,0.7341,,,,,,,,,,,,,,,,,,,,,,6103683d0b7556494a758939,61036c4fbc3d8dca65f5a629,2021-07-29_23h06.36.062,Simcolourproject_2stim_asymm_v5,2020.2.10,Win32,60,61025ae37ef11b136ea224fe,,,,,,,,,3756,-43.99998921,-84.00000769,1,0,0,response5disk,,3,-14.39993994,2.399993598,1,0,0,rectangle,-14.39993994,2.399993598,1,0,0,-14.39993994,2.399993598,1,0,0,0,152,152,159,1,,,,,,,,
,,,,,,,,,,,,,FF,,,,,,,,0.6674,,,,,,,,,,,,,,,,,,,,,,6103683d0b7556494a758939,61036c4fbc3d8dca65f5a629,2021-07-29_23h06.36.062,Simcolourproject_2stim_asymm_v5,2020.2.10,Win32,60,61025ae37ef11b136ea224fe,,,,,,,,,3679,28.80001187,-94.40000784,1,0,0,response3disk,,4,-3.999988616,-1.600006461,1,0,0,rectangle,-3.999988616,-1.600006461,1,0,0,-3.999988616,-1.600006461,1,0,0,0,153,153,26,1,,,,,,,,
,,,,,,,,,,,,,FF,,,,,,,,0.9009,,,,,,,,,,,,,,,,,,,,,,6103683d0b7556494a758939,61036c4fbc3d8dca65f5a629,2021-07-29_23h06.36.062,Simcolourproject_2stim_asymm_v5,2020.2.10,Win32,60,61025ae37ef11b136ea224fe,,,,,,,,,188,-96.79999,-44.8000071,1,0,0,response5disk,,2,-12.79998875,3.999993622,1,0,0,rectangle,-12.79998875,3.999993622,1,0,0,-12.79998875,3.999993622,1,0,0,0,154,154,87,1,,,,,,,,
,,,,,,,,,,,,,FF,,,,,,,,0.5956,,,,,,,,,,,,,,,,,,,,,,6103683d0b7556494a758939,61036c4fbc3d8dca65f5a629,2021-07-29_23h06.36.062,Simcolourproject_2stim_asymm_v5,2020.2.10,Win32,60,61025ae37ef11b136ea224fe,,,,,,,,,3858,-57.59998941,-98.4000079,1,0,0,response5disk,,3,-9.599988699,4.799993634,1,0,0,rectangle,-9.599988699,4.799993634,1,0,0,-9.599988699,4.799993634,1,0,0,0,155,155,90,1,,,,,,,,
,,,,,,,,,,,,,FF,,,,,,,,0.9838,,,,,,,,,,,,,,,,,,,,,,6103683d0b7556494a758939,61036c4fbc3d8dca65f5a629,2021-07-29_23h06.36.062,Simcolourproject_2stim_asymm_v5,2020.2.10,Win32,60,61025ae37ef11b136ea224fe,,,,,,,,,2966,93.60001284,32.79999405,1,0,0,response1disk,,6,0.800011456,-12.00000662,1,0,0,rectangle,0.800011456,-12.00000662,1,0,0,0.800011456,-12.00000662,1,0,0,0,156,156,157,1,,,,,,,,
,,,,,,,,,,,,,FF,,,,,,,,1.1002,,,,,,,,,,,,,,,,,,,,,,6103683d0b7556494a758939,61036c4fbc3d8dca65f5a629,2021-07-29_23h06.36.062,Simcolourproject_2stim_asymm_v5,2020.2.10,Win32,60,61025ae37ef11b136ea224fe,,,,,,,,,4124,44.0000121,-105.6000568,1,0,0,response3disk,,4,-9.599988699,-1.600006461,1,0,0,rectangle,-60.79998946,67.99999458,1,0,0,-13.59998876,-8.000006557,1,0,0,0,157,157,46,1,,response7disk_3,TRUE,0,0,"[36,261,225,38,158,304,252,240,252,248,89,78,138,145,219,289,176,48,289,225]",1.7015,rectangle
,,,,,,,,,,,,,FF,,,,,,,,0.7169,,,,,,,,,,,,,,,,,,,,,,6103683d0b7556494a758939,61036c4fbc3d8dca65f5a629,2021-07-29_23h06.36.062,Simcolourproject_2stim_asymm_v5,2020.2.10,Win32,60,61025ae37ef11b136ea224fe,,,,,,,,,2778,-73.59998965,-42.40000707,1,0,0,response5disk,,2,24.0000118,6.399993658,1,0,0,rectangle,24.0000118,6.399993658,1,0,0,24.0000118,6.399993658,1,0,0,0,158,158,115,1,,,,,,,,
,,,,,,,,,,,,,FF,,,,,,,,0.6503,,,,,,,,,,,,,,,,,,,,,,6103683d0b7556494a758939,61036c4fbc3d8dca65f5a629,2021-07-29_23h06.36.062,Simcolourproject_2stim_asymm_v5,2020.2.10,Win32,60,61025ae37ef11b136ea224fe,,,,,,,,,1868,76.00001258,37.59999412,1,0,0,response1disk,,6,-9.599988699,-11.2000066,1,0,0,rectangle,-9.599988699,-11.2000066,1,0,0,-9.599988699,-11.2000066,1,0,0,0,159,159,52,1,,,,,,,,
,,,,,,,,,,,,,FF,,,,,,,,0.7506,,,,,,,,,,,,,,,,,,,,,,6103683d0b7556494a758939,61036c4fbc3d8dca65f5a629,2021-07-29_23h06.36.062,Simcolourproject_2stim_asymm_v5,2020.2.10,Win32,60,61025ae37ef11b136ea224fe,,,,,,,,,1239,37.60006083,-72.80000752,1,0,0,response3disk,,4,-23.99998891,1.599993587,1,0,0,rectangle,-23.99998891,1.599993587,1,0,0,-23.99998891,1.599993587,1,0,0,1,0,160,76,1,,,,,,,,
,,,,,,,,,,,,,FF,,,,,,,,0.9455,,,,,,,,,,,,,,,,,,,,,,6103683d0b7556494a758939,61036c4fbc3d8dca65f5a629,2021-07-29_23h06.36.062,Simcolourproject_2stim_asymm_v5,2020.2.10,Win32,60,61025ae37ef11b136ea224fe,,,,,,,,,3757,-32.79998904,-104.800008,1,0,0,response5disk,,3,-1.59998858,9.599993706,1,0,0,rectangle,-1.59998858,9.599993706,1,0,0,-1.59998858,9.599993706,1,0,0,1,1,161,140,1,,,,,,,,
,,,,,,,,,,,,,FF,,,,,,,,0.8169,,,,,,,,,,,,,,,,,,,,,,6103683d0b7556494a758939,61036c4fbc3d8dca65f5a629,2021-07-29_23h06.36.062,Simcolourproject_2stim_asymm_v5,2020.2.10,Win32,60,61025ae37ef11b136ea224fe,,,,,,,,,1258,71.20001251,-32.80000693,1,0,0,response3disk,,5,4.800011516,6.399993658,1,0,0,rectangle,4.800011516,6.399993658,1,0,0,4.800011516,6.399993658,1,0,0,1,2,162,43,1,,,,,,,,
,,,,,,,,,,,,,FF,,,,,,,,0.6386,,,,,,,,,,,,,,,,,,,,,,6103683d0b7556494a758939,61036c4fbc3d8dca65f5a629,2021-07-29_23h06.36.062,Simcolourproject_2stim_asymm_v5,2020.2.10,Win32,60,61025ae37ef11b136ea224fe,,,,,,,,,2017,87.20001274,-48.80000716,1,0,0,response3disk,,5,9.600060415,-6.4373E-06,1,0,0,rectangle,9.600060415,-6.4373E-06,1,0,0,9.600060415,-6.4373E-06,1,0,0,1,3,163,62,1,,,,,,,,
,,,,,,,,,,,,,FF,,,,,,,,0.6334,,,,,,,,,,,,,,,,,,,,,,6103683d0b7556494a758939,61036c4fbc3d8dca65f5a629,2021-07-29_23h06.36.062,Simcolourproject_2stim_asymm_v5,2020.2.10,Win32,60,61025ae37ef11b136ea224fe,,,,,,,,,1281,86.40001273,35.19996967,1,0,0,response1disk,,6,-7.999988675,-4.000006497,1,0,0,rectangle,-7.999988675,-4.000006497,1,0,0,-7.999988675,-4.000006497,1,0,0,1,4,164,114,1,,,,,,,,
,,,,,,,,,,,,,FF,,,,,,,,0.7008,,,,,,,,,,,,,,,,,,,,,,6103683d0b7556494a758939,61036c4fbc3d8dca65f5a629,2021-07-29_23h06.36.062,Simcolourproject_2stim_asymm_v5,2020.2.10,Win32,60,61025ae37ef11b136ea224fe,,,,,,,,,3367,28.00001186,-84.8000077,1,0,0,response3disk,,4,-2.399939764,-3.200006485,1,0,0,rectangle,-2.399939764,-3.200006485,1,0,0,-2.399939764,-3.200006485,1,0,0,1,5,165,9,1,,,,,,,,
,,,,,,,,,,,,,FF,,,,,,,,1.7509,,,,,,,,,,,,,,,,,,,,,,6103683d0b7556494a758939,61036c4fbc3d8dca65f5a629,2021-07-29_23h06.36.062,Simcolourproject_2stim_asymm_v5,2020.2.10,Win32,60,61025ae37ef11b136ea224fe,,,,,,,,,4012,77.6000126,51.19996991,1,0,0,response1disk,,6,-2.399939764,1.599993587,1,0,0,rectangle,-2.399939764,1.599993587,1,0,0,-2.399939764,1.599993587,1,0,0,1,6,166,118,1,,,,,,,,
,,,,,,,,,,,,,FF,,,,,,,,0.6386,,,,,,,,,,,,,,,,,,,,,,6103683d0b7556494a758939,61036c4fbc3d8dca65f5a629,2021-07-29_23h06.36.062,Simcolourproject_2stim_asymm_v5,2020.2.10,Win32,60,61025ae37ef11b136ea224fe,,,,,,,,,4142,-45.59998924,-71.2000075,1,0,0,response5disk,,3,-13.59998876,-4.000006497,1,0,0,rectangle,-13.59998876,-4.000006497,1,0,0,-13.59998876,-4.000006497,1,0,0,1,7,167,39,1,,,,,,,,
,,,,,,,,,,,,,FF,,,,,,,,1.3007,,,,,,,,,,,,,,,,,,,,,,6103683d0b7556494a758939,61036c4fbc3d8dca65f5a629,2021-07-29_23h06.36.062,Simcolourproject_2stim_asymm_v5,2020.2.10,Win32,60,61025ae37ef11b136ea224fe,,,,,,,,,2920,97.6000129,56.79999441,1,0,0,response1disk,,6,1.600060296,-0.800006449,1,0,0,rectangle,1.600060296,-0.800006449,1,0,0,1.600060296,-0.800006449,1,0,0,1,8,168,28,1,,,,,,,,
,,,,,,,,,,,,,FF,,,,,,,,1.8228,,,,,,,,,,,,,,,,,,,,,,6103683d0b7556494a758939,61036c4fbc3d8dca65f5a629,2021-07-29_23h06.36.062,Simcolourproject_2stim_asymm_v5,2020.2.10,Win32,60,61025ae37ef11b136ea224fe,,,,,,,,,4171,-58.3999406,-88.80000776,1,0,0,response5disk,,3,-3.999988616,-4.000006497,1,0,0,rectangle,-3.999988616,-4.000006497,1,0,0,-3.999988616,-4.000006497,1,0,0,1,9,169,34,1,,,,,,,,
,,,,,,,,,,,,,FF,,,,,,,,0.7507,,,,,,,,,,,,,,,,,,,,,,6103683d0b7556494a758939,61036c4fbc3d8dca65f5a629,2021-07-29_23h06.36.062,Simcolourproject_2stim_asymm_v5,2020.2.10,Win32,60,61025ae37ef11b136ea224fe,,,,,,,,,2218,-63.1999895,-40.00000703,1,0,0,response5disk,,2,-4.799988627,-8.000006557,1,0,0,rectangle,-4.799988627,-8.000006557,1,0,0,-4.799988627,-8.000006557,1,0,0,1,10,170,52,1,,,,,,,,
,,,,,,,,,,,,,FF,,,,,,,,0.549,,,,,,,,,,,,,,,,,,,,,,6103683d0b7556494a758939,61036c4fbc3d8dca65f5a629,2021-07-29_23h06.36.062,Simcolourproject_2stim_asymm_v5,2020.2.10,Win32,60,61025ae37ef11b136ea224fe,,,,,,,,,2075,80.80001265,23.99999392,1,0,0,response1disk,,6,8.800011575,8.799993694,1,0,0,rectangle,8.800011575,8.799993694,1,0,0,8.800011575,8.799993694,1,0,0,1,11,171,0,1,,,,,,,,
,,,,,,,,,,,,,FF,,,,,,,,1.118,,,,,,,,,,,,,,,,,,,,,,6103683d0b7556494a758939,61036c4fbc3d8dca65f5a629,2021-07-29_23h06.36.062,Simcolourproject_2stim_asymm_v5,2020.2.10,Win32,60,61025ae37ef11b136ea224fe,,,,,,,,,1703,52.00001222,-69.60000747,1,0,0,response3disk,,4,-3.199988604,-3.200006485,1,0,0,rectangle,-3.199988604,-3.200006485,1,0,0,-3.199988604,-3.200006485,1,0,0,1,12,172,75,1,,,,,,,,
,,,,,,,,,,,,,FF,,,,,,,,0.6894,,,,,,,,,,,,,,,,,,,,,,6103683d0b7556494a758939,61036c4fbc3d8dca65f5a629,2021-07-29_23h06.36.062,Simcolourproject_2stim_asymm_v5,2020.2.10,Win32,60,61025ae37ef11b136ea224fe,,,,,,,,,3059,58.40001231,27.99999398,1,0,0,response1disk,,6,-15.99998879,3.999993622,1,0,0,rectangle,-15.99998879,3.999993622,1,0,0,-15.99998879,3.999993622,1,0,0,1,13,173,32,1,,,,,,,,
,,,,,,,,,,,,,FF,,,,,,,,1.1225,,,,,,,,,,,,,,,,,,,,,,6103683d0b7556494a758939,61036c4fbc3d8dca65f5a629,2021-07-29_23h06.36.062,Simcolourproject_2stim_asymm_v5,2020.2.10,Win32,60,61025ae37ef11b136ea224fe,,,,,,,,,4048,-35.19998908,-100.0000079,1,0,0,response5disk,,3,-12.79998875,-16.00000668,1,0,0,rectangle,-12.79998875,-16.00000668,1,0,0,-12.79998875,-16.00000668,1,0,0,1,14,174,111,1,,,,,,,,
,,,,,,,,,,,,,FF,,,,,,,,1.6801,,,,,,,,,,,,,,,,,,,,,,6103683d0b7556494a758939,61036c4fbc3d8dca65f5a629,2021-07-29_23h06.36.062,Simcolourproject_2stim_asymm_v5,2020.2.10,Win32,60,61025ae37ef11b136ea224fe,,,,,,,,,946,80.00001264,54.39999437,1,0,0,response1disk,,6,-3.999988616,3.19999361,1,0,0,rectangle,96.00001287,-56.00000727,1,0,0,-0.799988568,2.399993598,1,0,0,1,15,175,128,1,,response3disk_3,TRUE,5,5,"[36,261,225,38,158,304,252,240,252,248,89,78,138,145,219,289,176,48,289,225]",1.5335,rectangle
,,,,,,,,,,,,,FF,,,,,,,,1.1172,,,,,,,,,,,,,,,,,,,,,,6103683d0b7556494a758939,61036c4fbc3d8dca65f5a629,2021-07-29_23h06.36.062,Simcolourproject_2stim_asymm_v5,2020.2.10,Win32,60,61025ae37ef11b136ea224fe,,,,,,,,,3683,-57.59998941,-108.8000081,1,0,0,response5disk,,3,9.600060415,9.599993706,1,0,0,rectangle,9.600060415,9.599993706,1,0,0,9.600060415,9.599993706,1,0,0,1,16,176,136,1,,,,,,,,
,,,,,,,,,,,,,FF,,,,,,,,0.6176,,,,,,,,,,,,,,,,,,,,,,6103683d0b7556494a758939,61036c4fbc3d8dca65f5a629,2021-07-29_23h06.36.062,Simcolourproject_2stim_asymm_v5,2020.2.10,Win32,60,61025ae37ef11b136ea224fe,,,,,,,,,2197,53.60001224,-40.00000703,1,0,0,response3disk,,5,2.40001148,-12.00000662,1,0,0,rectangle,2.40001148,-12.00000662,1,0,0,2.40001148,-12.00000662,1,0,0,1,17,177,143,1,,,,,,,,
,,,,,,,,,,,,,FF,,,,,,,,1.0841,,,,,,,,,,,,,,,,,,,,,,6103683d0b7556494a758939,61036c4fbc3d8dca65f5a629,2021-07-29_23h06.36.062,Simcolourproject_2stim_asymm_v5,2020.2.10,Win32,60,61025ae37ef11b136ea224fe,,,,,,,,,3193,-64.79998952,-95.20000786,1,0,0,response5disk,,3,-3.199988604,3.19999361,1,0,0,rectangle,-3.199988604,3.19999361,1,0,0,-3.199988604,3.19999361,1,0,0,1,18,178,99,1,,,,,,,,
,,,,,,,,,,,,,FF,,,,,,,,2.1061,,,,,,,,,,,,,,,,,,,,,,6103683d0b7556494a758939,61036c4fbc3d8dca65f5a629,2021-07-29_23h06.36.062,Simcolourproject_2stim_asymm_v5,2020.2.10,Win32,60,61025ae37ef11b136ea224fe,,,,,,,,,2999,42.40001208,-76.80000758,1,0,0,response3disk,,4,1.600060296,-3.200006485,1,0,0,rectangle,1.600060296,-3.200006485,1,0,0,1.600060296,-3.200006485,1,0,0,1,19,179,97,1,,,,,,,,
,,,,,,,,,,,,,FF,,,,,,,,0.7224,,,,,,,,,,,,,,,,,,,,,,6103683d0b7556494a758939,61036c4fbc3d8dca65f5a629,2021-07-29_23h06.36.062,Simcolourproject_2stim_asymm_v5,2020.2.10,Win32,60,61025ae37ef11b136ea224fe,,,,,,,,,1368,-75.99998969,27.19996955,1,0,0,response7disk,,1,-0.799988568,-3.200006485,1,0,0,rectangle,-0.799988568,-3.200006485,1,0,0,-0.799988568,-3.200006485,1,0,0,1,20,180,135,1,,,,,,,,
,,,,,,,,,,,,,FF,,,,,,,,0.984,,,,,,,,,,,,,,,,,,,,,,6103683d0b7556494a758939,61036c4fbc3d8dca65f5a629,2021-07-29_23h06.36.062,Simcolourproject_2stim_asymm_v5,2020.2.10,Win32,60,61025ae37ef11b136ea224fe,,,,,,,,,592,34.40001196,-94.40000784,1,0,0,response3disk,,4,9.600060415,-3.200006485,1,0,0,rectangle,9.600060415,-3.200006485,1,0,0,9.600060415,-3.200006485,1,0,0,1,21,181,113,1,,,,,,,,
,,,,,,,,,,,,,FF,,,,,,,,1.9181,,,,,,,,,,,,,,,,,,,,,,6103683d0b7556494a758939,61036c4fbc3d8dca65f5a629,2021-07-29_23h06.36.062,Simcolourproject_2stim_asymm_v5,2020.2.10,Win32,60,61025ae37ef11b136ea224fe,,,,,,,,,903,38.40001202,-82.40000767,1,0,0,response3disk,,4,-6.399939823,-4.000006497,1,0,0,rectangle,-6.399939823,-4.000006497,1,0,0,-6.399939823,-4.000006497,1,0,0,1,22,182,101,1,,,,,,,,
,,,,,,,,,,,,,FF,,,,,,,,1.2173,,,,,,,,,,,,,,,,,,,,,,6103683d0b7556494a758939,61036c4fbc3d8dca65f5a629,2021-07-29_23h06.36.062,Simcolourproject_2stim_asymm_v5,2020.2.10,Win32,60,61025ae37ef11b136ea224fe,,,,,,,,,2295,-57.59998941,-82.40000767,1,0,0,response5disk,,3,-8.799988687,14.39999378,1,0,0,rectangle,-8.799988687,14.39999378,1,0,0,-8.799988687,14.39999378,1,0,0,1,23,183,65,1,,,,,,,,
,,,,,,,,,,,,,FF,,,,,,,,1.0504,,,,,,,,,,,,,,,,,,,,,,6103683d0b7556494a758939,61036c4fbc3d8dca65f5a629,2021-07-29_23h06.36.062,Simcolourproject_2stim_asymm_v5,2020.2.10,Win32,60,61025ae37ef11b136ea224fe,,,,,,,,,3017,78.40001261,40.79999417,1,0,0,response1disk,,6,11.20001161,3.999993622,1,0,0,rectangle,11.20001161,3.999993622,1,0,0,11.20001161,3.999993622,1,0,0,1,24,184,33,1,,,,,,,,
,,,,,,,,,,,,,FF,,,,,,,,0.6126,,,,,,,,,,,,,,,,,,,,,,6103683d0b7556494a758939,61036c4fbc3d8dca65f5a629,2021-07-29_23h06.36.062,Simcolourproject_2stim_asymm_v5,2020.2.10,Win32,60,61025ae37ef11b136ea224fe,,,,,,,,,1798,73.60001254,43.99999422,1,0,0,response1disk,,6,15.20001167,6.399993658,1,0,0,rectangle,15.20001167,6.399993658,1,0,0,15.20001167,6.399993658,1,0,0,1,25,185,59,1,,,,,,,,
,,,,,,,,,,,,,FF,,,,,,,,0.989,,,,,,,,,,,,,,,,,,,,,,6103683d0b7556494a758939,61036c4fbc3d8dca65f5a629,2021-07-29_23h06.36.062,Simcolourproject_2stim_asymm_v5,2020.2.10,Win32,60,61025ae37ef11b136ea224fe,,,,,,,,,2137,56.00001228,31.99999404,1,0,0,response1disk,,6,-10.39993988,-4.000006497,1,0,0,rectangle,-10.39993988,-4.000006497,1,0,0,-10.39993988,-4.000006497,1,0,0,1,26,186,40,1,,,,,,,,
,,,,,,,,,,,,,FF,,,,,,,,0.5961,,,,,,,,,,,,,,,,,,,,,,6103683d0b7556494a758939,61036c4fbc3d8dca65f5a629,2021-07-29_23h06.36.062,Simcolourproject_2stim_asymm_v5,2020.2.10,Win32,60,61025ae37ef11b136ea224fe,,,,,,,,,4183,-42.39994036,-76.80000758,1,0,0,response5disk,,3,0.800011456,-0.800006449,1,0,0,rectangle,0.800011456,-0.800006449,1,0,0,0.800011456,-0.800006449,1,0,0,1,27,187,64,1,,,,,,,,
,,,,,,,,,,,,,FF,,,,,,,,0.7556,,,,,,,,,,,,,,,,,,,,,,6103683d0b7556494a758939,61036c4fbc3d8dca65f5a629,2021-07-29_23h06.36.062,Simcolourproject_2stim_asymm_v5,2020.2.10,Win32,60,61025ae37ef11b136ea224fe,,,,,,,,,1497,95.20001286,-56.00000727,1,0,0,response3disk,,5,8.000011563,-1.600006461,1,0,0,rectangle,8.000011563,-1.600006461,1,0,0,8.000011563,-1.600006461,1,0,0,1,28,188,6,1,,,,,,,,
,,,,,,,,,,,,,FF,,,,,,,,0.6845,,,,,,,,,,,,,,,,,,,,,,6103683d0b7556494a758939,61036c4fbc3d8dca65f5a629,2021-07-29_23h06.36.062,Simcolourproject_2stim_asymm_v5,2020.2.10,Win32,60,61025ae37ef11b136ea224fe,,,,,,,,,945,84.80001271,39.99999416,1,0,0,response1disk,,6,-7.199988663,10.39999372,1,0,0,rectangle,-7.199988663,10.39999372,1,0,0,-7.199988663,10.39999372,1,0,0,1,29,189,91,1,,,,,,,,
,,,,,,,,,,,,,FF,,,,,,,,0.5839,,,,,,,,,,,,,,,,,,,,,,6103683d0b7556494a758939,61036c4fbc3d8dca65f5a629,2021-07-29_23h06.36.062,Simcolourproject_2stim_asymm_v5,2020.2.10,Win32,60,61025ae37ef11b136ea224fe,,,,,,,,,1849,76.80001259,39.99999416,1,0,0,response1disk,,6,-11.19998872,-3.200006485,1,0,0,rectangle,-11.19998872,-3.200006485,1,0,0,-11.19998872,-3.200006485,1,0,0,1,30,190,49,1,,,,,,,,
,,,,,,,,,,,,,FF,,,,,,,,0.784,,,,,,,,,,,,,,,,,,,,,,6103683d0b7556494a758939,61036c4fbc3d8dca65f5a629,2021-07-29_23h06.36.062,Simcolourproject_2stim_asymm_v5,2020.2.10,Win32,60,61025ae37ef11b136ea224fe,,,,,,,,,2986,-46.39994042,-74.40000755,1,0,0,response5disk,,3,-7.199988663,0.799993575,1,0,0,rectangle,-7.199988663,0.799993575,1,0,0,-7.199988663,0.799993575,1,0,0,1,31,191,95,1,,,,,,,,
,,,,,,,,,,,,,FF,,,,,,,,0.6508,,,,,,,,,,,,,,,,,,,,,,6103683d0b7556494a758939,61036c4fbc3d8dca65f5a629,2021-07-29_23h06.36.062,Simcolourproject_2stim_asymm_v5,2020.2.10,Win32,60,61025ae37ef11b136ea224fe,,,,,,,,,2338,91.2000128,26.39999396,1,0,0,response1disk,,6,3.200011492,-10.40000659,1,0,0,rectangle,3.200011492,-10.40000659,1,0,0,3.200011492,-10.40000659,1,0,0,1,32,192,55,1,,,,,,,,
,,,,,,,,,,,,,FF,,,,,,,,0.8168,,,,,,,,,,,,,,,,,,,,,,6103683d0b7556494a758939,61036c4fbc3d8dca65f5a629,2021-07-29_23h06.36.062,Simcolourproject_2stim_asymm_v5,2020.2.10,Win32,60,61025ae37ef11b136ea224fe,,,,,,,,,1047,22.40001178,-81.60005648,1,0,0,response3disk,,4,-3.199988604,0.799993575,1,0,0,rectangle,-3.199988604,0.799993575,1,0,0,-3.199988604,0.799993575,1,0,0,1,33,193,153,1,,,,,,,,
,,,,,,,,,,,,,FF,,,,,,,,0.984,,,,,,,,,,,,,,,,,,,,,,6103683d0b7556494a758939,61036c4fbc3d8dca65f5a629,2021-07-29_23h06.36.062,Simcolourproject_2stim_asymm_v5,2020.2.10,Win32,60,61025ae37ef11b136ea224fe,,,,,,,,,3844,-53.59998935,-104.800008,0,0,1,response5disk,,3,-5.599988639,-1.600006461,1,0,0,rectangle,-5.599988639,-1.600006461,1,0,0,-5.599988639,-1.600006461,1,0,0,1,34,194,82,1,,,,,,,,
,,,,,,,,,,,,,FF,,,,,,,,0.7052,,,,,,,,,,,,,,,,,,,,,,6103683d0b7556494a758939,61036c4fbc3d8dca65f5a629,2021-07-29_23h06.36.062,Simcolourproject_2stim_asymm_v5,2020.2.10,Win32,60,61025ae37ef11b136ea224fe,,,,,,,,,3633,-50.39994048,-100.0000079,1,0,0,response5disk,,3,-7.999988675,13.59999377,1,0,0,rectangle,-7.999988675,13.59999377,1,0,0,-7.999988675,13.59999377,1,0,0,1,35,195,155,1,,,,,,,,
,,,,,,,,,,,,,FF,,,,,,,,0.7623,,,,,,,,,,,,,,,,,,,,,,6103683d0b7556494a758939,61036c4fbc3d8dca65f5a629,2021-07-29_23h06.36.062,Simcolourproject_2stim_asymm_v5,2020.2.10,Win32,60,61025ae37ef11b136ea224fe,,,,,,,,,2413,-27.19998896,-84.00000769,1,0,0,response5disk,,3,-6.399939823,0.799993575,1,0,0,rectangle,-6.399939823,0.799993575,1,0,0,-6.399939823,0.799993575,1,0,0,1,36,196,145,1,,,,,,,,
,,,,,,,,,,,,,FF,,,,,,,,0.8506,,,,,,,,,,,,,,,,,,,,,,6103683d0b7556494a758939,61036c4fbc3d8dca65f5a629,2021-07-29_23h06.36.062,Simcolourproject_2stim_asymm_v5,2020.2.10,Win32,60,61025ae37ef11b136ea224fe,,,,,,,,,4294,-99.99999005,-51.2000072,1,0,0,response5disk,,2,7.200011551,11.99999374,1,0,0,rectangle,7.200011551,11.99999374,1,0,0,7.200011551,11.99999374,1,0,0,1,37,197,130,1,,,,,,,,
,,,,,,,,,,,,,FF,,,,,,,,0.7056,,,,,,,,,,,,,,,,,,,,,,6103683d0b7556494a758939,61036c4fbc3d8dca65f5a629,2021-07-29_23h06.36.062,Simcolourproject_2stim_asymm_v5,2020.2.10,Win32,60,61025ae37ef11b136ea224fe,,,,,,,,,3991,74.40001255,-40.00000703,1,0,0,response3disk,,5,11.20001161,8.799993694,1,0,0,rectangle,11.20001161,8.799993694,1,0,0,11.20001161,8.799993694,1,0,0,1,38,198,27,1,,,,,,,,
,,,,,,,,,,,,,FF,,,,,,,,0.785,,,,,,,,,,,,,,,,,,,,,,6103683d0b7556494a758939,61036c4fbc3d8dca65f5a629,2021-07-29_23h06.36.062,Simcolourproject_2stim_asymm_v5,2020.2.10,Win32,60,61025ae37ef11b136ea224fe,,,,,,,,,2457,50.4000122,24.79999393,1,0,0,response1disk,,6,18.40001172,-0.800006449,1,0,0,rectangle,18.40001172,-0.800006449,1,0,0,18.40001172,-0.800006449,1,0,0,1,39,199,150,1,,,,,,,,
,,,,,,,,,,,,,FF,,,,,,,,3.2807,,,,,,,,,,,,,,,,,,,,,,6103683d0b7556494a758939,61036c4fbc3d8dca65f5a629,2021-07-29_23h06.36.062,Simcolourproject_2stim_asymm_v5,2020.2.10,Win32,60,61025ae37ef11b136ea224fe,,,,,,,,,703,89.60001278,-79.20000762,1,0,0,response3disk,,5,-3.999988616,11.19999373,1,0,0,rectangle,-3.999988616,11.19999373,1,0,0,-3.999988616,11.19999373,1,0,0,1,40,200,38,1,,,,,,,,
,,,,,,,,,,,,,FF,,,,,,,,1.3839,,,,,,,,,,,,,,,,,,,,,,6103683d0b7556494a758939,61036c4fbc3d8dca65f5a629,2021-07-29_23h06.36.062,Simcolourproject_2stim_asymm_v5,2020.2.10,Win32,60,61025ae37ef11b136ea224fe,,,,,,,,,2767,-55.19998938,-125.6000571,1,0,0,response5disk,,3,0.800011456,-9.60000658,1,0,0,rectangle,0.800011456,-9.60000658,1,0,0,0.800011456,-9.60000658,1,0,0,1,41,201,68,1,,,,,,,,
,,,,,,,,,,,,,FF,,,,,,,,0.8386,,,,,,,,,,,,,,,,,,,,,,6103683d0b7556494a758939,61036c4fbc3d8dca65f5a629,2021-07-29_23h06.36.062,Simcolourproject_2stim_asymm_v5,2020.2.10,Win32,60,61025ae37ef11b136ea224fe,,,,,,,,,2729,-77.59998971,-103.200008,1,0,0,response5disk,,3,-5.599988639,1.599993587,1,0,0,rectangle,-5.599988639,1.599993587,1,0,0,-5.599988639,1.599993587,1,0,0,1,42,202,29,1,,,,,,,,
,,,,,,,,,,,,,FF,,,,,,,,0.4783,,,,,,,,,,,,,,,,,,,,,,6103683d0b7556494a758939,61036c4fbc3d8dca65f5a629,2021-07-29_23h06.36.062,Simcolourproject_2stim_asymm_v5,2020.2.10,Win32,60,61025ae37ef11b136ea224fe,,,,,,,,,834,88.00001276,-48.80000716,1,0,0,response3disk,,5,16.80001169,-2.400006473,1,0,0,rectangle,16.80001169,-2.400006473,1,0,0,16.80001169,-2.400006473,1,0,0,1,43,203,126,1,,,,,,,,
,,,,,,,,,,,,,FF,,,,,,,,1.2173,,,,,,,,,,,,,,,,,,,,,,6103683d0b7556494a758939,61036c4fbc3d8dca65f5a629,2021-07-29_23h06.36.062,Simcolourproject_2stim_asymm_v5,2020.2.10,Win32,60,61025ae37ef11b136ea224fe,,,,,,,,,3451,36.00001198,-96.00000787,1,0,0,response3disk,,4,-5.599988639,3.19999361,1,0,0,rectangle,-5.599988639,3.19999361,1,0,0,-5.599988639,3.19999361,1,0,0,1,44,204,87,1,,,,,,,,
,,,,,,,,,,,,,FF,,,,,,,,0.5839,,,,,,,,,,,,,,,,,,,,,,6103683d0b7556494a758939,61036c4fbc3d8dca65f5a629,2021-07-29_23h06.36.062,Simcolourproject_2stim_asymm_v5,2020.2.10,Win32,60,61025ae37ef11b136ea224fe,,,,,,,,,2247,80.00001264,-29.60000688,1,0,0,response3disk,,5,3.200011492,-8.800006568,1,0,0,rectangle,3.200011492,-8.800006568,1,0,0,3.200011492,-8.800006568,1,0,0,1,45,205,67,1,,,,,,,,
,,,,,,,,,,,,,FF,,,,,,,,0.9024,,,,,,,,,,,,,,,,,,,,,,6103683d0b7556494a758939,61036c4fbc3d8dca65f5a629,2021-07-29_23h06.36.062,Simcolourproject_2stim_asymm_v5,2020.2.10,Win32,60,61025ae37ef11b136ea224fe,,,,,,,,,4075,-35.19998908,-58.40000731,1,0,0,response5disk,,3,12.80001163,8.799993694,1,0,0,rectangle,12.80001163,8.799993694,1,0,0,12.80001163,8.799993694,1,0,0,1,46,206,121,1,,,,,,,,
,,,,,,,,,,,,,FF,,,,,,,,0.7799,,,,,,,,,,,,,,,,,,,,,,6103683d0b7556494a758939,61036c4fbc3d8dca65f5a629,2021-07-29_23h06.36.062,Simcolourproject_2stim_asymm_v5,2020.2.10,Win32,60,61025ae37ef11b136ea224fe,,,,,,,,,2289,-36.7999891,-96.00000787,1,0,0,response5disk,,3,4.800011516,-4.000006497,1,0,0,rectangle,4.800011516,-4.000006497,1,0,0,4.800011516,-4.000006497,1,0,0,1,47,207,17,1,,,,,,,,
,,,,,,,,,,,,,FF,,,,,,,,0.9505,,,,,,,,,,,,,,,,,,,,,,6103683d0b7556494a758939,61036c4fbc3d8dca65f5a629,2021-07-29_23h06.36.062,Simcolourproject_2stim_asymm_v5,2020.2.10,Win32,60,61025ae37ef11b136ea224fe,,,,,,,,,3557,-95.99998999,-55.20000726,1,0,0,response5disk,,2,-1.59998858,-4.800006509,1,0,0,rectangle,-1.59998858,-4.800006509,1,0,0,-1.59998858,-4.800006509,1,0,0,1,48,208,20,1,,,,,,,,
,,,,,,,,,,,,,FF,,,,,,,,0.7171,,,,,,,,,,,,,,,,,,,,,,6103683d0b7556494a758939,61036c4fbc3d8dca65f5a629,2021-07-29_23h06.36.062,Simcolourproject_2stim_asymm_v5,2020.2.10,Win32,60,61025ae37ef11b136ea224fe,,,,,,,,,4135,111.2000131,-40.80000705,1,0,0,response3disk,,5,12.80001163,-1.600006461,1,0,0,rectangle,12.80001163,-1.600006461,1,0,0,12.80001163,-1.600006461,1,0,0,1,49,209,7,1,,,,,,,,
,,,,,,,,,,,,,FF,,,,,,,,0.9003,,,,,,,,,,,,,,,,,,,,,,6103683d0b7556494a758939,61036c4fbc3d8dca65f5a629,2021-07-29_23h06.36.062,Simcolourproject_2stim_asymm_v5,2020.2.10,Win32,60,61025ae37ef11b136ea224fe,,,,,,,,,2541,-109.5999902,31.99999404,1,0,0,response7disk,,1,-12.79998875,2.399993598,1,0,0,rectangle,-12.79998875,2.399993598,1,0,0,-12.79998875,2.399993598,1,0,0,1,50,210,132,1,,,,,,,,
,,,,,,,,,,,,,FF,,,,,,,,0.534,,,,,,,,,,,,,,,,,,,,,,6103683d0b7556494a758939,61036c4fbc3d8dca65f5a629,2021-07-29_23h06.36.062,Simcolourproject_2stim_asymm_v5,2020.2.10,Win32,60,61025ae37ef11b136ea224fe,,,,,,,,,3693,71.20001251,40.79999417,1,0,0,response1disk,,6,-28.79998899,-1.600006461,1,0,0,rectangle,-28.79998899,-1.600006461,1,0,0,-28.79998899,-1.600006461,1,0,0,1,51,211,4,1,,,,,,,,
,,,,,,,,,,,,,FF,,,,,,,,1.0172,,,,,,,,,,,,,,,,,,,,,,6103683d0b7556494a758939,61036c4fbc3d8dca65f5a629,2021-07-29_23h06.36.062,Simcolourproject_2stim_asymm_v5,2020.2.10,Win32,60,61025ae37ef11b136ea224fe,,,,,,,,,329,120.8000132,75.9999947,1,0,0,response1disk,,6,5.600060356,4.799993634,1,0,0,rectangle,5.600060356,4.799993634,1,0,0,5.600060356,4.799993634,1,0,0,1,52,212,10,1,,,,,,,,
,,,,,,,,,,,,,FF,,,,,,,,0.9169,,,,,,,,,,,,,,,,,,,,,,6103683d0b7556494a758939,61036c4fbc3d8dca65f5a629,2021-07-29_23h06.36.062,Simcolourproject_2stim_asymm_v5,2020.2.10,Win32,60,61025ae37ef11b136ea224fe,,,,,,,,,221,88.00001276,-35.20000696,1,0,0,response3disk,,5,-21.59998888,11.99999374,1,0,0,rectangle,-21.59998888,11.99999374,1,0,0,-21.59998888,11.99999374,1,0,0,1,53,213,144,1,,,,,,,,
,,,,,,,,,,,,,FF,,,,,,,,1.2394,,,,,,,,,,,,,,,,,,,,,,6103683d0b7556494a758939,61036c4fbc3d8dca65f5a629,2021-07-29_23h06.36.062,Simcolourproject_2stim_asymm_v5,2020.2.10,Win32,60,61025ae37ef11b136ea224fe,,,,,,,,,1913,97.6000129,47.19996985,1,0,0,response1disk,,6,-7.199988663,2.399993598,1,0,0,rectangle,-7.199988663,2.399993598,1,0,0,-7.199988663,2.399993598,1,0,0,1,54,214,112,1,,,,,,,,
,,,,,,,,,,,,,FF,,,,,,,,0.6338,,,,,,,,,,,,,,,,,,,,,,6103683d0b7556494a758939,61036c4fbc3d8dca65f5a629,2021-07-29_23h06.36.062,Simcolourproject_2stim_asymm_v5,2020.2.10,Win32,60,61025ae37ef11b136ea224fe,,,,,,,,,2006,115.2000132,68.79999459,1,0,0,response1disk,,6,-8.799988687,1.599993587,1,0,0,rectangle,-8.799988687,1.599993587,1,0,0,-8.799988687,1.599993587,1,0,0,1,55,215,36,1,,,,,,,,
,,,,,,,,,,,,,FF,,,,,,,,0.7674,,,,,,,,,,,,,,,,,,,,,,6103683d0b7556494a758939,61036c4fbc3d8dca65f5a629,2021-07-29_23h06.36.062,Simcolourproject_2stim_asymm_v5,2020.2.10,Win32,60,61025ae37ef11b136ea224fe,,,,,,,,,1121,70.40001249,31.99999404,1,0,0,response1disk,,6,14.40001166,-8.000006557,1,0,0,rectangle,14.40001166,-8.000006557,1,0,0,14.40001166,-8.000006557,1,0,0,1,56,216,21,1,,,,,,,,
,,,,,,,,,,,,,FF,,,,,,,,0.5668,,,,,,,,,,,,,,,,,,,,,,6103683d0b7556494a758939,61036c4fbc3d8dca65f5a629,2021-07-29_23h06.36.062,Simcolourproject_2stim_asymm_v5,2020.2.10,Win32,60,61025ae37ef11b136ea224fe,,,,,,,,,3442,26.40001184,-88.80000776,1,0,0,response3disk,,4,-8.799988687,6.399993658,1,0,0,rectangle,-8.799988687,6.399993658,1,0,0,-8.799988687,6.399993658,1,0,0,1,57,217,35,1,,,,,,,,
,,,,,,,,,,,,,FF,,,,,,,,0.679,,,,,,,,,,,,,,,,,,,,,,6103683d0b7556494a758939,61036c4fbc3d8dca65f5a629,2021-07-29_23h06.36.062,Simcolourproject_2stim_asymm_v5,2020.2.10,Win32,60,61025ae37ef11b136ea224fe,,,,,,,,,4092,100.0000129,-63.20000738,1,0,0,response3disk,,5,22.40001178,-6.400006533,1,0,0,rectangle,-51.19998932,82.39999479,1,0,0,0.800011456,5.599993646,1,0,0,1,58,218,3,1,,response7disk_3,TRUE,0,0,"[36,261,225,38,158,304,252,240,252,248,89,78,138,145,219,289,176,48,289,225]",1.5672,rectangle
,,,,,,,,,,,,,FF,,,,,,,,0.6008,,,,,,,,,,,,,,,,,,,,,,6103683d0b7556494a758939,61036c4fbc3d8dca65f5a629,2021-07-29_23h06.36.062,Simcolourproject_2stim_asymm_v5,2020.2.10,Win32,60,61025ae37ef11b136ea224fe,,,,,,,,,2085,77.6000126,-43.20000708,1,0,0,response3disk,,5,-3.999988616,-16.00000668,1,0,0,rectangle,-3.999988616,-16.00000668,1,0,0,-3.999988616,-16.00000668,1,0,0,1,59,219,94,1,,,,,,,,
,,,,,,,,,,,,,FF,,,,,,,,0.4838,,,,,,,,,,,,,,,,,,,,,,6103683d0b7556494a758939,61036c4fbc3d8dca65f5a629,2021-07-29_23h06.36.062,Simcolourproject_2stim_asymm_v5,2020.2.10,Win32,60,61025ae37ef11b136ea224fe,,,,,,,,,1777,56.00001228,-69.60000747,1,0,0,response3disk,,4,11.20001161,1.599993587,1,0,0,rectangle,11.20001161,1.599993587,1,0,0,11.20001161,1.599993587,1,0,0,1,60,220,60,1,,,,,,,,
,,,,,,,,,,,,,FF,,,,,,,,0.8507,,,,,,,,,,,,,,,,,,,,,,6103683d0b7556494a758939,61036c4fbc3d8dca65f5a629,2021-07-29_23h06.36.062,Simcolourproject_2stim_asymm_v5,2020.2.10,Win32,60,61025ae37ef11b136ea224fe,,,,,,,,,723,-31.19998902,-74.40000755,1,0,0,response5disk,,3,-7.999988675,-4.000006497,1,0,0,rectangle,-7.999988675,-4.000006497,1,0,0,-7.999988675,-4.000006497,1,0,0,1,61,221,37,1,,,,,,,,
,,,,,,,,,,,,,FF,,,,,,,,0.6669,,,,,,,,,,,,,,,,,,,,,,6103683d0b7556494a758939,61036c4fbc3d8dca65f5a629,2021-07-29_23h06.36.062,Simcolourproject_2stim_asymm_v5,2020.2.10,Win32,60,61025ae37ef11b136ea224fe,,,,,,,,,717,-63.99998951,27.19996955,1,0,0,response7disk,,1,-23.1999889,-6.4373E-06,1,0,0,rectangle,-23.1999889,-6.4373E-06,1,0,0,-23.1999889,-6.4373E-06,1,0,0,1,62,222,24,1,,,,,,,,
,,,,,,,,,,,,,FF,,,,,,,,0.6171,,,,,,,,,,,,,,,,,,,,,,6103683d0b7556494a758939,61036c4fbc3d8dca65f5a629,2021-07-29_23h06.36.062,Simcolourproject_2stim_asymm_v5,2020.2.10,Win32,60,61025ae37ef11b136ea224fe,,,,,,,,,3652,66.40001243,26.39999396,1,0,0,response1disk,,6,-6.399939823,1.599993587,1,0,0,rectangle,-6.399939823,1.599993587,1,0,0,-6.399939823,1.599993587,1,0,0,1,63,223,86,1,,,,,,,,
,,,,,,,,,,,,,FF,,,,,,,,0.7222,,,,,,,,,,,,,,,,,,,,,,6103683d0b7556494a758939,61036c4fbc3d8dca65f5a629,2021-07-29_23h06.36.062,Simcolourproject_2stim_asymm_v5,2020.2.10,Win32,60,61025ae37ef11b136ea224fe,,,,,,,,,132,35.20001197,-79.20000762,1,0,0,response3disk,,4,1.600060296,-8.000006557,1,0,0,rectangle,32.00001192,79.19997033,1,0,0,0.800011456,2.399993598,1,0,0,1,64,224,96,1,,response1disk_3,TRUE,7,7,"[36,261,225,38,158,304,252,240,252,248,89,78,138,145,219,289,176,48,289,225]",1.7856,rectangle
,,,,,,,,,,,,,FF,,,,,,,,0.679,,,,,,,,,,,,,,,,,,,,,,6103683d0b7556494a758939,61036c4fbc3d8dca65f5a629,2021-07-29_23h06.36.062,Simcolourproject_2stim_asymm_v5,2020.2.10,Win32,60,61025ae37ef11b136ea224fe,,,,,,,,,402,60.00001234,-43.20000708,1,0,0,response3disk,,5,-9.599988699,1.599993587,1,0,0,rectangle,-9.599988699,1.599993587,1,0,0,-9.599988699,1.599993587,1,0,0,1,65,225,23,1,,,,,,,,
,,,,,,,,,,,,,FF,,,,,,,,0.767,,,,,,,,,,,,,,,,,,,,,,6103683d0b7556494a758939,61036c4fbc3d8dca65f5a629,2021-07-29_23h06.36.062,Simcolourproject_2stim_asymm_v5,2020.2.10,Win32,60,61025ae37ef11b136ea224fe,,,,,,,,,3043,35.20001197,-76.80000758,1,0,0,response3disk,,4,-4.799988627,9.599993706,1,0,0,rectangle,-4.799988627,9.599993706,1,0,0,-4.799988627,9.599993706,1,0,0,1,66,226,1,1,,,,,,,,
,,,,,,,,,,,,,FF,,,,,,,,0.7894,,,,,,,,,,,,,,,,,,,,,,6103683d0b7556494a758939,61036c4fbc3d8dca65f5a629,2021-07-29_23h06.36.062,Simcolourproject_2stim_asymm_v5,2020.2.10,Win32,60,61025ae37ef11b136ea224fe,,,,,,,,,2681,84.0000127,-25.60000682,1,0,0,response3disk,,5,1.600060296,7.999993682,1,0,0,rectangle,1.600060296,7.999993682,1,0,0,1.600060296,7.999993682,1,0,0,1,67,227,125,1,,,,,,,,
,,,,,,,,,,,,,FF,,,,,,,,0.8841,,,,,,,,,,,,,,,,,,,,,,6103683d0b7556494a758939,61036c4fbc3d8dca65f5a629,2021-07-29_23h06.36.062,Simcolourproject_2stim_asymm_v5,2020.2.10,Win32,60,61025ae37ef11b136ea224fe,,,,,,,,,2789,-35.99998909,-76.00000757,1,0,0,response5disk,,3,-14.39993994,4.799993634,1,0,0,rectangle,-14.39993994,4.799993634,1,0,0,-14.39993994,4.799993634,1,0,0,1,68,228,122,1,,,,,,,,
,,,,,,,,,,,,,FF,,,,,,,,0.7291,,,,,,,,,,,,,,,,,,,,,,6103683d0b7556494a758939,61036c4fbc3d8dca65f5a629,2021-07-29_23h06.36.062,Simcolourproject_2stim_asymm_v5,2020.2.10,Win32,60,61025ae37ef11b136ea224fe,,,,,,,,,1953,79.20001262,-58.40000731,1,0,0,response3disk,,5,-13.59998876,-6.400006533,1,0,0,rectangle,-13.59998876,-6.400006533,1,0,0,-13.59998876,-6.400006533,1,0,0,1,69,229,124,1,,,,,,,,
,,,,,,,,,,,,,FF,,,,,,,,0.7503,,,,,,,,,,,,,,,,,,,,,,6103683d0b7556494a758939,61036c4fbc3d8dca65f5a629,2021-07-29_23h06.36.062,Simcolourproject_2stim_asymm_v5,2020.2.10,Win32,60,61025ae37ef11b136ea224fe,,,,,,,,,1095,76.80001259,31.19996961,1,0,0,response1disk,,6,-14.39993994,-13.60000664,1,0,0,rectangle,-14.39993994,-13.60000664,1,0,0,-14.39993994,-13.60000664,1,0,0,1,70,230,54,1,,,,,,,,
,,,,,,,,,,,,,FF,,,,,,,,0.7168,,,,,,,,,,,,,,,,,,,,,,6103683d0b7556494a758939,61036c4fbc3d8dca65f5a629,2021-07-29_23h06.36.062,Simcolourproject_2stim_asymm_v5,2020.2.10,Win32,60,61025ae37ef11b136ea224fe,,,,,,,,,2262,46.40001214,77.59999472,1,0,0,response1disk,,7,4.800011516,-4.800006509,1,0,0,rectangle,4.800011516,-4.800006509,1,0,0,4.800011516,-4.800006509,1,0,0,1,71,231,147,1,,,,,,,,
,,,,,,,,,,,,,FF,,,,,,,,1.2338,,,,,,,,,,,,,,,,,,,,,,6103683d0b7556494a758939,61036c4fbc3d8dca65f5a629,2021-07-29_23h06.36.062,Simcolourproject_2stim_asymm_v5,2020.2.10,Win32,60,61025ae37ef11b136ea224fe,,,,,,,,,4304,90.40001279,-49.60000718,1,0,0,response3disk,,5,1.600060296,-0.800006449,1,0,0,rectangle,1.600060296,-0.800006449,1,0,0,1.600060296,-0.800006449,1,0,0,1,72,232,100,1,,,,,,,,
,,,,,,,,,,,,,FF,,,,,,,,1.1342,,,,,,,,,,,,,,,,,,,,,,6103683d0b7556494a758939,61036c4fbc3d8dca65f5a629,2021-07-29_23h06.36.062,Simcolourproject_2stim_asymm_v5,2020.2.10,Win32,60,61025ae37ef11b136ea224fe,,,,,,,,,2936,-86.39994102,-64.8000074,1,0,0,response5disk,,2,-5.599988639,-4.800006509,1,0,0,rectangle,-5.599988639,-4.800006509,1,0,0,-5.599988639,-4.800006509,1,0,0,1,73,233,11,1,,,,,,,,
,,,,,,,,,,,,,FF,,,,,,,,0.884,,,,,,,,,,,,,,,,,,,,,,6103683d0b7556494a758939,61036c4fbc3d8dca65f5a629,2021-07-29_23h06.36.062,Simcolourproject_2stim_asymm_v5,2020.2.10,Win32,60,61025ae37ef11b136ea224fe,,,,,,,,,2250,59.20001233,-103.200008,1,0,0,response3disk,,4,17.60006053,-8.800006568,1,0,0,rectangle,17.60006053,-8.800006568,1,0,0,17.60006053,-8.800006568,1,0,0,1,74,234,66,1,,,,,,,,
,,,,,,,,,,,,,FF,,,,,,,,1.3346,,,,,,,,,,,,,,,,,,,,,,6103683d0b7556494a758939,61036c4fbc3d8dca65f5a629,2021-07-29_23h06.36.062,Simcolourproject_2stim_asymm_v5,2020.2.10,Win32,60,61025ae37ef11b136ea224fe,,,,,,,,,189,-30.39994018,-114.4000081,1,0,0,response5disk,,3,-13.59998876,-2.400006473,1,0,0,rectangle,-13.59998876,-2.400006473,1,0,0,-13.59998876,-2.400006473,1,0,0,1,75,235,74,1,,,,,,,,
,,,,,,,,,,,,,FF,,,,,,,,0.6842,,,,,,,,,,,,,,,,,,,,,,6103683d0b7556494a758939,61036c4fbc3d8dca65f5a629,2021-07-29_23h06.36.062,Simcolourproject_2stim_asymm_v5,2020.2.10,Win32,60,61025ae37ef11b136ea224fe,,,,,,,,,3287,-52.79998934,-85.60005654,1,0,0,response5disk,,3,-7.999988675,-11.2000066,1,0,0,rectangle,-7.999988675,-11.2000066,1,0,0,-7.999988675,-11.2000066,1,0,0,1,76,236,26,1,,,,,,,,
,,,,,,,,,,,,,FF,,,,,,,,0.6344,,,,,,,,,,,,,,,,,,,,,,6103683d0b7556494a758939,61036c4fbc3d8dca65f5a629,2021-07-29_23h06.36.062,Simcolourproject_2stim_asymm_v5,2020.2.10,Win32,60,61025ae37ef11b136ea224fe,,,,,,,,,3284,-103.1999901,-49.60000718,1,0,0,response5disk,,2,8.800011575,7.19999367,1,0,0,rectangle,8.800011575,7.19999367,1,0,0,8.800011575,7.19999367,1,0,0,1,77,237,123,1,,,,,,,,
,,,,,,,,,,,,,FF,,,,,,,,0.8338,,,,,,,,,,,,,,,,,,,,,,6103683d0b7556494a758939,61036c4fbc3d8dca65f5a629,2021-07-29_23h06.36.062,Simcolourproject_2stim_asymm_v5,2020.2.10,Win32,60,61025ae37ef11b136ea224fe,,,,,,,,,3277,88.00001276,18.39999384,1,0,0,response1disk,,6,1.14441E-05,-8.000006557,1,0,0,rectangle,1.14441E-05,-8.000006557,1,0,0,1.14441E-05,-8.000006557,1,0,0,1,78,238,141,1,,,,,,,,
,,,,,,,,,,,,,FF,,,,,,,,1.2958,,,,,,,,,,,,,,,,,,,,,,6103683d0b7556494a758939,61036c4fbc3d8dca65f5a629,2021-07-29_23h06.36.062,Simcolourproject_2stim_asymm_v5,2020.2.10,Win32,60,61025ae37ef11b136ea224fe,,,,,,,,,1061,77.6000126,-41.60000706,1,0,0,response3disk,,5,5.600060356,0.799993575,1,0,0,rectangle,58.40001231,-97.60005672,1,0,0,-12.79998875,6.399993658,1,0,0,1,79,239,152,1,,response3disk_3,TRUE,4,1,"[36,261,225,38,158,304,252,240,252,248,89,78,138,145,219,289,176,48,289,225]",2.5028,rectangle
,,,,,,,,,,,,,FF,,,,,,,,0.684,,,,,,,,,,,,,,,,,,,,,,6103683d0b7556494a758939,61036c4fbc3d8dca65f5a629,2021-07-29_23h06.36.062,Simcolourproject_2stim_asymm_v5,2020.2.10,Win32,60,61025ae37ef11b136ea224fe,,,,,,,,,2225,69.60001248,35.9999941,1,0,0,response1disk,,6,-2.399939764,4.799993634,1,0,0,rectangle,-2.399939764,4.799993634,1,0,0,-2.399939764,4.799993634,1,0,0,1,80,240,63,1,,,,,,,,
,,,,,,,,,,,,,FF,,,,,,,,0.6513,,,,,,,,,,,,,,,,,,,,,,6103683d0b7556494a758939,61036c4fbc3d8dca65f5a629,2021-07-29_23h06.36.062,Simcolourproject_2stim_asymm_v5,2020.2.10,Win32,60,61025ae37ef11b136ea224fe,,,,,,,,,3602,69.60001248,62.39999449,1,0,0,response1disk,,6,-11.99998873,-9.60000658,1,0,0,rectangle,-11.99998873,-9.60000658,1,0,0,-11.99998873,-9.60000658,1,0,0,1,81,241,14,1,,,,,,,,
,,,,,,,,,,,,,FF,,,,,,,,0.863,,,,,,,,,,,,,,,,,,,,,,6103683d0b7556494a758939,61036c4fbc3d8dca65f5a629,2021-07-29_23h06.36.062,Simcolourproject_2stim_asymm_v5,2020.2.10,Win32,60,61025ae37ef11b136ea224fe,,,,,,,,,1431,39.20001203,-97.60005672,1,0,0,response3disk,,4,8.800011575,-8.800006568,1,0,0,rectangle,8.800011575,-8.800006568,1,0,0,8.800011575,-8.800006568,1,0,0,1,82,242,148,1,,,,,,,,
,,,,,,,,,,,,,FF,,,,,,,,0.9721,,,,,,,,,,,,,,,,,,,,,,6103683d0b7556494a758939,61036c4fbc3d8dca65f5a629,2021-07-29_23h06.36.062,Simcolourproject_2stim_asymm_v5,2020.2.10,Win32,60,61025ae37ef11b136ea224fe,,,,,,,,,3379,104.000013,-41.60000706,1,0,0,response3disk,,5,18.40001172,-5.600006521,1,0,0,rectangle,18.40001172,-5.600006521,1,0,0,18.40001172,-5.600006521,1,0,0,1,83,243,108,1,,,,,,,,
