key_resp.keys,key_resp.rt,key_resp_14.keys,key_resp_14.rt,key_resp_15.keys,key_resp_15.rt,key_resp_17.keys,key_resp_17.rt,key_resp_9.keys,key_resp_9.rt,key_resp_10.keys,key_resp_10.rt,practice_comparison,Ecc,mouse_5.x,mouse_5.y,mouse_5.leftButton,mouse_5.midButton,mouse_5.rightButton,mouse_5.clicked_name,pracsimilarity,response_time,mouse_10.x,mouse_10.y,mouse_10.leftButton,mouse_10.midButton,mouse_10.rightButton,mouse_10.clicked_name,mouse_7.x,mouse_7.y,mouse_7.leftButton,mouse_7.midButton,mouse_7.rightButton,mouse_6.x,mouse_6.y,mouse_6.leftButton,mouse_6.midButton,mouse_6.rightButton,duringprac.thisRepN,duringprac.thisTrialN,duringprac.thisN,duringprac.thisIndex,duringprac.ran,participant,session,date,expName,psychopyVersion,OS,frameRate,study_id,mouse_7.clicked_name,catchpracsimilarity,catch_response_time,catchnumberprac,catchtrialorderprac,mouse_6.clicked_name,key_resp_22.keys,key_resp_22.rt,realcomparison,mouse.x,mouse.y,mouse.leftButton,mouse.midButton,mouse.rightButton,mouse.clicked_name,Colour2,similarity,mouse_2.x,mouse_2.y,mouse_2.leftButton,mouse_2.midButton,mouse_2.rightButton,mouse_2.clicked_name,mouse_3.x,mouse_3.y,mouse_3.leftButton,mouse_3.midButton,mouse_3.rightButton,mouse_11.x,mouse_11.y,mouse_11.leftButton,mouse_11.midButton,mouse_11.rightButton,trials_2.thisRepN,trials_2.thisTrialN,trials_2.thisN,trials_2.thisIndex,trials_2.ran,Colour1,mouse_3.clicked_name,catchornah,catchsimilarity,catchnumber,catchtrialorder,catchRT,mouse_11.clicked_name
space,1.0779,space,1.6743,space,6.3182,space,2.8983,space,1.9399,space,2.484,152,PF,87.33335501,29.99999017,1,0,0,response1disk_5,6,9.8357,0.66668576,-2.000010788,1,0,0,rectangle_8,0.66668576,-2.000010788,1,0,0,0.66668576,-2.000010788,1,0,0,0,0,0,4,1,61036bc11cbe328e09cf25d3,61036e3ce86cce9c8acb7dec,2021-07-29_22h13.32.181,Simcolourproject_2stim_asymm_v5,2020.2.10,Win32,60,61025ae37ef11b136ea224fe,,,,,,,,,,,,,,,,,,,,,,,,,,,,,,,,,,,,,,,,,,,,,,
,,,,,,,,,,,,36,FF,46.00002044,88.66665858,1,0,0,response1disk_5,7,3.4005,-2.666606983,-14.00001115,1,0,0,rectangle_8,-41.33331549,89.33330492,1,0,0,8.000019312,-3.333344162,1,0,0,0,1,1,3,1,61036bc11cbe328e09cf25d3,61036e3ce86cce9c8acb7dec,2021-07-29_22h13.32.181,Simcolourproject_2stim_asymm_v5,2020.2.10,Win32,60,61025ae37ef11b136ea224fe,response7disk_7,0,2.6007,0,"[2,5]",rectangle_4,,,,,,,,,,,,,,,,,,,,,,,,,,,,,,,,,,,,,,,,
,,,,,,,,,,,,88,FF,30.00001997,73.99999148,1,0,0,response1disk_5,7,1.1833,8.666685998,1.999989331,1,0,0,rectangle_8,8.666685998,1.999989331,1,0,0,8.666685998,1.999989331,1,0,0,0,2,2,0,1,61036bc11cbe328e09cf25d3,61036e3ce86cce9c8acb7dec,2021-07-29_22h13.32.181,Simcolourproject_2stim_asymm_v5,2020.2.10,Win32,60,61025ae37ef11b136ea224fe,,,,,,,,,,,,,,,,,,,,,,,,,,,,,,,,,,,,,,,,,,,,,,
,,,,,,,,,,,,97,PF,-33.99998194,-90.6666801,1,0,0,response5disk_5,3,1.0834,-1.999980986,11.99998963,1,0,0,rectangle_8,-1.999980986,11.99998963,1,0,0,-1.999980986,11.99998963,1,0,0,0,3,3,1,1,61036bc11cbe328e09cf25d3,61036e3ce86cce9c8acb7dec,2021-07-29_22h13.32.181,Simcolourproject_2stim_asymm_v5,2020.2.10,Win32,60,61025ae37ef11b136ea224fe,,,,,,,,,,,,,,,,,,,,,,,,,,,,,,,,,,,,,,,,,,,,,,
,,,,,,,,,,,,140,PF,66.66668773,-27.33334488,1,0,0,response3disk_5,5,2.883,-11.99998128,-5.333344221,1,0,0,rectangle_8,-39.99998212,90.66665864,1,0,0,-7.999981165,-1.333344102,1,0,0,0,4,4,2,1,61036bc11cbe328e09cf25d3,61036e3ce86cce9c8acb7dec,2021-07-29_22h13.32.181,Simcolourproject_2stim_asymm_v5,2020.2.10,Win32,60,61025ae37ef11b136ea224fe,response7disk_7,0,1.7666,0,"[2,5]",rectangle_4,,,,,,,,,,,,,,,,,,,,,,,,,,,,,,,,,,,,,,,,
,,,,,,,,,,,,46,FF,-60.66660871,29.33330313,1,0,0,response7disk_5,1,1.1667,-9.333314538,3.333322704,1,0,0,rectangle_8,-9.333314538,3.333322704,1,0,0,-9.333314538,3.333322704,1,0,0,0,5,5,5,1,61036bc11cbe328e09cf25d3,61036e3ce86cce9c8acb7dec,2021-07-29_22h13.32.181,Simcolourproject_2stim_asymm_v5,2020.2.10,Win32,60,61025ae37ef11b136ea224fe,,,,,,,,,,,,,,,,,,,,,,,,,,,,,,,,,,,,,,,,,,,,,,
,,,,,,,,,,,,92,PF,36.00002015,83.33330474,1,0,0,response1disk_5,7,0.8498,-11.3333146,4.666656077,1,0,0,rectangle_8,-11.3333146,4.666656077,1,0,0,-11.3333146,4.666656077,1,0,0,0,6,6,6,1,61036bc11cbe328e09cf25d3,61036e3ce86cce9c8acb7dec,2021-07-29_22h13.32.181,Simcolourproject_2stim_asymm_v5,2020.2.10,Win32,60,61025ae37ef11b136ea224fe,,,,,,,,,,,,,,,,,,,,,,,,,,,,,,,,,,,,,,,,,,,,,,
,,,,,,,,,,,,,FF,,,,,,,,2.0495,,,,,,,,,,,,,,,,,,,,,,61036bc11cbe328e09cf25d3,61036e3ce86cce9c8acb7dec,2021-07-29_22h13.32.181,Simcolourproject_2stim_asymm_v5,2020.2.10,Win32,60,61025ae37ef11b136ea224fe,,,,,,,space,2.6112,384,88.0000217,53.99999088,1,0,0,response1disk,,6,-9.333314538,-7.333344281,1,0,0,rectangle,-9.333314538,-7.333344281,1,0,0,-9.333314538,-7.333344281,1,0,0,0,0,0,96,1,,,,,,,,
,,,,,,,,,,,,,FF,,,,,,,,1.15,,,,,,,,,,,,,,,,,,,,,,61036bc11cbe328e09cf25d3,61036e3ce86cce9c8acb7dec,2021-07-29_22h13.32.181,Simcolourproject_2stim_asymm_v5,2020.2.10,Win32,60,61025ae37ef11b136ea224fe,,,,,,,,,2498,48.66668719,-81.33334649,1,0,0,response3disk,,4,4.666685879,7.333322823,1,0,0,rectangle,4.666685879,7.333322823,1,0,0,4.666685879,7.333322823,1,0,0,0,1,1,82,1,,,,,,,,
,,,,,,,,,,,,,FF,,,,,,,,1.433,,,,,,,,,,,,,,,,,,,,,,61036bc11cbe328e09cf25d3,61036e3ce86cce9c8acb7dec,2021-07-29_22h13.32.181,Simcolourproject_2stim_asymm_v5,2020.2.10,Win32,60,61025ae37ef11b136ea224fe,,,,,,,,,1313,-79.99998331,34.66665697,1,0,0,response7disk,,1,-0.666606923,2.666656017,1,0,0,rectangle,-0.666606923,2.666656017,1,0,0,-0.666606923,2.666656017,1,0,0,0,2,2,71,1,,,,,,,,
,,,,,,,,,,,,,FF,,,,,,,,1.2504,,,,,,,,,,,,,,,,,,,,,,61036bc11cbe328e09cf25d3,61036e3ce86cce9c8acb7dec,2021-07-29_22h13.32.181,Simcolourproject_2stim_asymm_v5,2020.2.10,Win32,60,61025ae37ef11b136ea224fe,,,,,,,,,4105,-77.33331656,21.99998993,1,0,0,response7disk,,1,14.00001949,0.666655958,1,0,0,rectangle,14.00001949,0.666655958,1,0,0,14.00001949,0.666655958,1,0,0,0,3,3,146,1,,,,,,,,
,,,,,,,,,,,,,FF,,,,,,,,2.2004,,,,,,,,,,,,,,,,,,,,,,61036bc11cbe328e09cf25d3,61036e3ce86cce9c8acb7dec,2021-07-29_22h13.32.181,Simcolourproject_2stim_asymm_v5,2020.2.10,Win32,60,61025ae37ef11b136ea224fe,,,,,,,,,3114,-75.3333165,57.999991,1,0,0,response7disk,,1,23.33339379,5.333322763,1,0,0,rectangle,23.33339379,5.333322763,1,0,0,23.33339379,5.333322763,1,0,0,0,4,4,77,1,,,,,,,,
,,,,,,,,,,,,,FF,,,,,,,,1.5664,,,,,,,,,,,,,,,,,,,,,,61036bc11cbe328e09cf25d3,61036e3ce86cce9c8acb7dec,2021-07-29_22h13.32.181,Simcolourproject_2stim_asymm_v5,2020.2.10,Win32,60,61025ae37ef11b136ea224fe,,,,,,,,,2471,-63.33331615,-53.33334565,1,0,0,response5disk,,2,6.666685939,7.99998951,1,0,0,rectangle,6.666685939,7.99998951,1,0,0,6.666685939,7.99998951,1,0,0,0,5,5,37,1,,,,,,,,
,,,,,,,,,,,,,FF,,,,,,,,1.2992,,,,,,,,,,,,,,,,,,,,,,61036bc11cbe328e09cf25d3,61036e3ce86cce9c8acb7dec,2021-07-29_22h13.32.181,Simcolourproject_2stim_asymm_v5,2020.2.10,Win32,60,61025ae37ef11b136ea224fe,,,,,,,,,97,-65.33331621,-24.66667813,1,0,0,response5disk,,2,-8.666607161,-1.07288E-05,1,0,0,rectangle,-63.99998283,90.66665864,1,0,0,-15.9999814,9.999989569,1,0,0,0,6,6,30,1,,response7disk_3,TRUE,0,0,"[7,182,70,133,281,305,115,221,221,127,145,152,26,294,252,20,176,74,115,242]",1.2505,rectangle
,,,,,,,,,,,,,FF,,,,,,,,2.7504,,,,,,,,,,,,,,,,,,,,,,61036bc11cbe328e09cf25d3,61036e3ce86cce9c8acb7dec,2021-07-29_22h13.32.181,Simcolourproject_2stim_asymm_v5,2020.2.10,Win32,60,61025ae37ef11b136ea224fe,,,,,,,,,2937,82.00002152,-74.66667962,1,0,0,response3disk,,5,16.00001955,5.99998945,1,0,0,rectangle,16.00001955,5.99998945,1,0,0,16.00001955,5.99998945,1,0,0,0,7,7,50,1,,,,,,,,
,,,,,,,,,,,,,FF,,,,,,,,1.1334,,,,,,,,,,,,,,,,,,,,,,61036bc11cbe328e09cf25d3,61036e3ce86cce9c8acb7dec,2021-07-29_22h13.32.181,Simcolourproject_2stim_asymm_v5,2020.2.10,Win32,60,61025ae37ef11b136ea224fe,,,,,,,,,3553,-75.99998319,43.99999058,1,0,0,response7disk,,1,-12.66660728,-2.666677475,1,0,0,rectangle,-12.66660728,-2.666677475,1,0,0,-12.66660728,-2.666677475,1,0,0,0,8,8,157,1,,,,,,,,
,,,,,,,,,,,,,FF,,,,,,,,1.3496,,,,,,,,,,,,,,,,,,,,,,61036bc11cbe328e09cf25d3,61036e3ce86cce9c8acb7dec,2021-07-29_22h13.32.181,Simcolourproject_2stim_asymm_v5,2020.2.10,Win32,60,61025ae37ef11b136ea224fe,,,,,,,,,394,43.3333537,-70.6666795,1,0,0,response3disk,,4,19.33339367,3.99998939,1,0,0,rectangle,19.33339367,3.99998939,1,0,0,19.33339367,3.99998939,1,0,0,0,9,9,10,1,,,,,,,,
,,,,,,,,,,,,,FF,,,,,,,,1.4003,,,,,,,,,,,,,,,,,,,,,,61036bc11cbe328e09cf25d3,61036e3ce86cce9c8acb7dec,2021-07-29_22h13.32.181,Simcolourproject_2stim_asymm_v5,2020.2.10,Win32,60,61025ae37ef11b136ea224fe,,,,,,,,,3254,78.0000214,-24.00001144,1,0,0,response3disk,,5,7.333393315,10.66665626,1,0,0,rectangle,7.333393315,10.66665626,1,0,0,7.333393315,10.66665626,1,0,0,0,10,10,65,1,,,,,,,,
,,,,,,,,,,,,,FF,,,,,,,,0.8665,,,,,,,,,,,,,,,,,,,,,,61036bc11cbe328e09cf25d3,61036e3ce86cce9c8acb7dec,2021-07-29_22h13.32.181,Simcolourproject_2stim_asymm_v5,2020.2.10,Win32,60,61025ae37ef11b136ea224fe,,,,,,,,,3425,-53.99998254,63.33330415,1,0,0,response7disk,,0,8.666685998,5.99998945,1,0,0,rectangle,8.666685998,5.99998945,1,0,0,8.666685998,5.99998945,1,0,0,0,11,11,36,1,,,,,,,,
,,,,,,,,,,,,,FF,,,,,,,,1.2003,,,,,,,,,,,,,,,,,,,,,,61036bc11cbe328e09cf25d3,61036e3ce86cce9c8acb7dec,2021-07-29_22h13.32.181,Simcolourproject_2stim_asymm_v5,2020.2.10,Win32,60,61025ae37ef11b136ea224fe,,,,,,,,,4196,-69.33331633,-33.33334506,1,0,0,response5disk,,2,-13.33331466,-2.000010788,1,0,0,rectangle,-13.33331466,-2.000010788,1,0,0,-13.33331466,-2.000010788,1,0,0,0,12,12,53,1,,,,,,,,
,,,,,,,,,,,,,FF,,,,,,,,1.1502,,,,,,,,,,,,,,,,,,,,,,61036bc11cbe328e09cf25d3,61036e3ce86cce9c8acb7dec,2021-07-29_22h13.32.181,Simcolourproject_2stim_asymm_v5,2020.2.10,Win32,60,61025ae37ef11b136ea224fe,,,,,,,,,857,75.33335465,-30.66667831,1,0,0,response3disk,,5,7.333393315,6.666656137,1,0,0,rectangle,7.333393315,6.666656137,1,0,0,7.333393315,6.666656137,1,0,0,0,13,13,126,1,,,,,,,,
,,,,,,,,,,,,,FF,,,,,,,,1.2335,,,,,,,,,,,,,,,,,,,,,,61036bc11cbe328e09cf25d3,61036e3ce86cce9c8acb7dec,2021-07-29_22h13.32.181,Simcolourproject_2stim_asymm_v5,2020.2.10,Win32,60,61025ae37ef11b136ea224fe,,,,,,,,,4255,-83.33331674,-46.66667879,1,0,0,response5disk,,2,-22.66660758,-3.333344162,1,0,0,rectangle,-22.66660758,-3.333344162,1,0,0,-22.66660758,-3.333344162,1,0,0,0,14,14,139,1,,,,,,,,
,,,,,,,,,,,,,FF,,,,,,,,1.08,,,,,,,,,,,,,,,,,,,,,,61036bc11cbe328e09cf25d3,61036e3ce86cce9c8acb7dec,2021-07-29_22h13.32.181,Simcolourproject_2stim_asymm_v5,2020.2.10,Win32,60,61025ae37ef11b136ea224fe,,,,,,,,,4176,-61.99998277,-38.66667855,1,0,0,response5disk,,2,-10.66660722,9.999989569,1,0,0,rectangle,-10.66660722,9.999989569,1,0,0,-10.66660722,9.999989569,1,0,0,0,15,15,140,1,,,,,,,,
,,,,,,,,,,,,,FF,,,,,,,,1.5168,,,,,,,,,,,,,,,,,,,,,,61036bc11cbe328e09cf25d3,61036e3ce86cce9c8acb7dec,2021-07-29_22h13.32.181,Simcolourproject_2stim_asymm_v5,2020.2.10,Win32,60,61025ae37ef11b136ea224fe,,,,,,,,,1115,55.33335406,-64.66667932,1,0,0,response3disk,,4,15.33339355,9.999989569,1,0,0,rectangle,15.33339355,9.999989569,1,0,0,15.33339355,9.999989569,1,0,0,0,16,16,49,1,,,,,,,,
,,,,,,,,,,,,,FF,,,,,,,,1,,,,,,,,,,,,,,,,,,,,,,61036bc11cbe328e09cf25d3,61036e3ce86cce9c8acb7dec,2021-07-29_22h13.32.181,Simcolourproject_2stim_asymm_v5,2020.2.10,Win32,60,61025ae37ef11b136ea224fe,,,,,,,,,2684,38.00002021,-78.66667974,1,0,0,response3disk,,4,24.00001979,-5.333344221,1,0,0,rectangle,24.00001979,-5.333344221,1,0,0,24.00001979,-5.333344221,1,0,0,0,17,17,133,1,,,,,,,,
,,,,,,,,,,,,,FF,,,,,,,,1.966,,,,,,,,,,,,,,,,,,,,,,61036bc11cbe328e09cf25d3,61036e3ce86cce9c8acb7dec,2021-07-29_22h13.32.181,Simcolourproject_2stim_asymm_v5,2020.2.10,Win32,60,61025ae37ef11b136ea224fe,,,,,,,,,303,66.00002104,29.99999017,1,0,0,response1disk,,6,6.666685939,-0.666677415,1,0,0,rectangle,6.666685939,-0.666677415,1,0,0,6.666685939,-0.666677415,1,0,0,0,18,18,87,1,,,,,,,,
,,,,,,,,,,,,,FF,,,,,,,,0.9998,,,,,,,,,,,,,,,,,,,,,,61036bc11cbe328e09cf25d3,61036e3ce86cce9c8acb7dec,2021-07-29_22h13.32.181,Simcolourproject_2stim_asymm_v5,2020.2.10,Win32,60,61025ae37ef11b136ea224fe,,,,,,,,,362,54.00002068,75.99999154,1,0,0,response1disk,,7,-4.666607042,5.333322763,1,0,0,rectangle,64.00002098,-81.33334649,1,0,0,12.66668612,3.99998939,1,0,0,0,19,19,130,1,,response3disk_3,TRUE,4,4,"[7,182,70,133,281,305,115,221,221,127,145,152,26,294,252,20,176,74,115,242]",2.7827,rectangle
,,,,,,,,,,,,,FF,,,,,,,,1.3489,,,,,,,,,,,,,,,,,,,,,,61036bc11cbe328e09cf25d3,61036e3ce86cce9c8acb7dec,2021-07-29_22h13.32.181,Simcolourproject_2stim_asymm_v5,2020.2.10,Win32,60,61025ae37ef11b136ea224fe,,,,,,,,,1586,28.00001991,-100.0000137,1,0,0,response3disk,,4,-1.999980986,7.333322823,1,0,0,rectangle,-1.999980986,7.333322823,1,0,0,-1.999980986,7.333322823,1,0,0,0,20,20,35,1,,,,,,,,
,,,,,,,,,,,,,FF,,,,,,,,2.0668,,,,,,,,,,,,,,,,,,,,,,61036bc11cbe328e09cf25d3,61036e3ce86cce9c8acb7dec,2021-07-29_22h13.32.181,Simcolourproject_2stim_asymm_v5,2020.2.10,Win32,60,61025ae37ef11b136ea224fe,,,,,,,,,3898,20.66668636,-101.3333471,1,0,0,response3disk,,4,-13.33331466,-1.333344102,1,0,0,rectangle,-13.33331466,-1.333344102,1,0,0,-13.33331466,-1.333344102,1,0,0,0,21,21,12,1,,,,,,,,
,,,,,,,,,,,,,FF,,,,,,,,1.2333,,,,,,,,,,,,,,,,,,,,,,61036bc11cbe328e09cf25d3,61036e3ce86cce9c8acb7dec,2021-07-29_22h13.32.181,Simcolourproject_2stim_asymm_v5,2020.2.10,Win32,60,61025ae37ef11b136ea224fe,,,,,,,,,2992,30.00001997,94.66665876,1,0,0,response1disk,,7,-10.66660722,-6.000010908,1,0,0,rectangle,-10.66660722,-6.000010908,1,0,0,-10.66660722,-6.000010908,1,0,0,0,22,22,145,1,,,,,,,,
,,,,,,,,,,,,,FF,,,,,,,,1.7831,,,,,,,,,,,,,,,,,,,,,,61036bc11cbe328e09cf25d3,61036e3ce86cce9c8acb7dec,2021-07-29_22h13.32.181,Simcolourproject_2stim_asymm_v5,2020.2.10,Win32,60,61025ae37ef11b136ea224fe,,,,,,,,,2884,-88.66660955,-41.33334529,1,0,0,response5disk,,2,14.66668618,1.999989331,1,0,0,rectangle,14.66668618,1.999989331,1,0,0,14.66668618,1.999989331,1,0,0,0,23,23,33,1,,,,,,,,
,,,,,,,,,,,,,FF,,,,,,,,0.9835,,,,,,,,,,,,,,,,,,,,,,61036bc11cbe328e09cf25d3,61036e3ce86cce9c8acb7dec,2021-07-29_22h13.32.181,Simcolourproject_2stim_asymm_v5,2020.2.10,Win32,60,61025ae37ef11b136ea224fe,,,,,,,,,3416,36.00002015,90.66665864,1,0,0,response1disk,,7,-14.66660734,-13.33334446,1,0,0,rectangle,-14.66660734,-13.33334446,1,0,0,-14.66660734,-13.33334446,1,0,0,0,24,24,91,1,,,,,,,,
,,,,,,,,,,,,,FF,,,,,,,,1.2335,,,,,,,,,,,,,,,,,,,,,,61036bc11cbe328e09cf25d3,61036e3ce86cce9c8acb7dec,2021-07-29_22h13.32.181,Simcolourproject_2stim_asymm_v5,2020.2.10,Win32,60,61025ae37ef11b136ea224fe,,,,,,,,,3252,-54.66660853,-82.66667986,1,0,0,response5disk,,3,1.9735E-05,-5.333344221,1,0,0,rectangle,35.33339415,67.33330427,1,0,0,1.333393137,1.333322644,1,0,0,0,25,25,1,1,,response1disk_3,TRUE,7,7,"[7,182,70,133,281,305,115,221,221,127,145,152,26,294,252,20,176,74,115,242]",1.9998,rectangle
,,,,,,,,,,,,,FF,,,,,,,,2.0497,,,,,,,,,,,,,,,,,,,,,,61036bc11cbe328e09cf25d3,61036e3ce86cce9c8acb7dec,2021-07-29_22h13.32.181,Simcolourproject_2stim_asymm_v5,2020.2.10,Win32,60,61025ae37ef11b136ea224fe,,,,,,,,,2723,-27.33331507,-72.66667956,1,0,0,response5disk,,3,13.33339349,1.333322644,1,0,0,rectangle,13.33339349,1.333322644,1,0,0,13.33339349,1.333322644,1,0,0,0,26,26,61,1,,,,,,,,
,,,,,,,,,,,,,FF,,,,,,,,1.1339,,,,,,,,,,,,,,,,,,,,,,61036bc11cbe328e09cf25d3,61036e3ce86cce9c8acb7dec,2021-07-29_22h13.32.181,Simcolourproject_2stim_asymm_v5,2020.2.10,Win32,60,61025ae37ef11b136ea224fe,,,,,,,,,3581,34.66668701,78,1,0,0,response1disk,,7,3.333374023,-6,1,0,0,rectangle,3.333374023,-6,1,0,0,3.333374023,-6,1,0,0,0,27,27,58,1,,,,,,,,
,,,,,,,,,,,,,FF,,,,,,,,6.4825,,,,,,,,,,,,,,,,,,,,,,61036bc11cbe328e09cf25d3,61036e3ce86cce9c8acb7dec,2021-07-29_22h13.32.181,Simcolourproject_2stim_asymm_v5,2020.2.10,Win32,60,61025ae37ef11b136ea224fe,,,,,,,,,1302,-42.66662598,-80,1,0,0,response5disk,,3,14.66668701,8,1,0,0,rectangle,14.66668701,8,1,0,0,14.66668701,8,1,0,0,0,28,28,142,1,,,,,,,,
,,,,,,,,,,,,,FF,,,,,,,,0.8332,,,,,,,,,,,,,,,,,,,,,,61036bc11cbe328e09cf25d3,61036e3ce86cce9c8acb7dec,2021-07-29_22h13.32.181,Simcolourproject_2stim_asymm_v5,2020.2.10,Win32,60,61025ae37ef11b136ea224fe,,,,,,,,,3924,-40.66662598,-82,1,0,0,response5disk,,3,6.666687012,-6.666687012,1,0,0,rectangle,6.666687012,-6.666687012,1,0,0,6.666687012,-6.666687012,1,0,0,0,29,29,141,1,,,,,,,,
,,,,,,,,,,,,,FF,,,,,,,,1.2841,,,,,,,,,,,,,,,,,,,,,,61036bc11cbe328e09cf25d3,61036e3ce86cce9c8acb7dec,2021-07-29_22h13.32.181,Simcolourproject_2stim_asymm_v5,2020.2.10,Win32,60,61025ae37ef11b136ea224fe,,,,,,,,,3321,50,96.66665649,1,0,0,response1disk,,7,-6.666625977,-4,1,0,0,rectangle,-6.666625977,-4,1,0,0,-6.666625977,-4,1,0,0,0,30,30,86,1,,,,,,,,
,,,,,,,,,,,,,FF,,,,,,,,1.1173,,,,,,,,,,,,,,,,,,,,,,61036bc11cbe328e09cf25d3,61036e3ce86cce9c8acb7dec,2021-07-29_22h13.32.181,Simcolourproject_2stim_asymm_v5,2020.2.10,Win32,60,61025ae37ef11b136ea224fe,,,,,,,,,3846,-63.33331299,31.33331299,1,0,0,response7disk,,1,2.666687012,-9.333343506,1,0,0,rectangle,2.666687012,-9.333343506,1,0,0,2.666687012,-9.333343506,1,0,0,0,31,31,84,1,,,,,,,,
,,,,,,,,,,,,,FF,,,,,,,,0.8503,,,,,,,,,,,,,,,,,,,,,,61036bc11cbe328e09cf25d3,61036e3ce86cce9c8acb7dec,2021-07-29_22h13.32.181,Simcolourproject_2stim_asymm_v5,2020.2.10,Win32,60,61025ae37ef11b136ea224fe,,,,,,,,,600,44.66668701,83.33331299,1,0,0,response1disk,,7,0,0,1,0,0,rectangle,0,0,1,0,0,0,0,1,0,0,0,32,32,103,1,,,,,,,,
,,,,,,,,,,,,,FF,,,,,,,,0.6499,,,,,,,,,,,,,,,,,,,,,,61036bc11cbe328e09cf25d3,61036e3ce86cce9c8acb7dec,2021-07-29_22h13.32.181,Simcolourproject_2stim_asymm_v5,2020.2.10,Win32,60,61025ae37ef11b136ea224fe,,,,,,,,,1854,44.66668701,90.66665649,1,0,0,response1disk,,7,-2.666625977,3.333312988,1,0,0,rectangle,-2.666625977,3.333312988,1,0,0,-2.666625977,3.333312988,1,0,0,0,33,33,95,1,,,,,,,,
,,,,,,,,,,,,,FF,,,,,,,,0.5996,,,,,,,,,,,,,,,,,,,,,,61036bc11cbe328e09cf25d3,61036e3ce86cce9c8acb7dec,2021-07-29_22h13.32.181,Simcolourproject_2stim_asymm_v5,2020.2.10,Win32,60,61025ae37ef11b136ea224fe,,,,,,,,,1097,37.33337402,89.33331299,1,0,0,response1disk,,7,5.333374023,-5.333343506,1,0,0,rectangle,5.333374023,-5.333343506,1,0,0,5.333374023,-5.333343506,1,0,0,0,34,34,115,1,,,,,,,,
,,,,,,,,,,,,,FF,,,,,,,,0.567,,,,,,,,,,,,,,,,,,,,,,61036bc11cbe328e09cf25d3,61036e3ce86cce9c8acb7dec,2021-07-29_22h13.32.181,Simcolourproject_2stim_asymm_v5,2020.2.10,Win32,60,61025ae37ef11b136ea224fe,,,,,,,,,1023,30.66668701,86.66665649,1,0,0,response1disk,,7,-7.333312988,5.333312988,1,0,0,rectangle,-7.333312988,5.333312988,1,0,0,-7.333312988,5.333312988,1,0,0,0,35,35,29,1,,,,,,,,
,,,,,,,,,,,,,FF,,,,,,,,0.8168,,,,,,,,,,,,,,,,,,,,,,61036bc11cbe328e09cf25d3,61036e3ce86cce9c8acb7dec,2021-07-29_22h13.32.181,Simcolourproject_2stim_asymm_v5,2020.2.10,Win32,60,61025ae37ef11b136ea224fe,,,,,,,,,2813,82,34.66665649,1,0,0,response1disk,,6,8.666687012,-5.333343506,1,0,0,rectangle,8.666687012,-5.333343506,1,0,0,8.666687012,-5.333343506,1,0,0,0,36,36,51,1,,,,,,,,
,,,,,,,,,,,,,FF,,,,,,,,0.7167,,,,,,,,,,,,,,,,,,,,,,61036bc11cbe328e09cf25d3,61036e3ce86cce9c8acb7dec,2021-07-29_22h13.32.181,Simcolourproject_2stim_asymm_v5,2020.2.10,Win32,60,61025ae37ef11b136ea224fe,,,,,,,,,2600,41.33337402,87.33331299,1,0,0,response1disk,,7,-4.666625977,-3.333343506,1,0,0,rectangle,-4.666625977,-3.333343506,1,0,0,-4.666625977,-3.333343506,1,0,0,0,37,37,98,1,,,,,,,,
,,,,,,,,,,,,,FF,,,,,,,,1.3489,,,,,,,,,,,,,,,,,,,,,,61036bc11cbe328e09cf25d3,61036e3ce86cce9c8acb7dec,2021-07-29_22h13.32.181,Simcolourproject_2stim_asymm_v5,2020.2.10,Win32,60,61025ae37ef11b136ea224fe,,,,,,,,,3193,55.33337402,-92.66668701,1,0,0,response3disk,,4,1.333374023,-6,1,0,0,rectangle,1.333374023,-6,1,0,0,1.333374023,-6,1,0,0,0,38,38,94,1,,,,,,,,
,,,,,,,,,,,,,FF,,,,,,,,1.717,,,,,,,,,,,,,,,,,,,,,,61036bc11cbe328e09cf25d3,61036e3ce86cce9c8acb7dec,2021-07-29_22h13.32.181,Simcolourproject_2stim_asymm_v5,2020.2.10,Win32,60,61025ae37ef11b136ea224fe,,,,,,,,,2295,46,-92.66668701,1,0,0,response3disk,,4,-5.333312988,3.333312988,1,0,0,rectangle,-5.333312988,3.333312988,1,0,0,-5.333312988,3.333312988,1,0,0,0,39,39,101,1,,,,,,,,
,,,,,,,,,,,,,FF,,,,,,,,2.2992,,,,,,,,,,,,,,,,,,,,,,61036bc11cbe328e09cf25d3,61036e3ce86cce9c8acb7dec,2021-07-29_22h13.32.181,Simcolourproject_2stim_asymm_v5,2020.2.10,Win32,60,61025ae37ef11b136ea224fe,,,,,,,,,367,-36,-81.33334351,1,0,0,response5disk,,3,-5.333312988,-12,1,0,0,rectangle,-5.333312988,-12,1,0,0,-5.333312988,-12,1,0,0,0,40,40,100,1,,,,,,,,
,,,,,,,,,,,,,FF,,,,,,,,1.4838,,,,,,,,,,,,,,,,,,,,,,61036bc11cbe328e09cf25d3,61036e3ce86cce9c8acb7dec,2021-07-29_22h13.32.181,Simcolourproject_2stim_asymm_v5,2020.2.10,Win32,60,61025ae37ef11b136ea224fe,,,,,,,,,1254,90,44,1,0,0,response1disk,,6,3.333374023,-6.666687012,1,0,0,rectangle,3.333374023,-6.666687012,1,0,0,3.333374023,-6.666687012,1,0,0,0,41,41,97,1,,,,,,,,
,,,,,,,,,,,,,FF,,,,,,,,0.7328,,,,,,,,,,,,,,,,,,,,,,61036bc11cbe328e09cf25d3,61036e3ce86cce9c8acb7dec,2021-07-29_22h13.32.181,Simcolourproject_2stim_asymm_v5,2020.2.10,Win32,60,61025ae37ef11b136ea224fe,,,,,,,,,1489,46.66668701,109.3333282,1,0,0,response1disk,,7,0,7.333312988,1,0,0,rectangle,0,7.333312988,1,0,0,0,7.333312988,1,0,0,0,42,42,5,1,,,,,,,,
,,,,,,,,,,,,,FF,,,,,,,,1.3825,,,,,,,,,,,,,,,,,,,,,,61036bc11cbe328e09cf25d3,61036e3ce86cce9c8acb7dec,2021-07-29_22h13.32.181,Simcolourproject_2stim_asymm_v5,2020.2.10,Win32,60,61025ae37ef11b136ea224fe,,,,,,,,,2238,38,-82.66668701,1,0,0,response3disk,,4,16,-0.666687012,1,0,0,rectangle,16,-0.666687012,1,0,0,16,-0.666687012,1,0,0,0,43,43,113,1,,,,,,,,
,,,,,,,,,,,,,FF,,,,,,,,1.0659,,,,,,,,,,,,,,,,,,,,,,61036bc11cbe328e09cf25d3,61036e3ce86cce9c8acb7dec,2021-07-29_22h13.32.181,Simcolourproject_2stim_asymm_v5,2020.2.10,Win32,60,61025ae37ef11b136ea224fe,,,,,,,,,3771,38.66668701,-72.66668701,1,0,0,response3disk,,4,9.333374023,-4,1,0,0,rectangle,9.333374023,-4,1,0,0,9.333374023,-4,1,0,0,0,44,44,2,1,,,,,,,,
,,,,,,,,,,,,,FF,,,,,,,,0.8834,,,,,,,,,,,,,,,,,,,,,,61036bc11cbe328e09cf25d3,61036e3ce86cce9c8acb7dec,2021-07-29_22h13.32.181,Simcolourproject_2stim_asymm_v5,2020.2.10,Win32,60,61025ae37ef11b136ea224fe,,,,,,,,,4315,44.66668701,92.66665649,1,0,0,response1disk,,7,2,-8,1,0,0,rectangle,2,-8,1,0,0,2,-8,1,0,0,0,45,45,88,1,,,,,,,,
,,,,,,,,,,,,,FF,,,,,,,,1.3327,,,,,,,,,,,,,,,,,,,,,,61036bc11cbe328e09cf25d3,61036e3ce86cce9c8acb7dec,2021-07-29_22h13.32.181,Simcolourproject_2stim_asymm_v5,2020.2.10,Win32,60,61025ae37ef11b136ea224fe,,,,,,,,,3418,80.66668701,44.66665649,1,0,0,response1disk,,6,12,-4,1,0,0,rectangle,12,-4,1,0,0,12,-4,1,0,0,0,46,46,62,1,,,,,,,,
,,,,,,,,,,,,,FF,,,,,,,,0.499,,,,,,,,,,,,,,,,,,,,,,61036bc11cbe328e09cf25d3,61036e3ce86cce9c8acb7dec,2021-07-29_22h13.32.181,Simcolourproject_2stim_asymm_v5,2020.2.10,Win32,60,61025ae37ef11b136ea224fe,,,,,,,,,2982,38.66668701,76,1,0,0,response1disk,,7,-3.333312988,8.666656494,1,0,0,rectangle,-3.333312988,8.666656494,1,0,0,-3.333312988,8.666656494,1,0,0,0,47,47,72,1,,,,,,,,
,,,,,,,,,,,,,FF,,,,,,,,0.8035,,,,,,,,,,,,,,,,,,,,,,61036bc11cbe328e09cf25d3,61036e3ce86cce9c8acb7dec,2021-07-29_22h13.32.181,Simcolourproject_2stim_asymm_v5,2020.2.10,Win32,60,61025ae37ef11b136ea224fe,,,,,,,,,2458,48,86,1,0,0,response1disk,,7,10.66668701,9.333312988,1,0,0,rectangle,10.66668701,9.333312988,1,0,0,10.66668701,9.333312988,1,0,0,0,48,48,14,1,,,,,,,,
,,,,,,,,,,,,,FF,,,,,,,,12.1665,,,,,,,,,,,,,,,,,,,,,,61036bc11cbe328e09cf25d3,61036e3ce86cce9c8acb7dec,2021-07-29_22h13.32.181,Simcolourproject_2stim_asymm_v5,2020.2.10,Win32,60,61025ae37ef11b136ea224fe,,,,,,,,,3489,68.0000211,43.99999058,1,0,0,response1disk,,6,-0.666606923,2.666656017,1,0,0,rectangle,-0.666606923,2.666656017,1,0,0,-0.666606923,2.666656017,1,0,0,0,49,49,79,1,,,,,,,,
,,,,,,,,,,,,,FF,,,,,,,,1.4664,,,,,,,,,,,,,,,,,,,,,,61036bc11cbe328e09cf25d3,61036e3ce86cce9c8acb7dec,2021-07-29_22h13.32.181,Simcolourproject_2stim_asymm_v5,2020.2.10,Win32,60,61025ae37ef11b136ea224fe,,,,,,,,,2417,-28.66660776,-81.33334649,1,0,0,response5disk,,3,-4.666607042,3.99998939,1,0,0,rectangle,-4.666607042,3.99998939,1,0,0,-4.666607042,3.99998939,1,0,0,0,50,50,108,1,,,,,,,,
,,,,,,,,,,,,,FF,,,,,,,,1.2999,,,,,,,,,,,,,,,,,,,,,,61036bc11cbe328e09cf25d3,61036e3ce86cce9c8acb7dec,2021-07-29_22h13.32.181,Simcolourproject_2stim_asymm_v5,2020.2.10,Win32,60,61025ae37ef11b136ea224fe,,,,,,,,,116,48.66668719,84.66665846,1,0,0,response1disk,,7,-12.66660728,13.99998969,1,0,0,rectangle,-12.66660728,13.99998969,1,0,0,-12.66660728,13.99998969,1,0,0,0,51,51,17,1,,,,,,,,
,,,,,,,,,,,,,FF,,,,,,,,0.7497,,,,,,,,,,,,,,,,,,,,,,61036bc11cbe328e09cf25d3,61036e3ce86cce9c8acb7dec,2021-07-29_22h13.32.181,Simcolourproject_2stim_asymm_v5,2020.2.10,Win32,60,61025ae37ef11b136ea224fe,,,,,,,,,1028,24.66668701,101.333313,1,0,0,response1disk,,7,4,11.33331299,1,0,0,rectangle,4,11.33331299,1,0,0,4,11.33331299,1,0,0,0,52,52,123,1,,,,,,,,
,,,,,,,,,,,,,FF,,,,,,,,0.5499,,,,,,,,,,,,,,,,,,,,,,61036bc11cbe328e09cf25d3,61036e3ce86cce9c8acb7dec,2021-07-29_22h13.32.181,Simcolourproject_2stim_asymm_v5,2020.2.10,Win32,60,61025ae37ef11b136ea224fe,,,,,,,,,2278,33.33337402,89.33331299,1,0,0,response1disk,,7,3.333374023,-6.666687012,1,0,0,rectangle,3.333374023,-6.666687012,1,0,0,3.333374023,-6.666687012,1,0,0,0,53,53,118,1,,,,,,,,
,,,,,,,,,,,,,FF,,,,,,,,0.866,,,,,,,,,,,,,,,,,,,,,,61036bc11cbe328e09cf25d3,61036e3ce86cce9c8acb7dec,2021-07-29_22h13.32.181,Simcolourproject_2stim_asymm_v5,2020.2.10,Win32,60,61025ae37ef11b136ea224fe,,,,,,,,,3070,82,-54.66668701,1,0,0,response3disk,,5,-4,12.66665649,1,0,0,rectangle,-4,12.66665649,1,0,0,-4,12.66665649,1,0,0,0,54,54,60,1,,,,,,,,
,,,,,,,,,,,,,FF,,,,,,,,1,,,,,,,,,,,,,,,,,,,,,,61036bc11cbe328e09cf25d3,61036e3ce86cce9c8acb7dec,2021-07-29_22h13.32.181,Simcolourproject_2stim_asymm_v5,2020.2.10,Win32,60,61025ae37ef11b136ea224fe,,,,,,,,,2837,-35.33331299,-86.66668701,1,0,0,response5disk,,3,8,-6.666687012,1,0,0,rectangle,8,-6.666687012,1,0,0,8,-6.666687012,1,0,0,0,55,55,127,1,,,,,,,,
,,,,,,,,,,,,,FF,,,,,,,,0.9831,,,,,,,,,,,,,,,,,,,,,,61036bc11cbe328e09cf25d3,61036e3ce86cce9c8acb7dec,2021-07-29_22h13.32.181,Simcolourproject_2stim_asymm_v5,2020.2.10,Win32,60,61025ae37ef11b136ea224fe,,,,,,,,,272,87.33337402,-38.66668701,1,0,0,response3disk,,5,-8,2.666656494,1,0,0,rectangle,-8,2.666656494,1,0,0,-8,2.666656494,1,0,0,0,56,56,150,1,,,,,,,,
,,,,,,,,,,,,,FF,,,,,,,,0.9332,,,,,,,,,,,,,,,,,,,,,,61036bc11cbe328e09cf25d3,61036e3ce86cce9c8acb7dec,2021-07-29_22h13.32.181,Simcolourproject_2stim_asymm_v5,2020.2.10,Win32,60,61025ae37ef11b136ea224fe,,,,,,,,,2845,38,-88,1,0,0,response3disk,,4,-2,4,1,0,0,rectangle,-2,4,1,0,0,-2,4,1,0,0,0,57,57,34,1,,,,,,,,
,,,,,,,,,,,,,FF,,,,,,,,0.5654,,,,,,,,,,,,,,,,,,,,,,61036bc11cbe328e09cf25d3,61036e3ce86cce9c8acb7dec,2021-07-29_22h13.32.181,Simcolourproject_2stim_asymm_v5,2020.2.10,Win32,60,61025ae37ef11b136ea224fe,,,,,,,,,1111,36.66668701,87.33331299,1,0,0,response1disk,,7,4,8.666656494,1,0,0,rectangle,4,8.666656494,1,0,0,4,8.666656494,1,0,0,0,58,58,116,1,,,,,,,,
,,,,,,,,,,,,,FF,,,,,,,,0.7992,,,,,,,,,,,,,,,,,,,,,,61036bc11cbe328e09cf25d3,61036e3ce86cce9c8acb7dec,2021-07-29_22h13.32.181,Simcolourproject_2stim_asymm_v5,2020.2.10,Win32,60,61025ae37ef11b136ea224fe,,,,,,,,,2167,-41.33331299,72.66665649,1,0,0,response7disk,,0,13.33337402,-6.666687012,1,0,0,rectangle,13.33337402,-6.666687012,1,0,0,13.33337402,-6.666687012,1,0,0,0,59,59,105,1,,,,,,,,
,,,,,,,,,,,,,FF,,,,,,,,0.8973,,,,,,,,,,,,,,,,,,,,,,61036bc11cbe328e09cf25d3,61036e3ce86cce9c8acb7dec,2021-07-29_22h13.32.181,Simcolourproject_2stim_asymm_v5,2020.2.10,Win32,60,61025ae37ef11b136ea224fe,,,,,,,,,2144,44.66668701,91.33331299,1,0,0,response1disk,,7,0,0.666656494,1,0,0,rectangle,0,0.666656494,1,0,0,0,0.666656494,1,0,0,0,60,60,83,1,,,,,,,,
,,,,,,,,,,,,,FF,,,,,,,,0.9511,,,,,,,,,,,,,,,,,,,,,,61036bc11cbe328e09cf25d3,61036e3ce86cce9c8acb7dec,2021-07-29_22h13.32.181,Simcolourproject_2stim_asymm_v5,2020.2.10,Win32,60,61025ae37ef11b136ea224fe,,,,,,,,,447,89.33337402,-27.33334351,1,0,0,response3disk,,5,-1.333312988,-2.666687012,1,0,0,rectangle,-1.333312988,-2.666687012,1,0,0,-1.333312988,-2.666687012,1,0,0,0,61,61,85,1,,,,,,,,
,,,,,,,,,,,,,FF,,,,,,,,0.9004,,,,,,,,,,,,,,,,,,,,,,61036bc11cbe328e09cf25d3,61036e3ce86cce9c8acb7dec,2021-07-29_22h13.32.181,Simcolourproject_2stim_asymm_v5,2020.2.10,Win32,60,61025ae37ef11b136ea224fe,,,,,,,,,3970,-40.66662598,-88,1,0,0,response5disk,,3,4.666687012,4,1,0,0,rectangle,4.666687012,4,1,0,0,4.666687012,4,1,0,0,0,62,62,149,1,,,,,,,,
,,,,,,,,,,,,,FF,,,,,,,,1.3836,,,,,,,,,,,,,,,,,,,,,,61036bc11cbe328e09cf25d3,61036e3ce86cce9c8acb7dec,2021-07-29_22h13.32.181,Simcolourproject_2stim_asymm_v5,2020.2.10,Win32,60,61025ae37ef11b136ea224fe,,,,,,,,,424,50,-93.33334351,1,0,0,response3disk,,4,2,-5.333343506,1,0,0,rectangle,2,-5.333343506,1,0,0,2,-5.333343506,1,0,0,0,63,63,121,1,,,,,,,,
,,,,,,,,,,,,,FF,,,,,,,,1.6672,,,,,,,,,,,,,,,,,,,,,,61036bc11cbe328e09cf25d3,61036e3ce86cce9c8acb7dec,2021-07-29_22h13.32.181,Simcolourproject_2stim_asymm_v5,2020.2.10,Win32,60,61025ae37ef11b136ea224fe,,,,,,,,,3178,90,40,1,0,0,response1disk,,6,10.66668701,8,1,0,0,rectangle,10.66668701,8,1,0,0,10.66668701,8,1,0,0,0,64,64,40,1,,,,,,,,
,,,,,,,,,,,,,FF,,,,,,,,0.783,,,,,,,,,,,,,,,,,,,,,,61036bc11cbe328e09cf25d3,61036e3ce86cce9c8acb7dec,2021-07-29_22h13.32.181,Simcolourproject_2stim_asymm_v5,2020.2.10,Win32,60,61025ae37ef11b136ea224fe,,,,,,,,,1679,84,46,1,0,0,response1disk,,6,-6,11.33331299,1,0,0,rectangle,-6,11.33331299,1,0,0,-6,11.33331299,1,0,0,0,65,65,143,1,,,,,,,,
,,,,,,,,,,,,,FF,,,,,,,,0.7838,,,,,,,,,,,,,,,,,,,,,,61036bc11cbe328e09cf25d3,61036e3ce86cce9c8acb7dec,2021-07-29_22h13.32.181,Simcolourproject_2stim_asymm_v5,2020.2.10,Win32,60,61025ae37ef11b136ea224fe,,,,,,,,,212,38,78,1,0,0,response1disk,,7,5.333374023,0.666656494,1,0,0,rectangle,5.333374023,0.666656494,1,0,0,5.333374023,0.666656494,1,0,0,0,66,66,66,1,,,,,,,,
,,,,,,,,,,,,,FF,,,,,,,,1.1825,,,,,,,,,,,,,,,,,,,,,,61036bc11cbe328e09cf25d3,61036e3ce86cce9c8acb7dec,2021-07-29_22h13.32.181,Simcolourproject_2stim_asymm_v5,2020.2.10,Win32,60,61025ae37ef11b136ea224fe,,,,,,,,,1564,76.66668701,-35.33334351,1,0,0,response3disk,,5,-5.333312988,8.666656494,1,0,0,rectangle,-5.333312988,8.666656494,1,0,0,-5.333312988,8.666656494,1,0,0,0,67,67,154,1,,,,,,,,
,,,,,,,,,,,,,FF,,,,,,,,0.7486,,,,,,,,,,,,,,,,,,,,,,61036bc11cbe328e09cf25d3,61036e3ce86cce9c8acb7dec,2021-07-29_22h13.32.181,Simcolourproject_2stim_asymm_v5,2020.2.10,Win32,60,61025ae37ef11b136ea224fe,,,,,,,,,2795,72,-38,1,0,0,response3disk,,5,0,6.666656494,1,0,0,rectangle,0,6.666656494,1,0,0,0,6.666656494,1,0,0,0,68,68,3,1,,,,,,,,
,,,,,,,,,,,,,FF,,,,,,,,1.5501,,,,,,,,,,,,,,,,,,,,,,61036bc11cbe328e09cf25d3,61036e3ce86cce9c8acb7dec,2021-07-29_22h13.32.181,Simcolourproject_2stim_asymm_v5,2020.2.10,Win32,60,61025ae37ef11b136ea224fe,,,,,,,,,731,73.33337402,-40,1,0,0,response3disk,,5,10,7.333312988,1,0,0,rectangle,-33.33331299,80,1,0,0,5.333374023,4.666656494,1,0,0,0,69,69,57,1,,response7disk_3,TRUE,0,0,"[7,182,70,133,281,305,115,221,221,127,145,152,26,294,252,20,176,74,115,242]",1.4832,rectangle
,,,,,,,,,,,,,FF,,,,,,,,1.3495,,,,,,,,,,,,,,,,,,,,,,61036bc11cbe328e09cf25d3,61036e3ce86cce9c8acb7dec,2021-07-29_22h13.32.181,Simcolourproject_2stim_asymm_v5,2020.2.10,Win32,60,61025ae37ef11b136ea224fe,,,,,,,,,2706,73.33337402,36,1,0,0,response1disk,,6,0.666687012,-0.666687012,1,0,0,rectangle,0.666687012,-0.666687012,1,0,0,0.666687012,-0.666687012,1,0,0,0,70,70,155,1,,,,,,,,
,,,,,,,,,,,,,FF,,,,,,,,0.899,,,,,,,,,,,,,,,,,,,,,,61036bc11cbe328e09cf25d3,61036e3ce86cce9c8acb7dec,2021-07-29_22h13.32.181,Simcolourproject_2stim_asymm_v5,2020.2.10,Win32,60,61025ae37ef11b136ea224fe,,,,,,,,,3994,-32,-85.33334351,1,0,0,response5disk,,3,17.33337402,4,1,0,0,rectangle,17.33337402,4,1,0,0,17.33337402,4,1,0,0,0,71,71,15,1,,,,,,,,
,,,,,,,,,,,,,FF,,,,,,,,0.999,,,,,,,,,,,,,,,,,,,,,,61036bc11cbe328e09cf25d3,61036e3ce86cce9c8acb7dec,2021-07-29_22h13.32.181,Simcolourproject_2stim_asymm_v5,2020.2.10,Win32,60,61025ae37ef11b136ea224fe,,,,,,,,,2768,52.66668701,-91.33334351,1,0,0,response3disk,,4,2.666687012,3.333312988,1,0,0,rectangle,2.666687012,3.333312988,1,0,0,2.666687012,3.333312988,1,0,0,0,72,72,68,1,,,,,,,,
,,,,,,,,,,,,,FF,,,,,,,,3.0161,,,,,,,,,,,,,,,,,,,,,,61036bc11cbe328e09cf25d3,61036e3ce86cce9c8acb7dec,2021-07-29_22h13.32.181,Simcolourproject_2stim_asymm_v5,2020.2.10,Win32,60,61025ae37ef11b136ea224fe,,,,,,,,,2798,89.33337402,-31.33334351,1,0,0,response3disk,,5,8.666687012,9.333312988,1,0,0,rectangle,-38,-73.33334351,1,0,0,12.66668701,-1.333343506,1,0,0,0,73,73,104,1,,response5disk_3,TRUE,3,3,"[7,182,70,133,281,305,115,221,221,127,145,152,26,294,252,20,176,74,115,242]",1.8831,rectangle
,,,,,,,,,,,,,FF,,,,,,,,5.7823,,,,,,,,,,,,,,,,,,,,,,61036bc11cbe328e09cf25d3,61036e3ce86cce9c8acb7dec,2021-07-29_22h13.32.181,Simcolourproject_2stim_asymm_v5,2020.2.10,Win32,60,61025ae37ef11b136ea224fe,,,,,,,,,3500,53.33337402,88,1,0,0,response1disk,,7,14,6.666656494,1,0,0,rectangle,14,6.666656494,1,0,0,14,6.666656494,1,0,0,0,74,74,135,1,,,,,,,,
,,,,,,,,,,,,,FF,,,,,,,,0.8164,,,,,,,,,,,,,,,,,,,,,,61036bc11cbe328e09cf25d3,61036e3ce86cce9c8acb7dec,2021-07-29_22h13.32.181,Simcolourproject_2stim_asymm_v5,2020.2.10,Win32,60,61025ae37ef11b136ea224fe,,,,,,,,,998,84,42,1,0,0,response1disk,,6,8,7.333312988,1,0,0,rectangle,8,7.333312988,1,0,0,8,7.333312988,1,0,0,0,75,75,4,1,,,,,,,,
,,,,,,,,,,,,,FF,,,,,,,,0.95,,,,,,,,,,,,,,,,,,,,,,61036bc11cbe328e09cf25d3,61036e3ce86cce9c8acb7dec,2021-07-29_22h13.32.181,Simcolourproject_2stim_asymm_v5,2020.2.10,Win32,60,61025ae37ef11b136ea224fe,,,,,,,,,528,-35.33331299,-94,1,0,0,response5disk,,3,0,-7.333343506,1,0,0,rectangle,0,-7.333343506,1,0,0,0,-7.333343506,1,0,0,0,76,76,25,1,,,,,,,,
,,,,,,,,,,,,,FF,,,,,,,,0.7162,,,,,,,,,,,,,,,,,,,,,,61036bc11cbe328e09cf25d3,61036e3ce86cce9c8acb7dec,2021-07-29_22h13.32.181,Simcolourproject_2stim_asymm_v5,2020.2.10,Win32,60,61025ae37ef11b136ea224fe,,,,,,,,,401,80,-31.33334351,1,0,0,response3disk,,5,-5.333312988,5.333312988,1,0,0,rectangle,-5.333312988,5.333312988,1,0,0,-5.333312988,5.333312988,1,0,0,0,77,77,122,1,,,,,,,,
,,,,,,,,,,,,,FF,,,,,,,,1.3822,,,,,,,,,,,,,,,,,,,,,,61036bc11cbe328e09cf25d3,61036e3ce86cce9c8acb7dec,2021-07-29_22h13.32.181,Simcolourproject_2stim_asymm_v5,2020.2.10,Win32,60,61025ae37ef11b136ea224fe,,,,,,,,,2683,98,55.33331299,1,0,0,response1disk,,6,-2,8.666656494,1,0,0,rectangle,-2,8.666656494,1,0,0,-2,8.666656494,1,0,0,0,78,78,45,1,,,,,,,,
,,,,,,,,,,,,,FF,,,,,,,,0.8657,,,,,,,,,,,,,,,,,,,,,,61036bc11cbe328e09cf25d3,61036e3ce86cce9c8acb7dec,2021-07-29_22h13.32.181,Simcolourproject_2stim_asymm_v5,2020.2.10,Win32,60,61025ae37ef11b136ea224fe,,,,,,,,,2408,98.66668701,-28,1,0,0,response3disk,,5,-2,0.666656494,1,0,0,rectangle,-2,0.666656494,1,0,0,-2,0.666656494,1,0,0,0,79,79,75,1,,,,,,,,
,,,,,,,,,,,,,FF,,,,,,,,0.9662,,,,,,,,,,,,,,,,,,,,,,61036bc11cbe328e09cf25d3,61036e3ce86cce9c8acb7dec,2021-07-29_22h13.32.181,Simcolourproject_2stim_asymm_v5,2020.2.10,Win32,60,61025ae37ef11b136ea224fe,,,,,,,,,4282,-42.66662598,-77.33334351,1,0,0,response5disk,,3,2.666687012,0.666656494,1,0,0,rectangle,2.666687012,0.666656494,1,0,0,2.666687012,0.666656494,1,0,0,0,80,80,0,1,,,,,,,,
,,,,,,,,,,,,,FF,,,,,,,,0.9322,,,,,,,,,,,,,,,,,,,,,,61036bc11cbe328e09cf25d3,61036e3ce86cce9c8acb7dec,2021-07-29_22h13.32.181,Simcolourproject_2stim_asymm_v5,2020.2.10,Win32,60,61025ae37ef11b136ea224fe,,,,,,,,,3287,95.33337402,50,1,0,0,response1disk,,6,20,4,1,0,0,rectangle,20,4,1,0,0,20,4,1,0,0,0,81,81,144,1,,,,,,,,
,,,,,,,,,,,,,FF,,,,,,,,0.533,,,,,,,,,,,,,,,,,,,,,,61036bc11cbe328e09cf25d3,61036e3ce86cce9c8acb7dec,2021-07-29_22h13.32.181,Simcolourproject_2stim_asymm_v5,2020.2.10,Win32,60,61025ae37ef11b136ea224fe,,,,,,,,,1743,-33.33331299,83.33331299,1,0,0,response7disk,,0,0,3.333312988,1,0,0,rectangle,0,3.333312988,1,0,0,0,3.333312988,1,0,0,0,82,82,106,1,,,,,,,,
,,,,,,,,,,,,,FF,,,,,,,,1.0995,,,,,,,,,,,,,,,,,,,,,,61036bc11cbe328e09cf25d3,61036e3ce86cce9c8acb7dec,2021-07-29_22h13.32.181,Simcolourproject_2stim_asymm_v5,2020.2.10,Win32,60,61025ae37ef11b136ea224fe,,,,,,,,,812,83.33337402,-44,1,0,0,response3disk,,5,11.33337402,-2.666687012,1,0,0,rectangle,11.33337402,-2.666687012,1,0,0,11.33337402,-2.666687012,1,0,0,0,83,83,38,1,,,,,,,,
,,,,,,,,,,,,,FF,,,,,,,,0.566,,,,,,,,,,,,,,,,,,,,,,61036bc11cbe328e09cf25d3,61036e3ce86cce9c8acb7dec,2021-07-29_22h13.32.181,Simcolourproject_2stim_asymm_v5,2020.2.10,Win32,60,61025ae37ef11b136ea224fe,,,,,,,,,2956,36.66668701,86.66665649,1,0,0,response1disk,,7,4.666687012,8.666656494,1,0,0,rectangle,4.666687012,8.666656494,1,0,0,4.666687012,8.666656494,1,0,0,0,84,84,80,1,,,,,,,,
,,,,,,,,,,,,,FF,,,,,,,,1.1994,,,,,,,,,,,,,,,,,,,,,,61036bc11cbe328e09cf25d3,61036e3ce86cce9c8acb7dec,2021-07-29_22h13.32.181,Simcolourproject_2stim_asymm_v5,2020.2.10,Win32,60,61025ae37ef11b136ea224fe,,,,,,,,,4102,-76.66662598,-32.66668701,1,0,0,response5disk,,2,2,3.333312988,1,0,0,rectangle,2,3.333312988,1,0,0,2,3.333312988,1,0,0,0,85,85,120,1,,,,,,,,
,,,,,,,,,,,,,FF,,,,,,,,1.0339,,,,,,,,,,,,,,,,,,,,,,61036bc11cbe328e09cf25d3,61036e3ce86cce9c8acb7dec,2021-07-29_22h13.32.181,Simcolourproject_2stim_asymm_v5,2020.2.10,Win32,60,61025ae37ef11b136ea224fe,,,,,,,,,819,84.66668701,-42.66668701,1,0,0,response3disk,,5,3.333374023,8.666656494,1,0,0,rectangle,3.333374023,8.666656494,1,0,0,3.333374023,8.666656494,1,0,0,0,86,86,28,1,,,,,,,,
,,,,,,,,,,,,,FF,,,,,,,,22.3489,,,,,,,,,,,,,,,,,,,,,,61036bc11cbe328e09cf25d3,61036e3ce86cce9c8acb7dec,2021-07-29_22h13.32.181,Simcolourproject_2stim_asymm_v5,2020.2.10,Win32,60,61025ae37ef11b136ea224fe,,,,,,,,,2343,94,40.83331299,1,0,0,response1disk,,6,7.333374023,-1.166687012,1,0,0,rectangle,7.333374023,-1.166687012,1,0,0,7.333374023,-1.166687012,1,0,0,0,87,87,27,1,,,,,,,,
,,,,,,,,,,,,,FF,,,,,,,,0.8832,,,,,,,,,,,,,,,,,,,,,,61036bc11cbe328e09cf25d3,61036e3ce86cce9c8acb7dec,2021-07-29_22h13.32.181,Simcolourproject_2stim_asymm_v5,2020.2.10,Win32,60,61025ae37ef11b136ea224fe,,,,,,,,,2966,28.66668701,78.83331299,1,0,0,response1disk,,7,4.666687012,4.166656494,1,0,0,rectangle,4.666687012,4.166656494,1,0,0,4.666687012,4.166656494,1,0,0,0,88,88,59,1,,,,,,,,
,,,,,,,,,,,,,FF,,,,,,,,0.7831,,,,,,,,,,,,,,,,,,,,,,61036bc11cbe328e09cf25d3,61036e3ce86cce9c8acb7dec,2021-07-29_22h13.32.181,Simcolourproject_2stim_asymm_v5,2020.2.10,Win32,60,61025ae37ef11b136ea224fe,,,,,,,,,2644,22.66668701,76.16665649,1,0,0,response1disk,,7,-2,10.16665649,1,0,0,rectangle,-2,10.16665649,1,0,0,-2,10.16665649,1,0,0,0,89,89,132,1,,,,,,,,
,,,,,,,,,,,,,FF,,,,,,,,1.7166,,,,,,,,,,,,,,,,,,,,,,61036bc11cbe328e09cf25d3,61036e3ce86cce9c8acb7dec,2021-07-29_22h13.32.181,Simcolourproject_2stim_asymm_v5,2020.2.10,Win32,60,61025ae37ef11b136ea224fe,,,,,,,,,3145,92.66668701,38.16665649,1,0,0,response1disk,,6,5.333374023,-3.833343506,1,0,0,rectangle,5.333374023,-3.833343506,1,0,0,5.333374023,-3.833343506,1,0,0,0,90,90,22,1,,,,,,,,
,,,,,,,,,,,,,FF,,,,,,,,18.1155,,,,,,,,,,,,,,,,,,,,,,61036bc11cbe328e09cf25d3,61036e3ce86cce9c8acb7dec,2021-07-29_22h13.32.181,Simcolourproject_2stim_asymm_v5,2020.2.10,Win32,60,61025ae37ef11b136ea224fe,,,,,,,,,2506,84,33.5,1,0,0,response1disk,,6,8.666687012,-5.166687012,1,0,0,rectangle,8.666687012,-5.166687012,1,0,0,8.666687012,-5.166687012,1,0,0,0,91,91,20,1,,,,,,,,
,,,,,,,,,,,,,FF,,,,,,,,0.7668,,,,,,,,,,,,,,,,,,,,,,61036bc11cbe328e09cf25d3,61036e3ce86cce9c8acb7dec,2021-07-29_22h13.32.181,Simcolourproject_2stim_asymm_v5,2020.2.10,Win32,60,61025ae37ef11b136ea224fe,,,,,,,,,692,46.66668701,109.5,1,0,0,response1disk,,7,1.333374023,0.166656494,1,0,0,rectangle,1.333374023,0.166656494,1,0,0,1.333374023,0.166656494,1,0,0,0,92,92,7,1,,,,,,,,
,,,,,,,,,,,,,FF,,,,,,,,0.9166,,,,,,,,,,,,,,,,,,,,,,61036bc11cbe328e09cf25d3,61036e3ce86cce9c8acb7dec,2021-07-29_22h13.32.181,Simcolourproject_2stim_asymm_v5,2020.2.10,Win32,60,61025ae37ef11b136ea224fe,,,,,,,,,4113,34.66668701,98.83331299,1,0,0,response1disk,,7,-4,4.166656494,1,0,0,rectangle,-4,4.166656494,1,0,0,-4,4.166656494,1,0,0,0,93,93,54,1,,,,,,,,
,,,,,,,,,,,,,FF,,,,,,,,0.8663,,,,,,,,,,,,,,,,,,,,,,61036bc11cbe328e09cf25d3,61036e3ce86cce9c8acb7dec,2021-07-29_22h13.32.181,Simcolourproject_2stim_asymm_v5,2020.2.10,Win32,60,61025ae37ef11b136ea224fe,,,,,,,,,99,-30,-95.83334351,1,0,0,response5disk,,3,8,-0.5,1,0,0,rectangle,8,-0.5,1,0,0,8,-0.5,1,0,0,0,94,94,48,1,,,,,,,,
,,,,,,,,,,,,,FF,,,,,,,,1.0328,,,,,,,,,,,,,,,,,,,,,,61036bc11cbe328e09cf25d3,61036e3ce86cce9c8acb7dec,2021-07-29_22h13.32.181,Simcolourproject_2stim_asymm_v5,2020.2.10,Win32,60,61025ae37ef11b136ea224fe,,,,,,,,,1868,41.33337402,91.5,1,0,0,response1disk,,7,8,9.5,1,0,0,rectangle,8,9.5,1,0,0,8,9.5,1,0,0,0,95,95,23,1,,,,,,,,
,,,,,,,,,,,,,FF,,,,,,,,0.6002,,,,,,,,,,,,,,,,,,,,,,61036bc11cbe328e09cf25d3,61036e3ce86cce9c8acb7dec,2021-07-29_22h13.32.181,Simcolourproject_2stim_asymm_v5,2020.2.10,Win32,60,61025ae37ef11b136ea224fe,,,,,,,,,818,28.66668701,77.5,1,0,0,response1disk,,7,0.666687012,2.166656494,1,0,0,rectangle,0.666687012,2.166656494,1,0,0,0.666687012,2.166656494,1,0,0,0,96,96,128,1,,,,,,,,
,,,,,,,,,,,,,FF,,,,,,,,1.2834,,,,,,,,,,,,,,,,,,,,,,61036bc11cbe328e09cf25d3,61036e3ce86cce9c8acb7dec,2021-07-29_22h13.32.181,Simcolourproject_2stim_asymm_v5,2020.2.10,Win32,60,61025ae37ef11b136ea224fe,,,,,,,,,3275,32,78.83331299,1,0,0,response1disk,,7,12,2.833312988,1,0,0,rectangle,12,2.833312988,1,0,0,12,2.833312988,1,0,0,0,97,97,110,1,,,,,,,,
,,,,,,,,,,,,,FF,,,,,,,,1.9341,,,,,,,,,,,,,,,,,,,,,,61036bc11cbe328e09cf25d3,61036e3ce86cce9c8acb7dec,2021-07-29_22h13.32.181,Simcolourproject_2stim_asymm_v5,2020.2.10,Win32,60,61025ae37ef11b136ea224fe,,,,,,,,,3453,54.66668701,83.5,1,0,0,response1disk,,7,6.666687012,6.166656494,1,0,0,rectangle,6.666687012,6.166656494,1,0,0,6.666687012,6.166656494,1,0,0,0,98,98,112,1,,,,,,,,
,,,,,,,,,,,,,FF,,,,,,,,0.9862,,,,,,,,,,,,,,,,,,,,,,61036bc11cbe328e09cf25d3,61036e3ce86cce9c8acb7dec,2021-07-29_22h13.32.181,Simcolourproject_2stim_asymm_v5,2020.2.10,Win32,60,61025ae37ef11b136ea224fe,,,,,,,,,3338,42.66668701,-86.5,1,0,0,response3disk,,4,0,-6.5,1,0,0,rectangle,0,-6.5,1,0,0,0,-6.5,1,0,0,0,99,99,41,1,,,,,,,,
,,,,,,,,,,,,,FF,,,,,,,,1.3656,,,,,,,,,,,,,,,,,,,,,,61036bc11cbe328e09cf25d3,61036e3ce86cce9c8acb7dec,2021-07-29_22h13.32.181,Simcolourproject_2stim_asymm_v5,2020.2.10,Win32,60,61025ae37ef11b136ea224fe,,,,,,,,,1026,90.66668701,38.16665649,1,0,0,response1disk,,6,17.33337402,-1.833343506,1,0,0,rectangle,17.33337402,-1.833343506,1,0,0,17.33337402,-1.833343506,1,0,0,0,100,100,90,1,,,,,,,,
,,,,,,,,,,,,,FF,,,,,,,,1.4141,,,,,,,,,,,,,,,,,,,,,,61036bc11cbe328e09cf25d3,61036e3ce86cce9c8acb7dec,2021-07-29_22h13.32.181,Simcolourproject_2stim_asymm_v5,2020.2.10,Win32,60,61025ae37ef11b136ea224fe,,,,,,,,,3998,-36,-88.5,1,0,0,response5disk,,3,9.333374023,0.833312988,1,0,0,rectangle,9.333374023,0.833312988,1,0,0,9.333374023,0.833312988,1,0,0,0,101,101,11,1,,,,,,,,
,,,,,,,,,,,,,FF,,,,,,,,0.9823,,,,,,,,,,,,,,,,,,,,,,61036bc11cbe328e09cf25d3,61036e3ce86cce9c8acb7dec,2021-07-29_22h13.32.181,Simcolourproject_2stim_asymm_v5,2020.2.10,Win32,60,61025ae37ef11b136ea224fe,,,,,,,,,926,52,85.5,1,0,0,response1disk,,7,8.666687012,5.5,1,0,0,rectangle,8.666687012,5.5,1,0,0,8.666687012,5.5,1,0,0,0,102,102,99,1,,,,,,,,
,,,,,,,,,,,,,FF,,,,,,,,1.2677,,,,,,,,,,,,,,,,,,,,,,61036bc11cbe328e09cf25d3,61036e3ce86cce9c8acb7dec,2021-07-29_22h13.32.181,Simcolourproject_2stim_asymm_v5,2020.2.10,Win32,60,61025ae37ef11b136ea224fe,,,,,,,,,3049,-44,-89.16668701,1,0,0,response5disk,,3,11.33337402,3.5,1,0,0,rectangle,11.33337402,3.5,1,0,0,11.33337402,3.5,1,0,0,0,103,103,92,1,,,,,,,,
,,,,,,,,,,,,,FF,,,,,,,,3.7169,,,,,,,,,,,,,,,,,,,,,,61036bc11cbe328e09cf25d3,61036e3ce86cce9c8acb7dec,2021-07-29_22h13.32.181,Simcolourproject_2stim_asymm_v5,2020.2.10,Win32,60,61025ae37ef11b136ea224fe,,,,,,,,,3801,-36.66662598,68.16665649,1,0,0,response7disk,,0,22,-1.833343506,1,0,0,rectangle,22,-1.833343506,1,0,0,22,-1.833343506,1,0,0,0,104,104,32,1,,,,,,,,
,,,,,,,,,,,,,FF,,,,,,,,1.0167,,,,,,,,,,,,,,,,,,,,,,61036bc11cbe328e09cf25d3,61036e3ce86cce9c8acb7dec,2021-07-29_22h13.32.181,Simcolourproject_2stim_asymm_v5,2020.2.10,Win32,60,61025ae37ef11b136ea224fe,,,,,,,,,3812,-36.66662598,-79.16668701,1,0,0,response5disk,,3,21.33337402,6.166656494,1,0,0,rectangle,21.33337402,6.166656494,1,0,0,21.33337402,6.166656494,1,0,0,0,105,105,89,1,,,,,,,,
,,,,,,,,,,,,,FF,,,,,,,,1.1492,,,,,,,,,,,,,,,,,,,,,,61036bc11cbe328e09cf25d3,61036e3ce86cce9c8acb7dec,2021-07-29_22h13.32.181,Simcolourproject_2stim_asymm_v5,2020.2.10,Win32,60,61025ae37ef11b136ea224fe,,,,,,,,,75,52,-89.83334351,1,0,0,response3disk,,4,8,1.5,1,0,0,rectangle,8,1.5,1,0,0,8,1.5,1,0,0,0,106,106,67,1,,,,,,,,
,,,,,,,,,,,,,FF,,,,,,,,2.283,,,,,,,,,,,,,,,,,,,,,,61036bc11cbe328e09cf25d3,61036e3ce86cce9c8acb7dec,2021-07-29_22h13.32.181,Simcolourproject_2stim_asymm_v5,2020.2.10,Win32,60,61025ae37ef11b136ea224fe,,,,,,,,,448,52,-89.16668701,1,0,0,response3disk,,4,1.333374023,-8.5,1,0,0,rectangle,1.333374023,-8.5,1,0,0,1.333374023,-8.5,1,0,0,0,107,107,147,1,,,,,,,,
,,,,,,,,,,,,,FF,,,,,,,,1.2831,,,,,,,,,,,,,,,,,,,,,,61036bc11cbe328e09cf25d3,61036e3ce86cce9c8acb7dec,2021-07-29_22h13.32.181,Simcolourproject_2stim_asymm_v5,2020.2.10,Win32,60,61025ae37ef11b136ea224fe,,,,,,,,,1018,91.33337402,46.83331299,1,0,0,response1disk,,6,4,-3.833343506,1,0,0,rectangle,4,-3.833343506,1,0,0,4,-3.833343506,1,0,0,0,108,108,114,1,,,,,,,,
,,,,,,,,,,,,,FF,,,,,,,,0.834,,,,,,,,,,,,,,,,,,,,,,61036bc11cbe328e09cf25d3,61036e3ce86cce9c8acb7dec,2021-07-29_22h13.32.181,Simcolourproject_2stim_asymm_v5,2020.2.10,Win32,60,61025ae37ef11b136ea224fe,,,,,,,,,786,-38.66662598,-83.83334351,1,0,0,response5disk,,3,8,1.5,1,0,0,rectangle,8,1.5,1,0,0,8,1.5,1,0,0,0,109,109,81,1,,,,,,,,
,,,,,,,,,,,,,FF,,,,,,,,1.5163,,,,,,,,,,,,,,,,,,,,,,61036bc11cbe328e09cf25d3,61036e3ce86cce9c8acb7dec,2021-07-29_22h13.32.181,Simcolourproject_2stim_asymm_v5,2020.2.10,Win32,60,61025ae37ef11b136ea224fe,,,,,,,,,610,86.66668701,-42.5,1,0,0,response3disk,,5,4,6.833312988,1,0,0,rectangle,4,6.833312988,1,0,0,4,6.833312988,1,0,0,0,110,110,124,1,,,,,,,,
,,,,,,,,,,,,,FF,,,,,,,,0.6825,,,,,,,,,,,,,,,,,,,,,,61036bc11cbe328e09cf25d3,61036e3ce86cce9c8acb7dec,2021-07-29_22h13.32.181,Simcolourproject_2stim_asymm_v5,2020.2.10,Win32,60,61025ae37ef11b136ea224fe,,,,,,,,,1261,14,84.83331299,1,0,0,response1disk,,7,2,-1.166687012,1,0,0,rectangle,2,-1.166687012,1,0,0,2,-1.166687012,1,0,0,0,111,111,13,1,,,,,,,,
,,,,,,,,,,,,,FF,,,,,,,,1.416,,,,,,,,,,,,,,,,,,,,,,61036bc11cbe328e09cf25d3,61036e3ce86cce9c8acb7dec,2021-07-29_22h13.32.181,Simcolourproject_2stim_asymm_v5,2020.2.10,Win32,60,61025ae37ef11b136ea224fe,,,,,,,,,3147,88,40.16665649,1,0,0,response1disk,,6,26.66668701,7.5,1,0,0,rectangle,26.66668701,7.5,1,0,0,26.66668701,7.5,1,0,0,0,112,112,137,1,,,,,,,,
,,,,,,,,,,,,,FF,,,,,,,,1.0832,,,,,,,,,,,,,,,,,,,,,,61036bc11cbe328e09cf25d3,61036e3ce86cce9c8acb7dec,2021-07-29_22h13.32.181,Simcolourproject_2stim_asymm_v5,2020.2.10,Win32,60,61025ae37ef11b136ea224fe,,,,,,,,,3417,82,-47.16668701,1,0,0,response3disk,,5,2.666687012,3.5,1,0,0,rectangle,2.666687012,3.5,1,0,0,2.666687012,3.5,1,0,0,0,113,113,129,1,,,,,,,,
,,,,,,,,,,,,,FF,,,,,,,,0.7348,,,,,,,,,,,,,,,,,,,,,,61036bc11cbe328e09cf25d3,61036e3ce86cce9c8acb7dec,2021-07-29_22h13.32.181,Simcolourproject_2stim_asymm_v5,2020.2.10,Win32,60,61025ae37ef11b136ea224fe,,,,,,,,,1797,28.66668701,79.5,1,0,0,response1disk,,7,-2,6.833312988,1,0,0,rectangle,-82.66662598,-31.16668701,1,0,0,11.33337402,-9.166687012,1,0,0,0,114,114,136,1,,response5disk_3,TRUE,2,2,"[7,182,70,133,281,305,115,221,221,127,145,152,26,294,252,20,176,74,115,242]",1.8163,rectangle
,,,,,,,,,,,,,FF,,,,,,,,1.1665,,,,,,,,,,,,,,,,,,,,,,61036bc11cbe328e09cf25d3,61036e3ce86cce9c8acb7dec,2021-07-29_22h13.32.181,Simcolourproject_2stim_asymm_v5,2020.2.10,Win32,60,61025ae37ef11b136ea224fe,,,,,,,,,2803,86,38.16665649,1,0,0,response1disk,,6,9.333374023,6.166656494,1,0,0,rectangle,9.333374023,6.166656494,1,0,0,9.333374023,6.166656494,1,0,0,0,115,115,9,1,,,,,,,,
,,,,,,,,,,,,,FF,,,,,,,,0.9826,,,,,,,,,,,,,,,,,,,,,,61036bc11cbe328e09cf25d3,61036e3ce86cce9c8acb7dec,2021-07-29_22h13.32.181,Simcolourproject_2stim_asymm_v5,2020.2.10,Win32,60,61025ae37ef11b136ea224fe,,,,,,,,,2097,54,-91.16668701,1,0,0,response3disk,,4,8,-5.833343506,1,0,0,rectangle,8,-5.833343506,1,0,0,8,-5.833343506,1,0,0,0,116,116,78,1,,,,,,,,
,,,,,,,,,,,,,FF,,,,,,,,0.801,,,,,,,,,,,,,,,,,,,,,,61036bc11cbe328e09cf25d3,61036e3ce86cce9c8acb7dec,2021-07-29_22h13.32.181,Simcolourproject_2stim_asymm_v5,2020.2.10,Win32,60,61025ae37ef11b136ea224fe,,,,,,,,,571,95.33337402,32.16665649,1,0,0,response1disk,,6,10.66668701,4.833312988,1,0,0,rectangle,10.66668701,4.833312988,1,0,0,10.66668701,4.833312988,1,0,0,0,117,117,46,1,,,,,,,,
,,,,,,,,,,,,,FF,,,,,,,,0.7193,,,,,,,,,,,,,,,,,,,,,,61036bc11cbe328e09cf25d3,61036e3ce86cce9c8acb7dec,2021-07-29_22h13.32.181,Simcolourproject_2stim_asymm_v5,2020.2.10,Win32,60,61025ae37ef11b136ea224fe,,,,,,,,,510,42,95.5,1,0,0,response1disk,,7,-9.333312988,6.166656494,1,0,0,rectangle,-9.333312988,6.166656494,1,0,0,-9.333312988,6.166656494,1,0,0,0,118,118,125,1,,,,,,,,
,,,,,,,,,,,,,FF,,,,,,,,1.9498,,,,,,,,,,,,,,,,,,,,,,61036bc11cbe328e09cf25d3,61036e3ce86cce9c8acb7dec,2021-07-29_22h13.32.181,Simcolourproject_2stim_asymm_v5,2020.2.10,Win32,60,61025ae37ef11b136ea224fe,,,,,,,,,3663,79.33337402,-44.5,1,0,0,response3disk,,5,-2.666625977,-1.166687012,1,0,0,rectangle,-2.666625977,-1.166687012,1,0,0,-2.666625977,-1.166687012,1,0,0,0,119,119,43,1,,,,,,,,
,,,,,,,,,,,,,FF,,,,,,,,0.7157,,,,,,,,,,,,,,,,,,,,,,61036bc11cbe328e09cf25d3,61036e3ce86cce9c8acb7dec,2021-07-29_22h13.32.181,Simcolourproject_2stim_asymm_v5,2020.2.10,Win32,60,61025ae37ef11b136ea224fe,,,,,,,,,1704,61.33337402,86.83331299,1,0,0,response1disk,,7,16,4.166656494,1,0,0,rectangle,16,4.166656494,1,0,0,16,4.166656494,1,0,0,0,120,120,74,1,,,,,,,,
,,,,,,,,,,,,,FF,,,,,,,,0.7999,,,,,,,,,,,,,,,,,,,,,,61036bc11cbe328e09cf25d3,61036e3ce86cce9c8acb7dec,2021-07-29_22h13.32.181,Simcolourproject_2stim_asymm_v5,2020.2.10,Win32,60,61025ae37ef11b136ea224fe,,,,,,,,,1651,48,92.16665649,1,0,0,response1disk,,7,7.333374023,-6.5,1,0,0,rectangle,7.333374023,-6.5,1,0,0,7.333374023,-6.5,1,0,0,0,121,121,18,1,,,,,,,,
,,,,,,,,,,,,,FF,,,,,,,,1.1494,,,,,,,,,,,,,,,,,,,,,,61036bc11cbe328e09cf25d3,61036e3ce86cce9c8acb7dec,2021-07-29_22h13.32.181,Simcolourproject_2stim_asymm_v5,2020.2.10,Win32,60,61025ae37ef11b136ea224fe,,,,,,,,,3991,44.66668701,-97.16668701,1,0,0,response3disk,,4,0,1.5,1,0,0,rectangle,0,1.5,1,0,0,0,1.5,1,0,0,0,122,122,70,1,,,,,,,,
,,,,,,,,,,,,,FF,,,,,,,,1.0658,,,,,,,,,,,,,,,,,,,,,,61036bc11cbe328e09cf25d3,61036e3ce86cce9c8acb7dec,2021-07-29_22h13.32.181,Simcolourproject_2stim_asymm_v5,2020.2.10,Win32,60,61025ae37ef11b136ea224fe,,,,,,,,,4061,83.33337402,39.5,1,0,0,response1disk,,6,10,-9.833343506,1,0,0,rectangle,10,-9.833343506,1,0,0,10,-9.833343506,1,0,0,0,123,123,102,1,,,,,,,,
,,,,,,,,,,,,,FF,,,,,,,,2.0329,,,,,,,,,,,,,,,,,,,,,,61036bc11cbe328e09cf25d3,61036e3ce86cce9c8acb7dec,2021-07-29_22h13.32.181,Simcolourproject_2stim_asymm_v5,2020.2.10,Win32,60,61025ae37ef11b136ea224fe,,,,,,,,,2353,78,-25.16668701,1,0,0,response3disk,,5,9.333374023,3.5,1,0,0,rectangle,9.333374023,3.5,1,0,0,9.333374023,3.5,1,0,0,0,124,124,111,1,,,,,,,,
,,,,,,,,,,,,,FF,,,,,,,,0.5993,,,,,,,,,,,,,,,,,,,,,,61036bc11cbe328e09cf25d3,61036e3ce86cce9c8acb7dec,2021-07-29_22h13.32.181,Simcolourproject_2stim_asymm_v5,2020.2.10,Win32,60,61025ae37ef11b136ea224fe,,,,,,,,,4305,-46,84.83331299,1,0,0,response7disk,,0,2.666687012,1.5,1,0,0,rectangle,2.666687012,1.5,1,0,0,2.666687012,1.5,1,0,0,0,125,125,152,1,,,,,,,,
,,,,,,,,,,,,,FF,,,,,,,,1.5828,,,,,,,,,,,,,,,,,,,,,,61036bc11cbe328e09cf25d3,61036e3ce86cce9c8acb7dec,2021-07-29_22h13.32.181,Simcolourproject_2stim_asymm_v5,2020.2.10,Win32,60,61025ae37ef11b136ea224fe,,,,,,,,,1801,90,-32.5,1,0,0,response3disk,,5,0.666687012,-1.833343506,1,0,0,rectangle,-74,-31.83334351,1,0,0,7.333374023,-7.833343506,1,0,0,0,126,126,56,1,,response5disk_3,TRUE,2,2,"[7,182,70,133,281,305,115,221,221,127,145,152,26,294,252,20,176,74,115,242]",1.9316,rectangle
,,,,,,,,,,,,,FF,,,,,,,,1.3658,,,,,,,,,,,,,,,,,,,,,,61036bc11cbe328e09cf25d3,61036e3ce86cce9c8acb7dec,2021-07-29_22h13.32.181,Simcolourproject_2stim_asymm_v5,2020.2.10,Win32,60,61025ae37ef11b136ea224fe,,,,,,,,,1222,46.66668701,-93.83334351,1,0,0,response3disk,,4,-2,2.166656494,1,0,0,rectangle,-2,2.166656494,1,0,0,-2,2.166656494,1,0,0,0,127,127,148,1,,,,,,,,
,,,,,,,,,,,,,FF,,,,,,,,1.2497,,,,,,,,,,,,,,,,,,,,,,61036bc11cbe328e09cf25d3,61036e3ce86cce9c8acb7dec,2021-07-29_22h13.32.181,Simcolourproject_2stim_asymm_v5,2020.2.10,Win32,60,61025ae37ef11b136ea224fe,,,,,,,,,2986,87.33337402,-36.5,1,0,0,response3disk,,5,5.333374023,6.833312988,1,0,0,rectangle,5.333374023,6.833312988,1,0,0,5.333374023,6.833312988,1,0,0,0,128,128,93,1,,,,,,,,
,,,,,,,,,,,,,FF,,,,,,,,0.9835,,,,,,,,,,,,,,,,,,,,,,61036bc11cbe328e09cf25d3,61036e3ce86cce9c8acb7dec,2021-07-29_22h13.32.181,Simcolourproject_2stim_asymm_v5,2020.2.10,Win32,60,61025ae37ef11b136ea224fe,,,,,,,,,3495,50,87.5,1,0,0,response1disk,,7,12,4.166656494,1,0,0,rectangle,12,4.166656494,1,0,0,12,4.166656494,1,0,0,0,129,129,69,1,,,,,,,,
,,,,,,,,,,,,,FF,,,,,,,,0.9869,,,,,,,,,,,,,,,,,,,,,,61036bc11cbe328e09cf25d3,61036e3ce86cce9c8acb7dec,2021-07-29_22h13.32.181,Simcolourproject_2stim_asymm_v5,2020.2.10,Win32,60,61025ae37ef11b136ea224fe,,,,,,,,,4323,42.66668701,79.5,1,0,0,response1disk,,7,8.666687012,0.833312988,1,0,0,rectangle,8.666687012,0.833312988,1,0,0,8.666687012,0.833312988,1,0,0,0,130,130,158,1,,,,,,,,
,,,,,,,,,,,,,FF,,,,,,,,0.7337,,,,,,,,,,,,,,,,,,,,,,61036bc11cbe328e09cf25d3,61036e3ce86cce9c8acb7dec,2021-07-29_22h13.32.181,Simcolourproject_2stim_asymm_v5,2020.2.10,Win32,60,61025ae37ef11b136ea224fe,,,,,,,,,3863,58.66668701,91.5,1,0,0,response1disk,,7,14.66668701,11.5,1,0,0,rectangle,14.66668701,11.5,1,0,0,14.66668701,11.5,1,0,0,0,131,131,44,1,,,,,,,,
,,,,,,,,,,,,,FF,,,,,,,,0.4994,,,,,,,,,,,,,,,,,,,,,,61036bc11cbe328e09cf25d3,61036e3ce86cce9c8acb7dec,2021-07-29_22h13.32.181,Simcolourproject_2stim_asymm_v5,2020.2.10,Win32,60,61025ae37ef11b136ea224fe,,,,,,,,,2749,46,86.16665649,1,0,0,response1disk,,7,4.666687012,4.166656494,1,0,0,rectangle,79.33337402,-40.5,1,0,0,10.66668701,-8.5,1,0,0,0,132,132,39,1,,response3disk_3,TRUE,5,5,"[7,182,70,133,281,305,115,221,221,127,145,152,26,294,252,20,176,74,115,242]",2.2656,rectangle
,,,,,,,,,,,,,FF,,,,,,,,0.8168,,,,,,,,,,,,,,,,,,,,,,61036bc11cbe328e09cf25d3,61036e3ce86cce9c8acb7dec,2021-07-29_22h13.32.181,Simcolourproject_2stim_asymm_v5,2020.2.10,Win32,60,61025ae37ef11b136ea224fe,,,,,,,,,4154,104,40.16665649,1,0,0,response1disk,,6,20.66668701,1.5,1,0,0,rectangle,20.66668701,1.5,1,0,0,20.66668701,1.5,1,0,0,0,133,133,151,1,,,,,,,,
,,,,,,,,,,,,,FF,,,,,,,,0.6132,,,,,,,,,,,,,,,,,,,,,,61036bc11cbe328e09cf25d3,61036e3ce86cce9c8acb7dec,2021-07-29_22h13.32.181,Simcolourproject_2stim_asymm_v5,2020.2.10,Win32,60,61025ae37ef11b136ea224fe,,,,,,,,,1790,42.66668701,84.83331299,1,0,0,response1disk,,7,0,4.166656494,1,0,0,rectangle,0,4.166656494,1,0,0,0,4.166656494,1,0,0,0,134,134,52,1,,,,,,,,
,,,,,,,,,,,,,FF,,,,,,,,1.2822,,,,,,,,,,,,,,,,,,,,,,61036bc11cbe328e09cf25d3,61036e3ce86cce9c8acb7dec,2021-07-29_22h13.32.181,Simcolourproject_2stim_asymm_v5,2020.2.10,Win32,60,61025ae37ef11b136ea224fe,,,,,,,,,970,-79.33331299,-29.83334351,1,0,0,response5disk,,2,12,4.833312988,1,0,0,rectangle,12,4.833312988,1,0,0,12,4.833312988,1,0,0,0,135,135,26,1,,,,,,,,
,,,,,,,,,,,,,FF,,,,,,,,0.9344,,,,,,,,,,,,,,,,,,,,,,61036bc11cbe328e09cf25d3,61036e3ce86cce9c8acb7dec,2021-07-29_22h13.32.181,Simcolourproject_2stim_asymm_v5,2020.2.10,Win32,60,61025ae37ef11b136ea224fe,,,,,,,,,2037,86.66668701,-40.5,1,0,0,response3disk,,5,2,-1.833343506,1,0,0,rectangle,2,-1.833343506,1,0,0,2,-1.833343506,1,0,0,0,136,136,24,1,,,,,,,,
,,,,,,,,,,,,,FF,,,,,,,,0.8827,,,,,,,,,,,,,,,,,,,,,,61036bc11cbe328e09cf25d3,61036e3ce86cce9c8acb7dec,2021-07-29_22h13.32.181,Simcolourproject_2stim_asymm_v5,2020.2.10,Win32,60,61025ae37ef11b136ea224fe,,,,,,,,,2892,44,-86.5,1,0,0,response3disk,,4,3.333374023,10.83331299,1,0,0,rectangle,3.333374023,10.83331299,1,0,0,3.333374023,10.83331299,1,0,0,0,137,137,55,1,,,,,,,,
,,,,,,,,,,,,,FF,,,,,,,,0.8499,,,,,,,,,,,,,,,,,,,,,,61036bc11cbe328e09cf25d3,61036e3ce86cce9c8acb7dec,2021-07-29_22h13.32.181,Simcolourproject_2stim_asymm_v5,2020.2.10,Win32,60,61025ae37ef11b136ea224fe,,,,,,,,,2256,80.66668701,-15.83334351,1,0,0,response3disk,,5,6,8.166656494,1,0,0,rectangle,6,8.166656494,1,0,0,6,8.166656494,1,0,0,0,138,138,138,1,,,,,,,,
,,,,,,,,,,,,,FF,,,,,,,,1.516,,,,,,,,,,,,,,,,,,,,,,61036bc11cbe328e09cf25d3,61036e3ce86cce9c8acb7dec,2021-07-29_22h13.32.181,Simcolourproject_2stim_asymm_v5,2020.2.10,Win32,60,61025ae37ef11b136ea224fe,,,,,,,,,4333,38,70.83331299,1,0,0,response1disk,,7,7.333374023,-2.5,1,0,0,rectangle,7.333374023,-2.5,1,0,0,7.333374023,-2.5,1,0,0,0,139,139,134,1,,,,,,,,
,,,,,,,,,,,,,FF,,,,,,,,19.3,,,,,,,,,,,,,,,,,,,,,,61036bc11cbe328e09cf25d3,61036e3ce86cce9c8acb7dec,2021-07-29_22h13.32.181,Simcolourproject_2stim_asymm_v5,2020.2.10,Win32,60,61025ae37ef11b136ea224fe,,,,,,,,,1912,94.00002187,-52.50001016,1,0,0,response3disk,,5,-13.33331466,4.833304534,1,0,0,rectangle,-13.33331466,4.833304534,1,0,0,-13.33331466,4.833304534,1,0,0,0,140,140,156,1,,,,,,,,
,,,,,,,,,,,,,FF,,,,,,,,1.3846,,,,,,,,,,,,,,,,,,,,,,61036bc11cbe328e09cf25d3,61036e3ce86cce9c8acb7dec,2021-07-29_22h13.32.181,Simcolourproject_2stim_asymm_v5,2020.2.10,Win32,60,61025ae37ef11b136ea224fe,,,,,,,,,3307,38,81.5,1,0,0,response1disk,,7,3.333374023,1.5,1,0,0,rectangle,3.333374023,1.5,1,0,0,3.333374023,1.5,1,0,0,0,141,141,117,1,,,,,,,,
,,,,,,,,,,,,,FF,,,,,,,,6.8162,,,,,,,,,,,,,,,,,,,,,,61036bc11cbe328e09cf25d3,61036e3ce86cce9c8acb7dec,2021-07-29_22h13.32.181,Simcolourproject_2stim_asymm_v5,2020.2.10,Win32,60,61025ae37ef11b136ea224fe,,,,,,,,,2303,86.66668701,44.83331299,1,0,0,response1disk,,6,16,10.16665649,1,0,0,rectangle,16,10.16665649,1,0,0,16,10.16665649,1,0,0,0,142,142,73,1,,,,,,,,
,,,,,,,,,,,,,FF,,,,,,,,0.5499,,,,,,,,,,,,,,,,,,,,,,61036bc11cbe328e09cf25d3,61036e3ce86cce9c8acb7dec,2021-07-29_22h13.32.181,Simcolourproject_2stim_asymm_v5,2020.2.10,Win32,60,61025ae37ef11b136ea224fe,,,,,,,,,559,39.33337402,76.16665649,1,0,0,response1disk,,7,6.666687012,2.166656494,1,0,0,rectangle,6.666687012,2.166656494,1,0,0,6.666687012,2.166656494,1,0,0,0,143,143,119,1,,,,,,,,
,,,,,,,,,,,,,FF,,,,,,,,1.2337,,,,,,,,,,,,,,,,,,,,,,61036bc11cbe328e09cf25d3,61036e3ce86cce9c8acb7dec,2021-07-29_22h13.32.181,Simcolourproject_2stim_asymm_v5,2020.2.10,Win32,60,61025ae37ef11b136ea224fe,,,,,,,,,1614,80.66668701,36.83331299,1,0,0,response1disk,,6,10,4.166656494,1,0,0,rectangle,50,82.16665649,1,0,0,-1.333312988,3.5,1,0,0,0,144,144,42,1,,response1disk_3,TRUE,7,2,"[7,182,70,133,281,305,115,221,221,127,145,152,26,294,252,20,176,74,115,242]",1.1332,rectangle
,,,,,,,,,,,,,FF,,,,,,,,0.8205,,,,,,,,,,,,,,,,,,,,,,61036bc11cbe328e09cf25d3,61036e3ce86cce9c8acb7dec,2021-07-29_22h13.32.181,Simcolourproject_2stim_asymm_v5,2020.2.10,Win32,60,61025ae37ef11b136ea224fe,,,,,,,,,2944,-34,-81.16668701,1,0,0,response5disk,,3,14,-5.166687012,1,0,0,rectangle,14,-5.166687012,1,0,0,14,-5.166687012,1,0,0,0,145,145,153,1,,,,,,,,
,,,,,,,,,,,,,FF,,,,,,,,1.0675,,,,,,,,,,,,,,,,,,,,,,61036bc11cbe328e09cf25d3,61036e3ce86cce9c8acb7dec,2021-07-29_22h13.32.181,Simcolourproject_2stim_asymm_v5,2020.2.10,Win32,60,61025ae37ef11b136ea224fe,,,,,,,,,3926,86.66668701,31.5,1,0,0,response1disk,,6,6,5.5,1,0,0,rectangle,6,5.5,1,0,0,6,5.5,1,0,0,0,146,146,8,1,,,,,,,,
,,,,,,,,,,,,,FF,,,,,,,,1.4653,,,,,,,,,,,,,,,,,,,,,,61036bc11cbe328e09cf25d3,61036e3ce86cce9c8acb7dec,2021-07-29_22h13.32.181,Simcolourproject_2stim_asymm_v5,2020.2.10,Win32,60,61025ae37ef11b136ea224fe,,,,,,,,,195,44,89.5,1,0,0,response1disk,,7,12.66668701,1.5,1,0,0,rectangle,12.66668701,1.5,1,0,0,12.66668701,1.5,1,0,0,0,147,147,6,1,,,,,,,,
,,,,,,,,,,,,,FF,,,,,,,,0.8703,,,,,,,,,,,,,,,,,,,,,,61036bc11cbe328e09cf25d3,61036e3ce86cce9c8acb7dec,2021-07-29_22h13.32.181,Simcolourproject_2stim_asymm_v5,2020.2.10,Win32,60,61025ae37ef11b136ea224fe,,,,,,,,,2695,82.66668701,-32.5,1,0,0,response3disk,,5,-4,-3.833343506,1,0,0,rectangle,-4,-3.833343506,1,0,0,-4,-3.833343506,1,0,0,0,148,148,19,1,,,,,,,,
,,,,,,,,,,,,,FF,,,,,,,,1.1505,,,,,,,,,,,,,,,,,,,,,,61036bc11cbe328e09cf25d3,61036e3ce86cce9c8acb7dec,2021-07-29_22h13.32.181,Simcolourproject_2stim_asymm_v5,2020.2.10,Win32,60,61025ae37ef11b136ea224fe,,,,,,,,,751,36.66668701,82.83331299,1,0,0,response1disk,,7,-2.666625977,-5.166687012,1,0,0,rectangle,-2.666625977,-5.166687012,1,0,0,-2.666625977,-5.166687012,1,0,0,0,149,149,21,1,,,,,,,,
,,,,,,,,,,,,,FF,,,,,,,,1.203,,,,,,,,,,,,,,,,,,,,,,61036bc11cbe328e09cf25d3,61036e3ce86cce9c8acb7dec,2021-07-29_22h13.32.181,Simcolourproject_2stim_asymm_v5,2020.2.10,Win32,60,61025ae37ef11b136ea224fe,,,,,,,,,2058,91.33337402,40.83331299,1,0,0,response1disk,,6,23.33337402,4.166656494,1,0,0,rectangle,23.33337402,4.166656494,1,0,0,23.33337402,4.166656494,1,0,0,0,150,150,159,1,,,,,,,,
,,,,,,,,,,,,,FF,,,,,,,,0.8836,,,,,,,,,,,,,,,,,,,,,,61036bc11cbe328e09cf25d3,61036e3ce86cce9c8acb7dec,2021-07-29_22h13.32.181,Simcolourproject_2stim_asymm_v5,2020.2.10,Win32,60,61025ae37ef11b136ea224fe,,,,,,,,,2629,90.66668701,-31.16668701,1,0,0,response3disk,,5,3.333374023,8.166656494,1,0,0,rectangle,-86,33.5,1,0,0,0,2.166656494,1,0,0,0,151,151,31,1,,response7disk_3,TRUE,1,1,"[7,182,70,133,281,305,115,221,221,127,145,152,26,294,252,20,176,74,115,242]",2.1314,rectangle
,,,,,,,,,,,,,FF,,,,,,,,1.251,,,,,,,,,,,,,,,,,,,,,,61036bc11cbe328e09cf25d3,61036e3ce86cce9c8acb7dec,2021-07-29_22h13.32.181,Simcolourproject_2stim_asymm_v5,2020.2.10,Win32,60,61025ae37ef11b136ea224fe,,,,,,,,,1643,41.33337402,76.83331299,1,0,0,response1disk,,7,11.33337402,2.833312988,1,0,0,rectangle,11.33337402,2.833312988,1,0,0,11.33337402,2.833312988,1,0,0,0,152,152,47,1,,,,,,,,
,,,,,,,,,,,,,FF,,,,,,,,1.0641,,,,,,,,,,,,,,,,,,,,,,61036bc11cbe328e09cf25d3,61036e3ce86cce9c8acb7dec,2021-07-29_22h13.32.181,Simcolourproject_2stim_asymm_v5,2020.2.10,Win32,60,61025ae37ef11b136ea224fe,,,,,,,,,2858,44.66668701,81.5,1,0,0,response1disk,,7,14.66668701,6.833312988,1,0,0,rectangle,14.66668701,6.833312988,1,0,0,14.66668701,6.833312988,1,0,0,0,153,153,63,1,,,,,,,,
,,,,,,,,,,,,,FF,,,,,,,,0.8062,,,,,,,,,,,,,,,,,,,,,,61036bc11cbe328e09cf25d3,61036e3ce86cce9c8acb7dec,2021-07-29_22h13.32.181,Simcolourproject_2stim_asymm_v5,2020.2.10,Win32,60,61025ae37ef11b136ea224fe,,,,,,,,,366,-80.66662598,43.5,1,0,0,response7disk,,1,2.666687012,2.833312988,1,0,0,rectangle,2.666687012,2.833312988,1,0,0,2.666687012,2.833312988,1,0,0,0,154,154,131,1,,,,,,,,
,,,,,,,,,,,,,FF,,,,,,,,1.1334,,,,,,,,,,,,,,,,,,,,,,61036bc11cbe328e09cf25d3,61036e3ce86cce9c8acb7dec,2021-07-29_22h13.32.181,Simcolourproject_2stim_asymm_v5,2020.2.10,Win32,60,61025ae37ef11b136ea224fe,,,,,,,,,3377,88,-33.83334351,1,0,0,response3disk,,5,13.33337402,10.16665649,1,0,0,rectangle,13.33337402,10.16665649,1,0,0,13.33337402,10.16665649,1,0,0,0,155,155,16,1,,,,,,,,
,,,,,,,,,,,,,FF,,,,,,,,1.8852,,,,,,,,,,,,,,,,,,,,,,61036bc11cbe328e09cf25d3,61036e3ce86cce9c8acb7dec,2021-07-29_22h13.32.181,Simcolourproject_2stim_asymm_v5,2020.2.10,Win32,60,61025ae37ef11b136ea224fe,,,,,,,,,1102,48.66668701,98.16665649,1,0,0,response1disk,,7,4,-5.166687012,1,0,0,rectangle,4,-5.166687012,1,0,0,4,-5.166687012,1,0,0,0,156,156,109,1,,,,,,,,
,,,,,,,,,,,,,FF,,,,,,,,0.8672,,,,,,,,,,,,,,,,,,,,,,61036bc11cbe328e09cf25d3,61036e3ce86cce9c8acb7dec,2021-07-29_22h13.32.181,Simcolourproject_2stim_asymm_v5,2020.2.10,Win32,60,61025ae37ef11b136ea224fe,,,,,,,,,1333,42,80.16665649,1,0,0,response1disk,,7,0.666687012,5.5,1,0,0,rectangle,0.666687012,5.5,1,0,0,0.666687012,5.5,1,0,0,0,157,157,76,1,,,,,,,,
,,,,,,,,,,,,,FF,,,,,,,,1.032,,,,,,,,,,,,,,,,,,,,,,61036bc11cbe328e09cf25d3,61036e3ce86cce9c8acb7dec,2021-07-29_22h13.32.181,Simcolourproject_2stim_asymm_v5,2020.2.10,Win32,60,61025ae37ef11b136ea224fe,,,,,,,,,2645,40,80.16665649,1,0,0,response1disk,,7,5.333374023,-9.833343506,1,0,0,rectangle,5.333374023,-9.833343506,1,0,0,5.333374023,-9.833343506,1,0,0,0,158,158,107,1,,,,,,,,
,,,,,,,,,,,,,FF,,,,,,,,1.3168,,,,,,,,,,,,,,,,,,,,,,61036bc11cbe328e09cf25d3,61036e3ce86cce9c8acb7dec,2021-07-29_22h13.32.181,Simcolourproject_2stim_asymm_v5,2020.2.10,Win32,60,61025ae37ef11b136ea224fe,,,,,,,,,3349,85.33337402,35.5,1,0,0,response1disk,,6,1.333374023,-9.166687012,1,0,0,rectangle,1.333374023,-9.166687012,1,0,0,1.333374023,-9.166687012,1,0,0,0,159,159,64,1,,,,,,,,
,,,,,,,,,,,,,FF,,,,,,,,2.5661,,,,,,,,,,,,,,,,,,,,,,61036bc11cbe328e09cf25d3,61036e3ce86cce9c8acb7dec,2021-07-29_22h13.32.181,Simcolourproject_2stim_asymm_v5,2020.2.10,Win32,60,61025ae37ef11b136ea224fe,,,,,,,,,384,83.33337402,41.5,1,0,0,response1disk,,6,24,0.833312988,1,0,0,rectangle,24,0.833312988,1,0,0,24,0.833312988,1,0,0,1,0,160,82,1,,,,,,,,
,,,,,,,,,,,,,FF,,,,,,,,0.5661,,,,,,,,,,,,,,,,,,,,,,61036bc11cbe328e09cf25d3,61036e3ce86cce9c8acb7dec,2021-07-29_22h13.32.181,Simcolourproject_2stim_asymm_v5,2020.2.10,Win32,60,61025ae37ef11b136ea224fe,,,,,,,,,2498,28,89.5,1,0,0,response1disk,,7,-2,-2.5,1,0,0,rectangle,-2,-2.5,1,0,0,-2,-2.5,1,0,0,1,1,161,6,1,,,,,,,,
,,,,,,,,,,,,,FF,,,,,,,,1.0158,,,,,,,,,,,,,,,,,,,,,,61036bc11cbe328e09cf25d3,61036e3ce86cce9c8acb7dec,2021-07-29_22h13.32.181,Simcolourproject_2stim_asymm_v5,2020.2.10,Win32,60,61025ae37ef11b136ea224fe,,,,,,,,,1313,50,-91.16668701,1,0,0,response3disk,,4,14,6.166656494,1,0,0,rectangle,14,6.166656494,1,0,0,14,6.166656494,1,0,0,1,2,162,149,1,,,,,,,,
,,,,,,,,,,,,,FF,,,,,,,,1.5852,,,,,,,,,,,,,,,,,,,,,,61036bc11cbe328e09cf25d3,61036e3ce86cce9c8acb7dec,2021-07-29_22h13.32.181,Simcolourproject_2stim_asymm_v5,2020.2.10,Win32,60,61025ae37ef11b136ea224fe,,,,,,,,,4105,44.66668701,-79.83334351,1,0,0,response3disk,,4,21.33337402,6.833312988,1,0,0,rectangle,21.33337402,6.833312988,1,0,0,21.33337402,6.833312988,1,0,0,1,3,163,7,1,,,,,,,,
,,,,,,,,,,,,,FF,,,,,,,,4.2503,,,,,,,,,,,,,,,,,,,,,,61036bc11cbe328e09cf25d3,61036e3ce86cce9c8acb7dec,2021-07-29_22h13.32.181,Simcolourproject_2stim_asymm_v5,2020.2.10,Win32,60,61025ae37ef11b136ea224fe,,,,,,,,,3114,72,-31.83334351,1,0,0,response3disk,,5,8.666687012,8.833312988,1,0,0,rectangle,8.666687012,8.833312988,1,0,0,8.666687012,8.833312988,1,0,0,1,4,164,36,1,,,,,,,,
,,,,,,,,,,,,,FF,,,,,,,,2.0181,,,,,,,,,,,,,,,,,,,,,,61036bc11cbe328e09cf25d3,61036e3ce86cce9c8acb7dec,2021-07-29_22h13.32.181,Simcolourproject_2stim_asymm_v5,2020.2.10,Win32,60,61025ae37ef11b136ea224fe,,,,,,,,,2471,56,89.5,1,0,0,response1disk,,7,20.66668701,6.833312988,1,0,0,rectangle,20.66668701,6.833312988,1,0,0,20.66668701,6.833312988,1,0,0,1,5,165,73,1,,,,,,,,
,,,,,,,,,,,,,FF,,,,,,,,1.0698,,,,,,,,,,,,,,,,,,,,,,61036bc11cbe328e09cf25d3,61036e3ce86cce9c8acb7dec,2021-07-29_22h13.32.181,Simcolourproject_2stim_asymm_v5,2020.2.10,Win32,60,61025ae37ef11b136ea224fe,,,,,,,,,97,88,38.16665649,1,0,0,response1disk,,6,22,-7.833343506,1,0,0,rectangle,22,-7.833343506,1,0,0,22,-7.833343506,1,0,0,1,6,166,158,1,,,,,,,,
,,,,,,,,,,,,,FF,,,,,,,,1.4358,,,,,,,,,,,,,,,,,,,,,,61036bc11cbe328e09cf25d3,61036e3ce86cce9c8acb7dec,2021-07-29_22h13.32.181,Simcolourproject_2stim_asymm_v5,2020.2.10,Win32,60,61025ae37ef11b136ea224fe,,,,,,,,,2937,62,97.5,1,0,0,response1disk,,7,6,-2.5,1,0,0,rectangle,6,-2.5,1,0,0,6,-2.5,1,0,0,1,7,167,154,1,,,,,,,,
,,,,,,,,,,,,,FF,,,,,,,,0.9495,,,,,,,,,,,,,,,,,,,,,,61036bc11cbe328e09cf25d3,61036e3ce86cce9c8acb7dec,2021-07-29_22h13.32.181,Simcolourproject_2stim_asymm_v5,2020.2.10,Win32,60,61025ae37ef11b136ea224fe,,,,,,,,,3553,42.66668701,-85.16668701,1,0,0,response3disk,,4,14,-3.833343506,1,0,0,rectangle,14,-3.833343506,1,0,0,14,-3.833343506,1,0,0,1,8,168,115,1,,,,,,,,
,,,,,,,,,,,,,FF,,,,,,,,1.1337,,,,,,,,,,,,,,,,,,,,,,61036bc11cbe328e09cf25d3,61036e3ce86cce9c8acb7dec,2021-07-29_22h13.32.181,Simcolourproject_2stim_asymm_v5,2020.2.10,Win32,60,61025ae37ef11b136ea224fe,,,,,,,,,394,86,50.16665649,1,0,0,response1disk,,6,3.333374023,-4.5,1,0,0,rectangle,3.333374023,-4.5,1,0,0,3.333374023,-4.5,1,0,0,1,9,169,35,1,,,,,,,,
,,,,,,,,,,,,,FF,,,,,,,,0.9008,,,,,,,,,,,,,,,,,,,,,,61036bc11cbe328e09cf25d3,61036e3ce86cce9c8acb7dec,2021-07-29_22h13.32.181,Simcolourproject_2stim_asymm_v5,2020.2.10,Win32,60,61025ae37ef11b136ea224fe,,,,,,,,,3254,30.66668701,94.83331299,1,0,0,response1disk,,7,10,1.5,1,0,0,rectangle,10,1.5,1,0,0,10,1.5,1,0,0,1,10,170,129,1,,,,,,,,
,,,,,,,,,,,,,FF,,,,,,,,0.9,,,,,,,,,,,,,,,,,,,,,,61036bc11cbe328e09cf25d3,61036e3ce86cce9c8acb7dec,2021-07-29_22h13.32.181,Simcolourproject_2stim_asymm_v5,2020.2.10,Win32,60,61025ae37ef11b136ea224fe,,,,,,,,,3425,-68,28.83331299,1,0,0,response7disk,,1,16,0.833312988,1,0,0,rectangle,16,0.833312988,1,0,0,16,0.833312988,1,0,0,1,11,171,20,1,,,,,,,,
,,,,,,,,,,,,,FF,,,,,,,,3.2027,,,,,,,,,,,,,,,,,,,,,,61036bc11cbe328e09cf25d3,61036e3ce86cce9c8acb7dec,2021-07-29_22h13.32.181,Simcolourproject_2stim_asymm_v5,2020.2.10,Win32,60,61025ae37ef11b136ea224fe,,,,,,,,,4196,41.33337402,90.16665649,1,0,0,response1disk,,7,6.666687012,-8.5,1,0,0,rectangle,6.666687012,-8.5,1,0,0,6.666687012,-8.5,1,0,0,1,12,172,90,1,,,,,,,,
,,,,,,,,,,,,,FF,,,,,,,,1.7513,,,,,,,,,,,,,,,,,,,,,,61036bc11cbe328e09cf25d3,61036e3ce86cce9c8acb7dec,2021-07-29_22h13.32.181,Simcolourproject_2stim_asymm_v5,2020.2.10,Win32,60,61025ae37ef11b136ea224fe,,,,,,,,,857,75.33337402,-34.5,1,0,0,response3disk,,5,3.333374023,-5.833343506,1,0,0,rectangle,3.333374023,-5.833343506,1,0,0,3.333374023,-5.833343506,1,0,0,1,13,173,111,1,,,,,,,,
,,,,,,,,,,,,,FF,,,,,,,,0.8004,,,,,,,,,,,,,,,,,,,,,,61036bc11cbe328e09cf25d3,61036e3ce86cce9c8acb7dec,2021-07-29_22h13.32.181,Simcolourproject_2stim_asymm_v5,2020.2.10,Win32,60,61025ae37ef11b136ea224fe,,,,,,,,,4255,-32,-95.83334351,1,0,0,response5disk,,3,4,3.5,1,0,0,rectangle,4,3.5,1,0,0,4,3.5,1,0,0,1,14,174,144,1,,,,,,,,
,,,,,,,,,,,,,FF,,,,,,,,1.0833,,,,,,,,,,,,,,,,,,,,,,61036bc11cbe328e09cf25d3,61036e3ce86cce9c8acb7dec,2021-07-29_22h13.32.181,Simcolourproject_2stim_asymm_v5,2020.2.10,Win32,60,61025ae37ef11b136ea224fe,,,,,,,,,4176,85.33337402,-37.83334351,1,0,0,response3disk,,5,6,3.5,1,0,0,rectangle,91.33337402,51.5,1,0,0,18.66668701,11.5,1,0,0,1,15,175,105,1,,response1disk_3,TRUE,6,6,"[7,182,70,133,281,305,115,221,221,127,145,152,26,294,252,20,176,74,115,242]",1.8318,rectangle
,,,,,,,,,,,,,FF,,,,,,,,1.8331,,,,,,,,,,,,,,,,,,,,,,61036bc11cbe328e09cf25d3,61036e3ce86cce9c8acb7dec,2021-07-29_22h13.32.181,Simcolourproject_2stim_asymm_v5,2020.2.10,Win32,60,61025ae37ef11b136ea224fe,,,,,,,,,1115,68.0000211,29.49999228,1,0,0,response1disk,,6,18.6666863,2.833304475,1,0,0,rectangle,18.6666863,2.833304475,1,0,0,18.6666863,2.833304475,1,0,0,1,16,176,75,1,,,,,,,,
,,,,,,,,,,,,,FF,,,,,,,,1.5508,,,,,,,,,,,,,,,,,,,,,,61036bc11cbe328e09cf25d3,61036e3ce86cce9c8acb7dec,2021-07-29_22h13.32.181,Simcolourproject_2stim_asymm_v5,2020.2.10,Win32,60,61025ae37ef11b136ea224fe,,,,,,,,,2684,96.66668701,-31.83334351,1,0,0,response3disk,,5,-9.333312988,-5.833343506,1,0,0,rectangle,-9.333312988,-5.833343506,1,0,0,-9.333312988,-5.833343506,1,0,0,1,17,177,139,1,,,,,,,,
,,,,,,,,,,,,,FF,,,,,,,,0.5993,,,,,,,,,,,,,,,,,,,,,,61036bc11cbe328e09cf25d3,61036e3ce86cce9c8acb7dec,2021-07-29_22h13.32.181,Simcolourproject_2stim_asymm_v5,2020.2.10,Win32,60,61025ae37ef11b136ea224fe,,,,,,,,,303,36.66668701,85.5,1,0,0,response1disk,,7,-9.333312988,-2.5,1,0,0,rectangle,-9.333312988,-2.5,1,0,0,-9.333312988,-2.5,1,0,0,1,18,178,109,1,,,,,,,,
,,,,,,,,,,,,,FF,,,,,,,,0.7844,,,,,,,,,,,,,,,,,,,,,,61036bc11cbe328e09cf25d3,61036e3ce86cce9c8acb7dec,2021-07-29_22h13.32.181,Simcolourproject_2stim_asymm_v5,2020.2.10,Win32,60,61025ae37ef11b136ea224fe,,,,,,,,,362,45.33337402,86.83331299,1,0,0,response1disk,,7,-9.333312988,4.833312988,1,0,0,rectangle,-9.333312988,4.833312988,1,0,0,-9.333312988,4.833312988,1,0,0,1,19,179,51,1,,,,,,,,
,,,,,,,,,,,,,FF,,,,,,,,0.513,,,,,,,,,,,,,,,,,,,,,,61036bc11cbe328e09cf25d3,61036e3ce86cce9c8acb7dec,2021-07-29_22h13.32.181,Simcolourproject_2stim_asymm_v5,2020.2.10,Win32,60,61025ae37ef11b136ea224fe,,,,,,,,,1586,42,94.83331299,1,0,0,response1disk,,7,-9.333312988,-0.5,1,0,0,rectangle,-9.333312988,-0.5,1,0,0,-9.333312988,-0.5,1,0,0,1,20,180,12,1,,,,,,,,
,,,,,,,,,,,,,FF,,,,,,,,1.4157,,,,,,,,,,,,,,,,,,,,,,61036bc11cbe328e09cf25d3,61036e3ce86cce9c8acb7dec,2021-07-29_22h13.32.181,Simcolourproject_2stim_asymm_v5,2020.2.10,Win32,60,61025ae37ef11b136ea224fe,,,,,,,,,3898,48.66668701,-81.83334351,1,0,0,response3disk,,4,2.666687012,5.5,1,0,0,rectangle,-78.66662598,46.16665649,1,0,0,-13.33331299,4.833312988,1,0,0,1,21,181,93,1,,response7disk_3,TRUE,1,1,"[7,182,70,133,281,305,115,221,221,127,145,152,26,294,252,20,176,74,115,242]",1.8175,rectangle
,,,,,,,,,,,,,FF,,,,,,,,0.833,,,,,,,,,,,,,,,,,,,,,,61036bc11cbe328e09cf25d3,61036e3ce86cce9c8acb7dec,2021-07-29_22h13.32.181,Simcolourproject_2stim_asymm_v5,2020.2.10,Win32,60,61025ae37ef11b136ea224fe,,,,,,,,,2992,46.66668701,92.16665649,1,0,0,response1disk,,7,-0.666625977,-5.166687012,1,0,0,rectangle,-0.666625977,-5.166687012,1,0,0,-0.666625977,-5.166687012,1,0,0,1,22,182,31,1,,,,,,,,
,,,,,,,,,,,,,FF,,,,,,,,0.6835,,,,,,,,,,,,,,,,,,,,,,61036bc11cbe328e09cf25d3,61036e3ce86cce9c8acb7dec,2021-07-29_22h13.32.181,Simcolourproject_2stim_asymm_v5,2020.2.10,Win32,60,61025ae37ef11b136ea224fe,,,,,,,,,2884,40.66668701,96.83331299,1,0,0,response1disk,,7,-10,4.166656494,1,0,0,rectangle,-10,4.166656494,1,0,0,-10,4.166656494,1,0,0,1,23,183,53,1,,,,,,,,
,,,,,,,,,,,,,FF,,,,,,,,0.6163,,,,,,,,,,,,,,,,,,,,,,61036bc11cbe328e09cf25d3,61036e3ce86cce9c8acb7dec,2021-07-29_22h13.32.181,Simcolourproject_2stim_asymm_v5,2020.2.10,Win32,60,61025ae37ef11b136ea224fe,,,,,,,,,3416,44.66668701,88.83331299,1,0,0,response1disk,,7,-17.33331299,-1.833343506,1,0,0,rectangle,-17.33331299,-1.833343506,1,0,0,-17.33331299,-1.833343506,1,0,0,1,24,184,141,1,,,,,,,,
,,,,,,,,,,,,,FF,,,,,,,,0.8998,,,,,,,,,,,,,,,,,,,,,,61036bc11cbe328e09cf25d3,61036e3ce86cce9c8acb7dec,2021-07-29_22h13.32.181,Simcolourproject_2stim_asymm_v5,2020.2.10,Win32,60,61025ae37ef11b136ea224fe,,,,,,,,,3252,50,-83.16668701,1,0,0,response3disk,,4,-2.666625977,-7.833343506,1,0,0,rectangle,-2.666625977,-7.833343506,1,0,0,-2.666625977,-7.833343506,1,0,0,1,25,185,134,1,,,,,,,,
,,,,,,,,,,,,,FF,,,,,,,,0.9833,,,,,,,,,,,,,,,,,,,,,,61036bc11cbe328e09cf25d3,61036e3ce86cce9c8acb7dec,2021-07-29_22h13.32.181,Simcolourproject_2stim_asymm_v5,2020.2.10,Win32,60,61025ae37ef11b136ea224fe,,,,,,,,,2723,80,-43.16668701,1,0,0,response3disk,,5,0.666687012,-5.833343506,1,0,0,rectangle,0.666687012,-5.833343506,1,0,0,0.666687012,-5.833343506,1,0,0,1,26,186,3,1,,,,,,,,
,,,,,,,,,,,,,FF,,,,,,,,1.567,,,,,,,,,,,,,,,,,,,,,,61036bc11cbe328e09cf25d3,61036e3ce86cce9c8acb7dec,2021-07-29_22h13.32.181,Simcolourproject_2stim_asymm_v5,2020.2.10,Win32,60,61025ae37ef11b136ea224fe,,,,,,,,,3581,45.33337402,92.83331299,1,0,0,response1disk,,7,6,10.16665649,1,0,0,rectangle,6,10.16665649,1,0,0,6,10.16665649,1,0,0,1,27,187,59,1,,,,,,,,
,,,,,,,,,,,,,FF,,,,,,,,0.9163,,,,,,,,,,,,,,,,,,,,,,61036bc11cbe328e09cf25d3,61036e3ce86cce9c8acb7dec,2021-07-29_22h13.32.181,Simcolourproject_2stim_asymm_v5,2020.2.10,Win32,60,61025ae37ef11b136ea224fe,,,,,,,,,1302,88,32.16665649,1,0,0,response1disk,,6,-2.666625977,-8.5,1,0,0,rectangle,-2.666625977,-8.5,1,0,0,-2.666625977,-8.5,1,0,0,1,28,188,69,1,,,,,,,,
,,,,,,,,,,,,,FF,,,,,,,,0.9692,,,,,,,,,,,,,,,,,,,,,,61036bc11cbe328e09cf25d3,61036e3ce86cce9c8acb7dec,2021-07-29_22h13.32.181,Simcolourproject_2stim_asymm_v5,2020.2.10,Win32,60,61025ae37ef11b136ea224fe,,,,,,,,,3924,88,-36.5,1,0,0,response3disk,,5,-4.666625977,2.166656494,1,0,0,rectangle,-4.666625977,2.166656494,1,0,0,-4.666625977,2.166656494,1,0,0,1,29,189,80,1,,,,,,,,
,,,,,,,,,,,,,FF,,,,,,,,2.536,,,,,,,,,,,,,,,,,,,,,,61036bc11cbe328e09cf25d3,61036e3ce86cce9c8acb7dec,2021-07-29_22h13.32.181,Simcolourproject_2stim_asymm_v5,2020.2.10,Win32,60,61025ae37ef11b136ea224fe,,,,,,,,,3321,50,78.83331299,1,0,0,response1disk,,7,8.666687012,0.166656494,1,0,0,rectangle,8.666687012,0.166656494,1,0,0,8.666687012,0.166656494,1,0,0,1,30,190,83,1,,,,,,,,
,,,,,,,,,,,,,FF,,,,,,,,0.8319,,,,,,,,,,,,,,,,,,,,,,61036bc11cbe328e09cf25d3,61036e3ce86cce9c8acb7dec,2021-07-29_22h13.32.181,Simcolourproject_2stim_asymm_v5,2020.2.10,Win32,60,61025ae37ef11b136ea224fe,,,,,,,,,3846,-71.33331299,-35.83334351,1,0,0,response5disk,,2,15.33337402,8.166656494,1,0,0,rectangle,15.33337402,8.166656494,1,0,0,15.33337402,8.166656494,1,0,0,1,31,191,76,1,,,,,,,,
,,,,,,,,,,,,,FF,,,,,,,,0.751,,,,,,,,,,,,,,,,,,,,,,61036bc11cbe328e09cf25d3,61036e3ce86cce9c8acb7dec,2021-07-29_22h13.32.181,Simcolourproject_2stim_asymm_v5,2020.2.10,Win32,60,61025ae37ef11b136ea224fe,,,,,,,,,600,35.33337402,75.5,1,0,0,response1disk,,7,2.666687012,6.833312988,1,0,0,rectangle,2.666687012,6.833312988,1,0,0,2.666687012,6.833312988,1,0,0,1,32,192,42,1,,,,,,,,
,,,,,,,,,,,,,FF,,,,,,,,0.9658,,,,,,,,,,,,,,,,,,,,,,61036bc11cbe328e09cf25d3,61036e3ce86cce9c8acb7dec,2021-07-29_22h13.32.181,Simcolourproject_2stim_asymm_v5,2020.2.10,Win32,60,61025ae37ef11b136ea224fe,,,,,,,,,1854,35.33337402,82.83331299,1,0,0,response1disk,,7,0,-3.166687012,1,0,0,rectangle,0,-3.166687012,1,0,0,0,-3.166687012,1,0,0,1,33,193,114,1,,,,,,,,
,,,,,,,,,,,,,FF,,,,,,,,0.95,,,,,,,,,,,,,,,,,,,,,,61036bc11cbe328e09cf25d3,61036e3ce86cce9c8acb7dec,2021-07-29_22h13.32.181,Simcolourproject_2stim_asymm_v5,2020.2.10,Win32,60,61025ae37ef11b136ea224fe,,,,,,,,,1097,36,85.5,1,0,0,response1disk,,7,-0.666625977,3.5,1,0,0,rectangle,-0.666625977,3.5,1,0,0,-0.666625977,3.5,1,0,0,1,34,194,87,1,,,,,,,,
,,,,,,,,,,,,,FF,,,,,,,,0.4673,,,,,,,,,,,,,,,,,,,,,,61036bc11cbe328e09cf25d3,61036e3ce86cce9c8acb7dec,2021-07-29_22h13.32.181,Simcolourproject_2stim_asymm_v5,2020.2.10,Win32,60,61025ae37ef11b136ea224fe,,,,,,,,,1023,33.33337402,88.83331299,1,0,0,response1disk,,7,-6.666625977,2.166656494,1,0,0,rectangle,-6.666625977,2.166656494,1,0,0,-6.666625977,2.166656494,1,0,0,1,35,195,130,1,,,,,,,,
,,,,,,,,,,,,,FF,,,,,,,,0.5961,,,,,,,,,,,,,,,,,,,,,,61036bc11cbe328e09cf25d3,61036e3ce86cce9c8acb7dec,2021-07-29_22h13.32.181,Simcolourproject_2stim_asymm_v5,2020.2.10,Win32,60,61025ae37ef11b136ea224fe,,,,,,,,,2813,38,84.83331299,1,0,0,response1disk,,7,6.666687012,6.166656494,1,0,0,rectangle,6.666687012,6.166656494,1,0,0,6.666687012,6.166656494,1,0,0,1,36,196,23,1,,,,,,,,
,,,,,,,,,,,,,FF,,,,,,,,0.5173,,,,,,,,,,,,,,,,,,,,,,61036bc11cbe328e09cf25d3,61036e3ce86cce9c8acb7dec,2021-07-29_22h13.32.181,Simcolourproject_2stim_asymm_v5,2020.2.10,Win32,60,61025ae37ef11b136ea224fe,,,,,,,,,2600,45.33337402,78.83331299,1,0,0,response1disk,,7,-0.666625977,-1.166687012,1,0,0,rectangle,-0.666625977,-1.166687012,1,0,0,-0.666625977,-1.166687012,1,0,0,1,37,197,107,1,,,,,,,,
,,,,,,,,,,,,,FF,,,,,,,,0.8655,,,,,,,,,,,,,,,,,,,,,,61036bc11cbe328e09cf25d3,61036e3ce86cce9c8acb7dec,2021-07-29_22h13.32.181,Simcolourproject_2stim_asymm_v5,2020.2.10,Win32,60,61025ae37ef11b136ea224fe,,,,,,,,,3193,81.33337402,35.5,1,0,0,response1disk,,6,2.666687012,-1.166687012,1,0,0,rectangle,2.666687012,-1.166687012,1,0,0,2.666687012,-1.166687012,1,0,0,1,38,198,128,1,,,,,,,,
,,,,,,,,,,,,,FF,,,,,,,,1.5319,,,,,,,,,,,,,,,,,,,,,,61036bc11cbe328e09cf25d3,61036e3ce86cce9c8acb7dec,2021-07-29_22h13.32.181,Simcolourproject_2stim_asymm_v5,2020.2.10,Win32,60,61025ae37ef11b136ea224fe,,,,,,,,,2295,87.33337402,-37.16668701,1,0,0,response3disk,,5,-4.666625977,4.166656494,1,0,0,rectangle,-4.666625977,4.166656494,1,0,0,-4.666625977,4.166656494,1,0,0,1,39,199,94,1,,,,,,,,
,,,,,,,,,,,,,FF,,,,,,,,0.8174,,,,,,,,,,,,,,,,,,,,,,61036bc11cbe328e09cf25d3,61036e3ce86cce9c8acb7dec,2021-07-29_22h13.32.181,Simcolourproject_2stim_asymm_v5,2020.2.10,Win32,60,61025ae37ef11b136ea224fe,,,,,,,,,367,-36.66662598,-89.16668701,1,0,0,response5disk,,3,5.333374023,4.166656494,1,0,0,rectangle,5.333374023,4.166656494,1,0,0,5.333374023,4.166656494,1,0,0,1,40,200,86,1,,,,,,,,
,,,,,,,,,,,,,FF,,,,,,,,1.2495,,,,,,,,,,,,,,,,,,,,,,61036bc11cbe328e09cf25d3,61036e3ce86cce9c8acb7dec,2021-07-29_22h13.32.181,Simcolourproject_2stim_asymm_v5,2020.2.10,Win32,60,61025ae37ef11b136ea224fe,,,,,,,,,1254,36,82.16665649,1,0,0,response1disk,,7,10,6.833312988,1,0,0,rectangle,10,6.833312988,1,0,0,10,6.833312988,1,0,0,1,41,201,113,1,,,,,,,,
,,,,,,,,,,,,,FF,,,,,,,,0.5976,,,,,,,,,,,,,,,,,,,,,,61036bc11cbe328e09cf25d3,61036e3ce86cce9c8acb7dec,2021-07-29_22h13.32.181,Simcolourproject_2stim_asymm_v5,2020.2.10,Win32,60,61025ae37ef11b136ea224fe,,,,,,,,,1489,37.33337402,86.16665649,1,0,0,response1disk,,7,9.333374023,3.5,1,0,0,rectangle,9.333374023,3.5,1,0,0,9.333374023,3.5,1,0,0,1,42,202,153,1,,,,,,,,
,,,,,,,,,,,,,FF,,,,,,,,0.7659,,,,,,,,,,,,,,,,,,,,,,61036bc11cbe328e09cf25d3,61036e3ce86cce9c8acb7dec,2021-07-29_22h13.32.181,Simcolourproject_2stim_asymm_v5,2020.2.10,Win32,60,61025ae37ef11b136ea224fe,,,,,,,,,2238,89.33337402,-45.16668701,1,0,0,response3disk,,5,4.666687012,4.166656494,1,0,0,rectangle,4.666687012,4.166656494,1,0,0,4.666687012,4.166656494,1,0,0,1,43,203,131,1,,,,,,,,
,,,,,,,,,,,,,FF,,,,,,,,1.5358,,,,,,,,,,,,,,,,,,,,,,61036bc11cbe328e09cf25d3,61036e3ce86cce9c8acb7dec,2021-07-29_22h13.32.181,Simcolourproject_2stim_asymm_v5,2020.2.10,Win32,60,61025ae37ef11b136ea224fe,,,,,,,,,3771,43.33337402,-93.16668701,1,0,0,response3disk,,4,-11.33331299,4.166656494,1,0,0,rectangle,-11.33331299,4.166656494,1,0,0,-11.33331299,4.166656494,1,0,0,1,44,204,99,1,,,,,,,,
,,,,,,,,,,,,,FF,,,,,,,,0.7207,,,,,,,,,,,,,,,,,,,,,,61036bc11cbe328e09cf25d3,61036e3ce86cce9c8acb7dec,2021-07-29_22h13.32.181,Simcolourproject_2stim_asymm_v5,2020.2.10,Win32,60,61025ae37ef11b136ea224fe,,,,,,,,,4315,34.66668701,92.83331299,1,0,0,response1disk,,7,4,2.166656494,1,0,0,rectangle,4,2.166656494,1,0,0,4,2.166656494,1,0,0,1,45,205,89,1,,,,,,,,
,,,,,,,,,,,,,FF,,,,,,,,1.0331,,,,,,,,,,,,,,,,,,,,,,61036bc11cbe328e09cf25d3,61036e3ce86cce9c8acb7dec,2021-07-29_22h13.32.181,Simcolourproject_2stim_asymm_v5,2020.2.10,Win32,60,61025ae37ef11b136ea224fe,,,,,,,,,3418,90,33.5,1,0,0,response1disk,,6,-0.666625977,-3.166687012,1,0,0,rectangle,-0.666625977,-3.166687012,1,0,0,-0.666625977,-3.166687012,1,0,0,1,46,206,15,1,,,,,,,,
,,,,,,,,,,,,,FF,,,,,,,,0.7131,,,,,,,,,,,,,,,,,,,,,,61036bc11cbe328e09cf25d3,61036e3ce86cce9c8acb7dec,2021-07-29_22h13.32.181,Simcolourproject_2stim_asymm_v5,2020.2.10,Win32,60,61025ae37ef11b136ea224fe,,,,,,,,,2982,36,68.16665649,1,0,0,response1disk,,7,2,0.833312988,1,0,0,rectangle,2,0.833312988,1,0,0,2,0.833312988,1,0,0,1,47,207,41,1,,,,,,,,
,,,,,,,,,,,,,FF,,,,,,,,0.7997,,,,,,,,,,,,,,,,,,,,,,61036bc11cbe328e09cf25d3,61036e3ce86cce9c8acb7dec,2021-07-29_22h13.32.181,Simcolourproject_2stim_asymm_v5,2020.2.10,Win32,60,61025ae37ef11b136ea224fe,,,,,,,,,2458,91.33337402,42.83331299,1,0,0,response1disk,,6,8,-2.5,1,0,0,rectangle,8,-2.5,1,0,0,8,-2.5,1,0,0,1,48,208,0,1,,,,,,,,
,,,,,,,,,,,,,FF,,,,,,,,0.7878,,,,,,,,,,,,,,,,,,,,,,61036bc11cbe328e09cf25d3,61036e3ce86cce9c8acb7dec,2021-07-29_22h13.32.181,Simcolourproject_2stim_asymm_v5,2020.2.10,Win32,60,61025ae37ef11b136ea224fe,,,,,,,,,3489,85.33337402,39.5,1,0,0,response1disk,,6,3.333374023,5.5,1,0,0,rectangle,3.333374023,5.5,1,0,0,3.333374023,5.5,1,0,0,1,49,209,52,1,,,,,,,,
,,,,,,,,,,,,,FF,,,,,,,,1.033,,,,,,,,,,,,,,,,,,,,,,61036bc11cbe328e09cf25d3,61036e3ce86cce9c8acb7dec,2021-07-29_22h13.32.181,Simcolourproject_2stim_asymm_v5,2020.2.10,Win32,60,61025ae37ef11b136ea224fe,,,,,,,,,2417,71.33337402,-34.5,1,0,0,response3disk,,5,8.666687012,-7.166687012,1,0,0,rectangle,8.666687012,-7.166687012,1,0,0,8.666687012,-7.166687012,1,0,0,1,50,210,66,1,,,,,,,,
,,,,,,,,,,,,,FF,,,,,,,,0.5815,,,,,,,,,,,,,,,,,,,,,,61036bc11cbe328e09cf25d3,61036e3ce86cce9c8acb7dec,2021-07-29_22h13.32.181,Simcolourproject_2stim_asymm_v5,2020.2.10,Win32,60,61025ae37ef11b136ea224fe,,,,,,,,,116,26.66668701,76.83331299,1,0,0,response1disk,,7,-8,-3.833343506,1,0,0,rectangle,-8,-3.833343506,1,0,0,-8,-3.833343506,1,0,0,1,51,211,110,1,,,,,,,,
,,,,,,,,,,,,,FF,,,,,,,,0.816,,,,,,,,,,,,,,,,,,,,,,61036bc11cbe328e09cf25d3,61036e3ce86cce9c8acb7dec,2021-07-29_22h13.32.181,Simcolourproject_2stim_asymm_v5,2020.2.10,Win32,60,61025ae37ef11b136ea224fe,,,,,,,,,1028,88,42.83331299,1,0,0,response1disk,,6,12,-1.833343506,1,0,0,rectangle,12,-1.833343506,1,0,0,12,-1.833343506,1,0,0,1,52,212,18,1,,,,,,,,
,,,,,,,,,,,,,FF,,,,,,,,0.4341,,,,,,,,,,,,,,,,,,,,,,61036bc11cbe328e09cf25d3,61036e3ce86cce9c8acb7dec,2021-07-29_22h13.32.181,Simcolourproject_2stim_asymm_v5,2020.2.10,Win32,60,61025ae37ef11b136ea224fe,,,,,,,,,2278,38,81.5,1,0,0,response1disk,,7,2,-7.833343506,1,0,0,rectangle,2,-7.833343506,1,0,0,2,-7.833343506,1,0,0,1,53,213,106,1,,,,,,,,
,,,,,,,,,,,,,FF,,,,,,,,0.4714,,,,,,,,,,,,,,,,,,,,,,61036bc11cbe328e09cf25d3,61036e3ce86cce9c8acb7dec,2021-07-29_22h13.32.181,Simcolourproject_2stim_asymm_v5,2020.2.10,Win32,60,61025ae37ef11b136ea224fe,,,,,,,,,3070,32,84.83331299,1,0,0,response1disk,,7,-2,11.5,1,0,0,rectangle,-2,11.5,1,0,0,-2,11.5,1,0,0,1,54,214,121,1,,,,,,,,
,,,,,,,,,,,,,FF,,,,,,,,0.7167,,,,,,,,,,,,,,,,,,,,,,61036bc11cbe328e09cf25d3,61036e3ce86cce9c8acb7dec,2021-07-29_22h13.32.181,Simcolourproject_2stim_asymm_v5,2020.2.10,Win32,60,61025ae37ef11b136ea224fe,,,,,,,,,2837,82.66668701,-29.83334351,1,0,0,response3disk,,5,-7.333312988,-5.166687012,1,0,0,rectangle,-7.333312988,-5.166687012,1,0,0,-7.333312988,-5.166687012,1,0,0,1,55,215,55,1,,,,,,,,
,,,,,,,,,,,,,FF,,,,,,,,0.7667,,,,,,,,,,,,,,,,,,,,,,61036bc11cbe328e09cf25d3,61036e3ce86cce9c8acb7dec,2021-07-29_22h13.32.181,Simcolourproject_2stim_asymm_v5,2020.2.10,Win32,60,61025ae37ef11b136ea224fe,,,,,,,,,272,44,86.16665649,1,0,0,response1disk,,7,3.333374023,-2.5,1,0,0,rectangle,3.333374023,-2.5,1,0,0,3.333374023,-2.5,1,0,0,1,56,216,136,1,,,,,,,,
,,,,,,,,,,,,,FF,,,,,,,,1.3167,,,,,,,,,,,,,,,,,,,,,,61036bc11cbe328e09cf25d3,61036e3ce86cce9c8acb7dec,2021-07-29_22h13.32.181,Simcolourproject_2stim_asymm_v5,2020.2.10,Win32,60,61025ae37ef11b136ea224fe,,,,,,,,,2845,38,-80.5,1,0,0,response3disk,,4,9.333374023,3.5,1,0,0,rectangle,9.333374023,3.5,1,0,0,9.333374023,3.5,1,0,0,1,57,217,150,1,,,,,,,,
,,,,,,,,,,,,,FF,,,,,,,,0.8197,,,,,,,,,,,,,,,,,,,,,,61036bc11cbe328e09cf25d3,61036e3ce86cce9c8acb7dec,2021-07-29_22h13.32.181,Simcolourproject_2stim_asymm_v5,2020.2.10,Win32,60,61025ae37ef11b136ea224fe,,,,,,,,,1111,38.66668701,74.83331299,1,0,0,response1disk,,7,-6.666625977,2.166656494,1,0,0,rectangle,-6.666625977,2.166656494,1,0,0,-6.666625977,2.166656494,1,0,0,1,58,218,19,1,,,,,,,,
,,,,,,,,,,,,,FF,,,,,,,,0.7167,,,,,,,,,,,,,,,,,,,,,,61036bc11cbe328e09cf25d3,61036e3ce86cce9c8acb7dec,2021-07-29_22h13.32.181,Simcolourproject_2stim_asymm_v5,2020.2.10,Win32,60,61025ae37ef11b136ea224fe,,,,,,,,,2167,-36.66662598,79.5,1,0,0,response7disk,,0,-11.33331299,-3.166687012,1,0,0,rectangle,-11.33331299,-3.166687012,1,0,0,-11.33331299,-3.166687012,1,0,0,1,59,219,68,1,,,,,,,,
,,,,,,,,,,,,,FF,,,,,,,,0.7,,,,,,,,,,,,,,,,,,,,,,61036bc11cbe328e09cf25d3,61036e3ce86cce9c8acb7dec,2021-07-29_22h13.32.181,Simcolourproject_2stim_asymm_v5,2020.2.10,Win32,60,61025ae37ef11b136ea224fe,,,,,,,,,2144,45.33337402,86.16665649,1,0,0,response1disk,,7,-2,-6.5,1,0,0,rectangle,48.66668701,-79.16668701,1,0,0,10,4.166656494,1,0,0,1,60,220,57,1,,response3disk_3,TRUE,4,4,"[7,182,70,133,281,305,115,221,221,127,145,152,26,294,252,20,176,74,115,242]",1.7493,rectangle
,,,,,,,,,,,,,FF,,,,,,,,1.4534,,,,,,,,,,,,,,,,,,,,,,61036bc11cbe328e09cf25d3,61036e3ce86cce9c8acb7dec,2021-07-29_22h13.32.181,Simcolourproject_2stim_asymm_v5,2020.2.10,Win32,60,61025ae37ef11b136ea224fe,,,,,,,,,447,79.33337402,26.16665649,1,0,0,response1disk,,6,-1.333312988,0.166656494,1,0,0,rectangle,-1.333312988,0.166656494,1,0,0,-1.333312988,0.166656494,1,0,0,1,61,221,33,1,,,,,,,,
,,,,,,,,,,,,,FF,,,,,,,,1.2829,,,,,,,,,,,,,,,,,,,,,,61036bc11cbe328e09cf25d3,61036e3ce86cce9c8acb7dec,2021-07-29_22h13.32.181,Simcolourproject_2stim_asymm_v5,2020.2.10,Win32,60,61025ae37ef11b136ea224fe,,,,,,,,,3970,42,-97.16668701,1,0,0,response3disk,,4,-4,-5.166687012,1,0,0,rectangle,-4,-5.166687012,1,0,0,-4,-5.166687012,1,0,0,1,62,222,137,1,,,,,,,,
,,,,,,,,,,,,,FF,,,,,,,,1.2166,,,,,,,,,,,,,,,,,,,,,,61036bc11cbe328e09cf25d3,61036e3ce86cce9c8acb7dec,2021-07-29_22h13.32.181,Simcolourproject_2stim_asymm_v5,2020.2.10,Win32,60,61025ae37ef11b136ea224fe,,,,,,,,,424,36,-87.83334351,1,0,0,response3disk,,4,-6,8.166656494,1,0,0,rectangle,-6,8.166656494,1,0,0,-6,8.166656494,1,0,0,1,63,223,98,1,,,,,,,,
,,,,,,,,,,,,,FF,,,,,,,,0.7663,,,,,,,,,,,,,,,,,,,,,,61036bc11cbe328e09cf25d3,61036e3ce86cce9c8acb7dec,2021-07-29_22h13.32.181,Simcolourproject_2stim_asymm_v5,2020.2.10,Win32,60,61025ae37ef11b136ea224fe,,,,,,,,,3178,86.66668701,-20.5,1,0,0,response3disk,,5,5.333374023,2.833312988,1,0,0,rectangle,5.333374023,2.833312988,1,0,0,5.333374023,2.833312988,1,0,0,1,64,224,138,1,,,,,,,,
,,,,,,,,,,,,,FF,,,,,,,,1.1664,,,,,,,,,,,,,,,,,,,,,,61036bc11cbe328e09cf25d3,61036e3ce86cce9c8acb7dec,2021-07-29_22h13.32.181,Simcolourproject_2stim_asymm_v5,2020.2.10,Win32,60,61025ae37ef11b136ea224fe,,,,,,,,,1679,80,-44.5,1,0,0,response3disk,,5,-4.666625977,10.16665649,1,0,0,rectangle,-4.666625977,10.16665649,1,0,0,-4.666625977,10.16665649,1,0,0,1,65,225,70,1,,,,,,,,
,,,,,,,,,,,,,FF,,,,,,,,0.9695,,,,,,,,,,,,,,,,,,,,,,61036bc11cbe328e09cf25d3,61036e3ce86cce9c8acb7dec,2021-07-29_22h13.32.181,Simcolourproject_2stim_asymm_v5,2020.2.10,Win32,60,61025ae37ef11b136ea224fe,,,,,,,,,212,38.66668701,76.83331299,1,0,0,response1disk,,7,1.333374023,0.166656494,1,0,0,rectangle,1.333374023,0.166656494,1,0,0,1.333374023,0.166656494,1,0,0,1,66,226,72,1,,,,,,,,
,,,,,,,,,,,,,FF,,,,,,,,0.8177,,,,,,,,,,,,,,,,,,,,,,61036bc11cbe328e09cf25d3,61036e3ce86cce9c8acb7dec,2021-07-29_22h13.32.181,Simcolourproject_2stim_asymm_v5,2020.2.10,Win32,60,61025ae37ef11b136ea224fe,,,,,,,,,1564,38.66668701,71.5,1,0,0,response1disk,,7,-3.333312988,-1.833343506,1,0,0,rectangle,-3.333312988,-1.833343506,1,0,0,-3.333312988,-1.833343506,1,0,0,1,67,227,46,1,,,,,,,,
,,,,,,,,,,,,,FF,,,,,,,,0.6325,,,,,,,,,,,,,,,,,,,,,,61036bc11cbe328e09cf25d3,61036e3ce86cce9c8acb7dec,2021-07-29_22h13.32.181,Simcolourproject_2stim_asymm_v5,2020.2.10,Win32,60,61025ae37ef11b136ea224fe,,,,,,,,,2795,75.33337402,24.83331299,1,0,0,response1disk,,6,4.666687012,0.166656494,1,0,0,rectangle,4.666687012,0.166656494,1,0,0,4.666687012,0.166656494,1,0,0,1,68,228,63,1,,,,,,,,
,,,,,,,,,,,,,FF,,,,,,,,0.5823,,,,,,,,,,,,,,,,,,,,,,61036bc11cbe328e09cf25d3,61036e3ce86cce9c8acb7dec,2021-07-29_22h13.32.181,Simcolourproject_2stim_asymm_v5,2020.2.10,Win32,60,61025ae37ef11b136ea224fe,,,,,,,,,731,77.33337402,-33.83334351,1,0,0,response3disk,,5,-7.333312988,2.166656494,1,0,0,rectangle,-7.333312988,2.166656494,1,0,0,-7.333312988,2.166656494,1,0,0,1,69,229,156,1,,,,,,,,
,,,,,,,,,,,,,FF,,,,,,,,0.7495,,,,,,,,,,,,,,,,,,,,,,61036bc11cbe328e09cf25d3,61036e3ce86cce9c8acb7dec,2021-07-29_22h13.32.181,Simcolourproject_2stim_asymm_v5,2020.2.10,Win32,60,61025ae37ef11b136ea224fe,,,,,,,,,2706,74.66668701,-32.5,1,0,0,response3disk,,5,-6,8.166656494,1,0,0,rectangle,-6,8.166656494,1,0,0,-6,8.166656494,1,0,0,1,70,230,25,1,,,,,,,,
,,,,,,,,,,,,,FF,,,,,,,,0.6994,,,,,,,,,,,,,,,,,,,,,,61036bc11cbe328e09cf25d3,61036e3ce86cce9c8acb7dec,2021-07-29_22h13.32.181,Simcolourproject_2stim_asymm_v5,2020.2.10,Win32,60,61025ae37ef11b136ea224fe,,,,,,,,,3994,-34.66662598,-89.16668701,1,0,0,response5disk,,3,3.333374023,-2.5,1,0,0,rectangle,3.333374023,-2.5,1,0,0,3.333374023,-2.5,1,0,0,1,71,231,148,1,,,,,,,,
,,,,,,,,,,,,,FF,,,,,,,,1.3007,,,,,,,,,,,,,,,,,,,,,,61036bc11cbe328e09cf25d3,61036e3ce86cce9c8acb7dec,2021-07-29_22h13.32.181,Simcolourproject_2stim_asymm_v5,2020.2.10,Win32,60,61025ae37ef11b136ea224fe,,,,,,,,,2768,80.66668701,-45.83334351,1,0,0,response3disk,,5,-5.333312988,8.833312988,1,0,0,rectangle,-5.333312988,8.833312988,1,0,0,-5.333312988,8.833312988,1,0,0,1,72,232,40,1,,,,,,,,
,,,,,,,,,,,,,FF,,,,,,,,0.9697,,,,,,,,,,,,,,,,,,,,,,61036bc11cbe328e09cf25d3,61036e3ce86cce9c8acb7dec,2021-07-29_22h13.32.181,Simcolourproject_2stim_asymm_v5,2020.2.10,Win32,60,61025ae37ef11b136ea224fe,,,,,,,,,2798,38.66668701,80.16665649,1,0,0,response1disk,,7,18,2.166656494,1,0,0,rectangle,18,2.166656494,1,0,0,18,2.166656494,1,0,0,1,73,233,29,1,,,,,,,,
,,,,,,,,,,,,,FF,,,,,,,,0.6531,,,,,,,,,,,,,,,,,,,,,,61036bc11cbe328e09cf25d3,61036e3ce86cce9c8acb7dec,2021-07-29_22h13.32.181,Simcolourproject_2stim_asymm_v5,2020.2.10,Win32,60,61025ae37ef11b136ea224fe,,,,,,,,,3500,40.66668701,82.16665649,1,0,0,response1disk,,7,9.333374023,-0.5,1,0,0,rectangle,9.333374023,-0.5,1,0,0,9.333374023,-0.5,1,0,0,1,74,234,56,1,,,,,,,,
,,,,,,,,,,,,,FF,,,,,,,,0.5503,,,,,,,,,,,,,,,,,,,,,,61036bc11cbe328e09cf25d3,61036e3ce86cce9c8acb7dec,2021-07-29_22h13.32.181,Simcolourproject_2stim_asymm_v5,2020.2.10,Win32,60,61025ae37ef11b136ea224fe,,,,,,,,,998,44.66668701,85.5,1,0,0,response1disk,,7,5.333374023,8.166656494,1,0,0,rectangle,5.333374023,8.166656494,1,0,0,5.333374023,8.166656494,1,0,0,1,75,235,32,1,,,,,,,,
,,,,,,,,,,,,,FF,,,,,,,,0.7827,,,,,,,,,,,,,,,,,,,,,,61036bc11cbe328e09cf25d3,61036e3ce86cce9c8acb7dec,2021-07-29_22h13.32.181,Simcolourproject_2stim_asymm_v5,2020.2.10,Win32,60,61025ae37ef11b136ea224fe,,,,,,,,,528,80,28.83331299,1,0,0,response1disk,,6,0.666687012,-4.5,1,0,0,rectangle,0.666687012,-4.5,1,0,0,0.666687012,-4.5,1,0,0,1,76,236,147,1,,,,,,,,
,,,,,,,,,,,,,FF,,,,,,,,0.7171,,,,,,,,,,,,,,,,,,,,,,61036bc11cbe328e09cf25d3,61036e3ce86cce9c8acb7dec,2021-07-29_22h13.32.181,Simcolourproject_2stim_asymm_v5,2020.2.10,Win32,60,61025ae37ef11b136ea224fe,,,,,,,,,401,38.66668701,76.16665649,1,0,0,response1disk,,7,6.666687012,0.166656494,1,0,0,rectangle,6.666687012,0.166656494,1,0,0,6.666687012,0.166656494,1,0,0,1,77,237,91,1,,,,,,,,
,,,,,,,,,,,,,FF,,,,,,,,0.8833,,,,,,,,,,,,,,,,,,,,,,61036bc11cbe328e09cf25d3,61036e3ce86cce9c8acb7dec,2021-07-29_22h13.32.181,Simcolourproject_2stim_asymm_v5,2020.2.10,Win32,60,61025ae37ef11b136ea224fe,,,,,,,,,2683,49.33337402,-91.16668701,1,0,0,response3disk,,4,5.333374023,8.166656494,1,0,0,rectangle,5.333374023,8.166656494,1,0,0,5.333374023,8.166656494,1,0,0,1,78,238,74,1,,,,,,,,
,,,,,,,,,,,,,FF,,,,,,,,0.787,,,,,,,,,,,,,,,,,,,,,,61036bc11cbe328e09cf25d3,61036e3ce86cce9c8acb7dec,2021-07-29_22h13.32.181,Simcolourproject_2stim_asymm_v5,2020.2.10,Win32,60,61025ae37ef11b136ea224fe,,,,,,,,,2408,30,81.5,1,0,0,response1disk,,7,-6,4.166656494,1,0,0,rectangle,-6,4.166656494,1,0,0,-6,4.166656494,1,0,0,1,79,239,102,1,,,,,,,,
,,,,,,,,,,,,,FF,,,,,,,,1.2533,,,,,,,,,,,,,,,,,,,,,,61036bc11cbe328e09cf25d3,61036e3ce86cce9c8acb7dec,2021-07-29_22h13.32.181,Simcolourproject_2stim_asymm_v5,2020.2.10,Win32,60,61025ae37ef11b136ea224fe,,,,,,,,,4282,-79.33331299,-37.83334351,1,0,0,response5disk,,2,12,1.5,1,0,0,rectangle,12,1.5,1,0,0,12,1.5,1,0,0,1,80,240,79,1,,,,,,,,
,,,,,,,,,,,,,FF,,,,,,,,1.133,,,,,,,,,,,,,,,,,,,,,,61036bc11cbe328e09cf25d3,61036e3ce86cce9c8acb7dec,2021-07-29_22h13.32.181,Simcolourproject_2stim_asymm_v5,2020.2.10,Win32,60,61025ae37ef11b136ea224fe,,,,,,,,,3287,61.33337402,-34.5,1,0,0,response3disk,,5,-3.333312988,2.833312988,1,0,0,rectangle,-87.33331299,-31.83334351,1,0,0,-0.666625977,-9.833343506,1,0,0,1,81,241,24,1,,response5disk_3,TRUE,2,2,"[7,182,70,133,281,305,115,221,221,127,145,152,26,294,252,20,176,74,115,242]",1.5662,rectangle
,,,,,,,,,,,,,FF,,,,,,,,0.7166,,,,,,,,,,,,,,,,,,,,,,61036bc11cbe328e09cf25d3,61036e3ce86cce9c8acb7dec,2021-07-29_22h13.32.181,Simcolourproject_2stim_asymm_v5,2020.2.10,Win32,60,61025ae37ef11b136ea224fe,,,,,,,,,1743,-30,76.83331299,1,0,0,response7disk,,0,14,2.833312988,1,0,0,rectangle,14,2.833312988,1,0,0,14,2.833312988,1,0,0,1,82,242,126,1,,,,,,,,
,,,,,,,,,,,,,FF,,,,,,,,0.666,,,,,,,,,,,,,,,,,,,,,,61036bc11cbe328e09cf25d3,61036e3ce86cce9c8acb7dec,2021-07-29_22h13.32.181,Simcolourproject_2stim_asymm_v5,2020.2.10,Win32,60,61025ae37ef11b136ea224fe,,,,,,,,,812,44,91.5,1,0,0,response1disk,,7,15.33337402,4.166656494,1,0,0,rectangle,15.33337402,4.166656494,1,0,0,15.33337402,4.166656494,1,0,0,1,83,243,58,1,,,,,,,,
,,,,,,,,,,,,,FF,,,,,,,,0.7654,,,,,,,,,,,,,,,,,,,,,,61036bc11cbe328e09cf25d3,61036e3ce86cce9c8acb7dec,2021-07-29_22h13.32.181,Simcolourproject_2stim_asymm_v5,2020.2.10,Win32,60,61025ae37ef11b136ea224fe,,,,,,,,,2956,104,-41.16668701,1,0,0,response3disk,,5,17.33337402,0.166656494,1,0,0,rectangle,17.33337402,0.166656494,1,0,0,17.33337402,0.166656494,1,0,0,1,84,244,2,1,,,,,,,,
,,,,,,,,,,,,,FF,,,,,,,,1.1844,,,,,,,,,,,,,,,,,,,,,,61036bc11cbe328e09cf25d3,61036e3ce86cce9c8acb7dec,2021-07-29_22h13.32.181,Simcolourproject_2stim_asymm_v5,2020.2.10,Win32,60,61025ae37ef11b136ea224fe,,,,,,,,,4102,-78,-45.16668701,1,0,0,response5disk,,2,15.33337402,2.166656494,1,0,0,rectangle,15.33337402,2.166656494,1,0,0,15.33337402,2.166656494,1,0,0,1,85,245,11,1,,,,,,,,
,,,,,,,,,,,,,FF,,,,,,,,1.2503,,,,,,,,,,,,,,,,,,,,,,61036bc11cbe328e09cf25d3,61036e3ce86cce9c8acb7dec,2021-07-29_22h13.32.181,Simcolourproject_2stim_asymm_v5,2020.2.10,Win32,60,61025ae37ef11b136ea224fe,,,,,,,,,819,39.33337402,-77.83334351,1,0,0,response3disk,,4,8,6.166656494,1,0,0,rectangle,8,6.166656494,1,0,0,8,6.166656494,1,0,0,1,86,246,103,1,,,,,,,,
,,,,,,,,,,,,,FF,,,,,,,,0.5981,,,,,,,,,,,,,,,,,,,,,,61036bc11cbe328e09cf25d3,61036e3ce86cce9c8acb7dec,2021-07-29_22h13.32.181,Simcolourproject_2stim_asymm_v5,2020.2.10,Win32,60,61025ae37ef11b136ea224fe,,,,,,,,,2343,34,80.16665649,1,0,0,response1disk,,7,-9.333312988,-2.5,1,0,0,rectangle,-9.333312988,-2.5,1,0,0,-9.333312988,-2.5,1,0,0,1,87,247,39,1,,,,,,,,
,,,,,,,,,,,,,FF,,,,,,,,0.6998,,,,,,,,,,,,,,,,,,,,,,61036bc11cbe328e09cf25d3,61036e3ce86cce9c8acb7dec,2021-07-29_22h13.32.181,Simcolourproject_2stim_asymm_v5,2020.2.10,Win32,60,61025ae37ef11b136ea224fe,,,,,,,,,2966,41.33337402,80.16665649,1,0,0,response1disk,,7,-1.333312988,0.833312988,1,0,0,rectangle,-1.333312988,0.833312988,1,0,0,-1.333312988,0.833312988,1,0,0,1,88,248,142,1,,,,,,,,
,,,,,,,,,,,,,FF,,,,,,,,0.7335,,,,,,,,,,,,,,,,,,,,,,61036bc11cbe328e09cf25d3,61036e3ce86cce9c8acb7dec,2021-07-29_22h13.32.181,Simcolourproject_2stim_asymm_v5,2020.2.10,Win32,60,61025ae37ef11b136ea224fe,,,,,,,,,2644,35.33337402,79.5,1,0,0,response1disk,,7,2,-1.833343506,1,0,0,rectangle,2,-1.833343506,1,0,0,2,-1.833343506,1,0,0,1,89,249,104,1,,,,,,,,
,,,,,,,,,,,,,FF,,,,,,,,1.4499,,,,,,,,,,,,,,,,,,,,,,61036bc11cbe328e09cf25d3,61036e3ce86cce9c8acb7dec,2021-07-29_22h13.32.181,Simcolourproject_2stim_asymm_v5,2020.2.10,Win32,60,61025ae37ef11b136ea224fe,,,,,,,,,3145,85.33337402,23.5,1,0,0,response1disk,,6,15.33337402,-8.5,1,0,0,rectangle,15.33337402,-8.5,1,0,0,15.33337402,-8.5,1,0,0,1,90,250,9,1,,,,,,,,
,,,,,,,,,,,,,FF,,,,,,,,0.6361,,,,,,,,,,,,,,,,,,,,,,61036bc11cbe328e09cf25d3,61036e3ce86cce9c8acb7dec,2021-07-29_22h13.32.181,Simcolourproject_2stim_asymm_v5,2020.2.10,Win32,60,61025ae37ef11b136ea224fe,,,,,,,,,2506,43.33337402,85.5,1,0,0,response1disk,,7,2,0.833312988,1,0,0,rectangle,-77.33331299,36.16665649,1,0,0,-6,4.166656494,1,0,0,1,91,251,67,1,,response7disk_3,TRUE,1,1,"[7,182,70,133,281,305,115,221,221,127,145,152,26,294,252,20,176,74,115,242]",1.3154,rectangle
,,,,,,,,,,,,,FF,,,,,,,,1.0141,,,,,,,,,,,,,,,,,,,,,,61036bc11cbe328e09cf25d3,61036e3ce86cce9c8acb7dec,2021-07-29_22h13.32.181,Simcolourproject_2stim_asymm_v5,2020.2.10,Win32,60,61025ae37ef11b136ea224fe,,,,,,,,,692,36.66668701,76.16665649,1,0,0,response1disk,,7,3.333374023,-9.833343506,1,0,0,rectangle,3.333374023,-9.833343506,1,0,0,3.333374023,-9.833343506,1,0,0,1,92,252,14,1,,,,,,,,
,,,,,,,,,,,,,FF,,,,,,,,0.9331,,,,,,,,,,,,,,,,,,,,,,61036bc11cbe328e09cf25d3,61036e3ce86cce9c8acb7dec,2021-07-29_22h13.32.181,Simcolourproject_2stim_asymm_v5,2020.2.10,Win32,60,61025ae37ef11b136ea224fe,,,,,,,,,4113,38.66668701,86.16665649,1,0,0,response1disk,,7,-4,8.166656494,1,0,0,rectangle,-4,8.166656494,1,0,0,-4,8.166656494,1,0,0,1,93,253,117,1,,,,,,,,
,,,,,,,,,,,,,FF,,,,,,,,0.9998,,,,,,,,,,,,,,,,,,,,,,61036bc11cbe328e09cf25d3,61036e3ce86cce9c8acb7dec,2021-07-29_22h13.32.181,Simcolourproject_2stim_asymm_v5,2020.2.10,Win32,60,61025ae37ef11b136ea224fe,,,,,,,,,99,36.66668701,-85.83334351,1,0,0,response3disk,,4,11.33337402,1.5,1,0,0,rectangle,11.33337402,1.5,1,0,0,11.33337402,1.5,1,0,0,1,94,254,5,1,,,,,,,,
,,,,,,,,,,,,,FF,,,,,,,,0.5366,,,,,,,,,,,,,,,,,,,,,,61036bc11cbe328e09cf25d3,61036e3ce86cce9c8acb7dec,2021-07-29_22h13.32.181,Simcolourproject_2stim_asymm_v5,2020.2.10,Win32,60,61025ae37ef11b136ea224fe,,,,,,,,,1868,44,75.5,1,0,0,response1disk,,7,3.333374023,6.833312988,1,0,0,rectangle,3.333374023,6.833312988,1,0,0,3.333374023,6.833312988,1,0,0,1,95,255,21,1,,,,,,,,
,,,,,,,,,,,,,FF,,,,,,,,1.0327,,,,,,,,,,,,,,,,,,,,,,61036bc11cbe328e09cf25d3,61036e3ce86cce9c8acb7dec,2021-07-29_22h13.32.181,Simcolourproject_2stim_asymm_v5,2020.2.10,Win32,60,61025ae37ef11b136ea224fe,,,,,,,,,818,34.66668701,78.83331299,1,0,0,response1disk,,7,2.666687012,-1.166687012,1,0,0,rectangle,2.666687012,-1.166687012,1,0,0,2.666687012,-1.166687012,1,0,0,1,96,256,65,1,,,,,,,,
