key_resp.keys,key_resp.rt,key_resp_14.keys,key_resp_14.rt,key_resp_15.keys,key_resp_15.rt,key_resp_17.keys,key_resp_17.rt,key_resp_9.keys,key_resp_9.rt,key_resp_10.keys,key_resp_10.rt,practice_comparison,Ecc,mouse_5.x,mouse_5.y,mouse_5.leftButton,mouse_5.midButton,mouse_5.rightButton,mouse_5.clicked_name,pracsimilarity,response_time,mouse_10.x,mouse_10.y,mouse_10.leftButton,mouse_10.midButton,mouse_10.rightButton,mouse_10.clicked_name,mouse_7.x,mouse_7.y,mouse_7.leftButton,mouse_7.midButton,mouse_7.rightButton,mouse_6.x,mouse_6.y,mouse_6.leftButton,mouse_6.midButton,mouse_6.rightButton,duringprac.thisRepN,duringprac.thisTrialN,duringprac.thisN,duringprac.thisIndex,duringprac.ran,participant,session,date,expName,psychopyVersion,OS,frameRate,study_id,mouse_7.clicked_name,catchpracsimilarity,catch_response_time,catchnumberprac,catchtrialorderprac,mouse_6.clicked_name,key_resp_22.keys,key_resp_22.rt,realcomparison,mouse.x,mouse.y,mouse.leftButton,mouse.midButton,mouse.rightButton,mouse.clicked_name,Colour2,similarity,mouse_2.x,mouse_2.y,mouse_2.leftButton,mouse_2.midButton,mouse_2.rightButton,mouse_2.clicked_name,mouse_3.x,mouse_3.y,mouse_3.leftButton,mouse_3.midButton,mouse_3.rightButton,mouse_11.x,mouse_11.y,mouse_11.leftButton,mouse_11.midButton,mouse_11.rightButton,trials_2.thisRepN,trials_2.thisTrialN,trials_2.thisN,trials_2.thisIndex,trials_2.ran,Colour1,mouse_3.clicked_name,catchornah,catchsimilarity,catchnumber,catchtrialorder,catchRT,mouse_11.clicked_name
space,1.1935,space,9.3958,space,9.4167,space,2.8137,space,0.6833,space,3.2357,12,PF,-76.109375,-33.6484375,1,0,0,response5disk_5,2,6.583,-2.7890625,-3.71484375,1,0,0,rectangle_8,-2.7890625,-3.71484375,1,0,0,-2.7890625,-3.71484375,1,0,0,0,0,0,6,1,61035886e691b3a7e313208c,610365e8b4e8cd61018fe0ae,2021-07-29_19h38.23.590,Simcolourproject_2stim_asymm_v5,2020.2.10,MacIntel,60,61025ae37ef11b136ea224fe,,,,,,,,,,,,,,,,,,,,,,,,,,,,,,,,,,,,,,,,,,,,,,
,,,,,,,,,,,,46,PF,-77.5859375,-39.30859375,1,0,0,response5disk_5,2,3.4669,-8.0625,-8.18359375,1,0,0,rectangle_8,-71.58203125,-38.89453125,1,0,0,-1.60546875,-3.203125,1,0,0,0,1,1,4,1,61035886e691b3a7e313208c,610365e8b4e8cd61018fe0ae,2021-07-29_19h38.23.590,Simcolourproject_2stim_asymm_v5,2020.2.10,MacIntel,60,61025ae37ef11b136ea224fe,response5disk_7,2,3.1686,2,"[2,5]",rectangle_4,,,,,,,,,,,,,,,,,,,,,,,,,,,,,,,,,,,,,,,,
,,,,,,,,,,,,115,FF,34.078125,-82.70703125,1,0,0,response3disk_5,4,6.1829,-11.57421875,2.7421875,1,0,0,rectangle_8,-11.57421875,2.7421875,1,0,0,-11.57421875,2.7421875,1,0,0,0,2,2,0,1,61035886e691b3a7e313208c,610365e8b4e8cd61018fe0ae,2021-07-29_19h38.23.590,Simcolourproject_2stim_asymm_v5,2020.2.10,MacIntel,60,61025ae37ef11b136ea224fe,,,,,,,,,,,,,,,,,,,,,,,,,,,,,,,,,,,,,,,,,,,,,,
,,,,,,,,,,,,25,FF,-32.19140625,-81.85546875,1,0,0,response5disk_5,3,1.9991,-6.078125,0.35546875,1,0,0,rectangle_8,-6.078125,0.35546875,1,0,0,-6.078125,0.35546875,1,0,0,0,3,3,3,1,61035886e691b3a7e313208c,610365e8b4e8cd61018fe0ae,2021-07-29_19h38.23.590,Simcolourproject_2stim_asymm_v5,2020.2.10,MacIntel,60,61025ae37ef11b136ea224fe,,,,,,,,,,,,,,,,,,,,,,,,,,,,,,,,,,,,,,,,,,,,,,
,,,,,,,,,,,,72,PF,68.12890625,43.78515625,1,0,0,response1disk_5,6,2.2661,6.28515625,-11.12109375,1,0,0,rectangle_8,-67.92578125,-46.04296875,1,0,0,10.5078125,-4.05078125,1,0,0,0,4,4,2,1,61035886e691b3a7e313208c,610365e8b4e8cd61018fe0ae,2021-07-29_19h38.23.590,Simcolourproject_2stim_asymm_v5,2020.2.10,MacIntel,60,61025ae37ef11b136ea224fe,response5disk_7,2,1.6676,2,"[2,5]",rectangle_4,,,,,,,,,,,,,,,,,,,,,,,,,,,,,,,,,,,,,,,,
,,,,,,,,,,,,61,PF,-75.359375,34.1171875,1,0,0,response7disk_5,1,4.5659,-7.83203125,2.734375,1,0,0,rectangle_8,-7.83203125,2.734375,1,0,0,-7.83203125,2.734375,1,0,0,0,5,5,1,1,61035886e691b3a7e313208c,610365e8b4e8cd61018fe0ae,2021-07-29_19h38.23.590,Simcolourproject_2stim_asymm_v5,2020.2.10,MacIntel,60,61025ae37ef11b136ea224fe,,,,,,,,,,,,,,,,,,,,,,,,,,,,,,,,,,,,,,,,,,,,,,
,,,,,,,,,,,,84,FF,-53.80078125,73.734375,1,0,0,response7disk_5,0,2.7008,-1.5546875,4.8125,1,0,0,rectangle_8,-1.5546875,4.8125,1,0,0,-1.5546875,4.8125,1,0,0,0,6,6,5,1,61035886e691b3a7e313208c,610365e8b4e8cd61018fe0ae,2021-07-29_19h38.23.590,Simcolourproject_2stim_asymm_v5,2020.2.10,MacIntel,60,61025ae37ef11b136ea224fe,,,,,,,,,,,,,,,,,,,,,,,,,,,,,,,,,,,,,,,,,,,,,,
,,,,,,,,,,,,,FF,,,,,,,,1.067,,,,,,,,,,,,,,,,,,,,,,61035886e691b3a7e313208c,610365e8b4e8cd61018fe0ae,2021-07-29_19h38.23.590,Simcolourproject_2stim_asymm_v5,2020.2.10,MacIntel,60,61025ae37ef11b136ea224fe,,,,,,,space,2.3637,4095,-45.71484375,68.83984375,1,0,0,response7disk,,0,0.9765625,1.81640625,1,0,0,rectangle,0.9765625,1.81640625,1,0,0,0.9765625,1.81640625,1,0,0,0,0,0,11,1,,,,,,,,
,,,,,,,,,,,,,FF,,,,,,,,1.8501,,,,,,,,,,,,,,,,,,,,,,61035886e691b3a7e313208c,610365e8b4e8cd61018fe0ae,2021-07-29_19h38.23.590,Simcolourproject_2stim_asymm_v5,2020.2.10,MacIntel,60,61025ae37ef11b136ea224fe,,,,,,,,,92,38.89453125,79.30078125,1,0,0,response1disk,,7,-9.8515625,-12.9765625,1,0,0,rectangle,-9.8515625,-12.9765625,1,0,0,-9.8515625,-12.9765625,1,0,0,0,1,1,34,1,,,,,,,,
,,,,,,,,,,,,,FF,,,,,,,,2.6664,,,,,,,,,,,,,,,,,,,,,,61035886e691b3a7e313208c,610365e8b4e8cd61018fe0ae,2021-07-29_19h38.23.590,Simcolourproject_2stim_asymm_v5,2020.2.10,MacIntel,60,61025ae37ef11b136ea224fe,,,,,,,,,3837,76.0703125,28.61328125,1,0,0,response1disk,,6,9.8984375,-4.77734375,1,0,0,rectangle,33.29296875,-72.5546875,1,0,0,-14.109375,3.46484375,1,0,0,0,2,2,120,1,,response3disk_3,TRUE,4,4,"[200,209,300,155,277,214,200,230,3,252,316,44,138,288,295,303,262,208,45,124]",2.4676,rectangle
,,,,,,,,,,,,,FF,,,,,,,,2.0163,,,,,,,,,,,,,,,,,,,,,,61035886e691b3a7e313208c,610365e8b4e8cd61018fe0ae,2021-07-29_19h38.23.590,Simcolourproject_2stim_asymm_v5,2020.2.10,MacIntel,60,61025ae37ef11b136ea224fe,,,,,,,,,2330,-23.2890625,-80.046875,1,0,0,response5disk,,3,14.80078125,-8.5234375,1,0,0,rectangle,14.80078125,-8.5234375,1,0,0,14.80078125,-8.5234375,1,0,0,0,3,3,128,1,,,,,,,,
,,,,,,,,,,,,,FF,,,,,,,,2.2666,,,,,,,,,,,,,,,,,,,,,,61035886e691b3a7e313208c,610365e8b4e8cd61018fe0ae,2021-07-29_19h38.23.590,Simcolourproject_2stim_asymm_v5,2020.2.10,MacIntel,60,61025ae37ef11b136ea224fe,,,,,,,,,2998,-34.2578125,-77.30859375,1,0,0,response5disk,,3,-1.3984375,-5.1953125,1,0,0,rectangle,-1.3984375,-5.1953125,1,0,0,-1.3984375,-5.1953125,1,0,0,0,4,4,28,1,,,,,,,,
,,,,,,,,,,,,,FF,,,,,,,,2.8827,,,,,,,,,,,,,,,,,,,,,,61035886e691b3a7e313208c,610365e8b4e8cd61018fe0ae,2021-07-29_19h38.23.590,Simcolourproject_2stim_asymm_v5,2020.2.10,MacIntel,60,61025ae37ef11b136ea224fe,,,,,,,,,3264,81.12890625,-39.59765625,1,0,0,response3disk,,5,0.73046875,-6.38671875,1,0,0,rectangle,0.73046875,-6.38671875,1,0,0,0.73046875,-6.38671875,1,0,0,0,5,5,65,1,,,,,,,,
,,,,,,,,,,,,,FF,,,,,,,,2.35,,,,,,,,,,,,,,,,,,,,,,61035886e691b3a7e313208c,610365e8b4e8cd61018fe0ae,2021-07-29_19h38.23.590,Simcolourproject_2stim_asymm_v5,2020.2.10,MacIntel,60,61025ae37ef11b136ea224fe,,,,,,,,,221,29.8125,-74.66796875,1,0,0,response3disk,,4,2.30078125,-8.46875,1,0,0,rectangle,2.30078125,-8.46875,1,0,0,2.30078125,-8.46875,1,0,0,0,6,6,91,1,,,,,,,,
,,,,,,,,,,,,,FF,,,,,,,,1.3839,,,,,,,,,,,,,,,,,,,,,,61035886e691b3a7e313208c,610365e8b4e8cd61018fe0ae,2021-07-29_19h38.23.590,Simcolourproject_2stim_asymm_v5,2020.2.10,MacIntel,60,61025ae37ef11b136ea224fe,,,,,,,,,3919,-25.82421875,-74.79296875,1,0,0,response5disk,,3,4.60546875,-10.90234375,1,0,0,rectangle,4.60546875,-10.90234375,1,0,0,4.60546875,-10.90234375,1,0,0,0,7,7,114,1,,,,,,,,
,,,,,,,,,,,,,FF,,,,,,,,1.5662,,,,,,,,,,,,,,,,,,,,,,61035886e691b3a7e313208c,610365e8b4e8cd61018fe0ae,2021-07-29_19h38.23.590,Simcolourproject_2stim_asymm_v5,2020.2.10,MacIntel,60,61025ae37ef11b136ea224fe,,,,,,,,,4003,-35.0078125,-75.6640625,1,0,0,response5disk,,3,0.37109375,-12.5390625,1,0,0,rectangle,0.37109375,-12.5390625,1,0,0,0.37109375,-12.5390625,1,0,0,0,8,8,26,1,,,,,,,,
,,,,,,,,,,,,,FF,,,,,,,,1.6158,,,,,,,,,,,,,,,,,,,,,,61035886e691b3a7e313208c,610365e8b4e8cd61018fe0ae,2021-07-29_19h38.23.590,Simcolourproject_2stim_asymm_v5,2020.2.10,MacIntel,60,61025ae37ef11b136ea224fe,,,,,,,,,444,-31.6171875,-90.81640625,1,0,0,response5disk,,3,-6.5703125,-7.484375,1,0,0,rectangle,-6.5703125,-7.484375,1,0,0,-6.5703125,-7.484375,1,0,0,0,9,9,58,1,,,,,,,,
,,,,,,,,,,,,,FF,,,,,,,,1.1333,,,,,,,,,,,,,,,,,,,,,,61035886e691b3a7e313208c,610365e8b4e8cd61018fe0ae,2021-07-29_19h38.23.590,Simcolourproject_2stim_asymm_v5,2020.2.10,MacIntel,60,61025ae37ef11b136ea224fe,,,,,,,,,1078,77.75390625,-34.546875,1,0,0,response3disk,,5,2.4453125,4.046875,1,0,0,rectangle,2.4453125,4.046875,1,0,0,2.4453125,4.046875,1,0,0,0,10,10,47,1,,,,,,,,
,,,,,,,,,,,,,FF,,,,,,,,1.0841,,,,,,,,,,,,,,,,,,,,,,61035886e691b3a7e313208c,610365e8b4e8cd61018fe0ae,2021-07-29_19h38.23.590,Simcolourproject_2stim_asymm_v5,2020.2.10,MacIntel,60,61025ae37ef11b136ea224fe,,,,,,,,,3280,74.2890625,-43.7421875,1,0,0,response3disk,,5,-11.48828125,6.1640625,1,0,0,rectangle,-11.48828125,6.1640625,1,0,0,-11.48828125,6.1640625,1,0,0,0,11,11,147,1,,,,,,,,
,,,,,,,,,,,,,FF,,,,,,,,1.0001,,,,,,,,,,,,,,,,,,,,,,61035886e691b3a7e313208c,610365e8b4e8cd61018fe0ae,2021-07-29_19h38.23.590,Simcolourproject_2stim_asymm_v5,2020.2.10,MacIntel,60,61025ae37ef11b136ea224fe,,,,,,,,,2970,61.8359375,40.3125,1,0,0,response1disk,,6,-13.171875,-9.63671875,1,0,0,rectangle,-13.171875,-9.63671875,1,0,0,-13.171875,-9.63671875,1,0,0,0,12,12,106,1,,,,,,,,
,,,,,,,,,,,,,FF,,,,,,,,0.9503,,,,,,,,,,,,,,,,,,,,,,61035886e691b3a7e313208c,610365e8b4e8cd61018fe0ae,2021-07-29_19h38.23.590,Simcolourproject_2stim_asymm_v5,2020.2.10,MacIntel,60,61025ae37ef11b136ea224fe,,,,,,,,,2461,87.33984375,24.63671875,1,0,0,response1disk,,6,9.94921875,-2.65234375,1,0,0,rectangle,9.94921875,-2.65234375,1,0,0,9.94921875,-2.65234375,1,0,0,0,13,13,73,1,,,,,,,,
,,,,,,,,,,,,,FF,,,,,,,,0.9164,,,,,,,,,,,,,,,,,,,,,,61035886e691b3a7e313208c,610365e8b4e8cd61018fe0ae,2021-07-29_19h38.23.590,Simcolourproject_2stim_asymm_v5,2020.2.10,MacIntel,60,61025ae37ef11b136ea224fe,,,,,,,,,608,78.515625,25.2578125,1,0,0,response1disk,,6,15.86328125,2.5390625,1,0,0,rectangle,15.86328125,2.5390625,1,0,0,15.86328125,2.5390625,1,0,0,0,14,14,9,1,,,,,,,,
,,,,,,,,,,,,,FF,,,,,,,,2.3501,,,,,,,,,,,,,,,,,,,,,,61035886e691b3a7e313208c,610365e8b4e8cd61018fe0ae,2021-07-29_19h38.23.590,Simcolourproject_2stim_asymm_v5,2020.2.10,MacIntel,60,61025ae37ef11b136ea224fe,,,,,,,,,284,37.609375,-78.125,1,0,0,response3disk,,4,9.7421875,-10.625,1,0,0,rectangle,9.7421875,-10.625,1,0,0,9.7421875,-10.625,1,0,0,0,15,15,157,1,,,,,,,,
,,,,,,,,,,,,,FF,,,,,,,,1.0178,,,,,,,,,,,,,,,,,,,,,,61035886e691b3a7e313208c,610365e8b4e8cd61018fe0ae,2021-07-29_19h38.23.590,Simcolourproject_2stim_asymm_v5,2020.2.10,MacIntel,60,61025ae37ef11b136ea224fe,,,,,,,,,1527,35.44921875,-73.2265625,1,0,0,response3disk,,4,7.2734375,-8.0234375,1,0,0,rectangle,7.2734375,-8.0234375,1,0,0,7.2734375,-8.0234375,1,0,0,0,16,16,124,1,,,,,,,,
,,,,,,,,,,,,,FF,,,,,,,,1.2826,,,,,,,,,,,,,,,,,,,,,,61035886e691b3a7e313208c,610365e8b4e8cd61018fe0ae,2021-07-29_19h38.23.590,Simcolourproject_2stim_asymm_v5,2020.2.10,MacIntel,60,61025ae37ef11b136ea224fe,,,,,,,,,3574,80.8828125,-26.83203125,1,0,0,response3disk,,5,3.3671875,4.19140625,1,0,0,rectangle,3.3671875,4.19140625,1,0,0,3.3671875,4.19140625,1,0,0,0,17,17,148,1,,,,,,,,
,,,,,,,,,,,,,FF,,,,,,,,1.5337,,,,,,,,,,,,,,,,,,,,,,61035886e691b3a7e313208c,610365e8b4e8cd61018fe0ae,2021-07-29_19h38.23.590,Simcolourproject_2stim_asymm_v5,2020.2.10,MacIntel,60,61025ae37ef11b136ea224fe,,,,,,,,,2717,39.23828125,-91.37890625,1,0,0,response3disk,,4,-18.421875,-1.046875,1,0,0,rectangle,-18.421875,-1.046875,1,0,0,-18.421875,-1.046875,1,0,0,0,18,18,31,1,,,,,,,,
,,,,,,,,,,,,,FF,,,,,,,,1.1166,,,,,,,,,,,,,,,,,,,,,,61035886e691b3a7e313208c,610365e8b4e8cd61018fe0ae,2021-07-29_19h38.23.590,Simcolourproject_2stim_asymm_v5,2020.2.10,MacIntel,60,61025ae37ef11b136ea224fe,,,,,,,,,3294,-60.41015625,-36.07421875,1,0,0,response5disk,,2,-3.359375,11.90234375,1,0,0,rectangle,-3.359375,11.90234375,1,0,0,-3.359375,11.90234375,1,0,0,0,19,19,80,1,,,,,,,,
,,,,,,,,,,,,,FF,,,,,,,,1.3834,,,,,,,,,,,,,,,,,,,,,,61035886e691b3a7e313208c,610365e8b4e8cd61018fe0ae,2021-07-29_19h38.23.590,Simcolourproject_2stim_asymm_v5,2020.2.10,MacIntel,60,61025ae37ef11b136ea224fe,,,,,,,,,1044,39.890625,-73.74609375,1,0,0,response3disk,,4,19.18359375,-12.65625,1,0,0,rectangle,19.18359375,-12.65625,1,0,0,19.18359375,-12.65625,1,0,0,0,20,20,87,1,,,,,,,,
,,,,,,,,,,,,,FF,,,,,,,,1.367,,,,,,,,,,,,,,,,,,,,,,61035886e691b3a7e313208c,610365e8b4e8cd61018fe0ae,2021-07-29_19h38.23.590,Simcolourproject_2stim_asymm_v5,2020.2.10,MacIntel,60,61025ae37ef11b136ea224fe,,,,,,,,,2332,75.1328125,-29.65625,1,0,0,response3disk,,5,-8.6328125,-2.515625,1,0,0,rectangle,-8.6328125,-2.515625,1,0,0,-8.6328125,-2.515625,1,0,0,0,21,21,10,1,,,,,,,,
,,,,,,,,,,,,,FF,,,,,,,,1.3833,,,,,,,,,,,,,,,,,,,,,,61035886e691b3a7e313208c,610365e8b4e8cd61018fe0ae,2021-07-29_19h38.23.590,Simcolourproject_2stim_asymm_v5,2020.2.10,MacIntel,60,61025ae37ef11b136ea224fe,,,,,,,,,1418,75.03515625,-29.3515625,1,0,0,response3disk,,5,7.31640625,-3.10546875,1,0,0,rectangle,7.31640625,-3.10546875,1,0,0,7.31640625,-3.10546875,1,0,0,0,22,22,45,1,,,,,,,,
,,,,,,,,,,,,,FF,,,,,,,,1.2184,,,,,,,,,,,,,,,,,,,,,,61035886e691b3a7e313208c,610365e8b4e8cd61018fe0ae,2021-07-29_19h38.23.590,Simcolourproject_2stim_asymm_v5,2020.2.10,MacIntel,60,61025ae37ef11b136ea224fe,,,,,,,,,477,-26.2109375,-80.578125,1,0,0,response5disk,,3,1.57421875,1.2109375,1,0,0,rectangle,1.57421875,1.2109375,1,0,0,1.57421875,1.2109375,1,0,0,0,23,23,149,1,,,,,,,,
,,,,,,,,,,,,,FF,,,,,,,,0.9842,,,,,,,,,,,,,,,,,,,,,,61035886e691b3a7e313208c,610365e8b4e8cd61018fe0ae,2021-07-29_19h38.23.590,Simcolourproject_2stim_asymm_v5,2020.2.10,MacIntel,60,61025ae37ef11b136ea224fe,,,,,,,,,1256,61.8984375,-21.35546875,1,0,0,response3disk,,5,8.71875,-4.30859375,1,0,0,rectangle,8.71875,-4.30859375,1,0,0,8.71875,-4.30859375,1,0,0,0,24,24,4,1,,,,,,,,
,,,,,,,,,,,,,FF,,,,,,,,0.9673,,,,,,,,,,,,,,,,,,,,,,61035886e691b3a7e313208c,610365e8b4e8cd61018fe0ae,2021-07-29_19h38.23.590,Simcolourproject_2stim_asymm_v5,2020.2.10,MacIntel,60,61025ae37ef11b136ea224fe,,,,,,,,,4244,82.58203125,-39.5390625,1,0,0,response3disk,,5,6.75,-5.6484375,1,0,0,rectangle,6.75,-5.6484375,1,0,0,6.75,-5.6484375,1,0,0,0,25,25,75,1,,,,,,,,
,,,,,,,,,,,,,FF,,,,,,,,1.6824,,,,,,,,,,,,,,,,,,,,,,61035886e691b3a7e313208c,610365e8b4e8cd61018fe0ae,2021-07-29_19h38.23.590,Simcolourproject_2stim_asymm_v5,2020.2.10,MacIntel,60,61025ae37ef11b136ea224fe,,,,,,,,,2563,74.69140625,-38.26953125,1,0,0,response3disk,,5,-11.9140625,5.30078125,1,0,0,rectangle,-11.9140625,5.30078125,1,0,0,-11.9140625,5.30078125,1,0,0,0,26,26,93,1,,,,,,,,
,,,,,,,,,,,,,FF,,,,,,,,0.9335,,,,,,,,,,,,,,,,,,,,,,61035886e691b3a7e313208c,610365e8b4e8cd61018fe0ae,2021-07-29_19h38.23.590,Simcolourproject_2stim_asymm_v5,2020.2.10,MacIntel,60,61025ae37ef11b136ea224fe,,,,,,,,,3648,74.65625,37.83984375,1,0,0,response1disk,,6,-5.74609375,-17.26953125,1,0,0,rectangle,-5.74609375,-17.26953125,1,0,0,-5.74609375,-17.26953125,1,0,0,0,27,27,56,1,,,,,,,,
,,,,,,,,,,,,,FF,,,,,,,,1.7173,,,,,,,,,,,,,,,,,,,,,,61035886e691b3a7e313208c,610365e8b4e8cd61018fe0ae,2021-07-29_19h38.23.590,Simcolourproject_2stim_asymm_v5,2020.2.10,MacIntel,60,61025ae37ef11b136ea224fe,,,,,,,,,1378,29.5390625,-72.390625,1,0,0,response3disk,,4,-4.640625,-7.6796875,1,0,0,rectangle,-4.640625,-7.6796875,1,0,0,-4.640625,-7.6796875,1,0,0,0,28,28,110,1,,,,,,,,
,,,,,,,,,,,,,FF,,,,,,,,0.8833,,,,,,,,,,,,,,,,,,,,,,61035886e691b3a7e313208c,610365e8b4e8cd61018fe0ae,2021-07-29_19h38.23.590,Simcolourproject_2stim_asymm_v5,2020.2.10,MacIntel,60,61025ae37ef11b136ea224fe,,,,,,,,,3078,84.96484375,-38.4453125,1,0,0,response3disk,,5,16.29296875,-7.0625,1,0,0,rectangle,16.29296875,-7.0625,1,0,0,16.29296875,-7.0625,1,0,0,0,29,29,32,1,,,,,,,,
,,,,,,,,,,,,,FF,,,,,,,,1.6495,,,,,,,,,,,,,,,,,,,,,,61035886e691b3a7e313208c,610365e8b4e8cd61018fe0ae,2021-07-29_19h38.23.590,Simcolourproject_2stim_asymm_v5,2020.2.10,MacIntel,60,61025ae37ef11b136ea224fe,,,,,,,,,3612,72.6953125,-49.56640625,1,0,0,response3disk,,5,4.90234375,-1.3125,1,0,0,rectangle,4.90234375,-1.3125,1,0,0,4.90234375,-1.3125,1,0,0,0,30,30,52,1,,,,,,,,
,,,,,,,,,,,,,FF,,,,,,,,1.2173,,,,,,,,,,,,,,,,,,,,,,61035886e691b3a7e313208c,610365e8b4e8cd61018fe0ae,2021-07-29_19h38.23.590,Simcolourproject_2stim_asymm_v5,2020.2.10,MacIntel,60,61025ae37ef11b136ea224fe,,,,,,,,,999,73.75,24.57421875,1,0,0,response1disk,,6,10.03125,-1.265625,1,0,0,rectangle,10.03125,-1.265625,1,0,0,10.03125,-1.265625,1,0,0,0,31,31,159,1,,,,,,,,
,,,,,,,,,,,,,FF,,,,,,,,1.217,,,,,,,,,,,,,,,,,,,,,,61035886e691b3a7e313208c,610365e8b4e8cd61018fe0ae,2021-07-29_19h38.23.590,Simcolourproject_2stim_asymm_v5,2020.2.10,MacIntel,60,61025ae37ef11b136ea224fe,,,,,,,,,2675,76.453125,-54.32421875,1,0,0,response3disk,,5,15.17578125,1.9609375,1,0,0,rectangle,15.17578125,1.9609375,1,0,0,15.17578125,1.9609375,1,0,0,0,32,32,146,1,,,,,,,,
,,,,,,,,,,,,,FF,,,,,,,,1.7166,,,,,,,,,,,,,,,,,,,,,,61035886e691b3a7e313208c,610365e8b4e8cd61018fe0ae,2021-07-29_19h38.23.590,Simcolourproject_2stim_asymm_v5,2020.2.10,MacIntel,60,61025ae37ef11b136ea224fe,,,,,,,,,1251,67.74609375,-27.94140625,1,0,0,response3disk,,5,10.984375,-7.390625,1,0,0,rectangle,10.984375,-7.390625,1,0,0,10.984375,-7.390625,1,0,0,0,33,33,68,1,,,,,,,,
,,,,,,,,,,,,,FF,,,,,,,,1.3505,,,,,,,,,,,,,,,,,,,,,,61035886e691b3a7e313208c,610365e8b4e8cd61018fe0ae,2021-07-29_19h38.23.590,Simcolourproject_2stim_asymm_v5,2020.2.10,MacIntel,60,61025ae37ef11b136ea224fe,,,,,,,,,1417,79.8515625,20.13671875,1,0,0,response1disk,,6,4.40625,-9.28125,1,0,0,rectangle,4.40625,-9.28125,1,0,0,4.40625,-9.28125,1,0,0,0,34,34,48,1,,,,,,,,
,,,,,,,,,,,,,FF,,,,,,,,0.7667,,,,,,,,,,,,,,,,,,,,,,61035886e691b3a7e313208c,610365e8b4e8cd61018fe0ae,2021-07-29_19h38.23.590,Simcolourproject_2stim_asymm_v5,2020.2.10,MacIntel,60,61025ae37ef11b136ea224fe,,,,,,,,,3613,70.05078125,-30.33984375,1,0,0,response3disk,,5,-1.3828125,12.84375,1,0,0,rectangle,-1.3828125,12.84375,1,0,0,-1.3828125,12.84375,1,0,0,0,35,35,140,1,,,,,,,,
,,,,,,,,,,,,,FF,,,,,,,,1.3664,,,,,,,,,,,,,,,,,,,,,,61035886e691b3a7e313208c,610365e8b4e8cd61018fe0ae,2021-07-29_19h38.23.590,Simcolourproject_2stim_asymm_v5,2020.2.10,MacIntel,60,61025ae37ef11b136ea224fe,,,,,,,,,931,44.2578125,47.0703125,1,0,0,response1disk,,7,3.87890625,-7.359375,1,0,0,rectangle,3.87890625,-7.359375,1,0,0,3.87890625,-7.359375,1,0,0,0,36,36,3,1,,,,,,,,
,,,,,,,,,,,,,FF,,,,,,,,1.168,,,,,,,,,,,,,,,,,,,,,,61035886e691b3a7e313208c,610365e8b4e8cd61018fe0ae,2021-07-29_19h38.23.590,Simcolourproject_2stim_asymm_v5,2020.2.10,MacIntel,60,61025ae37ef11b136ea224fe,,,,,,,,,1261,73.83203125,-26.953125,1,0,0,response3disk,,5,5.05859375,-2.07421875,1,0,0,rectangle,5.05859375,-2.07421875,1,0,0,5.05859375,-2.07421875,1,0,0,0,37,37,139,1,,,,,,,,
,,,,,,,,,,,,,FF,,,,,,,,1.2995,,,,,,,,,,,,,,,,,,,,,,61035886e691b3a7e313208c,610365e8b4e8cd61018fe0ae,2021-07-29_19h38.23.590,Simcolourproject_2stim_asymm_v5,2020.2.10,MacIntel,60,61025ae37ef11b136ea224fe,,,,,,,,,2287,-33.3828125,-69.1328125,1,0,0,response5disk,,3,0.69140625,-11.26171875,1,0,0,rectangle,0.69140625,-11.26171875,1,0,0,0.69140625,-11.26171875,1,0,0,0,38,38,88,1,,,,,,,,
,,,,,,,,,,,,,FF,,,,,,,,1.6833,,,,,,,,,,,,,,,,,,,,,,61035886e691b3a7e313208c,610365e8b4e8cd61018fe0ae,2021-07-29_19h38.23.590,Simcolourproject_2stim_asymm_v5,2020.2.10,MacIntel,60,61025ae37ef11b136ea224fe,,,,,,,,,817,47.609375,-64.11328125,1,0,0,response3disk,,4,-2.36328125,-9.6640625,1,0,0,rectangle,-2.36328125,-9.6640625,1,0,0,-2.36328125,-9.6640625,1,0,0,0,39,39,39,1,,,,,,,,
,,,,,,,,,,,,,FF,,,,,,,,1.0334,,,,,,,,,,,,,,,,,,,,,,61035886e691b3a7e313208c,610365e8b4e8cd61018fe0ae,2021-07-29_19h38.23.590,Simcolourproject_2stim_asymm_v5,2020.2.10,MacIntel,60,61025ae37ef11b136ea224fe,,,,,,,,,820,37.64453125,-52.8671875,1,0,0,response3disk,,4,9.4296875,-1.46875,1,0,0,rectangle,9.4296875,-1.46875,1,0,0,9.4296875,-1.46875,1,0,0,0,40,40,25,1,,,,,,,,
,,,,,,,,,,,,,FF,,,,,,,,2.2499,,,,,,,,,,,,,,,,,,,,,,61035886e691b3a7e313208c,610365e8b4e8cd61018fe0ae,2021-07-29_19h38.23.590,Simcolourproject_2stim_asymm_v5,2020.2.10,MacIntel,60,61025ae37ef11b136ea224fe,,,,,,,,,3682,42.1171875,-75.82421875,1,0,0,response3disk,,4,-1.87109375,-12.87109375,1,0,0,rectangle,-1.87109375,-12.87109375,1,0,0,-1.87109375,-12.87109375,1,0,0,0,41,41,111,1,,,,,,,,
,,,,,,,,,,,,,FF,,,,,,,,1.099,,,,,,,,,,,,,,,,,,,,,,61035886e691b3a7e313208c,610365e8b4e8cd61018fe0ae,2021-07-29_19h38.23.590,Simcolourproject_2stim_asymm_v5,2020.2.10,MacIntel,60,61025ae37ef11b136ea224fe,,,,,,,,,1396,46.75,-61.671875,1,0,0,response3disk,,4,2.3515625,-1.62890625,1,0,0,rectangle,2.3515625,-1.62890625,1,0,0,2.3515625,-1.62890625,1,0,0,0,42,42,90,1,,,,,,,,
,,,,,,,,,,,,,FF,,,,,,,,1.6347,,,,,,,,,,,,,,,,,,,,,,61035886e691b3a7e313208c,610365e8b4e8cd61018fe0ae,2021-07-29_19h38.23.590,Simcolourproject_2stim_asymm_v5,2020.2.10,MacIntel,60,61025ae37ef11b136ea224fe,,,,,,,,,1196,46.2890625,-65.3515625,1,0,0,response3disk,,4,19.546875,-11.80859375,1,0,0,rectangle,62.765625,25.51171875,1,0,0,4.48828125,-5.83203125,1,0,0,0,43,43,46,1,,response1disk_3,TRUE,6,6,"[200,209,300,155,277,214,200,230,3,252,316,44,138,288,295,303,262,208,45,124]",1.8509,rectangle
,,,,,,,,,,,,,FF,,,,,,,,2.4834,,,,,,,,,,,,,,,,,,,,,,61035886e691b3a7e313208c,610365e8b4e8cd61018fe0ae,2021-07-29_19h38.23.590,Simcolourproject_2stim_asymm_v5,2020.2.10,MacIntel,60,61025ae37ef11b136ea224fe,,,,,,,,,481,41.1953125,-62.34765625,1,0,0,response3disk,,4,2.4375,-3.52734375,1,0,0,rectangle,-82.359375,37.5625,1,0,0,-11,8.26171875,1,0,0,0,44,44,22,1,,response7disk_3,TRUE,1,1,"[200,209,300,155,277,214,200,230,3,252,316,44,138,288,295,303,262,208,45,124]",1.5834,rectangle
,,,,,,,,,,,,,FF,,,,,,,,1.4494,,,,,,,,,,,,,,,,,,,,,,61035886e691b3a7e313208c,610365e8b4e8cd61018fe0ae,2021-07-29_19h38.23.590,Simcolourproject_2stim_asymm_v5,2020.2.10,MacIntel,60,61025ae37ef11b136ea224fe,,,,,,,,,3662,-63.78515625,-46.81640625,1,0,0,response5disk,,2,1.33984375,0.25,1,0,0,rectangle,1.33984375,0.25,1,0,0,1.33984375,0.25,1,0,0,0,45,45,122,1,,,,,,,,
,,,,,,,,,,,,,FF,,,,,,,,0.9508,,,,,,,,,,,,,,,,,,,,,,61035886e691b3a7e313208c,610365e8b4e8cd61018fe0ae,2021-07-29_19h38.23.590,Simcolourproject_2stim_asymm_v5,2020.2.10,MacIntel,60,61025ae37ef11b136ea224fe,,,,,,,,,3581,38.6953125,-60.078125,1,0,0,response3disk,,4,-5.06640625,-2.3125,1,0,0,rectangle,-5.06640625,-2.3125,1,0,0,-5.06640625,-2.3125,1,0,0,0,46,46,98,1,,,,,,,,
,,,,,,,,,,,,,FF,,,,,,,,0.7336,,,,,,,,,,,,,,,,,,,,,,61035886e691b3a7e313208c,610365e8b4e8cd61018fe0ae,2021-07-29_19h38.23.590,Simcolourproject_2stim_asymm_v5,2020.2.10,MacIntel,60,61025ae37ef11b136ea224fe,,,,,,,,,3283,-71.66796875,-29.22265625,1,0,0,response5disk,,2,-15.609375,4.375,1,0,0,rectangle,-15.609375,4.375,1,0,0,-15.609375,4.375,1,0,0,0,47,47,20,1,,,,,,,,
,,,,,,,,,,,,,FF,,,,,,,,1.649,,,,,,,,,,,,,,,,,,,,,,61035886e691b3a7e313208c,610365e8b4e8cd61018fe0ae,2021-07-29_19h38.23.590,Simcolourproject_2stim_asymm_v5,2020.2.10,MacIntel,60,61025ae37ef11b136ea224fe,,,,,,,,,1288,-21.27734375,-79.59375,1,0,0,response5disk,,3,0.0546875,-1.7421875,1,0,0,rectangle,0.0546875,-1.7421875,1,0,0,0.0546875,-1.7421875,1,0,0,0,48,48,18,1,,,,,,,,
,,,,,,,,,,,,,FF,,,,,,,,1.6995,,,,,,,,,,,,,,,,,,,,,,61035886e691b3a7e313208c,610365e8b4e8cd61018fe0ae,2021-07-29_19h38.23.590,Simcolourproject_2stim_asymm_v5,2020.2.10,MacIntel,60,61025ae37ef11b136ea224fe,,,,,,,,,3435,-78.47265625,21.28515625,1,0,0,response7disk,,1,-3.43359375,2.80078125,1,0,0,rectangle,-3.43359375,2.80078125,1,0,0,-3.43359375,2.80078125,1,0,0,0,49,49,13,1,,,,,,,,
,,,,,,,,,,,,,FF,,,,,,,,1.6831,,,,,,,,,,,,,,,,,,,,,,61035886e691b3a7e313208c,610365e8b4e8cd61018fe0ae,2021-07-29_19h38.23.590,Simcolourproject_2stim_asymm_v5,2020.2.10,MacIntel,60,61025ae37ef11b136ea224fe,,,,,,,,,4126,-26.75,-87.4921875,1,0,0,response5disk,,3,5.48828125,-3.98828125,1,0,0,rectangle,5.48828125,-3.98828125,1,0,0,5.48828125,-3.98828125,1,0,0,0,50,50,92,1,,,,,,,,
,,,,,,,,,,,,,FF,,,,,,,,0.8341,,,,,,,,,,,,,,,,,,,,,,61035886e691b3a7e313208c,610365e8b4e8cd61018fe0ae,2021-07-29_19h38.23.590,Simcolourproject_2stim_asymm_v5,2020.2.10,MacIntel,60,61025ae37ef11b136ea224fe,,,,,,,,,611,73.32421875,-45.9765625,1,0,0,response3disk,,5,14.0390625,-14.83203125,1,0,0,rectangle,14.0390625,-14.83203125,1,0,0,14.0390625,-14.83203125,1,0,0,0,51,51,60,1,,,,,,,,
,,,,,,,,,,,,,FF,,,,,,,,1.0672,,,,,,,,,,,,,,,,,,,,,,61035886e691b3a7e313208c,610365e8b4e8cd61018fe0ae,2021-07-29_19h38.23.590,Simcolourproject_2stim_asymm_v5,2020.2.10,MacIntel,60,61025ae37ef11b136ea224fe,,,,,,,,,737,40.81640625,-68.6015625,1,0,0,response3disk,,4,12.87109375,-11.6796875,1,0,0,rectangle,12.87109375,-11.6796875,1,0,0,12.87109375,-11.6796875,1,0,0,0,52,52,76,1,,,,,,,,
,,,,,,,,,,,,,FF,,,,,,,,1.3993,,,,,,,,,,,,,,,,,,,,,,61035886e691b3a7e313208c,610365e8b4e8cd61018fe0ae,2021-07-29_19h38.23.590,Simcolourproject_2stim_asymm_v5,2020.2.10,MacIntel,60,61025ae37ef11b136ea224fe,,,,,,,,,3143,-73.609375,-51.578125,1,0,0,response5disk,,2,-1.91015625,-0.2421875,1,0,0,rectangle,-1.91015625,-0.2421875,1,0,0,-1.91015625,-0.2421875,1,0,0,0,53,53,158,1,,,,,,,,
,,,,,,,,,,,,,FF,,,,,,,,0.8155,,,,,,,,,,,,,,,,,,,,,,61035886e691b3a7e313208c,610365e8b4e8cd61018fe0ae,2021-07-29_19h38.23.590,Simcolourproject_2stim_asymm_v5,2020.2.10,MacIntel,60,61025ae37ef11b136ea224fe,,,,,,,,,3920,-38.2265625,-84.7578125,1,0,0,response5disk,,3,-11.515625,-8.58984375,1,0,0,rectangle,-11.515625,-8.58984375,1,0,0,-11.515625,-8.58984375,1,0,0,0,54,54,126,1,,,,,,,,
,,,,,,,,,,,,,FF,,,,,,,,0.9999,,,,,,,,,,,,,,,,,,,,,,61035886e691b3a7e313208c,610365e8b4e8cd61018fe0ae,2021-07-29_19h38.23.590,Simcolourproject_2stim_asymm_v5,2020.2.10,MacIntel,60,61025ae37ef11b136ea224fe,,,,,,,,,2793,-25.78515625,-95.58203125,1,0,0,response5disk,,3,-4.92578125,-7.015625,1,0,0,rectangle,-4.92578125,-7.015625,1,0,0,-4.92578125,-7.015625,1,0,0,0,55,55,24,1,,,,,,,,
,,,,,,,,,,,,,FF,,,,,,,,1.1835,,,,,,,,,,,,,,,,,,,,,,61035886e691b3a7e313208c,610365e8b4e8cd61018fe0ae,2021-07-29_19h38.23.590,Simcolourproject_2stim_asymm_v5,2020.2.10,MacIntel,60,61025ae37ef11b136ea224fe,,,,,,,,,2615,-79.5,-46.2578125,1,0,0,response5disk,,2,-13.671875,7.578125,1,0,0,rectangle,-13.671875,7.578125,1,0,0,-13.671875,7.578125,1,0,0,0,56,56,38,1,,,,,,,,
,,,,,,,,,,,,,FF,,,,,,,,0.9652,,,,,,,,,,,,,,,,,,,,,,61035886e691b3a7e313208c,610365e8b4e8cd61018fe0ae,2021-07-29_19h38.23.590,Simcolourproject_2stim_asymm_v5,2020.2.10,MacIntel,60,61025ae37ef11b136ea224fe,,,,,,,,,1515,54.0625,-72.734375,1,0,0,response3disk,,4,8.234375,-7.5390625,1,0,0,rectangle,8.234375,-7.5390625,1,0,0,8.234375,-7.5390625,1,0,0,0,57,57,44,1,,,,,,,,
,,,,,,,,,,,,,FF,,,,,,,,3.383,,,,,,,,,,,,,,,,,,,,,,61035886e691b3a7e313208c,610365e8b4e8cd61018fe0ae,2021-07-29_19h38.23.590,Simcolourproject_2stim_asymm_v5,2020.2.10,MacIntel,60,61025ae37ef11b136ea224fe,,,,,,,,,3895,37.265625,-85.1328125,1,0,0,response3disk,,4,5.55859375,-3.94140625,1,0,0,rectangle,5.55859375,-3.94140625,1,0,0,5.55859375,-3.94140625,1,0,0,0,58,58,155,1,,,,,,,,
,,,,,,,,,,,,,FF,,,,,,,,1.8169,,,,,,,,,,,,,,,,,,,,,,61035886e691b3a7e313208c,610365e8b4e8cd61018fe0ae,2021-07-29_19h38.23.590,Simcolourproject_2stim_asymm_v5,2020.2.10,MacIntel,60,61025ae37ef11b136ea224fe,,,,,,,,,2695,-46.36328125,-68.62890625,1,0,0,response5disk,,3,-0.70703125,-1.47265625,1,0,0,rectangle,-0.70703125,-1.47265625,1,0,0,-0.70703125,-1.47265625,1,0,0,0,59,59,35,1,,,,,,,,
,,,,,,,,,,,,,FF,,,,,,,,0.8504,,,,,,,,,,,,,,,,,,,,,,61035886e691b3a7e313208c,610365e8b4e8cd61018fe0ae,2021-07-29_19h38.23.590,Simcolourproject_2stim_asymm_v5,2020.2.10,MacIntel,60,61025ae37ef11b136ea224fe,,,,,,,,,1979,79.1640625,-41.8984375,1,0,0,response3disk,,5,10.44140625,9.21484375,1,0,0,rectangle,10.44140625,9.21484375,1,0,0,10.44140625,9.21484375,1,0,0,0,60,60,127,1,,,,,,,,
,,,,,,,,,,,,,FF,,,,,,,,1.0162,,,,,,,,,,,,,,,,,,,,,,61035886e691b3a7e313208c,610365e8b4e8cd61018fe0ae,2021-07-29_19h38.23.590,Simcolourproject_2stim_asymm_v5,2020.2.10,MacIntel,60,61025ae37ef11b136ea224fe,,,,,,,,,3503,-88.23828125,-32.83203125,1,0,0,response5disk,,2,5.71484375,1.53125,1,0,0,rectangle,5.71484375,1.53125,1,0,0,5.71484375,1.53125,1,0,0,0,61,61,142,1,,,,,,,,
,,,,,,,,,,,,,FF,,,,,,,,0.8817,,,,,,,,,,,,,,,,,,,,,,61035886e691b3a7e313208c,610365e8b4e8cd61018fe0ae,2021-07-29_19h38.23.590,Simcolourproject_2stim_asymm_v5,2020.2.10,MacIntel,60,61025ae37ef11b136ea224fe,,,,,,,,,515,71.3515625,-35.19140625,1,0,0,response3disk,,5,-9.34765625,-0.98828125,1,0,0,rectangle,-9.34765625,-0.98828125,1,0,0,-9.34765625,-0.98828125,1,0,0,0,62,62,119,1,,,,,,,,
,,,,,,,,,,,,,FF,,,,,,,,0.7164,,,,,,,,,,,,,,,,,,,,,,61035886e691b3a7e313208c,610365e8b4e8cd61018fe0ae,2021-07-29_19h38.23.590,Simcolourproject_2stim_asymm_v5,2020.2.10,MacIntel,60,61025ae37ef11b136ea224fe,,,,,,,,,2778,-88.12109375,-52.08984375,1,0,0,response5disk,,2,-11.98828125,-11.47265625,1,0,0,rectangle,-11.98828125,-11.47265625,1,0,0,-11.98828125,-11.47265625,1,0,0,0,63,63,131,1,,,,,,,,
,,,,,,,,,,,,,FF,,,,,,,,1.0334,,,,,,,,,,,,,,,,,,,,,,61035886e691b3a7e313208c,610365e8b4e8cd61018fe0ae,2021-07-29_19h38.23.590,Simcolourproject_2stim_asymm_v5,2020.2.10,MacIntel,60,61025ae37ef11b136ea224fe,,,,,,,,,982,-62.16015625,-47.8671875,1,0,0,response5disk,,2,0.7578125,-10.77734375,1,0,0,rectangle,0.7578125,-10.77734375,1,0,0,0.7578125,-10.77734375,1,0,0,0,64,64,104,1,,,,,,,,
,,,,,,,,,,,,,FF,,,,,,,,1.0499,,,,,,,,,,,,,,,,,,,,,,61035886e691b3a7e313208c,610365e8b4e8cd61018fe0ae,2021-07-29_19h38.23.590,Simcolourproject_2stim_asymm_v5,2020.2.10,MacIntel,60,61025ae37ef11b136ea224fe,,,,,,,,,3227,51.11328125,-75.0546875,1,0,0,response3disk,,4,-4.875,-2.07421875,1,0,0,rectangle,-4.875,-2.07421875,1,0,0,-4.875,-2.07421875,1,0,0,0,65,65,83,1,,,,,,,,
,,,,,,,,,,,,,FF,,,,,,,,0.8496,,,,,,,,,,,,,,,,,,,,,,61035886e691b3a7e313208c,610365e8b4e8cd61018fe0ae,2021-07-29_19h38.23.590,Simcolourproject_2stim_asymm_v5,2020.2.10,MacIntel,60,61025ae37ef11b136ea224fe,,,,,,,,,1277,72.765625,25.0234375,1,0,0,response1disk,,6,6.68359375,0.45703125,1,0,0,rectangle,6.68359375,0.45703125,1,0,0,6.68359375,0.45703125,1,0,0,0,66,66,150,1,,,,,,,,
,,,,,,,,,,,,,FF,,,,,,,,1.2678,,,,,,,,,,,,,,,,,,,,,,61035886e691b3a7e313208c,610365e8b4e8cd61018fe0ae,2021-07-29_19h38.23.590,Simcolourproject_2stim_asymm_v5,2020.2.10,MacIntel,60,61025ae37ef11b136ea224fe,,,,,,,,,514,66.8359375,31.91796875,1,0,0,response1disk,,6,4.05859375,16.77734375,1,0,0,rectangle,4.05859375,16.77734375,1,0,0,4.05859375,16.77734375,1,0,0,0,67,67,89,1,,,,,,,,
,,,,,,,,,,,,,FF,,,,,,,,1.0829,,,,,,,,,,,,,,,,,,,,,,61035886e691b3a7e313208c,610365e8b4e8cd61018fe0ae,2021-07-29_19h38.23.590,Simcolourproject_2stim_asymm_v5,2020.2.10,MacIntel,60,61025ae37ef11b136ea224fe,,,,,,,,,3279,73.8828125,17.12890625,1,0,0,response1disk,,6,21.6328125,-3.8671875,1,0,0,rectangle,21.6328125,-3.8671875,1,0,0,21.6328125,-3.8671875,1,0,0,0,68,68,82,1,,,,,,,,
,,,,,,,,,,,,,FF,,,,,,,,1.7502,,,,,,,,,,,,,,,,,,,,,,61035886e691b3a7e313208c,610365e8b4e8cd61018fe0ae,2021-07-29_19h38.23.590,Simcolourproject_2stim_asymm_v5,2020.2.10,MacIntel,60,61025ae37ef11b136ea224fe,,,,,,,,,4286,72.41015625,38.05859375,1,0,0,response1disk,,6,20.98828125,3.1171875,1,0,0,rectangle,20.98828125,3.1171875,1,0,0,20.98828125,3.1171875,1,0,0,0,69,69,63,1,,,,,,,,
,,,,,,,,,,,,,FF,,,,,,,,0.8334,,,,,,,,,,,,,,,,,,,,,,61035886e691b3a7e313208c,610365e8b4e8cd61018fe0ae,2021-07-29_19h38.23.590,Simcolourproject_2stim_asymm_v5,2020.2.10,MacIntel,60,61025ae37ef11b136ea224fe,,,,,,,,,260,-70.421875,-30.8984375,1,0,0,response5disk,,2,-4.05078125,14.21484375,1,0,0,rectangle,-4.05078125,14.21484375,1,0,0,-4.05078125,14.21484375,1,0,0,0,70,70,16,1,,,,,,,,
,,,,,,,,,,,,,FF,,,,,,,,0.9007,,,,,,,,,,,,,,,,,,,,,,61035886e691b3a7e313208c,610365e8b4e8cd61018fe0ae,2021-07-29_19h38.23.590,Simcolourproject_2stim_asymm_v5,2020.2.10,MacIntel,60,61025ae37ef11b136ea224fe,,,,,,,,,1941,30.1015625,-59.0234375,1,0,0,response3disk,,4,10.04296875,-3.2109375,1,0,0,rectangle,10.04296875,-3.2109375,1,0,0,10.04296875,-3.2109375,1,0,0,0,71,71,78,1,,,,,,,,
,,,,,,,,,,,,,FF,,,,,,,,0.8667,,,,,,,,,,,,,,,,,,,,,,61035886e691b3a7e313208c,610365e8b4e8cd61018fe0ae,2021-07-29_19h38.23.590,Simcolourproject_2stim_asymm_v5,2020.2.10,MacIntel,60,61025ae37ef11b136ea224fe,,,,,,,,,3541,82.26171875,-36.30078125,1,0,0,response3disk,,5,12.65234375,-2.03515625,1,0,0,rectangle,12.65234375,-2.03515625,1,0,0,12.65234375,-2.03515625,1,0,0,0,72,72,50,1,,,,,,,,
,,,,,,,,,,,,,FF,,,,,,,,1.1659,,,,,,,,,,,,,,,,,,,,,,61035886e691b3a7e313208c,610365e8b4e8cd61018fe0ae,2021-07-29_19h38.23.590,Simcolourproject_2stim_asymm_v5,2020.2.10,MacIntel,60,61025ae37ef11b136ea224fe,,,,,,,,,572,62.125,-26.51953125,1,0,0,response3disk,,5,11.1875,-16.11328125,1,0,0,rectangle,11.1875,-16.11328125,1,0,0,11.1875,-16.11328125,1,0,0,0,73,73,135,1,,,,,,,,
,,,,,,,,,,,,,FF,,,,,,,,1.1657,,,,,,,,,,,,,,,,,,,,,,61035886e691b3a7e313208c,610365e8b4e8cd61018fe0ae,2021-07-29_19h38.23.590,Simcolourproject_2stim_asymm_v5,2020.2.10,MacIntel,60,61025ae37ef11b136ea224fe,,,,,,,,,2466,65.5859375,-51.546875,1,0,0,response3disk,,5,1.07421875,-10.5703125,1,0,0,rectangle,1.07421875,-10.5703125,1,0,0,1.07421875,-10.5703125,1,0,0,0,74,74,53,1,,,,,,,,
,,,,,,,,,,,,,FF,,,,,,,,1.0331,,,,,,,,,,,,,,,,,,,,,,61035886e691b3a7e313208c,610365e8b4e8cd61018fe0ae,2021-07-29_19h38.23.590,Simcolourproject_2stim_asymm_v5,2020.2.10,MacIntel,60,61025ae37ef11b136ea224fe,,,,,,,,,2902,-30.859375,-86.015625,1,0,0,response5disk,,3,-0.9140625,-10.86328125,1,0,0,rectangle,-0.9140625,-10.86328125,1,0,0,-0.9140625,-10.86328125,1,0,0,0,75,75,49,1,,,,,,,,
,,,,,,,,,,,,,FF,,,,,,,,0.965,,,,,,,,,,,,,,,,,,,,,,61035886e691b3a7e313208c,610365e8b4e8cd61018fe0ae,2021-07-29_19h38.23.590,Simcolourproject_2stim_asymm_v5,2020.2.10,MacIntel,60,61025ae37ef11b136ea224fe,,,,,,,,,2081,79.34375,-44.36328125,1,0,0,response3disk,,5,1.2734375,-14.859375,1,0,0,rectangle,1.2734375,-14.859375,1,0,0,1.2734375,-14.859375,1,0,0,0,76,76,130,1,,,,,,,,
,,,,,,,,,,,,,FF,,,,,,,,1.1171,,,,,,,,,,,,,,,,,,,,,,61035886e691b3a7e313208c,610365e8b4e8cd61018fe0ae,2021-07-29_19h38.23.590,Simcolourproject_2stim_asymm_v5,2020.2.10,MacIntel,60,61025ae37ef11b136ea224fe,,,,,,,,,1775,19.87890625,-76.1171875,1,0,0,response3disk,,4,2.0625,-15.8046875,1,0,0,rectangle,2.0625,-15.8046875,1,0,0,2.0625,-15.8046875,1,0,0,0,77,77,151,1,,,,,,,,
,,,,,,,,,,,,,FF,,,,,,,,1.0299,,,,,,,,,,,,,,,,,,,,,,61035886e691b3a7e313208c,610365e8b4e8cd61018fe0ae,2021-07-29_19h38.23.590,Simcolourproject_2stim_asymm_v5,2020.2.10,MacIntel,60,61025ae37ef11b136ea224fe,,,,,,,,,1199,76.73046875,-37.89453125,1,0,0,response3disk,,5,0.51953125,-4.07421875,1,0,0,rectangle,0.51953125,-4.07421875,1,0,0,0.51953125,-4.07421875,1,0,0,0,78,78,107,1,,,,,,,,
,,,,,,,,,,,,,FF,,,,,,,,2.0996,,,,,,,,,,,,,,,,,,,,,,61035886e691b3a7e313208c,610365e8b4e8cd61018fe0ae,2021-07-29_19h38.23.590,Simcolourproject_2stim_asymm_v5,2020.2.10,MacIntel,60,61025ae37ef11b136ea224fe,,,,,,,,,4366,-84.60546875,-33.14453125,1,0,0,response5disk,,2,-7.92578125,1.97265625,1,0,0,rectangle,-7.92578125,1.97265625,1,0,0,-7.92578125,1.97265625,1,0,0,0,79,79,51,1,,,,,,,,
,,,,,,,,,,,,,FF,,,,,,,,1.3322,,,,,,,,,,,,,,,,,,,,,,61035886e691b3a7e313208c,610365e8b4e8cd61018fe0ae,2021-07-29_19h38.23.590,Simcolourproject_2stim_asymm_v5,2020.2.10,MacIntel,60,61025ae37ef11b136ea224fe,,,,,,,,,3114,-76.94140625,-34.02734375,1,0,0,response5disk,,2,-21.6015625,0.92578125,1,0,0,rectangle,-21.6015625,0.92578125,1,0,0,-21.6015625,0.92578125,1,0,0,0,80,80,67,1,,,,,,,,
,,,,,,,,,,,,,FF,,,,,,,,1.1009,,,,,,,,,,,,,,,,,,,,,,61035886e691b3a7e313208c,610365e8b4e8cd61018fe0ae,2021-07-29_19h38.23.590,Simcolourproject_2stim_asymm_v5,2020.2.10,MacIntel,60,61025ae37ef11b136ea224fe,,,,,,,,,2583,80.57421875,16.6328125,1,0,0,response1disk,,6,21.92578125,-1.3515625,1,0,0,rectangle,21.92578125,-1.3515625,1,0,0,21.92578125,-1.3515625,1,0,0,0,81,81,33,1,,,,,,,,
,,,,,,,,,,,,,FF,,,,,,,,1.4501,,,,,,,,,,,,,,,,,,,,,,61035886e691b3a7e313208c,610365e8b4e8cd61018fe0ae,2021-07-29_19h38.23.590,Simcolourproject_2stim_asymm_v5,2020.2.10,MacIntel,60,61025ae37ef11b136ea224fe,,,,,,,,,2383,89.87109375,-54.6875,1,0,0,response3disk,,5,8.60546875,9.69921875,1,0,0,rectangle,8.60546875,9.69921875,1,0,0,8.60546875,9.69921875,1,0,0,0,82,82,81,1,,,,,,,,
,,,,,,,,,,,,,FF,,,,,,,,1.417,,,,,,,,,,,,,,,,,,,,,,61035886e691b3a7e313208c,610365e8b4e8cd61018fe0ae,2021-07-29_19h38.23.590,Simcolourproject_2stim_asymm_v5,2020.2.10,MacIntel,60,61025ae37ef11b136ea224fe,,,,,,,,,3036,-84.95703125,-23.27734375,1,0,0,response5disk,,2,-18.58203125,6.6328125,1,0,0,rectangle,-18.58203125,6.6328125,1,0,0,-18.58203125,6.6328125,1,0,0,0,83,83,37,1,,,,,,,,
,,,,,,,,,,,,,FF,,,,,,,,0.9996,,,,,,,,,,,,,,,,,,,,,,61035886e691b3a7e313208c,610365e8b4e8cd61018fe0ae,2021-07-29_19h38.23.590,Simcolourproject_2stim_asymm_v5,2020.2.10,MacIntel,60,61025ae37ef11b136ea224fe,,,,,,,,,4251,-66.3359375,28.19140625,1,0,0,response7disk,,1,-10.23046875,-4.49609375,1,0,0,rectangle,-10.23046875,-4.49609375,1,0,0,-10.23046875,-4.49609375,1,0,0,0,84,84,2,1,,,,,,,,
,,,,,,,,,,,,,FF,,,,,,,,1.1673,,,,,,,,,,,,,,,,,,,,,,61035886e691b3a7e313208c,610365e8b4e8cd61018fe0ae,2021-07-29_19h38.23.590,Simcolourproject_2stim_asymm_v5,2020.2.10,MacIntel,60,61025ae37ef11b136ea224fe,,,,,,,,,3770,32.6953125,-76.921875,1,0,0,response3disk,,4,18.68359375,-15.66796875,1,0,0,rectangle,18.68359375,-15.66796875,1,0,0,18.68359375,-15.66796875,1,0,0,0,85,85,143,1,,,,,,,,
,,,,,,,,,,,,,FF,,,,,,,,1.0832,,,,,,,,,,,,,,,,,,,,,,61035886e691b3a7e313208c,610365e8b4e8cd61018fe0ae,2021-07-29_19h38.23.590,Simcolourproject_2stim_asymm_v5,2020.2.10,MacIntel,60,61025ae37ef11b136ea224fe,,,,,,,,,2715,-54.515625,-73.55078125,1,0,0,response5disk,,3,-14.6484375,4.9609375,1,0,0,rectangle,-14.6484375,4.9609375,1,0,0,-14.6484375,4.9609375,1,0,0,0,86,86,123,1,,,,,,,,
,,,,,,,,,,,,,FF,,,,,,,,1.1332,,,,,,,,,,,,,,,,,,,,,,61035886e691b3a7e313208c,610365e8b4e8cd61018fe0ae,2021-07-29_19h38.23.590,Simcolourproject_2stim_asymm_v5,2020.2.10,MacIntel,60,61025ae37ef11b136ea224fe,,,,,,,,,2178,72.9765625,21.00390625,1,0,0,response1disk,,6,17.4375,5.1953125,1,0,0,rectangle,17.4375,5.1953125,1,0,0,17.4375,5.1953125,1,0,0,0,87,87,42,1,,,,,,,,
,,,,,,,,,,,,,FF,,,,,,,,0.9996,,,,,,,,,,,,,,,,,,,,,,61035886e691b3a7e313208c,610365e8b4e8cd61018fe0ae,2021-07-29_19h38.23.590,Simcolourproject_2stim_asymm_v5,2020.2.10,MacIntel,60,61025ae37ef11b136ea224fe,,,,,,,,,4011,40.74609375,60.11328125,1,0,0,response1disk,,7,15.46875,-7.4609375,1,0,0,rectangle,15.46875,-7.4609375,1,0,0,15.46875,-7.4609375,1,0,0,0,88,88,54,1,,,,,,,,
,,,,,,,,,,,,,FF,,,,,,,,1.3837,,,,,,,,,,,,,,,,,,,,,,61035886e691b3a7e313208c,610365e8b4e8cd61018fe0ae,2021-07-29_19h38.23.590,Simcolourproject_2stim_asymm_v5,2020.2.10,MacIntel,60,61025ae37ef11b136ea224fe,,,,,,,,,1667,81.22265625,-52.6015625,1,0,0,response3disk,,5,4.7265625,-1.859375,1,0,0,rectangle,4.7265625,-1.859375,1,0,0,4.7265625,-1.859375,1,0,0,0,89,89,23,1,,,,,,,,
,,,,,,,,,,,,,FF,,,,,,,,1.0165,,,,,,,,,,,,,,,,,,,,,,61035886e691b3a7e313208c,610365e8b4e8cd61018fe0ae,2021-07-29_19h38.23.590,Simcolourproject_2stim_asymm_v5,2020.2.10,MacIntel,60,61025ae37ef11b136ea224fe,,,,,,,,,3983,38.046875,-75.90234375,1,0,0,response3disk,,4,8.30078125,-11.28125,1,0,0,rectangle,8.30078125,-11.28125,1,0,0,8.30078125,-11.28125,1,0,0,0,90,90,72,1,,,,,,,,
,,,,,,,,,,,,,FF,,,,,,,,5.4172,,,,,,,,,,,,,,,,,,,,,,61035886e691b3a7e313208c,610365e8b4e8cd61018fe0ae,2021-07-29_19h38.23.590,Simcolourproject_2stim_asymm_v5,2020.2.10,MacIntel,60,61025ae37ef11b136ea224fe,,,,,,,,,2964,-34.22265625,-61.5,1,0,0,response5disk,,3,-8.4765625,-9.04296875,1,0,0,rectangle,-8.4765625,-9.04296875,1,0,0,-8.4765625,-9.04296875,1,0,0,0,91,91,19,1,,,,,,,,
,,,,,,,,,,,,,FF,,,,,,,,0.9165,,,,,,,,,,,,,,,,,,,,,,61035886e691b3a7e313208c,610365e8b4e8cd61018fe0ae,2021-07-29_19h38.23.590,Simcolourproject_2stim_asymm_v5,2020.2.10,MacIntel,60,61025ae37ef11b136ea224fe,,,,,,,,,476,77.29296875,-22.92578125,1,0,0,response3disk,,5,23.7890625,-4.26953125,1,0,0,rectangle,23.7890625,-4.26953125,1,0,0,23.7890625,-4.26953125,1,0,0,0,92,92,1,1,,,,,,,,
,,,,,,,,,,,,,FF,,,,,,,,0.9498,,,,,,,,,,,,,,,,,,,,,,61035886e691b3a7e313208c,610365e8b4e8cd61018fe0ae,2021-07-29_19h38.23.590,Simcolourproject_2stim_asymm_v5,2020.2.10,MacIntel,60,61025ae37ef11b136ea224fe,,,,,,,,,3127,77.125,-21.76171875,1,0,0,response3disk,,5,-0.83203125,3.359375,1,0,0,rectangle,-0.83203125,3.359375,1,0,0,-0.83203125,3.359375,1,0,0,0,93,93,117,1,,,,,,,,
,,,,,,,,,,,,,FF,,,,,,,,1.4662,,,,,,,,,,,,,,,,,,,,,,61035886e691b3a7e313208c,610365e8b4e8cd61018fe0ae,2021-07-29_19h38.23.590,Simcolourproject_2stim_asymm_v5,2020.2.10,MacIntel,60,61025ae37ef11b136ea224fe,,,,,,,,,3897,71.49609375,-32.546875,1,0,0,response3disk,,5,-8.23046875,-4.76953125,1,0,0,rectangle,-8.23046875,-4.76953125,1,0,0,-8.23046875,-4.76953125,1,0,0,0,94,94,7,1,,,,,,,,
,,,,,,,,,,,,,FF,,,,,,,,1.0327,,,,,,,,,,,,,,,,,,,,,,61035886e691b3a7e313208c,610365e8b4e8cd61018fe0ae,2021-07-29_19h38.23.590,Simcolourproject_2stim_asymm_v5,2020.2.10,MacIntel,60,61025ae37ef11b136ea224fe,,,,,,,,,4053,-42.30859375,-94.75,1,0,0,response5disk,,3,5.46875,-6.0390625,1,0,0,rectangle,5.46875,-6.0390625,1,0,0,5.46875,-6.0390625,1,0,0,0,95,95,103,1,,,,,,,,
,,,,,,,,,,,,,FF,,,,,,,,0.7662,,,,,,,,,,,,,,,,,,,,,,61035886e691b3a7e313208c,610365e8b4e8cd61018fe0ae,2021-07-29_19h38.23.590,Simcolourproject_2stim_asymm_v5,2020.2.10,MacIntel,60,61025ae37ef11b136ea224fe,,,,,,,,,3327,29.26953125,51.62109375,1,0,0,response1disk,,7,-9.94140625,-12.61328125,1,0,0,rectangle,-9.94140625,-12.61328125,1,0,0,-9.94140625,-12.61328125,1,0,0,0,96,96,55,1,,,,,,,,
,,,,,,,,,,,,,FF,,,,,,,,1.0491,,,,,,,,,,,,,,,,,,,,,,61035886e691b3a7e313208c,610365e8b4e8cd61018fe0ae,2021-07-29_19h38.23.590,Simcolourproject_2stim_asymm_v5,2020.2.10,MacIntel,60,61025ae37ef11b136ea224fe,,,,,,,,,2062,64.6328125,-33.2421875,1,0,0,response3disk,,5,9.81640625,0.42578125,1,0,0,rectangle,9.81640625,0.42578125,1,0,0,9.81640625,0.42578125,1,0,0,0,97,97,74,1,,,,,,,,
,,,,,,,,,,,,,FF,,,,,,,,1.6326,,,,,,,,,,,,,,,,,,,,,,61035886e691b3a7e313208c,610365e8b4e8cd61018fe0ae,2021-07-29_19h38.23.590,Simcolourproject_2stim_asymm_v5,2020.2.10,MacIntel,60,61025ae37ef11b136ea224fe,,,,,,,,,699,41.41796875,-83.328125,1,0,0,response3disk,,4,1.32421875,-7.4140625,1,0,0,rectangle,1.32421875,-7.4140625,1,0,0,1.32421875,-7.4140625,1,0,0,0,98,98,86,1,,,,,,,,
,,,,,,,,,,,,,FF,,,,,,,,1.3825,,,,,,,,,,,,,,,,,,,,,,61035886e691b3a7e313208c,610365e8b4e8cd61018fe0ae,2021-07-29_19h38.23.590,Simcolourproject_2stim_asymm_v5,2020.2.10,MacIntel,60,61025ae37ef11b136ea224fe,,,,,,,,,2452,97.43359375,26.50390625,1,0,0,response1disk,,6,7.140625,-11.6328125,1,0,0,rectangle,7.140625,-11.6328125,1,0,0,7.140625,-11.6328125,1,0,0,0,99,99,154,1,,,,,,,,
,,,,,,,,,,,,,FF,,,,,,,,1.3496,,,,,,,,,,,,,,,,,,,,,,61035886e691b3a7e313208c,610365e8b4e8cd61018fe0ae,2021-07-29_19h38.23.590,Simcolourproject_2stim_asymm_v5,2020.2.10,MacIntel,60,61025ae37ef11b136ea224fe,,,,,,,,,1163,71.11328125,19.8203125,1,0,0,response1disk,,6,-18.625,-8.3203125,1,0,0,rectangle,-18.625,-8.3203125,1,0,0,-18.625,-8.3203125,1,0,0,0,100,100,84,1,,,,,,,,
,,,,,,,,,,,,,FF,,,,,,,,1.0684,,,,,,,,,,,,,,,,,,,,,,61035886e691b3a7e313208c,610365e8b4e8cd61018fe0ae,2021-07-29_19h38.23.590,Simcolourproject_2stim_asymm_v5,2020.2.10,MacIntel,60,61025ae37ef11b136ea224fe,,,,,,,,,4209,35.484375,55.8046875,1,0,0,response1disk,,7,1.12890625,-13.0625,1,0,0,rectangle,1.12890625,-13.0625,1,0,0,1.12890625,-13.0625,1,0,0,0,101,101,144,1,,,,,,,,
,,,,,,,,,,,,,FF,,,,,,,,0.8667,,,,,,,,,,,,,,,,,,,,,,61035886e691b3a7e313208c,610365e8b4e8cd61018fe0ae,2021-07-29_19h38.23.590,Simcolourproject_2stim_asymm_v5,2020.2.10,MacIntel,60,61025ae37ef11b136ea224fe,,,,,,,,,2388,63.65234375,-24.01171875,1,0,0,response3disk,,5,17.4296875,-1.5390625,1,0,0,rectangle,17.4296875,-1.5390625,1,0,0,17.4296875,-1.5390625,1,0,0,0,102,102,5,1,,,,,,,,
,,,,,,,,,,,,,FF,,,,,,,,1.8332,,,,,,,,,,,,,,,,,,,,,,61035886e691b3a7e313208c,610365e8b4e8cd61018fe0ae,2021-07-29_19h38.23.590,Simcolourproject_2stim_asymm_v5,2020.2.10,MacIntel,60,61025ae37ef11b136ea224fe,,,,,,,,,3981,21.23828125,-70.41015625,1,0,0,response3disk,,4,-1.63671875,-5.859375,1,0,0,rectangle,-1.63671875,-5.859375,1,0,0,-1.63671875,-5.859375,1,0,0,0,103,103,115,1,,,,,,,,
,,,,,,,,,,,,,FF,,,,,,,,1.0342,,,,,,,,,,,,,,,,,,,,,,61035886e691b3a7e313208c,610365e8b4e8cd61018fe0ae,2021-07-29_19h38.23.590,Simcolourproject_2stim_asymm_v5,2020.2.10,MacIntel,60,61025ae37ef11b136ea224fe,,,,,,,,,886,-74.73828125,-38.765625,1,0,0,response5disk,,2,-11.03125,6.64453125,1,0,0,rectangle,-11.03125,6.64453125,1,0,0,-11.03125,6.64453125,1,0,0,0,104,104,79,1,,,,,,,,
,,,,,,,,,,,,,FF,,,,,,,,1.6662,,,,,,,,,,,,,,,,,,,,,,61035886e691b3a7e313208c,610365e8b4e8cd61018fe0ae,2021-07-29_19h38.23.590,Simcolourproject_2stim_asymm_v5,2020.2.10,MacIntel,60,61025ae37ef11b136ea224fe,,,,,,,,,3377,-88.54296875,-42.0703125,1,0,0,response5disk,,2,2.9296875,-3.40234375,1,0,0,rectangle,2.9296875,-3.40234375,1,0,0,2.9296875,-3.40234375,1,0,0,0,105,105,109,1,,,,,,,,
,,,,,,,,,,,,,FF,,,,,,,,1.101,,,,,,,,,,,,,,,,,,,,,,61035886e691b3a7e313208c,610365e8b4e8cd61018fe0ae,2021-07-29_19h38.23.590,Simcolourproject_2stim_asymm_v5,2020.2.10,MacIntel,60,61025ae37ef11b136ea224fe,,,,,,,,,2911,86.296875,15.1328125,1,0,0,response1disk,,6,14.2265625,-2.93359375,1,0,0,rectangle,14.2265625,-2.93359375,1,0,0,14.2265625,-2.93359375,1,0,0,0,106,106,94,1,,,,,,,,
,,,,,,,,,,,,,FF,,,,,,,,1.3957,,,,,,,,,,,,,,,,,,,,,,61035886e691b3a7e313208c,610365e8b4e8cd61018fe0ae,2021-07-29_19h38.23.590,Simcolourproject_2stim_asymm_v5,2020.2.10,MacIntel,60,61025ae37ef11b136ea224fe,,,,,,,,,3883,86.4140625,18.234375,1,0,0,response1disk,,6,0.53515625,-9.421875,1,0,0,rectangle,0.53515625,-9.421875,1,0,0,0.53515625,-9.421875,1,0,0,0,107,107,69,1,,,,,,,,
,,,,,,,,,,,,,FF,,,,,,,,0.9326,,,,,,,,,,,,,,,,,,,,,,61035886e691b3a7e313208c,610365e8b4e8cd61018fe0ae,2021-07-29_19h38.23.590,Simcolourproject_2stim_asymm_v5,2020.2.10,MacIntel,60,61025ae37ef11b136ea224fe,,,,,,,,,2462,44.03515625,63.0234375,1,0,0,response1disk,,7,0.47265625,-10.63671875,1,0,0,rectangle,0.47265625,-10.63671875,1,0,0,0.47265625,-10.63671875,1,0,0,0,108,108,132,1,,,,,,,,
,,,,,,,,,,,,,FF,,,,,,,,0.9513,,,,,,,,,,,,,,,,,,,,,,61035886e691b3a7e313208c,610365e8b4e8cd61018fe0ae,2021-07-29_19h38.23.590,Simcolourproject_2stim_asymm_v5,2020.2.10,MacIntel,60,61025ae37ef11b136ea224fe,,,,,,,,,3117,41.18359375,82.76953125,1,0,0,response1disk,,7,-3.78515625,-3.94140625,1,0,0,rectangle,-3.78515625,-3.94140625,1,0,0,-3.78515625,-3.94140625,1,0,0,0,109,109,105,1,,,,,,,,
,,,,,,,,,,,,,FF,,,,,,,,1.7015,,,,,,,,,,,,,,,,,,,,,,61035886e691b3a7e313208c,610365e8b4e8cd61018fe0ae,2021-07-29_19h38.23.590,Simcolourproject_2stim_asymm_v5,2020.2.10,MacIntel,60,61025ae37ef11b136ea224fe,,,,,,,,,2049,69.8359375,39.42578125,1,0,0,response1disk,,6,14.6796875,8.69140625,1,0,0,rectangle,14.6796875,8.69140625,1,0,0,14.6796875,8.69140625,1,0,0,0,110,110,145,1,,,,,,,,
,,,,,,,,,,,,,FF,,,,,,,,3.9667,,,,,,,,,,,,,,,,,,,,,,61035886e691b3a7e313208c,610365e8b4e8cd61018fe0ae,2021-07-29_19h38.23.590,Simcolourproject_2stim_asymm_v5,2020.2.10,MacIntel,60,61025ae37ef11b136ea224fe,,,,,,,,,1174,54.5859375,-74.27734375,1,0,0,response3disk,,4,10.6875,-6.96484375,1,0,0,rectangle,10.6875,-6.96484375,1,0,0,10.6875,-6.96484375,1,0,0,0,111,111,64,1,,,,,,,,
,,,,,,,,,,,,,FF,,,,,,,,0.9503,,,,,,,,,,,,,,,,,,,,,,61035886e691b3a7e313208c,610365e8b4e8cd61018fe0ae,2021-07-29_19h38.23.590,Simcolourproject_2stim_asymm_v5,2020.2.10,MacIntel,60,61025ae37ef11b136ea224fe,,,,,,,,,3197,-94.34765625,-27.33203125,1,0,0,response5disk,,2,-12.22265625,-2.30078125,1,0,0,rectangle,-12.22265625,-2.30078125,1,0,0,-12.22265625,-2.30078125,1,0,0,0,112,112,29,1,,,,,,,,
,,,,,,,,,,,,,FF,,,,,,,,2.4497,,,,,,,,,,,,,,,,,,,,,,61035886e691b3a7e313208c,610365e8b4e8cd61018fe0ae,2021-07-29_19h38.23.590,Simcolourproject_2stim_asymm_v5,2020.2.10,MacIntel,60,61025ae37ef11b136ea224fe,,,,,,,,,4311,61.765625,-35.234375,1,0,0,response3disk,,5,18.90625,-11.01171875,1,0,0,rectangle,18.90625,-11.01171875,1,0,0,18.90625,-11.01171875,1,0,0,0,113,113,59,1,,,,,,,,
,,,,,,,,,,,,,FF,,,,,,,,0.7671,,,,,,,,,,,,,,,,,,,,,,61035886e691b3a7e313208c,610365e8b4e8cd61018fe0ae,2021-07-29_19h38.23.590,Simcolourproject_2stim_asymm_v5,2020.2.10,MacIntel,60,61025ae37ef11b136ea224fe,,,,,,,,,3576,59.2265625,-36.39453125,1,0,0,response3disk,,5,13.046875,-11.26953125,1,0,0,rectangle,13.046875,-11.26953125,1,0,0,13.046875,-11.26953125,1,0,0,0,114,114,129,1,,,,,,,,
,,,,,,,,,,,,,FF,,,,,,,,0.9336,,,,,,,,,,,,,,,,,,,,,,61035886e691b3a7e313208c,610365e8b4e8cd61018fe0ae,2021-07-29_19h38.23.590,Simcolourproject_2stim_asymm_v5,2020.2.10,MacIntel,60,61025ae37ef11b136ea224fe,,,,,,,,,3345,29.4140625,54.375,1,0,0,response1disk,,7,9.12890625,-16.453125,1,0,0,rectangle,9.12890625,-16.453125,1,0,0,9.12890625,-16.453125,1,0,0,0,115,115,101,1,,,,,,,,
,,,,,,,,,,,,,FF,,,,,,,,1.6001,,,,,,,,,,,,,,,,,,,,,,61035886e691b3a7e313208c,610365e8b4e8cd61018fe0ae,2021-07-29_19h38.23.590,Simcolourproject_2stim_asymm_v5,2020.2.10,MacIntel,60,61025ae37ef11b136ea224fe,,,,,,,,,127,74.6953125,-40.65234375,1,0,0,response3disk,,5,4.2734375,-10.23828125,1,0,0,rectangle,4.2734375,-10.23828125,1,0,0,4.2734375,-10.23828125,1,0,0,0,116,116,95,1,,,,,,,,
,,,,,,,,,,,,,FF,,,,,,,,1.8675,,,,,,,,,,,,,,,,,,,,,,61035886e691b3a7e313208c,610365e8b4e8cd61018fe0ae,2021-07-29_19h38.23.590,Simcolourproject_2stim_asymm_v5,2020.2.10,MacIntel,60,61025ae37ef11b136ea224fe,,,,,,,,,1116,80.1015625,-44.52734375,1,0,0,response3disk,,5,11.21484375,-0.13671875,1,0,0,rectangle,11.21484375,-0.13671875,1,0,0,11.21484375,-0.13671875,1,0,0,0,117,117,71,1,,,,,,,,
,,,,,,,,,,,,,FF,,,,,,,,0.967,,,,,,,,,,,,,,,,,,,,,,61035886e691b3a7e313208c,610365e8b4e8cd61018fe0ae,2021-07-29_19h38.23.590,Simcolourproject_2stim_asymm_v5,2020.2.10,MacIntel,60,61025ae37ef11b136ea224fe,,,,,,,,,4106,-35.0546875,-62.921875,1,0,0,response5disk,,3,1.58203125,4.07421875,1,0,0,rectangle,1.58203125,4.07421875,1,0,0,1.58203125,4.07421875,1,0,0,0,118,118,153,1,,,,,,,,
,,,,,,,,,,,,,FF,,,,,,,,1.0667,,,,,,,,,,,,,,,,,,,,,,61035886e691b3a7e313208c,610365e8b4e8cd61018fe0ae,2021-07-29_19h38.23.590,Simcolourproject_2stim_asymm_v5,2020.2.10,MacIntel,60,61025ae37ef11b136ea224fe,,,,,,,,,729,-25.1796875,-87.40625,1,0,0,response5disk,,3,-3.01953125,-3.17578125,1,0,0,rectangle,-3.01953125,-3.17578125,1,0,0,-3.01953125,-3.17578125,1,0,0,0,119,119,17,1,,,,,,,,
,,,,,,,,,,,,,FF,,,,,,,,1.3334,,,,,,,,,,,,,,,,,,,,,,61035886e691b3a7e313208c,610365e8b4e8cd61018fe0ae,2021-07-29_19h38.23.590,Simcolourproject_2stim_asymm_v5,2020.2.10,MacIntel,60,61025ae37ef11b136ea224fe,,,,,,,,,443,-73.6328125,-48.22265625,1,0,0,response5disk,,2,-3.19921875,-0.9375,1,0,0,rectangle,-3.19921875,-0.9375,1,0,0,-3.19921875,-0.9375,1,0,0,0,120,120,70,1,,,,,,,,
