key_resp.keys,key_resp.rt,key_resp_14.keys,key_resp_14.rt,key_resp_15.keys,key_resp_15.rt,key_resp_17.keys,key_resp_17.rt,key_resp_9.keys,key_resp_9.rt,key_resp_10.keys,key_resp_10.rt,practice_comparison,Ecc,mouse_5.x,mouse_5.y,mouse_5.leftButton,mouse_5.midButton,mouse_5.rightButton,mouse_5.clicked_name,pracsimilarity,response_time,mouse_10.x,mouse_10.y,mouse_10.leftButton,mouse_10.midButton,mouse_10.rightButton,mouse_10.clicked_name,mouse_7.x,mouse_7.y,mouse_7.leftButton,mouse_7.midButton,mouse_7.rightButton,mouse_6.x,mouse_6.y,mouse_6.leftButton,mouse_6.midButton,mouse_6.rightButton,duringprac.thisRepN,duringprac.thisTrialN,duringprac.thisN,duringprac.thisIndex,duringprac.ran,participant,session,date,expName,psychopyVersion,OS,frameRate,study_id,mouse_7.clicked_name,catchpracsimilarity,catch_response_time,catchnumberprac,catchtrialorderprac,mouse_6.clicked_name,key_resp_22.keys,key_resp_22.rt,realcomparison,mouse.x,mouse.y,mouse.leftButton,mouse.midButton,mouse.rightButton,mouse.clicked_name,Colour2,similarity,mouse_2.x,mouse_2.y,mouse_2.leftButton,mouse_2.midButton,mouse_2.rightButton,mouse_2.clicked_name,mouse_3.x,mouse_3.y,mouse_3.leftButton,mouse_3.midButton,mouse_3.rightButton,mouse_3.clicked_name,catchornah,catchsimilarity,catchnumber,catchtrialorder,catchRT,mouse_11.x,mouse_11.y,mouse_11.leftButton,mouse_11.midButton,mouse_11.rightButton,mouse_11.clicked_name,trials_2.thisRepN,trials_2.thisTrialN,trials_2.thisN,trials_2.thisIndex,trials_2.ran,Colour1
space,2.2362,space,43.6023,space,46.5505,space,15.3983,space,8.7328,space,5.6817,76,PF,-37.7890625,76.72265625,1,0,0,response7disk_5,0,13.9912,6.85546875,-4.28515625,1,0,0,rectangle_8,6.85546875,-4.28515625,1,0,0,6.85546875,-4.28515625,1,0,0,0,0,0,4,1,61034f3b7331bbf477dd2dda,61036ebf7d4c69350054cb4f,2021-07-29_22h16.27.911,Simcolourproject_2stim_asymm_v5,2020.2.10,MacIntel,60,61025ae37ef11b136ea224fe,,,,,,,,,,,,,,,,,,,,,,,,,,,,,,,,,,,,,,,,,,,,,,
,,,,,,,,,,,,158,PF,46.71875,73.4140625,1,0,0,response1disk_5,7,10.7825,11.52734375,-4.6796875,1,0,0,rectangle_8,89.88671875,-42.078125,1,0,0,15.58203125,-1.25390625,1,0,0,0,1,1,6,1,61034f3b7331bbf477dd2dda,61036ebf7d4c69350054cb4f,2021-07-29_22h16.27.911,Simcolourproject_2stim_asymm_v5,2020.2.10,MacIntel,60,61025ae37ef11b136ea224fe,response3disk_7,5,3.6017,5,"[2,5]",rectangle_4,,,,,,,,,,,,,,,,,,,,,,,,,,,,,,,,,,,,,,,,
,,,,,,,,,,,,46,PF,41.09375,90.1484375,1,0,0,response1disk_5,7,4.8555,6.625,-2.98828125,1,0,0,rectangle_8,6.625,-2.98828125,1,0,0,6.625,-2.98828125,1,0,0,0,2,2,1,1,61034f3b7331bbf477dd2dda,61036ebf7d4c69350054cb4f,2021-07-29_22h16.27.911,Simcolourproject_2stim_asymm_v5,2020.2.10,MacIntel,60,61025ae37ef11b136ea224fe,,,,,,,,,,,,,,,,,,,,,,,,,,,,,,,,,,,,,,,,,,,,,,
,,,,,,,,,,,,22,FF,45.4375,84.09765625,1,0,0,response1disk_5,7,11.4783,-6.00390625,-1.73828125,1,0,0,rectangle_8,-6.00390625,-1.73828125,1,0,0,-6.00390625,-1.73828125,1,0,0,0,3,3,3,1,61034f3b7331bbf477dd2dda,61036ebf7d4c69350054cb4f,2021-07-29_22h16.27.911,Simcolourproject_2stim_asymm_v5,2020.2.10,MacIntel,60,61025ae37ef11b136ea224fe,,,,,,,,,,,,,,,,,,,,,,,,,,,,,,,,,,,,,,,,,,,,,,
,,,,,,,,,,,,157,FF,41.22265625,77.23046875,1,0,0,response1disk_5,7,3.4492,-0.546875,-2.55859375,1,0,0,rectangle_8,89.44140625,-53.42578125,1,0,0,7.4140625,-1.53515625,1,0,0,0,4,4,5,1,61034f3b7331bbf477dd2dda,61036ebf7d4c69350054cb4f,2021-07-29_22h16.27.911,Simcolourproject_2stim_asymm_v5,2020.2.10,MacIntel,60,61025ae37ef11b136ea224fe,response3disk_7,5,4.5515,5,"[2,5]",rectangle_4,,,,,,,,,,,,,,,,,,,,,,,,,,,,,,,,,,,,,,,,
,,,,,,,,,,,,41,PF,50.93359375,91.27734375,1,0,0,response1disk_5,7,2.834,0.3046875,8.1953125,1,0,0,rectangle_8,0.3046875,8.1953125,1,0,0,0.3046875,8.1953125,1,0,0,0,5,5,2,1,61034f3b7331bbf477dd2dda,61036ebf7d4c69350054cb4f,2021-07-29_22h16.27.911,Simcolourproject_2stim_asymm_v5,2020.2.10,MacIntel,60,61025ae37ef11b136ea224fe,,,,,,,,,,,,,,,,,,,,,,,,,,,,,,,,,,,,,,,,,,,,,,
,,,,,,,,,,,,0,FF,60.8203125,72.13671875,1,0,0,response1disk_5,7,1.984,4.00390625,-8.48046875,1,0,0,rectangle_8,4.00390625,-8.48046875,1,0,0,4.00390625,-8.48046875,1,0,0,0,6,6,0,1,61034f3b7331bbf477dd2dda,61036ebf7d4c69350054cb4f,2021-07-29_22h16.27.911,Simcolourproject_2stim_asymm_v5,2020.2.10,MacIntel,60,61025ae37ef11b136ea224fe,,,,,,,,,,,,,,,,,,,,,,,,,,,,,,,,,,,,,,,,,,,,,,
,,,,,,,,,,,,,FF,,,,,,,,4.8166,,,,,,,,,,,,,,,,,,,,,,61034f3b7331bbf477dd2dda,61036ebf7d4c69350054cb4f,2021-07-29_22h16.27.911,Simcolourproject_2stim_asymm_v5,2020.2.10,MacIntel,60,61025ae37ef11b136ea224fe,,,,,,,space,3.6552,2222,56.4765625,100.1679688,1,0,0,response1disk,,7,-7.09765625,-6.23828125,1,0,0,rectangle,104.2890625,41.27734375,1,0,0,response1disk_3,TRUE,6,6,"[14,102,109,76,46,232,209,278,307,69,222,177,43,57,1,7,322,219,253,76]",2.633,6.6953125,-0.296875,1,0,0,rectangle,0,0,0,146,1,
,,,,,,,,,,,,,FF,,,,,,,,4.3308,,,,,,,,,,,,,,,,,,,,,,61034f3b7331bbf477dd2dda,61036ebf7d4c69350054cb4f,2021-07-29_22h16.27.911,Simcolourproject_2stim_asymm_v5,2020.2.10,MacIntel,60,61025ae37ef11b136ea224fe,,,,,,,,,3254,96.07421875,-32.890625,1,0,0,response3disk,,5,12.2421875,8.68359375,1,0,0,rectangle,12.2421875,8.68359375,1,0,0,,,,,,,12.2421875,8.68359375,1,0,0,,0,1,1,57,1,
,,,,,,,,,,,,,FF,,,,,,,,1.4475,,,,,,,,,,,,,,,,,,,,,,61034f3b7331bbf477dd2dda,61036ebf7d4c69350054cb4f,2021-07-29_22h16.27.911,Simcolourproject_2stim_asymm_v5,2020.2.10,MacIntel,60,61025ae37ef11b136ea224fe,,,,,,,,,539,45.77734375,79.93359375,1,0,0,response1disk,,7,-5.10546875,-3.5078125,1,0,0,rectangle,-5.10546875,-3.5078125,1,0,0,,,,,,,-5.10546875,-3.5078125,1,0,0,,0,2,2,119,1,
,,,,,,,,,,,,,FF,,,,,,,,2.9804,,,,,,,,,,,,,,,,,,,,,,61034f3b7331bbf477dd2dda,61036ebf7d4c69350054cb4f,2021-07-29_22h16.27.911,Simcolourproject_2stim_asymm_v5,2020.2.10,MacIntel,60,61025ae37ef11b136ea224fe,,,,,,,,,1809,67.859375,-40.80859375,1,0,0,response3disk,,5,4.390625,3.2421875,1,0,0,rectangle,4.390625,3.2421875,1,0,0,,,,,,,4.390625,3.2421875,1,0,0,,0,3,3,94,1,
,,,,,,,,,,,,,FF,,,,,,,,4.9002,,,,,,,,,,,,,,,,,,,,,,61034f3b7331bbf477dd2dda,61036ebf7d4c69350054cb4f,2021-07-29_22h16.27.911,Simcolourproject_2stim_asymm_v5,2020.2.10,MacIntel,60,61025ae37ef11b136ea224fe,,,,,,,,,433,-50.265625,-103.9882813,1,0,0,response5disk,,3,8.39453125,0.86328125,1,0,0,rectangle,8.39453125,0.86328125,1,0,0,,,,,,,8.39453125,0.86328125,1,0,0,,0,4,4,124,1,
,,,,,,,,,,,,,FF,,,,,,,,2.271,,,,,,,,,,,,,,,,,,,,,,61034f3b7331bbf477dd2dda,61036ebf7d4c69350054cb4f,2021-07-29_22h16.27.911,Simcolourproject_2stim_asymm_v5,2020.2.10,MacIntel,60,61025ae37ef11b136ea224fe,,,,,,,,,68,79.0234375,-44.35546875,1,0,0,response3disk,,5,21.43359375,-1.63671875,1,0,0,rectangle,21.43359375,-1.63671875,1,0,0,,,,,,,21.43359375,-1.63671875,1,0,0,,0,5,5,96,1,
,,,,,,,,,,,,,FF,,,,,,,,5.6137,,,,,,,,,,,,,,,,,,,,,,61034f3b7331bbf477dd2dda,61036ebf7d4c69350054cb4f,2021-07-29_22h16.27.911,Simcolourproject_2stim_asymm_v5,2020.2.10,MacIntel,60,61025ae37ef11b136ea224fe,,,,,,,,,527,47.41015625,-98.27734375,1,0,0,response3disk,,4,9.16796875,-2.9921875,1,0,0,rectangle,-55.80859375,88.0703125,1,0,0,response7disk_3,TRUE,0,0,"[14,102,109,76,46,232,209,278,307,69,222,177,43,57,1,7,322,219,253,76]",2.7155,-5.78515625,-2.29296875,1,0,0,rectangle,0,6,6,89,1,
,,,,,,,,,,,,,FF,,,,,,,,5.1129,,,,,,,,,,,,,,,,,,,,,,61034f3b7331bbf477dd2dda,61036ebf7d4c69350054cb4f,2021-07-29_22h16.27.911,Simcolourproject_2stim_asymm_v5,2020.2.10,MacIntel,60,61025ae37ef11b136ea224fe,,,,,,,,,3226,101.15625,44.73828125,1,0,0,response1disk,,6,10.70703125,1.1875,1,0,0,rectangle,10.70703125,1.1875,1,0,0,,,,,,,10.70703125,1.1875,1,0,0,,0,7,7,17,1,
,,,,,,,,,,,,,FF,,,,,,,,2.4164,,,,,,,,,,,,,,,,,,,,,,61034f3b7331bbf477dd2dda,61036ebf7d4c69350054cb4f,2021-07-29_22h16.27.911,Simcolourproject_2stim_asymm_v5,2020.2.10,MacIntel,60,61025ae37ef11b136ea224fe,,,,,,,,,3474,-77.02734375,-51.06640625,1,0,0,response5disk,,2,8.15234375,-2.69921875,1,0,0,rectangle,8.15234375,-2.69921875,1,0,0,,,,,,,8.15234375,-2.69921875,1,0,0,,0,8,8,147,1,
,,,,,,,,,,,,,FF,,,,,,,,3.6481,,,,,,,,,,,,,,,,,,,,,,61034f3b7331bbf477dd2dda,61036ebf7d4c69350054cb4f,2021-07-29_22h16.27.911,Simcolourproject_2stim_asymm_v5,2020.2.10,MacIntel,60,61025ae37ef11b136ea224fe,,,,,,,,,1199,99.53515625,29.4921875,1,0,0,response1disk,,6,3.44140625,-5.30078125,1,0,0,rectangle,3.44140625,-5.30078125,1,0,0,,,,,,,3.44140625,-5.30078125,1,0,0,,0,9,9,139,1,
,,,,,,,,,,,,,FF,,,,,,,,4.1662,,,,,,,,,,,,,,,,,,,,,,61034f3b7331bbf477dd2dda,61036ebf7d4c69350054cb4f,2021-07-29_22h16.27.911,Simcolourproject_2stim_asymm_v5,2020.2.10,MacIntel,60,61025ae37ef11b136ea224fe,,,,,,,,,375,73.56640625,35.48046875,1,0,0,response1disk,,6,7.84765625,-0.66015625,1,0,0,rectangle,7.84765625,-0.66015625,1,0,0,,,,,,,7.84765625,-0.66015625,1,0,0,,0,10,10,43,1,
,,,,,,,,,,,,,FF,,,,,,,,2.6834,,,,,,,,,,,,,,,,,,,,,,61034f3b7331bbf477dd2dda,61036ebf7d4c69350054cb4f,2021-07-29_22h16.27.911,Simcolourproject_2stim_asymm_v5,2020.2.10,MacIntel,60,61025ae37ef11b136ea224fe,,,,,,,,,3811,-47.609375,85.23828125,1,0,0,response7disk,,0,5.5078125,-2.12890625,1,0,0,rectangle,5.5078125,-2.12890625,1,0,0,,,,,,,5.5078125,-2.12890625,1,0,0,,0,11,11,154,1,
,,,,,,,,,,,,,FF,,,,,,,,1.7973,,,,,,,,,,,,,,,,,,,,,,61034f3b7331bbf477dd2dda,61036ebf7d4c69350054cb4f,2021-07-29_22h16.27.911,Simcolourproject_2stim_asymm_v5,2020.2.10,MacIntel,60,61025ae37ef11b136ea224fe,,,,,,,,,1370,-67.19140625,30.53125,1,0,0,response7disk,,1,-4.63671875,1.2578125,1,0,0,rectangle,-4.63671875,1.2578125,1,0,0,,,,,,,-4.63671875,1.2578125,1,0,0,,0,12,12,149,1,
,,,,,,,,,,,,,FF,,,,,,,,4.2014,,,,,,,,,,,,,,,,,,,,,,61034f3b7331bbf477dd2dda,61036ebf7d4c69350054cb4f,2021-07-29_22h16.27.911,Simcolourproject_2stim_asymm_v5,2020.2.10,MacIntel,60,61025ae37ef11b136ea224fe,,,,,,,,,1808,54.55859375,-109.3945313,1,0,0,response3disk,,4,-2.45703125,-0.2890625,1,0,0,rectangle,-39.9609375,-88.8203125,1,0,0,response5disk_3,TRUE,3,3,"[14,102,109,76,46,232,209,278,307,69,222,177,43,57,1,7,322,219,253,76]",2.9834,-3.265625,-3.90625,1,0,0,rectangle,0,13,13,121,1,
,,,,,,,,,,,,,FF,,,,,,,,1.8668,,,,,,,,,,,,,,,,,,,,,,61034f3b7331bbf477dd2dda,61036ebf7d4c69350054cb4f,2021-07-29_22h16.27.911,Simcolourproject_2stim_asymm_v5,2020.2.10,MacIntel,60,61025ae37ef11b136ea224fe,,,,,,,,,1603,-87.21875,39.01953125,1,0,0,response7disk,,1,-2.84375,-5.48046875,1,0,0,rectangle,-2.84375,-5.48046875,1,0,0,,,,,,,-2.84375,-5.48046875,1,0,0,,0,14,14,112,1,
,,,,,,,,,,,,,FF,,,,,,,,2.7043,,,,,,,,,,,,,,,,,,,,,,61034f3b7331bbf477dd2dda,61036ebf7d4c69350054cb4f,2021-07-29_22h16.27.911,Simcolourproject_2stim_asymm_v5,2020.2.10,MacIntel,60,61025ae37ef11b136ea224fe,,,,,,,,,269,48.5859375,85.84375,1,0,0,response1disk,,7,-2.8671875,-6.52734375,1,0,0,rectangle,-2.8671875,-6.52734375,1,0,0,,,,,,,-2.8671875,-6.52734375,1,0,0,,0,15,15,62,1,
,,,,,,,,,,,,,FF,,,,,,,,2.0045,,,,,,,,,,,,,,,,,,,,,,61034f3b7331bbf477dd2dda,61036ebf7d4c69350054cb4f,2021-07-29_22h16.27.911,Simcolourproject_2stim_asymm_v5,2020.2.10,MacIntel,60,61025ae37ef11b136ea224fe,,,,,,,,,2742,80.453125,-43.15234375,1,0,0,response3disk,,5,2.58984375,-1.6953125,1,0,0,rectangle,2.58984375,-1.6953125,1,0,0,,,,,,,2.58984375,-1.6953125,1,0,0,,0,16,16,120,1,
,,,,,,,,,,,,,FF,,,,,,,,5.3366,,,,,,,,,,,,,,,,,,,,,,61034f3b7331bbf477dd2dda,61036ebf7d4c69350054cb4f,2021-07-29_22h16.27.911,Simcolourproject_2stim_asymm_v5,2020.2.10,MacIntel,60,61025ae37ef11b136ea224fe,,,,,,,,,1620,107.53125,46.66796875,1,0,0,response1disk,,6,6.88671875,-1.21484375,1,0,0,rectangle,6.88671875,-1.21484375,1,0,0,,,,,,,6.88671875,-1.21484375,1,0,0,,0,17,17,46,1,
,,,,,,,,,,,,,FF,,,,,,,,1.7477,,,,,,,,,,,,,,,,,,,,,,61034f3b7331bbf477dd2dda,61036ebf7d4c69350054cb4f,2021-07-29_22h16.27.911,Simcolourproject_2stim_asymm_v5,2020.2.10,MacIntel,60,61025ae37ef11b136ea224fe,,,,,,,,,4302,35.2890625,74.8671875,1,0,0,response1disk,,7,1.32421875,-9.51171875,1,0,0,rectangle,1.32421875,-9.51171875,1,0,0,,,,,,,1.32421875,-9.51171875,1,0,0,,0,18,18,76,1,
,,,,,,,,,,,,,FF,,,,,,,,3.6361,,,,,,,,,,,,,,,,,,,,,,61034f3b7331bbf477dd2dda,61036ebf7d4c69350054cb4f,2021-07-29_22h16.27.911,Simcolourproject_2stim_asymm_v5,2020.2.10,MacIntel,60,61025ae37ef11b136ea224fe,,,,,,,,,904,70.28125,-51.078125,1,0,0,response3disk,,5,6.5703125,-2.3046875,1,0,0,rectangle,6.5703125,-2.3046875,1,0,0,,,,,,,6.5703125,-2.3046875,1,0,0,,0,19,19,114,1,
,,,,,,,,,,,,,FF,,,,,,,,6.3666,,,,,,,,,,,,,,,,,,,,,,61034f3b7331bbf477dd2dda,61036ebf7d4c69350054cb4f,2021-07-29_22h16.27.911,Simcolourproject_2stim_asymm_v5,2020.2.10,MacIntel,60,61025ae37ef11b136ea224fe,,,,,,,,,3563,78.91796875,31.19140625,1,0,0,response1disk,,6,8.3359375,-5.18359375,1,0,0,rectangle,8.3359375,-5.18359375,1,0,0,,,,,,,8.3359375,-5.18359375,1,0,0,,0,20,20,41,1,
,,,,,,,,,,,,,FF,,,,,,,,1.9161,,,,,,,,,,,,,,,,,,,,,,61034f3b7331bbf477dd2dda,61036ebf7d4c69350054cb4f,2021-07-29_22h16.27.911,Simcolourproject_2stim_asymm_v5,2020.2.10,MacIntel,60,61025ae37ef11b136ea224fe,,,,,,,,,50,61.04296875,43.03125,1,0,0,response1disk,,6,13.296875,-0.3515625,1,0,0,rectangle,13.296875,-0.3515625,1,0,0,,,,,,,13.296875,-0.3515625,1,0,0,,0,21,21,91,1,
,,,,,,,,,,,,,FF,,,,,,,,6.787,,,,,,,,,,,,,,,,,,,,,,61034f3b7331bbf477dd2dda,61036ebf7d4c69350054cb4f,2021-07-29_22h16.27.911,Simcolourproject_2stim_asymm_v5,2020.2.10,MacIntel,60,61025ae37ef11b136ea224fe,,,,,,,,,1591,-39.26171875,82.125,1,0,0,response7disk,,0,2.90234375,-1.984375,1,0,0,rectangle,2.90234375,-1.984375,1,0,0,,,,,,,2.90234375,-1.984375,1,0,0,,0,22,22,137,1,
,,,,,,,,,,,,,FF,,,,,,,,1.8042,,,,,,,,,,,,,,,,,,,,,,61034f3b7331bbf477dd2dda,61036ebf7d4c69350054cb4f,2021-07-29_22h16.27.911,Simcolourproject_2stim_asymm_v5,2020.2.10,MacIntel,60,61025ae37ef11b136ea224fe,,,,,,,,,862,-70.5078125,-38.78515625,1,0,0,response5disk,,2,3.37109375,0.9609375,1,0,0,rectangle,3.37109375,0.9609375,1,0,0,,,,,,,3.37109375,0.9609375,1,0,0,,0,23,23,74,1,
,,,,,,,,,,,,,FF,,,,,,,,2.231,,,,,,,,,,,,,,,,,,,,,,61034f3b7331bbf477dd2dda,61036ebf7d4c69350054cb4f,2021-07-29_22h16.27.911,Simcolourproject_2stim_asymm_v5,2020.2.10,MacIntel,60,61025ae37ef11b136ea224fe,,,,,,,,,1029,40.765625,-70.9453125,1,0,0,response3disk,,4,9.0703125,0.16796875,1,0,0,rectangle,9.0703125,0.16796875,1,0,0,,,,,,,9.0703125,0.16796875,1,0,0,,0,24,24,110,1,
,,,,,,,,,,,,,FF,,,,,,,,5.2511,,,,,,,,,,,,,,,,,,,,,,61034f3b7331bbf477dd2dda,61036ebf7d4c69350054cb4f,2021-07-29_22h16.27.911,Simcolourproject_2stim_asymm_v5,2020.2.10,MacIntel,60,61025ae37ef11b136ea224fe,,,,,,,,,2395,88.0390625,36.19140625,1,0,0,response1disk,,6,15.203125,-6.62109375,1,0,0,rectangle,15.203125,-6.62109375,1,0,0,,,,,,,15.203125,-6.62109375,1,0,0,,0,25,25,84,1,
,,,,,,,,,,,,,FF,,,,,,,,6.7502,,,,,,,,,,,,,,,,,,,,,,61034f3b7331bbf477dd2dda,61036ebf7d4c69350054cb4f,2021-07-29_22h16.27.911,Simcolourproject_2stim_asymm_v5,2020.2.10,MacIntel,60,61025ae37ef11b136ea224fe,,,,,,,,,625,-42.203125,84.9140625,1,0,0,response7disk,,0,-1.22265625,-7.51953125,1,0,0,rectangle,-1.22265625,-7.51953125,1,0,0,,,,,,,-1.22265625,-7.51953125,1,0,0,,0,26,26,73,1,
,,,,,,,,,,,,,FF,,,,,,,,2.2658,,,,,,,,,,,,,,,,,,,,,,61034f3b7331bbf477dd2dda,61036ebf7d4c69350054cb4f,2021-07-29_22h16.27.911,Simcolourproject_2stim_asymm_v5,2020.2.10,MacIntel,60,61025ae37ef11b136ea224fe,,,,,,,,,2897,-46.73046875,-99.36328125,1,0,0,response5disk,,3,8.6328125,3.0625,1,0,0,rectangle,8.6328125,3.0625,1,0,0,,,,,,,8.6328125,3.0625,1,0,0,,0,27,27,125,1,
,,,,,,,,,,,,,FF,,,,,,,,1.5637,,,,,,,,,,,,,,,,,,,,,,61034f3b7331bbf477dd2dda,61036ebf7d4c69350054cb4f,2021-07-29_22h16.27.911,Simcolourproject_2stim_asymm_v5,2020.2.10,MacIntel,60,61025ae37ef11b136ea224fe,,,,,,,,,2265,62.4296875,33.8125,1,0,0,response1disk,,6,-11.4140625,-3.71875,1,0,0,rectangle,-11.4140625,-3.71875,1,0,0,,,,,,,-11.4140625,-3.71875,1,0,0,,0,28,28,151,1,
,,,,,,,,,,,,,FF,,,,,,,,2.1533,,,,,,,,,,,,,,,,,,,,,,61034f3b7331bbf477dd2dda,61036ebf7d4c69350054cb4f,2021-07-29_22h16.27.911,Simcolourproject_2stim_asymm_v5,2020.2.10,MacIntel,60,61025ae37ef11b136ea224fe,,,,,,,,,2401,50.90625,89.765625,1,0,0,response1disk,,7,-0.6875,-2.6953125,1,0,0,rectangle,-0.6875,-2.6953125,1,0,0,,,,,,,-0.6875,-2.6953125,1,0,0,,0,29,29,5,1,
,,,,,,,,,,,,,FF,,,,,,,,2.8173,,,,,,,,,,,,,,,,,,,,,,61034f3b7331bbf477dd2dda,61036ebf7d4c69350054cb4f,2021-07-29_22h16.27.911,Simcolourproject_2stim_asymm_v5,2020.2.10,MacIntel,60,61025ae37ef11b136ea224fe,,,,,,,,,1294,-88.02734375,43.625,1,0,0,response7disk,,1,-4.296875,1.00390625,1,0,0,rectangle,-4.296875,1.00390625,1,0,0,,,,,,,-4.296875,1.00390625,1,0,0,,0,30,30,52,1,
,,,,,,,,,,,,,FF,,,,,,,,8.3793,,,,,,,,,,,,,,,,,,,,,,61034f3b7331bbf477dd2dda,61036ebf7d4c69350054cb4f,2021-07-29_22h16.27.911,Simcolourproject_2stim_asymm_v5,2020.2.10,MacIntel,60,61025ae37ef11b136ea224fe,,,,,,,,,3678,66.375,-86.578125,1,0,0,response3disk,,4,5.1953125,-1.2109375,1,0,0,rectangle,5.1953125,-1.2109375,1,0,0,,,,,,,5.1953125,-1.2109375,1,0,0,,0,31,31,105,1,
,,,,,,,,,,,,,FF,,,,,,,,1.7318,,,,,,,,,,,,,,,,,,,,,,61034f3b7331bbf477dd2dda,61036ebf7d4c69350054cb4f,2021-07-29_22h16.27.911,Simcolourproject_2stim_asymm_v5,2020.2.10,MacIntel,60,61025ae37ef11b136ea224fe,,,,,,,,,1818,-96.09765625,-42.20703125,1,0,0,response5disk,,2,2.921875,-0.4765625,1,0,0,rectangle,2.921875,-0.4765625,1,0,0,,,,,,,2.921875,-0.4765625,1,0,0,,0,32,32,56,1,
,,,,,,,,,,,,,FF,,,,,,,,1.5026,,,,,,,,,,,,,,,,,,,,,,61034f3b7331bbf477dd2dda,61036ebf7d4c69350054cb4f,2021-07-29_22h16.27.911,Simcolourproject_2stim_asymm_v5,2020.2.10,MacIntel,60,61025ae37ef11b136ea224fe,,,,,,,,,4210,37.77734375,81.8359375,1,0,0,response1disk,,7,-0.77734375,0.73828125,1,0,0,rectangle,-0.77734375,0.73828125,1,0,0,,,,,,,-0.77734375,0.73828125,1,0,0,,0,33,33,26,1,
,,,,,,,,,,,,,FF,,,,,,,,1.3515,,,,,,,,,,,,,,,,,,,,,,61034f3b7331bbf477dd2dda,61036ebf7d4c69350054cb4f,2021-07-29_22h16.27.911,Simcolourproject_2stim_asymm_v5,2020.2.10,MacIntel,60,61025ae37ef11b136ea224fe,,,,,,,,,4061,43.83984375,79.9765625,1,0,0,response1disk,,7,0.7109375,-7.7265625,1,0,0,rectangle,0.7109375,-7.7265625,1,0,0,,,,,,,0.7109375,-7.7265625,1,0,0,,0,34,34,11,1,
,,,,,,,,,,,,,FF,,,,,,,,1.3324,,,,,,,,,,,,,,,,,,,,,,61034f3b7331bbf477dd2dda,61036ebf7d4c69350054cb4f,2021-07-29_22h16.27.911,Simcolourproject_2stim_asymm_v5,2020.2.10,MacIntel,60,61025ae37ef11b136ea224fe,,,,,,,,,153,43.8984375,74.94921875,1,0,0,response1disk,,7,15.86328125,4.4140625,1,0,0,rectangle,15.86328125,4.4140625,1,0,0,,,,,,,15.86328125,4.4140625,1,0,0,,0,35,35,47,1,
,,,,,,,,,,,,,FF,,,,,,,,1.6322,,,,,,,,,,,,,,,,,,,,,,61034f3b7331bbf477dd2dda,61036ebf7d4c69350054cb4f,2021-07-29_22h16.27.911,Simcolourproject_2stim_asymm_v5,2020.2.10,MacIntel,60,61025ae37ef11b136ea224fe,,,,,,,,,446,52.96484375,78.46484375,1,0,0,response1disk,,7,0.90625,-4.546875,1,0,0,rectangle,0.90625,-4.546875,1,0,0,,,,,,,0.90625,-4.546875,1,0,0,,0,36,36,108,1,
,,,,,,,,,,,,,FF,,,,,,,,1.8689,,,,,,,,,,,,,,,,,,,,,,61034f3b7331bbf477dd2dda,61036ebf7d4c69350054cb4f,2021-07-29_22h16.27.911,Simcolourproject_2stim_asymm_v5,2020.2.10,MacIntel,60,61025ae37ef11b136ea224fe,,,,,,,,,3445,71.16015625,28.15625,1,0,0,response1disk,,6,1.6640625,-6.70703125,1,0,0,rectangle,1.6640625,-6.70703125,1,0,0,,,,,,,1.6640625,-6.70703125,1,0,0,,0,37,37,63,1,
,,,,,,,,,,,,,FF,,,,,,,,4.2518,,,,,,,,,,,,,,,,,,,,,,61034f3b7331bbf477dd2dda,61036ebf7d4c69350054cb4f,2021-07-29_22h16.27.911,Simcolourproject_2stim_asymm_v5,2020.2.10,MacIntel,60,61025ae37ef11b136ea224fe,,,,,,,,,3717,43.3046875,87,1,0,0,response1disk,,7,-5.37890625,-5.9296875,1,0,0,rectangle,-5.37890625,-5.9296875,1,0,0,,,,,,,-5.37890625,-5.9296875,1,0,0,,0,38,38,54,1,
,,,,,,,,,,,,,FF,,,,,,,,5.2334,,,,,,,,,,,,,,,,,,,,,,61034f3b7331bbf477dd2dda,61036ebf7d4c69350054cb4f,2021-07-29_22h16.27.911,Simcolourproject_2stim_asymm_v5,2020.2.10,MacIntel,60,61025ae37ef11b136ea224fe,,,,,,,,,4317,84.92578125,-53.8203125,1,0,0,response3disk,,5,8.32421875,1.19140625,1,0,0,rectangle,8.32421875,1.19140625,1,0,0,,,,,,,8.32421875,1.19140625,1,0,0,,0,39,39,48,1,
,,,,,,,,,,,,,FF,,,,,,,,6.1328,,,,,,,,,,,,,,,,,,,,,,61034f3b7331bbf477dd2dda,61036ebf7d4c69350054cb4f,2021-07-29_22h16.27.911,Simcolourproject_2stim_asymm_v5,2020.2.10,MacIntel,60,61025ae37ef11b136ea224fe,,,,,,,,,1984,87.890625,-65.22265625,1,0,0,response3disk,,5,5.58203125,-2.07421875,1,0,0,rectangle,5.58203125,-2.07421875,1,0,0,,,,,,,5.58203125,-2.07421875,1,0,0,,0,40,40,29,1,
,,,,,,,,,,,,,FF,,,,,,,,3.6509,,,,,,,,,,,,,,,,,,,,,,61034f3b7331bbf477dd2dda,61036ebf7d4c69350054cb4f,2021-07-29_22h16.27.911,Simcolourproject_2stim_asymm_v5,2020.2.10,MacIntel,60,61025ae37ef11b136ea224fe,,,,,,,,,2384,93.44921875,54.45703125,1,0,0,response1disk,,6,3.9140625,5.98046875,1,0,0,rectangle,3.9140625,5.98046875,1,0,0,,,,,,,3.9140625,5.98046875,1,0,0,,0,41,41,88,1,
,,,,,,,,,,,,,FF,,,,,,,,3.2317,,,,,,,,,,,,,,,,,,,,,,61034f3b7331bbf477dd2dda,61036ebf7d4c69350054cb4f,2021-07-29_22h16.27.911,Simcolourproject_2stim_asymm_v5,2020.2.10,MacIntel,60,61025ae37ef11b136ea224fe,,,,,,,,,3443,103.1757813,-55.09765625,1,0,0,response3disk,,5,10.46484375,0.9921875,1,0,0,rectangle,34.78515625,-99.8125,1,0,0,response3disk_3,TRUE,4,4,"[14,102,109,76,46,232,209,278,307,69,222,177,43,57,1,7,322,219,253,76]",3.3327,-12.30859375,-4.234375,1,0,0,rectangle,0,42,42,140,1,
,,,,,,,,,,,,,FF,,,,,,,,4.2337,,,,,,,,,,,,,,,,,,,,,,61034f3b7331bbf477dd2dda,61036ebf7d4c69350054cb4f,2021-07-29_22h16.27.911,Simcolourproject_2stim_asymm_v5,2020.2.10,MacIntel,60,61025ae37ef11b136ea224fe,,,,,,,,,3246,-38.6640625,-96.73828125,1,0,0,response5disk,,3,16.06640625,-2.24609375,1,0,0,rectangle,16.06640625,-2.24609375,1,0,0,,,,,,,16.06640625,-2.24609375,1,0,0,,0,43,43,39,1,
,,,,,,,,,,,,,FF,,,,,,,,4.9336,,,,,,,,,,,,,,,,,,,,,,61034f3b7331bbf477dd2dda,61036ebf7d4c69350054cb4f,2021-07-29_22h16.27.911,Simcolourproject_2stim_asymm_v5,2020.2.10,MacIntel,60,61025ae37ef11b136ea224fe,,,,,,,,,3883,99.15625,-63.84375,1,0,0,response3disk,,5,18.828125,2.5859375,1,0,0,rectangle,18.828125,2.5859375,1,0,0,,,,,,,18.828125,2.5859375,1,0,0,,0,44,44,130,1,
,,,,,,,,,,,,,FF,,,,,,,,2.4872,,,,,,,,,,,,,,,,,,,,,,61034f3b7331bbf477dd2dda,61036ebf7d4c69350054cb4f,2021-07-29_22h16.27.911,Simcolourproject_2stim_asymm_v5,2020.2.10,MacIntel,60,61025ae37ef11b136ea224fe,,,,,,,,,640,-49.20703125,-92.890625,1,0,0,response5disk,,3,-6.24609375,0.9453125,1,0,0,rectangle,-55.52734375,-100.2226563,1,0,0,response5disk_3,TRUE,3,3,"[14,102,109,76,46,232,209,278,307,69,222,177,43,57,1,7,322,219,253,76]",3.0321,4.75390625,-1.24609375,1,0,0,rectangle,0,45,45,64,1,
,,,,,,,,,,,,,FF,,,,,,,,3.469,,,,,,,,,,,,,,,,,,,,,,61034f3b7331bbf477dd2dda,61036ebf7d4c69350054cb4f,2021-07-29_22h16.27.911,Simcolourproject_2stim_asymm_v5,2020.2.10,MacIntel,60,61025ae37ef11b136ea224fe,,,,,,,,,119,98.28125,-48.2265625,1,0,0,response3disk,,5,17.82421875,-2.18359375,1,0,0,rectangle,17.82421875,-2.18359375,1,0,0,,,,,,,17.82421875,-2.18359375,1,0,0,,0,46,46,32,1,
,,,,,,,,,,,,,FF,,,,,,,,2.0167,,,,,,,,,,,,,,,,,,,,,,61034f3b7331bbf477dd2dda,61036ebf7d4c69350054cb4f,2021-07-29_22h16.27.911,Simcolourproject_2stim_asymm_v5,2020.2.10,MacIntel,60,61025ae37ef11b136ea224fe,,,,,,,,,3308,69.95703125,-43.2265625,1,0,0,response3disk,,5,6.59375,2.85546875,1,0,0,rectangle,6.59375,2.85546875,1,0,0,,,,,,,6.59375,2.85546875,1,0,0,,0,47,47,36,1,
,,,,,,,,,,,,,FF,,,,,,,,3.5501,,,,,,,,,,,,,,,,,,,,,,61034f3b7331bbf477dd2dda,61036ebf7d4c69350054cb4f,2021-07-29_22h16.27.911,Simcolourproject_2stim_asymm_v5,2020.2.10,MacIntel,60,61025ae37ef11b136ea224fe,,,,,,,,,3131,88.69921875,32.40234375,1,0,0,response1disk,,6,9.55078125,6.640625,1,0,0,rectangle,9.55078125,6.640625,1,0,0,,,,,,,9.55078125,6.640625,1,0,0,,0,48,48,134,1,
,,,,,,,,,,,,,FF,,,,,,,,4.2696,,,,,,,,,,,,,,,,,,,,,,61034f3b7331bbf477dd2dda,61036ebf7d4c69350054cb4f,2021-07-29_22h16.27.911,Simcolourproject_2stim_asymm_v5,2020.2.10,MacIntel,60,61025ae37ef11b136ea224fe,,,,,,,,,613,39,-104.625,1,0,0,response3disk,,4,3.55859375,2.9140625,1,0,0,rectangle,3.55859375,2.9140625,1,0,0,,,,,,,3.55859375,2.9140625,1,0,0,,0,49,49,28,1,
,,,,,,,,,,,,,FF,,,,,,,,2.1201,,,,,,,,,,,,,,,,,,,,,,61034f3b7331bbf477dd2dda,61036ebf7d4c69350054cb4f,2021-07-29_22h16.27.911,Simcolourproject_2stim_asymm_v5,2020.2.10,MacIntel,60,61025ae37ef11b136ea224fe,,,,,,,,,1816,-92.8359375,38.19921875,1,0,0,response7disk,,1,3.61328125,-2.390625,1,0,0,rectangle,3.61328125,-2.390625,1,0,0,,,,,,,3.61328125,-2.390625,1,0,0,,0,50,50,135,1,
,,,,,,,,,,,,,FF,,,,,,,,1.9688,,,,,,,,,,,,,,,,,,,,,,61034f3b7331bbf477dd2dda,61036ebf7d4c69350054cb4f,2021-07-29_22h16.27.911,Simcolourproject_2stim_asymm_v5,2020.2.10,MacIntel,60,61025ae37ef11b136ea224fe,,,,,,,,,2637,88.4140625,30.53125,1,0,0,response1disk,,6,10.6875,-7.3828125,1,0,0,rectangle,10.6875,-7.3828125,1,0,0,,,,,,,10.6875,-7.3828125,1,0,0,,0,51,51,37,1,
,,,,,,,,,,,,,FF,,,,,,,,1.5672,,,,,,,,,,,,,,,,,,,,,,61034f3b7331bbf477dd2dda,61036ebf7d4c69350054cb4f,2021-07-29_22h16.27.911,Simcolourproject_2stim_asymm_v5,2020.2.10,MacIntel,60,61025ae37ef11b136ea224fe,,,,,,,,,3472,-41.19140625,-98.515625,1,0,0,response5disk,,3,7.21484375,-0.9921875,1,0,0,rectangle,7.21484375,-0.9921875,1,0,0,,,,,,,7.21484375,-0.9921875,1,0,0,,0,52,52,2,1,
,,,,,,,,,,,,,FF,,,,,,,,2.8813,,,,,,,,,,,,,,,,,,,,,,61034f3b7331bbf477dd2dda,61036ebf7d4c69350054cb4f,2021-07-29_22h16.27.911,Simcolourproject_2stim_asymm_v5,2020.2.10,MacIntel,60,61025ae37ef11b136ea224fe,,,,,,,,,2376,39.0078125,-105.0546875,1,0,0,response3disk,,4,3.8046875,5.94140625,1,0,0,rectangle,3.8046875,5.94140625,1,0,0,,,,,,,3.8046875,5.94140625,1,0,0,,0,53,53,23,1,
,,,,,,,,,,,,,FF,,,,,,,,1.4484,,,,,,,,,,,,,,,,,,,,,,61034f3b7331bbf477dd2dda,61036ebf7d4c69350054cb4f,2021-07-29_22h16.27.911,Simcolourproject_2stim_asymm_v5,2020.2.10,MacIntel,60,61025ae37ef11b136ea224fe,,,,,,,,,3355,77.7265625,33.02734375,1,0,0,response1disk,,6,0.484375,0.73046875,1,0,0,rectangle,0.484375,0.73046875,1,0,0,,,,,,,0.484375,0.73046875,1,0,0,,0,54,54,95,1,
,,,,,,,,,,,,,FF,,,,,,,,1.1,,,,,,,,,,,,,,,,,,,,,,61034f3b7331bbf477dd2dda,61036ebf7d4c69350054cb4f,2021-07-29_22h16.27.911,Simcolourproject_2stim_asymm_v5,2020.2.10,MacIntel,60,61025ae37ef11b136ea224fe,,,,,,,,,3444,41.57421875,91.82421875,1,0,0,response1disk,,7,-7.5859375,-7.5703125,1,0,0,rectangle,-7.5859375,-7.5703125,1,0,0,,,,,,,-7.5859375,-7.5703125,1,0,0,,0,55,55,79,1,
,,,,,,,,,,,,,FF,,,,,,,,6.8167,,,,,,,,,,,,,,,,,,,,,,61034f3b7331bbf477dd2dda,61036ebf7d4c69350054cb4f,2021-07-29_22h16.27.911,Simcolourproject_2stim_asymm_v5,2020.2.10,MacIntel,60,61025ae37ef11b136ea224fe,,,,,,,,,2685,96.6015625,37.359375,1,0,0,response1disk,,6,-6.41796875,-2.22265625,1,0,0,rectangle,-106.8945313,43.22265625,1,0,0,response7disk_3,TRUE,1,1,"[14,102,109,76,46,232,209,278,307,69,222,177,43,57,1,7,322,219,253,76]",1.9995,-6.07421875,-2.953125,1,0,0,rectangle,0,56,56,65,1,
,,,,,,,,,,,,,FF,,,,,,,,2.9169,,,,,,,,,,,,,,,,,,,,,,61034f3b7331bbf477dd2dda,61036ebf7d4c69350054cb4f,2021-07-29_22h16.27.911,Simcolourproject_2stim_asymm_v5,2020.2.10,MacIntel,60,61025ae37ef11b136ea224fe,,,,,,,,,19,73.09375,34.6796875,1,0,0,response1disk,,6,9.375,-1.64453125,1,0,0,rectangle,9.375,-1.64453125,1,0,0,,,,,,,9.375,-1.64453125,1,0,0,,0,57,57,92,1,
,,,,,,,,,,,,,FF,,,,,,,,1.4338,,,,,,,,,,,,,,,,,,,,,,61034f3b7331bbf477dd2dda,61036ebf7d4c69350054cb4f,2021-07-29_22h16.27.911,Simcolourproject_2stim_asymm_v5,2020.2.10,MacIntel,60,61025ae37ef11b136ea224fe,,,,,,,,,3510,-40.07421875,88.3046875,1,0,0,response7disk,,0,4.4453125,-6.43359375,1,0,0,rectangle,4.4453125,-6.43359375,1,0,0,,,,,,,4.4453125,-6.43359375,1,0,0,,0,58,58,82,1,
,,,,,,,,,,,,,FF,,,,,,,,1.515,,,,,,,,,,,,,,,,,,,,,,61034f3b7331bbf477dd2dda,61036ebf7d4c69350054cb4f,2021-07-29_22h16.27.911,Simcolourproject_2stim_asymm_v5,2020.2.10,MacIntel,60,61025ae37ef11b136ea224fe,,,,,,,,,20,73.19140625,31.1796875,1,0,0,response1disk,,6,7.71875,0.734375,1,0,0,rectangle,7.71875,0.734375,1,0,0,,,,,,,7.71875,0.734375,1,0,0,,0,59,59,117,1,
,,,,,,,,,,,,,FF,,,,,,,,3.5646,,,,,,,,,,,,,,,,,,,,,,61034f3b7331bbf477dd2dda,61036ebf7d4c69350054cb4f,2021-07-29_22h16.27.911,Simcolourproject_2stim_asymm_v5,2020.2.10,MacIntel,60,61025ae37ef11b136ea224fe,,,,,,,,,3762,-89.890625,-45.39453125,1,0,0,response5disk,,2,8.46875,-5.98828125,1,0,0,rectangle,8.46875,-5.98828125,1,0,0,,,,,,,8.46875,-5.98828125,1,0,0,,0,60,60,106,1,
,,,,,,,,,,,,,FF,,,,,,,,8.0155,,,,,,,,,,,,,,,,,,,,,,61034f3b7331bbf477dd2dda,61036ebf7d4c69350054cb4f,2021-07-29_22h16.27.911,Simcolourproject_2stim_asymm_v5,2020.2.10,MacIntel,60,61025ae37ef11b136ea224fe,,,,,,,,,2836,-93.171875,-38.08203125,1,0,0,response5disk,,2,10.25390625,9.734375,1,0,0,rectangle,10.25390625,9.734375,1,0,0,,,,,,,10.25390625,9.734375,1,0,0,,0,61,61,58,1,
,,,,,,,,,,,,,FF,,,,,,,,1.4495,,,,,,,,,,,,,,,,,,,,,,61034f3b7331bbf477dd2dda,61036ebf7d4c69350054cb4f,2021-07-29_22h16.27.911,Simcolourproject_2stim_asymm_v5,2020.2.10,MacIntel,60,61025ae37ef11b136ea224fe,,,,,,,,,576,43.73046875,-89.45703125,1,0,0,response3disk,,4,-13.3046875,4.51171875,1,0,0,rectangle,-13.3046875,4.51171875,1,0,0,,,,,,,-13.3046875,4.51171875,1,0,0,,0,62,62,9,1,
,,,,,,,,,,,,,FF,,,,,,,,3.5472,,,,,,,,,,,,,,,,,,,,,,61034f3b7331bbf477dd2dda,61036ebf7d4c69350054cb4f,2021-07-29_22h16.27.911,Simcolourproject_2stim_asymm_v5,2020.2.10,MacIntel,60,61025ae37ef11b136ea224fe,,,,,,,,,3306,56.80078125,90.11328125,1,0,0,response1disk,,7,13.97265625,5.421875,1,0,0,rectangle,13.97265625,5.421875,1,0,0,,,,,,,13.97265625,5.421875,1,0,0,,0,63,63,104,1,
,,,,,,,,,,,,,FF,,,,,,,,1.3813,,,,,,,,,,,,,,,,,,,,,,61034f3b7331bbf477dd2dda,61036ebf7d4c69350054cb4f,2021-07-29_22h16.27.911,Simcolourproject_2stim_asymm_v5,2020.2.10,MacIntel,60,61025ae37ef11b136ea224fe,,,,,,,,,2972,58.6328125,75.6328125,1,0,0,response1disk,,7,15.3125,-2.35546875,1,0,0,rectangle,15.3125,-2.35546875,1,0,0,,,,,,,15.3125,-2.35546875,1,0,0,,0,64,64,45,1,
,,,,,,,,,,,,,FF,,,,,,,,1.7497,,,,,,,,,,,,,,,,,,,,,,61034f3b7331bbf477dd2dda,61036ebf7d4c69350054cb4f,2021-07-29_22h16.27.911,Simcolourproject_2stim_asymm_v5,2020.2.10,MacIntel,60,61025ae37ef11b136ea224fe,,,,,,,,,1106,70.64453125,36.38671875,1,0,0,response1disk,,6,9.4140625,0.8046875,1,0,0,rectangle,9.4140625,0.8046875,1,0,0,,,,,,,9.4140625,0.8046875,1,0,0,,0,65,65,141,1,
,,,,,,,,,,,,,FF,,,,,,,,1.5714,,,,,,,,,,,,,,,,,,,,,,61034f3b7331bbf477dd2dda,61036ebf7d4c69350054cb4f,2021-07-29_22h16.27.911,Simcolourproject_2stim_asymm_v5,2020.2.10,MacIntel,60,61025ae37ef11b136ea224fe,,,,,,,,,4097,-43.05078125,-102.1757813,1,0,0,response5disk,,3,-0.85546875,-3.23046875,1,0,0,rectangle,-0.85546875,-3.23046875,1,0,0,,,,,,,-0.85546875,-3.23046875,1,0,0,,0,66,66,133,1,
,,,,,,,,,,,,,FF,,,,,,,,2.5502,,,,,,,,,,,,,,,,,,,,,,61034f3b7331bbf477dd2dda,61036ebf7d4c69350054cb4f,2021-07-29_22h16.27.911,Simcolourproject_2stim_asymm_v5,2020.2.10,MacIntel,60,61025ae37ef11b136ea224fe,,,,,,,,,966,44.03515625,88.5234375,1,0,0,response1disk,,7,11.25390625,3.51171875,1,0,0,rectangle,11.25390625,3.51171875,1,0,0,,,,,,,11.25390625,3.51171875,1,0,0,,0,67,67,38,1,
,,,,,,,,,,,,,FF,,,,,,,,1.8983,,,,,,,,,,,,,,,,,,,,,,61034f3b7331bbf477dd2dda,61036ebf7d4c69350054cb4f,2021-07-29_22h16.27.911,Simcolourproject_2stim_asymm_v5,2020.2.10,MacIntel,60,61025ae37ef11b136ea224fe,,,,,,,,,2991,39.3515625,95.3046875,1,0,0,response1disk,,7,-2.76953125,-3.921875,1,0,0,rectangle,53.75390625,-99.0859375,1,0,0,response3disk_3,TRUE,4,4,"[14,102,109,76,46,232,209,278,307,69,222,177,43,57,1,7,322,219,253,76]",2.1532,12.91796875,-4.2265625,1,0,0,rectangle,0,68,68,18,1,
,,,,,,,,,,,,,FF,,,,,,,,2.3804,,,,,,,,,,,,,,,,,,,,,,61034f3b7331bbf477dd2dda,61036ebf7d4c69350054cb4f,2021-07-29_22h16.27.911,Simcolourproject_2stim_asymm_v5,2020.2.10,MacIntel,60,61025ae37ef11b136ea224fe,,,,,,,,,4188,-32.1328125,-90.4921875,1,0,0,response5disk,,3,10.7109375,-6.67578125,1,0,0,rectangle,10.7109375,-6.67578125,1,0,0,,,,,,,10.7109375,-6.67578125,1,0,0,,0,69,69,78,1,
,,,,,,,,,,,,,FF,,,,,,,,1.6487,,,,,,,,,,,,,,,,,,,,,,61034f3b7331bbf477dd2dda,61036ebf7d4c69350054cb4f,2021-07-29_22h16.27.911,Simcolourproject_2stim_asymm_v5,2020.2.10,MacIntel,60,61025ae37ef11b136ea224fe,,,,,,,,,2432,88.01953125,30.8515625,1,0,0,response1disk,,6,5.5,-8.0546875,1,0,0,rectangle,5.5,-8.0546875,1,0,0,,,,,,,5.5,-8.0546875,1,0,0,,0,70,70,42,1,
,,,,,,,,,,,,,FF,,,,,,,,6.7534,,,,,,,,,,,,,,,,,,,,,,61034f3b7331bbf477dd2dda,61036ebf7d4c69350054cb4f,2021-07-29_22h16.27.911,Simcolourproject_2stim_asymm_v5,2020.2.10,MacIntel,60,61025ae37ef11b136ea224fe,,,,,,,,,3586,55.51953125,98.171875,1,0,0,response1disk,,7,-3.828125,-16.2421875,1,0,0,rectangle,-3.828125,-16.2421875,1,0,0,,,,,,,-3.828125,-16.2421875,1,0,0,,0,71,71,60,1,
,,,,,,,,,,,,,FF,,,,,,,,1.9501,,,,,,,,,,,,,,,,,,,,,,61034f3b7331bbf477dd2dda,61036ebf7d4c69350054cb4f,2021-07-29_22h16.27.911,Simcolourproject_2stim_asymm_v5,2020.2.10,MacIntel,60,61025ae37ef11b136ea224fe,,,,,,,,,1589,86.30859375,40.5,1,0,0,response1disk,,6,19.95703125,8.09765625,1,0,0,rectangle,19.95703125,8.09765625,1,0,0,,,,,,,19.95703125,8.09765625,1,0,0,,0,72,72,113,1,
,,,,,,,,,,,,,FF,,,,,,,,1.4316,,,,,,,,,,,,,,,,,,,,,,61034f3b7331bbf477dd2dda,61036ebf7d4c69350054cb4f,2021-07-29_22h16.27.911,Simcolourproject_2stim_asymm_v5,2020.2.10,MacIntel,60,61025ae37ef11b136ea224fe,,,,,,,,,3047,-82.5625,-47.19140625,1,0,0,response5disk,,2,-6.3984375,-9.98046875,1,0,0,rectangle,-6.3984375,-9.98046875,1,0,0,,,,,,,-6.3984375,-9.98046875,1,0,0,,0,73,73,19,1,
,,,,,,,,,,,,,FF,,,,,,,,1.7522,,,,,,,,,,,,,,,,,,,,,,61034f3b7331bbf477dd2dda,61036ebf7d4c69350054cb4f,2021-07-29_22h16.27.911,Simcolourproject_2stim_asymm_v5,2020.2.10,MacIntel,60,61025ae37ef11b136ea224fe,,,,,,,,,29,86.72265625,-45.09375,1,0,0,response3disk,,5,11.6015625,0.6953125,1,0,0,rectangle,11.6015625,0.6953125,1,0,0,,,,,,,11.6015625,0.6953125,1,0,0,,0,74,74,102,1,
,,,,,,,,,,,,,FF,,,,,,,,2.4516,,,,,,,,,,,,,,,,,,,,,,61034f3b7331bbf477dd2dda,61036ebf7d4c69350054cb4f,2021-07-29_22h16.27.911,Simcolourproject_2stim_asymm_v5,2020.2.10,MacIntel,60,61025ae37ef11b136ea224fe,,,,,,,,,3957,97.89453125,41.28125,1,0,0,response1disk,,6,11.88671875,-1.48828125,1,0,0,rectangle,31.203125,75.7109375,1,0,0,response1disk_3,TRUE,7,7,"[14,102,109,76,46,232,209,278,307,69,222,177,43,57,1,7,322,219,253,76]",2.4982,-11.48046875,-2.0625,1,0,0,rectangle,0,75,75,80,1,
,,,,,,,,,,,,,FF,,,,,,,,1.7823,,,,,,,,,,,,,,,,,,,,,,61034f3b7331bbf477dd2dda,61036ebf7d4c69350054cb4f,2021-07-29_22h16.27.911,Simcolourproject_2stim_asymm_v5,2020.2.10,MacIntel,60,61025ae37ef11b136ea224fe,,,,,,,,,1991,38.40625,67.109375,1,0,0,response1disk,,7,10.75,4.84375,1,0,0,rectangle,10.75,4.84375,1,0,0,,,,,,,10.75,4.84375,1,0,0,,0,76,76,21,1,
,,,,,,,,,,,,,FF,,,,,,,,1.0854,,,,,,,,,,,,,,,,,,,,,,61034f3b7331bbf477dd2dda,61036ebf7d4c69350054cb4f,2021-07-29_22h16.27.911,Simcolourproject_2stim_asymm_v5,2020.2.10,MacIntel,60,61025ae37ef11b136ea224fe,,,,,,,,,2129,46.0390625,76.53515625,1,0,0,response1disk,,7,3.40625,-5.33984375,1,0,0,rectangle,3.40625,-5.33984375,1,0,0,,,,,,,3.40625,-5.33984375,1,0,0,,0,77,77,85,1,
,,,,,,,,,,,,,FF,,,,,,,,4.1501,,,,,,,,,,,,,,,,,,,,,,61034f3b7331bbf477dd2dda,61036ebf7d4c69350054cb4f,2021-07-29_22h16.27.911,Simcolourproject_2stim_asymm_v5,2020.2.10,MacIntel,60,61025ae37ef11b136ea224fe,,,,,,,,,277,-43.828125,-101.5703125,1,0,0,response5disk,,3,-4.8359375,-3.6484375,1,0,0,rectangle,-4.8359375,-3.6484375,1,0,0,,,,,,,-4.8359375,-3.6484375,1,0,0,,0,78,78,3,1,
,,,,,,,,,,,,,FF,,,,,,,,1.1995,,,,,,,,,,,,,,,,,,,,,,61034f3b7331bbf477dd2dda,61036ebf7d4c69350054cb4f,2021-07-29_22h16.27.911,Simcolourproject_2stim_asymm_v5,2020.2.10,MacIntel,60,61025ae37ef11b136ea224fe,,,,,,,,,382,68.69921875,30.01171875,1,0,0,response1disk,,6,0.015625,-5.203125,1,0,0,rectangle,0.015625,-5.203125,1,0,0,,,,,,,0.015625,-5.203125,1,0,0,,0,79,79,156,1,
,,,,,,,,,,,,,FF,,,,,,,,1.4848,,,,,,,,,,,,,,,,,,,,,,61034f3b7331bbf477dd2dda,61036ebf7d4c69350054cb4f,2021-07-29_22h16.27.911,Simcolourproject_2stim_asymm_v5,2020.2.10,MacIntel,60,61025ae37ef11b136ea224fe,,,,,,,,,399,91.796875,51.72265625,1,0,0,response1disk,,6,20.84765625,8.98046875,1,0,0,rectangle,20.84765625,8.98046875,1,0,0,,,,,,,20.84765625,8.98046875,1,0,0,,0,80,80,1,1,
,,,,,,,,,,,,,FF,,,,,,,,1.2326,,,,,,,,,,,,,,,,,,,,,,61034f3b7331bbf477dd2dda,61036ebf7d4c69350054cb4f,2021-07-29_22h16.27.911,Simcolourproject_2stim_asymm_v5,2020.2.10,MacIntel,60,61025ae37ef11b136ea224fe,,,,,,,,,1552,83.2734375,47.8359375,1,0,0,response1disk,,6,2.94921875,-0.453125,1,0,0,rectangle,2.94921875,-0.453125,1,0,0,,,,,,,2.94921875,-0.453125,1,0,0,,0,81,81,158,1,
,,,,,,,,,,,,,FF,,,,,,,,1.8842,,,,,,,,,,,,,,,,,,,,,,61034f3b7331bbf477dd2dda,61036ebf7d4c69350054cb4f,2021-07-29_22h16.27.911,Simcolourproject_2stim_asymm_v5,2020.2.10,MacIntel,60,61025ae37ef11b136ea224fe,,,,,,,,,3154,42.21484375,-99.53125,1,0,0,response3disk,,4,17.34375,-10.12109375,1,0,0,rectangle,17.34375,-10.12109375,1,0,0,,,,,,,17.34375,-10.12109375,1,0,0,,0,82,82,143,1,
,,,,,,,,,,,,,FF,,,,,,,,1.6017,,,,,,,,,,,,,,,,,,,,,,61034f3b7331bbf477dd2dda,61036ebf7d4c69350054cb4f,2021-07-29_22h16.27.911,Simcolourproject_2stim_asymm_v5,2020.2.10,MacIntel,60,61025ae37ef11b136ea224fe,,,,,,,,,3345,97.625,42.46484375,1,0,0,response1disk,,6,3.8515625,13.40625,1,0,0,rectangle,3.8515625,13.40625,1,0,0,,,,,,,3.8515625,13.40625,1,0,0,,0,83,83,22,1,
,,,,,,,,,,,,,FF,,,,,,,,2.2827,,,,,,,,,,,,,,,,,,,,,,61034f3b7331bbf477dd2dda,61036ebf7d4c69350054cb4f,2021-07-29_22h16.27.911,Simcolourproject_2stim_asymm_v5,2020.2.10,MacIntel,60,61025ae37ef11b136ea224fe,,,,,,,,,1672,50.83203125,-100.8398438,1,0,0,response3disk,,4,20.80859375,13.7578125,1,0,0,rectangle,20.80859375,13.7578125,1,0,0,,,,,,,20.80859375,13.7578125,1,0,0,,0,84,84,81,1,
,,,,,,,,,,,,,FF,,,,,,,,1.3322,,,,,,,,,,,,,,,,,,,,,,61034f3b7331bbf477dd2dda,61036ebf7d4c69350054cb4f,2021-07-29_22h16.27.911,Simcolourproject_2stim_asymm_v5,2020.2.10,MacIntel,60,61025ae37ef11b136ea224fe,,,,,,,,,2590,73.6640625,39.31640625,1,0,0,response1disk,,6,-8.75,-7.9453125,1,0,0,rectangle,-8.75,-7.9453125,1,0,0,,,,,,,-8.75,-7.9453125,1,0,0,,0,85,85,159,1,
,,,,,,,,,,,,,FF,,,,,,,,1.5333,,,,,,,,,,,,,,,,,,,,,,61034f3b7331bbf477dd2dda,61036ebf7d4c69350054cb4f,2021-07-29_22h16.27.911,Simcolourproject_2stim_asymm_v5,2020.2.10,MacIntel,60,61025ae37ef11b136ea224fe,,,,,,,,,3184,84.66796875,48.55078125,1,0,0,response1disk,,6,8.78515625,0.984375,1,0,0,rectangle,8.78515625,0.984375,1,0,0,,,,,,,8.78515625,0.984375,1,0,0,,0,86,86,13,1,
,,,,,,,,,,,,,FF,,,,,,,,6.8813,,,,,,,,,,,,,,,,,,,,,,61034f3b7331bbf477dd2dda,61036ebf7d4c69350054cb4f,2021-07-29_22h16.27.911,Simcolourproject_2stim_asymm_v5,2020.2.10,MacIntel,60,61025ae37ef11b136ea224fe,,,,,,,,,4250,82.796875,-38.36328125,1,0,0,response3disk,,5,18.546875,4.67578125,1,0,0,rectangle,18.546875,4.67578125,1,0,0,,,,,,,18.546875,4.67578125,1,0,0,,0,87,87,68,1,
,,,,,,,,,,,,,FF,,,,,,,,1.7838,,,,,,,,,,,,,,,,,,,,,,61034f3b7331bbf477dd2dda,61036ebf7d4c69350054cb4f,2021-07-29_22h16.27.911,Simcolourproject_2stim_asymm_v5,2020.2.10,MacIntel,60,61025ae37ef11b136ea224fe,,,,,,,,,244,82.90234375,41.3359375,1,0,0,response1disk,,6,19.109375,-0.1640625,1,0,0,rectangle,19.109375,-0.1640625,1,0,0,,,,,,,19.109375,-0.1640625,1,0,0,,0,88,88,75,1,
,,,,,,,,,,,,,FF,,,,,,,,1.3321,,,,,,,,,,,,,,,,,,,,,,61034f3b7331bbf477dd2dda,61036ebf7d4c69350054cb4f,2021-07-29_22h16.27.911,Simcolourproject_2stim_asymm_v5,2020.2.10,MacIntel,60,61025ae37ef11b136ea224fe,,,,,,,,,3072,88.54296875,49.68359375,1,0,0,response1disk,,6,16.20703125,4.71875,1,0,0,rectangle,16.20703125,4.71875,1,0,0,,,,,,,16.20703125,4.71875,1,0,0,,0,89,89,145,1,
,,,,,,,,,,,,,FF,,,,,,,,2.6842,,,,,,,,,,,,,,,,,,,,,,61034f3b7331bbf477dd2dda,61036ebf7d4c69350054cb4f,2021-07-29_22h16.27.911,Simcolourproject_2stim_asymm_v5,2020.2.10,MacIntel,60,61025ae37ef11b136ea224fe,,,,,,,,,2700,70.07421875,26.33203125,1,0,0,response1disk,,6,7.94140625,6.3359375,1,0,0,rectangle,7.94140625,6.3359375,1,0,0,,,,,,,7.94140625,6.3359375,1,0,0,,0,90,90,14,1,
,,,,,,,,,,,,,FF,,,,,,,,2.0977,,,,,,,,,,,,,,,,,,,,,,61034f3b7331bbf477dd2dda,61036ebf7d4c69350054cb4f,2021-07-29_22h16.27.911,Simcolourproject_2stim_asymm_v5,2020.2.10,MacIntel,60,61025ae37ef11b136ea224fe,,,,,,,,,212,74.7578125,26.96875,1,0,0,response1disk,,6,-4.6796875,-1.04296875,1,0,0,rectangle,-4.6796875,-1.04296875,1,0,0,,,,,,,-4.6796875,-1.04296875,1,0,0,,0,91,91,8,1,
,,,,,,,,,,,,,FF,,,,,,,,2.3647,,,,,,,,,,,,,,,,,,,,,,61034f3b7331bbf477dd2dda,61036ebf7d4c69350054cb4f,2021-07-29_22h16.27.911,Simcolourproject_2stim_asymm_v5,2020.2.10,MacIntel,60,61025ae37ef11b136ea224fe,,,,,,,,,1652,72.0390625,40.0078125,1,0,0,response1disk,,6,3.87890625,4.05078125,1,0,0,rectangle,3.87890625,4.05078125,1,0,0,,,,,,,3.87890625,4.05078125,1,0,0,,0,92,92,30,1,
,,,,,,,,,,,,,FF,,,,,,,,5.6018,,,,,,,,,,,,,,,,,,,,,,61034f3b7331bbf477dd2dda,61036ebf7d4c69350054cb4f,2021-07-29_22h16.27.911,Simcolourproject_2stim_asymm_v5,2020.2.10,MacIntel,60,61025ae37ef11b136ea224fe,,,,,,,,,623,48.0546875,79.85546875,1,0,0,response1disk,,7,13.73046875,-1.98828125,1,0,0,rectangle,13.73046875,-1.98828125,1,0,0,,,,,,,13.73046875,-1.98828125,1,0,0,,0,93,93,34,1,
,,,,,,,,,,,,,FF,,,,,,,,2.5014,,,,,,,,,,,,,,,,,,,,,,61034f3b7331bbf477dd2dda,61036ebf7d4c69350054cb4f,2021-07-29_22h16.27.911,Simcolourproject_2stim_asymm_v5,2020.2.10,MacIntel,60,61025ae37ef11b136ea224fe,,,,,,,,,1764,41.890625,-106.4921875,1,0,0,response3disk,,4,-0.08984375,-2.05859375,1,0,0,rectangle,-0.08984375,-2.05859375,1,0,0,,,,,,,-0.08984375,-2.05859375,1,0,0,,0,94,94,35,1,
,,,,,,,,,,,,,FF,,,,,,,,1.7676,,,,,,,,,,,,,,,,,,,,,,61034f3b7331bbf477dd2dda,61036ebf7d4c69350054cb4f,2021-07-29_22h16.27.911,Simcolourproject_2stim_asymm_v5,2020.2.10,MacIntel,60,61025ae37ef11b136ea224fe,,,,,,,,,3281,98.6953125,-57.6875,1,0,0,response3disk,,5,15.40234375,-5.890625,1,0,0,rectangle,15.40234375,-5.890625,1,0,0,,,,,,,15.40234375,-5.890625,1,0,0,,0,95,95,136,1,
,,,,,,,,,,,,,FF,,,,,,,,2.4352,,,,,,,,,,,,,,,,,,,,,,61034f3b7331bbf477dd2dda,61036ebf7d4c69350054cb4f,2021-07-29_22h16.27.911,Simcolourproject_2stim_asymm_v5,2020.2.10,MacIntel,60,61025ae37ef11b136ea224fe,,,,,,,,,1286,-38.78515625,-85.91796875,1,0,0,response5disk,,3,3.05859375,7.078125,1,0,0,rectangle,3.05859375,7.078125,1,0,0,,,,,,,3.05859375,7.078125,1,0,0,,0,96,96,69,1,
,,,,,,,,,,,,,FF,,,,,,,,4.2665,,,,,,,,,,,,,,,,,,,,,,61034f3b7331bbf477dd2dda,61036ebf7d4c69350054cb4f,2021-07-29_22h16.27.911,Simcolourproject_2stim_asymm_v5,2020.2.10,MacIntel,60,61025ae37ef11b136ea224fe,,,,,,,,,3788,41.609375,-69.02734375,1,0,0,response3disk,,4,6.21875,-2.72265625,1,0,0,rectangle,6.21875,-2.72265625,1,0,0,,,,,,,6.21875,-2.72265625,1,0,0,,0,97,97,25,1,
,,,,,,,,,,,,,FF,,,,,,,,2.8804,,,,,,,,,,,,,,,,,,,,,,61034f3b7331bbf477dd2dda,61036ebf7d4c69350054cb4f,2021-07-29_22h16.27.911,Simcolourproject_2stim_asymm_v5,2020.2.10,MacIntel,60,61025ae37ef11b136ea224fe,,,,,,,,,997,95.11328125,28.08203125,1,0,0,response1disk,,6,16.2890625,-3.13671875,1,0,0,rectangle,16.2890625,-3.13671875,1,0,0,,,,,,,16.2890625,-3.13671875,1,0,0,,0,98,98,90,1,
,,,,,,,,,,,,,FF,,,,,,,,1.4833,,,,,,,,,,,,,,,,,,,,,,61034f3b7331bbf477dd2dda,61036ebf7d4c69350054cb4f,2021-07-29_22h16.27.911,Simcolourproject_2stim_asymm_v5,2020.2.10,MacIntel,60,61025ae37ef11b136ea224fe,,,,,,,,,987,94.890625,45.58984375,1,0,0,response1disk,,6,11.41796875,-8.265625,1,0,0,rectangle,11.41796875,-8.265625,1,0,0,,,,,,,11.41796875,-8.265625,1,0,0,,0,99,99,127,1,
,,,,,,,,,,,,,FF,,,,,,,,1.4033,,,,,,,,,,,,,,,,,,,,,,61034f3b7331bbf477dd2dda,61036ebf7d4c69350054cb4f,2021-07-29_22h16.27.911,Simcolourproject_2stim_asymm_v5,2020.2.10,MacIntel,60,61025ae37ef11b136ea224fe,,,,,,,,,3997,76.30078125,-45.9375,1,0,0,response3disk,,5,7.98046875,-2.671875,1,0,0,rectangle,7.98046875,-2.671875,1,0,0,,,,,,,7.98046875,-2.671875,1,0,0,,0,100,100,144,1,
,,,,,,,,,,,,,FF,,,,,,,,1.5188,,,,,,,,,,,,,,,,,,,,,,61034f3b7331bbf477dd2dda,61036ebf7d4c69350054cb4f,2021-07-29_22h16.27.911,Simcolourproject_2stim_asymm_v5,2020.2.10,MacIntel,60,61025ae37ef11b136ea224fe,,,,,,,,,3209,75.9609375,33.66796875,1,0,0,response1disk,,6,9.0078125,6.328125,1,0,0,rectangle,-78.69140625,-39.9140625,1,0,0,response5disk_3,TRUE,2,2,"[14,102,109,76,46,232,209,278,307,69,222,177,43,57,1,7,322,219,253,76]",2.3499,-6.71875,0.3515625,1,0,0,rectangle,0,101,101,153,1,
,,,,,,,,,,,,,FF,,,,,,,,2.9805,,,,,,,,,,,,,,,,,,,,,,61034f3b7331bbf477dd2dda,61036ebf7d4c69350054cb4f,2021-07-29_22h16.27.911,Simcolourproject_2stim_asymm_v5,2020.2.10,MacIntel,60,61025ae37ef11b136ea224fe,,,,,,,,,2710,44.2734375,-79.0703125,1,0,0,response3disk,,4,8.73828125,-0.93359375,1,0,0,rectangle,8.73828125,-0.93359375,1,0,0,,,,,,,8.73828125,-0.93359375,1,0,0,,0,102,102,31,1,
,,,,,,,,,,,,,FF,,,,,,,,5.4639,,,,,,,,,,,,,,,,,,,,,,61034f3b7331bbf477dd2dda,61036ebf7d4c69350054cb4f,2021-07-29_22h16.27.911,Simcolourproject_2stim_asymm_v5,2020.2.10,MacIntel,60,61025ae37ef11b136ea224fe,,,,,,,,,1595,56.44921875,86.40625,1,0,0,response1disk,,7,12.75,0.5390625,1,0,0,rectangle,12.75,0.5390625,1,0,0,,,,,,,12.75,0.5390625,1,0,0,,0,103,103,59,1,
,,,,,,,,,,,,,FF,,,,,,,,3.0184,,,,,,,,,,,,,,,,,,,,,,61034f3b7331bbf477dd2dda,61036ebf7d4c69350054cb4f,2021-07-29_22h16.27.911,Simcolourproject_2stim_asymm_v5,2020.2.10,MacIntel,60,61025ae37ef11b136ea224fe,,,,,,,,,2606,-87.1328125,41.328125,1,0,0,response7disk,,1,-16.63671875,2.55078125,1,0,0,rectangle,-16.63671875,2.55078125,1,0,0,,,,,,,-16.63671875,2.55078125,1,0,0,,0,104,104,99,1,
,,,,,,,,,,,,,FF,,,,,,,,1.2511,,,,,,,,,,,,,,,,,,,,,,61034f3b7331bbf477dd2dda,61036ebf7d4c69350054cb4f,2021-07-29_22h16.27.911,Simcolourproject_2stim_asymm_v5,2020.2.10,MacIntel,60,61025ae37ef11b136ea224fe,,,,,,,,,1721,72.12890625,31.7265625,1,0,0,response1disk,,6,2.45703125,2.609375,1,0,0,rectangle,2.45703125,2.609375,1,0,0,,,,,,,2.45703125,2.609375,1,0,0,,0,105,105,131,1,
,,,,,,,,,,,,,FF,,,,,,,,1.9515,,,,,,,,,,,,,,,,,,,,,,61034f3b7331bbf477dd2dda,61036ebf7d4c69350054cb4f,2021-07-29_22h16.27.911,Simcolourproject_2stim_asymm_v5,2020.2.10,MacIntel,60,61025ae37ef11b136ea224fe,,,,,,,,,3418,66.3203125,25.48046875,1,0,0,response1disk,,6,14.17578125,-3.265625,1,0,0,rectangle,14.17578125,-3.265625,1,0,0,,,,,,,14.17578125,-3.265625,1,0,0,,0,106,106,6,1,
,,,,,,,,,,,,,FF,,,,,,,,1.2809,,,,,,,,,,,,,,,,,,,,,,61034f3b7331bbf477dd2dda,61036ebf7d4c69350054cb4f,2021-07-29_22h16.27.911,Simcolourproject_2stim_asymm_v5,2020.2.10,MacIntel,60,61025ae37ef11b136ea224fe,,,,,,,,,2011,83.5,43.46484375,1,0,0,response1disk,,6,10.0234375,12.01171875,1,0,0,rectangle,10.0234375,12.01171875,1,0,0,,,,,,,10.0234375,12.01171875,1,0,0,,0,107,107,142,1,
,,,,,,,,,,,,,FF,,,,,,,,1.9518,,,,,,,,,,,,,,,,,,,,,,61034f3b7331bbf477dd2dda,61036ebf7d4c69350054cb4f,2021-07-29_22h16.27.911,Simcolourproject_2stim_asymm_v5,2020.2.10,MacIntel,60,61025ae37ef11b136ea224fe,,,,,,,,,3008,83.01953125,44.74609375,1,0,0,response1disk,,6,13.25390625,4.3984375,1,0,0,rectangle,-88.828125,46.31640625,1,0,0,response7disk_3,TRUE,1,1,"[14,102,109,76,46,232,209,278,307,69,222,177,43,57,1,7,322,219,253,76]",1.8532,-17.71875,4.76171875,1,0,0,rectangle,0,108,108,67,1,
,,,,,,,,,,,,,FF,,,,,,,,2.5344,,,,,,,,,,,,,,,,,,,,,,61034f3b7331bbf477dd2dda,61036ebf7d4c69350054cb4f,2021-07-29_22h16.27.911,Simcolourproject_2stim_asymm_v5,2020.2.10,MacIntel,60,61025ae37ef11b136ea224fe,,,,,,,,,4209,85.6484375,45.74609375,1,0,0,response1disk,,6,10.60546875,-1.39453125,1,0,0,rectangle,10.60546875,-1.39453125,1,0,0,,,,,,,10.60546875,-1.39453125,1,0,0,,0,109,109,66,1,
,,,,,,,,,,,,,FF,,,,,,,,3.5009,,,,,,,,,,,,,,,,,,,,,,61034f3b7331bbf477dd2dda,61036ebf7d4c69350054cb4f,2021-07-29_22h16.27.911,Simcolourproject_2stim_asymm_v5,2020.2.10,MacIntel,60,61025ae37ef11b136ea224fe,,,,,,,,,2322,110.5039063,-29.8828125,1,0,0,response3disk,,5,24.171875,-4.75390625,1,0,0,rectangle,24.171875,-4.75390625,1,0,0,,,,,,,24.171875,-4.75390625,1,0,0,,0,110,110,53,1,
,,,,,,,,,,,,,FF,,,,,,,,1.3654,,,,,,,,,,,,,,,,,,,,,,61034f3b7331bbf477dd2dda,61036ebf7d4c69350054cb4f,2021-07-29_22h16.27.911,Simcolourproject_2stim_asymm_v5,2020.2.10,MacIntel,60,61025ae37ef11b136ea224fe,,,,,,,,,4102,-28.62890625,-107.2617188,1,0,0,response5disk,,3,9.27734375,9.3359375,1,0,0,rectangle,9.27734375,9.3359375,1,0,0,,,,,,,9.27734375,9.3359375,1,0,0,,0,111,111,71,1,
,,,,,,,,,,,,,FF,,,,,,,,3.5976,,,,,,,,,,,,,,,,,,,,,,61034f3b7331bbf477dd2dda,61036ebf7d4c69350054cb4f,2021-07-29_22h16.27.911,Simcolourproject_2stim_asymm_v5,2020.2.10,MacIntel,60,61025ae37ef11b136ea224fe,,,,,,,,,2431,75.48828125,-54.66015625,1,0,0,response3disk,,5,20.82421875,-9.58203125,1,0,0,rectangle,20.82421875,-9.58203125,1,0,0,,,,,,,20.82421875,-9.58203125,1,0,0,,0,112,112,116,1,
,,,,,,,,,,,,,FF,,,,,,,,2.169,,,,,,,,,,,,,,,,,,,,,,61034f3b7331bbf477dd2dda,61036ebf7d4c69350054cb4f,2021-07-29_22h16.27.911,Simcolourproject_2stim_asymm_v5,2020.2.10,MacIntel,60,61025ae37ef11b136ea224fe,,,,,,,,,2535,73.93359375,-48.41015625,1,0,0,response3disk,,5,2.87890625,4.84375,1,0,0,rectangle,2.87890625,4.84375,1,0,0,,,,,,,2.87890625,4.84375,1,0,0,,0,113,113,107,1,
,,,,,,,,,,,,,FF,,,,,,,,1.4342,,,,,,,,,,,,,,,,,,,,,,61034f3b7331bbf477dd2dda,61036ebf7d4c69350054cb4f,2021-07-29_22h16.27.911,Simcolourproject_2stim_asymm_v5,2020.2.10,MacIntel,60,61025ae37ef11b136ea224fe,,,,,,,,,1244,77.88671875,28.9453125,1,0,0,response1disk,,6,15.27734375,6.58984375,1,0,0,rectangle,15.27734375,6.58984375,1,0,0,,,,,,,15.27734375,6.58984375,1,0,0,,0,114,114,100,1,
,,,,,,,,,,,,,FF,,,,,,,,1.7846,,,,,,,,,,,,,,,,,,,,,,61034f3b7331bbf477dd2dda,61036ebf7d4c69350054cb4f,2021-07-29_22h16.27.911,Simcolourproject_2stim_asymm_v5,2020.2.10,MacIntel,60,61025ae37ef11b136ea224fe,,,,,,,,,638,-49.48046875,-81.2109375,1,0,0,response5disk,,3,20.40234375,17.3046875,1,0,0,rectangle,20.40234375,17.3046875,1,0,0,,,,,,,20.40234375,17.3046875,1,0,0,,0,115,115,27,1,
,,,,,,,,,,,,,FF,,,,,,,,1.7022,,,,,,,,,,,,,,,,,,,,,,61034f3b7331bbf477dd2dda,61036ebf7d4c69350054cb4f,2021-07-29_22h16.27.911,Simcolourproject_2stim_asymm_v5,2020.2.10,MacIntel,60,61025ae37ef11b136ea224fe,,,,,,,,,457,-83.76171875,-36.4375,1,0,0,response5disk,,2,-0.0625,-8.20703125,1,0,0,rectangle,-0.0625,-8.20703125,1,0,0,,,,,,,-0.0625,-8.20703125,1,0,0,,0,116,116,148,1,
,,,,,,,,,,,,,FF,,,,,,,,1.1642,,,,,,,,,,,,,,,,,,,,,,61034f3b7331bbf477dd2dda,61036ebf7d4c69350054cb4f,2021-07-29_22h16.27.911,Simcolourproject_2stim_asymm_v5,2020.2.10,MacIntel,60,61025ae37ef11b136ea224fe,,,,,,,,,282,-79.203125,-50.94921875,1,0,0,response5disk,,2,-1.70703125,-3.58984375,1,0,0,rectangle,-1.70703125,-3.58984375,1,0,0,,,,,,,-1.70703125,-3.58984375,1,0,0,,0,117,117,49,1,
,,,,,,,,,,,,,FF,,,,,,,,1.3538,,,,,,,,,,,,,,,,,,,,,,61034f3b7331bbf477dd2dda,61036ebf7d4c69350054cb4f,2021-07-29_22h16.27.911,Simcolourproject_2stim_asymm_v5,2020.2.10,MacIntel,60,61025ae37ef11b136ea224fe,,,,,,,,,3148,-76.75390625,-40.85546875,1,0,0,response5disk,,2,-9.3671875,-2.11328125,1,0,0,rectangle,-9.3671875,-2.11328125,1,0,0,,,,,,,-9.3671875,-2.11328125,1,0,0,,0,118,118,55,1,
,,,,,,,,,,,,,FF,,,,,,,,2.2246,,,,,,,,,,,,,,,,,,,,,,61034f3b7331bbf477dd2dda,61036ebf7d4c69350054cb4f,2021-07-29_22h16.27.911,Simcolourproject_2stim_asymm_v5,2020.2.10,MacIntel,60,61025ae37ef11b136ea224fe,,,,,,,,,4161,-40.1796875,78.6328125,1,0,0,response7disk,,0,-6.21484375,-6.87109375,1,0,0,rectangle,-6.21484375,-6.87109375,1,0,0,,,,,,,-6.21484375,-6.87109375,1,0,0,,0,119,119,77,1,
,,,,,,,,,,,,,FF,,,,,,,,1.4326,,,,,,,,,,,,,,,,,,,,,,61034f3b7331bbf477dd2dda,61036ebf7d4c69350054cb4f,2021-07-29_22h16.27.911,Simcolourproject_2stim_asymm_v5,2020.2.10,MacIntel,60,61025ae37ef11b136ea224fe,,,,,,,,,3991,52.1015625,71.89453125,1,0,0,response1disk,,7,12.38671875,0.2109375,1,0,0,rectangle,12.38671875,0.2109375,1,0,0,,,,,,,12.38671875,0.2109375,1,0,0,,0,120,120,129,1,
,,,,,,,,,,,,,FF,,,,,,,,1.9344,,,,,,,,,,,,,,,,,,,,,,61034f3b7331bbf477dd2dda,61036ebf7d4c69350054cb4f,2021-07-29_22h16.27.911,Simcolourproject_2stim_asymm_v5,2020.2.10,MacIntel,60,61025ae37ef11b136ea224fe,,,,,,,,,770,48.3203125,80.03515625,1,0,0,response1disk,,7,5.0859375,-1.8515625,1,0,0,rectangle,5.0859375,-1.8515625,1,0,0,,,,,,,5.0859375,-1.8515625,1,0,0,,0,121,121,101,1,
,,,,,,,,,,,,,FF,,,,,,,,1.9666,,,,,,,,,,,,,,,,,,,,,,61034f3b7331bbf477dd2dda,61036ebf7d4c69350054cb4f,2021-07-29_22h16.27.911,Simcolourproject_2stim_asymm_v5,2020.2.10,MacIntel,60,61025ae37ef11b136ea224fe,,,,,,,,,860,53.15625,74.76953125,1,0,0,response1disk,,7,7.8359375,0.53125,1,0,0,rectangle,7.8359375,0.53125,1,0,0,,,,,,,7.8359375,0.53125,1,0,0,,0,122,122,83,1,
,,,,,,,,,,,,,FF,,,,,,,,1.4885,,,,,,,,,,,,,,,,,,,,,,61034f3b7331bbf477dd2dda,61036ebf7d4c69350054cb4f,2021-07-29_22h16.27.911,Simcolourproject_2stim_asymm_v5,2020.2.10,MacIntel,60,61025ae37ef11b136ea224fe,,,,,,,,,3730,42.36328125,77.75,1,0,0,response1disk,,7,-1.171875,-3.1953125,1,0,0,rectangle,-1.171875,-3.1953125,1,0,0,,,,,,,-1.171875,-3.1953125,1,0,0,,0,123,123,86,1,
,,,,,,,,,,,,,FF,,,,,,,,1.0654,,,,,,,,,,,,,,,,,,,,,,61034f3b7331bbf477dd2dda,61036ebf7d4c69350054cb4f,2021-07-29_22h16.27.911,Simcolourproject_2stim_asymm_v5,2020.2.10,MacIntel,60,61025ae37ef11b136ea224fe,,,,,,,,,3707,-35.38671875,79.22265625,1,0,0,response7disk,,0,-9.59375,-3.66015625,1,0,0,rectangle,-9.59375,-3.66015625,1,0,0,,,,,,,-9.59375,-3.66015625,1,0,0,,0,124,124,20,1,
,,,,,,,,,,,,,FF,,,,,,,,1.2475,,,,,,,,,,,,,,,,,,,,,,61034f3b7331bbf477dd2dda,61036ebf7d4c69350054cb4f,2021-07-29_22h16.27.911,Simcolourproject_2stim_asymm_v5,2020.2.10,MacIntel,60,61025ae37ef11b136ea224fe,,,,,,,,,3335,40.4921875,89.0234375,1,0,0,response1disk,,7,6.15625,-5.39453125,1,0,0,rectangle,6.15625,-5.39453125,1,0,0,,,,,,,6.15625,-5.39453125,1,0,0,,0,125,125,0,1,
,,,,,,,,,,,,,FF,,,,,,,,2.7977,,,,,,,,,,,,,,,,,,,,,,61034f3b7331bbf477dd2dda,61036ebf7d4c69350054cb4f,2021-07-29_22h16.27.911,Simcolourproject_2stim_asymm_v5,2020.2.10,MacIntel,60,61025ae37ef11b136ea224fe,,,,,,,,,864,36.546875,-99.15625,1,0,0,response3disk,,4,0.44921875,0.0859375,1,0,0,rectangle,0.44921875,0.0859375,1,0,0,,,,,,,0.44921875,0.0859375,1,0,0,,0,126,126,111,1,
,,,,,,,,,,,,,FF,,,,,,,,2.7003,,,,,,,,,,,,,,,,,,,,,,61034f3b7331bbf477dd2dda,61036ebf7d4c69350054cb4f,2021-07-29_22h16.27.911,Simcolourproject_2stim_asymm_v5,2020.2.10,MacIntel,60,61025ae37ef11b136ea224fe,,,,,,,,,593,77.95703125,31.96484375,1,0,0,response1disk,,6,2.8125,-15.74609375,1,0,0,rectangle,2.8125,-15.74609375,1,0,0,,,,,,,2.8125,-15.74609375,1,0,0,,0,127,127,118,1,
,,,,,,,,,,,,,FF,,,,,,,,1.8672,,,,,,,,,,,,,,,,,,,,,,61034f3b7331bbf477dd2dda,61036ebf7d4c69350054cb4f,2021-07-29_22h16.27.911,Simcolourproject_2stim_asymm_v5,2020.2.10,MacIntel,60,61025ae37ef11b136ea224fe,,,,,,,,,2603,-38.30078125,-100.265625,1,0,0,response5disk,,3,2.90625,2.515625,1,0,0,rectangle,2.90625,2.515625,1,0,0,,,,,,,2.90625,2.515625,1,0,0,,0,128,128,15,1,
,,,,,,,,,,,,,FF,,,,,,,,2.9987,,,,,,,,,,,,,,,,,,,,,,61034f3b7331bbf477dd2dda,61036ebf7d4c69350054cb4f,2021-07-29_22h16.27.911,Simcolourproject_2stim_asymm_v5,2020.2.10,MacIntel,60,61025ae37ef11b136ea224fe,,,,,,,,,588,90.96484375,-45.3515625,1,0,0,response3disk,,5,30.265625,-8.76953125,1,0,0,rectangle,30.265625,-8.76953125,1,0,0,,,,,,,30.265625,-8.76953125,1,0,0,,0,129,129,157,1,
,,,,,,,,,,,,,FF,,,,,,,,2.5495,,,,,,,,,,,,,,,,,,,,,,61034f3b7331bbf477dd2dda,61036ebf7d4c69350054cb4f,2021-07-29_22h16.27.911,Simcolourproject_2stim_asymm_v5,2020.2.10,MacIntel,60,61025ae37ef11b136ea224fe,,,,,,,,,4068,55.40625,-42.1484375,1,0,0,response3disk,,5,8.859375,0.40625,1,0,0,rectangle,8.859375,0.40625,1,0,0,,,,,,,8.859375,0.40625,1,0,0,,0,130,130,122,1,
,,,,,,,,,,,,,FF,,,,,,,,6.6723,,,,,,,,,,,,,,,,,,,,,,61034f3b7331bbf477dd2dda,61036ebf7d4c69350054cb4f,2021-07-29_22h16.27.911,Simcolourproject_2stim_asymm_v5,2020.2.10,MacIntel,60,61025ae37ef11b136ea224fe,,,,,,,,,1826,-30.9921875,-93.7265625,1,0,0,response5disk,,3,-6.1953125,10.73828125,1,0,0,rectangle,-6.1953125,10.73828125,1,0,0,,,,,,,-6.1953125,10.73828125,1,0,0,,0,131,131,16,1,
,,,,,,,,,,,,,FF,,,,,,,,1.6834,,,,,,,,,,,,,,,,,,,,,,61034f3b7331bbf477dd2dda,61036ebf7d4c69350054cb4f,2021-07-29_22h16.27.911,Simcolourproject_2stim_asymm_v5,2020.2.10,MacIntel,60,61025ae37ef11b136ea224fe,,,,,,,,,428,84.73046875,29.08984375,1,0,0,response1disk,,6,9.52734375,-8.6875,1,0,0,rectangle,9.52734375,-8.6875,1,0,0,,,,,,,9.52734375,-8.6875,1,0,0,,0,132,132,50,1,
,,,,,,,,,,,,,FF,,,,,,,,1.8342,,,,,,,,,,,,,,,,,,,,,,61034f3b7331bbf477dd2dda,61036ebf7d4c69350054cb4f,2021-07-29_22h16.27.911,Simcolourproject_2stim_asymm_v5,2020.2.10,MacIntel,60,61025ae37ef11b136ea224fe,,,,,,,,,2896,-34.20703125,-83.6953125,1,0,0,response5disk,,3,6.3671875,0.05078125,1,0,0,rectangle,6.3671875,0.05078125,1,0,0,,,,,,,6.3671875,0.05078125,1,0,0,,0,133,133,152,1,
,,,,,,,,,,,,,FF,,,,,,,,2.1167,,,,,,,,,,,,,,,,,,,,,,61034f3b7331bbf477dd2dda,61036ebf7d4c69350054cb4f,2021-07-29_22h16.27.911,Simcolourproject_2stim_asymm_v5,2020.2.10,MacIntel,60,61025ae37ef11b136ea224fe,,,,,,,,,2702,69.92578125,-53.83203125,1,0,0,response3disk,,5,18.43359375,-4.4609375,1,0,0,rectangle,18.43359375,-4.4609375,1,0,0,,,,,,,18.43359375,-4.4609375,1,0,0,,0,134,134,123,1,
,,,,,,,,,,,,,FF,,,,,,,,1.5166,,,,,,,,,,,,,,,,,,,,,,61034f3b7331bbf477dd2dda,61036ebf7d4c69350054cb4f,2021-07-29_22h16.27.911,Simcolourproject_2stim_asymm_v5,2020.2.10,MacIntel,60,61025ae37ef11b136ea224fe,,,,,,,,,1248,64.14453125,-29.08984375,1,0,0,response3disk,,5,12.625,13.0625,1,0,0,rectangle,12.625,13.0625,1,0,0,,,,,,,12.625,13.0625,1,0,0,,0,135,135,103,1,
,,,,,,,,,,,,,FF,,,,,,,,1.8498,,,,,,,,,,,,,,,,,,,,,,61034f3b7331bbf477dd2dda,61036ebf7d4c69350054cb4f,2021-07-29_22h16.27.911,Simcolourproject_2stim_asymm_v5,2020.2.10,MacIntel,60,61025ae37ef11b136ea224fe,,,,,,,,,3469,-37.35546875,94.1640625,1,0,0,response7disk,,0,-2.25390625,-1.13671875,1,0,0,rectangle,-2.25390625,-1.13671875,1,0,0,,,,,,,-2.25390625,-1.13671875,1,0,0,,0,136,136,115,1,
,,,,,,,,,,,,,FF,,,,,,,,1.4156,,,,,,,,,,,,,,,,,,,,,,61034f3b7331bbf477dd2dda,61036ebf7d4c69350054cb4f,2021-07-29_22h16.27.911,Simcolourproject_2stim_asymm_v5,2020.2.10,MacIntel,60,61025ae37ef11b136ea224fe,,,,,,,,,2465,77.16796875,36.05078125,1,0,0,response1disk,,6,5.2421875,-6.203125,1,0,0,rectangle,5.2421875,-6.203125,1,0,0,,,,,,,5.2421875,-6.203125,1,0,0,,0,137,137,51,1,
,,,,,,,,,,,,,FF,,,,,,,,2.2666,,,,,,,,,,,,,,,,,,,,,,61034f3b7331bbf477dd2dda,61036ebf7d4c69350054cb4f,2021-07-29_22h16.27.911,Simcolourproject_2stim_asymm_v5,2020.2.10,MacIntel,60,61025ae37ef11b136ea224fe,,,,,,,,,572,81.72265625,38.68359375,1,0,0,response1disk,,6,2.8359375,-3.515625,1,0,0,rectangle,2.8359375,-3.515625,1,0,0,,,,,,,2.8359375,-3.515625,1,0,0,,0,138,138,138,1,
,,,,,,,,,,,,,FF,,,,,,,,2.0174,,,,,,,,,,,,,,,,,,,,,,61034f3b7331bbf477dd2dda,61036ebf7d4c69350054cb4f,2021-07-29_22h16.27.911,Simcolourproject_2stim_asymm_v5,2020.2.10,MacIntel,60,61025ae37ef11b136ea224fe,,,,,,,,,374,87.1875,29.87890625,1,0,0,response1disk,,6,4.3046875,-2.55078125,1,0,0,rectangle,4.3046875,-2.55078125,1,0,0,,,,,,,4.3046875,-2.55078125,1,0,0,,0,139,139,155,1,
,,,,,,,,,,,,,FF,,,,,,,,1.1832,,,,,,,,,,,,,,,,,,,,,,61034f3b7331bbf477dd2dda,61036ebf7d4c69350054cb4f,2021-07-29_22h16.27.911,Simcolourproject_2stim_asymm_v5,2020.2.10,MacIntel,60,61025ae37ef11b136ea224fe,,,,,,,,,1875,87.078125,50.24609375,1,0,0,response1disk,,6,12.09375,10.7421875,1,0,0,rectangle,12.09375,10.7421875,1,0,0,,,,,,,12.09375,10.7421875,1,0,0,,0,140,140,150,1,
,,,,,,,,,,,,,FF,,,,,,,,1.4315,,,,,,,,,,,,,,,,,,,,,,61034f3b7331bbf477dd2dda,61036ebf7d4c69350054cb4f,2021-07-29_22h16.27.911,Simcolourproject_2stim_asymm_v5,2020.2.10,MacIntel,60,61025ae37ef11b136ea224fe,,,,,,,,,74,77.78125,32.88671875,1,0,0,response1disk,,6,13.1953125,-0.38671875,1,0,0,rectangle,13.1953125,-0.38671875,1,0,0,,,,,,,13.1953125,-0.38671875,1,0,0,,0,141,141,10,1,
,,,,,,,,,,,,,FF,,,,,,,,1.8845,,,,,,,,,,,,,,,,,,,,,,61034f3b7331bbf477dd2dda,61036ebf7d4c69350054cb4f,2021-07-29_22h16.27.911,Simcolourproject_2stim_asymm_v5,2020.2.10,MacIntel,60,61025ae37ef11b136ea224fe,,,,,,,,,4163,-34.03125,-96.75,1,0,0,response5disk,,3,11.92578125,13.44140625,1,0,0,rectangle,11.92578125,13.44140625,1,0,0,,,,,,,11.92578125,13.44140625,1,0,0,,0,142,142,33,1,
,,,,,,,,,,,,,FF,,,,,,,,1.0841,,,,,,,,,,,,,,,,,,,,,,61034f3b7331bbf477dd2dda,61036ebf7d4c69350054cb4f,2021-07-29_22h16.27.911,Simcolourproject_2stim_asymm_v5,2020.2.10,MacIntel,60,61025ae37ef11b136ea224fe,,,,,,,,,80,-42.10546875,-67.66015625,1,0,0,response5disk,,3,0.51953125,-10.9296875,1,0,0,rectangle,0.51953125,-10.9296875,1,0,0,,,,,,,0.51953125,-10.9296875,1,0,0,,0,143,143,98,1,
,,,,,,,,,,,,,FF,,,,,,,,3.4984,,,,,,,,,,,,,,,,,,,,,,61034f3b7331bbf477dd2dda,61036ebf7d4c69350054cb4f,2021-07-29_22h16.27.911,Simcolourproject_2stim_asymm_v5,2020.2.10,MacIntel,60,61025ae37ef11b136ea224fe,,,,,,,,,3240,82.9140625,-54.13671875,1,0,0,response3disk,,5,30.984375,-7.79296875,1,0,0,rectangle,30.984375,-7.79296875,1,0,0,,,,,,,30.984375,-7.79296875,1,0,0,,0,144,144,44,1,
,,,,,,,,,,,,,FF,,,,,,,,2.3011,,,,,,,,,,,,,,,,,,,,,,61034f3b7331bbf477dd2dda,61036ebf7d4c69350054cb4f,2021-07-29_22h16.27.911,Simcolourproject_2stim_asymm_v5,2020.2.10,MacIntel,60,61025ae37ef11b136ea224fe,,,,,,,,,3565,81.78125,29.875,1,0,0,response1disk,,6,15.62109375,-3.81640625,1,0,0,rectangle,15.62109375,-3.81640625,1,0,0,,,,,,,15.62109375,-3.81640625,1,0,0,,0,145,145,126,1,
,,,,,,,,,,,,,FF,,,,,,,,2.7826,,,,,,,,,,,,,,,,,,,,,,61034f3b7331bbf477dd2dda,61036ebf7d4c69350054cb4f,2021-07-29_22h16.27.911,Simcolourproject_2stim_asymm_v5,2020.2.10,MacIntel,60,61025ae37ef11b136ea224fe,,,,,,,,,1682,-28.03515625,-102.84375,1,0,0,response5disk,,3,10.69921875,-5.3046875,1,0,0,rectangle,10.69921875,-5.3046875,1,0,0,,,,,,,10.69921875,-5.3046875,1,0,0,,0,146,146,4,1,
,,,,,,,,,,,,,FF,,,,,,,,1.0163,,,,,,,,,,,,,,,,,,,,,,61034f3b7331bbf477dd2dda,61036ebf7d4c69350054cb4f,2021-07-29_22h16.27.911,Simcolourproject_2stim_asymm_v5,2020.2.10,MacIntel,60,61025ae37ef11b136ea224fe,,,,,,,,,3104,-43.25,-80.30078125,1,0,0,response5disk,,3,-6.2890625,-0.1875,1,0,0,rectangle,-6.2890625,-0.1875,1,0,0,,,,,,,-6.2890625,-0.1875,1,0,0,,0,147,147,72,1,
,,,,,,,,,,,,,FF,,,,,,,,2.3845,,,,,,,,,,,,,,,,,,,,,,61034f3b7331bbf477dd2dda,61036ebf7d4c69350054cb4f,2021-07-29_22h16.27.911,Simcolourproject_2stim_asymm_v5,2020.2.10,MacIntel,60,61025ae37ef11b136ea224fe,,,,,,,,,214,81.67578125,-55.375,1,0,0,response3disk,,5,11.33984375,-7.2890625,1,0,0,rectangle,11.33984375,-7.2890625,1,0,0,,,,,,,11.33984375,-7.2890625,1,0,0,,0,148,148,24,1,
,,,,,,,,,,,,,FF,,,,,,,,1.3828,,,,,,,,,,,,,,,,,,,,,,61034f3b7331bbf477dd2dda,61036ebf7d4c69350054cb4f,2021-07-29_22h16.27.911,Simcolourproject_2stim_asymm_v5,2020.2.10,MacIntel,60,61025ae37ef11b136ea224fe,,,,,,,,,4296,87.67578125,31.14453125,1,0,0,response1disk,,6,7.89453125,-7.3125,1,0,0,rectangle,7.89453125,-7.3125,1,0,0,,,,,,,7.89453125,-7.3125,1,0,0,,0,149,149,132,1,
,,,,,,,,,,,,,FF,,,,,,,,1.4495,,,,,,,,,,,,,,,,,,,,,,61034f3b7331bbf477dd2dda,61036ebf7d4c69350054cb4f,2021-07-29_22h16.27.911,Simcolourproject_2stim_asymm_v5,2020.2.10,MacIntel,60,61025ae37ef11b136ea224fe,,,,,,,,,574,82.80078125,37.90234375,1,0,0,response1disk,,6,0.65625,-6.14453125,1,0,0,rectangle,0.65625,-6.14453125,1,0,0,,,,,,,0.65625,-6.14453125,1,0,0,,0,150,150,12,1,
,,,,,,,,,,,,,FF,,,,,,,,1.0989,,,,,,,,,,,,,,,,,,,,,,61034f3b7331bbf477dd2dda,61036ebf7d4c69350054cb4f,2021-07-29_22h16.27.911,Simcolourproject_2stim_asymm_v5,2020.2.10,MacIntel,60,61025ae37ef11b136ea224fe,,,,,,,,,112,86.06640625,41.73046875,1,0,0,response1disk,,6,0.3984375,1.03125,1,0,0,rectangle,0.3984375,1.03125,1,0,0,,,,,,,0.3984375,1.03125,1,0,0,,0,151,151,70,1,
,,,,,,,,,,,,,FF,,,,,,,,1.1656,,,,,,,,,,,,,,,,,,,,,,61034f3b7331bbf477dd2dda,61036ebf7d4c69350054cb4f,2021-07-29_22h16.27.911,Simcolourproject_2stim_asymm_v5,2020.2.10,MacIntel,60,61025ae37ef11b136ea224fe,,,,,,,,,760,85.08203125,44.421875,1,0,0,response1disk,,6,11.7421875,10.546875,1,0,0,rectangle,11.7421875,10.546875,1,0,0,,,,,,,11.7421875,10.546875,1,0,0,,0,152,152,61,1,
,,,,,,,,,,,,,FF,,,,,,,,2.1481,,,,,,,,,,,,,,,,,,,,,,61034f3b7331bbf477dd2dda,61036ebf7d4c69350054cb4f,2021-07-29_22h16.27.911,Simcolourproject_2stim_asymm_v5,2020.2.10,MacIntel,60,61025ae37ef11b136ea224fe,,,,,,,,,3665,91.09375,35.70703125,1,0,0,response1disk,,6,10.79296875,-0.0546875,1,0,0,rectangle,10.79296875,-0.0546875,1,0,0,,,,,,,10.79296875,-0.0546875,1,0,0,,0,153,153,128,1,
,,,,,,,,,,,,,FF,,,,,,,,1.33,,,,,,,,,,,,,,,,,,,,,,61034f3b7331bbf477dd2dda,61036ebf7d4c69350054cb4f,2021-07-29_22h16.27.911,Simcolourproject_2stim_asymm_v5,2020.2.10,MacIntel,60,61025ae37ef11b136ea224fe,,,,,,,,,3861,87.34375,35.58203125,1,0,0,response1disk,,6,4.06640625,1.71484375,1,0,0,rectangle,4.06640625,1.71484375,1,0,0,,,,,,,4.06640625,1.71484375,1,0,0,,0,154,154,97,1,
,,,,,,,,,,,,,FF,,,,,,,,1.1866,,,,,,,,,,,,,,,,,,,,,,61034f3b7331bbf477dd2dda,61036ebf7d4c69350054cb4f,2021-07-29_22h16.27.911,Simcolourproject_2stim_asymm_v5,2020.2.10,MacIntel,60,61025ae37ef11b136ea224fe,,,,,,,,,682,68.66796875,24.265625,1,0,0,response1disk,,6,9.63671875,-2.90234375,1,0,0,rectangle,9.63671875,-2.90234375,1,0,0,,,,,,,9.63671875,-2.90234375,1,0,0,,0,155,155,87,1,
,,,,,,,,,,,,,FF,,,,,,,,6.2857,,,,,,,,,,,,,,,,,,,,,,61034f3b7331bbf477dd2dda,61036ebf7d4c69350054cb4f,2021-07-29_22h16.27.911,Simcolourproject_2stim_asymm_v5,2020.2.10,MacIntel,60,61025ae37ef11b136ea224fe,,,,,,,,,1879,75.2421875,-39.4296875,1,0,0,response3disk,,5,9.69140625,-3.3515625,1,0,0,rectangle,9.69140625,-3.3515625,1,0,0,,,,,,,9.69140625,-3.3515625,1,0,0,,0,156,156,93,1,
,,,,,,,,,,,,,FF,,,,,,,,1.3328,,,,,,,,,,,,,,,,,,,,,,61034f3b7331bbf477dd2dda,61036ebf7d4c69350054cb4f,2021-07-29_22h16.27.911,Simcolourproject_2stim_asymm_v5,2020.2.10,MacIntel,60,61025ae37ef11b136ea224fe,,,,,,,,,2750,83.1953125,41.5390625,1,0,0,response1disk,,6,12.88671875,-2.546875,1,0,0,rectangle,12.88671875,-2.546875,1,0,0,,,,,,,12.88671875,-2.546875,1,0,0,,0,157,157,7,1,
,,,,,,,,,,,,,FF,,,,,,,,1.1339,,,,,,,,,,,,,,,,,,,,,,61034f3b7331bbf477dd2dda,61036ebf7d4c69350054cb4f,2021-07-29_22h16.27.911,Simcolourproject_2stim_asymm_v5,2020.2.10,MacIntel,60,61025ae37ef11b136ea224fe,,,,,,,,,3171,87.078125,42.6640625,1,0,0,response1disk,,6,15.671875,-1.88671875,1,0,0,rectangle,15.671875,-1.88671875,1,0,0,,,,,,,15.671875,-1.88671875,1,0,0,,0,158,158,40,1,
,,,,,,,,,,,,,FF,,,,,,,,2.366,,,,,,,,,,,,,,,,,,,,,,61034f3b7331bbf477dd2dda,61036ebf7d4c69350054cb4f,2021-07-29_22h16.27.911,Simcolourproject_2stim_asymm_v5,2020.2.10,MacIntel,60,61025ae37ef11b136ea224fe,,,,,,,,,1611,-50.6328125,-100.4765625,1,0,0,response5disk,,3,4.18359375,0.10546875,1,0,0,rectangle,4.18359375,0.10546875,1,0,0,,,,,,,4.18359375,0.10546875,1,0,0,,0,159,159,109,1,
,,,,,,,,,,,,,FF,,,,,,,,3.1523,,,,,,,,,,,,,,,,,,,,,,61034f3b7331bbf477dd2dda,61036ebf7d4c69350054cb4f,2021-07-29_22h16.27.911,Simcolourproject_2stim_asymm_v5,2020.2.10,MacIntel,60,61025ae37ef11b136ea224fe,,,,,,,,,2222,92.03515625,-31.4921875,1,0,0,response3disk,,5,35.15625,-2.46484375,1,0,0,rectangle,35.15625,-2.46484375,1,0,0,,,,,,,35.15625,-2.46484375,1,0,0,,1,0,160,85,1,
,,,,,,,,,,,,,FF,,,,,,,,1.4309,,,,,,,,,,,,,,,,,,,,,,61034f3b7331bbf477dd2dda,61036ebf7d4c69350054cb4f,2021-07-29_22h16.27.911,Simcolourproject_2stim_asymm_v5,2020.2.10,MacIntel,60,61025ae37ef11b136ea224fe,,,,,,,,,3254,96.48046875,41.92578125,1,0,0,response1disk,,6,12.18359375,-6.23828125,1,0,0,rectangle,12.18359375,-6.23828125,1,0,0,,,,,,,12.18359375,-6.23828125,1,0,0,,1,1,161,98,1,
,,,,,,,,,,,,,FF,,,,,,,,1.8482,,,,,,,,,,,,,,,,,,,,,,61034f3b7331bbf477dd2dda,61036ebf7d4c69350054cb4f,2021-07-29_22h16.27.911,Simcolourproject_2stim_asymm_v5,2020.2.10,MacIntel,60,61025ae37ef11b136ea224fe,,,,,,,,,539,74.04296875,38.05859375,1,0,0,response1disk,,6,4.69140625,-6.57421875,1,0,0,rectangle,4.69140625,-6.57421875,1,0,0,,,,,,,4.69140625,-6.57421875,1,0,0,,1,2,162,144,1,
,,,,,,,,,,,,,FF,,,,,,,,1.2656,,,,,,,,,,,,,,,,,,,,,,61034f3b7331bbf477dd2dda,61036ebf7d4c69350054cb4f,2021-07-29_22h16.27.911,Simcolourproject_2stim_asymm_v5,2020.2.10,MacIntel,60,61025ae37ef11b136ea224fe,,,,,,,,,1809,83.3359375,46.078125,1,0,0,response1disk,,6,12.609375,0.66015625,1,0,0,rectangle,12.609375,0.66015625,1,0,0,,,,,,,12.609375,0.66015625,1,0,0,,1,3,163,57,1,
,,,,,,,,,,,,,FF,,,,,,,,3.1999,,,,,,,,,,,,,,,,,,,,,,61034f3b7331bbf477dd2dda,61036ebf7d4c69350054cb4f,2021-07-29_22h16.27.911,Simcolourproject_2stim_asymm_v5,2020.2.10,MacIntel,60,61025ae37ef11b136ea224fe,,,,,,,,,433,67.94921875,-39.9765625,1,0,0,response3disk,,5,10.33984375,5.33984375,1,0,0,rectangle,10.33984375,5.33984375,1,0,0,,,,,,,10.33984375,5.33984375,1,0,0,,1,4,164,92,1,
,,,,,,,,,,,,,FF,,,,,,,,1.1323,,,,,,,,,,,,,,,,,,,,,,61034f3b7331bbf477dd2dda,61036ebf7d4c69350054cb4f,2021-07-29_22h16.27.911,Simcolourproject_2stim_asymm_v5,2020.2.10,MacIntel,60,61025ae37ef11b136ea224fe,,,,,,,,,68,75.484375,37.84765625,1,0,0,response1disk,,6,18.00390625,9.69140625,1,0,0,rectangle,18.00390625,9.69140625,1,0,0,,,,,,,18.00390625,9.69140625,1,0,0,,1,5,165,50,1,
,,,,,,,,,,,,,FF,,,,,,,,2.583,,,,,,,,,,,,,,,,,,,,,,61034f3b7331bbf477dd2dda,61036ebf7d4c69350054cb4f,2021-07-29_22h16.27.911,Simcolourproject_2stim_asymm_v5,2020.2.10,MacIntel,60,61025ae37ef11b136ea224fe,,,,,,,,,527,38.33984375,-98.921875,1,0,0,response3disk,,4,3.625,-11.4375,1,0,0,rectangle,3.625,-11.4375,1,0,0,,,,,,,3.625,-11.4375,1,0,0,,1,6,166,145,1,
,,,,,,,,,,,,,FF,,,,,,,,1.3679,,,,,,,,,,,,,,,,,,,,,,61034f3b7331bbf477dd2dda,61036ebf7d4c69350054cb4f,2021-07-29_22h16.27.911,Simcolourproject_2stim_asymm_v5,2020.2.10,MacIntel,60,61025ae37ef11b136ea224fe,,,,,,,,,3226,87.9140625,40.23828125,1,0,0,response1disk,,6,-14.54296875,-2.359375,1,0,0,rectangle,-14.54296875,-2.359375,1,0,0,,,,,,,-14.54296875,-2.359375,1,0,0,,1,7,167,91,1,
,,,,,,,,,,,,,FF,,,,,,,,1.3651,,,,,,,,,,,,,,,,,,,,,,61034f3b7331bbf477dd2dda,61036ebf7d4c69350054cb4f,2021-07-29_22h16.27.911,Simcolourproject_2stim_asymm_v5,2020.2.10,MacIntel,60,61025ae37ef11b136ea224fe,,,,,,,,,3474,-49.1875,-88.46875,1,0,0,response5disk,,3,1.890625,0.65625,1,0,0,rectangle,1.890625,0.65625,1,0,0,,,,,,,1.890625,0.65625,1,0,0,,1,8,168,141,1,
,,,,,,,,,,,,,FF,,,,,,,,0.95,,,,,,,,,,,,,,,,,,,,,,61034f3b7331bbf477dd2dda,61036ebf7d4c69350054cb4f,2021-07-29_22h16.27.911,Simcolourproject_2stim_asymm_v5,2020.2.10,MacIntel,60,61025ae37ef11b136ea224fe,,,,,,,,,1199,76.51953125,36.8828125,1,0,0,response1disk,,6,25.6484375,1.4375,1,0,0,rectangle,25.6484375,1.4375,1,0,0,,,,,,,25.6484375,1.4375,1,0,0,,1,9,169,95,1,
,,,,,,,,,,,,,FF,,,,,,,,0.9508,,,,,,,,,,,,,,,,,,,,,,61034f3b7331bbf477dd2dda,61036ebf7d4c69350054cb4f,2021-07-29_22h16.27.911,Simcolourproject_2stim_asymm_v5,2020.2.10,MacIntel,60,61025ae37ef11b136ea224fe,,,,,,,,,375,75.26953125,36.953125,1,0,0,response1disk,,6,9.8828125,5.0625,1,0,0,rectangle,9.8828125,5.0625,1,0,0,,,,,,,9.8828125,5.0625,1,0,0,,1,10,170,23,1,
,,,,,,,,,,,,,FF,,,,,,,,1.7518,,,,,,,,,,,,,,,,,,,,,,61034f3b7331bbf477dd2dda,61036ebf7d4c69350054cb4f,2021-07-29_22h16.27.911,Simcolourproject_2stim_asymm_v5,2020.2.10,MacIntel,60,61025ae37ef11b136ea224fe,,,,,,,,,3811,-39.0234375,86.27734375,1,0,0,response7disk,,0,-11.78515625,-3.60546875,1,0,0,rectangle,-11.78515625,-3.60546875,1,0,0,,,,,,,-11.78515625,-3.60546875,1,0,0,,1,11,171,15,1,
,,,,,,,,,,,,,FF,,,,,,,,2.1706,,,,,,,,,,,,,,,,,,,,,,61034f3b7331bbf477dd2dda,61036ebf7d4c69350054cb4f,2021-07-29_22h16.27.911,Simcolourproject_2stim_asymm_v5,2020.2.10,MacIntel,60,61025ae37ef11b136ea224fe,,,,,,,,,1370,-86.0703125,38.765625,1,0,0,response7disk,,1,-15.5546875,-1.55859375,1,0,0,rectangle,-15.5546875,-1.55859375,1,0,0,,,,,,,-15.5546875,-1.55859375,1,0,0,,1,12,172,129,1,
,,,,,,,,,,,,,FF,,,,,,,,2.389,,,,,,,,,,,,,,,,,,,,,,61034f3b7331bbf477dd2dda,61036ebf7d4c69350054cb4f,2021-07-29_22h16.27.911,Simcolourproject_2stim_asymm_v5,2020.2.10,MacIntel,60,61025ae37ef11b136ea224fe,,,,,,,,,1808,87.70703125,-37.88671875,1,0,0,response3disk,,5,24.52734375,0.2421875,1,0,0,rectangle,24.52734375,0.2421875,1,0,0,,,,,,,24.52734375,0.2421875,1,0,0,,1,13,173,6,1,
,,,,,,,,,,,,,FF,,,,,,,,2.564,,,,,,,,,,,,,,,,,,,,,,61034f3b7331bbf477dd2dda,61036ebf7d4c69350054cb4f,2021-07-29_22h16.27.911,Simcolourproject_2stim_asymm_v5,2020.2.10,MacIntel,60,61025ae37ef11b136ea224fe,,,,,,,,,1603,-91.41015625,-53.69140625,1,0,0,response5disk,,2,-22.00390625,-3.84375,1,0,0,rectangle,-22.00390625,-3.84375,1,0,0,,,,,,,-22.00390625,-3.84375,1,0,0,,1,14,174,25,1,
,,,,,,,,,,,,,FF,,,,,,,,1.6633,,,,,,,,,,,,,,,,,,,,,,61034f3b7331bbf477dd2dda,61036ebf7d4c69350054cb4f,2021-07-29_22h16.27.911,Simcolourproject_2stim_asymm_v5,2020.2.10,MacIntel,60,61025ae37ef11b136ea224fe,,,,,,,,,269,92.671875,41.546875,1,0,0,response1disk,,6,17.76171875,1.85546875,1,0,0,rectangle,17.76171875,1.85546875,1,0,0,,,,,,,17.76171875,1.85546875,1,0,0,,1,15,175,152,1,
,,,,,,,,,,,,,FF,,,,,,,,1.5889,,,,,,,,,,,,,,,,,,,,,,61034f3b7331bbf477dd2dda,61036ebf7d4c69350054cb4f,2021-07-29_22h16.27.911,Simcolourproject_2stim_asymm_v5,2020.2.10,MacIntel,60,61025ae37ef11b136ea224fe,,,,,,,,,2742,100.0390625,40.41015625,1,0,0,response1disk,,6,4.72265625,-1.69140625,1,0,0,rectangle,-56.875,96.375,1,0,0,response7disk_3,TRUE,0,0,"[14,102,109,76,46,232,209,278,307,69,222,177,43,57,1,7,322,219,253,76]",2.7842,-9.37109375,4.05859375,1,0,0,rectangle,1,16,176,41,1,
,,,,,,,,,,,,,FF,,,,,,,,2.3867,,,,,,,,,,,,,,,,,,,,,,61034f3b7331bbf477dd2dda,61036ebf7d4c69350054cb4f,2021-07-29_22h16.27.911,Simcolourproject_2stim_asymm_v5,2020.2.10,MacIntel,60,61025ae37ef11b136ea224fe,,,,,,,,,1620,83.79296875,-44.94921875,1,0,0,response3disk,,5,18.14453125,-1.19140625,1,0,0,rectangle,18.14453125,-1.19140625,1,0,0,,,,,,,18.14453125,-1.19140625,1,0,0,,1,17,177,49,1,
,,,,,,,,,,,,,FF,,,,,,,,1.3003,,,,,,,,,,,,,,,,,,,,,,61034f3b7331bbf477dd2dda,61036ebf7d4c69350054cb4f,2021-07-29_22h16.27.911,Simcolourproject_2stim_asymm_v5,2020.2.10,MacIntel,60,61025ae37ef11b136ea224fe,,,,,,,,,4302,69.00390625,29.3984375,1,0,0,response1disk,,6,2.34375,-7.3984375,1,0,0,rectangle,2.34375,-7.3984375,1,0,0,,,,,,,2.34375,-7.3984375,1,0,0,,1,18,178,147,1,
,,,,,,,,,,,,,FF,,,,,,,,1.9834,,,,,,,,,,,,,,,,,,,,,,61034f3b7331bbf477dd2dda,61036ebf7d4c69350054cb4f,2021-07-29_22h16.27.911,Simcolourproject_2stim_asymm_v5,2020.2.10,MacIntel,60,61025ae37ef11b136ea224fe,,,,,,,,,904,98.47265625,-47.35546875,1,0,0,response3disk,,5,10.84765625,6.56640625,1,0,0,rectangle,10.84765625,6.56640625,1,0,0,,,,,,,10.84765625,6.56640625,1,0,0,,1,19,179,20,1,
,,,,,,,,,,,,,FF,,,,,,,,1.4512,,,,,,,,,,,,,,,,,,,,,,61034f3b7331bbf477dd2dda,61036ebf7d4c69350054cb4f,2021-07-29_22h16.27.911,Simcolourproject_2stim_asymm_v5,2020.2.10,MacIntel,60,61025ae37ef11b136ea224fe,,,,,,,,,3563,78.9140625,28.7890625,1,0,0,response1disk,,6,4.390625,-5.03125,1,0,0,rectangle,4.390625,-5.03125,1,0,0,,,,,,,4.390625,-5.03125,1,0,0,,1,20,180,97,1,
,,,,,,,,,,,,,FF,,,,,,,,1.1517,,,,,,,,,,,,,,,,,,,,,,61034f3b7331bbf477dd2dda,61036ebf7d4c69350054cb4f,2021-07-29_22h16.27.911,Simcolourproject_2stim_asymm_v5,2020.2.10,MacIntel,60,61025ae37ef11b136ea224fe,,,,,,,,,50,74.45703125,35.80859375,1,0,0,response1disk,,6,1.54296875,-2.2734375,1,0,0,rectangle,1.54296875,-2.2734375,1,0,0,,,,,,,1.54296875,-2.2734375,1,0,0,,1,21,181,102,1,
,,,,,,,,,,,,,FF,,,,,,,,8.85,,,,,,,,,,,,,,,,,,,,,,61034f3b7331bbf477dd2dda,61036ebf7d4c69350054cb4f,2021-07-29_22h16.27.911,Simcolourproject_2stim_asymm_v5,2020.2.10,MacIntel,60,61025ae37ef11b136ea224fe,,,,,,,,,1591,38.95703125,84.61328125,1,0,0,response1disk,,7,2.03515625,-1.59765625,1,0,0,rectangle,2.03515625,-1.59765625,1,0,0,,,,,,,2.03515625,-1.59765625,1,0,0,,1,22,182,105,1,
,,,,,,,,,,,,,FF,,,,,,,,2.9832,,,,,,,,,,,,,,,,,,,,,,61034f3b7331bbf477dd2dda,61036ebf7d4c69350054cb4f,2021-07-29_22h16.27.911,Simcolourproject_2stim_asymm_v5,2020.2.10,MacIntel,60,61025ae37ef11b136ea224fe,,,,,,,,,862,51.6328125,-86.55078125,1,0,0,response3disk,,4,9.7578125,1.14453125,1,0,0,rectangle,9.7578125,1.14453125,1,0,0,,,,,,,9.7578125,1.14453125,1,0,0,,1,23,183,139,1,
,,,,,,,,,,,,,FF,,,,,,,,1.0165,,,,,,,,,,,,,,,,,,,,,,61034f3b7331bbf477dd2dda,61036ebf7d4c69350054cb4f,2021-07-29_22h16.27.911,Simcolourproject_2stim_asymm_v5,2020.2.10,MacIntel,60,61025ae37ef11b136ea224fe,,,,,,,,,1029,53.48828125,-76.12890625,1,0,0,response3disk,,4,9.26953125,-0.9765625,1,0,0,rectangle,9.26953125,-0.9765625,1,0,0,,,,,,,9.26953125,-0.9765625,1,0,0,,1,24,184,72,1,
,,,,,,,,,,,,,FF,,,,,,,,2.9542,,,,,,,,,,,,,,,,,,,,,,61034f3b7331bbf477dd2dda,61036ebf7d4c69350054cb4f,2021-07-29_22h16.27.911,Simcolourproject_2stim_asymm_v5,2020.2.10,MacIntel,60,61025ae37ef11b136ea224fe,,,,,,,,,2395,77.109375,-41.0859375,1,0,0,response3disk,,5,7.06640625,1.03125,1,0,0,rectangle,7.06640625,1.03125,1,0,0,,,,,,,7.06640625,1.03125,1,0,0,,1,25,185,28,1,
,,,,,,,,,,,,,FF,,,,,,,,7.9511,,,,,,,,,,,,,,,,,,,,,,61034f3b7331bbf477dd2dda,61036ebf7d4c69350054cb4f,2021-07-29_22h16.27.911,Simcolourproject_2stim_asymm_v5,2020.2.10,MacIntel,60,61025ae37ef11b136ea224fe,,,,,,,,,625,-43.5625,86.69140625,1,0,0,response7disk,,0,-13.87890625,-2.578125,1,0,0,rectangle,-13.87890625,-2.578125,1,0,0,,,,,,,-13.87890625,-2.578125,1,0,0,,1,26,186,140,1,
,,,,,,,,,,,,,FF,,,,,,,,1.2146,,,,,,,,,,,,,,,,,,,,,,61034f3b7331bbf477dd2dda,61036ebf7d4c69350054cb4f,2021-07-29_22h16.27.911,Simcolourproject_2stim_asymm_v5,2020.2.10,MacIntel,60,61025ae37ef11b136ea224fe,,,,,,,,,2897,-35.76171875,-83.0546875,1,0,0,response5disk,,3,1.19140625,11.47265625,1,0,0,rectangle,1.19140625,11.47265625,1,0,0,,,,,,,1.19140625,11.47265625,1,0,0,,1,27,187,45,1,
,,,,,,,,,,,,,FF,,,,,,,,1.2839,,,,,,,,,,,,,,,,,,,,,,61034f3b7331bbf477dd2dda,61036ebf7d4c69350054cb4f,2021-07-29_22h16.27.911,Simcolourproject_2stim_asymm_v5,2020.2.10,MacIntel,60,61025ae37ef11b136ea224fe,,,,,,,,,2265,93.48828125,49.0859375,1,0,0,response1disk,,6,18.21875,-0.06640625,1,0,0,rectangle,18.21875,-0.06640625,1,0,0,,,,,,,18.21875,-0.06640625,1,0,0,,1,28,188,150,1,
,,,,,,,,,,,,,FF,,,,,,,,1.0633,,,,,,,,,,,,,,,,,,,,,,61034f3b7331bbf477dd2dda,61036ebf7d4c69350054cb4f,2021-07-29_22h16.27.911,Simcolourproject_2stim_asymm_v5,2020.2.10,MacIntel,60,61025ae37ef11b136ea224fe,,,,,,,,,2401,74.171875,39.74609375,1,0,0,response1disk,,6,8.0703125,2.890625,1,0,0,rectangle,8.0703125,2.890625,1,0,0,,,,,,,8.0703125,2.890625,1,0,0,,1,29,189,79,1,
,,,,,,,,,,,,,FF,,,,,,,,1.2655,,,,,,,,,,,,,,,,,,,,,,61034f3b7331bbf477dd2dda,61036ebf7d4c69350054cb4f,2021-07-29_22h16.27.911,Simcolourproject_2stim_asymm_v5,2020.2.10,MacIntel,60,61025ae37ef11b136ea224fe,,,,,,,,,1294,-42.9140625,-115.0898438,1,0,0,response5disk,,3,1.5390625,5.4453125,1,0,0,rectangle,1.5390625,5.4453125,1,0,0,,,,,,,1.5390625,5.4453125,1,0,0,,1,30,190,149,1,
,,,,,,,,,,,,,FF,,,,,,,,1.7334,,,,,,,,,,,,,,,,,,,,,,61034f3b7331bbf477dd2dda,61036ebf7d4c69350054cb4f,2021-07-29_22h16.27.911,Simcolourproject_2stim_asymm_v5,2020.2.10,MacIntel,60,61025ae37ef11b136ea224fe,,,,,,,,,3678,55.77734375,-85.921875,1,0,0,response3disk,,4,14.8515625,-1.50390625,1,0,0,rectangle,14.8515625,-1.50390625,1,0,0,,,,,,,14.8515625,-1.50390625,1,0,0,,1,31,191,89,1,
,,,,,,,,,,,,,FF,,,,,,,,1.3297,,,,,,,,,,,,,,,,,,,,,,61034f3b7331bbf477dd2dda,61036ebf7d4c69350054cb4f,2021-07-29_22h16.27.911,Simcolourproject_2stim_asymm_v5,2020.2.10,MacIntel,60,61025ae37ef11b136ea224fe,,,,,,,,,1818,-83.765625,-38.78125,1,0,0,response5disk,,2,2.72265625,-0.58203125,1,0,0,rectangle,2.72265625,-0.58203125,1,0,0,,,,,,,2.72265625,-0.58203125,1,0,0,,1,32,192,48,1,
,,,,,,,,,,,,,FF,,,,,,,,0.9802,,,,,,,,,,,,,,,,,,,,,,61034f3b7331bbf477dd2dda,61036ebf7d4c69350054cb4f,2021-07-29_22h16.27.911,Simcolourproject_2stim_asymm_v5,2020.2.10,MacIntel,60,61025ae37ef11b136ea224fe,,,,,,,,,4210,70.69140625,46.6640625,1,0,0,response1disk,,6,13.53125,13.3125,1,0,0,rectangle,13.53125,13.3125,1,0,0,,,,,,,13.53125,13.3125,1,0,0,,1,33,193,26,1,
,,,,,,,,,,,,,FF,,,,,,,,1.0483,,,,,,,,,,,,,,,,,,,,,,61034f3b7331bbf477dd2dda,61036ebf7d4c69350054cb4f,2021-07-29_22h16.27.911,Simcolourproject_2stim_asymm_v5,2020.2.10,MacIntel,60,61025ae37ef11b136ea224fe,,,,,,,,,4061,89.04296875,49.52734375,1,0,0,response1disk,,6,4.1328125,-4.08984375,1,0,0,rectangle,4.1328125,-4.08984375,1,0,0,,,,,,,4.1328125,-4.08984375,1,0,0,,1,34,194,75,1,
,,,,,,,,,,,,,FF,,,,,,,,1.149,,,,,,,,,,,,,,,,,,,,,,61034f3b7331bbf477dd2dda,61036ebf7d4c69350054cb4f,2021-07-29_22h16.27.911,Simcolourproject_2stim_asymm_v5,2020.2.10,MacIntel,60,61025ae37ef11b136ea224fe,,,,,,,,,153,78.75390625,34.5859375,1,0,0,response1disk,,6,5.8125,-0.421875,1,0,0,rectangle,5.8125,-0.421875,1,0,0,,,,,,,5.8125,-0.421875,1,0,0,,1,35,195,104,1,
,,,,,,,,,,,,,FF,,,,,,,,1.0006,,,,,,,,,,,,,,,,,,,,,,61034f3b7331bbf477dd2dda,61036ebf7d4c69350054cb4f,2021-07-29_22h16.27.911,Simcolourproject_2stim_asymm_v5,2020.2.10,MacIntel,60,61025ae37ef11b136ea224fe,,,,,,,,,446,71.9921875,42.765625,1,0,0,response1disk,,6,7.43359375,3.71875,1,0,0,rectangle,7.43359375,3.71875,1,0,0,,,,,,,7.43359375,3.71875,1,0,0,,1,36,196,82,1,
,,,,,,,,,,,,,FF,,,,,,,,1.3801,,,,,,,,,,,,,,,,,,,,,,61034f3b7331bbf477dd2dda,61036ebf7d4c69350054cb4f,2021-07-29_22h16.27.911,Simcolourproject_2stim_asymm_v5,2020.2.10,MacIntel,60,61025ae37ef11b136ea224fe,,,,,,,,,3445,77.484375,37.11328125,1,0,0,response1disk,,6,22.328125,6.453125,1,0,0,rectangle,22.328125,6.453125,1,0,0,,,,,,,22.328125,6.453125,1,0,0,,1,37,197,146,1,
,,,,,,,,,,,,,FF,,,,,,,,2.1503,,,,,,,,,,,,,,,,,,,,,,61034f3b7331bbf477dd2dda,61036ebf7d4c69350054cb4f,2021-07-29_22h16.27.911,Simcolourproject_2stim_asymm_v5,2020.2.10,MacIntel,60,61025ae37ef11b136ea224fe,,,,,,,,,3717,67.953125,33.6484375,1,0,0,response1disk,,6,17.0234375,0.62109375,1,0,0,rectangle,17.0234375,0.62109375,1,0,0,,,,,,,17.0234375,0.62109375,1,0,0,,1,38,198,80,1,
,,,,,,,,,,,,,FF,,,,,,,,1.3324,,,,,,,,,,,,,,,,,,,,,,61034f3b7331bbf477dd2dda,61036ebf7d4c69350054cb4f,2021-07-29_22h16.27.911,Simcolourproject_2stim_asymm_v5,2020.2.10,MacIntel,60,61025ae37ef11b136ea224fe,,,,,,,,,4317,79,45.16796875,1,0,0,response1disk,,6,13.81640625,1.65625,1,0,0,rectangle,13.81640625,1.65625,1,0,0,,,,,,,13.81640625,1.65625,1,0,0,,1,39,199,156,1,
,,,,,,,,,,,,,FF,,,,,,,,2.5361,,,,,,,,,,,,,,,,,,,,,,61034f3b7331bbf477dd2dda,61036ebf7d4c69350054cb4f,2021-07-29_22h16.27.911,Simcolourproject_2stim_asymm_v5,2020.2.10,MacIntel,60,61025ae37ef11b136ea224fe,,,,,,,,,1984,63.66796875,35.2109375,1,0,0,response1disk,,6,12.6171875,0.8046875,1,0,0,rectangle,12.6171875,0.8046875,1,0,0,,,,,,,12.6171875,0.8046875,1,0,0,,1,40,200,8,1,
,,,,,,,,,,,,,FF,,,,,,,,2.719,,,,,,,,,,,,,,,,,,,,,,61034f3b7331bbf477dd2dda,61036ebf7d4c69350054cb4f,2021-07-29_22h16.27.911,Simcolourproject_2stim_asymm_v5,2020.2.10,MacIntel,60,61025ae37ef11b136ea224fe,,,,,,,,,2384,59.64453125,31.1171875,1,0,0,response1disk,,6,20.03125,8.3125,1,0,0,rectangle,20.03125,8.3125,1,0,0,,,,,,,20.03125,8.3125,1,0,0,,1,41,201,116,1,
,,,,,,,,,,,,,FF,,,,,,,,1.5322,,,,,,,,,,,,,,,,,,,,,,61034f3b7331bbf477dd2dda,61036ebf7d4c69350054cb4f,2021-07-29_22h16.27.911,Simcolourproject_2stim_asymm_v5,2020.2.10,MacIntel,60,61025ae37ef11b136ea224fe,,,,,,,,,3443,83.79296875,45.32421875,1,0,0,response1disk,,6,16.66015625,5.203125,1,0,0,rectangle,16.66015625,5.203125,1,0,0,,,,,,,16.66015625,5.203125,1,0,0,,1,42,202,125,1,
,,,,,,,,,,,,,FF,,,,,,,,1.6019,,,,,,,,,,,,,,,,,,,,,,61034f3b7331bbf477dd2dda,61036ebf7d4c69350054cb4f,2021-07-29_22h16.27.911,Simcolourproject_2stim_asymm_v5,2020.2.10,MacIntel,60,61025ae37ef11b136ea224fe,,,,,,,,,3246,43.27734375,-76.16796875,1,0,0,response3disk,,4,34.21875,0.92578125,1,0,0,rectangle,34.21875,0.92578125,1,0,0,,,,,,,34.21875,0.92578125,1,0,0,,1,43,203,110,1,
,,,,,,,,,,,,,FF,,,,,,,,1.2499,,,,,,,,,,,,,,,,,,,,,,61034f3b7331bbf477dd2dda,61036ebf7d4c69350054cb4f,2021-07-29_22h16.27.911,Simcolourproject_2stim_asymm_v5,2020.2.10,MacIntel,60,61025ae37ef11b136ea224fe,,,,,,,,,3883,67.01171875,39.703125,1,0,0,response1disk,,6,15.65234375,-1.71484375,1,0,0,rectangle,15.65234375,-1.71484375,1,0,0,,,,,,,15.65234375,-1.71484375,1,0,0,,1,44,204,130,1,
,,,,,,,,,,,,,FF,,,,,,,,3.7998,,,,,,,,,,,,,,,,,,,,,,61034f3b7331bbf477dd2dda,61036ebf7d4c69350054cb4f,2021-07-29_22h16.27.911,Simcolourproject_2stim_asymm_v5,2020.2.10,MacIntel,60,61025ae37ef11b136ea224fe,,,,,,,,,640,97.89453125,-43.359375,1,0,0,response3disk,,5,20.23046875,-6.39453125,1,0,0,rectangle,20.23046875,-6.39453125,1,0,0,,,,,,,20.23046875,-6.39453125,1,0,0,,1,45,205,3,1,
,,,,,,,,,,,,,FF,,,,,,,,1.0499,,,,,,,,,,,,,,,,,,,,,,61034f3b7331bbf477dd2dda,61036ebf7d4c69350054cb4f,2021-07-29_22h16.27.911,Simcolourproject_2stim_asymm_v5,2020.2.10,MacIntel,60,61025ae37ef11b136ea224fe,,,,,,,,,119,85.41796875,40.31640625,1,0,0,response1disk,,6,21.8046875,1.28125,1,0,0,rectangle,21.8046875,1.28125,1,0,0,,,,,,,21.8046875,1.28125,1,0,0,,1,46,206,30,1,
,,,,,,,,,,,,,FF,,,,,,,,1.266,,,,,,,,,,,,,,,,,,,,,,61034f3b7331bbf477dd2dda,61036ebf7d4c69350054cb4f,2021-07-29_22h16.27.911,Simcolourproject_2stim_asymm_v5,2020.2.10,MacIntel,60,61025ae37ef11b136ea224fe,,,,,,,,,3308,83.39453125,52.2734375,1,0,0,response1disk,,6,24.9765625,13.1640625,1,0,0,rectangle,24.9765625,13.1640625,1,0,0,,,,,,,24.9765625,13.1640625,1,0,0,,1,47,207,65,1,
,,,,,,,,,,,,,FF,,,,,,,,2.7682,,,,,,,,,,,,,,,,,,,,,,61034f3b7331bbf477dd2dda,61036ebf7d4c69350054cb4f,2021-07-29_22h16.27.911,Simcolourproject_2stim_asymm_v5,2020.2.10,MacIntel,60,61025ae37ef11b136ea224fe,,,,,,,,,3131,94.421875,41.84375,1,0,0,response1disk,,6,7.80859375,0,1,0,0,rectangle,90.265625,-40.98046875,1,0,0,response3disk_3,TRUE,5,5,"[14,102,109,76,46,232,209,278,307,69,222,177,43,57,1,7,322,219,253,76]",2.484,14.5078125,0.1015625,1,0,0,rectangle,1,48,208,63,1,
,,,,,,,,,,,,,FF,,,,,,,,2.5013,,,,,,,,,,,,,,,,,,,,,,61034f3b7331bbf477dd2dda,61036ebf7d4c69350054cb4f,2021-07-29_22h16.27.911,Simcolourproject_2stim_asymm_v5,2020.2.10,MacIntel,60,61025ae37ef11b136ea224fe,,,,,,,,,613,43.3515625,-76.46875,1,0,0,response3disk,,4,6.51171875,8.85546875,1,0,0,rectangle,6.51171875,8.85546875,1,0,0,,,,,,,6.51171875,8.85546875,1,0,0,,1,49,209,68,1,
,,,,,,,,,,,,,FF,,,,,,,,1.3337,,,,,,,,,,,,,,,,,,,,,,61034f3b7331bbf477dd2dda,61036ebf7d4c69350054cb4f,2021-07-29_22h16.27.911,Simcolourproject_2stim_asymm_v5,2020.2.10,MacIntel,60,61025ae37ef11b136ea224fe,,,,,,,,,1816,-76.29296875,48.328125,1,0,0,response7disk,,1,1.8984375,6.58984375,1,0,0,rectangle,1.8984375,6.58984375,1,0,0,,,,,,,1.8984375,6.58984375,1,0,0,,1,50,210,73,1,
,,,,,,,,,,,,,FF,,,,,,,,1.267,,,,,,,,,,,,,,,,,,,,,,61034f3b7331bbf477dd2dda,61036ebf7d4c69350054cb4f,2021-07-29_22h16.27.911,Simcolourproject_2stim_asymm_v5,2020.2.10,MacIntel,60,61025ae37ef11b136ea224fe,,,,,,,,,2637,71.2421875,27.09765625,1,0,0,response1disk,,6,23.15625,-2.19921875,1,0,0,rectangle,23.15625,-2.19921875,1,0,0,,,,,,,23.15625,-2.19921875,1,0,0,,1,51,211,126,1,
,,,,,,,,,,,,,FF,,,,,,,,1.2342,,,,,,,,,,,,,,,,,,,,,,61034f3b7331bbf477dd2dda,61036ebf7d4c69350054cb4f,2021-07-29_22h16.27.911,Simcolourproject_2stim_asymm_v5,2020.2.10,MacIntel,60,61025ae37ef11b136ea224fe,,,,,,,,,3472,-31.96484375,-85.18359375,1,0,0,response5disk,,3,5.72265625,-1.45703125,1,0,0,rectangle,5.72265625,-1.45703125,1,0,0,,,,,,,5.72265625,-1.45703125,1,0,0,,1,52,212,106,1,
,,,,,,,,,,,,,FF,,,,,,,,1.749,,,,,,,,,,,,,,,,,,,,,,61034f3b7331bbf477dd2dda,61036ebf7d4c69350054cb4f,2021-07-29_22h16.27.911,Simcolourproject_2stim_asymm_v5,2020.2.10,MacIntel,60,61025ae37ef11b136ea224fe,,,,,,,,,2376,55.84375,-73.265625,1,0,0,response3disk,,4,5.4453125,4.85546875,1,0,0,rectangle,5.4453125,4.85546875,1,0,0,,,,,,,5.4453125,4.85546875,1,0,0,,1,53,213,29,1,
,,,,,,,,,,,,,FF,,,,,,,,1.1318,,,,,,,,,,,,,,,,,,,,,,61034f3b7331bbf477dd2dda,61036ebf7d4c69350054cb4f,2021-07-29_22h16.27.911,Simcolourproject_2stim_asymm_v5,2020.2.10,MacIntel,60,61025ae37ef11b136ea224fe,,,,,,,,,3355,75.984375,34.49609375,1,0,0,response1disk,,6,5.16796875,-5.6015625,1,0,0,rectangle,5.16796875,-5.6015625,1,0,0,,,,,,,5.16796875,-5.6015625,1,0,0,,1,54,214,131,1,
,,,,,,,,,,,,,FF,,,,,,,,1.1002,,,,,,,,,,,,,,,,,,,,,,61034f3b7331bbf477dd2dda,61036ebf7d4c69350054cb4f,2021-07-29_22h16.27.911,Simcolourproject_2stim_asymm_v5,2020.2.10,MacIntel,60,61025ae37ef11b136ea224fe,,,,,,,,,3444,86.9375,46.8515625,1,0,0,response1disk,,6,8.87890625,4.84765625,1,0,0,rectangle,8.87890625,4.84765625,1,0,0,,,,,,,8.87890625,4.84765625,1,0,0,,1,55,215,53,1,
,,,,,,,,,,,,,FF,,,,,,,,2.2685,,,,,,,,,,,,,,,,,,,,,,61034f3b7331bbf477dd2dda,61036ebf7d4c69350054cb4f,2021-07-29_22h16.27.911,Simcolourproject_2stim_asymm_v5,2020.2.10,MacIntel,60,61025ae37ef11b136ea224fe,,,,,,,,,2685,53.01953125,32.765625,1,0,0,response1disk,,6,10.83203125,0.48046875,1,0,0,rectangle,10.83203125,0.48046875,1,0,0,,,,,,,10.83203125,0.48046875,1,0,0,,1,56,216,54,1,
,,,,,,,,,,,,,FF,,,,,,,,1.2673,,,,,,,,,,,,,,,,,,,,,,61034f3b7331bbf477dd2dda,61036ebf7d4c69350054cb4f,2021-07-29_22h16.27.911,Simcolourproject_2stim_asymm_v5,2020.2.10,MacIntel,60,61025ae37ef11b136ea224fe,,,,,,,,,19,73.671875,37.734375,1,0,0,response1disk,,6,10.63671875,-2.22265625,1,0,0,rectangle,10.63671875,-2.22265625,1,0,0,,,,,,,10.63671875,-2.22265625,1,0,0,,1,57,217,138,1,
,,,,,,,,,,,,,FF,,,,,,,,1.1679,,,,,,,,,,,,,,,,,,,,,,61034f3b7331bbf477dd2dda,61036ebf7d4c69350054cb4f,2021-07-29_22h16.27.911,Simcolourproject_2stim_asymm_v5,2020.2.10,MacIntel,60,61025ae37ef11b136ea224fe,,,,,,,,,3510,-45.3359375,92.078125,1,0,0,response7disk,,0,15.109375,-9.46875,1,0,0,rectangle,-77.9921875,39.03125,1,0,0,response7disk_3,TRUE,1,1,"[14,102,109,76,46,232,209,278,307,69,222,177,43,57,1,7,322,219,253,76]",2.0332,9.09375,-3.11328125,1,0,0,rectangle,1,58,218,121,1,
,,,,,,,,,,,,,FF,,,,,,,,1.3338,,,,,,,,,,,,,,,,,,,,,,61034f3b7331bbf477dd2dda,61036ebf7d4c69350054cb4f,2021-07-29_22h16.27.911,Simcolourproject_2stim_asymm_v5,2020.2.10,MacIntel,60,61025ae37ef11b136ea224fe,,,,,,,,,20,102.09375,46.71875,1,0,0,response1disk,,6,5.8125,-13.6875,1,0,0,rectangle,5.8125,-13.6875,1,0,0,,,,,,,5.8125,-13.6875,1,0,0,,1,59,219,148,1,
,,,,,,,,,,,,,FF,,,,,,,,1.7513,,,,,,,,,,,,,,,,,,,,,,61034f3b7331bbf477dd2dda,61036ebf7d4c69350054cb4f,2021-07-29_22h16.27.911,Simcolourproject_2stim_asymm_v5,2020.2.10,MacIntel,60,61025ae37ef11b136ea224fe,,,,,,,,,3762,47.546875,99.5234375,1,0,0,response1disk,,7,14.5,-5.3515625,1,0,0,rectangle,14.5,-5.3515625,1,0,0,,,,,,,14.5,-5.3515625,1,0,0,,1,60,220,58,1,
,,,,,,,,,,,,,FF,,,,,,,,1.3293,,,,,,,,,,,,,,,,,,,,,,61034f3b7331bbf477dd2dda,61036ebf7d4c69350054cb4f,2021-07-29_22h16.27.911,Simcolourproject_2stim_asymm_v5,2020.2.10,MacIntel,60,61025ae37ef11b136ea224fe,,,,,,,,,2836,-87.01953125,-44.67578125,1,0,0,response5disk,,2,-9.46484375,-2.6171875,1,0,0,rectangle,-42.09375,-81.1328125,1,0,0,response5disk_3,TRUE,3,3,"[14,102,109,76,46,232,209,278,307,69,222,177,43,57,1,7,322,219,253,76]",4.6171,-10.5703125,-6.29296875,1,0,0,rectangle,1,61,221,133,1,
,,,,,,,,,,,,,FF,,,,,,,,2.1335,,,,,,,,,,,,,,,,,,,,,,61034f3b7331bbf477dd2dda,61036ebf7d4c69350054cb4f,2021-07-29_22h16.27.911,Simcolourproject_2stim_asymm_v5,2020.2.10,MacIntel,60,61025ae37ef11b136ea224fe,,,,,,,,,576,89.71875,-58.828125,1,0,0,response3disk,,5,17.77734375,-5.9765625,1,0,0,rectangle,17.77734375,-5.9765625,1,0,0,,,,,,,17.77734375,-5.9765625,1,0,0,,1,62,222,159,1,
,,,,,,,,,,,,,FF,,,,,,,,1.0678,,,,,,,,,,,,,,,,,,,,,,61034f3b7331bbf477dd2dda,61036ebf7d4c69350054cb4f,2021-07-29_22h16.27.911,Simcolourproject_2stim_asymm_v5,2020.2.10,MacIntel,60,61025ae37ef11b136ea224fe,,,,,,,,,3306,118.1328125,56.265625,1,0,0,response1disk,,6,23.1484375,4.3828125,1,0,0,rectangle,23.1484375,4.3828125,1,0,0,,,,,,,23.1484375,4.3828125,1,0,0,,1,63,223,32,1,
,,,,,,,,,,,,,FF,,,,,,,,1.0826,,,,,,,,,,,,,,,,,,,,,,61034f3b7331bbf477dd2dda,61036ebf7d4c69350054cb4f,2021-07-29_22h16.27.911,Simcolourproject_2stim_asymm_v5,2020.2.10,MacIntel,60,61025ae37ef11b136ea224fe,,,,,,,,,2972,79.86328125,38.59765625,1,0,0,response1disk,,6,12.29296875,1.15234375,1,0,0,rectangle,12.29296875,1.15234375,1,0,0,,,,,,,12.29296875,1.15234375,1,0,0,,1,64,224,0,1,
,,,,,,,,,,,,,FF,,,,,,,,1.032,,,,,,,,,,,,,,,,,,,,,,61034f3b7331bbf477dd2dda,61036ebf7d4c69350054cb4f,2021-07-29_22h16.27.911,Simcolourproject_2stim_asymm_v5,2020.2.10,MacIntel,60,61025ae37ef11b136ea224fe,,,,,,,,,1106,91.953125,40.88671875,1,0,0,response1disk,,6,6.171875,-3.546875,1,0,0,rectangle,6.171875,-3.546875,1,0,0,,,,,,,6.171875,-3.546875,1,0,0,,1,65,225,96,1,
,,,,,,,,,,,,,FF,,,,,,,,1.2004,,,,,,,,,,,,,,,,,,,,,,61034f3b7331bbf477dd2dda,61036ebf7d4c69350054cb4f,2021-07-29_22h16.27.911,Simcolourproject_2stim_asymm_v5,2020.2.10,MacIntel,60,61025ae37ef11b136ea224fe,,,,,,,,,4097,-51.57421875,-75.33203125,1,0,0,response5disk,,3,-14.31640625,-14.81640625,1,0,0,rectangle,-14.31640625,-14.81640625,1,0,0,,,,,,,-14.31640625,-14.81640625,1,0,0,,1,66,226,24,1,
,,,,,,,,,,,,,FF,,,,,,,,2.9654,,,,,,,,,,,,,,,,,,,,,,61034f3b7331bbf477dd2dda,61036ebf7d4c69350054cb4f,2021-07-29_22h16.27.911,Simcolourproject_2stim_asymm_v5,2020.2.10,MacIntel,60,61025ae37ef11b136ea224fe,,,,,,,,,966,41.4453125,88.17578125,1,0,0,response1disk,,7,-0.94921875,7.2109375,1,0,0,rectangle,-0.94921875,7.2109375,1,0,0,,,,,,,-0.94921875,7.2109375,1,0,0,,1,67,227,90,1,
,,,,,,,,,,,,,FF,,,,,,,,1.0502,,,,,,,,,,,,,,,,,,,,,,61034f3b7331bbf477dd2dda,61036ebf7d4c69350054cb4f,2021-07-29_22h16.27.911,Simcolourproject_2stim_asymm_v5,2020.2.10,MacIntel,60,61025ae37ef11b136ea224fe,,,,,,,,,2991,53.859375,97.921875,1,0,0,response1disk,,7,14.23828125,0.55078125,1,0,0,rectangle,14.23828125,0.55078125,1,0,0,,,,,,,14.23828125,0.55078125,1,0,0,,1,68,228,86,1,
,,,,,,,,,,,,,FF,,,,,,,,2.9663,,,,,,,,,,,,,,,,,,,,,,61034f3b7331bbf477dd2dda,61036ebf7d4c69350054cb4f,2021-07-29_22h16.27.911,Simcolourproject_2stim_asymm_v5,2020.2.10,MacIntel,60,61025ae37ef11b136ea224fe,,,,,,,,,4188,-31.8125,-103.703125,1,0,0,response5disk,,3,3.3046875,-6.8125,1,0,0,rectangle,3.3046875,-6.8125,1,0,0,,,,,,,3.3046875,-6.8125,1,0,0,,1,69,229,19,1,
,,,,,,,,,,,,,FF,,,,,,,,3.0177,,,,,,,,,,,,,,,,,,,,,,61034f3b7331bbf477dd2dda,61036ebf7d4c69350054cb4f,2021-07-29_22h16.27.911,Simcolourproject_2stim_asymm_v5,2020.2.10,MacIntel,60,61025ae37ef11b136ea224fe,,,,,,,,,2432,88.8828125,-38.62890625,1,0,0,response3disk,,5,25.61328125,5.14453125,1,0,0,rectangle,25.61328125,5.14453125,1,0,0,,,,,,,25.61328125,5.14453125,1,0,0,,1,70,230,94,1,
,,,,,,,,,,,,,FF,,,,,,,,3.9365,,,,,,,,,,,,,,,,,,,,,,61034f3b7331bbf477dd2dda,61036ebf7d4c69350054cb4f,2021-07-29_22h16.27.911,Simcolourproject_2stim_asymm_v5,2020.2.10,MacIntel,60,61025ae37ef11b136ea224fe,,,,,,,,,3586,43.8203125,77.8984375,1,0,0,response1disk,,7,4.390625,-3.2578125,1,0,0,rectangle,36.88671875,-102.0859375,1,0,0,response3disk_3,TRUE,4,4,"[14,102,109,76,46,232,209,278,307,69,222,177,43,57,1,7,322,219,253,76]",2.3852,0.484375,0.40625,1,0,0,rectangle,1,71,231,9,1,
,,,,,,,,,,,,,FF,,,,,,,,1.5302,,,,,,,,,,,,,,,,,,,,,,61034f3b7331bbf477dd2dda,61036ebf7d4c69350054cb4f,2021-07-29_22h16.27.911,Simcolourproject_2stim_asymm_v5,2020.2.10,MacIntel,60,61025ae37ef11b136ea224fe,,,,,,,,,1589,69.3046875,33.58984375,1,0,0,response1disk,,6,10.51171875,-2.95703125,1,0,0,rectangle,10.51171875,-2.95703125,1,0,0,,,,,,,10.51171875,-2.95703125,1,0,0,,1,72,232,84,1,
,,,,,,,,,,,,,FF,,,,,,,,1.2701,,,,,,,,,,,,,,,,,,,,,,61034f3b7331bbf477dd2dda,61036ebf7d4c69350054cb4f,2021-07-29_22h16.27.911,Simcolourproject_2stim_asymm_v5,2020.2.10,MacIntel,60,61025ae37ef11b136ea224fe,,,,,,,,,3047,-81.55859375,25.52734375,1,0,0,response7disk,,1,2.09765625,-5.5,1,0,0,rectangle,2.09765625,-5.5,1,0,0,,,,,,,2.09765625,-5.5,1,0,0,,1,73,233,127,1,
,,,,,,,,,,,,,FF,,,,,,,,2.0312,,,,,,,,,,,,,,,,,,,,,,61034f3b7331bbf477dd2dda,61036ebf7d4c69350054cb4f,2021-07-29_22h16.27.911,Simcolourproject_2stim_asymm_v5,2020.2.10,MacIntel,60,61025ae37ef11b136ea224fe,,,,,,,,,29,91.60546875,32.2265625,1,0,0,response1disk,,6,8.95703125,-5.5703125,1,0,0,rectangle,8.95703125,-5.5703125,1,0,0,,,,,,,8.95703125,-5.5703125,1,0,0,,1,74,234,70,1,
,,,,,,,,,,,,,FF,,,,,,,,1.2344,,,,,,,,,,,,,,,,,,,,,,61034f3b7331bbf477dd2dda,61036ebf7d4c69350054cb4f,2021-07-29_22h16.27.911,Simcolourproject_2stim_asymm_v5,2020.2.10,MacIntel,60,61025ae37ef11b136ea224fe,,,,,,,,,3957,82.8203125,35.41015625,1,0,0,response1disk,,6,14.6796875,0.8046875,1,0,0,rectangle,14.6796875,0.8046875,1,0,0,,,,,,,14.6796875,0.8046875,1,0,0,,1,75,235,128,1,
,,,,,,,,,,,,,FF,,,,,,,,1.4321,,,,,,,,,,,,,,,,,,,,,,61034f3b7331bbf477dd2dda,61036ebf7d4c69350054cb4f,2021-07-29_22h16.27.911,Simcolourproject_2stim_asymm_v5,2020.2.10,MacIntel,60,61025ae37ef11b136ea224fe,,,,,,,,,1991,71.61328125,36.48828125,1,0,0,response1disk,,6,14.296875,-2.546875,1,0,0,rectangle,14.296875,-2.546875,1,0,0,,,,,,,14.296875,-2.546875,1,0,0,,1,76,236,22,1,
,,,,,,,,,,,,,FF,,,,,,,,1.7403,,,,,,,,,,,,,,,,,,,,,,61034f3b7331bbf477dd2dda,61036ebf7d4c69350054cb4f,2021-07-29_22h16.27.911,Simcolourproject_2stim_asymm_v5,2020.2.10,MacIntel,60,61025ae37ef11b136ea224fe,,,,,,,,,2129,89.74609375,33.79296875,1,0,0,response1disk,,6,9.7109375,-6.359375,1,0,0,rectangle,9.7109375,-6.359375,1,0,0,,,,,,,9.7109375,-6.359375,1,0,0,,1,77,237,67,1,
,,,,,,,,,,,,,FF,,,,,,,,1.6492,,,,,,,,,,,,,,,,,,,,,,61034f3b7331bbf477dd2dda,61036ebf7d4c69350054cb4f,2021-07-29_22h16.27.911,Simcolourproject_2stim_asymm_v5,2020.2.10,MacIntel,60,61025ae37ef11b136ea224fe,,,,,,,,,277,-46.29296875,-103.7109375,1,0,0,response5disk,,3,7.57421875,1.31640625,1,0,0,rectangle,7.57421875,1.31640625,1,0,0,,,,,,,7.57421875,1.31640625,1,0,0,,1,78,238,10,1,
,,,,,,,,,,,,,FF,,,,,,,,1.1165,,,,,,,,,,,,,,,,,,,,,,61034f3b7331bbf477dd2dda,61036ebf7d4c69350054cb4f,2021-07-29_22h16.27.911,Simcolourproject_2stim_asymm_v5,2020.2.10,MacIntel,60,61025ae37ef11b136ea224fe,,,,,,,,,382,61.30078125,36.234375,1,0,0,response1disk,,6,13.80859375,3.33984375,1,0,0,rectangle,13.80859375,3.33984375,1,0,0,,,,,,,13.80859375,3.33984375,1,0,0,,1,79,239,7,1,
,,,,,,,,,,,,,FF,,,,,,,,0.9691,,,,,,,,,,,,,,,,,,,,,,61034f3b7331bbf477dd2dda,61036ebf7d4c69350054cb4f,2021-07-29_22h16.27.911,Simcolourproject_2stim_asymm_v5,2020.2.10,MacIntel,60,61025ae37ef11b136ea224fe,,,,,,,,,399,69.984375,31.6484375,1,0,0,response1disk,,6,11.18359375,-6.35546875,1,0,0,rectangle,11.18359375,-6.35546875,1,0,0,,,,,,,11.18359375,-6.35546875,1,0,0,,1,80,240,27,1,
,,,,,,,,,,,,,FF,,,,,,,,1.1851,,,,,,,,,,,,,,,,,,,,,,61034f3b7331bbf477dd2dda,61036ebf7d4c69350054cb4f,2021-07-29_22h16.27.911,Simcolourproject_2stim_asymm_v5,2020.2.10,MacIntel,60,61025ae37ef11b136ea224fe,,,,,,,,,1552,85.33203125,35.87109375,1,0,0,response1disk,,6,15.4296875,3.45703125,1,0,0,rectangle,15.4296875,3.45703125,1,0,0,,,,,,,15.4296875,3.45703125,1,0,0,,1,81,241,78,1,
,,,,,,,,,,,,,FF,,,,,,,,1.3494,,,,,,,,,,,,,,,,,,,,,,61034f3b7331bbf477dd2dda,61036ebf7d4c69350054cb4f,2021-07-29_22h16.27.911,Simcolourproject_2stim_asymm_v5,2020.2.10,MacIntel,60,61025ae37ef11b136ea224fe,,,,,,,,,3154,36.625,-96.7734375,1,0,0,response3disk,,4,5.01171875,-0.171875,1,0,0,rectangle,5.01171875,-0.171875,1,0,0,,,,,,,5.01171875,-0.171875,1,0,0,,1,82,242,13,1,
,,,,,,,,,,,,,FF,,,,,,,,1.2473,,,,,,,,,,,,,,,,,,,,,,61034f3b7331bbf477dd2dda,61036ebf7d4c69350054cb4f,2021-07-29_22h16.27.911,Simcolourproject_2stim_asymm_v5,2020.2.10,MacIntel,60,61025ae37ef11b136ea224fe,,,,,,,,,3345,90.3984375,39.42578125,1,0,0,response1disk,,6,21.71484375,-1.99609375,1,0,0,rectangle,21.71484375,-1.99609375,1,0,0,,,,,,,21.71484375,-1.99609375,1,0,0,,1,83,243,117,1,
,,,,,,,,,,,,,FF,,,,,,,,2.3036,,,,,,,,,,,,,,,,,,,,,,61034f3b7331bbf477dd2dda,61036ebf7d4c69350054cb4f,2021-07-29_22h16.27.911,Simcolourproject_2stim_asymm_v5,2020.2.10,MacIntel,60,61025ae37ef11b136ea224fe,,,,,,,,,1672,52.3125,-96.08203125,1,0,0,response3disk,,4,27.29296875,-8.74609375,1,0,0,rectangle,27.29296875,-8.74609375,1,0,0,,,,,,,27.29296875,-8.74609375,1,0,0,,1,84,244,71,1,
,,,,,,,,,,,,,FF,,,,,,,,1.0702,,,,,,,,,,,,,,,,,,,,,,61034f3b7331bbf477dd2dda,61036ebf7d4c69350054cb4f,2021-07-29_22h16.27.911,Simcolourproject_2stim_asymm_v5,2020.2.10,MacIntel,60,61025ae37ef11b136ea224fe,,,,,,,,,2590,97.9375,35.203125,1,0,0,response1disk,,6,-4.09765625,-11.33984375,1,0,0,rectangle,-4.09765625,-11.33984375,1,0,0,,,,,,,-4.09765625,-11.33984375,1,0,0,,1,85,245,52,1,
,,,,,,,,,,,,,FF,,,,,,,,2.7026,,,,,,,,,,,,,,,,,,,,,,61034f3b7331bbf477dd2dda,61036ebf7d4c69350054cb4f,2021-07-29_22h16.27.911,Simcolourproject_2stim_asymm_v5,2020.2.10,MacIntel,60,61025ae37ef11b136ea224fe,,,,,,,,,3184,75.71484375,-41.375,1,0,0,response3disk,,5,13.63671875,3.08203125,1,0,0,rectangle,13.63671875,3.08203125,1,0,0,,,,,,,13.63671875,3.08203125,1,0,0,,1,86,246,1,1,
,,,,,,,,,,,,,FF,,,,,,,,3.1998,,,,,,,,,,,,,,,,,,,,,,61034f3b7331bbf477dd2dda,61036ebf7d4c69350054cb4f,2021-07-29_22h16.27.911,Simcolourproject_2stim_asymm_v5,2020.2.10,MacIntel,60,61025ae37ef11b136ea224fe,,,,,,,,,4250,48.00390625,83.44921875,1,0,0,response1disk,,7,22.64453125,-10.6640625,1,0,0,rectangle,22.64453125,-10.6640625,1,0,0,,,,,,,22.64453125,-10.6640625,1,0,0,,1,87,247,35,1,
,,,,,,,,,,,,,FF,,,,,,,,1.5184,,,,,,,,,,,,,,,,,,,,,,61034f3b7331bbf477dd2dda,61036ebf7d4c69350054cb4f,2021-07-29_22h16.27.911,Simcolourproject_2stim_asymm_v5,2020.2.10,MacIntel,60,61025ae37ef11b136ea224fe,,,,,,,,,244,74.8671875,46.86328125,1,0,0,response1disk,,6,4.96875,3.9375,1,0,0,rectangle,4.96875,3.9375,1,0,0,,,,,,,4.96875,3.9375,1,0,0,,1,88,248,88,1,
,,,,,,,,,,,,,FF,,,,,,,,0.9167,,,,,,,,,,,,,,,,,,,,,,61034f3b7331bbf477dd2dda,61036ebf7d4c69350054cb4f,2021-07-29_22h16.27.911,Simcolourproject_2stim_asymm_v5,2020.2.10,MacIntel,60,61025ae37ef11b136ea224fe,,,,,,,,,3072,76.8671875,39.6328125,1,0,0,response1disk,,6,16.06640625,10.3984375,1,0,0,rectangle,16.06640625,10.3984375,1,0,0,,,,,,,16.06640625,10.3984375,1,0,0,,1,89,249,11,1,
