key_resp.keys,key_resp.rt,key_resp_14.keys,key_resp_14.rt,key_resp_15.keys,key_resp_15.rt,key_resp_17.keys,key_resp_17.rt,key_resp_9.keys,key_resp_9.rt,key_resp_10.keys,key_resp_10.rt,practice_comparison,Ecc,mouse_5.x,mouse_5.y,mouse_5.leftButton,mouse_5.midButton,mouse_5.rightButton,mouse_5.clicked_name,pracsimilarity,response_time,mouse_10.x,mouse_10.y,mouse_10.leftButton,mouse_10.midButton,mouse_10.rightButton,mouse_10.clicked_name,mouse_7.x,mouse_7.y,mouse_7.leftButton,mouse_7.midButton,mouse_7.rightButton,mouse_6.x,mouse_6.y,mouse_6.leftButton,mouse_6.midButton,mouse_6.rightButton,duringprac.thisRepN,duringprac.thisTrialN,duringprac.thisN,duringprac.thisIndex,duringprac.ran,participant,session,date,expName,psychopyVersion,OS,frameRate,study_id,mouse_7.clicked_name,catchpracsimilarity,catch_response_time,catchnumberprac,catchtrialorderprac,mouse_6.clicked_name,key_resp_22.keys,key_resp_22.rt,realcomparison,mouse.x,mouse.y,mouse.leftButton,mouse.midButton,mouse.rightButton,mouse.clicked_name,Colour2,similarity,mouse_2.x,mouse_2.y,mouse_2.leftButton,mouse_2.midButton,mouse_2.rightButton,mouse_2.clicked_name,mouse_3.x,mouse_3.y,mouse_3.leftButton,mouse_3.midButton,mouse_3.rightButton,mouse_11.x,mouse_11.y,mouse_11.leftButton,mouse_11.midButton,mouse_11.rightButton,trials_2.thisRepN,trials_2.thisTrialN,trials_2.thisN,trials_2.thisIndex,trials_2.ran,Colour1,mouse_3.clicked_name,catchornah,catchsimilarity,catchnumber,catchtrialorder,catchRT,mouse_11.clicked_name
space,2.884145,space,6.35939,space,29.38457,space,4.751485,space,0.841955,space,4.612645,11,PF,-37,112,1,0,0,response7disk_5,0,9.42051,13,3,1,0,0,rectangle_8,13,3,1,0,0,13,3,1,0,0,0,0,0,6,1,61030dd8991c249c718415b1,610366f3174d8bdd184de667,2021-07-29_21h43.56.234,Simcolourproject_2stim_asymm_v5,2020.2.10,Win32,60,61025ae37ef11b136ea224fe,,,,,,,,,,,,,,,,,,,,,,,,,,,,,,,,,,,,,,,,,,,,,,
,,,,,,,,,,,,96,PF,-80,28,1,0,0,response7disk_5,1,10.171935,8,-6,1,0,0,rectangle_8,106,34,1,0,0,13,-6,1,0,0,0,1,1,1,1,61030dd8991c249c718415b1,610366f3174d8bdd184de667,2021-07-29_21h43.56.234,Simcolourproject_2stim_asymm_v5,2020.2.10,Win32,60,61025ae37ef11b136ea224fe,response1disk_7,6,3.55231,6,"[2,5]",rectangle_4,,,,,,,,,,,,,,,,,,,,,,,,,,,,,,,,,,,,,,,,
,,,,,,,,,,,,104,FF,101,64,1,0,0,response1disk_5,6,3.220885,13,6,1,0,0,rectangle_8,13,6,1,0,0,13,6,1,0,0,0,2,2,3,1,61030dd8991c249c718415b1,610366f3174d8bdd184de667,2021-07-29_21h43.56.234,Simcolourproject_2stim_asymm_v5,2020.2.10,Win32,60,61025ae37ef11b136ea224fe,,,,,,,,,,,,,,,,,,,,,,,,,,,,,,,,,,,,,,,,,,,,,,
,,,,,,,,,,,,15,FF,17,62,1,0,0,response1disk_5,7,2.75202,7,10,1,0,0,rectangle_8,7,10,1,0,0,7,10,1,0,0,0,3,3,5,1,61030dd8991c249c718415b1,610366f3174d8bdd184de667,2021-07-29_21h43.56.234,Simcolourproject_2stim_asymm_v5,2020.2.10,Win32,60,61025ae37ef11b136ea224fe,,,,,,,,,,,,,,,,,,,,,,,,,,,,,,,,,,,,,,,,,,,,,,
,,,,,,,,,,,,3,PF,39,84,1,0,0,response1disk_5,7,2.2511,16,2,1,0,0,rectangle_8,75,49,1,0,0,14,4,1,0,0,0,4,4,2,1,61030dd8991c249c718415b1,610366f3174d8bdd184de667,2021-07-29_21h43.56.234,Simcolourproject_2stim_asymm_v5,2020.2.10,Win32,60,61025ae37ef11b136ea224fe,response1disk_7,6,4.51914,6,"[2,5]",rectangle_4,,,,,,,,,,,,,,,,,,,,,,,,,,,,,,,,,,,,,,,,
,,,,,,,,,,,,13,PF,69,-44,1,0,0,response3disk_5,5,4.31868,-15,-5,1,0,0,rectangle_8,-15,-5,1,0,0,-15,-5,1,0,0,0,5,5,4,1,61030dd8991c249c718415b1,610366f3174d8bdd184de667,2021-07-29_21h43.56.234,Simcolourproject_2stim_asymm_v5,2020.2.10,Win32,60,61025ae37ef11b136ea224fe,,,,,,,,,,,,,,,,,,,,,,,,,,,,,,,,,,,,,,,,,,,,,,
,,,,,,,,,,,,143,FF,33,83,1,0,0,response1disk_5,7,2.201125,14,-8,1,0,0,rectangle_8,14,-8,1,0,0,14,-8,1,0,0,0,6,6,0,1,61030dd8991c249c718415b1,610366f3174d8bdd184de667,2021-07-29_21h43.56.234,Simcolourproject_2stim_asymm_v5,2020.2.10,Win32,60,61025ae37ef11b136ea224fe,,,,,,,,,,,,,,,,,,,,,,,,,,,,,,,,,,,,,,,,,,,,,,
,,,,,,,,,,,,,FF,,,,,,,,3.455125,,,,,,,,,,,,,,,,,,,,,,61030dd8991c249c718415b1,610366f3174d8bdd184de667,2021-07-29_21h43.56.234,Simcolourproject_2stim_asymm_v5,2020.2.10,Win32,60,61025ae37ef11b136ea224fe,,,,,,,space,3.120435,2152,-17,-100,1,0,0,response5disk,,3,15,6,1,0,0,rectangle,15,6,1,0,0,15,6,1,0,0,0,0,0,42,1,,,,,,,,
,,,,,,,,,,,,,FF,,,,,,,,2.384695,,,,,,,,,,,,,,,,,,,,,,61030dd8991c249c718415b1,610366f3174d8bdd184de667,2021-07-29_21h43.56.234,Simcolourproject_2stim_asymm_v5,2020.2.10,Win32,60,61025ae37ef11b136ea224fe,,,,,,,,,2956,69,36,1,0,0,response1disk,,6,22,-7,1,0,0,rectangle,22,-7,1,0,0,22,-7,1,0,0,0,1,1,38,1,,,,,,,,
,,,,,,,,,,,,,FF,,,,,,,,3.088265,,,,,,,,,,,,,,,,,,,,,,61030dd8991c249c718415b1,610366f3174d8bdd184de667,2021-07-29_21h43.56.234,Simcolourproject_2stim_asymm_v5,2020.2.10,Win32,60,61025ae37ef11b136ea224fe,,,,,,,,,4202,-46,-76,1,0,0,response5disk,,3,11,-11,1,0,0,rectangle,11,-11,1,0,0,11,-11,1,0,0,0,2,2,132,1,,,,,,,,
,,,,,,,,,,,,,FF,,,,,,,,1.91686,,,,,,,,,,,,,,,,,,,,,,61030dd8991c249c718415b1,610366f3174d8bdd184de667,2021-07-29_21h43.56.234,Simcolourproject_2stim_asymm_v5,2020.2.10,Win32,60,61025ae37ef11b136ea224fe,,,,,,,,,3657,83,42,1,0,0,response1disk,,6,0,-8,1,0,0,rectangle,0,-8,1,0,0,0,-8,1,0,0,0,3,3,86,1,,,,,,,,
,,,,,,,,,,,,,FF,,,,,,,,1.701865,,,,,,,,,,,,,,,,,,,,,,61030dd8991c249c718415b1,610366f3174d8bdd184de667,2021-07-29_21h43.56.234,Simcolourproject_2stim_asymm_v5,2020.2.10,Win32,60,61025ae37ef11b136ea224fe,,,,,,,,,4171,-74,-37,1,0,0,response5disk,,2,9,-3,1,0,0,rectangle,9,-3,1,0,0,9,-3,1,0,0,0,4,4,31,1,,,,,,,,
,,,,,,,,,,,,,FF,,,,,,,,2.66621,,,,,,,,,,,,,,,,,,,,,,61030dd8991c249c718415b1,610366f3174d8bdd184de667,2021-07-29_21h43.56.234,Simcolourproject_2stim_asymm_v5,2020.2.10,Win32,60,61025ae37ef11b136ea224fe,,,,,,,,,4045,39,-77,1,0,0,response3disk,,4,-4,7,1,0,0,rectangle,-4,7,1,0,0,-4,7,1,0,0,0,5,5,136,1,,,,,,,,
,,,,,,,,,,,,,FF,,,,,,,,2.20478,,,,,,,,,,,,,,,,,,,,,,61030dd8991c249c718415b1,610366f3174d8bdd184de667,2021-07-29_21h43.56.234,Simcolourproject_2stim_asymm_v5,2020.2.10,Win32,60,61025ae37ef11b136ea224fe,,,,,,,,,3586,-101,-35,1,0,0,response5disk,,2,-9,-1,1,0,0,rectangle,-9,-1,1,0,0,-9,-1,1,0,0,0,6,6,44,1,,,,,,,,
,,,,,,,,,,,,,FF,,,,,,,,1.86765,,,,,,,,,,,,,,,,,,,,,,61030dd8991c249c718415b1,610366f3174d8bdd184de667,2021-07-29_21h43.56.234,Simcolourproject_2stim_asymm_v5,2020.2.10,Win32,60,61025ae37ef11b136ea224fe,,,,,,,,,3996,-26,-60,1,0,0,response5disk,,3,-11,-1,1,0,0,rectangle,-11,-1,1,0,0,-11,-1,1,0,0,0,7,7,28,1,,,,,,,,
,,,,,,,,,,,,,FF,,,,,,,,2.214165,,,,,,,,,,,,,,,,,,,,,,61030dd8991c249c718415b1,610366f3174d8bdd184de667,2021-07-29_21h43.56.234,Simcolourproject_2stim_asymm_v5,2020.2.10,Win32,60,61025ae37ef11b136ea224fe,,,,,,,,,2898,47,-82,1,0,0,response3disk,,4,11,-12,1,0,0,rectangle,11,-12,1,0,0,11,-12,1,0,0,0,8,8,104,1,,,,,,,,
,,,,,,,,,,,,,FF,,,,,,,,1.46679,,,,,,,,,,,,,,,,,,,,,,61030dd8991c249c718415b1,610366f3174d8bdd184de667,2021-07-29_21h43.56.234,Simcolourproject_2stim_asymm_v5,2020.2.10,Win32,60,61025ae37ef11b136ea224fe,,,,,,,,,1088,21,71,1,0,0,response1disk,,7,12,-1,1,0,0,rectangle,12,-1,1,0,0,12,-1,1,0,0,0,9,9,7,1,,,,,,,,
,,,,,,,,,,,,,FF,,,,,,,,1.33719,,,,,,,,,,,,,,,,,,,,,,61030dd8991c249c718415b1,610366f3174d8bdd184de667,2021-07-29_21h43.56.234,Simcolourproject_2stim_asymm_v5,2020.2.10,Win32,60,61025ae37ef11b136ea224fe,,,,,,,,,2381,31,64,1,0,0,response1disk,,7,-12,-6,1,0,0,rectangle,-12,-6,1,0,0,-12,-6,1,0,0,0,10,10,54,1,,,,,,,,
,,,,,,,,,,,,,FF,,,,,,,,1.950905,,,,,,,,,,,,,,,,,,,,,,61030dd8991c249c718415b1,610366f3174d8bdd184de667,2021-07-29_21h43.56.234,Simcolourproject_2stim_asymm_v5,2020.2.10,Win32,60,61025ae37ef11b136ea224fe,,,,,,,,,2546,-81,25,1,0,0,response7disk,,1,6,-13,1,0,0,rectangle,87,35,1,0,0,22,2,1,0,0,0,11,11,22,1,,response1disk_3,TRUE,6,5,"[271,158,172,317,12,248,181,245,285,215,223,100,243,99,76,200,176,114,220,142]",3.301905,rectangle
,,,,,,,,,,,,,FF,,,,,,,,1.41736,,,,,,,,,,,,,,,,,,,,,,61030dd8991c249c718415b1,610366f3174d8bdd184de667,2021-07-29_21h43.56.234,Simcolourproject_2stim_asymm_v5,2020.2.10,Win32,60,61025ae37ef11b136ea224fe,,,,,,,,,2358,-72,27,1,0,0,response7disk,,1,4,-6,1,0,0,rectangle,4,-6,1,0,0,4,-6,1,0,0,0,12,12,29,1,,,,,,,,
,,,,,,,,,,,,,FF,,,,,,,,1.917805,,,,,,,,,,,,,,,,,,,,,,61030dd8991c249c718415b1,610366f3174d8bdd184de667,2021-07-29_21h43.56.234,Simcolourproject_2stim_asymm_v5,2020.2.10,Win32,60,61025ae37ef11b136ea224fe,,,,,,,,,107,-26,-88,1,0,0,response5disk,,3,10,3,1,0,0,rectangle,10,3,1,0,0,10,3,1,0,0,0,13,13,96,1,,,,,,,,
,,,,,,,,,,,,,FF,,,,,,,,1.31749,,,,,,,,,,,,,,,,,,,,,,61030dd8991c249c718415b1,610366f3174d8bdd184de667,2021-07-29_21h43.56.234,Simcolourproject_2stim_asymm_v5,2020.2.10,Win32,60,61025ae37ef11b136ea224fe,,,,,,,,,3456,21,-54,1,0,0,response3disk,,4,3,12,1,0,0,rectangle,3,12,1,0,0,3,12,1,0,0,0,14,14,78,1,,,,,,,,
,,,,,,,,,,,,,FF,,,,,,,,0.96748,,,,,,,,,,,,,,,,,,,,,,61030dd8991c249c718415b1,610366f3174d8bdd184de667,2021-07-29_21h43.56.234,Simcolourproject_2stim_asymm_v5,2020.2.10,Win32,60,61025ae37ef11b136ea224fe,,,,,,,,,2343,69,-27,1,0,0,response3disk,,5,1,7,1,0,0,rectangle,1,7,1,0,0,1,7,1,0,0,0,15,15,77,1,,,,,,,,
,,,,,,,,,,,,,FF,,,,,,,,2.301205,,,,,,,,,,,,,,,,,,,,,,61030dd8991c249c718415b1,610366f3174d8bdd184de667,2021-07-29_21h43.56.234,Simcolourproject_2stim_asymm_v5,2020.2.10,Win32,60,61025ae37ef11b136ea224fe,,,,,,,,,2509,103,41,1,0,0,response1disk,,6,28,-7,1,0,0,rectangle,28,-7,1,0,0,28,-7,1,0,0,0,16,16,146,1,,,,,,,,
,,,,,,,,,,,,,FF,,,,,,,,1.36745,,,,,,,,,,,,,,,,,,,,,,61030dd8991c249c718415b1,610366f3174d8bdd184de667,2021-07-29_21h43.56.234,Simcolourproject_2stim_asymm_v5,2020.2.10,Win32,60,61025ae37ef11b136ea224fe,,,,,,,,,597,70,-21,1,0,0,response3disk,,5,6,9,1,0,0,rectangle,6,9,1,0,0,6,9,1,0,0,0,17,17,153,1,,,,,,,,
,,,,,,,,,,,,,FF,,,,,,,,2.03412,,,,,,,,,,,,,,,,,,,,,,61030dd8991c249c718415b1,610366f3174d8bdd184de667,2021-07-29_21h43.56.234,Simcolourproject_2stim_asymm_v5,2020.2.10,Win32,60,61025ae37ef11b136ea224fe,,,,,,,,,2936,-44,-65,1,0,0,response5disk,,3,9,2,1,0,0,rectangle,9,2,1,0,0,9,2,1,0,0,0,18,18,148,1,,,,,,,,
,,,,,,,,,,,,,FF,,,,,,,,1.033905,,,,,,,,,,,,,,,,,,,,,,61030dd8991c249c718415b1,610366f3174d8bdd184de667,2021-07-29_21h43.56.234,Simcolourproject_2stim_asymm_v5,2020.2.10,Win32,60,61025ae37ef11b136ea224fe,,,,,,,,,3360,33,72,1,0,0,response1disk,,7,9,-4,1,0,0,rectangle,9,-4,1,0,0,9,-4,1,0,0,0,19,19,82,1,,,,,,,,
,,,,,,,,,,,,,FF,,,,,,,,0.884155,,,,,,,,,,,,,,,,,,,,,,61030dd8991c249c718415b1,610366f3174d8bdd184de667,2021-07-29_21h43.56.234,Simcolourproject_2stim_asymm_v5,2020.2.10,Win32,60,61025ae37ef11b136ea224fe,,,,,,,,,1789,38,72,1,0,0,response1disk,,7,-3,-1,1,0,0,rectangle,-3,-1,1,0,0,-3,-1,1,0,0,0,20,20,49,1,,,,,,,,
,,,,,,,,,,,,,FF,,,,,,,,1.78466,,,,,,,,,,,,,,,,,,,,,,61030dd8991c249c718415b1,610366f3174d8bdd184de667,2021-07-29_21h43.56.234,Simcolourproject_2stim_asymm_v5,2020.2.10,Win32,60,61025ae37ef11b136ea224fe,,,,,,,,,628,22,58,1,0,0,response1disk,,7,-13,-2,1,0,0,rectangle,-13,-2,1,0,0,-13,-2,1,0,0,0,21,21,74,1,,,,,,,,
,,,,,,,,,,,,,FF,,,,,,,,2.067655,,,,,,,,,,,,,,,,,,,,,,61030dd8991c249c718415b1,610366f3174d8bdd184de667,2021-07-29_21h43.56.234,Simcolourproject_2stim_asymm_v5,2020.2.10,Win32,60,61025ae37ef11b136ea224fe,,,,,,,,,3311,55,-29,1,0,0,response3disk,,5,16,0,1,0,0,rectangle,16,0,1,0,0,16,0,1,0,0,0,22,22,51,1,,,,,,,,
,,,,,,,,,,,,,FF,,,,,,,,1.183895,,,,,,,,,,,,,,,,,,,,,,61030dd8991c249c718415b1,610366f3174d8bdd184de667,2021-07-29_21h43.56.234,Simcolourproject_2stim_asymm_v5,2020.2.10,Win32,60,61025ae37ef11b136ea224fe,,,,,,,,,3163,-23,-59,1,0,0,response5disk,,3,17,7,1,0,0,rectangle,17,7,1,0,0,17,7,1,0,0,0,23,23,68,1,,,,,,,,
,,,,,,,,,,,,,FF,,,,,,,,1.533835,,,,,,,,,,,,,,,,,,,,,,61030dd8991c249c718415b1,610366f3174d8bdd184de667,2021-07-29_21h43.56.234,Simcolourproject_2stim_asymm_v5,2020.2.10,Win32,60,61025ae37ef11b136ea224fe,,,,,,,,,158,29,-41,1,0,0,response3disk,,4,13,7,1,0,0,rectangle,13,7,1,0,0,13,7,1,0,0,0,24,24,32,1,,,,,,,,
,,,,,,,,,,,,,FF,,,,,,,,0.93427,,,,,,,,,,,,,,,,,,,,,,61030dd8991c249c718415b1,610366f3174d8bdd184de667,2021-07-29_21h43.56.234,Simcolourproject_2stim_asymm_v5,2020.2.10,Win32,60,61025ae37ef11b136ea224fe,,,,,,,,,589,30,73,1,0,0,response1disk,,7,13,7,1,0,0,rectangle,13,7,1,0,0,13,7,1,0,0,0,25,25,156,1,,,,,,,,
,,,,,,,,,,,,,FF,,,,,,,,0.821025,,,,,,,,,,,,,,,,,,,,,,61030dd8991c249c718415b1,610366f3174d8bdd184de667,2021-07-29_21h43.56.234,Simcolourproject_2stim_asymm_v5,2020.2.10,Win32,60,61025ae37ef11b136ea224fe,,,,,,,,,671,29,61,1,0,0,response1disk,,7,11,-11,1,0,0,rectangle,11,-11,1,0,0,11,-11,1,0,0,0,26,26,133,1,,,,,,,,
,,,,,,,,,,,,,FF,,,,,,,,1.28474,,,,,,,,,,,,,,,,,,,,,,61030dd8991c249c718415b1,610366f3174d8bdd184de667,2021-07-29_21h43.56.234,Simcolourproject_2stim_asymm_v5,2020.2.10,Win32,60,61025ae37ef11b136ea224fe,,,,,,,,,1031,61,-25,1,0,0,response3disk,,5,7,-11,1,0,0,rectangle,7,-11,1,0,0,7,-11,1,0,0,0,27,27,141,1,,,,,,,,
,,,,,,,,,,,,,FF,,,,,,,,0.750485,,,,,,,,,,,,,,,,,,,,,,61030dd8991c249c718415b1,610366f3174d8bdd184de667,2021-07-29_21h43.56.234,Simcolourproject_2stim_asymm_v5,2020.2.10,Win32,60,61025ae37ef11b136ea224fe,,,,,,,,,4173,26,81,1,0,0,response1disk,,7,0,11,1,0,0,rectangle,0,11,1,0,0,0,11,1,0,0,0,28,28,147,1,,,,,,,,
,,,,,,,,,,,,,FF,,,,,,,,1.38416,,,,,,,,,,,,,,,,,,,,,,61030dd8991c249c718415b1,610366f3174d8bdd184de667,2021-07-29_21h43.56.234,Simcolourproject_2stim_asymm_v5,2020.2.10,Win32,60,61025ae37ef11b136ea224fe,,,,,,,,,1902,-37,-82,1,0,0,response5disk,,3,-4,13,1,0,0,rectangle,-4,13,1,0,0,-4,13,1,0,0,0,29,29,73,1,,,,,,,,
,,,,,,,,,,,,,FF,,,,,,,,1.217445,,,,,,,,,,,,,,,,,,,,,,61030dd8991c249c718415b1,610366f3174d8bdd184de667,2021-07-29_21h43.56.234,Simcolourproject_2stim_asymm_v5,2020.2.10,Win32,60,61025ae37ef11b136ea224fe,,,,,,,,,3912,35,-56,1,0,0,response3disk,,4,8,-4,1,0,0,rectangle,8,-4,1,0,0,8,-4,1,0,0,0,30,30,76,1,,,,,,,,
,,,,,,,,,,,,,FF,,,,,,,,1.434425,,,,,,,,,,,,,,,,,,,,,,61030dd8991c249c718415b1,610366f3174d8bdd184de667,2021-07-29_21h43.56.234,Simcolourproject_2stim_asymm_v5,2020.2.10,Win32,60,61025ae37ef11b136ea224fe,,,,,,,,,3535,37,-53,1,0,0,response3disk,,4,8,7,1,0,0,rectangle,8,7,1,0,0,8,7,1,0,0,0,31,31,139,1,,,,,,,,
,,,,,,,,,,,,,FF,,,,,,,,1.117885,,,,,,,,,,,,,,,,,,,,,,61030dd8991c249c718415b1,610366f3174d8bdd184de667,2021-07-29_21h43.56.234,Simcolourproject_2stim_asymm_v5,2020.2.10,Win32,60,61025ae37ef11b136ea224fe,,,,,,,,,3285,-73,-35,1,0,0,response5disk,,2,-10,4,1,0,0,rectangle,-10,4,1,0,0,-10,4,1,0,0,0,32,32,145,1,,,,,,,,
,,,,,,,,,,,,,FF,,,,,,,,1.267735,,,,,,,,,,,,,,,,,,,,,,61030dd8991c249c718415b1,610366f3174d8bdd184de667,2021-07-29_21h43.56.234,Simcolourproject_2stim_asymm_v5,2020.2.10,Win32,60,61025ae37ef11b136ea224fe,,,,,,,,,1914,15,-56,1,0,0,response3disk,,4,-7,-2,1,0,0,rectangle,-7,-2,1,0,0,-7,-2,1,0,0,0,33,33,115,1,,,,,,,,
,,,,,,,,,,,,,FF,,,,,,,,1.31739,,,,,,,,,,,,,,,,,,,,,,61030dd8991c249c718415b1,610366f3174d8bdd184de667,2021-07-29_21h43.56.234,Simcolourproject_2stim_asymm_v5,2020.2.10,Win32,60,61025ae37ef11b136ea224fe,,,,,,,,,3592,-74,28,1,0,0,response7disk,,1,8,-3,1,0,0,rectangle,8,-3,1,0,0,8,-3,1,0,0,0,34,34,12,1,,,,,,,,
,,,,,,,,,,,,,FF,,,,,,,,1.05088,,,,,,,,,,,,,,,,,,,,,,61030dd8991c249c718415b1,610366f3174d8bdd184de667,2021-07-29_21h43.56.234,Simcolourproject_2stim_asymm_v5,2020.2.10,Win32,60,61025ae37ef11b136ea224fe,,,,,,,,,1489,64,23,1,0,0,response1disk,,6,5,-8,1,0,0,rectangle,5,-8,1,0,0,5,-8,1,0,0,0,35,35,72,1,,,,,,,,
,,,,,,,,,,,,,FF,,,,,,,,1.33422,,,,,,,,,,,,,,,,,,,,,,61030dd8991c249c718415b1,610366f3174d8bdd184de667,2021-07-29_21h43.56.234,Simcolourproject_2stim_asymm_v5,2020.2.10,Win32,60,61025ae37ef11b136ea224fe,,,,,,,,,4289,50,-68,1,0,0,response3disk,,4,14,-7,1,0,0,rectangle,14,-7,1,0,0,14,-7,1,0,0,0,36,36,45,1,,,,,,,,
,,,,,,,,,,,,,FF,,,,,,,,0.867185,,,,,,,,,,,,,,,,,,,,,,61030dd8991c249c718415b1,610366f3174d8bdd184de667,2021-07-29_21h43.56.234,Simcolourproject_2stim_asymm_v5,2020.2.10,Win32,60,61025ae37ef11b136ea224fe,,,,,,,,,1348,75,-29,1,0,0,response3disk,,5,16,-6,1,0,0,rectangle,16,-6,1,0,0,16,-6,1,0,0,0,37,37,35,1,,,,,,,,
,,,,,,,,,,,,,FF,,,,,,,,1.48424,,,,,,,,,,,,,,,,,,,,,,61030dd8991c249c718415b1,610366f3174d8bdd184de667,2021-07-29_21h43.56.234,Simcolourproject_2stim_asymm_v5,2020.2.10,Win32,60,61025ae37ef11b136ea224fe,,,,,,,,,2599,24,-66,1,0,0,response3disk,,4,-3,-4,1,0,0,rectangle,-3,-4,1,0,0,-3,-4,1,0,0,0,38,38,105,1,,,,,,,,
,,,,,,,,,,,,,FF,,,,,,,,1.534205,,,,,,,,,,,,,,,,,,,,,,61030dd8991c249c718415b1,610366f3174d8bdd184de667,2021-07-29_21h43.56.234,Simcolourproject_2stim_asymm_v5,2020.2.10,Win32,60,61025ae37ef11b136ea224fe,,,,,,,,,3150,-41,-76,1,0,0,response5disk,,3,2,9,1,0,0,rectangle,2,9,1,0,0,2,9,1,0,0,0,39,39,143,1,,,,,,,,
,,,,,,,,,,,,,FF,,,,,,,,0.98395,,,,,,,,,,,,,,,,,,,,,,61030dd8991c249c718415b1,610366f3174d8bdd184de667,2021-07-29_21h43.56.234,Simcolourproject_2stim_asymm_v5,2020.2.10,Win32,60,61025ae37ef11b136ea224fe,,,,,,,,,2050,63,-42,1,0,0,response3disk,,5,2,1,1,0,0,rectangle,2,1,1,0,0,2,1,1,0,0,0,40,40,128,1,,,,,,,,
,,,,,,,,,,,,,FF,,,,,,,,1.017035,,,,,,,,,,,,,,,,,,,,,,61030dd8991c249c718415b1,610366f3174d8bdd184de667,2021-07-29_21h43.56.234,Simcolourproject_2stim_asymm_v5,2020.2.10,Win32,60,61025ae37ef11b136ea224fe,,,,,,,,,3838,25,-55,1,0,0,response3disk,,4,0,-9,1,0,0,rectangle,0,-9,1,0,0,0,-9,1,0,0,0,41,41,107,1,,,,,,,,
,,,,,,,,,,,,,FF,,,,,,,,0.8838,,,,,,,,,,,,,,,,,,,,,,61030dd8991c249c718415b1,610366f3174d8bdd184de667,2021-07-29_21h43.56.234,Simcolourproject_2stim_asymm_v5,2020.2.10,Win32,60,61025ae37ef11b136ea224fe,,,,,,,,,1571,80,-28,1,0,0,response3disk,,5,5,5,1,0,0,rectangle,5,5,1,0,0,5,5,1,0,0,0,42,42,56,1,,,,,,,,
,,,,,,,,,,,,,FF,,,,,,,,1.250345,,,,,,,,,,,,,,,,,,,,,,61030dd8991c249c718415b1,610366f3174d8bdd184de667,2021-07-29_21h43.56.234,Simcolourproject_2stim_asymm_v5,2020.2.10,Win32,60,61025ae37ef11b136ea224fe,,,,,,,,,4249,-45,-65,1,0,0,response5disk,,3,-6,-8,1,0,0,rectangle,-6,-8,1,0,0,-6,-8,1,0,0,0,43,43,101,1,,,,,,,,
,,,,,,,,,,,,,FF,,,,,,,,0.968005,,,,,,,,,,,,,,,,,,,,,,61030dd8991c249c718415b1,610366f3174d8bdd184de667,2021-07-29_21h43.56.234,Simcolourproject_2stim_asymm_v5,2020.2.10,Win32,60,61025ae37ef11b136ea224fe,,,,,,,,,155,-31,-63,1,0,0,response5disk,,3,0,-1,1,0,0,rectangle,0,-1,1,0,0,0,-1,1,0,0,0,44,44,8,1,,,,,,,,
,,,,,,,,,,,,,FF,,,,,,,,0.98436,,,,,,,,,,,,,,,,,,,,,,61030dd8991c249c718415b1,610366f3174d8bdd184de667,2021-07-29_21h43.56.234,Simcolourproject_2stim_asymm_v5,2020.2.10,Win32,60,61025ae37ef11b136ea224fe,,,,,,,,,2074,80,-33,1,0,0,response3disk,,5,21,8,1,0,0,rectangle,21,8,1,0,0,21,8,1,0,0,0,45,45,85,1,,,,,,,,
,,,,,,,,,,,,,FF,,,,,,,,0.967195,,,,,,,,,,,,,,,,,,,,,,61030dd8991c249c718415b1,610366f3174d8bdd184de667,2021-07-29_21h43.56.234,Simcolourproject_2stim_asymm_v5,2020.2.10,Win32,60,61025ae37ef11b136ea224fe,,,,,,,,,1365,-32,-70,1,0,0,response5disk,,3,-4,4,1,0,0,rectangle,-4,4,1,0,0,-4,4,1,0,0,0,46,46,118,1,,,,,,,,
,,,,,,,,,,,,,FF,,,,,,,,0.850365,,,,,,,,,,,,,,,,,,,,,,61030dd8991c249c718415b1,610366f3174d8bdd184de667,2021-07-29_21h43.56.234,Simcolourproject_2stim_asymm_v5,2020.2.10,Win32,60,61025ae37ef11b136ea224fe,,,,,,,,,2873,41,73,1,0,0,response1disk,,7,3,11,1,0,0,rectangle,3,11,1,0,0,3,11,1,0,0,0,47,47,131,1,,,,,,,,
,,,,,,,,,,,,,FF,,,,,,,,1.184755,,,,,,,,,,,,,,,,,,,,,,61030dd8991c249c718415b1,610366f3174d8bdd184de667,2021-07-29_21h43.56.234,Simcolourproject_2stim_asymm_v5,2020.2.10,Win32,60,61025ae37ef11b136ea224fe,,,,,,,,,838,74,40,1,0,0,response1disk,,6,10,-1,1,0,0,rectangle,10,-1,1,0,0,10,-1,1,0,0,0,48,48,58,1,,,,,,,,
,,,,,,,,,,,,,FF,,,,,,,,0.800445,,,,,,,,,,,,,,,,,,,,,,61030dd8991c249c718415b1,610366f3174d8bdd184de667,2021-07-29_21h43.56.234,Simcolourproject_2stim_asymm_v5,2020.2.10,Win32,60,61025ae37ef11b136ea224fe,,,,,,,,,2312,73,23,1,0,0,response1disk,,6,8,-15,1,0,0,rectangle,8,-15,1,0,0,8,-15,1,0,0,0,49,49,99,1,,,,,,,,
,,,,,,,,,,,,,FF,,,,,,,,0.717115,,,,,,,,,,,,,,,,,,,,,,61030dd8991c249c718415b1,610366f3174d8bdd184de667,2021-07-29_21h43.56.234,Simcolourproject_2stim_asymm_v5,2020.2.10,Win32,60,61025ae37ef11b136ea224fe,,,,,,,,,3128,53,26,1,0,0,response1disk,,6,-6,-9,1,0,0,rectangle,-6,-9,1,0,0,-6,-9,1,0,0,0,50,50,34,1,,,,,,,,
,,,,,,,,,,,,,FF,,,,,,,,1.050745,,,,,,,,,,,,,,,,,,,,,,61030dd8991c249c718415b1,610366f3174d8bdd184de667,2021-07-29_21h43.56.234,Simcolourproject_2stim_asymm_v5,2020.2.10,Win32,60,61025ae37ef11b136ea224fe,,,,,,,,,3570,56,-25,1,0,0,response3disk,,5,-2,-7,1,0,0,rectangle,-2,-7,1,0,0,-2,-7,1,0,0,0,51,51,103,1,,,,,,,,
,,,,,,,,,,,,,FF,,,,,,,,0.800405,,,,,,,,,,,,,,,,,,,,,,61030dd8991c249c718415b1,610366f3174d8bdd184de667,2021-07-29_21h43.56.234,Simcolourproject_2stim_asymm_v5,2020.2.10,Win32,60,61025ae37ef11b136ea224fe,,,,,,,,,1607,-58,-29,1,0,0,response5disk,,2,12,-1,1,0,0,rectangle,12,-1,1,0,0,12,-1,1,0,0,0,52,52,109,1,,,,,,,,
,,,,,,,,,,,,,FF,,,,,,,,0.867095,,,,,,,,,,,,,,,,,,,,,,61030dd8991c249c718415b1,610366f3174d8bdd184de667,2021-07-29_21h43.56.234,Simcolourproject_2stim_asymm_v5,2020.2.10,Win32,60,61025ae37ef11b136ea224fe,,,,,,,,,2879,-51,-36,1,0,0,response5disk,,2,-11,-3,1,0,0,rectangle,-11,-3,1,0,0,-11,-3,1,0,0,0,53,53,0,1,,,,,,,,
,,,,,,,,,,,,,FF,,,,,,,,0.90037,,,,,,,,,,,,,,,,,,,,,,61030dd8991c249c718415b1,610366f3174d8bdd184de667,2021-07-29_21h43.56.234,Simcolourproject_2stim_asymm_v5,2020.2.10,Win32,60,61025ae37ef11b136ea224fe,,,,,,,,,220,62,-39,1,0,0,response3disk,,5,-2,8,1,0,0,rectangle,-2,8,1,0,0,-2,8,1,0,0,0,54,54,3,1,,,,,,,,
,,,,,,,,,,,,,FF,,,,,,,,1.00095,,,,,,,,,,,,,,,,,,,,,,61030dd8991c249c718415b1,610366f3174d8bdd184de667,2021-07-29_21h43.56.234,Simcolourproject_2stim_asymm_v5,2020.2.10,Win32,60,61025ae37ef11b136ea224fe,,,,,,,,,1130,67,-31,1,0,0,response3disk,,5,-8,5,1,0,0,rectangle,-8,5,1,0,0,-8,5,1,0,0,0,55,55,87,1,,,,,,,,
,,,,,,,,,,,,,FF,,,,,,,,1.067725,,,,,,,,,,,,,,,,,,,,,,61030dd8991c249c718415b1,610366f3174d8bdd184de667,2021-07-29_21h43.56.234,Simcolourproject_2stim_asymm_v5,2020.2.10,Win32,60,61025ae37ef11b136ea224fe,,,,,,,,,879,-29,-62,1,0,0,response5disk,,3,5,-1,1,0,0,rectangle,5,-1,1,0,0,5,-1,1,0,0,0,56,56,94,1,,,,,,,,
,,,,,,,,,,,,,FF,,,,,,,,1.26721,,,,,,,,,,,,,,,,,,,,,,61030dd8991c249c718415b1,610366f3174d8bdd184de667,2021-07-29_21h43.56.234,Simcolourproject_2stim_asymm_v5,2020.2.10,Win32,60,61025ae37ef11b136ea224fe,,,,,,,,,295,45,83,1,0,0,response1disk,,7,10,13,1,0,0,rectangle,10,13,1,0,0,10,13,1,0,0,0,57,57,97,1,,,,,,,,
,,,,,,,,,,,,,FF,,,,,,,,0.83429,,,,,,,,,,,,,,,,,,,,,,61030dd8991c249c718415b1,610366f3174d8bdd184de667,2021-07-29_21h43.56.234,Simcolourproject_2stim_asymm_v5,2020.2.10,Win32,60,61025ae37ef11b136ea224fe,,,,,,,,,2158,70,-19,1,0,0,response3disk,,5,19,-3,1,0,0,rectangle,19,-3,1,0,0,19,-3,1,0,0,0,58,58,89,1,,,,,,,,
,,,,,,,,,,,,,FF,,,,,,,,2.78471,,,,,,,,,,,,,,,,,,,,,,61030dd8991c249c718415b1,610366f3174d8bdd184de667,2021-07-29_21h43.56.234,Simcolourproject_2stim_asymm_v5,2020.2.10,Win32,60,61025ae37ef11b136ea224fe,,,,,,,,,3786,-43,-100,1,0,0,response5disk,,3,-14,-10,1,0,0,rectangle,-14,-10,1,0,0,-14,-10,1,0,0,0,59,59,26,1,,,,,,,,
,,,,,,,,,,,,,FF,,,,,,,,4.31865,,,,,,,,,,,,,,,,,,,,,,61030dd8991c249c718415b1,610366f3174d8bdd184de667,2021-07-29_21h43.56.234,Simcolourproject_2stim_asymm_v5,2020.2.10,Win32,60,61025ae37ef11b136ea224fe,,,,,,,,,3396,69,33,1,0,0,response1disk,,6,9,-5,1,0,0,rectangle,9,-5,1,0,0,9,-5,1,0,0,0,60,60,120,1,,,,,,,,
,,,,,,,,,,,,,FF,,,,,,,,0.86729,,,,,,,,,,,,,,,,,,,,,,61030dd8991c249c718415b1,610366f3174d8bdd184de667,2021-07-29_21h43.56.234,Simcolourproject_2stim_asymm_v5,2020.2.10,Win32,60,61025ae37ef11b136ea224fe,,,,,,,,,3965,-65,44,1,0,0,response7disk,,1,5,-6,1,0,0,rectangle,5,-6,1,0,0,5,-6,1,0,0,0,61,61,112,1,,,,,,,,
,,,,,,,,,,,,,FF,,,,,,,,1.250615,,,,,,,,,,,,,,,,,,,,,,61030dd8991c249c718415b1,610366f3174d8bdd184de667,2021-07-29_21h43.56.234,Simcolourproject_2stim_asymm_v5,2020.2.10,Win32,60,61025ae37ef11b136ea224fe,,,,,,,,,1152,-23,-82,1,0,0,response5disk,,3,11,11,1,0,0,rectangle,11,11,1,0,0,11,11,1,0,0,0,62,62,124,1,,,,,,,,
,,,,,,,,,,,,,FF,,,,,,,,0.91729,,,,,,,,,,,,,,,,,,,,,,61030dd8991c249c718415b1,610366f3174d8bdd184de667,2021-07-29_21h43.56.234,Simcolourproject_2stim_asymm_v5,2020.2.10,Win32,60,61025ae37ef11b136ea224fe,,,,,,,,,3700,28,-65,1,0,0,response3disk,,4,-5,-6,1,0,0,rectangle,-5,-6,1,0,0,-5,-6,1,0,0,0,63,63,1,1,,,,,,,,
,,,,,,,,,,,,,FF,,,,,,,,1.0506,,,,,,,,,,,,,,,,,,,,,,61030dd8991c249c718415b1,610366f3174d8bdd184de667,2021-07-29_21h43.56.234,Simcolourproject_2stim_asymm_v5,2020.2.10,Win32,60,61025ae37ef11b136ea224fe,,,,,,,,,3875,-91,23,1,0,0,response7disk,,1,9,-11,1,0,0,rectangle,9,-11,1,0,0,9,-11,1,0,0,0,64,64,91,1,,,,,,,,
,,,,,,,,,,,,,FF,,,,,,,,1.03405,,,,,,,,,,,,,,,,,,,,,,61030dd8991c249c718415b1,610366f3174d8bdd184de667,2021-07-29_21h43.56.234,Simcolourproject_2stim_asymm_v5,2020.2.10,Win32,60,61025ae37ef11b136ea224fe,,,,,,,,,3939,-61,-36,1,0,0,response5disk,,2,8,14,1,0,0,rectangle,8,14,1,0,0,8,14,1,0,0,0,65,65,137,1,,,,,,,,
,,,,,,,,,,,,,FF,,,,,,,,1.017995,,,,,,,,,,,,,,,,,,,,,,61030dd8991c249c718415b1,610366f3174d8bdd184de667,2021-07-29_21h43.56.234,Simcolourproject_2stim_asymm_v5,2020.2.10,Win32,60,61025ae37ef11b136ea224fe,,,,,,,,,1950,-24,-71,1,0,0,response5disk,,3,-3,12,1,0,0,rectangle,-3,12,1,0,0,-3,12,1,0,0,0,66,66,17,1,,,,,,,,
,,,,,,,,,,,,,FF,,,,,,,,1.16744,,,,,,,,,,,,,,,,,,,,,,61030dd8991c249c718415b1,610366f3174d8bdd184de667,2021-07-29_21h43.56.234,Simcolourproject_2stim_asymm_v5,2020.2.10,Win32,60,61025ae37ef11b136ea224fe,,,,,,,,,861,28,64,1,0,0,response1disk,,7,0,3,1,0,0,rectangle,0,3,1,0,0,0,3,1,0,0,0,67,67,125,1,,,,,,,,
,,,,,,,,,,,,,FF,,,,,,,,1.499755,,,,,,,,,,,,,,,,,,,,,,61030dd8991c249c718415b1,610366f3174d8bdd184de667,2021-07-29_21h43.56.234,Simcolourproject_2stim_asymm_v5,2020.2.10,Win32,60,61025ae37ef11b136ea224fe,,,,,,,,,269,-16,-62,1,0,0,response5disk,,3,-3,5,1,0,0,rectangle,-3,5,1,0,0,-3,5,1,0,0,0,68,68,108,1,,,,,,,,
,,,,,,,,,,,,,FF,,,,,,,,1.587525,,,,,,,,,,,,,,,,,,,,,,61030dd8991c249c718415b1,610366f3174d8bdd184de667,2021-07-29_21h43.56.234,Simcolourproject_2stim_asymm_v5,2020.2.10,Win32,60,61025ae37ef11b136ea224fe,,,,,,,,,112,36,62,1,0,0,response1disk,,7,-18,10,1,0,0,rectangle,-18,10,1,0,0,-18,10,1,0,0,0,69,69,149,1,,,,,,,,
,,,,,,,,,,,,,FF,,,,,,,,1.14793,,,,,,,,,,,,,,,,,,,,,,61030dd8991c249c718415b1,610366f3174d8bdd184de667,2021-07-29_21h43.56.234,Simcolourproject_2stim_asymm_v5,2020.2.10,Win32,60,61025ae37ef11b136ea224fe,,,,,,,,,1884,-45,-75,1,0,0,response5disk,,3,-5,-8,1,0,0,rectangle,-5,-8,1,0,0,-5,-8,1,0,0,0,70,70,57,1,,,,,,,,
,,,,,,,,,,,,,FF,,,,,,,,0.749985,,,,,,,,,,,,,,,,,,,,,,61030dd8991c249c718415b1,610366f3174d8bdd184de667,2021-07-29_21h43.56.234,Simcolourproject_2stim_asymm_v5,2020.2.10,Win32,60,61025ae37ef11b136ea224fe,,,,,,,,,1447,-69,-35,1,0,0,response5disk,,2,1,12,1,0,0,rectangle,1,12,1,0,0,1,12,1,0,0,0,71,71,63,1,,,,,,,,
,,,,,,,,,,,,,FF,,,,,,,,1.505515,,,,,,,,,,,,,,,,,,,,,,61030dd8991c249c718415b1,610366f3174d8bdd184de667,2021-07-29_21h43.56.234,Simcolourproject_2stim_asymm_v5,2020.2.10,Win32,60,61025ae37ef11b136ea224fe,,,,,,,,,603,79,37,1,0,0,response1disk,,6,2,-11,1,0,0,rectangle,2,-11,1,0,0,2,-11,1,0,0,0,72,72,98,1,,,,,,,,
,,,,,,,,,,,,,FF,,,,,,,,2.41916,,,,,,,,,,,,,,,,,,,,,,61030dd8991c249c718415b1,610366f3174d8bdd184de667,2021-07-29_21h43.56.234,Simcolourproject_2stim_asymm_v5,2020.2.10,Win32,60,61025ae37ef11b136ea224fe,,,,,,,,,1108,52,41,1,0,0,response1disk,,6,0,1,1,0,0,rectangle,0,1,1,0,0,0,1,1,0,0,0,73,73,154,1,,,,,,,,
,,,,,,,,,,,,,FF,,,,,,,,2.13478,,,,,,,,,,,,,,,,,,,,,,61030dd8991c249c718415b1,610366f3174d8bdd184de667,2021-07-29_21h43.56.234,Simcolourproject_2stim_asymm_v5,2020.2.10,Win32,60,61025ae37ef11b136ea224fe,,,,,,,,,1678,48,-39,1,0,0,response3disk,,5,10,13,1,0,0,rectangle,10,13,1,0,0,10,13,1,0,0,0,74,74,122,1,,,,,,,,
,,,,,,,,,,,,,FF,,,,,,,,1.722935,,,,,,,,,,,,,,,,,,,,,,61030dd8991c249c718415b1,610366f3174d8bdd184de667,2021-07-29_21h43.56.234,Simcolourproject_2stim_asymm_v5,2020.2.10,Win32,60,61025ae37ef11b136ea224fe,,,,,,,,,2821,27,78,1,0,0,response1disk,,7,5,5,1,0,0,rectangle,48,116,1,0,0,16,-2,1,0,0,0,75,75,84,1,,response1disk_3,TRUE,7,7,"[271,158,172,317,12,248,181,245,285,215,223,100,243,99,76,200,176,114,220,142]",1.81761,rectangle
,,,,,,,,,,,,,FF,,,,,,,,1.189465,,,,,,,,,,,,,,,,,,,,,,61030dd8991c249c718415b1,610366f3174d8bdd184de667,2021-07-29_21h43.56.234,Simcolourproject_2stim_asymm_v5,2020.2.10,Win32,60,61025ae37ef11b136ea224fe,,,,,,,,,1374,-91,-16,1,0,0,response5disk,,2,8,5,1,0,0,rectangle,8,5,1,0,0,8,5,1,0,0,0,76,76,102,1,,,,,,,,
,,,,,,,,,,,,,FF,,,,,,,,1.184365,,,,,,,,,,,,,,,,,,,,,,61030dd8991c249c718415b1,610366f3174d8bdd184de667,2021-07-29_21h43.56.234,Simcolourproject_2stim_asymm_v5,2020.2.10,Win32,60,61025ae37ef11b136ea224fe,,,,,,,,,2187,66,-45,1,0,0,response3disk,,5,29,-14,1,0,0,rectangle,29,-14,1,0,0,29,-14,1,0,0,0,77,77,152,1,,,,,,,,
,,,,,,,,,,,,,FF,,,,,,,,0.88427,,,,,,,,,,,,,,,,,,,,,,61030dd8991c249c718415b1,610366f3174d8bdd184de667,2021-07-29_21h43.56.234,Simcolourproject_2stim_asymm_v5,2020.2.10,Win32,60,61025ae37ef11b136ea224fe,,,,,,,,,3879,-35,-67,1,0,0,response5disk,,3,0,1,1,0,0,rectangle,0,1,1,0,0,0,1,1,0,0,0,78,78,81,1,,,,,,,,
,,,,,,,,,,,,,FF,,,,,,,,0.94741,,,,,,,,,,,,,,,,,,,,,,61030dd8991c249c718415b1,610366f3174d8bdd184de667,2021-07-29_21h43.56.234,Simcolourproject_2stim_asymm_v5,2020.2.10,Win32,60,61025ae37ef11b136ea224fe,,,,,,,,,1841,103,-28,1,0,0,response3disk,,5,31,7,1,0,0,rectangle,31,7,1,0,0,31,7,1,0,0,0,79,79,61,1,,,,,,,,
,,,,,,,,,,,,,FF,,,,,,,,0.872255,,,,,,,,,,,,,,,,,,,,,,61030dd8991c249c718415b1,610366f3174d8bdd184de667,2021-07-29_21h43.56.234,Simcolourproject_2stim_asymm_v5,2020.2.10,Win32,60,61025ae37ef11b136ea224fe,,,,,,,,,2793,-30,-65,1,0,0,response5disk,,3,4,-6,1,0,0,rectangle,4,-6,1,0,0,4,-6,1,0,0,0,80,80,53,1,,,,,,,,
,,,,,,,,,,,,,FF,,,,,,,,1.301965,,,,,,,,,,,,,,,,,,,,,,61030dd8991c249c718415b1,610366f3174d8bdd184de667,2021-07-29_21h43.56.234,Simcolourproject_2stim_asymm_v5,2020.2.10,Win32,60,61025ae37ef11b136ea224fe,,,,,,,,,60,32,-49,1,0,0,response3disk,,4,2,15,1,0,0,rectangle,2,15,1,0,0,2,15,1,0,0,0,81,81,66,1,,,,,,,,
,,,,,,,,,,,,,FF,,,,,,,,0.821595,,,,,,,,,,,,,,,,,,,,,,61030dd8991c249c718415b1,610366f3174d8bdd184de667,2021-07-29_21h43.56.234,Simcolourproject_2stim_asymm_v5,2020.2.10,Win32,60,61025ae37ef11b136ea224fe,,,,,,,,,1557,66,-25,1,0,0,response3disk,,5,5,6,1,0,0,rectangle,5,6,1,0,0,5,6,1,0,0,0,82,82,150,1,,,,,,,,
,,,,,,,,,,,,,FF,,,,,,,,2.16805,,,,,,,,,,,,,,,,,,,,,,61030dd8991c249c718415b1,610366f3174d8bdd184de667,2021-07-29_21h43.56.234,Simcolourproject_2stim_asymm_v5,2020.2.10,Win32,60,61025ae37ef11b136ea224fe,,,,,,,,,2511,37,73,1,0,0,response1disk,,7,-6,-7,1,0,0,rectangle,-6,-7,1,0,0,-6,-7,1,0,0,0,83,83,55,1,,,,,,,,
,,,,,,,,,,,,,FF,,,,,,,,0.883915,,,,,,,,,,,,,,,,,,,,,,61030dd8991c249c718415b1,610366f3174d8bdd184de667,2021-07-29_21h43.56.234,Simcolourproject_2stim_asymm_v5,2020.2.10,Win32,60,61025ae37ef11b136ea224fe,,,,,,,,,3593,26,-65,1,0,0,response3disk,,4,0,-9,1,0,0,rectangle,0,-9,1,0,0,0,-9,1,0,0,0,84,84,60,1,,,,,,,,
,,,,,,,,,,,,,FF,,,,,,,,0.767435,,,,,,,,,,,,,,,,,,,,,,61030dd8991c249c718415b1,610366f3174d8bdd184de667,2021-07-29_21h43.56.234,Simcolourproject_2stim_asymm_v5,2020.2.10,Win32,60,61025ae37ef11b136ea224fe,,,,,,,,,3690,71,-30,1,0,0,response3disk,,5,7,-4,1,0,0,rectangle,7,-4,1,0,0,7,-4,1,0,0,0,85,85,4,1,,,,,,,,
,,,,,,,,,,,,,FF,,,,,,,,0.767585,,,,,,,,,,,,,,,,,,,,,,61030dd8991c249c718415b1,610366f3174d8bdd184de667,2021-07-29_21h43.56.234,Simcolourproject_2stim_asymm_v5,2020.2.10,Win32,60,61025ae37ef11b136ea224fe,,,,,,,,,3798,73,45,1,0,0,response1disk,,6,19,1,1,0,0,rectangle,19,1,1,0,0,19,1,1,0,0,0,86,86,95,1,,,,,,,,
,,,,,,,,,,,,,FF,,,,,,,,0.76725,,,,,,,,,,,,,,,,,,,,,,61030dd8991c249c718415b1,610366f3174d8bdd184de667,2021-07-29_21h43.56.234,Simcolourproject_2stim_asymm_v5,2020.2.10,Win32,60,61025ae37ef11b136ea224fe,,,,,,,,,815,62,37,1,0,0,response1disk,,6,16,2,1,0,0,rectangle,16,2,1,0,0,16,2,1,0,0,0,87,87,70,1,,,,,,,,
,,,,,,,,,,,,,FF,,,,,,,,0.75045,,,,,,,,,,,,,,,,,,,,,,61030dd8991c249c718415b1,610366f3174d8bdd184de667,2021-07-29_21h43.56.234,Simcolourproject_2stim_asymm_v5,2020.2.10,Win32,60,61025ae37ef11b136ea224fe,,,,,,,,,4013,77,38,1,0,0,response1disk,,6,-5,-11,1,0,0,rectangle,-5,-11,1,0,0,-5,-11,1,0,0,0,88,88,130,1,,,,,,,,
,,,,,,,,,,,,,FF,,,,,,,,1.250975,,,,,,,,,,,,,,,,,,,,,,61030dd8991c249c718415b1,610366f3174d8bdd184de667,2021-07-29_21h43.56.234,Simcolourproject_2stim_asymm_v5,2020.2.10,Win32,60,61025ae37ef11b136ea224fe,,,,,,,,,3601,31,-55,1,0,0,response3disk,,4,0,6,1,0,0,rectangle,0,6,1,0,0,0,6,1,0,0,0,89,89,11,1,,,,,,,,
,,,,,,,,,,,,,FF,,,,,,,,1.334115,,,,,,,,,,,,,,,,,,,,,,61030dd8991c249c718415b1,610366f3174d8bdd184de667,2021-07-29_21h43.56.234,Simcolourproject_2stim_asymm_v5,2020.2.10,Win32,60,61025ae37ef11b136ea224fe,,,,,,,,,1476,80,37,1,0,0,response1disk,,6,13,6,1,0,0,rectangle,13,6,1,0,0,13,6,1,0,0,0,90,90,113,1,,,,,,,,
,,,,,,,,,,,,,FF,,,,,,,,1.001175,,,,,,,,,,,,,,,,,,,,,,61030dd8991c249c718415b1,610366f3174d8bdd184de667,2021-07-29_21h43.56.234,Simcolourproject_2stim_asymm_v5,2020.2.10,Win32,60,61025ae37ef11b136ea224fe,,,,,,,,,69,68,39,1,0,0,response1disk,,6,20,4,1,0,0,rectangle,20,4,1,0,0,20,4,1,0,0,0,91,91,50,1,,,,,,,,
,,,,,,,,,,,,,FF,,,,,,,,1.383955,,,,,,,,,,,,,,,,,,,,,,61030dd8991c249c718415b1,610366f3174d8bdd184de667,2021-07-29_21h43.56.234,Simcolourproject_2stim_asymm_v5,2020.2.10,Win32,60,61025ae37ef11b136ea224fe,,,,,,,,,2188,42,66,1,0,0,response1disk,,7,21,11,0,0,1,rectangle,21,11,0,0,1,21,11,0,0,1,0,92,92,129,1,,,,,,,,
,,,,,,,,,,,,,FF,,,,,,,,2.23584,,,,,,,,,,,,,,,,,,,,,,61030dd8991c249c718415b1,610366f3174d8bdd184de667,2021-07-29_21h43.56.234,Simcolourproject_2stim_asymm_v5,2020.2.10,Win32,60,61025ae37ef11b136ea224fe,,,,,,,,,2676,49,76,1,0,0,response1disk,,7,15,12,0,0,1,rectangle,15,12,0,0,1,15,12,0,0,1,0,93,93,41,1,,,,,,,,
,,,,,,,,,,,,,FF,,,,,,,,3.78211,,,,,,,,,,,,,,,,,,,,,,61030dd8991c249c718415b1,610366f3174d8bdd184de667,2021-07-29_21h43.56.234,Simcolourproject_2stim_asymm_v5,2020.2.10,Win32,60,61025ae37ef11b136ea224fe,,,,,,,,,2637,54,58,1,0,0,response1disk,,7,-6,0,1,0,0,rectangle,-6,0,1,0,0,-6,0,1,0,0,0,94,94,134,1,,,,,,,,
,,,,,,,,,,,,,FF,,,,,,,,1.353105,,,,,,,,,,,,,,,,,,,,,,61030dd8991c249c718415b1,610366f3174d8bdd184de667,2021-07-29_21h43.56.234,Simcolourproject_2stim_asymm_v5,2020.2.10,Win32,60,61025ae37ef11b136ea224fe,,,,,,,,,2019,29,-52,1,0,0,response3disk,,4,9,0,1,0,0,rectangle,9,0,1,0,0,9,0,1,0,0,0,95,95,92,1,,,,,,,,
,,,,,,,,,,,,,FF,,,,,,,,0.81314,,,,,,,,,,,,,,,,,,,,,,61030dd8991c249c718415b1,610366f3174d8bdd184de667,2021-07-29_21h43.56.234,Simcolourproject_2stim_asymm_v5,2020.2.10,Win32,60,61025ae37ef11b136ea224fe,,,,,,,,,3507,-23,-64,1,0,0,response5disk,,3,11,-13,1,0,0,rectangle,11,-13,1,0,0,11,-13,1,0,0,0,96,96,114,1,,,,,,,,
,,,,,,,,,,,,,FF,,,,,,,,2.068025,,,,,,,,,,,,,,,,,,,,,,61030dd8991c249c718415b1,610366f3174d8bdd184de667,2021-07-29_21h43.56.234,Simcolourproject_2stim_asymm_v5,2020.2.10,Win32,60,61025ae37ef11b136ea224fe,,,,,,,,,695,74,-41,1,0,0,response3disk,,5,-1,6,1,0,0,rectangle,-1,6,1,0,0,-1,6,1,0,0,0,97,97,79,1,,,,,,,,
,,,,,,,,,,,,,FF,,,,,,,,1.435235,,,,,,,,,,,,,,,,,,,,,,61030dd8991c249c718415b1,610366f3174d8bdd184de667,2021-07-29_21h43.56.234,Simcolourproject_2stim_asymm_v5,2020.2.10,Win32,60,61025ae37ef11b136ea224fe,,,,,,,,,1961,-58,-36,1,0,0,response5disk,,2,6,6,1,0,0,rectangle,-84,27,1,0,0,-15,9,1,0,0,0,98,98,119,1,,response7disk_3,TRUE,1,1,"[271,158,172,317,12,248,181,245,285,215,223,100,243,99,76,200,176,114,220,142]",2.317505,rectangle
,,,,,,,,,,,,,FF,,,,,,,,1.117515,,,,,,,,,,,,,,,,,,,,,,61030dd8991c249c718415b1,610366f3174d8bdd184de667,2021-07-29_21h43.56.234,Simcolourproject_2stim_asymm_v5,2020.2.10,Win32,60,61025ae37ef11b136ea224fe,,,,,,,,,2905,-34,-72,1,0,0,response5disk,,3,-3,-9,1,0,0,rectangle,-74,-39,1,0,0,12,10,1,0,0,0,99,99,142,1,,response5disk_3,TRUE,2,2,"[271,158,172,317,12,248,181,245,285,215,223,100,243,99,76,200,176,114,220,142]",2.267405,rectangle
,,,,,,,,,,,,,FF,,,,,,,,1.000235,,,,,,,,,,,,,,,,,,,,,,61030dd8991c249c718415b1,610366f3174d8bdd184de667,2021-07-29_21h43.56.234,Simcolourproject_2stim_asymm_v5,2020.2.10,Win32,60,61025ae37ef11b136ea224fe,,,,,,,,,546,-52,-43,1,0,0,response5disk,,2,-5,3,1,0,0,rectangle,-5,3,1,0,0,-5,3,1,0,0,0,100,100,65,1,,,,,,,,
,,,,,,,,,,,,,FF,,,,,,,,0.80106,,,,,,,,,,,,,,,,,,,,,,61030dd8991c249c718415b1,610366f3174d8bdd184de667,2021-07-29_21h43.56.234,Simcolourproject_2stim_asymm_v5,2020.2.10,Win32,60,61025ae37ef11b136ea224fe,,,,,,,,,3504,-59,-29,1,0,0,response5disk,,2,-1,-4,1,0,0,rectangle,-1,-4,1,0,0,-1,-4,1,0,0,0,101,101,14,1,,,,,,,,
,,,,,,,,,,,,,FF,,,,,,,,0.783825,,,,,,,,,,,,,,,,,,,,,,61030dd8991c249c718415b1,610366f3174d8bdd184de667,2021-07-29_21h43.56.234,Simcolourproject_2stim_asymm_v5,2020.2.10,Win32,60,61025ae37ef11b136ea224fe,,,,,,,,,1025,79,-22,1,0,0,response3disk,,5,9,1,1,0,0,rectangle,9,1,1,0,0,9,1,1,0,0,0,102,102,127,1,,,,,,,,
,,,,,,,,,,,,,FF,,,,,,,,0.734075,,,,,,,,,,,,,,,,,,,,,,61030dd8991c249c718415b1,610366f3174d8bdd184de667,2021-07-29_21h43.56.234,Simcolourproject_2stim_asymm_v5,2020.2.10,Win32,60,61025ae37ef11b136ea224fe,,,,,,,,,3307,84,46,1,0,0,response1disk,,6,14,-8,1,0,0,rectangle,14,-8,1,0,0,14,-8,1,0,0,0,103,103,40,1,,,,,,,,
,,,,,,,,,,,,,FF,,,,,,,,0.934425,,,,,,,,,,,,,,,,,,,,,,61030dd8991c249c718415b1,610366f3174d8bdd184de667,2021-07-29_21h43.56.234,Simcolourproject_2stim_asymm_v5,2020.2.10,Win32,60,61025ae37ef11b136ea224fe,,,,,,,,,517,74,32,1,0,0,response1disk,,6,1,-5,1,0,0,rectangle,1,-5,1,0,0,1,-5,1,0,0,0,104,104,27,1,,,,,,,,
,,,,,,,,,,,,,FF,,,,,,,,0.650385,,,,,,,,,,,,,,,,,,,,,,61030dd8991c249c718415b1,610366f3174d8bdd184de667,2021-07-29_21h43.56.234,Simcolourproject_2stim_asymm_v5,2020.2.10,Win32,60,61025ae37ef11b136ea224fe,,,,,,,,,494,64,33,1,0,0,response1disk,,6,10,-3,1,0,0,rectangle,10,-3,1,0,0,10,-3,1,0,0,0,105,105,36,1,,,,,,,,
,,,,,,,,,,,,,FF,,,,,,,,0.86715,,,,,,,,,,,,,,,,,,,,,,61030dd8991c249c718415b1,610366f3174d8bdd184de667,2021-07-29_21h43.56.234,Simcolourproject_2stim_asymm_v5,2020.2.10,Win32,60,61025ae37ef11b136ea224fe,,,,,,,,,4261,26,77,1,0,0,response1disk,,7,10,5,1,0,0,rectangle,10,5,1,0,0,10,5,1,0,0,0,106,106,18,1,,,,,,,,
,,,,,,,,,,,,,FF,,,,,,,,0.600475,,,,,,,,,,,,,,,,,,,,,,61030dd8991c249c718415b1,610366f3174d8bdd184de667,2021-07-29_21h43.56.234,Simcolourproject_2stim_asymm_v5,2020.2.10,Win32,60,61025ae37ef11b136ea224fe,,,,,,,,,238,43,75,1,0,0,response1disk,,7,10,-6,1,0,0,rectangle,10,-6,1,0,0,10,-6,1,0,0,0,107,107,155,1,,,,,,,,
,,,,,,,,,,,,,FF,,,,,,,,0.500425,,,,,,,,,,,,,,,,,,,,,,61030dd8991c249c718415b1,610366f3174d8bdd184de667,2021-07-29_21h43.56.234,Simcolourproject_2stim_asymm_v5,2020.2.10,Win32,60,61025ae37ef11b136ea224fe,,,,,,,,,138,35,51,1,0,0,response1disk,,7,9,7,1,0,0,rectangle,9,7,1,0,0,9,7,1,0,0,0,108,108,100,1,,,,,,,,
,,,,,,,,,,,,,FF,,,,,,,,1.000775,,,,,,,,,,,,,,,,,,,,,,61030dd8991c249c718415b1,610366f3174d8bdd184de667,2021-07-29_21h43.56.234,Simcolourproject_2stim_asymm_v5,2020.2.10,Win32,60,61025ae37ef11b136ea224fe,,,,,,,,,1150,62,-62,1,0,0,response3disk,,5,5,1,1,0,0,rectangle,5,1,1,0,0,5,1,1,0,0,0,109,109,59,1,,,,,,,,
,,,,,,,,,,,,,FF,,,,,,,,1.18401,,,,,,,,,,,,,,,,,,,,,,61030dd8991c249c718415b1,610366f3174d8bdd184de667,2021-07-29_21h43.56.234,Simcolourproject_2stim_asymm_v5,2020.2.10,Win32,60,61025ae37ef11b136ea224fe,,,,,,,,,111,24,86,1,0,0,response1disk,,7,7,11,1,0,0,rectangle,7,11,1,0,0,7,11,1,0,0,0,110,110,83,1,,,,,,,,
,,,,,,,,,,,,,FF,,,,,,,,0.53371,,,,,,,,,,,,,,,,,,,,,,61030dd8991c249c718415b1,610366f3174d8bdd184de667,2021-07-29_21h43.56.234,Simcolourproject_2stim_asymm_v5,2020.2.10,Win32,60,61025ae37ef11b136ea224fe,,,,,,,,,2906,76,38,1,0,0,response1disk,,6,29,-1,1,0,0,rectangle,29,-1,1,0,0,29,-1,1,0,0,0,111,111,151,1,,,,,,,,
,,,,,,,,,,,,,FF,,,,,,,,0.613135,,,,,,,,,,,,,,,,,,,,,,61030dd8991c249c718415b1,610366f3174d8bdd184de667,2021-07-29_21h43.56.234,Simcolourproject_2stim_asymm_v5,2020.2.10,Win32,60,61025ae37ef11b136ea224fe,,,,,,,,,2960,42,69,1,0,0,response1disk,,7,22,-10,1,0,0,rectangle,22,-10,1,0,0,22,-10,1,0,0,0,112,112,138,1,,,,,,,,
,,,,,,,,,,,,,FF,,,,,,,,0.534445,,,,,,,,,,,,,,,,,,,,,,61030dd8991c249c718415b1,610366f3174d8bdd184de667,2021-07-29_21h43.56.234,Simcolourproject_2stim_asymm_v5,2020.2.10,Win32,60,61025ae37ef11b136ea224fe,,,,,,,,,2071,57,28,1,0,0,response1disk,,6,19,3,1,0,0,rectangle,73,30,1,0,0,12,-4,1,0,0,0,113,113,88,1,,response1disk_3,TRUE,6,6,"[271,158,172,317,12,248,181,245,285,215,223,100,243,99,76,200,176,114,220,142]",1.850865,rectangle
,,,,,,,,,,,,,FF,,,,,,,,0.931095,,,,,,,,,,,,,,,,,,,,,,61030dd8991c249c718415b1,610366f3174d8bdd184de667,2021-07-29_21h43.56.234,Simcolourproject_2stim_asymm_v5,2020.2.10,Win32,60,61025ae37ef11b136ea224fe,,,,,,,,,1113,67,-33,1,0,0,response3disk,,5,-9,-5,1,0,0,rectangle,-9,-5,1,0,0,-9,-5,1,0,0,0,114,114,123,1,,,,,,,,
,,,,,,,,,,,,,FF,,,,,,,,1.002855,,,,,,,,,,,,,,,,,,,,,,61030dd8991c249c718415b1,610366f3174d8bdd184de667,2021-07-29_21h43.56.234,Simcolourproject_2stim_asymm_v5,2020.2.10,Win32,60,61025ae37ef11b136ea224fe,,,,,,,,,1455,-59,-73,1,0,0,response5disk,,3,-9,-7,1,0,0,rectangle,-9,-7,1,0,0,-9,-7,1,0,0,0,115,115,23,1,,,,,,,,
,,,,,,,,,,,,,FF,,,,,,,,0.889405,,,,,,,,,,,,,,,,,,,,,,61030dd8991c249c718415b1,610366f3174d8bdd184de667,2021-07-29_21h43.56.234,Simcolourproject_2stim_asymm_v5,2020.2.10,Win32,60,61025ae37ef11b136ea224fe,,,,,,,,,1310,27,-45,1,0,0,response3disk,,4,6,3,1,0,0,rectangle,6,3,1,0,0,6,3,1,0,0,0,116,116,71,1,,,,,,,,
,,,,,,,,,,,,,FF,,,,,,,,1.017965,,,,,,,,,,,,,,,,,,,,,,61030dd8991c249c718415b1,610366f3174d8bdd184de667,2021-07-29_21h43.56.234,Simcolourproject_2stim_asymm_v5,2020.2.10,Win32,60,61025ae37ef11b136ea224fe,,,,,,,,,974,44,-50,1,0,0,response3disk,,4,5,6,1,0,0,rectangle,5,6,1,0,0,5,6,1,0,0,0,117,117,111,1,,,,,,,,
,,,,,,,,,,,,,FF,,,,,,,,1.167285,,,,,,,,,,,,,,,,,,,,,,61030dd8991c249c718415b1,610366f3174d8bdd184de667,2021-07-29_21h43.56.234,Simcolourproject_2stim_asymm_v5,2020.2.10,Win32,60,61025ae37ef11b136ea224fe,,,,,,,,,3188,-42,-69,1,0,0,response5disk,,3,-10,4,1,0,0,rectangle,-10,4,1,0,0,-10,4,1,0,0,0,118,118,117,1,,,,,,,,
,,,,,,,,,,,,,FF,,,,,,,,0.700235,,,,,,,,,,,,,,,,,,,,,,61030dd8991c249c718415b1,610366f3174d8bdd184de667,2021-07-29_21h43.56.234,Simcolourproject_2stim_asymm_v5,2020.2.10,Win32,60,61025ae37ef11b136ea224fe,,,,,,,,,2712,-74,-35,1,0,0,response5disk,,2,1,10,1,0,0,rectangle,1,10,1,0,0,1,10,1,0,0,0,119,119,16,1,,,,,,,,
,,,,,,,,,,,,,FF,,,,,,,,0.710795,,,,,,,,,,,,,,,,,,,,,,61030dd8991c249c718415b1,610366f3174d8bdd184de667,2021-07-29_21h43.56.234,Simcolourproject_2stim_asymm_v5,2020.2.10,Win32,60,61025ae37ef11b136ea224fe,,,,,,,,,1878,31,61,1,0,0,response1disk,,7,-3,-1,1,0,0,rectangle,-3,-1,1,0,0,-3,-1,1,0,0,0,120,120,52,1,,,,,,,,
,,,,,,,,,,,,,FF,,,,,,,,0.66682,,,,,,,,,,,,,,,,,,,,,,61030dd8991c249c718415b1,610366f3174d8bdd184de667,2021-07-29_21h43.56.234,Simcolourproject_2stim_asymm_v5,2020.2.10,Win32,60,61025ae37ef11b136ea224fe,,,,,,,,,1904,86,38,1,0,0,response1disk,,6,-6,9,1,0,0,rectangle,-6,9,1,0,0,-6,9,1,0,0,0,121,121,47,1,,,,,,,,
,,,,,,,,,,,,,FF,,,,,,,,0.933475,,,,,,,,,,,,,,,,,,,,,,61030dd8991c249c718415b1,610366f3174d8bdd184de667,2021-07-29_21h43.56.234,Simcolourproject_2stim_asymm_v5,2020.2.10,Win32,60,61025ae37ef11b136ea224fe,,,,,,,,,1287,-63,-45,1,0,0,response5disk,,2,-14,0,1,0,0,rectangle,-14,0,1,0,0,-14,0,1,0,0,0,122,122,144,1,,,,,,,,
,,,,,,,,,,,,,FF,,,,,,,,1.217345,,,,,,,,,,,,,,,,,,,,,,61030dd8991c249c718415b1,610366f3174d8bdd184de667,2021-07-29_21h43.56.234,Simcolourproject_2stim_asymm_v5,2020.2.10,Win32,60,61025ae37ef11b136ea224fe,,,,,,,,,3554,-62,-22,1,0,0,response5disk,,2,-7,6,1,0,0,rectangle,-7,6,1,0,0,-7,6,1,0,0,0,123,123,15,1,,,,,,,,
,,,,,,,,,,,,,FF,,,,,,,,0.784395,,,,,,,,,,,,,,,,,,,,,,61030dd8991c249c718415b1,610366f3174d8bdd184de667,2021-07-29_21h43.56.234,Simcolourproject_2stim_asymm_v5,2020.2.10,Win32,60,61025ae37ef11b136ea224fe,,,,,,,,,199,-25,-53,1,0,0,response5disk,,3,-1,-7,1,0,0,rectangle,-1,-7,1,0,0,-1,-7,1,0,0,0,124,124,69,1,,,,,,,,
,,,,,,,,,,,,,FF,,,,,,,,0.717065,,,,,,,,,,,,,,,,,,,,,,61030dd8991c249c718415b1,610366f3174d8bdd184de667,2021-07-29_21h43.56.234,Simcolourproject_2stim_asymm_v5,2020.2.10,Win32,60,61025ae37ef11b136ea224fe,,,,,,,,,1760,-77,-35,1,0,0,response5disk,,2,-25,8,1,0,0,rectangle,-25,8,1,0,0,-25,8,1,0,0,0,125,125,93,1,,,,,,,,
,,,,,,,,,,,,,FF,,,,,,,,0.93319,,,,,,,,,,,,,,,,,,,,,,61030dd8991c249c718415b1,610366f3174d8bdd184de667,2021-07-29_21h43.56.234,Simcolourproject_2stim_asymm_v5,2020.2.10,Win32,60,61025ae37ef11b136ea224fe,,,,,,,,,935,25,62,1,0,0,response1disk,,7,-23,-13,0,0,1,rectangle,-23,-13,0,0,1,-23,-13,0,0,1,0,126,126,135,1,,,,,,,,
,,,,,,,,,,,,,FF,,,,,,,,1.472865,,,,,,,,,,,,,,,,,,,,,,61030dd8991c249c718415b1,610366f3174d8bdd184de667,2021-07-29_21h43.56.234,Simcolourproject_2stim_asymm_v5,2020.2.10,Win32,60,61025ae37ef11b136ea224fe,,,,,,,,,4310,77,33,1,0,0,response1disk,,6,-6,2,1,0,0,rectangle,-6,2,1,0,0,-6,2,1,0,0,0,127,127,80,1,,,,,,,,
,,,,,,,,,,,,,FF,,,,,,,,0.87234,,,,,,,,,,,,,,,,,,,,,,61030dd8991c249c718415b1,610366f3174d8bdd184de667,2021-07-29_21h43.56.234,Simcolourproject_2stim_asymm_v5,2020.2.10,Win32,60,61025ae37ef11b136ea224fe,,,,,,,,,582,53,56,1,0,0,response1disk,,7,7,9,1,0,0,rectangle,7,9,1,0,0,7,9,1,0,0,0,128,128,106,1,,,,,,,,
,,,,,,,,,,,,,FF,,,,,,,,1.039305,,,,,,,,,,,,,,,,,,,,,,61030dd8991c249c718415b1,610366f3174d8bdd184de667,2021-07-29_21h43.56.234,Simcolourproject_2stim_asymm_v5,2020.2.10,Win32,60,61025ae37ef11b136ea224fe,,,,,,,,,1297,-84,-31,1,0,0,response5disk,,2,-5,3,1,0,0,rectangle,-5,3,1,0,0,-5,3,1,0,0,0,129,129,33,1,,,,,,,,
,,,,,,,,,,,,,FF,,,,,,,,0.773135,,,,,,,,,,,,,,,,,,,,,,61030dd8991c249c718415b1,610366f3174d8bdd184de667,2021-07-29_21h43.56.234,Simcolourproject_2stim_asymm_v5,2020.2.10,Win32,60,61025ae37ef11b136ea224fe,,,,,,,,,1862,26,73,1,0,0,response1disk,,7,-7,2,0,0,1,rectangle,-7,2,0,0,1,-7,2,0,0,1,0,130,130,121,1,,,,,,,,
,,,,,,,,,,,,,FF,,,,,,,,1.884445,,,,,,,,,,,,,,,,,,,,,,61030dd8991c249c718415b1,610366f3174d8bdd184de667,2021-07-29_21h43.56.234,Simcolourproject_2stim_asymm_v5,2020.2.10,Win32,60,61025ae37ef11b136ea224fe,,,,,,,,,541,69,31,1,0,0,response1disk,,6,9,-9,1,0,0,rectangle,9,-9,1,0,0,9,-9,1,0,0,0,131,131,116,1,,,,,,,,
,,,,,,,,,,,,,FF,,,,,,,,1.63942,,,,,,,,,,,,,,,,,,,,,,61030dd8991c249c718415b1,610366f3174d8bdd184de667,2021-07-29_21h43.56.234,Simcolourproject_2stim_asymm_v5,2020.2.10,Win32,60,61025ae37ef11b136ea224fe,,,,,,,,,726,-20,-42,1,0,0,response5disk,,3,3,3,1,0,0,rectangle,3,3,1,0,0,3,3,1,0,0,0,132,132,30,1,,,,,,,,
,,,,,,,,,,,,,FF,,,,,,,,1.08901,,,,,,,,,,,,,,,,,,,,,,61030dd8991c249c718415b1,610366f3174d8bdd184de667,2021-07-29_21h43.56.234,Simcolourproject_2stim_asymm_v5,2020.2.10,Win32,60,61025ae37ef11b136ea224fe,,,,,,,,,1208,59,34,1,0,0,response1disk,,6,-5,-14,1,0,0,rectangle,-5,-14,1,0,0,-5,-14,1,0,0,0,133,133,48,1,,,,,,,,
,,,,,,,,,,,,,FF,,,,,,,,1.32174,,,,,,,,,,,,,,,,,,,,,,61030dd8991c249c718415b1,610366f3174d8bdd184de667,2021-07-29_21h43.56.234,Simcolourproject_2stim_asymm_v5,2020.2.10,Win32,60,61025ae37ef11b136ea224fe,,,,,,,,,2717,-41,-52,1,0,0,response5disk,,3,-1,0,1,0,0,rectangle,-1,0,1,0,0,-1,0,1,0,0,0,134,134,5,1,,,,,,,,
,,,,,,,,,,,,,FF,,,,,,,,1.301475,,,,,,,,,,,,,,,,,,,,,,61030dd8991c249c718415b1,610366f3174d8bdd184de667,2021-07-29_21h43.56.234,Simcolourproject_2stim_asymm_v5,2020.2.10,Win32,60,61025ae37ef11b136ea224fe,,,,,,,,,404,34,72,1,0,0,response1disk,,7,-3,13,1,0,0,rectangle,-3,13,1,0,0,-3,13,1,0,0,0,135,135,62,1,,,,,,,,
,,,,,,,,,,,,,FF,,,,,,,,1.31916,,,,,,,,,,,,,,,,,,,,,,61030dd8991c249c718415b1,610366f3174d8bdd184de667,2021-07-29_21h43.56.234,Simcolourproject_2stim_asymm_v5,2020.2.10,Win32,60,61025ae37ef11b136ea224fe,,,,,,,,,730,81,-38,1,0,0,response3disk,,5,5,-5,1,0,0,rectangle,5,-5,1,0,0,5,-5,1,0,0,0,136,136,37,1,,,,,,,,
,,,,,,,,,,,,,FF,,,,,,,,0.99706,,,,,,,,,,,,,,,,,,,,,,61030dd8991c249c718415b1,610366f3174d8bdd184de667,2021-07-29_21h43.56.234,Simcolourproject_2stim_asymm_v5,2020.2.10,Win32,60,61025ae37ef11b136ea224fe,,,,,,,,,3051,56,-18,1,0,0,response3disk,,5,16,-3,1,0,0,rectangle,16,-3,1,0,0,16,-3,1,0,0,0,137,137,46,1,,,,,,,,
,,,,,,,,,,,,,FF,,,,,,,,1.03408,,,,,,,,,,,,,,,,,,,,,,61030dd8991c249c718415b1,610366f3174d8bdd184de667,2021-07-29_21h43.56.234,Simcolourproject_2stim_asymm_v5,2020.2.10,Win32,60,61025ae37ef11b136ea224fe,,,,,,,,,3789,83,31,1,0,0,response1disk,,6,19,6,1,0,0,rectangle,19,6,1,0,0,19,6,1,0,0,0,138,138,6,1,,,,,,,,
,,,,,,,,,,,,,FF,,,,,,,,0.536785,,,,,,,,,,,,,,,,,,,,,,61030dd8991c249c718415b1,610366f3174d8bdd184de667,2021-07-29_21h43.56.234,Simcolourproject_2stim_asymm_v5,2020.2.10,Win32,60,61025ae37ef11b136ea224fe,,,,,,,,,4004,98,56,1,0,0,response1disk,,6,25,-5,1,0,0,rectangle,25,-5,1,0,0,25,-5,1,0,0,0,139,139,13,1,,,,,,,,
,,,,,,,,,,,,,FF,,,,,,,,1.184195,,,,,,,,,,,,,,,,,,,,,,61030dd8991c249c718415b1,610366f3174d8bdd184de667,2021-07-29_21h43.56.234,Simcolourproject_2stim_asymm_v5,2020.2.10,Win32,60,61025ae37ef11b136ea224fe,,,,,,,,,3476,-51,-70,1,0,0,response5disk,,3,3,5,1,0,0,rectangle,3,5,1,0,0,3,5,1,0,0,0,140,140,25,1,,,,,,,,
,,,,,,,,,,,,,FF,,,,,,,,0.73377,,,,,,,,,,,,,,,,,,,,,,61030dd8991c249c718415b1,610366f3174d8bdd184de667,2021-07-29_21h43.56.234,Simcolourproject_2stim_asymm_v5,2020.2.10,Win32,60,61025ae37ef11b136ea224fe,,,,,,,,,858,67,38,1,0,0,response1disk,,6,16,-2,1,0,0,rectangle,-85,-57,1,0,0,2,4,1,0,0,0,141,141,157,1,,response5disk_3,TRUE,2,2,"[271,158,172,317,12,248,181,245,285,215,223,100,243,99,76,200,176,114,220,142]",2.817395,rectangle
,,,,,,,,,,,,,FF,,,,,,,,0.93394,,,,,,,,,,,,,,,,,,,,,,61030dd8991c249c718415b1,610366f3174d8bdd184de667,2021-07-29_21h43.56.234,Simcolourproject_2stim_asymm_v5,2020.2.10,Win32,60,61025ae37ef11b136ea224fe,,,,,,,,,1268,106,-35,1,0,0,response3disk,,5,-11,1,1,0,0,rectangle,-11,1,1,0,0,-11,1,1,0,0,0,142,142,64,1,,,,,,,,
,,,,,,,,,,,,,FF,,,,,,,,0.700815,,,,,,,,,,,,,,,,,,,,,,61030dd8991c249c718415b1,610366f3174d8bdd184de667,2021-07-29_21h43.56.234,Simcolourproject_2stim_asymm_v5,2020.2.10,Win32,60,61025ae37ef11b136ea224fe,,,,,,,,,3032,68,71,1,0,0,response1disk,,7,15,1,1,0,0,rectangle,15,1,1,0,0,15,1,1,0,0,0,143,143,75,1,,,,,,,,
,,,,,,,,,,,,,FF,,,,,,,,0.796355,,,,,,,,,,,,,,,,,,,,,,61030dd8991c249c718415b1,610366f3174d8bdd184de667,2021-07-29_21h43.56.234,Simcolourproject_2stim_asymm_v5,2020.2.10,Win32,60,61025ae37ef11b136ea224fe,,,,,,,,,617,63,44,1,0,0,response1disk,,6,-4,-12,1,0,0,rectangle,-4,-12,1,0,0,-4,-12,1,0,0,0,144,144,67,1,,,,,,,,
,,,,,,,,,,,,,FF,,,,,,,,0.750645,,,,,,,,,,,,,,,,,,,,,,61030dd8991c249c718415b1,610366f3174d8bdd184de667,2021-07-29_21h43.56.234,Simcolourproject_2stim_asymm_v5,2020.2.10,Win32,60,61025ae37ef11b136ea224fe,,,,,,,,,1989,30,68,1,0,0,response1disk,,7,-11,0,1,0,0,rectangle,-11,0,1,0,0,-11,0,1,0,0,0,145,145,39,1,,,,,,,,
,,,,,,,,,,,,,FF,,,,,,,,0.866215,,,,,,,,,,,,,,,,,,,,,,61030dd8991c249c718415b1,610366f3174d8bdd184de667,2021-07-29_21h43.56.234,Simcolourproject_2stim_asymm_v5,2020.2.10,Win32,60,61025ae37ef11b136ea224fe,,,,,,,,,2277,64,42,1,0,0,response1disk,,6,11,2,1,0,0,rectangle,11,2,1,0,0,11,2,1,0,0,0,146,146,90,1,,,,,,,,
,,,,,,,,,,,,,FF,,,,,,,,1.80088,,,,,,,,,,,,,,,,,,,,,,61030dd8991c249c718415b1,610366f3174d8bdd184de667,2021-07-29_21h43.56.234,Simcolourproject_2stim_asymm_v5,2020.2.10,Win32,60,61025ae37ef11b136ea224fe,,,,,,,,,1380,-33,-61,1,0,0,response5disk,,3,8,-1,1,0,0,rectangle,8,-1,1,0,0,8,-1,1,0,0,0,147,147,10,1,,,,,,,,
,,,,,,,,,,,,,FF,,,,,,,,1.28618,,,,,,,,,,,,,,,,,,,,,,61030dd8991c249c718415b1,610366f3174d8bdd184de667,2021-07-29_21h43.56.234,Simcolourproject_2stim_asymm_v5,2020.2.10,Win32,60,61025ae37ef11b136ea224fe,,,,,,,,,2461,86,-22,1,0,0,response3disk,,5,-17,-4,1,0,0,rectangle,-17,-4,1,0,0,-17,-4,1,0,0,0,148,148,24,1,,,,,,,,
,,,,,,,,,,,,,FF,,,,,,,,0.93433,,,,,,,,,,,,,,,,,,,,,,61030dd8991c249c718415b1,610366f3174d8bdd184de667,2021-07-29_21h43.56.234,Simcolourproject_2stim_asymm_v5,2020.2.10,Win32,60,61025ae37ef11b136ea224fe,,,,,,,,,4324,57,79,1,0,0,response1disk,,7,19,1,1,0,0,rectangle,19,1,1,0,0,19,1,1,0,0,0,149,149,20,1,,,,,,,,
,,,,,,,,,,,,,FF,,,,,,,,1.034785,,,,,,,,,,,,,,,,,,,,,,61030dd8991c249c718415b1,610366f3174d8bdd184de667,2021-07-29_21h43.56.234,Simcolourproject_2stim_asymm_v5,2020.2.10,Win32,60,61025ae37ef11b136ea224fe,,,,,,,,,2192,51,69,1,0,0,response1disk,,7,0,-12,1,0,0,rectangle,0,-12,1,0,0,0,-12,1,0,0,0,150,150,158,1,,,,,,,,
,,,,,,,,,,,,,FF,,,,,,,,0.684485,,,,,,,,,,,,,,,,,,,,,,61030dd8991c249c718415b1,610366f3174d8bdd184de667,2021-07-29_21h43.56.234,Simcolourproject_2stim_asymm_v5,2020.2.10,Win32,60,61025ae37ef11b136ea224fe,,,,,,,,,1425,42,67,1,0,0,response1disk,,7,-2,-4,1,0,0,rectangle,-2,-4,1,0,0,-2,-4,1,0,0,0,151,151,140,1,,,,,,,,
,,,,,,,,,,,,,FF,,,,,,,,0.63349,,,,,,,,,,,,,,,,,,,,,,61030dd8991c249c718415b1,610366f3174d8bdd184de667,2021-07-29_21h43.56.234,Simcolourproject_2stim_asymm_v5,2020.2.10,Win32,60,61025ae37ef11b136ea224fe,,,,,,,,,790,37,78,1,0,0,response1disk,,7,1,-5,1,0,0,rectangle,1,-5,1,0,0,1,-5,1,0,0,0,152,152,21,1,,,,,,,,
,,,,,,,,,,,,,FF,,,,,,,,1.65088,,,,,,,,,,,,,,,,,,,,,,61030dd8991c249c718415b1,610366f3174d8bdd184de667,2021-07-29_21h43.56.234,Simcolourproject_2stim_asymm_v5,2020.2.10,Win32,60,61025ae37ef11b136ea224fe,,,,,,,,,2154,30,-101,1,0,0,response3disk,,4,-10,-5,1,0,0,rectangle,-10,-5,1,0,0,-10,-5,1,0,0,0,153,153,9,1,,,,,,,,
,,,,,,,,,,,,,FF,,,,,,,,8.6372,,,,,,,,,,,,,,,,,,,,,,61030dd8991c249c718415b1,610366f3174d8bdd184de667,2021-07-29_21h43.56.234,Simcolourproject_2stim_asymm_v5,2020.2.10,Win32,60,61025ae37ef11b136ea224fe,,,,,,,,,3688,83,48,1,0,0,response1disk,,6,12,-15,1,0,0,rectangle,12,-15,1,0,0,12,-15,1,0,0,0,154,154,43,1,,,,,,,,
,,,,,,,,,,,,,FF,,,,,,,,0.817165,,,,,,,,,,,,,,,,,,,,,,61030dd8991c249c718415b1,610366f3174d8bdd184de667,2021-07-29_21h43.56.234,Simcolourproject_2stim_asymm_v5,2020.2.10,Win32,60,61025ae37ef11b136ea224fe,,,,,,,,,937,74,29,1,0,0,response1disk,,6,9,-2,1,0,0,rectangle,9,-2,1,0,0,9,-2,1,0,0,0,155,155,19,1,,,,,,,,
,,,,,,,,,,,,,FF,,,,,,,,1.167405,,,,,,,,,,,,,,,,,,,,,,61030dd8991c249c718415b1,610366f3174d8bdd184de667,2021-07-29_21h43.56.234,Simcolourproject_2stim_asymm_v5,2020.2.10,Win32,60,61025ae37ef11b136ea224fe,,,,,,,,,4094,58,105,1,0,0,response1disk,,7,17,12,1,0,0,rectangle,17,12,1,0,0,17,12,1,0,0,0,156,156,110,1,,,,,,,,
,,,,,,,,,,,,,FF,,,,,,,,2.685535,,,,,,,,,,,,,,,,,,,,,,61030dd8991c249c718415b1,610366f3174d8bdd184de667,2021-07-29_21h43.56.234,Simcolourproject_2stim_asymm_v5,2020.2.10,Win32,60,61025ae37ef11b136ea224fe,,,,,,,,,3292,-33,-68,1,0,0,response5disk,,3,-15,-2,1,0,0,rectangle,-89,-41,1,0,0,0,0,1,0,0,0,157,157,159,1,,response5disk_3,TRUE,2,2,"[271,158,172,317,12,248,181,245,285,215,223,100,243,99,76,200,176,114,220,142]",1.900505,rectangle
,,,,,,,,,,,,,FF,,,,,,,,0.885075,,,,,,,,,,,,,,,,,,,,,,61030dd8991c249c718415b1,610366f3174d8bdd184de667,2021-07-29_21h43.56.234,Simcolourproject_2stim_asymm_v5,2020.2.10,Win32,60,61025ae37ef11b136ea224fe,,,,,,,,,2625,28,87,1,0,0,response1disk,,7,-6,5,1,0,0,rectangle,-6,5,1,0,0,-6,5,1,0,0,0,158,158,2,1,,,,,,,,
,,,,,,,,,,,,,FF,,,,,,,,3.579615,,,,,,,,,,,,,,,,,,,,,,61030dd8991c249c718415b1,610366f3174d8bdd184de667,2021-07-29_21h43.56.234,Simcolourproject_2stim_asymm_v5,2020.2.10,Win32,60,61025ae37ef11b136ea224fe,,,,,,,,,2998,-77,-26,1,0,0,response5disk,,2,9,-4,1,0,0,rectangle,9,-4,1,0,0,9,-4,1,0,0,0,159,159,126,1,,,,,,,,
,,,,,,,,,,,,,FF,,,,,,,,1.16741,,,,,,,,,,,,,,,,,,,,,,61030dd8991c249c718415b1,610366f3174d8bdd184de667,2021-07-29_21h43.56.234,Simcolourproject_2stim_asymm_v5,2020.2.10,Win32,60,61025ae37ef11b136ea224fe,,,,,,,,,2152,-51,-85,1,0,0,response5disk,,3,14,2,1,0,0,rectangle,14,2,1,0,0,14,2,1,0,0,1,0,160,43,1,,,,,,,,
,,,,,,,,,,,,,FF,,,,,,,,1.017285,,,,,,,,,,,,,,,,,,,,,,61030dd8991c249c718415b1,610366f3174d8bdd184de667,2021-07-29_21h43.56.234,Simcolourproject_2stim_asymm_v5,2020.2.10,Win32,60,61025ae37ef11b136ea224fe,,,,,,,,,2956,45,56,1,0,0,response1disk,,7,23,3,1,0,0,rectangle,23,3,1,0,0,23,3,1,0,0,1,1,161,148,1,,,,,,,,
,,,,,,,,,,,,,FF,,,,,,,,1.4177,,,,,,,,,,,,,,,,,,,,,,61030dd8991c249c718415b1,610366f3174d8bdd184de667,2021-07-29_21h43.56.234,Simcolourproject_2stim_asymm_v5,2020.2.10,Win32,60,61025ae37ef11b136ea224fe,,,,,,,,,4202,52,-32,1,0,0,response3disk,,5,-19,3,1,0,0,rectangle,-19,3,1,0,0,-19,3,1,0,0,1,2,162,125,1,,,,,,,,
,,,,,,,,,,,,,FF,,,,,,,,0.850645,,,,,,,,,,,,,,,,,,,,,,61030dd8991c249c718415b1,610366f3174d8bdd184de667,2021-07-29_21h43.56.234,Simcolourproject_2stim_asymm_v5,2020.2.10,Win32,60,61025ae37ef11b136ea224fe,,,,,,,,,3657,32,-57,1,0,0,response3disk,,4,4,2,1,0,0,rectangle,4,2,1,0,0,4,2,1,0,0,1,3,163,104,1,,,,,,,,
,,,,,,,,,,,,,FF,,,,,,,,1.117185,,,,,,,,,,,,,,,,,,,,,,61030dd8991c249c718415b1,610366f3174d8bdd184de667,2021-07-29_21h43.56.234,Simcolourproject_2stim_asymm_v5,2020.2.10,Win32,60,61025ae37ef11b136ea224fe,,,,,,,,,4171,-38,-68,1,0,0,response5disk,,3,7,2,1,0,0,rectangle,7,2,1,0,0,7,2,1,0,0,1,4,164,153,1,,,,,,,,
,,,,,,,,,,,,,FF,,,,,,,,1.567575,,,,,,,,,,,,,,,,,,,,,,61030dd8991c249c718415b1,610366f3174d8bdd184de667,2021-07-29_21h43.56.234,Simcolourproject_2stim_asymm_v5,2020.2.10,Win32,60,61025ae37ef11b136ea224fe,,,,,,,,,4045,28,81,1,0,0,response1disk,,7,10,13,1,0,0,rectangle,10,13,1,0,0,10,13,1,0,0,1,5,165,10,1,,,,,,,,
,,,,,,,,,,,,,FF,,,,,,,,1.467575,,,,,,,,,,,,,,,,,,,,,,61030dd8991c249c718415b1,610366f3174d8bdd184de667,2021-07-29_21h43.56.234,Simcolourproject_2stim_asymm_v5,2020.2.10,Win32,60,61025ae37ef11b136ea224fe,,,,,,,,,3586,-27,-23,1,0,0,response5disk,,2,4,12,1,0,0,rectangle,4,12,1,0,0,4,12,1,0,0,1,6,166,102,1,,,,,,,,
,,,,,,,,,,,,,FF,,,,,,,,1.30058,,,,,,,,,,,,,,,,,,,,,,61030dd8991c249c718415b1,610366f3174d8bdd184de667,2021-07-29_21h43.56.234,Simcolourproject_2stim_asymm_v5,2020.2.10,Win32,60,61025ae37ef11b136ea224fe,,,,,,,,,3996,-84,-44,1,0,0,response5disk,,2,13,10,1,0,0,rectangle,13,10,1,0,0,13,10,1,0,0,1,7,167,0,1,,,,,,,,
,,,,,,,,,,,,,FF,,,,,,,,1.03361,,,,,,,,,,,,,,,,,,,,,,61030dd8991c249c718415b1,610366f3174d8bdd184de667,2021-07-29_21h43.56.234,Simcolourproject_2stim_asymm_v5,2020.2.10,Win32,60,61025ae37ef11b136ea224fe,,,,,,,,,2898,-32,-92,1,0,0,response5disk,,3,10,7,1,0,0,rectangle,10,7,1,0,0,10,7,1,0,0,1,8,168,123,1,,,,,,,,
,,,,,,,,,,,,,FF,,,,,,,,0.8171,,,,,,,,,,,,,,,,,,,,,,61030dd8991c249c718415b1,610366f3174d8bdd184de667,2021-07-29_21h43.56.234,Simcolourproject_2stim_asymm_v5,2020.2.10,Win32,60,61025ae37ef11b136ea224fe,,,,,,,,,1088,27,80,1,0,0,response1disk,,7,-9,2,1,0,0,rectangle,-9,2,1,0,0,-9,2,1,0,0,1,9,169,59,1,,,,,,,,
,,,,,,,,,,,,,FF,,,,,,,,1.334625,,,,,,,,,,,,,,,,,,,,,,61030dd8991c249c718415b1,610366f3174d8bdd184de667,2021-07-29_21h43.56.234,Simcolourproject_2stim_asymm_v5,2020.2.10,Win32,60,61025ae37ef11b136ea224fe,,,,,,,,,2381,57,-51,1,0,0,response3disk,,5,-4,2,1,0,0,rectangle,-4,2,1,0,0,-4,2,1,0,0,1,10,170,12,1,,,,,,,,
,,,,,,,,,,,,,FF,,,,,,,,1.4701,,,,,,,,,,,,,,,,,,,,,,61030dd8991c249c718415b1,610366f3174d8bdd184de667,2021-07-29_21h43.56.234,Simcolourproject_2stim_asymm_v5,2020.2.10,Win32,60,61025ae37ef11b136ea224fe,,,,,,,,,2546,-83,-39,1,0,0,response5disk,,2,25,3,1,0,0,rectangle,-85,47,1,0,0,8,-8,1,0,0,1,11,171,80,1,,response7disk_3,TRUE,1,1,"[271,158,172,317,12,248,181,245,285,215,223,100,243,99,76,200,176,114,220,142]",1.917005,rectangle
,,,,,,,,,,,,,FF,,,,,,,,1.22036,,,,,,,,,,,,,,,,,,,,,,61030dd8991c249c718415b1,610366f3174d8bdd184de667,2021-07-29_21h43.56.234,Simcolourproject_2stim_asymm_v5,2020.2.10,Win32,60,61025ae37ef11b136ea224fe,,,,,,,,,2358,-80,-49,1,0,0,response5disk,,2,6,-9,1,0,0,rectangle,6,-9,1,0,0,6,-9,1,0,0,1,12,172,89,1,,,,,,,,
,,,,,,,,,,,,,FF,,,,,,,,0.799955,,,,,,,,,,,,,,,,,,,,,,61030dd8991c249c718415b1,610366f3174d8bdd184de667,2021-07-29_21h43.56.234,Simcolourproject_2stim_asymm_v5,2020.2.10,Win32,60,61025ae37ef11b136ea224fe,,,,,,,,,107,-25,-69,1,0,0,response5disk,,3,13,0,1,0,0,rectangle,13,0,1,0,0,13,0,1,0,0,1,13,173,144,1,,,,,,,,
,,,,,,,,,,,,,FF,,,,,,,,0.935125,,,,,,,,,,,,,,,,,,,,,,61030dd8991c249c718415b1,610366f3174d8bdd184de667,2021-07-29_21h43.56.234,Simcolourproject_2stim_asymm_v5,2020.2.10,Win32,60,61025ae37ef11b136ea224fe,,,,,,,,,3456,32,75,1,0,0,response1disk,,7,-19,-1,1,0,0,rectangle,-19,-1,1,0,0,-19,-1,1,0,0,1,14,174,9,1,,,,,,,,
,,,,,,,,,,,,,FF,,,,,,,,1.47186,,,,,,,,,,,,,,,,,,,,,,61030dd8991c249c718415b1,610366f3174d8bdd184de667,2021-07-29_21h43.56.234,Simcolourproject_2stim_asymm_v5,2020.2.10,Win32,60,61025ae37ef11b136ea224fe,,,,,,,,,2343,38,72,1,0,0,response1disk,,7,1,-2,1,0,0,rectangle,-27,-87,1,0,0,6,-5,1,0,0,1,15,175,117,1,,response5disk_3,TRUE,3,1,"[271,158,172,317,12,248,181,245,285,215,223,100,243,99,76,200,176,114,220,142]",5.24789,rectangle
,,,,,,,,,,,,,FF,,,,,,,,0.98415,,,,,,,,,,,,,,,,,,,,,,61030dd8991c249c718415b1,610366f3174d8bdd184de667,2021-07-29_21h43.56.234,Simcolourproject_2stim_asymm_v5,2020.2.10,Win32,60,61025ae37ef11b136ea224fe,,,,,,,,,2509,42,73,1,0,0,response1disk,,7,-5,-12,1,0,0,rectangle,-5,-12,1,0,0,-5,-12,1,0,0,1,16,176,53,1,,,,,,,,
,,,,,,,,,,,,,FF,,,,,,,,1.63569,,,,,,,,,,,,,,,,,,,,,,61030dd8991c249c718415b1,610366f3174d8bdd184de667,2021-07-29_21h43.56.234,Simcolourproject_2stim_asymm_v5,2020.2.10,Win32,60,61025ae37ef11b136ea224fe,,,,,,,,,597,-24,-86,1,0,0,response5disk,,3,25,-6,1,0,0,rectangle,25,-6,1,0,0,25,-6,1,0,0,1,17,177,95,1,,,,,,,,
,,,,,,,,,,,,,FF,,,,,,,,1.28963,,,,,,,,,,,,,,,,,,,,,,61030dd8991c249c718415b1,610366f3174d8bdd184de667,2021-07-29_21h43.56.234,Simcolourproject_2stim_asymm_v5,2020.2.10,Win32,60,61025ae37ef11b136ea224fe,,,,,,,,,2936,-65,-28,1,0,0,response5disk,,2,11,7,1,0,0,rectangle,11,7,1,0,0,11,7,1,0,0,1,18,178,60,1,,,,,,,,
,,,,,,,,,,,,,FF,,,,,,,,0.834025,,,,,,,,,,,,,,,,,,,,,,61030dd8991c249c718415b1,610366f3174d8bdd184de667,2021-07-29_21h43.56.234,Simcolourproject_2stim_asymm_v5,2020.2.10,Win32,60,61025ae37ef11b136ea224fe,,,,,,,,,3360,45,75,1,0,0,response1disk,,7,1,-4,1,0,0,rectangle,1,-4,1,0,0,1,-4,1,0,0,1,19,179,156,1,,,,,,,,
,,,,,,,,,,,,,FF,,,,,,,,1.202665,,,,,,,,,,,,,,,,,,,,,,61030dd8991c249c718415b1,610366f3174d8bdd184de667,2021-07-29_21h43.56.234,Simcolourproject_2stim_asymm_v5,2020.2.10,Win32,60,61025ae37ef11b136ea224fe,,,,,,,,,1789,70,-24,1,0,0,response3disk,,5,-1,-5,1,0,0,rectangle,-32,-73,1,0,0,9,-2,1,0,0,1,20,180,137,1,,response5disk_3,TRUE,3,3,"[271,158,172,317,12,248,181,245,285,215,223,100,243,99,76,200,176,114,220,142]",1.76705,rectangle
,,,,,,,,,,,,,FF,,,,,,,,1.217705,,,,,,,,,,,,,,,,,,,,,,61030dd8991c249c718415b1,610366f3174d8bdd184de667,2021-07-29_21h43.56.234,Simcolourproject_2stim_asymm_v5,2020.2.10,Win32,60,61025ae37ef11b136ea224fe,,,,,,,,,628,65,36,1,0,0,response1disk,,6,5,-14,1,0,0,rectangle,5,-14,1,0,0,5,-14,1,0,0,1,21,181,131,1,,,,,,,,
,,,,,,,,,,,,,FF,,,,,,,,1.017525,,,,,,,,,,,,,,,,,,,,,,61030dd8991c249c718415b1,610366f3174d8bdd184de667,2021-07-29_21h43.56.234,Simcolourproject_2stim_asymm_v5,2020.2.10,Win32,60,61025ae37ef11b136ea224fe,,,,,,,,,3311,-19,-76,1,0,0,response5disk,,3,27,-3,1,0,0,rectangle,27,-3,1,0,0,27,-3,1,0,0,1,22,182,57,1,,,,,,,,
,,,,,,,,,,,,,FF,,,,,,,,2.00149,,,,,,,,,,,,,,,,,,,,,,61030dd8991c249c718415b1,610366f3174d8bdd184de667,2021-07-29_21h43.56.234,Simcolourproject_2stim_asymm_v5,2020.2.10,Win32,60,61025ae37ef11b136ea224fe,,,,,,,,,3163,-87,-57,1,0,0,response5disk,,2,10,5,1,0,0,rectangle,10,5,1,0,0,10,5,1,0,0,1,23,183,105,1,,,,,,,,
,,,,,,,,,,,,,FF,,,,,,,,1.000605,,,,,,,,,,,,,,,,,,,,,,61030dd8991c249c718415b1,610366f3174d8bdd184de667,2021-07-29_21h43.56.234,Simcolourproject_2stim_asymm_v5,2020.2.10,Win32,60,61025ae37ef11b136ea224fe,,,,,,,,,158,-28,-67,1,0,0,response5disk,,3,5,-14,1,0,0,rectangle,5,-14,1,0,0,5,-14,1,0,0,1,24,184,73,1,,,,,,,,
,,,,,,,,,,,,,FF,,,,,,,,0.867,,,,,,,,,,,,,,,,,,,,,,61030dd8991c249c718415b1,610366f3174d8bdd184de667,2021-07-29_21h43.56.234,Simcolourproject_2stim_asymm_v5,2020.2.10,Win32,60,61025ae37ef11b136ea224fe,,,,,,,,,589,29,57,1,0,0,response1disk,,7,-2,-4,1,0,0,rectangle,-2,-4,1,0,0,-2,-4,1,0,0,1,25,185,40,1,,,,,,,,
,,,,,,,,,,,,,FF,,,,,,,,0.83448,,,,,,,,,,,,,,,,,,,,,,61030dd8991c249c718415b1,610366f3174d8bdd184de667,2021-07-29_21h43.56.234,Simcolourproject_2stim_asymm_v5,2020.2.10,Win32,60,61025ae37ef11b136ea224fe,,,,,,,,,671,39,80,1,0,0,response1disk,,7,-2,0,1,0,0,rectangle,-2,0,1,0,0,-2,0,1,0,0,1,26,186,33,1,,,,,,,,
,,,,,,,,,,,,,FF,,,,,,,,0.937295,,,,,,,,,,,,,,,,,,,,,,61030dd8991c249c718415b1,610366f3174d8bdd184de667,2021-07-29_21h43.56.234,Simcolourproject_2stim_asymm_v5,2020.2.10,Win32,60,61025ae37ef11b136ea224fe,,,,,,,,,1031,74,46,1,0,0,response1disk,,6,5,-3,1,0,0,rectangle,5,-3,1,0,0,5,-3,1,0,0,1,27,187,100,1,,,,,,,,
,,,,,,,,,,,,,FF,,,,,,,,1.06726,,,,,,,,,,,,,,,,,,,,,,61030dd8991c249c718415b1,610366f3174d8bdd184de667,2021-07-29_21h43.56.234,Simcolourproject_2stim_asymm_v5,2020.2.10,Win32,60,61025ae37ef11b136ea224fe,,,,,,,,,4173,53,98,1,0,0,response1disk,,7,8,13,1,0,0,rectangle,8,13,1,0,0,8,13,1,0,0,1,28,188,62,1,,,,,,,,
,,,,,,,,,,,,,FF,,,,,,,,0.802905,,,,,,,,,,,,,,,,,,,,,,61030dd8991c249c718415b1,610366f3174d8bdd184de667,2021-07-29_21h43.56.234,Simcolourproject_2stim_asymm_v5,2020.2.10,Win32,60,61025ae37ef11b136ea224fe,,,,,,,,,1902,59,-53,1,0,0,response3disk,,5,-15,5,1,0,0,rectangle,-15,5,1,0,0,-15,5,1,0,0,1,29,189,108,1,,,,,,,,
,,,,,,,,,,,,,FF,,,,,,,,1.234475,,,,,,,,,,,,,,,,,,,,,,61030dd8991c249c718415b1,610366f3174d8bdd184de667,2021-07-29_21h43.56.234,Simcolourproject_2stim_asymm_v5,2020.2.10,Win32,60,61025ae37ef11b136ea224fe,,,,,,,,,3912,-81,-34,1,0,0,response5disk,,2,0,2,1,0,0,rectangle,0,2,1,0,0,0,2,1,0,0,1,30,190,159,1,,,,,,,,
,,,,,,,,,,,,,FF,,,,,,,,1.067715,,,,,,,,,,,,,,,,,,,,,,61030dd8991c249c718415b1,610366f3174d8bdd184de667,2021-07-29_21h43.56.234,Simcolourproject_2stim_asymm_v5,2020.2.10,Win32,60,61025ae37ef11b136ea224fe,,,,,,,,,3535,-28,-75,1,0,0,response5disk,,3,19,-1,1,0,0,rectangle,19,-1,1,0,0,19,-1,1,0,0,1,31,191,119,1,,,,,,,,
,,,,,,,,,,,,,FF,,,,,,,,1.100885,,,,,,,,,,,,,,,,,,,,,,61030dd8991c249c718415b1,610366f3174d8bdd184de667,2021-07-29_21h43.56.234,Simcolourproject_2stim_asymm_v5,2020.2.10,Win32,60,61025ae37ef11b136ea224fe,,,,,,,,,3285,-77,43,1,0,0,response7disk,,1,18,0,1,0,0,rectangle,18,0,1,0,0,18,0,1,0,0,1,32,192,41,1,,,,,,,,
,,,,,,,,,,,,,FF,,,,,,,,1.78418,,,,,,,,,,,,,,,,,,,,,,61030dd8991c249c718415b1,610366f3174d8bdd184de667,2021-07-29_21h43.56.234,Simcolourproject_2stim_asymm_v5,2020.2.10,Win32,60,61025ae37ef11b136ea224fe,,,,,,,,,1914,60,-45,1,0,0,response3disk,,5,-7,-8,1,0,0,rectangle,-7,-8,1,0,0,-7,-8,1,0,0,1,33,193,74,1,,,,,,,,
,,,,,,,,,,,,,FF,,,,,,,,1.48401,,,,,,,,,,,,,,,,,,,,,,61030dd8991c249c718415b1,610366f3174d8bdd184de667,2021-07-29_21h43.56.234,Simcolourproject_2stim_asymm_v5,2020.2.10,Win32,60,61025ae37ef11b136ea224fe,,,,,,,,,3592,-84,26,1,0,0,response7disk,,1,12,0,1,0,0,rectangle,12,0,1,0,0,12,0,1,0,0,1,34,194,1,1,,,,,,,,
,,,,,,,,,,,,,FF,,,,,,,,1.167065,,,,,,,,,,,,,,,,,,,,,,61030dd8991c249c718415b1,610366f3174d8bdd184de667,2021-07-29_21h43.56.234,Simcolourproject_2stim_asymm_v5,2020.2.10,Win32,60,61025ae37ef11b136ea224fe,,,,,,,,,1489,105,-17,1,0,0,response3disk,,5,1,7,1,0,0,rectangle,1,7,1,0,0,1,7,1,0,0,1,35,195,4,1,,,,,,,,
,,,,,,,,,,,,,FF,,,,,,,,0.785405,,,,,,,,,,,,,,,,,,,,,,61030dd8991c249c718415b1,610366f3174d8bdd184de667,2021-07-29_21h43.56.234,Simcolourproject_2stim_asymm_v5,2020.2.10,Win32,60,61025ae37ef11b136ea224fe,,,,,,,,,4289,47,79,1,0,0,response1disk,,7,4,6,1,0,0,rectangle,4,6,1,0,0,4,6,1,0,0,1,36,196,50,1,,,,,,,,
,,,,,,,,,,,,,FF,,,,,,,,0.800105,,,,,,,,,,,,,,,,,,,,,,61030dd8991c249c718415b1,610366f3174d8bdd184de667,2021-07-29_21h43.56.234,Simcolourproject_2stim_asymm_v5,2020.2.10,Win32,60,61025ae37ef11b136ea224fe,,,,,,,,,1348,70,-39,1,0,0,response3disk,,5,12,1,1,0,0,rectangle,12,1,1,0,0,12,1,1,0,0,1,37,197,23,1,,,,,,,,
,,,,,,,,,,,,,FF,,,,,,,,0.75078,,,,,,,,,,,,,,,,,,,,,,61030dd8991c249c718415b1,610366f3174d8bdd184de667,2021-07-29_21h43.56.234,Simcolourproject_2stim_asymm_v5,2020.2.10,Win32,60,61025ae37ef11b136ea224fe,,,,,,,,,2599,80,47,1,0,0,response1disk,,6,34,5,1,0,0,rectangle,34,5,1,0,0,34,5,1,0,0,1,38,198,107,1,,,,,,,,
,,,,,,,,,,,,,FF,,,,,,,,1.46879,,,,,,,,,,,,,,,,,,,,,,61030dd8991c249c718415b1,610366f3174d8bdd184de667,2021-07-29_21h43.56.234,Simcolourproject_2stim_asymm_v5,2020.2.10,Win32,60,61025ae37ef11b136ea224fe,,,,,,,,,3150,-46,-90,1,0,0,response5disk,,3,33,-13,1,0,0,rectangle,33,83,1,0,0,2,7,1,0,0,1,39,199,112,1,,response1disk_3,TRUE,7,7,"[271,158,172,317,12,248,181,245,285,215,223,100,243,99,76,200,176,114,220,142]",2.98503,rectangle
,,,,,,,,,,,,,FF,,,,,,,,1.034145,,,,,,,,,,,,,,,,,,,,,,61030dd8991c249c718415b1,610366f3174d8bdd184de667,2021-07-29_21h43.56.234,Simcolourproject_2stim_asymm_v5,2020.2.10,Win32,60,61025ae37ef11b136ea224fe,,,,,,,,,2050,27,85,1,0,0,response1disk,,7,-7,4,1,0,0,rectangle,-7,4,1,0,0,-7,4,1,0,0,1,40,200,24,1,,,,,,,,
,,,,,,,,,,,,,FF,,,,,,,,0.984105,,,,,,,,,,,,,,,,,,,,,,61030dd8991c249c718415b1,610366f3174d8bdd184de667,2021-07-29_21h43.56.234,Simcolourproject_2stim_asymm_v5,2020.2.10,Win32,60,61025ae37ef11b136ea224fe,,,,,,,,,3838,-29,-57,1,0,0,response5disk,,3,2,-7,1,0,0,rectangle,2,-7,1,0,0,2,-7,1,0,0,1,41,201,58,1,,,,,,,,
,,,,,,,,,,,,,FF,,,,,,,,0.68366,,,,,,,,,,,,,,,,,,,,,,61030dd8991c249c718415b1,610366f3174d8bdd184de667,2021-07-29_21h43.56.234,Simcolourproject_2stim_asymm_v5,2020.2.10,Win32,60,61025ae37ef11b136ea224fe,,,,,,,,,1571,40,72,1,0,0,response1disk,,7,5,-5,1,0,0,rectangle,5,-5,1,0,0,5,-5,1,0,0,1,42,202,34,1,,,,,,,,
,,,,,,,,,,,,,FF,,,,,,,,1.43414,,,,,,,,,,,,,,,,,,,,,,61030dd8991c249c718415b1,610366f3174d8bdd184de667,2021-07-29_21h43.56.234,Simcolourproject_2stim_asymm_v5,2020.2.10,Win32,60,61025ae37ef11b136ea224fe,,,,,,,,,4249,42,63,1,0,0,response1disk,,7,2,-1,1,0,0,rectangle,2,-1,1,0,0,2,-1,1,0,0,1,43,203,11,1,,,,,,,,
,,,,,,,,,,,,,FF,,,,,,,,1.00065,,,,,,,,,,,,,,,,,,,,,,61030dd8991c249c718415b1,610366f3174d8bdd184de667,2021-07-29_21h43.56.234,Simcolourproject_2stim_asymm_v5,2020.2.10,Win32,60,61025ae37ef11b136ea224fe,,,,,,,,,155,37,94,1,0,0,response1disk,,7,-5,-9,1,0,0,rectangle,-5,-9,1,0,0,-5,-9,1,0,0,1,44,204,114,1,,,,,,,,
,,,,,,,,,,,,,FF,,,,,,,,0.867265,,,,,,,,,,,,,,,,,,,,,,61030dd8991c249c718415b1,610366f3174d8bdd184de667,2021-07-29_21h43.56.234,Simcolourproject_2stim_asymm_v5,2020.2.10,Win32,60,61025ae37ef11b136ea224fe,,,,,,,,,2074,65,30,1,0,0,response1disk,,6,0,4,1,0,0,rectangle,0,4,1,0,0,0,4,1,0,0,1,45,205,149,1,,,,,,,,
,,,,,,,,,,,,,FF,,,,,,,,0.800775,,,,,,,,,,,,,,,,,,,,,,61030dd8991c249c718415b1,610366f3174d8bdd184de667,2021-07-29_21h43.56.234,Simcolourproject_2stim_asymm_v5,2020.2.10,Win32,60,61025ae37ef11b136ea224fe,,,,,,,,,1365,35,76,1,0,0,response1disk,,7,6,9,1,0,0,rectangle,6,9,1,0,0,6,9,1,0,0,1,46,206,113,1,,,,,,,,
,,,,,,,,,,,,,FF,,,,,,,,0.817355,,,,,,,,,,,,,,,,,,,,,,61030dd8991c249c718415b1,610366f3174d8bdd184de667,2021-07-29_21h43.56.234,Simcolourproject_2stim_asymm_v5,2020.2.10,Win32,60,61025ae37ef11b136ea224fe,,,,,,,,,2873,36,66,1,0,0,response1disk,,7,14,11,1,0,0,rectangle,14,11,1,0,0,14,11,1,0,0,1,47,207,83,1,,,,,,,,
,,,,,,,,,,,,,FF,,,,,,,,1.23416,,,,,,,,,,,,,,,,,,,,,,61030dd8991c249c718415b1,610366f3174d8bdd184de667,2021-07-29_21h43.56.234,Simcolourproject_2stim_asymm_v5,2020.2.10,Win32,60,61025ae37ef11b136ea224fe,,,,,,,,,838,70,-29,1,0,0,response3disk,,5,-6,-8,1,0,0,rectangle,-6,-8,1,0,0,-6,-8,1,0,0,1,48,208,110,1,,,,,,,,
,,,,,,,,,,,,,FF,,,,,,,,0.75056,,,,,,,,,,,,,,,,,,,,,,61030dd8991c249c718415b1,610366f3174d8bdd184de667,2021-07-29_21h43.56.234,Simcolourproject_2stim_asymm_v5,2020.2.10,Win32,60,61025ae37ef11b136ea224fe,,,,,,,,,2312,53,80,1,0,0,response1disk,,7,8,-15,1,0,0,rectangle,8,-15,1,0,0,8,-15,1,0,0,1,49,209,132,1,,,,,,,,
,,,,,,,,,,,,,FF,,,,,,,,1.000755,,,,,,,,,,,,,,,,,,,,,,61030dd8991c249c718415b1,610366f3174d8bdd184de667,2021-07-29_21h43.56.234,Simcolourproject_2stim_asymm_v5,2020.2.10,Win32,60,61025ae37ef11b136ea224fe,,,,,,,,,3128,34,82,1,0,0,response1disk,,7,3,1,1,0,0,rectangle,3,1,1,0,0,3,1,1,0,0,1,50,210,27,1,,,,,,,,
,,,,,,,,,,,,,FF,,,,,,,,0.76721,,,,,,,,,,,,,,,,,,,,,,61030dd8991c249c718415b1,610366f3174d8bdd184de667,2021-07-29_21h43.56.234,Simcolourproject_2stim_asymm_v5,2020.2.10,Win32,60,61025ae37ef11b136ea224fe,,,,,,,,,3570,40,76,1,0,0,response1disk,,7,2,-4,1,0,0,rectangle,2,-4,1,0,0,2,-4,1,0,0,1,51,211,49,1,,,,,,,,
,,,,,,,,,,,,,FF,,,,,,,,1.434085,,,,,,,,,,,,,,,,,,,,,,61030dd8991c249c718415b1,610366f3174d8bdd184de667,2021-07-29_21h43.56.234,Simcolourproject_2stim_asymm_v5,2020.2.10,Win32,60,61025ae37ef11b136ea224fe,,,,,,,,,1607,-26,-102,1,0,0,response5disk,,3,9,-7,1,0,0,rectangle,9,-7,1,0,0,9,-7,1,0,0,1,52,212,39,1,,,,,,,,
,,,,,,,,,,,,,FF,,,,,,,,1.418205,,,,,,,,,,,,,,,,,,,,,,61030dd8991c249c718415b1,610366f3174d8bdd184de667,2021-07-29_21h43.56.234,Simcolourproject_2stim_asymm_v5,2020.2.10,Win32,60,61025ae37ef11b136ea224fe,,,,,,,,,2879,-34,-53,1,0,0,response5disk,,3,7,5,1,0,0,rectangle,7,5,1,0,0,7,5,1,0,0,1,53,213,99,1,,,,,,,,
,,,,,,,,,,,,,FF,,,,,,,,0.917075,,,,,,,,,,,,,,,,,,,,,,61030dd8991c249c718415b1,610366f3174d8bdd184de667,2021-07-29_21h43.56.234,Simcolourproject_2stim_asymm_v5,2020.2.10,Win32,60,61025ae37ef11b136ea224fe,,,,,,,,,220,42,-51,1,0,0,response3disk,,4,21,2,1,0,0,rectangle,-48,57,1,0,0,-6,-2,1,0,0,1,54,214,2,1,,response7disk_3,TRUE,0,0,"[271,158,172,317,12,248,181,245,285,215,223,100,243,99,76,200,176,114,220,142]",1.867385,rectangle
,,,,,,,,,,,,,FF,,,,,,,,1.78425,,,,,,,,,,,,,,,,,,,,,,61030dd8991c249c718415b1,610366f3174d8bdd184de667,2021-07-29_21h43.56.234,Simcolourproject_2stim_asymm_v5,2020.2.10,Win32,60,61025ae37ef11b136ea224fe,,,,,,,,,1130,25,91,1,0,0,response1disk,,7,-1,4,1,0,0,rectangle,-1,4,1,0,0,-1,4,1,0,0,1,55,215,28,1,,,,,,,,
,,,,,,,,,,,,,FF,,,,,,,,0.967255,,,,,,,,,,,,,,,,,,,,,,61030dd8991c249c718415b1,610366f3174d8bdd184de667,2021-07-29_21h43.56.234,Simcolourproject_2stim_asymm_v5,2020.2.10,Win32,60,61025ae37ef11b136ea224fe,,,,,,,,,879,-60,-38,1,0,0,response5disk,,2,-15,-1,1,0,0,rectangle,-15,-1,1,0,0,-15,-1,1,0,0,1,56,216,69,1,,,,,,,,
,,,,,,,,,,,,,FF,,,,,,,,0.88383,,,,,,,,,,,,,,,,,,,,,,61030dd8991c249c718415b1,610366f3174d8bdd184de667,2021-07-29_21h43.56.234,Simcolourproject_2stim_asymm_v5,2020.2.10,Win32,60,61025ae37ef11b136ea224fe,,,,,,,,,295,36,62,1,0,0,response1disk,,7,7,6,1,0,0,rectangle,7,6,1,0,0,7,6,1,0,0,1,57,217,115,1,,,,,,,,
,,,,,,,,,,,,,FF,,,,,,,,1.367365,,,,,,,,,,,,,,,,,,,,,,61030dd8991c249c718415b1,610366f3174d8bdd184de667,2021-07-29_21h43.56.234,Simcolourproject_2stim_asymm_v5,2020.2.10,Win32,60,61025ae37ef11b136ea224fe,,,,,,,,,2158,28,59,1,0,0,response1disk,,7,1,-5,1,0,0,rectangle,1,-5,1,0,0,1,-5,1,0,0,1,58,218,17,1,,,,,,,,
,,,,,,,,,,,,,FF,,,,,,,,1.100615,,,,,,,,,,,,,,,,,,,,,,61030dd8991c249c718415b1,610366f3174d8bdd184de667,2021-07-29_21h43.56.234,Simcolourproject_2stim_asymm_v5,2020.2.10,Win32,60,61025ae37ef11b136ea224fe,,,,,,,,,3786,-47,-33,1,0,0,response5disk,,2,2,-12,1,0,0,rectangle,-29,65,1,0,0,2,12,1,0,0,1,59,219,122,1,,response7disk_3,TRUE,0,0,"[271,158,172,317,12,248,181,245,285,215,223,100,243,99,76,200,176,114,220,142]",1.41681,rectangle
,,,,,,,,,,,,,FF,,,,,,,,1.617605,,,,,,,,,,,,,,,,,,,,,,61030dd8991c249c718415b1,610366f3174d8bdd184de667,2021-07-29_21h43.56.234,Simcolourproject_2stim_asymm_v5,2020.2.10,Win32,60,61025ae37ef11b136ea224fe,,,,,,,,,3396,-68,53,1,0,0,response7disk,,1,9,6,1,0,0,rectangle,9,6,1,0,0,9,6,1,0,0,1,60,220,96,1,,,,,,,,
,,,,,,,,,,,,,FF,,,,,,,,0.7171,,,,,,,,,,,,,,,,,,,,,,61030dd8991c249c718415b1,610366f3174d8bdd184de667,2021-07-29_21h43.56.234,Simcolourproject_2stim_asymm_v5,2020.2.10,Win32,60,61025ae37ef11b136ea224fe,,,,,,,,,3965,-32,61,1,0,0,response7disk,,0,-5,11,1,0,0,rectangle,-5,11,1,0,0,-5,11,1,0,0,1,61,221,109,1,,,,,,,,
,,,,,,,,,,,,,FF,,,,,,,,1.33397,,,,,,,,,,,,,,,,,,,,,,61030dd8991c249c718415b1,610366f3174d8bdd184de667,2021-07-29_21h43.56.234,Simcolourproject_2stim_asymm_v5,2020.2.10,Win32,60,61025ae37ef11b136ea224fe,,,,,,,,,1152,-51,-20,1,0,0,response5disk,,2,2,-14,1,0,0,rectangle,-71,-41,1,0,0,0,-11,1,0,0,1,62,222,25,1,,response5disk_3,TRUE,2,2,"[271,158,172,317,12,248,181,245,285,215,223,100,243,99,76,200,176,114,220,142]",1.66722,rectangle
,,,,,,,,,,,,,FF,,,,,,,,1.200485,,,,,,,,,,,,,,,,,,,,,,61030dd8991c249c718415b1,610366f3174d8bdd184de667,2021-07-29_21h43.56.234,Simcolourproject_2stim_asymm_v5,2020.2.10,Win32,60,61025ae37ef11b136ea224fe,,,,,,,,,3700,-52,-73,1,0,0,response5disk,,3,4,-5,1,0,0,rectangle,4,-5,1,0,0,4,-5,1,0,0,1,63,223,152,1,,,,,,,,
,,,,,,,,,,,,,FF,,,,,,,,0.7671,,,,,,,,,,,,,,,,,,,,,,61030dd8991c249c718415b1,610366f3174d8bdd184de667,2021-07-29_21h43.56.234,Simcolourproject_2stim_asymm_v5,2020.2.10,Win32,60,61025ae37ef11b136ea224fe,,,,,,,,,3875,-27,80,1,0,0,response7disk,,0,20,3,1,0,0,rectangle,20,3,1,0,0,20,3,1,0,0,1,64,224,42,1,,,,,,,,
,,,,,,,,,,,,,FF,,,,,,,,0.767525,,,,,,,,,,,,,,,,,,,,,,61030dd8991c249c718415b1,610366f3174d8bdd184de667,2021-07-29_21h43.56.234,Simcolourproject_2stim_asymm_v5,2020.2.10,Win32,60,61025ae37ef11b136ea224fe,,,,,,,,,3939,-80,19,1,0,0,response7disk,,1,-18,3,1,0,0,rectangle,-18,3,1,0,0,-18,3,1,0,0,1,65,225,38,1,,,,,,,,
,,,,,,,,,,,,,FF,,,,,,,,1.01748,,,,,,,,,,,,,,,,,,,,,,61030dd8991c249c718415b1,610366f3174d8bdd184de667,2021-07-29_21h43.56.234,Simcolourproject_2stim_asymm_v5,2020.2.10,Win32,60,61025ae37ef11b136ea224fe,,,,,,,,,1950,-83,-29,1,0,0,response5disk,,2,-10,2,1,0,0,rectangle,-10,2,1,0,0,-10,2,1,0,0,1,66,226,78,1,,,,,,,,
,,,,,,,,,,,,,FF,,,,,,,,0.95025,,,,,,,,,,,,,,,,,,,,,,61030dd8991c249c718415b1,610366f3174d8bdd184de667,2021-07-29_21h43.56.234,Simcolourproject_2stim_asymm_v5,2020.2.10,Win32,60,61025ae37ef11b136ea224fe,,,,,,,,,861,33,71,1,0,0,response1disk,,7,9,5,1,0,0,rectangle,9,5,1,0,0,9,5,1,0,0,1,67,227,35,1,,,,,,,,
,,,,,,,,,,,,,FF,,,,,,,,0.986935,,,,,,,,,,,,,,,,,,,,,,61030dd8991c249c718415b1,610366f3174d8bdd184de667,2021-07-29_21h43.56.234,Simcolourproject_2stim_asymm_v5,2020.2.10,Win32,60,61025ae37ef11b136ea224fe,,,,,,,,,269,61,-85,1,0,0,response3disk,,4,4,9,1,0,0,rectangle,4,9,1,0,0,4,9,1,0,0,1,68,228,37,1,,,,,,,,
,,,,,,,,,,,,,FF,,,,,,,,0.717035,,,,,,,,,,,,,,,,,,,,,,61030dd8991c249c718415b1,610366f3174d8bdd184de667,2021-07-29_21h43.56.234,Simcolourproject_2stim_asymm_v5,2020.2.10,Win32,60,61025ae37ef11b136ea224fe,,,,,,,,,112,39,81,1,0,0,response1disk,,7,6,13,1,0,0,rectangle,6,13,1,0,0,6,13,1,0,0,1,69,229,13,1,,,,,,,,
,,,,,,,,,,,,,FF,,,,,,,,0.67106,,,,,,,,,,,,,,,,,,,,,,61030dd8991c249c718415b1,610366f3174d8bdd184de667,2021-07-29_21h43.56.234,Simcolourproject_2stim_asymm_v5,2020.2.10,Win32,60,61025ae37ef11b136ea224fe,,,,,,,,,1884,34,56,1,0,0,response1disk,,7,2,4,1,0,0,rectangle,2,4,1,0,0,2,4,1,0,0,1,70,230,141,1,,,,,,,,
,,,,,,,,,,,,,FF,,,,,,,,1.21735,,,,,,,,,,,,,,,,,,,,,,61030dd8991c249c718415b1,610366f3174d8bdd184de667,2021-07-29_21h43.56.234,Simcolourproject_2stim_asymm_v5,2020.2.10,Win32,60,61025ae37ef11b136ea224fe,,,,,,,,,1447,-69,38,1,0,0,response7disk,,1,22,15,1,0,0,rectangle,22,15,1,0,0,22,15,1,0,0,1,71,231,21,1,,,,,,,,
,,,,,,,,,,,,,FF,,,,,,,,1.42151,,,,,,,,,,,,,,,,,,,,,,61030dd8991c249c718415b1,610366f3174d8bdd184de667,2021-07-29_21h43.56.234,Simcolourproject_2stim_asymm_v5,2020.2.10,Win32,60,61025ae37ef11b136ea224fe,,,,,,,,,603,74,-36,1,0,0,response3disk,,5,11,8,1,0,0,rectangle,11,8,1,0,0,11,8,1,0,0,1,72,232,130,1,,,,,,,,
,,,,,,,,,,,,,FF,,,,,,,,0.71736,,,,,,,,,,,,,,,,,,,,,,61030dd8991c249c718415b1,610366f3174d8bdd184de667,2021-07-29_21h43.56.234,Simcolourproject_2stim_asymm_v5,2020.2.10,Win32,60,61025ae37ef11b136ea224fe,,,,,,,,,1108,44,68,1,0,0,response1disk,,7,4,-8,1,0,0,rectangle,4,-8,1,0,0,4,-8,1,0,0,1,73,233,133,1,,,,,,,,
,,,,,,,,,,,,,FF,,,,,,,,0.7653,,,,,,,,,,,,,,,,,,,,,,61030dd8991c249c718415b1,610366f3174d8bdd184de667,2021-07-29_21h43.56.234,Simcolourproject_2stim_asymm_v5,2020.2.10,Win32,60,61025ae37ef11b136ea224fe,,,,,,,,,1678,69,39,1,0,0,response1disk,,6,12,-6,1,0,0,rectangle,12,-6,1,0,0,12,-6,1,0,0,1,74,234,7,1,,,,,,,,
,,,,,,,,,,,,,FF,,,,,,,,0.70255,,,,,,,,,,,,,,,,,,,,,,61030dd8991c249c718415b1,610366f3174d8bdd184de667,2021-07-29_21h43.56.234,Simcolourproject_2stim_asymm_v5,2020.2.10,Win32,60,61025ae37ef11b136ea224fe,,,,,,,,,2821,62,38,1,0,0,response1disk,,6,9,9,1,0,0,rectangle,9,9,1,0,0,9,9,1,0,0,1,75,235,32,1,,,,,,,,
,,,,,,,,,,,,,FF,,,,,,,,1.121445,,,,,,,,,,,,,,,,,,,,,,61030dd8991c249c718415b1,610366f3174d8bdd184de667,2021-07-29_21h43.56.234,Simcolourproject_2stim_asymm_v5,2020.2.10,Win32,60,61025ae37ef11b136ea224fe,,,,,,,,,1374,-51,-78,1,0,0,response5disk,,3,20,8,1,0,0,rectangle,20,8,1,0,0,20,8,1,0,0,1,76,236,97,1,,,,,,,,
,,,,,,,,,,,,,FF,,,,,,,,0.80459,,,,,,,,,,,,,,,,,,,,,,61030dd8991c249c718415b1,610366f3174d8bdd184de667,2021-07-29_21h43.56.234,Simcolourproject_2stim_asymm_v5,2020.2.10,Win32,60,61025ae37ef11b136ea224fe,,,,,,,,,2187,59,-29,1,0,0,response3disk,,5,2,0,1,0,0,rectangle,2,0,1,0,0,2,0,1,0,0,1,77,237,70,1,,,,,,,,
,,,,,,,,,,,,,FF,,,,,,,,1.338145,,,,,,,,,,,,,,,,,,,,,,61030dd8991c249c718415b1,610366f3174d8bdd184de667,2021-07-29_21h43.56.234,Simcolourproject_2stim_asymm_v5,2020.2.10,Win32,60,61025ae37ef11b136ea224fe,,,,,,,,,3879,70,31,1,0,0,response1disk,,6,21,0,1,0,0,rectangle,21,0,1,0,0,21,0,1,0,0,1,78,238,76,1,,,,,,,,
,,,,,,,,,,,,,FF,,,,,,,,0.73897,,,,,,,,,,,,,,,,,,,,,,61030dd8991c249c718415b1,610366f3174d8bdd184de667,2021-07-29_21h43.56.234,Simcolourproject_2stim_asymm_v5,2020.2.10,Win32,60,61025ae37ef11b136ea224fe,,,,,,,,,1841,37,70,1,0,0,response1disk,,7,-3,-8,1,0,0,rectangle,-3,-8,1,0,0,-3,-8,1,0,0,1,79,239,120,1,,,,,,,,
,,,,,,,,,,,,,FF,,,,,,,,0.90097,,,,,,,,,,,,,,,,,,,,,,61030dd8991c249c718415b1,610366f3174d8bdd184de667,2021-07-29_21h43.56.234,Simcolourproject_2stim_asymm_v5,2020.2.10,Win32,60,61025ae37ef11b136ea224fe,,,,,,,,,2793,43,-23,1,0,0,response3disk,,5,2,5,1,0,0,rectangle,2,5,1,0,0,2,5,1,0,0,1,80,240,128,1,,,,,,,,
,,,,,,,,,,,,,FF,,,,,,,,1.097695,,,,,,,,,,,,,,,,,,,,,,61030dd8991c249c718415b1,610366f3174d8bdd184de667,2021-07-29_21h43.56.234,Simcolourproject_2stim_asymm_v5,2020.2.10,Win32,60,61025ae37ef11b136ea224fe,,,,,,,,,60,-38,-52,1,0,0,response5disk,,3,-8,6,1,0,0,rectangle,-8,6,1,0,0,-8,6,1,0,0,1,81,241,20,1,,,,,,,,
,,,,,,,,,,,,,FF,,,,,,,,0.767325,,,,,,,,,,,,,,,,,,,,,,61030dd8991c249c718415b1,610366f3174d8bdd184de667,2021-07-29_21h43.56.234,Simcolourproject_2stim_asymm_v5,2020.2.10,Win32,60,61025ae37ef11b136ea224fe,,,,,,,,,1557,74,-29,1,0,0,response3disk,,5,7,8,1,0,0,rectangle,-46,65,1,0,0,0,-8,1,0,0,1,82,242,46,1,,response7disk_3,TRUE,0,0,"[271,158,172,317,12,248,181,245,285,215,223,100,243,99,76,200,176,114,220,142]",1.5509,rectangle
,,,,,,,,,,,,,FF,,,,,,,,0.78378,,,,,,,,,,,,,,,,,,,,,,61030dd8991c249c718415b1,610366f3174d8bdd184de667,2021-07-29_21h43.56.234,Simcolourproject_2stim_asymm_v5,2020.2.10,Win32,60,61025ae37ef11b136ea224fe,,,,,,,,,2511,54,62,1,0,0,response1disk,,7,29,12,1,0,0,rectangle,29,12,1,0,0,29,12,1,0,0,1,83,243,87,1,,,,,,,,
,,,,,,,,,,,,,FF,,,,,,,,0.833775,,,,,,,,,,,,,,,,,,,,,,61030dd8991c249c718415b1,610366f3174d8bdd184de667,2021-07-29_21h43.56.234,Simcolourproject_2stim_asymm_v5,2020.2.10,Win32,60,61025ae37ef11b136ea224fe,,,,,,,,,3593,65,-29,1,0,0,response3disk,,5,3,12,1,0,0,rectangle,-20,-61,1,0,0,-7,-6,1,0,0,1,84,244,136,1,,response5disk_3,TRUE,3,3,"[271,158,172,317,12,248,181,245,285,215,223,100,243,99,76,200,176,114,220,142]",2.034345,rectangle
,,,,,,,,,,,,,FF,,,,,,,,1.671715,,,,,,,,,,,,,,,,,,,,,,61030dd8991c249c718415b1,610366f3174d8bdd184de667,2021-07-29_21h43.56.234,Simcolourproject_2stim_asymm_v5,2020.2.10,Win32,60,61025ae37ef11b136ea224fe,,,,,,,,,3690,26,-62,1,0,0,response3disk,,4,-4,8,1,0,0,rectangle,-4,8,1,0,0,-4,8,1,0,0,1,85,245,143,1,,,,,,,,
,,,,,,,,,,,,,FF,,,,,,,,0.801045,,,,,,,,,,,,,,,,,,,,,,61030dd8991c249c718415b1,610366f3174d8bdd184de667,2021-07-29_21h43.56.234,Simcolourproject_2stim_asymm_v5,2020.2.10,Win32,60,61025ae37ef11b136ea224fe,,,,,,,,,3798,77,-29,1,0,0,response3disk,,5,11,1,1,0,0,rectangle,11,1,1,0,0,11,1,1,0,0,1,86,246,19,1,,,,,,,,
,,,,,,,,,,,,,FF,,,,,,,,0.95519,,,,,,,,,,,,,,,,,,,,,,61030dd8991c249c718415b1,610366f3174d8bdd184de667,2021-07-29_21h43.56.234,Simcolourproject_2stim_asymm_v5,2020.2.10,Win32,60,61025ae37ef11b136ea224fe,,,,,,,,,815,31,-57,1,0,0,response3disk,,4,1,-7,1,0,0,rectangle,-49,66,1,0,0,-3,0,1,0,0,1,87,247,16,1,,response7disk_3,TRUE,0,0,"[271,158,172,317,12,248,181,245,285,215,223,100,243,99,76,200,176,114,220,142]",1.38396,rectangle
,,,,,,,,,,,,,FF,,,,,,,,1.0676,,,,,,,,,,,,,,,,,,,,,,61030dd8991c249c718415b1,610366f3174d8bdd184de667,2021-07-29_21h43.56.234,Simcolourproject_2stim_asymm_v5,2020.2.10,Win32,60,61025ae37ef11b136ea224fe,,,,,,,,,4013,63,84,1,0,0,response1disk,,7,28,-1,1,0,0,rectangle,28,-1,1,0,0,28,-1,1,0,0,1,88,248,145,1,,,,,,,,
,,,,,,,,,,,,,FF,,,,,,,,0.851265,,,,,,,,,,,,,,,,,,,,,,61030dd8991c249c718415b1,610366f3174d8bdd184de667,2021-07-29_21h43.56.234,Simcolourproject_2stim_asymm_v5,2020.2.10,Win32,60,61025ae37ef11b136ea224fe,,,,,,,,,3601,65,-24,1,0,0,response3disk,,5,17,4,1,0,0,rectangle,17,4,1,0,0,17,4,1,0,0,1,89,249,86,1,,,,,,,,
,,,,,,,,,,,,,FF,,,,,,,,1.33403,,,,,,,,,,,,,,,,,,,,,,61030dd8991c249c718415b1,610366f3174d8bdd184de667,2021-07-29_21h43.56.234,Simcolourproject_2stim_asymm_v5,2020.2.10,Win32,60,61025ae37ef11b136ea224fe,,,,,,,,,1476,34,-63,1,0,0,response3disk,,4,3,-3,1,0,0,rectangle,3,-3,1,0,0,3,-3,1,0,0,1,90,250,92,1,,,,,,,,
,,,,,,,,,,,,,FF,,,,,,,,0.784305,,,,,,,,,,,,,,,,,,,,,,61030dd8991c249c718415b1,610366f3174d8bdd184de667,2021-07-29_21h43.56.234,Simcolourproject_2stim_asymm_v5,2020.2.10,Win32,60,61025ae37ef11b136ea224fe,,,,,,,,,69,67,63,1,0,0,response1disk,,6,-10,-12,1,0,0,rectangle,-10,-12,1,0,0,-10,-12,1,0,0,1,91,251,47,1,,,,,,,,
,,,,,,,,,,,,,FF,,,,,,,,1.33384,,,,,,,,,,,,,,,,,,,,,,61030dd8991c249c718415b1,610366f3174d8bdd184de667,2021-07-29_21h43.56.234,Simcolourproject_2stim_asymm_v5,2020.2.10,Win32,60,61025ae37ef11b136ea224fe,,,,,,,,,2188,57,-34,1,0,0,response3disk,,5,11,-9,1,0,0,rectangle,11,-9,1,0,0,11,-9,1,0,0,1,92,252,31,1,,,,,,,,
,,,,,,,,,,,,,FF,,,,,,,,1.150645,,,,,,,,,,,,,,,,,,,,,,61030dd8991c249c718415b1,610366f3174d8bdd184de667,2021-07-29_21h43.56.234,Simcolourproject_2stim_asymm_v5,2020.2.10,Win32,60,61025ae37ef11b136ea224fe,,,,,,,,,2676,-32,-82,1,0,0,response5disk,,3,10,5,1,0,0,rectangle,10,5,1,0,0,10,5,1,0,0,1,93,253,22,1,,,,,,,,
,,,,,,,,,,,,,FF,,,,,,,,0.80068,,,,,,,,,,,,,,,,,,,,,,61030dd8991c249c718415b1,610366f3174d8bdd184de667,2021-07-29_21h43.56.234,Simcolourproject_2stim_asymm_v5,2020.2.10,Win32,60,61025ae37ef11b136ea224fe,,,,,,,,,2637,29,61,1,0,0,response1disk,,7,2,10,1,0,0,rectangle,2,10,1,0,0,2,10,1,0,0,1,94,254,94,1,,,,,,,,
,,,,,,,,,,,,,FF,,,,,,,,1.00079,,,,,,,,,,,,,,,,,,,,,,61030dd8991c249c718415b1,610366f3174d8bdd184de667,2021-07-29_21h43.56.234,Simcolourproject_2stim_asymm_v5,2020.2.10,Win32,60,61025ae37ef11b136ea224fe,,,,,,,,,2019,65,59,1,0,0,response1disk,,6,13,0,1,0,0,rectangle,13,0,1,0,0,13,0,1,0,0,1,95,255,75,1,,,,,,,,
,,,,,,,,,,,,,FF,,,,,,,,1.951505,,,,,,,,,,,,,,,,,,,,,,61030dd8991c249c718415b1,610366f3174d8bdd184de667,2021-07-29_21h43.56.234,Simcolourproject_2stim_asymm_v5,2020.2.10,Win32,60,61025ae37ef11b136ea224fe,,,,,,,,,3507,-19,-61,1,0,0,response5disk,,3,3,-13,1,0,0,rectangle,3,-13,1,0,0,3,-13,1,0,0,1,96,256,71,1,,,,,,,,
,,,,,,,,,,,,,FF,,,,,,,,0.81727,,,,,,,,,,,,,,,,,,,,,,61030dd8991c249c718415b1,610366f3174d8bdd184de667,2021-07-29_21h43.56.234,Simcolourproject_2stim_asymm_v5,2020.2.10,Win32,60,61025ae37ef11b136ea224fe,,,,,,,,,695,-42,-65,1,0,0,response5disk,,3,-4,-13,1,0,0,rectangle,-4,-13,1,0,0,-4,-13,1,0,0,1,97,257,124,1,,,,,,,,
,,,,,,,,,,,,,FF,,,,,,,,1.33415,,,,,,,,,,,,,,,,,,,,,,61030dd8991c249c718415b1,610366f3174d8bdd184de667,2021-07-29_21h43.56.234,Simcolourproject_2stim_asymm_v5,2020.2.10,Win32,60,61025ae37ef11b136ea224fe,,,,,,,,,1961,-94,29,1,0,0,response7disk,,1,26,0,1,0,0,rectangle,26,0,1,0,0,26,0,1,0,0,1,98,258,48,1,,,,,,,,
,,,,,,,,,,,,,FF,,,,,,,,1.43668,,,,,,,,,,,,,,,,,,,,,,61030dd8991c249c718415b1,610366f3174d8bdd184de667,2021-07-29_21h43.56.234,Simcolourproject_2stim_asymm_v5,2020.2.10,Win32,60,61025ae37ef11b136ea224fe,,,,,,,,,2905,72,-34,1,0,0,response3disk,,5,-8,-2,1,0,0,rectangle,-8,-2,1,0,0,-8,-2,1,0,0,1,99,259,146,1,,,,,,,,
,,,,,,,,,,,,,FF,,,,,,,,1.35085,,,,,,,,,,,,,,,,,,,,,,61030dd8991c249c718415b1,610366f3174d8bdd184de667,2021-07-29_21h43.56.234,Simcolourproject_2stim_asymm_v5,2020.2.10,Win32,60,61025ae37ef11b136ea224fe,,,,,,,,,546,-83,-26,1,0,0,response5disk,,2,16,1,1,0,0,rectangle,16,1,1,0,0,16,1,1,0,0,1,100,260,111,1,,,,,,,,
,,,,,,,,,,,,,FF,,,,,,,,0.86753,,,,,,,,,,,,,,,,,,,,,,61030dd8991c249c718415b1,610366f3174d8bdd184de667,2021-07-29_21h43.56.234,Simcolourproject_2stim_asymm_v5,2020.2.10,Win32,60,61025ae37ef11b136ea224fe,,,,,,,,,3504,-77,-38,1,0,0,response5disk,,2,8,0,1,0,0,rectangle,8,0,1,0,0,8,0,1,0,0,1,101,261,64,1,,,,,,,,
,,,,,,,,,,,,,FF,,,,,,,,0.85059,,,,,,,,,,,,,,,,,,,,,,61030dd8991c249c718415b1,610366f3174d8bdd184de667,2021-07-29_21h43.56.234,Simcolourproject_2stim_asymm_v5,2020.2.10,Win32,60,61025ae37ef11b136ea224fe,,,,,,,,,1025,-38,-79,1,0,0,response5disk,,3,3,-13,1,0,0,rectangle,3,-13,1,0,0,3,-13,1,0,0,1,102,262,98,1,,,,,,,,
,,,,,,,,,,,,,FF,,,,,,,,0.900735,,,,,,,,,,,,,,,,,,,,,,61030dd8991c249c718415b1,610366f3174d8bdd184de667,2021-07-29_21h43.56.234,Simcolourproject_2stim_asymm_v5,2020.2.10,Win32,60,61025ae37ef11b136ea224fe,,,,,,,,,3307,49,61,1,0,0,response1disk,,7,11,12,1,0,0,rectangle,11,12,1,0,0,11,12,1,0,0,1,103,263,29,1,,,,,,,,
,,,,,,,,,,,,,FF,,,,,,,,0.817025,,,,,,,,,,,,,,,,,,,,,,61030dd8991c249c718415b1,610366f3174d8bdd184de667,2021-07-29_21h43.56.234,Simcolourproject_2stim_asymm_v5,2020.2.10,Win32,60,61025ae37ef11b136ea224fe,,,,,,,,,517,79,43,1,0,0,response1disk,,6,-6,6,1,0,0,rectangle,-6,6,1,0,0,-6,6,1,0,0,1,104,264,157,1,,,,,,,,
,,,,,,,,,,,,,FF,,,,,,,,1.23434,,,,,,,,,,,,,,,,,,,,,,61030dd8991c249c718415b1,610366f3174d8bdd184de667,2021-07-29_21h43.56.234,Simcolourproject_2stim_asymm_v5,2020.2.10,Win32,60,61025ae37ef11b136ea224fe,,,,,,,,,494,49,68,1,0,0,response1disk,,7,4,-8,1,0,0,rectangle,4,-8,1,0,0,4,-8,1,0,0,1,105,265,66,1,,,,,,,,
,,,,,,,,,,,,,FF,,,,,,,,1.167495,,,,,,,,,,,,,,,,,,,,,,61030dd8991c249c718415b1,610366f3174d8bdd184de667,2021-07-29_21h43.56.234,Simcolourproject_2stim_asymm_v5,2020.2.10,Win32,60,61025ae37ef11b136ea224fe,,,,,,,,,4261,38,93,1,0,0,response1disk,,7,-8,-13,1,0,0,rectangle,-8,-13,1,0,0,-8,-13,1,0,0,1,106,266,126,1,,,,,,,,
,,,,,,,,,,,,,FF,,,,,,,,0.70072,,,,,,,,,,,,,,,,,,,,,,61030dd8991c249c718415b1,610366f3174d8bdd184de667,2021-07-29_21h43.56.234,Simcolourproject_2stim_asymm_v5,2020.2.10,Win32,60,61025ae37ef11b136ea224fe,,,,,,,,,238,56,115,1,0,0,response1disk,,7,3,14,1,0,0,rectangle,3,14,1,0,0,3,14,1,0,0,1,107,267,30,1,,,,,,,,
,,,,,,,,,,,,,FF,,,,,,,,0.717155,,,,,,,,,,,,,,,,,,,,,,61030dd8991c249c718415b1,610366f3174d8bdd184de667,2021-07-29_21h43.56.234,Simcolourproject_2stim_asymm_v5,2020.2.10,Win32,60,61025ae37ef11b136ea224fe,,,,,,,,,138,60,36,1,0,0,response1disk,,6,10,14,1,0,0,rectangle,10,14,1,0,0,10,14,1,0,0,1,108,268,85,1,,,,,,,,
,,,,,,,,,,,,,FF,,,,,,,,1.50112,,,,,,,,,,,,,,,,,,,,,,61030dd8991c249c718415b1,610366f3174d8bdd184de667,2021-07-29_21h43.56.234,Simcolourproject_2stim_asymm_v5,2020.2.10,Win32,60,61025ae37ef11b136ea224fe,,,,,,,,,1150,-97,-15,1,0,0,response5disk,,2,-9,3,1,0,0,rectangle,-9,3,1,0,0,-9,3,1,0,0,1,109,269,147,1,,,,,,,,
,,,,,,,,,,,,,FF,,,,,,,,1.267565,,,,,,,,,,,,,,,,,,,,,,61030dd8991c249c718415b1,610366f3174d8bdd184de667,2021-07-29_21h43.56.234,Simcolourproject_2stim_asymm_v5,2020.2.10,Win32,60,61025ae37ef11b136ea224fe,,,,,,,,,111,93,39,1,0,0,response1disk,,6,-9,0,1,0,0,rectangle,39,-42,1,0,0,-4,1,1,0,0,1,110,270,26,1,,response3disk_3,TRUE,4,5,"[271,158,172,317,12,248,181,245,285,215,223,100,243,99,76,200,176,114,220,142]",1.85123,rectangle
,,,,,,,,,,,,,FF,,,,,,,,1.08459,,,,,,,,,,,,,,,,,,,,,,61030dd8991c249c718415b1,610366f3174d8bdd184de667,2021-07-29_21h43.56.234,Simcolourproject_2stim_asymm_v5,2020.2.10,Win32,60,61025ae37ef11b136ea224fe,,,,,,,,,2906,58,32,1,0,0,response1disk,,6,20,5,1,0,0,rectangle,20,5,1,0,0,20,5,1,0,0,1,111,271,155,1,,,,,,,,
,,,,,,,,,,,,,FF,,,,,,,,0.76772,,,,,,,,,,,,,,,,,,,,,,61030dd8991c249c718415b1,610366f3174d8bdd184de667,2021-07-29_21h43.56.234,Simcolourproject_2stim_asymm_v5,2020.2.10,Win32,60,61025ae37ef11b136ea224fe,,,,,,,,,2960,63,27,1,0,0,response1disk,,6,25,7,1,0,0,rectangle,25,7,1,0,0,25,7,1,0,0,1,112,272,84,1,,,,,,,,
,,,,,,,,,,,,,FF,,,,,,,,1.233815,,,,,,,,,,,,,,,,,,,,,,61030dd8991c249c718415b1,610366f3174d8bdd184de667,2021-07-29_21h43.56.234,Simcolourproject_2stim_asymm_v5,2020.2.10,Win32,60,61025ae37ef11b136ea224fe,,,,,,,,,2071,36,64,1,0,0,response1disk,,7,13,12,1,0,0,rectangle,13,12,1,0,0,13,12,1,0,0,1,113,273,116,1,,,,,,,,
,,,,,,,,,,,,,FF,,,,,,,,0.934115,,,,,,,,,,,,,,,,,,,,,,61030dd8991c249c718415b1,610366f3174d8bdd184de667,2021-07-29_21h43.56.234,Simcolourproject_2stim_asymm_v5,2020.2.10,Win32,60,61025ae37ef11b136ea224fe,,,,,,,,,1113,37,-84,1,0,0,response3disk,,4,9,-11,1,0,0,rectangle,9,-11,1,0,0,9,-11,1,0,0,1,114,274,90,1,,,,,,,,
,,,,,,,,,,,,,FF,,,,,,,,1.484485,,,,,,,,,,,,,,,,,,,,,,61030dd8991c249c718415b1,610366f3174d8bdd184de667,2021-07-29_21h43.56.234,Simcolourproject_2stim_asymm_v5,2020.2.10,Win32,60,61025ae37ef11b136ea224fe,,,,,,,,,1455,-78,-32,1,0,0,response5disk,,2,20,10,1,0,0,rectangle,20,10,1,0,0,20,10,1,0,0,1,115,275,81,1,,,,,,,,
,,,,,,,,,,,,,FF,,,,,,,,1.63381,,,,,,,,,,,,,,,,,,,,,,61030dd8991c249c718415b1,610366f3174d8bdd184de667,2021-07-29_21h43.56.234,Simcolourproject_2stim_asymm_v5,2020.2.10,Win32,60,61025ae37ef11b136ea224fe,,,,,,,,,1310,-55,-89,1,0,0,response5disk,,3,2,-12,1,0,0,rectangle,2,-12,1,0,0,2,-12,1,0,0,1,116,276,91,1,,,,,,,,
,,,,,,,,,,,,,FF,,,,,,,,2.41811,,,,,,,,,,,,,,,,,,,,,,61030dd8991c249c718415b1,610366f3174d8bdd184de667,2021-07-29_21h43.56.234,Simcolourproject_2stim_asymm_v5,2020.2.10,Win32,60,61025ae37ef11b136ea224fe,,,,,,,,,974,62,-59,1,0,0,response3disk,,5,-23,-8,1,0,0,rectangle,-23,-8,1,0,0,-23,-8,1,0,0,1,117,277,134,1,,,,,,,,
,,,,,,,,,,,,,FF,,,,,,,,1.05106,,,,,,,,,,,,,,,,,,,,,,61030dd8991c249c718415b1,610366f3174d8bdd184de667,2021-07-29_21h43.56.234,Simcolourproject_2stim_asymm_v5,2020.2.10,Win32,60,61025ae37ef11b136ea224fe,,,,,,,,,3188,-76,-35,1,0,0,response5disk,,2,-16,6,1,0,0,rectangle,-16,6,1,0,0,-16,6,1,0,0,1,118,278,63,1,,,,,,,,
,,,,,,,,,,,,,FF,,,,,,,,0.820675,,,,,,,,,,,,,,,,,,,,,,61030dd8991c249c718415b1,610366f3174d8bdd184de667,2021-07-29_21h43.56.234,Simcolourproject_2stim_asymm_v5,2020.2.10,Win32,60,61025ae37ef11b136ea224fe,,,,,,,,,2712,-35,-49,1,0,0,response5disk,,3,-5,-10,1,0,0,rectangle,-5,-10,1,0,0,-5,-10,1,0,0,1,119,279,65,1,,,,,,,,
,,,,,,,,,,,,,FF,,,,,,,,0.78765,,,,,,,,,,,,,,,,,,,,,,61030dd8991c249c718415b1,610366f3174d8bdd184de667,2021-07-29_21h43.56.234,Simcolourproject_2stim_asymm_v5,2020.2.10,Win32,60,61025ae37ef11b136ea224fe,,,,,,,,,1878,58,83,1,0,0,response1disk,,7,8,-1,1,0,0,rectangle,8,-1,1,0,0,8,-1,1,0,0,1,120,280,15,1,,,,,,,,
,,,,,,,,,,,,,FF,,,,,,,,1.080295,,,,,,,,,,,,,,,,,,,,,,61030dd8991c249c718415b1,610366f3174d8bdd184de667,2021-07-29_21h43.56.234,Simcolourproject_2stim_asymm_v5,2020.2.10,Win32,60,61025ae37ef11b136ea224fe,,,,,,,,,1904,34,-52,1,0,0,response3disk,,4,7,3,1,0,0,rectangle,7,3,1,0,0,7,3,1,0,0,1,121,281,140,1,,,,,,,,
,,,,,,,,,,,,,FF,,,,,,,,0.833775,,,,,,,,,,,,,,,,,,,,,,61030dd8991c249c718415b1,610366f3174d8bdd184de667,2021-07-29_21h43.56.234,Simcolourproject_2stim_asymm_v5,2020.2.10,Win32,60,61025ae37ef11b136ea224fe,,,,,,,,,1287,-55,-84,1,0,0,response5disk,,3,-2,-2,1,0,0,rectangle,-2,-2,1,0,0,-2,-2,1,0,0,1,122,282,106,1,,,,,,,,
,,,,,,,,,,,,,FF,,,,,,,,0.86735,,,,,,,,,,,,,,,,,,,,,,61030dd8991c249c718415b1,610366f3174d8bdd184de667,2021-07-29_21h43.56.234,Simcolourproject_2stim_asymm_v5,2020.2.10,Win32,60,61025ae37ef11b136ea224fe,,,,,,,,,3554,-55,-17,1,0,0,response5disk,,2,0,10,1,0,0,rectangle,0,10,1,0,0,0,10,1,0,0,1,123,283,138,1,,,,,,,,
,,,,,,,,,,,,,FF,,,,,,,,0.904145,,,,,,,,,,,,,,,,,,,,,,61030dd8991c249c718415b1,610366f3174d8bdd184de667,2021-07-29_21h43.56.234,Simcolourproject_2stim_asymm_v5,2020.2.10,Win32,60,61025ae37ef11b136ea224fe,,,,,,,,,199,-43,-70,1,0,0,response5disk,,3,4,8,1,0,0,rectangle,-93,-28,1,0,0,11,-4,1,0,0,1,124,284,72,1,,response5disk_3,TRUE,2,2,"[271,158,172,317,12,248,181,245,285,215,223,100,243,99,76,200,176,114,220,142]",2.3229,rectangle
,,,,,,,,,,,,,FF,,,,,,,,0.883605,,,,,,,,,,,,,,,,,,,,,,61030dd8991c249c718415b1,610366f3174d8bdd184de667,2021-07-29_21h43.56.234,Simcolourproject_2stim_asymm_v5,2020.2.10,Win32,60,61025ae37ef11b136ea224fe,,,,,,,,,1760,-96,-54,1,0,0,response5disk,,2,2,-5,1,0,0,rectangle,2,-5,1,0,0,2,-5,1,0,0,1,125,285,68,1,,,,,,,,
,,,,,,,,,,,,,FF,,,,,,,,0.76847,,,,,,,,,,,,,,,,,,,,,,61030dd8991c249c718415b1,610366f3174d8bdd184de667,2021-07-29_21h43.56.234,Simcolourproject_2stim_asymm_v5,2020.2.10,Win32,60,61025ae37ef11b136ea224fe,,,,,,,,,935,47,68,1,0,0,response1disk,,7,6,-7,1,0,0,rectangle,6,-7,1,0,0,6,-7,1,0,0,1,126,286,88,1,,,,,,,,
,,,,,,,,,,,,,FF,,,,,,,,1.6191,,,,,,,,,,,,,,,,,,,,,,61030dd8991c249c718415b1,610366f3174d8bdd184de667,2021-07-29_21h43.56.234,Simcolourproject_2stim_asymm_v5,2020.2.10,Win32,60,61025ae37ef11b136ea224fe,,,,,,,,,4310,56,-27,1,0,0,response3disk,,5,-3,-3,1,0,0,rectangle,-3,-3,1,0,0,-3,-3,1,0,0,1,127,287,121,1,,,,,,,,
,,,,,,,,,,,,,FF,,,,,,,,0.797845,,,,,,,,,,,,,,,,,,,,,,61030dd8991c249c718415b1,610366f3174d8bdd184de667,2021-07-29_21h43.56.234,Simcolourproject_2stim_asymm_v5,2020.2.10,Win32,60,61025ae37ef11b136ea224fe,,,,,,,,,582,46,87,1,0,0,response1disk,,7,-12,13,1,0,0,rectangle,-12,13,1,0,0,-12,13,1,0,0,1,128,288,36,1,,,,,,,,
,,,,,,,,,,,,,FF,,,,,,,,1.11874,,,,,,,,,,,,,,,,,,,,,,61030dd8991c249c718415b1,610366f3174d8bdd184de667,2021-07-29_21h43.56.234,Simcolourproject_2stim_asymm_v5,2020.2.10,Win32,60,61025ae37ef11b136ea224fe,,,,,,,,,1297,-85,37,1,0,0,response7disk,,1,12,3,1,0,0,rectangle,12,3,1,0,0,12,3,1,0,0,1,129,289,158,1,,,,,,,,
,,,,,,,,,,,,,FF,,,,,,,,1.17073,,,,,,,,,,,,,,,,,,,,,,61030dd8991c249c718415b1,610366f3174d8bdd184de667,2021-07-29_21h43.56.234,Simcolourproject_2stim_asymm_v5,2020.2.10,Win32,60,61025ae37ef11b136ea224fe,,,,,,,,,1862,56,74,1,0,0,response1disk,,7,6,-1,1,0,0,rectangle,6,-1,1,0,0,6,-1,1,0,0,1,130,290,82,1,,,,,,,,
,,,,,,,,,,,,,FF,,,,,,,,0.77053,,,,,,,,,,,,,,,,,,,,,,61030dd8991c249c718415b1,610366f3174d8bdd184de667,2021-07-29_21h43.56.234,Simcolourproject_2stim_asymm_v5,2020.2.10,Win32,60,61025ae37ef11b136ea224fe,,,,,,,,,541,61,65,1,0,0,response1disk,,7,-6,3,1,0,0,rectangle,-6,3,1,0,0,-6,3,1,0,0,1,131,291,129,1,,,,,,,,
,,,,,,,,,,,,,FF,,,,,,,,0.84965,,,,,,,,,,,,,,,,,,,,,,61030dd8991c249c718415b1,610366f3174d8bdd184de667,2021-07-29_21h43.56.234,Simcolourproject_2stim_asymm_v5,2020.2.10,Win32,60,61025ae37ef11b136ea224fe,,,,,,,,,726,26,-67,1,0,0,response3disk,,4,-7,5,1,0,0,rectangle,-7,5,1,0,0,-7,5,1,0,0,1,132,292,44,1,,,,,,,,
,,,,,,,,,,,,,FF,,,,,,,,1.684805,,,,,,,,,,,,,,,,,,,,,,61030dd8991c249c718415b1,610366f3174d8bdd184de667,2021-07-29_21h43.56.234,Simcolourproject_2stim_asymm_v5,2020.2.10,Win32,60,61025ae37ef11b136ea224fe,,,,,,,,,1208,23,-53,1,0,0,response3disk,,4,1,-5,1,0,0,rectangle,1,-5,1,0,0,1,-5,1,0,0,1,133,293,77,1,,,,,,,,
,,,,,,,,,,,,,FF,,,,,,,,0.98722,,,,,,,,,,,,,,,,,,,,,,61030dd8991c249c718415b1,610366f3174d8bdd184de667,2021-07-29_21h43.56.234,Simcolourproject_2stim_asymm_v5,2020.2.10,Win32,60,61025ae37ef11b136ea224fe,,,,,,,,,2717,-83,-37,1,0,0,response5disk,,2,-4,-8,1,0,0,rectangle,-4,-8,1,0,0,-4,-8,1,0,0,1,134,294,151,1,,,,,,,,
,,,,,,,,,,,,,FF,,,,,,,,0.784085,,,,,,,,,,,,,,,,,,,,,,61030dd8991c249c718415b1,610366f3174d8bdd184de667,2021-07-29_21h43.56.234,Simcolourproject_2stim_asymm_v5,2020.2.10,Win32,60,61025ae37ef11b136ea224fe,,,,,,,,,404,47,80,1,0,0,response1disk,,7,0,-6,1,0,0,rectangle,0,-6,1,0,0,0,-6,1,0,0,1,135,295,18,1,,,,,,,,
,,,,,,,,,,,,,FF,,,,,,,,0.80065,,,,,,,,,,,,,,,,,,,,,,61030dd8991c249c718415b1,610366f3174d8bdd184de667,2021-07-29_21h43.56.234,Simcolourproject_2stim_asymm_v5,2020.2.10,Win32,60,61025ae37ef11b136ea224fe,,,,,,,,,730,63,-25,1,0,0,response3disk,,5,-8,-3,1,0,0,rectangle,-8,-3,1,0,0,-8,-3,1,0,0,1,136,296,103,1,,,,,,,,
,,,,,,,,,,,,,FF,,,,,,,,0.935385,,,,,,,,,,,,,,,,,,,,,,61030dd8991c249c718415b1,610366f3174d8bdd184de667,2021-07-29_21h43.56.234,Simcolourproject_2stim_asymm_v5,2020.2.10,Win32,60,61025ae37ef11b136ea224fe,,,,,,,,,3051,50,-37,1,0,0,response3disk,,5,13,-8,1,0,0,rectangle,13,-8,1,0,0,13,-8,1,0,0,1,137,297,150,1,,,,,,,,
,,,,,,,,,,,,,FF,,,,,,,,0.833965,,,,,,,,,,,,,,,,,,,,,,61030dd8991c249c718415b1,610366f3174d8bdd184de667,2021-07-29_21h43.56.234,Simcolourproject_2stim_asymm_v5,2020.2.10,Win32,60,61025ae37ef11b136ea224fe,,,,,,,,,3789,49,-50,1,0,0,response3disk,,4,7,-7,1,0,0,rectangle,7,-7,1,0,0,7,-7,1,0,0,1,138,298,118,1,,,,,,,,
,,,,,,,,,,,,,FF,,,,,,,,0.75027,,,,,,,,,,,,,,,,,,,,,,61030dd8991c249c718415b1,610366f3174d8bdd184de667,2021-07-29_21h43.56.234,Simcolourproject_2stim_asymm_v5,2020.2.10,Win32,60,61025ae37ef11b136ea224fe,,,,,,,,,4004,37,-48,1,0,0,response3disk,,4,9,-3,1,0,0,rectangle,9,-3,1,0,0,9,-3,1,0,0,1,139,299,61,1,,,,,,,,
,,,,,,,,,,,,,FF,,,,,,,,0.903715,,,,,,,,,,,,,,,,,,,,,,61030dd8991c249c718415b1,610366f3174d8bdd184de667,2021-07-29_21h43.56.234,Simcolourproject_2stim_asymm_v5,2020.2.10,Win32,60,61025ae37ef11b136ea224fe,,,,,,,,,3476,-64,-85,1,0,0,response5disk,,3,1,7,1,0,0,rectangle,1,7,1,0,0,1,7,1,0,0,1,140,300,14,1,,,,,,,,
