key_resp.keys,key_resp.rt,key_resp_14.keys,key_resp_14.rt,key_resp_15.keys,key_resp_15.rt,key_resp_17.keys,key_resp_17.rt,key_resp_9.keys,key_resp_9.rt,key_resp_10.keys,key_resp_10.rt,practice_comparison,Ecc,mouse_5.x,mouse_5.y,mouse_5.leftButton,mouse_5.midButton,mouse_5.rightButton,mouse_5.clicked_name,pracsimilarity,response_time,mouse_10.x,mouse_10.y,mouse_10.leftButton,mouse_10.midButton,mouse_10.rightButton,mouse_10.clicked_name,mouse_7.x,mouse_7.y,mouse_7.leftButton,mouse_7.midButton,mouse_7.rightButton,mouse_6.x,mouse_6.y,mouse_6.leftButton,mouse_6.midButton,mouse_6.rightButton,duringprac.thisRepN,duringprac.thisTrialN,duringprac.thisN,duringprac.thisIndex,duringprac.ran,participant,session,date,expName,psychopyVersion,OS,frameRate,study_id,mouse_7.clicked_name,catchpracsimilarity,catch_response_time,catchnumberprac,catchtrialorderprac,mouse_6.clicked_name,key_resp_22.keys,key_resp_22.rt,realcomparison,mouse.x,mouse.y,mouse.leftButton,mouse.midButton,mouse.rightButton,mouse.clicked_name,Colour2,similarity,mouse_2.x,mouse_2.y,mouse_2.leftButton,mouse_2.midButton,mouse_2.rightButton,mouse_2.clicked_name,mouse_3.x,mouse_3.y,mouse_3.leftButton,mouse_3.midButton,mouse_3.rightButton,mouse_11.x,mouse_11.y,mouse_11.leftButton,mouse_11.midButton,mouse_11.rightButton,trials_2.thisRepN,trials_2.thisTrialN,trials_2.thisN,trials_2.thisIndex,trials_2.ran,Colour1,mouse_3.clicked_name,catchornah,catchsimilarity,catchnumber,catchtrialorder,catchRT,mouse_11.clicked_name
space,1.0414,space,12.5331,space,22.6234,space,4.1057,space,1.8505,space,2.6359,85,PF,100.5,48.5,1,0,0,response1disk_5,6,8.622,-1,1.5,1,0,0,rectangle_8,-1,1.5,1,0,0,-1,1.5,1,0,0,0,0,0,2,1,61034258c96850cb404c52d2,61036a2d404f7c59f50f2edb,2021-07-29_20h57.09.842,Simcolourproject_2stim_asymm_v5,2020.2.10,Win32,60,61025ae37ef11b136ea224fe,,,,,,,,,,,,,,,,,,,,,,,,,,,,,,,,,,,,,,,,,,,,,,
,,,,,,,,,,,,110,PF,100,-72,1,0,0,response3disk_5,5,1.9673,8.5,5.5,1,0,0,rectangle_8,-82,27.5,1,0,0,15,-7,1,0,0,0,1,1,6,1,61034258c96850cb404c52d2,61036a2d404f7c59f50f2edb,2021-07-29_20h57.09.842,Simcolourproject_2stim_asymm_v5,2020.2.10,Win32,60,61025ae37ef11b136ea224fe,response7disk_7,1,2.1185,1,"[2,5]",rectangle_4,,,,,,,,,,,,,,,,,,,,,,,,,,,,,,,,,,,,,,,,
,,,,,,,,,,,,70,FF,-78.5,-45.5,1,0,0,response5disk_5,2,2.2338,9.5,14,1,0,0,rectangle_8,9.5,14,1,0,0,9.5,14,1,0,0,0,2,2,0,1,61034258c96850cb404c52d2,61036a2d404f7c59f50f2edb,2021-07-29_20h57.09.842,Simcolourproject_2stim_asymm_v5,2020.2.10,Win32,60,61025ae37ef11b136ea224fe,,,,,,,,,,,,,,,,,,,,,,,,,,,,,,,,,,,,,,,,,,,,,,
,,,,,,,,,,,,24,PF,-55,-94,1,0,0,response5disk_5,3,1.1669,7,-8,1,0,0,rectangle_8,7,-8,1,0,0,7,-8,1,0,0,0,3,3,4,1,61034258c96850cb404c52d2,61036a2d404f7c59f50f2edb,2021-07-29_20h57.09.842,Simcolourproject_2stim_asymm_v5,2020.2.10,Win32,60,61025ae37ef11b136ea224fe,,,,,,,,,,,,,,,,,,,,,,,,,,,,,,,,,,,,,,,,,,,,,,
,,,,,,,,,,,,91,PF,69,118,1,0,0,response1disk_5,7,0.8128,-10,8,1,0,0,rectangle_8,-75.5,47,1,0,0,-0.5,4,1,0,0,0,4,4,1,1,61034258c96850cb404c52d2,61036a2d404f7c59f50f2edb,2021-07-29_20h57.09.842,Simcolourproject_2stim_asymm_v5,2020.2.10,Win32,60,61025ae37ef11b136ea224fe,response7disk_7,1,1.5058,1,"[2,5]",rectangle_4,,,,,,,,,,,,,,,,,,,,,,,,,,,,,,,,,,,,,,,,
,,,,,,,,,,,,41,FF,-52.5,-112.5,1,0,0,response5disk_5,3,1.1165,-0.5,-4,1,0,0,rectangle_8,-0.5,-4,1,0,0,-0.5,-4,1,0,0,0,5,5,3,1,61034258c96850cb404c52d2,61036a2d404f7c59f50f2edb,2021-07-29_20h57.09.842,Simcolourproject_2stim_asymm_v5,2020.2.10,Win32,60,61025ae37ef11b136ea224fe,,,,,,,,,,,,,,,,,,,,,,,,,,,,,,,,,,,,,,,,,,,,,,
,,,,,,,,,,,,44,FF,61,-86.5,1,0,0,response3disk_5,4,1.1507,3,-2,1,0,0,rectangle_8,3,-2,1,0,0,3,-2,1,0,0,0,6,6,5,1,61034258c96850cb404c52d2,61036a2d404f7c59f50f2edb,2021-07-29_20h57.09.842,Simcolourproject_2stim_asymm_v5,2020.2.10,Win32,60,61025ae37ef11b136ea224fe,,,,,,,,,,,,,,,,,,,,,,,,,,,,,,,,,,,,,,,,,,,,,,
,,,,,,,,,,,,,FF,,,,,,,,1.2016,,,,,,,,,,,,,,,,,,,,,,61034258c96850cb404c52d2,61036a2d404f7c59f50f2edb,2021-07-29_20h57.09.842,Simcolourproject_2stim_asymm_v5,2020.2.10,Win32,60,61025ae37ef11b136ea224fe,,,,,,,space,2.8097,1499,56.5,104.5,1,0,0,response1disk,,7,1,-7.5,1,0,0,rectangle,1,-7.5,1,0,0,1,-7.5,1,0,0,0,0,0,110,1,,,,,,,,
,,,,,,,,,,,,,FF,,,,,,,,1.4005,,,,,,,,,,,,,,,,,,,,,,61034258c96850cb404c52d2,61036a2d404f7c59f50f2edb,2021-07-29_20h57.09.842,Simcolourproject_2stim_asymm_v5,2020.2.10,Win32,60,61025ae37ef11b136ea224fe,,,,,,,,,157,81,-55,1,0,0,response3disk,,5,-21.5,3,1,0,0,rectangle,-21.5,3,1,0,0,-21.5,3,1,0,0,0,1,1,35,1,,,,,,,,
,,,,,,,,,,,,,FF,,,,,,,,1.918,,,,,,,,,,,,,,,,,,,,,,61034258c96850cb404c52d2,61036a2d404f7c59f50f2edb,2021-07-29_20h57.09.842,Simcolourproject_2stim_asymm_v5,2020.2.10,Win32,60,61025ae37ef11b136ea224fe,,,,,,,,,3831,98.5,-47,1,0,0,response3disk,,5,-28,7.5,1,0,0,rectangle,-28,7.5,1,0,0,-28,7.5,1,0,0,0,2,2,133,1,,,,,,,,
,,,,,,,,,,,,,FF,,,,,,,,1.267,,,,,,,,,,,,,,,,,,,,,,61034258c96850cb404c52d2,61036a2d404f7c59f50f2edb,2021-07-29_20h57.09.842,Simcolourproject_2stim_asymm_v5,2020.2.10,Win32,60,61025ae37ef11b136ea224fe,,,,,,,,,870,40,-101.5,1,0,0,response3disk,,4,-5,-2.5,1,0,0,rectangle,-5,-2.5,1,0,0,-5,-2.5,1,0,0,0,3,3,54,1,,,,,,,,
,,,,,,,,,,,,,FF,,,,,,,,2.3671,,,,,,,,,,,,,,,,,,,,,,61034258c96850cb404c52d2,61036a2d404f7c59f50f2edb,2021-07-29_20h57.09.842,Simcolourproject_2stim_asymm_v5,2020.2.10,Win32,60,61025ae37ef11b136ea224fe,,,,,,,,,2471,51,75.5,1,0,0,response1disk,,7,2.5,14,1,0,0,rectangle,2.5,14,1,0,0,2.5,14,1,0,0,0,4,4,106,1,,,,,,,,
,,,,,,,,,,,,,FF,,,,,,,,1.2006,,,,,,,,,,,,,,,,,,,,,,61034258c96850cb404c52d2,61036a2d404f7c59f50f2edb,2021-07-29_20h57.09.842,Simcolourproject_2stim_asymm_v5,2020.2.10,Win32,60,61025ae37ef11b136ea224fe,,,,,,,,,874,49,-95.5,1,0,0,response3disk,,4,-2,-4.5,1,0,0,rectangle,-2,-4.5,1,0,0,-2,-4.5,1,0,0,0,5,5,49,1,,,,,,,,
,,,,,,,,,,,,,FF,,,,,,,,0.8588,,,,,,,,,,,,,,,,,,,,,,61034258c96850cb404c52d2,61036a2d404f7c59f50f2edb,2021-07-29_20h57.09.842,Simcolourproject_2stim_asymm_v5,2020.2.10,Win32,60,61025ae37ef11b136ea224fe,,,,,,,,,3428,-75.5,34.5,1,0,0,response7disk,,1,1.5,-2.5,1,0,0,rectangle,89,-40,1,0,0,8,10,1,0,0,0,6,6,98,1,,response3disk_3,TRUE,5,5,"[265,282,187,220,133,116,254,7,27,145,52,31,129,184,198,113,153,110,25,20]",2.0339,rectangle
,,,,,,,,,,,,,FF,,,,,,,,0.9677,,,,,,,,,,,,,,,,,,,,,,61034258c96850cb404c52d2,61036a2d404f7c59f50f2edb,2021-07-29_20h57.09.842,Simcolourproject_2stim_asymm_v5,2020.2.10,Win32,60,61025ae37ef11b136ea224fe,,,,,,,,,1577,86,56.5,1,0,0,response1disk,,6,-3,-4,1,0,0,rectangle,-3,-4,1,0,0,-3,-4,1,0,0,0,7,7,51,1,,,,,,,,
,,,,,,,,,,,,,FF,,,,,,,,1.2838,,,,,,,,,,,,,,,,,,,,,,61034258c96850cb404c52d2,61036a2d404f7c59f50f2edb,2021-07-29_20h57.09.842,Simcolourproject_2stim_asymm_v5,2020.2.10,Win32,60,61025ae37ef11b136ea224fe,,,,,,,,,3062,96.5,-39.5,1,0,0,response3disk,,5,-2,6.5,1,0,0,rectangle,-2,6.5,1,0,0,-2,6.5,1,0,0,0,8,8,48,1,,,,,,,,
,,,,,,,,,,,,,FF,,,,,,,,0.9689,,,,,,,,,,,,,,,,,,,,,,61034258c96850cb404c52d2,61036a2d404f7c59f50f2edb,2021-07-29_20h57.09.842,Simcolourproject_2stim_asymm_v5,2020.2.10,Win32,60,61025ae37ef11b136ea224fe,,,,,,,,,1012,74.5,52.5,1,0,0,response1disk,,6,0,11.5,1,0,0,rectangle,0,11.5,1,0,0,0,11.5,1,0,0,0,9,9,145,1,,,,,,,,
,,,,,,,,,,,,,FF,,,,,,,,1.7839,,,,,,,,,,,,,,,,,,,,,,61034258c96850cb404c52d2,61036a2d404f7c59f50f2edb,2021-07-29_20h57.09.842,Simcolourproject_2stim_asymm_v5,2020.2.10,Win32,60,61025ae37ef11b136ea224fe,,,,,,,,,3505,-40.5,-109,1,0,0,response5disk,,3,20,2.5,1,0,0,rectangle,20,2.5,1,0,0,20,2.5,1,0,0,0,10,10,12,1,,,,,,,,
,,,,,,,,,,,,,FF,,,,,,,,1.534,,,,,,,,,,,,,,,,,,,,,,61034258c96850cb404c52d2,61036a2d404f7c59f50f2edb,2021-07-29_20h57.09.842,Simcolourproject_2stim_asymm_v5,2020.2.10,Win32,60,61025ae37ef11b136ea224fe,,,,,,,,,1625,48.5,-75.5,1,0,0,response3disk,,4,3.5,-4,1,0,0,rectangle,3.5,-4,1,0,0,3.5,-4,1,0,0,0,11,11,5,1,,,,,,,,
,,,,,,,,,,,,,FF,,,,,,,,1.0354,,,,,,,,,,,,,,,,,,,,,,61034258c96850cb404c52d2,61036a2d404f7c59f50f2edb,2021-07-29_20h57.09.842,Simcolourproject_2stim_asymm_v5,2020.2.10,Win32,60,61025ae37ef11b136ea224fe,,,,,,,,,1581,100,-39.5,1,0,0,response3disk,,5,9,-5,1,0,0,rectangle,9,-5,1,0,0,9,-5,1,0,0,0,12,12,58,1,,,,,,,,
,,,,,,,,,,,,,FF,,,,,,,,0.9999,,,,,,,,,,,,,,,,,,,,,,61034258c96850cb404c52d2,61036a2d404f7c59f50f2edb,2021-07-29_20h57.09.842,Simcolourproject_2stim_asymm_v5,2020.2.10,Win32,60,61025ae37ef11b136ea224fe,,,,,,,,,2069,96.5,-43.5,1,0,0,response3disk,,5,-8.5,2,1,0,0,rectangle,-8.5,2,1,0,0,-8.5,2,1,0,0,0,13,13,17,1,,,,,,,,
,,,,,,,,,,,,,FF,,,,,,,,1.1177,,,,,,,,,,,,,,,,,,,,,,61034258c96850cb404c52d2,61036a2d404f7c59f50f2edb,2021-07-29_20h57.09.842,Simcolourproject_2stim_asymm_v5,2020.2.10,Win32,60,61025ae37ef11b136ea224fe,,,,,,,,,472,87,-34,1,0,0,response3disk,,5,4.5,9.5,1,0,0,rectangle,4.5,9.5,1,0,0,4.5,9.5,1,0,0,0,14,14,120,1,,,,,,,,
,,,,,,,,,,,,,FF,,,,,,,,1.1162,,,,,,,,,,,,,,,,,,,,,,61034258c96850cb404c52d2,61036a2d404f7c59f50f2edb,2021-07-29_20h57.09.842,Simcolourproject_2stim_asymm_v5,2020.2.10,Win32,60,61025ae37ef11b136ea224fe,,,,,,,,,3911,-26,-83,1,0,0,response5disk,,3,4.5,-3.5,1,0,0,rectangle,4.5,-3.5,1,0,0,4.5,-3.5,1,0,0,0,15,15,85,1,,,,,,,,
,,,,,,,,,,,,,FF,,,,,,,,1.034,,,,,,,,,,,,,,,,,,,,,,61034258c96850cb404c52d2,61036a2d404f7c59f50f2edb,2021-07-29_20h57.09.842,Simcolourproject_2stim_asymm_v5,2020.2.10,Win32,60,61025ae37ef11b136ea224fe,,,,,,,,,2840,-47,-74.5,1,0,0,response5disk,,3,4.5,-1,1,0,0,rectangle,4.5,-1,1,0,0,4.5,-1,1,0,0,0,16,16,36,1,,,,,,,,
,,,,,,,,,,,,,FF,,,,,,,,0.8668,,,,,,,,,,,,,,,,,,,,,,61034258c96850cb404c52d2,61036a2d404f7c59f50f2edb,2021-07-29_20h57.09.842,Simcolourproject_2stim_asymm_v5,2020.2.10,Win32,60,61025ae37ef11b136ea224fe,,,,,,,,,2775,-38,82.5,1,0,0,response7disk,,0,-6.5,12.5,1,0,0,rectangle,-6.5,12.5,1,0,0,-6.5,12.5,1,0,0,0,17,17,30,1,,,,,,,,
,,,,,,,,,,,,,FF,,,,,,,,0.9836,,,,,,,,,,,,,,,,,,,,,,61034258c96850cb404c52d2,61036a2d404f7c59f50f2edb,2021-07-29_20h57.09.842,Simcolourproject_2stim_asymm_v5,2020.2.10,Win32,60,61025ae37ef11b136ea224fe,,,,,,,,,4147,-86,-25.5,1,0,0,response5disk,,2,-12.5,0.5,1,0,0,rectangle,-12.5,0.5,1,0,0,-12.5,0.5,1,0,0,0,18,18,14,1,,,,,,,,
,,,,,,,,,,,,,FF,,,,,,,,1.0839,,,,,,,,,,,,,,,,,,,,,,61034258c96850cb404c52d2,61036a2d404f7c59f50f2edb,2021-07-29_20h57.09.842,Simcolourproject_2stim_asymm_v5,2020.2.10,Win32,60,61025ae37ef11b136ea224fe,,,,,,,,,4347,-36.5,-62,1,0,0,response5disk,,3,-2,-3.5,1,0,0,rectangle,46,-94.5,1,0,0,-8.5,1.5,1,0,0,0,19,19,89,1,,response3disk_3,TRUE,4,4,"[265,282,187,220,133,116,254,7,27,145,52,31,129,184,198,113,153,110,25,20]",1.5686,rectangle
,,,,,,,,,,,,,FF,,,,,,,,3.1674,,,,,,,,,,,,,,,,,,,,,,61034258c96850cb404c52d2,61036a2d404f7c59f50f2edb,2021-07-29_20h57.09.842,Simcolourproject_2stim_asymm_v5,2020.2.10,Win32,60,61025ae37ef11b136ea224fe,,,,,,,,,3858,36,-116.5,1,0,0,response3disk,,4,-3.5,-6.5,1,0,0,rectangle,-3.5,-6.5,1,0,0,-3.5,-6.5,1,0,0,0,20,20,29,1,,,,,,,,
,,,,,,,,,,,,,FF,,,,,,,,1.4667,,,,,,,,,,,,,,,,,,,,,,61034258c96850cb404c52d2,61036a2d404f7c59f50f2edb,2021-07-29_20h57.09.842,Simcolourproject_2stim_asymm_v5,2020.2.10,Win32,60,61025ae37ef11b136ea224fe,,,,,,,,,1238,99,-47,1,0,0,response3disk,,5,2,3.5,1,0,0,rectangle,2,3.5,1,0,0,2,3.5,1,0,0,0,21,21,158,1,,,,,,,,
,,,,,,,,,,,,,FF,,,,,,,,1.1005,,,,,,,,,,,,,,,,,,,,,,61034258c96850cb404c52d2,61036a2d404f7c59f50f2edb,2021-07-29_20h57.09.842,Simcolourproject_2stim_asymm_v5,2020.2.10,Win32,60,61025ae37ef11b136ea224fe,,,,,,,,,1959,-25,-77,1,0,0,response5disk,,3,11.5,-3,1,0,0,rectangle,11.5,-3,1,0,0,11.5,-3,1,0,0,0,22,22,20,1,,,,,,,,
,,,,,,,,,,,,,FF,,,,,,,,1.9008,,,,,,,,,,,,,,,,,,,,,,61034258c96850cb404c52d2,61036a2d404f7c59f50f2edb,2021-07-29_20h57.09.842,Simcolourproject_2stim_asymm_v5,2020.2.10,Win32,60,61025ae37ef11b136ea224fe,,,,,,,,,2209,34.5,-87.5,1,0,0,response3disk,,4,-15.5,9.5,1,0,0,rectangle,-15.5,9.5,1,0,0,-15.5,9.5,1,0,0,0,23,23,8,1,,,,,,,,
,,,,,,,,,,,,,FF,,,,,,,,1.2005,,,,,,,,,,,,,,,,,,,,,,61034258c96850cb404c52d2,61036a2d404f7c59f50f2edb,2021-07-29_20h57.09.842,Simcolourproject_2stim_asymm_v5,2020.2.10,Win32,60,61025ae37ef11b136ea224fe,,,,,,,,,3192,-48.5,-58.5,1,0,0,response5disk,,3,2,-1,1,0,0,rectangle,70,-40,1,0,0,14,-6.5,1,0,0,0,24,24,9,1,,response3disk_3,TRUE,5,5,"[265,282,187,220,133,116,254,7,27,145,52,31,129,184,198,113,153,110,25,20]",1.5002,rectangle
,,,,,,,,,,,,,FF,,,,,,,,1.3509,,,,,,,,,,,,,,,,,,,,,,61034258c96850cb404c52d2,61036a2d404f7c59f50f2edb,2021-07-29_20h57.09.842,Simcolourproject_2stim_asymm_v5,2020.2.10,Win32,60,61025ae37ef11b136ea224fe,,,,,,,,,105,49.5,-99.5,1,0,0,response3disk,,4,8.5,-5.5,1,0,0,rectangle,8.5,-5.5,1,0,0,8.5,-5.5,1,0,0,0,25,25,131,1,,,,,,,,
,,,,,,,,,,,,,FF,,,,,,,,0.8334,,,,,,,,,,,,,,,,,,,,,,61034258c96850cb404c52d2,61036a2d404f7c59f50f2edb,2021-07-29_20h57.09.842,Simcolourproject_2stim_asymm_v5,2020.2.10,Win32,60,61025ae37ef11b136ea224fe,,,,,,,,,325,46.5,113.5,1,0,0,response1disk,,7,4.5,1.5,1,0,0,rectangle,53.5,-107,1,0,0,3.5,-1.5,1,0,0,0,26,26,130,1,,response3disk_3,TRUE,4,4,"[265,282,187,220,133,116,254,7,27,145,52,31,129,184,198,113,153,110,25,20]",1.7673,rectangle
,,,,,,,,,,,,,FF,,,,,,,,1.4504,,,,,,,,,,,,,,,,,,,,,,61034258c96850cb404c52d2,61036a2d404f7c59f50f2edb,2021-07-29_20h57.09.842,Simcolourproject_2stim_asymm_v5,2020.2.10,Win32,60,61025ae37ef11b136ea224fe,,,,,,,,,585,80.5,-40,1,0,0,response3disk,,5,10,-3.5,1,0,0,rectangle,10,-3.5,1,0,0,10,-3.5,1,0,0,0,27,27,134,1,,,,,,,,
,,,,,,,,,,,,,FF,,,,,,,,0.9511,,,,,,,,,,,,,,,,,,,,,,61034258c96850cb404c52d2,61036a2d404f7c59f50f2edb,2021-07-29_20h57.09.842,Simcolourproject_2stim_asymm_v5,2020.2.10,Win32,60,61025ae37ef11b136ea224fe,,,,,,,,,3743,-85,-45.5,1,0,0,response5disk,,2,1.5,-6,1,0,0,rectangle,1.5,-6,1,0,0,1.5,-6,1,0,0,0,28,28,6,1,,,,,,,,
,,,,,,,,,,,,,FF,,,,,,,,1.0834,,,,,,,,,,,,,,,,,,,,,,61034258c96850cb404c52d2,61036a2d404f7c59f50f2edb,2021-07-29_20h57.09.842,Simcolourproject_2stim_asymm_v5,2020.2.10,Win32,60,61025ae37ef11b136ea224fe,,,,,,,,,3412,100.5,34,1,0,0,response1disk,,6,-4.5,-11.5,1,0,0,rectangle,-4.5,-11.5,1,0,0,-4.5,-11.5,1,0,0,0,29,29,109,1,,,,,,,,
,,,,,,,,,,,,,FF,,,,,,,,1.0168,,,,,,,,,,,,,,,,,,,,,,61034258c96850cb404c52d2,61036a2d404f7c59f50f2edb,2021-07-29_20h57.09.842,Simcolourproject_2stim_asymm_v5,2020.2.10,Win32,60,61025ae37ef11b136ea224fe,,,,,,,,,433,40.5,-94,1,0,0,response3disk,,4,2.5,-10,1,0,0,rectangle,-91.5,49.5,1,0,0,-6.5,-2,1,0,0,0,30,30,2,1,,response7disk_3,TRUE,1,1,"[265,282,187,220,133,116,254,7,27,145,52,31,129,184,198,113,153,110,25,20]",1.5341,rectangle
,,,,,,,,,,,,,FF,,,,,,,,1.0675,,,,,,,,,,,,,,,,,,,,,,61034258c96850cb404c52d2,61036a2d404f7c59f50f2edb,2021-07-29_20h57.09.842,Simcolourproject_2stim_asymm_v5,2020.2.10,Win32,60,61025ae37ef11b136ea224fe,,,,,,,,,3291,-85.5,-67,1,0,0,response5disk,,2,-5.5,0.5,1,0,0,rectangle,-5.5,0.5,1,0,0,-5.5,0.5,1,0,0,0,31,31,33,1,,,,,,,,
,,,,,,,,,,,,,FF,,,,,,,,0.8836,,,,,,,,,,,,,,,,,,,,,,61034258c96850cb404c52d2,61036a2d404f7c59f50f2edb,2021-07-29_20h57.09.842,Simcolourproject_2stim_asymm_v5,2020.2.10,Win32,60,61025ae37ef11b136ea224fe,,,,,,,,,2979,104.5,39,1,0,0,response1disk,,6,7,-3,1,0,0,rectangle,7,-3,1,0,0,7,-3,1,0,0,0,32,32,23,1,,,,,,,,
,,,,,,,,,,,,,FF,,,,,,,,0.6164,,,,,,,,,,,,,,,,,,,,,,61034258c96850cb404c52d2,61036a2d404f7c59f50f2edb,2021-07-29_20h57.09.842,Simcolourproject_2stim_asymm_v5,2020.2.10,Win32,60,61025ae37ef11b136ea224fe,,,,,,,,,1167,39,82,1,0,0,response1disk,,7,-1,-8.5,1,0,0,rectangle,-1,-8.5,1,0,0,-1,-8.5,1,0,0,0,33,33,146,1,,,,,,,,
,,,,,,,,,,,,,FF,,,,,,,,0.8671,,,,,,,,,,,,,,,,,,,,,,61034258c96850cb404c52d2,61036a2d404f7c59f50f2edb,2021-07-29_20h57.09.842,Simcolourproject_2stim_asymm_v5,2020.2.10,Win32,60,61025ae37ef11b136ea224fe,,,,,,,,,118,87.5,-56,1,0,0,response3disk,,5,2,-3.5,1,0,0,rectangle,2,-3.5,1,0,0,2,-3.5,1,0,0,0,34,34,22,1,,,,,,,,
,,,,,,,,,,,,,FF,,,,,,,,0.7663,,,,,,,,,,,,,,,,,,,,,,61034258c96850cb404c52d2,61036a2d404f7c59f50f2edb,2021-07-29_20h57.09.842,Simcolourproject_2stim_asymm_v5,2020.2.10,Win32,60,61025ae37ef11b136ea224fe,,,,,,,,,833,83,30,1,0,0,response1disk,,6,-17.5,-12.5,1,0,0,rectangle,-17.5,-12.5,1,0,0,-17.5,-12.5,1,0,0,0,35,35,52,1,,,,,,,,
,,,,,,,,,,,,,FF,,,,,,,,0.9171,,,,,,,,,,,,,,,,,,,,,,61034258c96850cb404c52d2,61036a2d404f7c59f50f2edb,2021-07-29_20h57.09.842,Simcolourproject_2stim_asymm_v5,2020.2.10,Win32,60,61025ae37ef11b136ea224fe,,,,,,,,,171,-42,-72.5,1,0,0,response5disk,,3,1,-3,1,0,0,rectangle,1,-3,1,0,0,1,-3,1,0,0,0,36,36,142,1,,,,,,,,
,,,,,,,,,,,,,FF,,,,,,,,0.7668,,,,,,,,,,,,,,,,,,,,,,61034258c96850cb404c52d2,61036a2d404f7c59f50f2edb,2021-07-29_20h57.09.842,Simcolourproject_2stim_asymm_v5,2020.2.10,Win32,60,61025ae37ef11b136ea224fe,,,,,,,,,1395,105.5,74.5,1,0,0,response1disk,,6,27,11.5,1,0,0,rectangle,27,11.5,1,0,0,27,11.5,1,0,0,0,37,37,100,1,,,,,,,,
,,,,,,,,,,,,,FF,,,,,,,,0.8176,,,,,,,,,,,,,,,,,,,,,,61034258c96850cb404c52d2,61036a2d404f7c59f50f2edb,2021-07-29_20h57.09.842,Simcolourproject_2stim_asymm_v5,2020.2.10,Win32,60,61025ae37ef11b136ea224fe,,,,,,,,,1986,51.5,102.5,1,0,0,response1disk,,7,-1,-7,1,0,0,rectangle,-1,-7,1,0,0,-1,-7,1,0,0,0,38,38,53,1,,,,,,,,
,,,,,,,,,,,,,FF,,,,,,,,1.0173,,,,,,,,,,,,,,,,,,,,,,61034258c96850cb404c52d2,61036a2d404f7c59f50f2edb,2021-07-29_20h57.09.842,Simcolourproject_2stim_asymm_v5,2020.2.10,Win32,60,61025ae37ef11b136ea224fe,,,,,,,,,1755,-40,-100.5,1,0,0,response5disk,,3,8.5,0.5,1,0,0,rectangle,8.5,0.5,1,0,0,8.5,0.5,1,0,0,0,39,39,60,1,,,,,,,,
,,,,,,,,,,,,,FF,,,,,,,,0.8673,,,,,,,,,,,,,,,,,,,,,,61034258c96850cb404c52d2,61036a2d404f7c59f50f2edb,2021-07-29_20h57.09.842,Simcolourproject_2stim_asymm_v5,2020.2.10,Win32,60,61025ae37ef11b136ea224fe,,,,,,,,,1708,71,34.5,1,0,0,response1disk,,6,9,8,1,0,0,rectangle,9,8,1,0,0,9,8,1,0,0,0,40,40,107,1,,,,,,,,
,,,,,,,,,,,,,FF,,,,,,,,0.9172,,,,,,,,,,,,,,,,,,,,,,61034258c96850cb404c52d2,61036a2d404f7c59f50f2edb,2021-07-29_20h57.09.842,Simcolourproject_2stim_asymm_v5,2020.2.10,Win32,60,61025ae37ef11b136ea224fe,,,,,,,,,4267,37,-106,1,0,0,response3disk,,4,-1,15,1,0,0,rectangle,-1,15,1,0,0,-1,15,1,0,0,0,41,41,101,1,,,,,,,,
,,,,,,,,,,,,,FF,,,,,,,,0.7838,,,,,,,,,,,,,,,,,,,,,,61034258c96850cb404c52d2,61036a2d404f7c59f50f2edb,2021-07-29_20h57.09.842,Simcolourproject_2stim_asymm_v5,2020.2.10,Win32,60,61025ae37ef11b136ea224fe,,,,,,,,,3457,90,34.5,1,0,0,response1disk,,6,6.5,-1.5,1,0,0,rectangle,6.5,-1.5,1,0,0,6.5,-1.5,1,0,0,0,42,42,92,1,,,,,,,,
,,,,,,,,,,,,,FF,,,,,,,,0.9006,,,,,,,,,,,,,,,,,,,,,,61034258c96850cb404c52d2,61036a2d404f7c59f50f2edb,2021-07-29_20h57.09.842,Simcolourproject_2stim_asymm_v5,2020.2.10,Win32,60,61025ae37ef11b136ea224fe,,,,,,,,,253,-36,-75.5,1,0,0,response5disk,,3,3.5,1.5,1,0,0,rectangle,3.5,1.5,1,0,0,3.5,1.5,1,0,0,0,43,43,93,1,,,,,,,,
,,,,,,,,,,,,,FF,,,,,,,,1.4334,,,,,,,,,,,,,,,,,,,,,,61034258c96850cb404c52d2,61036a2d404f7c59f50f2edb,2021-07-29_20h57.09.842,Simcolourproject_2stim_asymm_v5,2020.2.10,Win32,60,61025ae37ef11b136ea224fe,,,,,,,,,3830,39,-83,1,0,0,response3disk,,4,-8.5,8.5,1,0,0,rectangle,-8.5,8.5,1,0,0,-8.5,8.5,1,0,0,0,44,44,68,1,,,,,,,,
,,,,,,,,,,,,,FF,,,,,,,,1.4172,,,,,,,,,,,,,,,,,,,,,,61034258c96850cb404c52d2,61036a2d404f7c59f50f2edb,2021-07-29_20h57.09.842,Simcolourproject_2stim_asymm_v5,2020.2.10,Win32,60,61025ae37ef11b136ea224fe,,,,,,,,,448,89.5,44.5,1,0,0,response1disk,,6,15.5,1.5,1,0,0,rectangle,15.5,1.5,1,0,0,15.5,1.5,1,0,0,0,45,45,137,1,,,,,,,,
,,,,,,,,,,,,,FF,,,,,,,,1.117,,,,,,,,,,,,,,,,,,,,,,61034258c96850cb404c52d2,61036a2d404f7c59f50f2edb,2021-07-29_20h57.09.842,Simcolourproject_2stim_asymm_v5,2020.2.10,Win32,60,61025ae37ef11b136ea224fe,,,,,,,,,2308,44,-80.5,1,0,0,response3disk,,4,-1.5,-8.5,1,0,0,rectangle,-1.5,-8.5,1,0,0,-1.5,-8.5,1,0,0,0,46,46,84,1,,,,,,,,
,,,,,,,,,,,,,FF,,,,,,,,0.6669,,,,,,,,,,,,,,,,,,,,,,61034258c96850cb404c52d2,61036a2d404f7c59f50f2edb,2021-07-29_20h57.09.842,Simcolourproject_2stim_asymm_v5,2020.2.10,Win32,60,61025ae37ef11b136ea224fe,,,,,,,,,2,-52,-24.5,1,0,0,response5disk,,2,33,4,1,0,0,rectangle,33,4,1,0,0,33,4,1,0,0,0,47,47,151,1,,,,,,,,
,,,,,,,,,,,,,FF,,,,,,,,0.6838,,,,,,,,,,,,,,,,,,,,,,61034258c96850cb404c52d2,61036a2d404f7c59f50f2edb,2021-07-29_20h57.09.842,Simcolourproject_2stim_asymm_v5,2020.2.10,Win32,60,61025ae37ef11b136ea224fe,,,,,,,,,3050,-30.5,-70.5,1,0,0,response5disk,,3,14,11,1,0,0,rectangle,14,11,1,0,0,14,11,1,0,0,0,48,48,67,1,,,,,,,,
,,,,,,,,,,,,,FF,,,,,,,,0.9671,,,,,,,,,,,,,,,,,,,,,,61034258c96850cb404c52d2,61036a2d404f7c59f50f2edb,2021-07-29_20h57.09.842,Simcolourproject_2stim_asymm_v5,2020.2.10,Win32,60,61025ae37ef11b136ea224fe,,,,,,,,,3351,94.5,-44,1,0,0,response3disk,,5,10.5,-14.5,1,0,0,rectangle,10.5,-14.5,1,0,0,10.5,-14.5,1,0,0,0,49,49,77,1,,,,,,,,
,,,,,,,,,,,,,FF,,,,,,,,1.201,,,,,,,,,,,,,,,,,,,,,,61034258c96850cb404c52d2,61036a2d404f7c59f50f2edb,2021-07-29_20h57.09.842,Simcolourproject_2stim_asymm_v5,2020.2.10,Win32,60,61025ae37ef11b136ea224fe,,,,,,,,,2652,42.5,-104.5,1,0,0,response3disk,,4,-6.5,-6.5,1,0,0,rectangle,-6.5,-6.5,1,0,0,-6.5,-6.5,1,0,0,0,50,50,147,1,,,,,,,,
,,,,,,,,,,,,,FF,,,,,,,,0.8666,,,,,,,,,,,,,,,,,,,,,,61034258c96850cb404c52d2,61036a2d404f7c59f50f2edb,2021-07-29_20h57.09.842,Simcolourproject_2stim_asymm_v5,2020.2.10,Win32,60,61025ae37ef11b136ea224fe,,,,,,,,,1952,91.5,-52,1,0,0,response3disk,,5,12,-10.5,1,0,0,rectangle,-41.5,-97,1,0,0,16,-0.5,1,0,0,0,51,51,123,1,,response5disk_3,TRUE,3,3,"[265,282,187,220,133,116,254,7,27,145,52,31,129,184,198,113,153,110,25,20]",1.3,rectangle
,,,,,,,,,,,,,FF,,,,,,,,1.6005,,,,,,,,,,,,,,,,,,,,,,61034258c96850cb404c52d2,61036a2d404f7c59f50f2edb,2021-07-29_20h57.09.842,Simcolourproject_2stim_asymm_v5,2020.2.10,Win32,60,61025ae37ef11b136ea224fe,,,,,,,,,1045,63.5,-27,1,0,0,response3disk,,5,4,6,1,0,0,rectangle,4,6,1,0,0,4,6,1,0,0,0,52,52,7,1,,,,,,,,
,,,,,,,,,,,,,FF,,,,,,,,1.7005,,,,,,,,,,,,,,,,,,,,,,61034258c96850cb404c52d2,61036a2d404f7c59f50f2edb,2021-07-29_20h57.09.842,Simcolourproject_2stim_asymm_v5,2020.2.10,Win32,60,61025ae37ef11b136ea224fe,,,,,,,,,784,96.5,-53,1,0,0,response3disk,,5,21.5,-1.5,1,0,0,rectangle,21.5,-1.5,1,0,0,21.5,-1.5,1,0,0,0,53,53,103,1,,,,,,,,
,,,,,,,,,,,,,FF,,,,,,,,1.0001,,,,,,,,,,,,,,,,,,,,,,61034258c96850cb404c52d2,61036a2d404f7c59f50f2edb,2021-07-29_20h57.09.842,Simcolourproject_2stim_asymm_v5,2020.2.10,Win32,60,61025ae37ef11b136ea224fe,,,,,,,,,1733,43.5,-102,1,0,0,response3disk,,4,0,-4.5,1,0,0,rectangle,0,-4.5,1,0,0,0,-4.5,1,0,0,0,54,54,46,1,,,,,,,,
,,,,,,,,,,,,,FF,,,,,,,,3.8345,,,,,,,,,,,,,,,,,,,,,,61034258c96850cb404c52d2,61036a2d404f7c59f50f2edb,2021-07-29_20h57.09.842,Simcolourproject_2stim_asymm_v5,2020.2.10,Win32,60,61025ae37ef11b136ea224fe,,,,,,,,,4284,53,112,1,0,0,response1disk,,7,19.5,-6,1,0,0,rectangle,19.5,-6,1,0,0,19.5,-6,1,0,0,0,55,55,37,1,,,,,,,,
,,,,,,,,,,,,,FF,,,,,,,,1.0338,,,,,,,,,,,,,,,,,,,,,,61034258c96850cb404c52d2,61036a2d404f7c59f50f2edb,2021-07-29_20h57.09.842,Simcolourproject_2stim_asymm_v5,2020.2.10,Win32,60,61025ae37ef11b136ea224fe,,,,,,,,,1447,-82.5,33,1,0,0,response7disk,,1,11,3,1,0,0,rectangle,11,3,1,0,0,11,3,1,0,0,0,56,56,124,1,,,,,,,,
,,,,,,,,,,,,,FF,,,,,,,,3.0675,,,,,,,,,,,,,,,,,,,,,,61034258c96850cb404c52d2,61036a2d404f7c59f50f2edb,2021-07-29_20h57.09.842,Simcolourproject_2stim_asymm_v5,2020.2.10,Win32,60,61025ae37ef11b136ea224fe,,,,,,,,,1799,114.5,-41,1,0,0,response3disk,,5,6.5,-1.5,1,0,0,rectangle,6.5,-1.5,1,0,0,6.5,-1.5,1,0,0,0,57,57,72,1,,,,,,,,
,,,,,,,,,,,,,FF,,,,,,,,0.8171,,,,,,,,,,,,,,,,,,,,,,61034258c96850cb404c52d2,61036a2d404f7c59f50f2edb,2021-07-29_20h57.09.842,Simcolourproject_2stim_asymm_v5,2020.2.10,Win32,60,61025ae37ef11b136ea224fe,,,,,,,,,2043,46.5,-80,1,0,0,response3disk,,4,15.5,0.5,1,0,0,rectangle,15.5,0.5,1,0,0,15.5,0.5,1,0,0,0,58,58,105,1,,,,,,,,
,,,,,,,,,,,,,FF,,,,,,,,0.6836,,,,,,,,,,,,,,,,,,,,,,61034258c96850cb404c52d2,61036a2d404f7c59f50f2edb,2021-07-29_20h57.09.842,Simcolourproject_2stim_asymm_v5,2020.2.10,Win32,60,61025ae37ef11b136ea224fe,,,,,,,,,2624,95,38,1,0,0,response1disk,,6,11,12,1,0,0,rectangle,11,12,1,0,0,11,12,1,0,0,0,59,59,144,1,,,,,,,,
,,,,,,,,,,,,,FF,,,,,,,,0.7339,,,,,,,,,,,,,,,,,,,,,,61034258c96850cb404c52d2,61036a2d404f7c59f50f2edb,2021-07-29_20h57.09.842,Simcolourproject_2stim_asymm_v5,2020.2.10,Win32,60,61025ae37ef11b136ea224fe,,,,,,,,,169,-33.5,-86.5,1,0,0,response5disk,,3,10.5,2.5,1,0,0,rectangle,10.5,2.5,1,0,0,10.5,2.5,1,0,0,0,60,60,31,1,,,,,,,,
,,,,,,,,,,,,,FF,,,,,,,,0.7837,,,,,,,,,,,,,,,,,,,,,,61034258c96850cb404c52d2,61036a2d404f7c59f50f2edb,2021-07-29_20h57.09.842,Simcolourproject_2stim_asymm_v5,2020.2.10,Win32,60,61025ae37ef11b136ea224fe,,,,,,,,,2908,40.5,-93,1,0,0,response3disk,,4,10,8.5,1,0,0,rectangle,10,8.5,1,0,0,10,8.5,1,0,0,0,61,61,114,1,,,,,,,,
,,,,,,,,,,,,,FF,,,,,,,,0.6342,,,,,,,,,,,,,,,,,,,,,,61034258c96850cb404c52d2,61036a2d404f7c59f50f2edb,2021-07-29_20h57.09.842,Simcolourproject_2stim_asymm_v5,2020.2.10,Win32,60,61025ae37ef11b136ea224fe,,,,,,,,,1502,74,-38,1,0,0,response3disk,,5,22,-1,1,0,0,rectangle,22,-1,1,0,0,22,-1,1,0,0,0,62,62,4,1,,,,,,,,
,,,,,,,,,,,,,FF,,,,,,,,0.8337,,,,,,,,,,,,,,,,,,,,,,61034258c96850cb404c52d2,61036a2d404f7c59f50f2edb,2021-07-29_20h57.09.842,Simcolourproject_2stim_asymm_v5,2020.2.10,Win32,60,61025ae37ef11b136ea224fe,,,,,,,,,393,64.5,-29,1,0,0,response3disk,,5,-9,5,1,0,0,rectangle,-9,5,1,0,0,-9,5,1,0,0,0,63,63,32,1,,,,,,,,
,,,,,,,,,,,,,FF,,,,,,,,0.8172,,,,,,,,,,,,,,,,,,,,,,61034258c96850cb404c52d2,61036a2d404f7c59f50f2edb,2021-07-29_20h57.09.842,Simcolourproject_2stim_asymm_v5,2020.2.10,Win32,60,61025ae37ef11b136ea224fe,,,,,,,,,2926,85,34.5,1,0,0,response1disk,,6,16,-4,1,0,0,rectangle,16,-4,1,0,0,16,-4,1,0,0,0,64,64,65,1,,,,,,,,
,,,,,,,,,,,,,FF,,,,,,,,1.1336,,,,,,,,,,,,,,,,,,,,,,61034258c96850cb404c52d2,61036a2d404f7c59f50f2edb,2021-07-29_20h57.09.842,Simcolourproject_2stim_asymm_v5,2020.2.10,Win32,60,61025ae37ef11b136ea224fe,,,,,,,,,4148,45.5,-91,1,0,0,response3disk,,4,12,2.5,1,0,0,rectangle,12,2.5,1,0,0,12,2.5,1,0,0,0,65,65,118,1,,,,,,,,
,,,,,,,,,,,,,FF,,,,,,,,0.8336,,,,,,,,,,,,,,,,,,,,,,61034258c96850cb404c52d2,61036a2d404f7c59f50f2edb,2021-07-29_20h57.09.842,Simcolourproject_2stim_asymm_v5,2020.2.10,Win32,60,61025ae37ef11b136ea224fe,,,,,,,,,480,113,34,1,0,0,response1disk,,6,28.5,-8.5,1,0,0,rectangle,28.5,-8.5,1,0,0,28.5,-8.5,1,0,0,0,66,66,45,1,,,,,,,,
,,,,,,,,,,,,,FF,,,,,,,,0.7502,,,,,,,,,,,,,,,,,,,,,,61034258c96850cb404c52d2,61036a2d404f7c59f50f2edb,2021-07-29_20h57.09.842,Simcolourproject_2stim_asymm_v5,2020.2.10,Win32,60,61025ae37ef11b136ea224fe,,,,,,,,,1190,98,55,1,0,0,response1disk,,6,-11.5,15,1,0,0,rectangle,-11.5,15,1,0,0,-11.5,15,1,0,0,0,67,67,16,1,,,,,,,,
,,,,,,,,,,,,,FF,,,,,,,,0.9337,,,,,,,,,,,,,,,,,,,,,,61034258c96850cb404c52d2,61036a2d404f7c59f50f2edb,2021-07-29_20h57.09.842,Simcolourproject_2stim_asymm_v5,2020.2.10,Win32,60,61025ae37ef11b136ea224fe,,,,,,,,,1752,-64.5,-26,1,0,0,response5disk,,2,20.5,4,1,0,0,rectangle,20.5,4,1,0,0,20.5,4,1,0,0,0,68,68,129,1,,,,,,,,
,,,,,,,,,,,,,FF,,,,,,,,0.7838,,,,,,,,,,,,,,,,,,,,,,61034258c96850cb404c52d2,61036a2d404f7c59f50f2edb,2021-07-29_20h57.09.842,Simcolourproject_2stim_asymm_v5,2020.2.10,Win32,60,61025ae37ef11b136ea224fe,,,,,,,,,497,62.5,121.5,1,0,0,response1disk,,7,3.5,2.5,1,0,0,rectangle,3.5,2.5,1,0,0,3.5,2.5,1,0,0,0,69,69,0,1,,,,,,,,
,,,,,,,,,,,,,FF,,,,,,,,0.8336,,,,,,,,,,,,,,,,,,,,,,61034258c96850cb404c52d2,61036a2d404f7c59f50f2edb,2021-07-29_20h57.09.842,Simcolourproject_2stim_asymm_v5,2020.2.10,Win32,60,61025ae37ef11b136ea224fe,,,,,,,,,1457,-25.5,-64.5,1,0,0,response5disk,,3,7,12,1,0,0,rectangle,7,12,1,0,0,7,12,1,0,0,0,70,70,66,1,,,,,,,,
,,,,,,,,,,,,,FF,,,,,,,,0.9339,,,,,,,,,,,,,,,,,,,,,,61034258c96850cb404c52d2,61036a2d404f7c59f50f2edb,2021-07-29_20h57.09.842,Simcolourproject_2stim_asymm_v5,2020.2.10,Win32,60,61025ae37ef11b136ea224fe,,,,,,,,,498,63,105,1,0,0,response1disk,,7,11.5,7.5,1,0,0,rectangle,11.5,7.5,1,0,0,11.5,7.5,1,0,0,0,71,71,24,1,,,,,,,,
,,,,,,,,,,,,,FF,,,,,,,,1.1672,,,,,,,,,,,,,,,,,,,,,,61034258c96850cb404c52d2,61036a2d404f7c59f50f2edb,2021-07-29_20h57.09.842,Simcolourproject_2stim_asymm_v5,2020.2.10,Win32,60,61025ae37ef11b136ea224fe,,,,,,,,,888,-60,36.5,1,0,0,response7disk,,1,17,0,1,0,0,rectangle,17,0,1,0,0,17,0,1,0,0,0,72,72,25,1,,,,,,,,
,,,,,,,,,,,,,FF,,,,,,,,0.8672,,,,,,,,,,,,,,,,,,,,,,61034258c96850cb404c52d2,61036a2d404f7c59f50f2edb,2021-07-29_20h57.09.842,Simcolourproject_2stim_asymm_v5,2020.2.10,Win32,60,61025ae37ef11b136ea224fe,,,,,,,,,2219,48.5,-30.5,1,0,0,response3disk,,5,10,-2.5,1,0,0,rectangle,10,-2.5,1,0,0,10,-2.5,1,0,0,0,73,73,63,1,,,,,,,,
,,,,,,,,,,,,,FF,,,,,,,,0.9168,,,,,,,,,,,,,,,,,,,,,,61034258c96850cb404c52d2,61036a2d404f7c59f50f2edb,2021-07-29_20h57.09.842,Simcolourproject_2stim_asymm_v5,2020.2.10,Win32,60,61025ae37ef11b136ea224fe,,,,,,,,,3742,-70,21.5,1,0,0,response7disk,,1,-6,13.5,1,0,0,rectangle,-6,13.5,1,0,0,-6,13.5,1,0,0,0,74,74,135,1,,,,,,,,
,,,,,,,,,,,,,FF,,,,,,,,1.4339,,,,,,,,,,,,,,,,,,,,,,61034258c96850cb404c52d2,61036a2d404f7c59f50f2edb,2021-07-29_20h57.09.842,Simcolourproject_2stim_asymm_v5,2020.2.10,Win32,60,61025ae37ef11b136ea224fe,,,,,,,,,1065,35,-107,1,0,0,response3disk,,4,-9.5,-1.5,1,0,0,rectangle,-9.5,-1.5,1,0,0,-9.5,-1.5,1,0,0,0,75,75,55,1,,,,,,,,
,,,,,,,,,,,,,FF,,,,,,,,1.3336,,,,,,,,,,,,,,,,,,,,,,61034258c96850cb404c52d2,61036a2d404f7c59f50f2edb,2021-07-29_20h57.09.842,Simcolourproject_2stim_asymm_v5,2020.2.10,Win32,60,61025ae37ef11b136ea224fe,,,,,,,,,476,107.5,-26,1,0,0,response3disk,,5,23.5,-7,1,0,0,rectangle,23.5,-7,1,0,0,23.5,-7,1,0,0,0,76,76,3,1,,,,,,,,
,,,,,,,,,,,,,FF,,,,,,,,0.8498,,,,,,,,,,,,,,,,,,,,,,61034258c96850cb404c52d2,61036a2d404f7c59f50f2edb,2021-07-29_20h57.09.842,Simcolourproject_2stim_asymm_v5,2020.2.10,Win32,60,61025ae37ef11b136ea224fe,,,,,,,,,2939,39,61.5,1,0,0,response1disk,,7,29,12,1,0,0,rectangle,29,12,1,0,0,29,12,1,0,0,0,77,77,70,1,,,,,,,,
,,,,,,,,,,,,,FF,,,,,,,,0.8347,,,,,,,,,,,,,,,,,,,,,,61034258c96850cb404c52d2,61036a2d404f7c59f50f2edb,2021-07-29_20h57.09.842,Simcolourproject_2stim_asymm_v5,2020.2.10,Win32,60,61025ae37ef11b136ea224fe,,,,,,,,,2866,34.5,100.5,1,0,0,response1disk,,7,3.5,-14.5,1,0,0,rectangle,3.5,-14.5,1,0,0,3.5,-14.5,1,0,0,0,78,78,156,1,,,,,,,,
,,,,,,,,,,,,,FF,,,,,,,,1.0506,,,,,,,,,,,,,,,,,,,,,,61034258c96850cb404c52d2,61036a2d404f7c59f50f2edb,2021-07-29_20h57.09.842,Simcolourproject_2stim_asymm_v5,2020.2.10,Win32,60,61025ae37ef11b136ea224fe,,,,,,,,,614,28.5,-66,1,0,0,response3disk,,4,2.5,-3.5,1,0,0,rectangle,2.5,-3.5,1,0,0,2.5,-3.5,1,0,0,0,79,79,94,1,,,,,,,,
,,,,,,,,,,,,,FF,,,,,,,,1.9007,,,,,,,,,,,,,,,,,,,,,,61034258c96850cb404c52d2,61036a2d404f7c59f50f2edb,2021-07-29_20h57.09.842,Simcolourproject_2stim_asymm_v5,2020.2.10,Win32,60,61025ae37ef11b136ea224fe,,,,,,,,,3935,49,-70,1,0,0,response3disk,,4,5.5,1.5,1,0,0,rectangle,5.5,1.5,1,0,0,5.5,1.5,1,0,0,0,80,80,81,1,,,,,,,,
,,,,,,,,,,,,,FF,,,,,,,,0.8338,,,,,,,,,,,,,,,,,,,,,,61034258c96850cb404c52d2,61036a2d404f7c59f50f2edb,2021-07-29_20h57.09.842,Simcolourproject_2stim_asymm_v5,2020.2.10,Win32,60,61025ae37ef11b136ea224fe,,,,,,,,,324,84,-39,1,0,0,response3disk,,5,7.5,-2.5,1,0,0,rectangle,7.5,-2.5,1,0,0,7.5,-2.5,1,0,0,0,81,81,74,1,,,,,,,,
,,,,,,,,,,,,,FF,,,,,,,,1.4672,,,,,,,,,,,,,,,,,,,,,,61034258c96850cb404c52d2,61036a2d404f7c59f50f2edb,2021-07-29_20h57.09.842,Simcolourproject_2stim_asymm_v5,2020.2.10,Win32,60,61025ae37ef11b136ea224fe,,,,,,,,,3845,107.5,-52,1,0,0,response3disk,,5,8.5,5.5,1,0,0,rectangle,8.5,5.5,1,0,0,8.5,5.5,1,0,0,0,82,82,116,1,,,,,,,,
,,,,,,,,,,,,,FF,,,,,,,,0.8838,,,,,,,,,,,,,,,,,,,,,,61034258c96850cb404c52d2,61036a2d404f7c59f50f2edb,2021-07-29_20h57.09.842,Simcolourproject_2stim_asymm_v5,2020.2.10,Win32,60,61025ae37ef11b136ea224fe,,,,,,,,,2510,97,-25,1,0,0,response3disk,,5,19.5,5.5,1,0,0,rectangle,19.5,5.5,1,0,0,19.5,5.5,1,0,0,0,83,83,143,1,,,,,,,,
,,,,,,,,,,,,,FF,,,,,,,,1.2174,,,,,,,,,,,,,,,,,,,,,,61034258c96850cb404c52d2,61036a2d404f7c59f50f2edb,2021-07-29_20h57.09.842,Simcolourproject_2stim_asymm_v5,2020.2.10,Win32,60,61025ae37ef11b136ea224fe,,,,,,,,,2435,78.5,-49,1,0,0,response3disk,,5,3.5,-6,1,0,0,rectangle,3.5,-6,1,0,0,3.5,-6,1,0,0,0,84,84,104,1,,,,,,,,
,,,,,,,,,,,,,FF,,,,,,,,2.8344,,,,,,,,,,,,,,,,,,,,,,61034258c96850cb404c52d2,61036a2d404f7c59f50f2edb,2021-07-29_20h57.09.842,Simcolourproject_2stim_asymm_v5,2020.2.10,Win32,60,61025ae37ef11b136ea224fe,,,,,,,,,1500,41.5,-57.5,1,0,0,response3disk,,4,12.5,-8,1,0,0,rectangle,12.5,-8,1,0,0,12.5,-8,1,0,0,0,85,85,64,1,,,,,,,,
,,,,,,,,,,,,,FF,,,,,,,,1.7507,,,,,,,,,,,,,,,,,,,,,,61034258c96850cb404c52d2,61036a2d404f7c59f50f2edb,2021-07-29_20h57.09.842,Simcolourproject_2stim_asymm_v5,2020.2.10,Win32,60,61025ae37ef11b136ea224fe,,,,,,,,,646,38,-88.5,1,0,0,response3disk,,4,1.5,15.5,1,0,0,rectangle,1.5,15.5,1,0,0,1.5,15.5,1,0,0,0,86,86,75,1,,,,,,,,
,,,,,,,,,,,,,FF,,,,,,,,0.7338,,,,,,,,,,,,,,,,,,,,,,61034258c96850cb404c52d2,61036a2d404f7c59f50f2edb,2021-07-29_20h57.09.842,Simcolourproject_2stim_asymm_v5,2020.2.10,Win32,60,61025ae37ef11b136ea224fe,,,,,,,,,388,45,-85.5,1,0,0,response3disk,,4,28,0,1,0,0,rectangle,28,0,1,0,0,28,0,1,0,0,0,87,87,41,1,,,,,,,,
,,,,,,,,,,,,,FF,,,,,,,,1.5176,,,,,,,,,,,,,,,,,,,,,,61034258c96850cb404c52d2,61036a2d404f7c59f50f2edb,2021-07-29_20h57.09.842,Simcolourproject_2stim_asymm_v5,2020.2.10,Win32,60,61025ae37ef11b136ea224fe,,,,,,,,,3603,84,-40,1,0,0,response3disk,,5,11,9,1,0,0,rectangle,11,9,1,0,0,11,9,1,0,0,0,88,88,125,1,,,,,,,,
,,,,,,,,,,,,,FF,,,,,,,,1.3175,,,,,,,,,,,,,,,,,,,,,,61034258c96850cb404c52d2,61036a2d404f7c59f50f2edb,2021-07-29_20h57.09.842,Simcolourproject_2stim_asymm_v5,2020.2.10,Win32,60,61025ae37ef11b136ea224fe,,,,,,,,,3963,88.5,-37.5,1,0,0,response3disk,,5,17.5,16.5,1,0,0,rectangle,17.5,16.5,1,0,0,17.5,16.5,1,0,0,0,89,89,87,1,,,,,,,,
,,,,,,,,,,,,,FF,,,,,,,,0.7998,,,,,,,,,,,,,,,,,,,,,,61034258c96850cb404c52d2,61036a2d404f7c59f50f2edb,2021-07-29_20h57.09.842,Simcolourproject_2stim_asymm_v5,2020.2.10,Win32,60,61025ae37ef11b136ea224fe,,,,,,,,,959,111,56.5,1,0,0,response1disk,,6,11,0,1,0,0,rectangle,11,0,1,0,0,11,0,1,0,0,0,90,90,152,1,,,,,,,,
,,,,,,,,,,,,,FF,,,,,,,,0.7455,,,,,,,,,,,,,,,,,,,,,,61034258c96850cb404c52d2,61036a2d404f7c59f50f2edb,2021-07-29_20h57.09.842,Simcolourproject_2stim_asymm_v5,2020.2.10,Win32,60,61025ae37ef11b136ea224fe,,,,,,,,,929,90.5,42,1,0,0,response1disk,,6,23.5,-15.5,1,0,0,rectangle,23.5,-15.5,1,0,0,23.5,-15.5,1,0,0,0,91,91,76,1,,,,,,,,
,,,,,,,,,,,,,FF,,,,,,,,0.9177,,,,,,,,,,,,,,,,,,,,,,61034258c96850cb404c52d2,61036a2d404f7c59f50f2edb,2021-07-29_20h57.09.842,Simcolourproject_2stim_asymm_v5,2020.2.10,Win32,60,61025ae37ef11b136ea224fe,,,,,,,,,668,77.5,-22,1,0,0,response3disk,,5,8.5,13.5,1,0,0,rectangle,8.5,13.5,1,0,0,8.5,13.5,1,0,0,0,92,92,91,1,,,,,,,,
,,,,,,,,,,,,,FF,,,,,,,,1.0169,,,,,,,,,,,,,,,,,,,,,,61034258c96850cb404c52d2,61036a2d404f7c59f50f2edb,2021-07-29_20h57.09.842,Simcolourproject_2stim_asymm_v5,2020.2.10,Win32,60,61025ae37ef11b136ea224fe,,,,,,,,,3040,27.5,-60,1,0,0,response3disk,,4,2.5,-10,1,0,0,rectangle,2.5,-10,1,0,0,2.5,-10,1,0,0,0,93,93,10,1,,,,,,,,
,,,,,,,,,,,,,FF,,,,,,,,0.6671,,,,,,,,,,,,,,,,,,,,,,61034258c96850cb404c52d2,61036a2d404f7c59f50f2edb,2021-07-29_20h57.09.842,Simcolourproject_2stim_asymm_v5,2020.2.10,Win32,60,61025ae37ef11b136ea224fe,,,,,,,,,2562,74.5,-23,1,0,0,response3disk,,5,28,-8,1,0,0,rectangle,28,-8,1,0,0,28,-8,1,0,0,0,94,94,157,1,,,,,,,,
,,,,,,,,,,,,,FF,,,,,,,,0.8012,,,,,,,,,,,,,,,,,,,,,,61034258c96850cb404c52d2,61036a2d404f7c59f50f2edb,2021-07-29_20h57.09.842,Simcolourproject_2stim_asymm_v5,2020.2.10,Win32,60,61025ae37ef11b136ea224fe,,,,,,,,,1076,68.5,-44.5,1,0,0,response3disk,,5,3,-8.5,1,0,0,rectangle,3,-8.5,1,0,0,3,-8.5,1,0,0,0,95,95,148,1,,,,,,,,
,,,,,,,,,,,,,FF,,,,,,,,0.7838,,,,,,,,,,,,,,,,,,,,,,61034258c96850cb404c52d2,61036a2d404f7c59f50f2edb,2021-07-29_20h57.09.842,Simcolourproject_2stim_asymm_v5,2020.2.10,Win32,60,61025ae37ef11b136ea224fe,,,,,,,,,2814,83,46,1,0,0,response1disk,,6,-17,-1.5,1,0,0,rectangle,-17,-1.5,1,0,0,-17,-1.5,1,0,0,0,96,96,73,1,,,,,,,,
,,,,,,,,,,,,,FF,,,,,,,,0.6173,,,,,,,,,,,,,,,,,,,,,,61034258c96850cb404c52d2,61036a2d404f7c59f50f2edb,2021-07-29_20h57.09.842,Simcolourproject_2stim_asymm_v5,2020.2.10,Win32,60,61025ae37ef11b136ea224fe,,,,,,,,,857,50.5,24.5,1,0,0,response1disk,,6,0.5,-12.5,1,0,0,rectangle,0.5,-12.5,1,0,0,0.5,-12.5,1,0,0,0,97,97,102,1,,,,,,,,
,,,,,,,,,,,,,FF,,,,,,,,0.7493,,,,,,,,,,,,,,,,,,,,,,61034258c96850cb404c52d2,61036a2d404f7c59f50f2edb,2021-07-29_20h57.09.842,Simcolourproject_2stim_asymm_v5,2020.2.10,Win32,60,61025ae37ef11b136ea224fe,,,,,,,,,2445,90.5,29,1,0,0,response1disk,,6,1,1.5,1,0,0,rectangle,1,1.5,1,0,0,1,1.5,1,0,0,0,98,98,122,1,,,,,,,,
,,,,,,,,,,,,,FF,,,,,,,,0.7182,,,,,,,,,,,,,,,,,,,,,,61034258c96850cb404c52d2,61036a2d404f7c59f50f2edb,2021-07-29_20h57.09.842,Simcolourproject_2stim_asymm_v5,2020.2.10,Win32,60,61025ae37ef11b136ea224fe,,,,,,,,,2441,65.5,-29.5,1,0,0,response3disk,,5,23.5,-8,1,0,0,rectangle,23.5,-8,1,0,0,23.5,-8,1,0,0,0,99,99,115,1,,,,,,,,
,,,,,,,,,,,,,FF,,,,,,,,0.9666,,,,,,,,,,,,,,,,,,,,,,61034258c96850cb404c52d2,61036a2d404f7c59f50f2edb,2021-07-29_20h57.09.842,Simcolourproject_2stim_asymm_v5,2020.2.10,Win32,60,61025ae37ef11b136ea224fe,,,,,,,,,3678,63,-33,1,0,0,response3disk,,5,-3,6,1,0,0,rectangle,-3,6,1,0,0,-3,6,1,0,0,0,100,100,127,1,,,,,,,,
,,,,,,,,,,,,,FF,,,,,,,,0.9346,,,,,,,,,,,,,,,,,,,,,,61034258c96850cb404c52d2,61036a2d404f7c59f50f2edb,2021-07-29_20h57.09.842,Simcolourproject_2stim_asymm_v5,2020.2.10,Win32,60,61025ae37ef11b136ea224fe,,,,,,,,,4227,102,67.5,1,0,0,response1disk,,6,-1,-0.5,1,0,0,rectangle,-1,-0.5,1,0,0,-1,-0.5,1,0,0,0,101,101,21,1,,,,,,,,
,,,,,,,,,,,,,FF,,,,,,,,1.3005,,,,,,,,,,,,,,,,,,,,,,61034258c96850cb404c52d2,61036a2d404f7c59f50f2edb,2021-07-29_20h57.09.842,Simcolourproject_2stim_asymm_v5,2020.2.10,Win32,60,61025ae37ef11b136ea224fe,,,,,,,,,4170,-43.5,-71.5,1,0,0,response5disk,,3,8,0,1,0,0,rectangle,8,0,1,0,0,8,0,1,0,0,0,102,102,139,1,,,,,,,,
,,,,,,,,,,,,,FF,,,,,,,,0.7172,,,,,,,,,,,,,,,,,,,,,,61034258c96850cb404c52d2,61036a2d404f7c59f50f2edb,2021-07-29_20h57.09.842,Simcolourproject_2stim_asymm_v5,2020.2.10,Win32,60,61025ae37ef11b136ea224fe,,,,,,,,,2645,71,-41.5,1,0,0,response3disk,,5,21,-8,1,0,0,rectangle,21,-8,1,0,0,21,-8,1,0,0,0,103,103,42,1,,,,,,,,
,,,,,,,,,,,,,FF,,,,,,,,1.234,,,,,,,,,,,,,,,,,,,,,,61034258c96850cb404c52d2,61036a2d404f7c59f50f2edb,2021-07-29_20h57.09.842,Simcolourproject_2stim_asymm_v5,2020.2.10,Win32,60,61025ae37ef11b136ea224fe,,,,,,,,,2964,53.5,68.5,1,0,0,response1disk,,7,20.5,-3.5,1,0,0,rectangle,20.5,-3.5,1,0,0,20.5,-3.5,1,0,0,0,104,104,132,1,,,,,,,,
,,,,,,,,,,,,,FF,,,,,,,,1.0821,,,,,,,,,,,,,,,,,,,,,,61034258c96850cb404c52d2,61036a2d404f7c59f50f2edb,2021-07-29_20h57.09.842,Simcolourproject_2stim_asymm_v5,2020.2.10,Win32,60,61025ae37ef11b136ea224fe,,,,,,,,,610,23.5,-75,1,0,0,response3disk,,4,6.5,-2,1,0,0,rectangle,6.5,-2,1,0,0,6.5,-2,1,0,0,0,105,105,88,1,,,,,,,,
,,,,,,,,,,,,,FF,,,,,,,,1.0506,,,,,,,,,,,,,,,,,,,,,,61034258c96850cb404c52d2,61036a2d404f7c59f50f2edb,2021-07-29_20h57.09.842,Simcolourproject_2stim_asymm_v5,2020.2.10,Win32,60,61025ae37ef11b136ea224fe,,,,,,,,,3444,60,-35.5,1,0,0,response3disk,,5,9,5.5,1,0,0,rectangle,9,5.5,1,0,0,9,5.5,1,0,0,0,106,106,154,1,,,,,,,,
,,,,,,,,,,,,,FF,,,,,,,,1.0504,,,,,,,,,,,,,,,,,,,,,,61034258c96850cb404c52d2,61036a2d404f7c59f50f2edb,2021-07-29_20h57.09.842,Simcolourproject_2stim_asymm_v5,2020.2.10,Win32,60,61025ae37ef11b136ea224fe,,,,,,,,,1634,54.5,101.5,1,0,0,response1disk,,7,19.5,-0.5,1,0,0,rectangle,19.5,-0.5,1,0,0,19.5,-0.5,1,0,0,0,107,107,80,1,,,,,,,,
,,,,,,,,,,,,,FF,,,,,,,,0.7157,,,,,,,,,,,,,,,,,,,,,,61034258c96850cb404c52d2,61036a2d404f7c59f50f2edb,2021-07-29_20h57.09.842,Simcolourproject_2stim_asymm_v5,2020.2.10,Win32,60,61025ae37ef11b136ea224fe,,,,,,,,,3119,74.5,30.5,1,0,0,response1disk,,6,-2.5,-9.5,1,0,0,rectangle,-2.5,-9.5,1,0,0,-2.5,-9.5,1,0,0,0,108,108,121,1,,,,,,,,
,,,,,,,,,,,,,FF,,,,,,,,1.1675,,,,,,,,,,,,,,,,,,,,,,61034258c96850cb404c52d2,61036a2d404f7c59f50f2edb,2021-07-29_20h57.09.842,Simcolourproject_2stim_asymm_v5,2020.2.10,Win32,60,61025ae37ef11b136ea224fe,,,,,,,,,220,90.5,47.5,1,0,0,response1disk,,6,-1.5,8.5,1,0,0,rectangle,-84,-20.5,1,0,0,-4,-3.5,1,0,0,0,109,109,82,1,,response5disk_3,TRUE,2,2,"[265,282,187,220,133,116,254,7,27,145,52,31,129,184,198,113,153,110,25,20]",1.567,rectangle
,,,,,,,,,,,,,FF,,,,,,,,0.8336,,,,,,,,,,,,,,,,,,,,,,61034258c96850cb404c52d2,61036a2d404f7c59f50f2edb,2021-07-29_20h57.09.842,Simcolourproject_2stim_asymm_v5,2020.2.10,Win32,60,61025ae37ef11b136ea224fe,,,,,,,,,1583,88.5,-27,1,0,0,response3disk,,5,13.5,-0.5,1,0,0,rectangle,13.5,-0.5,1,0,0,13.5,-0.5,1,0,0,0,110,110,44,1,,,,,,,,
,,,,,,,,,,,,,FF,,,,,,,,0.9863,,,,,,,,,,,,,,,,,,,,,,61034258c96850cb404c52d2,61036a2d404f7c59f50f2edb,2021-07-29_20h57.09.842,Simcolourproject_2stim_asymm_v5,2020.2.10,Win32,60,61025ae37ef11b136ea224fe,,,,,,,,,4253,-60.5,-38,1,0,0,response5disk,,2,10.5,0.5,1,0,0,rectangle,10.5,0.5,1,0,0,10.5,0.5,1,0,0,0,111,111,13,1,,,,,,,,
,,,,,,,,,,,,,FF,,,,,,,,1.1171,,,,,,,,,,,,,,,,,,,,,,61034258c96850cb404c52d2,61036a2d404f7c59f50f2edb,2021-07-29_20h57.09.842,Simcolourproject_2stim_asymm_v5,2020.2.10,Win32,60,61025ae37ef11b136ea224fe,,,,,,,,,3853,-26,-85,1,0,0,response5disk,,3,6,3.5,1,0,0,rectangle,63,101,1,0,0,7,4.5,1,0,0,0,112,112,15,1,,response1disk_3,TRUE,7,7,"[265,282,187,220,133,116,254,7,27,145,52,31,129,184,198,113,153,110,25,20]",1.5956,rectangle
,,,,,,,,,,,,,FF,,,,,,,,0.9836,,,,,,,,,,,,,,,,,,,,,,61034258c96850cb404c52d2,61036a2d404f7c59f50f2edb,2021-07-29_20h57.09.842,Simcolourproject_2stim_asymm_v5,2020.2.10,Win32,60,61025ae37ef11b136ea224fe,,,,,,,,,3673,-57,-29,1,0,0,response5disk,,2,11.5,-8.5,1,0,0,rectangle,11.5,-8.5,1,0,0,11.5,-8.5,1,0,0,0,113,113,149,1,,,,,,,,
,,,,,,,,,,,,,FF,,,,,,,,1.3508,,,,,,,,,,,,,,,,,,,,,,61034258c96850cb404c52d2,61036a2d404f7c59f50f2edb,2021-07-29_20h57.09.842,Simcolourproject_2stim_asymm_v5,2020.2.10,Win32,60,61025ae37ef11b136ea224fe,,,,,,,,,2494,33.5,-79,1,0,0,response3disk,,4,1.5,-9.5,1,0,0,rectangle,1.5,-9.5,1,0,0,1.5,-9.5,1,0,0,0,114,114,34,1,,,,,,,,
,,,,,,,,,,,,,FF,,,,,,,,0.7994,,,,,,,,,,,,,,,,,,,,,,61034258c96850cb404c52d2,61036a2d404f7c59f50f2edb,2021-07-29_20h57.09.842,Simcolourproject_2stim_asymm_v5,2020.2.10,Win32,60,61025ae37ef11b136ea224fe,,,,,,,,,2699,77.5,46,1,0,0,response1disk,,6,-4,13.5,1,0,0,rectangle,-104.5,41,1,0,0,-36.5,14.5,1,0,0,0,115,115,40,1,,response7disk_3,TRUE,1,1,"[265,282,187,220,133,116,254,7,27,145,52,31,129,184,198,113,153,110,25,20]",1.4037,rectangle
,,,,,,,,,,,,,FF,,,,,,,,1.2052,,,,,,,,,,,,,,,,,,,,,,61034258c96850cb404c52d2,61036a2d404f7c59f50f2edb,2021-07-29_20h57.09.842,Simcolourproject_2stim_asymm_v5,2020.2.10,Win32,60,61025ae37ef11b136ea224fe,,,,,,,,,3041,-19,-65.5,1,0,0,response5disk,,3,11.5,6.5,1,0,0,rectangle,11.5,6.5,1,0,0,11.5,6.5,1,0,0,0,116,116,43,1,,,,,,,,
,,,,,,,,,,,,,FF,,,,,,,,0.9955,,,,,,,,,,,,,,,,,,,,,,61034258c96850cb404c52d2,61036a2d404f7c59f50f2edb,2021-07-29_20h57.09.842,Simcolourproject_2stim_asymm_v5,2020.2.10,Win32,60,61025ae37ef11b136ea224fe,,,,,,,,,1551,105.5,-33.5,1,0,0,response3disk,,5,9,-10,1,0,0,rectangle,9,-10,1,0,0,9,-10,1,0,0,0,117,117,26,1,,,,,,,,
,,,,,,,,,,,,,FF,,,,,,,,1.7329,,,,,,,,,,,,,,,,,,,,,,61034258c96850cb404c52d2,61036a2d404f7c59f50f2edb,2021-07-29_20h57.09.842,Simcolourproject_2stim_asymm_v5,2020.2.10,Win32,60,61025ae37ef11b136ea224fe,,,,,,,,,1310,48,-29,1,0,0,response3disk,,5,4.5,-10,1,0,0,rectangle,4.5,-10,1,0,0,4.5,-10,1,0,0,0,118,118,136,1,,,,,,,,
,,,,,,,,,,,,,FF,,,,,,,,1.0842,,,,,,,,,,,,,,,,,,,,,,61034258c96850cb404c52d2,61036a2d404f7c59f50f2edb,2021-07-29_20h57.09.842,Simcolourproject_2stim_asymm_v5,2020.2.10,Win32,60,61025ae37ef11b136ea224fe,,,,,,,,,765,25,115.5,1,0,0,response1disk,,7,-3.5,6,1,0,0,rectangle,-3.5,6,1,0,0,-3.5,6,1,0,0,0,119,119,159,1,,,,,,,,
,,,,,,,,,,,,,FF,,,,,,,,0.9278,,,,,,,,,,,,,,,,,,,,,,61034258c96850cb404c52d2,61036a2d404f7c59f50f2edb,2021-07-29_20h57.09.842,Simcolourproject_2stim_asymm_v5,2020.2.10,Win32,60,61025ae37ef11b136ea224fe,,,,,,,,,2049,81.5,35,1,0,0,response1disk,,6,13,-8,1,0,0,rectangle,13,-8,1,0,0,13,-8,1,0,0,0,120,120,97,1,,,,,,,,
,,,,,,,,,,,,,FF,,,,,,,,1.3175,,,,,,,,,,,,,,,,,,,,,,61034258c96850cb404c52d2,61036a2d404f7c59f50f2edb,2021-07-29_20h57.09.842,Simcolourproject_2stim_asymm_v5,2020.2.10,Win32,60,61025ae37ef11b136ea224fe,,,,,,,,,910,117,39.5,1,0,0,response1disk,,6,7,12.5,1,0,0,rectangle,7,12.5,1,0,0,7,12.5,1,0,0,0,121,121,27,1,,,,,,,,
,,,,,,,,,,,,,FF,,,,,,,,1.2335,,,,,,,,,,,,,,,,,,,,,,61034258c96850cb404c52d2,61036a2d404f7c59f50f2edb,2021-07-29_20h57.09.842,Simcolourproject_2stim_asymm_v5,2020.2.10,Win32,60,61025ae37ef11b136ea224fe,,,,,,,,,629,100.5,32,1,0,0,response1disk,,6,3,0,1,0,0,rectangle,3,0,1,0,0,3,0,1,0,0,0,122,122,28,1,,,,,,,,
,,,,,,,,,,,,,FF,,,,,,,,1.3836,,,,,,,,,,,,,,,,,,,,,,61034258c96850cb404c52d2,61036a2d404f7c59f50f2edb,2021-07-29_20h57.09.842,Simcolourproject_2stim_asymm_v5,2020.2.10,Win32,60,61025ae37ef11b136ea224fe,,,,,,,,,2025,-84,55,1,0,0,response7disk,,1,7.5,-9.5,1,0,0,rectangle,7.5,-9.5,1,0,0,7.5,-9.5,1,0,0,0,123,123,47,1,,,,,,,,
,,,,,,,,,,,,,FF,,,,,,,,1.7175,,,,,,,,,,,,,,,,,,,,,,61034258c96850cb404c52d2,61036a2d404f7c59f50f2edb,2021-07-29_20h57.09.842,Simcolourproject_2stim_asymm_v5,2020.2.10,Win32,60,61025ae37ef11b136ea224fe,,,,,,,,,485,91,37,1,0,0,response1disk,,6,1.5,9,1,0,0,rectangle,1.5,9,1,0,0,1.5,9,1,0,0,0,124,124,79,1,,,,,,,,
,,,,,,,,,,,,,FF,,,,,,,,0.9505,,,,,,,,,,,,,,,,,,,,,,61034258c96850cb404c52d2,61036a2d404f7c59f50f2edb,2021-07-29_20h57.09.842,Simcolourproject_2stim_asymm_v5,2020.2.10,Win32,60,61025ae37ef11b136ea224fe,,,,,,,,,1220,-87,-41.5,1,0,0,response5disk,,2,13,0.5,1,0,0,rectangle,13,0.5,1,0,0,13,0.5,1,0,0,0,125,125,90,1,,,,,,,,
,,,,,,,,,,,,,FF,,,,,,,,1.0837,,,,,,,,,,,,,,,,,,,,,,61034258c96850cb404c52d2,61036a2d404f7c59f50f2edb,2021-07-29_20h57.09.842,Simcolourproject_2stim_asymm_v5,2020.2.10,Win32,60,61025ae37ef11b136ea224fe,,,,,,,,,2466,81.5,-30.5,1,0,0,response3disk,,5,26,5.5,1,0,0,rectangle,26,5.5,1,0,0,26,5.5,1,0,0,0,126,126,138,1,,,,,,,,
,,,,,,,,,,,,,FF,,,,,,,,2.2842,,,,,,,,,,,,,,,,,,,,,,61034258c96850cb404c52d2,61036a2d404f7c59f50f2edb,2021-07-29_20h57.09.842,Simcolourproject_2stim_asymm_v5,2020.2.10,Win32,60,61025ae37ef11b136ea224fe,,,,,,,,,1434,80.5,-46,1,0,0,response3disk,,5,3,-6,1,0,0,rectangle,3,-6,1,0,0,3,-6,1,0,0,0,127,127,119,1,,,,,,,,
,,,,,,,,,,,,,FF,,,,,,,,1.0004,,,,,,,,,,,,,,,,,,,,,,61034258c96850cb404c52d2,61036a2d404f7c59f50f2edb,2021-07-29_20h57.09.842,Simcolourproject_2stim_asymm_v5,2020.2.10,Win32,60,61025ae37ef11b136ea224fe,,,,,,,,,613,-43,-81,1,0,0,response5disk,,3,4.5,3,1,0,0,rectangle,-85,-37,1,0,0,4,-5,1,0,0,0,128,128,108,1,,response5disk_3,TRUE,2,2,"[265,282,187,220,133,116,254,7,27,145,52,31,129,184,198,113,153,110,25,20]",1.6669,rectangle
,,,,,,,,,,,,,FF,,,,,,,,0.834,,,,,,,,,,,,,,,,,,,,,,61034258c96850cb404c52d2,61036a2d404f7c59f50f2edb,2021-07-29_20h57.09.842,Simcolourproject_2stim_asymm_v5,2020.2.10,Win32,60,61025ae37ef11b136ea224fe,,,,,,,,,1371,-38.5,-92.5,1,0,0,response5disk,,3,-9.5,0.5,1,0,0,rectangle,-9.5,0.5,1,0,0,-9.5,0.5,1,0,0,0,129,129,83,1,,,,,,,,
,,,,,,,,,,,,,FF,,,,,,,,1.7171,,,,,,,,,,,,,,,,,,,,,,61034258c96850cb404c52d2,61036a2d404f7c59f50f2edb,2021-07-29_20h57.09.842,Simcolourproject_2stim_asymm_v5,2020.2.10,Win32,60,61025ae37ef11b136ea224fe,,,,,,,,,3389,-69.5,-17.5,1,0,0,response5disk,,2,6,-1,1,0,0,rectangle,6,-1,1,0,0,6,-1,1,0,0,0,130,130,39,1,,,,,,,,
,,,,,,,,,,,,,FF,,,,,,,,1.1666,,,,,,,,,,,,,,,,,,,,,,61034258c96850cb404c52d2,61036a2d404f7c59f50f2edb,2021-07-29_20h57.09.842,Simcolourproject_2stim_asymm_v5,2020.2.10,Win32,60,61025ae37ef11b136ea224fe,,,,,,,,,826,92.5,-53.5,1,0,0,response3disk,,5,3.5,1,1,0,0,rectangle,3.5,1,1,0,0,3.5,1,1,0,0,0,131,131,117,1,,,,,,,,
,,,,,,,,,,,,,FF,,,,,,,,0.7669,,,,,,,,,,,,,,,,,,,,,,61034258c96850cb404c52d2,61036a2d404f7c59f50f2edb,2021-07-29_20h57.09.842,Simcolourproject_2stim_asymm_v5,2020.2.10,Win32,60,61025ae37ef11b136ea224fe,,,,,,,,,285,90,-42.5,1,0,0,response3disk,,5,3.5,-6,1,0,0,rectangle,124,-58.5,1,0,0,-8.5,-2.5,1,0,0,0,132,132,62,1,,response3disk_3,TRUE,5,5,"[265,282,187,220,133,116,254,7,27,145,52,31,129,184,198,113,153,110,25,20]",1.5832,rectangle
,,,,,,,,,,,,,FF,,,,,,,,1.4173,,,,,,,,,,,,,,,,,,,,,,61034258c96850cb404c52d2,61036a2d404f7c59f50f2edb,2021-07-29_20h57.09.842,Simcolourproject_2stim_asymm_v5,2020.2.10,Win32,60,61025ae37ef11b136ea224fe,,,,,,,,,3289,75,-50.5,1,0,0,response3disk,,5,5.5,0.5,1,0,0,rectangle,5.5,0.5,1,0,0,5.5,0.5,1,0,0,0,133,133,141,1,,,,,,,,
,,,,,,,,,,,,,FF,,,,,,,,0.8491,,,,,,,,,,,,,,,,,,,,,,61034258c96850cb404c52d2,61036a2d404f7c59f50f2edb,2021-07-29_20h57.09.842,Simcolourproject_2stim_asymm_v5,2020.2.10,Win32,60,61025ae37ef11b136ea224fe,,,,,,,,,1995,105,-40.5,1,0,0,response3disk,,5,7,8,1,0,0,rectangle,7,8,1,0,0,7,8,1,0,0,0,134,134,18,1,,,,,,,,
,,,,,,,,,,,,,FF,,,,,,,,1.067,,,,,,,,,,,,,,,,,,,,,,61034258c96850cb404c52d2,61036a2d404f7c59f50f2edb,2021-07-29_20h57.09.842,Simcolourproject_2stim_asymm_v5,2020.2.10,Win32,60,61025ae37ef11b136ea224fe,,,,,,,,,1718,100.5,34,1,0,0,response1disk,,6,-19,8.5,1,0,0,rectangle,-19,8.5,1,0,0,-19,8.5,1,0,0,0,135,135,111,1,,,,,,,,
,,,,,,,,,,,,,FF,,,,,,,,0.8324,,,,,,,,,,,,,,,,,,,,,,61034258c96850cb404c52d2,61036a2d404f7c59f50f2edb,2021-07-29_20h57.09.842,Simcolourproject_2stim_asymm_v5,2020.2.10,Win32,60,61025ae37ef11b136ea224fe,,,,,,,,,574,78.5,50.5,1,0,0,response1disk,,6,21,18,1,0,0,rectangle,21,18,1,0,0,21,18,1,0,0,0,136,136,78,1,,,,,,,,
,,,,,,,,,,,,,FF,,,,,,,,1.5177,,,,,,,,,,,,,,,,,,,,,,61034258c96850cb404c52d2,61036a2d404f7c59f50f2edb,2021-07-29_20h57.09.842,Simcolourproject_2stim_asymm_v5,2020.2.10,Win32,60,61025ae37ef11b136ea224fe,,,,,,,,,2273,46,86,1,0,0,response1disk,,7,8.5,-2,1,0,0,rectangle,8.5,-2,1,0,0,8.5,-2,1,0,0,0,137,137,86,1,,,,,,,,
,,,,,,,,,,,,,FF,,,,,,,,1.1172,,,,,,,,,,,,,,,,,,,,,,61034258c96850cb404c52d2,61036a2d404f7c59f50f2edb,2021-07-29_20h57.09.842,Simcolourproject_2stim_asymm_v5,2020.2.10,Win32,60,61025ae37ef11b136ea224fe,,,,,,,,,1812,35.5,-75,1,0,0,response3disk,,4,5,-12,1,0,0,rectangle,5,-12,1,0,0,5,-12,1,0,0,0,138,138,153,1,,,,,,,,
,,,,,,,,,,,,,FF,,,,,,,,0.8504,,,,,,,,,,,,,,,,,,,,,,61034258c96850cb404c52d2,61036a2d404f7c59f50f2edb,2021-07-29_20h57.09.842,Simcolourproject_2stim_asymm_v5,2020.2.10,Win32,60,61025ae37ef11b136ea224fe,,,,,,,,,746,93.5,-35.5,1,0,0,response3disk,,5,12.5,-2.5,1,0,0,rectangle,12.5,-2.5,1,0,0,12.5,-2.5,1,0,0,0,139,139,38,1,,,,,,,,
,,,,,,,,,,,,,FF,,,,,,,,0.6505,,,,,,,,,,,,,,,,,,,,,,61034258c96850cb404c52d2,61036a2d404f7c59f50f2edb,2021-07-29_20h57.09.842,Simcolourproject_2stim_asymm_v5,2020.2.10,Win32,60,61025ae37ef11b136ea224fe,,,,,,,,,474,61.5,-36,1,0,0,response3disk,,5,24.5,-14.5,1,0,0,rectangle,24.5,-14.5,1,0,0,24.5,-14.5,1,0,0,0,140,140,69,1,,,,,,,,
,,,,,,,,,,,,,FF,,,,,,,,1.0682,,,,,,,,,,,,,,,,,,,,,,61034258c96850cb404c52d2,61036a2d404f7c59f50f2edb,2021-07-29_20h57.09.842,Simcolourproject_2stim_asymm_v5,2020.2.10,Win32,60,61025ae37ef11b136ea224fe,,,,,,,,,3770,91,-25,1,0,0,response3disk,,5,23,-7,1,0,0,rectangle,23,-7,1,0,0,23,-7,1,0,0,0,141,141,112,1,,,,,,,,
,,,,,,,,,,,,,FF,,,,,,,,1.0179,,,,,,,,,,,,,,,,,,,,,,61034258c96850cb404c52d2,61036a2d404f7c59f50f2edb,2021-07-29_20h57.09.842,Simcolourproject_2stim_asymm_v5,2020.2.10,Win32,60,61025ae37ef11b136ea224fe,,,,,,,,,2857,57,129.5,1,0,0,response1disk,,7,-2,1,1,0,0,rectangle,-2,1,1,0,0,-2,1,1,0,0,0,142,142,61,1,,,,,,,,
,,,,,,,,,,,,,FF,,,,,,,,1.3673,,,,,,,,,,,,,,,,,,,,,,61034258c96850cb404c52d2,61036a2d404f7c59f50f2edb,2021-07-29_20h57.09.842,Simcolourproject_2stim_asymm_v5,2020.2.10,Win32,60,61025ae37ef11b136ea224fe,,,,,,,,,3138,94.5,-31.5,1,0,0,response3disk,,5,4.5,-5,1,0,0,rectangle,4.5,-5,1,0,0,4.5,-5,1,0,0,0,143,143,128,1,,,,,,,,
,,,,,,,,,,,,,FF,,,,,,,,1.2191,,,,,,,,,,,,,,,,,,,,,,61034258c96850cb404c52d2,61036a2d404f7c59f50f2edb,2021-07-29_20h57.09.842,Simcolourproject_2stim_asymm_v5,2020.2.10,Win32,60,61025ae37ef11b136ea224fe,,,,,,,,,2051,72.5,34.5,1,0,0,response1disk,,6,-13,2.5,1,0,0,rectangle,30.5,93.5,1,0,0,4,18,1,0,0,0,144,144,56,1,,response1disk_3,TRUE,7,7,"[265,282,187,220,133,116,254,7,27,145,52,31,129,184,198,113,153,110,25,20]",1.35,rectangle
,,,,,,,,,,,,,FF,,,,,,,,1.2476,,,,,,,,,,,,,,,,,,,,,,61034258c96850cb404c52d2,61036a2d404f7c59f50f2edb,2021-07-29_20h57.09.842,Simcolourproject_2stim_asymm_v5,2020.2.10,Win32,60,61025ae37ef11b136ea224fe,,,,,,,,,1389,64,32.5,1,0,0,response1disk,,6,-9,-11,1,0,0,rectangle,-9,-11,1,0,0,-9,-11,1,0,0,0,145,145,126,1,,,,,,,,
,,,,,,,,,,,,,FF,,,,,,,,0.9496,,,,,,,,,,,,,,,,,,,,,,61034258c96850cb404c52d2,61036a2d404f7c59f50f2edb,2021-07-29_20h57.09.842,Simcolourproject_2stim_asymm_v5,2020.2.10,Win32,60,61025ae37ef11b136ea224fe,,,,,,,,,4015,49.5,-34.5,1,0,0,response3disk,,5,16.5,-16.5,1,0,0,rectangle,16.5,-16.5,1,0,0,16.5,-16.5,1,0,0,0,146,146,96,1,,,,,,,,
,,,,,,,,,,,,,FF,,,,,,,,1.2999,,,,,,,,,,,,,,,,,,,,,,61034258c96850cb404c52d2,61036a2d404f7c59f50f2edb,2021-07-29_20h57.09.842,Simcolourproject_2stim_asymm_v5,2020.2.10,Win32,60,61025ae37ef11b136ea224fe,,,,,,,,,1530,17.5,-69,1,0,0,response3disk,,4,1.5,4,1,0,0,rectangle,1.5,4,1,0,0,1.5,4,1,0,0,0,147,147,155,1,,,,,,,,
,,,,,,,,,,,,,FF,,,,,,,,1.4505,,,,,,,,,,,,,,,,,,,,,,61034258c96850cb404c52d2,61036a2d404f7c59f50f2edb,2021-07-29_20h57.09.842,Simcolourproject_2stim_asymm_v5,2020.2.10,Win32,60,61025ae37ef11b136ea224fe,,,,,,,,,1968,59.5,-71,1,0,0,response3disk,,4,7.5,5,1,0,0,rectangle,7.5,5,1,0,0,7.5,5,1,0,0,0,148,148,57,1,,,,,,,,
,,,,,,,,,,,,,FF,,,,,,,,0.9238,,,,,,,,,,,,,,,,,,,,,,61034258c96850cb404c52d2,61036a2d404f7c59f50f2edb,2021-07-29_20h57.09.842,Simcolourproject_2stim_asymm_v5,2020.2.10,Win32,60,61025ae37ef11b136ea224fe,,,,,,,,,2420,-58,-28,1,0,0,response5disk,,2,-10.5,2,1,0,0,rectangle,-10.5,2,1,0,0,-10.5,2,1,0,0,0,149,149,71,1,,,,,,,,
,,,,,,,,,,,,,FF,,,,,,,,1.0006,,,,,,,,,,,,,,,,,,,,,,61034258c96850cb404c52d2,61036a2d404f7c59f50f2edb,2021-07-29_20h57.09.842,Simcolourproject_2stim_asymm_v5,2020.2.10,Win32,60,61025ae37ef11b136ea224fe,,,,,,,,,598,65,-22.5,1,0,0,response3disk,,5,-4,8.5,1,0,0,rectangle,-4,8.5,1,0,0,-4,8.5,1,0,0,0,150,150,99,1,,,,,,,,
,,,,,,,,,,,,,FF,,,,,,,,0.8833,,,,,,,,,,,,,,,,,,,,,,61034258c96850cb404c52d2,61036a2d404f7c59f50f2edb,2021-07-29_20h57.09.842,Simcolourproject_2stim_asymm_v5,2020.2.10,Win32,60,61025ae37ef11b136ea224fe,,,,,,,,,4124,-40,-76,1,0,0,response5disk,,3,7.5,7,1,0,0,rectangle,7.5,7,1,0,0,7.5,7,1,0,0,0,151,151,1,1,,,,,,,,
,,,,,,,,,,,,,FF,,,,,,,,1.0173,,,,,,,,,,,,,,,,,,,,,,61034258c96850cb404c52d2,61036a2d404f7c59f50f2edb,2021-07-29_20h57.09.842,Simcolourproject_2stim_asymm_v5,2020.2.10,Win32,60,61025ae37ef11b136ea224fe,,,,,,,,,155,37,-87.5,1,0,0,response3disk,,4,-3.5,-1,1,0,0,rectangle,95,26.5,1,0,0,4,4,1,0,0,0,152,152,140,1,,response1disk_3,TRUE,6,6,"[265,282,187,220,133,116,254,7,27,145,52,31,129,184,198,113,153,110,25,20]",1.5646,rectangle
,,,,,,,,,,,,,FF,,,,,,,,1.2503,,,,,,,,,,,,,,,,,,,,,,61034258c96850cb404c52d2,61036a2d404f7c59f50f2edb,2021-07-29_20h57.09.842,Simcolourproject_2stim_asymm_v5,2020.2.10,Win32,60,61025ae37ef11b136ea224fe,,,,,,,,,713,28.5,-92.5,1,0,0,response3disk,,4,-19,6,1,0,0,rectangle,-19,6,1,0,0,-19,6,1,0,0,0,153,153,50,1,,,,,,,,
,,,,,,,,,,,,,FF,,,,,,,,0.7669,,,,,,,,,,,,,,,,,,,,,,61034258c96850cb404c52d2,61036a2d404f7c59f50f2edb,2021-07-29_20h57.09.842,Simcolourproject_2stim_asymm_v5,2020.2.10,Win32,60,61025ae37ef11b136ea224fe,,,,,,,,,331,64.5,-45.5,1,0,0,response3disk,,5,4.5,2,1,0,0,rectangle,4.5,2,1,0,0,4.5,2,1,0,0,0,154,154,19,1,,,,,,,,
,,,,,,,,,,,,,FF,,,,,,,,0.9839,,,,,,,,,,,,,,,,,,,,,,61034258c96850cb404c52d2,61036a2d404f7c59f50f2edb,2021-07-29_20h57.09.842,Simcolourproject_2stim_asymm_v5,2020.2.10,Win32,60,61025ae37ef11b136ea224fe,,,,,,,,,3550,57,-34,1,0,0,response3disk,,5,17,-7,1,0,0,rectangle,17,-7,1,0,0,17,-7,1,0,0,0,155,155,113,1,,,,,,,,
,,,,,,,,,,,,,FF,,,,,,,,0.9157,,,,,,,,,,,,,,,,,,,,,,61034258c96850cb404c52d2,61036a2d404f7c59f50f2edb,2021-07-29_20h57.09.842,Simcolourproject_2stim_asymm_v5,2020.2.10,Win32,60,61025ae37ef11b136ea224fe,,,,,,,,,519,76,-46,1,0,0,response3disk,,5,-6,11,1,0,0,rectangle,-6,11,1,0,0,-6,11,1,0,0,0,156,156,59,1,,,,,,,,
,,,,,,,,,,,,,FF,,,,,,,,1.1163,,,,,,,,,,,,,,,,,,,,,,61034258c96850cb404c52d2,61036a2d404f7c59f50f2edb,2021-07-29_20h57.09.842,Simcolourproject_2stim_asymm_v5,2020.2.10,Win32,60,61025ae37ef11b136ea224fe,,,,,,,,,429,53,-76,1,0,0,response3disk,,4,20.5,-7,1,0,0,rectangle,20.5,-7,1,0,0,20.5,-7,1,0,0,0,157,157,11,1,,,,,,,,
,,,,,,,,,,,,,FF,,,,,,,,0.7671,,,,,,,,,,,,,,,,,,,,,,61034258c96850cb404c52d2,61036a2d404f7c59f50f2edb,2021-07-29_20h57.09.842,Simcolourproject_2stim_asymm_v5,2020.2.10,Win32,60,61025ae37ef11b136ea224fe,,,,,,,,,1821,-18.5,-73.5,1,0,0,response5disk,,3,14,-11.5,1,0,0,rectangle,14,-11.5,1,0,0,14,-11.5,1,0,0,0,158,158,95,1,,,,,,,,
,,,,,,,,,,,,,FF,,,,,,,,1.117,,,,,,,,,,,,,,,,,,,,,,61034258c96850cb404c52d2,61036a2d404f7c59f50f2edb,2021-07-29_20h57.09.842,Simcolourproject_2stim_asymm_v5,2020.2.10,Win32,60,61025ae37ef11b136ea224fe,,,,,,,,,1798,46,94.5,1,0,0,response1disk,,7,8.5,-5.5,1,0,0,rectangle,8.5,-5.5,1,0,0,8.5,-5.5,1,0,0,0,159,159,150,1,,,,,,,,
,,,,,,,,,,,,,FF,,,,,,,,0.9169,,,,,,,,,,,,,,,,,,,,,,61034258c96850cb404c52d2,61036a2d404f7c59f50f2edb,2021-07-29_20h57.09.842,Simcolourproject_2stim_asymm_v5,2020.2.10,Win32,60,61025ae37ef11b136ea224fe,,,,,,,,,1499,88.5,39,1,0,0,response1disk,,6,-24.5,-1.5,1,0,0,rectangle,-24.5,-1.5,1,0,0,-24.5,-1.5,1,0,0,1,0,160,122,1,,,,,,,,
,,,,,,,,,,,,,FF,,,,,,,,0.9505,,,,,,,,,,,,,,,,,,,,,,61034258c96850cb404c52d2,61036a2d404f7c59f50f2edb,2021-07-29_20h57.09.842,Simcolourproject_2stim_asymm_v5,2020.2.10,Win32,60,61025ae37ef11b136ea224fe,,,,,,,,,157,73,-39,1,0,0,response3disk,,5,5.5,7.5,1,0,0,rectangle,5.5,7.5,1,0,0,5.5,7.5,1,0,0,1,1,161,50,1,,,,,,,,
,,,,,,,,,,,,,FF,,,,,,,,0.7159,,,,,,,,,,,,,,,,,,,,,,61034258c96850cb404c52d2,61036a2d404f7c59f50f2edb,2021-07-29_20h57.09.842,Simcolourproject_2stim_asymm_v5,2020.2.10,Win32,60,61025ae37ef11b136ea224fe,,,,,,,,,3831,67.5,-23.5,1,0,0,response3disk,,5,6.5,11.5,1,0,0,rectangle,6.5,11.5,1,0,0,6.5,11.5,1,0,0,1,2,162,127,1,,,,,,,,
,,,,,,,,,,,,,FF,,,,,,,,1.4171,,,,,,,,,,,,,,,,,,,,,,61034258c96850cb404c52d2,61036a2d404f7c59f50f2edb,2021-07-29_20h57.09.842,Simcolourproject_2stim_asymm_v5,2020.2.10,Win32,60,61025ae37ef11b136ea224fe,,,,,,,,,870,57.5,-60.5,1,0,0,response3disk,,4,10.5,6.5,1,0,0,rectangle,10.5,6.5,1,0,0,10.5,6.5,1,0,0,1,3,163,155,1,,,,,,,,
,,,,,,,,,,,,,FF,,,,,,,,1.1005,,,,,,,,,,,,,,,,,,,,,,61034258c96850cb404c52d2,61036a2d404f7c59f50f2edb,2021-07-29_20h57.09.842,Simcolourproject_2stim_asymm_v5,2020.2.10,Win32,60,61025ae37ef11b136ea224fe,,,,,,,,,2471,92.5,46,1,0,0,response1disk,,6,11,8.5,1,0,0,rectangle,11,8.5,1,0,0,11,8.5,1,0,0,1,4,164,75,1,,,,,,,,
,,,,,,,,,,,,,FF,,,,,,,,0.8002,,,,,,,,,,,,,,,,,,,,,,61034258c96850cb404c52d2,61036a2d404f7c59f50f2edb,2021-07-29_20h57.09.842,Simcolourproject_2stim_asymm_v5,2020.2.10,Win32,60,61025ae37ef11b136ea224fe,,,,,,,,,874,79,-34.5,1,0,0,response3disk,,5,1.5,0.5,1,0,0,rectangle,1.5,0.5,1,0,0,1.5,0.5,1,0,0,1,5,165,156,1,,,,,,,,
,,,,,,,,,,,,,FF,,,,,,,,0.9011,,,,,,,,,,,,,,,,,,,,,,61034258c96850cb404c52d2,61036a2d404f7c59f50f2edb,2021-07-29_20h57.09.842,Simcolourproject_2stim_asymm_v5,2020.2.10,Win32,60,61025ae37ef11b136ea224fe,,,,,,,,,3428,-73,-26.5,1,0,0,response5disk,,2,21.5,16,1,0,0,rectangle,21.5,16,1,0,0,21.5,16,1,0,0,1,6,166,19,1,,,,,,,,
,,,,,,,,,,,,,FF,,,,,,,,2.1341,,,,,,,,,,,,,,,,,,,,,,61034258c96850cb404c52d2,61036a2d404f7c59f50f2edb,2021-07-29_20h57.09.842,Simcolourproject_2stim_asymm_v5,2020.2.10,Win32,60,61025ae37ef11b136ea224fe,,,,,,,,,1577,100.5,50,1,0,0,response1disk,,6,12.5,-1,1,0,0,rectangle,12.5,-1,1,0,0,12.5,-1,1,0,0,1,7,167,152,1,,,,,,,,
,,,,,,,,,,,,,FF,,,,,,,,0.7342,,,,,,,,,,,,,,,,,,,,,,61034258c96850cb404c52d2,61036a2d404f7c59f50f2edb,2021-07-29_20h57.09.842,Simcolourproject_2stim_asymm_v5,2020.2.10,Win32,60,61025ae37ef11b136ea224fe,,,,,,,,,3062,66.5,-40,1,0,0,response3disk,,5,5.5,5.5,1,0,0,rectangle,5.5,5.5,1,0,0,5.5,5.5,1,0,0,1,8,168,58,1,,,,,,,,
,,,,,,,,,,,,,FF,,,,,,,,0.9672,,,,,,,,,,,,,,,,,,,,,,61034258c96850cb404c52d2,61036a2d404f7c59f50f2edb,2021-07-29_20h57.09.842,Simcolourproject_2stim_asymm_v5,2020.2.10,Win32,60,61025ae37ef11b136ea224fe,,,,,,,,,1012,50,96,1,0,0,response1disk,,7,1,3,1,0,0,rectangle,1,3,1,0,0,1,3,1,0,0,1,9,169,143,1,,,,,,,,
,,,,,,,,,,,,,FF,,,,,,,,0.9166,,,,,,,,,,,,,,,,,,,,,,61034258c96850cb404c52d2,61036a2d404f7c59f50f2edb,2021-07-29_20h57.09.842,Simcolourproject_2stim_asymm_v5,2020.2.10,Win32,60,61025ae37ef11b136ea224fe,,,,,,,,,3505,-37,-79.5,1,0,0,response5disk,,3,4.5,10.5,1,0,0,rectangle,4.5,10.5,1,0,0,4.5,10.5,1,0,0,1,10,170,29,1,,,,,,,,
,,,,,,,,,,,,,FF,,,,,,,,0.8661,,,,,,,,,,,,,,,,,,,,,,61034258c96850cb404c52d2,61036a2d404f7c59f50f2edb,2021-07-29_20h57.09.842,Simcolourproject_2stim_asymm_v5,2020.2.10,Win32,60,61025ae37ef11b136ea224fe,,,,,,,,,1625,32,-82.5,1,0,0,response3disk,,4,19,-3.5,1,0,0,rectangle,19,-3.5,1,0,0,19,-3.5,1,0,0,1,11,171,119,1,,,,,,,,
,,,,,,,,,,,,,FF,,,,,,,,1.0792,,,,,,,,,,,,,,,,,,,,,,61034258c96850cb404c52d2,61036a2d404f7c59f50f2edb,2021-07-29_20h57.09.842,Simcolourproject_2stim_asymm_v5,2020.2.10,Win32,60,61025ae37ef11b136ea224fe,,,,,,,,,1581,99,57,1,0,0,response1disk,,6,-12.5,13,1,0,0,rectangle,-12.5,13,1,0,0,-12.5,13,1,0,0,1,12,172,80,1,,,,,,,,
,,,,,,,,,,,,,FF,,,,,,,,0.8502,,,,,,,,,,,,,,,,,,,,,,61034258c96850cb404c52d2,61036a2d404f7c59f50f2edb,2021-07-29_20h57.09.842,Simcolourproject_2stim_asymm_v5,2020.2.10,Win32,60,61025ae37ef11b136ea224fe,,,,,,,,,2069,37.5,103.5,1,0,0,response1disk,,7,-1.5,15.5,1,0,0,rectangle,-1.5,15.5,1,0,0,-1.5,15.5,1,0,0,1,13,173,64,1,,,,,,,,
,,,,,,,,,,,,,FF,,,,,,,,0.7837,,,,,,,,,,,,,,,,,,,,,,61034258c96850cb404c52d2,61036a2d404f7c59f50f2edb,2021-07-29_20h57.09.842,Simcolourproject_2stim_asymm_v5,2020.2.10,Win32,60,61025ae37ef11b136ea224fe,,,,,,,,,472,83.5,52.5,1,0,0,response1disk,,6,11,-6,1,0,0,rectangle,11,-6,1,0,0,11,-6,1,0,0,1,14,174,57,1,,,,,,,,
,,,,,,,,,,,,,FF,,,,,,,,0.9003,,,,,,,,,,,,,,,,,,,,,,61034258c96850cb404c52d2,61036a2d404f7c59f50f2edb,2021-07-29_20h57.09.842,Simcolourproject_2stim_asymm_v5,2020.2.10,Win32,60,61025ae37ef11b136ea224fe,,,,,,,,,3911,76.5,-37,1,0,0,response3disk,,5,17,-6,1,0,0,rectangle,17,-6,1,0,0,17,-6,1,0,0,1,15,175,67,1,,,,,,,,
,,,,,,,,,,,,,FF,,,,,,,,0.7669,,,,,,,,,,,,,,,,,,,,,,61034258c96850cb404c52d2,61036a2d404f7c59f50f2edb,2021-07-29_20h57.09.842,Simcolourproject_2stim_asymm_v5,2020.2.10,Win32,60,61025ae37ef11b136ea224fe,,,,,,,,,2840,57.5,-31.5,1,0,0,response3disk,,5,-8,13,1,0,0,rectangle,-8,13,1,0,0,-8,13,1,0,0,1,16,176,117,1,,,,,,,,
,,,,,,,,,,,,,FF,,,,,,,,2.4735,,,,,,,,,,,,,,,,,,,,,,61034258c96850cb404c52d2,61036a2d404f7c59f50f2edb,2021-07-29_20h57.09.842,Simcolourproject_2stim_asymm_v5,2020.2.10,Win32,60,61025ae37ef11b136ea224fe,,,,,,,,,2775,-44.5,103,1,0,0,response7disk,,0,4.5,4.5,1,0,0,rectangle,4.5,4.5,1,0,0,4.5,4.5,1,0,0,1,17,177,116,1,,,,,,,,
,,,,,,,,,,,,,FF,,,,,,,,1.4003,,,,,,,,,,,,,,,,,,,,,,61034258c96850cb404c52d2,61036a2d404f7c59f50f2edb,2021-07-29_20h57.09.842,Simcolourproject_2stim_asymm_v5,2020.2.10,Win32,60,61025ae37ef11b136ea224fe,,,,,,,,,4147,-89,-31,1,0,0,response5disk,,2,-4,5.5,1,0,0,rectangle,-4,5.5,1,0,0,-4,5.5,1,0,0,1,18,178,77,1,,,,,,,,
,,,,,,,,,,,,,FF,,,,,,,,0.7678,,,,,,,,,,,,,,,,,,,,,,61034258c96850cb404c52d2,61036a2d404f7c59f50f2edb,2021-07-29_20h57.09.842,Simcolourproject_2stim_asymm_v5,2020.2.10,Win32,60,61025ae37ef11b136ea224fe,,,,,,,,,4347,-30,-69.5,1,0,0,response5disk,,3,-0.5,-17,1,0,0,rectangle,-0.5,-17,1,0,0,-0.5,-17,1,0,0,1,19,179,142,1,,,,,,,,
,,,,,,,,,,,,,FF,,,,,,,,1.1345,,,,,,,,,,,,,,,,,,,,,,61034258c96850cb404c52d2,61036a2d404f7c59f50f2edb,2021-07-29_20h57.09.842,Simcolourproject_2stim_asymm_v5,2020.2.10,Win32,60,61025ae37ef11b136ea224fe,,,,,,,,,3858,99,-32,1,0,0,response3disk,,5,16,0,1,0,0,rectangle,16,0,1,0,0,16,0,1,0,0,1,20,180,38,1,,,,,,,,
,,,,,,,,,,,,,FF,,,,,,,,1.5677,,,,,,,,,,,,,,,,,,,,,,61034258c96850cb404c52d2,61036a2d404f7c59f50f2edb,2021-07-29_20h57.09.842,Simcolourproject_2stim_asymm_v5,2020.2.10,Win32,60,61025ae37ef11b136ea224fe,,,,,,,,,1238,86,54,1,0,0,response1disk,,6,-1,10.5,1,0,0,rectangle,-1,10.5,1,0,0,-1,10.5,1,0,0,1,21,181,133,1,,,,,,,,
,,,,,,,,,,,,,FF,,,,,,,,1.1283,,,,,,,,,,,,,,,,,,,,,,61034258c96850cb404c52d2,61036a2d404f7c59f50f2edb,2021-07-29_20h57.09.842,Simcolourproject_2stim_asymm_v5,2020.2.10,Win32,60,61025ae37ef11b136ea224fe,,,,,,,,,1959,65.5,-85.5,1,0,0,response3disk,,4,7,2,1,0,0,rectangle,7,2,1,0,0,7,2,1,0,0,1,22,182,83,1,,,,,,,,
,,,,,,,,,,,,,FF,,,,,,,,0.7336,,,,,,,,,,,,,,,,,,,,,,61034258c96850cb404c52d2,61036a2d404f7c59f50f2edb,2021-07-29_20h57.09.842,Simcolourproject_2stim_asymm_v5,2020.2.10,Win32,60,61025ae37ef11b136ea224fe,,,,,,,,,2209,57.5,21,1,0,0,response1disk,,6,21,-7,1,0,0,rectangle,-21,-63.5,1,0,0,18,-3.5,1,0,0,1,23,183,134,1,,response5disk_3,TRUE,3,3,"[265,282,187,220,133,116,254,7,27,145,52,31,129,184,198,113,153,110,25,20]",1.4183,rectangle
,,,,,,,,,,,,,FF,,,,,,,,0.984,,,,,,,,,,,,,,,,,,,,,,61034258c96850cb404c52d2,61036a2d404f7c59f50f2edb,2021-07-29_20h57.09.842,Simcolourproject_2stim_asymm_v5,2020.2.10,Win32,60,61025ae37ef11b136ea224fe,,,,,,,,,3192,-52.5,-69,1,0,0,response5disk,,3,4,5,1,0,0,rectangle,4,5,1,0,0,4,5,1,0,0,1,24,184,99,1,,,,,,,,
,,,,,,,,,,,,,FF,,,,,,,,1.484,,,,,,,,,,,,,,,,,,,,,,61034258c96850cb404c52d2,61036a2d404f7c59f50f2edb,2021-07-29_20h57.09.842,Simcolourproject_2stim_asymm_v5,2020.2.10,Win32,60,61025ae37ef11b136ea224fe,,,,,,,,,105,97.5,-46,1,0,0,response3disk,,5,3,-1,1,0,0,rectangle,3,-1,1,0,0,3,-1,1,0,0,1,25,185,6,1,,,,,,,,
,,,,,,,,,,,,,FF,,,,,,,,0.7836,,,,,,,,,,,,,,,,,,,,,,61034258c96850cb404c52d2,61036a2d404f7c59f50f2edb,2021-07-29_20h57.09.842,Simcolourproject_2stim_asymm_v5,2020.2.10,Win32,60,61025ae37ef11b136ea224fe,,,,,,,,,325,31.5,82,1,0,0,response1disk,,7,-17.5,9,1,0,0,rectangle,-50.5,-70,1,0,0,-9,-8,1,0,0,1,26,186,114,1,,response5disk_3,TRUE,3,3,"[265,282,187,220,133,116,254,7,27,145,52,31,129,184,198,113,153,110,25,20]",1.4124,rectangle
,,,,,,,,,,,,,FF,,,,,,,,0.8004,,,,,,,,,,,,,,,,,,,,,,61034258c96850cb404c52d2,61036a2d404f7c59f50f2edb,2021-07-29_20h57.09.842,Simcolourproject_2stim_asymm_v5,2020.2.10,Win32,60,61025ae37ef11b136ea224fe,,,,,,,,,585,67.5,-56,1,0,0,response3disk,,5,-7.5,-4.5,1,0,0,rectangle,-7.5,-4.5,1,0,0,-7.5,-4.5,1,0,0,1,27,187,25,1,,,,,,,,
,,,,,,,,,,,,,FF,,,,,,,,1.0982,,,,,,,,,,,,,,,,,,,,,,61034258c96850cb404c52d2,61036a2d404f7c59f50f2edb,2021-07-29_20h57.09.842,Simcolourproject_2stim_asymm_v5,2020.2.10,Win32,60,61025ae37ef11b136ea224fe,,,,,,,,,3743,-71,27,1,0,0,response7disk,,1,-17.5,-8.5,1,0,0,rectangle,-17.5,-8.5,1,0,0,-17.5,-8.5,1,0,0,1,28,188,9,1,,,,,,,,
,,,,,,,,,,,,,FF,,,,,,,,1.2443,,,,,,,,,,,,,,,,,,,,,,61034258c96850cb404c52d2,61036a2d404f7c59f50f2edb,2021-07-29_20h57.09.842,Simcolourproject_2stim_asymm_v5,2020.2.10,Win32,60,61025ae37ef11b136ea224fe,,,,,,,,,3412,80.5,-27.5,1,0,0,response3disk,,5,20.5,-6,1,0,0,rectangle,20.5,-6,1,0,0,20.5,-6,1,0,0,1,29,189,107,1,,,,,,,,
,,,,,,,,,,,,,FF,,,,,,,,0.9506,,,,,,,,,,,,,,,,,,,,,,61034258c96850cb404c52d2,61036a2d404f7c59f50f2edb,2021-07-29_20h57.09.842,Simcolourproject_2stim_asymm_v5,2020.2.10,Win32,60,61025ae37ef11b136ea224fe,,,,,,,,,433,48,-94,1,0,0,response3disk,,4,12,-12,1,0,0,rectangle,12,-12,1,0,0,12,-12,1,0,0,1,30,190,8,1,,,,,,,,
,,,,,,,,,,,,,FF,,,,,,,,0.8338,,,,,,,,,,,,,,,,,,,,,,61034258c96850cb404c52d2,61036a2d404f7c59f50f2edb,2021-07-29_20h57.09.842,Simcolourproject_2stim_asymm_v5,2020.2.10,Win32,60,61025ae37ef11b136ea224fe,,,,,,,,,3291,-38.5,-50,1,0,0,response5disk,,3,-2,0,1,0,0,rectangle,-2,0,1,0,0,-2,0,1,0,0,1,31,191,5,1,,,,,,,,
,,,,,,,,,,,,,FF,,,,,,,,1.0654,,,,,,,,,,,,,,,,,,,,,,61034258c96850cb404c52d2,61036a2d404f7c59f50f2edb,2021-07-29_20h57.09.842,Simcolourproject_2stim_asymm_v5,2020.2.10,Win32,60,61025ae37ef11b136ea224fe,,,,,,,,,2979,68.5,49.5,1,0,0,response1disk,,6,-4,10.5,1,0,0,rectangle,-4,10.5,1,0,0,-4,10.5,1,0,0,1,32,192,72,1,,,,,,,,
,,,,,,,,,,,,,FF,,,,,,,,1.0777,,,,,,,,,,,,,,,,,,,,,,61034258c96850cb404c52d2,61036a2d404f7c59f50f2edb,2021-07-29_20h57.09.842,Simcolourproject_2stim_asymm_v5,2020.2.10,Win32,60,61025ae37ef11b136ea224fe,,,,,,,,,1167,38,87,1,0,0,response1disk,,7,2.5,3,1,0,0,rectangle,2.5,3,1,0,0,2.5,3,1,0,0,1,33,193,45,1,,,,,,,,
,,,,,,,,,,,,,FF,,,,,,,,0.767,,,,,,,,,,,,,,,,,,,,,,61034258c96850cb404c52d2,61036a2d404f7c59f50f2edb,2021-07-29_20h57.09.842,Simcolourproject_2stim_asymm_v5,2020.2.10,Win32,60,61025ae37ef11b136ea224fe,,,,,,,,,118,94.5,59.5,1,0,0,response1disk,,6,26.5,9.5,1,0,0,rectangle,26.5,9.5,1,0,0,26.5,9.5,1,0,0,1,34,194,31,1,,,,,,,,
,,,,,,,,,,,,,FF,,,,,,,,0.6825,,,,,,,,,,,,,,,,,,,,,,61034258c96850cb404c52d2,61036a2d404f7c59f50f2edb,2021-07-29_20h57.09.842,Simcolourproject_2stim_asymm_v5,2020.2.10,Win32,60,61025ae37ef11b136ea224fe,,,,,,,,,833,72.5,37.5,1,0,0,response1disk,,6,32,-2.5,1,0,0,rectangle,32,-2.5,1,0,0,32,-2.5,1,0,0,1,35,195,153,1,,,,,,,,
,,,,,,,,,,,,,FF,,,,,,,,0.8338,,,,,,,,,,,,,,,,,,,,,,61034258c96850cb404c52d2,61036a2d404f7c59f50f2edb,2021-07-29_20h57.09.842,Simcolourproject_2stim_asymm_v5,2020.2.10,Win32,60,61025ae37ef11b136ea224fe,,,,,,,,,171,-38.5,-73,1,0,0,response5disk,,3,9,10,1,0,0,rectangle,9,10,1,0,0,9,10,1,0,0,1,36,196,151,1,,,,,,,,
,,,,,,,,,,,,,FF,,,,,,,,2.5949,,,,,,,,,,,,,,,,,,,,,,61034258c96850cb404c52d2,61036a2d404f7c59f50f2edb,2021-07-29_20h57.09.842,Simcolourproject_2stim_asymm_v5,2020.2.10,Win32,60,61025ae37ef11b136ea224fe,,,,,,,,,1395,103,40.5,1,0,0,response1disk,,6,-2,0,1,0,0,rectangle,25.5,-68.5,1,0,0,2,-6,1,0,0,1,37,197,14,1,,response3disk_3,TRUE,4,4,"[265,282,187,220,133,116,254,7,27,145,52,31,129,184,198,113,153,110,25,20]",1.6344,rectangle
,,,,,,,,,,,,,FF,,,,,,,,0.8331,,,,,,,,,,,,,,,,,,,,,,61034258c96850cb404c52d2,61036a2d404f7c59f50f2edb,2021-07-29_20h57.09.842,Simcolourproject_2stim_asymm_v5,2020.2.10,Win32,60,61025ae37ef11b136ea224fe,,,,,,,,,1986,67.5,-29.5,1,0,0,response3disk,,5,12,-19,1,0,0,rectangle,12,-19,1,0,0,12,-19,1,0,0,1,38,198,123,1,,,,,,,,
,,,,,,,,,,,,,FF,,,,,,,,1.329,,,,,,,,,,,,,,,,,,,,,,61034258c96850cb404c52d2,61036a2d404f7c59f50f2edb,2021-07-29_20h57.09.842,Simcolourproject_2stim_asymm_v5,2020.2.10,Win32,60,61025ae37ef11b136ea224fe,,,,,,,,,1755,-124,-46,1,0,0,response5disk,,2,-4.5,8,1,0,0,rectangle,-4.5,8,1,0,0,-4.5,8,1,0,0,1,39,199,124,1,,,,,,,,
,,,,,,,,,,,,,FF,,,,,,,,1.317,,,,,,,,,,,,,,,,,,,,,,61034258c96850cb404c52d2,61036a2d404f7c59f50f2edb,2021-07-29_20h57.09.842,Simcolourproject_2stim_asymm_v5,2020.2.10,Win32,60,61025ae37ef11b136ea224fe,,,,,,,,,1708,107,29,1,0,0,response1disk,,6,-18,-9,1,0,0,rectangle,-18,-9,1,0,0,-18,-9,1,0,0,1,40,200,70,1,,,,,,,,
,,,,,,,,,,,,,FF,,,,,,,,1.2341,,,,,,,,,,,,,,,,,,,,,,61034258c96850cb404c52d2,61036a2d404f7c59f50f2edb,2021-07-29_20h57.09.842,Simcolourproject_2stim_asymm_v5,2020.2.10,Win32,60,61025ae37ef11b136ea224fe,,,,,,,,,4267,-16,-78.5,1,0,0,response5disk,,3,16.5,0,1,0,0,rectangle,16.5,0,1,0,0,16.5,0,1,0,0,1,41,201,1,1,,,,,,,,
,,,,,,,,,,,,,FF,,,,,,,,0.767,,,,,,,,,,,,,,,,,,,,,,61034258c96850cb404c52d2,61036a2d404f7c59f50f2edb,2021-07-29_20h57.09.842,Simcolourproject_2stim_asymm_v5,2020.2.10,Win32,60,61025ae37ef11b136ea224fe,,,,,,,,,3457,75,-25.5,1,0,0,response3disk,,5,12,-5.5,1,0,0,rectangle,12,-5.5,1,0,0,12,-5.5,1,0,0,1,42,202,4,1,,,,,,,,
,,,,,,,,,,,,,FF,,,,,,,,0.8341,,,,,,,,,,,,,,,,,,,,,,61034258c96850cb404c52d2,61036a2d404f7c59f50f2edb,2021-07-29_20h57.09.842,Simcolourproject_2stim_asymm_v5,2020.2.10,Win32,60,61025ae37ef11b136ea224fe,,,,,,,,,253,33,-72,1,0,0,response3disk,,4,7,11.5,1,0,0,rectangle,7,11.5,1,0,0,7,11.5,1,0,0,1,43,203,154,1,,,,,,,,
,,,,,,,,,,,,,FF,,,,,,,,1.4172,,,,,,,,,,,,,,,,,,,,,,61034258c96850cb404c52d2,61036a2d404f7c59f50f2edb,2021-07-29_20h57.09.842,Simcolourproject_2stim_asymm_v5,2020.2.10,Win32,60,61025ae37ef11b136ea224fe,,,,,,,,,3830,69,-43.5,1,0,0,response3disk,,5,21,-9,1,0,0,rectangle,21,-9,1,0,0,21,-9,1,0,0,1,44,204,112,1,,,,,,,,
,,,,,,,,,,,,,FF,,,,,,,,0.7656,,,,,,,,,,,,,,,,,,,,,,61034258c96850cb404c52d2,61036a2d404f7c59f50f2edb,2021-07-29_20h57.09.842,Simcolourproject_2stim_asymm_v5,2020.2.10,Win32,60,61025ae37ef11b136ea224fe,,,,,,,,,448,109,76.5,1,0,0,response1disk,,6,4,6,1,0,0,rectangle,4,6,1,0,0,4,6,1,0,0,1,45,205,121,1,,,,,,,,
,,,,,,,,,,,,,FF,,,,,,,,0.7785,,,,,,,,,,,,,,,,,,,,,,61034258c96850cb404c52d2,61036a2d404f7c59f50f2edb,2021-07-29_20h57.09.842,Simcolourproject_2stim_asymm_v5,2020.2.10,Win32,60,61025ae37ef11b136ea224fe,,,,,,,,,2308,87.5,-31,1,0,0,response3disk,,5,-16,1,1,0,0,rectangle,-16,1,1,0,0,-16,1,1,0,0,1,46,206,33,1,,,,,,,,
,,,,,,,,,,,,,FF,,,,,,,,0.7271,,,,,,,,,,,,,,,,,,,,,,61034258c96850cb404c52d2,61036a2d404f7c59f50f2edb,2021-07-29_20h57.09.842,Simcolourproject_2stim_asymm_v5,2020.2.10,Win32,60,61025ae37ef11b136ea224fe,,,,,,,,,2,-43,-90,1,0,0,response5disk,,3,13,8,1,0,0,rectangle,13,8,1,0,0,13,8,1,0,0,1,47,207,86,1,,,,,,,,
,,,,,,,,,,,,,FF,,,,,,,,1.2167,,,,,,,,,,,,,,,,,,,,,,61034258c96850cb404c52d2,61036a2d404f7c59f50f2edb,2021-07-29_20h57.09.842,Simcolourproject_2stim_asymm_v5,2020.2.10,Win32,60,61025ae37ef11b136ea224fe,,,,,,,,,3050,47,-80,1,0,0,response3disk,,4,6,7,1,0,0,rectangle,6,7,1,0,0,6,7,1,0,0,1,48,208,18,1,,,,,,,,
,,,,,,,,,,,,,FF,,,,,,,,0.7174,,,,,,,,,,,,,,,,,,,,,,61034258c96850cb404c52d2,61036a2d404f7c59f50f2edb,2021-07-29_20h57.09.842,Simcolourproject_2stim_asymm_v5,2020.2.10,Win32,60,61025ae37ef11b136ea224fe,,,,,,,,,3351,59,-27,1,0,0,response3disk,,5,13.5,-4.5,1,0,0,rectangle,13.5,-4.5,1,0,0,13.5,-4.5,1,0,0,1,49,209,131,1,,,,,,,,
,,,,,,,,,,,,,FF,,,,,,,,1.6009,,,,,,,,,,,,,,,,,,,,,,61034258c96850cb404c52d2,61036a2d404f7c59f50f2edb,2021-07-29_20h57.09.842,Simcolourproject_2stim_asymm_v5,2020.2.10,Win32,60,61025ae37ef11b136ea224fe,,,,,,,,,2652,-48,-64,1,0,0,response5disk,,3,0.5,-1.5,1,0,0,rectangle,0.5,-1.5,1,0,0,0.5,-1.5,1,0,0,1,50,210,40,1,,,,,,,,
,,,,,,,,,,,,,FF,,,,,,,,0.967,,,,,,,,,,,,,,,,,,,,,,61034258c96850cb404c52d2,61036a2d404f7c59f50f2edb,2021-07-29_20h57.09.842,Simcolourproject_2stim_asymm_v5,2020.2.10,Win32,60,61025ae37ef11b136ea224fe,,,,,,,,,1952,130.5,44.5,1,0,0,response1disk,,6,21,4.5,1,0,0,rectangle,21,4.5,1,0,0,21,4.5,1,0,0,1,51,211,63,1,,,,,,,,
,,,,,,,,,,,,,FF,,,,,,,,0.7644,,,,,,,,,,,,,,,,,,,,,,61034258c96850cb404c52d2,61036a2d404f7c59f50f2edb,2021-07-29_20h57.09.842,Simcolourproject_2stim_asymm_v5,2020.2.10,Win32,60,61025ae37ef11b136ea224fe,,,,,,,,,1045,67.5,27,1,0,0,response1disk,,6,13.5,-5.5,1,0,0,rectangle,13.5,-5.5,1,0,0,13.5,-5.5,1,0,0,1,52,212,140,1,,,,,,,,
,,,,,,,,,,,,,FF,,,,,,,,1.1335,,,,,,,,,,,,,,,,,,,,,,61034258c96850cb404c52d2,61036a2d404f7c59f50f2edb,2021-07-29_20h57.09.842,Simcolourproject_2stim_asymm_v5,2020.2.10,Win32,60,61025ae37ef11b136ea224fe,,,,,,,,,784,91,-32.5,1,0,0,response3disk,,5,16,-9.5,1,0,0,rectangle,16,-9.5,1,0,0,16,-9.5,1,0,0,1,53,213,62,1,,,,,,,,
,,,,,,,,,,,,,FF,,,,,,,,1.2509,,,,,,,,,,,,,,,,,,,,,,61034258c96850cb404c52d2,61036a2d404f7c59f50f2edb,2021-07-29_20h57.09.842,Simcolourproject_2stim_asymm_v5,2020.2.10,Win32,60,61025ae37ef11b136ea224fe,,,,,,,,,1733,58,-78,1,0,0,response3disk,,4,2.5,6.5,1,0,0,rectangle,2.5,6.5,1,0,0,2.5,6.5,1,0,0,1,54,214,96,1,,,,,,,,
,,,,,,,,,,,,,FF,,,,,,,,0.8176,,,,,,,,,,,,,,,,,,,,,,61034258c96850cb404c52d2,61036a2d404f7c59f50f2edb,2021-07-29_20h57.09.842,Simcolourproject_2stim_asymm_v5,2020.2.10,Win32,60,61025ae37ef11b136ea224fe,,,,,,,,,4284,93.5,56.5,1,0,0,response1disk,,6,24.5,9.5,1,0,0,rectangle,24.5,9.5,1,0,0,24.5,9.5,1,0,0,1,55,215,55,1,,,,,,,,
,,,,,,,,,,,,,FF,,,,,,,,3.5679,,,,,,,,,,,,,,,,,,,,,,61034258c96850cb404c52d2,61036a2d404f7c59f50f2edb,2021-07-29_20h57.09.842,Simcolourproject_2stim_asymm_v5,2020.2.10,Win32,60,61025ae37ef11b136ea224fe,,,,,,,,,1447,-93.5,-49,1,0,0,response5disk,,2,6,8,1,0,0,rectangle,6,8,1,0,0,6,8,1,0,0,1,56,216,150,1,,,,,,,,
,,,,,,,,,,,,,FF,,,,,,,,1.0841,,,,,,,,,,,,,,,,,,,,,,61034258c96850cb404c52d2,61036a2d404f7c59f50f2edb,2021-07-29_20h57.09.842,Simcolourproject_2stim_asymm_v5,2020.2.10,Win32,60,61025ae37ef11b136ea224fe,,,,,,,,,1799,45,-89.5,1,0,0,response3disk,,4,-2,4,1,0,0,rectangle,-2,4,1,0,0,-2,4,1,0,0,1,57,217,41,1,,,,,,,,
,,,,,,,,,,,,,FF,,,,,,,,0.9006,,,,,,,,,,,,,,,,,,,,,,61034258c96850cb404c52d2,61036a2d404f7c59f50f2edb,2021-07-29_20h57.09.842,Simcolourproject_2stim_asymm_v5,2020.2.10,Win32,60,61025ae37ef11b136ea224fe,,,,,,,,,2043,79.5,-30.5,1,0,0,response3disk,,5,28,2.5,1,0,0,rectangle,28,2.5,1,0,0,28,2.5,1,0,0,1,58,218,148,1,,,,,,,,
,,,,,,,,,,,,,FF,,,,,,,,0.7448,,,,,,,,,,,,,,,,,,,,,,61034258c96850cb404c52d2,61036a2d404f7c59f50f2edb,2021-07-29_20h57.09.842,Simcolourproject_2stim_asymm_v5,2020.2.10,Win32,60,61025ae37ef11b136ea224fe,,,,,,,,,2624,72.5,28,1,0,0,response1disk,,6,7.5,7,1,0,0,rectangle,-36.5,110,1,0,0,3.5,5,1,0,0,1,59,219,36,1,,response7disk_3,TRUE,0,0,"[265,282,187,220,133,116,254,7,27,145,52,31,129,184,198,113,153,110,25,20]",1.5339,rectangle
,,,,,,,,,,,,,FF,,,,,,,,0.9353,,,,,,,,,,,,,,,,,,,,,,61034258c96850cb404c52d2,61036a2d404f7c59f50f2edb,2021-07-29_20h57.09.842,Simcolourproject_2stim_asymm_v5,2020.2.10,Win32,60,61025ae37ef11b136ea224fe,,,,,,,,,169,-68.5,-22.5,1,0,0,response5disk,,2,-30,-11,1,0,0,rectangle,-30,-11,1,0,0,-30,-11,1,0,0,1,60,220,145,1,,,,,,,,
,,,,,,,,,,,,,FF,,,,,,,,0.9177,,,,,,,,,,,,,,,,,,,,,,61034258c96850cb404c52d2,61036a2d404f7c59f50f2edb,2021-07-29_20h57.09.842,Simcolourproject_2stim_asymm_v5,2020.2.10,Win32,60,61025ae37ef11b136ea224fe,,,,,,,,,2908,30,-77.5,1,0,0,response3disk,,4,18.5,-3,1,0,0,rectangle,18.5,-3,1,0,0,18.5,-3,1,0,0,1,61,221,129,1,,,,,,,,
,,,,,,,,,,,,,FF,,,,,,,,1.5203,,,,,,,,,,,,,,,,,,,,,,61034258c96850cb404c52d2,61036a2d404f7c59f50f2edb,2021-07-29_20h57.09.842,Simcolourproject_2stim_asymm_v5,2020.2.10,Win32,60,61025ae37ef11b136ea224fe,,,,,,,,,1502,100.5,37,1,0,0,response1disk,,6,11,-4.5,1,0,0,rectangle,11,-4.5,1,0,0,11,-4.5,1,0,0,1,62,222,28,1,,,,,,,,
,,,,,,,,,,,,,FF,,,,,,,,0.768,,,,,,,,,,,,,,,,,,,,,,61034258c96850cb404c52d2,61036a2d404f7c59f50f2edb,2021-07-29_20h57.09.842,Simcolourproject_2stim_asymm_v5,2020.2.10,Win32,60,61025ae37ef11b136ea224fe,,,,,,,,,393,64.5,-44,1,0,0,response3disk,,5,-11.5,-13,1,0,0,rectangle,-11.5,-13,1,0,0,-11.5,-13,1,0,0,1,63,223,97,1,,,,,,,,
,,,,,,,,,,,,,FF,,,,,,,,0.8346,,,,,,,,,,,,,,,,,,,,,,61034258c96850cb404c52d2,61036a2d404f7c59f50f2edb,2021-07-29_20h57.09.842,Simcolourproject_2stim_asymm_v5,2020.2.10,Win32,60,61025ae37ef11b136ea224fe,,,,,,,,,2926,32,-88.5,1,0,0,response3disk,,4,6.5,-5.5,1,0,0,rectangle,6.5,-5.5,1,0,0,6.5,-5.5,1,0,0,1,64,224,94,1,,,,,,,,
,,,,,,,,,,,,,FF,,,,,,,,2.5344,,,,,,,,,,,,,,,,,,,,,,61034258c96850cb404c52d2,61036a2d404f7c59f50f2edb,2021-07-29_20h57.09.842,Simcolourproject_2stim_asymm_v5,2020.2.10,Win32,60,61025ae37ef11b136ea224fe,,,,,,,,,4148,35,-60.5,1,0,0,response3disk,,4,7.5,-2,1,0,0,rectangle,7.5,-2,1,0,0,7.5,-2,1,0,0,1,65,225,87,1,,,,,,,,
,,,,,,,,,,,,,FF,,,,,,,,0.7652,,,,,,,,,,,,,,,,,,,,,,61034258c96850cb404c52d2,61036a2d404f7c59f50f2edb,2021-07-29_20h57.09.842,Simcolourproject_2stim_asymm_v5,2020.2.10,Win32,60,61025ae37ef11b136ea224fe,,,,,,,,,480,71,-34,1,0,0,response3disk,,5,5.5,-2.5,1,0,0,rectangle,5.5,-2.5,1,0,0,5.5,-2.5,1,0,0,1,66,226,66,1,,,,,,,,
,,,,,,,,,,,,,FF,,,,,,,,1.1845,,,,,,,,,,,,,,,,,,,,,,61034258c96850cb404c52d2,61036a2d404f7c59f50f2edb,2021-07-29_20h57.09.842,Simcolourproject_2stim_asymm_v5,2020.2.10,Win32,60,61025ae37ef11b136ea224fe,,,,,,,,,1190,79.5,-36,1,0,0,response3disk,,5,19.5,-7,1,0,0,rectangle,19.5,-7,1,0,0,19.5,-7,1,0,0,1,67,227,102,1,,,,,,,,
,,,,,,,,,,,,,FF,,,,,,,,0.9017,,,,,,,,,,,,,,,,,,,,,,61034258c96850cb404c52d2,61036a2d404f7c59f50f2edb,2021-07-29_20h57.09.842,Simcolourproject_2stim_asymm_v5,2020.2.10,Win32,60,61025ae37ef11b136ea224fe,,,,,,,,,1752,-90,-36.5,1,0,0,response5disk,,2,7,-5.5,1,0,0,rectangle,7,-5.5,1,0,0,7,-5.5,1,0,0,1,68,228,157,1,,,,,,,,
,,,,,,,,,,,,,FF,,,,,,,,0.8317,,,,,,,,,,,,,,,,,,,,,,61034258c96850cb404c52d2,61036a2d404f7c59f50f2edb,2021-07-29_20h57.09.842,Simcolourproject_2stim_asymm_v5,2020.2.10,Win32,60,61025ae37ef11b136ea224fe,,,,,,,,,497,69.5,112.5,1,0,0,response1disk,,7,10.5,3.5,1,0,0,rectangle,10.5,3.5,1,0,0,10.5,3.5,1,0,0,1,69,229,11,1,,,,,,,,
,,,,,,,,,,,,,FF,,,,,,,,0.9174,,,,,,,,,,,,,,,,,,,,,,61034258c96850cb404c52d2,61036a2d404f7c59f50f2edb,2021-07-29_20h57.09.842,Simcolourproject_2stim_asymm_v5,2020.2.10,Win32,60,61025ae37ef11b136ea224fe,,,,,,,,,1457,-47,-98,1,0,0,response5disk,,3,3,6,1,0,0,rectangle,3,6,1,0,0,3,6,1,0,0,1,70,230,92,1,,,,,,,,
,,,,,,,,,,,,,FF,,,,,,,,0.9877,,,,,,,,,,,,,,,,,,,,,,61034258c96850cb404c52d2,61036a2d404f7c59f50f2edb,2021-07-29_20h57.09.842,Simcolourproject_2stim_asymm_v5,2020.2.10,Win32,60,61025ae37ef11b136ea224fe,,,,,,,,,498,48.5,122,1,0,0,response1disk,,7,-6,-3.5,1,0,0,rectangle,-6,-3.5,1,0,0,-6,-3.5,1,0,0,1,71,231,3,1,,,,,,,,
,,,,,,,,,,,,,FF,,,,,,,,1.017,,,,,,,,,,,,,,,,,,,,,,61034258c96850cb404c52d2,61036a2d404f7c59f50f2edb,2021-07-29_20h57.09.842,Simcolourproject_2stim_asymm_v5,2020.2.10,Win32,60,61025ae37ef11b136ea224fe,,,,,,,,,888,44.5,-95.5,1,0,0,response3disk,,4,4.5,9,1,0,0,rectangle,4.5,9,1,0,0,4.5,9,1,0,0,1,72,232,147,1,,,,,,,,
,,,,,,,,,,,,,FF,,,,,,,,0.8003,,,,,,,,,,,,,,,,,,,,,,61034258c96850cb404c52d2,61036a2d404f7c59f50f2edb,2021-07-29_20h57.09.842,Simcolourproject_2stim_asymm_v5,2020.2.10,Win32,60,61025ae37ef11b136ea224fe,,,,,,,,,2219,90.5,-36,1,0,0,response3disk,,5,3.5,5,1,0,0,rectangle,3.5,5,1,0,0,3.5,5,1,0,0,1,73,233,126,1,,,,,,,,
,,,,,,,,,,,,,FF,,,,,,,,0.7998,,,,,,,,,,,,,,,,,,,,,,61034258c96850cb404c52d2,61036a2d404f7c59f50f2edb,2021-07-29_20h57.09.842,Simcolourproject_2stim_asymm_v5,2020.2.10,Win32,60,61025ae37ef11b136ea224fe,,,,,,,,,3742,-51.5,33,1,0,0,response7disk,,1,12,-11,1,0,0,rectangle,12,-11,1,0,0,12,-11,1,0,0,1,74,234,53,1,,,,,,,,
,,,,,,,,,,,,,FF,,,,,,,,1.5004,,,,,,,,,,,,,,,,,,,,,,61034258c96850cb404c52d2,61036a2d404f7c59f50f2edb,2021-07-29_20h57.09.842,Simcolourproject_2stim_asymm_v5,2020.2.10,Win32,60,61025ae37ef11b136ea224fe,,,,,,,,,1065,31.5,-79,1,0,0,response3disk,,4,-18,-1,1,0,0,rectangle,-18,-1,1,0,0,-18,-1,1,0,0,1,75,235,106,1,,,,,,,,
,,,,,,,,,,,,,FF,,,,,,,,0.9173,,,,,,,,,,,,,,,,,,,,,,61034258c96850cb404c52d2,61036a2d404f7c59f50f2edb,2021-07-29_20h57.09.842,Simcolourproject_2stim_asymm_v5,2020.2.10,Win32,60,61025ae37ef11b136ea224fe,,,,,,,,,476,76.5,-34,1,0,0,response3disk,,5,16.5,1.5,1,0,0,rectangle,16.5,1.5,1,0,0,16.5,1.5,1,0,0,1,76,236,100,1,,,,,,,,
,,,,,,,,,,,,,FF,,,,,,,,0.8168,,,,,,,,,,,,,,,,,,,,,,61034258c96850cb404c52d2,61036a2d404f7c59f50f2edb,2021-07-29_20h57.09.842,Simcolourproject_2stim_asymm_v5,2020.2.10,Win32,60,61025ae37ef11b136ea224fe,,,,,,,,,2939,72,30.5,1,0,0,response1disk,,6,-16.5,-2,1,0,0,rectangle,-16.5,-2,1,0,0,-16.5,-2,1,0,0,1,77,237,15,1,,,,,,,,
,,,,,,,,,,,,,FF,,,,,,,,0.9497,,,,,,,,,,,,,,,,,,,,,,61034258c96850cb404c52d2,61036a2d404f7c59f50f2edb,2021-07-29_20h57.09.842,Simcolourproject_2stim_asymm_v5,2020.2.10,Win32,60,61025ae37ef11b136ea224fe,,,,,,,,,2866,49.5,98,1,0,0,response1disk,,7,7.5,-0.5,1,0,0,rectangle,7.5,-0.5,1,0,0,7.5,-0.5,1,0,0,1,78,238,76,1,,,,,,,,
,,,,,,,,,,,,,FF,,,,,,,,1.3981,,,,,,,,,,,,,,,,,,,,,,61034258c96850cb404c52d2,61036a2d404f7c59f50f2edb,2021-07-29_20h57.09.842,Simcolourproject_2stim_asymm_v5,2020.2.10,Win32,60,61025ae37ef11b136ea224fe,,,,,,,,,614,46.5,-47,1,0,0,response3disk,,4,-6.5,2,1,0,0,rectangle,-6.5,2,1,0,0,-6.5,2,1,0,0,1,79,239,17,1,,,,,,,,
,,,,,,,,,,,,,FF,,,,,,,,0.7334,,,,,,,,,,,,,,,,,,,,,,61034258c96850cb404c52d2,61036a2d404f7c59f50f2edb,2021-07-29_20h57.09.842,Simcolourproject_2stim_asymm_v5,2020.2.10,Win32,60,61025ae37ef11b136ea224fe,,,,,,,,,3935,60.5,39.5,1,0,0,response1disk,,6,-16.5,-10,1,0,0,rectangle,-16.5,-10,1,0,0,-16.5,-10,1,0,0,1,80,240,42,1,,,,,,,,
,,,,,,,,,,,,,FF,,,,,,,,0.9335,,,,,,,,,,,,,,,,,,,,,,61034258c96850cb404c52d2,61036a2d404f7c59f50f2edb,2021-07-29_20h57.09.842,Simcolourproject_2stim_asymm_v5,2020.2.10,Win32,60,61025ae37ef11b136ea224fe,,,,,,,,,324,50.5,105,1,0,0,response1disk,,7,-2.5,7.5,1,0,0,rectangle,-2.5,7.5,1,0,0,-2.5,7.5,1,0,0,1,81,241,60,1,,,,,,,,
,,,,,,,,,,,,,FF,,,,,,,,1.5823,,,,,,,,,,,,,,,,,,,,,,61034258c96850cb404c52d2,61036a2d404f7c59f50f2edb,2021-07-29_20h57.09.842,Simcolourproject_2stim_asymm_v5,2020.2.10,Win32,60,61025ae37ef11b136ea224fe,,,,,,,,,3845,19,-91.5,1,0,0,response3disk,,4,5,-13,1,0,0,rectangle,5,-13,1,0,0,5,-13,1,0,0,1,82,242,32,1,,,,,,,,
,,,,,,,,,,,,,FF,,,,,,,,0.7503,,,,,,,,,,,,,,,,,,,,,,61034258c96850cb404c52d2,61036a2d404f7c59f50f2edb,2021-07-29_20h57.09.842,Simcolourproject_2stim_asymm_v5,2020.2.10,Win32,60,61025ae37ef11b136ea224fe,,,,,,,,,2510,71,-21,1,0,0,response3disk,,5,3.5,14.5,1,0,0,rectangle,3.5,14.5,1,0,0,3.5,14.5,1,0,0,1,83,243,65,1,,,,,,,,
,,,,,,,,,,,,,FF,,,,,,,,2.0007,,,,,,,,,,,,,,,,,,,,,,61034258c96850cb404c52d2,61036a2d404f7c59f50f2edb,2021-07-29_20h57.09.842,Simcolourproject_2stim_asymm_v5,2020.2.10,Win32,60,61025ae37ef11b136ea224fe,,,,,,,,,2435,88.5,-54,1,0,0,response3disk,,5,-5.5,4.5,1,0,0,rectangle,-5.5,4.5,1,0,0,-5.5,4.5,1,0,0,1,84,244,113,1,,,,,,,,
,,,,,,,,,,,,,FF,,,,,,,,1.1171,,,,,,,,,,,,,,,,,,,,,,61034258c96850cb404c52d2,61036a2d404f7c59f50f2edb,2021-07-29_20h57.09.842,Simcolourproject_2stim_asymm_v5,2020.2.10,Win32,60,61025ae37ef11b136ea224fe,,,,,,,,,1500,109,-50.5,1,0,0,response3disk,,5,22,1,1,0,0,rectangle,22,1,1,0,0,22,1,1,0,0,1,85,245,82,1,,,,,,,,
,,,,,,,,,,,,,FF,,,,,,,,0.7837,,,,,,,,,,,,,,,,,,,,,,61034258c96850cb404c52d2,61036a2d404f7c59f50f2edb,2021-07-29_20h57.09.842,Simcolourproject_2stim_asymm_v5,2020.2.10,Win32,60,61025ae37ef11b136ea224fe,,,,,,,,,646,21.5,-55.5,1,0,0,response3disk,,4,16.5,-13,1,0,0,rectangle,16.5,-13,1,0,0,16.5,-13,1,0,0,1,86,246,69,1,,,,,,,,
,,,,,,,,,,,,,FF,,,,,,,,0.6839,,,,,,,,,,,,,,,,,,,,,,61034258c96850cb404c52d2,61036a2d404f7c59f50f2edb,2021-07-29_20h57.09.842,Simcolourproject_2stim_asymm_v5,2020.2.10,Win32,60,61025ae37ef11b136ea224fe,,,,,,,,,388,62.5,26,1,0,0,response1disk,,6,15.5,-1.5,1,0,0,rectangle,15.5,-1.5,1,0,0,15.5,-1.5,1,0,0,1,87,247,37,1,,,,,,,,
,,,,,,,,,,,,,FF,,,,,,,,1.2837,,,,,,,,,,,,,,,,,,,,,,61034258c96850cb404c52d2,61036a2d404f7c59f50f2edb,2021-07-29_20h57.09.842,Simcolourproject_2stim_asymm_v5,2020.2.10,Win32,60,61025ae37ef11b136ea224fe,,,,,,,,,3603,70.5,-24.5,1,0,0,response3disk,,5,10.5,2,1,0,0,rectangle,10.5,2,1,0,0,10.5,2,1,0,0,1,88,248,68,1,,,,,,,,
,,,,,,,,,,,,,FF,,,,,,,,1.1505,,,,,,,,,,,,,,,,,,,,,,61034258c96850cb404c52d2,61036a2d404f7c59f50f2edb,2021-07-29_20h57.09.842,Simcolourproject_2stim_asymm_v5,2020.2.10,Win32,60,61025ae37ef11b136ea224fe,,,,,,,,,3963,84.5,-56.5,1,0,0,response3disk,,5,6,8.5,1,0,0,rectangle,6,8.5,1,0,0,6,8.5,1,0,0,1,89,249,78,1,,,,,,,,
,,,,,,,,,,,,,FF,,,,,,,,0.6669,,,,,,,,,,,,,,,,,,,,,,61034258c96850cb404c52d2,61036a2d404f7c59f50f2edb,2021-07-29_20h57.09.842,Simcolourproject_2stim_asymm_v5,2020.2.10,Win32,60,61025ae37ef11b136ea224fe,,,,,,,,,959,73.5,60.5,1,0,0,response1disk,,6,-14.5,-7.5,1,0,0,rectangle,-14.5,-7.5,1,0,0,-14.5,-7.5,1,0,0,1,90,250,141,1,,,,,,,,
,,,,,,,,,,,,,FF,,,,,,,,1.1335,,,,,,,,,,,,,,,,,,,,,,61034258c96850cb404c52d2,61036a2d404f7c59f50f2edb,2021-07-29_20h57.09.842,Simcolourproject_2stim_asymm_v5,2020.2.10,Win32,60,61025ae37ef11b136ea224fe,,,,,,,,,929,57,76.5,1,0,0,response1disk,,7,-2,0,1,0,0,rectangle,-2,0,1,0,0,-2,0,1,0,0,1,91,251,49,1,,,,,,,,
,,,,,,,,,,,,,FF,,,,,,,,0.9172,,,,,,,,,,,,,,,,,,,,,,61034258c96850cb404c52d2,61036a2d404f7c59f50f2edb,2021-07-29_20h57.09.842,Simcolourproject_2stim_asymm_v5,2020.2.10,Win32,60,61025ae37ef11b136ea224fe,,,,,,,,,668,73.5,-49.5,1,0,0,response3disk,,5,26.5,-3.5,1,0,0,rectangle,26.5,-3.5,1,0,0,26.5,-3.5,1,0,0,1,92,252,105,1,,,,,,,,
,,,,,,,,,,,,,FF,,,,,,,,1.2503,,,,,,,,,,,,,,,,,,,,,,61034258c96850cb404c52d2,61036a2d404f7c59f50f2edb,2021-07-29_20h57.09.842,Simcolourproject_2stim_asymm_v5,2020.2.10,Win32,60,61025ae37ef11b136ea224fe,,,,,,,,,3040,77,-40.5,1,0,0,response3disk,,5,1.5,2.5,1,0,0,rectangle,120,57.5,1,0,0,-2,2.5,1,0,0,1,93,253,103,1,,response1disk_3,TRUE,6,6,"[265,282,187,220,133,116,254,7,27,145,52,31,129,184,198,113,153,110,25,20]",2.0667,rectangle
,,,,,,,,,,,,,FF,,,,,,,,1.7339,,,,,,,,,,,,,,,,,,,,,,61034258c96850cb404c52d2,61036a2d404f7c59f50f2edb,2021-07-29_20h57.09.842,Simcolourproject_2stim_asymm_v5,2020.2.10,Win32,60,61025ae37ef11b136ea224fe,,,,,,,,,2562,71.5,-32,1,0,0,response3disk,,5,-3.5,-5.5,1,0,0,rectangle,-3.5,-5.5,1,0,0,-3.5,-5.5,1,0,0,1,94,254,46,1,,,,,,,,
,,,,,,,,,,,,,FF,,,,,,,,0.9002,,,,,,,,,,,,,,,,,,,,,,61034258c96850cb404c52d2,61036a2d404f7c59f50f2edb,2021-07-29_20h57.09.842,Simcolourproject_2stim_asymm_v5,2020.2.10,Win32,60,61025ae37ef11b136ea224fe,,,,,,,,,1076,89.5,-57.5,1,0,0,response3disk,,5,12,-11,1,0,0,rectangle,12,-11,1,0,0,12,-11,1,0,0,1,95,255,30,1,,,,,,,,
,,,,,,,,,,,,,FF,,,,,,,,0.882,,,,,,,,,,,,,,,,,,,,,,61034258c96850cb404c52d2,61036a2d404f7c59f50f2edb,2021-07-29_20h57.09.842,Simcolourproject_2stim_asymm_v5,2020.2.10,Win32,60,61025ae37ef11b136ea224fe,,,,,,,,,2814,38.5,120,1,0,0,response1disk,,7,-7.5,-2,1,0,0,rectangle,-7.5,-2,1,0,0,-7.5,-2,1,0,0,1,96,256,120,1,,,,,,,,
,,,,,,,,,,,,,FF,,,,,,,,1.0166,,,,,,,,,,,,,,,,,,,,,,61034258c96850cb404c52d2,61036a2d404f7c59f50f2edb,2021-07-29_20h57.09.842,Simcolourproject_2stim_asymm_v5,2020.2.10,Win32,60,61025ae37ef11b136ea224fe,,,,,,,,,857,118.5,-65,1,0,0,response3disk,,5,5,-11.5,1,0,0,rectangle,5,-11.5,1,0,0,5,-11.5,1,0,0,1,97,257,39,1,,,,,,,,
,,,,,,,,,,,,,FF,,,,,,,,0.7009,,,,,,,,,,,,,,,,,,,,,,61034258c96850cb404c52d2,61036a2d404f7c59f50f2edb,2021-07-29_20h57.09.842,Simcolourproject_2stim_asymm_v5,2020.2.10,Win32,60,61025ae37ef11b136ea224fe,,,,,,,,,2445,55.5,33,1,0,0,response1disk,,6,5.5,7,1,0,0,rectangle,5.5,7,1,0,0,5.5,7,1,0,0,1,98,258,135,1,,,,,,,,
,,,,,,,,,,,,,FF,,,,,,,,0.6331,,,,,,,,,,,,,,,,,,,,,,61034258c96850cb404c52d2,61036a2d404f7c59f50f2edb,2021-07-29_20h57.09.842,Simcolourproject_2stim_asymm_v5,2020.2.10,Win32,60,61025ae37ef11b136ea224fe,,,,,,,,,2441,42.5,31,1,0,0,response1disk,,6,2.5,-1.5,1,0,0,rectangle,2.5,-1.5,1,0,0,2.5,-1.5,1,0,0,1,99,259,130,1,,,,,,,,
,,,,,,,,,,,,,FF,,,,,,,,0.9005,,,,,,,,,,,,,,,,,,,,,,61034258c96850cb404c52d2,61036a2d404f7c59f50f2edb,2021-07-29_20h57.09.842,Simcolourproject_2stim_asymm_v5,2020.2.10,Win32,60,61025ae37ef11b136ea224fe,,,,,,,,,3678,56,-73,1,0,0,response3disk,,4,17,-10,1,0,0,rectangle,17,-10,1,0,0,17,-10,1,0,0,1,100,260,48,1,,,,,,,,
,,,,,,,,,,,,,FF,,,,,,,,1.0166,,,,,,,,,,,,,,,,,,,,,,61034258c96850cb404c52d2,61036a2d404f7c59f50f2edb,2021-07-29_20h57.09.842,Simcolourproject_2stim_asymm_v5,2020.2.10,Win32,60,61025ae37ef11b136ea224fe,,,,,,,,,4227,81,29.5,1,0,0,response1disk,,6,17.5,-2,1,0,0,rectangle,17.5,-2,1,0,0,17.5,-2,1,0,0,1,101,261,139,1,,,,,,,,
,,,,,,,,,,,,,FF,,,,,,,,1.267,,,,,,,,,,,,,,,,,,,,,,61034258c96850cb404c52d2,61036a2d404f7c59f50f2edb,2021-07-29_20h57.09.842,Simcolourproject_2stim_asymm_v5,2020.2.10,Win32,60,61025ae37ef11b136ea224fe,,,,,,,,,4170,-33.5,-65.5,1,0,0,response5disk,,3,5,-10,1,0,0,rectangle,5,-10,1,0,0,5,-10,1,0,0,1,102,262,90,1,,,,,,,,
,,,,,,,,,,,,,FF,,,,,,,,0.6679,,,,,,,,,,,,,,,,,,,,,,61034258c96850cb404c52d2,61036a2d404f7c59f50f2edb,2021-07-29_20h57.09.842,Simcolourproject_2stim_asymm_v5,2020.2.10,Win32,60,61025ae37ef11b136ea224fe,,,,,,,,,2645,92.5,-17.5,1,0,0,response3disk,,5,22,8,1,0,0,rectangle,22,8,1,0,0,22,8,1,0,0,1,103,263,101,1,,,,,,,,
,,,,,,,,,,,,,FF,,,,,,,,0.5321,,,,,,,,,,,,,,,,,,,,,,61034258c96850cb404c52d2,61036a2d404f7c59f50f2edb,2021-07-29_20h57.09.842,Simcolourproject_2stim_asymm_v5,2020.2.10,Win32,60,61025ae37ef11b136ea224fe,,,,,,,,,2964,80,29.5,1,0,0,response1disk,,6,16.5,6.5,1,0,0,rectangle,84,-53.5,1,0,0,-11.5,5,1,0,0,1,104,264,95,1,,response3disk_3,TRUE,5,5,"[265,282,187,220,133,116,254,7,27,145,52,31,129,184,198,113,153,110,25,20]",1.6837,rectangle
,,,,,,,,,,,,,FF,,,,,,,,0.8074,,,,,,,,,,,,,,,,,,,,,,61034258c96850cb404c52d2,61036a2d404f7c59f50f2edb,2021-07-29_20h57.09.842,Simcolourproject_2stim_asymm_v5,2020.2.10,Win32,60,61025ae37ef11b136ea224fe,,,,,,,,,610,46.5,-69.5,1,0,0,response3disk,,4,5.5,-13,1,0,0,rectangle,5.5,-13,1,0,0,5.5,-13,1,0,0,1,105,265,10,1,,,,,,,,
,,,,,,,,,,,,,FF,,,,,,,,0.7157,,,,,,,,,,,,,,,,,,,,,,61034258c96850cb404c52d2,61036a2d404f7c59f50f2edb,2021-07-29_20h57.09.842,Simcolourproject_2stim_asymm_v5,2020.2.10,Win32,60,61025ae37ef11b136ea224fe,,,,,,,,,3444,82.5,-48.5,1,0,0,response3disk,,5,26,-12.5,1,0,0,rectangle,26,-12.5,1,0,0,26,-12.5,1,0,0,1,106,266,138,1,,,,,,,,
,,,,,,,,,,,,,FF,,,,,,,,1.3829,,,,,,,,,,,,,,,,,,,,,,61034258c96850cb404c52d2,61036a2d404f7c59f50f2edb,2021-07-29_20h57.09.842,Simcolourproject_2stim_asymm_v5,2020.2.10,Win32,60,61025ae37ef11b136ea224fe,,,,,,,,,1634,49.5,87.5,1,0,0,response1disk,,7,-9.5,-12,1,0,0,rectangle,-9.5,-12,1,0,0,-9.5,-12,1,0,0,1,107,267,98,1,,,,,,,,
,,,,,,,,,,,,,FF,,,,,,,,0.817,,,,,,,,,,,,,,,,,,,,,,61034258c96850cb404c52d2,61036a2d404f7c59f50f2edb,2021-07-29_20h57.09.842,Simcolourproject_2stim_asymm_v5,2020.2.10,Win32,60,61025ae37ef11b136ea224fe,,,,,,,,,3119,46.5,101,1,0,0,response1disk,,7,-12.5,-12.5,1,0,0,rectangle,-12.5,-12.5,1,0,0,-12.5,-12.5,1,0,0,1,108,268,71,1,,,,,,,,
,,,,,,,,,,,,,FF,,,,,,,,4.6679,,,,,,,,,,,,,,,,,,,,,,61034258c96850cb404c52d2,61036a2d404f7c59f50f2edb,2021-07-29_20h57.09.842,Simcolourproject_2stim_asymm_v5,2020.2.10,Win32,60,61025ae37ef11b136ea224fe,,,,,,,,,220,119.5,81.5,1,0,0,response1disk,,6,13.5,16.5,1,0,0,rectangle,13.5,16.5,1,0,0,13.5,16.5,1,0,0,1,109,269,115,1,,,,,,,,
,,,,,,,,,,,,,FF,,,,,,,,1.0008,,,,,,,,,,,,,,,,,,,,,,61034258c96850cb404c52d2,61036a2d404f7c59f50f2edb,2021-07-29_20h57.09.842,Simcolourproject_2stim_asymm_v5,2020.2.10,Win32,60,61025ae37ef11b136ea224fe,,,,,,,,,1583,105.5,-60,1,0,0,response3disk,,5,15.5,4,1,0,0,rectangle,15.5,4,1,0,0,15.5,4,1,0,0,1,110,270,56,1,,,,,,,,
,,,,,,,,,,,,,FF,,,,,,,,0.8837,,,,,,,,,,,,,,,,,,,,,,61034258c96850cb404c52d2,61036a2d404f7c59f50f2edb,2021-07-29_20h57.09.842,Simcolourproject_2stim_asymm_v5,2020.2.10,Win32,60,61025ae37ef11b136ea224fe,,,,,,,,,4253,34.5,-97.5,1,0,0,response3disk,,4,-4.5,-3.5,1,0,0,rectangle,-4.5,-3.5,1,0,0,-4.5,-3.5,1,0,0,1,111,271,84,1,,,,,,,,
,,,,,,,,,,,,,FF,,,,,,,,0.7,,,,,,,,,,,,,,,,,,,,,,61034258c96850cb404c52d2,61036a2d404f7c59f50f2edb,2021-07-29_20h57.09.842,Simcolourproject_2stim_asymm_v5,2020.2.10,Win32,60,61025ae37ef11b136ea224fe,,,,,,,,,3853,41.5,-92,1,0,0,response3disk,,4,-12,18,1,0,0,rectangle,-12,18,1,0,0,-12,18,1,0,0,1,112,272,16,1,,,,,,,,
,,,,,,,,,,,,,FF,,,,,,,,0.8502,,,,,,,,,,,,,,,,,,,,,,61034258c96850cb404c52d2,61036a2d404f7c59f50f2edb,2021-07-29_20h57.09.842,Simcolourproject_2stim_asymm_v5,2020.2.10,Win32,60,61025ae37ef11b136ea224fe,,,,,,,,,3673,-32,-65,1,0,0,response5disk,,3,4,-7.5,1,0,0,rectangle,4,-7.5,1,0,0,4,-7.5,1,0,0,1,113,273,51,1,,,,,,,,
,,,,,,,,,,,,,FF,,,,,,,,0.6838,,,,,,,,,,,,,,,,,,,,,,61034258c96850cb404c52d2,61036a2d404f7c59f50f2edb,2021-07-29_20h57.09.842,Simcolourproject_2stim_asymm_v5,2020.2.10,Win32,60,61025ae37ef11b136ea224fe,,,,,,,,,2494,71,-43,1,0,0,response3disk,,5,15.5,-10,1,0,0,rectangle,15.5,-10,1,0,0,15.5,-10,1,0,0,1,114,274,12,1,,,,,,,,
,,,,,,,,,,,,,FF,,,,,,,,0.7673,,,,,,,,,,,,,,,,,,,,,,61034258c96850cb404c52d2,61036a2d404f7c59f50f2edb,2021-07-29_20h57.09.842,Simcolourproject_2stim_asymm_v5,2020.2.10,Win32,60,61025ae37ef11b136ea224fe,,,,,,,,,2699,98,87.5,1,0,0,response1disk,,6,-13.5,5,1,0,0,rectangle,-13.5,5,1,0,0,-13.5,5,1,0,0,1,115,275,74,1,,,,,,,,
,,,,,,,,,,,,,FF,,,,,,,,0.8337,,,,,,,,,,,,,,,,,,,,,,61034258c96850cb404c52d2,61036a2d404f7c59f50f2edb,2021-07-29_20h57.09.842,Simcolourproject_2stim_asymm_v5,2020.2.10,Win32,60,61025ae37ef11b136ea224fe,,,,,,,,,3041,99.5,-73,1,0,0,response3disk,,5,11.5,-8.5,1,0,0,rectangle,11.5,-8.5,1,0,0,11.5,-8.5,1,0,0,1,116,276,59,1,,,,,,,,
,,,,,,,,,,,,,FF,,,,,,,,0.8337,,,,,,,,,,,,,,,,,,,,,,61034258c96850cb404c52d2,61036a2d404f7c59f50f2edb,2021-07-29_20h57.09.842,Simcolourproject_2stim_asymm_v5,2020.2.10,Win32,60,61025ae37ef11b136ea224fe,,,,,,,,,1551,64.5,31,1,0,0,response1disk,,6,13.5,12,1,0,0,rectangle,13.5,12,1,0,0,13.5,12,1,0,0,1,117,277,34,1,,,,,,,,
,,,,,,,,,,,,,FF,,,,,,,,0.7172,,,,,,,,,,,,,,,,,,,,,,61034258c96850cb404c52d2,61036a2d404f7c59f50f2edb,2021-07-29_20h57.09.842,Simcolourproject_2stim_asymm_v5,2020.2.10,Win32,60,61025ae37ef11b136ea224fe,,,,,,,,,1310,89.5,-58,1,0,0,response3disk,,5,-20,3,1,0,0,rectangle,-20,3,1,0,0,-20,3,1,0,0,1,118,278,149,1,,,,,,,,
,,,,,,,,,,,,,FF,,,,,,,,0.9672,,,,,,,,,,,,,,,,,,,,,,61034258c96850cb404c52d2,61036a2d404f7c59f50f2edb,2021-07-29_20h57.09.842,Simcolourproject_2stim_asymm_v5,2020.2.10,Win32,60,61025ae37ef11b136ea224fe,,,,,,,,,765,16.5,60.5,1,0,0,response1disk,,7,-8,-3,1,0,0,rectangle,-8,-3,1,0,0,-8,-3,1,0,0,1,119,279,2,1,,,,,,,,
,,,,,,,,,,,,,FF,,,,,,,,0.7502,,,,,,,,,,,,,,,,,,,,,,61034258c96850cb404c52d2,61036a2d404f7c59f50f2edb,2021-07-29_20h57.09.842,Simcolourproject_2stim_asymm_v5,2020.2.10,Win32,60,61025ae37ef11b136ea224fe,,,,,,,,,2049,92.5,22,1,0,0,response1disk,,6,19.5,-4.5,1,0,0,rectangle,19.5,-4.5,1,0,0,19.5,-4.5,1,0,0,1,120,280,93,1,,,,,,,,
,,,,,,,,,,,,,FF,,,,,,,,0.6832,,,,,,,,,,,,,,,,,,,,,,61034258c96850cb404c52d2,61036a2d404f7c59f50f2edb,2021-07-29_20h57.09.842,Simcolourproject_2stim_asymm_v5,2020.2.10,Win32,60,61025ae37ef11b136ea224fe,,,,,,,,,910,72.5,43,1,0,0,response1disk,,6,11,16,1,0,0,rectangle,-36.5,108,1,0,0,9.5,6,1,0,0,1,121,281,108,1,,response7disk_3,TRUE,0,0,"[265,282,187,220,133,116,254,7,27,145,52,31,129,184,198,113,153,110,25,20]",1.5169,rectangle
,,,,,,,,,,,,,FF,,,,,,,,0.761,,,,,,,,,,,,,,,,,,,,,,61034258c96850cb404c52d2,61036a2d404f7c59f50f2edb,2021-07-29_20h57.09.842,Simcolourproject_2stim_asymm_v5,2020.2.10,Win32,60,61025ae37ef11b136ea224fe,,,,,,,,,629,62.5,29.5,1,0,0,response1disk,,6,2.5,1,1,0,0,rectangle,2.5,1,1,0,0,2.5,1,1,0,0,1,122,282,7,1,,,,,,,,
,,,,,,,,,,,,,FF,,,,,,,,0.9004,,,,,,,,,,,,,,,,,,,,,,61034258c96850cb404c52d2,61036a2d404f7c59f50f2edb,2021-07-29_20h57.09.842,Simcolourproject_2stim_asymm_v5,2020.2.10,Win32,60,61025ae37ef11b136ea224fe,,,,,,,,,2025,-47.5,75.5,1,0,0,response7disk,,0,-7,1,1,0,0,rectangle,-7,1,1,0,0,-7,1,1,0,0,1,123,283,128,1,,,,,,,,
,,,,,,,,,,,,,FF,,,,,,,,1.0177,,,,,,,,,,,,,,,,,,,,,,61034258c96850cb404c52d2,61036a2d404f7c59f50f2edb,2021-07-29_20h57.09.842,Simcolourproject_2stim_asymm_v5,2020.2.10,Win32,60,61025ae37ef11b136ea224fe,,,,,,,,,485,38.5,126.5,1,0,0,response1disk,,7,-1.5,-7.5,1,0,0,rectangle,-1.5,-7.5,1,0,0,-1.5,-7.5,1,0,0,1,124,284,146,1,,,,,,,,
,,,,,,,,,,,,,FF,,,,,,,,1.1844,,,,,,,,,,,,,,,,,,,,,,61034258c96850cb404c52d2,61036a2d404f7c59f50f2edb,2021-07-29_20h57.09.842,Simcolourproject_2stim_asymm_v5,2020.2.10,Win32,60,61025ae37ef11b136ea224fe,,,,,,,,,1220,-72.5,-39.5,1,0,0,response5disk,,2,-4.5,4.5,1,0,0,rectangle,-4.5,4.5,1,0,0,-4.5,4.5,1,0,0,1,125,285,159,1,,,,,,,,
,,,,,,,,,,,,,FF,,,,,,,,0.7834,,,,,,,,,,,,,,,,,,,,,,61034258c96850cb404c52d2,61036a2d404f7c59f50f2edb,2021-07-29_20h57.09.842,Simcolourproject_2stim_asymm_v5,2020.2.10,Win32,60,61025ae37ef11b136ea224fe,,,,,,,,,2466,52.5,-18.5,1,0,0,response3disk,,5,20,-13.5,1,0,0,rectangle,20,-13.5,1,0,0,20,-13.5,1,0,0,1,126,286,43,1,,,,,,,,
,,,,,,,,,,,,,FF,,,,,,,,0.8318,,,,,,,,,,,,,,,,,,,,,,61034258c96850cb404c52d2,61036a2d404f7c59f50f2edb,2021-07-29_20h57.09.842,Simcolourproject_2stim_asymm_v5,2020.2.10,Win32,60,61025ae37ef11b136ea224fe,,,,,,,,,1434,65,-53,1,0,0,response3disk,,5,-8,-5,1,0,0,rectangle,-8,-5,1,0,0,-8,-5,1,0,0,1,127,287,73,1,,,,,,,,
,,,,,,,,,,,,,FF,,,,,,,,1.0069,,,,,,,,,,,,,,,,,,,,,,61034258c96850cb404c52d2,61036a2d404f7c59f50f2edb,2021-07-29_20h57.09.842,Simcolourproject_2stim_asymm_v5,2020.2.10,Win32,60,61025ae37ef11b136ea224fe,,,,,,,,,613,-23,-86,1,0,0,response5disk,,3,5.5,-7.5,1,0,0,rectangle,5.5,-7.5,1,0,0,5.5,-7.5,1,0,0,1,128,288,44,1,,,,,,,,
,,,,,,,,,,,,,FF,,,,,,,,1.1171,,,,,,,,,,,,,,,,,,,,,,61034258c96850cb404c52d2,61036a2d404f7c59f50f2edb,2021-07-29_20h57.09.842,Simcolourproject_2stim_asymm_v5,2020.2.10,Win32,60,61025ae37ef11b136ea224fe,,,,,,,,,1371,27,-93,1,0,0,response3disk,,4,-1.5,-1,1,0,0,rectangle,-1.5,-1,1,0,0,-1.5,-1,1,0,0,1,129,289,81,1,,,,,,,,
,,,,,,,,,,,,,FF,,,,,,,,1.9339,,,,,,,,,,,,,,,,,,,,,,61034258c96850cb404c52d2,61036a2d404f7c59f50f2edb,2021-07-29_20h57.09.842,Simcolourproject_2stim_asymm_v5,2020.2.10,Win32,60,61025ae37ef11b136ea224fe,,,,,,,,,3389,-88.5,29.5,1,0,0,response7disk,,1,2,-2,1,0,0,rectangle,2,-2,1,0,0,2,-2,1,0,0,1,130,290,52,1,,,,,,,,
,,,,,,,,,,,,,FF,,,,,,,,1.0004,,,,,,,,,,,,,,,,,,,,,,61034258c96850cb404c52d2,61036a2d404f7c59f50f2edb,2021-07-29_20h57.09.842,Simcolourproject_2stim_asymm_v5,2020.2.10,Win32,60,61025ae37ef11b136ea224fe,,,,,,,,,826,108.5,-29,1,0,0,response3disk,,5,15,10.5,1,0,0,rectangle,15,10.5,1,0,0,15,10.5,1,0,0,1,131,291,21,1,,,,,,,,
,,,,,,,,,,,,,FF,,,,,,,,0.967,,,,,,,,,,,,,,,,,,,,,,61034258c96850cb404c52d2,61036a2d404f7c59f50f2edb,2021-07-29_20h57.09.842,Simcolourproject_2stim_asymm_v5,2020.2.10,Win32,60,61025ae37ef11b136ea224fe,,,,,,,,,285,91,-36,1,0,0,response3disk,,5,0.5,-12,1,0,0,rectangle,0.5,-12,1,0,0,0.5,-12,1,0,0,1,132,292,79,1,,,,,,,,
,,,,,,,,,,,,,FF,,,,,,,,1.3457,,,,,,,,,,,,,,,,,,,,,,61034258c96850cb404c52d2,61036a2d404f7c59f50f2edb,2021-07-29_20h57.09.842,Simcolourproject_2stim_asymm_v5,2020.2.10,Win32,60,61025ae37ef11b136ea224fe,,,,,,,,,3289,75,33,1,0,0,response1disk,,6,10.5,1,1,0,0,rectangle,10.5,1,1,0,0,10.5,1,1,0,0,1,133,293,136,1,,,,,,,,
