key_resp.keys,key_resp.rt,key_resp_14.keys,key_resp_14.rt,key_resp_15.keys,key_resp_15.rt,key_resp_17.keys,key_resp_17.rt,key_resp_9.keys,key_resp_9.rt,key_resp_10.keys,key_resp_10.rt,practice_comparison,Ecc,mouse_5.x,mouse_5.y,mouse_5.leftButton,mouse_5.midButton,mouse_5.rightButton,mouse_5.clicked_name,pracsimilarity,response_time,mouse_10.x,mouse_10.y,mouse_10.leftButton,mouse_10.midButton,mouse_10.rightButton,mouse_10.clicked_name,mouse_7.x,mouse_7.y,mouse_7.leftButton,mouse_7.midButton,mouse_7.rightButton,mouse_6.x,mouse_6.y,mouse_6.leftButton,mouse_6.midButton,mouse_6.rightButton,duringprac.thisRepN,duringprac.thisTrialN,duringprac.thisN,duringprac.thisIndex,duringprac.ran,participant,session,date,expName,psychopyVersion,OS,frameRate,study_id,mouse_7.clicked_name,catchpracsimilarity,catch_response_time,catchnumberprac,catchtrialorderprac,mouse_6.clicked_name,key_resp_22.keys,key_resp_22.rt,realcomparison,mouse.x,mouse.y,mouse.leftButton,mouse.midButton,mouse.rightButton,mouse.clicked_name,Colour2,similarity,mouse_2.x,mouse_2.y,mouse_2.leftButton,mouse_2.midButton,mouse_2.rightButton,mouse_2.clicked_name,mouse_3.x,mouse_3.y,mouse_3.leftButton,mouse_3.midButton,mouse_3.rightButton,mouse_11.x,mouse_11.y,mouse_11.leftButton,mouse_11.midButton,mouse_11.rightButton,trials_2.thisRepN,trials_2.thisTrialN,trials_2.thisN,trials_2.thisIndex,trials_2.ran,Colour1,mouse_3.clicked_name,catchornah,catchsimilarity,catchnumber,catchtrialorder,catchRT,mouse_11.clicked_name
space,5.4643,space,13.6804,space,20.3063,space,9.121,space,1.3343,space,3.9412,100,PF,-44.23828125,86.68359375,1,0,0,response7disk_5,0,7.1526,0.13671875,-2.34765625,1,0,0,rectangle_8,0.13671875,-2.34765625,1,0,0,0.13671875,-2.34765625,1,0,0,0,0,0,1,1,6103101795d08201eb44f6a6,61036c0406437e30c4945f18,2021-07-29_22h05.52.213,Simcolourproject_2stim_asymm_v5,2020.2.10,MacIntel,60,61025ae37ef11b136ea224fe,,,,,,,,,,,,,,,,,,,,,,,,,,,,,,,,,,,,,,,,,,,,,,
,,,,,,,,,,,,99,PF,80.70703125,39.53125,1,0,0,response1disk_5,6,3.3496,-3.0546875,1.8359375,1,0,0,rectangle_8,102.4765625,-62.953125,1,0,0,-9.01171875,-4.15625,1,0,0,0,1,1,4,1,6103101795d08201eb44f6a6,61036c0406437e30c4945f18,2021-07-29_22h05.52.213,Simcolourproject_2stim_asymm_v5,2020.2.10,MacIntel,60,61025ae37ef11b136ea224fe,response3disk_7,5,2.9676,5,"[2,5]",rectangle_4,,,,,,,,,,,,,,,,,,,,,,,,,,,,,,,,,,,,,,,,
,,,,,,,,,,,,100,PF,98.5234375,43.78515625,1,0,0,response1disk_5,6,2.5329,-11.5703125,-2.17578125,1,0,0,rectangle_8,-11.5703125,-2.17578125,1,0,0,-11.5703125,-2.17578125,1,0,0,0,2,2,2,1,6103101795d08201eb44f6a6,61036c0406437e30c4945f18,2021-07-29_22h05.52.213,Simcolourproject_2stim_asymm_v5,2020.2.10,MacIntel,60,61025ae37ef11b136ea224fe,,,,,,,,,,,,,,,,,,,,,,,,,,,,,,,,,,,,,,,,,,,,,,
,,,,,,,,,,,,46,FF,81.78125,-65.05859375,1,0,0,response3disk_5,5,1.65,-5.31640625,7.0390625,1,0,0,rectangle_8,-5.31640625,7.0390625,1,0,0,-5.31640625,7.0390625,1,0,0,0,3,3,0,1,6103101795d08201eb44f6a6,61036c0406437e30c4945f18,2021-07-29_22h05.52.213,Simcolourproject_2stim_asymm_v5,2020.2.10,MacIntel,60,61025ae37ef11b136ea224fe,,,,,,,,,,,,,,,,,,,,,,,,,,,,,,,,,,,,,,,,,,,,,,
,,,,,,,,,,,,26,FF,98.1796875,44.546875,1,0,0,response1disk_5,6,1.8322,-6.26953125,3.84375,1,0,0,rectangle_8,106.359375,-45.49609375,1,0,0,-6.99609375,0.67578125,1,0,0,0,4,4,3,1,6103101795d08201eb44f6a6,61036c0406437e30c4945f18,2021-07-29_22h05.52.213,Simcolourproject_2stim_asymm_v5,2020.2.10,MacIntel,60,61025ae37ef11b136ea224fe,response3disk_7,5,1.3655,5,"[2,5]",rectangle_4,,,,,,,,,,,,,,,,,,,,,,,,,,,,,,,,,,,,,,,,
,,,,,,,,,,,,85,FF,46.359375,79.4375,1,0,0,response1disk_5,7,1.2478,-6.0390625,-1.1640625,1,0,0,rectangle_8,-6.0390625,-1.1640625,1,0,0,-6.0390625,-1.1640625,1,0,0,0,5,5,5,1,6103101795d08201eb44f6a6,61036c0406437e30c4945f18,2021-07-29_22h05.52.213,Simcolourproject_2stim_asymm_v5,2020.2.10,MacIntel,60,61025ae37ef11b136ea224fe,,,,,,,,,,,,,,,,,,,,,,,,,,,,,,,,,,,,,,,,,,,,,,
,,,,,,,,,,,,34,PF,97.1171875,42.72265625,1,0,0,response1disk_5,6,1.1667,5.01171875,8.5625,1,0,0,rectangle_8,5.01171875,8.5625,1,0,0,5.01171875,8.5625,1,0,0,0,6,6,6,1,6103101795d08201eb44f6a6,61036c0406437e30c4945f18,2021-07-29_22h05.52.213,Simcolourproject_2stim_asymm_v5,2020.2.10,MacIntel,60,61025ae37ef11b136ea224fe,,,,,,,,,,,,,,,,,,,,,,,,,,,,,,,,,,,,,,,,,,,,,,
,,,,,,,,,,,,,FF,,,,,,,,2.168,,,,,,,,,,,,,,,,,,,,,,6103101795d08201eb44f6a6,61036c0406437e30c4945f18,2021-07-29_22h05.52.213,Simcolourproject_2stim_asymm_v5,2020.2.10,MacIntel,60,61025ae37ef11b136ea224fe,,,,,,,space,2.9664,4034,93.5703125,28.5390625,1,0,0,response1disk,,6,-1.1171875,-1.6015625,1,0,0,rectangle,-1.1171875,-1.6015625,1,0,0,-1.1171875,-1.6015625,1,0,0,0,0,0,114,1,,,,,,,,
,,,,,,,,,,,,,FF,,,,,,,,0.9166,,,,,,,,,,,,,,,,,,,,,,6103101795d08201eb44f6a6,61036c0406437e30c4945f18,2021-07-29_22h05.52.213,Simcolourproject_2stim_asymm_v5,2020.2.10,MacIntel,60,61025ae37ef11b136ea224fe,,,,,,,,,1722,83.19921875,44.359375,1,0,0,response1disk,,6,15.89453125,1.140625,1,0,0,rectangle,15.89453125,1.140625,1,0,0,15.89453125,1.140625,1,0,0,0,1,1,134,1,,,,,,,,
,,,,,,,,,,,,,FF,,,,,,,,1.3161,,,,,,,,,,,,,,,,,,,,,,6103101795d08201eb44f6a6,61036c0406437e30c4945f18,2021-07-29_22h05.52.213,Simcolourproject_2stim_asymm_v5,2020.2.10,MacIntel,60,61025ae37ef11b136ea224fe,,,,,,,,,1879,94.0234375,-49.17578125,1,0,0,response3disk,,5,9.3359375,2.32421875,1,0,0,rectangle,9.3359375,2.32421875,1,0,0,9.3359375,2.32421875,1,0,0,0,2,2,44,1,,,,,,,,
,,,,,,,,,,,,,FF,,,,,,,,0.8004,,,,,,,,,,,,,,,,,,,,,,6103101795d08201eb44f6a6,61036c0406437e30c4945f18,2021-07-29_22h05.52.213,Simcolourproject_2stim_asymm_v5,2020.2.10,MacIntel,60,61025ae37ef11b136ea224fe,,,,,,,,,3399,78.51171875,-39.640625,1,0,0,response3disk,,5,5.8984375,-1.8046875,1,0,0,rectangle,5.8984375,-1.8046875,1,0,0,5.8984375,-1.8046875,1,0,0,0,3,3,13,1,,,,,,,,
,,,,,,,,,,,,,FF,,,,,,,,0.7986,,,,,,,,,,,,,,,,,,,,,,6103101795d08201eb44f6a6,61036c0406437e30c4945f18,2021-07-29_22h05.52.213,Simcolourproject_2stim_asymm_v5,2020.2.10,MacIntel,60,61025ae37ef11b136ea224fe,,,,,,,,,1686,68.72265625,-40.42578125,1,0,0,response3disk,,5,5.01953125,17.703125,1,0,0,rectangle,5.01953125,17.703125,1,0,0,5.01953125,17.703125,1,0,0,0,4,4,107,1,,,,,,,,
,,,,,,,,,,,,,FF,,,,,,,,0.6986,,,,,,,,,,,,,,,,,,,,,,6103101795d08201eb44f6a6,61036c0406437e30c4945f18,2021-07-29_22h05.52.213,Simcolourproject_2stim_asymm_v5,2020.2.10,MacIntel,60,61025ae37ef11b136ea224fe,,,,,,,,,3680,88.00390625,29.91796875,1,0,0,response1disk,,6,5.84765625,-1.0703125,1,0,0,rectangle,5.84765625,-1.0703125,1,0,0,5.84765625,-1.0703125,1,0,0,0,5,5,100,1,,,,,,,,
,,,,,,,,,,,,,FF,,,,,,,,1.0486,,,,,,,,,,,,,,,,,,,,,,6103101795d08201eb44f6a6,61036c0406437e30c4945f18,2021-07-29_22h05.52.213,Simcolourproject_2stim_asymm_v5,2020.2.10,MacIntel,60,61025ae37ef11b136ea224fe,,,,,,,,,729,68.13671875,-94.125,1,0,0,response3disk,,4,-4.734375,-8.1328125,1,0,0,rectangle,-4.734375,-8.1328125,1,0,0,-4.734375,-8.1328125,1,0,0,0,6,6,7,1,,,,,,,,
,,,,,,,,,,,,,FF,,,,,,,,0.8152,,,,,,,,,,,,,,,,,,,,,,6103101795d08201eb44f6a6,61036c0406437e30c4945f18,2021-07-29_22h05.52.213,Simcolourproject_2stim_asymm_v5,2020.2.10,MacIntel,60,61025ae37ef11b136ea224fe,,,,,,,,,2129,83.16015625,44.421875,1,0,0,response1disk,,6,-28.25,-6.75,1,0,0,rectangle,-28.25,-6.75,1,0,0,-28.25,-6.75,1,0,0,0,7,7,56,1,,,,,,,,
,,,,,,,,,,,,,FF,,,,,,,,0.9151,,,,,,,,,,,,,,,,,,,,,,6103101795d08201eb44f6a6,61036c0406437e30c4945f18,2021-07-29_22h05.52.213,Simcolourproject_2stim_asymm_v5,2020.2.10,MacIntel,60,61025ae37ef11b136ea224fe,,,,,,,,,4192,60.50390625,-42.4375,1,0,0,response3disk,,5,11.04296875,-0.78125,1,0,0,rectangle,11.04296875,-0.78125,1,0,0,11.04296875,-0.78125,1,0,0,0,8,8,1,1,,,,,,,,
,,,,,,,,,,,,,FF,,,,,,,,0.7495,,,,,,,,,,,,,,,,,,,,,,6103101795d08201eb44f6a6,61036c0406437e30c4945f18,2021-07-29_22h05.52.213,Simcolourproject_2stim_asymm_v5,2020.2.10,MacIntel,60,61025ae37ef11b136ea224fe,,,,,,,,,1552,74.32421875,35.26171875,1,0,0,response1disk,,6,18.35546875,2.015625,1,0,0,rectangle,18.35546875,2.015625,1,0,0,18.35546875,2.015625,1,0,0,0,9,9,153,1,,,,,,,,
,,,,,,,,,,,,,FF,,,,,,,,0.6326,,,,,,,,,,,,,,,,,,,,,,6103101795d08201eb44f6a6,61036c0406437e30c4945f18,2021-07-29_22h05.52.213,Simcolourproject_2stim_asymm_v5,2020.2.10,MacIntel,60,61025ae37ef11b136ea224fe,,,,,,,,,1182,74.71484375,30.30859375,1,0,0,response1disk,,6,24.0546875,5.40625,1,0,0,rectangle,24.0546875,5.40625,1,0,0,24.0546875,5.40625,1,0,0,0,10,10,89,1,,,,,,,,
,,,,,,,,,,,,,FF,,,,,,,,0.5997,,,,,,,,,,,,,,,,,,,,,,6103101795d08201eb44f6a6,61036c0406437e30c4945f18,2021-07-29_22h05.52.213,Simcolourproject_2stim_asymm_v5,2020.2.10,MacIntel,60,61025ae37ef11b136ea224fe,,,,,,,,,2397,63.35546875,20.19140625,1,0,0,response1disk,,6,-1.3203125,-4.0078125,1,0,0,rectangle,-1.3203125,-4.0078125,1,0,0,-1.3203125,-4.0078125,1,0,0,0,11,11,116,1,,,,,,,,
,,,,,,,,,,,,,FF,,,,,,,,1.0674,,,,,,,,,,,,,,,,,,,,,,6103101795d08201eb44f6a6,61036c0406437e30c4945f18,2021-07-29_22h05.52.213,Simcolourproject_2stim_asymm_v5,2020.2.10,MacIntel,60,61025ae37ef11b136ea224fe,,,,,,,,,3438,50.515625,-78.0234375,1,0,0,response3disk,,4,12.20703125,-3.92578125,1,0,0,rectangle,12.20703125,-3.92578125,1,0,0,12.20703125,-3.92578125,1,0,0,0,12,12,149,1,,,,,,,,
,,,,,,,,,,,,,FF,,,,,,,,0.5667,,,,,,,,,,,,,,,,,,,,,,6103101795d08201eb44f6a6,61036c0406437e30c4945f18,2021-07-29_22h05.52.213,Simcolourproject_2stim_asymm_v5,2020.2.10,MacIntel,60,61025ae37ef11b136ea224fe,,,,,,,,,1109,69.3359375,37.3828125,1,0,0,response1disk,,6,-9.74609375,-2.87890625,1,0,0,rectangle,-9.74609375,-2.87890625,1,0,0,-9.74609375,-2.87890625,1,0,0,0,13,13,113,1,,,,,,,,
,,,,,,,,,,,,,FF,,,,,,,,0.6332,,,,,,,,,,,,,,,,,,,,,,6103101795d08201eb44f6a6,61036c0406437e30c4945f18,2021-07-29_22h05.52.213,Simcolourproject_2stim_asymm_v5,2020.2.10,MacIntel,60,61025ae37ef11b136ea224fe,,,,,,,,,2967,57.6953125,32.3984375,1,0,0,response1disk,,6,11.5390625,8.359375,1,0,0,rectangle,11.5390625,8.359375,1,0,0,11.5390625,8.359375,1,0,0,0,14,14,110,1,,,,,,,,
,,,,,,,,,,,,,FF,,,,,,,,0.5012,,,,,,,,,,,,,,,,,,,,,,6103101795d08201eb44f6a6,61036c0406437e30c4945f18,2021-07-29_22h05.52.213,Simcolourproject_2stim_asymm_v5,2020.2.10,MacIntel,60,61025ae37ef11b136ea224fe,,,,,,,,,3532,84.98046875,25.31640625,1,0,0,response1disk,,6,-13.41796875,-16.453125,1,0,0,rectangle,-13.41796875,-16.453125,1,0,0,-13.41796875,-16.453125,1,0,0,0,15,15,10,1,,,,,,,,
,,,,,,,,,,,,,FF,,,,,,,,1.0661,,,,,,,,,,,,,,,,,,,,,,6103101795d08201eb44f6a6,61036c0406437e30c4945f18,2021-07-29_22h05.52.213,Simcolourproject_2stim_asymm_v5,2020.2.10,MacIntel,60,61025ae37ef11b136ea224fe,,,,,,,,,1847,84.5078125,-43.9296875,1,0,0,response3disk,,5,16.81640625,-0.2734375,1,0,0,rectangle,16.81640625,-0.2734375,1,0,0,16.81640625,-0.2734375,1,0,0,0,16,16,75,1,,,,,,,,
,,,,,,,,,,,,,FF,,,,,,,,0.4516,,,,,,,,,,,,,,,,,,,,,,6103101795d08201eb44f6a6,61036c0406437e30c4945f18,2021-07-29_22h05.52.213,Simcolourproject_2stim_asymm_v5,2020.2.10,MacIntel,60,61025ae37ef11b136ea224fe,,,,,,,,,3536,59.64453125,32.18359375,1,0,0,response1disk,,6,3.45703125,-3.8984375,1,0,0,rectangle,3.45703125,-3.8984375,1,0,0,3.45703125,-3.8984375,1,0,0,0,17,17,112,1,,,,,,,,
,,,,,,,,,,,,,FF,,,,,,,,1.1825,,,,,,,,,,,,,,,,,,,,,,6103101795d08201eb44f6a6,61036c0406437e30c4945f18,2021-07-29_22h05.52.213,Simcolourproject_2stim_asymm_v5,2020.2.10,MacIntel,60,61025ae37ef11b136ea224fe,,,,,,,,,3008,68.23046875,25.7109375,1,0,0,response1disk,,6,2.87890625,-0.25390625,1,0,0,rectangle,2.87890625,-0.25390625,1,0,0,2.87890625,-0.25390625,1,0,0,0,18,18,18,1,,,,,,,,
,,,,,,,,,,,,,FF,,,,,,,,0.4156,,,,,,,,,,,,,,,,,,,,,,6103101795d08201eb44f6a6,61036c0406437e30c4945f18,2021-07-29_22h05.52.213,Simcolourproject_2stim_asymm_v5,2020.2.10,MacIntel,60,61025ae37ef11b136ea224fe,,,,,,,,,2182,97.60546875,41.73828125,1,0,0,response1disk,,6,18.68359375,12.51953125,1,0,0,rectangle,18.68359375,12.51953125,1,0,0,18.68359375,12.51953125,1,0,0,0,19,19,90,1,,,,,,,,
,,,,,,,,,,,,,FF,,,,,,,,0.4154,,,,,,,,,,,,,,,,,,,,,,6103101795d08201eb44f6a6,61036c0406437e30c4945f18,2021-07-29_22h05.52.213,Simcolourproject_2stim_asymm_v5,2020.2.10,MacIntel,60,61025ae37ef11b136ea224fe,,,,,,,,,2211,91.9765625,22.85546875,1,0,0,response1disk,,6,16.40234375,0.703125,1,0,0,rectangle,16.40234375,0.703125,1,0,0,16.40234375,0.703125,1,0,0,0,20,20,109,1,,,,,,,,
,,,,,,,,,,,,,FF,,,,,,,,1.0325,,,,,,,,,,,,,,,,,,,,,,6103101795d08201eb44f6a6,61036c0406437e30c4945f18,2021-07-29_22h05.52.213,Simcolourproject_2stim_asymm_v5,2020.2.10,MacIntel,60,61025ae37ef11b136ea224fe,,,,,,,,,3671,-91.2578125,-62.12109375,1,0,0,response5disk,,2,-3.828125,-9.17578125,1,0,0,rectangle,-3.828125,-9.17578125,1,0,0,-3.828125,-9.17578125,1,0,0,0,21,21,53,1,,,,,,,,
,,,,,,,,,,,,,FF,,,,,,,,1.2819,,,,,,,,,,,,,,,,,,,,,,6103101795d08201eb44f6a6,61036c0406437e30c4945f18,2021-07-29_22h05.52.213,Simcolourproject_2stim_asymm_v5,2020.2.10,MacIntel,60,61025ae37ef11b136ea224fe,,,,,,,,,1671,-20.29296875,-97.61328125,1,0,0,response5disk,,3,7.984375,-4.65234375,1,0,0,rectangle,7.984375,-4.65234375,1,0,0,7.984375,-4.65234375,1,0,0,0,22,22,85,1,,,,,,,,
,,,,,,,,,,,,,FF,,,,,,,,0.6157,,,,,,,,,,,,,,,,,,,,,,6103101795d08201eb44f6a6,61036c0406437e30c4945f18,2021-07-29_22h05.52.213,Simcolourproject_2stim_asymm_v5,2020.2.10,MacIntel,60,61025ae37ef11b136ea224fe,,,,,,,,,4320,60.11328125,19.08984375,1,0,0,response1disk,,6,-6.97265625,-6.94921875,1,0,0,rectangle,-6.97265625,-6.94921875,1,0,0,-6.97265625,-6.94921875,1,0,0,0,23,23,25,1,,,,,,,,
,,,,,,,,,,,,,FF,,,,,,,,0.5159,,,,,,,,,,,,,,,,,,,,,,6103101795d08201eb44f6a6,61036c0406437e30c4945f18,2021-07-29_22h05.52.213,Simcolourproject_2stim_asymm_v5,2020.2.10,MacIntel,60,61025ae37ef11b136ea224fe,,,,,,,,,2976,63.98046875,44.4375,1,0,0,response1disk,,6,4.91796875,6.07421875,1,0,0,rectangle,-75.40234375,-38.10546875,1,0,0,9.31640625,-7.1015625,1,0,0,0,24,24,28,1,,response5disk_3,TRUE,2,2,"[209,178,262,209,255,31,184,291,290,280,169,273,292,33,139,82,167,25,91,41]",2.1659,rectangle
,,,,,,,,,,,,,FF,,,,,,,,0.5657,,,,,,,,,,,,,,,,,,,,,,6103101795d08201eb44f6a6,61036c0406437e30c4945f18,2021-07-29_22h05.52.213,Simcolourproject_2stim_asymm_v5,2020.2.10,MacIntel,60,61025ae37ef11b136ea224fe,,,,,,,,,1548,64.1015625,25.84375,1,0,0,response1disk,,6,10.41015625,-3.7421875,1,0,0,rectangle,10.41015625,-3.7421875,1,0,0,10.41015625,-3.7421875,1,0,0,0,25,25,12,1,,,,,,,,
,,,,,,,,,,,,,FF,,,,,,,,0.6828,,,,,,,,,,,,,,,,,,,,,,6103101795d08201eb44f6a6,61036c0406437e30c4945f18,2021-07-29_22h05.52.213,Simcolourproject_2stim_asymm_v5,2020.2.10,MacIntel,60,61025ae37ef11b136ea224fe,,,,,,,,,4112,77.265625,28.67578125,1,0,0,response1disk,,6,13.15234375,5.12890625,1,0,0,rectangle,13.15234375,5.12890625,1,0,0,13.15234375,5.12890625,1,0,0,0,26,26,88,1,,,,,,,,
,,,,,,,,,,,,,FF,,,,,,,,0.5678,,,,,,,,,,,,,,,,,,,,,,6103101795d08201eb44f6a6,61036c0406437e30c4945f18,2021-07-29_22h05.52.213,Simcolourproject_2stim_asymm_v5,2020.2.10,MacIntel,60,61025ae37ef11b136ea224fe,,,,,,,,,822,69.1328125,42.43359375,1,0,0,response1disk,,6,2.5625,0.43359375,1,0,0,rectangle,2.5625,0.43359375,1,0,0,2.5625,0.43359375,1,0,0,0,27,27,45,1,,,,,,,,
,,,,,,,,,,,,,FF,,,,,,,,1.0152,,,,,,,,,,,,,,,,,,,,,,6103101795d08201eb44f6a6,61036c0406437e30c4945f18,2021-07-29_22h05.52.213,Simcolourproject_2stim_asymm_v5,2020.2.10,MacIntel,60,61025ae37ef11b136ea224fe,,,,,,,,,3809,39.38671875,74.6171875,1,0,0,response1disk,,7,5.22265625,12.6953125,1,0,0,rectangle,5.22265625,12.6953125,1,0,0,5.22265625,12.6953125,1,0,0,0,28,28,115,1,,,,,,,,
,,,,,,,,,,,,,FF,,,,,,,,1.1321,,,,,,,,,,,,,,,,,,,,,,6103101795d08201eb44f6a6,61036c0406437e30c4945f18,2021-07-29_22h05.52.213,Simcolourproject_2stim_asymm_v5,2020.2.10,MacIntel,60,61025ae37ef11b136ea224fe,,,,,,,,,2903,43.296875,-83.6328125,1,0,0,response3disk,,4,3.8828125,-7.87109375,1,0,0,rectangle,3.8828125,-7.87109375,1,0,0,3.8828125,-7.87109375,1,0,0,0,29,29,38,1,,,,,,,,
,,,,,,,,,,,,,FF,,,,,,,,0.8163,,,,,,,,,,,,,,,,,,,,,,6103101795d08201eb44f6a6,61036c0406437e30c4945f18,2021-07-29_22h05.52.213,Simcolourproject_2stim_asymm_v5,2020.2.10,MacIntel,60,61025ae37ef11b136ea224fe,,,,,,,,,3351,66.3359375,-42.140625,1,0,0,response3disk,,5,8.4140625,-14.98828125,1,0,0,rectangle,-40.94921875,-102.203125,1,0,0,2.6953125,-2.34765625,1,0,0,0,30,30,14,1,,response5disk_3,TRUE,3,3,"[209,178,262,209,255,31,184,291,290,280,169,273,292,33,139,82,167,25,91,41]",1.8332,rectangle
,,,,,,,,,,,,,FF,,,,,,,,0.7658,,,,,,,,,,,,,,,,,,,,,,6103101795d08201eb44f6a6,61036c0406437e30c4945f18,2021-07-29_22h05.52.213,Simcolourproject_2stim_asymm_v5,2020.2.10,MacIntel,60,61025ae37ef11b136ea224fe,,,,,,,,,1087,61.89453125,31.68359375,1,0,0,response1disk,,6,-0.16796875,-1.19140625,1,0,0,rectangle,-0.16796875,-1.19140625,1,0,0,-0.16796875,-1.19140625,1,0,0,0,31,31,33,1,,,,,,,,
,,,,,,,,,,,,,FF,,,,,,,,1.0329,,,,,,,,,,,,,,,,,,,,,,6103101795d08201eb44f6a6,61036c0406437e30c4945f18,2021-07-29_22h05.52.213,Simcolourproject_2stim_asymm_v5,2020.2.10,MacIntel,60,61025ae37ef11b136ea224fe,,,,,,,,,3896,70.32421875,-91.78125,1,0,0,response3disk,,4,0.41796875,-4.6796875,1,0,0,rectangle,39.5546875,-99.08203125,1,0,0,-4.1953125,-0.78515625,1,0,0,0,32,32,76,1,,response3disk_3,TRUE,4,4,"[209,178,262,209,255,31,184,291,290,280,169,273,292,33,139,82,167,25,91,41]",1.5495,rectangle
,,,,,,,,,,,,,FF,,,,,,,,0.7001,,,,,,,,,,,,,,,,,,,,,,6103101795d08201eb44f6a6,61036c0406437e30c4945f18,2021-07-29_22h05.52.213,Simcolourproject_2stim_asymm_v5,2020.2.10,MacIntel,60,61025ae37ef11b136ea224fe,,,,,,,,,290,51.3828125,29.37109375,1,0,0,response1disk,,6,-8.2890625,0.90625,1,0,0,rectangle,-8.2890625,0.90625,1,0,0,-8.2890625,0.90625,1,0,0,0,33,33,24,1,,,,,,,,
,,,,,,,,,,,,,FF,,,,,,,,1.0165,,,,,,,,,,,,,,,,,,,,,,6103101795d08201eb44f6a6,61036c0406437e30c4945f18,2021-07-29_22h05.52.213,Simcolourproject_2stim_asymm_v5,2020.2.10,MacIntel,60,61025ae37ef11b136ea224fe,,,,,,,,,1192,62.96484375,-35.015625,1,0,0,response3disk,,5,-2.31640625,9.82421875,1,0,0,rectangle,-2.31640625,9.82421875,1,0,0,-2.31640625,9.82421875,1,0,0,0,34,34,129,1,,,,,,,,
,,,,,,,,,,,,,FF,,,,,,,,0.5674,,,,,,,,,,,,,,,,,,,,,,6103101795d08201eb44f6a6,61036c0406437e30c4945f18,2021-07-29_22h05.52.213,Simcolourproject_2stim_asymm_v5,2020.2.10,MacIntel,60,61025ae37ef11b136ea224fe,,,,,,,,,2402,49.62890625,-39.03515625,1,0,0,response3disk,,5,-0.53125,-12.3359375,1,0,0,rectangle,-0.53125,-12.3359375,1,0,0,-0.53125,-12.3359375,1,0,0,0,35,35,50,1,,,,,,,,
,,,,,,,,,,,,,FF,,,,,,,,1.1819,,,,,,,,,,,,,,,,,,,,,,6103101795d08201eb44f6a6,61036c0406437e30c4945f18,2021-07-29_22h05.52.213,Simcolourproject_2stim_asymm_v5,2020.2.10,MacIntel,60,61025ae37ef11b136ea224fe,,,,,,,,,1994,49.0390625,-99.72265625,1,0,0,response3disk,,4,-1.26171875,7.30078125,1,0,0,rectangle,-1.26171875,7.30078125,1,0,0,-1.26171875,7.30078125,1,0,0,0,36,36,133,1,,,,,,,,
,,,,,,,,,,,,,FF,,,,,,,,0.1664,,,,,,,,,,,,,,,,,,,,,,6103101795d08201eb44f6a6,61036c0406437e30c4945f18,2021-07-29_22h05.52.213,Simcolourproject_2stim_asymm_v5,2020.2.10,MacIntel,60,61025ae37ef11b136ea224fe,,,,,,,,,3480,68.82421875,19.734375,1,0,0,response1disk,,6,8.37890625,4.1796875,1,0,0,rectangle,8.37890625,4.1796875,1,0,0,8.37890625,4.1796875,1,0,0,0,37,37,125,1,,,,,,,,
,,,,,,,,,,,,,FF,,,,,,,,0.7,,,,,,,,,,,,,,,,,,,,,,6103101795d08201eb44f6a6,61036c0406437e30c4945f18,2021-07-29_22h05.52.213,Simcolourproject_2stim_asymm_v5,2020.2.10,MacIntel,60,61025ae37ef11b136ea224fe,,,,,,,,,3791,87.01171875,25.04296875,1,0,0,response1disk,,6,22.796875,1.828125,1,0,0,rectangle,22.796875,1.828125,1,0,0,22.796875,1.828125,1,0,0,0,38,38,19,1,,,,,,,,
,,,,,,,,,,,,,FF,,,,,,,,0.5992,,,,,,,,,,,,,,,,,,,,,,6103101795d08201eb44f6a6,61036c0406437e30c4945f18,2021-07-29_22h05.52.213,Simcolourproject_2stim_asymm_v5,2020.2.10,MacIntel,60,61025ae37ef11b136ea224fe,,,,,,,,,833,85.30078125,47.91796875,1,0,0,response1disk,,6,-7.609375,2.265625,1,0,0,rectangle,-7.609375,2.265625,1,0,0,-7.609375,2.265625,1,0,0,0,39,39,83,1,,,,,,,,
,,,,,,,,,,,,,FF,,,,,,,,0.4338,,,,,,,,,,,,,,,,,,,,,,6103101795d08201eb44f6a6,61036c0406437e30c4945f18,2021-07-29_22h05.52.213,Simcolourproject_2stim_asymm_v5,2020.2.10,MacIntel,60,61025ae37ef11b136ea224fe,,,,,,,,,3059,65.3203125,25.7265625,1,0,0,response1disk,,6,18.51171875,10.078125,1,0,0,rectangle,84.296875,-65.58984375,1,0,0,6.72265625,0.91015625,1,0,0,0,40,40,103,1,,response3disk_3,TRUE,5,5,"[209,178,262,209,255,31,184,291,290,280,169,273,292,33,139,82,167,25,91,41]",1.4159,rectangle
,,,,,,,,,,,,,FF,,,,,,,,0.5343,,,,,,,,,,,,,,,,,,,,,,6103101795d08201eb44f6a6,61036c0406437e30c4945f18,2021-07-29_22h05.52.213,Simcolourproject_2stim_asymm_v5,2020.2.10,MacIntel,60,61025ae37ef11b136ea224fe,,,,,,,,,481,72.2109375,26.53125,1,0,0,response1disk,,6,-14.51953125,-0.3046875,1,0,0,rectangle,-14.51953125,-0.3046875,1,0,0,-14.51953125,-0.3046875,1,0,0,0,41,41,137,1,,,,,,,,
,,,,,,,,,,,,,FF,,,,,,,,1.7669,,,,,,,,,,,,,,,,,,,,,,6103101795d08201eb44f6a6,61036c0406437e30c4945f18,2021-07-29_22h05.52.213,Simcolourproject_2stim_asymm_v5,2020.2.10,MacIntel,60,61025ae37ef11b136ea224fe,,,,,,,,,3146,-93.296875,35.390625,1,0,0,response7disk,,1,2.77734375,11.625,1,0,0,rectangle,2.77734375,11.625,1,0,0,2.77734375,11.625,1,0,0,0,42,42,51,1,,,,,,,,
,,,,,,,,,,,,,FF,,,,,,,,0.7498,,,,,,,,,,,,,,,,,,,,,,6103101795d08201eb44f6a6,61036c0406437e30c4945f18,2021-07-29_22h05.52.213,Simcolourproject_2stim_asymm_v5,2020.2.10,MacIntel,60,61025ae37ef11b136ea224fe,,,,,,,,,677,54.90625,47.76171875,1,0,0,response1disk,,6,-12.03515625,-0.1328125,1,0,0,rectangle,-12.03515625,-0.1328125,1,0,0,-12.03515625,-0.1328125,1,0,0,0,43,43,79,1,,,,,,,,
,,,,,,,,,,,,,FF,,,,,,,,0.6004,,,,,,,,,,,,,,,,,,,,,,6103101795d08201eb44f6a6,61036c0406437e30c4945f18,2021-07-29_22h05.52.213,Simcolourproject_2stim_asymm_v5,2020.2.10,MacIntel,60,61025ae37ef11b136ea224fe,,,,,,,,,178,52.24609375,27,1,0,0,response1disk,,6,-8.05078125,3.79296875,1,0,0,rectangle,-8.05078125,3.79296875,1,0,0,-8.05078125,3.79296875,1,0,0,0,44,44,126,1,,,,,,,,
,,,,,,,,,,,,,FF,,,,,,,,0.4158,,,,,,,,,,,,,,,,,,,,,,6103101795d08201eb44f6a6,61036c0406437e30c4945f18,2021-07-29_22h05.52.213,Simcolourproject_2stim_asymm_v5,2020.2.10,MacIntel,60,61025ae37ef11b136ea224fe,,,,,,,,,1141,53.50390625,35.203125,1,0,0,response1disk,,6,11.65625,-4.03125,1,0,0,rectangle,11.65625,-4.03125,1,0,0,11.65625,-4.03125,1,0,0,0,45,45,121,1,,,,,,,,
,,,,,,,,,,,,,FF,,,,,,,,0.5822,,,,,,,,,,,,,,,,,,,,,,6103101795d08201eb44f6a6,61036c0406437e30c4945f18,2021-07-29_22h05.52.213,Simcolourproject_2stim_asymm_v5,2020.2.10,MacIntel,60,61025ae37ef11b136ea224fe,,,,,,,,,1762,54.2890625,43.203125,1,0,0,response1disk,,6,2.33203125,8.1171875,1,0,0,rectangle,2.33203125,8.1171875,1,0,0,2.33203125,8.1171875,1,0,0,0,46,46,117,1,,,,,,,,
,,,,,,,,,,,,,FF,,,,,,,,0.7,,,,,,,,,,,,,,,,,,,,,,6103101795d08201eb44f6a6,61036c0406437e30c4945f18,2021-07-29_22h05.52.213,Simcolourproject_2stim_asymm_v5,2020.2.10,MacIntel,60,61025ae37ef11b136ea224fe,,,,,,,,,2743,53.015625,-29.9296875,1,0,0,response3disk,,5,0.7578125,-0.1328125,1,0,0,rectangle,0.7578125,-0.1328125,1,0,0,0.7578125,-0.1328125,1,0,0,0,47,47,60,1,,,,,,,,
,,,,,,,,,,,,,FF,,,,,,,,0.6665,,,,,,,,,,,,,,,,,,,,,,6103101795d08201eb44f6a6,61036c0406437e30c4945f18,2021-07-29_22h05.52.213,Simcolourproject_2stim_asymm_v5,2020.2.10,MacIntel,60,61025ae37ef11b136ea224fe,,,,,,,,,4114,62.484375,-40.03125,1,0,0,response3disk,,5,13.203125,-11.9609375,1,0,0,rectangle,13.203125,-11.9609375,1,0,0,13.203125,-11.9609375,1,0,0,0,48,48,78,1,,,,,,,,
,,,,,,,,,,,,,FF,,,,,,,,0.4827,,,,,,,,,,,,,,,,,,,,,,6103101795d08201eb44f6a6,61036c0406437e30c4945f18,2021-07-29_22h05.52.213,Simcolourproject_2stim_asymm_v5,2020.2.10,MacIntel,60,61025ae37ef11b136ea224fe,,,,,,,,,2045,74.66796875,28.9921875,1,0,0,response1disk,,6,0.23046875,14.98828125,1,0,0,rectangle,0.23046875,14.98828125,1,0,0,0.23046875,14.98828125,1,0,0,0,49,49,122,1,,,,,,,,
,,,,,,,,,,,,,FF,,,,,,,,0.4832,,,,,,,,,,,,,,,,,,,,,,6103101795d08201eb44f6a6,61036c0406437e30c4945f18,2021-07-29_22h05.52.213,Simcolourproject_2stim_asymm_v5,2020.2.10,MacIntel,60,61025ae37ef11b136ea224fe,,,,,,,,,191,60.8671875,32.77734375,1,0,0,response1disk,,6,-4.96875,4.47265625,1,0,0,rectangle,-4.96875,4.47265625,1,0,0,-4.96875,4.47265625,1,0,0,0,50,50,0,1,,,,,,,,
,,,,,,,,,,,,,FF,,,,,,,,1.1177,,,,,,,,,,,,,,,,,,,,,,6103101795d08201eb44f6a6,61036c0406437e30c4945f18,2021-07-29_22h05.52.213,Simcolourproject_2stim_asymm_v5,2020.2.10,MacIntel,60,61025ae37ef11b136ea224fe,,,,,,,,,520,53.453125,-42.74609375,1,0,0,response3disk,,5,-4.5703125,-7.76171875,1,0,0,rectangle,-4.5703125,-7.76171875,1,0,0,-4.5703125,-7.76171875,1,0,0,0,51,51,91,1,,,,,,,,
,,,,,,,,,,,,,FF,,,,,,,,0.6158,,,,,,,,,,,,,,,,,,,,,,6103101795d08201eb44f6a6,61036c0406437e30c4945f18,2021-07-29_22h05.52.213,Simcolourproject_2stim_asymm_v5,2020.2.10,MacIntel,60,61025ae37ef11b136ea224fe,,,,,,,,,1430,45.58203125,-28.85546875,1,0,0,response3disk,,5,10.09375,-12.0234375,1,0,0,rectangle,10.09375,-12.0234375,1,0,0,10.09375,-12.0234375,1,0,0,0,52,52,36,1,,,,,,,,
,,,,,,,,,,,,,FF,,,,,,,,0.6165,,,,,,,,,,,,,,,,,,,,,,6103101795d08201eb44f6a6,61036c0406437e30c4945f18,2021-07-29_22h05.52.213,Simcolourproject_2stim_asymm_v5,2020.2.10,MacIntel,60,61025ae37ef11b136ea224fe,,,,,,,,,2638,61.33984375,28.37109375,1,0,0,response1disk,,6,24.44140625,8.3125,1,0,0,rectangle,24.44140625,8.3125,1,0,0,24.44140625,8.3125,1,0,0,0,53,53,145,1,,,,,,,,
,,,,,,,,,,,,,FF,,,,,,,,0.5346,,,,,,,,,,,,,,,,,,,,,,6103101795d08201eb44f6a6,61036c0406437e30c4945f18,2021-07-29_22h05.52.213,Simcolourproject_2stim_asymm_v5,2020.2.10,MacIntel,60,61025ae37ef11b136ea224fe,,,,,,,,,962,80.53125,33.0234375,1,0,0,response1disk,,6,0.18359375,3.9765625,1,0,0,rectangle,0.18359375,3.9765625,1,0,0,0.18359375,3.9765625,1,0,0,0,54,54,92,1,,,,,,,,
,,,,,,,,,,,,,FF,,,,,,,,0.5324,,,,,,,,,,,,,,,,,,,,,,6103101795d08201eb44f6a6,61036c0406437e30c4945f18,2021-07-29_22h05.52.213,Simcolourproject_2stim_asymm_v5,2020.2.10,MacIntel,60,61025ae37ef11b136ea224fe,,,,,,,,,1925,62.58203125,35.5390625,1,0,0,response1disk,,6,-0.97265625,-0.97265625,1,0,0,rectangle,-0.97265625,-0.97265625,1,0,0,-0.97265625,-0.97265625,1,0,0,0,55,55,73,1,,,,,,,,
,,,,,,,,,,,,,FF,,,,,,,,0.5497,,,,,,,,,,,,,,,,,,,,,,6103101795d08201eb44f6a6,61036c0406437e30c4945f18,2021-07-29_22h05.52.213,Simcolourproject_2stim_asymm_v5,2020.2.10,MacIntel,60,61025ae37ef11b136ea224fe,,,,,,,,,2699,77.76953125,25.5625,1,0,0,response1disk,,6,4.95703125,0.69921875,1,0,0,rectangle,4.95703125,0.69921875,1,0,0,4.95703125,0.69921875,1,0,0,0,56,56,17,1,,,,,,,,
,,,,,,,,,,,,,FF,,,,,,,,0.5335,,,,,,,,,,,,,,,,,,,,,,6103101795d08201eb44f6a6,61036c0406437e30c4945f18,2021-07-29_22h05.52.213,Simcolourproject_2stim_asymm_v5,2020.2.10,MacIntel,60,61025ae37ef11b136ea224fe,,,,,,,,,607,83.890625,29.17578125,1,0,0,response1disk,,6,11.9453125,3.35546875,1,0,0,rectangle,11.9453125,3.35546875,1,0,0,11.9453125,3.35546875,1,0,0,0,57,57,144,1,,,,,,,,
,,,,,,,,,,,,,FF,,,,,,,,1.0665,,,,,,,,,,,,,,,,,,,,,,6103101795d08201eb44f6a6,61036c0406437e30c4945f18,2021-07-29_22h05.52.213,Simcolourproject_2stim_asymm_v5,2020.2.10,MacIntel,60,61025ae37ef11b136ea224fe,,,,,,,,,4327,-72.0703125,-44.31640625,1,0,0,response5disk,,2,-2.51953125,-12.43359375,1,0,0,rectangle,-2.51953125,-12.43359375,1,0,0,-2.51953125,-12.43359375,1,0,0,0,58,58,108,1,,,,,,,,
,,,,,,,,,,,,,FF,,,,,,,,1.1993,,,,,,,,,,,,,,,,,,,,,,6103101795d08201eb44f6a6,61036c0406437e30c4945f18,2021-07-29_22h05.52.213,Simcolourproject_2stim_asymm_v5,2020.2.10,MacIntel,60,61025ae37ef11b136ea224fe,,,,,,,,,3119,73.44140625,28.9453125,1,0,0,response1disk,,6,12.92578125,2.6171875,1,0,0,rectangle,12.92578125,2.6171875,1,0,0,12.92578125,2.6171875,1,0,0,0,59,59,148,1,,,,,,,,
,,,,,,,,,,,,,FF,,,,,,,,0.6158,,,,,,,,,,,,,,,,,,,,,,6103101795d08201eb44f6a6,61036c0406437e30c4945f18,2021-07-29_22h05.52.213,Simcolourproject_2stim_asymm_v5,2020.2.10,MacIntel,60,61025ae37ef11b136ea224fe,,,,,,,,,415,71.87890625,28.15234375,1,0,0,response1disk,,6,0.625,-7.359375,1,0,0,rectangle,0.625,-7.359375,1,0,0,0.625,-7.359375,1,0,0,0,60,60,47,1,,,,,,,,
,,,,,,,,,,,,,FF,,,,,,,,0.5166,,,,,,,,,,,,,,,,,,,,,,6103101795d08201eb44f6a6,61036c0406437e30c4945f18,2021-07-29_22h05.52.213,Simcolourproject_2stim_asymm_v5,2020.2.10,MacIntel,60,61025ae37ef11b136ea224fe,,,,,,,,,852,57.12109375,-24.79296875,1,0,0,response3disk,,5,7.7890625,-11.59765625,1,0,0,rectangle,7.7890625,-11.59765625,1,0,0,7.7890625,-11.59765625,1,0,0,0,61,61,4,1,,,,,,,,
,,,,,,,,,,,,,FF,,,,,,,,0.5152,,,,,,,,,,,,,,,,,,,,,,6103101795d08201eb44f6a6,61036c0406437e30c4945f18,2021-07-29_22h05.52.213,Simcolourproject_2stim_asymm_v5,2020.2.10,MacIntel,60,61025ae37ef11b136ea224fe,,,,,,,,,846,79.07421875,-26.45703125,1,0,0,response3disk,,5,17.35546875,-10.87890625,1,0,0,rectangle,17.35546875,-10.87890625,1,0,0,17.35546875,-10.87890625,1,0,0,0,62,62,43,1,,,,,,,,
,,,,,,,,,,,,,FF,,,,,,,,0.6505,,,,,,,,,,,,,,,,,,,,,,6103101795d08201eb44f6a6,61036c0406437e30c4945f18,2021-07-29_22h05.52.213,Simcolourproject_2stim_asymm_v5,2020.2.10,MacIntel,60,61025ae37ef11b136ea224fe,,,,,,,,,787,87.640625,-27.86328125,1,0,0,response3disk,,5,-26.55078125,11.64453125,1,0,0,rectangle,-26.55078125,11.64453125,1,0,0,-26.55078125,11.64453125,1,0,0,0,63,63,80,1,,,,,,,,
,,,,,,,,,,,,,FF,,,,,,,,3.8484,,,,,,,,,,,,,,,,,,,,,,6103101795d08201eb44f6a6,61036c0406437e30c4945f18,2021-07-29_22h05.52.213,Simcolourproject_2stim_asymm_v5,2020.2.10,MacIntel,60,61025ae37ef11b136ea224fe,,,,,,,,,126,96.796875,-77.76953125,1,0,0,response3disk,,5,-13.4609375,-6.8515625,1,0,0,rectangle,-13.4609375,-6.8515625,1,0,0,-13.4609375,-6.8515625,1,0,0,0,64,64,63,1,,,,,,,,
,,,,,,,,,,,,,FF,,,,,,,,0.599,,,,,,,,,,,,,,,,,,,,,,6103101795d08201eb44f6a6,61036c0406437e30c4945f18,2021-07-29_22h05.52.213,Simcolourproject_2stim_asymm_v5,2020.2.10,MacIntel,60,61025ae37ef11b136ea224fe,,,,,,,,,1191,75.05078125,-28.109375,1,0,0,response3disk,,5,10.5390625,-0.4140625,1,0,0,rectangle,10.5390625,-0.4140625,1,0,0,10.5390625,-0.4140625,1,0,0,0,65,65,71,1,,,,,,,,
,,,,,,,,,,,,,FF,,,,,,,,0.8839,,,,,,,,,,,,,,,,,,,,,,6103101795d08201eb44f6a6,61036c0406437e30c4945f18,2021-07-29_22h05.52.213,Simcolourproject_2stim_asymm_v5,2020.2.10,MacIntel,60,61025ae37ef11b136ea224fe,,,,,,,,,3089,-57.7734375,-62.546875,1,0,0,response5disk,,3,-12.65625,-1.96484375,1,0,0,rectangle,-12.65625,-1.96484375,1,0,0,-12.65625,-1.96484375,1,0,0,0,66,66,48,1,,,,,,,,
,,,,,,,,,,,,,FF,,,,,,,,0.449,,,,,,,,,,,,,,,,,,,,,,6103101795d08201eb44f6a6,61036c0406437e30c4945f18,2021-07-29_22h05.52.213,Simcolourproject_2stim_asymm_v5,2020.2.10,MacIntel,60,61025ae37ef11b136ea224fe,,,,,,,,,360,74.4140625,29.63671875,1,0,0,response1disk,,6,14.05859375,-6.08203125,1,0,0,rectangle,14.05859375,-6.08203125,1,0,0,14.05859375,-6.08203125,1,0,0,0,67,67,140,1,,,,,,,,
,,,,,,,,,,,,,FF,,,,,,,,0.5997,,,,,,,,,,,,,,,,,,,,,,6103101795d08201eb44f6a6,61036c0406437e30c4945f18,2021-07-29_22h05.52.213,Simcolourproject_2stim_asymm_v5,2020.2.10,MacIntel,60,61025ae37ef11b136ea224fe,,,,,,,,,314,85.9921875,27.34375,1,0,0,response1disk,,6,4.40234375,-11.59765625,1,0,0,rectangle,4.40234375,-11.59765625,1,0,0,4.40234375,-11.59765625,1,0,0,0,68,68,68,1,,,,,,,,
,,,,,,,,,,,,,FF,,,,,,,,0.567,,,,,,,,,,,,,,,,,,,,,,6103101795d08201eb44f6a6,61036c0406437e30c4945f18,2021-07-29_22h05.52.213,Simcolourproject_2stim_asymm_v5,2020.2.10,MacIntel,60,61025ae37ef11b136ea224fe,,,,,,,,,1184,61.35546875,-29.6015625,1,0,0,response3disk,,5,11.90625,-9.8046875,1,0,0,rectangle,11.90625,-9.8046875,1,0,0,11.90625,-9.8046875,1,0,0,0,69,69,142,1,,,,,,,,
,,,,,,,,,,,,,FF,,,,,,,,0.8824,,,,,,,,,,,,,,,,,,,,,,6103101795d08201eb44f6a6,61036c0406437e30c4945f18,2021-07-29_22h05.52.213,Simcolourproject_2stim_asymm_v5,2020.2.10,MacIntel,60,61025ae37ef11b136ea224fe,,,,,,,,,3412,88.00390625,-45.765625,1,0,0,response3disk,,5,21.37109375,-11.08984375,1,0,0,rectangle,21.37109375,-11.08984375,1,0,0,21.37109375,-11.08984375,1,0,0,0,70,70,21,1,,,,,,,,
,,,,,,,,,,,,,FF,,,,,,,,0.6502,,,,,,,,,,,,,,,,,,,,,,6103101795d08201eb44f6a6,61036c0406437e30c4945f18,2021-07-29_22h05.52.213,Simcolourproject_2stim_asymm_v5,2020.2.10,MacIntel,60,61025ae37ef11b136ea224fe,,,,,,,,,3490,77.2890625,-34.41796875,1,0,0,response3disk,,5,3.765625,-15.7890625,1,0,0,rectangle,3.765625,-15.7890625,1,0,0,3.765625,-15.7890625,1,0,0,0,71,71,132,1,,,,,,,,
,,,,,,,,,,,,,FF,,,,,,,,1.0826,,,,,,,,,,,,,,,,,,,,,,6103101795d08201eb44f6a6,61036c0406437e30c4945f18,2021-07-29_22h05.52.213,Simcolourproject_2stim_asymm_v5,2020.2.10,MacIntel,60,61025ae37ef11b136ea224fe,,,,,,,,,3810,-35.60546875,-83.7734375,1,0,0,response5disk,,3,-8.77734375,-12.34375,1,0,0,rectangle,-8.77734375,-12.34375,1,0,0,-8.77734375,-12.34375,1,0,0,0,72,72,99,1,,,,,,,,
,,,,,,,,,,,,,FF,,,,,,,,0.5667,,,,,,,,,,,,,,,,,,,,,,6103101795d08201eb44f6a6,61036c0406437e30c4945f18,2021-07-29_22h05.52.213,Simcolourproject_2stim_asymm_v5,2020.2.10,MacIntel,60,61025ae37ef11b136ea224fe,,,,,,,,,3031,-54.78125,-75.33203125,1,0,0,response5disk,,3,-7.49609375,1.984375,1,0,0,rectangle,-7.49609375,1.984375,1,0,0,-7.49609375,1.984375,1,0,0,0,73,73,62,1,,,,,,,,
,,,,,,,,,,,,,FF,,,,,,,,0.5831,,,,,,,,,,,,,,,,,,,,,,6103101795d08201eb44f6a6,61036c0406437e30c4945f18,2021-07-29_22h05.52.213,Simcolourproject_2stim_asymm_v5,2020.2.10,MacIntel,60,61025ae37ef11b136ea224fe,,,,,,,,,2991,52.68359375,36.515625,1,0,0,response1disk,,6,-12.02734375,0.58984375,1,0,0,rectangle,-12.02734375,0.58984375,1,0,0,-12.02734375,0.58984375,1,0,0,0,74,74,155,1,,,,,,,,
,,,,,,,,,,,,,FF,,,,,,,,0.8815,,,,,,,,,,,,,,,,,,,,,,6103101795d08201eb44f6a6,61036c0406437e30c4945f18,2021-07-29_22h05.52.213,Simcolourproject_2stim_asymm_v5,2020.2.10,MacIntel,60,61025ae37ef11b136ea224fe,,,,,,,,,2605,58.47265625,-94.30859375,1,0,0,response3disk,,4,16.23046875,-9.484375,1,0,0,rectangle,16.23046875,-9.484375,1,0,0,16.23046875,-9.484375,1,0,0,0,75,75,95,1,,,,,,,,
,,,,,,,,,,,,,FF,,,,,,,,1.1993,,,,,,,,,,,,,,,,,,,,,,6103101795d08201eb44f6a6,61036c0406437e30c4945f18,2021-07-29_22h05.52.213,Simcolourproject_2stim_asymm_v5,2020.2.10,MacIntel,60,61025ae37ef11b136ea224fe,,,,,,,,,3662,36.75390625,-64.5703125,1,0,0,response3disk,,4,3.75390625,-9.1015625,1,0,0,rectangle,3.75390625,-9.1015625,1,0,0,3.75390625,-9.1015625,1,0,0,0,76,76,23,1,,,,,,,,
,,,,,,,,,,,,,FF,,,,,,,,0.5837,,,,,,,,,,,,,,,,,,,,,,6103101795d08201eb44f6a6,61036c0406437e30c4945f18,2021-07-29_22h05.52.213,Simcolourproject_2stim_asymm_v5,2020.2.10,MacIntel,60,61025ae37ef11b136ea224fe,,,,,,,,,2586,72.71484375,27.90234375,1,0,0,response1disk,,6,22.578125,2.671875,1,0,0,rectangle,22.578125,2.671875,1,0,0,22.578125,2.671875,1,0,0,0,77,77,59,1,,,,,,,,
,,,,,,,,,,,,,FF,,,,,,,,0.4675,,,,,,,,,,,,,,,,,,,,,,6103101795d08201eb44f6a6,61036c0406437e30c4945f18,2021-07-29_22h05.52.213,Simcolourproject_2stim_asymm_v5,2020.2.10,MacIntel,60,61025ae37ef11b136ea224fe,,,,,,,,,3883,77.84765625,41.6953125,1,0,0,response1disk,,6,-14.1328125,-9.99609375,1,0,0,rectangle,-14.1328125,-9.99609375,1,0,0,-14.1328125,-9.99609375,1,0,0,0,78,78,31,1,,,,,,,,
,,,,,,,,,,,,,FF,,,,,,,,0.9153,,,,,,,,,,,,,,,,,,,,,,6103101795d08201eb44f6a6,61036c0406437e30c4945f18,2021-07-29_22h05.52.213,Simcolourproject_2stim_asymm_v5,2020.2.10,MacIntel,60,61025ae37ef11b136ea224fe,,,,,,,,,3305,42.5390625,-73.72265625,1,0,0,response3disk,,4,10.39453125,-8.83984375,1,0,0,rectangle,10.39453125,-8.83984375,1,0,0,10.39453125,-8.83984375,1,0,0,0,79,79,101,1,,,,,,,,
,,,,,,,,,,,,,FF,,,,,,,,1.6333,,,,,,,,,,,,,,,,,,,,,,6103101795d08201eb44f6a6,61036c0406437e30c4945f18,2021-07-29_22h05.52.213,Simcolourproject_2stim_asymm_v5,2020.2.10,MacIntel,60,61025ae37ef11b136ea224fe,,,,,,,,,1179,47.3046875,-70.08984375,1,0,0,response3disk,,4,0.05078125,0.125,1,0,0,rectangle,0.05078125,0.125,1,0,0,0.05078125,0.125,1,0,0,0,80,80,32,1,,,,,,,,
,,,,,,,,,,,,,FF,,,,,,,,0.5161,,,,,,,,,,,,,,,,,,,,,,6103101795d08201eb44f6a6,61036c0406437e30c4945f18,2021-07-29_22h05.52.213,Simcolourproject_2stim_asymm_v5,2020.2.10,MacIntel,60,61025ae37ef11b136ea224fe,,,,,,,,,1839,81.96484375,39.3515625,1,0,0,response1disk,,6,18.9453125,12.3125,1,0,0,rectangle,-33.37109375,70.453125,1,0,0,-5.484375,-2.87109375,1,0,0,0,81,81,86,1,,response7disk_3,TRUE,0,0,"[209,178,262,209,255,31,184,291,290,280,169,273,292,33,139,82,167,25,91,41]",1.7503,rectangle
,,,,,,,,,,,,,FF,,,,,,,,2.716,,,,,,,,,,,,,,,,,,,,,,6103101795d08201eb44f6a6,61036c0406437e30c4945f18,2021-07-29_22h05.52.213,Simcolourproject_2stim_asymm_v5,2020.2.10,MacIntel,60,61025ae37ef11b136ea224fe,,,,,,,,,875,37.25390625,-44.6953125,1,0,0,response3disk,,4,3.26953125,-1.06640625,1,0,0,rectangle,3.26953125,-1.06640625,1,0,0,3.26953125,-1.06640625,1,0,0,0,82,82,40,1,,,,,,,,
,,,,,,,,,,,,,FF,,,,,,,,0.7985,,,,,,,,,,,,,,,,,,,,,,6103101795d08201eb44f6a6,61036c0406437e30c4945f18,2021-07-29_22h05.52.213,Simcolourproject_2stim_asymm_v5,2020.2.10,MacIntel,60,61025ae37ef11b136ea224fe,,,,,,,,,3754,32.9296875,-108.0664063,1,0,0,response3disk,,4,0.6171875,-6.75,1,0,0,rectangle,0.6171875,-6.75,1,0,0,0.6171875,-6.75,1,0,0,0,83,83,84,1,,,,,,,,
,,,,,,,,,,,,,FF,,,,,,,,0.5651,,,,,,,,,,,,,,,,,,,,,,6103101795d08201eb44f6a6,61036c0406437e30c4945f18,2021-07-29_22h05.52.213,Simcolourproject_2stim_asymm_v5,2020.2.10,MacIntel,60,61025ae37ef11b136ea224fe,,,,,,,,,2854,66.15234375,-74.765625,1,0,0,response3disk,,4,25.25,-10.046875,1,0,0,rectangle,25.25,-10.046875,1,0,0,25.25,-10.046875,1,0,0,0,84,84,2,1,,,,,,,,
,,,,,,,,,,,,,FF,,,,,,,,0.4993,,,,,,,,,,,,,,,,,,,,,,6103101795d08201eb44f6a6,61036c0406437e30c4945f18,2021-07-29_22h05.52.213,Simcolourproject_2stim_asymm_v5,2020.2.10,MacIntel,60,61025ae37ef11b136ea224fe,,,,,,,,,2144,58.8671875,23.921875,1,0,0,response1disk,,6,4.62109375,1.61328125,1,0,0,rectangle,4.62109375,1.61328125,1,0,0,4.62109375,1.61328125,1,0,0,0,85,85,127,1,,,,,,,,
,,,,,,,,,,,,,FF,,,,,,,,0.8175,,,,,,,,,,,,,,,,,,,,,,6103101795d08201eb44f6a6,61036c0406437e30c4945f18,2021-07-29_22h05.52.213,Simcolourproject_2stim_asymm_v5,2020.2.10,MacIntel,60,61025ae37ef11b136ea224fe,,,,,,,,,2954,-53.20703125,-108.296875,1,0,0,response5disk,,3,1.7109375,-4.60546875,1,0,0,rectangle,1.7109375,-4.60546875,1,0,0,1.7109375,-4.60546875,1,0,0,0,86,86,34,1,,,,,,,,
,,,,,,,,,,,,,FF,,,,,,,,1.0486,,,,,,,,,,,,,,,,,,,,,,6103101795d08201eb44f6a6,61036c0406437e30c4945f18,2021-07-29_22h05.52.213,Simcolourproject_2stim_asymm_v5,2020.2.10,MacIntel,60,61025ae37ef11b136ea224fe,,,,,,,,,748,44.2578125,-95.96484375,1,0,0,response3disk,,4,-7.87109375,2.26171875,1,0,0,rectangle,-7.87109375,2.26171875,1,0,0,-7.87109375,2.26171875,1,0,0,0,87,87,49,1,,,,,,,,
,,,,,,,,,,,,,FF,,,,,,,,0.3998,,,,,,,,,,,,,,,,,,,,,,6103101795d08201eb44f6a6,61036c0406437e30c4945f18,2021-07-29_22h05.52.213,Simcolourproject_2stim_asymm_v5,2020.2.10,MacIntel,60,61025ae37ef11b136ea224fe,,,,,,,,,1510,105.6132813,-49.23046875,1,0,0,response3disk,,5,24.41015625,-6.8359375,1,0,0,rectangle,24.41015625,-6.8359375,1,0,0,24.41015625,-6.8359375,1,0,0,0,88,88,143,1,,,,,,,,
,,,,,,,,,,,,,FF,,,,,,,,0.3841,,,,,,,,,,,,,,,,,,,,,,6103101795d08201eb44f6a6,61036c0406437e30c4945f18,2021-07-29_22h05.52.213,Simcolourproject_2stim_asymm_v5,2020.2.10,MacIntel,60,61025ae37ef11b136ea224fe,,,,,,,,,3449,62.71875,36.34375,1,0,0,response1disk,,6,12.78515625,-4.80078125,1,0,0,rectangle,12.78515625,-4.80078125,1,0,0,12.78515625,-4.80078125,1,0,0,0,89,89,102,1,,,,,,,,
,,,,,,,,,,,,,FF,,,,,,,,0.8492,,,,,,,,,,,,,,,,,,,,,,6103101795d08201eb44f6a6,61036c0406437e30c4945f18,2021-07-29_22h05.52.213,Simcolourproject_2stim_asymm_v5,2020.2.10,MacIntel,60,61025ae37ef11b136ea224fe,,,,,,,,,2849,52.1484375,32.0234375,1,0,0,response1disk,,6,4.140625,-3.5546875,1,0,0,rectangle,-31.79296875,-85.296875,1,0,0,-1.42578125,-6.55859375,1,0,0,0,90,90,130,1,,response5disk_3,TRUE,3,3,"[209,178,262,209,255,31,184,291,290,280,169,273,292,33,139,82,167,25,91,41]",1.3502,rectangle
,,,,,,,,,,,,,FF,,,,,,,,0.6014,,,,,,,,,,,,,,,,,,,,,,6103101795d08201eb44f6a6,61036c0406437e30c4945f18,2021-07-29_22h05.52.213,Simcolourproject_2stim_asymm_v5,2020.2.10,MacIntel,60,61025ae37ef11b136ea224fe,,,,,,,,,3076,56.40625,-29.23828125,1,0,0,response3disk,,5,18.55078125,-16.03125,1,0,0,rectangle,18.55078125,-16.03125,1,0,0,18.55078125,-16.03125,1,0,0,0,91,91,30,1,,,,,,,,
,,,,,,,,,,,,,FF,,,,,,,,0.4161,,,,,,,,,,,,,,,,,,,,,,6103101795d08201eb44f6a6,61036c0406437e30c4945f18,2021-07-29_22h05.52.213,Simcolourproject_2stim_asymm_v5,2020.2.10,MacIntel,60,61025ae37ef11b136ea224fe,,,,,,,,,1169,65.19140625,-41.546875,1,0,0,response3disk,,5,17.12890625,-11.69921875,1,0,0,rectangle,17.12890625,-11.69921875,1,0,0,17.12890625,-11.69921875,1,0,0,0,92,92,15,1,,,,,,,,
,,,,,,,,,,,,,FF,,,,,,,,0.7995,,,,,,,,,,,,,,,,,,,,,,6103101795d08201eb44f6a6,61036c0406437e30c4945f18,2021-07-29_22h05.52.213,Simcolourproject_2stim_asymm_v5,2020.2.10,MacIntel,60,61025ae37ef11b136ea224fe,,,,,,,,,2835,-21.8984375,-93.16796875,1,0,0,response5disk,,3,12.1484375,-8.26171875,1,0,0,rectangle,12.1484375,-8.26171875,1,0,0,12.1484375,-8.26171875,1,0,0,0,93,93,128,1,,,,,,,,
,,,,,,,,,,,,,FF,,,,,,,,0.751,,,,,,,,,,,,,,,,,,,,,,6103101795d08201eb44f6a6,61036c0406437e30c4945f18,2021-07-29_22h05.52.213,Simcolourproject_2stim_asymm_v5,2020.2.10,MacIntel,60,61025ae37ef11b136ea224fe,,,,,,,,,1281,41.65625,68.640625,1,0,0,response1disk,,7,3.38671875,-1.9609375,1,0,0,rectangle,3.38671875,-1.9609375,1,0,0,3.38671875,-1.9609375,1,0,0,0,94,94,9,1,,,,,,,,
,,,,,,,,,,,,,FF,,,,,,,,1.2323,,,,,,,,,,,,,,,,,,,,,,6103101795d08201eb44f6a6,61036c0406437e30c4945f18,2021-07-29_22h05.52.213,Simcolourproject_2stim_asymm_v5,2020.2.10,MacIntel,60,61025ae37ef11b136ea224fe,,,,,,,,,4176,41.66796875,58.546875,1,0,0,response1disk,,7,2.49609375,-13.31640625,1,0,0,rectangle,2.49609375,-13.31640625,1,0,0,2.49609375,-13.31640625,1,0,0,0,95,95,147,1,,,,,,,,
,,,,,,,,,,,,,FF,,,,,,,,0.9493,,,,,,,,,,,,,,,,,,,,,,6103101795d08201eb44f6a6,61036c0406437e30c4945f18,2021-07-29_22h05.52.213,Simcolourproject_2stim_asymm_v5,2020.2.10,MacIntel,60,61025ae37ef11b136ea224fe,,,,,,,,,3689,83.6171875,-45.38671875,1,0,0,response3disk,,5,23.69921875,-10.9140625,1,0,0,rectangle,23.69921875,-10.9140625,1,0,0,23.69921875,-10.9140625,1,0,0,0,96,96,72,1,,,,,,,,
,,,,,,,,,,,,,FF,,,,,,,,0.6009,,,,,,,,,,,,,,,,,,,,,,6103101795d08201eb44f6a6,61036c0406437e30c4945f18,2021-07-29_22h05.52.213,Simcolourproject_2stim_asymm_v5,2020.2.10,MacIntel,60,61025ae37ef11b136ea224fe,,,,,,,,,2494,85.51953125,-30.40625,1,0,0,response3disk,,5,3.2890625,-1.03125,1,0,0,rectangle,3.2890625,-1.03125,1,0,0,3.2890625,-1.03125,1,0,0,0,97,97,152,1,,,,,,,,
,,,,,,,,,,,,,FF,,,,,,,,0.5664,,,,,,,,,,,,,,,,,,,,,,6103101795d08201eb44f6a6,61036c0406437e30c4945f18,2021-07-29_22h05.52.213,Simcolourproject_2stim_asymm_v5,2020.2.10,MacIntel,60,61025ae37ef11b136ea224fe,,,,,,,,,4233,92.94921875,-28.25,1,0,0,response3disk,,5,16.41015625,-3.73828125,1,0,0,rectangle,16.41015625,-3.73828125,1,0,0,16.41015625,-3.73828125,1,0,0,0,98,98,26,1,,,,,,,,
,,,,,,,,,,,,,FF,,,,,,,,0.4324,,,,,,,,,,,,,,,,,,,,,,6103101795d08201eb44f6a6,61036c0406437e30c4945f18,2021-07-29_22h05.52.213,Simcolourproject_2stim_asymm_v5,2020.2.10,MacIntel,60,61025ae37ef11b136ea224fe,,,,,,,,,1167,86.484375,-20.09765625,1,0,0,response3disk,,5,-0.01953125,-1.21875,1,0,0,rectangle,-0.01953125,-1.21875,1,0,0,-0.01953125,-1.21875,1,0,0,0,99,99,131,1,,,,,,,,
,,,,,,,,,,,,,FF,,,,,,,,0.4492,,,,,,,,,,,,,,,,,,,,,,6103101795d08201eb44f6a6,61036c0406437e30c4945f18,2021-07-29_22h05.52.213,Simcolourproject_2stim_asymm_v5,2020.2.10,MacIntel,60,61025ae37ef11b136ea224fe,,,,,,,,,3606,76.359375,-32.703125,1,0,0,response3disk,,5,10.19140625,-3.28515625,1,0,0,rectangle,10.19140625,-3.28515625,1,0,0,10.19140625,-3.28515625,1,0,0,0,100,100,6,1,,,,,,,,
,,,,,,,,,,,,,FF,,,,,,,,0.4995,,,,,,,,,,,,,,,,,,,,,,6103101795d08201eb44f6a6,61036c0406437e30c4945f18,2021-07-29_22h05.52.213,Simcolourproject_2stim_asymm_v5,2020.2.10,MacIntel,60,61025ae37ef11b136ea224fe,,,,,,,,,4204,77.56640625,-39.4296875,1,0,0,response3disk,,5,19.125,-8.5703125,1,0,0,rectangle,19.125,-8.5703125,1,0,0,19.125,-8.5703125,1,0,0,0,101,101,64,1,,,,,,,,
,,,,,,,,,,,,,FF,,,,,,,,0.9331,,,,,,,,,,,,,,,,,,,,,,6103101795d08201eb44f6a6,61036c0406437e30c4945f18,2021-07-29_22h05.52.213,Simcolourproject_2stim_asymm_v5,2020.2.10,MacIntel,60,61025ae37ef11b136ea224fe,,,,,,,,,1351,79.40234375,-38.54296875,1,0,0,response3disk,,5,14.921875,-0.5625,1,0,0,rectangle,14.921875,-0.5625,1,0,0,14.921875,-0.5625,1,0,0,0,102,102,3,1,,,,,,,,
,,,,,,,,,,,,,FF,,,,,,,,0.4501,,,,,,,,,,,,,,,,,,,,,,6103101795d08201eb44f6a6,61036c0406437e30c4945f18,2021-07-29_22h05.52.213,Simcolourproject_2stim_asymm_v5,2020.2.10,MacIntel,60,61025ae37ef11b136ea224fe,,,,,,,,,2459,88.39453125,-37.21484375,1,0,0,response3disk,,5,25.6875,-11.61328125,1,0,0,rectangle,25.6875,-11.61328125,1,0,0,25.6875,-11.61328125,1,0,0,0,103,103,157,1,,,,,,,,
,,,,,,,,,,,,,FF,,,,,,,,1.167,,,,,,,,,,,,,,,,,,,,,,6103101795d08201eb44f6a6,61036c0406437e30c4945f18,2021-07-29_22h05.52.213,Simcolourproject_2stim_asymm_v5,2020.2.10,MacIntel,60,61025ae37ef11b136ea224fe,,,,,,,,,2711,21.45703125,-74.09765625,1,0,0,response3disk,,4,8.328125,8.25,1,0,0,rectangle,8.328125,8.25,1,0,0,8.328125,8.25,1,0,0,0,104,104,124,1,,,,,,,,
,,,,,,,,,,,,,FF,,,,,,,,0.5989,,,,,,,,,,,,,,,,,,,,,,6103101795d08201eb44f6a6,61036c0406437e30c4945f18,2021-07-29_22h05.52.213,Simcolourproject_2stim_asymm_v5,2020.2.10,MacIntel,60,61025ae37ef11b136ea224fe,,,,,,,,,2784,53.73046875,-94.5,1,0,0,response3disk,,4,10.57421875,-6.15625,1,0,0,rectangle,10.57421875,-6.15625,1,0,0,10.57421875,-6.15625,1,0,0,0,105,105,54,1,,,,,,,,
,,,,,,,,,,,,,FF,,,,,,,,0.5994,,,,,,,,,,,,,,,,,,,,,,6103101795d08201eb44f6a6,61036c0406437e30c4945f18,2021-07-29_22h05.52.213,Simcolourproject_2stim_asymm_v5,2020.2.10,MacIntel,60,61025ae37ef11b136ea224fe,,,,,,,,,2813,84.6953125,-48.796875,1,0,0,response3disk,,5,20.296875,-5.390625,1,0,0,rectangle,20.296875,-5.390625,1,0,0,20.296875,-5.390625,1,0,0,0,106,106,66,1,,,,,,,,
,,,,,,,,,,,,,FF,,,,,,,,0.5495,,,,,,,,,,,,,,,,,,,,,,6103101795d08201eb44f6a6,61036c0406437e30c4945f18,2021-07-29_22h05.52.213,Simcolourproject_2stim_asymm_v5,2020.2.10,MacIntel,60,61025ae37ef11b136ea224fe,,,,,,,,,892,55.484375,-35.9375,1,0,0,response3disk,,5,-7.65625,-16.84765625,1,0,0,rectangle,-7.65625,-16.84765625,1,0,0,-7.65625,-16.84765625,1,0,0,0,107,107,82,1,,,,,,,,
,,,,,,,,,,,,,FF,,,,,,,,0.8166,,,,,,,,,,,,,,,,,,,,,,6103101795d08201eb44f6a6,61036c0406437e30c4945f18,2021-07-29_22h05.52.213,Simcolourproject_2stim_asymm_v5,2020.2.10,MacIntel,60,61025ae37ef11b136ea224fe,,,,,,,,,4283,-28.765625,-74.33203125,1,0,0,response5disk,,3,6.19140625,-1.5859375,1,0,0,rectangle,6.19140625,-1.5859375,1,0,0,6.19140625,-1.5859375,1,0,0,0,108,108,42,1,,,,,,,,
,,,,,,,,,,,,,FF,,,,,,,,0.5001,,,,,,,,,,,,,,,,,,,,,,6103101795d08201eb44f6a6,61036c0406437e30c4945f18,2021-07-29_22h05.52.213,Simcolourproject_2stim_asymm_v5,2020.2.10,MacIntel,60,61025ae37ef11b136ea224fe,,,,,,,,,3735,64.828125,-30.546875,1,0,0,response3disk,,5,-4.19921875,1.94921875,1,0,0,rectangle,-4.19921875,1.94921875,1,0,0,-4.19921875,1.94921875,1,0,0,0,109,109,37,1,,,,,,,,
,,,,,,,,,,,,,FF,,,,,,,,0.4994,,,,,,,,,,,,,,,,,,,,,,6103101795d08201eb44f6a6,61036c0406437e30c4945f18,2021-07-29_22h05.52.213,Simcolourproject_2stim_asymm_v5,2020.2.10,MacIntel,60,61025ae37ef11b136ea224fe,,,,,,,,,2804,62.8671875,-38.3359375,1,0,0,response3disk,,5,9.1015625,-12.328125,1,0,0,rectangle,9.1015625,-12.328125,1,0,0,9.1015625,-12.328125,1,0,0,0,110,110,74,1,,,,,,,,
,,,,,,,,,,,,,FF,,,,,,,,0.7506,,,,,,,,,,,,,,,,,,,,,,6103101795d08201eb44f6a6,61036c0406437e30c4945f18,2021-07-29_22h05.52.213,Simcolourproject_2stim_asymm_v5,2020.2.10,MacIntel,60,61025ae37ef11b136ea224fe,,,,,,,,,2363,-29.46484375,-62.06640625,1,0,0,response5disk,,3,1.8046875,-0.8125,1,0,0,rectangle,1.8046875,-0.8125,1,0,0,1.8046875,-0.8125,1,0,0,0,111,111,118,1,,,,,,,,
,,,,,,,,,,,,,FF,,,,,,,,1.1158,,,,,,,,,,,,,,,,,,,,,,6103101795d08201eb44f6a6,61036c0406437e30c4945f18,2021-07-29_22h05.52.213,Simcolourproject_2stim_asymm_v5,2020.2.10,MacIntel,60,61025ae37ef11b136ea224fe,,,,,,,,,91,-43.703125,-90.8828125,1,0,0,response5disk,,3,-12.328125,-14.83203125,1,0,0,rectangle,-12.328125,-14.83203125,1,0,0,-12.328125,-14.83203125,1,0,0,0,112,112,154,1,,,,,,,,
,,,,,,,,,,,,,FF,,,,,,,,0.5493,,,,,,,,,,,,,,,,,,,,,,6103101795d08201eb44f6a6,61036c0406437e30c4945f18,2021-07-29_22h05.52.213,Simcolourproject_2stim_asymm_v5,2020.2.10,MacIntel,60,61025ae37ef11b136ea224fe,,,,,,,,,1959,-65.08203125,-66.70703125,1,0,0,response5disk,,3,-17.6015625,9.85546875,1,0,0,rectangle,-17.6015625,9.85546875,1,0,0,-17.6015625,9.85546875,1,0,0,0,113,113,8,1,,,,,,,,
,,,,,,,,,,,,,FF,,,,,,,,0.5834,,,,,,,,,,,,,,,,,,,,,,6103101795d08201eb44f6a6,61036c0406437e30c4945f18,2021-07-29_22h05.52.213,Simcolourproject_2stim_asymm_v5,2020.2.10,MacIntel,60,61025ae37ef11b136ea224fe,,,,,,,,,2958,97.4921875,-69.14453125,1,0,0,response3disk,,5,7.38671875,-2.98046875,1,0,0,rectangle,7.38671875,-2.98046875,1,0,0,7.38671875,-2.98046875,1,0,0,0,114,114,98,1,,,,,,,,
,,,,,,,,,,,,,FF,,,,,,,,0.733,,,,,,,,,,,,,,,,,,,,,,6103101795d08201eb44f6a6,61036c0406437e30c4945f18,2021-07-29_22h05.52.213,Simcolourproject_2stim_asymm_v5,2020.2.10,MacIntel,60,61025ae37ef11b136ea224fe,,,,,,,,,524,93.75,-50.984375,1,0,0,response3disk,,5,15.0390625,-0.5234375,1,0,0,rectangle,15.0390625,-0.5234375,1,0,0,15.0390625,-0.5234375,1,0,0,0,115,115,20,1,,,,,,,,
,,,,,,,,,,,,,FF,,,,,,,,1.0505,,,,,,,,,,,,,,,,,,,,,,6103101795d08201eb44f6a6,61036c0406437e30c4945f18,2021-07-29_22h05.52.213,Simcolourproject_2stim_asymm_v5,2020.2.10,MacIntel,60,61025ae37ef11b136ea224fe,,,,,,,,,2097,-31.7578125,-91.7421875,1,0,0,response5disk,,3,-18.84765625,3.18359375,1,0,0,rectangle,-18.84765625,3.18359375,1,0,0,-18.84765625,3.18359375,1,0,0,0,116,116,104,1,,,,,,,,
,,,,,,,,,,,,,FF,,,,,,,,0.5991,,,,,,,,,,,,,,,,,,,,,,6103101795d08201eb44f6a6,61036c0406437e30c4945f18,2021-07-29_22h05.52.213,Simcolourproject_2stim_asymm_v5,2020.2.10,MacIntel,60,61025ae37ef11b136ea224fe,,,,,,,,,3476,33.921875,-67.296875,1,0,0,response3disk,,4,5.02734375,-0.40625,1,0,0,rectangle,5.02734375,-0.40625,1,0,0,5.02734375,-0.40625,1,0,0,0,117,117,61,1,,,,,,,,
,,,,,,,,,,,,,FF,,,,,,,,1.2844,,,,,,,,,,,,,,,,,,,,,,6103101795d08201eb44f6a6,61036c0406437e30c4945f18,2021-07-29_22h05.52.213,Simcolourproject_2stim_asymm_v5,2020.2.10,MacIntel,60,61025ae37ef11b136ea224fe,,,,,,,,,1483,113.7695313,-47.16015625,1,0,0,response3disk,,5,-2.41015625,-12.515625,1,0,0,rectangle,-2.41015625,-12.515625,1,0,0,-2.41015625,-12.515625,1,0,0,0,118,118,65,1,,,,,,,,
,,,,,,,,,,,,,FF,,,,,,,,0.3336,,,,,,,,,,,,,,,,,,,,,,6103101795d08201eb44f6a6,61036c0406437e30c4945f18,2021-07-29_22h05.52.213,Simcolourproject_2stim_asymm_v5,2020.2.10,MacIntel,60,61025ae37ef11b136ea224fe,,,,,,,,,3845,75.4609375,-27.46484375,1,0,0,response3disk,,5,-7.88671875,3.17578125,1,0,0,rectangle,-7.88671875,3.17578125,1,0,0,-7.88671875,3.17578125,1,0,0,0,119,119,67,1,,,,,,,,
,,,,,,,,,,,,,FF,,,,,,,,0.6992,,,,,,,,,,,,,,,,,,,,,,6103101795d08201eb44f6a6,61036c0406437e30c4945f18,2021-07-29_22h05.52.213,Simcolourproject_2stim_asymm_v5,2020.2.10,MacIntel,60,61025ae37ef11b136ea224fe,,,,,,,,,3927,57.10546875,91.73046875,1,0,0,response1disk,,7,6.0078125,-6.39453125,1,0,0,rectangle,6.0078125,-6.39453125,1,0,0,6.0078125,-6.39453125,1,0,0,0,120,120,105,1,,,,,,,,
,,,,,,,,,,,,,FF,,,,,,,,1.0652,,,,,,,,,,,,,,,,,,,,,,6103101795d08201eb44f6a6,61036c0406437e30c4945f18,2021-07-29_22h05.52.213,Simcolourproject_2stim_asymm_v5,2020.2.10,MacIntel,60,61025ae37ef11b136ea224fe,,,,,,,,,4313,67.49609375,-32.828125,1,0,0,response3disk,,5,-11.98828125,-7.86328125,1,0,0,rectangle,-11.98828125,-7.86328125,1,0,0,-11.98828125,-7.86328125,1,0,0,0,121,121,146,1,,,,,,,,
,,,,,,,,,,,,,FF,,,,,,,,0.4483,,,,,,,,,,,,,,,,,,,,,,6103101795d08201eb44f6a6,61036c0406437e30c4945f18,2021-07-29_22h05.52.213,Simcolourproject_2stim_asymm_v5,2020.2.10,MacIntel,60,61025ae37ef11b136ea224fe,,,,,,,,,2314,48.28515625,16.15625,1,0,0,response1disk,,6,-16.1171875,5.0703125,1,0,0,rectangle,-16.1171875,5.0703125,1,0,0,-16.1171875,5.0703125,1,0,0,0,122,122,156,1,,,,,,,,
,,,,,,,,,,,,,FF,,,,,,,,0.6822,,,,,,,,,,,,,,,,,,,,,,6103101795d08201eb44f6a6,61036c0406437e30c4945f18,2021-07-29_22h05.52.213,Simcolourproject_2stim_asymm_v5,2020.2.10,MacIntel,60,61025ae37ef11b136ea224fe,,,,,,,,,2649,96.1171875,44.5546875,1,0,0,response1disk,,6,10.66015625,10.84765625,1,0,0,rectangle,10.66015625,10.84765625,1,0,0,10.66015625,10.84765625,1,0,0,0,123,123,135,1,,,,,,,,
,,,,,,,,,,,,,FF,,,,,,,,0.666,,,,,,,,,,,,,,,,,,,,,,6103101795d08201eb44f6a6,61036c0406437e30c4945f18,2021-07-29_22h05.52.213,Simcolourproject_2stim_asymm_v5,2020.2.10,MacIntel,60,61025ae37ef11b136ea224fe,,,,,,,,,3693,92.921875,53.42578125,1,0,0,response1disk,,6,14.17578125,1.07421875,1,0,0,rectangle,14.17578125,1.07421875,1,0,0,14.17578125,1.07421875,1,0,0,0,124,124,119,1,,,,,,,,
,,,,,,,,,,,,,FF,,,,,,,,0.6998,,,,,,,,,,,,,,,,,,,,,,6103101795d08201eb44f6a6,61036c0406437e30c4945f18,2021-07-29_22h05.52.213,Simcolourproject_2stim_asymm_v5,2020.2.10,MacIntel,60,61025ae37ef11b136ea224fe,,,,,,,,,3857,85.9609375,34.71875,1,0,0,response1disk,,6,21.66015625,4.26171875,1,0,0,rectangle,21.66015625,4.26171875,1,0,0,21.66015625,4.26171875,1,0,0,0,125,125,16,1,,,,,,,,
,,,,,,,,,,,,,FF,,,,,,,,0.565,,,,,,,,,,,,,,,,,,,,,,6103101795d08201eb44f6a6,61036c0406437e30c4945f18,2021-07-29_22h05.52.213,Simcolourproject_2stim_asymm_v5,2020.2.10,MacIntel,60,61025ae37ef11b136ea224fe,,,,,,,,,1414,98.2734375,57.85546875,1,0,0,response1disk,,6,-5.109375,-9.5078125,1,0,0,rectangle,-5.109375,-9.5078125,1,0,0,-5.109375,-9.5078125,1,0,0,0,126,126,69,1,,,,,,,,
,,,,,,,,,,,,,FF,,,,,,,,0.5,,,,,,,,,,,,,,,,,,,,,,6103101795d08201eb44f6a6,61036c0406437e30c4945f18,2021-07-29_22h05.52.213,Simcolourproject_2stim_asymm_v5,2020.2.10,MacIntel,60,61025ae37ef11b136ea224fe,,,,,,,,,28,60.4921875,24.29296875,1,0,0,response1disk,,6,4.58984375,-0.7421875,1,0,0,rectangle,4.58984375,-0.7421875,1,0,0,4.58984375,-0.7421875,1,0,0,0,127,127,120,1,,,,,,,,
,,,,,,,,,,,,,FF,,,,,,,,0.4336,,,,,,,,,,,,,,,,,,,,,,6103101795d08201eb44f6a6,61036c0406437e30c4945f18,2021-07-29_22h05.52.213,Simcolourproject_2stim_asymm_v5,2020.2.10,MacIntel,60,61025ae37ef11b136ea224fe,,,,,,,,,3492,87.33984375,-28.08203125,1,0,0,response3disk,,5,-2.2421875,10.36328125,1,0,0,rectangle,-2.2421875,10.36328125,1,0,0,-2.2421875,10.36328125,1,0,0,0,128,128,96,1,,,,,,,,
,,,,,,,,,,,,,FF,,,,,,,,0.5829,,,,,,,,,,,,,,,,,,,,,,6103101795d08201eb44f6a6,61036c0406437e30c4945f18,2021-07-29_22h05.52.213,Simcolourproject_2stim_asymm_v5,2020.2.10,MacIntel,60,61025ae37ef11b136ea224fe,,,,,,,,,508,82.8203125,29.671875,1,0,0,response1disk,,6,-6.296875,-8.35546875,1,0,0,rectangle,-6.296875,-8.35546875,1,0,0,-6.296875,-8.35546875,1,0,0,0,129,129,11,1,,,,,,,,
,,,,,,,,,,,,,FF,,,,,,,,0.6169,,,,,,,,,,,,,,,,,,,,,,6103101795d08201eb44f6a6,61036c0406437e30c4945f18,2021-07-29_22h05.52.213,Simcolourproject_2stim_asymm_v5,2020.2.10,MacIntel,60,61025ae37ef11b136ea224fe,,,,,,,,,2681,58.1953125,-22.75,1,0,0,response3disk,,5,-3.31640625,-2.4765625,1,0,0,rectangle,-3.31640625,-2.4765625,1,0,0,-3.31640625,-2.4765625,1,0,0,0,130,130,141,1,,,,,,,,
,,,,,,,,,,,,,FF,,,,,,,,0.8161,,,,,,,,,,,,,,,,,,,,,,6103101795d08201eb44f6a6,61036c0406437e30c4945f18,2021-07-29_22h05.52.213,Simcolourproject_2stim_asymm_v5,2020.2.10,MacIntel,60,61025ae37ef11b136ea224fe,,,,,,,,,3234,48.0625,65.9921875,1,0,0,response1disk,,7,11.51171875,-4.4296875,1,0,0,rectangle,11.51171875,-4.4296875,1,0,0,11.51171875,-4.4296875,1,0,0,0,131,131,139,1,,,,,,,,
,,,,,,,,,,,,,FF,,,,,,,,1.1659,,,,,,,,,,,,,,,,,,,,,,6103101795d08201eb44f6a6,61036c0406437e30c4945f18,2021-07-29_22h05.52.213,Simcolourproject_2stim_asymm_v5,2020.2.10,MacIntel,60,61025ae37ef11b136ea224fe,,,,,,,,,263,-39.0234375,-99.23828125,1,0,0,response5disk,,3,6.578125,1.72265625,1,0,0,rectangle,6.578125,1.72265625,1,0,0,6.578125,1.72265625,1,0,0,0,132,132,39,1,,,,,,,,
,,,,,,,,,,,,,FF,,,,,,,,1.7348,,,,,,,,,,,,,,,,,,,,,,6103101795d08201eb44f6a6,61036c0406437e30c4945f18,2021-07-29_22h05.52.213,Simcolourproject_2stim_asymm_v5,2020.2.10,MacIntel,60,61025ae37ef11b136ea224fe,,,,,,,,,132,76.85546875,-46.6796875,1,0,0,response3disk,,5,17.2890625,1.2734375,1,0,0,rectangle,17.2890625,1.2734375,1,0,0,17.2890625,1.2734375,1,0,0,0,133,133,55,1,,,,,,,,
,,,,,,,,,,,,,FF,,,,,,,,0.7337,,,,,,,,,,,,,,,,,,,,,,6103101795d08201eb44f6a6,61036c0406437e30c4945f18,2021-07-29_22h05.52.213,Simcolourproject_2stim_asymm_v5,2020.2.10,MacIntel,60,61025ae37ef11b136ea224fe,,,,,,,,,966,46.42578125,72.0703125,1,0,0,response1disk,,7,-18.4296875,-4.24609375,1,0,0,rectangle,-18.4296875,-4.24609375,1,0,0,-18.4296875,-4.24609375,1,0,0,0,134,134,77,1,,,,,,,,
,,,,,,,,,,,,,FF,,,,,,,,0.8002,,,,,,,,,,,,,,,,,,,,,,6103101795d08201eb44f6a6,61036c0406437e30c4945f18,2021-07-29_22h05.52.213,Simcolourproject_2stim_asymm_v5,2020.2.10,MacIntel,60,61025ae37ef11b136ea224fe,,,,,,,,,1903,56.8515625,-78.71484375,1,0,0,response3disk,,4,-10.97265625,0.69140625,1,0,0,rectangle,-10.97265625,0.69140625,1,0,0,-10.97265625,0.69140625,1,0,0,0,135,135,87,1,,,,,,,,
,,,,,,,,,,,,,FF,,,,,,,,0.733,,,,,,,,,,,,,,,,,,,,,,6103101795d08201eb44f6a6,61036c0406437e30c4945f18,2021-07-29_22h05.52.213,Simcolourproject_2stim_asymm_v5,2020.2.10,MacIntel,60,61025ae37ef11b136ea224fe,,,,,,,,,3435,22.9140625,-114.3554688,1,0,0,response3disk,,4,-0.91015625,-2.5234375,1,0,0,rectangle,-0.91015625,-2.5234375,1,0,0,-0.91015625,-2.5234375,1,0,0,0,136,136,94,1,,,,,,,,
,,,,,,,,,,,,,FF,,,,,,,,0.5157,,,,,,,,,,,,,,,,,,,,,,6103101795d08201eb44f6a6,61036c0406437e30c4945f18,2021-07-29_22h05.52.213,Simcolourproject_2stim_asymm_v5,2020.2.10,MacIntel,60,61025ae37ef11b136ea224fe,,,,,,,,,929,71.01171875,-50.28125,1,0,0,response3disk,,5,0.3203125,-5.609375,1,0,0,rectangle,0.3203125,-5.609375,1,0,0,0.3203125,-5.609375,1,0,0,0,137,137,158,1,,,,,,,,
,,,,,,,,,,,,,FF,,,,,,,,0.6483,,,,,,,,,,,,,,,,,,,,,,6103101795d08201eb44f6a6,61036c0406437e30c4945f18,2021-07-29_22h05.52.213,Simcolourproject_2stim_asymm_v5,2020.2.10,MacIntel,60,61025ae37ef11b136ea224fe,,,,,,,,,2647,75.27734375,45.68359375,1,0,0,response1disk,,6,18.234375,4.8046875,1,0,0,rectangle,-43.56640625,-85.78515625,1,0,0,2.16015625,1.46875,1,0,0,0,138,138,150,1,,response5disk_3,TRUE,3,3,"[209,178,262,209,255,31,184,291,290,280,169,273,292,33,139,82,167,25,91,41]",1.5166,rectangle
,,,,,,,,,,,,,FF,,,,,,,,1.5651,,,,,,,,,,,,,,,,,,,,,,6103101795d08201eb44f6a6,61036c0406437e30c4945f18,2021-07-29_22h05.52.213,Simcolourproject_2stim_asymm_v5,2020.2.10,MacIntel,60,61025ae37ef11b136ea224fe,,,,,,,,,3367,-38.421875,-80.2265625,1,0,0,response5disk,,3,-4.08203125,-11.23828125,1,0,0,rectangle,-4.08203125,-11.23828125,1,0,0,-4.08203125,-11.23828125,1,0,0,0,139,139,41,1,,,,,,,,
,,,,,,,,,,,,,FF,,,,,,,,0.5326,,,,,,,,,,,,,,,,,,,,,,6103101795d08201eb44f6a6,61036c0406437e30c4945f18,2021-07-29_22h05.52.213,Simcolourproject_2stim_asymm_v5,2020.2.10,MacIntel,60,61025ae37ef11b136ea224fe,,,,,,,,,825,65.5703125,-25.43359375,1,0,0,response3disk,,5,13.23046875,-1.73828125,1,0,0,rectangle,13.23046875,-1.73828125,1,0,0,13.23046875,-1.73828125,1,0,0,0,140,140,5,1,,,,,,,,
,,,,,,,,,,,,,FF,,,,,,,,0.9004,,,,,,,,,,,,,,,,,,,,,,6103101795d08201eb44f6a6,61036c0406437e30c4945f18,2021-07-29_22h05.52.213,Simcolourproject_2stim_asymm_v5,2020.2.10,MacIntel,60,61025ae37ef11b136ea224fe,,,,,,,,,1955,44.9375,58.5546875,1,0,0,response1disk,,7,5.8671875,10.59765625,1,0,0,rectangle,5.8671875,10.59765625,1,0,0,5.8671875,10.59765625,1,0,0,0,141,141,70,1,,,,,,,,
,,,,,,,,,,,,,FF,,,,,,,,0.6175,,,,,,,,,,,,,,,,,,,,,,6103101795d08201eb44f6a6,61036c0406437e30c4945f18,2021-07-29_22h05.52.213,Simcolourproject_2stim_asymm_v5,2020.2.10,MacIntel,60,61025ae37ef11b136ea224fe,,,,,,,,,2562,61.63671875,34.9765625,1,0,0,response1disk,,6,13.7890625,11.2734375,1,0,0,rectangle,13.7890625,11.2734375,1,0,0,13.7890625,11.2734375,1,0,0,0,142,142,27,1,,,,,,,,
,,,,,,,,,,,,,FF,,,,,,,,0.184,,,,,,,,,,,,,,,,,,,,,,6103101795d08201eb44f6a6,61036c0406437e30c4945f18,2021-07-29_22h05.52.213,Simcolourproject_2stim_asymm_v5,2020.2.10,MacIntel,60,61025ae37ef11b136ea224fe,,,,,,,,,1157,86.51171875,29.1640625,1,0,0,response1disk,,6,6.84765625,4.96875,1,0,0,rectangle,6.84765625,4.96875,1,0,0,6.84765625,4.96875,1,0,0,0,143,143,81,1,,,,,,,,
,,,,,,,,,,,,,FF,,,,,,,,0.4005,,,,,,,,,,,,,,,,,,,,,,6103101795d08201eb44f6a6,61036c0406437e30c4945f18,2021-07-29_22h05.52.213,Simcolourproject_2stim_asymm_v5,2020.2.10,MacIntel,60,61025ae37ef11b136ea224fe,,,,,,,,,2905,76.42578125,-34.93359375,1,0,0,response3disk,,5,5.46875,-13.95703125,1,0,0,rectangle,5.46875,-13.95703125,1,0,0,5.46875,-13.95703125,1,0,0,0,144,144,58,1,,,,,,,,
,,,,,,,,,,,,,FF,,,,,,,,0.4674,,,,,,,,,,,,,,,,,,,,,,6103101795d08201eb44f6a6,61036c0406437e30c4945f18,2021-07-29_22h05.52.213,Simcolourproject_2stim_asymm_v5,2020.2.10,MacIntel,60,61025ae37ef11b136ea224fe,,,,,,,,,4005,69.00390625,-36.4140625,1,0,0,response3disk,,5,2.55859375,-0.86328125,1,0,0,rectangle,2.55859375,-0.86328125,1,0,0,2.55859375,-0.86328125,1,0,0,0,145,145,57,1,,,,,,,,
,,,,,,,,,,,,,FF,,,,,,,,0.5822,,,,,,,,,,,,,,,,,,,,,,6103101795d08201eb44f6a6,61036c0406437e30c4945f18,2021-07-29_22h05.52.213,Simcolourproject_2stim_asymm_v5,2020.2.10,MacIntel,60,61025ae37ef11b136ea224fe,,,,,,,,,2138,65.18359375,-47.5859375,1,0,0,response3disk,,5,-7.2890625,-0.7421875,1,0,0,rectangle,-7.2890625,-0.7421875,1,0,0,-7.2890625,-0.7421875,1,0,0,0,146,146,159,1,,,,,,,,
,,,,,,,,,,,,,FF,,,,,,,,0.9999,,,,,,,,,,,,,,,,,,,,,,6103101795d08201eb44f6a6,61036c0406437e30c4945f18,2021-07-29_22h05.52.213,Simcolourproject_2stim_asymm_v5,2020.2.10,MacIntel,60,61025ae37ef11b136ea224fe,,,,,,,,,972,-61.0390625,-73.53515625,1,0,0,response5disk,,3,6.05078125,14.609375,1,0,0,rectangle,6.05078125,14.609375,1,0,0,6.05078125,14.609375,1,0,0,0,147,147,111,1,,,,,,,,
,,,,,,,,,,,,,FF,,,,,,,,0.5336,,,,,,,,,,,,,,,,,,,,,,6103101795d08201eb44f6a6,61036c0406437e30c4945f18,2021-07-29_22h05.52.213,Simcolourproject_2stim_asymm_v5,2020.2.10,MacIntel,60,61025ae37ef11b136ea224fe,,,,,,,,,1392,55.4609375,-36.9609375,1,0,0,response3disk,,5,6.83203125,-5.23828125,1,0,0,rectangle,6.83203125,-5.23828125,1,0,0,6.83203125,-5.23828125,1,0,0,0,148,148,106,1,,,,,,,,
,,,,,,,,,,,,,FF,,,,,,,,0.567,,,,,,,,,,,,,,,,,,,,,,6103101795d08201eb44f6a6,61036c0406437e30c4945f18,2021-07-29_22h05.52.213,Simcolourproject_2stim_asymm_v5,2020.2.10,MacIntel,60,61025ae37ef11b136ea224fe,,,,,,,,,1266,63.96875,-32.40625,1,0,0,response3disk,,5,-1.0390625,-2.4375,1,0,0,rectangle,-1.0390625,-2.4375,1,0,0,-1.0390625,-2.4375,1,0,0,0,149,149,97,1,,,,,,,,
,,,,,,,,,,,,,FF,,,,,,,,1.3336,,,,,,,,,,,,,,,,,,,,,,6103101795d08201eb44f6a6,61036c0406437e30c4945f18,2021-07-29_22h05.52.213,Simcolourproject_2stim_asymm_v5,2020.2.10,MacIntel,60,61025ae37ef11b136ea224fe,,,,,,,,,2209,53.6015625,-25.90234375,1,0,0,response3disk,,5,7.3828125,-9.03515625,1,0,0,rectangle,7.3828125,-9.03515625,1,0,0,7.3828125,-9.03515625,1,0,0,0,150,150,29,1,,,,,,,,
,,,,,,,,,,,,,FF,,,,,,,,0.5153,,,,,,,,,,,,,,,,,,,,,,6103101795d08201eb44f6a6,61036c0406437e30c4945f18,2021-07-29_22h05.52.213,Simcolourproject_2stim_asymm_v5,2020.2.10,MacIntel,60,61025ae37ef11b136ea224fe,,,,,,,,,3184,97.40625,50.23046875,1,0,0,response1disk,,6,7.4921875,-2.6640625,1,0,0,rectangle,7.4921875,-2.6640625,1,0,0,7.4921875,-2.6640625,1,0,0,0,151,151,46,1,,,,,,,,
,,,,,,,,,,,,,FF,,,,,,,,1,,,,,,,,,,,,,,,,,,,,,,6103101795d08201eb44f6a6,61036c0406437e30c4945f18,2021-07-29_22h05.52.213,Simcolourproject_2stim_asymm_v5,2020.2.10,MacIntel,60,61025ae37ef11b136ea224fe,,,,,,,,,174,-22.40625,-94.859375,1,0,0,response5disk,,3,15.08203125,-7.12109375,1,0,0,rectangle,15.08203125,-7.12109375,1,0,0,15.08203125,-7.12109375,1,0,0,0,152,152,22,1,,,,,,,,
,,,,,,,,,,,,,FF,,,,,,,,0.5988,,,,,,,,,,,,,,,,,,,,,,6103101795d08201eb44f6a6,61036c0406437e30c4945f18,2021-07-29_22h05.52.213,Simcolourproject_2stim_asymm_v5,2020.2.10,MacIntel,60,61025ae37ef11b136ea224fe,,,,,,,,,2306,92.3359375,38.41796875,1,0,0,response1disk,,6,9.46875,7.73828125,1,0,0,rectangle,9.46875,7.73828125,1,0,0,9.46875,7.73828125,1,0,0,0,153,153,136,1,,,,,,,,
,,,,,,,,,,,,,FF,,,,,,,,0.6159,,,,,,,,,,,,,,,,,,,,,,6103101795d08201eb44f6a6,61036c0406437e30c4945f18,2021-07-29_22h05.52.213,Simcolourproject_2stim_asymm_v5,2020.2.10,MacIntel,60,61025ae37ef11b136ea224fe,,,,,,,,,2715,60.03515625,-36.75,1,0,0,response3disk,,5,14.05078125,-7.65234375,1,0,0,rectangle,14.05078125,-7.65234375,1,0,0,14.05078125,-7.65234375,1,0,0,0,154,154,52,1,,,,,,,,
,,,,,,,,,,,,,FF,,,,,,,,0.5821,,,,,,,,,,,,,,,,,,,,,,6103101795d08201eb44f6a6,61036c0406437e30c4945f18,2021-07-29_22h05.52.213,Simcolourproject_2stim_asymm_v5,2020.2.10,MacIntel,60,61025ae37ef11b136ea224fe,,,,,,,,,3814,-56.171875,-65.83203125,1,0,0,response5disk,,3,-16.59765625,-7.7109375,1,0,0,rectangle,-16.59765625,-7.7109375,1,0,0,-16.59765625,-7.7109375,1,0,0,0,155,155,93,1,,,,,,,,
,,,,,,,,,,,,,FF,,,,,,,,0.5982,,,,,,,,,,,,,,,,,,,,,,6103101795d08201eb44f6a6,61036c0406437e30c4945f18,2021-07-29_22h05.52.213,Simcolourproject_2stim_asymm_v5,2020.2.10,MacIntel,60,61025ae37ef11b136ea224fe,,,,,,,,,3188,-52.515625,-59,1,0,0,response5disk,,3,-18.125,-1.5546875,1,0,0,rectangle,-18.125,-1.5546875,1,0,0,-18.125,-1.5546875,1,0,0,0,156,156,151,1,,,,,,,,
,,,,,,,,,,,,,FF,,,,,,,,0.8319,,,,,,,,,,,,,,,,,,,,,,6103101795d08201eb44f6a6,61036c0406437e30c4945f18,2021-07-29_22h05.52.213,Simcolourproject_2stim_asymm_v5,2020.2.10,MacIntel,60,61025ae37ef11b136ea224fe,,,,,,,,,3626,-33,-76.0390625,1,0,0,response5disk,,3,9.40234375,-3.5625,1,0,0,rectangle,9.40234375,-3.5625,1,0,0,9.40234375,-3.5625,1,0,0,0,157,157,138,1,,,,,,,,
,,,,,,,,,,,,,FF,,,,,,,,1.2344,,,,,,,,,,,,,,,,,,,,,,6103101795d08201eb44f6a6,61036c0406437e30c4945f18,2021-07-29_22h05.52.213,Simcolourproject_2stim_asymm_v5,2020.2.10,MacIntel,60,61025ae37ef11b136ea224fe,,,,,,,,,2069,-37.93359375,-84.7734375,1,0,0,response5disk,,3,-5.33984375,-15.95703125,1,0,0,rectangle,-5.33984375,-15.95703125,1,0,0,-5.33984375,-15.95703125,1,0,0,0,158,158,123,1,,,,,,,,
,,,,,,,,,,,,,FF,,,,,,,,0.6163,,,,,,,,,,,,,,,,,,,,,,6103101795d08201eb44f6a6,61036c0406437e30c4945f18,2021-07-29_22h05.52.213,Simcolourproject_2stim_asymm_v5,2020.2.10,MacIntel,60,61025ae37ef11b136ea224fe,,,,,,,,,2105,-43.6953125,-71.328125,1,0,0,response5disk,,3,-2.078125,-11.73828125,1,0,0,rectangle,-2.078125,-11.73828125,1,0,0,-2.078125,-11.73828125,1,0,0,0,159,159,35,1,,,,,,,,
,,,,,,,,,,,,,FF,,,,,,,,0.5747,,,,,,,,,,,,,,,,,,,,,,6103101795d08201eb44f6a6,61036c0406437e30c4945f18,2021-07-29_22h05.52.213,Simcolourproject_2stim_asymm_v5,2020.2.10,MacIntel,60,61025ae37ef11b136ea224fe,,,,,,,,,4034,20.01171875,-77.8984375,1,0,0,response3disk,,4,8.5234375,-12.58984375,1,0,0,rectangle,8.5234375,-12.58984375,1,0,0,8.5234375,-12.58984375,1,0,0,1,0,160,156,1,,,,,,,,
,,,,,,,,,,,,,FF,,,,,,,,0.5168,,,,,,,,,,,,,,,,,,,,,,6103101795d08201eb44f6a6,61036c0406437e30c4945f18,2021-07-29_22h05.52.213,Simcolourproject_2stim_asymm_v5,2020.2.10,MacIntel,60,61025ae37ef11b136ea224fe,,,,,,,,,1722,80.94140625,34.984375,1,0,0,response1disk,,6,11.6484375,7.2109375,1,0,0,rectangle,11.6484375,7.2109375,1,0,0,11.6484375,7.2109375,1,0,0,1,1,161,113,1,,,,,,,,
,,,,,,,,,,,,,FF,,,,,,,,0.9,,,,,,,,,,,,,,,,,,,,,,6103101795d08201eb44f6a6,61036c0406437e30c4945f18,2021-07-29_22h05.52.213,Simcolourproject_2stim_asymm_v5,2020.2.10,MacIntel,60,61025ae37ef11b136ea224fe,,,,,,,,,1879,39.73828125,59.1015625,1,0,0,response1disk,,7,-2.66015625,-2.953125,1,0,0,rectangle,-2.66015625,-2.953125,1,0,0,-2.66015625,-2.953125,1,0,0,1,2,162,25,1,,,,,,,,
,,,,,,,,,,,,,FF,,,,,,,,0.4817,,,,,,,,,,,,,,,,,,,,,,6103101795d08201eb44f6a6,61036c0406437e30c4945f18,2021-07-29_22h05.52.213,Simcolourproject_2stim_asymm_v5,2020.2.10,MacIntel,60,61025ae37ef11b136ea224fe,,,,,,,,,3399,66,-48.859375,1,0,0,response3disk,,5,0.81640625,-6.08203125,1,0,0,rectangle,0.81640625,-6.08203125,1,0,0,0.81640625,-6.08203125,1,0,0,1,3,163,146,1,,,,,,,,
,,,,,,,,,,,,,FF,,,,,,,,0.6162,,,,,,,,,,,,,,,,,,,,,,6103101795d08201eb44f6a6,61036c0406437e30c4945f18,2021-07-29_22h05.52.213,Simcolourproject_2stim_asymm_v5,2020.2.10,MacIntel,60,61025ae37ef11b136ea224fe,,,,,,,,,1686,70.26953125,-40.97265625,1,0,0,response3disk,,5,14.6796875,-6.6171875,1,0,0,rectangle,14.6796875,-6.6171875,1,0,0,14.6796875,-6.6171875,1,0,0,1,4,164,108,1,,,,,,,,
,,,,,,,,,,,,,FF,,,,,,,,0.4841,,,,,,,,,,,,,,,,,,,,,,6103101795d08201eb44f6a6,61036c0406437e30c4945f18,2021-07-29_22h05.52.213,Simcolourproject_2stim_asymm_v5,2020.2.10,MacIntel,60,61025ae37ef11b136ea224fe,,,,,,,,,3680,67.69921875,-37.77734375,1,0,0,response3disk,,5,0.609375,-15.32421875,1,0,0,rectangle,0.609375,-15.32421875,1,0,0,0.609375,-15.32421875,1,0,0,1,5,165,140,1,,,,,,,,
,,,,,,,,,,,,,FF,,,,,,,,0.45,,,,,,,,,,,,,,,,,,,,,,6103101795d08201eb44f6a6,61036c0406437e30c4945f18,2021-07-29_22h05.52.213,Simcolourproject_2stim_asymm_v5,2020.2.10,MacIntel,60,61025ae37ef11b136ea224fe,,,,,,,,,729,69.1171875,-22.6796875,1,0,0,response3disk,,5,23.1796875,0.88671875,1,0,0,rectangle,67.3984375,-48.5703125,1,0,0,16.03515625,-7.765625,1,0,0,1,6,166,76,1,,response3disk_3,TRUE,5,5,"[209,178,262,209,255,31,184,291,290,280,169,273,292,33,139,82,167,25,91,41]",1.2989,rectangle
,,,,,,,,,,,,,FF,,,,,,,,0.9167,,,,,,,,,,,,,,,,,,,,,,6103101795d08201eb44f6a6,61036c0406437e30c4945f18,2021-07-29_22h05.52.213,Simcolourproject_2stim_asymm_v5,2020.2.10,MacIntel,60,61025ae37ef11b136ea224fe,,,,,,,,,2129,-69.33203125,-98.625,1,0,0,response5disk,,3,-4.11328125,-3.40625,1,0,0,rectangle,-4.11328125,-3.40625,1,0,0,-4.11328125,-3.40625,1,0,0,1,7,167,5,1,,,,,,,,
,,,,,,,,,,,,,FF,,,,,,,,0.3826,,,,,,,,,,,,,,,,,,,,,,6103101795d08201eb44f6a6,61036c0406437e30c4945f18,2021-07-29_22h05.52.213,Simcolourproject_2stim_asymm_v5,2020.2.10,MacIntel,60,61025ae37ef11b136ea224fe,,,,,,,,,4192,53.63671875,-61.6328125,1,0,0,response3disk,,4,5.94140625,-7.59765625,1,0,0,rectangle,33.69921875,-60.79296875,1,0,0,-9.5390625,0.87890625,1,0,0,1,8,168,122,1,,response3disk_3,TRUE,4,3,"[209,178,262,209,255,31,184,291,290,280,169,273,292,33,139,82,167,25,91,41]",0.5332,rectangle
,,,,,,,,,,,,,FF,,,,,,,,0.5171,,,,,,,,,,,,,,,,,,,,,,6103101795d08201eb44f6a6,61036c0406437e30c4945f18,2021-07-29_22h05.52.213,Simcolourproject_2stim_asymm_v5,2020.2.10,MacIntel,60,61025ae37ef11b136ea224fe,,,,,,,,,1552,72.80078125,-32.2265625,1,0,0,response3disk,,5,9.62109375,-5.171875,1,0,0,rectangle,9.62109375,-5.171875,1,0,0,9.62109375,-5.171875,1,0,0,1,9,169,33,1,,,,,,,,
,,,,,,,,,,,,,FF,,,,,,,,0.3323,,,,,,,,,,,,,,,,,,,,,,6103101795d08201eb44f6a6,61036c0406437e30c4945f18,2021-07-29_22h05.52.213,Simcolourproject_2stim_asymm_v5,2020.2.10,MacIntel,60,61025ae37ef11b136ea224fe,,,,,,,,,1182,90.1953125,31.8359375,1,0,0,response1disk,,6,8.09375,5.10546875,1,0,0,rectangle,8.09375,5.10546875,1,0,0,8.09375,5.10546875,1,0,0,1,10,170,143,1,,,,,,,,
,,,,,,,,,,,,,FF,,,,,,,,0.2658,,,,,,,,,,,,,,,,,,,,,,6103101795d08201eb44f6a6,61036c0406437e30c4945f18,2021-07-29_22h05.52.213,Simcolourproject_2stim_asymm_v5,2020.2.10,MacIntel,60,61025ae37ef11b136ea224fe,,,,,,,,,2397,61.953125,-42.88671875,1,0,0,response3disk,,5,-4.74609375,4.4921875,1,0,0,rectangle,-4.74609375,4.4921875,1,0,0,-4.74609375,4.4921875,1,0,0,1,11,171,40,1,,,,,,,,
,,,,,,,,,,,,,FF,,,,,,,,0.2489,,,,,,,,,,,,,,,,,,,,,,6103101795d08201eb44f6a6,61036c0406437e30c4945f18,2021-07-29_22h05.52.213,Simcolourproject_2stim_asymm_v5,2020.2.10,MacIntel,60,61025ae37ef11b136ea224fe,,,,,,,,,3438,-66.08203125,-67.62109375,1,0,0,response5disk,,3,-2.38671875,-14.2578125,1,0,0,rectangle,-2.38671875,-14.2578125,1,0,0,-2.38671875,-14.2578125,1,0,0,1,12,172,151,1,,,,,,,,
,,,,,,,,,,,,,FF,,,,,,,,0.7,,,,,,,,,,,,,,,,,,,,,,6103101795d08201eb44f6a6,61036c0406437e30c4945f18,2021-07-29_22h05.52.213,Simcolourproject_2stim_asymm_v5,2020.2.10,MacIntel,60,61025ae37ef11b136ea224fe,,,,,,,,,1109,-34.74609375,-77.19140625,1,0,0,response5disk,,3,10.19921875,-5.8046875,1,0,0,rectangle,10.19921875,-5.8046875,1,0,0,10.19921875,-5.8046875,1,0,0,1,13,173,90,1,,,,,,,,
,,,,,,,,,,,,,FF,,,,,,,,0.6337,,,,,,,,,,,,,,,,,,,,,,6103101795d08201eb44f6a6,61036c0406437e30c4945f18,2021-07-29_22h05.52.213,Simcolourproject_2stim_asymm_v5,2020.2.10,MacIntel,60,61025ae37ef11b136ea224fe,,,,,,,,,2967,51.234375,-66.75390625,1,0,0,response3disk,,4,6.1640625,-6.421875,1,0,0,rectangle,6.1640625,-6.421875,1,0,0,6.1640625,-6.421875,1,0,0,1,14,174,98,1,,,,,,,,
,,,,,,,,,,,,,FF,,,,,,,,0.3849,,,,,,,,,,,,,,,,,,,,,,6103101795d08201eb44f6a6,61036c0406437e30c4945f18,2021-07-29_22h05.52.213,Simcolourproject_2stim_asymm_v5,2020.2.10,MacIntel,60,61025ae37ef11b136ea224fe,,,,,,,,,3532,67.09375,-39.96875,1,0,0,response3disk,,5,-8.6875,8.2421875,1,0,0,rectangle,-8.6875,8.2421875,1,0,0,-8.6875,8.2421875,1,0,0,1,15,175,53,1,,,,,,,,
,,,,,,,,,,,,,FF,,,,,,,,0.3659,,,,,,,,,,,,,,,,,,,,,,6103101795d08201eb44f6a6,61036c0406437e30c4945f18,2021-07-29_22h05.52.213,Simcolourproject_2stim_asymm_v5,2020.2.10,MacIntel,60,61025ae37ef11b136ea224fe,,,,,,,,,1847,60.95703125,-52.69140625,1,0,0,response3disk,,5,-7.8203125,-12.1328125,1,0,0,rectangle,-7.8203125,-12.1328125,1,0,0,-7.8203125,-12.1328125,1,0,0,1,16,176,77,1,,,,,,,,
,,,,,,,,,,,,,FF,,,,,,,,0.6331,,,,,,,,,,,,,,,,,,,,,,6103101795d08201eb44f6a6,61036c0406437e30c4945f18,2021-07-29_22h05.52.213,Simcolourproject_2stim_asymm_v5,2020.2.10,MacIntel,60,61025ae37ef11b136ea224fe,,,,,,,,,3536,65.6484375,-79.859375,1,0,0,response3disk,,4,11.44140625,-9.90234375,1,0,0,rectangle,-39.91015625,-102.6484375,1,0,0,2.9921875,-8.91015625,1,0,0,1,17,177,19,1,,response5disk_3,TRUE,3,3,"[209,178,262,209,255,31,184,291,290,280,169,273,292,33,139,82,167,25,91,41]",1.2842,rectangle
,,,,,,,,,,,,,FF,,,,,,,,0.2497,,,,,,,,,,,,,,,,,,,,,,6103101795d08201eb44f6a6,61036c0406437e30c4945f18,2021-07-29_22h05.52.213,Simcolourproject_2stim_asymm_v5,2020.2.10,MacIntel,60,61025ae37ef11b136ea224fe,,,,,,,,,3008,61.6796875,-54.07421875,1,0,0,response3disk,,5,-1.79296875,-1.4140625,1,0,0,rectangle,-1.79296875,-1.4140625,1,0,0,-1.79296875,-1.4140625,1,0,0,1,18,178,20,1,,,,,,,,
,,,,,,,,,,,,,FF,,,,,,,,0.5003,,,,,,,,,,,,,,,,,,,,,,6103101795d08201eb44f6a6,61036c0406437e30c4945f18,2021-07-29_22h05.52.213,Simcolourproject_2stim_asymm_v5,2020.2.10,MacIntel,60,61025ae37ef11b136ea224fe,,,,,,,,,2182,45.63671875,-88.9140625,1,0,0,response3disk,,4,10.00390625,-16.8671875,1,0,0,rectangle,10.00390625,-16.8671875,1,0,0,10.00390625,-16.8671875,1,0,0,1,19,179,105,1,,,,,,,,
,,,,,,,,,,,,,FF,,,,,,,,0.5342,,,,,,,,,,,,,,,,,,,,,,6103101795d08201eb44f6a6,61036c0406437e30c4945f18,2021-07-29_22h05.52.213,Simcolourproject_2stim_asymm_v5,2020.2.10,MacIntel,60,61025ae37ef11b136ea224fe,,,,,,,,,2211,65.375,-87.72265625,1,0,0,response3disk,,4,5.83203125,2.265625,1,0,0,rectangle,5.83203125,2.265625,1,0,0,5.83203125,2.265625,1,0,0,1,20,180,147,1,,,,,,,,
,,,,,,,,,,,,,FF,,,,,,,,0.585,,,,,,,,,,,,,,,,,,,,,,6103101795d08201eb44f6a6,61036c0406437e30c4945f18,2021-07-29_22h05.52.213,Simcolourproject_2stim_asymm_v5,2020.2.10,MacIntel,60,61025ae37ef11b136ea224fe,,,,,,,,,3671,68.8671875,-76.0859375,1,0,0,response3disk,,4,-8.15625,10.84375,1,0,0,rectangle,-8.15625,10.84375,1,0,0,-8.15625,10.84375,1,0,0,1,21,181,1,1,,,,,,,,
,,,,,,,,,,,,,FF,,,,,,,,0.4664,,,,,,,,,,,,,,,,,,,,,,6103101795d08201eb44f6a6,61036c0406437e30c4945f18,2021-07-29_22h05.52.213,Simcolourproject_2stim_asymm_v5,2020.2.10,MacIntel,60,61025ae37ef11b136ea224fe,,,,,,,,,1671,77.94921875,-79.74609375,1,0,0,response3disk,,4,8.28515625,-12.22265625,1,0,0,rectangle,8.28515625,-12.22265625,1,0,0,8.28515625,-12.22265625,1,0,0,1,22,182,133,1,,,,,,,,
,,,,,,,,,,,,,FF,,,,,,,,0.8834,,,,,,,,,,,,,,,,,,,,,,6103101795d08201eb44f6a6,61036c0406437e30c4945f18,2021-07-29_22h05.52.213,Simcolourproject_2stim_asymm_v5,2020.2.10,MacIntel,60,61025ae37ef11b136ea224fe,,,,,,,,,4320,79.32421875,18.87109375,1,0,0,response1disk,,6,19.7734375,-2.8046875,1,0,0,rectangle,79.859375,-52.3828125,1,0,0,12.57421875,-6.984375,1,0,0,1,23,183,61,1,,response3disk_3,TRUE,5,5,"[209,178,262,209,255,31,184,291,290,280,169,273,292,33,139,82,167,25,91,41]",1.3335,rectangle
,,,,,,,,,,,,,FF,,,,,,,,1.0655,,,,,,,,,,,,,,,,,,,,,,6103101795d08201eb44f6a6,61036c0406437e30c4945f18,2021-07-29_22h05.52.213,Simcolourproject_2stim_asymm_v5,2020.2.10,MacIntel,60,61025ae37ef11b136ea224fe,,,,,,,,,2976,83.74609375,39.76171875,1,0,0,response1disk,,6,-3.53125,0.65234375,1,0,0,rectangle,-3.53125,0.65234375,1,0,0,-3.53125,0.65234375,1,0,0,1,24,184,95,1,,,,,,,,
,,,,,,,,,,,,,FF,,,,,,,,0.6496,,,,,,,,,,,,,,,,,,,,,,6103101795d08201eb44f6a6,61036c0406437e30c4945f18,2021-07-29_22h05.52.213,Simcolourproject_2stim_asymm_v5,2020.2.10,MacIntel,60,61025ae37ef11b136ea224fe,,,,,,,,,1548,-52.140625,-80.890625,1,0,0,response5disk,,3,-13.83984375,-6.07421875,1,0,0,rectangle,-13.83984375,-6.07421875,1,0,0,-13.83984375,-6.07421875,1,0,0,1,25,185,134,1,,,,,,,,
,,,,,,,,,,,,,FF,,,,,,,,0.4852,,,,,,,,,,,,,,,,,,,,,,6103101795d08201eb44f6a6,61036c0406437e30c4945f18,2021-07-29_22h05.52.213,Simcolourproject_2stim_asymm_v5,2020.2.10,MacIntel,60,61025ae37ef11b136ea224fe,,,,,,,,,4112,56.62890625,-60.41796875,1,0,0,response3disk,,4,10.10546875,-9.7421875,1,0,0,rectangle,10.10546875,-9.7421875,1,0,0,10.10546875,-9.7421875,1,0,0,1,26,186,130,1,,,,,,,,
,,,,,,,,,,,,,FF,,,,,,,,0.3482,,,,,,,,,,,,,,,,,,,,,,6103101795d08201eb44f6a6,61036c0406437e30c4945f18,2021-07-29_22h05.52.213,Simcolourproject_2stim_asymm_v5,2020.2.10,MacIntel,60,61025ae37ef11b136ea224fe,,,,,,,,,822,66.84375,-26.9375,1,0,0,response3disk,,5,5.71484375,2.3515625,1,0,0,rectangle,5.71484375,2.3515625,1,0,0,5.71484375,2.3515625,1,0,0,1,27,187,6,1,,,,,,,,
,,,,,,,,,,,,,FF,,,,,,,,0.6499,,,,,,,,,,,,,,,,,,,,,,6103101795d08201eb44f6a6,61036c0406437e30c4945f18,2021-07-29_22h05.52.213,Simcolourproject_2stim_asymm_v5,2020.2.10,MacIntel,60,61025ae37ef11b136ea224fe,,,,,,,,,3809,65.6328125,35.265625,1,0,0,response1disk,,6,7.0546875,-3.77734375,1,0,0,rectangle,7.0546875,-3.77734375,1,0,0,7.0546875,-3.77734375,1,0,0,1,28,188,57,1,,,,,,,,
,,,,,,,,,,,,,FF,,,,,,,,0.5819,,,,,,,,,,,,,,,,,,,,,,6103101795d08201eb44f6a6,61036c0406437e30c4945f18,2021-07-29_22h05.52.213,Simcolourproject_2stim_asymm_v5,2020.2.10,MacIntel,60,61025ae37ef11b136ea224fe,,,,,,,,,2903,77.78515625,-33.1875,1,0,0,response3disk,,5,-19.5546875,13.73046875,1,0,0,rectangle,-19.5546875,13.73046875,1,0,0,-19.5546875,13.73046875,1,0,0,1,29,189,18,1,,,,,,,,
,,,,,,,,,,,,,FF,,,,,,,,0.732,,,,,,,,,,,,,,,,,,,,,,6103101795d08201eb44f6a6,61036c0406437e30c4945f18,2021-07-29_22h05.52.213,Simcolourproject_2stim_asymm_v5,2020.2.10,MacIntel,60,61025ae37ef11b136ea224fe,,,,,,,,,3351,90.8203125,-33.890625,1,0,0,response3disk,,5,1.99609375,13.109375,1,0,0,rectangle,1.99609375,13.109375,1,0,0,1.99609375,13.109375,1,0,0,1,30,190,47,1,,,,,,,,
,,,,,,,,,,,,,FF,,,,,,,,0.4665,,,,,,,,,,,,,,,,,,,,,,6103101795d08201eb44f6a6,61036c0406437e30c4945f18,2021-07-29_22h05.52.213,Simcolourproject_2stim_asymm_v5,2020.2.10,MacIntel,60,61025ae37ef11b136ea224fe,,,,,,,,,1087,71.69921875,33.25390625,1,0,0,response1disk,,6,-3.80859375,-16.05078125,1,0,0,rectangle,-3.80859375,-16.05078125,1,0,0,-3.80859375,-16.05078125,1,0,0,1,31,191,158,1,,,,,,,,
,,,,,,,,,,,,,FF,,,,,,,,1.0331,,,,,,,,,,,,,,,,,,,,,,6103101795d08201eb44f6a6,61036c0406437e30c4945f18,2021-07-29_22h05.52.213,Simcolourproject_2stim_asymm_v5,2020.2.10,MacIntel,60,61025ae37ef11b136ea224fe,,,,,,,,,3896,43.28515625,-81.46484375,1,0,0,response3disk,,4,3.53515625,17.8203125,1,0,0,rectangle,3.53515625,17.8203125,1,0,0,3.53515625,17.8203125,1,0,0,1,32,192,96,1,,,,,,,,
,,,,,,,,,,,,,FF,,,,,,,,0.8325,,,,,,,,,,,,,,,,,,,,,,6103101795d08201eb44f6a6,61036c0406437e30c4945f18,2021-07-29_22h05.52.213,Simcolourproject_2stim_asymm_v5,2020.2.10,MacIntel,60,61025ae37ef11b136ea224fe,,,,,,,,,290,77.2734375,33.79296875,1,0,0,response1disk,,6,27.93359375,1,1,0,0,rectangle,27.93359375,1,1,0,0,27.93359375,1,1,0,0,1,33,193,56,1,,,,,,,,
,,,,,,,,,,,,,FF,,,,,,,,0.4168,,,,,,,,,,,,,,,,,,,,,,6103101795d08201eb44f6a6,61036c0406437e30c4945f18,2021-07-29_22h05.52.213,Simcolourproject_2stim_asymm_v5,2020.2.10,MacIntel,60,61025ae37ef11b136ea224fe,,,,,,,,,1192,68.12109375,-26.703125,1,0,0,response3disk,,5,4.828125,4.3359375,1,0,0,rectangle,4.828125,4.3359375,1,0,0,4.828125,4.3359375,1,0,0,1,34,194,127,1,,,,,,,,
,,,,,,,,,,,,,FF,,,,,,,,0.1318,,,,,,,,,,,,,,,,,,,,,,6103101795d08201eb44f6a6,61036c0406437e30c4945f18,2021-07-29_22h05.52.213,Simcolourproject_2stim_asymm_v5,2020.2.10,MacIntel,60,61025ae37ef11b136ea224fe,,,,,,,,,2402,85.75,-17.44921875,1,0,0,response3disk,,5,1.12890625,2.76171875,1,0,0,rectangle,1.12890625,2.76171875,1,0,0,1.12890625,2.76171875,1,0,0,1,35,195,99,1,,,,,,,,
,,,,,,,,,,,,,FF,,,,,,,,0.4318,,,,,,,,,,,,,,,,,,,,,,6103101795d08201eb44f6a6,61036c0406437e30c4945f18,2021-07-29_22h05.52.213,Simcolourproject_2stim_asymm_v5,2020.2.10,MacIntel,60,61025ae37ef11b136ea224fe,,,,,,,,,1994,82.63671875,-88.75,1,0,0,response3disk,,4,2.18359375,-12.3828125,1,0,0,rectangle,2.18359375,-12.3828125,1,0,0,2.18359375,-12.3828125,1,0,0,1,36,196,79,1,,,,,,,,
,,,,,,,,,,,,,FF,,,,,,,,0.4816,,,,,,,,,,,,,,,,,,,,,,6103101795d08201eb44f6a6,61036c0406437e30c4945f18,2021-07-29_22h05.52.213,Simcolourproject_2stim_asymm_v5,2020.2.10,MacIntel,60,61025ae37ef11b136ea224fe,,,,,,,,,3480,-55.20703125,-80.21484375,1,0,0,response5disk,,3,-13.90234375,-8.9296875,1,0,0,rectangle,-13.90234375,-8.9296875,1,0,0,-13.90234375,-8.9296875,1,0,0,1,37,197,69,1,,,,,,,,
,,,,,,,,,,,,,FF,,,,,,,,0.7325,,,,,,,,,,,,,,,,,,,,,,6103101795d08201eb44f6a6,61036c0406437e30c4945f18,2021-07-29_22h05.52.213,Simcolourproject_2stim_asymm_v5,2020.2.10,MacIntel,60,61025ae37ef11b136ea224fe,,,,,,,,,3791,63.1484375,94.4609375,1,0,0,response1disk,,7,21.125,12.703125,1,0,0,rectangle,21.125,12.703125,1,0,0,21.125,12.703125,1,0,0,1,38,198,22,1,,,,,,,,
,,,,,,,,,,,,,FF,,,,,,,,0.3498,,,,,,,,,,,,,,,,,,,,,,6103101795d08201eb44f6a6,61036c0406437e30c4945f18,2021-07-29_22h05.52.213,Simcolourproject_2stim_asymm_v5,2020.2.10,MacIntel,60,61025ae37ef11b136ea224fe,,,,,,,,,833,-61.2734375,-55.140625,1,0,0,response5disk,,2,4.52734375,3.2265625,1,0,0,rectangle,4.52734375,3.2265625,1,0,0,4.52734375,3.2265625,1,0,0,1,39,199,38,1,,,,,,,,
,,,,,,,,,,,,,FF,,,,,,,,0.4331,,,,,,,,,,,,,,,,,,,,,,6103101795d08201eb44f6a6,61036c0406437e30c4945f18,2021-07-29_22h05.52.213,Simcolourproject_2stim_asymm_v5,2020.2.10,MacIntel,60,61025ae37ef11b136ea224fe,,,,,,,,,3059,52.9296875,-44.78515625,1,0,0,response3disk,,5,7.03515625,-7.3515625,1,0,0,rectangle,7.03515625,-7.3515625,1,0,0,7.03515625,-7.3515625,1,0,0,1,40,200,45,1,,,,,,,,
,,,,,,,,,,,,,FF,,,,,,,,0.4837,,,,,,,,,,,,,,,,,,,,,,6103101795d08201eb44f6a6,61036c0406437e30c4945f18,2021-07-29_22h05.52.213,Simcolourproject_2stim_asymm_v5,2020.2.10,MacIntel,60,61025ae37ef11b136ea224fe,,,,,,,,,481,-44.57421875,-50.44140625,1,0,0,response5disk,,3,-18.8125,-11.91796875,1,0,0,rectangle,-18.8125,-11.91796875,1,0,0,-18.8125,-11.91796875,1,0,0,1,41,201,118,1,,,,,,,,
,,,,,,,,,,,,,FF,,,,,,,,1.1973,,,,,,,,,,,,,,,,,,,,,,6103101795d08201eb44f6a6,61036c0406437e30c4945f18,2021-07-29_22h05.52.213,Simcolourproject_2stim_asymm_v5,2020.2.10,MacIntel,60,61025ae37ef11b136ea224fe,,,,,,,,,3146,-64.1640625,37.734375,1,0,0,response7disk,,1,12.79296875,-1.04296875,1,0,0,rectangle,12.79296875,-1.04296875,1,0,0,12.79296875,-1.04296875,1,0,0,1,42,202,60,1,,,,,,,,
,,,,,,,,,,,,,FF,,,,,,,,0.5166,,,,,,,,,,,,,,,,,,,,,,6103101795d08201eb44f6a6,61036c0406437e30c4945f18,2021-07-29_22h05.52.213,Simcolourproject_2stim_asymm_v5,2020.2.10,MacIntel,60,61025ae37ef11b136ea224fe,,,,,,,,,677,58.00390625,-80.453125,1,0,0,response3disk,,4,9.390625,-8.90625,1,0,0,rectangle,9.390625,-8.90625,1,0,0,9.390625,-8.90625,1,0,0,1,43,203,21,1,,,,,,,,
,,,,,,,,,,,,,FF,,,,,,,,0.3661,,,,,,,,,,,,,,,,,,,,,,6103101795d08201eb44f6a6,61036c0406437e30c4945f18,2021-07-29_22h05.52.213,Simcolourproject_2stim_asymm_v5,2020.2.10,MacIntel,60,61025ae37ef11b136ea224fe,,,,,,,,,178,-65.984375,-77.12109375,1,0,0,response5disk,,3,-20.390625,9.23046875,1,0,0,rectangle,-20.390625,9.23046875,1,0,0,-20.390625,9.23046875,1,0,0,1,44,204,36,1,,,,,,,,
,,,,,,,,,,,,,FF,,,,,,,,0.4001,,,,,,,,,,,,,,,,,,,,,,6103101795d08201eb44f6a6,61036c0406437e30c4945f18,2021-07-29_22h05.52.213,Simcolourproject_2stim_asymm_v5,2020.2.10,MacIntel,60,61025ae37ef11b136ea224fe,,,,,,,,,1141,56.58203125,-83.5390625,1,0,0,response3disk,,4,10.66015625,-7.26171875,1,0,0,rectangle,10.66015625,-7.26171875,1,0,0,10.66015625,-7.26171875,1,0,0,1,45,205,81,1,,,,,,,,
,,,,,,,,,,,,,FF,,,,,,,,1.0175,,,,,,,,,,,,,,,,,,,,,,6103101795d08201eb44f6a6,61036c0406437e30c4945f18,2021-07-29_22h05.52.213,Simcolourproject_2stim_asymm_v5,2020.2.10,MacIntel,60,61025ae37ef11b136ea224fe,,,,,,,,,1762,69.66015625,-35.125,1,0,0,response3disk,,5,-8.83984375,-7.4296875,1,0,0,rectangle,-8.83984375,-7.4296875,1,0,0,-8.83984375,-7.4296875,1,0,0,1,46,206,145,1,,,,,,,,
,,,,,,,,,,,,,FF,,,,,,,,0.5326,,,,,,,,,,,,,,,,,,,,,,6103101795d08201eb44f6a6,61036c0406437e30c4945f18,2021-07-29_22h05.52.213,Simcolourproject_2stim_asymm_v5,2020.2.10,MacIntel,60,61025ae37ef11b136ea224fe,,,,,,,,,2743,81.0625,-61.40625,1,0,0,response3disk,,5,-5.1640625,7.234375,1,0,0,rectangle,-5.1640625,7.234375,1,0,0,-5.1640625,7.234375,1,0,0,1,47,207,141,1,,,,,,,,
,,,,,,,,,,,,,FF,,,,,,,,0.7161,,,,,,,,,,,,,,,,,,,,,,6103101795d08201eb44f6a6,61036c0406437e30c4945f18,2021-07-29_22h05.52.213,Simcolourproject_2stim_asymm_v5,2020.2.10,MacIntel,60,61025ae37ef11b136ea224fe,,,,,,,,,4114,73.96875,-36.36328125,1,0,0,response3disk,,5,9.8046875,-0.25,1,0,0,rectangle,-54.7421875,108.9570313,1,0,0,-15.0234375,-11.02734375,1,0,0,1,48,208,85,1,,response7disk_3,TRUE,0,0,"[209,178,262,209,255,31,184,291,290,280,169,273,292,33,139,82,167,25,91,41]",1.4654,rectangle
,,,,,,,,,,,,,FF,,,,,,,,0.5998,,,,,,,,,,,,,,,,,,,,,,6103101795d08201eb44f6a6,61036c0406437e30c4945f18,2021-07-29_22h05.52.213,Simcolourproject_2stim_asymm_v5,2020.2.10,MacIntel,60,61025ae37ef11b136ea224fe,,,,,,,,,2045,78.23046875,36.4609375,1,0,0,response1disk,,6,20.98046875,6.1328125,1,0,0,rectangle,20.98046875,6.1328125,1,0,0,20.98046875,6.1328125,1,0,0,1,49,209,49,1,,,,,,,,
,,,,,,,,,,,,,FF,,,,,,,,1.0491,,,,,,,,,,,,,,,,,,,,,,6103101795d08201eb44f6a6,61036c0406437e30c4945f18,2021-07-29_22h05.52.213,Simcolourproject_2stim_asymm_v5,2020.2.10,MacIntel,60,61025ae37ef11b136ea224fe,,,,,,,,,191,37.93359375,-93.234375,1,0,0,response3disk,,4,4.5390625,-13,1,0,0,rectangle,4.5390625,-13,1,0,0,4.5390625,-13,1,0,0,1,50,210,2,1,,,,,,,,
,,,,,,,,,,,,,FF,,,,,,,,0.6823,,,,,,,,,,,,,,,,,,,,,,6103101795d08201eb44f6a6,61036c0406437e30c4945f18,2021-07-29_22h05.52.213,Simcolourproject_2stim_asymm_v5,2020.2.10,MacIntel,60,61025ae37ef11b136ea224fe,,,,,,,,,520,19.44921875,-68.50390625,1,0,0,response3disk,,4,-10.6015625,-12.98828125,1,0,0,rectangle,-10.6015625,-12.98828125,1,0,0,-10.6015625,-12.98828125,1,0,0,1,51,211,154,1,,,,,,,,
,,,,,,,,,,,,,FF,,,,,,,,0.4825,,,,,,,,,,,,,,,,,,,,,,6103101795d08201eb44f6a6,61036c0406437e30c4945f18,2021-07-29_22h05.52.213,Simcolourproject_2stim_asymm_v5,2020.2.10,MacIntel,60,61025ae37ef11b136ea224fe,,,,,,,,,1430,90.40625,-49.8828125,1,0,0,response3disk,,5,21.80078125,15,1,0,0,rectangle,21.80078125,15,1,0,0,21.80078125,15,1,0,0,1,52,212,103,1,,,,,,,,
,,,,,,,,,,,,,FF,,,,,,,,0.3491,,,,,,,,,,,,,,,,,,,,,,6103101795d08201eb44f6a6,61036c0406437e30c4945f18,2021-07-29_22h05.52.213,Simcolourproject_2stim_asymm_v5,2020.2.10,MacIntel,60,61025ae37ef11b136ea224fe,,,,,,,,,2638,104.9765625,-36.59765625,1,0,0,response3disk,,5,9.91796875,-9.703125,1,0,0,rectangle,9.91796875,-9.703125,1,0,0,9.91796875,-9.703125,1,0,0,1,53,213,87,1,,,,,,,,
,,,,,,,,,,,,,FF,,,,,,,,0.5837,,,,,,,,,,,,,,,,,,,,,,6103101795d08201eb44f6a6,61036c0406437e30c4945f18,2021-07-29_22h05.52.213,Simcolourproject_2stim_asymm_v5,2020.2.10,MacIntel,60,61025ae37ef11b136ea224fe,,,,,,,,,962,59.34375,-32.7578125,1,0,0,response3disk,,5,-14.39453125,1.42578125,1,0,0,rectangle,-14.39453125,1.42578125,1,0,0,-14.39453125,1.42578125,1,0,0,1,54,214,115,1,,,,,,,,
,,,,,,,,,,,,,FF,,,,,,,,0.4998,,,,,,,,,,,,,,,,,,,,,,6103101795d08201eb44f6a6,61036c0406437e30c4945f18,2021-07-29_22h05.52.213,Simcolourproject_2stim_asymm_v5,2020.2.10,MacIntel,60,61025ae37ef11b136ea224fe,,,,,,,,,1925,89.46875,19.390625,1,0,0,response1disk,,6,23,7.72265625,1,0,0,rectangle,23,7.72265625,1,0,0,23,7.72265625,1,0,0,1,55,215,43,1,,,,,,,,
,,,,,,,,,,,,,FF,,,,,,,,0.501,,,,,,,,,,,,,,,,,,,,,,6103101795d08201eb44f6a6,61036c0406437e30c4945f18,2021-07-29_22h05.52.213,Simcolourproject_2stim_asymm_v5,2020.2.10,MacIntel,60,61025ae37ef11b136ea224fe,,,,,,,,,2699,76.67578125,42.01953125,1,0,0,response1disk,,6,12.09375,16.58984375,1,0,0,rectangle,12.09375,16.58984375,1,0,0,12.09375,16.58984375,1,0,0,1,56,216,86,1,,,,,,,,
,,,,,,,,,,,,,FF,,,,,,,,0.5656,,,,,,,,,,,,,,,,,,,,,,6103101795d08201eb44f6a6,61036c0406437e30c4945f18,2021-07-29_22h05.52.213,Simcolourproject_2stim_asymm_v5,2020.2.10,MacIntel,60,61025ae37ef11b136ea224fe,,,,,,,,,607,68.25390625,34.98046875,1,0,0,response1disk,,6,-3.0546875,4.07421875,1,0,0,rectangle,-3.0546875,4.07421875,1,0,0,-3.0546875,4.07421875,1,0,0,1,57,217,41,1,,,,,,,,
,,,,,,,,,,,,,FF,,,,,,,,0.1329,,,,,,,,,,,,,,,,,,,,,,6103101795d08201eb44f6a6,61036c0406437e30c4945f18,2021-07-29_22h05.52.213,Simcolourproject_2stim_asymm_v5,2020.2.10,MacIntel,60,61025ae37ef11b136ea224fe,,,,,,,,,4327,75.17578125,24.1953125,1,0,0,response1disk,,6,24.05859375,11.00390625,1,0,0,rectangle,24.05859375,11.00390625,1,0,0,24.05859375,11.00390625,1,0,0,1,58,218,129,1,,,,,,,,
,,,,,,,,,,,,,FF,,,,,,,,0.667,,,,,,,,,,,,,,,,,,,,,,6103101795d08201eb44f6a6,61036c0406437e30c4945f18,2021-07-29_22h05.52.213,Simcolourproject_2stim_asymm_v5,2020.2.10,MacIntel,60,61025ae37ef11b136ea224fe,,,,,,,,,3119,72.8046875,-33.99609375,1,0,0,response3disk,,5,-7.15625,-7.8671875,1,0,0,rectangle,-7.15625,-7.8671875,1,0,0,-7.15625,-7.8671875,1,0,0,1,59,219,3,1,,,,,,,,
,,,,,,,,,,,,,FF,,,,,,,,0.3992,,,,,,,,,,,,,,,,,,,,,,6103101795d08201eb44f6a6,61036c0406437e30c4945f18,2021-07-29_22h05.52.213,Simcolourproject_2stim_asymm_v5,2020.2.10,MacIntel,60,61025ae37ef11b136ea224fe,,,,,,,,,415,80.546875,-63.60546875,1,0,0,response3disk,,5,13.484375,-6.2421875,1,0,0,rectangle,13.484375,-6.2421875,1,0,0,13.484375,-6.2421875,1,0,0,1,60,220,34,1,,,,,,,,
,,,,,,,,,,,,,FF,,,,,,,,0.632,,,,,,,,,,,,,,,,,,,,,,6103101795d08201eb44f6a6,61036c0406437e30c4945f18,2021-07-29_22h05.52.213,Simcolourproject_2stim_asymm_v5,2020.2.10,MacIntel,60,61025ae37ef11b136ea224fe,,,,,,,,,852,-85.8515625,-36.296875,1,0,0,response5disk,,2,16.921875,6.46875,1,0,0,rectangle,16.921875,6.46875,1,0,0,16.921875,6.46875,1,0,0,1,61,221,112,1,,,,,,,,
,,,,,,,,,,,,,FF,,,,,,,,0.4823,,,,,,,,,,,,,,,,,,,,,,6103101795d08201eb44f6a6,61036c0406437e30c4945f18,2021-07-29_22h05.52.213,Simcolourproject_2stim_asymm_v5,2020.2.10,MacIntel,60,61025ae37ef11b136ea224fe,,,,,,,,,846,-60.61328125,-84.19921875,1,0,0,response5disk,,3,8.69921875,-0.65625,1,0,0,rectangle,8.69921875,-0.65625,1,0,0,8.69921875,-0.65625,1,0,0,1,62,222,73,1,,,,,,,,
,,,,,,,,,,,,,FF,,,,,,,,0.4514,,,,,,,,,,,,,,,,,,,,,,6103101795d08201eb44f6a6,61036c0406437e30c4945f18,2021-07-29_22h05.52.213,Simcolourproject_2stim_asymm_v5,2020.2.10,MacIntel,60,61025ae37ef11b136ea224fe,,,,,,,,,787,72.4453125,-95.5390625,1,0,0,response3disk,,4,11.46484375,-5.0546875,1,0,0,rectangle,11.46484375,-5.0546875,1,0,0,11.46484375,-5.0546875,1,0,0,1,63,223,52,1,,,,,,,,
,,,,,,,,,,,,,FF,,,,,,,,0.5662,,,,,,,,,,,,,,,,,,,,,,6103101795d08201eb44f6a6,61036c0406437e30c4945f18,2021-07-29_22h05.52.213,Simcolourproject_2stim_asymm_v5,2020.2.10,MacIntel,60,61025ae37ef11b136ea224fe,,,,,,,,,126,57.09765625,-54.86328125,1,0,0,response3disk,,5,-12.0625,1.26171875,1,0,0,rectangle,-12.0625,1.26171875,1,0,0,-12.0625,1.26171875,1,0,0,1,64,224,11,1,,,,,,,,
,,,,,,,,,,,,,FF,,,,,,,,0.4002,,,,,,,,,,,,,,,,,,,,,,6103101795d08201eb44f6a6,61036c0406437e30c4945f18,2021-07-29_22h05.52.213,Simcolourproject_2stim_asymm_v5,2020.2.10,MacIntel,60,61025ae37ef11b136ea224fe,,,,,,,,,1191,68.0859375,-25.0703125,1,0,0,response3disk,,5,-0.328125,-12.65234375,1,0,0,rectangle,-0.328125,-12.65234375,1,0,0,-0.328125,-12.65234375,1,0,0,1,65,225,142,1,,,,,,,,
,,,,,,,,,,,,,FF,,,,,,,,0.8673,,,,,,,,,,,,,,,,,,,,,,6103101795d08201eb44f6a6,61036c0406437e30c4945f18,2021-07-29_22h05.52.213,Simcolourproject_2stim_asymm_v5,2020.2.10,MacIntel,60,61025ae37ef11b136ea224fe,,,,,,,,,3089,-50.859375,-90.05859375,1,0,0,response5disk,,3,-8.2421875,-8.33984375,1,0,0,rectangle,-8.2421875,-8.33984375,1,0,0,-8.2421875,-8.33984375,1,0,0,1,66,226,29,1,,,,,,,,
,,,,,,,,,,,,,FF,,,,,,,,2.5833,,,,,,,,,,,,,,,,,,,,,,6103101795d08201eb44f6a6,61036c0406437e30c4945f18,2021-07-29_22h05.52.213,Simcolourproject_2stim_asymm_v5,2020.2.10,MacIntel,60,61025ae37ef11b136ea224fe,,,,,,,,,360,59.80859375,-92.50390625,1,0,0,response3disk,,4,18.38671875,13.64453125,1,0,0,rectangle,18.38671875,13.64453125,1,0,0,18.38671875,13.64453125,1,0,0,1,67,227,37,1,,,,,,,,
,,,,,,,,,,,,,FF,,,,,,,,0.3961,,,,,,,,,,,,,,,,,,,,,,6103101795d08201eb44f6a6,61036c0406437e30c4945f18,2021-07-29_22h05.52.213,Simcolourproject_2stim_asymm_v5,2020.2.10,MacIntel,60,61025ae37ef11b136ea224fe,,,,,,,,,314,95.390625,-57.84765625,1,0,0,response3disk,,5,6.21875,-3.109375,1,0,0,rectangle,6.21875,-3.109375,1,0,0,6.21875,-3.109375,1,0,0,1,68,228,97,1,,,,,,,,
,,,,,,,,,,,,,FF,,,,,,,,0.1334,,,,,,,,,,,,,,,,,,,,,,6103101795d08201eb44f6a6,61036c0406437e30c4945f18,2021-07-29_22h05.52.213,Simcolourproject_2stim_asymm_v5,2020.2.10,MacIntel,60,61025ae37ef11b136ea224fe,,,,,,,,,1184,81.4609375,-33.5078125,1,0,0,response3disk,,5,2.3125,-1.2109375,1,0,0,rectangle,2.3125,-1.2109375,1,0,0,2.3125,-1.2109375,1,0,0,1,69,229,138,1,,,,,,,,
,,,,,,,,,,,,,FF,,,,,,,,0.1501,,,,,,,,,,,,,,,,,,,,,,6103101795d08201eb44f6a6,61036c0406437e30c4945f18,2021-07-29_22h05.52.213,Simcolourproject_2stim_asymm_v5,2020.2.10,MacIntel,60,61025ae37ef11b136ea224fe,,,,,,,,,3412,94.66796875,-21.62109375,1,0,0,response3disk,,5,5.84765625,6.10546875,1,0,0,rectangle,5.84765625,6.10546875,1,0,0,5.84765625,6.10546875,1,0,0,1,70,230,27,1,,,,,,,,
,,,,,,,,,,,,,FF,,,,,,,,0.2165,,,,,,,,,,,,,,,,,,,,,,6103101795d08201eb44f6a6,61036c0406437e30c4945f18,2021-07-29_22h05.52.213,Simcolourproject_2stim_asymm_v5,2020.2.10,MacIntel,60,61025ae37ef11b136ea224fe,,,,,,,,,3490,105.40625,-17.18359375,1,0,0,response3disk,,5,-20.44140625,8.24609375,1,0,0,rectangle,-20.44140625,8.24609375,1,0,0,-20.44140625,8.24609375,1,0,0,1,71,231,124,1,,,,,,,,
,,,,,,,,,,,,,FF,,,,,,,,0.1669,,,,,,,,,,,,,,,,,,,,,,6103101795d08201eb44f6a6,61036c0406437e30c4945f18,2021-07-29_22h05.52.213,Simcolourproject_2stim_asymm_v5,2020.2.10,MacIntel,60,61025ae37ef11b136ea224fe,,,,,,,,,3810,99.6640625,-30.1875,1,0,0,response3disk,,5,-2.69140625,-1.8671875,1,0,0,rectangle,-2.69140625,-1.8671875,1,0,0,-2.69140625,-1.8671875,1,0,0,1,72,232,54,1,,,,,,,,
,,,,,,,,,,,,,FF,,,,,,,,0.1663,,,,,,,,,,,,,,,,,,,,,,6103101795d08201eb44f6a6,61036c0406437e30c4945f18,2021-07-29_22h05.52.213,Simcolourproject_2stim_asymm_v5,2020.2.10,MacIntel,60,61025ae37ef11b136ea224fe,,,,,,,,,3031,107.515625,-23.67578125,1,0,0,response3disk,,5,22.58984375,-4.45703125,1,0,0,rectangle,22.58984375,-4.45703125,1,0,0,22.58984375,-4.45703125,1,0,0,1,73,233,114,1,,,,,,,,
,,,,,,,,,,,,,FF,,,,,,,,0.7495,,,,,,,,,,,,,,,,,,,,,,6103101795d08201eb44f6a6,61036c0406437e30c4945f18,2021-07-29_22h05.52.213,Simcolourproject_2stim_asymm_v5,2020.2.10,MacIntel,60,61025ae37ef11b136ea224fe,,,,,,,,,2991,48.18359375,76.328125,1,0,0,response1disk,,7,-30.81640625,-17.28515625,1,0,0,rectangle,-30.81640625,-17.28515625,1,0,0,-30.81640625,-17.28515625,1,0,0,1,74,234,66,1,,,,,,,,
,,,,,,,,,,,,,FF,,,,,,,,0.1973,,,,,,,,,,,,,,,,,,,,,,6103101795d08201eb44f6a6,61036c0406437e30c4945f18,2021-07-29_22h05.52.213,Simcolourproject_2stim_asymm_v5,2020.2.10,MacIntel,60,61025ae37ef11b136ea224fe,,,,,,,,,2605,88.30078125,15.94921875,1,0,0,response1disk,,6,1.7109375,-2.859375,1,0,0,rectangle,1.7109375,-2.859375,1,0,0,1.7109375,-2.859375,1,0,0,1,75,235,30,1,,,,,,,,
,,,,,,,,,,,,,FF,,,,,,,,0.5488,,,,,,,,,,,,,,,,,,,,,,6103101795d08201eb44f6a6,61036c0406437e30c4945f18,2021-07-29_22h05.52.213,Simcolourproject_2stim_asymm_v5,2020.2.10,MacIntel,60,61025ae37ef11b136ea224fe,,,,,,,,,3662,-25.34375,-60.7578125,1,0,0,response5disk,,3,-4.1953125,-10.45703125,1,0,0,rectangle,-4.1953125,-10.45703125,1,0,0,-4.1953125,-10.45703125,1,0,0,1,76,236,10,1,,,,,,,,
,,,,,,,,,,,,,FF,,,,,,,,0.4496,,,,,,,,,,,,,,,,,,,,,,6103101795d08201eb44f6a6,61036c0406437e30c4945f18,2021-07-29_22h05.52.213,Simcolourproject_2stim_asymm_v5,2020.2.10,MacIntel,60,61025ae37ef11b136ea224fe,,,,,,,,,2586,64.6171875,-25.97265625,1,0,0,response3disk,,5,10.47265625,-9.046875,1,0,0,rectangle,10.47265625,-9.046875,1,0,0,10.47265625,-9.046875,1,0,0,1,77,237,117,1,,,,,,,,
,,,,,,,,,,,,,FF,,,,,,,,0.85,,,,,,,,,,,,,,,,,,,,,,6103101795d08201eb44f6a6,61036c0406437e30c4945f18,2021-07-29_22h05.52.213,Simcolourproject_2stim_asymm_v5,2020.2.10,MacIntel,60,61025ae37ef11b136ea224fe,,,,,,,,,3883,55.35546875,-26.37890625,1,0,0,response3disk,,5,10.64453125,-3.05078125,1,0,0,rectangle,10.64453125,-3.05078125,1,0,0,10.64453125,-3.05078125,1,0,0,1,78,238,9,1,,,,,,,,
,,,,,,,,,,,,,FF,,,,,,,,1.1832,,,,,,,,,,,,,,,,,,,,,,6103101795d08201eb44f6a6,61036c0406437e30c4945f18,2021-07-29_22h05.52.213,Simcolourproject_2stim_asymm_v5,2020.2.10,MacIntel,60,61025ae37ef11b136ea224fe,,,,,,,,,3305,33.984375,-62.6640625,1,0,0,response3disk,,4,-1.73046875,-6.8828125,1,0,0,rectangle,-1.73046875,-6.8828125,1,0,0,-1.73046875,-6.8828125,1,0,0,1,79,239,59,1,,,,,,,,
,,,,,,,,,,,,,FF,,,,,,,,0.4164,,,,,,,,,,,,,,,,,,,,,,6103101795d08201eb44f6a6,61036c0406437e30c4945f18,2021-07-29_22h05.52.213,Simcolourproject_2stim_asymm_v5,2020.2.10,MacIntel,60,61025ae37ef11b136ea224fe,,,,,,,,,1179,70.47265625,-30.60546875,1,0,0,response3disk,,5,23.28515625,-3.37109375,1,0,0,rectangle,23.28515625,-3.37109375,1,0,0,23.28515625,-3.37109375,1,0,0,1,80,240,67,1,,,,,,,,
,,,,,,,,,,,,,FF,,,,,,,,0.5014,,,,,,,,,,,,,,,,,,,,,,6103101795d08201eb44f6a6,61036c0406437e30c4945f18,2021-07-29_22h05.52.213,Simcolourproject_2stim_asymm_v5,2020.2.10,MacIntel,60,61025ae37ef11b136ea224fe,,,,,,,,,1839,89.5,-34.1484375,1,0,0,response3disk,,5,-4.20703125,-2.640625,1,0,0,rectangle,-4.20703125,-2.640625,1,0,0,-4.20703125,-2.640625,1,0,0,1,81,241,123,1,,,,,,,,
,,,,,,,,,,,,,FF,,,,,,,,0.5828,,,,,,,,,,,,,,,,,,,,,,6103101795d08201eb44f6a6,61036c0406437e30c4945f18,2021-07-29_22h05.52.213,Simcolourproject_2stim_asymm_v5,2020.2.10,MacIntel,60,61025ae37ef11b136ea224fe,,,,,,,,,875,54.09765625,-49.03515625,1,0,0,response3disk,,5,1.69921875,-17.546875,1,0,0,rectangle,1.69921875,-17.546875,1,0,0,1.69921875,-17.546875,1,0,0,1,82,242,7,1,,,,,,,,
,,,,,,,,,,,,,FF,,,,,,,,0.4836,,,,,,,,,,,,,,,,,,,,,,6103101795d08201eb44f6a6,61036c0406437e30c4945f18,2021-07-29_22h05.52.213,Simcolourproject_2stim_asymm_v5,2020.2.10,MacIntel,60,61025ae37ef11b136ea224fe,,,,,,,,,3754,73.90625,-55.4765625,1,0,0,response3disk,,5,-0.03515625,-0.93359375,1,0,0,rectangle,-0.03515625,-0.93359375,1,0,0,-0.03515625,-0.93359375,1,0,0,1,83,243,68,1,,,,,,,,
,,,,,,,,,,,,,FF,,,,,,,,0.45,,,,,,,,,,,,,,,,,,,,,,6103101795d08201eb44f6a6,61036c0406437e30c4945f18,2021-07-29_22h05.52.213,Simcolourproject_2stim_asymm_v5,2020.2.10,MacIntel,60,61025ae37ef11b136ea224fe,,,,,,,,,2854,88.82421875,-70.02734375,1,0,0,response3disk,,5,14.40625,-13.6953125,1,0,0,rectangle,14.40625,-13.6953125,1,0,0,14.40625,-13.6953125,1,0,0,1,84,244,93,1,,,,,,,,
,,,,,,,,,,,,,FF,,,,,,,,0.449,,,,,,,,,,,,,,,,,,,,,,6103101795d08201eb44f6a6,61036c0406437e30c4945f18,2021-07-29_22h05.52.213,Simcolourproject_2stim_asymm_v5,2020.2.10,MacIntel,60,61025ae37ef11b136ea224fe,,,,,,,,,2144,83.2734375,-41.359375,1,0,0,response3disk,,5,-5.5703125,-1.2265625,1,0,0,rectangle,-5.5703125,-1.2265625,1,0,0,-5.5703125,-1.2265625,1,0,0,1,85,245,71,1,,,,,,,,
,,,,,,,,,,,,,FF,,,,,,,,0.4503,,,,,,,,,,,,,,,,,,,,,,6103101795d08201eb44f6a6,61036c0406437e30c4945f18,2021-07-29_22h05.52.213,Simcolourproject_2stim_asymm_v5,2020.2.10,MacIntel,60,61025ae37ef11b136ea224fe,,,,,,,,,2954,74.14453125,-47.85546875,1,0,0,response3disk,,5,-14.51171875,-16.23046875,1,0,0,rectangle,-14.51171875,-16.23046875,1,0,0,-14.51171875,-16.23046875,1,0,0,1,86,246,46,1,,,,,,,,
,,,,,,,,,,,,,FF,,,,,,,,0.4333,,,,,,,,,,,,,,,,,,,,,,6103101795d08201eb44f6a6,61036c0406437e30c4945f18,2021-07-29_22h05.52.213,Simcolourproject_2stim_asymm_v5,2020.2.10,MacIntel,60,61025ae37ef11b136ea224fe,,,,,,,,,748,76.6484375,-51.90625,1,0,0,response3disk,,5,-25.32421875,-2.28515625,1,0,0,rectangle,-25.32421875,-2.28515625,1,0,0,-25.32421875,-2.28515625,1,0,0,1,87,247,148,1,,,,,,,,
,,,,,,,,,,,,,FF,,,,,,,,0.4172,,,,,,,,,,,,,,,,,,,,,,6103101795d08201eb44f6a6,61036c0406437e30c4945f18,2021-07-29_22h05.52.213,Simcolourproject_2stim_asymm_v5,2020.2.10,MacIntel,60,61025ae37ef11b136ea224fe,,,,,,,,,1510,109.0507813,-58.55859375,1,0,0,response3disk,,5,-17.671875,-0.17578125,1,0,0,rectangle,-17.671875,-0.17578125,1,0,0,-17.671875,-0.17578125,1,0,0,1,88,248,12,1,,,,,,,,
