key_resp.keys,key_resp.rt,key_resp_14.keys,key_resp_14.rt,key_resp_15.keys,key_resp_15.rt,key_resp_17.keys,key_resp_17.rt,key_resp_9.keys,key_resp_9.rt,key_resp_10.keys,key_resp_10.rt,practice_comparison,Ecc,mouse_5.x,mouse_5.y,mouse_5.leftButton,mouse_5.midButton,mouse_5.rightButton,mouse_5.clicked_name,pracsimilarity,response_time,mouse_10.x,mouse_10.y,mouse_10.leftButton,mouse_10.midButton,mouse_10.rightButton,mouse_10.clicked_name,mouse_7.x,mouse_7.y,mouse_7.leftButton,mouse_7.midButton,mouse_7.rightButton,mouse_6.x,mouse_6.y,mouse_6.leftButton,mouse_6.midButton,mouse_6.rightButton,duringprac.thisRepN,duringprac.thisTrialN,duringprac.thisN,duringprac.thisIndex,duringprac.ran,participant,session,date,expName,psychopyVersion,OS,frameRate,study_id,mouse_7.clicked_name,catchpracsimilarity,catch_response_time,catchnumberprac,catchtrialorderprac,mouse_6.clicked_name,key_resp_22.keys,key_resp_22.rt,realcomparison,mouse.x,mouse.y,mouse.leftButton,mouse.midButton,mouse.rightButton,mouse.clicked_name,Colour2,similarity,mouse_2.x,mouse_2.y,mouse_2.leftButton,mouse_2.midButton,mouse_2.rightButton,mouse_2.clicked_name,mouse_3.x,mouse_3.y,mouse_3.leftButton,mouse_3.midButton,mouse_3.rightButton,mouse_11.x,mouse_11.y,mouse_11.leftButton,mouse_11.midButton,mouse_11.rightButton,trials_2.thisRepN,trials_2.thisTrialN,trials_2.thisN,trials_2.thisIndex,trials_2.ran,Colour1,mouse_3.clicked_name,catchornah,catchsimilarity,catchnumber,catchtrialorder,catchRT,mouse_11.clicked_name
space,1.0952,space,15.771,space,23.6362,space,9.7737,space,0.6941,space,4.5992,27,PF,-35.98352051,-89.4588623,1,0,0,response5disk_5,3,4.2029,3.76776123,4.823303223,1,0,0,rectangle_8,3.76776123,4.823303223,1,0,0,3.76776123,4.823303223,1,0,0,0,0,0,1,1,6103645ddeeb9221c771e721,610368abf9c6dac72b80afc8,2021-07-29_22h50.10.188,Simcolourproject_2stim_asymm_v5,2020.2.10,MacIntel,60,61025ae37ef11b136ea224fe,,,,,,,,,,,,,,,,,,,,,,,,,,,,,,,,,,,,,,,,,,,,,,
,,,,,,,,,,,,44,FF,-80.12713623,-43.06781006,1,0,0,response5disk_5,2,2.3967,9.810241699,-4.57409668,1,0,0,rectangle_8,-98.67346191,-35.94281006,1,0,0,8.105285645,-7.786682129,1,0,0,0,1,1,5,1,6103645ddeeb9221c771e721,610368abf9c6dac72b80afc8,2021-07-29_22h50.10.188,Simcolourproject_2stim_asymm_v5,2020.2.10,MacIntel,60,61025ae37ef11b136ea224fe,response5disk_7,2,2.5681,2,"[2,5]",rectangle_4,,,,,,,,,,,,,,,,,,,,,,,,,,,,,,,,,,,,,,,,
,,,,,,,,,,,,121,FF,57.31103516,-40.33044434,1,0,0,response3disk_5,5,4.0668,-5.269836426,5.67175293,1,0,0,rectangle_8,-5.269836426,5.67175293,1,0,0,-5.269836426,5.67175293,1,0,0,0,2,2,0,1,6103645ddeeb9221c771e721,610368abf9c6dac72b80afc8,2021-07-29_22h50.10.188,Simcolourproject_2stim_asymm_v5,2020.2.10,MacIntel,60,61025ae37ef11b136ea224fe,,,,,,,,,,,,,,,,,,,,,,,,,,,,,,,,,,,,,,,,,,,,,,
,,,,,,,,,,,,10,PF,87.33209229,29.69577026,1,0,0,response1disk_5,6,3.2506,-8.390625,-3.396087646,1,0,0,rectangle_8,-8.390625,-3.396087646,1,0,0,-8.390625,-3.396087646,1,0,0,0,3,3,6,1,6103645ddeeb9221c771e721,610368abf9c6dac72b80afc8,2021-07-29_22h50.10.188,Simcolourproject_2stim_asymm_v5,2020.2.10,MacIntel,60,61025ae37ef11b136ea224fe,,,,,,,,,,,,,,,,,,,,,,,,,,,,,,,,,,,,,,,,,,,,,,
,,,,,,,,,,,,114,FF,-82.56402588,48.71582031,1,0,0,response7disk_5,1,2.9177,-15.2020874,-7.286132813,1,0,0,rectangle_8,-102.7129517,-48.85931396,1,0,0,-0.709350586,-7.020843506,1,0,0,0,4,4,3,1,6103645ddeeb9221c771e721,610368abf9c6dac72b80afc8,2021-07-29_22h50.10.188,Simcolourproject_2stim_asymm_v5,2020.2.10,MacIntel,60,61025ae37ef11b136ea224fe,response5disk_7,2,1.8656,2,"[2,5]",rectangle_4,,,,,,,,,,,,,,,,,,,,,,,,,,,,,,,,,,,,,,,,
,,,,,,,,,,,,105,PF,86.81451416,-33.88342285,1,0,0,response3disk_5,5,2.3826,-4.04083252,4.127746582,1,0,0,rectangle_8,-4.04083252,4.127746582,1,0,0,-4.04083252,4.127746582,1,0,0,0,5,5,4,1,6103645ddeeb9221c771e721,610368abf9c6dac72b80afc8,2021-07-29_22h50.10.188,Simcolourproject_2stim_asymm_v5,2020.2.10,MacIntel,60,61025ae37ef11b136ea224fe,,,,,,,,,,,,,,,,,,,,,,,,,,,,,,,,,,,,,,,,,,,,,,
,,,,,,,,,,,,157,PF,74.73376465,34.59310913,1,0,0,response1disk_5,6,2.5841,-7.244812012,0.200714111,1,0,0,rectangle_8,-7.244812012,0.200714111,1,0,0,-7.244812012,0.200714111,1,0,0,0,6,6,2,1,6103645ddeeb9221c771e721,610368abf9c6dac72b80afc8,2021-07-29_22h50.10.188,Simcolourproject_2stim_asymm_v5,2020.2.10,MacIntel,60,61025ae37ef11b136ea224fe,,,,,,,,,,,,,,,,,,,,,,,,,,,,,,,,,,,,,,,,,,,,,,
,,,,,,,,,,,,,FF,,,,,,,,2.5829,,,,,,,,,,,,,,,,,,,,,,6103645ddeeb9221c771e721,610368abf9c6dac72b80afc8,2021-07-29_22h50.10.188,Simcolourproject_2stim_asymm_v5,2020.2.10,MacIntel,60,61025ae37ef11b136ea224fe,,,,,,,space,2.5262,2669,-36.83691406,-72.2890625,1,0,0,response5disk,,3,-2.928222656,-4.75592041,1,0,0,rectangle,-2.928222656,-4.75592041,1,0,0,-2.928222656,-4.75592041,1,0,0,0,0,0,31,1,,,,,,,,
,,,,,,,,,,,,,FF,,,,,,,,2.5836,,,,,,,,,,,,,,,,,,,,,,6103645ddeeb9221c771e721,610368abf9c6dac72b80afc8,2021-07-29_22h50.10.188,Simcolourproject_2stim_asymm_v5,2020.2.10,MacIntel,60,61025ae37ef11b136ea224fe,,,,,,,,,105,-46.26953125,-81.29162598,1,0,0,response5disk,,3,-8.806335449,3.947631836,1,0,0,rectangle,-8.806335449,3.947631836,1,0,0,-8.806335449,3.947631836,1,0,0,0,1,1,10,1,,,,,,,,
,,,,,,,,,,,,,FF,,,,,,,,1.9001,,,,,,,,,,,,,,,,,,,,,,6103645ddeeb9221c771e721,610368abf9c6dac72b80afc8,2021-07-29_22h50.10.188,Simcolourproject_2stim_asymm_v5,2020.2.10,MacIntel,60,61025ae37ef11b136ea224fe,,,,,,,,,3262,93.22827148,35.47665405,1,0,0,response1disk,,6,13.89807129,-0.132019043,1,0,0,rectangle,13.89807129,-0.132019043,1,0,0,13.89807129,-0.132019043,1,0,0,0,2,2,41,1,,,,,,,,
,,,,,,,,,,,,,FF,,,,,,,,1.867,,,,,,,,,,,,,,,,,,,,,,6103645ddeeb9221c771e721,610368abf9c6dac72b80afc8,2021-07-29_22h50.10.188,Simcolourproject_2stim_asymm_v5,2020.2.10,MacIntel,60,61025ae37ef11b136ea224fe,,,,,,,,,3090,-90.27319336,-57.18597412,1,0,0,response5disk,,2,-13.85748291,-2.447875977,1,0,0,rectangle,-13.85748291,-2.447875977,1,0,0,-13.85748291,-2.447875977,1,0,0,0,3,3,54,1,,,,,,,,
,,,,,,,,,,,,,FF,,,,,,,,3.6665,,,,,,,,,,,,,,,,,,,,,,6103645ddeeb9221c771e721,610368abf9c6dac72b80afc8,2021-07-29_22h50.10.188,Simcolourproject_2stim_asymm_v5,2020.2.10,MacIntel,60,61025ae37ef11b136ea224fe,,,,,,,,,4073,-74.20263672,27.65512085,1,0,0,response7disk,,1,-5.909179688,-8.264892578,1,0,0,rectangle,-5.909179688,-8.264892578,1,0,0,-5.909179688,-8.264892578,1,0,0,0,4,4,118,1,,,,,,,,
,,,,,,,,,,,,,FF,,,,,,,,1.4327,,,,,,,,,,,,,,,,,,,,,,6103645ddeeb9221c771e721,610368abf9c6dac72b80afc8,2021-07-29_22h50.10.188,Simcolourproject_2stim_asymm_v5,2020.2.10,MacIntel,60,61025ae37ef11b136ea224fe,,,,,,,,,3983,-28.59741211,-71.58459473,1,0,0,response5disk,,3,-6.176696777,4.886749268,1,0,0,rectangle,-6.176696777,4.886749268,1,0,0,-6.176696777,4.886749268,1,0,0,0,5,5,111,1,,,,,,,,
,,,,,,,,,,,,,FF,,,,,,,,1.2325,,,,,,,,,,,,,,,,,,,,,,6103645ddeeb9221c771e721,610368abf9c6dac72b80afc8,2021-07-29_22h50.10.188,Simcolourproject_2stim_asymm_v5,2020.2.10,MacIntel,60,61025ae37ef11b136ea224fe,,,,,,,,,551,-85.74914551,33.89019775,1,0,0,response7disk,,1,-4.99407959,-14.85131836,1,0,0,rectangle,-4.99407959,-14.85131836,1,0,0,-4.99407959,-14.85131836,1,0,0,0,6,6,73,1,,,,,,,,
,,,,,,,,,,,,,FF,,,,,,,,1.1839,,,,,,,,,,,,,,,,,,,,,,6103645ddeeb9221c771e721,610368abf9c6dac72b80afc8,2021-07-29_22h50.10.188,Simcolourproject_2stim_asymm_v5,2020.2.10,MacIntel,60,61025ae37ef11b136ea224fe,,,,,,,,,3864,72.22009277,-47.23339844,1,0,0,response3disk,,5,13.85821533,-12.41485596,1,0,0,rectangle,13.85821533,-12.41485596,1,0,0,13.85821533,-12.41485596,1,0,0,0,7,7,100,1,,,,,,,,
,,,,,,,,,,,,,FF,,,,,,,,2.5021,,,,,,,,,,,,,,,,,,,,,,6103645ddeeb9221c771e721,610368abf9c6dac72b80afc8,2021-07-29_22h50.10.188,Simcolourproject_2stim_asymm_v5,2020.2.10,MacIntel,60,61025ae37ef11b136ea224fe,,,,,,,,,3609,89.52099609,-19.38134766,1,0,0,response3disk,,5,-1.618835449,-12.39001465,1,0,0,rectangle,-1.618835449,-12.39001465,1,0,0,-1.618835449,-12.39001465,1,0,0,0,8,8,89,1,,,,,,,,
,,,,,,,,,,,,,FF,,,,,,,,1.3199,,,,,,,,,,,,,,,,,,,,,,6103645ddeeb9221c771e721,610368abf9c6dac72b80afc8,2021-07-29_22h50.10.188,Simcolourproject_2stim_asymm_v5,2020.2.10,MacIntel,60,61025ae37ef11b136ea224fe,,,,,,,,,1070,-84.82684326,-35.64453125,1,0,0,response5disk,,2,-18.16552734,-1.741973877,1,0,0,rectangle,-87.37854004,32.43249512,1,0,0,4.048522949,-3.43536377,1,0,0,0,9,9,142,1,,response7disk_3,TRUE,1,1,"[280,224,207,196,71,135,215,121,65,10,256,296,323,249,83,309,35,283,33,222]",1.4835,rectangle
,,,,,,,,,,,,,FF,,,,,,,,1.1001,,,,,,,,,,,,,,,,,,,,,,6103645ddeeb9221c771e721,610368abf9c6dac72b80afc8,2021-07-29_22h50.10.188,Simcolourproject_2stim_asymm_v5,2020.2.10,MacIntel,60,61025ae37ef11b136ea224fe,,,,,,,,,1104,94.46618652,20.80566406,1,0,0,response1disk,,6,-2.977050781,-1.471069336,1,0,0,rectangle,-2.977050781,-1.471069336,1,0,0,-2.977050781,-1.471069336,1,0,0,0,10,10,5,1,,,,,,,,
,,,,,,,,,,,,,FF,,,,,,,,0.9342,,,,,,,,,,,,,,,,,,,,,,6103645ddeeb9221c771e721,610368abf9c6dac72b80afc8,2021-07-29_22h50.10.188,Simcolourproject_2stim_asymm_v5,2020.2.10,MacIntel,60,61025ae37ef11b136ea224fe,,,,,,,,,2416,82.45568848,-39.34741211,1,0,0,response3disk,,5,5.651000977,-1.953918457,1,0,0,rectangle,5.651000977,-1.953918457,1,0,0,5.651000977,-1.953918457,1,0,0,0,11,11,158,1,,,,,,,,
,,,,,,,,,,,,,FF,,,,,,,,1.2817,,,,,,,,,,,,,,,,,,,,,,6103645ddeeb9221c771e721,610368abf9c6dac72b80afc8,2021-07-29_22h50.10.188,Simcolourproject_2stim_asymm_v5,2020.2.10,MacIntel,60,61025ae37ef11b136ea224fe,,,,,,,,,3281,49.22631836,79.13900757,1,0,0,response1disk,,7,-8.907470703,-4.207092285,1,0,0,rectangle,-8.907470703,-4.207092285,1,0,0,-8.907470703,-4.207092285,1,0,0,0,12,12,2,1,,,,,,,,
,,,,,,,,,,,,,FF,,,,,,,,1.6336,,,,,,,,,,,,,,,,,,,,,,6103645ddeeb9221c771e721,610368abf9c6dac72b80afc8,2021-07-29_22h50.10.188,Simcolourproject_2stim_asymm_v5,2020.2.10,MacIntel,60,61025ae37ef11b136ea224fe,,,,,,,,,4145,-84.60668945,49.90661621,1,0,0,response7disk,,1,11.38708496,-2.891998291,1,0,0,rectangle,11.38708496,-2.891998291,1,0,0,11.38708496,-2.891998291,1,0,0,0,13,13,9,1,,,,,,,,
,,,,,,,,,,,,,FF,,,,,,,,1.2167,,,,,,,,,,,,,,,,,,,,,,6103645ddeeb9221c771e721,610368abf9c6dac72b80afc8,2021-07-29_22h50.10.188,Simcolourproject_2stim_asymm_v5,2020.2.10,MacIntel,60,61025ae37ef11b136ea224fe,,,,,,,,,115,71.22387695,-31.32513428,1,0,0,response3disk,,5,5.282592773,-16.25250244,1,0,0,rectangle,5.282592773,-16.25250244,1,0,0,5.282592773,-16.25250244,1,0,0,0,14,14,138,1,,,,,,,,
,,,,,,,,,,,,,FF,,,,,,,,1.8489,,,,,,,,,,,,,,,,,,,,,,6103645ddeeb9221c771e721,610368abf9c6dac72b80afc8,2021-07-29_22h50.10.188,Simcolourproject_2stim_asymm_v5,2020.2.10,MacIntel,60,61025ae37ef11b136ea224fe,,,,,,,,,3942,-76.78674316,42.09100342,1,0,0,response7disk,,1,-5.96887207,-4.331542969,1,0,0,rectangle,-5.96887207,-4.331542969,1,0,0,-5.96887207,-4.331542969,1,0,0,0,15,15,8,1,,,,,,,,
,,,,,,,,,,,,,FF,,,,,,,,1.2331,,,,,,,,,,,,,,,,,,,,,,6103645ddeeb9221c771e721,610368abf9c6dac72b80afc8,2021-07-29_22h50.10.188,Simcolourproject_2stim_asymm_v5,2020.2.10,MacIntel,60,61025ae37ef11b136ea224fe,,,,,,,,,3572,94.31585693,32.26391602,1,0,0,response1disk,,6,4.291015625,5.117126465,1,0,0,rectangle,4.291015625,5.117126465,1,0,0,4.291015625,5.117126465,1,0,0,0,16,16,21,1,,,,,,,,
,,,,,,,,,,,,,FF,,,,,,,,1.653,,,,,,,,,,,,,,,,,,,,,,6103645ddeeb9221c771e721,610368abf9c6dac72b80afc8,2021-07-29_22h50.10.188,Simcolourproject_2stim_asymm_v5,2020.2.10,MacIntel,60,61025ae37ef11b136ea224fe,,,,,,,,,2153,47.70306396,-66.70397949,1,0,0,response3disk,,4,-1.660095215,-11.35772705,1,0,0,rectangle,-1.660095215,-11.35772705,1,0,0,-1.660095215,-11.35772705,1,0,0,0,17,17,99,1,,,,,,,,
,,,,,,,,,,,,,FF,,,,,,,,0.8163,,,,,,,,,,,,,,,,,,,,,,6103645ddeeb9221c771e721,610368abf9c6dac72b80afc8,2021-07-29_22h50.10.188,Simcolourproject_2stim_asymm_v5,2020.2.10,MacIntel,60,61025ae37ef11b136ea224fe,,,,,,,,,309,34.58178711,-68.26196289,1,0,0,response3disk,,4,0.123657227,-4.692565918,1,0,0,rectangle,0.123657227,-4.692565918,1,0,0,0.123657227,-4.692565918,1,0,0,0,18,18,15,1,,,,,,,,
,,,,,,,,,,,,,FF,,,,,,,,0.883,,,,,,,,,,,,,,,,,,,,,,6103645ddeeb9221c771e721,610368abf9c6dac72b80afc8,2021-07-29_22h50.10.188,Simcolourproject_2stim_asymm_v5,2020.2.10,MacIntel,60,61025ae37ef11b136ea224fe,,,,,,,,,3456,76.65899658,-26.09204102,1,0,0,response3disk,,5,5.475402832,-1.766662598,1,0,0,rectangle,5.475402832,-1.766662598,1,0,0,5.475402832,-1.766662598,1,0,0,0,19,19,126,1,,,,,,,,
,,,,,,,,,,,,,FF,,,,,,,,1.4164,,,,,,,,,,,,,,,,,,,,,,6103645ddeeb9221c771e721,610368abf9c6dac72b80afc8,2021-07-29_22h50.10.188,Simcolourproject_2stim_asymm_v5,2020.2.10,MacIntel,60,61025ae37ef11b136ea224fe,,,,,,,,,4357,-43.44213867,69.81445313,1,0,0,response7disk,,0,-2.320556641,-6.002929688,1,0,0,rectangle,-2.320556641,-6.002929688,1,0,0,-2.320556641,-6.002929688,1,0,0,0,20,20,51,1,,,,,,,,
,,,,,,,,,,,,,FF,,,,,,,,2.2998,,,,,,,,,,,,,,,,,,,,,,6103645ddeeb9221c771e721,610368abf9c6dac72b80afc8,2021-07-29_22h50.10.188,Simcolourproject_2stim_asymm_v5,2020.2.10,MacIntel,60,61025ae37ef11b136ea224fe,,,,,,,,,3871,-33.96252441,-66.53985596,1,0,0,response5disk,,3,-11.16448975,-5.730957031,1,0,0,rectangle,-11.16448975,-5.730957031,1,0,0,-11.16448975,-5.730957031,1,0,0,0,21,21,44,1,,,,,,,,
,,,,,,,,,,,,,FF,,,,,,,,0.866,,,,,,,,,,,,,,,,,,,,,,6103645ddeeb9221c771e721,610368abf9c6dac72b80afc8,2021-07-29_22h50.10.188,Simcolourproject_2stim_asymm_v5,2020.2.10,MacIntel,60,61025ae37ef11b136ea224fe,,,,,,,,,808,-88.894104,36.34259033,1,0,0,response7disk,,1,-16.45385742,10.05151367,1,0,0,rectangle,-16.45385742,10.05151367,1,0,0,-16.45385742,10.05151367,1,0,0,0,22,22,84,1,,,,,,,,
,,,,,,,,,,,,,FF,,,,,,,,1.4327,,,,,,,,,,,,,,,,,,,,,,6103645ddeeb9221c771e721,610368abf9c6dac72b80afc8,2021-07-29_22h50.10.188,Simcolourproject_2stim_asymm_v5,2020.2.10,MacIntel,60,61025ae37ef11b136ea224fe,,,,,,,,,2136,98.46118164,47.16516113,1,0,0,response1disk,,6,2.106323242,4.158935547,1,0,0,rectangle,2.106323242,4.158935547,1,0,0,2.106323242,4.158935547,1,0,0,0,23,23,65,1,,,,,,,,
,,,,,,,,,,,,,FF,,,,,,,,0.867,,,,,,,,,,,,,,,,,,,,,,6103645ddeeb9221c771e721,610368abf9c6dac72b80afc8,2021-07-29_22h50.10.188,Simcolourproject_2stim_asymm_v5,2020.2.10,MacIntel,60,61025ae37ef11b136ea224fe,,,,,,,,,4310,89.15338135,29.54998779,1,0,0,response1disk,,6,0.697998047,-11.62417603,1,0,0,rectangle,0.697998047,-11.62417603,1,0,0,0.697998047,-11.62417603,1,0,0,0,24,24,132,1,,,,,,,,
,,,,,,,,,,,,,FF,,,,,,,,0.6168,,,,,,,,,,,,,,,,,,,,,,6103645ddeeb9221c771e721,610368abf9c6dac72b80afc8,2021-07-29_22h50.10.188,Simcolourproject_2stim_asymm_v5,2020.2.10,MacIntel,60,61025ae37ef11b136ea224fe,,,,,,,,,2006,80.62683105,16.95617676,1,0,0,response1disk,,6,10.72937012,-1.486083984,1,0,0,rectangle,10.72937012,-1.486083984,1,0,0,10.72937012,-1.486083984,1,0,0,0,25,25,47,1,,,,,,,,
,,,,,,,,,,,,,FF,,,,,,,,0.783,,,,,,,,,,,,,,,,,,,,,,6103645ddeeb9221c771e721,610368abf9c6dac72b80afc8,2021-07-29_22h50.10.188,Simcolourproject_2stim_asymm_v5,2020.2.10,MacIntel,60,61025ae37ef11b136ea224fe,,,,,,,,,3295,-75.54351807,43.32781982,1,0,0,response7disk,,1,3.477233887,4.720367432,1,0,0,rectangle,3.477233887,4.720367432,1,0,0,3.477233887,4.720367432,1,0,0,0,26,26,110,1,,,,,,,,
,,,,,,,,,,,,,FF,,,,,,,,1.068,,,,,,,,,,,,,,,,,,,,,,6103645ddeeb9221c771e721,610368abf9c6dac72b80afc8,2021-07-29_22h50.10.188,Simcolourproject_2stim_asymm_v5,2020.2.10,MacIntel,60,61025ae37ef11b136ea224fe,,,,,,,,,3901,-81.06311035,-27.01623535,1,0,0,response5disk,,2,-17.59411621,-15.62942505,1,0,0,rectangle,-17.59411621,-15.62942505,1,0,0,-17.59411621,-15.62942505,1,0,0,0,27,27,115,1,,,,,,,,
,,,,,,,,,,,,,FF,,,,,,,,0.6499,,,,,,,,,,,,,,,,,,,,,,6103645ddeeb9221c771e721,610368abf9c6dac72b80afc8,2021-07-29_22h50.10.188,Simcolourproject_2stim_asymm_v5,2020.2.10,MacIntel,60,61025ae37ef11b136ea224fe,,,,,,,,,3360,104.2593384,-33.34033203,1,0,0,response3disk,,5,13.26013184,-6.328216553,1,0,0,rectangle,13.26013184,-6.328216553,1,0,0,13.26013184,-6.328216553,1,0,0,0,28,28,104,1,,,,,,,,
,,,,,,,,,,,,,FF,,,,,,,,2.064,,,,,,,,,,,,,,,,,,,,,,6103645ddeeb9221c771e721,610368abf9c6dac72b80afc8,2021-07-29_22h50.10.188,Simcolourproject_2stim_asymm_v5,2020.2.10,MacIntel,60,61025ae37ef11b136ea224fe,,,,,,,,,2244,46.50683594,-75.32470703,1,0,0,response3disk,,4,32.78643799,-3.959960938,1,0,0,rectangle,32.78643799,-3.959960938,1,0,0,32.78643799,-3.959960938,1,0,0,0,29,29,58,1,,,,,,,,
,,,,,,,,,,,,,FF,,,,,,,,0.893,,,,,,,,,,,,,,,,,,,,,,6103645ddeeb9221c771e721,610368abf9c6dac72b80afc8,2021-07-29_22h50.10.188,Simcolourproject_2stim_asymm_v5,2020.2.10,MacIntel,60,61025ae37ef11b136ea224fe,,,,,,,,,2772,-65.89794922,-38.68008423,1,0,0,response5disk,,2,-5.78503418,-4.904510498,1,0,0,rectangle,-5.78503418,-4.904510498,1,0,0,-5.78503418,-4.904510498,1,0,0,0,30,30,116,1,,,,,,,,
,,,,,,,,,,,,,FF,,,,,,,,0.8334,,,,,,,,,,,,,,,,,,,,,,6103645ddeeb9221c771e721,610368abf9c6dac72b80afc8,2021-07-29_22h50.10.188,Simcolourproject_2stim_asymm_v5,2020.2.10,MacIntel,60,61025ae37ef11b136ea224fe,,,,,,,,,2985,-37.5168457,-66.17510986,1,0,0,response5disk,,3,-1.725646973,13.35870361,1,0,0,rectangle,-1.725646973,13.35870361,1,0,0,-1.725646973,13.35870361,1,0,0,0,31,31,130,1,,,,,,,,
,,,,,,,,,,,,,FF,,,,,,,,0.7334,,,,,,,,,,,,,,,,,,,,,,6103645ddeeb9221c771e721,610368abf9c6dac72b80afc8,2021-07-29_22h50.10.188,Simcolourproject_2stim_asymm_v5,2020.2.10,MacIntel,60,61025ae37ef11b136ea224fe,,,,,,,,,1293,-72.50115967,43.56329346,1,0,0,response7disk,,1,9.759643555,3.739074707,1,0,0,rectangle,29.81744385,87.47741699,1,0,0,6.145568848,0.446716309,1,0,0,0,32,32,112,1,,response1disk_3,TRUE,7,7,"[280,224,207,196,71,135,215,121,65,10,256,296,323,249,83,309,35,283,33,222]",1.435,rectangle
,,,,,,,,,,,,,FF,,,,,,,,1.4643,,,,,,,,,,,,,,,,,,,,,,6103645ddeeb9221c771e721,610368abf9c6dac72b80afc8,2021-07-29_22h50.10.188,Simcolourproject_2stim_asymm_v5,2020.2.10,MacIntel,60,61025ae37ef11b136ea224fe,,,,,,,,,2206,47.95617676,-70.28442383,1,0,0,response3disk,,4,12.00408936,-12.49060059,1,0,0,rectangle,12.00408936,-12.49060059,1,0,0,12.00408936,-12.49060059,1,0,0,0,33,33,23,1,,,,,,,,
,,,,,,,,,,,,,FF,,,,,,,,0.8831,,,,,,,,,,,,,,,,,,,,,,6103645ddeeb9221c771e721,610368abf9c6dac72b80afc8,2021-07-29_22h50.10.188,Simcolourproject_2stim_asymm_v5,2020.2.10,MacIntel,60,61025ae37ef11b136ea224fe,,,,,,,,,4195,89.15032959,-33.32687378,1,0,0,response3disk,,5,-20.1706543,7.663787842,1,0,0,rectangle,-45.53289795,83.1166687,1,0,0,-6.612182617,-7.793151855,1,0,0,0,34,34,45,1,,response7disk_3,TRUE,0,0,"[280,224,207,196,71,135,215,121,65,10,256,296,323,249,83,309,35,283,33,222]",1.517,rectangle
,,,,,,,,,,,,,FF,,,,,,,,0.7834,,,,,,,,,,,,,,,,,,,,,,6103645ddeeb9221c771e721,610368abf9c6dac72b80afc8,2021-07-29_22h50.10.188,Simcolourproject_2stim_asymm_v5,2020.2.10,MacIntel,60,61025ae37ef11b136ea224fe,,,,,,,,,2826,-58.4284668,-31.33728027,1,0,0,response5disk,,2,-2.804626465,-12.19906616,1,0,0,rectangle,-2.804626465,-12.19906616,1,0,0,-2.804626465,-12.19906616,1,0,0,0,35,35,109,1,,,,,,,,
,,,,,,,,,,,,,FF,,,,,,,,0.7339,,,,,,,,,,,,,,,,,,,,,,6103645ddeeb9221c771e721,610368abf9c6dac72b80afc8,2021-07-29_22h50.10.188,Simcolourproject_2stim_asymm_v5,2020.2.10,MacIntel,60,61025ae37ef11b136ea224fe,,,,,,,,,3676,-72.4576416,48.09564209,1,0,0,response7disk,,1,-18.16113281,16.56402588,1,0,0,rectangle,-18.16113281,16.56402588,1,0,0,-18.16113281,16.56402588,1,0,0,0,36,36,139,1,,,,,,,,
,,,,,,,,,,,,,FF,,,,,,,,1.5019,,,,,,,,,,,,,,,,,,,,,,6103645ddeeb9221c771e721,610368abf9c6dac72b80afc8,2021-07-29_22h50.10.188,Simcolourproject_2stim_asymm_v5,2020.2.10,MacIntel,60,61025ae37ef11b136ea224fe,,,,,,,,,1058,-29.34698486,-56.51104736,1,0,0,response5disk,,3,3.334899902,-3.864257813,1,0,0,rectangle,3.334899902,-3.864257813,1,0,0,3.334899902,-3.864257813,1,0,0,0,37,37,124,1,,,,,,,,
,,,,,,,,,,,,,FF,,,,,,,,1.0493,,,,,,,,,,,,,,,,,,,,,,6103645ddeeb9221c771e721,610368abf9c6dac72b80afc8,2021-07-29_22h50.10.188,Simcolourproject_2stim_asymm_v5,2020.2.10,MacIntel,60,61025ae37ef11b136ea224fe,,,,,,,,,500,86.82000732,31.81619263,1,0,0,response1disk,,6,17.16479492,-7.380432129,1,0,0,rectangle,17.16479492,-7.380432129,1,0,0,17.16479492,-7.380432129,1,0,0,0,38,38,106,1,,,,,,,,
,,,,,,,,,,,,,FF,,,,,,,,0.8836,,,,,,,,,,,,,,,,,,,,,,6103645ddeeb9221c771e721,610368abf9c6dac72b80afc8,2021-07-29_22h50.10.188,Simcolourproject_2stim_asymm_v5,2020.2.10,MacIntel,60,61025ae37ef11b136ea224fe,,,,,,,,,3481,-30.89257813,-70.18347168,1,0,0,response5disk,,3,-10.32672119,-10.57052612,1,0,0,rectangle,-10.32672119,-10.57052612,1,0,0,-10.32672119,-10.57052612,1,0,0,0,39,39,94,1,,,,,,,,
,,,,,,,,,,,,,FF,,,,,,,,0.9155,,,,,,,,,,,,,,,,,,,,,,6103645ddeeb9221c771e721,610368abf9c6dac72b80afc8,2021-07-29_22h50.10.188,Simcolourproject_2stim_asymm_v5,2020.2.10,MacIntel,60,61025ae37ef11b136ea224fe,,,,,,,,,2780,-69.3381958,-35.0512085,1,0,0,response5disk,,2,-17.69250488,-12.52697754,1,0,0,rectangle,-17.69250488,-12.52697754,1,0,0,-17.69250488,-12.52697754,1,0,0,0,40,40,152,1,,,,,,,,
,,,,,,,,,,,,,FF,,,,,,,,0.5703,,,,,,,,,,,,,,,,,,,,,,6103645ddeeb9221c771e721,610368abf9c6dac72b80afc8,2021-07-29_22h50.10.188,Simcolourproject_2stim_asymm_v5,2020.2.10,MacIntel,60,61025ae37ef11b136ea224fe,,,,,,,,,1750,-82.96795654,-31.87838745,1,0,0,response5disk,,2,-8.998779297,12.96914673,1,0,0,rectangle,-8.998779297,12.96914673,1,0,0,-8.998779297,12.96914673,1,0,0,0,41,41,105,1,,,,,,,,
,,,,,,,,,,,,,FF,,,,,,,,1.301,,,,,,,,,,,,,,,,,,,,,,6103645ddeeb9221c771e721,610368abf9c6dac72b80afc8,2021-07-29_22h50.10.188,Simcolourproject_2stim_asymm_v5,2020.2.10,MacIntel,60,61025ae37ef11b136ea224fe,,,,,,,,,2510,89.90362549,-29.79425049,1,0,0,response3disk,,5,14.31634521,-5.094299316,1,0,0,rectangle,14.31634521,-5.094299316,1,0,0,14.31634521,-5.094299316,1,0,0,0,42,42,33,1,,,,,,,,
,,,,,,,,,,,,,FF,,,,,,,,0.7848,,,,,,,,,,,,,,,,,,,,,,6103645ddeeb9221c771e721,610368abf9c6dac72b80afc8,2021-07-29_22h50.10.188,Simcolourproject_2stim_asymm_v5,2020.2.10,MacIntel,60,61025ae37ef11b136ea224fe,,,,,,,,,3630,-35.47033691,74.71148682,1,0,0,response7disk,,0,7.483764648,-10.36199951,1,0,0,rectangle,7.483764648,-10.36199951,1,0,0,7.483764648,-10.36199951,1,0,0,0,43,43,86,1,,,,,,,,
,,,,,,,,,,,,,FF,,,,,,,,1.0992,,,,,,,,,,,,,,,,,,,,,,6103645ddeeb9221c771e721,610368abf9c6dac72b80afc8,2021-07-29_22h50.10.188,Simcolourproject_2stim_asymm_v5,2020.2.10,MacIntel,60,61025ae37ef11b136ea224fe,,,,,,,,,2074,82.66815186,22.29824829,1,0,0,response1disk,,6,7.418151855,-10.52130127,1,0,0,rectangle,7.418151855,-10.52130127,1,0,0,7.418151855,-10.52130127,1,0,0,0,44,44,153,1,,,,,,,,
,,,,,,,,,,,,,FF,,,,,,,,0.8861,,,,,,,,,,,,,,,,,,,,,,6103645ddeeb9221c771e721,610368abf9c6dac72b80afc8,2021-07-29_22h50.10.188,Simcolourproject_2stim_asymm_v5,2020.2.10,MacIntel,60,61025ae37ef11b136ea224fe,,,,,,,,,2969,65.23321533,-48.56695557,1,0,0,response3disk,,5,-25.637146,-1.27355957,1,0,0,rectangle,-25.637146,-1.27355957,1,0,0,-25.637146,-1.27355957,1,0,0,0,45,45,1,1,,,,,,,,
,,,,,,,,,,,,,FF,,,,,,,,0.6024,,,,,,,,,,,,,,,,,,,,,,6103645ddeeb9221c771e721,610368abf9c6dac72b80afc8,2021-07-29_22h50.10.188,Simcolourproject_2stim_asymm_v5,2020.2.10,MacIntel,60,61025ae37ef11b136ea224fe,,,,,,,,,493,90.40185547,-42.90142822,1,0,0,response3disk,,5,34.1071167,-6.904632568,1,0,0,rectangle,34.1071167,-6.904632568,1,0,0,34.1071167,-6.904632568,1,0,0,0,46,46,68,1,,,,,,,,
,,,,,,,,,,,,,FF,,,,,,,,0.7113,,,,,,,,,,,,,,,,,,,,,,6103645ddeeb9221c771e721,610368abf9c6dac72b80afc8,2021-07-29_22h50.10.188,Simcolourproject_2stim_asymm_v5,2020.2.10,MacIntel,60,61025ae37ef11b136ea224fe,,,,,,,,,2256,-43.96838379,-73.39111328,1,0,0,response5disk,,3,15.45446777,14.64526367,1,0,0,rectangle,15.45446777,14.64526367,1,0,0,15.45446777,14.64526367,1,0,0,0,47,47,85,1,,,,,,,,
,,,,,,,,,,,,,FF,,,,,,,,1.3665,,,,,,,,,,,,,,,,,,,,,,6103645ddeeb9221c771e721,610368abf9c6dac72b80afc8,2021-07-29_22h50.10.188,Simcolourproject_2stim_asymm_v5,2020.2.10,MacIntel,60,61025ae37ef11b136ea224fe,,,,,,,,,2334,38.61877441,-54.33172607,1,0,0,response3disk,,4,34.42504883,3.801330566,1,0,0,rectangle,34.42504883,3.801330566,1,0,0,34.42504883,3.801330566,1,0,0,0,48,48,27,1,,,,,,,,
,,,,,,,,,,,,,FF,,,,,,,,1.211,,,,,,,,,,,,,,,,,,,,,,6103645ddeeb9221c771e721,610368abf9c6dac72b80afc8,2021-07-29_22h50.10.188,Simcolourproject_2stim_asymm_v5,2020.2.10,MacIntel,60,61025ae37ef11b136ea224fe,,,,,,,,,4210,26.9677124,-41.83837891,1,0,0,response3disk,,4,18.92767334,-9.710174561,1,0,0,rectangle,18.92767334,-9.710174561,1,0,0,18.92767334,-9.710174561,1,0,0,0,49,49,101,1,,,,,,,,
,,,,,,,,,,,,,FF,,,,,,,,1.0515,,,,,,,,,,,,,,,,,,,,,,6103645ddeeb9221c771e721,610368abf9c6dac72b80afc8,2021-07-29_22h50.10.188,Simcolourproject_2stim_asymm_v5,2020.2.10,MacIntel,60,61025ae37ef11b136ea224fe,,,,,,,,,1970,-53.14337158,-77.27313232,1,0,0,response5disk,,3,1.113525391,15.66931152,1,0,0,rectangle,1.113525391,15.66931152,1,0,0,1.113525391,15.66931152,1,0,0,0,50,50,159,1,,,,,,,,
,,,,,,,,,,,,,FF,,,,,,,,0.8502,,,,,,,,,,,,,,,,,,,,,,6103645ddeeb9221c771e721,610368abf9c6dac72b80afc8,2021-07-29_22h50.10.188,Simcolourproject_2stim_asymm_v5,2020.2.10,MacIntel,60,61025ae37ef11b136ea224fe,,,,,,,,,285,-36.19213867,-61.01098633,1,0,0,response5disk,,3,4.547241211,3.124908447,1,0,0,rectangle,4.547241211,3.124908447,1,0,0,4.547241211,3.124908447,1,0,0,0,51,51,137,1,,,,,,,,
,,,,,,,,,,,,,FF,,,,,,,,0.7179,,,,,,,,,,,,,,,,,,,,,,6103645ddeeb9221c771e721,610368abf9c6dac72b80afc8,2021-07-29_22h50.10.188,Simcolourproject_2stim_asymm_v5,2020.2.10,MacIntel,60,61025ae37ef11b136ea224fe,,,,,,,,,3862,45.2701416,-63.60388184,1,0,0,response3disk,,4,-8.04296875,7.642028809,1,0,0,rectangle,-8.04296875,7.642028809,1,0,0,-8.04296875,7.642028809,1,0,0,0,52,52,78,1,,,,,,,,
,,,,,,,,,,,,,FF,,,,,,,,0.7512,,,,,,,,,,,,,,,,,,,,,,6103645ddeeb9221c771e721,610368abf9c6dac72b80afc8,2021-07-29_22h50.10.188,Simcolourproject_2stim_asymm_v5,2020.2.10,MacIntel,60,61025ae37ef11b136ea224fe,,,,,,,,,4095,-44.2980957,62.21746826,1,0,0,response7disk,,0,-14.69940186,16.33868408,1,0,0,rectangle,-14.69940186,16.33868408,1,0,0,-14.69940186,16.33868408,1,0,0,0,53,53,67,1,,,,,,,,
,,,,,,,,,,,,,FF,,,,,,,,1.0174,,,,,,,,,,,,,,,,,,,,,,6103645ddeeb9221c771e721,610368abf9c6dac72b80afc8,2021-07-29_22h50.10.188,Simcolourproject_2stim_asymm_v5,2020.2.10,MacIntel,60,61025ae37ef11b136ea224fe,,,,,,,,,1600,-82.21075439,31.66107178,1,0,0,response7disk,,1,-12.59753418,0.187316895,1,0,0,rectangle,-12.59753418,0.187316895,1,0,0,-12.59753418,0.187316895,1,0,0,0,54,54,50,1,,,,,,,,
,,,,,,,,,,,,,FF,,,,,,,,0.535,,,,,,,,,,,,,,,,,,,,,,6103645ddeeb9221c771e721,610368abf9c6dac72b80afc8,2021-07-29_22h50.10.188,Simcolourproject_2stim_asymm_v5,2020.2.10,MacIntel,60,61025ae37ef11b136ea224fe,,,,,,,,,722,-88.39587402,31.7456665,1,0,0,response7disk,,1,-22.22912598,-2.522644043,1,0,0,rectangle,-22.22912598,-2.522644043,1,0,0,-22.22912598,-2.522644043,1,0,0,0,55,55,114,1,,,,,,,,
,,,,,,,,,,,,,FF,,,,,,,,0.6359,,,,,,,,,,,,,,,,,,,,,,6103645ddeeb9221c771e721,610368abf9c6dac72b80afc8,2021-07-29_22h50.10.188,Simcolourproject_2stim_asymm_v5,2020.2.10,MacIntel,60,61025ae37ef11b136ea224fe,,,,,,,,,2648,68.22869873,-16.2925415,1,0,0,response3disk,,5,-4.162536621,15.67556763,1,0,0,rectangle,-4.162536621,15.67556763,1,0,0,-4.162536621,15.67556763,1,0,0,0,56,56,157,1,,,,,,,,
,,,,,,,,,,,,,FF,,,,,,,,0.7171,,,,,,,,,,,,,,,,,,,,,,6103645ddeeb9221c771e721,610368abf9c6dac72b80afc8,2021-07-29_22h50.10.188,Simcolourproject_2stim_asymm_v5,2020.2.10,MacIntel,60,61025ae37ef11b136ea224fe,,,,,,,,,72,-49.22021484,39.3973999,1,0,0,response7disk,,1,0.442749023,15.54406738,1,0,0,rectangle,0.442749023,15.54406738,1,0,0,0.442749023,15.54406738,1,0,0,0,57,57,117,1,,,,,,,,
,,,,,,,,,,,,,FF,,,,,,,,0.7698,,,,,,,,,,,,,,,,,,,,,,6103645ddeeb9221c771e721,610368abf9c6dac72b80afc8,2021-07-29_22h50.10.188,Simcolourproject_2stim_asymm_v5,2020.2.10,MacIntel,60,61025ae37ef11b136ea224fe,,,,,,,,,406,70.27752686,-30.4029541,1,0,0,response3disk,,5,6.432189941,2.83807373,1,0,0,rectangle,6.432189941,2.83807373,1,0,0,6.432189941,2.83807373,1,0,0,0,58,58,135,1,,,,,,,,
,,,,,,,,,,,,,FF,,,,,,,,1.4169,,,,,,,,,,,,,,,,,,,,,,6103645ddeeb9221c771e721,610368abf9c6dac72b80afc8,2021-07-29_22h50.10.188,Simcolourproject_2stim_asymm_v5,2020.2.10,MacIntel,60,61025ae37ef11b136ea224fe,,,,,,,,,2260,71.51220703,25.03656006,1,0,0,response1disk,,6,2.945007324,-14.75790405,1,0,0,rectangle,2.945007324,-14.75790405,1,0,0,2.945007324,-14.75790405,1,0,0,0,59,59,46,1,,,,,,,,
,,,,,,,,,,,,,FF,,,,,,,,0.667,,,,,,,,,,,,,,,,,,,,,,6103645ddeeb9221c771e721,610368abf9c6dac72b80afc8,2021-07-29_22h50.10.188,Simcolourproject_2stim_asymm_v5,2020.2.10,MacIntel,60,61025ae37ef11b136ea224fe,,,,,,,,,2637,64.17053223,22.81826782,1,0,0,response1disk,,6,16.35424805,7.892089844,1,0,0,rectangle,16.35424805,7.892089844,1,0,0,16.35424805,7.892089844,1,0,0,0,60,60,36,1,,,,,,,,
,,,,,,,,,,,,,FF,,,,,,,,1.0292,,,,,,,,,,,,,,,,,,,,,,6103645ddeeb9221c771e721,610368abf9c6dac72b80afc8,2021-07-29_22h50.10.188,Simcolourproject_2stim_asymm_v5,2020.2.10,MacIntel,60,61025ae37ef11b136ea224fe,,,,,,,,,1966,-72.96813965,-38.27081299,1,0,0,response5disk,,2,-24.34204102,-13.56176758,1,0,0,rectangle,-24.34204102,-13.56176758,1,0,0,-24.34204102,-13.56176758,1,0,0,0,61,61,56,1,,,,,,,,
,,,,,,,,,,,,,FF,,,,,,,,0.8144,,,,,,,,,,,,,,,,,,,,,,6103645ddeeb9221c771e721,610368abf9c6dac72b80afc8,2021-07-29_22h50.10.188,Simcolourproject_2stim_asymm_v5,2020.2.10,MacIntel,60,61025ae37ef11b136ea224fe,,,,,,,,,2929,75.68505859,29.46246338,1,0,0,response1disk,,6,-16.72509766,-4.786743164,1,0,0,rectangle,-16.72509766,-4.786743164,1,0,0,-16.72509766,-4.786743164,1,0,0,0,62,62,127,1,,,,,,,,
,,,,,,,,,,,,,FF,,,,,,,,0.6502,,,,,,,,,,,,,,,,,,,,,,6103645ddeeb9221c771e721,610368abf9c6dac72b80afc8,2021-07-29_22h50.10.188,Simcolourproject_2stim_asymm_v5,2020.2.10,MacIntel,60,61025ae37ef11b136ea224fe,,,,,,,,,93,-37.39526367,86.11923218,1,0,0,response7disk,,0,-21.90795898,5.393615723,1,0,0,rectangle,-21.90795898,5.393615723,1,0,0,-21.90795898,5.393615723,1,0,0,0,63,63,42,1,,,,,,,,
,,,,,,,,,,,,,FF,,,,,,,,0.7336,,,,,,,,,,,,,,,,,,,,,,6103645ddeeb9221c771e721,610368abf9c6dac72b80afc8,2021-07-29_22h50.10.188,Simcolourproject_2stim_asymm_v5,2020.2.10,MacIntel,60,61025ae37ef11b136ea224fe,,,,,,,,,3920,-60.32885742,34.17645264,1,0,0,response7disk,,1,-3.033203125,0.261108398,1,0,0,rectangle,37.5838623,100.3181152,1,0,0,16.29052734,-2.30847168,1,0,0,0,64,64,64,1,,response1disk_3,TRUE,7,7,"[280,224,207,196,71,135,215,121,65,10,256,296,323,249,83,309,35,283,33,222]",1.2671,rectangle
,,,,,,,,,,,,,FF,,,,,,,,0.8001,,,,,,,,,,,,,,,,,,,,,,6103645ddeeb9221c771e721,610368abf9c6dac72b80afc8,2021-07-29_22h50.10.188,Simcolourproject_2stim_asymm_v5,2020.2.10,MacIntel,60,61025ae37ef11b136ea224fe,,,,,,,,,2113,59.38378906,23.74298096,1,0,0,response1disk,,6,-2.84185791,-5.013549805,1,0,0,rectangle,-2.84185791,-5.013549805,1,0,0,-2.84185791,-5.013549805,1,0,0,0,65,65,129,1,,,,,,,,
,,,,,,,,,,,,,FF,,,,,,,,0.7014,,,,,,,,,,,,,,,,,,,,,,6103645ddeeb9221c771e721,610368abf9c6dac72b80afc8,2021-07-29_22h50.10.188,Simcolourproject_2stim_asymm_v5,2020.2.10,MacIntel,60,61025ae37ef11b136ea224fe,,,,,,,,,388,78.25604248,-37.80706787,1,0,0,response3disk,,5,0.055053711,-6.237915039,1,0,0,rectangle,0.055053711,-6.237915039,1,0,0,0.055053711,-6.237915039,1,0,0,0,66,66,13,1,,,,,,,,
,,,,,,,,,,,,,FF,,,,,,,,0.6497,,,,,,,,,,,,,,,,,,,,,,6103645ddeeb9221c771e721,610368abf9c6dac72b80afc8,2021-07-29_22h50.10.188,Simcolourproject_2stim_asymm_v5,2020.2.10,MacIntel,60,61025ae37ef11b136ea224fe,,,,,,,,,455,-31.95025635,67.79037476,1,0,0,response7disk,,0,-10.60168457,-16.86138916,1,0,0,rectangle,-10.60168457,-16.86138916,1,0,0,-10.60168457,-16.86138916,1,0,0,0,67,67,16,1,,,,,,,,
,,,,,,,,,,,,,FF,,,,,,,,1.3832,,,,,,,,,,,,,,,,,,,,,,6103645ddeeb9221c771e721,610368abf9c6dac72b80afc8,2021-07-29_22h50.10.188,Simcolourproject_2stim_asymm_v5,2020.2.10,MacIntel,60,61025ae37ef11b136ea224fe,,,,,,,,,768,56.83306885,-33.52130127,1,0,0,response3disk,,5,17.48193359,-2.878356934,1,0,0,rectangle,17.48193359,-2.878356934,1,0,0,17.48193359,-2.878356934,1,0,0,0,68,68,77,1,,,,,,,,
,,,,,,,,,,,,,FF,,,,,,,,1.9314,,,,,,,,,,,,,,,,,,,,,,6103645ddeeb9221c771e721,610368abf9c6dac72b80afc8,2021-07-29_22h50.10.188,Simcolourproject_2stim_asymm_v5,2020.2.10,MacIntel,60,61025ae37ef11b136ea224fe,,,,,,,,,3166,57.34783936,-27.03811646,1,0,0,response3disk,,5,5.412597656,-7.018829346,1,0,0,rectangle,5.412597656,-7.018829346,1,0,0,5.412597656,-7.018829346,1,0,0,0,69,69,95,1,,,,,,,,
,,,,,,,,,,,,,FF,,,,,,,,0.6689,,,,,,,,,,,,,,,,,,,,,,6103645ddeeb9221c771e721,610368abf9c6dac72b80afc8,2021-07-29_22h50.10.188,Simcolourproject_2stim_asymm_v5,2020.2.10,MacIntel,60,61025ae37ef11b136ea224fe,,,,,,,,,495,60.56286621,-20.33190918,1,0,0,response3disk,,5,7.395690918,-9.164733887,1,0,0,rectangle,-35.35131836,-78.88757324,1,0,0,-10.34033203,6.388916016,1,0,0,0,70,70,151,1,,response5disk_3,TRUE,3,3,"[280,224,207,196,71,135,215,121,65,10,256,296,323,249,83,309,35,283,33,222]",1.8998,rectangle
,,,,,,,,,,,,,FF,,,,,,,,0.9331,,,,,,,,,,,,,,,,,,,,,,6103645ddeeb9221c771e721,610368abf9c6dac72b80afc8,2021-07-29_22h50.10.188,Simcolourproject_2stim_asymm_v5,2020.2.10,MacIntel,60,61025ae37ef11b136ea224fe,,,,,,,,,898,-72.64233398,-33.01608276,1,0,0,response5disk,,2,-7.718017578,-1.604034424,1,0,0,rectangle,-7.718017578,-1.604034424,1,0,0,-7.718017578,-1.604034424,1,0,0,0,71,71,39,1,,,,,,,,
,,,,,,,,,,,,,FF,,,,,,,,0.6667,,,,,,,,,,,,,,,,,,,,,,6103645ddeeb9221c771e721,610368abf9c6dac72b80afc8,2021-07-29_22h50.10.188,Simcolourproject_2stim_asymm_v5,2020.2.10,MacIntel,60,61025ae37ef11b136ea224fe,,,,,,,,,246,-35.01306152,-47.43032837,1,0,0,response5disk,,3,-17.76330566,-8.770935059,1,0,0,rectangle,-17.76330566,-8.770935059,1,0,0,-17.76330566,-8.770935059,1,0,0,0,72,72,82,1,,,,,,,,
,,,,,,,,,,,,,FF,,,,,,,,0.9187,,,,,,,,,,,,,,,,,,,,,,6103645ddeeb9221c771e721,610368abf9c6dac72b80afc8,2021-07-29_22h50.10.188,Simcolourproject_2stim_asymm_v5,2020.2.10,MacIntel,60,61025ae37ef11b136ea224fe,,,,,,,,,2064,37.24908447,-45.11413574,1,0,0,response3disk,,4,22.64208984,-14.296875,1,0,0,rectangle,22.64208984,-14.296875,1,0,0,22.64208984,-14.296875,1,0,0,0,73,73,140,1,,,,,,,,
,,,,,,,,,,,,,FF,,,,,,,,0.5998,,,,,,,,,,,,,,,,,,,,,,6103645ddeeb9221c771e721,610368abf9c6dac72b80afc8,2021-07-29_22h50.10.188,Simcolourproject_2stim_asymm_v5,2020.2.10,MacIntel,60,61025ae37ef11b136ea224fe,,,,,,,,,716,-42.81335449,73.66149902,1,0,0,response7disk,,0,-4.269042969,11.34771729,1,0,0,rectangle,-4.269042969,11.34771729,1,0,0,-4.269042969,11.34771729,1,0,0,0,74,74,0,1,,,,,,,,
,,,,,,,,,,,,,FF,,,,,,,,0.7816,,,,,,,,,,,,,,,,,,,,,,6103645ddeeb9221c771e721,610368abf9c6dac72b80afc8,2021-07-29_22h50.10.188,Simcolourproject_2stim_asymm_v5,2020.2.10,MacIntel,60,61025ae37ef11b136ea224fe,,,,,,,,,483,30.20800781,-55.27706909,1,0,0,response3disk,,4,20.21948242,-3.738525391,1,0,0,rectangle,20.21948242,-3.738525391,1,0,0,20.21948242,-3.738525391,1,0,0,0,75,75,120,1,,,,,,,,
,,,,,,,,,,,,,FF,,,,,,,,0.8664,,,,,,,,,,,,,,,,,,,,,,6103645ddeeb9221c771e721,610368abf9c6dac72b80afc8,2021-07-29_22h50.10.188,Simcolourproject_2stim_asymm_v5,2020.2.10,MacIntel,60,61025ae37ef11b136ea224fe,,,,,,,,,3832,32.77105713,-53.88513184,1,0,0,response3disk,,4,10.2019043,-1.784301758,1,0,0,rectangle,10.2019043,-1.784301758,1,0,0,10.2019043,-1.784301758,1,0,0,0,76,76,155,1,,,,,,,,
,,,,,,,,,,,,,FF,,,,,,,,0.9989,,,,,,,,,,,,,,,,,,,,,,6103645ddeeb9221c771e721,610368abf9c6dac72b80afc8,2021-07-29_22h50.10.188,Simcolourproject_2stim_asymm_v5,2020.2.10,MacIntel,60,61025ae37ef11b136ea224fe,,,,,,,,,941,62.08300781,-28.52618408,1,0,0,response3disk,,5,9.88104248,3.178985596,1,0,0,rectangle,9.88104248,3.178985596,1,0,0,9.88104248,3.178985596,1,0,0,0,77,77,147,1,,,,,,,,
,,,,,,,,,,,,,FF,,,,,,,,1.1517,,,,,,,,,,,,,,,,,,,,,,6103645ddeeb9221c771e721,610368abf9c6dac72b80afc8,2021-07-29_22h50.10.188,Simcolourproject_2stim_asymm_v5,2020.2.10,MacIntel,60,61025ae37ef11b136ea224fe,,,,,,,,,261,-78.31542969,27.78765869,1,0,0,response7disk,,1,-11.52850342,4.581726074,1,0,0,rectangle,-11.52850342,4.581726074,1,0,0,-11.52850342,4.581726074,1,0,0,0,78,78,3,1,,,,,,,,
,,,,,,,,,,,,,FF,,,,,,,,1.1682,,,,,,,,,,,,,,,,,,,,,,6103645ddeeb9221c771e721,610368abf9c6dac72b80afc8,2021-07-29_22h50.10.188,Simcolourproject_2stim_asymm_v5,2020.2.10,MacIntel,60,61025ae37ef11b136ea224fe,,,,,,,,,2219,-24.41369629,-33.88754272,1,0,0,response5disk,,3,-10.04003906,-11.13018799,1,0,0,rectangle,-10.04003906,-11.13018799,1,0,0,-10.04003906,-11.13018799,1,0,0,0,79,79,113,1,,,,,,,,
,,,,,,,,,,,,,FF,,,,,,,,3.6164,,,,,,,,,,,,,,,,,,,,,,6103645ddeeb9221c771e721,610368abf9c6dac72b80afc8,2021-07-29_22h50.10.188,Simcolourproject_2stim_asymm_v5,2020.2.10,MacIntel,60,61025ae37ef11b136ea224fe,,,,,,,,,1443,-45.3793335,-50.74111938,1,0,0,response5disk,,3,-11.98828125,-1.990112305,1,0,0,rectangle,-11.98828125,-1.990112305,1,0,0,-11.98828125,-1.990112305,1,0,0,0,80,80,107,1,,,,,,,,
,,,,,,,,,,,,,FF,,,,,,,,0.8668,,,,,,,,,,,,,,,,,,,,,,6103645ddeeb9221c771e721,610368abf9c6dac72b80afc8,2021-07-29_22h50.10.188,Simcolourproject_2stim_asymm_v5,2020.2.10,MacIntel,60,61025ae37ef11b136ea224fe,,,,,,,,,2378,-27.4173584,-60.53622437,1,0,0,response5disk,,3,-1.357666016,-16.47210693,1,0,0,rectangle,-1.357666016,-16.47210693,1,0,0,-1.357666016,-16.47210693,1,0,0,0,81,81,149,1,,,,,,,,
,,,,,,,,,,,,,FF,,,,,,,,0.684,,,,,,,,,,,,,,,,,,,,,,6103645ddeeb9221c771e721,610368abf9c6dac72b80afc8,2021-07-29_22h50.10.188,Simcolourproject_2stim_asymm_v5,2020.2.10,MacIntel,60,61025ae37ef11b136ea224fe,,,,,,,,,997,29.12908936,-40.01525879,1,0,0,response3disk,,4,25.2824707,8.213470459,1,0,0,rectangle,29.02301025,-68.78338623,1,0,0,15.35791016,-2.061035156,1,0,0,0,82,82,52,1,,response3disk_3,TRUE,4,4,"[280,224,207,196,71,135,215,121,65,10,256,296,323,249,83,309,35,283,33,222]",1.8592,rectangle
,,,,,,,,,,,,,FF,,,,,,,,0.6519,,,,,,,,,,,,,,,,,,,,,,6103645ddeeb9221c771e721,610368abf9c6dac72b80afc8,2021-07-29_22h50.10.188,Simcolourproject_2stim_asymm_v5,2020.2.10,MacIntel,60,61025ae37ef11b136ea224fe,,,,,,,,,2868,43.39434814,-45.72894287,1,0,0,response3disk,,4,13.07055664,-1.702636719,1,0,0,rectangle,13.07055664,-1.702636719,1,0,0,13.07055664,-1.702636719,1,0,0,0,83,83,103,1,,,,,,,,
,,,,,,,,,,,,,FF,,,,,,,,1.6331,,,,,,,,,,,,,,,,,,,,,,6103645ddeeb9221c771e721,610368abf9c6dac72b80afc8,2021-07-29_22h50.10.188,Simcolourproject_2stim_asymm_v5,2020.2.10,MacIntel,60,61025ae37ef11b136ea224fe,,,,,,,,,2092,73.98956299,38.1986084,1,0,0,response1disk,,6,21.30633545,1.258605957,1,0,0,rectangle,21.30633545,1.258605957,1,0,0,21.30633545,1.258605957,1,0,0,0,84,84,128,1,,,,,,,,
,,,,,,,,,,,,,FF,,,,,,,,1.0648,,,,,,,,,,,,,,,,,,,,,,6103645ddeeb9221c771e721,610368abf9c6dac72b80afc8,2021-07-29_22h50.10.188,Simcolourproject_2stim_asymm_v5,2020.2.10,MacIntel,60,61025ae37ef11b136ea224fe,,,,,,,,,3438,-25.7086792,-45.8236084,1,0,0,response5disk,,3,-2.252380371,-0.010070801,1,0,0,rectangle,-2.252380371,-0.010070801,1,0,0,-2.252380371,-0.010070801,1,0,0,0,85,85,71,1,,,,,,,,
,,,,,,,,,,,,,FF,,,,,,,,0.7171,,,,,,,,,,,,,,,,,,,,,,6103645ddeeb9221c771e721,610368abf9c6dac72b80afc8,2021-07-29_22h50.10.188,Simcolourproject_2stim_asymm_v5,2020.2.10,MacIntel,60,61025ae37ef11b136ea224fe,,,,,,,,,2882,87.00604248,-48.19891357,1,0,0,response3disk,,5,20.63684082,-8.386199951,1,0,0,rectangle,20.63684082,-8.386199951,1,0,0,20.63684082,-8.386199951,1,0,0,0,86,86,28,1,,,,,,,,
,,,,,,,,,,,,,FF,,,,,,,,0.5995,,,,,,,,,,,,,,,,,,,,,,6103645ddeeb9221c771e721,610368abf9c6dac72b80afc8,2021-07-29_22h50.10.188,Simcolourproject_2stim_asymm_v5,2020.2.10,MacIntel,60,61025ae37ef11b136ea224fe,,,,,,,,,2830,72.54498291,-35.94967651,1,0,0,response3disk,,5,13.66473389,1.406188965,1,0,0,rectangle,13.66473389,1.406188965,1,0,0,13.66473389,1.406188965,1,0,0,0,87,87,98,1,,,,,,,,
,,,,,,,,,,,,,FF,,,,,,,,1.4003,,,,,,,,,,,,,,,,,,,,,,6103645ddeeb9221c771e721,610368abf9c6dac72b80afc8,2021-07-29_22h50.10.188,Simcolourproject_2stim_asymm_v5,2020.2.10,MacIntel,60,61025ae37ef11b136ea224fe,,,,,,,,,3399,-53.84759521,-64.99505615,1,0,0,response5disk,,3,-11.35040283,-3.309692383,1,0,0,rectangle,-11.35040283,-3.309692383,1,0,0,-11.35040283,-3.309692383,1,0,0,0,88,88,24,1,,,,,,,,
,,,,,,,,,,,,,FF,,,,,,,,1.8499,,,,,,,,,,,,,,,,,,,,,,6103645ddeeb9221c771e721,610368abf9c6dac72b80afc8,2021-07-29_22h50.10.188,Simcolourproject_2stim_asymm_v5,2020.2.10,MacIntel,60,61025ae37ef11b136ea224fe,,,,,,,,,2053,92.42797852,35.69226074,1,0,0,response1disk,,6,0.539245605,9.171844482,1,0,0,rectangle,0.539245605,9.171844482,1,0,0,0.539245605,9.171844482,1,0,0,0,89,89,12,1,,,,,,,,
,,,,,,,,,,,,,FF,,,,,,,,0.8001,,,,,,,,,,,,,,,,,,,,,,6103645ddeeb9221c771e721,610368abf9c6dac72b80afc8,2021-07-29_22h50.10.188,Simcolourproject_2stim_asymm_v5,2020.2.10,MacIntel,60,61025ae37ef11b136ea224fe,,,,,,,,,527,-66.41210938,-32.12258911,1,0,0,response5disk,,2,-27.59362793,-3.198852539,1,0,0,rectangle,-27.59362793,-3.198852539,1,0,0,-27.59362793,-3.198852539,1,0,0,0,90,90,22,1,,,,,,,,
,,,,,,,,,,,,,FF,,,,,,,,0.8859,,,,,,,,,,,,,,,,,,,,,,6103645ddeeb9221c771e721,610368abf9c6dac72b80afc8,2021-07-29_22h50.10.188,Simcolourproject_2stim_asymm_v5,2020.2.10,MacIntel,60,61025ae37ef11b136ea224fe,,,,,,,,,215,81.49853516,31.4284668,1,0,0,response1disk,,6,3.053833008,-5.194976807,1,0,0,rectangle,3.053833008,-5.194976807,1,0,0,3.053833008,-5.194976807,1,0,0,0,91,91,40,1,,,,,,,,
,,,,,,,,,,,,,FF,,,,,,,,1.3337,,,,,,,,,,,,,,,,,,,,,,6103645ddeeb9221c771e721,610368abf9c6dac72b80afc8,2021-07-29_22h50.10.188,Simcolourproject_2stim_asymm_v5,2020.2.10,MacIntel,60,61025ae37ef11b136ea224fe,,,,,,,,,2101,-66.02246094,-41.34381104,1,0,0,response5disk,,2,-7.488342285,-15.21368408,1,0,0,rectangle,-7.488342285,-15.21368408,1,0,0,-7.488342285,-15.21368408,1,0,0,0,92,92,69,1,,,,,,,,
,,,,,,,,,,,,,FF,,,,,,,,0.8176,,,,,,,,,,,,,,,,,,,,,,6103645ddeeb9221c771e721,610368abf9c6dac72b80afc8,2021-07-29_22h50.10.188,Simcolourproject_2stim_asymm_v5,2020.2.10,MacIntel,60,61025ae37ef11b136ea224fe,,,,,,,,,3197,-76.7857666,-25.64465332,1,0,0,response5disk,,2,11.06970215,12.27124023,1,0,0,rectangle,11.06970215,12.27124023,1,0,0,11.06970215,12.27124023,1,0,0,0,93,93,123,1,,,,,,,,
,,,,,,,,,,,,,FF,,,,,,,,0.9666,,,,,,,,,,,,,,,,,,,,,,6103645ddeeb9221c771e721,610368abf9c6dac72b80afc8,2021-07-29_22h50.10.188,Simcolourproject_2stim_asymm_v5,2020.2.10,MacIntel,60,61025ae37ef11b136ea224fe,,,,,,,,,813,90.90576172,-41.8838501,1,0,0,response3disk,,5,-2.988037109,-13.90939331,1,0,0,rectangle,-2.988037109,-13.90939331,1,0,0,-2.988037109,-13.90939331,1,0,0,0,94,94,6,1,,,,,,,,
,,,,,,,,,,,,,FF,,,,,,,,0.8002,,,,,,,,,,,,,,,,,,,,,,6103645ddeeb9221c771e721,610368abf9c6dac72b80afc8,2021-07-29_22h50.10.188,Simcolourproject_2stim_asymm_v5,2020.2.10,MacIntel,60,61025ae37ef11b136ea224fe,,,,,,,,,2802,92.39465332,32.49523926,1,0,0,response1disk,,6,20.75860596,8.156585693,1,0,0,rectangle,20.75860596,8.156585693,1,0,0,20.75860596,8.156585693,1,0,0,0,95,95,150,1,,,,,,,,
,,,,,,,,,,,,,FF,,,,,,,,1.4196,,,,,,,,,,,,,,,,,,,,,,6103645ddeeb9221c771e721,610368abf9c6dac72b80afc8,2021-07-29_22h50.10.188,Simcolourproject_2stim_asymm_v5,2020.2.10,MacIntel,60,61025ae37ef11b136ea224fe,,,,,,,,,3474,-81.31866455,-35.48828125,1,0,0,response5disk,,2,-6.353515625,0.022216797,1,0,0,rectangle,-6.353515625,0.022216797,1,0,0,-6.353515625,0.022216797,1,0,0,0,96,96,141,1,,,,,,,,
,,,,,,,,,,,,,FF,,,,,,,,3.4844,,,,,,,,,,,,,,,,,,,,,,6103645ddeeb9221c771e721,610368abf9c6dac72b80afc8,2021-07-29_22h50.10.188,Simcolourproject_2stim_asymm_v5,2020.2.10,MacIntel,60,61025ae37ef11b136ea224fe,,,,,,,,,2248,72.91241455,-27.39611816,1,0,0,response3disk,,5,6.743652344,-7.174224854,1,0,0,rectangle,6.743652344,-7.174224854,1,0,0,6.743652344,-7.174224854,1,0,0,0,97,97,35,1,,,,,,,,
,,,,,,,,,,,,,FF,,,,,,,,0.9185,,,,,,,,,,,,,,,,,,,,,,6103645ddeeb9221c771e721,610368abf9c6dac72b80afc8,2021-07-29_22h50.10.188,Simcolourproject_2stim_asymm_v5,2020.2.10,MacIntel,60,61025ae37ef11b136ea224fe,,,,,,,,,2292,-81.86517334,46.01348877,1,0,0,response7disk,,1,-6.459350586,10.47644043,1,0,0,rectangle,-6.459350586,10.47644043,1,0,0,-6.459350586,10.47644043,1,0,0,0,98,98,61,1,,,,,,,,
,,,,,,,,,,,,,FF,,,,,,,,0.6839,,,,,,,,,,,,,,,,,,,,,,6103645ddeeb9221c771e721,610368abf9c6dac72b80afc8,2021-07-29_22h50.10.188,Simcolourproject_2stim_asymm_v5,2020.2.10,MacIntel,60,61025ae37ef11b136ea224fe,,,,,,,,,1729,58.51464844,-44.44171143,1,0,0,response3disk,,5,-14.1640625,-7.448059082,1,0,0,rectangle,-14.1640625,-7.448059082,1,0,0,-14.1640625,-7.448059082,1,0,0,0,99,99,133,1,,,,,,,,
,,,,,,,,,,,,,FF,,,,,,,,0.6837,,,,,,,,,,,,,,,,,,,,,,6103645ddeeb9221c771e721,610368abf9c6dac72b80afc8,2021-07-29_22h50.10.188,Simcolourproject_2stim_asymm_v5,2020.2.10,MacIntel,60,61025ae37ef11b136ea224fe,,,,,,,,,3241,64.07995605,-31.35400391,1,0,0,response3disk,,5,17.52978516,1.506286621,1,0,0,rectangle,17.52978516,1.506286621,1,0,0,17.52978516,1.506286621,1,0,0,0,100,100,55,1,,,,,,,,
,,,,,,,,,,,,,FF,,,,,,,,0.5846,,,,,,,,,,,,,,,,,,,,,,6103645ddeeb9221c771e721,610368abf9c6dac72b80afc8,2021-07-29_22h50.10.188,Simcolourproject_2stim_asymm_v5,2020.2.10,MacIntel,60,61025ae37ef11b136ea224fe,,,,,,,,,2743,79.40844727,-33.46905518,1,0,0,response3disk,,5,-8.671203613,-2.029083252,1,0,0,rectangle,-8.671203613,-2.029083252,1,0,0,-8.671203613,-2.029083252,1,0,0,0,101,101,74,1,,,,,,,,
,,,,,,,,,,,,,FF,,,,,,,,0.6837,,,,,,,,,,,,,,,,,,,,,,6103645ddeeb9221c771e721,610368abf9c6dac72b80afc8,2021-07-29_22h50.10.188,Simcolourproject_2stim_asymm_v5,2020.2.10,MacIntel,60,61025ae37ef11b136ea224fe,,,,,,,,,4346,-67.39178467,-36.38674927,1,0,0,response5disk,,2,0.520874023,-8.038269043,1,0,0,rectangle,0.520874023,-8.038269043,1,0,0,0.520874023,-8.038269043,1,0,0,0,102,102,14,1,,,,,,,,
,,,,,,,,,,,,,FF,,,,,,,,0.6832,,,,,,,,,,,,,,,,,,,,,,6103645ddeeb9221c771e721,610368abf9c6dac72b80afc8,2021-07-29_22h50.10.188,Simcolourproject_2stim_asymm_v5,2020.2.10,MacIntel,60,61025ae37ef11b136ea224fe,,,,,,,,,2676,-67.33514404,-36.81130981,1,0,0,response5disk,,2,4.022583008,17.22918701,1,0,0,rectangle,4.022583008,17.22918701,1,0,0,4.022583008,17.22918701,1,0,0,0,103,103,70,1,,,,,,,,
,,,,,,,,,,,,,FF,,,,,,,,0.7502,,,,,,,,,,,,,,,,,,,,,,6103645ddeeb9221c771e721,610368abf9c6dac72b80afc8,2021-07-29_22h50.10.188,Simcolourproject_2stim_asymm_v5,2020.2.10,MacIntel,60,61025ae37ef11b136ea224fe,,,,,,,,,595,96.65478516,22.3180542,1,0,0,response1disk,,6,-3.402648926,13.29083252,1,0,0,rectangle,-3.402648926,13.29083252,1,0,0,-3.402648926,13.29083252,1,0,0,0,104,104,25,1,,,,,,,,
,,,,,,,,,,,,,FF,,,,,,,,0.45,,,,,,,,,,,,,,,,,,,,,,6103645ddeeb9221c771e721,610368abf9c6dac72b80afc8,2021-07-29_22h50.10.188,Simcolourproject_2stim_asymm_v5,2020.2.10,MacIntel,60,61025ae37ef11b136ea224fe,,,,,,,,,2125,96.71502686,19.40493774,1,0,0,response1disk,,6,14.50073242,14.97131348,1,0,0,rectangle,14.50073242,14.97131348,1,0,0,14.50073242,14.97131348,1,0,0,0,105,105,62,1,,,,,,,,
,,,,,,,,,,,,,FF,,,,,,,,0.3809,,,,,,,,,,,,,,,,,,,,,,6103645ddeeb9221c771e721,610368abf9c6dac72b80afc8,2021-07-29_22h50.10.188,Simcolourproject_2stim_asymm_v5,2020.2.10,MacIntel,60,61025ae37ef11b136ea224fe,,,,,,,,,394,70.22247314,31.03607178,1,0,0,response1disk,,6,2.634277344,10.42391968,1,0,0,rectangle,2.634277344,10.42391968,1,0,0,2.634277344,10.42391968,1,0,0,0,106,106,92,1,,,,,,,,
,,,,,,,,,,,,,FF,,,,,,,,0.4328,,,,,,,,,,,,,,,,,,,,,,6103645ddeeb9221c771e721,610368abf9c6dac72b80afc8,2021-07-29_22h50.10.188,Simcolourproject_2stim_asymm_v5,2020.2.10,MacIntel,60,61025ae37ef11b136ea224fe,,,,,,,,,3797,62.14837646,-25.57580566,1,0,0,response3disk,,5,4.219055176,-9.670227051,1,0,0,rectangle,4.219055176,-9.670227051,1,0,0,4.219055176,-9.670227051,1,0,0,0,107,107,63,1,,,,,,,,
,,,,,,,,,,,,,FF,,,,,,,,0.3832,,,,,,,,,,,,,,,,,,,,,,6103645ddeeb9221c771e721,610368abf9c6dac72b80afc8,2021-07-29_22h50.10.188,Simcolourproject_2stim_asymm_v5,2020.2.10,MacIntel,60,61025ae37ef11b136ea224fe,,,,,,,,,758,60.6583252,-37.2255249,1,0,0,response3disk,,5,13.72155762,-5.395263672,1,0,0,rectangle,13.72155762,-5.395263672,1,0,0,13.72155762,-5.395263672,1,0,0,0,108,108,57,1,,,,,,,,
,,,,,,,,,,,,,FF,,,,,,,,0.3501,,,,,,,,,,,,,,,,,,,,,,6103645ddeeb9221c771e721,610368abf9c6dac72b80afc8,2021-07-29_22h50.10.188,Simcolourproject_2stim_asymm_v5,2020.2.10,MacIntel,60,61025ae37ef11b136ea224fe,,,,,,,,,3247,77.515625,-36.80786133,1,0,0,response3disk,,5,11.34490967,-5.926025391,1,0,0,rectangle,11.34490967,-5.926025391,1,0,0,11.34490967,-5.926025391,1,0,0,0,109,109,11,1,,,,,,,,
,,,,,,,,,,,,,FF,,,,,,,,0.3334,,,,,,,,,,,,,,,,,,,,,,6103645ddeeb9221c771e721,610368abf9c6dac72b80afc8,2021-07-29_22h50.10.188,Simcolourproject_2stim_asymm_v5,2020.2.10,MacIntel,60,61025ae37ef11b136ea224fe,,,,,,,,,2813,60.49414063,-29.11273193,1,0,0,response3disk,,5,-2.013793945,3.622558594,1,0,0,rectangle,-2.013793945,3.622558594,1,0,0,-2.013793945,3.622558594,1,0,0,0,110,110,32,1,,,,,,,,
,,,,,,,,,,,,,FF,,,,,,,,0.5505,,,,,,,,,,,,,,,,,,,,,,6103645ddeeb9221c771e721,610368abf9c6dac72b80afc8,2021-07-29_22h50.10.188,Simcolourproject_2stim_asymm_v5,2020.2.10,MacIntel,60,61025ae37ef11b136ea224fe,,,,,,,,,356,-68.23626709,-29.39822388,1,0,0,response5disk,,2,-14.17382813,-1.895111084,1,0,0,rectangle,-14.17382813,-1.895111084,1,0,0,-14.17382813,-1.895111084,1,0,0,0,111,111,97,1,,,,,,,,
,,,,,,,,,,,,,FF,,,,,,,,1.1503,,,,,,,,,,,,,,,,,,,,,,6103645ddeeb9221c771e721,610368abf9c6dac72b80afc8,2021-07-29_22h50.10.188,Simcolourproject_2stim_asymm_v5,2020.2.10,MacIntel,60,61025ae37ef11b136ea224fe,,,,,,,,,2185,102.2617188,-28.58795166,1,0,0,response3disk,,5,6.360351563,1.290527344,1,0,0,rectangle,6.360351563,1.290527344,1,0,0,6.360351563,1.290527344,1,0,0,0,112,112,119,1,,,,,,,,
,,,,,,,,,,,,,FF,,,,,,,,0.4498,,,,,,,,,,,,,,,,,,,,,,6103645ddeeb9221c771e721,610368abf9c6dac72b80afc8,2021-07-29_22h50.10.188,Simcolourproject_2stim_asymm_v5,2020.2.10,MacIntel,60,61025ae37ef11b136ea224fe,,,,,,,,,1391,56.51135254,32.71401978,1,0,0,response1disk,,6,-16.14453125,-0.257446289,1,0,0,rectangle,-16.14453125,-0.257446289,1,0,0,-16.14453125,-0.257446289,1,0,0,0,113,113,96,1,,,,,,,,
,,,,,,,,,,,,,FF,,,,,,,,0.8674,,,,,,,,,,,,,,,,,,,,,,6103645ddeeb9221c771e721,610368abf9c6dac72b80afc8,2021-07-29_22h50.10.188,Simcolourproject_2stim_asymm_v5,2020.2.10,MacIntel,60,61025ae37ef11b136ea224fe,,,,,,,,,1459,-19.40307617,-46.05371094,1,0,0,response5disk,,3,2.901794434,-1.239257813,1,0,0,rectangle,2.901794434,-1.239257813,1,0,0,2.901794434,-1.239257813,1,0,0,0,114,114,38,1,,,,,,,,
,,,,,,,,,,,,,FF,,,,,,,,1.1015,,,,,,,,,,,,,,,,,,,,,,6103645ddeeb9221c771e721,610368abf9c6dac72b80afc8,2021-07-29_22h50.10.188,Simcolourproject_2stim_asymm_v5,2020.2.10,MacIntel,60,61025ae37ef11b136ea224fe,,,,,,,,,3414,58.47277832,-22.46514893,1,0,0,response3disk,,5,-6.242004395,10.50576782,1,0,0,rectangle,-6.242004395,10.50576782,1,0,0,-6.242004395,10.50576782,1,0,0,0,115,115,148,1,,,,,,,,
,,,,,,,,,,,,,FF,,,,,,,,1.8327,,,,,,,,,,,,,,,,,,,,,,6103645ddeeb9221c771e721,610368abf9c6dac72b80afc8,2021-07-29_22h50.10.188,Simcolourproject_2stim_asymm_v5,2020.2.10,MacIntel,60,61025ae37ef11b136ea224fe,,,,,,,,,8,29.81640625,-43.03131104,1,0,0,response3disk,,4,12.30541992,-7.841308594,1,0,0,rectangle,12.30541992,-7.841308594,1,0,0,12.30541992,-7.841308594,1,0,0,0,116,116,49,1,,,,,,,,
,,,,,,,,,,,,,FF,,,,,,,,0.8839,,,,,,,,,,,,,,,,,,,,,,6103645ddeeb9221c771e721,610368abf9c6dac72b80afc8,2021-07-29_22h50.10.188,Simcolourproject_2stim_asymm_v5,2020.2.10,MacIntel,60,61025ae37ef11b136ea224fe,,,,,,,,,4054,-75.6192627,-39.08145142,1,0,0,response5disk,,2,6.558166504,2.801239014,1,0,0,rectangle,6.558166504,2.801239014,1,0,0,6.558166504,2.801239014,1,0,0,0,117,117,75,1,,,,,,,,
,,,,,,,,,,,,,FF,,,,,,,,1.283,,,,,,,,,,,,,,,,,,,,,,6103645ddeeb9221c771e721,610368abf9c6dac72b80afc8,2021-07-29_22h50.10.188,Simcolourproject_2stim_asymm_v5,2020.2.10,MacIntel,60,61025ae37ef11b136ea224fe,,,,,,,,,2107,27.5723877,-52.36639404,1,0,0,response3disk,,4,-5.941162109,9.65802002,1,0,0,rectangle,-5.941162109,9.65802002,1,0,0,-5.941162109,9.65802002,1,0,0,0,118,118,108,1,,,,,,,,
,,,,,,,,,,,,,FF,,,,,,,,1.0982,,,,,,,,,,,,,,,,,,,,,,6103645ddeeb9221c771e721,610368abf9c6dac72b80afc8,2021-07-29_22h50.10.188,Simcolourproject_2stim_asymm_v5,2020.2.10,MacIntel,60,61025ae37ef11b136ea224fe,,,,,,,,,2350,71.43249512,25.14642334,1,0,0,response1disk,,6,3.721618652,5.639709473,1,0,0,rectangle,3.721618652,5.639709473,1,0,0,3.721618652,5.639709473,1,0,0,0,119,119,131,1,,,,,,,,
,,,,,,,,,,,,,FF,,,,,,,,0.8342,,,,,,,,,,,,,,,,,,,,,,6103645ddeeb9221c771e721,610368abf9c6dac72b80afc8,2021-07-29_22h50.10.188,Simcolourproject_2stim_asymm_v5,2020.2.10,MacIntel,60,61025ae37ef11b136ea224fe,,,,,,,,,665,-25.82409668,-43.75286865,1,0,0,response5disk,,3,-4.82623291,2.862487793,1,0,0,rectangle,100.8890991,41.40039063,1,0,0,3.955627441,-4.408111572,1,0,0,0,120,120,156,1,,response1disk_3,TRUE,6,6,"[280,224,207,196,71,135,215,121,65,10,256,296,323,249,83,309,35,283,33,222]",1.5815,rectangle
,,,,,,,,,,,,,FF,,,,,,,,2.299,,,,,,,,,,,,,,,,,,,,,,6103645ddeeb9221c771e721,610368abf9c6dac72b80afc8,2021-07-29_22h50.10.188,Simcolourproject_2stim_asymm_v5,2020.2.10,MacIntel,60,61025ae37ef11b136ea224fe,,,,,,,,,2904,52.20861816,-71.84814453,1,0,0,response3disk,,4,-3.139099121,7.678344727,1,0,0,rectangle,-3.139099121,7.678344727,1,0,0,-3.139099121,7.678344727,1,0,0,0,121,121,29,1,,,,,,,,
,,,,,,,,,,,,,FF,,,,,,,,0.616,,,,,,,,,,,,,,,,,,,,,,6103645ddeeb9221c771e721,610368abf9c6dac72b80afc8,2021-07-29_22h50.10.188,Simcolourproject_2stim_asymm_v5,2020.2.10,MacIntel,60,61025ae37ef11b136ea224fe,,,,,,,,,3410,21.96075439,-23.84576416,1,0,0,response3disk,,4,11.28173828,-4.766296387,1,0,0,rectangle,11.28173828,-4.766296387,1,0,0,11.28173828,-4.766296387,1,0,0,0,122,122,18,1,,,,,,,,
,,,,,,,,,,,,,FF,,,,,,,,0.7312,,,,,,,,,,,,,,,,,,,,,,6103645ddeeb9221c771e721,610368abf9c6dac72b80afc8,2021-07-29_22h50.10.188,Simcolourproject_2stim_asymm_v5,2020.2.10,MacIntel,60,61025ae37ef11b136ea224fe,,,,,,,,,718,-82.88317871,-41.50500488,1,0,0,response5disk,,2,6.393432617,8.306091309,1,0,0,rectangle,6.393432617,8.306091309,1,0,0,6.393432617,8.306091309,1,0,0,0,123,123,87,1,,,,,,,,
,,,,,,,,,,,,,FF,,,,,,,,1.048,,,,,,,,,,,,,,,,,,,,,,6103645ddeeb9221c771e721,610368abf9c6dac72b80afc8,2021-07-29_22h50.10.188,Simcolourproject_2stim_asymm_v5,2020.2.10,MacIntel,60,61025ae37ef11b136ea224fe,,,,,,,,,4249,80.20452881,-21.08355713,1,0,0,response3disk,,5,7.947265625,3.68182373,1,0,0,rectangle,7.947265625,3.68182373,1,0,0,7.947265625,3.68182373,1,0,0,0,124,124,146,1,,,,,,,,
,,,,,,,,,,,,,FF,,,,,,,,0.736,,,,,,,,,,,,,,,,,,,,,,6103645ddeeb9221c771e721,610368abf9c6dac72b80afc8,2021-07-29_22h50.10.188,Simcolourproject_2stim_asymm_v5,2020.2.10,MacIntel,60,61025ae37ef11b136ea224fe,,,,,,,,,2564,52.59844971,-38.06781006,1,0,0,response3disk,,5,8.179626465,6.387939453,1,0,0,rectangle,8.179626465,6.387939453,1,0,0,8.179626465,6.387939453,1,0,0,0,125,125,66,1,,,,,,,,
,,,,,,,,,,,,,FF,,,,,,,,0.5856,,,,,,,,,,,,,,,,,,,,,,6103645ddeeb9221c771e721,610368abf9c6dac72b80afc8,2021-07-29_22h50.10.188,Simcolourproject_2stim_asymm_v5,2020.2.10,MacIntel,60,61025ae37ef11b136ea224fe,,,,,,,,,1848,33.03283691,-43.65896606,1,0,0,response3disk,,4,18.28979492,-13.14663696,1,0,0,rectangle,18.28979492,-13.14663696,1,0,0,18.28979492,-13.14663696,1,0,0,0,126,126,136,1,,,,,,,,
,,,,,,,,,,,,,FF,,,,,,,,0.8177,,,,,,,,,,,,,,,,,,,,,,6103645ddeeb9221c771e721,610368abf9c6dac72b80afc8,2021-07-29_22h50.10.188,Simcolourproject_2stim_asymm_v5,2020.2.10,MacIntel,60,61025ae37ef11b136ea224fe,,,,,,,,,532,-74.78918457,36.26226807,1,0,0,response7disk,,1,12.53436279,2.381744385,1,0,0,rectangle,12.53436279,2.381744385,1,0,0,12.53436279,2.381744385,1,0,0,0,127,127,76,1,,,,,,,,
,,,,,,,,,,,,,FF,,,,,,,,0.9319,,,,,,,,,,,,,,,,,,,,,,6103645ddeeb9221c771e721,610368abf9c6dac72b80afc8,2021-07-29_22h50.10.188,Simcolourproject_2stim_asymm_v5,2020.2.10,MacIntel,60,61025ae37ef11b136ea224fe,,,,,,,,,1850,73.62280273,-34.11956787,1,0,0,response3disk,,5,6.947814941,-9.700195313,1,0,0,rectangle,6.947814941,-9.700195313,1,0,0,6.947814941,-9.700195313,1,0,0,0,128,128,122,1,,,,,,,,
,,,,,,,,,,,,,FF,,,,,,,,0.7655,,,,,,,,,,,,,,,,,,,,,,6103645ddeeb9221c771e721,610368abf9c6dac72b80afc8,2021-07-29_22h50.10.188,Simcolourproject_2stim_asymm_v5,2020.2.10,MacIntel,60,61025ae37ef11b136ea224fe,,,,,,,,,1259,69.36297607,-39.59338379,1,0,0,response3disk,,5,-4.352661133,-3.736633301,1,0,0,rectangle,-4.352661133,-3.736633301,1,0,0,-4.352661133,-3.736633301,1,0,0,0,129,129,81,1,,,,,,,,
,,,,,,,,,,,,,FF,,,,,,,,0.9835,,,,,,,,,,,,,,,,,,,,,,6103645ddeeb9221c771e721,610368abf9c6dac72b80afc8,2021-07-29_22h50.10.188,Simcolourproject_2stim_asymm_v5,2020.2.10,MacIntel,60,61025ae37ef11b136ea224fe,,,,,,,,,887,-81.88012695,40.04418945,1,0,0,response7disk,,1,4.769348145,-3.279174805,1,0,0,rectangle,4.769348145,-3.279174805,1,0,0,4.769348145,-3.279174805,1,0,0,0,130,130,143,1,,,,,,,,
,,,,,,,,,,,,,FF,,,,,,,,1.7161,,,,,,,,,,,,,,,,,,,,,,6103645ddeeb9221c771e721,610368abf9c6dac72b80afc8,2021-07-29_22h50.10.188,Simcolourproject_2stim_asymm_v5,2020.2.10,MacIntel,60,61025ae37ef11b136ea224fe,,,,,,,,,1338,82.58355713,35.59442139,1,0,0,response1disk,,6,-8.326416016,6.235809326,1,0,0,rectangle,-8.326416016,6.235809326,1,0,0,-8.326416016,6.235809326,1,0,0,0,131,131,102,1,,,,,,,,
,,,,,,,,,,,,,FF,,,,,,,,0.6664,,,,,,,,,,,,,,,,,,,,,,6103645ddeeb9221c771e721,610368abf9c6dac72b80afc8,2021-07-29_22h50.10.188,Simcolourproject_2stim_asymm_v5,2020.2.10,MacIntel,60,61025ae37ef11b136ea224fe,,,,,,,,,3688,69.83435059,38.79916382,1,0,0,response1disk,,6,2.618713379,2.683135986,1,0,0,rectangle,2.618713379,2.683135986,1,0,0,2.618713379,2.683135986,1,0,0,0,132,132,60,1,,,,,,,,
,,,,,,,,,,,,,FF,,,,,,,,1.0654,,,,,,,,,,,,,,,,,,,,,,6103645ddeeb9221c771e721,610368abf9c6dac72b80afc8,2021-07-29_22h50.10.188,Simcolourproject_2stim_asymm_v5,2020.2.10,MacIntel,60,61025ae37ef11b136ea224fe,,,,,,,,,1757,-23.97247314,-62.54333496,1,0,0,response5disk,,3,-2.535217285,-5.58770752,1,0,0,rectangle,-2.535217285,-5.58770752,1,0,0,-2.535217285,-5.58770752,1,0,0,0,133,133,26,1,,,,,,,,
,,,,,,,,,,,,,FF,,,,,,,,1.6176,,,,,,,,,,,,,,,,,,,,,,6103645ddeeb9221c771e721,610368abf9c6dac72b80afc8,2021-07-29_22h50.10.188,Simcolourproject_2stim_asymm_v5,2020.2.10,MacIntel,60,61025ae37ef11b136ea224fe,,,,,,,,,2044,43.20214844,-27.63601685,1,0,0,response3disk,,5,17.60229492,-7.69317627,1,0,0,rectangle,-47.800354,75.89233398,1,0,0,-2.788452148,9.736053467,1,0,0,0,134,134,48,1,,response7disk_3,TRUE,0,0,"[280,224,207,196,71,135,215,121,65,10,256,296,323,249,83,309,35,283,33,222]",1.4305,rectangle
,,,,,,,,,,,,,FF,,,,,,,,1.7679,,,,,,,,,,,,,,,,,,,,,,6103645ddeeb9221c771e721,610368abf9c6dac72b80afc8,2021-07-29_22h50.10.188,Simcolourproject_2stim_asymm_v5,2020.2.10,MacIntel,60,61025ae37ef11b136ea224fe,,,,,,,,,3710,-30.95245361,-59.13616943,1,0,0,response5disk,,3,-7.473937988,-12.29504395,1,0,0,rectangle,-7.473937988,-12.29504395,1,0,0,-7.473937988,-12.29504395,1,0,0,0,135,135,53,1,,,,,,,,
,,,,,,,,,,,,,FF,,,,,,,,1.1351,,,,,,,,,,,,,,,,,,,,,,6103645ddeeb9221c771e721,610368abf9c6dac72b80afc8,2021-07-29_22h50.10.188,Simcolourproject_2stim_asymm_v5,2020.2.10,MacIntel,60,61025ae37ef11b136ea224fe,,,,,,,,,810,-89.45239258,-40.90917969,1,0,0,response5disk,,2,-17.61645508,-2.774536133,1,0,0,rectangle,-17.61645508,-2.774536133,1,0,0,-17.61645508,-2.774536133,1,0,0,0,136,136,19,1,,,,,,,,
,,,,,,,,,,,,,FF,,,,,,,,0.9886,,,,,,,,,,,,,,,,,,,,,,6103645ddeeb9221c771e721,610368abf9c6dac72b80afc8,2021-07-29_22h50.10.188,Simcolourproject_2stim_asymm_v5,2020.2.10,MacIntel,60,61025ae37ef11b136ea224fe,,,,,,,,,2502,73.83093262,-22.65936279,1,0,0,response3disk,,5,15.46569824,6.566711426,1,0,0,rectangle,15.46569824,6.566711426,1,0,0,15.46569824,6.566711426,1,0,0,0,137,137,80,1,,,,,,,,
,,,,,,,,,,,,,FF,,,,,,,,0.7014,,,,,,,,,,,,,,,,,,,,,,6103645ddeeb9221c771e721,610368abf9c6dac72b80afc8,2021-07-29_22h50.10.188,Simcolourproject_2stim_asymm_v5,2020.2.10,MacIntel,60,61025ae37ef11b136ea224fe,,,,,,,,,4037,50.49084473,40.31341553,1,0,0,response1disk,,6,-0.011657715,1.980804443,1,0,0,rectangle,-0.011657715,1.980804443,1,0,0,-0.011657715,1.980804443,1,0,0,0,138,138,7,1,,,,,,,,
,,,,,,,,,,,,,FF,,,,,,,,1.3194,,,,,,,,,,,,,,,,,,,,,,6103645ddeeb9221c771e721,610368abf9c6dac72b80afc8,2021-07-29_22h50.10.188,Simcolourproject_2stim_asymm_v5,2020.2.10,MacIntel,60,61025ae37ef11b136ea224fe,,,,,,,,,2907,-27.07214355,-57.88018799,1,0,0,response5disk,,3,0.870788574,-11.17150879,1,0,0,rectangle,0.870788574,-11.17150879,1,0,0,0.870788574,-11.17150879,1,0,0,0,139,139,79,1,,,,,,,,
,,,,,,,,,,,,,FF,,,,,,,,0.9178,,,,,,,,,,,,,,,,,,,,,,6103645ddeeb9221c771e721,610368abf9c6dac72b80afc8,2021-07-29_22h50.10.188,Simcolourproject_2stim_asymm_v5,2020.2.10,MacIntel,60,61025ae37ef11b136ea224fe,,,,,,,,,3798,41.98632813,-40.25213623,1,0,0,response3disk,,5,14.29187012,-0.630371094,1,0,0,rectangle,14.29187012,-0.630371094,1,0,0,14.29187012,-0.630371094,1,0,0,0,140,140,4,1,,,,,,,,
,,,,,,,,,,,,,FF,,,,,,,,1.8318,,,,,,,,,,,,,,,,,,,,,,6103645ddeeb9221c771e721,610368abf9c6dac72b80afc8,2021-07-29_22h50.10.188,Simcolourproject_2stim_asymm_v5,2020.2.10,MacIntel,60,61025ae37ef11b136ea224fe,,,,,,,,,3049,-86.12762451,-36.53317261,1,0,0,response5disk,,2,-17.9317627,1.73248291,1,0,0,rectangle,-17.9317627,1.73248291,1,0,0,-17.9317627,1.73248291,1,0,0,0,141,141,83,1,,,,,,,,
,,,,,,,,,,,,,FF,,,,,,,,1.1669,,,,,,,,,,,,,,,,,,,,,,6103645ddeeb9221c771e721,610368abf9c6dac72b80afc8,2021-07-29_22h50.10.188,Simcolourproject_2stim_asymm_v5,2020.2.10,MacIntel,60,61025ae37ef11b136ea224fe,,,,,,,,,1419,68.42022705,34.56237793,1,0,0,response1disk,,6,0.550048828,-12.53320313,1,0,0,rectangle,0.550048828,-12.53320313,1,0,0,0.550048828,-12.53320313,1,0,0,0,142,142,30,1,,,,,,,,
,,,,,,,,,,,,,FF,,,,,,,,2.1676,,,,,,,,,,,,,,,,,,,,,,6103645ddeeb9221c771e721,610368abf9c6dac72b80afc8,2021-07-29_22h50.10.188,Simcolourproject_2stim_asymm_v5,2020.2.10,MacIntel,60,61025ae37ef11b136ea224fe,,,,,,,,,669,81.20440674,55.74038696,1,0,0,response1disk,,6,-1.019287109,-14.60327148,1,0,0,rectangle,-1.019287109,-14.60327148,1,0,0,-1.019287109,-14.60327148,1,0,0,0,143,143,59,1,,,,,,,,
,,,,,,,,,,,,,FF,,,,,,,,1.6477,,,,,,,,,,,,,,,,,,,,,,6103645ddeeb9221c771e721,610368abf9c6dac72b80afc8,2021-07-29_22h50.10.188,Simcolourproject_2stim_asymm_v5,2020.2.10,MacIntel,60,61025ae37ef11b136ea224fe,,,,,,,,,2501,52.06555176,-25.06848145,1,0,0,response3disk,,5,16.01727295,-16.04138184,1,0,0,rectangle,16.01727295,-16.04138184,1,0,0,16.01727295,-16.04138184,1,0,0,0,144,144,34,1,,,,,,,,
,,,,,,,,,,,,,FF,,,,,,,,0.7001,,,,,,,,,,,,,,,,,,,,,,6103645ddeeb9221c771e721,610368abf9c6dac72b80afc8,2021-07-29_22h50.10.188,Simcolourproject_2stim_asymm_v5,2020.2.10,MacIntel,60,61025ae37ef11b136ea224fe,,,,,,,,,2145,65.20892334,40.88705444,1,0,0,response1disk,,6,3.49041748,-3.813720703,1,0,0,rectangle,3.49041748,-3.813720703,1,0,0,3.49041748,-3.813720703,1,0,0,0,145,145,145,1,,,,,,,,
,,,,,,,,,,,,,FF,,,,,,,,2.0009,,,,,,,,,,,,,,,,,,,,,,6103645ddeeb9221c771e721,610368abf9c6dac72b80afc8,2021-07-29_22h50.10.188,Simcolourproject_2stim_asymm_v5,2020.2.10,MacIntel,60,61025ae37ef11b136ea224fe,,,,,,,,,4091,41.56054688,58.07000732,1,0,0,response1disk,,7,24.90393066,13.47592163,1,0,0,rectangle,24.90393066,13.47592163,1,0,0,24.90393066,13.47592163,1,0,0,0,146,146,37,1,,,,,,,,
,,,,,,,,,,,,,FF,,,,,,,,1.3333,,,,,,,,,,,,,,,,,,,,,,6103645ddeeb9221c771e721,610368abf9c6dac72b80afc8,2021-07-29_22h50.10.188,Simcolourproject_2stim_asymm_v5,2020.2.10,MacIntel,60,61025ae37ef11b136ea224fe,,,,,,,,,2395,45.31939697,26.57556152,1,0,0,response1disk,,6,-0.267211914,5.688049316,1,0,0,rectangle,-0.267211914,5.688049316,1,0,0,-0.267211914,5.688049316,1,0,0,0,147,147,17,1,,,,,,,,
,,,,,,,,,,,,,FF,,,,,,,,0.7169,,,,,,,,,,,,,,,,,,,,,,6103645ddeeb9221c771e721,610368abf9c6dac72b80afc8,2021-07-29_22h50.10.188,Simcolourproject_2stim_asymm_v5,2020.2.10,MacIntel,60,61025ae37ef11b136ea224fe,,,,,,,,,1499,61.44909668,41.07305908,1,0,0,response1disk,,6,13.95837402,11.08651733,1,0,0,rectangle,13.95837402,11.08651733,1,0,0,13.95837402,11.08651733,1,0,0,0,148,148,121,1,,,,,,,,
,,,,,,,,,,,,,FF,,,,,,,,0.484,,,,,,,,,,,,,,,,,,,,,,6103645ddeeb9221c771e721,610368abf9c6dac72b80afc8,2021-07-29_22h50.10.188,Simcolourproject_2stim_asymm_v5,2020.2.10,MacIntel,60,61025ae37ef11b136ea224fe,,,,,,,,,3763,63.87115479,31.21157837,1,0,0,response1disk,,6,10.56115723,3.167358398,1,0,0,rectangle,10.56115723,3.167358398,1,0,0,10.56115723,3.167358398,1,0,0,0,149,149,125,1,,,,,,,,
,,,,,,,,,,,,,FF,,,,,,,,0.3494,,,,,,,,,,,,,,,,,,,,,,6103645ddeeb9221c771e721,610368abf9c6dac72b80afc8,2021-07-29_22h50.10.188,Simcolourproject_2stim_asymm_v5,2020.2.10,MacIntel,60,61025ae37ef11b136ea224fe,,,,,,,,,3442,83.34991455,23.45349121,1,0,0,response1disk,,6,9.987731934,-3.784210205,1,0,0,rectangle,9.987731934,-3.784210205,1,0,0,9.987731934,-3.784210205,1,0,0,0,150,150,144,1,,,,,,,,
,,,,,,,,,,,,,FF,,,,,,,,0.6497,,,,,,,,,,,,,,,,,,,,,,6103645ddeeb9221c771e721,610368abf9c6dac72b80afc8,2021-07-29_22h50.10.188,Simcolourproject_2stim_asymm_v5,2020.2.10,MacIntel,60,61025ae37ef11b136ea224fe,,,,,,,,,3336,-34.91918945,78.09429932,1,0,0,response7disk,,0,-2.672485352,3.271118164,1,0,0,rectangle,-2.672485352,3.271118164,1,0,0,-2.672485352,3.271118164,1,0,0,0,151,151,134,1,,,,,,,,
,,,,,,,,,,,,,FF,,,,,,,,1.035,,,,,,,,,,,,,,,,,,,,,,6103645ddeeb9221c771e721,610368abf9c6dac72b80afc8,2021-07-29_22h50.10.188,Simcolourproject_2stim_asymm_v5,2020.2.10,MacIntel,60,61025ae37ef11b136ea224fe,,,,,,,,,2217,40.28167725,68.54519653,1,0,0,response1disk,,7,9.854858398,-11.84674072,1,0,0,rectangle,9.854858398,-11.84674072,1,0,0,9.854858398,-11.84674072,1,0,0,0,152,152,90,1,,,,,,,,
,,,,,,,,,,,,,FF,,,,,,,,0.7677,,,,,,,,,,,,,,,,,,,,,,6103645ddeeb9221c771e721,610368abf9c6dac72b80afc8,2021-07-29_22h50.10.188,Simcolourproject_2stim_asymm_v5,2020.2.10,MacIntel,60,61025ae37ef11b136ea224fe,,,,,,,,,470,54.61096191,35.57290649,1,0,0,response1disk,,6,8.991333008,-0.314147949,1,0,0,rectangle,8.991333008,-0.314147949,1,0,0,8.991333008,-0.314147949,1,0,0,0,153,153,20,1,,,,,,,,
,,,,,,,,,,,,,FF,,,,,,,,0.5521,,,,,,,,,,,,,,,,,,,,,,6103645ddeeb9221c771e721,610368abf9c6dac72b80afc8,2021-07-29_22h50.10.188,Simcolourproject_2stim_asymm_v5,2020.2.10,MacIntel,60,61025ae37ef11b136ea224fe,,,,,,,,,1846,57.49200439,42.26300049,1,0,0,response1disk,,6,5.599121094,-14.61343384,1,0,0,rectangle,5.599121094,-14.61343384,1,0,0,5.599121094,-14.61343384,1,0,0,0,154,154,91,1,,,,,,,,
,,,,,,,,,,,,,FF,,,,,,,,0.6851,,,,,,,,,,,,,,,,,,,,,,6103645ddeeb9221c771e721,610368abf9c6dac72b80afc8,2021-07-29_22h50.10.188,Simcolourproject_2stim_asymm_v5,2020.2.10,MacIntel,60,61025ae37ef11b136ea224fe,,,,,,,,,2264,48.20629883,-20.12414551,1,0,0,response3disk,,5,9.899780273,4.089538574,1,0,0,rectangle,9.899780273,4.089538574,1,0,0,9.899780273,4.089538574,1,0,0,0,155,155,154,1,,,,,,,,
,,,,,,,,,,,,,FF,,,,,,,,0.5513,,,,,,,,,,,,,,,,,,,,,,6103645ddeeb9221c771e721,610368abf9c6dac72b80afc8,2021-07-29_22h50.10.188,Simcolourproject_2stim_asymm_v5,2020.2.10,MacIntel,60,61025ae37ef11b136ea224fe,,,,,,,,,3657,55.3059082,-38.84991455,1,0,0,response3disk,,5,19.81835938,-3.8565979,1,0,0,rectangle,19.81835938,-3.8565979,1,0,0,19.81835938,-3.8565979,1,0,0,0,156,156,88,1,,,,,,,,
,,,,,,,,,,,,,FF,,,,,,,,0.6504,,,,,,,,,,,,,,,,,,,,,,6103645ddeeb9221c771e721,610368abf9c6dac72b80afc8,2021-07-29_22h50.10.188,Simcolourproject_2stim_asymm_v5,2020.2.10,MacIntel,60,61025ae37ef11b136ea224fe,,,,,,,,,4229,71.69714355,26.05877686,1,0,0,response1disk,,6,19.88848877,-0.524841309,1,0,0,rectangle,19.88848877,-0.524841309,1,0,0,19.88848877,-0.524841309,1,0,0,0,157,157,72,1,,,,,,,,
,,,,,,,,,,,,,FF,,,,,,,,0.6515,,,,,,,,,,,,,,,,,,,,,,6103645ddeeb9221c771e721,610368abf9c6dac72b80afc8,2021-07-29_22h50.10.188,Simcolourproject_2stim_asymm_v5,2020.2.10,MacIntel,60,61025ae37ef11b136ea224fe,,,,,,,,,924,75.47229004,33.00549316,1,0,0,response1disk,,6,20.4621582,9.892822266,1,0,0,rectangle,20.4621582,9.892822266,1,0,0,20.4621582,9.892822266,1,0,0,0,158,158,43,1,,,,,,,,
,,,,,,,,,,,,,FF,,,,,,,,0.4333,,,,,,,,,,,,,,,,,,,,,,6103645ddeeb9221c771e721,610368abf9c6dac72b80afc8,2021-07-29_22h50.10.188,Simcolourproject_2stim_asymm_v5,2020.2.10,MacIntel,60,61025ae37ef11b136ea224fe,,,,,,,,,3079,67.01153564,22.67901611,1,0,0,response1disk,,6,17.79779053,-0.307342529,1,0,0,rectangle,17.79779053,-0.307342529,1,0,0,17.79779053,-0.307342529,1,0,0,0,159,159,93,1,,,,,,,,
,,,,,,,,,,,,,FF,,,,,,,,0.7677,,,,,,,,,,,,,,,,,,,,,,6103645ddeeb9221c771e721,610368abf9c6dac72b80afc8,2021-07-29_22h50.10.188,Simcolourproject_2stim_asymm_v5,2020.2.10,MacIntel,60,61025ae37ef11b136ea224fe,,,,,,,,,2669,-85.5078125,-40.12606812,1,0,0,response5disk,,2,-3.43939209,-6.745727539,1,0,0,rectangle,-3.43939209,-6.745727539,1,0,0,-3.43939209,-6.745727539,1,0,0,1,0,160,100,1,,,,,,,,
,,,,,,,,,,,,,FF,,,,,,,,1.4364,,,,,,,,,,,,,,,,,,,,,,6103645ddeeb9221c771e721,610368abf9c6dac72b80afc8,2021-07-29_22h50.10.188,Simcolourproject_2stim_asymm_v5,2020.2.10,MacIntel,60,61025ae37ef11b136ea224fe,,,,,,,,,105,37.80877686,-53.58605957,1,0,0,response3disk,,4,22.32507324,-8.727783203,1,0,0,rectangle,22.32507324,-8.727783203,1,0,0,22.32507324,-8.727783203,1,0,0,1,1,161,2,1,,,,,,,,
,,,,,,,,,,,,,FF,,,,,,,,0.7168,,,,,,,,,,,,,,,,,,,,,,6103645ddeeb9221c771e721,610368abf9c6dac72b80afc8,2021-07-29_22h50.10.188,Simcolourproject_2stim_asymm_v5,2020.2.10,MacIntel,60,61025ae37ef11b136ea224fe,,,,,,,,,3262,66.55969238,-16.5531311,1,0,0,response3disk,,5,1.926025391,2.76776123,1,0,0,rectangle,1.926025391,2.76776123,1,0,0,1.926025391,2.76776123,1,0,0,1,2,162,93,1,,,,,,,,
,,,,,,,,,,,,,FF,,,,,,,,0.9672,,,,,,,,,,,,,,,,,,,,,,6103645ddeeb9221c771e721,610368abf9c6dac72b80afc8,2021-07-29_22h50.10.188,Simcolourproject_2stim_asymm_v5,2020.2.10,MacIntel,60,61025ae37ef11b136ea224fe,,,,,,,,,3090,-36.78790283,-62.40655518,1,0,0,response5disk,,3,-6.584716797,1.215087891,1,0,0,rectangle,-6.584716797,1.215087891,1,0,0,-6.584716797,1.215087891,1,0,0,1,3,163,156,1,,,,,,,,
,,,,,,,,,,,,,FF,,,,,,,,0.6002,,,,,,,,,,,,,,,,,,,,,,6103645ddeeb9221c771e721,610368abf9c6dac72b80afc8,2021-07-29_22h50.10.188,Simcolourproject_2stim_asymm_v5,2020.2.10,MacIntel,60,61025ae37ef11b136ea224fe,,,,,,,,,4073,-21.43688965,-62.43041992,1,0,0,response5disk,,3,-6.617553711,-8.08026123,1,0,0,rectangle,-6.617553711,-8.08026123,1,0,0,-6.617553711,-8.08026123,1,0,0,1,4,164,85,1,,,,,,,,
,,,,,,,,,,,,,FF,,,,,,,,0.6847,,,,,,,,,,,,,,,,,,,,,,6103645ddeeb9221c771e721,610368abf9c6dac72b80afc8,2021-07-29_22h50.10.188,Simcolourproject_2stim_asymm_v5,2020.2.10,MacIntel,60,61025ae37ef11b136ea224fe,,,,,,,,,3983,77.01013184,-32.32507324,1,0,0,response3disk,,5,-1.219421387,9.082275391,1,0,0,rectangle,-1.219421387,9.082275391,1,0,0,-1.219421387,9.082275391,1,0,0,1,5,165,74,1,,,,,,,,
,,,,,,,,,,,,,FF,,,,,,,,0.6661,,,,,,,,,,,,,,,,,,,,,,6103645ddeeb9221c771e721,610368abf9c6dac72b80afc8,2021-07-29_22h50.10.188,Simcolourproject_2stim_asymm_v5,2020.2.10,MacIntel,60,61025ae37ef11b136ea224fe,,,,,,,,,551,85.2164917,40.80172729,1,0,0,response1disk,,6,4.722290039,12.8324585,1,0,0,rectangle,4.722290039,12.8324585,1,0,0,4.722290039,12.8324585,1,0,0,1,6,166,0,1,,,,,,,,
,,,,,,,,,,,,,FF,,,,,,,,0.5834,,,,,,,,,,,,,,,,,,,,,,6103645ddeeb9221c771e721,610368abf9c6dac72b80afc8,2021-07-29_22h50.10.188,Simcolourproject_2stim_asymm_v5,2020.2.10,MacIntel,60,61025ae37ef11b136ea224fe,,,,,,,,,3864,69.95458984,-14.92803955,1,0,0,response3disk,,5,19.30200195,-2.827148438,1,0,0,rectangle,19.30200195,-2.827148438,1,0,0,19.30200195,-2.827148438,1,0,0,1,7,167,118,1,,,,,,,,
,,,,,,,,,,,,,FF,,,,,,,,0.5333,,,,,,,,,,,,,,,,,,,,,,6103645ddeeb9221c771e721,610368abf9c6dac72b80afc8,2021-07-29_22h50.10.188,Simcolourproject_2stim_asymm_v5,2020.2.10,MacIntel,60,61025ae37ef11b136ea224fe,,,,,,,,,3609,66.49432373,-37.17797852,1,0,0,response3disk,,5,16.75689697,-5.906616211,1,0,0,rectangle,16.75689697,-5.906616211,1,0,0,16.75689697,-5.906616211,1,0,0,1,8,168,65,1,,,,,,,,
,,,,,,,,,,,,,FF,,,,,,,,0.6008,,,,,,,,,,,,,,,,,,,,,,6103645ddeeb9221c771e721,610368abf9c6dac72b80afc8,2021-07-29_22h50.10.188,Simcolourproject_2stim_asymm_v5,2020.2.10,MacIntel,60,61025ae37ef11b136ea224fe,,,,,,,,,1070,-38.02838135,-45.74993896,1,0,0,response5disk,,3,13.02416992,5.72555542,1,0,0,rectangle,13.02416992,5.72555542,1,0,0,13.02416992,5.72555542,1,0,0,1,9,169,101,1,,,,,,,,
,,,,,,,,,,,,,FF,,,,,,,,0.3831,,,,,,,,,,,,,,,,,,,,,,6103645ddeeb9221c771e721,610368abf9c6dac72b80afc8,2021-07-29_22h50.10.188,Simcolourproject_2stim_asymm_v5,2020.2.10,MacIntel,60,61025ae37ef11b136ea224fe,,,,,,,,,1104,88.30834961,-43.84359741,1,0,0,response3disk,,5,-1.187744141,-8.645263672,1,0,0,rectangle,-1.187744141,-8.645263672,1,0,0,-1.187744141,-8.645263672,1,0,0,1,10,170,23,1,,,,,,,,
,,,,,,,,,,,,,FF,,,,,,,,0.3832,,,,,,,,,,,,,,,,,,,,,,6103645ddeeb9221c771e721,610368abf9c6dac72b80afc8,2021-07-29_22h50.10.188,Simcolourproject_2stim_asymm_v5,2020.2.10,MacIntel,60,61025ae37ef11b136ea224fe,,,,,,,,,2416,74.6763916,-32.00598145,1,0,0,response3disk,,5,15.70697021,-1.223907471,1,0,0,rectangle,15.70697021,-1.223907471,1,0,0,15.70697021,-1.223907471,1,0,0,1,11,171,40,1,,,,,,,,
,,,,,,,,,,,,,FF,,,,,,,,0.3811,,,,,,,,,,,,,,,,,,,,,,6103645ddeeb9221c771e721,610368abf9c6dac72b80afc8,2021-07-29_22h50.10.188,Simcolourproject_2stim_asymm_v5,2020.2.10,MacIntel,60,61025ae37ef11b136ea224fe,,,,,,,,,3281,94.14147949,43.51953125,1,0,0,response1disk,,6,14.35534668,17.47653198,1,0,0,rectangle,14.35534668,17.47653198,1,0,0,14.35534668,17.47653198,1,0,0,1,12,172,84,1,,,,,,,,
,,,,,,,,,,,,,FF,,,,,,,,0.7346,,,,,,,,,,,,,,,,,,,,,,6103645ddeeb9221c771e721,610368abf9c6dac72b80afc8,2021-07-29_22h50.10.188,Simcolourproject_2stim_asymm_v5,2020.2.10,MacIntel,60,61025ae37ef11b136ea224fe,,,,,,,,,4145,-65.42047119,-45.14355469,1,0,0,response5disk,,2,-2.842651367,-6.651153564,1,0,0,rectangle,-2.842651367,-6.651153564,1,0,0,-2.842651367,-6.651153564,1,0,0,1,13,173,95,1,,,,,,,,
,,,,,,,,,,,,,FF,,,,,,,,0.9472,,,,,,,,,,,,,,,,,,,,,,6103645ddeeb9221c771e721,610368abf9c6dac72b80afc8,2021-07-29_22h50.10.188,Simcolourproject_2stim_asymm_v5,2020.2.10,MacIntel,60,61025ae37ef11b136ea224fe,,,,,,,,,115,30.52960205,-59.69570923,1,0,0,response3disk,,4,6.914672852,-17.0770874,1,0,0,rectangle,6.914672852,-17.0770874,1,0,0,6.914672852,-17.0770874,1,0,0,1,14,174,26,1,,,,,,,,
,,,,,,,,,,,,,FF,,,,,,,,1.1672,,,,,,,,,,,,,,,,,,,,,,6103645ddeeb9221c771e721,610368abf9c6dac72b80afc8,2021-07-29_22h50.10.188,Simcolourproject_2stim_asymm_v5,2020.2.10,MacIntel,60,61025ae37ef11b136ea224fe,,,,,,,,,3942,33.11383057,-49.77990723,1,0,0,response3disk,,4,13.56573486,-6.311706543,1,0,0,rectangle,13.56573486,-6.311706543,1,0,0,13.56573486,-6.311706543,1,0,0,1,15,175,152,1,,,,,,,,
,,,,,,,,,,,,,FF,,,,,,,,0.5002,,,,,,,,,,,,,,,,,,,,,,6103645ddeeb9221c771e721,610368abf9c6dac72b80afc8,2021-07-29_22h50.10.188,Simcolourproject_2stim_asymm_v5,2020.2.10,MacIntel,60,61025ae37ef11b136ea224fe,,,,,,,,,3572,57.41534424,-19.83251953,1,0,0,response3disk,,5,15.43713379,-8.748962402,1,0,0,rectangle,15.43713379,-8.748962402,1,0,0,15.43713379,-8.748962402,1,0,0,1,16,176,58,1,,,,,,,,
,,,,,,,,,,,,,FF,,,,,,,,0.4519,,,,,,,,,,,,,,,,,,,,,,6103645ddeeb9221c771e721,610368abf9c6dac72b80afc8,2021-07-29_22h50.10.188,Simcolourproject_2stim_asymm_v5,2020.2.10,MacIntel,60,61025ae37ef11b136ea224fe,,,,,,,,,2153,77.543396,33.14703369,1,0,0,response1disk,,6,9.224609375,0.384399414,1,0,0,rectangle,9.224609375,0.384399414,1,0,0,9.224609375,0.384399414,1,0,0,1,17,177,45,1,,,,,,,,
,,,,,,,,,,,,,FF,,,,,,,,0.4005,,,,,,,,,,,,,,,,,,,,,,6103645ddeeb9221c771e721,610368abf9c6dac72b80afc8,2021-07-29_22h50.10.188,Simcolourproject_2stim_asymm_v5,2020.2.10,MacIntel,60,61025ae37ef11b136ea224fe,,,,,,,,,309,74.35461426,35.47741699,1,0,0,response1disk,,6,21.40380859,6.951812744,1,0,0,rectangle,21.40380859,6.951812744,1,0,0,21.40380859,6.951812744,1,0,0,1,18,178,132,1,,,,,,,,
,,,,,,,,,,,,,FF,,,,,,,,0.62,,,,,,,,,,,,,,,,,,,,,,6103645ddeeb9221c771e721,610368abf9c6dac72b80afc8,2021-07-29_22h50.10.188,Simcolourproject_2stim_asymm_v5,2020.2.10,MacIntel,60,61025ae37ef11b136ea224fe,,,,,,,,,3456,72.28601074,21.19787598,1,0,0,response1disk,,6,6.623901367,-2.461517334,1,0,0,rectangle,6.623901367,-2.461517334,1,0,0,6.623901367,-2.461517334,1,0,0,1,19,179,121,1,,,,,,,,
,,,,,,,,,,,,,FF,,,,,,,,1.1173,,,,,,,,,,,,,,,,,,,,,,6103645ddeeb9221c771e721,610368abf9c6dac72b80afc8,2021-07-29_22h50.10.188,Simcolourproject_2stim_asymm_v5,2020.2.10,MacIntel,60,61025ae37ef11b136ea224fe,,,,,,,,,4357,-72.83410645,29.24099731,1,0,0,response7disk,,1,35.77685547,7.121948242,1,0,0,rectangle,35.77685547,7.121948242,1,0,0,35.77685547,7.121948242,1,0,0,1,20,180,39,1,,,,,,,,
,,,,,,,,,,,,,FF,,,,,,,,1.0011,,,,,,,,,,,,,,,,,,,,,,6103645ddeeb9221c771e721,610368abf9c6dac72b80afc8,2021-07-29_22h50.10.188,Simcolourproject_2stim_asymm_v5,2020.2.10,MacIntel,60,61025ae37ef11b136ea224fe,,,,,,,,,3871,-66.58312988,-35.9364624,1,0,0,response5disk,,2,3.104003906,8.507446289,1,0,0,rectangle,3.104003906,8.507446289,1,0,0,3.104003906,8.507446289,1,0,0,1,21,181,122,1,,,,,,,,
,,,,,,,,,,,,,FF,,,,,,,,0.6332,,,,,,,,,,,,,,,,,,,,,,6103645ddeeb9221c771e721,610368abf9c6dac72b80afc8,2021-07-29_22h50.10.188,Simcolourproject_2stim_asymm_v5,2020.2.10,MacIntel,60,61025ae37ef11b136ea224fe,,,,,,,,,808,-74.74645996,-28.08477783,1,0,0,response5disk,,2,12.35205078,15.5625,1,0,0,rectangle,12.35205078,15.5625,1,0,0,12.35205078,15.5625,1,0,0,1,22,182,48,1,,,,,,,,
,,,,,,,,,,,,,FF,,,,,,,,0.6164,,,,,,,,,,,,,,,,,,,,,,6103645ddeeb9221c771e721,610368abf9c6dac72b80afc8,2021-07-29_22h50.10.188,Simcolourproject_2stim_asymm_v5,2020.2.10,MacIntel,60,61025ae37ef11b136ea224fe,,,,,,,,,2136,60.26068115,-27.565979,1,0,0,response3disk,,5,7.584838867,-9.229003906,1,0,0,rectangle,7.584838867,-9.229003906,1,0,0,7.584838867,-9.229003906,1,0,0,1,23,183,73,1,,,,,,,,
,,,,,,,,,,,,,FF,,,,,,,,0.5336,,,,,,,,,,,,,,,,,,,,,,6103645ddeeb9221c771e721,610368abf9c6dac72b80afc8,2021-07-29_22h50.10.188,Simcolourproject_2stim_asymm_v5,2020.2.10,MacIntel,60,61025ae37ef11b136ea224fe,,,,,,,,,4310,64.84472656,-22.97857666,1,0,0,response3disk,,5,5.33215332,-2.947265625,1,0,0,rectangle,5.33215332,-2.947265625,1,0,0,5.33215332,-2.947265625,1,0,0,1,24,184,37,1,,,,,,,,
,,,,,,,,,,,,,FF,,,,,,,,10.7684,,,,,,,,,,,,,,,,,,,,,,6103645ddeeb9221c771e721,610368abf9c6dac72b80afc8,2021-07-29_22h50.10.188,Simcolourproject_2stim_asymm_v5,2020.2.10,MacIntel,60,61025ae37ef11b136ea224fe,,,,,,,,,2006,73.09716797,-36.47213745,1,0,0,response3disk,,5,-1.830627441,14.64697266,1,0,0,rectangle,-1.830627441,14.64697266,1,0,0,-1.830627441,14.64697266,1,0,0,1,25,185,123,1,,,,,,,,
,,,,,,,,,,,,,FF,,,,,,,,0.8683,,,,,,,,,,,,,,,,,,,,,,6103645ddeeb9221c771e721,610368abf9c6dac72b80afc8,2021-07-29_22h50.10.188,Simcolourproject_2stim_asymm_v5,2020.2.10,MacIntel,60,61025ae37ef11b136ea224fe,,,,,,,,,3295,-80.40753174,-35.91918945,1,0,0,response5disk,,2,-21.4777832,13.23504639,1,0,0,rectangle,-21.4777832,13.23504639,1,0,0,-21.4777832,13.23504639,1,0,0,1,26,186,144,1,,,,,,,,
,,,,,,,,,,,,,FF,,,,,,,,0.8012,,,,,,,,,,,,,,,,,,,,,,6103645ddeeb9221c771e721,610368abf9c6dac72b80afc8,2021-07-29_22h50.10.188,Simcolourproject_2stim_asymm_v5,2020.2.10,MacIntel,60,61025ae37ef11b136ea224fe,,,,,,,,,3901,-83.26025391,-53.79373169,1,0,0,response5disk,,2,-3.907165527,5.841003418,1,0,0,rectangle,-3.907165527,5.841003418,1,0,0,-3.907165527,5.841003418,1,0,0,1,27,187,79,1,,,,,,,,
,,,,,,,,,,,,,FF,,,,,,,,1.0979,,,,,,,,,,,,,,,,,,,,,,6103645ddeeb9221c771e721,610368abf9c6dac72b80afc8,2021-07-29_22h50.10.188,Simcolourproject_2stim_asymm_v5,2020.2.10,MacIntel,60,61025ae37ef11b136ea224fe,,,,,,,,,3360,68.51885986,-34.84887695,1,0,0,response3disk,,5,8.669006348,-14.52270508,1,0,0,rectangle,8.669006348,-14.52270508,1,0,0,8.669006348,-14.52270508,1,0,0,1,28,188,146,1,,,,,,,,
,,,,,,,,,,,,,FF,,,,,,,,1.6358,,,,,,,,,,,,,,,,,,,,,,6103645ddeeb9221c771e721,610368abf9c6dac72b80afc8,2021-07-29_22h50.10.188,Simcolourproject_2stim_asymm_v5,2020.2.10,MacIntel,60,61025ae37ef11b136ea224fe,,,,,,,,,2244,27.12744141,-51.50732422,1,0,0,response3disk,,4,4.176025391,7.933837891,1,0,0,rectangle,4.176025391,7.933837891,1,0,0,4.176025391,7.933837891,1,0,0,1,29,189,11,1,,,,,,,,
,,,,,,,,,,,,,FF,,,,,,,,0.7186,,,,,,,,,,,,,,,,,,,,,,6103645ddeeb9221c771e721,610368abf9c6dac72b80afc8,2021-07-29_22h50.10.188,Simcolourproject_2stim_asymm_v5,2020.2.10,MacIntel,60,61025ae37ef11b136ea224fe,,,,,,,,,2772,25.74511719,-58.16253662,1,0,0,response3disk,,4,19.29388428,-15.90155029,1,0,0,rectangle,19.29388428,-15.90155029,1,0,0,19.29388428,-15.90155029,1,0,0,1,30,190,89,1,,,,,,,,
,,,,,,,,,,,,,FF,,,,,,,,2.1151,,,,,,,,,,,,,,,,,,,,,,6103645ddeeb9221c771e721,610368abf9c6dac72b80afc8,2021-07-29_22h50.10.188,Simcolourproject_2stim_asymm_v5,2020.2.10,MacIntel,60,61025ae37ef11b136ea224fe,,,,,,,,,2985,-44.7666626,-71.7890625,1,0,0,response5disk,,3,0.048706055,11.83111572,1,0,0,rectangle,0.048706055,11.83111572,1,0,0,0.048706055,11.83111572,1,0,0,1,31,191,134,1,,,,,,,,
,,,,,,,,,,,,,FF,,,,,,,,0.8494,,,,,,,,,,,,,,,,,,,,,,6103645ddeeb9221c771e721,610368abf9c6dac72b80afc8,2021-07-29_22h50.10.188,Simcolourproject_2stim_asymm_v5,2020.2.10,MacIntel,60,61025ae37ef11b136ea224fe,,,,,,,,,1293,-97.19012451,-33.28564453,1,0,0,response5disk,,2,-7.568969727,8.740264893,1,0,0,rectangle,-7.568969727,8.740264893,1,0,0,-7.568969727,8.740264893,1,0,0,1,32,192,141,1,,,,,,,,
,,,,,,,,,,,,,FF,,,,,,,,0.7983,,,,,,,,,,,,,,,,,,,,,,6103645ddeeb9221c771e721,610368abf9c6dac72b80afc8,2021-07-29_22h50.10.188,Simcolourproject_2stim_asymm_v5,2020.2.10,MacIntel,60,61025ae37ef11b136ea224fe,,,,,,,,,2206,72.17962646,27.36077881,1,0,0,response1disk,,6,11.19750977,-7.630981445,1,0,0,rectangle,11.19750977,-7.630981445,1,0,0,11.19750977,-7.630981445,1,0,0,1,33,193,16,1,,,,,,,,
,,,,,,,,,,,,,FF,,,,,,,,1.0648,,,,,,,,,,,,,,,,,,,,,,6103645ddeeb9221c771e721,610368abf9c6dac72b80afc8,2021-07-29_22h50.10.188,Simcolourproject_2stim_asymm_v5,2020.2.10,MacIntel,60,61025ae37ef11b136ea224fe,,,,,,,,,4195,94.71484375,49.97775269,1,0,0,response1disk,,6,26.13568115,10.82159424,1,0,0,rectangle,26.13568115,10.82159424,1,0,0,26.13568115,10.82159424,1,0,0,1,34,194,3,1,,,,,,,,
,,,,,,,,,,,,,FF,,,,,,,,1.0176,,,,,,,,,,,,,,,,,,,,,,6103645ddeeb9221c771e721,610368abf9c6dac72b80afc8,2021-07-29_22h50.10.188,Simcolourproject_2stim_asymm_v5,2020.2.10,MacIntel,60,61025ae37ef11b136ea224fe,,,,,,,,,2826,-24.36755371,-60.62295532,1,0,0,response5disk,,3,12.60742188,5.112243652,1,0,0,rectangle,-84.5848999,-47.07122803,1,0,0,-12.35375977,-8.69519043,1,0,0,1,35,195,107,1,,response5disk_3,TRUE,2,2,"[280,224,207,196,71,135,215,121,65,10,256,296,323,249,83,309,35,283,33,222]",1.7008,rectangle
,,,,,,,,,,,,,FF,,,,,,,,1.252,,,,,,,,,,,,,,,,,,,,,,6103645ddeeb9221c771e721,610368abf9c6dac72b80afc8,2021-07-29_22h50.10.188,Simcolourproject_2stim_asymm_v5,2020.2.10,MacIntel,60,61025ae37ef11b136ea224fe,,,,,,,,,3676,-15.19689941,-50.53314209,1,0,0,response5disk,,3,-1.855651855,-3.715270996,1,0,0,rectangle,-1.855651855,-3.715270996,1,0,0,-1.855651855,-3.715270996,1,0,0,1,36,196,71,1,,,,,,,,
,,,,,,,,,,,,,FF,,,,,,,,1.1007,,,,,,,,,,,,,,,,,,,,,,6103645ddeeb9221c771e721,610368abf9c6dac72b80afc8,2021-07-29_22h50.10.188,Simcolourproject_2stim_asymm_v5,2020.2.10,MacIntel,60,61025ae37ef11b136ea224fe,,,,,,,,,1058,23.55780029,-57.32302856,1,0,0,response3disk,,4,12.62646484,-15.29751587,1,0,0,rectangle,12.62646484,-15.29751587,1,0,0,12.62646484,-15.29751587,1,0,0,1,37,197,5,1,,,,,,,,
,,,,,,,,,,,,,FF,,,,,,,,0.7331,,,,,,,,,,,,,,,,,,,,,,6103645ddeeb9221c771e721,610368abf9c6dac72b80afc8,2021-07-29_22h50.10.188,Simcolourproject_2stim_asymm_v5,2020.2.10,MacIntel,60,61025ae37ef11b136ea224fe,,,,,,,,,500,87.15386963,41.0826416,1,0,0,response1disk,,6,-4.778198242,4.834777832,1,0,0,rectangle,-4.778198242,4.834777832,1,0,0,-4.778198242,4.834777832,1,0,0,1,38,198,21,1,,,,,,,,
,,,,,,,,,,,,,FF,,,,,,,,0.8834,,,,,,,,,,,,,,,,,,,,,,6103645ddeeb9221c771e721,610368abf9c6dac72b80afc8,2021-07-29_22h50.10.188,Simcolourproject_2stim_asymm_v5,2020.2.10,MacIntel,60,61025ae37ef11b136ea224fe,,,,,,,,,3481,62.58105469,-23.22634888,1,0,0,response3disk,,5,11.30700684,-3.210998535,1,0,0,rectangle,11.30700684,-3.210998535,1,0,0,11.30700684,-3.210998535,1,0,0,1,39,199,69,1,,,,,,,,
,,,,,,,,,,,,,FF,,,,,,,,0.656,,,,,,,,,,,,,,,,,,,,,,6103645ddeeb9221c771e721,610368abf9c6dac72b80afc8,2021-07-29_22h50.10.188,Simcolourproject_2stim_asymm_v5,2020.2.10,MacIntel,60,61025ae37ef11b136ea224fe,,,,,,,,,2780,-65.83544922,-27.69015503,1,0,0,response5disk,,2,-22.40893555,-1.589752197,1,0,0,rectangle,-22.40893555,-1.589752197,1,0,0,-22.40893555,-1.589752197,1,0,0,1,40,200,49,1,,,,,,,,
,,,,,,,,,,,,,FF,,,,,,,,0.5678,,,,,,,,,,,,,,,,,,,,,,6103645ddeeb9221c771e721,610368abf9c6dac72b80afc8,2021-07-29_22h50.10.188,Simcolourproject_2stim_asymm_v5,2020.2.10,MacIntel,60,61025ae37ef11b136ea224fe,,,,,,,,,1750,-89.23352051,-27.51483154,1,0,0,response5disk,,2,5.624938965,3.585632324,1,0,0,rectangle,5.624938965,3.585632324,1,0,0,5.624938965,3.585632324,1,0,0,1,41,201,142,1,,,,,,,,
,,,,,,,,,,,,,FF,,,,,,,,0.5836,,,,,,,,,,,,,,,,,,,,,,6103645ddeeb9221c771e721,610368abf9c6dac72b80afc8,2021-07-29_22h50.10.188,Simcolourproject_2stim_asymm_v5,2020.2.10,MacIntel,60,61025ae37ef11b136ea224fe,,,,,,,,,2510,70.74505615,33.59069824,1,0,0,response1disk,,6,15.95324707,0.176391602,1,0,0,rectangle,15.95324707,0.176391602,1,0,0,15.95324707,0.176391602,1,0,0,1,42,202,7,1,,,,,,,,
,,,,,,,,,,,,,FF,,,,,,,,0.7016,,,,,,,,,,,,,,,,,,,,,,6103645ddeeb9221c771e721,610368abf9c6dac72b80afc8,2021-07-29_22h50.10.188,Simcolourproject_2stim_asymm_v5,2020.2.10,MacIntel,60,61025ae37ef11b136ea224fe,,,,,,,,,3630,-32.47644043,92.45602417,1,0,0,response7disk,,0,-5.281982422,-0.747131348,1,0,0,rectangle,-5.281982422,-0.747131348,1,0,0,-5.281982422,-0.747131348,1,0,0,1,43,203,38,1,,,,,,,,
,,,,,,,,,,,,,FF,,,,,,,,85.1222,,,,,,,,,,,,,,,,,,,,,,6103645ddeeb9221c771e721,610368abf9c6dac72b80afc8,2021-07-29_22h50.10.188,Simcolourproject_2stim_asymm_v5,2020.2.10,MacIntel,60,61025ae37ef11b136ea224fe,,,,,,,,,2074,34.19647217,-57.25857544,1,0,0,response3disk,,4,-6.922241211,1.956970215,1,0,0,rectangle,-6.922241211,1.956970215,1,0,0,-6.922241211,1.956970215,1,0,0,1,44,204,105,1,,,,,,,,
,,,,,,,,,,,,,FF,,,,,,,,0.8018,,,,,,,,,,,,,,,,,,,,,,6103645ddeeb9221c771e721,610368abf9c6dac72b80afc8,2021-07-29_22h50.10.188,Simcolourproject_2stim_asymm_v5,2020.2.10,MacIntel,60,61025ae37ef11b136ea224fe,,,,,,,,,2969,26.01446533,-93.34509277,1,0,0,response3disk,,4,-7.82208252,-11.20117188,1,0,0,rectangle,-7.82208252,-11.20117188,1,0,0,-7.82208252,-11.20117188,1,0,0,1,45,205,15,1,,,,,,,,
,,,,,,,,,,,,,FF,,,,,,,,0.5987,,,,,,,,,,,,,,,,,,,,,,6103645ddeeb9221c771e721,610368abf9c6dac72b80afc8,2021-07-29_22h50.10.188,Simcolourproject_2stim_asymm_v5,2020.2.10,MacIntel,60,61025ae37ef11b136ea224fe,,,,,,,,,493,70.02819824,-20.57763672,1,0,0,response3disk,,5,16.96533203,-7.511810303,1,0,0,rectangle,44.52282715,86.9642334,1,0,0,-12.44586182,-11.11102295,1,0,0,1,46,206,19,1,,response1disk_3,TRUE,7,7,"[280,224,207,196,71,135,215,121,65,10,256,296,323,249,83,309,35,283,33,222]",1.4004,rectangle
,,,,,,,,,,,,,FF,,,,,,,,1.2161,,,,,,,,,,,,,,,,,,,,,,6103645ddeeb9221c771e721,610368abf9c6dac72b80afc8,2021-07-29_22h50.10.188,Simcolourproject_2stim_asymm_v5,2020.2.10,MacIntel,60,61025ae37ef11b136ea224fe,,,,,,,,,2256,25.40997314,-67.16308594,1,0,0,response3disk,,4,6.266296387,-12.07897949,1,0,0,rectangle,6.266296387,-12.07897949,1,0,0,6.266296387,-12.07897949,1,0,0,1,47,207,42,1,,,,,,,,
,,,,,,,,,,,,,FF,,,,,,,,0.5158,,,,,,,,,,,,,,,,,,,,,,6103645ddeeb9221c771e721,610368abf9c6dac72b80afc8,2021-07-29_22h50.10.188,Simcolourproject_2stim_asymm_v5,2020.2.10,MacIntel,60,61025ae37ef11b136ea224fe,,,,,,,,,2334,45.02978516,-68.38397217,1,0,0,response3disk,,4,7.506774902,-2.842102051,1,0,0,rectangle,7.506774902,-2.842102051,1,0,0,7.506774902,-2.842102051,1,0,0,1,48,208,125,1,,,,,,,,
,,,,,,,,,,,,,FF,,,,,,,,0.585,,,,,,,,,,,,,,,,,,,,,,6103645ddeeb9221c771e721,610368abf9c6dac72b80afc8,2021-07-29_22h50.10.188,Simcolourproject_2stim_asymm_v5,2020.2.10,MacIntel,60,61025ae37ef11b136ea224fe,,,,,,,,,4210,44.32092285,-31.05474854,1,0,0,response3disk,,5,6.076965332,-4.042907715,1,0,0,rectangle,6.076965332,-4.042907715,1,0,0,6.076965332,-4.042907715,1,0,0,1,49,209,104,1,,,,,,,,
,,,,,,,,,,,,,FF,,,,,,,,0.6816,,,,,,,,,,,,,,,,,,,,,,6103645ddeeb9221c771e721,610368abf9c6dac72b80afc8,2021-07-29_22h50.10.188,Simcolourproject_2stim_asymm_v5,2020.2.10,MacIntel,60,61025ae37ef11b136ea224fe,,,,,,,,,1970,-37.59191895,-60.18066406,1,0,0,response5disk,,3,6.820983887,-1.296295166,1,0,0,rectangle,6.820983887,-1.296295166,1,0,0,6.820983887,-1.296295166,1,0,0,1,50,210,33,1,,,,,,,,
,,,,,,,,,,,,,FF,,,,,,,,0.9221,,,,,,,,,,,,,,,,,,,,,,6103645ddeeb9221c771e721,610368abf9c6dac72b80afc8,2021-07-29_22h50.10.188,Simcolourproject_2stim_asymm_v5,2020.2.10,MacIntel,60,61025ae37ef11b136ea224fe,,,,,,,,,285,40.62658691,-52.86444092,1,0,0,response3disk,,4,25.99200439,-3.73840332,1,0,0,rectangle,25.99200439,-3.73840332,1,0,0,25.99200439,-3.73840332,1,0,0,1,51,211,52,1,,,,,,,,
,,,,,,,,,,,,,FF,,,,,,,,0.7005,,,,,,,,,,,,,,,,,,,,,,6103645ddeeb9221c771e721,610368abf9c6dac72b80afc8,2021-07-29_22h50.10.188,Simcolourproject_2stim_asymm_v5,2020.2.10,MacIntel,60,61025ae37ef11b136ea224fe,,,,,,,,,3862,58.31958008,-35.69110107,1,0,0,response3disk,,5,32.22631836,-6.915649414,1,0,0,rectangle,32.22631836,-6.915649414,1,0,0,32.22631836,-6.915649414,1,0,0,1,52,212,124,1,,,,,,,,
,,,,,,,,,,,,,FF,,,,,,,,0.6499,,,,,,,,,,,,,,,,,,,,,,6103645ddeeb9221c771e721,610368abf9c6dac72b80afc8,2021-07-29_22h50.10.188,Simcolourproject_2stim_asymm_v5,2020.2.10,MacIntel,60,61025ae37ef11b136ea224fe,,,,,,,,,4095,-16.70922852,78.96643066,1,0,0,response7disk,,0,0.163146973,11.97900391,1,0,0,rectangle,0.163146973,11.97900391,1,0,0,0.163146973,11.97900391,1,0,0,1,53,213,17,1,,,,,,,,
,,,,,,,,,,,,,FF,,,,,,,,0.7164,,,,,,,,,,,,,,,,,,,,,,6103645ddeeb9221c771e721,610368abf9c6dac72b80afc8,2021-07-29_22h50.10.188,Simcolourproject_2stim_asymm_v5,2020.2.10,MacIntel,60,61025ae37ef11b136ea224fe,,,,,,,,,1600,-72.26922607,-17.0640564,1,0,0,response5disk,,2,-3.899536133,1.672912598,1,0,0,rectangle,42.48376465,73.61999512,1,0,0,-7.840393066,-11.60400391,1,0,0,1,54,214,56,1,,response1disk_3,TRUE,7,7,"[280,224,207,196,71,135,215,121,65,10,256,296,323,249,83,309,35,283,33,222]",1.284,rectangle
,,,,,,,,,,,,,FF,,,,,,,,1.5842,,,,,,,,,,,,,,,,,,,,,,6103645ddeeb9221c771e721,610368abf9c6dac72b80afc8,2021-07-29_22h50.10.188,Simcolourproject_2stim_asymm_v5,2020.2.10,MacIntel,60,61025ae37ef11b136ea224fe,,,,,,,,,722,-79.04595947,31.90808105,1,0,0,response7disk,,1,-13.99554443,-5.269042969,1,0,0,rectangle,-13.99554443,-5.269042969,1,0,0,-13.99554443,-5.269042969,1,0,0,1,55,215,44,1,,,,,,,,
,,,,,,,,,,,,,FF,,,,,,,,0.5515,,,,,,,,,,,,,,,,,,,,,,6103645ddeeb9221c771e721,610368abf9c6dac72b80afc8,2021-07-29_22h50.10.188,Simcolourproject_2stim_asymm_v5,2020.2.10,MacIntel,60,61025ae37ef11b136ea224fe,,,,,,,,,2648,57.98596191,-34.47167969,1,0,0,response3disk,,5,2.41192627,0.174194336,1,0,0,rectangle,2.41192627,0.174194336,1,0,0,2.41192627,0.174194336,1,0,0,1,56,216,78,1,,,,,,,,
,,,,,,,,,,,,,FF,,,,,,,,0.7996,,,,,,,,,,,,,,,,,,,,,,6103645ddeeb9221c771e721,610368abf9c6dac72b80afc8,2021-07-29_22h50.10.188,Simcolourproject_2stim_asymm_v5,2020.2.10,MacIntel,60,61025ae37ef11b136ea224fe,,,,,,,,,72,-78.27966309,33.61895752,1,0,0,response7disk,,1,-11.06433105,-13.29013062,1,0,0,rectangle,-11.06433105,-13.29013062,1,0,0,-11.06433105,-13.29013062,1,0,0,1,57,217,43,1,,,,,,,,
,,,,,,,,,,,,,FF,,,,,,,,1.0142,,,,,,,,,,,,,,,,,,,,,,6103645ddeeb9221c771e721,610368abf9c6dac72b80afc8,2021-07-29_22h50.10.188,Simcolourproject_2stim_asymm_v5,2020.2.10,MacIntel,60,61025ae37ef11b136ea224fe,,,,,,,,,406,77.78161621,22.6739502,1,0,0,response1disk,,6,28.29290771,-1.061157227,1,0,0,rectangle,28.29290771,-1.061157227,1,0,0,28.29290771,-1.061157227,1,0,0,1,58,218,70,1,,,,,,,,
,,,,,,,,,,,,,FF,,,,,,,,0.867,,,,,,,,,,,,,,,,,,,,,,6103645ddeeb9221c771e721,610368abf9c6dac72b80afc8,2021-07-29_22h50.10.188,Simcolourproject_2stim_asymm_v5,2020.2.10,MacIntel,60,61025ae37ef11b136ea224fe,,,,,,,,,2260,73.76965332,37.62905884,1,0,0,response1disk,,6,26.69012451,7.775634766,1,0,0,rectangle,26.69012451,7.775634766,1,0,0,26.69012451,7.775634766,1,0,0,1,59,219,94,1,,,,,,,,
,,,,,,,,,,,,,FF,,,,,,,,0.5686,,,,,,,,,,,,,,,,,,,,,,6103645ddeeb9221c771e721,610368abf9c6dac72b80afc8,2021-07-29_22h50.10.188,Simcolourproject_2stim_asymm_v5,2020.2.10,MacIntel,60,61025ae37ef11b136ea224fe,,,,,,,,,2637,72.03839111,42.28933716,1,0,0,response1disk,,6,1.143188477,8.034057617,1,0,0,rectangle,1.143188477,8.034057617,1,0,0,1.143188477,8.034057617,1,0,0,1,60,220,6,1,,,,,,,,
,,,,,,,,,,,,,FF,,,,,,,,1.0499,,,,,,,,,,,,,,,,,,,,,,6103645ddeeb9221c771e721,610368abf9c6dac72b80afc8,2021-07-29_22h50.10.188,Simcolourproject_2stim_asymm_v5,2020.2.10,MacIntel,60,61025ae37ef11b136ea224fe,,,,,,,,,1966,77.96380615,-27.55908203,1,0,0,response3disk,,5,9.683288574,-2.358032227,1,0,0,rectangle,49.33398438,91.90161133,1,0,0,10.2611084,10.9402771,1,0,0,1,61,221,135,1,,response1disk_3,TRUE,7,7,"[280,224,207,196,71,135,215,121,65,10,256,296,323,249,83,309,35,283,33,222]",1.2836,rectangle
,,,,,,,,,,,,,FF,,,,,,,,1.9664,,,,,,,,,,,,,,,,,,,,,,6103645ddeeb9221c771e721,610368abf9c6dac72b80afc8,2021-07-29_22h50.10.188,Simcolourproject_2stim_asymm_v5,2020.2.10,MacIntel,60,61025ae37ef11b136ea224fe,,,,,,,,,2929,60.5088501,25.24273682,1,0,0,response1disk,,6,22.99414063,0.763702393,1,0,0,rectangle,22.99414063,0.763702393,1,0,0,22.99414063,0.763702393,1,0,0,1,62,222,111,1,,,,,,,,
,,,,,,,,,,,,,FF,,,,,,,,0.5661,,,,,,,,,,,,,,,,,,,,,,6103645ddeeb9221c771e721,610368abf9c6dac72b80afc8,2021-07-29_22h50.10.188,Simcolourproject_2stim_asymm_v5,2020.2.10,MacIntel,60,61025ae37ef11b136ea224fe,,,,,,,,,93,-24.22973633,81.46844482,1,0,0,response7disk,,0,-13.58843994,11.4894104,1,0,0,rectangle,-41.19934082,91.37176514,1,0,0,-8.283203125,-1.431518555,1,0,0,1,63,223,14,1,,response7disk_3,TRUE,0,0,"[280,224,207,196,71,135,215,121,65,10,256,296,323,249,83,309,35,283,33,222]",1.5309,rectangle
,,,,,,,,,,,,,FF,,,,,,,,1,,,,,,,,,,,,,,,,,,,,,,6103645ddeeb9221c771e721,610368abf9c6dac72b80afc8,2021-07-29_22h50.10.188,Simcolourproject_2stim_asymm_v5,2020.2.10,MacIntel,60,61025ae37ef11b136ea224fe,,,,,,,,,3920,-63.29882813,-17.2119751,1,0,0,response5disk,,2,-11.52355957,1.052124023,1,0,0,rectangle,-11.52355957,1.052124023,1,0,0,-11.52355957,1.052124023,1,0,0,1,64,224,137,1,,,,,,,,
,,,,,,,,,,,,,FF,,,,,,,,0.6494,,,,,,,,,,,,,,,,,,,,,,6103645ddeeb9221c771e721,610368abf9c6dac72b80afc8,2021-07-29_22h50.10.188,Simcolourproject_2stim_asymm_v5,2020.2.10,MacIntel,60,61025ae37ef11b136ea224fe,,,,,,,,,2113,47.95031738,-25.07519531,1,0,0,response3disk,,5,10.42877197,1.472198486,1,0,0,rectangle,10.42877197,1.472198486,1,0,0,10.42877197,1.472198486,1,0,0,1,65,225,98,1,,,,,,,,
,,,,,,,,,,,,,FF,,,,,,,,0.5174,,,,,,,,,,,,,,,,,,,,,,6103645ddeeb9221c771e721,610368abf9c6dac72b80afc8,2021-07-29_22h50.10.188,Simcolourproject_2stim_asymm_v5,2020.2.10,MacIntel,60,61025ae37ef11b136ea224fe,,,,,,,,,388,52.12432861,15.10369873,1,0,0,response1disk,,6,19.72570801,8.183441162,1,0,0,rectangle,19.72570801,8.183441162,1,0,0,19.72570801,8.183441162,1,0,0,1,66,226,108,1,,,,,,,,
,,,,,,,,,,,,,FF,,,,,,,,0.5507,,,,,,,,,,,,,,,,,,,,,,6103645ddeeb9221c771e721,610368abf9c6dac72b80afc8,2021-07-29_22h50.10.188,Simcolourproject_2stim_asymm_v5,2020.2.10,MacIntel,60,61025ae37ef11b136ea224fe,,,,,,,,,455,-24.88574219,80.30932617,1,0,0,response7disk,,0,-1.498352051,2.887237549,1,0,0,rectangle,-1.498352051,2.887237549,1,0,0,-1.498352051,2.887237549,1,0,0,1,67,227,147,1,,,,,,,,
,,,,,,,,,,,,,FF,,,,,,,,0.6691,,,,,,,,,,,,,,,,,,,,,,6103645ddeeb9221c771e721,610368abf9c6dac72b80afc8,2021-07-29_22h50.10.188,Simcolourproject_2stim_asymm_v5,2020.2.10,MacIntel,60,61025ae37ef11b136ea224fe,,,,,,,,,768,60.25952148,32.40631104,1,0,0,response1disk,,6,-0.490600586,-1.768707275,1,0,0,rectangle,-0.490600586,-1.768707275,1,0,0,-0.490600586,-1.768707275,1,0,0,1,68,228,60,1,,,,,,,,
,,,,,,,,,,,,,FF,,,,,,,,0.6162,,,,,,,,,,,,,,,,,,,,,,6103645ddeeb9221c771e721,610368abf9c6dac72b80afc8,2021-07-29_22h50.10.188,Simcolourproject_2stim_asymm_v5,2020.2.10,MacIntel,60,61025ae37ef11b136ea224fe,,,,,,,,,3166,66.08569336,30.36303711,1,0,0,response1disk,,6,11.31530762,0.31439209,1,0,0,rectangle,11.31530762,0.31439209,1,0,0,11.31530762,0.31439209,1,0,0,1,69,229,75,1,,,,,,,,
,,,,,,,,,,,,,FF,,,,,,,,0.6145,,,,,,,,,,,,,,,,,,,,,,6103645ddeeb9221c771e721,610368abf9c6dac72b80afc8,2021-07-29_22h50.10.188,Simcolourproject_2stim_asymm_v5,2020.2.10,MacIntel,60,61025ae37ef11b136ea224fe,,,,,,,,,495,36.27331543,-15.74798584,1,0,0,response3disk,,5,4.116943359,-9.175933838,1,0,0,rectangle,4.116943359,-9.175933838,1,0,0,4.116943359,-9.175933838,1,0,0,1,70,230,18,1,,,,,,,,
,,,,,,,,,,,,,FF,,,,,,,,0.4353,,,,,,,,,,,,,,,,,,,,,,6103645ddeeb9221c771e721,610368abf9c6dac72b80afc8,2021-07-29_22h50.10.188,Simcolourproject_2stim_asymm_v5,2020.2.10,MacIntel,60,61025ae37ef11b136ea224fe,,,,,,,,,898,58.97772217,38.55932617,1,0,0,response1disk,,6,11.49713135,15.015625,1,0,0,rectangle,11.49713135,15.015625,1,0,0,11.49713135,15.015625,1,0,0,1,71,231,148,1,,,,,,,,
,,,,,,,,,,,,,FF,,,,,,,,0.8807,,,,,,,,,,,,,,,,,,,,,,6103645ddeeb9221c771e721,610368abf9c6dac72b80afc8,2021-07-29_22h50.10.188,Simcolourproject_2stim_asymm_v5,2020.2.10,MacIntel,60,61025ae37ef11b136ea224fe,,,,,,,,,246,79.89086914,21.40332031,1,0,0,response1disk,,6,8.756835938,-2.997344971,1,0,0,rectangle,8.756835938,-2.997344971,1,0,0,8.756835938,-2.997344971,1,0,0,1,72,232,29,1,,,,,,,,
,,,,,,,,,,,,,FF,,,,,,,,0.4911,,,,,,,,,,,,,,,,,,,,,,6103645ddeeb9221c771e721,610368abf9c6dac72b80afc8,2021-07-29_22h50.10.188,Simcolourproject_2stim_asymm_v5,2020.2.10,MacIntel,60,61025ae37ef11b136ea224fe,,,,,,,,,2064,55.97070313,-20.20825195,1,0,0,response3disk,,5,15.75097656,-5.342285156,1,0,0,rectangle,15.75097656,-5.342285156,1,0,0,15.75097656,-5.342285156,1,0,0,1,73,233,82,1,,,,,,,,
,,,,,,,,,,,,,FF,,,,,,,,0.5829,,,,,,,,,,,,,,,,,,,,,,6103645ddeeb9221c771e721,610368abf9c6dac72b80afc8,2021-07-29_22h50.10.188,Simcolourproject_2stim_asymm_v5,2020.2.10,MacIntel,60,61025ae37ef11b136ea224fe,,,,,,,,,716,-19.06616211,54.57281494,1,0,0,response7disk,,0,4.985534668,-13.19390869,1,0,0,rectangle,4.985534668,-13.19390869,1,0,0,4.985534668,-13.19390869,1,0,0,1,74,234,55,1,,,,,,,,
,,,,,,,,,,,,,FF,,,,,,,,1.3164,,,,,,,,,,,,,,,,,,,,,,6103645ddeeb9221c771e721,610368abf9c6dac72b80afc8,2021-07-29_22h50.10.188,Simcolourproject_2stim_asymm_v5,2020.2.10,MacIntel,60,61025ae37ef11b136ea224fe,,,,,,,,,483,51.6494751,-23.71923828,1,0,0,response3disk,,5,10.17138672,-15.94506836,1,0,0,rectangle,10.17138672,-15.94506836,1,0,0,10.17138672,-15.94506836,1,0,0,1,75,235,97,1,,,,,,,,
,,,,,,,,,,,,,FF,,,,,,,,0.5979,,,,,,,,,,,,,,,,,,,,,,6103645ddeeb9221c771e721,610368abf9c6dac72b80afc8,2021-07-29_22h50.10.188,Simcolourproject_2stim_asymm_v5,2020.2.10,MacIntel,60,61025ae37ef11b136ea224fe,,,,,,,,,3832,48.08166504,-25.59405518,1,0,0,response3disk,,5,15.69250488,-8.930267334,1,0,0,rectangle,15.69250488,-8.930267334,1,0,0,15.69250488,-8.930267334,1,0,0,1,76,236,59,1,,,,,,,,
,,,,,,,,,,,,,FF,,,,,,,,0.5331,,,,,,,,,,,,,,,,,,,,,,6103645ddeeb9221c771e721,610368abf9c6dac72b80afc8,2021-07-29_22h50.10.188,Simcolourproject_2stim_asymm_v5,2020.2.10,MacIntel,60,61025ae37ef11b136ea224fe,,,,,,,,,941,27.22906494,-19.75866699,1,0,0,response3disk,,5,11.47570801,-7.207092285,1,0,0,rectangle,11.47570801,-7.207092285,1,0,0,11.47570801,-7.207092285,1,0,0,1,77,237,106,1,,,,,,,,
,,,,,,,,,,,,,FF,,,,,,,,0.8833,,,,,,,,,,,,,,,,,,,,,,6103645ddeeb9221c771e721,610368abf9c6dac72b80afc8,2021-07-29_22h50.10.188,Simcolourproject_2stim_asymm_v5,2020.2.10,MacIntel,60,61025ae37ef11b136ea224fe,,,,,,,,,261,-67.3269043,20.35452271,1,0,0,response7disk,,1,-12.72216797,-8.017578125,1,0,0,rectangle,-12.72216797,-8.017578125,1,0,0,-12.72216797,-8.017578125,1,0,0,1,78,238,83,1,,,,,,,,
,,,,,,,,,,,,,FF,,,,,,,,0.7502,,,,,,,,,,,,,,,,,,,,,,6103645ddeeb9221c771e721,610368abf9c6dac72b80afc8,2021-07-29_22h50.10.188,Simcolourproject_2stim_asymm_v5,2020.2.10,MacIntel,60,61025ae37ef11b136ea224fe,,,,,,,,,2219,-49.94482422,-33.19674683,1,0,0,response5disk,,2,-4.435668945,-7.20980835,1,0,0,rectangle,-4.435668945,-7.20980835,1,0,0,-4.435668945,-7.20980835,1,0,0,1,79,239,154,1,,,,,,,,
,,,,,,,,,,,,,FF,,,,,,,,1.4008,,,,,,,,,,,,,,,,,,,,,,6103645ddeeb9221c771e721,610368abf9c6dac72b80afc8,2021-07-29_22h50.10.188,Simcolourproject_2stim_asymm_v5,2020.2.10,MacIntel,60,61025ae37ef11b136ea224fe,,,,,,,,,1443,45.95874023,-23.1675415,1,0,0,response3disk,,5,9.886535645,-11.27008057,1,0,0,rectangle,9.886535645,-11.27008057,1,0,0,9.886535645,-11.27008057,1,0,0,1,80,240,76,1,,,,,,,,
,,,,,,,,,,,,,FF,,,,,,,,0.9477,,,,,,,,,,,,,,,,,,,,,,6103645ddeeb9221c771e721,610368abf9c6dac72b80afc8,2021-07-29_22h50.10.188,Simcolourproject_2stim_asymm_v5,2020.2.10,MacIntel,60,61025ae37ef11b136ea224fe,,,,,,,,,2378,45.76898193,-29.39916992,1,0,0,response3disk,,5,-9.918212891,-10.57415771,1,0,0,rectangle,-9.918212891,-10.57415771,1,0,0,-9.918212891,-10.57415771,1,0,0,1,81,241,9,1,,,,,,,,
