key_resp.keys,key_resp.rt,key_resp_14.keys,key_resp_14.rt,key_resp_15.keys,key_resp_15.rt,key_resp_17.keys,key_resp_17.rt,key_resp_9.keys,key_resp_9.rt,key_resp_10.keys,key_resp_10.rt,practice_comparison,Ecc,mouse_5.x,mouse_5.y,mouse_5.leftButton,mouse_5.midButton,mouse_5.rightButton,mouse_5.clicked_name,pracsimilarity,response_time,mouse_10.x,mouse_10.y,mouse_10.leftButton,mouse_10.midButton,mouse_10.rightButton,mouse_10.clicked_name,mouse_7.x,mouse_7.y,mouse_7.leftButton,mouse_7.midButton,mouse_7.rightButton,mouse_6.x,mouse_6.y,mouse_6.leftButton,mouse_6.midButton,mouse_6.rightButton,duringprac.thisRepN,duringprac.thisTrialN,duringprac.thisN,duringprac.thisIndex,duringprac.ran,participant,session,date,expName,psychopyVersion,OS,frameRate,study_id,mouse_7.clicked_name,catchpracsimilarity,catch_response_time,catchnumberprac,catchtrialorderprac,mouse_6.clicked_name,key_resp_22.keys,key_resp_22.rt,realcomparison,mouse.x,mouse.y,mouse.leftButton,mouse.midButton,mouse.rightButton,mouse.clicked_name,Colour2,similarity,mouse_2.x,mouse_2.y,mouse_2.leftButton,mouse_2.midButton,mouse_2.rightButton,mouse_2.clicked_name,mouse_3.x,mouse_3.y,mouse_3.leftButton,mouse_3.midButton,mouse_3.rightButton,mouse_11.x,mouse_11.y,mouse_11.leftButton,mouse_11.midButton,mouse_11.rightButton,trials_2.thisRepN,trials_2.thisTrialN,trials_2.thisN,trials_2.thisIndex,trials_2.ran,Colour1,mouse_3.clicked_name,catchornah,catchsimilarity,catchnumber,catchtrialorder,catchRT,mouse_11.clicked_name
space,1.2367,space,10.6825,space,23.5984,space,3.4796,space,0.7262,space,3.6336,156,FF,45.09008789,91.95834351,1,0,0,response1disk_5,7,11.6386,-2.836364746,6.413818359,1,0,0,rectangle_8,-2.836364746,6.413818359,1,0,0,-2.836364746,6.413818359,1,0,0,0,0,0,3,1,610350d9b4852b4007ab7f87,61036a14272321e9cb645232,2021-07-29_21h55.54.500,Simcolourproject_2stim_asymm_v5,2020.2.10,MacIntel,60,61025ae37ef11b136ea224fe,,,,,,,,,,,,,,,,,,,,,,,,,,,,,,,,,,,,,,,,,,,,,,
,,,,,,,,,,,,116,PF,-71.74182129,-28.71508789,1,0,0,response5disk_5,2,3.4144,-1.50189209,2.518768311,1,0,0,rectangle_8,58.77258301,90.03057861,1,0,0,-6.933166504,12.91119385,1,0,0,0,1,1,6,1,610350d9b4852b4007ab7f87,61036a14272321e9cb645232,2021-07-29_21h55.54.500,Simcolourproject_2stim_asymm_v5,2020.2.10,MacIntel,60,61025ae37ef11b136ea224fe,response1disk_7,7,3.0526,7,"[2,5]",rectangle_4,,,,,,,,,,,,,,,,,,,,,,,,,,,,,,,,,,,,,,,,
,,,,,,,,,,,,137,PF,-72.68548584,-30.03726196,1,0,0,response5disk_5,2,2.2839,5.024475098,-0.29699707,1,0,0,rectangle_8,5.024475098,-0.29699707,1,0,0,5.024475098,-0.29699707,1,0,0,0,2,2,2,1,610350d9b4852b4007ab7f87,61036a14272321e9cb645232,2021-07-29_21h55.54.500,Simcolourproject_2stim_asymm_v5,2020.2.10,MacIntel,60,61025ae37ef11b136ea224fe,,,,,,,,,,,,,,,,,,,,,,,,,,,,,,,,,,,,,,,,,,,,,,
,,,,,,,,,,,,9,FF,53.47497559,-75.89233398,1,0,0,response3disk_5,4,1.9507,1.986816406,8.694885254,1,0,0,rectangle_8,1.986816406,8.694885254,1,0,0,1.986816406,8.694885254,1,0,0,0,3,3,5,1,610350d9b4852b4007ab7f87,61036a14272321e9cb645232,2021-07-29_21h55.54.500,Simcolourproject_2stim_asymm_v5,2020.2.10,MacIntel,60,61025ae37ef11b136ea224fe,,,,,,,,,,,,,,,,,,,,,,,,,,,,,,,,,,,,,,,,,,,,,,
,,,,,,,,,,,,26,FF,37.46716309,100.7218018,1,0,0,response1disk_5,7,1.7652,15.89221191,9.140869141,1,0,0,rectangle_8,36.53448486,67.16333008,1,0,0,5.220581055,-5.390136719,1,0,0,0,4,4,0,1,610350d9b4852b4007ab7f87,61036a14272321e9cb645232,2021-07-29_21h55.54.500,Simcolourproject_2stim_asymm_v5,2020.2.10,MacIntel,60,61025ae37ef11b136ea224fe,response1disk_7,7,1.8173,7,"[2,5]",rectangle_4,,,,,,,,,,,,,,,,,,,,,,,,,,,,,,,,,,,,,,,,
,,,,,,,,,,,,127,PF,-65.95074463,29.60852051,1,0,0,response7disk_5,1,1.5657,-2.113037109,7.096557617,1,0,0,rectangle_8,-2.113037109,7.096557617,1,0,0,-2.113037109,7.096557617,1,0,0,0,5,5,1,1,610350d9b4852b4007ab7f87,61036a14272321e9cb645232,2021-07-29_21h55.54.500,Simcolourproject_2stim_asymm_v5,2020.2.10,MacIntel,60,61025ae37ef11b136ea224fe,,,,,,,,,,,,,,,,,,,,,,,,,,,,,,,,,,,,,,,,,,,,,,
,,,,,,,,,,,,52,PF,50.59735107,90.61010742,1,0,0,response1disk_5,7,2.5501,5.241394043,-9.169433594,1,0,0,rectangle_8,5.241394043,-9.169433594,1,0,0,5.241394043,-9.169433594,1,0,0,0,6,6,4,1,610350d9b4852b4007ab7f87,61036a14272321e9cb645232,2021-07-29_21h55.54.500,Simcolourproject_2stim_asymm_v5,2020.2.10,MacIntel,60,61025ae37ef11b136ea224fe,,,,,,,,,,,,,,,,,,,,,,,,,,,,,,,,,,,,,,,,,,,,,,
,,,,,,,,,,,,,FF,,,,,,,,4.6353,,,,,,,,,,,,,,,,,,,,,,610350d9b4852b4007ab7f87,61036a14272321e9cb645232,2021-07-29_21h55.54.500,Simcolourproject_2stim_asymm_v5,2020.2.10,MacIntel,60,61025ae37ef11b136ea224fe,,,,,,,space,2.9848,3233,42.12823486,68.44763184,1,0,0,response1disk,,7,-1.0078125,-6.29284668,1,0,0,rectangle,-1.0078125,-6.29284668,1,0,0,-1.0078125,-6.29284668,1,0,0,0,0,0,4,1,,,,,,,,
,,,,,,,,,,,,,FF,,,,,,,,1.4164,,,,,,,,,,,,,,,,,,,,,,610350d9b4852b4007ab7f87,61036a14272321e9cb645232,2021-07-29_21h55.54.500,Simcolourproject_2stim_asymm_v5,2020.2.10,MacIntel,60,61025ae37ef11b136ea224fe,,,,,,,,,3272,40.90765381,71.61895752,1,0,0,response1disk,,7,3.353027344,10.4909668,1,0,0,rectangle,3.353027344,10.4909668,1,0,0,3.353027344,10.4909668,1,0,0,0,1,1,102,1,,,,,,,,
,,,,,,,,,,,,,FF,,,,,,,,2.2094,,,,,,,,,,,,,,,,,,,,,,610350d9b4852b4007ab7f87,61036a14272321e9cb645232,2021-07-29_21h55.54.500,Simcolourproject_2stim_asymm_v5,2020.2.10,MacIntel,60,61025ae37ef11b136ea224fe,,,,,,,,,2353,86.64379883,-27.15008545,1,0,0,response3disk,,5,2.052001953,-16.45135498,1,0,0,rectangle,2.052001953,-16.45135498,1,0,0,2.052001953,-16.45135498,1,0,0,0,2,2,25,1,,,,,,,,
,,,,,,,,,,,,,FF,,,,,,,,1.3669,,,,,,,,,,,,,,,,,,,,,,610350d9b4852b4007ab7f87,61036a14272321e9cb645232,2021-07-29_21h55.54.500,Simcolourproject_2stim_asymm_v5,2020.2.10,MacIntel,60,61025ae37ef11b136ea224fe,,,,,,,,,2119,-51.34967041,-81.91546631,1,0,0,response5disk,,3,10.0546875,10.66033936,1,0,0,rectangle,10.0546875,10.66033936,1,0,0,10.0546875,10.66033936,1,0,0,0,3,3,100,1,,,,,,,,
,,,,,,,,,,,,,FF,,,,,,,,2.601,,,,,,,,,,,,,,,,,,,,,,610350d9b4852b4007ab7f87,61036a14272321e9cb645232,2021-07-29_21h55.54.500,Simcolourproject_2stim_asymm_v5,2020.2.10,MacIntel,60,61025ae37ef11b136ea224fe,,,,,,,,,1574,77.33654785,46.42181396,1,0,0,response1disk,,6,8.217224121,-1.829528809,1,0,0,rectangle,8.217224121,-1.829528809,1,0,0,8.217224121,-1.829528809,1,0,0,0,4,4,103,1,,,,,,,,
,,,,,,,,,,,,,FF,,,,,,,,1.2375,,,,,,,,,,,,,,,,,,,,,,610350d9b4852b4007ab7f87,61036a14272321e9cb645232,2021-07-29_21h55.54.500,Simcolourproject_2stim_asymm_v5,2020.2.10,MacIntel,60,61025ae37ef11b136ea224fe,,,,,,,,,2131,66.86108398,40.2321167,1,0,0,response1disk,,6,13.51641846,-0.544799805,1,0,0,rectangle,13.51641846,-0.544799805,1,0,0,13.51641846,-0.544799805,1,0,0,0,5,5,118,1,,,,,,,,
,,,,,,,,,,,,,FF,,,,,,,,1.7343,,,,,,,,,,,,,,,,,,,,,,610350d9b4852b4007ab7f87,61036a14272321e9cb645232,2021-07-29_21h55.54.500,Simcolourproject_2stim_asymm_v5,2020.2.10,MacIntel,60,61025ae37ef11b136ea224fe,,,,,,,,,2256,35.13183594,-71.06555176,1,0,0,response3disk,,4,8.403625488,-7.792785645,1,0,0,rectangle,8.403625488,-7.792785645,1,0,0,8.403625488,-7.792785645,1,0,0,0,6,6,152,1,,,,,,,,
,,,,,,,,,,,,,FF,,,,,,,,1.0172,,,,,,,,,,,,,,,,,,,,,,610350d9b4852b4007ab7f87,61036a14272321e9cb645232,2021-07-29_21h55.54.500,Simcolourproject_2stim_asymm_v5,2020.2.10,MacIntel,60,61025ae37ef11b136ea224fe,,,,,,,,,620,-58.6048584,42.85125732,1,0,0,response7disk,,1,-0.933105469,-13.42242432,1,0,0,rectangle,-0.933105469,-13.42242432,1,0,0,-0.933105469,-13.42242432,1,0,0,0,7,7,50,1,,,,,,,,
,,,,,,,,,,,,,FF,,,,,,,,1.2165,,,,,,,,,,,,,,,,,,,,,,610350d9b4852b4007ab7f87,61036a14272321e9cb645232,2021-07-29_21h55.54.500,Simcolourproject_2stim_asymm_v5,2020.2.10,MacIntel,60,61025ae37ef11b136ea224fe,,,,,,,,,184,68.0378418,40.03918457,1,0,0,response1disk,,6,11.23535156,-3.461914063,1,0,0,rectangle,32.79431152,-58.03289795,1,0,0,6.934448242,-14.24871826,1,0,0,0,8,8,29,1,,response3disk_3,TRUE,4,4,"[274,274,59,198,9,33,195,128,290,85,73,143,102,65,231,127,68,65,221,200]",1.9668,rectangle
,,,,,,,,,,,,,FF,,,,,,,,1.4182,,,,,,,,,,,,,,,,,,,,,,610350d9b4852b4007ab7f87,61036a14272321e9cb645232,2021-07-29_21h55.54.500,Simcolourproject_2stim_asymm_v5,2020.2.10,MacIntel,60,61025ae37ef11b136ea224fe,,,,,,,,,98,-66.09521484,-36.34344482,1,0,0,response5disk,,2,3.786682129,6.232086182,1,0,0,rectangle,3.786682129,6.232086182,1,0,0,3.786682129,6.232086182,1,0,0,0,9,9,86,1,,,,,,,,
,,,,,,,,,,,,,FF,,,,,,,,1.4342,,,,,,,,,,,,,,,,,,,,,,610350d9b4852b4007ab7f87,61036a14272321e9cb645232,2021-07-29_21h55.54.500,Simcolourproject_2stim_asymm_v5,2020.2.10,MacIntel,60,61025ae37ef11b136ea224fe,,,,,,,,,2593,-76.39691162,-46.51324463,1,0,0,response5disk,,2,3.225097656,7.726501465,1,0,0,rectangle,3.225097656,7.726501465,1,0,0,3.225097656,7.726501465,1,0,0,0,10,10,80,1,,,,,,,,
,,,,,,,,,,,,,FF,,,,,,,,1.6504,,,,,,,,,,,,,,,,,,,,,,610350d9b4852b4007ab7f87,61036a14272321e9cb645232,2021-07-29_21h55.54.500,Simcolourproject_2stim_asymm_v5,2020.2.10,MacIntel,60,61025ae37ef11b136ea224fe,,,,,,,,,3874,84.37158203,47.90740967,1,0,0,response1disk,,6,6.228759766,-3.128723145,1,0,0,rectangle,6.228759766,-3.128723145,1,0,0,6.228759766,-3.128723145,1,0,0,0,11,11,22,1,,,,,,,,
,,,,,,,,,,,,,FF,,,,,,,,2.4169,,,,,,,,,,,,,,,,,,,,,,610350d9b4852b4007ab7f87,61036a14272321e9cb645232,2021-07-29_21h55.54.500,Simcolourproject_2stim_asymm_v5,2020.2.10,MacIntel,60,61025ae37ef11b136ea224fe,,,,,,,,,2697,85.67169189,34.2689209,1,0,0,response1disk,,6,14.1003418,-1.530548096,1,0,0,rectangle,14.1003418,-1.530548096,1,0,0,14.1003418,-1.530548096,1,0,0,0,12,12,61,1,,,,,,,,
,,,,,,,,,,,,,FF,,,,,,,,1.4671,,,,,,,,,,,,,,,,,,,,,,610350d9b4852b4007ab7f87,61036a14272321e9cb645232,2021-07-29_21h55.54.500,Simcolourproject_2stim_asymm_v5,2020.2.10,MacIntel,60,61025ae37ef11b136ea224fe,,,,,,,,,816,37.21148682,-64.28967285,1,0,0,response3disk,,4,1.060791016,2.249450684,1,0,0,rectangle,1.060791016,2.249450684,1,0,0,1.060791016,2.249450684,1,0,0,0,13,13,126,1,,,,,,,,
,,,,,,,,,,,,,FF,,,,,,,,1.3659,,,,,,,,,,,,,,,,,,,,,,610350d9b4852b4007ab7f87,61036a14272321e9cb645232,2021-07-29_21h55.54.500,Simcolourproject_2stim_asymm_v5,2020.2.10,MacIntel,60,61025ae37ef11b136ea224fe,,,,,,,,,1165,42.10552979,69.98394775,1,0,0,response1disk,,7,2.515991211,11.51089478,1,0,0,rectangle,2.515991211,11.51089478,1,0,0,2.515991211,11.51089478,1,0,0,0,14,14,52,1,,,,,,,,
,,,,,,,,,,,,,FF,,,,,,,,2.3158,,,,,,,,,,,,,,,,,,,,,,610350d9b4852b4007ab7f87,61036a14272321e9cb645232,2021-07-29_21h55.54.500,Simcolourproject_2stim_asymm_v5,2020.2.10,MacIntel,60,61025ae37ef11b136ea224fe,,,,,,,,,4165,-76.79290771,-35.62268066,1,0,0,response5disk,,2,-10.20776367,11.78921509,1,0,0,rectangle,-10.20776367,11.78921509,1,0,0,-10.20776367,11.78921509,1,0,0,0,15,15,91,1,,,,,,,,
,,,,,,,,,,,,,FF,,,,,,,,1.4344,,,,,,,,,,,,,,,,,,,,,,610350d9b4852b4007ab7f87,61036a14272321e9cb645232,2021-07-29_21h55.54.500,Simcolourproject_2stim_asymm_v5,2020.2.10,MacIntel,60,61025ae37ef11b136ea224fe,,,,,,,,,1303,-32.11682129,-74.57336426,1,0,0,response5disk,,3,-0.102294922,-9.165374756,1,0,0,rectangle,-0.102294922,-9.165374756,1,0,0,-0.102294922,-9.165374756,1,0,0,0,16,16,158,1,,,,,,,,
,,,,,,,,,,,,,FF,,,,,,,,1.0671,,,,,,,,,,,,,,,,,,,,,,610350d9b4852b4007ab7f87,61036a14272321e9cb645232,2021-07-29_21h55.54.500,Simcolourproject_2stim_asymm_v5,2020.2.10,MacIntel,60,61025ae37ef11b136ea224fe,,,,,,,,,1757,-73.20068359,-36.80404663,1,0,0,response5disk,,2,-18.93829346,-2.878356934,1,0,0,rectangle,-18.93829346,-2.878356934,1,0,0,-18.93829346,-2.878356934,1,0,0,0,17,17,117,1,,,,,,,,
,,,,,,,,,,,,,FF,,,,,,,,1.1675,,,,,,,,,,,,,,,,,,,,,,610350d9b4852b4007ab7f87,61036a14272321e9cb645232,2021-07-29_21h55.54.500,Simcolourproject_2stim_asymm_v5,2020.2.10,MacIntel,60,61025ae37ef11b136ea224fe,,,,,,,,,3095,62.55029297,39.46157837,1,0,0,response1disk,,6,9.303710938,9.416107178,1,0,0,rectangle,9.303710938,9.416107178,1,0,0,9.303710938,9.416107178,1,0,0,0,18,18,21,1,,,,,,,,
,,,,,,,,,,,,,FF,,,,,,,,1.3506,,,,,,,,,,,,,,,,,,,,,,610350d9b4852b4007ab7f87,61036a14272321e9cb645232,2021-07-29_21h55.54.500,Simcolourproject_2stim_asymm_v5,2020.2.10,MacIntel,60,61025ae37ef11b136ea224fe,,,,,,,,,892,-63.3112793,-47.980896,1,0,0,response5disk,,2,-6.162780762,-6.1378479,1,0,0,rectangle,-6.162780762,-6.1378479,1,0,0,-6.162780762,-6.1378479,1,0,0,0,19,19,51,1,,,,,,,,
,,,,,,,,,,,,,FF,,,,,,,,0.9672,,,,,,,,,,,,,,,,,,,,,,610350d9b4852b4007ab7f87,61036a14272321e9cb645232,2021-07-29_21h55.54.500,Simcolourproject_2stim_asymm_v5,2020.2.10,MacIntel,60,61025ae37ef11b136ea224fe,,,,,,,,,3888,43.99621582,79.2666626,1,0,0,response1disk,,7,-1.629394531,-1.458435059,1,0,0,rectangle,-1.629394531,-1.458435059,1,0,0,-1.629394531,-1.458435059,1,0,0,0,20,20,95,1,,,,,,,,
,,,,,,,,,,,,,FF,,,,,,,,1.8508,,,,,,,,,,,,,,,,,,,,,,610350d9b4852b4007ab7f87,61036a14272321e9cb645232,2021-07-29_21h55.54.500,Simcolourproject_2stim_asymm_v5,2020.2.10,MacIntel,60,61025ae37ef11b136ea224fe,,,,,,,,,538,74.9362793,27.56259155,1,0,0,response1disk,,6,7.598754883,-0.852355957,1,0,0,rectangle,7.598754883,-0.852355957,1,0,0,7.598754883,-0.852355957,1,0,0,0,21,21,120,1,,,,,,,,
,,,,,,,,,,,,,FF,,,,,,,,1.5171,,,,,,,,,,,,,,,,,,,,,,610350d9b4852b4007ab7f87,61036a14272321e9cb645232,2021-07-29_21h55.54.500,Simcolourproject_2stim_asymm_v5,2020.2.10,MacIntel,60,61025ae37ef11b136ea224fe,,,,,,,,,726,-68.32501221,-34.81872559,1,0,0,response5disk,,2,-9.280578613,8.263946533,1,0,0,rectangle,-9.280578613,8.263946533,1,0,0,-9.280578613,8.263946533,1,0,0,0,22,22,49,1,,,,,,,,
,,,,,,,,,,,,,FF,,,,,,,,0.9498,,,,,,,,,,,,,,,,,,,,,,610350d9b4852b4007ab7f87,61036a14272321e9cb645232,2021-07-29_21h55.54.500,Simcolourproject_2stim_asymm_v5,2020.2.10,MacIntel,60,61025ae37ef11b136ea224fe,,,,,,,,,4320,30.0916748,72.1222229,1,0,0,response1disk,,7,1.970458984,10.11108398,1,0,0,rectangle,1.970458984,10.11108398,1,0,0,1.970458984,10.11108398,1,0,0,0,23,23,18,1,,,,,,,,
,,,,,,,,,,,,,FF,,,,,,,,1.0826,,,,,,,,,,,,,,,,,,,,,,610350d9b4852b4007ab7f87,61036a14272321e9cb645232,2021-07-29_21h55.54.500,Simcolourproject_2stim_asymm_v5,2020.2.10,MacIntel,60,61025ae37ef11b136ea224fe,,,,,,,,,32,45.1697998,61.12927246,1,0,0,response1disk,,7,18.73474121,-3.142272949,1,0,0,rectangle,18.73474121,-3.142272949,1,0,0,18.73474121,-3.142272949,1,0,0,0,24,24,144,1,,,,,,,,
,,,,,,,,,,,,,FF,,,,,,,,1.2339,,,,,,,,,,,,,,,,,,,,,,610350d9b4852b4007ab7f87,61036a14272321e9cb645232,2021-07-29_21h55.54.500,Simcolourproject_2stim_asymm_v5,2020.2.10,MacIntel,60,61025ae37ef11b136ea224fe,,,,,,,,,2044,-43.87023926,-59.03500366,1,0,0,response5disk,,3,-5.657836914,-7.475646973,1,0,0,rectangle,-5.657836914,-7.475646973,1,0,0,-5.657836914,-7.475646973,1,0,0,0,25,25,150,1,,,,,,,,
,,,,,,,,,,,,,FF,,,,,,,,0.951,,,,,,,,,,,,,,,,,,,,,,610350d9b4852b4007ab7f87,61036a14272321e9cb645232,2021-07-29_21h55.54.500,Simcolourproject_2stim_asymm_v5,2020.2.10,MacIntel,60,61025ae37ef11b136ea224fe,,,,,,,,,3579,28.41394043,69.11154175,1,0,0,response1disk,,7,0.832336426,7.949584961,1,0,0,rectangle,0.832336426,7.949584961,1,0,0,0.832336426,7.949584961,1,0,0,0,26,26,19,1,,,,,,,,
,,,,,,,,,,,,,FF,,,,,,,,0.8664,,,,,,,,,,,,,,,,,,,,,,610350d9b4852b4007ab7f87,61036a14272321e9cb645232,2021-07-29_21h55.54.500,Simcolourproject_2stim_asymm_v5,2020.2.10,MacIntel,60,61025ae37ef11b136ea224fe,,,,,,,,,4343,-38.6116333,86.66851807,1,0,0,response7disk,,0,-2.166992188,7.584106445,1,0,0,rectangle,-2.166992188,7.584106445,1,0,0,-2.166992188,7.584106445,1,0,0,0,27,27,119,1,,,,,,,,
,,,,,,,,,,,,,FF,,,,,,,,1.4353,,,,,,,,,,,,,,,,,,,,,,610350d9b4852b4007ab7f87,61036a14272321e9cb645232,2021-07-29_21h55.54.500,Simcolourproject_2stim_asymm_v5,2020.2.10,MacIntel,60,61025ae37ef11b136ea224fe,,,,,,,,,2899,-70.82080078,-41.74719238,1,0,0,response5disk,,2,4.490905762,15.41122437,1,0,0,rectangle,4.490905762,15.41122437,1,0,0,4.490905762,15.41122437,1,0,0,0,28,28,47,1,,,,,,,,
,,,,,,,,,,,,,FF,,,,,,,,1.3836,,,,,,,,,,,,,,,,,,,,,,610350d9b4852b4007ab7f87,61036a14272321e9cb645232,2021-07-29_21h55.54.500,Simcolourproject_2stim_asymm_v5,2020.2.10,MacIntel,60,61025ae37ef11b136ea224fe,,,,,,,,,2184,-36.13043213,-68.50518799,1,0,0,response5disk,,3,-1.852416992,-7.644561768,1,0,0,rectangle,-1.852416992,-7.644561768,1,0,0,-1.852416992,-7.644561768,1,0,0,0,29,29,121,1,,,,,,,,
,,,,,,,,,,,,,FF,,,,,,,,1.0667,,,,,,,,,,,,,,,,,,,,,,610350d9b4852b4007ab7f87,61036a14272321e9cb645232,2021-07-29_21h55.54.500,Simcolourproject_2stim_asymm_v5,2020.2.10,MacIntel,60,61025ae37ef11b136ea224fe,,,,,,,,,2875,41.38372803,75.77996826,1,0,0,response1disk,,7,3.952514648,2.679473877,1,0,0,rectangle,3.952514648,2.679473877,1,0,0,3.952514648,2.679473877,1,0,0,0,30,30,111,1,,,,,,,,
,,,,,,,,,,,,,FF,,,,,,,,1.8506,,,,,,,,,,,,,,,,,,,,,,610350d9b4852b4007ab7f87,61036a14272321e9cb645232,2021-07-29_21h55.54.500,Simcolourproject_2stim_asymm_v5,2020.2.10,MacIntel,60,61025ae37ef11b136ea224fe,,,,,,,,,3794,69.90136719,-24.23251343,1,0,0,response3disk,,5,-1.16394043,-7.944885254,1,0,0,rectangle,-1.16394043,-7.944885254,1,0,0,-1.16394043,-7.944885254,1,0,0,0,31,31,99,1,,,,,,,,
,,,,,,,,,,,,,FF,,,,,,,,0.8669,,,,,,,,,,,,,,,,,,,,,,610350d9b4852b4007ab7f87,61036a14272321e9cb645232,2021-07-29_21h55.54.500,Simcolourproject_2stim_asymm_v5,2020.2.10,MacIntel,60,61025ae37ef11b136ea224fe,,,,,,,,,3044,47.7510376,82.50723267,1,0,0,response1disk,,7,1.901794434,2.650512695,1,0,0,rectangle,-84.33349609,-60.18600464,1,0,0,1.51171875,-6.935424805,1,0,0,0,32,32,0,1,,response5disk_3,TRUE,2,2,"[274,274,59,198,9,33,195,128,290,85,73,143,102,65,231,127,68,65,221,200]",1.6998,rectangle
,,,,,,,,,,,,,FF,,,,,,,,1.5176,,,,,,,,,,,,,,,,,,,,,,610350d9b4852b4007ab7f87,61036a14272321e9cb645232,2021-07-29_21h55.54.500,Simcolourproject_2stim_asymm_v5,2020.2.10,MacIntel,60,61025ae37ef11b136ea224fe,,,,,,,,,3224,37.65557861,51.29205322,1,0,0,response1disk,,7,12.32769775,7.267303467,1,0,0,rectangle,12.32769775,7.267303467,1,0,0,12.32769775,7.267303467,1,0,0,0,33,33,127,1,,,,,,,,
,,,,,,,,,,,,,FF,,,,,,,,1.6179,,,,,,,,,,,,,,,,,,,,,,610350d9b4852b4007ab7f87,61036a14272321e9cb645232,2021-07-29_21h55.54.500,Simcolourproject_2stim_asymm_v5,2020.2.10,MacIntel,60,61025ae37ef11b136ea224fe,,,,,,,,,544,30.99707031,-69.71228027,1,0,0,response3disk,,4,-6.404968262,3.46295166,1,0,0,rectangle,-6.404968262,3.46295166,1,0,0,-6.404968262,3.46295166,1,0,0,0,34,34,135,1,,,,,,,,
,,,,,,,,,,,,,FF,,,,,,,,1.2333,,,,,,,,,,,,,,,,,,,,,,610350d9b4852b4007ab7f87,61036a14272321e9cb645232,2021-07-29_21h55.54.500,Simcolourproject_2stim_asymm_v5,2020.2.10,MacIntel,60,61025ae37ef11b136ea224fe,,,,,,,,,3672,-39.04168701,-51.09368896,1,0,0,response5disk,,3,-0.94519043,-5.395996094,1,0,0,rectangle,-0.94519043,-5.395996094,1,0,0,-0.94519043,-5.395996094,1,0,0,0,35,35,94,1,,,,,,,,
,,,,,,,,,,,,,FF,,,,,,,,0.8344,,,,,,,,,,,,,,,,,,,,,,610350d9b4852b4007ab7f87,61036a14272321e9cb645232,2021-07-29_21h55.54.500,Simcolourproject_2stim_asymm_v5,2020.2.10,MacIntel,60,61025ae37ef11b136ea224fe,,,,,,,,,1340,40.15466309,77.59591675,1,0,0,response1disk,,7,3.380126953,5.97857666,1,0,0,rectangle,3.380126953,5.97857666,1,0,0,3.380126953,5.97857666,1,0,0,0,36,36,123,1,,,,,,,,
,,,,,,,,,,,,,FF,,,,,,,,0.867,,,,,,,,,,,,,,,,,,,,,,610350d9b4852b4007ab7f87,61036a14272321e9cb645232,2021-07-29_21h55.54.500,Simcolourproject_2stim_asymm_v5,2020.2.10,MacIntel,60,61025ae37ef11b136ea224fe,,,,,,,,,90,49.08483887,84.97525024,1,0,0,response1disk,,7,4.697143555,5.144500732,1,0,0,rectangle,4.697143555,5.144500732,1,0,0,4.697143555,5.144500732,1,0,0,0,37,37,65,1,,,,,,,,
,,,,,,,,,,,,,FF,,,,,,,,1.0507,,,,,,,,,,,,,,,,,,,,,,610350d9b4852b4007ab7f87,61036a14272321e9cb645232,2021-07-29_21h55.54.500,Simcolourproject_2stim_asymm_v5,2020.2.10,MacIntel,60,61025ae37ef11b136ea224fe,,,,,,,,,109,35.50817871,74.22076416,1,0,0,response1disk,,7,1.72253418,1.831604004,1,0,0,rectangle,1.72253418,1.831604004,1,0,0,1.72253418,1.831604004,1,0,0,0,38,38,151,1,,,,,,,,
,,,,,,,,,,,,,FF,,,,,,,,1.2501,,,,,,,,,,,,,,,,,,,,,,610350d9b4852b4007ab7f87,61036a14272321e9cb645232,2021-07-29_21h55.54.500,Simcolourproject_2stim_asymm_v5,2020.2.10,MacIntel,60,61025ae37ef11b136ea224fe,,,,,,,,,426,70.33300781,20.82543945,1,0,0,response1disk,,6,2.200195313,-6.089538574,1,0,0,rectangle,2.200195313,-6.089538574,1,0,0,2.200195313,-6.089538574,1,0,0,0,39,39,92,1,,,,,,,,
,,,,,,,,,,,,,FF,,,,,,,,1.1006,,,,,,,,,,,,,,,,,,,,,,610350d9b4852b4007ab7f87,61036a14272321e9cb645232,2021-07-29_21h55.54.500,Simcolourproject_2stim_asymm_v5,2020.2.10,MacIntel,60,61025ae37ef11b136ea224fe,,,,,,,,,2297,-38.08276367,-59.71350098,1,0,0,response5disk,,3,-3.078979492,-3.418334961,1,0,0,rectangle,-3.078979492,-3.418334961,1,0,0,-3.078979492,-3.418334961,1,0,0,0,40,40,107,1,,,,,,,,
,,,,,,,,,,,,,FF,,,,,,,,0.7753,,,,,,,,,,,,,,,,,,,,,,610350d9b4852b4007ab7f87,61036a14272321e9cb645232,2021-07-29_21h55.54.500,Simcolourproject_2stim_asymm_v5,2020.2.10,MacIntel,60,61025ae37ef11b136ea224fe,,,,,,,,,54,41.00793457,72.11819458,1,0,0,response1disk,,7,0.644836426,6.20010376,1,0,0,rectangle,0.644836426,6.20010376,1,0,0,0.644836426,6.20010376,1,0,0,0,41,41,40,1,,,,,,,,
,,,,,,,,,,,,,FF,,,,,,,,0.9836,,,,,,,,,,,,,,,,,,,,,,610350d9b4852b4007ab7f87,61036a14272321e9cb645232,2021-07-29_21h55.54.500,Simcolourproject_2stim_asymm_v5,2020.2.10,MacIntel,60,61025ae37ef11b136ea224fe,,,,,,,,,2952,-26.66235352,-42.70605469,1,0,0,response5disk,,3,2.388977051,-4.556152344,1,0,0,rectangle,2.388977051,-4.556152344,1,0,0,2.388977051,-4.556152344,1,0,0,0,42,42,67,1,,,,,,,,
,,,,,,,,,,,,,FF,,,,,,,,1.4169,,,,,,,,,,,,,,,,,,,,,,610350d9b4852b4007ab7f87,61036a14272321e9cb645232,2021-07-29_21h55.54.500,Simcolourproject_2stim_asymm_v5,2020.2.10,MacIntel,60,61025ae37ef11b136ea224fe,,,,,,,,,2194,50.64801025,86.24511719,1,0,0,response1disk,,7,8.845092773,2.934783936,1,0,0,rectangle,8.845092773,2.934783936,1,0,0,8.845092773,2.934783936,1,0,0,0,43,43,20,1,,,,,,,,
,,,,,,,,,,,,,FF,,,,,,,,0.9504,,,,,,,,,,,,,,,,,,,,,,610350d9b4852b4007ab7f87,61036a14272321e9cb645232,2021-07-29_21h55.54.500,Simcolourproject_2stim_asymm_v5,2020.2.10,MacIntel,60,61025ae37ef11b136ea224fe,,,,,,,,,4274,32.01135254,70.10998535,1,0,0,response1disk,,7,9.512023926,7.764465332,1,0,0,rectangle,9.512023926,7.764465332,1,0,0,9.512023926,7.764465332,1,0,0,0,44,44,24,1,,,,,,,,
,,,,,,,,,,,,,FF,,,,,,,,1.3668,,,,,,,,,,,,,,,,,,,,,,610350d9b4852b4007ab7f87,61036a14272321e9cb645232,2021-07-29_21h55.54.500,Simcolourproject_2stim_asymm_v5,2020.2.10,MacIntel,60,61025ae37ef11b136ea224fe,,,,,,,,,1676,-66.4286499,-48.35742188,1,0,0,response5disk,,2,1.916564941,7.844726563,1,0,0,rectangle,1.916564941,7.844726563,1,0,0,1.916564941,7.844726563,1,0,0,0,45,45,54,1,,,,,,,,
,,,,,,,,,,,,,FF,,,,,,,,1.4171,,,,,,,,,,,,,,,,,,,,,,610350d9b4852b4007ab7f87,61036a14272321e9cb645232,2021-07-29_21h55.54.500,Simcolourproject_2stim_asymm_v5,2020.2.10,MacIntel,60,61025ae37ef11b136ea224fe,,,,,,,,,4151,-22.79193115,-51.27355957,1,0,0,response5disk,,3,12.89758301,13.63189697,1,0,0,rectangle,12.89758301,13.63189697,1,0,0,12.89758301,13.63189697,1,0,0,0,46,46,154,1,,,,,,,,
,,,,,,,,,,,,,FF,,,,,,,,0.6844,,,,,,,,,,,,,,,,,,,,,,610350d9b4852b4007ab7f87,61036a14272321e9cb645232,2021-07-29_21h55.54.500,Simcolourproject_2stim_asymm_v5,2020.2.10,MacIntel,60,61025ae37ef11b136ea224fe,,,,,,,,,602,31.16448975,-34.81311035,1,0,0,response3disk,,4,10.8951416,-7.107330322,1,0,0,rectangle,10.8951416,-7.107330322,1,0,0,10.8951416,-7.107330322,1,0,0,0,47,47,85,1,,,,,,,,
,,,,,,,,,,,,,FF,,,,,,,,2.4334,,,,,,,,,,,,,,,,,,,,,,610350d9b4852b4007ab7f87,61036a14272321e9cb645232,2021-07-29_21h55.54.500,Simcolourproject_2stim_asymm_v5,2020.2.10,MacIntel,60,61025ae37ef11b136ea224fe,,,,,,,,,728,30.00256348,-86.28485107,1,0,0,response3disk,,4,6.995666504,-6.31463623,1,0,0,rectangle,6.995666504,-6.31463623,1,0,0,6.995666504,-6.31463623,1,0,0,0,48,48,32,1,,,,,,,,
,,,,,,,,,,,,,FF,,,,,,,,1.132,,,,,,,,,,,,,,,,,,,,,,610350d9b4852b4007ab7f87,61036a14272321e9cb645232,2021-07-29_21h55.54.500,Simcolourproject_2stim_asymm_v5,2020.2.10,MacIntel,60,61025ae37ef11b136ea224fe,,,,,,,,,3506,28.54833984,-37.96832275,1,0,0,response3disk,,4,8.17376709,0.255859375,1,0,0,rectangle,8.17376709,0.255859375,1,0,0,8.17376709,0.255859375,1,0,0,0,49,49,1,1,,,,,,,,
,,,,,,,,,,,,,FF,,,,,,,,1.1345,,,,,,,,,,,,,,,,,,,,,,610350d9b4852b4007ab7f87,61036a14272321e9cb645232,2021-07-29_21h55.54.500,Simcolourproject_2stim_asymm_v5,2020.2.10,MacIntel,60,61025ae37ef11b136ea224fe,,,,,,,,,221,45.14440918,77.37667847,1,0,0,response1disk,,7,10.36083984,3.035827637,1,0,0,rectangle,10.36083984,3.035827637,1,0,0,10.36083984,3.035827637,1,0,0,0,50,50,93,1,,,,,,,,
,,,,,,,,,,,,,FF,,,,,,,,1.8004,,,,,,,,,,,,,,,,,,,,,,610350d9b4852b4007ab7f87,61036a14272321e9cb645232,2021-07-29_21h55.54.500,Simcolourproject_2stim_asymm_v5,2020.2.10,MacIntel,60,61025ae37ef11b136ea224fe,,,,,,,,,199,85.87371826,36.78131104,1,0,0,response1disk,,6,-2.110961914,-4.650390625,1,0,0,rectangle,-2.110961914,-4.650390625,1,0,0,-2.110961914,-4.650390625,1,0,0,0,51,51,59,1,,,,,,,,
,,,,,,,,,,,,,FF,,,,,,,,0.8834,,,,,,,,,,,,,,,,,,,,,,610350d9b4852b4007ab7f87,61036a14272321e9cb645232,2021-07-29_21h55.54.500,Simcolourproject_2stim_asymm_v5,2020.2.10,MacIntel,60,61025ae37ef11b136ea224fe,,,,,,,,,2885,26.71636963,70.58441162,1,0,0,response1disk,,7,-6.497375488,-4.571228027,1,0,0,rectangle,-6.497375488,-4.571228027,1,0,0,-6.497375488,-4.571228027,1,0,0,0,52,52,140,1,,,,,,,,
,,,,,,,,,,,,,FF,,,,,,,,2.484,,,,,,,,,,,,,,,,,,,,,,610350d9b4852b4007ab7f87,61036a14272321e9cb645232,2021-07-29_21h55.54.500,Simcolourproject_2stim_asymm_v5,2020.2.10,MacIntel,60,61025ae37ef11b136ea224fe,,,,,,,,,4348,66.70611572,-27.58782959,1,0,0,response3disk,,5,8.689025879,-7.3699646,1,0,0,rectangle,8.689025879,-7.3699646,1,0,0,8.689025879,-7.3699646,1,0,0,0,53,53,79,1,,,,,,,,
,,,,,,,,,,,,,FF,,,,,,,,0.7658,,,,,,,,,,,,,,,,,,,,,,610350d9b4852b4007ab7f87,61036a14272321e9cb645232,2021-07-29_21h55.54.500,Simcolourproject_2stim_asymm_v5,2020.2.10,MacIntel,60,61025ae37ef11b136ea224fe,,,,,,,,,1795,46.38037109,85.90942383,1,0,0,response1disk,,7,1.114624023,9.029418945,1,0,0,rectangle,1.114624023,9.029418945,1,0,0,1.114624023,9.029418945,1,0,0,0,54,54,70,1,,,,,,,,
,,,,,,,,,,,,,FF,,,,,,,,1.7835,,,,,,,,,,,,,,,,,,,,,,610350d9b4852b4007ab7f87,61036a14272321e9cb645232,2021-07-29_21h55.54.500,Simcolourproject_2stim_asymm_v5,2020.2.10,MacIntel,60,61025ae37ef11b136ea224fe,,,,,,,,,1455,65.50494385,-41.78051758,1,0,0,response3disk,,5,-3.182983398,-7.255401611,1,0,0,rectangle,-3.182983398,-7.255401611,1,0,0,-3.182983398,-7.255401611,1,0,0,0,55,55,105,1,,,,,,,,
,,,,,,,,,,,,,FF,,,,,,,,1.0343,,,,,,,,,,,,,,,,,,,,,,610350d9b4852b4007ab7f87,61036a14272321e9cb645232,2021-07-29_21h55.54.500,Simcolourproject_2stim_asymm_v5,2020.2.10,MacIntel,60,61025ae37ef11b136ea224fe,,,,,,,,,1410,42.50408936,83.17712402,1,0,0,response1disk,,7,4.204956055,0.212341309,1,0,0,rectangle,4.204956055,0.212341309,1,0,0,4.204956055,0.212341309,1,0,0,0,56,56,78,1,,,,,,,,
,,,,,,,,,,,,,FF,,,,,,,,0.7179,,,,,,,,,,,,,,,,,,,,,,610350d9b4852b4007ab7f87,61036a14272321e9cb645232,2021-07-29_21h55.54.500,Simcolourproject_2stim_asymm_v5,2020.2.10,MacIntel,60,61025ae37ef11b136ea224fe,,,,,,,,,1407,38.95324707,83.58856201,1,0,0,response1disk,,7,1.418457031,10.73602295,1,0,0,rectangle,1.418457031,10.73602295,1,0,0,1.418457031,10.73602295,1,0,0,0,57,57,73,1,,,,,,,,
,,,,,,,,,,,,,FF,,,,,,,,0.6847,,,,,,,,,,,,,,,,,,,,,,610350d9b4852b4007ab7f87,61036a14272321e9cb645232,2021-07-29_21h55.54.500,Simcolourproject_2stim_asymm_v5,2020.2.10,MacIntel,60,61025ae37ef11b136ea224fe,,,,,,,,,795,27.140625,65.2565918,1,0,0,response1disk,,7,-11.56799316,-11.96942139,1,0,0,rectangle,70.81262207,36.9045105,1,0,0,8.373046875,0.39074707,1,0,0,0,58,58,84,1,,response1disk_3,TRUE,6,6,"[274,274,59,198,9,33,195,128,290,85,73,143,102,65,231,127,68,65,221,200]",1.5499,rectangle
,,,,,,,,,,,,,FF,,,,,,,,0.7827,,,,,,,,,,,,,,,,,,,,,,610350d9b4852b4007ab7f87,61036a14272321e9cb645232,2021-07-29_21h55.54.500,Simcolourproject_2stim_asymm_v5,2020.2.10,MacIntel,60,61025ae37ef11b136ea224fe,,,,,,,,,3987,42.00549316,78.3744812,1,0,0,response1disk,,7,-1.99420166,1.62121582,1,0,0,rectangle,-1.99420166,1.62121582,1,0,0,-1.99420166,1.62121582,1,0,0,0,59,59,31,1,,,,,,,,
,,,,,,,,,,,,,FF,,,,,,,,0.9326,,,,,,,,,,,,,,,,,,,,,,610350d9b4852b4007ab7f87,61036a14272321e9cb645232,2021-07-29_21h55.54.500,Simcolourproject_2stim_asymm_v5,2020.2.10,MacIntel,60,61025ae37ef11b136ea224fe,,,,,,,,,2725,-89.70849609,-30.2677002,1,0,0,response5disk,,2,-9.052429199,6.921325684,1,0,0,rectangle,-9.052429199,6.921325684,1,0,0,-9.052429199,6.921325684,1,0,0,0,60,60,56,1,,,,,,,,
,,,,,,,,,,,,,FF,,,,,,,,0.7005,,,,,,,,,,,,,,,,,,,,,,610350d9b4852b4007ab7f87,61036a14272321e9cb645232,2021-07-29_21h55.54.500,Simcolourproject_2stim_asymm_v5,2020.2.10,MacIntel,60,61025ae37ef11b136ea224fe,,,,,,,,,1638,22.78289795,64.62472534,1,0,0,response1disk,,7,-5.018676758,-3.81060791,1,0,0,rectangle,-5.018676758,-3.81060791,1,0,0,-5.018676758,-3.81060791,1,0,0,0,61,61,66,1,,,,,,,,
,,,,,,,,,,,,,FF,,,,,,,,0.7329,,,,,,,,,,,,,,,,,,,,,,610350d9b4852b4007ab7f87,61036a14272321e9cb645232,2021-07-29_21h55.54.500,Simcolourproject_2stim_asymm_v5,2020.2.10,MacIntel,60,61025ae37ef11b136ea224fe,,,,,,,,,3016,38.534729,65.41610718,1,0,0,response1disk,,7,-3.489257813,-3.190673828,1,0,0,rectangle,-3.489257813,-3.190673828,1,0,0,-3.489257813,-3.190673828,1,0,0,0,62,62,41,1,,,,,,,,
,,,,,,,,,,,,,FF,,,,,,,,0.7827,,,,,,,,,,,,,,,,,,,,,,610350d9b4852b4007ab7f87,61036a14272321e9cb645232,2021-07-29_21h55.54.500,Simcolourproject_2stim_asymm_v5,2020.2.10,MacIntel,60,61025ae37ef11b136ea224fe,,,,,,,,,1851,35.76452637,75.9336853,1,0,0,response1disk,,7,1.088989258,2.941986084,1,0,0,rectangle,1.088989258,2.941986084,1,0,0,1.088989258,2.941986084,1,0,0,0,63,63,62,1,,,,,,,,
,,,,,,,,,,,,,FF,,,,,,,,1.3324,,,,,,,,,,,,,,,,,,,,,,610350d9b4852b4007ab7f87,61036a14272321e9cb645232,2021-07-29_21h55.54.500,Simcolourproject_2stim_asymm_v5,2020.2.10,MacIntel,60,61025ae37ef11b136ea224fe,,,,,,,,,4128,-37.74493408,-59.9173584,1,0,0,response5disk,,3,-13.57165527,-6.272064209,1,0,0,rectangle,78.73687744,33.61624146,1,0,0,-4.29675293,-11.30938721,1,0,0,0,64,64,14,1,,response1disk_3,TRUE,6,6,"[274,274,59,198,9,33,195,128,290,85,73,143,102,65,231,127,68,65,221,200]",1.7499,rectangle
,,,,,,,,,,,,,FF,,,,,,,,0.7507,,,,,,,,,,,,,,,,,,,,,,610350d9b4852b4007ab7f87,61036a14272321e9cb645232,2021-07-29_21h55.54.500,Simcolourproject_2stim_asymm_v5,2020.2.10,MacIntel,60,61025ae37ef11b136ea224fe,,,,,,,,,2401,37.30310059,80.57495117,1,0,0,response1disk,,7,-2.842285156,-4.192840576,1,0,0,rectangle,-2.842285156,-4.192840576,1,0,0,-2.842285156,-4.192840576,1,0,0,0,65,65,147,1,,,,,,,,
,,,,,,,,,,,,,FF,,,,,,,,1.1841,,,,,,,,,,,,,,,,,,,,,,610350d9b4852b4007ab7f87,61036a14272321e9cb645232,2021-07-29_21h55.54.500,Simcolourproject_2stim_asymm_v5,2020.2.10,MacIntel,60,61025ae37ef11b136ea224fe,,,,,,,,,637,-69.25854492,-35.75332642,1,0,0,response5disk,,2,-8.222900391,7.098754883,1,0,0,rectangle,-8.222900391,7.098754883,1,0,0,-8.222900391,7.098754883,1,0,0,0,66,66,64,1,,,,,,,,
,,,,,,,,,,,,,FF,,,,,,,,0.6509,,,,,,,,,,,,,,,,,,,,,,610350d9b4852b4007ab7f87,61036a14272321e9cb645232,2021-07-29_21h55.54.500,Simcolourproject_2stim_asymm_v5,2020.2.10,MacIntel,60,61025ae37ef11b136ea224fe,,,,,,,,,3786,29.57446289,81.8170166,1,0,0,response1disk,,7,-5.630981445,0.004394531,1,0,0,rectangle,-70.6854248,49.59786987,1,0,0,-3.02557373,2.472808838,1,0,0,0,67,67,106,1,,response7disk_3,TRUE,1,1,"[274,274,59,198,9,33,195,128,290,85,73,143,102,65,231,127,68,65,221,200]",1.6833,rectangle
,,,,,,,,,,,,,FF,,,,,,,,1.2997,,,,,,,,,,,,,,,,,,,,,,610350d9b4852b4007ab7f87,61036a14272321e9cb645232,2021-07-29_21h55.54.500,Simcolourproject_2stim_asymm_v5,2020.2.10,MacIntel,60,61025ae37ef11b136ea224fe,,,,,,,,,2038,-67.79211426,-48.25674438,1,0,0,response5disk,,2,2.325500488,4.702758789,1,0,0,rectangle,2.325500488,4.702758789,1,0,0,2.325500488,4.702758789,1,0,0,0,68,68,5,1,,,,,,,,
,,,,,,,,,,,,,FF,,,,,,,,0.8677,,,,,,,,,,,,,,,,,,,,,,610350d9b4852b4007ab7f87,61036a14272321e9cb645232,2021-07-29_21h55.54.500,Simcolourproject_2stim_asymm_v5,2020.2.10,MacIntel,60,61025ae37ef11b136ea224fe,,,,,,,,,11,-22.85748291,-73.63574219,1,0,0,response5disk,,3,-2.079650879,-2.403717041,1,0,0,rectangle,-2.079650879,-2.403717041,1,0,0,-2.079650879,-2.403717041,1,0,0,0,69,69,43,1,,,,,,,,
,,,,,,,,,,,,,FF,,,,,,,,0.9837,,,,,,,,,,,,,,,,,,,,,,610350d9b4852b4007ab7f87,61036a14272321e9cb645232,2021-07-29_21h55.54.500,Simcolourproject_2stim_asymm_v5,2020.2.10,MacIntel,60,61025ae37ef11b136ea224fe,,,,,,,,,152,32.64050293,90.17132568,1,0,0,response1disk,,7,-5.071411133,-0.441650391,1,0,0,rectangle,-5.071411133,-0.441650391,1,0,0,-5.071411133,-0.441650391,1,0,0,0,70,70,72,1,,,,,,,,
,,,,,,,,,,,,,FF,,,,,,,,0.649,,,,,,,,,,,,,,,,,,,,,,610350d9b4852b4007ab7f87,61036a14272321e9cb645232,2021-07-29_21h55.54.500,Simcolourproject_2stim_asymm_v5,2020.2.10,MacIntel,60,61025ae37ef11b136ea224fe,,,,,,,,,4024,27.4776001,57.37445068,1,0,0,response1disk,,7,3.104919434,-4.33581543,1,0,0,rectangle,3.104919434,-4.33581543,1,0,0,3.104919434,-4.33581543,1,0,0,0,71,71,88,1,,,,,,,,
,,,,,,,,,,,,,FF,,,,,,,,1.1495,,,,,,,,,,,,,,,,,,,,,,610350d9b4852b4007ab7f87,61036a14272321e9cb645232,2021-07-29_21h55.54.500,Simcolourproject_2stim_asymm_v5,2020.2.10,MacIntel,60,61025ae37ef11b136ea224fe,,,,,,,,,1446,-68.74768066,-38.20141602,1,0,0,response5disk,,2,-6.249389648,2.338439941,1,0,0,rectangle,-78.38879395,-44.9206543,1,0,0,-21.90557861,-14.33721924,1,0,0,0,72,72,2,1,,response5disk_3,TRUE,2,2,"[274,274,59,198,9,33,195,128,290,85,73,143,102,65,231,127,68,65,221,200]",1.8325,rectangle
,,,,,,,,,,,,,FF,,,,,,,,1.2324,,,,,,,,,,,,,,,,,,,,,,610350d9b4852b4007ab7f87,61036a14272321e9cb645232,2021-07-29_21h55.54.500,Simcolourproject_2stim_asymm_v5,2020.2.10,MacIntel,60,61025ae37ef11b136ea224fe,,,,,,,,,2346,-37.47247314,-46.88909912,1,0,0,response5disk,,3,-4.858276367,-3.692047119,1,0,0,rectangle,-4.858276367,-3.692047119,1,0,0,-4.858276367,-3.692047119,1,0,0,0,73,73,136,1,,,,,,,,
,,,,,,,,,,,,,FF,,,,,,,,0.8842,,,,,,,,,,,,,,,,,,,,,,610350d9b4852b4007ab7f87,61036a14272321e9cb645232,2021-07-29_21h55.54.500,Simcolourproject_2stim_asymm_v5,2020.2.10,MacIntel,60,61025ae37ef11b136ea224fe,,,,,,,,,1714,28.20513916,67.60943604,1,0,0,response1disk,,7,-0.954467773,3.002868652,1,0,0,rectangle,-0.954467773,3.002868652,1,0,0,-0.954467773,3.002868652,1,0,0,0,74,74,46,1,,,,,,,,
,,,,,,,,,,,,,FF,,,,,,,,1.5675,,,,,,,,,,,,,,,,,,,,,,610350d9b4852b4007ab7f87,61036a14272321e9cb645232,2021-07-29_21h55.54.500,Simcolourproject_2stim_asymm_v5,2020.2.10,MacIntel,60,61025ae37ef11b136ea224fe,,,,,,,,,2045,63.3604126,24.49066162,1,0,0,response1disk,,6,-1.390686035,-8.348144531,1,0,0,rectangle,-1.390686035,-8.348144531,1,0,0,-1.390686035,-8.348144531,1,0,0,0,75,75,55,1,,,,,,,,
,,,,,,,,,,,,,FF,,,,,,,,1.0488,,,,,,,,,,,,,,,,,,,,,,610350d9b4852b4007ab7f87,61036a14272321e9cb645232,2021-07-29_21h55.54.500,Simcolourproject_2stim_asymm_v5,2020.2.10,MacIntel,60,61025ae37ef11b136ea224fe,,,,,,,,,4200,-41.7857666,77.54138184,1,0,0,response7disk,,0,-4.703308105,-5.366729736,1,0,0,rectangle,-4.703308105,-5.366729736,1,0,0,-4.703308105,-5.366729736,1,0,0,0,76,76,36,1,,,,,,,,
,,,,,,,,,,,,,FF,,,,,,,,0.9342,,,,,,,,,,,,,,,,,,,,,,610350d9b4852b4007ab7f87,61036a14272321e9cb645232,2021-07-29_21h55.54.500,Simcolourproject_2stim_asymm_v5,2020.2.10,MacIntel,60,61025ae37ef11b136ea224fe,,,,,,,,,2975,41.87609863,66.12805176,1,0,0,response1disk,,7,4.397399902,-2.622436523,1,0,0,rectangle,4.397399902,-2.622436523,1,0,0,4.397399902,-2.622436523,1,0,0,0,77,77,53,1,,,,,,,,
,,,,,,,,,,,,,FF,,,,,,,,1.1665,,,,,,,,,,,,,,,,,,,,,,610350d9b4852b4007ab7f87,61036a14272321e9cb645232,2021-07-29_21h55.54.500,Simcolourproject_2stim_asymm_v5,2020.2.10,MacIntel,60,61025ae37ef11b136ea224fe,,,,,,,,,3752,38.40100098,62.96032715,1,0,0,response1disk,,7,8.667114258,-0.665740967,1,0,0,rectangle,8.667114258,-0.665740967,1,0,0,8.667114258,-0.665740967,1,0,0,0,78,78,148,1,,,,,,,,
,,,,,,,,,,,,,FF,,,,,,,,0.8337,,,,,,,,,,,,,,,,,,,,,,610350d9b4852b4007ab7f87,61036a14272321e9cb645232,2021-07-29_21h55.54.500,Simcolourproject_2stim_asymm_v5,2020.2.10,MacIntel,60,61025ae37ef11b136ea224fe,,,,,,,,,2590,24.24359131,50.55682373,1,0,0,response1disk,,7,-5.805236816,-4.071960449,1,0,0,rectangle,-5.805236816,-4.071960449,1,0,0,-5.805236816,-4.071960449,1,0,0,0,79,79,87,1,,,,,,,,
,,,,,,,,,,,,,FF,,,,,,,,1.0003,,,,,,,,,,,,,,,,,,,,,,610350d9b4852b4007ab7f87,61036a14272321e9cb645232,2021-07-29_21h55.54.500,Simcolourproject_2stim_asymm_v5,2020.2.10,MacIntel,60,61025ae37ef11b136ea224fe,,,,,,,,,17,52.45776367,25.38427734,1,0,0,response1disk,,6,-4.871459961,-13.98071289,1,0,0,rectangle,-4.871459961,-13.98071289,1,0,0,-4.871459961,-13.98071289,1,0,0,0,80,80,77,1,,,,,,,,
,,,,,,,,,,,,,FF,,,,,,,,0.8667,,,,,,,,,,,,,,,,,,,,,,610350d9b4852b4007ab7f87,61036a14272321e9cb645232,2021-07-29_21h55.54.500,Simcolourproject_2stim_asymm_v5,2020.2.10,MacIntel,60,61025ae37ef11b136ea224fe,,,,,,,,,2511,54.63928223,35.67379761,1,0,0,response1disk,,6,-2.99206543,12.45504761,1,0,0,rectangle,-2.99206543,12.45504761,1,0,0,-2.99206543,12.45504761,1,0,0,0,81,81,113,1,,,,,,,,
,,,,,,,,,,,,,FF,,,,,,,,0.7168,,,,,,,,,,,,,,,,,,,,,,610350d9b4852b4007ab7f87,61036a14272321e9cb645232,2021-07-29_21h55.54.500,Simcolourproject_2stim_asymm_v5,2020.2.10,MacIntel,60,61025ae37ef11b136ea224fe,,,,,,,,,3326,36.68377686,72.95068359,1,0,0,response1disk,,7,-9.725219727,-6.517272949,1,0,0,rectangle,-9.725219727,-6.517272949,1,0,0,-9.725219727,-6.517272949,1,0,0,0,82,82,116,1,,,,,,,,
,,,,,,,,,,,,,FF,,,,,,,,0.7836,,,,,,,,,,,,,,,,,,,,,,610350d9b4852b4007ab7f87,61036a14272321e9cb645232,2021-07-29_21h55.54.500,Simcolourproject_2stim_asymm_v5,2020.2.10,MacIntel,60,61025ae37ef11b136ea224fe,,,,,,,,,1327,34.6854248,75.97927856,1,0,0,response1disk,,7,-3.927124023,1.619293213,1,0,0,rectangle,-3.927124023,1.619293213,1,0,0,-3.927124023,1.619293213,1,0,0,0,83,83,13,1,,,,,,,,
,,,,,,,,,,,,,FF,,,,,,,,0.7173,,,,,,,,,,,,,,,,,,,,,,610350d9b4852b4007ab7f87,61036a14272321e9cb645232,2021-07-29_21h55.54.500,Simcolourproject_2stim_asymm_v5,2020.2.10,MacIntel,60,61025ae37ef11b136ea224fe,,,,,,,,,2324,36.40185547,63.47061157,1,0,0,response1disk,,7,3.058410645,0.18939209,1,0,0,rectangle,45.15283203,41.47485352,1,0,0,-12.90734863,-3.790283203,1,0,0,0,84,84,101,1,,response1disk_3,TRUE,6,5,"[274,274,59,198,9,33,195,128,290,85,73,143,102,65,231,127,68,65,221,200]",1.3169,rectangle
,,,,,,,,,,,,,FF,,,,,,,,0.7671,,,,,,,,,,,,,,,,,,,,,,610350d9b4852b4007ab7f87,61036a14272321e9cb645232,2021-07-29_21h55.54.500,Simcolourproject_2stim_asymm_v5,2020.2.10,MacIntel,60,61025ae37ef11b136ea224fe,,,,,,,,,1417,43.08239746,77.97299194,1,0,0,response1disk,,7,-4.720581055,-0.176696777,1,0,0,rectangle,-4.720581055,-0.176696777,1,0,0,-4.720581055,-0.176696777,1,0,0,0,85,85,97,1,,,,,,,,
,,,,,,,,,,,,,FF,,,,,,,,2.067,,,,,,,,,,,,,,,,,,,,,,610350d9b4852b4007ab7f87,61036a14272321e9cb645232,2021-07-29_21h55.54.500,Simcolourproject_2stim_asymm_v5,2020.2.10,MacIntel,60,61025ae37ef11b136ea224fe,,,,,,,,,3014,30.74676514,-53.47845459,1,0,0,response3disk,,4,7.326782227,-16.47558594,1,0,0,rectangle,7.326782227,-16.47558594,1,0,0,7.326782227,-16.47558594,1,0,0,0,86,86,33,1,,,,,,,,
,,,,,,,,,,,,,FF,,,,,,,,1.9997,,,,,,,,,,,,,,,,,,,,,,610350d9b4852b4007ab7f87,61036a14272321e9cb645232,2021-07-29_21h55.54.500,Simcolourproject_2stim_asymm_v5,2020.2.10,MacIntel,60,61025ae37ef11b136ea224fe,,,,,,,,,1986,45.36633301,79.43054199,1,0,0,response1disk,,7,-3.585571289,-4.264282227,1,0,0,rectangle,-3.585571289,-4.264282227,1,0,0,-3.585571289,-4.264282227,1,0,0,0,87,87,133,1,,,,,,,,
,,,,,,,,,,,,,FF,,,,,,,,0.666,,,,,,,,,,,,,,,,,,,,,,610350d9b4852b4007ab7f87,61036a14272321e9cb645232,2021-07-29_21h55.54.500,Simcolourproject_2stim_asymm_v5,2020.2.10,MacIntel,60,61025ae37ef11b136ea224fe,,,,,,,,,147,33.78546143,79.86523438,1,0,0,response1disk,,7,-11.90045166,-2.78302002,1,0,0,rectangle,-11.90045166,-2.78302002,1,0,0,-11.90045166,-2.78302002,1,0,0,0,88,88,27,1,,,,,,,,
,,,,,,,,,,,,,FF,,,,,,,,1.1999,,,,,,,,,,,,,,,,,,,,,,610350d9b4852b4007ab7f87,61036a14272321e9cb645232,2021-07-29_21h55.54.500,Simcolourproject_2stim_asymm_v5,2020.2.10,MacIntel,60,61025ae37ef11b136ea224fe,,,,,,,,,3671,-71.72766113,26.36102295,1,0,0,response7disk,,1,4.058654785,-1.15447998,1,0,0,rectangle,4.058654785,-1.15447998,1,0,0,4.058654785,-1.15447998,1,0,0,0,89,89,68,1,,,,,,,,
,,,,,,,,,,,,,FF,,,,,,,,1.4825,,,,,,,,,,,,,,,,,,,,,,610350d9b4852b4007ab7f87,61036a14272321e9cb645232,2021-07-29_21h55.54.500,Simcolourproject_2stim_asymm_v5,2020.2.10,MacIntel,60,61025ae37ef11b136ea224fe,,,,,,,,,1463,-70.7098999,-44.76623535,1,0,0,response5disk,,2,-8.128051758,-4.411010742,1,0,0,rectangle,-8.128051758,-4.411010742,1,0,0,-8.128051758,-4.411010742,1,0,0,0,90,90,39,1,,,,,,,,
,,,,,,,,,,,,,FF,,,,,,,,2.8006,,,,,,,,,,,,,,,,,,,,,,610350d9b4852b4007ab7f87,61036a14272321e9cb645232,2021-07-29_21h55.54.500,Simcolourproject_2stim_asymm_v5,2020.2.10,MacIntel,60,61025ae37ef11b136ea224fe,,,,,,,,,3106,-68.6340332,-39.93206787,1,0,0,response5disk,,2,-8.879699707,4.433776855,1,0,0,rectangle,-8.879699707,4.433776855,1,0,0,-8.879699707,4.433776855,1,0,0,0,91,91,96,1,,,,,,,,
,,,,,,,,,,,,,FF,,,,,,,,0.9681,,,,,,,,,,,,,,,,,,,,,,610350d9b4852b4007ab7f87,61036a14272321e9cb645232,2021-07-29_21h55.54.500,Simcolourproject_2stim_asymm_v5,2020.2.10,MacIntel,60,61025ae37ef11b136ea224fe,,,,,,,,,4233,-23.12554932,77.47885132,1,0,0,response7disk,,0,-12.31481934,2.998840332,1,0,0,rectangle,-12.31481934,2.998840332,1,0,0,-12.31481934,2.998840332,1,0,0,0,92,92,156,1,,,,,,,,
,,,,,,,,,,,,,FF,,,,,,,,0.6333,,,,,,,,,,,,,,,,,,,,,,610350d9b4852b4007ab7f87,61036a14272321e9cb645232,2021-07-29_21h55.54.500,Simcolourproject_2stim_asymm_v5,2020.2.10,MacIntel,60,61025ae37ef11b136ea224fe,,,,,,,,,313,31.42785645,48.23214722,1,0,0,response1disk,,7,-5.061523438,-12.2086792,1,0,0,rectangle,-5.061523438,-12.2086792,1,0,0,-5.061523438,-12.2086792,1,0,0,0,93,93,115,1,,,,,,,,
,,,,,,,,,,,,,FF,,,,,,,,0.6997,,,,,,,,,,,,,,,,,,,,,,610350d9b4852b4007ab7f87,61036a14272321e9cb645232,2021-07-29_21h55.54.500,Simcolourproject_2stim_asymm_v5,2020.2.10,MacIntel,60,61025ae37ef11b136ea224fe,,,,,,,,,4190,42.39221191,74.93417358,1,0,0,response1disk,,7,2.630615234,3.435302734,1,0,0,rectangle,2.630615234,3.435302734,1,0,0,2.630615234,3.435302734,1,0,0,0,94,94,3,1,,,,,,,,
,,,,,,,,,,,,,FF,,,,,,,,0.7658,,,,,,,,,,,,,,,,,,,,,,610350d9b4852b4007ab7f87,61036a14272321e9cb645232,2021-07-29_21h55.54.500,Simcolourproject_2stim_asymm_v5,2020.2.10,MacIntel,60,61025ae37ef11b136ea224fe,,,,,,,,,3264,44.07495117,83.80667114,1,0,0,response1disk,,7,13.17364502,16.19616699,1,0,0,rectangle,13.17364502,16.19616699,1,0,0,13.17364502,16.19616699,1,0,0,0,95,95,75,1,,,,,,,,
,,,,,,,,,,,,,FF,,,,,,,,0.7335,,,,,,,,,,,,,,,,,,,,,,610350d9b4852b4007ab7f87,61036a14272321e9cb645232,2021-07-29_21h55.54.500,Simcolourproject_2stim_asymm_v5,2020.2.10,MacIntel,60,61025ae37ef11b136ea224fe,,,,,,,,,4175,36.6060791,73.15371704,1,0,0,response1disk,,7,3.031860352,8.981933594,1,0,0,rectangle,3.031860352,8.981933594,1,0,0,3.031860352,8.981933594,1,0,0,0,96,96,125,1,,,,,,,,
,,,,,,,,,,,,,FF,,,,,,,,0.6665,,,,,,,,,,,,,,,,,,,,,,610350d9b4852b4007ab7f87,61036a14272321e9cb645232,2021-07-29_21h55.54.500,Simcolourproject_2stim_asymm_v5,2020.2.10,MacIntel,60,61025ae37ef11b136ea224fe,,,,,,,,,4014,35.48931885,66.71661377,1,0,0,response1disk,,7,2.782409668,6.156494141,1,0,0,rectangle,2.782409668,6.156494141,1,0,0,2.782409668,6.156494141,1,0,0,0,97,97,114,1,,,,,,,,
,,,,,,,,,,,,,FF,,,,,,,,2.3497,,,,,,,,,,,,,,,,,,,,,,610350d9b4852b4007ab7f87,61036a14272321e9cb645232,2021-07-29_21h55.54.500,Simcolourproject_2stim_asymm_v5,2020.2.10,MacIntel,60,61025ae37ef11b136ea224fe,,,,,,,,,3588,32.4486084,-65.14770508,1,0,0,response3disk,,4,-2.339294434,6.33605957,1,0,0,rectangle,-2.339294434,6.33605957,1,0,0,-2.339294434,6.33605957,1,0,0,0,98,98,37,1,,,,,,,,
,,,,,,,,,,,,,FF,,,,,,,,0.7334,,,,,,,,,,,,,,,,,,,,,,610350d9b4852b4007ab7f87,61036a14272321e9cb645232,2021-07-29_21h55.54.500,Simcolourproject_2stim_asymm_v5,2020.2.10,MacIntel,60,61025ae37ef11b136ea224fe,,,,,,,,,4302,36.20031738,78.96337891,1,0,0,response1disk,,7,-1.073303223,-1.511383057,1,0,0,rectangle,-1.073303223,-1.511383057,1,0,0,-1.073303223,-1.511383057,1,0,0,0,99,99,63,1,,,,,,,,
,,,,,,,,,,,,,FF,,,,,,,,1.6839,,,,,,,,,,,,,,,,,,,,,,610350d9b4852b4007ab7f87,61036a14272321e9cb645232,2021-07-29_21h55.54.500,Simcolourproject_2stim_asymm_v5,2020.2.10,MacIntel,60,61025ae37ef11b136ea224fe,,,,,,,,,157,-45.73278809,-63.75311279,1,0,0,response5disk,,3,-0.480834961,-2.671447754,1,0,0,rectangle,-0.480834961,-2.671447754,1,0,0,-0.480834961,-2.671447754,1,0,0,0,100,100,157,1,,,,,,,,
,,,,,,,,,,,,,FF,,,,,,,,0.7172,,,,,,,,,,,,,,,,,,,,,,610350d9b4852b4007ab7f87,61036a14272321e9cb645232,2021-07-29_21h55.54.500,Simcolourproject_2stim_asymm_v5,2020.2.10,MacIntel,60,61025ae37ef11b136ea224fe,,,,,,,,,2570,31.95800781,78.81997681,1,0,0,response1disk,,7,3.983642578,0.410888672,1,0,0,rectangle,67.4296875,-32.41717529,1,0,0,-1.461730957,-3.072143555,1,0,0,0,101,101,145,1,,response3disk_3,TRUE,5,5,"[274,274,59,198,9,33,195,128,290,85,73,143,102,65,231,127,68,65,221,200]",1.7999,rectangle
,,,,,,,,,,,,,FF,,,,,,,,3.6167,,,,,,,,,,,,,,,,,,,,,,610350d9b4852b4007ab7f87,61036a14272321e9cb645232,2021-07-29_21h55.54.500,Simcolourproject_2stim_asymm_v5,2020.2.10,MacIntel,60,61025ae37ef11b136ea224fe,,,,,,,,,1482,33.17156982,71.47793579,1,0,0,response1disk,,7,7.292053223,8.7578125,1,0,0,rectangle,7.292053223,8.7578125,1,0,0,7.292053223,8.7578125,1,0,0,0,102,102,69,1,,,,,,,,
,,,,,,,,,,,,,FF,,,,,,,,0.9337,,,,,,,,,,,,,,,,,,,,,,610350d9b4852b4007ab7f87,61036a14272321e9cb645232,2021-07-29_21h55.54.500,Simcolourproject_2stim_asymm_v5,2020.2.10,MacIntel,60,61025ae37ef11b136ea224fe,,,,,,,,,2805,32.53338623,62.10003662,1,0,0,response1disk,,7,-1.50958252,-3.489532471,1,0,0,rectangle,-1.50958252,-3.489532471,1,0,0,-1.50958252,-3.489532471,1,0,0,0,103,103,155,1,,,,,,,,
,,,,,,,,,,,,,FF,,,,,,,,1.1011,,,,,,,,,,,,,,,,,,,,,,610350d9b4852b4007ab7f87,61036a14272321e9cb645232,2021-07-29_21h55.54.500,Simcolourproject_2stim_asymm_v5,2020.2.10,MacIntel,60,61025ae37ef11b136ea224fe,,,,,,,,,1484,34.68481445,72.1729126,1,0,0,response1disk,,7,-3.377563477,2.375457764,1,0,0,rectangle,-3.377563477,2.375457764,1,0,0,-3.377563477,2.375457764,1,0,0,0,104,104,108,1,,,,,,,,
,,,,,,,,,,,,,FF,,,,,,,,0.7666,,,,,,,,,,,,,,,,,,,,,,610350d9b4852b4007ab7f87,61036a14272321e9cb645232,2021-07-29_21h55.54.500,Simcolourproject_2stim_asymm_v5,2020.2.10,MacIntel,60,61025ae37ef11b136ea224fe,,,,,,,,,1790,26.14868164,62.1010437,1,0,0,response1disk,,7,-5.983032227,-4.800048828,1,0,0,rectangle,-5.983032227,-4.800048828,1,0,0,-5.983032227,-4.800048828,1,0,0,0,105,105,74,1,,,,,,,,
,,,,,,,,,,,,,FF,,,,,,,,0.7166,,,,,,,,,,,,,,,,,,,,,,610350d9b4852b4007ab7f87,61036a14272321e9cb645232,2021-07-29_21h55.54.500,Simcolourproject_2stim_asymm_v5,2020.2.10,MacIntel,60,61025ae37ef11b136ea224fe,,,,,,,,,1255,36.5836792,73.14559937,1,0,0,response1disk,,7,-2.795166016,-2.884765625,1,0,0,rectangle,-2.795166016,-2.884765625,1,0,0,-2.795166016,-2.884765625,1,0,0,0,106,106,110,1,,,,,,,,
,,,,,,,,,,,,,FF,,,,,,,,0.6663,,,,,,,,,,,,,,,,,,,,,,610350d9b4852b4007ab7f87,61036a14272321e9cb645232,2021-07-29_21h55.54.500,Simcolourproject_2stim_asymm_v5,2020.2.10,MacIntel,60,61025ae37ef11b136ea224fe,,,,,,,,,4315,41.95587158,79.14620972,1,0,0,response1disk,,7,2.089416504,10.43902588,1,0,0,rectangle,2.089416504,10.43902588,1,0,0,2.089416504,10.43902588,1,0,0,0,107,107,143,1,,,,,,,,
,,,,,,,,,,,,,FF,,,,,,,,1.6498,,,,,,,,,,,,,,,,,,,,,,610350d9b4852b4007ab7f87,61036a14272321e9cb645232,2021-07-29_21h55.54.500,Simcolourproject_2stim_asymm_v5,2020.2.10,MacIntel,60,61025ae37ef11b136ea224fe,,,,,,,,,1629,30.65625,71.68429565,1,0,0,response1disk,,7,0.696289063,-0.979278564,1,0,0,rectangle,0.696289063,-0.979278564,1,0,0,0.696289063,-0.979278564,1,0,0,0,108,108,45,1,,,,,,,,
,,,,,,,,,,,,,FF,,,,,,,,0.6653,,,,,,,,,,,,,,,,,,,,,,610350d9b4852b4007ab7f87,61036a14272321e9cb645232,2021-07-29_21h55.54.500,Simcolourproject_2stim_asymm_v5,2020.2.10,MacIntel,60,61025ae37ef11b136ea224fe,,,,,,,,,3028,34.01904297,65.64810181,1,0,0,response1disk,,7,-1.52935791,1.898406982,1,0,0,rectangle,-1.52935791,1.898406982,1,0,0,-1.52935791,1.898406982,1,0,0,0,109,109,38,1,,,,,,,,
,,,,,,,,,,,,,FF,,,,,,,,0.5997,,,,,,,,,,,,,,,,,,,,,,610350d9b4852b4007ab7f87,61036a14272321e9cb645232,2021-07-29_21h55.54.500,Simcolourproject_2stim_asymm_v5,2020.2.10,MacIntel,60,61025ae37ef11b136ea224fe,,,,,,,,,3487,28.34753418,70.51550293,1,0,0,response1disk,,7,-5.411010742,6.488098145,1,0,0,rectangle,-5.411010742,6.488098145,1,0,0,-5.411010742,6.488098145,1,0,0,0,110,110,30,1,,,,,,,,
,,,,,,,,,,,,,FF,,,,,,,,0.9339,,,,,,,,,,,,,,,,,,,,,,610350d9b4852b4007ab7f87,61036a14272321e9cb645232,2021-07-29_21h55.54.500,Simcolourproject_2stim_asymm_v5,2020.2.10,MacIntel,60,61025ae37ef11b136ea224fe,,,,,,,,,2667,-51.00854492,63.5241394,1,0,0,response7disk,,0,-14.79431152,7.803833008,1,0,0,rectangle,-14.79431152,7.803833008,1,0,0,-14.79431152,7.803833008,1,0,0,0,111,111,137,1,,,,,,,,
,,,,,,,,,,,,,FF,,,,,,,,0.6505,,,,,,,,,,,,,,,,,,,,,,610350d9b4852b4007ab7f87,61036a14272321e9cb645232,2021-07-29_21h55.54.500,Simcolourproject_2stim_asymm_v5,2020.2.10,MacIntel,60,61025ae37ef11b136ea224fe,,,,,,,,,3992,29.04998779,73.26123047,1,0,0,response1disk,,7,-2.64465332,-0.566589355,1,0,0,rectangle,-2.64465332,-0.566589355,1,0,0,-2.64465332,-0.566589355,1,0,0,0,112,112,82,1,,,,,,,,
,,,,,,,,,,,,,FF,,,,,,,,1.9841,,,,,,,,,,,,,,,,,,,,,,610350d9b4852b4007ab7f87,61036a14272321e9cb645232,2021-07-29_21h55.54.500,Simcolourproject_2stim_asymm_v5,2020.2.10,MacIntel,60,61025ae37ef11b136ea224fe,,,,,,,,,1308,68.8817749,-50.37786865,1,0,0,response3disk,,5,-1.574523926,-2.291931152,1,0,0,rectangle,-1.574523926,-2.291931152,1,0,0,-1.574523926,-2.291931152,1,0,0,0,113,113,8,1,,,,,,,,
,,,,,,,,,,,,,FF,,,,,,,,1.3159,,,,,,,,,,,,,,,,,,,,,,610350d9b4852b4007ab7f87,61036a14272321e9cb645232,2021-07-29_21h55.54.500,Simcolourproject_2stim_asymm_v5,2020.2.10,MacIntel,60,61025ae37ef11b136ea224fe,,,,,,,,,3977,25.36462402,-74.82324219,1,0,0,response3disk,,4,-1.121154785,-4.587890625,1,0,0,rectangle,-1.121154785,-4.587890625,1,0,0,-1.121154785,-4.587890625,1,0,0,0,114,114,142,1,,,,,,,,
,,,,,,,,,,,,,FF,,,,,,,,1.6841,,,,,,,,,,,,,,,,,,,,,,610350d9b4852b4007ab7f87,61036a14272321e9cb645232,2021-07-29_21h55.54.500,Simcolourproject_2stim_asymm_v5,2020.2.10,MacIntel,60,61025ae37ef11b136ea224fe,,,,,,,,,1203,-36.77612305,-63.82714844,1,0,0,response5disk,,3,-1.753295898,-12.94421387,1,0,0,rectangle,-1.753295898,-12.94421387,1,0,0,-1.753295898,-12.94421387,1,0,0,0,115,115,26,1,,,,,,,,
,,,,,,,,,,,,,FF,,,,,,,,0.9845,,,,,,,,,,,,,,,,,,,,,,610350d9b4852b4007ab7f87,61036a14272321e9cb645232,2021-07-29_21h55.54.500,Simcolourproject_2stim_asymm_v5,2020.2.10,MacIntel,60,61025ae37ef11b136ea224fe,,,,,,,,,2680,-26.2020874,-65.88677979,1,0,0,response5disk,,3,3.478637695,-5.57220459,1,0,0,rectangle,3.478637695,-5.57220459,1,0,0,3.478637695,-5.57220459,1,0,0,0,116,116,139,1,,,,,,,,
,,,,,,,,,,,,,FF,,,,,,,,1.384,,,,,,,,,,,,,,,,,,,,,,610350d9b4852b4007ab7f87,61036a14272321e9cb645232,2021-07-29_21h55.54.500,Simcolourproject_2stim_asymm_v5,2020.2.10,MacIntel,60,61025ae37ef11b136ea224fe,,,,,,,,,2163,-71.58331299,-37.33612061,1,0,0,response5disk,,2,-6.250976563,1.830749512,1,0,0,rectangle,-6.250976563,1.830749512,1,0,0,-6.250976563,1.830749512,1,0,0,0,117,117,71,1,,,,,,,,
,,,,,,,,,,,,,FF,,,,,,,,1.9836,,,,,,,,,,,,,,,,,,,,,,610350d9b4852b4007ab7f87,61036a14272321e9cb645232,2021-07-29_21h55.54.500,Simcolourproject_2stim_asymm_v5,2020.2.10,MacIntel,60,61025ae37ef11b136ea224fe,,,,,,,,,1248,31.06011963,46.83575439,1,0,0,response1disk,,7,-2.725830078,-2.896820068,1,0,0,rectangle,-2.725830078,-2.896820068,1,0,0,-2.725830078,-2.896820068,1,0,0,0,118,118,134,1,,,,,,,,
,,,,,,,,,,,,,FF,,,,,,,,0.6665,,,,,,,,,,,,,,,,,,,,,,610350d9b4852b4007ab7f87,61036a14272321e9cb645232,2021-07-29_21h55.54.500,Simcolourproject_2stim_asymm_v5,2020.2.10,MacIntel,60,61025ae37ef11b136ea224fe,,,,,,,,,1805,34.43682861,74.27374268,1,0,0,response1disk,,7,-2.203796387,3.05267334,1,0,0,rectangle,-2.203796387,3.05267334,1,0,0,-2.203796387,3.05267334,1,0,0,0,119,119,81,1,,,,,,,,
,,,,,,,,,,,,,FF,,,,,,,,1.7177,,,,,,,,,,,,,,,,,,,,,,610350d9b4852b4007ab7f87,61036a14272321e9cb645232,2021-07-29_21h55.54.500,Simcolourproject_2stim_asymm_v5,2020.2.10,MacIntel,60,61025ae37ef11b136ea224fe,,,,,,,,,279,-70.9675293,31.06231689,1,0,0,response7disk,,1,-7.235656738,8.887512207,1,0,0,rectangle,-7.235656738,8.887512207,1,0,0,-7.235656738,8.887512207,1,0,0,0,120,120,132,1,,,,,,,,
,,,,,,,,,,,,,FF,,,,,,,,1.5506,,,,,,,,,,,,,,,,,,,,,,610350d9b4852b4007ab7f87,61036a14272321e9cb645232,2021-07-29_21h55.54.500,Simcolourproject_2stim_asymm_v5,2020.2.10,MacIntel,60,61025ae37ef11b136ea224fe,,,,,,,,,3085,25.10058594,57.5196228,1,0,0,response1disk,,7,-11.1138916,-1.279785156,1,0,0,rectangle,-11.1138916,-1.279785156,1,0,0,-11.1138916,-1.279785156,1,0,0,0,121,121,112,1,,,,,,,,
,,,,,,,,,,,,,FF,,,,,,,,1.4155,,,,,,,,,,,,,,,,,,,,,,610350d9b4852b4007ab7f87,61036a14272321e9cb645232,2021-07-29_21h55.54.500,Simcolourproject_2stim_asymm_v5,2020.2.10,MacIntel,60,61025ae37ef11b136ea224fe,,,,,,,,,2824,-70.81005859,-34.28222656,1,0,0,response5disk,,2,-8.710266113,-12.07806396,1,0,0,rectangle,-8.710266113,-12.07806396,1,0,0,-8.710266113,-12.07806396,1,0,0,0,122,122,124,1,,,,,,,,
,,,,,,,,,,,,,FF,,,,,,,,0.7835,,,,,,,,,,,,,,,,,,,,,,610350d9b4852b4007ab7f87,61036a14272321e9cb645232,2021-07-29_21h55.54.500,Simcolourproject_2stim_asymm_v5,2020.2.10,MacIntel,60,61025ae37ef11b136ea224fe,,,,,,,,,788,26.95703125,63.54248047,1,0,0,response1disk,,7,-11.48681641,-14.36126709,1,0,0,rectangle,-11.48681641,-14.36126709,1,0,0,-11.48681641,-14.36126709,1,0,0,0,123,123,34,1,,,,,,,,
,,,,,,,,,,,,,FF,,,,,,,,1.8664,,,,,,,,,,,,,,,,,,,,,,610350d9b4852b4007ab7f87,61036a14272321e9cb645232,2021-07-29_21h55.54.500,Simcolourproject_2stim_asymm_v5,2020.2.10,MacIntel,60,61025ae37ef11b136ea224fe,,,,,,,,,66,67.17932129,-41.14511108,1,0,0,response3disk,,5,4.637329102,-4.8046875,1,0,0,rectangle,4.637329102,-4.8046875,1,0,0,4.637329102,-4.8046875,1,0,0,0,124,124,11,1,,,,,,,,
,,,,,,,,,,,,,FF,,,,,,,,0.6324,,,,,,,,,,,,,,,,,,,,,,610350d9b4852b4007ab7f87,61036a14272321e9cb645232,2021-07-29_21h55.54.500,Simcolourproject_2stim_asymm_v5,2020.2.10,MacIntel,60,61025ae37ef11b136ea224fe,,,,,,,,,416,46.11340332,91.83758545,1,0,0,response1disk,,7,-6.871337891,-2.26763916,1,0,0,rectangle,-6.871337891,-2.26763916,1,0,0,-6.871337891,-2.26763916,1,0,0,0,125,125,83,1,,,,,,,,
,,,,,,,,,,,,,FF,,,,,,,,0.5664,,,,,,,,,,,,,,,,,,,,,,610350d9b4852b4007ab7f87,61036a14272321e9cb645232,2021-07-29_21h55.54.500,Simcolourproject_2stim_asymm_v5,2020.2.10,MacIntel,60,61025ae37ef11b136ea224fe,,,,,,,,,841,35.94128418,60.0980835,1,0,0,response1disk,,7,4.520874023,3.079650879,1,0,0,rectangle,34.52319336,-78.74707031,1,0,0,-0.230651855,-16.48995972,1,0,0,0,126,126,90,1,,response3disk_3,TRUE,4,4,"[274,274,59,198,9,33,195,128,290,85,73,143,102,65,231,127,68,65,221,200]",2.3334,rectangle
,,,,,,,,,,,,,FF,,,,,,,,1.5656,,,,,,,,,,,,,,,,,,,,,,610350d9b4852b4007ab7f87,61036a14272321e9cb645232,2021-07-29_21h55.54.500,Simcolourproject_2stim_asymm_v5,2020.2.10,MacIntel,60,61025ae37ef11b136ea224fe,,,,,,,,,3331,-61.8762207,38.53359985,1,0,0,response7disk,,1,2.696350098,6.542449951,1,0,0,rectangle,54.08184814,72.27325439,1,0,0,9.969970703,-1.772399902,1,0,0,0,127,127,12,1,,response1disk_3,TRUE,7,7,"[274,274,59,198,9,33,195,128,290,85,73,143,102,65,231,127,68,65,221,200]",1.4839,rectangle
,,,,,,,,,,,,,FF,,,,,,,,1.1834,,,,,,,,,,,,,,,,,,,,,,610350d9b4852b4007ab7f87,61036a14272321e9cb645232,2021-07-29_21h55.54.500,Simcolourproject_2stim_asymm_v5,2020.2.10,MacIntel,60,61025ae37ef11b136ea224fe,,,,,,,,,2661,-55.49121094,23.60083008,1,0,0,response7disk,,1,-1.727905273,4.25012207,1,0,0,rectangle,-1.727905273,4.25012207,1,0,0,-1.727905273,4.25012207,1,0,0,0,128,128,17,1,,,,,,,,
,,,,,,,,,,,,,FF,,,,,,,,0.9166,,,,,,,,,,,,,,,,,,,,,,610350d9b4852b4007ab7f87,61036a14272321e9cb645232,2021-07-29_21h55.54.500,Simcolourproject_2stim_asymm_v5,2020.2.10,MacIntel,60,61025ae37ef11b136ea224fe,,,,,,,,,1739,32.61224365,69.51330566,1,0,0,response1disk,,7,-6.295959473,3.497558594,1,0,0,rectangle,-6.295959473,3.497558594,1,0,0,-6.295959473,3.497558594,1,0,0,0,129,129,15,1,,,,,,,,
,,,,,,,,,,,,,FF,,,,,,,,2.5,,,,,,,,,,,,,,,,,,,,,,610350d9b4852b4007ab7f87,61036a14272321e9cb645232,2021-07-29_21h55.54.500,Simcolourproject_2stim_asymm_v5,2020.2.10,MacIntel,60,61025ae37ef11b136ea224fe,,,,,,,,,2152,-74.7520752,-40.78973389,1,0,0,response5disk,,2,3.737182617,-0.222351074,1,0,0,rectangle,3.737182617,-0.222351074,1,0,0,3.737182617,-0.222351074,1,0,0,0,130,130,153,1,,,,,,,,
,,,,,,,,,,,,,FF,,,,,,,,1.7991,,,,,,,,,,,,,,,,,,,,,,610350d9b4852b4007ab7f87,61036a14272321e9cb645232,2021-07-29_21h55.54.500,Simcolourproject_2stim_asymm_v5,2020.2.10,MacIntel,60,61025ae37ef11b136ea224fe,,,,,,,,,2335,26.39758301,66.87823486,1,0,0,response1disk,,7,3.307800293,-1.088043213,1,0,0,rectangle,3.307800293,-1.088043213,1,0,0,3.307800293,-1.088043213,1,0,0,0,131,131,104,1,,,,,,,,
,,,,,,,,,,,,,FF,,,,,,,,3.9827,,,,,,,,,,,,,,,,,,,,,,610350d9b4852b4007ab7f87,61036a14272321e9cb645232,2021-07-29_21h55.54.500,Simcolourproject_2stim_asymm_v5,2020.2.10,MacIntel,60,61025ae37ef11b136ea224fe,,,,,,,,,2611,50.81860352,94.581604,1,0,0,response1disk,,7,3.35723877,8.762695313,1,0,0,rectangle,3.35723877,8.762695313,1,0,0,3.35723877,8.762695313,1,0,0,0,132,132,9,1,,,,,,,,
,,,,,,,,,,,,,FF,,,,,,,,0.7348,,,,,,,,,,,,,,,,,,,,,,610350d9b4852b4007ab7f87,61036a14272321e9cb645232,2021-07-29_21h55.54.500,Simcolourproject_2stim_asymm_v5,2020.2.10,MacIntel,60,61025ae37ef11b136ea224fe,,,,,,,,,3486,28.40405273,68.36758423,1,0,0,response1disk,,7,-3.077270508,-1.581176758,1,0,0,rectangle,-3.077270508,-1.581176758,1,0,0,-3.077270508,-1.581176758,1,0,0,0,133,133,44,1,,,,,,,,
,,,,,,,,,,,,,FF,,,,,,,,0.5506,,,,,,,,,,,,,,,,,,,,,,610350d9b4852b4007ab7f87,61036a14272321e9cb645232,2021-07-29_21h55.54.500,Simcolourproject_2stim_asymm_v5,2020.2.10,MacIntel,60,61025ae37ef11b136ea224fe,,,,,,,,,3730,35.2678833,64.30795288,1,0,0,response1disk,,7,-1.032348633,2.124206543,1,0,0,rectangle,-1.032348633,2.124206543,1,0,0,-1.032348633,2.124206543,1,0,0,0,134,134,35,1,,,,,,,,
,,,,,,,,,,,,,FF,,,,,,,,0.5167,,,,,,,,,,,,,,,,,,,,,,610350d9b4852b4007ab7f87,61036a14272321e9cb645232,2021-07-29_21h55.54.500,Simcolourproject_2stim_asymm_v5,2020.2.10,MacIntel,60,61025ae37ef11b136ea224fe,,,,,,,,,2075,20.95214844,57.62060547,1,0,0,response1disk,,7,-8.076721191,0.690002441,1,0,0,rectangle,-8.076721191,0.690002441,1,0,0,-8.076721191,0.690002441,1,0,0,0,135,135,149,1,,,,,,,,
,,,,,,,,,,,,,FF,,,,,,,,1.5999,,,,,,,,,,,,,,,,,,,,,,610350d9b4852b4007ab7f87,61036a14272321e9cb645232,2021-07-29_21h55.54.500,Simcolourproject_2stim_asymm_v5,2020.2.10,MacIntel,60,61025ae37ef11b136ea224fe,,,,,,,,,163,60.07800293,-25.84890747,1,0,0,response3disk,,5,-5.846191406,-9.74407959,1,0,0,rectangle,-5.846191406,-9.74407959,1,0,0,-5.846191406,-9.74407959,1,0,0,0,136,136,76,1,,,,,,,,
,,,,,,,,,,,,,FF,,,,,,,,1.1332,,,,,,,,,,,,,,,,,,,,,,610350d9b4852b4007ab7f87,61036a14272321e9cb645232,2021-07-29_21h55.54.500,Simcolourproject_2stim_asymm_v5,2020.2.10,MacIntel,60,61025ae37ef11b136ea224fe,,,,,,,,,4148,73.70605469,-44.35797119,1,0,0,response3disk,,5,3.099304199,-13.24874878,1,0,0,rectangle,3.099304199,-13.24874878,1,0,0,3.099304199,-13.24874878,1,0,0,0,137,137,138,1,,,,,,,,
,,,,,,,,,,,,,FF,,,,,,,,0.7001,,,,,,,,,,,,,,,,,,,,,,610350d9b4852b4007ab7f87,61036a14272321e9cb645232,2021-07-29_21h55.54.500,Simcolourproject_2stim_asymm_v5,2020.2.10,MacIntel,60,61025ae37ef11b136ea224fe,,,,,,,,,310,41.05371094,81.31567383,1,0,0,response1disk,,7,-1.653991699,5.077911377,1,0,0,rectangle,-1.653991699,5.077911377,1,0,0,-1.653991699,5.077911377,1,0,0,0,138,138,128,1,,,,,,,,
,,,,,,,,,,,,,FF,,,,,,,,0.8003,,,,,,,,,,,,,,,,,,,,,,610350d9b4852b4007ab7f87,61036a14272321e9cb645232,2021-07-29_21h55.54.500,Simcolourproject_2stim_asymm_v5,2020.2.10,MacIntel,60,61025ae37ef11b136ea224fe,,,,,,,,,3692,33.04284668,64.65002441,1,0,0,response1disk,,7,6.139587402,2.288818359,1,0,0,rectangle,6.139587402,2.288818359,1,0,0,6.139587402,2.288818359,1,0,0,0,139,139,122,1,,,,,,,,
,,,,,,,,,,,,,FF,,,,,,,,0.5667,,,,,,,,,,,,,,,,,,,,,,610350d9b4852b4007ab7f87,61036a14272321e9cb645232,2021-07-29_21h55.54.500,Simcolourproject_2stim_asymm_v5,2020.2.10,MacIntel,60,61025ae37ef11b136ea224fe,,,,,,,,,2748,34.04406738,67.41870117,1,0,0,response1disk,,7,-4.79864502,-4.339385986,1,0,0,rectangle,-4.79864502,-4.339385986,1,0,0,-4.79864502,-4.339385986,1,0,0,0,140,140,16,1,,,,,,,,
,,,,,,,,,,,,,FF,,,,,,,,0.55,,,,,,,,,,,,,,,,,,,,,,610350d9b4852b4007ab7f87,61036a14272321e9cb645232,2021-07-29_21h55.54.500,Simcolourproject_2stim_asymm_v5,2020.2.10,MacIntel,60,61025ae37ef11b136ea224fe,,,,,,,,,136,33.40716553,64.91275024,1,0,0,response1disk,,7,-0.875854492,4.655456543,1,0,0,rectangle,-0.875854492,4.655456543,1,0,0,-0.875854492,4.655456543,1,0,0,0,141,141,60,1,,,,,,,,
,,,,,,,,,,,,,FF,,,,,,,,1.0834,,,,,,,,,,,,,,,,,,,,,,610350d9b4852b4007ab7f87,61036a14272321e9cb645232,2021-07-29_21h55.54.500,Simcolourproject_2stim_asymm_v5,2020.2.10,MacIntel,60,61025ae37ef11b136ea224fe,,,,,,,,,2172,-47.46496582,-55.09951782,1,0,0,response5disk,,3,-5.881286621,-3.917480469,1,0,0,rectangle,-45.94061279,76.43832397,1,0,0,-16.6237793,-4.963562012,1,0,0,0,142,142,42,1,,response7disk_3,TRUE,0,0,"[274,274,59,198,9,33,195,128,290,85,73,143,102,65,231,127,68,65,221,200]",1.6004,rectangle
,,,,,,,,,,,,,FF,,,,,,,,0.7497,,,,,,,,,,,,,,,,,,,,,,610350d9b4852b4007ab7f87,61036a14272321e9cb645232,2021-07-29_21h55.54.500,Simcolourproject_2stim_asymm_v5,2020.2.10,MacIntel,60,61025ae37ef11b136ea224fe,,,,,,,,,2857,28.2387085,66.26611328,1,0,0,response1disk,,7,-3.690917969,-2.459350586,1,0,0,rectangle,-3.690917969,-2.459350586,1,0,0,-3.690917969,-2.459350586,1,0,0,0,143,143,23,1,,,,,,,,
,,,,,,,,,,,,,FF,,,,,,,,1.4001,,,,,,,,,,,,,,,,,,,,,,610350d9b4852b4007ab7f87,61036a14272321e9cb645232,2021-07-29_21h55.54.500,Simcolourproject_2stim_asymm_v5,2020.2.10,MacIntel,60,61025ae37ef11b136ea224fe,,,,,,,,,3761,-25.52453613,-64.24395752,1,0,0,response5disk,,3,5.124938965,-3.657928467,1,0,0,rectangle,5.124938965,-3.657928467,1,0,0,5.124938965,-3.657928467,1,0,0,0,144,144,146,1,,,,,,,,
,,,,,,,,,,,,,FF,,,,,,,,1.0838,,,,,,,,,,,,,,,,,,,,,,610350d9b4852b4007ab7f87,61036a14272321e9cb645232,2021-07-29_21h55.54.500,Simcolourproject_2stim_asymm_v5,2020.2.10,MacIntel,60,61025ae37ef11b136ea224fe,,,,,,,,,1063,-35.59130859,-62.65466309,1,0,0,response5disk,,3,4.092956543,2.087402344,1,0,0,rectangle,4.092956543,2.087402344,1,0,0,4.092956543,2.087402344,1,0,0,0,145,145,6,1,,,,,,,,
,,,,,,,,,,,,,FF,,,,,,,,1.0166,,,,,,,,,,,,,,,,,,,,,,610350d9b4852b4007ab7f87,61036a14272321e9cb645232,2021-07-29_21h55.54.500,Simcolourproject_2stim_asymm_v5,2020.2.10,MacIntel,60,61025ae37ef11b136ea224fe,,,,,,,,,3887,44.1060791,81.09942627,1,0,0,response1disk,,7,-3.601623535,3.755218506,1,0,0,rectangle,-3.601623535,3.755218506,1,0,0,-3.601623535,3.755218506,1,0,0,0,146,146,131,1,,,,,,,,
,,,,,,,,,,,,,FF,,,,,,,,1.1651,,,,,,,,,,,,,,,,,,,,,,610350d9b4852b4007ab7f87,61036a14272321e9cb645232,2021-07-29_21h55.54.500,Simcolourproject_2stim_asymm_v5,2020.2.10,MacIntel,60,61025ae37ef11b136ea224fe,,,,,,,,,263,-32.16723633,-48.97735596,1,0,0,response5disk,,3,-1.268432617,1.174255371,1,0,0,rectangle,-1.268432617,1.174255371,1,0,0,-1.268432617,1.174255371,1,0,0,0,147,147,141,1,,,,,,,,
,,,,,,,,,,,,,FF,,,,,,,,0.8671,,,,,,,,,,,,,,,,,,,,,,610350d9b4852b4007ab7f87,61036a14272321e9cb645232,2021-07-29_21h55.54.500,Simcolourproject_2stim_asymm_v5,2020.2.10,MacIntel,60,61025ae37ef11b136ea224fe,,,,,,,,,285,-39.15313721,-64.08081055,1,0,0,response5disk,,3,-4.083374023,-4.89956665,1,0,0,rectangle,-4.083374023,-4.89956665,1,0,0,-4.083374023,-4.89956665,1,0,0,0,148,148,89,1,,,,,,,,
,,,,,,,,,,,,,FF,,,,,,,,0.9162,,,,,,,,,,,,,,,,,,,,,,610350d9b4852b4007ab7f87,61036a14272321e9cb645232,2021-07-29_21h55.54.500,Simcolourproject_2stim_asymm_v5,2020.2.10,MacIntel,60,61025ae37ef11b136ea224fe,,,,,,,,,517,40.52130127,79.97753906,1,0,0,response1disk,,7,2.037597656,-1.40802002,1,0,0,rectangle,2.037597656,-1.40802002,1,0,0,2.037597656,-1.40802002,1,0,0,0,149,149,48,1,,,,,,,,
,,,,,,,,,,,,,FF,,,,,,,,1.5335,,,,,,,,,,,,,,,,,,,,,,610350d9b4852b4007ab7f87,61036a14272321e9cb645232,2021-07-29_21h55.54.500,Simcolourproject_2stim_asymm_v5,2020.2.10,MacIntel,60,61025ae37ef11b136ea224fe,,,,,,,,,3100,-66.37475586,30.70587158,1,0,0,response7disk,,1,-18.98925781,3.170166016,1,0,0,rectangle,-18.98925781,3.170166016,1,0,0,-18.98925781,3.170166016,1,0,0,0,150,150,130,1,,,,,,,,
,,,,,,,,,,,,,FF,,,,,,,,1.1336,,,,,,,,,,,,,,,,,,,,,,610350d9b4852b4007ab7f87,61036a14272321e9cb645232,2021-07-29_21h55.54.500,Simcolourproject_2stim_asymm_v5,2020.2.10,MacIntel,60,61025ae37ef11b136ea224fe,,,,,,,,,2054,-32.1418457,-57.19644165,1,0,0,response5disk,,3,-11.2947998,-10.19940186,1,0,0,rectangle,-11.2947998,-10.19940186,1,0,0,-11.2947998,-10.19940186,1,0,0,0,151,151,109,1,,,,,,,,
,,,,,,,,,,,,,FF,,,,,,,,1.101,,,,,,,,,,,,,,,,,,,,,,610350d9b4852b4007ab7f87,61036a14272321e9cb645232,2021-07-29_21h55.54.500,Simcolourproject_2stim_asymm_v5,2020.2.10,MacIntel,60,61025ae37ef11b136ea224fe,,,,,,,,,3142,-40.2401123,-63.82275391,1,0,0,response5disk,,3,-10.88555908,-12.82385254,1,0,0,rectangle,-10.88555908,-12.82385254,1,0,0,-10.88555908,-12.82385254,1,0,0,0,152,152,10,1,,,,,,,,
,,,,,,,,,,,,,FF,,,,,,,,1.4666,,,,,,,,,,,,,,,,,,,,,,610350d9b4852b4007ab7f87,61036a14272321e9cb645232,2021-07-29_21h55.54.500,Simcolourproject_2stim_asymm_v5,2020.2.10,MacIntel,60,61025ae37ef11b136ea224fe,,,,,,,,,1883,64.96923828,-33.05770874,1,0,0,response3disk,,5,-5.465332031,-0.009857178,1,0,0,rectangle,-5.465332031,-0.009857178,1,0,0,-5.465332031,-0.009857178,1,0,0,0,153,153,57,1,,,,,,,,
,,,,,,,,,,,,,FF,,,,,,,,0.9662,,,,,,,,,,,,,,,,,,,,,,610350d9b4852b4007ab7f87,61036a14272321e9cb645232,2021-07-29_21h55.54.500,Simcolourproject_2stim_asymm_v5,2020.2.10,MacIntel,60,61025ae37ef11b136ea224fe,,,,,,,,,2060,39.78381348,53.36416626,1,0,0,response1disk,,7,-6.318115234,-2.24206543,1,0,0,rectangle,-6.318115234,-2.24206543,1,0,0,-6.318115234,-2.24206543,1,0,0,0,154,154,129,1,,,,,,,,
,,,,,,,,,,,,,FF,,,,,,,,1.0161,,,,,,,,,,,,,,,,,,,,,,610350d9b4852b4007ab7f87,61036a14272321e9cb645232,2021-07-29_21h55.54.500,Simcolourproject_2stim_asymm_v5,2020.2.10,MacIntel,60,61025ae37ef11b136ea224fe,,,,,,,,,1697,55.51269531,33.51623535,1,0,0,response1disk,,6,3.144348145,10.56915283,1,0,0,rectangle,3.144348145,10.56915283,1,0,0,3.144348145,10.56915283,1,0,0,0,155,155,28,1,,,,,,,,
,,,,,,,,,,,,,FF,,,,,,,,0.8352,,,,,,,,,,,,,,,,,,,,,,610350d9b4852b4007ab7f87,61036a14272321e9cb645232,2021-07-29_21h55.54.500,Simcolourproject_2stim_asymm_v5,2020.2.10,MacIntel,60,61025ae37ef11b136ea224fe,,,,,,,,,672,31.734375,73.87231445,1,0,0,response1disk,,7,-4.245544434,3.239349365,1,0,0,rectangle,-4.245544434,3.239349365,1,0,0,-4.245544434,3.239349365,1,0,0,0,156,156,98,1,,,,,,,,
,,,,,,,,,,,,,FF,,,,,,,,1.1657,,,,,,,,,,,,,,,,,,,,,,610350d9b4852b4007ab7f87,61036a14272321e9cb645232,2021-07-29_21h55.54.500,Simcolourproject_2stim_asymm_v5,2020.2.10,MacIntel,60,61025ae37ef11b136ea224fe,,,,,,,,,3189,-70.36694336,-35.08892822,1,0,0,response5disk,,2,4.317687988,6.389221191,1,0,0,rectangle,4.317687988,6.389221191,1,0,0,4.317687988,6.389221191,1,0,0,0,157,157,159,1,,,,,,,,
,,,,,,,,,,,,,FF,,,,,,,,0.8511,,,,,,,,,,,,,,,,,,,,,,610350d9b4852b4007ab7f87,61036a14272321e9cb645232,2021-07-29_21h55.54.500,Simcolourproject_2stim_asymm_v5,2020.2.10,MacIntel,60,61025ae37ef11b136ea224fe,,,,,,,,,3381,-28.29846191,71.11108398,1,0,0,response7disk,,0,-7.662719727,8.958587646,1,0,0,rectangle,-7.662719727,8.958587646,1,0,0,-7.662719727,8.958587646,1,0,0,0,158,158,58,1,,,,,,,,
,,,,,,,,,,,,,FF,,,,,,,,1.484,,,,,,,,,,,,,,,,,,,,,,610350d9b4852b4007ab7f87,61036a14272321e9cb645232,2021-07-29_21h55.54.500,Simcolourproject_2stim_asymm_v5,2020.2.10,MacIntel,60,61025ae37ef11b136ea224fe,,,,,,,,,3873,-77.51715088,-32.42642212,1,0,0,response5disk,,2,-4.552856445,2.734008789,1,0,0,rectangle,-4.552856445,2.734008789,1,0,0,-4.552856445,2.734008789,1,0,0,0,159,159,7,1,,,,,,,,
,,,,,,,,,,,,,FF,,,,,,,,0.6998,,,,,,,,,,,,,,,,,,,,,,610350d9b4852b4007ab7f87,61036a14272321e9cb645232,2021-07-29_21h55.54.500,Simcolourproject_2stim_asymm_v5,2020.2.10,MacIntel,60,61025ae37ef11b136ea224fe,,,,,,,,,3233,30.16876221,66.55160522,1,0,0,response1disk,,7,-4.728515625,-1.634033203,1,0,0,rectangle,-4.728515625,-1.634033203,1,0,0,-4.728515625,-1.634033203,1,0,0,1,0,160,105,1,,,,,,,,
,,,,,,,,,,,,,FF,,,,,,,,0.6159,,,,,,,,,,,,,,,,,,,,,,610350d9b4852b4007ab7f87,61036a14272321e9cb645232,2021-07-29_21h55.54.500,Simcolourproject_2stim_asymm_v5,2020.2.10,MacIntel,60,61025ae37ef11b136ea224fe,,,,,,,,,3272,33.86938477,55.49484253,1,0,0,response1disk,,7,-0.415039063,-5.162536621,1,0,0,rectangle,-0.415039063,-5.162536621,1,0,0,-0.415039063,-5.162536621,1,0,0,1,1,161,97,1,,,,,,,,
,,,,,,,,,,,,,FF,,,,,,,,0.7507,,,,,,,,,,,,,,,,,,,,,,610350d9b4852b4007ab7f87,61036a14272321e9cb645232,2021-07-29_21h55.54.500,Simcolourproject_2stim_asymm_v5,2020.2.10,MacIntel,60,61025ae37ef11b136ea224fe,,,,,,,,,2353,25.99035645,77.00396729,1,0,0,response1disk,,7,-13.91003418,-16.55114746,1,0,0,rectangle,-13.91003418,-16.55114746,1,0,0,-13.91003418,-16.55114746,1,0,0,1,2,162,82,1,,,,,,,,
,,,,,,,,,,,,,FF,,,,,,,,0.5517,,,,,,,,,,,,,,,,,,,,,,610350d9b4852b4007ab7f87,61036a14272321e9cb645232,2021-07-29_21h55.54.500,Simcolourproject_2stim_asymm_v5,2020.2.10,MacIntel,60,61025ae37ef11b136ea224fe,,,,,,,,,2119,56.32775879,68.40686035,1,0,0,response1disk,,7,13.05749512,-5.014709473,1,0,0,rectangle,13.05749512,-5.014709473,1,0,0,13.05749512,-5.014709473,1,0,0,1,3,163,2,1,,,,,,,,
,,,,,,,,,,,,,FF,,,,,,,,0.5659,,,,,,,,,,,,,,,,,,,,,,610350d9b4852b4007ab7f87,61036a14272321e9cb645232,2021-07-29_21h55.54.500,Simcolourproject_2stim_asymm_v5,2020.2.10,MacIntel,60,61025ae37ef11b136ea224fe,,,,,,,,,1574,31.34405518,67.85418701,1,0,0,response1disk,,7,-2.81451416,5.180236816,1,0,0,rectangle,-2.81451416,5.180236816,1,0,0,-2.81451416,5.180236816,1,0,0,1,4,164,84,1,,,,,,,,
,,,,,,,,,,,,,FF,,,,,,,,0.9829,,,,,,,,,,,,,,,,,,,,,,610350d9b4852b4007ab7f87,61036a14272321e9cb645232,2021-07-29_21h55.54.500,Simcolourproject_2stim_asymm_v5,2020.2.10,MacIntel,60,61025ae37ef11b136ea224fe,,,,,,,,,2131,36.90161133,65.9854126,1,0,0,response1disk,,7,3.522644043,0.756225586,1,0,0,rectangle,3.522644043,0.756225586,1,0,0,3.522644043,0.756225586,1,0,0,1,5,165,36,1,,,,,,,,
,,,,,,,,,,,,,FF,,,,,,,,0.4676,,,,,,,,,,,,,,,,,,,,,,610350d9b4852b4007ab7f87,61036a14272321e9cb645232,2021-07-29_21h55.54.500,Simcolourproject_2stim_asymm_v5,2020.2.10,MacIntel,60,61025ae37ef11b136ea224fe,,,,,,,,,2256,42.59020996,66.68505859,1,0,0,response1disk,,7,-0.499389648,6.682373047,1,0,0,rectangle,-0.499389648,6.682373047,1,0,0,-0.499389648,6.682373047,1,0,0,1,6,166,88,1,,,,,,,,
,,,,,,,,,,,,,FF,,,,,,,,0.6662,,,,,,,,,,,,,,,,,,,,,,610350d9b4852b4007ab7f87,61036a14272321e9cb645232,2021-07-29_21h55.54.500,Simcolourproject_2stim_asymm_v5,2020.2.10,MacIntel,60,61025ae37ef11b136ea224fe,,,,,,,,,620,-27.4074707,78.2361145,1,0,0,response7disk,,0,-7.461242676,12.82720947,1,0,0,rectangle,-7.461242676,12.82720947,1,0,0,-7.461242676,12.82720947,1,0,0,1,7,167,67,1,,,,,,,,
,,,,,,,,,,,,,FF,,,,,,,,0.5506,,,,,,,,,,,,,,,,,,,,,,610350d9b4852b4007ab7f87,61036a14272321e9cb645232,2021-07-29_21h55.54.500,Simcolourproject_2stim_asymm_v5,2020.2.10,MacIntel,60,61025ae37ef11b136ea224fe,,,,,,,,,184,33.66125488,76.17245483,1,0,0,response1disk,,7,0.265930176,3.857910156,1,0,0,rectangle,0.265930176,3.857910156,1,0,0,0.265930176,3.857910156,1,0,0,1,8,168,154,1,,,,,,,,
,,,,,,,,,,,,,FF,,,,,,,,0.5174,,,,,,,,,,,,,,,,,,,,,,610350d9b4852b4007ab7f87,61036a14272321e9cb645232,2021-07-29_21h55.54.500,Simcolourproject_2stim_asymm_v5,2020.2.10,MacIntel,60,61025ae37ef11b136ea224fe,,,,,,,,,98,27.70166016,58.74084473,1,0,0,response1disk,,7,-3.287719727,-14.19128418,1,0,0,rectangle,-3.287719727,-14.19128418,1,0,0,-3.287719727,-14.19128418,1,0,0,1,9,169,136,1,,,,,,,,
,,,,,,,,,,,,,FF,,,,,,,,1.1168,,,,,,,,,,,,,,,,,,,,,,610350d9b4852b4007ab7f87,61036a14272321e9cb645232,2021-07-29_21h55.54.500,Simcolourproject_2stim_asymm_v5,2020.2.10,MacIntel,60,61025ae37ef11b136ea224fe,,,,,,,,,2593,-80.63354492,22.23529053,1,0,0,response7disk,,1,-10.22241211,5.059692383,1,0,0,rectangle,-10.22241211,5.059692383,1,0,0,-10.22241211,5.059692383,1,0,0,1,10,170,66,1,,,,,,,,
,,,,,,,,,,,,,FF,,,,,,,,0.5008,,,,,,,,,,,,,,,,,,,,,,610350d9b4852b4007ab7f87,61036a14272321e9cb645232,2021-07-29_21h55.54.500,Simcolourproject_2stim_asymm_v5,2020.2.10,MacIntel,60,61025ae37ef11b136ea224fe,,,,,,,,,3874,44.70098877,80.55303955,1,0,0,response1disk,,7,2.414123535,5.824890137,1,0,0,rectangle,2.414123535,5.824890137,1,0,0,2.414123535,5.824890137,1,0,0,1,11,171,65,1,,,,,,,,
,,,,,,,,,,,,,FF,,,,,,,,0.6669,,,,,,,,,,,,,,,,,,,,,,610350d9b4852b4007ab7f87,61036a14272321e9cb645232,2021-07-29_21h55.54.500,Simcolourproject_2stim_asymm_v5,2020.2.10,MacIntel,60,61025ae37ef11b136ea224fe,,,,,,,,,2697,34.25463867,65.03598022,1,0,0,response1disk,,7,5.653015137,5.705810547,1,0,0,rectangle,5.653015137,5.705810547,1,0,0,5.653015137,5.705810547,1,0,0,1,12,172,132,1,,,,,,,,
,,,,,,,,,,,,,FF,,,,,,,,0.5496,,,,,,,,,,,,,,,,,,,,,,610350d9b4852b4007ab7f87,61036a14272321e9cb645232,2021-07-29_21h55.54.500,Simcolourproject_2stim_asymm_v5,2020.2.10,MacIntel,60,61025ae37ef11b136ea224fe,,,,,,,,,816,36.87005615,72.37615967,1,0,0,response1disk,,7,9.412536621,7.731262207,1,0,0,rectangle,9.412536621,7.731262207,1,0,0,9.412536621,7.731262207,1,0,0,1,13,173,138,1,,,,,,,,
,,,,,,,,,,,,,FF,,,,,,,,0.4829,,,,,,,,,,,,,,,,,,,,,,610350d9b4852b4007ab7f87,61036a14272321e9cb645232,2021-07-29_21h55.54.500,Simcolourproject_2stim_asymm_v5,2020.2.10,MacIntel,60,61025ae37ef11b136ea224fe,,,,,,,,,1165,44.7935791,56.81384277,1,0,0,response1disk,,7,5.57598877,-5.874572754,1,0,0,rectangle,5.57598877,-5.874572754,1,0,0,5.57598877,-5.874572754,1,0,0,1,14,174,101,1,,,,,,,,
,,,,,,,,,,,,,FF,,,,,,,,2.3172,,,,,,,,,,,,,,,,,,,,,,610350d9b4852b4007ab7f87,61036a14272321e9cb645232,2021-07-29_21h55.54.500,Simcolourproject_2stim_asymm_v5,2020.2.10,MacIntel,60,61025ae37ef11b136ea224fe,,,,,,,,,4165,80.64501953,-40.0032959,1,0,0,response3disk,,5,-0.582397461,-7.300354004,1,0,0,rectangle,-0.582397461,-7.300354004,1,0,0,-0.582397461,-7.300354004,1,0,0,1,15,175,34,1,,,,,,,,
,,,,,,,,,,,,,FF,,,,,,,,1.1832,,,,,,,,,,,,,,,,,,,,,,610350d9b4852b4007ab7f87,61036a14272321e9cb645232,2021-07-29_21h55.54.500,Simcolourproject_2stim_asymm_v5,2020.2.10,MacIntel,60,61025ae37ef11b136ea224fe,,,,,,,,,1303,39.33557129,-60.34075928,1,0,0,response3disk,,4,6.897094727,-2.180053711,1,0,0,rectangle,6.897094727,-2.180053711,1,0,0,6.897094727,-2.180053711,1,0,0,1,16,176,114,1,,,,,,,,
,,,,,,,,,,,,,FF,,,,,,,,0.8843,,,,,,,,,,,,,,,,,,,,,,610350d9b4852b4007ab7f87,61036a14272321e9cb645232,2021-07-29_21h55.54.500,Simcolourproject_2stim_asymm_v5,2020.2.10,MacIntel,60,61025ae37ef11b136ea224fe,,,,,,,,,1757,21.90087891,-51.29379272,1,0,0,response3disk,,4,-10.48278809,-8.758544922,1,0,0,rectangle,-10.48278809,-8.758544922,1,0,0,-10.48278809,-8.758544922,1,0,0,1,17,177,118,1,,,,,,,,
,,,,,,,,,,,,,FF,,,,,,,,0.9003,,,,,,,,,,,,,,,,,,,,,,610350d9b4852b4007ab7f87,61036a14272321e9cb645232,2021-07-29_21h55.54.500,Simcolourproject_2stim_asymm_v5,2020.2.10,MacIntel,60,61025ae37ef11b136ea224fe,,,,,,,,,3095,39.44702148,74.08612061,1,0,0,response1disk,,7,-0.355712891,-5.797302246,1,0,0,rectangle,-0.355712891,-5.797302246,1,0,0,-0.355712891,-5.797302246,1,0,0,1,18,178,42,1,,,,,,,,
,,,,,,,,,,,,,FF,,,,,,,,1.1008,,,,,,,,,,,,,,,,,,,,,,610350d9b4852b4007ab7f87,61036a14272321e9cb645232,2021-07-29_21h55.54.500,Simcolourproject_2stim_asymm_v5,2020.2.10,MacIntel,60,61025ae37ef11b136ea224fe,,,,,,,,,892,30.22094727,-43.29248047,1,0,0,response3disk,,4,0.959106445,-1.262512207,1,0,0,rectangle,0.959106445,-1.262512207,1,0,0,0.959106445,-1.262512207,1,0,0,1,19,179,89,1,,,,,,,,
,,,,,,,,,,,,,FF,,,,,,,,0.7655,,,,,,,,,,,,,,,,,,,,,,610350d9b4852b4007ab7f87,61036a14272321e9cb645232,2021-07-29_21h55.54.500,Simcolourproject_2stim_asymm_v5,2020.2.10,MacIntel,60,61025ae37ef11b136ea224fe,,,,,,,,,3888,43.39459229,92.59143066,1,0,0,response1disk,,7,8.803649902,5.962341309,1,0,0,rectangle,8.803649902,5.962341309,1,0,0,8.803649902,5.962341309,1,0,0,1,20,180,16,1,,,,,,,,
,,,,,,,,,,,,,FF,,,,,,,,1.1835,,,,,,,,,,,,,,,,,,,,,,610350d9b4852b4007ab7f87,61036a14272321e9cb645232,2021-07-29_21h55.54.500,Simcolourproject_2stim_asymm_v5,2020.2.10,MacIntel,60,61025ae37ef11b136ea224fe,,,,,,,,,538,40.4954834,72.7388916,1,0,0,response1disk,,7,8.545410156,5.336242676,1,0,0,rectangle,8.545410156,5.336242676,1,0,0,8.545410156,5.336242676,1,0,0,1,21,181,46,1,,,,,,,,
,,,,,,,,,,,,,FF,,,,,,,,1.617,,,,,,,,,,,,,,,,,,,,,,610350d9b4852b4007ab7f87,61036a14272321e9cb645232,2021-07-29_21h55.54.500,Simcolourproject_2stim_asymm_v5,2020.2.10,MacIntel,60,61025ae37ef11b136ea224fe,,,,,,,,,726,-48.28430176,-50.76928711,1,0,0,response5disk,,3,-10.96203613,-3.993408203,1,0,0,rectangle,-10.96203613,-3.993408203,1,0,0,-10.96203613,-3.993408203,1,0,0,1,22,182,1,1,,,,,,,,
,,,,,,,,,,,,,FF,,,,,,,,0.7174,,,,,,,,,,,,,,,,,,,,,,610350d9b4852b4007ab7f87,61036a14272321e9cb645232,2021-07-29_21h55.54.500,Simcolourproject_2stim_asymm_v5,2020.2.10,MacIntel,60,61025ae37ef11b136ea224fe,,,,,,,,,4320,31.43164063,66.84695435,1,0,0,response1disk,,7,2.616455078,-6.567626953,1,0,0,rectangle,2.616455078,-6.567626953,1,0,0,2.616455078,-6.567626953,1,0,0,1,23,183,14,1,,,,,,,,
,,,,,,,,,,,,,FF,,,,,,,,0.7334,,,,,,,,,,,,,,,,,,,,,,610350d9b4852b4007ab7f87,61036a14272321e9cb645232,2021-07-29_21h55.54.500,Simcolourproject_2stim_asymm_v5,2020.2.10,MacIntel,60,61025ae37ef11b136ea224fe,,,,,,,,,32,35.65258789,71.49902344,1,0,0,response1disk,,7,4.769958496,9.607666016,1,0,0,rectangle,4.769958496,9.607666016,1,0,0,4.769958496,9.607666016,1,0,0,1,24,184,109,1,,,,,,,,
,,,,,,,,,,,,,FF,,,,,,,,1.1996,,,,,,,,,,,,,,,,,,,,,,610350d9b4852b4007ab7f87,61036a14272321e9cb645232,2021-07-29_21h55.54.500,Simcolourproject_2stim_asymm_v5,2020.2.10,MacIntel,60,61025ae37ef11b136ea224fe,,,,,,,,,2044,-29.81933594,-59.45278931,1,0,0,response5disk,,3,-8.563171387,-15.57177734,1,0,0,rectangle,-8.563171387,-15.57177734,1,0,0,-8.563171387,-15.57177734,1,0,0,1,25,185,137,1,,,,,,,,
,,,,,,,,,,,,,FF,,,,,,,,0.8174,,,,,,,,,,,,,,,,,,,,,,610350d9b4852b4007ab7f87,61036a14272321e9cb645232,2021-07-29_21h55.54.500,Simcolourproject_2stim_asymm_v5,2020.2.10,MacIntel,60,61025ae37ef11b136ea224fe,,,,,,,,,3579,40.16369629,71.5100708,1,0,0,response1disk,,7,5.734375,8.738952637,1,0,0,rectangle,5.734375,8.738952637,1,0,0,5.734375,8.738952637,1,0,0,1,26,186,9,1,,,,,,,,
,,,,,,,,,,,,,FF,,,,,,,,0.7845,,,,,,,,,,,,,,,,,,,,,,610350d9b4852b4007ab7f87,61036a14272321e9cb645232,2021-07-29_21h55.54.500,Simcolourproject_2stim_asymm_v5,2020.2.10,MacIntel,60,61025ae37ef11b136ea224fe,,,,,,,,,4343,-38.94482422,70.09606934,1,0,0,response7disk,,0,1.292724609,3.19052124,1,0,0,rectangle,1.292724609,3.19052124,1,0,0,1.292724609,3.19052124,1,0,0,1,27,187,26,1,,,,,,,,
,,,,,,,,,,,,,FF,,,,,,,,1.3824,,,,,,,,,,,,,,,,,,,,,,610350d9b4852b4007ab7f87,61036a14272321e9cb645232,2021-07-29_21h55.54.500,Simcolourproject_2stim_asymm_v5,2020.2.10,MacIntel,60,61025ae37ef11b136ea224fe,,,,,,,,,2899,-60.36529541,-35.33810425,1,0,0,response5disk,,2,2.646789551,0.062957764,1,0,0,rectangle,2.646789551,0.062957764,1,0,0,2.646789551,0.062957764,1,0,0,1,28,188,35,1,,,,,,,,
,,,,,,,,,,,,,FF,,,,,,,,0.8172,,,,,,,,,,,,,,,,,,,,,,610350d9b4852b4007ab7f87,61036a14272321e9cb645232,2021-07-29_21h55.54.500,Simcolourproject_2stim_asymm_v5,2020.2.10,MacIntel,60,61025ae37ef11b136ea224fe,,,,,,,,,2184,35.26263428,80.05395508,1,0,0,response1disk,,7,-3.988586426,5.417144775,1,0,0,rectangle,-3.988586426,5.417144775,1,0,0,-3.988586426,5.417144775,1,0,0,1,29,189,18,1,,,,,,,,
,,,,,,,,,,,,,FF,,,,,,,,0.5835,,,,,,,,,,,,,,,,,,,,,,610350d9b4852b4007ab7f87,61036a14272321e9cb645232,2021-07-29_21h55.54.500,Simcolourproject_2stim_asymm_v5,2020.2.10,MacIntel,60,61025ae37ef11b136ea224fe,,,,,,,,,2875,25.47467041,68.84509277,1,0,0,response1disk,,7,-3.183288574,-2.253417969,1,0,0,rectangle,-3.183288574,-2.253417969,1,0,0,-3.183288574,-2.253417969,1,0,0,1,30,190,121,1,,,,,,,,
,,,,,,,,,,,,,FF,,,,,,,,0.5349,,,,,,,,,,,,,,,,,,,,,,610350d9b4852b4007ab7f87,61036a14272321e9cb645232,2021-07-29_21h55.54.500,Simcolourproject_2stim_asymm_v5,2020.2.10,MacIntel,60,61025ae37ef11b136ea224fe,,,,,,,,,3794,35.78479004,65.64294434,1,0,0,response1disk,,7,2.447692871,-0.062530518,1,0,0,rectangle,2.447692871,-0.062530518,1,0,0,2.447692871,-0.062530518,1,0,0,1,31,191,40,1,,,,,,,,
,,,,,,,,,,,,,FF,,,,,,,,0.6827,,,,,,,,,,,,,,,,,,,,,,610350d9b4852b4007ab7f87,61036a14272321e9cb645232,2021-07-29_21h55.54.500,Simcolourproject_2stim_asymm_v5,2020.2.10,MacIntel,60,61025ae37ef11b136ea224fe,,,,,,,,,3044,45.12664795,82.4069519,1,0,0,response1disk,,7,0.101806641,10.90698242,1,0,0,rectangle,0.101806641,10.90698242,1,0,0,0.101806641,10.90698242,1,0,0,1,32,192,151,1,,,,,,,,
,,,,,,,,,,,,,FF,,,,,,,,0.568,,,,,,,,,,,,,,,,,,,,,,610350d9b4852b4007ab7f87,61036a14272321e9cb645232,2021-07-29_21h55.54.500,Simcolourproject_2stim_asymm_v5,2020.2.10,MacIntel,60,61025ae37ef11b136ea224fe,,,,,,,,,3224,39.00421143,65.89447021,1,0,0,response1disk,,7,0.241516113,1.405395508,1,0,0,rectangle,0.241516113,1.405395508,1,0,0,0.241516113,1.405395508,1,0,0,1,33,193,52,1,,,,,,,,
,,,,,,,,,,,,,FF,,,,,,,,1.9347,,,,,,,,,,,,,,,,,,,,,,610350d9b4852b4007ab7f87,61036a14272321e9cb645232,2021-07-29_21h55.54.500,Simcolourproject_2stim_asymm_v5,2020.2.10,MacIntel,60,61025ae37ef11b136ea224fe,,,,,,,,,544,70.68328857,-37.96020508,1,0,0,response3disk,,5,-8.446655273,-5.688171387,1,0,0,rectangle,-85.9609375,-52.72451782,1,0,0,5.317626953,-3.136291504,1,0,0,1,34,194,31,1,,response5disk_3,TRUE,2,2,"[274,274,59,198,9,33,195,128,290,85,73,143,102,65,231,127,68,65,221,200]",2.0327,rectangle
,,,,,,,,,,,,,FF,,,,,,,,1.2166,,,,,,,,,,,,,,,,,,,,,,610350d9b4852b4007ab7f87,61036a14272321e9cb645232,2021-07-29_21h55.54.500,Simcolourproject_2stim_asymm_v5,2020.2.10,MacIntel,60,61025ae37ef11b136ea224fe,,,,,,,,,3672,-20.96331787,-48.54351807,1,0,0,response5disk,,3,-0.86126709,-12.18713379,1,0,0,rectangle,-0.86126709,-12.18713379,1,0,0,-0.86126709,-12.18713379,1,0,0,1,35,195,73,1,,,,,,,,
,,,,,,,,,,,,,FF,,,,,,,,0.8831,,,,,,,,,,,,,,,,,,,,,,610350d9b4852b4007ab7f87,61036a14272321e9cb645232,2021-07-29_21h55.54.500,Simcolourproject_2stim_asymm_v5,2020.2.10,MacIntel,60,61025ae37ef11b136ea224fe,,,,,,,,,1340,40.29870605,68.50463867,1,0,0,response1disk,,7,1.044494629,-0.789398193,1,0,0,rectangle,1.044494629,-0.789398193,1,0,0,1.044494629,-0.789398193,1,0,0,1,36,196,79,1,,,,,,,,
,,,,,,,,,,,,,FF,,,,,,,,0.7145,,,,,,,,,,,,,,,,,,,,,,610350d9b4852b4007ab7f87,61036a14272321e9cb645232,2021-07-29_21h55.54.500,Simcolourproject_2stim_asymm_v5,2020.2.10,MacIntel,60,61025ae37ef11b136ea224fe,,,,,,,,,90,18.56060791,52.84918213,1,0,0,response1disk,,7,-0.546020508,11.46295166,1,0,0,rectangle,78.15393066,-34.7210083,1,0,0,-1.437255859,-10.72976685,1,0,0,1,37,197,71,1,,response3disk_3,TRUE,5,5,"[274,274,59,198,9,33,195,128,290,85,73,143,102,65,231,127,68,65,221,200]",1.7831,rectangle
,,,,,,,,,,,,,FF,,,,,,,,1.55,,,,,,,,,,,,,,,,,,,,,,610350d9b4852b4007ab7f87,61036a14272321e9cb645232,2021-07-29_21h55.54.500,Simcolourproject_2stim_asymm_v5,2020.2.10,MacIntel,60,61025ae37ef11b136ea224fe,,,,,,,,,109,54.17236328,-41.6930542,1,0,0,response3disk,,5,2.117370605,0.82989502,1,0,0,rectangle,2.117370605,0.82989502,1,0,0,2.117370605,0.82989502,1,0,0,1,38,198,33,1,,,,,,,,
,,,,,,,,,,,,,FF,,,,,,,,0.9009,,,,,,,,,,,,,,,,,,,,,,610350d9b4852b4007ab7f87,61036a14272321e9cb645232,2021-07-29_21h55.54.500,Simcolourproject_2stim_asymm_v5,2020.2.10,MacIntel,60,61025ae37ef11b136ea224fe,,,,,,,,,426,36.3505249,69.68609619,1,0,0,response1disk,,7,-2.415893555,10.46600342,1,0,0,rectangle,30.81793213,-66.99133301,1,0,0,-0.859985352,-6.586303711,1,0,0,1,39,199,23,1,,response3disk_3,TRUE,4,4,"[274,274,59,198,9,33,195,128,290,85,73,143,102,65,231,127,68,65,221,200]",1.5829,rectangle
,,,,,,,,,,,,,FF,,,,,,,,1.0659,,,,,,,,,,,,,,,,,,,,,,610350d9b4852b4007ab7f87,61036a14272321e9cb645232,2021-07-29_21h55.54.500,Simcolourproject_2stim_asymm_v5,2020.2.10,MacIntel,60,61025ae37ef11b136ea224fe,,,,,,,,,2297,-36.84515381,-58.17041016,1,0,0,response5disk,,3,-10.17303467,-1.264923096,1,0,0,rectangle,-10.17303467,-1.264923096,1,0,0,-10.17303467,-1.264923096,1,0,0,1,40,200,0,1,,,,,,,,
,,,,,,,,,,,,,FF,,,,,,,,0.6509,,,,,,,,,,,,,,,,,,,,,,610350d9b4852b4007ab7f87,61036a14272321e9cb645232,2021-07-29_21h55.54.500,Simcolourproject_2stim_asymm_v5,2020.2.10,MacIntel,60,61025ae37ef11b136ea224fe,,,,,,,,,54,33.65270996,69.69528198,1,0,0,response1disk,,7,-0.024047852,0.690551758,1,0,0,rectangle,-0.024047852,0.690551758,1,0,0,-0.024047852,0.690551758,1,0,0,1,41,201,157,1,,,,,,,,
,,,,,,,,,,,,,FF,,,,,,,,1.45,,,,,,,,,,,,,,,,,,,,,,610350d9b4852b4007ab7f87,61036a14272321e9cb645232,2021-07-29_21h55.54.500,Simcolourproject_2stim_asymm_v5,2020.2.10,MacIntel,60,61025ae37ef11b136ea224fe,,,,,,,,,2952,-24.76647949,-70.9675293,1,0,0,response5disk,,3,1.643066406,-1.996337891,1,0,0,rectangle,1.643066406,-1.996337891,1,0,0,1.643066406,-1.996337891,1,0,0,1,42,202,112,1,,,,,,,,
,,,,,,,,,,,,,FF,,,,,,,,0.7338,,,,,,,,,,,,,,,,,,,,,,610350d9b4852b4007ab7f87,61036a14272321e9cb645232,2021-07-29_21h55.54.500,Simcolourproject_2stim_asymm_v5,2020.2.10,MacIntel,60,61025ae37ef11b136ea224fe,,,,,,,,,2194,44.99688721,61.63214111,1,0,0,response1disk,,7,11.07324219,15.00537109,1,0,0,rectangle,11.07324219,15.00537109,1,0,0,11.07324219,15.00537109,1,0,0,1,43,203,90,1,,,,,,,,
,,,,,,,,,,,,,FF,,,,,,,,1.1827,,,,,,,,,,,,,,,,,,,,,,610350d9b4852b4007ab7f87,61036a14272321e9cb645232,2021-07-29_21h55.54.500,Simcolourproject_2stim_asymm_v5,2020.2.10,MacIntel,60,61025ae37ef11b136ea224fe,,,,,,,,,4274,26.84625244,58.87945557,1,0,0,response1disk,,7,-4.228942871,-9.96307373,1,0,0,rectangle,-4.228942871,-9.96307373,1,0,0,-4.228942871,-9.96307373,1,0,0,1,44,204,38,1,,,,,,,,
,,,,,,,,,,,,,FF,,,,,,,,1.4823,,,,,,,,,,,,,,,,,,,,,,610350d9b4852b4007ab7f87,61036a14272321e9cb645232,2021-07-29_21h55.54.500,Simcolourproject_2stim_asymm_v5,2020.2.10,MacIntel,60,61025ae37ef11b136ea224fe,,,,,,,,,1676,-60.85803223,20.08197021,1,0,0,response7disk,,1,-4.296813965,0.076904297,1,0,0,rectangle,-4.296813965,0.076904297,1,0,0,-4.296813965,0.076904297,1,0,0,1,45,205,115,1,,,,,,,,
,,,,,,,,,,,,,FF,,,,,,,,0.5503,,,,,,,,,,,,,,,,,,,,,,610350d9b4852b4007ab7f87,61036a14272321e9cb645232,2021-07-29_21h55.54.500,Simcolourproject_2stim_asymm_v5,2020.2.10,MacIntel,60,61025ae37ef11b136ea224fe,,,,,,,,,4151,28.36273193,65.01916504,1,0,0,response1disk,,7,-13.54174805,-2.72644043,1,0,0,rectangle,-13.54174805,-2.72644043,1,0,0,-13.54174805,-2.72644043,1,0,0,1,46,206,158,1,,,,,,,,
,,,,,,,,,,,,,FF,,,,,,,,0.799,,,,,,,,,,,,,,,,,,,,,,610350d9b4852b4007ab7f87,61036a14272321e9cb645232,2021-07-29_21h55.54.500,Simcolourproject_2stim_asymm_v5,2020.2.10,MacIntel,60,61025ae37ef11b136ea224fe,,,,,,,,,602,35.85601807,65.86938477,1,0,0,response1disk,,7,-5.092834473,-3.504974365,1,0,0,rectangle,-5.092834473,-3.504974365,1,0,0,-5.092834473,-3.504974365,1,0,0,1,47,207,81,1,,,,,,,,
,,,,,,,,,,,,,FF,,,,,,,,1.6487,,,,,,,,,,,,,,,,,,,,,,610350d9b4852b4007ab7f87,61036a14272321e9cb645232,2021-07-29_21h55.54.500,Simcolourproject_2stim_asymm_v5,2020.2.10,MacIntel,60,61025ae37ef11b136ea224fe,,,,,,,,,728,39.91699219,-41.52697754,1,0,0,response3disk,,4,3.250732422,0.98815918,1,0,0,rectangle,3.250732422,0.98815918,1,0,0,3.250732422,0.98815918,1,0,0,1,48,208,131,1,,,,,,,,
,,,,,,,,,,,,,FF,,,,,,,,0.6166,,,,,,,,,,,,,,,,,,,,,,610350d9b4852b4007ab7f87,61036a14272321e9cb645232,2021-07-29_21h55.54.500,Simcolourproject_2stim_asymm_v5,2020.2.10,MacIntel,60,61025ae37ef11b136ea224fe,,,,,,,,,3506,23.04626465,50.97186279,1,0,0,response1disk,,7,-5.221191406,-6.728668213,1,0,0,rectangle,-5.221191406,-6.728668213,1,0,0,-5.221191406,-6.728668213,1,0,0,1,49,209,21,1,,,,,,,,
,,,,,,,,,,,,,FF,,,,,,,,0.7172,,,,,,,,,,,,,,,,,,,,,,610350d9b4852b4007ab7f87,61036a14272321e9cb645232,2021-07-29_21h55.54.500,Simcolourproject_2stim_asymm_v5,2020.2.10,MacIntel,60,61025ae37ef11b136ea224fe,,,,,,,,,221,18.39422607,41.8276062,1,0,0,response1disk,,7,-11.52191162,-11.88513184,1,0,0,rectangle,-11.52191162,-11.88513184,1,0,0,-11.52191162,-11.88513184,1,0,0,1,50,210,146,1,,,,,,,,
,,,,,,,,,,,,,FF,,,,,,,,1.4668,,,,,,,,,,,,,,,,,,,,,,610350d9b4852b4007ab7f87,61036a14272321e9cb645232,2021-07-29_21h55.54.500,Simcolourproject_2stim_asymm_v5,2020.2.10,MacIntel,60,61025ae37ef11b136ea224fe,,,,,,,,,199,77.29211426,29.71841431,1,0,0,response1disk,,6,-2.281311035,1.561157227,1,0,0,rectangle,-2.281311035,1.561157227,1,0,0,-2.281311035,1.561157227,1,0,0,1,51,211,129,1,,,,,,,,
,,,,,,,,,,,,,FF,,,,,,,,0.8,,,,,,,,,,,,,,,,,,,,,,610350d9b4852b4007ab7f87,61036a14272321e9cb645232,2021-07-29_21h55.54.500,Simcolourproject_2stim_asymm_v5,2020.2.10,MacIntel,60,61025ae37ef11b136ea224fe,,,,,,,,,2885,39.50787354,75.85571289,1,0,0,response1disk,,7,10.31274414,8.612945557,1,0,0,rectangle,10.31274414,8.612945557,1,0,0,10.31274414,8.612945557,1,0,0,1,52,212,133,1,,,,,,,,
,,,,,,,,,,,,,FF,,,,,,,,1.6492,,,,,,,,,,,,,,,,,,,,,,610350d9b4852b4007ab7f87,61036a14272321e9cb645232,2021-07-29_21h55.54.500,Simcolourproject_2stim_asymm_v5,2020.2.10,MacIntel,60,61025ae37ef11b136ea224fe,,,,,,,,,4348,45.25476074,-31.31710815,1,0,0,response3disk,,5,-22.77441406,-1.109741211,1,0,0,rectangle,-22.77441406,-1.109741211,1,0,0,-22.77441406,-1.109741211,1,0,0,1,53,213,30,1,,,,,,,,
,,,,,,,,,,,,,FF,,,,,,,,0.633,,,,,,,,,,,,,,,,,,,,,,610350d9b4852b4007ab7f87,61036a14272321e9cb645232,2021-07-29_21h55.54.500,Simcolourproject_2stim_asymm_v5,2020.2.10,MacIntel,60,61025ae37ef11b136ea224fe,,,,,,,,,1795,37.85552979,71.30474854,1,0,0,response1disk,,7,1.403381348,-0.59564209,1,0,0,rectangle,1.403381348,-0.59564209,1,0,0,1.403381348,-0.59564209,1,0,0,1,54,214,99,1,,,,,,,,
,,,,,,,,,,,,,FF,,,,,,,,2.1496,,,,,,,,,,,,,,,,,,,,,,610350d9b4852b4007ab7f87,61036a14272321e9cb645232,2021-07-29_21h55.54.500,Simcolourproject_2stim_asymm_v5,2020.2.10,MacIntel,60,61025ae37ef11b136ea224fe,,,,,,,,,1455,-36.65899658,-51.07473755,1,0,0,response5disk,,3,0.798095703,11.12573242,1,0,0,rectangle,0.798095703,11.12573242,1,0,0,0.798095703,11.12573242,1,0,0,1,55,215,32,1,,,,,,,,
,,,,,,,,,,,,,FF,,,,,,,,0.7161,,,,,,,,,,,,,,,,,,,,,,610350d9b4852b4007ab7f87,61036a14272321e9cb645232,2021-07-29_21h55.54.500,Simcolourproject_2stim_asymm_v5,2020.2.10,MacIntel,60,61025ae37ef11b136ea224fe,,,,,,,,,1410,29.50115967,71.6673584,1,0,0,response1disk,,7,2.54901123,3.408935547,1,0,0,rectangle,2.54901123,3.408935547,1,0,0,2.54901123,3.408935547,1,0,0,1,56,216,152,1,,,,,,,,
,,,,,,,,,,,,,FF,,,,,,,,0.5675,,,,,,,,,,,,,,,,,,,,,,610350d9b4852b4007ab7f87,61036a14272321e9cb645232,2021-07-29_21h55.54.500,Simcolourproject_2stim_asymm_v5,2020.2.10,MacIntel,60,61025ae37ef11b136ea224fe,,,,,,,,,1407,34.17749023,56.381073,1,0,0,response1disk,,7,-0.095092773,1.524902344,1,0,0,rectangle,-0.095092773,1.524902344,1,0,0,-0.095092773,1.524902344,1,0,0,1,57,217,92,1,,,,,,,,
,,,,,,,,,,,,,FF,,,,,,,,0.5154,,,,,,,,,,,,,,,,,,,,,,610350d9b4852b4007ab7f87,61036a14272321e9cb645232,2021-07-29_21h55.54.500,Simcolourproject_2stim_asymm_v5,2020.2.10,MacIntel,60,61025ae37ef11b136ea224fe,,,,,,,,,795,28.39361572,57.23861694,1,0,0,response1disk,,7,-2.999816895,4.697723389,1,0,0,rectangle,-2.999816895,4.697723389,1,0,0,-2.999816895,4.697723389,1,0,0,1,58,218,95,1,,,,,,,,
,,,,,,,,,,,,,FF,,,,,,,,0.4667,,,,,,,,,,,,,,,,,,,,,,610350d9b4852b4007ab7f87,61036a14272321e9cb645232,2021-07-29_21h55.54.500,Simcolourproject_2stim_asymm_v5,2020.2.10,MacIntel,60,61025ae37ef11b136ea224fe,,,,,,,,,3987,35.04553223,52.2833252,1,0,0,response1disk,,7,2.366760254,4.636749268,1,0,0,rectangle,2.366760254,4.636749268,1,0,0,2.366760254,4.636749268,1,0,0,1,59,219,87,1,,,,,,,,
,,,,,,,,,,,,,FF,,,,,,,,1.3671,,,,,,,,,,,,,,,,,,,,,,610350d9b4852b4007ab7f87,61036a14272321e9cb645232,2021-07-29_21h55.54.500,Simcolourproject_2stim_asymm_v5,2020.2.10,MacIntel,60,61025ae37ef11b136ea224fe,,,,,,,,,2725,-77.13037109,-32.95437622,1,0,0,response5disk,,2,-15.22070313,8.323852539,1,0,0,rectangle,57.12780762,-27.59912109,1,0,0,14.5369873,-7.956481934,1,0,0,1,60,220,20,1,,response3disk_3,TRUE,5,5,"[274,274,59,198,9,33,195,128,290,85,73,143,102,65,231,127,68,65,221,200]",1.6163,rectangle
,,,,,,,,,,,,,FF,,,,,,,,0.7159,,,,,,,,,,,,,,,,,,,,,,610350d9b4852b4007ab7f87,61036a14272321e9cb645232,2021-07-29_21h55.54.500,Simcolourproject_2stim_asymm_v5,2020.2.10,MacIntel,60,61025ae37ef11b136ea224fe,,,,,,,,,1638,36.00183105,75.64715576,1,0,0,response1disk,,7,-1.257202148,5.396057129,1,0,0,rectangle,-1.257202148,5.396057129,1,0,0,-1.257202148,5.396057129,1,0,0,1,61,221,127,1,,,,,,,,
,,,,,,,,,,,,,FF,,,,,,,,0.7987,,,,,,,,,,,,,,,,,,,,,,610350d9b4852b4007ab7f87,61036a14272321e9cb645232,2021-07-29_21h55.54.500,Simcolourproject_2stim_asymm_v5,2020.2.10,MacIntel,60,61025ae37ef11b136ea224fe,,,,,,,,,3016,42.04644775,74.43426514,1,0,0,response1disk,,7,3.897338867,6.437988281,1,0,0,rectangle,3.897338867,6.437988281,1,0,0,3.897338867,6.437988281,1,0,0,1,62,222,93,1,,,,,,,,
,,,,,,,,,,,,,FF,,,,,,,,0.5669,,,,,,,,,,,,,,,,,,,,,,610350d9b4852b4007ab7f87,61036a14272321e9cb645232,2021-07-29_21h55.54.500,Simcolourproject_2stim_asymm_v5,2020.2.10,MacIntel,60,61025ae37ef11b136ea224fe,,,,,,,,,1851,43.49572754,74.71484375,1,0,0,response1disk,,7,4.499267578,4.680114746,1,0,0,rectangle,4.499267578,4.680114746,1,0,0,4.499267578,4.680114746,1,0,0,1,63,223,147,1,,,,,,,,
,,,,,,,,,,,,,FF,,,,,,,,0.567,,,,,,,,,,,,,,,,,,,,,,610350d9b4852b4007ab7f87,61036a14272321e9cb645232,2021-07-29_21h55.54.500,Simcolourproject_2stim_asymm_v5,2020.2.10,MacIntel,60,61025ae37ef11b136ea224fe,,,,,,,,,4128,38.22930908,65.51086426,1,0,0,response1disk,,7,2.639099121,-2.900146484,1,0,0,rectangle,2.639099121,-2.900146484,1,0,0,2.639099121,-2.900146484,1,0,0,1,64,224,123,1,,,,,,,,
,,,,,,,,,,,,,FF,,,,,,,,0.5826,,,,,,,,,,,,,,,,,,,,,,610350d9b4852b4007ab7f87,61036a14272321e9cb645232,2021-07-29_21h55.54.500,Simcolourproject_2stim_asymm_v5,2020.2.10,MacIntel,60,61025ae37ef11b136ea224fe,,,,,,,,,2401,33.75683594,58.78753662,1,0,0,response1disk,,7,-3.530090332,3.456054688,1,0,0,rectangle,-3.530090332,3.456054688,1,0,0,-3.530090332,3.456054688,1,0,0,1,65,225,6,1,,,,,,,,
,,,,,,,,,,,,,FF,,,,,,,,1.2841,,,,,,,,,,,,,,,,,,,,,,610350d9b4852b4007ab7f87,61036a14272321e9cb645232,2021-07-29_21h55.54.500,Simcolourproject_2stim_asymm_v5,2020.2.10,MacIntel,60,61025ae37ef11b136ea224fe,,,,,,,,,637,55.66625977,-24.94754028,1,0,0,response3disk,,5,4.34954834,-2.67956543,1,0,0,rectangle,4.34954834,-2.67956543,1,0,0,4.34954834,-2.67956543,1,0,0,1,66,226,68,1,,,,,,,,
,,,,,,,,,,,,,FF,,,,,,,,0.5827,,,,,,,,,,,,,,,,,,,,,,610350d9b4852b4007ab7f87,61036a14272321e9cb645232,2021-07-29_21h55.54.500,Simcolourproject_2stim_asymm_v5,2020.2.10,MacIntel,60,61025ae37ef11b136ea224fe,,,,,,,,,3786,41.17687988,75.38684082,1,0,0,response1disk,,7,0.772033691,6.829956055,1,0,0,rectangle,0.772033691,6.829956055,1,0,0,0.772033691,6.829956055,1,0,0,1,67,227,117,1,,,,,,,,
,,,,,,,,,,,,,FF,,,,,,,,1.2334,,,,,,,,,,,,,,,,,,,,,,610350d9b4852b4007ab7f87,61036a14272321e9cb645232,2021-07-29_21h55.54.500,Simcolourproject_2stim_asymm_v5,2020.2.10,MacIntel,60,61025ae37ef11b136ea224fe,,,,,,,,,2038,-61.63305664,-34.97406006,1,0,0,response5disk,,2,-2.759521484,-0.821563721,1,0,0,rectangle,-2.759521484,-0.821563721,1,0,0,-2.759521484,-0.821563721,1,0,0,1,68,228,39,1,,,,,,,,
,,,,,,,,,,,,,FF,,,,,,,,1.5994,,,,,,,,,,,,,,,,,,,,,,610350d9b4852b4007ab7f87,61036a14272321e9cb645232,2021-07-29_21h55.54.500,Simcolourproject_2stim_asymm_v5,2020.2.10,MacIntel,60,61025ae37ef11b136ea224fe,,,,,,,,,11,29.39471436,-82.68560791,1,0,0,response3disk,,4,4.761901855,1.078796387,1,0,0,rectangle,4.761901855,1.078796387,1,0,0,4.761901855,1.078796387,1,0,0,1,69,229,13,1,,,,,,,,
,,,,,,,,,,,,,FF,,,,,,,,0.8338,,,,,,,,,,,,,,,,,,,,,,610350d9b4852b4007ab7f87,61036a14272321e9cb645232,2021-07-29_21h55.54.500,Simcolourproject_2stim_asymm_v5,2020.2.10,MacIntel,60,61025ae37ef11b136ea224fe,,,,,,,,,152,47.07781982,63.18914795,1,0,0,response1disk,,7,3.507446289,14.2333374,1,0,0,rectangle,87.512146,30.03103638,1,0,0,15.13867188,0.06829834,1,0,0,1,70,230,125,1,,response1disk_3,TRUE,6,6,"[274,274,59,198,9,33,195,128,290,85,73,143,102,65,231,127,68,65,221,200]",1.5665,rectangle
,,,,,,,,,,,,,FF,,,,,,,,0.8505,,,,,,,,,,,,,,,,,,,,,,610350d9b4852b4007ab7f87,61036a14272321e9cb645232,2021-07-29_21h55.54.500,Simcolourproject_2stim_asymm_v5,2020.2.10,MacIntel,60,61025ae37ef11b136ea224fe,,,,,,,,,4024,36.87609863,70.42910767,1,0,0,response1disk,,7,-7.584411621,3.175048828,1,0,0,rectangle,-7.584411621,3.175048828,1,0,0,-7.584411621,3.175048828,1,0,0,1,71,231,141,1,,,,,,,,
,,,,,,,,,,,,,FF,,,,,,,,1.2825,,,,,,,,,,,,,,,,,,,,,,610350d9b4852b4007ab7f87,61036a14272321e9cb645232,2021-07-29_21h55.54.500,Simcolourproject_2stim_asymm_v5,2020.2.10,MacIntel,60,61025ae37ef11b136ea224fe,,,,,,,,,1446,-60.48742676,-35.6427002,1,0,0,response5disk,,2,-11.71405029,-5.440490723,1,0,0,rectangle,-11.71405029,-5.440490723,1,0,0,-11.71405029,-5.440490723,1,0,0,1,72,232,37,1,,,,,,,,
,,,,,,,,,,,,,FF,,,,,,,,1.2663,,,,,,,,,,,,,,,,,,,,,,610350d9b4852b4007ab7f87,61036a14272321e9cb645232,2021-07-29_21h55.54.500,Simcolourproject_2stim_asymm_v5,2020.2.10,MacIntel,60,61025ae37ef11b136ea224fe,,,,,,,,,2346,-42.07666016,-65.72686768,1,0,0,response5disk,,3,-8.989868164,-7.542907715,1,0,0,rectangle,-8.989868164,-7.542907715,1,0,0,-8.989868164,-7.542907715,1,0,0,1,73,233,59,1,,,,,,,,
,,,,,,,,,,,,,FF,,,,,,,,0.6655,,,,,,,,,,,,,,,,,,,,,,610350d9b4852b4007ab7f87,61036a14272321e9cb645232,2021-07-29_21h55.54.500,Simcolourproject_2stim_asymm_v5,2020.2.10,MacIntel,60,61025ae37ef11b136ea224fe,,,,,,,,,1714,28.49584961,63.84155273,1,0,0,response1disk,,7,-0.739257813,10.90539551,1,0,0,rectangle,-0.739257813,10.90539551,1,0,0,-0.739257813,10.90539551,1,0,0,1,74,234,50,1,,,,,,,,
,,,,,,,,,,,,,FF,,,,,,,,1.4146,,,,,,,,,,,,,,,,,,,,,,610350d9b4852b4007ab7f87,61036a14272321e9cb645232,2021-07-29_21h55.54.500,Simcolourproject_2stim_asymm_v5,2020.2.10,MacIntel,60,61025ae37ef11b136ea224fe,,,,,,,,,2045,36.82788086,-40.10748291,1,0,0,response3disk,,4,-8.577697754,2.021514893,1,0,0,rectangle,-8.577697754,2.021514893,1,0,0,-8.577697754,2.021514893,1,0,0,1,75,235,76,1,,,,,,,,
,,,,,,,,,,,,,FF,,,,,,,,0.6503,,,,,,,,,,,,,,,,,,,,,,610350d9b4852b4007ab7f87,61036a14272321e9cb645232,2021-07-29_21h55.54.500,Simcolourproject_2stim_asymm_v5,2020.2.10,MacIntel,60,61025ae37ef11b136ea224fe,,,,,,,,,4200,-35.91540527,50.54415894,1,0,0,response7disk,,0,-1.88494873,4.394775391,1,0,0,rectangle,-1.88494873,4.394775391,1,0,0,-1.88494873,4.394775391,1,0,0,1,76,236,69,1,,,,,,,,
,,,,,,,,,,,,,FF,,,,,,,,1.099,,,,,,,,,,,,,,,,,,,,,,610350d9b4852b4007ab7f87,61036a14272321e9cb645232,2021-07-29_21h55.54.500,Simcolourproject_2stim_asymm_v5,2020.2.10,MacIntel,60,61025ae37ef11b136ea224fe,,,,,,,,,2975,42.22167969,51.05877686,1,0,0,response1disk,,7,-4.243164063,-11.11859131,1,0,0,rectangle,-4.243164063,-11.11859131,1,0,0,-4.243164063,-11.11859131,1,0,0,1,77,237,8,1,,,,,,,,
,,,,,,,,,,,,,FF,,,,,,,,0.5167,,,,,,,,,,,,,,,,,,,,,,610350d9b4852b4007ab7f87,61036a14272321e9cb645232,2021-07-29_21h55.54.500,Simcolourproject_2stim_asymm_v5,2020.2.10,MacIntel,60,61025ae37ef11b136ea224fe,,,,,,,,,3752,33.82824707,66.73849487,1,0,0,response1disk,,7,3.645385742,6.440551758,1,0,0,rectangle,3.645385742,6.440551758,1,0,0,3.645385742,6.440551758,1,0,0,1,78,238,156,1,,,,,,,,
,,,,,,,,,,,,,FF,,,,,,,,0.5504,,,,,,,,,,,,,,,,,,,,,,610350d9b4852b4007ab7f87,61036a14272321e9cb645232,2021-07-29_21h55.54.500,Simcolourproject_2stim_asymm_v5,2020.2.10,MacIntel,60,61025ae37ef11b136ea224fe,,,,,,,,,2590,40.41625977,64.19720459,1,0,0,response1disk,,7,-0.264038086,4.005126953,1,0,0,rectangle,-0.264038086,4.005126953,1,0,0,-0.264038086,4.005126953,1,0,0,1,79,239,85,1,,,,,,,,
,,,,,,,,,,,,,FF,,,,,,,,1.051,,,,,,,,,,,,,,,,,,,,,,610350d9b4852b4007ab7f87,61036a14272321e9cb645232,2021-07-29_21h55.54.500,Simcolourproject_2stim_asymm_v5,2020.2.10,MacIntel,60,61025ae37ef11b136ea224fe,,,,,,,,,17,58.50848389,36.290802,1,0,0,response1disk,,6,-5.655883789,-1.288513184,1,0,0,rectangle,-5.655883789,-1.288513184,1,0,0,-5.655883789,-1.288513184,1,0,0,1,80,240,25,1,,,,,,,,
