key_resp.keys,key_resp.rt,key_resp_14.keys,key_resp_14.rt,key_resp_15.keys,key_resp_15.rt,key_resp_17.keys,key_resp_17.rt,key_resp_9.keys,key_resp_9.rt,key_resp_10.keys,key_resp_10.rt,practice_comparison,Ecc,mouse_5.x,mouse_5.y,mouse_5.leftButton,mouse_5.midButton,mouse_5.rightButton,mouse_5.clicked_name,pracsimilarity,response_time,mouse_10.x,mouse_10.y,mouse_10.leftButton,mouse_10.midButton,mouse_10.rightButton,mouse_10.clicked_name,mouse_7.x,mouse_7.y,mouse_7.leftButton,mouse_7.midButton,mouse_7.rightButton,mouse_6.x,mouse_6.y,mouse_6.leftButton,mouse_6.midButton,mouse_6.rightButton,duringprac.thisRepN,duringprac.thisTrialN,duringprac.thisN,duringprac.thisIndex,duringprac.ran,participant,session,date,expName,psychopyVersion,OS,frameRate,study_id,mouse_7.clicked_name,catchpracsimilarity,catch_response_time,catchnumberprac,catchtrialorderprac,mouse_6.clicked_name,key_resp_22.keys,key_resp_22.rt,realcomparison,mouse.x,mouse.y,mouse.leftButton,mouse.midButton,mouse.rightButton,mouse.clicked_name,Colour2,similarity,mouse_2.x,mouse_2.y,mouse_2.leftButton,mouse_2.midButton,mouse_2.rightButton,mouse_2.clicked_name,mouse_3.x,mouse_3.y,mouse_3.leftButton,mouse_3.midButton,mouse_3.rightButton,mouse_11.x,mouse_11.y,mouse_11.leftButton,mouse_11.midButton,mouse_11.rightButton,trials_2.thisRepN,trials_2.thisTrialN,trials_2.thisN,trials_2.thisIndex,trials_2.ran,Colour1,mouse_3.clicked_name,catchornah,catchsimilarity,catchnumber,catchtrialorder,catchRT,mouse_11.clicked_name
space,2.224,space,11.396,space,32.887,space,2.595,space,1.669,space,4.386,21,PF,87,44,1,0,0,response1disk_5,6,8.316,7,10,1,0,0,rectangle_8,7,10,1,0,0,7,10,1,0,0,0,0,0,2,1,61034f24da19cc56177b8b59,6103697efcf36e12043158bb,2021-07-30_04h54.08.608,Simcolourproject_2stim_asymm_v5,2020.2.10,Win32,60,61025ae37ef11b136ea224fe,,,,,,,,,,,,,,,,,,,,,,,,,,,,,,,,,,,,,,,,,,,,,,
,,,,,,,,,,,,17,FF,31,-91,1,0,0,response3disk_5,4,5.398,-1,0,1,0,0,rectangle_8,-30,-65,1,0,0,7,1,1,0,0,0,1,1,3,1,61034f24da19cc56177b8b59,6103697efcf36e12043158bb,2021-07-30_04h54.08.608,Simcolourproject_2stim_asymm_v5,2020.2.10,Win32,60,61025ae37ef11b136ea224fe,response5disk_7,3,3.451,3,"[2,5]",rectangle_4,,,,,,,,,,,,,,,,,,,,,,,,,,,,,,,,,,,,,,,,
,,,,,,,,,,,,146,PF,-70,25,1,0,0,response7disk_5,1,7.097,-2,7,1,0,0,rectangle_8,-2,7,1,0,0,-2,7,1,0,0,0,2,2,6,1,61034f24da19cc56177b8b59,6103697efcf36e12043158bb,2021-07-30_04h54.08.608,Simcolourproject_2stim_asymm_v5,2020.2.10,Win32,60,61025ae37ef11b136ea224fe,,,,,,,,,,,,,,,,,,,,,,,,,,,,,,,,,,,,,,,,,,,,,,
,,,,,,,,,,,,46,PF,51,-70,1,0,0,response3disk_5,4,4.064,-3,-3,1,0,0,rectangle_8,-3,-3,1,0,0,-3,-3,1,0,0,0,3,3,1,1,61034f24da19cc56177b8b59,6103697efcf36e12043158bb,2021-07-30_04h54.08.608,Simcolourproject_2stim_asymm_v5,2020.2.10,Win32,60,61025ae37ef11b136ea224fe,,,,,,,,,,,,,,,,,,,,,,,,,,,,,,,,,,,,,,,,,,,,,,
,,,,,,,,,,,,105,FF,-33,-71,1,0,0,response5disk_5,3,3.082,-2,-7,1,0,0,rectangle_8,-44,-89,1,0,0,7,1,1,0,0,0,4,4,5,1,61034f24da19cc56177b8b59,6103697efcf36e12043158bb,2021-07-30_04h54.08.608,Simcolourproject_2stim_asymm_v5,2020.2.10,Win32,60,61025ae37ef11b136ea224fe,response5disk_7,3,1.94,3,"[2,5]",rectangle_4,,,,,,,,,,,,,,,,,,,,,,,,,,,,,,,,,,,,,,,,
,,,,,,,,,,,,123,PF,89,-29,1,0,0,response3disk_5,5,6.665,-9,2,1,0,0,rectangle_8,-9,2,1,0,0,-9,2,1,0,0,0,5,5,4,1,61034f24da19cc56177b8b59,6103697efcf36e12043158bb,2021-07-30_04h54.08.608,Simcolourproject_2stim_asymm_v5,2020.2.10,Win32,60,61025ae37ef11b136ea224fe,,,,,,,,,,,,,,,,,,,,,,,,,,,,,,,,,,,,,,,,,,,,,,
,,,,,,,,,,,,0,FF,86,-51,1,0,0,response3disk_5,5,4.099,-2,7,1,0,0,rectangle_8,-2,7,1,0,0,-2,7,1,0,0,0,6,6,0,1,61034f24da19cc56177b8b59,6103697efcf36e12043158bb,2021-07-30_04h54.08.608,Simcolourproject_2stim_asymm_v5,2020.2.10,Win32,60,61025ae37ef11b136ea224fe,,,,,,,,,,,,,,,,,,,,,,,,,,,,,,,,,,,,,,,,,,,,,,
,,,,,,,,,,,,,FF,,,,,,,,7.679,,,,,,,,,,,,,,,,,,,,,,61034f24da19cc56177b8b59,6103697efcf36e12043158bb,2021-07-30_04h54.08.608,Simcolourproject_2stim_asymm_v5,2020.2.10,Win32,60,61025ae37ef11b136ea224fe,,,,,,,space,4.458,36,85,-33,1,0,0,response3disk,,5,2,-1,1,0,0,rectangle,2,-1,1,0,0,2,-1,1,0,0,0,0,0,148,1,,,,,,,,
,,,,,,,,,,,,,FF,,,,,,,,2.616,,,,,,,,,,,,,,,,,,,,,,61034f24da19cc56177b8b59,6103697efcf36e12043158bb,2021-07-30_04h54.08.608,Simcolourproject_2stim_asymm_v5,2020.2.10,Win32,60,61025ae37ef11b136ea224fe,,,,,,,,,4168,-69,47,1,0,0,response7disk,,1,10,-2,1,0,0,rectangle,10,-2,1,0,0,10,-2,1,0,0,0,1,1,82,1,,,,,,,,
,,,,,,,,,,,,,FF,,,,,,,,5.248,,,,,,,,,,,,,,,,,,,,,,61034f24da19cc56177b8b59,6103697efcf36e12043158bb,2021-07-30_04h54.08.608,Simcolourproject_2stim_asymm_v5,2020.2.10,Win32,60,61025ae37ef11b136ea224fe,,,,,,,,,1509,72,-45,1,0,0,response3disk,,5,17,0,1,0,0,rectangle,17,0,1,0,0,17,0,1,0,0,0,2,2,89,1,,,,,,,,
,,,,,,,,,,,,,FF,,,,,,,,1.216,,,,,,,,,,,,,,,,,,,,,,61034f24da19cc56177b8b59,6103697efcf36e12043158bb,2021-07-30_04h54.08.608,Simcolourproject_2stim_asymm_v5,2020.2.10,Win32,60,61025ae37ef11b136ea224fe,,,,,,,,,2096,-78,39,1,0,0,response7disk,,1,8,-2,1,0,0,rectangle,8,-2,1,0,0,8,-2,1,0,0,0,3,3,55,1,,,,,,,,
,,,,,,,,,,,,,FF,,,,,,,,4.747,,,,,,,,,,,,,,,,,,,,,,61034f24da19cc56177b8b59,6103697efcf36e12043158bb,2021-07-30_04h54.08.608,Simcolourproject_2stim_asymm_v5,2020.2.10,Win32,60,61025ae37ef11b136ea224fe,,,,,,,,,353,-69,34,1,0,0,response7disk,,1,-2,-3,1,0,0,rectangle,-2,-3,1,0,0,-2,-3,1,0,0,0,4,4,147,1,,,,,,,,
,,,,,,,,,,,,,FF,,,,,,,,2.281,,,,,,,,,,,,,,,,,,,,,,61034f24da19cc56177b8b59,6103697efcf36e12043158bb,2021-07-30_04h54.08.608,Simcolourproject_2stim_asymm_v5,2020.2.10,Win32,60,61025ae37ef11b136ea224fe,,,,,,,,,878,90,-51,1,0,0,response3disk,,5,-6,6,1,0,0,rectangle,-6,6,1,0,0,-6,6,1,0,0,0,5,5,114,1,,,,,,,,
,,,,,,,,,,,,,FF,,,,,,,,1.766,,,,,,,,,,,,,,,,,,,,,,61034f24da19cc56177b8b59,6103697efcf36e12043158bb,2021-07-30_04h54.08.608,Simcolourproject_2stim_asymm_v5,2020.2.10,Win32,60,61025ae37ef11b136ea224fe,,,,,,,,,2860,37,-64,1,0,0,response3disk,,4,-6,5,1,0,0,rectangle,-6,5,1,0,0,-6,5,1,0,0,0,6,6,137,1,,,,,,,,
,,,,,,,,,,,,,FF,,,,,,,,4.631,,,,,,,,,,,,,,,,,,,,,,61034f24da19cc56177b8b59,6103697efcf36e12043158bb,2021-07-30_04h54.08.608,Simcolourproject_2stim_asymm_v5,2020.2.10,Win32,60,61025ae37ef11b136ea224fe,,,,,,,,,833,-57,-87,1,0,0,response5disk,,3,1,-5,1,0,0,rectangle,1,-5,1,0,0,1,-5,1,0,0,0,7,7,66,1,,,,,,,,
,,,,,,,,,,,,,FF,,,,,,,,2.715,,,,,,,,,,,,,,,,,,,,,,61034f24da19cc56177b8b59,6103697efcf36e12043158bb,2021-07-30_04h54.08.608,Simcolourproject_2stim_asymm_v5,2020.2.10,Win32,60,61025ae37ef11b136ea224fe,,,,,,,,,3333,-59,-43,1,0,0,response5disk,,2,-1,7,1,0,0,rectangle,-1,7,1,0,0,-1,7,1,0,0,0,8,8,13,1,,,,,,,,
,,,,,,,,,,,,,FF,,,,,,,,1.183,,,,,,,,,,,,,,,,,,,,,,61034f24da19cc56177b8b59,6103697efcf36e12043158bb,2021-07-30_04h54.08.608,Simcolourproject_2stim_asymm_v5,2020.2.10,Win32,60,61025ae37ef11b136ea224fe,,,,,,,,,3124,63,-81,1,0,0,response3disk,,4,8,13,1,0,0,rectangle,8,13,1,0,0,8,13,1,0,0,0,9,9,159,1,,,,,,,,
,,,,,,,,,,,,,FF,,,,,,,,3.518,,,,,,,,,,,,,,,,,,,,,,61034f24da19cc56177b8b59,6103697efcf36e12043158bb,2021-07-30_04h54.08.608,Simcolourproject_2stim_asymm_v5,2020.2.10,Win32,60,61025ae37ef11b136ea224fe,,,,,,,,,140,28,-75,1,0,0,response3disk,,4,-11,12,1,0,0,rectangle,-11,12,1,0,0,-11,12,1,0,0,0,10,10,36,1,,,,,,,,
,,,,,,,,,,,,,FF,,,,,,,,3.415,,,,,,,,,,,,,,,,,,,,,,61034f24da19cc56177b8b59,6103697efcf36e12043158bb,2021-07-30_04h54.08.608,Simcolourproject_2stim_asymm_v5,2020.2.10,Win32,60,61025ae37ef11b136ea224fe,,,,,,,,,2116,59,-95,1,0,0,response3disk,,4,7,-5,1,0,0,rectangle,7,-5,1,0,0,7,-5,1,0,0,0,11,11,104,1,,,,,,,,
,,,,,,,,,,,,,FF,,,,,,,,2.499,,,,,,,,,,,,,,,,,,,,,,61034f24da19cc56177b8b59,6103697efcf36e12043158bb,2021-07-30_04h54.08.608,Simcolourproject_2stim_asymm_v5,2020.2.10,Win32,60,61025ae37ef11b136ea224fe,,,,,,,,,3882,-39,-77,1,0,0,response5disk,,3,-5,-3,1,0,0,rectangle,-5,-3,1,0,0,-5,-3,1,0,0,0,12,12,63,1,,,,,,,,
,,,,,,,,,,,,,FF,,,,,,,,1.266,,,,,,,,,,,,,,,,,,,,,,61034f24da19cc56177b8b59,6103697efcf36e12043158bb,2021-07-30_04h54.08.608,Simcolourproject_2stim_asymm_v5,2020.2.10,Win32,60,61025ae37ef11b136ea224fe,,,,,,,,,2704,95,-37,1,0,0,response3disk,,5,1,7,1,0,0,rectangle,1,7,1,0,0,1,7,1,0,0,0,13,13,149,1,,,,,,,,
,,,,,,,,,,,,,FF,,,,,,,,3.265,,,,,,,,,,,,,,,,,,,,,,61034f24da19cc56177b8b59,6103697efcf36e12043158bb,2021-07-30_04h54.08.608,Simcolourproject_2stim_asymm_v5,2020.2.10,Win32,60,61025ae37ef11b136ea224fe,,,,,,,,,2599,76,-41,1,0,0,response3disk,,5,14,5,1,0,0,rectangle,14,5,1,0,0,14,5,1,0,0,0,14,14,91,1,,,,,,,,
,,,,,,,,,,,,,FF,,,,,,,,3.765,,,,,,,,,,,,,,,,,,,,,,61034f24da19cc56177b8b59,6103697efcf36e12043158bb,2021-07-30_04h54.08.608,Simcolourproject_2stim_asymm_v5,2020.2.10,Win32,60,61025ae37ef11b136ea224fe,,,,,,,,,1639,91,-48,1,0,0,response3disk,,5,1,6,1,0,0,rectangle,1,6,1,0,0,1,6,1,0,0,0,15,15,136,1,,,,,,,,
,,,,,,,,,,,,,FF,,,,,,,,1.266,,,,,,,,,,,,,,,,,,,,,,61034f24da19cc56177b8b59,6103697efcf36e12043158bb,2021-07-30_04h54.08.608,Simcolourproject_2stim_asymm_v5,2020.2.10,Win32,60,61025ae37ef11b136ea224fe,,,,,,,,,1788,74,-39,1,0,0,response3disk,,5,26,-7,1,0,0,rectangle,-63,23,1,0,0,-1,-11,1,0,0,0,16,16,73,1,,response7disk_3,TRUE,1,1,"[155,250,28,244,140,78,236,190,197,159,158,209,104,108,70,129,202,217,17,289]",2.081,rectangle
,,,,,,,,,,,,,FF,,,,,,,,1.352,,,,,,,,,,,,,,,,,,,,,,61034f24da19cc56177b8b59,6103697efcf36e12043158bb,2021-07-30_04h54.08.608,Simcolourproject_2stim_asymm_v5,2020.2.10,Win32,60,61025ae37ef11b136ea224fe,,,,,,,,,1886,-56,35,1,0,0,response7disk,,1,-25,7,1,0,0,rectangle,-25,7,1,0,0,-25,7,1,0,0,0,17,17,100,1,,,,,,,,
,,,,,,,,,,,,,FF,,,,,,,,1.649,,,,,,,,,,,,,,,,,,,,,,61034f24da19cc56177b8b59,6103697efcf36e12043158bb,2021-07-30_04h54.08.608,Simcolourproject_2stim_asymm_v5,2020.2.10,Win32,60,61025ae37ef11b136ea224fe,,,,,,,,,3366,-50,-73,1,0,0,response5disk,,3,-21,5,1,0,0,rectangle,-21,5,1,0,0,-21,5,1,0,0,0,18,18,64,1,,,,,,,,
,,,,,,,,,,,,,FF,,,,,,,,1.215,,,,,,,,,,,,,,,,,,,,,,61034f24da19cc56177b8b59,6103697efcf36e12043158bb,2021-07-30_04h54.08.608,Simcolourproject_2stim_asymm_v5,2020.2.10,Win32,60,61025ae37ef11b136ea224fe,,,,,,,,,2950,-85,-33,1,0,0,response5disk,,2,-23,-3,1,0,0,rectangle,-23,-3,1,0,0,-23,-3,1,0,0,0,19,19,83,1,,,,,,,,
,,,,,,,,,,,,,FF,,,,,,,,2.833,,,,,,,,,,,,,,,,,,,,,,61034f24da19cc56177b8b59,6103697efcf36e12043158bb,2021-07-30_04h54.08.608,Simcolourproject_2stim_asymm_v5,2020.2.10,Win32,60,61025ae37ef11b136ea224fe,,,,,,,,,988,-45,-86,1,0,0,response5disk,,3,-7,2,1,0,0,rectangle,-7,2,1,0,0,-7,2,1,0,0,0,20,20,18,1,,,,,,,,
,,,,,,,,,,,,,FF,,,,,,,,4.316,,,,,,,,,,,,,,,,,,,,,,61034f24da19cc56177b8b59,6103697efcf36e12043158bb,2021-07-30_04h54.08.608,Simcolourproject_2stim_asymm_v5,2020.2.10,Win32,60,61025ae37ef11b136ea224fe,,,,,,,,,287,-84,-32,1,0,0,response5disk,,2,14,3,1,0,0,rectangle,14,3,1,0,0,14,3,1,0,0,0,21,21,157,1,,,,,,,,
,,,,,,,,,,,,,FF,,,,,,,,0.7,,,,,,,,,,,,,,,,,,,,,,61034f24da19cc56177b8b59,6103697efcf36e12043158bb,2021-07-30_04h54.08.608,Simcolourproject_2stim_asymm_v5,2020.2.10,Win32,60,61025ae37ef11b136ea224fe,,,,,,,,,973,-75,-43,1,0,0,response5disk,,2,16,-11,1,0,0,rectangle,16,-11,1,0,0,16,-11,1,0,0,0,22,22,74,1,,,,,,,,
,,,,,,,,,,,,,FF,,,,,,,,1.466,,,,,,,,,,,,,,,,,,,,,,61034f24da19cc56177b8b59,6103697efcf36e12043158bb,2021-07-30_04h54.08.608,Simcolourproject_2stim_asymm_v5,2020.2.10,Win32,60,61025ae37ef11b136ea224fe,,,,,,,,,37,39,-69,1,0,0,response3disk,,4,1,7,1,0,0,rectangle,1,7,1,0,0,1,7,1,0,0,0,23,23,33,1,,,,,,,,
,,,,,,,,,,,,,FF,,,,,,,,3.282,,,,,,,,,,,,,,,,,,,,,,61034f24da19cc56177b8b59,6103697efcf36e12043158bb,2021-07-30_04h54.08.608,Simcolourproject_2stim_asymm_v5,2020.2.10,Win32,60,61025ae37ef11b136ea224fe,,,,,,,,,105,27,-83,1,0,0,response3disk,,4,8,7,1,0,0,rectangle,8,7,1,0,0,8,7,1,0,0,0,24,24,90,1,,,,,,,,
,,,,,,,,,,,,,FF,,,,,,,,1.298,,,,,,,,,,,,,,,,,,,,,,61034f24da19cc56177b8b59,6103697efcf36e12043158bb,2021-07-30_04h54.08.608,Simcolourproject_2stim_asymm_v5,2020.2.10,Win32,60,61025ae37ef11b136ea224fe,,,,,,,,,3510,-82,27,1,0,0,response7disk,,1,-29,3,1,0,0,rectangle,-29,3,1,0,0,-29,3,1,0,0,0,25,25,75,1,,,,,,,,
,,,,,,,,,,,,,FF,,,,,,,,1.554,,,,,,,,,,,,,,,,,,,,,,61034f24da19cc56177b8b59,6103697efcf36e12043158bb,2021-07-30_04h54.08.608,Simcolourproject_2stim_asymm_v5,2020.2.10,Win32,60,61025ae37ef11b136ea224fe,,,,,,,,,3970,-59,-41,1,0,0,response5disk,,2,-26,-9,1,0,0,rectangle,-26,-9,1,0,0,-26,-9,1,0,0,0,26,26,105,1,,,,,,,,
,,,,,,,,,,,,,FF,,,,,,,,2.648,,,,,,,,,,,,,,,,,,,,,,61034f24da19cc56177b8b59,6103697efcf36e12043158bb,2021-07-30_04h54.08.608,Simcolourproject_2stim_asymm_v5,2020.2.10,Win32,60,61025ae37ef11b136ea224fe,,,,,,,,,1702,-85,-28,1,0,0,response5disk,,2,-21,3,1,0,0,rectangle,-78,26,1,0,0,-5,1,1,0,0,0,27,27,29,1,,response7disk_3,TRUE,1,1,"[155,250,28,244,140,78,236,190,197,159,158,209,104,108,70,129,202,217,17,289]",1.932,rectangle
,,,,,,,,,,,,,FF,,,,,,,,1.85,,,,,,,,,,,,,,,,,,,,,,61034f24da19cc56177b8b59,6103697efcf36e12043158bb,2021-07-30_04h54.08.608,Simcolourproject_2stim_asymm_v5,2020.2.10,Win32,60,61025ae37ef11b136ea224fe,,,,,,,,,3053,-75,34,1,0,0,response7disk,,1,-3,6,1,0,0,rectangle,-3,6,1,0,0,-3,6,1,0,0,0,28,28,52,1,,,,,,,,
,,,,,,,,,,,,,FF,,,,,,,,2.166,,,,,,,,,,,,,,,,,,,,,,61034f24da19cc56177b8b59,6103697efcf36e12043158bb,2021-07-30_04h54.08.608,Simcolourproject_2stim_asymm_v5,2020.2.10,Win32,60,61025ae37ef11b136ea224fe,,,,,,,,,294,-72,-47,1,0,0,response5disk,,2,-17,4,1,0,0,rectangle,-17,4,1,0,0,-17,4,1,0,0,0,29,29,129,1,,,,,,,,
,,,,,,,,,,,,,FF,,,,,,,,2.182,,,,,,,,,,,,,,,,,,,,,,61034f24da19cc56177b8b59,6103697efcf36e12043158bb,2021-07-30_04h54.08.608,Simcolourproject_2stim_asymm_v5,2020.2.10,Win32,60,61025ae37ef11b136ea224fe,,,,,,,,,812,-45,-72,1,0,0,response5disk,,3,-3,-1,1,0,0,rectangle,-3,-1,1,0,0,-3,-1,1,0,0,0,30,30,152,1,,,,,,,,
,,,,,,,,,,,,,FF,,,,,,,,1.255,,,,,,,,,,,,,,,,,,,,,,61034f24da19cc56177b8b59,6103697efcf36e12043158bb,2021-07-30_04h54.08.608,Simcolourproject_2stim_asymm_v5,2020.2.10,Win32,60,61025ae37ef11b136ea224fe,,,,,,,,,832,35,-67,1,0,0,response3disk,,4,5,7,1,0,0,rectangle,5,7,1,0,0,5,7,1,0,0,0,31,31,116,1,,,,,,,,
,,,,,,,,,,,,,FF,,,,,,,,3.315,,,,,,,,,,,,,,,,,,,,,,61034f24da19cc56177b8b59,6103697efcf36e12043158bb,2021-07-30_04h54.08.608,Simcolourproject_2stim_asymm_v5,2020.2.10,Win32,60,61025ae37ef11b136ea224fe,,,,,,,,,4034,-70,-29,1,0,0,response5disk,,2,-7,6,1,0,0,rectangle,-7,6,1,0,0,-7,6,1,0,0,0,32,32,127,1,,,,,,,,
,,,,,,,,,,,,,FF,,,,,,,,1.216,,,,,,,,,,,,,,,,,,,,,,61034f24da19cc56177b8b59,6103697efcf36e12043158bb,2021-07-30_04h54.08.608,Simcolourproject_2stim_asymm_v5,2020.2.10,Win32,60,61025ae37ef11b136ea224fe,,,,,,,,,1986,-21,-90,1,0,0,response5disk,,3,-4,5,1,0,0,rectangle,-4,5,1,0,0,-4,5,1,0,0,0,33,33,10,1,,,,,,,,
,,,,,,,,,,,,,FF,,,,,,,,1.799,,,,,,,,,,,,,,,,,,,,,,61034f24da19cc56177b8b59,6103697efcf36e12043158bb,2021-07-30_04h54.08.608,Simcolourproject_2stim_asymm_v5,2020.2.10,Win32,60,61025ae37ef11b136ea224fe,,,,,,,,,787,73,-29,1,0,0,response3disk,,5,-5,14,1,0,0,rectangle,-5,14,1,0,0,-5,14,1,0,0,0,34,34,78,1,,,,,,,,
,,,,,,,,,,,,,FF,,,,,,,,3.232,,,,,,,,,,,,,,,,,,,,,,61034f24da19cc56177b8b59,6103697efcf36e12043158bb,2021-07-30_04h54.08.608,Simcolourproject_2stim_asymm_v5,2020.2.10,Win32,60,61025ae37ef11b136ea224fe,,,,,,,,,2842,27,-86,1,0,0,response3disk,,4,7,6,1,0,0,rectangle,7,6,1,0,0,7,6,1,0,0,0,35,35,54,1,,,,,,,,
,,,,,,,,,,,,,FF,,,,,,,,2.017,,,,,,,,,,,,,,,,,,,,,,61034f24da19cc56177b8b59,6103697efcf36e12043158bb,2021-07-30_04h54.08.608,Simcolourproject_2stim_asymm_v5,2020.2.10,Win32,60,61025ae37ef11b136ea224fe,,,,,,,,,1519,37,-71,1,0,0,response3disk,,4,11,0,1,0,0,rectangle,11,0,1,0,0,11,0,1,0,0,0,36,36,130,1,,,,,,,,
,,,,,,,,,,,,,FF,,,,,,,,1.933,,,,,,,,,,,,,,,,,,,,,,61034f24da19cc56177b8b59,6103697efcf36e12043158bb,2021-07-30_04h54.08.608,Simcolourproject_2stim_asymm_v5,2020.2.10,Win32,60,61025ae37ef11b136ea224fe,,,,,,,,,401,86,-29,1,0,0,response3disk,,5,-3,1,1,0,0,rectangle,-3,1,1,0,0,-3,1,1,0,0,0,37,37,113,1,,,,,,,,
,,,,,,,,,,,,,FF,,,,,,,,2.648,,,,,,,,,,,,,,,,,,,,,,61034f24da19cc56177b8b59,6103697efcf36e12043158bb,2021-07-30_04h54.08.608,Simcolourproject_2stim_asymm_v5,2020.2.10,Win32,60,61025ae37ef11b136ea224fe,,,,,,,,,2585,71,-32,1,0,0,response3disk,,5,-5,3,1,0,0,rectangle,-5,3,1,0,0,-5,3,1,0,0,0,38,38,61,1,,,,,,,,
,,,,,,,,,,,,,FF,,,,,,,,2.148,,,,,,,,,,,,,,,,,,,,,,61034f24da19cc56177b8b59,6103697efcf36e12043158bb,2021-07-30_04h54.08.608,Simcolourproject_2stim_asymm_v5,2020.2.10,Win32,60,61025ae37ef11b136ea224fe,,,,,,,,,234,65,-34,1,0,0,response3disk,,5,13,1,1,0,0,rectangle,13,1,1,0,0,13,1,1,0,0,0,39,39,84,1,,,,,,,,
,,,,,,,,,,,,,FF,,,,,,,,2.065,,,,,,,,,,,,,,,,,,,,,,61034f24da19cc56177b8b59,6103697efcf36e12043158bb,2021-07-30_04h54.08.608,Simcolourproject_2stim_asymm_v5,2020.2.10,Win32,60,61025ae37ef11b136ea224fe,,,,,,,,,3344,-61,-75,1,0,0,response5disk,,3,0,3,1,0,0,rectangle,0,3,1,0,0,0,3,1,0,0,0,40,40,134,1,,,,,,,,
,,,,,,,,,,,,,FF,,,,,,,,2.249,,,,,,,,,,,,,,,,,,,,,,61034f24da19cc56177b8b59,6103697efcf36e12043158bb,2021-07-30_04h54.08.608,Simcolourproject_2stim_asymm_v5,2020.2.10,Win32,60,61025ae37ef11b136ea224fe,,,,,,,,,3093,-89,-31,1,0,0,response5disk,,2,-29,-1,1,0,0,rectangle,-29,-1,1,0,0,-29,-1,1,0,0,0,41,41,65,1,,,,,,,,
,,,,,,,,,,,,,FF,,,,,,,,1.313,,,,,,,,,,,,,,,,,,,,,,61034f24da19cc56177b8b59,6103697efcf36e12043158bb,2021-07-30_04h54.08.608,Simcolourproject_2stim_asymm_v5,2020.2.10,Win32,60,61025ae37ef11b136ea224fe,,,,,,,,,4114,-42,-74,1,0,0,response5disk,,3,-13,-4,1,0,0,rectangle,-13,-4,1,0,0,-13,-4,1,0,0,0,42,42,92,1,,,,,,,,
,,,,,,,,,,,,,FF,,,,,,,,4.899,,,,,,,,,,,,,,,,,,,,,,61034f24da19cc56177b8b59,6103697efcf36e12043158bb,2021-07-30_04h54.08.608,Simcolourproject_2stim_asymm_v5,2020.2.10,Win32,60,61025ae37ef11b136ea224fe,,,,,,,,,4357,54,-93,1,0,0,response3disk,,4,5,3,1,0,0,rectangle,5,3,1,0,0,5,3,1,0,0,0,43,43,1,1,,,,,,,,
,,,,,,,,,,,,,FF,,,,,,,,1.732,,,,,,,,,,,,,,,,,,,,,,61034f24da19cc56177b8b59,6103697efcf36e12043158bb,2021-07-30_04h54.08.608,Simcolourproject_2stim_asymm_v5,2020.2.10,Win32,60,61025ae37ef11b136ea224fe,,,,,,,,,3281,71,-51,1,0,0,response3disk,,5,3,13,1,0,0,rectangle,3,13,1,0,0,3,13,1,0,0,0,44,44,108,1,,,,,,,,
,,,,,,,,,,,,,FF,,,,,,,,1.467,,,,,,,,,,,,,,,,,,,,,,61034f24da19cc56177b8b59,6103697efcf36e12043158bb,2021-07-30_04h54.08.608,Simcolourproject_2stim_asymm_v5,2020.2.10,Win32,60,61025ae37ef11b136ea224fe,,,,,,,,,553,-42,-77,1,0,0,response5disk,,3,-13,8,1,0,0,rectangle,-13,8,1,0,0,-13,8,1,0,0,0,45,45,153,1,,,,,,,,
,,,,,,,,,,,,,FF,,,,,,,,1.183,,,,,,,,,,,,,,,,,,,,,,61034f24da19cc56177b8b59,6103697efcf36e12043158bb,2021-07-30_04h54.08.608,Simcolourproject_2stim_asymm_v5,2020.2.10,Win32,60,61025ae37ef11b136ea224fe,,,,,,,,,502,72,-37,1,0,0,response3disk,,5,19,1,1,0,0,rectangle,19,1,1,0,0,19,1,1,0,0,0,46,46,94,1,,,,,,,,
,,,,,,,,,,,,,FF,,,,,,,,1.367,,,,,,,,,,,,,,,,,,,,,,61034f24da19cc56177b8b59,6103697efcf36e12043158bb,2021-07-30_04h54.08.608,Simcolourproject_2stim_asymm_v5,2020.2.10,Win32,60,61025ae37ef11b136ea224fe,,,,,,,,,904,-73,-38,1,0,0,response5disk,,2,-1,1,1,0,0,rectangle,-1,1,1,0,0,-1,1,1,0,0,0,47,47,9,1,,,,,,,,
,,,,,,,,,,,,,FF,,,,,,,,2.089,,,,,,,,,,,,,,,,,,,,,,61034f24da19cc56177b8b59,6103697efcf36e12043158bb,2021-07-30_04h54.08.608,Simcolourproject_2stim_asymm_v5,2020.2.10,Win32,60,61025ae37ef11b136ea224fe,,,,,,,,,1798,36,-89,1,0,0,response3disk,,4,6,-9,1,0,0,rectangle,6,-9,1,0,0,6,-9,1,0,0,0,48,48,125,1,,,,,,,,
,,,,,,,,,,,,,FF,,,,,,,,1.566,,,,,,,,,,,,,,,,,,,,,,61034f24da19cc56177b8b59,6103697efcf36e12043158bb,2021-07-30_04h54.08.608,Simcolourproject_2stim_asymm_v5,2020.2.10,Win32,60,61025ae37ef11b136ea224fe,,,,,,,,,2641,61,-43,1,0,0,response3disk,,5,23,2,1,0,0,rectangle,23,2,1,0,0,23,2,1,0,0,0,49,49,111,1,,,,,,,,
,,,,,,,,,,,,,FF,,,,,,,,2.116,,,,,,,,,,,,,,,,,,,,,,61034f24da19cc56177b8b59,6103697efcf36e12043158bb,2021-07-30_04h54.08.608,Simcolourproject_2stim_asymm_v5,2020.2.10,Win32,60,61025ae37ef11b136ea224fe,,,,,,,,,2877,-70,-50,1,0,0,response5disk,,2,3,3,1,0,0,rectangle,3,3,1,0,0,3,3,1,0,0,0,50,50,14,1,,,,,,,,
,,,,,,,,,,,,,FF,,,,,,,,2.449,,,,,,,,,,,,,,,,,,,,,,61034f24da19cc56177b8b59,6103697efcf36e12043158bb,2021-07-30_04h54.08.608,Simcolourproject_2stim_asymm_v5,2020.2.10,Win32,60,61025ae37ef11b136ea224fe,,,,,,,,,1080,-40,-78,1,0,0,response5disk,,3,16,5,1,0,0,rectangle,16,5,1,0,0,16,5,1,0,0,0,51,51,28,1,,,,,,,,
,,,,,,,,,,,,,FF,,,,,,,,1.647,,,,,,,,,,,,,,,,,,,,,,61034f24da19cc56177b8b59,6103697efcf36e12043158bb,2021-07-30_04h54.08.608,Simcolourproject_2stim_asymm_v5,2020.2.10,Win32,60,61025ae37ef11b136ea224fe,,,,,,,,,3224,54,-81,1,0,0,response3disk,,4,1,0,1,0,0,rectangle,1,0,1,0,0,1,0,1,0,0,0,52,52,155,1,,,,,,,,
,,,,,,,,,,,,,FF,,,,,,,,1.749,,,,,,,,,,,,,,,,,,,,,,61034f24da19cc56177b8b59,6103697efcf36e12043158bb,2021-07-30_04h54.08.608,Simcolourproject_2stim_asymm_v5,2020.2.10,Win32,60,61025ae37ef11b136ea224fe,,,,,,,,,852,59,-25,1,0,0,response3disk,,5,16,14,1,0,0,rectangle,16,14,1,0,0,16,14,1,0,0,0,53,53,22,1,,,,,,,,
,,,,,,,,,,,,,FF,,,,,,,,2.583,,,,,,,,,,,,,,,,,,,,,,61034f24da19cc56177b8b59,6103697efcf36e12043158bb,2021-07-30_04h54.08.608,Simcolourproject_2stim_asymm_v5,2020.2.10,Win32,60,61025ae37ef11b136ea224fe,,,,,,,,,4198,89,-39,1,0,0,response3disk,,5,-9,-7,1,0,0,rectangle,-9,-7,1,0,0,-9,-7,1,0,0,0,54,54,46,1,,,,,,,,
,,,,,,,,,,,,,FF,,,,,,,,2.199,,,,,,,,,,,,,,,,,,,,,,61034f24da19cc56177b8b59,6103697efcf36e12043158bb,2021-07-30_04h54.08.608,Simcolourproject_2stim_asymm_v5,2020.2.10,Win32,60,61025ae37ef11b136ea224fe,,,,,,,,,1427,85,39,1,0,0,response1disk,,6,11,-1,1,0,0,rectangle,11,-1,1,0,0,11,-1,1,0,0,0,55,55,120,1,,,,,,,,
,,,,,,,,,,,,,FF,,,,,,,,1.916,,,,,,,,,,,,,,,,,,,,,,61034f24da19cc56177b8b59,6103697efcf36e12043158bb,2021-07-30_04h54.08.608,Simcolourproject_2stim_asymm_v5,2020.2.10,Win32,60,61025ae37ef11b136ea224fe,,,,,,,,,1914,-41,-81,1,0,0,response5disk,,3,-26,3,1,0,0,rectangle,-26,3,1,0,0,-26,3,1,0,0,0,56,56,37,1,,,,,,,,
,,,,,,,,,,,,,FF,,,,,,,,1.766,,,,,,,,,,,,,,,,,,,,,,61034f24da19cc56177b8b59,6103697efcf36e12043158bb,2021-07-30_04h54.08.608,Simcolourproject_2stim_asymm_v5,2020.2.10,Win32,60,61025ae37ef11b136ea224fe,,,,,,,,,2158,77,39,1,0,0,response1disk,,6,19,5,1,0,0,rectangle,19,5,1,0,0,19,5,1,0,0,0,57,57,86,1,,,,,,,,
,,,,,,,,,,,,,FF,,,,,,,,2.982,,,,,,,,,,,,,,,,,,,,,,61034f24da19cc56177b8b59,6103697efcf36e12043158bb,2021-07-30_04h54.08.608,Simcolourproject_2stim_asymm_v5,2020.2.10,Win32,60,61025ae37ef11b136ea224fe,,,,,,,,,1607,-83,-43,1,0,0,response5disk,,2,-15,-7,1,0,0,rectangle,-15,-7,1,0,0,-15,-7,1,0,0,0,58,58,30,1,,,,,,,,
,,,,,,,,,,,,,FF,,,,,,,,1.683,,,,,,,,,,,,,,,,,,,,,,61034f24da19cc56177b8b59,6103697efcf36e12043158bb,2021-07-30_04h54.08.608,Simcolourproject_2stim_asymm_v5,2020.2.10,Win32,60,61025ae37ef11b136ea224fe,,,,,,,,,1343,92,43,1,0,0,response1disk,,6,11,1,1,0,0,rectangle,11,1,1,0,0,11,1,1,0,0,0,59,59,101,1,,,,,,,,
,,,,,,,,,,,,,FF,,,,,,,,2.772,,,,,,,,,,,,,,,,,,,,,,61034f24da19cc56177b8b59,6103697efcf36e12043158bb,2021-07-30_04h54.08.608,Simcolourproject_2stim_asymm_v5,2020.2.10,Win32,60,61025ae37ef11b136ea224fe,,,,,,,,,2591,33,-81,1,0,0,response3disk,,4,14,11,1,0,0,rectangle,14,11,1,0,0,14,11,1,0,0,0,60,60,77,1,,,,,,,,
,,,,,,,,,,,,,FF,,,,,,,,1.984,,,,,,,,,,,,,,,,,,,,,,61034f24da19cc56177b8b59,6103697efcf36e12043158bb,2021-07-30_04h54.08.608,Simcolourproject_2stim_asymm_v5,2020.2.10,Win32,60,61025ae37ef11b136ea224fe,,,,,,,,,3460,45,80,1,0,0,response1disk,,7,-1,5,1,0,0,rectangle,-1,5,1,0,0,-1,5,1,0,0,0,61,61,133,1,,,,,,,,
,,,,,,,,,,,,,FF,,,,,,,,2.2,,,,,,,,,,,,,,,,,,,,,,61034f24da19cc56177b8b59,6103697efcf36e12043158bb,2021-07-30_04h54.08.608,Simcolourproject_2stim_asymm_v5,2020.2.10,Win32,60,61025ae37ef11b136ea224fe,,,,,,,,,133,69,-40,1,0,0,response3disk,,5,23,-2,1,0,0,rectangle,23,-2,1,0,0,23,-2,1,0,0,0,62,62,70,1,,,,,,,,
,,,,,,,,,,,,,FF,,,,,,,,1.367,,,,,,,,,,,,,,,,,,,,,,61034f24da19cc56177b8b59,6103697efcf36e12043158bb,2021-07-30_04h54.08.608,Simcolourproject_2stim_asymm_v5,2020.2.10,Win32,60,61025ae37ef11b136ea224fe,,,,,,,,,181,45,-88,1,0,0,response3disk,,4,18,-2,1,0,0,rectangle,18,-2,1,0,0,18,-2,1,0,0,0,63,63,20,1,,,,,,,,
,,,,,,,,,,,,,FF,,,,,,,,1.214,,,,,,,,,,,,,,,,,,,,,,61034f24da19cc56177b8b59,6103697efcf36e12043158bb,2021-07-30_04h54.08.608,Simcolourproject_2stim_asymm_v5,2020.2.10,Win32,60,61025ae37ef11b136ea224fe,,,,,,,,,75,-85,-39,1,0,0,response5disk,,2,-9,3,1,0,0,rectangle,-9,3,1,0,0,-9,3,1,0,0,0,64,64,80,1,,,,,,,,
,,,,,,,,,,,,,FF,,,,,,,,4.116,,,,,,,,,,,,,,,,,,,,,,61034f24da19cc56177b8b59,6103697efcf36e12043158bb,2021-07-30_04h54.08.608,Simcolourproject_2stim_asymm_v5,2020.2.10,Win32,60,61025ae37ef11b136ea224fe,,,,,,,,,1413,78,-39,1,0,0,response3disk,,5,-11,1,1,0,0,rectangle,-11,1,1,0,0,-11,1,1,0,0,0,65,65,71,1,,,,,,,,
,,,,,,,,,,,,,FF,,,,,,,,2.839,,,,,,,,,,,,,,,,,,,,,,61034f24da19cc56177b8b59,6103697efcf36e12043158bb,2021-07-30_04h54.08.608,Simcolourproject_2stim_asymm_v5,2020.2.10,Win32,60,61025ae37ef11b136ea224fe,,,,,,,,,621,-73,-24,1,0,0,response5disk,,2,-1,3,1,0,0,rectangle,-1,3,1,0,0,-1,3,1,0,0,0,66,66,69,1,,,,,,,,
,,,,,,,,,,,,,FF,,,,,,,,1.193,,,,,,,,,,,,,,,,,,,,,,61034f24da19cc56177b8b59,6103697efcf36e12043158bb,2021-07-30_04h54.08.608,Simcolourproject_2stim_asymm_v5,2020.2.10,Win32,60,61025ae37ef11b136ea224fe,,,,,,,,,4144,-85,-17,1,0,0,response5disk,,2,-17,1,1,0,0,rectangle,-17,1,1,0,0,-17,1,1,0,0,0,67,67,107,1,,,,,,,,
,,,,,,,,,,,,,FF,,,,,,,,0.92,,,,,,,,,,,,,,,,,,,,,,61034f24da19cc56177b8b59,6103697efcf36e12043158bb,2021-07-30_04h54.08.608,Simcolourproject_2stim_asymm_v5,2020.2.10,Win32,60,61025ae37ef11b136ea224fe,,,,,,,,,439,-67,-41,1,0,0,response5disk,,2,-3,-9,1,0,0,rectangle,-3,-9,1,0,0,-3,-9,1,0,0,0,68,68,38,1,,,,,,,,
,,,,,,,,,,,,,FF,,,,,,,,1.001,,,,,,,,,,,,,,,,,,,,,,61034f24da19cc56177b8b59,6103697efcf36e12043158bb,2021-07-30_04h54.08.608,Simcolourproject_2stim_asymm_v5,2020.2.10,Win32,60,61025ae37ef11b136ea224fe,,,,,,,,,641,-76,-31,1,0,0,response5disk,,2,-3,-4,1,0,0,rectangle,61,29,1,0,0,-3,5,1,0,0,0,69,69,158,1,,response1disk_3,TRUE,6,6,"[155,250,28,244,140,78,236,190,197,159,158,209,104,108,70,129,202,217,17,289]",1.849,rectangle
,,,,,,,,,,,,,FF,,,,,,,,1.205,,,,,,,,,,,,,,,,,,,,,,61034f24da19cc56177b8b59,6103697efcf36e12043158bb,2021-07-30_04h54.08.608,Simcolourproject_2stim_asymm_v5,2020.2.10,Win32,60,61025ae37ef11b136ea224fe,,,,,,,,,887,-79,16,1,0,0,response7disk,,1,0,0,1,0,0,rectangle,0,0,1,0,0,0,0,1,0,0,0,70,70,112,1,,,,,,,,
,,,,,,,,,,,,,FF,,,,,,,,1.402,,,,,,,,,,,,,,,,,,,,,,61034f24da19cc56177b8b59,6103697efcf36e12043158bb,2021-07-30_04h54.08.608,Simcolourproject_2stim_asymm_v5,2020.2.10,Win32,60,61025ae37ef11b136ea224fe,,,,,,,,,4056,-81,-25,1,0,0,response5disk,,2,-9,7,1,0,0,rectangle,-9,7,1,0,0,-9,7,1,0,0,0,71,71,97,1,,,,,,,,
,,,,,,,,,,,,,FF,,,,,,,,0.935,,,,,,,,,,,,,,,,,,,,,,61034f24da19cc56177b8b59,6103697efcf36e12043158bb,2021-07-30_04h54.08.608,Simcolourproject_2stim_asymm_v5,2020.2.10,Win32,60,61025ae37ef11b136ea224fe,,,,,,,,,1145,-85,60,1,0,0,response7disk,,1,22,5,1,0,0,rectangle,22,5,1,0,0,22,5,1,0,0,0,72,72,76,1,,,,,,,,
,,,,,,,,,,,,,FF,,,,,,,,1.465,,,,,,,,,,,,,,,,,,,,,,61034f24da19cc56177b8b59,6103697efcf36e12043158bb,2021-07-30_04h54.08.608,Simcolourproject_2stim_asymm_v5,2020.2.10,Win32,60,61025ae37ef11b136ea224fe,,,,,,,,,1328,-45,-77,1,0,0,response5disk,,3,-4,2,1,0,0,rectangle,-4,2,1,0,0,-4,2,1,0,0,0,73,73,19,1,,,,,,,,
,,,,,,,,,,,,,FF,,,,,,,,1.698,,,,,,,,,,,,,,,,,,,,,,61034f24da19cc56177b8b59,6103697efcf36e12043158bb,2021-07-30_04h54.08.608,Simcolourproject_2stim_asymm_v5,2020.2.10,Win32,60,61025ae37ef11b136ea224fe,,,,,,,,,2329,99,-64,1,0,0,response3disk,,5,7,1,1,0,0,rectangle,7,1,1,0,0,7,1,1,0,0,0,74,74,26,1,,,,,,,,
,,,,,,,,,,,,,FF,,,,,,,,1.948,,,,,,,,,,,,,,,,,,,,,,61034f24da19cc56177b8b59,6103697efcf36e12043158bb,2021-07-30_04h54.08.608,Simcolourproject_2stim_asymm_v5,2020.2.10,Win32,60,61025ae37ef11b136ea224fe,,,,,,,,,607,70,38,1,0,0,response1disk,,6,11,2,1,0,0,rectangle,11,2,1,0,0,11,2,1,0,0,0,75,75,141,1,,,,,,,,
,,,,,,,,,,,,,FF,,,,,,,,1.049,,,,,,,,,,,,,,,,,,,,,,61034f24da19cc56177b8b59,6103697efcf36e12043158bb,2021-07-30_04h54.08.608,Simcolourproject_2stim_asymm_v5,2020.2.10,Win32,60,61025ae37ef11b136ea224fe,,,,,,,,,3783,-69,-29,1,0,0,response5disk,,2,-17,-4,1,0,0,rectangle,-17,-4,1,0,0,-17,-4,1,0,0,0,76,76,17,1,,,,,,,,
,,,,,,,,,,,,,FF,,,,,,,,1.319,,,,,,,,,,,,,,,,,,,,,,61034f24da19cc56177b8b59,6103697efcf36e12043158bb,2021-07-30_04h54.08.608,Simcolourproject_2stim_asymm_v5,2020.2.10,Win32,60,61025ae37ef11b136ea224fe,,,,,,,,,55,33,-102,1,0,0,response3disk,,4,6,10,1,0,0,rectangle,-73,28,1,0,0,6,3,1,0,0,0,77,77,143,1,,response7disk_3,TRUE,1,1,"[155,250,28,244,140,78,236,190,197,159,158,209,104,108,70,129,202,217,17,289]",1.866,rectangle
,,,,,,,,,,,,,FF,,,,,,,,2.098,,,,,,,,,,,,,,,,,,,,,,61034f24da19cc56177b8b59,6103697efcf36e12043158bb,2021-07-30_04h54.08.608,Simcolourproject_2stim_asymm_v5,2020.2.10,Win32,60,61025ae37ef11b136ea224fe,,,,,,,,,4296,71,42,1,0,0,response1disk,,6,6,2,1,0,0,rectangle,6,2,1,0,0,6,2,1,0,0,0,78,78,138,1,,,,,,,,
,,,,,,,,,,,,,FF,,,,,,,,2.166,,,,,,,,,,,,,,,,,,,,,,61034f24da19cc56177b8b59,6103697efcf36e12043158bb,2021-07-30_04h54.08.608,Simcolourproject_2stim_asymm_v5,2020.2.10,Win32,60,61025ae37ef11b136ea224fe,,,,,,,,,4196,40,-89,1,0,0,response3disk,,4,13,12,1,0,0,rectangle,13,12,1,0,0,13,12,1,0,0,0,79,79,60,1,,,,,,,,
,,,,,,,,,,,,,FF,,,,,,,,2.599,,,,,,,,,,,,,,,,,,,,,,61034f24da19cc56177b8b59,6103697efcf36e12043158bb,2021-07-30_04h54.08.608,Simcolourproject_2stim_asymm_v5,2020.2.10,Win32,60,61025ae37ef11b136ea224fe,,,,,,,,,731,-73,-42,1,0,0,response5disk,,2,9,-11,1,0,0,rectangle,9,-11,1,0,0,9,-11,1,0,0,0,80,80,131,1,,,,,,,,
,,,,,,,,,,,,,FF,,,,,,,,1.288,,,,,,,,,,,,,,,,,,,,,,61034f24da19cc56177b8b59,6103697efcf36e12043158bb,2021-07-30_04h54.08.608,Simcolourproject_2stim_asymm_v5,2020.2.10,Win32,60,61025ae37ef11b136ea224fe,,,,,,,,,1797,63,32,1,0,0,response1disk,,6,9,3,1,0,0,rectangle,9,3,1,0,0,9,3,1,0,0,0,81,81,154,1,,,,,,,,
,,,,,,,,,,,,,FF,,,,,,,,1.864,,,,,,,,,,,,,,,,,,,,,,61034f24da19cc56177b8b59,6103697efcf36e12043158bb,2021-07-30_04h54.08.608,Simcolourproject_2stim_asymm_v5,2020.2.10,Win32,60,61025ae37ef11b136ea224fe,,,,,,,,,3843,-73,27,1,0,0,response7disk,,1,6,9,1,0,0,rectangle,6,9,1,0,0,6,9,1,0,0,0,82,82,27,1,,,,,,,,
,,,,,,,,,,,,,FF,,,,,,,,1.883,,,,,,,,,,,,,,,,,,,,,,61034f24da19cc56177b8b59,6103697efcf36e12043158bb,2021-07-30_04h54.08.608,Simcolourproject_2stim_asymm_v5,2020.2.10,Win32,60,61025ae37ef11b136ea224fe,,,,,,,,,2691,47,-83,1,0,0,response3disk,,4,13,7,1,0,0,rectangle,13,7,1,0,0,13,7,1,0,0,0,83,83,87,1,,,,,,,,
,,,,,,,,,,,,,FF,,,,,,,,1.468,,,,,,,,,,,,,,,,,,,,,,61034f24da19cc56177b8b59,6103697efcf36e12043158bb,2021-07-30_04h54.08.608,Simcolourproject_2stim_asymm_v5,2020.2.10,Win32,60,61025ae37ef11b136ea224fe,,,,,,,,,909,-72,-39,1,0,0,response5disk,,2,-9,-5,1,0,0,rectangle,-9,-5,1,0,0,-9,-5,1,0,0,0,84,84,12,1,,,,,,,,
,,,,,,,,,,,,,FF,,,,,,,,2.3,,,,,,,,,,,,,,,,,,,,,,61034f24da19cc56177b8b59,6103697efcf36e12043158bb,2021-07-30_04h54.08.608,Simcolourproject_2stim_asymm_v5,2020.2.10,Win32,60,61025ae37ef11b136ea224fe,,,,,,,,,343,-61,-37,1,0,0,response5disk,,2,-1,-14,1,0,0,rectangle,-1,-14,1,0,0,-1,-14,1,0,0,0,85,85,115,1,,,,,,,,
,,,,,,,,,,,,,FF,,,,,,,,1.406,,,,,,,,,,,,,,,,,,,,,,61034f24da19cc56177b8b59,6103697efcf36e12043158bb,2021-07-30_04h54.08.608,Simcolourproject_2stim_asymm_v5,2020.2.10,Win32,60,61025ae37ef11b136ea224fe,,,,,,,,,897,-75,-39,1,0,0,response5disk,,2,0,3,1,0,0,rectangle,0,3,1,0,0,0,3,1,0,0,0,86,86,53,1,,,,,,,,
,,,,,,,,,,,,,FF,,,,,,,,1.149,,,,,,,,,,,,,,,,,,,,,,61034f24da19cc56177b8b59,6103697efcf36e12043158bb,2021-07-30_04h54.08.608,Simcolourproject_2stim_asymm_v5,2020.2.10,Win32,60,61025ae37ef11b136ea224fe,,,,,,,,,3312,47,-80,1,0,0,response3disk,,4,7,3,1,0,0,rectangle,7,3,1,0,0,7,3,1,0,0,0,87,87,56,1,,,,,,,,
,,,,,,,,,,,,,FF,,,,,,,,1.65,,,,,,,,,,,,,,,,,,,,,,61034f24da19cc56177b8b59,6103697efcf36e12043158bb,2021-07-30_04h54.08.608,Simcolourproject_2stim_asymm_v5,2020.2.10,Win32,60,61025ae37ef11b136ea224fe,,,,,,,,,1018,96,-37,1,0,0,response3disk,,5,-3,7,1,0,0,rectangle,-3,7,1,0,0,-3,7,1,0,0,0,88,88,126,1,,,,,,,,
,,,,,,,,,,,,,FF,,,,,,,,1.983,,,,,,,,,,,,,,,,,,,,,,61034f24da19cc56177b8b59,6103697efcf36e12043158bb,2021-07-30_04h54.08.608,Simcolourproject_2stim_asymm_v5,2020.2.10,Win32,60,61025ae37ef11b136ea224fe,,,,,,,,,1332,36,-79,1,0,0,response3disk,,4,0,1,1,0,0,rectangle,0,1,1,0,0,0,1,1,0,0,0,89,89,21,1,,,,,,,,
,,,,,,,,,,,,,FF,,,,,,,,1.717,,,,,,,,,,,,,,,,,,,,,,61034f24da19cc56177b8b59,6103697efcf36e12043158bb,2021-07-30_04h54.08.608,Simcolourproject_2stim_asymm_v5,2020.2.10,Win32,60,61025ae37ef11b136ea224fe,,,,,,,,,3803,57,-85,1,0,0,response3disk,,4,11,5,1,0,0,rectangle,11,5,1,0,0,11,5,1,0,0,0,90,90,25,1,,,,,,,,
,,,,,,,,,,,,,FF,,,,,,,,1.299,,,,,,,,,,,,,,,,,,,,,,61034f24da19cc56177b8b59,6103697efcf36e12043158bb,2021-07-30_04h54.08.608,Simcolourproject_2stim_asymm_v5,2020.2.10,Win32,60,61025ae37ef11b136ea224fe,,,,,,,,,3057,-75,-37,1,0,0,response5disk,,2,-15,-9,1,0,0,rectangle,-15,-9,1,0,0,-15,-9,1,0,0,0,91,91,144,1,,,,,,,,
,,,,,,,,,,,,,FF,,,,,,,,1.199,,,,,,,,,,,,,,,,,,,,,,61034f24da19cc56177b8b59,6103697efcf36e12043158bb,2021-07-30_04h54.08.608,Simcolourproject_2stim_asymm_v5,2020.2.10,Win32,60,61025ae37ef11b136ea224fe,,,,,,,,,1949,-43,-76,1,0,0,response5disk,,3,-3,7,1,0,0,rectangle,-3,7,1,0,0,-3,7,1,0,0,0,92,92,58,1,,,,,,,,
,,,,,,,,,,,,,FF,,,,,,,,1.369,,,,,,,,,,,,,,,,,,,,,,61034f24da19cc56177b8b59,6103697efcf36e12043158bb,2021-07-30_04h54.08.608,Simcolourproject_2stim_asymm_v5,2020.2.10,Win32,60,61025ae37ef11b136ea224fe,,,,,,,,,3644,36,-88,1,0,0,response3disk,,4,8,-3,1,0,0,rectangle,8,-3,1,0,0,8,-3,1,0,0,0,93,93,135,1,,,,,,,,
,,,,,,,,,,,,,FF,,,,,,,,2.233,,,,,,,,,,,,,,,,,,,,,,61034f24da19cc56177b8b59,6103697efcf36e12043158bb,2021-07-30_04h54.08.608,Simcolourproject_2stim_asymm_v5,2020.2.10,Win32,60,61025ae37ef11b136ea224fe,,,,,,,,,4090,57,-87,1,0,0,response3disk,,4,21,-6,1,0,0,rectangle,21,-6,1,0,0,21,-6,1,0,0,0,94,94,5,1,,,,,,,,
,,,,,,,,,,,,,FF,,,,,,,,1.499,,,,,,,,,,,,,,,,,,,,,,61034f24da19cc56177b8b59,6103697efcf36e12043158bb,2021-07-30_04h54.08.608,Simcolourproject_2stim_asymm_v5,2020.2.10,Win32,60,61025ae37ef11b136ea224fe,,,,,,,,,936,76,-39,1,0,0,response3disk,,5,0,10,1,0,0,rectangle,0,10,1,0,0,0,10,1,0,0,0,95,95,48,1,,,,,,,,
,,,,,,,,,,,,,FF,,,,,,,,1.484,,,,,,,,,,,,,,,,,,,,,,61034f24da19cc56177b8b59,6103697efcf36e12043158bb,2021-07-30_04h54.08.608,Simcolourproject_2stim_asymm_v5,2020.2.10,Win32,60,61025ae37ef11b136ea224fe,,,,,,,,,1690,33,-91,1,0,0,response3disk,,4,15,-5,1,0,0,rectangle,15,-5,1,0,0,15,-5,1,0,0,0,96,96,49,1,,,,,,,,
,,,,,,,,,,,,,FF,,,,,,,,1.49,,,,,,,,,,,,,,,,,,,,,,61034f24da19cc56177b8b59,6103697efcf36e12043158bb,2021-07-30_04h54.08.608,Simcolourproject_2stim_asymm_v5,2020.2.10,Win32,60,61025ae37ef11b136ea224fe,,,,,,,,,2320,49,-67,1,0,0,response3disk,,4,15,9,1,0,0,rectangle,15,9,1,0,0,15,9,1,0,0,0,97,97,98,1,,,,,,,,
,,,,,,,,,,,,,FF,,,,,,,,1.116,,,,,,,,,,,,,,,,,,,,,,61034f24da19cc56177b8b59,6103697efcf36e12043158bb,2021-07-30_04h54.08.608,Simcolourproject_2stim_asymm_v5,2020.2.10,Win32,60,61025ae37ef11b136ea224fe,,,,,,,,,4305,-84,26,1,0,0,response7disk,,1,1,-3,1,0,0,rectangle,1,-3,1,0,0,1,-3,1,0,0,0,98,98,103,1,,,,,,,,
,,,,,,,,,,,,,FF,,,,,,,,1.036,,,,,,,,,,,,,,,,,,,,,,61034f24da19cc56177b8b59,6103697efcf36e12043158bb,2021-07-30_04h54.08.608,Simcolourproject_2stim_asymm_v5,2020.2.10,Win32,60,61025ae37ef11b136ea224fe,,,,,,,,,131,-31,-79,1,0,0,response5disk,,3,-1,3,1,0,0,rectangle,-1,3,1,0,0,-1,3,1,0,0,0,99,99,132,1,,,,,,,,
,,,,,,,,,,,,,FF,,,,,,,,1.1,,,,,,,,,,,,,,,,,,,,,,61034f24da19cc56177b8b59,6103697efcf36e12043158bb,2021-07-30_04h54.08.608,Simcolourproject_2stim_asymm_v5,2020.2.10,Win32,60,61025ae37ef11b136ea224fe,,,,,,,,,1973,-83,-29,1,0,0,response5disk,,2,-10,9,1,0,0,rectangle,-10,9,1,0,0,-10,9,1,0,0,0,100,100,23,1,,,,,,,,
,,,,,,,,,,,,,FF,,,,,,,,1.588,,,,,,,,,,,,,,,,,,,,,,61034f24da19cc56177b8b59,6103697efcf36e12043158bb,2021-07-30_04h54.08.608,Simcolourproject_2stim_asymm_v5,2020.2.10,Win32,60,61025ae37ef11b136ea224fe,,,,,,,,,2806,31,-71,1,0,0,response3disk,,4,22,-2,1,0,0,rectangle,22,-2,1,0,0,22,-2,1,0,0,0,101,101,139,1,,,,,,,,
,,,,,,,,,,,,,FF,,,,,,,,0.917,,,,,,,,,,,,,,,,,,,,,,61034f24da19cc56177b8b59,6103697efcf36e12043158bb,2021-07-30_04h54.08.608,Simcolourproject_2stim_asymm_v5,2020.2.10,Win32,60,61025ae37ef11b136ea224fe,,,,,,,,,2423,-102,-43,1,0,0,response5disk,,2,-10,-7,1,0,0,rectangle,-10,-7,1,0,0,-10,-7,1,0,0,0,102,102,57,1,,,,,,,,
,,,,,,,,,,,,,FF,,,,,,,,1.866,,,,,,,,,,,,,,,,,,,,,,61034f24da19cc56177b8b59,6103697efcf36e12043158bb,2021-07-30_04h54.08.608,Simcolourproject_2stim_asymm_v5,2020.2.10,Win32,60,61025ae37ef11b136ea224fe,,,,,,,,,252,-47,-75,1,0,0,response5disk,,3,-19,-3,1,0,0,rectangle,47,-75,1,0,0,19,7,1,0,0,0,103,103,7,1,,response3disk_3,TRUE,4,4,"[155,250,28,244,140,78,236,190,197,159,158,209,104,108,70,129,202,217,17,289]",1.398,rectangle
,,,,,,,,,,,,,FF,,,,,,,,1.568,,,,,,,,,,,,,,,,,,,,,,61034f24da19cc56177b8b59,6103697efcf36e12043158bb,2021-07-30_04h54.08.608,Simcolourproject_2stim_asymm_v5,2020.2.10,Win32,60,61025ae37ef11b136ea224fe,,,,,,,,,6,28,-85,1,0,0,response3disk,,4,13,-1,1,0,0,rectangle,13,-1,1,0,0,13,-1,1,0,0,0,104,104,31,1,,,,,,,,
,,,,,,,,,,,,,FF,,,,,,,,0.988,,,,,,,,,,,,,,,,,,,,,,61034f24da19cc56177b8b59,6103697efcf36e12043158bb,2021-07-30_04h54.08.608,Simcolourproject_2stim_asymm_v5,2020.2.10,Win32,60,61025ae37ef11b136ea224fe,,,,,,,,,3210,44,-94,1,0,0,response3disk,,4,19,9,1,0,0,rectangle,19,9,1,0,0,19,9,1,0,0,0,105,105,72,1,,,,,,,,
,,,,,,,,,,,,,FF,,,,,,,,2.266,,,,,,,,,,,,,,,,,,,,,,61034f24da19cc56177b8b59,6103697efcf36e12043158bb,2021-07-30_04h54.08.608,Simcolourproject_2stim_asymm_v5,2020.2.10,Win32,60,61025ae37ef11b136ea224fe,,,,,,,,,1631,-41,-74,1,0,0,response5disk,,3,-10,4,1,0,0,rectangle,-10,4,1,0,0,-10,4,1,0,0,0,106,106,24,1,,,,,,,,
,,,,,,,,,,,,,FF,,,,,,,,2.232,,,,,,,,,,,,,,,,,,,,,,61034f24da19cc56177b8b59,6103697efcf36e12043158bb,2021-07-30_04h54.08.608,Simcolourproject_2stim_asymm_v5,2020.2.10,Win32,60,61025ae37ef11b136ea224fe,,,,,,,,,2774,58,38,1,0,0,response1disk,,6,10,-1,1,0,0,rectangle,67,-65,1,0,0,5,-1,1,0,0,0,107,107,117,1,,response3disk_3,TRUE,5,5,"[155,250,28,244,140,78,236,190,197,159,158,209,104,108,70,129,202,217,17,289]",1.666,rectangle
,,,,,,,,,,,,,FF,,,,,,,,1.157,,,,,,,,,,,,,,,,,,,,,,61034f24da19cc56177b8b59,6103697efcf36e12043158bb,2021-07-30_04h54.08.608,Simcolourproject_2stim_asymm_v5,2020.2.10,Win32,60,61025ae37ef11b136ea224fe,,,,,,,,,335,29,-94,1,0,0,response3disk,,4,-2,3,1,0,0,rectangle,-2,3,1,0,0,-2,3,1,0,0,0,108,108,35,1,,,,,,,,
,,,,,,,,,,,,,FF,,,,,,,,2.049,,,,,,,,,,,,,,,,,,,,,,61034f24da19cc56177b8b59,6103697efcf36e12043158bb,2021-07-30_04h54.08.608,Simcolourproject_2stim_asymm_v5,2020.2.10,Win32,60,61025ae37ef11b136ea224fe,,,,,,,,,3866,78,-43,1,0,0,response3disk,,5,11,6,1,0,0,rectangle,11,6,1,0,0,11,6,1,0,0,0,109,109,146,1,,,,,,,,
,,,,,,,,,,,,,FF,,,,,,,,1.084,,,,,,,,,,,,,,,,,,,,,,61034f24da19cc56177b8b59,6103697efcf36e12043158bb,2021-07-30_04h54.08.608,Simcolourproject_2stim_asymm_v5,2020.2.10,Win32,60,61025ae37ef11b136ea224fe,,,,,,,,,1452,-65,-33,1,0,0,response5disk,,2,-14,5,1,0,0,rectangle,-14,5,1,0,0,-14,5,1,0,0,0,110,110,50,1,,,,,,,,
,,,,,,,,,,,,,FF,,,,,,,,1.95,,,,,,,,,,,,,,,,,,,,,,61034f24da19cc56177b8b59,6103697efcf36e12043158bb,2021-07-30_04h54.08.608,Simcolourproject_2stim_asymm_v5,2020.2.10,Win32,60,61025ae37ef11b136ea224fe,,,,,,,,,1486,39,-86,1,0,0,response3disk,,4,3,4,1,0,0,rectangle,3,4,1,0,0,3,4,1,0,0,0,111,111,43,1,,,,,,,,
,,,,,,,,,,,,,FF,,,,,,,,1.124,,,,,,,,,,,,,,,,,,,,,,61034f24da19cc56177b8b59,6103697efcf36e12043158bb,2021-07-30_04h54.08.608,Simcolourproject_2stim_asymm_v5,2020.2.10,Win32,60,61025ae37ef11b136ea224fe,,,,,,,,,506,33,-79,1,0,0,response3disk,,4,3,2,1,0,0,rectangle,3,2,1,0,0,3,2,1,0,0,0,112,112,59,1,,,,,,,,
,,,,,,,,,,,,,FF,,,,,,,,2.383,,,,,,,,,,,,,,,,,,,,,,61034f24da19cc56177b8b59,6103697efcf36e12043158bb,2021-07-30_04h54.08.608,Simcolourproject_2stim_asymm_v5,2020.2.10,Win32,60,61025ae37ef11b136ea224fe,,,,,,,,,3894,33,-81,1,0,0,response3disk,,4,3,-7,1,0,0,rectangle,3,-7,1,0,0,3,-7,1,0,0,0,113,113,93,1,,,,,,,,
,,,,,,,,,,,,,FF,,,,,,,,0.9,,,,,,,,,,,,,,,,,,,,,,61034f24da19cc56177b8b59,6103697efcf36e12043158bb,2021-07-30_04h54.08.608,Simcolourproject_2stim_asymm_v5,2020.2.10,Win32,60,61025ae37ef11b136ea224fe,,,,,,,,,3440,-45,-87,1,0,0,response5disk,,3,-5,-1,1,0,0,rectangle,-5,-1,1,0,0,-5,-1,1,0,0,0,114,114,16,1,,,,,,,,
,,,,,,,,,,,,,FF,,,,,,,,0.969,,,,,,,,,,,,,,,,,,,,,,61034f24da19cc56177b8b59,6103697efcf36e12043158bb,2021-07-30_04h54.08.608,Simcolourproject_2stim_asymm_v5,2020.2.10,Win32,60,61025ae37ef11b136ea224fe,,,,,,,,,1041,-87,-42,1,0,0,response5disk,,2,-13,1,1,0,0,rectangle,-13,1,1,0,0,-13,1,1,0,0,0,115,115,150,1,,,,,,,,
,,,,,,,,,,,,,FF,,,,,,,,1.032,,,,,,,,,,,,,,,,,,,,,,61034f24da19cc56177b8b59,6103697efcf36e12043158bb,2021-07-30_04h54.08.608,Simcolourproject_2stim_asymm_v5,2020.2.10,Win32,60,61025ae37ef11b136ea224fe,,,,,,,,,1719,40,-67,1,0,0,response3disk,,4,11,8,1,0,0,rectangle,11,8,1,0,0,11,8,1,0,0,0,116,116,121,1,,,,,,,,
,,,,,,,,,,,,,FF,,,,,,,,1.366,,,,,,,,,,,,,,,,,,,,,,61034f24da19cc56177b8b59,6103697efcf36e12043158bb,2021-07-30_04h54.08.608,Simcolourproject_2stim_asymm_v5,2020.2.10,Win32,60,61025ae37ef11b136ea224fe,,,,,,,,,794,27,-76,1,0,0,response3disk,,4,3,-5,1,0,0,rectangle,3,-5,1,0,0,3,-5,1,0,0,0,117,117,51,1,,,,,,,,
,,,,,,,,,,,,,FF,,,,,,,,0.885,,,,,,,,,,,,,,,,,,,,,,61034f24da19cc56177b8b59,6103697efcf36e12043158bb,2021-07-30_04h54.08.608,Simcolourproject_2stim_asymm_v5,2020.2.10,Win32,60,61025ae37ef11b136ea224fe,,,,,,,,,2263,65,-44,1,0,0,response3disk,,5,-7,11,1,0,0,rectangle,-7,11,1,0,0,-7,11,1,0,0,0,118,118,0,1,,,,,,,,
,,,,,,,,,,,,,FF,,,,,,,,1.166,,,,,,,,,,,,,,,,,,,,,,61034f24da19cc56177b8b59,6103697efcf36e12043158bb,2021-07-30_04h54.08.608,Simcolourproject_2stim_asymm_v5,2020.2.10,Win32,60,61025ae37ef11b136ea224fe,,,,,,,,,3893,39,-98,1,0,0,response3disk,,4,5,-1,1,0,0,rectangle,5,-1,1,0,0,5,-1,1,0,0,0,119,119,42,1,,,,,,,,
,,,,,,,,,,,,,FF,,,,,,,,0.87,,,,,,,,,,,,,,,,,,,,,,61034f24da19cc56177b8b59,6103697efcf36e12043158bb,2021-07-30_04h54.08.608,Simcolourproject_2stim_asymm_v5,2020.2.10,Win32,60,61025ae37ef11b136ea224fe,,,,,,,,,3056,-85,-31,1,0,0,response5disk,,2,-10,5,1,0,0,rectangle,-10,5,1,0,0,-10,5,1,0,0,0,120,120,32,1,,,,,,,,
,,,,,,,,,,,,,FF,,,,,,,,1.282,,,,,,,,,,,,,,,,,,,,,,61034f24da19cc56177b8b59,6103697efcf36e12043158bb,2021-07-30_04h54.08.608,Simcolourproject_2stim_asymm_v5,2020.2.10,Win32,60,61025ae37ef11b136ea224fe,,,,,,,,,1049,70,31,1,0,0,response1disk,,6,7,5,1,0,0,rectangle,7,5,1,0,0,7,5,1,0,0,0,121,121,81,1,,,,,,,,
,,,,,,,,,,,,,FF,,,,,,,,1.666,,,,,,,,,,,,,,,,,,,,,,61034f24da19cc56177b8b59,6103697efcf36e12043158bb,2021-07-30_04h54.08.608,Simcolourproject_2stim_asymm_v5,2020.2.10,Win32,60,61025ae37ef11b136ea224fe,,,,,,,,,4113,23,-94,1,0,0,response3disk,,4,4,-7,1,0,0,rectangle,4,-7,1,0,0,4,-7,1,0,0,0,122,122,44,1,,,,,,,,
,,,,,,,,,,,,,FF,,,,,,,,0.816,,,,,,,,,,,,,,,,,,,,,,61034f24da19cc56177b8b59,6103697efcf36e12043158bb,2021-07-30_04h54.08.608,Simcolourproject_2stim_asymm_v5,2020.2.10,Win32,60,61025ae37ef11b136ea224fe,,,,,,,,,2458,41,-85,1,0,0,response3disk,,4,-2,-1,1,0,0,rectangle,-2,-1,1,0,0,-2,-1,1,0,0,0,123,123,106,1,,,,,,,,
,,,,,,,,,,,,,FF,,,,,,,,1.666,,,,,,,,,,,,,,,,,,,,,,61034f24da19cc56177b8b59,6103697efcf36e12043158bb,2021-07-30_04h54.08.608,Simcolourproject_2stim_asymm_v5,2020.2.10,Win32,60,61025ae37ef11b136ea224fe,,,,,,,,,1516,-46,-82,1,0,0,response5disk,,3,7,3,1,0,0,rectangle,7,3,1,0,0,7,3,1,0,0,0,124,124,122,1,,,,,,,,
,,,,,,,,,,,,,FF,,,,,,,,1.232,,,,,,,,,,,,,,,,,,,,,,61034f24da19cc56177b8b59,6103697efcf36e12043158bb,2021-07-30_04h54.08.608,Simcolourproject_2stim_asymm_v5,2020.2.10,Win32,60,61025ae37ef11b136ea224fe,,,,,,,,,1657,75,-54,1,0,0,response3disk,,5,-20,9,1,0,0,rectangle,-20,9,1,0,0,-20,9,1,0,0,0,125,125,109,1,,,,,,,,
,,,,,,,,,,,,,FF,,,,,,,,1.25,,,,,,,,,,,,,,,,,,,,,,61034f24da19cc56177b8b59,6103697efcf36e12043158bb,2021-07-30_04h54.08.608,Simcolourproject_2stim_asymm_v5,2020.2.10,Win32,60,61025ae37ef11b136ea224fe,,,,,,,,,3091,-80,-37,1,0,0,response5disk,,2,-23,0,1,0,0,rectangle,-23,0,1,0,0,-23,0,1,0,0,0,126,126,62,1,,,,,,,,
,,,,,,,,,,,,,FF,,,,,,,,2.299,,,,,,,,,,,,,,,,,,,,,,61034f24da19cc56177b8b59,6103697efcf36e12043158bb,2021-07-30_04h54.08.608,Simcolourproject_2stim_asymm_v5,2020.2.10,Win32,60,61025ae37ef11b136ea224fe,,,,,,,,,178,-39,-89,1,0,0,response5disk,,3,4,5,1,0,0,rectangle,4,5,1,0,0,4,5,1,0,0,0,127,127,88,1,,,,,,,,
,,,,,,,,,,,,,FF,,,,,,,,0.848,,,,,,,,,,,,,,,,,,,,,,61034f24da19cc56177b8b59,6103697efcf36e12043158bb,2021-07-30_04h54.08.608,Simcolourproject_2stim_asymm_v5,2020.2.10,Win32,60,61025ae37ef11b136ea224fe,,,,,,,,,2890,-80,-27,1,0,0,response5disk,,2,-2,-1,1,0,0,rectangle,85,45,1,0,0,5,0,1,0,0,0,128,128,68,1,,response1disk_3,TRUE,6,6,"[155,250,28,244,140,78,236,190,197,159,158,209,104,108,70,129,202,217,17,289]",2.833,rectangle
,,,,,,,,,,,,,FF,,,,,,,,2.332,,,,,,,,,,,,,,,,,,,,,,61034f24da19cc56177b8b59,6103697efcf36e12043158bb,2021-07-30_04h54.08.608,Simcolourproject_2stim_asymm_v5,2020.2.10,Win32,60,61025ae37ef11b136ea224fe,,,,,,,,,620,-39,-71,1,0,0,response5disk,,3,-20,-12,1,0,0,rectangle,-20,-12,1,0,0,-20,-12,1,0,0,0,129,129,4,1,,,,,,,,
,,,,,,,,,,,,,FF,,,,,,,,0.915,,,,,,,,,,,,,,,,,,,,,,61034f24da19cc56177b8b59,6103697efcf36e12043158bb,2021-07-30_04h54.08.608,Simcolourproject_2stim_asymm_v5,2020.2.10,Win32,60,61025ae37ef11b136ea224fe,,,,,,,,,2267,33,-84,1,0,0,response3disk,,4,23,6,1,0,0,rectangle,23,6,1,0,0,23,6,1,0,0,0,130,130,34,1,,,,,,,,
,,,,,,,,,,,,,FF,,,,,,,,1,,,,,,,,,,,,,,,,,,,,,,61034f24da19cc56177b8b59,6103697efcf36e12043158bb,2021-07-30_04h54.08.608,Simcolourproject_2stim_asymm_v5,2020.2.10,Win32,60,61025ae37ef11b136ea224fe,,,,,,,,,640,-86,-37,1,0,0,response5disk,,2,-9,-3,1,0,0,rectangle,-9,-3,1,0,0,-9,-3,1,0,0,0,131,131,67,1,,,,,,,,
,,,,,,,,,,,,,FF,,,,,,,,1.016,,,,,,,,,,,,,,,,,,,,,,61034f24da19cc56177b8b59,6103697efcf36e12043158bb,2021-07-30_04h54.08.608,Simcolourproject_2stim_asymm_v5,2020.2.10,Win32,60,61025ae37ef11b136ea224fe,,,,,,,,,858,73,-42,1,0,0,response3disk,,5,-13,5,1,0,0,rectangle,-13,5,1,0,0,-13,5,1,0,0,0,132,132,39,1,,,,,,,,
,,,,,,,,,,,,,FF,,,,,,,,1.1,,,,,,,,,,,,,,,,,,,,,,61034f24da19cc56177b8b59,6103697efcf36e12043158bb,2021-07-30_04h54.08.608,Simcolourproject_2stim_asymm_v5,2020.2.10,Win32,60,61025ae37ef11b136ea224fe,,,,,,,,,2679,43,-87,1,0,0,response3disk,,4,3,14,1,0,0,rectangle,3,14,1,0,0,3,14,1,0,0,0,133,133,145,1,,,,,,,,
,,,,,,,,,,,,,FF,,,,,,,,1.549,,,,,,,,,,,,,,,,,,,,,,61034f24da19cc56177b8b59,6103697efcf36e12043158bb,2021-07-30_04h54.08.608,Simcolourproject_2stim_asymm_v5,2020.2.10,Win32,60,61025ae37ef11b136ea224fe,,,,,,,,,3914,-46,-87,1,0,0,response5disk,,3,-6,-3,1,0,0,rectangle,-6,-3,1,0,0,-6,-3,1,0,0,0,134,134,151,1,,,,,,,,
,,,,,,,,,,,,,FF,,,,,,,,2.276,,,,,,,,,,,,,,,,,,,,,,61034f24da19cc56177b8b59,6103697efcf36e12043158bb,2021-07-30_04h54.08.608,Simcolourproject_2stim_asymm_v5,2020.2.10,Win32,60,61025ae37ef11b136ea224fe,,,,,,,,,4157,-43,-73,1,0,0,response5disk,,3,5,-8,1,0,0,rectangle,5,-8,1,0,0,5,-8,1,0,0,0,135,135,119,1,,,,,,,,
,,,,,,,,,,,,,FF,,,,,,,,1.792,,,,,,,,,,,,,,,,,,,,,,61034f24da19cc56177b8b59,6103697efcf36e12043158bb,2021-07-30_04h54.08.608,Simcolourproject_2stim_asymm_v5,2020.2.10,Win32,60,61025ae37ef11b136ea224fe,,,,,,,,,629,65,41,1,0,0,response1disk,,6,4,5,1,0,0,rectangle,4,5,1,0,0,4,5,1,0,0,0,136,136,142,1,,,,,,,,
,,,,,,,,,,,,,FF,,,,,,,,0.816,,,,,,,,,,,,,,,,,,,,,,61034f24da19cc56177b8b59,6103697efcf36e12043158bb,2021-07-30_04h54.08.608,Simcolourproject_2stim_asymm_v5,2020.2.10,Win32,60,61025ae37ef11b136ea224fe,,,,,,,,,3046,-83,-40,1,0,0,response5disk,,2,-11,1,1,0,0,rectangle,-11,1,1,0,0,-11,1,1,0,0,0,137,137,6,1,,,,,,,,
,,,,,,,,,,,,,FF,,,,,,,,1.9,,,,,,,,,,,,,,,,,,,,,,61034f24da19cc56177b8b59,6103697efcf36e12043158bb,2021-07-30_04h54.08.608,Simcolourproject_2stim_asymm_v5,2020.2.10,Win32,60,61025ae37ef11b136ea224fe,,,,,,,,,1112,79,-45,1,0,0,response3disk,,5,7,-3,1,0,0,rectangle,7,-3,1,0,0,7,-3,1,0,0,0,138,138,8,1,,,,,,,,
,,,,,,,,,,,,,FF,,,,,,,,1.052,,,,,,,,,,,,,,,,,,,,,,61034f24da19cc56177b8b59,6103697efcf36e12043158bb,2021-07-30_04h54.08.608,Simcolourproject_2stim_asymm_v5,2020.2.10,Win32,60,61025ae37ef11b136ea224fe,,,,,,,,,2236,-74,-34,1,0,0,response5disk,,2,6,-7,1,0,0,rectangle,39,-79,1,0,0,3,-6,1,0,0,0,139,139,96,1,,response3disk_3,TRUE,4,4,"[155,250,28,244,140,78,236,190,197,159,158,209,104,108,70,129,202,217,17,289]",1.4,rectangle
,,,,,,,,,,,,,FF,,,,,,,,2.715,,,,,,,,,,,,,,,,,,,,,,61034f24da19cc56177b8b59,6103697efcf36e12043158bb,2021-07-30_04h54.08.608,Simcolourproject_2stim_asymm_v5,2020.2.10,Win32,60,61025ae37ef11b136ea224fe,,,,,,,,,1991,71,-36,1,0,0,response3disk,,5,6,-5,1,0,0,rectangle,6,-5,1,0,0,6,-5,1,0,0,0,140,140,15,1,,,,,,,,
,,,,,,,,,,,,,FF,,,,,,,,0.934,,,,,,,,,,,,,,,,,,,,,,61034f24da19cc56177b8b59,6103697efcf36e12043158bb,2021-07-30_04h54.08.608,Simcolourproject_2stim_asymm_v5,2020.2.10,Win32,60,61025ae37ef11b136ea224fe,,,,,,,,,2053,-41,-65,1,0,0,response5disk,,3,-9,-1,1,0,0,rectangle,-9,-1,1,0,0,-9,-1,1,0,0,0,141,141,2,1,,,,,,,,
,,,,,,,,,,,,,FF,,,,,,,,4.047,,,,,,,,,,,,,,,,,,,,,,61034f24da19cc56177b8b59,6103697efcf36e12043158bb,2021-07-30_04h54.08.608,Simcolourproject_2stim_asymm_v5,2020.2.10,Win32,60,61025ae37ef11b136ea224fe,,,,,,,,,147,-29,-73,1,0,0,response5disk,,3,-2,-7,1,0,0,rectangle,-2,-7,1,0,0,-2,-7,1,0,0,0,142,142,140,1,,,,,,,,
,,,,,,,,,,,,,FF,,,,,,,,1.017,,,,,,,,,,,,,,,,,,,,,,61034f24da19cc56177b8b59,6103697efcf36e12043158bb,2021-07-30_04h54.08.608,Simcolourproject_2stim_asymm_v5,2020.2.10,Win32,60,61025ae37ef11b136ea224fe,,,,,,,,,1541,-43,-85,1,0,0,response5disk,,3,-9,6,1,0,0,rectangle,-9,6,1,0,0,-9,6,1,0,0,0,143,143,128,1,,,,,,,,
,,,,,,,,,,,,,FF,,,,,,,,0.933,,,,,,,,,,,,,,,,,,,,,,61034f24da19cc56177b8b59,6103697efcf36e12043158bb,2021-07-30_04h54.08.608,Simcolourproject_2stim_asymm_v5,2020.2.10,Win32,60,61025ae37ef11b136ea224fe,,,,,,,,,2305,-57,-24,1,0,0,response5disk,,2,-13,1,1,0,0,rectangle,-13,1,1,0,0,-13,1,1,0,0,0,144,144,11,1,,,,,,,,
,,,,,,,,,,,,,FF,,,,,,,,0.874,,,,,,,,,,,,,,,,,,,,,,61034f24da19cc56177b8b59,6103697efcf36e12043158bb,2021-07-30_04h54.08.608,Simcolourproject_2stim_asymm_v5,2020.2.10,Win32,60,61025ae37ef11b136ea224fe,,,,,,,,,777,52,-93,1,0,0,response3disk,,4,5,4,1,0,0,rectangle,5,4,1,0,0,5,4,1,0,0,0,145,145,124,1,,,,,,,,
,,,,,,,,,,,,,FF,,,,,,,,2.381,,,,,,,,,,,,,,,,,,,,,,61034f24da19cc56177b8b59,6103697efcf36e12043158bb,2021-07-30_04h54.08.608,Simcolourproject_2stim_asymm_v5,2020.2.10,Win32,60,61025ae37ef11b136ea224fe,,,,,,,,,3910,-47,-76,1,0,0,response5disk,,3,-19,1,1,0,0,rectangle,-19,1,1,0,0,-19,1,1,0,0,0,146,146,95,1,,,,,,,,
,,,,,,,,,,,,,FF,,,,,,,,0.932,,,,,,,,,,,,,,,,,,,,,,61034f24da19cc56177b8b59,6103697efcf36e12043158bb,2021-07-30_04h54.08.608,Simcolourproject_2stim_asymm_v5,2020.2.10,Win32,60,61025ae37ef11b136ea224fe,,,,,,,,,3175,46,-86,1,0,0,response3disk,,4,2,8,1,0,0,rectangle,2,8,1,0,0,2,8,1,0,0,0,147,147,102,1,,,,,,,,
,,,,,,,,,,,,,FF,,,,,,,,0.834,,,,,,,,,,,,,,,,,,,,,,61034f24da19cc56177b8b59,6103697efcf36e12043158bb,2021-07-30_04h54.08.608,Simcolourproject_2stim_asymm_v5,2020.2.10,Win32,60,61025ae37ef11b136ea224fe,,,,,,,,,3199,-62,-31,1,0,0,response5disk,,2,2,2,1,0,0,rectangle,2,2,1,0,0,2,2,1,0,0,0,148,148,118,1,,,,,,,,
,,,,,,,,,,,,,FF,,,,,,,,1.115,,,,,,,,,,,,,,,,,,,,,,61034f24da19cc56177b8b59,6103697efcf36e12043158bb,2021-07-30_04h54.08.608,Simcolourproject_2stim_asymm_v5,2020.2.10,Win32,60,61025ae37ef11b136ea224fe,,,,,,,,,322,23,-63,1,0,0,response3disk,,4,7,-10,1,0,0,rectangle,7,-10,1,0,0,7,-10,1,0,0,0,149,149,99,1,,,,,,,,
,,,,,,,,,,,,,FF,,,,,,,,0.916,,,,,,,,,,,,,,,,,,,,,,61034f24da19cc56177b8b59,6103697efcf36e12043158bb,2021-07-30_04h54.08.608,Simcolourproject_2stim_asymm_v5,2020.2.10,Win32,60,61025ae37ef11b136ea224fe,,,,,,,,,2072,57,-31,1,0,0,response3disk,,5,9,9,1,0,0,rectangle,9,9,1,0,0,9,9,1,0,0,0,150,150,40,1,,,,,,,,
,,,,,,,,,,,,,FF,,,,,,,,1.784,,,,,,,,,,,,,,,,,,,,,,61034f24da19cc56177b8b59,6103697efcf36e12043158bb,2021-07-30_04h54.08.608,Simcolourproject_2stim_asymm_v5,2020.2.10,Win32,60,61025ae37ef11b136ea224fe,,,,,,,,,4229,38,-76,1,0,0,response3disk,,4,12,9,1,0,0,rectangle,12,9,1,0,0,12,9,1,0,0,0,151,151,156,1,,,,,,,,
,,,,,,,,,,,,,FF,,,,,,,,0.95,,,,,,,,,,,,,,,,,,,,,,61034f24da19cc56177b8b59,6103697efcf36e12043158bb,2021-07-30_04h54.08.608,Simcolourproject_2stim_asymm_v5,2020.2.10,Win32,60,61025ae37ef11b136ea224fe,,,,,,,,,1388,-33,-68,1,0,0,response5disk,,3,-1,-1,1,0,0,rectangle,-1,-1,1,0,0,-1,-1,1,0,0,0,152,152,85,1,,,,,,,,
,,,,,,,,,,,,,FF,,,,,,,,0.766,,,,,,,,,,,,,,,,,,,,,,61034f24da19cc56177b8b59,6103697efcf36e12043158bb,2021-07-30_04h54.08.608,Simcolourproject_2stim_asymm_v5,2020.2.10,Win32,60,61025ae37ef11b136ea224fe,,,,,,,,,3192,-33,-61,1,0,0,response5disk,,3,3,3,1,0,0,rectangle,3,3,1,0,0,3,3,1,0,0,0,153,153,41,1,,,,,,,,
,,,,,,,,,,,,,FF,,,,,,,,1.2,,,,,,,,,,,,,,,,,,,,,,61034f24da19cc56177b8b59,6103697efcf36e12043158bb,2021-07-30_04h54.08.608,Simcolourproject_2stim_asymm_v5,2020.2.10,Win32,60,61025ae37ef11b136ea224fe,,,,,,,,,918,26,-87,1,0,0,response3disk,,4,19,4,1,0,0,rectangle,70,41,1,0,0,21,-5,1,0,0,0,154,154,79,1,,response1disk_3,TRUE,6,6,"[155,250,28,244,140,78,236,190,197,159,158,209,104,108,70,129,202,217,17,289]",1.766,rectangle
,,,,,,,,,,,,,FF,,,,,,,,2.366,,,,,,,,,,,,,,,,,,,,,,61034f24da19cc56177b8b59,6103697efcf36e12043158bb,2021-07-30_04h54.08.608,Simcolourproject_2stim_asymm_v5,2020.2.10,Win32,60,61025ae37ef11b136ea224fe,,,,,,,,,88,33,-91,1,0,0,response3disk,,4,15,3,1,0,0,rectangle,15,3,1,0,0,15,3,1,0,0,0,155,155,3,1,,,,,,,,
,,,,,,,,,,,,,FF,,,,,,,,0.932,,,,,,,,,,,,,,,,,,,,,,61034f24da19cc56177b8b59,6103697efcf36e12043158bb,2021-07-30_04h54.08.608,Simcolourproject_2stim_asymm_v5,2020.2.10,Win32,60,61025ae37ef11b136ea224fe,,,,,,,,,2509,63,-43,1,0,0,response3disk,,5,9,3,1,0,0,rectangle,9,3,1,0,0,9,3,1,0,0,0,156,156,123,1,,,,,,,,
,,,,,,,,,,,,,FF,,,,,,,,1.564,,,,,,,,,,,,,,,,,,,,,,61034f24da19cc56177b8b59,6103697efcf36e12043158bb,2021-07-30_04h54.08.608,Simcolourproject_2stim_asymm_v5,2020.2.10,Win32,60,61025ae37ef11b136ea224fe,,,,,,,,,1065,-81,33,1,0,0,response7disk,,1,-15,2,1,0,0,rectangle,83,40,1,0,0,5,-3,1,0,0,0,157,157,110,1,,response1disk_3,TRUE,6,6,"[155,250,28,244,140,78,236,190,197,159,158,209,104,108,70,129,202,217,17,289]",1.846,rectangle
,,,,,,,,,,,,,FF,,,,,,,,2.667,,,,,,,,,,,,,,,,,,,,,,61034f24da19cc56177b8b59,6103697efcf36e12043158bb,2021-07-30_04h54.08.608,Simcolourproject_2stim_asymm_v5,2020.2.10,Win32,60,61025ae37ef11b136ea224fe,,,,,,,,,3114,-36,-92,1,0,0,response5disk,,3,8,-11,1,0,0,rectangle,-68,-25,1,0,0,11,-1,1,0,0,0,158,158,47,1,,response5disk_3,TRUE,2,2,"[155,250,28,244,140,78,236,190,197,159,158,209,104,108,70,129,202,217,17,289]",2.567,rectangle
,,,,,,,,,,,,,FF,,,,,,,,1.083,,,,,,,,,,,,,,,,,,,,,,61034f24da19cc56177b8b59,6103697efcf36e12043158bb,2021-07-30_04h54.08.608,Simcolourproject_2stim_asymm_v5,2020.2.10,Win32,60,61025ae37ef11b136ea224fe,,,,,,,,,1890,-82,-46,1,0,0,response5disk,,2,-17,-5,1,0,0,rectangle,-17,-5,1,0,0,-17,-5,1,0,0,0,159,159,45,1,,,,,,,,
,,,,,,,,,,,,,FF,,,,,,,,1.201,,,,,,,,,,,,,,,,,,,,,,61034f24da19cc56177b8b59,6103697efcf36e12043158bb,2021-07-30_04h54.08.608,Simcolourproject_2stim_asymm_v5,2020.2.10,Win32,60,61025ae37ef11b136ea224fe,,,,,,,,,36,23,-72,1,0,0,response3disk,,4,9,7,1,0,0,rectangle,9,7,1,0,0,9,7,1,0,0,1,0,160,84,1,,,,,,,,
,,,,,,,,,,,,,FF,,,,,,,,1.166,,,,,,,,,,,,,,,,,,,,,,61034f24da19cc56177b8b59,6103697efcf36e12043158bb,2021-07-30_04h54.08.608,Simcolourproject_2stim_asymm_v5,2020.2.10,Win32,60,61025ae37ef11b136ea224fe,,,,,,,,,4168,-71,37,1,0,0,response7disk,,1,-3,5,1,0,0,rectangle,-3,5,1,0,0,-3,5,1,0,0,1,1,161,16,1,,,,,,,,
,,,,,,,,,,,,,FF,,,,,,,,1.317,,,,,,,,,,,,,,,,,,,,,,61034f24da19cc56177b8b59,6103697efcf36e12043158bb,2021-07-30_04h54.08.608,Simcolourproject_2stim_asymm_v5,2020.2.10,Win32,60,61025ae37ef11b136ea224fe,,,,,,,,,1509,77,33,1,0,0,response1disk,,6,5,2,1,0,0,rectangle,5,2,1,0,0,5,2,1,0,0,1,2,162,57,1,,,,,,,,
,,,,,,,,,,,,,FF,,,,,,,,0.932,,,,,,,,,,,,,,,,,,,,,,61034f24da19cc56177b8b59,6103697efcf36e12043158bb,2021-07-30_04h54.08.608,Simcolourproject_2stim_asymm_v5,2020.2.10,Win32,60,61025ae37ef11b136ea224fe,,,,,,,,,2096,-77,-32,1,0,0,response5disk,,2,-8,0,1,0,0,rectangle,-8,0,1,0,0,-8,0,1,0,0,1,3,163,123,1,,,,,,,,
,,,,,,,,,,,,,FF,,,,,,,,0.917,,,,,,,,,,,,,,,,,,,,,,61034f24da19cc56177b8b59,6103697efcf36e12043158bb,2021-07-30_04h54.08.608,Simcolourproject_2stim_asymm_v5,2020.2.10,Win32,60,61025ae37ef11b136ea224fe,,,,,,,,,353,-70,-22,1,0,0,response5disk,,2,-12,-3,1,0,0,rectangle,-12,-3,1,0,0,-12,-3,1,0,0,1,4,164,67,1,,,,,,,,
,,,,,,,,,,,,,FF,,,,,,,,1.95,,,,,,,,,,,,,,,,,,,,,,61034f24da19cc56177b8b59,6103697efcf36e12043158bb,2021-07-30_04h54.08.608,Simcolourproject_2stim_asymm_v5,2020.2.10,Win32,60,61025ae37ef11b136ea224fe,,,,,,,,,878,98,-45,1,0,0,response3disk,,5,21,-11,1,0,0,rectangle,21,-11,1,0,0,21,-11,1,0,0,1,5,165,97,1,,,,,,,,
,,,,,,,,,,,,,FF,,,,,,,,1.449,,,,,,,,,,,,,,,,,,,,,,61034f24da19cc56177b8b59,6103697efcf36e12043158bb,2021-07-30_04h54.08.608,Simcolourproject_2stim_asymm_v5,2020.2.10,Win32,60,61025ae37ef11b136ea224fe,,,,,,,,,2860,35,-77,1,0,0,response3disk,,4,-4,13,1,0,0,rectangle,-4,13,1,0,0,-4,13,1,0,0,1,6,166,100,1,,,,,,,,
,,,,,,,,,,,,,FF,,,,,,,,1.816,,,,,,,,,,,,,,,,,,,,,,61034f24da19cc56177b8b59,6103697efcf36e12043158bb,2021-07-30_04h54.08.608,Simcolourproject_2stim_asymm_v5,2020.2.10,Win32,60,61025ae37ef11b136ea224fe,,,,,,,,,833,-45,-65,1,0,0,response5disk,,3,-6,11,1,0,0,rectangle,-6,11,1,0,0,-6,11,1,0,0,1,7,167,88,1,,,,,,,,
,,,,,,,,,,,,,FF,,,,,,,,1.066,,,,,,,,,,,,,,,,,,,,,,61034f24da19cc56177b8b59,6103697efcf36e12043158bb,2021-07-30_04h54.08.608,Simcolourproject_2stim_asymm_v5,2020.2.10,Win32,60,61025ae37ef11b136ea224fe,,,,,,,,,3333,-85,-45,1,0,0,response5disk,,2,-4,-10,1,0,0,rectangle,-4,-10,1,0,0,-4,-10,1,0,0,1,8,168,15,1,,,,,,,,
,,,,,,,,,,,,,FF,,,,,,,,0.934,,,,,,,,,,,,,,,,,,,,,,61034f24da19cc56177b8b59,6103697efcf36e12043158bb,2021-07-30_04h54.08.608,Simcolourproject_2stim_asymm_v5,2020.2.10,Win32,60,61025ae37ef11b136ea224fe,,,,,,,,,3124,45,-69,1,0,0,response3disk,,4,25,-3,1,0,0,rectangle,25,-3,1,0,0,25,-3,1,0,0,1,9,169,155,1,,,,,,,,
,,,,,,,,,,,,,FF,,,,,,,,1.566,,,,,,,,,,,,,,,,,,,,,,61034f24da19cc56177b8b59,6103697efcf36e12043158bb,2021-07-30_04h54.08.608,Simcolourproject_2stim_asymm_v5,2020.2.10,Win32,60,61025ae37ef11b136ea224fe,,,,,,,,,140,43,-66,1,0,0,response3disk,,4,-10,-12,1,0,0,rectangle,-10,-12,1,0,0,-10,-12,1,0,0,1,10,170,152,1,,,,,,,,
,,,,,,,,,,,,,FF,,,,,,,,3.233,,,,,,,,,,,,,,,,,,,,,,61034f24da19cc56177b8b59,6103697efcf36e12043158bb,2021-07-30_04h54.08.608,Simcolourproject_2stim_asymm_v5,2020.2.10,Win32,60,61025ae37ef11b136ea224fe,,,,,,,,,2116,69,-45,1,0,0,response3disk,,5,10,1,1,0,0,rectangle,10,1,1,0,0,10,1,1,0,0,1,11,171,89,1,,,,,,,,
,,,,,,,,,,,,,FF,,,,,,,,1.574,,,,,,,,,,,,,,,,,,,,,,61034f24da19cc56177b8b59,6103697efcf36e12043158bb,2021-07-30_04h54.08.608,Simcolourproject_2stim_asymm_v5,2020.2.10,Win32,60,61025ae37ef11b136ea224fe,,,,,,,,,3882,37,-77,1,0,0,response3disk,,4,-5,-4,1,0,0,rectangle,-5,-4,1,0,0,-5,-4,1,0,0,1,12,172,154,1,,,,,,,,
,,,,,,,,,,,,,FF,,,,,,,,1.114,,,,,,,,,,,,,,,,,,,,,,61034f24da19cc56177b8b59,6103697efcf36e12043158bb,2021-07-30_04h54.08.608,Simcolourproject_2stim_asymm_v5,2020.2.10,Win32,60,61025ae37ef11b136ea224fe,,,,,,,,,2704,73,-57,1,0,0,response3disk,,5,-6,1,1,0,0,rectangle,-6,1,1,0,0,-6,1,1,0,0,1,13,173,80,1,,,,,,,,
,,,,,,,,,,,,,FF,,,,,,,,1.866,,,,,,,,,,,,,,,,,,,,,,61034f24da19cc56177b8b59,6103697efcf36e12043158bb,2021-07-30_04h54.08.608,Simcolourproject_2stim_asymm_v5,2020.2.10,Win32,60,61025ae37ef11b136ea224fe,,,,,,,,,2599,-43,-85,1,0,0,response5disk,,3,-4,-5,1,0,0,rectangle,-4,-5,1,0,0,-4,-5,1,0,0,1,14,174,93,1,,,,,,,,
,,,,,,,,,,,,,FF,,,,,,,,1.228,,,,,,,,,,,,,,,,,,,,,,61034f24da19cc56177b8b59,6103697efcf36e12043158bb,2021-07-30_04h54.08.608,Simcolourproject_2stim_asymm_v5,2020.2.10,Win32,60,61025ae37ef11b136ea224fe,,,,,,,,,1639,58,-83,1,0,0,response3disk,,4,5,1,1,0,0,rectangle,5,1,1,0,0,5,1,1,0,0,1,15,175,117,1,,,,,,,,
,,,,,,,,,,,,,FF,,,,,,,,1.016,,,,,,,,,,,,,,,,,,,,,,61034f24da19cc56177b8b59,6103697efcf36e12043158bb,2021-07-30_04h54.08.608,Simcolourproject_2stim_asymm_v5,2020.2.10,Win32,60,61025ae37ef11b136ea224fe,,,,,,,,,1788,81,-57,1,0,0,response3disk,,5,5,-8,1,0,0,rectangle,5,-8,1,0,0,5,-8,1,0,0,1,16,176,40,1,,,,,,,,
,,,,,,,,,,,,,FF,,,,,,,,1.382,,,,,,,,,,,,,,,,,,,,,,61034f24da19cc56177b8b59,6103697efcf36e12043158bb,2021-07-30_04h54.08.608,Simcolourproject_2stim_asymm_v5,2020.2.10,Win32,60,61025ae37ef11b136ea224fe,,,,,,,,,1886,-87,40,1,0,0,response7disk,,1,-3,11,1,0,0,rectangle,-3,11,1,0,0,-3,11,1,0,0,1,17,177,151,1,,,,,,,,
,,,,,,,,,,,,,FF,,,,,,,,1.805,,,,,,,,,,,,,,,,,,,,,,61034f24da19cc56177b8b59,6103697efcf36e12043158bb,2021-07-30_04h54.08.608,Simcolourproject_2stim_asymm_v5,2020.2.10,Win32,60,61025ae37ef11b136ea224fe,,,,,,,,,3366,30,-37,1,0,0,response3disk,,4,21,-3,1,0,0,rectangle,21,-3,1,0,0,21,-3,1,0,0,1,18,178,118,1,,,,,,,,
,,,,,,,,,,,,,FF,,,,,,,,1.116,,,,,,,,,,,,,,,,,,,,,,61034f24da19cc56177b8b59,6103697efcf36e12043158bb,2021-07-30_04h54.08.608,Simcolourproject_2stim_asymm_v5,2020.2.10,Win32,60,61025ae37ef11b136ea224fe,,,,,,,,,2950,-97,-41,1,0,0,response5disk,,2,-4,7,1,0,0,rectangle,-4,7,1,0,0,-4,7,1,0,0,1,19,179,53,1,,,,,,,,
,,,,,,,,,,,,,FF,,,,,,,,1.815,,,,,,,,,,,,,,,,,,,,,,61034f24da19cc56177b8b59,6103697efcf36e12043158bb,2021-07-30_04h54.08.608,Simcolourproject_2stim_asymm_v5,2020.2.10,Win32,60,61025ae37ef11b136ea224fe,,,,,,,,,988,-64,-86,1,0,0,response5disk,,3,-16,2,1,0,0,rectangle,-16,2,1,0,0,-16,2,1,0,0,1,20,180,115,1,,,,,,,,
,,,,,,,,,,,,,FF,,,,,,,,1.116,,,,,,,,,,,,,,,,,,,,,,61034f24da19cc56177b8b59,6103697efcf36e12043158bb,2021-07-30_04h54.08.608,Simcolourproject_2stim_asymm_v5,2020.2.10,Win32,60,61025ae37ef11b136ea224fe,,,,,,,,,287,86,-52,1,0,0,response3disk,,5,9,-6,1,0,0,rectangle,9,-6,1,0,0,9,-6,1,0,0,1,21,181,111,1,,,,,,,,
,,,,,,,,,,,,,FF,,,,,,,,1,,,,,,,,,,,,,,,,,,,,,,61034f24da19cc56177b8b59,6103697efcf36e12043158bb,2021-07-30_04h54.08.608,Simcolourproject_2stim_asymm_v5,2020.2.10,Win32,60,61025ae37ef11b136ea224fe,,,,,,,,,973,-95,-41,1,0,0,response5disk,,2,-8,0,1,0,0,rectangle,-8,0,1,0,0,-8,0,1,0,0,1,22,182,51,1,,,,,,,,
,,,,,,,,,,,,,FF,,,,,,,,1.083,,,,,,,,,,,,,,,,,,,,,,61034f24da19cc56177b8b59,6103697efcf36e12043158bb,2021-07-30_04h54.08.608,Simcolourproject_2stim_asymm_v5,2020.2.10,Win32,60,61025ae37ef11b136ea224fe,,,,,,,,,37,39,-89,1,0,0,response3disk,,4,14,-9,1,0,0,rectangle,14,-9,1,0,0,14,-9,1,0,0,1,23,183,140,1,,,,,,,,
,,,,,,,,,,,,,FF,,,,,,,,1.134,,,,,,,,,,,,,,,,,,,,,,61034f24da19cc56177b8b59,6103697efcf36e12043158bb,2021-07-30_04h54.08.608,Simcolourproject_2stim_asymm_v5,2020.2.10,Win32,60,61025ae37ef11b136ea224fe,,,,,,,,,105,74,-41,1,0,0,response3disk,,5,-1,1,1,0,0,rectangle,-1,1,1,0,0,-1,1,1,0,0,1,24,184,143,1,,,,,,,,
,,,,,,,,,,,,,FF,,,,,,,,1.849,,,,,,,,,,,,,,,,,,,,,,61034f24da19cc56177b8b59,6103697efcf36e12043158bb,2021-07-30_04h54.08.608,Simcolourproject_2stim_asymm_v5,2020.2.10,Win32,60,61025ae37ef11b136ea224fe,,,,,,,,,3510,-29,83,1,0,0,response7disk,,0,9,-7,1,0,0,rectangle,9,-7,1,0,0,9,-7,1,0,0,1,25,185,126,1,,,,,,,,
,,,,,,,,,,,,,FF,,,,,,,,0.999,,,,,,,,,,,,,,,,,,,,,,61034f24da19cc56177b8b59,6103697efcf36e12043158bb,2021-07-30_04h54.08.608,Simcolourproject_2stim_asymm_v5,2020.2.10,Win32,60,61025ae37ef11b136ea224fe,,,,,,,,,3970,-80,-33,1,0,0,response5disk,,2,-7,-1,1,0,0,rectangle,-7,-1,1,0,0,-7,-1,1,0,0,1,26,186,49,1,,,,,,,,
,,,,,,,,,,,,,FF,,,,,,,,1.301,,,,,,,,,,,,,,,,,,,,,,61034f24da19cc56177b8b59,6103697efcf36e12043158bb,2021-07-30_04h54.08.608,Simcolourproject_2stim_asymm_v5,2020.2.10,Win32,60,61025ae37ef11b136ea224fe,,,,,,,,,1702,-39,-97,1,0,0,response5disk,,3,11,-13,1,0,0,rectangle,11,-13,1,0,0,11,-13,1,0,0,1,27,187,108,1,,,,,,,,
,,,,,,,,,,,,,FF,,,,,,,,0.834,,,,,,,,,,,,,,,,,,,,,,61034f24da19cc56177b8b59,6103697efcf36e12043158bb,2021-07-30_04h54.08.608,Simcolourproject_2stim_asymm_v5,2020.2.10,Win32,60,61025ae37ef11b136ea224fe,,,,,,,,,3053,-95,-44,1,0,0,response5disk,,2,-2,-8,1,0,0,rectangle,-2,-8,1,0,0,-2,-8,1,0,0,1,28,188,63,1,,,,,,,,
,,,,,,,,,,,,,FF,,,,,,,,2.298,,,,,,,,,,,,,,,,,,,,,,61034f24da19cc56177b8b59,6103697efcf36e12043158bb,2021-07-30_04h54.08.608,Simcolourproject_2stim_asymm_v5,2020.2.10,Win32,60,61025ae37ef11b136ea224fe,,,,,,,,,294,77,-44,1,0,0,response3disk,,5,6,-1,1,0,0,rectangle,-22,-73,1,0,0,-1,8,1,0,0,1,29,189,98,1,,response5disk_3,TRUE,3,3,"[155,250,28,244,140,78,236,190,197,159,158,209,104,108,70,129,202,217,17,289]",2.365,rectangle
,,,,,,,,,,,,,FF,,,,,,,,1.432,,,,,,,,,,,,,,,,,,,,,,61034f24da19cc56177b8b59,6103697efcf36e12043158bb,2021-07-30_04h54.08.608,Simcolourproject_2stim_asymm_v5,2020.2.10,Win32,60,61025ae37ef11b136ea224fe,,,,,,,,,812,-75,-34,1,0,0,response5disk,,2,1,2,1,0,0,rectangle,1,2,1,0,0,1,2,1,0,0,1,30,190,134,1,,,,,,,,
,,,,,,,,,,,,,FF,,,,,,,,1.7,,,,,,,,,,,,,,,,,,,,,,61034f24da19cc56177b8b59,6103697efcf36e12043158bb,2021-07-30_04h54.08.608,Simcolourproject_2stim_asymm_v5,2020.2.10,Win32,60,61025ae37ef11b136ea224fe,,,,,,,,,832,-45,-96,1,0,0,response5disk,,3,-8,1,1,0,0,rectangle,-8,1,1,0,0,-8,1,1,0,0,1,31,191,127,1,,,,,,,,
,,,,,,,,,,,,,FF,,,,,,,,1.293,,,,,,,,,,,,,,,,,,,,,,61034f24da19cc56177b8b59,6103697efcf36e12043158bb,2021-07-30_04h54.08.608,Simcolourproject_2stim_asymm_v5,2020.2.10,Win32,60,61025ae37ef11b136ea224fe,,,,,,,,,4034,-42,-79,1,0,0,response5disk,,3,-12,-6,1,0,0,rectangle,-12,-6,1,0,0,-12,-6,1,0,0,1,32,192,35,1,,,,,,,,
,,,,,,,,,,,,,FF,,,,,,,,1.016,,,,,,,,,,,,,,,,,,,,,,61034f24da19cc56177b8b59,6103697efcf36e12043158bb,2021-07-30_04h54.08.608,Simcolourproject_2stim_asymm_v5,2020.2.10,Win32,60,61025ae37ef11b136ea224fe,,,,,,,,,1986,37,-63,1,0,0,response3disk,,4,19,-5,1,0,0,rectangle,19,-5,1,0,0,19,-5,1,0,0,1,33,193,46,1,,,,,,,,
,,,,,,,,,,,,,FF,,,,,,,,1.266,,,,,,,,,,,,,,,,,,,,,,61034f24da19cc56177b8b59,6103697efcf36e12043158bb,2021-07-30_04h54.08.608,Simcolourproject_2stim_asymm_v5,2020.2.10,Win32,60,61025ae37ef11b136ea224fe,,,,,,,,,787,74,-34,1,0,0,response3disk,,5,19,3,1,0,0,rectangle,19,3,1,0,0,19,3,1,0,0,1,34,194,120,1,,,,,,,,
,,,,,,,,,,,,,FF,,,,,,,,1.017,,,,,,,,,,,,,,,,,,,,,,61034f24da19cc56177b8b59,6103697efcf36e12043158bb,2021-07-30_04h54.08.608,Simcolourproject_2stim_asymm_v5,2020.2.10,Win32,60,61025ae37ef11b136ea224fe,,,,,,,,,2842,41,-71,1,0,0,response3disk,,4,-3,-3,1,0,0,rectangle,-3,-3,1,0,0,-3,-3,1,0,0,1,35,195,27,1,,,,,,,,
,,,,,,,,,,,,,FF,,,,,,,,1.646,,,,,,,,,,,,,,,,,,,,,,61034f24da19cc56177b8b59,6103697efcf36e12043158bb,2021-07-30_04h54.08.608,Simcolourproject_2stim_asymm_v5,2020.2.10,Win32,60,61025ae37ef11b136ea224fe,,,,,,,,,1519,65,-35,1,0,0,response3disk,,5,11,-2,1,0,0,rectangle,-42,-77,1,0,0,-23,-7,1,0,0,1,36,196,105,1,,response5disk_3,TRUE,3,3,"[155,250,28,244,140,78,236,190,197,159,158,209,104,108,70,129,202,217,17,289]",1.782,rectangle
,,,,,,,,,,,,,FF,,,,,,,,1.148,,,,,,,,,,,,,,,,,,,,,,61034f24da19cc56177b8b59,6103697efcf36e12043158bb,2021-07-30_04h54.08.608,Simcolourproject_2stim_asymm_v5,2020.2.10,Win32,60,61025ae37ef11b136ea224fe,,,,,,,,,401,83,-50,1,0,0,response3disk,,5,-5,-1,1,0,0,rectangle,-5,-1,1,0,0,-5,-1,1,0,0,1,37,197,136,1,,,,,,,,
,,,,,,,,,,,,,FF,,,,,,,,1,,,,,,,,,,,,,,,,,,,,,,61034f24da19cc56177b8b59,6103697efcf36e12043158bb,2021-07-30_04h54.08.608,Simcolourproject_2stim_asymm_v5,2020.2.10,Win32,60,61025ae37ef11b136ea224fe,,,,,,,,,2585,87,-30,1,0,0,response3disk,,5,-9,3,1,0,0,rectangle,-9,3,1,0,0,-9,3,1,0,0,1,38,198,1,1,,,,,,,,
,,,,,,,,,,,,,FF,,,,,,,,1.133,,,,,,,,,,,,,,,,,,,,,,61034f24da19cc56177b8b59,6103697efcf36e12043158bb,2021-07-30_04h54.08.608,Simcolourproject_2stim_asymm_v5,2020.2.10,Win32,60,61025ae37ef11b136ea224fe,,,,,,,,,234,82,-38,1,0,0,response3disk,,5,-1,-2,1,0,0,rectangle,-1,-2,1,0,0,-1,-2,1,0,0,1,39,199,10,1,,,,,,,,
,,,,,,,,,,,,,FF,,,,,,,,2.682,,,,,,,,,,,,,,,,,,,,,,61034f24da19cc56177b8b59,6103697efcf36e12043158bb,2021-07-30_04h54.08.608,Simcolourproject_2stim_asymm_v5,2020.2.10,Win32,60,61025ae37ef11b136ea224fe,,,,,,,,,3344,-44,-85,1,0,0,response5disk,,3,-22,-5,1,0,0,rectangle,-22,-5,1,0,0,-22,-5,1,0,0,1,40,200,17,1,,,,,,,,
,,,,,,,,,,,,,FF,,,,,,,,1.166,,,,,,,,,,,,,,,,,,,,,,61034f24da19cc56177b8b59,6103697efcf36e12043158bb,2021-07-30_04h54.08.608,Simcolourproject_2stim_asymm_v5,2020.2.10,Win32,60,61025ae37ef11b136ea224fe,,,,,,,,,3093,-81,-44,1,0,0,response5disk,,2,-21,-3,1,0,0,rectangle,42,-87,1,0,0,7,0,1,0,0,1,41,201,54,1,,response3disk_3,TRUE,4,4,"[155,250,28,244,140,78,236,190,197,159,158,209,104,108,70,129,202,217,17,289]",1.698,rectangle
,,,,,,,,,,,,,FF,,,,,,,,1.583,,,,,,,,,,,,,,,,,,,,,,61034f24da19cc56177b8b59,6103697efcf36e12043158bb,2021-07-30_04h54.08.608,Simcolourproject_2stim_asymm_v5,2020.2.10,Win32,60,61025ae37ef11b136ea224fe,,,,,,,,,4114,-38,-87,1,0,0,response5disk,,3,-3,8,1,0,0,rectangle,-3,8,1,0,0,-3,8,1,0,0,1,42,202,39,1,,,,,,,,
,,,,,,,,,,,,,FF,,,,,,,,2.481,,,,,,,,,,,,,,,,,,,,,,61034f24da19cc56177b8b59,6103697efcf36e12043158bb,2021-07-30_04h54.08.608,Simcolourproject_2stim_asymm_v5,2020.2.10,Win32,60,61025ae37ef11b136ea224fe,,,,,,,,,4357,-71,-47,1,0,0,response5disk,,2,-28,-13,1,0,0,rectangle,-28,-13,1,0,0,-28,-13,1,0,0,1,43,203,36,1,,,,,,,,
,,,,,,,,,,,,,FF,,,,,,,,1.149,,,,,,,,,,,,,,,,,,,,,,61034f24da19cc56177b8b59,6103697efcf36e12043158bb,2021-07-30_04h54.08.608,Simcolourproject_2stim_asymm_v5,2020.2.10,Win32,60,61025ae37ef11b136ea224fe,,,,,,,,,3281,-34,-93,1,0,0,response5disk,,3,-15,8,1,0,0,rectangle,-15,8,1,0,0,-15,8,1,0,0,1,44,204,95,1,,,,,,,,
,,,,,,,,,,,,,FF,,,,,,,,2.382,,,,,,,,,,,,,,,,,,,,,,61034f24da19cc56177b8b59,6103697efcf36e12043158bb,2021-07-30_04h54.08.608,Simcolourproject_2stim_asymm_v5,2020.2.10,Win32,60,61025ae37ef11b136ea224fe,,,,,,,,,553,-50,-61,1,0,0,response5disk,,3,-16,1,1,0,0,rectangle,-16,1,1,0,0,-16,1,1,0,0,1,45,205,56,1,,,,,,,,
,,,,,,,,,,,,,FF,,,,,,,,2.033,,,,,,,,,,,,,,,,,,,,,,61034f24da19cc56177b8b59,6103697efcf36e12043158bb,2021-07-30_04h54.08.608,Simcolourproject_2stim_asymm_v5,2020.2.10,Win32,60,61025ae37ef11b136ea224fe,,,,,,,,,502,40,-76,1,0,0,response3disk,,4,-25,-1,1,0,0,rectangle,-25,-1,1,0,0,-25,-1,1,0,0,1,46,206,146,1,,,,,,,,
,,,,,,,,,,,,,FF,,,,,,,,1.217,,,,,,,,,,,,,,,,,,,,,,61034f24da19cc56177b8b59,6103697efcf36e12043158bb,2021-07-30_04h54.08.608,Simcolourproject_2stim_asymm_v5,2020.2.10,Win32,60,61025ae37ef11b136ea224fe,,,,,,,,,904,-38,-71,1,0,0,response5disk,,3,-23,-2,1,0,0,rectangle,-23,-2,1,0,0,-23,-2,1,0,0,1,47,207,129,1,,,,,,,,
,,,,,,,,,,,,,FF,,,,,,,,1.386,,,,,,,,,,,,,,,,,,,,,,61034f24da19cc56177b8b59,6103697efcf36e12043158bb,2021-07-30_04h54.08.608,Simcolourproject_2stim_asymm_v5,2020.2.10,Win32,60,61025ae37ef11b136ea224fe,,,,,,,,,1798,42,-67,1,0,0,response3disk,,4,1,-3,1,0,0,rectangle,-35,79,1,0,0,21,-3,1,0,0,1,48,208,114,1,,response7disk_3,TRUE,0,0,"[155,250,28,244,140,78,236,190,197,159,158,209,104,108,70,129,202,217,17,289]",2.333,rectangle
,,,,,,,,,,,,,FF,,,,,,,,2.048,,,,,,,,,,,,,,,,,,,,,,61034f24da19cc56177b8b59,6103697efcf36e12043158bb,2021-07-30_04h54.08.608,Simcolourproject_2stim_asymm_v5,2020.2.10,Win32,60,61025ae37ef11b136ea224fe,,,,,,,,,2641,43,-70,1,0,0,response3disk,,4,12,0,1,0,0,rectangle,12,0,1,0,0,12,0,1,0,0,1,49,209,14,1,,,,,,,,
,,,,,,,,,,,,,FF,,,,,,,,1.001,,,,,,,,,,,,,,,,,,,,,,61034f24da19cc56177b8b59,6103697efcf36e12043158bb,2021-07-30_04h54.08.608,Simcolourproject_2stim_asymm_v5,2020.2.10,Win32,60,61025ae37ef11b136ea224fe,,,,,,,,,2877,-82,-52,1,0,0,response5disk,,2,-31,-7,1,0,0,rectangle,-31,-7,1,0,0,-31,-7,1,0,0,1,50,210,7,1,,,,,,,,
,,,,,,,,,,,,,FF,,,,,,,,0.965,,,,,,,,,,,,,,,,,,,,,,61034f24da19cc56177b8b59,6103697efcf36e12043158bb,2021-07-30_04h54.08.608,Simcolourproject_2stim_asymm_v5,2020.2.10,Win32,60,61025ae37ef11b136ea224fe,,,,,,,,,1080,39,-73,1,0,0,response3disk,,4,3,1,1,0,0,rectangle,3,1,1,0,0,3,1,1,0,0,1,51,211,82,1,,,,,,,,
,,,,,,,,,,,,,FF,,,,,,,,1.715,,,,,,,,,,,,,,,,,,,,,,61034f24da19cc56177b8b59,6103697efcf36e12043158bb,2021-07-30_04h54.08.608,Simcolourproject_2stim_asymm_v5,2020.2.10,Win32,60,61025ae37ef11b136ea224fe,,,,,,,,,3224,-42,-73,1,0,0,response5disk,,3,-9,2,1,0,0,rectangle,-9,2,1,0,0,-9,2,1,0,0,1,52,212,68,1,,,,,,,,
,,,,,,,,,,,,,FF,,,,,,,,1.516,,,,,,,,,,,,,,,,,,,,,,61034f24da19cc56177b8b59,6103697efcf36e12043158bb,2021-07-30_04h54.08.608,Simcolourproject_2stim_asymm_v5,2020.2.10,Win32,60,61025ae37ef11b136ea224fe,,,,,,,,,852,89,-29,1,0,0,response3disk,,5,9,7,1,0,0,rectangle,9,7,1,0,0,9,7,1,0,0,1,53,213,20,1,,,,,,,,
,,,,,,,,,,,,,FF,,,,,,,,1.55,,,,,,,,,,,,,,,,,,,,,,61034f24da19cc56177b8b59,6103697efcf36e12043158bb,2021-07-30_04h54.08.608,Simcolourproject_2stim_asymm_v5,2020.2.10,Win32,60,61025ae37ef11b136ea224fe,,,,,,,,,4198,-64,-87,1,0,0,response5disk,,3,-10,8,1,0,0,rectangle,-10,8,1,0,0,-10,8,1,0,0,1,54,214,158,1,,,,,,,,
,,,,,,,,,,,,,FF,,,,,,,,0.933,,,,,,,,,,,,,,,,,,,,,,61034f24da19cc56177b8b59,6103697efcf36e12043158bb,2021-07-30_04h54.08.608,Simcolourproject_2stim_asymm_v5,2020.2.10,Win32,60,61025ae37ef11b136ea224fe,,,,,,,,,1427,53,35,1,0,0,response1disk,,6,-3,11,1,0,0,rectangle,-3,11,1,0,0,-3,11,1,0,0,1,55,215,70,1,,,,,,,,
,,,,,,,,,,,,,FF,,,,,,,,1.249,,,,,,,,,,,,,,,,,,,,,,61034f24da19cc56177b8b59,6103697efcf36e12043158bb,2021-07-30_04h54.08.608,Simcolourproject_2stim_asymm_v5,2020.2.10,Win32,60,61025ae37ef11b136ea224fe,,,,,,,,,1914,42,-93,1,0,0,response3disk,,4,7,-10,1,0,0,rectangle,-67,-36,1,0,0,-8,-8,1,0,0,1,56,216,135,1,,response5disk_3,TRUE,2,2,"[155,250,28,244,140,78,236,190,197,159,158,209,104,108,70,129,202,217,17,289]",2.715,rectangle
,,,,,,,,,,,,,FF,,,,,,,,2,,,,,,,,,,,,,,,,,,,,,,61034f24da19cc56177b8b59,6103697efcf36e12043158bb,2021-07-30_04h54.08.608,Simcolourproject_2stim_asymm_v5,2020.2.10,Win32,60,61025ae37ef11b136ea224fe,,,,,,,,,2158,71,-41,1,0,0,response3disk,,5,-5,-1,1,0,0,rectangle,-5,-1,1,0,0,-5,-1,1,0,0,1,57,217,50,1,,,,,,,,
,,,,,,,,,,,,,FF,,,,,,,,1.016,,,,,,,,,,,,,,,,,,,,,,61034f24da19cc56177b8b59,6103697efcf36e12043158bb,2021-07-30_04h54.08.608,Simcolourproject_2stim_asymm_v5,2020.2.10,Win32,60,61025ae37ef11b136ea224fe,,,,,,,,,1607,-81,-49,1,0,0,response5disk,,2,5,-7,1,0,0,rectangle,5,-7,1,0,0,5,-7,1,0,0,1,58,218,122,1,,,,,,,,
,,,,,,,,,,,,,FF,,,,,,,,1.666,,,,,,,,,,,,,,,,,,,,,,61034f24da19cc56177b8b59,6103697efcf36e12043158bb,2021-07-30_04h54.08.608,Simcolourproject_2stim_asymm_v5,2020.2.10,Win32,60,61025ae37ef11b136ea224fe,,,,,,,,,1343,84,31,1,0,0,response1disk,,6,5,6,1,0,0,rectangle,5,6,1,0,0,5,6,1,0,0,1,59,219,149,1,,,,,,,,
,,,,,,,,,,,,,FF,,,,,,,,2.098,,,,,,,,,,,,,,,,,,,,,,61034f24da19cc56177b8b59,6103697efcf36e12043158bb,2021-07-30_04h54.08.608,Simcolourproject_2stim_asymm_v5,2020.2.10,Win32,60,61025ae37ef11b136ea224fe,,,,,,,,,2591,-85,-48,1,0,0,response5disk,,2,-9,-1,1,0,0,rectangle,-9,-1,1,0,0,-9,-1,1,0,0,1,60,220,19,1,,,,,,,,
,,,,,,,,,,,,,FF,,,,,,,,1.567,,,,,,,,,,,,,,,,,,,,,,61034f24da19cc56177b8b59,6103697efcf36e12043158bb,2021-07-30_04h54.08.608,Simcolourproject_2stim_asymm_v5,2020.2.10,Win32,60,61025ae37ef11b136ea224fe,,,,,,,,,3460,83,-29,1,0,0,response3disk,,5,-19,-5,1,0,0,rectangle,-19,-5,1,0,0,-19,-5,1,0,0,1,61,221,104,1,,,,,,,,
,,,,,,,,,,,,,FF,,,,,,,,1.266,,,,,,,,,,,,,,,,,,,,,,61034f24da19cc56177b8b59,6103697efcf36e12043158bb,2021-07-30_04h54.08.608,Simcolourproject_2stim_asymm_v5,2020.2.10,Win32,60,61025ae37ef11b136ea224fe,,,,,,,,,133,37,-75,1,0,0,response3disk,,4,-3,-5,1,0,0,rectangle,-3,-5,1,0,0,-3,-5,1,0,0,1,62,222,144,1,,,,,,,,
,,,,,,,,,,,,,FF,,,,,,,,1.2,,,,,,,,,,,,,,,,,,,,,,61034f24da19cc56177b8b59,6103697efcf36e12043158bb,2021-07-30_04h54.08.608,Simcolourproject_2stim_asymm_v5,2020.2.10,Win32,60,61025ae37ef11b136ea224fe,,,,,,,,,181,-28,-83,1,0,0,response5disk,,3,-9,3,1,0,0,rectangle,-9,3,1,0,0,-9,3,1,0,0,1,63,223,41,1,,,,,,,,
,,,,,,,,,,,,,FF,,,,,,,,0.949,,,,,,,,,,,,,,,,,,,,,,61034f24da19cc56177b8b59,6103697efcf36e12043158bb,2021-07-30_04h54.08.608,Simcolourproject_2stim_asymm_v5,2020.2.10,Win32,60,61025ae37ef11b136ea224fe,,,,,,,,,75,-81,-45,1,0,0,response5disk,,2,2,-5,1,0,0,rectangle,2,-5,1,0,0,2,-5,1,0,0,1,64,224,138,1,,,,,,,,
,,,,,,,,,,,,,FF,,,,,,,,1.634,,,,,,,,,,,,,,,,,,,,,,61034f24da19cc56177b8b59,6103697efcf36e12043158bb,2021-07-30_04h54.08.608,Simcolourproject_2stim_asymm_v5,2020.2.10,Win32,60,61025ae37ef11b136ea224fe,,,,,,,,,1413,83,47,1,0,0,response1disk,,6,8,5,1,0,0,rectangle,8,5,1,0,0,8,5,1,0,0,1,65,225,75,1,,,,,,,,
,,,,,,,,,,,,,FF,,,,,,,,1.148,,,,,,,,,,,,,,,,,,,,,,61034f24da19cc56177b8b59,6103697efcf36e12043158bb,2021-07-30_04h54.08.608,Simcolourproject_2stim_asymm_v5,2020.2.10,Win32,60,61025ae37ef11b136ea224fe,,,,,,,,,621,-71,-48,1,0,0,response5disk,,2,4,1,1,0,0,rectangle,4,1,1,0,0,4,1,1,0,0,1,66,226,74,1,,,,,,,,
,,,,,,,,,,,,,FF,,,,,,,,1.24,,,,,,,,,,,,,,,,,,,,,,61034f24da19cc56177b8b59,6103697efcf36e12043158bb,2021-07-30_04h54.08.608,Simcolourproject_2stim_asymm_v5,2020.2.10,Win32,60,61025ae37ef11b136ea224fe,,,,,,,,,4144,-73,-51,1,0,0,response5disk,,2,-5,0,1,0,0,rectangle,-5,0,1,0,0,-5,0,1,0,0,1,67,227,22,1,,,,,,,,
,,,,,,,,,,,,,FF,,,,,,,,0.867,,,,,,,,,,,,,,,,,,,,,,61034f24da19cc56177b8b59,6103697efcf36e12043158bb,2021-07-30_04h54.08.608,Simcolourproject_2stim_asymm_v5,2020.2.10,Win32,60,61025ae37ef11b136ea224fe,,,,,,,,,439,-79,-41,1,0,0,response5disk,,2,-14,1,1,0,0,rectangle,-14,1,1,0,0,-14,1,1,0,0,1,68,228,77,1,,,,,,,,
,,,,,,,,,,,,,FF,,,,,,,,0.934,,,,,,,,,,,,,,,,,,,,,,61034f24da19cc56177b8b59,6103697efcf36e12043158bb,2021-07-30_04h54.08.608,Simcolourproject_2stim_asymm_v5,2020.2.10,Win32,60,61025ae37ef11b136ea224fe,,,,,,,,,641,-97,-49,1,0,0,response5disk,,2,16,12,1,0,0,rectangle,16,12,1,0,0,16,12,1,0,0,1,69,229,60,1,,,,,,,,
,,,,,,,,,,,,,FF,,,,,,,,0.881,,,,,,,,,,,,,,,,,,,,,,61034f24da19cc56177b8b59,6103697efcf36e12043158bb,2021-07-30_04h54.08.608,Simcolourproject_2stim_asymm_v5,2020.2.10,Win32,60,61025ae37ef11b136ea224fe,,,,,,,,,887,-77,35,1,0,0,response7disk,,1,-21,3,1,0,0,rectangle,-21,3,1,0,0,-21,3,1,0,0,1,70,230,83,1,,,,,,,,
,,,,,,,,,,,,,FF,,,,,,,,0.85,,,,,,,,,,,,,,,,,,,,,,61034f24da19cc56177b8b59,6103697efcf36e12043158bb,2021-07-30_04h54.08.608,Simcolourproject_2stim_asymm_v5,2020.2.10,Win32,60,61025ae37ef11b136ea224fe,,,,,,,,,4056,-67,-32,1,0,0,response5disk,,2,3,6,1,0,0,rectangle,3,6,1,0,0,3,6,1,0,0,1,71,231,2,1,,,,,,,,
,,,,,,,,,,,,,FF,,,,,,,,0.799,,,,,,,,,,,,,,,,,,,,,,61034f24da19cc56177b8b59,6103697efcf36e12043158bb,2021-07-30_04h54.08.608,Simcolourproject_2stim_asymm_v5,2020.2.10,Win32,60,61025ae37ef11b136ea224fe,,,,,,,,,1145,-70,25,1,0,0,response7disk,,1,-21,5,1,0,0,rectangle,-21,5,1,0,0,-21,5,1,0,0,1,72,232,125,1,,,,,,,,
,,,,,,,,,,,,,FF,,,,,,,,0.849,,,,,,,,,,,,,,,,,,,,,,61034f24da19cc56177b8b59,6103697efcf36e12043158bb,2021-07-30_04h54.08.608,Simcolourproject_2stim_asymm_v5,2020.2.10,Win32,60,61025ae37ef11b136ea224fe,,,,,,,,,1328,-49,-80,1,0,0,response5disk,,3,5,9,1,0,0,rectangle,5,9,1,0,0,5,9,1,0,0,1,73,233,124,1,,,,,,,,
,,,,,,,,,,,,,FF,,,,,,,,1.016,,,,,,,,,,,,,,,,,,,,,,61034f24da19cc56177b8b59,6103697efcf36e12043158bb,2021-07-30_04h54.08.608,Simcolourproject_2stim_asymm_v5,2020.2.10,Win32,60,61025ae37ef11b136ea224fe,,,,,,,,,2329,43,-65,1,0,0,response3disk,,4,22,3,1,0,0,rectangle,22,3,1,0,0,22,3,1,0,0,1,74,234,87,1,,,,,,,,
,,,,,,,,,,,,,FF,,,,,,,,1.516,,,,,,,,,,,,,,,,,,,,,,61034f24da19cc56177b8b59,6103697efcf36e12043158bb,2021-07-30_04h54.08.608,Simcolourproject_2stim_asymm_v5,2020.2.10,Win32,60,61025ae37ef11b136ea224fe,,,,,,,,,607,45,-81,1,0,0,response3disk,,4,15,-3,1,0,0,rectangle,24,71,1,0,0,-8,0,1,0,0,1,75,235,109,1,,response1disk_3,TRUE,7,7,"[155,250,28,244,140,78,236,190,197,159,158,209,104,108,70,129,202,217,17,289]",1.531,rectangle
,,,,,,,,,,,,,FF,,,,,,,,0.999,,,,,,,,,,,,,,,,,,,,,,61034f24da19cc56177b8b59,6103697efcf36e12043158bb,2021-07-30_04h54.08.608,Simcolourproject_2stim_asymm_v5,2020.2.10,Win32,60,61025ae37ef11b136ea224fe,,,,,,,,,3783,-85,-56,1,0,0,response5disk,,2,-6,-1,1,0,0,rectangle,-6,-1,1,0,0,-6,-1,1,0,0,1,76,236,91,1,,,,,,,,
,,,,,,,,,,,,,FF,,,,,,,,1.2,,,,,,,,,,,,,,,,,,,,,,61034f24da19cc56177b8b59,6103697efcf36e12043158bb,2021-07-30_04h54.08.608,Simcolourproject_2stim_asymm_v5,2020.2.10,Win32,60,61025ae37ef11b136ea224fe,,,,,,,,,55,-33,-93,1,0,0,response5disk,,3,-8,-9,1,0,0,rectangle,-8,-9,1,0,0,-8,-9,1,0,0,1,77,237,96,1,,,,,,,,
,,,,,,,,,,,,,FF,,,,,,,,1.783,,,,,,,,,,,,,,,,,,,,,,61034f24da19cc56177b8b59,6103697efcf36e12043158bb,2021-07-30_04h54.08.608,Simcolourproject_2stim_asymm_v5,2020.2.10,Win32,60,61025ae37ef11b136ea224fe,,,,,,,,,4296,78,-41,1,0,0,response3disk,,5,-21,-13,1,0,0,rectangle,-21,-13,1,0,0,-21,-13,1,0,0,1,78,238,31,1,,,,,,,,
,,,,,,,,,,,,,FF,,,,,,,,1.349,,,,,,,,,,,,,,,,,,,,,,61034f24da19cc56177b8b59,6103697efcf36e12043158bb,2021-07-30_04h54.08.608,Simcolourproject_2stim_asymm_v5,2020.2.10,Win32,60,61025ae37ef11b136ea224fe,,,,,,,,,4196,-45,-85,1,0,0,response5disk,,3,-7,-9,1,0,0,rectangle,-7,-9,1,0,0,-7,-9,1,0,0,1,79,239,44,1,,,,,,,,
,,,,,,,,,,,,,FF,,,,,,,,0.917,,,,,,,,,,,,,,,,,,,,,,61034f24da19cc56177b8b59,6103697efcf36e12043158bb,2021-07-30_04h54.08.608,Simcolourproject_2stim_asymm_v5,2020.2.10,Win32,60,61025ae37ef11b136ea224fe,,,,,,,,,731,-75,-29,1,0,0,response5disk,,2,3,-1,1,0,0,rectangle,3,-1,1,0,0,3,-1,1,0,0,1,80,240,73,1,,,,,,,,
,,,,,,,,,,,,,FF,,,,,,,,0.982,,,,,,,,,,,,,,,,,,,,,,61034f24da19cc56177b8b59,6103697efcf36e12043158bb,2021-07-30_04h54.08.608,Simcolourproject_2stim_asymm_v5,2020.2.10,Win32,60,61025ae37ef11b136ea224fe,,,,,,,,,1797,73,-45,1,0,0,response3disk,,5,-20,12,1,0,0,rectangle,-20,12,1,0,0,-20,12,1,0,0,1,81,241,101,1,,,,,,,,
,,,,,,,,,,,,,FF,,,,,,,,1.433,,,,,,,,,,,,,,,,,,,,,,61034f24da19cc56177b8b59,6103697efcf36e12043158bb,2021-07-30_04h54.08.608,Simcolourproject_2stim_asymm_v5,2020.2.10,Win32,60,61025ae37ef11b136ea224fe,,,,,,,,,3843,-39,79,1,0,0,response7disk,,0,3,3,1,0,0,rectangle,3,3,1,0,0,3,3,1,0,0,1,82,242,141,1,,,,,,,,
,,,,,,,,,,,,,FF,,,,,,,,1.081,,,,,,,,,,,,,,,,,,,,,,61034f24da19cc56177b8b59,6103697efcf36e12043158bb,2021-07-30_04h54.08.608,Simcolourproject_2stim_asymm_v5,2020.2.10,Win32,60,61025ae37ef11b136ea224fe,,,,,,,,,2691,48,-54,1,0,0,response3disk,,4,15,7,1,0,0,rectangle,80,-32,1,0,0,-4,-13,1,0,0,1,83,243,132,1,,response3disk_3,TRUE,5,5,"[155,250,28,244,140,78,236,190,197,159,158,209,104,108,70,129,202,217,17,289]",1.815,rectangle
,,,,,,,,,,,,,FF,,,,,,,,0.983,,,,,,,,,,,,,,,,,,,,,,61034f24da19cc56177b8b59,6103697efcf36e12043158bb,2021-07-30_04h54.08.608,Simcolourproject_2stim_asymm_v5,2020.2.10,Win32,60,61025ae37ef11b136ea224fe,,,,,,,,,909,-71,-25,1,0,0,response5disk,,2,3,6,1,0,0,rectangle,3,6,1,0,0,3,6,1,0,0,1,84,244,42,1,,,,,,,,
,,,,,,,,,,,,,FF,,,,,,,,1.849,,,,,,,,,,,,,,,,,,,,,,61034f24da19cc56177b8b59,6103697efcf36e12043158bb,2021-07-30_04h54.08.608,Simcolourproject_2stim_asymm_v5,2020.2.10,Win32,60,61025ae37ef11b136ea224fe,,,,,,,,,343,-41,-77,1,0,0,response5disk,,3,-1,-11,1,0,0,rectangle,-1,-11,1,0,0,-1,-11,1,0,0,1,85,245,13,1,,,,,,,,
,,,,,,,,,,,,,FF,,,,,,,,0.918,,,,,,,,,,,,,,,,,,,,,,61034f24da19cc56177b8b59,6103697efcf36e12043158bb,2021-07-30_04h54.08.608,Simcolourproject_2stim_asymm_v5,2020.2.10,Win32,60,61025ae37ef11b136ea224fe,,,,,,,,,897,-77,-27,1,0,0,response5disk,,2,-9,-2,1,0,0,rectangle,-9,-2,1,0,0,-9,-2,1,0,0,1,86,246,25,1,,,,,,,,
,,,,,,,,,,,,,FF,,,,,,,,1.033,,,,,,,,,,,,,,,,,,,,,,61034f24da19cc56177b8b59,6103697efcf36e12043158bb,2021-07-30_04h54.08.608,Simcolourproject_2stim_asymm_v5,2020.2.10,Win32,60,61025ae37ef11b136ea224fe,,,,,,,,,3312,39,-77,1,0,0,response3disk,,4,15,0,1,0,0,rectangle,15,0,1,0,0,15,0,1,0,0,1,87,247,28,1,,,,,,,,
,,,,,,,,,,,,,FF,,,,,,,,0.982,,,,,,,,,,,,,,,,,,,,,,61034f24da19cc56177b8b59,6103697efcf36e12043158bb,2021-07-30_04h54.08.608,Simcolourproject_2stim_asymm_v5,2020.2.10,Win32,60,61025ae37ef11b136ea224fe,,,,,,,,,1018,85,-31,1,0,0,response3disk,,5,-2,0,1,0,0,rectangle,-2,0,1,0,0,-2,0,1,0,0,1,88,248,69,1,,,,,,,,
,,,,,,,,,,,,,FF,,,,,,,,0.965,,,,,,,,,,,,,,,,,,,,,,61034f24da19cc56177b8b59,6103697efcf36e12043158bb,2021-07-30_04h54.08.608,Simcolourproject_2stim_asymm_v5,2020.2.10,Win32,60,61025ae37ef11b136ea224fe,,,,,,,,,1332,75,21,1,0,0,response1disk,,6,3,5,1,0,0,rectangle,-84,-32,1,0,0,-5,9,1,0,0,1,89,249,116,1,,response5disk_3,TRUE,2,2,"[155,250,28,244,140,78,236,190,197,159,158,209,104,108,70,129,202,217,17,289]",1.931,rectangle
,,,,,,,,,,,,,FF,,,,,,,,1.284,,,,,,,,,,,,,,,,,,,,,,61034f24da19cc56177b8b59,6103697efcf36e12043158bb,2021-07-30_04h54.08.608,Simcolourproject_2stim_asymm_v5,2020.2.10,Win32,60,61025ae37ef11b136ea224fe,,,,,,,,,3803,-74,-87,1,0,0,response5disk,,3,-5,4,1,0,0,rectangle,-5,4,1,0,0,-5,4,1,0,0,1,90,250,8,1,,,,,,,,
,,,,,,,,,,,,,FF,,,,,,,,0.983,,,,,,,,,,,,,,,,,,,,,,61034f24da19cc56177b8b59,6103697efcf36e12043158bb,2021-07-30_04h54.08.608,Simcolourproject_2stim_asymm_v5,2020.2.10,Win32,60,61025ae37ef11b136ea224fe,,,,,,,,,3057,-78,-23,1,0,0,response5disk,,2,5,1,1,0,0,rectangle,5,1,1,0,0,5,1,1,0,0,1,91,251,52,1,,,,,,,,
,,,,,,,,,,,,,FF,,,,,,,,1.666,,,,,,,,,,,,,,,,,,,,,,61034f24da19cc56177b8b59,6103697efcf36e12043158bb,2021-07-30_04h54.08.608,Simcolourproject_2stim_asymm_v5,2020.2.10,Win32,60,61025ae37ef11b136ea224fe,,,,,,,,,1949,-53,-80,1,0,0,response5disk,,3,-2,11,1,0,0,rectangle,-2,11,1,0,0,-2,11,1,0,0,1,92,252,86,1,,,,,,,,
,,,,,,,,,,,,,FF,,,,,,,,0.8,,,,,,,,,,,,,,,,,,,,,,61034f24da19cc56177b8b59,6103697efcf36e12043158bb,2021-07-30_04h54.08.608,Simcolourproject_2stim_asymm_v5,2020.2.10,Win32,60,61025ae37ef11b136ea224fe,,,,,,,,,3644,31,-64,1,0,0,response3disk,,4,8,3,1,0,0,rectangle,8,3,1,0,0,8,3,1,0,0,1,93,253,103,1,,,,,,,,
,,,,,,,,,,,,,FF,,,,,,,,1.617,,,,,,,,,,,,,,,,,,,,,,61034f24da19cc56177b8b59,6103697efcf36e12043158bb,2021-07-30_04h54.08.608,Simcolourproject_2stim_asymm_v5,2020.2.10,Win32,60,61025ae37ef11b136ea224fe,,,,,,,,,4090,40,-77,1,0,0,response3disk,,4,8,3,1,0,0,rectangle,8,3,1,0,0,8,3,1,0,0,1,94,254,4,1,,,,,,,,
,,,,,,,,,,,,,FF,,,,,,,,1.466,,,,,,,,,,,,,,,,,,,,,,61034f24da19cc56177b8b59,6103697efcf36e12043158bb,2021-07-30_04h54.08.608,Simcolourproject_2stim_asymm_v5,2020.2.10,Win32,60,61025ae37ef11b136ea224fe,,,,,,,,,936,92,33,1,0,0,response1disk,,6,21,1,1,0,0,rectangle,21,1,1,0,0,21,1,1,0,0,1,95,255,90,1,,,,,,,,
,,,,,,,,,,,,,FF,,,,,,,,0.999,,,,,,,,,,,,,,,,,,,,,,61034f24da19cc56177b8b59,6103697efcf36e12043158bb,2021-07-30_04h54.08.608,Simcolourproject_2stim_asymm_v5,2020.2.10,Win32,60,61025ae37ef11b136ea224fe,,,,,,,,,1690,-73,-23,1,0,0,response5disk,,2,-13,3,1,0,0,rectangle,-13,3,1,0,0,-13,3,1,0,0,1,96,256,102,1,,,,,,,,
,,,,,,,,,,,,,FF,,,,,,,,2.265,,,,,,,,,,,,,,,,,,,,,,61034f24da19cc56177b8b59,6103697efcf36e12043158bb,2021-07-30_04h54.08.608,Simcolourproject_2stim_asymm_v5,2020.2.10,Win32,60,61025ae37ef11b136ea224fe,,,,,,,,,2320,53,-78,1,0,0,response3disk,,4,-14,-1,1,0,0,rectangle,-14,-1,1,0,0,-14,-1,1,0,0,1,97,257,64,1,,,,,,,,
,,,,,,,,,,,,,FF,,,,,,,,0.842,,,,,,,,,,,,,,,,,,,,,,61034f24da19cc56177b8b59,6103697efcf36e12043158bb,2021-07-30_04h54.08.608,Simcolourproject_2stim_asymm_v5,2020.2.10,Win32,60,61025ae37ef11b136ea224fe,,,,,,,,,4305,-69,37,1,0,0,response7disk,,1,-6,14,1,0,0,rectangle,-6,14,1,0,0,-6,14,1,0,0,1,98,258,34,1,,,,,,,,
,,,,,,,,,,,,,FF,,,,,,,,1.033,,,,,,,,,,,,,,,,,,,,,,61034f24da19cc56177b8b59,6103697efcf36e12043158bb,2021-07-30_04h54.08.608,Simcolourproject_2stim_asymm_v5,2020.2.10,Win32,60,61025ae37ef11b136ea224fe,,,,,,,,,131,-39,-77,1,0,0,response5disk,,3,-8,-3,1,0,0,rectangle,-8,-3,1,0,0,-8,-3,1,0,0,1,99,259,145,1,,,,,,,,
,,,,,,,,,,,,,FF,,,,,,,,0.999,,,,,,,,,,,,,,,,,,,,,,61034f24da19cc56177b8b59,6103697efcf36e12043158bb,2021-07-30_04h54.08.608,Simcolourproject_2stim_asymm_v5,2020.2.10,Win32,60,61025ae37ef11b136ea224fe,,,,,,,,,1973,-66,-25,1,0,0,response5disk,,2,-4,7,1,0,0,rectangle,-4,7,1,0,0,-4,7,1,0,0,1,100,260,12,1,,,,,,,,
,,,,,,,,,,,,,FF,,,,,,,,0.899,,,,,,,,,,,,,,,,,,,,,,61034f24da19cc56177b8b59,6103697efcf36e12043158bb,2021-07-30_04h54.08.608,Simcolourproject_2stim_asymm_v5,2020.2.10,Win32,60,61025ae37ef11b136ea224fe,,,,,,,,,2806,33,-74,1,0,0,response3disk,,4,10,-1,1,0,0,rectangle,10,-1,1,0,0,10,-1,1,0,0,1,101,261,48,1,,,,,,,,
,,,,,,,,,,,,,FF,,,,,,,,0.899,,,,,,,,,,,,,,,,,,,,,,61034f24da19cc56177b8b59,6103697efcf36e12043158bb,2021-07-30_04h54.08.608,Simcolourproject_2stim_asymm_v5,2020.2.10,Win32,60,61025ae37ef11b136ea224fe,,,,,,,,,2423,-37,-71,1,0,0,response5disk,,3,-7,-2,1,0,0,rectangle,-7,-2,1,0,0,-7,-2,1,0,0,1,102,262,159,1,,,,,,,,
,,,,,,,,,,,,,FF,,,,,,,,0.95,,,,,,,,,,,,,,,,,,,,,,61034f24da19cc56177b8b59,6103697efcf36e12043158bb,2021-07-30_04h54.08.608,Simcolourproject_2stim_asymm_v5,2020.2.10,Win32,60,61025ae37ef11b136ea224fe,,,,,,,,,252,-29,-86,1,0,0,response5disk,,3,-6,-9,1,0,0,rectangle,-6,-9,1,0,0,-6,-9,1,0,0,1,103,263,76,1,,,,,,,,
,,,,,,,,,,,,,FF,,,,,,,,1.016,,,,,,,,,,,,,,,,,,,,,,61034f24da19cc56177b8b59,6103697efcf36e12043158bb,2021-07-30_04h54.08.608,Simcolourproject_2stim_asymm_v5,2020.2.10,Win32,60,61025ae37ef11b136ea224fe,,,,,,,,,6,37,-68,1,0,0,response3disk,,4,13,-5,1,0,0,rectangle,13,-5,1,0,0,13,-5,1,0,0,1,104,264,71,1,,,,,,,,
,,,,,,,,,,,,,FF,,,,,,,,1.432,,,,,,,,,,,,,,,,,,,,,,61034f24da19cc56177b8b59,6103697efcf36e12043158bb,2021-07-30_04h54.08.608,Simcolourproject_2stim_asymm_v5,2020.2.10,Win32,60,61025ae37ef11b136ea224fe,,,,,,,,,3210,19,-79,1,0,0,response3disk,,4,-3,6,1,0,0,rectangle,-3,6,1,0,0,-3,6,1,0,0,1,105,265,157,1,,,,,,,,
,,,,,,,,,,,,,FF,,,,,,,,1.384,,,,,,,,,,,,,,,,,,,,,,61034f24da19cc56177b8b59,6103697efcf36e12043158bb,2021-07-30_04h54.08.608,Simcolourproject_2stim_asymm_v5,2020.2.10,Win32,60,61025ae37ef11b136ea224fe,,,,,,,,,1631,21,-69,1,0,0,response3disk,,4,1,-3,1,0,0,rectangle,1,-3,1,0,0,1,-3,1,0,0,1,106,266,66,1,,,,,,,,
,,,,,,,,,,,,,FF,,,,,,,,1.899,,,,,,,,,,,,,,,,,,,,,,61034f24da19cc56177b8b59,6103697efcf36e12043158bb,2021-07-30_04h54.08.608,Simcolourproject_2stim_asymm_v5,2020.2.10,Win32,60,61025ae37ef11b136ea224fe,,,,,,,,,2774,82,21,1,0,0,response1disk,,6,-3,11,1,0,0,rectangle,-3,11,1,0,0,-3,11,1,0,0,1,107,267,62,1,,,,,,,,
,,,,,,,,,,,,,FF,,,,,,,,2.182,,,,,,,,,,,,,,,,,,,,,,61034f24da19cc56177b8b59,6103697efcf36e12043158bb,2021-07-30_04h54.08.608,Simcolourproject_2stim_asymm_v5,2020.2.10,Win32,60,61025ae37ef11b136ea224fe,,,,,,,,,335,50,-90,1,0,0,response3disk,,4,10,-3,1,0,0,rectangle,10,-3,1,0,0,10,-3,1,0,0,1,108,268,21,1,,,,,,,,
,,,,,,,,,,,,,FF,,,,,,,,2.698,,,,,,,,,,,,,,,,,,,,,,61034f24da19cc56177b8b59,6103697efcf36e12043158bb,2021-07-30_04h54.08.608,Simcolourproject_2stim_asymm_v5,2020.2.10,Win32,60,61025ae37ef11b136ea224fe,,,,,,,,,3866,97,-44,1,0,0,response3disk,,5,11,11,1,0,0,rectangle,11,11,1,0,0,11,11,1,0,0,1,109,269,79,1,,,,,,,,
,,,,,,,,,,,,,FF,,,,,,,,0.832,,,,,,,,,,,,,,,,,,,,,,61034f24da19cc56177b8b59,6103697efcf36e12043158bb,2021-07-30_04h54.08.608,Simcolourproject_2stim_asymm_v5,2020.2.10,Win32,60,61025ae37ef11b136ea224fe,,,,,,,,,1452,-65,45,1,0,0,response7disk,,1,11,6,1,0,0,rectangle,11,6,1,0,0,11,6,1,0,0,1,110,270,58,1,,,,,,,,
,,,,,,,,,,,,,FF,,,,,,,,1.399,,,,,,,,,,,,,,,,,,,,,,61034f24da19cc56177b8b59,6103697efcf36e12043158bb,2021-07-30_04h54.08.608,Simcolourproject_2stim_asymm_v5,2020.2.10,Win32,60,61025ae37ef11b136ea224fe,,,,,,,,,1486,78,-39,1,0,0,response3disk,,5,16,3,1,0,0,rectangle,16,3,1,0,0,16,3,1,0,0,1,111,271,30,1,,,,,,,,
,,,,,,,,,,,,,FF,,,,,,,,1.316,,,,,,,,,,,,,,,,,,,,,,61034f24da19cc56177b8b59,6103697efcf36e12043158bb,2021-07-30_04h54.08.608,Simcolourproject_2stim_asymm_v5,2020.2.10,Win32,60,61025ae37ef11b136ea224fe,,,,,,,,,506,43,-57,1,0,0,response3disk,,4,7,3,1,0,0,rectangle,7,3,1,0,0,7,3,1,0,0,1,112,272,72,1,,,,,,,,
,,,,,,,,,,,,,FF,,,,,,,,0.95,,,,,,,,,,,,,,,,,,,,,,61034f24da19cc56177b8b59,6103697efcf36e12043158bb,2021-07-30_04h54.08.608,Simcolourproject_2stim_asymm_v5,2020.2.10,Win32,60,61025ae37ef11b136ea224fe,,,,,,,,,3894,33,-79,1,0,0,response3disk,,4,-3,-8,1,0,0,rectangle,-3,-8,1,0,0,-3,-8,1,0,0,1,113,273,147,1,,,,,,,,
,,,,,,,,,,,,,FF,,,,,,,,0.73,,,,,,,,,,,,,,,,,,,,,,61034f24da19cc56177b8b59,6103697efcf36e12043158bb,2021-07-30_04h54.08.608,Simcolourproject_2stim_asymm_v5,2020.2.10,Win32,60,61025ae37ef11b136ea224fe,,,,,,,,,3440,-52,-68,1,0,0,response5disk,,3,-19,0,1,0,0,rectangle,-19,0,1,0,0,-19,0,1,0,0,1,114,274,45,1,,,,,,,,
,,,,,,,,,,,,,FF,,,,,,,,0.783,,,,,,,,,,,,,,,,,,,,,,61034f24da19cc56177b8b59,6103697efcf36e12043158bb,2021-07-30_04h54.08.608,Simcolourproject_2stim_asymm_v5,2020.2.10,Win32,60,61025ae37ef11b136ea224fe,,,,,,,,,1041,-49,-25,1,0,0,response5disk,,2,1,7,1,0,0,rectangle,1,7,1,0,0,1,7,1,0,0,1,115,275,78,1,,,,,,,,
,,,,,,,,,,,,,FF,,,,,,,,0.799,,,,,,,,,,,,,,,,,,,,,,61034f24da19cc56177b8b59,6103697efcf36e12043158bb,2021-07-30_04h54.08.608,Simcolourproject_2stim_asymm_v5,2020.2.10,Win32,60,61025ae37ef11b136ea224fe,,,,,,,,,1719,27,-56,1,0,0,response3disk,,4,16,9,1,0,0,rectangle,16,9,1,0,0,16,9,1,0,0,1,116,276,130,1,,,,,,,,
,,,,,,,,,,,,,FF,,,,,,,,1.22,,,,,,,,,,,,,,,,,,,,,,61034f24da19cc56177b8b59,6103697efcf36e12043158bb,2021-07-30_04h54.08.608,Simcolourproject_2stim_asymm_v5,2020.2.10,Win32,60,61025ae37ef11b136ea224fe,,,,,,,,,794,68,-38,1,0,0,response3disk,,5,5,3,1,0,0,rectangle,5,3,1,0,0,5,3,1,0,0,1,117,277,6,1,,,,,,,,
,,,,,,,,,,,,,FF,,,,,,,,0.982,,,,,,,,,,,,,,,,,,,,,,61034f24da19cc56177b8b59,6103697efcf36e12043158bb,2021-07-30_04h54.08.608,Simcolourproject_2stim_asymm_v5,2020.2.10,Win32,60,61025ae37ef11b136ea224fe,,,,,,,,,2263,79,-31,1,0,0,response3disk,,5,-5,5,1,0,0,rectangle,-5,5,1,0,0,-5,5,1,0,0,1,118,278,33,1,,,,,,,,
,,,,,,,,,,,,,FF,,,,,,,,1.465,,,,,,,,,,,,,,,,,,,,,,61034f24da19cc56177b8b59,6103697efcf36e12043158bb,2021-07-30_04h54.08.608,Simcolourproject_2stim_asymm_v5,2020.2.10,Win32,60,61025ae37ef11b136ea224fe,,,,,,,,,3893,21,-89,1,0,0,response3disk,,4,-5,7,1,0,0,rectangle,-5,7,1,0,0,-5,7,1,0,0,1,119,279,113,1,,,,,,,,
,,,,,,,,,,,,,FF,,,,,,,,1.635,,,,,,,,,,,,,,,,,,,,,,61034f24da19cc56177b8b59,6103697efcf36e12043158bb,2021-07-30_04h54.08.608,Simcolourproject_2stim_asymm_v5,2020.2.10,Win32,60,61025ae37ef11b136ea224fe,,,,,,,,,3056,-38,-59,1,0,0,response5disk,,3,0,-13,1,0,0,rectangle,0,-13,1,0,0,0,-13,1,0,0,1,120,280,18,1,,,,,,,,
,,,,,,,,,,,,,FF,,,,,,,,2.049,,,,,,,,,,,,,,,,,,,,,,61034f24da19cc56177b8b59,6103697efcf36e12043158bb,2021-07-30_04h54.08.608,Simcolourproject_2stim_asymm_v5,2020.2.10,Win32,60,61025ae37ef11b136ea224fe,,,,,,,,,1049,85,34,1,0,0,response1disk,,6,-5,9,1,0,0,rectangle,-5,9,1,0,0,-5,9,1,0,0,1,121,281,153,1,,,,,,,,
,,,,,,,,,,,,,FF,,,,,,,,2.116,,,,,,,,,,,,,,,,,,,,,,61034f24da19cc56177b8b59,6103697efcf36e12043158bb,2021-07-30_04h54.08.608,Simcolourproject_2stim_asymm_v5,2020.2.10,Win32,60,61025ae37ef11b136ea224fe,,,,,,,,,4113,-26,-91,1,0,0,response5disk,,3,-5,1,1,0,0,rectangle,-5,1,1,0,0,-5,1,1,0,0,1,122,282,156,1,,,,,,,,
,,,,,,,,,,,,,FF,,,,,,,,4.231,,,,,,,,,,,,,,,,,,,,,,61034f24da19cc56177b8b59,6103697efcf36e12043158bb,2021-07-30_04h54.08.608,Simcolourproject_2stim_asymm_v5,2020.2.10,Win32,60,61025ae37ef11b136ea224fe,,,,,,,,,2458,-25,-51,1,0,0,response5disk,,3,8,1,1,0,0,rectangle,8,1,1,0,0,8,1,1,0,0,1,123,283,119,1,,,,,,,,
,,,,,,,,,,,,,FF,,,,,,,,1.465,,,,,,,,,,,,,,,,,,,,,,61034f24da19cc56177b8b59,6103697efcf36e12043158bb,2021-07-30_04h54.08.608,Simcolourproject_2stim_asymm_v5,2020.2.10,Win32,60,61025ae37ef11b136ea224fe,,,,,,,,,1516,-29,-85,1,0,0,response5disk,,3,1,1,1,0,0,rectangle,1,1,1,0,0,1,1,1,0,0,1,124,284,148,1,,,,,,,,
,,,,,,,,,,,,,FF,,,,,,,,3.533,,,,,,,,,,,,,,,,,,,,,,61034f24da19cc56177b8b59,6103697efcf36e12043158bb,2021-07-30_04h54.08.608,Simcolourproject_2stim_asymm_v5,2020.2.10,Win32,60,61025ae37ef11b136ea224fe,,,,,,,,,1657,47,-89,1,0,0,response3disk,,4,1,13,1,0,0,rectangle,1,13,1,0,0,1,13,1,0,0,1,125,285,26,1,,,,,,,,
,,,,,,,,,,,,,FF,,,,,,,,1.433,,,,,,,,,,,,,,,,,,,,,,61034f24da19cc56177b8b59,6103697efcf36e12043158bb,2021-07-30_04h54.08.608,Simcolourproject_2stim_asymm_v5,2020.2.10,Win32,60,61025ae37ef11b136ea224fe,,,,,,,,,3091,-73,-38,1,0,0,response5disk,,2,4,2,1,0,0,rectangle,4,2,1,0,0,4,2,1,0,0,1,126,286,99,1,,,,,,,,
,,,,,,,,,,,,,FF,,,,,,,,1.507,,,,,,,,,,,,,,,,,,,,,,61034f24da19cc56177b8b59,6103697efcf36e12043158bb,2021-07-30_04h54.08.608,Simcolourproject_2stim_asymm_v5,2020.2.10,Win32,60,61025ae37ef11b136ea224fe,,,,,,,,,178,29,-82,1,0,0,response3disk,,4,3,7,1,0,0,rectangle,3,7,1,0,0,3,7,1,0,0,1,127,287,9,1,,,,,,,,
,,,,,,,,,,,,,FF,,,,,,,,1.899,,,,,,,,,,,,,,,,,,,,,,61034f24da19cc56177b8b59,6103697efcf36e12043158bb,2021-07-30_04h54.08.608,Simcolourproject_2stim_asymm_v5,2020.2.10,Win32,60,61025ae37ef11b136ea224fe,,,,,,,,,2890,-46,-67,1,0,0,response5disk,,3,-6,8,1,0,0,rectangle,-34,-91,1,0,0,-13,1,1,0,0,1,128,288,65,1,,response5disk_3,TRUE,3,3,"[155,250,28,244,140,78,236,190,197,159,158,209,104,108,70,129,202,217,17,289]",2.098,rectangle
,,,,,,,,,,,,,FF,,,,,,,,1.533,,,,,,,,,,,,,,,,,,,,,,61034f24da19cc56177b8b59,6103697efcf36e12043158bb,2021-07-30_04h54.08.608,Simcolourproject_2stim_asymm_v5,2020.2.10,Win32,60,61025ae37ef11b136ea224fe,,,,,,,,,620,-31,73,1,0,0,response7disk,,0,-1,-5,1,0,0,rectangle,-1,-5,1,0,0,-1,-5,1,0,0,1,129,289,150,1,,,,,,,,
,,,,,,,,,,,,,FF,,,,,,,,1.451,,,,,,,,,,,,,,,,,,,,,,61034f24da19cc56177b8b59,6103697efcf36e12043158bb,2021-07-30_04h54.08.608,Simcolourproject_2stim_asymm_v5,2020.2.10,Win32,60,61025ae37ef11b136ea224fe,,,,,,,,,2267,43,-72,1,0,0,response3disk,,4,11,3,1,0,0,rectangle,11,3,1,0,0,11,3,1,0,0,1,130,290,37,1,,,,,,,,
,,,,,,,,,,,,,FF,,,,,,,,1.9,,,,,,,,,,,,,,,,,,,,,,61034f24da19cc56177b8b59,6103697efcf36e12043158bb,2021-07-30_04h54.08.608,Simcolourproject_2stim_asymm_v5,2020.2.10,Win32,60,61025ae37ef11b136ea224fe,,,,,,,,,640,-49,-63,1,0,0,response5disk,,3,-9,-5,1,0,0,rectangle,-9,-5,1,0,0,-9,-5,1,0,0,1,131,291,131,1,,,,,,,,
,,,,,,,,,,,,,FF,,,,,,,,1.301,,,,,,,,,,,,,,,,,,,,,,61034f24da19cc56177b8b59,6103697efcf36e12043158bb,2021-07-30_04h54.08.608,Simcolourproject_2stim_asymm_v5,2020.2.10,Win32,60,61025ae37ef11b136ea224fe,,,,,,,,,858,97,19,1,0,0,response1disk,,6,21,-9,1,0,0,rectangle,21,-9,1,0,0,21,-9,1,0,0,1,132,292,55,1,,,,,,,,
,,,,,,,,,,,,,FF,,,,,,,,1.183,,,,,,,,,,,,,,,,,,,,,,61034f24da19cc56177b8b59,6103697efcf36e12043158bb,2021-07-30_04h54.08.608,Simcolourproject_2stim_asymm_v5,2020.2.10,Win32,60,61025ae37ef11b136ea224fe,,,,,,,,,2679,-35,-68,1,0,0,response5disk,,3,-7,-7,1,0,0,rectangle,-7,-7,1,0,0,-7,-7,1,0,0,1,133,293,142,1,,,,,,,,
,,,,,,,,,,,,,FF,,,,,,,,0.956,,,,,,,,,,,,,,,,,,,,,,61034f24da19cc56177b8b59,6103697efcf36e12043158bb,2021-07-30_04h54.08.608,Simcolourproject_2stim_asymm_v5,2020.2.10,Win32,60,61025ae37ef11b136ea224fe,,,,,,,,,3914,-27,-67,1,0,0,response5disk,,3,1,-1,1,0,0,rectangle,1,-1,1,0,0,1,-1,1,0,0,1,134,294,139,1,,,,,,,,
,,,,,,,,,,,,,FF,,,,,,,,1.038,,,,,,,,,,,,,,,,,,,,,,61034f24da19cc56177b8b59,6103697efcf36e12043158bb,2021-07-30_04h54.08.608,Simcolourproject_2stim_asymm_v5,2020.2.10,Win32,60,61025ae37ef11b136ea224fe,,,,,,,,,4157,38,-53,1,0,0,response3disk,,4,5,4,1,0,0,rectangle,5,4,1,0,0,5,4,1,0,0,1,135,295,85,1,,,,,,,,
,,,,,,,,,,,,,FF,,,,,,,,1.066,,,,,,,,,,,,,,,,,,,,,,61034f24da19cc56177b8b59,6103697efcf36e12043158bb,2021-07-30_04h54.08.608,Simcolourproject_2stim_asymm_v5,2020.2.10,Win32,60,61025ae37ef11b136ea224fe,,,,,,,,,629,63,28,1,0,0,response1disk,,6,3,11,1,0,0,rectangle,3,11,1,0,0,3,11,1,0,0,1,136,296,112,1,,,,,,,,
,,,,,,,,,,,,,FF,,,,,,,,0.916,,,,,,,,,,,,,,,,,,,,,,61034f24da19cc56177b8b59,6103697efcf36e12043158bb,2021-07-30_04h54.08.608,Simcolourproject_2stim_asymm_v5,2020.2.10,Win32,60,61025ae37ef11b136ea224fe,,,,,,,,,3046,-59,-23,1,0,0,response5disk,,2,-9,-1,1,0,0,rectangle,-9,-1,1,0,0,-9,-1,1,0,0,1,137,297,59,1,,,,,,,,
,,,,,,,,,,,,,FF,,,,,,,,1.891,,,,,,,,,,,,,,,,,,,,,,61034f24da19cc56177b8b59,6103697efcf36e12043158bb,2021-07-30_04h54.08.608,Simcolourproject_2stim_asymm_v5,2020.2.10,Win32,60,61025ae37ef11b136ea224fe,,,,,,,,,1112,79,-40,1,0,0,response3disk,,5,9,-8,1,0,0,rectangle,9,-8,1,0,0,9,-8,1,0,0,1,138,298,24,1,,,,,,,,
,,,,,,,,,,,,,FF,,,,,,,,1.217,,,,,,,,,,,,,,,,,,,,,,61034f24da19cc56177b8b59,6103697efcf36e12043158bb,2021-07-30_04h54.08.608,Simcolourproject_2stim_asymm_v5,2020.2.10,Win32,60,61025ae37ef11b136ea224fe,,,,,,,,,2236,-58,-43,1,0,0,response5disk,,2,-2,-8,1,0,0,rectangle,-2,-8,1,0,0,-2,-8,1,0,0,1,139,299,110,1,,,,,,,,
,,,,,,,,,,,,,FF,,,,,,,,1.282,,,,,,,,,,,,,,,,,,,,,,61034f24da19cc56177b8b59,6103697efcf36e12043158bb,2021-07-30_04h54.08.608,Simcolourproject_2stim_asymm_v5,2020.2.10,Win32,60,61025ae37ef11b136ea224fe,,,,,,,,,1991,33,-69,1,0,0,response3disk,,4,-3,0,1,0,0,rectangle,-3,0,1,0,0,-3,0,1,0,0,1,140,300,0,1,,,,,,,,
,,,,,,,,,,,,,FF,,,,,,,,2.515,,,,,,,,,,,,,,,,,,,,,,61034f24da19cc56177b8b59,6103697efcf36e12043158bb,2021-07-30_04h54.08.608,Simcolourproject_2stim_asymm_v5,2020.2.10,Win32,60,61025ae37ef11b136ea224fe,,,,,,,,,2053,-30,-64,1,0,0,response5disk,,3,0,-3,1,0,0,rectangle,0,-3,1,0,0,0,-3,1,0,0,1,141,301,121,1,,,,,,,,
,,,,,,,,,,,,,FF,,,,,,,,0.882,,,,,,,,,,,,,,,,,,,,,,61034f24da19cc56177b8b59,6103697efcf36e12043158bb,2021-07-30_04h54.08.608,Simcolourproject_2stim_asymm_v5,2020.2.10,Win32,60,61025ae37ef11b136ea224fe,,,,,,,,,147,28,-69,1,0,0,response3disk,,4,-9,-1,1,0,0,rectangle,-9,-1,1,0,0,-9,-1,1,0,0,1,142,302,61,1,,,,,,,,
