key_resp.keys,key_resp.rt,key_resp_14.keys,key_resp_14.rt,key_resp_15.keys,key_resp_15.rt,key_resp_17.keys,key_resp_17.rt,key_resp_9.keys,key_resp_9.rt,key_resp_10.keys,key_resp_10.rt,practice_comparison,Ecc,mouse_5.x,mouse_5.y,mouse_5.leftButton,mouse_5.midButton,mouse_5.rightButton,mouse_5.clicked_name,pracsimilarity,response_time,mouse_10.x,mouse_10.y,mouse_10.leftButton,mouse_10.midButton,mouse_10.rightButton,mouse_10.clicked_name,mouse_7.x,mouse_7.y,mouse_7.leftButton,mouse_7.midButton,mouse_7.rightButton,mouse_6.x,mouse_6.y,mouse_6.leftButton,mouse_6.midButton,mouse_6.rightButton,duringprac.thisRepN,duringprac.thisTrialN,duringprac.thisN,duringprac.thisIndex,duringprac.ran,participant,session,date,expName,psychopyVersion,OS,frameRate,study_id,mouse_7.clicked_name,catchpracsimilarity,catch_response_time,catchnumberprac,catchtrialorderprac,mouse_6.clicked_name,key_resp_22.keys,key_resp_22.rt,realcomparison,mouse.x,mouse.y,mouse.leftButton,mouse.midButton,mouse.rightButton,mouse.clicked_name,Colour2,similarity,mouse_2.x,mouse_2.y,mouse_2.leftButton,mouse_2.midButton,mouse_2.rightButton,mouse_2.clicked_name,mouse_3.x,mouse_3.y,mouse_3.leftButton,mouse_3.midButton,mouse_3.rightButton,mouse_11.x,mouse_11.y,mouse_11.leftButton,mouse_11.midButton,mouse_11.rightButton,trials_2.thisRepN,trials_2.thisTrialN,trials_2.thisN,trials_2.thisIndex,trials_2.ran,Colour1,mouse_3.clicked_name,catchornah,catchsimilarity,catchnumber,catchtrialorder,catchRT,mouse_11.clicked_name
space,2.25301,space,11.30784,space,14.45956,space,3.128115,space,0.21679,space,2.612755,3,PF,70.68505859,-56.70349121,1,0,0,response3disk_5,5,30.072905,-6.370788574,2.341644287,1,0,0,rectangle_8,-6.370788574,2.341644287,1,0,0,-6.370788574,2.341644287,1,0,0,0,0,0,1,1,610356bcea0d0f2bbaefce1a,610366f90ab39767522922d3,2021-07-29_21h45.34.317,Simcolourproject_2stim_asymm_v5,2020.2.10,Linux x86_64,60,61025ae37ef11b136ea224fe,,,,,,,,,,,,,,,,,,,,,,,,,,,,,,,,,,,,,,,,,,,,,,
,,,,,,,,,,,,0,FF,-32.33886719,-69.4602356,1,0,0,response5disk_5,3,7.0424,1.113525391,8.809387207,1,0,0,rectangle_8,94.98852539,36.9503479,1,0,0,-4.710388184,-4.238250732,1,0,0,0,1,1,0,1,610356bcea0d0f2bbaefce1a,610366f90ab39767522922d3,2021-07-29_21h45.34.317,Simcolourproject_2stim_asymm_v5,2020.2.10,Linux x86_64,60,61025ae37ef11b136ea224fe,response1disk_7,6,3.015925,6,"[2,5]",rectangle_4,,,,,,,,,,,,,,,,,,,,,,,,,,,,,,,,,,,,,,,,
,,,,,,,,,,,,160,FF,33.95581055,-64.05813599,1,0,0,response3disk_5,4,5.09879,-6.219299316,-7.968048096,1,0,0,rectangle_8,-6.219299316,-7.968048096,1,0,0,-6.219299316,-7.968048096,1,0,0,0,2,2,3,1,610356bcea0d0f2bbaefce1a,610366f90ab39767522922d3,2021-07-29_21h45.34.317,Simcolourproject_2stim_asymm_v5,2020.2.10,Linux x86_64,60,61025ae37ef11b136ea224fe,,,,,,,,,,,,,,,,,,,,,,,,,,,,,,,,,,,,,,,,,,,,,,
,,,,,,,,,,,,18,FF,59.57226563,-32.71310425,1,0,0,response3disk_5,5,7.0978,-17.28155518,-3.395172119,1,0,0,rectangle_8,-17.28155518,-3.395172119,1,0,0,-17.28155518,-3.395172119,1,0,0,0,3,3,5,1,610356bcea0d0f2bbaefce1a,610366f90ab39767522922d3,2021-07-29_21h45.34.317,Simcolourproject_2stim_asymm_v5,2020.2.10,Linux x86_64,60,61025ae37ef11b136ea224fe,,,,,,,,,,,,,,,,,,,,,,,,,,,,,,,,,,,,,,,,,,,,,,
,,,,,,,,,,,,114,PF,72.9508667,43.65246582,1,0,0,response1disk_5,6,1.381875,-7.244995117,4.128448486,1,0,0,rectangle_8,70.70220947,31.43048096,1,0,0,-3.599121094,-4.597900391,1,0,0,0,4,4,6,1,610356bcea0d0f2bbaefce1a,610366f90ab39767522922d3,2021-07-29_21h45.34.317,Simcolourproject_2stim_asymm_v5,2020.2.10,Linux x86_64,60,61025ae37ef11b136ea224fe,response1disk_7,6,2.412995,6,"[2,5]",rectangle_4,,,,,,,,,,,,,,,,,,,,,,,,,,,,,,,,,,,,,,,,
,,,,,,,,,,,,20,PF,38.06225586,76.68545532,1,0,0,response1disk_5,7,1.933175,-10.63885498,-3.101287842,1,0,0,rectangle_8,-10.63885498,-3.101287842,1,0,0,-10.63885498,-3.101287842,1,0,0,0,5,5,2,1,610356bcea0d0f2bbaefce1a,610366f90ab39767522922d3,2021-07-29_21h45.34.317,Simcolourproject_2stim_asymm_v5,2020.2.10,Linux x86_64,60,61025ae37ef11b136ea224fe,,,,,,,,,,,,,,,,,,,,,,,,,,,,,,,,,,,,,,,,,,,,,,
,,,,,,,,,,,,45,PF,-28.67889404,-70.91275024,1,0,0,response5disk_5,3,2.449355,-5.614501953,-9.371673584,1,0,0,rectangle_8,-5.614501953,-9.371673584,1,0,0,-5.614501953,-9.371673584,1,0,0,0,6,6,4,1,610356bcea0d0f2bbaefce1a,610366f90ab39767522922d3,2021-07-29_21h45.34.317,Simcolourproject_2stim_asymm_v5,2020.2.10,Linux x86_64,60,61025ae37ef11b136ea224fe,,,,,,,,,,,,,,,,,,,,,,,,,,,,,,,,,,,,,,,,,,,,,,
,,,,,,,,,,,,,FF,,,,,,,,2.093685,,,,,,,,,,,,,,,,,,,,,,610356bcea0d0f2bbaefce1a,610366f90ab39767522922d3,2021-07-29_21h45.34.317,Simcolourproject_2stim_asymm_v5,2020.2.10,Linux x86_64,60,61025ae37ef11b136ea224fe,,,,,,,space,2.82299,4270,-21.18707275,-61.54446411,1,0,0,response5disk,,3,4.129516602,0.521820068,1,0,0,rectangle,4.129516602,0.521820068,1,0,0,4.129516602,0.521820068,1,0,0,0,0,0,0,1,,,,,,,,
,,,,,,,,,,,,,FF,,,,,,,,2.06533,,,,,,,,,,,,,,,,,,,,,,610356bcea0d0f2bbaefce1a,610366f90ab39767522922d3,2021-07-29_21h45.34.317,Simcolourproject_2stim_asymm_v5,2020.2.10,Linux x86_64,60,61025ae37ef11b136ea224fe,,,,,,,,,3640,88.1918335,-33.11871338,1,0,0,response3disk,,5,-2.318664551,-1.500823975,1,0,0,rectangle,-2.318664551,-1.500823975,1,0,0,-2.318664551,-1.500823975,1,0,0,0,1,1,105,1,,,,,,,,
,,,,,,,,,,,,,FF,,,,,,,,1.364805,,,,,,,,,,,,,,,,,,,,,,610356bcea0d0f2bbaefce1a,610366f90ab39767522922d3,2021-07-29_21h45.34.317,Simcolourproject_2stim_asymm_v5,2020.2.10,Linux x86_64,60,61025ae37ef11b136ea224fe,,,,,,,,,3920,33.63293457,-70.23944092,1,0,0,response3disk,,4,-10.98809814,5.99710083,1,0,0,rectangle,-10.98809814,5.99710083,1,0,0,-10.98809814,5.99710083,1,0,0,0,2,2,74,1,,,,,,,,
,,,,,,,,,,,,,FF,,,,,,,,6.01105,,,,,,,,,,,,,,,,,,,,,,610356bcea0d0f2bbaefce1a,610366f90ab39767522922d3,2021-07-29_21h45.34.317,Simcolourproject_2stim_asymm_v5,2020.2.10,Linux x86_64,60,61025ae37ef11b136ea224fe,,,,,,,,,3236,45.20330811,-70.05334473,1,0,0,response3disk,,4,-7.97088623,4.116546631,1,0,0,rectangle,-7.97088623,4.116546631,1,0,0,-7.97088623,4.116546631,1,0,0,0,3,3,61,1,,,,,,,,
,,,,,,,,,,,,,FF,,,,,,,,1.48165,,,,,,,,,,,,,,,,,,,,,,610356bcea0d0f2bbaefce1a,610366f90ab39767522922d3,2021-07-29_21h45.34.317,Simcolourproject_2stim_asymm_v5,2020.2.10,Linux x86_64,60,61025ae37ef11b136ea224fe,,,,,,,,,607,40.05682373,-73.2605896,1,0,0,response3disk,,4,-0.693237305,5.132293701,1,0,0,rectangle,-0.693237305,5.132293701,1,0,0,-0.693237305,5.132293701,1,0,0,0,4,4,122,1,,,,,,,,
,,,,,,,,,,,,,FF,,,,,,,,8.01194,,,,,,,,,,,,,,,,,,,,,,610356bcea0d0f2bbaefce1a,610366f90ab39767522922d3,2021-07-29_21h45.34.317,Simcolourproject_2stim_asymm_v5,2020.2.10,Linux x86_64,60,61025ae37ef11b136ea224fe,,,,,,,,,203,28.68078613,-64.60690308,1,0,0,response3disk,,4,-6.750366211,8.246734619,1,0,0,rectangle,-6.750366211,8.246734619,1,0,0,-6.750366211,8.246734619,1,0,0,0,5,5,59,1,,,,,,,,
,,,,,,,,,,,,,FF,,,,,,,,2.01428,,,,,,,,,,,,,,,,,,,,,,610356bcea0d0f2bbaefce1a,610366f90ab39767522922d3,2021-07-29_21h45.34.317,Simcolourproject_2stim_asymm_v5,2020.2.10,Linux x86_64,60,61025ae37ef11b136ea224fe,,,,,,,,,1641,70.96661377,35.04699707,1,0,0,response1disk,,6,10.99139404,3.482788086,1,0,0,rectangle,10.99139404,3.482788086,1,0,0,10.99139404,3.482788086,1,0,0,0,6,6,60,1,,,,,,,,
,,,,,,,,,,,,,FF,,,,,,,,1.915715,,,,,,,,,,,,,,,,,,,,,,610356bcea0d0f2bbaefce1a,610366f90ab39767522922d3,2021-07-29_21h45.34.317,Simcolourproject_2stim_asymm_v5,2020.2.10,Linux x86_64,60,61025ae37ef11b136ea224fe,,,,,,,,,1221,-82.51837158,-50.52243042,1,0,0,response5disk,,2,18.64520264,-0.612487793,1,0,0,rectangle,18.64520264,-0.612487793,1,0,0,18.64520264,-0.612487793,1,0,0,0,7,7,87,1,,,,,,,,
,,,,,,,,,,,,,FF,,,,,,,,1.514075,,,,,,,,,,,,,,,,,,,,,,610356bcea0d0f2bbaefce1a,610366f90ab39767522922d3,2021-07-29_21h45.34.317,Simcolourproject_2stim_asymm_v5,2020.2.10,Linux x86_64,60,61025ae37ef11b136ea224fe,,,,,,,,,3308,69.45776367,60.46072388,1,0,0,response1disk,,6,-8.753662109,0.870605469,1,0,0,rectangle,-8.753662109,0.870605469,1,0,0,-8.753662109,0.870605469,1,0,0,0,8,8,104,1,,,,,,,,
,,,,,,,,,,,,,FF,,,,,,,,1.08084,,,,,,,,,,,,,,,,,,,,,,610356bcea0d0f2bbaefce1a,610366f90ab39767522922d3,2021-07-29_21h45.34.317,Simcolourproject_2stim_asymm_v5,2020.2.10,Linux x86_64,60,61025ae37ef11b136ea224fe,,,,,,,,,3774,80.77709961,51.96105957,1,0,0,response1disk,,6,2.152282715,4.39956665,1,0,0,rectangle,2.152282715,4.39956665,1,0,0,2.152282715,4.39956665,1,0,0,0,9,9,138,1,,,,,,,,
,,,,,,,,,,,,,FF,,,,,,,,2.15076,,,,,,,,,,,,,,,,,,,,,,610356bcea0d0f2bbaefce1a,610366f90ab39767522922d3,2021-07-29_21h45.34.317,Simcolourproject_2stim_asymm_v5,2020.2.10,Linux x86_64,60,61025ae37ef11b136ea224fe,,,,,,,,,3468,-47.36712646,88.86654663,1,0,0,response7disk,,0,0.907592773,1.828155518,1,0,0,rectangle,0.907592773,1.828155518,1,0,0,0.907592773,1.828155518,1,0,0,0,10,10,7,1,,,,,,,,
,,,,,,,,,,,,,FF,,,,,,,,1.28351,,,,,,,,,,,,,,,,,,,,,,610356bcea0d0f2bbaefce1a,610366f90ab39767522922d3,2021-07-29_21h45.34.317,Simcolourproject_2stim_asymm_v5,2020.2.10,Linux x86_64,60,61025ae37ef11b136ea224fe,,,,,,,,,345,-82.54364014,-41.51919556,1,0,0,response5disk,,2,15.86010742,3.684661865,1,0,0,rectangle,-39.07562256,-66.97628784,1,0,0,6.495910645,7.773162842,1,0,0,0,11,11,134,1,,response5disk_3,TRUE,3,3,"[191,37,242,195,12,191,42,207,45,84,199,165,35,99,228,72,202,105,256,208]",4.56232,rectangle
,,,,,,,,,,,,,FF,,,,,,,,1.53561,,,,,,,,,,,,,,,,,,,,,,610356bcea0d0f2bbaefce1a,610366f90ab39767522922d3,2021-07-29_21h45.34.317,Simcolourproject_2stim_asymm_v5,2020.2.10,Linux x86_64,60,61025ae37ef11b136ea224fe,,,,,,,,,2169,-47.29626465,-95.35534668,1,0,0,response5disk,,3,-3.520324707,11.88037109,1,0,0,rectangle,-3.520324707,11.88037109,1,0,0,-3.520324707,11.88037109,1,0,0,0,12,12,32,1,,,,,,,,
,,,,,,,,,,,,,FF,,,,,,,,1.300185,,,,,,,,,,,,,,,,,,,,,,610356bcea0d0f2bbaefce1a,610366f90ab39767522922d3,2021-07-29_21h45.34.317,Simcolourproject_2stim_asymm_v5,2020.2.10,Linux x86_64,60,61025ae37ef11b136ea224fe,,,,,,,,,639,-35.59161377,-83.34051514,1,0,0,response5disk,,3,18.28234863,5.381164551,1,0,0,rectangle,18.28234863,5.381164551,1,0,0,18.28234863,5.381164551,1,0,0,0,13,13,159,1,,,,,,,,
,,,,,,,,,,,,,FF,,,,,,,,2.632655,,,,,,,,,,,,,,,,,,,,,,610356bcea0d0f2bbaefce1a,610366f90ab39767522922d3,2021-07-29_21h45.34.317,Simcolourproject_2stim_asymm_v5,2020.2.10,Linux x86_64,60,61025ae37ef11b136ea224fe,,,,,,,,,2826,18.55847168,-51.08328247,1,0,0,response3disk,,4,-0.438415527,2.353515625,1,0,0,rectangle,-0.438415527,2.353515625,1,0,0,-0.438415527,2.353515625,1,0,0,0,14,14,46,1,,,,,,,,
,,,,,,,,,,,,,FF,,,,,,,,1.296115,,,,,,,,,,,,,,,,,,,,,,610356bcea0d0f2bbaefce1a,610366f90ab39767522922d3,2021-07-29_21h45.34.317,Simcolourproject_2stim_asymm_v5,2020.2.10,Linux x86_64,60,61025ae37ef11b136ea224fe,,,,,,,,,3120,-52.66748047,-99.68365479,1,0,0,response5disk,,3,-2.892333984,10.13314819,1,0,0,rectangle,-2.892333984,10.13314819,1,0,0,-2.892333984,10.13314819,1,0,0,0,15,15,108,1,,,,,,,,
,,,,,,,,,,,,,FF,,,,,,,,1.41532,,,,,,,,,,,,,,,,,,,,,,610356bcea0d0f2bbaefce1a,610366f90ab39767522922d3,2021-07-29_21h45.34.317,Simcolourproject_2stim_asymm_v5,2020.2.10,Linux x86_64,60,61025ae37ef11b136ea224fe,,,,,,,,,2967,68.59362793,-29.08261108,1,0,0,response3disk,,5,0.949951172,-0.115692139,1,0,0,rectangle,0.949951172,-0.115692139,1,0,0,0.949951172,-0.115692139,1,0,0,0,16,16,151,1,,,,,,,,
,,,,,,,,,,,,,FF,,,,,,,,2.314165,,,,,,,,,,,,,,,,,,,,,,610356bcea0d0f2bbaefce1a,610366f90ab39767522922d3,2021-07-29_21h45.34.317,Simcolourproject_2stim_asymm_v5,2020.2.10,Linux x86_64,60,61025ae37ef11b136ea224fe,,,,,,,,,2493,77.97467041,50.80844116,1,0,0,response1disk,,6,-9.281494141,2.219024658,1,0,0,rectangle,-9.281494141,2.219024658,1,0,0,-9.281494141,2.219024658,1,0,0,0,17,17,43,1,,,,,,,,
,,,,,,,,,,,,,FF,,,,,,,,2.0623,,,,,,,,,,,,,,,,,,,,,,610356bcea0d0f2bbaefce1a,610366f90ab39767522922d3,2021-07-29_21h45.34.317,Simcolourproject_2stim_asymm_v5,2020.2.10,Linux x86_64,60,61025ae37ef11b136ea224fe,,,,,,,,,1550,-39.28515625,-104.8212891,1,0,0,response5disk,,3,1.109985352,-3.94317627,1,0,0,rectangle,1.109985352,-3.94317627,1,0,0,1.109985352,-3.94317627,1,0,0,0,18,18,28,1,,,,,,,,
,,,,,,,,,,,,,FF,,,,,,,,3.27913,,,,,,,,,,,,,,,,,,,,,,610356bcea0d0f2bbaefce1a,610366f90ab39767522922d3,2021-07-29_21h45.34.317,Simcolourproject_2stim_asymm_v5,2020.2.10,Linux x86_64,60,61025ae37ef11b136ea224fe,,,,,,,,,3783,-57.32928467,-93.38894653,1,0,0,response5disk,,3,0.006530762,-3.529418945,1,0,0,rectangle,0.006530762,-3.529418945,1,0,0,0.006530762,-3.529418945,1,0,0,0,19,19,6,1,,,,,,,,
,,,,,,,,,,,,,FF,,,,,,,,1.14877,,,,,,,,,,,,,,,,,,,,,,610356bcea0d0f2bbaefce1a,610366f90ab39767522922d3,2021-07-29_21h45.34.317,Simcolourproject_2stim_asymm_v5,2020.2.10,Linux x86_64,60,61025ae37ef11b136ea224fe,,,,,,,,,1497,45.48736572,-60.51351929,1,0,0,response3disk,,4,-3.867980957,-4.053283691,1,0,0,rectangle,-3.867980957,-4.053283691,1,0,0,-3.867980957,-4.053283691,1,0,0,0,20,20,51,1,,,,,,,,
,,,,,,,,,,,,,FF,,,,,,,,2.28203,,,,,,,,,,,,,,,,,,,,,,610356bcea0d0f2bbaefce1a,610366f90ab39767522922d3,2021-07-29_21h45.34.317,Simcolourproject_2stim_asymm_v5,2020.2.10,Linux x86_64,60,61025ae37ef11b136ea224fe,,,,,,,,,159,79.34680176,42.44604492,1,0,0,response1disk,,6,1.465393066,-4.036895752,1,0,0,rectangle,1.465393066,-4.036895752,1,0,0,1.465393066,-4.036895752,1,0,0,0,21,21,80,1,,,,,,,,
,,,,,,,,,,,,,FF,,,,,,,,1.29809,,,,,,,,,,,,,,,,,,,,,,610356bcea0d0f2bbaefce1a,610366f90ab39767522922d3,2021-07-29_21h45.34.317,Simcolourproject_2stim_asymm_v5,2020.2.10,Linux x86_64,60,61025ae37ef11b136ea224fe,,,,,,,,,3818,-43.52600098,-99.28421021,1,0,0,response5disk,,3,-0.12878418,0.45425415,1,0,0,rectangle,-0.12878418,0.45425415,1,0,0,-0.12878418,0.45425415,1,0,0,0,22,22,36,1,,,,,,,,
,,,,,,,,,,,,,FF,,,,,,,,1.599905,,,,,,,,,,,,,,,,,,,,,,610356bcea0d0f2bbaefce1a,610366f90ab39767522922d3,2021-07-29_21h45.34.317,Simcolourproject_2stim_asymm_v5,2020.2.10,Linux x86_64,60,61025ae37ef11b136ea224fe,,,,,,,,,1897,-102.1506958,-68.18185425,1,0,0,response5disk,,2,-4.673461914,9.27557373,1,0,0,rectangle,-4.673461914,9.27557373,1,0,0,-4.673461914,9.27557373,1,0,0,0,23,23,30,1,,,,,,,,
,,,,,,,,,,,,,FF,,,,,,,,1.09933,,,,,,,,,,,,,,,,,,,,,,610356bcea0d0f2bbaefce1a,610366f90ab39767522922d3,2021-07-29_21h45.34.317,Simcolourproject_2stim_asymm_v5,2020.2.10,Linux x86_64,60,61025ae37ef11b136ea224fe,,,,,,,,,4190,-87.59912109,48.56558228,1,0,0,response7disk,,1,-11.1383667,5.064056396,1,0,0,rectangle,-11.1383667,5.064056396,1,0,0,-11.1383667,5.064056396,1,0,0,0,24,24,72,1,,,,,,,,
,,,,,,,,,,,,,FF,,,,,,,,1.49843,,,,,,,,,,,,,,,,,,,,,,610356bcea0d0f2bbaefce1a,610366f90ab39767522922d3,2021-07-29_21h45.34.317,Simcolourproject_2stim_asymm_v5,2020.2.10,Linux x86_64,60,61025ae37ef11b136ea224fe,,,,,,,,,197,63.33538818,-82.12200928,1,0,0,response3disk,,4,-0.926940918,-10.57034302,1,0,0,rectangle,-0.926940918,-10.57034302,1,0,0,-0.926940918,-10.57034302,1,0,0,0,25,25,78,1,,,,,,,,
,,,,,,,,,,,,,FF,,,,,,,,3.314865,,,,,,,,,,,,,,,,,,,,,,610356bcea0d0f2bbaefce1a,610366f90ab39767522922d3,2021-07-29_21h45.34.317,Simcolourproject_2stim_asymm_v5,2020.2.10,Linux x86_64,60,61025ae37ef11b136ea224fe,,,,,,,,,1123,-87.34857178,-48.92272949,1,0,0,response5disk,,2,-13.6640625,-9.521209717,1,0,0,rectangle,-13.6640625,-9.521209717,1,0,0,-13.6640625,-9.521209717,1,0,0,0,26,26,94,1,,,,,,,,
,,,,,,,,,,,,,FF,,,,,,,,1.496015,,,,,,,,,,,,,,,,,,,,,,610356bcea0d0f2bbaefce1a,610366f90ab39767522922d3,2021-07-29_21h45.34.317,Simcolourproject_2stim_asymm_v5,2020.2.10,Linux x86_64,60,61025ae37ef11b136ea224fe,,,,,,,,,4355,-44.60009766,-81.01571655,1,0,0,response5disk,,3,-2.403686523,1.431884766,1,0,0,rectangle,-2.403686523,1.431884766,1,0,0,-2.403686523,1.431884766,1,0,0,0,27,27,133,1,,,,,,,,
,,,,,,,,,,,,,FF,,,,,,,,1.119675,,,,,,,,,,,,,,,,,,,,,,610356bcea0d0f2bbaefce1a,610366f90ab39767522922d3,2021-07-29_21h45.34.317,Simcolourproject_2stim_asymm_v5,2020.2.10,Linux x86_64,60,61025ae37ef11b136ea224fe,,,,,,,,,566,86.36346436,-52.88739014,1,0,0,response3disk,,5,0.81427002,-1.916137695,1,0,0,rectangle,0.81427002,-1.916137695,1,0,0,0.81427002,-1.916137695,1,0,0,0,28,28,69,1,,,,,,,,
,,,,,,,,,,,,,FF,,,,,,,,1.832875,,,,,,,,,,,,,,,,,,,,,,610356bcea0d0f2bbaefce1a,610366f90ab39767522922d3,2021-07-29_21h45.34.317,Simcolourproject_2stim_asymm_v5,2020.2.10,Linux x86_64,60,61025ae37ef11b136ea224fe,,,,,,,,,3170,109.0074463,33.9805603,1,0,0,response1disk,,6,-1.734191895,6.4559021,1,0,0,rectangle,-1.734191895,6.4559021,1,0,0,-1.734191895,6.4559021,1,0,0,0,29,29,57,1,,,,,,,,
,,,,,,,,,,,,,FF,,,,,,,,1.13306,,,,,,,,,,,,,,,,,,,,,,610356bcea0d0f2bbaefce1a,610366f90ab39767522922d3,2021-07-29_21h45.34.317,Simcolourproject_2stim_asymm_v5,2020.2.10,Linux x86_64,60,61025ae37ef11b136ea224fe,,,,,,,,,3250,-95.0647583,-39.88232422,1,0,0,response5disk,,2,6.887573242,-7.838287354,1,0,0,rectangle,6.887573242,-7.838287354,1,0,0,6.887573242,-7.838287354,1,0,0,0,30,30,2,1,,,,,,,,
,,,,,,,,,,,,,FF,,,,,,,,0.782735,,,,,,,,,,,,,,,,,,,,,,610356bcea0d0f2bbaefce1a,610366f90ab39767522922d3,2021-07-29_21h45.34.317,Simcolourproject_2stim_asymm_v5,2020.2.10,Linux x86_64,60,61025ae37ef11b136ea224fe,,,,,,,,,74,52.6784668,-97.34469604,1,0,0,response3disk,,4,-8.208068848,13.16952515,1,0,0,rectangle,-8.208068848,13.16952515,1,0,0,-8.208068848,13.16952515,1,0,0,0,31,31,115,1,,,,,,,,
,,,,,,,,,,,,,FF,,,,,,,,1.83271,,,,,,,,,,,,,,,,,,,,,,610356bcea0d0f2bbaefce1a,610366f90ab39767522922d3,2021-07-29_21h45.34.317,Simcolourproject_2stim_asymm_v5,2020.2.10,Linux x86_64,60,61025ae37ef11b136ea224fe,,,,,,,,,2735,57.88250732,-75.29064941,1,0,0,response3disk,,4,-2.684265137,-6.247283936,1,0,0,rectangle,-2.684265137,-6.247283936,1,0,0,-2.684265137,-6.247283936,1,0,0,0,32,32,45,1,,,,,,,,
,,,,,,,,,,,,,FF,,,,,,,,1.464765,,,,,,,,,,,,,,,,,,,,,,610356bcea0d0f2bbaefce1a,610366f90ab39767522922d3,2021-07-29_21h45.34.317,Simcolourproject_2stim_asymm_v5,2020.2.10,Linux x86_64,60,61025ae37ef11b136ea224fe,,,,,,,,,888,-62.64324951,-69.48226929,1,0,0,response5disk,,3,-0.883300781,10.70758057,1,0,0,rectangle,-0.883300781,10.70758057,1,0,0,-0.883300781,10.70758057,1,0,0,0,33,33,16,1,,,,,,,,
,,,,,,,,,,,,,FF,,,,,,,,0.999045,,,,,,,,,,,,,,,,,,,,,,610356bcea0d0f2bbaefce1a,610366f90ab39767522922d3,2021-07-29_21h45.34.317,Simcolourproject_2stim_asymm_v5,2020.2.10,Linux x86_64,60,61025ae37ef11b136ea224fe,,,,,,,,,2058,84.47290039,-51.76464844,1,0,0,response3disk,,5,5.194946289,-4.134429932,1,0,0,rectangle,89.63287354,29.76965332,1,0,0,-1.874145508,-3.433837891,1,0,0,0,34,34,100,1,,response1disk_3,TRUE,6,6,"[191,37,242,195,12,191,42,207,45,84,199,165,35,99,228,72,202,105,256,208]",2.332355,rectangle
,,,,,,,,,,,,,FF,,,,,,,,1.08302,,,,,,,,,,,,,,,,,,,,,,610356bcea0d0f2bbaefce1a,610366f90ab39767522922d3,2021-07-29_21h45.34.317,Simcolourproject_2stim_asymm_v5,2020.2.10,Linux x86_64,60,61025ae37ef11b136ea224fe,,,,,,,,,2492,-60.13800049,-69.44003296,1,0,0,response5disk,,3,-7.317260742,2.086761475,1,0,0,rectangle,-7.317260742,2.086761475,1,0,0,-7.317260742,2.086761475,1,0,0,0,35,35,85,1,,,,,,,,
,,,,,,,,,,,,,FF,,,,,,,,2.01431,,,,,,,,,,,,,,,,,,,,,,610356bcea0d0f2bbaefce1a,610366f90ab39767522922d3,2021-07-29_21h45.34.317,Simcolourproject_2stim_asymm_v5,2020.2.10,Linux x86_64,60,61025ae37ef11b136ea224fe,,,,,,,,,204,46.09472656,-89.91534424,1,0,0,response3disk,,4,2.391296387,-6.582977295,1,0,0,rectangle,-74.05389404,-47.34127808,1,0,0,1.642028809,-2.13192749,1,0,0,0,36,36,5,1,,response5disk_3,TRUE,2,2,"[191,37,242,195,12,191,42,207,45,84,199,165,35,99,228,72,202,105,256,208]",1.86367,rectangle
,,,,,,,,,,,,,FF,,,,,,,,1.06599,,,,,,,,,,,,,,,,,,,,,,610356bcea0d0f2bbaefce1a,610366f90ab39767522922d3,2021-07-29_21h45.34.317,Simcolourproject_2stim_asymm_v5,2020.2.10,Linux x86_64,60,61025ae37ef11b136ea224fe,,,,,,,,,714,-56.84661865,-109.6773682,1,0,0,response5disk,,3,8.543212891,-0.817626953,1,0,0,rectangle,8.543212891,-0.817626953,1,0,0,8.543212891,-0.817626953,1,0,0,0,37,37,103,1,,,,,,,,
,,,,,,,,,,,,,FF,,,,,,,,0.749305,,,,,,,,,,,,,,,,,,,,,,610356bcea0d0f2bbaefce1a,610366f90ab39767522922d3,2021-07-29_21h45.34.317,Simcolourproject_2stim_asymm_v5,2020.2.10,Linux x86_64,60,61025ae37ef11b136ea224fe,,,,,,,,,2739,34.28887939,-51.32354736,1,0,0,response3disk,,4,-1.477905273,-2.890838623,1,0,0,rectangle,-1.477905273,-2.890838623,1,0,0,-1.477905273,-2.890838623,1,0,0,0,38,38,67,1,,,,,,,,
,,,,,,,,,,,,,FF,,,,,,,,2.51537,,,,,,,,,,,,,,,,,,,,,,610356bcea0d0f2bbaefce1a,610366f90ab39767522922d3,2021-07-29_21h45.34.317,Simcolourproject_2stim_asymm_v5,2020.2.10,Linux x86_64,60,61025ae37ef11b136ea224fe,,,,,,,,,3442,68.56481934,28.65304565,1,0,0,response1disk,,6,-7.050415039,-2.718475342,1,0,0,rectangle,-7.050415039,-2.718475342,1,0,0,-7.050415039,-2.718475342,1,0,0,0,39,39,136,1,,,,,,,,
,,,,,,,,,,,,,FF,,,,,,,,1.715595,,,,,,,,,,,,,,,,,,,,,,610356bcea0d0f2bbaefce1a,610366f90ab39767522922d3,2021-07-29_21h45.34.317,Simcolourproject_2stim_asymm_v5,2020.2.10,Linux x86_64,60,61025ae37ef11b136ea224fe,,,,,,,,,3323,28.0401001,78.08679199,1,0,0,response1disk,,7,-17.92437744,13.28460693,1,0,0,rectangle,-17.92437744,13.28460693,1,0,0,-17.92437744,13.28460693,1,0,0,0,40,40,47,1,,,,,,,,
,,,,,,,,,,,,,FF,,,,,,,,1.63467,,,,,,,,,,,,,,,,,,,,,,610356bcea0d0f2bbaefce1a,610366f90ab39767522922d3,2021-07-29_21h45.34.317,Simcolourproject_2stim_asymm_v5,2020.2.10,Linux x86_64,60,61025ae37ef11b136ea224fe,,,,,,,,,847,68.92626953,48.57775879,1,0,0,response1disk,,6,-12.63616943,-10.6199646,1,0,0,rectangle,-70.27301025,-30.30743408,1,0,0,-1.485107422,-0.192108154,1,0,0,0,41,41,37,1,,response5disk_3,TRUE,2,2,"[191,37,242,195,12,191,42,207,45,84,199,165,35,99,228,72,202,105,256,208]",1.79838,rectangle
,,,,,,,,,,,,,FF,,,,,,,,1.43281,,,,,,,,,,,,,,,,,,,,,,610356bcea0d0f2bbaefce1a,610366f90ab39767522922d3,2021-07-29_21h45.34.317,Simcolourproject_2stim_asymm_v5,2020.2.10,Linux x86_64,60,61025ae37ef11b136ea224fe,,,,,,,,,2399,56.5569458,-77.35565186,1,0,0,response3disk,,4,-8.021179199,5.931488037,1,0,0,rectangle,-8.021179199,5.931488037,1,0,0,-8.021179199,5.931488037,1,0,0,0,42,42,86,1,,,,,,,,
,,,,,,,,,,,,,FF,,,,,,,,0.96571,,,,,,,,,,,,,,,,,,,,,,610356bcea0d0f2bbaefce1a,610366f90ab39767522922d3,2021-07-29_21h45.34.317,Simcolourproject_2stim_asymm_v5,2020.2.10,Linux x86_64,60,61025ae37ef11b136ea224fe,,,,,,,,,84,35.06219482,45.99102783,1,0,0,response1disk,,7,-10.97961426,-8.761688232,1,0,0,rectangle,-10.97961426,-8.761688232,1,0,0,-10.97961426,-8.761688232,1,0,0,0,43,43,146,1,,,,,,,,
,,,,,,,,,,,,,FF,,,,,,,,1.648865,,,,,,,,,,,,,,,,,,,,,,610356bcea0d0f2bbaefce1a,610366f90ab39767522922d3,2021-07-29_21h45.34.317,Simcolourproject_2stim_asymm_v5,2020.2.10,Linux x86_64,60,61025ae37ef11b136ea224fe,,,,,,,,,2028,-28.55975342,-63.17431641,1,0,0,response5disk,,3,10.84033203,7.678955078,1,0,0,rectangle,83.65161133,-25.10818481,1,0,0,6.664306641,-1.296722412,1,0,0,0,44,44,90,1,,response3disk_3,TRUE,5,5,"[191,37,242,195,12,191,42,207,45,84,199,165,35,99,228,72,202,105,256,208]",2.048655,rectangle
,,,,,,,,,,,,,FF,,,,,,,,5.39537,,,,,,,,,,,,,,,,,,,,,,610356bcea0d0f2bbaefce1a,610366f90ab39767522922d3,2021-07-29_21h45.34.317,Simcolourproject_2stim_asymm_v5,2020.2.10,Linux x86_64,60,61025ae37ef11b136ea224fe,,,,,,,,,4331,49.33306885,-74.24099731,1,0,0,response3disk,,4,-8.172058105,7.211547852,1,0,0,rectangle,-8.172058105,7.211547852,1,0,0,-8.172058105,7.211547852,1,0,0,0,45,45,158,1,,,,,,,,
,,,,,,,,,,,,,FF,,,,,,,,2.363705,,,,,,,,,,,,,,,,,,,,,,610356bcea0d0f2bbaefce1a,610366f90ab39767522922d3,2021-07-29_21h45.34.317,Simcolourproject_2stim_asymm_v5,2020.2.10,Linux x86_64,60,61025ae37ef11b136ea224fe,,,,,,,,,2902,69.00549316,-23.15896606,1,0,0,response3disk,,5,4.633422852,-8.195373535,1,0,0,rectangle,4.633422852,-8.195373535,1,0,0,4.633422852,-8.195373535,1,0,0,0,46,46,157,1,,,,,,,,
,,,,,,,,,,,,,FF,,,,,,,,1.164635,,,,,,,,,,,,,,,,,,,,,,610356bcea0d0f2bbaefce1a,610366f90ab39767522922d3,2021-07-29_21h45.34.317,Simcolourproject_2stim_asymm_v5,2020.2.10,Linux x86_64,60,61025ae37ef11b136ea224fe,,,,,,,,,2857,80.88323975,-31.12353516,1,0,0,response3disk,,5,-13.28955078,4.624481201,1,0,0,rectangle,-13.28955078,4.624481201,1,0,0,-13.28955078,4.624481201,1,0,0,0,47,47,127,1,,,,,,,,
,,,,,,,,,,,,,FF,,,,,,,,1.46578,,,,,,,,,,,,,,,,,,,,,,610356bcea0d0f2bbaefce1a,610366f90ab39767522922d3,2021-07-29_21h45.34.317,Simcolourproject_2stim_asymm_v5,2020.2.10,Linux x86_64,60,61025ae37ef11b136ea224fe,,,,,,,,,1103,114.753418,45.09555054,1,0,0,response1disk,,6,4.167724609,6.473571777,1,0,0,rectangle,4.167724609,6.473571777,1,0,0,4.167724609,6.473571777,1,0,0,0,48,48,29,1,,,,,,,,
,,,,,,,,,,,,,FF,,,,,,,,0.95027,,,,,,,,,,,,,,,,,,,,,,610356bcea0d0f2bbaefce1a,610366f90ab39767522922d3,2021-07-29_21h45.34.317,Simcolourproject_2stim_asymm_v5,2020.2.10,Linux x86_64,60,61025ae37ef11b136ea224fe,,,,,,,,,572,83.15960693,43.17095947,1,0,0,response1disk,,6,6.882751465,5.654571533,1,0,0,rectangle,6.882751465,5.654571533,1,0,0,6.882751465,5.654571533,1,0,0,0,49,49,12,1,,,,,,,,
,,,,,,,,,,,,,FF,,,,,,,,1.251015,,,,,,,,,,,,,,,,,,,,,,610356bcea0d0f2bbaefce1a,610366f90ab39767522922d3,2021-07-29_21h45.34.317,Simcolourproject_2stim_asymm_v5,2020.2.10,Linux x86_64,60,61025ae37ef11b136ea224fe,,,,,,,,,4002,52.81488037,-61.45629883,1,0,0,response3disk,,4,-2.017333984,2.823028564,1,0,0,rectangle,-2.017333984,2.823028564,1,0,0,-2.017333984,2.823028564,1,0,0,0,50,50,83,1,,,,,,,,
,,,,,,,,,,,,,FF,,,,,,,,1.216115,,,,,,,,,,,,,,,,,,,,,,610356bcea0d0f2bbaefce1a,610366f90ab39767522922d3,2021-07-29_21h45.34.317,Simcolourproject_2stim_asymm_v5,2020.2.10,Linux x86_64,60,61025ae37ef11b136ea224fe,,,,,,,,,3461,75.13647461,-30.45050049,1,0,0,response3disk,,5,-0.229309082,-2.426452637,1,0,0,rectangle,-0.229309082,-2.426452637,1,0,0,-0.229309082,-2.426452637,1,0,0,0,51,51,52,1,,,,,,,,
,,,,,,,,,,,,,FF,,,,,,,,0.983125,,,,,,,,,,,,,,,,,,,,,,610356bcea0d0f2bbaefce1a,610366f90ab39767522922d3,2021-07-29_21h45.34.317,Simcolourproject_2stim_asymm_v5,2020.2.10,Linux x86_64,60,61025ae37ef11b136ea224fe,,,,,,,,,548,-53.08099365,-70.52694702,1,0,0,response5disk,,3,1.24005127,-5.201293945,1,0,0,rectangle,1.24005127,-5.201293945,1,0,0,1.24005127,-5.201293945,1,0,0,0,52,52,25,1,,,,,,,,
,,,,,,,,,,,,,FF,,,,,,,,0.882785,,,,,,,,,,,,,,,,,,,,,,610356bcea0d0f2bbaefce1a,610366f90ab39767522922d3,2021-07-29_21h45.34.317,Simcolourproject_2stim_asymm_v5,2020.2.10,Linux x86_64,60,61025ae37ef11b136ea224fe,,,,,,,,,3436,-58.57830811,-34.37625122,1,0,0,response5disk,,2,-2.401367188,3.352966309,1,0,0,rectangle,-2.401367188,3.352966309,1,0,0,-2.401367188,3.352966309,1,0,0,0,53,53,126,1,,,,,,,,
,,,,,,,,,,,,,FF,,,,,,,,1.46654,,,,,,,,,,,,,,,,,,,,,,610356bcea0d0f2bbaefce1a,610366f90ab39767522922d3,2021-07-29_21h45.34.317,Simcolourproject_2stim_asymm_v5,2020.2.10,Linux x86_64,60,61025ae37ef11b136ea224fe,,,,,,,,,3809,-39.50262451,-59.5071106,1,0,0,response5disk,,3,-2.034729004,-3.084472656,1,0,0,rectangle,-2.034729004,-3.084472656,1,0,0,-2.034729004,-3.084472656,1,0,0,0,54,54,84,1,,,,,,,,
,,,,,,,,,,,,,FF,,,,,,,,1.03242,,,,,,,,,,,,,,,,,,,,,,610356bcea0d0f2bbaefce1a,610366f90ab39767522922d3,2021-07-29_21h45.34.317,Simcolourproject_2stim_asymm_v5,2020.2.10,Linux x86_64,60,61025ae37ef11b136ea224fe,,,,,,,,,1283,-45.17553711,-75.57449341,1,0,0,response5disk,,3,-1.866699219,1.158233643,1,0,0,rectangle,-1.866699219,1.158233643,1,0,0,-1.866699219,1.158233643,1,0,0,0,55,55,48,1,,,,,,,,
,,,,,,,,,,,,,FF,,,,,,,,2.289415,,,,,,,,,,,,,,,,,,,,,,610356bcea0d0f2bbaefce1a,610366f90ab39767522922d3,2021-07-29_21h45.34.317,Simcolourproject_2stim_asymm_v5,2020.2.10,Linux x86_64,60,61025ae37ef11b136ea224fe,,,,,,,,,3521,74.79974365,-30.15930176,1,0,0,response3disk,,5,11.49945068,1.026153564,1,0,0,rectangle,11.49945068,1.026153564,1,0,0,11.49945068,1.026153564,1,0,0,0,56,56,27,1,,,,,,,,
,,,,,,,,,,,,,FF,,,,,,,,0.948185,,,,,,,,,,,,,,,,,,,,,,610356bcea0d0f2bbaefce1a,610366f90ab39767522922d3,2021-07-29_21h45.34.317,Simcolourproject_2stim_asymm_v5,2020.2.10,Linux x86_64,60,61025ae37ef11b136ea224fe,,,,,,,,,577,80.79699707,41.65774536,1,0,0,response1disk,,6,12.11901855,2.894744873,1,0,0,rectangle,12.11901855,2.894744873,1,0,0,12.11901855,2.894744873,1,0,0,0,57,57,112,1,,,,,,,,
,,,,,,,,,,,,,FF,,,,,,,,1.561315,,,,,,,,,,,,,,,,,,,,,,610356bcea0d0f2bbaefce1a,610366f90ab39767522922d3,2021-07-29_21h45.34.317,Simcolourproject_2stim_asymm_v5,2020.2.10,Linux x86_64,60,61025ae37ef11b136ea224fe,,,,,,,,,814,37.27661133,-73.02947998,1,0,0,response3disk,,4,-0.677978516,-1.488677979,1,0,0,rectangle,-0.677978516,-1.488677979,1,0,0,-0.677978516,-1.488677979,1,0,0,0,58,58,44,1,,,,,,,,
,,,,,,,,,,,,,FF,,,,,,,,1.36533,,,,,,,,,,,,,,,,,,,,,,610356bcea0d0f2bbaefce1a,610366f90ab39767522922d3,2021-07-29_21h45.34.317,Simcolourproject_2stim_asymm_v5,2020.2.10,Linux x86_64,60,61025ae37ef11b136ea224fe,,,,,,,,,627,109.6186523,53.0329895,1,0,0,response1disk,,6,-18.4163208,-11.61239624,1,0,0,rectangle,-18.4163208,-11.61239624,1,0,0,-18.4163208,-11.61239624,1,0,0,0,59,59,117,1,,,,,,,,
,,,,,,,,,,,,,FF,,,,,,,,1.032855,,,,,,,,,,,,,,,,,,,,,,610356bcea0d0f2bbaefce1a,610366f90ab39767522922d3,2021-07-29_21h45.34.317,Simcolourproject_2stim_asymm_v5,2020.2.10,Linux x86_64,60,61025ae37ef11b136ea224fe,,,,,,,,,251,48.25585938,-56.55078125,1,0,0,response3disk,,4,-30.05505371,6.157226563,1,0,0,rectangle,-30.05505371,6.157226563,1,0,0,-30.05505371,6.157226563,1,0,0,0,60,60,137,1,,,,,,,,
,,,,,,,,,,,,,FF,,,,,,,,0.9499,,,,,,,,,,,,,,,,,,,,,,610356bcea0d0f2bbaefce1a,610366f90ab39767522922d3,2021-07-29_21h45.34.317,Simcolourproject_2stim_asymm_v5,2020.2.10,Linux x86_64,60,61025ae37ef11b136ea224fe,,,,,,,,,489,53.16009521,22.04022217,1,0,0,response1disk,,6,-2.383544922,-2.835571289,1,0,0,rectangle,-2.383544922,-2.835571289,1,0,0,-2.383544922,-2.835571289,1,0,0,0,61,61,110,1,,,,,,,,
,,,,,,,,,,,,,FF,,,,,,,,1.01691,,,,,,,,,,,,,,,,,,,,,,610356bcea0d0f2bbaefce1a,610366f90ab39767522922d3,2021-07-29_21h45.34.317,Simcolourproject_2stim_asymm_v5,2020.2.10,Linux x86_64,60,61025ae37ef11b136ea224fe,,,,,,,,,1285,38.00549316,-77.30587769,1,0,0,response3disk,,4,12.75048828,5.368591309,1,0,0,rectangle,12.75048828,5.368591309,1,0,0,12.75048828,5.368591309,1,0,0,0,62,62,17,1,,,,,,,,
,,,,,,,,,,,,,FF,,,,,,,,1.248205,,,,,,,,,,,,,,,,,,,,,,610356bcea0d0f2bbaefce1a,610366f90ab39767522922d3,2021-07-29_21h45.34.317,Simcolourproject_2stim_asymm_v5,2020.2.10,Linux x86_64,60,61025ae37ef11b136ea224fe,,,,,,,,,1820,-41.14013672,-66.03518677,1,0,0,response5disk,,3,-6.438415527,-9.975494385,1,0,0,rectangle,-6.438415527,-9.975494385,1,0,0,-6.438415527,-9.975494385,1,0,0,0,63,63,20,1,,,,,,,,
,,,,,,,,,,,,,FF,,,,,,,,1.06613,,,,,,,,,,,,,,,,,,,,,,610356bcea0d0f2bbaefce1a,610366f90ab39767522922d3,2021-07-29_21h45.34.317,Simcolourproject_2stim_asymm_v5,2020.2.10,Linux x86_64,60,61025ae37ef11b136ea224fe,,,,,,,,,4239,-64.53009033,-39.58950806,1,0,0,response5disk,,2,-8.792541504,-5.604736328,1,0,0,rectangle,-8.792541504,-5.604736328,1,0,0,-8.792541504,-5.604736328,1,0,0,0,64,64,152,1,,,,,,,,
,,,,,,,,,,,,,FF,,,,,,,,1.032765,,,,,,,,,,,,,,,,,,,,,,610356bcea0d0f2bbaefce1a,610366f90ab39767522922d3,2021-07-29_21h45.34.317,Simcolourproject_2stim_asymm_v5,2020.2.10,Linux x86_64,60,61025ae37ef11b136ea224fe,,,,,,,,,2705,69.3493042,-36.35614014,1,0,0,response3disk,,5,-16.87762451,-0.316253662,1,0,0,rectangle,-16.87762451,-0.316253662,1,0,0,-16.87762451,-0.316253662,1,0,0,0,65,65,91,1,,,,,,,,
,,,,,,,,,,,,,FF,,,,,,,,1.58106,,,,,,,,,,,,,,,,,,,,,,610356bcea0d0f2bbaefce1a,610366f90ab39767522922d3,2021-07-29_21h45.34.317,Simcolourproject_2stim_asymm_v5,2020.2.10,Linux x86_64,60,61025ae37ef11b136ea224fe,,,,,,,,,148,64.61694336,-36.72012329,1,0,0,response3disk,,5,1.403015137,-2.710479736,1,0,0,rectangle,1.403015137,-2.710479736,1,0,0,1.403015137,-2.710479736,1,0,0,0,66,66,4,1,,,,,,,,
,,,,,,,,,,,,,FF,,,,,,,,1.630175,,,,,,,,,,,,,,,,,,,,,,610356bcea0d0f2bbaefce1a,610366f90ab39767522922d3,2021-07-29_21h45.34.317,Simcolourproject_2stim_asymm_v5,2020.2.10,Linux x86_64,60,61025ae37ef11b136ea224fe,,,,,,,,,15,32.24884033,-94.74060059,1,0,0,response3disk,,4,12.54516602,0.10144043,1,0,0,rectangle,12.54516602,0.10144043,1,0,0,12.54516602,0.10144043,1,0,0,0,67,67,128,1,,,,,,,,
,,,,,,,,,,,,,FF,,,,,,,,1.298765,,,,,,,,,,,,,,,,,,,,,,610356bcea0d0f2bbaefce1a,610366f90ab39767522922d3,2021-07-29_21h45.34.317,Simcolourproject_2stim_asymm_v5,2020.2.10,Linux x86_64,60,61025ae37ef11b136ea224fe,,,,,,,,,1946,80.07537842,35.48693848,1,0,0,response1disk,,6,6.297729492,-0.26675415,1,0,0,rectangle,6.297729492,-0.26675415,1,0,0,6.297729492,-0.26675415,1,0,0,0,68,68,42,1,,,,,,,,
,,,,,,,,,,,,,FF,,,,,,,,1.20003,,,,,,,,,,,,,,,,,,,,,,610356bcea0d0f2bbaefce1a,610366f90ab39767522922d3,2021-07-29_21h45.34.317,Simcolourproject_2stim_asymm_v5,2020.2.10,Linux x86_64,60,61025ae37ef11b136ea224fe,,,,,,,,,4171,-43.64373779,-89.47079468,1,0,0,response5disk,,3,8.753601074,9.652862549,1,0,0,rectangle,8.753601074,9.652862549,1,0,0,8.753601074,9.652862549,1,0,0,0,69,69,75,1,,,,,,,,
,,,,,,,,,,,,,FF,,,,,,,,1.6986,,,,,,,,,,,,,,,,,,,,,,610356bcea0d0f2bbaefce1a,610366f90ab39767522922d3,2021-07-29_21h45.34.317,Simcolourproject_2stim_asymm_v5,2020.2.10,Linux x86_64,60,61025ae37ef11b136ea224fe,,,,,,,,,1313,-41.9463501,-81.86001587,1,0,0,response5disk,,3,-3.575317383,1.237213135,1,0,0,rectangle,-3.575317383,1.237213135,1,0,0,-3.575317383,1.237213135,1,0,0,0,70,70,95,1,,,,,,,,
,,,,,,,,,,,,,FF,,,,,,,,1.198835,,,,,,,,,,,,,,,,,,,,,,610356bcea0d0f2bbaefce1a,610366f90ab39767522922d3,2021-07-29_21h45.34.317,Simcolourproject_2stim_asymm_v5,2020.2.10,Linux x86_64,60,61025ae37ef11b136ea224fe,,,,,,,,,2142,44.21948242,-58.78396606,1,0,0,response3disk,,4,-6.89642334,12.04367065,1,0,0,rectangle,39.33123779,-71.92440796,1,0,0,-4.48425293,8.71572876,1,0,0,0,71,71,38,1,,response3disk_3,TRUE,4,4,"[191,37,242,195,12,191,42,207,45,84,199,165,35,99,228,72,202,105,256,208]",1.662995,rectangle
,,,,,,,,,,,,,FF,,,,,,,,2.515465,,,,,,,,,,,,,,,,,,,,,,610356bcea0d0f2bbaefce1a,610366f90ab39767522922d3,2021-07-29_21h45.34.317,Simcolourproject_2stim_asymm_v5,2020.2.10,Linux x86_64,60,61025ae37ef11b136ea224fe,,,,,,,,,1412,34.31781006,-56.92810059,1,0,0,response3disk,,4,-10.41400146,0.679321289,1,0,0,rectangle,-10.41400146,0.679321289,1,0,0,-10.41400146,0.679321289,1,0,0,0,72,72,31,1,,,,,,,,
,,,,,,,,,,,,,FF,,,,,,,,1.365335,,,,,,,,,,,,,,,,,,,,,,610356bcea0d0f2bbaefce1a,610366f90ab39767522922d3,2021-07-29_21h45.34.317,Simcolourproject_2stim_asymm_v5,2020.2.10,Linux x86_64,60,61025ae37ef11b136ea224fe,,,,,,,,,2135,109.1971436,43.23617554,1,0,0,response1disk,,6,27.41601563,5.851074219,1,0,0,rectangle,27.41601563,5.851074219,1,0,0,27.41601563,5.851074219,1,0,0,0,73,73,156,1,,,,,,,,
,,,,,,,,,,,,,FF,,,,,,,,0.86566,,,,,,,,,,,,,,,,,,,,,,610356bcea0d0f2bbaefce1a,610366f90ab39767522922d3,2021-07-29_21h45.34.317,Simcolourproject_2stim_asymm_v5,2020.2.10,Linux x86_64,60,61025ae37ef11b136ea224fe,,,,,,,,,2633,69.46697998,60.86953735,1,0,0,response1disk,,6,-9.123718262,-10.19052124,1,0,0,rectangle,-9.123718262,-10.19052124,1,0,0,-9.123718262,-10.19052124,1,0,0,0,74,74,65,1,,,,,,,,
,,,,,,,,,,,,,FF,,,,,,,,1.265705,,,,,,,,,,,,,,,,,,,,,,610356bcea0d0f2bbaefce1a,610366f90ab39767522922d3,2021-07-29_21h45.34.317,Simcolourproject_2stim_asymm_v5,2020.2.10,Linux x86_64,60,61025ae37ef11b136ea224fe,,,,,,,,,3305,-84.6496582,-49.20669556,1,0,0,response5disk,,2,19.90911865,7.476806641,1,0,0,rectangle,19.90911865,7.476806641,1,0,0,19.90911865,7.476806641,1,0,0,0,75,75,82,1,,,,,,,,
,,,,,,,,,,,,,FF,,,,,,,,1.28256,,,,,,,,,,,,,,,,,,,,,,610356bcea0d0f2bbaefce1a,610366f90ab39767522922d3,2021-07-29_21h45.34.317,Simcolourproject_2stim_asymm_v5,2020.2.10,Linux x86_64,60,61025ae37ef11b136ea224fe,,,,,,,,,4141,-39.35284424,-63.78503418,1,0,0,response5disk,,3,11.33898926,-4.457397461,1,0,0,rectangle,11.33898926,-4.457397461,1,0,0,11.33898926,-4.457397461,1,0,0,0,76,76,148,1,,,,,,,,
,,,,,,,,,,,,,FF,,,,,,,,1.132095,,,,,,,,,,,,,,,,,,,,,,610356bcea0d0f2bbaefce1a,610366f90ab39767522922d3,2021-07-29_21h45.34.317,Simcolourproject_2stim_asymm_v5,2020.2.10,Linux x86_64,60,61025ae37ef11b136ea224fe,,,,,,,,,902,-63.22967529,-97.63140869,1,0,0,response5disk,,3,-7.992370605,-6.309143066,1,0,0,rectangle,-7.992370605,-6.309143066,1,0,0,-7.992370605,-6.309143066,1,0,0,0,77,77,10,1,,,,,,,,
,,,,,,,,,,,,,FF,,,,,,,,1.048395,,,,,,,,,,,,,,,,,,,,,,610356bcea0d0f2bbaefce1a,610366f90ab39767522922d3,2021-07-29_21h45.34.317,Simcolourproject_2stim_asymm_v5,2020.2.10,Linux x86_64,60,61025ae37ef11b136ea224fe,,,,,,,,,4292,50.28607178,-17.04013062,1,0,0,response3disk,,5,-8.195129395,1.154541016,1,0,0,rectangle,-8.195129395,1.154541016,1,0,0,-8.195129395,1.154541016,1,0,0,0,78,78,102,1,,,,,,,,
,,,,,,,,,,,,,FF,,,,,,,,1.068395,,,,,,,,,,,,,,,,,,,,,,610356bcea0d0f2bbaefce1a,610366f90ab39767522922d3,2021-07-29_21h45.34.317,Simcolourproject_2stim_asymm_v5,2020.2.10,Linux x86_64,60,61025ae37ef11b136ea224fe,,,,,,,,,3338,-38.61962891,-51.65481567,1,0,0,response5disk,,3,-0.215454102,-2.086669922,1,0,0,rectangle,-0.215454102,-2.086669922,1,0,0,-0.215454102,-2.086669922,1,0,0,0,79,79,22,1,,,,,,,,
,,,,,,,,,,,,,FF,,,,,,,,0.8167,,,,,,,,,,,,,,,,,,,,,,610356bcea0d0f2bbaefce1a,610366f90ab39767522922d3,2021-07-29_21h45.34.317,Simcolourproject_2stim_asymm_v5,2020.2.10,Linux x86_64,60,61025ae37ef11b136ea224fe,,,,,,,,,12,34.24584961,-41.96203613,1,0,0,response3disk,,4,-6.088989258,2.382843018,1,0,0,rectangle,-6.088989258,2.382843018,1,0,0,-6.088989258,2.382843018,1,0,0,0,80,80,124,1,,,,,,,,
,,,,,,,,,,,,,FF,,,,,,,,1.26502,,,,,,,,,,,,,,,,,,,,,,610356bcea0d0f2bbaefce1a,610366f90ab39767522922d3,2021-07-29_21h45.34.317,Simcolourproject_2stim_asymm_v5,2020.2.10,Linux x86_64,60,61025ae37ef11b136ea224fe,,,,,,,,,2684,80.61999512,-55.77359009,1,0,0,response3disk,,5,2.579650879,-9.746063232,1,0,0,rectangle,2.579650879,-9.746063232,1,0,0,2.579650879,-9.746063232,1,0,0,0,81,81,8,1,,,,,,,,
,,,,,,,,,,,,,FF,,,,,,,,0.997415,,,,,,,,,,,,,,,,,,,,,,610356bcea0d0f2bbaefce1a,610366f90ab39767522922d3,2021-07-29_21h45.34.317,Simcolourproject_2stim_asymm_v5,2020.2.10,Linux x86_64,60,61025ae37ef11b136ea224fe,,,,,,,,,1378,-71.94659424,-48.4881897,1,0,0,response5disk,,2,2.012023926,9.395629883,1,0,0,rectangle,2.012023926,9.395629883,1,0,0,2.012023926,9.395629883,1,0,0,0,82,82,118,1,,,,,,,,
,,,,,,,,,,,,,FF,,,,,,,,0.799555,,,,,,,,,,,,,,,,,,,,,,610356bcea0d0f2bbaefce1a,610366f90ab39767522922d3,2021-07-29_21h45.34.317,Simcolourproject_2stim_asymm_v5,2020.2.10,Linux x86_64,60,61025ae37ef11b136ea224fe,,,,,,,,,1693,35.38647461,-54.12704468,1,0,0,response3disk,,4,-9.567016602,0.005371094,1,0,0,rectangle,-79.96069336,-34.16702271,1,0,0,5.244628906,-2.19821167,1,0,0,0,83,83,120,1,,response5disk_3,TRUE,2,2,"[191,37,242,195,12,191,42,207,45,84,199,165,35,99,228,72,202,105,256,208]",1.833265,rectangle
,,,,,,,,,,,,,FF,,,,,,,,2.16462,,,,,,,,,,,,,,,,,,,,,,610356bcea0d0f2bbaefce1a,610366f90ab39767522922d3,2021-07-29_21h45.34.317,Simcolourproject_2stim_asymm_v5,2020.2.10,Linux x86_64,60,61025ae37ef11b136ea224fe,,,,,,,,,18,47.52618408,-72.80740356,1,0,0,response3disk,,4,-3.753417969,0.881958008,1,0,0,rectangle,-3.753417969,0.881958008,1,0,0,-3.753417969,0.881958008,1,0,0,0,84,84,76,1,,,,,,,,
,,,,,,,,,,,,,FF,,,,,,,,1.88212,,,,,,,,,,,,,,,,,,,,,,610356bcea0d0f2bbaefce1a,610366f90ab39767522922d3,2021-07-29_21h45.34.317,Simcolourproject_2stim_asymm_v5,2020.2.10,Linux x86_64,60,61025ae37ef11b136ea224fe,,,,,,,,,1911,20.93963623,-68.84512329,1,0,0,response3disk,,4,-5.641418457,8.970733643,1,0,0,rectangle,-5.641418457,8.970733643,1,0,0,-5.641418457,8.970733643,1,0,0,0,85,85,147,1,,,,,,,,
,,,,,,,,,,,,,FF,,,,,,,,1.133455,,,,,,,,,,,,,,,,,,,,,,610356bcea0d0f2bbaefce1a,610366f90ab39767522922d3,2021-07-29_21h45.34.317,Simcolourproject_2stim_asymm_v5,2020.2.10,Linux x86_64,60,61025ae37ef11b136ea224fe,,,,,,,,,44,-42.35900879,-91.85748291,1,0,0,response5disk,,3,-6.898986816,14.92285156,1,0,0,rectangle,-6.898986816,14.92285156,1,0,0,-6.898986816,14.92285156,1,0,0,0,86,86,143,1,,,,,,,,
,,,,,,,,,,,,,FF,,,,,,,,2.331835,,,,,,,,,,,,,,,,,,,,,,610356bcea0d0f2bbaefce1a,610366f90ab39767522922d3,2021-07-29_21h45.34.317,Simcolourproject_2stim_asymm_v5,2020.2.10,Linux x86_64,60,61025ae37ef11b136ea224fe,,,,,,,,,1098,82.14093018,55.44387817,1,0,0,response1disk,,6,13.85955811,5.656524658,1,0,0,rectangle,13.85955811,5.656524658,1,0,0,13.85955811,5.656524658,1,0,0,0,87,87,97,1,,,,,,,,
,,,,,,,,,,,,,FF,,,,,,,,0.83815,,,,,,,,,,,,,,,,,,,,,,610356bcea0d0f2bbaefce1a,610366f90ab39767522922d3,2021-07-29_21h45.34.317,Simcolourproject_2stim_asymm_v5,2020.2.10,Linux x86_64,60,61025ae37ef11b136ea224fe,,,,,,,,,2746,51.09967041,-20.12750244,1,0,0,response3disk,,5,-7.044555664,5.268218994,1,0,0,rectangle,-7.044555664,5.268218994,1,0,0,-7.044555664,5.268218994,1,0,0,0,88,88,63,1,,,,,,,,
,,,,,,,,,,,,,FF,,,,,,,,1.947975,,,,,,,,,,,,,,,,,,,,,,610356bcea0d0f2bbaefce1a,610366f90ab39767522922d3,2021-07-29_21h45.34.317,Simcolourproject_2stim_asymm_v5,2020.2.10,Linux x86_64,60,61025ae37ef11b136ea224fe,,,,,,,,,3313,77.05010986,-54.65945435,1,0,0,response3disk,,5,-4.481201172,-10.50698853,1,0,0,rectangle,-4.481201172,-10.50698853,1,0,0,-4.481201172,-10.50698853,1,0,0,0,89,89,125,1,,,,,,,,
,,,,,,,,,,,,,FF,,,,,,,,1.117625,,,,,,,,,,,,,,,,,,,,,,610356bcea0d0f2bbaefce1a,610366f90ab39767522922d3,2021-07-29_21h45.34.317,Simcolourproject_2stim_asymm_v5,2020.2.10,Linux x86_64,60,61025ae37ef11b136ea224fe,,,,,,,,,895,-19.47753906,-66.8404541,1,0,0,response5disk,,3,4.083068848,7.340393066,1,0,0,rectangle,4.083068848,7.340393066,1,0,0,4.083068848,7.340393066,1,0,0,0,90,90,132,1,,,,,,,,
,,,,,,,,,,,,,FF,,,,,,,,1.34672,,,,,,,,,,,,,,,,,,,,,,610356bcea0d0f2bbaefce1a,610366f90ab39767522922d3,2021-07-29_21h45.34.317,Simcolourproject_2stim_asymm_v5,2020.2.10,Linux x86_64,60,61025ae37ef11b136ea224fe,,,,,,,,,2583,41.29486084,-61.1880188,1,0,0,response3disk,,4,-15.99700928,15.23736572,1,0,0,rectangle,-15.99700928,15.23736572,1,0,0,-15.99700928,15.23736572,1,0,0,0,91,91,98,1,,,,,,,,
,,,,,,,,,,,,,FF,,,,,,,,2.54764,,,,,,,,,,,,,,,,,,,,,,610356bcea0d0f2bbaefce1a,610366f90ab39767522922d3,2021-07-29_21h45.34.317,Simcolourproject_2stim_asymm_v5,2020.2.10,Linux x86_64,60,61025ae37ef11b136ea224fe,,,,,,,,,1298,-39.19311523,60.11917114,1,0,0,response7disk,,0,-10.36199951,3.626525879,1,0,0,rectangle,-10.36199951,3.626525879,1,0,0,-10.36199951,3.626525879,1,0,0,0,92,92,18,1,,,,,,,,
,,,,,,,,,,,,,FF,,,,,,,,1.0142,,,,,,,,,,,,,,,,,,,,,,610356bcea0d0f2bbaefce1a,610366f90ab39767522922d3,2021-07-29_21h45.34.317,Simcolourproject_2stim_asymm_v5,2020.2.10,Linux x86_64,60,61025ae37ef11b136ea224fe,,,,,,,,,967,74.24755859,-16.3097229,1,0,0,response3disk,,5,-4.168457031,-1.112945557,1,0,0,rectangle,-4.168457031,-1.112945557,1,0,0,-4.168457031,-1.112945557,1,0,0,0,93,93,64,1,,,,,,,,
,,,,,,,,,,,,,FF,,,,,,,,0.86656,,,,,,,,,,,,,,,,,,,,,,610356bcea0d0f2bbaefce1a,610366f90ab39767522922d3,2021-07-29_21h45.34.317,Simcolourproject_2stim_asymm_v5,2020.2.10,Linux x86_64,60,61025ae37ef11b136ea224fe,,,,,,,,,586,71.29620361,-25.16491699,1,0,0,response3disk,,5,9.676269531,-6.961547852,1,0,0,rectangle,9.676269531,-6.961547852,1,0,0,9.676269531,-6.961547852,1,0,0,0,94,94,54,1,,,,,,,,
,,,,,,,,,,,,,FF,,,,,,,,1.131325,,,,,,,,,,,,,,,,,,,,,,610356bcea0d0f2bbaefce1a,610366f90ab39767522922d3,2021-07-29_21h45.34.317,Simcolourproject_2stim_asymm_v5,2020.2.10,Linux x86_64,60,61025ae37ef11b136ea224fe,,,,,,,,,4369,-36.54931641,58.48513794,1,0,0,response7disk,,0,5.475280762,2.631958008,1,0,0,rectangle,5.475280762,2.631958008,1,0,0,5.475280762,2.631958008,1,0,0,0,95,95,21,1,,,,,,,,
,,,,,,,,,,,,,FF,,,,,,,,1.065285,,,,,,,,,,,,,,,,,,,,,,610356bcea0d0f2bbaefce1a,610366f90ab39767522922d3,2021-07-29_21h45.34.317,Simcolourproject_2stim_asymm_v5,2020.2.10,Linux x86_64,60,61025ae37ef11b136ea224fe,,,,,,,,,3212,-79.45465088,-48.84402466,1,0,0,response5disk,,2,11.42022705,-5.702880859,1,0,0,rectangle,11.42022705,-5.702880859,1,0,0,11.42022705,-5.702880859,1,0,0,0,96,96,121,1,,,,,,,,
,,,,,,,,,,,,,FF,,,,,,,,0.94763,,,,,,,,,,,,,,,,,,,,,,610356bcea0d0f2bbaefce1a,610366f90ab39767522922d3,2021-07-29_21h45.34.317,Simcolourproject_2stim_asymm_v5,2020.2.10,Linux x86_64,60,61025ae37ef11b136ea224fe,,,,,,,,,1828,-71.74591064,-31.75067139,1,0,0,response5disk,,2,8.518188477,1.139221191,1,0,0,rectangle,8.518188477,1.139221191,1,0,0,8.518188477,1.139221191,1,0,0,0,97,97,9,1,,,,,,,,
,,,,,,,,,,,,,FF,,,,,,,,0.99996,,,,,,,,,,,,,,,,,,,,,,610356bcea0d0f2bbaefce1a,610366f90ab39767522922d3,2021-07-29_21h45.34.317,Simcolourproject_2stim_asymm_v5,2020.2.10,Linux x86_64,60,61025ae37ef11b136ea224fe,,,,,,,,,622,-69.35699463,25.72961426,1,0,0,response7disk,,1,2.69543457,9.519439697,1,0,0,rectangle,-74.08276367,-25.27792358,1,0,0,-0.452697754,-1.200927734,1,0,0,0,98,98,131,1,,response5disk_3,TRUE,2,2,"[191,37,242,195,12,191,42,207,45,84,199,165,35,99,228,72,202,105,256,208]",1.681445,rectangle
,,,,,,,,,,,,,FF,,,,,,,,2.01487,,,,,,,,,,,,,,,,,,,,,,610356bcea0d0f2bbaefce1a,610366f90ab39767522922d3,2021-07-29_21h45.34.317,Simcolourproject_2stim_asymm_v5,2020.2.10,Linux x86_64,60,61025ae37ef11b136ea224fe,,,,,,,,,2712,-57.21142578,-44.73236084,1,0,0,response5disk,,2,8.779785156,-6.129699707,1,0,0,rectangle,8.779785156,-6.129699707,1,0,0,8.779785156,-6.129699707,1,0,0,0,99,99,123,1,,,,,,,,
,,,,,,,,,,,,,FF,,,,,,,,1.63118,,,,,,,,,,,,,,,,,,,,,,610356bcea0d0f2bbaefce1a,610366f90ab39767522922d3,2021-07-29_21h45.34.317,Simcolourproject_2stim_asymm_v5,2020.2.10,Linux x86_64,60,61025ae37ef11b136ea224fe,,,,,,,,,3990,21.68237305,-64.63882446,1,0,0,response3disk,,4,-22.17791748,0.509063721,1,0,0,rectangle,-22.17791748,0.509063721,1,0,0,-22.17791748,0.509063721,1,0,0,0,100,100,26,1,,,,,,,,
,,,,,,,,,,,,,FF,,,,,,,,2.234285,,,,,,,,,,,,,,,,,,,,,,610356bcea0d0f2bbaefce1a,610366f90ab39767522922d3,2021-07-29_21h45.34.317,Simcolourproject_2stim_asymm_v5,2020.2.10,Linux x86_64,60,61025ae37ef11b136ea224fe,,,,,,,,,3379,55.57287598,33.20657349,1,0,0,response1disk,,6,-7.56829834,9.314483643,1,0,0,rectangle,-7.56829834,9.314483643,1,0,0,-7.56829834,9.314483643,1,0,0,0,101,101,19,1,,,,,,,,
,,,,,,,,,,,,,FF,,,,,,,,1.23185,,,,,,,,,,,,,,,,,,,,,,610356bcea0d0f2bbaefce1a,610366f90ab39767522922d3,2021-07-29_21h45.34.317,Simcolourproject_2stim_asymm_v5,2020.2.10,Linux x86_64,60,61025ae37ef11b136ea224fe,,,,,,,,,1919,37.91479492,-55.22064209,1,0,0,response3disk,,4,-4.346496582,9.841766357,1,0,0,rectangle,-4.346496582,9.841766357,1,0,0,-4.346496582,9.841766357,1,0,0,0,102,102,81,1,,,,,,,,
,,,,,,,,,,,,,FF,,,,,,,,12.79372,,,,,,,,,,,,,,,,,,,,,,610356bcea0d0f2bbaefce1a,610366f90ab39767522922d3,2021-07-29_21h45.34.317,Simcolourproject_2stim_asymm_v5,2020.2.10,Linux x86_64,60,61025ae37ef11b136ea224fe,,,,,,,,,2323,101.0893555,-43.58053589,1,0,0,response3disk,,5,-6.105895996,0.431610107,1,0,0,rectangle,-6.105895996,0.431610107,1,0,0,-6.105895996,0.431610107,1,0,0,0,103,103,96,1,,,,,,,,
,,,,,,,,,,,,,FF,,,,,,,,0.96437,,,,,,,,,,,,,,,,,,,,,,610356bcea0d0f2bbaefce1a,610366f90ab39767522922d3,2021-07-29_21h45.34.317,Simcolourproject_2stim_asymm_v5,2020.2.10,Linux x86_64,60,61025ae37ef11b136ea224fe,,,,,,,,,3367,52.20635986,-32.93475342,1,0,0,response3disk,,5,2.763793945,7.97744751,1,0,0,rectangle,-87.83929443,52.34152222,1,0,0,6.39239502,-5.654327393,1,0,0,0,104,104,116,1,,response7disk_3,TRUE,1,1,"[191,37,242,195,12,191,42,207,45,84,199,165,35,99,228,72,202,105,256,208]",2.435725,rectangle
,,,,,,,,,,,,,FF,,,,,,,,2.3644,,,,,,,,,,,,,,,,,,,,,,610356bcea0d0f2bbaefce1a,610366f90ab39767522922d3,2021-07-29_21h45.34.317,Simcolourproject_2stim_asymm_v5,2020.2.10,Linux x86_64,60,61025ae37ef11b136ea224fe,,,,,,,,,1269,32.30700684,-54.15887451,1,0,0,response3disk,,4,-14.13574219,2.012207031,1,0,0,rectangle,-14.13574219,2.012207031,1,0,0,-14.13574219,2.012207031,1,0,0,0,105,105,106,1,,,,,,,,
,,,,,,,,,,,,,FF,,,,,,,,1.06599,,,,,,,,,,,,,,,,,,,,,,610356bcea0d0f2bbaefce1a,610366f90ab39767522922d3,2021-07-29_21h45.34.317,Simcolourproject_2stim_asymm_v5,2020.2.10,Linux x86_64,60,61025ae37ef11b136ea224fe,,,,,,,,,2692,-20.38031006,-49.26873779,1,0,0,response5disk,,3,-0.295959473,-9.055114746,1,0,0,rectangle,-0.295959473,-9.055114746,1,0,0,-0.295959473,-9.055114746,1,0,0,0,106,106,129,1,,,,,,,,
,,,,,,,,,,,,,FF,,,,,,,,1.13362,,,,,,,,,,,,,,,,,,,,,,610356bcea0d0f2bbaefce1a,610366f90ab39767522922d3,2021-07-29_21h45.34.317,Simcolourproject_2stim_asymm_v5,2020.2.10,Linux x86_64,60,61025ae37ef11b136ea224fe,,,,,,,,,456,-68.1050415,36.95681763,1,0,0,response7disk,,1,0.89074707,-6.044189453,1,0,0,rectangle,0.89074707,-6.044189453,1,0,0,0.89074707,-6.044189453,1,0,0,0,107,107,99,1,,,,,,,,
,,,,,,,,,,,,,FF,,,,,,,,0.916355,,,,,,,,,,,,,,,,,,,,,,610356bcea0d0f2bbaefce1a,610366f90ab39767522922d3,2021-07-29_21h45.34.317,Simcolourproject_2stim_asymm_v5,2020.2.10,Linux x86_64,60,61025ae37ef11b136ea224fe,,,,,,,,,3546,-20.85687256,-50.77890015,1,0,0,response5disk,,3,2.10949707,5.627258301,1,0,0,rectangle,2.10949707,5.627258301,1,0,0,2.10949707,5.627258301,1,0,0,0,108,108,119,1,,,,,,,,
,,,,,,,,,,,,,FF,,,,,,,,3.03198,,,,,,,,,,,,,,,,,,,,,,610356bcea0d0f2bbaefce1a,610366f90ab39767522922d3,2021-07-29_21h45.34.317,Simcolourproject_2stim_asymm_v5,2020.2.10,Linux x86_64,60,61025ae37ef11b136ea224fe,,,,,,,,,1351,83.43572998,-58.88015747,1,0,0,response3disk,,5,2.981872559,-4.99206543,1,0,0,rectangle,2.981872559,-4.99206543,1,0,0,2.981872559,-4.99206543,1,0,0,0,109,109,155,1,,,,,,,,
,,,,,,,,,,,,,FF,,,,,,,,1.166105,,,,,,,,,,,,,,,,,,,,,,610356bcea0d0f2bbaefce1a,610366f90ab39767522922d3,2021-07-29_21h45.34.317,Simcolourproject_2stim_asymm_v5,2020.2.10,Linux x86_64,60,61025ae37ef11b136ea224fe,,,,,,,,,2079,32.95849609,-61.35308838,1,0,0,response3disk,,4,10.0803833,4.908905029,1,0,0,rectangle,10.0803833,4.908905029,1,0,0,10.0803833,4.908905029,1,0,0,0,110,110,11,1,,,,,,,,
,,,,,,,,,,,,,FF,,,,,,,,1.116235,,,,,,,,,,,,,,,,,,,,,,610356bcea0d0f2bbaefce1a,610366f90ab39767522922d3,2021-07-29_21h45.34.317,Simcolourproject_2stim_asymm_v5,2020.2.10,Linux x86_64,60,61025ae37ef11b136ea224fe,,,,,,,,,1604,-93.52789307,-51.4414978,1,0,0,response5disk,,2,-4.689819336,-3.25881958,1,0,0,rectangle,-4.689819336,-3.25881958,1,0,0,-4.689819336,-3.25881958,1,0,0,0,111,111,113,1,,,,,,,,
,,,,,,,,,,,,,FF,,,,,,,,0.8822,,,,,,,,,,,,,,,,,,,,,,610356bcea0d0f2bbaefce1a,610366f90ab39767522922d3,2021-07-29_21h45.34.317,Simcolourproject_2stim_asymm_v5,2020.2.10,Linux x86_64,60,61025ae37ef11b136ea224fe,,,,,,,,,1591,-40.72979736,-49.28451538,1,0,0,response5disk,,3,-5.266540527,-13.65847778,1,0,0,rectangle,-5.266540527,-13.65847778,1,0,0,-5.266540527,-13.65847778,1,0,0,0,112,112,15,1,,,,,,,,
,,,,,,,,,,,,,FF,,,,,,,,1.83103,,,,,,,,,,,,,,,,,,,,,,610356bcea0d0f2bbaefce1a,610366f90ab39767522922d3,2021-07-29_21h45.34.317,Simcolourproject_2stim_asymm_v5,2020.2.10,Linux x86_64,60,61025ae37ef11b136ea224fe,,,,,,,,,986,96.63110352,37.51449585,1,0,0,response1disk,,6,-17.51678467,-8.977844238,1,0,0,rectangle,-17.51678467,-8.977844238,1,0,0,-17.51678467,-8.977844238,1,0,0,0,113,113,88,1,,,,,,,,
,,,,,,,,,,,,,FF,,,,,,,,0.966435,,,,,,,,,,,,,,,,,,,,,,610356bcea0d0f2bbaefce1a,610366f90ab39767522922d3,2021-07-29_21h45.34.317,Simcolourproject_2stim_asymm_v5,2020.2.10,Linux x86_64,60,61025ae37ef11b136ea224fe,,,,,,,,,2599,59.24304199,91.79504395,1,0,0,response1disk,,7,-6.702697754,-15.01431274,1,0,0,rectangle,-6.702697754,-15.01431274,1,0,0,-6.702697754,-15.01431274,1,0,0,0,114,114,73,1,,,,,,,,
,,,,,,,,,,,,,FF,,,,,,,,1.099445,,,,,,,,,,,,,,,,,,,,,,610356bcea0d0f2bbaefce1a,610366f90ab39767522922d3,2021-07-29_21h45.34.317,Simcolourproject_2stim_asymm_v5,2020.2.10,Linux x86_64,60,61025ae37ef11b136ea224fe,,,,,,,,,3629,21.99603271,72.10360718,1,0,0,response1disk,,7,5.280456543,13.51452637,1,0,0,rectangle,5.280456543,13.51452637,1,0,0,5.280456543,13.51452637,1,0,0,0,115,115,109,1,,,,,,,,
,,,,,,,,,,,,,FF,,,,,,,,1.1147,,,,,,,,,,,,,,,,,,,,,,610356bcea0d0f2bbaefce1a,610366f90ab39767522922d3,2021-07-29_21h45.34.317,Simcolourproject_2stim_asymm_v5,2020.2.10,Linux x86_64,60,61025ae37ef11b136ea224fe,,,,,,,,,1411,76.05859375,-34.79879761,1,0,0,response3disk,,5,14.28497314,7.184082031,1,0,0,rectangle,14.28497314,7.184082031,1,0,0,14.28497314,7.184082031,1,0,0,0,116,116,77,1,,,,,,,,
,,,,,,,,,,,,,FF,,,,,,,,1.048775,,,,,,,,,,,,,,,,,,,,,,610356bcea0d0f2bbaefce1a,610366f90ab39767522922d3,2021-07-29_21h45.34.317,Simcolourproject_2stim_asymm_v5,2020.2.10,Linux x86_64,60,61025ae37ef11b136ea224fe,,,,,,,,,3753,30.47857666,-100.6441345,1,0,0,response3disk,,4,-4.500488281,7.778625488,1,0,0,rectangle,-4.500488281,7.778625488,1,0,0,-4.500488281,7.778625488,1,0,0,0,117,117,153,1,,,,,,,,
,,,,,,,,,,,,,FF,,,,,,,,1.19728,,,,,,,,,,,,,,,,,,,,,,610356bcea0d0f2bbaefce1a,610366f90ab39767522922d3,2021-07-29_21h45.34.317,Simcolourproject_2stim_asymm_v5,2020.2.10,Linux x86_64,60,61025ae37ef11b136ea224fe,,,,,,,,,1912,74.21142578,-43.64712524,1,0,0,response3disk,,5,4.387939453,1.151763916,1,0,0,rectangle,4.387939453,1.151763916,1,0,0,4.387939453,1.151763916,1,0,0,0,118,118,71,1,,,,,,,,
,,,,,,,,,,,,,FF,,,,,,,,1.233255,,,,,,,,,,,,,,,,,,,,,,610356bcea0d0f2bbaefce1a,610366f90ab39767522922d3,2021-07-29_21h45.34.317,Simcolourproject_2stim_asymm_v5,2020.2.10,Linux x86_64,60,61025ae37ef11b136ea224fe,,,,,,,,,557,-72.37371826,64.29400635,1,0,0,response7disk,,1,1.315307617,-1.664489746,1,0,0,rectangle,1.315307617,-1.664489746,1,0,0,1.315307617,-1.664489746,1,0,0,0,119,119,55,1,,,,,,,,
,,,,,,,,,,,,,FF,,,,,,,,1.947635,,,,,,,,,,,,,,,,,,,,,,610356bcea0d0f2bbaefce1a,610366f90ab39767522922d3,2021-07-29_21h45.34.317,Simcolourproject_2stim_asymm_v5,2020.2.10,Linux x86_64,60,61025ae37ef11b136ea224fe,,,,,,,,,1668,72.34313965,38.58560181,1,0,0,response1disk,,6,19.18731689,-3.558685303,1,0,0,rectangle,19.18731689,-3.558685303,1,0,0,19.18731689,-3.558685303,1,0,0,0,120,120,53,1,,,,,,,,
,,,,,,,,,,,,,FF,,,,,,,,2.59976,,,,,,,,,,,,,,,,,,,,,,610356bcea0d0f2bbaefce1a,610366f90ab39767522922d3,2021-07-29_21h45.34.317,Simcolourproject_2stim_asymm_v5,2020.2.10,Linux x86_64,60,61025ae37ef11b136ea224fe,,,,,,,,,1894,-66.67095947,-81.46948242,1,0,0,response5disk,,3,-7.692871094,6.754669189,1,0,0,rectangle,-7.692871094,6.754669189,1,0,0,-7.692871094,6.754669189,1,0,0,0,121,121,150,1,,,,,,,,
,,,,,,,,,,,,,FF,,,,,,,,1.098905,,,,,,,,,,,,,,,,,,,,,,610356bcea0d0f2bbaefce1a,610366f90ab39767522922d3,2021-07-29_21h45.34.317,Simcolourproject_2stim_asymm_v5,2020.2.10,Linux x86_64,60,61025ae37ef11b136ea224fe,,,,,,,,,293,63.80578613,45.61737061,1,0,0,response1disk,,6,1.508972168,-0.859985352,1,0,0,rectangle,1.508972168,-0.859985352,1,0,0,1.508972168,-0.859985352,1,0,0,0,122,122,140,1,,,,,,,,
,,,,,,,,,,,,,FF,,,,,,,,1.082285,,,,,,,,,,,,,,,,,,,,,,610356bcea0d0f2bbaefce1a,610366f90ab39767522922d3,2021-07-29_21h45.34.317,Simcolourproject_2stim_asymm_v5,2020.2.10,Linux x86_64,60,61025ae37ef11b136ea224fe,,,,,,,,,1521,-45.48968506,70.8963623,1,0,0,response7disk,,0,5.494995117,-0.12387085,1,0,0,rectangle,5.494995117,-0.12387085,1,0,0,5.494995117,-0.12387085,1,0,0,0,123,123,39,1,,,,,,,,
,,,,,,,,,,,,,FF,,,,,,,,1.41431,,,,,,,,,,,,,,,,,,,,,,610356bcea0d0f2bbaefce1a,610366f90ab39767522922d3,2021-07-29_21h45.34.317,Simcolourproject_2stim_asymm_v5,2020.2.10,Linux x86_64,60,61025ae37ef11b136ea224fe,,,,,,,,,3700,-38.58258057,-66.55072021,1,0,0,response5disk,,3,-3.423034668,-5.62109375,1,0,0,rectangle,-3.423034668,-5.62109375,1,0,0,-3.423034668,-5.62109375,1,0,0,0,124,124,56,1,,,,,,,,
,,,,,,,,,,,,,FF,,,,,,,,0.999595,,,,,,,,,,,,,,,,,,,,,,610356bcea0d0f2bbaefce1a,610366f90ab39767522922d3,2021-07-29_21h45.34.317,Simcolourproject_2stim_asymm_v5,2020.2.10,Linux x86_64,60,61025ae37ef11b136ea224fe,,,,,,,,,3249,-20.3069458,-53.8039856,1,0,0,response5disk,,3,4.89276123,1.74508667,1,0,0,rectangle,4.89276123,1.74508667,1,0,0,4.89276123,1.74508667,1,0,0,0,125,125,49,1,,,,,,,,
,,,,,,,,,,,,,FF,,,,,,,,1.165755,,,,,,,,,,,,,,,,,,,,,,610356bcea0d0f2bbaefce1a,610366f90ab39767522922d3,2021-07-29_21h45.34.317,Simcolourproject_2stim_asymm_v5,2020.2.10,Linux x86_64,60,61025ae37ef11b136ea224fe,,,,,,,,,1460,-65.50592041,-47.22055054,1,0,0,response5disk,,2,3.300170898,1.82901001,1,0,0,rectangle,3.300170898,1.82901001,1,0,0,3.300170898,1.82901001,1,0,0,0,126,126,142,1,,,,,,,,
,,,,,,,,,,,,,FF,,,,,,,,1.316135,,,,,,,,,,,,,,,,,,,,,,610356bcea0d0f2bbaefce1a,610366f90ab39767522922d3,2021-07-29_21h45.34.317,Simcolourproject_2stim_asymm_v5,2020.2.10,Linux x86_64,60,61025ae37ef11b136ea224fe,,,,,,,,,3295,-115.0481567,-44.7394104,1,0,0,response5disk,,2,-9.510620117,-5.839233398,1,0,0,rectangle,-9.510620117,-5.839233398,1,0,0,-9.510620117,-5.839233398,1,0,0,0,127,127,141,1,,,,,,,,
,,,,,,,,,,,,,FF,,,,,,,,1.016005,,,,,,,,,,,,,,,,,,,,,,610356bcea0d0f2bbaefce1a,610366f90ab39767522922d3,2021-07-29_21h45.34.317,Simcolourproject_2stim_asymm_v5,2020.2.10,Linux x86_64,60,61025ae37ef11b136ea224fe,,,,,,,,,2777,-80.26599121,-30.72259521,1,0,0,response5disk,,2,12.51623535,-8.891387939,1,0,0,rectangle,12.51623535,-8.891387939,1,0,0,12.51623535,-8.891387939,1,0,0,0,128,128,23,1,,,,,,,,
,,,,,,,,,,,,,FF,,,,,,,,0.785495,,,,,,,,,,,,,,,,,,,,,,610356bcea0d0f2bbaefce1a,610366f90ab39767522922d3,2021-07-29_21h45.34.317,Simcolourproject_2stim_asymm_v5,2020.2.10,Linux x86_64,60,61025ae37ef11b136ea224fe,,,,,,,,,4048,29.95874023,-40.4642334,1,0,0,response3disk,,4,3.651977539,-7.72833252,1,0,0,rectangle,3.651977539,-7.72833252,1,0,0,3.651977539,-7.72833252,1,0,0,0,129,129,144,1,,,,,,,,
,,,,,,,,,,,,,FF,,,,,,,,0.84846,,,,,,,,,,,,,,,,,,,,,,610356bcea0d0f2bbaefce1a,610366f90ab39767522922d3,2021-07-29_21h45.34.317,Simcolourproject_2stim_asymm_v5,2020.2.10,Linux x86_64,60,61025ae37ef11b136ea224fe,,,,,,,,,3355,103.1856689,-39.12490845,1,0,0,response3disk,,5,18.65979004,-8.188415527,1,0,0,rectangle,18.65979004,-8.188415527,1,0,0,18.65979004,-8.188415527,1,0,0,0,130,130,34,1,,,,,,,,
,,,,,,,,,,,,,FF,,,,,,,,2.331285,,,,,,,,,,,,,,,,,,,,,,610356bcea0d0f2bbaefce1a,610366f90ab39767522922d3,2021-07-29_21h45.34.317,Simcolourproject_2stim_asymm_v5,2020.2.10,Linux x86_64,60,61025ae37ef11b136ea224fe,,,,,,,,,478,57.92749023,33.49911499,1,0,0,response1disk,,6,-0.800842285,-3.131774902,1,0,0,rectangle,-0.800842285,-3.131774902,1,0,0,-0.800842285,-3.131774902,1,0,0,0,131,131,145,1,,,,,,,,
,,,,,,,,,,,,,FF,,,,,,,,1.067095,,,,,,,,,,,,,,,,,,,,,,610356bcea0d0f2bbaefce1a,610366f90ab39767522922d3,2021-07-29_21h45.34.317,Simcolourproject_2stim_asymm_v5,2020.2.10,Linux x86_64,60,61025ae37ef11b136ea224fe,,,,,,,,,3882,-62.08880615,20.82879639,1,0,0,response7disk,,1,-7.900695801,11.16384888,1,0,0,rectangle,-7.900695801,11.16384888,1,0,0,-7.900695801,11.16384888,1,0,0,0,132,132,79,1,,,,,,,,
,,,,,,,,,,,,,FF,,,,,,,,1.24704,,,,,,,,,,,,,,,,,,,,,,610356bcea0d0f2bbaefce1a,610366f90ab39767522922d3,2021-07-29_21h45.34.317,Simcolourproject_2stim_asymm_v5,2020.2.10,Linux x86_64,60,61025ae37ef11b136ea224fe,,,,,,,,,1778,39.23583984,-50.33221436,1,0,0,response3disk,,4,3.258239746,3.746124268,1,0,0,rectangle,3.258239746,3.746124268,1,0,0,3.258239746,3.746124268,1,0,0,0,133,133,130,1,,,,,,,,
,,,,,,,,,,,,,FF,,,,,,,,0.91576,,,,,,,,,,,,,,,,,,,,,,610356bcea0d0f2bbaefce1a,610366f90ab39767522922d3,2021-07-29_21h45.34.317,Simcolourproject_2stim_asymm_v5,2020.2.10,Linux x86_64,60,61025ae37ef11b136ea224fe,,,,,,,,,2071,90.43121338,61.48599243,1,0,0,response1disk,,6,21.41778564,1.880218506,1,0,0,rectangle,21.41778564,1.880218506,1,0,0,21.41778564,1.880218506,1,0,0,0,134,134,50,1,,,,,,,,
,,,,,,,,,,,,,FF,,,,,,,,0.98086,,,,,,,,,,,,,,,,,,,,,,610356bcea0d0f2bbaefce1a,610366f90ab39767522922d3,2021-07-29_21h45.34.317,Simcolourproject_2stim_asymm_v5,2020.2.10,Linux x86_64,60,61025ae37ef11b136ea224fe,,,,,,,,,3784,-39.41516113,-68.24490356,1,0,0,response5disk,,3,7.563293457,-8.680877686,1,0,0,rectangle,7.563293457,-8.680877686,1,0,0,7.563293457,-8.680877686,1,0,0,0,135,135,62,1,,,,,,,,
,,,,,,,,,,,,,FF,,,,,,,,0.90211,,,,,,,,,,,,,,,,,,,,,,610356bcea0d0f2bbaefce1a,610366f90ab39767522922d3,2021-07-29_21h45.34.317,Simcolourproject_2stim_asymm_v5,2020.2.10,Linux x86_64,60,61025ae37ef11b136ea224fe,,,,,,,,,1684,-65.61468506,38.08145142,1,0,0,response7disk,,1,-8.129455566,0.314941406,1,0,0,rectangle,-8.129455566,0.314941406,1,0,0,-8.129455566,0.314941406,1,0,0,0,136,136,14,1,,,,,,,,
,,,,,,,,,,,,,FF,,,,,,,,1.20397,,,,,,,,,,,,,,,,,,,,,,610356bcea0d0f2bbaefce1a,610366f90ab39767522922d3,2021-07-29_21h45.34.317,Simcolourproject_2stim_asymm_v5,2020.2.10,Linux x86_64,60,61025ae37ef11b136ea224fe,,,,,,,,,136,32.00921631,-57.13070679,1,0,0,response3disk,,4,-4.613708496,-4.765350342,1,0,0,rectangle,-4.613708496,-4.765350342,1,0,0,-4.613708496,-4.765350342,1,0,0,0,137,137,13,1,,,,,,,,
,,,,,,,,,,,,,FF,,,,,,,,2.06378,,,,,,,,,,,,,,,,,,,,,,610356bcea0d0f2bbaefce1a,610366f90ab39767522922d3,2021-07-29_21h45.34.317,Simcolourproject_2stim_asymm_v5,2020.2.10,Linux x86_64,60,61025ae37ef11b136ea224fe,,,,,,,,,482,75.15319824,-48.47421265,1,0,0,response3disk,,5,8.202636719,-8.470855713,1,0,0,rectangle,8.202636719,-8.470855713,1,0,0,8.202636719,-8.470855713,1,0,0,0,138,138,68,1,,,,,,,,
,,,,,,,,,,,,,FF,,,,,,,,1.13085,,,,,,,,,,,,,,,,,,,,,,610356bcea0d0f2bbaefce1a,610366f90ab39767522922d3,2021-07-29_21h45.34.317,Simcolourproject_2stim_asymm_v5,2020.2.10,Linux x86_64,60,61025ae37ef11b136ea224fe,,,,,,,,,272,43.86950684,-69.36160278,1,0,0,response3disk,,4,-8.540588379,3.176757813,1,0,0,rectangle,-8.540588379,3.176757813,1,0,0,-8.540588379,3.176757813,1,0,0,0,139,139,41,1,,,,,,,,
,,,,,,,,,,,,,FF,,,,,,,,1.03208,,,,,,,,,,,,,,,,,,,,,,610356bcea0d0f2bbaefce1a,610366f90ab39767522922d3,2021-07-29_21h45.34.317,Simcolourproject_2stim_asymm_v5,2020.2.10,Linux x86_64,60,61025ae37ef11b136ea224fe,,,,,,,,,3361,109.6940918,37.02172852,1,0,0,response1disk,,6,8.176025391,11.89968872,1,0,0,rectangle,8.176025391,11.89968872,1,0,0,8.176025391,11.89968872,1,0,0,0,140,140,1,1,,,,,,,,
,,,,,,,,,,,,,FF,,,,,,,,0.665785,,,,,,,,,,,,,,,,,,,,,,610356bcea0d0f2bbaefce1a,610366f90ab39767522922d3,2021-07-29_21h45.34.317,Simcolourproject_2stim_asymm_v5,2020.2.10,Linux x86_64,60,61025ae37ef11b136ea224fe,,,,,,,,,2508,71.24407959,16.23721313,1,0,0,response1disk,,6,11.16192627,1.0987854,1,0,0,rectangle,11.16192627,1.0987854,1,0,0,11.16192627,1.0987854,1,0,0,0,141,141,40,1,,,,,,,,
,,,,,,,,,,,,,FF,,,,,,,,2.16456,,,,,,,,,,,,,,,,,,,,,,610356bcea0d0f2bbaefce1a,610366f90ab39767522922d3,2021-07-29_21h45.34.317,Simcolourproject_2stim_asymm_v5,2020.2.10,Linux x86_64,60,61025ae37ef11b136ea224fe,,,,,,,,,968,-64.06231689,44.92819214,1,0,0,response7disk,,1,0.291809082,6.089752197,1,0,0,rectangle,0.291809082,6.089752197,1,0,0,0.291809082,6.089752197,1,0,0,0,142,142,101,1,,,,,,,,
,,,,,,,,,,,,,FF,,,,,,,,0.86598,,,,,,,,,,,,,,,,,,,,,,610356bcea0d0f2bbaefce1a,610366f90ab39767522922d3,2021-07-29_21h45.34.317,Simcolourproject_2stim_asymm_v5,2020.2.10,Linux x86_64,60,61025ae37ef11b136ea224fe,,,,,,,,,3122,77.37817383,-24.2286377,1,0,0,response3disk,,5,-21.29516602,12.01364136,1,0,0,rectangle,-21.29516602,12.01364136,1,0,0,-21.29516602,12.01364136,1,0,0,0,143,143,114,1,,,,,,,,
,,,,,,,,,,,,,FF,,,,,,,,1.30008,,,,,,,,,,,,,,,,,,,,,,610356bcea0d0f2bbaefce1a,610366f90ab39767522922d3,2021-07-29_21h45.34.317,Simcolourproject_2stim_asymm_v5,2020.2.10,Linux x86_64,60,61025ae37ef11b136ea224fe,,,,,,,,,4176,82.34338379,29.25622559,1,0,0,response1disk,,6,7.530334473,-2.642669678,1,0,0,rectangle,7.530334473,-2.642669678,1,0,0,7.530334473,-2.642669678,1,0,0,0,144,144,24,1,,,,,,,,
,,,,,,,,,,,,,FF,,,,,,,,1.37897,,,,,,,,,,,,,,,,,,,,,,610356bcea0d0f2bbaefce1a,610366f90ab39767522922d3,2021-07-29_21h45.34.317,Simcolourproject_2stim_asymm_v5,2020.2.10,Linux x86_64,60,61025ae37ef11b136ea224fe,,,,,,,,,3600,50.22564697,81.54171753,1,0,0,response1disk,,7,8.55657959,9.83404541,1,0,0,rectangle,8.55657959,9.83404541,1,0,0,8.55657959,9.83404541,1,0,0,0,145,145,107,1,,,,,,,,
,,,,,,,,,,,,,FF,,,,,,,,2.78183,,,,,,,,,,,,,,,,,,,,,,610356bcea0d0f2bbaefce1a,610366f90ab39767522922d3,2021-07-29_21h45.34.317,Simcolourproject_2stim_asymm_v5,2020.2.10,Linux x86_64,60,61025ae37ef11b136ea224fe,,,,,,,,,3472,-32.840271,-48.18893433,1,0,0,response5disk,,3,-2.84375,-3.172515869,1,0,0,rectangle,-2.84375,-3.172515869,1,0,0,-2.84375,-3.172515869,1,0,0,0,146,146,149,1,,,,,,,,
,,,,,,,,,,,,,FF,,,,,,,,1.683615,,,,,,,,,,,,,,,,,,,,,,610356bcea0d0f2bbaefce1a,610366f90ab39767522922d3,2021-07-29_21h45.34.317,Simcolourproject_2stim_asymm_v5,2020.2.10,Linux x86_64,60,61025ae37ef11b136ea224fe,,,,,,,,,3094,38.8336792,-58.58587646,1,0,0,response3disk,,4,3.023925781,-5.607513428,1,0,0,rectangle,3.023925781,-5.607513428,1,0,0,3.023925781,-5.607513428,1,0,0,0,147,147,66,1,,,,,,,,
,,,,,,,,,,,,,FF,,,,,,,,1.365625,,,,,,,,,,,,,,,,,,,,,,610356bcea0d0f2bbaefce1a,610366f90ab39767522922d3,2021-07-29_21h45.34.317,Simcolourproject_2stim_asymm_v5,2020.2.10,Linux x86_64,60,61025ae37ef11b136ea224fe,,,,,,,,,2660,-51.02319336,68.85491943,1,0,0,response7disk,,0,-7.022827148,-6.324737549,1,0,0,rectangle,-7.022827148,-6.324737549,1,0,0,-7.022827148,-6.324737549,1,0,0,0,148,148,3,1,,,,,,,,
,,,,,,,,,,,,,FF,,,,,,,,1.233365,,,,,,,,,,,,,,,,,,,,,,610356bcea0d0f2bbaefce1a,610366f90ab39767522922d3,2021-07-29_21h45.34.317,Simcolourproject_2stim_asymm_v5,2020.2.10,Linux x86_64,60,61025ae37ef11b136ea224fe,,,,,,,,,1588,-52.99047852,-24.80471802,1,0,0,response5disk,,2,14.61218262,9.289611816,1,0,0,rectangle,14.61218262,9.289611816,1,0,0,14.61218262,9.289611816,1,0,0,0,149,149,35,1,,,,,,,,
,,,,,,,,,,,,,FF,,,,,,,,0.84946,,,,,,,,,,,,,,,,,,,,,,610356bcea0d0f2bbaefce1a,610366f90ab39767522922d3,2021-07-29_21h45.34.317,Simcolourproject_2stim_asymm_v5,2020.2.10,Linux x86_64,60,61025ae37ef11b136ea224fe,,,,,,,,,1365,18.19561768,-45.06350708,1,0,0,response3disk,,4,5.322265625,9.014556885,1,0,0,rectangle,5.322265625,9.014556885,1,0,0,5.322265625,9.014556885,1,0,0,0,150,150,139,1,,,,,,,,
,,,,,,,,,,,,,FF,,,,,,,,0.950435,,,,,,,,,,,,,,,,,,,,,,610356bcea0d0f2bbaefce1a,610366f90ab39767522922d3,2021-07-29_21h45.34.317,Simcolourproject_2stim_asymm_v5,2020.2.10,Linux x86_64,60,61025ae37ef11b136ea224fe,,,,,,,,,1574,91.32373047,-35.32467651,1,0,0,response3disk,,5,16.89978027,-5.413238525,1,0,0,rectangle,16.89978027,-5.413238525,1,0,0,16.89978027,-5.413238525,1,0,0,0,151,151,58,1,,,,,,,,
,,,,,,,,,,,,,FF,,,,,,,,1.01558,,,,,,,,,,,,,,,,,,,,,,610356bcea0d0f2bbaefce1a,610366f90ab39767522922d3,2021-07-29_21h45.34.317,Simcolourproject_2stim_asymm_v5,2020.2.10,Linux x86_64,60,61025ae37ef11b136ea224fe,,,,,,,,,3340,85.21655273,52.01278687,1,0,0,response1disk,,6,-0.582824707,3.458953857,1,0,0,rectangle,-0.582824707,3.458953857,1,0,0,-0.582824707,3.458953857,1,0,0,0,152,152,70,1,,,,,,,,
,,,,,,,,,,,,,FF,,,,,,,,1.31598,,,,,,,,,,,,,,,,,,,,,,610356bcea0d0f2bbaefce1a,610366f90ab39767522922d3,2021-07-29_21h45.34.317,Simcolourproject_2stim_asymm_v5,2020.2.10,Linux x86_64,60,61025ae37ef11b136ea224fe,,,,,,,,,3900,-80.4989624,-24.37957764,1,0,0,response5disk,,2,-11.30761719,-1.23260498,1,0,0,rectangle,-11.30761719,-1.23260498,1,0,0,-11.30761719,-1.23260498,1,0,0,0,153,153,111,1,,,,,,,,
,,,,,,,,,,,,,FF,,,,,,,,1.481945,,,,,,,,,,,,,,,,,,,,,,610356bcea0d0f2bbaefce1a,610366f90ab39767522922d3,2021-07-29_21h45.34.317,Simcolourproject_2stim_asymm_v5,2020.2.10,Linux x86_64,60,61025ae37ef11b136ea224fe,,,,,,,,,146,43.57611084,29.17199707,1,0,0,response1disk,,6,7.072021484,0.118347168,1,0,0,rectangle,7.072021484,0.118347168,1,0,0,7.072021484,0.118347168,1,0,0,0,154,154,92,1,,,,,,,,
,,,,,,,,,,,,,FF,,,,,,,,1.332975,,,,,,,,,,,,,,,,,,,,,,610356bcea0d0f2bbaefce1a,610366f90ab39767522922d3,2021-07-29_21h45.34.317,Simcolourproject_2stim_asymm_v5,2020.2.10,Linux x86_64,60,61025ae37ef11b136ea224fe,,,,,,,,,3943,-50.79815674,-68.53671265,1,0,0,response5disk,,3,10.75341797,0.956237793,1,0,0,rectangle,10.75341797,0.956237793,1,0,0,10.75341797,0.956237793,1,0,0,0,155,155,93,1,,,,,,,,
,,,,,,,,,,,,,FF,,,,,,,,1.566195,,,,,,,,,,,,,,,,,,,,,,610356bcea0d0f2bbaefce1a,610366f90ab39767522922d3,2021-07-29_21h45.34.317,Simcolourproject_2stim_asymm_v5,2020.2.10,Linux x86_64,60,61025ae37ef11b136ea224fe,,,,,,,,,997,-65.05505371,37.64456177,1,0,0,response7disk,,1,1.777404785,-4.4793396,1,0,0,rectangle,1.777404785,-4.4793396,1,0,0,1.777404785,-4.4793396,1,0,0,0,156,156,33,1,,,,,,,,
,,,,,,,,,,,,,FF,,,,,,,,0.849875,,,,,,,,,,,,,,,,,,,,,,610356bcea0d0f2bbaefce1a,610366f90ab39767522922d3,2021-07-29_21h45.34.317,Simcolourproject_2stim_asymm_v5,2020.2.10,Linux x86_64,60,61025ae37ef11b136ea224fe,,,,,,,,,3343,-73.16827393,34.61410522,1,0,0,response7disk,,1,-5.579772949,-5.862060547,1,0,0,rectangle,-5.579772949,-5.862060547,1,0,0,-5.579772949,-5.862060547,1,0,0,0,157,157,89,1,,,,,,,,
,,,,,,,,,,,,,FF,,,,,,,,1.64841,,,,,,,,,,,,,,,,,,,,,,610356bcea0d0f2bbaefce1a,610366f90ab39767522922d3,2021-07-29_21h45.34.317,Simcolourproject_2stim_asymm_v5,2020.2.10,Linux x86_64,60,61025ae37ef11b136ea224fe,,,,,,,,,867,55.90167236,-29.39794922,1,0,0,response3disk,,5,10.62359619,-4.282684326,1,0,0,rectangle,10.62359619,-4.282684326,1,0,0,10.62359619,-4.282684326,1,0,0,0,158,158,135,1,,,,,,,,
,,,,,,,,,,,,,FF,,,,,,,,1.08445,,,,,,,,,,,,,,,,,,,,,,610356bcea0d0f2bbaefce1a,610366f90ab39767522922d3,2021-07-29_21h45.34.317,Simcolourproject_2stim_asymm_v5,2020.2.10,Linux x86_64,60,61025ae37ef11b136ea224fe,,,,,,,,,846,70.52429199,59.50790405,1,0,0,response1disk,,6,-11.92810059,-3.196899414,1,0,0,rectangle,-11.92810059,-3.196899414,1,0,0,-11.92810059,-3.196899414,1,0,0,0,159,159,154,1,,,,,,,,
,,,,,,,,,,,,,FF,,,,,,,,1.265705,,,,,,,,,,,,,,,,,,,,,,610356bcea0d0f2bbaefce1a,610366f90ab39767522922d3,2021-07-29_21h45.34.317,Simcolourproject_2stim_asymm_v5,2020.2.10,Linux x86_64,60,61025ae37ef11b136ea224fe,,,,,,,,,4270,-42.19421387,-61.23876953,1,0,0,response5disk,,3,-3.47442627,-6.361480713,1,0,0,rectangle,-3.47442627,-6.361480713,1,0,0,-3.47442627,-6.361480713,1,0,0,1,0,160,134,1,,,,,,,,
,,,,,,,,,,,,,FF,,,,,,,,1.632495,,,,,,,,,,,,,,,,,,,,,,610356bcea0d0f2bbaefce1a,610366f90ab39767522922d3,2021-07-29_21h45.34.317,Simcolourproject_2stim_asymm_v5,2020.2.10,Linux x86_64,60,61025ae37ef11b136ea224fe,,,,,,,,,3640,20.74487305,-51.32315063,1,0,0,response3disk,,4,-15.30072021,0.654327393,1,0,0,rectangle,-15.30072021,0.654327393,1,0,0,-15.30072021,0.654327393,1,0,0,1,1,161,48,1,,,,,,,,
,,,,,,,,,,,,,FF,,,,,,,,1.0165,,,,,,,,,,,,,,,,,,,,,,610356bcea0d0f2bbaefce1a,610366f90ab39767522922d3,2021-07-29_21h45.34.317,Simcolourproject_2stim_asymm_v5,2020.2.10,Linux x86_64,60,61025ae37ef11b136ea224fe,,,,,,,,,3920,-44.3135376,-104.2229004,1,0,0,response5disk,,3,-5.964477539,0.720367432,1,0,0,rectangle,-5.964477539,0.720367432,1,0,0,-5.964477539,0.720367432,1,0,0,1,2,162,58,1,,,,,,,,
,,,,,,,,,,,,,FF,,,,,,,,1.46421,,,,,,,,,,,,,,,,,,,,,,610356bcea0d0f2bbaefce1a,610366f90ab39767522922d3,2021-07-29_21h45.34.317,Simcolourproject_2stim_asymm_v5,2020.2.10,Linux x86_64,60,61025ae37ef11b136ea224fe,,,,,,,,,3236,36.03460693,-55.81884766,1,0,0,response3disk,,4,-0.416625977,-1.192687988,1,0,0,rectangle,-0.416625977,-1.192687988,1,0,0,-0.416625977,-1.192687988,1,0,0,1,3,163,17,1,,,,,,,,
,,,,,,,,,,,,,FF,,,,,,,,1.481,,,,,,,,,,,,,,,,,,,,,,610356bcea0d0f2bbaefce1a,610366f90ab39767522922d3,2021-07-29_21h45.34.317,Simcolourproject_2stim_asymm_v5,2020.2.10,Linux x86_64,60,61025ae37ef11b136ea224fe,,,,,,,,,607,-27.54742432,-79.5090332,1,0,0,response5disk,,3,-8.263122559,5.579193115,1,0,0,rectangle,-46.4229126,70.67254639,1,0,0,-2.381774902,-3.195373535,1,0,0,1,4,164,108,1,,response7disk_3,TRUE,0,0,"[191,37,242,195,12,191,42,207,45,84,199,165,35,99,228,72,202,105,256,208]",2.681475,rectangle
,,,,,,,,,,,,,FF,,,,,,,,1.03265,,,,,,,,,,,,,,,,,,,,,,610356bcea0d0f2bbaefce1a,610366f90ab39767522922d3,2021-07-29_21h45.34.317,Simcolourproject_2stim_asymm_v5,2020.2.10,Linux x86_64,60,61025ae37ef11b136ea224fe,,,,,,,,,203,70.81939697,-83.18838501,1,0,0,response3disk,,4,-13.00384521,11.44061279,1,0,0,rectangle,-13.00384521,11.44061279,1,0,0,-13.00384521,11.44061279,1,0,0,1,5,165,145,1,,,,,,,,
,,,,,,,,,,,,,FF,,,,,,,,2.315125,,,,,,,,,,,,,,,,,,,,,,610356bcea0d0f2bbaefce1a,610366f90ab39767522922d3,2021-07-29_21h45.34.317,Simcolourproject_2stim_asymm_v5,2020.2.10,Linux x86_64,60,61025ae37ef11b136ea224fe,,,,,,,,,1641,66.03955078,46.52307129,1,0,0,response1disk,,6,-3.145996094,-6.069824219,1,0,0,rectangle,-3.145996094,-6.069824219,1,0,0,-3.145996094,-6.069824219,1,0,0,1,6,166,10,1,,,,,,,,
,,,,,,,,,,,,,FF,,,,,,,,2.34951,,,,,,,,,,,,,,,,,,,,,,610356bcea0d0f2bbaefce1a,610366f90ab39767522922d3,2021-07-29_21h45.34.317,Simcolourproject_2stim_asymm_v5,2020.2.10,Linux x86_64,60,61025ae37ef11b136ea224fe,,,,,,,,,1221,-61.54333496,-73.09375,1,0,0,response5disk,,3,-4.937866211,-3.328094482,1,0,0,rectangle,-4.937866211,-3.328094482,1,0,0,-4.937866211,-3.328094482,1,0,0,1,7,167,123,1,,,,,,,,
,,,,,,,,,,,,,FF,,,,,,,,0.88297,,,,,,,,,,,,,,,,,,,,,,610356bcea0d0f2bbaefce1a,610366f90ab39767522922d3,2021-07-29_21h45.34.317,Simcolourproject_2stim_asymm_v5,2020.2.10,Linux x86_64,60,61025ae37ef11b136ea224fe,,,,,,,,,3308,76.41497803,-27.08703613,1,0,0,response3disk,,5,-3.329650879,-5.992431641,1,0,0,rectangle,-3.329650879,-5.992431641,1,0,0,-3.329650879,-5.992431641,1,0,0,1,8,168,84,1,,,,,,,,
,,,,,,,,,,,,,FF,,,,,,,,0.93293,,,,,,,,,,,,,,,,,,,,,,610356bcea0d0f2bbaefce1a,610366f90ab39767522922d3,2021-07-29_21h45.34.317,Simcolourproject_2stim_asymm_v5,2020.2.10,Linux x86_64,60,61025ae37ef11b136ea224fe,,,,,,,,,3774,34.31976318,-67.87832642,1,0,0,response3disk,,4,6.615905762,-6.33404541,1,0,0,rectangle,6.615905762,-6.33404541,1,0,0,6.615905762,-6.33404541,1,0,0,1,9,169,138,1,,,,,,,,
,,,,,,,,,,,,,FF,,,,,,,,0.882945,,,,,,,,,,,,,,,,,,,,,,610356bcea0d0f2bbaefce1a,610366f90ab39767522922d3,2021-07-29_21h45.34.317,Simcolourproject_2stim_asymm_v5,2020.2.10,Linux x86_64,60,61025ae37ef11b136ea224fe,,,,,,,,,3468,-31.60137939,67.70028687,1,0,0,response7disk,,0,7.921447754,-8.326263428,1,0,0,rectangle,7.921447754,-8.326263428,1,0,0,7.921447754,-8.326263428,1,0,0,1,10,170,103,1,,,,,,,,
,,,,,,,,,,,,,FF,,,,,,,,1.01504,,,,,,,,,,,,,,,,,,,,,,610356bcea0d0f2bbaefce1a,610366f90ab39767522922d3,2021-07-29_21h45.34.317,Simcolourproject_2stim_asymm_v5,2020.2.10,Linux x86_64,60,61025ae37ef11b136ea224fe,,,,,,,,,345,-60.90570068,-103.8293762,1,0,0,response5disk,,3,2.742919922,-3.429748535,1,0,0,rectangle,2.742919922,-3.429748535,1,0,0,2.742919922,-3.429748535,1,0,0,1,11,171,126,1,,,,,,,,
,,,,,,,,,,,,,FF,,,,,,,,0.832875,,,,,,,,,,,,,,,,,,,,,,610356bcea0d0f2bbaefce1a,610366f90ab39767522922d3,2021-07-29_21h45.34.317,Simcolourproject_2stim_asymm_v5,2020.2.10,Linux x86_64,60,61025ae37ef11b136ea224fe,,,,,,,,,2169,53.30377197,-31.48297119,1,0,0,response3disk,,5,-15.54882813,-8.086639404,1,0,0,rectangle,-15.54882813,-8.086639404,1,0,0,-15.54882813,-8.086639404,1,0,0,1,12,172,158,1,,,,,,,,
,,,,,,,,,,,,,FF,,,,,,,,1.39827,,,,,,,,,,,,,,,,,,,,,,610356bcea0d0f2bbaefce1a,610366f90ab39767522922d3,2021-07-29_21h45.34.317,Simcolourproject_2stim_asymm_v5,2020.2.10,Linux x86_64,60,61025ae37ef11b136ea224fe,,,,,,,,,639,-71.76281738,-21.92526245,1,0,0,response5disk,,2,11.50720215,7.286376953,1,0,0,rectangle,11.50720215,7.286376953,1,0,0,11.50720215,7.286376953,1,0,0,1,13,173,21,1,,,,,,,,
,,,,,,,,,,,,,FF,,,,,,,,1.432575,,,,,,,,,,,,,,,,,,,,,,610356bcea0d0f2bbaefce1a,610366f90ab39767522922d3,2021-07-29_21h45.34.317,Simcolourproject_2stim_asymm_v5,2020.2.10,Linux x86_64,60,61025ae37ef11b136ea224fe,,,,,,,,,2826,44.42041016,-48.16809082,1,0,0,response3disk,,4,-2.04486084,1.323272705,1,0,0,rectangle,-2.04486084,1.323272705,1,0,0,-2.04486084,1.323272705,1,0,0,1,14,174,77,1,,,,,,,,
,,,,,,,,,,,,,FF,,,,,,,,1.133425,,,,,,,,,,,,,,,,,,,,,,610356bcea0d0f2bbaefce1a,610366f90ab39767522922d3,2021-07-29_21h45.34.317,Simcolourproject_2stim_asymm_v5,2020.2.10,Linux x86_64,60,61025ae37ef11b136ea224fe,,,,,,,,,3120,46.12506104,-27.30810547,1,0,0,response3disk,,5,10.25177002,-4.913330078,1,0,0,rectangle,10.25177002,-4.913330078,1,0,0,10.25177002,-4.913330078,1,0,0,1,15,175,50,1,,,,,,,,
,,,,,,,,,,,,,FF,,,,,,,,1.613965,,,,,,,,,,,,,,,,,,,,,,610356bcea0d0f2bbaefce1a,610366f90ab39767522922d3,2021-07-29_21h45.34.317,Simcolourproject_2stim_asymm_v5,2020.2.10,Linux x86_64,60,61025ae37ef11b136ea224fe,,,,,,,,,2967,43.29754639,77.21582031,1,0,0,response1disk,,7,18.9630127,10.28662109,1,0,0,rectangle,18.9630127,10.28662109,1,0,0,18.9630127,10.28662109,1,0,0,1,16,176,111,1,,,,,,,,
,,,,,,,,,,,,,FF,,,,,,,,1.997095,,,,,,,,,,,,,,,,,,,,,,610356bcea0d0f2bbaefce1a,610366f90ab39767522922d3,2021-07-29_21h45.34.317,Simcolourproject_2stim_asymm_v5,2020.2.10,Linux x86_64,60,61025ae37ef11b136ea224fe,,,,,,,,,2493,71.06347656,27.55749512,1,0,0,response1disk,,6,3.541320801,-4.857086182,1,0,0,rectangle,3.541320801,-4.857086182,1,0,0,3.541320801,-4.857086182,1,0,0,1,17,177,118,1,,,,,,,,
,,,,,,,,,,,,,FF,,,,,,,,0.766505,,,,,,,,,,,,,,,,,,,,,,610356bcea0d0f2bbaefce1a,610366f90ab39767522922d3,2021-07-29_21h45.34.317,Simcolourproject_2stim_asymm_v5,2020.2.10,Linux x86_64,60,61025ae37ef11b136ea224fe,,,,,,,,,1550,45.14630127,-20.70336914,1,0,0,response3disk,,5,-2.492797852,3.424530029,1,0,0,rectangle,-2.492797852,3.424530029,1,0,0,-2.492797852,3.424530029,1,0,0,1,18,178,3,1,,,,,,,,
,,,,,,,,,,,,,FF,,,,,,,,0.848955,,,,,,,,,,,,,,,,,,,,,,610356bcea0d0f2bbaefce1a,610366f90ab39767522922d3,2021-07-29_21h45.34.317,Simcolourproject_2stim_asymm_v5,2020.2.10,Linux x86_64,60,61025ae37ef11b136ea224fe,,,,,,,,,3783,-54.90533447,-94.41506958,1,0,0,response5disk,,3,-6.833251953,-8.60446167,1,0,0,rectangle,-6.833251953,-8.60446167,1,0,0,-6.833251953,-8.60446167,1,0,0,1,19,179,94,1,,,,,,,,
,,,,,,,,,,,,,FF,,,,,,,,1.54919,,,,,,,,,,,,,,,,,,,,,,610356bcea0d0f2bbaefce1a,610366f90ab39767522922d3,2021-07-29_21h45.34.317,Simcolourproject_2stim_asymm_v5,2020.2.10,Linux x86_64,60,61025ae37ef11b136ea224fe,,,,,,,,,1497,64.00091553,-22.07974243,1,0,0,response3disk,,5,16.15167236,6.945404053,1,0,0,rectangle,16.15167236,6.945404053,1,0,0,16.15167236,6.945404053,1,0,0,1,20,180,25,1,,,,,,,,
,,,,,,,,,,,,,FF,,,,,,,,0.931695,,,,,,,,,,,,,,,,,,,,,,610356bcea0d0f2bbaefce1a,610366f90ab39767522922d3,2021-07-29_21h45.34.317,Simcolourproject_2stim_asymm_v5,2020.2.10,Linux x86_64,60,61025ae37ef11b136ea224fe,,,,,,,,,159,29.78820801,-28.79663086,1,0,0,response3disk,,5,-0.288146973,-3.422454834,1,0,0,rectangle,-0.288146973,-3.422454834,1,0,0,-0.288146973,-3.422454834,1,0,0,1,21,181,116,1,,,,,,,,
,,,,,,,,,,,,,FF,,,,,,,,0.91667,,,,,,,,,,,,,,,,,,,,,,610356bcea0d0f2bbaefce1a,610366f90ab39767522922d3,2021-07-29_21h45.34.317,Simcolourproject_2stim_asymm_v5,2020.2.10,Linux x86_64,60,61025ae37ef11b136ea224fe,,,,,,,,,3818,-46.63562012,-53.70175171,1,0,0,response5disk,,3,-1.780151367,10.41159058,1,0,0,rectangle,-1.780151367,10.41159058,1,0,0,-1.780151367,10.41159058,1,0,0,1,22,182,141,1,,,,,,,,
,,,,,,,,,,,,,FF,,,,,,,,1.43238,,,,,,,,,,,,,,,,,,,,,,610356bcea0d0f2bbaefce1a,610366f90ab39767522922d3,2021-07-29_21h45.34.317,Simcolourproject_2stim_asymm_v5,2020.2.10,Linux x86_64,60,61025ae37ef11b136ea224fe,,,,,,,,,1897,-53.08660889,-72.60452271,1,0,0,response5disk,,3,4.00201416,0.557006836,1,0,0,rectangle,4.00201416,0.557006836,1,0,0,4.00201416,0.557006836,1,0,0,1,23,183,136,1,,,,,,,,
,,,,,,,,,,,,,FF,,,,,,,,5.44706,,,,,,,,,,,,,,,,,,,,,,610356bcea0d0f2bbaefce1a,610366f90ab39767522922d3,2021-07-29_21h45.34.317,Simcolourproject_2stim_asymm_v5,2020.2.10,Linux x86_64,60,61025ae37ef11b136ea224fe,,,,,,,,,4190,-71.69952393,-39.79580688,1,0,0,response5disk,,2,-11.82086182,-3.883666992,1,0,0,rectangle,-11.82086182,-3.883666992,1,0,0,-11.82086182,-3.883666992,1,0,0,1,24,184,105,1,,,,,,,,
,,,,,,,,,,,,,FF,,,,,,,,0.96993,,,,,,,,,,,,,,,,,,,,,,610356bcea0d0f2bbaefce1a,610366f90ab39767522922d3,2021-07-29_21h45.34.317,Simcolourproject_2stim_asymm_v5,2020.2.10,Linux x86_64,60,61025ae37ef11b136ea224fe,,,,,,,,,197,-35.77130127,-40.91708374,1,0,0,response5disk,,3,9.729125977,-2.405181885,1,0,0,rectangle,9.729125977,-2.405181885,1,0,0,9.729125977,-2.405181885,1,0,0,1,25,185,11,1,,,,,,,,
,,,,,,,,,,,,,FF,,,,,,,,1.715335,,,,,,,,,,,,,,,,,,,,,,610356bcea0d0f2bbaefce1a,610366f90ab39767522922d3,2021-07-29_21h45.34.317,Simcolourproject_2stim_asymm_v5,2020.2.10,Linux x86_64,60,61025ae37ef11b136ea224fe,,,,,,,,,1123,-36.66711426,-54.57598877,1,0,0,response5disk,,3,-3.594543457,11.24343872,1,0,0,rectangle,-3.594543457,11.24343872,1,0,0,-3.594543457,11.24343872,1,0,0,1,26,186,36,1,,,,,,,,
,,,,,,,,,,,,,FF,,,,,,,,1.069575,,,,,,,,,,,,,,,,,,,,,,610356bcea0d0f2bbaefce1a,610366f90ab39767522922d3,2021-07-29_21h45.34.317,Simcolourproject_2stim_asymm_v5,2020.2.10,Linux x86_64,60,61025ae37ef11b136ea224fe,,,,,,,,,4355,-28.94006348,-66.8637085,1,0,0,response5disk,,3,0.168579102,6.193115234,1,0,0,rectangle,0.168579102,6.193115234,1,0,0,0.168579102,6.193115234,1,0,0,1,27,187,52,1,,,,,,,,
,,,,,,,,,,,,,FF,,,,,,,,1.332195,,,,,,,,,,,,,,,,,,,,,,610356bcea0d0f2bbaefce1a,610366f90ab39767522922d3,2021-07-29_21h45.34.317,Simcolourproject_2stim_asymm_v5,2020.2.10,Linux x86_64,60,61025ae37ef11b136ea224fe,,,,,,,,,566,28.51092529,-28.29916382,1,0,0,response3disk,,5,5.65246582,10.36297607,1,0,0,rectangle,5.65246582,10.36297607,1,0,0,5.65246582,10.36297607,1,0,0,1,28,188,45,1,,,,,,,,
,,,,,,,,,,,,,FF,,,,,,,,3.463545,,,,,,,,,,,,,,,,,,,,,,610356bcea0d0f2bbaefce1a,610366f90ab39767522922d3,2021-07-29_21h45.34.317,Simcolourproject_2stim_asymm_v5,2020.2.10,Linux x86_64,60,61025ae37ef11b136ea224fe,,,,,,,,,3170,19.70385742,-47.68634033,1,0,0,response3disk,,4,-5.356384277,-4.038391113,1,0,0,rectangle,-5.356384277,-4.038391113,1,0,0,-5.356384277,-4.038391113,1,0,0,1,29,189,32,1,,,,,,,,
,,,,,,,,,,,,,FF,,,,,,,,0.71641,,,,,,,,,,,,,,,,,,,,,,610356bcea0d0f2bbaefce1a,610366f90ab39767522922d3,2021-07-29_21h45.34.317,Simcolourproject_2stim_asymm_v5,2020.2.10,Linux x86_64,60,61025ae37ef11b136ea224fe,,,,,,,,,3250,-29.5223999,-67.83972168,1,0,0,response5disk,,3,0.173828125,1.932556152,1,0,0,rectangle,-92.54602051,-52.90985107,1,0,0,-3.017578125,1.411895752,1,0,0,1,30,190,27,1,,response5disk_3,TRUE,2,2,"[191,37,242,195,12,191,42,207,45,84,199,165,35,99,228,72,202,105,256,208]",1.947365,rectangle
,,,,,,,,,,,,,FF,,,,,,,,2.01748,,,,,,,,,,,,,,,,,,,,,,610356bcea0d0f2bbaefce1a,610366f90ab39767522922d3,2021-07-29_21h45.34.317,Simcolourproject_2stim_asymm_v5,2020.2.10,Linux x86_64,60,61025ae37ef11b136ea224fe,,,,,,,,,74,-58.56921387,-81.9859314,1,0,0,response5disk,,3,14.18554688,7.82244873,1,0,0,rectangle,14.18554688,7.82244873,1,0,0,14.18554688,7.82244873,1,0,0,1,31,191,46,1,,,,,,,,
,,,,,,,,,,,,,FF,,,,,,,,0.879415,,,,,,,,,,,,,,,,,,,,,,610356bcea0d0f2bbaefce1a,610366f90ab39767522922d3,2021-07-29_21h45.34.317,Simcolourproject_2stim_asymm_v5,2020.2.10,Linux x86_64,60,61025ae37ef11b136ea224fe,,,,,,,,,2735,36.34375,-104.7642822,1,0,0,response3disk,,4,-24.07897949,-5.917205811,1,0,0,rectangle,-24.07897949,-5.917205811,1,0,0,-24.07897949,-5.917205811,1,0,0,1,32,192,101,1,,,,,,,,
,,,,,,,,,,,,,FF,,,,,,,,0.953105,,,,,,,,,,,,,,,,,,,,,,610356bcea0d0f2bbaefce1a,610366f90ab39767522922d3,2021-07-29_21h45.34.317,Simcolourproject_2stim_asymm_v5,2020.2.10,Linux x86_64,60,61025ae37ef11b136ea224fe,,,,,,,,,888,-70.1204834,-50.37554932,1,0,0,response5disk,,2,0.182312012,3.388092041,1,0,0,rectangle,0.182312012,3.388092041,1,0,0,0.182312012,3.388092041,1,0,0,1,33,193,140,1,,,,,,,,
,,,,,,,,,,,,,FF,,,,,,,,0.801055,,,,,,,,,,,,,,,,,,,,,,610356bcea0d0f2bbaefce1a,610366f90ab39767522922d3,2021-07-29_21h45.34.317,Simcolourproject_2stim_asymm_v5,2020.2.10,Linux x86_64,60,61025ae37ef11b136ea224fe,,,,,,,,,2058,-23.01641846,-75.00894165,1,0,0,response5disk,,3,-9.165283203,13.3034668,1,0,0,rectangle,74.52783203,32.94458008,1,0,0,-4.094604492,-5.621673584,1,0,0,1,34,194,148,1,,response1disk_3,TRUE,6,6,"[191,37,242,195,12,191,42,207,45,84,199,165,35,99,228,72,202,105,256,208]",1.80191,rectangle
,,,,,,,,,,,,,FF,,,,,,,,1.269355,,,,,,,,,,,,,,,,,,,,,,610356bcea0d0f2bbaefce1a,610366f90ab39767522922d3,2021-07-29_21h45.34.317,Simcolourproject_2stim_asymm_v5,2020.2.10,Linux x86_64,60,61025ae37ef11b136ea224fe,,,,,,,,,2492,-28.20404053,-88.54675293,1,0,0,response5disk,,3,7.514953613,8.776733398,1,0,0,rectangle,7.514953613,8.776733398,1,0,0,7.514953613,8.776733398,1,0,0,1,35,195,73,1,,,,,,,,
,,,,,,,,,,,,,FF,,,,,,,,1.23343,,,,,,,,,,,,,,,,,,,,,,610356bcea0d0f2bbaefce1a,610366f90ab39767522922d3,2021-07-29_21h45.34.317,Simcolourproject_2stim_asymm_v5,2020.2.10,Linux x86_64,60,61025ae37ef11b136ea224fe,,,,,,,,,204,24.52349854,-73.45880127,1,0,0,response3disk,,4,-10.19342041,-4.769378662,1,0,0,rectangle,-10.19342041,-4.769378662,1,0,0,-10.19342041,-4.769378662,1,0,0,1,36,196,8,1,,,,,,,,
,,,,,,,,,,,,,FF,,,,,,,,0.88266,,,,,,,,,,,,,,,,,,,,,,610356bcea0d0f2bbaefce1a,610366f90ab39767522922d3,2021-07-29_21h45.34.317,Simcolourproject_2stim_asymm_v5,2020.2.10,Linux x86_64,60,61025ae37ef11b136ea224fe,,,,,,,,,714,-33.29125977,-64.13653564,1,0,0,response5disk,,3,13.26104736,10.88192749,1,0,0,rectangle,13.26104736,10.88192749,1,0,0,13.26104736,10.88192749,1,0,0,1,37,197,34,1,,,,,,,,
,,,,,,,,,,,,,FF,,,,,,,,1.316475,,,,,,,,,,,,,,,,,,,,,,610356bcea0d0f2bbaefce1a,610366f90ab39767522922d3,2021-07-29_21h45.34.317,Simcolourproject_2stim_asymm_v5,2020.2.10,Linux x86_64,60,61025ae37ef11b136ea224fe,,,,,,,,,2739,71.72106934,23.4932251,1,0,0,response1disk,,6,16.20812988,3.805084229,1,0,0,rectangle,-95.7253418,-50.96520996,1,0,0,-10.26147461,-0.122009277,1,0,0,1,38,198,53,1,,response5disk_3,TRUE,2,2,"[191,37,242,195,12,191,42,207,45,84,199,165,35,99,228,72,202,105,256,208]",1.38113,rectangle
,,,,,,,,,,,,,FF,,,,,,,,1.283035,,,,,,,,,,,,,,,,,,,,,,610356bcea0d0f2bbaefce1a,610366f90ab39767522922d3,2021-07-29_21h45.34.317,Simcolourproject_2stim_asymm_v5,2020.2.10,Linux x86_64,60,61025ae37ef11b136ea224fe,,,,,,,,,3442,-50.19732666,-73.0831604,1,0,0,response5disk,,3,-1.840087891,-6.140808105,1,0,0,rectangle,-1.840087891,-6.140808105,1,0,0,-1.840087891,-6.140808105,1,0,0,1,39,199,86,1,,,,,,,,
,,,,,,,,,,,,,FF,,,,,,,,1.00061,,,,,,,,,,,,,,,,,,,,,,610356bcea0d0f2bbaefce1a,610366f90ab39767522922d3,2021-07-29_21h45.34.317,Simcolourproject_2stim_asymm_v5,2020.2.10,Linux x86_64,60,61025ae37ef11b136ea224fe,,,,,,,,,3323,55.1784668,84.02954102,1,0,0,response1disk,,7,2.722106934,-0.353057861,1,0,0,rectangle,2.722106934,-0.353057861,1,0,0,2.722106934,-0.353057861,1,0,0,1,40,200,62,1,,,,,,,,
,,,,,,,,,,,,,FF,,,,,,,,1.01564,,,,,,,,,,,,,,,,,,,,,,610356bcea0d0f2bbaefce1a,610366f90ab39767522922d3,2021-07-29_21h45.34.317,Simcolourproject_2stim_asymm_v5,2020.2.10,Linux x86_64,60,61025ae37ef11b136ea224fe,,,,,,,,,847,37.51550293,20.25598145,1,0,0,response1disk,,6,11.13983154,5.937408447,1,0,0,rectangle,-110.2080078,28.67663574,1,0,0,13.38116455,11.27108765,1,0,0,1,41,201,137,1,,response7disk_3,TRUE,1,1,"[191,37,242,195,12,191,42,207,45,84,199,165,35,99,228,72,202,105,256,208]",5.74696,rectangle
,,,,,,,,,,,,,FF,,,,,,,,2.050025,,,,,,,,,,,,,,,,,,,,,,610356bcea0d0f2bbaefce1a,610366f90ab39767522922d3,2021-07-29_21h45.34.317,Simcolourproject_2stim_asymm_v5,2020.2.10,Linux x86_64,60,61025ae37ef11b136ea224fe,,,,,,,,,2399,40.17779541,-53.17999268,1,0,0,response3disk,,4,-0.657714844,5.93069458,1,0,0,rectangle,-0.657714844,5.93069458,1,0,0,-0.657714844,5.93069458,1,0,0,1,42,202,0,1,,,,,,,,
,,,,,,,,,,,,,FF,,,,,,,,1.065285,,,,,,,,,,,,,,,,,,,,,,610356bcea0d0f2bbaefce1a,610366f90ab39767522922d3,2021-07-29_21h45.34.317,Simcolourproject_2stim_asymm_v5,2020.2.10,Linux x86_64,60,61025ae37ef11b136ea224fe,,,,,,,,,84,-32.42211914,-74.13320923,1,0,0,response5disk,,3,-8.53302002,-8.784606934,1,0,0,rectangle,-8.53302002,-8.784606934,1,0,0,-8.53302002,-8.784606934,1,0,0,1,43,203,85,1,,,,,,,,
,,,,,,,,,,,,,FF,,,,,,,,1.469855,,,,,,,,,,,,,,,,,,,,,,610356bcea0d0f2bbaefce1a,610366f90ab39767522922d3,2021-07-29_21h45.34.317,Simcolourproject_2stim_asymm_v5,2020.2.10,Linux x86_64,60,61025ae37ef11b136ea224fe,,,,,,,,,2028,-46.09375,-23.57266235,1,0,0,response5disk,,2,10.9354248,-6.212524414,1,0,0,rectangle,10.9354248,-6.212524414,1,0,0,10.9354248,-6.212524414,1,0,0,1,44,204,159,1,,,,,,,,
,,,,,,,,,,,,,FF,,,,,,,,1.415735,,,,,,,,,,,,,,,,,,,,,,610356bcea0d0f2bbaefce1a,610366f90ab39767522922d3,2021-07-29_21h45.34.317,Simcolourproject_2stim_asymm_v5,2020.2.10,Linux x86_64,60,61025ae37ef11b136ea224fe,,,,,,,,,4331,-24.91192627,-76.46875,1,0,0,response5disk,,3,20.41998291,11.17663574,1,0,0,rectangle,20.41998291,11.17663574,1,0,0,20.41998291,11.17663574,1,0,0,1,45,205,143,1,,,,,,,,
,,,,,,,,,,,,,FF,,,,,,,,1.58262,,,,,,,,,,,,,,,,,,,,,,610356bcea0d0f2bbaefce1a,610366f90ab39767522922d3,2021-07-29_21h45.34.317,Simcolourproject_2stim_asymm_v5,2020.2.10,Linux x86_64,60,61025ae37ef11b136ea224fe,,,,,,,,,2902,-48.9664917,-58.51800537,1,0,0,response5disk,,3,-7.698425293,-8.506072998,1,0,0,rectangle,30.43560791,-67.44155884,1,0,0,-9.111022949,-7.494018555,1,0,0,1,46,206,125,1,,response3disk_3,TRUE,4,4,"[191,37,242,195,12,191,42,207,45,84,199,165,35,99,228,72,202,105,256,208]",6.82878,rectangle
,,,,,,,,,,,,,FF,,,,,,,,1.334135,,,,,,,,,,,,,,,,,,,,,,610356bcea0d0f2bbaefce1a,610366f90ab39767522922d3,2021-07-29_21h45.34.317,Simcolourproject_2stim_asymm_v5,2020.2.10,Linux x86_64,60,61025ae37ef11b136ea224fe,,,,,,,,,2857,48.11407471,-31.77474976,1,0,0,response3disk,,5,-18.1295166,6.493774414,1,0,0,rectangle,32.47875977,-77.65274048,1,0,0,-3.678405762,-0.989318848,1,0,0,1,47,207,131,1,,response3disk_3,TRUE,4,4,"[191,37,242,195,12,191,42,207,45,84,199,165,35,99,228,72,202,105,256,208]",1.685635,rectangle
,,,,,,,,,,,,,FF,,,,,,,,0.781525,,,,,,,,,,,,,,,,,,,,,,610356bcea0d0f2bbaefce1a,610366f90ab39767522922d3,2021-07-29_21h45.34.317,Simcolourproject_2stim_asymm_v5,2020.2.10,Linux x86_64,60,61025ae37ef11b136ea224fe,,,,,,,,,1103,60.69848633,38.10101318,1,0,0,response1disk,,6,26.871521,-0.328338623,1,0,0,rectangle,26.871521,-0.328338623,1,0,0,26.871521,-0.328338623,1,0,0,1,48,208,113,1,,,,,,,,
,,,,,,,,,,,,,FF,,,,,,,,0.698885,,,,,,,,,,,,,,,,,,,,,,610356bcea0d0f2bbaefce1a,610366f90ab39767522922d3,2021-07-29_21h45.34.317,Simcolourproject_2stim_asymm_v5,2020.2.10,Linux x86_64,60,61025ae37ef11b136ea224fe,,,,,,,,,572,27.46936035,-43.56832886,1,0,0,response3disk,,4,7.712524414,-2.433898926,1,0,0,rectangle,7.712524414,-2.433898926,1,0,0,7.712524414,-2.433898926,1,0,0,1,49,209,76,1,,,,,,,,
,,,,,,,,,,,,,FF,,,,,,,,1.04951,,,,,,,,,,,,,,,,,,,,,,610356bcea0d0f2bbaefce1a,610366f90ab39767522922d3,2021-07-29_21h45.34.317,Simcolourproject_2stim_asymm_v5,2020.2.10,Linux x86_64,60,61025ae37ef11b136ea224fe,,,,,,,,,4002,-22.25018311,-46.72991943,1,0,0,response5disk,,3,-8.696777344,-3.439758301,1,0,0,rectangle,-8.696777344,-3.439758301,1,0,0,-8.696777344,-3.439758301,1,0,0,1,50,210,37,1,,,,,,,,
,,,,,,,,,,,,,FF,,,,,,,,0.80473,,,,,,,,,,,,,,,,,,,,,,610356bcea0d0f2bbaefce1a,610366f90ab39767522922d3,2021-07-29_21h45.34.317,Simcolourproject_2stim_asymm_v5,2020.2.10,Linux x86_64,60,61025ae37ef11b136ea224fe,,,,,,,,,3461,54.35748291,-34.29129028,1,0,0,response3disk,,5,-11.18200684,-7.056182861,1,0,0,rectangle,-11.18200684,-7.056182861,1,0,0,-11.18200684,-7.056182861,1,0,0,1,51,211,2,1,,,,,,,,
,,,,,,,,,,,,,FF,,,,,,,,0.83323,,,,,,,,,,,,,,,,,,,,,,610356bcea0d0f2bbaefce1a,610366f90ab39767522922d3,2021-07-29_21h45.34.317,Simcolourproject_2stim_asymm_v5,2020.2.10,Linux x86_64,60,61025ae37ef11b136ea224fe,,,,,,,,,548,-28.92218018,-41.16473389,1,0,0,response5disk,,3,7.786071777,0.142974854,1,0,0,rectangle,7.786071777,0.142974854,1,0,0,7.786071777,0.142974854,1,0,0,1,52,212,157,1,,,,,,,,
,,,,,,,,,,,,,FF,,,,,,,,1.515355,,,,,,,,,,,,,,,,,,,,,,610356bcea0d0f2bbaefce1a,610366f90ab39767522922d3,2021-07-29_21h45.34.317,Simcolourproject_2stim_asymm_v5,2020.2.10,Linux x86_64,60,61025ae37ef11b136ea224fe,,,,,,,,,3436,-77.6149292,-41.40426636,1,0,0,response5disk,,2,-19.16790771,-11.93109131,1,0,0,rectangle,-19.16790771,-11.93109131,1,0,0,-19.16790771,-11.93109131,1,0,0,1,53,213,80,1,,,,,,,,
,,,,,,,,,,,,,FF,,,,,,,,1.3165,,,,,,,,,,,,,,,,,,,,,,610356bcea0d0f2bbaefce1a,610366f90ab39767522922d3,2021-07-29_21h45.34.317,Simcolourproject_2stim_asymm_v5,2020.2.10,Linux x86_64,60,61025ae37ef11b136ea224fe,,,,,,,,,3809,29.70166016,-59.15182495,1,0,0,response3disk,,4,-1.965087891,-0.811462402,1,0,0,rectangle,-1.965087891,-0.811462402,1,0,0,-1.965087891,-0.811462402,1,0,0,1,54,214,63,1,,,,,,,,
,,,,,,,,,,,,,FF,,,,,,,,1.1494,,,,,,,,,,,,,,,,,,,,,,610356bcea0d0f2bbaefce1a,610366f90ab39767522922d3,2021-07-29_21h45.34.317,Simcolourproject_2stim_asymm_v5,2020.2.10,Linux x86_64,60,61025ae37ef11b136ea224fe,,,,,,,,,1283,-29.75390625,-38.59011841,1,0,0,response5disk,,3,-1.260253906,-4.847717285,1,0,0,rectangle,-1.260253906,-4.847717285,1,0,0,-1.260253906,-4.847717285,1,0,0,1,55,215,28,1,,,,,,,,
,,,,,,,,,,,,,FF,,,,,,,,1.13386,,,,,,,,,,,,,,,,,,,,,,610356bcea0d0f2bbaefce1a,610366f90ab39767522922d3,2021-07-29_21h45.34.317,Simcolourproject_2stim_asymm_v5,2020.2.10,Linux x86_64,60,61025ae37ef11b136ea224fe,,,,,,,,,3521,-39.73095703,-54.93585205,1,0,0,response5disk,,3,13.83221436,3.749755859,1,0,0,rectangle,13.83221436,3.749755859,1,0,0,13.83221436,3.749755859,1,0,0,1,56,216,12,1,,,,,,,,
,,,,,,,,,,,,,FF,,,,,,,,1.865825,,,,,,,,,,,,,,,,,,,,,,610356bcea0d0f2bbaefce1a,610366f90ab39767522922d3,2021-07-29_21h45.34.317,Simcolourproject_2stim_asymm_v5,2020.2.10,Linux x86_64,60,61025ae37ef11b136ea224fe,,,,,,,,,577,-53.8605957,-89.12176514,1,0,0,response5disk,,3,6.711486816,-13.24801636,1,0,0,rectangle,6.711486816,-13.24801636,1,0,0,6.711486816,-13.24801636,1,0,0,1,57,217,102,1,,,,,,,,
,,,,,,,,,,,,,FF,,,,,,,,1.0351,,,,,,,,,,,,,,,,,,,,,,610356bcea0d0f2bbaefce1a,610366f90ab39767522922d3,2021-07-29_21h45.34.317,Simcolourproject_2stim_asymm_v5,2020.2.10,Linux x86_64,60,61025ae37ef11b136ea224fe,,,,,,,,,814,-36.38128662,-47.2131958,1,0,0,response5disk,,3,2.87902832,-5.84185791,1,0,0,rectangle,2.87902832,-5.84185791,1,0,0,2.87902832,-5.84185791,1,0,0,1,58,218,14,1,,,,,,,,
,,,,,,,,,,,,,FF,,,,,,,,1.23242,,,,,,,,,,,,,,,,,,,,,,610356bcea0d0f2bbaefce1a,610366f90ab39767522922d3,2021-07-29_21h45.34.317,Simcolourproject_2stim_asymm_v5,2020.2.10,Linux x86_64,60,61025ae37ef11b136ea224fe,,,,,,,,,627,51.33740234,-30.52563477,1,0,0,response3disk,,5,11.28747559,-10.27059937,1,0,0,rectangle,11.28747559,-10.27059937,1,0,0,11.28747559,-10.27059937,1,0,0,1,59,219,1,1,,,,,,,,
,,,,,,,,,,,,,FF,,,,,,,,1.603235,,,,,,,,,,,,,,,,,,,,,,610356bcea0d0f2bbaefce1a,610366f90ab39767522922d3,2021-07-29_21h45.34.317,Simcolourproject_2stim_asymm_v5,2020.2.10,Linux x86_64,60,61025ae37ef11b136ea224fe,,,,,,,,,251,53.89434814,27.57611084,1,0,0,response1disk,,6,-8.686401367,-6.205993652,1,0,0,rectangle,-8.686401367,-6.205993652,1,0,0,-8.686401367,-6.205993652,1,0,0,1,60,220,95,1,,,,,,,,
,,,,,,,,,,,,,FF,,,,,,,,1.335945,,,,,,,,,,,,,,,,,,,,,,610356bcea0d0f2bbaefce1a,610366f90ab39767522922d3,2021-07-29_21h45.34.317,Simcolourproject_2stim_asymm_v5,2020.2.10,Linux x86_64,60,61025ae37ef11b136ea224fe,,,,,,,,,489,89.61584473,-33.63235474,1,0,0,response3disk,,5,-13.88452148,-1.441894531,1,0,0,rectangle,-13.88452148,-1.441894531,1,0,0,-13.88452148,-1.441894531,1,0,0,1,61,221,135,1,,,,,,,,
,,,,,,,,,,,,,FF,,,,,,,,1.56455,,,,,,,,,,,,,,,,,,,,,,610356bcea0d0f2bbaefce1a,610366f90ab39767522922d3,2021-07-29_21h45.34.317,Simcolourproject_2stim_asymm_v5,2020.2.10,Linux x86_64,60,61025ae37ef11b136ea224fe,,,,,,,,,1285,57.41503906,-22.74664307,1,0,0,response3disk,,5,0.207214355,-7.734802246,1,0,0,rectangle,0.207214355,-7.734802246,1,0,0,0.207214355,-7.734802246,1,0,0,1,62,222,33,1,,,,,,,,
,,,,,,,,,,,,,FF,,,,,,,,1.08264,,,,,,,,,,,,,,,,,,,,,,610356bcea0d0f2bbaefce1a,610366f90ab39767522922d3,2021-07-29_21h45.34.317,Simcolourproject_2stim_asymm_v5,2020.2.10,Linux x86_64,60,61025ae37ef11b136ea224fe,,,,,,,,,1820,-23.7019043,-61.16845703,1,0,0,response5disk,,3,5.435424805,-10.09140015,1,0,0,rectangle,5.435424805,-10.09140015,1,0,0,5.435424805,-10.09140015,1,0,0,1,63,223,30,1,,,,,,,,
,,,,,,,,,,,,,FF,,,,,,,,0.88274,,,,,,,,,,,,,,,,,,,,,,610356bcea0d0f2bbaefce1a,610366f90ab39767522922d3,2021-07-29_21h45.34.317,Simcolourproject_2stim_asymm_v5,2020.2.10,Linux x86_64,60,61025ae37ef11b136ea224fe,,,,,,,,,4239,29.88433838,-40.79351807,1,0,0,response3disk,,4,-14.75476074,3.734649658,1,0,0,rectangle,-14.75476074,3.734649658,1,0,0,-14.75476074,3.734649658,1,0,0,1,64,224,29,1,,,,,,,,
,,,,,,,,,,,,,FF,,,,,,,,1.448725,,,,,,,,,,,,,,,,,,,,,,610356bcea0d0f2bbaefce1a,610366f90ab39767522922d3,2021-07-29_21h45.34.317,Simcolourproject_2stim_asymm_v5,2020.2.10,Linux x86_64,60,61025ae37ef11b136ea224fe,,,,,,,,,2705,93.54718018,-47.7953186,1,0,0,response3disk,,5,14.40258789,0.427337646,1,0,0,rectangle,14.40258789,0.427337646,1,0,0,14.40258789,0.427337646,1,0,0,1,65,225,133,1,,,,,,,,
,,,,,,,,,,,,,FF,,,,,,,,1.132755,,,,,,,,,,,,,,,,,,,,,,610356bcea0d0f2bbaefce1a,610366f90ab39767522922d3,2021-07-29_21h45.34.317,Simcolourproject_2stim_asymm_v5,2020.2.10,Linux x86_64,60,61025ae37ef11b136ea224fe,,,,,,,,,148,18.96453857,-28.47775269,1,0,0,response3disk,,4,6.877075195,-9.594604492,1,0,0,rectangle,6.877075195,-9.594604492,1,0,0,6.877075195,-9.594604492,1,0,0,1,66,226,115,1,,,,,,,,
,,,,,,,,,,,,,FF,,,,,,,,0.931605,,,,,,,,,,,,,,,,,,,,,,610356bcea0d0f2bbaefce1a,610366f90ab39767522922d3,2021-07-29_21h45.34.317,Simcolourproject_2stim_asymm_v5,2020.2.10,Linux x86_64,60,61025ae37ef11b136ea224fe,,,,,,,,,15,-67.8548584,-115.6907959,1,0,0,response5disk,,3,-7.647094727,-3.357818604,1,0,0,rectangle,-35.56994629,60.28546143,1,0,0,2.535766602,-2.065551758,1,0,0,1,67,227,114,1,,response7disk_3,TRUE,0,0,"[191,37,242,195,12,191,42,207,45,84,199,165,35,99,228,72,202,105,256,208]",2.649295,rectangle
,,,,,,,,,,,,,FF,,,,,,,,1.499,,,,,,,,,,,,,,,,,,,,,,610356bcea0d0f2bbaefce1a,610366f90ab39767522922d3,2021-07-29_21h45.34.317,Simcolourproject_2stim_asymm_v5,2020.2.10,Linux x86_64,60,61025ae37ef11b136ea224fe,,,,,,,,,1946,29.27655029,-43.478302,1,0,0,response3disk,,4,6.334716797,13.8956604,1,0,0,rectangle,6.334716797,13.8956604,1,0,0,6.334716797,13.8956604,1,0,0,1,68,228,124,1,,,,,,,,
,,,,,,,,,,,,,FF,,,,,,,,1.04837,,,,,,,,,,,,,,,,,,,,,,610356bcea0d0f2bbaefce1a,610366f90ab39767522922d3,2021-07-29_21h45.34.317,Simcolourproject_2stim_asymm_v5,2020.2.10,Linux x86_64,60,61025ae37ef11b136ea224fe,,,,,,,,,4171,-41.67364502,-52.01049805,1,0,0,response5disk,,3,21.70916748,11.9642334,1,0,0,rectangle,21.70916748,11.9642334,1,0,0,21.70916748,11.9642334,1,0,0,1,69,229,31,1,,,,,,,,
,,,,,,,,,,,,,FF,,,,,,,,0.883315,,,,,,,,,,,,,,,,,,,,,,610356bcea0d0f2bbaefce1a,610366f90ab39767522922d3,2021-07-29_21h45.34.317,Simcolourproject_2stim_asymm_v5,2020.2.10,Linux x86_64,60,61025ae37ef11b136ea224fe,,,,,,,,,1313,-51.49920654,-34.55734253,1,0,0,response5disk,,2,-8.444824219,-7.914611816,1,0,0,rectangle,-8.444824219,-7.914611816,1,0,0,-8.444824219,-7.914611816,1,0,0,1,70,230,22,1,,,,,,,,
,,,,,,,,,,,,,FF,,,,,,,,1.549645,,,,,,,,,,,,,,,,,,,,,,610356bcea0d0f2bbaefce1a,610366f90ab39767522922d3,2021-07-29_21h45.34.317,Simcolourproject_2stim_asymm_v5,2020.2.10,Linux x86_64,60,61025ae37ef11b136ea224fe,,,,,,,,,2142,65.77154541,-73.2557373,1,0,0,response3disk,,4,12.47753906,-7.396362305,1,0,0,rectangle,12.47753906,-7.396362305,1,0,0,12.47753906,-7.396362305,1,0,0,1,71,231,89,1,,,,,,,,
,,,,,,,,,,,,,FF,,,,,,,,4.014215,,,,,,,,,,,,,,,,,,,,,,610356bcea0d0f2bbaefce1a,610366f90ab39767522922d3,2021-07-29_21h45.34.317,Simcolourproject_2stim_asymm_v5,2020.2.10,Linux x86_64,60,61025ae37ef11b136ea224fe,,,,,,,,,1412,31.01934814,-96.43035889,1,0,0,response3disk,,4,-12.10534668,-0.080230713,1,0,0,rectangle,-12.10534668,-0.080230713,1,0,0,-12.10534668,-0.080230713,1,0,0,1,72,232,23,1,,,,,,,,
,,,,,,,,,,,,,FF,,,,,,,,0.79996,,,,,,,,,,,,,,,,,,,,,,610356bcea0d0f2bbaefce1a,610366f90ab39767522922d3,2021-07-29_21h45.34.317,Simcolourproject_2stim_asymm_v5,2020.2.10,Linux x86_64,60,61025ae37ef11b136ea224fe,,,,,,,,,2135,70.02416992,-30.74990845,1,0,0,response3disk,,5,-1.478637695,10.8901062,1,0,0,rectangle,-1.478637695,10.8901062,1,0,0,-1.478637695,10.8901062,1,0,0,1,73,233,130,1,,,,,,,,
,,,,,,,,,,,,,FF,,,,,,,,0.58188,,,,,,,,,,,,,,,,,,,,,,610356bcea0d0f2bbaefce1a,610366f90ab39767522922d3,2021-07-29_21h45.34.317,Simcolourproject_2stim_asymm_v5,2020.2.10,Linux x86_64,60,61025ae37ef11b136ea224fe,,,,,,,,,2633,80.57531738,27.84487915,1,0,0,response1disk,,6,7.966674805,-1.782318115,1,0,0,rectangle,7.966674805,-1.782318115,1,0,0,7.966674805,-1.782318115,1,0,0,1,74,234,39,1,,,,,,,,
,,,,,,,,,,,,,FF,,,,,,,,1.21481,,,,,,,,,,,,,,,,,,,,,,610356bcea0d0f2bbaefce1a,610366f90ab39767522922d3,2021-07-29_21h45.34.317,Simcolourproject_2stim_asymm_v5,2020.2.10,Linux x86_64,60,61025ae37ef11b136ea224fe,,,,,,,,,3305,-64.15997314,-42.39257813,1,0,0,response5disk,,2,-12.18304443,-9.197265625,1,0,0,rectangle,-12.18304443,-9.197265625,1,0,0,-12.18304443,-9.197265625,1,0,0,1,75,235,54,1,,,,,,,,
,,,,,,,,,,,,,FF,,,,,,,,1.149785,,,,,,,,,,,,,,,,,,,,,,610356bcea0d0f2bbaefce1a,610366f90ab39767522922d3,2021-07-29_21h45.34.317,Simcolourproject_2stim_asymm_v5,2020.2.10,Linux x86_64,60,61025ae37ef11b136ea224fe,,,,,,,,,4141,-44.27380371,-65.23669434,1,0,0,response5disk,,3,19.1105957,7.636962891,1,0,0,rectangle,19.1105957,7.636962891,1,0,0,19.1105957,7.636962891,1,0,0,1,76,236,117,1,,,,,,,,
