key_resp.keys,key_resp.rt,key_resp_14.keys,key_resp_14.rt,key_resp_15.keys,key_resp_15.rt,key_resp_17.keys,key_resp_17.rt,key_resp_9.keys,key_resp_9.rt,key_resp_10.keys,key_resp_10.rt,practice_comparison,Ecc,mouse_5.x,mouse_5.y,mouse_5.leftButton,mouse_5.midButton,mouse_5.rightButton,mouse_5.clicked_name,pracsimilarity,response_time,mouse_10.x,mouse_10.y,mouse_10.leftButton,mouse_10.midButton,mouse_10.rightButton,mouse_10.clicked_name,mouse_7.x,mouse_7.y,mouse_7.leftButton,mouse_7.midButton,mouse_7.rightButton,mouse_6.x,mouse_6.y,mouse_6.leftButton,mouse_6.midButton,mouse_6.rightButton,duringprac.thisRepN,duringprac.thisTrialN,duringprac.thisN,duringprac.thisIndex,duringprac.ran,participant,session,date,expName,psychopyVersion,OS,frameRate,study_id,mouse_7.clicked_name,catchpracsimilarity,catch_response_time,catchnumberprac,catchtrialorderprac,mouse_6.clicked_name,key_resp_22.keys,key_resp_22.rt,realcomparison,mouse.x,mouse.y,mouse.leftButton,mouse.midButton,mouse.rightButton,mouse.clicked_name,Colour2,similarity,mouse_2.x,mouse_2.y,mouse_2.leftButton,mouse_2.midButton,mouse_2.rightButton,mouse_2.clicked_name,mouse_3.x,mouse_3.y,mouse_3.leftButton,mouse_3.midButton,mouse_3.rightButton,mouse_11.x,mouse_11.y,mouse_11.leftButton,mouse_11.midButton,mouse_11.rightButton,trials_2.thisRepN,trials_2.thisTrialN,trials_2.thisN,trials_2.thisIndex,trials_2.ran,Colour1,mouse_3.clicked_name,catchornah,catchsimilarity,catchnumber,catchtrialorder,catchRT,mouse_11.clicked_name
space,4.0895,space,20.7973,space,14.543,space,7.1001,space,2.0368,space,5.4082,160,FF,59.60845947,22.39013672,1,0,0,response1disk_5,6,13.934,3.110351563,3.047637939,1,0,0,rectangle_8,3.110351563,3.047637939,1,0,0,3.110351563,3.047637939,1,0,0,0,0,0,5,1,61030e69dd2c21915339e898,610369d6f1151bccffdc3de9,2021-07-29_22h54.47.254,Simcolourproject_2stim_asymm_v5,2020.2.10,MacIntel,60,61025ae37ef11b136ea224fe,,,,,,,,,,,,,,,,,,,,,,,,,,,,,,,,,,,,,,,,,,,,,,
,,,,,,,,,,,,10,PF,27.62579346,-55.26916504,1,0,0,response3disk_5,4,5.9133,-3.577453613,6.359680176,1,0,0,rectangle_8,-18.05090332,58.6875,1,0,0,-4.527587891,-5.186187744,1,0,0,0,1,1,6,1,61030e69dd2c21915339e898,610369d6f1151bccffdc3de9,2021-07-29_22h54.47.254,Simcolourproject_2stim_asymm_v5,2020.2.10,MacIntel,60,61025ae37ef11b136ea224fe,response7disk_7,0,3.1948,0,"[2,5]",rectangle_4,,,,,,,,,,,,,,,,,,,,,,,,,,,,,,,,,,,,,,,,
,,,,,,,,,,,,69,FF,56.24499512,-27.15466309,1,0,0,response3disk_5,5,5.0326,13.77905273,-2.58972168,1,0,0,rectangle_8,13.77905273,-2.58972168,1,0,0,13.77905273,-2.58972168,1,0,0,0,2,2,0,1,61030e69dd2c21915339e898,610369d6f1151bccffdc3de9,2021-07-29_22h54.47.254,Simcolourproject_2stim_asymm_v5,2020.2.10,MacIntel,60,61025ae37ef11b136ea224fe,,,,,,,,,,,,,,,,,,,,,,,,,,,,,,,,,,,,,,,,,,,,,,
,,,,,,,,,,,,119,PF,30.35632324,27.31280518,1,0,0,response1disk_5,6,2.7236,0.718261719,1.10736084,1,0,0,rectangle_8,0.718261719,1.10736084,1,0,0,0.718261719,1.10736084,1,0,0,0,3,3,1,1,61030e69dd2c21915339e898,610369d6f1151bccffdc3de9,2021-07-29_22h54.47.254,Simcolourproject_2stim_asymm_v5,2020.2.10,MacIntel,60,61025ae37ef11b136ea224fe,,,,,,,,,,,,,,,,,,,,,,,,,,,,,,,,,,,,,,,,,,,,,,
,,,,,,,,,,,,137,PF,-35.77374268,-19.55337524,1,0,0,response5disk_5,2,4.4149,-11.81939697,0.352111816,1,0,0,rectangle_8,-27.79858398,54.72161865,1,0,0,-8.694702148,1.002502441,1,0,0,0,4,4,2,1,61030e69dd2c21915339e898,610369d6f1151bccffdc3de9,2021-07-29_22h54.47.254,Simcolourproject_2stim_asymm_v5,2020.2.10,MacIntel,60,61025ae37ef11b136ea224fe,response7disk_7,0,2.2685,0,"[2,5]",rectangle_4,,,,,,,,,,,,,,,,,,,,,,,,,,,,,,,,,,,,,,,,
,,,,,,,,,,,,5,PF,58.03430176,-20.46118164,1,0,0,response3disk_5,5,6.2547,-6.755004883,-0.152923584,1,0,0,rectangle_8,-6.755004883,-0.152923584,1,0,0,-6.755004883,-0.152923584,1,0,0,0,5,5,4,1,61030e69dd2c21915339e898,610369d6f1151bccffdc3de9,2021-07-29_22h54.47.254,Simcolourproject_2stim_asymm_v5,2020.2.10,MacIntel,60,61025ae37ef11b136ea224fe,,,,,,,,,,,,,,,,,,,,,,,,,,,,,,,,,,,,,,,,,,,,,,
,,,,,,,,,,,,39,FF,-43.47277832,21.49176025,1,0,0,response7disk_5,1,2.9004,10.0302124,-16.21539307,1,0,0,rectangle_8,10.0302124,-16.21539307,1,0,0,10.0302124,-16.21539307,1,0,0,0,6,6,3,1,61030e69dd2c21915339e898,610369d6f1151bccffdc3de9,2021-07-29_22h54.47.254,Simcolourproject_2stim_asymm_v5,2020.2.10,MacIntel,60,61025ae37ef11b136ea224fe,,,,,,,,,,,,,,,,,,,,,,,,,,,,,,,,,,,,,,,,,,,,,,
,,,,,,,,,,,,,FF,,,,,,,,6.639,,,,,,,,,,,,,,,,,,,,,,61030e69dd2c21915339e898,610369d6f1151bccffdc3de9,2021-07-29_22h54.47.254,Simcolourproject_2stim_asymm_v5,2020.2.10,MacIntel,60,61025ae37ef11b136ea224fe,,,,,,,space,3.2356,3235,64.82061768,26.12921143,1,0,0,response1disk,,6,0.119750977,4.01776123,1,0,0,rectangle,0.119750977,4.01776123,1,0,0,0.119750977,4.01776123,1,0,0,0,0,0,116,1,,,,,,,,
,,,,,,,,,,,,,FF,,,,,,,,28.975,,,,,,,,,,,,,,,,,,,,,,61030e69dd2c21915339e898,610369d6f1151bccffdc3de9,2021-07-29_22h54.47.254,Simcolourproject_2stim_asymm_v5,2020.2.10,MacIntel,60,61025ae37ef11b136ea224fe,,,,,,,,,3735,49.93444824,-18.56103516,1,0,0,response3disk,,5,-7.417236328,-5.083953857,1,0,0,rectangle,-7.417236328,-5.083953857,1,0,0,-7.417236328,-5.083953857,1,0,0,0,1,1,62,1,,,,,,,,
,,,,,,,,,,,,,FF,,,,,,,,4.5211,,,,,,,,,,,,,,,,,,,,,,61030e69dd2c21915339e898,610369d6f1151bccffdc3de9,2021-07-29_22h54.47.254,Simcolourproject_2stim_asymm_v5,2020.2.10,MacIntel,60,61025ae37ef11b136ea224fe,,,,,,,,,1511,65.69659424,20.0715332,1,0,0,response1disk,,6,0.392578125,-2.043823242,1,0,0,rectangle,0.392578125,-2.043823242,1,0,0,0.392578125,-2.043823242,1,0,0,0,2,2,114,1,,,,,,,,
,,,,,,,,,,,,,FF,,,,,,,,3.8322,,,,,,,,,,,,,,,,,,,,,,61030e69dd2c21915339e898,610369d6f1151bccffdc3de9,2021-07-29_22h54.47.254,Simcolourproject_2stim_asymm_v5,2020.2.10,MacIntel,60,61025ae37ef11b136ea224fe,,,,,,,,,622,63.1529541,-29.02264404,1,0,0,response3disk,,5,16.04089355,-14.27017212,1,0,0,rectangle,16.04089355,-14.27017212,1,0,0,16.04089355,-14.27017212,1,0,0,0,3,3,150,1,,,,,,,,
,,,,,,,,,,,,,FF,,,,,,,,1.7335,,,,,,,,,,,,,,,,,,,,,,61030e69dd2c21915339e898,610369d6f1151bccffdc3de9,2021-07-29_22h54.47.254,Simcolourproject_2stim_asymm_v5,2020.2.10,MacIntel,60,61025ae37ef11b136ea224fe,,,,,,,,,3566,-44.21685791,-17.1217041,1,0,0,response5disk,,2,-5.625915527,3.588775635,1,0,0,rectangle,-5.625915527,3.588775635,1,0,0,-5.625915527,3.588775635,1,0,0,0,4,4,87,1,,,,,,,,
,,,,,,,,,,,,,FF,,,,,,,,5.184,,,,,,,,,,,,,,,,,,,,,,61030e69dd2c21915339e898,610369d6f1151bccffdc3de9,2021-07-29_22h54.47.254,Simcolourproject_2stim_asymm_v5,2020.2.10,MacIntel,60,61025ae37ef11b136ea224fe,,,,,,,,,1166,51.63397217,-35.15100098,1,0,0,response3disk,,5,18.7456665,-12.70962524,1,0,0,rectangle,63.07861328,10.55194092,1,0,0,14.06793213,6.826141357,1,0,0,0,5,5,126,1,,response1disk_3,TRUE,6,6,"[65,171,306,302,284,239,81,111,231,40,234,186,62,150,209,171,174,94,6,135]",2.1331,rectangle
,,,,,,,,,,,,,FF,,,,,,,,1.3842,,,,,,,,,,,,,,,,,,,,,,61030e69dd2c21915339e898,610369d6f1151bccffdc3de9,2021-07-29_22h54.47.254,Simcolourproject_2stim_asymm_v5,2020.2.10,MacIntel,60,61025ae37ef11b136ea224fe,,,,,,,,,1640,23.0078125,38.70037842,1,0,0,response1disk,,7,6.425415039,3.374237061,1,0,0,rectangle,6.425415039,3.374237061,1,0,0,6.425415039,3.374237061,1,0,0,0,6,6,57,1,,,,,,,,
,,,,,,,,,,,,,FF,,,,,,,,1.684,,,,,,,,,,,,,,,,,,,,,,61030e69dd2c21915339e898,610369d6f1151bccffdc3de9,2021-07-29_22h54.47.254,Simcolourproject_2stim_asymm_v5,2020.2.10,MacIntel,60,61025ae37ef11b136ea224fe,,,,,,,,,301,37.82312012,16.41522217,1,0,0,response1disk,,6,19.67211914,-1.545166016,1,0,0,rectangle,19.67211914,-1.545166016,1,0,0,19.67211914,-1.545166016,1,0,0,0,7,7,159,1,,,,,,,,
,,,,,,,,,,,,,FF,,,,,,,,4.1418,,,,,,,,,,,,,,,,,,,,,,61030e69dd2c21915339e898,610369d6f1151bccffdc3de9,2021-07-29_22h54.47.254,Simcolourproject_2stim_asymm_v5,2020.2.10,MacIntel,60,61025ae37ef11b136ea224fe,,,,,,,,,667,32.88012695,-40.94696045,1,0,0,response3disk,,4,-0.372802734,11.68258667,1,0,0,rectangle,-0.372802734,11.68258667,1,0,0,-0.372802734,11.68258667,1,0,0,0,8,8,4,1,,,,,,,,
,,,,,,,,,,,,,FF,,,,,,,,1.4665,,,,,,,,,,,,,,,,,,,,,,61030e69dd2c21915339e898,610369d6f1151bccffdc3de9,2021-07-29_22h54.47.254,Simcolourproject_2stim_asymm_v5,2020.2.10,MacIntel,60,61025ae37ef11b136ea224fe,,,,,,,,,3104,-24.18927002,-14.36807251,1,0,0,response5disk,,2,-6.444152832,-11.8968811,1,0,0,rectangle,-6.444152832,-11.8968811,1,0,0,-6.444152832,-11.8968811,1,0,0,0,9,9,42,1,,,,,,,,
,,,,,,,,,,,,,FF,,,,,,,,1.3638,,,,,,,,,,,,,,,,,,,,,,61030e69dd2c21915339e898,610369d6f1151bccffdc3de9,2021-07-29_22h54.47.254,Simcolourproject_2stim_asymm_v5,2020.2.10,MacIntel,60,61025ae37ef11b136ea224fe,,,,,,,,,3795,-21.84429932,-32.00616455,1,0,0,response5disk,,3,-3.572387695,-13.45828247,1,0,0,rectangle,-3.572387695,-13.45828247,1,0,0,-3.572387695,-13.45828247,1,0,0,0,10,10,107,1,,,,,,,,
,,,,,,,,,,,,,FF,,,,,,,,1.2727,,,,,,,,,,,,,,,,,,,,,,61030e69dd2c21915339e898,610369d6f1151bccffdc3de9,2021-07-29_22h54.47.254,Simcolourproject_2stim_asymm_v5,2020.2.10,MacIntel,60,61025ae37ef11b136ea224fe,,,,,,,,,3511,-38.01043701,17.27200317,1,0,0,response7disk,,1,-5.579772949,4.502593994,1,0,0,rectangle,-5.579772949,4.502593994,1,0,0,-5.579772949,4.502593994,1,0,0,0,11,11,97,1,,,,,,,,
,,,,,,,,,,,,,FF,,,,,,,,1.5165,,,,,,,,,,,,,,,,,,,,,,61030e69dd2c21915339e898,610369d6f1151bccffdc3de9,2021-07-29_22h54.47.254,Simcolourproject_2stim_asymm_v5,2020.2.10,MacIntel,60,61025ae37ef11b136ea224fe,,,,,,,,,3325,56.27734375,20.85955811,1,0,0,response1disk,,6,6.325683594,-5.851867676,1,0,0,rectangle,6.325683594,-5.851867676,1,0,0,6.325683594,-5.851867676,1,0,0,0,12,12,12,1,,,,,,,,
,,,,,,,,,,,,,FF,,,,,,,,1.4493,,,,,,,,,,,,,,,,,,,,,,61030e69dd2c21915339e898,610369d6f1151bccffdc3de9,2021-07-29_22h54.47.254,Simcolourproject_2stim_asymm_v5,2020.2.10,MacIntel,60,61025ae37ef11b136ea224fe,,,,,,,,,2415,-24.16583252,-34.52511597,1,0,0,response5disk,,3,2.794006348,-5.941162109,1,0,0,rectangle,2.794006348,-5.941162109,1,0,0,2.794006348,-5.941162109,1,0,0,0,13,13,134,1,,,,,,,,
,,,,,,,,,,,,,FF,,,,,,,,1.7852,,,,,,,,,,,,,,,,,,,,,,61030e69dd2c21915339e898,610369d6f1151bccffdc3de9,2021-07-29_22h54.47.254,Simcolourproject_2stim_asymm_v5,2020.2.10,MacIntel,60,61025ae37ef11b136ea224fe,,,,,,,,,2632,30.30560303,57.73260498,1,0,0,response1disk,,7,19.08447266,-1.763305664,1,0,0,rectangle,19.08447266,-1.763305664,1,0,0,19.08447266,-1.763305664,1,0,0,0,14,14,50,1,,,,,,,,
,,,,,,,,,,,,,FF,,,,,,,,2.0496,,,,,,,,,,,,,,,,,,,,,,61030e69dd2c21915339e898,610369d6f1151bccffdc3de9,2021-07-29_22h54.47.254,Simcolourproject_2stim_asymm_v5,2020.2.10,MacIntel,60,61025ae37ef11b136ea224fe,,,,,,,,,3349,60.4263916,17.34863281,1,0,0,response1disk,,6,15.36981201,-1.097381592,1,0,0,rectangle,15.36981201,-1.097381592,1,0,0,15.36981201,-1.097381592,1,0,0,0,15,15,77,1,,,,,,,,
,,,,,,,,,,,,,FF,,,,,,,,1.3334,,,,,,,,,,,,,,,,,,,,,,61030e69dd2c21915339e898,610369d6f1151bccffdc3de9,2021-07-29_22h54.47.254,Simcolourproject_2stim_asymm_v5,2020.2.10,MacIntel,60,61025ae37ef11b136ea224fe,,,,,,,,,1839,-21.57885742,-55.43118286,1,0,0,response5disk,,3,0.828186035,-6.918548584,1,0,0,rectangle,0.828186035,-6.918548584,1,0,0,0.828186035,-6.918548584,1,0,0,0,16,16,33,1,,,,,,,,
,,,,,,,,,,,,,FF,,,,,,,,1.4788,,,,,,,,,,,,,,,,,,,,,,61030e69dd2c21915339e898,610369d6f1151bccffdc3de9,2021-07-29_22h54.47.254,Simcolourproject_2stim_asymm_v5,2020.2.10,MacIntel,60,61025ae37ef11b136ea224fe,,,,,,,,,2983,56.07092285,-33.07302856,1,0,0,response3disk,,5,7.154418945,-6.998901367,1,0,0,rectangle,7.154418945,-6.998901367,1,0,0,7.154418945,-6.998901367,1,0,0,0,17,17,32,1,,,,,,,,
,,,,,,,,,,,,,FF,,,,,,,,1.3913,,,,,,,,,,,,,,,,,,,,,,61030e69dd2c21915339e898,610369d6f1151bccffdc3de9,2021-07-29_22h54.47.254,Simcolourproject_2stim_asymm_v5,2020.2.10,MacIntel,60,61025ae37ef11b136ea224fe,,,,,,,,,1288,29.70947266,-59.66253662,1,0,0,response3disk,,4,3.173950195,-10.14538574,1,0,0,rectangle,3.173950195,-10.14538574,1,0,0,3.173950195,-10.14538574,1,0,0,0,18,18,93,1,,,,,,,,
,,,,,,,,,,,,,FF,,,,,,,,0.8792,,,,,,,,,,,,,,,,,,,,,,61030e69dd2c21915339e898,610369d6f1151bccffdc3de9,2021-07-29_22h54.47.254,Simcolourproject_2stim_asymm_v5,2020.2.10,MacIntel,60,61025ae37ef11b136ea224fe,,,,,,,,,3677,-46.37432861,-23.68844604,1,0,0,response5disk,,2,6.786743164,-8.203674316,1,0,0,rectangle,6.786743164,-8.203674316,1,0,0,6.786743164,-8.203674316,1,0,0,0,19,19,17,1,,,,,,,,
,,,,,,,,,,,,,FF,,,,,,,,1.5414,,,,,,,,,,,,,,,,,,,,,,61030e69dd2c21915339e898,610369d6f1151bccffdc3de9,2021-07-29_22h54.47.254,Simcolourproject_2stim_asymm_v5,2020.2.10,MacIntel,60,61025ae37ef11b136ea224fe,,,,,,,,,1191,59.65698242,44.79821777,1,0,0,response1disk,,6,0.013305664,-2.293701172,1,0,0,rectangle,0.013305664,-2.293701172,1,0,0,0.013305664,-2.293701172,1,0,0,0,20,20,145,1,,,,,,,,
,,,,,,,,,,,,,FF,,,,,,,,1.877,,,,,,,,,,,,,,,,,,,,,,61030e69dd2c21915339e898,610369d6f1151bccffdc3de9,2021-07-29_22h54.47.254,Simcolourproject_2stim_asymm_v5,2020.2.10,MacIntel,60,61025ae37ef11b136ea224fe,,,,,,,,,271,26.30438232,-57.88253784,1,0,0,response3disk,,4,7.054382324,-2.218902588,1,0,0,rectangle,7.054382324,-2.218902588,1,0,0,7.054382324,-2.218902588,1,0,0,0,21,21,19,1,,,,,,,,
,,,,,,,,,,,,,FF,,,,,,,,1.5997,,,,,,,,,,,,,,,,,,,,,,61030e69dd2c21915339e898,610369d6f1151bccffdc3de9,2021-07-29_22h54.47.254,Simcolourproject_2stim_asymm_v5,2020.2.10,MacIntel,60,61025ae37ef11b136ea224fe,,,,,,,,,1781,64.0411377,20.40887451,1,0,0,response1disk,,6,5.598205566,0.197235107,1,0,0,rectangle,5.598205566,0.197235107,1,0,0,5.598205566,0.197235107,1,0,0,0,22,22,86,1,,,,,,,,
,,,,,,,,,,,,,FF,,,,,,,,1.4177,,,,,,,,,,,,,,,,,,,,,,61030e69dd2c21915339e898,610369d6f1151bccffdc3de9,2021-07-29_22h54.47.254,Simcolourproject_2stim_asymm_v5,2020.2.10,MacIntel,60,61025ae37ef11b136ea224fe,,,,,,,,,2283,-47.89147949,-19.11816406,1,0,0,response5disk,,2,6.316711426,-4.560241699,1,0,0,rectangle,6.316711426,-4.560241699,1,0,0,6.316711426,-4.560241699,1,0,0,0,23,23,60,1,,,,,,,,
,,,,,,,,,,,,,FF,,,,,,,,1.8349,,,,,,,,,,,,,,,,,,,,,,61030e69dd2c21915339e898,610369d6f1151bccffdc3de9,2021-07-29_22h54.47.254,Simcolourproject_2stim_asymm_v5,2020.2.10,MacIntel,60,61025ae37ef11b136ea224fe,,,,,,,,,2340,41.71105957,30.43255615,1,0,0,response1disk,,6,-0.630004883,3.49331665,1,0,0,rectangle,-0.630004883,3.49331665,1,0,0,-0.630004883,3.49331665,1,0,0,0,24,24,71,1,,,,,,,,
,,,,,,,,,,,,,FF,,,,,,,,1.2291,,,,,,,,,,,,,,,,,,,,,,61030e69dd2c21915339e898,610369d6f1151bccffdc3de9,2021-07-29_22h54.47.254,Simcolourproject_2stim_asymm_v5,2020.2.10,MacIntel,60,61025ae37ef11b136ea224fe,,,,,,,,,3436,-32.92572021,24.53198242,1,0,0,response7disk,,1,12.43133545,3.882720947,1,0,0,rectangle,12.43133545,3.882720947,1,0,0,12.43133545,3.882720947,1,0,0,0,25,25,151,1,,,,,,,,
,,,,,,,,,,,,,FF,,,,,,,,1.8498,,,,,,,,,,,,,,,,,,,,,,61030e69dd2c21915339e898,610369d6f1151bccffdc3de9,2021-07-29_22h54.47.254,Simcolourproject_2stim_asymm_v5,2020.2.10,MacIntel,60,61025ae37ef11b136ea224fe,,,,,,,,,3572,-37.67242432,-14.2918396,1,0,0,response5disk,,2,-11.00701904,-5.48550415,1,0,0,rectangle,-11.00701904,-5.48550415,1,0,0,-11.00701904,-5.48550415,1,0,0,0,26,26,21,1,,,,,,,,
,,,,,,,,,,,,,FF,,,,,,,,1.1738,,,,,,,,,,,,,,,,,,,,,,61030e69dd2c21915339e898,610369d6f1151bccffdc3de9,2021-07-29_22h54.47.254,Simcolourproject_2stim_asymm_v5,2020.2.10,MacIntel,60,61025ae37ef11b136ea224fe,,,,,,,,,1338,43.90466309,19.99810791,1,0,0,response1disk,,6,8.507629395,-1.672607422,1,0,0,rectangle,8.507629395,-1.672607422,1,0,0,8.507629395,-1.672607422,1,0,0,0,27,27,18,1,,,,,,,,
,,,,,,,,,,,,,FF,,,,,,,,1.3585,,,,,,,,,,,,,,,,,,,,,,61030e69dd2c21915339e898,610369d6f1151bccffdc3de9,2021-07-29_22h54.47.254,Simcolourproject_2stim_asymm_v5,2020.2.10,MacIntel,60,61025ae37ef11b136ea224fe,,,,,,,,,2655,42.21295166,-19.55578613,1,0,0,response3disk,,5,6.158203125,-11.75646973,1,0,0,rectangle,6.158203125,-11.75646973,1,0,0,6.158203125,-11.75646973,1,0,0,0,28,28,81,1,,,,,,,,
,,,,,,,,,,,,,FF,,,,,,,,1.2015,,,,,,,,,,,,,,,,,,,,,,61030e69dd2c21915339e898,610369d6f1151bccffdc3de9,2021-07-29_22h54.47.254,Simcolourproject_2stim_asymm_v5,2020.2.10,MacIntel,60,61025ae37ef11b136ea224fe,,,,,,,,,1919,45.684021,-16.75869751,1,0,0,response3disk,,5,11.60253906,-16.13153076,1,0,0,rectangle,11.60253906,-16.13153076,1,0,0,11.60253906,-16.13153076,1,0,0,0,29,29,113,1,,,,,,,,
,,,,,,,,,,,,,FF,,,,,,,,3.0349,,,,,,,,,,,,,,,,,,,,,,61030e69dd2c21915339e898,610369d6f1151bccffdc3de9,2021-07-29_22h54.47.254,Simcolourproject_2stim_asymm_v5,2020.2.10,MacIntel,60,61025ae37ef11b136ea224fe,,,,,,,,,2899,33.91931152,-49.85406494,1,0,0,response3disk,,4,-2.78515625,-4.026123047,1,0,0,rectangle,-2.78515625,-4.026123047,1,0,0,-2.78515625,-4.026123047,1,0,0,0,30,30,26,1,,,,,,,,
,,,,,,,,,,,,,FF,,,,,,,,2.0232,,,,,,,,,,,,,,,,,,,,,,61030e69dd2c21915339e898,610369d6f1151bccffdc3de9,2021-07-29_22h54.47.254,Simcolourproject_2stim_asymm_v5,2020.2.10,MacIntel,60,61025ae37ef11b136ea224fe,,,,,,,,,3274,35.86560059,38.32531738,1,0,0,response1disk,,7,-6.772399902,6.270111084,1,0,0,rectangle,-6.772399902,6.270111084,1,0,0,-6.772399902,6.270111084,1,0,0,0,31,31,8,1,,,,,,,,
,,,,,,,,,,,,,FF,,,,,,,,1.2668,,,,,,,,,,,,,,,,,,,,,,61030e69dd2c21915339e898,610369d6f1151bccffdc3de9,2021-07-29_22h54.47.254,Simcolourproject_2stim_asymm_v5,2020.2.10,MacIntel,60,61025ae37ef11b136ea224fe,,,,,,,,,1047,54.42687988,11.46011353,1,0,0,response1disk,,6,13.29992676,5.433685303,1,0,0,rectangle,13.29992676,5.433685303,1,0,0,13.29992676,5.433685303,1,0,0,0,32,32,137,1,,,,,,,,
,,,,,,,,,,,,,FF,,,,,,,,1.4166,,,,,,,,,,,,,,,,,,,,,,61030e69dd2c21915339e898,610369d6f1151bccffdc3de9,2021-07-29_22h54.47.254,Simcolourproject_2stim_asymm_v5,2020.2.10,MacIntel,60,61025ae37ef11b136ea224fe,,,,,,,,,749,46.73297119,30.50952148,1,0,0,response1disk,,6,5.408569336,-3.004455566,1,0,0,rectangle,5.408569336,-3.004455566,1,0,0,5.408569336,-3.004455566,1,0,0,0,33,33,128,1,,,,,,,,
,,,,,,,,,,,,,FF,,,,,,,,5.5107,,,,,,,,,,,,,,,,,,,,,,61030e69dd2c21915339e898,610369d6f1151bccffdc3de9,2021-07-29_22h54.47.254,Simcolourproject_2stim_asymm_v5,2020.2.10,MacIntel,60,61025ae37ef11b136ea224fe,,,,,,,,,4090,46.1138916,14.80667114,1,0,0,response1disk,,6,11.69104004,-3.4972229,1,0,0,rectangle,11.69104004,-3.4972229,1,0,0,11.69104004,-3.4972229,1,0,0,0,34,34,13,1,,,,,,,,
,,,,,,,,,,,,,FF,,,,,,,,1.5663,,,,,,,,,,,,,,,,,,,,,,61030e69dd2c21915339e898,610369d6f1151bccffdc3de9,2021-07-29_22h54.47.254,Simcolourproject_2stim_asymm_v5,2020.2.10,MacIntel,60,61025ae37ef11b136ea224fe,,,,,,,,,3510,-29.65777588,17.28555298,1,0,0,response7disk,,1,5.467285156,1.434570313,1,0,0,rectangle,5.467285156,1.434570313,1,0,0,5.467285156,1.434570313,1,0,0,0,35,35,40,1,,,,,,,,
,,,,,,,,,,,,,FF,,,,,,,,1.533,,,,,,,,,,,,,,,,,,,,,,61030e69dd2c21915339e898,610369d6f1151bccffdc3de9,2021-07-29_22h54.47.254,Simcolourproject_2stim_asymm_v5,2020.2.10,MacIntel,60,61025ae37ef11b136ea224fe,,,,,,,,,4310,51.33972168,19.50778198,1,0,0,response1disk,,6,11.34417725,2.101593018,1,0,0,rectangle,11.34417725,2.101593018,1,0,0,11.34417725,2.101593018,1,0,0,0,36,36,118,1,,,,,,,,
,,,,,,,,,,,,,FF,,,,,,,,2.0469,,,,,,,,,,,,,,,,,,,,,,61030e69dd2c21915339e898,610369d6f1151bccffdc3de9,2021-07-29_22h54.47.254,Simcolourproject_2stim_asymm_v5,2020.2.10,MacIntel,60,61025ae37ef11b136ea224fe,,,,,,,,,2075,40.42749023,20.95837402,1,0,0,response1disk,,6,7.926208496,-6.110961914,1,0,0,rectangle,7.926208496,-6.110961914,1,0,0,7.926208496,-6.110961914,1,0,0,0,37,37,129,1,,,,,,,,
,,,,,,,,,,,,,FF,,,,,,,,2.1003,,,,,,,,,,,,,,,,,,,,,,61030e69dd2c21915339e898,610369d6f1151bccffdc3de9,2021-07-29_22h54.47.254,Simcolourproject_2stim_asymm_v5,2020.2.10,MacIntel,60,61025ae37ef11b136ea224fe,,,,,,,,,852,48.77471924,-28.25149536,1,0,0,response3disk,,5,7.754333496,-5.31741333,1,0,0,rectangle,7.754333496,-5.31741333,1,0,0,7.754333496,-5.31741333,1,0,0,0,38,38,148,1,,,,,,,,
,,,,,,,,,,,,,FF,,,,,,,,1.5176,,,,,,,,,,,,,,,,,,,,,,61030e69dd2c21915339e898,610369d6f1151bccffdc3de9,2021-07-29_22h54.47.254,Simcolourproject_2stim_asymm_v5,2020.2.10,MacIntel,60,61025ae37ef11b136ea224fe,,,,,,,,,1202,-23.92480469,-43.64004517,1,0,0,response5disk,,3,-4.570556641,-13.57772827,1,0,0,rectangle,58.95635986,-19.3586731,1,0,0,-1.06060791,-2.891693115,1,0,0,0,39,39,158,1,,response3disk_3,TRUE,5,5,"[65,171,306,302,284,239,81,111,231,40,234,186,62,150,209,171,174,94,6,135]",2.425,rectangle
,,,,,,,,,,,,,FF,,,,,,,,2.4666,,,,,,,,,,,,,,,,,,,,,,61030e69dd2c21915339e898,610369d6f1151bccffdc3de9,2021-07-29_22h54.47.254,Simcolourproject_2stim_asymm_v5,2020.2.10,MacIntel,60,61025ae37ef11b136ea224fe,,,,,,,,,2673,43.94744873,-32.73086548,1,0,0,response3disk,,5,15.32128906,-17.06985474,1,0,0,rectangle,15.32128906,-17.06985474,1,0,0,15.32128906,-17.06985474,1,0,0,0,40,40,16,1,,,,,,,,
,,,,,,,,,,,,,FF,,,,,,,,1.7507,,,,,,,,,,,,,,,,,,,,,,61030e69dd2c21915339e898,610369d6f1151bccffdc3de9,2021-07-29_22h54.47.254,Simcolourproject_2stim_asymm_v5,2020.2.10,MacIntel,60,61025ae37ef11b136ea224fe,,,,,,,,,394,45.19055176,-26.52987671,1,0,0,response3disk,,5,4.56817627,-14.34344482,1,0,0,rectangle,4.56817627,-14.34344482,1,0,0,4.56817627,-14.34344482,1,0,0,0,41,41,24,1,,,,,,,,
,,,,,,,,,,,,,FF,,,,,,,,1.4071,,,,,,,,,,,,,,,,,,,,,,61030e69dd2c21915339e898,610369d6f1151bccffdc3de9,2021-07-29_22h54.47.254,Simcolourproject_2stim_asymm_v5,2020.2.10,MacIntel,60,61025ae37ef11b136ea224fe,,,,,,,,,1193,25.22827148,-46.53457642,1,0,0,response3disk,,4,4.999206543,-8.734924316,1,0,0,rectangle,4.999206543,-8.734924316,1,0,0,4.999206543,-8.734924316,1,0,0,0,42,42,147,1,,,,,,,,
,,,,,,,,,,,,,FF,,,,,,,,2.2036,,,,,,,,,,,,,,,,,,,,,,61030e69dd2c21915339e898,610369d6f1151bccffdc3de9,2021-07-29_22h54.47.254,Simcolourproject_2stim_asymm_v5,2020.2.10,MacIntel,60,61025ae37ef11b136ea224fe,,,,,,,,,11,30.31378174,-62.98522949,1,0,0,response3disk,,4,-5.475585938,2.811767578,1,0,0,rectangle,-5.475585938,2.811767578,1,0,0,-5.475585938,2.811767578,1,0,0,0,43,43,31,1,,,,,,,,
,,,,,,,,,,,,,FF,,,,,,,,1.8666,,,,,,,,,,,,,,,,,,,,,,61030e69dd2c21915339e898,610369d6f1151bccffdc3de9,2021-07-29_22h54.47.254,Simcolourproject_2stim_asymm_v5,2020.2.10,MacIntel,60,61025ae37ef11b136ea224fe,,,,,,,,,4345,-33.53070068,-27.57080078,1,0,0,response5disk,,2,6.29486084,-16.64083862,1,0,0,rectangle,6.29486084,-16.64083862,1,0,0,6.29486084,-16.64083862,1,0,0,0,44,44,96,1,,,,,,,,
,,,,,,,,,,,,,FF,,,,,,,,2.068,,,,,,,,,,,,,,,,,,,,,,61030e69dd2c21915339e898,610369d6f1151bccffdc3de9,2021-07-29_22h54.47.254,Simcolourproject_2stim_asymm_v5,2020.2.10,MacIntel,60,61025ae37ef11b136ea224fe,,,,,,,,,3291,-67.70928955,42.45065308,1,0,0,response7disk,,1,-0.772949219,12.35858154,1,0,0,rectangle,-0.772949219,12.35858154,1,0,0,-0.772949219,12.35858154,1,0,0,0,45,45,5,1,,,,,,,,
,,,,,,,,,,,,,FF,,,,,,,,2.085,,,,,,,,,,,,,,,,,,,,,,61030e69dd2c21915339e898,610369d6f1151bccffdc3de9,2021-07-29_22h54.47.254,Simcolourproject_2stim_asymm_v5,2020.2.10,MacIntel,60,61025ae37ef11b136ea224fe,,,,,,,,,2145,67.06616211,28.67059326,1,0,0,response1disk,,6,10.0380249,-9.519744873,1,0,0,rectangle,10.0380249,-9.519744873,1,0,0,10.0380249,-9.519744873,1,0,0,0,46,46,78,1,,,,,,,,
,,,,,,,,,,,,,FF,,,,,,,,1.8117,,,,,,,,,,,,,,,,,,,,,,61030e69dd2c21915339e898,610369d6f1151bccffdc3de9,2021-07-29_22h54.47.254,Simcolourproject_2stim_asymm_v5,2020.2.10,MacIntel,60,61025ae37ef11b136ea224fe,,,,,,,,,1616,49.6192627,-15.97207642,1,0,0,response3disk,,5,-29.62841797,10.12969971,1,0,0,rectangle,-29.62841797,10.12969971,1,0,0,-29.62841797,10.12969971,1,0,0,0,47,47,142,1,,,,,,,,
,,,,,,,,,,,,,FF,,,,,,,,1.082,,,,,,,,,,,,,,,,,,,,,,61030e69dd2c21915339e898,610369d6f1151bccffdc3de9,2021-07-29_22h54.47.254,Simcolourproject_2stim_asymm_v5,2020.2.10,MacIntel,60,61025ae37ef11b136ea224fe,,,,,,,,,2735,-52.68792725,-24.59402466,1,0,0,response5disk,,2,-5.919372559,-9.922241211,1,0,0,rectangle,-5.919372559,-9.922241211,1,0,0,-5.919372559,-9.922241211,1,0,0,0,48,48,92,1,,,,,,,,
,,,,,,,,,,,,,FF,,,,,,,,0.9873,,,,,,,,,,,,,,,,,,,,,,61030e69dd2c21915339e898,610369d6f1151bccffdc3de9,2021-07-29_22h54.47.254,Simcolourproject_2stim_asymm_v5,2020.2.10,MacIntel,60,61025ae37ef11b136ea224fe,,,,,,,,,2167,-40.2364502,15.95672607,1,0,0,response7disk,,1,0.769775391,10.66424561,1,0,0,rectangle,0.769775391,10.66424561,1,0,0,0.769775391,10.66424561,1,0,0,0,49,49,2,1,,,,,,,,
,,,,,,,,,,,,,FF,,,,,,,,1.4003,,,,,,,,,,,,,,,,,,,,,,61030e69dd2c21915339e898,610369d6f1151bccffdc3de9,2021-07-29_22h54.47.254,Simcolourproject_2stim_asymm_v5,2020.2.10,MacIntel,60,61025ae37ef11b136ea224fe,,,,,,,,,1259,54.69641113,25.73046875,1,0,0,response1disk,,6,2.682678223,-0.643798828,1,0,0,rectangle,2.682678223,-0.643798828,1,0,0,2.682678223,-0.643798828,1,0,0,0,50,50,67,1,,,,,,,,
,,,,,,,,,,,,,FF,,,,,,,,0.9166,,,,,,,,,,,,,,,,,,,,,,61030e69dd2c21915339e898,610369d6f1151bccffdc3de9,2021-07-29_22h54.47.254,Simcolourproject_2stim_asymm_v5,2020.2.10,MacIntel,60,61025ae37ef11b136ea224fe,,,,,,,,,3197,-32.35217285,12.07196045,1,0,0,response7disk,,1,4.652587891,-0.233612061,1,0,0,rectangle,4.652587891,-0.233612061,1,0,0,4.652587891,-0.233612061,1,0,0,0,51,51,120,1,,,,,,,,
,,,,,,,,,,,,,FF,,,,,,,,1.5339,,,,,,,,,,,,,,,,,,,,,,61030e69dd2c21915339e898,610369d6f1151bccffdc3de9,2021-07-29_22h54.47.254,Simcolourproject_2stim_asymm_v5,2020.2.10,MacIntel,60,61025ae37ef11b136ea224fe,,,,,,,,,509,49.48962402,11.02593994,1,0,0,response1disk,,6,6.473449707,4.588592529,1,0,0,rectangle,6.473449707,4.588592529,1,0,0,6.473449707,4.588592529,1,0,0,0,52,52,53,1,,,,,,,,
,,,,,,,,,,,,,FF,,,,,,,,2.1112,,,,,,,,,,,,,,,,,,,,,,61030e69dd2c21915339e898,610369d6f1151bccffdc3de9,2021-07-29_22h54.47.254,Simcolourproject_2stim_asymm_v5,2020.2.10,MacIntel,60,61025ae37ef11b136ea224fe,,,,,,,,,3443,-43.21276855,-41.50094604,1,0,0,response5disk,,2,8.875793457,-1.028625488,1,0,0,rectangle,8.875793457,-1.028625488,1,0,0,8.875793457,-1.028625488,1,0,0,0,53,53,3,1,,,,,,,,
,,,,,,,,,,,,,FF,,,,,,,,0.9271,,,,,,,,,,,,,,,,,,,,,,61030e69dd2c21915339e898,610369d6f1151bccffdc3de9,2021-07-29_22h54.47.254,Simcolourproject_2stim_asymm_v5,2020.2.10,MacIntel,60,61025ae37ef11b136ea224fe,,,,,,,,,2302,-44.59179688,-32.93093872,1,0,0,response5disk,,2,0.82244873,-6.498199463,1,0,0,rectangle,0.82244873,-6.498199463,1,0,0,0.82244873,-6.498199463,1,0,0,0,54,54,80,1,,,,,,,,
,,,,,,,,,,,,,FF,,,,,,,,1.1491,,,,,,,,,,,,,,,,,,,,,,61030e69dd2c21915339e898,610369d6f1151bccffdc3de9,2021-07-29_22h54.47.254,Simcolourproject_2stim_asymm_v5,2020.2.10,MacIntel,60,61025ae37ef11b136ea224fe,,,,,,,,,226,62.35693359,25.46884155,1,0,0,response1disk,,6,19.04992676,-5.538299561,1,0,0,rectangle,19.04992676,-5.538299561,1,0,0,19.04992676,-5.538299561,1,0,0,0,55,55,138,1,,,,,,,,
,,,,,,,,,,,,,FF,,,,,,,,1.1841,,,,,,,,,,,,,,,,,,,,,,61030e69dd2c21915339e898,610369d6f1151bccffdc3de9,2021-07-29_22h54.47.254,Simcolourproject_2stim_asymm_v5,2020.2.10,MacIntel,60,61025ae37ef11b136ea224fe,,,,,,,,,874,-21.20526123,-54.42068481,1,0,0,response5disk,,3,0.477294922,-12.83496094,1,0,0,rectangle,0.477294922,-12.83496094,1,0,0,0.477294922,-12.83496094,1,0,0,0,56,56,105,1,,,,,,,,
,,,,,,,,,,,,,FF,,,,,,,,1.7431,,,,,,,,,,,,,,,,,,,,,,61030e69dd2c21915339e898,610369d6f1151bccffdc3de9,2021-07-29_22h54.47.254,Simcolourproject_2stim_asymm_v5,2020.2.10,MacIntel,60,61025ae37ef11b136ea224fe,,,,,,,,,993,27.49243164,32.42626953,1,0,0,response1disk,,7,16.05761719,-7.222564697,1,0,0,rectangle,16.05761719,-7.222564697,1,0,0,16.05761719,-7.222564697,1,0,0,0,57,57,133,1,,,,,,,,
,,,,,,,,,,,,,FF,,,,,,,,2.0828,,,,,,,,,,,,,,,,,,,,,,61030e69dd2c21915339e898,610369d6f1151bccffdc3de9,2021-07-29_22h54.47.254,Simcolourproject_2stim_asymm_v5,2020.2.10,MacIntel,60,61025ae37ef11b136ea224fe,,,,,,,,,2559,48.5055542,16.47680664,1,0,0,response1disk,,6,8.490844727,-7.163238525,1,0,0,rectangle,8.490844727,-7.163238525,1,0,0,8.490844727,-7.163238525,1,0,0,0,58,58,154,1,,,,,,,,
,,,,,,,,,,,,,FF,,,,,,,,1.6349,,,,,,,,,,,,,,,,,,,,,,61030e69dd2c21915339e898,610369d6f1151bccffdc3de9,2021-07-29_22h54.47.254,Simcolourproject_2stim_asymm_v5,2020.2.10,MacIntel,60,61025ae37ef11b136ea224fe,,,,,,,,,704,-24.47167969,-45.17938232,1,0,0,response5disk,,3,3.085205078,-10.05490112,1,0,0,rectangle,3.085205078,-10.05490112,1,0,0,3.085205078,-10.05490112,1,0,0,0,59,59,20,1,,,,,,,,
,,,,,,,,,,,,,FF,,,,,,,,5,,,,,,,,,,,,,,,,,,,,,,61030e69dd2c21915339e898,610369d6f1151bccffdc3de9,2021-07-29_22h54.47.254,Simcolourproject_2stim_asymm_v5,2020.2.10,MacIntel,60,61025ae37ef11b136ea224fe,,,,,,,,,1845,43.62976074,-21.12884521,1,0,0,response3disk,,5,3.10345459,0.271911621,1,0,0,rectangle,3.10345459,0.271911621,1,0,0,3.10345459,0.271911621,1,0,0,0,60,60,109,1,,,,,,,,
,,,,,,,,,,,,,FF,,,,,,,,1.5168,,,,,,,,,,,,,,,,,,,,,,61030e69dd2c21915339e898,610369d6f1151bccffdc3de9,2021-07-29_22h54.47.254,Simcolourproject_2stim_asymm_v5,2020.2.10,MacIntel,60,61025ae37ef11b136ea224fe,,,,,,,,,1697,45.22509766,23.84573364,1,0,0,response1disk,,6,12.17138672,-1.616668701,1,0,0,rectangle,17.71520996,-50.48696899,1,0,0,14.69018555,-0.959472656,1,0,0,0,61,61,94,1,,response3disk_3,TRUE,4,4,"[65,171,306,302,284,239,81,111,231,40,234,186,62,150,209,171,174,94,6,135]",5.5096,rectangle
,,,,,,,,,,,,,FF,,,,,,,,1.117,,,,,,,,,,,,,,,,,,,,,,61030e69dd2c21915339e898,610369d6f1151bccffdc3de9,2021-07-29_22h54.47.254,Simcolourproject_2stim_asymm_v5,2020.2.10,MacIntel,60,61025ae37ef11b136ea224fe,,,,,,,,,1515,32.61383057,18.29067993,1,0,0,response1disk,,6,13.9730835,3.908081055,1,0,0,rectangle,13.9730835,3.908081055,1,0,0,13.9730835,3.908081055,1,0,0,0,62,62,56,1,,,,,,,,
,,,,,,,,,,,,,FF,,,,,,,,0.8807,,,,,,,,,,,,,,,,,,,,,,61030e69dd2c21915339e898,610369d6f1151bccffdc3de9,2021-07-29_22h54.47.254,Simcolourproject_2stim_asymm_v5,2020.2.10,MacIntel,60,61025ae37ef11b136ea224fe,,,,,,,,,2789,-18.22320557,-41.94781494,1,0,0,response5disk,,3,-1.400878906,-10.37612915,1,0,0,rectangle,-1.400878906,-10.37612915,1,0,0,-1.400878906,-10.37612915,1,0,0,0,63,63,22,1,,,,,,,,
,,,,,,,,,,,,,FF,,,,,,,,0.8838,,,,,,,,,,,,,,,,,,,,,,61030e69dd2c21915339e898,610369d6f1151bccffdc3de9,2021-07-29_22h54.47.254,Simcolourproject_2stim_asymm_v5,2020.2.10,MacIntel,60,61025ae37ef11b136ea224fe,,,,,,,,,4002,-37.39099121,-26.50061035,1,0,0,response5disk,,2,-8.909362793,-13.3449707,1,0,0,rectangle,-12.59008789,56.40411377,1,0,0,0.821594238,1.856689453,1,0,0,0,64,64,104,1,,response7disk_3,TRUE,0,0,"[65,171,306,302,284,239,81,111,231,40,234,186,62,150,209,171,174,94,6,135]",1.6464,rectangle
,,,,,,,,,,,,,FF,,,,,,,,0.9883,,,,,,,,,,,,,,,,,,,,,,61030e69dd2c21915339e898,610369d6f1151bccffdc3de9,2021-07-29_22h54.47.254,Simcolourproject_2stim_asymm_v5,2020.2.10,MacIntel,60,61025ae37ef11b136ea224fe,,,,,,,,,577,35.81262207,-18.07858276,1,0,0,response3disk,,5,-4.323791504,-12.59173584,1,0,0,rectangle,-4.323791504,-12.59173584,1,0,0,-4.323791504,-12.59173584,1,0,0,0,65,65,100,1,,,,,,,,
,,,,,,,,,,,,,FF,,,,,,,,1.3073,,,,,,,,,,,,,,,,,,,,,,61030e69dd2c21915339e898,610369d6f1151bccffdc3de9,2021-07-29_22h54.47.254,Simcolourproject_2stim_asymm_v5,2020.2.10,MacIntel,60,61025ae37ef11b136ea224fe,,,,,,,,,587,38.74316406,53.46932983,1,0,0,response1disk,,7,18.9956665,3.345916748,1,0,0,rectangle,18.9956665,3.345916748,1,0,0,18.9956665,3.345916748,1,0,0,0,66,66,9,1,,,,,,,,
,,,,,,,,,,,,,FF,,,,,,,,1.8509,,,,,,,,,,,,,,,,,,,,,,61030e69dd2c21915339e898,610369d6f1151bccffdc3de9,2021-07-29_22h54.47.254,Simcolourproject_2stim_asymm_v5,2020.2.10,MacIntel,60,61025ae37ef11b136ea224fe,,,,,,,,,1606,-14.13299561,-55.7130127,1,0,0,response5disk,,3,1.133361816,-11.23120117,1,0,0,rectangle,1.133361816,-11.23120117,1,0,0,1.133361816,-11.23120117,1,0,0,0,67,67,25,1,,,,,,,,
,,,,,,,,,,,,,FF,,,,,,,,0.9329,,,,,,,,,,,,,,,,,,,,,,61030e69dd2c21915339e898,610369d6f1151bccffdc3de9,2021-07-29_22h54.47.254,Simcolourproject_2stim_asymm_v5,2020.2.10,MacIntel,60,61025ae37ef11b136ea224fe,,,,,,,,,1258,29.43682861,-13.43466187,1,0,0,response3disk,,5,1.851135254,-7.420043945,1,0,0,rectangle,1.851135254,-7.420043945,1,0,0,1.851135254,-7.420043945,1,0,0,0,68,68,55,1,,,,,,,,
,,,,,,,,,,,,,FF,,,,,,,,1.0329,,,,,,,,,,,,,,,,,,,,,,61030e69dd2c21915339e898,610369d6f1151bccffdc3de9,2021-07-29_22h54.47.254,Simcolourproject_2stim_asymm_v5,2020.2.10,MacIntel,60,61025ae37ef11b136ea224fe,,,,,,,,,385,30.8170166,-14.77127075,1,0,0,response3disk,,5,17.70251465,-14.77127075,1,0,0,rectangle,17.70251465,-14.77127075,1,0,0,17.70251465,-14.77127075,1,0,0,0,69,69,136,1,,,,,,,,
,,,,,,,,,,,,,FF,,,,,,,,1.4318,,,,,,,,,,,,,,,,,,,,,,61030e69dd2c21915339e898,610369d6f1151bccffdc3de9,2021-07-29_22h54.47.254,Simcolourproject_2stim_asymm_v5,2020.2.10,MacIntel,60,61025ae37ef11b136ea224fe,,,,,,,,,1378,-27.6463623,-31.89663696,1,0,0,response5disk,,3,-9.971862793,-12.7098999,1,0,0,rectangle,-9.971862793,-12.7098999,1,0,0,-9.971862793,-12.7098999,1,0,0,0,70,70,72,1,,,,,,,,
,,,,,,,,,,,,,FF,,,,,,,,4.8989,,,,,,,,,,,,,,,,,,,,,,61030e69dd2c21915339e898,610369d6f1151bccffdc3de9,2021-07-29_22h54.47.254,Simcolourproject_2stim_asymm_v5,2020.2.10,MacIntel,60,61025ae37ef11b136ea224fe,,,,,,,,,1666,49.90441895,-17.96875,1,0,0,response3disk,,5,5.331237793,-10.93054199,1,0,0,rectangle,5.331237793,-10.93054199,1,0,0,5.331237793,-10.93054199,1,0,0,0,71,71,117,1,,,,,,,,
,,,,,,,,,,,,,FF,,,,,,,,1.4332,,,,,,,,,,,,,,,,,,,,,,61030e69dd2c21915339e898,610369d6f1151bccffdc3de9,2021-07-29_22h54.47.254,Simcolourproject_2stim_asymm_v5,2020.2.10,MacIntel,60,61025ae37ef11b136ea224fe,,,,,,,,,2277,16.57409668,-53.31530762,1,0,0,response3disk,,4,16.57409668,3.005706787,1,0,0,rectangle,16.57409668,3.005706787,1,0,0,16.57409668,3.005706787,1,0,0,0,72,72,125,1,,,,,,,,
,,,,,,,,,,,,,FF,,,,,,,,1.1004,,,,,,,,,,,,,,,,,,,,,,61030e69dd2c21915339e898,610369d6f1151bccffdc3de9,2021-07-29_22h54.47.254,Simcolourproject_2stim_asymm_v5,2020.2.10,MacIntel,60,61025ae37ef11b136ea224fe,,,,,,,,,2155,34.52832031,53.06506348,1,0,0,response1disk,,7,10.7532959,-6.855834961,1,0,0,rectangle,10.7532959,-6.855834961,1,0,0,10.7532959,-6.855834961,1,0,0,0,73,73,49,1,,,,,,,,
,,,,,,,,,,,,,FF,,,,,,,,1.1521,,,,,,,,,,,,,,,,,,,,,,61030e69dd2c21915339e898,610369d6f1151bccffdc3de9,2021-07-29_22h54.47.254,Simcolourproject_2stim_asymm_v5,2020.2.10,MacIntel,60,61025ae37ef11b136ea224fe,,,,,,,,,2245,37.77862549,24.8394165,1,0,0,response1disk,,6,5.265808105,-4.995056152,1,0,0,rectangle,5.265808105,-4.995056152,1,0,0,5.265808105,-4.995056152,1,0,0,0,74,74,7,1,,,,,,,,
,,,,,,,,,,,,,FF,,,,,,,,1.5836,,,,,,,,,,,,,,,,,,,,,,61030e69dd2c21915339e898,610369d6f1151bccffdc3de9,2021-07-29_22h54.47.254,Simcolourproject_2stim_asymm_v5,2020.2.10,MacIntel,60,61025ae37ef11b136ea224fe,,,,,,,,,2604,-16.98236084,-56.96060181,1,0,0,response5disk,,3,1.175231934,-8.288665771,1,0,0,rectangle,1.175231934,-8.288665771,1,0,0,1.175231934,-8.288665771,1,0,0,0,75,75,79,1,,,,,,,,
,,,,,,,,,,,,,FF,,,,,,,,1.1,,,,,,,,,,,,,,,,,,,,,,61030e69dd2c21915339e898,610369d6f1151bccffdc3de9,2021-07-29_22h54.47.254,Simcolourproject_2stim_asymm_v5,2020.2.10,MacIntel,60,61025ae37ef11b136ea224fe,,,,,,,,,3505,-40.73156738,18.8916626,1,0,0,response7disk,,1,18.87097168,15.6348877,1,0,0,rectangle,18.87097168,15.6348877,1,0,0,18.87097168,15.6348877,1,0,0,0,76,76,74,1,,,,,,,,
,,,,,,,,,,,,,FF,,,,,,,,1.4675,,,,,,,,,,,,,,,,,,,,,,61030e69dd2c21915339e898,610369d6f1151bccffdc3de9,2021-07-29_22h54.47.254,Simcolourproject_2stim_asymm_v5,2020.2.10,MacIntel,60,61025ae37ef11b136ea224fe,,,,,,,,,4247,51.23608398,-33.56390381,1,0,0,response3disk,,5,12.53564453,-16.22442627,1,0,0,rectangle,12.53564453,-16.22442627,1,0,0,12.53564453,-16.22442627,1,0,0,0,77,77,10,1,,,,,,,,
,,,,,,,,,,,,,FF,,,,,,,,2.4755,,,,,,,,,,,,,,,,,,,,,,61030e69dd2c21915339e898,610369d6f1151bccffdc3de9,2021-07-29_22h54.47.254,Simcolourproject_2stim_asymm_v5,2020.2.10,MacIntel,60,61025ae37ef11b136ea224fe,,,,,,,,,3405,30.07818604,-22.97186279,1,0,0,response3disk,,5,1.43170166,-12.11129761,1,0,0,rectangle,1.43170166,-12.11129761,1,0,0,1.43170166,-12.11129761,1,0,0,0,78,78,69,1,,,,,,,,
,,,,,,,,,,,,,FF,,,,,,,,1.1204,,,,,,,,,,,,,,,,,,,,,,61030e69dd2c21915339e898,610369d6f1151bccffdc3de9,2021-07-29_22h54.47.254,Simcolourproject_2stim_asymm_v5,2020.2.10,MacIntel,60,61025ae37ef11b136ea224fe,,,,,,,,,1039,-22.06115723,-39.24533081,1,0,0,response5disk,,3,-11.16436768,-7.515014648,1,0,0,rectangle,-11.16436768,-7.515014648,1,0,0,-11.16436768,-7.515014648,1,0,0,0,79,79,37,1,,,,,,,,
,,,,,,,,,,,,,FF,,,,,,,,0.973,,,,,,,,,,,,,,,,,,,,,,61030e69dd2c21915339e898,610369d6f1151bccffdc3de9,2021-07-29_22h54.47.254,Simcolourproject_2stim_asymm_v5,2020.2.10,MacIntel,60,61025ae37ef11b136ea224fe,,,,,,,,,282,-25.65258789,-19.56637573,1,0,0,response5disk,,2,-0.747253418,-9.544586182,1,0,0,rectangle,41.6619873,20.64511108,1,0,0,23.14599609,-5.174438477,1,0,0,0,80,80,38,1,,response1disk_3,TRUE,6,6,"[65,171,306,302,284,239,81,111,231,40,234,186,62,150,209,171,174,94,6,135]",2.1678,rectangle
,,,,,,,,,,,,,FF,,,,,,,,1.5158,,,,,,,,,,,,,,,,,,,,,,61030e69dd2c21915339e898,610369d6f1151bccffdc3de9,2021-07-29_22h54.47.254,Simcolourproject_2stim_asymm_v5,2020.2.10,MacIntel,60,61025ae37ef11b136ea224fe,,,,,,,,,2958,37.32287598,13.26715088,1,0,0,response1disk,,6,19.86853027,10.70504761,1,0,0,rectangle,19.86853027,10.70504761,1,0,0,19.86853027,10.70504761,1,0,0,0,81,81,68,1,,,,,,,,
,,,,,,,,,,,,,FF,,,,,,,,1.9178,,,,,,,,,,,,,,,,,,,,,,61030e69dd2c21915339e898,610369d6f1151bccffdc3de9,2021-07-29_22h54.47.254,Simcolourproject_2stim_asymm_v5,2020.2.10,MacIntel,60,61025ae37ef11b136ea224fe,,,,,,,,,1796,28.13751221,45.84619141,1,0,0,response1disk,,7,29.7487793,7.182739258,1,0,0,rectangle,29.7487793,7.182739258,1,0,0,29.7487793,7.182739258,1,0,0,0,82,82,121,1,,,,,,,,
,,,,,,,,,,,,,FF,,,,,,,,1.4658,,,,,,,,,,,,,,,,,,,,,,61030e69dd2c21915339e898,610369d6f1151bccffdc3de9,2021-07-29_22h54.47.254,Simcolourproject_2stim_asymm_v5,2020.2.10,MacIntel,60,61025ae37ef11b136ea224fe,,,,,,,,,2967,27.0055542,40.42410278,1,0,0,response1disk,,7,23.98852539,5.584686279,1,0,0,rectangle,23.98852539,5.584686279,1,0,0,23.98852539,5.584686279,1,0,0,0,83,83,30,1,,,,,,,,
,,,,,,,,,,,,,FF,,,,,,,,1.7845,,,,,,,,,,,,,,,,,,,,,,61030e69dd2c21915339e898,610369d6f1151bccffdc3de9,2021-07-29_22h54.47.254,Simcolourproject_2stim_asymm_v5,2020.2.10,MacIntel,60,61025ae37ef11b136ea224fe,,,,,,,,,4188,-36.82275391,11.83074951,1,0,0,response7disk,,1,2.010559082,5.195861816,1,0,0,rectangle,2.010559082,5.195861816,1,0,0,2.010559082,5.195861816,1,0,0,0,84,84,23,1,,,,,,,,
,,,,,,,,,,,,,FF,,,,,,,,1.6788,,,,,,,,,,,,,,,,,,,,,,61030e69dd2c21915339e898,610369d6f1151bccffdc3de9,2021-07-29_22h54.47.254,Simcolourproject_2stim_asymm_v5,2020.2.10,MacIntel,60,61025ae37ef11b136ea224fe,,,,,,,,,1498,49.93518066,-34.79870605,1,0,0,response3disk,,5,9.475585938,-10.73727417,1,0,0,rectangle,9.475585938,-10.73727417,1,0,0,9.475585938,-10.73727417,1,0,0,0,85,85,110,1,,,,,,,,
,,,,,,,,,,,,,FF,,,,,,,,1.0835,,,,,,,,,,,,,,,,,,,,,,61030e69dd2c21915339e898,610369d6f1151bccffdc3de9,2021-07-29_22h54.47.254,Simcolourproject_2stim_asymm_v5,2020.2.10,MacIntel,60,61025ae37ef11b136ea224fe,,,,,,,,,2552,28.04760742,-39.37496948,1,0,0,response3disk,,4,27.10681152,-17.70419312,1,0,0,rectangle,27.10681152,-17.70419312,1,0,0,27.10681152,-17.70419312,1,0,0,0,86,86,14,1,,,,,,,,
,,,,,,,,,,,,,FF,,,,,,,,1.2165,,,,,,,,,,,,,,,,,,,,,,61030e69dd2c21915339e898,610369d6f1151bccffdc3de9,2021-07-29_22h54.47.254,Simcolourproject_2stim_asymm_v5,2020.2.10,MacIntel,60,61025ae37ef11b136ea224fe,,,,,,,,,942,45.06396484,17.08328247,1,0,0,response1disk,,6,15.5581665,7.219024658,1,0,0,rectangle,15.5581665,7.219024658,1,0,0,15.5581665,7.219024658,1,0,0,0,87,87,98,1,,,,,,,,
,,,,,,,,,,,,,FF,,,,,,,,1.302,,,,,,,,,,,,,,,,,,,,,,61030e69dd2c21915339e898,610369d6f1151bccffdc3de9,2021-07-29_22h54.47.254,Simcolourproject_2stim_asymm_v5,2020.2.10,MacIntel,60,61025ae37ef11b136ea224fe,,,,,,,,,3215,-16.3104248,-42.78027344,1,0,0,response5disk,,3,2.745056152,1.593841553,1,0,0,rectangle,2.745056152,1.593841553,1,0,0,2.745056152,1.593841553,1,0,0,0,88,88,36,1,,,,,,,,
,,,,,,,,,,,,,FF,,,,,,,,1.2532,,,,,,,,,,,,,,,,,,,,,,61030e69dd2c21915339e898,610369d6f1151bccffdc3de9,2021-07-29_22h54.47.254,Simcolourproject_2stim_asymm_v5,2020.2.10,MacIntel,60,61025ae37ef11b136ea224fe,,,,,,,,,1077,34.05395508,-23.48095703,1,0,0,response3disk,,5,4.330383301,-12.68823242,1,0,0,rectangle,4.330383301,-12.68823242,1,0,0,4.330383301,-12.68823242,1,0,0,0,89,89,140,1,,,,,,,,
,,,,,,,,,,,,,FF,,,,,,,,0.9896,,,,,,,,,,,,,,,,,,,,,,61030e69dd2c21915339e898,610369d6f1151bccffdc3de9,2021-07-29_22h54.47.254,Simcolourproject_2stim_asymm_v5,2020.2.10,MacIntel,60,61025ae37ef11b136ea224fe,,,,,,,,,2678,-31.23352051,-17.27224731,1,0,0,response5disk,,2,-8.15612793,-8.861633301,1,0,0,rectangle,-8.15612793,-8.861633301,1,0,0,-8.15612793,-8.861633301,1,0,0,0,90,90,84,1,,,,,,,,
,,,,,,,,,,,,,FF,,,,,,,,0.9724,,,,,,,,,,,,,,,,,,,,,,61030e69dd2c21915339e898,610369d6f1151bccffdc3de9,2021-07-29_22h54.47.254,Simcolourproject_2stim_asymm_v5,2020.2.10,MacIntel,60,61025ae37ef11b136ea224fe,,,,,,,,,3262,13.66564941,-42.54605103,1,0,0,response3disk,,4,14.14874268,-13.92910767,1,0,0,rectangle,14.14874268,-13.92910767,1,0,0,14.14874268,-13.92910767,1,0,0,0,91,91,43,1,,,,,,,,
,,,,,,,,,,,,,FF,,,,,,,,1.4477,,,,,,,,,,,,,,,,,,,,,,61030e69dd2c21915339e898,610369d6f1151bccffdc3de9,2021-07-29_22h54.47.254,Simcolourproject_2stim_asymm_v5,2020.2.10,MacIntel,60,61025ae37ef11b136ea224fe,,,,,,,,,884,24.20367432,33.94644165,1,0,0,response1disk,,7,23.91784668,5.177124023,1,0,0,rectangle,23.91784668,5.177124023,1,0,0,23.91784668,5.177124023,1,0,0,0,92,92,85,1,,,,,,,,
,,,,,,,,,,,,,FF,,,,,,,,2.1185,,,,,,,,,,,,,,,,,,,,,,61030e69dd2c21915339e898,610369d6f1151bccffdc3de9,2021-07-29_22h54.47.254,Simcolourproject_2stim_asymm_v5,2020.2.10,MacIntel,60,61025ae37ef11b136ea224fe,,,,,,,,,3317,38.24829102,12.70083618,1,0,0,response1disk,,6,26.95111084,-0.395385742,1,0,0,rectangle,-55.85400391,-41.04302979,1,0,0,-0.808288574,2.900115967,1,0,0,0,93,93,141,1,,response5disk_3,TRUE,2,2,"[65,171,306,302,284,239,81,111,231,40,234,186,62,150,209,171,174,94,6,135]",5.0675,rectangle
,,,,,,,,,,,,,FF,,,,,,,,0.9857,,,,,,,,,,,,,,,,,,,,,,61030e69dd2c21915339e898,610369d6f1151bccffdc3de9,2021-07-29_22h54.47.254,Simcolourproject_2stim_asymm_v5,2020.2.10,MacIntel,60,61025ae37ef11b136ea224fe,,,,,,,,,2517,74.22302246,-49.35238647,1,0,0,response3disk,,5,16.17205811,-8.238800049,1,0,0,rectangle,16.17205811,-8.238800049,1,0,0,16.17205811,-8.238800049,1,0,0,0,94,94,132,1,,,,,,,,
,,,,,,,,,,,,,FF,,,,,,,,0.7834,,,,,,,,,,,,,,,,,,,,,,61030e69dd2c21915339e898,610369d6f1151bccffdc3de9,2021-07-29_22h54.47.254,Simcolourproject_2stim_asymm_v5,2020.2.10,MacIntel,60,61025ae37ef11b136ea224fe,,,,,,,,,1171,39.1809082,-22.28414917,1,0,0,response3disk,,5,23.58032227,-7.829589844,1,0,0,rectangle,23.58032227,-7.829589844,1,0,0,23.58032227,-7.829589844,1,0,0,0,95,95,39,1,,,,,,,,
,,,,,,,,,,,,,FF,,,,,,,,1.0059,,,,,,,,,,,,,,,,,,,,,,61030e69dd2c21915339e898,610369d6f1151bccffdc3de9,2021-07-29_22h54.47.254,Simcolourproject_2stim_asymm_v5,2020.2.10,MacIntel,60,61025ae37ef11b136ea224fe,,,,,,,,,649,22.61535645,-41.64266968,1,0,0,response3disk,,4,21.48010254,-8.915374756,1,0,0,rectangle,21.48010254,-8.915374756,1,0,0,21.48010254,-8.915374756,1,0,0,0,96,96,139,1,,,,,,,,
,,,,,,,,,,,,,FF,,,,,,,,1.2319,,,,,,,,,,,,,,,,,,,,,,61030e69dd2c21915339e898,610369d6f1151bccffdc3de9,2021-07-29_22h54.47.254,Simcolourproject_2stim_asymm_v5,2020.2.10,MacIntel,60,61025ae37ef11b136ea224fe,,,,,,,,,4158,45.69592285,17.49002075,1,0,0,response1disk,,6,21.72814941,4.672729492,1,0,0,rectangle,21.72814941,4.672729492,1,0,0,21.72814941,4.672729492,1,0,0,0,97,97,90,1,,,,,,,,
,,,,,,,,,,,,,FF,,,,,,,,1.1857,,,,,,,,,,,,,,,,,,,,,,61030e69dd2c21915339e898,610369d6f1151bccffdc3de9,2021-07-29_22h54.47.254,Simcolourproject_2stim_asymm_v5,2020.2.10,MacIntel,60,61025ae37ef11b136ea224fe,,,,,,,,,436,-40.20281982,-28.8946228,1,0,0,response5disk,,2,-5.896972656,-12.31503296,1,0,0,rectangle,-5.896972656,-12.31503296,1,0,0,-5.896972656,-12.31503296,1,0,0,0,98,98,153,1,,,,,,,,
,,,,,,,,,,,,,FF,,,,,,,,1.1835,,,,,,,,,,,,,,,,,,,,,,61030e69dd2c21915339e898,610369d6f1151bccffdc3de9,2021-07-29_22h54.47.254,Simcolourproject_2stim_asymm_v5,2020.2.10,MacIntel,60,61025ae37ef11b136ea224fe,,,,,,,,,3368,33.57891846,22.72769165,1,0,0,response1disk,,6,5.580200195,8.170562744,1,0,0,rectangle,5.580200195,8.170562744,1,0,0,5.580200195,8.170562744,1,0,0,0,99,99,91,1,,,,,,,,
,,,,,,,,,,,,,FF,,,,,,,,0.9507,,,,,,,,,,,,,,,,,,,,,,61030e69dd2c21915339e898,610369d6f1151bccffdc3de9,2021-07-29_22h54.47.254,Simcolourproject_2stim_asymm_v5,2020.2.10,MacIntel,60,61025ae37ef11b136ea224fe,,,,,,,,,3205,-24.48986816,9.91116333,1,0,0,response7disk,,1,4.458435059,1.82119751,1,0,0,rectangle,4.458435059,1.82119751,1,0,0,4.458435059,1.82119751,1,0,0,0,100,100,27,1,,,,,,,,
,,,,,,,,,,,,,FF,,,,,,,,1.9149,,,,,,,,,,,,,,,,,,,,,,61030e69dd2c21915339e898,610369d6f1151bccffdc3de9,2021-07-29_22h54.47.254,Simcolourproject_2stim_asymm_v5,2020.2.10,MacIntel,60,61025ae37ef11b136ea224fe,,,,,,,,,4101,-10.21557617,-62.28771973,1,0,0,response5disk,,3,1.416015625,-9.700317383,1,0,0,rectangle,1.416015625,-9.700317383,1,0,0,1.416015625,-9.700317383,1,0,0,0,101,101,46,1,,,,,,,,
,,,,,,,,,,,,,FF,,,,,,,,1.1003,,,,,,,,,,,,,,,,,,,,,,61030e69dd2c21915339e898,610369d6f1151bccffdc3de9,2021-07-29_22h54.47.254,Simcolourproject_2stim_asymm_v5,2020.2.10,MacIntel,60,61025ae37ef11b136ea224fe,,,,,,,,,3960,-20.96655273,-41.35406494,1,0,0,response5disk,,3,-9.483947754,-12.26275635,1,0,0,rectangle,-9.483947754,-12.26275635,1,0,0,-9.483947754,-12.26275635,1,0,0,0,102,102,108,1,,,,,,,,
,,,,,,,,,,,,,FF,,,,,,,,1.0694,,,,,,,,,,,,,,,,,,,,,,61030e69dd2c21915339e898,610369d6f1151bccffdc3de9,2021-07-29_22h54.47.254,Simcolourproject_2stim_asymm_v5,2020.2.10,MacIntel,60,61025ae37ef11b136ea224fe,,,,,,,,,4213,56.2154541,23.04760742,1,0,0,response1disk,,6,30.71362305,9.615661621,1,0,0,rectangle,30.71362305,9.615661621,1,0,0,30.71362305,9.615661621,1,0,0,0,103,103,146,1,,,,,,,,
,,,,,,,,,,,,,FF,,,,,,,,1.1667,,,,,,,,,,,,,,,,,,,,,,61030e69dd2c21915339e898,610369d6f1151bccffdc3de9,2021-07-29_22h54.47.254,Simcolourproject_2stim_asymm_v5,2020.2.10,MacIntel,60,61025ae37ef11b136ea224fe,,,,,,,,,693,-32.07312012,-19.24554443,1,0,0,response5disk,,2,-1.550170898,-0.971069336,1,0,0,rectangle,-1.550170898,-0.971069336,1,0,0,-1.550170898,-0.971069336,1,0,0,0,104,104,152,1,,,,,,,,
,,,,,,,,,,,,,FF,,,,,,,,1.0831,,,,,,,,,,,,,,,,,,,,,,61030e69dd2c21915339e898,610369d6f1151bccffdc3de9,2021-07-29_22h54.47.254,Simcolourproject_2stim_asymm_v5,2020.2.10,MacIntel,60,61025ae37ef11b136ea224fe,,,,,,,,,3393,-36.82489014,19.44918823,1,0,0,response7disk,,1,1.885620117,8.875427246,1,0,0,rectangle,1.885620117,8.875427246,1,0,0,1.885620117,8.875427246,1,0,0,0,105,105,130,1,,,,,,,,
,,,,,,,,,,,,,FF,,,,,,,,1.8571,,,,,,,,,,,,,,,,,,,,,,61030e69dd2c21915339e898,610369d6f1151bccffdc3de9,2021-07-29_22h54.47.254,Simcolourproject_2stim_asymm_v5,2020.2.10,MacIntel,60,61025ae37ef11b136ea224fe,,,,,,,,,432,33.00366211,-19.32394409,1,0,0,response3disk,,5,12.7366333,-2.350708008,1,0,0,rectangle,12.7366333,-2.350708008,1,0,0,12.7366333,-2.350708008,1,0,0,0,106,106,106,1,,,,,,,,
,,,,,,,,,,,,,FF,,,,,,,,1.9015,,,,,,,,,,,,,,,,,,,,,,61030e69dd2c21915339e898,610369d6f1151bccffdc3de9,2021-07-29_22h54.47.254,Simcolourproject_2stim_asymm_v5,2020.2.10,MacIntel,60,61025ae37ef11b136ea224fe,,,,,,,,,3046,-61.73144531,22.00915527,1,0,0,response7disk,,1,-23.0982666,13.18518066,1,0,0,rectangle,-23.0982666,13.18518066,1,0,0,-23.0982666,13.18518066,1,0,0,0,107,107,122,1,,,,,,,,
,,,,,,,,,,,,,FF,,,,,,,,1.1997,,,,,,,,,,,,,,,,,,,,,,61030e69dd2c21915339e898,610369d6f1151bccffdc3de9,2021-07-29_22h54.47.254,Simcolourproject_2stim_asymm_v5,2020.2.10,MacIntel,60,61025ae37ef11b136ea224fe,,,,,,,,,3839,-40.23681641,9.898132324,1,0,0,response7disk,,1,-8.476196289,-7.46206665,1,0,0,rectangle,-8.476196289,-7.46206665,1,0,0,-8.476196289,-7.46206665,1,0,0,0,108,108,64,1,,,,,,,,
,,,,,,,,,,,,,FF,,,,,,,,0.8665,,,,,,,,,,,,,,,,,,,,,,61030e69dd2c21915339e898,610369d6f1151bccffdc3de9,2021-07-29_22h54.47.254,Simcolourproject_2stim_asymm_v5,2020.2.10,MacIntel,60,61025ae37ef11b136ea224fe,,,,,,,,,314,-18.86376953,-42.83050537,1,0,0,response5disk,,3,8.112976074,6.46862793,1,0,0,rectangle,8.112976074,6.46862793,1,0,0,8.112976074,6.46862793,1,0,0,0,109,109,52,1,,,,,,,,
,,,,,,,,,,,,,FF,,,,,,,,1.3051,,,,,,,,,,,,,,,,,,,,,,61030e69dd2c21915339e898,610369d6f1151bccffdc3de9,2021-07-29_22h54.47.254,Simcolourproject_2stim_asymm_v5,2020.2.10,MacIntel,60,61025ae37ef11b136ea224fe,,,,,,,,,873,-41.96972656,-18.26095581,1,0,0,response5disk,,2,-18.07452393,1.344299316,1,0,0,rectangle,52.00750732,68.79244995,1,0,0,12.20275879,10.34576416,1,0,0,0,110,110,88,1,,response1disk_3,TRUE,7,7,"[65,171,306,302,284,239,81,111,231,40,234,186,62,150,209,171,174,94,6,135]",1.9832,rectangle
,,,,,,,,,,,,,FF,,,,,,,,1.0166,,,,,,,,,,,,,,,,,,,,,,61030e69dd2c21915339e898,610369d6f1151bccffdc3de9,2021-07-29_22h54.47.254,Simcolourproject_2stim_asymm_v5,2020.2.10,MacIntel,60,61025ae37ef11b136ea224fe,,,,,,,,,3965,-17.93048096,48.59509277,1,0,0,response7disk,,0,-14.80706787,6.204101563,1,0,0,rectangle,-14.80706787,6.204101563,1,0,0,-14.80706787,6.204101563,1,0,0,0,111,111,59,1,,,,,,,,
,,,,,,,,,,,,,FF,,,,,,,,1.4506,,,,,,,,,,,,,,,,,,,,,,61030e69dd2c21915339e898,610369d6f1151bccffdc3de9,2021-07-29_22h54.47.254,Simcolourproject_2stim_asymm_v5,2020.2.10,MacIntel,60,61025ae37ef11b136ea224fe,,,,,,,,,4186,-54.45202637,-12.86877441,1,0,0,response5disk,,2,-22.94732666,-11.00720215,1,0,0,rectangle,-22.94732666,-11.00720215,1,0,0,-22.94732666,-11.00720215,1,0,0,0,112,112,61,1,,,,,,,,
,,,,,,,,,,,,,FF,,,,,,,,0.9167,,,,,,,,,,,,,,,,,,,,,,61030e69dd2c21915339e898,610369d6f1151bccffdc3de9,2021-07-29_22h54.47.254,Simcolourproject_2stim_asymm_v5,2020.2.10,MacIntel,60,61025ae37ef11b136ea224fe,,,,,,,,,104,-22.94732666,-43.38122559,1,0,0,response5disk,,3,6.027893066,-14.23986816,1,0,0,rectangle,6.027893066,-14.23986816,1,0,0,6.027893066,-14.23986816,1,0,0,0,113,113,70,1,,,,,,,,
,,,,,,,,,,,,,FF,,,,,,,,1.3001,,,,,,,,,,,,,,,,,,,,,,61030e69dd2c21915339e898,610369d6f1151bccffdc3de9,2021-07-29_22h54.47.254,Simcolourproject_2stim_asymm_v5,2020.2.10,MacIntel,60,61025ae37ef11b136ea224fe,,,,,,,,,413,35.49475098,-37.25091553,1,0,0,response3disk,,4,25.27905273,4.3152771,1,0,0,rectangle,25.27905273,4.3152771,1,0,0,25.27905273,4.3152771,1,0,0,0,114,114,127,1,,,,,,,,
,,,,,,,,,,,,,FF,,,,,,,,1.3005,,,,,,,,,,,,,,,,,,,,,,61030e69dd2c21915339e898,610369d6f1151bccffdc3de9,2021-07-29_22h54.47.254,Simcolourproject_2stim_asymm_v5,2020.2.10,MacIntel,60,61025ae37ef11b136ea224fe,,,,,,,,,217,51.8760376,40.86776733,1,0,0,response1disk,,6,6.479980469,15.65478516,1,0,0,rectangle,6.479980469,15.65478516,1,0,0,6.479980469,15.65478516,1,0,0,0,115,115,124,1,,,,,,,,
,,,,,,,,,,,,,FF,,,,,,,,1.1168,,,,,,,,,,,,,,,,,,,,,,61030e69dd2c21915339e898,610369d6f1151bccffdc3de9,2021-07-29_22h54.47.254,Simcolourproject_2stim_asymm_v5,2020.2.10,MacIntel,60,61025ae37ef11b136ea224fe,,,,,,,,,2732,-48.51745605,-55.0871582,1,0,0,response5disk,,3,-14.02362061,-17.77441406,1,0,0,rectangle,-14.02362061,-17.77441406,1,0,0,-14.02362061,-17.77441406,1,0,0,0,116,116,54,1,,,,,,,,
,,,,,,,,,,,,,FF,,,,,,,,1.2192,,,,,,,,,,,,,,,,,,,,,,61030e69dd2c21915339e898,610369d6f1151bccffdc3de9,2021-07-29_22h54.47.254,Simcolourproject_2stim_asymm_v5,2020.2.10,MacIntel,60,61025ae37ef11b136ea224fe,,,,,,,,,1940,9.305786133,-43.70410156,1,0,0,response3disk,,4,1.17590332,5.523376465,1,0,0,rectangle,1.17590332,5.523376465,1,0,0,1.17590332,5.523376465,1,0,0,0,117,117,103,1,,,,,,,,
,,,,,,,,,,,,,FF,,,,,,,,2.4849,,,,,,,,,,,,,,,,,,,,,,61030e69dd2c21915339e898,610369d6f1151bccffdc3de9,2021-07-29_22h54.47.254,Simcolourproject_2stim_asymm_v5,2020.2.10,MacIntel,60,61025ae37ef11b136ea224fe,,,,,,,,,2628,71.76837158,16.34979248,1,0,0,response1disk,,6,11.93157959,-4.973693848,1,0,0,rectangle,11.93157959,-4.973693848,1,0,0,11.93157959,-4.973693848,1,0,0,0,118,118,95,1,,,,,,,,
,,,,,,,,,,,,,FF,,,,,,,,2.214,,,,,,,,,,,,,,,,,,,,,,61030e69dd2c21915339e898,610369d6f1151bccffdc3de9,2021-07-29_22h54.47.254,Simcolourproject_2stim_asymm_v5,2020.2.10,MacIntel,60,61025ae37ef11b136ea224fe,,,,,,,,,2501,32.63146973,46.68884277,1,0,0,response1disk,,7,4.038879395,-1.165161133,1,0,0,rectangle,4.038879395,-1.165161133,1,0,0,4.038879395,-1.165161133,1,0,0,0,119,119,11,1,,,,,,,,
,,,,,,,,,,,,,FF,,,,,,,,1.4838,,,,,,,,,,,,,,,,,,,,,,61030e69dd2c21915339e898,610369d6f1151bccffdc3de9,2021-07-29_22h54.47.254,Simcolourproject_2stim_asymm_v5,2020.2.10,MacIntel,60,61025ae37ef11b136ea224fe,,,,,,,,,2525,48.76916504,15.51699829,1,0,0,response1disk,,6,16.03533936,-3.033935547,1,0,0,rectangle,16.03533936,-3.033935547,1,0,0,16.03533936,-3.033935547,1,0,0,0,120,120,119,1,,,,,,,,
,,,,,,,,,,,,,FF,,,,,,,,2.1659,,,,,,,,,,,,,,,,,,,,,,61030e69dd2c21915339e898,610369d6f1151bccffdc3de9,2021-07-29_22h54.47.254,Simcolourproject_2stim_asymm_v5,2020.2.10,MacIntel,60,61025ae37ef11b136ea224fe,,,,,,,,,3160,-10.15118408,-56.87701416,1,0,0,response5disk,,3,1.073608398,-8.392547607,1,0,0,rectangle,1.073608398,-8.392547607,1,0,0,1.073608398,-8.392547607,1,0,0,0,121,121,156,1,,,,,,,,
,,,,,,,,,,,,,FF,,,,,,,,0.8689,,,,,,,,,,,,,,,,,,,,,,61030e69dd2c21915339e898,610369d6f1151bccffdc3de9,2021-07-29_22h54.47.254,Simcolourproject_2stim_asymm_v5,2020.2.10,MacIntel,60,61025ae37ef11b136ea224fe,,,,,,,,,471,41.0803833,-32.19702148,1,0,0,response3disk,,5,20.41314697,-9.081542969,1,0,0,rectangle,20.41314697,-9.081542969,1,0,0,20.41314697,-9.081542969,1,0,0,0,122,122,123,1,,,,,,,,
,,,,,,,,,,,,,FF,,,,,,,,1.1022,,,,,,,,,,,,,,,,,,,,,,61030e69dd2c21915339e898,610369d6f1151bccffdc3de9,2021-07-29_22h54.47.254,Simcolourproject_2stim_asymm_v5,2020.2.10,MacIntel,60,61025ae37ef11b136ea224fe,,,,,,,,,2700,28.21118164,-13.71881104,1,0,0,response3disk,,5,12.77087402,-1.690185547,1,0,0,rectangle,12.77087402,-1.690185547,1,0,0,12.77087402,-1.690185547,1,0,0,0,123,123,15,1,,,,,,,,
,,,,,,,,,,,,,FF,,,,,,,,1.4272,,,,,,,,,,,,,,,,,,,,,,61030e69dd2c21915339e898,610369d6f1151bccffdc3de9,2021-07-29_22h54.47.254,Simcolourproject_2stim_asymm_v5,2020.2.10,MacIntel,60,61025ae37ef11b136ea224fe,,,,,,,,,3036,-29.09741211,-40.82669067,1,0,0,response5disk,,3,-2.473266602,-0.206756592,1,0,0,rectangle,-2.473266602,-0.206756592,1,0,0,-2.473266602,-0.206756592,1,0,0,0,124,124,35,1,,,,,,,,
,,,,,,,,,,,,,FF,,,,,,,,0.913,,,,,,,,,,,,,,,,,,,,,,61030e69dd2c21915339e898,610369d6f1151bccffdc3de9,2021-07-29_22h54.47.254,Simcolourproject_2stim_asymm_v5,2020.2.10,MacIntel,60,61025ae37ef11b136ea224fe,,,,,,,,,1370,-33.54534912,22.38897705,1,0,0,response7disk,,1,-9.423278809,13.47186279,1,0,0,rectangle,-9.423278809,13.47186279,1,0,0,-9.423278809,13.47186279,1,0,0,0,125,125,58,1,,,,,,,,
,,,,,,,,,,,,,FF,,,,,,,,0.768,,,,,,,,,,,,,,,,,,,,,,61030e69dd2c21915339e898,610369d6f1151bccffdc3de9,2021-07-29_22h54.47.254,Simcolourproject_2stim_asymm_v5,2020.2.10,MacIntel,60,61025ae37ef11b136ea224fe,,,,,,,,,4218,-16.16162109,44.46722412,1,0,0,response7disk,,0,-9.612060547,0.873901367,1,0,0,rectangle,-9.612060547,0.873901367,1,0,0,-9.612060547,0.873901367,1,0,0,0,126,126,131,1,,,,,,,,
,,,,,,,,,,,,,FF,,,,,,,,1.1579,,,,,,,,,,,,,,,,,,,,,,61030e69dd2c21915339e898,610369d6f1151bccffdc3de9,2021-07-29_22h54.47.254,Simcolourproject_2stim_asymm_v5,2020.2.10,MacIntel,60,61025ae37ef11b136ea224fe,,,,,,,,,4041,-54.27984619,22.09051514,1,0,0,response7disk,,1,-26.08361816,-4.204315186,1,0,0,rectangle,-26.08361816,-4.204315186,1,0,0,-26.08361816,-4.204315186,1,0,0,0,127,127,73,1,,,,,,,,
,,,,,,,,,,,,,FF,,,,,,,,0.7158,,,,,,,,,,,,,,,,,,,,,,61030e69dd2c21915339e898,610369d6f1151bccffdc3de9,2021-07-29_22h54.47.254,Simcolourproject_2stim_asymm_v5,2020.2.10,MacIntel,60,61025ae37ef11b136ea224fe,,,,,,,,,2480,-29.03613281,56.90484619,1,0,0,response7disk,,0,-20.79516602,13.02301025,1,0,0,rectangle,-20.79516602,13.02301025,1,0,0,-20.79516602,13.02301025,1,0,0,0,128,128,0,1,,,,,,,,
,,,,,,,,,,,,,FF,,,,,,,,0.6837,,,,,,,,,,,,,,,,,,,,,,61030e69dd2c21915339e898,610369d6f1151bccffdc3de9,2021-07-29_22h54.47.254,Simcolourproject_2stim_asymm_v5,2020.2.10,MacIntel,60,61025ae37ef11b136ea224fe,,,,,,,,,3705,-26.11206055,48.11132813,1,0,0,response7disk,,0,-21.22088623,9.265991211,1,0,0,rectangle,-21.22088623,9.265991211,1,0,0,-21.22088623,9.265991211,1,0,0,0,129,129,144,1,,,,,,,,
,,,,,,,,,,,,,FF,,,,,,,,0.8226,,,,,,,,,,,,,,,,,,,,,,61030e69dd2c21915339e898,610369d6f1151bccffdc3de9,2021-07-29_22h54.47.254,Simcolourproject_2stim_asymm_v5,2020.2.10,MacIntel,60,61025ae37ef11b136ea224fe,,,,,,,,,2985,-31.16162109,23.49047852,1,0,0,response7disk,,1,-19.85620117,1.671081543,1,0,0,rectangle,-19.85620117,1.671081543,1,0,0,-19.85620117,1.671081543,1,0,0,0,130,130,41,1,,,,,,,,
,,,,,,,,,,,,,FF,,,,,,,,0.8312,,,,,,,,,,,,,,,,,,,,,,61030e69dd2c21915339e898,610369d6f1151bccffdc3de9,2021-07-29_22h54.47.254,Simcolourproject_2stim_asymm_v5,2020.2.10,MacIntel,60,61025ae37ef11b136ea224fe,,,,,,,,,552,-34.62310791,-56.94625854,1,0,0,response5disk,,3,-2.320983887,-9.780639648,1,0,0,rectangle,-2.320983887,-9.780639648,1,0,0,-2.320983887,-9.780639648,1,0,0,0,131,131,51,1,,,,,,,,
,,,,,,,,,,,,,FF,,,,,,,,0.9347,,,,,,,,,,,,,,,,,,,,,,61030e69dd2c21915339e898,610369d6f1151bccffdc3de9,2021-07-29_22h54.47.254,Simcolourproject_2stim_asymm_v5,2020.2.10,MacIntel,60,61025ae37ef11b136ea224fe,,,,,,,,,2388,49.15222168,29.43161011,1,0,0,response1disk,,6,28.00317383,3.983764648,1,0,0,rectangle,28.00317383,3.983764648,1,0,0,28.00317383,3.983764648,1,0,0,0,132,132,83,1,,,,,,,,
,,,,,,,,,,,,,FF,,,,,,,,2.533,,,,,,,,,,,,,,,,,,,,,,61030e69dd2c21915339e898,610369d6f1151bccffdc3de9,2021-07-29_22h54.47.254,Simcolourproject_2stim_asymm_v5,2020.2.10,MacIntel,60,61025ae37ef11b136ea224fe,,,,,,,,,3926,50.62634277,-37.65139771,1,0,0,response3disk,,5,7.161132813,-0.801208496,1,0,0,rectangle,7.161132813,-0.801208496,1,0,0,7.161132813,-0.801208496,1,0,0,0,133,133,75,1,,,,,,,,
,,,,,,,,,,,,,FF,,,,,,,,1.4495,,,,,,,,,,,,,,,,,,,,,,61030e69dd2c21915339e898,610369d6f1151bccffdc3de9,2021-07-29_22h54.47.254,Simcolourproject_2stim_asymm_v5,2020.2.10,MacIntel,60,61025ae37ef11b136ea224fe,,,,,,,,,4308,47.3861084,44.23632813,1,0,0,response1disk,,6,1.857421875,2.005004883,1,0,0,rectangle,44.7175293,-26.77893066,1,0,0,-1.655273438,-2.283325195,1,0,0,0,134,134,111,1,,response3disk_3,TRUE,5,5,"[65,171,306,302,284,239,81,111,231,40,234,186,62,150,209,171,174,94,6,135]",2.6313,rectangle
,,,,,,,,,,,,,FF,,,,,,,,1.5674,,,,,,,,,,,,,,,,,,,,,,61030e69dd2c21915339e898,610369d6f1151bccffdc3de9,2021-07-29_22h54.47.254,Simcolourproject_2stim_asymm_v5,2020.2.10,MacIntel,60,61025ae37ef11b136ea224fe,,,,,,,,,619,22.72668457,-53.87945557,1,0,0,response3disk,,4,-9.201171875,-1.386016846,1,0,0,rectangle,-9.201171875,-1.386016846,1,0,0,-9.201171875,-1.386016846,1,0,0,0,135,135,47,1,,,,,,,,
,,,,,,,,,,,,,FF,,,,,,,,1.0552,,,,,,,,,,,,,,,,,,,,,,61030e69dd2c21915339e898,610369d6f1151bccffdc3de9,2021-07-29_22h54.47.254,Simcolourproject_2stim_asymm_v5,2020.2.10,MacIntel,60,61025ae37ef11b136ea224fe,,,,,,,,,3803,-27.79370117,-59.22937012,1,0,0,response5disk,,3,1.558959961,-13.17416382,1,0,0,rectangle,1.558959961,-13.17416382,1,0,0,1.558959961,-13.17416382,1,0,0,0,136,136,76,1,,,,,,,,
,,,,,,,,,,,,,FF,,,,,,,,7.0453,,,,,,,,,,,,,,,,,,,,,,61030e69dd2c21915339e898,610369d6f1151bccffdc3de9,2021-07-29_22h54.47.254,Simcolourproject_2stim_asymm_v5,2020.2.10,MacIntel,60,61025ae37ef11b136ea224fe,,,,,,,,,4220,50.52471924,-29.91271973,1,0,0,response3disk,,5,-14.37286377,8.528717041,1,0,0,rectangle,-14.37286377,8.528717041,1,0,0,-14.37286377,8.528717041,1,0,0,0,137,137,45,1,,,,,,,,
,,,,,,,,,,,,,FF,,,,,,,,1.1003,,,,,,,,,,,,,,,,,,,,,,61030e69dd2c21915339e898,610369d6f1151bccffdc3de9,2021-07-29_22h54.47.254,Simcolourproject_2stim_asymm_v5,2020.2.10,MacIntel,60,61025ae37ef11b136ea224fe,,,,,,,,,1725,60.56591797,19.9786377,1,0,0,response1disk,,6,11.75476074,7.489685059,1,0,0,rectangle,11.75476074,7.489685059,1,0,0,11.75476074,7.489685059,1,0,0,0,138,138,1,1,,,,,,,,
,,,,,,,,,,,,,FF,,,,,,,,1.3336,,,,,,,,,,,,,,,,,,,,,,61030e69dd2c21915339e898,610369d6f1151bccffdc3de9,2021-07-29_22h54.47.254,Simcolourproject_2stim_asymm_v5,2020.2.10,MacIntel,60,61025ae37ef11b136ea224fe,,,,,,,,,384,41.74456787,-34.81008911,1,0,0,response3disk,,5,-1.234069824,-0.317352295,1,0,0,rectangle,-1.234069824,-0.317352295,1,0,0,-1.234069824,-0.317352295,1,0,0,0,139,139,101,1,,,,,,,,
,,,,,,,,,,,,,FF,,,,,,,,1.2927,,,,,,,,,,,,,,,,,,,,,,61030e69dd2c21915339e898,610369d6f1151bccffdc3de9,2021-07-29_22h54.47.254,Simcolourproject_2stim_asymm_v5,2020.2.10,MacIntel,60,61025ae37ef11b136ea224fe,,,,,,,,,3688,16.75292969,-45.16949463,1,0,0,response3disk,,4,8.976867676,17.62304688,1,0,0,rectangle,8.976867676,17.62304688,1,0,0,8.976867676,17.62304688,1,0,0,0,140,140,143,1,,,,,,,,
,,,,,,,,,,,,,FF,,,,,,,,1.1329,,,,,,,,,,,,,,,,,,,,,,61030e69dd2c21915339e898,610369d6f1151bccffdc3de9,2021-07-29_22h54.47.254,Simcolourproject_2stim_asymm_v5,2020.2.10,MacIntel,60,61025ae37ef11b136ea224fe,,,,,,,,,3378,-33.66607666,-47.18701172,1,0,0,response5disk,,3,-9.393798828,-2.778717041,1,0,0,rectangle,-9.393798828,-2.778717041,1,0,0,-9.393798828,-2.778717041,1,0,0,0,141,141,44,1,,,,,,,,
,,,,,,,,,,,,,FF,,,,,,,,0.9717,,,,,,,,,,,,,,,,,,,,,,61030e69dd2c21915339e898,610369d6f1151bccffdc3de9,2021-07-29_22h54.47.254,Simcolourproject_2stim_asymm_v5,2020.2.10,MacIntel,60,61025ae37ef11b136ea224fe,,,,,,,,,2565,48.86254883,17.22076416,1,0,0,response1disk,,6,17.64990234,13.68115234,1,0,0,rectangle,17.64990234,13.68115234,1,0,0,17.64990234,13.68115234,1,0,0,0,142,142,102,1,,,,,,,,
,,,,,,,,,,,,,FF,,,,,,,,1.0349,,,,,,,,,,,,,,,,,,,,,,61030e69dd2c21915339e898,610369d6f1151bccffdc3de9,2021-07-29_22h54.47.254,Simcolourproject_2stim_asymm_v5,2020.2.10,MacIntel,60,61025ae37ef11b136ea224fe,,,,,,,,,3153,-57.79730225,20.78094482,1,0,0,response7disk,,1,-6.200134277,-2.382263184,1,0,0,rectangle,-6.200134277,-2.382263184,1,0,0,-6.200134277,-2.382263184,1,0,0,0,143,143,135,1,,,,,,,,
,,,,,,,,,,,,,FF,,,,,,,,0.8169,,,,,,,,,,,,,,,,,,,,,,61030e69dd2c21915339e898,610369d6f1151bccffdc3de9,2021-07-29_22h54.47.254,Simcolourproject_2stim_asymm_v5,2020.2.10,MacIntel,60,61025ae37ef11b136ea224fe,,,,,,,,,1345,-16.72161865,-34.14880371,1,0,0,response5disk,,3,2.133850098,-10.53302002,1,0,0,rectangle,2.133850098,-10.53302002,1,0,0,2.133850098,-10.53302002,1,0,0,0,144,144,115,1,,,,,,,,
,,,,,,,,,,,,,FF,,,,,,,,0.7659,,,,,,,,,,,,,,,,,,,,,,61030e69dd2c21915339e898,610369d6f1151bccffdc3de9,2021-07-29_22h54.47.254,Simcolourproject_2stim_asymm_v5,2020.2.10,MacIntel,60,61025ae37ef11b136ea224fe,,,,,,,,,3591,-23.6706543,37.50018311,1,0,0,response7disk,,0,-16.97253418,9.587158203,1,0,0,rectangle,-16.97253418,9.587158203,1,0,0,-16.97253418,9.587158203,1,0,0,0,145,145,34,1,,,,,,,,
,,,,,,,,,,,,,FF,,,,,,,,0.8671,,,,,,,,,,,,,,,,,,,,,,61030e69dd2c21915339e898,610369d6f1151bccffdc3de9,2021-07-29_22h54.47.254,Simcolourproject_2stim_asymm_v5,2020.2.10,MacIntel,60,61025ae37ef11b136ea224fe,,,,,,,,,1452,-43.98913574,-21.52127075,1,0,0,response5disk,,2,-16.69006348,-1.713562012,1,0,0,rectangle,-16.69006348,-1.713562012,1,0,0,-16.69006348,-1.713562012,1,0,0,0,146,146,66,1,,,,,,,,
,,,,,,,,,,,,,FF,,,,,,,,1.0002,,,,,,,,,,,,,,,,,,,,,,61030e69dd2c21915339e898,610369d6f1151bccffdc3de9,2021-07-29_22h54.47.254,Simcolourproject_2stim_asymm_v5,2020.2.10,MacIntel,60,61025ae37ef11b136ea224fe,,,,,,,,,1804,43.08093262,16.97674561,1,0,0,response1disk,,6,23.33447266,11.26342773,1,0,0,rectangle,23.33447266,11.26342773,1,0,0,23.33447266,11.26342773,1,0,0,0,147,147,6,1,,,,,,,,
,,,,,,,,,,,,,FF,,,,,,,,1.3668,,,,,,,,,,,,,,,,,,,,,,61030e69dd2c21915339e898,610369d6f1151bccffdc3de9,2021-07-29_22h54.47.254,Simcolourproject_2stim_asymm_v5,2020.2.10,MacIntel,60,61025ae37ef11b136ea224fe,,,,,,,,,2036,27.54211426,-14.94647217,1,0,0,response3disk,,5,23.41943359,-14.94647217,1,0,0,rectangle,23.41943359,-14.94647217,1,0,0,23.41943359,-14.94647217,1,0,0,0,148,148,48,1,,,,,,,,
,,,,,,,,,,,,,FF,,,,,,,,1.4823,,,,,,,,,,,,,,,,,,,,,,61030e69dd2c21915339e898,610369d6f1151bccffdc3de9,2021-07-29_22h54.47.254,Simcolourproject_2stim_asymm_v5,2020.2.10,MacIntel,60,61025ae37ef11b136ea224fe,,,,,,,,,3402,38.67858887,-21.73474121,1,0,0,response3disk,,5,19.09472656,-11.78393555,1,0,0,rectangle,56.70343018,16.05700684,1,0,0,28.8414917,12.04550171,1,0,0,0,149,149,29,1,,response1disk_3,TRUE,6,6,"[65,171,306,302,284,239,81,111,231,40,234,186,62,150,209,171,174,94,6,135]",1.4337,rectangle
,,,,,,,,,,,,,FF,,,,,,,,1.0347,,,,,,,,,,,,,,,,,,,,,,61030e69dd2c21915339e898,610369d6f1151bccffdc3de9,2021-07-29_22h54.47.254,Simcolourproject_2stim_asymm_v5,2020.2.10,MacIntel,60,61025ae37ef11b136ea224fe,,,,,,,,,853,22.7477417,-30.83764648,1,0,0,response3disk,,4,22.7477417,-15.55081177,1,0,0,rectangle,22.7477417,-15.55081177,1,0,0,22.7477417,-15.55081177,1,0,0,0,150,150,89,1,,,,,,,,
,,,,,,,,,,,,,FF,,,,,,,,2.0015,,,,,,,,,,,,,,,,,,,,,,61030e69dd2c21915339e898,610369d6f1151bccffdc3de9,2021-07-29_22h54.47.254,Simcolourproject_2stim_asymm_v5,2020.2.10,MacIntel,60,61025ae37ef11b136ea224fe,,,,,,,,,3630,-58.27185059,20.28564453,1,0,0,response7disk,,1,-26.38195801,11.1736145,1,0,0,rectangle,-26.38195801,11.1736145,1,0,0,-26.38195801,11.1736145,1,0,0,0,151,151,28,1,,,,,,,,
,,,,,,,,,,,,,FF,,,,,,,,1.3822,,,,,,,,,,,,,,,,,,,,,,61030e69dd2c21915339e898,610369d6f1151bccffdc3de9,2021-07-29_22h54.47.254,Simcolourproject_2stim_asymm_v5,2020.2.10,MacIntel,60,61025ae37ef11b136ea224fe,,,,,,,,,738,-17.81634521,-42.29107666,1,0,0,response5disk,,3,2.668212891,-16.10418701,1,0,0,rectangle,2.668212891,-16.10418701,1,0,0,2.668212891,-16.10418701,1,0,0,0,152,152,82,1,,,,,,,,
,,,,,,,,,,,,,FF,,,,,,,,1.0274,,,,,,,,,,,,,,,,,,,,,,61030e69dd2c21915339e898,610369d6f1151bccffdc3de9,2021-07-29_22h54.47.254,Simcolourproject_2stim_asymm_v5,2020.2.10,MacIntel,60,61025ae37ef11b136ea224fe,,,,,,,,,882,43.33807373,-35.07281494,1,0,0,response3disk,,5,15.02868652,-13.34130859,1,0,0,rectangle,15.02868652,-13.34130859,1,0,0,15.02868652,-13.34130859,1,0,0,0,153,153,112,1,,,,,,,,
,,,,,,,,,,,,,FF,,,,,,,,1.0155,,,,,,,,,,,,,,,,,,,,,,61030e69dd2c21915339e898,610369d6f1151bccffdc3de9,2021-07-29_22h54.47.254,Simcolourproject_2stim_asymm_v5,2020.2.10,MacIntel,60,61025ae37ef11b136ea224fe,,,,,,,,,4301,60.02960205,15.49810791,1,0,0,response1disk,,6,34.6348877,6.362854004,1,0,0,rectangle,34.6348877,6.362854004,1,0,0,34.6348877,6.362854004,1,0,0,0,154,154,155,1,,,,,,,,
,,,,,,,,,,,,,FF,,,,,,,,0.7667,,,,,,,,,,,,,,,,,,,,,,61030e69dd2c21915339e898,610369d6f1151bccffdc3de9,2021-07-29_22h54.47.254,Simcolourproject_2stim_asymm_v5,2020.2.10,MacIntel,60,61025ae37ef11b136ea224fe,,,,,,,,,3724,37.16931152,51.98492432,1,0,0,response1disk,,7,22.59008789,11.8994751,1,0,0,rectangle,22.59008789,11.8994751,1,0,0,22.59008789,11.8994751,1,0,0,0,155,155,157,1,,,,,,,,
,,,,,,,,,,,,,FF,,,,,,,,0.8993,,,,,,,,,,,,,,,,,,,,,,61030e69dd2c21915339e898,610369d6f1151bccffdc3de9,2021-07-29_22h54.47.254,Simcolourproject_2stim_asymm_v5,2020.2.10,MacIntel,60,61025ae37ef11b136ea224fe,,,,,,,,,3876,-36.0098877,-19.71792603,1,0,0,response5disk,,2,-15.53039551,-10.13162231,1,0,0,rectangle,-15.53039551,-10.13162231,1,0,0,-15.53039551,-10.13162231,1,0,0,0,156,156,149,1,,,,,,,,
,,,,,,,,,,,,,FF,,,,,,,,0.9345,,,,,,,,,,,,,,,,,,,,,,61030e69dd2c21915339e898,610369d6f1151bccffdc3de9,2021-07-29_22h54.47.254,Simcolourproject_2stim_asymm_v5,2020.2.10,MacIntel,60,61025ae37ef11b136ea224fe,,,,,,,,,3644,28.48046875,-33.60314941,1,0,0,response3disk,,4,14.32366943,-6.191589355,1,0,0,rectangle,14.32366943,-6.191589355,1,0,0,14.32366943,-6.191589355,1,0,0,0,157,157,99,1,,,,,,,,
,,,,,,,,,,,,,FF,,,,,,,,1.126,,,,,,,,,,,,,,,,,,,,,,61030e69dd2c21915339e898,610369d6f1151bccffdc3de9,2021-07-29_22h54.47.254,Simcolourproject_2stim_asymm_v5,2020.2.10,MacIntel,60,61025ae37ef11b136ea224fe,,,,,,,,,1514,45.02087402,16.39678955,1,0,0,response1disk,,6,10.93121338,1.574829102,1,0,0,rectangle,10.93121338,1.574829102,1,0,0,10.93121338,1.574829102,1,0,0,0,158,158,63,1,,,,,,,,
,,,,,,,,,,,,,FF,,,,,,,,0.9168,,,,,,,,,,,,,,,,,,,,,,61030e69dd2c21915339e898,610369d6f1151bccffdc3de9,2021-07-29_22h54.47.254,Simcolourproject_2stim_asymm_v5,2020.2.10,MacIntel,60,61025ae37ef11b136ea224fe,,,,,,,,,2479,23.56427002,34.25787354,1,0,0,response1disk,,7,20.37011719,8.856689453,1,0,0,rectangle,20.37011719,8.856689453,1,0,0,20.37011719,8.856689453,1,0,0,0,159,159,65,1,,,,,,,,
,,,,,,,,,,,,,FF,,,,,,,,1.433,,,,,,,,,,,,,,,,,,,,,,61030e69dd2c21915339e898,610369d6f1151bccffdc3de9,2021-07-29_22h54.47.254,Simcolourproject_2stim_asymm_v5,2020.2.10,MacIntel,60,61025ae37ef11b136ea224fe,,,,,,,,,3235,48.75378418,26.49584961,1,0,0,response1disk,,6,18.3762207,2.596069336,1,0,0,rectangle,18.3762207,2.596069336,1,0,0,18.3762207,2.596069336,1,0,0,1,0,160,30,1,,,,,,,,
,,,,,,,,,,,,,FF,,,,,,,,0.9785,,,,,,,,,,,,,,,,,,,,,,61030e69dd2c21915339e898,610369d6f1151bccffdc3de9,2021-07-29_22h54.47.254,Simcolourproject_2stim_asymm_v5,2020.2.10,MacIntel,60,61025ae37ef11b136ea224fe,,,,,,,,,3735,26.05200195,-12.86624146,1,0,0,response3disk,,5,15.39361572,-12.86624146,1,0,0,rectangle,15.39361572,-12.86624146,1,0,0,15.39361572,-12.86624146,1,0,0,1,1,161,31,1,,,,,,,,
,,,,,,,,,,,,,FF,,,,,,,,1.7838,,,,,,,,,,,,,,,,,,,,,,61030e69dd2c21915339e898,610369d6f1151bccffdc3de9,2021-07-29_22h54.47.254,Simcolourproject_2stim_asymm_v5,2020.2.10,MacIntel,60,61025ae37ef11b136ea224fe,,,,,,,,,1511,47.24267578,-17.58215332,1,0,0,response3disk,,5,33.54656982,-14.08584595,1,0,0,rectangle,33.54656982,-14.08584595,1,0,0,33.54656982,-14.08584595,1,0,0,1,2,162,147,1,,,,,,,,
,,,,,,,,,,,,,FF,,,,,,,,1.7826,,,,,,,,,,,,,,,,,,,,,,61030e69dd2c21915339e898,610369d6f1151bccffdc3de9,2021-07-29_22h54.47.254,Simcolourproject_2stim_asymm_v5,2020.2.10,MacIntel,60,61025ae37ef11b136ea224fe,,,,,,,,,622,41.87060547,-10.30200195,1,0,0,response3disk,,5,23.03015137,-6.336303711,1,0,0,rectangle,23.03015137,-6.336303711,1,0,0,23.03015137,-6.336303711,1,0,0,1,3,163,154,1,,,,,,,,
,,,,,,,,,,,,,FF,,,,,,,,5.4831,,,,,,,,,,,,,,,,,,,,,,61030e69dd2c21915339e898,610369d6f1151bccffdc3de9,2021-07-29_22h54.47.254,Simcolourproject_2stim_asymm_v5,2020.2.10,MacIntel,60,61025ae37ef11b136ea224fe,,,,,,,,,3566,-61.19885254,-49.50802612,1,0,0,response5disk,,2,0.540649414,1.75592041,1,0,0,rectangle,0.540649414,1.75592041,1,0,0,0.540649414,1.75592041,1,0,0,1,4,164,129,1,,,,,,,,
,,,,,,,,,,,,,FF,,,,,,,,1.4506,,,,,,,,,,,,,,,,,,,,,,61030e69dd2c21915339e898,610369d6f1151bccffdc3de9,2021-07-29_22h54.47.254,Simcolourproject_2stim_asymm_v5,2020.2.10,MacIntel,60,61025ae37ef11b136ea224fe,,,,,,,,,1166,38.36914063,-45.4354248,1,0,0,response3disk,,4,12.79730225,-1.083312988,1,0,0,rectangle,12.79730225,-1.083312988,1,0,0,12.79730225,-1.083312988,1,0,0,1,5,165,14,1,,,,,,,,
,,,,,,,,,,,,,FF,,,,,,,,1.1549,,,,,,,,,,,,,,,,,,,,,,61030e69dd2c21915339e898,610369d6f1151bccffdc3de9,2021-07-29_22h54.47.254,Simcolourproject_2stim_asymm_v5,2020.2.10,MacIntel,60,61025ae37ef11b136ea224fe,,,,,,,,,1640,42.5222168,35.75860596,1,0,0,response1disk,,6,-18.01867676,6.088989258,1,0,0,rectangle,-18.01867676,6.088989258,1,0,0,-18.01867676,6.088989258,1,0,0,1,6,166,56,1,,,,,,,,
,,,,,,,,,,,,,FF,,,,,,,,1.7838,,,,,,,,,,,,,,,,,,,,,,61030e69dd2c21915339e898,610369d6f1151bccffdc3de9,2021-07-29_22h54.47.254,Simcolourproject_2stim_asymm_v5,2020.2.10,MacIntel,60,61025ae37ef11b136ea224fe,,,,,,,,,301,42.46643066,29.77557373,1,0,0,response1disk,,6,12.37750244,2.439910889,1,0,0,rectangle,12.37750244,2.439910889,1,0,0,12.37750244,2.439910889,1,0,0,1,7,167,62,1,,,,,,,,
,,,,,,,,,,,,,FF,,,,,,,,1.2672,,,,,,,,,,,,,,,,,,,,,,61030e69dd2c21915339e898,610369d6f1151bccffdc3de9,2021-07-29_22h54.47.254,Simcolourproject_2stim_asymm_v5,2020.2.10,MacIntel,60,61025ae37ef11b136ea224fe,,,,,,,,,667,56.77471924,-22.14807129,1,0,0,response3disk,,5,27.12792969,-3.328613281,1,0,0,rectangle,27.12792969,-3.328613281,1,0,0,27.12792969,-3.328613281,1,0,0,1,8,168,150,1,,,,,,,,
,,,,,,,,,,,,,FF,,,,,,,,0.8836,,,,,,,,,,,,,,,,,,,,,,61030e69dd2c21915339e898,610369d6f1151bccffdc3de9,2021-07-29_22h54.47.254,Simcolourproject_2stim_asymm_v5,2020.2.10,MacIntel,60,61025ae37ef11b136ea224fe,,,,,,,,,3104,-45.87811279,-9.386962891,1,0,0,response5disk,,2,1.570983887,-4.434631348,1,0,0,rectangle,1.570983887,-4.434631348,1,0,0,1.570983887,-4.434631348,1,0,0,1,9,169,128,1,,,,,,,,
,,,,,,,,,,,,,FF,,,,,,,,1.0825,,,,,,,,,,,,,,,,,,,,,,61030e69dd2c21915339e898,610369d6f1151bccffdc3de9,2021-07-29_22h54.47.254,Simcolourproject_2stim_asymm_v5,2020.2.10,MacIntel,60,61025ae37ef11b136ea224fe,,,,,,,,,3795,68.96600342,-41.21972656,1,0,0,response3disk,,5,27.64746094,-7.111328125,1,0,0,rectangle,55.43920898,-34.31100464,1,0,0,-4.645996094,1.889221191,1,0,0,1,10,170,87,1,,response3disk_3,TRUE,5,2,"[65,171,306,302,284,239,81,111,231,40,234,186,62,150,209,171,174,94,6,135]",4.1663,rectangle
,,,,,,,,,,,,,FF,,,,,,,,1.7182,,,,,,,,,,,,,,,,,,,,,,61030e69dd2c21915339e898,610369d6f1151bccffdc3de9,2021-07-29_22h54.47.254,Simcolourproject_2stim_asymm_v5,2020.2.10,MacIntel,60,61025ae37ef11b136ea224fe,,,,,,,,,3511,-47.88970947,24.65548706,1,0,0,response7disk,,1,-18.9107666,-0.663970947,1,0,0,rectangle,-18.9107666,-0.663970947,1,0,0,-18.9107666,-0.663970947,1,0,0,1,11,171,158,1,,,,,,,,
,,,,,,,,,,,,,FF,,,,,,,,4.1824,,,,,,,,,,,,,,,,,,,,,,61030e69dd2c21915339e898,610369d6f1151bccffdc3de9,2021-07-29_22h54.47.254,Simcolourproject_2stim_asymm_v5,2020.2.10,MacIntel,60,61025ae37ef11b136ea224fe,,,,,,,,,3325,50.66418457,25.67089844,1,0,0,response1disk,,6,1.499816895,-1.743774414,1,0,0,rectangle,1.499816895,-1.743774414,1,0,0,1.499816895,-1.743774414,1,0,0,1,12,172,52,1,,,,,,,,
,,,,,,,,,,,,,FF,,,,,,,,1.0163,,,,,,,,,,,,,,,,,,,,,,61030e69dd2c21915339e898,610369d6f1151bccffdc3de9,2021-07-29_22h54.47.254,Simcolourproject_2stim_asymm_v5,2020.2.10,MacIntel,60,61025ae37ef11b136ea224fe,,,,,,,,,2415,45.27307129,-28.42254639,1,0,0,response3disk,,5,7.027709961,-10.60772705,1,0,0,rectangle,30.16943359,47.46612549,1,0,0,16.47753906,8.952850342,1,0,0,1,13,173,11,1,,response1disk_3,TRUE,7,7,"[65,171,306,302,284,239,81,111,231,40,234,186,62,150,209,171,174,94,6,135]",1.4336,rectangle
,,,,,,,,,,,,,FF,,,,,,,,1.2675,,,,,,,,,,,,,,,,,,,,,,61030e69dd2c21915339e898,610369d6f1151bccffdc3de9,2021-07-29_22h54.47.254,Simcolourproject_2stim_asymm_v5,2020.2.10,MacIntel,60,61025ae37ef11b136ea224fe,,,,,,,,,2632,40.05975342,30.8480835,1,0,0,response1disk,,6,3.005615234,2.869750977,1,0,0,rectangle,3.005615234,2.869750977,1,0,0,3.005615234,2.869750977,1,0,0,1,14,174,28,1,,,,,,,,
,,,,,,,,,,,,,FF,,,,,,,,1.2451,,,,,,,,,,,,,,,,,,,,,,61030e69dd2c21915339e898,610369d6f1151bccffdc3de9,2021-07-29_22h54.47.254,Simcolourproject_2stim_asymm_v5,2020.2.10,MacIntel,60,61025ae37ef11b136ea224fe,,,,,,,,,3349,-34.82873535,-46.64434814,1,0,0,response5disk,,3,2.051635742,-11.03900146,1,0,0,rectangle,2.051635742,-11.03900146,1,0,0,2.051635742,-11.03900146,1,0,0,1,15,175,68,1,,,,,,,,
,,,,,,,,,,,,,FF,,,,,,,,0.8324,,,,,,,,,,,,,,,,,,,,,,61030e69dd2c21915339e898,610369d6f1151bccffdc3de9,2021-07-29_22h54.47.254,Simcolourproject_2stim_asymm_v5,2020.2.10,MacIntel,60,61025ae37ef11b136ea224fe,,,,,,,,,1839,50.17736816,-16.03375244,1,0,0,response3disk,,5,12.01464844,-2.930267334,1,0,0,rectangle,12.01464844,-2.930267334,1,0,0,12.01464844,-2.930267334,1,0,0,1,16,176,146,1,,,,,,,,
,,,,,,,,,,,,,FF,,,,,,,,0.7827,,,,,,,,,,,,,,,,,,,,,,61030e69dd2c21915339e898,610369d6f1151bccffdc3de9,2021-07-29_22h54.47.254,Simcolourproject_2stim_asymm_v5,2020.2.10,MacIntel,60,61025ae37ef11b136ea224fe,,,,,,,,,2983,59.50292969,16.72003174,1,0,0,response1disk,,6,26.87438965,6.872497559,1,0,0,rectangle,26.87438965,6.872497559,1,0,0,26.87438965,6.872497559,1,0,0,1,17,177,132,1,,,,,,,,
,,,,,,,,,,,,,FF,,,,,,,,1.1341,,,,,,,,,,,,,,,,,,,,,,61030e69dd2c21915339e898,610369d6f1151bccffdc3de9,2021-07-29_22h54.47.254,Simcolourproject_2stim_asymm_v5,2020.2.10,MacIntel,60,61025ae37ef11b136ea224fe,,,,,,,,,1288,12.16192627,-39.38632202,1,0,0,response3disk,,4,10.20202637,-6.891235352,1,0,0,rectangle,10.20202637,-6.891235352,1,0,0,10.20202637,-6.891235352,1,0,0,1,18,178,41,1,,,,,,,,
,,,,,,,,,,,,,FF,,,,,,,,1.1326,,,,,,,,,,,,,,,,,,,,,,61030e69dd2c21915339e898,610369d6f1151bccffdc3de9,2021-07-29_22h54.47.254,Simcolourproject_2stim_asymm_v5,2020.2.10,MacIntel,60,61025ae37ef11b136ea224fe,,,,,,,,,3677,-50.20062256,-19.74633789,1,0,0,response5disk,,2,0.524902344,-6.829620361,1,0,0,rectangle,0.524902344,-6.829620361,1,0,0,0.524902344,-6.829620361,1,0,0,1,19,179,92,1,,,,,,,,
,,,,,,,,,,,,,FF,,,,,,,,2.1001,,,,,,,,,,,,,,,,,,,,,,61030e69dd2c21915339e898,610369d6f1151bccffdc3de9,2021-07-29_22h54.47.254,Simcolourproject_2stim_asymm_v5,2020.2.10,MacIntel,60,61025ae37ef11b136ea224fe,,,,,,,,,1191,51.62011719,-18.15029907,1,0,0,response3disk,,5,16.8873291,-7.569946289,1,0,0,rectangle,16.8873291,-7.569946289,1,0,0,16.8873291,-7.569946289,1,0,0,1,20,180,86,1,,,,,,,,
,,,,,,,,,,,,,FF,,,,,,,,1.9497,,,,,,,,,,,,,,,,,,,,,,61030e69dd2c21915339e898,610369d6f1151bccffdc3de9,2021-07-29_22h54.47.254,Simcolourproject_2stim_asymm_v5,2020.2.10,MacIntel,60,61025ae37ef11b136ea224fe,,,,,,,,,271,41.41729736,31.00106812,1,0,0,response1disk,,6,3.432067871,-7.090942383,1,0,0,rectangle,3.432067871,-7.090942383,1,0,0,3.432067871,-7.090942383,1,0,0,1,21,181,22,1,,,,,,,,
,,,,,,,,,,,,,FF,,,,,,,,4.8681,,,,,,,,,,,,,,,,,,,,,,61030e69dd2c21915339e898,610369d6f1151bccffdc3de9,2021-07-29_22h54.47.254,Simcolourproject_2stim_asymm_v5,2020.2.10,MacIntel,60,61025ae37ef11b136ea224fe,,,,,,,,,1781,61.296875,-39.37536621,1,0,0,response3disk,,5,-6.222900391,-10.09622192,1,0,0,rectangle,-6.222900391,-10.09622192,1,0,0,-6.222900391,-10.09622192,1,0,0,1,22,182,152,1,,,,,,,,
,,,,,,,,,,,,,FF,,,,,,,,13.6875,,,,,,,,,,,,,,,,,,,,,,61030e69dd2c21915339e898,610369d6f1151bccffdc3de9,2021-07-29_22h54.47.254,Simcolourproject_2stim_asymm_v5,2020.2.10,MacIntel,60,61025ae37ef11b136ea224fe,,,,,,,,,2283,39.48809814,-50.084198,1,0,0,response3disk,,4,-21.29901123,-7.256774902,1,0,0,rectangle,-21.29901123,-7.256774902,1,0,0,-21.29901123,-7.256774902,1,0,0,1,23,183,57,1,,,,,,,,
,,,,,,,,,,,,,FF,,,,,,,,2.4025,,,,,,,,,,,,,,,,,,,,,,61030e69dd2c21915339e898,610369d6f1151bccffdc3de9,2021-07-29_22h54.47.254,Simcolourproject_2stim_asymm_v5,2020.2.10,MacIntel,60,61025ae37ef11b136ea224fe,,,,,,,,,2340,16.95819092,-31.58459473,1,0,0,response3disk,,4,-1.38269043,8.538085938,1,0,0,rectangle,-1.38269043,8.538085938,1,0,0,-1.38269043,8.538085938,1,0,0,1,24,184,113,1,,,,,,,,
,,,,,,,,,,,,,FF,,,,,,,,0.817,,,,,,,,,,,,,,,,,,,,,,61030e69dd2c21915339e898,610369d6f1151bccffdc3de9,2021-07-29_22h54.47.254,Simcolourproject_2stim_asymm_v5,2020.2.10,MacIntel,60,61025ae37ef11b136ea224fe,,,,,,,,,3436,-41.73052979,-31.57089233,1,0,0,response5disk,,2,-8.303100586,-12.05993652,1,0,0,rectangle,44.83703613,38.80047607,1,0,0,23.36273193,6.230407715,1,0,0,1,25,185,157,1,,response1disk_3,TRUE,6,6,"[65,171,306,302,284,239,81,111,231,40,234,186,62,150,209,171,174,94,6,135]",1.6171,rectangle
,,,,,,,,,,,,,FF,,,,,,,,1.0168,,,,,,,,,,,,,,,,,,,,,,61030e69dd2c21915339e898,610369d6f1151bccffdc3de9,2021-07-29_22h54.47.254,Simcolourproject_2stim_asymm_v5,2020.2.10,MacIntel,60,61025ae37ef11b136ea224fe,,,,,,,,,3572,-15.83123779,-38.18469238,1,0,0,response5disk,,3,-0.972961426,-15.25830078,1,0,0,rectangle,-0.972961426,-15.25830078,1,0,0,-0.972961426,-15.25830078,1,0,0,1,26,186,37,1,,,,,,,,
,,,,,,,,,,,,,FF,,,,,,,,0.9833,,,,,,,,,,,,,,,,,,,,,,61030e69dd2c21915339e898,610369d6f1151bccffdc3de9,2021-07-29_22h54.47.254,Simcolourproject_2stim_asymm_v5,2020.2.10,MacIntel,60,61025ae37ef11b136ea224fe,,,,,,,,,1338,41.23022461,17.77087402,1,0,0,response1disk,,6,16.04473877,2.614685059,1,0,0,rectangle,16.04473877,2.614685059,1,0,0,16.04473877,2.614685059,1,0,0,1,27,187,125,1,,,,,,,,
,,,,,,,,,,,,,FF,,,,,,,,1.183,,,,,,,,,,,,,,,,,,,,,,61030e69dd2c21915339e898,610369d6f1151bccffdc3de9,2021-07-29_22h54.47.254,Simcolourproject_2stim_asymm_v5,2020.2.10,MacIntel,60,61025ae37ef11b136ea224fe,,,,,,,,,2655,30.44335938,-47.82629395,1,0,0,response3disk,,4,6.627563477,-12.73080444,1,0,0,rectangle,6.627563477,-12.73080444,1,0,0,6.627563477,-12.73080444,1,0,0,1,28,188,116,1,,,,,,,,
,,,,,,,,,,,,,FF,,,,,,,,0.8584,,,,,,,,,,,,,,,,,,,,,,61030e69dd2c21915339e898,610369d6f1151bccffdc3de9,2021-07-29_22h54.47.254,Simcolourproject_2stim_asymm_v5,2020.2.10,MacIntel,60,61025ae37ef11b136ea224fe,,,,,,,,,1919,47.42102051,15.86901855,1,0,0,response1disk,,6,23.4017334,5.002258301,1,0,0,rectangle,23.4017334,5.002258301,1,0,0,23.4017334,5.002258301,1,0,0,1,29,189,118,1,,,,,,,,
,,,,,,,,,,,,,FF,,,,,,,,0.8354,,,,,,,,,,,,,,,,,,,,,,61030e69dd2c21915339e898,610369d6f1151bccffdc3de9,2021-07-29_22h54.47.254,Simcolourproject_2stim_asymm_v5,2020.2.10,MacIntel,60,61025ae37ef11b136ea224fe,,,,,,,,,2899,-20.26208496,-35.74481201,1,0,0,response5disk,,3,-11.78692627,-12.18041992,1,0,0,rectangle,-11.78692627,-12.18041992,1,0,0,-11.78692627,-12.18041992,1,0,0,1,30,190,20,1,,,,,,,,
,,,,,,,,,,,,,FF,,,,,,,,0.7994,,,,,,,,,,,,,,,,,,,,,,61030e69dd2c21915339e898,610369d6f1151bccffdc3de9,2021-07-29_22h54.47.254,Simcolourproject_2stim_asymm_v5,2020.2.10,MacIntel,60,61025ae37ef11b136ea224fe,,,,,,,,,3274,44.49633789,-22.94644165,1,0,0,response3disk,,5,0.679077148,-17.99865723,1,0,0,rectangle,0.679077148,-17.99865723,1,0,0,0.679077148,-17.99865723,1,0,0,1,31,191,142,1,,,,,,,,
,,,,,,,,,,,,,FF,,,,,,,,1.7503,,,,,,,,,,,,,,,,,,,,,,61030e69dd2c21915339e898,610369d6f1151bccffdc3de9,2021-07-29_22h54.47.254,Simcolourproject_2stim_asymm_v5,2020.2.10,MacIntel,60,61025ae37ef11b136ea224fe,,,,,,,,,1047,20.35327148,-35.82919312,1,0,0,response3disk,,4,9.266967773,-8.887634277,1,0,0,rectangle,9.266967773,-8.887634277,1,0,0,9.266967773,-8.887634277,1,0,0,1,32,192,66,1,,,,,,,,
,,,,,,,,,,,,,FF,,,,,,,,1.2838,,,,,,,,,,,,,,,,,,,,,,61030e69dd2c21915339e898,610369d6f1151bccffdc3de9,2021-07-29_22h54.47.254,Simcolourproject_2stim_asymm_v5,2020.2.10,MacIntel,60,61025ae37ef11b136ea224fe,,,,,,,,,749,53.9418335,16.90216064,1,0,0,response1disk,,6,18.56506348,9.08392334,1,0,0,rectangle,18.56506348,9.08392334,1,0,0,18.56506348,9.08392334,1,0,0,1,33,193,96,1,,,,,,,,
,,,,,,,,,,,,,FF,,,,,,,,1.6829,,,,,,,,,,,,,,,,,,,,,,61030e69dd2c21915339e898,610369d6f1151bccffdc3de9,2021-07-29_22h54.47.254,Simcolourproject_2stim_asymm_v5,2020.2.10,MacIntel,60,61025ae37ef11b136ea224fe,,,,,,,,,4090,-32.97613525,-37.790802,1,0,0,response5disk,,3,-17.98376465,-6.343139648,1,0,0,rectangle,-17.98376465,-6.343139648,1,0,0,-17.98376465,-6.343139648,1,0,0,1,34,194,70,1,,,,,,,,
,,,,,,,,,,,,,FF,,,,,,,,0.893,,,,,,,,,,,,,,,,,,,,,,61030e69dd2c21915339e898,610369d6f1151bccffdc3de9,2021-07-29_22h54.47.254,Simcolourproject_2stim_asymm_v5,2020.2.10,MacIntel,60,61025ae37ef11b136ea224fe,,,,,,,,,3510,-51.42773438,11.81719971,1,0,0,response7disk,,1,-16.68664551,0.371337891,1,0,0,rectangle,-16.68664551,0.371337891,1,0,0,-16.68664551,0.371337891,1,0,0,1,35,195,54,1,,,,,,,,
,,,,,,,,,,,,,FF,,,,,,,,0.968,,,,,,,,,,,,,,,,,,,,,,61030e69dd2c21915339e898,610369d6f1151bccffdc3de9,2021-07-29_22h54.47.254,Simcolourproject_2stim_asymm_v5,2020.2.10,MacIntel,60,61025ae37ef11b136ea224fe,,,,,,,,,4310,42.80108643,17.48580933,1,0,0,response1disk,,6,24.73156738,1.361572266,1,0,0,rectangle,24.73156738,1.361572266,1,0,0,24.73156738,1.361572266,1,0,0,1,36,196,1,1,,,,,,,,
,,,,,,,,,,,,,FF,,,,,,,,0.7842,,,,,,,,,,,,,,,,,,,,,,61030e69dd2c21915339e898,610369d6f1151bccffdc3de9,2021-07-29_22h54.47.254,Simcolourproject_2stim_asymm_v5,2020.2.10,MacIntel,60,61025ae37ef11b136ea224fe,,,,,,,,,2075,35.18994141,15.66467285,1,0,0,response1disk,,6,28.06555176,8.309082031,1,0,0,rectangle,28.06555176,8.309082031,1,0,0,28.06555176,8.309082031,1,0,0,1,37,197,59,1,,,,,,,,
,,,,,,,,,,,,,FF,,,,,,,,1.7755,,,,,,,,,,,,,,,,,,,,,,61030e69dd2c21915339e898,610369d6f1151bccffdc3de9,2021-07-29_22h54.47.254,Simcolourproject_2stim_asymm_v5,2020.2.10,MacIntel,60,61025ae37ef11b136ea224fe,,,,,,,,,852,39.53826904,13.75018311,1,0,0,response1disk,,6,20.85046387,-0.421600342,1,0,0,rectangle,20.85046387,-0.421600342,1,0,0,20.85046387,-0.421600342,1,0,0,1,38,198,85,1,,,,,,,,
,,,,,,,,,,,,,FF,,,,,,,,1.2173,,,,,,,,,,,,,,,,,,,,,,61030e69dd2c21915339e898,610369d6f1151bccffdc3de9,2021-07-29_22h54.47.254,Simcolourproject_2stim_asymm_v5,2020.2.10,MacIntel,60,61025ae37ef11b136ea224fe,,,,,,,,,1202,-22.0020752,-36.70404053,1,0,0,response5disk,,3,-10.76989746,-17.93701172,1,0,0,rectangle,-10.76989746,-17.93701172,1,0,0,-10.76989746,-17.93701172,1,0,0,1,39,199,27,1,,,,,,,,
,,,,,,,,,,,,,FF,,,,,,,,1.3326,,,,,,,,,,,,,,,,,,,,,,61030e69dd2c21915339e898,610369d6f1151bccffdc3de9,2021-07-29_22h54.47.254,Simcolourproject_2stim_asymm_v5,2020.2.10,MacIntel,60,61025ae37ef11b136ea224fe,,,,,,,,,2673,-31.79040527,-34.61636353,1,0,0,response5disk,,3,-18.59173584,-14.85491943,1,0,0,rectangle,-18.59173584,-14.85491943,1,0,0,-18.59173584,-14.85491943,1,0,0,1,40,200,110,1,,,,,,,,
,,,,,,,,,,,,,FF,,,,,,,,2.1349,,,,,,,,,,,,,,,,,,,,,,61030e69dd2c21915339e898,610369d6f1151bccffdc3de9,2021-07-29_22h54.47.254,Simcolourproject_2stim_asymm_v5,2020.2.10,MacIntel,60,61025ae37ef11b136ea224fe,,,,,,,,,394,46.01721191,24.26098633,1,0,0,response1disk,,6,19.7901001,14.92315674,1,0,0,rectangle,19.7901001,14.92315674,1,0,0,19.7901001,14.92315674,1,0,0,1,41,201,46,1,,,,,,,,
,,,,,,,,,,,,,FF,,,,,,,,1.617,,,,,,,,,,,,,,,,,,,,,,61030e69dd2c21915339e898,610369d6f1151bccffdc3de9,2021-07-29_22h54.47.254,Simcolourproject_2stim_asymm_v5,2020.2.10,MacIntel,60,61025ae37ef11b136ea224fe,,,,,,,,,1193,37.53308105,-23.012146,1,0,0,response3disk,,5,7.838256836,-16.13052368,1,0,0,rectangle,7.838256836,-16.13052368,1,0,0,7.838256836,-16.13052368,1,0,0,1,42,202,12,1,,,,,,,,
,,,,,,,,,,,,,FF,,,,,,,,1.124,,,,,,,,,,,,,,,,,,,,,,61030e69dd2c21915339e898,610369d6f1151bccffdc3de9,2021-07-29_22h54.47.254,Simcolourproject_2stim_asymm_v5,2020.2.10,MacIntel,60,61025ae37ef11b136ea224fe,,,,,,,,,11,23.70275879,-65.55200195,1,0,0,response3disk,,4,-9.704467773,-2.751525879,1,0,0,rectangle,-9.704467773,-2.751525879,1,0,0,-9.704467773,-2.751525879,1,0,0,1,43,203,137,1,,,,,,,,
,,,,,,,,,,,,,FF,,,,,,,,1.9002,,,,,,,,,,,,,,,,,,,,,,61030e69dd2c21915339e898,610369d6f1151bccffdc3de9,2021-07-29_22h54.47.254,Simcolourproject_2stim_asymm_v5,2020.2.10,MacIntel,60,61025ae37ef11b136ea224fe,,,,,,,,,4345,-49.87536621,9.488769531,1,0,0,response7disk,,1,-2.082641602,3.260009766,1,0,0,rectangle,-2.082641602,3.260009766,1,0,0,-2.082641602,3.260009766,1,0,0,1,44,204,98,1,,,,,,,,
,,,,,,,,,,,,,FF,,,,,,,,0.7878,,,,,,,,,,,,,,,,,,,,,,61030e69dd2c21915339e898,610369d6f1151bccffdc3de9,2021-07-29_22h54.47.254,Simcolourproject_2stim_asymm_v5,2020.2.10,MacIntel,60,61025ae37ef11b136ea224fe,,,,,,,,,3291,-49.21887207,16.01382446,1,0,0,response7disk,,1,-13.76116943,10.01251221,1,0,0,rectangle,-13.76116943,10.01251221,1,0,0,-13.76116943,10.01251221,1,0,0,1,45,205,124,1,,,,,,,,
,,,,,,,,,,,,,FF,,,,,,,,0.8606,,,,,,,,,,,,,,,,,,,,,,61030e69dd2c21915339e898,610369d6f1151bccffdc3de9,2021-07-29_22h54.47.254,Simcolourproject_2stim_asymm_v5,2020.2.10,MacIntel,60,61025ae37ef11b136ea224fe,,,,,,,,,2145,55.63189697,-30.73309326,1,0,0,response3disk,,5,-2.673034668,-9.495300293,1,0,0,rectangle,-2.673034668,-9.495300293,1,0,0,-2.673034668,-9.495300293,1,0,0,1,46,206,141,1,,,,,,,,
,,,,,,,,,,,,,FF,,,,,,,,1.4341,,,,,,,,,,,,,,,,,,,,,,61030e69dd2c21915339e898,610369d6f1151bccffdc3de9,2021-07-29_22h54.47.254,Simcolourproject_2stim_asymm_v5,2020.2.10,MacIntel,60,61025ae37ef11b136ea224fe,,,,,,,,,1616,17.51971436,-27.01226807,1,0,0,response3disk,,4,2.341247559,-13.67483521,1,0,0,rectangle,2.341247559,-13.67483521,1,0,0,2.341247559,-13.67483521,1,0,0,1,47,207,145,1,,,,,,,,
,,,,,,,,,,,,,FF,,,,,,,,1.9012,,,,,,,,,,,,,,,,,,,,,,61030e69dd2c21915339e898,610369d6f1151bccffdc3de9,2021-07-29_22h54.47.254,Simcolourproject_2stim_asymm_v5,2020.2.10,MacIntel,60,61025ae37ef11b136ea224fe,,,,,,,,,2735,19.62548828,-46.72259521,1,0,0,response3disk,,4,-4.678100586,-12.52801514,1,0,0,rectangle,59.2890625,-27.81057739,1,0,0,-18.13250732,-6.154785156,1,0,0,1,48,208,123,1,,response3disk_3,TRUE,5,3,"[65,171,306,302,284,239,81,111,231,40,234,186,62,150,209,171,174,94,6,135]",4.8517,rectangle
,,,,,,,,,,,,,FF,,,,,,,,2.2778,,,,,,,,,,,,,,,,,,,,,,61030e69dd2c21915339e898,610369d6f1151bccffdc3de9,2021-07-29_22h54.47.254,Simcolourproject_2stim_asymm_v5,2020.2.10,MacIntel,60,61025ae37ef11b136ea224fe,,,,,,,,,2167,-52.23712158,-29.48712158,1,0,0,response5disk,,2,-12.38574219,-5.136169434,1,0,0,rectangle,-12.38574219,-5.136169434,1,0,0,-12.38574219,-5.136169434,1,0,0,1,49,209,44,1,,,,,,,,
,,,,,,,,,,,,,FF,,,,,,,,1.5667,,,,,,,,,,,,,,,,,,,,,,61030e69dd2c21915339e898,610369d6f1151bccffdc3de9,2021-07-29_22h54.47.254,Simcolourproject_2stim_asymm_v5,2020.2.10,MacIntel,60,61025ae37ef11b136ea224fe,,,,,,,,,1259,28.8616333,-49.65570068,1,0,0,response3disk,,4,2.444641113,-14.36352539,1,0,0,rectangle,2.444641113,-14.36352539,1,0,0,2.444641113,-14.36352539,1,0,0,1,50,210,42,1,,,,,,,,
,,,,,,,,,,,,,FF,,,,,,,,2.6496,,,,,,,,,,,,,,,,,,,,,,61030e69dd2c21915339e898,610369d6f1151bccffdc3de9,2021-07-29_22h54.47.254,Simcolourproject_2stim_asymm_v5,2020.2.10,MacIntel,60,61025ae37ef11b136ea224fe,,,,,,,,,3197,-36.72692871,-20.61999512,1,0,0,response5disk,,2,16.51721191,-8.57409668,1,0,0,rectangle,16.51721191,-8.57409668,1,0,0,16.51721191,-8.57409668,1,0,0,1,51,211,48,1,,,,,,,,
,,,,,,,,,,,,,FF,,,,,,,,1.6019,,,,,,,,,,,,,,,,,,,,,,61030e69dd2c21915339e898,610369d6f1151bccffdc3de9,2021-07-29_22h54.47.254,Simcolourproject_2stim_asymm_v5,2020.2.10,MacIntel,60,61025ae37ef11b136ea224fe,,,,,,,,,509,27.10662842,44.38677979,1,0,0,response1disk,,7,-0.183959961,-12.61050415,1,0,0,rectangle,-0.183959961,-12.61050415,1,0,0,-0.183959961,-12.61050415,1,0,0,1,52,212,93,1,,,,,,,,
,,,,,,,,,,,,,FF,,,,,,,,1.0503,,,,,,,,,,,,,,,,,,,,,,61030e69dd2c21915339e898,610369d6f1151bccffdc3de9,2021-07-29_22h54.47.254,Simcolourproject_2stim_asymm_v5,2020.2.10,MacIntel,60,61025ae37ef11b136ea224fe,,,,,,,,,3443,-25.18890381,-48.38128662,1,0,0,response5disk,,3,-3.274414063,-16.99914551,1,0,0,rectangle,-3.274414063,-16.99914551,1,0,0,-3.274414063,-16.99914551,1,0,0,1,53,213,0,1,,,,,,,,
,,,,,,,,,,,,,FF,,,,,,,,1.3112,,,,,,,,,,,,,,,,,,,,,,61030e69dd2c21915339e898,610369d6f1151bccffdc3de9,2021-07-29_22h54.47.254,Simcolourproject_2stim_asymm_v5,2020.2.10,MacIntel,60,61025ae37ef11b136ea224fe,,,,,,,,,2302,-45.84033203,-19.17260742,1,0,0,response5disk,,2,-13.88494873,-15.16012573,1,0,0,rectangle,-13.88494873,-15.16012573,1,0,0,-13.88494873,-15.16012573,1,0,0,1,54,214,40,1,,,,,,,,
,,,,,,,,,,,,,FF,,,,,,,,1.0664,,,,,,,,,,,,,,,,,,,,,,61030e69dd2c21915339e898,610369d6f1151bccffdc3de9,2021-07-29_22h54.47.254,Simcolourproject_2stim_asymm_v5,2020.2.10,MacIntel,60,61025ae37ef11b136ea224fe,,,,,,,,,226,59.28588867,31.34259033,1,0,0,response1disk,,6,8.37512207,2.759765625,1,0,0,rectangle,8.37512207,2.759765625,1,0,0,8.37512207,2.759765625,1,0,0,1,55,215,80,1,,,,,,,,
,,,,,,,,,,,,,FF,,,,,,,,1.1029,,,,,,,,,,,,,,,,,,,,,,61030e69dd2c21915339e898,610369d6f1151bccffdc3de9,2021-07-29_22h54.47.254,Simcolourproject_2stim_asymm_v5,2020.2.10,MacIntel,60,61025ae37ef11b136ea224fe,,,,,,,,,874,-11.14361572,-30.42849731,1,0,0,response5disk,,3,1.100097656,-1.951293945,1,0,0,rectangle,1.100097656,-1.951293945,1,0,0,1.100097656,-1.951293945,1,0,0,1,56,216,6,1,,,,,,,,
,,,,,,,,,,,,,FF,,,,,,,,2.8831,,,,,,,,,,,,,,,,,,,,,,61030e69dd2c21915339e898,610369d6f1151bccffdc3de9,2021-07-29_22h54.47.254,Simcolourproject_2stim_asymm_v5,2020.2.10,MacIntel,60,61025ae37ef11b136ea224fe,,,,,,,,,993,40.06237793,-21.44494629,1,0,0,response3disk,,5,-2.207702637,-8.198272705,1,0,0,rectangle,-2.207702637,-8.198272705,1,0,0,-2.207702637,-8.198272705,1,0,0,1,57,217,49,1,,,,,,,,
,,,,,,,,,,,,,FF,,,,,,,,1.5425,,,,,,,,,,,,,,,,,,,,,,61030e69dd2c21915339e898,610369d6f1151bccffdc3de9,2021-07-29_22h54.47.254,Simcolourproject_2stim_asymm_v5,2020.2.10,MacIntel,60,61025ae37ef11b136ea224fe,,,,,,,,,2559,38.34619141,-34.0213623,1,0,0,response3disk,,5,1.779418945,-8.021118164,1,0,0,rectangle,1.779418945,-8.021118164,1,0,0,1.779418945,-8.021118164,1,0,0,1,58,218,148,1,,,,,,,,
,,,,,,,,,,,,,FF,,,,,,,,1.4651,,,,,,,,,,,,,,,,,,,,,,61030e69dd2c21915339e898,610369d6f1151bccffdc3de9,2021-07-29_22h54.47.254,Simcolourproject_2stim_asymm_v5,2020.2.10,MacIntel,60,61025ae37ef11b136ea224fe,,,,,,,,,704,-20.40411377,-51.64315796,1,0,0,response5disk,,3,5.922851563,-1.423828125,1,0,0,rectangle,5.922851563,-1.423828125,1,0,0,5.922851563,-1.423828125,1,0,0,1,59,219,38,1,,,,,,,,
,,,,,,,,,,,,,FF,,,,,,,,2.0662,,,,,,,,,,,,,,,,,,,,,,61030e69dd2c21915339e898,610369d6f1151bccffdc3de9,2021-07-29_22h54.47.254,Simcolourproject_2stim_asymm_v5,2020.2.10,MacIntel,60,61025ae37ef11b136ea224fe,,,,,,,,,1845,54.41223145,23.08551025,1,0,0,response1disk,,6,3.040161133,-2.849182129,1,0,0,rectangle,3.040161133,-2.849182129,1,0,0,3.040161133,-2.849182129,1,0,0,1,60,220,21,1,,,,,,,,
,,,,,,,,,,,,,FF,,,,,,,,1.5335,,,,,,,,,,,,,,,,,,,,,,61030e69dd2c21915339e898,610369d6f1151bccffdc3de9,2021-07-29_22h54.47.254,Simcolourproject_2stim_asymm_v5,2020.2.10,MacIntel,60,61025ae37ef11b136ea224fe,,,,,,,,,1697,22.35186768,36.47061157,1,0,0,response1disk,,7,21.52380371,5.900085449,1,0,0,rectangle,21.52380371,5.900085449,1,0,0,21.52380371,5.900085449,1,0,0,1,61,221,76,1,,,,,,,,
,,,,,,,,,,,,,FF,,,,,,,,1.1577,,,,,,,,,,,,,,,,,,,,,,61030e69dd2c21915339e898,610369d6f1151bccffdc3de9,2021-07-29_22h54.47.254,Simcolourproject_2stim_asymm_v5,2020.2.10,MacIntel,60,61025ae37ef11b136ea224fe,,,,,,,,,1515,33.92254639,10.59997559,1,0,0,response1disk,,6,13.5345459,-13.21044922,1,0,0,rectangle,13.5345459,-13.21044922,1,0,0,13.5345459,-13.21044922,1,0,0,1,62,222,75,1,,,,,,,,
,,,,,,,,,,,,,FF,,,,,,,,7.2856,,,,,,,,,,,,,,,,,,,,,,61030e69dd2c21915339e898,610369d6f1151bccffdc3de9,2021-07-29_22h54.47.254,Simcolourproject_2stim_asymm_v5,2020.2.10,MacIntel,60,61025ae37ef11b136ea224fe,,,,,,,,,2789,-25.71740723,-58.77539063,1,0,0,response5disk,,3,-2.672119141,-6.321838379,1,0,0,rectangle,-2.672119141,-6.321838379,1,0,0,-2.672119141,-6.321838379,1,0,0,1,63,223,29,1,,,,,,,,
,,,,,,,,,,,,,FF,,,,,,,,0.7805,,,,,,,,,,,,,,,,,,,,,,61030e69dd2c21915339e898,610369d6f1151bccffdc3de9,2021-07-29_22h54.47.254,Simcolourproject_2stim_asymm_v5,2020.2.10,MacIntel,60,61025ae37ef11b136ea224fe,,,,,,,,,4002,-37.27972412,-46.512146,1,0,0,response5disk,,3,-4.693603516,1.079498291,1,0,0,rectangle,-4.693603516,1.079498291,1,0,0,-4.693603516,1.079498291,1,0,0,1,64,224,111,1,,,,,,,,
,,,,,,,,,,,,,FF,,,,,,,,1.6165,,,,,,,,,,,,,,,,,,,,,,61030e69dd2c21915339e898,610369d6f1151bccffdc3de9,2021-07-29_22h54.47.254,Simcolourproject_2stim_asymm_v5,2020.2.10,MacIntel,60,61025ae37ef11b136ea224fe,,,,,,,,,577,36.85473633,-34.36776733,1,0,0,response3disk,,5,-0.200622559,0.317443848,1,0,0,rectangle,-0.200622559,0.317443848,1,0,0,-0.200622559,0.317443848,1,0,0,1,65,225,19,1,,,,,,,,
,,,,,,,,,,,,,FF,,,,,,,,1.4333,,,,,,,,,,,,,,,,,,,,,,61030e69dd2c21915339e898,610369d6f1151bccffdc3de9,2021-07-29_22h54.47.254,Simcolourproject_2stim_asymm_v5,2020.2.10,MacIntel,60,61025ae37ef11b136ea224fe,,,,,,,,,587,37.45281982,11.20874023,1,0,0,response1disk,,6,0.817993164,8.810913086,1,0,0,rectangle,0.817993164,8.810913086,1,0,0,0.817993164,8.810913086,1,0,0,1,66,226,95,1,,,,,,,,
,,,,,,,,,,,,,FF,,,,,,,,0.9602,,,,,,,,,,,,,,,,,,,,,,61030e69dd2c21915339e898,610369d6f1151bccffdc3de9,2021-07-29_22h54.47.254,Simcolourproject_2stim_asymm_v5,2020.2.10,MacIntel,60,61025ae37ef11b136ea224fe,,,,,,,,,1606,-31.83056641,-49.42074585,1,0,0,response5disk,,3,-12.82025146,-14.34268188,1,0,0,rectangle,-12.82025146,-14.34268188,1,0,0,-12.82025146,-14.34268188,1,0,0,1,67,227,23,1,,,,,,,,
,,,,,,,,,,,,,FF,,,,,,,,1.0166,,,,,,,,,,,,,,,,,,,,,,61030e69dd2c21915339e898,610369d6f1151bccffdc3de9,2021-07-29_22h54.47.254,Simcolourproject_2stim_asymm_v5,2020.2.10,MacIntel,60,61025ae37ef11b136ea224fe,,,,,,,,,1258,57.88995361,10.20797729,1,0,0,response1disk,,6,23.23980713,3.28515625,1,0,0,rectangle,23.23980713,3.28515625,1,0,0,23.23980713,3.28515625,1,0,0,1,68,228,143,1,,,,,,,,
,,,,,,,,,,,,,FF,,,,,,,,1.5365,,,,,,,,,,,,,,,,,,,,,,61030e69dd2c21915339e898,610369d6f1151bccffdc3de9,2021-07-29_22h54.47.254,Simcolourproject_2stim_asymm_v5,2020.2.10,MacIntel,60,61025ae37ef11b136ea224fe,,,,,,,,,385,36.21533203,20.86428833,1,0,0,response1disk,,6,5.187866211,6.02154541,1,0,0,rectangle,5.187866211,6.02154541,1,0,0,5.187866211,6.02154541,1,0,0,1,69,229,4,1,,,,,,,,
,,,,,,,,,,,,,FF,,,,,,,,1.0913,,,,,,,,,,,,,,,,,,,,,,61030e69dd2c21915339e898,610369d6f1151bccffdc3de9,2021-07-29_22h54.47.254,Simcolourproject_2stim_asymm_v5,2020.2.10,MacIntel,60,61025ae37ef11b136ea224fe,,,,,,,,,1378,13.70056152,-45.20126343,1,0,0,response3disk,,4,-3.809570313,-2.366027832,1,0,0,rectangle,-22.51171875,40.7616272,1,0,0,-7.99609375,4.17779541,1,0,0,1,70,230,78,1,,response7disk_3,TRUE,0,0,"[65,171,306,302,284,239,81,111,231,40,234,186,62,150,209,171,174,94,6,135]",1.9858,rectangle
,,,,,,,,,,,,,FF,,,,,,,,9.4509,,,,,,,,,,,,,,,,,,,,,,61030e69dd2c21915339e898,610369d6f1151bccffdc3de9,2021-07-29_22h54.47.254,Simcolourproject_2stim_asymm_v5,2020.2.10,MacIntel,60,61025ae37ef11b136ea224fe,,,,,,,,,1666,36.25836182,-42.85089111,1,0,0,response3disk,,4,3.133056641,-12.02429199,1,0,0,rectangle,3.133056641,-12.02429199,1,0,0,3.133056641,-12.02429199,1,0,0,1,71,231,60,1,,,,,,,,
,,,,,,,,,,,,,FF,,,,,,,,1.2653,,,,,,,,,,,,,,,,,,,,,,61030e69dd2c21915339e898,610369d6f1151bccffdc3de9,2021-07-29_22h54.47.254,Simcolourproject_2stim_asymm_v5,2020.2.10,MacIntel,60,61025ae37ef11b136ea224fe,,,,,,,,,2277,-24.66424561,-67.46472168,1,0,0,response5disk,,3,-16.40045166,-8.326446533,1,0,0,rectangle,-16.40045166,-8.326446533,1,0,0,-16.40045166,-8.326446533,1,0,0,1,72,232,50,1,,,,,,,,
,,,,,,,,,,,,,FF,,,,,,,,1.5569,,,,,,,,,,,,,,,,,,,,,,61030e69dd2c21915339e898,610369d6f1151bccffdc3de9,2021-07-29_22h54.47.254,Simcolourproject_2stim_asymm_v5,2020.2.10,MacIntel,60,61025ae37ef11b136ea224fe,,,,,,,,,2155,33.02746582,23.57110596,1,0,0,response1disk,,6,2.927734375,13.50360107,1,0,0,rectangle,70.6350708,-32.01074219,1,0,0,20.44451904,-11.82098389,1,0,0,1,73,233,25,1,,response3disk_3,TRUE,5,5,"[65,171,306,302,284,239,81,111,231,40,234,186,62,150,209,171,174,94,6,135]",1.3499,rectangle
,,,,,,,,,,,,,FF,,,,,,,,0.983,,,,,,,,,,,,,,,,,,,,,,61030e69dd2c21915339e898,610369d6f1151bccffdc3de9,2021-07-29_22h54.47.254,Simcolourproject_2stim_asymm_v5,2020.2.10,MacIntel,60,61025ae37ef11b136ea224fe,,,,,,,,,2245,-16.23156738,-54.38198853,1,0,0,response5disk,,3,2.026977539,-9.043212891,1,0,0,rectangle,2.026977539,-9.043212891,1,0,0,2.026977539,-9.043212891,1,0,0,1,74,234,114,1,,,,,,,,
,,,,,,,,,,,,,FF,,,,,,,,1.5333,,,,,,,,,,,,,,,,,,,,,,61030e69dd2c21915339e898,610369d6f1151bccffdc3de9,2021-07-29_22h54.47.254,Simcolourproject_2stim_asymm_v5,2020.2.10,MacIntel,60,61025ae37ef11b136ea224fe,,,,,,,,,2604,-46.4675293,-29.98760986,1,0,0,response5disk,,2,-4.439880371,-8.787414551,1,0,0,rectangle,-4.439880371,-8.787414551,1,0,0,-4.439880371,-8.787414551,1,0,0,1,75,235,15,1,,,,,,,,
,,,,,,,,,,,,,FF,,,,,,,,1.4178,,,,,,,,,,,,,,,,,,,,,,61030e69dd2c21915339e898,610369d6f1151bccffdc3de9,2021-07-29_22h54.47.254,Simcolourproject_2stim_asymm_v5,2020.2.10,MacIntel,60,61025ae37ef11b136ea224fe,,,,,,,,,3505,37.28411865,-23.81536865,1,0,0,response3disk,,5,8.318237305,-11.11190796,1,0,0,rectangle,8.318237305,-11.11190796,1,0,0,8.318237305,-11.11190796,1,0,0,1,76,236,35,1,,,,,,,,
,,,,,,,,,,,,,FF,,,,,,,,1.4343,,,,,,,,,,,,,,,,,,,,,,61030e69dd2c21915339e898,610369d6f1151bccffdc3de9,2021-07-29_22h54.47.254,Simcolourproject_2stim_asymm_v5,2020.2.10,MacIntel,60,61025ae37ef11b136ea224fe,,,,,,,,,4247,41.18017578,-23.1852417,1,0,0,response3disk,,5,18.04986572,-6.84588623,1,0,0,rectangle,18.04986572,-6.84588623,1,0,0,18.04986572,-6.84588623,1,0,0,1,77,237,99,1,,,,,,,,
,,,,,,,,,,,,,FF,,,,,,,,1.4496,,,,,,,,,,,,,,,,,,,,,,61030e69dd2c21915339e898,610369d6f1151bccffdc3de9,2021-07-29_22h54.47.254,Simcolourproject_2stim_asymm_v5,2020.2.10,MacIntel,60,61025ae37ef11b136ea224fe,,,,,,,,,3405,-11.24243164,-52.21813965,1,0,0,response5disk,,3,3.717773438,-4.631164551,1,0,0,rectangle,-21.11328125,48.86322021,1,0,0,-12.11535645,-0.497314453,1,0,0,1,78,238,119,1,,response7disk_3,TRUE,0,0,"[65,171,306,302,284,239,81,111,231,40,234,186,62,150,209,171,174,94,6,135]",4.2498,rectangle
,,,,,,,,,,,,,FF,,,,,,,,2.4497,,,,,,,,,,,,,,,,,,,,,,61030e69dd2c21915339e898,610369d6f1151bccffdc3de9,2021-07-29_22h54.47.254,Simcolourproject_2stim_asymm_v5,2020.2.10,MacIntel,60,61025ae37ef11b136ea224fe,,,,,,,,,1039,-20.07501221,-31.14093018,1,0,0,response5disk,,3,-12.59570313,-17.38717651,1,0,0,rectangle,-12.59570313,-17.38717651,1,0,0,-12.59570313,-17.38717651,1,0,0,1,79,239,156,1,,,,,,,,
,,,,,,,,,,,,,FF,,,,,,,,1.083,,,,,,,,,,,,,,,,,,,,,,61030e69dd2c21915339e898,610369d6f1151bccffdc3de9,2021-07-29_22h54.47.254,Simcolourproject_2stim_asymm_v5,2020.2.10,MacIntel,60,61025ae37ef11b136ea224fe,,,,,,,,,282,-12.10290527,-18.11517334,1,0,0,response5disk,,3,-7.741943359,-4.269836426,1,0,0,rectangle,-7.741943359,-4.269836426,1,0,0,-7.741943359,-4.269836426,1,0,0,1,80,240,39,1,,,,,,,,
