key_resp.keys,key_resp.rt,key_resp_14.keys,key_resp_14.rt,key_resp_15.keys,key_resp_15.rt,key_resp_17.keys,key_resp_17.rt,key_resp_9.keys,key_resp_9.rt,key_resp_10.keys,key_resp_10.rt,practice_comparison,Ecc,mouse_5.x,mouse_5.y,mouse_5.leftButton,mouse_5.midButton,mouse_5.rightButton,mouse_5.clicked_name,pracsimilarity,response_time,mouse_10.x,mouse_10.y,mouse_10.leftButton,mouse_10.midButton,mouse_10.rightButton,mouse_10.clicked_name,mouse_7.x,mouse_7.y,mouse_7.leftButton,mouse_7.midButton,mouse_7.rightButton,mouse_6.x,mouse_6.y,mouse_6.leftButton,mouse_6.midButton,mouse_6.rightButton,duringprac.thisRepN,duringprac.thisTrialN,duringprac.thisN,duringprac.thisIndex,duringprac.ran,participant,session,date,expName,psychopyVersion,OS,frameRate,study_id,mouse_7.clicked_name,catchpracsimilarity,catch_response_time,catchnumberprac,catchtrialorderprac,mouse_6.clicked_name,key_resp_22.keys,key_resp_22.rt,realcomparison,mouse.x,mouse.y,mouse.leftButton,mouse.midButton,mouse.rightButton,mouse.clicked_name,Colour2,similarity,mouse_2.x,mouse_2.y,mouse_2.leftButton,mouse_2.midButton,mouse_2.rightButton,mouse_2.clicked_name,mouse_3.x,mouse_3.y,mouse_3.leftButton,mouse_3.midButton,mouse_3.rightButton,mouse_11.x,mouse_11.y,mouse_11.leftButton,mouse_11.midButton,mouse_11.rightButton,trials_2.thisRepN,trials_2.thisTrialN,trials_2.thisN,trials_2.thisIndex,trials_2.ran,Colour1,mouse_3.clicked_name,catchornah,catchsimilarity,catchnumber,catchtrialorder,catchRT,mouse_11.clicked_name
space,4.3981,space,14.1724,space,22.3279,space,4.6831,space,1.8196,space,4.19,80,FF,73,-185,1,0,0,response3disk_5,4,10.5557,9,7,1,0,0,rectangle_8,9,7,1,0,0,9,7,1,0,0,0,0,0,5,1,610342791f17a52c9fd5ea36,61036b8664e6c768e90c335e,2021-07-29_22h01.59.093,Simcolourproject_2stim_asymm_v5,2020.2.10,Win32,60,61025ae37ef11b136ea224fe,,,,,,,,,,,,,,,,,,,,,,,,,,,,,,,,,,,,,,,,,,,,,,
,,,,,,,,,,,,106,PF,93,156,1,0,0,response1disk_5,7,5.3895,8,0,1,0,0,rectangle_8,71,153,1,0,0,-2,-10,1,0,0,0,1,1,6,1,610342791f17a52c9fd5ea36,61036b8664e6c768e90c335e,2021-07-29_22h01.59.093,Simcolourproject_2stim_asymm_v5,2020.2.10,Win32,60,61025ae37ef11b136ea224fe,response1disk_7,7,2.8817,7,"[2,5]",rectangle_4,,,,,,,,,,,,,,,,,,,,,,,,,,,,,,,,,,,,,,,,
,,,,,,,,,,,,16,PF,50,-162,1,0,0,response3disk_5,4,4.3302,11,-11,1,0,0,rectangle_8,11,-11,1,0,0,11,-11,1,0,0,0,2,2,1,1,610342791f17a52c9fd5ea36,61036b8664e6c768e90c335e,2021-07-29_22h01.59.093,Simcolourproject_2stim_asymm_v5,2020.2.10,Win32,60,61025ae37ef11b136ea224fe,,,,,,,,,,,,,,,,,,,,,,,,,,,,,,,,,,,,,,,,,,,,,,
,,,,,,,,,,,,113,PF,117,76,1,0,0,response1disk_5,6,1.2501,13,-2,1,0,0,rectangle_8,13,-2,1,0,0,13,-2,1,0,0,0,3,3,2,1,610342791f17a52c9fd5ea36,61036b8664e6c768e90c335e,2021-07-29_22h01.59.093,Simcolourproject_2stim_asymm_v5,2020.2.10,Win32,60,61025ae37ef11b136ea224fe,,,,,,,,,,,,,,,,,,,,,,,,,,,,,,,,,,,,,,,,,,,,,,
,,,,,,,,,,,,91,FF,65,-165,1,0,0,response3disk_5,4,4.7568,-3,-8,1,0,0,rectangle_8,65,105,1,0,0,17,-1,1,0,0,0,4,4,3,1,610342791f17a52c9fd5ea36,61036b8664e6c768e90c335e,2021-07-29_22h01.59.093,Simcolourproject_2stim_asymm_v5,2020.2.10,Win32,60,61025ae37ef11b136ea224fe,response1disk_7,7,1.986,7,"[2,5]",rectangle_4,,,,,,,,,,,,,,,,,,,,,,,,,,,,,,,,,,,,,,,,
,,,,,,,,,,,,19,PF,119,-63,1,0,0,response3disk_5,5,2.479,17,-3,1,0,0,rectangle_8,17,-3,1,0,0,17,-3,1,0,0,0,5,5,4,1,610342791f17a52c9fd5ea36,61036b8664e6c768e90c335e,2021-07-29_22h01.59.093,Simcolourproject_2stim_asymm_v5,2020.2.10,Win32,60,61025ae37ef11b136ea224fe,,,,,,,,,,,,,,,,,,,,,,,,,,,,,,,,,,,,,,,,,,,,,,
,,,,,,,,,,,,129,FF,56,-159,1,0,0,response3disk_5,4,1.91,8,1,1,0,0,rectangle_8,8,1,1,0,0,8,1,1,0,0,0,6,6,0,1,610342791f17a52c9fd5ea36,61036b8664e6c768e90c335e,2021-07-29_22h01.59.093,Simcolourproject_2stim_asymm_v5,2020.2.10,Win32,60,61025ae37ef11b136ea224fe,,,,,,,,,,,,,,,,,,,,,,,,,,,,,,,,,,,,,,,,,,,,,,
,,,,,,,,,,,,,FF,,,,,,,,5.4379,,,,,,,,,,,,,,,,,,,,,,610342791f17a52c9fd5ea36,61036b8664e6c768e90c335e,2021-07-29_22h01.59.093,Simcolourproject_2stim_asymm_v5,2020.2.10,Win32,60,61025ae37ef11b136ea224fe,,,,,,,space,4.7429,3410,71,-154,1,0,0,response3disk,,4,-13,3,1,0,0,rectangle,-13,3,1,0,0,-13,3,1,0,0,0,0,0,25,1,,,,,,,,
,,,,,,,,,,,,,FF,,,,,,,,4.0556,,,,,,,,,,,,,,,,,,,,,,610342791f17a52c9fd5ea36,61036b8664e6c768e90c335e,2021-07-29_22h01.59.093,Simcolourproject_2stim_asymm_v5,2020.2.10,Win32,60,61025ae37ef11b136ea224fe,,,,,,,,,1543,-62,-151,1,0,0,response5disk,,3,-3,4,1,0,0,rectangle,-3,4,1,0,0,-3,4,1,0,0,0,1,1,76,1,,,,,,,,
,,,,,,,,,,,,,FF,,,,,,,,1.0765,,,,,,,,,,,,,,,,,,,,,,610342791f17a52c9fd5ea36,61036b8664e6c768e90c335e,2021-07-29_22h01.59.093,Simcolourproject_2stim_asymm_v5,2020.2.10,Win32,60,61025ae37ef11b136ea224fe,,,,,,,,,3359,121,-56,1,0,0,response3disk,,5,24,-1,1,0,0,rectangle,24,-1,1,0,0,24,-1,1,0,0,0,2,2,96,1,,,,,,,,
,,,,,,,,,,,,,FF,,,,,,,,1.639,,,,,,,,,,,,,,,,,,,,,,610342791f17a52c9fd5ea36,61036b8664e6c768e90c335e,2021-07-29_22h01.59.093,Simcolourproject_2stim_asymm_v5,2020.2.10,Win32,60,61025ae37ef11b136ea224fe,,,,,,,,,3749,-110,-56,1,0,0,response5disk,,2,3,-11,1,0,0,rectangle,3,-11,1,0,0,3,-11,1,0,0,0,3,3,52,1,,,,,,,,
,,,,,,,,,,,,,FF,,,,,,,,2.6459,,,,,,,,,,,,,,,,,,,,,,610342791f17a52c9fd5ea36,61036b8664e6c768e90c335e,2021-07-29_22h01.59.093,Simcolourproject_2stim_asymm_v5,2020.2.10,Win32,60,61025ae37ef11b136ea224fe,,,,,,,,,2772,-137,-80,1,0,0,response5disk,,2,14,-2,1,0,0,rectangle,14,-2,1,0,0,14,-2,1,0,0,0,4,4,128,1,,,,,,,,
,,,,,,,,,,,,,FF,,,,,,,,2.1736,,,,,,,,,,,,,,,,,,,,,,610342791f17a52c9fd5ea36,61036b8664e6c768e90c335e,2021-07-29_22h01.59.093,Simcolourproject_2stim_asymm_v5,2020.2.10,Win32,60,61025ae37ef11b136ea224fe,,,,,,,,,1827,-115,-55,1,0,0,response5disk,,2,-2,-14,1,0,0,rectangle,-2,-14,1,0,0,-2,-14,1,0,0,0,5,5,1,1,,,,,,,,
,,,,,,,,,,,,,FF,,,,,,,,1.4724,,,,,,,,,,,,,,,,,,,,,,610342791f17a52c9fd5ea36,61036b8664e6c768e90c335e,2021-07-29_22h01.59.093,Simcolourproject_2stim_asymm_v5,2020.2.10,Win32,60,61025ae37ef11b136ea224fe,,,,,,,,,3235,-116,-68,1,0,0,response5disk,,2,14,-7,1,0,0,rectangle,14,-7,1,0,0,14,-7,1,0,0,0,6,6,3,1,,,,,,,,
,,,,,,,,,,,,,FF,,,,,,,,3.3195,,,,,,,,,,,,,,,,,,,,,,610342791f17a52c9fd5ea36,61036b8664e6c768e90c335e,2021-07-29_22h01.59.093,Simcolourproject_2stim_asymm_v5,2020.2.10,Win32,60,61025ae37ef11b136ea224fe,,,,,,,,,251,99,-129,1,0,0,response3disk,,4,20,-10,1,0,0,rectangle,20,-10,1,0,0,20,-10,1,0,0,0,7,7,118,1,,,,,,,,
,,,,,,,,,,,,,FF,,,,,,,,1.8959,,,,,,,,,,,,,,,,,,,,,,610342791f17a52c9fd5ea36,61036b8664e6c768e90c335e,2021-07-29_22h01.59.093,Simcolourproject_2stim_asymm_v5,2020.2.10,Win32,60,61025ae37ef11b136ea224fe,,,,,,,,,3045,-90,147,1,0,0,response7disk,,0,-3,-10,1,0,0,rectangle,-3,-10,1,0,0,-3,-10,1,0,0,0,8,8,124,1,,,,,,,,
,,,,,,,,,,,,,FF,,,,,,,,1.1737,,,,,,,,,,,,,,,,,,,,,,610342791f17a52c9fd5ea36,61036b8664e6c768e90c335e,2021-07-29_22h01.59.093,Simcolourproject_2stim_asymm_v5,2020.2.10,Win32,60,61025ae37ef11b136ea224fe,,,,,,,,,1671,-101,-73,1,0,0,response5disk,,2,-2,-2,1,0,0,rectangle,-2,-2,1,0,0,-2,-2,1,0,0,0,9,9,86,1,,,,,,,,
,,,,,,,,,,,,,FF,,,,,,,,2.0209,,,,,,,,,,,,,,,,,,,,,,610342791f17a52c9fd5ea36,61036b8664e6c768e90c335e,2021-07-29_22h01.59.093,Simcolourproject_2stim_asymm_v5,2020.2.10,Win32,60,61025ae37ef11b136ea224fe,,,,,,,,,676,143,-63,1,0,0,response3disk,,5,20,5,1,0,0,rectangle,20,5,1,0,0,20,5,1,0,0,0,10,10,95,1,,,,,,,,
,,,,,,,,,,,,,FF,,,,,,,,1.5911,,,,,,,,,,,,,,,,,,,,,,610342791f17a52c9fd5ea36,61036b8664e6c768e90c335e,2021-07-29_22h01.59.093,Simcolourproject_2stim_asymm_v5,2020.2.10,Win32,60,61025ae37ef11b136ea224fe,,,,,,,,,368,-79,-163,1,0,0,response5disk,,3,-7,-4,1,0,0,rectangle,-7,-4,1,0,0,-7,-4,1,0,0,0,11,11,107,1,,,,,,,,
,,,,,,,,,,,,,FF,,,,,,,,1.9993,,,,,,,,,,,,,,,,,,,,,,610342791f17a52c9fd5ea36,61036b8664e6c768e90c335e,2021-07-29_22h01.59.093,Simcolourproject_2stim_asymm_v5,2020.2.10,Win32,60,61025ae37ef11b136ea224fe,,,,,,,,,3493,172,-61,1,0,0,response3disk,,5,-10,-9,1,0,0,rectangle,-10,-9,1,0,0,-10,-9,1,0,0,0,12,12,62,1,,,,,,,,
,,,,,,,,,,,,,FF,,,,,,,,2.1528,,,,,,,,,,,,,,,,,,,,,,610342791f17a52c9fd5ea36,61036b8664e6c768e90c335e,2021-07-29_22h01.59.093,Simcolourproject_2stim_asymm_v5,2020.2.10,Win32,60,61025ae37ef11b136ea224fe,,,,,,,,,1448,-80,-133,1,0,0,response5disk,,3,-6,-7,1,0,0,rectangle,-6,-7,1,0,0,-6,-7,1,0,0,0,13,13,27,1,,,,,,,,
,,,,,,,,,,,,,FF,,,,,,,,1.0002,,,,,,,,,,,,,,,,,,,,,,610342791f17a52c9fd5ea36,61036b8664e6c768e90c335e,2021-07-29_22h01.59.093,Simcolourproject_2stim_asymm_v5,2020.2.10,Win32,60,61025ae37ef11b136ea224fe,,,,,,,,,1,-78,-120,1,0,0,response5disk,,3,-7,-4,1,0,0,rectangle,-7,-4,1,0,0,-7,-4,1,0,0,0,14,14,73,1,,,,,,,,
,,,,,,,,,,,,,FF,,,,,,,,2.0347,,,,,,,,,,,,,,,,,,,,,,610342791f17a52c9fd5ea36,61036b8664e6c768e90c335e,2021-07-29_22h01.59.093,Simcolourproject_2stim_asymm_v5,2020.2.10,Win32,60,61025ae37ef11b136ea224fe,,,,,,,,,3484,51,-142,1,0,0,response3disk,,4,17,2,1,0,0,rectangle,17,2,1,0,0,17,2,1,0,0,0,15,15,29,1,,,,,,,,
,,,,,,,,,,,,,FF,,,,,,,,1.7143,,,,,,,,,,,,,,,,,,,,,,610342791f17a52c9fd5ea36,61036b8664e6c768e90c335e,2021-07-29_22h01.59.093,Simcolourproject_2stim_asymm_v5,2020.2.10,Win32,60,61025ae37ef11b136ea224fe,,,,,,,,,2865,114,52,1,0,0,response1disk,,6,37,-2,1,0,0,rectangle,37,-2,1,0,0,37,-2,1,0,0,0,16,16,14,1,,,,,,,,
,,,,,,,,,,,,,FF,,,,,,,,1.9652,,,,,,,,,,,,,,,,,,,,,,610342791f17a52c9fd5ea36,61036b8664e6c768e90c335e,2021-07-29_22h01.59.093,Simcolourproject_2stim_asymm_v5,2020.2.10,Win32,60,61025ae37ef11b136ea224fe,,,,,,,,,2904,68,-154,1,0,0,response3disk,,4,15,-4,1,0,0,rectangle,15,-4,1,0,0,15,-4,1,0,0,0,17,17,144,1,,,,,,,,
,,,,,,,,,,,,,FF,,,,,,,,1.403,,,,,,,,,,,,,,,,,,,,,,610342791f17a52c9fd5ea36,61036b8664e6c768e90c335e,2021-07-29_22h01.59.093,Simcolourproject_2stim_asymm_v5,2020.2.10,Win32,60,61025ae37ef11b136ea224fe,,,,,,,,,3107,-164,-67,1,0,0,response5disk,,2,1,-9,1,0,0,rectangle,1,-9,1,0,0,1,-9,1,0,0,0,18,18,97,1,,,,,,,,
,,,,,,,,,,,,,FF,,,,,,,,1.3889,,,,,,,,,,,,,,,,,,,,,,610342791f17a52c9fd5ea36,61036b8664e6c768e90c335e,2021-07-29_22h01.59.093,Simcolourproject_2stim_asymm_v5,2020.2.10,Win32,60,61025ae37ef11b136ea224fe,,,,,,,,,2522,137,-50,1,0,0,response3disk,,5,6,-9,1,0,0,rectangle,6,-9,1,0,0,6,-9,1,0,0,0,19,19,40,1,,,,,,,,
,,,,,,,,,,,,,FF,,,,,,,,1.2361,,,,,,,,,,,,,,,,,,,,,,610342791f17a52c9fd5ea36,61036b8664e6c768e90c335e,2021-07-29_22h01.59.093,Simcolourproject_2stim_asymm_v5,2020.2.10,Win32,60,61025ae37ef11b136ea224fe,,,,,,,,,3485,134,-62,1,0,0,response3disk,,5,3,-5,1,0,0,rectangle,3,-5,1,0,0,3,-5,1,0,0,0,20,20,122,1,,,,,,,,
,,,,,,,,,,,,,FF,,,,,,,,1.1051,,,,,,,,,,,,,,,,,,,,,,610342791f17a52c9fd5ea36,61036b8664e6c768e90c335e,2021-07-29_22h01.59.093,Simcolourproject_2stim_asymm_v5,2020.2.10,Win32,60,61025ae37ef11b136ea224fe,,,,,,,,,1209,157,-61,1,0,0,response3disk,,5,15,0,1,0,0,rectangle,15,0,1,0,0,15,0,1,0,0,0,21,21,80,1,,,,,,,,
,,,,,,,,,,,,,FF,,,,,,,,2.8403,,,,,,,,,,,,,,,,,,,,,,610342791f17a52c9fd5ea36,61036b8664e6c768e90c335e,2021-07-29_22h01.59.093,Simcolourproject_2stim_asymm_v5,2020.2.10,Win32,60,61025ae37ef11b136ea224fe,,,,,,,,,764,122,47,1,0,0,response1disk,,6,17,-2,1,0,0,rectangle,17,-2,1,0,0,17,-2,1,0,0,0,22,22,43,1,,,,,,,,
,,,,,,,,,,,,,FF,,,,,,,,0.8194,,,,,,,,,,,,,,,,,,,,,,610342791f17a52c9fd5ea36,61036b8664e6c768e90c335e,2021-07-29_22h01.59.093,Simcolourproject_2stim_asymm_v5,2020.2.10,Win32,60,61025ae37ef11b136ea224fe,,,,,,,,,1873,52,144,1,0,0,response1disk,,7,2,13,1,0,0,rectangle,2,13,1,0,0,2,13,1,0,0,0,23,23,39,1,,,,,,,,
,,,,,,,,,,,,,FF,,,,,,,,0.8472,,,,,,,,,,,,,,,,,,,,,,610342791f17a52c9fd5ea36,61036b8664e6c768e90c335e,2021-07-29_22h01.59.093,Simcolourproject_2stim_asymm_v5,2020.2.10,Win32,60,61025ae37ef11b136ea224fe,,,,,,,,,779,86,105,1,0,0,response1disk,,7,43,-2,1,0,0,rectangle,59,132,1,0,0,18,9,1,0,0,0,24,24,6,1,,response1disk_3,TRUE,7,7,"[250,78,232,106,25,273,74,248,241,202,73,92,244,294,250,254,196,195,156,178]",1.9385,rectangle
,,,,,,,,,,,,,FF,,,,,,,,1.0556,,,,,,,,,,,,,,,,,,,,,,610342791f17a52c9fd5ea36,61036b8664e6c768e90c335e,2021-07-29_22h01.59.093,Simcolourproject_2stim_asymm_v5,2020.2.10,Win32,60,61025ae37ef11b136ea224fe,,,,,,,,,311,65,-122,1,0,0,response3disk,,4,33,-4,1,0,0,rectangle,33,-4,1,0,0,33,-4,1,0,0,0,25,25,70,1,,,,,,,,
,,,,,,,,,,,,,FF,,,,,,,,2.0764,,,,,,,,,,,,,,,,,,,,,,610342791f17a52c9fd5ea36,61036b8664e6c768e90c335e,2021-07-29_22h01.59.093,Simcolourproject_2stim_asymm_v5,2020.2.10,Win32,60,61025ae37ef11b136ea224fe,,,,,,,,,177,104,-50,1,0,0,response3disk,,5,17,-1,1,0,0,rectangle,17,-1,1,0,0,17,-1,1,0,0,0,26,26,41,1,,,,,,,,
,,,,,,,,,,,,,FF,,,,,,,,1.0557,,,,,,,,,,,,,,,,,,,,,,610342791f17a52c9fd5ea36,61036b8664e6c768e90c335e,2021-07-29_22h01.59.093,Simcolourproject_2stim_asymm_v5,2020.2.10,Win32,60,61025ae37ef11b136ea224fe,,,,,,,,,2908,46,-133,1,0,0,response3disk,,4,1,-8,1,0,0,rectangle,1,-8,1,0,0,1,-8,1,0,0,0,27,27,89,1,,,,,,,,
,,,,,,,,,,,,,FF,,,,,,,,0.9944,,,,,,,,,,,,,,,,,,,,,,610342791f17a52c9fd5ea36,61036b8664e6c768e90c335e,2021-07-29_22h01.59.093,Simcolourproject_2stim_asymm_v5,2020.2.10,Win32,60,61025ae37ef11b136ea224fe,,,,,,,,,3891,165,-57,1,0,0,response3disk,,5,20,0,1,0,0,rectangle,20,0,1,0,0,20,0,1,0,0,0,28,28,34,1,,,,,,,,
,,,,,,,,,,,,,FF,,,,,,,,0.8473,,,,,,,,,,,,,,,,,,,,,,610342791f17a52c9fd5ea36,61036b8664e6c768e90c335e,2021-07-29_22h01.59.093,Simcolourproject_2stim_asymm_v5,2020.2.10,Win32,60,61025ae37ef11b136ea224fe,,,,,,,,,3137,122,55,1,0,0,response1disk,,6,28,4,1,0,0,rectangle,28,4,1,0,0,28,4,1,0,0,0,29,29,99,1,,,,,,,,
,,,,,,,,,,,,,FF,,,,,,,,1.0818,,,,,,,,,,,,,,,,,,,,,,610342791f17a52c9fd5ea36,61036b8664e6c768e90c335e,2021-07-29_22h01.59.093,Simcolourproject_2stim_asymm_v5,2020.2.10,Win32,60,61025ae37ef11b136ea224fe,,,,,,,,,1185,89,-143,1,0,0,response3disk,,4,18,0,1,0,0,rectangle,18,0,1,0,0,18,0,1,0,0,0,30,30,74,1,,,,,,,,
,,,,,,,,,,,,,FF,,,,,,,,1.389,,,,,,,,,,,,,,,,,,,,,,610342791f17a52c9fd5ea36,61036b8664e6c768e90c335e,2021-07-29_22h01.59.093,Simcolourproject_2stim_asymm_v5,2020.2.10,Win32,60,61025ae37ef11b136ea224fe,,,,,,,,,3067,156,44,1,0,0,response1disk,,6,38,-8,1,0,0,rectangle,38,-8,1,0,0,38,-8,1,0,0,0,31,31,109,1,,,,,,,,
,,,,,,,,,,,,,FF,,,,,,,,0.6805,,,,,,,,,,,,,,,,,,,,,,610342791f17a52c9fd5ea36,61036b8664e6c768e90c335e,2021-07-29_22h01.59.093,Simcolourproject_2stim_asymm_v5,2020.2.10,Win32,60,61025ae37ef11b136ea224fe,,,,,,,,,1009,120,56,1,0,0,response1disk,,6,37,-7,1,0,0,rectangle,37,-7,1,0,0,37,-7,1,0,0,0,32,32,9,1,,,,,,,,
,,,,,,,,,,,,,FF,,,,,,,,1.4347,,,,,,,,,,,,,,,,,,,,,,610342791f17a52c9fd5ea36,61036b8664e6c768e90c335e,2021-07-29_22h01.59.093,Simcolourproject_2stim_asymm_v5,2020.2.10,Win32,60,61025ae37ef11b136ea224fe,,,,,,,,,3104,-76,-152,1,0,0,response5disk,,3,-5,4,1,0,0,rectangle,-5,4,1,0,0,-5,4,1,0,0,0,33,33,125,1,,,,,,,,
,,,,,,,,,,,,,FF,,,,,,,,1.2015,,,,,,,,,,,,,,,,,,,,,,610342791f17a52c9fd5ea36,61036b8664e6c768e90c335e,2021-07-29_22h01.59.093,Simcolourproject_2stim_asymm_v5,2020.2.10,Win32,60,61025ae37ef11b136ea224fe,,,,,,,,,1911,79,-130,1,0,0,response3disk,,4,14,-3,1,0,0,rectangle,14,-3,1,0,0,14,-3,1,0,0,0,34,34,129,1,,,,,,,,
,,,,,,,,,,,,,FF,,,,,,,,3.0348,,,,,,,,,,,,,,,,,,,,,,610342791f17a52c9fd5ea36,61036b8664e6c768e90c335e,2021-07-29_22h01.59.093,Simcolourproject_2stim_asymm_v5,2020.2.10,Win32,60,61025ae37ef11b136ea224fe,,,,,,,,,499,94,-47,1,0,0,response3disk,,5,31,-2,1,0,0,rectangle,31,-2,1,0,0,31,-2,1,0,0,0,35,35,44,1,,,,,,,,
,,,,,,,,,,,,,FF,,,,,,,,1.743,,,,,,,,,,,,,,,,,,,,,,610342791f17a52c9fd5ea36,61036b8664e6c768e90c335e,2021-07-29_22h01.59.093,Simcolourproject_2stim_asymm_v5,2020.2.10,Win32,60,61025ae37ef11b136ea224fe,,,,,,,,,74,64,-138,1,0,0,response3disk,,4,7,-16,1,0,0,rectangle,7,-16,1,0,0,7,-16,1,0,0,0,36,36,69,1,,,,,,,,
,,,,,,,,,,,,,FF,,,,,,,,1.0561,,,,,,,,,,,,,,,,,,,,,,610342791f17a52c9fd5ea36,61036b8664e6c768e90c335e,2021-07-29_22h01.59.093,Simcolourproject_2stim_asymm_v5,2020.2.10,Win32,60,61025ae37ef11b136ea224fe,,,,,,,,,3143,54,-135,1,0,0,response3disk,,4,4,5,1,0,0,rectangle,4,5,1,0,0,4,5,1,0,0,0,37,37,18,1,,,,,,,,
,,,,,,,,,,,,,FF,,,,,,,,0.9721,,,,,,,,,,,,,,,,,,,,,,610342791f17a52c9fd5ea36,61036b8664e6c768e90c335e,2021-07-29_22h01.59.093,Simcolourproject_2stim_asymm_v5,2020.2.10,Win32,60,61025ae37ef11b136ea224fe,,,,,,,,,2509,134,53,1,0,0,response1disk,,6,46,-7,1,0,0,rectangle,46,-7,1,0,0,46,-7,1,0,0,0,38,38,66,1,,,,,,,,
,,,,,,,,,,,,,FF,,,,,,,,1.0001,,,,,,,,,,,,,,,,,,,,,,610342791f17a52c9fd5ea36,61036b8664e6c768e90c335e,2021-07-29_22h01.59.093,Simcolourproject_2stim_asymm_v5,2020.2.10,Win32,60,61025ae37ef11b136ea224fe,,,,,,,,,179,123,56,1,0,0,response1disk,,6,42,-14,1,0,0,rectangle,42,-14,1,0,0,42,-14,1,0,0,0,39,39,145,1,,,,,,,,
,,,,,,,,,,,,,FF,,,,,,,,1.1712,,,,,,,,,,,,,,,,,,,,,,610342791f17a52c9fd5ea36,61036b8664e6c768e90c335e,2021-07-29_22h01.59.093,Simcolourproject_2stim_asymm_v5,2020.2.10,Win32,60,61025ae37ef11b136ea224fe,,,,,,,,,496,116,-65,1,0,0,response3disk,,5,24,-9,1,0,0,rectangle,24,-9,1,0,0,24,-9,1,0,0,0,40,40,98,1,,,,,,,,
,,,,,,,,,,,,,FF,,,,,,,,1.0628,,,,,,,,,,,,,,,,,,,,,,610342791f17a52c9fd5ea36,61036b8664e6c768e90c335e,2021-07-29_22h01.59.093,Simcolourproject_2stim_asymm_v5,2020.2.10,Win32,60,61025ae37ef11b136ea224fe,,,,,,,,,3736,75,-146,1,0,0,response3disk,,4,2,-6,1,0,0,rectangle,2,-6,1,0,0,2,-6,1,0,0,0,41,41,26,1,,,,,,,,
,,,,,,,,,,,,,FF,,,,,,,,1.4375,,,,,,,,,,,,,,,,,,,,,,610342791f17a52c9fd5ea36,61036b8664e6c768e90c335e,2021-07-29_22h01.59.093,Simcolourproject_2stim_asymm_v5,2020.2.10,Win32,60,61025ae37ef11b136ea224fe,,,,,,,,,481,73,112,1,0,0,response1disk,,7,36,-3,1,0,0,rectangle,36,-3,1,0,0,36,-3,1,0,0,0,42,42,0,1,,,,,,,,
,,,,,,,,,,,,,FF,,,,,,,,2.2709,,,,,,,,,,,,,,,,,,,,,,610342791f17a52c9fd5ea36,61036b8664e6c768e90c335e,2021-07-29_22h01.59.093,Simcolourproject_2stim_asymm_v5,2020.2.10,Win32,60,61025ae37ef11b136ea224fe,,,,,,,,,3782,-52,-133,1,0,0,response5disk,,3,7,-13,1,0,0,rectangle,7,-13,1,0,0,7,-13,1,0,0,0,43,43,55,1,,,,,,,,
,,,,,,,,,,,,,FF,,,,,,,,1.8474,,,,,,,,,,,,,,,,,,,,,,610342791f17a52c9fd5ea36,61036b8664e6c768e90c335e,2021-07-29_22h01.59.093,Simcolourproject_2stim_asymm_v5,2020.2.10,Win32,60,61025ae37ef11b136ea224fe,,,,,,,,,3276,138,51,1,0,0,response1disk,,6,37,4,1,0,0,rectangle,37,4,1,0,0,37,4,1,0,0,0,44,44,19,1,,,,,,,,
,,,,,,,,,,,,,FF,,,,,,,,1.6457,,,,,,,,,,,,,,,,,,,,,,610342791f17a52c9fd5ea36,61036b8664e6c768e90c335e,2021-07-29_22h01.59.093,Simcolourproject_2stim_asymm_v5,2020.2.10,Win32,60,61025ae37ef11b136ea224fe,,,,,,,,,1469,45,-149,1,0,0,response3disk,,4,13,-1,1,0,0,rectangle,13,-1,1,0,0,13,-1,1,0,0,0,45,45,12,1,,,,,,,,
,,,,,,,,,,,,,FF,,,,,,,,1.4547,,,,,,,,,,,,,,,,,,,,,,610342791f17a52c9fd5ea36,61036b8664e6c768e90c335e,2021-07-29_22h01.59.093,Simcolourproject_2stim_asymm_v5,2020.2.10,Win32,60,61025ae37ef11b136ea224fe,,,,,,,,,298,98,57,1,0,0,response1disk,,6,-2,3,1,0,0,rectangle,-2,3,1,0,0,-2,3,1,0,0,0,46,46,154,1,,,,,,,,
,,,,,,,,,,,,,FF,,,,,,,,1.0207,,,,,,,,,,,,,,,,,,,,,,610342791f17a52c9fd5ea36,61036b8664e6c768e90c335e,2021-07-29_22h01.59.093,Simcolourproject_2stim_asymm_v5,2020.2.10,Win32,60,61025ae37ef11b136ea224fe,,,,,,,,,1647,101,52,1,0,0,response1disk,,6,29,-3,1,0,0,rectangle,29,-3,1,0,0,29,-3,1,0,0,0,47,47,152,1,,,,,,,,
,,,,,,,,,,,,,FF,,,,,,,,1.4306,,,,,,,,,,,,,,,,,,,,,,610342791f17a52c9fd5ea36,61036b8664e6c768e90c335e,2021-07-29_22h01.59.093,Simcolourproject_2stim_asymm_v5,2020.2.10,Win32,60,61025ae37ef11b136ea224fe,,,,,,,,,2098,-110,-58,1,0,0,response5disk,,2,17,-9,1,0,0,rectangle,17,-9,1,0,0,17,-9,1,0,0,0,48,48,48,1,,,,,,,,
,,,,,,,,,,,,,FF,,,,,,,,0.9445,,,,,,,,,,,,,,,,,,,,,,610342791f17a52c9fd5ea36,61036b8664e6c768e90c335e,2021-07-29_22h01.59.093,Simcolourproject_2stim_asymm_v5,2020.2.10,Win32,60,61025ae37ef11b136ea224fe,,,,,,,,,4048,-56,-100,1,0,0,response5disk,,3,22,-10,1,0,0,rectangle,22,-10,1,0,0,22,-10,1,0,0,0,49,49,108,1,,,,,,,,
,,,,,,,,,,,,,FF,,,,,,,,0.9166,,,,,,,,,,,,,,,,,,,,,,610342791f17a52c9fd5ea36,61036b8664e6c768e90c335e,2021-07-29_22h01.59.093,Simcolourproject_2stim_asymm_v5,2020.2.10,Win32,60,61025ae37ef11b136ea224fe,,,,,,,,,1857,120,-61,1,0,0,response3disk,,5,10,-5,1,0,0,rectangle,10,-5,1,0,0,10,-5,1,0,0,0,50,50,15,1,,,,,,,,
,,,,,,,,,,,,,FF,,,,,,,,1.0834,,,,,,,,,,,,,,,,,,,,,,610342791f17a52c9fd5ea36,61036b8664e6c768e90c335e,2021-07-29_22h01.59.093,Simcolourproject_2stim_asymm_v5,2020.2.10,Win32,60,61025ae37ef11b136ea224fe,,,,,,,,,4104,-52,-106,1,0,0,response5disk,,3,9,-7,1,0,0,rectangle,9,-7,1,0,0,9,-7,1,0,0,0,51,51,94,1,,,,,,,,
,,,,,,,,,,,,,FF,,,,,,,,1.0486,,,,,,,,,,,,,,,,,,,,,,610342791f17a52c9fd5ea36,61036b8664e6c768e90c335e,2021-07-29_22h01.59.093,Simcolourproject_2stim_asymm_v5,2020.2.10,Win32,60,61025ae37ef11b136ea224fe,,,,,,,,,4256,53,-124,1,0,0,response3disk,,4,1,-9,1,0,0,rectangle,1,-9,1,0,0,1,-9,1,0,0,0,52,52,157,1,,,,,,,,
,,,,,,,,,,,,,FF,,,,,,,,1.0001,,,,,,,,,,,,,,,,,,,,,,610342791f17a52c9fd5ea36,61036b8664e6c768e90c335e,2021-07-29_22h01.59.093,Simcolourproject_2stim_asymm_v5,2020.2.10,Win32,60,61025ae37ef11b136ea224fe,,,,,,,,,3759,137,-47,1,0,0,response3disk,,5,26,3,1,0,0,rectangle,26,3,1,0,0,26,3,1,0,0,0,53,53,72,1,,,,,,,,
,,,,,,,,,,,,,FF,,,,,,,,0.7015,,,,,,,,,,,,,,,,,,,,,,610342791f17a52c9fd5ea36,61036b8664e6c768e90c335e,2021-07-29_22h01.59.093,Simcolourproject_2stim_asymm_v5,2020.2.10,Win32,60,61025ae37ef11b136ea224fe,,,,,,,,,126,113,64,1,0,0,response1disk,,6,9,-3,1,0,0,rectangle,9,-3,1,0,0,9,-3,1,0,0,0,54,54,146,1,,,,,,,,
,,,,,,,,,,,,,FF,,,,,,,,1.5001,,,,,,,,,,,,,,,,,,,,,,610342791f17a52c9fd5ea36,61036b8664e6c768e90c335e,2021-07-29_22h01.59.093,Simcolourproject_2stim_asymm_v5,2020.2.10,Win32,60,61025ae37ef11b136ea224fe,,,,,,,,,2336,54,79,1,0,0,response1disk,,7,20,-3,1,0,0,rectangle,20,-3,1,0,0,20,-3,1,0,0,0,55,55,54,1,,,,,,,,
,,,,,,,,,,,,,FF,,,,,,,,0.7917,,,,,,,,,,,,,,,,,,,,,,610342791f17a52c9fd5ea36,61036b8664e6c768e90c335e,2021-07-29_22h01.59.093,Simcolourproject_2stim_asymm_v5,2020.2.10,Win32,60,61025ae37ef11b136ea224fe,,,,,,,,,1716,40,73,1,0,0,response1disk,,7,19,-8,1,0,0,rectangle,19,-8,1,0,0,19,-8,1,0,0,0,56,56,85,1,,,,,,,,
,,,,,,,,,,,,,FF,,,,,,,,1.6985,,,,,,,,,,,,,,,,,,,,,,610342791f17a52c9fd5ea36,61036b8664e6c768e90c335e,2021-07-29_22h01.59.093,Simcolourproject_2stim_asymm_v5,2020.2.10,Win32,60,61025ae37ef11b136ea224fe,,,,,,,,,1960,120,-65,1,0,0,response3disk,,5,15,-13,1,0,0,rectangle,15,-13,1,0,0,15,-13,1,0,0,0,57,57,92,1,,,,,,,,
,,,,,,,,,,,,,FF,,,,,,,,1.2014,,,,,,,,,,,,,,,,,,,,,,610342791f17a52c9fd5ea36,61036b8664e6c768e90c335e,2021-07-29_22h01.59.093,Simcolourproject_2stim_asymm_v5,2020.2.10,Win32,60,61025ae37ef11b136ea224fe,,,,,,,,,4261,113,67,1,0,0,response1disk,,6,-3,6,1,0,0,rectangle,-3,6,1,0,0,-3,6,1,0,0,0,58,58,4,1,,,,,,,,
,,,,,,,,,,,,,FF,,,,,,,,1.1182,,,,,,,,,,,,,,,,,,,,,,610342791f17a52c9fd5ea36,61036b8664e6c768e90c335e,2021-07-29_22h01.59.093,Simcolourproject_2stim_asymm_v5,2020.2.10,Win32,60,61025ae37ef11b136ea224fe,,,,,,,,,2823,50,-70,1,0,0,response3disk,,4,-2,-4,1,0,0,rectangle,-2,-4,1,0,0,-2,-4,1,0,0,0,59,59,134,1,,,,,,,,
,,,,,,,,,,,,,FF,,,,,,,,0.7713,,,,,,,,,,,,,,,,,,,,,,610342791f17a52c9fd5ea36,61036b8664e6c768e90c335e,2021-07-29_22h01.59.093,Simcolourproject_2stim_asymm_v5,2020.2.10,Win32,60,61025ae37ef11b136ea224fe,,,,,,,,,2341,118,47,1,0,0,response1disk,,6,50,-6,1,0,0,rectangle,50,-6,1,0,0,50,-6,1,0,0,0,60,60,31,1,,,,,,,,
,,,,,,,,,,,,,FF,,,,,,,,0.9173,,,,,,,,,,,,,,,,,,,,,,610342791f17a52c9fd5ea36,61036b8664e6c768e90c335e,2021-07-29_22h01.59.093,Simcolourproject_2stim_asymm_v5,2020.2.10,Win32,60,61025ae37ef11b136ea224fe,,,,,,,,,234,100,45,1,0,0,response1disk,,6,20,-17,1,0,0,rectangle,20,-17,1,0,0,20,-17,1,0,0,0,61,61,133,1,,,,,,,,
,,,,,,,,,,,,,FF,,,,,,,,0.889,,,,,,,,,,,,,,,,,,,,,,610342791f17a52c9fd5ea36,61036b8664e6c768e90c335e,2021-07-29_22h01.59.093,Simcolourproject_2stim_asymm_v5,2020.2.10,Win32,60,61025ae37ef11b136ea224fe,,,,,,,,,152,87,-50,1,0,0,response3disk,,5,14,3,1,0,0,rectangle,14,3,1,0,0,14,3,1,0,0,0,62,62,93,1,,,,,,,,
,,,,,,,,,,,,,FF,,,,,,,,1.003,,,,,,,,,,,,,,,,,,,,,,610342791f17a52c9fd5ea36,61036b8664e6c768e90c335e,2021-07-29_22h01.59.093,Simcolourproject_2stim_asymm_v5,2020.2.10,Win32,60,61025ae37ef11b136ea224fe,,,,,,,,,7,-64,-121,1,0,0,response5disk,,3,7,-13,1,0,0,rectangle,7,-13,1,0,0,7,-13,1,0,0,0,63,63,130,1,,,,,,,,
,,,,,,,,,,,,,FF,,,,,,,,1.2218,,,,,,,,,,,,,,,,,,,,,,610342791f17a52c9fd5ea36,61036b8664e6c768e90c335e,2021-07-29_22h01.59.093,Simcolourproject_2stim_asymm_v5,2020.2.10,Win32,60,61025ae37ef11b136ea224fe,,,,,,,,,3183,111,47,1,0,0,response1disk,,6,38,-5,1,0,0,rectangle,38,-5,1,0,0,38,-5,1,0,0,0,64,64,81,1,,,,,,,,
,,,,,,,,,,,,,FF,,,,,,,,1.2075,,,,,,,,,,,,,,,,,,,,,,610342791f17a52c9fd5ea36,61036b8664e6c768e90c335e,2021-07-29_22h01.59.093,Simcolourproject_2stim_asymm_v5,2020.2.10,Win32,60,61025ae37ef11b136ea224fe,,,,,,,,,4290,97,52,1,0,0,response1disk,,6,6,2,1,0,0,rectangle,6,2,1,0,0,6,2,1,0,0,0,65,65,123,1,,,,,,,,
,,,,,,,,,,,,,FF,,,,,,,,1.7847,,,,,,,,,,,,,,,,,,,,,,610342791f17a52c9fd5ea36,61036b8664e6c768e90c335e,2021-07-29_22h01.59.093,Simcolourproject_2stim_asymm_v5,2020.2.10,Win32,60,61025ae37ef11b136ea224fe,,,,,,,,,534,98,57,1,0,0,response1disk,,6,37,15,1,0,0,rectangle,37,15,1,0,0,37,15,1,0,0,0,66,66,33,1,,,,,,,,
,,,,,,,,,,,,,FF,,,,,,,,1.5278,,,,,,,,,,,,,,,,,,,,,,610342791f17a52c9fd5ea36,61036b8664e6c768e90c335e,2021-07-29_22h01.59.093,Simcolourproject_2stim_asymm_v5,2020.2.10,Win32,60,61025ae37ef11b136ea224fe,,,,,,,,,4346,-82,-98,1,0,0,response5disk,,3,-5,-3,1,0,0,rectangle,-5,-3,1,0,0,-5,-3,1,0,0,0,67,67,61,1,,,,,,,,
,,,,,,,,,,,,,FF,,,,,,,,1.0556,,,,,,,,,,,,,,,,,,,,,,610342791f17a52c9fd5ea36,61036b8664e6c768e90c335e,2021-07-29_22h01.59.093,Simcolourproject_2stim_asymm_v5,2020.2.10,Win32,60,61025ae37ef11b136ea224fe,,,,,,,,,2608,-77,-43,1,0,0,response5disk,,2,38,20,1,0,0,rectangle,38,20,1,0,0,38,20,1,0,0,0,68,68,83,1,,,,,,,,
,,,,,,,,,,,,,FF,,,,,,,,0.9916,,,,,,,,,,,,,,,,,,,,,,610342791f17a52c9fd5ea36,61036b8664e6c768e90c335e,2021-07-29_22h01.59.093,Simcolourproject_2stim_asymm_v5,2020.2.10,Win32,60,61025ae37ef11b136ea224fe,,,,,,,,,1498,79,-53,1,0,0,response3disk,,5,17,-5,1,0,0,rectangle,17,-5,1,0,0,17,-5,1,0,0,0,69,69,147,1,,,,,,,,
,,,,,,,,,,,,,FF,,,,,,,,0.9097,,,,,,,,,,,,,,,,,,,,,,610342791f17a52c9fd5ea36,61036b8664e6c768e90c335e,2021-07-29_22h01.59.093,Simcolourproject_2stim_asymm_v5,2020.2.10,Win32,60,61025ae37ef11b136ea224fe,,,,,,,,,2950,39,-94,1,0,0,response3disk,,4,-9,-7,1,0,0,rectangle,-9,-7,1,0,0,-9,-7,1,0,0,0,70,70,91,1,,,,,,,,
,,,,,,,,,,,,,FF,,,,,,,,1.1182,,,,,,,,,,,,,,,,,,,,,,610342791f17a52c9fd5ea36,61036b8664e6c768e90c335e,2021-07-29_22h01.59.093,Simcolourproject_2stim_asymm_v5,2020.2.10,Win32,60,61025ae37ef11b136ea224fe,,,,,,,,,3623,-59,-87,1,0,0,response5disk,,3,-12,-13,1,0,0,rectangle,-12,-13,1,0,0,-12,-13,1,0,0,0,71,71,101,1,,,,,,,,
,,,,,,,,,,,,,FF,,,,,,,,0.7987,,,,,,,,,,,,,,,,,,,,,,610342791f17a52c9fd5ea36,61036b8664e6c768e90c335e,2021-07-29_22h01.59.093,Simcolourproject_2stim_asymm_v5,2020.2.10,Win32,60,61025ae37ef11b136ea224fe,,,,,,,,,4338,-91,-54,1,0,0,response5disk,,2,-4,0,1,0,0,rectangle,104,-55,1,0,0,16,-5,1,0,0,0,72,72,116,1,,response3disk_3,TRUE,5,5,"[250,78,232,106,25,273,74,248,241,202,73,92,244,294,250,254,196,195,156,178]",2.1598,rectangle
,,,,,,,,,,,,,FF,,,,,,,,0.9862,,,,,,,,,,,,,,,,,,,,,,610342791f17a52c9fd5ea36,61036b8664e6c768e90c335e,2021-07-29_22h01.59.093,Simcolourproject_2stim_asymm_v5,2020.2.10,Win32,60,61025ae37ef11b136ea224fe,,,,,,,,,2452,78,-60,1,0,0,response3disk,,5,2,-6,1,0,0,rectangle,-66,156,1,0,0,-7,-4,1,0,0,0,73,73,105,1,,response7disk_3,TRUE,0,0,"[250,78,232,106,25,273,74,248,241,202,73,92,244,294,250,254,196,195,156,178]",2.1389,rectangle
,,,,,,,,,,,,,FF,,,,,,,,1.3613,,,,,,,,,,,,,,,,,,,,,,610342791f17a52c9fd5ea36,61036b8664e6c768e90c335e,2021-07-29_22h01.59.093,Simcolourproject_2stim_asymm_v5,2020.2.10,Win32,60,61025ae37ef11b136ea224fe,,,,,,,,,4172,-40,-99,1,0,0,response5disk,,3,46,-7,1,0,0,rectangle,46,-7,1,0,0,46,-7,1,0,0,0,74,74,110,1,,,,,,,,
,,,,,,,,,,,,,FF,,,,,,,,1.3543,,,,,,,,,,,,,,,,,,,,,,610342791f17a52c9fd5ea36,61036b8664e6c768e90c335e,2021-07-29_22h01.59.093,Simcolourproject_2stim_asymm_v5,2020.2.10,Win32,60,61025ae37ef11b136ea224fe,,,,,,,,,130,122,-64,1,0,0,response3disk,,5,16,-10,1,0,0,rectangle,16,-10,1,0,0,16,-10,1,0,0,0,75,75,59,1,,,,,,,,
,,,,,,,,,,,,,FF,,,,,,,,0.6945,,,,,,,,,,,,,,,,,,,,,,610342791f17a52c9fd5ea36,61036b8664e6c768e90c335e,2021-07-29_22h01.59.093,Simcolourproject_2stim_asymm_v5,2020.2.10,Win32,60,61025ae37ef11b136ea224fe,,,,,,,,,959,94,33,1,0,0,response1disk,,6,18,-10,1,0,0,rectangle,18,-10,1,0,0,18,-10,1,0,0,0,76,76,75,1,,,,,,,,
,,,,,,,,,,,,,FF,,,,,,,,1.4469,,,,,,,,,,,,,,,,,,,,,,610342791f17a52c9fd5ea36,61036b8664e6c768e90c335e,2021-07-29_22h01.59.093,Simcolourproject_2stim_asymm_v5,2020.2.10,Win32,60,61025ae37ef11b136ea224fe,,,,,,,,,1527,106,-68,1,0,0,response3disk,,5,14,-16,1,0,0,rectangle,-157,57,1,0,0,-15,4,1,0,0,0,77,77,120,1,,response7disk_3,TRUE,1,1,"[250,78,232,106,25,273,74,248,241,202,73,92,244,294,250,254,196,195,156,178]",1.5624,rectangle
,,,,,,,,,,,,,FF,,,,,,,,0.896,,,,,,,,,,,,,,,,,,,,,,610342791f17a52c9fd5ea36,61036b8664e6c768e90c335e,2021-07-29_22h01.59.093,Simcolourproject_2stim_asymm_v5,2020.2.10,Win32,60,61025ae37ef11b136ea224fe,,,,,,,,,829,94,61,1,0,0,response1disk,,6,18,-1,1,0,0,rectangle,18,-1,1,0,0,18,-1,1,0,0,0,78,78,104,1,,,,,,,,
,,,,,,,,,,,,,FF,,,,,,,,0.8542,,,,,,,,,,,,,,,,,,,,,,610342791f17a52c9fd5ea36,61036b8664e6c768e90c335e,2021-07-29_22h01.59.093,Simcolourproject_2stim_asymm_v5,2020.2.10,Win32,60,61025ae37ef11b136ea224fe,,,,,,,,,674,108,-56,1,0,0,response3disk,,5,5,-10,1,0,0,rectangle,5,-10,1,0,0,5,-10,1,0,0,0,79,79,68,1,,,,,,,,
,,,,,,,,,,,,,FF,,,,,,,,1.0625,,,,,,,,,,,,,,,,,,,,,,610342791f17a52c9fd5ea36,61036b8664e6c768e90c335e,2021-07-29_22h01.59.093,Simcolourproject_2stim_asymm_v5,2020.2.10,Win32,60,61025ae37ef11b136ea224fe,,,,,,,,,814,110,50,1,0,0,response1disk,,6,18,4,1,0,0,rectangle,18,4,1,0,0,18,4,1,0,0,0,80,80,56,1,,,,,,,,
,,,,,,,,,,,,,FF,,,,,,,,1.0833,,,,,,,,,,,,,,,,,,,,,,610342791f17a52c9fd5ea36,61036b8664e6c768e90c335e,2021-07-29_22h01.59.093,Simcolourproject_2stim_asymm_v5,2020.2.10,Win32,60,61025ae37ef11b136ea224fe,,,,,,,,,2037,-53,-78,1,0,0,response5disk,,3,4,7,1,0,0,rectangle,4,7,1,0,0,4,7,1,0,0,0,81,81,159,1,,,,,,,,
,,,,,,,,,,,,,FF,,,,,,,,1.1667,,,,,,,,,,,,,,,,,,,,,,610342791f17a52c9fd5ea36,61036b8664e6c768e90c335e,2021-07-29_22h01.59.093,Simcolourproject_2stim_asymm_v5,2020.2.10,Win32,60,61025ae37ef11b136ea224fe,,,,,,,,,1559,105,76,1,0,0,response1disk,,6,21,7,1,0,0,rectangle,21,7,1,0,0,21,7,1,0,0,0,82,82,88,1,,,,,,,,
,,,,,,,,,,,,,FF,,,,,,,,1.8334,,,,,,,,,,,,,,,,,,,,,,610342791f17a52c9fd5ea36,61036b8664e6c768e90c335e,2021-07-29_22h01.59.093,Simcolourproject_2stim_asymm_v5,2020.2.10,Win32,60,61025ae37ef11b136ea224fe,,,,,,,,,2,-116,-73,1,0,0,response5disk,,2,12,0,1,0,0,rectangle,12,0,1,0,0,12,0,1,0,0,0,83,83,21,1,,,,,,,,
,,,,,,,,,,,,,FF,,,,,,,,1.7367,,,,,,,,,,,,,,,,,,,,,,610342791f17a52c9fd5ea36,61036b8664e6c768e90c335e,2021-07-29_22h01.59.093,Simcolourproject_2stim_asymm_v5,2020.2.10,Win32,60,61025ae37ef11b136ea224fe,,,,,,,,,3808,44,-88,1,0,0,response3disk,,4,-12,-26,1,0,0,rectangle,-12,-26,1,0,0,-12,-26,1,0,0,0,84,84,11,1,,,,,,,,
,,,,,,,,,,,,,FF,,,,,,,,0.8331,,,,,,,,,,,,,,,,,,,,,,610342791f17a52c9fd5ea36,61036b8664e6c768e90c335e,2021-07-29_22h01.59.093,Simcolourproject_2stim_asymm_v5,2020.2.10,Win32,60,61025ae37ef11b136ea224fe,,,,,,,,,808,-141,-52,1,0,0,response5disk,,2,-20,4,1,0,0,rectangle,-20,4,1,0,0,-20,4,1,0,0,0,85,85,24,1,,,,,,,,
,,,,,,,,,,,,,FF,,,,,,,,1.0623,,,,,,,,,,,,,,,,,,,,,,610342791f17a52c9fd5ea36,61036b8664e6c768e90c335e,2021-07-29_22h01.59.093,Simcolourproject_2stim_asymm_v5,2020.2.10,Win32,60,61025ae37ef11b136ea224fe,,,,,,,,,1065,-54,-110,1,0,0,response5disk,,3,17,-13,1,0,0,rectangle,17,-13,1,0,0,17,-13,1,0,0,0,86,86,65,1,,,,,,,,
,,,,,,,,,,,,,FF,,,,,,,,0.8264,,,,,,,,,,,,,,,,,,,,,,610342791f17a52c9fd5ea36,61036b8664e6c768e90c335e,2021-07-29_22h01.59.093,Simcolourproject_2stim_asymm_v5,2020.2.10,Win32,60,61025ae37ef11b136ea224fe,,,,,,,,,920,97,-44,1,0,0,response3disk,,5,20,-6,1,0,0,rectangle,20,-6,1,0,0,20,-6,1,0,0,0,87,87,22,1,,,,,,,,
,,,,,,,,,,,,,FF,,,,,,,,0.882,,,,,,,,,,,,,,,,,,,,,,610342791f17a52c9fd5ea36,61036b8664e6c768e90c335e,2021-07-29_22h01.59.093,Simcolourproject_2stim_asymm_v5,2020.2.10,Win32,60,61025ae37ef11b136ea224fe,,,,,,,,,355,-92,-45,1,0,0,response5disk,,2,16,9,1,0,0,rectangle,16,9,1,0,0,16,9,1,0,0,0,88,88,141,1,,,,,,,,
,,,,,,,,,,,,,FF,,,,,,,,1.1181,,,,,,,,,,,,,,,,,,,,,,610342791f17a52c9fd5ea36,61036b8664e6c768e90c335e,2021-07-29_22h01.59.093,Simcolourproject_2stim_asymm_v5,2020.2.10,Win32,60,61025ae37ef11b136ea224fe,,,,,,,,,2578,111,-57,1,0,0,response3disk,,5,10,-12,1,0,0,rectangle,10,-12,1,0,0,10,-12,1,0,0,0,89,89,151,1,,,,,,,,
,,,,,,,,,,,,,FF,,,,,,,,1.0003,,,,,,,,,,,,,,,,,,,,,,610342791f17a52c9fd5ea36,61036b8664e6c768e90c335e,2021-07-29_22h01.59.093,Simcolourproject_2stim_asymm_v5,2020.2.10,Win32,60,61025ae37ef11b136ea224fe,,,,,,,,,1837,71,-36,1,0,0,response3disk,,5,12,4,1,0,0,rectangle,12,4,1,0,0,12,4,1,0,0,0,90,90,131,1,,,,,,,,
,,,,,,,,,,,,,FF,,,,,,,,1.1744,,,,,,,,,,,,,,,,,,,,,,610342791f17a52c9fd5ea36,61036b8664e6c768e90c335e,2021-07-29_22h01.59.093,Simcolourproject_2stim_asymm_v5,2020.2.10,Win32,60,61025ae37ef11b136ea224fe,,,,,,,,,3158,45,-83,1,0,0,response3disk,,4,11,-4,1,0,0,rectangle,-66,-111,1,0,0,-10,-5,1,0,0,0,91,91,155,1,,response5disk_3,TRUE,3,3,"[250,78,232,106,25,273,74,248,241,202,73,92,244,294,250,254,196,195,156,178]",1.7633,rectangle
,,,,,,,,,,,,,FF,,,,,,,,1.8403,,,,,,,,,,,,,,,,,,,,,,610342791f17a52c9fd5ea36,61036b8664e6c768e90c335e,2021-07-29_22h01.59.093,Simcolourproject_2stim_asymm_v5,2020.2.10,Win32,60,61025ae37ef11b136ea224fe,,,,,,,,,3865,127,47,1,0,0,response1disk,,6,48,-8,1,0,0,rectangle,48,-8,1,0,0,48,-8,1,0,0,0,92,92,42,1,,,,,,,,
,,,,,,,,,,,,,FF,,,,,,,,0.5417,,,,,,,,,,,,,,,,,,,,,,610342791f17a52c9fd5ea36,61036b8664e6c768e90c335e,2021-07-29_22h01.59.093,Simcolourproject_2stim_asymm_v5,2020.2.10,Win32,60,61025ae37ef11b136ea224fe,,,,,,,,,1932,106,35,1,0,0,response1disk,,6,14,-10,1,0,0,rectangle,14,-10,1,0,0,14,-10,1,0,0,0,93,93,57,1,,,,,,,,
,,,,,,,,,,,,,FF,,,,,,,,0.7777,,,,,,,,,,,,,,,,,,,,,,610342791f17a52c9fd5ea36,61036b8664e6c768e90c335e,2021-07-29_22h01.59.093,Simcolourproject_2stim_asymm_v5,2020.2.10,Win32,60,61025ae37ef11b136ea224fe,,,,,,,,,421,75,-57,1,0,0,response3disk,,5,-27,-5,1,0,0,rectangle,-27,-5,1,0,0,-27,-5,1,0,0,0,94,94,45,1,,,,,,,,
,,,,,,,,,,,,,FF,,,,,,,,0.9236,,,,,,,,,,,,,,,,,,,,,,610342791f17a52c9fd5ea36,61036b8664e6c768e90c335e,2021-07-29_22h01.59.093,Simcolourproject_2stim_asymm_v5,2020.2.10,Win32,60,61025ae37ef11b136ea224fe,,,,,,,,,1476,86,-41,1,0,0,response3disk,,5,-2,15,1,0,0,rectangle,-2,15,1,0,0,-2,15,1,0,0,0,95,95,149,1,,,,,,,,
,,,,,,,,,,,,,FF,,,,,,,,0.507,,,,,,,,,,,,,,,,,,,,,,610342791f17a52c9fd5ea36,61036b8664e6c768e90c335e,2021-07-29_22h01.59.093,Simcolourproject_2stim_asymm_v5,2020.2.10,Win32,60,61025ae37ef11b136ea224fe,,,,,,,,,1846,84,-49,1,0,0,response3disk,,5,43,5,1,0,0,rectangle,43,5,1,0,0,43,5,1,0,0,0,96,96,46,1,,,,,,,,
,,,,,,,,,,,,,FF,,,,,,,,1.1806,,,,,,,,,,,,,,,,,,,,,,610342791f17a52c9fd5ea36,61036b8664e6c768e90c335e,2021-07-29_22h01.59.093,Simcolourproject_2stim_asymm_v5,2020.2.10,Win32,60,61025ae37ef11b136ea224fe,,,,,,,,,2918,52,100,1,0,0,response1disk,,7,31,10,1,0,0,rectangle,31,10,1,0,0,31,10,1,0,0,0,97,97,150,1,,,,,,,,
,,,,,,,,,,,,,FF,,,,,,,,1.3889,,,,,,,,,,,,,,,,,,,,,,610342791f17a52c9fd5ea36,61036b8664e6c768e90c335e,2021-07-29_22h01.59.093,Simcolourproject_2stim_asymm_v5,2020.2.10,Win32,60,61025ae37ef11b136ea224fe,,,,,,,,,740,100,-50,1,0,0,response3disk,,5,9,-8,1,0,0,rectangle,9,-8,1,0,0,9,-8,1,0,0,0,98,98,16,1,,,,,,,,
,,,,,,,,,,,,,FF,,,,,,,,0.8405,,,,,,,,,,,,,,,,,,,,,,610342791f17a52c9fd5ea36,61036b8664e6c768e90c335e,2021-07-29_22h01.59.093,Simcolourproject_2stim_asymm_v5,2020.2.10,Win32,60,61025ae37ef11b136ea224fe,,,,,,,,,412,96,48,1,0,0,response1disk,,6,-6,4,1,0,0,rectangle,-6,4,1,0,0,-6,4,1,0,0,0,99,99,82,1,,,,,,,,
,,,,,,,,,,,,,FF,,,,,,,,0.7848,,,,,,,,,,,,,,,,,,,,,,610342791f17a52c9fd5ea36,61036b8664e6c768e90c335e,2021-07-29_22h01.59.093,Simcolourproject_2stim_asymm_v5,2020.2.10,Win32,60,61025ae37ef11b136ea224fe,,,,,,,,,1760,45,-79,1,0,0,response3disk,,4,6,-9,1,0,0,rectangle,6,-9,1,0,0,6,-9,1,0,0,0,100,100,112,1,,,,,,,,
,,,,,,,,,,,,,FF,,,,,,,,0.9161,,,,,,,,,,,,,,,,,,,,,,610342791f17a52c9fd5ea36,61036b8664e6c768e90c335e,2021-07-29_22h01.59.093,Simcolourproject_2stim_asymm_v5,2020.2.10,Win32,60,61025ae37ef11b136ea224fe,,,,,,,,,2980,108,66,1,0,0,response1disk,,6,14,0,1,0,0,rectangle,14,0,1,0,0,14,0,1,0,0,0,101,101,7,1,,,,,,,,
,,,,,,,,,,,,,FF,,,,,,,,0.7223,,,,,,,,,,,,,,,,,,,,,,610342791f17a52c9fd5ea36,61036b8664e6c768e90c335e,2021-07-29_22h01.59.093,Simcolourproject_2stim_asymm_v5,2020.2.10,Win32,60,61025ae37ef11b136ea224fe,,,,,,,,,4093,118,42,1,0,0,response1disk,,6,38,-9,1,0,0,rectangle,38,-9,1,0,0,38,-9,1,0,0,0,102,102,158,1,,,,,,,,
,,,,,,,,,,,,,FF,,,,,,,,0.7916,,,,,,,,,,,,,,,,,,,,,,610342791f17a52c9fd5ea36,61036b8664e6c768e90c335e,2021-07-29_22h01.59.093,Simcolourproject_2stim_asymm_v5,2020.2.10,Win32,60,61025ae37ef11b136ea224fe,,,,,,,,,1865,92,43,1,0,0,response1disk,,6,9,-16,1,0,0,rectangle,9,-16,1,0,0,9,-16,1,0,0,0,103,103,63,1,,,,,,,,
,,,,,,,,,,,,,FF,,,,,,,,0.618,,,,,,,,,,,,,,,,,,,,,,610342791f17a52c9fd5ea36,61036b8664e6c768e90c335e,2021-07-29_22h01.59.093,Simcolourproject_2stim_asymm_v5,2020.2.10,Win32,60,61025ae37ef11b136ea224fe,,,,,,,,,1135,105,51,1,0,0,response1disk,,6,-6,-4,1,0,0,rectangle,-6,-4,1,0,0,-6,-4,1,0,0,0,104,104,36,1,,,,,,,,
,,,,,,,,,,,,,FF,,,,,,,,0.7918,,,,,,,,,,,,,,,,,,,,,,610342791f17a52c9fd5ea36,61036b8664e6c768e90c335e,2021-07-29_22h01.59.093,Simcolourproject_2stim_asymm_v5,2020.2.10,Win32,60,61025ae37ef11b136ea224fe,,,,,,,,,3087,106,58,1,0,0,response1disk,,6,26,-1,1,0,0,rectangle,-46,-109,1,0,0,-8,0,1,0,0,0,105,105,5,1,,response5disk_3,TRUE,3,3,"[250,78,232,106,25,273,74,248,241,202,73,92,244,294,250,254,196,195,156,178]",1.6454,rectangle
,,,,,,,,,,,,,FF,,,,,,,,1.0624,,,,,,,,,,,,,,,,,,,,,,610342791f17a52c9fd5ea36,61036b8664e6c768e90c335e,2021-07-29_22h01.59.093,Simcolourproject_2stim_asymm_v5,2020.2.10,Win32,60,61025ae37ef11b136ea224fe,,,,,,,,,2147,68,109,1,0,0,response1disk,,7,14,5,1,0,0,rectangle,14,5,1,0,0,14,5,1,0,0,0,106,106,113,1,,,,,,,,
,,,,,,,,,,,,,FF,,,,,,,,0.9068,,,,,,,,,,,,,,,,,,,,,,610342791f17a52c9fd5ea36,61036b8664e6c768e90c335e,2021-07-29_22h01.59.093,Simcolourproject_2stim_asymm_v5,2020.2.10,Win32,60,61025ae37ef11b136ea224fe,,,,,,,,,3338,-52,-79,1,0,0,response5disk,,3,-6,11,1,0,0,rectangle,-6,11,1,0,0,-6,11,1,0,0,0,107,107,23,1,,,,,,,,
,,,,,,,,,,,,,FF,,,,,,,,2.0764,,,,,,,,,,,,,,,,,,,,,,610342791f17a52c9fd5ea36,61036b8664e6c768e90c335e,2021-07-29_22h01.59.093,Simcolourproject_2stim_asymm_v5,2020.2.10,Win32,60,61025ae37ef11b136ea224fe,,,,,,,,,4189,-100,-55,1,0,0,response5disk,,2,-1,-2,1,0,0,rectangle,-1,-2,1,0,0,-1,-2,1,0,0,0,108,108,121,1,,,,,,,,
,,,,,,,,,,,,,FF,,,,,,,,1.4098,,,,,,,,,,,,,,,,,,,,,,610342791f17a52c9fd5ea36,61036b8664e6c768e90c335e,2021-07-29_22h01.59.093,Simcolourproject_2stim_asymm_v5,2020.2.10,Win32,60,61025ae37ef11b136ea224fe,,,,,,,,,2693,89,-54,1,0,0,response3disk,,5,17,-10,1,0,0,rectangle,17,-10,1,0,0,17,-10,1,0,0,0,109,109,51,1,,,,,,,,
,,,,,,,,,,,,,FF,,,,,,,,0.9721,,,,,,,,,,,,,,,,,,,,,,610342791f17a52c9fd5ea36,61036b8664e6c768e90c335e,2021-07-29_22h01.59.093,Simcolourproject_2stim_asymm_v5,2020.2.10,Win32,60,61025ae37ef11b136ea224fe,,,,,,,,,601,81,-39,1,0,0,response3disk,,5,21,5,1,0,0,rectangle,21,5,1,0,0,21,5,1,0,0,0,110,110,137,1,,,,,,,,
,,,,,,,,,,,,,FF,,,,,,,,0.8544,,,,,,,,,,,,,,,,,,,,,,610342791f17a52c9fd5ea36,61036b8664e6c768e90c335e,2021-07-29_22h01.59.093,Simcolourproject_2stim_asymm_v5,2020.2.10,Win32,60,61025ae37ef11b136ea224fe,,,,,,,,,322,88,37,1,0,0,response1disk,,6,24,-15,1,0,0,rectangle,24,-15,1,0,0,24,-15,1,0,0,0,111,111,135,1,,,,,,,,
,,,,,,,,,,,,,FF,,,,,,,,0.8613,,,,,,,,,,,,,,,,,,,,,,610342791f17a52c9fd5ea36,61036b8664e6c768e90c335e,2021-07-29_22h01.59.093,Simcolourproject_2stim_asymm_v5,2020.2.10,Win32,60,61025ae37ef11b136ea224fe,,,,,,,,,3816,82,-51,1,0,0,response3disk,,5,9,-2,1,0,0,rectangle,9,-2,1,0,0,9,-2,1,0,0,0,112,112,143,1,,,,,,,,
,,,,,,,,,,,,,FF,,,,,,,,0.75,,,,,,,,,,,,,,,,,,,,,,610342791f17a52c9fd5ea36,61036b8664e6c768e90c335e,2021-07-29_22h01.59.093,Simcolourproject_2stim_asymm_v5,2020.2.10,Win32,60,61025ae37ef11b136ea224fe,,,,,,,,,1503,39,91,1,0,0,response1disk,,7,6,6,1,0,0,rectangle,6,6,1,0,0,6,6,1,0,0,0,113,113,50,1,,,,,,,,
,,,,,,,,,,,,,FF,,,,,,,,0.6597,,,,,,,,,,,,,,,,,,,,,,610342791f17a52c9fd5ea36,61036b8664e6c768e90c335e,2021-07-29_22h01.59.093,Simcolourproject_2stim_asymm_v5,2020.2.10,Win32,60,61025ae37ef11b136ea224fe,,,,,,,,,1256,90,50,1,0,0,response1disk,,6,14,-12,1,0,0,rectangle,14,-12,1,0,0,14,-12,1,0,0,0,114,114,114,1,,,,,,,,
,,,,,,,,,,,,,FF,,,,,,,,0.5555,,,,,,,,,,,,,,,,,,,,,,610342791f17a52c9fd5ea36,61036b8664e6c768e90c335e,2021-07-29_22h01.59.093,Simcolourproject_2stim_asymm_v5,2020.2.10,Win32,60,61025ae37ef11b136ea224fe,,,,,,,,,304,46,76,1,0,0,response1disk,,7,2,-10,1,0,0,rectangle,2,-10,1,0,0,2,-10,1,0,0,0,115,115,38,1,,,,,,,,
,,,,,,,,,,,,,FF,,,,,,,,1.4238,,,,,,,,,,,,,,,,,,,,,,610342791f17a52c9fd5ea36,61036b8664e6c768e90c335e,2021-07-29_22h01.59.093,Simcolourproject_2stim_asymm_v5,2020.2.10,Win32,60,61025ae37ef11b136ea224fe,,,,,,,,,897,117,-56,1,0,0,response3disk,,5,7,-3,1,0,0,rectangle,7,-3,1,0,0,7,-3,1,0,0,0,116,116,148,1,,,,,,,,
,,,,,,,,,,,,,FF,,,,,,,,0.7103,,,,,,,,,,,,,,,,,,,,,,610342791f17a52c9fd5ea36,61036b8664e6c768e90c335e,2021-07-29_22h01.59.093,Simcolourproject_2stim_asymm_v5,2020.2.10,Win32,60,61025ae37ef11b136ea224fe,,,,,,,,,2588,32,88,1,0,0,response1disk,,7,2,10,1,0,0,rectangle,2,10,1,0,0,2,10,1,0,0,0,117,117,28,1,,,,,,,,
,,,,,,,,,,,,,FF,,,,,,,,1.7237,,,,,,,,,,,,,,,,,,,,,,610342791f17a52c9fd5ea36,61036b8664e6c768e90c335e,2021-07-29_22h01.59.093,Simcolourproject_2stim_asymm_v5,2020.2.10,Win32,60,61025ae37ef11b136ea224fe,,,,,,,,,2477,83,37,1,0,0,response1disk,,6,23,-17,1,0,0,rectangle,23,-17,1,0,0,23,-17,1,0,0,0,118,118,64,1,,,,,,,,
,,,,,,,,,,,,,FF,,,,,,,,2.2756,,,,,,,,,,,,,,,,,,,,,,610342791f17a52c9fd5ea36,61036b8664e6c768e90c335e,2021-07-29_22h01.59.093,Simcolourproject_2stim_asymm_v5,2020.2.10,Win32,60,61025ae37ef11b136ea224fe,,,,,,,,,2084,47,-117,1,0,0,response3disk,,4,-4,-12,1,0,0,rectangle,-4,-12,1,0,0,-4,-12,1,0,0,0,119,119,10,1,,,,,,,,
,,,,,,,,,,,,,FF,,,,,,,,1.1116,,,,,,,,,,,,,,,,,,,,,,610342791f17a52c9fd5ea36,61036b8664e6c768e90c335e,2021-07-29_22h01.59.093,Simcolourproject_2stim_asymm_v5,2020.2.10,Win32,60,61025ae37ef11b136ea224fe,,,,,,,,,2463,101,62,1,0,0,response1disk,,6,16,0,1,0,0,rectangle,16,0,1,0,0,16,0,1,0,0,0,120,120,8,1,,,,,,,,
,,,,,,,,,,,,,FF,,,,,,,,1.5069,,,,,,,,,,,,,,,,,,,,,,610342791f17a52c9fd5ea36,61036b8664e6c768e90c335e,2021-07-29_22h01.59.093,Simcolourproject_2stim_asymm_v5,2020.2.10,Win32,60,61025ae37ef11b136ea224fe,,,,,,,,,1170,118,56,1,0,0,response1disk,,6,32,-6,1,0,0,rectangle,32,-6,1,0,0,32,-6,1,0,0,0,121,121,153,1,,,,,,,,
,,,,,,,,,,,,,FF,,,,,,,,0.9237,,,,,,,,,,,,,,,,,,,,,,610342791f17a52c9fd5ea36,61036b8664e6c768e90c335e,2021-07-29_22h01.59.093,Simcolourproject_2stim_asymm_v5,2020.2.10,Win32,60,61025ae37ef11b136ea224fe,,,,,,,,,1950,112,-73,1,0,0,response3disk,,5,-16,0,1,0,0,rectangle,-16,0,1,0,0,-16,0,1,0,0,0,122,122,13,1,,,,,,,,
,,,,,,,,,,,,,FF,,,,,,,,1.1895,,,,,,,,,,,,,,,,,,,,,,610342791f17a52c9fd5ea36,61036b8664e6c768e90c335e,2021-07-29_22h01.59.093,Simcolourproject_2stim_asymm_v5,2020.2.10,Win32,60,61025ae37ef11b136ea224fe,,,,,,,,,3205,-103,-156,1,0,0,response5disk,,3,-8,-14,1,0,0,rectangle,-8,-14,1,0,0,-8,-14,1,0,0,0,123,123,53,1,,,,,,,,
,,,,,,,,,,,,,FF,,,,,,,,1.0071,,,,,,,,,,,,,,,,,,,,,,610342791f17a52c9fd5ea36,61036b8664e6c768e90c335e,2021-07-29_22h01.59.093,Simcolourproject_2stim_asymm_v5,2020.2.10,Win32,60,61025ae37ef11b136ea224fe,,,,,,,,,2712,-56,-111,1,0,0,response5disk,,3,23,-3,1,0,0,rectangle,23,-3,1,0,0,23,-3,1,0,0,0,124,124,49,1,,,,,,,,
,,,,,,,,,,,,,FF,,,,,,,,3.1036,,,,,,,,,,,,,,,,,,,,,,610342791f17a52c9fd5ea36,61036b8664e6c768e90c335e,2021-07-29_22h01.59.093,Simcolourproject_2stim_asymm_v5,2020.2.10,Win32,60,61025ae37ef11b136ea224fe,,,,,,,,,1574,47,117,1,0,0,response1disk,,7,14,1,1,0,0,rectangle,14,1,1,0,0,14,1,1,0,0,0,125,125,60,1,,,,,,,,
,,,,,,,,,,,,,FF,,,,,,,,0.986,,,,,,,,,,,,,,,,,,,,,,610342791f17a52c9fd5ea36,61036b8664e6c768e90c335e,2021-07-29_22h01.59.093,Simcolourproject_2stim_asymm_v5,2020.2.10,Win32,60,61025ae37ef11b136ea224fe,,,,,,,,,3599,-57,-119,1,0,0,response5disk,,3,-1,-1,1,0,0,rectangle,-1,-1,1,0,0,-1,-1,1,0,0,0,126,126,90,1,,,,,,,,
,,,,,,,,,,,,,FF,,,,,,,,0.896,,,,,,,,,,,,,,,,,,,,,,610342791f17a52c9fd5ea36,61036b8664e6c768e90c335e,2021-07-29_22h01.59.093,Simcolourproject_2stim_asymm_v5,2020.2.10,Win32,60,61025ae37ef11b136ea224fe,,,,,,,,,1678,57,-121,1,0,0,response3disk,,4,33,1,1,0,0,rectangle,33,1,1,0,0,33,1,1,0,0,0,127,127,115,1,,,,,,,,
,,,,,,,,,,,,,FF,,,,,,,,0.736,,,,,,,,,,,,,,,,,,,,,,610342791f17a52c9fd5ea36,61036b8664e6c768e90c335e,2021-07-29_22h01.59.093,Simcolourproject_2stim_asymm_v5,2020.2.10,Win32,60,61025ae37ef11b136ea224fe,,,,,,,,,90,119,-59,1,0,0,response3disk,,5,13,2,1,0,0,rectangle,13,2,1,0,0,13,2,1,0,0,0,128,128,102,1,,,,,,,,
,,,,,,,,,,,,,FF,,,,,,,,0.5555,,,,,,,,,,,,,,,,,,,,,,610342791f17a52c9fd5ea36,61036b8664e6c768e90c335e,2021-07-29_22h01.59.093,Simcolourproject_2stim_asymm_v5,2020.2.10,Win32,60,61025ae37ef11b136ea224fe,,,,,,,,,2856,123,-54,1,0,0,response3disk,,5,2,11,1,0,0,rectangle,2,11,1,0,0,2,11,1,0,0,0,129,129,35,1,,,,,,,,
,,,,,,,,,,,,,FF,,,,,,,,0.7014,,,,,,,,,,,,,,,,,,,,,,610342791f17a52c9fd5ea36,61036b8664e6c768e90c335e,2021-07-29_22h01.59.093,Simcolourproject_2stim_asymm_v5,2020.2.10,Win32,60,61025ae37ef11b136ea224fe,,,,,,,,,1038,49,-112,1,0,0,response3disk,,4,1,-3,1,0,0,rectangle,1,-3,1,0,0,1,-3,1,0,0,0,130,130,103,1,,,,,,,,
,,,,,,,,,,,,,FF,,,,,,,,1.1042,,,,,,,,,,,,,,,,,,,,,,610342791f17a52c9fd5ea36,61036b8664e6c768e90c335e,2021-07-29_22h01.59.093,Simcolourproject_2stim_asymm_v5,2020.2.10,Win32,60,61025ae37ef11b136ea224fe,,,,,,,,,3738,53,-109,1,0,0,response3disk,,4,-19,-13,1,0,0,rectangle,-19,-13,1,0,0,-19,-13,1,0,0,0,131,131,117,1,,,,,,,,
,,,,,,,,,,,,,FF,,,,,,,,1.5695,,,,,,,,,,,,,,,,,,,,,,610342791f17a52c9fd5ea36,61036b8664e6c768e90c335e,2021-07-29_22h01.59.093,Simcolourproject_2stim_asymm_v5,2020.2.10,Win32,60,61025ae37ef11b136ea224fe,,,,,,,,,3200,-125,-78,1,0,0,response5disk,,2,-1,-4,1,0,0,rectangle,-1,-4,1,0,0,-1,-4,1,0,0,0,132,132,71,1,,,,,,,,
,,,,,,,,,,,,,FF,,,,,,,,1.4231,,,,,,,,,,,,,,,,,,,,,,610342791f17a52c9fd5ea36,61036b8664e6c768e90c335e,2021-07-29_22h01.59.093,Simcolourproject_2stim_asymm_v5,2020.2.10,Win32,60,61025ae37ef11b136ea224fe,,,,,,,,,760,149,-67,1,0,0,response3disk,,5,13,-5,1,0,0,rectangle,13,-5,1,0,0,13,-5,1,0,0,0,133,133,79,1,,,,,,,,
,,,,,,,,,,,,,FF,,,,,,,,1.5064,,,,,,,,,,,,,,,,,,,,,,610342791f17a52c9fd5ea36,61036b8664e6c768e90c335e,2021-07-29_22h01.59.093,Simcolourproject_2stim_asymm_v5,2020.2.10,Win32,60,61025ae37ef11b136ea224fe,,,,,,,,,3954,-59,-127,1,0,0,response5disk,,3,-11,-19,1,0,0,rectangle,-11,-19,1,0,0,-11,-19,1,0,0,0,134,134,17,1,,,,,,,,
,,,,,,,,,,,,,FF,,,,,,,,2.2507,,,,,,,,,,,,,,,,,,,,,,610342791f17a52c9fd5ea36,61036b8664e6c768e90c335e,2021-07-29_22h01.59.093,Simcolourproject_2stim_asymm_v5,2020.2.10,Win32,60,61025ae37ef11b136ea224fe,,,,,,,,,638,79,-144,1,0,0,response3disk,,4,9,-7,1,0,0,rectangle,9,-7,1,0,0,9,-7,1,0,0,0,135,135,84,1,,,,,,,,
,,,,,,,,,,,,,FF,,,,,,,,0.9183,,,,,,,,,,,,,,,,,,,,,,610342791f17a52c9fd5ea36,61036b8664e6c768e90c335e,2021-07-29_22h01.59.093,Simcolourproject_2stim_asymm_v5,2020.2.10,Win32,60,61025ae37ef11b136ea224fe,,,,,,,,,3025,132,48,1,0,0,response1disk,,6,39,4,1,0,0,rectangle,39,4,1,0,0,39,4,1,0,0,0,136,136,119,1,,,,,,,,
,,,,,,,,,,,,,FF,,,,,,,,1.2451,,,,,,,,,,,,,,,,,,,,,,610342791f17a52c9fd5ea36,61036b8664e6c768e90c335e,2021-07-29_22h01.59.093,Simcolourproject_2stim_asymm_v5,2020.2.10,Win32,60,61025ae37ef11b136ea224fe,,,,,,,,,1617,49,-143,1,0,0,response3disk,,4,14,-25,1,0,0,rectangle,14,-25,1,0,0,14,-25,1,0,0,0,137,137,140,1,,,,,,,,
,,,,,,,,,,,,,FF,,,,,,,,2.3681,,,,,,,,,,,,,,,,,,,,,,610342791f17a52c9fd5ea36,61036b8664e6c768e90c335e,2021-07-29_22h01.59.093,Simcolourproject_2stim_asymm_v5,2020.2.10,Win32,60,61025ae37ef11b136ea224fe,,,,,,,,,394,108,-48,1,0,0,response3disk,,5,11,7,1,0,0,rectangle,11,7,1,0,0,11,7,1,0,0,0,138,138,126,1,,,,,,,,
,,,,,,,,,,,,,FF,,,,,,,,1.1736,,,,,,,,,,,,,,,,,,,,,,610342791f17a52c9fd5ea36,61036b8664e6c768e90c335e,2021-07-29_22h01.59.093,Simcolourproject_2stim_asymm_v5,2020.2.10,Win32,60,61025ae37ef11b136ea224fe,,,,,,,,,212,120,41,1,0,0,response1disk,,6,17,-12,1,0,0,rectangle,17,-12,1,0,0,17,-12,1,0,0,0,139,139,142,1,,,,,,,,
,,,,,,,,,,,,,FF,,,,,,,,2.6111,,,,,,,,,,,,,,,,,,,,,,610342791f17a52c9fd5ea36,61036b8664e6c768e90c335e,2021-07-29_22h01.59.093,Simcolourproject_2stim_asymm_v5,2020.2.10,Win32,60,61025ae37ef11b136ea224fe,,,,,,,,,664,146,-73,1,0,0,response3disk,,5,12,-1,1,0,0,rectangle,12,-1,1,0,0,12,-1,1,0,0,0,140,140,67,1,,,,,,,,
,,,,,,,,,,,,,FF,,,,,,,,1.6457,,,,,,,,,,,,,,,,,,,,,,610342791f17a52c9fd5ea36,61036b8664e6c768e90c335e,2021-07-29_22h01.59.093,Simcolourproject_2stim_asymm_v5,2020.2.10,Win32,60,61025ae37ef11b136ea224fe,,,,,,,,,4294,-159,-83,1,0,0,response5disk,,2,22,3,1,0,0,rectangle,22,3,1,0,0,22,3,1,0,0,0,141,141,156,1,,,,,,,,
,,,,,,,,,,,,,FF,,,,,,,,1.4534,,,,,,,,,,,,,,,,,,,,,,610342791f17a52c9fd5ea36,61036b8664e6c768e90c335e,2021-07-29_22h01.59.093,Simcolourproject_2stim_asymm_v5,2020.2.10,Win32,60,61025ae37ef11b136ea224fe,,,,,,,,,2129,70,-117,1,0,0,response3disk,,4,14,-6,1,0,0,rectangle,14,-6,1,0,0,14,-6,1,0,0,0,142,142,136,1,,,,,,,,
,,,,,,,,,,,,,FF,,,,,,,,0.8943,,,,,,,,,,,,,,,,,,,,,,610342791f17a52c9fd5ea36,61036b8664e6c768e90c335e,2021-07-29_22h01.59.093,Simcolourproject_2stim_asymm_v5,2020.2.10,Win32,60,61025ae37ef11b136ea224fe,,,,,,,,,1182,100,-69,1,0,0,response3disk,,5,-20,-4,1,0,0,rectangle,-20,-4,1,0,0,-20,-4,1,0,0,0,143,143,30,1,,,,,,,,
,,,,,,,,,,,,,FF,,,,,,,,1.0551,,,,,,,,,,,,,,,,,,,,,,610342791f17a52c9fd5ea36,61036b8664e6c768e90c335e,2021-07-29_22h01.59.093,Simcolourproject_2stim_asymm_v5,2020.2.10,Win32,60,61025ae37ef11b136ea224fe,,,,,,,,,3209,-65,-113,1,0,0,response5disk,,3,-3,-11,1,0,0,rectangle,-3,-11,1,0,0,-3,-11,1,0,0,0,144,144,132,1,,,,,,,,
,,,,,,,,,,,,,FF,,,,,,,,1.18,,,,,,,,,,,,,,,,,,,,,,610342791f17a52c9fd5ea36,61036b8664e6c768e90c335e,2021-07-29_22h01.59.093,Simcolourproject_2stim_asymm_v5,2020.2.10,Win32,60,61025ae37ef11b136ea224fe,,,,,,,,,709,139,-67,1,0,0,response3disk,,5,13,-16,1,0,0,rectangle,13,-16,1,0,0,13,-16,1,0,0,0,145,145,32,1,,,,,,,,
,,,,,,,,,,,,,FF,,,,,,,,0.9028,,,,,,,,,,,,,,,,,,,,,,610342791f17a52c9fd5ea36,61036b8664e6c768e90c335e,2021-07-29_22h01.59.093,Simcolourproject_2stim_asymm_v5,2020.2.10,Win32,60,61025ae37ef11b136ea224fe,,,,,,,,,2171,-115,-67,1,0,0,response5disk,,2,29,4,1,0,0,rectangle,29,4,1,0,0,29,4,1,0,0,0,146,146,20,1,,,,,,,,
,,,,,,,,,,,,,FF,,,,,,,,1.0625,,,,,,,,,,,,,,,,,,,,,,610342791f17a52c9fd5ea36,61036b8664e6c768e90c335e,2021-07-29_22h01.59.093,Simcolourproject_2stim_asymm_v5,2020.2.10,Win32,60,61025ae37ef11b136ea224fe,,,,,,,,,1616,-57,-83,1,0,0,response5disk,,3,-22,-10,1,0,0,rectangle,-22,-10,1,0,0,-22,-10,1,0,0,0,147,147,77,1,,,,,,,,
,,,,,,,,,,,,,FF,,,,,,,,1.2776,,,,,,,,,,,,,,,,,,,,,,610342791f17a52c9fd5ea36,61036b8664e6c768e90c335e,2021-07-29_22h01.59.093,Simcolourproject_2stim_asymm_v5,2020.2.10,Win32,60,61025ae37ef11b136ea224fe,,,,,,,,,1368,-78,126,1,0,0,response7disk,,0,-17,-6,1,0,0,rectangle,-17,-6,1,0,0,-17,-6,1,0,0,0,148,148,139,1,,,,,,,,
,,,,,,,,,,,,,FF,,,,,,,,1.0902,,,,,,,,,,,,,,,,,,,,,,610342791f17a52c9fd5ea36,61036b8664e6c768e90c335e,2021-07-29_22h01.59.093,Simcolourproject_2stim_asymm_v5,2020.2.10,Win32,60,61025ae37ef11b136ea224fe,,,,,,,,,3844,-116,-48,1,0,0,response5disk,,2,22,0,1,0,0,rectangle,22,0,1,0,0,22,0,1,0,0,0,149,149,37,1,,,,,,,,
,,,,,,,,,,,,,FF,,,,,,,,0.9723,,,,,,,,,,,,,,,,,,,,,,610342791f17a52c9fd5ea36,61036b8664e6c768e90c335e,2021-07-29_22h01.59.093,Simcolourproject_2stim_asymm_v5,2020.2.10,Win32,60,61025ae37ef11b136ea224fe,,,,,,,,,3577,125,46,1,0,0,response1disk,,6,23,-6,1,0,0,rectangle,23,-6,1,0,0,23,-6,1,0,0,0,150,150,2,1,,,,,,,,
,,,,,,,,,,,,,FF,,,,,,,,0.8892,,,,,,,,,,,,,,,,,,,,,,610342791f17a52c9fd5ea36,61036b8664e6c768e90c335e,2021-07-29_22h01.59.093,Simcolourproject_2stim_asymm_v5,2020.2.10,Win32,60,61025ae37ef11b136ea224fe,,,,,,,,,1093,110,57,1,0,0,response1disk,,6,-9,-7,1,0,0,rectangle,-9,-7,1,0,0,-9,-7,1,0,0,0,151,151,106,1,,,,,,,,
,,,,,,,,,,,,,FF,,,,,,,,1.1662,,,,,,,,,,,,,,,,,,,,,,610342791f17a52c9fd5ea36,61036b8664e6c768e90c335e,2021-07-29_22h01.59.093,Simcolourproject_2stim_asymm_v5,2020.2.10,Win32,60,61025ae37ef11b136ea224fe,,,,,,,,,2288,106,-60,1,0,0,response3disk,,5,2,1,1,0,0,rectangle,2,1,1,0,0,2,1,1,0,0,0,152,152,100,1,,,,,,,,
,,,,,,,,,,,,,FF,,,,,,,,0.6837,,,,,,,,,,,,,,,,,,,,,,610342791f17a52c9fd5ea36,61036b8664e6c768e90c335e,2021-07-29_22h01.59.093,Simcolourproject_2stim_asymm_v5,2020.2.10,Win32,60,61025ae37ef11b136ea224fe,,,,,,,,,2911,98,60,1,0,0,response1disk,,6,23,2,1,0,0,rectangle,23,2,1,0,0,23,2,1,0,0,0,153,153,111,1,,,,,,,,
,,,,,,,,,,,,,FF,,,,,,,,1.4354,,,,,,,,,,,,,,,,,,,,,,610342791f17a52c9fd5ea36,61036b8664e6c768e90c335e,2021-07-29_22h01.59.093,Simcolourproject_2stim_asymm_v5,2020.2.10,Win32,60,61025ae37ef11b136ea224fe,,,,,,,,,873,68,-115,1,0,0,response3disk,,4,-13,-3,1,0,0,rectangle,-13,-3,1,0,0,-13,-3,1,0,0,0,154,154,78,1,,,,,,,,
,,,,,,,,,,,,,FF,,,,,,,,1.0834,,,,,,,,,,,,,,,,,,,,,,610342791f17a52c9fd5ea36,61036b8664e6c768e90c335e,2021-07-29_22h01.59.093,Simcolourproject_2stim_asymm_v5,2020.2.10,Win32,60,61025ae37ef11b136ea224fe,,,,,,,,,1806,53,87,1,0,0,response1disk,,7,21,2,1,0,0,rectangle,-129,52,1,0,0,-11,9,1,0,0,0,155,155,138,1,,response7disk_3,TRUE,1,1,"[250,78,232,106,25,273,74,248,241,202,73,92,244,294,250,254,196,195,156,178]",1.9615,rectangle
,,,,,,,,,,,,,FF,,,,,,,,1.0424,,,,,,,,,,,,,,,,,,,,,,610342791f17a52c9fd5ea36,61036b8664e6c768e90c335e,2021-07-29_22h01.59.093,Simcolourproject_2stim_asymm_v5,2020.2.10,Win32,60,61025ae37ef11b136ea224fe,,,,,,,,,3521,-53,-123,1,0,0,response5disk,,3,-7,25,1,0,0,rectangle,-7,25,1,0,0,-7,25,1,0,0,0,156,156,58,1,,,,,,,,
,,,,,,,,,,,,,FF,,,,,,,,0.9584,,,,,,,,,,,,,,,,,,,,,,610342791f17a52c9fd5ea36,61036b8664e6c768e90c335e,2021-07-29_22h01.59.093,Simcolourproject_2stim_asymm_v5,2020.2.10,Win32,60,61025ae37ef11b136ea224fe,,,,,,,,,3787,-68,-96,1,0,0,response5disk,,3,-10,9,1,0,0,rectangle,-10,9,1,0,0,-10,9,1,0,0,0,157,157,47,1,,,,,,,,
,,,,,,,,,,,,,FF,,,,,,,,0.848,,,,,,,,,,,,,,,,,,,,,,610342791f17a52c9fd5ea36,61036b8664e6c768e90c335e,2021-07-29_22h01.59.093,Simcolourproject_2stim_asymm_v5,2020.2.10,Win32,60,61025ae37ef11b136ea224fe,,,,,,,,,2109,123,-55,1,0,0,response3disk,,5,3,0,1,0,0,rectangle,3,0,1,0,0,3,0,1,0,0,0,158,158,87,1,,,,,,,,
,,,,,,,,,,,,,FF,,,,,,,,1.7224,,,,,,,,,,,,,,,,,,,,,,610342791f17a52c9fd5ea36,61036b8664e6c768e90c335e,2021-07-29_22h01.59.093,Simcolourproject_2stim_asymm_v5,2020.2.10,Win32,60,61025ae37ef11b136ea224fe,,,,,,,,,1249,116,47,1,0,0,response1disk,,6,5,-12,1,0,0,rectangle,5,-12,1,0,0,5,-12,1,0,0,0,159,159,127,1,,,,,,,,
,,,,,,,,,,,,,FF,,,,,,,,1.4168,,,,,,,,,,,,,,,,,,,,,,610342791f17a52c9fd5ea36,61036b8664e6c768e90c335e,2021-07-29_22h01.59.093,Simcolourproject_2stim_asymm_v5,2020.2.10,Win32,60,61025ae37ef11b136ea224fe,,,,,,,,,3410,135,-54,1,0,0,response3disk,,5,-10,-8,1,0,0,rectangle,-10,-8,1,0,0,-10,-8,1,0,0,1,0,160,155,1,,,,,,,,
,,,,,,,,,,,,,FF,,,,,,,,1.9756,,,,,,,,,,,,,,,,,,,,,,610342791f17a52c9fd5ea36,61036b8664e6c768e90c335e,2021-07-29_22h01.59.093,Simcolourproject_2stim_asymm_v5,2020.2.10,Win32,60,61025ae37ef11b136ea224fe,,,,,,,,,1543,57,-97,1,0,0,response3disk,,4,14,5,1,0,0,rectangle,14,5,1,0,0,14,5,1,0,0,1,1,161,142,1,,,,,,,,
,,,,,,,,,,,,,FF,,,,,,,,2.2002,,,,,,,,,,,,,,,,,,,,,,610342791f17a52c9fd5ea36,61036b8664e6c768e90c335e,2021-07-29_22h01.59.093,Simcolourproject_2stim_asymm_v5,2020.2.10,Win32,60,61025ae37ef11b136ea224fe,,,,,,,,,3359,56,94,1,0,0,response1disk,,7,19,12,1,0,0,rectangle,19,12,1,0,0,19,12,1,0,0,1,2,162,83,1,,,,,,,,
,,,,,,,,,,,,,FF,,,,,,,,1.4235,,,,,,,,,,,,,,,,,,,,,,610342791f17a52c9fd5ea36,61036b8664e6c768e90c335e,2021-07-29_22h01.59.093,Simcolourproject_2stim_asymm_v5,2020.2.10,Win32,60,61025ae37ef11b136ea224fe,,,,,,,,,3749,-160,-62,1,0,0,response5disk,,2,-11,5,1,0,0,rectangle,-11,5,1,0,0,-11,5,1,0,0,1,3,163,75,1,,,,,,,,
,,,,,,,,,,,,,FF,,,,,,,,0.8959,,,,,,,,,,,,,,,,,,,,,,610342791f17a52c9fd5ea36,61036b8664e6c768e90c335e,2021-07-29_22h01.59.093,Simcolourproject_2stim_asymm_v5,2020.2.10,Win32,60,61025ae37ef11b136ea224fe,,,,,,,,,2772,-74,-93,1,0,0,response5disk,,3,-17,-1,1,0,0,rectangle,-17,-1,1,0,0,-17,-1,1,0,0,1,4,164,159,1,,,,,,,,
,,,,,,,,,,,,,FF,,,,,,,,1.9377,,,,,,,,,,,,,,,,,,,,,,610342791f17a52c9fd5ea36,61036b8664e6c768e90c335e,2021-07-29_22h01.59.093,Simcolourproject_2stim_asymm_v5,2020.2.10,Win32,60,61025ae37ef11b136ea224fe,,,,,,,,,1827,-75,-110,1,0,0,response5disk,,3,2,-4,1,0,0,rectangle,2,-4,1,0,0,2,-4,1,0,0,1,5,165,98,1,,,,,,,,
,,,,,,,,,,,,,FF,,,,,,,,1.5002,,,,,,,,,,,,,,,,,,,,,,610342791f17a52c9fd5ea36,61036b8664e6c768e90c335e,2021-07-29_22h01.59.093,Simcolourproject_2stim_asymm_v5,2020.2.10,Win32,60,61025ae37ef11b136ea224fe,,,,,,,,,3235,-128,37,1,0,0,response7disk,,1,-12,-3,1,0,0,rectangle,-12,-3,1,0,0,-12,-3,1,0,0,1,6,166,53,1,,,,,,,,
,,,,,,,,,,,,,FF,,,,,,,,1.8543,,,,,,,,,,,,,,,,,,,,,,610342791f17a52c9fd5ea36,61036b8664e6c768e90c335e,2021-07-29_22h01.59.093,Simcolourproject_2stim_asymm_v5,2020.2.10,Win32,60,61025ae37ef11b136ea224fe,,,,,,,,,251,61,-103,1,0,0,response3disk,,4,-31,-6,1,0,0,rectangle,-31,-6,1,0,0,-31,-6,1,0,0,1,7,167,32,1,,,,,,,,
,,,,,,,,,,,,,FF,,,,,,,,0.8056,,,,,,,,,,,,,,,,,,,,,,610342791f17a52c9fd5ea36,61036b8664e6c768e90c335e,2021-07-29_22h01.59.093,Simcolourproject_2stim_asymm_v5,2020.2.10,Win32,60,61025ae37ef11b136ea224fe,,,,,,,,,3045,-67,120,1,0,0,response7disk,,0,1,3,1,0,0,rectangle,1,3,1,0,0,1,3,1,0,0,1,8,168,51,1,,,,,,,,
,,,,,,,,,,,,,FF,,,,,,,,1.1807,,,,,,,,,,,,,,,,,,,,,,610342791f17a52c9fd5ea36,61036b8664e6c768e90c335e,2021-07-29_22h01.59.093,Simcolourproject_2stim_asymm_v5,2020.2.10,Win32,60,61025ae37ef11b136ea224fe,,,,,,,,,1671,31,-109,1,0,0,response3disk,,4,-7,-12,1,0,0,rectangle,-7,-12,1,0,0,-7,-12,1,0,0,1,9,169,43,1,,,,,,,,
,,,,,,,,,,,,,FF,,,,,,,,1.354,,,,,,,,,,,,,,,,,,,,,,610342791f17a52c9fd5ea36,61036b8664e6c768e90c335e,2021-07-29_22h01.59.093,Simcolourproject_2stim_asymm_v5,2020.2.10,Win32,60,61025ae37ef11b136ea224fe,,,,,,,,,676,107,47,1,0,0,response1disk,,6,11,-1,1,0,0,rectangle,11,-1,1,0,0,11,-1,1,0,0,1,10,170,2,1,,,,,,,,
,,,,,,,,,,,,,FF,,,,,,,,1.5348,,,,,,,,,,,,,,,,,,,,,,610342791f17a52c9fd5ea36,61036b8664e6c768e90c335e,2021-07-29_22h01.59.093,Simcolourproject_2stim_asymm_v5,2020.2.10,Win32,60,61025ae37ef11b136ea224fe,,,,,,,,,368,-44,-108,1,0,0,response5disk,,3,6,-3,1,0,0,rectangle,6,-3,1,0,0,6,-3,1,0,0,1,11,171,123,1,,,,,,,,
,,,,,,,,,,,,,FF,,,,,,,,0.889,,,,,,,,,,,,,,,,,,,,,,610342791f17a52c9fd5ea36,61036b8664e6c768e90c335e,2021-07-29_22h01.59.093,Simcolourproject_2stim_asymm_v5,2020.2.10,Win32,60,61025ae37ef11b136ea224fe,,,,,,,,,3493,102,-67,1,0,0,response3disk,,5,22,-10,1,0,0,rectangle,22,-10,1,0,0,22,-10,1,0,0,1,12,172,64,1,,,,,,,,
,,,,,,,,,,,,,FF,,,,,,,,0.896,,,,,,,,,,,,,,,,,,,,,,610342791f17a52c9fd5ea36,61036b8664e6c768e90c335e,2021-07-29_22h01.59.093,Simcolourproject_2stim_asymm_v5,2020.2.10,Win32,60,61025ae37ef11b136ea224fe,,,,,,,,,1448,-118,-62,1,0,0,response5disk,,2,-8,-3,1,0,0,rectangle,-8,-3,1,0,0,-8,-3,1,0,0,1,13,173,80,1,,,,,,,,
,,,,,,,,,,,,,FF,,,,,,,,0.6598,,,,,,,,,,,,,,,,,,,,,,610342791f17a52c9fd5ea36,61036b8664e6c768e90c335e,2021-07-29_22h01.59.093,Simcolourproject_2stim_asymm_v5,2020.2.10,Win32,60,61025ae37ef11b136ea224fe,,,,,,,,,1,-132,54,1,0,0,response7disk,,1,16,8,1,0,0,rectangle,16,8,1,0,0,16,8,1,0,0,1,14,174,42,1,,,,,,,,
,,,,,,,,,,,,,FF,,,,,,,,1.4098,,,,,,,,,,,,,,,,,,,,,,610342791f17a52c9fd5ea36,61036b8664e6c768e90c335e,2021-07-29_22h01.59.093,Simcolourproject_2stim_asymm_v5,2020.2.10,Win32,60,61025ae37ef11b136ea224fe,,,,,,,,,3484,68,-136,1,0,0,response3disk,,4,-12,2,1,0,0,rectangle,-12,2,1,0,0,-12,2,1,0,0,1,15,175,143,1,,,,,,,,
,,,,,,,,,,,,,FF,,,,,,,,1.3542,,,,,,,,,,,,,,,,,,,,,,610342791f17a52c9fd5ea36,61036b8664e6c768e90c335e,2021-07-29_22h01.59.093,Simcolourproject_2stim_asymm_v5,2020.2.10,Win32,60,61025ae37ef11b136ea224fe,,,,,,,,,2865,87,35,1,0,0,response1disk,,6,10,2,1,0,0,rectangle,10,2,1,0,0,10,2,1,0,0,1,16,176,125,1,,,,,,,,
,,,,,,,,,,,,,FF,,,,,,,,1.9376,,,,,,,,,,,,,,,,,,,,,,610342791f17a52c9fd5ea36,61036b8664e6c768e90c335e,2021-07-29_22h01.59.093,Simcolourproject_2stim_asymm_v5,2020.2.10,Win32,60,61025ae37ef11b136ea224fe,,,,,,,,,2904,116,-84,1,0,0,response3disk,,5,-53,5,1,0,0,rectangle,-62,-145,1,0,0,-10,-7,1,0,0,1,17,177,23,1,,response5disk_3,TRUE,3,3,"[250,78,232,106,25,273,74,248,241,202,73,92,244,294,250,254,196,195,156,178]",1.7293,rectangle
,,,,,,,,,,,,,FF,,,,,,,,0.8472,,,,,,,,,,,,,,,,,,,,,,610342791f17a52c9fd5ea36,61036b8664e6c768e90c335e,2021-07-29_22h01.59.093,Simcolourproject_2stim_asymm_v5,2020.2.10,Win32,60,61025ae37ef11b136ea224fe,,,,,,,,,3107,-58,-113,1,0,0,response5disk,,3,-4,-21,1,0,0,rectangle,-4,-21,1,0,0,-4,-21,1,0,0,1,18,178,70,1,,,,,,,,
,,,,,,,,,,,,,FF,,,,,,,,1.0279,,,,,,,,,,,,,,,,,,,,,,610342791f17a52c9fd5ea36,61036b8664e6c768e90c335e,2021-07-29_22h01.59.093,Simcolourproject_2stim_asymm_v5,2020.2.10,Win32,60,61025ae37ef11b136ea224fe,,,,,,,,,2522,59,-118,1,0,0,response3disk,,4,-1,-10,1,0,0,rectangle,-1,-10,1,0,0,-1,-10,1,0,0,1,19,179,134,1,,,,,,,,
,,,,,,,,,,,,,FF,,,,,,,,0.8333,,,,,,,,,,,,,,,,,,,,,,610342791f17a52c9fd5ea36,61036b8664e6c768e90c335e,2021-07-29_22h01.59.093,Simcolourproject_2stim_asymm_v5,2020.2.10,Win32,60,61025ae37ef11b136ea224fe,,,,,,,,,3485,114,-71,1,0,0,response3disk,,5,4,-7,1,0,0,rectangle,4,-7,1,0,0,4,-7,1,0,0,1,20,180,118,1,,,,,,,,
,,,,,,,,,,,,,FF,,,,,,,,0.7361,,,,,,,,,,,,,,,,,,,,,,610342791f17a52c9fd5ea36,61036b8664e6c768e90c335e,2021-07-29_22h01.59.093,Simcolourproject_2stim_asymm_v5,2020.2.10,Win32,60,61025ae37ef11b136ea224fe,,,,,,,,,1209,72,-52,1,0,0,response3disk,,5,-8,0,1,0,0,rectangle,-8,0,1,0,0,-8,0,1,0,0,1,21,181,121,1,,,,,,,,
,,,,,,,,,,,,,FF,,,,,,,,0.9999,,,,,,,,,,,,,,,,,,,,,,610342791f17a52c9fd5ea36,61036b8664e6c768e90c335e,2021-07-29_22h01.59.093,Simcolourproject_2stim_asymm_v5,2020.2.10,Win32,60,61025ae37ef11b136ea224fe,,,,,,,,,764,89,56,1,0,0,response1disk,,6,11,1,1,0,0,rectangle,11,1,1,0,0,11,1,1,0,0,1,22,182,85,1,,,,,,,,
,,,,,,,,,,,,,FF,,,,,,,,0.5903,,,,,,,,,,,,,,,,,,,,,,610342791f17a52c9fd5ea36,61036b8664e6c768e90c335e,2021-07-29_22h01.59.093,Simcolourproject_2stim_asymm_v5,2020.2.10,Win32,60,61025ae37ef11b136ea224fe,,,,,,,,,1873,46,90,1,0,0,response1disk,,7,19,1,1,0,0,rectangle,19,1,1,0,0,19,1,1,0,0,1,23,183,103,1,,,,,,,,
,,,,,,,,,,,,,FF,,,,,,,,0.5554,,,,,,,,,,,,,,,,,,,,,,610342791f17a52c9fd5ea36,61036b8664e6c768e90c335e,2021-07-29_22h01.59.093,Simcolourproject_2stim_asymm_v5,2020.2.10,Win32,60,61025ae37ef11b136ea224fe,,,,,,,,,779,48,80,1,0,0,response1disk,,7,22,1,1,0,0,rectangle,22,1,1,0,0,22,1,1,0,0,1,24,184,63,1,,,,,,,,
,,,,,,,,,,,,,FF,,,,,,,,0.7294,,,,,,,,,,,,,,,,,,,,,,610342791f17a52c9fd5ea36,61036b8664e6c768e90c335e,2021-07-29_22h01.59.093,Simcolourproject_2stim_asymm_v5,2020.2.10,Win32,60,61025ae37ef11b136ea224fe,,,,,,,,,311,47,73,1,0,0,response1disk,,7,28,-5,1,0,0,rectangle,28,-5,1,0,0,28,-5,1,0,0,1,25,185,6,1,,,,,,,,
,,,,,,,,,,,,,FF,,,,,,,,0.7223,,,,,,,,,,,,,,,,,,,,,,610342791f17a52c9fd5ea36,61036b8664e6c768e90c335e,2021-07-29_22h01.59.093,Simcolourproject_2stim_asymm_v5,2020.2.10,Win32,60,61025ae37ef11b136ea224fe,,,,,,,,,177,42,80,1,0,0,response1disk,,7,19,-7,1,0,0,rectangle,19,-7,1,0,0,19,-7,1,0,0,1,26,186,88,1,,,,,,,,
,,,,,,,,,,,,,FF,,,,,,,,1.1459,,,,,,,,,,,,,,,,,,,,,,610342791f17a52c9fd5ea36,61036b8664e6c768e90c335e,2021-07-29_22h01.59.093,Simcolourproject_2stim_asymm_v5,2020.2.10,Win32,60,61025ae37ef11b136ea224fe,,,,,,,,,2908,101,-64,1,0,0,response3disk,,5,11,-20,1,0,0,rectangle,11,-20,1,0,0,11,-20,1,0,0,1,27,187,78,1,,,,,,,,
,,,,,,,,,,,,,FF,,,,,,,,0.7014,,,,,,,,,,,,,,,,,,,,,,610342791f17a52c9fd5ea36,61036b8664e6c768e90c335e,2021-07-29_22h01.59.093,Simcolourproject_2stim_asymm_v5,2020.2.10,Win32,60,61025ae37ef11b136ea224fe,,,,,,,,,3891,81,56,1,0,0,response1disk,,6,4,-1,1,0,0,rectangle,4,-1,1,0,0,4,-1,1,0,0,1,28,188,129,1,,,,,,,,
,,,,,,,,,,,,,FF,,,,,,,,0.8194,,,,,,,,,,,,,,,,,,,,,,610342791f17a52c9fd5ea36,61036b8664e6c768e90c335e,2021-07-29_22h01.59.093,Simcolourproject_2stim_asymm_v5,2020.2.10,Win32,60,61025ae37ef11b136ea224fe,,,,,,,,,3137,56,82,1,0,0,response1disk,,7,27,2,1,0,0,rectangle,27,2,1,0,0,27,2,1,0,0,1,29,189,46,1,,,,,,,,
,,,,,,,,,,,,,FF,,,,,,,,1.6736,,,,,,,,,,,,,,,,,,,,,,610342791f17a52c9fd5ea36,61036b8664e6c768e90c335e,2021-07-29_22h01.59.093,Simcolourproject_2stim_asymm_v5,2020.2.10,Win32,60,61025ae37ef11b136ea224fe,,,,,,,,,1185,104,53,1,0,0,response1disk,,6,28,-6,1,0,0,rectangle,28,-6,1,0,0,28,-6,1,0,0,1,30,190,18,1,,,,,,,,
,,,,,,,,,,,,,FF,,,,,,,,0.7498,,,,,,,,,,,,,,,,,,,,,,610342791f17a52c9fd5ea36,61036b8664e6c768e90c335e,2021-07-29_22h01.59.093,Simcolourproject_2stim_asymm_v5,2020.2.10,Win32,60,61025ae37ef11b136ea224fe,,,,,,,,,3067,47,83,1,0,0,response1disk,,7,16,8,1,0,0,rectangle,16,8,1,0,0,16,8,1,0,0,1,31,191,153,1,,,,,,,,
,,,,,,,,,,,,,FF,,,,,,,,0.6249,,,,,,,,,,,,,,,,,,,,,,610342791f17a52c9fd5ea36,61036b8664e6c768e90c335e,2021-07-29_22h01.59.093,Simcolourproject_2stim_asymm_v5,2020.2.10,Win32,60,61025ae37ef11b136ea224fe,,,,,,,,,1009,39,93,1,0,0,response1disk,,7,14,19,1,0,0,rectangle,14,19,1,0,0,14,19,1,0,0,1,32,192,112,1,,,,,,,,
,,,,,,,,,,,,,FF,,,,,,,,1.4114,,,,,,,,,,,,,,,,,,,,,,610342791f17a52c9fd5ea36,61036b8664e6c768e90c335e,2021-07-29_22h01.59.093,Simcolourproject_2stim_asymm_v5,2020.2.10,Win32,60,61025ae37ef11b136ea224fe,,,,,,,,,3104,62,-122,1,0,0,response3disk,,4,-2,1,1,0,0,rectangle,-2,1,1,0,0,-2,1,1,0,0,1,33,193,20,1,,,,,,,,
,,,,,,,,,,,,,FF,,,,,,,,1.1115,,,,,,,,,,,,,,,,,,,,,,610342791f17a52c9fd5ea36,61036b8664e6c768e90c335e,2021-07-29_22h01.59.093,Simcolourproject_2stim_asymm_v5,2020.2.10,Win32,60,61025ae37ef11b136ea224fe,,,,,,,,,1911,119,-45,1,0,0,response3disk,,5,10,-7,1,0,0,rectangle,-60,-162,1,0,0,-3,-8,1,0,0,1,34,194,94,1,,response5disk_3,TRUE,3,3,"[250,78,232,106,25,273,74,248,241,202,73,92,244,294,250,254,196,195,156,178]",1.4027,rectangle
,,,,,,,,,,,,,FF,,,,,,,,0.8403,,,,,,,,,,,,,,,,,,,,,,610342791f17a52c9fd5ea36,61036b8664e6c768e90c335e,2021-07-29_22h01.59.093,Simcolourproject_2stim_asymm_v5,2020.2.10,Win32,60,61025ae37ef11b136ea224fe,,,,,,,,,499,99,35,1,0,0,response1disk,,6,25,-16,1,0,0,rectangle,-52,-112,1,0,0,-2,-8,1,0,0,1,35,195,45,1,,response5disk_3,TRUE,3,3,"[250,78,232,106,25,273,74,248,241,202,73,92,244,294,250,254,196,195,156,178]",1.7361,rectangle
,,,,,,,,,,,,,FF,,,,,,,,0.9316,,,,,,,,,,,,,,,,,,,,,,610342791f17a52c9fd5ea36,61036b8664e6c768e90c335e,2021-07-29_22h01.59.093,Simcolourproject_2stim_asymm_v5,2020.2.10,Win32,60,61025ae37ef11b136ea224fe,,,,,,,,,74,-72,-126,1,0,0,response5disk,,3,-12,-5,1,0,0,rectangle,-12,-5,1,0,0,-12,-5,1,0,0,1,36,196,79,1,,,,,,,,
,,,,,,,,,,,,,FF,,,,,,,,0.8412,,,,,,,,,,,,,,,,,,,,,,610342791f17a52c9fd5ea36,61036b8664e6c768e90c335e,2021-07-29_22h01.59.093,Simcolourproject_2stim_asymm_v5,2020.2.10,Win32,60,61025ae37ef11b136ea224fe,,,,,,,,,3143,-58,-126,1,0,0,response5disk,,3,-8,-4,1,0,0,rectangle,-8,-4,1,0,0,-8,-4,1,0,0,1,37,197,90,1,,,,,,,,
,,,,,,,,,,,,,FF,,,,,,,,0.8202,,,,,,,,,,,,,,,,,,,,,,610342791f17a52c9fd5ea36,61036b8664e6c768e90c335e,2021-07-29_22h01.59.093,Simcolourproject_2stim_asymm_v5,2020.2.10,Win32,60,61025ae37ef11b136ea224fe,,,,,,,,,2509,98,-54,1,0,0,response3disk,,5,19,-10,1,0,0,rectangle,19,-10,1,0,0,19,-10,1,0,0,1,38,198,36,1,,,,,,,,
,,,,,,,,,,,,,FF,,,,,,,,1.2024,,,,,,,,,,,,,,,,,,,,,,610342791f17a52c9fd5ea36,61036b8664e6c768e90c335e,2021-07-29_22h01.59.093,Simcolourproject_2stim_asymm_v5,2020.2.10,Win32,60,61025ae37ef11b136ea224fe,,,,,,,,,179,71,42,1,0,0,response1disk,,6,-1,7,1,0,0,rectangle,-1,7,1,0,0,-1,7,1,0,0,1,39,199,81,1,,,,,,,,
,,,,,,,,,,,,,FF,,,,,,,,0.8681,,,,,,,,,,,,,,,,,,,,,,610342791f17a52c9fd5ea36,61036b8664e6c768e90c335e,2021-07-29_22h01.59.093,Simcolourproject_2stim_asymm_v5,2020.2.10,Win32,60,61025ae37ef11b136ea224fe,,,,,,,,,496,65,35,1,0,0,response1disk,,6,30,-3,1,0,0,rectangle,30,-3,1,0,0,30,-3,1,0,0,1,40,200,139,1,,,,,,,,
,,,,,,,,,,,,,FF,,,,,,,,1.8623,,,,,,,,,,,,,,,,,,,,,,610342791f17a52c9fd5ea36,61036b8664e6c768e90c335e,2021-07-29_22h01.59.093,Simcolourproject_2stim_asymm_v5,2020.2.10,Win32,60,61025ae37ef11b136ea224fe,,,,,,,,,3736,53,-115,1,0,0,response3disk,,4,1,-18,1,0,0,rectangle,-62,122,1,0,0,7,-2,1,0,0,1,41,201,24,1,,response7disk_3,TRUE,0,0,"[250,78,232,106,25,273,74,248,241,202,73,92,244,294,250,254,196,195,156,178]",1.6287,rectangle
,,,,,,,,,,,,,FF,,,,,,,,0.8719,,,,,,,,,,,,,,,,,,,,,,610342791f17a52c9fd5ea36,61036b8664e6c768e90c335e,2021-07-29_22h01.59.093,Simcolourproject_2stim_asymm_v5,2020.2.10,Win32,60,61025ae37ef11b136ea224fe,,,,,,,,,481,75,55,1,0,0,response1disk,,6,3,-9,1,0,0,rectangle,3,-9,1,0,0,3,-9,1,0,0,1,42,202,8,1,,,,,,,,
,,,,,,,,,,,,,FF,,,,,,,,0.8303,,,,,,,,,,,,,,,,,,,,,,610342791f17a52c9fd5ea36,61036b8664e6c768e90c335e,2021-07-29_22h01.59.093,Simcolourproject_2stim_asymm_v5,2020.2.10,Win32,60,61025ae37ef11b136ea224fe,,,,,,,,,3782,-59,-95,1,0,0,response5disk,,3,-28,-5,1,0,0,rectangle,-28,-5,1,0,0,-28,-5,1,0,0,1,43,203,113,1,,,,,,,,
,,,,,,,,,,,,,FF,,,,,,,,1.9307,,,,,,,,,,,,,,,,,,,,,,610342791f17a52c9fd5ea36,61036b8664e6c768e90c335e,2021-07-29_22h01.59.093,Simcolourproject_2stim_asymm_v5,2020.2.10,Win32,60,61025ae37ef11b136ea224fe,,,,,,,,,3276,116,-46,1,0,0,response3disk,,5,24,25,1,0,0,rectangle,24,25,1,0,0,24,25,1,0,0,1,44,204,68,1,,,,,,,,
,,,,,,,,,,,,,FF,,,,,,,,1.0856,,,,,,,,,,,,,,,,,,,,,,610342791f17a52c9fd5ea36,61036b8664e6c768e90c335e,2021-07-29_22h01.59.093,Simcolourproject_2stim_asymm_v5,2020.2.10,Win32,60,61025ae37ef11b136ea224fe,,,,,,,,,1469,-105,-60,1,0,0,response5disk,,2,-20,8,1,0,0,rectangle,-20,8,1,0,0,-20,8,1,0,0,1,45,205,122,1,,,,,,,,
,,,,,,,,,,,,,FF,,,,,,,,1.4205,,,,,,,,,,,,,,,,,,,,,,610342791f17a52c9fd5ea36,61036b8664e6c768e90c335e,2021-07-29_22h01.59.093,Simcolourproject_2stim_asymm_v5,2020.2.10,Win32,60,61025ae37ef11b136ea224fe,,,,,,,,,298,43,84,1,0,0,response1disk,,7,8,-6,1,0,0,rectangle,8,-6,1,0,0,8,-6,1,0,0,1,46,206,99,1,,,,,,,,
,,,,,,,,,,,,,FF,,,,,,,,0.833,,,,,,,,,,,,,,,,,,,,,,610342791f17a52c9fd5ea36,61036b8664e6c768e90c335e,2021-07-29_22h01.59.093,Simcolourproject_2stim_asymm_v5,2020.2.10,Win32,60,61025ae37ef11b136ea224fe,,,,,,,,,1647,49,82,1,0,0,response1disk,,7,6,11,1,0,0,rectangle,6,11,1,0,0,6,11,1,0,0,1,47,207,89,1,,,,,,,,
,,,,,,,,,,,,,FF,,,,,,,,0.8961,,,,,,,,,,,,,,,,,,,,,,610342791f17a52c9fd5ea36,61036b8664e6c768e90c335e,2021-07-29_22h01.59.093,Simcolourproject_2stim_asymm_v5,2020.2.10,Win32,60,61025ae37ef11b136ea224fe,,,,,,,,,2098,-113,52,1,0,0,response7disk,,1,2,-9,1,0,0,rectangle,2,-9,1,0,0,2,-9,1,0,0,1,48,208,109,1,,,,,,,,
,,,,,,,,,,,,,FF,,,,,,,,0.8897,,,,,,,,,,,,,,,,,,,,,,610342791f17a52c9fd5ea36,61036b8664e6c768e90c335e,2021-07-29_22h01.59.093,Simcolourproject_2stim_asymm_v5,2020.2.10,Win32,60,61025ae37ef11b136ea224fe,,,,,,,,,4048,-55,-90,1,0,0,response5disk,,3,4,10,1,0,0,rectangle,4,10,1,0,0,4,10,1,0,0,1,49,209,27,1,,,,,,,,
,,,,,,,,,,,,,FF,,,,,,,,0.8334,,,,,,,,,,,,,,,,,,,,,,610342791f17a52c9fd5ea36,61036b8664e6c768e90c335e,2021-07-29_22h01.59.093,Simcolourproject_2stim_asymm_v5,2020.2.10,Win32,60,61025ae37ef11b136ea224fe,,,,,,,,,1857,80,-50,1,0,0,response3disk,,5,13,0,1,0,0,rectangle,13,0,1,0,0,13,0,1,0,0,1,50,210,77,1,,,,,,,,
,,,,,,,,,,,,,FF,,,,,,,,1.1044,,,,,,,,,,,,,,,,,,,,,,610342791f17a52c9fd5ea36,61036b8664e6c768e90c335e,2021-07-29_22h01.59.093,Simcolourproject_2stim_asymm_v5,2020.2.10,Win32,60,61025ae37ef11b136ea224fe,,,,,,,,,4104,-53,-85,1,0,0,response5disk,,3,-5,-4,1,0,0,rectangle,-5,-4,1,0,0,-5,-4,1,0,0,1,51,211,156,1,,,,,,,,
,,,,,,,,,,,,,FF,,,,,,,,1.3682,,,,,,,,,,,,,,,,,,,,,,610342791f17a52c9fd5ea36,61036b8664e6c768e90c335e,2021-07-29_22h01.59.093,Simcolourproject_2stim_asymm_v5,2020.2.10,Win32,60,61025ae37ef11b136ea224fe,,,,,,,,,4256,-64,-104,1,0,0,response5disk,,3,-15,-2,1,0,0,rectangle,-15,-2,1,0,0,-15,-2,1,0,0,1,52,212,120,1,,,,,,,,
,,,,,,,,,,,,,FF,,,,,,,,1.8403,,,,,,,,,,,,,,,,,,,,,,610342791f17a52c9fd5ea36,61036b8664e6c768e90c335e,2021-07-29_22h01.59.093,Simcolourproject_2stim_asymm_v5,2020.2.10,Win32,60,61025ae37ef11b136ea224fe,,,,,,,,,3759,131,41,1,0,0,response1disk,,6,12,-12,1,0,0,rectangle,12,-12,1,0,0,12,-12,1,0,0,1,53,213,137,1,,,,,,,,
,,,,,,,,,,,,,FF,,,,,,,,0.8058,,,,,,,,,,,,,,,,,,,,,,610342791f17a52c9fd5ea36,61036b8664e6c768e90c335e,2021-07-29_22h01.59.093,Simcolourproject_2stim_asymm_v5,2020.2.10,Win32,60,61025ae37ef11b136ea224fe,,,,,,,,,126,95,61,1,0,0,response1disk,,6,14,20,1,0,0,rectangle,14,20,1,0,0,14,20,1,0,0,1,54,214,41,1,,,,,,,,
,,,,,,,,,,,,,FF,,,,,,,,1.1252,,,,,,,,,,,,,,,,,,,,,,610342791f17a52c9fd5ea36,61036b8664e6c768e90c335e,2021-07-29_22h01.59.093,Simcolourproject_2stim_asymm_v5,2020.2.10,Win32,60,61025ae37ef11b136ea224fe,,,,,,,,,2336,43,65,1,0,0,response1disk,,7,17,7,1,0,0,rectangle,17,7,1,0,0,17,7,1,0,0,1,55,215,147,1,,,,,,,,
,,,,,,,,,,,,,FF,,,,,,,,0.6459,,,,,,,,,,,,,,,,,,,,,,610342791f17a52c9fd5ea36,61036b8664e6c768e90c335e,2021-07-29_22h01.59.093,Simcolourproject_2stim_asymm_v5,2020.2.10,Win32,60,61025ae37ef11b136ea224fe,,,,,,,,,1716,49,70,1,0,0,response1disk,,7,13,-6,1,0,0,rectangle,13,-6,1,0,0,13,-6,1,0,0,1,56,216,149,1,,,,,,,,
,,,,,,,,,,,,,FF,,,,,,,,0.9168,,,,,,,,,,,,,,,,,,,,,,610342791f17a52c9fd5ea36,61036b8664e6c768e90c335e,2021-07-29_22h01.59.093,Simcolourproject_2stim_asymm_v5,2020.2.10,Win32,60,61025ae37ef11b136ea224fe,,,,,,,,,1960,50,-101,1,0,0,response3disk,,4,-25,-6,1,0,0,rectangle,-25,-6,1,0,0,-25,-6,1,0,0,1,57,217,40,1,,,,,,,,
,,,,,,,,,,,,,FF,,,,,,,,1.1728,,,,,,,,,,,,,,,,,,,,,,610342791f17a52c9fd5ea36,61036b8664e6c768e90c335e,2021-07-29_22h01.59.093,Simcolourproject_2stim_asymm_v5,2020.2.10,Win32,60,61025ae37ef11b136ea224fe,,,,,,,,,4261,128,54,1,0,0,response1disk,,6,30,7,1,0,0,rectangle,30,7,1,0,0,30,7,1,0,0,1,58,218,11,1,,,,,,,,
,,,,,,,,,,,,,FF,,,,,,,,0.7089,,,,,,,,,,,,,,,,,,,,,,610342791f17a52c9fd5ea36,61036b8664e6c768e90c335e,2021-07-29_22h01.59.093,Simcolourproject_2stim_asymm_v5,2020.2.10,Win32,60,61025ae37ef11b136ea224fe,,,,,,,,,2823,93,-54,1,0,0,response3disk,,5,-6,-17,1,0,0,rectangle,-6,-17,1,0,0,-6,-17,1,0,0,1,59,219,21,1,,,,,,,,
,,,,,,,,,,,,,FF,,,,,,,,2.1737,,,,,,,,,,,,,,,,,,,,,,610342791f17a52c9fd5ea36,61036b8664e6c768e90c335e,2021-07-29_22h01.59.093,Simcolourproject_2stim_asymm_v5,2020.2.10,Win32,60,61025ae37ef11b136ea224fe,,,,,,,,,2341,103,51,1,0,0,response1disk,,6,13,-12,1,0,0,rectangle,13,-12,1,0,0,13,-12,1,0,0,1,60,220,4,1,,,,,,,,
,,,,,,,,,,,,,FF,,,,,,,,0.7082,,,,,,,,,,,,,,,,,,,,,,610342791f17a52c9fd5ea36,61036b8664e6c768e90c335e,2021-07-29_22h01.59.093,Simcolourproject_2stim_asymm_v5,2020.2.10,Win32,60,61025ae37ef11b136ea224fe,,,,,,,,,234,96,53,1,0,0,response1disk,,6,24,-10,1,0,0,rectangle,24,-10,1,0,0,24,-10,1,0,0,1,61,221,133,1,,,,,,,,
,,,,,,,,,,,,,FF,,,,,,,,1.0002,,,,,,,,,,,,,,,,,,,,,,610342791f17a52c9fd5ea36,61036b8664e6c768e90c335e,2021-07-29_22h01.59.093,Simcolourproject_2stim_asymm_v5,2020.2.10,Win32,60,61025ae37ef11b136ea224fe,,,,,,,,,152,95,-57,1,0,0,response3disk,,5,22,-22,1,0,0,rectangle,22,-22,1,0,0,22,-22,1,0,0,1,62,222,116,1,,,,,,,,
,,,,,,,,,,,,,FF,,,,,,,,1.7705,,,,,,,,,,,,,,,,,,,,,,610342791f17a52c9fd5ea36,61036b8664e6c768e90c335e,2021-07-29_22h01.59.093,Simcolourproject_2stim_asymm_v5,2020.2.10,Win32,60,61025ae37ef11b136ea224fe,,,,,,,,,7,-43,-109,1,0,0,response5disk,,3,0,2,1,0,0,rectangle,0,2,1,0,0,0,2,1,0,0,1,63,223,151,1,,,,,,,,
,,,,,,,,,,,,,FF,,,,,,,,1.3687,,,,,,,,,,,,,,,,,,,,,,610342791f17a52c9fd5ea36,61036b8664e6c768e90c335e,2021-07-29_22h01.59.093,Simcolourproject_2stim_asymm_v5,2020.2.10,Win32,60,61025ae37ef11b136ea224fe,,,,,,,,,3183,56,98,1,0,0,response1disk,,7,34,14,1,0,0,rectangle,34,14,1,0,0,34,14,1,0,0,1,64,224,25,1,,,,,,,,
,,,,,,,,,,,,,FF,,,,,,,,1.1458,,,,,,,,,,,,,,,,,,,,,,610342791f17a52c9fd5ea36,61036b8664e6c768e90c335e,2021-07-29_22h01.59.093,Simcolourproject_2stim_asymm_v5,2020.2.10,Win32,60,61025ae37ef11b136ea224fe,,,,,,,,,4290,125,-56,1,0,0,response3disk,,5,30,-6,1,0,0,rectangle,30,-6,1,0,0,30,-6,1,0,0,1,65,225,92,1,,,,,,,,
,,,,,,,,,,,,,FF,,,,,,,,1.493,,,,,,,,,,,,,,,,,,,,,,610342791f17a52c9fd5ea36,61036b8664e6c768e90c335e,2021-07-29_22h01.59.093,Simcolourproject_2stim_asymm_v5,2020.2.10,Win32,60,61025ae37ef11b136ea224fe,,,,,,,,,534,72,97,1,0,0,response1disk,,7,25,7,1,0,0,rectangle,25,7,1,0,0,25,7,1,0,0,1,66,226,34,1,,,,,,,,
,,,,,,,,,,,,,FF,,,,,,,,1.2708,,,,,,,,,,,,,,,,,,,,,,610342791f17a52c9fd5ea36,61036b8664e6c768e90c335e,2021-07-29_22h01.59.093,Simcolourproject_2stim_asymm_v5,2020.2.10,Win32,60,61025ae37ef11b136ea224fe,,,,,,,,,4346,-155,-90,1,0,0,response5disk,,2,-10,-6,1,0,0,rectangle,-10,-6,1,0,0,-10,-6,1,0,0,1,67,227,9,1,,,,,,,,
,,,,,,,,,,,,,FF,,,,,,,,1.0278,,,,,,,,,,,,,,,,,,,,,,610342791f17a52c9fd5ea36,61036b8664e6c768e90c335e,2021-07-29_22h01.59.093,Simcolourproject_2stim_asymm_v5,2020.2.10,Win32,60,61025ae37ef11b136ea224fe,,,,,,,,,2608,-117,-47,1,0,0,response5disk,,2,-4,-3,1,0,0,rectangle,-4,-3,1,0,0,-4,-3,1,0,0,1,68,228,86,1,,,,,,,,
,,,,,,,,,,,,,FF,,,,,,,,0.9376,,,,,,,,,,,,,,,,,,,,,,610342791f17a52c9fd5ea36,61036b8664e6c768e90c335e,2021-07-29_22h01.59.093,Simcolourproject_2stim_asymm_v5,2020.2.10,Win32,60,61025ae37ef11b136ea224fe,,,,,,,,,1498,111,-70,1,0,0,response3disk,,5,19,-2,1,0,0,rectangle,19,-2,1,0,0,19,-2,1,0,0,1,69,229,95,1,,,,,,,,
,,,,,,,,,,,,,FF,,,,,,,,0.7639,,,,,,,,,,,,,,,,,,,,,,610342791f17a52c9fd5ea36,61036b8664e6c768e90c335e,2021-07-29_22h01.59.093,Simcolourproject_2stim_asymm_v5,2020.2.10,Win32,60,61025ae37ef11b136ea224fe,,,,,,,,,2950,-59,-111,1,0,0,response5disk,,3,-15,-8,1,0,0,rectangle,-15,-8,1,0,0,-15,-8,1,0,0,1,70,230,141,1,,,,,,,,
,,,,,,,,,,,,,FF,,,,,,,,1.0902,,,,,,,,,,,,,,,,,,,,,,610342791f17a52c9fd5ea36,61036b8664e6c768e90c335e,2021-07-29_22h01.59.093,Simcolourproject_2stim_asymm_v5,2020.2.10,Win32,60,61025ae37ef11b136ea224fe,,,,,,,,,3623,-103,-63,1,0,0,response5disk,,2,-21,-4,1,0,0,rectangle,56,145,1,0,0,10,4,1,0,0,1,71,231,1,1,,response1disk_3,TRUE,7,7,"[250,78,232,106,25,273,74,248,241,202,73,92,244,294,250,254,196,195,156,178]",1.9928,rectangle
,,,,,,,,,,,,,FF,,,,,,,,0.8884,,,,,,,,,,,,,,,,,,,,,,610342791f17a52c9fd5ea36,61036b8664e6c768e90c335e,2021-07-29_22h01.59.093,Simcolourproject_2stim_asymm_v5,2020.2.10,Win32,60,61025ae37ef11b136ea224fe,,,,,,,,,4338,-94,-48,1,0,0,response5disk,,2,9,13,1,0,0,rectangle,9,13,1,0,0,9,13,1,0,0,1,72,232,117,1,,,,,,,,
,,,,,,,,,,,,,FF,,,,,,,,1.1591,,,,,,,,,,,,,,,,,,,,,,610342791f17a52c9fd5ea36,61036b8664e6c768e90c335e,2021-07-29_22h01.59.093,Simcolourproject_2stim_asymm_v5,2020.2.10,Win32,60,61025ae37ef11b136ea224fe,,,,,,,,,2452,123,-63,1,0,0,response3disk,,5,35,1,1,0,0,rectangle,35,1,1,0,0,35,1,1,0,0,1,73,233,38,1,,,,,,,,
,,,,,,,,,,,,,FF,,,,,,,,0.8543,,,,,,,,,,,,,,,,,,,,,,610342791f17a52c9fd5ea36,61036b8664e6c768e90c335e,2021-07-29_22h01.59.093,Simcolourproject_2stim_asymm_v5,2020.2.10,Win32,60,61025ae37ef11b136ea224fe,,,,,,,,,4172,56,86,1,0,0,response1disk,,7,40,12,1,0,0,rectangle,40,12,1,0,0,40,12,1,0,0,1,74,234,56,1,,,,,,,,
,,,,,,,,,,,,,FF,,,,,,,,1.2501,,,,,,,,,,,,,,,,,,,,,,610342791f17a52c9fd5ea36,61036b8664e6c768e90c335e,2021-07-29_22h01.59.093,Simcolourproject_2stim_asymm_v5,2020.2.10,Win32,60,61025ae37ef11b136ea224fe,,,,,,,,,130,113,50,1,0,0,response1disk,,6,41,-7,1,0,0,rectangle,41,-7,1,0,0,41,-7,1,0,0,1,75,235,60,1,,,,,,,,
,,,,,,,,,,,,,FF,,,,,,,,0.7083,,,,,,,,,,,,,,,,,,,,,,610342791f17a52c9fd5ea36,61036b8664e6c768e90c335e,2021-07-29_22h01.59.093,Simcolourproject_2stim_asymm_v5,2020.2.10,Win32,60,61025ae37ef11b136ea224fe,,,,,,,,,959,47,78,1,0,0,response1disk,,7,26,12,1,0,0,rectangle,26,12,1,0,0,26,12,1,0,0,1,76,236,58,1,,,,,,,,
,,,,,,,,,,,,,FF,,,,,,,,1.493,,,,,,,,,,,,,,,,,,,,,,610342791f17a52c9fd5ea36,61036b8664e6c768e90c335e,2021-07-29_22h01.59.093,Simcolourproject_2stim_asymm_v5,2020.2.10,Win32,60,61025ae37ef11b136ea224fe,,,,,,,,,1527,50,-101,1,0,0,response3disk,,4,12,-26,1,0,0,rectangle,12,-26,1,0,0,12,-26,1,0,0,1,77,237,158,1,,,,,,,,
,,,,,,,,,,,,,FF,,,,,,,,1,,,,,,,,,,,,,,,,,,,,,,610342791f17a52c9fd5ea36,61036b8664e6c768e90c335e,2021-07-29_22h01.59.093,Simcolourproject_2stim_asymm_v5,2020.2.10,Win32,60,61025ae37ef11b136ea224fe,,,,,,,,,829,80,-39,1,0,0,response3disk,,5,27,-7,1,0,0,rectangle,27,-7,1,0,0,27,-7,1,0,0,1,78,238,37,1,,,,,,,,
,,,,,,,,,,,,,FF,,,,,,,,1.1976,,,,,,,,,,,,,,,,,,,,,,610342791f17a52c9fd5ea36,61036b8664e6c768e90c335e,2021-07-29_22h01.59.093,Simcolourproject_2stim_asymm_v5,2020.2.10,Win32,60,61025ae37ef11b136ea224fe,,,,,,,,,674,87,39,1,0,0,response1disk,,6,10,6,1,0,0,rectangle,10,6,1,0,0,10,6,1,0,0,1,79,239,152,1,,,,,,,,
,,,,,,,,,,,,,FF,,,,,,,,1.8403,,,,,,,,,,,,,,,,,,,,,,610342791f17a52c9fd5ea36,61036b8664e6c768e90c335e,2021-07-29_22h01.59.093,Simcolourproject_2stim_asymm_v5,2020.2.10,Win32,60,61025ae37ef11b136ea224fe,,,,,,,,,814,95,-47,1,0,0,response3disk,,5,9,-6,1,0,0,rectangle,43,-154,1,0,0,0,-6,1,0,0,1,80,240,110,1,,response3disk_3,TRUE,4,4,"[250,78,232,106,25,273,74,248,241,202,73,92,244,294,250,254,196,195,156,178]",1.8377,rectangle
,,,,,,,,,,,,,FF,,,,,,,,0.8064,,,,,,,,,,,,,,,,,,,,,,610342791f17a52c9fd5ea36,61036b8664e6c768e90c335e,2021-07-29_22h01.59.093,Simcolourproject_2stim_asymm_v5,2020.2.10,Win32,60,61025ae37ef11b136ea224fe,,,,,,,,,2037,-59,-90,1,0,0,response5disk,,3,-26,-15,1,0,0,rectangle,-26,-15,1,0,0,-26,-15,1,0,0,1,81,241,101,1,,,,,,,,
,,,,,,,,,,,,,FF,,,,,,,,0.7223,,,,,,,,,,,,,,,,,,,,,,610342791f17a52c9fd5ea36,61036b8664e6c768e90c335e,2021-07-29_22h01.59.093,Simcolourproject_2stim_asymm_v5,2020.2.10,Win32,60,61025ae37ef11b136ea224fe,,,,,,,,,1559,103,38,1,0,0,response1disk,,6,33,-5,1,0,0,rectangle,33,-5,1,0,0,33,-5,1,0,0,1,82,242,22,1,,,,,,,,
,,,,,,,,,,,,,FF,,,,,,,,0.6945,,,,,,,,,,,,,,,,,,,,,,610342791f17a52c9fd5ea36,61036b8664e6c768e90c335e,2021-07-29_22h01.59.093,Simcolourproject_2stim_asymm_v5,2020.2.10,Win32,60,61025ae37ef11b136ea224fe,,,,,,,,,2,-95,-51,1,0,0,response5disk,,2,-17,-8,1,0,0,rectangle,-131,-67,1,0,0,-16,-1,1,0,0,1,83,243,47,1,,response5disk_3,TRUE,2,2,"[250,78,232,106,25,273,74,248,241,202,73,92,244,294,250,254,196,195,156,178]",1.6458,rectangle
,,,,,,,,,,,,,FF,,,,,,,,2.0418,,,,,,,,,,,,,,,,,,,,,,610342791f17a52c9fd5ea36,61036b8664e6c768e90c335e,2021-07-29_22h01.59.093,Simcolourproject_2stim_asymm_v5,2020.2.10,Win32,60,61025ae37ef11b136ea224fe,,,,,,,,,3808,51,-90,1,0,0,response3disk,,4,6,-10,1,0,0,rectangle,6,-10,1,0,0,6,-10,1,0,0,1,84,244,135,1,,,,,,,,
,,,,,,,,,,,,,FF,,,,,,,,0.8403,,,,,,,,,,,,,,,,,,,,,,610342791f17a52c9fd5ea36,61036b8664e6c768e90c335e,2021-07-29_22h01.59.093,Simcolourproject_2stim_asymm_v5,2020.2.10,Win32,60,61025ae37ef11b136ea224fe,,,,,,,,,808,-136,-77,1,0,0,response5disk,,2,-10,-8,1,0,0,rectangle,-10,-8,1,0,0,-10,-8,1,0,0,1,85,245,52,1,,,,,,,,
,,,,,,,,,,,,,FF,,,,,,,,0.9236,,,,,,,,,,,,,,,,,,,,,,610342791f17a52c9fd5ea36,61036b8664e6c768e90c335e,2021-07-29_22h01.59.093,Simcolourproject_2stim_asymm_v5,2020.2.10,Win32,60,61025ae37ef11b136ea224fe,,,,,,,,,1065,57,-95,1,0,0,response3disk,,4,11,-10,1,0,0,rectangle,11,-10,1,0,0,11,-10,1,0,0,1,86,246,108,1,,,,,,,,
,,,,,,,,,,,,,FF,,,,,,,,0.7302,,,,,,,,,,,,,,,,,,,,,,610342791f17a52c9fd5ea36,61036b8664e6c768e90c335e,2021-07-29_22h01.59.093,Simcolourproject_2stim_asymm_v5,2020.2.10,Win32,60,61025ae37ef11b136ea224fe,,,,,,,,,920,93,62,1,0,0,response1disk,,6,21,16,1,0,0,rectangle,-59,128,1,0,0,-1,2,1,0,0,1,87,247,26,1,,response7disk_3,TRUE,0,0,"[250,78,232,106,25,273,74,248,241,202,73,92,244,294,250,254,196,195,156,178]",1.8402,rectangle
,,,,,,,,,,,,,FF,,,,,,,,0.8549,,,,,,,,,,,,,,,,,,,,,,610342791f17a52c9fd5ea36,61036b8664e6c768e90c335e,2021-07-29_22h01.59.093,Simcolourproject_2stim_asymm_v5,2020.2.10,Win32,60,61025ae37ef11b136ea224fe,,,,,,,,,355,-126,60,1,0,0,response7disk,,1,3,-2,1,0,0,rectangle,3,-2,1,0,0,3,-2,1,0,0,1,88,248,97,1,,,,,,,,
,,,,,,,,,,,,,FF,,,,,,,,0.841,,,,,,,,,,,,,,,,,,,,,,610342791f17a52c9fd5ea36,61036b8664e6c768e90c335e,2021-07-29_22h01.59.093,Simcolourproject_2stim_asymm_v5,2020.2.10,Win32,60,61025ae37ef11b136ea224fe,,,,,,,,,2578,79,-138,1,0,0,response3disk,,4,24,-10,1,0,0,rectangle,-55,127,1,0,0,-1,-1,1,0,0,1,89,249,44,1,,response7disk_3,TRUE,0,0,"[250,78,232,106,25,273,74,248,241,202,73,92,244,294,250,254,196,195,156,178]",1.7013,rectangle
,,,,,,,,,,,,,FF,,,,,,,,0.9856,,,,,,,,,,,,,,,,,,,,,,610342791f17a52c9fd5ea36,61036b8664e6c768e90c335e,2021-07-29_22h01.59.093,Simcolourproject_2stim_asymm_v5,2020.2.10,Win32,60,61025ae37ef11b136ea224fe,,,,,,,,,1837,41,-115,1,0,0,response3disk,,4,-11,13,1,0,0,rectangle,-11,13,1,0,0,-11,13,1,0,0,1,90,250,84,1,,,,,,,,
,,,,,,,,,,,,,FF,,,,,,,,0.7132,,,,,,,,,,,,,,,,,,,,,,610342791f17a52c9fd5ea36,61036b8664e6c768e90c335e,2021-07-29_22h01.59.093,Simcolourproject_2stim_asymm_v5,2020.2.10,Win32,60,61025ae37ef11b136ea224fe,,,,,,,,,3158,-63,-122,1,0,0,response5disk,,3,-32,-3,1,0,0,rectangle,-32,-3,1,0,0,-32,-3,1,0,0,1,91,251,7,1,,,,,,,,
,,,,,,,,,,,,,FF,,,,,,,,0.6809,,,,,,,,,,,,,,,,,,,,,,610342791f17a52c9fd5ea36,61036b8664e6c768e90c335e,2021-07-29_22h01.59.093,Simcolourproject_2stim_asymm_v5,2020.2.10,Win32,60,61025ae37ef11b136ea224fe,,,,,,,,,3865,91,-42,1,0,0,response3disk,,5,16,5,1,0,0,rectangle,16,5,1,0,0,16,5,1,0,0,1,92,252,128,1,,,,,,,,
,,,,,,,,,,,,,FF,,,,,,,,0.6389,,,,,,,,,,,,,,,,,,,,,,610342791f17a52c9fd5ea36,61036b8664e6c768e90c335e,2021-07-29_22h01.59.093,Simcolourproject_2stim_asymm_v5,2020.2.10,Win32,60,61025ae37ef11b136ea224fe,,,,,,,,,1932,89,44,1,0,0,response1disk,,6,19,6,1,0,0,rectangle,51,99,1,0,0,17,2,1,0,0,1,93,253,124,1,,response1disk_3,TRUE,7,7,"[250,78,232,106,25,273,74,248,241,202,73,92,244,294,250,254,196,195,156,178]",1.1944,rectangle
,,,,,,,,,,,,,FF,,,,,,,,2.0265,,,,,,,,,,,,,,,,,,,,,,610342791f17a52c9fd5ea36,61036b8664e6c768e90c335e,2021-07-29_22h01.59.093,Simcolourproject_2stim_asymm_v5,2020.2.10,Win32,60,61025ae37ef11b136ea224fe,,,,,,,,,421,129,49,1,0,0,response1disk,,6,6,-5,1,0,0,rectangle,6,-5,1,0,0,6,-5,1,0,0,1,94,254,130,1,,,,,,,,
,,,,,,,,,,,,,FF,,,,,,,,0.9304,,,,,,,,,,,,,,,,,,,,,,610342791f17a52c9fd5ea36,61036b8664e6c768e90c335e,2021-07-29_22h01.59.093,Simcolourproject_2stim_asymm_v5,2020.2.10,Win32,60,61025ae37ef11b136ea224fe,,,,,,,,,1476,108,58,1,0,0,response1disk,,6,22,-10,1,0,0,rectangle,22,-10,1,0,0,22,-10,1,0,0,1,95,255,76,1,,,,,,,,
,,,,,,,,,,,,,FF,,,,,,,,0.9653,,,,,,,,,,,,,,,,,,,,,,610342791f17a52c9fd5ea36,61036b8664e6c768e90c335e,2021-07-29_22h01.59.093,Simcolourproject_2stim_asymm_v5,2020.2.10,Win32,60,61025ae37ef11b136ea224fe,,,,,,,,,1846,79,-59,1,0,0,response3disk,,5,-18,-1,1,0,0,rectangle,-18,-1,1,0,0,-18,-1,1,0,0,1,96,256,66,1,,,,,,,,
,,,,,,,,,,,,,FF,,,,,,,,0.7571,,,,,,,,,,,,,,,,,,,,,,610342791f17a52c9fd5ea36,61036b8664e6c768e90c335e,2021-07-29_22h01.59.093,Simcolourproject_2stim_asymm_v5,2020.2.10,Win32,60,61025ae37ef11b136ea224fe,,,,,,,,,2918,46,86,1,0,0,response1disk,,7,15,21,1,0,0,rectangle,15,21,1,0,0,15,21,1,0,0,1,97,257,31,1,,,,,,,,
,,,,,,,,,,,,,FF,,,,,,,,1.0487,,,,,,,,,,,,,,,,,,,,,,610342791f17a52c9fd5ea36,61036b8664e6c768e90c335e,2021-07-29_22h01.59.093,Simcolourproject_2stim_asymm_v5,2020.2.10,Win32,60,61025ae37ef11b136ea224fe,,,,,,,,,740,97,-63,1,0,0,response3disk,,5,1,-17,1,0,0,rectangle,1,-17,1,0,0,1,-17,1,0,0,1,98,258,3,1,,,,,,,,
,,,,,,,,,,,,,FF,,,,,,,,0.7848,,,,,,,,,,,,,,,,,,,,,,610342791f17a52c9fd5ea36,61036b8664e6c768e90c335e,2021-07-29_22h01.59.093,Simcolourproject_2stim_asymm_v5,2020.2.10,Win32,60,61025ae37ef11b136ea224fe,,,,,,,,,412,50,71,1,0,0,response1disk,,7,8,-11,1,0,0,rectangle,8,-11,1,0,0,8,-11,1,0,0,1,99,259,74,1,,,,,,,,
,,,,,,,,,,,,,FF,,,,,,,,2.3056,,,,,,,,,,,,,,,,,,,,,,610342791f17a52c9fd5ea36,61036b8664e6c768e90c335e,2021-07-29_22h01.59.093,Simcolourproject_2stim_asymm_v5,2020.2.10,Win32,60,61025ae37ef11b136ea224fe,,,,,,,,,1760,55,-66,1,0,0,response3disk,,4,21,16,1,0,0,rectangle,21,16,1,0,0,21,16,1,0,0,1,100,260,145,1,,,,,,,,
,,,,,,,,,,,,,FF,,,,,,,,1.284,,,,,,,,,,,,,,,,,,,,,,610342791f17a52c9fd5ea36,61036b8664e6c768e90c335e,2021-07-29_22h01.59.093,Simcolourproject_2stim_asymm_v5,2020.2.10,Win32,60,61025ae37ef11b136ea224fe,,,,,,,,,2980,111,55,1,0,0,response1disk,,6,31,3,1,0,0,rectangle,31,3,1,0,0,31,3,1,0,0,1,101,261,10,1,,,,,,,,
,,,,,,,,,,,,,FF,,,,,,,,1.5488,,,,,,,,,,,,,,,,,,,,,,610342791f17a52c9fd5ea36,61036b8664e6c768e90c335e,2021-07-29_22h01.59.093,Simcolourproject_2stim_asymm_v5,2020.2.10,Win32,60,61025ae37ef11b136ea224fe,,,,,,,,,4093,90,55,1,0,0,response1disk,,6,20,-14,1,0,0,rectangle,20,-14,1,0,0,20,-14,1,0,0,1,102,262,127,1,,,,,,,,
,,,,,,,,,,,,,FF,,,,,,,,0.8681,,,,,,,,,,,,,,,,,,,,,,610342791f17a52c9fd5ea36,61036b8664e6c768e90c335e,2021-07-29_22h01.59.093,Simcolourproject_2stim_asymm_v5,2020.2.10,Win32,60,61025ae37ef11b136ea224fe,,,,,,,,,1865,42,85,1,0,0,response1disk,,7,7,7,1,0,0,rectangle,7,7,1,0,0,7,7,1,0,0,1,103,263,54,1,,,,,,,,
,,,,,,,,,,,,,FF,,,,,,,,0.8619,,,,,,,,,,,,,,,,,,,,,,610342791f17a52c9fd5ea36,61036b8664e6c768e90c335e,2021-07-29_22h01.59.093,Simcolourproject_2stim_asymm_v5,2020.2.10,Win32,60,61025ae37ef11b136ea224fe,,,,,,,,,1135,76,-45,1,0,0,response3disk,,5,4,-10,1,0,0,rectangle,4,-10,1,0,0,4,-10,1,0,0,1,104,264,19,1,,,,,,,,
,,,,,,,,,,,,,FF,,,,,,,,1.1422,,,,,,,,,,,,,,,,,,,,,,610342791f17a52c9fd5ea36,61036b8664e6c768e90c335e,2021-07-29_22h01.59.093,Simcolourproject_2stim_asymm_v5,2020.2.10,Win32,60,61025ae37ef11b136ea224fe,,,,,,,,,3087,52,78,1,0,0,response1disk,,7,10,5,1,0,0,rectangle,10,5,1,0,0,10,5,1,0,0,1,105,265,72,1,,,,,,,,
,,,,,,,,,,,,,FF,,,,,,,,0.8056,,,,,,,,,,,,,,,,,,,,,,610342791f17a52c9fd5ea36,61036b8664e6c768e90c335e,2021-07-29_22h01.59.093,Simcolourproject_2stim_asymm_v5,2020.2.10,Win32,60,61025ae37ef11b136ea224fe,,,,,,,,,2147,47,82,1,0,0,response1disk,,7,11,10,1,0,0,rectangle,11,10,1,0,0,11,10,1,0,0,1,106,266,14,1,,,,,,,,
,,,,,,,,,,,,,FF,,,,,,,,1.4583,,,,,,,,,,,,,,,,,,,,,,610342791f17a52c9fd5ea36,61036b8664e6c768e90c335e,2021-07-29_22h01.59.093,Simcolourproject_2stim_asymm_v5,2020.2.10,Win32,60,61025ae37ef11b136ea224fe,,,,,,,,,3338,-37,-80,1,0,0,response5disk,,3,0,-4,1,0,0,rectangle,0,-4,1,0,0,0,-4,1,0,0,1,107,267,93,1,,,,,,,,
,,,,,,,,,,,,,FF,,,,,,,,1.2223,,,,,,,,,,,,,,,,,,,,,,610342791f17a52c9fd5ea36,61036b8664e6c768e90c335e,2021-07-29_22h01.59.093,Simcolourproject_2stim_asymm_v5,2020.2.10,Win32,60,61025ae37ef11b136ea224fe,,,,,,,,,4189,100,-41,1,0,0,response3disk,,5,11,15,1,0,0,rectangle,11,15,1,0,0,11,15,1,0,0,1,108,268,107,1,,,,,,,,
,,,,,,,,,,,,,FF,,,,,,,,1.0486,,,,,,,,,,,,,,,,,,,,,,610342791f17a52c9fd5ea36,61036b8664e6c768e90c335e,2021-07-29_22h01.59.093,Simcolourproject_2stim_asymm_v5,2020.2.10,Win32,60,61025ae37ef11b136ea224fe,,,,,,,,,2693,85,40,1,0,0,response1disk,,6,35,-8,1,0,0,rectangle,35,-8,1,0,0,35,-8,1,0,0,1,109,269,140,1,,,,,,,,
,,,,,,,,,,,,,FF,,,,,,,,0.6945,,,,,,,,,,,,,,,,,,,,,,610342791f17a52c9fd5ea36,61036b8664e6c768e90c335e,2021-07-29_22h01.59.093,Simcolourproject_2stim_asymm_v5,2020.2.10,Win32,60,61025ae37ef11b136ea224fe,,,,,,,,,601,38,57,1,0,0,response1disk,,7,17,5,1,0,0,rectangle,17,5,1,0,0,17,5,1,0,0,1,110,270,82,1,,,,,,,,
,,,,,,,,,,,,,FF,,,,,,,,0.6041,,,,,,,,,,,,,,,,,,,,,,610342791f17a52c9fd5ea36,61036b8664e6c768e90c335e,2021-07-29_22h01.59.093,Simcolourproject_2stim_asymm_v5,2020.2.10,Win32,60,61025ae37ef11b136ea224fe,,,,,,,,,322,37,89,1,0,0,response1disk,,7,31,25,1,0,0,rectangle,31,25,1,0,0,31,25,1,0,0,1,111,271,111,1,,,,,,,,
,,,,,,,,,,,,,FF,,,,,,,,0.9421,,,,,,,,,,,,,,,,,,,,,,610342791f17a52c9fd5ea36,61036b8664e6c768e90c335e,2021-07-29_22h01.59.093,Simcolourproject_2stim_asymm_v5,2020.2.10,Win32,60,61025ae37ef11b136ea224fe,,,,,,,,,3816,91,-53,1,0,0,response3disk,,5,-1,2,1,0,0,rectangle,72,-144,1,0,0,2,0,1,0,0,1,112,272,115,1,,response3disk_3,TRUE,4,4,"[250,78,232,106,25,273,74,248,241,202,73,92,244,294,250,254,196,195,156,178]",1.6181,rectangle
,,,,,,,,,,,,,FF,,,,,,,,0.7377,,,,,,,,,,,,,,,,,,,,,,610342791f17a52c9fd5ea36,61036b8664e6c768e90c335e,2021-07-29_22h01.59.093,Simcolourproject_2stim_asymm_v5,2020.2.10,Win32,60,61025ae37ef11b136ea224fe,,,,,,,,,1503,44,83,1,0,0,response1disk,,7,1,13,1,0,0,rectangle,1,13,1,0,0,1,13,1,0,0,1,113,273,28,1,,,,,,,,
,,,,,,,,,,,,,FF,,,,,,,,1.1251,,,,,,,,,,,,,,,,,,,,,,610342791f17a52c9fd5ea36,61036b8664e6c768e90c335e,2021-07-29_22h01.59.093,Simcolourproject_2stim_asymm_v5,2020.2.10,Win32,60,61025ae37ef11b136ea224fe,,,,,,,,,1256,87,-75,1,0,0,response3disk,,5,1,-6,1,0,0,rectangle,1,-6,1,0,0,1,-6,1,0,0,1,114,274,102,1,,,,,,,,
,,,,,,,,,,,,,FF,,,,,,,,0.8681,,,,,,,,,,,,,,,,,,,,,,610342791f17a52c9fd5ea36,61036b8664e6c768e90c335e,2021-07-29_22h01.59.093,Simcolourproject_2stim_asymm_v5,2020.2.10,Win32,60,61025ae37ef11b136ea224fe,,,,,,,,,304,47,75,1,0,0,response1disk,,7,31,7,1,0,0,rectangle,31,7,1,0,0,31,7,1,0,0,1,115,275,87,1,,,,,,,,
,,,,,,,,,,,,,FF,,,,,,,,0.9029,,,,,,,,,,,,,,,,,,,,,,610342791f17a52c9fd5ea36,61036b8664e6c768e90c335e,2021-07-29_22h01.59.093,Simcolourproject_2stim_asymm_v5,2020.2.10,Win32,60,61025ae37ef11b136ea224fe,,,,,,,,,897,85,45,1,0,0,response1disk,,6,27,-13,1,0,0,rectangle,27,-13,1,0,0,27,-13,1,0,0,1,116,276,132,1,,,,,,,,
,,,,,,,,,,,,,FF,,,,,,,,1.014,,,,,,,,,,,,,,,,,,,,,,610342791f17a52c9fd5ea36,61036b8664e6c768e90c335e,2021-07-29_22h01.59.093,Simcolourproject_2stim_asymm_v5,2020.2.10,Win32,60,61025ae37ef11b136ea224fe,,,,,,,,,2588,69,39,1,0,0,response1disk,,6,30,1,1,0,0,rectangle,30,1,1,0,0,30,1,1,0,0,1,117,277,17,1,,,,,,,,
,,,,,,,,,,,,,FF,,,,,,,,1.2081,,,,,,,,,,,,,,,,,,,,,,610342791f17a52c9fd5ea36,61036b8664e6c768e90c335e,2021-07-29_22h01.59.093,Simcolourproject_2stim_asymm_v5,2020.2.10,Win32,60,61025ae37ef11b136ea224fe,,,,,,,,,2477,92,-42,1,0,0,response3disk,,5,12,10,1,0,0,rectangle,12,10,1,0,0,12,10,1,0,0,1,118,278,154,1,,,,,,,,
,,,,,,,,,,,,,FF,,,,,,,,1.4236,,,,,,,,,,,,,,,,,,,,,,610342791f17a52c9fd5ea36,61036b8664e6c768e90c335e,2021-07-29_22h01.59.093,Simcolourproject_2stim_asymm_v5,2020.2.10,Win32,60,61025ae37ef11b136ea224fe,,,,,,,,,2084,88,-51,1,0,0,response3disk,,5,10,-11,1,0,0,rectangle,10,-11,1,0,0,10,-11,1,0,0,1,119,279,5,1,,,,,,,,
,,,,,,,,,,,,,FF,,,,,,,,1.0948,,,,,,,,,,,,,,,,,,,,,,610342791f17a52c9fd5ea36,61036b8664e6c768e90c335e,2021-07-29_22h01.59.093,Simcolourproject_2stim_asymm_v5,2020.2.10,Win32,60,61025ae37ef11b136ea224fe,,,,,,,,,2463,90,40,1,0,0,response1disk,,6,22,-13,1,0,0,rectangle,22,-13,1,0,0,22,-13,1,0,0,1,120,280,57,1,,,,,,,,
,,,,,,,,,,,,,FF,,,,,,,,1.1834,,,,,,,,,,,,,,,,,,,,,,610342791f17a52c9fd5ea36,61036b8664e6c768e90c335e,2021-07-29_22h01.59.093,Simcolourproject_2stim_asymm_v5,2020.2.10,Win32,60,61025ae37ef11b136ea224fe,,,,,,,,,1170,59,106,1,0,0,response1disk,,7,10,-10,1,0,0,rectangle,10,-10,1,0,0,10,-10,1,0,0,1,121,281,49,1,,,,,,,,
,,,,,,,,,,,,,FF,,,,,,,,1.2912,,,,,,,,,,,,,,,,,,,,,,610342791f17a52c9fd5ea36,61036b8664e6c768e90c335e,2021-07-29_22h01.59.093,Simcolourproject_2stim_asymm_v5,2020.2.10,Win32,60,61025ae37ef11b136ea224fe,,,,,,,,,1950,-40,-110,1,0,0,response5disk,,3,14,-11,1,0,0,rectangle,14,-11,1,0,0,14,-11,1,0,0,1,122,282,67,1,,,,,,,,
,,,,,,,,,,,,,FF,,,,,,,,0.8403,,,,,,,,,,,,,,,,,,,,,,610342791f17a52c9fd5ea36,61036b8664e6c768e90c335e,2021-07-29_22h01.59.093,Simcolourproject_2stim_asymm_v5,2020.2.10,Win32,60,61025ae37ef11b136ea224fe,,,,,,,,,3205,-109,-54,1,0,0,response5disk,,2,7,0,1,0,0,rectangle,7,0,1,0,0,7,0,1,0,0,1,123,283,148,1,,,,,,,,
,,,,,,,,,,,,,FF,,,,,,,,1.0376,,,,,,,,,,,,,,,,,,,,,,610342791f17a52c9fd5ea36,61036b8664e6c768e90c335e,2021-07-29_22h01.59.093,Simcolourproject_2stim_asymm_v5,2020.2.10,Win32,60,61025ae37ef11b136ea224fe,,,,,,,,,2712,-101,-63,1,0,0,response5disk,,2,1,-8,1,0,0,rectangle,1,-8,1,0,0,1,-8,1,0,0,1,124,284,73,1,,,,,,,,
,,,,,,,,,,,,,FF,,,,,,,,0.868,,,,,,,,,,,,,,,,,,,,,,610342791f17a52c9fd5ea36,61036b8664e6c768e90c335e,2021-07-29_22h01.59.093,Simcolourproject_2stim_asymm_v5,2020.2.10,Win32,60,61025ae37ef11b136ea224fe,,,,,,,,,1574,61,33,1,0,0,response1disk,,6,5,-3,1,0,0,rectangle,5,-3,1,0,0,5,-3,1,0,0,1,125,285,35,1,,,,,,,,
,,,,,,,,,,,,,FF,,,,,,,,0.9792,,,,,,,,,,,,,,,,,,,,,,610342791f17a52c9fd5ea36,61036b8664e6c768e90c335e,2021-07-29_22h01.59.093,Simcolourproject_2stim_asymm_v5,2020.2.10,Win32,60,61025ae37ef11b136ea224fe,,,,,,,,,3599,50,-107,1,0,0,response3disk,,4,-5,4,1,0,0,rectangle,-5,4,1,0,0,-5,4,1,0,0,1,126,286,104,1,,,,,,,,
,,,,,,,,,,,,,FF,,,,,,,,1.0569,,,,,,,,,,,,,,,,,,,,,,610342791f17a52c9fd5ea36,61036b8664e6c768e90c335e,2021-07-29_22h01.59.093,Simcolourproject_2stim_asymm_v5,2020.2.10,Win32,60,61025ae37ef11b136ea224fe,,,,,,,,,1678,57,-105,1,0,0,response3disk,,4,18,-12,1,0,0,rectangle,18,-12,1,0,0,18,-12,1,0,0,1,127,287,138,1,,,,,,,,
,,,,,,,,,,,,,FF,,,,,,,,0.8442,,,,,,,,,,,,,,,,,,,,,,610342791f17a52c9fd5ea36,61036b8664e6c768e90c335e,2021-07-29_22h01.59.093,Simcolourproject_2stim_asymm_v5,2020.2.10,Win32,60,61025ae37ef11b136ea224fe,,,,,,,,,90,97,44,1,0,0,response1disk,,6,19,-10,1,0,0,rectangle,19,-10,1,0,0,19,-10,1,0,0,1,128,288,65,1,,,,,,,,
,,,,,,,,,,,,,FF,,,,,,,,1.3277,,,,,,,,,,,,,,,,,,,,,,610342791f17a52c9fd5ea36,61036b8664e6c768e90c335e,2021-07-29_22h01.59.093,Simcolourproject_2stim_asymm_v5,2020.2.10,Win32,60,61025ae37ef11b136ea224fe,,,,,,,,,2856,110,-60,1,0,0,response3disk,,5,26,-5,1,0,0,rectangle,26,-5,1,0,0,26,-5,1,0,0,1,129,289,100,1,,,,,,,,
,,,,,,,,,,,,,FF,,,,,,,,1.2433,,,,,,,,,,,,,,,,,,,,,,610342791f17a52c9fd5ea36,61036b8664e6c768e90c335e,2021-07-29_22h01.59.093,Simcolourproject_2stim_asymm_v5,2020.2.10,Win32,60,61025ae37ef11b136ea224fe,,,,,,,,,1038,34,-121,1,0,0,response3disk,,4,-24,-6,1,0,0,rectangle,-24,-6,1,0,0,-24,-6,1,0,0,1,130,290,146,1,,,,,,,,
,,,,,,,,,,,,,FF,,,,,,,,1.8957,,,,,,,,,,,,,,,,,,,,,,610342791f17a52c9fd5ea36,61036b8664e6c768e90c335e,2021-07-29_22h01.59.093,Simcolourproject_2stim_asymm_v5,2020.2.10,Win32,60,61025ae37ef11b136ea224fe,,,,,,,,,3738,60,-95,1,0,0,response3disk,,4,22,-5,1,0,0,rectangle,22,-5,1,0,0,22,-5,1,0,0,1,131,291,33,1,,,,,,,,
,,,,,,,,,,,,,FF,,,,,,,,1.0209,,,,,,,,,,,,,,,,,,,,,,610342791f17a52c9fd5ea36,61036b8664e6c768e90c335e,2021-07-29_22h01.59.093,Simcolourproject_2stim_asymm_v5,2020.2.10,Win32,60,61025ae37ef11b136ea224fe,,,,,,,,,3200,-122,-64,1,0,0,response5disk,,2,-10,-1,1,0,0,rectangle,-10,-1,1,0,0,-10,-1,1,0,0,1,132,292,150,1,,,,,,,,
,,,,,,,,,,,,,FF,,,,,,,,1.0556,,,,,,,,,,,,,,,,,,,,,,610342791f17a52c9fd5ea36,61036b8664e6c768e90c335e,2021-07-29_22h01.59.093,Simcolourproject_2stim_asymm_v5,2020.2.10,Win32,60,61025ae37ef11b136ea224fe,,,,,,,,,760,73,-48,1,0,0,response3disk,,5,27,-3,1,0,0,rectangle,46,84,1,0,0,15,2,1,0,0,1,133,293,15,1,,response1disk_3,TRUE,7,7,"[250,78,232,106,25,273,74,248,241,202,73,92,244,294,250,254,196,195,156,178]",1.5423,rectangle
,,,,,,,,,,,,,FF,,,,,,,,0.9583,,,,,,,,,,,,,,,,,,,,,,610342791f17a52c9fd5ea36,61036b8664e6c768e90c335e,2021-07-29_22h01.59.093,Simcolourproject_2stim_asymm_v5,2020.2.10,Win32,60,61025ae37ef11b136ea224fe,,,,,,,,,3954,70,-52,1,0,0,response3disk,,5,0,5,1,0,0,rectangle,0,5,1,0,0,0,5,1,0,0,1,134,294,55,1,,,,,,,,
,,,,,,,,,,,,,FF,,,,,,,,1.2495,,,,,,,,,,,,,,,,,,,,,,610342791f17a52c9fd5ea36,61036b8664e6c768e90c335e,2021-07-29_22h01.59.093,Simcolourproject_2stim_asymm_v5,2020.2.10,Win32,60,61025ae37ef11b136ea224fe,,,,,,,,,638,42,-82,1,0,0,response3disk,,4,-1,-2,1,0,0,rectangle,-1,-2,1,0,0,-1,-2,1,0,0,1,135,295,144,1,,,,,,,,
,,,,,,,,,,,,,FF,,,,,,,,0.7054,,,,,,,,,,,,,,,,,,,,,,610342791f17a52c9fd5ea36,61036b8664e6c768e90c335e,2021-07-29_22h01.59.093,Simcolourproject_2stim_asymm_v5,2020.2.10,Win32,60,61025ae37ef11b136ea224fe,,,,,,,,,3025,37,79,1,0,0,response1disk,,7,5,2,1,0,0,rectangle,5,2,1,0,0,5,2,1,0,0,1,136,296,16,1,,,,,,,,
,,,,,,,,,,,,,FF,,,,,,,,1.118,,,,,,,,,,,,,,,,,,,,,,610342791f17a52c9fd5ea36,61036b8664e6c768e90c335e,2021-07-29_22h01.59.093,Simcolourproject_2stim_asymm_v5,2020.2.10,Win32,60,61025ae37ef11b136ea224fe,,,,,,,,,1617,90,-49,1,0,0,response3disk,,5,10,-8,1,0,0,rectangle,10,-8,1,0,0,10,-8,1,0,0,1,137,297,106,1,,,,,,,,
,,,,,,,,,,,,,FF,,,,,,,,1.0417,,,,,,,,,,,,,,,,,,,,,,610342791f17a52c9fd5ea36,61036b8664e6c768e90c335e,2021-07-29_22h01.59.093,Simcolourproject_2stim_asymm_v5,2020.2.10,Win32,60,61025ae37ef11b136ea224fe,,,,,,,,,394,84,41,1,0,0,response1disk,,6,19,-6,1,0,0,rectangle,19,-6,1,0,0,19,-6,1,0,0,1,138,298,61,1,,,,,,,,
,,,,,,,,,,,,,FF,,,,,,,,0.6725,,,,,,,,,,,,,,,,,,,,,,610342791f17a52c9fd5ea36,61036b8664e6c768e90c335e,2021-07-29_22h01.59.093,Simcolourproject_2stim_asymm_v5,2020.2.10,Win32,60,61025ae37ef11b136ea224fe,,,,,,,,,212,86,47,1,0,0,response1disk,,6,19,-6,1,0,0,rectangle,19,-6,1,0,0,19,-6,1,0,0,1,139,299,131,1,,,,,,,,
,,,,,,,,,,,,,FF,,,,,,,,0.4307,,,,,,,,,,,,,,,,,,,,,,610342791f17a52c9fd5ea36,61036b8664e6c768e90c335e,2021-07-29_22h01.59.093,Simcolourproject_2stim_asymm_v5,2020.2.10,Win32,60,61025ae37ef11b136ea224fe,,,,,,,,,664,91,47,1,0,0,response1disk,,6,14,-9,1,0,0,rectangle,14,-9,1,0,0,14,-9,1,0,0,1,140,300,91,1,,,,,,,,
