key_resp.keys,key_resp.rt,key_resp_14.keys,key_resp_14.rt,key_resp_15.keys,key_resp_15.rt,key_resp_17.keys,key_resp_17.rt,key_resp_9.keys,key_resp_9.rt,key_resp_10.keys,key_resp_10.rt,practice_comparison,Ecc,mouse_5.x,mouse_5.y,mouse_5.leftButton,mouse_5.midButton,mouse_5.rightButton,mouse_5.clicked_name,pracsimilarity,response_time,mouse_10.x,mouse_10.y,mouse_10.leftButton,mouse_10.midButton,mouse_10.rightButton,mouse_10.clicked_name,mouse_7.x,mouse_7.y,mouse_7.leftButton,mouse_7.midButton,mouse_7.rightButton,mouse_6.x,mouse_6.y,mouse_6.leftButton,mouse_6.midButton,mouse_6.rightButton,duringprac.thisRepN,duringprac.thisTrialN,duringprac.thisN,duringprac.thisIndex,duringprac.ran,participant,session,date,expName,psychopyVersion,OS,frameRate,study_id,mouse_7.clicked_name,catchpracsimilarity,catch_response_time,catchnumberprac,catchtrialorderprac,mouse_6.clicked_name,key_resp_22.keys,key_resp_22.rt,realcomparison,mouse.x,mouse.y,mouse.leftButton,mouse.midButton,mouse.rightButton,mouse.clicked_name,Colour2,similarity,mouse_2.x,mouse_2.y,mouse_2.leftButton,mouse_2.midButton,mouse_2.rightButton,mouse_2.clicked_name,mouse_3.x,mouse_3.y,mouse_3.leftButton,mouse_3.midButton,mouse_3.rightButton,mouse_11.x,mouse_11.y,mouse_11.leftButton,mouse_11.midButton,mouse_11.rightButton,trials_2.thisRepN,trials_2.thisTrialN,trials_2.thisN,trials_2.thisIndex,trials_2.ran,Colour1,mouse_3.clicked_name,catchornah,catchsimilarity,catchnumber,catchtrialorder,catchRT,mouse_11.clicked_name
space,3.018,space,5.198,space,28.975,space,12.311,space,0.255,space,2.094,122,FF,-45,101,1,0,0,response7disk_5,0,13.868,2,-1,1,0,0,rectangle_8,2,-1,1,0,0,2,-1,1,0,0,0,0,0,0,1,6103494acb49b118fdcf2db5,61036bba84ad83fd30723a57,2021-07-29_22h04.04.080,Simcolourproject_2stim_asymm_v5,2020.2.10,MacIntel,60,61025ae37ef11b136ea224fe,,,,,,,,,,,,,,,,,,,,,,,,,,,,,,,,,,,,,,,,,,,,,,
,,,,,,,,,,,,68,FF,-41,85,1,0,0,response7disk_5,0,6.133,-3,-11,1,0,0,rectangle_8,106,50,1,0,0,-6,3,1,0,0,0,1,1,5,1,6103494acb49b118fdcf2db5,61036bba84ad83fd30723a57,2021-07-29_22h04.04.080,Simcolourproject_2stim_asymm_v5,2020.2.10,MacIntel,60,61025ae37ef11b136ea224fe,response1disk_7,6,2.917,6,"[2,5]",rectangle_4,,,,,,,,,,,,,,,,,,,,,,,,,,,,,,,,,,,,,,,,
,,,,,,,,,,,,7,FF,63,94,1,0,0,response1disk_5,7,6.815,-4,2,1,0,0,rectangle_8,-4,2,1,0,0,-4,2,1,0,0,0,2,2,3,1,6103494acb49b118fdcf2db5,61036bba84ad83fd30723a57,2021-07-29_22h04.04.080,Simcolourproject_2stim_asymm_v5,2020.2.10,MacIntel,60,61025ae37ef11b136ea224fe,,,,,,,,,,,,,,,,,,,,,,,,,,,,,,,,,,,,,,,,,,,,,,
,,,,,,,,,,,,138,PF,51,114,1,0,0,response1disk_5,7,1.265,-5,-6,1,0,0,rectangle_8,-5,-6,1,0,0,-5,-6,1,0,0,0,3,3,6,1,6103494acb49b118fdcf2db5,61036bba84ad83fd30723a57,2021-07-29_22h04.04.080,Simcolourproject_2stim_asymm_v5,2020.2.10,MacIntel,60,61025ae37ef11b136ea224fe,,,,,,,,,,,,,,,,,,,,,,,,,,,,,,,,,,,,,,,,,,,,,,
,,,,,,,,,,,,96,PF,31,84,1,0,0,response1disk_5,7,1.1,3,3,1,0,0,rectangle_8,96,51,1,0,0,19,-9,1,0,0,0,4,4,4,1,6103494acb49b118fdcf2db5,61036bba84ad83fd30723a57,2021-07-29_22h04.04.080,Simcolourproject_2stim_asymm_v5,2020.2.10,MacIntel,60,61025ae37ef11b136ea224fe,response1disk_7,6,2.217,6,"[2,5]",rectangle_4,,,,,,,,,,,,,,,,,,,,,,,,,,,,,,,,,,,,,,,,
,,,,,,,,,,,,58,PF,52,-81,1,0,0,response3disk_5,4,2.267,-6,9,1,0,0,rectangle_8,-6,9,1,0,0,-6,9,1,0,0,0,5,5,1,1,6103494acb49b118fdcf2db5,61036bba84ad83fd30723a57,2021-07-29_22h04.04.080,Simcolourproject_2stim_asymm_v5,2020.2.10,MacIntel,60,61025ae37ef11b136ea224fe,,,,,,,,,,,,,,,,,,,,,,,,,,,,,,,,,,,,,,,,,,,,,,
,,,,,,,,,,,,106,PF,48,-87,1,0,0,response3disk_5,4,1.499,12,-5,1,0,0,rectangle_8,12,-5,1,0,0,12,-5,1,0,0,0,6,6,2,1,6103494acb49b118fdcf2db5,61036bba84ad83fd30723a57,2021-07-29_22h04.04.080,Simcolourproject_2stim_asymm_v5,2020.2.10,MacIntel,60,61025ae37ef11b136ea224fe,,,,,,,,,,,,,,,,,,,,,,,,,,,,,,,,,,,,,,,,,,,,,,
,,,,,,,,,,,,,FF,,,,,,,,1.733,,,,,,,,,,,,,,,,,,,,,,6103494acb49b118fdcf2db5,61036bba84ad83fd30723a57,2021-07-29_22h04.04.080,Simcolourproject_2stim_asymm_v5,2020.2.10,MacIntel,60,61025ae37ef11b136ea224fe,,,,,,,space,2.616,3095,45,101,1,0,0,response1disk,,7,-8,-4,1,0,0,rectangle,-8,-4,1,0,0,-8,-4,1,0,0,0,0,0,22,1,,,,,,,,
,,,,,,,,,,,,,FF,,,,,,,,1.851,,,,,,,,,,,,,,,,,,,,,,6103494acb49b118fdcf2db5,61036bba84ad83fd30723a57,2021-07-29_22h04.04.080,Simcolourproject_2stim_asymm_v5,2020.2.10,MacIntel,60,61025ae37ef11b136ea224fe,,,,,,,,,1160,87,23,1,0,0,response1disk,,6,23,-1,1,0,0,rectangle,23,-1,1,0,0,23,-1,1,0,0,0,1,1,36,1,,,,,,,,
,,,,,,,,,,,,,FF,,,,,,,,1.415,,,,,,,,,,,,,,,,,,,,,,6103494acb49b118fdcf2db5,61036bba84ad83fd30723a57,2021-07-29_22h04.04.080,Simcolourproject_2stim_asymm_v5,2020.2.10,MacIntel,60,61025ae37ef11b136ea224fe,,,,,,,,,1376,34,-76,1,0,0,response3disk,,4,12,-9,1,0,0,rectangle,12,-9,1,0,0,12,-9,1,0,0,0,2,2,83,1,,,,,,,,
,,,,,,,,,,,,,FF,,,,,,,,2.3,,,,,,,,,,,,,,,,,,,,,,6103494acb49b118fdcf2db5,61036bba84ad83fd30723a57,2021-07-29_22h04.04.080,Simcolourproject_2stim_asymm_v5,2020.2.10,MacIntel,60,61025ae37ef11b136ea224fe,,,,,,,,,2160,45,-73,1,0,0,response3disk,,4,24,8,1,0,0,rectangle,24,8,1,0,0,24,8,1,0,0,0,3,3,136,1,,,,,,,,
,,,,,,,,,,,,,FF,,,,,,,,2.133,,,,,,,,,,,,,,,,,,,,,,6103494acb49b118fdcf2db5,61036bba84ad83fd30723a57,2021-07-29_22h04.04.080,Simcolourproject_2stim_asymm_v5,2020.2.10,MacIntel,60,61025ae37ef11b136ea224fe,,,,,,,,,2967,52,77,1,0,0,response1disk,,7,20,-5,1,0,0,rectangle,20,-5,1,0,0,20,-5,1,0,0,0,4,4,87,1,,,,,,,,
,,,,,,,,,,,,,FF,,,,,,,,2.051,,,,,,,,,,,,,,,,,,,,,,6103494acb49b118fdcf2db5,61036bba84ad83fd30723a57,2021-07-29_22h04.04.080,Simcolourproject_2stim_asymm_v5,2020.2.10,MacIntel,60,61025ae37ef11b136ea224fe,,,,,,,,,4146,-40,112,1,0,0,response7disk,,0,-13,8,1,0,0,rectangle,-13,8,1,0,0,-13,8,1,0,0,0,5,5,95,1,,,,,,,,
,,,,,,,,,,,,,FF,,,,,,,,1.034,,,,,,,,,,,,,,,,,,,,,,6103494acb49b118fdcf2db5,61036bba84ad83fd30723a57,2021-07-29_22h04.04.080,Simcolourproject_2stim_asymm_v5,2020.2.10,MacIntel,60,61025ae37ef11b136ea224fe,,,,,,,,,2280,43,94,1,0,0,response1disk,,7,15,3,1,0,0,rectangle,15,3,1,0,0,15,3,1,0,0,0,6,6,159,1,,,,,,,,
,,,,,,,,,,,,,FF,,,,,,,,2.633,,,,,,,,,,,,,,,,,,,,,,6103494acb49b118fdcf2db5,61036bba84ad83fd30723a57,2021-07-29_22h04.04.080,Simcolourproject_2stim_asymm_v5,2020.2.10,MacIntel,60,61025ae37ef11b136ea224fe,,,,,,,,,1327,84,29,1,0,0,response1disk,,6,16,2,1,0,0,rectangle,16,2,1,0,0,16,2,1,0,0,0,7,7,89,1,,,,,,,,
,,,,,,,,,,,,,FF,,,,,,,,1.449,,,,,,,,,,,,,,,,,,,,,,6103494acb49b118fdcf2db5,61036bba84ad83fd30723a57,2021-07-29_22h04.04.080,Simcolourproject_2stim_asymm_v5,2020.2.10,MacIntel,60,61025ae37ef11b136ea224fe,,,,,,,,,4054,33,-83,1,0,0,response3disk,,4,3,9,1,0,0,rectangle,3,9,1,0,0,3,9,1,0,0,0,8,8,6,1,,,,,,,,
,,,,,,,,,,,,,FF,,,,,,,,1.333,,,,,,,,,,,,,,,,,,,,,,6103494acb49b118fdcf2db5,61036bba84ad83fd30723a57,2021-07-29_22h04.04.080,Simcolourproject_2stim_asymm_v5,2020.2.10,MacIntel,60,61025ae37ef11b136ea224fe,,,,,,,,,741,64,-46,1,0,0,response3disk,,5,16,10,1,0,0,rectangle,16,10,1,0,0,16,10,1,0,0,0,9,9,3,1,,,,,,,,
,,,,,,,,,,,,,FF,,,,,,,,1.684,,,,,,,,,,,,,,,,,,,,,,6103494acb49b118fdcf2db5,61036bba84ad83fd30723a57,2021-07-29_22h04.04.080,Simcolourproject_2stim_asymm_v5,2020.2.10,MacIntel,60,61025ae37ef11b136ea224fe,,,,,,,,,603,55,91,1,0,0,response1disk,,7,13,6,1,0,0,rectangle,13,6,1,0,0,13,6,1,0,0,0,10,10,64,1,,,,,,,,
,,,,,,,,,,,,,FF,,,,,,,,1.851,,,,,,,,,,,,,,,,,,,,,,6103494acb49b118fdcf2db5,61036bba84ad83fd30723a57,2021-07-29_22h04.04.080,Simcolourproject_2stim_asymm_v5,2020.2.10,MacIntel,60,61025ae37ef11b136ea224fe,,,,,,,,,2938,57,-71,1,0,0,response3disk,,4,11,3,1,0,0,rectangle,11,3,1,0,0,11,3,1,0,0,0,11,11,52,1,,,,,,,,
,,,,,,,,,,,,,FF,,,,,,,,3.967,,,,,,,,,,,,,,,,,,,,,,6103494acb49b118fdcf2db5,61036bba84ad83fd30723a57,2021-07-29_22h04.04.080,Simcolourproject_2stim_asymm_v5,2020.2.10,MacIntel,60,61025ae37ef11b136ea224fe,,,,,,,,,2548,-88,-38,1,0,0,response5disk,,2,-14,-1,1,0,0,rectangle,-14,-1,1,0,0,-14,-1,1,0,0,0,12,12,82,1,,,,,,,,
,,,,,,,,,,,,,FF,,,,,,,,1.299,,,,,,,,,,,,,,,,,,,,,,6103494acb49b118fdcf2db5,61036bba84ad83fd30723a57,2021-07-29_22h04.04.080,Simcolourproject_2stim_asymm_v5,2020.2.10,MacIntel,60,61025ae37ef11b136ea224fe,,,,,,,,,1063,-33,-80,1,0,0,response5disk,,3,6,5,1,0,0,rectangle,6,5,1,0,0,6,5,1,0,0,0,13,13,94,1,,,,,,,,
,,,,,,,,,,,,,FF,,,,,,,,1.132,,,,,,,,,,,,,,,,,,,,,,6103494acb49b118fdcf2db5,61036bba84ad83fd30723a57,2021-07-29_22h04.04.080,Simcolourproject_2stim_asymm_v5,2020.2.10,MacIntel,60,61025ae37ef11b136ea224fe,,,,,,,,,709,82,53,1,0,0,response1disk,,6,5,3,1,0,0,rectangle,5,3,1,0,0,5,3,1,0,0,0,14,14,127,1,,,,,,,,
,,,,,,,,,,,,,FF,,,,,,,,1.034,,,,,,,,,,,,,,,,,,,,,,6103494acb49b118fdcf2db5,61036bba84ad83fd30723a57,2021-07-29_22h04.04.080,Simcolourproject_2stim_asymm_v5,2020.2.10,MacIntel,60,61025ae37ef11b136ea224fe,,,,,,,,,2392,96,35,1,0,0,response1disk,,6,22,-8,1,0,0,rectangle,22,-8,1,0,0,22,-8,1,0,0,0,15,15,8,1,,,,,,,,
,,,,,,,,,,,,,FF,,,,,,,,1.166,,,,,,,,,,,,,,,,,,,,,,6103494acb49b118fdcf2db5,61036bba84ad83fd30723a57,2021-07-29_22h04.04.080,Simcolourproject_2stim_asymm_v5,2020.2.10,MacIntel,60,61025ae37ef11b136ea224fe,,,,,,,,,693,44,-38,1,0,0,response3disk,,5,18,-9,1,0,0,rectangle,18,-9,1,0,0,18,-9,1,0,0,0,16,16,111,1,,,,,,,,
,,,,,,,,,,,,,FF,,,,,,,,0.949,,,,,,,,,,,,,,,,,,,,,,6103494acb49b118fdcf2db5,61036bba84ad83fd30723a57,2021-07-29_22h04.04.080,Simcolourproject_2stim_asymm_v5,2020.2.10,MacIntel,60,61025ae37ef11b136ea224fe,,,,,,,,,3412,70,41,1,0,0,response1disk,,6,26,13,1,0,0,rectangle,26,13,1,0,0,26,13,1,0,0,0,17,17,76,1,,,,,,,,
,,,,,,,,,,,,,FF,,,,,,,,1.049,,,,,,,,,,,,,,,,,,,,,,6103494acb49b118fdcf2db5,61036bba84ad83fd30723a57,2021-07-29_22h04.04.080,Simcolourproject_2stim_asymm_v5,2020.2.10,MacIntel,60,61025ae37ef11b136ea224fe,,,,,,,,,952,44,-85,1,0,0,response3disk,,4,5,-2,1,0,0,rectangle,5,-2,1,0,0,5,-2,1,0,0,0,18,18,101,1,,,,,,,,
,,,,,,,,,,,,,FF,,,,,,,,2.433,,,,,,,,,,,,,,,,,,,,,,6103494acb49b118fdcf2db5,61036bba84ad83fd30723a57,2021-07-29_22h04.04.080,Simcolourproject_2stim_asymm_v5,2020.2.10,MacIntel,60,61025ae37ef11b136ea224fe,,,,,,,,,1820,-81,-37,1,0,0,response5disk,,2,-26,0,1,0,0,rectangle,-26,0,1,0,0,-26,0,1,0,0,0,19,19,51,1,,,,,,,,
,,,,,,,,,,,,,FF,,,,,,,,0.882,,,,,,,,,,,,,,,,,,,,,,6103494acb49b118fdcf2db5,61036bba84ad83fd30723a57,2021-07-29_22h04.04.080,Simcolourproject_2stim_asymm_v5,2020.2.10,MacIntel,60,61025ae37ef11b136ea224fe,,,,,,,,,4096,-65,33,1,0,0,response7disk,,1,-23,-6,1,0,0,rectangle,-23,-6,1,0,0,-23,-6,1,0,0,0,20,20,38,1,,,,,,,,
,,,,,,,,,,,,,FF,,,,,,,,1.2,,,,,,,,,,,,,,,,,,,,,,6103494acb49b118fdcf2db5,61036bba84ad83fd30723a57,2021-07-29_22h04.04.080,Simcolourproject_2stim_asymm_v5,2020.2.10,MacIntel,60,61025ae37ef11b136ea224fe,,,,,,,,,3141,-83,-39,1,0,0,response5disk,,2,-11,7,1,0,0,rectangle,-11,7,1,0,0,-11,7,1,0,0,0,21,21,30,1,,,,,,,,
,,,,,,,,,,,,,FF,,,,,,,,1.1,,,,,,,,,,,,,,,,,,,,,,6103494acb49b118fdcf2db5,61036bba84ad83fd30723a57,2021-07-29_22h04.04.080,Simcolourproject_2stim_asymm_v5,2020.2.10,MacIntel,60,61025ae37ef11b136ea224fe,,,,,,,,,2689,67,-48,1,0,0,response3disk,,5,25,-5,1,0,0,rectangle,25,-5,1,0,0,25,-5,1,0,0,0,22,22,139,1,,,,,,,,
,,,,,,,,,,,,,FF,,,,,,,,1.35,,,,,,,,,,,,,,,,,,,,,,6103494acb49b118fdcf2db5,61036bba84ad83fd30723a57,2021-07-29_22h04.04.080,Simcolourproject_2stim_asymm_v5,2020.2.10,MacIntel,60,61025ae37ef11b136ea224fe,,,,,,,,,3909,-78,-54,1,0,0,response5disk,,2,-6,-3,1,0,0,rectangle,-6,-3,1,0,0,-6,-3,1,0,0,0,23,23,50,1,,,,,,,,
,,,,,,,,,,,,,FF,,,,,,,,0.866,,,,,,,,,,,,,,,,,,,,,,6103494acb49b118fdcf2db5,61036bba84ad83fd30723a57,2021-07-29_22h04.04.080,Simcolourproject_2stim_asymm_v5,2020.2.10,MacIntel,60,61025ae37ef11b136ea224fe,,,,,,,,,1525,37,-69,1,0,0,response3disk,,4,8,-2,1,0,0,rectangle,8,-2,1,0,0,8,-2,1,0,0,0,24,24,47,1,,,,,,,,
,,,,,,,,,,,,,FF,,,,,,,,0.866,,,,,,,,,,,,,,,,,,,,,,6103494acb49b118fdcf2db5,61036bba84ad83fd30723a57,2021-07-29_22h04.04.080,Simcolourproject_2stim_asymm_v5,2020.2.10,MacIntel,60,61025ae37ef11b136ea224fe,,,,,,,,,3200,32,-61,1,0,0,response3disk,,4,13,4,1,0,0,rectangle,13,4,1,0,0,13,4,1,0,0,0,25,25,129,1,,,,,,,,
,,,,,,,,,,,,,FF,,,,,,,,1.35,,,,,,,,,,,,,,,,,,,,,,6103494acb49b118fdcf2db5,61036bba84ad83fd30723a57,2021-07-29_22h04.04.080,Simcolourproject_2stim_asymm_v5,2020.2.10,MacIntel,60,61025ae37ef11b136ea224fe,,,,,,,,,1220,-45,-86,1,0,0,response5disk,,3,9,2,1,0,0,rectangle,9,2,1,0,0,9,2,1,0,0,0,26,26,110,1,,,,,,,,
,,,,,,,,,,,,,FF,,,,,,,,0.934,,,,,,,,,,,,,,,,,,,,,,6103494acb49b118fdcf2db5,61036bba84ad83fd30723a57,2021-07-29_22h04.04.080,Simcolourproject_2stim_asymm_v5,2020.2.10,MacIntel,60,61025ae37ef11b136ea224fe,,,,,,,,,4083,54,-30,1,0,0,response3disk,,5,16,4,1,0,0,rectangle,16,4,1,0,0,16,4,1,0,0,0,27,27,154,1,,,,,,,,
,,,,,,,,,,,,,FF,,,,,,,,1.216,,,,,,,,,,,,,,,,,,,,,,6103494acb49b118fdcf2db5,61036bba84ad83fd30723a57,2021-07-29_22h04.04.080,Simcolourproject_2stim_asymm_v5,2020.2.10,MacIntel,60,61025ae37ef11b136ea224fe,,,,,,,,,3838,57,-27,1,0,0,response3disk,,5,-13,-13,1,0,0,rectangle,-13,-13,1,0,0,-13,-13,1,0,0,0,28,28,109,1,,,,,,,,
,,,,,,,,,,,,,FF,,,,,,,,0.833,,,,,,,,,,,,,,,,,,,,,,6103494acb49b118fdcf2db5,61036bba84ad83fd30723a57,2021-07-29_22h04.04.080,Simcolourproject_2stim_asymm_v5,2020.2.10,MacIntel,60,61025ae37ef11b136ea224fe,,,,,,,,,729,35,-64,1,0,0,response3disk,,4,14,1,1,0,0,rectangle,14,1,1,0,0,14,1,1,0,0,0,29,29,102,1,,,,,,,,
,,,,,,,,,,,,,FF,,,,,,,,1.2,,,,,,,,,,,,,,,,,,,,,,6103494acb49b118fdcf2db5,61036bba84ad83fd30723a57,2021-07-29_22h04.04.080,Simcolourproject_2stim_asymm_v5,2020.2.10,MacIntel,60,61025ae37ef11b136ea224fe,,,,,,,,,2732,46,-58,1,0,0,response3disk,,4,18,-2,1,0,0,rectangle,18,-2,1,0,0,18,-2,1,0,0,0,30,30,19,1,,,,,,,,
,,,,,,,,,,,,,FF,,,,,,,,1.118,,,,,,,,,,,,,,,,,,,,,,6103494acb49b118fdcf2db5,61036bba84ad83fd30723a57,2021-07-29_22h04.04.080,Simcolourproject_2stim_asymm_v5,2020.2.10,MacIntel,60,61025ae37ef11b136ea224fe,,,,,,,,,2591,58,27,1,0,0,response1disk,,6,13,1,1,0,0,rectangle,13,1,1,0,0,13,1,1,0,0,0,31,31,32,1,,,,,,,,
,,,,,,,,,,,,,FF,,,,,,,,0.867,,,,,,,,,,,,,,,,,,,,,,6103494acb49b118fdcf2db5,61036bba84ad83fd30723a57,2021-07-29_22h04.04.080,Simcolourproject_2stim_asymm_v5,2020.2.10,MacIntel,60,61025ae37ef11b136ea224fe,,,,,,,,,3310,69,64,1,0,0,response1disk,,6,14,3,1,0,0,rectangle,14,3,1,0,0,14,3,1,0,0,0,32,32,59,1,,,,,,,,
,,,,,,,,,,,,,FF,,,,,,,,0.717,,,,,,,,,,,,,,,,,,,,,,6103494acb49b118fdcf2db5,61036bba84ad83fd30723a57,2021-07-29_22h04.04.080,Simcolourproject_2stim_asymm_v5,2020.2.10,MacIntel,60,61025ae37ef11b136ea224fe,,,,,,,,,1919,63,41,1,0,0,response1disk,,6,9,-15,1,0,0,rectangle,9,-15,1,0,0,9,-15,1,0,0,0,33,33,27,1,,,,,,,,
,,,,,,,,,,,,,FF,,,,,,,,0.882,,,,,,,,,,,,,,,,,,,,,,6103494acb49b118fdcf2db5,61036bba84ad83fd30723a57,2021-07-29_22h04.04.080,Simcolourproject_2stim_asymm_v5,2020.2.10,MacIntel,60,61025ae37ef11b136ea224fe,,,,,,,,,1757,29,-57,1,0,0,response3disk,,4,5,0,1,0,0,rectangle,5,0,1,0,0,5,0,1,0,0,0,34,34,20,1,,,,,,,,
,,,,,,,,,,,,,FF,,,,,,,,1.283,,,,,,,,,,,,,,,,,,,,,,6103494acb49b118fdcf2db5,61036bba84ad83fd30723a57,2021-07-29_22h04.04.080,Simcolourproject_2stim_asymm_v5,2020.2.10,MacIntel,60,61025ae37ef11b136ea224fe,,,,,,,,,2987,-43,-66,1,0,0,response5disk,,3,8,0,1,0,0,rectangle,8,0,1,0,0,8,0,1,0,0,0,35,35,138,1,,,,,,,,
,,,,,,,,,,,,,FF,,,,,,,,1.099,,,,,,,,,,,,,,,,,,,,,,6103494acb49b118fdcf2db5,61036bba84ad83fd30723a57,2021-07-29_22h04.04.080,Simcolourproject_2stim_asymm_v5,2020.2.10,MacIntel,60,61025ae37ef11b136ea224fe,,,,,,,,,3914,-32,-83,1,0,0,response5disk,,3,13,-5,1,0,0,rectangle,13,-5,1,0,0,13,-5,1,0,0,0,36,36,153,1,,,,,,,,
,,,,,,,,,,,,,FF,,,,,,,,0.915,,,,,,,,,,,,,,,,,,,,,,6103494acb49b118fdcf2db5,61036bba84ad83fd30723a57,2021-07-29_22h04.04.080,Simcolourproject_2stim_asymm_v5,2020.2.10,MacIntel,60,61025ae37ef11b136ea224fe,,,,,,,,,2397,82,26,1,0,0,response1disk,,6,24,-5,1,0,0,rectangle,24,-5,1,0,0,24,-5,1,0,0,0,37,37,80,1,,,,,,,,
,,,,,,,,,,,,,FF,,,,,,,,1.233,,,,,,,,,,,,,,,,,,,,,,6103494acb49b118fdcf2db5,61036bba84ad83fd30723a57,2021-07-29_22h04.04.080,Simcolourproject_2stim_asymm_v5,2020.2.10,MacIntel,60,61025ae37ef11b136ea224fe,,,,,,,,,2004,37,68,1,0,0,response1disk,,7,13,8,1,0,0,rectangle,-85,56,1,0,0,-8,2,1,0,0,0,38,38,92,1,,response7disk_3,TRUE,1,1,"[247,273,39,101,216,101,140,229,49,95,97,154,73,263,91,173,174,205,273,275]",2.499,rectangle
,,,,,,,,,,,,,FF,,,,,,,,1.066,,,,,,,,,,,,,,,,,,,,,,6103494acb49b118fdcf2db5,61036bba84ad83fd30723a57,2021-07-29_22h04.04.080,Simcolourproject_2stim_asymm_v5,2020.2.10,MacIntel,60,61025ae37ef11b136ea224fe,,,,,,,,,2127,85,40,1,0,0,response1disk,,6,22,-2,1,0,0,rectangle,22,-2,1,0,0,22,-2,1,0,0,0,39,39,11,1,,,,,,,,
,,,,,,,,,,,,,FF,,,,,,,,0.917,,,,,,,,,,,,,,,,,,,,,,6103494acb49b118fdcf2db5,61036bba84ad83fd30723a57,2021-07-29_22h04.04.080,Simcolourproject_2stim_asymm_v5,2020.2.10,MacIntel,60,61025ae37ef11b136ea224fe,,,,,,,,,405,52,76,1,0,0,response1disk,,7,12,8,1,0,0,rectangle,12,8,1,0,0,12,8,1,0,0,0,40,40,100,1,,,,,,,,
,,,,,,,,,,,,,FF,,,,,,,,1.218,,,,,,,,,,,,,,,,,,,,,,6103494acb49b118fdcf2db5,61036bba84ad83fd30723a57,2021-07-29_22h04.04.080,Simcolourproject_2stim_asymm_v5,2020.2.10,MacIntel,60,61025ae37ef11b136ea224fe,,,,,,,,,3747,-78,-43,1,0,0,response5disk,,2,-10,9,1,0,0,rectangle,-10,9,1,0,0,-10,9,1,0,0,0,41,41,79,1,,,,,,,,
,,,,,,,,,,,,,FF,,,,,,,,1.15,,,,,,,,,,,,,,,,,,,,,,6103494acb49b118fdcf2db5,61036bba84ad83fd30723a57,2021-07-29_22h04.04.080,Simcolourproject_2stim_asymm_v5,2020.2.10,MacIntel,60,61025ae37ef11b136ea224fe,,,,,,,,,4186,70,-24,1,0,0,response3disk,,5,6,1,1,0,0,rectangle,6,1,1,0,0,6,1,1,0,0,0,42,42,16,1,,,,,,,,
,,,,,,,,,,,,,FF,,,,,,,,1.1,,,,,,,,,,,,,,,,,,,,,,6103494acb49b118fdcf2db5,61036bba84ad83fd30723a57,2021-07-29_22h04.04.080,Simcolourproject_2stim_asymm_v5,2020.2.10,MacIntel,60,61025ae37ef11b136ea224fe,,,,,,,,,828,66,-24,1,0,0,response3disk,,5,24,0,1,0,0,rectangle,24,0,1,0,0,24,0,1,0,0,0,43,43,81,1,,,,,,,,
,,,,,,,,,,,,,FF,,,,,,,,0.833,,,,,,,,,,,,,,,,,,,,,,6103494acb49b118fdcf2db5,61036bba84ad83fd30723a57,2021-07-29_22h04.04.080,Simcolourproject_2stim_asymm_v5,2020.2.10,MacIntel,60,61025ae37ef11b136ea224fe,,,,,,,,,2225,57,92,1,0,0,response1disk,,7,22,10,1,0,0,rectangle,22,10,1,0,0,22,10,1,0,0,0,44,44,115,1,,,,,,,,
,,,,,,,,,,,,,FF,,,,,,,,1.566,,,,,,,,,,,,,,,,,,,,,,6103494acb49b118fdcf2db5,61036bba84ad83fd30723a57,2021-07-29_22h04.04.080,Simcolourproject_2stim_asymm_v5,2020.2.10,MacIntel,60,61025ae37ef11b136ea224fe,,,,,,,,,2834,-50,-85,1,0,0,response5disk,,3,-26,-6,1,0,0,rectangle,-26,-6,1,0,0,-26,-6,1,0,0,0,45,45,66,1,,,,,,,,
,,,,,,,,,,,,,FF,,,,,,,,0.683,,,,,,,,,,,,,,,,,,,,,,6103494acb49b118fdcf2db5,61036bba84ad83fd30723a57,2021-07-29_22h04.04.080,Simcolourproject_2stim_asymm_v5,2020.2.10,MacIntel,60,61025ae37ef11b136ea224fe,,,,,,,,,2194,90,61,1,0,0,response1disk,,6,-6,-9,1,0,0,rectangle,-6,-9,1,0,0,-6,-9,1,0,0,0,46,46,104,1,,,,,,,,
,,,,,,,,,,,,,FF,,,,,,,,0.583,,,,,,,,,,,,,,,,,,,,,,6103494acb49b118fdcf2db5,61036bba84ad83fd30723a57,2021-07-29_22h04.04.080,Simcolourproject_2stim_asymm_v5,2020.2.10,MacIntel,60,61025ae37ef11b136ea224fe,,,,,,,,,1871,88,51,1,0,0,response1disk,,6,19,14,1,0,0,rectangle,19,14,1,0,0,19,14,1,0,0,0,47,47,21,1,,,,,,,,
,,,,,,,,,,,,,FF,,,,,,,,0.549,,,,,,,,,,,,,,,,,,,,,,6103494acb49b118fdcf2db5,61036bba84ad83fd30723a57,2021-07-29_22h04.04.080,Simcolourproject_2stim_asymm_v5,2020.2.10,MacIntel,60,61025ae37ef11b136ea224fe,,,,,,,,,3570,86,59,1,0,0,response1disk,,6,13,8,1,0,0,rectangle,88,45,1,0,0,21,-4,1,0,0,0,48,48,113,1,,response1disk_3,TRUE,6,6,"[247,273,39,101,216,101,140,229,49,95,97,154,73,263,91,173,174,205,273,275]",1.95,rectangle
,,,,,,,,,,,,,FF,,,,,,,,0.917,,,,,,,,,,,,,,,,,,,,,,6103494acb49b118fdcf2db5,61036bba84ad83fd30723a57,2021-07-29_22h04.04.080,Simcolourproject_2stim_asymm_v5,2020.2.10,MacIntel,60,61025ae37ef11b136ea224fe,,,,,,,,,1766,42,-78,1,0,0,response3disk,,4,23,-11,1,0,0,rectangle,23,-11,1,0,0,23,-11,1,0,0,0,49,49,144,1,,,,,,,,
,,,,,,,,,,,,,FF,,,,,,,,0.699,,,,,,,,,,,,,,,,,,,,,,6103494acb49b118fdcf2db5,61036bba84ad83fd30723a57,2021-07-29_22h04.04.080,Simcolourproject_2stim_asymm_v5,2020.2.10,MacIntel,60,61025ae37ef11b136ea224fe,,,,,,,,,2377,59,-35,1,0,0,response3disk,,5,21,-12,1,0,0,rectangle,21,-12,1,0,0,21,-12,1,0,0,0,50,50,155,1,,,,,,,,
,,,,,,,,,,,,,FF,,,,,,,,1.233,,,,,,,,,,,,,,,,,,,,,,6103494acb49b118fdcf2db5,61036bba84ad83fd30723a57,2021-07-29_22h04.04.080,Simcolourproject_2stim_asymm_v5,2020.2.10,MacIntel,60,61025ae37ef11b136ea224fe,,,,,,,,,951,80,42,1,0,0,response1disk,,6,14,1,1,0,0,rectangle,14,1,1,0,0,14,1,1,0,0,0,51,51,29,1,,,,,,,,
,,,,,,,,,,,,,FF,,,,,,,,1.418,,,,,,,,,,,,,,,,,,,,,,6103494acb49b118fdcf2db5,61036bba84ad83fd30723a57,2021-07-29_22h04.04.080,Simcolourproject_2stim_asymm_v5,2020.2.10,MacIntel,60,61025ae37ef11b136ea224fe,,,,,,,,,1735,-70,27,1,0,0,response7disk,,1,-14,9,1,0,0,rectangle,-14,9,1,0,0,-14,9,1,0,0,0,52,52,121,1,,,,,,,,
,,,,,,,,,,,,,FF,,,,,,,,0.784,,,,,,,,,,,,,,,,,,,,,,6103494acb49b118fdcf2db5,61036bba84ad83fd30723a57,2021-07-29_22h04.04.080,Simcolourproject_2stim_asymm_v5,2020.2.10,MacIntel,60,61025ae37ef11b136ea224fe,,,,,,,,,4127,-60,-81,1,0,0,response5disk,,3,-20,-14,1,0,0,rectangle,-20,-14,1,0,0,-20,-14,1,0,0,0,53,53,69,1,,,,,,,,
,,,,,,,,,,,,,FF,,,,,,,,0.818,,,,,,,,,,,,,,,,,,,,,,6103494acb49b118fdcf2db5,61036bba84ad83fd30723a57,2021-07-29_22h04.04.080,Simcolourproject_2stim_asymm_v5,2020.2.10,MacIntel,60,61025ae37ef11b136ea224fe,,,,,,,,,2491,72,33,1,0,0,response1disk,,6,21,-8,1,0,0,rectangle,21,-8,1,0,0,21,-8,1,0,0,0,54,54,93,1,,,,,,,,
,,,,,,,,,,,,,FF,,,,,,,,0.999,,,,,,,,,,,,,,,,,,,,,,6103494acb49b118fdcf2db5,61036bba84ad83fd30723a57,2021-07-29_22h04.04.080,Simcolourproject_2stim_asymm_v5,2020.2.10,MacIntel,60,61025ae37ef11b136ea224fe,,,,,,,,,1288,58,29,1,0,0,response1disk,,6,5,-9,1,0,0,rectangle,5,-9,1,0,0,5,-9,1,0,0,0,55,55,48,1,,,,,,,,
,,,,,,,,,,,,,FF,,,,,,,,1.132,,,,,,,,,,,,,,,,,,,,,,6103494acb49b118fdcf2db5,61036bba84ad83fd30723a57,2021-07-29_22h04.04.080,Simcolourproject_2stim_asymm_v5,2020.2.10,MacIntel,60,61025ae37ef11b136ea224fe,,,,,,,,,455,-32,94,1,0,0,response7disk,,0,-12,12,1,0,0,rectangle,-12,12,1,0,0,-12,12,1,0,0,0,56,56,34,1,,,,,,,,
,,,,,,,,,,,,,FF,,,,,,,,1.067,,,,,,,,,,,,,,,,,,,,,,6103494acb49b118fdcf2db5,61036bba84ad83fd30723a57,2021-07-29_22h04.04.080,Simcolourproject_2stim_asymm_v5,2020.2.10,MacIntel,60,61025ae37ef11b136ea224fe,,,,,,,,,1439,43,-19,1,0,0,response3disk,,5,3,-7,1,0,0,rectangle,3,-7,1,0,0,3,-7,1,0,0,0,57,57,116,1,,,,,,,,
,,,,,,,,,,,,,FF,,,,,,,,0.866,,,,,,,,,,,,,,,,,,,,,,6103494acb49b118fdcf2db5,61036bba84ad83fd30723a57,2021-07-29_22h04.04.080,Simcolourproject_2stim_asymm_v5,2020.2.10,MacIntel,60,61025ae37ef11b136ea224fe,,,,,,,,,2172,-39,-94,1,0,0,response5disk,,3,4,-6,1,0,0,rectangle,4,-6,1,0,0,4,-6,1,0,0,0,58,58,128,1,,,,,,,,
,,,,,,,,,,,,,FF,,,,,,,,1.017,,,,,,,,,,,,,,,,,,,,,,6103494acb49b118fdcf2db5,61036bba84ad83fd30723a57,2021-07-29_22h04.04.080,Simcolourproject_2stim_asymm_v5,2020.2.10,MacIntel,60,61025ae37ef11b136ea224fe,,,,,,,,,3125,80,62,1,0,0,response1disk,,6,12,8,1,0,0,rectangle,12,8,1,0,0,12,8,1,0,0,0,59,59,24,1,,,,,,,,
,,,,,,,,,,,,,FF,,,,,,,,0.666,,,,,,,,,,,,,,,,,,,,,,6103494acb49b118fdcf2db5,61036bba84ad83fd30723a57,2021-07-29_22h04.04.080,Simcolourproject_2stim_asymm_v5,2020.2.10,MacIntel,60,61025ae37ef11b136ea224fe,,,,,,,,,855,47,83,1,0,0,response1disk,,7,24,13,1,0,0,rectangle,24,13,1,0,0,24,13,1,0,0,0,60,60,106,1,,,,,,,,
,,,,,,,,,,,,,FF,,,,,,,,0.901,,,,,,,,,,,,,,,,,,,,,,6103494acb49b118fdcf2db5,61036bba84ad83fd30723a57,2021-07-29_22h04.04.080,Simcolourproject_2stim_asymm_v5,2020.2.10,MacIntel,60,61025ae37ef11b136ea224fe,,,,,,,,,2601,-56,31,1,0,0,response7disk,,1,-3,12,1,0,0,rectangle,-3,12,1,0,0,-3,12,1,0,0,0,61,61,43,1,,,,,,,,
,,,,,,,,,,,,,FF,,,,,,,,0.766,,,,,,,,,,,,,,,,,,,,,,6103494acb49b118fdcf2db5,61036bba84ad83fd30723a57,2021-07-29_22h04.04.080,Simcolourproject_2stim_asymm_v5,2020.2.10,MacIntel,60,61025ae37ef11b136ea224fe,,,,,,,,,4369,-39,57,1,0,0,response7disk,,0,-18,6,1,0,0,rectangle,-18,6,1,0,0,-18,6,1,0,0,0,62,62,133,1,,,,,,,,
,,,,,,,,,,,,,FF,,,,,,,,0.816,,,,,,,,,,,,,,,,,,,,,,6103494acb49b118fdcf2db5,61036bba84ad83fd30723a57,2021-07-29_22h04.04.080,Simcolourproject_2stim_asymm_v5,2020.2.10,MacIntel,60,61025ae37ef11b136ea224fe,,,,,,,,,1840,74,66,1,0,0,response1disk,,6,14,9,1,0,0,rectangle,14,9,1,0,0,14,9,1,0,0,0,63,63,148,1,,,,,,,,
,,,,,,,,,,,,,FF,,,,,,,,0.917,,,,,,,,,,,,,,,,,,,,,,6103494acb49b118fdcf2db5,61036bba84ad83fd30723a57,2021-07-29_22h04.04.080,Simcolourproject_2stim_asymm_v5,2020.2.10,MacIntel,60,61025ae37ef11b136ea224fe,,,,,,,,,3892,94,60,1,0,0,response1disk,,6,19,4,1,0,0,rectangle,19,4,1,0,0,19,4,1,0,0,0,64,64,63,1,,,,,,,,
,,,,,,,,,,,,,FF,,,,,,,,0.865,,,,,,,,,,,,,,,,,,,,,,6103494acb49b118fdcf2db5,61036bba84ad83fd30723a57,2021-07-29_22h04.04.080,Simcolourproject_2stim_asymm_v5,2020.2.10,MacIntel,60,61025ae37ef11b136ea224fe,,,,,,,,,3076,49,78,1,0,0,response1disk,,7,32,5,1,0,0,rectangle,32,5,1,0,0,32,5,1,0,0,0,65,65,44,1,,,,,,,,
,,,,,,,,,,,,,FF,,,,,,,,0.766,,,,,,,,,,,,,,,,,,,,,,6103494acb49b118fdcf2db5,61036bba84ad83fd30723a57,2021-07-29_22h04.04.080,Simcolourproject_2stim_asymm_v5,2020.2.10,MacIntel,60,61025ae37ef11b136ea224fe,,,,,,,,,2968,65,39,1,0,0,response1disk,,6,15,8,1,0,0,rectangle,15,8,1,0,0,15,8,1,0,0,0,66,66,123,1,,,,,,,,
,,,,,,,,,,,,,FF,,,,,,,,0.684,,,,,,,,,,,,,,,,,,,,,,6103494acb49b118fdcf2db5,61036bba84ad83fd30723a57,2021-07-29_22h04.04.080,Simcolourproject_2stim_asymm_v5,2020.2.10,MacIntel,60,61025ae37ef11b136ea224fe,,,,,,,,,4033,77,52,1,0,0,response1disk,,6,20,7,1,0,0,rectangle,20,7,1,0,0,20,7,1,0,0,0,67,67,5,1,,,,,,,,
,,,,,,,,,,,,,FF,,,,,,,,0.951,,,,,,,,,,,,,,,,,,,,,,6103494acb49b118fdcf2db5,61036bba84ad83fd30723a57,2021-07-29_22h04.04.080,Simcolourproject_2stim_asymm_v5,2020.2.10,MacIntel,60,61025ae37ef11b136ea224fe,,,,,,,,,2594,61,-20,1,0,0,response3disk,,5,23,-9,1,0,0,rectangle,23,-9,1,0,0,23,-9,1,0,0,0,68,68,130,1,,,,,,,,
,,,,,,,,,,,,,FF,,,,,,,,0.682,,,,,,,,,,,,,,,,,,,,,,6103494acb49b118fdcf2db5,61036bba84ad83fd30723a57,2021-07-29_22h04.04.080,Simcolourproject_2stim_asymm_v5,2020.2.10,MacIntel,60,61025ae37ef11b136ea224fe,,,,,,,,,1628,42,56,1,0,0,response1disk,,7,31,4,1,0,0,rectangle,31,4,1,0,0,31,4,1,0,0,0,69,69,134,1,,,,,,,,
,,,,,,,,,,,,,FF,,,,,,,,0.599,,,,,,,,,,,,,,,,,,,,,,6103494acb49b118fdcf2db5,61036bba84ad83fd30723a57,2021-07-29_22h04.04.080,Simcolourproject_2stim_asymm_v5,2020.2.10,MacIntel,60,61025ae37ef11b136ea224fe,,,,,,,,,1645,47,71,1,0,0,response1disk,,7,14,4,1,0,0,rectangle,14,4,1,0,0,14,4,1,0,0,0,70,70,145,1,,,,,,,,
,,,,,,,,,,,,,FF,,,,,,,,0.684,,,,,,,,,,,,,,,,,,,,,,6103494acb49b118fdcf2db5,61036bba84ad83fd30723a57,2021-07-29_22h04.04.080,Simcolourproject_2stim_asymm_v5,2020.2.10,MacIntel,60,61025ae37ef11b136ea224fe,,,,,,,,,24,28,68,1,0,0,response1disk,,7,24,-11,1,0,0,rectangle,24,-11,1,0,0,24,-11,1,0,0,0,71,71,37,1,,,,,,,,
,,,,,,,,,,,,,FF,,,,,,,,0.901,,,,,,,,,,,,,,,,,,,,,,6103494acb49b118fdcf2db5,61036bba84ad83fd30723a57,2021-07-29_22h04.04.080,Simcolourproject_2stim_asymm_v5,2020.2.10,MacIntel,60,61025ae37ef11b136ea224fe,,,,,,,,,2724,-53,-40,1,0,0,response5disk,,2,-2,-3,1,0,0,rectangle,-46,-77,1,0,0,-6,7,1,0,0,0,72,72,14,1,,response5disk_3,TRUE,3,3,"[247,273,39,101,216,101,140,229,49,95,97,154,73,263,91,173,174,205,273,275]",1.7,rectangle
,,,,,,,,,,,,,FF,,,,,,,,1.518,,,,,,,,,,,,,,,,,,,,,,6103494acb49b118fdcf2db5,61036bba84ad83fd30723a57,2021-07-29_22h04.04.080,Simcolourproject_2stim_asymm_v5,2020.2.10,MacIntel,60,61025ae37ef11b136ea224fe,,,,,,,,,2872,46,92,1,0,0,response1disk,,7,6,-5,1,0,0,rectangle,6,-5,1,0,0,6,-5,1,0,0,0,73,73,97,1,,,,,,,,
,,,,,,,,,,,,,FF,,,,,,,,0.532,,,,,,,,,,,,,,,,,,,,,,6103494acb49b118fdcf2db5,61036bba84ad83fd30723a57,2021-07-29_22h04.04.080,Simcolourproject_2stim_asymm_v5,2020.2.10,MacIntel,60,61025ae37ef11b136ea224fe,,,,,,,,,2278,54,94,1,0,0,response1disk,,7,29,0,1,0,0,rectangle,29,0,1,0,0,29,0,1,0,0,0,74,74,120,1,,,,,,,,
,,,,,,,,,,,,,FF,,,,,,,,0.566,,,,,,,,,,,,,,,,,,,,,,6103494acb49b118fdcf2db5,61036bba84ad83fd30723a57,2021-07-29_22h04.04.080,Simcolourproject_2stim_asymm_v5,2020.2.10,MacIntel,60,61025ae37ef11b136ea224fe,,,,,,,,,43,81,42,1,0,0,response1disk,,6,23,0,1,0,0,rectangle,23,0,1,0,0,23,0,1,0,0,0,75,75,72,1,,,,,,,,
,,,,,,,,,,,,,FF,,,,,,,,0.766,,,,,,,,,,,,,,,,,,,,,,6103494acb49b118fdcf2db5,61036bba84ad83fd30723a57,2021-07-29_22h04.04.080,Simcolourproject_2stim_asymm_v5,2020.2.10,MacIntel,60,61025ae37ef11b136ea224fe,,,,,,,,,688,68,34,1,0,0,response1disk,,6,6,13,1,0,0,rectangle,6,13,1,0,0,6,13,1,0,0,0,76,76,137,1,,,,,,,,
,,,,,,,,,,,,,FF,,,,,,,,0.799,,,,,,,,,,,,,,,,,,,,,,6103494acb49b118fdcf2db5,61036bba84ad83fd30723a57,2021-07-29_22h04.04.080,Simcolourproject_2stim_asymm_v5,2020.2.10,MacIntel,60,61025ae37ef11b136ea224fe,,,,,,,,,4294,-65,-25,1,0,0,response5disk,,2,-13,-7,1,0,0,rectangle,-13,-7,1,0,0,-13,-7,1,0,0,0,77,77,114,1,,,,,,,,
,,,,,,,,,,,,,FF,,,,,,,,0.634,,,,,,,,,,,,,,,,,,,,,,6103494acb49b118fdcf2db5,61036bba84ad83fd30723a57,2021-07-29_22h04.04.080,Simcolourproject_2stim_asymm_v5,2020.2.10,MacIntel,60,61025ae37ef11b136ea224fe,,,,,,,,,1334,55,40,1,0,0,response1disk,,6,16,10,1,0,0,rectangle,16,10,1,0,0,16,10,1,0,0,0,78,78,41,1,,,,,,,,
,,,,,,,,,,,,,FF,,,,,,,,0.766,,,,,,,,,,,,,,,,,,,,,,6103494acb49b118fdcf2db5,61036bba84ad83fd30723a57,2021-07-29_22h04.04.080,Simcolourproject_2stim_asymm_v5,2020.2.10,MacIntel,60,61025ae37ef11b136ea224fe,,,,,,,,,485,50,35,1,0,0,response1disk,,6,23,4,1,0,0,rectangle,23,4,1,0,0,23,4,1,0,0,0,79,79,122,1,,,,,,,,
,,,,,,,,,,,,,FF,,,,,,,,0.866,,,,,,,,,,,,,,,,,,,,,,6103494acb49b118fdcf2db5,61036bba84ad83fd30723a57,2021-07-29_22h04.04.080,Simcolourproject_2stim_asymm_v5,2020.2.10,MacIntel,60,61025ae37ef11b136ea224fe,,,,,,,,,96,29,-57,1,0,0,response3disk,,4,22,-6,1,0,0,rectangle,22,-6,1,0,0,22,-6,1,0,0,0,80,80,2,1,,,,,,,,
,,,,,,,,,,,,,FF,,,,,,,,1.334,,,,,,,,,,,,,,,,,,,,,,6103494acb49b118fdcf2db5,61036bba84ad83fd30723a57,2021-07-29_22h04.04.080,Simcolourproject_2stim_asymm_v5,2020.2.10,MacIntel,60,61025ae37ef11b136ea224fe,,,,,,,,,645,41,-32,1,0,0,response3disk,,5,21,9,1,0,0,rectangle,21,9,1,0,0,21,9,1,0,0,0,81,81,68,1,,,,,,,,
,,,,,,,,,,,,,FF,,,,,,,,0.717,,,,,,,,,,,,,,,,,,,,,,6103494acb49b118fdcf2db5,61036bba84ad83fd30723a57,2021-07-29_22h04.04.080,Simcolourproject_2stim_asymm_v5,2020.2.10,MacIntel,60,61025ae37ef11b136ea224fe,,,,,,,,,2566,52,90,1,0,0,response1disk,,7,25,8,1,0,0,rectangle,25,8,1,0,0,25,8,1,0,0,0,82,82,4,1,,,,,,,,
,,,,,,,,,,,,,FF,,,,,,,,0.616,,,,,,,,,,,,,,,,,,,,,,6103494acb49b118fdcf2db5,61036bba84ad83fd30723a57,2021-07-29_22h04.04.080,Simcolourproject_2stim_asymm_v5,2020.2.10,MacIntel,60,61025ae37ef11b136ea224fe,,,,,,,,,2077,29,64,1,0,0,response1disk,,7,18,16,1,0,0,rectangle,18,16,1,0,0,18,16,1,0,0,0,83,83,55,1,,,,,,,,
,,,,,,,,,,,,,FF,,,,,,,,0.799,,,,,,,,,,,,,,,,,,,,,,6103494acb49b118fdcf2db5,61036bba84ad83fd30723a57,2021-07-29_22h04.04.080,Simcolourproject_2stim_asymm_v5,2020.2.10,MacIntel,60,61025ae37ef11b136ea224fe,,,,,,,,,3816,-43,-77,1,0,0,response5disk,,3,-15,-12,1,0,0,rectangle,-15,-12,1,0,0,-15,-12,1,0,0,0,84,84,67,1,,,,,,,,
,,,,,,,,,,,,,FF,,,,,,,,1.649,,,,,,,,,,,,,,,,,,,,,,6103494acb49b118fdcf2db5,61036bba84ad83fd30723a57,2021-07-29_22h04.04.080,Simcolourproject_2stim_asymm_v5,2020.2.10,MacIntel,60,61025ae37ef11b136ea224fe,,,,,,,,,2162,57,-35,1,0,0,response3disk,,5,13,-1,1,0,0,rectangle,13,-1,1,0,0,13,-1,1,0,0,0,85,85,90,1,,,,,,,,
,,,,,,,,,,,,,FF,,,,,,,,0.701,,,,,,,,,,,,,,,,,,,,,,6103494acb49b118fdcf2db5,61036bba84ad83fd30723a57,2021-07-29_22h04.04.080,Simcolourproject_2stim_asymm_v5,2020.2.10,MacIntel,60,61025ae37ef11b136ea224fe,,,,,,,,,4324,46,65,1,0,0,response1disk,,7,27,3,1,0,0,rectangle,27,3,1,0,0,27,3,1,0,0,0,86,86,77,1,,,,,,,,
,,,,,,,,,,,,,FF,,,,,,,,0.6,,,,,,,,,,,,,,,,,,,,,,6103494acb49b118fdcf2db5,61036bba84ad83fd30723a57,2021-07-29_22h04.04.080,Simcolourproject_2stim_asymm_v5,2020.2.10,MacIntel,60,61025ae37ef11b136ea224fe,,,,,,,,,2868,39,60,1,0,0,response1disk,,7,23,2,1,0,0,rectangle,23,2,1,0,0,23,2,1,0,0,0,87,87,70,1,,,,,,,,
,,,,,,,,,,,,,FF,,,,,,,,2.285,,,,,,,,,,,,,,,,,,,,,,6103494acb49b118fdcf2db5,61036bba84ad83fd30723a57,2021-07-29_22h04.04.080,Simcolourproject_2stim_asymm_v5,2020.2.10,MacIntel,60,61025ae37ef11b136ea224fe,,,,,,,,,1527,-24,-64,1,0,0,response5disk,,3,3,12,1,0,0,rectangle,3,12,1,0,0,3,12,1,0,0,0,88,88,96,1,,,,,,,,
,,,,,,,,,,,,,FF,,,,,,,,0.799,,,,,,,,,,,,,,,,,,,,,,6103494acb49b118fdcf2db5,61036bba84ad83fd30723a57,2021-07-29_22h04.04.080,Simcolourproject_2stim_asymm_v5,2020.2.10,MacIntel,60,61025ae37ef11b136ea224fe,,,,,,,,,460,54,-20,1,0,0,response3disk,,5,15,0,1,0,0,rectangle,15,0,1,0,0,15,0,1,0,0,0,89,89,107,1,,,,,,,,
,,,,,,,,,,,,,FF,,,,,,,,0.65,,,,,,,,,,,,,,,,,,,,,,6103494acb49b118fdcf2db5,61036bba84ad83fd30723a57,2021-07-29_22h04.04.080,Simcolourproject_2stim_asymm_v5,2020.2.10,MacIntel,60,61025ae37ef11b136ea224fe,,,,,,,,,468,70,-38,1,0,0,response3disk,,5,29,-13,1,0,0,rectangle,87,-40,1,0,0,20,-8,1,0,0,0,90,90,28,1,,response3disk_3,TRUE,5,5,"[247,273,39,101,216,101,140,229,49,95,97,154,73,263,91,173,174,205,273,275]",1.4,rectangle
,,,,,,,,,,,,,FF,,,,,,,,0.883,,,,,,,,,,,,,,,,,,,,,,6103494acb49b118fdcf2db5,61036bba84ad83fd30723a57,2021-07-29_22h04.04.080,Simcolourproject_2stim_asymm_v5,2020.2.10,MacIntel,60,61025ae37ef11b136ea224fe,,,,,,,,,2716,27,66,1,0,0,response1disk,,7,19,1,1,0,0,rectangle,19,1,1,0,0,19,1,1,0,0,0,91,91,73,1,,,,,,,,
,,,,,,,,,,,,,FF,,,,,,,,1.266,,,,,,,,,,,,,,,,,,,,,,6103494acb49b118fdcf2db5,61036bba84ad83fd30723a57,2021-07-29_22h04.04.080,Simcolourproject_2stim_asymm_v5,2020.2.10,MacIntel,60,61025ae37ef11b136ea224fe,,,,,,,,,3235,43,-45,1,0,0,response3disk,,4,7,17,1,0,0,rectangle,7,17,1,0,0,7,17,1,0,0,0,92,92,156,1,,,,,,,,
,,,,,,,,,,,,,FF,,,,,,,,0.632,,,,,,,,,,,,,,,,,,,,,,6103494acb49b118fdcf2db5,61036bba84ad83fd30723a57,2021-07-29_22h04.04.080,Simcolourproject_2stim_asymm_v5,2020.2.10,MacIntel,60,61025ae37ef11b136ea224fe,,,,,,,,,959,31,91,1,0,0,response1disk,,7,23,-2,1,0,0,rectangle,23,-2,1,0,0,23,-2,1,0,0,0,93,93,157,1,,,,,,,,
,,,,,,,,,,,,,FF,,,,,,,,1,,,,,,,,,,,,,,,,,,,,,,6103494acb49b118fdcf2db5,61036bba84ad83fd30723a57,2021-07-29_22h04.04.080,Simcolourproject_2stim_asymm_v5,2020.2.10,MacIntel,60,61025ae37ef11b136ea224fe,,,,,,,,,2897,73,31,1,0,0,response1disk,,6,13,1,1,0,0,rectangle,-27,97,1,0,0,-9,6,1,0,0,0,94,94,147,1,,response7disk_3,TRUE,0,0,"[247,273,39,101,216,101,140,229,49,95,97,154,73,263,91,173,174,205,273,275]",1.483,rectangle
,,,,,,,,,,,,,FF,,,,,,,,1.267,,,,,,,,,,,,,,,,,,,,,,6103494acb49b118fdcf2db5,61036bba84ad83fd30723a57,2021-07-29_22h04.04.080,Simcolourproject_2stim_asymm_v5,2020.2.10,MacIntel,60,61025ae37ef11b136ea224fe,,,,,,,,,52,45,103,1,0,0,response1disk,,7,15,0,1,0,0,rectangle,15,0,1,0,0,15,0,1,0,0,0,95,95,98,1,,,,,,,,
,,,,,,,,,,,,,FF,,,,,,,,0.966,,,,,,,,,,,,,,,,,,,,,,6103494acb49b118fdcf2db5,61036bba84ad83fd30723a57,2021-07-29_22h04.04.080,Simcolourproject_2stim_asymm_v5,2020.2.10,MacIntel,60,61025ae37ef11b136ea224fe,,,,,,,,,184,40,67,1,0,0,response1disk,,7,28,1,1,0,0,rectangle,-31,93,1,0,0,3,5,1,0,0,0,96,96,150,1,,response7disk_3,TRUE,0,0,"[247,273,39,101,216,101,140,229,49,95,97,154,73,263,91,173,174,205,273,275]",1.635,rectangle
,,,,,,,,,,,,,FF,,,,,,,,0.717,,,,,,,,,,,,,,,,,,,,,,6103494acb49b118fdcf2db5,61036bba84ad83fd30723a57,2021-07-29_22h04.04.080,Simcolourproject_2stim_asymm_v5,2020.2.10,MacIntel,60,61025ae37ef11b136ea224fe,,,,,,,,,2747,66,36,1,0,0,response1disk,,6,11,-5,1,0,0,rectangle,11,-5,1,0,0,11,-5,1,0,0,0,97,97,146,1,,,,,,,,
,,,,,,,,,,,,,FF,,,,,,,,0.917,,,,,,,,,,,,,,,,,,,,,,6103494acb49b118fdcf2db5,61036bba84ad83fd30723a57,2021-07-29_22h04.04.080,Simcolourproject_2stim_asymm_v5,2020.2.10,MacIntel,60,61025ae37ef11b136ea224fe,,,,,,,,,1722,39,60,1,0,0,response1disk,,7,13,-11,1,0,0,rectangle,13,-11,1,0,0,13,-11,1,0,0,0,98,98,0,1,,,,,,,,
,,,,,,,,,,,,,FF,,,,,,,,0.483,,,,,,,,,,,,,,,,,,,,,,6103494acb49b118fdcf2db5,61036bba84ad83fd30723a57,2021-07-29_22h04.04.080,Simcolourproject_2stim_asymm_v5,2020.2.10,MacIntel,60,61025ae37ef11b136ea224fe,,,,,,,,,2396,69,45,1,0,0,response1disk,,6,33,3,1,0,0,rectangle,33,3,1,0,0,33,3,1,0,0,0,99,99,152,1,,,,,,,,
,,,,,,,,,,,,,FF,,,,,,,,0.801,,,,,,,,,,,,,,,,,,,,,,6103494acb49b118fdcf2db5,61036bba84ad83fd30723a57,2021-07-29_22h04.04.080,Simcolourproject_2stim_asymm_v5,2020.2.10,MacIntel,60,61025ae37ef11b136ea224fe,,,,,,,,,4319,80,35,1,0,0,response1disk,,6,18,16,1,0,0,rectangle,-64,-37,1,0,0,-18,-4,1,0,0,0,100,100,17,1,,response5disk_3,TRUE,2,2,"[247,273,39,101,216,101,140,229,49,95,97,154,73,263,91,173,174,205,273,275]",1.499,rectangle
,,,,,,,,,,,,,FF,,,,,,,,0.633,,,,,,,,,,,,,,,,,,,,,,6103494acb49b118fdcf2db5,61036bba84ad83fd30723a57,2021-07-29_22h04.04.080,Simcolourproject_2stim_asymm_v5,2020.2.10,MacIntel,60,61025ae37ef11b136ea224fe,,,,,,,,,2763,59,-29,1,0,0,response3disk,,5,26,-14,1,0,0,rectangle,26,-14,1,0,0,26,-14,1,0,0,0,101,101,112,1,,,,,,,,
,,,,,,,,,,,,,FF,,,,,,,,0.684,,,,,,,,,,,,,,,,,,,,,,6103494acb49b118fdcf2db5,61036bba84ad83fd30723a57,2021-07-29_22h04.04.080,Simcolourproject_2stim_asymm_v5,2020.2.10,MacIntel,60,61025ae37ef11b136ea224fe,,,,,,,,,2061,59,83,1,0,0,response1disk,,7,33,-3,1,0,0,rectangle,33,-3,1,0,0,33,-3,1,0,0,0,102,102,53,1,,,,,,,,
,,,,,,,,,,,,,FF,,,,,,,,1.118,,,,,,,,,,,,,,,,,,,,,,6103494acb49b118fdcf2db5,61036bba84ad83fd30723a57,2021-07-29_22h04.04.080,Simcolourproject_2stim_asymm_v5,2020.2.10,MacIntel,60,61025ae37ef11b136ea224fe,,,,,,,,,464,58,-30,1,0,0,response3disk,,5,9,7,1,0,0,rectangle,9,7,1,0,0,9,7,1,0,0,0,103,103,39,1,,,,,,,,
,,,,,,,,,,,,,FF,,,,,,,,0.75,,,,,,,,,,,,,,,,,,,,,,6103494acb49b118fdcf2db5,61036bba84ad83fd30723a57,2021-07-29_22h04.04.080,Simcolourproject_2stim_asymm_v5,2020.2.10,MacIntel,60,61025ae37ef11b136ea224fe,,,,,,,,,1839,39,-22,1,0,0,response3disk,,5,14,4,1,0,0,rectangle,14,4,1,0,0,14,4,1,0,0,0,104,104,31,1,,,,,,,,
,,,,,,,,,,,,,FF,,,,,,,,0.549,,,,,,,,,,,,,,,,,,,,,,6103494acb49b118fdcf2db5,61036bba84ad83fd30723a57,2021-07-29_22h04.04.080,Simcolourproject_2stim_asymm_v5,2020.2.10,MacIntel,60,61025ae37ef11b136ea224fe,,,,,,,,,1858,63,51,1,0,0,response1disk,,6,24,17,1,0,0,rectangle,24,17,1,0,0,24,17,1,0,0,0,105,105,124,1,,,,,,,,
,,,,,,,,,,,,,FF,,,,,,,,0.784,,,,,,,,,,,,,,,,,,,,,,6103494acb49b118fdcf2db5,61036bba84ad83fd30723a57,2021-07-29_22h04.04.080,Simcolourproject_2stim_asymm_v5,2020.2.10,MacIntel,60,61025ae37ef11b136ea224fe,,,,,,,,,287,54,-38,1,0,0,response3disk,,5,29,-2,1,0,0,rectangle,29,-2,1,0,0,29,-2,1,0,0,0,106,106,60,1,,,,,,,,
,,,,,,,,,,,,,FF,,,,,,,,0.734,,,,,,,,,,,,,,,,,,,,,,6103494acb49b118fdcf2db5,61036bba84ad83fd30723a57,2021-07-29_22h04.04.080,Simcolourproject_2stim_asymm_v5,2020.2.10,MacIntel,60,61025ae37ef11b136ea224fe,,,,,,,,,3132,42,64,1,0,0,response1disk,,7,27,-6,1,0,0,rectangle,27,-6,1,0,0,27,-6,1,0,0,0,107,107,54,1,,,,,,,,
,,,,,,,,,,,,,FF,,,,,,,,0.9,,,,,,,,,,,,,,,,,,,,,,6103494acb49b118fdcf2db5,61036bba84ad83fd30723a57,2021-07-29_22h04.04.080,Simcolourproject_2stim_asymm_v5,2020.2.10,MacIntel,60,61025ae37ef11b136ea224fe,,,,,,,,,3688,36,60,1,0,0,response1disk,,7,17,-17,1,0,0,rectangle,17,-17,1,0,0,17,-17,1,0,0,0,108,108,135,1,,,,,,,,
,,,,,,,,,,,,,FF,,,,,,,,1.434,,,,,,,,,,,,,,,,,,,,,,6103494acb49b118fdcf2db5,61036bba84ad83fd30723a57,2021-07-29_22h04.04.080,Simcolourproject_2stim_asymm_v5,2020.2.10,MacIntel,60,61025ae37ef11b136ea224fe,,,,,,,,,1047,54,42,1,0,0,response1disk,,6,1,4,1,0,0,rectangle,1,4,1,0,0,1,4,1,0,0,0,109,109,140,1,,,,,,,,
,,,,,,,,,,,,,FF,,,,,,,,0.634,,,,,,,,,,,,,,,,,,,,,,6103494acb49b118fdcf2db5,61036bba84ad83fd30723a57,2021-07-29_22h04.04.080,Simcolourproject_2stim_asymm_v5,2020.2.10,MacIntel,60,61025ae37ef11b136ea224fe,,,,,,,,,1870,39,68,1,0,0,response1disk,,7,23,3,1,0,0,rectangle,23,3,1,0,0,23,3,1,0,0,0,110,110,74,1,,,,,,,,
,,,,,,,,,,,,,FF,,,,,,,,0.983,,,,,,,,,,,,,,,,,,,,,,6103494acb49b118fdcf2db5,61036bba84ad83fd30723a57,2021-07-29_22h04.04.080,Simcolourproject_2stim_asymm_v5,2020.2.10,MacIntel,60,61025ae37ef11b136ea224fe,,,,,,,,,2026,-70,-49,1,0,0,response5disk,,2,2,5,1,0,0,rectangle,2,5,1,0,0,2,5,1,0,0,0,111,111,103,1,,,,,,,,
,,,,,,,,,,,,,FF,,,,,,,,0.833,,,,,,,,,,,,,,,,,,,,,,6103494acb49b118fdcf2db5,61036bba84ad83fd30723a57,2021-07-29_22h04.04.080,Simcolourproject_2stim_asymm_v5,2020.2.10,MacIntel,60,61025ae37ef11b136ea224fe,,,,,,,,,806,-54,-30,1,0,0,response5disk,,2,-4,2,1,0,0,rectangle,-4,2,1,0,0,-4,2,1,0,0,0,112,112,126,1,,,,,,,,
,,,,,,,,,,,,,FF,,,,,,,,0.749,,,,,,,,,,,,,,,,,,,,,,6103494acb49b118fdcf2db5,61036bba84ad83fd30723a57,2021-07-29_22h04.04.080,Simcolourproject_2stim_asymm_v5,2020.2.10,MacIntel,60,61025ae37ef11b136ea224fe,,,,,,,,,3146,-30,54,1,0,0,response7disk,,0,-16,3,1,0,0,rectangle,-16,3,1,0,0,-16,3,1,0,0,0,113,113,13,1,,,,,,,,
,,,,,,,,,,,,,FF,,,,,,,,1.084,,,,,,,,,,,,,,,,,,,,,,6103494acb49b118fdcf2db5,61036bba84ad83fd30723a57,2021-07-29_22h04.04.080,Simcolourproject_2stim_asymm_v5,2020.2.10,MacIntel,60,61025ae37ef11b136ea224fe,,,,,,,,,4242,31,58,1,0,0,response1disk,,7,19,9,1,0,0,rectangle,19,9,1,0,0,19,9,1,0,0,0,114,114,99,1,,,,,,,,
,,,,,,,,,,,,,FF,,,,,,,,0.534,,,,,,,,,,,,,,,,,,,,,,6103494acb49b118fdcf2db5,61036bba84ad83fd30723a57,2021-07-29_22h04.04.080,Simcolourproject_2stim_asymm_v5,2020.2.10,MacIntel,60,61025ae37ef11b136ea224fe,,,,,,,,,3799,27,46,1,0,0,response1disk,,7,27,5,1,0,0,rectangle,27,5,1,0,0,27,5,1,0,0,0,115,115,105,1,,,,,,,,
,,,,,,,,,,,,,FF,,,,,,,,0.599,,,,,,,,,,,,,,,,,,,,,,6103494acb49b118fdcf2db5,61036bba84ad83fd30723a57,2021-07-29_22h04.04.080,Simcolourproject_2stim_asymm_v5,2020.2.10,MacIntel,60,61025ae37ef11b136ea224fe,,,,,,,,,3226,32,54,1,0,0,response1disk,,7,32,8,1,0,0,rectangle,32,8,1,0,0,32,8,1,0,0,0,116,116,58,1,,,,,,,,
,,,,,,,,,,,,,FF,,,,,,,,1.3,,,,,,,,,,,,,,,,,,,,,,6103494acb49b118fdcf2db5,61036bba84ad83fd30723a57,2021-07-29_22h04.04.080,Simcolourproject_2stim_asymm_v5,2020.2.10,MacIntel,60,61025ae37ef11b136ea224fe,,,,,,,,,1883,37,48,1,0,0,response1disk,,7,32,12,1,0,0,rectangle,32,12,1,0,0,32,12,1,0,0,0,117,117,9,1,,,,,,,,
,,,,,,,,,,,,,FF,,,,,,,,0.717,,,,,,,,,,,,,,,,,,,,,,6103494acb49b118fdcf2db5,61036bba84ad83fd30723a57,2021-07-29_22h04.04.080,Simcolourproject_2stim_asymm_v5,2020.2.10,MacIntel,60,61025ae37ef11b136ea224fe,,,,,,,,,3316,35,54,1,0,0,response1disk,,7,26,-1,1,0,0,rectangle,26,-1,1,0,0,26,-1,1,0,0,0,118,118,1,1,,,,,,,,
,,,,,,,,,,,,,FF,,,,,,,,0.583,,,,,,,,,,,,,,,,,,,,,,6103494acb49b118fdcf2db5,61036bba84ad83fd30723a57,2021-07-29_22h04.04.080,Simcolourproject_2stim_asymm_v5,2020.2.10,MacIntel,60,61025ae37ef11b136ea224fe,,,,,,,,,3982,31,48,1,0,0,response1disk,,7,28,2,1,0,0,rectangle,28,2,1,0,0,28,2,1,0,0,0,119,119,65,1,,,,,,,,
,,,,,,,,,,,,,FF,,,,,,,,0.801,,,,,,,,,,,,,,,,,,,,,,6103494acb49b118fdcf2db5,61036bba84ad83fd30723a57,2021-07-29_22h04.04.080,Simcolourproject_2stim_asymm_v5,2020.2.10,MacIntel,60,61025ae37ef11b136ea224fe,,,,,,,,,696,53,28,1,0,0,response1disk,,6,31,1,1,0,0,rectangle,31,1,1,0,0,31,1,1,0,0,0,120,120,84,1,,,,,,,,
,,,,,,,,,,,,,FF,,,,,,,,0.667,,,,,,,,,,,,,,,,,,,,,,6103494acb49b118fdcf2db5,61036bba84ad83fd30723a57,2021-07-29_22h04.04.080,Simcolourproject_2stim_asymm_v5,2020.2.10,MacIntel,60,61025ae37ef11b136ea224fe,,,,,,,,,3888,68,40,1,0,0,response1disk,,6,25,10,1,0,0,rectangle,25,10,1,0,0,25,10,1,0,0,0,121,121,46,1,,,,,,,,
,,,,,,,,,,,,,FF,,,,,,,,0.5,,,,,,,,,,,,,,,,,,,,,,6103494acb49b118fdcf2db5,61036bba84ad83fd30723a57,2021-07-29_22h04.04.080,Simcolourproject_2stim_asymm_v5,2020.2.10,MacIntel,60,61025ae37ef11b136ea224fe,,,,,,,,,2580,60,43,1,0,0,response1disk,,6,16,8,1,0,0,rectangle,16,8,1,0,0,16,8,1,0,0,0,122,122,151,1,,,,,,,,
,,,,,,,,,,,,,FF,,,,,,,,0.949,,,,,,,,,,,,,,,,,,,,,,6103494acb49b118fdcf2db5,61036bba84ad83fd30723a57,2021-07-29_22h04.04.080,Simcolourproject_2stim_asymm_v5,2020.2.10,MacIntel,60,61025ae37ef11b136ea224fe,,,,,,,,,472,43,-22,1,0,0,response3disk,,5,10,-14,1,0,0,rectangle,10,-14,1,0,0,10,-14,1,0,0,0,123,123,143,1,,,,,,,,
,,,,,,,,,,,,,FF,,,,,,,,1.55,,,,,,,,,,,,,,,,,,,,,,6103494acb49b118fdcf2db5,61036bba84ad83fd30723a57,2021-07-29_22h04.04.080,Simcolourproject_2stim_asymm_v5,2020.2.10,MacIntel,60,61025ae37ef11b136ea224fe,,,,,,,,,3036,48,-26,1,0,0,response3disk,,5,21,-9,1,0,0,rectangle,21,-9,1,0,0,21,-9,1,0,0,0,124,124,45,1,,,,,,,,
,,,,,,,,,,,,,FF,,,,,,,,1.35,,,,,,,,,,,,,,,,,,,,,,6103494acb49b118fdcf2db5,61036bba84ad83fd30723a57,2021-07-29_22h04.04.080,Simcolourproject_2stim_asymm_v5,2020.2.10,MacIntel,60,61025ae37ef11b136ea224fe,,,,,,,,,3712,-48,-60,1,0,0,response5disk,,3,-19,-3,1,0,0,rectangle,-19,-3,1,0,0,-19,-3,1,0,0,0,125,125,71,1,,,,,,,,
,,,,,,,,,,,,,FF,,,,,,,,0.733,,,,,,,,,,,,,,,,,,,,,,6103494acb49b118fdcf2db5,61036bba84ad83fd30723a57,2021-07-29_22h04.04.080,Simcolourproject_2stim_asymm_v5,2020.2.10,MacIntel,60,61025ae37ef11b136ea224fe,,,,,,,,,3350,-30,-60,1,0,0,response5disk,,3,-14,-6,1,0,0,rectangle,-14,-6,1,0,0,-14,-6,1,0,0,0,126,126,12,1,,,,,,,,
,,,,,,,,,,,,,FF,,,,,,,,0.717,,,,,,,,,,,,,,,,,,,,,,6103494acb49b118fdcf2db5,61036bba84ad83fd30723a57,2021-07-29_22h04.04.080,Simcolourproject_2stim_asymm_v5,2020.2.10,MacIntel,60,61025ae37ef11b136ea224fe,,,,,,,,,1222,-36,-65,1,0,0,response5disk,,3,-17,-7,1,0,0,rectangle,-17,-7,1,0,0,-17,-7,1,0,0,0,127,127,62,1,,,,,,,,
,,,,,,,,,,,,,FF,,,,,,,,0.75,,,,,,,,,,,,,,,,,,,,,,6103494acb49b118fdcf2db5,61036bba84ad83fd30723a57,2021-07-29_22h04.04.080,Simcolourproject_2stim_asymm_v5,2020.2.10,MacIntel,60,61025ae37ef11b136ea224fe,,,,,,,,,488,52,-27,1,0,0,response3disk,,5,31,-10,1,0,0,rectangle,31,-10,1,0,0,31,-10,1,0,0,0,128,128,117,1,,,,,,,,
,,,,,,,,,,,,,FF,,,,,,,,0.849,,,,,,,,,,,,,,,,,,,,,,6103494acb49b118fdcf2db5,61036bba84ad83fd30723a57,2021-07-29_22h04.04.080,Simcolourproject_2stim_asymm_v5,2020.2.10,MacIntel,60,61025ae37ef11b136ea224fe,,,,,,,,,2534,66,36,1,0,0,response1disk,,6,4,5,1,0,0,rectangle,4,5,1,0,0,4,5,1,0,0,0,129,129,35,1,,,,,,,,
,,,,,,,,,,,,,FF,,,,,,,,0.9,,,,,,,,,,,,,,,,,,,,,,6103494acb49b118fdcf2db5,61036bba84ad83fd30723a57,2021-07-29_22h04.04.080,Simcolourproject_2stim_asymm_v5,2020.2.10,MacIntel,60,61025ae37ef11b136ea224fe,,,,,,,,,363,30,52,1,0,0,response1disk,,7,13,2,1,0,0,rectangle,13,2,1,0,0,13,2,1,0,0,0,130,130,7,1,,,,,,,,
,,,,,,,,,,,,,FF,,,,,,,,0.517,,,,,,,,,,,,,,,,,,,,,,6103494acb49b118fdcf2db5,61036bba84ad83fd30723a57,2021-07-29_22h04.04.080,Simcolourproject_2stim_asymm_v5,2020.2.10,MacIntel,60,61025ae37ef11b136ea224fe,,,,,,,,,1491,27,50,1,0,0,response1disk,,7,18,6,1,0,0,rectangle,18,6,1,0,0,18,6,1,0,0,0,131,131,25,1,,,,,,,,
,,,,,,,,,,,,,FF,,,,,,,,0.783,,,,,,,,,,,,,,,,,,,,,,6103494acb49b118fdcf2db5,61036bba84ad83fd30723a57,2021-07-29_22h04.04.080,Simcolourproject_2stim_asymm_v5,2020.2.10,MacIntel,60,61025ae37ef11b136ea224fe,,,,,,,,,1013,58,39,1,0,0,response1disk,,6,17,7,1,0,0,rectangle,17,7,1,0,0,17,7,1,0,0,0,132,132,23,1,,,,,,,,
,,,,,,,,,,,,,FF,,,,,,,,1.132,,,,,,,,,,,,,,,,,,,,,,6103494acb49b118fdcf2db5,61036bba84ad83fd30723a57,2021-07-29_22h04.04.080,Simcolourproject_2stim_asymm_v5,2020.2.10,MacIntel,60,61025ae37ef11b136ea224fe,,,,,,,,,3343,-58,-72,1,0,0,response5disk,,3,-3,8,1,0,0,rectangle,-3,8,1,0,0,-3,8,1,0,0,0,133,133,26,1,,,,,,,,
,,,,,,,,,,,,,FF,,,,,,,,0.834,,,,,,,,,,,,,,,,,,,,,,6103494acb49b118fdcf2db5,61036bba84ad83fd30723a57,2021-07-29_22h04.04.080,Simcolourproject_2stim_asymm_v5,2020.2.10,MacIntel,60,61025ae37ef11b136ea224fe,,,,,,,,,4276,45,-17,1,0,0,response3disk,,5,21,-7,1,0,0,rectangle,21,-7,1,0,0,21,-7,1,0,0,0,134,134,18,1,,,,,,,,
,,,,,,,,,,,,,FF,,,,,,,,0.733,,,,,,,,,,,,,,,,,,,,,,6103494acb49b118fdcf2db5,61036bba84ad83fd30723a57,2021-07-29_22h04.04.080,Simcolourproject_2stim_asymm_v5,2020.2.10,MacIntel,60,61025ae37ef11b136ea224fe,,,,,,,,,869,52,-35,1,0,0,response3disk,,5,19,6,1,0,0,rectangle,19,6,1,0,0,19,6,1,0,0,0,135,135,88,1,,,,,,,,
,,,,,,,,,,,,,FF,,,,,,,,0.6,,,,,,,,,,,,,,,,,,,,,,6103494acb49b118fdcf2db5,61036bba84ad83fd30723a57,2021-07-29_22h04.04.080,Simcolourproject_2stim_asymm_v5,2020.2.10,MacIntel,60,61025ae37ef11b136ea224fe,,,,,,,,,936,50,35,1,0,0,response1disk,,6,5,0,1,0,0,rectangle,5,0,1,0,0,5,0,1,0,0,0,136,136,125,1,,,,,,,,
,,,,,,,,,,,,,FF,,,,,,,,0.784,,,,,,,,,,,,,,,,,,,,,,6103494acb49b118fdcf2db5,61036bba84ad83fd30723a57,2021-07-29_22h04.04.080,Simcolourproject_2stim_asymm_v5,2020.2.10,MacIntel,60,61025ae37ef11b136ea224fe,,,,,,,,,2475,21,42,1,0,0,response1disk,,7,17,9,1,0,0,rectangle,17,9,1,0,0,17,9,1,0,0,0,137,137,158,1,,,,,,,,
,,,,,,,,,,,,,FF,,,,,,,,0.7,,,,,,,,,,,,,,,,,,,,,,6103494acb49b118fdcf2db5,61036bba84ad83fd30723a57,2021-07-29_22h04.04.080,Simcolourproject_2stim_asymm_v5,2020.2.10,MacIntel,60,61025ae37ef11b136ea224fe,,,,,,,,,1554,64,39,1,0,0,response1disk,,6,6,7,1,0,0,rectangle,6,7,1,0,0,6,7,1,0,0,0,138,138,56,1,,,,,,,,
,,,,,,,,,,,,,FF,,,,,,,,0.516,,,,,,,,,,,,,,,,,,,,,,6103494acb49b118fdcf2db5,61036bba84ad83fd30723a57,2021-07-29_22h04.04.080,Simcolourproject_2stim_asymm_v5,2020.2.10,MacIntel,60,61025ae37ef11b136ea224fe,,,,,,,,,1776,49,39,1,0,0,response1disk,,6,9,-3,1,0,0,rectangle,74,-34,1,0,0,16,-6,1,0,0,0,139,139,49,1,,response3disk_3,TRUE,5,5,"[247,273,39,101,216,101,140,229,49,95,97,154,73,263,91,173,174,205,273,275]",1.683,rectangle
,,,,,,,,,,,,,FF,,,,,,,,0.716,,,,,,,,,,,,,,,,,,,,,,6103494acb49b118fdcf2db5,61036bba84ad83fd30723a57,2021-07-29_22h04.04.080,Simcolourproject_2stim_asymm_v5,2020.2.10,MacIntel,60,61025ae37ef11b136ea224fe,,,,,,,,,3893,85,65,1,0,0,response1disk,,6,13,-4,1,0,0,rectangle,13,-4,1,0,0,13,-4,1,0,0,0,140,140,75,1,,,,,,,,
,,,,,,,,,,,,,FF,,,,,,,,1.033,,,,,,,,,,,,,,,,,,,,,,6103494acb49b118fdcf2db5,61036bba84ad83fd30723a57,2021-07-29_22h04.04.080,Simcolourproject_2stim_asymm_v5,2020.2.10,MacIntel,60,61025ae37ef11b136ea224fe,,,,,,,,,1308,-44,-57,1,0,0,response5disk,,3,-8,-9,1,0,0,rectangle,-8,-9,1,0,0,-8,-9,1,0,0,0,141,141,149,1,,,,,,,,
,,,,,,,,,,,,,FF,,,,,,,,0.834,,,,,,,,,,,,,,,,,,,,,,6103494acb49b118fdcf2db5,61036bba84ad83fd30723a57,2021-07-29_22h04.04.080,Simcolourproject_2stim_asymm_v5,2020.2.10,MacIntel,60,61025ae37ef11b136ea224fe,,,,,,,,,3989,25,42,1,0,0,response1disk,,7,2,-6,1,0,0,rectangle,2,-6,1,0,0,2,-6,1,0,0,0,142,142,15,1,,,,,,,,
,,,,,,,,,,,,,FF,,,,,,,,0.85,,,,,,,,,,,,,,,,,,,,,,6103494acb49b118fdcf2db5,61036bba84ad83fd30723a57,2021-07-29_22h04.04.080,Simcolourproject_2stim_asymm_v5,2020.2.10,MacIntel,60,61025ae37ef11b136ea224fe,,,,,,,,,1345,46,45,1,0,0,response1disk,,6,9,-2,1,0,0,rectangle,9,-2,1,0,0,9,-2,1,0,0,0,143,143,108,1,,,,,,,,
,,,,,,,,,,,,,FF,,,,,,,,0.782,,,,,,,,,,,,,,,,,,,,,,6103494acb49b118fdcf2db5,61036bba84ad83fd30723a57,2021-07-29_22h04.04.080,Simcolourproject_2stim_asymm_v5,2020.2.10,MacIntel,60,61025ae37ef11b136ea224fe,,,,,,,,,378,52,-32,1,0,0,response3disk,,5,26,-14,1,0,0,rectangle,26,-14,1,0,0,26,-14,1,0,0,0,144,144,78,1,,,,,,,,
,,,,,,,,,,,,,FF,,,,,,,,1.184,,,,,,,,,,,,,,,,,,,,,,6103494acb49b118fdcf2db5,61036bba84ad83fd30723a57,2021-07-29_22h04.04.080,Simcolourproject_2stim_asymm_v5,2020.2.10,MacIntel,60,61025ae37ef11b136ea224fe,,,,,,,,,2643,44,-23,1,0,0,response3disk,,5,-15,15,1,0,0,rectangle,-15,15,1,0,0,-15,15,1,0,0,0,145,145,85,1,,,,,,,,
,,,,,,,,,,,,,FF,,,,,,,,0.55,,,,,,,,,,,,,,,,,,,,,,6103494acb49b118fdcf2db5,61036bba84ad83fd30723a57,2021-07-29_22h04.04.080,Simcolourproject_2stim_asymm_v5,2020.2.10,MacIntel,60,61025ae37ef11b136ea224fe,,,,,,,,,2405,22,66,1,0,0,response1disk,,7,10,-17,1,0,0,rectangle,10,-17,1,0,0,10,-17,1,0,0,0,146,146,91,1,,,,,,,,
,,,,,,,,,,,,,FF,,,,,,,,0.668,,,,,,,,,,,,,,,,,,,,,,6103494acb49b118fdcf2db5,61036bba84ad83fd30723a57,2021-07-29_22h04.04.080,Simcolourproject_2stim_asymm_v5,2020.2.10,MacIntel,60,61025ae37ef11b136ea224fe,,,,,,,,,538,46,-26,1,0,0,response3disk,,5,7,-2,1,0,0,rectangle,7,-2,1,0,0,7,-2,1,0,0,0,147,147,119,1,,,,,,,,
,,,,,,,,,,,,,FF,,,,,,,,1.002,,,,,,,,,,,,,,,,,,,,,,6103494acb49b118fdcf2db5,61036bba84ad83fd30723a57,2021-07-29_22h04.04.080,Simcolourproject_2stim_asymm_v5,2020.2.10,MacIntel,60,61025ae37ef11b136ea224fe,,,,,,,,,1522,-45,-49,1,0,0,response5disk,,3,0,-4,1,0,0,rectangle,0,-4,1,0,0,0,-4,1,0,0,0,148,148,141,1,,,,,,,,
,,,,,,,,,,,,,FF,,,,,,,,0.999,,,,,,,,,,,,,,,,,,,,,,6103494acb49b118fdcf2db5,61036bba84ad83fd30723a57,2021-07-29_22h04.04.080,Simcolourproject_2stim_asymm_v5,2020.2.10,MacIntel,60,61025ae37ef11b136ea224fe,,,,,,,,,2473,37,-33,1,0,0,response3disk,,5,23,-7,1,0,0,rectangle,23,-7,1,0,0,23,-7,1,0,0,0,149,149,57,1,,,,,,,,
,,,,,,,,,,,,,FF,,,,,,,,0.7,,,,,,,,,,,,,,,,,,,,,,6103494acb49b118fdcf2db5,61036bba84ad83fd30723a57,2021-07-29_22h04.04.080,Simcolourproject_2stim_asymm_v5,2020.2.10,MacIntel,60,61025ae37ef11b136ea224fe,,,,,,,,,3739,41,47,1,0,0,response1disk,,7,25,11,1,0,0,rectangle,25,11,1,0,0,25,11,1,0,0,0,150,150,61,1,,,,,,,,
,,,,,,,,,,,,,FF,,,,,,,,1.033,,,,,,,,,,,,,,,,,,,,,,6103494acb49b118fdcf2db5,61036bba84ad83fd30723a57,2021-07-29_22h04.04.080,Simcolourproject_2stim_asymm_v5,2020.2.10,MacIntel,60,61025ae37ef11b136ea224fe,,,,,,,,,1594,40,62,1,0,0,response1disk,,7,20,13,1,0,0,rectangle,20,13,1,0,0,20,13,1,0,0,0,151,151,42,1,,,,,,,,
,,,,,,,,,,,,,FF,,,,,,,,0.8,,,,,,,,,,,,,,,,,,,,,,6103494acb49b118fdcf2db5,61036bba84ad83fd30723a57,2021-07-29_22h04.04.080,Simcolourproject_2stim_asymm_v5,2020.2.10,MacIntel,60,61025ae37ef11b136ea224fe,,,,,,,,,2521,27,57,1,0,0,response1disk,,7,19,12,1,0,0,rectangle,19,12,1,0,0,19,12,1,0,0,0,152,152,86,1,,,,,,,,
,,,,,,,,,,,,,FF,,,,,,,,0.915,,,,,,,,,,,,,,,,,,,,,,6103494acb49b118fdcf2db5,61036bba84ad83fd30723a57,2021-07-29_22h04.04.080,Simcolourproject_2stim_asymm_v5,2020.2.10,MacIntel,60,61025ae37ef11b136ea224fe,,,,,,,,,909,42,-16,1,0,0,response3disk,,5,29,-5,1,0,0,rectangle,40,-70,1,0,0,21,-7,1,0,0,0,153,153,10,1,,response3disk_3,TRUE,4,4,"[247,273,39,101,216,101,140,229,49,95,97,154,73,263,91,173,174,205,273,275]",1.366,rectangle
,,,,,,,,,,,,,FF,,,,,,,,1.018,,,,,,,,,,,,,,,,,,,,,,6103494acb49b118fdcf2db5,61036bba84ad83fd30723a57,2021-07-29_22h04.04.080,Simcolourproject_2stim_asymm_v5,2020.2.10,MacIntel,60,61025ae37ef11b136ea224fe,,,,,,,,,6,55,-26,1,0,0,response3disk,,5,20,-14,1,0,0,rectangle,20,-14,1,0,0,20,-14,1,0,0,0,154,154,40,1,,,,,,,,
,,,,,,,,,,,,,FF,,,,,,,,1.617,,,,,,,,,,,,,,,,,,,,,,6103494acb49b118fdcf2db5,61036bba84ad83fd30723a57,2021-07-29_22h04.04.080,Simcolourproject_2stim_asymm_v5,2020.2.10,MacIntel,60,61025ae37ef11b136ea224fe,,,,,,,,,2532,40,-59,1,0,0,response3disk,,4,19,-2,1,0,0,rectangle,19,-2,1,0,0,19,-2,1,0,0,0,155,155,131,1,,,,,,,,
,,,,,,,,,,,,,FF,,,,,,,,0.883,,,,,,,,,,,,,,,,,,,,,,6103494acb49b118fdcf2db5,61036bba84ad83fd30723a57,2021-07-29_22h04.04.080,Simcolourproject_2stim_asymm_v5,2020.2.10,MacIntel,60,61025ae37ef11b136ea224fe,,,,,,,,,386,47,38,1,0,0,response1disk,,6,8,7,1,0,0,rectangle,8,7,1,0,0,8,7,1,0,0,0,156,156,142,1,,,,,,,,
,,,,,,,,,,,,,FF,,,,,,,,0.534,,,,,,,,,,,,,,,,,,,,,,6103494acb49b118fdcf2db5,61036bba84ad83fd30723a57,2021-07-29_22h04.04.080,Simcolourproject_2stim_asymm_v5,2020.2.10,MacIntel,60,61025ae37ef11b136ea224fe,,,,,,,,,1921,48,36,1,0,0,response1disk,,6,15,13,1,0,0,rectangle,15,13,1,0,0,15,13,1,0,0,0,157,157,132,1,,,,,,,,
,,,,,,,,,,,,,FF,,,,,,,,0.7,,,,,,,,,,,,,,,,,,,,,,6103494acb49b118fdcf2db5,61036bba84ad83fd30723a57,2021-07-29_22h04.04.080,Simcolourproject_2stim_asymm_v5,2020.2.10,MacIntel,60,61025ae37ef11b136ea224fe,,,,,,,,,1686,51,37,1,0,0,response1disk,,6,13,7,1,0,0,rectangle,13,7,1,0,0,13,7,1,0,0,0,158,158,33,1,,,,,,,,
,,,,,,,,,,,,,FF,,,,,,,,0.666,,,,,,,,,,,,,,,,,,,,,,6103494acb49b118fdcf2db5,61036bba84ad83fd30723a57,2021-07-29_22h04.04.080,Simcolourproject_2stim_asymm_v5,2020.2.10,MacIntel,60,61025ae37ef11b136ea224fe,,,,,,,,,1770,63,44,1,0,0,response1disk,,6,26,7,1,0,0,rectangle,26,7,1,0,0,26,7,1,0,0,0,159,159,118,1,,,,,,,,
,,,,,,,,,,,,,FF,,,,,,,,0.583,,,,,,,,,,,,,,,,,,,,,,6103494acb49b118fdcf2db5,61036bba84ad83fd30723a57,2021-07-29_22h04.04.080,Simcolourproject_2stim_asymm_v5,2020.2.10,MacIntel,60,61025ae37ef11b136ea224fe,,,,,,,,,3095,68,32,1,0,0,response1disk,,6,18,-5,1,0,0,rectangle,18,-5,1,0,0,18,-5,1,0,0,1,0,160,121,1,,,,,,,,
,,,,,,,,,,,,,FF,,,,,,,,0.716,,,,,,,,,,,,,,,,,,,,,,6103494acb49b118fdcf2db5,61036bba84ad83fd30723a57,2021-07-29_22h04.04.080,Simcolourproject_2stim_asymm_v5,2020.2.10,MacIntel,60,61025ae37ef11b136ea224fe,,,,,,,,,1160,27,41,1,0,0,response1disk,,7,21,-1,1,0,0,rectangle,21,-1,1,0,0,21,-1,1,0,0,1,1,161,116,1,,,,,,,,
,,,,,,,,,,,,,FF,,,,,,,,1.116,,,,,,,,,,,,,,,,,,,,,,6103494acb49b118fdcf2db5,61036bba84ad83fd30723a57,2021-07-29_22h04.04.080,Simcolourproject_2stim_asymm_v5,2020.2.10,MacIntel,60,61025ae37ef11b136ea224fe,,,,,,,,,1376,22,-51,1,0,0,response3disk,,4,22,-17,1,0,0,rectangle,22,-17,1,0,0,22,-17,1,0,0,1,2,162,17,1,,,,,,,,
,,,,,,,,,,,,,FF,,,,,,,,0.833,,,,,,,,,,,,,,,,,,,,,,6103494acb49b118fdcf2db5,61036bba84ad83fd30723a57,2021-07-29_22h04.04.080,Simcolourproject_2stim_asymm_v5,2020.2.10,MacIntel,60,61025ae37ef11b136ea224fe,,,,,,,,,2160,-31,45,1,0,0,response7disk,,0,-18,3,1,0,0,rectangle,-18,3,1,0,0,-18,3,1,0,0,1,3,163,55,1,,,,,,,,
,,,,,,,,,,,,,FF,,,,,,,,0.716,,,,,,,,,,,,,,,,,,,,,,6103494acb49b118fdcf2db5,61036bba84ad83fd30723a57,2021-07-29_22h04.04.080,Simcolourproject_2stim_asymm_v5,2020.2.10,MacIntel,60,61025ae37ef11b136ea224fe,,,,,,,,,2967,26,78,1,0,0,response1disk,,7,9,3,1,0,0,rectangle,9,3,1,0,0,9,3,1,0,0,1,4,164,100,1,,,,,,,,
,,,,,,,,,,,,,FF,,,,,,,,1.166,,,,,,,,,,,,,,,,,,,,,,6103494acb49b118fdcf2db5,61036bba84ad83fd30723a57,2021-07-29_22h04.04.080,Simcolourproject_2stim_asymm_v5,2020.2.10,MacIntel,60,61025ae37ef11b136ea224fe,,,,,,,,,4146,-58,27,1,0,0,response7disk,,1,-13,9,1,0,0,rectangle,-13,9,1,0,0,-13,9,1,0,0,1,5,165,104,1,,,,,,,,
,,,,,,,,,,,,,FF,,,,,,,,0.65,,,,,,,,,,,,,,,,,,,,,,6103494acb49b118fdcf2db5,61036bba84ad83fd30723a57,2021-07-29_22h04.04.080,Simcolourproject_2stim_asymm_v5,2020.2.10,MacIntel,60,61025ae37ef11b136ea224fe,,,,,,,,,2280,26,71,1,0,0,response1disk,,7,10,8,1,0,0,rectangle,10,8,1,0,0,10,8,1,0,0,1,6,166,142,1,,,,,,,,
,,,,,,,,,,,,,FF,,,,,,,,0.732,,,,,,,,,,,,,,,,,,,,,,6103494acb49b118fdcf2db5,61036bba84ad83fd30723a57,2021-07-29_22h04.04.080,Simcolourproject_2stim_asymm_v5,2020.2.10,MacIntel,60,61025ae37ef11b136ea224fe,,,,,,,,,1327,32,75,1,0,0,response1disk,,7,23,11,1,0,0,rectangle,23,11,1,0,0,23,11,1,0,0,1,7,167,145,1,,,,,,,,
,,,,,,,,,,,,,FF,,,,,,,,0.883,,,,,,,,,,,,,,,,,,,,,,6103494acb49b118fdcf2db5,61036bba84ad83fd30723a57,2021-07-29_22h04.04.080,Simcolourproject_2stim_asymm_v5,2020.2.10,MacIntel,60,61025ae37ef11b136ea224fe,,,,,,,,,4054,-37,-62,1,0,0,response5disk,,3,3,5,1,0,0,rectangle,3,5,1,0,0,3,5,1,0,0,1,8,168,112,1,,,,,,,,
,,,,,,,,,,,,,FF,,,,,,,,0.866,,,,,,,,,,,,,,,,,,,,,,6103494acb49b118fdcf2db5,61036bba84ad83fd30723a57,2021-07-29_22h04.04.080,Simcolourproject_2stim_asymm_v5,2020.2.10,MacIntel,60,61025ae37ef11b136ea224fe,,,,,,,,,741,25,-44,1,0,0,response3disk,,4,12,-2,1,0,0,rectangle,12,-2,1,0,0,12,-2,1,0,0,1,9,169,22,1,,,,,,,,
,,,,,,,,,,,,,FF,,,,,,,,0.65,,,,,,,,,,,,,,,,,,,,,,6103494acb49b118fdcf2db5,61036bba84ad83fd30723a57,2021-07-29_22h04.04.080,Simcolourproject_2stim_asymm_v5,2020.2.10,MacIntel,60,61025ae37ef11b136ea224fe,,,,,,,,,603,30,44,1,0,0,response1disk,,7,12,6,1,0,0,rectangle,12,6,1,0,0,12,6,1,0,0,1,10,170,134,1,,,,,,,,
,,,,,,,,,,,,,FF,,,,,,,,0.751,,,,,,,,,,,,,,,,,,,,,,6103494acb49b118fdcf2db5,61036bba84ad83fd30723a57,2021-07-29_22h04.04.080,Simcolourproject_2stim_asymm_v5,2020.2.10,MacIntel,60,61025ae37ef11b136ea224fe,,,,,,,,,2938,30,54,1,0,0,response1disk,,7,15,9,1,0,0,rectangle,15,9,1,0,0,15,9,1,0,0,1,11,171,4,1,,,,,,,,
,,,,,,,,,,,,,FF,,,,,,,,1.184,,,,,,,,,,,,,,,,,,,,,,6103494acb49b118fdcf2db5,61036bba84ad83fd30723a57,2021-07-29_22h04.04.080,Simcolourproject_2stim_asymm_v5,2020.2.10,MacIntel,60,61025ae37ef11b136ea224fe,,,,,,,,,2548,-34,-57,1,0,0,response5disk,,3,-8,-2,1,0,0,rectangle,39,91,1,0,0,9,11,1,0,0,1,12,172,137,1,,response1disk_3,TRUE,7,7,"[247,273,39,101,216,101,140,229,49,95,97,154,73,263,91,173,174,205,273,275]",1.616,rectangle
,,,,,,,,,,,,,FF,,,,,,,,1.001,,,,,,,,,,,,,,,,,,,,,,6103494acb49b118fdcf2db5,61036bba84ad83fd30723a57,2021-07-29_22h04.04.080,Simcolourproject_2stim_asymm_v5,2020.2.10,MacIntel,60,61025ae37ef11b136ea224fe,,,,,,,,,1063,-49,-67,1,0,0,response5disk,,3,-10,10,1,0,0,rectangle,-39,73,1,0,0,-10,17,1,0,0,1,13,173,156,1,,response7disk_3,TRUE,0,0,"[247,273,39,101,216,101,140,229,49,95,97,154,73,263,91,173,174,205,273,275]",1.817,rectangle
,,,,,,,,,,,,,FF,,,,,,,,0.835,,,,,,,,,,,,,,,,,,,,,,6103494acb49b118fdcf2db5,61036bba84ad83fd30723a57,2021-07-29_22h04.04.080,Simcolourproject_2stim_asymm_v5,2020.2.10,MacIntel,60,61025ae37ef11b136ea224fe,,,,,,,,,709,34,69,1,0,0,response1disk,,7,11,9,1,0,0,rectangle,11,9,1,0,0,11,9,1,0,0,1,14,174,66,1,,,,,,,,
,,,,,,,,,,,,,FF,,,,,,,,0.767,,,,,,,,,,,,,,,,,,,,,,6103494acb49b118fdcf2db5,61036bba84ad83fd30723a57,2021-07-29_22h04.04.080,Simcolourproject_2stim_asymm_v5,2020.2.10,MacIntel,60,61025ae37ef11b136ea224fe,,,,,,,,,2392,33,63,1,0,0,response1disk,,7,16,-2,1,0,0,rectangle,16,-2,1,0,0,16,-2,1,0,0,1,15,175,49,1,,,,,,,,
,,,,,,,,,,,,,FF,,,,,,,,0.665,,,,,,,,,,,,,,,,,,,,,,6103494acb49b118fdcf2db5,61036bba84ad83fd30723a57,2021-07-29_22h04.04.080,Simcolourproject_2stim_asymm_v5,2020.2.10,MacIntel,60,61025ae37ef11b136ea224fe,,,,,,,,,693,-24,-76,1,0,0,response5disk,,3,7,-14,1,0,0,rectangle,7,-14,1,0,0,7,-14,1,0,0,1,16,176,41,1,,,,,,,,
,,,,,,,,,,,,,FF,,,,,,,,0.615,,,,,,,,,,,,,,,,,,,,,,6103494acb49b118fdcf2db5,61036bba84ad83fd30723a57,2021-07-29_22h04.04.080,Simcolourproject_2stim_asymm_v5,2020.2.10,MacIntel,60,61025ae37ef11b136ea224fe,,,,,,,,,3412,26,31,1,0,0,response1disk,,7,14,-3,1,0,0,rectangle,14,-3,1,0,0,14,-3,1,0,0,1,17,177,117,1,,,,,,,,
,,,,,,,,,,,,,FF,,,,,,,,0.701,,,,,,,,,,,,,,,,,,,,,,6103494acb49b118fdcf2db5,61036bba84ad83fd30723a57,2021-07-29_22h04.04.080,Simcolourproject_2stim_asymm_v5,2020.2.10,MacIntel,60,61025ae37ef11b136ea224fe,,,,,,,,,952,44,-25,1,0,0,response3disk,,5,20,-5,1,0,0,rectangle,20,-5,1,0,0,20,-5,1,0,0,1,18,178,138,1,,,,,,,,
,,,,,,,,,,,,,FF,,,,,,,,1.25,,,,,,,,,,,,,,,,,,,,,,6103494acb49b118fdcf2db5,61036bba84ad83fd30723a57,2021-07-29_22h04.04.080,Simcolourproject_2stim_asymm_v5,2020.2.10,MacIntel,60,61025ae37ef11b136ea224fe,,,,,,,,,1820,-65,-41,1,0,0,response5disk,,2,5,-4,1,0,0,rectangle,5,-4,1,0,0,5,-4,1,0,0,1,19,179,106,1,,,,,,,,
,,,,,,,,,,,,,FF,,,,,,,,0.715,,,,,,,,,,,,,,,,,,,,,,6103494acb49b118fdcf2db5,61036bba84ad83fd30723a57,2021-07-29_22h04.04.080,Simcolourproject_2stim_asymm_v5,2020.2.10,MacIntel,60,61025ae37ef11b136ea224fe,,,,,,,,,4096,-61,-33,1,0,0,response5disk,,2,-19,2,1,0,0,rectangle,-19,2,1,0,0,-19,2,1,0,0,1,20,180,153,1,,,,,,,,
,,,,,,,,,,,,,FF,,,,,,,,0.717,,,,,,,,,,,,,,,,,,,,,,6103494acb49b118fdcf2db5,61036bba84ad83fd30723a57,2021-07-29_22h04.04.080,Simcolourproject_2stim_asymm_v5,2020.2.10,MacIntel,60,61025ae37ef11b136ea224fe,,,,,,,,,3141,-52,26,1,0,0,response7disk,,1,-13,11,1,0,0,rectangle,-13,11,1,0,0,-13,11,1,0,0,1,21,181,139,1,,,,,,,,
,,,,,,,,,,,,,FF,,,,,,,,0.699,,,,,,,,,,,,,,,,,,,,,,6103494acb49b118fdcf2db5,61036bba84ad83fd30723a57,2021-07-29_22h04.04.080,Simcolourproject_2stim_asymm_v5,2020.2.10,MacIntel,60,61025ae37ef11b136ea224fe,,,,,,,,,2689,26,58,1,0,0,response1disk,,7,3,5,1,0,0,rectangle,3,5,1,0,0,3,5,1,0,0,1,22,182,82,1,,,,,,,,
,,,,,,,,,,,,,FF,,,,,,,,0.682,,,,,,,,,,,,,,,,,,,,,,6103494acb49b118fdcf2db5,61036bba84ad83fd30723a57,2021-07-29_22h04.04.080,Simcolourproject_2stim_asymm_v5,2020.2.10,MacIntel,60,61025ae37ef11b136ea224fe,,,,,,,,,3909,-43,22,1,0,0,response7disk,,1,-4,2,1,0,0,rectangle,-4,2,1,0,0,-4,2,1,0,0,1,23,183,150,1,,,,,,,,
,,,,,,,,,,,,,FF,,,,,,,,0.917,,,,,,,,,,,,,,,,,,,,,,6103494acb49b118fdcf2db5,61036bba84ad83fd30723a57,2021-07-29_22h04.04.080,Simcolourproject_2stim_asymm_v5,2020.2.10,MacIntel,60,61025ae37ef11b136ea224fe,,,,,,,,,1525,-29,-68,1,0,0,response5disk,,3,-7,-11,1,0,0,rectangle,-7,-11,1,0,0,-7,-11,1,0,0,1,24,184,8,1,,,,,,,,
,,,,,,,,,,,,,FF,,,,,,,,0.918,,,,,,,,,,,,,,,,,,,,,,6103494acb49b118fdcf2db5,61036bba84ad83fd30723a57,2021-07-29_22h04.04.080,Simcolourproject_2stim_asymm_v5,2020.2.10,MacIntel,60,61025ae37ef11b136ea224fe,,,,,,,,,3200,-31,-48,1,0,0,response5disk,,3,-13,-1,1,0,0,rectangle,-13,-1,1,0,0,-13,-1,1,0,0,1,25,185,97,1,,,,,,,,
,,,,,,,,,,,,,FF,,,,,,,,0.833,,,,,,,,,,,,,,,,,,,,,,6103494acb49b118fdcf2db5,61036bba84ad83fd30723a57,2021-07-29_22h04.04.080,Simcolourproject_2stim_asymm_v5,2020.2.10,MacIntel,60,61025ae37ef11b136ea224fe,,,,,,,,,1220,42,-60,1,0,0,response3disk,,4,33,1,1,0,0,rectangle,33,1,1,0,0,33,1,1,0,0,1,26,186,151,1,,,,,,,,
,,,,,,,,,,,,,FF,,,,,,,,0.799,,,,,,,,,,,,,,,,,,,,,,6103494acb49b118fdcf2db5,61036bba84ad83fd30723a57,2021-07-29_22h04.04.080,Simcolourproject_2stim_asymm_v5,2020.2.10,MacIntel,60,61025ae37ef11b136ea224fe,,,,,,,,,4083,54,-48,1,0,0,response3disk,,5,16,-8,1,0,0,rectangle,16,-8,1,0,0,16,-8,1,0,0,1,27,187,103,1,,,,,,,,
,,,,,,,,,,,,,FF,,,,,,,,0.884,,,,,,,,,,,,,,,,,,,,,,6103494acb49b118fdcf2db5,61036bba84ad83fd30723a57,2021-07-29_22h04.04.080,Simcolourproject_2stim_asymm_v5,2020.2.10,MacIntel,60,61025ae37ef11b136ea224fe,,,,,,,,,3838,47,-28,1,0,0,response3disk,,5,0,1,1,0,0,rectangle,0,1,1,0,0,0,1,1,0,0,1,28,188,80,1,,,,,,,,
,,,,,,,,,,,,,FF,,,,,,,,0.917,,,,,,,,,,,,,,,,,,,,,,6103494acb49b118fdcf2db5,61036bba84ad83fd30723a57,2021-07-29_22h04.04.080,Simcolourproject_2stim_asymm_v5,2020.2.10,MacIntel,60,61025ae37ef11b136ea224fe,,,,,,,,,729,34,-56,1,0,0,response3disk,,4,9,-7,1,0,0,rectangle,9,-7,1,0,0,9,-7,1,0,0,1,29,189,85,1,,,,,,,,
,,,,,,,,,,,,,FF,,,,,,,,1.467,,,,,,,,,,,,,,,,,,,,,,6103494acb49b118fdcf2db5,61036bba84ad83fd30723a57,2021-07-29_22h04.04.080,Simcolourproject_2stim_asymm_v5,2020.2.10,MacIntel,60,61025ae37ef11b136ea224fe,,,,,,,,,2732,57,-19,1,0,0,response3disk,,5,16,5,1,0,0,rectangle,16,5,1,0,0,16,5,1,0,0,1,30,190,144,1,,,,,,,,
,,,,,,,,,,,,,FF,,,,,,,,0.701,,,,,,,,,,,,,,,,,,,,,,6103494acb49b118fdcf2db5,61036bba84ad83fd30723a57,2021-07-29_22h04.04.080,Simcolourproject_2stim_asymm_v5,2020.2.10,MacIntel,60,61025ae37ef11b136ea224fe,,,,,,,,,2591,62,33,1,0,0,response1disk,,6,9,0,1,0,0,rectangle,9,0,1,0,0,9,0,1,0,0,1,31,191,115,1,,,,,,,,
,,,,,,,,,,,,,FF,,,,,,,,0.567,,,,,,,,,,,,,,,,,,,,,,6103494acb49b118fdcf2db5,61036bba84ad83fd30723a57,2021-07-29_22h04.04.080,Simcolourproject_2stim_asymm_v5,2020.2.10,MacIntel,60,61025ae37ef11b136ea224fe,,,,,,,,,3310,27,49,1,0,0,response1disk,,7,7,-14,1,0,0,rectangle,7,-14,1,0,0,7,-14,1,0,0,1,32,192,23,1,,,,,,,,
,,,,,,,,,,,,,FF,,,,,,,,0.583,,,,,,,,,,,,,,,,,,,,,,6103494acb49b118fdcf2db5,61036bba84ad83fd30723a57,2021-07-29_22h04.04.080,Simcolourproject_2stim_asymm_v5,2020.2.10,MacIntel,60,61025ae37ef11b136ea224fe,,,,,,,,,1919,40,67,1,0,0,response1disk,,7,30,15,1,0,0,rectangle,30,15,1,0,0,30,15,1,0,0,1,33,193,71,1,,,,,,,,
,,,,,,,,,,,,,FF,,,,,,,,0.784,,,,,,,,,,,,,,,,,,,,,,6103494acb49b118fdcf2db5,61036bba84ad83fd30723a57,2021-07-29_22h04.04.080,Simcolourproject_2stim_asymm_v5,2020.2.10,MacIntel,60,61025ae37ef11b136ea224fe,,,,,,,,,1757,-32,-58,1,0,0,response5disk,,3,-14,16,1,0,0,rectangle,-14,16,1,0,0,-14,16,1,0,0,1,34,194,149,1,,,,,,,,
,,,,,,,,,,,,,FF,,,,,,,,0.617,,,,,,,,,,,,,,,,,,,,,,6103494acb49b118fdcf2db5,61036bba84ad83fd30723a57,2021-07-29_22h04.04.080,Simcolourproject_2stim_asymm_v5,2020.2.10,MacIntel,60,61025ae37ef11b136ea224fe,,,,,,,,,2987,-40,-55,1,0,0,response5disk,,3,-27,-8,1,0,0,rectangle,-27,-8,1,0,0,-27,-8,1,0,0,1,35,195,58,1,,,,,,,,
,,,,,,,,,,,,,FF,,,,,,,,0.583,,,,,,,,,,,,,,,,,,,,,,6103494acb49b118fdcf2db5,61036bba84ad83fd30723a57,2021-07-29_22h04.04.080,Simcolourproject_2stim_asymm_v5,2020.2.10,MacIntel,60,61025ae37ef11b136ea224fe,,,,,,,,,3914,-44,-69,1,0,0,response5disk,,3,-19,-10,1,0,0,rectangle,-19,-10,1,0,0,-19,-10,1,0,0,1,36,196,26,1,,,,,,,,
,,,,,,,,,,,,,FF,,,,,,,,0.818,,,,,,,,,,,,,,,,,,,,,,6103494acb49b118fdcf2db5,61036bba84ad83fd30723a57,2021-07-29_22h04.04.080,Simcolourproject_2stim_asymm_v5,2020.2.10,MacIntel,60,61025ae37ef11b136ea224fe,,,,,,,,,2397,78,41,1,0,0,response1disk,,6,14,6,1,0,0,rectangle,14,6,1,0,0,14,6,1,0,0,1,37,197,107,1,,,,,,,,
,,,,,,,,,,,,,FF,,,,,,,,0.45,,,,,,,,,,,,,,,,,,,,,,6103494acb49b118fdcf2db5,61036bba84ad83fd30723a57,2021-07-29_22h04.04.080,Simcolourproject_2stim_asymm_v5,2020.2.10,MacIntel,60,61025ae37ef11b136ea224fe,,,,,,,,,2004,55,41,1,0,0,response1disk,,6,18,13,1,0,0,rectangle,18,13,1,0,0,18,13,1,0,0,1,38,198,52,1,,,,,,,,
,,,,,,,,,,,,,FF,,,,,,,,0.483,,,,,,,,,,,,,,,,,,,,,,6103494acb49b118fdcf2db5,61036bba84ad83fd30723a57,2021-07-29_22h04.04.080,Simcolourproject_2stim_asymm_v5,2020.2.10,MacIntel,60,61025ae37ef11b136ea224fe,,,,,,,,,2127,36,51,1,0,0,response1disk,,7,25,-6,1,0,0,rectangle,25,-6,1,0,0,25,-6,1,0,0,1,39,199,39,1,,,,,,,,
,,,,,,,,,,,,,FF,,,,,,,,0.484,,,,,,,,,,,,,,,,,,,,,,6103494acb49b118fdcf2db5,61036bba84ad83fd30723a57,2021-07-29_22h04.04.080,Simcolourproject_2stim_asymm_v5,2020.2.10,MacIntel,60,61025ae37ef11b136ea224fe,,,,,,,,,405,39,53,1,0,0,response1disk,,7,25,12,1,0,0,rectangle,25,12,1,0,0,25,12,1,0,0,1,40,200,7,1,,,,,,,,
,,,,,,,,,,,,,FF,,,,,,,,0.717,,,,,,,,,,,,,,,,,,,,,,6103494acb49b118fdcf2db5,61036bba84ad83fd30723a57,2021-07-29_22h04.04.080,Simcolourproject_2stim_asymm_v5,2020.2.10,MacIntel,60,61025ae37ef11b136ea224fe,,,,,,,,,3747,-27,-62,1,0,0,response5disk,,3,-7,-5,1,0,0,rectangle,-7,-5,1,0,0,-7,-5,1,0,0,1,41,201,122,1,,,,,,,,
,,,,,,,,,,,,,FF,,,,,,,,0.766,,,,,,,,,,,,,,,,,,,,,,6103494acb49b118fdcf2db5,61036bba84ad83fd30723a57,2021-07-29_22h04.04.080,Simcolourproject_2stim_asymm_v5,2020.2.10,MacIntel,60,61025ae37ef11b136ea224fe,,,,,,,,,4186,25,-45,1,0,0,response3disk,,4,25,-15,1,0,0,rectangle,25,-15,1,0,0,25,-15,1,0,0,1,42,202,44,1,,,,,,,,
,,,,,,,,,,,,,FF,,,,,,,,0.749,,,,,,,,,,,,,,,,,,,,,,6103494acb49b118fdcf2db5,61036bba84ad83fd30723a57,2021-07-29_22h04.04.080,Simcolourproject_2stim_asymm_v5,2020.2.10,MacIntel,60,61025ae37ef11b136ea224fe,,,,,,,,,828,97,29,1,0,0,response1disk,,6,11,10,1,0,0,rectangle,11,10,1,0,0,11,10,1,0,0,1,43,203,90,1,,,,,,,,
,,,,,,,,,,,,,FF,,,,,,,,0.766,,,,,,,,,,,,,,,,,,,,,,6103494acb49b118fdcf2db5,61036bba84ad83fd30723a57,2021-07-29_22h04.04.080,Simcolourproject_2stim_asymm_v5,2020.2.10,MacIntel,60,61025ae37ef11b136ea224fe,,,,,,,,,2225,36,77,1,0,0,response1disk,,7,11,7,1,0,0,rectangle,73,-28,1,0,0,17,0,1,0,0,1,44,204,81,1,,response3disk_3,TRUE,5,5,"[247,273,39,101,216,101,140,229,49,95,97,154,73,263,91,173,174,205,273,275]",2.216,rectangle
,,,,,,,,,,,,,FF,,,,,,,,1.117,,,,,,,,,,,,,,,,,,,,,,6103494acb49b118fdcf2db5,61036bba84ad83fd30723a57,2021-07-29_22h04.04.080,Simcolourproject_2stim_asymm_v5,2020.2.10,MacIntel,60,61025ae37ef11b136ea224fe,,,,,,,,,2834,-48,-60,1,0,0,response5disk,,3,-9,-2,1,0,0,rectangle,-9,-2,1,0,0,-9,-2,1,0,0,1,45,205,87,1,,,,,,,,
,,,,,,,,,,,,,FF,,,,,,,,0.682,,,,,,,,,,,,,,,,,,,,,,6103494acb49b118fdcf2db5,61036bba84ad83fd30723a57,2021-07-29_22h04.04.080,Simcolourproject_2stim_asymm_v5,2020.2.10,MacIntel,60,61025ae37ef11b136ea224fe,,,,,,,,,2194,61,35,1,0,0,response1disk,,6,-13,-1,1,0,0,rectangle,-13,-1,1,0,0,-13,-1,1,0,0,1,46,206,76,1,,,,,,,,
,,,,,,,,,,,,,FF,,,,,,,,0.617,,,,,,,,,,,,,,,,,,,,,,6103494acb49b118fdcf2db5,61036bba84ad83fd30723a57,2021-07-29_22h04.04.080,Simcolourproject_2stim_asymm_v5,2020.2.10,MacIntel,60,61025ae37ef11b136ea224fe,,,,,,,,,1871,32,56,1,0,0,response1disk,,7,16,-7,1,0,0,rectangle,16,-7,1,0,0,16,-7,1,0,0,1,47,207,18,1,,,,,,,,
,,,,,,,,,,,,,FF,,,,,,,,0.684,,,,,,,,,,,,,,,,,,,,,,6103494acb49b118fdcf2db5,61036bba84ad83fd30723a57,2021-07-29_22h04.04.080,Simcolourproject_2stim_asymm_v5,2020.2.10,MacIntel,60,61025ae37ef11b136ea224fe,,,,,,,,,3570,36,58,1,0,0,response1disk,,7,23,4,1,0,0,rectangle,23,4,1,0,0,23,4,1,0,0,1,48,208,27,1,,,,,,,,
,,,,,,,,,,,,,FF,,,,,,,,0.9,,,,,,,,,,,,,,,,,,,,,,6103494acb49b118fdcf2db5,61036bba84ad83fd30723a57,2021-07-29_22h04.04.080,Simcolourproject_2stim_asymm_v5,2020.2.10,MacIntel,60,61025ae37ef11b136ea224fe,,,,,,,,,1766,80,32,1,0,0,response1disk,,6,23,10,1,0,0,rectangle,23,10,1,0,0,23,10,1,0,0,1,49,209,12,1,,,,,,,,
,,,,,,,,,,,,,FF,,,,,,,,0.617,,,,,,,,,,,,,,,,,,,,,,6103494acb49b118fdcf2db5,61036bba84ad83fd30723a57,2021-07-29_22h04.04.080,Simcolourproject_2stim_asymm_v5,2020.2.10,MacIntel,60,61025ae37ef11b136ea224fe,,,,,,,,,2377,66,41,1,0,0,response1disk,,6,23,11,1,0,0,rectangle,23,11,1,0,0,23,11,1,0,0,1,50,210,68,1,,,,,,,,
,,,,,,,,,,,,,FF,,,,,,,,1.099,,,,,,,,,,,,,,,,,,,,,,6103494acb49b118fdcf2db5,61036bba84ad83fd30723a57,2021-07-29_22h04.04.080,Simcolourproject_2stim_asymm_v5,2020.2.10,MacIntel,60,61025ae37ef11b136ea224fe,,,,,,,,,951,67,-23,1,0,0,response3disk,,5,35,-1,1,0,0,rectangle,35,-1,1,0,0,35,-1,1,0,0,1,51,211,123,1,,,,,,,,
,,,,,,,,,,,,,FF,,,,,,,,0.816,,,,,,,,,,,,,,,,,,,,,,6103494acb49b118fdcf2db5,61036bba84ad83fd30723a57,2021-07-29_22h04.04.080,Simcolourproject_2stim_asymm_v5,2020.2.10,MacIntel,60,61025ae37ef11b136ea224fe,,,,,,,,,1735,-48,-46,1,0,0,response5disk,,2,0,-5,1,0,0,rectangle,0,-5,1,0,0,0,-5,1,0,0,1,52,212,88,1,,,,,,,,
,,,,,,,,,,,,,FF,,,,,,,,0.934,,,,,,,,,,,,,,,,,,,,,,6103494acb49b118fdcf2db5,61036bba84ad83fd30723a57,2021-07-29_22h04.04.080,Simcolourproject_2stim_asymm_v5,2020.2.10,MacIntel,60,61025ae37ef11b136ea224fe,,,,,,,,,4127,-50,-64,1,0,0,response5disk,,3,-21,0,1,0,0,rectangle,-21,0,1,0,0,-21,0,1,0,0,1,53,213,45,1,,,,,,,,
,,,,,,,,,,,,,FF,,,,,,,,0.733,,,,,,,,,,,,,,,,,,,,,,6103494acb49b118fdcf2db5,61036bba84ad83fd30723a57,2021-07-29_22h04.04.080,Simcolourproject_2stim_asymm_v5,2020.2.10,MacIntel,60,61025ae37ef11b136ea224fe,,,,,,,,,2491,46,36,1,0,0,response1disk,,6,21,10,1,0,0,rectangle,21,10,1,0,0,21,10,1,0,0,1,54,214,40,1,,,,,,,,
,,,,,,,,,,,,,FF,,,,,,,,0.716,,,,,,,,,,,,,,,,,,,,,,6103494acb49b118fdcf2db5,61036bba84ad83fd30723a57,2021-07-29_22h04.04.080,Simcolourproject_2stim_asymm_v5,2020.2.10,MacIntel,60,61025ae37ef11b136ea224fe,,,,,,,,,1288,57,32,1,0,0,response1disk,,6,16,6,1,0,0,rectangle,-77,48,1,0,0,-29,-1,1,0,0,1,55,215,95,1,,response7disk_3,TRUE,1,1,"[247,273,39,101,216,101,140,229,49,95,97,154,73,263,91,173,174,205,273,275]",1.3,rectangle
,,,,,,,,,,,,,FF,,,,,,,,0.784,,,,,,,,,,,,,,,,,,,,,,6103494acb49b118fdcf2db5,61036bba84ad83fd30723a57,2021-07-29_22h04.04.080,Simcolourproject_2stim_asymm_v5,2020.2.10,MacIntel,60,61025ae37ef11b136ea224fe,,,,,,,,,455,-71,54,1,0,0,response7disk,,1,-21,16,1,0,0,rectangle,-21,16,1,0,0,-21,16,1,0,0,1,56,216,118,1,,,,,,,,
,,,,,,,,,,,,,FF,,,,,,,,0.866,,,,,,,,,,,,,,,,,,,,,,6103494acb49b118fdcf2db5,61036bba84ad83fd30723a57,2021-07-29_22h04.04.080,Simcolourproject_2stim_asymm_v5,2020.2.10,MacIntel,60,61025ae37ef11b136ea224fe,,,,,,,,,1439,74,49,1,0,0,response1disk,,6,-9,17,1,0,0,rectangle,-9,17,1,0,0,-9,17,1,0,0,1,57,217,141,1,,,,,,,,
,,,,,,,,,,,,,FF,,,,,,,,1.117,,,,,,,,,,,,,,,,,,,,,,6103494acb49b118fdcf2db5,61036bba84ad83fd30723a57,2021-07-29_22h04.04.080,Simcolourproject_2stim_asymm_v5,2020.2.10,MacIntel,60,61025ae37ef11b136ea224fe,,,,,,,,,2172,32,-50,1,0,0,response3disk,,4,20,-7,1,0,0,rectangle,20,-7,1,0,0,20,-7,1,0,0,1,58,218,79,1,,,,,,,,
,,,,,,,,,,,,,FF,,,,,,,,0.616,,,,,,,,,,,,,,,,,,,,,,6103494acb49b118fdcf2db5,61036bba84ad83fd30723a57,2021-07-29_22h04.04.080,Simcolourproject_2stim_asymm_v5,2020.2.10,MacIntel,60,61025ae37ef11b136ea224fe,,,,,,,,,3125,67,25,1,0,0,response1disk,,6,8,-1,1,0,0,rectangle,8,-1,1,0,0,8,-1,1,0,0,1,59,219,114,1,,,,,,,,
,,,,,,,,,,,,,FF,,,,,,,,0.833,,,,,,,,,,,,,,,,,,,,,,6103494acb49b118fdcf2db5,61036bba84ad83fd30723a57,2021-07-29_22h04.04.080,Simcolourproject_2stim_asymm_v5,2020.2.10,MacIntel,60,61025ae37ef11b136ea224fe,,,,,,,,,855,66,47,1,0,0,response1disk,,6,20,14,1,0,0,rectangle,20,14,1,0,0,20,14,1,0,0,1,60,220,101,1,,,,,,,,
,,,,,,,,,,,,,FF,,,,,,,,0.717,,,,,,,,,,,,,,,,,,,,,,6103494acb49b118fdcf2db5,61036bba84ad83fd30723a57,2021-07-29_22h04.04.080,Simcolourproject_2stim_asymm_v5,2020.2.10,MacIntel,60,61025ae37ef11b136ea224fe,,,,,,,,,2601,-26,71,1,0,0,response7disk,,0,-13,-4,1,0,0,rectangle,-13,-4,1,0,0,-13,-4,1,0,0,1,61,221,135,1,,,,,,,,
,,,,,,,,,,,,,FF,,,,,,,,0.65,,,,,,,,,,,,,,,,,,,,,,6103494acb49b118fdcf2db5,61036bba84ad83fd30723a57,2021-07-29_22h04.04.080,Simcolourproject_2stim_asymm_v5,2020.2.10,MacIntel,60,61025ae37ef11b136ea224fe,,,,,,,,,4369,-36,46,1,0,0,response7disk,,0,-12,12,1,0,0,rectangle,-12,12,1,0,0,-12,12,1,0,0,1,62,222,110,1,,,,,,,,
,,,,,,,,,,,,,FF,,,,,,,,0.766,,,,,,,,,,,,,,,,,,,,,,6103494acb49b118fdcf2db5,61036bba84ad83fd30723a57,2021-07-29_22h04.04.080,Simcolourproject_2stim_asymm_v5,2020.2.10,MacIntel,60,61025ae37ef11b136ea224fe,,,,,,,,,1840,32,67,1,0,0,response1disk,,7,8,-6,1,0,0,rectangle,8,-6,1,0,0,8,-6,1,0,0,1,63,223,14,1,,,,,,,,
,,,,,,,,,,,,,FF,,,,,,,,0.717,,,,,,,,,,,,,,,,,,,,,,6103494acb49b118fdcf2db5,61036bba84ad83fd30723a57,2021-07-29_22h04.04.080,Simcolourproject_2stim_asymm_v5,2020.2.10,MacIntel,60,61025ae37ef11b136ea224fe,,,,,,,,,3892,33,70,1,0,0,response1disk,,7,13,6,1,0,0,rectangle,13,6,1,0,0,13,6,1,0,0,1,64,224,31,1,,,,,,,,
,,,,,,,,,,,,,FF,,,,,,,,0.516,,,,,,,,,,,,,,,,,,,,,,6103494acb49b118fdcf2db5,61036bba84ad83fd30723a57,2021-07-29_22h04.04.080,Simcolourproject_2stim_asymm_v5,2020.2.10,MacIntel,60,61025ae37ef11b136ea224fe,,,,,,,,,3076,44,79,1,0,0,response1disk,,7,26,14,1,0,0,rectangle,26,14,1,0,0,26,14,1,0,0,1,65,225,3,1,,,,,,,,
,,,,,,,,,,,,,FF,,,,,,,,0.833,,,,,,,,,,,,,,,,,,,,,,6103494acb49b118fdcf2db5,61036bba84ad83fd30723a57,2021-07-29_22h04.04.080,Simcolourproject_2stim_asymm_v5,2020.2.10,MacIntel,60,61025ae37ef11b136ea224fe,,,,,,,,,2968,35,74,1,0,0,response1disk,,7,5,-2,1,0,0,rectangle,5,-2,1,0,0,5,-2,1,0,0,1,66,226,72,1,,,,,,,,
,,,,,,,,,,,,,FF,,,,,,,,0.834,,,,,,,,,,,,,,,,,,,,,,6103494acb49b118fdcf2db5,61036bba84ad83fd30723a57,2021-07-29_22h04.04.080,Simcolourproject_2stim_asymm_v5,2020.2.10,MacIntel,60,61025ae37ef11b136ea224fe,,,,,,,,,4033,45,-28,1,0,0,response3disk,,5,11,-4,1,0,0,rectangle,11,-4,1,0,0,11,-4,1,0,0,1,67,227,60,1,,,,,,,,
,,,,,,,,,,,,,FF,,,,,,,,0.766,,,,,,,,,,,,,,,,,,,,,,6103494acb49b118fdcf2db5,61036bba84ad83fd30723a57,2021-07-29_22h04.04.080,Simcolourproject_2stim_asymm_v5,2020.2.10,MacIntel,60,61025ae37ef11b136ea224fe,,,,,,,,,2594,56,-31,1,0,0,response3disk,,5,22,-13,1,0,0,rectangle,-61,30,1,0,0,-9,4,1,0,0,1,68,228,15,1,,response7disk_3,TRUE,1,1,"[247,273,39,101,216,101,140,229,49,95,97,154,73,263,91,173,174,205,273,275]",1.315,rectangle
,,,,,,,,,,,,,FF,,,,,,,,0.766,,,,,,,,,,,,,,,,,,,,,,6103494acb49b118fdcf2db5,61036bba84ad83fd30723a57,2021-07-29_22h04.04.080,Simcolourproject_2stim_asymm_v5,2020.2.10,MacIntel,60,61025ae37ef11b136ea224fe,,,,,,,,,1628,22,52,1,0,0,response1disk,,7,17,1,1,0,0,rectangle,17,1,1,0,0,17,1,1,0,0,1,69,229,96,1,,,,,,,,
,,,,,,,,,,,,,FF,,,,,,,,0.551,,,,,,,,,,,,,,,,,,,,,,6103494acb49b118fdcf2db5,61036bba84ad83fd30723a57,2021-07-29_22h04.04.080,Simcolourproject_2stim_asymm_v5,2020.2.10,MacIntel,60,61025ae37ef11b136ea224fe,,,,,,,,,1645,38,61,1,0,0,response1disk,,7,25,3,1,0,0,rectangle,25,3,1,0,0,25,3,1,0,0,1,70,230,28,1,,,,,,,,
,,,,,,,,,,,,,FF,,,,,,,,0.518,,,,,,,,,,,,,,,,,,,,,,6103494acb49b118fdcf2db5,61036bba84ad83fd30723a57,2021-07-29_22h04.04.080,Simcolourproject_2stim_asymm_v5,2020.2.10,MacIntel,60,61025ae37ef11b136ea224fe,,,,,,,,,24,39,59,1,0,0,response1disk,,7,28,6,1,0,0,rectangle,28,6,1,0,0,28,6,1,0,0,1,71,231,19,1,,,,,,,,
,,,,,,,,,,,,,FF,,,,,,,,0.817,,,,,,,,,,,,,,,,,,,,,,6103494acb49b118fdcf2db5,61036bba84ad83fd30723a57,2021-07-29_22h04.04.080,Simcolourproject_2stim_asymm_v5,2020.2.10,MacIntel,60,61025ae37ef11b136ea224fe,,,,,,,,,2724,-71,-25,1,0,0,response5disk,,2,0,3,1,0,0,rectangle,0,3,1,0,0,0,3,1,0,0,1,72,232,1,1,,,,,,,,
,,,,,,,,,,,,,FF,,,,,,,,0.633,,,,,,,,,,,,,,,,,,,,,,6103494acb49b118fdcf2db5,61036bba84ad83fd30723a57,2021-07-29_22h04.04.080,Simcolourproject_2stim_asymm_v5,2020.2.10,MacIntel,60,61025ae37ef11b136ea224fe,,,,,,,,,2872,60,36,1,0,0,response1disk,,6,6,2,1,0,0,rectangle,6,2,1,0,0,6,2,1,0,0,1,73,233,158,1,,,,,,,,
,,,,,,,,,,,,,FF,,,,,,,,0.533,,,,,,,,,,,,,,,,,,,,,,6103494acb49b118fdcf2db5,61036bba84ad83fd30723a57,2021-07-29_22h04.04.080,Simcolourproject_2stim_asymm_v5,2020.2.10,MacIntel,60,61025ae37ef11b136ea224fe,,,,,,,,,2278,68,49,1,0,0,response1disk,,6,23,6,1,0,0,rectangle,23,6,1,0,0,23,6,1,0,0,1,74,234,6,1,,,,,,,,
,,,,,,,,,,,,,FF,,,,,,,,0.517,,,,,,,,,,,,,,,,,,,,,,6103494acb49b118fdcf2db5,61036bba84ad83fd30723a57,2021-07-29_22h04.04.080,Simcolourproject_2stim_asymm_v5,2020.2.10,MacIntel,60,61025ae37ef11b136ea224fe,,,,,,,,,43,35,53,1,0,0,response1disk,,7,23,-8,1,0,0,rectangle,23,-8,1,0,0,23,-8,1,0,0,1,75,235,5,1,,,,,,,,
,,,,,,,,,,,,,FF,,,,,,,,0.616,,,,,,,,,,,,,,,,,,,,,,6103494acb49b118fdcf2db5,61036bba84ad83fd30723a57,2021-07-29_22h04.04.080,Simcolourproject_2stim_asymm_v5,2020.2.10,MacIntel,60,61025ae37ef11b136ea224fe,,,,,,,,,688,68,36,1,0,0,response1disk,,6,24,16,1,0,0,rectangle,24,16,1,0,0,24,16,1,0,0,1,76,236,20,1,,,,,,,,
,,,,,,,,,,,,,FF,,,,,,,,0.784,,,,,,,,,,,,,,,,,,,,,,6103494acb49b118fdcf2db5,61036bba84ad83fd30723a57,2021-07-29_22h04.04.080,Simcolourproject_2stim_asymm_v5,2020.2.10,MacIntel,60,61025ae37ef11b136ea224fe,,,,,,,,,4294,-53,-28,1,0,0,response5disk,,2,-2,-6,1,0,0,rectangle,-2,-6,1,0,0,-2,-6,1,0,0,1,77,237,34,1,,,,,,,,
,,,,,,,,,,,,,FF,,,,,,,,0.65,,,,,,,,,,,,,,,,,,,,,,6103494acb49b118fdcf2db5,61036bba84ad83fd30723a57,2021-07-29_22h04.04.080,Simcolourproject_2stim_asymm_v5,2020.2.10,MacIntel,60,61025ae37ef11b136ea224fe,,,,,,,,,1334,25,49,1,0,0,response1disk,,7,13,0,1,0,0,rectangle,13,0,1,0,0,13,0,1,0,0,1,78,238,53,1,,,,,,,,
,,,,,,,,,,,,,FF,,,,,,,,0.551,,,,,,,,,,,,,,,,,,,,,,6103494acb49b118fdcf2db5,61036bba84ad83fd30723a57,2021-07-29_22h04.04.080,Simcolourproject_2stim_asymm_v5,2020.2.10,MacIntel,60,61025ae37ef11b136ea224fe,,,,,,,,,485,26,53,1,0,0,response1disk,,7,16,6,1,0,0,rectangle,16,6,1,0,0,16,6,1,0,0,1,79,239,113,1,,,,,,,,
,,,,,,,,,,,,,FF,,,,,,,,0.732,,,,,,,,,,,,,,,,,,,,,,6103494acb49b118fdcf2db5,61036bba84ad83fd30723a57,2021-07-29_22h04.04.080,Simcolourproject_2stim_asymm_v5,2020.2.10,MacIntel,60,61025ae37ef11b136ea224fe,,,,,,,,,96,-34,-67,1,0,0,response5disk,,3,-19,-13,1,0,0,rectangle,-19,-13,1,0,0,-19,-13,1,0,0,1,80,240,89,1,,,,,,,,
,,,,,,,,,,,,,FF,,,,,,,,0.566,,,,,,,,,,,,,,,,,,,,,,6103494acb49b118fdcf2db5,61036bba84ad83fd30723a57,2021-07-29_22h04.04.080,Simcolourproject_2stim_asymm_v5,2020.2.10,MacIntel,60,61025ae37ef11b136ea224fe,,,,,,,,,645,34,-18,1,0,0,response3disk,,5,9,2,1,0,0,rectangle,9,2,1,0,0,9,2,1,0,0,1,81,241,21,1,,,,,,,,
,,,,,,,,,,,,,FF,,,,,,,,0.667,,,,,,,,,,,,,,,,,,,,,,6103494acb49b118fdcf2db5,61036bba84ad83fd30723a57,2021-07-29_22h04.04.080,Simcolourproject_2stim_asymm_v5,2020.2.10,MacIntel,60,61025ae37ef11b136ea224fe,,,,,,,,,2566,54,54,1,0,0,response1disk,,7,22,15,1,0,0,rectangle,22,15,1,0,0,22,15,1,0,0,1,82,242,69,1,,,,,,,,
,,,,,,,,,,,,,FF,,,,,,,,0.584,,,,,,,,,,,,,,,,,,,,,,6103494acb49b118fdcf2db5,61036bba84ad83fd30723a57,2021-07-29_22h04.04.080,Simcolourproject_2stim_asymm_v5,2020.2.10,MacIntel,60,61025ae37ef11b136ea224fe,,,,,,,,,2077,32,64,1,0,0,response1disk,,7,17,15,1,0,0,rectangle,17,15,1,0,0,17,15,1,0,0,1,83,243,51,1,,,,,,,,
,,,,,,,,,,,,,FF,,,,,,,,0.799,,,,,,,,,,,,,,,,,,,,,,6103494acb49b118fdcf2db5,61036bba84ad83fd30723a57,2021-07-29_22h04.04.080,Simcolourproject_2stim_asymm_v5,2020.2.10,MacIntel,60,61025ae37ef11b136ea224fe,,,,,,,,,3816,34,-52,1,0,0,response3disk,,4,27,0,1,0,0,rectangle,27,0,1,0,0,27,0,1,0,0,1,84,244,91,1,,,,,,,,
,,,,,,,,,,,,,FF,,,,,,,,1.083,,,,,,,,,,,,,,,,,,,,,,6103494acb49b118fdcf2db5,61036bba84ad83fd30723a57,2021-07-29_22h04.04.080,Simcolourproject_2stim_asymm_v5,2020.2.10,MacIntel,60,61025ae37ef11b136ea224fe,,,,,,,,,2162,40,-55,1,0,0,response3disk,,4,17,-11,1,0,0,rectangle,17,-11,1,0,0,17,-11,1,0,0,1,85,245,129,1,,,,,,,,
,,,,,,,,,,,,,FF,,,,,,,,0.668,,,,,,,,,,,,,,,,,,,,,,6103494acb49b118fdcf2db5,61036bba84ad83fd30723a57,2021-07-29_22h04.04.080,Simcolourproject_2stim_asymm_v5,2020.2.10,MacIntel,60,61025ae37ef11b136ea224fe,,,,,,,,,4324,28,48,1,0,0,response1disk,,7,17,-4,1,0,0,rectangle,26,-86,1,0,0,16,-5,1,0,0,1,86,246,64,1,,response3disk_3,TRUE,4,4,"[247,273,39,101,216,101,140,229,49,95,97,154,73,263,91,173,174,205,273,275]",1.532,rectangle
,,,,,,,,,,,,,FF,,,,,,,,0.835,,,,,,,,,,,,,,,,,,,,,,6103494acb49b118fdcf2db5,61036bba84ad83fd30723a57,2021-07-29_22h04.04.080,Simcolourproject_2stim_asymm_v5,2020.2.10,MacIntel,60,61025ae37ef11b136ea224fe,,,,,,,,,2868,26,68,1,0,0,response1disk,,7,14,-8,1,0,0,rectangle,14,-8,1,0,0,14,-8,1,0,0,1,87,247,11,1,,,,,,,,
,,,,,,,,,,,,,FF,,,,,,,,1.166,,,,,,,,,,,,,,,,,,,,,,6103494acb49b118fdcf2db5,61036bba84ad83fd30723a57,2021-07-29_22h04.04.080,Simcolourproject_2stim_asymm_v5,2020.2.10,MacIntel,60,61025ae37ef11b136ea224fe,,,,,,,,,1527,36,-61,1,0,0,response3disk,,4,16,-5,1,0,0,rectangle,16,-5,1,0,0,16,-5,1,0,0,1,88,248,75,1,,,,,,,,
,,,,,,,,,,,,,FF,,,,,,,,0.632,,,,,,,,,,,,,,,,,,,,,,6103494acb49b118fdcf2db5,61036bba84ad83fd30723a57,2021-07-29_22h04.04.080,Simcolourproject_2stim_asymm_v5,2020.2.10,MacIntel,60,61025ae37ef11b136ea224fe,,,,,,,,,460,40,-75,1,0,0,response3disk,,4,16,0,1,0,0,rectangle,16,0,1,0,0,16,0,1,0,0,1,89,249,9,1,,,,,,,,
,,,,,,,,,,,,,FF,,,,,,,,0.599,,,,,,,,,,,,,,,,,,,,,,6103494acb49b118fdcf2db5,61036bba84ad83fd30723a57,2021-07-29_22h04.04.080,Simcolourproject_2stim_asymm_v5,2020.2.10,MacIntel,60,61025ae37ef11b136ea224fe,,,,,,,,,468,30,-59,1,0,0,response3disk,,4,8,-5,1,0,0,rectangle,8,-5,1,0,0,8,-5,1,0,0,1,90,250,132,1,,,,,,,,
,,,,,,,,,,,,,FF,,,,,,,,0.851,,,,,,,,,,,,,,,,,,,,,,6103494acb49b118fdcf2db5,61036bba84ad83fd30723a57,2021-07-29_22h04.04.080,Simcolourproject_2stim_asymm_v5,2020.2.10,MacIntel,60,61025ae37ef11b136ea224fe,,,,,,,,,2716,48,33,1,0,0,response1disk,,6,3,17,1,0,0,rectangle,3,17,1,0,0,3,17,1,0,0,1,91,251,54,1,,,,,,,,
,,,,,,,,,,,,,FF,,,,,,,,0.732,,,,,,,,,,,,,,,,,,,,,,6103494acb49b118fdcf2db5,61036bba84ad83fd30723a57,2021-07-29_22h04.04.080,Simcolourproject_2stim_asymm_v5,2020.2.10,MacIntel,60,61025ae37ef11b136ea224fe,,,,,,,,,3235,-38,-55,1,0,0,response5disk,,3,-22,-1,1,0,0,rectangle,-22,-1,1,0,0,-22,-1,1,0,0,1,92,252,146,1,,,,,,,,
,,,,,,,,,,,,,FF,,,,,,,,1.382,,,,,,,,,,,,,,,,,,,,,,6103494acb49b118fdcf2db5,61036bba84ad83fd30723a57,2021-07-29_22h04.04.080,Simcolourproject_2stim_asymm_v5,2020.2.10,MacIntel,60,61025ae37ef11b136ea224fe,,,,,,,,,959,56,-22,1,0,0,response3disk,,5,26,-1,1,0,0,rectangle,26,-1,1,0,0,26,-1,1,0,0,1,93,253,77,1,,,,,,,,
,,,,,,,,,,,,,FF,,,,,,,,0.717,,,,,,,,,,,,,,,,,,,,,,6103494acb49b118fdcf2db5,61036bba84ad83fd30723a57,2021-07-29_22h04.04.080,Simcolourproject_2stim_asymm_v5,2020.2.10,MacIntel,60,61025ae37ef11b136ea224fe,,,,,,,,,2897,-34,-74,1,0,0,response5disk,,3,-6,5,1,0,0,rectangle,-6,5,1,0,0,-6,5,1,0,0,1,94,254,36,1,,,,,,,,
,,,,,,,,,,,,,FF,,,,,,,,0.633,,,,,,,,,,,,,,,,,,,,,,6103494acb49b118fdcf2db5,61036bba84ad83fd30723a57,2021-07-29_22h04.04.080,Simcolourproject_2stim_asymm_v5,2020.2.10,MacIntel,60,61025ae37ef11b136ea224fe,,,,,,,,,52,23,62,1,0,0,response1disk,,7,15,3,1,0,0,rectangle,15,3,1,0,0,15,3,1,0,0,1,95,255,102,1,,,,,,,,
,,,,,,,,,,,,,FF,,,,,,,,2.167,,,,,,,,,,,,,,,,,,,,,,6103494acb49b118fdcf2db5,61036bba84ad83fd30723a57,2021-07-29_22h04.04.080,Simcolourproject_2stim_asymm_v5,2020.2.10,MacIntel,60,61025ae37ef11b136ea224fe,,,,,,,,,184,21,25,1,0,0,response1disk,,7,18,-9,1,0,0,rectangle,18,-9,1,0,0,18,-9,1,0,0,1,96,256,57,1,,,,,,,,
,,,,,,,,,,,,,FF,,,,,,,,0.915,,,,,,,,,,,,,,,,,,,,,,6103494acb49b118fdcf2db5,61036bba84ad83fd30723a57,2021-07-29_22h04.04.080,Simcolourproject_2stim_asymm_v5,2020.2.10,MacIntel,60,61025ae37ef11b136ea224fe,,,,,,,,,2747,46,-42,1,0,0,response3disk,,5,11,1,1,0,0,rectangle,11,1,1,0,0,11,1,1,0,0,1,97,257,111,1,,,,,,,,
,,,,,,,,,,,,,FF,,,,,,,,0.818,,,,,,,,,,,,,,,,,,,,,,6103494acb49b118fdcf2db5,61036bba84ad83fd30723a57,2021-07-29_22h04.04.080,Simcolourproject_2stim_asymm_v5,2020.2.10,MacIntel,60,61025ae37ef11b136ea224fe,,,,,,,,,1722,62,49,1,0,0,response1disk,,6,-3,6,1,0,0,rectangle,-3,6,1,0,0,-3,6,1,0,0,1,98,258,93,1,,,,,,,,
,,,,,,,,,,,,,FF,,,,,,,,0.533,,,,,,,,,,,,,,,,,,,,,,6103494acb49b118fdcf2db5,61036bba84ad83fd30723a57,2021-07-29_22h04.04.080,Simcolourproject_2stim_asymm_v5,2020.2.10,MacIntel,60,61025ae37ef11b136ea224fe,,,,,,,,,2396,67,52,1,0,0,response1disk,,6,15,13,1,0,0,rectangle,15,13,1,0,0,15,13,1,0,0,1,99,259,38,1,,,,,,,,
,,,,,,,,,,,,,FF,,,,,,,,0.75,,,,,,,,,,,,,,,,,,,,,,6103494acb49b118fdcf2db5,61036bba84ad83fd30723a57,2021-07-29_22h04.04.080,Simcolourproject_2stim_asymm_v5,2020.2.10,MacIntel,60,61025ae37ef11b136ea224fe,,,,,,,,,4319,36,-19,1,0,0,response3disk,,5,21,0,1,0,0,rectangle,21,0,1,0,0,21,0,1,0,0,1,100,260,148,1,,,,,,,,
,,,,,,,,,,,,,FF,,,,,,,,0.6,,,,,,,,,,,,,,,,,,,,,,6103494acb49b118fdcf2db5,61036bba84ad83fd30723a57,2021-07-29_22h04.04.080,Simcolourproject_2stim_asymm_v5,2020.2.10,MacIntel,60,61025ae37ef11b136ea224fe,,,,,,,,,2763,84,50,1,0,0,response1disk,,6,20,5,1,0,0,rectangle,20,5,1,0,0,20,5,1,0,0,1,101,261,133,1,,,,,,,,
,,,,,,,,,,,,,FF,,,,,,,,0.651,,,,,,,,,,,,,,,,,,,,,,6103494acb49b118fdcf2db5,61036bba84ad83fd30723a57,2021-07-29_22h04.04.080,Simcolourproject_2stim_asymm_v5,2020.2.10,MacIntel,60,61025ae37ef11b136ea224fe,,,,,,,,,2061,61,32,1,0,0,response1disk,,6,11,4,1,0,0,rectangle,41,80,1,0,0,19,12,1,0,0,1,102,262,108,1,,response1disk_3,TRUE,7,7,"[247,273,39,101,216,101,140,229,49,95,97,154,73,263,91,173,174,205,273,275]",1.417,rectangle
,,,,,,,,,,,,,FF,,,,,,,,1.067,,,,,,,,,,,,,,,,,,,,,,6103494acb49b118fdcf2db5,61036bba84ad83fd30723a57,2021-07-29_22h04.04.080,Simcolourproject_2stim_asymm_v5,2020.2.10,MacIntel,60,61025ae37ef11b136ea224fe,,,,,,,,,464,-26,-67,1,0,0,response5disk,,3,-6,-1,1,0,0,rectangle,-6,-1,1,0,0,-6,-1,1,0,0,1,103,263,61,1,,,,,,,,
,,,,,,,,,,,,,FF,,,,,,,,0.7,,,,,,,,,,,,,,,,,,,,,,6103494acb49b118fdcf2db5,61036bba84ad83fd30723a57,2021-07-29_22h04.04.080,Simcolourproject_2stim_asymm_v5,2020.2.10,MacIntel,60,61025ae37ef11b136ea224fe,,,,,,,,,1839,51,26,1,0,0,response1disk,,6,-1,0,1,0,0,rectangle,-1,0,1,0,0,-1,0,1,0,0,1,104,264,140,1,,,,,,,,
,,,,,,,,,,,,,FF,,,,,,,,0.999,,,,,,,,,,,,,,,,,,,,,,6103494acb49b118fdcf2db5,61036bba84ad83fd30723a57,2021-07-29_22h04.04.080,Simcolourproject_2stim_asymm_v5,2020.2.10,MacIntel,60,61025ae37ef11b136ea224fe,,,,,,,,,1858,56,47,1,0,0,response1disk,,6,4,-3,1,0,0,rectangle,4,-3,1,0,0,4,-3,1,0,0,1,105,265,109,1,,,,,,,,
,,,,,,,,,,,,,FF,,,,,,,,0.633,,,,,,,,,,,,,,,,,,,,,,6103494acb49b118fdcf2db5,61036bba84ad83fd30723a57,2021-07-29_22h04.04.080,Simcolourproject_2stim_asymm_v5,2020.2.10,MacIntel,60,61025ae37ef11b136ea224fe,,,,,,,,,287,44,-35,1,0,0,response3disk,,5,12,-7,1,0,0,rectangle,12,-7,1,0,0,12,-7,1,0,0,1,106,266,155,1,,,,,,,,
,,,,,,,,,,,,,FF,,,,,,,,0.617,,,,,,,,,,,,,,,,,,,,,,6103494acb49b118fdcf2db5,61036bba84ad83fd30723a57,2021-07-29_22h04.04.080,Simcolourproject_2stim_asymm_v5,2020.2.10,MacIntel,60,61025ae37ef11b136ea224fe,,,,,,,,,3132,45,58,1,0,0,response1disk,,7,31,0,1,0,0,rectangle,31,0,1,0,0,31,0,1,0,0,1,107,267,63,1,,,,,,,,
,,,,,,,,,,,,,FF,,,,,,,,0.816,,,,,,,,,,,,,,,,,,,,,,6103494acb49b118fdcf2db5,61036bba84ad83fd30723a57,2021-07-29_22h04.04.080,Simcolourproject_2stim_asymm_v5,2020.2.10,MacIntel,60,61025ae37ef11b136ea224fe,,,,,,,,,3688,66,-42,1,0,0,response3disk,,5,14,-12,1,0,0,rectangle,14,-12,1,0,0,14,-12,1,0,0,1,108,268,120,1,,,,,,,,
,,,,,,,,,,,,,FF,,,,,,,,0.984,,,,,,,,,,,,,,,,,,,,,,6103494acb49b118fdcf2db5,61036bba84ad83fd30723a57,2021-07-29_22h04.04.080,Simcolourproject_2stim_asymm_v5,2020.2.10,MacIntel,60,61025ae37ef11b136ea224fe,,,,,,,,,1047,68,31,1,0,0,response1disk,,6,17,2,1,0,0,rectangle,17,2,1,0,0,17,2,1,0,0,1,109,269,42,1,,,,,,,,
,,,,,,,,,,,,,FF,,,,,,,,0.7,,,,,,,,,,,,,,,,,,,,,,6103494acb49b118fdcf2db5,61036bba84ad83fd30723a57,2021-07-29_22h04.04.080,Simcolourproject_2stim_asymm_v5,2020.2.10,MacIntel,60,61025ae37ef11b136ea224fe,,,,,,,,,1870,32,63,1,0,0,response1disk,,7,15,14,1,0,0,rectangle,15,14,1,0,0,15,14,1,0,0,1,110,270,10,1,,,,,,,,
,,,,,,,,,,,,,FF,,,,,,,,0.733,,,,,,,,,,,,,,,,,,,,,,6103494acb49b118fdcf2db5,61036bba84ad83fd30723a57,2021-07-29_22h04.04.080,Simcolourproject_2stim_asymm_v5,2020.2.10,MacIntel,60,61025ae37ef11b136ea224fe,,,,,,,,,2026,-56,-30,1,0,0,response5disk,,2,-3,-2,1,0,0,rectangle,-3,-2,1,0,0,-3,-2,1,0,0,1,111,271,105,1,,,,,,,,
,,,,,,,,,,,,,FF,,,,,,,,0.582,,,,,,,,,,,,,,,,,,,,,,6103494acb49b118fdcf2db5,61036bba84ad83fd30723a57,2021-07-29_22h04.04.080,Simcolourproject_2stim_asymm_v5,2020.2.10,MacIntel,60,61025ae37ef11b136ea224fe,,,,,,,,,806,-73,-31,1,0,0,response5disk,,2,-16,0,1,0,0,rectangle,-40,81,1,0,0,-9,10,1,0,0,1,112,272,29,1,,response7disk_3,TRUE,0,0,"[247,273,39,101,216,101,140,229,49,95,97,154,73,263,91,173,174,205,273,275]",1.4,rectangle
,,,,,,,,,,,,,FF,,,,,,,,0.766,,,,,,,,,,,,,,,,,,,,,,6103494acb49b118fdcf2db5,61036bba84ad83fd30723a57,2021-07-29_22h04.04.080,Simcolourproject_2stim_asymm_v5,2020.2.10,MacIntel,60,61025ae37ef11b136ea224fe,,,,,,,,,3146,-41,61,1,0,0,response7disk,,0,-24,7,1,0,0,rectangle,-24,7,1,0,0,-24,7,1,0,0,1,113,273,119,1,,,,,,,,
,,,,,,,,,,,,,FF,,,,,,,,0.617,,,,,,,,,,,,,,,,,,,,,,6103494acb49b118fdcf2db5,61036bba84ad83fd30723a57,2021-07-29_22h04.04.080,Simcolourproject_2stim_asymm_v5,2020.2.10,MacIntel,60,61025ae37ef11b136ea224fe,,,,,,,,,4242,25,80,1,0,0,response1disk,,7,17,12,1,0,0,rectangle,-24,-74,1,0,0,-19,-4,1,0,0,1,114,274,78,1,,response5disk_3,TRUE,3,3,"[247,273,39,101,216,101,140,229,49,95,97,154,73,263,91,173,174,205,273,275]",2.433,rectangle
,,,,,,,,,,,,,FF,,,,,,,,0.517,,,,,,,,,,,,,,,,,,,,,,6103494acb49b118fdcf2db5,61036bba84ad83fd30723a57,2021-07-29_22h04.04.080,Simcolourproject_2stim_asymm_v5,2020.2.10,MacIntel,60,61025ae37ef11b136ea224fe,,,,,,,,,3799,21,51,1,0,0,response1disk,,7,9,-6,1,0,0,rectangle,9,-6,1,0,0,9,-6,1,0,0,1,115,275,47,1,,,,,,,,
,,,,,,,,,,,,,FF,,,,,,,,0.784,,,,,,,,,,,,,,,,,,,,,,6103494acb49b118fdcf2db5,61036bba84ad83fd30723a57,2021-07-29_22h04.04.080,Simcolourproject_2stim_asymm_v5,2020.2.10,MacIntel,60,61025ae37ef11b136ea224fe,,,,,,,,,3226,37,69,1,0,0,response1disk,,7,18,12,1,0,0,rectangle,18,12,1,0,0,18,12,1,0,0,1,116,276,136,1,,,,,,,,
,,,,,,,,,,,,,FF,,,,,,,,0.75,,,,,,,,,,,,,,,,,,,,,,6103494acb49b118fdcf2db5,61036bba84ad83fd30723a57,2021-07-29_22h04.04.080,Simcolourproject_2stim_asymm_v5,2020.2.10,MacIntel,60,61025ae37ef11b136ea224fe,,,,,,,,,1883,80,53,1,0,0,response1disk,,6,13,16,1,0,0,rectangle,13,16,1,0,0,13,16,1,0,0,1,117,277,13,1,,,,,,,,
,,,,,,,,,,,,,FF,,,,,,,,0.749,,,,,,,,,,,,,,,,,,,,,,6103494acb49b118fdcf2db5,61036bba84ad83fd30723a57,2021-07-29_22h04.04.080,Simcolourproject_2stim_asymm_v5,2020.2.10,MacIntel,60,61025ae37ef11b136ea224fe,,,,,,,,,3316,28,69,1,0,0,response1disk,,7,18,11,1,0,0,rectangle,18,11,1,0,0,18,11,1,0,0,1,118,278,25,1,,,,,,,,
,,,,,,,,,,,,,FF,,,,,,,,1.083,,,,,,,,,,,,,,,,,,,,,,6103494acb49b118fdcf2db5,61036bba84ad83fd30723a57,2021-07-29_22h04.04.080,Simcolourproject_2stim_asymm_v5,2020.2.10,MacIntel,60,61025ae37ef11b136ea224fe,,,,,,,,,3982,48,-29,1,0,0,response3disk,,5,21,-9,1,0,0,rectangle,21,-9,1,0,0,21,-9,1,0,0,1,119,279,65,1,,,,,,,,
,,,,,,,,,,,,,FF,,,,,,,,0.618,,,,,,,,,,,,,,,,,,,,,,6103494acb49b118fdcf2db5,61036bba84ad83fd30723a57,2021-07-29_22h04.04.080,Simcolourproject_2stim_asymm_v5,2020.2.10,MacIntel,60,61025ae37ef11b136ea224fe,,,,,,,,,696,36,47,1,0,0,response1disk,,7,25,-1,1,0,0,rectangle,25,-1,1,0,0,25,-1,1,0,0,1,120,280,32,1,,,,,,,,
,,,,,,,,,,,,,FF,,,,,,,,0.666,,,,,,,,,,,,,,,,,,,,,,6103494acb49b118fdcf2db5,61036bba84ad83fd30723a57,2021-07-29_22h04.04.080,Simcolourproject_2stim_asymm_v5,2020.2.10,MacIntel,60,61025ae37ef11b136ea224fe,,,,,,,,,3888,79,35,1,0,0,response1disk,,6,5,4,1,0,0,rectangle,5,4,1,0,0,5,4,1,0,0,1,121,281,128,1,,,,,,,,
,,,,,,,,,,,,,FF,,,,,,,,0.551,,,,,,,,,,,,,,,,,,,,,,6103494acb49b118fdcf2db5,61036bba84ad83fd30723a57,2021-07-29_22h04.04.080,Simcolourproject_2stim_asymm_v5,2020.2.10,MacIntel,60,61025ae37ef11b136ea224fe,,,,,,,,,2580,36,69,1,0,0,response1disk,,7,14,3,1,0,0,rectangle,14,3,1,0,0,14,3,1,0,0,1,122,282,24,1,,,,,,,,
,,,,,,,,,,,,,FF,,,,,,,,0.601,,,,,,,,,,,,,,,,,,,,,,6103494acb49b118fdcf2db5,61036bba84ad83fd30723a57,2021-07-29_22h04.04.080,Simcolourproject_2stim_asymm_v5,2020.2.10,MacIntel,60,61025ae37ef11b136ea224fe,,,,,,,,,472,37,-27,1,0,0,response3disk,,5,21,-6,1,0,0,rectangle,21,-6,1,0,0,21,-6,1,0,0,1,123,283,37,1,,,,,,,,
,,,,,,,,,,,,,FF,,,,,,,,1.666,,,,,,,,,,,,,,,,,,,,,,6103494acb49b118fdcf2db5,61036bba84ad83fd30723a57,2021-07-29_22h04.04.080,Simcolourproject_2stim_asymm_v5,2020.2.10,MacIntel,60,61025ae37ef11b136ea224fe,,,,,,,,,3036,-40,-24,1,0,0,response5disk,,2,0,13,1,0,0,rectangle,0,13,1,0,0,0,13,1,0,0,1,124,284,147,1,,,,,,,,
,,,,,,,,,,,,,FF,,,,,,,,0.751,,,,,,,,,,,,,,,,,,,,,,6103494acb49b118fdcf2db5,61036bba84ad83fd30723a57,2021-07-29_22h04.04.080,Simcolourproject_2stim_asymm_v5,2020.2.10,MacIntel,60,61025ae37ef11b136ea224fe,,,,,,,,,3712,-54,27,1,0,0,response7disk,,1,-2,5,1,0,0,rectangle,-2,5,1,0,0,-2,5,1,0,0,1,125,285,50,1,,,,,,,,
,,,,,,,,,,,,,FF,,,,,,,,0.766,,,,,,,,,,,,,,,,,,,,,,6103494acb49b118fdcf2db5,61036bba84ad83fd30723a57,2021-07-29_22h04.04.080,Simcolourproject_2stim_asymm_v5,2020.2.10,MacIntel,60,61025ae37ef11b136ea224fe,,,,,,,,,3350,-44,-49,1,0,0,response5disk,,3,-11,1,1,0,0,rectangle,-11,1,1,0,0,-11,1,1,0,0,1,126,286,70,1,,,,,,,,
,,,,,,,,,,,,,FF,,,,,,,,0.867,,,,,,,,,,,,,,,,,,,,,,6103494acb49b118fdcf2db5,61036bba84ad83fd30723a57,2021-07-29_22h04.04.080,Simcolourproject_2stim_asymm_v5,2020.2.10,MacIntel,60,61025ae37ef11b136ea224fe,,,,,,,,,1222,17,-41,1,0,0,response3disk,,4,10,-10,1,0,0,rectangle,10,-10,1,0,0,10,-10,1,0,0,1,127,287,143,1,,,,,,,,
,,,,,,,,,,,,,FF,,,,,,,,0.9,,,,,,,,,,,,,,,,,,,,,,6103494acb49b118fdcf2db5,61036bba84ad83fd30723a57,2021-07-29_22h04.04.080,Simcolourproject_2stim_asymm_v5,2020.2.10,MacIntel,60,61025ae37ef11b136ea224fe,,,,,,,,,488,57,-36,1,0,0,response3disk,,5,14,-8,1,0,0,rectangle,14,-8,1,0,0,14,-8,1,0,0,1,128,288,126,1,,,,,,,,
,,,,,,,,,,,,,FF,,,,,,,,0.8,,,,,,,,,,,,,,,,,,,,,,6103494acb49b118fdcf2db5,61036bba84ad83fd30723a57,2021-07-29_22h04.04.080,Simcolourproject_2stim_asymm_v5,2020.2.10,MacIntel,60,61025ae37ef11b136ea224fe,,,,,,,,,2534,59,24,1,0,0,response1disk,,6,15,6,1,0,0,rectangle,15,6,1,0,0,15,6,1,0,0,1,129,289,43,1,,,,,,,,
,,,,,,,,,,,,,FF,,,,,,,,0.598,,,,,,,,,,,,,,,,,,,,,,6103494acb49b118fdcf2db5,61036bba84ad83fd30723a57,2021-07-29_22h04.04.080,Simcolourproject_2stim_asymm_v5,2020.2.10,MacIntel,60,61025ae37ef11b136ea224fe,,,,,,,,,363,30,57,1,0,0,response1disk,,7,15,3,1,0,0,rectangle,15,3,1,0,0,15,3,1,0,0,1,130,290,157,1,,,,,,,,
,,,,,,,,,,,,,FF,,,,,,,,0.518,,,,,,,,,,,,,,,,,,,,,,6103494acb49b118fdcf2db5,61036bba84ad83fd30723a57,2021-07-29_22h04.04.080,Simcolourproject_2stim_asymm_v5,2020.2.10,MacIntel,60,61025ae37ef11b136ea224fe,,,,,,,,,1491,33,58,1,0,0,response1disk,,7,24,9,1,0,0,rectangle,24,9,1,0,0,24,9,1,0,0,1,131,291,84,1,,,,,,,,
,,,,,,,,,,,,,FF,,,,,,,,0.434,,,,,,,,,,,,,,,,,,,,,,6103494acb49b118fdcf2db5,61036bba84ad83fd30723a57,2021-07-29_22h04.04.080,Simcolourproject_2stim_asymm_v5,2020.2.10,MacIntel,60,61025ae37ef11b136ea224fe,,,,,,,,,1013,41,63,1,0,0,response1disk,,7,21,-2,1,0,0,rectangle,21,-2,1,0,0,21,-2,1,0,0,1,132,292,48,1,,,,,,,,
,,,,,,,,,,,,,FF,,,,,,,,0.801,,,,,,,,,,,,,,,,,,,,,,6103494acb49b118fdcf2db5,61036bba84ad83fd30723a57,2021-07-29_22h04.04.080,Simcolourproject_2stim_asymm_v5,2020.2.10,MacIntel,60,61025ae37ef11b136ea224fe,,,,,,,,,3343,-49,27,1,0,0,response7disk,,1,-15,-1,1,0,0,rectangle,-15,-1,1,0,0,-15,-1,1,0,0,1,133,293,35,1,,,,,,,,
,,,,,,,,,,,,,FF,,,,,,,,0.634,,,,,,,,,,,,,,,,,,,,,,6103494acb49b118fdcf2db5,61036bba84ad83fd30723a57,2021-07-29_22h04.04.080,Simcolourproject_2stim_asymm_v5,2020.2.10,MacIntel,60,61025ae37ef11b136ea224fe,,,,,,,,,4276,49,36,1,0,0,response1disk,,6,8,0,1,0,0,rectangle,8,0,1,0,0,8,0,1,0,0,1,134,294,83,1,,,,,,,,
,,,,,,,,,,,,,FF,,,,,,,,0.817,,,,,,,,,,,,,,,,,,,,,,6103494acb49b118fdcf2db5,61036bba84ad83fd30723a57,2021-07-29_22h04.04.080,Simcolourproject_2stim_asymm_v5,2020.2.10,MacIntel,60,61025ae37ef11b136ea224fe,,,,,,,,,869,35,-44,1,0,0,response3disk,,4,19,-5,1,0,0,rectangle,19,-5,1,0,0,19,-5,1,0,0,1,135,295,73,1,,,,,,,,
,,,,,,,,,,,,,FF,,,,,,,,0.617,,,,,,,,,,,,,,,,,,,,,,6103494acb49b118fdcf2db5,61036bba84ad83fd30723a57,2021-07-29_22h04.04.080,Simcolourproject_2stim_asymm_v5,2020.2.10,MacIntel,60,61025ae37ef11b136ea224fe,,,,,,,,,936,67,28,1,0,0,response1disk,,6,20,1,1,0,0,rectangle,20,1,1,0,0,20,1,1,0,0,1,136,296,152,1,,,,,,,,
,,,,,,,,,,,,,FF,,,,,,,,0.65,,,,,,,,,,,,,,,,,,,,,,6103494acb49b118fdcf2db5,61036bba84ad83fd30723a57,2021-07-29_22h04.04.080,Simcolourproject_2stim_asymm_v5,2020.2.10,MacIntel,60,61025ae37ef11b136ea224fe,,,,,,,,,2475,65,37,1,0,0,response1disk,,6,19,15,1,0,0,rectangle,19,15,1,0,0,19,15,1,0,0,1,137,297,94,1,,,,,,,,
,,,,,,,,,,,,,FF,,,,,,,,0.668,,,,,,,,,,,,,,,,,,,,,,6103494acb49b118fdcf2db5,61036bba84ad83fd30723a57,2021-07-29_22h04.04.080,Simcolourproject_2stim_asymm_v5,2020.2.10,MacIntel,60,61025ae37ef11b136ea224fe,,,,,,,,,1554,73,41,1,0,0,response1disk,,6,21,2,1,0,0,rectangle,21,2,1,0,0,21,2,1,0,0,1,138,298,67,1,,,,,,,,
,,,,,,,,,,,,,FF,,,,,,,,0.432,,,,,,,,,,,,,,,,,,,,,,6103494acb49b118fdcf2db5,61036bba84ad83fd30723a57,2021-07-29_22h04.04.080,Simcolourproject_2stim_asymm_v5,2020.2.10,MacIntel,60,61025ae37ef11b136ea224fe,,,,,,,,,1776,70,41,1,0,0,response1disk,,6,12,6,1,0,0,rectangle,12,6,1,0,0,12,6,1,0,0,1,139,299,92,1,,,,,,,,
,,,,,,,,,,,,,FF,,,,,,,,0.567,,,,,,,,,,,,,,,,,,,,,,6103494acb49b118fdcf2db5,61036bba84ad83fd30723a57,2021-07-29_22h04.04.080,Simcolourproject_2stim_asymm_v5,2020.2.10,MacIntel,60,61025ae37ef11b136ea224fe,,,,,,,,,3893,76,41,1,0,0,response1disk,,6,21,9,1,0,0,rectangle,21,9,1,0,0,21,9,1,0,0,1,140,300,86,1,,,,,,,,
