key_resp.keys,key_resp.rt,key_resp_14.keys,key_resp_14.rt,key_resp_15.keys,key_resp_15.rt,key_resp_17.keys,key_resp_17.rt,key_resp_9.keys,key_resp_9.rt,key_resp_10.keys,key_resp_10.rt,practice_comparison,Ecc,mouse_5.x,mouse_5.y,mouse_5.leftButton,mouse_5.midButton,mouse_5.rightButton,mouse_5.clicked_name,pracsimilarity,response_time,mouse_10.x,mouse_10.y,mouse_10.leftButton,mouse_10.midButton,mouse_10.rightButton,mouse_10.clicked_name,mouse_7.x,mouse_7.y,mouse_7.leftButton,mouse_7.midButton,mouse_7.rightButton,mouse_6.x,mouse_6.y,mouse_6.leftButton,mouse_6.midButton,mouse_6.rightButton,duringprac.thisRepN,duringprac.thisTrialN,duringprac.thisN,duringprac.thisIndex,duringprac.ran,participant,session,date,expName,psychopyVersion,OS,frameRate,study_id,mouse_7.clicked_name,catchpracsimilarity,catch_response_time,catchnumberprac,catchtrialorderprac,mouse_6.clicked_name,key_resp_22.keys,key_resp_22.rt,realcomparison,mouse.x,mouse.y,mouse.leftButton,mouse.midButton,mouse.rightButton,mouse.clicked_name,Colour2,similarity,mouse_2.x,mouse_2.y,mouse_2.leftButton,mouse_2.midButton,mouse_2.rightButton,mouse_2.clicked_name,mouse_3.x,mouse_3.y,mouse_3.leftButton,mouse_3.midButton,mouse_3.rightButton,mouse_11.x,mouse_11.y,mouse_11.leftButton,mouse_11.midButton,mouse_11.rightButton,trials_2.thisRepN,trials_2.thisTrialN,trials_2.thisN,trials_2.thisIndex,trials_2.ran,Colour1,mouse_3.clicked_name,catchornah,catchsimilarity,catchnumber,catchtrialorder,catchRT,mouse_11.clicked_name
space,1.2379,space,11.7158,space,33.13,space,16.7733,space,11.7662,space,4.0691,74,PF,90.00002176,41.99999052,1,0,0,response1disk_5,6,12.1887,-11.3333146,-2.000010788,1,0,0,rectangle_8,-11.3333146,-2.000010788,1,0,0,-11.3333146,-2.000010788,1,0,0,0,0,0,4,1,61035baf05c0521abd331da4,6103666e1ea997a57592113f,2021-07-30_03h44.50.284,Simcolourproject_2stim_asymm_v5,2020.2.10,Win32,60,61025ae37ef11b136ea224fe,,,,,,,,,,,,,,,,,,,,,,,,,,,,,,,,,,,,,,,,,,,,,,
,,,,,,,,,,,,30,FF,-74.66660913,49.99999076,1,0,0,response7disk_5,1,9.5823,-13.33331466,-1.333344102,1,0,0,rectangle_8,36.00002015,65.33330421,1,0,0,-9.999981225,-1.333344102,1,0,0,0,1,1,5,1,61035baf05c0521abd331da4,6103666e1ea997a57592113f,2021-07-30_03h44.50.284,Simcolourproject_2stim_asymm_v5,2020.2.10,Win32,60,61025ae37ef11b136ea224fe,response1disk_7,7,2.8347,7,"[2,5]",rectangle_4,,,,,,,,,,,,,,,,,,,,,,,,,,,,,,,,,,,,,,,,
,,,,,,,,,,,,127,PF,41.33339433,69.99999136,1,0,0,response1disk_5,7,5.7662,10.00001937,9.999989569,1,0,0,rectangle_8,10.00001937,9.999989569,1,0,0,10.00001937,9.999989569,1,0,0,0,2,2,6,1,61035baf05c0521abd331da4,6103666e1ea997a57592113f,2021-07-30_03h44.50.284,Simcolourproject_2stim_asymm_v5,2020.2.10,Win32,60,61025ae37ef11b136ea224fe,,,,,,,,,,,,,,,,,,,,,,,,,,,,,,,,,,,,,,,,,,,,,,
,,,,,,,,,,,,32,FF,25.33339385,92.6666587,1,0,0,response1disk_5,7,6.2492,-7.333314478,-3.333344162,1,0,0,rectangle_8,-7.333314478,-3.333344162,1,0,0,-7.333314478,-3.333344162,1,0,0,0,3,3,3,1,61035baf05c0521abd331da4,6103666e1ea997a57592113f,2021-07-30_03h44.50.284,Simcolourproject_2stim_asymm_v5,2020.2.10,Win32,60,61025ae37ef11b136ea224fe,,,,,,,,,,,,,,,,,,,,,,,,,,,,,,,,,,,,,,,,,,,,,,
,,,,,,,,,,,,54,FF,33.33339409,83.99999177,1,0,0,response1disk_5,7,2.1167,-3.333314359,-2.666677475,1,0,0,rectangle_8,37.33339421,93.99999207,1,0,0,-2.666606983,8.666656196,1,0,0,0,4,4,0,1,61035baf05c0521abd331da4,6103666e1ea997a57592113f,2021-07-30_03h44.50.284,Simcolourproject_2stim_asymm_v5,2020.2.10,Win32,60,61025ae37ef11b136ea224fe,response1disk_7,7,1.5273,7,"[2,5]",rectangle_4,,,,,,,,,,,,,,,,,,,,,,,,,,,,,,,,,,,,,,,,
,,,,,,,,,,,,107,PF,-56.66660859,-56.0000124,1,0,0,response5disk_5,2,4.0996,4.666685879,5.99998945,1,0,0,rectangle_8,4.666685879,5.99998945,1,0,0,4.666685879,5.99998945,1,0,0,0,5,5,1,1,61035baf05c0521abd331da4,6103666e1ea997a57592113f,2021-07-30_03h44.50.284,Simcolourproject_2stim_asymm_v5,2020.2.10,Win32,60,61025ae37ef11b136ea224fe,,,,,,,,,,,,,,,,,,,,,,,,,,,,,,,,,,,,,,,,,,,,,,
,,,,,,,,,,,,152,PF,80.66668814,29.99999017,1,0,0,response1disk_5,6,7.6391,9.333393375,-0.666677415,1,0,0,rectangle_8,9.333393375,-0.666677415,1,0,0,9.333393375,-0.666677415,1,0,0,0,6,6,2,1,61035baf05c0521abd331da4,6103666e1ea997a57592113f,2021-07-30_03h44.50.284,Simcolourproject_2stim_asymm_v5,2020.2.10,Win32,60,61025ae37ef11b136ea224fe,,,,,,,,,,,,,,,,,,,,,,,,,,,,,,,,,,,,,,,,,,,,,,
,,,,,,,,,,,,,FF,,,,,,,,6.6113,,,,,,,,,,,,,,,,,,,,,,61035baf05c0521abd331da4,6103666e1ea997a57592113f,2021-07-30_03h44.50.284,Simcolourproject_2stim_asymm_v5,2020.2.10,Win32,60,61025ae37ef11b136ea224fe,,,,,,,space,3.228,182,-75.3333165,45.99999064,1,0,0,response7disk,,1,-12.66660728,-2.666677475,1,0,0,rectangle,-12.66660728,-2.666677475,1,0,0,-12.66660728,-2.666677475,1,0,0,0,0,0,114,1,,,,,,,,
,,,,,,,,,,,,,FF,,,,,,,,3.7166,,,,,,,,,,,,,,,,,,,,,,61035baf05c0521abd331da4,6103666e1ea997a57592113f,2021-07-30_03h44.50.284,Simcolourproject_2stim_asymm_v5,2020.2.10,Win32,60,61025ae37ef11b136ea224fe,,,,,,,,,977,-29.99998182,-55.33334571,1,0,0,response5disk,,3,5.333393256,-3.333344162,1,0,0,rectangle,5.333393256,-3.333344162,1,0,0,5.333393256,-3.333344162,1,0,0,0,1,1,157,1,,,,,,,,
,,,,,,,,,,,,,FF,,,,,,,,4.6932,,,,,,,,,,,,,,,,,,,,,,61035baf05c0521abd331da4,6103666e1ea997a57592113f,2021-07-30_03h44.50.284,Simcolourproject_2stim_asymm_v5,2020.2.10,Win32,60,61025ae37ef11b136ea224fe,,,,,,,,,2519,40.66668695,49.99999076,1,0,0,response1disk,,7,-2.666606983,-4.666677535,1,0,0,rectangle,-2.666606983,-4.666677535,1,0,0,-2.666606983,-4.666677535,1,0,0,0,2,2,8,1,,,,,,,,
,,,,,,,,,,,,,FF,,,,,,,,3.1666,,,,,,,,,,,,,,,,,,,,,,61035baf05c0521abd331da4,6103666e1ea997a57592113f,2021-07-30_03h44.50.284,Simcolourproject_2stim_asymm_v5,2020.2.10,Win32,60,61025ae37ef11b136ea224fe,,,,,,,,,2942,32.66668671,-92.00001347,1,0,0,response3disk,,4,8.000019312,-4.000010848,0,0,1,rectangle,8.000019312,-4.000010848,0,0,1,8.000019312,-4.000010848,0,0,1,0,3,3,65,1,,,,,,,,
,,,,,,,,,,,,,FF,,,,,,,,3.0758,,,,,,,,,,,,,,,,,,,,,,61035baf05c0521abd331da4,6103666e1ea997a57592113f,2021-07-30_03h44.50.284,Simcolourproject_2stim_asymm_v5,2020.2.10,Win32,60,61025ae37ef11b136ea224fe,,,,,,,,,1690,34.66668677,-85.33334661,1,0,0,response3disk,,4,6.666685939,-0.666677415,1,0,0,rectangle,6.666685939,-0.666677415,1,0,0,6.666685939,-0.666677415,1,0,0,0,4,4,81,1,,,,,,,,
,,,,,,,,,,,,,FF,,,,,,,,2.8328,,,,,,,,,,,,,,,,,,,,,,61035baf05c0521abd331da4,6103666e1ea997a57592113f,2021-07-30_03h44.50.284,Simcolourproject_2stim_asymm_v5,2020.2.10,Win32,60,61025ae37ef11b136ea224fe,,,,,,,,,2297,-31.33331519,-85.33334661,1,0,0,response5disk,,3,-1.999980986,-3.333344162,1,0,0,rectangle,-1.999980986,-3.333344162,1,0,0,-1.999980986,-3.333344162,1,0,0,0,5,5,0,1,,,,,,,,
,,,,,,,,,,,,,FF,,,,,,,,2.9665,,,,,,,,,,,,,,,,,,,,,,61035baf05c0521abd331da4,6103666e1ea997a57592113f,2021-07-30_03h44.50.284,Simcolourproject_2stim_asymm_v5,2020.2.10,Win32,60,61025ae37ef11b136ea224fe,,,,,,,,,4008,59.33335418,-25.33334482,1,0,0,response3disk,,5,10.00001937,-2.666677475,1,0,0,rectangle,10.00001937,-2.666677475,1,0,0,10.00001937,-2.666677475,1,0,0,0,6,6,98,1,,,,,,,,
,,,,,,,,,,,,,FF,,,,,,,,3.1492,,,,,,,,,,,,,,,,,,,,,,61035baf05c0521abd331da4,6103666e1ea997a57592113f,2021-07-30_03h44.50.284,Simcolourproject_2stim_asymm_v5,2020.2.10,Win32,60,61025ae37ef11b136ea224fe,,,,,,,,,2918,54.66668737,41.99999052,1,0,0,response1disk,,6,-2.666606983,7.333322823,1,0,0,rectangle,-2.666606983,7.333322823,1,0,0,-2.666606983,7.333322823,1,0,0,0,7,7,145,1,,,,,,,,
,,,,,,,,,,,,,FF,,,,,,,,4.8497,,,,,,,,,,,,,,,,,,,,,,61035baf05c0521abd331da4,6103666e1ea997a57592113f,2021-07-30_03h44.50.284,Simcolourproject_2stim_asymm_v5,2020.2.10,Win32,60,61025ae37ef11b136ea224fe,,,,,,,,,3567,66.66668773,59.33330403,1,0,0,response1disk,,6,-1.3333143,5.333322763,1,0,0,rectangle,-1.3333143,5.333322763,1,0,0,-1.3333143,5.333322763,1,0,0,0,8,8,84,1,,,,,,,,
,,,,,,,,,,,,,FF,,,,,,,,1.6333,,,,,,,,,,,,,,,,,,,,,,61035baf05c0521abd331da4,6103666e1ea997a57592113f,2021-07-30_03h44.50.284,Simcolourproject_2stim_asymm_v5,2020.2.10,Win32,60,61025ae37ef11b136ea224fe,,,,,,,,,1433,42.66668701,92.6666587,1,0,0,response1disk,,7,-15.9999814,-1.07288E-05,1,0,0,rectangle,-15.9999814,-1.07288E-05,1,0,0,-15.9999814,-1.07288E-05,1,0,0,0,9,9,139,1,,,,,,,,
,,,,,,,,,,,,,FF,,,,,,,,1.0501,,,,,,,,,,,,,,,,,,,,,,61035baf05c0521abd331da4,6103666e1ea997a57592113f,2021-07-30_03h44.50.284,Simcolourproject_2stim_asymm_v5,2020.2.10,Win32,60,61025ae37ef11b136ea224fe,,,,,,,,,686,31.33339403,83.99999177,1,0,0,response1disk,,7,-9.333314538,7.99998951,1,0,0,rectangle,-9.333314538,7.99998951,1,0,0,-9.333314538,7.99998951,1,0,0,0,10,10,13,1,,,,,,,,
,,,,,,,,,,,,,FF,,,,,,,,2.1333,,,,,,,,,,,,,,,,,,,,,,61035baf05c0521abd331da4,6103666e1ea997a57592113f,2021-07-30_03h44.50.284,Simcolourproject_2stim_asymm_v5,2020.2.10,Win32,60,61025ae37ef11b136ea224fe,,,,,,,,,1828,-39.33331543,-81.33334649,1,0,0,response5disk,,3,-4.666607042,-0.666677415,1,0,0,rectangle,-4.666607042,-0.666677415,1,0,0,-4.666607042,-0.666677415,1,0,0,0,11,11,120,1,,,,,,,,
,,,,,,,,,,,,,FF,,,,,,,,1.7001,,,,,,,,,,,,,,,,,,,,,,61035baf05c0521abd331da4,6103666e1ea997a57592113f,2021-07-30_03h44.50.284,Simcolourproject_2stim_asymm_v5,2020.2.10,Win32,60,61025ae37ef11b136ea224fe,,,,,,,,,2057,21.33339373,76.66665822,1,0,0,response1disk,,7,4.666685879,1.333322644,1,0,0,rectangle,4.666685879,1.333322644,1,0,0,4.666685879,1.333322644,1,0,0,0,12,12,79,1,,,,,,,,
,,,,,,,,,,,,,FF,,,,,,,,1.0168,,,,,,,,,,,,,,,,,,,,,,61035baf05c0521abd331da4,6103666e1ea997a57592113f,2021-07-30_03h44.50.284,Simcolourproject_2stim_asymm_v5,2020.2.10,Win32,60,61025ae37ef11b136ea224fe,,,,,,,,,4062,14.00001949,71.33330439,1,0,0,response1disk,,7,-5.333314419,1.333322644,1,0,0,rectangle,-5.333314419,1.333322644,1,0,0,-5.333314419,1.333322644,1,0,0,0,13,13,88,1,,,,,,,,
,,,,,,,,,,,,,FF,,,,,,,,1.4331,,,,,,,,,,,,,,,,,,,,,,61035baf05c0521abd331da4,6103666e1ea997a57592113f,2021-07-30_03h44.50.284,Simcolourproject_2stim_asymm_v5,2020.2.10,Win32,60,61025ae37ef11b136ea224fe,,,,,,,,,1687,25.33339385,-92.00001347,1,0,0,response3disk,,4,2.000019133,-2.000010788,1,0,0,rectangle,2.000019133,-2.000010788,1,0,0,2.000019133,-2.000010788,1,0,0,0,14,14,12,1,,,,,,,,
,,,,,,,,,,,,,FF,,,,,,,,4.2497,,,,,,,,,,,,,,,,,,,,,,61035baf05c0521abd331da4,6103666e1ea997a57592113f,2021-07-30_03h44.50.284,Simcolourproject_2stim_asymm_v5,2020.2.10,Win32,60,61025ae37ef11b136ea224fe,,,,,,,,,4073,38.00002021,-90.6666801,1,0,0,response3disk,,4,18.00001961,5.333322763,1,0,0,rectangle,18.00001961,5.333322763,1,0,0,18.00001961,5.333322763,1,0,0,0,15,15,104,1,,,,,,,,
,,,,,,,,,,,,,FF,,,,,,,,1.2001,,,,,,,,,,,,,,,,,,,,,,61035baf05c0521abd331da4,6103666e1ea997a57592113f,2021-07-30_03h44.50.284,Simcolourproject_2stim_asymm_v5,2020.2.10,Win32,60,61025ae37ef11b136ea224fe,,,,,,,,,2816,22.00001973,65.99999124,1,0,0,response1disk,,7,-3.999981046,-3.333344162,1,0,0,rectangle,49.33335388,-89.33334672,1,0,0,-0.666606923,11.99998963,1,0,0,0,16,16,124,1,,response3disk_3,TRUE,4,4,"[323,30,149,205,17,123,265,200,232,48,321,232,186,114,0,124,125,258,99,160]",1.9672,rectangle
,,,,,,,,,,,,,FF,,,,,,,,1.1668,,,,,,,,,,,,,,,,,,,,,,61035baf05c0521abd331da4,6103666e1ea997a57592113f,2021-07-30_03h44.50.284,Simcolourproject_2stim_asymm_v5,2020.2.10,Win32,60,61025ae37ef11b136ea224fe,,,,,,,,,3843,-35.999982,69.99999136,1,0,0,response7disk,,0,-1.3333143,6.666656137,1,0,0,rectangle,-1.3333143,6.666656137,1,0,0,-1.3333143,6.666656137,1,0,0,0,17,17,133,1,,,,,,,,
,,,,,,,,,,,,,FF,,,,,,,,1.4008,,,,,,,,,,,,,,,,,,,,,,61035baf05c0521abd331da4,6103666e1ea997a57592113f,2021-07-30_03h44.50.284,Simcolourproject_2stim_asymm_v5,2020.2.10,Win32,60,61025ae37ef11b136ea224fe,,,,,,,,,317,28.66668659,66.66665792,1,0,0,response1disk,,7,-7.333314478,3.333322704,1,0,0,rectangle,-7.333314478,3.333322704,1,0,0,-7.333314478,3.333322704,1,0,0,0,18,18,117,1,,,,,,,,
,,,,,,,,,,,,,FF,,,,,,,,1.4104,,,,,,,,,,,,,,,,,,,,,,61035baf05c0521abd331da4,6103666e1ea997a57592113f,2021-07-30_03h44.50.284,Simcolourproject_2stim_asymm_v5,2020.2.10,Win32,60,61025ae37ef11b136ea224fe,,,,,,,,,3778,-37.99998206,-79.33334643,1,0,0,response5disk,,3,-12.66660728,-4.000010848,1,0,0,rectangle,-12.66660728,-4.000010848,1,0,0,-12.66660728,-4.000010848,1,0,0,0,19,19,137,1,,,,,,,,
,,,,,,,,,,,,,FF,,,,,,,,1.5501,,,,,,,,,,,,,,,,,,,,,,61035baf05c0521abd331da4,6103666e1ea997a57592113f,2021-07-30_03h44.50.284,Simcolourproject_2stim_asymm_v5,2020.2.10,Win32,60,61025ae37ef11b136ea224fe,,,,,,,,,1779,45.33335376,65.33330421,1,0,0,response1disk,,7,2.000019133,7.333322823,1,0,0,rectangle,2.000019133,7.333322823,1,0,0,2.000019133,7.333322823,1,0,0,0,20,20,39,1,,,,,,,,
,,,,,,,,,,,,,FF,,,,,,,,5.1661,,,,,,,,,,,,,,,,,,,,,,61035baf05c0521abd331da4,6103666e1ea997a57592113f,2021-07-30_03h44.50.284,Simcolourproject_2stim_asymm_v5,2020.2.10,Win32,60,61025ae37ef11b136ea224fe,,,,,,,,,3973,62.66668761,33.99999028,1,0,0,response1disk,,6,20.00001967,6.666656137,1,0,0,rectangle,20.00001967,6.666656137,1,0,0,20.00001967,6.666656137,1,0,0,0,21,21,36,1,,,,,,,,
,,,,,,,,,,,,,FF,,,,,,,,5.2165,,,,,,,,,,,,,,,,,,,,,,61035baf05c0521abd331da4,6103666e1ea997a57592113f,2021-07-30_03h44.50.284,Simcolourproject_2stim_asymm_v5,2020.2.10,Win32,60,61025ae37ef11b136ea224fe,,,,,,,,,1388,88.0000217,32.66665691,1,0,0,response1disk,,6,6.000019252,4.666656077,1,0,0,rectangle,6.000019252,4.666656077,1,0,0,6.000019252,4.666656077,1,0,0,0,22,22,94,1,,,,,,,,
,,,,,,,,,,,,,FF,,,,,,,,0.95,,,,,,,,,,,,,,,,,,,,,,61035baf05c0521abd331da4,6103666e1ea997a57592113f,2021-07-30_03h44.50.284,Simcolourproject_2stim_asymm_v5,2020.2.10,Win32,60,61025ae37ef11b136ea224fe,,,,,,,,,3175,40.00002027,67.33330427,1,0,0,response1disk,,7,-3.999981046,5.333322763,1,0,0,rectangle,-3.999981046,5.333322763,1,0,0,-3.999981046,5.333322763,1,0,0,0,23,23,38,1,,,,,,,,
,,,,,,,,,,,,,FF,,,,,,,,0.9332,,,,,,,,,,,,,,,,,,,,,,61035baf05c0521abd331da4,6103666e1ea997a57592113f,2021-07-30_03h44.50.284,Simcolourproject_2stim_asymm_v5,2020.2.10,Win32,60,61025ae37ef11b136ea224fe,,,,,,,,,2250,36.66668683,82.6666584,1,0,0,response1disk,,7,-20.66660752,-6.666677594,1,0,0,rectangle,-20.66660752,-6.666677594,1,0,0,-20.66660752,-6.666677594,1,0,0,0,24,24,102,1,,,,,,,,
,,,,,,,,,,,,,FF,,,,,,,,0.7502,,,,,,,,,,,,,,,,,,,,,,61035baf05c0521abd331da4,6103666e1ea997a57592113f,2021-07-30_03h44.50.284,Simcolourproject_2stim_asymm_v5,2020.2.10,Win32,60,61025ae37ef11b136ea224fe,,,,,,,,,1710,14.00001949,59.99999106,1,0,0,response1disk,,7,-6.666607102,3.99998939,1,0,0,rectangle,-6.666607102,3.99998939,1,0,0,-6.666607102,3.99998939,1,0,0,0,25,25,132,1,,,,,,,,
,,,,,,,,,,,,,FF,,,,,,,,1.9166,,,,,,,,,,,,,,,,,,,,,,61035baf05c0521abd331da4,6103666e1ea997a57592113f,2021-07-30_03h44.50.284,Simcolourproject_2stim_asymm_v5,2020.2.10,Win32,60,61025ae37ef11b136ea224fe,,,,,,,,,212,26.00001985,61.33330409,1,0,0,response1disk,,7,1.9735E-05,6.666656137,1,0,0,rectangle,1.9735E-05,6.666656137,1,0,0,1.9735E-05,6.666656137,1,0,0,0,26,26,7,1,,,,,,,,
,,,,,,,,,,,,,FF,,,,,,,,1.7328,,,,,,,,,,,,,,,,,,,,,,61035baf05c0521abd331da4,6103666e1ea997a57592113f,2021-07-30_03h44.50.284,Simcolourproject_2stim_asymm_v5,2020.2.10,Win32,60,61025ae37ef11b136ea224fe,,,,,,,,,3466,32.66668671,62.66665781,1,0,0,response1disk,,7,-3.333314359,1.333322644,1,0,0,rectangle,-3.333314359,1.333322644,1,0,0,-3.333314359,1.333322644,1,0,0,0,27,27,10,1,,,,,,,,
,,,,,,,,,,,,,FF,,,,,,,,2.1165,,,,,,,,,,,,,,,,,,,,,,61035baf05c0521abd331da4,6103666e1ea997a57592113f,2021-07-30_03h44.50.284,Simcolourproject_2stim_asymm_v5,2020.2.10,Win32,60,61025ae37ef11b136ea224fe,,,,,,,,,398,26.00001985,72.6666581,1,0,0,response1disk,,7,2.000019133,-4.666677535,1,0,0,rectangle,2.000019133,-4.666677535,1,0,0,2.000019133,-4.666677535,1,0,0,0,28,28,150,1,,,,,,,,
,,,,,,,,,,,,,FF,,,,,,,,2.9331,,,,,,,,,,,,,,,,,,,,,,61035baf05c0521abd331da4,6103666e1ea997a57592113f,2021-07-30_03h44.50.284,Simcolourproject_2stim_asymm_v5,2020.2.10,Win32,60,61025ae37ef11b136ea224fe,,,,,,,,,3685,22.00001973,49.33330373,1,0,0,response1disk,,7,-8.666607161,-3.333344162,1,0,0,rectangle,33.33339409,-73.33334625,1,0,0,-3.999981046,1.999989331,1,0,0,0,29,29,82,1,,response3disk_3,TRUE,4,4,"[323,30,149,205,17,123,265,200,232,48,321,232,186,114,0,124,125,258,99,160]",1.6822,rectangle
,,,,,,,,,,,,,FF,,,,,,,,1.7332,,,,,,,,,,,,,,,,,,,,,,61035baf05c0521abd331da4,6103666e1ea997a57592113f,2021-07-30_03h44.50.284,Simcolourproject_2stim_asymm_v5,2020.2.10,Win32,60,61025ae37ef11b136ea224fe,,,,,,,,,4294,-45.33331561,-69.33334613,1,0,0,response5disk,,3,4.666685879,-0.666677415,1,0,0,rectangle,4.666685879,-0.666677415,1,0,0,4.666685879,-0.666677415,1,0,0,0,30,30,9,1,,,,,,,,
,,,,,,,,,,,,,FF,,,,,,,,1.0666,,,,,,,,,,,,,,,,,,,,,,61035baf05c0521abd331da4,6103666e1ea997a57592113f,2021-07-30_03h44.50.284,Simcolourproject_2stim_asymm_v5,2020.2.10,Win32,60,61025ae37ef11b136ea224fe,,,,,,,,,492,30.00001997,53.99999088,1,0,0,response1disk,,7,0.66668576,-6.666677594,1,0,0,rectangle,0.66668576,-6.666677594,1,0,0,0.66668576,-6.666677594,1,0,0,0,31,31,80,1,,,,,,,,
,,,,,,,,,,,,,FF,,,,,,,,1.2163,,,,,,,,,,,,,,,,,,,,,,61035baf05c0521abd331da4,6103666e1ea997a57592113f,2021-07-30_03h44.50.284,Simcolourproject_2stim_asymm_v5,2020.2.10,Win32,60,61025ae37ef11b136ea224fe,,,,,,,,,674,39.33339427,26.66665673,1,0,0,response1disk,,6,2.66668582,-2.666677475,1,0,0,rectangle,2.66668582,-2.666677475,1,0,0,2.66668582,-2.666677475,1,0,0,0,32,32,11,1,,,,,,,,
,,,,,,,,,,,,,FF,,,,,,,,1.3666,,,,,,,,,,,,,,,,,,,,,,61035baf05c0521abd331da4,6103666e1ea997a57592113f,2021-07-30_03h44.50.284,Simcolourproject_2stim_asymm_v5,2020.2.10,Win32,60,61025ae37ef11b136ea224fe,,,,,,,,,1063,42.00002033,-64.66667932,1,0,0,response3disk,,4,18.6666863,3.333322704,1,0,0,rectangle,18.6666863,3.333322704,1,0,0,18.6666863,3.333322704,1,0,0,0,33,33,149,1,,,,,,,,
,,,,,,,,,,,,,FF,,,,,,,,1.1,,,,,,,,,,,,,,,,,,,,,,61035baf05c0521abd331da4,6103666e1ea997a57592113f,2021-07-30_03h44.50.284,Simcolourproject_2stim_asymm_v5,2020.2.10,Win32,60,61025ae37ef11b136ea224fe,,,,,,,,,1859,32.66668671,57.33330397,1,0,0,response1disk,,7,-6.666607102,-12.66667777,1,0,0,rectangle,-6.666607102,-12.66667777,1,0,0,-6.666607102,-12.66667777,1,0,0,0,34,34,68,1,,,,,,,,
,,,,,,,,,,,,,FF,,,,,,,,4.3994,,,,,,,,,,,,,,,,,,,,,,61035baf05c0521abd331da4,6103666e1ea997a57592113f,2021-07-30_03h44.50.284,Simcolourproject_2stim_asymm_v5,2020.2.10,Win32,60,61025ae37ef11b136ea224fe,,,,,,,,,948,42.00002033,77.9999916,1,0,0,response1disk,,7,-7.999981165,6.666656137,1,0,0,rectangle,-7.999981165,6.666656137,1,0,0,-7.999981165,6.666656137,1,0,0,0,35,35,99,1,,,,,,,,
,,,,,,,,,,,,,FF,,,,,,,,4.2489,,,,,,,,,,,,,,,,,,,,,,61035baf05c0521abd331da4,6103666e1ea997a57592113f,2021-07-30_03h44.50.284,Simcolourproject_2stim_asymm_v5,2020.2.10,Win32,60,61025ae37ef11b136ea224fe,,,,,,,,,122,66.66668773,27.33330307,1,0,0,response1disk,,6,2.000019133,-6.000010908,1,0,0,rectangle,2.000019133,-6.000010908,1,0,0,2.000019133,-6.000010908,1,0,0,0,36,36,140,1,,,,,,,,
,,,,,,,,,,,,,FF,,,,,,,,3.4496,,,,,,,,,,,,,,,,,,,,,,61035baf05c0521abd331da4,6103666e1ea997a57592113f,2021-07-30_03h44.50.284,Simcolourproject_2stim_asymm_v5,2020.2.10,Win32,60,61025ae37ef11b136ea224fe,,,,,,,,,2523,24.00001979,57.999991,1,0,0,response1disk,,7,-3.333314359,12.66665632,1,0,0,rectangle,-3.333314359,12.66665632,1,0,0,-3.333314359,12.66665632,1,0,0,0,37,37,92,1,,,,,,,,
,,,,,,,,,,,,,FF,,,,,,,,3.6995,,,,,,,,,,,,,,,,,,,,,,61035baf05c0521abd331da4,6103666e1ea997a57592113f,2021-07-30_03h44.50.284,Simcolourproject_2stim_asymm_v5,2020.2.10,Win32,60,61025ae37ef11b136ea224fe,,,,,,,,,1134,38.66668689,-67.33334607,1,0,0,response3disk,,4,12.66668612,8.666656196,1,0,0,rectangle,12.66668612,8.666656196,1,0,0,12.66668612,8.666656196,1,0,0,0,38,38,50,1,,,,,,,,
,,,,,,,,,,,,,FF,,,,,,,,0.95,,,,,,,,,,,,,,,,,,,,,,61035baf05c0521abd331da4,6103666e1ea997a57592113f,2021-07-30_03h44.50.284,Simcolourproject_2stim_asymm_v5,2020.2.10,Win32,60,61025ae37ef11b136ea224fe,,,,,,,,,1488,20.66668636,46.66665733,1,0,0,response1disk,,7,-1.999980986,0.666655958,1,0,0,rectangle,-1.999980986,0.666655958,1,0,0,-1.999980986,0.666655958,1,0,0,0,39,39,15,1,,,,,,,,
,,,,,,,,,,,,,FF,,,,,,,,0.85,,,,,,,,,,,,,,,,,,,,,,61035baf05c0521abd331da4,6103666e1ea997a57592113f,2021-07-30_03h44.50.284,Simcolourproject_2stim_asymm_v5,2020.2.10,Win32,60,61025ae37ef11b136ea224fe,,,,,,,,,3144,25.33339385,55.33330391,1,0,0,response1disk,,7,-9.333314538,-2.666677475,1,0,0,rectangle,-9.333314538,-2.666677475,1,0,0,-9.333314538,-2.666677475,1,0,0,0,40,40,148,1,,,,,,,,
,,,,,,,,,,,,,FF,,,,,,,,1.4167,,,,,,,,,,,,,,,,,,,,,,61035baf05c0521abd331da4,6103666e1ea997a57592113f,2021-07-30_03h44.50.284,Simcolourproject_2stim_asymm_v5,2020.2.10,Win32,60,61025ae37ef11b136ea224fe,,,,,,,,,4251,-79.33331662,53.99999088,1,0,0,response7disk,,1,-1.3333143,9.999989569,1,0,0,rectangle,-1.3333143,9.999989569,1,0,0,-1.3333143,9.999989569,1,0,0,0,41,41,6,1,,,,,,,,
,,,,,,,,,,,,,FF,,,,,,,,0.8333,,,,,,,,,,,,,,,,,,,,,,61035baf05c0521abd331da4,6103666e1ea997a57592113f,2021-07-30_03h44.50.284,Simcolourproject_2stim_asymm_v5,2020.2.10,Win32,60,61025ae37ef11b136ea224fe,,,,,,,,,2864,19.33339367,77.9999916,1,0,0,response1disk,,7,-13.33331466,8.666656196,1,0,0,rectangle,-13.33331466,8.666656196,1,0,0,-13.33331466,8.666656196,1,0,0,0,42,42,30,1,,,,,,,,
,,,,,,,,,,,,,FF,,,,,,,,0.8333,,,,,,,,,,,,,,,,,,,,,,61035baf05c0521abd331da4,6103666e1ea997a57592113f,2021-07-30_03h44.50.284,Simcolourproject_2stim_asymm_v5,2020.2.10,Win32,60,61025ae37ef11b136ea224fe,,,,,,,,,267,37.33339421,75.3333045,1,0,0,response1disk,,7,-7.333314478,1.333322644,1,0,0,rectangle,-7.333314478,1.333322644,1,0,0,-7.333314478,1.333322644,1,0,0,0,43,43,66,1,,,,,,,,
,,,,,,,,,,,,,FF,,,,,,,,1.4333,,,,,,,,,,,,,,,,,,,,,,61035baf05c0521abd331da4,6103666e1ea997a57592113f,2021-07-30_03h44.50.284,Simcolourproject_2stim_asymm_v5,2020.2.10,Win32,60,61025ae37ef11b136ea224fe,,,,,,,,,3918,28.66668659,50.66665745,1,0,0,response1disk,,7,10.00001937,13.333323,1,0,0,rectangle,10.00001937,13.333323,1,0,0,10.00001937,13.333323,1,0,0,0,44,44,21,1,,,,,,,,
,,,,,,,,,,,,,FF,,,,,,,,3.883,,,,,,,,,,,,,,,,,,,,,,61035baf05c0521abd331da4,6103666e1ea997a57592113f,2021-07-30_03h44.50.284,Simcolourproject_2stim_asymm_v5,2020.2.10,Win32,60,61025ae37ef11b136ea224fe,,,,,,,,,3056,69.33335447,43.99999058,1,0,0,response1disk,,6,14.00001949,7.99998951,1,0,0,rectangle,14.00001949,7.99998951,1,0,0,14.00001949,7.99998951,1,0,0,0,45,45,59,1,,,,,,,,
,,,,,,,,,,,,,FF,,,,,,,,4.516,,,,,,,,,,,,,,,,,,,,,,61035baf05c0521abd331da4,6103666e1ea997a57592113f,2021-07-30_03h44.50.284,Simcolourproject_2stim_asymm_v5,2020.2.10,Win32,60,61025ae37ef11b136ea224fe,,,,,,,,,1169,38.66668689,52.66665751,1,0,0,response1disk,,7,8.666685998,-8.666677654,1,0,0,rectangle,8.666685998,-8.666677654,1,0,0,8.666685998,-8.666677654,1,0,0,0,46,46,108,1,,,,,,,,
,,,,,,,,,,,,,FF,,,,,,,,10.1486,,,,,,,,,,,,,,,,,,,,,,61035baf05c0521abd331da4,6103666e1ea997a57592113f,2021-07-30_03h44.50.284,Simcolourproject_2stim_asymm_v5,2020.2.10,Win32,60,61025ae37ef11b136ea224fe,,,,,,,,,329,32.66668671,89.33330492,1,0,0,response1disk,,7,-0.666606923,7.333322823,1,0,0,rectangle,28.66668659,99.33330522,1,0,0,4.000019193,4.666656077,1,0,0,0,47,47,116,1,,response1disk_3,TRUE,7,7,"[323,30,149,205,17,123,265,200,232,48,321,232,186,114,0,124,125,258,99,160]",1.4169,rectangle
,,,,,,,,,,,,,FF,,,,,,,,1.25,,,,,,,,,,,,,,,,,,,,,,61035baf05c0521abd331da4,6103666e1ea997a57592113f,2021-07-30_03h44.50.284,Simcolourproject_2stim_asymm_v5,2020.2.10,Win32,60,61025ae37ef11b136ea224fe,,,,,,,,,3787,28.00001991,71.33330439,1,0,0,response1disk,,7,1.9735E-05,7.99998951,1,0,0,rectangle,1.9735E-05,7.99998951,1,0,0,1.9735E-05,7.99998951,1,0,0,0,48,48,121,1,,,,,,,,
,,,,,,,,,,,,,FF,,,,,,,,1.2999,,,,,,,,,,,,,,,,,,,,,,61035baf05c0521abd331da4,6103666e1ea997a57592113f,2021-07-30_03h44.50.284,Simcolourproject_2stim_asymm_v5,2020.2.10,Win32,60,61025ae37ef11b136ea224fe,,,,,,,,,806,73.33335459,-40.66667861,1,0,0,response3disk,,5,17.33339361,-4.000010848,1,0,0,rectangle,17.33339361,-4.000010848,1,0,0,17.33339361,-4.000010848,1,0,0,0,49,49,27,1,,,,,,,,
,,,,,,,,,,,,,FF,,,,,,,,0.8938,,,,,,,,,,,,,,,,,,,,,,61035baf05c0521abd331da4,6103666e1ea997a57592113f,2021-07-30_03h44.50.284,Simcolourproject_2stim_asymm_v5,2020.2.10,Win32,60,61025ae37ef11b136ea224fe,,,,,,,,,3161,26.66668653,62.66665781,1,0,0,response1disk,,7,1.9735E-05,-10.00001103,1,0,0,rectangle,1.9735E-05,-10.00001103,1,0,0,1.9735E-05,-10.00001103,1,0,0,0,50,50,44,1,,,,,,,,
,,,,,,,,,,,,,FF,,,,,,,,2.8163,,,,,,,,,,,,,,,,,,,,,,61035baf05c0521abd331da4,6103666e1ea997a57592113f,2021-07-30_03h44.50.284,Simcolourproject_2stim_asymm_v5,2020.2.10,Win32,60,61025ae37ef11b136ea224fe,,,,,,,,,3562,56.00002074,50.66665745,1,0,0,response1disk,,6,4.000019193,-3.333344162,1,0,0,rectangle,4.000019193,-3.333344162,1,0,0,4.000019193,-3.333344162,1,0,0,0,51,51,54,1,,,,,,,,
,,,,,,,,,,,,,FF,,,,,,,,1.4833,,,,,,,,,,,,,,,,,,,,,,61035baf05c0521abd331da4,6103666e1ea997a57592113f,2021-07-30_03h44.50.284,Simcolourproject_2stim_asymm_v5,2020.2.10,Win32,60,61025ae37ef11b136ea224fe,,,,,,,,,445,-67.99998295,-82.00001317,1,0,0,response5disk,,3,-3.333314359,0.666655958,1,0,0,rectangle,-3.333314359,0.666655958,1,0,0,-3.333314359,0.666655958,1,0,0,0,52,52,90,1,,,,,,,,
,,,,,,,,,,,,,FF,,,,,,,,1.1167,,,,,,,,,,,,,,,,,,,,,,61035baf05c0521abd331da4,6103666e1ea997a57592113f,2021-07-30_03h44.50.284,Simcolourproject_2stim_asymm_v5,2020.2.10,Win32,60,61025ae37ef11b136ea224fe,,,,,,,,,642,37.33339421,99.99999225,1,0,0,response1disk,,7,6.000019252,-1.07288E-05,1,0,0,rectangle,6.000019252,-1.07288E-05,1,0,0,6.000019252,-1.07288E-05,1,0,0,0,53,53,141,1,,,,,,,,
,,,,,,,,,,,,,FF,,,,,,,,0.7839,,,,,,,,,,,,,,,,,,,,,,61035baf05c0521abd331da4,6103666e1ea997a57592113f,2021-07-30_03h44.50.284,Simcolourproject_2stim_asymm_v5,2020.2.10,Win32,60,61025ae37ef11b136ea224fe,,,,,,,,,3450,24.00001979,63.99999118,1,0,0,response1disk,,7,6.000019252,-0.666677415,1,0,0,rectangle,6.000019252,-0.666677415,1,0,0,6.000019252,-0.666677415,1,0,0,0,54,54,52,1,,,,,,,,
,,,,,,,,,,,,,FF,,,,,,,,0.8735,,,,,,,,,,,,,,,,,,,,,,61035baf05c0521abd331da4,6103666e1ea997a57592113f,2021-07-30_03h44.50.284,Simcolourproject_2stim_asymm_v5,2020.2.10,Win32,60,61025ae37ef11b136ea224fe,,,,,,,,,592,18.6666863,67.33330427,1,0,0,response1disk,,7,-9.333314538,-1.333344102,1,0,0,rectangle,-9.333314538,-1.333344102,1,0,0,-9.333314538,-1.333344102,1,0,0,0,55,55,69,1,,,,,,,,
,,,,,,,,,,,,,FF,,,,,,,,0.8662,,,,,,,,,,,,,,,,,,,,,,61035baf05c0521abd331da4,6103666e1ea997a57592113f,2021-07-30_03h44.50.284,Simcolourproject_2stim_asymm_v5,2020.2.10,Win32,60,61025ae37ef11b136ea224fe,,,,,,,,,3755,21.33339373,77.33330456,1,0,0,response1disk,,7,-3.333314359,8.666656196,1,0,0,rectangle,-3.333314359,8.666656196,1,0,0,-3.333314359,8.666656196,1,0,0,0,56,56,127,1,,,,,,,,
,,,,,,,,,,,,,FF,,,,,,,,0.7169,,,,,,,,,,,,,,,,,,,,,,61035baf05c0521abd331da4,6103666e1ea997a57592113f,2021-07-30_03h44.50.284,Simcolourproject_2stim_asymm_v5,2020.2.10,Win32,60,61025ae37ef11b136ea224fe,,,,,,,,,3143,22.00001973,64.66665787,1,0,0,response1disk,,7,3.333393196,1.333322644,1,0,0,rectangle,3.333393196,1.333322644,1,0,0,3.333393196,1.333322644,1,0,0,0,57,57,25,1,,,,,,,,
,,,,,,,,,,,,,FF,,,,,,,,0.7439,,,,,,,,,,,,,,,,,,,,,,61035baf05c0521abd331da4,6103666e1ea997a57592113f,2021-07-30_03h44.50.284,Simcolourproject_2stim_asymm_v5,2020.2.10,Win32,60,61025ae37ef11b136ea224fe,,,,,,,,,3074,26.66668653,69.33330433,1,0,0,response1disk,,7,-3.333314359,-1.07288E-05,1,0,0,rectangle,-3.333314359,-1.07288E-05,1,0,0,-3.333314359,-1.07288E-05,1,0,0,0,58,58,34,1,,,,,,,,
,,,,,,,,,,,,,FF,,,,,,,,0.6662,,,,,,,,,,,,,,,,,,,,,,61035baf05c0521abd331da4,6103666e1ea997a57592113f,2021-07-30_03h44.50.284,Simcolourproject_2stim_asymm_v5,2020.2.10,Win32,60,61025ae37ef11b136ea224fe,,,,,,,,,3266,29.33339397,52.66665751,1,0,0,response1disk,,7,12.00001943,-4.666677535,1,0,0,rectangle,12.00001943,-4.666677535,1,0,0,12.00001943,-4.666677535,1,0,0,0,59,59,130,1,,,,,,,,
,,,,,,,,,,,,,FF,,,,,,,,0.6667,,,,,,,,,,,,,,,,,,,,,,61035baf05c0521abd331da4,6103666e1ea997a57592113f,2021-07-30_03h44.50.284,Simcolourproject_2stim_asymm_v5,2020.2.10,Win32,60,61025ae37ef11b136ea224fe,,,,,,,,,2469,22.66668642,50.66665745,1,0,0,response1disk,,7,4.000019193,8.666656196,1,0,0,rectangle,4.000019193,8.666656196,1,0,0,4.000019193,8.666656196,1,0,0,0,60,60,17,1,,,,,,,,
,,,,,,,,,,,,,FF,,,,,,,,1.3166,,,,,,,,,,,,,,,,,,,,,,61035baf05c0521abd331da4,6103666e1ea997a57592113f,2021-07-30_03h44.50.284,Simcolourproject_2stim_asymm_v5,2020.2.10,Win32,60,61025ae37ef11b136ea224fe,,,,,,,,,4225,-42.66660817,-85.33334661,1,0,0,response5disk,,3,2.000019133,8.666656196,1,0,0,rectangle,2.000019133,8.666656196,1,0,0,2.000019133,8.666656196,1,0,0,0,61,61,46,1,,,,,,,,
,,,,,,,,,,,,,FF,,,,,,,,0.8832,,,,,,,,,,,,,,,,,,,,,,61035baf05c0521abd331da4,6103666e1ea997a57592113f,2021-07-30_03h44.50.284,Simcolourproject_2stim_asymm_v5,2020.2.10,Win32,60,61025ae37ef11b136ea224fe,,,,,,,,,3468,-24.66660764,61.33330409,1,0,0,response7disk,,0,1.9735E-05,9.333322883,1,0,0,rectangle,1.9735E-05,9.333322883,1,0,0,1.9735E-05,9.333322883,1,0,0,0,62,62,154,1,,,,,,,,
,,,,,,,,,,,,,FF,,,,,,,,1.6166,,,,,,,,,,,,,,,,,,,,,,61035baf05c0521abd331da4,6103666e1ea997a57592113f,2021-07-30_03h44.50.284,Simcolourproject_2stim_asymm_v5,2020.2.10,Win32,60,61025ae37ef11b136ea224fe,,,,,,,,,2063,60.00002086,32.66665691,1,0,0,response1disk,,6,26.66668653,5.99998945,1,0,0,rectangle,26.66668653,5.99998945,1,0,0,26.66668653,5.99998945,1,0,0,0,63,63,58,1,,,,,,,,
,,,,,,,,,,,,,FF,,,,,,,,4.0497,,,,,,,,,,,,,,,,,,,,,,61035baf05c0521abd331da4,6103666e1ea997a57592113f,2021-07-30_03h44.50.284,Simcolourproject_2stim_asymm_v5,2020.2.10,Win32,60,61025ae37ef11b136ea224fe,,,,,,,,,1039,58.0000208,-27.33334488,1,0,0,response3disk,,5,26.00001985,-8.000010967,1,0,0,rectangle,26.00001985,-8.000010967,1,0,0,26.00001985,-8.000010967,1,0,0,0,64,64,143,1,,,,,,,,
,,,,,,,,,,,,,FF,,,,,,,,2.5662,,,,,,,,,,,,,,,,,,,,,,61035baf05c0521abd331da4,6103666e1ea997a57592113f,2021-07-30_03h44.50.284,Simcolourproject_2stim_asymm_v5,2020.2.10,Win32,60,61025ae37ef11b136ea224fe,,,,,,,,,2670,56.66668743,31.33330319,1,0,0,response1disk,,6,14.66668618,9.999989569,1,0,0,rectangle,14.66668618,9.999989569,1,0,0,14.66668618,9.999989569,1,0,0,0,65,65,57,1,,,,,,,,
,,,,,,,,,,,,,FF,,,,,,,,1.333,,,,,,,,,,,,,,,,,,,,,,61035baf05c0521abd331da4,6103666e1ea997a57592113f,2021-07-30_03h44.50.284,Simcolourproject_2stim_asymm_v5,2020.2.10,Win32,60,61025ae37ef11b136ea224fe,,,,,,,,,1002,24.00001979,49.99999076,1,0,0,response1disk,,7,-1.999980986,-7.333344281,1,0,0,rectangle,-1.999980986,-7.333344281,1,0,0,-1.999980986,-7.333344281,1,0,0,0,66,66,135,1,,,,,,,,
,,,,,,,,,,,,,FF,,,,,,,,2.044,,,,,,,,,,,,,,,,,,,,,,61035baf05c0521abd331da4,6103666e1ea997a57592113f,2021-07-30_03h44.50.284,Simcolourproject_2stim_asymm_v5,2020.2.10,Win32,60,61025ae37ef11b136ea224fe,,,,,,,,,1146,65.33335435,-37.33334517,1,0,0,response3disk,,5,16.00001955,-1.07288E-05,1,0,0,rectangle,16.00001955,-1.07288E-05,1,0,0,16.00001955,-1.07288E-05,1,0,0,0,67,67,35,1,,,,,,,,
,,,,,,,,,,,,,FF,,,,,,,,1.1173,,,,,,,,,,,,,,,,,,,,,,61035baf05c0521abd331da4,6103666e1ea997a57592113f,2021-07-30_03h44.50.284,Simcolourproject_2stim_asymm_v5,2020.2.10,Win32,60,61025ae37ef11b136ea224fe,,,,,,,,,3892,17.33339361,75.3333045,1,0,0,response1disk,,7,-2.666606983,5.333322763,1,0,0,rectangle,-2.666606983,5.333322763,1,0,0,-2.666606983,5.333322763,1,0,0,0,68,68,41,1,,,,,,,,
,,,,,,,,,,,,,FF,,,,,,,,0.7669,,,,,,,,,,,,,,,,,,,,,,61035baf05c0521abd331da4,6103666e1ea997a57592113f,2021-07-30_03h44.50.284,Simcolourproject_2stim_asymm_v5,2020.2.10,Win32,60,61025ae37ef11b136ea224fe,,,,,,,,,2015,26.00001985,69.99999136,1,0,0,response1disk,,7,-8.666607161,1.999989331,1,0,0,rectangle,-8.666607161,1.999989331,1,0,0,-8.666607161,1.999989331,1,0,0,0,69,69,37,1,,,,,,,,
,,,,,,,,,,,,,FF,,,,,,,,1.3326,,,,,,,,,,,,,,,,,,,,,,61035baf05c0521abd331da4,6103666e1ea997a57592113f,2021-07-30_03h44.50.284,Simcolourproject_2stim_asymm_v5,2020.2.10,Win32,60,61025ae37ef11b136ea224fe,,,,,,,,,4163,25.33339385,-79.33334643,1,0,0,response3disk,,4,-1.999980986,6.666656137,1,0,0,rectangle,-1.999980986,6.666656137,1,0,0,-1.999980986,6.666656137,1,0,0,0,70,70,142,1,,,,,,,,
,,,,,,,,,,,,,FF,,,,,,,,4.4159,,,,,,,,,,,,,,,,,,,,,,61035baf05c0521abd331da4,6103666e1ea997a57592113f,2021-07-30_03h44.50.284,Simcolourproject_2stim_asymm_v5,2020.2.10,Win32,60,61025ae37ef11b136ea224fe,,,,,,,,,2548,55.33335406,-84.66667992,1,0,0,response3disk,,4,-1.999980986,9.333322883,1,0,0,rectangle,-1.999980986,9.333322883,1,0,0,-1.999980986,9.333322883,1,0,0,0,71,71,109,1,,,,,,,,
,,,,,,,,,,,,,FF,,,,,,,,1.1998,,,,,,,,,,,,,,,,,,,,,,61035baf05c0521abd331da4,6103666e1ea997a57592113f,2021-07-30_03h44.50.284,Simcolourproject_2stim_asymm_v5,2020.2.10,Win32,60,61025ae37ef11b136ea224fe,,,,,,,,,2989,18.00001961,86.66665852,1,0,0,response1disk,,7,-1.3333143,3.99998939,1,0,0,rectangle,-1.3333143,3.99998939,1,0,0,-1.3333143,3.99998939,1,0,0,0,72,72,67,1,,,,,,,,
,,,,,,,,,,,,,FF,,,,,,,,4.3827,,,,,,,,,,,,,,,,,,,,,,61035baf05c0521abd331da4,6103666e1ea997a57592113f,2021-07-30_03h44.50.284,Simcolourproject_2stim_asymm_v5,2020.2.10,Win32,60,61025ae37ef11b136ea224fe,,,,,,,,,1536,40.66668695,-68.00001276,1,0,0,response3disk,,4,14.66668618,5.99998945,1,0,0,rectangle,14.66668618,5.99998945,1,0,0,14.66668618,5.99998945,1,0,0,0,73,73,100,1,,,,,,,,
,,,,,,,,,,,,,FF,,,,,,,,1.0668,,,,,,,,,,,,,,,,,,,,,,61035baf05c0521abd331da4,6103666e1ea997a57592113f,2021-07-30_03h44.50.284,Simcolourproject_2stim_asymm_v5,2020.2.10,Win32,60,61025ae37ef11b136ea224fe,,,,,,,,,1545,32.00002003,49.33330373,1,0,0,response1disk,,7,0.66668576,0.666655958,1,0,0,rectangle,0.66668576,0.666655958,1,0,0,0.66668576,0.666655958,1,0,0,0,74,74,56,1,,,,,,,,
,,,,,,,,,,,,,FF,,,,,,,,4.0998,,,,,,,,,,,,,,,,,,,,,,61035baf05c0521abd331da4,6103666e1ea997a57592113f,2021-07-30_03h44.50.284,Simcolourproject_2stim_asymm_v5,2020.2.10,Win32,60,61025ae37ef11b136ea224fe,,,,,,,,,610,45.33335376,-16.00001121,1,0,0,response3disk,,5,-12.66660728,-8.666677654,1,0,0,rectangle,-12.66660728,-8.666677654,1,0,0,-12.66660728,-8.666677654,1,0,0,0,75,75,49,1,,,,,,,,
,,,,,,,,,,,,,FF,,,,,,,,4.4773,,,,,,,,,,,,,,,,,,,,,,61035baf05c0521abd331da4,6103666e1ea997a57592113f,2021-07-30_03h44.50.284,Simcolourproject_2stim_asymm_v5,2020.2.10,Win32,60,61025ae37ef11b136ea224fe,,,,,,,,,1119,84.66668826,-35.33334512,1,0,0,response3disk,,5,-8.666607161,-3.333344162,1,0,0,rectangle,-8.666607161,-3.333344162,1,0,0,-8.666607161,-3.333344162,1,0,0,0,76,76,129,1,,,,,,,,
,,,,,,,,,,,,,FF,,,,,,,,0.8664,,,,,,,,,,,,,,,,,,,,,,61035baf05c0521abd331da4,6103666e1ea997a57592113f,2021-07-30_03h44.50.284,Simcolourproject_2stim_asymm_v5,2020.2.10,Win32,60,61025ae37ef11b136ea224fe,,,,,,,,,850,28.66668659,67.9999913,1,0,0,response1disk,,7,-0.666606923,-13.33334446,1,0,0,rectangle,-0.666606923,-13.33334446,1,0,0,-0.666606923,-13.33334446,1,0,0,0,77,77,62,1,,,,,,,,
,,,,,,,,,,,,,FF,,,,,,,,0.6666,,,,,,,,,,,,,,,,,,,,,,61035baf05c0521abd331da4,6103666e1ea997a57592113f,2021-07-30_03h44.50.284,Simcolourproject_2stim_asymm_v5,2020.2.10,Win32,60,61025ae37ef11b136ea224fe,,,,,,,,,842,24.66668648,56.66665763,1,0,0,response1disk,,7,-0.666606923,9.999989569,1,0,0,rectangle,-0.666606923,9.999989569,1,0,0,-0.666606923,9.999989569,1,0,0,0,78,78,22,1,,,,,,,,
,,,,,,,,,,,,,FF,,,,,,,,1.05,,,,,,,,,,,,,,,,,,,,,,61035baf05c0521abd331da4,6103666e1ea997a57592113f,2021-07-30_03h44.50.284,Simcolourproject_2stim_asymm_v5,2020.2.10,Win32,60,61025ae37ef11b136ea224fe,,,,,,,,,2169,55.33335406,-39.33334523,1,0,0,response3disk,,5,3.333393196,1.333322644,1,0,0,rectangle,3.333393196,1.333322644,1,0,0,3.333393196,1.333322644,1,0,0,0,79,79,51,1,,,,,,,,
,,,,,,,,,,,,,FF,,,,,,,,0.6834,,,,,,,,,,,,,,,,,,,,,,61035baf05c0521abd331da4,6103666e1ea997a57592113f,2021-07-30_03h44.50.284,Simcolourproject_2stim_asymm_v5,2020.2.10,Win32,60,61025ae37ef11b136ea224fe,,,,,,,,,793,24.00001979,65.33330421,1,0,0,response1disk,,7,4.666685879,8.666656196,1,0,0,rectangle,4.666685879,8.666656196,1,0,0,4.666685879,8.666656196,1,0,0,0,80,80,29,1,,,,,,,,
,,,,,,,,,,,,,FF,,,,,,,,0.6505,,,,,,,,,,,,,,,,,,,,,,61035baf05c0521abd331da4,6103666e1ea997a57592113f,2021-07-30_03h44.50.284,Simcolourproject_2stim_asymm_v5,2020.2.10,Win32,60,61025ae37ef11b136ea224fe,,,,,,,,,3760,18.00001961,36.66665703,1,0,0,response1disk,,7,-1.999980986,-11.3333444,1,0,0,rectangle,-1.999980986,-11.3333444,1,0,0,-1.999980986,-11.3333444,1,0,0,0,81,81,24,1,,,,,,,,
,,,,,,,,,,,,,FF,,,,,,,,0.9663,,,,,,,,,,,,,,,,,,,,,,61035baf05c0521abd331da4,6103666e1ea997a57592113f,2021-07-30_03h44.50.284,Simcolourproject_2stim_asymm_v5,2020.2.10,Win32,60,61025ae37ef11b136ea224fe,,,,,,,,,3488,20.00001967,59.33330403,1,0,0,response1disk,,7,-4.666607042,3.99998939,1,0,0,rectangle,-4.666607042,3.99998939,1,0,0,-4.666607042,3.99998939,1,0,0,0,82,82,14,1,,,,,,,,
,,,,,,,,,,,,,FF,,,,,,,,0.8171,,,,,,,,,,,,,,,,,,,,,,61035baf05c0521abd331da4,6103666e1ea997a57592113f,2021-07-30_03h44.50.284,Simcolourproject_2stim_asymm_v5,2020.2.10,Win32,60,61025ae37ef11b136ea224fe,,,,,,,,,206,23.33339379,61.99999112,1,0,0,response1disk,,7,3.333393196,13.333323,1,0,0,rectangle,3.333393196,13.333323,1,0,0,3.333393196,13.333323,1,0,0,0,83,83,134,1,,,,,,,,
,,,,,,,,,,,,,FF,,,,,,,,1.5072,,,,,,,,,,,,,,,,,,,,,,61035baf05c0521abd331da4,6103666e1ea997a57592113f,2021-07-30_03h44.50.284,Simcolourproject_2stim_asymm_v5,2020.2.10,Win32,60,61025ae37ef11b136ea224fe,,,,,,,,,4362,-83.99998343,23.33330295,1,0,0,response7disk,,1,-15.33331472,6.666656137,1,0,0,rectangle,-15.33331472,6.666656137,1,0,0,-15.33331472,6.666656137,1,0,0,0,84,84,71,1,,,,,,,,
,,,,,,,,,,,,,FF,,,,,,,,1.04,,,,,,,,,,,,,,,,,,,,,,61035baf05c0521abd331da4,6103666e1ea997a57592113f,2021-07-30_03h44.50.284,Simcolourproject_2stim_asymm_v5,2020.2.10,Win32,60,61025ae37ef11b136ea224fe,,,,,,,,,3731,16.66668624,58.66665769,1,0,0,response1disk,,7,6.000019252,-2.000010788,1,0,0,rectangle,6.000019252,-2.000010788,1,0,0,6.000019252,-2.000010788,1,0,0,0,85,85,47,1,,,,,,,,
,,,,,,,,,,,,,FF,,,,,,,,1.6734,,,,,,,,,,,,,,,,,,,,,,61035baf05c0521abd331da4,6103666e1ea997a57592113f,2021-07-30_03h44.50.284,Simcolourproject_2stim_asymm_v5,2020.2.10,Win32,60,61025ae37ef11b136ea224fe,,,,,,,,,632,-72.66660907,-49.33334553,1,0,0,response5disk,,2,-0.666606923,3.99998939,1,0,0,rectangle,-0.666606923,3.99998939,1,0,0,-0.666606923,3.99998939,1,0,0,0,86,86,136,1,,,,,,,,
,,,,,,,,,,,,,FF,,,,,,,,0.9335,,,,,,,,,,,,,,,,,,,,,,61035baf05c0521abd331da4,6103666e1ea997a57592113f,2021-07-30_03h44.50.284,Simcolourproject_2stim_asymm_v5,2020.2.10,Win32,60,61025ae37ef11b136ea224fe,,,,,,,,,1006,28.66668659,61.33330409,1,0,0,response1disk,,7,-3.333314359,13.333323,1,0,0,rectangle,-3.333314359,13.333323,1,0,0,-3.333314359,13.333323,1,0,0,0,87,87,85,1,,,,,,,,
,,,,,,,,,,,,,FF,,,,,,,,1.2067,,,,,,,,,,,,,,,,,,,,,,61035baf05c0521abd331da4,6103666e1ea997a57592113f,2021-07-30_03h44.50.284,Simcolourproject_2stim_asymm_v5,2020.2.10,Win32,60,61025ae37ef11b136ea224fe,,,,,,,,,1227,35.33339415,-63.33334595,1,0,0,response3disk,,4,9.333393375,-10.00001103,1,0,0,rectangle,9.333393375,-10.00001103,1,0,0,9.333393375,-10.00001103,1,0,0,0,88,88,33,1,,,,,,,,
,,,,,,,,,,,,,FF,,,,,,,,0.75,,,,,,,,,,,,,,,,,,,,,,61035baf05c0521abd331da4,6103666e1ea997a57592113f,2021-07-30_03h44.50.284,Simcolourproject_2stim_asymm_v5,2020.2.10,Win32,60,61025ae37ef11b136ea224fe,,,,,,,,,568,14.00001949,50.66665745,1,0,0,response1disk,,7,-5.999981105,12.66665632,1,0,0,rectangle,-5.999981105,12.66665632,1,0,0,-5.999981105,12.66665632,1,0,0,0,89,89,42,1,,,,,,,,
,,,,,,,,,,,,,FF,,,,,,,,0.7335,,,,,,,,,,,,,,,,,,,,,,61035baf05c0521abd331da4,6103666e1ea997a57592113f,2021-07-30_03h44.50.284,Simcolourproject_2stim_asymm_v5,2020.2.10,Win32,60,61025ae37ef11b136ea224fe,,,,,,,,,3877,28.66668659,65.99999124,1,0,0,response1disk,,7,0.66668576,13.99998969,1,0,0,rectangle,0.66668576,13.99998969,1,0,0,0.66668576,13.99998969,1,0,0,0,90,90,19,1,,,,,,,,
,,,,,,,,,,,,,FF,,,,,,,,1.0566,,,,,,,,,,,,,,,,,,,,,,61035baf05c0521abd331da4,6103666e1ea997a57592113f,2021-07-30_03h44.50.284,Simcolourproject_2stim_asymm_v5,2020.2.10,Win32,60,61025ae37ef11b136ea224fe,,,,,,,,,3678,56.00002074,-32.00001168,1,0,0,response3disk,,5,-12.66660728,1.999989331,1,0,0,rectangle,-12.66660728,1.999989331,1,0,0,-12.66660728,1.999989331,1,0,0,0,91,91,93,1,,,,,,,,
,,,,,,,,,,,,,FF,,,,,,,,0.7999,,,,,,,,,,,,,,,,,,,,,,61035baf05c0521abd331da4,6103666e1ea997a57592113f,2021-07-30_03h44.50.284,Simcolourproject_2stim_asymm_v5,2020.2.10,Win32,60,61025ae37ef11b136ea224fe,,,,,,,,,1181,30.66668665,73.33330444,1,0,0,response1disk,,7,-1.3333143,-1.07288E-05,1,0,0,rectangle,-1.3333143,-1.07288E-05,1,0,0,-1.3333143,-1.07288E-05,1,0,0,0,92,92,113,1,,,,,,,,
,,,,,,,,,,,,,FF,,,,,,,,1.4332,,,,,,,,,,,,,,,,,,,,,,61035baf05c0521abd331da4,6103666e1ea997a57592113f,2021-07-30_03h44.50.284,Simcolourproject_2stim_asymm_v5,2020.2.10,Win32,60,61025ae37ef11b136ea224fe,,,,,,,,,4029,62.66668761,-41.33334529,1,0,0,response3disk,,5,3.333393196,5.99998945,1,0,0,rectangle,3.333393196,5.99998945,1,0,0,3.333393196,5.99998945,1,0,0,0,93,93,158,1,,,,,,,,
,,,,,,,,,,,,,FF,,,,,,,,0.6334,,,,,,,,,,,,,,,,,,,,,,61035baf05c0521abd331da4,6103666e1ea997a57592113f,2021-07-30_03h44.50.284,Simcolourproject_2stim_asymm_v5,2020.2.10,Win32,60,61025ae37ef11b136ea224fe,,,,,,,,,745,24.00001979,56.66665763,1,0,0,response1disk,,7,6.666685939,10.66665626,1,0,0,rectangle,6.666685939,10.66665626,1,0,0,6.666685939,10.66665626,1,0,0,0,94,94,119,1,,,,,,,,
,,,,,,,,,,,,,FF,,,,,,,,1.7657,,,,,,,,,,,,,,,,,,,,,,61035baf05c0521abd331da4,6103666e1ea997a57592113f,2021-07-30_03h44.50.284,Simcolourproject_2stim_asymm_v5,2020.2.10,Win32,60,61025ae37ef11b136ea224fe,,,,,,,,,2397,66.66668773,25.33330301,1,0,0,response1disk,,6,-12.66660728,9.333322883,1,0,0,rectangle,-12.66660728,9.333322883,1,0,0,-12.66660728,9.333322883,1,0,0,0,95,95,43,1,,,,,,,,
,,,,,,,,,,,,,FF,,,,,,,,2.5566,,,,,,,,,,,,,,,,,,,,,,61035baf05c0521abd331da4,6103666e1ea997a57592113f,2021-07-30_03h44.50.284,Simcolourproject_2stim_asymm_v5,2020.2.10,Win32,60,61025ae37ef11b136ea224fe,,,,,,,,,3149,22.00001973,-76.00001299,1,0,0,response3disk,,4,-3.999981046,-1.07288E-05,1,0,0,rectangle,-3.999981046,-1.07288E-05,1,0,0,-3.999981046,-1.07288E-05,1,0,0,0,96,96,118,1,,,,,,,,
,,,,,,,,,,,,,FF,,,,,,,,1.1999,,,,,,,,,,,,,,,,,,,,,,61035baf05c0521abd331da4,6103666e1ea997a57592113f,2021-07-30_03h44.50.284,Simcolourproject_2stim_asymm_v5,2020.2.10,Win32,60,61025ae37ef11b136ea224fe,,,,,,,,,3251,-35.33331531,-76.00001299,1,0,0,response5disk,,3,-13.33331466,9.333322883,1,0,0,rectangle,-13.33331466,9.333322883,1,0,0,-13.33331466,9.333322883,1,0,0,0,97,97,76,1,,,,,,,,
,,,,,,,,,,,,,FF,,,,,,,,1.0339,,,,,,,,,,,,,,,,,,,,,,61035baf05c0521abd331da4,6103666e1ea997a57592113f,2021-07-30_03h44.50.284,Simcolourproject_2stim_asymm_v5,2020.2.10,Win32,60,61025ae37ef11b136ea224fe,,,,,,,,,1847,14.00001949,69.99999136,1,0,0,response1disk,,7,-3.333314359,7.99998951,1,0,0,rectangle,-76.66660919,-30.66667831,1,0,0,-18.66660746,5.333322763,1,0,0,0,98,98,31,1,,response5disk_3,TRUE,2,2,"[323,30,149,205,17,123,265,200,232,48,321,232,186,114,0,124,125,258,99,160]",1.8002,rectangle
,,,,,,,,,,,,,FF,,,,,,,,1.817,,,,,,,,,,,,,,,,,,,,,,61035baf05c0521abd331da4,6103666e1ea997a57592113f,2021-07-30_03h44.50.284,Simcolourproject_2stim_asymm_v5,2020.2.10,Win32,60,61025ae37ef11b136ea224fe,,,,,,,,,2710,29.33339397,-68.66667944,1,0,0,response3disk,,4,-5.999981105,1.999989331,1,0,0,rectangle,-5.999981105,1.999989331,1,0,0,-5.999981105,1.999989331,1,0,0,0,99,99,96,1,,,,,,,,
,,,,,,,,,,,,,FF,,,,,,,,0.7668,,,,,,,,,,,,,,,,,,,,,,61035baf05c0521abd331da4,6103666e1ea997a57592113f,2021-07-30_03h44.50.284,Simcolourproject_2stim_asymm_v5,2020.2.10,Win32,60,61025ae37ef11b136ea224fe,,,,,,,,,1178,36.00002015,62.66665781,1,0,0,response1disk,,7,-0.666606923,9.333322883,1,0,0,rectangle,-0.666606923,9.333322883,1,0,0,-0.666606923,9.333322883,1,0,0,0,100,100,152,1,,,,,,,,
,,,,,,,,,,,,,FF,,,,,,,,1.7832,,,,,,,,,,,,,,,,,,,,,,61035baf05c0521abd331da4,6103666e1ea997a57592113f,2021-07-30_03h44.50.284,Simcolourproject_2stim_asymm_v5,2020.2.10,Win32,60,61025ae37ef11b136ea224fe,,,,,,,,,544,58.0000208,29.33330313,1,0,0,response1disk,,6,-1.999980986,1.333322644,1,0,0,rectangle,-1.999980986,1.333322644,1,0,0,-1.999980986,1.333322644,1,0,0,0,101,101,115,1,,,,,,,,
,,,,,,,,,,,,,FF,,,,,,,,2.0334,,,,,,,,,,,,,,,,,,,,,,61035baf05c0521abd331da4,6103666e1ea997a57592113f,2021-07-30_03h44.50.284,Simcolourproject_2stim_asymm_v5,2020.2.10,Win32,60,61025ae37ef11b136ea224fe,,,,,,,,,1117,58.66668749,35.99999034,1,0,0,response1disk,,6,-7.999981165,11.99998963,1,0,0,rectangle,-7.999981165,11.99998963,1,0,0,-7.999981165,11.99998963,1,0,0,0,102,102,87,1,,,,,,,,
,,,,,,,,,,,,,FF,,,,,,,,1.2667,,,,,,,,,,,,,,,,,,,,,,61035baf05c0521abd331da4,6103666e1ea997a57592113f,2021-07-30_03h44.50.284,Simcolourproject_2stim_asymm_v5,2020.2.10,Win32,60,61025ae37ef11b136ea224fe,,,,,,,,,2127,22.66668642,64.66665787,1,0,0,response1disk,,7,-6.666607102,9.999989569,1,0,0,rectangle,-6.666607102,9.999989569,1,0,0,-6.666607102,9.999989569,1,0,0,0,103,103,131,1,,,,,,,,
,,,,,,,,,,,,,FF,,,,,,,,1.3334,,,,,,,,,,,,,,,,,,,,,,61035baf05c0521abd331da4,6103666e1ea997a57592113f,2021-07-30_03h44.50.284,Simcolourproject_2stim_asymm_v5,2020.2.10,Win32,60,61025ae37ef11b136ea224fe,,,,,,,,,3071,22.66668642,59.99999106,1,0,0,response1disk,,7,1.333393137,13.99998969,1,0,0,rectangle,1.333393137,13.99998969,1,0,0,1.333393137,13.99998969,1,0,0,0,104,104,4,1,,,,,,,,
,,,,,,,,,,,,,FF,,,,,,,,1.3735,,,,,,,,,,,,,,,,,,,,,,61035baf05c0521abd331da4,6103666e1ea997a57592113f,2021-07-30_03h44.50.284,Simcolourproject_2stim_asymm_v5,2020.2.10,Win32,60,61025ae37ef11b136ea224fe,,,,,,,,,3100,-50.66660841,-59.33334583,1,0,0,response5disk,,3,-1.999980986,-2.000010788,1,0,0,rectangle,-1.999980986,-2.000010788,1,0,0,-1.999980986,-2.000010788,1,0,0,0,105,105,63,1,,,,,,,,
,,,,,,,,,,,,,FF,,,,,,,,1.45,,,,,,,,,,,,,,,,,,,,,,61035baf05c0521abd331da4,6103666e1ea997a57592113f,2021-07-30_03h44.50.284,Simcolourproject_2stim_asymm_v5,2020.2.10,Win32,60,61025ae37ef11b136ea224fe,,,,,,,,,456,-79.99998331,-39.33334523,1,0,0,response5disk,,2,-5.999981105,2.666656017,1,0,0,rectangle,-5.999981105,2.666656017,1,0,0,-5.999981105,2.666656017,1,0,0,0,106,106,125,1,,,,,,,,
,,,,,,,,,,,,,FF,,,,,,,,1.2168,,,,,,,,,,,,,,,,,,,,,,61035baf05c0521abd331da4,6103666e1ea997a57592113f,2021-07-30_03h44.50.284,Simcolourproject_2stim_asymm_v5,2020.2.10,Win32,60,61025ae37ef11b136ea224fe,,,,,,,,,2602,-49.33331573,-72.00001287,1,0,0,response5disk,,3,-3.999981046,-5.333344221,1,0,0,rectangle,-3.999981046,-5.333344221,1,0,0,-3.999981046,-5.333344221,1,0,0,0,107,107,103,1,,,,,,,,
,,,,,,,,,,,,,FF,,,,,,,,0.8667,,,,,,,,,,,,,,,,,,,,,,61035baf05c0521abd331da4,6103666e1ea997a57592113f,2021-07-30_03h44.50.284,Simcolourproject_2stim_asymm_v5,2020.2.10,Win32,60,61025ae37ef11b136ea224fe,,,,,,,,,2676,20.00001967,59.99999106,1,0,0,response1disk,,7,-5.999981105,-6.666677594,1,0,0,rectangle,-5.999981105,-6.666677594,1,0,0,-5.999981105,-6.666677594,1,0,0,0,108,108,75,1,,,,,,,,
,,,,,,,,,,,,,FF,,,,,,,,1.2,,,,,,,,,,,,,,,,,,,,,,61035baf05c0521abd331da4,6103666e1ea997a57592113f,2021-07-30_03h44.50.284,Simcolourproject_2stim_asymm_v5,2020.2.10,Win32,60,61025ae37ef11b136ea224fe,,,,,,,,,1769,42.66668701,38.66665709,1,0,0,response1disk,,6,0.66668576,5.99998945,1,0,0,rectangle,0.66668576,5.99998945,1,0,0,0.66668576,5.99998945,1,0,0,0,109,109,123,1,,,,,,,,
,,,,,,,,,,,,,FF,,,,,,,,0.8997,,,,,,,,,,,,,,,,,,,,,,61035baf05c0521abd331da4,6103666e1ea997a57592113f,2021-07-30_03h44.50.284,Simcolourproject_2stim_asymm_v5,2020.2.10,Win32,60,61025ae37ef11b136ea224fe,,,,,,,,,2134,23.33339379,69.33330433,1,0,0,response1disk,,7,-1.999980986,7.99998951,1,0,0,rectangle,-1.999980986,7.99998951,1,0,0,-1.999980986,7.99998951,1,0,0,0,110,110,55,1,,,,,,,,
,,,,,,,,,,,,,FF,,,,,,,,1.4999,,,,,,,,,,,,,,,,,,,,,,61035baf05c0521abd331da4,6103666e1ea997a57592113f,2021-07-30_03h44.50.284,Simcolourproject_2stim_asymm_v5,2020.2.10,Win32,60,61025ae37ef11b136ea224fe,,,,,,,,,1902,66.00002104,-56.0000124,1,0,0,response3disk,,5,20.00001967,3.333322704,1,0,0,rectangle,20.00001967,3.333322704,1,0,0,20.00001967,3.333322704,1,0,0,0,111,111,122,1,,,,,,,,
,,,,,,,,,,,,,FF,,,,,,,,1.1831,,,,,,,,,,,,,,,,,,,,,,61035baf05c0521abd331da4,6103666e1ea997a57592113f,2021-07-30_03h44.50.284,Simcolourproject_2stim_asymm_v5,2020.2.10,Win32,60,61025ae37ef11b136ea224fe,,,,,,,,,2419,-42.66660817,-56.0000124,1,0,0,response5disk,,3,-1.999980986,-12.66667777,1,0,0,rectangle,-1.999980986,-12.66667777,1,0,0,-1.999980986,-12.66667777,1,0,0,0,112,112,126,1,,,,,,,,
,,,,,,,,,,,,,FF,,,,,,,,1.8445,,,,,,,,,,,,,,,,,,,,,,61035baf05c0521abd331da4,6103666e1ea997a57592113f,2021-07-30_03h44.50.284,Simcolourproject_2stim_asymm_v5,2020.2.10,Win32,60,61025ae37ef11b136ea224fe,,,,,,,,,4129,78.0000214,-36.0000118,1,0,0,response3disk,,5,11.33339343,2.666656017,1,0,0,rectangle,17.33339361,-74.66667962,1,0,0,-1.3333143,-0.666677415,1,0,0,0,113,113,138,1,,response3disk_3,TRUE,4,4,"[323,30,149,205,17,123,265,200,232,48,321,232,186,114,0,124,125,258,99,160]",1.7327,rectangle
,,,,,,,,,,,,,FF,,,,,,,,1.5757,,,,,,,,,,,,,,,,,,,,,,61035baf05c0521abd331da4,6103666e1ea997a57592113f,2021-07-30_03h44.50.284,Simcolourproject_2stim_asymm_v5,2020.2.10,Win32,60,61025ae37ef11b136ea224fe,,,,,,,,,4175,28.00001991,62.66665781,1,0,0,response1disk,,7,1.9735E-05,-10.00001103,1,0,0,rectangle,1.9735E-05,-10.00001103,1,0,0,1.9735E-05,-10.00001103,1,0,0,0,114,114,107,1,,,,,,,,
,,,,,,,,,,,,,FF,,,,,,,,0.7501,,,,,,,,,,,,,,,,,,,,,,61035baf05c0521abd331da4,6103666e1ea997a57592113f,2021-07-30_03h44.50.284,Simcolourproject_2stim_asymm_v5,2020.2.10,Win32,60,61025ae37ef11b136ea224fe,,,,,,,,,2281,26.00001985,53.33330385,1,0,0,response1disk,,7,2.000019133,-0.666677415,1,0,0,rectangle,2.000019133,-0.666677415,1,0,0,2.000019133,-0.666677415,1,0,0,0,115,115,48,1,,,,,,,,
,,,,,,,,,,,,,FF,,,,,,,,1.0502,,,,,,,,,,,,,,,,,,,,,,61035baf05c0521abd331da4,6103666e1ea997a57592113f,2021-07-30_03h44.50.284,Simcolourproject_2stim_asymm_v5,2020.2.10,Win32,60,61025ae37ef11b136ea224fe,,,,,,,,,1822,-51.33331579,-52.66667897,1,0,0,response5disk,,3,-7.999981165,8.666656196,1,0,0,rectangle,-7.999981165,8.666656196,1,0,0,-7.999981165,8.666656196,1,0,0,0,116,116,18,1,,,,,,,,
,,,,,,,,,,,,,FF,,,,,,,,1.0832,,,,,,,,,,,,,,,,,,,,,,61035baf05c0521abd331da4,6103666e1ea997a57592113f,2021-07-30_03h44.50.284,Simcolourproject_2stim_asymm_v5,2020.2.10,Win32,60,61025ae37ef11b136ea224fe,,,,,,,,,1900,-35.999982,-50.66667891,1,0,0,response5disk,,3,-2.666606983,1.999989331,1,0,0,rectangle,-2.666606983,1.999989331,1,0,0,-2.666606983,1.999989331,1,0,0,0,117,117,70,1,,,,,,,,
,,,,,,,,,,,,,FF,,,,,,,,0.7832,,,,,,,,,,,,,,,,,,,,,,61035baf05c0521abd331da4,6103666e1ea997a57592113f,2021-07-30_03h44.50.284,Simcolourproject_2stim_asymm_v5,2020.2.10,Win32,60,61025ae37ef11b136ea224fe,,,,,,,,,3528,19.33339367,41.99999052,1,0,0,response1disk,,7,4.000019193,12.66665632,1,0,0,rectangle,4.000019193,12.66665632,1,0,0,4.000019193,12.66665632,1,0,0,0,118,118,23,1,,,,,,,,
,,,,,,,,,,,,,FF,,,,,,,,0.9833,,,,,,,,,,,,,,,,,,,,,,61035baf05c0521abd331da4,6103666e1ea997a57592113f,2021-07-30_03h44.50.284,Simcolourproject_2stim_asymm_v5,2020.2.10,Win32,60,61025ae37ef11b136ea224fe,,,,,,,,,3382,-73.99998313,36.66665703,1,0,0,response7disk,,1,-19.33331484,-4.000010848,1,0,0,rectangle,-19.33331484,-4.000010848,1,0,0,-19.33331484,-4.000010848,1,0,0,0,119,119,28,1,,,,,,,,
,,,,,,,,,,,,,FF,,,,,,,,0.7166,,,,,,,,,,,,,,,,,,,,,,61035baf05c0521abd331da4,6103666e1ea997a57592113f,2021-07-30_03h44.50.284,Simcolourproject_2stim_asymm_v5,2020.2.10,Win32,60,61025ae37ef11b136ea224fe,,,,,,,,,1408,33.33339409,61.33330409,1,0,0,response1disk,,7,-3.333314359,3.99998939,1,0,0,rectangle,-3.333314359,3.99998939,1,0,0,-3.333314359,3.99998939,1,0,0,0,120,120,45,1,,,,,,,,
,,,,,,,,,,,,,FF,,,,,,,,1.084,,,,,,,,,,,,,,,,,,,,,,61035baf05c0521abd331da4,6103666e1ea997a57592113f,2021-07-30_03h44.50.284,Simcolourproject_2stim_asymm_v5,2020.2.10,Win32,60,61025ae37ef11b136ea224fe,,,,,,,,,1491,34.66668677,61.99999112,1,0,0,response1disk,,7,8.000019312,5.333322763,1,0,0,rectangle,8.000019312,5.333322763,1,0,0,8.000019312,5.333322763,1,0,0,0,121,121,128,1,,,,,,,,
,,,,,,,,,,,,,FF,,,,,,,,0.8168,,,,,,,,,,,,,,,,,,,,,,61035baf05c0521abd331da4,6103666e1ea997a57592113f,2021-07-30_03h44.50.284,Simcolourproject_2stim_asymm_v5,2020.2.10,Win32,60,61025ae37ef11b136ea224fe,,,,,,,,,1663,27.33339391,69.99999136,1,0,0,response1disk,,7,0.66668576,-1.07288E-05,1,0,0,rectangle,66.66668773,-37.33334517,1,0,0,8.666685998,-2.000010788,1,0,0,0,122,122,64,1,,response3disk_3,TRUE,5,5,"[323,30,149,205,17,123,265,200,232,48,321,232,186,114,0,124,125,258,99,160]",1.4496,rectangle
,,,,,,,,,,,,,FF,,,,,,,,1.2165,,,,,,,,,,,,,,,,,,,,,,61035baf05c0521abd331da4,6103666e1ea997a57592113f,2021-07-30_03h44.50.284,Simcolourproject_2stim_asymm_v5,2020.2.10,Win32,60,61025ae37ef11b136ea224fe,,,,,,,,,546,37.33339421,-57.33334577,1,0,0,response3disk,,4,4.666685879,-6.666677594,1,0,0,rectangle,94.00002187,27.33330307,1,0,0,17.33339361,-1.07288E-05,1,0,0,0,123,123,73,1,,response1disk_3,TRUE,6,6,"[323,30,149,205,17,123,265,200,232,48,321,232,186,114,0,124,125,258,99,160]",1.4305,rectangle
,,,,,,,,,,,,,FF,,,,,,,,2.1235,,,,,,,,,,,,,,,,,,,,,,61035baf05c0521abd331da4,6103666e1ea997a57592113f,2021-07-30_03h44.50.284,Simcolourproject_2stim_asymm_v5,2020.2.10,Win32,60,61025ae37ef11b136ea224fe,,,,,,,,,2170,38.00002021,-73.33334625,1,0,0,response3disk,,4,-7.333314478,-1.333344102,1,0,0,rectangle,43.3333537,44.66665727,1,0,0,4.000019193,9.999989569,1,0,0,0,124,124,2,1,,response1disk_3,TRUE,7,6,"[323,30,149,205,17,123,265,200,232,48,321,232,186,114,0,124,125,258,99,160]",1.5499,rectangle
,,,,,,,,,,,,,FF,,,,,,,,1.0835,,,,,,,,,,,,,,,,,,,,,,61035baf05c0521abd331da4,6103666e1ea997a57592113f,2021-07-30_03h44.50.284,Simcolourproject_2stim_asymm_v5,2020.2.10,Win32,60,61025ae37ef11b136ea224fe,,,,,,,,,3834,28.00001991,70.66665804,1,0,0,response1disk,,7,1.333393137,9.333322883,1,0,0,rectangle,1.333393137,9.333322883,1,0,0,1.333393137,9.333322883,1,0,0,0,125,125,95,1,,,,,,,,
,,,,,,,,,,,,,FF,,,,,,,,0.9668,,,,,,,,,,,,,,,,,,,,,,61035baf05c0521abd331da4,6103666e1ea997a57592113f,2021-07-30_03h44.50.284,Simcolourproject_2stim_asymm_v5,2020.2.10,Win32,60,61025ae37ef11b136ea224fe,,,,,,,,,489,38.66668689,70.66665804,1,0,0,response1disk,,7,5.333393256,5.99998945,1,0,0,rectangle,5.333393256,5.99998945,1,0,0,5.333393256,5.99998945,1,0,0,0,126,126,83,1,,,,,,,,
,,,,,,,,,,,,,FF,,,,,,,,0.8,,,,,,,,,,,,,,,,,,,,,,61035baf05c0521abd331da4,6103666e1ea997a57592113f,2021-07-30_03h44.50.284,Simcolourproject_2stim_asymm_v5,2020.2.10,Win32,60,61025ae37ef11b136ea224fe,,,,,,,,,2773,28.66668659,55.99999094,1,0,0,response1disk,,7,1.333393137,12.66665632,1,0,0,rectangle,1.333393137,12.66665632,1,0,0,1.333393137,12.66665632,1,0,0,0,127,127,32,1,,,,,,,,
,,,,,,,,,,,,,FF,,,,,,,,0.7834,,,,,,,,,,,,,,,,,,,,,,61035baf05c0521abd331da4,6103666e1ea997a57592113f,2021-07-30_03h44.50.284,Simcolourproject_2stim_asymm_v5,2020.2.10,Win32,60,61025ae37ef11b136ea224fe,,,,,,,,,321,20.66668636,61.33330409,1,0,0,response1disk,,7,-3.333314359,10.66665626,1,0,0,rectangle,-3.333314359,10.66665626,1,0,0,-3.333314359,10.66665626,1,0,0,0,128,128,74,1,,,,,,,,
,,,,,,,,,,,,,FF,,,,,,,,1.55,,,,,,,,,,,,,,,,,,,,,,61035baf05c0521abd331da4,6103666e1ea997a57592113f,2021-07-30_03h44.50.284,Simcolourproject_2stim_asymm_v5,2020.2.10,Win32,60,61025ae37ef11b136ea224fe,,,,,,,,,1390,54.66668737,33.33330325,1,0,0,response1disk,,6,2.66668582,1.333322644,1,0,0,rectangle,2.66668582,1.333322644,1,0,0,2.66668582,1.333322644,1,0,0,0,129,129,112,1,,,,,,,,
,,,,,,,,,,,,,FF,,,,,,,,1.4833,,,,,,,,,,,,,,,,,,,,,,61035baf05c0521abd331da4,6103666e1ea997a57592113f,2021-07-30_03h44.50.284,Simcolourproject_2stim_asymm_v5,2020.2.10,Win32,60,61025ae37ef11b136ea224fe,,,,,,,,,4070,15.33339355,67.33330427,1,0,0,response1disk,,7,-6.666607102,-7.333344281,1,0,0,rectangle,-6.666607102,-7.333344281,1,0,0,-6.666607102,-7.333344281,1,0,0,0,130,130,91,1,,,,,,,,
,,,,,,,,,,,,,FF,,,,,,,,1.7666,,,,,,,,,,,,,,,,,,,,,,61035baf05c0521abd331da4,6103666e1ea997a57592113f,2021-07-30_03h44.50.284,Simcolourproject_2stim_asymm_v5,2020.2.10,Win32,60,61025ae37ef11b136ea224fe,,,,,,,,,1415,69.33335447,50.66665745,1,0,0,response1disk,,6,1.333393137,-6.666677594,1,0,0,rectangle,1.333393137,-6.666677594,1,0,0,1.333393137,-6.666677594,1,0,0,0,131,131,5,1,,,,,,,,
,,,,,,,,,,,,,FF,,,,,,,,0.9335,,,,,,,,,,,,,,,,,,,,,,61035baf05c0521abd331da4,6103666e1ea997a57592113f,2021-07-30_03h44.50.284,Simcolourproject_2stim_asymm_v5,2020.2.10,Win32,60,61025ae37ef11b136ea224fe,,,,,,,,,3533,23.33339379,47.9999907,1,0,0,response1disk,,7,-2.666606983,-4.000010848,1,0,0,rectangle,-2.666606983,-4.000010848,1,0,0,-2.666606983,-4.000010848,1,0,0,0,132,132,77,1,,,,,,,,
,,,,,,,,,,,,,FF,,,,,,,,1.6732,,,,,,,,,,,,,,,,,,,,,,61035baf05c0521abd331da4,6103666e1ea997a57592113f,2021-07-30_03h44.50.284,Simcolourproject_2stim_asymm_v5,2020.2.10,Win32,60,61025ae37ef11b136ea224fe,,,,,,,,,616,76.00002134,25.99999005,1,0,0,response1disk,,6,1.333393137,5.99998945,1,0,0,rectangle,1.333393137,5.99998945,1,0,0,1.333393137,5.99998945,1,0,0,0,133,133,153,1,,,,,,,,
,,,,,,,,,,,,,FF,,,,,,,,0.9333,,,,,,,,,,,,,,,,,,,,,,61035baf05c0521abd331da4,6103666e1ea997a57592113f,2021-07-30_03h44.50.284,Simcolourproject_2stim_asymm_v5,2020.2.10,Win32,60,61025ae37ef11b136ea224fe,,,,,,,,,2276,50.00002056,43.33330355,1,0,0,response1disk,,6,-8.666607161,2.666656017,1,0,0,rectangle,-8.666607161,2.666656017,1,0,0,-8.666607161,2.666656017,1,0,0,0,134,134,72,1,,,,,,,,
,,,,,,,,,,,,,FF,,,,,,,,1.4831,,,,,,,,,,,,,,,,,,,,,,61035baf05c0521abd331da4,6103666e1ea997a57592113f,2021-07-30_03h44.50.284,Simcolourproject_2stim_asymm_v5,2020.2.10,Win32,60,61025ae37ef11b136ea224fe,,,,,,,,,3492,27.33339391,72.6666581,1,0,0,response1disk,,7,-7.333314478,10.66665626,1,0,0,rectangle,-7.333314478,10.66665626,1,0,0,-7.333314478,10.66665626,1,0,0,0,135,135,40,1,,,,,,,,
,,,,,,,,,,,,,FF,,,,,,,,1.1831,,,,,,,,,,,,,,,,,,,,,,61035baf05c0521abd331da4,6103666e1ea997a57592113f,2021-07-30_03h44.50.284,Simcolourproject_2stim_asymm_v5,2020.2.10,Win32,60,61025ae37ef11b136ea224fe,,,,,,,,,1344,16.00001955,60.66665775,1,0,0,response1disk,,7,2.66668582,4.666656077,1,0,0,rectangle,2.66668582,4.666656077,1,0,0,2.66668582,4.666656077,1,0,0,0,136,136,61,1,,,,,,,,
,,,,,,,,,,,,,FF,,,,,,,,0.8003,,,,,,,,,,,,,,,,,,,,,,61035baf05c0521abd331da4,6103666e1ea997a57592113f,2021-07-30_03h44.50.284,Simcolourproject_2stim_asymm_v5,2020.2.10,Win32,60,61025ae37ef11b136ea224fe,,,,,,,,,1419,53.333354,40.66665715,1,0,0,response1disk,,6,6.666685939,11.33332294,1,0,0,rectangle,6.666685939,11.33332294,1,0,0,6.666685939,11.33332294,1,0,0,0,137,137,110,1,,,,,,,,
,,,,,,,,,,,,,FF,,,,,,,,2.8666,,,,,,,,,,,,,,,,,,,,,,61035baf05c0521abd331da4,6103666e1ea997a57592113f,2021-07-30_03h44.50.284,Simcolourproject_2stim_asymm_v5,2020.2.10,Win32,60,61025ae37ef11b136ea224fe,,,,,,,,,3463,28.66668659,75.3333045,1,0,0,response1disk,,7,9.333393375,3.99998939,1,0,0,rectangle,9.333393375,3.99998939,1,0,0,9.333393375,3.99998939,1,0,0,0,138,138,156,1,,,,,,,,
,,,,,,,,,,,,,FF,,,,,,,,0.8833,,,,,,,,,,,,,,,,,,,,,,61035baf05c0521abd331da4,6103666e1ea997a57592113f,2021-07-30_03h44.50.284,Simcolourproject_2stim_asymm_v5,2020.2.10,Win32,60,61025ae37ef11b136ea224fe,,,,,,,,,505,30.00001997,52.66665751,1,0,0,response1disk,,7,11.33339343,4.666656077,1,0,0,rectangle,11.33339343,4.666656077,1,0,0,11.33339343,4.666656077,1,0,0,0,139,139,26,1,,,,,,,,
,,,,,,,,,,,,,FF,,,,,,,,0.8169,,,,,,,,,,,,,,,,,,,,,,61035baf05c0521abd331da4,6103666e1ea997a57592113f,2021-07-30_03h44.50.284,Simcolourproject_2stim_asymm_v5,2020.2.10,Win32,60,61025ae37ef11b136ea224fe,,,,,,,,,1741,18.6666863,63.99999118,1,0,0,response1disk,,7,-3.999981046,5.333322763,1,0,0,rectangle,-3.999981046,5.333322763,1,0,0,-3.999981046,5.333322763,1,0,0,0,140,140,97,1,,,,,,,,
,,,,,,,,,,,,,FF,,,,,,,,2.8332,,,,,,,,,,,,,,,,,,,,,,61035baf05c0521abd331da4,6103666e1ea997a57592113f,2021-07-30_03h44.50.284,Simcolourproject_2stim_asymm_v5,2020.2.10,Win32,60,61025ae37ef11b136ea224fe,,,,,,,,,3243,-68.66660895,-38.66667855,1,0,0,response5disk,,2,-3.333314359,3.99998939,1,0,0,rectangle,-3.333314359,3.99998939,1,0,0,-3.333314359,3.99998939,1,0,0,0,141,141,105,1,,,,,,,,
,,,,,,,,,,,,,FF,,,,,,,,1.0065,,,,,,,,,,,,,,,,,,,,,,61035baf05c0521abd331da4,6103666e1ea997a57592113f,2021-07-30_03h44.50.284,Simcolourproject_2stim_asymm_v5,2020.2.10,Win32,60,61025ae37ef11b136ea224fe,,,,,,,,,4103,-40.66660812,-56.0000124,1,0,0,response5disk,,3,1.333393137,1.333322644,1,0,0,rectangle,1.333393137,1.333322644,1,0,0,1.333393137,1.333322644,1,0,0,0,142,142,53,1,,,,,,,,
,,,,,,,,,,,,,FF,,,,,,,,1.8165,,,,,,,,,,,,,,,,,,,,,,61035baf05c0521abd331da4,6103666e1ea997a57592113f,2021-07-30_03h44.50.284,Simcolourproject_2stim_asymm_v5,2020.2.10,Win32,60,61025ae37ef11b136ea224fe,,,,,,,,,296,36.66668683,51.99999082,1,0,0,response1disk,,7,4.000019193,-1.333344102,1,0,0,rectangle,4.000019193,-1.333344102,1,0,0,4.000019193,-1.333344102,1,0,0,0,143,143,144,1,,,,,,,,
,,,,,,,,,,,,,FF,,,,,,,,0.9835,,,,,,,,,,,,,,,,,,,,,,61035baf05c0521abd331da4,6103666e1ea997a57592113f,2021-07-30_03h44.50.284,Simcolourproject_2stim_asymm_v5,2020.2.10,Win32,60,61025ae37ef11b136ea224fe,,,,,,,,,452,66.66668773,44.66665727,1,0,0,response1disk,,6,6.666685939,1.999989331,1,0,0,rectangle,6.666685939,1.999989331,1,0,0,6.666685939,1.999989331,1,0,0,0,144,144,16,1,,,,,,,,
,,,,,,,,,,,,,FF,,,,,,,,1.1832,,,,,,,,,,,,,,,,,,,,,,61035baf05c0521abd331da4,6103666e1ea997a57592113f,2021-07-30_03h44.50.284,Simcolourproject_2stim_asymm_v5,2020.2.10,Win32,60,61025ae37ef11b136ea224fe,,,,,,,,,1833,80.00002146,-54.00001234,1,0,0,response3disk,,5,22.00001973,-10.66667771,1,0,0,rectangle,22.00001973,-10.66667771,1,0,0,22.00001973,-10.66667771,1,0,0,0,145,145,78,1,,,,,,,,
,,,,,,,,,,,,,FF,,,,,,,,1.2667,,,,,,,,,,,,,,,,,,,,,,61035baf05c0521abd331da4,6103666e1ea997a57592113f,2021-07-30_03h44.50.284,Simcolourproject_2stim_asymm_v5,2020.2.10,Win32,60,61025ae37ef11b136ea224fe,,,,,,,,,2268,54.00002068,25.99999005,1,0,0,response1disk,,6,14.00001949,9.333322883,1,0,0,rectangle,14.00001949,9.333322883,1,0,0,14.00001949,9.333322883,1,0,0,0,146,146,151,1,,,,,,,,
,,,,,,,,,,,,,FF,,,,,,,,1.2001,,,,,,,,,,,,,,,,,,,,,,61035baf05c0521abd331da4,6103666e1ea997a57592113f,2021-07-30_03h44.50.284,Simcolourproject_2stim_asymm_v5,2020.2.10,Win32,60,61025ae37ef11b136ea224fe,,,,,,,,,361,38.66668689,87.99999189,1,0,0,response1disk,,7,-8.666607161,-2.000010788,1,0,0,rectangle,-8.666607161,-2.000010788,1,0,0,-8.666607161,-2.000010788,1,0,0,0,147,147,111,1,,,,,,,,
,,,,,,,,,,,,,FF,,,,,,,,0.8567,,,,,,,,,,,,,,,,,,,,,,61035baf05c0521abd331da4,6103666e1ea997a57592113f,2021-07-30_03h44.50.284,Simcolourproject_2stim_asymm_v5,2020.2.10,Win32,60,61025ae37ef11b136ea224fe,,,,,,,,,3615,24.00001979,50.66665745,1,0,0,response1disk,,7,-4.666607042,4.666656077,1,0,0,rectangle,-77.33331656,-44.66667873,1,0,0,-13.99998134,4.666656077,1,0,0,0,148,148,147,1,,response5disk_3,TRUE,2,2,"[323,30,149,205,17,123,265,200,232,48,321,232,186,114,0,124,125,258,99,160]",1.9163,rectangle
,,,,,,,,,,,,,FF,,,,,,,,1.0069,,,,,,,,,,,,,,,,,,,,,,61035baf05c0521abd331da4,6103666e1ea997a57592113f,2021-07-30_03h44.50.284,Simcolourproject_2stim_asymm_v5,2020.2.10,Win32,60,61025ae37ef11b136ea224fe,,,,,,,,,4071,-35.33331531,79.99999166,1,0,0,response7disk,,0,-7.999981165,5.99998945,1,0,0,rectangle,-7.999981165,5.99998945,1,0,0,-7.999981165,5.99998945,1,0,0,0,149,149,1,1,,,,,,,,
,,,,,,,,,,,,,FF,,,,,,,,2.4834,,,,,,,,,,,,,,,,,,,,,,61035baf05c0521abd331da4,6103666e1ea997a57592113f,2021-07-30_03h44.50.284,Simcolourproject_2stim_asymm_v5,2020.2.10,Win32,60,61025ae37ef11b136ea224fe,,,,,,,,,4329,45.33335376,-62.00001258,1,0,0,response3disk,,4,16.66668624,2.666656017,1,0,0,rectangle,16.66668624,2.666656017,1,0,0,16.66668624,2.666656017,1,0,0,0,150,150,89,1,,,,,,,,
,,,,,,,,,,,,,FF,,,,,,,,3.2996,,,,,,,,,,,,,,,,,,,,,,61035baf05c0521abd331da4,6103666e1ea997a57592113f,2021-07-30_03h44.50.284,Simcolourproject_2stim_asymm_v5,2020.2.10,Win32,60,61025ae37ef11b136ea224fe,,,,,,,,,1200,49.33335388,51.99999082,1,0,0,response1disk,,7,-3.999981046,-0.666677415,1,0,0,rectangle,-3.999981046,-0.666677415,1,0,0,-3.999981046,-0.666677415,1,0,0,0,151,151,106,1,,,,,,,,
,,,,,,,,,,,,,FF,,,,,,,,1.0001,,,,,,,,,,,,,,,,,,,,,,61035baf05c0521abd331da4,6103666e1ea997a57592113f,2021-07-30_03h44.50.284,Simcolourproject_2stim_asymm_v5,2020.2.10,Win32,60,61025ae37ef11b136ea224fe,,,,,,,,,827,49.33335388,30.66665685,1,0,0,response1disk,,6,7.333393315,4.666656077,1,0,0,rectangle,7.333393315,4.666656077,1,0,0,7.333393315,4.666656077,1,0,0,0,152,152,101,1,,,,,,,,
,,,,,,,,,,,,,FF,,,,,,,,0.7835,,,,,,,,,,,,,,,,,,,,,,61035baf05c0521abd331da4,6103666e1ea997a57592113f,2021-07-30_03h44.50.284,Simcolourproject_2stim_asymm_v5,2020.2.10,Win32,60,61025ae37ef11b136ea224fe,,,,,,,,,3358,38.66668689,56.66665763,1,0,0,response1disk,,7,0.66668576,-5.333344221,1,0,0,rectangle,0.66668576,-5.333344221,1,0,0,0.66668576,-5.333344221,1,0,0,0,153,153,159,1,,,,,,,,
,,,,,,,,,,,,,FF,,,,,,,,0.8502,,,,,,,,,,,,,,,,,,,,,,61035baf05c0521abd331da4,6103666e1ea997a57592113f,2021-07-30_03h44.50.284,Simcolourproject_2stim_asymm_v5,2020.2.10,Win32,60,61025ae37ef11b136ea224fe,,,,,,,,,1963,-28.66660776,64.66665787,1,0,0,response7disk,,0,3.333393196,1.333322644,1,0,0,rectangle,3.333393196,1.333322644,1,0,0,3.333393196,1.333322644,1,0,0,0,154,154,155,1,,,,,,,,
,,,,,,,,,,,,,FF,,,,,,,,0.8165,,,,,,,,,,,,,,,,,,,,,,61035baf05c0521abd331da4,6103666e1ea997a57592113f,2021-07-30_03h44.50.284,Simcolourproject_2stim_asymm_v5,2020.2.10,Win32,60,61025ae37ef11b136ea224fe,,,,,,,,,3987,16.66668624,63.99999118,1,0,0,response1disk,,7,-3.333314359,-2.000010788,1,0,0,rectangle,-3.333314359,-2.000010788,1,0,0,-3.333314359,-2.000010788,1,0,0,0,155,155,146,1,,,,,,,,
,,,,,,,,,,,,,FF,,,,,,,,2.1831,,,,,,,,,,,,,,,,,,,,,,61035baf05c0521abd331da4,6103666e1ea997a57592113f,2021-07-30_03h44.50.284,Simcolourproject_2stim_asymm_v5,2020.2.10,Win32,60,61025ae37ef11b136ea224fe,,,,,,,,,2168,32.66668671,-66.0000127,1,0,0,response3disk,,4,-5.999981105,-10.00001103,1,0,0,rectangle,-5.999981105,-10.00001103,1,0,0,-5.999981105,-10.00001103,1,0,0,0,156,156,20,1,,,,,,,,
,,,,,,,,,,,,,FF,,,,,,,,2.5334,,,,,,,,,,,,,,,,,,,,,,61035baf05c0521abd331da4,6103666e1ea997a57592113f,2021-07-30_03h44.50.284,Simcolourproject_2stim_asymm_v5,2020.2.10,Win32,60,61025ae37ef11b136ea224fe,,,,,,,,,3080,66.66668773,-34.66667843,1,0,0,response3disk,,5,-6.666607102,-1.07288E-05,1,0,0,rectangle,-6.666607102,-1.07288E-05,1,0,0,-6.666607102,-1.07288E-05,1,0,0,0,157,157,86,1,,,,,,,,
,,,,,,,,,,,,,FF,,,,,,,,0.95,,,,,,,,,,,,,,,,,,,,,,61035baf05c0521abd331da4,6103666e1ea997a57592113f,2021-07-30_03h44.50.284,Simcolourproject_2stim_asymm_v5,2020.2.10,Win32,60,61025ae37ef11b136ea224fe,,,,,,,,,3072,18.00001961,57.33330397,1,0,0,response1disk,,7,1.9735E-05,9.333322883,1,0,0,rectangle,1.9735E-05,9.333322883,1,0,0,1.9735E-05,9.333322883,1,0,0,0,158,158,3,1,,,,,,,,
,,,,,,,,,,,,,FF,,,,,,,,0.9342,,,,,,,,,,,,,,,,,,,,,,61035baf05c0521abd331da4,6103666e1ea997a57592113f,2021-07-30_03h44.50.284,Simcolourproject_2stim_asymm_v5,2020.2.10,Win32,60,61025ae37ef11b136ea224fe,,,,,,,,,1430,76.00002134,-23.33334476,1,0,0,response3disk,,5,18.6666863,-5.333344221,1,0,0,rectangle,70.66668785,52.66665751,1,0,0,6.666685939,-2.000010788,1,0,0,0,159,159,60,1,,response1disk_3,TRUE,6,6,"[323,30,149,205,17,123,265,200,232,48,321,232,186,114,0,124,125,258,99,160]",1.2661,rectangle
,,,,,,,,,,,,,FF,,,,,,,,1.4067,,,,,,,,,,,,,,,,,,,,,,61035baf05c0521abd331da4,6103666e1ea997a57592113f,2021-07-30_03h44.50.284,Simcolourproject_2stim_asymm_v5,2020.2.10,Win32,60,61025ae37ef11b136ea224fe,,,,,,,,,182,24.00001979,73.99999148,1,0,0,response1disk,,7,-14.66660734,7.99998951,1,0,0,rectangle,-14.66660734,7.99998951,1,0,0,-14.66660734,7.99998951,1,0,0,1,0,160,87,1,,,,,,,,
,,,,,,,,,,,,,FF,,,,,,,,2.3,,,,,,,,,,,,,,,,,,,,,,61035baf05c0521abd331da4,6103666e1ea997a57592113f,2021-07-30_03h44.50.284,Simcolourproject_2stim_asymm_v5,2020.2.10,Win32,60,61025ae37ef11b136ea224fe,,,,,,,,,977,67.33335441,-49.33334553,1,0,0,response3disk,,5,-0.666606923,3.99998939,1,0,0,rectangle,-0.666606923,3.99998939,1,0,0,-0.666606923,3.99998939,1,0,0,1,1,161,95,1,,,,,,,,
,,,,,,,,,,,,,FF,,,,,,,,1.2499,,,,,,,,,,,,,,,,,,,,,,61035baf05c0521abd331da4,6103666e1ea997a57592113f,2021-07-30_03h44.50.284,Simcolourproject_2stim_asymm_v5,2020.2.10,Win32,60,61025ae37ef11b136ea224fe,,,,,,,,,2519,24.00001979,91.99999201,1,0,0,response1disk,,7,1.333393137,13.333323,1,0,0,rectangle,1.333393137,13.333323,1,0,0,1.333393137,13.333323,1,0,0,1,2,162,99,1,,,,,,,,
,,,,,,,,,,,,,FF,,,,,,,,1.3332,,,,,,,,,,,,,,,,,,,,,,61035baf05c0521abd331da4,6103666e1ea997a57592113f,2021-07-30_03h44.50.284,Simcolourproject_2stim_asymm_v5,2020.2.10,Win32,60,61025ae37ef11b136ea224fe,,,,,,,,,2942,38.00002021,-88.00001335,1,0,0,response3disk,,4,2.66668582,5.99998945,1,0,0,rectangle,2.66668582,5.99998945,1,0,0,2.66668582,5.99998945,1,0,0,1,3,163,50,1,,,,,,,,
,,,,,,,,,,,,,FF,,,,,,,,1.5898,,,,,,,,,,,,,,,,,,,,,,61035baf05c0521abd331da4,6103666e1ea997a57592113f,2021-07-30_03h44.50.284,Simcolourproject_2stim_asymm_v5,2020.2.10,Win32,60,61025ae37ef11b136ea224fe,,,,,,,,,1690,-40.66660812,-80.00001311,1,0,0,response5disk,,3,1.333393137,9.999989569,1,0,0,rectangle,1.333393137,9.999989569,1,0,0,1.333393137,9.999989569,1,0,0,1,4,164,84,1,,,,,,,,
,,,,,,,,,,,,,FF,,,,,,,,1.5498,,,,,,,,,,,,,,,,,,,,,,61035baf05c0521abd331da4,6103666e1ea997a57592113f,2021-07-30_03h44.50.284,Simcolourproject_2stim_asymm_v5,2020.2.10,Win32,60,61025ae37ef11b136ea224fe,,,,,,,,,2297,-49.99998242,-63.33334595,1,0,0,response5disk,,3,-1.999980986,5.333322763,1,0,0,rectangle,-1.999980986,5.333322763,1,0,0,-1.999980986,5.333322763,1,0,0,1,5,165,123,1,,,,,,,,
,,,,,,,,,,,,,FF,,,,,,,,0.8335,,,,,,,,,,,,,,,,,,,,,,61035baf05c0521abd331da4,6103666e1ea997a57592113f,2021-07-30_03h44.50.284,Simcolourproject_2stim_asymm_v5,2020.2.10,Win32,60,61025ae37ef11b136ea224fe,,,,,,,,,4008,16.66668624,67.33330427,1,0,0,response1disk,,7,11.33339343,6.666656137,1,0,0,rectangle,11.33339343,6.666656137,1,0,0,11.33339343,6.666656137,1,0,0,1,6,166,90,1,,,,,,,,
,,,,,,,,,,,,,FF,,,,,,,,0.7167,,,,,,,,,,,,,,,,,,,,,,61035baf05c0521abd331da4,6103666e1ea997a57592113f,2021-07-30_03h44.50.284,Simcolourproject_2stim_asymm_v5,2020.2.10,Win32,60,61025ae37ef11b136ea224fe,,,,,,,,,2918,29.33339397,52.66665751,1,0,0,response1disk,,7,3.333393196,4.666656077,1,0,0,rectangle,3.333393196,4.666656077,1,0,0,3.333393196,4.666656077,1,0,0,1,7,167,109,1,,,,,,,,
,,,,,,,,,,,,,FF,,,,,,,,1.4564,,,,,,,,,,,,,,,,,,,,,,61035baf05c0521abd331da4,6103666e1ea997a57592113f,2021-07-30_03h44.50.284,Simcolourproject_2stim_asymm_v5,2020.2.10,Win32,60,61025ae37ef11b136ea224fe,,,,,,,,,3567,38.66668689,34.66665697,1,0,0,response1disk,,6,-5.999981105,2.666656017,1,0,0,rectangle,-5.999981105,2.666656017,1,0,0,-5.999981105,2.666656017,1,0,0,1,8,168,39,1,,,,,,,,
,,,,,,,,,,,,,FF,,,,,,,,0.8,,,,,,,,,,,,,,,,,,,,,,61035baf05c0521abd331da4,6103666e1ea997a57592113f,2021-07-30_03h44.50.284,Simcolourproject_2stim_asymm_v5,2020.2.10,Win32,60,61025ae37ef11b136ea224fe,,,,,,,,,1433,26.00001985,31.99999022,1,0,0,response1disk,,7,-5.999981105,2.666656017,1,0,0,rectangle,-5.999981105,2.666656017,1,0,0,-5.999981105,2.666656017,1,0,0,1,9,169,18,1,,,,,,,,
,,,,,,,,,,,,,FF,,,,,,,,0.7498,,,,,,,,,,,,,,,,,,,,,,61035baf05c0521abd331da4,6103666e1ea997a57592113f,2021-07-30_03h44.50.284,Simcolourproject_2stim_asymm_v5,2020.2.10,Win32,60,61025ae37ef11b136ea224fe,,,,,,,,,686,54.00002068,38.66665709,1,0,0,response1disk,,6,9.333393375,4.666656077,1,0,0,rectangle,9.333393375,4.666656077,1,0,0,9.333393375,4.666656077,1,0,0,1,10,170,11,1,,,,,,,,
,,,,,,,,,,,,,FF,,,,,,,,2.3834,,,,,,,,,,,,,,,,,,,,,,61035baf05c0521abd331da4,6103666e1ea997a57592113f,2021-07-30_03h44.50.284,Simcolourproject_2stim_asymm_v5,2020.2.10,Win32,60,61025ae37ef11b136ea224fe,,,,,,,,,1828,-64.66660883,-88.00001335,1,0,0,response5disk,,3,8.666685998,0.666655958,1,0,0,rectangle,8.666685998,0.666655958,1,0,0,8.666685998,0.666655958,1,0,0,1,11,171,6,1,,,,,,,,
,,,,,,,,,,,,,FF,,,,,,,,0.8568,,,,,,,,,,,,,,,,,,,,,,61035baf05c0521abd331da4,6103666e1ea997a57592113f,2021-07-30_03h44.50.284,Simcolourproject_2stim_asymm_v5,2020.2.10,Win32,60,61025ae37ef11b136ea224fe,,,,,,,,,2057,21.33339373,67.9999913,1,0,0,response1disk,,7,4.666685879,8.666656196,1,0,0,rectangle,4.666685879,8.666656196,1,0,0,4.666685879,8.666656196,1,0,0,1,12,172,5,1,,,,,,,,
,,,,,,,,,,,,,FF,,,,,,,,1.2732,,,,,,,,,,,,,,,,,,,,,,61035baf05c0521abd331da4,6103666e1ea997a57592113f,2021-07-30_03h44.50.284,Simcolourproject_2stim_asymm_v5,2020.2.10,Win32,60,61025ae37ef11b136ea224fe,,,,,,,,,4062,24.00001979,65.99999124,1,0,0,response1disk,,7,3.333393196,9.333322883,1,0,0,rectangle,3.333393196,9.333322883,1,0,0,3.333393196,9.333322883,1,0,0,1,13,173,111,1,,,,,,,,
,,,,,,,,,,,,,FF,,,,,,,,5.7494,,,,,,,,,,,,,,,,,,,,,,61035baf05c0521abd331da4,6103666e1ea997a57592113f,2021-07-30_03h44.50.284,Simcolourproject_2stim_asymm_v5,2020.2.10,Win32,60,61025ae37ef11b136ea224fe,,,,,,,,,1687,46.00002044,-22.00001138,1,0,0,response3disk,,5,14.00001949,-4.666677535,1,0,0,rectangle,14.00001949,-4.666677535,1,0,0,14.00001949,-4.666677535,1,0,0,1,14,174,61,1,,,,,,,,
,,,,,,,,,,,,,FF,,,,,,,,3.5995,,,,,,,,,,,,,,,,,,,,,,61035baf05c0521abd331da4,6103666e1ea997a57592113f,2021-07-30_03h44.50.284,Simcolourproject_2stim_asymm_v5,2020.2.10,Win32,60,61025ae37ef11b136ea224fe,,,,,,,,,4073,47.33335382,-21.3333447,1,0,0,response3disk,,5,18.6666863,-5.333344221,1,0,0,rectangle,18.6666863,-5.333344221,1,0,0,18.6666863,-5.333344221,1,0,0,1,15,175,54,1,,,,,,,,
,,,,,,,,,,,,,FF,,,,,,,,2.2333,,,,,,,,,,,,,,,,,,,,,,61035baf05c0521abd331da4,6103666e1ea997a57592113f,2021-07-30_03h44.50.284,Simcolourproject_2stim_asymm_v5,2020.2.10,Win32,60,61025ae37ef11b136ea224fe,,,,,,,,,2816,48.66668719,36.66665703,1,0,0,response1disk,,6,-13.99998134,-2.000010788,1,0,0,rectangle,-13.99998134,-2.000010788,1,0,0,-13.99998134,-2.000010788,1,0,0,1,16,176,94,1,,,,,,,,
,,,,,,,,,,,,,FF,,,,,,,,0.95,,,,,,,,,,,,,,,,,,,,,,61035baf05c0521abd331da4,6103666e1ea997a57592113f,2021-07-30_03h44.50.284,Simcolourproject_2stim_asymm_v5,2020.2.10,Win32,60,61025ae37ef11b136ea224fe,,,,,,,,,3843,-27.33331507,96.66665882,1,0,0,response7disk,,0,-0.666606923,2.666656017,1,0,0,rectangle,-0.666606923,2.666656017,1,0,0,-0.666606923,2.666656017,1,0,0,1,17,177,120,1,,,,,,,,
,,,,,,,,,,,,,FF,,,,,,,,1.1342,,,,,,,,,,,,,,,,,,,,,,61035baf05c0521abd331da4,6103666e1ea997a57592113f,2021-07-30_03h44.50.284,Simcolourproject_2stim_asymm_v5,2020.2.10,Win32,60,61025ae37ef11b136ea224fe,,,,,,,,,317,20.00001967,85.3333048,1,0,0,response1disk,,7,2.66668582,-5.333344221,1,0,0,rectangle,2.66668582,-5.333344221,1,0,0,2.66668582,-5.333344221,1,0,0,1,18,178,45,1,,,,,,,,
,,,,,,,,,,,,,FF,,,,,,,,1.3331,,,,,,,,,,,,,,,,,,,,,,61035baf05c0521abd331da4,6103666e1ea997a57592113f,2021-07-30_03h44.50.284,Simcolourproject_2stim_asymm_v5,2020.2.10,Win32,60,61025ae37ef11b136ea224fe,,,,,,,,,3778,-76.66660919,-40.66667861,1,0,0,response5disk,,2,-0.666606923,9.999989569,1,0,0,rectangle,-0.666606923,9.999989569,1,0,0,-0.666606923,9.999989569,1,0,0,1,19,179,52,1,,,,,,,,
,,,,,,,,,,,,,FF,,,,,,,,0.9,,,,,,,,,,,,,,,,,,,,,,61035baf05c0521abd331da4,6103666e1ea997a57592113f,2021-07-30_03h44.50.284,Simcolourproject_2stim_asymm_v5,2020.2.10,Win32,60,61025ae37ef11b136ea224fe,,,,,,,,,1779,26.66668653,63.99999118,1,0,0,response1disk,,7,-1.3333143,3.333322704,1,0,0,rectangle,-1.3333143,3.333322704,1,0,0,-1.3333143,3.333322704,1,0,0,1,20,180,129,1,,,,,,,,
,,,,,,,,,,,,,FF,,,,,,,,0.8835,,,,,,,,,,,,,,,,,,,,,,61035baf05c0521abd331da4,6103666e1ea997a57592113f,2021-07-30_03h44.50.284,Simcolourproject_2stim_asymm_v5,2020.2.10,Win32,60,61025ae37ef11b136ea224fe,,,,,,,,,3973,22.00001973,57.33330397,1,0,0,response1disk,,7,-11.99998128,13.333323,1,0,0,rectangle,-11.99998128,13.333323,1,0,0,-11.99998128,13.333323,1,0,0,1,21,181,56,1,,,,,,,,
,,,,,,,,,,,,,FF,,,,,,,,1.0166,,,,,,,,,,,,,,,,,,,,,,61035baf05c0521abd331da4,6103666e1ea997a57592113f,2021-07-30_03h44.50.284,Simcolourproject_2stim_asymm_v5,2020.2.10,Win32,60,61025ae37ef11b136ea224fe,,,,,,,,,1388,18.00001961,59.99999106,1,0,0,response1disk,,7,2.66668582,-1.333344102,1,0,0,rectangle,2.66668582,-1.333344102,1,0,0,2.66668582,-1.333344102,1,0,0,1,22,182,47,1,,,,,,,,
,,,,,,,,,,,,,FF,,,,,,,,0.884,,,,,,,,,,,,,,,,,,,,,,61035baf05c0521abd331da4,6103666e1ea997a57592113f,2021-07-30_03h44.50.284,Simcolourproject_2stim_asymm_v5,2020.2.10,Win32,60,61025ae37ef11b136ea224fe,,,,,,,,,3175,22.66668642,49.99999076,1,0,0,response1disk,,7,-5.333314419,-11.3333444,1,0,0,rectangle,-5.333314419,-11.3333444,1,0,0,-5.333314419,-11.3333444,1,0,0,1,23,183,157,1,,,,,,,,
,,,,,,,,,,,,,FF,,,,,,,,0.8335,,,,,,,,,,,,,,,,,,,,,,61035baf05c0521abd331da4,6103666e1ea997a57592113f,2021-07-30_03h44.50.284,Simcolourproject_2stim_asymm_v5,2020.2.10,Win32,60,61025ae37ef11b136ea224fe,,,,,,,,,2250,22.00001973,63.99999118,1,0,0,response1disk,,7,-5.333314419,-0.666677415,1,0,0,rectangle,-5.333314419,-0.666677415,1,0,0,-5.333314419,-0.666677415,1,0,0,1,24,184,40,1,,,,,,,,
,,,,,,,,,,,,,FF,,,,,,,,3.0664,,,,,,,,,,,,,,,,,,,,,,61035baf05c0521abd331da4,6103666e1ea997a57592113f,2021-07-30_03h44.50.284,Simcolourproject_2stim_asymm_v5,2020.2.10,Win32,60,61025ae37ef11b136ea224fe,,,,,,,,,1710,29.33339397,89.33330492,1,0,0,response1disk,,7,-5.999981105,3.99998939,1,0,0,rectangle,32.00002003,-72.00001287,1,0,0,8.000019312,-8.000010967,1,0,0,1,25,185,118,1,,response3disk_3,TRUE,4,4,"[323,30,149,205,17,123,265,200,232,48,321,232,186,114,0,124,125,258,99,160]",1.3396,rectangle
,,,,,,,,,,,,,FF,,,,,,,,1.1336,,,,,,,,,,,,,,,,,,,,,,61035baf05c0521abd331da4,6103666e1ea997a57592113f,2021-07-30_03h44.50.284,Simcolourproject_2stim_asymm_v5,2020.2.10,Win32,60,61025ae37ef11b136ea224fe,,,,,,,,,212,80.66668814,58.66665769,1,0,0,response1disk,,6,16.66668624,9.999989569,1,0,0,rectangle,16.66668624,9.999989569,1,0,0,16.66668624,9.999989569,1,0,0,1,26,186,16,1,,,,,,,,
,,,,,,,,,,,,,FF,,,,,,,,0.8335,,,,,,,,,,,,,,,,,,,,,,61035baf05c0521abd331da4,6103666e1ea997a57592113f,2021-07-30_03h44.50.284,Simcolourproject_2stim_asymm_v5,2020.2.10,Win32,60,61025ae37ef11b136ea224fe,,,,,,,,,3466,24.66668648,55.99999094,1,0,0,response1disk,,7,-13.33331466,-5.333344221,1,0,0,rectangle,-13.33331466,-5.333344221,1,0,0,-13.33331466,-5.333344221,1,0,0,1,27,187,73,1,,,,,,,,
,,,,,,,,,,,,,FF,,,,,,,,0.9835,,,,,,,,,,,,,,,,,,,,,,61035baf05c0521abd331da4,6103666e1ea997a57592113f,2021-07-30_03h44.50.284,Simcolourproject_2stim_asymm_v5,2020.2.10,Win32,60,61025ae37ef11b136ea224fe,,,,,,,,,398,14.00001949,69.33330433,1,0,0,response1disk,,7,-1.3333143,13.333323,1,0,0,rectangle,-1.3333143,13.333323,1,0,0,-1.3333143,13.333323,1,0,0,1,28,188,35,1,,,,,,,,
,,,,,,,,,,,,,FF,,,,,,,,0.717,,,,,,,,,,,,,,,,,,,,,,61035baf05c0521abd331da4,6103666e1ea997a57592113f,2021-07-30_03h44.50.284,Simcolourproject_2stim_asymm_v5,2020.2.10,Win32,60,61025ae37ef11b136ea224fe,,,,,,,,,3685,20.66668636,49.99999076,1,0,0,response1disk,,7,-0.666606923,9.333322883,1,0,0,rectangle,-0.666606923,9.333322883,1,0,0,-0.666606923,9.333322883,1,0,0,1,29,189,3,1,,,,,,,,
,,,,,,,,,,,,,FF,,,,,,,,1.1499,,,,,,,,,,,,,,,,,,,,,,61035baf05c0521abd331da4,6103666e1ea997a57592113f,2021-07-30_03h44.50.284,Simcolourproject_2stim_asymm_v5,2020.2.10,Win32,60,61025ae37ef11b136ea224fe,,,,,,,,,4294,-39.99998212,-52.00001228,1,0,0,response5disk,,3,-8.666607161,4.666656077,1,0,0,rectangle,-8.666607161,4.666656077,1,0,0,-8.666607161,4.666656077,1,0,0,1,30,190,51,1,,,,,,,,
,,,,,,,,,,,,,FF,,,,,,,,0.6667,,,,,,,,,,,,,,,,,,,,,,61035baf05c0521abd331da4,6103666e1ea997a57592113f,2021-07-30_03h44.50.284,Simcolourproject_2stim_asymm_v5,2020.2.10,Win32,60,61025ae37ef11b136ea224fe,,,,,,,,,492,16.00001955,57.33330397,1,0,0,response1disk,,7,-0.666606923,11.33332294,1,0,0,rectangle,-0.666606923,11.33332294,1,0,0,-0.666606923,11.33332294,1,0,0,1,31,191,31,1,,,,,,,,
,,,,,,,,,,,,,FF,,,,,,,,0.9669,,,,,,,,,,,,,,,,,,,,,,61035baf05c0521abd331da4,6103666e1ea997a57592113f,2021-07-30_03h44.50.284,Simcolourproject_2stim_asymm_v5,2020.2.10,Win32,60,61025ae37ef11b136ea224fe,,,,,,,,,674,22.00001973,63.99999118,1,0,0,response1disk,,7,2.66668582,-4.000010848,1,0,0,rectangle,2.66668582,-4.000010848,1,0,0,2.66668582,-4.000010848,1,0,0,1,32,192,140,1,,,,,,,,
,,,,,,,,,,,,,FF,,,,,,,,0.9834,,,,,,,,,,,,,,,,,,,,,,61035baf05c0521abd331da4,6103666e1ea997a57592113f,2021-07-30_03h44.50.284,Simcolourproject_2stim_asymm_v5,2020.2.10,Win32,60,61025ae37ef11b136ea224fe,,,,,,,,,1063,49.33335388,-56.0000124,1,0,0,response3disk,,4,23.33339379,2.666656017,1,0,0,rectangle,23.33339379,2.666656017,1,0,0,23.33339379,2.666656017,1,0,0,1,33,193,133,1,,,,,,,,
,,,,,,,,,,,,,FF,,,,,,,,0.7666,,,,,,,,,,,,,,,,,,,,,,61035baf05c0521abd331da4,6103666e1ea997a57592113f,2021-07-30_03h44.50.284,Simcolourproject_2stim_asymm_v5,2020.2.10,Win32,60,61025ae37ef11b136ea224fe,,,,,,,,,1859,34.66668677,65.33330421,1,0,0,response1disk,,7,5.333393256,11.33332294,1,0,0,rectangle,5.333393256,11.33332294,1,0,0,5.333393256,11.33332294,1,0,0,1,34,194,100,1,,,,,,,,
,,,,,,,,,,,,,FF,,,,,,,,0.767,,,,,,,,,,,,,,,,,,,,,,61035baf05c0521abd331da4,6103666e1ea997a57592113f,2021-07-30_03h44.50.284,Simcolourproject_2stim_asymm_v5,2020.2.10,Win32,60,61025ae37ef11b136ea224fe,,,,,,,,,948,22.66668642,50.66665745,1,0,0,response1disk,,7,0.66668576,3.333322704,1,0,0,rectangle,0.66668576,3.333322704,1,0,0,0.66668576,3.333322704,1,0,0,1,35,195,2,1,,,,,,,,
,,,,,,,,,,,,,FF,,,,,,,,0.8835,,,,,,,,,,,,,,,,,,,,,,61035baf05c0521abd331da4,6103666e1ea997a57592113f,2021-07-30_03h44.50.284,Simcolourproject_2stim_asymm_v5,2020.2.10,Win32,60,61025ae37ef11b136ea224fe,,,,,,,,,122,52.00002062,43.99999058,1,0,0,response1disk,,6,6.000019252,-1.07288E-05,1,0,0,rectangle,6.000019252,-1.07288E-05,1,0,0,6.000019252,-1.07288E-05,1,0,0,1,36,196,108,1,,,,,,,,
,,,,,,,,,,,,,FF,,,,,,,,1.8169,,,,,,,,,,,,,,,,,,,,,,61035baf05c0521abd331da4,6103666e1ea997a57592113f,2021-07-30_03h44.50.284,Simcolourproject_2stim_asymm_v5,2020.2.10,Win32,60,61025ae37ef11b136ea224fe,,,,,,,,,2523,20.66668636,37.9999904,1,0,0,response1disk,,7,4.666685879,1.999989331,1,0,0,rectangle,4.666685879,1.999989331,1,0,0,4.666685879,1.999989331,1,0,0,1,37,197,68,1,,,,,,,,
,,,,,,,,,,,,,FF,,,,,,,,1.7168,,,,,,,,,,,,,,,,,,,,,,61035baf05c0521abd331da4,6103666e1ea997a57592113f,2021-07-30_03h44.50.284,Simcolourproject_2stim_asymm_v5,2020.2.10,Win32,60,61025ae37ef11b136ea224fe,,,,,,,,,1134,62.00002092,-33.33334506,1,0,0,response3disk,,5,18.6666863,-4.000010848,1,0,0,rectangle,18.6666863,-4.000010848,1,0,0,18.6666863,-4.000010848,1,0,0,1,38,198,128,1,,,,,,,,
,,,,,,,,,,,,,FF,,,,,,,,1.4998,,,,,,,,,,,,,,,,,,,,,,61035baf05c0521abd331da4,6103666e1ea997a57592113f,2021-07-30_03h44.50.284,Simcolourproject_2stim_asymm_v5,2020.2.10,Win32,60,61025ae37ef11b136ea224fe,,,,,,,,,1488,22.00001973,57.33330397,1,0,0,response1disk,,7,6.666685939,6.666656137,1,0,0,rectangle,-81.99998337,27.33330307,1,0,0,-15.9999814,9.999989569,1,0,0,1,39,199,114,1,,response7disk_3,TRUE,1,1,"[323,30,149,205,17,123,265,200,232,48,321,232,186,114,0,124,125,258,99,160]",1.3663,rectangle
,,,,,,,,,,,,,FF,,,,,,,,0.9833,,,,,,,,,,,,,,,,,,,,,,61035baf05c0521abd331da4,6103666e1ea997a57592113f,2021-07-30_03h44.50.284,Simcolourproject_2stim_asymm_v5,2020.2.10,Win32,60,61025ae37ef11b136ea224fe,,,,,,,,,3144,19.33339367,65.99999124,1,0,0,response1disk,,7,-4.666607042,-10.66667771,1,0,0,rectangle,-4.666607042,-10.66667771,1,0,0,-4.666607042,-10.66667771,1,0,0,1,40,200,20,1,,,,,,,,
,,,,,,,,,,,,,FF,,,,,,,,0.9999,,,,,,,,,,,,,,,,,,,,,,61035baf05c0521abd331da4,6103666e1ea997a57592113f,2021-07-30_03h44.50.284,Simcolourproject_2stim_asymm_v5,2020.2.10,Win32,60,61025ae37ef11b136ea224fe,,,,,,,,,4251,-35.999982,-52.00001228,1,0,0,response5disk,,3,1.333393137,3.333322704,1,0,0,rectangle,1.333393137,3.333322704,1,0,0,1.333393137,3.333322704,1,0,0,1,41,201,115,1,,,,,,,,
,,,,,,,,,,,,,FF,,,,,,,,0.7501,,,,,,,,,,,,,,,,,,,,,,61035baf05c0521abd331da4,6103666e1ea997a57592113f,2021-07-30_03h44.50.284,Simcolourproject_2stim_asymm_v5,2020.2.10,Win32,60,61025ae37ef11b136ea224fe,,,,,,,,,2864,26.00001985,51.99999082,1,0,0,response1disk,,7,1.9735E-05,-3.333344162,1,0,0,rectangle,1.9735E-05,-3.333344162,1,0,0,1.9735E-05,-3.333344162,1,0,0,1,42,202,30,1,,,,,,,,
,,,,,,,,,,,,,FF,,,,,,,,0.7834,,,,,,,,,,,,,,,,,,,,,,61035baf05c0521abd331da4,6103666e1ea997a57592113f,2021-07-30_03h44.50.284,Simcolourproject_2stim_asymm_v5,2020.2.10,Win32,60,61025ae37ef11b136ea224fe,,,,,,,,,267,23.33339379,52.66665751,1,0,0,response1disk,,7,-9.333314538,-3.333344162,1,0,0,rectangle,-9.333314538,-3.333344162,1,0,0,-9.333314538,-3.333344162,1,0,0,1,43,203,81,1,,,,,,,,
,,,,,,,,,,,,,FF,,,,,,,,8.3991,,,,,,,,,,,,,,,,,,,,,,61035baf05c0521abd331da4,6103666e1ea997a57592113f,2021-07-30_03h44.50.284,Simcolourproject_2stim_asymm_v5,2020.2.10,Win32,60,61025ae37ef11b136ea224fe,,,,,,,,,3918,24.66668648,71.33330439,1,0,0,response1disk,,7,-7.333314478,6.666656137,1,0,0,rectangle,-51.33331579,-81.33334649,1,0,0,-8.666607161,5.333322763,1,0,0,1,44,204,43,1,,response5disk_3,TRUE,3,3,"[323,30,149,205,17,123,265,200,232,48,321,232,186,114,0,124,125,258,99,160]",1.8327,rectangle
,,,,,,,,,,,,,FF,,,,,,,,3.9495,,,,,,,,,,,,,,,,,,,,,,61035baf05c0521abd331da4,6103666e1ea997a57592113f,2021-07-30_03h44.50.284,Simcolourproject_2stim_asymm_v5,2020.2.10,Win32,60,61025ae37ef11b136ea224fe,,,,,,,,,3056,34.66668677,-102.6666805,1,0,0,response3disk,,4,1.333393137,-6.666677594,1,0,0,rectangle,1.333393137,-6.666677594,1,0,0,1.333393137,-6.666677594,1,0,0,1,45,205,42,1,,,,,,,,
,,,,,,,,,,,,,FF,,,,,,,,1.1837,,,,,,,,,,,,,,,,,,,,,,61035baf05c0521abd331da4,6103666e1ea997a57592113f,2021-07-30_03h44.50.284,Simcolourproject_2stim_asymm_v5,2020.2.10,Win32,60,61025ae37ef11b136ea224fe,,,,,,,,,1169,21.33339373,41.33330349,1,0,0,response1disk,,7,6.000019252,-6.000010908,1,0,0,rectangle,6.000019252,-6.000010908,1,0,0,6.000019252,-6.000010908,1,0,0,1,46,206,57,1,,,,,,,,
,,,,,,,,,,,,,FF,,,,,,,,2.1826,,,,,,,,,,,,,,,,,,,,,,61035baf05c0521abd331da4,6103666e1ea997a57592113f,2021-07-30_03h44.50.284,Simcolourproject_2stim_asymm_v5,2020.2.10,Win32,60,61025ae37ef11b136ea224fe,,,,,,,,,329,17.33339361,53.33330385,1,0,0,response1disk,,7,-1.3333143,-5.333344221,1,0,0,rectangle,-1.3333143,-5.333344221,1,0,0,-1.3333143,-5.333344221,1,0,0,1,47,207,75,1,,,,,,,,
,,,,,,,,,,,,,FF,,,,,,,,2.8832,,,,,,,,,,,,,,,,,,,,,,61035baf05c0521abd331da4,6103666e1ea997a57592113f,2021-07-30_03h44.50.284,Simcolourproject_2stim_asymm_v5,2020.2.10,Win32,60,61025ae37ef11b136ea224fe,,,,,,,,,3787,29.33339397,66.66665792,1,0,0,response1disk,,7,4.000019193,12.66665632,1,0,0,rectangle,4.000019193,12.66665632,1,0,0,4.000019193,12.66665632,1,0,0,1,48,208,97,1,,,,,,,,
,,,,,,,,,,,,,FF,,,,,,,,1.85,,,,,,,,,,,,,,,,,,,,,,61035baf05c0521abd331da4,6103666e1ea997a57592113f,2021-07-30_03h44.50.284,Simcolourproject_2stim_asymm_v5,2020.2.10,Win32,60,61025ae37ef11b136ea224fe,,,,,,,,,806,15.33339355,-86.66667998,1,0,0,response3disk,,4,6.666685939,1.999989331,1,0,0,rectangle,6.666685939,1.999989331,1,0,0,6.666685939,1.999989331,1,0,0,1,49,209,130,1,,,,,,,,
,,,,,,,,,,,,,FF,,,,,,,,1.4111,,,,,,,,,,,,,,,,,,,,,,61035baf05c0521abd331da4,6103666e1ea997a57592113f,2021-07-30_03h44.50.284,Simcolourproject_2stim_asymm_v5,2020.2.10,Win32,60,61025ae37ef11b136ea224fe,,,,,,,,,3161,24.00001979,60.66665775,1,0,0,response1disk,,7,4.000019193,10.66665626,1,0,0,rectangle,4.000019193,10.66665626,1,0,0,4.000019193,10.66665626,1,0,0,1,50,210,25,1,,,,,,,,
,,,,,,,,,,,,,FF,,,,,,,,0.8503,,,,,,,,,,,,,,,,,,,,,,61035baf05c0521abd331da4,6103666e1ea997a57592113f,2021-07-30_03h44.50.284,Simcolourproject_2stim_asymm_v5,2020.2.10,Win32,60,61025ae37ef11b136ea224fe,,,,,,,,,3562,17.33339361,47.33330367,1,0,0,response1disk,,7,-3.333314359,-6.666677594,1,0,0,rectangle,-3.333314359,-6.666677594,1,0,0,-3.333314359,-6.666677594,1,0,0,1,51,211,134,1,,,,,,,,
,,,,,,,,,,,,,FF,,,,,,,,1.1334,,,,,,,,,,,,,,,,,,,,,,61035baf05c0521abd331da4,6103666e1ea997a57592113f,2021-07-30_03h44.50.284,Simcolourproject_2stim_asymm_v5,2020.2.10,Win32,60,61025ae37ef11b136ea224fe,,,,,,,,,445,-49.99998242,-74.00001293,1,0,0,response5disk,,3,-11.99998128,3.333322704,1,0,0,rectangle,-11.99998128,3.333322704,1,0,0,-11.99998128,3.333322704,1,0,0,1,52,212,77,1,,,,,,,,
,,,,,,,,,,,,,FF,,,,,,,,3.9831,,,,,,,,,,,,,,,,,,,,,,61035baf05c0521abd331da4,6103666e1ea997a57592113f,2021-07-30_03h44.50.284,Simcolourproject_2stim_asymm_v5,2020.2.10,Win32,60,61025ae37ef11b136ea224fe,,,,,,,,,642,35.33339415,-68.66667944,1,0,0,response3disk,,4,8.666685998,8.666656196,1,0,0,rectangle,8.666685998,8.666656196,1,0,0,8.666685998,8.666656196,1,0,0,1,53,213,96,1,,,,,,,,
,,,,,,,,,,,,,FF,,,,,,,,1,,,,,,,,,,,,,,,,,,,,,,61035baf05c0521abd331da4,6103666e1ea997a57592113f,2021-07-30_03h44.50.284,Simcolourproject_2stim_asymm_v5,2020.2.10,Win32,60,61025ae37ef11b136ea224fe,,,,,,,,,3450,17.33339361,61.33330409,1,0,0,response1disk,,7,-3.333314359,1.333322644,1,0,0,rectangle,-3.333314359,1.333322644,1,0,0,-3.333314359,1.333322644,1,0,0,1,54,214,74,1,,,,,,,,
,,,,,,,,,,,,,FF,,,,,,,,3.7998,,,,,,,,,,,,,,,,,,,,,,61035baf05c0521abd331da4,6103666e1ea997a57592113f,2021-07-30_03h44.50.284,Simcolourproject_2stim_asymm_v5,2020.2.10,Win32,60,61025ae37ef11b136ea224fe,,,,,,,,,592,31.33339403,55.99999094,1,0,0,response1disk,,7,6.666685939,-10.00001103,1,0,0,rectangle,6.666685939,-10.00001103,1,0,0,6.666685939,-10.00001103,1,0,0,1,55,215,103,1,,,,,,,,
,,,,,,,,,,,,,FF,,,,,,,,2.6563,,,,,,,,,,,,,,,,,,,,,,61035baf05c0521abd331da4,6103666e1ea997a57592113f,2021-07-30_03h44.50.284,Simcolourproject_2stim_asymm_v5,2020.2.10,Win32,60,61025ae37ef11b136ea224fe,,,,,,,,,3755,22.66668642,47.33330367,1,0,0,response1disk,,7,11.33339343,-8.666677654,1,0,0,rectangle,11.33339343,-8.666677654,1,0,0,11.33339343,-8.666677654,1,0,0,1,56,216,155,1,,,,,,,,
,,,,,,,,,,,,,FF,,,,,,,,0.8337,,,,,,,,,,,,,,,,,,,,,,61035baf05c0521abd331da4,6103666e1ea997a57592113f,2021-07-30_03h44.50.284,Simcolourproject_2stim_asymm_v5,2020.2.10,Win32,60,61025ae37ef11b136ea224fe,,,,,,,,,3143,34.00002009,48.66665739,1,0,0,response1disk,,7,9.333393375,-10.00001103,1,0,0,rectangle,9.333393375,-10.00001103,1,0,0,9.333393375,-10.00001103,1,0,0,1,57,217,33,1,,,,,,,,
,,,,,,,,,,,,,FF,,,,,,,,1.3834,,,,,,,,,,,,,,,,,,,,,,61035baf05c0521abd331da4,6103666e1ea997a57592113f,2021-07-30_03h44.50.284,Simcolourproject_2stim_asymm_v5,2020.2.10,Win32,60,61025ae37ef11b136ea224fe,,,,,,,,,3074,22.66668642,65.99999124,1,0,0,response1disk,,7,1.333393137,6.666656137,1,0,0,rectangle,1.333393137,6.666656137,1,0,0,1.333393137,6.666656137,1,0,0,1,58,218,63,1,,,,,,,,
,,,,,,,,,,,,,FF,,,,,,,,0.5732,,,,,,,,,,,,,,,,,,,,,,61035baf05c0521abd331da4,6103666e1ea997a57592113f,2021-07-30_03h44.50.284,Simcolourproject_2stim_asymm_v5,2020.2.10,Win32,60,61025ae37ef11b136ea224fe,,,,,,,,,3266,27.33339391,60.66665775,1,0,0,response1disk,,7,11.33339343,7.333322823,1,0,0,rectangle,11.33339343,7.333322823,1,0,0,11.33339343,7.333322823,1,0,0,1,59,219,126,1,,,,,,,,
,,,,,,,,,,,,,FF,,,,,,,,3.2497,,,,,,,,,,,,,,,,,,,,,,61035baf05c0521abd331da4,6103666e1ea997a57592113f,2021-07-30_03h44.50.284,Simcolourproject_2stim_asymm_v5,2020.2.10,Win32,60,61025ae37ef11b136ea224fe,,,,,,,,,2469,28.00001991,43.33330355,1,0,0,response1disk,,7,14.00001949,-8.000010967,1,0,0,rectangle,14.00001949,-8.000010967,1,0,0,14.00001949,-8.000010967,1,0,0,1,60,220,70,1,,,,,,,,
,,,,,,,,,,,,,FF,,,,,,,,1.4997,,,,,,,,,,,,,,,,,,,,,,61035baf05c0521abd331da4,6103666e1ea997a57592113f,2021-07-30_03h44.50.284,Simcolourproject_2stim_asymm_v5,2020.2.10,Win32,60,61025ae37ef11b136ea224fe,,,,,,,,,4225,-41.99998218,-63.33334595,1,0,0,response5disk,,3,-11.3333146,-6.666677594,1,0,0,rectangle,-11.3333146,-6.666677594,1,0,0,-11.3333146,-6.666677594,1,0,0,1,61,221,23,1,,,,,,,,
,,,,,,,,,,,,,FF,,,,,,,,0.8669,,,,,,,,,,,,,,,,,,,,,,61035baf05c0521abd331da4,6103666e1ea997a57592113f,2021-07-30_03h44.50.284,Simcolourproject_2stim_asymm_v5,2020.2.10,Win32,60,61025ae37ef11b136ea224fe,,,,,,,,,3468,-41.99998218,99.99999225,1,0,0,response7disk,,0,-5.333314419,7.333322823,1,0,0,rectangle,-5.333314419,7.333322823,1,0,0,-5.333314419,7.333322823,1,0,0,1,62,222,41,1,,,,,,,,
,,,,,,,,,,,,,FF,,,,,,,,1.4529,,,,,,,,,,,,,,,,,,,,,,61035baf05c0521abd331da4,6103666e1ea997a57592113f,2021-07-30_03h44.50.284,Simcolourproject_2stim_asymm_v5,2020.2.10,Win32,60,61025ae37ef11b136ea224fe,,,,,,,,,2063,35.33339415,43.33330355,1,0,0,response1disk,,7,-6.666607102,-4.666677535,1,0,0,rectangle,-6.666607102,-4.666677535,1,0,0,-6.666607102,-4.666677535,1,0,0,1,63,223,17,1,,,,,,,,
,,,,,,,,,,,,,FF,,,,,,,,3.6995,,,,,,,,,,,,,,,,,,,,,,61035baf05c0521abd331da4,6103666e1ea997a57592113f,2021-07-30_03h44.50.284,Simcolourproject_2stim_asymm_v5,2020.2.10,Win32,60,61025ae37ef11b136ea224fe,,,,,,,,,1039,44.66668707,-25.33334482,1,0,0,response3disk,,5,2.66668582,8.666656196,1,0,0,rectangle,2.66668582,8.666656196,1,0,0,2.66668582,8.666656196,1,0,0,1,64,224,36,1,,,,,,,,
,,,,,,,,,,,,,FF,,,,,,,,1.9503,,,,,,,,,,,,,,,,,,,,,,61035baf05c0521abd331da4,6103666e1ea997a57592113f,2021-07-30_03h44.50.284,Simcolourproject_2stim_asymm_v5,2020.2.10,Win32,60,61025ae37ef11b136ea224fe,,,,,,,,,2670,22.00001973,-58.66667914,1,0,0,response3disk,,4,2.000019133,-11.3333444,1,0,0,rectangle,2.000019133,-11.3333444,1,0,0,2.000019133,-11.3333444,1,0,0,1,65,225,158,1,,,,,,,,
,,,,,,,,,,,,,FF,,,,,,,,1.9329,,,,,,,,,,,,,,,,,,,,,,61035baf05c0521abd331da4,6103666e1ea997a57592113f,2021-07-30_03h44.50.284,Simcolourproject_2stim_asymm_v5,2020.2.10,Win32,60,61025ae37ef11b136ea224fe,,,,,,,,,1002,28.00001991,75.3333045,1,0,0,response1disk,,7,-3.999981046,2.666656017,1,0,0,rectangle,-3.999981046,2.666656017,1,0,0,-3.999981046,2.666656017,1,0,0,1,66,226,105,1,,,,,,,,
,,,,,,,,,,,,,FF,,,,,,,,2.6499,,,,,,,,,,,,,,,,,,,,,,61035baf05c0521abd331da4,6103666e1ea997a57592113f,2021-07-30_03h44.50.284,Simcolourproject_2stim_asymm_v5,2020.2.10,Win32,60,61025ae37ef11b136ea224fe,,,,,,,,,1146,24.00001979,-86.66667998,1,0,0,response3disk,,4,17.33339361,-5.333344221,1,0,0,rectangle,17.33339361,-5.333344221,1,0,0,17.33339361,-5.333344221,1,0,0,1,67,227,53,1,,,,,,,,
,,,,,,,,,,,,,FF,,,,,,,,0.9568,,,,,,,,,,,,,,,,,,,,,,61035baf05c0521abd331da4,6103666e1ea997a57592113f,2021-07-30_03h44.50.284,Simcolourproject_2stim_asymm_v5,2020.2.10,Win32,60,61025ae37ef11b136ea224fe,,,,,,,,,3892,20.66668636,55.99999094,1,0,0,response1disk,,7,-0.666606923,4.666656077,1,0,0,rectangle,-0.666606923,4.666656077,1,0,0,-0.666606923,4.666656077,1,0,0,1,68,228,8,1,,,,,,,,
,,,,,,,,,,,,,FF,,,,,,,,0.9343,,,,,,,,,,,,,,,,,,,,,,61035baf05c0521abd331da4,6103666e1ea997a57592113f,2021-07-30_03h44.50.284,Simcolourproject_2stim_asymm_v5,2020.2.10,Win32,60,61025ae37ef11b136ea224fe,,,,,,,,,2015,19.33339367,58.66665769,1,0,0,response1disk,,7,-1.999980986,3.99998939,1,0,0,rectangle,-1.999980986,3.99998939,1,0,0,-1.999980986,3.99998939,1,0,0,1,69,229,142,1,,,,,,,,
,,,,,,,,,,,,,FF,,,,,,,,1.2333,,,,,,,,,,,,,,,,,,,,,,61035baf05c0521abd331da4,6103666e1ea997a57592113f,2021-07-30_03h44.50.284,Simcolourproject_2stim_asymm_v5,2020.2.10,Win32,60,61025ae37ef11b136ea224fe,,,,,,,,,4163,30.00001997,-72.66667956,1,0,0,response3disk,,4,10.66668606,1.333322644,1,0,0,rectangle,10.66668606,1.333322644,1,0,0,10.66668606,1.333322644,1,0,0,1,70,230,9,1,,,,,,,,
,,,,,,,,,,,,,FF,,,,,,,,1.35,,,,,,,,,,,,,,,,,,,,,,61035baf05c0521abd331da4,6103666e1ea997a57592113f,2021-07-30_03h44.50.284,Simcolourproject_2stim_asymm_v5,2020.2.10,Win32,60,61025ae37ef11b136ea224fe,,,,,,,,,2548,-37.99998206,-84.00001323,1,0,0,response5disk,,3,-6.666607102,-3.333344162,1,0,0,rectangle,65.33335435,-34.00001174,1,0,0,2.000019133,-1.07288E-05,1,0,0,1,71,231,89,1,,response3disk_3,TRUE,5,5,"[323,30,149,205,17,123,265,200,232,48,321,232,186,114,0,124,125,258,99,160]",1.3104,rectangle
,,,,,,,,,,,,,FF,,,,,,,,1.7501,,,,,,,,,,,,,,,,,,,,,,61035baf05c0521abd331da4,6103666e1ea997a57592113f,2021-07-30_03h44.50.284,Simcolourproject_2stim_asymm_v5,2020.2.10,Win32,60,61025ae37ef11b136ea224fe,,,,,,,,,2989,30.00001997,74.66665816,1,0,0,response1disk,,7,3.333393196,9.333322883,1,0,0,rectangle,3.333393196,9.333322883,1,0,0,3.333393196,9.333322883,1,0,0,1,72,232,59,1,,,,,,,,
,,,,,,,,,,,,,FF,,,,,,,,1.2001,,,,,,,,,,,,,,,,,,,,,,61035baf05c0521abd331da4,6103666e1ea997a57592113f,2021-07-30_03h44.50.284,Simcolourproject_2stim_asymm_v5,2020.2.10,Win32,60,61025ae37ef11b136ea224fe,,,,,,,,,1536,66.66668773,-22.66667807,1,0,0,response3disk,,5,26.66668653,-2.666677475,1,0,0,rectangle,26.66668653,-2.666677475,1,0,0,26.66668653,-2.666677475,1,0,0,1,73,233,148,1,,,,,,,,
,,,,,,,,,,,,,FF,,,,,,,,3.1162,,,,,,,,,,,,,,,,,,,,,,61035baf05c0521abd331da4,6103666e1ea997a57592113f,2021-07-30_03h44.50.284,Simcolourproject_2stim_asymm_v5,2020.2.10,Win32,60,61025ae37ef11b136ea224fe,,,,,,,,,1545,64.00002098,32.66665691,1,0,0,response1disk,,6,15.33339355,-2.000010788,1,0,0,rectangle,15.33339355,-2.000010788,1,0,0,15.33339355,-2.000010788,1,0,0,1,74,234,144,1,,,,,,,,
,,,,,,,,,,,,,FF,,,,,,,,1.5167,,,,,,,,,,,,,,,,,,,,,,61035baf05c0521abd331da4,6103666e1ea997a57592113f,2021-07-30_03h44.50.284,Simcolourproject_2stim_asymm_v5,2020.2.10,Win32,60,61025ae37ef11b136ea224fe,,,,,,,,,610,41.33339433,57.33330397,1,0,0,response1disk,,7,10.66668606,7.333322823,1,0,0,rectangle,10.66668606,7.333322823,1,0,0,10.66668606,7.333322823,1,0,0,1,75,235,139,1,,,,,,,,
,,,,,,,,,,,,,FF,,,,,,,,0.8334,,,,,,,,,,,,,,,,,,,,,,61035baf05c0521abd331da4,6103666e1ea997a57592113f,2021-07-30_03h44.50.284,Simcolourproject_2stim_asymm_v5,2020.2.10,Win32,60,61025ae37ef11b136ea224fe,,,,,,,,,1119,60.00002086,45.99999064,1,0,0,response1disk,,6,14.66668618,6.666656137,1,0,0,rectangle,14.66668618,6.666656137,1,0,0,14.66668618,6.666656137,1,0,0,1,76,236,7,1,,,,,,,,
,,,,,,,,,,,,,FF,,,,,,,,0.7834,,,,,,,,,,,,,,,,,,,,,,61035baf05c0521abd331da4,6103666e1ea997a57592113f,2021-07-30_03h44.50.284,Simcolourproject_2stim_asymm_v5,2020.2.10,Win32,60,61025ae37ef11b136ea224fe,,,,,,,,,850,22.66668642,61.33330409,1,0,0,response1disk,,7,-1.3333143,-4.666677535,1,0,0,rectangle,-1.3333143,-4.666677535,1,0,0,-1.3333143,-4.666677535,1,0,0,1,77,237,12,1,,,,,,,,
,,,,,,,,,,,,,FF,,,,,,,,0.7168,,,,,,,,,,,,,,,,,,,,,,61035baf05c0521abd331da4,6103666e1ea997a57592113f,2021-07-30_03h44.50.284,Simcolourproject_2stim_asymm_v5,2020.2.10,Win32,60,61025ae37ef11b136ea224fe,,,,,,,,,842,15.33339355,61.99999112,1,0,0,response1disk,,7,1.9735E-05,-2.000010788,1,0,0,rectangle,1.9735E-05,-2.000010788,1,0,0,1.9735E-05,-2.000010788,1,0,0,1,78,238,66,1,,,,,,,,
,,,,,,,,,,,,,FF,,,,,,,,1.8896,,,,,,,,,,,,,,,,,,,,,,61035baf05c0521abd331da4,6103666e1ea997a57592113f,2021-07-30_03h44.50.284,Simcolourproject_2stim_asymm_v5,2020.2.10,Win32,60,61025ae37ef11b136ea224fe,,,,,,,,,2169,-37.33331537,-90.00001341,1,0,0,response5disk,,3,-7.333314478,-2.666677475,1,0,0,rectangle,-7.333314478,-2.666677475,1,0,0,-7.333314478,-2.666677475,1,0,0,1,79,239,98,1,,,,,,,,
,,,,,,,,,,,,,FF,,,,,,,,1.0835,,,,,,,,,,,,,,,,,,,,,,61035baf05c0521abd331da4,6103666e1ea997a57592113f,2021-07-30_03h44.50.284,Simcolourproject_2stim_asymm_v5,2020.2.10,Win32,60,61025ae37ef11b136ea224fe,,,,,,,,,793,20.66668636,49.99999076,1,0,0,response1disk,,7,0.66668576,5.99998945,1,0,0,rectangle,0.66668576,5.99998945,1,0,0,0.66668576,5.99998945,1,0,0,1,80,240,102,1,,,,,,,,
,,,,,,,,,,,,,FF,,,,,,,,0.8333,,,,,,,,,,,,,,,,,,,,,,61035baf05c0521abd331da4,6103666e1ea997a57592113f,2021-07-30_03h44.50.284,Simcolourproject_2stim_asymm_v5,2020.2.10,Win32,60,61025ae37ef11b136ea224fe,,,,,,,,,3760,52.66668731,27.99999011,1,0,0,response1disk,,6,5.333393256,-8.000010967,1,0,0,rectangle,5.333393256,-8.000010967,1,0,0,5.333393256,-8.000010967,1,0,0,1,81,241,19,1,,,,,,,,
,,,,,,,,,,,,,FF,,,,,,,,2.1331,,,,,,,,,,,,,,,,,,,,,,61035baf05c0521abd331da4,6103666e1ea997a57592113f,2021-07-30_03h44.50.284,Simcolourproject_2stim_asymm_v5,2020.2.10,Win32,60,61025ae37ef11b136ea224fe,,,,,,,,,3488,54.66668737,52.66665751,1,0,0,response1disk,,6,5.333393256,10.66665626,1,0,0,rectangle,5.333393256,10.66665626,1,0,0,5.333393256,10.66665626,1,0,0,1,82,242,0,1,,,,,,,,
,,,,,,,,,,,,,FF,,,,,,,,2,,,,,,,,,,,,,,,,,,,,,,61035baf05c0521abd331da4,6103666e1ea997a57592113f,2021-07-30_03h44.50.284,Simcolourproject_2stim_asymm_v5,2020.2.10,Win32,60,61025ae37ef11b136ea224fe,,,,,,,,,206,62.66668761,26.66665673,1,0,0,response1disk,,6,12.66668612,3.99998939,1,0,0,rectangle,12.66668612,3.99998939,1,0,0,12.66668612,3.99998939,1,0,0,1,83,243,4,1,,,,,,,,
