key_resp.keys,key_resp.rt,key_resp_14.keys,key_resp_14.rt,key_resp_15.keys,key_resp_15.rt,key_resp_17.keys,key_resp_17.rt,key_resp_9.keys,key_resp_9.rt,key_resp_10.keys,key_resp_10.rt,practice_comparison,Ecc,mouse_5.x,mouse_5.y,mouse_5.leftButton,mouse_5.midButton,mouse_5.rightButton,mouse_5.clicked_name,pracsimilarity,response_time,mouse_10.x,mouse_10.y,mouse_10.leftButton,mouse_10.midButton,mouse_10.rightButton,mouse_10.clicked_name,mouse_7.x,mouse_7.y,mouse_7.leftButton,mouse_7.midButton,mouse_7.rightButton,mouse_6.x,mouse_6.y,mouse_6.leftButton,mouse_6.midButton,mouse_6.rightButton,duringprac.thisRepN,duringprac.thisTrialN,duringprac.thisN,duringprac.thisIndex,duringprac.ran,participant,session,date,expName,psychopyVersion,OS,frameRate,study_id,mouse_7.clicked_name,catchpracsimilarity,catch_response_time,catchnumberprac,catchtrialorderprac,mouse_6.clicked_name,key_resp_22.keys,key_resp_22.rt,realcomparison,mouse.x,mouse.y,mouse.leftButton,mouse.midButton,mouse.rightButton,mouse.clicked_name,Colour2,similarity,mouse_2.x,mouse_2.y,mouse_2.leftButton,mouse_2.midButton,mouse_2.rightButton,mouse_2.clicked_name,mouse_3.x,mouse_3.y,mouse_3.leftButton,mouse_3.midButton,mouse_3.rightButton,mouse_11.x,mouse_11.y,mouse_11.leftButton,mouse_11.midButton,mouse_11.rightButton,trials_2.thisRepN,trials_2.thisTrialN,trials_2.thisN,trials_2.thisIndex,trials_2.ran,Colour1,mouse_3.clicked_name,catchornah,catchsimilarity,catchnumber,catchtrialorder,catchRT,mouse_11.clicked_name
space,1.4029,space,14.4989,space,52.4542,space,8.9003,space,1.2387,space,4.2302,67,FF,40.4296875,-86.9921875,1,0,0,response3disk_5,4,8.8223,-6.7421875,7.21875,1,0,0,rectangle_8,-6.7421875,7.21875,1,0,0,-6.7421875,7.21875,1,0,0,0,0,0,0,1,6103547238747506ef02bb29,6103651687d0f99e9bf17124,2021-07-29_19h34.46.958,Simcolourproject_2stim_asymm_v5,2020.2.10,MacIntel,60,61025ae37ef11b136ea224fe,,,,,,,,,,,,,,,,,,,,,,,,,,,,,,,,,,,,,,,,,,,,,,
,,,,,,,,,,,,123,PF,98.02734375,50.5546875,1,0,0,response1disk_5,6,6.5362,-8.47265625,-0.8046875,1,0,0,rectangle_8,99.1328125,-53.92578125,1,0,0,4.28125,-3.87890625,1,0,0,0,1,1,4,1,6103547238747506ef02bb29,6103651687d0f99e9bf17124,2021-07-29_19h34.46.958,Simcolourproject_2stim_asymm_v5,2020.2.10,MacIntel,60,61025ae37ef11b136ea224fe,response3disk_7,5,3.5205,5,"[2,5]",rectangle_4,,,,,,,,,,,,,,,,,,,,,,,,,,,,,,,,,,,,,,,,
,,,,,,,,,,,,156,PF,92.625,43.97265625,1,0,0,response1disk_5,6,4.1669,-10.01171875,-0.65625,1,0,0,rectangle_8,-10.01171875,-0.65625,1,0,0,-10.01171875,-0.65625,1,0,0,0,2,2,1,1,6103547238747506ef02bb29,6103651687d0f99e9bf17124,2021-07-29_19h34.46.958,Simcolourproject_2stim_asymm_v5,2020.2.10,MacIntel,60,61025ae37ef11b136ea224fe,,,,,,,,,,,,,,,,,,,,,,,,,,,,,,,,,,,,,,,,,,,,,,
,,,,,,,,,,,,69,PF,42.953125,-75.625,1,0,0,response3disk_5,4,4.2006,-12.74609375,0.15625,1,0,0,rectangle_8,-12.74609375,0.15625,1,0,0,-12.74609375,0.15625,1,0,0,0,3,3,2,1,6103547238747506ef02bb29,6103651687d0f99e9bf17124,2021-07-29_19h34.46.958,Simcolourproject_2stim_asymm_v5,2020.2.10,MacIntel,60,61025ae37ef11b136ea224fe,,,,,,,,,,,,,,,,,,,,,,,,,,,,,,,,,,,,,,,,,,,,,,
,,,,,,,,,,,,157,PF,-55.17578125,84.09375,1,0,0,response7disk_5,0,3.7501,-12.16015625,1.59765625,1,0,0,rectangle_8,73.80078125,-47.06640625,1,0,0,-1.26171875,0.4765625,1,0,0,0,4,4,6,1,6103547238747506ef02bb29,6103651687d0f99e9bf17124,2021-07-29_19h34.46.958,Simcolourproject_2stim_asymm_v5,2020.2.10,MacIntel,60,61025ae37ef11b136ea224fe,response3disk_7,5,2.8503,5,"[2,5]",rectangle_4,,,,,,,,,,,,,,,,,,,,,,,,,,,,,,,,,,,,,,,,
,,,,,,,,,,,,106,FF,42.0859375,-87.26171875,1,0,0,response3disk_5,4,2.7831,-5.265625,2.97265625,1,0,0,rectangle_8,-5.265625,2.97265625,1,0,0,-5.265625,2.97265625,1,0,0,0,5,5,5,1,6103547238747506ef02bb29,6103651687d0f99e9bf17124,2021-07-29_19h34.46.958,Simcolourproject_2stim_asymm_v5,2020.2.10,MacIntel,60,61025ae37ef11b136ea224fe,,,,,,,,,,,,,,,,,,,,,,,,,,,,,,,,,,,,,,,,,,,,,,
,,,,,,,,,,,,98,FF,33.26953125,108.6054688,1,0,0,response1disk_5,7,1.7981,-0.2890625,-11.30859375,1,0,0,rectangle_8,-0.2890625,-11.30859375,1,0,0,-0.2890625,-11.30859375,1,0,0,0,6,6,3,1,6103547238747506ef02bb29,6103651687d0f99e9bf17124,2021-07-29_19h34.46.958,Simcolourproject_2stim_asymm_v5,2020.2.10,MacIntel,60,61025ae37ef11b136ea224fe,,,,,,,,,,,,,,,,,,,,,,,,,,,,,,,,,,,,,,,,,,,,,,
,,,,,,,,,,,,,FF,,,,,,,,2.6316,,,,,,,,,,,,,,,,,,,,,,6103547238747506ef02bb29,6103651687d0f99e9bf17124,2021-07-29_19h34.46.958,Simcolourproject_2stim_asymm_v5,2020.2.10,MacIntel,60,61025ae37ef11b136ea224fe,,,,,,,space,2.9098,4019,100.7460938,52.21484375,1,0,0,response1disk,,6,8.59765625,-5.67578125,1,0,0,rectangle,8.59765625,-5.67578125,1,0,0,8.59765625,-5.67578125,1,0,0,0,0,0,30,1,,,,,,,,
,,,,,,,,,,,,,FF,,,,,,,,2.0174,,,,,,,,,,,,,,,,,,,,,,6103547238747506ef02bb29,6103651687d0f99e9bf17124,2021-07-29_19h34.46.958,Simcolourproject_2stim_asymm_v5,2020.2.10,MacIntel,60,61025ae37ef11b136ea224fe,,,,,,,,,331,103.7539063,46.63671875,1,0,0,response1disk,,6,2.33203125,-1.59375,1,0,0,rectangle,2.33203125,-1.59375,1,0,0,2.33203125,-1.59375,1,0,0,0,1,1,94,1,,,,,,,,
,,,,,,,,,,,,,FF,,,,,,,,1.7022,,,,,,,,,,,,,,,,,,,,,,6103547238747506ef02bb29,6103651687d0f99e9bf17124,2021-07-29_19h34.46.958,Simcolourproject_2stim_asymm_v5,2020.2.10,MacIntel,60,61025ae37ef11b136ea224fe,,,,,,,,,3977,52.60546875,-79.28515625,1,0,0,response3disk,,4,7.83984375,11.921875,1,0,0,rectangle,-84.6484375,49.44140625,1,0,0,-1.2421875,0.625,1,0,0,0,2,2,24,1,,response7disk_3,TRUE,1,1,"[131,289,175,179,289,267,180,80,236,171,25,95,85,3,156,300,26,117,178,215]",2.3515,rectangle
,,,,,,,,,,,,,FF,,,,,,,,5.2812,,,,,,,,,,,,,,,,,,,,,,6103547238747506ef02bb29,6103651687d0f99e9bf17124,2021-07-29_19h34.46.958,Simcolourproject_2stim_asymm_v5,2020.2.10,MacIntel,60,61025ae37ef11b136ea224fe,,,,,,,,,2328,99.19140625,29.01953125,1,0,0,response1disk,,6,14.3125,-2.5859375,1,0,0,rectangle,14.3125,-2.5859375,1,0,0,14.3125,-2.5859375,1,0,0,0,3,3,88,1,,,,,,,,
,,,,,,,,,,,,,FF,,,,,,,,1.5639,,,,,,,,,,,,,,,,,,,,,,6103547238747506ef02bb29,6103651687d0f99e9bf17124,2021-07-29_19h34.46.958,Simcolourproject_2stim_asymm_v5,2020.2.10,MacIntel,60,61025ae37ef11b136ea224fe,,,,,,,,,1393,82.2734375,-55.62890625,1,0,0,response3disk,,5,10.5078125,-7.5078125,1,0,0,rectangle,10.5078125,-7.5078125,1,0,0,10.5078125,-7.5078125,1,0,0,0,4,4,69,1,,,,,,,,
,,,,,,,,,,,,,FF,,,,,,,,3.2355,,,,,,,,,,,,,,,,,,,,,,6103547238747506ef02bb29,6103651687d0f99e9bf17124,2021-07-29_19h34.46.958,Simcolourproject_2stim_asymm_v5,2020.2.10,MacIntel,60,61025ae37ef11b136ea224fe,,,,,,,,,2123,55.5625,98.19140625,1,0,0,response1disk,,7,4.94140625,-12.37890625,1,0,0,rectangle,4.94140625,-12.37890625,1,0,0,4.94140625,-12.37890625,1,0,0,0,5,5,36,1,,,,,,,,
,,,,,,,,,,,,,FF,,,,,,,,3.6138,,,,,,,,,,,,,,,,,,,,,,6103547238747506ef02bb29,6103651687d0f99e9bf17124,2021-07-29_19h34.46.958,Simcolourproject_2stim_asymm_v5,2020.2.10,MacIntel,60,61025ae37ef11b136ea224fe,,,,,,,,,4313,103.6367188,35.015625,1,0,0,response1disk,,6,-3.24609375,4.38671875,1,0,0,rectangle,-3.24609375,4.38671875,1,0,0,-3.24609375,4.38671875,1,0,0,0,6,6,122,1,,,,,,,,
,,,,,,,,,,,,,FF,,,,,,,,2.7159,,,,,,,,,,,,,,,,,,,,,,6103547238747506ef02bb29,6103651687d0f99e9bf17124,2021-07-29_19h34.46.958,Simcolourproject_2stim_asymm_v5,2020.2.10,MacIntel,60,61025ae37ef11b136ea224fe,,,,,,,,,3767,54.94921875,81.32421875,1,0,0,response1disk,,7,5.8125,-0.91796875,1,0,0,rectangle,5.8125,-0.91796875,1,0,0,5.8125,-0.91796875,1,0,0,0,7,7,33,1,,,,,,,,
,,,,,,,,,,,,,FF,,,,,,,,1.8628,,,,,,,,,,,,,,,,,,,,,,6103547238747506ef02bb29,6103651687d0f99e9bf17124,2021-07-29_19h34.46.958,Simcolourproject_2stim_asymm_v5,2020.2.10,MacIntel,60,61025ae37ef11b136ea224fe,,,,,,,,,1749,26.83984375,-51.43359375,1,0,0,response3disk,,4,-2.44921875,0.40625,1,0,0,rectangle,-2.44921875,0.40625,1,0,0,-2.44921875,0.40625,1,0,0,0,8,8,101,1,,,,,,,,
,,,,,,,,,,,,,FF,,,,,,,,4.0298,,,,,,,,,,,,,,,,,,,,,,6103547238747506ef02bb29,6103651687d0f99e9bf17124,2021-07-29_19h34.46.958,Simcolourproject_2stim_asymm_v5,2020.2.10,MacIntel,60,61025ae37ef11b136ea224fe,,,,,,,,,2249,66.16015625,-30.1796875,1,0,0,response3disk,,5,2.59375,-9.046875,1,0,0,rectangle,2.59375,-9.046875,1,0,0,2.59375,-9.046875,1,0,0,0,9,9,71,1,,,,,,,,
,,,,,,,,,,,,,FF,,,,,,,,1.1647,,,,,,,,,,,,,,,,,,,,,,6103547238747506ef02bb29,6103651687d0f99e9bf17124,2021-07-29_19h34.46.958,Simcolourproject_2stim_asymm_v5,2020.2.10,MacIntel,60,61025ae37ef11b136ea224fe,,,,,,,,,1487,77.5546875,39.58203125,1,0,0,response1disk,,6,-6.16015625,-0.05859375,1,0,0,rectangle,-6.16015625,-0.05859375,1,0,0,-6.16015625,-0.05859375,1,0,0,0,10,10,12,1,,,,,,,,
,,,,,,,,,,,,,FF,,,,,,,,3.4555,,,,,,,,,,,,,,,,,,,,,,6103547238747506ef02bb29,6103651687d0f99e9bf17124,2021-07-29_19h34.46.958,Simcolourproject_2stim_asymm_v5,2020.2.10,MacIntel,60,61025ae37ef11b136ea224fe,,,,,,,,,3737,82.61328125,-36.19921875,1,0,0,response3disk,,5,12.4765625,-1.625,1,0,0,rectangle,12.4765625,-1.625,1,0,0,12.4765625,-1.625,1,0,0,0,11,11,17,1,,,,,,,,
,,,,,,,,,,,,,FF,,,,,,,,2.8658,,,,,,,,,,,,,,,,,,,,,,6103547238747506ef02bb29,6103651687d0f99e9bf17124,2021-07-29_19h34.46.958,Simcolourproject_2stim_asymm_v5,2020.2.10,MacIntel,60,61025ae37ef11b136ea224fe,,,,,,,,,1704,68.171875,-40.546875,1,0,0,response3disk,,5,-7.56640625,-0.96484375,1,0,0,rectangle,-7.56640625,-0.96484375,1,0,0,-7.56640625,-0.96484375,1,0,0,0,12,12,47,1,,,,,,,,
,,,,,,,,,,,,,FF,,,,,,,,6.9163,,,,,,,,,,,,,,,,,,,,,,6103547238747506ef02bb29,6103651687d0f99e9bf17124,2021-07-29_19h34.46.958,Simcolourproject_2stim_asymm_v5,2020.2.10,MacIntel,60,61025ae37ef11b136ea224fe,,,,,,,,,3015,55.24609375,92.95703125,1,0,0,response1disk,,7,-0.4765625,-2.45703125,1,0,0,rectangle,-0.4765625,-2.45703125,1,0,0,-0.4765625,-2.45703125,1,0,0,0,13,13,105,1,,,,,,,,
,,,,,,,,,,,,,FF,,,,,,,,1.4552,,,,,,,,,,,,,,,,,,,,,,6103547238747506ef02bb29,6103651687d0f99e9bf17124,2021-07-29_19h34.46.958,Simcolourproject_2stim_asymm_v5,2020.2.10,MacIntel,60,61025ae37ef11b136ea224fe,,,,,,,,,803,-36.53515625,-75.78125,1,0,0,response5disk,,3,8.609375,-6.87890625,1,0,0,rectangle,8.609375,-6.87890625,1,0,0,8.609375,-6.87890625,1,0,0,0,14,14,3,1,,,,,,,,
,,,,,,,,,,,,,FF,,,,,,,,2.8344,,,,,,,,,,,,,,,,,,,,,,6103547238747506ef02bb29,6103651687d0f99e9bf17124,2021-07-29_19h34.46.958,Simcolourproject_2stim_asymm_v5,2020.2.10,MacIntel,60,61025ae37ef11b136ea224fe,,,,,,,,,837,86.75390625,-60.0625,1,0,0,response3disk,,5,-4.3671875,-2.1640625,1,0,0,rectangle,-4.3671875,-2.1640625,1,0,0,-4.3671875,-2.1640625,1,0,0,0,15,15,84,1,,,,,,,,
,,,,,,,,,,,,,FF,,,,,,,,1.6349,,,,,,,,,,,,,,,,,,,,,,6103547238747506ef02bb29,6103651687d0f99e9bf17124,2021-07-29_19h34.46.958,Simcolourproject_2stim_asymm_v5,2020.2.10,MacIntel,60,61025ae37ef11b136ea224fe,,,,,,,,,2895,-92.38671875,-50.9765625,1,0,0,response5disk,,2,-7.16796875,-2.7890625,1,0,0,rectangle,-7.16796875,-2.7890625,1,0,0,-7.16796875,-2.7890625,1,0,0,0,16,16,31,1,,,,,,,,
,,,,,,,,,,,,,FF,,,,,,,,1.9014,,,,,,,,,,,,,,,,,,,,,,6103547238747506ef02bb29,6103651687d0f99e9bf17124,2021-07-29_19h34.46.958,Simcolourproject_2stim_asymm_v5,2020.2.10,MacIntel,60,61025ae37ef11b136ea224fe,,,,,,,,,2559,34.2109375,-64.3515625,1,0,0,response3disk,,4,3.828125,-1.53125,1,0,0,rectangle,3.828125,-1.53125,1,0,0,3.828125,-1.53125,1,0,0,0,17,17,111,1,,,,,,,,
,,,,,,,,,,,,,FF,,,,,,,,2.6325,,,,,,,,,,,,,,,,,,,,,,6103547238747506ef02bb29,6103651687d0f99e9bf17124,2021-07-29_19h34.46.958,Simcolourproject_2stim_asymm_v5,2020.2.10,MacIntel,60,61025ae37ef11b136ea224fe,,,,,,,,,1212,-39.7265625,-87.93359375,1,0,0,response5disk,,3,-2.671875,8.88671875,1,0,0,rectangle,-2.671875,8.88671875,1,0,0,-2.671875,8.88671875,1,0,0,0,18,18,34,1,,,,,,,,
,,,,,,,,,,,,,FF,,,,,,,,2.7522,,,,,,,,,,,,,,,,,,,,,,6103547238747506ef02bb29,6103651687d0f99e9bf17124,2021-07-29_19h34.46.958,Simcolourproject_2stim_asymm_v5,2020.2.10,MacIntel,60,61025ae37ef11b136ea224fe,,,,,,,,,3763,52.44921875,-71.8046875,1,0,0,response3disk,,4,1.61328125,-6.33203125,1,0,0,rectangle,1.61328125,-6.33203125,1,0,0,1.61328125,-6.33203125,1,0,0,0,19,19,130,1,,,,,,,,
,,,,,,,,,,,,,FF,,,,,,,,2.2319,,,,,,,,,,,,,,,,,,,,,,6103547238747506ef02bb29,6103651687d0f99e9bf17124,2021-07-29_19h34.46.958,Simcolourproject_2stim_asymm_v5,2020.2.10,MacIntel,60,61025ae37ef11b136ea224fe,,,,,,,,,4155,57.328125,-36.08984375,1,0,0,response3disk,,5,2.875,-11.18359375,1,0,0,rectangle,2.875,-11.18359375,1,0,0,2.875,-11.18359375,1,0,0,0,20,20,110,1,,,,,,,,
,,,,,,,,,,,,,FF,,,,,,,,2.0202,,,,,,,,,,,,,,,,,,,,,,6103547238747506ef02bb29,6103651687d0f99e9bf17124,2021-07-29_19h34.46.958,Simcolourproject_2stim_asymm_v5,2020.2.10,MacIntel,60,61025ae37ef11b136ea224fe,,,,,,,,,1629,67.06640625,54.7265625,1,0,0,response1disk,,6,-7.625,13.89453125,1,0,0,rectangle,-7.625,13.89453125,1,0,0,-7.625,13.89453125,1,0,0,0,21,21,133,1,,,,,,,,
,,,,,,,,,,,,,FF,,,,,,,,1.9019,,,,,,,,,,,,,,,,,,,,,,6103547238747506ef02bb29,6103651687d0f99e9bf17124,2021-07-29_19h34.46.958,Simcolourproject_2stim_asymm_v5,2020.2.10,MacIntel,60,61025ae37ef11b136ea224fe,,,,,,,,,3676,-51.4609375,-91.578125,1,0,0,response5disk,,3,7.4921875,-3.2109375,1,0,0,rectangle,7.4921875,-3.2109375,1,0,0,7.4921875,-3.2109375,1,0,0,0,22,22,91,1,,,,,,,,
,,,,,,,,,,,,,FF,,,,,,,,1.752,,,,,,,,,,,,,,,,,,,,,,6103547238747506ef02bb29,6103651687d0f99e9bf17124,2021-07-29_19h34.46.958,Simcolourproject_2stim_asymm_v5,2020.2.10,MacIntel,60,61025ae37ef11b136ea224fe,,,,,,,,,1236,34.05859375,-84.3203125,1,0,0,response3disk,,4,0.16015625,-1.1875,1,0,0,rectangle,0.16015625,-1.1875,1,0,0,0.16015625,-1.1875,1,0,0,0,23,23,57,1,,,,,,,,
,,,,,,,,,,,,,FF,,,,,,,,1.7357,,,,,,,,,,,,,,,,,,,,,,6103547238747506ef02bb29,6103651687d0f99e9bf17124,2021-07-29_19h34.46.958,Simcolourproject_2stim_asymm_v5,2020.2.10,MacIntel,60,61025ae37ef11b136ea224fe,,,,,,,,,3196,-97.8515625,33.8515625,1,0,0,response7disk,,1,-10.890625,-6.55859375,1,0,0,rectangle,-85.36328125,40.1015625,1,0,0,-9.4375,-9.77734375,1,0,0,0,24,24,76,1,,response7disk_3,TRUE,1,1,"[131,289,175,179,289,267,180,80,236,171,25,95,85,3,156,300,26,117,178,215]",2.3055,rectangle
,,,,,,,,,,,,,FF,,,,,,,,1.7863,,,,,,,,,,,,,,,,,,,,,,6103547238747506ef02bb29,6103651687d0f99e9bf17124,2021-07-29_19h34.46.958,Simcolourproject_2stim_asymm_v5,2020.2.10,MacIntel,60,61025ae37ef11b136ea224fe,,,,,,,,,139,103.2773438,-67.07421875,1,0,0,response3disk,,5,-5.66015625,8.34375,1,0,0,rectangle,87.6640625,-37.76953125,1,0,0,11.53515625,-2.04296875,1,0,0,0,25,25,79,1,,response3disk_3,TRUE,5,5,"[131,289,175,179,289,267,180,80,236,171,25,95,85,3,156,300,26,117,178,215]",1.7658,rectangle
,,,,,,,,,,,,,FF,,,,,,,,1.5807,,,,,,,,,,,,,,,,,,,,,,6103547238747506ef02bb29,6103651687d0f99e9bf17124,2021-07-29_19h34.46.958,Simcolourproject_2stim_asymm_v5,2020.2.10,MacIntel,60,61025ae37ef11b136ea224fe,,,,,,,,,1455,-89.98046875,-55.453125,1,0,0,response5disk,,2,10.1015625,-5.078125,1,0,0,rectangle,10.1015625,-5.078125,1,0,0,10.1015625,-5.078125,1,0,0,0,26,26,68,1,,,,,,,,
,,,,,,,,,,,,,FF,,,,,,,,4.0201,,,,,,,,,,,,,,,,,,,,,,6103547238747506ef02bb29,6103651687d0f99e9bf17124,2021-07-29_19h34.46.958,Simcolourproject_2stim_asymm_v5,2020.2.10,MacIntel,60,61025ae37ef11b136ea224fe,,,,,,,,,2214,90.1484375,-47.6171875,1,0,0,response3disk,,5,-5.83203125,-1.44921875,1,0,0,rectangle,-5.83203125,-1.44921875,1,0,0,-5.83203125,-1.44921875,1,0,0,0,27,27,117,1,,,,,,,,
,,,,,,,,,,,,,FF,,,,,,,,1.0325,,,,,,,,,,,,,,,,,,,,,,6103547238747506ef02bb29,6103651687d0f99e9bf17124,2021-07-29_19h34.46.958,Simcolourproject_2stim_asymm_v5,2020.2.10,MacIntel,60,61025ae37ef11b136ea224fe,,,,,,,,,2669,45.3671875,-80.33984375,1,0,0,response3disk,,4,-1.58203125,-5.7734375,1,0,0,rectangle,-1.58203125,-5.7734375,1,0,0,-1.58203125,-5.7734375,1,0,0,0,28,28,116,1,,,,,,,,
,,,,,,,,,,,,,FF,,,,,,,,1.4184,,,,,,,,,,,,,,,,,,,,,,6103547238747506ef02bb29,6103651687d0f99e9bf17124,2021-07-29_19h34.46.958,Simcolourproject_2stim_asymm_v5,2020.2.10,MacIntel,60,61025ae37ef11b136ea224fe,,,,,,,,,2695,88.5390625,32.12890625,1,0,0,response1disk,,6,-2.4609375,-0.421875,1,0,0,rectangle,-2.4609375,-0.421875,1,0,0,-2.4609375,-0.421875,1,0,0,0,29,29,119,1,,,,,,,,
,,,,,,,,,,,,,FF,,,,,,,,1.3353,,,,,,,,,,,,,,,,,,,,,,6103547238747506ef02bb29,6103651687d0f99e9bf17124,2021-07-29_19h34.46.958,Simcolourproject_2stim_asymm_v5,2020.2.10,MacIntel,60,61025ae37ef11b136ea224fe,,,,,,,,,4356,-84.96484375,54.140625,1,0,0,response7disk,,1,8.51171875,4.8359375,1,0,0,rectangle,8.51171875,4.8359375,1,0,0,8.51171875,4.8359375,1,0,0,0,30,30,126,1,,,,,,,,
,,,,,,,,,,,,,FF,,,,,,,,3.1146,,,,,,,,,,,,,,,,,,,,,,6103547238747506ef02bb29,6103651687d0f99e9bf17124,2021-07-29_19h34.46.958,Simcolourproject_2stim_asymm_v5,2020.2.10,MacIntel,60,61025ae37ef11b136ea224fe,,,,,,,,,817,36.2265625,-77.53125,1,0,0,response3disk,,4,-13.31640625,-1.7421875,1,0,0,rectangle,-13.31640625,-1.7421875,1,0,0,-13.31640625,-1.7421875,1,0,0,0,31,31,41,1,,,,,,,,
,,,,,,,,,,,,,FF,,,,,,,,2.1001,,,,,,,,,,,,,,,,,,,,,,6103547238747506ef02bb29,6103651687d0f99e9bf17124,2021-07-29_19h34.46.958,Simcolourproject_2stim_asymm_v5,2020.2.10,MacIntel,60,61025ae37ef11b136ea224fe,,,,,,,,,3108,-65.7578125,-89.6484375,1,0,0,response5disk,,3,3.015625,4.69921875,1,0,0,rectangle,3.015625,4.69921875,1,0,0,3.015625,4.69921875,1,0,0,0,32,32,141,1,,,,,,,,
,,,,,,,,,,,,,FF,,,,,,,,4.8161,,,,,,,,,,,,,,,,,,,,,,6103547238747506ef02bb29,6103651687d0f99e9bf17124,2021-07-29_19h34.46.958,Simcolourproject_2stim_asymm_v5,2020.2.10,MacIntel,60,61025ae37ef11b136ea224fe,,,,,,,,,1926,92.05078125,29.48046875,1,0,0,response1disk,,6,9.7890625,-4.8515625,1,0,0,rectangle,9.7890625,-4.8515625,1,0,0,9.7890625,-4.8515625,1,0,0,0,33,33,46,1,,,,,,,,
,,,,,,,,,,,,,FF,,,,,,,,5.3648,,,,,,,,,,,,,,,,,,,,,,6103547238747506ef02bb29,6103651687d0f99e9bf17124,2021-07-29_19h34.46.958,Simcolourproject_2stim_asymm_v5,2020.2.10,MacIntel,60,61025ae37ef11b136ea224fe,,,,,,,,,215,63.26953125,-42.3046875,1,0,0,response3disk,,5,-10.7734375,0.015625,1,0,0,rectangle,-10.7734375,0.015625,1,0,0,-10.7734375,0.015625,1,0,0,0,34,34,98,1,,,,,,,,
,,,,,,,,,,,,,FF,,,,,,,,1.5009,,,,,,,,,,,,,,,,,,,,,,6103547238747506ef02bb29,6103651687d0f99e9bf17124,2021-07-29_19h34.46.958,Simcolourproject_2stim_asymm_v5,2020.2.10,MacIntel,60,61025ae37ef11b136ea224fe,,,,,,,,,2224,71.23046875,36.12109375,1,0,0,response1disk,,6,23.3046875,11.68359375,1,0,0,rectangle,23.3046875,11.68359375,1,0,0,23.3046875,11.68359375,1,0,0,0,35,35,99,1,,,,,,,,
,,,,,,,,,,,,,FF,,,,,,,,2.6919,,,,,,,,,,,,,,,,,,,,,,6103547238747506ef02bb29,6103651687d0f99e9bf17124,2021-07-29_19h34.46.958,Simcolourproject_2stim_asymm_v5,2020.2.10,MacIntel,60,61025ae37ef11b136ea224fe,,,,,,,,,2463,72.6015625,36.4296875,1,0,0,response1disk,,6,0.96484375,-3.07421875,1,0,0,rectangle,0.96484375,-3.07421875,1,0,0,0.96484375,-3.07421875,1,0,0,0,36,36,143,1,,,,,,,,
,,,,,,,,,,,,,FF,,,,,,,,2.5987,,,,,,,,,,,,,,,,,,,,,,6103547238747506ef02bb29,6103651687d0f99e9bf17124,2021-07-29_19h34.46.958,Simcolourproject_2stim_asymm_v5,2020.2.10,MacIntel,60,61025ae37ef11b136ea224fe,,,,,,,,,669,78.6640625,44.32421875,1,0,0,response1disk,,6,3.50390625,8.1796875,1,0,0,rectangle,3.50390625,8.1796875,1,0,0,3.50390625,8.1796875,1,0,0,0,37,37,96,1,,,,,,,,
,,,,,,,,,,,,,FF,,,,,,,,1.9531,,,,,,,,,,,,,,,,,,,,,,6103547238747506ef02bb29,6103651687d0f99e9bf17124,2021-07-29_19h34.46.958,Simcolourproject_2stim_asymm_v5,2020.2.10,MacIntel,60,61025ae37ef11b136ea224fe,,,,,,,,,464,45.86328125,-68.484375,1,0,0,response3disk,,4,12.72265625,-8.125,1,0,0,rectangle,12.72265625,-8.125,1,0,0,12.72265625,-8.125,1,0,0,0,38,38,70,1,,,,,,,,
,,,,,,,,,,,,,FF,,,,,,,,1.5684,,,,,,,,,,,,,,,,,,,,,,6103547238747506ef02bb29,6103651687d0f99e9bf17124,2021-07-29_19h34.46.958,Simcolourproject_2stim_asymm_v5,2020.2.10,MacIntel,60,61025ae37ef11b136ea224fe,,,,,,,,,1818,51.796875,-76.83203125,1,0,0,response3disk,,4,4.09375,-7.03515625,1,0,0,rectangle,4.09375,-7.03515625,1,0,0,4.09375,-7.03515625,1,0,0,0,39,39,112,1,,,,,,,,
,,,,,,,,,,,,,FF,,,,,,,,1.4985,,,,,,,,,,,,,,,,,,,,,,6103547238747506ef02bb29,6103651687d0f99e9bf17124,2021-07-29_19h34.46.958,Simcolourproject_2stim_asymm_v5,2020.2.10,MacIntel,60,61025ae37ef11b136ea224fe,,,,,,,,,1886,-53.70703125,83.40625,1,0,0,response7disk,,0,-1.96484375,-2.9921875,1,0,0,rectangle,-1.96484375,-2.9921875,1,0,0,-1.96484375,-2.9921875,1,0,0,0,40,40,19,1,,,,,,,,
,,,,,,,,,,,,,FF,,,,,,,,1.8004,,,,,,,,,,,,,,,,,,,,,,6103547238747506ef02bb29,6103651687d0f99e9bf17124,2021-07-29_19h34.46.958,Simcolourproject_2stim_asymm_v5,2020.2.10,MacIntel,60,61025ae37ef11b136ea224fe,,,,,,,,,3307,53.1796875,100.7070313,1,0,0,response1disk,,7,13.35546875,4.45703125,1,0,0,rectangle,13.35546875,4.45703125,1,0,0,13.35546875,4.45703125,1,0,0,0,41,41,102,1,,,,,,,,
,,,,,,,,,,,,,FF,,,,,,,,2.536,,,,,,,,,,,,,,,,,,,,,,6103547238747506ef02bb29,6103651687d0f99e9bf17124,2021-07-29_19h34.46.958,Simcolourproject_2stim_asymm_v5,2020.2.10,MacIntel,60,61025ae37ef11b136ea224fe,,,,,,,,,3392,-87.4453125,-46.8359375,1,0,0,response5disk,,2,-0.3203125,1.96875,1,0,0,rectangle,-0.3203125,1.96875,1,0,0,-0.3203125,1.96875,1,0,0,0,42,42,13,1,,,,,,,,
,,,,,,,,,,,,,FF,,,,,,,,2.7005,,,,,,,,,,,,,,,,,,,,,,6103547238747506ef02bb29,6103651687d0f99e9bf17124,2021-07-29_19h34.46.958,Simcolourproject_2stim_asymm_v5,2020.2.10,MacIntel,60,61025ae37ef11b136ea224fe,,,,,,,,,502,87.390625,48.15625,1,0,0,response1disk,,6,0.30078125,-5.234375,1,0,0,rectangle,0.30078125,-5.234375,1,0,0,0.30078125,-5.234375,1,0,0,0,43,43,78,1,,,,,,,,
,,,,,,,,,,,,,FF,,,,,,,,1.8295,,,,,,,,,,,,,,,,,,,,,,6103547238747506ef02bb29,6103651687d0f99e9bf17124,2021-07-29_19h34.46.958,Simcolourproject_2stim_asymm_v5,2020.2.10,MacIntel,60,61025ae37ef11b136ea224fe,,,,,,,,,2566,51.0859375,93.65234375,1,0,0,response1disk,,7,-16.19140625,-15.734375,1,0,0,rectangle,-16.19140625,-15.734375,1,0,0,-16.19140625,-15.734375,1,0,0,0,44,44,85,1,,,,,,,,
,,,,,,,,,,,,,FF,,,,,,,,2.7371,,,,,,,,,,,,,,,,,,,,,,6103547238747506ef02bb29,6103651687d0f99e9bf17124,2021-07-29_19h34.46.958,Simcolourproject_2stim_asymm_v5,2020.2.10,MacIntel,60,61025ae37ef11b136ea224fe,,,,,,,,,289,47.36328125,-71.6484375,1,0,0,response3disk,,4,0.9375,-14.4453125,1,0,0,rectangle,0.9375,-14.4453125,1,0,0,0.9375,-14.4453125,1,0,0,0,45,45,153,1,,,,,,,,
,,,,,,,,,,,,,FF,,,,,,,,1.3006,,,,,,,,,,,,,,,,,,,,,,6103547238747506ef02bb29,6103651687d0f99e9bf17124,2021-07-29_19h34.46.958,Simcolourproject_2stim_asymm_v5,2020.2.10,MacIntel,60,61025ae37ef11b136ea224fe,,,,,,,,,1196,74.26171875,-53.640625,1,0,0,response3disk,,5,10.55859375,-13.1875,1,0,0,rectangle,10.55859375,-13.1875,1,0,0,10.55859375,-13.1875,1,0,0,0,46,46,104,1,,,,,,,,
,,,,,,,,,,,,,FF,,,,,,,,0.9512,,,,,,,,,,,,,,,,,,,,,,6103547238747506ef02bb29,6103651687d0f99e9bf17124,2021-07-29_19h34.46.958,Simcolourproject_2stim_asymm_v5,2020.2.10,MacIntel,60,61025ae37ef11b136ea224fe,,,,,,,,,2128,86.48046875,49.73046875,1,0,0,response1disk,,6,-1.63671875,-2.5859375,1,0,0,rectangle,-1.63671875,-2.5859375,1,0,0,-1.63671875,-2.5859375,1,0,0,0,47,47,63,1,,,,,,,,
,,,,,,,,,,,,,FF,,,,,,,,3.2341,,,,,,,,,,,,,,,,,,,,,,6103547238747506ef02bb29,6103651687d0f99e9bf17124,2021-07-29_19h34.46.958,Simcolourproject_2stim_asymm_v5,2020.2.10,MacIntel,60,61025ae37ef11b136ea224fe,,,,,,,,,1604,-91.86328125,-52.1875,1,0,0,response5disk,,2,-4.29296875,-4.56640625,1,0,0,rectangle,-4.29296875,-4.56640625,1,0,0,-4.29296875,-4.56640625,1,0,0,0,48,48,10,1,,,,,,,,
,,,,,,,,,,,,,FF,,,,,,,,1.0534,,,,,,,,,,,,,,,,,,,,,,6103547238747506ef02bb29,6103651687d0f99e9bf17124,2021-07-29_19h34.46.958,Simcolourproject_2stim_asymm_v5,2020.2.10,MacIntel,60,61025ae37ef11b136ea224fe,,,,,,,,,277,-74.40234375,-38.296875,1,0,0,response5disk,,2,-14.30078125,-10.8828125,1,0,0,rectangle,-14.30078125,-10.8828125,1,0,0,-14.30078125,-10.8828125,1,0,0,0,49,49,113,1,,,,,,,,
,,,,,,,,,,,,,FF,,,,,,,,1.1829,,,,,,,,,,,,,,,,,,,,,,6103547238747506ef02bb29,6103651687d0f99e9bf17124,2021-07-29_19h34.46.958,Simcolourproject_2stim_asymm_v5,2020.2.10,MacIntel,60,61025ae37ef11b136ea224fe,,,,,,,,,1893,-67.0390625,-96.1953125,1,0,0,response5disk,,3,-2.859375,-2.90625,1,0,0,rectangle,-2.859375,-2.90625,1,0,0,-2.859375,-2.90625,1,0,0,0,50,50,6,1,,,,,,,,
,,,,,,,,,,,,,FF,,,,,,,,4.7192,,,,,,,,,,,,,,,,,,,,,,6103547238747506ef02bb29,6103651687d0f99e9bf17124,2021-07-29_19h34.46.958,Simcolourproject_2stim_asymm_v5,2020.2.10,MacIntel,60,61025ae37ef11b136ea224fe,,,,,,,,,3330,44.86328125,-68.703125,1,0,0,response3disk,,4,18.86328125,-6.87890625,1,0,0,rectangle,18.86328125,-6.87890625,1,0,0,18.86328125,-6.87890625,1,0,0,0,51,51,93,1,,,,,,,,
,,,,,,,,,,,,,FF,,,,,,,,1.5163,,,,,,,,,,,,,,,,,,,,,,6103547238747506ef02bb29,6103651687d0f99e9bf17124,2021-07-29_19h34.46.958,Simcolourproject_2stim_asymm_v5,2020.2.10,MacIntel,60,61025ae37ef11b136ea224fe,,,,,,,,,1055,85.99609375,-39.7421875,1,0,0,response3disk,,5,1.09765625,2.875,1,0,0,rectangle,1.09765625,2.875,1,0,0,1.09765625,2.875,1,0,0,0,52,52,52,1,,,,,,,,
,,,,,,,,,,,,,FF,,,,,,,,2.151,,,,,,,,,,,,,,,,,,,,,,6103547238747506ef02bb29,6103651687d0f99e9bf17124,2021-07-29_19h34.46.958,Simcolourproject_2stim_asymm_v5,2020.2.10,MacIntel,60,61025ae37ef11b136ea224fe,,,,,,,,,2881,82.1015625,35.86328125,1,0,0,response1disk,,6,0.65625,-1.70703125,1,0,0,rectangle,0.65625,-1.70703125,1,0,0,0.65625,-1.70703125,1,0,0,0,53,53,26,1,,,,,,,,
,,,,,,,,,,,,,FF,,,,,,,,1.0518,,,,,,,,,,,,,,,,,,,,,,6103547238747506ef02bb29,6103651687d0f99e9bf17124,2021-07-29_19h34.46.958,Simcolourproject_2stim_asymm_v5,2020.2.10,MacIntel,60,61025ae37ef11b136ea224fe,,,,,,,,,521,71.99609375,100.9921875,1,0,0,response1disk,,7,5.92578125,9.171875,1,0,0,rectangle,5.92578125,9.171875,1,0,0,5.92578125,9.171875,1,0,0,0,54,54,50,1,,,,,,,,
,,,,,,,,,,,,,FF,,,,,,,,4.1012,,,,,,,,,,,,,,,,,,,,,,6103547238747506ef02bb29,6103651687d0f99e9bf17124,2021-07-29_19h34.46.958,Simcolourproject_2stim_asymm_v5,2020.2.10,MacIntel,60,61025ae37ef11b136ea224fe,,,,,,,,,780,71.34765625,-25.48828125,1,0,0,response3disk,,5,25.671875,-9.59765625,1,0,0,rectangle,25.671875,-9.59765625,1,0,0,25.671875,-9.59765625,1,0,0,0,55,55,11,1,,,,,,,,
,,,,,,,,,,,,,FF,,,,,,,,2.483,,,,,,,,,,,,,,,,,,,,,,6103547238747506ef02bb29,6103651687d0f99e9bf17124,2021-07-29_19h34.46.958,Simcolourproject_2stim_asymm_v5,2020.2.10,MacIntel,60,61025ae37ef11b136ea224fe,,,,,,,,,976,65.734375,-42.65234375,1,0,0,response3disk,,5,-3.62109375,9.76171875,1,0,0,rectangle,-3.62109375,9.76171875,1,0,0,-3.62109375,9.76171875,1,0,0,0,56,56,16,1,,,,,,,,
,,,,,,,,,,,,,FF,,,,,,,,0.9355,,,,,,,,,,,,,,,,,,,,,,6103547238747506ef02bb29,6103651687d0f99e9bf17124,2021-07-29_19h34.46.958,Simcolourproject_2stim_asymm_v5,2020.2.10,MacIntel,60,61025ae37ef11b136ea224fe,,,,,,,,,125,82.046875,45.0078125,1,0,0,response1disk,,6,3.71875,3.64453125,1,0,0,rectangle,3.71875,3.64453125,1,0,0,3.71875,3.64453125,1,0,0,0,57,57,45,1,,,,,,,,
,,,,,,,,,,,,,FF,,,,,,,,3.5299,,,,,,,,,,,,,,,,,,,,,,6103547238747506ef02bb29,6103651687d0f99e9bf17124,2021-07-29_19h34.46.958,Simcolourproject_2stim_asymm_v5,2020.2.10,MacIntel,60,61025ae37ef11b136ea224fe,,,,,,,,,3324,57.328125,81.5390625,1,0,0,response1disk,,7,24.19921875,7.8984375,1,0,0,rectangle,24.19921875,7.8984375,1,0,0,24.19921875,7.8984375,1,0,0,0,58,58,48,1,,,,,,,,
,,,,,,,,,,,,,FF,,,,,,,,2.8016,,,,,,,,,,,,,,,,,,,,,,6103547238747506ef02bb29,6103651687d0f99e9bf17124,2021-07-29_19h34.46.958,Simcolourproject_2stim_asymm_v5,2020.2.10,MacIntel,60,61025ae37ef11b136ea224fe,,,,,,,,,3854,76.43359375,-54.484375,1,0,0,response3disk,,5,-5.2890625,-5.9765625,1,0,0,rectangle,-5.2890625,-5.9765625,1,0,0,-5.2890625,-5.9765625,1,0,0,0,59,59,157,1,,,,,,,,
,,,,,,,,,,,,,FF,,,,,,,,1.3494,,,,,,,,,,,,,,,,,,,,,,6103547238747506ef02bb29,6103651687d0f99e9bf17124,2021-07-29_19h34.46.958,Simcolourproject_2stim_asymm_v5,2020.2.10,MacIntel,60,61025ae37ef11b136ea224fe,,,,,,,,,3708,-79.265625,-44.73828125,1,0,0,response5disk,,2,-12.6484375,-5.90234375,1,0,0,rectangle,-12.6484375,-5.90234375,1,0,0,-12.6484375,-5.90234375,1,0,0,0,60,60,115,1,,,,,,,,
,,,,,,,,,,,,,FF,,,,,,,,1.0156,,,,,,,,,,,,,,,,,,,,,,6103547238747506ef02bb29,6103651687d0f99e9bf17124,2021-07-29_19h34.46.958,Simcolourproject_2stim_asymm_v5,2020.2.10,MacIntel,60,61025ae37ef11b136ea224fe,,,,,,,,,2771,-44.265625,-84.35546875,1,0,0,response5disk,,3,-7.80078125,6.8984375,1,0,0,rectangle,-7.80078125,6.8984375,1,0,0,-7.80078125,6.8984375,1,0,0,0,61,61,92,1,,,,,,,,
,,,,,,,,,,,,,FF,,,,,,,,1.1825,,,,,,,,,,,,,,,,,,,,,,6103547238747506ef02bb29,6103651687d0f99e9bf17124,2021-07-29_19h34.46.958,Simcolourproject_2stim_asymm_v5,2020.2.10,MacIntel,60,61025ae37ef11b136ea224fe,,,,,,,,,3523,35.7109375,-69.7265625,1,0,0,response3disk,,4,11.9609375,-9.84765625,1,0,0,rectangle,11.9609375,-9.84765625,1,0,0,11.9609375,-9.84765625,1,0,0,0,62,62,7,1,,,,,,,,
,,,,,,,,,,,,,FF,,,,,,,,0.9856,,,,,,,,,,,,,,,,,,,,,,6103547238747506ef02bb29,6103651687d0f99e9bf17124,2021-07-29_19h34.46.958,Simcolourproject_2stim_asymm_v5,2020.2.10,MacIntel,60,61025ae37ef11b136ea224fe,,,,,,,,,1200,81.28125,-43.08984375,1,0,0,response3disk,,5,11.65234375,-13.234375,1,0,0,rectangle,11.65234375,-13.234375,1,0,0,11.65234375,-13.234375,1,0,0,0,63,63,107,1,,,,,,,,
,,,,,,,,,,,,,FF,,,,,,,,1.1338,,,,,,,,,,,,,,,,,,,,,,6103547238747506ef02bb29,6103651687d0f99e9bf17124,2021-07-29_19h34.46.958,Simcolourproject_2stim_asymm_v5,2020.2.10,MacIntel,60,61025ae37ef11b136ea224fe,,,,,,,,,924,57.33203125,87.515625,1,0,0,response1disk,,7,19.8828125,11.5546875,1,0,0,rectangle,19.8828125,11.5546875,1,0,0,19.8828125,11.5546875,1,0,0,0,64,64,118,1,,,,,,,,
,,,,,,,,,,,,,FF,,,,,,,,2.1357,,,,,,,,,,,,,,,,,,,,,,6103547238747506ef02bb29,6103651687d0f99e9bf17124,2021-07-29_19h34.46.958,Simcolourproject_2stim_asymm_v5,2020.2.10,MacIntel,60,61025ae37ef11b136ea224fe,,,,,,,,,3598,50.30859375,-76.4140625,1,0,0,response3disk,,4,-19.4296875,-4.94140625,1,0,0,rectangle,-19.4296875,-4.94140625,1,0,0,-19.4296875,-4.94140625,1,0,0,0,65,65,90,1,,,,,,,,
,,,,,,,,,,,,,FF,,,,,,,,1.7707,,,,,,,,,,,,,,,,,,,,,,6103547238747506ef02bb29,6103651687d0f99e9bf17124,2021-07-29_19h34.46.958,Simcolourproject_2stim_asymm_v5,2020.2.10,MacIntel,60,61025ae37ef11b136ea224fe,,,,,,,,,3208,31.68359375,-73.640625,1,0,0,response3disk,,4,7.72265625,-9.98046875,1,0,0,rectangle,7.72265625,-9.98046875,1,0,0,7.72265625,-9.98046875,1,0,0,0,66,66,15,1,,,,,,,,
,,,,,,,,,,,,,FF,,,,,,,,1.3495,,,,,,,,,,,,,,,,,,,,,,6103547238747506ef02bb29,6103651687d0f99e9bf17124,2021-07-29_19h34.46.958,Simcolourproject_2stim_asymm_v5,2020.2.10,MacIntel,60,61025ae37ef11b136ea224fe,,,,,,,,,434,42.3828125,-84.16796875,1,0,0,response3disk,,4,16.0859375,-9.51953125,1,0,0,rectangle,16.0859375,-9.51953125,1,0,0,16.0859375,-9.51953125,1,0,0,0,67,67,39,1,,,,,,,,
,,,,,,,,,,,,,FF,,,,,,,,0.9666,,,,,,,,,,,,,,,,,,,,,,6103547238747506ef02bb29,6103651687d0f99e9bf17124,2021-07-29_19h34.46.958,Simcolourproject_2stim_asymm_v5,2020.2.10,MacIntel,60,61025ae37ef11b136ea224fe,,,,,,,,,1243,100.9726563,-50.1484375,1,0,0,response3disk,,5,6.1953125,-13.5234375,1,0,0,rectangle,6.1953125,-13.5234375,1,0,0,6.1953125,-13.5234375,1,0,0,0,68,68,75,1,,,,,,,,
,,,,,,,,,,,,,FF,,,,,,,,1.2509,,,,,,,,,,,,,,,,,,,,,,6103547238747506ef02bb29,6103651687d0f99e9bf17124,2021-07-29_19h34.46.958,Simcolourproject_2stim_asymm_v5,2020.2.10,MacIntel,60,61025ae37ef11b136ea224fe,,,,,,,,,1847,80.1640625,-39.08203125,1,0,0,response3disk,,5,-8.03125,1.61328125,1,0,0,rectangle,-8.03125,1.61328125,1,0,0,-8.03125,1.61328125,1,0,0,0,69,69,21,1,,,,,,,,
,,,,,,,,,,,,,FF,,,,,,,,1.7991,,,,,,,,,,,,,,,,,,,,,,6103547238747506ef02bb29,6103651687d0f99e9bf17124,2021-07-29_19h34.46.958,Simcolourproject_2stim_asymm_v5,2020.2.10,MacIntel,60,61025ae37ef11b136ea224fe,,,,,,,,,1754,-43.15625,-81.0234375,1,0,0,response5disk,,3,-11.1640625,-7.09375,1,0,0,rectangle,-11.1640625,-7.09375,1,0,0,-11.1640625,-7.09375,1,0,0,0,70,70,159,1,,,,,,,,
,,,,,,,,,,,,,FF,,,,,,,,1.0016,,,,,,,,,,,,,,,,,,,,,,6103547238747506ef02bb29,6103651687d0f99e9bf17124,2021-07-29_19h34.46.958,Simcolourproject_2stim_asymm_v5,2020.2.10,MacIntel,60,61025ae37ef11b136ea224fe,,,,,,,,,1752,-47.9453125,-87.09375,1,0,0,response5disk,,3,-13.34375,-8.828125,1,0,0,rectangle,-13.34375,-8.828125,1,0,0,-13.34375,-8.828125,1,0,0,0,71,71,124,1,,,,,,,,
,,,,,,,,,,,,,FF,,,,,,,,1.5329,,,,,,,,,,,,,,,,,,,,,,6103547238747506ef02bb29,6103651687d0f99e9bf17124,2021-07-29_19h34.46.958,Simcolourproject_2stim_asymm_v5,2020.2.10,MacIntel,60,61025ae37ef11b136ea224fe,,,,,,,,,4261,41.62109375,75.06640625,1,0,0,response1disk,,7,0.76953125,12.60546875,1,0,0,rectangle,0.76953125,12.60546875,1,0,0,0.76953125,12.60546875,1,0,0,0,72,72,86,1,,,,,,,,
,,,,,,,,,,,,,FF,,,,,,,,1.6854,,,,,,,,,,,,,,,,,,,,,,6103547238747506ef02bb29,6103651687d0f99e9bf17124,2021-07-29_19h34.46.958,Simcolourproject_2stim_asymm_v5,2020.2.10,MacIntel,60,61025ae37ef11b136ea224fe,,,,,,,,,1907,44.45703125,-65.625,1,0,0,response3disk,,4,12.390625,6.33203125,1,0,0,rectangle,12.390625,6.33203125,1,0,0,12.390625,6.33203125,1,0,0,0,73,73,150,1,,,,,,,,
,,,,,,,,,,,,,FF,,,,,,,,3.3308,,,,,,,,,,,,,,,,,,,,,,6103547238747506ef02bb29,6103651687d0f99e9bf17124,2021-07-29_19h34.46.958,Simcolourproject_2stim_asymm_v5,2020.2.10,MacIntel,60,61025ae37ef11b136ea224fe,,,,,,,,,149,52.73046875,-84.015625,1,0,0,response3disk,,4,18.13671875,-3.1796875,1,0,0,rectangle,18.13671875,-3.1796875,1,0,0,18.13671875,-3.1796875,1,0,0,0,74,74,97,1,,,,,,,,
,,,,,,,,,,,,,FF,,,,,,,,0.9678,,,,,,,,,,,,,,,,,,,,,,6103547238747506ef02bb29,6103651687d0f99e9bf17124,2021-07-29_19h34.46.958,Simcolourproject_2stim_asymm_v5,2020.2.10,MacIntel,60,61025ae37ef11b136ea224fe,,,,,,,,,2682,58.4765625,34.38671875,1,0,0,response1disk,,6,-0.0390625,6.8828125,1,0,0,rectangle,-0.0390625,6.8828125,1,0,0,-0.0390625,6.8828125,1,0,0,0,75,75,74,1,,,,,,,,
,,,,,,,,,,,,,FF,,,,,,,,1.0501,,,,,,,,,,,,,,,,,,,,,,6103547238747506ef02bb29,6103651687d0f99e9bf17124,2021-07-29_19h34.46.958,Simcolourproject_2stim_asymm_v5,2020.2.10,MacIntel,60,61025ae37ef11b136ea224fe,,,,,,,,,2470,36.03515625,91.9375,1,0,0,response1disk,,7,10.65625,6.34375,1,0,0,rectangle,10.65625,6.34375,1,0,0,10.65625,6.34375,1,0,0,0,76,76,2,1,,,,,,,,
,,,,,,,,,,,,,FF,,,,,,,,1.0502,,,,,,,,,,,,,,,,,,,,,,6103547238747506ef02bb29,6103651687d0f99e9bf17124,2021-07-29_19h34.46.958,Simcolourproject_2stim_asymm_v5,2020.2.10,MacIntel,60,61025ae37ef11b136ea224fe,,,,,,,,,2539,36.51171875,66.25,1,0,0,response1disk,,7,9.7109375,10.796875,1,0,0,rectangle,9.7109375,10.796875,1,0,0,9.7109375,10.796875,1,0,0,0,77,77,151,1,,,,,,,,
,,,,,,,,,,,,,FF,,,,,,,,0.986,,,,,,,,,,,,,,,,,,,,,,6103547238747506ef02bb29,6103651687d0f99e9bf17124,2021-07-29_19h34.46.958,Simcolourproject_2stim_asymm_v5,2020.2.10,MacIntel,60,61025ae37ef11b136ea224fe,,,,,,,,,1748,-34.74609375,-58.27734375,1,0,0,response5disk,,3,-19.9921875,1.8984375,1,0,0,rectangle,-19.9921875,1.8984375,1,0,0,-19.9921875,1.8984375,1,0,0,0,78,78,128,1,,,,,,,,
,,,,,,,,,,,,,FF,,,,,,,,1.4519,,,,,,,,,,,,,,,,,,,,,,6103547238747506ef02bb29,6103651687d0f99e9bf17124,2021-07-29_19h34.46.958,Simcolourproject_2stim_asymm_v5,2020.2.10,MacIntel,60,61025ae37ef11b136ea224fe,,,,,,,,,2201,86.2890625,-41.72265625,1,0,0,response3disk,,5,18.1171875,-4.078125,1,0,0,rectangle,-82.01953125,54.703125,1,0,0,-25.09765625,11.79296875,1,0,0,0,79,79,53,1,,response7disk_3,TRUE,1,1,"[131,289,175,179,289,267,180,80,236,171,25,95,85,3,156,300,26,117,178,215]",1.6693,rectangle
,,,,,,,,,,,,,FF,,,,,,,,0.9018,,,,,,,,,,,,,,,,,,,,,,6103547238747506ef02bb29,6103651687d0f99e9bf17124,2021-07-29_19h34.46.958,Simcolourproject_2stim_asymm_v5,2020.2.10,MacIntel,60,61025ae37ef11b136ea224fe,,,,,,,,,3260,79.16796875,-43.4609375,1,0,0,response3disk,,5,6.83203125,-3.8125,1,0,0,rectangle,6.83203125,-3.8125,1,0,0,6.83203125,-3.8125,1,0,0,0,80,80,148,1,,,,,,,,
,,,,,,,,,,,,,FF,,,,,,,,1.4656,,,,,,,,,,,,,,,,,,,,,,6103547238747506ef02bb29,6103651687d0f99e9bf17124,2021-07-29_19h34.46.958,Simcolourproject_2stim_asymm_v5,2020.2.10,MacIntel,60,61025ae37ef11b136ea224fe,,,,,,,,,1494,34.41015625,74.89453125,1,0,0,response1disk,,7,-8.13671875,-15.84765625,1,0,0,rectangle,-8.13671875,-15.84765625,1,0,0,-8.13671875,-15.84765625,1,0,0,0,81,81,38,1,,,,,,,,
,,,,,,,,,,,,,FF,,,,,,,,3.6389,,,,,,,,,,,,,,,,,,,,,,6103547238747506ef02bb29,6103651687d0f99e9bf17124,2021-07-29_19h34.46.958,Simcolourproject_2stim_asymm_v5,2020.2.10,MacIntel,60,61025ae37ef11b136ea224fe,,,,,,,,,3896,68.953125,-38.3046875,1,0,0,response3disk,,5,3.8984375,-12.45703125,1,0,0,rectangle,3.8984375,-12.45703125,1,0,0,3.8984375,-12.45703125,1,0,0,0,82,82,127,1,,,,,,,,
,,,,,,,,,,,,,FF,,,,,,,,1.77,,,,,,,,,,,,,,,,,,,,,,6103547238747506ef02bb29,6103651687d0f99e9bf17124,2021-07-29_19h34.46.958,Simcolourproject_2stim_asymm_v5,2020.2.10,MacIntel,60,61025ae37ef11b136ea224fe,,,,,,,,,4075,-78.03515625,-40.1796875,1,0,0,response5disk,,2,-16.5,-4.64453125,1,0,0,rectangle,-16.5,-4.64453125,1,0,0,-16.5,-4.64453125,1,0,0,0,83,83,28,1,,,,,,,,
,,,,,,,,,,,,,FF,,,,,,,,1.1376,,,,,,,,,,,,,,,,,,,,,,6103547238747506ef02bb29,6103651687d0f99e9bf17124,2021-07-29_19h34.46.958,Simcolourproject_2stim_asymm_v5,2020.2.10,MacIntel,60,61025ae37ef11b136ea224fe,,,,,,,,,2193,30.1640625,70.171875,1,0,0,response1disk,,7,7.59765625,3.265625,1,0,0,rectangle,-45.546875,84.11328125,1,0,0,-10.24609375,8.76171875,1,0,0,0,84,84,64,1,,response7disk_3,TRUE,0,0,"[131,289,175,179,289,267,180,80,236,171,25,95,85,3,156,300,26,117,178,215]",1.7679,rectangle
,,,,,,,,,,,,,FF,,,,,,,,2.0207,,,,,,,,,,,,,,,,,,,,,,6103547238747506ef02bb29,6103651687d0f99e9bf17124,2021-07-29_19h34.46.958,Simcolourproject_2stim_asymm_v5,2020.2.10,MacIntel,60,61025ae37ef11b136ea224fe,,,,,,,,,3751,-92.6015625,-46.82421875,1,0,0,response5disk,,2,-2.18359375,-4.2109375,1,0,0,rectangle,-2.18359375,-4.2109375,1,0,0,-2.18359375,-4.2109375,1,0,0,0,85,85,43,1,,,,,,,,
,,,,,,,,,,,,,FF,,,,,,,,1.0012,,,,,,,,,,,,,,,,,,,,,,6103547238747506ef02bb29,6103651687d0f99e9bf17124,2021-07-29_19h34.46.958,Simcolourproject_2stim_asymm_v5,2020.2.10,MacIntel,60,61025ae37ef11b136ea224fe,,,,,,,,,2615,-74.33203125,-33.2109375,1,0,0,response5disk,,2,-11.25390625,-0.96484375,1,0,0,rectangle,-11.25390625,-0.96484375,1,0,0,-11.25390625,-0.96484375,1,0,0,0,86,86,144,1,,,,,,,,
,,,,,,,,,,,,,FF,,,,,,,,1.3366,,,,,,,,,,,,,,,,,,,,,,6103547238747506ef02bb29,6103651687d0f99e9bf17124,2021-07-29_19h34.46.958,Simcolourproject_2stim_asymm_v5,2020.2.10,MacIntel,60,61025ae37ef11b136ea224fe,,,,,,,,,2172,-33.734375,-80.5546875,1,0,0,response5disk,,3,-7.37109375,-5.41796875,1,0,0,rectangle,-7.37109375,-5.41796875,1,0,0,-7.37109375,-5.41796875,1,0,0,0,87,87,149,1,,,,,,,,
,,,,,,,,,,,,,FF,,,,,,,,2.7025,,,,,,,,,,,,,,,,,,,,,,6103547238747506ef02bb29,6103651687d0f99e9bf17124,2021-07-29_19h34.46.958,Simcolourproject_2stim_asymm_v5,2020.2.10,MacIntel,60,61025ae37ef11b136ea224fe,,,,,,,,,768,61.5859375,83.640625,1,0,0,response1disk,,7,20.7109375,-1.55078125,1,0,0,rectangle,20.7109375,-1.55078125,1,0,0,20.7109375,-1.55078125,1,0,0,0,88,88,60,1,,,,,,,,
,,,,,,,,,,,,,FF,,,,,,,,0.9673,,,,,,,,,,,,,,,,,,,,,,6103547238747506ef02bb29,6103651687d0f99e9bf17124,2021-07-29_19h34.46.958,Simcolourproject_2stim_asymm_v5,2020.2.10,MacIntel,60,61025ae37ef11b136ea224fe,,,,,,,,,4196,39.125,79.1015625,1,0,0,response1disk,,7,20.62890625,8.7109375,1,0,0,rectangle,20.62890625,8.7109375,1,0,0,20.62890625,8.7109375,1,0,0,0,89,89,4,1,,,,,,,,
,,,,,,,,,,,,,FF,,,,,,,,2.7308,,,,,,,,,,,,,,,,,,,,,,6103547238747506ef02bb29,6103651687d0f99e9bf17124,2021-07-29_19h34.46.958,Simcolourproject_2stim_asymm_v5,2020.2.10,MacIntel,60,61025ae37ef11b136ea224fe,,,,,,,,,1000,78.16015625,33.01953125,1,0,0,response1disk,,6,16.8671875,4.83984375,1,0,0,rectangle,16.8671875,4.83984375,1,0,0,16.8671875,4.83984375,1,0,0,0,90,90,87,1,,,,,,,,
,,,,,,,,,,,,,FF,,,,,,,,1.3814,,,,,,,,,,,,,,,,,,,,,,6103547238747506ef02bb29,6103651687d0f99e9bf17124,2021-07-29_19h34.46.958,Simcolourproject_2stim_asymm_v5,2020.2.10,MacIntel,60,61025ae37ef11b136ea224fe,,,,,,,,,373,46.73828125,-63.203125,1,0,0,response3disk,,4,2.8984375,-4.52734375,1,0,0,rectangle,2.8984375,-4.52734375,1,0,0,2.8984375,-4.52734375,1,0,0,0,91,91,108,1,,,,,,,,
,,,,,,,,,,,,,FF,,,,,,,,0.9641,,,,,,,,,,,,,,,,,,,,,,6103547238747506ef02bb29,6103651687d0f99e9bf17124,2021-07-29_19h34.46.958,Simcolourproject_2stim_asymm_v5,2020.2.10,MacIntel,60,61025ae37ef11b136ea224fe,,,,,,,,,1896,-43.1171875,-73.8671875,1,0,0,response5disk,,3,-21.2265625,-5.27734375,1,0,0,rectangle,-21.2265625,-5.27734375,1,0,0,-21.2265625,-5.27734375,1,0,0,0,92,92,27,1,,,,,,,,
,,,,,,,,,,,,,FF,,,,,,,,1.5157,,,,,,,,,,,,,,,,,,,,,,6103547238747506ef02bb29,6103651687d0f99e9bf17124,2021-07-29_19h34.46.958,Simcolourproject_2stim_asymm_v5,2020.2.10,MacIntel,60,61025ae37ef11b136ea224fe,,,,,,,,,1769,94.54296875,-35.94140625,1,0,0,response3disk,,5,-15.453125,3.7109375,1,0,0,rectangle,-15.453125,3.7109375,1,0,0,-15.453125,3.7109375,1,0,0,0,93,93,23,1,,,,,,,,
,,,,,,,,,,,,,FF,,,,,,,,1.3523,,,,,,,,,,,,,,,,,,,,,,6103547238747506ef02bb29,6103651687d0f99e9bf17124,2021-07-29_19h34.46.958,Simcolourproject_2stim_asymm_v5,2020.2.10,MacIntel,60,61025ae37ef11b136ea224fe,,,,,,,,,2606,67.8125,-38.1171875,1,0,0,response3disk,,5,2.62890625,-11.125,1,0,0,rectangle,-67.390625,-36.7734375,1,0,0,-10.19921875,-9.83203125,1,0,0,0,94,94,54,1,,response5disk_3,TRUE,2,2,"[131,289,175,179,289,267,180,80,236,171,25,95,85,3,156,300,26,117,178,215]",1.7503,rectangle
,,,,,,,,,,,,,FF,,,,,,,,1.2356,,,,,,,,,,,,,,,,,,,,,,6103547238747506ef02bb29,6103651687d0f99e9bf17124,2021-07-29_19h34.46.958,Simcolourproject_2stim_asymm_v5,2020.2.10,MacIntel,60,61025ae37ef11b136ea224fe,,,,,,,,,2284,78.6328125,-45.8125,1,0,0,response3disk,,5,4.90625,-8.4140625,1,0,0,rectangle,4.90625,-8.4140625,1,0,0,4.90625,-8.4140625,1,0,0,0,95,95,8,1,,,,,,,,
,,,,,,,,,,,,,FF,,,,,,,,1.25,,,,,,,,,,,,,,,,,,,,,,6103547238747506ef02bb29,6103651687d0f99e9bf17124,2021-07-29_19h34.46.958,Simcolourproject_2stim_asymm_v5,2020.2.10,MacIntel,60,61025ae37ef11b136ea224fe,,,,,,,,,714,44.53515625,-75.3828125,1,0,0,response3disk,,4,17.328125,-12.30078125,1,0,0,rectangle,17.328125,-12.30078125,1,0,0,17.328125,-12.30078125,1,0,0,0,96,96,62,1,,,,,,,,
,,,,,,,,,,,,,FF,,,,,,,,1.0502,,,,,,,,,,,,,,,,,,,,,,6103547238747506ef02bb29,6103651687d0f99e9bf17124,2021-07-29_19h34.46.958,Simcolourproject_2stim_asymm_v5,2020.2.10,MacIntel,60,61025ae37ef11b136ea224fe,,,,,,,,,1906,33.25390625,-64.625,1,0,0,response3disk,,4,11.37890625,-4.3984375,1,0,0,rectangle,11.37890625,-4.3984375,1,0,0,11.37890625,-4.3984375,1,0,0,0,97,97,121,1,,,,,,,,
,,,,,,,,,,,,,FF,,,,,,,,3.1009,,,,,,,,,,,,,,,,,,,,,,6103547238747506ef02bb29,6103651687d0f99e9bf17124,2021-07-29_19h34.46.958,Simcolourproject_2stim_asymm_v5,2020.2.10,MacIntel,60,61025ae37ef11b136ea224fe,,,,,,,,,3607,71.7265625,39.62890625,1,0,0,response1disk,,6,-1.63671875,0.21484375,1,0,0,rectangle,-1.63671875,0.21484375,1,0,0,-1.63671875,0.21484375,1,0,0,0,98,98,32,1,,,,,,,,
,,,,,,,,,,,,,FF,,,,,,,,4.0837,,,,,,,,,,,,,,,,,,,,,,6103547238747506ef02bb29,6103651687d0f99e9bf17124,2021-07-29_19h34.46.958,Simcolourproject_2stim_asymm_v5,2020.2.10,MacIntel,60,61025ae37ef11b136ea224fe,,,,,,,,,2963,96.9921875,46.65625,1,0,0,response1disk,,6,23.77734375,6.015625,1,0,0,rectangle,23.77734375,6.015625,1,0,0,23.77734375,6.015625,1,0,0,0,99,99,95,1,,,,,,,,
,,,,,,,,,,,,,FF,,,,,,,,0.8654,,,,,,,,,,,,,,,,,,,,,,6103547238747506ef02bb29,6103651687d0f99e9bf17124,2021-07-29_19h34.46.958,Simcolourproject_2stim_asymm_v5,2020.2.10,MacIntel,60,61025ae37ef11b136ea224fe,,,,,,,,,1211,-51.31640625,76.37109375,1,0,0,response7disk,,0,-22.734375,10.6875,1,0,0,rectangle,-22.734375,10.6875,1,0,0,-22.734375,10.6875,1,0,0,0,100,100,129,1,,,,,,,,
,,,,,,,,,,,,,FF,,,,,,,,3.4315,,,,,,,,,,,,,,,,,,,,,,6103547238747506ef02bb29,6103651687d0f99e9bf17124,2021-07-29_19h34.46.958,Simcolourproject_2stim_asymm_v5,2020.2.10,MacIntel,60,61025ae37ef11b136ea224fe,,,,,,,,,1097,59.03515625,33.2578125,1,0,0,response1disk,,6,13.4921875,5.03125,1,0,0,rectangle,13.4921875,5.03125,1,0,0,13.4921875,5.03125,1,0,0,0,101,101,106,1,,,,,,,,
,,,,,,,,,,,,,FF,,,,,,,,1.065,,,,,,,,,,,,,,,,,,,,,,6103547238747506ef02bb29,6103651687d0f99e9bf17124,2021-07-29_19h34.46.958,Simcolourproject_2stim_asymm_v5,2020.2.10,MacIntel,60,61025ae37ef11b136ea224fe,,,,,,,,,4330,-81.04296875,55.48046875,1,0,0,response7disk,,1,-11.26171875,10.92578125,1,0,0,rectangle,-11.26171875,10.92578125,1,0,0,-11.26171875,10.92578125,1,0,0,0,102,102,140,1,,,,,,,,
,,,,,,,,,,,,,FF,,,,,,,,1.1349,,,,,,,,,,,,,,,,,,,,,,6103547238747506ef02bb29,6103651687d0f99e9bf17124,2021-07-29_19h34.46.958,Simcolourproject_2stim_asymm_v5,2020.2.10,MacIntel,60,61025ae37ef11b136ea224fe,,,,,,,,,3185,48.265625,-57.6953125,1,0,0,response3disk,,4,5.35546875,-9.9609375,1,0,0,rectangle,5.35546875,-9.9609375,1,0,0,5.35546875,-9.9609375,1,0,0,0,103,103,145,1,,,,,,,,
,,,,,,,,,,,,,FF,,,,,,,,1.5638,,,,,,,,,,,,,,,,,,,,,,6103547238747506ef02bb29,6103651687d0f99e9bf17124,2021-07-29_19h34.46.958,Simcolourproject_2stim_asymm_v5,2020.2.10,MacIntel,60,61025ae37ef11b136ea224fe,,,,,,,,,2275,88.97265625,51.40625,1,0,0,response1disk,,6,1.359375,13.23828125,1,0,0,rectangle,1.359375,13.23828125,1,0,0,1.359375,13.23828125,1,0,0,0,104,104,22,1,,,,,,,,
,,,,,,,,,,,,,FF,,,,,,,,1.753,,,,,,,,,,,,,,,,,,,,,,6103547238747506ef02bb29,6103651687d0f99e9bf17124,2021-07-29_19h34.46.958,Simcolourproject_2stim_asymm_v5,2020.2.10,MacIntel,60,61025ae37ef11b136ea224fe,,,,,,,,,2338,34.24609375,74.4296875,1,0,0,response1disk,,7,11.8203125,9.2734375,1,0,0,rectangle,11.8203125,9.2734375,1,0,0,11.8203125,9.2734375,1,0,0,0,105,105,114,1,,,,,,,,
,,,,,,,,,,,,,FF,,,,,,,,1.5386,,,,,,,,,,,,,,,,,,,,,,6103547238747506ef02bb29,6103651687d0f99e9bf17124,2021-07-29_19h34.46.958,Simcolourproject_2stim_asymm_v5,2020.2.10,MacIntel,60,61025ae37ef11b136ea224fe,,,,,,,,,2043,32.12890625,-59.3984375,1,0,0,response3disk,,4,-6.8984375,-3.21875,1,0,0,rectangle,-6.8984375,-3.21875,1,0,0,-6.8984375,-3.21875,1,0,0,0,106,106,83,1,,,,,,,,
,,,,,,,,,,,,,FF,,,,,,,,1.0339,,,,,,,,,,,,,,,,,,,,,,6103547238747506ef02bb29,6103651687d0f99e9bf17124,2021-07-29_19h34.46.958,Simcolourproject_2stim_asymm_v5,2020.2.10,MacIntel,60,61025ae37ef11b136ea224fe,,,,,,,,,261,37.85546875,-59.7265625,1,0,0,response3disk,,4,12.03515625,-7.53125,1,0,0,rectangle,12.03515625,-7.53125,1,0,0,12.03515625,-7.53125,1,0,0,0,107,107,156,1,,,,,,,,
,,,,,,,,,,,,,FF,,,,,,,,2.7336,,,,,,,,,,,,,,,,,,,,,,6103547238747506ef02bb29,6103651687d0f99e9bf17124,2021-07-29_19h34.46.958,Simcolourproject_2stim_asymm_v5,2020.2.10,MacIntel,60,61025ae37ef11b136ea224fe,,,,,,,,,3359,58.45703125,86.3203125,1,0,0,response1disk,,7,23.52734375,11.48046875,1,0,0,rectangle,23.52734375,11.48046875,1,0,0,23.52734375,11.48046875,1,0,0,0,108,108,67,1,,,,,,,,
,,,,,,,,,,,,,FF,,,,,,,,0.9336,,,,,,,,,,,,,,,,,,,,,,6103547238747506ef02bb29,6103651687d0f99e9bf17124,2021-07-29_19h34.46.958,Simcolourproject_2stim_asymm_v5,2020.2.10,MacIntel,60,61025ae37ef11b136ea224fe,,,,,,,,,505,87.16796875,42.87890625,1,0,0,response1disk,,6,20.484375,6.9453125,1,0,0,rectangle,20.484375,6.9453125,1,0,0,20.484375,6.9453125,1,0,0,0,109,109,147,1,,,,,,,,
,,,,,,,,,,,,,FF,,,,,,,,0.9005,,,,,,,,,,,,,,,,,,,,,,6103547238747506ef02bb29,6103651687d0f99e9bf17124,2021-07-29_19h34.46.958,Simcolourproject_2stim_asymm_v5,2020.2.10,MacIntel,60,61025ae37ef11b136ea224fe,,,,,,,,,1574,103.8203125,46.265625,1,0,0,response1disk,,6,11.55078125,10.0546875,1,0,0,rectangle,11.55078125,10.0546875,1,0,0,11.55078125,10.0546875,1,0,0,0,110,110,51,1,,,,,,,,
,,,,,,,,,,,,,FF,,,,,,,,0.7859,,,,,,,,,,,,,,,,,,,,,,6103547238747506ef02bb29,6103651687d0f99e9bf17124,2021-07-29_19h34.46.958,Simcolourproject_2stim_asymm_v5,2020.2.10,MacIntel,60,61025ae37ef11b136ea224fe,,,,,,,,,1085,53.5859375,87.3125,1,0,0,response1disk,,7,11.45703125,11.12109375,1,0,0,rectangle,11.45703125,11.12109375,1,0,0,11.45703125,11.12109375,1,0,0,0,111,111,55,1,,,,,,,,
,,,,,,,,,,,,,FF,,,,,,,,1.0697,,,,,,,,,,,,,,,,,,,,,,6103547238747506ef02bb29,6103651687d0f99e9bf17124,2021-07-29_19h34.46.958,Simcolourproject_2stim_asymm_v5,2020.2.10,MacIntel,60,61025ae37ef11b136ea224fe,,,,,,,,,676,66.140625,-46.69921875,1,0,0,response3disk,,5,-13.765625,13.80859375,1,0,0,rectangle,-13.765625,13.80859375,1,0,0,-13.765625,13.80859375,1,0,0,0,112,112,0,1,,,,,,,,
,,,,,,,,,,,,,FF,,,,,,,,1.1205,,,,,,,,,,,,,,,,,,,,,,6103547238747506ef02bb29,6103651687d0f99e9bf17124,2021-07-29_19h34.46.958,Simcolourproject_2stim_asymm_v5,2020.2.10,MacIntel,60,61025ae37ef11b136ea224fe,,,,,,,,,873,-40.32421875,-70.04296875,1,0,0,response5disk,,3,-8.78125,-11.3828125,1,0,0,rectangle,-8.78125,-11.3828125,1,0,0,-8.78125,-11.3828125,1,0,0,0,113,113,49,1,,,,,,,,
,,,,,,,,,,,,,FF,,,,,,,,1.5476,,,,,,,,,,,,,,,,,,,,,,6103547238747506ef02bb29,6103651687d0f99e9bf17124,2021-07-29_19h34.46.958,Simcolourproject_2stim_asymm_v5,2020.2.10,MacIntel,60,61025ae37ef11b136ea224fe,,,,,,,,,4090,106.3398438,-53.7265625,1,0,0,response3disk,,5,9.3828125,2.53515625,1,0,0,rectangle,9.3828125,2.53515625,1,0,0,9.3828125,2.53515625,1,0,0,0,114,114,103,1,,,,,,,,
,,,,,,,,,,,,,FF,,,,,,,,0.7803,,,,,,,,,,,,,,,,,,,,,,6103547238747506ef02bb29,6103651687d0f99e9bf17124,2021-07-29_19h34.46.958,Simcolourproject_2stim_asymm_v5,2020.2.10,MacIntel,60,61025ae37ef11b136ea224fe,,,,,,,,,3672,-31.25,-69.515625,1,0,0,response5disk,,3,1.921875,-9.71875,1,0,0,rectangle,1.921875,-9.71875,1,0,0,1.921875,-9.71875,1,0,0,0,115,115,61,1,,,,,,,,
,,,,,,,,,,,,,FF,,,,,,,,1.6521,,,,,,,,,,,,,,,,,,,,,,6103547238747506ef02bb29,6103651687d0f99e9bf17124,2021-07-29_19h34.46.958,Simcolourproject_2stim_asymm_v5,2020.2.10,MacIntel,60,61025ae37ef11b136ea224fe,,,,,,,,,2106,37.79296875,-69.25390625,1,0,0,response3disk,,4,13.3359375,-6.18359375,1,0,0,rectangle,-37.74609375,-87.58203125,1,0,0,-9.89453125,-16.24609375,1,0,0,0,116,116,120,1,,response5disk_3,TRUE,3,3,"[131,289,175,179,289,267,180,80,236,171,25,95,85,3,156,300,26,117,178,215]",2.3865,rectangle
,,,,,,,,,,,,,FF,,,,,,,,1.1658,,,,,,,,,,,,,,,,,,,,,,6103547238747506ef02bb29,6103651687d0f99e9bf17124,2021-07-29_19h34.46.958,Simcolourproject_2stim_asymm_v5,2020.2.10,MacIntel,60,61025ae37ef11b136ea224fe,,,,,,,,,3766,80.32421875,42.5625,1,0,0,response1disk,,6,4.6796875,-6.9140625,1,0,0,rectangle,4.6796875,-6.9140625,1,0,0,4.6796875,-6.9140625,1,0,0,0,117,117,40,1,,,,,,,,
,,,,,,,,,,,,,FF,,,,,,,,3.3631,,,,,,,,,,,,,,,,,,,,,,6103547238747506ef02bb29,6103651687d0f99e9bf17124,2021-07-29_19h34.46.958,Simcolourproject_2stim_asymm_v5,2020.2.10,MacIntel,60,61025ae37ef11b136ea224fe,,,,,,,,,3215,67.96875,26.73046875,1,0,0,response1disk,,6,14.21875,7.07421875,1,0,0,rectangle,14.21875,7.07421875,1,0,0,14.21875,7.07421875,1,0,0,0,118,118,109,1,,,,,,,,
,,,,,,,,,,,,,FF,,,,,,,,1.8831,,,,,,,,,,,,,,,,,,,,,,6103547238747506ef02bb29,6103651687d0f99e9bf17124,2021-07-29_19h34.46.958,Simcolourproject_2stim_asymm_v5,2020.2.10,MacIntel,60,61025ae37ef11b136ea224fe,,,,,,,,,4295,-55.3203125,-82.44140625,1,0,0,response5disk,,3,-12.34375,4.74609375,1,0,0,rectangle,-12.34375,4.74609375,1,0,0,-12.34375,4.74609375,1,0,0,0,119,119,100,1,,,,,,,,
,,,,,,,,,,,,,FF,,,,,,,,1.3495,,,,,,,,,,,,,,,,,,,,,,6103547238747506ef02bb29,6103651687d0f99e9bf17124,2021-07-29_19h34.46.958,Simcolourproject_2stim_asymm_v5,2020.2.10,MacIntel,60,61025ae37ef11b136ea224fe,,,,,,,,,414,89.53125,32.203125,1,0,0,response1disk,,6,17.28515625,2.22265625,1,0,0,rectangle,17.28515625,2.22265625,1,0,0,17.28515625,2.22265625,1,0,0,0,120,120,135,1,,,,,,,,
,,,,,,,,,,,,,FF,,,,,,,,1.1351,,,,,,,,,,,,,,,,,,,,,,6103547238747506ef02bb29,6103651687d0f99e9bf17124,2021-07-29_19h34.46.958,Simcolourproject_2stim_asymm_v5,2020.2.10,MacIntel,60,61025ae37ef11b136ea224fe,,,,,,,,,954,61.37109375,-40.18359375,1,0,0,response3disk,,5,-8.93359375,-4.66015625,1,0,0,rectangle,-8.93359375,-4.66015625,1,0,0,-8.93359375,-4.66015625,1,0,0,0,121,121,123,1,,,,,,,,
,,,,,,,,,,,,,FF,,,,,,,,1.5841,,,,,,,,,,,,,,,,,,,,,,6103547238747506ef02bb29,6103651687d0f99e9bf17124,2021-07-29_19h34.46.958,Simcolourproject_2stim_asymm_v5,2020.2.10,MacIntel,60,61025ae37ef11b136ea224fe,,,,,,,,,3308,59.68359375,40.7734375,1,0,0,response1disk,,6,0.33984375,4.52734375,1,0,0,rectangle,0.33984375,4.52734375,1,0,0,0.33984375,4.52734375,1,0,0,0,122,122,80,1,,,,,,,,
,,,,,,,,,,,,,FF,,,,,,,,1.8334,,,,,,,,,,,,,,,,,,,,,,6103547238747506ef02bb29,6103651687d0f99e9bf17124,2021-07-29_19h34.46.958,Simcolourproject_2stim_asymm_v5,2020.2.10,MacIntel,60,61025ae37ef11b136ea224fe,,,,,,,,,2286,53.6328125,-33.90234375,1,0,0,response3disk,,5,1.1640625,3.18359375,1,0,0,rectangle,1.1640625,3.18359375,1,0,0,1.1640625,3.18359375,1,0,0,0,123,123,125,1,,,,,,,,
,,,,,,,,,,,,,FF,,,,,,,,1.4826,,,,,,,,,,,,,,,,,,,,,,6103547238747506ef02bb29,6103651687d0f99e9bf17124,2021-07-29_19h34.46.958,Simcolourproject_2stim_asymm_v5,2020.2.10,MacIntel,60,61025ae37ef11b136ea224fe,,,,,,,,,4182,-38.1640625,-70.20703125,1,0,0,response5disk,,3,-14.07421875,-6.3984375,1,0,0,rectangle,-14.07421875,-6.3984375,1,0,0,-14.07421875,-6.3984375,1,0,0,0,124,124,59,1,,,,,,,,
,,,,,,,,,,,,,FF,,,,,,,,1.5628,,,,,,,,,,,,,,,,,,,,,,6103547238747506ef02bb29,6103651687d0f99e9bf17124,2021-07-29_19h34.46.958,Simcolourproject_2stim_asymm_v5,2020.2.10,MacIntel,60,61025ae37ef11b136ea224fe,,,,,,,,,694,86.0390625,-41.4609375,1,0,0,response3disk,,5,4.58203125,-3.9609375,1,0,0,rectangle,4.58203125,-3.9609375,1,0,0,4.58203125,-3.9609375,1,0,0,0,125,125,155,1,,,,,,,,
,,,,,,,,,,,,,FF,,,,,,,,1.1712,,,,,,,,,,,,,,,,,,,,,,6103547238747506ef02bb29,6103651687d0f99e9bf17124,2021-07-29_19h34.46.958,Simcolourproject_2stim_asymm_v5,2020.2.10,MacIntel,60,61025ae37ef11b136ea224fe,,,,,,,,,759,76.0234375,27.07421875,1,0,0,response1disk,,6,2.3203125,2.078125,1,0,0,rectangle,2.3203125,2.078125,1,0,0,2.3203125,2.078125,1,0,0,0,126,126,142,1,,,,,,,,
,,,,,,,,,,,,,FF,,,,,,,,0.9685,,,,,,,,,,,,,,,,,,,,,,6103547238747506ef02bb29,6103651687d0f99e9bf17124,2021-07-29_19h34.46.958,Simcolourproject_2stim_asymm_v5,2020.2.10,MacIntel,60,61025ae37ef11b136ea224fe,,,,,,,,,3581,69.48046875,36.28125,1,0,0,response1disk,,6,1.23828125,3.26953125,1,0,0,rectangle,1.23828125,3.26953125,1,0,0,1.23828125,3.26953125,1,0,0,0,127,127,72,1,,,,,,,,
,,,,,,,,,,,,,FF,,,,,,,,1.1002,,,,,,,,,,,,,,,,,,,,,,6103547238747506ef02bb29,6103651687d0f99e9bf17124,2021-07-29_19h34.46.958,Simcolourproject_2stim_asymm_v5,2020.2.10,MacIntel,60,61025ae37ef11b136ea224fe,,,,,,,,,597,52.28125,30.421875,1,0,0,response1disk,,6,15.21875,3.02734375,1,0,0,rectangle,15.21875,3.02734375,1,0,0,15.21875,3.02734375,1,0,0,0,128,128,18,1,,,,,,,,
,,,,,,,,,,,,,FF,,,,,,,,1.1172,,,,,,,,,,,,,,,,,,,,,,6103547238747506ef02bb29,6103651687d0f99e9bf17124,2021-07-29_19h34.46.958,Simcolourproject_2stim_asymm_v5,2020.2.10,MacIntel,60,61025ae37ef11b136ea224fe,,,,,,,,,2729,69.2890625,-51.9453125,1,0,0,response3disk,,5,3.91796875,-15.5703125,1,0,0,rectangle,3.91796875,-15.5703125,1,0,0,3.91796875,-15.5703125,1,0,0,0,129,129,154,1,,,,,,,,
,,,,,,,,,,,,,FF,,,,,,,,2.4987,,,,,,,,,,,,,,,,,,,,,,6103547238747506ef02bb29,6103651687d0f99e9bf17124,2021-07-29_19h34.46.958,Simcolourproject_2stim_asymm_v5,2020.2.10,MacIntel,60,61025ae37ef11b136ea224fe,,,,,,,,,176,93.86328125,45.45703125,1,0,0,response1disk,,6,8.83203125,2.13671875,1,0,0,rectangle,-67.8984375,39.109375,1,0,0,-27.203125,10.46484375,1,0,0,0,130,130,14,1,,response7disk_3,TRUE,1,1,"[131,289,175,179,289,267,180,80,236,171,25,95,85,3,156,300,26,117,178,215]",1.5502,rectangle
,,,,,,,,,,,,,FF,,,,,,,,1.0842,,,,,,,,,,,,,,,,,,,,,,6103547238747506ef02bb29,6103651687d0f99e9bf17124,2021-07-29_19h34.46.958,Simcolourproject_2stim_asymm_v5,2020.2.10,MacIntel,60,61025ae37ef11b136ea224fe,,,,,,,,,3509,23.85546875,-59.36328125,1,0,0,response3disk,,4,-8.4609375,15.359375,1,0,0,rectangle,-8.4609375,15.359375,1,0,0,-8.4609375,15.359375,1,0,0,0,131,131,138,1,,,,,,,,
,,,,,,,,,,,,,FF,,,,,,,,0.9693,,,,,,,,,,,,,,,,,,,,,,6103547238747506ef02bb29,6103651687d0f99e9bf17124,2021-07-29_19h34.46.958,Simcolourproject_2stim_asymm_v5,2020.2.10,MacIntel,60,61025ae37ef11b136ea224fe,,,,,,,,,578,102.8789063,-49.9765625,1,0,0,response3disk,,5,9.66015625,-2.48828125,1,0,0,rectangle,9.66015625,-2.48828125,1,0,0,9.66015625,-2.48828125,1,0,0,0,132,132,42,1,,,,,,,,
,,,,,,,,,,,,,FF,,,,,,,,1.0999,,,,,,,,,,,,,,,,,,,,,,6103547238747506ef02bb29,6103651687d0f99e9bf17124,2021-07-29_19h34.46.958,Simcolourproject_2stim_asymm_v5,2020.2.10,MacIntel,60,61025ae37ef11b136ea224fe,,,,,,,,,2942,-49.7421875,-70.37890625,1,0,0,response5disk,,3,-20.33984375,-14.69140625,1,0,0,rectangle,-20.33984375,-14.69140625,1,0,0,-20.33984375,-14.69140625,1,0,0,0,133,133,146,1,,,,,,,,
,,,,,,,,,,,,,FF,,,,,,,,1.499,,,,,,,,,,,,,,,,,,,,,,6103547238747506ef02bb29,6103651687d0f99e9bf17124,2021-07-29_19h34.46.958,Simcolourproject_2stim_asymm_v5,2020.2.10,MacIntel,60,61025ae37ef11b136ea224fe,,,,,,,,,2469,40.90234375,77.85546875,1,0,0,response1disk,,7,17.18359375,10.02734375,1,0,0,rectangle,17.18359375,10.02734375,1,0,0,17.18359375,10.02734375,1,0,0,0,134,134,136,1,,,,,,,,
,,,,,,,,,,,,,FF,,,,,,,,0.6124,,,,,,,,,,,,,,,,,,,,,,6103547238747506ef02bb29,6103651687d0f99e9bf17124,2021-07-29_19h34.46.958,Simcolourproject_2stim_asymm_v5,2020.2.10,MacIntel,60,61025ae37ef11b136ea224fe,,,,,,,,,2208,36.54296875,60.65234375,1,0,0,response1disk,,7,10.8828125,-0.875,1,0,0,rectangle,10.8828125,-0.875,1,0,0,10.8828125,-0.875,1,0,0,0,135,135,29,1,,,,,,,,
,,,,,,,,,,,,,FF,,,,,,,,1.3531,,,,,,,,,,,,,,,,,,,,,,6103547238747506ef02bb29,6103651687d0f99e9bf17124,2021-07-29_19h34.46.958,Simcolourproject_2stim_asymm_v5,2020.2.10,MacIntel,60,61025ae37ef11b136ea224fe,,,,,,,,,1721,40.75,65.15625,1,0,0,response1disk,,7,11.6171875,-6.3515625,1,0,0,rectangle,11.6171875,-6.3515625,1,0,0,11.6171875,-6.3515625,1,0,0,0,136,136,9,1,,,,,,,,
,,,,,,,,,,,,,FF,,,,,,,,0.8335,,,,,,,,,,,,,,,,,,,,,,6103547238747506ef02bb29,6103651687d0f99e9bf17124,2021-07-29_19h34.46.958,Simcolourproject_2stim_asymm_v5,2020.2.10,MacIntel,60,61025ae37ef11b136ea224fe,,,,,,,,,1527,-34.359375,-58.14453125,1,0,0,response5disk,,3,-4.0234375,3.3828125,1,0,0,rectangle,-4.0234375,3.3828125,1,0,0,-4.0234375,3.3828125,1,0,0,0,137,137,66,1,,,,,,,,
,,,,,,,,,,,,,FF,,,,,,,,0.8976,,,,,,,,,,,,,,,,,,,,,,6103547238747506ef02bb29,6103651687d0f99e9bf17124,2021-07-29_19h34.46.958,Simcolourproject_2stim_asymm_v5,2020.2.10,MacIntel,60,61025ae37ef11b136ea224fe,,,,,,,,,209,59.0546875,19.16015625,1,0,0,response1disk,,6,6.84765625,-6.52734375,1,0,0,rectangle,6.84765625,-6.52734375,1,0,0,6.84765625,-6.52734375,1,0,0,0,138,138,56,1,,,,,,,,
,,,,,,,,,,,,,FF,,,,,,,,0.6629,,,,,,,,,,,,,,,,,,,,,,6103547238747506ef02bb29,6103651687d0f99e9bf17124,2021-07-29_19h34.46.958,Simcolourproject_2stim_asymm_v5,2020.2.10,MacIntel,60,61025ae37ef11b136ea224fe,,,,,,,,,200,64.203125,35.64453125,1,0,0,response1disk,,6,21.2421875,14.4921875,1,0,0,rectangle,21.2421875,14.4921875,1,0,0,21.2421875,14.4921875,1,0,0,0,139,139,132,1,,,,,,,,
,,,,,,,,,,,,,FF,,,,,,,,1.5157,,,,,,,,,,,,,,,,,,,,,,6103547238747506ef02bb29,6103651687d0f99e9bf17124,2021-07-29_19h34.46.958,Simcolourproject_2stim_asymm_v5,2020.2.10,MacIntel,60,61025ae37ef11b136ea224fe,,,,,,,,,2584,38.390625,55.41015625,1,0,0,response1disk,,7,10.48828125,1.796875,1,0,0,rectangle,10.48828125,1.796875,1,0,0,10.48828125,1.796875,1,0,0,0,140,140,137,1,,,,,,,,
,,,,,,,,,,,,,FF,,,,,,,,2.6815,,,,,,,,,,,,,,,,,,,,,,6103547238747506ef02bb29,6103651687d0f99e9bf17124,2021-07-29_19h34.46.958,Simcolourproject_2stim_asymm_v5,2020.2.10,MacIntel,60,61025ae37ef11b136ea224fe,,,,,,,,,2592,39.421875,-76.6640625,1,0,0,response3disk,,4,14.515625,-7.0390625,1,0,0,rectangle,14.515625,-7.0390625,1,0,0,14.515625,-7.0390625,1,0,0,0,141,141,152,1,,,,,,,,
,,,,,,,,,,,,,FF,,,,,,,,0.7149,,,,,,,,,,,,,,,,,,,,,,6103547238747506ef02bb29,6103651687d0f99e9bf17124,2021-07-29_19h34.46.958,Simcolourproject_2stim_asymm_v5,2020.2.10,MacIntel,60,61025ae37ef11b136ea224fe,,,,,,,,,3151,31.18359375,-101.5664063,1,0,0,response3disk,,4,0.91796875,-8.11328125,1,0,0,rectangle,0.91796875,-8.11328125,1,0,0,0.91796875,-8.11328125,1,0,0,0,142,142,158,1,,,,,,,,
,,,,,,,,,,,,,FF,,,,,,,,1.1663,,,,,,,,,,,,,,,,,,,,,,6103547238747506ef02bb29,6103651687d0f99e9bf17124,2021-07-29_19h34.46.958,Simcolourproject_2stim_asymm_v5,2020.2.10,MacIntel,60,61025ae37ef11b136ea224fe,,,,,,,,,3988,91.4453125,-42.1484375,1,0,0,response3disk,,5,17.75390625,2.46484375,1,0,0,rectangle,17.75390625,2.46484375,1,0,0,17.75390625,2.46484375,1,0,0,0,143,143,44,1,,,,,,,,
,,,,,,,,,,,,,FF,,,,,,,,0.8364,,,,,,,,,,,,,,,,,,,,,,6103547238747506ef02bb29,6103651687d0f99e9bf17124,2021-07-29_19h34.46.958,Simcolourproject_2stim_asymm_v5,2020.2.10,MacIntel,60,61025ae37ef11b136ea224fe,,,,,,,,,1340,68.34375,30.85546875,1,0,0,response1disk,,6,9.98828125,13.19921875,1,0,0,rectangle,9.98828125,13.19921875,1,0,0,9.98828125,13.19921875,1,0,0,0,144,144,35,1,,,,,,,,
,,,,,,,,,,,,,FF,,,,,,,,0.5841,,,,,,,,,,,,,,,,,,,,,,6103547238747506ef02bb29,6103651687d0f99e9bf17124,2021-07-29_19h34.46.958,Simcolourproject_2stim_asymm_v5,2020.2.10,MacIntel,60,61025ae37ef11b136ea224fe,,,,,,,,,2580,40.15234375,63.82421875,1,0,0,response1disk,,7,13.828125,-0.14453125,1,0,0,rectangle,13.828125,-0.14453125,1,0,0,13.828125,-0.14453125,1,0,0,0,145,145,81,1,,,,,,,,
,,,,,,,,,,,,,FF,,,,,,,,0.9632,,,,,,,,,,,,,,,,,,,,,,6103547238747506ef02bb29,6103651687d0f99e9bf17124,2021-07-29_19h34.46.958,Simcolourproject_2stim_asymm_v5,2020.2.10,MacIntel,60,61025ae37ef11b136ea224fe,,,,,,,,,2324,47.53515625,59.7734375,1,0,0,response1disk,,7,25.20703125,17.05078125,1,0,0,rectangle,25.20703125,17.05078125,1,0,0,25.20703125,17.05078125,1,0,0,0,146,146,134,1,,,,,,,,
,,,,,,,,,,,,,FF,,,,,,,,0.7143,,,,,,,,,,,,,,,,,,,,,,6103547238747506ef02bb29,6103651687d0f99e9bf17124,2021-07-29_19h34.46.958,Simcolourproject_2stim_asymm_v5,2020.2.10,MacIntel,60,61025ae37ef11b136ea224fe,,,,,,,,,1616,50.5078125,26.484375,1,0,0,response1disk,,6,14.7265625,16.55859375,1,0,0,rectangle,14.7265625,16.55859375,1,0,0,14.7265625,16.55859375,1,0,0,0,147,147,139,1,,,,,,,,
,,,,,,,,,,,,,FF,,,,,,,,2.514,,,,,,,,,,,,,,,,,,,,,,6103547238747506ef02bb29,6103651687d0f99e9bf17124,2021-07-29_19h34.46.958,Simcolourproject_2stim_asymm_v5,2020.2.10,MacIntel,60,61025ae37ef11b136ea224fe,,,,,,,,,444,57.87109375,-72.25390625,1,0,0,response3disk,,4,2.17578125,-6.5234375,1,0,0,rectangle,2.17578125,-6.5234375,1,0,0,2.17578125,-6.5234375,1,0,0,0,148,148,25,1,,,,,,,,
,,,,,,,,,,,,,FF,,,,,,,,1.3159,,,,,,,,,,,,,,,,,,,,,,6103547238747506ef02bb29,6103651687d0f99e9bf17124,2021-07-29_19h34.46.958,Simcolourproject_2stim_asymm_v5,2020.2.10,MacIntel,60,61025ae37ef11b136ea224fe,,,,,,,,,2523,47.30078125,-65.64453125,1,0,0,response3disk,,4,9.5390625,-8.7578125,1,0,0,rectangle,9.5390625,-8.7578125,1,0,0,9.5390625,-8.7578125,1,0,0,0,149,149,1,1,,,,,,,,
,,,,,,,,,,,,,FF,,,,,,,,1.3666,,,,,,,,,,,,,,,,,,,,,,6103547238747506ef02bb29,6103651687d0f99e9bf17124,2021-07-29_19h34.46.958,Simcolourproject_2stim_asymm_v5,2020.2.10,MacIntel,60,61025ae37ef11b136ea224fe,,,,,,,,,1331,74.84375,-46.38671875,1,0,0,response3disk,,5,21.4453125,-16.296875,1,0,0,rectangle,21.4453125,-16.296875,1,0,0,21.4453125,-16.296875,1,0,0,0,150,150,131,1,,,,,,,,
,,,,,,,,,,,,,FF,,,,,,,,2.6856,,,,,,,,,,,,,,,,,,,,,,6103547238747506ef02bb29,6103651687d0f99e9bf17124,2021-07-29_19h34.46.958,Simcolourproject_2stim_asymm_v5,2020.2.10,MacIntel,60,61025ae37ef11b136ea224fe,,,,,,,,,165,-40.4921875,-101.2851563,1,0,0,response5disk,,3,0.125,3.35546875,1,0,0,rectangle,0.125,3.35546875,1,0,0,0.125,3.35546875,1,0,0,0,151,151,82,1,,,,,,,,
,,,,,,,,,,,,,FF,,,,,,,,4.4681,,,,,,,,,,,,,,,,,,,,,,6103547238747506ef02bb29,6103651687d0f99e9bf17124,2021-07-29_19h34.46.958,Simcolourproject_2stim_asymm_v5,2020.2.10,MacIntel,60,61025ae37ef11b136ea224fe,,,,,,,,,942,73.8515625,31.51171875,1,0,0,response1disk,,6,4.2265625,-5.234375,1,0,0,rectangle,4.2265625,-5.234375,1,0,0,4.2265625,-5.234375,1,0,0,0,152,152,58,1,,,,,,,,
,,,,,,,,,,,,,FF,,,,,,,,0.8019,,,,,,,,,,,,,,,,,,,,,,6103547238747506ef02bb29,6103651687d0f99e9bf17124,2021-07-29_19h34.46.958,Simcolourproject_2stim_asymm_v5,2020.2.10,MacIntel,60,61025ae37ef11b136ea224fe,,,,,,,,,2809,75.2421875,41.234375,1,0,0,response1disk,,6,18.359375,10.93359375,1,0,0,rectangle,18.359375,10.93359375,1,0,0,18.359375,10.93359375,1,0,0,0,153,153,73,1,,,,,,,,
,,,,,,,,,,,,,FF,,,,,,,,0.9876,,,,,,,,,,,,,,,,,,,,,,6103547238747506ef02bb29,6103651687d0f99e9bf17124,2021-07-29_19h34.46.958,Simcolourproject_2stim_asymm_v5,2020.2.10,MacIntel,60,61025ae37ef11b136ea224fe,,,,,,,,,3873,64.953125,-43.53515625,1,0,0,response3disk,,5,-2.8671875,-10.16015625,1,0,0,rectangle,-2.8671875,-10.16015625,1,0,0,-2.8671875,-10.16015625,1,0,0,0,154,154,89,1,,,,,,,,
,,,,,,,,,,,,,FF,,,,,,,,3.3672,,,,,,,,,,,,,,,,,,,,,,6103547238747506ef02bb29,6103651687d0f99e9bf17124,2021-07-29_19h34.46.958,Simcolourproject_2stim_asymm_v5,2020.2.10,MacIntel,60,61025ae37ef11b136ea224fe,,,,,,,,,1264,78.234375,-34.81640625,1,0,0,response3disk,,5,-8.4296875,-6.91015625,1,0,0,rectangle,-58.76171875,-75.1875,1,0,0,-18.3125,-8.0546875,1,0,0,0,155,155,65,1,,response5disk_3,TRUE,3,3,"[131,289,175,179,289,267,180,80,236,171,25,95,85,3,156,300,26,117,178,215]",2.034,rectangle
,,,,,,,,,,,,,FF,,,,,,,,3.0005,,,,,,,,,,,,,,,,,,,,,,6103547238747506ef02bb29,6103651687d0f99e9bf17124,2021-07-29_19h34.46.958,Simcolourproject_2stim_asymm_v5,2020.2.10,MacIntel,60,61025ae37ef11b136ea224fe,,,,,,,,,2570,88.6796875,-57.1875,1,0,0,response3disk,,5,26.51953125,-10.82421875,1,0,0,rectangle,26.51953125,-10.82421875,1,0,0,26.51953125,-10.82421875,1,0,0,0,156,156,5,1,,,,,,,,
,,,,,,,,,,,,,FF,,,,,,,,1.2996,,,,,,,,,,,,,,,,,,,,,,6103547238747506ef02bb29,6103651687d0f99e9bf17124,2021-07-29_19h34.46.958,Simcolourproject_2stim_asymm_v5,2020.2.10,MacIntel,60,61025ae37ef11b136ea224fe,,,,,,,,,1963,-67.45703125,86.2265625,1,0,0,response7disk,,0,-17.91015625,-4.88671875,1,0,0,rectangle,-17.91015625,-4.88671875,1,0,0,-17.91015625,-4.88671875,1,0,0,0,157,157,77,1,,,,,,,,
,,,,,,,,,,,,,FF,,,,,,,,1.6525,,,,,,,,,,,,,,,,,,,,,,6103547238747506ef02bb29,6103651687d0f99e9bf17124,2021-07-29_19h34.46.958,Simcolourproject_2stim_asymm_v5,2020.2.10,MacIntel,60,61025ae37ef11b136ea224fe,,,,,,,,,2935,-56.08984375,-84.9375,1,0,0,response5disk,,3,-10.5078125,-1.41796875,1,0,0,rectangle,-10.5078125,-1.41796875,1,0,0,-10.5078125,-1.41796875,1,0,0,0,158,158,20,1,,,,,,,,
,,,,,,,,,,,,,FF,,,,,,,,3.3152,,,,,,,,,,,,,,,,,,,,,,6103547238747506ef02bb29,6103651687d0f99e9bf17124,2021-07-29_19h34.46.958,Simcolourproject_2stim_asymm_v5,2020.2.10,MacIntel,60,61025ae37ef11b136ea224fe,,,,,,,,,4013,63.2890625,31.0234375,1,0,0,response1disk,,6,1.390625,9.05859375,1,0,0,rectangle,1.390625,9.05859375,1,0,0,1.390625,9.05859375,1,0,0,0,159,159,37,1,,,,,,,,
,,,,,,,,,,,,,FF,,,,,,,,0.9838,,,,,,,,,,,,,,,,,,,,,,6103547238747506ef02bb29,6103651687d0f99e9bf17124,2021-07-29_19h34.46.958,Simcolourproject_2stim_asymm_v5,2020.2.10,MacIntel,60,61025ae37ef11b136ea224fe,,,,,,,,,4019,52.03515625,37.45703125,1,0,0,response1disk,,6,17.0625,10.99609375,1,0,0,rectangle,17.0625,10.99609375,1,0,0,17.0625,10.99609375,1,0,0,1,0,160,57,1,,,,,,,,
,,,,,,,,,,,,,FF,,,,,,,,1.9157,,,,,,,,,,,,,,,,,,,,,,6103547238747506ef02bb29,6103651687d0f99e9bf17124,2021-07-29_19h34.46.958,Simcolourproject_2stim_asymm_v5,2020.2.10,MacIntel,60,61025ae37ef11b136ea224fe,,,,,,,,,331,33.4921875,69.4921875,1,0,0,response1disk,,7,30.0390625,5.98046875,1,0,0,rectangle,30.0390625,5.98046875,1,0,0,30.0390625,5.98046875,1,0,0,1,1,161,6,1,,,,,,,,
,,,,,,,,,,,,,FF,,,,,,,,0.9337,,,,,,,,,,,,,,,,,,,,,,6103547238747506ef02bb29,6103651687d0f99e9bf17124,2021-07-29_19h34.46.958,Simcolourproject_2stim_asymm_v5,2020.2.10,MacIntel,60,61025ae37ef11b136ea224fe,,,,,,,,,3977,64.0625,-37.62109375,1,0,0,response3disk,,5,-16.12890625,-10.63671875,1,0,0,rectangle,-16.12890625,-10.63671875,1,0,0,-16.12890625,-10.63671875,1,0,0,1,2,162,55,1,,,,,,,,
,,,,,,,,,,,,,FF,,,,,,,,1.7469,,,,,,,,,,,,,,,,,,,,,,6103547238747506ef02bb29,6103651687d0f99e9bf17124,2021-07-29_19h34.46.958,Simcolourproject_2stim_asymm_v5,2020.2.10,MacIntel,60,61025ae37ef11b136ea224fe,,,,,,,,,2328,82.15234375,49.82421875,1,0,0,response1disk,,6,10.1171875,10.92578125,1,0,0,rectangle,10.1171875,10.92578125,1,0,0,10.1171875,10.92578125,1,0,0,1,3,163,67,1,,,,,,,,
,,,,,,,,,,,,,FF,,,,,,,,1.237,,,,,,,,,,,,,,,,,,,,,,6103547238747506ef02bb29,6103651687d0f99e9bf17124,2021-07-29_19h34.46.958,Simcolourproject_2stim_asymm_v5,2020.2.10,MacIntel,60,61025ae37ef11b136ea224fe,,,,,,,,,1393,70.80078125,47.1171875,1,0,0,response1disk,,6,0.22265625,9.93359375,1,0,0,rectangle,0.22265625,9.93359375,1,0,0,0.22265625,9.93359375,1,0,0,1,4,164,111,1,,,,,,,,
,,,,,,,,,,,,,FF,,,,,,,,0.917,,,,,,,,,,,,,,,,,,,,,,6103547238747506ef02bb29,6103651687d0f99e9bf17124,2021-07-29_19h34.46.958,Simcolourproject_2stim_asymm_v5,2020.2.10,MacIntel,60,61025ae37ef11b136ea224fe,,,,,,,,,2123,69.16796875,39.8515625,1,0,0,response1disk,,6,2.03515625,11.5234375,1,0,0,rectangle,2.03515625,11.5234375,1,0,0,2.03515625,11.5234375,1,0,0,1,5,165,102,1,,,,,,,,
,,,,,,,,,,,,,FF,,,,,,,,1.118,,,,,,,,,,,,,,,,,,,,,,6103547238747506ef02bb29,6103651687d0f99e9bf17124,2021-07-29_19h34.46.958,Simcolourproject_2stim_asymm_v5,2020.2.10,MacIntel,60,61025ae37ef11b136ea224fe,,,,,,,,,4313,37.96484375,72.42578125,1,0,0,response1disk,,7,16.70703125,16.53125,1,0,0,rectangle,16.70703125,16.53125,1,0,0,16.70703125,16.53125,1,0,0,1,6,166,114,1,,,,,,,,
,,,,,,,,,,,,,FF,,,,,,,,0.8496,,,,,,,,,,,,,,,,,,,,,,6103547238747506ef02bb29,6103651687d0f99e9bf17124,2021-07-29_19h34.46.958,Simcolourproject_2stim_asymm_v5,2020.2.10,MacIntel,60,61025ae37ef11b136ea224fe,,,,,,,,,3767,41.06640625,62.34765625,1,0,0,response1disk,,7,13.73828125,5.64453125,1,0,0,rectangle,13.73828125,5.64453125,1,0,0,13.73828125,5.64453125,1,0,0,1,7,167,110,1,,,,,,,,
,,,,,,,,,,,,,FF,,,,,,,,1.4005,,,,,,,,,,,,,,,,,,,,,,6103547238747506ef02bb29,6103651687d0f99e9bf17124,2021-07-29_19h34.46.958,Simcolourproject_2stim_asymm_v5,2020.2.10,MacIntel,60,61025ae37ef11b136ea224fe,,,,,,,,,1749,-85.34765625,-54.8125,1,0,0,response5disk,,2,-6.234375,-7.81640625,1,0,0,rectangle,-6.234375,-7.81640625,1,0,0,-6.234375,-7.81640625,1,0,0,1,8,168,23,1,,,,,,,,
,,,,,,,,,,,,,FF,,,,,,,,3.6496,,,,,,,,,,,,,,,,,,,,,,6103547238747506ef02bb29,6103651687d0f99e9bf17124,2021-07-29_19h34.46.958,Simcolourproject_2stim_asymm_v5,2020.2.10,MacIntel,60,61025ae37ef11b136ea224fe,,,,,,,,,2249,80.82421875,-30.875,1,0,0,response3disk,,5,12.1875,9.21484375,1,0,0,rectangle,12.1875,9.21484375,1,0,0,12.1875,9.21484375,1,0,0,1,9,169,16,1,,,,,,,,
,,,,,,,,,,,,,FF,,,,,,,,4.4157,,,,,,,,,,,,,,,,,,,,,,6103547238747506ef02bb29,6103651687d0f99e9bf17124,2021-07-29_19h34.46.958,Simcolourproject_2stim_asymm_v5,2020.2.10,MacIntel,60,61025ae37ef11b136ea224fe,,,,,,,,,1487,45.65234375,61.01953125,1,0,0,response1disk,,7,29.2421875,-6.49609375,1,0,0,rectangle,-33.375,118.5585938,1,0,0,-22.76171875,12.55078125,1,0,0,1,10,170,133,1,,response7disk_3,TRUE,0,0,"[131,289,175,179,289,267,180,80,236,171,25,95,85,3,156,300,26,117,178,215]",1.4644,rectangle
,,,,,,,,,,,,,FF,,,,,,,,1.2667,,,,,,,,,,,,,,,,,,,,,,6103547238747506ef02bb29,6103651687d0f99e9bf17124,2021-07-29_19h34.46.958,Simcolourproject_2stim_asymm_v5,2020.2.10,MacIntel,60,61025ae37ef11b136ea224fe,,,,,,,,,3737,47.75,86.2421875,1,0,0,response1disk,,7,21.89453125,17.26953125,1,0,0,rectangle,21.89453125,17.26953125,1,0,0,21.89453125,17.26953125,1,0,0,1,11,171,56,1,,,,,,,,
,,,,,,,,,,,,,FF,,,,,,,,0.9812,,,,,,,,,,,,,,,,,,,,,,6103547238747506ef02bb29,6103651687d0f99e9bf17124,2021-07-29_19h34.46.958,Simcolourproject_2stim_asymm_v5,2020.2.10,MacIntel,60,61025ae37ef11b136ea224fe,,,,,,,,,1704,105.953125,36.015625,1,0,0,response1disk,,6,4.1328125,-1.97265625,1,0,0,rectangle,4.1328125,-1.97265625,1,0,0,4.1328125,-1.97265625,1,0,0,1,12,172,98,1,,,,,,,,
,,,,,,,,,,,,,FF,,,,,,,,0.7667,,,,,,,,,,,,,,,,,,,,,,6103547238747506ef02bb29,6103651687d0f99e9bf17124,2021-07-29_19h34.46.958,Simcolourproject_2stim_asymm_v5,2020.2.10,MacIntel,60,61025ae37ef11b136ea224fe,,,,,,,,,3015,74.20703125,38.140625,1,0,0,response1disk,,6,10.1640625,7.39453125,1,0,0,rectangle,10.1640625,7.39453125,1,0,0,10.1640625,7.39453125,1,0,0,1,13,173,51,1,,,,,,,,
,,,,,,,,,,,,,FF,,,,,,,,1.522,,,,,,,,,,,,,,,,,,,,,,6103547238747506ef02bb29,6103651687d0f99e9bf17124,2021-07-29_19h34.46.958,Simcolourproject_2stim_asymm_v5,2020.2.10,MacIntel,60,61025ae37ef11b136ea224fe,,,,,,,,,803,-88.3203125,-44.39453125,1,0,0,response5disk,,2,-20.06640625,-6.80078125,1,0,0,rectangle,-101.9179688,46.22265625,1,0,0,-17.78125,11.3359375,1,0,0,1,14,174,106,1,,response7disk_3,TRUE,1,1,"[131,289,175,179,289,267,180,80,236,171,25,95,85,3,156,300,26,117,178,215]",1.617,rectangle
,,,,,,,,,,,,,FF,,,,,,,,3.4889,,,,,,,,,,,,,,,,,,,,,,6103547238747506ef02bb29,6103651687d0f99e9bf17124,2021-07-29_19h34.46.958,Simcolourproject_2stim_asymm_v5,2020.2.10,MacIntel,60,61025ae37ef11b136ea224fe,,,,,,,,,837,75.9296875,36.5390625,1,0,0,response1disk,,6,15.48046875,5.359375,1,0,0,rectangle,15.48046875,5.359375,1,0,0,15.48046875,5.359375,1,0,0,1,15,175,22,1,,,,,,,,
,,,,,,,,,,,,,FF,,,,,,,,1.8161,,,,,,,,,,,,,,,,,,,,,,6103547238747506ef02bb29,6103651687d0f99e9bf17124,2021-07-29_19h34.46.958,Simcolourproject_2stim_asymm_v5,2020.2.10,MacIntel,60,61025ae37ef11b136ea224fe,,,,,,,,,2895,-34.78515625,-78.0078125,1,0,0,response5disk,,3,-16.671875,-10.34375,1,0,0,rectangle,-16.671875,-10.34375,1,0,0,-16.671875,-10.34375,1,0,0,1,16,176,145,1,,,,,,,,
,,,,,,,,,,,,,FF,,,,,,,,1.683,,,,,,,,,,,,,,,,,,,,,,6103547238747506ef02bb29,6103651687d0f99e9bf17124,2021-07-29_19h34.46.958,Simcolourproject_2stim_asymm_v5,2020.2.10,MacIntel,60,61025ae37ef11b136ea224fe,,,,,,,,,2559,68.90234375,-41.671875,1,0,0,response3disk,,5,-4.67578125,-1.16015625,1,0,0,rectangle,101.9804688,47.3984375,1,0,0,13.10546875,6.2265625,1,0,0,1,17,177,45,1,,response1disk_3,TRUE,6,6,"[131,289,175,179,289,267,180,80,236,171,25,95,85,3,156,300,26,117,178,215]",1.5681,rectangle
,,,,,,,,,,,,,FF,,,,,,,,1.085,,,,,,,,,,,,,,,,,,,,,,6103547238747506ef02bb29,6103651687d0f99e9bf17124,2021-07-29_19h34.46.958,Simcolourproject_2stim_asymm_v5,2020.2.10,MacIntel,60,61025ae37ef11b136ea224fe,,,,,,,,,1212,-50.02734375,-82.73046875,1,0,0,response5disk,,3,-8.87109375,-6.82421875,1,0,0,rectangle,-51.6953125,75.41796875,1,0,0,-24.3359375,11.54296875,1,0,0,1,18,178,38,1,,response7disk_3,TRUE,0,0,"[131,289,175,179,289,267,180,80,236,171,25,95,85,3,156,300,26,117,178,215]",1.3044,rectangle
,,,,,,,,,,,,,FF,,,,,,,,2.069,,,,,,,,,,,,,,,,,,,,,,6103547238747506ef02bb29,6103651687d0f99e9bf17124,2021-07-29_19h34.46.958,Simcolourproject_2stim_asymm_v5,2020.2.10,MacIntel,60,61025ae37ef11b136ea224fe,,,,,,,,,3763,65.359375,-39.6640625,1,0,0,response3disk,,5,-0.296875,14.171875,1,0,0,rectangle,-83.88671875,-36.32421875,1,0,0,24.8671875,4.16796875,1,0,0,1,19,179,58,1,,response5disk_3,TRUE,2,2,"[131,289,175,179,289,267,180,80,236,171,25,95,85,3,156,300,26,117,178,215]",1.8534,rectangle
,,,,,,,,,,,,,FF,,,,,,,,2.9191,,,,,,,,,,,,,,,,,,,,,,6103547238747506ef02bb29,6103651687d0f99e9bf17124,2021-07-29_19h34.46.958,Simcolourproject_2stim_asymm_v5,2020.2.10,MacIntel,60,61025ae37ef11b136ea224fe,,,,,,,,,4155,39.88671875,-53.56640625,1,0,0,response3disk,,4,-1.171875,-3.6640625,1,0,0,rectangle,-1.171875,-3.6640625,1,0,0,-1.171875,-3.6640625,1,0,0,1,20,180,33,1,,,,,,,,
,,,,,,,,,,,,,FF,,,,,,,,1.3692,,,,,,,,,,,,,,,,,,,,,,6103547238747506ef02bb29,6103651687d0f99e9bf17124,2021-07-29_19h34.46.958,Simcolourproject_2stim_asymm_v5,2020.2.10,MacIntel,60,61025ae37ef11b136ea224fe,,,,,,,,,1629,30.3359375,74.35546875,1,0,0,response1disk,,7,9.98046875,1.4296875,1,0,0,rectangle,9.98046875,1.4296875,1,0,0,9.98046875,1.4296875,1,0,0,1,21,181,10,1,,,,,,,,
,,,,,,,,,,,,,FF,,,,,,,,0.9998,,,,,,,,,,,,,,,,,,,,,,6103547238747506ef02bb29,6103651687d0f99e9bf17124,2021-07-29_19h34.46.958,Simcolourproject_2stim_asymm_v5,2020.2.10,MacIntel,60,61025ae37ef11b136ea224fe,,,,,,,,,3676,-88.4609375,-33.1328125,1,0,0,response5disk,,2,-6.5859375,-3.34375,1,0,0,rectangle,-6.5859375,-3.34375,1,0,0,-6.5859375,-3.34375,1,0,0,1,22,182,142,1,,,,,,,,
,,,,,,,,,,,,,FF,,,,,,,,3.6332,,,,,,,,,,,,,,,,,,,,,,6103547238747506ef02bb29,6103651687d0f99e9bf17124,2021-07-29_19h34.46.958,Simcolourproject_2stim_asymm_v5,2020.2.10,MacIntel,60,61025ae37ef11b136ea224fe,,,,,,,,,1236,78.12109375,-41.3984375,1,0,0,response3disk,,5,1.67578125,-4.80859375,1,0,0,rectangle,1.67578125,-4.80859375,1,0,0,1.67578125,-4.80859375,1,0,0,1,23,183,91,1,,,,,,,,
,,,,,,,,,,,,,FF,,,,,,,,0.7853,,,,,,,,,,,,,,,,,,,,,,6103547238747506ef02bb29,6103651687d0f99e9bf17124,2021-07-29_19h34.46.958,Simcolourproject_2stim_asymm_v5,2020.2.10,MacIntel,60,61025ae37ef11b136ea224fe,,,,,,,,,3196,-70.62890625,-36.90234375,1,0,0,response5disk,,2,-2.9453125,2.234375,1,0,0,rectangle,-2.9453125,2.234375,1,0,0,-2.9453125,2.234375,1,0,0,1,24,184,81,1,,,,,,,,
,,,,,,,,,,,,,FF,,,,,,,,3.0197,,,,,,,,,,,,,,,,,,,,,,6103547238747506ef02bb29,6103651687d0f99e9bf17124,2021-07-29_19h34.46.958,Simcolourproject_2stim_asymm_v5,2020.2.10,MacIntel,60,61025ae37ef11b136ea224fe,,,,,,,,,139,69.4296875,29.4609375,1,0,0,response1disk,,6,3.9375,9.98046875,1,0,0,rectangle,3.9375,9.98046875,1,0,0,3.9375,9.98046875,1,0,0,1,25,185,59,1,,,,,,,,
,,,,,,,,,,,,,FF,,,,,,,,0.7519,,,,,,,,,,,,,,,,,,,,,,6103547238747506ef02bb29,6103651687d0f99e9bf17124,2021-07-29_19h34.46.958,Simcolourproject_2stim_asymm_v5,2020.2.10,MacIntel,60,61025ae37ef11b136ea224fe,,,,,,,,,1455,-78.23046875,-39.76171875,1,0,0,response5disk,,2,-5.015625,-2.2734375,1,0,0,rectangle,-5.015625,-2.2734375,1,0,0,-5.015625,-2.2734375,1,0,0,1,26,186,94,1,,,,,,,,
,,,,,,,,,,,,,FF,,,,,,,,3.1613,,,,,,,,,,,,,,,,,,,,,,6103547238747506ef02bb29,6103651687d0f99e9bf17124,2021-07-29_19h34.46.958,Simcolourproject_2stim_asymm_v5,2020.2.10,MacIntel,60,61025ae37ef11b136ea224fe,,,,,,,,,2214,78.0546875,30.8984375,1,0,0,response1disk,,6,27.0546875,7.359375,1,0,0,rectangle,27.0546875,7.359375,1,0,0,27.0546875,7.359375,1,0,0,1,27,187,9,1,,,,,,,,
,,,,,,,,,,,,,FF,,,,,,,,1.7,,,,,,,,,,,,,,,,,,,,,,6103547238747506ef02bb29,6103651687d0f99e9bf17124,2021-07-29_19h34.46.958,Simcolourproject_2stim_asymm_v5,2020.2.10,MacIntel,60,61025ae37ef11b136ea224fe,,,,,,,,,2669,57.34375,-63.30078125,1,0,0,response3disk,,4,5.28515625,8.23046875,1,0,0,rectangle,5.28515625,8.23046875,1,0,0,5.28515625,8.23046875,1,0,0,1,28,188,73,1,,,,,,,,
,,,,,,,,,,,,,FF,,,,,,,,1.1836,,,,,,,,,,,,,,,,,,,,,,6103547238747506ef02bb29,6103651687d0f99e9bf17124,2021-07-29_19h34.46.958,Simcolourproject_2stim_asymm_v5,2020.2.10,MacIntel,60,61025ae37ef11b136ea224fe,,,,,,,,,2695,86.12109375,40.97265625,1,0,0,response1disk,,6,8.9453125,11.6796875,1,0,0,rectangle,8.9453125,11.6796875,1,0,0,8.9453125,11.6796875,1,0,0,1,29,189,29,1,,,,,,,,
,,,,,,,,,,,,,FF,,,,,,,,1.0505,,,,,,,,,,,,,,,,,,,,,,6103547238747506ef02bb29,6103651687d0f99e9bf17124,2021-07-29_19h34.46.958,Simcolourproject_2stim_asymm_v5,2020.2.10,MacIntel,60,61025ae37ef11b136ea224fe,,,,,,,,,4356,-82.89453125,43.39453125,1,0,0,response7disk,,1,-10.7890625,9.52734375,1,0,0,rectangle,-10.7890625,9.52734375,1,0,0,-10.7890625,9.52734375,1,0,0,1,30,190,31,1,,,,,,,,
,,,,,,,,,,,,,FF,,,,,,,,1.8666,,,,,,,,,,,,,,,,,,,,,,6103547238747506ef02bb29,6103651687d0f99e9bf17124,2021-07-29_19h34.46.958,Simcolourproject_2stim_asymm_v5,2020.2.10,MacIntel,60,61025ae37ef11b136ea224fe,,,,,,,,,817,72.9609375,27.6796875,1,0,0,response1disk,,6,11.19921875,11.1640625,1,0,0,rectangle,11.19921875,11.1640625,1,0,0,11.19921875,11.1640625,1,0,0,1,31,191,21,1,,,,,,,,
,,,,,,,,,,,,,FF,,,,,,,,1.223,,,,,,,,,,,,,,,,,,,,,,6103547238747506ef02bb29,6103651687d0f99e9bf17124,2021-07-29_19h34.46.958,Simcolourproject_2stim_asymm_v5,2020.2.10,MacIntel,60,61025ae37ef11b136ea224fe,,,,,,,,,3108,-64.27734375,-35.28125,1,0,0,response5disk,,2,20.27734375,-8.40625,1,0,0,rectangle,20.27734375,-8.40625,1,0,0,20.27734375,-8.40625,1,0,0,1,32,192,96,1,,,,,,,,
,,,,,,,,,,,,,FF,,,,,,,,0.9161,,,,,,,,,,,,,,,,,,,,,,6103547238747506ef02bb29,6103651687d0f99e9bf17124,2021-07-29_19h34.46.958,Simcolourproject_2stim_asymm_v5,2020.2.10,MacIntel,60,61025ae37ef11b136ea224fe,,,,,,,,,1926,54.34375,-33.328125,1,0,0,response3disk,,5,8.8125,-6.57421875,1,0,0,rectangle,8.8125,-6.57421875,1,0,0,8.8125,-6.57421875,1,0,0,1,33,193,70,1,,,,,,,,
,,,,,,,,,,,,,FF,,,,,,,,0.8868,,,,,,,,,,,,,,,,,,,,,,6103547238747506ef02bb29,6103651687d0f99e9bf17124,2021-07-29_19h34.46.958,Simcolourproject_2stim_asymm_v5,2020.2.10,MacIntel,60,61025ae37ef11b136ea224fe,,,,,,,,,215,93.6875,28.77734375,1,0,0,response1disk,,6,-10.28125,-0.85546875,1,0,0,rectangle,-10.28125,-0.85546875,1,0,0,-10.28125,-0.85546875,1,0,0,1,34,194,36,1,,,,,,,,
,,,,,,,,,,,,,FF,,,,,,,,0.6836,,,,,,,,,,,,,,,,,,,,,,6103547238747506ef02bb29,6103651687d0f99e9bf17124,2021-07-29_19h34.46.958,Simcolourproject_2stim_asymm_v5,2020.2.10,MacIntel,60,61025ae37ef11b136ea224fe,,,,,,,,,2224,69.90234375,49.375,1,0,0,response1disk,,6,18.01953125,14.95703125,1,0,0,rectangle,18.01953125,14.95703125,1,0,0,18.01953125,14.95703125,1,0,0,1,35,195,90,1,,,,,,,,
,,,,,,,,,,,,,FF,,,,,,,,1.1514,,,,,,,,,,,,,,,,,,,,,,6103547238747506ef02bb29,6103651687d0f99e9bf17124,2021-07-29_19h34.46.958,Simcolourproject_2stim_asymm_v5,2020.2.10,MacIntel,60,61025ae37ef11b136ea224fe,,,,,,,,,2463,22.58203125,73.51953125,1,0,0,response1disk,,7,17.8203125,9.296875,1,0,0,rectangle,17.8203125,9.296875,1,0,0,17.8203125,9.296875,1,0,0,1,36,196,40,1,,,,,,,,
,,,,,,,,,,,,,FF,,,,,,,,0.8124,,,,,,,,,,,,,,,,,,,,,,6103547238747506ef02bb29,6103651687d0f99e9bf17124,2021-07-29_19h34.46.958,Simcolourproject_2stim_asymm_v5,2020.2.10,MacIntel,60,61025ae37ef11b136ea224fe,,,,,,,,,669,65.37890625,-29.2421875,1,0,0,response3disk,,5,-3.0390625,-14.5546875,1,0,0,rectangle,-3.0390625,-14.5546875,1,0,0,-3.0390625,-14.5546875,1,0,0,1,37,197,43,1,,,,,,,,
,,,,,,,,,,,,,FF,,,,,,,,1.3685,,,,,,,,,,,,,,,,,,,,,,6103547238747506ef02bb29,6103651687d0f99e9bf17124,2021-07-29_19h34.46.958,Simcolourproject_2stim_asymm_v5,2020.2.10,MacIntel,60,61025ae37ef11b136ea224fe,,,,,,,,,464,57.9375,-38.5,1,0,0,response3disk,,5,4.46484375,-10.46875,1,0,0,rectangle,4.46484375,-10.46875,1,0,0,4.46484375,-10.46875,1,0,0,1,38,198,112,1,,,,,,,,
,,,,,,,,,,,,,FF,,,,,,,,0.7853,,,,,,,,,,,,,,,,,,,,,,6103547238747506ef02bb29,6103651687d0f99e9bf17124,2021-07-29_19h34.46.958,Simcolourproject_2stim_asymm_v5,2020.2.10,MacIntel,60,61025ae37ef11b136ea224fe,,,,,,,,,1818,-47.49609375,-60.9765625,1,0,0,response5disk,,3,-25.0703125,-10.17578125,1,0,0,rectangle,-25.0703125,-10.17578125,1,0,0,-25.0703125,-10.17578125,1,0,0,1,39,199,44,1,,,,,,,,
,,,,,,,,,,,,,FF,,,,,,,,1.0195,,,,,,,,,,,,,,,,,,,,,,6103547238747506ef02bb29,6103651687d0f99e9bf17124,2021-07-29_19h34.46.958,Simcolourproject_2stim_asymm_v5,2020.2.10,MacIntel,60,61025ae37ef11b136ea224fe,,,,,,,,,1886,-72.85546875,43.1328125,1,0,0,response7disk,,1,17.8828125,-15.4765625,1,0,0,rectangle,17.8828125,-15.4765625,1,0,0,17.8828125,-15.4765625,1,0,0,1,40,200,154,1,,,,,,,,
,,,,,,,,,,,,,FF,,,,,,,,3.4914,,,,,,,,,,,,,,,,,,,,,,6103547238747506ef02bb29,6103651687d0f99e9bf17124,2021-07-29_19h34.46.958,Simcolourproject_2stim_asymm_v5,2020.2.10,MacIntel,60,61025ae37ef11b136ea224fe,,,,,,,,,3307,60.8046875,46.19140625,1,0,0,response1disk,,6,13.97265625,14.28125,1,0,0,rectangle,13.97265625,14.28125,1,0,0,13.97265625,14.28125,1,0,0,1,41,201,41,1,,,,,,,,
,,,,,,,,,,,,,FF,,,,,,,,1.152,,,,,,,,,,,,,,,,,,,,,,6103547238747506ef02bb29,6103651687d0f99e9bf17124,2021-07-29_19h34.46.958,Simcolourproject_2stim_asymm_v5,2020.2.10,MacIntel,60,61025ae37ef11b136ea224fe,,,,,,,,,3392,-70.97265625,-40.6796875,1,0,0,response5disk,,2,-3.83984375,-5.91015625,1,0,0,rectangle,-3.83984375,-5.91015625,1,0,0,-3.83984375,-5.91015625,1,0,0,1,42,202,35,1,,,,,,,,
,,,,,,,,,,,,,FF,,,,,,,,1.9174,,,,,,,,,,,,,,,,,,,,,,6103547238747506ef02bb29,6103651687d0f99e9bf17124,2021-07-29_19h34.46.958,Simcolourproject_2stim_asymm_v5,2020.2.10,MacIntel,60,61025ae37ef11b136ea224fe,,,,,,,,,502,-48.08203125,26.3203125,1,0,0,response7disk,,1,-22.19921875,14.46484375,1,0,0,rectangle,-22.19921875,14.46484375,1,0,0,-22.19921875,14.46484375,1,0,0,1,43,203,53,1,,,,,,,,
,,,,,,,,,,,,,FF,,,,,,,,3.7002,,,,,,,,,,,,,,,,,,,,,,6103547238747506ef02bb29,6103651687d0f99e9bf17124,2021-07-29_19h34.46.958,Simcolourproject_2stim_asymm_v5,2020.2.10,MacIntel,60,61025ae37ef11b136ea224fe,,,,,,,,,2566,57.73046875,-24.92578125,1,0,0,response3disk,,5,-2.37890625,-7.1015625,1,0,0,rectangle,-2.37890625,-7.1015625,1,0,0,-2.37890625,-7.1015625,1,0,0,1,44,204,76,1,,,,,,,,
,,,,,,,,,,,,,FF,,,,,,,,1.4187,,,,,,,,,,,,,,,,,,,,,,6103547238747506ef02bb29,6103651687d0f99e9bf17124,2021-07-29_19h34.46.958,Simcolourproject_2stim_asymm_v5,2020.2.10,MacIntel,60,61025ae37ef11b136ea224fe,,,,,,,,,289,17.0546875,-89.328125,1,0,0,response3disk,,4,3.6484375,-17.16015625,1,0,0,rectangle,3.6484375,-17.16015625,1,0,0,3.6484375,-17.16015625,1,0,0,1,45,205,52,1,,,,,,,,
,,,,,,,,,,,,,FF,,,,,,,,2.0494,,,,,,,,,,,,,,,,,,,,,,6103547238747506ef02bb29,6103651687d0f99e9bf17124,2021-07-29_19h34.46.958,Simcolourproject_2stim_asymm_v5,2020.2.10,MacIntel,60,61025ae37ef11b136ea224fe,,,,,,,,,1196,68.16796875,-39.76953125,1,0,0,response3disk,,5,3.55859375,-11.4765625,1,0,0,rectangle,3.55859375,-11.4765625,1,0,0,3.55859375,-11.4765625,1,0,0,1,46,206,50,1,,,,,,,,
,,,,,,,,,,,,,FF,,,,,,,,1.2333,,,,,,,,,,,,,,,,,,,,,,6103547238747506ef02bb29,6103651687d0f99e9bf17124,2021-07-29_19h34.46.958,Simcolourproject_2stim_asymm_v5,2020.2.10,MacIntel,60,61025ae37ef11b136ea224fe,,,,,,,,,2128,46.859375,73.0078125,1,0,0,response1disk,,7,11.71484375,12.546875,1,0,0,rectangle,11.71484375,12.546875,1,0,0,11.71484375,12.546875,1,0,0,1,47,207,126,1,,,,,,,,
,,,,,,,,,,,,,FF,,,,,,,,0.9831,,,,,,,,,,,,,,,,,,,,,,6103547238747506ef02bb29,6103651687d0f99e9bf17124,2021-07-29_19h34.46.958,Simcolourproject_2stim_asymm_v5,2020.2.10,MacIntel,60,61025ae37ef11b136ea224fe,,,,,,,,,1604,-72.88671875,48.78515625,1,0,0,response7disk,,1,13.80859375,-1.53125,1,0,0,rectangle,13.80859375,-1.53125,1,0,0,13.80859375,-1.53125,1,0,0,1,48,208,24,1,,,,,,,,
,,,,,,,,,,,,,FF,,,,,,,,1.3309,,,,,,,,,,,,,,,,,,,,,,6103547238747506ef02bb29,6103651687d0f99e9bf17124,2021-07-29_19h34.46.958,Simcolourproject_2stim_asymm_v5,2020.2.10,MacIntel,60,61025ae37ef11b136ea224fe,,,,,,,,,277,-88.59375,34.703125,1,0,0,response7disk,,1,-13.84375,-0.5625,1,0,0,rectangle,-13.84375,-0.5625,1,0,0,-13.84375,-0.5625,1,0,0,1,49,209,84,1,,,,,,,,
,,,,,,,,,,,,,FF,,,,,,,,1.7496,,,,,,,,,,,,,,,,,,,,,,6103547238747506ef02bb29,6103651687d0f99e9bf17124,2021-07-29_19h34.46.958,Simcolourproject_2stim_asymm_v5,2020.2.10,MacIntel,60,61025ae37ef11b136ea224fe,,,,,,,,,1893,-93.8203125,-26.4296875,1,0,0,response5disk,,2,-12.50390625,-10.5625,1,0,0,rectangle,-12.50390625,-10.5625,1,0,0,-12.50390625,-10.5625,1,0,0,1,50,210,155,1,,,,,,,,
,,,,,,,,,,,,,FF,,,,,,,,1.5482,,,,,,,,,,,,,,,,,,,,,,6103547238747506ef02bb29,6103651687d0f99e9bf17124,2021-07-29_19h34.46.958,Simcolourproject_2stim_asymm_v5,2020.2.10,MacIntel,60,61025ae37ef11b136ea224fe,,,,,,,,,3330,-60.85546875,-73.39453125,1,0,0,response5disk,,3,-18.6796875,-11.16015625,1,0,0,rectangle,-18.6796875,-11.16015625,1,0,0,-18.6796875,-11.16015625,1,0,0,1,51,211,19,1,,,,,,,,
,,,,,,,,,,,,,FF,,,,,,,,1.2313,,,,,,,,,,,,,,,,,,,,,,6103547238747506ef02bb29,6103651687d0f99e9bf17124,2021-07-29_19h34.46.958,Simcolourproject_2stim_asymm_v5,2020.2.10,MacIntel,60,61025ae37ef11b136ea224fe,,,,,,,,,1055,28.93359375,-81.578125,1,0,0,response3disk,,4,20.30859375,-0.4140625,1,0,0,rectangle,20.30859375,-0.4140625,1,0,0,20.30859375,-0.4140625,1,0,0,1,52,212,143,1,,,,,,,,
,,,,,,,,,,,,,FF,,,,,,,,1.3501,,,,,,,,,,,,,,,,,,,,,,6103547238747506ef02bb29,6103651687d0f99e9bf17124,2021-07-29_19h34.46.958,Simcolourproject_2stim_asymm_v5,2020.2.10,MacIntel,60,61025ae37ef11b136ea224fe,,,,,,,,,2881,47.20703125,-83.484375,1,0,0,response3disk,,4,14.48828125,-16.01171875,1,0,0,rectangle,14.48828125,-16.01171875,1,0,0,14.48828125,-16.01171875,1,0,0,1,53,213,150,1,,,,,,,,
,,,,,,,,,,,,,FF,,,,,,,,1.2811,,,,,,,,,,,,,,,,,,,,,,6103547238747506ef02bb29,6103651687d0f99e9bf17124,2021-07-29_19h34.46.958,Simcolourproject_2stim_asymm_v5,2020.2.10,MacIntel,60,61025ae37ef11b136ea224fe,,,,,,,,,521,77.0703125,34.6875,1,0,0,response1disk,,6,-19.26171875,0.703125,1,0,0,rectangle,-79.09765625,38.5859375,1,0,0,-27.421875,10.4296875,1,0,0,1,54,214,93,1,,response7disk_3,TRUE,1,1,"[131,289,175,179,289,267,180,80,236,171,25,95,85,3,156,300,26,117,178,215]",1.4823,rectangle
,,,,,,,,,,,,,FF,,,,,,,,3.4197,,,,,,,,,,,,,,,,,,,,,,6103547238747506ef02bb29,6103651687d0f99e9bf17124,2021-07-29_19h34.46.958,Simcolourproject_2stim_asymm_v5,2020.2.10,MacIntel,60,61025ae37ef11b136ea224fe,,,,,,,,,780,75.875,33.390625,1,0,0,response1disk,,6,19.4453125,16.09375,1,0,0,rectangle,19.4453125,16.09375,1,0,0,19.4453125,16.09375,1,0,0,1,55,215,144,1,,,,,,,,
,,,,,,,,,,,,,FF,,,,,,,,2.4171,,,,,,,,,,,,,,,,,,,,,,6103547238747506ef02bb29,6103651687d0f99e9bf17124,2021-07-29_19h34.46.958,Simcolourproject_2stim_asymm_v5,2020.2.10,MacIntel,60,61025ae37ef11b136ea224fe,,,,,,,,,976,73.203125,-32.203125,1,0,0,response3disk,,5,2.0625,-2.15625,1,0,0,rectangle,2.0625,-2.15625,1,0,0,2.0625,-2.15625,1,0,0,1,56,216,26,1,,,,,,,,
,,,,,,,,,,,,,FF,,,,,,,,1.0677,,,,,,,,,,,,,,,,,,,,,,6103547238747506ef02bb29,6103651687d0f99e9bf17124,2021-07-29_19h34.46.958,Simcolourproject_2stim_asymm_v5,2020.2.10,MacIntel,60,61025ae37ef11b136ea224fe,,,,,,,,,125,70.109375,30.18359375,1,0,0,response1disk,,6,11.3984375,12.7109375,1,0,0,rectangle,11.3984375,12.7109375,1,0,0,11.3984375,12.7109375,1,0,0,1,57,217,127,1,,,,,,,,
,,,,,,,,,,,,,FF,,,,,,,,0.7874,,,,,,,,,,,,,,,,,,,,,,6103547238747506ef02bb29,6103651687d0f99e9bf17124,2021-07-29_19h34.46.958,Simcolourproject_2stim_asymm_v5,2020.2.10,MacIntel,60,61025ae37ef11b136ea224fe,,,,,,,,,3324,79.8515625,42.89453125,1,0,0,response1disk,,6,22.07421875,13.57421875,1,0,0,rectangle,22.07421875,13.57421875,1,0,0,22.07421875,13.57421875,1,0,0,1,58,218,18,1,,,,,,,,
,,,,,,,,,,,,,FF,,,,,,,,0.7504,,,,,,,,,,,,,,,,,,,,,,6103547238747506ef02bb29,6103651687d0f99e9bf17124,2021-07-29_19h34.46.958,Simcolourproject_2stim_asymm_v5,2020.2.10,MacIntel,60,61025ae37ef11b136ea224fe,,,,,,,,,3854,44.96875,31.93359375,1,0,0,response1disk,,6,1.625,1.31640625,1,0,0,rectangle,1.625,1.31640625,1,0,0,1.625,1.31640625,1,0,0,1,59,219,86,1,,,,,,,,
,,,,,,,,,,,,,FF,,,,,,,,0.9182,,,,,,,,,,,,,,,,,,,,,,6103547238747506ef02bb29,6103651687d0f99e9bf17124,2021-07-29_19h34.46.958,Simcolourproject_2stim_asymm_v5,2020.2.10,MacIntel,60,61025ae37ef11b136ea224fe,,,,,,,,,3708,-53.6484375,-78.35546875,1,0,0,response5disk,,3,-14.87890625,5.16015625,1,0,0,rectangle,-14.87890625,5.16015625,1,0,0,-14.87890625,5.16015625,1,0,0,1,60,220,137,1,,,,,,,,
,,,,,,,,,,,,,FF,,,,,,,,1.5999,,,,,,,,,,,,,,,,,,,,,,6103547238747506ef02bb29,6103651687d0f99e9bf17124,2021-07-29_19h34.46.958,Simcolourproject_2stim_asymm_v5,2020.2.10,MacIntel,60,61025ae37ef11b136ea224fe,,,,,,,,,2771,-41.0859375,-84.27734375,1,0,0,response5disk,,3,-10.2421875,-8.30078125,1,0,0,rectangle,-10.2421875,-8.30078125,1,0,0,-10.2421875,-8.30078125,1,0,0,1,61,221,2,1,,,,,,,,
,,,,,,,,,,,,,FF,,,,,,,,1.0179,,,,,,,,,,,,,,,,,,,,,,6103547238747506ef02bb29,6103651687d0f99e9bf17124,2021-07-29_19h34.46.958,Simcolourproject_2stim_asymm_v5,2020.2.10,MacIntel,60,61025ae37ef11b136ea224fe,,,,,,,,,3523,95.9140625,-36.38671875,1,0,0,response3disk,,5,13.671875,-9.84375,1,0,0,rectangle,13.671875,-9.84375,1,0,0,13.671875,-9.84375,1,0,0,1,62,222,12,1,,,,,,,,
,,,,,,,,,,,,,FF,,,,,,,,0.8693,,,,,,,,,,,,,,,,,,,,,,6103547238747506ef02bb29,6103651687d0f99e9bf17124,2021-07-29_19h34.46.958,Simcolourproject_2stim_asymm_v5,2020.2.10,MacIntel,60,61025ae37ef11b136ea224fe,,,,,,,,,1200,66.0546875,41.51953125,1,0,0,response1disk,,6,18.45703125,6.26953125,1,0,0,rectangle,18.45703125,6.26953125,1,0,0,18.45703125,6.26953125,1,0,0,1,63,223,3,1,,,,,,,,
,,,,,,,,,,,,,FF,,,,,,,,2.3723,,,,,,,,,,,,,,,,,,,,,,6103547238747506ef02bb29,6103651687d0f99e9bf17124,2021-07-29_19h34.46.958,Simcolourproject_2stim_asymm_v5,2020.2.10,MacIntel,60,61025ae37ef11b136ea224fe,,,,,,,,,924,29.4609375,62.06640625,1,0,0,response1disk,,7,26.82421875,-5.44921875,1,0,0,rectangle,26.82421875,-5.44921875,1,0,0,26.82421875,-5.44921875,1,0,0,1,64,224,135,1,,,,,,,,
,,,,,,,,,,,,,FF,,,,,,,,0.9326,,,,,,,,,,,,,,,,,,,,,,6103547238747506ef02bb29,6103651687d0f99e9bf17124,2021-07-29_19h34.46.958,Simcolourproject_2stim_asymm_v5,2020.2.10,MacIntel,60,61025ae37ef11b136ea224fe,,,,,,,,,3598,-47.17578125,-79.5390625,1,0,0,response5disk,,3,-7.9453125,4.59765625,1,0,0,rectangle,-7.9453125,4.59765625,1,0,0,-7.9453125,4.59765625,1,0,0,1,65,225,122,1,,,,,,,,
,,,,,,,,,,,,,FF,,,,,,,,1.1178,,,,,,,,,,,,,,,,,,,,,,6103547238747506ef02bb29,6103651687d0f99e9bf17124,2021-07-29_19h34.46.958,Simcolourproject_2stim_asymm_v5,2020.2.10,MacIntel,60,61025ae37ef11b136ea224fe,,,,,,,,,3208,20.75390625,-68.33984375,1,0,0,response3disk,,4,10.2421875,-0.2265625,1,0,0,rectangle,10.2421875,-0.2265625,1,0,0,10.2421875,-0.2265625,1,0,0,1,66,226,25,1,,,,,,,,
,,,,,,,,,,,,,FF,,,,,,,,0.9511,,,,,,,,,,,,,,,,,,,,,,6103547238747506ef02bb29,6103651687d0f99e9bf17124,2021-07-29_19h34.46.958,Simcolourproject_2stim_asymm_v5,2020.2.10,MacIntel,60,61025ae37ef11b136ea224fe,,,,,,,,,434,35.0703125,-81.1953125,1,0,0,response3disk,,4,8.9453125,-3.91796875,1,0,0,rectangle,8.9453125,-3.91796875,1,0,0,8.9453125,-3.91796875,1,0,0,1,67,227,99,1,,,,,,,,
,,,,,,,,,,,,,FF,,,,,,,,1.5648,,,,,,,,,,,,,,,,,,,,,,6103547238747506ef02bb29,6103651687d0f99e9bf17124,2021-07-29_19h34.46.958,Simcolourproject_2stim_asymm_v5,2020.2.10,MacIntel,60,61025ae37ef11b136ea224fe,,,,,,,,,1243,62.8203125,29.328125,1,0,0,response1disk,,6,-12.1796875,-12.171875,1,0,0,rectangle,-12.1796875,-12.171875,1,0,0,-12.1796875,-12.171875,1,0,0,1,68,228,46,1,,,,,,,,
,,,,,,,,,,,,,FF,,,,,,,,0.8641,,,,,,,,,,,,,,,,,,,,,,6103547238747506ef02bb29,6103651687d0f99e9bf17124,2021-07-29_19h34.46.958,Simcolourproject_2stim_asymm_v5,2020.2.10,MacIntel,60,61025ae37ef11b136ea224fe,,,,,,,,,1847,58.1796875,26.59765625,1,0,0,response1disk,,6,-18.9609375,-7.69140625,1,0,0,rectangle,-18.9609375,-7.69140625,1,0,0,-18.9609375,-7.69140625,1,0,0,1,69,229,147,1,,,,,,,,
,,,,,,,,,,,,,FF,,,,,,,,0.9158,,,,,,,,,,,,,,,,,,,,,,6103547238747506ef02bb29,6103651687d0f99e9bf17124,2021-07-29_19h34.46.958,Simcolourproject_2stim_asymm_v5,2020.2.10,MacIntel,60,61025ae37ef11b136ea224fe,,,,,,,,,1754,-41.15234375,-58.8828125,1,0,0,response5disk,,3,-18.23828125,-1.1640625,1,0,0,rectangle,-18.23828125,-1.1640625,1,0,0,-18.23828125,-1.1640625,1,0,0,1,70,230,123,1,,,,,,,,
,,,,,,,,,,,,,FF,,,,,,,,0.7867,,,,,,,,,,,,,,,,,,,,,,6103547238747506ef02bb29,6103651687d0f99e9bf17124,2021-07-29_19h34.46.958,Simcolourproject_2stim_asymm_v5,2020.2.10,MacIntel,60,61025ae37ef11b136ea224fe,,,,,,,,,1752,-69.83984375,-30.39453125,1,0,0,response5disk,,2,-1.984375,-0.91015625,1,0,0,rectangle,-1.984375,-0.91015625,1,0,0,-1.984375,-0.91015625,1,0,0,1,71,231,140,1,,,,,,,,
,,,,,,,,,,,,,FF,,,,,,,,1.2184,,,,,,,,,,,,,,,,,,,,,,6103547238747506ef02bb29,6103651687d0f99e9bf17124,2021-07-29_19h34.46.958,Simcolourproject_2stim_asymm_v5,2020.2.10,MacIntel,60,61025ae37ef11b136ea224fe,,,,,,,,,4261,88.6953125,-46.9375,1,0,0,response3disk,,5,20.37109375,-5.93359375,1,0,0,rectangle,20.37109375,-5.93359375,1,0,0,20.37109375,-5.93359375,1,0,0,1,72,232,79,1,,,,,,,,
,,,,,,,,,,,,,FF,,,,,,,,1.1385,,,,,,,,,,,,,,,,,,,,,,6103547238747506ef02bb29,6103651687d0f99e9bf17124,2021-07-29_19h34.46.958,Simcolourproject_2stim_asymm_v5,2020.2.10,MacIntel,60,61025ae37ef11b136ea224fe,,,,,,,,,1907,28.76171875,-57.76953125,1,0,0,response3disk,,4,6.48828125,-9.61328125,1,0,0,rectangle,6.48828125,-9.61328125,1,0,0,6.48828125,-9.61328125,1,0,0,1,73,233,28,1,,,,,,,,
,,,,,,,,,,,,,FF,,,,,,,,1.0997,,,,,,,,,,,,,,,,,,,,,,6103547238747506ef02bb29,6103651687d0f99e9bf17124,2021-07-29_19h34.46.958,Simcolourproject_2stim_asymm_v5,2020.2.10,MacIntel,60,61025ae37ef11b136ea224fe,,,,,,,,,149,61.37890625,47.3046875,1,0,0,response1disk,,6,21.73046875,16.8984375,1,0,0,rectangle,21.73046875,16.8984375,1,0,0,21.73046875,16.8984375,1,0,0,1,74,234,130,1,,,,,,,,
,,,,,,,,,,,,,FF,,,,,,,,1.1137,,,,,,,,,,,,,,,,,,,,,,6103547238747506ef02bb29,6103651687d0f99e9bf17124,2021-07-29_19h34.46.958,Simcolourproject_2stim_asymm_v5,2020.2.10,MacIntel,60,61025ae37ef11b136ea224fe,,,,,,,,,2682,57.22265625,-23.48046875,1,0,0,response3disk,,5,-3.23046875,-2.0859375,1,0,0,rectangle,93.5234375,39.8359375,1,0,0,15.34765625,8.35546875,1,0,0,1,75,235,136,1,,response1disk_3,TRUE,6,6,"[131,289,175,179,289,267,180,80,236,171,25,95,85,3,156,300,26,117,178,215]",1.7128,rectangle
,,,,,,,,,,,,,FF,,,,,,,,0.862,,,,,,,,,,,,,,,,,,,,,,6103547238747506ef02bb29,6103651687d0f99e9bf17124,2021-07-29_19h34.46.958,Simcolourproject_2stim_asymm_v5,2020.2.10,MacIntel,60,61025ae37ef11b136ea224fe,,,,,,,,,2470,33.953125,56.68359375,1,0,0,response1disk,,7,10.1015625,0.24609375,1,0,0,rectangle,10.1015625,0.24609375,1,0,0,10.1015625,0.24609375,1,0,0,1,76,236,157,1,,,,,,,,
,,,,,,,,,,,,,FF,,,,,,,,0.787,,,,,,,,,,,,,,,,,,,,,,6103547238747506ef02bb29,6103651687d0f99e9bf17124,2021-07-29_19h34.46.958,Simcolourproject_2stim_asymm_v5,2020.2.10,MacIntel,60,61025ae37ef11b136ea224fe,,,,,,,,,2539,29.359375,57.9921875,1,0,0,response1disk,,7,15.91015625,10.4453125,1,0,0,rectangle,15.91015625,10.4453125,1,0,0,15.91015625,10.4453125,1,0,0,1,77,237,153,1,,,,,,,,
,,,,,,,,,,,,,FF,,,,,,,,2.5001,,,,,,,,,,,,,,,,,,,,,,6103547238747506ef02bb29,6103651687d0f99e9bf17124,2021-07-29_19h34.46.958,Simcolourproject_2stim_asymm_v5,2020.2.10,MacIntel,60,61025ae37ef11b136ea224fe,,,,,,,,,1748,-31.703125,-65.3203125,1,0,0,response5disk,,3,1.03515625,8.65625,1,0,0,rectangle,1.03515625,8.65625,1,0,0,1.03515625,8.65625,1,0,0,1,78,238,75,1,,,,,,,,
,,,,,,,,,,,,,FF,,,,,,,,2.0998,,,,,,,,,,,,,,,,,,,,,,6103547238747506ef02bb29,6103651687d0f99e9bf17124,2021-07-29_19h34.46.958,Simcolourproject_2stim_asymm_v5,2020.2.10,MacIntel,60,61025ae37ef11b136ea224fe,,,,,,,,,2201,60.44921875,-33.26171875,1,0,0,response3disk,,5,-14.94140625,-16.29296875,1,0,0,rectangle,-14.94140625,-16.29296875,1,0,0,-14.94140625,-16.29296875,1,0,0,1,79,239,37,1,,,,,,,,
,,,,,,,,,,,,,FF,,,,,,,,1.553,,,,,,,,,,,,,,,,,,,,,,6103547238747506ef02bb29,6103651687d0f99e9bf17124,2021-07-29_19h34.46.958,Simcolourproject_2stim_asymm_v5,2020.2.10,MacIntel,60,61025ae37ef11b136ea224fe,,,,,,,,,3260,43.87890625,65.2109375,1,0,0,response1disk,,7,18.7421875,5.5,1,0,0,rectangle,18.7421875,5.5,1,0,0,18.7421875,5.5,1,0,0,1,80,240,78,1,,,,,,,,
,,,,,,,,,,,,,FF,,,,,,,,0.8637,,,,,,,,,,,,,,,,,,,,,,6103547238747506ef02bb29,6103651687d0f99e9bf17124,2021-07-29_19h34.46.958,Simcolourproject_2stim_asymm_v5,2020.2.10,MacIntel,60,61025ae37ef11b136ea224fe,,,,,,,,,1494,32.03515625,77.296875,1,0,0,response1disk,,7,12.35546875,-0.71875,1,0,0,rectangle,12.35546875,-0.71875,1,0,0,12.35546875,-0.71875,1,0,0,1,81,241,100,1,,,,,,,,
,,,,,,,,,,,,,FF,,,,,,,,3.7159,,,,,,,,,,,,,,,,,,,,,,6103547238747506ef02bb29,6103651687d0f99e9bf17124,2021-07-29_19h34.46.958,Simcolourproject_2stim_asymm_v5,2020.2.10,MacIntel,60,61025ae37ef11b136ea224fe,,,,,,,,,3896,72.546875,32.11328125,1,0,0,response1disk,,6,33.53515625,13.09375,1,0,0,rectangle,33.53515625,13.09375,1,0,0,33.53515625,13.09375,1,0,0,1,82,242,66,1,,,,,,,,
,,,,,,,,,,,,,FF,,,,,,,,1.0166,,,,,,,,,,,,,,,,,,,,,,6103547238747506ef02bb29,6103651687d0f99e9bf17124,2021-07-29_19h34.46.958,Simcolourproject_2stim_asymm_v5,2020.2.10,MacIntel,60,61025ae37ef11b136ea224fe,,,,,,,,,4075,60.96484375,-35.90234375,1,0,0,response3disk,,5,7.24609375,-7.51171875,1,0,0,rectangle,7.24609375,-7.51171875,1,0,0,7.24609375,-7.51171875,1,0,0,1,83,243,27,1,,,,,,,,
,,,,,,,,,,,,,FF,,,,,,,,6.6472,,,,,,,,,,,,,,,,,,,,,,6103547238747506ef02bb29,6103651687d0f99e9bf17124,2021-07-29_19h34.46.958,Simcolourproject_2stim_asymm_v5,2020.2.10,MacIntel,60,61025ae37ef11b136ea224fe,,,,,,,,,2193,63.43359375,-31.3203125,1,0,0,response3disk,,5,3.99609375,-8.3671875,1,0,0,rectangle,3.99609375,-8.3671875,1,0,0,3.99609375,-8.3671875,1,0,0,1,84,244,121,1,,,,,,,,
,,,,,,,,,,,,,FF,,,,,,,,0.9174,,,,,,,,,,,,,,,,,,,,,,6103547238747506ef02bb29,6103651687d0f99e9bf17124,2021-07-29_19h34.46.958,Simcolourproject_2stim_asymm_v5,2020.2.10,MacIntel,60,61025ae37ef11b136ea224fe,,,,,,,,,3751,-32.00390625,-62.4140625,1,0,0,response5disk,,3,-12.046875,-12.01171875,1,0,0,rectangle,-12.046875,-12.01171875,1,0,0,-12.046875,-12.01171875,1,0,0,1,85,245,117,1,,,,,,,,
,,,,,,,,,,,,,FF,,,,,,,,3.3949,,,,,,,,,,,,,,,,,,,,,,6103547238747506ef02bb29,6103651687d0f99e9bf17124,2021-07-29_19h34.46.958,Simcolourproject_2stim_asymm_v5,2020.2.10,MacIntel,60,61025ae37ef11b136ea224fe,,,,,,,,,2615,-73.33203125,-94.74609375,1,0,0,response5disk,,3,-9.31640625,-2.53125,1,0,0,rectangle,-9.31640625,-2.53125,1,0,0,-9.31640625,-2.53125,1,0,0,1,86,246,77,1,,,,,,,,
,,,,,,,,,,,,,FF,,,,,,,,0.8356,,,,,,,,,,,,,,,,,,,,,,6103547238747506ef02bb29,6103651687d0f99e9bf17124,2021-07-29_19h34.46.958,Simcolourproject_2stim_asymm_v5,2020.2.10,MacIntel,60,61025ae37ef11b136ea224fe,,,,,,,,,2172,-30.6953125,-56.03125,1,0,0,response5disk,,3,-22.55859375,-9.51171875,1,0,0,rectangle,-22.55859375,-9.51171875,1,0,0,-22.55859375,-9.51171875,1,0,0,1,87,247,48,1,,,,,,,,
