key_resp.keys,key_resp.rt,key_resp_14.keys,key_resp_14.rt,key_resp_15.keys,key_resp_15.rt,key_resp_17.keys,key_resp_17.rt,key_resp_9.keys,key_resp_9.rt,key_resp_10.keys,key_resp_10.rt,practice_comparison,Ecc,mouse_5.x,mouse_5.y,mouse_5.leftButton,mouse_5.midButton,mouse_5.rightButton,mouse_5.clicked_name,pracsimilarity,response_time,mouse_10.x,mouse_10.y,mouse_10.leftButton,mouse_10.midButton,mouse_10.rightButton,mouse_10.clicked_name,mouse_7.x,mouse_7.y,mouse_7.leftButton,mouse_7.midButton,mouse_7.rightButton,mouse_6.x,mouse_6.y,mouse_6.leftButton,mouse_6.midButton,mouse_6.rightButton,duringprac.thisRepN,duringprac.thisTrialN,duringprac.thisN,duringprac.thisIndex,duringprac.ran,participant,session,date,expName,psychopyVersion,OS,frameRate,study_id,mouse_7.clicked_name,catchpracsimilarity,catch_response_time,catchnumberprac,catchtrialorderprac,mouse_6.clicked_name,key_resp_22.keys,key_resp_22.rt,realcomparison,mouse.x,mouse.y,mouse.leftButton,mouse.midButton,mouse.rightButton,mouse.clicked_name,Colour2,similarity,mouse_2.x,mouse_2.y,mouse_2.leftButton,mouse_2.midButton,mouse_2.rightButton,mouse_2.clicked_name,mouse_3.x,mouse_3.y,mouse_3.leftButton,mouse_3.midButton,mouse_3.rightButton,mouse_11.x,mouse_11.y,mouse_11.leftButton,mouse_11.midButton,mouse_11.rightButton,trials_2.thisRepN,trials_2.thisTrialN,trials_2.thisN,trials_2.thisIndex,trials_2.ran,Colour1,mouse_3.clicked_name,catchornah,catchsimilarity,catchnumber,catchtrialorder,catchRT,mouse_11.clicked_name
space,4.3797,space,17.9765,space,12.9253,space,9.4464,space,2.0293,space,9.174,2,PF,127,49,1,0,0,response1disk_5,6,12.3511,5,10,1,0,0,rectangle_8,5,10,1,0,0,5,10,1,0,0,0,0,0,2,1,610344869928e5cbcc7ebf23,610370897388e7c156ebdc44,2021-07-30_00h27.22.532,Simcolourproject_2stim_asymm_v5,2020.2.10,Win32,60,61025ae37ef11b136ea224fe,,,,,,,,,,,,,,,,,,,,,,,,,,,,,,,,,,,,,,,,,,,,,,
,,,,,,,,,,,,6,FF,115,131,1,0,0,response1disk_5,7,2.1855,2,-5,1,0,0,rectangle_8,93,-55,1,0,0,-10,9,1,0,0,0,1,1,5,1,610344869928e5cbcc7ebf23,610370897388e7c156ebdc44,2021-07-30_00h27.22.532,Simcolourproject_2stim_asymm_v5,2020.2.10,Win32,60,61025ae37ef11b136ea224fe,response3disk_7,5,2.7034,5,"[2,5]",rectangle_4,,,,,,,,,,,,,,,,,,,,,,,,,,,,,,,,,,,,,,,,
,,,,,,,,,,,,29,FF,-78,-56,1,0,0,response5disk_5,2,4.2702,30,4,1,0,0,rectangle_8,30,4,1,0,0,30,4,1,0,0,0,2,2,0,1,610344869928e5cbcc7ebf23,610370897388e7c156ebdc44,2021-07-30_00h27.22.532,Simcolourproject_2stim_asymm_v5,2020.2.10,Win32,60,61025ae37ef11b136ea224fe,,,,,,,,,,,,,,,,,,,,,,,,,,,,,,,,,,,,,,,,,,,,,,
,,,,,,,,,,,,77,PF,38,123,1,0,0,response1disk_5,7,1.8184,-5,-10,1,0,0,rectangle_8,-5,-10,1,0,0,-5,-10,1,0,0,0,3,3,6,1,610344869928e5cbcc7ebf23,610370897388e7c156ebdc44,2021-07-30_00h27.22.532,Simcolourproject_2stim_asymm_v5,2020.2.10,Win32,60,61025ae37ef11b136ea224fe,,,,,,,,,,,,,,,,,,,,,,,,,,,,,,,,,,,,,,,,,,,,,,
,,,,,,,,,,,,93,PF,-72,-62,1,0,0,response5disk_5,2,2.5521,-6,8,1,0,0,rectangle_8,88,-40,1,0,0,18,-15,1,0,0,0,4,4,1,1,610344869928e5cbcc7ebf23,610370897388e7c156ebdc44,2021-07-30_00h27.22.532,Simcolourproject_2stim_asymm_v5,2020.2.10,Win32,60,61025ae37ef11b136ea224fe,response3disk_7,5,1.8518,5,"[2,5]",rectangle_4,,,,,,,,,,,,,,,,,,,,,,,,,,,,,,,,,,,,,,,,
,,,,,,,,,,,,62,PF,123,-63,1,0,0,response3disk_5,5,3.9696,11,7,1,0,0,rectangle_8,11,7,1,0,0,11,7,1,0,0,0,5,5,4,1,610344869928e5cbcc7ebf23,610370897388e7c156ebdc44,2021-07-30_00h27.22.532,Simcolourproject_2stim_asymm_v5,2020.2.10,Win32,60,61025ae37ef11b136ea224fe,,,,,,,,,,,,,,,,,,,,,,,,,,,,,,,,,,,,,,,,,,,,,,
,,,,,,,,,,,,143,FF,145,50,1,0,0,response1disk_5,6,2.5687,16,5,1,0,0,rectangle_8,16,5,1,0,0,16,5,1,0,0,0,6,6,3,1,610344869928e5cbcc7ebf23,610370897388e7c156ebdc44,2021-07-30_00h27.22.532,Simcolourproject_2stim_asymm_v5,2020.2.10,Win32,60,61025ae37ef11b136ea224fe,,,,,,,,,,,,,,,,,,,,,,,,,,,,,,,,,,,,,,,,,,,,,,
,,,,,,,,,,,,,FF,,,,,,,,3.6376,,,,,,,,,,,,,,,,,,,,,,610344869928e5cbcc7ebf23,610370897388e7c156ebdc44,2021-07-30_00h27.22.532,Simcolourproject_2stim_asymm_v5,2020.2.10,Win32,60,61025ae37ef11b136ea224fe,,,,,,,space,2.9268,1585,40,-86,1,0,0,response3disk,,4,14,0,1,0,0,rectangle,14,0,1,0,0,14,0,1,0,0,0,0,0,151,1,,,,,,,,
,,,,,,,,,,,,,FF,,,,,,,,1.4178,,,,,,,,,,,,,,,,,,,,,,610344869928e5cbcc7ebf23,610370897388e7c156ebdc44,2021-07-30_00h27.22.532,Simcolourproject_2stim_asymm_v5,2020.2.10,Win32,60,61025ae37ef11b136ea224fe,,,,,,,,,285,-57,-100,1,0,0,response5disk,,3,-5,10,1,0,0,rectangle,-5,10,1,0,0,-5,10,1,0,0,0,1,1,53,1,,,,,,,,
,,,,,,,,,,,,,FF,,,,,,,,4.7372,,,,,,,,,,,,,,,,,,,,,,610344869928e5cbcc7ebf23,610370897388e7c156ebdc44,2021-07-30_00h27.22.532,Simcolourproject_2stim_asymm_v5,2020.2.10,Win32,60,61025ae37ef11b136ea224fe,,,,,,,,,3933,49,-95,1,0,0,response3disk,,4,27,2,1,0,0,rectangle,27,2,1,0,0,27,2,1,0,0,0,2,2,32,1,,,,,,,,
,,,,,,,,,,,,,FF,,,,,,,,3.8036,,,,,,,,,,,,,,,,,,,,,,610344869928e5cbcc7ebf23,610370897388e7c156ebdc44,2021-07-30_00h27.22.532,Simcolourproject_2stim_asymm_v5,2020.2.10,Win32,60,61025ae37ef11b136ea224fe,,,,,,,,,2916,114,48,1,0,0,response1disk,,6,34,-10,1,0,0,rectangle,34,-10,1,0,0,34,-10,1,0,0,0,3,3,116,1,,,,,,,,
,,,,,,,,,,,,,FF,,,,,,,,1.4348,,,,,,,,,,,,,,,,,,,,,,610344869928e5cbcc7ebf23,610370897388e7c156ebdc44,2021-07-30_00h27.22.532,Simcolourproject_2stim_asymm_v5,2020.2.10,Win32,60,61025ae37ef11b136ea224fe,,,,,,,,,2519,79,118,1,0,0,response1disk,,7,31,-4,1,0,0,rectangle,31,-4,1,0,0,31,-4,1,0,0,0,4,4,90,1,,,,,,,,
,,,,,,,,,,,,,FF,,,,,,,,2.1519,,,,,,,,,,,,,,,,,,,,,,610344869928e5cbcc7ebf23,610370897388e7c156ebdc44,2021-07-30_00h27.22.532,Simcolourproject_2stim_asymm_v5,2020.2.10,Win32,60,61025ae37ef11b136ea224fe,,,,,,,,,3874,32,-112,1,0,0,response3disk,,4,24,-10,1,0,0,rectangle,24,-10,1,0,0,24,-10,1,0,0,0,5,5,69,1,,,,,,,,
,,,,,,,,,,,,,FF,,,,,,,,1.3506,,,,,,,,,,,,,,,,,,,,,,610344869928e5cbcc7ebf23,610370897388e7c156ebdc44,2021-07-30_00h27.22.532,Simcolourproject_2stim_asymm_v5,2020.2.10,Win32,60,61025ae37ef11b136ea224fe,,,,,,,,,2636,56,95,1,0,0,response1disk,,7,24,1,1,0,0,rectangle,24,1,1,0,0,24,1,1,0,0,0,6,6,114,1,,,,,,,,
,,,,,,,,,,,,,FF,,,,,,,,2.5523,,,,,,,,,,,,,,,,,,,,,,610344869928e5cbcc7ebf23,610370897388e7c156ebdc44,2021-07-30_00h27.22.532,Simcolourproject_2stim_asymm_v5,2020.2.10,Win32,60,61025ae37ef11b136ea224fe,,,,,,,,,3503,-125,-36,1,0,0,response5disk,,2,-37,7,1,0,0,rectangle,-37,7,1,0,0,-37,7,1,0,0,0,7,7,108,1,,,,,,,,
,,,,,,,,,,,,,FF,,,,,,,,1.2348,,,,,,,,,,,,,,,,,,,,,,610344869928e5cbcc7ebf23,610370897388e7c156ebdc44,2021-07-30_00h27.22.532,Simcolourproject_2stim_asymm_v5,2020.2.10,Win32,60,61025ae37ef11b136ea224fe,,,,,,,,,3840,-70,-128,1,0,0,response5disk,,3,-17,17,1,0,0,rectangle,63,-95,1,0,0,25,-5,1,0,0,0,8,8,16,1,,response3disk_3,TRUE,4,4,"[100,261,271,25,138,167,243,120,92,133,32,9,251,57,207,229,169,51,156,82]",1.5149,rectangle
,,,,,,,,,,,,,FF,,,,,,,,2.3358,,,,,,,,,,,,,,,,,,,,,,610344869928e5cbcc7ebf23,610370897388e7c156ebdc44,2021-07-30_00h27.22.532,Simcolourproject_2stim_asymm_v5,2020.2.10,Win32,60,61025ae37ef11b136ea224fe,,,,,,,,,410,121,34,1,0,0,response1disk,,6,24,-11,1,0,0,rectangle,24,-11,1,0,0,24,-11,1,0,0,0,9,9,102,1,,,,,,,,
,,,,,,,,,,,,,FF,,,,,,,,1.7848,,,,,,,,,,,,,,,,,,,,,,610344869928e5cbcc7ebf23,610370897388e7c156ebdc44,2021-07-30_00h27.22.532,Simcolourproject_2stim_asymm_v5,2020.2.10,Win32,60,61025ae37ef11b136ea224fe,,,,,,,,,3208,42,-71,1,0,0,response3disk,,4,42,-14,1,0,0,rectangle,42,-14,1,0,0,42,-14,1,0,0,0,10,10,15,1,,,,,,,,
,,,,,,,,,,,,,FF,,,,,,,,3.4025,,,,,,,,,,,,,,,,,,,,,,610344869928e5cbcc7ebf23,610370897388e7c156ebdc44,2021-07-30_00h27.22.532,Simcolourproject_2stim_asymm_v5,2020.2.10,Win32,60,61025ae37ef11b136ea224fe,,,,,,,,,1355,-43,-119,1,0,0,response5disk,,3,11,19,1,0,0,rectangle,11,19,1,0,0,11,19,1,0,0,0,11,11,98,1,,,,,,,,
,,,,,,,,,,,,,FF,,,,,,,,1.0675,,,,,,,,,,,,,,,,,,,,,,610344869928e5cbcc7ebf23,610370897388e7c156ebdc44,2021-07-30_00h27.22.532,Simcolourproject_2stim_asymm_v5,2020.2.10,Win32,60,61025ae37ef11b136ea224fe,,,,,,,,,3699,-39,-91,1,0,0,response5disk,,3,12,3,1,0,0,rectangle,12,3,1,0,0,12,3,1,0,0,0,12,12,63,1,,,,,,,,
,,,,,,,,,,,,,FF,,,,,,,,2.0522,,,,,,,,,,,,,,,,,,,,,,610344869928e5cbcc7ebf23,610370897388e7c156ebdc44,2021-07-30_00h27.22.532,Simcolourproject_2stim_asymm_v5,2020.2.10,Win32,60,61025ae37ef11b136ea224fe,,,,,,,,,1757,-111,-26,1,0,0,response5disk,,2,-28,-8,1,0,0,rectangle,-28,-8,1,0,0,-28,-8,1,0,0,0,13,13,55,1,,,,,,,,
,,,,,,,,,,,,,FF,,,,,,,,2.7021,,,,,,,,,,,,,,,,,,,,,,610344869928e5cbcc7ebf23,610370897388e7c156ebdc44,2021-07-30_00h27.22.532,Simcolourproject_2stim_asymm_v5,2020.2.10,Win32,60,61025ae37ef11b136ea224fe,,,,,,,,,1025,128,83,1,0,0,response1disk,,6,16,2,1,0,0,rectangle,16,2,1,0,0,16,2,1,0,0,0,14,14,81,1,,,,,,,,
,,,,,,,,,,,,,FF,,,,,,,,1.6676,,,,,,,,,,,,,,,,,,,,,,610344869928e5cbcc7ebf23,610370897388e7c156ebdc44,2021-07-30_00h27.22.532,Simcolourproject_2stim_asymm_v5,2020.2.10,Win32,60,61025ae37ef11b136ea224fe,,,,,,,,,595,122,56,1,0,0,response1disk,,6,10,3,1,0,0,rectangle,10,3,1,0,0,10,3,1,0,0,0,15,15,125,1,,,,,,,,
,,,,,,,,,,,,,FF,,,,,,,,1.2673,,,,,,,,,,,,,,,,,,,,,,610344869928e5cbcc7ebf23,610370897388e7c156ebdc44,2021-07-30_00h27.22.532,Simcolourproject_2stim_asymm_v5,2020.2.10,Win32,60,61025ae37ef11b136ea224fe,,,,,,,,,3436,-102,-49,1,0,0,response5disk,,2,-27,12,1,0,0,rectangle,-27,12,1,0,0,-27,12,1,0,0,0,16,16,13,1,,,,,,,,
,,,,,,,,,,,,,FF,,,,,,,,1.0014,,,,,,,,,,,,,,,,,,,,,,610344869928e5cbcc7ebf23,610370897388e7c156ebdc44,2021-07-30_00h27.22.532,Simcolourproject_2stim_asymm_v5,2020.2.10,Win32,60,61025ae37ef11b136ea224fe,,,,,,,,,2265,81,107,1,0,0,response1disk,,7,24,6,1,0,0,rectangle,24,6,1,0,0,24,6,1,0,0,0,17,17,145,1,,,,,,,,
,,,,,,,,,,,,,FF,,,,,,,,1.0842,,,,,,,,,,,,,,,,,,,,,,610344869928e5cbcc7ebf23,610370897388e7c156ebdc44,2021-07-30_00h27.22.532,Simcolourproject_2stim_asymm_v5,2020.2.10,Win32,60,61025ae37ef11b136ea224fe,,,,,,,,,427,-41,-82,1,0,0,response5disk,,3,-18,9,1,0,0,rectangle,-18,9,1,0,0,-18,9,1,0,0,0,18,18,141,1,,,,,,,,
,,,,,,,,,,,,,FF,,,,,,,,4.0864,,,,,,,,,,,,,,,,,,,,,,610344869928e5cbcc7ebf23,610370897388e7c156ebdc44,2021-07-30_00h27.22.532,Simcolourproject_2stim_asymm_v5,2020.2.10,Win32,60,61025ae37ef11b136ea224fe,,,,,,,,,1948,28,-88,1,0,0,response3disk,,4,18,-1,1,0,0,rectangle,18,-1,1,0,0,18,-1,1,0,0,0,19,19,76,1,,,,,,,,
,,,,,,,,,,,,,FF,,,,,,,,3.1523,,,,,,,,,,,,,,,,,,,,,,610344869928e5cbcc7ebf23,610370897388e7c156ebdc44,2021-07-30_00h27.22.532,Simcolourproject_2stim_asymm_v5,2020.2.10,Win32,60,61025ae37ef11b136ea224fe,,,,,,,,,963,129,59,1,0,0,response1disk,,6,16,17,1,0,0,rectangle,16,17,1,0,0,16,17,1,0,0,0,20,20,128,1,,,,,,,,
,,,,,,,,,,,,,FF,,,,,,,,1.2343,,,,,,,,,,,,,,,,,,,,,,610344869928e5cbcc7ebf23,610370897388e7c156ebdc44,2021-07-30_00h27.22.532,Simcolourproject_2stim_asymm_v5,2020.2.10,Win32,60,61025ae37ef11b136ea224fe,,,,,,,,,155,-36,-138,1,0,0,response5disk,,3,13,14,1,0,0,rectangle,13,14,1,0,0,13,14,1,0,0,0,21,21,10,1,,,,,,,,
,,,,,,,,,,,,,FF,,,,,,,,1.8851,,,,,,,,,,,,,,,,,,,,,,610344869928e5cbcc7ebf23,610370897388e7c156ebdc44,2021-07-30_00h27.22.532,Simcolourproject_2stim_asymm_v5,2020.2.10,Win32,60,61025ae37ef11b136ea224fe,,,,,,,,,984,-41,-100,1,0,0,response5disk,,3,-26,1,1,0,0,rectangle,-26,1,1,0,0,-26,1,1,0,0,0,22,22,8,1,,,,,,,,
,,,,,,,,,,,,,FF,,,,,,,,1.0837,,,,,,,,,,,,,,,,,,,,,,610344869928e5cbcc7ebf23,610370897388e7c156ebdc44,2021-07-30_00h27.22.532,Simcolourproject_2stim_asymm_v5,2020.2.10,Win32,60,61025ae37ef11b136ea224fe,,,,,,,,,4099,-101,-47,1,0,0,response5disk,,2,-34,6,1,0,0,rectangle,-34,6,1,0,0,-34,6,1,0,0,0,23,23,156,1,,,,,,,,
,,,,,,,,,,,,,FF,,,,,,,,4.0369,,,,,,,,,,,,,,,,,,,,,,610344869928e5cbcc7ebf23,610370897388e7c156ebdc44,2021-07-30_00h27.22.532,Simcolourproject_2stim_asymm_v5,2020.2.10,Win32,60,61025ae37ef11b136ea224fe,,,,,,,,,946,146,48,1,0,0,response1disk,,6,31,-17,1,0,0,rectangle,-39,116,1,0,0,-3,-14,1,0,0,0,24,24,41,1,,response7disk_3,TRUE,0,0,"[100,261,271,25,138,167,243,120,92,133,32,9,251,57,207,229,169,51,156,82]",1.717,rectangle
,,,,,,,,,,,,,FF,,,,,,,,2.0175,,,,,,,,,,,,,,,,,,,,,,610344869928e5cbcc7ebf23,610370897388e7c156ebdc44,2021-07-30_00h27.22.532,Simcolourproject_2stim_asymm_v5,2020.2.10,Win32,60,61025ae37ef11b136ea224fe,,,,,,,,,3576,104,62,1,0,0,response1disk,,6,32,10,1,0,0,rectangle,32,10,1,0,0,32,10,1,0,0,0,25,25,65,1,,,,,,,,
,,,,,,,,,,,,,FF,,,,,,,,1.7347,,,,,,,,,,,,,,,,,,,,,,610344869928e5cbcc7ebf23,610370897388e7c156ebdc44,2021-07-30_00h27.22.532,Simcolourproject_2stim_asymm_v5,2020.2.10,Win32,60,61025ae37ef11b136ea224fe,,,,,,,,,2686,55,-108,1,0,0,response3disk,,4,36,-10,1,0,0,rectangle,36,-10,1,0,0,36,-10,1,0,0,0,26,26,34,1,,,,,,,,
,,,,,,,,,,,,,FF,,,,,,,,1.3678,,,,,,,,,,,,,,,,,,,,,,610344869928e5cbcc7ebf23,610370897388e7c156ebdc44,2021-07-30_00h27.22.532,Simcolourproject_2stim_asymm_v5,2020.2.10,Win32,60,61025ae37ef11b136ea224fe,,,,,,,,,2678,-51,-85,1,0,0,response5disk,,3,-20,3,1,0,0,rectangle,-20,3,1,0,0,-20,3,1,0,0,0,27,27,52,1,,,,,,,,
,,,,,,,,,,,,,FF,,,,,,,,1.6016,,,,,,,,,,,,,,,,,,,,,,610344869928e5cbcc7ebf23,610370897388e7c156ebdc44,2021-07-30_00h27.22.532,Simcolourproject_2stim_asymm_v5,2020.2.10,Win32,60,61025ae37ef11b136ea224fe,,,,,,,,,770,78,-50,1,0,0,response3disk,,5,34,0,1,0,0,rectangle,34,0,1,0,0,34,0,1,0,0,0,28,28,17,1,,,,,,,,
,,,,,,,,,,,,,FF,,,,,,,,0.8503,,,,,,,,,,,,,,,,,,,,,,610344869928e5cbcc7ebf23,610370897388e7c156ebdc44,2021-07-30_00h27.22.532,Simcolourproject_2stim_asymm_v5,2020.2.10,Win32,60,61025ae37ef11b136ea224fe,,,,,,,,,1295,-103,-59,1,0,0,response5disk,,2,-44,3,1,0,0,rectangle,-44,3,1,0,0,-44,3,1,0,0,0,29,29,38,1,,,,,,,,
,,,,,,,,,,,,,FF,,,,,,,,3.0859,,,,,,,,,,,,,,,,,,,,,,610344869928e5cbcc7ebf23,610370897388e7c156ebdc44,2021-07-30_00h27.22.532,Simcolourproject_2stim_asymm_v5,2020.2.10,Win32,60,61025ae37ef11b136ea224fe,,,,,,,,,1420,113,69,1,0,0,response1disk,,6,17,3,1,0,0,rectangle,17,3,1,0,0,17,3,1,0,0,0,30,30,155,1,,,,,,,,
,,,,,,,,,,,,,FF,,,,,,,,0.9507,,,,,,,,,,,,,,,,,,,,,,610344869928e5cbcc7ebf23,610370897388e7c156ebdc44,2021-07-30_00h27.22.532,Simcolourproject_2stim_asymm_v5,2020.2.10,Win32,60,61025ae37ef11b136ea224fe,,,,,,,,,4335,-121,37,1,0,0,response7disk,,1,-11,-4,1,0,0,rectangle,-33,-72,1,0,0,-3,1,1,0,0,0,31,31,9,1,,response5disk_3,TRUE,3,3,"[100,261,271,25,138,167,243,120,92,133,32,9,251,57,207,229,169,51,156,82]",1.5678,rectangle
,,,,,,,,,,,,,FF,,,,,,,,4.8035,,,,,,,,,,,,,,,,,,,,,,610344869928e5cbcc7ebf23,610370897388e7c156ebdc44,2021-07-30_00h27.22.532,Simcolourproject_2stim_asymm_v5,2020.2.10,Win32,60,61025ae37ef11b136ea224fe,,,,,,,,,4297,-68,-114,1,0,0,response5disk,,3,-1,8,1,0,0,rectangle,-1,8,1,0,0,-1,8,1,0,0,0,32,32,130,1,,,,,,,,
,,,,,,,,,,,,,FF,,,,,,,,1.8682,,,,,,,,,,,,,,,,,,,,,,610344869928e5cbcc7ebf23,610370897388e7c156ebdc44,2021-07-30_00h27.22.532,Simcolourproject_2stim_asymm_v5,2020.2.10,Win32,60,61025ae37ef11b136ea224fe,,,,,,,,,2630,157,46,1,0,0,response1disk,,6,-31,-6,1,0,0,rectangle,-31,-6,1,0,0,-31,-6,1,0,0,0,33,33,82,1,,,,,,,,
,,,,,,,,,,,,,FF,,,,,,,,1.3013,,,,,,,,,,,,,,,,,,,,,,610344869928e5cbcc7ebf23,610370897388e7c156ebdc44,2021-07-30_00h27.22.532,Simcolourproject_2stim_asymm_v5,2020.2.10,Win32,60,61025ae37ef11b136ea224fe,,,,,,,,,1439,-44,-100,1,0,0,response5disk,,3,-26,-1,1,0,0,rectangle,-26,-1,1,0,0,-26,-1,1,0,0,0,34,34,71,1,,,,,,,,
,,,,,,,,,,,,,FF,,,,,,,,0.9676,,,,,,,,,,,,,,,,,,,,,,610344869928e5cbcc7ebf23,610370897388e7c156ebdc44,2021-07-30_00h27.22.532,Simcolourproject_2stim_asymm_v5,2020.2.10,Win32,60,61025ae37ef11b136ea224fe,,,,,,,,,3552,-59,114,1,0,0,response7disk,,0,-20,2,1,0,0,rectangle,-20,2,1,0,0,-20,2,1,0,0,0,35,35,104,1,,,,,,,,
,,,,,,,,,,,,,FF,,,,,,,,1.4345,,,,,,,,,,,,,,,,,,,,,,610344869928e5cbcc7ebf23,610370897388e7c156ebdc44,2021-07-30_00h27.22.532,Simcolourproject_2stim_asymm_v5,2020.2.10,Win32,60,61025ae37ef11b136ea224fe,,,,,,,,,1833,-75,-39,1,0,0,response5disk,,2,-38,7,1,0,0,rectangle,-38,7,1,0,0,-38,7,1,0,0,0,36,36,146,1,,,,,,,,
,,,,,,,,,,,,,FF,,,,,,,,0.8507,,,,,,,,,,,,,,,,,,,,,,610344869928e5cbcc7ebf23,610370897388e7c156ebdc44,2021-07-30_00h27.22.532,Simcolourproject_2stim_asymm_v5,2020.2.10,Win32,60,61025ae37ef11b136ea224fe,,,,,,,,,2034,-30,83,1,0,0,response7disk,,0,-11,1,1,0,0,rectangle,-11,1,1,0,0,-11,1,1,0,0,0,37,37,91,1,,,,,,,,
,,,,,,,,,,,,,FF,,,,,,,,0.6671,,,,,,,,,,,,,,,,,,,,,,610344869928e5cbcc7ebf23,610370897388e7c156ebdc44,2021-07-30_00h27.22.532,Simcolourproject_2stim_asymm_v5,2020.2.10,Win32,60,61025ae37ef11b136ea224fe,,,,,,,,,1956,-42,87,1,0,0,response7disk,,0,-32,4,1,0,0,rectangle,-32,4,1,0,0,-32,4,1,0,0,0,38,38,72,1,,,,,,,,
,,,,,,,,,,,,,FF,,,,,,,,1.4841,,,,,,,,,,,,,,,,,,,,,,610344869928e5cbcc7ebf23,610370897388e7c156ebdc44,2021-07-30_00h27.22.532,Simcolourproject_2stim_asymm_v5,2020.2.10,Win32,60,61025ae37ef11b136ea224fe,,,,,,,,,588,120,57,1,0,0,response1disk,,6,28,4,1,0,0,rectangle,28,4,1,0,0,28,4,1,0,0,0,39,39,134,1,,,,,,,,
,,,,,,,,,,,,,FF,,,,,,,,2.2516,,,,,,,,,,,,,,,,,,,,,,610344869928e5cbcc7ebf23,610370897388e7c156ebdc44,2021-07-30_00h27.22.532,Simcolourproject_2stim_asymm_v5,2020.2.10,Win32,60,61025ae37ef11b136ea224fe,,,,,,,,,2895,-73,-82,1,0,0,response5disk,,3,-41,-16,1,0,0,rectangle,-41,-16,1,0,0,-41,-16,1,0,0,0,40,40,67,1,,,,,,,,
,,,,,,,,,,,,,FF,,,,,,,,2.4349,,,,,,,,,,,,,,,,,,,,,,610344869928e5cbcc7ebf23,610370897388e7c156ebdc44,2021-07-30_00h27.22.532,Simcolourproject_2stim_asymm_v5,2020.2.10,Win32,60,61025ae37ef11b136ea224fe,,,,,,,,,2644,82,-121,1,0,0,response3disk,,4,34,-4,1,0,0,rectangle,34,-4,1,0,0,34,-4,1,0,0,0,41,41,46,1,,,,,,,,
,,,,,,,,,,,,,FF,,,,,,,,1.6178,,,,,,,,,,,,,,,,,,,,,,610344869928e5cbcc7ebf23,610370897388e7c156ebdc44,2021-07-30_00h27.22.532,Simcolourproject_2stim_asymm_v5,2020.2.10,Win32,60,61025ae37ef11b136ea224fe,,,,,,,,,879,56,-100,1,0,0,response3disk,,4,27,7,1,0,0,rectangle,27,7,1,0,0,27,7,1,0,0,0,42,42,57,1,,,,,,,,
,,,,,,,,,,,,,FF,,,,,,,,0.8505,,,,,,,,,,,,,,,,,,,,,,610344869928e5cbcc7ebf23,610370897388e7c156ebdc44,2021-07-30_00h27.22.532,Simcolourproject_2stim_asymm_v5,2020.2.10,Win32,60,61025ae37ef11b136ea224fe,,,,,,,,,887,-84,-42,1,0,0,response5disk,,2,4,-7,1,0,0,rectangle,4,-7,1,0,0,4,-7,1,0,0,0,43,43,126,1,,,,,,,,
,,,,,,,,,,,,,FF,,,,,,,,1.801,,,,,,,,,,,,,,,,,,,,,,610344869928e5cbcc7ebf23,610370897388e7c156ebdc44,2021-07-30_00h27.22.532,Simcolourproject_2stim_asymm_v5,2020.2.10,Win32,60,61025ae37ef11b136ea224fe,,,,,,,,,1165,87,49,1,0,0,response1disk,,6,30,-11,1,0,0,rectangle,30,-11,1,0,0,30,-11,1,0,0,0,44,44,0,1,,,,,,,,
,,,,,,,,,,,,,FF,,,,,,,,4.0364,,,,,,,,,,,,,,,,,,,,,,610344869928e5cbcc7ebf23,610370897388e7c156ebdc44,2021-07-30_00h27.22.532,Simcolourproject_2stim_asymm_v5,2020.2.10,Win32,60,61025ae37ef11b136ea224fe,,,,,,,,,4111,-55,-137,1,0,0,response5disk,,3,-20,16,1,0,0,rectangle,-20,16,1,0,0,-20,16,1,0,0,0,45,45,135,1,,,,,,,,
,,,,,,,,,,,,,FF,,,,,,,,1.0341,,,,,,,,,,,,,,,,,,,,,,610344869928e5cbcc7ebf23,610370897388e7c156ebdc44,2021-07-30_00h27.22.532,Simcolourproject_2stim_asymm_v5,2020.2.10,Win32,60,61025ae37ef11b136ea224fe,,,,,,,,,2704,101,-49,1,0,0,response3disk,,5,24,-4,1,0,0,rectangle,24,-4,1,0,0,24,-4,1,0,0,0,46,46,89,1,,,,,,,,
,,,,,,,,,,,,,FF,,,,,,,,1.0676,,,,,,,,,,,,,,,,,,,,,,610344869928e5cbcc7ebf23,610370897388e7c156ebdc44,2021-07-30_00h27.22.532,Simcolourproject_2stim_asymm_v5,2020.2.10,Win32,60,61025ae37ef11b136ea224fe,,,,,,,,,496,99,-51,1,0,0,response3disk,,5,-15,-7,1,0,0,rectangle,-15,-7,1,0,0,-15,-7,1,0,0,0,47,47,138,1,,,,,,,,
,,,,,,,,,,,,,FF,,,,,,,,3.0186,,,,,,,,,,,,,,,,,,,,,,610344869928e5cbcc7ebf23,610370897388e7c156ebdc44,2021-07-30_00h27.22.532,Simcolourproject_2stim_asymm_v5,2020.2.10,Win32,60,61025ae37ef11b136ea224fe,,,,,,,,,3166,105,47,1,0,0,response1disk,,6,-28,4,1,0,0,rectangle,-28,4,1,0,0,-28,4,1,0,0,0,48,48,120,1,,,,,,,,
,,,,,,,,,,,,,FF,,,,,,,,1.3514,,,,,,,,,,,,,,,,,,,,,,610344869928e5cbcc7ebf23,610370897388e7c156ebdc44,2021-07-30_00h27.22.532,Simcolourproject_2stim_asymm_v5,2020.2.10,Win32,60,61025ae37ef11b136ea224fe,,,,,,,,,670,130,59,1,0,0,response1disk,,6,16,2,1,0,0,rectangle,16,2,1,0,0,16,2,1,0,0,0,49,49,75,1,,,,,,,,
,,,,,,,,,,,,,FF,,,,,,,,2.7188,,,,,,,,,,,,,,,,,,,,,,610344869928e5cbcc7ebf23,610370897388e7c156ebdc44,2021-07-30_00h27.22.532,Simcolourproject_2stim_asymm_v5,2020.2.10,Win32,60,61025ae37ef11b136ea224fe,,,,,,,,,3838,126,76,1,0,0,response1disk,,6,14,4,1,0,0,rectangle,-62,-114,1,0,0,-16,2,1,0,0,0,50,50,21,1,,response5disk_3,TRUE,3,3,"[100,261,271,25,138,167,243,120,92,133,32,9,251,57,207,229,169,51,156,82]",1.919,rectangle
,,,,,,,,,,,,,FF,,,,,,,,2.9358,,,,,,,,,,,,,,,,,,,,,,610344869928e5cbcc7ebf23,610370897388e7c156ebdc44,2021-07-30_00h27.22.532,Simcolourproject_2stim_asymm_v5,2020.2.10,Win32,60,61025ae37ef11b136ea224fe,,,,,,,,,2792,-38,-130,1,0,0,response5disk,,3,-8,1,1,0,0,rectangle,-8,1,1,0,0,-8,1,1,0,0,0,51,51,61,1,,,,,,,,
,,,,,,,,,,,,,FF,,,,,,,,2.8523,,,,,,,,,,,,,,,,,,,,,,610344869928e5cbcc7ebf23,610370897388e7c156ebdc44,2021-07-30_00h27.22.532,Simcolourproject_2stim_asymm_v5,2020.2.10,Win32,60,61025ae37ef11b136ea224fe,,,,,,,,,2130,127,-46,1,0,0,response3disk,,5,24,5,1,0,0,rectangle,24,5,1,0,0,24,5,1,0,0,0,52,52,56,1,,,,,,,,
,,,,,,,,,,,,,FF,,,,,,,,1.2172,,,,,,,,,,,,,,,,,,,,,,610344869928e5cbcc7ebf23,610370897388e7c156ebdc44,2021-07-30_00h27.22.532,Simcolourproject_2stim_asymm_v5,2020.2.10,Win32,60,61025ae37ef11b136ea224fe,,,,,,,,,1378,-54,-125,1,0,0,response5disk,,3,-6,2,1,0,0,rectangle,-6,2,1,0,0,-6,2,1,0,0,0,53,53,77,1,,,,,,,,
,,,,,,,,,,,,,FF,,,,,,,,1.7008,,,,,,,,,,,,,,,,,,,,,,610344869928e5cbcc7ebf23,610370897388e7c156ebdc44,2021-07-30_00h27.22.532,Simcolourproject_2stim_asymm_v5,2020.2.10,Win32,60,61025ae37ef11b136ea224fe,,,,,,,,,3044,127,55,1,0,0,response1disk,,6,25,-11,1,0,0,rectangle,25,-11,1,0,0,25,-11,1,0,0,0,54,54,122,1,,,,,,,,
,,,,,,,,,,,,,FF,,,,,,,,1.1348,,,,,,,,,,,,,,,,,,,,,,610344869928e5cbcc7ebf23,610370897388e7c156ebdc44,2021-07-30_00h27.22.532,Simcolourproject_2stim_asymm_v5,2020.2.10,Win32,60,61025ae37ef11b136ea224fe,,,,,,,,,3092,-50,-114,1,0,0,response5disk,,3,8,8,1,0,0,rectangle,8,8,1,0,0,8,8,1,0,0,0,55,55,143,1,,,,,,,,
,,,,,,,,,,,,,FF,,,,,,,,0.8009,,,,,,,,,,,,,,,,,,,,,,610344869928e5cbcc7ebf23,610370897388e7c156ebdc44,2021-07-30_00h27.22.532,Simcolourproject_2stim_asymm_v5,2020.2.10,Win32,60,61025ae37ef11b136ea224fe,,,,,,,,,2427,-45,-65,1,0,0,response5disk,,3,-20,9,1,0,0,rectangle,129,43,1,0,0,22,-3,1,0,0,0,56,56,45,1,,response1disk_3,TRUE,6,6,"[100,261,271,25,138,167,243,120,92,133,32,9,251,57,207,229,169,51,156,82]",1.6342,rectangle
,,,,,,,,,,,,,FF,,,,,,,,1.3846,,,,,,,,,,,,,,,,,,,,,,610344869928e5cbcc7ebf23,610370897388e7c156ebdc44,2021-07-30_00h27.22.532,Simcolourproject_2stim_asymm_v5,2020.2.10,Win32,60,61025ae37ef11b136ea224fe,,,,,,,,,2625,126,41,1,0,0,response1disk,,6,-10,1,1,0,0,rectangle,-10,1,1,0,0,-10,1,1,0,0,0,57,57,2,1,,,,,,,,
,,,,,,,,,,,,,FF,,,,,,,,1.7514,,,,,,,,,,,,,,,,,,,,,,610344869928e5cbcc7ebf23,610370897388e7c156ebdc44,2021-07-30_00h27.22.532,Simcolourproject_2stim_asymm_v5,2020.2.10,Win32,60,61025ae37ef11b136ea224fe,,,,,,,,,383,56,109,1,0,0,response1disk,,7,20,8,1,0,0,rectangle,20,8,1,0,0,20,8,1,0,0,0,58,58,86,1,,,,,,,,
,,,,,,,,,,,,,FF,,,,,,,,0.901,,,,,,,,,,,,,,,,,,,,,,610344869928e5cbcc7ebf23,610370897388e7c156ebdc44,2021-07-30_00h27.22.532,Simcolourproject_2stim_asymm_v5,2020.2.10,Win32,60,61025ae37ef11b136ea224fe,,,,,,,,,3350,-50,-89,1,0,0,response5disk,,3,-7,14,1,0,0,rectangle,-7,14,1,0,0,-7,14,1,0,0,0,59,59,29,1,,,,,,,,
,,,,,,,,,,,,,FF,,,,,,,,2.3353,,,,,,,,,,,,,,,,,,,,,,610344869928e5cbcc7ebf23,610370897388e7c156ebdc44,2021-07-30_00h27.22.532,Simcolourproject_2stim_asymm_v5,2020.2.10,Win32,60,61025ae37ef11b136ea224fe,,,,,,,,,2885,83,107,1,0,0,response1disk,,7,3,1,1,0,0,rectangle,3,1,1,0,0,3,1,1,0,0,0,60,60,154,1,,,,,,,,
,,,,,,,,,,,,,FF,,,,,,,,0.7509,,,,,,,,,,,,,,,,,,,,,,610344869928e5cbcc7ebf23,610370897388e7c156ebdc44,2021-07-30_00h27.22.532,Simcolourproject_2stim_asymm_v5,2020.2.10,Win32,60,61025ae37ef11b136ea224fe,,,,,,,,,3513,-65,-84,1,0,0,response5disk,,3,-15,15,1,0,0,rectangle,-15,15,1,0,0,-15,15,1,0,0,0,61,61,93,1,,,,,,,,
,,,,,,,,,,,,,FF,,,,,,,,1.1839,,,,,,,,,,,,,,,,,,,,,,610344869928e5cbcc7ebf23,610370897388e7c156ebdc44,2021-07-30_00h27.22.532,Simcolourproject_2stim_asymm_v5,2020.2.10,Win32,60,61025ae37ef11b136ea224fe,,,,,,,,,222,59,-92,1,0,0,response3disk,,4,24,19,1,0,0,rectangle,24,19,1,0,0,24,19,1,0,0,0,62,62,7,1,,,,,,,,
,,,,,,,,,,,,,FF,,,,,,,,1.0341,,,,,,,,,,,,,,,,,,,,,,610344869928e5cbcc7ebf23,610370897388e7c156ebdc44,2021-07-30_00h27.22.532,Simcolourproject_2stim_asymm_v5,2020.2.10,Win32,60,61025ae37ef11b136ea224fe,,,,,,,,,176,76,98,1,0,0,response1disk,,7,13,2,1,0,0,rectangle,13,2,1,0,0,13,2,1,0,0,0,63,63,50,1,,,,,,,,
,,,,,,,,,,,,,FF,,,,,,,,0.9171,,,,,,,,,,,,,,,,,,,,,,610344869928e5cbcc7ebf23,610370897388e7c156ebdc44,2021-07-30_00h27.22.532,Simcolourproject_2stim_asymm_v5,2020.2.10,Win32,60,61025ae37ef11b136ea224fe,,,,,,,,,3152,-40,-102,1,0,0,response5disk,,3,-9,0,1,0,0,rectangle,-9,0,1,0,0,-9,0,1,0,0,0,64,64,115,1,,,,,,,,
,,,,,,,,,,,,,FF,,,,,,,,0.7822,,,,,,,,,,,,,,,,,,,,,,610344869928e5cbcc7ebf23,610370897388e7c156ebdc44,2021-07-30_00h27.22.532,Simcolourproject_2stim_asymm_v5,2020.2.10,Win32,60,61025ae37ef11b136ea224fe,,,,,,,,,3510,-76,122,1,0,0,response7disk,,0,-4,2,1,0,0,rectangle,-4,2,1,0,0,-4,2,1,0,0,0,65,65,49,1,,,,,,,,
,,,,,,,,,,,,,FF,,,,,,,,1.6013,,,,,,,,,,,,,,,,,,,,,,610344869928e5cbcc7ebf23,610370897388e7c156ebdc44,2021-07-30_00h27.22.532,Simcolourproject_2stim_asymm_v5,2020.2.10,Win32,60,61025ae37ef11b136ea224fe,,,,,,,,,1446,-85,40,1,0,0,response7disk,,1,-40,13,1,0,0,rectangle,-40,13,1,0,0,-40,13,1,0,0,0,66,66,103,1,,,,,,,,
,,,,,,,,,,,,,FF,,,,,,,,1.2671,,,,,,,,,,,,,,,,,,,,,,610344869928e5cbcc7ebf23,610370897388e7c156ebdc44,2021-07-30_00h27.22.532,Simcolourproject_2stim_asymm_v5,2020.2.10,Win32,60,61025ae37ef11b136ea224fe,,,,,,,,,1899,-87,-37,1,0,0,response5disk,,2,-38,3,1,0,0,rectangle,-38,3,1,0,0,-38,3,1,0,0,0,67,67,148,1,,,,,,,,
,,,,,,,,,,,,,FF,,,,,,,,1.9009,,,,,,,,,,,,,,,,,,,,,,610344869928e5cbcc7ebf23,610370897388e7c156ebdc44,2021-07-30_00h27.22.532,Simcolourproject_2stim_asymm_v5,2020.2.10,Win32,60,61025ae37ef11b136ea224fe,,,,,,,,,1742,-34,-93,1,0,0,response5disk,,3,7,4,1,0,0,rectangle,7,4,1,0,0,7,4,1,0,0,0,68,68,152,1,,,,,,,,
,,,,,,,,,,,,,FF,,,,,,,,1.2815,,,,,,,,,,,,,,,,,,,,,,610344869928e5cbcc7ebf23,610370897388e7c156ebdc44,2021-07-30_00h27.22.532,Simcolourproject_2stim_asymm_v5,2020.2.10,Win32,60,61025ae37ef11b136ea224fe,,,,,,,,,2559,66,-82,1,0,0,response3disk,,4,36,0,1,0,0,rectangle,36,0,1,0,0,36,0,1,0,0,0,69,69,124,1,,,,,,,,
,,,,,,,,,,,,,FF,,,,,,,,0.9835,,,,,,,,,,,,,,,,,,,,,,610344869928e5cbcc7ebf23,610370897388e7c156ebdc44,2021-07-30_00h27.22.532,Simcolourproject_2stim_asymm_v5,2020.2.10,Win32,60,61025ae37ef11b136ea224fe,,,,,,,,,1263,124,-61,1,0,0,response3disk,,5,28,3,1,0,0,rectangle,28,3,1,0,0,28,3,1,0,0,0,70,70,113,1,,,,,,,,
,,,,,,,,,,,,,FF,,,,,,,,1.067,,,,,,,,,,,,,,,,,,,,,,610344869928e5cbcc7ebf23,610370897388e7c156ebdc44,2021-07-30_00h27.22.532,Simcolourproject_2stim_asymm_v5,2020.2.10,Win32,60,61025ae37ef11b136ea224fe,,,,,,,,,1724,88,56,1,0,0,response1disk,,6,4,3,1,0,0,rectangle,4,3,1,0,0,4,3,1,0,0,0,71,71,54,1,,,,,,,,
,,,,,,,,,,,,,FF,,,,,,,,0.7669,,,,,,,,,,,,,,,,,,,,,,610344869928e5cbcc7ebf23,610370897388e7c156ebdc44,2021-07-30_00h27.22.532,Simcolourproject_2stim_asymm_v5,2020.2.10,Win32,60,61025ae37ef11b136ea224fe,,,,,,,,,2819,38,98,1,0,0,response1disk,,7,10,-17,1,0,0,rectangle,10,-17,1,0,0,10,-17,1,0,0,0,72,72,106,1,,,,,,,,
,,,,,,,,,,,,,FF,,,,,,,,1.1305,,,,,,,,,,,,,,,,,,,,,,610344869928e5cbcc7ebf23,610370897388e7c156ebdc44,2021-07-30_00h27.22.532,Simcolourproject_2stim_asymm_v5,2020.2.10,Win32,60,61025ae37ef11b136ea224fe,,,,,,,,,403,40,87,1,0,0,response1disk,,7,21,5,1,0,0,rectangle,21,5,1,0,0,21,5,1,0,0,0,73,73,47,1,,,,,,,,
,,,,,,,,,,,,,FF,,,,,,,,0.9675,,,,,,,,,,,,,,,,,,,,,,610344869928e5cbcc7ebf23,610370897388e7c156ebdc44,2021-07-30_00h27.22.532,Simcolourproject_2stim_asymm_v5,2020.2.10,Win32,60,61025ae37ef11b136ea224fe,,,,,,,,,2947,-72,-59,1,0,0,response5disk,,2,-19,10,1,0,0,rectangle,-19,10,1,0,0,-19,10,1,0,0,0,74,74,147,1,,,,,,,,
,,,,,,,,,,,,,FF,,,,,,,,1.1201,,,,,,,,,,,,,,,,,,,,,,610344869928e5cbcc7ebf23,610370897388e7c156ebdc44,2021-07-30_00h27.22.532,Simcolourproject_2stim_asymm_v5,2020.2.10,Win32,60,61025ae37ef11b136ea224fe,,,,,,,,,1333,107,-73,1,0,0,response3disk,,5,14,6,1,0,0,rectangle,14,6,1,0,0,14,6,1,0,0,0,75,75,158,1,,,,,,,,
,,,,,,,,,,,,,FF,,,,,,,,0.8503,,,,,,,,,,,,,,,,,,,,,,610344869928e5cbcc7ebf23,610370897388e7c156ebdc44,2021-07-30_00h27.22.532,Simcolourproject_2stim_asymm_v5,2020.2.10,Win32,60,61025ae37ef11b136ea224fe,,,,,,,,,815,-57,-69,1,0,0,response5disk,,3,-32,6,1,0,0,rectangle,-32,6,1,0,0,-32,6,1,0,0,0,76,76,68,1,,,,,,,,
,,,,,,,,,,,,,FF,,,,,,,,1.8182,,,,,,,,,,,,,,,,,,,,,,610344869928e5cbcc7ebf23,610370897388e7c156ebdc44,2021-07-30_00h27.22.532,Simcolourproject_2stim_asymm_v5,2020.2.10,Win32,60,61025ae37ef11b136ea224fe,,,,,,,,,4262,109,-32,1,0,0,response3disk,,5,42,10,1,0,0,rectangle,42,10,1,0,0,42,10,1,0,0,0,77,77,121,1,,,,,,,,
,,,,,,,,,,,,,FF,,,,,,,,1.2342,,,,,,,,,,,,,,,,,,,,,,610344869928e5cbcc7ebf23,610370897388e7c156ebdc44,2021-07-30_00h27.22.532,Simcolourproject_2stim_asymm_v5,2020.2.10,Win32,60,61025ae37ef11b136ea224fe,,,,,,,,,3305,-38,-110,1,0,0,response5disk,,3,10,14,1,0,0,rectangle,10,14,1,0,0,10,14,1,0,0,0,78,78,28,1,,,,,,,,
,,,,,,,,,,,,,FF,,,,,,,,1.1346,,,,,,,,,,,,,,,,,,,,,,610344869928e5cbcc7ebf23,610370897388e7c156ebdc44,2021-07-30_00h27.22.532,Simcolourproject_2stim_asymm_v5,2020.2.10,Win32,60,61025ae37ef11b136ea224fe,,,,,,,,,297,119,65,1,0,0,response1disk,,6,17,-2,1,0,0,rectangle,17,-2,1,0,0,17,-2,1,0,0,0,79,79,100,1,,,,,,,,
,,,,,,,,,,,,,FF,,,,,,,,0.8842,,,,,,,,,,,,,,,,,,,,,,610344869928e5cbcc7ebf23,610370897388e7c156ebdc44,2021-07-30_00h27.22.532,Simcolourproject_2stim_asymm_v5,2020.2.10,Win32,60,61025ae37ef11b136ea224fe,,,,,,,,,3708,-102,-39,1,0,0,response5disk,,2,-16,7,1,0,0,rectangle,-16,7,1,0,0,-16,7,1,0,0,0,80,80,119,1,,,,,,,,
,,,,,,,,,,,,,FF,,,,,,,,1.9345,,,,,,,,,,,,,,,,,,,,,,610344869928e5cbcc7ebf23,610370897388e7c156ebdc44,2021-07-30_00h27.22.532,Simcolourproject_2stim_asymm_v5,2020.2.10,Win32,60,61025ae37ef11b136ea224fe,,,,,,,,,623,109,68,1,0,0,response1disk,,6,14,2,1,0,0,rectangle,36,-101,1,0,0,17,-6,1,0,0,0,81,81,51,1,,response3disk_3,TRUE,4,4,"[100,261,271,25,138,167,243,120,92,133,32,9,251,57,207,229,169,51,156,82]",2.4349,rectangle
,,,,,,,,,,,,,FF,,,,,,,,3.1692,,,,,,,,,,,,,,,,,,,,,,610344869928e5cbcc7ebf23,610370897388e7c156ebdc44,2021-07-30_00h27.22.532,Simcolourproject_2stim_asymm_v5,2020.2.10,Win32,60,61025ae37ef11b136ea224fe,,,,,,,,,172,-136,-37,1,0,0,response5disk,,2,-20,21,1,0,0,rectangle,-20,21,1,0,0,-20,21,1,0,0,0,82,82,99,1,,,,,,,,
,,,,,,,,,,,,,FF,,,,,,,,1.6847,,,,,,,,,,,,,,,,,,,,,,610344869928e5cbcc7ebf23,610370897388e7c156ebdc44,2021-07-30_00h27.22.532,Simcolourproject_2stim_asymm_v5,2020.2.10,Win32,60,61025ae37ef11b136ea224fe,,,,,,,,,3206,-28,-99,1,0,0,response5disk,,3,13,0,1,0,0,rectangle,13,0,1,0,0,13,0,1,0,0,0,83,83,105,1,,,,,,,,
,,,,,,,,,,,,,FF,,,,,,,,1.5678,,,,,,,,,,,,,,,,,,,,,,610344869928e5cbcc7ebf23,610370897388e7c156ebdc44,2021-07-30_00h27.22.532,Simcolourproject_2stim_asymm_v5,2020.2.10,Win32,60,61025ae37ef11b136ea224fe,,,,,,,,,1347,61,-78,1,0,0,response3disk,,4,27,6,1,0,0,rectangle,27,6,1,0,0,27,6,1,0,0,0,84,84,136,1,,,,,,,,
,,,,,,,,,,,,,FF,,,,,,,,1.9852,,,,,,,,,,,,,,,,,,,,,,610344869928e5cbcc7ebf23,610370897388e7c156ebdc44,2021-07-30_00h27.22.532,Simcolourproject_2stim_asymm_v5,2020.2.10,Win32,60,61025ae37ef11b136ea224fe,,,,,,,,,4076,-123,-47,1,0,0,response5disk,,2,39,-10,1,0,0,rectangle,39,-10,1,0,0,39,-10,1,0,0,0,85,85,11,1,,,,,,,,
,,,,,,,,,,,,,FF,,,,,,,,2.2678,,,,,,,,,,,,,,,,,,,,,,610344869928e5cbcc7ebf23,610370897388e7c156ebdc44,2021-07-30_00h27.22.532,Simcolourproject_2stim_asymm_v5,2020.2.10,Win32,60,61025ae37ef11b136ea224fe,,,,,,,,,2188,-41,-79,1,0,0,response5disk,,3,27,-6,1,0,0,rectangle,27,-6,1,0,0,27,-6,1,0,0,0,86,86,3,1,,,,,,,,
,,,,,,,,,,,,,FF,,,,,,,,1.8178,,,,,,,,,,,,,,,,,,,,,,610344869928e5cbcc7ebf23,610370897388e7c156ebdc44,2021-07-30_00h27.22.532,Simcolourproject_2stim_asymm_v5,2020.2.10,Win32,60,61025ae37ef11b136ea224fe,,,,,,,,,4243,52,-91,1,0,0,response3disk,,4,20,7,1,0,0,rectangle,20,7,1,0,0,20,7,1,0,0,0,87,87,149,1,,,,,,,,
,,,,,,,,,,,,,FF,,,,,,,,2.452,,,,,,,,,,,,,,,,,,,,,,610344869928e5cbcc7ebf23,610370897388e7c156ebdc44,2021-07-30_00h27.22.532,Simcolourproject_2stim_asymm_v5,2020.2.10,Win32,60,61025ae37ef11b136ea224fe,,,,,,,,,61,41,-75,1,0,0,response3disk,,4,19,1,1,0,0,rectangle,19,1,1,0,0,19,1,1,0,0,0,88,88,39,1,,,,,,,,
,,,,,,,,,,,,,FF,,,,,,,,1.7514,,,,,,,,,,,,,,,,,,,,,,610344869928e5cbcc7ebf23,610370897388e7c156ebdc44,2021-07-30_00h27.22.532,Simcolourproject_2stim_asymm_v5,2020.2.10,Win32,60,61025ae37ef11b136ea224fe,,,,,,,,,2074,41,90,1,0,0,response1disk,,7,1,-7,1,0,0,rectangle,1,-7,1,0,0,1,-7,1,0,0,0,89,89,44,1,,,,,,,,
,,,,,,,,,,,,,FF,,,,,,,,2.5521,,,,,,,,,,,,,,,,,,,,,,610344869928e5cbcc7ebf23,610370897388e7c156ebdc44,2021-07-30_00h27.22.532,Simcolourproject_2stim_asymm_v5,2020.2.10,Win32,60,61025ae37ef11b136ea224fe,,,,,,,,,1089,101,-77,1,0,0,response3disk,,5,39,-9,1,0,0,rectangle,39,-9,1,0,0,39,-9,1,0,0,0,90,90,101,1,,,,,,,,
,,,,,,,,,,,,,FF,,,,,,,,1.8701,,,,,,,,,,,,,,,,,,,,,,610344869928e5cbcc7ebf23,610370897388e7c156ebdc44,2021-07-30_00h27.22.532,Simcolourproject_2stim_asymm_v5,2020.2.10,Win32,60,61025ae37ef11b136ea224fe,,,,,,,,,1240,67,-33,1,0,0,response3disk,,5,26,-8,1,0,0,rectangle,-64,-117,1,0,0,-27,-1,1,0,0,0,91,91,31,1,,response5disk_3,TRUE,3,3,"[100,261,271,25,138,167,243,120,92,133,32,9,251,57,207,229,169,51,156,82]",1.5173,rectangle
,,,,,,,,,,,,,FF,,,,,,,,1.134,,,,,,,,,,,,,,,,,,,,,,610344869928e5cbcc7ebf23,610370897388e7c156ebdc44,2021-07-30_00h27.22.532,Simcolourproject_2stim_asymm_v5,2020.2.10,Win32,60,61025ae37ef11b136ea224fe,,,,,,,,,3720,-29,-53,1,0,0,response5disk,,3,37,-10,1,0,0,rectangle,37,-10,1,0,0,37,-10,1,0,0,0,92,92,110,1,,,,,,,,
,,,,,,,,,,,,,FF,,,,,,,,1.1677,,,,,,,,,,,,,,,,,,,,,,610344869928e5cbcc7ebf23,610370897388e7c156ebdc44,2021-07-30_00h27.22.532,Simcolourproject_2stim_asymm_v5,2020.2.10,Win32,60,61025ae37ef11b136ea224fe,,,,,,,,,699,-96,-52,1,0,0,response5disk,,2,-12,1,1,0,0,rectangle,-12,1,1,0,0,-12,1,1,0,0,0,93,93,40,1,,,,,,,,
,,,,,,,,,,,,,FF,,,,,,,,2.1346,,,,,,,,,,,,,,,,,,,,,,610344869928e5cbcc7ebf23,610370897388e7c156ebdc44,2021-07-30_00h27.22.532,Simcolourproject_2stim_asymm_v5,2020.2.10,Win32,60,61025ae37ef11b136ea224fe,,,,,,,,,3165,67,-109,1,0,0,response3disk,,4,28,6,1,0,0,rectangle,28,6,1,0,0,28,6,1,0,0,0,94,94,139,1,,,,,,,,
,,,,,,,,,,,,,FF,,,,,,,,1.2009,,,,,,,,,,,,,,,,,,,,,,610344869928e5cbcc7ebf23,610370897388e7c156ebdc44,2021-07-30_00h27.22.532,Simcolourproject_2stim_asymm_v5,2020.2.10,Win32,60,61025ae37ef11b136ea224fe,,,,,,,,,123,119,51,1,0,0,response1disk,,6,14,-1,1,0,0,rectangle,14,-1,1,0,0,14,-1,1,0,0,0,95,95,78,1,,,,,,,,
,,,,,,,,,,,,,FF,,,,,,,,0.6836,,,,,,,,,,,,,,,,,,,,,,610344869928e5cbcc7ebf23,610370897388e7c156ebdc44,2021-07-30_00h27.22.532,Simcolourproject_2stim_asymm_v5,2020.2.10,Win32,60,61025ae37ef11b136ea224fe,,,,,,,,,121,124,52,1,0,0,response1disk,,6,17,11,1,0,0,rectangle,17,11,1,0,0,17,11,1,0,0,0,96,96,27,1,,,,,,,,
,,,,,,,,,,,,,FF,,,,,,,,1.9513,,,,,,,,,,,,,,,,,,,,,,610344869928e5cbcc7ebf23,610370897388e7c156ebdc44,2021-07-30_00h27.22.532,Simcolourproject_2stim_asymm_v5,2020.2.10,Win32,60,61025ae37ef11b136ea224fe,,,,,,,,,4332,46,133,1,0,0,response1disk,,7,12,2,1,0,0,rectangle,12,2,1,0,0,12,2,1,0,0,0,97,97,132,1,,,,,,,,
,,,,,,,,,,,,,FF,,,,,,,,0.9342,,,,,,,,,,,,,,,,,,,,,,610344869928e5cbcc7ebf23,610370897388e7c156ebdc44,2021-07-30_00h27.22.532,Simcolourproject_2stim_asymm_v5,2020.2.10,Win32,60,61025ae37ef11b136ea224fe,,,,,,,,,2238,-94,-41,1,0,0,response5disk,,2,-22,6,1,0,0,rectangle,-22,6,1,0,0,-22,6,1,0,0,0,98,98,127,1,,,,,,,,
,,,,,,,,,,,,,FF,,,,,,,,1.5344,,,,,,,,,,,,,,,,,,,,,,610344869928e5cbcc7ebf23,610370897388e7c156ebdc44,2021-07-30_00h27.22.532,Simcolourproject_2stim_asymm_v5,2020.2.10,Win32,60,61025ae37ef11b136ea224fe,,,,,,,,,1456,-76,-57,1,0,0,response5disk,,2,-20,-11,1,0,0,rectangle,65,106,1,0,0,-21,5,1,0,0,0,99,99,25,1,,response1disk_3,TRUE,7,7,"[100,261,271,25,138,167,243,120,92,133,32,9,251,57,207,229,169,51,156,82]",2.0513,rectangle
,,,,,,,,,,,,,FF,,,,,,,,1.2843,,,,,,,,,,,,,,,,,,,,,,610344869928e5cbcc7ebf23,610370897388e7c156ebdc44,2021-07-30_00h27.22.532,Simcolourproject_2stim_asymm_v5,2020.2.10,Win32,60,61025ae37ef11b136ea224fe,,,,,,,,,1173,120,58,1,0,0,response1disk,,6,-3,4,1,0,0,rectangle,-3,4,1,0,0,-3,4,1,0,0,0,100,100,43,1,,,,,,,,
,,,,,,,,,,,,,FF,,,,,,,,2.285,,,,,,,,,,,,,,,,,,,,,,610344869928e5cbcc7ebf23,610370897388e7c156ebdc44,2021-07-30_00h27.22.532,Simcolourproject_2stim_asymm_v5,2020.2.10,Win32,60,61025ae37ef11b136ea224fe,,,,,,,,,3036,135,48,1,0,0,response1disk,,6,8,-1,1,0,0,rectangle,8,-1,1,0,0,8,-1,1,0,0,0,101,101,157,1,,,,,,,,
,,,,,,,,,,,,,FF,,,,,,,,2.0349,,,,,,,,,,,,,,,,,,,,,,610344869928e5cbcc7ebf23,610370897388e7c156ebdc44,2021-07-30_00h27.22.532,Simcolourproject_2stim_asymm_v5,2020.2.10,Win32,60,61025ae37ef11b136ea224fe,,,,,,,,,3986,101,-49,1,0,0,response3disk,,5,34,-5,1,0,0,rectangle,34,-5,1,0,0,34,-5,1,0,0,0,102,102,153,1,,,,,,,,
,,,,,,,,,,,,,FF,,,,,,,,1.8177,,,,,,,,,,,,,,,,,,,,,,610344869928e5cbcc7ebf23,610370897388e7c156ebdc44,2021-07-30_00h27.22.532,Simcolourproject_2stim_asymm_v5,2020.2.10,Win32,60,61025ae37ef11b136ea224fe,,,,,,,,,710,84,35,1,0,0,response1disk,,6,-12,-6,1,0,0,rectangle,-12,-6,1,0,0,-12,-6,1,0,0,0,103,103,23,1,,,,,,,,
,,,,,,,,,,,,,FF,,,,,,,,3.252,,,,,,,,,,,,,,,,,,,,,,610344869928e5cbcc7ebf23,610370897388e7c156ebdc44,2021-07-30_00h27.22.532,Simcolourproject_2stim_asymm_v5,2020.2.10,Win32,60,61025ae37ef11b136ea224fe,,,,,,,,,3271,54,101,1,0,0,response1disk,,7,25,0,1,0,0,rectangle,25,0,1,0,0,25,0,1,0,0,0,104,104,60,1,,,,,,,,
,,,,,,,,,,,,,FF,,,,,,,,1.0842,,,,,,,,,,,,,,,,,,,,,,610344869928e5cbcc7ebf23,610370897388e7c156ebdc44,2021-07-30_00h27.22.532,Simcolourproject_2stim_asymm_v5,2020.2.10,Win32,60,61025ae37ef11b136ea224fe,,,,,,,,,2388,64,81,1,0,0,response1disk,,7,13,0,1,0,0,rectangle,13,0,1,0,0,13,0,1,0,0,0,105,105,95,1,,,,,,,,
,,,,,,,,,,,,,FF,,,,,,,,1.2678,,,,,,,,,,,,,,,,,,,,,,610344869928e5cbcc7ebf23,610370897388e7c156ebdc44,2021-07-30_00h27.22.532,Simcolourproject_2stim_asymm_v5,2020.2.10,Win32,60,61025ae37ef11b136ea224fe,,,,,,,,,677,116,-67,1,0,0,response3disk,,5,40,-13,1,0,0,rectangle,40,-13,1,0,0,40,-13,1,0,0,0,106,106,97,1,,,,,,,,
,,,,,,,,,,,,,FF,,,,,,,,0.9669,,,,,,,,,,,,,,,,,,,,,,610344869928e5cbcc7ebf23,610370897388e7c156ebdc44,2021-07-30_00h27.22.532,Simcolourproject_2stim_asymm_v5,2020.2.10,Win32,60,61025ae37ef11b136ea224fe,,,,,,,,,2913,90,47,1,0,0,response1disk,,6,-12,-13,1,0,0,rectangle,-12,-13,1,0,0,-12,-13,1,0,0,0,107,107,107,1,,,,,,,,
,,,,,,,,,,,,,FF,,,,,,,,1.0502,,,,,,,,,,,,,,,,,,,,,,610344869928e5cbcc7ebf23,610370897388e7c156ebdc44,2021-07-30_00h27.22.532,Simcolourproject_2stim_asymm_v5,2020.2.10,Win32,60,61025ae37ef11b136ea224fe,,,,,,,,,1239,-66,-91,1,0,0,response5disk,,3,3,-6,1,0,0,rectangle,3,-6,1,0,0,3,-6,1,0,0,0,108,108,112,1,,,,,,,,
,,,,,,,,,,,,,FF,,,,,,,,0.7173,,,,,,,,,,,,,,,,,,,,,,610344869928e5cbcc7ebf23,610370897388e7c156ebdc44,2021-07-30_00h27.22.532,Simcolourproject_2stim_asymm_v5,2020.2.10,Win32,60,61025ae37ef11b136ea224fe,,,,,,,,,4171,-102,-54,1,0,0,response5disk,,2,-22,-7,1,0,0,rectangle,-22,-7,1,0,0,-22,-7,1,0,0,0,109,109,12,1,,,,,,,,
,,,,,,,,,,,,,FF,,,,,,,,0.7,,,,,,,,,,,,,,,,,,,,,,610344869928e5cbcc7ebf23,610370897388e7c156ebdc44,2021-07-30_00h27.22.532,Simcolourproject_2stim_asymm_v5,2020.2.10,Win32,60,61025ae37ef11b136ea224fe,,,,,,,,,2026,-94,61,1,0,0,response7disk,,1,-13,-6,1,0,0,rectangle,-13,-6,1,0,0,-13,-6,1,0,0,0,110,110,84,1,,,,,,,,
,,,,,,,,,,,,,FF,,,,,,,,1.0002,,,,,,,,,,,,,,,,,,,,,,610344869928e5cbcc7ebf23,610370897388e7c156ebdc44,2021-07-30_00h27.22.532,Simcolourproject_2stim_asymm_v5,2020.2.10,Win32,60,61025ae37ef11b136ea224fe,,,,,,,,,3020,45,-91,1,0,0,response3disk,,4,11,-9,1,0,0,rectangle,11,-9,1,0,0,11,-9,1,0,0,0,111,111,159,1,,,,,,,,
,,,,,,,,,,,,,FF,,,,,,,,2.4518,,,,,,,,,,,,,,,,,,,,,,610344869928e5cbcc7ebf23,610370897388e7c156ebdc44,2021-07-30_00h27.22.532,Simcolourproject_2stim_asymm_v5,2020.2.10,Win32,60,61025ae37ef11b136ea224fe,,,,,,,,,3162,96,-46,1,0,0,response3disk,,5,33,-18,1,0,0,rectangle,33,-18,1,0,0,33,-18,1,0,0,0,112,112,142,1,,,,,,,,
,,,,,,,,,,,,,FF,,,,,,,,0.9008,,,,,,,,,,,,,,,,,,,,,,610344869928e5cbcc7ebf23,610370897388e7c156ebdc44,2021-07-30_00h27.22.532,Simcolourproject_2stim_asymm_v5,2020.2.10,Win32,60,61025ae37ef11b136ea224fe,,,,,,,,,4012,94,47,1,0,0,response1disk,,6,3,4,1,0,0,rectangle,3,4,1,0,0,3,4,1,0,0,0,113,113,22,1,,,,,,,,
,,,,,,,,,,,,,FF,,,,,,,,1.5341,,,,,,,,,,,,,,,,,,,,,,610344869928e5cbcc7ebf23,610370897388e7c156ebdc44,2021-07-30_00h27.22.532,Simcolourproject_2stim_asymm_v5,2020.2.10,Win32,60,61025ae37ef11b136ea224fe,,,,,,,,,2259,67,-113,1,0,0,response3disk,,4,-7,9,1,0,0,rectangle,-7,9,1,0,0,-7,9,1,0,0,0,114,114,58,1,,,,,,,,
,,,,,,,,,,,,,FF,,,,,,,,0.7066,,,,,,,,,,,,,,,,,,,,,,610344869928e5cbcc7ebf23,610370897388e7c156ebdc44,2021-07-30_00h27.22.532,Simcolourproject_2stim_asymm_v5,2020.2.10,Win32,60,61025ae37ef11b136ea224fe,,,,,,,,,720,-100,71,1,0,0,response7disk,,1,-12,2,1,0,0,rectangle,-12,2,1,0,0,-12,2,1,0,0,0,115,115,36,1,,,,,,,,
,,,,,,,,,,,,,FF,,,,,,,,1.7517,,,,,,,,,,,,,,,,,,,,,,610344869928e5cbcc7ebf23,610370897388e7c156ebdc44,2021-07-30_00h27.22.532,Simcolourproject_2stim_asymm_v5,2020.2.10,Win32,60,61025ae37ef11b136ea224fe,,,,,,,,,1808,-104,-67,1,0,0,response5disk,,2,-18,-14,1,0,0,rectangle,-18,-14,1,0,0,-18,-14,1,0,0,0,116,116,66,1,,,,,,,,
,,,,,,,,,,,,,FF,,,,,,,,0.8678,,,,,,,,,,,,,,,,,,,,,,610344869928e5cbcc7ebf23,610370897388e7c156ebdc44,2021-07-30_00h27.22.532,Simcolourproject_2stim_asymm_v5,2020.2.10,Win32,60,61025ae37ef11b136ea224fe,,,,,,,,,824,-99,-45,1,0,0,response5disk,,2,-10,-8,1,0,0,rectangle,-10,-8,1,0,0,-10,-8,1,0,0,0,117,117,140,1,,,,,,,,
,,,,,,,,,,,,,FF,,,,,,,,1.1674,,,,,,,,,,,,,,,,,,,,,,610344869928e5cbcc7ebf23,610370897388e7c156ebdc44,2021-07-30_00h27.22.532,Simcolourproject_2stim_asymm_v5,2020.2.10,Win32,60,61025ae37ef11b136ea224fe,,,,,,,,,2705,67,89,1,0,0,response1disk,,7,-43,11,1,0,0,rectangle,-43,11,1,0,0,-43,11,1,0,0,0,118,118,5,1,,,,,,,,
,,,,,,,,,,,,,FF,,,,,,,,1.3494,,,,,,,,,,,,,,,,,,,,,,610344869928e5cbcc7ebf23,610370897388e7c156ebdc44,2021-07-30_00h27.22.532,Simcolourproject_2stim_asymm_v5,2020.2.10,Win32,60,61025ae37ef11b136ea224fe,,,,,,,,,889,-116,-49,1,0,0,response5disk,,2,-30,2,1,0,0,rectangle,126,-57,1,0,0,9,8,1,0,0,0,119,119,80,1,,response3disk_3,TRUE,5,5,"[100,261,271,25,138,167,243,120,92,133,32,9,251,57,207,229,169,51,156,82]",2.2342,rectangle
,,,,,,,,,,,,,FF,,,,,,,,1.869,,,,,,,,,,,,,,,,,,,,,,610344869928e5cbcc7ebf23,610370897388e7c156ebdc44,2021-07-30_00h27.22.532,Simcolourproject_2stim_asymm_v5,2020.2.10,Win32,60,61025ae37ef11b136ea224fe,,,,,,,,,4056,121,68,1,0,0,response1disk,,6,-20,-1,1,0,0,rectangle,-20,-1,1,0,0,-20,-1,1,0,0,0,120,120,24,1,,,,,,,,
,,,,,,,,,,,,,FF,,,,,,,,1.8686,,,,,,,,,,,,,,,,,,,,,,610344869928e5cbcc7ebf23,610370897388e7c156ebdc44,2021-07-30_00h27.22.532,Simcolourproject_2stim_asymm_v5,2020.2.10,Win32,60,61025ae37ef11b136ea224fe,,,,,,,,,2254,124,-60,1,0,0,response3disk,,5,9,-4,1,0,0,rectangle,9,-4,1,0,0,9,-4,1,0,0,0,121,121,35,1,,,,,,,,
,,,,,,,,,,,,,FF,,,,,,,,1.8849,,,,,,,,,,,,,,,,,,,,,,610344869928e5cbcc7ebf23,610370897388e7c156ebdc44,2021-07-30_00h27.22.532,Simcolourproject_2stim_asymm_v5,2020.2.10,Win32,60,61025ae37ef11b136ea224fe,,,,,,,,,730,-55,-83,1,0,0,response5disk,,3,7,1,1,0,0,rectangle,7,1,1,0,0,7,1,1,0,0,0,122,122,83,1,,,,,,,,
,,,,,,,,,,,,,FF,,,,,,,,1.0176,,,,,,,,,,,,,,,,,,,,,,610344869928e5cbcc7ebf23,610370897388e7c156ebdc44,2021-07-30_00h27.22.532,Simcolourproject_2stim_asymm_v5,2020.2.10,Win32,60,61025ae37ef11b136ea224fe,,,,,,,,,3216,107,64,1,0,0,response1disk,,6,16,-5,1,0,0,rectangle,16,-5,1,0,0,16,-5,1,0,0,0,123,123,30,1,,,,,,,,
,,,,,,,,,,,,,FF,,,,,,,,1.4177,,,,,,,,,,,,,,,,,,,,,,610344869928e5cbcc7ebf23,610370897388e7c156ebdc44,2021-07-30_00h27.22.532,Simcolourproject_2stim_asymm_v5,2020.2.10,Win32,60,61025ae37ef11b136ea224fe,,,,,,,,,1179,131,46,1,0,0,response1disk,,6,16,0,1,0,0,rectangle,16,0,1,0,0,16,0,1,0,0,0,124,124,96,1,,,,,,,,
,,,,,,,,,,,,,FF,,,,,,,,0.8506,,,,,,,,,,,,,,,,,,,,,,610344869928e5cbcc7ebf23,610370897388e7c156ebdc44,2021-07-30_00h27.22.532,Simcolourproject_2stim_asymm_v5,2020.2.10,Win32,60,61025ae37ef11b136ea224fe,,,,,,,,,3062,52,69,1,0,0,response1disk,,7,11,-3,1,0,0,rectangle,11,-3,1,0,0,11,-3,1,0,0,0,125,125,94,1,,,,,,,,
,,,,,,,,,,,,,FF,,,,,,,,1.0679,,,,,,,,,,,,,,,,,,,,,,610344869928e5cbcc7ebf23,610370897388e7c156ebdc44,2021-07-30_00h27.22.532,Simcolourproject_2stim_asymm_v5,2020.2.10,Win32,60,61025ae37ef11b136ea224fe,,,,,,,,,1453,-72,-63,1,0,0,response5disk,,2,-4,10,1,0,0,rectangle,-4,10,1,0,0,-4,10,1,0,0,0,126,126,118,1,,,,,,,,
,,,,,,,,,,,,,FF,,,,,,,,1.0671,,,,,,,,,,,,,,,,,,,,,,610344869928e5cbcc7ebf23,610370897388e7c156ebdc44,2021-07-30_00h27.22.532,Simcolourproject_2stim_asymm_v5,2020.2.10,Win32,60,61025ae37ef11b136ea224fe,,,,,,,,,2385,125,39,1,0,0,response1disk,,6,7,-6,1,0,0,rectangle,7,-6,1,0,0,7,-6,1,0,0,0,127,127,109,1,,,,,,,,
,,,,,,,,,,,,,FF,,,,,,,,0.7506,,,,,,,,,,,,,,,,,,,,,,610344869928e5cbcc7ebf23,610370897388e7c156ebdc44,2021-07-30_00h27.22.532,Simcolourproject_2stim_asymm_v5,2020.2.10,Win32,60,61025ae37ef11b136ea224fe,,,,,,,,,4316,-50,89,1,0,0,response7disk,,0,-31,-2,1,0,0,rectangle,-31,-2,1,0,0,-31,-2,1,0,0,0,128,128,20,1,,,,,,,,
,,,,,,,,,,,,,FF,,,,,,,,1.5677,,,,,,,,,,,,,,,,,,,,,,610344869928e5cbcc7ebf23,610370897388e7c156ebdc44,2021-07-30_00h27.22.532,Simcolourproject_2stim_asymm_v5,2020.2.10,Win32,60,61025ae37ef11b136ea224fe,,,,,,,,,4108,-81,-66,1,0,0,response5disk,,2,-11,-1,1,0,0,rectangle,-11,-1,1,0,0,-11,-1,1,0,0,0,129,129,85,1,,,,,,,,
,,,,,,,,,,,,,FF,,,,,,,,1.1175,,,,,,,,,,,,,,,,,,,,,,610344869928e5cbcc7ebf23,610370897388e7c156ebdc44,2021-07-30_00h27.22.532,Simcolourproject_2stim_asymm_v5,2020.2.10,Win32,60,61025ae37ef11b136ea224fe,,,,,,,,,3648,87,-61,1,0,0,response3disk,,5,14,-2,1,0,0,rectangle,14,-2,1,0,0,14,-2,1,0,0,0,130,130,144,1,,,,,,,,
,,,,,,,,,,,,,FF,,,,,,,,0.8338,,,,,,,,,,,,,,,,,,,,,,610344869928e5cbcc7ebf23,610370897388e7c156ebdc44,2021-07-30_00h27.22.532,Simcolourproject_2stim_asymm_v5,2020.2.10,Win32,60,61025ae37ef11b136ea224fe,,,,,,,,,615,-75,-33,1,0,0,response5disk,,2,-27,0,1,0,0,rectangle,-27,0,1,0,0,-27,0,1,0,0,0,131,131,150,1,,,,,,,,
,,,,,,,,,,,,,FF,,,,,,,,1.5841,,,,,,,,,,,,,,,,,,,,,,610344869928e5cbcc7ebf23,610370897388e7c156ebdc44,2021-07-30_00h27.22.532,Simcolourproject_2stim_asymm_v5,2020.2.10,Win32,60,61025ae37ef11b136ea224fe,,,,,,,,,3264,47,-82,1,0,0,response3disk,,4,6,8,1,0,0,rectangle,-52,112,1,0,0,-13,-1,1,0,0,0,132,132,129,1,,response7disk_3,TRUE,0,0,"[100,261,271,25,138,167,243,120,92,133,32,9,251,57,207,229,169,51,156,82]",1.2337,rectangle
,,,,,,,,,,,,,FF,,,,,,,,2.285,,,,,,,,,,,,,,,,,,,,,,610344869928e5cbcc7ebf23,610370897388e7c156ebdc44,2021-07-30_00h27.22.532,Simcolourproject_2stim_asymm_v5,2020.2.10,Win32,60,61025ae37ef11b136ea224fe,,,,,,,,,1194,128,-69,1,0,0,response3disk,,5,33,-4,1,0,0,rectangle,33,-4,1,0,0,33,-4,1,0,0,0,133,133,1,1,,,,,,,,
,,,,,,,,,,,,,FF,,,,,,,,1.9849,,,,,,,,,,,,,,,,,,,,,,610344869928e5cbcc7ebf23,610370897388e7c156ebdc44,2021-07-30_00h27.22.532,Simcolourproject_2stim_asymm_v5,2020.2.10,Win32,60,61025ae37ef11b136ea224fe,,,,,,,,,4018,85,-106,1,0,0,response3disk,,4,38,-1,1,0,0,rectangle,38,-1,1,0,0,38,-1,1,0,0,0,134,134,70,1,,,,,,,,
,,,,,,,,,,,,,FF,,,,,,,,2.252,,,,,,,,,,,,,,,,,,,,,,610344869928e5cbcc7ebf23,610370897388e7c156ebdc44,2021-07-30_00h27.22.532,Simcolourproject_2stim_asymm_v5,2020.2.10,Win32,60,61025ae37ef11b136ea224fe,,,,,,,,,2520,76,-127,1,0,0,response3disk,,4,18,1,1,0,0,rectangle,18,1,1,0,0,18,1,1,0,0,0,135,135,137,1,,,,,,,,
,,,,,,,,,,,,,FF,,,,,,,,2.1017,,,,,,,,,,,,,,,,,,,,,,610344869928e5cbcc7ebf23,610370897388e7c156ebdc44,2021-07-30_00h27.22.532,Simcolourproject_2stim_asymm_v5,2020.2.10,Win32,60,61025ae37ef11b136ea224fe,,,,,,,,,3122,36,-78,1,0,0,response3disk,,4,-1,-13,1,0,0,rectangle,-1,-13,1,0,0,-1,-13,1,0,0,0,136,136,26,1,,,,,,,,
,,,,,,,,,,,,,FF,,,,,,,,4.6869,,,,,,,,,,,,,,,,,,,,,,610344869928e5cbcc7ebf23,610370897388e7c156ebdc44,2021-07-30_00h27.22.532,Simcolourproject_2stim_asymm_v5,2020.2.10,Win32,60,61025ae37ef11b136ea224fe,,,,,,,,,1863,67,-105,1,0,0,response3disk,,4,-23,4,1,0,0,rectangle,95,-45,1,0,0,5,8,1,0,0,0,137,137,4,1,,response3disk_3,TRUE,5,5,"[100,261,271,25,138,167,243,120,92,133,32,9,251,57,207,229,169,51,156,82]",1.2504,rectangle
,,,,,,,,,,,,,FF,,,,,,,,1.0002,,,,,,,,,,,,,,,,,,,,,,610344869928e5cbcc7ebf23,610370897388e7c156ebdc44,2021-07-30_00h27.22.532,Simcolourproject_2stim_asymm_v5,2020.2.10,Win32,60,61025ae37ef11b136ea224fe,,,,,,,,,4172,132,53,1,0,0,response1disk,,6,19,7,1,0,0,rectangle,19,7,1,0,0,19,7,1,0,0,0,138,138,33,1,,,,,,,,
,,,,,,,,,,,,,FF,,,,,,,,1.2842,,,,,,,,,,,,,,,,,,,,,,610344869928e5cbcc7ebf23,610370897388e7c156ebdc44,2021-07-30_00h27.22.532,Simcolourproject_2stim_asymm_v5,2020.2.10,Win32,60,61025ae37ef11b136ea224fe,,,,,,,,,35,113,56,1,0,0,response1disk,,6,16,4,1,0,0,rectangle,16,4,1,0,0,16,4,1,0,0,0,139,139,92,1,,,,,,,,
,,,,,,,,,,,,,FF,,,,,,,,1.1506,,,,,,,,,,,,,,,,,,,,,,610344869928e5cbcc7ebf23,610370897388e7c156ebdc44,2021-07-30_00h27.22.532,Simcolourproject_2stim_asymm_v5,2020.2.10,Win32,60,61025ae37ef11b136ea224fe,,,,,,,,,3382,-86,57,1,0,0,response7disk,,1,-12,-8,1,0,0,rectangle,-12,-8,1,0,0,-12,-8,1,0,0,0,140,140,42,1,,,,,,,,
,,,,,,,,,,,,,FF,,,,,,,,1.2679,,,,,,,,,,,,,,,,,,,,,,610344869928e5cbcc7ebf23,610370897388e7c156ebdc44,2021-07-30_00h27.22.532,Simcolourproject_2stim_asymm_v5,2020.2.10,Win32,60,61025ae37ef11b136ea224fe,,,,,,,,,1576,107,-64,1,0,0,response3disk,,5,9,2,1,0,0,rectangle,9,2,1,0,0,9,2,1,0,0,0,141,141,123,1,,,,,,,,
,,,,,,,,,,,,,FF,,,,,,,,2.2003,,,,,,,,,,,,,,,,,,,,,,610344869928e5cbcc7ebf23,610370897388e7c156ebdc44,2021-07-30_00h27.22.532,Simcolourproject_2stim_asymm_v5,2020.2.10,Win32,60,61025ae37ef11b136ea224fe,,,,,,,,,3023,97,-22,1,0,0,response3disk,,5,20,3,1,0,0,rectangle,20,3,1,0,0,20,3,1,0,0,0,142,142,74,1,,,,,,,,
,,,,,,,,,,,,,FF,,,,,,,,1.1008,,,,,,,,,,,,,,,,,,,,,,610344869928e5cbcc7ebf23,610370897388e7c156ebdc44,2021-07-30_00h27.22.532,Simcolourproject_2stim_asymm_v5,2020.2.10,Win32,60,61025ae37ef11b136ea224fe,,,,,,,,,591,106,-43,1,0,0,response3disk,,5,31,-2,1,0,0,rectangle,31,-2,1,0,0,31,-2,1,0,0,0,143,143,37,1,,,,,,,,
,,,,,,,,,,,,,FF,,,,,,,,0.8175,,,,,,,,,,,,,,,,,,,,,,610344869928e5cbcc7ebf23,610370897388e7c156ebdc44,2021-07-30_00h27.22.532,Simcolourproject_2stim_asymm_v5,2020.2.10,Win32,60,61025ae37ef11b136ea224fe,,,,,,,,,1222,-118,-60,1,0,0,response5disk,,2,11,0,1,0,0,rectangle,11,0,1,0,0,11,0,1,0,0,0,144,144,59,1,,,,,,,,
,,,,,,,,,,,,,FF,,,,,,,,0.8839,,,,,,,,,,,,,,,,,,,,,,610344869928e5cbcc7ebf23,610370897388e7c156ebdc44,2021-07-30_00h27.22.532,Simcolourproject_2stim_asymm_v5,2020.2.10,Win32,60,61025ae37ef11b136ea224fe,,,,,,,,,2007,128,52,1,0,0,response1disk,,6,7,5,1,0,0,rectangle,7,5,1,0,0,7,5,1,0,0,0,145,145,73,1,,,,,,,,
,,,,,,,,,,,,,FF,,,,,,,,0.7675,,,,,,,,,,,,,,,,,,,,,,610344869928e5cbcc7ebf23,610370897388e7c156ebdc44,2021-07-30_00h27.22.532,Simcolourproject_2stim_asymm_v5,2020.2.10,Win32,60,61025ae37ef11b136ea224fe,,,,,,,,,587,100,56,1,0,0,response1disk,,6,20,9,1,0,0,rectangle,20,9,1,0,0,20,9,1,0,0,0,146,146,87,1,,,,,,,,
,,,,,,,,,,,,,FF,,,,,,,,1.8349,,,,,,,,,,,,,,,,,,,,,,610344869928e5cbcc7ebf23,610370897388e7c156ebdc44,2021-07-30_00h27.22.532,Simcolourproject_2stim_asymm_v5,2020.2.10,Win32,60,61025ae37ef11b136ea224fe,,,,,,,,,2668,-106,49,1,0,0,response7disk,,1,0,-11,1,0,0,rectangle,0,-11,1,0,0,0,-11,1,0,0,0,147,147,88,1,,,,,,,,
,,,,,,,,,,,,,FF,,,,,,,,1.6345,,,,,,,,,,,,,,,,,,,,,,610344869928e5cbcc7ebf23,610370897388e7c156ebdc44,2021-07-30_00h27.22.532,Simcolourproject_2stim_asymm_v5,2020.2.10,Win32,60,61025ae37ef11b136ea224fe,,,,,,,,,308,137,48,1,0,0,response1disk,,6,11,-6,1,0,0,rectangle,11,-6,1,0,0,11,-6,1,0,0,0,148,148,117,1,,,,,,,,
,,,,,,,,,,,,,FF,,,,,,,,1.318,,,,,,,,,,,,,,,,,,,,,,610344869928e5cbcc7ebf23,610370897388e7c156ebdc44,2021-07-30_00h27.22.532,Simcolourproject_2stim_asymm_v5,2020.2.10,Win32,60,61025ae37ef11b136ea224fe,,,,,,,,,1271,100,-45,1,0,0,response3disk,,5,-16,18,1,0,0,rectangle,-16,18,1,0,0,-16,18,1,0,0,0,149,149,64,1,,,,,,,,
,,,,,,,,,,,,,FF,,,,,,,,0.8508,,,,,,,,,,,,,,,,,,,,,,610344869928e5cbcc7ebf23,610370897388e7c156ebdc44,2021-07-30_00h27.22.532,Simcolourproject_2stim_asymm_v5,2020.2.10,Win32,60,61025ae37ef11b136ea224fe,,,,,,,,,165,-98,-21,1,0,0,response5disk,,2,12,-5,1,0,0,rectangle,12,-5,1,0,0,12,-5,1,0,0,0,150,150,6,1,,,,,,,,
,,,,,,,,,,,,,FF,,,,,,,,1.0505,,,,,,,,,,,,,,,,,,,,,,610344869928e5cbcc7ebf23,610370897388e7c156ebdc44,2021-07-30_00h27.22.532,Simcolourproject_2stim_asymm_v5,2020.2.10,Win32,60,61025ae37ef11b136ea224fe,,,,,,,,,4208,-76,37,1,0,0,response7disk,,1,-24,3,1,0,0,rectangle,-24,3,1,0,0,-24,3,1,0,0,0,151,151,62,1,,,,,,,,
,,,,,,,,,,,,,FF,,,,,,,,1.1159,,,,,,,,,,,,,,,,,,,,,,610344869928e5cbcc7ebf23,610370897388e7c156ebdc44,2021-07-30_00h27.22.532,Simcolourproject_2stim_asymm_v5,2020.2.10,Win32,60,61025ae37ef11b136ea224fe,,,,,,,,,2195,106,-49,1,0,0,response3disk,,5,25,-14,1,0,0,rectangle,25,-14,1,0,0,25,-14,1,0,0,0,152,152,18,1,,,,,,,,
,,,,,,,,,,,,,FF,,,,,,,,0.7005,,,,,,,,,,,,,,,,,,,,,,610344869928e5cbcc7ebf23,610370897388e7c156ebdc44,2021-07-30_00h27.22.532,Simcolourproject_2stim_asymm_v5,2020.2.10,Win32,60,61025ae37ef11b136ea224fe,,,,,,,,,3088,-103,59,1,0,0,response7disk,,1,-35,2,1,0,0,rectangle,-35,2,1,0,0,-35,2,1,0,0,0,153,153,19,1,,,,,,,,
,,,,,,,,,,,,,FF,,,,,,,,1.3672,,,,,,,,,,,,,,,,,,,,,,610344869928e5cbcc7ebf23,610370897388e7c156ebdc44,2021-07-30_00h27.22.532,Simcolourproject_2stim_asymm_v5,2020.2.10,Win32,60,61025ae37ef11b136ea224fe,,,,,,,,,1003,33,-92,1,0,0,response3disk,,4,10,5,1,0,0,rectangle,10,5,1,0,0,10,5,1,0,0,0,154,154,48,1,,,,,,,,
,,,,,,,,,,,,,FF,,,,,,,,1.434,,,,,,,,,,,,,,,,,,,,,,610344869928e5cbcc7ebf23,610370897388e7c156ebdc44,2021-07-30_00h27.22.532,Simcolourproject_2stim_asymm_v5,2020.2.10,Win32,60,61025ae37ef11b136ea224fe,,,,,,,,,115,44,-86,1,0,0,response3disk,,4,17,5,1,0,0,rectangle,73,96,1,0,0,24,3,1,0,0,0,155,155,133,1,,response1disk_3,TRUE,7,7,"[100,261,271,25,138,167,243,120,92,133,32,9,251,57,207,229,169,51,156,82]",1.8177,rectangle
,,,,,,,,,,,,,FF,,,,,,,,1.2012,,,,,,,,,,,,,,,,,,,,,,610344869928e5cbcc7ebf23,610370897388e7c156ebdc44,2021-07-30_00h27.22.532,Simcolourproject_2stim_asymm_v5,2020.2.10,Win32,60,61025ae37ef11b136ea224fe,,,,,,,,,685,80,-43,1,0,0,response3disk,,5,29,11,1,0,0,rectangle,29,11,1,0,0,29,11,1,0,0,0,156,156,14,1,,,,,,,,
,,,,,,,,,,,,,FF,,,,,,,,1.8346,,,,,,,,,,,,,,,,,,,,,,610344869928e5cbcc7ebf23,610370897388e7c156ebdc44,2021-07-30_00h27.22.532,Simcolourproject_2stim_asymm_v5,2020.2.10,Win32,60,61025ae37ef11b136ea224fe,,,,,,,,,2151,102,-48,1,0,0,response3disk,,5,5,15,1,0,0,rectangle,5,15,1,0,0,5,15,1,0,0,0,157,157,79,1,,,,,,,,
,,,,,,,,,,,,,FF,,,,,,,,0.9509,,,,,,,,,,,,,,,,,,,,,,610344869928e5cbcc7ebf23,610370897388e7c156ebdc44,2021-07-30_00h27.22.532,Simcolourproject_2stim_asymm_v5,2020.2.10,Win32,60,61025ae37ef11b136ea224fe,,,,,,,,,2442,133,-48,1,0,0,response3disk,,5,10,12,1,0,0,rectangle,10,12,1,0,0,10,12,1,0,0,0,158,158,131,1,,,,,,,,
,,,,,,,,,,,,,FF,,,,,,,,1.1015,,,,,,,,,,,,,,,,,,,,,,610344869928e5cbcc7ebf23,610370897388e7c156ebdc44,2021-07-30_00h27.22.532,Simcolourproject_2stim_asymm_v5,2020.2.10,Win32,60,61025ae37ef11b136ea224fe,,,,,,,,,2780,-106,33,1,0,0,response7disk,,1,3,-3,1,0,0,rectangle,3,-3,1,0,0,3,-3,1,0,0,0,159,159,111,1,,,,,,,,
,,,,,,,,,,,,,FF,,,,,,,,1.9183,,,,,,,,,,,,,,,,,,,,,,610344869928e5cbcc7ebf23,610370897388e7c156ebdc44,2021-07-30_00h27.22.532,Simcolourproject_2stim_asymm_v5,2020.2.10,Win32,60,61025ae37ef11b136ea224fe,,,,,,,,,1585,-64,-108,1,0,0,response5disk,,3,19,1,1,0,0,rectangle,19,1,1,0,0,19,1,1,0,0,1,0,160,16,1,,,,,,,,
,,,,,,,,,,,,,FF,,,,,,,,0.7673,,,,,,,,,,,,,,,,,,,,,,610344869928e5cbcc7ebf23,610370897388e7c156ebdc44,2021-07-30_00h27.22.532,Simcolourproject_2stim_asymm_v5,2020.2.10,Win32,60,61025ae37ef11b136ea224fe,,,,,,,,,285,-42,-70,1,0,0,response5disk,,3,-8,-8,1,0,0,rectangle,-8,-8,1,0,0,-8,-8,1,0,0,1,1,161,150,1,,,,,,,,
,,,,,,,,,,,,,FF,,,,,,,,1.2009,,,,,,,,,,,,,,,,,,,,,,610344869928e5cbcc7ebf23,610370897388e7c156ebdc44,2021-07-30_00h27.22.532,Simcolourproject_2stim_asymm_v5,2020.2.10,Win32,60,61025ae37ef11b136ea224fe,,,,,,,,,3933,-78,-32,1,0,0,response5disk,,2,-18,13,1,0,0,rectangle,-18,13,1,0,0,-18,13,1,0,0,1,2,162,123,1,,,,,,,,
,,,,,,,,,,,,,FF,,,,,,,,1.1005,,,,,,,,,,,,,,,,,,,,,,610344869928e5cbcc7ebf23,610370897388e7c156ebdc44,2021-07-30_00h27.22.532,Simcolourproject_2stim_asymm_v5,2020.2.10,Win32,60,61025ae37ef11b136ea224fe,,,,,,,,,2916,73,-116,1,0,0,response3disk,,4,38,15,1,0,0,rectangle,38,15,1,0,0,38,15,1,0,0,1,3,163,119,1,,,,,,,,
,,,,,,,,,,,,,FF,,,,,,,,1.2008,,,,,,,,,,,,,,,,,,,,,,610344869928e5cbcc7ebf23,610370897388e7c156ebdc44,2021-07-30_00h27.22.532,Simcolourproject_2stim_asymm_v5,2020.2.10,Win32,60,61025ae37ef11b136ea224fe,,,,,,,,,2519,89,117,1,0,0,response1disk,,7,2,9,1,0,0,rectangle,2,9,1,0,0,2,9,1,0,0,1,4,164,36,1,,,,,,,,
,,,,,,,,,,,,,FF,,,,,,,,2.9522,,,,,,,,,,,,,,,,,,,,,,610344869928e5cbcc7ebf23,610370897388e7c156ebdc44,2021-07-30_00h27.22.532,Simcolourproject_2stim_asymm_v5,2020.2.10,Win32,60,61025ae37ef11b136ea224fe,,,,,,,,,3874,80,39,1,0,0,response1disk,,6,-11,6,1,0,0,rectangle,-11,6,1,0,0,-11,6,1,0,0,1,5,165,35,1,,,,,,,,
,,,,,,,,,,,,,FF,,,,,,,,0.9174,,,,,,,,,,,,,,,,,,,,,,610344869928e5cbcc7ebf23,610370897388e7c156ebdc44,2021-07-30_00h27.22.532,Simcolourproject_2stim_asymm_v5,2020.2.10,Win32,60,61025ae37ef11b136ea224fe,,,,,,,,,2636,85,57,1,0,0,response1disk,,6,33,-1,1,0,0,rectangle,-35,117,1,0,0,0,-7,1,0,0,1,6,166,82,1,,response7disk_3,TRUE,0,0,"[100,261,271,25,138,167,243,120,92,133,32,9,251,57,207,229,169,51,156,82]",1.5344,rectangle
,,,,,,,,,,,,,FF,,,,,,,,0.7672,,,,,,,,,,,,,,,,,,,,,,610344869928e5cbcc7ebf23,610370897388e7c156ebdc44,2021-07-30_00h27.22.532,Simcolourproject_2stim_asymm_v5,2020.2.10,Win32,60,61025ae37ef11b136ea224fe,,,,,,,,,3503,-103,57,1,0,0,response7disk,,1,-17,8,1,0,0,rectangle,-17,8,1,0,0,-17,8,1,0,0,1,7,167,153,1,,,,,,,,
,,,,,,,,,,,,,FF,,,,,,,,2.0682,,,,,,,,,,,,,,,,,,,,,,610344869928e5cbcc7ebf23,610370897388e7c156ebdc44,2021-07-30_00h27.22.532,Simcolourproject_2stim_asymm_v5,2020.2.10,Win32,60,61025ae37ef11b136ea224fe,,,,,,,,,3840,-53,-82,1,0,0,response5disk,,3,-37,-12,1,0,0,rectangle,-31,83,1,0,0,-5,12,1,0,0,1,8,168,37,1,,response7disk_3,TRUE,0,0,"[100,261,271,25,138,167,243,120,92,133,32,9,251,57,207,229,169,51,156,82]",1.1338,rectangle
,,,,,,,,,,,,,FF,,,,,,,,1.8346,,,,,,,,,,,,,,,,,,,,,,610344869928e5cbcc7ebf23,610370897388e7c156ebdc44,2021-07-30_00h27.22.532,Simcolourproject_2stim_asymm_v5,2020.2.10,Win32,60,61025ae37ef11b136ea224fe,,,,,,,,,410,146,-66,1,0,0,response3disk,,5,13,1,1,0,0,rectangle,13,1,1,0,0,13,1,1,0,0,1,9,169,11,1,,,,,,,,
,,,,,,,,,,,,,FF,,,,,,,,1.401,,,,,,,,,,,,,,,,,,,,,,610344869928e5cbcc7ebf23,610370897388e7c156ebdc44,2021-07-30_00h27.22.532,Simcolourproject_2stim_asymm_v5,2020.2.10,Win32,60,61025ae37ef11b136ea224fe,,,,,,,,,3208,72,-95,1,0,0,response3disk,,4,16,11,1,0,0,rectangle,16,11,1,0,0,16,11,1,0,0,1,10,170,143,1,,,,,,,,
,,,,,,,,,,,,,FF,,,,,,,,2.4018,,,,,,,,,,,,,,,,,,,,,,610344869928e5cbcc7ebf23,610370897388e7c156ebdc44,2021-07-30_00h27.22.532,Simcolourproject_2stim_asymm_v5,2020.2.10,Win32,60,61025ae37ef11b136ea224fe,,,,,,,,,1355,28,-66,1,0,0,response3disk,,4,9,-3,1,0,0,rectangle,9,-3,1,0,0,9,-3,1,0,0,1,11,171,147,1,,,,,,,,
,,,,,,,,,,,,,FF,,,,,,,,0.8177,,,,,,,,,,,,,,,,,,,,,,610344869928e5cbcc7ebf23,610370897388e7c156ebdc44,2021-07-30_00h27.22.532,Simcolourproject_2stim_asymm_v5,2020.2.10,Win32,60,61025ae37ef11b136ea224fe,,,,,,,,,3699,-42,-65,1,0,0,response5disk,,3,-19,-10,1,0,0,rectangle,-19,-10,1,0,0,-19,-10,1,0,0,1,12,172,111,1,,,,,,,,
,,,,,,,,,,,,,FF,,,,,,,,0.9506,,,,,,,,,,,,,,,,,,,,,,610344869928e5cbcc7ebf23,610370897388e7c156ebdc44,2021-07-30_00h27.22.532,Simcolourproject_2stim_asymm_v5,2020.2.10,Win32,60,61025ae37ef11b136ea224fe,,,,,,,,,1757,-102,53,1,0,0,response7disk,,1,-28,3,1,0,0,rectangle,-28,3,1,0,0,-28,3,1,0,0,1,13,173,90,1,,,,,,,,
,,,,,,,,,,,,,FF,,,,,,,,1.9178,,,,,,,,,,,,,,,,,,,,,,610344869928e5cbcc7ebf23,610370897388e7c156ebdc44,2021-07-30_00h27.22.532,Simcolourproject_2stim_asymm_v5,2020.2.10,Win32,60,61025ae37ef11b136ea224fe,,,,,,,,,1025,45,-82,1,0,0,response3disk,,4,25,-15,1,0,0,rectangle,25,-15,1,0,0,25,-15,1,0,0,1,14,174,32,1,,,,,,,,
,,,,,,,,,,,,,FF,,,,,,,,2.4684,,,,,,,,,,,,,,,,,,,,,,610344869928e5cbcc7ebf23,610370897388e7c156ebdc44,2021-07-30_00h27.22.532,Simcolourproject_2stim_asymm_v5,2020.2.10,Win32,60,61025ae37ef11b136ea224fe,,,,,,,,,595,57,-94,1,0,0,response3disk,,4,37,-12,1,0,0,rectangle,37,-12,1,0,0,37,-12,1,0,0,1,15,175,20,1,,,,,,,,
,,,,,,,,,,,,,FF,,,,,,,,0.7674,,,,,,,,,,,,,,,,,,,,,,610344869928e5cbcc7ebf23,610370897388e7c156ebdc44,2021-07-30_00h27.22.532,Simcolourproject_2stim_asymm_v5,2020.2.10,Win32,60,61025ae37ef11b136ea224fe,,,,,,,,,3436,-82,57,1,0,0,response7disk,,1,-22,7,1,0,0,rectangle,-22,7,1,0,0,-22,7,1,0,0,1,16,176,117,1,,,,,,,,
,,,,,,,,,,,,,FF,,,,,,,,1.1175,,,,,,,,,,,,,,,,,,,,,,610344869928e5cbcc7ebf23,610370897388e7c156ebdc44,2021-07-30_00h27.22.532,Simcolourproject_2stim_asymm_v5,2020.2.10,Win32,60,61025ae37ef11b136ea224fe,,,,,,,,,2265,116,-53,1,0,0,response3disk,,5,42,5,1,0,0,rectangle,42,5,1,0,0,42,5,1,0,0,1,17,177,116,1,,,,,,,,
,,,,,,,,,,,,,FF,,,,,,,,1.3839,,,,,,,,,,,,,,,,,,,,,,610344869928e5cbcc7ebf23,610370897388e7c156ebdc44,2021-07-30_00h27.22.532,Simcolourproject_2stim_asymm_v5,2020.2.10,Win32,60,61025ae37ef11b136ea224fe,,,,,,,,,427,-90,-29,1,0,0,response5disk,,2,-37,2,1,0,0,rectangle,-37,2,1,0,0,-37,2,1,0,0,1,18,178,10,1,,,,,,,,
,,,,,,,,,,,,,FF,,,,,,,,1.2672,,,,,,,,,,,,,,,,,,,,,,610344869928e5cbcc7ebf23,610370897388e7c156ebdc44,2021-07-30_00h27.22.532,Simcolourproject_2stim_asymm_v5,2020.2.10,Win32,60,61025ae37ef11b136ea224fe,,,,,,,,,1948,106,-58,1,0,0,response3disk,,5,-3,2,1,0,0,rectangle,-3,2,1,0,0,-3,2,1,0,0,1,19,179,149,1,,,,,,,,
,,,,,,,,,,,,,FF,,,,,,,,1.7184,,,,,,,,,,,,,,,,,,,,,,610344869928e5cbcc7ebf23,610370897388e7c156ebdc44,2021-07-30_00h27.22.532,Simcolourproject_2stim_asymm_v5,2020.2.10,Win32,60,61025ae37ef11b136ea224fe,,,,,,,,,963,145,34,1,0,0,response1disk,,6,27,-8,1,0,0,rectangle,27,-8,1,0,0,27,-8,1,0,0,1,20,180,5,1,,,,,,,,
,,,,,,,,,,,,,FF,,,,,,,,1.2013,,,,,,,,,,,,,,,,,,,,,,610344869928e5cbcc7ebf23,610370897388e7c156ebdc44,2021-07-30_00h27.22.532,Simcolourproject_2stim_asymm_v5,2020.2.10,Win32,60,61025ae37ef11b136ea224fe,,,,,,,,,155,-77,45,1,0,0,response7disk,,1,-36,12,1,0,0,rectangle,-36,12,1,0,0,-36,12,1,0,0,1,21,181,2,1,,,,,,,,
,,,,,,,,,,,,,FF,,,,,,,,1.068,,,,,,,,,,,,,,,,,,,,,,610344869928e5cbcc7ebf23,610370897388e7c156ebdc44,2021-07-30_00h27.22.532,Simcolourproject_2stim_asymm_v5,2020.2.10,Win32,60,61025ae37ef11b136ea224fe,,,,,,,,,984,77,-51,1,0,0,response3disk,,5,20,1,1,0,0,rectangle,20,1,1,0,0,20,1,1,0,0,1,22,182,55,1,,,,,,,,
,,,,,,,,,,,,,FF,,,,,,,,1.5851,,,,,,,,,,,,,,,,,,,,,,610344869928e5cbcc7ebf23,610370897388e7c156ebdc44,2021-07-30_00h27.22.532,Simcolourproject_2stim_asymm_v5,2020.2.10,Win32,60,61025ae37ef11b136ea224fe,,,,,,,,,4099,-119,-29,1,0,0,response5disk,,2,16,-8,1,0,0,rectangle,16,-8,1,0,0,16,-8,1,0,0,1,23,183,54,1,,,,,,,,
,,,,,,,,,,,,,FF,,,,,,,,0.8004,,,,,,,,,,,,,,,,,,,,,,610344869928e5cbcc7ebf23,610370897388e7c156ebdc44,2021-07-30_00h27.22.532,Simcolourproject_2stim_asymm_v5,2020.2.10,Win32,60,61025ae37ef11b136ea224fe,,,,,,,,,946,148,40,1,0,0,response1disk,,6,14,4,1,0,0,rectangle,14,4,1,0,0,14,4,1,0,0,1,24,184,50,1,,,,,,,,
,,,,,,,,,,,,,FF,,,,,,,,1.4679,,,,,,,,,,,,,,,,,,,,,,610344869928e5cbcc7ebf23,610370897388e7c156ebdc44,2021-07-30_00h27.22.532,Simcolourproject_2stim_asymm_v5,2020.2.10,Win32,60,61025ae37ef11b136ea224fe,,,,,,,,,3576,101,42,1,0,0,response1disk,,6,7,-3,1,0,0,rectangle,7,-3,1,0,0,7,-3,1,0,0,1,25,185,41,1,,,,,,,,
,,,,,,,,,,,,,FF,,,,,,,,1.3846,,,,,,,,,,,,,,,,,,,,,,610344869928e5cbcc7ebf23,610370897388e7c156ebdc44,2021-07-30_00h27.22.532,Simcolourproject_2stim_asymm_v5,2020.2.10,Win32,60,61025ae37ef11b136ea224fe,,,,,,,,,2686,77,-104,1,0,0,response3disk,,4,36,5,1,0,0,rectangle,36,5,1,0,0,36,5,1,0,0,1,26,186,115,1,,,,,,,,
,,,,,,,,,,,,,FF,,,,,,,,2.1181,,,,,,,,,,,,,,,,,,,,,,610344869928e5cbcc7ebf23,610370897388e7c156ebdc44,2021-07-30_00h27.22.532,Simcolourproject_2stim_asymm_v5,2020.2.10,Win32,60,61025ae37ef11b136ea224fe,,,,,,,,,2678,-56,-119,1,0,0,response5disk,,3,-15,-1,1,0,0,rectangle,-15,-1,1,0,0,-15,-1,1,0,0,1,27,187,65,1,,,,,,,,
,,,,,,,,,,,,,FF,,,,,,,,11.3088,,,,,,,,,,,,,,,,,,,,,,610344869928e5cbcc7ebf23,610370897388e7c156ebdc44,2021-07-30_00h27.22.532,Simcolourproject_2stim_asymm_v5,2020.2.10,Win32,60,61025ae37ef11b136ea224fe,,,,,,,,,770,94,-112,1,0,0,response3disk,,4,-13,-7,1,0,0,rectangle,-13,-7,1,0,0,-13,-7,1,0,0,1,28,188,69,1,,,,,,,,
,,,,,,,,,,,,,FF,,,,,,,,1.0339,,,,,,,,,,,,,,,,,,,,,,610344869928e5cbcc7ebf23,610370897388e7c156ebdc44,2021-07-30_00h27.22.532,Simcolourproject_2stim_asymm_v5,2020.2.10,Win32,60,61025ae37ef11b136ea224fe,,,,,,,,,1295,-110,51,1,0,0,response7disk,,1,-30,0,1,0,0,rectangle,-30,0,1,0,0,-30,0,1,0,0,1,29,189,91,1,,,,,,,,
,,,,,,,,,,,,,FF,,,,,,,,0.8669,,,,,,,,,,,,,,,,,,,,,,610344869928e5cbcc7ebf23,610370897388e7c156ebdc44,2021-07-30_00h27.22.532,Simcolourproject_2stim_asymm_v5,2020.2.10,Win32,60,61025ae37ef11b136ea224fe,,,,,,,,,1420,62,-89,1,0,0,response3disk,,4,22,-4,1,0,0,rectangle,22,-4,1,0,0,22,-4,1,0,0,1,30,190,124,1,,,,,,,,
,,,,,,,,,,,,,FF,,,,,,,,0.7836,,,,,,,,,,,,,,,,,,,,,,610344869928e5cbcc7ebf23,610370897388e7c156ebdc44,2021-07-30_00h27.22.532,Simcolourproject_2stim_asymm_v5,2020.2.10,Win32,60,61025ae37ef11b136ea224fe,,,,,,,,,4335,-109,158,1,0,0,response7disk,,0,-30,17,1,0,0,rectangle,-30,17,1,0,0,-30,17,1,0,0,1,31,191,60,1,,,,,,,,
,,,,,,,,,,,,,FF,,,,,,,,1.1175,,,,,,,,,,,,,,,,,,,,,,610344869928e5cbcc7ebf23,610370897388e7c156ebdc44,2021-07-30_00h27.22.532,Simcolourproject_2stim_asymm_v5,2020.2.10,Win32,60,61025ae37ef11b136ea224fe,,,,,,,,,4297,60,-94,1,0,0,response3disk,,4,9,-7,1,0,0,rectangle,9,-7,1,0,0,9,-7,1,0,0,1,32,192,77,1,,,,,,,,
,,,,,,,,,,,,,FF,,,,,,,,1.8014,,,,,,,,,,,,,,,,,,,,,,610344869928e5cbcc7ebf23,610370897388e7c156ebdc44,2021-07-30_00h27.22.532,Simcolourproject_2stim_asymm_v5,2020.2.10,Win32,60,61025ae37ef11b136ea224fe,,,,,,,,,2630,133,44,1,0,0,response1disk,,6,29,7,1,0,0,rectangle,29,7,1,0,0,29,7,1,0,0,1,33,193,141,1,,,,,,,,
,,,,,,,,,,,,,FF,,,,,,,,1.6341,,,,,,,,,,,,,,,,,,,,,,610344869928e5cbcc7ebf23,610370897388e7c156ebdc44,2021-07-30_00h27.22.532,Simcolourproject_2stim_asymm_v5,2020.2.10,Win32,60,61025ae37ef11b136ea224fe,,,,,,,,,1439,-75,-89,1,0,0,response5disk,,3,-45,-1,1,0,0,rectangle,-45,-1,1,0,0,-45,-1,1,0,0,1,34,194,79,1,,,,,,,,
,,,,,,,,,,,,,FF,,,,,,,,1.0508,,,,,,,,,,,,,,,,,,,,,,610344869928e5cbcc7ebf23,610370897388e7c156ebdc44,2021-07-30_00h27.22.532,Simcolourproject_2stim_asymm_v5,2020.2.10,Win32,60,61025ae37ef11b136ea224fe,,,,,,,,,3552,-60,116,1,0,0,response7disk,,0,-28,4,1,0,0,rectangle,-28,4,1,0,0,-28,4,1,0,0,1,35,195,145,1,,,,,,,,
,,,,,,,,,,,,,FF,,,,,,,,0.8174,,,,,,,,,,,,,,,,,,,,,,610344869928e5cbcc7ebf23,610370897388e7c156ebdc44,2021-07-30_00h27.22.532,Simcolourproject_2stim_asymm_v5,2020.2.10,Win32,60,61025ae37ef11b136ea224fe,,,,,,,,,1833,-116,50,1,0,0,response7disk,,1,-34,11,1,0,0,rectangle,-34,11,1,0,0,-34,11,1,0,0,1,36,196,94,1,,,,,,,,
,,,,,,,,,,,,,FF,,,,,,,,1.0675,,,,,,,,,,,,,,,,,,,,,,610344869928e5cbcc7ebf23,610370897388e7c156ebdc44,2021-07-30_00h27.22.532,Simcolourproject_2stim_asymm_v5,2020.2.10,Win32,60,61025ae37ef11b136ea224fe,,,,,,,,,2034,-44,118,1,0,0,response7disk,,0,-15,9,1,0,0,rectangle,-15,9,1,0,0,-15,9,1,0,0,1,37,197,59,1,,,,,,,,
,,,,,,,,,,,,,FF,,,,,,,,0.6339,,,,,,,,,,,,,,,,,,,,,,610344869928e5cbcc7ebf23,610370897388e7c156ebdc44,2021-07-30_00h27.22.532,Simcolourproject_2stim_asymm_v5,2020.2.10,Win32,60,61025ae37ef11b136ea224fe,,,,,,,,,1956,-33,98,1,0,0,response7disk,,0,3,2,1,0,0,rectangle,3,2,1,0,0,3,2,1,0,0,1,38,198,64,1,,,,,,,,
,,,,,,,,,,,,,FF,,,,,,,,0.9508,,,,,,,,,,,,,,,,,,,,,,610344869928e5cbcc7ebf23,610370897388e7c156ebdc44,2021-07-30_00h27.22.532,Simcolourproject_2stim_asymm_v5,2020.2.10,Win32,60,61025ae37ef11b136ea224fe,,,,,,,,,588,50,-101,1,0,0,response3disk,,4,11,7,1,0,0,rectangle,11,7,1,0,0,11,7,1,0,0,1,39,199,134,1,,,,,,,,
,,,,,,,,,,,,,FF,,,,,,,,2.1683,,,,,,,,,,,,,,,,,,,,,,610344869928e5cbcc7ebf23,610370897388e7c156ebdc44,2021-07-30_00h27.22.532,Simcolourproject_2stim_asymm_v5,2020.2.10,Win32,60,61025ae37ef11b136ea224fe,,,,,,,,,2895,103,-58,1,0,0,response3disk,,5,0,4,1,0,0,rectangle,0,4,1,0,0,0,4,1,0,0,1,40,200,42,1,,,,,,,,
,,,,,,,,,,,,,FF,,,,,,,,1.1319,,,,,,,,,,,,,,,,,,,,,,610344869928e5cbcc7ebf23,610370897388e7c156ebdc44,2021-07-30_00h27.22.532,Simcolourproject_2stim_asymm_v5,2020.2.10,Win32,60,61025ae37ef11b136ea224fe,,,,,,,,,2644,94,56,1,0,0,response1disk,,6,4,7,1,0,0,rectangle,4,7,1,0,0,4,7,1,0,0,1,41,201,0,1,,,,,,,,
,,,,,,,,,,,,,FF,,,,,,,,1.3676,,,,,,,,,,,,,,,,,,,,,,610344869928e5cbcc7ebf23,610370897388e7c156ebdc44,2021-07-30_00h27.22.532,Simcolourproject_2stim_asymm_v5,2020.2.10,Win32,60,61025ae37ef11b136ea224fe,,,,,,,,,879,35,-87,1,0,0,response3disk,,4,12,2,1,0,0,rectangle,12,2,1,0,0,12,2,1,0,0,1,42,202,47,1,,,,,,,,
,,,,,,,,,,,,,FF,,,,,,,,0.784,,,,,,,,,,,,,,,,,,,,,,610344869928e5cbcc7ebf23,610370897388e7c156ebdc44,2021-07-30_00h27.22.532,Simcolourproject_2stim_asymm_v5,2020.2.10,Win32,60,61025ae37ef11b136ea224fe,,,,,,,,,887,-30,93,1,0,0,response7disk,,0,-3,0,1,0,0,rectangle,-3,0,1,0,0,-3,0,1,0,0,1,43,203,75,1,,,,,,,,
,,,,,,,,,,,,,FF,,,,,,,,1.2673,,,,,,,,,,,,,,,,,,,,,,610344869928e5cbcc7ebf23,610370897388e7c156ebdc44,2021-07-30_00h27.22.532,Simcolourproject_2stim_asymm_v5,2020.2.10,Win32,60,61025ae37ef11b136ea224fe,,,,,,,,,1165,66,-101,1,0,0,response3disk,,4,22,12,1,0,0,rectangle,22,12,1,0,0,22,12,1,0,0,1,44,204,85,1,,,,,,,,
,,,,,,,,,,,,,FF,,,,,,,,1.7017,,,,,,,,,,,,,,,,,,,,,,610344869928e5cbcc7ebf23,610370897388e7c156ebdc44,2021-07-30_00h27.22.532,Simcolourproject_2stim_asymm_v5,2020.2.10,Win32,60,61025ae37ef11b136ea224fe,,,,,,,,,4111,-47,-90,1,0,0,response5disk,,3,-11,3,1,0,0,rectangle,-11,3,1,0,0,-11,3,1,0,0,1,45,205,45,1,,,,,,,,
,,,,,,,,,,,,,FF,,,,,,,,1.3664,,,,,,,,,,,,,,,,,,,,,,610344869928e5cbcc7ebf23,610370897388e7c156ebdc44,2021-07-30_00h27.22.532,Simcolourproject_2stim_asymm_v5,2020.2.10,Win32,60,61025ae37ef11b136ea224fe,,,,,,,,,2704,-97,-101,1,0,0,response5disk,,3,18,-4,1,0,0,rectangle,-51,97,1,0,0,2,-2,1,0,0,1,46,206,113,1,,response7disk_3,TRUE,0,0,"[100,261,271,25,138,167,243,120,92,133,32,9,251,57,207,229,169,51,156,82]",1.1023,rectangle
,,,,,,,,,,,,,FF,,,,,,,,0.9174,,,,,,,,,,,,,,,,,,,,,,610344869928e5cbcc7ebf23,610370897388e7c156ebdc44,2021-07-30_00h27.22.532,Simcolourproject_2stim_asymm_v5,2020.2.10,Win32,60,61025ae37ef11b136ea224fe,,,,,,,,,496,132,52,1,0,0,response1disk,,6,-3,-1,1,0,0,rectangle,-3,-1,1,0,0,-3,-1,1,0,0,1,47,207,81,1,,,,,,,,
,,,,,,,,,,,,,FF,,,,,,,,0.7339,,,,,,,,,,,,,,,,,,,,,,610344869928e5cbcc7ebf23,610370897388e7c156ebdc44,2021-07-30_00h27.22.532,Simcolourproject_2stim_asymm_v5,2020.2.10,Win32,60,61025ae37ef11b136ea224fe,,,,,,,,,3166,98,56,1,0,0,response1disk,,6,22,4,1,0,0,rectangle,22,4,1,0,0,22,4,1,0,0,1,48,208,57,1,,,,,,,,
,,,,,,,,,,,,,FF,,,,,,,,1.1005,,,,,,,,,,,,,,,,,,,,,,610344869928e5cbcc7ebf23,610370897388e7c156ebdc44,2021-07-30_00h27.22.532,Simcolourproject_2stim_asymm_v5,2020.2.10,Win32,60,61025ae37ef11b136ea224fe,,,,,,,,,670,70,105,1,0,0,response1disk,,7,16,3,1,0,0,rectangle,16,3,1,0,0,16,3,1,0,0,1,49,209,130,1,,,,,,,,
,,,,,,,,,,,,,FF,,,,,,,,1.2681,,,,,,,,,,,,,,,,,,,,,,610344869928e5cbcc7ebf23,610370897388e7c156ebdc44,2021-07-30_00h27.22.532,Simcolourproject_2stim_asymm_v5,2020.2.10,Win32,60,61025ae37ef11b136ea224fe,,,,,,,,,3838,67,94,1,0,0,response1disk,,7,1,7,1,0,0,rectangle,1,7,1,0,0,1,7,1,0,0,1,50,210,129,1,,,,,,,,
,,,,,,,,,,,,,FF,,,,,,,,2.1188,,,,,,,,,,,,,,,,,,,,,,610344869928e5cbcc7ebf23,610370897388e7c156ebdc44,2021-07-30_00h27.22.532,Simcolourproject_2stim_asymm_v5,2020.2.10,Win32,60,61025ae37ef11b136ea224fe,,,,,,,,,2792,95,-32,1,0,0,response3disk,,5,8,-7,1,0,0,rectangle,8,-7,1,0,0,8,-7,1,0,0,1,51,211,99,1,,,,,,,,
,,,,,,,,,,,,,FF,,,,,,,,0.851,,,,,,,,,,,,,,,,,,,,,,610344869928e5cbcc7ebf23,610370897388e7c156ebdc44,2021-07-30_00h27.22.532,Simcolourproject_2stim_asymm_v5,2020.2.10,Win32,60,61025ae37ef11b136ea224fe,,,,,,,,,2130,36,65,1,0,0,response1disk,,7,7,13,1,0,0,rectangle,7,13,1,0,0,7,13,1,0,0,1,52,212,88,1,,,,,,,,
,,,,,,,,,,,,,FF,,,,,,,,1.2841,,,,,,,,,,,,,,,,,,,,,,610344869928e5cbcc7ebf23,610370897388e7c156ebdc44,2021-07-30_00h27.22.532,Simcolourproject_2stim_asymm_v5,2020.2.10,Win32,60,61025ae37ef11b136ea224fe,,,,,,,,,1378,-84,-60,1,0,0,response5disk,,2,-25,-4,1,0,0,rectangle,-25,-4,1,0,0,-25,-4,1,0,0,1,53,213,84,1,,,,,,,,
,,,,,,,,,,,,,FF,,,,,,,,1.1679,,,,,,,,,,,,,,,,,,,,,,610344869928e5cbcc7ebf23,610370897388e7c156ebdc44,2021-07-30_00h27.22.532,Simcolourproject_2stim_asymm_v5,2020.2.10,Win32,60,61025ae37ef11b136ea224fe,,,,,,,,,3044,54,104,1,0,0,response1disk,,7,-1,-1,1,0,0,rectangle,-1,-1,1,0,0,-1,-1,1,0,0,1,54,214,34,1,,,,,,,,
,,,,,,,,,,,,,FF,,,,,,,,0.9237,,,,,,,,,,,,,,,,,,,,,,610344869928e5cbcc7ebf23,610370897388e7c156ebdc44,2021-07-30_00h27.22.532,Simcolourproject_2stim_asymm_v5,2020.2.10,Win32,60,61025ae37ef11b136ea224fe,,,,,,,,,3092,-119,-49,1,0,0,response5disk,,2,-25,9,1,0,0,rectangle,-25,9,1,0,0,-25,9,1,0,0,1,55,215,68,1,,,,,,,,
,,,,,,,,,,,,,FF,,,,,,,,0.7673,,,,,,,,,,,,,,,,,,,,,,610344869928e5cbcc7ebf23,610370897388e7c156ebdc44,2021-07-30_00h27.22.532,Simcolourproject_2stim_asymm_v5,2020.2.10,Win32,60,61025ae37ef11b136ea224fe,,,,,,,,,2427,-76,46,1,0,0,response7disk,,1,-23,-8,1,0,0,rectangle,-23,-8,1,0,0,-23,-8,1,0,0,1,56,216,135,1,,,,,,,,
,,,,,,,,,,,,,FF,,,,,,,,0.8842,,,,,,,,,,,,,,,,,,,,,,610344869928e5cbcc7ebf23,610370897388e7c156ebdc44,2021-07-30_00h27.22.532,Simcolourproject_2stim_asymm_v5,2020.2.10,Win32,60,61025ae37ef11b136ea224fe,,,,,,,,,2625,110,84,1,0,0,response1disk,,6,15,4,1,0,0,rectangle,15,4,1,0,0,15,4,1,0,0,1,57,217,155,1,,,,,,,,
,,,,,,,,,,,,,FF,,,,,,,,1.5682,,,,,,,,,,,,,,,,,,,,,,610344869928e5cbcc7ebf23,610370897388e7c156ebdc44,2021-07-30_00h27.22.532,Simcolourproject_2stim_asymm_v5,2020.2.10,Win32,60,61025ae37ef11b136ea224fe,,,,,,,,,383,56,-83,1,0,0,response3disk,,4,21,-7,1,0,0,rectangle,21,-7,1,0,0,21,-7,1,0,0,1,58,218,151,1,,,,,,,,
,,,,,,,,,,,,,FF,,,,,,,,1.6682,,,,,,,,,,,,,,,,,,,,,,610344869928e5cbcc7ebf23,610370897388e7c156ebdc44,2021-07-30_00h27.22.532,Simcolourproject_2stim_asymm_v5,2020.2.10,Win32,60,61025ae37ef11b136ea224fe,,,,,,,,,3350,-70,-80,1,0,0,response5disk,,3,12,10,1,0,0,rectangle,12,10,1,0,0,12,10,1,0,0,1,59,219,40,1,,,,,,,,
,,,,,,,,,,,,,FF,,,,,,,,0.9011,,,,,,,,,,,,,,,,,,,,,,610344869928e5cbcc7ebf23,610370897388e7c156ebdc44,2021-07-30_00h27.22.532,Simcolourproject_2stim_asymm_v5,2020.2.10,Win32,60,61025ae37ef11b136ea224fe,,,,,,,,,2885,67,100,1,0,0,response1disk,,7,17,-2,1,0,0,rectangle,17,-2,1,0,0,17,-2,1,0,0,1,60,220,24,1,,,,,,,,
,,,,,,,,,,,,,FF,,,,,,,,0.9508,,,,,,,,,,,,,,,,,,,,,,610344869928e5cbcc7ebf23,610370897388e7c156ebdc44,2021-07-30_00h27.22.532,Simcolourproject_2stim_asymm_v5,2020.2.10,Win32,60,61025ae37ef11b136ea224fe,,,,,,,,,3513,-84,33,1,0,0,response7disk,,1,-6,4,1,0,0,rectangle,-6,4,1,0,0,-6,4,1,0,0,1,61,221,126,1,,,,,,,,
,,,,,,,,,,,,,FF,,,,,,,,1.5011,,,,,,,,,,,,,,,,,,,,,,610344869928e5cbcc7ebf23,610370897388e7c156ebdc44,2021-07-30_00h27.22.532,Simcolourproject_2stim_asymm_v5,2020.2.10,Win32,60,61025ae37ef11b136ea224fe,,,,,,,,,222,94,85,1,0,0,response1disk,,6,25,-3,1,0,0,rectangle,25,-3,1,0,0,25,-3,1,0,0,1,62,222,140,1,,,,,,,,
,,,,,,,,,,,,,FF,,,,,,,,1.651,,,,,,,,,,,,,,,,,,,,,,610344869928e5cbcc7ebf23,610370897388e7c156ebdc44,2021-07-30_00h27.22.532,Simcolourproject_2stim_asymm_v5,2020.2.10,Win32,60,61025ae37ef11b136ea224fe,,,,,,,,,176,99,-52,1,0,0,response3disk,,5,28,-13,1,0,0,rectangle,28,-13,1,0,0,28,-13,1,0,0,1,63,223,152,1,,,,,,,,
,,,,,,,,,,,,,FF,,,,,,,,1.0175,,,,,,,,,,,,,,,,,,,,,,610344869928e5cbcc7ebf23,610370897388e7c156ebdc44,2021-07-30_00h27.22.532,Simcolourproject_2stim_asymm_v5,2020.2.10,Win32,60,61025ae37ef11b136ea224fe,,,,,,,,,3152,-102,-40,1,0,0,response5disk,,2,-21,10,1,0,0,rectangle,-21,10,1,0,0,-21,10,1,0,0,1,64,224,52,1,,,,,,,,
,,,,,,,,,,,,,FF,,,,,,,,0.7168,,,,,,,,,,,,,,,,,,,,,,610344869928e5cbcc7ebf23,610370897388e7c156ebdc44,2021-07-30_00h27.22.532,Simcolourproject_2stim_asymm_v5,2020.2.10,Win32,60,61025ae37ef11b136ea224fe,,,,,,,,,3510,-52,87,1,0,0,response7disk,,0,13,-5,1,0,0,rectangle,13,-5,1,0,0,13,-5,1,0,0,1,65,225,13,1,,,,,,,,
,,,,,,,,,,,,,FF,,,,,,,,0.9982,,,,,,,,,,,,,,,,,,,,,,610344869928e5cbcc7ebf23,610370897388e7c156ebdc44,2021-07-30_00h27.22.532,Simcolourproject_2stim_asymm_v5,2020.2.10,Win32,60,61025ae37ef11b136ea224fe,,,,,,,,,1446,-63,38,1,0,0,response7disk,,1,-28,3,1,0,0,rectangle,-28,3,1,0,0,-28,3,1,0,0,1,66,226,138,1,,,,,,,,
,,,,,,,,,,,,,FF,,,,,,,,1.635,,,,,,,,,,,,,,,,,,,,,,610344869928e5cbcc7ebf23,610370897388e7c156ebdc44,2021-07-30_00h27.22.532,Simcolourproject_2stim_asymm_v5,2020.2.10,Win32,60,61025ae37ef11b136ea224fe,,,,,,,,,1899,-93,-37,1,0,0,response5disk,,2,-32,7,1,0,0,rectangle,-32,7,1,0,0,-32,7,1,0,0,1,67,227,96,1,,,,,,,,
,,,,,,,,,,,,,FF,,,,,,,,0.9174,,,,,,,,,,,,,,,,,,,,,,610344869928e5cbcc7ebf23,610370897388e7c156ebdc44,2021-07-30_00h27.22.532,Simcolourproject_2stim_asymm_v5,2020.2.10,Win32,60,61025ae37ef11b136ea224fe,,,,,,,,,1742,49,77,1,0,0,response1disk,,7,3,-4,1,0,0,rectangle,44,107,1,0,0,9,5,1,0,0,1,68,228,120,1,,response1disk_3,TRUE,7,7,"[100,261,271,25,138,167,243,120,92,133,32,9,251,57,207,229,169,51,156,82]",1.7012,rectangle
,,,,,,,,,,,,,FF,,,,,,,,1.9179,,,,,,,,,,,,,,,,,,,,,,610344869928e5cbcc7ebf23,610370897388e7c156ebdc44,2021-07-30_00h27.22.532,Simcolourproject_2stim_asymm_v5,2020.2.10,Win32,60,61025ae37ef11b136ea224fe,,,,,,,,,2559,-59,-121,1,0,0,response5disk,,3,1,5,1,0,0,rectangle,1,5,1,0,0,1,5,1,0,0,1,69,229,118,1,,,,,,,,
,,,,,,,,,,,,,FF,,,,,,,,1.1343,,,,,,,,,,,,,,,,,,,,,,610344869928e5cbcc7ebf23,610370897388e7c156ebdc44,2021-07-30_00h27.22.532,Simcolourproject_2stim_asymm_v5,2020.2.10,Win32,60,61025ae37ef11b136ea224fe,,,,,,,,,1263,103,58,1,0,0,response1disk,,6,-1,2,1,0,0,rectangle,-1,2,1,0,0,-1,2,1,0,0,1,70,230,159,1,,,,,,,,
,,,,,,,,,,,,,FF,,,,,,,,0.8502,,,,,,,,,,,,,,,,,,,,,,610344869928e5cbcc7ebf23,610370897388e7c156ebdc44,2021-07-30_00h27.22.532,Simcolourproject_2stim_asymm_v5,2020.2.10,Win32,60,61025ae37ef11b136ea224fe,,,,,,,,,1724,105,50,1,0,0,response1disk,,6,43,4,1,0,0,rectangle,43,4,1,0,0,43,4,1,0,0,1,71,231,146,1,,,,,,,,
,,,,,,,,,,,,,FF,,,,,,,,0.831,,,,,,,,,,,,,,,,,,,,,,610344869928e5cbcc7ebf23,610370897388e7c156ebdc44,2021-07-30_00h27.22.532,Simcolourproject_2stim_asymm_v5,2020.2.10,Win32,60,61025ae37ef11b136ea224fe,,,,,,,,,2819,74,64,1,0,0,response1disk,,6,-9,0,1,0,0,rectangle,-9,0,1,0,0,-9,0,1,0,0,1,72,232,9,1,,,,,,,,
,,,,,,,,,,,,,FF,,,,,,,,1.388,,,,,,,,,,,,,,,,,,,,,,610344869928e5cbcc7ebf23,610370897388e7c156ebdc44,2021-07-30_00h27.22.532,Simcolourproject_2stim_asymm_v5,2020.2.10,Win32,60,61025ae37ef11b136ea224fe,,,,,,,,,403,78,53,1,0,0,response1disk,,6,22,3,1,0,0,rectangle,22,3,1,0,0,22,3,1,0,0,1,73,233,25,1,,,,,,,,
,,,,,,,,,,,,,FF,,,,,,,,1.2006,,,,,,,,,,,,,,,,,,,,,,610344869928e5cbcc7ebf23,610370897388e7c156ebdc44,2021-07-30_00h27.22.532,Simcolourproject_2stim_asymm_v5,2020.2.10,Win32,60,61025ae37ef11b136ea224fe,,,,,,,,,2947,-137,60,1,0,0,response7disk,,1,-23,13,1,0,0,rectangle,-23,13,1,0,0,-23,13,1,0,0,1,74,234,49,1,,,,,,,,
,,,,,,,,,,,,,FF,,,,,,,,0.6639,,,,,,,,,,,,,,,,,,,,,,610344869928e5cbcc7ebf23,610370897388e7c156ebdc44,2021-07-30_00h27.22.532,Simcolourproject_2stim_asymm_v5,2020.2.10,Win32,60,61025ae37ef11b136ea224fe,,,,,,,,,1333,105,62,1,0,0,response1disk,,6,22,-6,1,0,0,rectangle,22,-6,1,0,0,22,-6,1,0,0,1,75,235,95,1,,,,,,,,
,,,,,,,,,,,,,FF,,,,,,,,1.1007,,,,,,,,,,,,,,,,,,,,,,610344869928e5cbcc7ebf23,610370897388e7c156ebdc44,2021-07-30_00h27.22.532,Simcolourproject_2stim_asymm_v5,2020.2.10,Win32,60,61025ae37ef11b136ea224fe,,,,,,,,,815,-98,-58,1,0,0,response5disk,,2,-5,5,1,0,0,rectangle,-5,5,1,0,0,-5,5,1,0,0,1,76,236,14,1,,,,,,,,
,,,,,,,,,,,,,FF,,,,,,,,1.1508,,,,,,,,,,,,,,,,,,,,,,610344869928e5cbcc7ebf23,610370897388e7c156ebdc44,2021-07-30_00h27.22.532,Simcolourproject_2stim_asymm_v5,2020.2.10,Win32,60,61025ae37ef11b136ea224fe,,,,,,,,,4262,57,-101,1,0,0,response3disk,,4,5,-3,1,0,0,rectangle,5,-3,1,0,0,5,-3,1,0,0,1,77,237,26,1,,,,,,,,
,,,,,,,,,,,,,FF,,,,,,,,0.8172,,,,,,,,,,,,,,,,,,,,,,610344869928e5cbcc7ebf23,610370897388e7c156ebdc44,2021-07-30_00h27.22.532,Simcolourproject_2stim_asymm_v5,2020.2.10,Win32,60,61025ae37ef11b136ea224fe,,,,,,,,,3305,-93,-36,1,0,0,response5disk,,2,-25,10,1,0,0,rectangle,-25,10,1,0,0,-25,10,1,0,0,1,78,238,148,1,,,,,,,,
,,,,,,,,,,,,,FF,,,,,,,,1.2343,,,,,,,,,,,,,,,,,,,,,,610344869928e5cbcc7ebf23,610370897388e7c156ebdc44,2021-07-30_00h27.22.532,Simcolourproject_2stim_asymm_v5,2020.2.10,Win32,60,61025ae37ef11b136ea224fe,,,,,,,,,297,89,62,1,0,0,response1disk,,6,9,-5,1,0,0,rectangle,9,-5,1,0,0,9,-5,1,0,0,1,79,239,80,1,,,,,,,,
,,,,,,,,,,,,,FF,,,,,,,,0.8834,,,,,,,,,,,,,,,,,,,,,,610344869928e5cbcc7ebf23,610370897388e7c156ebdc44,2021-07-30_00h27.22.532,Simcolourproject_2stim_asymm_v5,2020.2.10,Win32,60,61025ae37ef11b136ea224fe,,,,,,,,,3708,-107,42,1,0,0,response7disk,,1,-15,-12,1,0,0,rectangle,-15,-12,1,0,0,-15,-12,1,0,0,1,80,240,58,1,,,,,,,,
,,,,,,,,,,,,,FF,,,,,,,,1.0177,,,,,,,,,,,,,,,,,,,,,,610344869928e5cbcc7ebf23,610370897388e7c156ebdc44,2021-07-30_00h27.22.532,Simcolourproject_2stim_asymm_v5,2020.2.10,Win32,60,61025ae37ef11b136ea224fe,,,,,,,,,623,57,-96,1,0,0,response3disk,,4,19,-12,1,0,0,rectangle,19,-12,1,0,0,19,-12,1,0,0,1,81,241,127,1,,,,,,,,
,,,,,,,,,,,,,FF,,,,,,,,1.0842,,,,,,,,,,,,,,,,,,,,,,610344869928e5cbcc7ebf23,610370897388e7c156ebdc44,2021-07-30_00h27.22.532,Simcolourproject_2stim_asymm_v5,2020.2.10,Win32,60,61025ae37ef11b136ea224fe,,,,,,,,,172,-59,35,1,0,0,response7disk,,1,-33,4,1,0,0,rectangle,35,-79,1,0,0,19,-13,1,0,0,1,82,242,17,1,,response3disk_3,TRUE,4,4,"[100,261,271,25,138,167,243,120,92,133,32,9,251,57,207,229,169,51,156,82]",1.5665,rectangle
,,,,,,,,,,,,,FF,,,,,,,,1.3345,,,,,,,,,,,,,,,,,,,,,,610344869928e5cbcc7ebf23,610370897388e7c156ebdc44,2021-07-30_00h27.22.532,Simcolourproject_2stim_asymm_v5,2020.2.10,Win32,60,61025ae37ef11b136ea224fe,,,,,,,,,3206,35,-62,1,0,0,response3disk,,4,21,-11,1,0,0,rectangle,21,-11,1,0,0,21,-11,1,0,0,1,83,243,144,1,,,,,,,,
,,,,,,,,,,,,,FF,,,,,,,,2.1182,,,,,,,,,,,,,,,,,,,,,,610344869928e5cbcc7ebf23,610370897388e7c156ebdc44,2021-07-30_00h27.22.532,Simcolourproject_2stim_asymm_v5,2020.2.10,Win32,60,61025ae37ef11b136ea224fe,,,,,,,,,1347,93,40,1,0,0,response1disk,,6,13,-7,1,0,0,rectangle,13,-7,1,0,0,13,-7,1,0,0,1,84,244,67,1,,,,,,,,
,,,,,,,,,,,,,FF,,,,,,,,1.3342,,,,,,,,,,,,,,,,,,,,,,610344869928e5cbcc7ebf23,610370897388e7c156ebdc44,2021-07-30_00h27.22.532,Simcolourproject_2stim_asymm_v5,2020.2.10,Win32,60,61025ae37ef11b136ea224fe,,,,,,,,,4076,-63,-79,1,0,0,response5disk,,3,-17,-2,1,0,0,rectangle,-17,-2,1,0,0,-17,-2,1,0,0,1,85,245,142,1,,,,,,,,
,,,,,,,,,,,,,FF,,,,,,,,1.6347,,,,,,,,,,,,,,,,,,,,,,610344869928e5cbcc7ebf23,610370897388e7c156ebdc44,2021-07-30_00h27.22.532,Simcolourproject_2stim_asymm_v5,2020.2.10,Win32,60,61025ae37ef11b136ea224fe,,,,,,,,,2188,29,-63,1,0,0,response3disk,,4,11,10,1,0,0,rectangle,11,10,1,0,0,11,10,1,0,0,1,86,246,70,1,,,,,,,,
,,,,,,,,,,,,,FF,,,,,,,,1.9183,,,,,,,,,,,,,,,,,,,,,,610344869928e5cbcc7ebf23,610370897388e7c156ebdc44,2021-07-30_00h27.22.532,Simcolourproject_2stim_asymm_v5,2020.2.10,Win32,60,61025ae37ef11b136ea224fe,,,,,,,,,4243,60,-123,1,0,0,response3disk,,4,9,-4,1,0,0,rectangle,9,-4,1,0,0,9,-4,1,0,0,1,87,247,46,1,,,,,,,,
,,,,,,,,,,,,,FF,,,,,,,,0.8176,,,,,,,,,,,,,,,,,,,,,,610344869928e5cbcc7ebf23,610370897388e7c156ebdc44,2021-07-30_00h27.22.532,Simcolourproject_2stim_asymm_v5,2020.2.10,Win32,60,61025ae37ef11b136ea224fe,,,,,,,,,61,91,44,1,0,0,response1disk,,6,2,3,1,0,0,rectangle,2,3,1,0,0,2,3,1,0,0,1,88,248,114,1,,,,,,,,
,,,,,,,,,,,,,FF,,,,,,,,0.634,,,,,,,,,,,,,,,,,,,,,,610344869928e5cbcc7ebf23,610370897388e7c156ebdc44,2021-07-30_00h27.22.532,Simcolourproject_2stim_asymm_v5,2020.2.10,Win32,60,61025ae37ef11b136ea224fe,,,,,,,,,2074,81,52,1,0,0,response1disk,,6,-25,-2,1,0,0,rectangle,-25,-2,1,0,0,-25,-2,1,0,0,1,89,249,101,1,,,,,,,,
,,,,,,,,,,,,,FF,,,,,,,,0.7336,,,,,,,,,,,,,,,,,,,,,,610344869928e5cbcc7ebf23,610370897388e7c156ebdc44,2021-07-30_00h27.22.532,Simcolourproject_2stim_asymm_v5,2020.2.10,Win32,60,61025ae37ef11b136ea224fe,,,,,,,,,1089,28,70,1,0,0,response1disk,,7,-8,4,1,0,0,rectangle,86,-35,1,0,0,25,1,1,0,0,1,90,250,98,1,,response3disk_3,TRUE,5,5,"[100,261,271,25,138,167,243,120,92,133,32,9,251,57,207,229,169,51,156,82]",1.3678,rectangle
,,,,,,,,,,,,,FF,,,,,,,,1.8018,,,,,,,,,,,,,,,,,,,,,,610344869928e5cbcc7ebf23,610370897388e7c156ebdc44,2021-07-30_00h27.22.532,Simcolourproject_2stim_asymm_v5,2020.2.10,Win32,60,61025ae37ef11b136ea224fe,,,,,,,,,1240,112,-64,1,0,0,response3disk,,5,29,-7,1,0,0,rectangle,29,-7,1,0,0,29,-7,1,0,0,1,91,251,103,1,,,,,,,,
,,,,,,,,,,,,,FF,,,,,,,,1.5347,,,,,,,,,,,,,,,,,,,,,,610344869928e5cbcc7ebf23,610370897388e7c156ebdc44,2021-07-30_00h27.22.532,Simcolourproject_2stim_asymm_v5,2020.2.10,Win32,60,61025ae37ef11b136ea224fe,,,,,,,,,3720,72,-100,1,0,0,response3disk,,4,38,-7,1,0,0,rectangle,38,-7,1,0,0,38,-7,1,0,0,1,92,252,128,1,,,,,,,,
,,,,,,,,,,,,,FF,,,,,,,,1.0507,,,,,,,,,,,,,,,,,,,,,,610344869928e5cbcc7ebf23,610370897388e7c156ebdc44,2021-07-30_00h27.22.532,Simcolourproject_2stim_asymm_v5,2020.2.10,Win32,60,61025ae37ef11b136ea224fe,,,,,,,,,699,-96,-54,1,0,0,response5disk,,2,-26,-1,1,0,0,rectangle,-26,-1,1,0,0,-26,-1,1,0,0,1,93,253,33,1,,,,,,,,
,,,,,,,,,,,,,FF,,,,,,,,0.9008,,,,,,,,,,,,,,,,,,,,,,610344869928e5cbcc7ebf23,610370897388e7c156ebdc44,2021-07-30_00h27.22.532,Simcolourproject_2stim_asymm_v5,2020.2.10,Win32,60,61025ae37ef11b136ea224fe,,,,,,,,,3165,43,-83,1,0,0,response3disk,,4,27,1,1,0,0,rectangle,27,1,1,0,0,27,1,1,0,0,1,94,254,97,1,,,,,,,,
,,,,,,,,,,,,,FF,,,,,,,,0.7674,,,,,,,,,,,,,,,,,,,,,,610344869928e5cbcc7ebf23,610370897388e7c156ebdc44,2021-07-30_00h27.22.532,Simcolourproject_2stim_asymm_v5,2020.2.10,Win32,60,61025ae37ef11b136ea224fe,,,,,,,,,123,77,47,1,0,0,response1disk,,6,11,-10,1,0,0,rectangle,11,-10,1,0,0,11,-10,1,0,0,1,95,255,56,1,,,,,,,,
,,,,,,,,,,,,,FF,,,,,,,,0.6672,,,,,,,,,,,,,,,,,,,,,,610344869928e5cbcc7ebf23,610370897388e7c156ebdc44,2021-07-30_00h27.22.532,Simcolourproject_2stim_asymm_v5,2020.2.10,Win32,60,61025ae37ef11b136ea224fe,,,,,,,,,121,158,84,1,0,0,response1disk,,6,2,3,1,0,0,rectangle,2,3,1,0,0,2,3,1,0,0,1,96,256,22,1,,,,,,,,
,,,,,,,,,,,,,FF,,,,,,,,1.1504,,,,,,,,,,,,,,,,,,,,,,610344869928e5cbcc7ebf23,610370897388e7c156ebdc44,2021-07-30_00h27.22.532,Simcolourproject_2stim_asymm_v5,2020.2.10,Win32,60,61025ae37ef11b136ea224fe,,,,,,,,,4332,46,79,1,0,0,response1disk,,7,-2,5,1,0,0,rectangle,-2,5,1,0,0,-2,5,1,0,0,1,97,257,131,1,,,,,,,,
,,,,,,,,,,,,,FF,,,,,,,,0.8841,,,,,,,,,,,,,,,,,,,,,,610344869928e5cbcc7ebf23,610370897388e7c156ebdc44,2021-07-30_00h27.22.532,Simcolourproject_2stim_asymm_v5,2020.2.10,Win32,60,61025ae37ef11b136ea224fe,,,,,,,,,2238,-65,-46,1,0,0,response5disk,,2,-23,5,1,0,0,rectangle,-23,5,1,0,0,-23,5,1,0,0,1,98,258,158,1,,,,,,,,
,,,,,,,,,,,,,FF,,,,,,,,0.6506,,,,,,,,,,,,,,,,,,,,,,610344869928e5cbcc7ebf23,610370897388e7c156ebdc44,2021-07-30_00h27.22.532,Simcolourproject_2stim_asymm_v5,2020.2.10,Win32,60,61025ae37ef11b136ea224fe,,,,,,,,,1456,-76,-30,1,0,0,response5disk,,2,-30,12,1,0,0,rectangle,-30,12,1,0,0,-30,12,1,0,0,1,99,259,139,1,,,,,,,,
,,,,,,,,,,,,,FF,,,,,,,,0.7172,,,,,,,,,,,,,,,,,,,,,,610344869928e5cbcc7ebf23,610370897388e7c156ebdc44,2021-07-30_00h27.22.532,Simcolourproject_2stim_asymm_v5,2020.2.10,Win32,60,61025ae37ef11b136ea224fe,,,,,,,,,1173,114,57,1,0,0,response1disk,,6,23,6,1,0,0,rectangle,-44,94,1,0,0,-12,3,1,0,0,1,100,260,112,1,,response7disk_3,TRUE,0,0,"[100,261,271,25,138,167,243,120,92,133,32,9,251,57,207,229,169,51,156,82]",1.3006,rectangle
,,,,,,,,,,,,,FF,,,,,,,,1.8347,,,,,,,,,,,,,,,,,,,,,,610344869928e5cbcc7ebf23,610370897388e7c156ebdc44,2021-07-30_00h27.22.532,Simcolourproject_2stim_asymm_v5,2020.2.10,Win32,60,61025ae37ef11b136ea224fe,,,,,,,,,3036,103,-58,1,0,0,response3disk,,5,22,2,1,0,0,rectangle,22,2,1,0,0,22,2,1,0,0,1,101,261,63,1,,,,,,,,
,,,,,,,,,,,,,FF,,,,,,,,0.9173,,,,,,,,,,,,,,,,,,,,,,610344869928e5cbcc7ebf23,610370897388e7c156ebdc44,2021-07-30_00h27.22.532,Simcolourproject_2stim_asymm_v5,2020.2.10,Win32,60,61025ae37ef11b136ea224fe,,,,,,,,,3986,74,63,1,0,0,response1disk,,6,9,2,1,0,0,rectangle,9,2,1,0,0,9,2,1,0,0,1,102,262,108,1,,,,,,,,
,,,,,,,,,,,,,FF,,,,,,,,1.034,,,,,,,,,,,,,,,,,,,,,,610344869928e5cbcc7ebf23,610370897388e7c156ebdc44,2021-07-30_00h27.22.532,Simcolourproject_2stim_asymm_v5,2020.2.10,Win32,60,61025ae37ef11b136ea224fe,,,,,,,,,710,95,70,1,0,0,response1disk,,6,19,1,1,0,0,rectangle,19,1,1,0,0,19,1,1,0,0,1,103,263,18,1,,,,,,,,
,,,,,,,,,,,,,FF,,,,,,,,0.9678,,,,,,,,,,,,,,,,,,,,,,610344869928e5cbcc7ebf23,610370897388e7c156ebdc44,2021-07-30_00h27.22.532,Simcolourproject_2stim_asymm_v5,2020.2.10,Win32,60,61025ae37ef11b136ea224fe,,,,,,,,,3271,49,83,1,0,0,response1disk,,7,5,0,1,0,0,rectangle,5,0,1,0,0,5,0,1,0,0,1,104,264,154,1,,,,,,,,
,,,,,,,,,,,,,FF,,,,,,,,1.1351,,,,,,,,,,,,,,,,,,,,,,610344869928e5cbcc7ebf23,610370897388e7c156ebdc44,2021-07-30_00h27.22.532,Simcolourproject_2stim_asymm_v5,2020.2.10,Win32,60,61025ae37ef11b136ea224fe,,,,,,,,,2388,49,81,1,0,0,response1disk,,7,-23,-2,1,0,0,rectangle,-23,-2,1,0,0,-23,-2,1,0,0,1,105,265,133,1,,,,,,,,
,,,,,,,,,,,,,FF,,,,,,,,0.8007,,,,,,,,,,,,,,,,,,,,,,610344869928e5cbcc7ebf23,610370897388e7c156ebdc44,2021-07-30_00h27.22.532,Simcolourproject_2stim_asymm_v5,2020.2.10,Win32,60,61025ae37ef11b136ea224fe,,,,,,,,,677,47,68,1,0,0,response1disk,,7,10,3,1,0,0,rectangle,10,3,1,0,0,10,3,1,0,0,1,106,266,156,1,,,,,,,,
,,,,,,,,,,,,,FF,,,,,,,,0.5171,,,,,,,,,,,,,,,,,,,,,,610344869928e5cbcc7ebf23,610370897388e7c156ebdc44,2021-07-30_00h27.22.532,Simcolourproject_2stim_asymm_v5,2020.2.10,Win32,60,61025ae37ef11b136ea224fe,,,,,,,,,2913,33,57,1,0,0,response1disk,,7,11,3,1,0,0,rectangle,11,3,1,0,0,11,3,1,0,0,1,107,267,23,1,,,,,,,,
,,,,,,,,,,,,,FF,,,,,,,,1.2002,,,,,,,,,,,,,,,,,,,,,,610344869928e5cbcc7ebf23,610370897388e7c156ebdc44,2021-07-30_00h27.22.532,Simcolourproject_2stim_asymm_v5,2020.2.10,Win32,60,61025ae37ef11b136ea224fe,,,,,,,,,1239,50,-95,1,0,0,response3disk,,4,18,-7,1,0,0,rectangle,18,-7,1,0,0,18,-7,1,0,0,1,108,268,3,1,,,,,,,,
,,,,,,,,,,,,,FF,,,,,,,,0.684,,,,,,,,,,,,,,,,,,,,,,610344869928e5cbcc7ebf23,610370897388e7c156ebdc44,2021-07-30_00h27.22.532,Simcolourproject_2stim_asymm_v5,2020.2.10,Win32,60,61025ae37ef11b136ea224fe,,,,,,,,,4171,-106,-52,1,0,0,response5disk,,2,-3,5,1,0,0,rectangle,-3,5,1,0,0,-3,5,1,0,0,1,109,269,27,1,,,,,,,,
,,,,,,,,,,,,,FF,,,,,,,,1.1673,,,,,,,,,,,,,,,,,,,,,,610344869928e5cbcc7ebf23,610370897388e7c156ebdc44,2021-07-30_00h27.22.532,Simcolourproject_2stim_asymm_v5,2020.2.10,Win32,60,61025ae37ef11b136ea224fe,,,,,,,,,2026,-99,46,1,0,0,response7disk,,1,-13,-1,1,0,0,rectangle,-53,-127,1,0,0,-26,-7,1,0,0,1,110,270,48,1,,response5disk_3,TRUE,3,3,"[100,261,271,25,138,167,243,120,92,133,32,9,251,57,207,229,169,51,156,82]",1.7676,rectangle
,,,,,,,,,,,,,FF,,,,,,,,1.0677,,,,,,,,,,,,,,,,,,,,,,610344869928e5cbcc7ebf23,610370897388e7c156ebdc44,2021-07-30_00h27.22.532,Simcolourproject_2stim_asymm_v5,2020.2.10,Win32,60,61025ae37ef11b136ea224fe,,,,,,,,,3020,65,-105,1,0,0,response3disk,,4,26,6,1,0,0,rectangle,26,6,1,0,0,26,6,1,0,0,1,111,271,61,1,,,,,,,,
,,,,,,,,,,,,,FF,,,,,,,,1.0674,,,,,,,,,,,,,,,,,,,,,,610344869928e5cbcc7ebf23,610370897388e7c156ebdc44,2021-07-30_00h27.22.532,Simcolourproject_2stim_asymm_v5,2020.2.10,Win32,60,61025ae37ef11b136ea224fe,,,,,,,,,3162,-77,-93,1,0,0,response5disk,,3,12,-11,1,0,0,rectangle,12,-11,1,0,0,12,-11,1,0,0,1,112,272,38,1,,,,,,,,
,,,,,,,,,,,,,FF,,,,,,,,1.6346,,,,,,,,,,,,,,,,,,,,,,610344869928e5cbcc7ebf23,610370897388e7c156ebdc44,2021-07-30_00h27.22.532,Simcolourproject_2stim_asymm_v5,2020.2.10,Win32,60,61025ae37ef11b136ea224fe,,,,,,,,,4012,126,-56,1,0,0,response3disk,,5,28,-10,1,0,0,rectangle,28,-10,1,0,0,28,-10,1,0,0,1,113,273,31,1,,,,,,,,
,,,,,,,,,,,,,FF,,,,,,,,0.8171,,,,,,,,,,,,,,,,,,,,,,610344869928e5cbcc7ebf23,610370897388e7c156ebdc44,2021-07-30_00h27.22.532,Simcolourproject_2stim_asymm_v5,2020.2.10,Win32,60,61025ae37ef11b136ea224fe,,,,,,,,,2259,99,-43,1,0,0,response3disk,,5,4,-1,1,0,0,rectangle,4,-1,1,0,0,4,-1,1,0,0,1,114,274,71,1,,,,,,,,
,,,,,,,,,,,,,FF,,,,,,,,0.8342,,,,,,,,,,,,,,,,,,,,,,610344869928e5cbcc7ebf23,610370897388e7c156ebdc44,2021-07-30_00h27.22.532,Simcolourproject_2stim_asymm_v5,2020.2.10,Win32,60,61025ae37ef11b136ea224fe,,,,,,,,,720,-61,23,1,0,0,response7disk,,1,-32,0,1,0,0,rectangle,-32,0,1,0,0,-32,0,1,0,0,1,115,275,4,1,,,,,,,,
,,,,,,,,,,,,,FF,,,,,,,,1.1009,,,,,,,,,,,,,,,,,,,,,,610344869928e5cbcc7ebf23,610370897388e7c156ebdc44,2021-07-30_00h27.22.532,Simcolourproject_2stim_asymm_v5,2020.2.10,Win32,60,61025ae37ef11b136ea224fe,,,,,,,,,1808,-35,-115,1,0,0,response5disk,,3,-20,-10,1,0,0,rectangle,-20,-10,1,0,0,-20,-10,1,0,0,1,116,276,92,1,,,,,,,,
,,,,,,,,,,,,,FF,,,,,,,,0.6843,,,,,,,,,,,,,,,,,,,,,,610344869928e5cbcc7ebf23,610370897388e7c156ebdc44,2021-07-30_00h27.22.532,Simcolourproject_2stim_asymm_v5,2020.2.10,Win32,60,61025ae37ef11b136ea224fe,,,,,,,,,824,-91,37,1,0,0,response7disk,,1,-30,-8,1,0,0,rectangle,-30,-8,1,0,0,-30,-8,1,0,0,1,117,277,102,1,,,,,,,,
,,,,,,,,,,,,,FF,,,,,,,,0.6838,,,,,,,,,,,,,,,,,,,,,,610344869928e5cbcc7ebf23,610370897388e7c156ebdc44,2021-07-30_00h27.22.532,Simcolourproject_2stim_asymm_v5,2020.2.10,Win32,60,61025ae37ef11b136ea224fe,,,,,,,,,2705,91,42,1,0,0,response1disk,,6,16,2,1,0,0,rectangle,16,2,1,0,0,16,2,1,0,0,1,118,278,15,1,,,,,,,,
,,,,,,,,,,,,,FF,,,,,,,,1.1342,,,,,,,,,,,,,,,,,,,,,,610344869928e5cbcc7ebf23,610370897388e7c156ebdc44,2021-07-30_00h27.22.532,Simcolourproject_2stim_asymm_v5,2020.2.10,Win32,60,61025ae37ef11b136ea224fe,,,,,,,,,889,-89,-36,1,0,0,response5disk,,2,-25,8,1,0,0,rectangle,-25,8,1,0,0,-25,8,1,0,0,1,119,279,53,1,,,,,,,,
,,,,,,,,,,,,,FF,,,,,,,,1.034,,,,,,,,,,,,,,,,,,,,,,610344869928e5cbcc7ebf23,610370897388e7c156ebdc44,2021-07-30_00h27.22.532,Simcolourproject_2stim_asymm_v5,2020.2.10,Win32,60,61025ae37ef11b136ea224fe,,,,,,,,,4056,-74,-119,1,0,0,response5disk,,3,-15,-2,1,0,0,rectangle,-15,-2,1,0,0,-15,-2,1,0,0,1,120,280,21,1,,,,,,,,
,,,,,,,,,,,,,FF,,,,,,,,0.6837,,,,,,,,,,,,,,,,,,,,,,610344869928e5cbcc7ebf23,610370897388e7c156ebdc44,2021-07-30_00h27.22.532,Simcolourproject_2stim_asymm_v5,2020.2.10,Win32,60,61025ae37ef11b136ea224fe,,,,,,,,,2254,119,53,1,0,0,response1disk,,6,13,2,1,0,0,rectangle,13,2,1,0,0,13,2,1,0,0,1,121,281,66,1,,,,,,,,
,,,,,,,,,,,,,FF,,,,,,,,1.5345,,,,,,,,,,,,,,,,,,,,,,610344869928e5cbcc7ebf23,610370897388e7c156ebdc44,2021-07-30_00h27.22.532,Simcolourproject_2stim_asymm_v5,2020.2.10,Win32,60,61025ae37ef11b136ea224fe,,,,,,,,,730,-48,-130,1,0,0,response5disk,,3,20,12,1,0,0,rectangle,20,12,1,0,0,20,12,1,0,0,1,122,282,106,1,,,,,,,,
,,,,,,,,,,,,,FF,,,,,,,,1.334,,,,,,,,,,,,,,,,,,,,,,610344869928e5cbcc7ebf23,610370897388e7c156ebdc44,2021-07-30_00h27.22.532,Simcolourproject_2stim_asymm_v5,2020.2.10,Win32,60,61025ae37ef11b136ea224fe,,,,,,,,,3216,65,84,1,0,0,response1disk,,7,4,-16,1,0,0,rectangle,4,-16,1,0,0,4,-16,1,0,0,1,123,283,8,1,,,,,,,,
,,,,,,,,,,,,,FF,,,,,,,,1.0008,,,,,,,,,,,,,,,,,,,,,,610344869928e5cbcc7ebf23,610370897388e7c156ebdc44,2021-07-30_00h27.22.532,Simcolourproject_2stim_asymm_v5,2020.2.10,Win32,60,61025ae37ef11b136ea224fe,,,,,,,,,1179,49,-80,1,0,0,response3disk,,4,4,9,1,0,0,rectangle,4,9,1,0,0,4,9,1,0,0,1,124,284,104,1,,,,,,,,
,,,,,,,,,,,,,FF,,,,,,,,1.6179,,,,,,,,,,,,,,,,,,,,,,610344869928e5cbcc7ebf23,610370897388e7c156ebdc44,2021-07-30_00h27.22.532,Simcolourproject_2stim_asymm_v5,2020.2.10,Win32,60,61025ae37ef11b136ea224fe,,,,,,,,,3062,87,-37,1,0,0,response3disk,,5,27,12,1,0,0,rectangle,27,12,1,0,0,27,12,1,0,0,1,125,285,125,1,,,,,,,,
,,,,,,,,,,,,,FF,,,,,,,,0.9004,,,,,,,,,,,,,,,,,,,,,,610344869928e5cbcc7ebf23,610370897388e7c156ebdc44,2021-07-30_00h27.22.532,Simcolourproject_2stim_asymm_v5,2020.2.10,Win32,60,61025ae37ef11b136ea224fe,,,,,,,,,1453,-99,58,1,0,0,response7disk,,1,-6,-7,1,0,0,rectangle,-6,-7,1,0,0,-6,-7,1,0,0,1,126,286,62,1,,,,,,,,
,,,,,,,,,,,,,FF,,,,,,,,1.1174,,,,,,,,,,,,,,,,,,,,,,610344869928e5cbcc7ebf23,610370897388e7c156ebdc44,2021-07-30_00h27.22.532,Simcolourproject_2stim_asymm_v5,2020.2.10,Win32,60,61025ae37ef11b136ea224fe,,,,,,,,,2385,40,-109,1,0,0,response3disk,,4,-7,16,1,0,0,rectangle,-7,16,1,0,0,-7,16,1,0,0,1,127,287,100,1,,,,,,,,
,,,,,,,,,,,,,FF,,,,,,,,0.6505,,,,,,,,,,,,,,,,,,,,,,610344869928e5cbcc7ebf23,610370897388e7c156ebdc44,2021-07-30_00h27.22.532,Simcolourproject_2stim_asymm_v5,2020.2.10,Win32,60,61025ae37ef11b136ea224fe,,,,,,,,,4316,-37,89,1,0,0,response7disk,,0,11,8,1,0,0,rectangle,11,8,1,0,0,11,8,1,0,0,1,128,288,74,1,,,,,,,,
,,,,,,,,,,,,,FF,,,,,,,,1.3511,,,,,,,,,,,,,,,,,,,,,,610344869928e5cbcc7ebf23,610370897388e7c156ebdc44,2021-07-30_00h27.22.532,Simcolourproject_2stim_asymm_v5,2020.2.10,Win32,60,61025ae37ef11b136ea224fe,,,,,,,,,4108,-107,-44,1,0,0,response5disk,,2,-31,5,1,0,0,rectangle,-31,5,1,0,0,-31,5,1,0,0,1,129,289,157,1,,,,,,,,
,,,,,,,,,,,,,FF,,,,,,,,0.7505,,,,,,,,,,,,,,,,,,,,,,610344869928e5cbcc7ebf23,610370897388e7c156ebdc44,2021-07-30_00h27.22.532,Simcolourproject_2stim_asymm_v5,2020.2.10,Win32,60,61025ae37ef11b136ea224fe,,,,,,,,,3648,160,33,1,0,0,response1disk,,6,34,-4,1,0,0,rectangle,34,-4,1,0,0,34,-4,1,0,0,1,130,290,109,1,,,,,,,,
,,,,,,,,,,,,,FF,,,,,,,,3.6528,,,,,,,,,,,,,,,,,,,,,,610344869928e5cbcc7ebf23,610370897388e7c156ebdc44,2021-07-30_00h27.22.532,Simcolourproject_2stim_asymm_v5,2020.2.10,Win32,60,61025ae37ef11b136ea224fe,,,,,,,,,615,-31,-114,1,0,0,response5disk,,3,7,1,1,0,0,rectangle,7,1,1,0,0,7,1,1,0,0,1,131,291,19,1,,,,,,,,
,,,,,,,,,,,,,FF,,,,,,,,1.0326,,,,,,,,,,,,,,,,,,,,,,610344869928e5cbcc7ebf23,610370897388e7c156ebdc44,2021-07-30_00h27.22.532,Simcolourproject_2stim_asymm_v5,2020.2.10,Win32,60,61025ae37ef11b136ea224fe,,,,,,,,,3264,114,-106,1,0,0,response3disk,,5,12,-2,1,0,0,rectangle,12,-2,1,0,0,12,-2,1,0,0,1,132,292,39,1,,,,,,,,
,,,,,,,,,,,,,FF,,,,,,,,3.9863,,,,,,,,,,,,,,,,,,,,,,610344869928e5cbcc7ebf23,610370897388e7c156ebdc44,2021-07-30_00h27.22.532,Simcolourproject_2stim_asymm_v5,2020.2.10,Win32,60,61025ae37ef11b136ea224fe,,,,,,,,,1194,43,-79,1,0,0,response3disk,,4,35,-10,1,0,0,rectangle,35,-10,1,0,0,35,-10,1,0,0,1,133,293,136,1,,,,,,,,
,,,,,,,,,,,,,FF,,,,,,,,2.452,,,,,,,,,,,,,,,,,,,,,,610344869928e5cbcc7ebf23,610370897388e7c156ebdc44,2021-07-30_00h27.22.532,Simcolourproject_2stim_asymm_v5,2020.2.10,Win32,60,61025ae37ef11b136ea224fe,,,,,,,,,4018,108,-44,1,0,0,response3disk,,5,36,-6,1,0,0,rectangle,36,-6,1,0,0,36,-6,1,0,0,1,134,294,29,1,,,,,,,,
,,,,,,,,,,,,,FF,,,,,,,,0.8675,,,,,,,,,,,,,,,,,,,,,,610344869928e5cbcc7ebf23,610370897388e7c156ebdc44,2021-07-30_00h27.22.532,Simcolourproject_2stim_asymm_v5,2020.2.10,Win32,60,61025ae37ef11b136ea224fe,,,,,,,,,2520,111,-44,1,0,0,response3disk,,5,30,-1,1,0,0,rectangle,30,-1,1,0,0,30,-1,1,0,0,1,135,295,78,1,,,,,,,,
,,,,,,,,,,,,,FF,,,,,,,,0.8508,,,,,,,,,,,,,,,,,,,,,,610344869928e5cbcc7ebf23,610370897388e7c156ebdc44,2021-07-30_00h27.22.532,Simcolourproject_2stim_asymm_v5,2020.2.10,Win32,60,61025ae37ef11b136ea224fe,,,,,,,,,3122,130,-51,1,0,0,response3disk,,5,34,-3,1,0,0,rectangle,34,-3,1,0,0,34,-3,1,0,0,1,136,296,122,1,,,,,,,,
,,,,,,,,,,,,,FF,,,,,,,,1.0645,,,,,,,,,,,,,,,,,,,,,,610344869928e5cbcc7ebf23,610370897388e7c156ebdc44,2021-07-30_00h27.22.532,Simcolourproject_2stim_asymm_v5,2020.2.10,Win32,60,61025ae37ef11b136ea224fe,,,,,,,,,1863,144,33,1,0,0,response1disk,,6,39,0,1,0,0,rectangle,39,0,1,0,0,39,0,1,0,0,1,137,297,73,1,,,,,,,,
,,,,,,,,,,,,,FF,,,,,,,,0.6277,,,,,,,,,,,,,,,,,,,,,,610344869928e5cbcc7ebf23,610370897388e7c156ebdc44,2021-07-30_00h27.22.532,Simcolourproject_2stim_asymm_v5,2020.2.10,Win32,60,61025ae37ef11b136ea224fe,,,,,,,,,4172,116,32,1,0,0,response1disk,,6,30,15,1,0,0,rectangle,30,15,1,0,0,30,15,1,0,0,1,138,298,28,1,,,,,,,,
,,,,,,,,,,,,,FF,,,,,,,,0.647,,,,,,,,,,,,,,,,,,,,,,610344869928e5cbcc7ebf23,610370897388e7c156ebdc44,2021-07-30_00h27.22.532,Simcolourproject_2stim_asymm_v5,2020.2.10,Win32,60,61025ae37ef11b136ea224fe,,,,,,,,,35,93,30,1,0,0,response1disk,,6,23,13,1,0,0,rectangle,23,13,1,0,0,23,13,1,0,0,1,139,299,86,1,,,,,,,,
,,,,,,,,,,,,,FF,,,,,,,,0.9168,,,,,,,,,,,,,,,,,,,,,,610344869928e5cbcc7ebf23,610370897388e7c156ebdc44,2021-07-30_00h27.22.532,Simcolourproject_2stim_asymm_v5,2020.2.10,Win32,60,61025ae37ef11b136ea224fe,,,,,,,,,3382,-107,39,1,0,0,response7disk,,1,39,-5,1,0,0,rectangle,39,-5,1,0,0,39,-5,1,0,0,1,140,300,87,1,,,,,,,,
