key_resp.keys,key_resp.rt,key_resp_14.keys,key_resp_14.rt,key_resp_15.keys,key_resp_15.rt,key_resp_17.keys,key_resp_17.rt,key_resp_9.keys,key_resp_9.rt,key_resp_10.keys,key_resp_10.rt,practice_comparison,Ecc,mouse_5.x,mouse_5.y,mouse_5.leftButton,mouse_5.midButton,mouse_5.rightButton,mouse_5.clicked_name,pracsimilarity,response_time,mouse_10.x,mouse_10.y,mouse_10.leftButton,mouse_10.midButton,mouse_10.rightButton,mouse_10.clicked_name,mouse_7.x,mouse_7.y,mouse_7.leftButton,mouse_7.midButton,mouse_7.rightButton,mouse_6.x,mouse_6.y,mouse_6.leftButton,mouse_6.midButton,mouse_6.rightButton,duringprac.thisRepN,duringprac.thisTrialN,duringprac.thisN,duringprac.thisIndex,duringprac.ran,participant,session,date,expName,psychopyVersion,OS,frameRate,study_id,mouse_7.clicked_name,catchpracsimilarity,catch_response_time,catchnumberprac,catchtrialorderprac,mouse_6.clicked_name,key_resp_22.keys,key_resp_22.rt,realcomparison,mouse.x,mouse.y,mouse.leftButton,mouse.midButton,mouse.rightButton,mouse.clicked_name,Colour2,similarity,mouse_2.x,mouse_2.y,mouse_2.leftButton,mouse_2.midButton,mouse_2.rightButton,mouse_2.clicked_name,mouse_3.x,mouse_3.y,mouse_3.leftButton,mouse_3.midButton,mouse_3.rightButton,mouse_11.x,mouse_11.y,mouse_11.leftButton,mouse_11.midButton,mouse_11.rightButton,trials_2.thisRepN,trials_2.thisTrialN,trials_2.thisN,trials_2.thisIndex,trials_2.ran,Colour1,mouse_3.clicked_name,catchornah,catchsimilarity,catchnumber,catchtrialorder,catchRT,mouse_11.clicked_name
space,1.26,space,1.843,space,9.446,space,6.295,space,0.794,space,3.094,18,PF,26,70,1,0,0,response1disk_5,7,13.301,0,-1,1,0,0,rectangle_8,0,-1,1,0,0,0,-1,1,0,0,0,0,0,4,1,61034f3092f51520b90743d6,6103660c8f4a128797b1bdd3,2021-07-29_19h42.42.936,Simcolourproject_2stim_asymm_v5,2020.2.10,MacIntel,60,61025ae37ef11b136ea224fe,,,,,,,,,,,,,,,,,,,,,,,,,,,,,,,,,,,,,,,,,,,,,,
,,,,,,,,,,,,95,FF,-37,-69,1,0,0,response5disk_5,3,3.601,-3,10,1,0,0,rectangle_8,-26,80,1,0,0,-2,-3,1,0,0,0,1,1,3,1,61034f3092f51520b90743d6,6103660c8f4a128797b1bdd3,2021-07-29_19h42.42.936,Simcolourproject_2stim_asymm_v5,2020.2.10,MacIntel,60,61025ae37ef11b136ea224fe,response7disk_7,0,1.8,0,"[2,5]",rectangle_4,,,,,,,,,,,,,,,,,,,,,,,,,,,,,,,,,,,,,,,,
,,,,,,,,,,,,34,PF,34,73,1,0,0,response1disk_5,7,3.383,1,-5,1,0,0,rectangle_8,1,-5,1,0,0,1,-5,1,0,0,0,2,2,2,1,61034f3092f51520b90743d6,6103660c8f4a128797b1bdd3,2021-07-29_19h42.42.936,Simcolourproject_2stim_asymm_v5,2020.2.10,MacIntel,60,61025ae37ef11b136ea224fe,,,,,,,,,,,,,,,,,,,,,,,,,,,,,,,,,,,,,,,,,,,,,,
,,,,,,,,,,,,8,FF,34,-59,1,0,0,response3disk_5,4,2.334,-1,0,1,0,0,rectangle_8,-1,0,1,0,0,-1,0,1,0,0,0,3,3,5,1,61034f3092f51520b90743d6,6103660c8f4a128797b1bdd3,2021-07-29_19h42.42.936,Simcolourproject_2stim_asymm_v5,2020.2.10,MacIntel,60,61025ae37ef11b136ea224fe,,,,,,,,,,,,,,,,,,,,,,,,,,,,,,,,,,,,,,,,,,,,,,
,,,,,,,,,,,,156,PF,55,23,1,0,0,response1disk_5,6,4.068,-2,6,1,0,0,rectangle_8,-34,72,1,0,0,-3,-4,1,0,0,0,4,4,1,1,61034f3092f51520b90743d6,6103660c8f4a128797b1bdd3,2021-07-29_19h42.42.936,Simcolourproject_2stim_asymm_v5,2020.2.10,MacIntel,60,61025ae37ef11b136ea224fe,response7disk_7,0,1.549,0,"[2,5]",rectangle_4,,,,,,,,,,,,,,,,,,,,,,,,,,,,,,,,,,,,,,,,
,,,,,,,,,,,,3,FF,41,-71,1,0,0,response3disk_5,4,2.733,2,-3,1,0,0,rectangle_8,2,-3,1,0,0,2,-3,1,0,0,0,5,5,0,1,61034f3092f51520b90743d6,6103660c8f4a128797b1bdd3,2021-07-29_19h42.42.936,Simcolourproject_2stim_asymm_v5,2020.2.10,MacIntel,60,61025ae37ef11b136ea224fe,,,,,,,,,,,,,,,,,,,,,,,,,,,,,,,,,,,,,,,,,,,,,,
,,,,,,,,,,,,116,PF,35,-64,1,0,0,response3disk_5,4,1.916,-3,2,1,0,0,rectangle_8,-3,2,1,0,0,-3,2,1,0,0,0,6,6,6,1,61034f3092f51520b90743d6,6103660c8f4a128797b1bdd3,2021-07-29_19h42.42.936,Simcolourproject_2stim_asymm_v5,2020.2.10,MacIntel,60,61025ae37ef11b136ea224fe,,,,,,,,,,,,,,,,,,,,,,,,,,,,,,,,,,,,,,,,,,,,,,
,,,,,,,,,,,,,FF,,,,,,,,1.399,,,,,,,,,,,,,,,,,,,,,,61034f3092f51520b90743d6,6103660c8f4a128797b1bdd3,2021-07-29_19h42.42.936,Simcolourproject_2stim_asymm_v5,2020.2.10,MacIntel,60,61025ae37ef11b136ea224fe,,,,,,,space,2.553,3744,-68,32,1,0,0,response7disk,,1,-2,-9,1,0,0,rectangle,-2,-9,1,0,0,-2,-9,1,0,0,0,0,0,117,1,,,,,,,,
,,,,,,,,,,,,,FF,,,,,,,,2.317,,,,,,,,,,,,,,,,,,,,,,61034f3092f51520b90743d6,6103660c8f4a128797b1bdd3,2021-07-29_19h42.42.936,Simcolourproject_2stim_asymm_v5,2020.2.10,MacIntel,60,61025ae37ef11b136ea224fe,,,,,,,,,1033,-40,-61,1,0,0,response5disk,,3,-6,-2,1,0,0,rectangle,-6,-2,1,0,0,-6,-2,1,0,0,0,1,1,73,1,,,,,,,,
,,,,,,,,,,,,,FF,,,,,,,,1.234,,,,,,,,,,,,,,,,,,,,,,61034f3092f51520b90743d6,6103660c8f4a128797b1bdd3,2021-07-29_19h42.42.936,Simcolourproject_2stim_asymm_v5,2020.2.10,MacIntel,60,61025ae37ef11b136ea224fe,,,,,,,,,3899,-19,-50,1,0,0,response5disk,,3,2,5,1,0,0,rectangle,2,5,1,0,0,2,5,1,0,0,0,2,2,5,1,,,,,,,,
,,,,,,,,,,,,,FF,,,,,,,,0.767,,,,,,,,,,,,,,,,,,,,,,61034f3092f51520b90743d6,6103660c8f4a128797b1bdd3,2021-07-29_19h42.42.936,Simcolourproject_2stim_asymm_v5,2020.2.10,MacIntel,60,61025ae37ef11b136ea224fe,,,,,,,,,993,58,26,1,0,0,response1disk,,6,13,1,1,0,0,rectangle,13,1,1,0,0,13,1,1,0,0,0,3,3,150,1,,,,,,,,
,,,,,,,,,,,,,FF,,,,,,,,0.848,,,,,,,,,,,,,,,,,,,,,,61034f3092f51520b90743d6,6103660c8f4a128797b1bdd3,2021-07-29_19h42.42.936,Simcolourproject_2stim_asymm_v5,2020.2.10,MacIntel,60,61025ae37ef11b136ea224fe,,,,,,,,,2324,32,69,1,0,0,response1disk,,7,15,7,1,0,0,rectangle,15,7,1,0,0,15,7,1,0,0,0,4,4,108,1,,,,,,,,
,,,,,,,,,,,,,FF,,,,,,,,1.349,,,,,,,,,,,,,,,,,,,,,,61034f3092f51520b90743d6,6103660c8f4a128797b1bdd3,2021-07-29_19h42.42.936,Simcolourproject_2stim_asymm_v5,2020.2.10,MacIntel,60,61025ae37ef11b136ea224fe,,,,,,,,,1832,-45,-70,1,0,0,response5disk,,3,-7,2,1,0,0,rectangle,-7,2,1,0,0,-7,2,1,0,0,0,5,5,88,1,,,,,,,,
,,,,,,,,,,,,,FF,,,,,,,,0.949,,,,,,,,,,,,,,,,,,,,,,61034f3092f51520b90743d6,6103660c8f4a128797b1bdd3,2021-07-29_19h42.42.936,Simcolourproject_2stim_asymm_v5,2020.2.10,MacIntel,60,61025ae37ef11b136ea224fe,,,,,,,,,82,-53,-36,1,0,0,response5disk,,2,-6,1,1,0,0,rectangle,-6,1,1,0,0,-6,1,1,0,0,0,6,6,98,1,,,,,,,,
,,,,,,,,,,,,,FF,,,,,,,,1.484,,,,,,,,,,,,,,,,,,,,,,61034f3092f51520b90743d6,6103660c8f4a128797b1bdd3,2021-07-29_19h42.42.936,Simcolourproject_2stim_asymm_v5,2020.2.10,MacIntel,60,61025ae37ef11b136ea224fe,,,,,,,,,2227,-72,-23,1,0,0,response5disk,,2,8,5,1,0,0,rectangle,8,5,1,0,0,8,5,1,0,0,0,7,7,149,1,,,,,,,,
,,,,,,,,,,,,,FF,,,,,,,,1.27,,,,,,,,,,,,,,,,,,,,,,61034f3092f51520b90743d6,6103660c8f4a128797b1bdd3,2021-07-29_19h42.42.936,Simcolourproject_2stim_asymm_v5,2020.2.10,MacIntel,60,61025ae37ef11b136ea224fe,,,,,,,,,4301,35,-52,1,0,0,response3disk,,4,8,-7,1,0,0,rectangle,34,76,1,0,0,4,-10,1,0,0,0,8,8,113,1,,response1disk_3,TRUE,7,7,"[101,120,113,40,9,290,106,232,81,175,253,168,79,312,281,29,79,145,22,190]",1.466,rectangle
,,,,,,,,,,,,,FF,,,,,,,,1.1,,,,,,,,,,,,,,,,,,,,,,61034f3092f51520b90743d6,6103660c8f4a128797b1bdd3,2021-07-29_19h42.42.936,Simcolourproject_2stim_asymm_v5,2020.2.10,MacIntel,60,61025ae37ef11b136ea224fe,,,,,,,,,1043,51,-26,1,0,0,response3disk,,5,-11,0,1,0,0,rectangle,-11,0,1,0,0,-11,0,1,0,0,0,9,9,130,1,,,,,,,,
,,,,,,,,,,,,,FF,,,,,,,,0.9,,,,,,,,,,,,,,,,,,,,,,61034f3092f51520b90743d6,6103660c8f4a128797b1bdd3,2021-07-29_19h42.42.936,Simcolourproject_2stim_asymm_v5,2020.2.10,MacIntel,60,61025ae37ef11b136ea224fe,,,,,,,,,2575,25,49,1,0,0,response1disk,,7,0,-14,1,0,0,rectangle,0,-14,1,0,0,0,-14,1,0,0,0,10,10,30,1,,,,,,,,
,,,,,,,,,,,,,FF,,,,,,,,1.25,,,,,,,,,,,,,,,,,,,,,,61034f3092f51520b90743d6,6103660c8f4a128797b1bdd3,2021-07-29_19h42.42.936,Simcolourproject_2stim_asymm_v5,2020.2.10,MacIntel,60,61025ae37ef11b136ea224fe,,,,,,,,,4034,35,-61,1,0,0,response3disk,,4,4,-11,1,0,0,rectangle,4,-11,1,0,0,4,-11,1,0,0,0,11,11,10,1,,,,,,,,
,,,,,,,,,,,,,FF,,,,,,,,1.316,,,,,,,,,,,,,,,,,,,,,,61034f3092f51520b90743d6,6103660c8f4a128797b1bdd3,2021-07-29_19h42.42.936,Simcolourproject_2stim_asymm_v5,2020.2.10,MacIntel,60,61025ae37ef11b136ea224fe,,,,,,,,,663,40,-25,1,0,0,response3disk,,5,-7,2,1,0,0,rectangle,-7,2,1,0,0,-7,2,1,0,0,0,12,12,90,1,,,,,,,,
,,,,,,,,,,,,,FF,,,,,,,,1.699,,,,,,,,,,,,,,,,,,,,,,61034f3092f51520b90743d6,6103660c8f4a128797b1bdd3,2021-07-29_19h42.42.936,Simcolourproject_2stim_asymm_v5,2020.2.10,MacIntel,60,61025ae37ef11b136ea224fe,,,,,,,,,550,-44,-73,1,0,0,response5disk,,3,6,4,1,0,0,rectangle,6,4,1,0,0,6,4,1,0,0,0,13,13,146,1,,,,,,,,
,,,,,,,,,,,,,FF,,,,,,,,4.216,,,,,,,,,,,,,,,,,,,,,,61034f3092f51520b90743d6,6103660c8f4a128797b1bdd3,2021-07-29_19h42.42.936,Simcolourproject_2stim_asymm_v5,2020.2.10,MacIntel,60,61025ae37ef11b136ea224fe,,,,,,,,,3794,20,41,1,0,0,response1disk,,7,11,-6,1,0,0,rectangle,11,-6,1,0,0,11,-6,1,0,0,0,14,14,141,1,,,,,,,,
,,,,,,,,,,,,,FF,,,,,,,,1.066,,,,,,,,,,,,,,,,,,,,,,61034f3092f51520b90743d6,6103660c8f4a128797b1bdd3,2021-07-29_19h42.42.936,Simcolourproject_2stim_asymm_v5,2020.2.10,MacIntel,60,61025ae37ef11b136ea224fe,,,,,,,,,521,51,-31,1,0,0,response3disk,,5,-11,5,1,0,0,rectangle,-11,5,1,0,0,-11,5,1,0,0,0,15,15,62,1,,,,,,,,
,,,,,,,,,,,,,FF,,,,,,,,0.767,,,,,,,,,,,,,,,,,,,,,,61034f3092f51520b90743d6,6103660c8f4a128797b1bdd3,2021-07-29_19h42.42.936,Simcolourproject_2stim_asymm_v5,2020.2.10,MacIntel,60,61025ae37ef11b136ea224fe,,,,,,,,,3425,-62,24,1,0,0,response7disk,,1,-13,13,1,0,0,rectangle,-13,13,1,0,0,-13,13,1,0,0,0,16,16,43,1,,,,,,,,
,,,,,,,,,,,,,FF,,,,,,,,1.067,,,,,,,,,,,,,,,,,,,,,,61034f3092f51520b90743d6,6103660c8f4a128797b1bdd3,2021-07-29_19h42.42.936,Simcolourproject_2stim_asymm_v5,2020.2.10,MacIntel,60,61025ae37ef11b136ea224fe,,,,,,,,,2162,-60,-31,1,0,0,response5disk,,2,-9,7,1,0,0,rectangle,-9,7,1,0,0,-9,7,1,0,0,0,17,17,44,1,,,,,,,,
,,,,,,,,,,,,,FF,,,,,,,,1.367,,,,,,,,,,,,,,,,,,,,,,61034f3092f51520b90743d6,6103660c8f4a128797b1bdd3,2021-07-29_19h42.42.936,Simcolourproject_2stim_asymm_v5,2020.2.10,MacIntel,60,61025ae37ef11b136ea224fe,,,,,,,,,2763,75,35,1,0,0,response1disk,,6,18,-5,1,0,0,rectangle,18,-5,1,0,0,18,-5,1,0,0,0,18,18,33,1,,,,,,,,
,,,,,,,,,,,,,FF,,,,,,,,1.266,,,,,,,,,,,,,,,,,,,,,,61034f3092f51520b90743d6,6103660c8f4a128797b1bdd3,2021-07-29_19h42.42.936,Simcolourproject_2stim_asymm_v5,2020.2.10,MacIntel,60,61025ae37ef11b136ea224fe,,,,,,,,,1507,30,61,1,0,0,response1disk,,7,-1,-10,1,0,0,rectangle,-1,-10,1,0,0,-1,-10,1,0,0,0,19,19,136,1,,,,,,,,
,,,,,,,,,,,,,FF,,,,,,,,1.399,,,,,,,,,,,,,,,,,,,,,,61034f3092f51520b90743d6,6103660c8f4a128797b1bdd3,2021-07-29_19h42.42.936,Simcolourproject_2stim_asymm_v5,2020.2.10,MacIntel,60,61025ae37ef11b136ea224fe,,,,,,,,,802,-51,-62,1,0,0,response5disk,,3,-2,-6,1,0,0,rectangle,-2,-6,1,0,0,-2,-6,1,0,0,0,20,20,11,1,,,,,,,,
,,,,,,,,,,,,,FF,,,,,,,,0.968,,,,,,,,,,,,,,,,,,,,,,61034f3092f51520b90743d6,6103660c8f4a128797b1bdd3,2021-07-29_19h42.42.936,Simcolourproject_2stim_asymm_v5,2020.2.10,MacIntel,60,61025ae37ef11b136ea224fe,,,,,,,,,3726,54,-31,1,0,0,response3disk,,5,10,-5,1,0,0,rectangle,-74,-51,1,0,0,4,-6,1,0,0,0,21,21,14,1,,response5disk_3,TRUE,2,2,"[101,120,113,40,9,290,106,232,81,175,253,168,79,312,281,29,79,145,22,190]",1.75,rectangle
,,,,,,,,,,,,,FF,,,,,,,,0.883,,,,,,,,,,,,,,,,,,,,,,61034f3092f51520b90743d6,6103660c8f4a128797b1bdd3,2021-07-29_19h42.42.936,Simcolourproject_2stim_asymm_v5,2020.2.10,MacIntel,60,61025ae37ef11b136ea224fe,,,,,,,,,1219,-29,-67,1,0,0,response5disk,,3,-1,-8,1,0,0,rectangle,-1,-8,1,0,0,-1,-8,1,0,0,0,22,22,66,1,,,,,,,,
,,,,,,,,,,,,,FF,,,,,,,,1.147,,,,,,,,,,,,,,,,,,,,,,61034f3092f51520b90743d6,6103660c8f4a128797b1bdd3,2021-07-29_19h42.42.936,Simcolourproject_2stim_asymm_v5,2020.2.10,MacIntel,60,61025ae37ef11b136ea224fe,,,,,,,,,367,-68,-42,1,0,0,response5disk,,2,-6,-5,1,0,0,rectangle,-6,-5,1,0,0,-6,-5,1,0,0,0,23,23,35,1,,,,,,,,
,,,,,,,,,,,,,FF,,,,,,,,0.85,,,,,,,,,,,,,,,,,,,,,,61034f3092f51520b90743d6,6103660c8f4a128797b1bdd3,2021-07-29_19h42.42.936,Simcolourproject_2stim_asymm_v5,2020.2.10,MacIntel,60,61025ae37ef11b136ea224fe,,,,,,,,,562,60,29,1,0,0,response1disk,,6,12,5,1,0,0,rectangle,12,5,1,0,0,12,5,1,0,0,0,24,24,70,1,,,,,,,,
,,,,,,,,,,,,,FF,,,,,,,,1.466,,,,,,,,,,,,,,,,,,,,,,61034f3092f51520b90743d6,6103660c8f4a128797b1bdd3,2021-07-29_19h42.42.936,Simcolourproject_2stim_asymm_v5,2020.2.10,MacIntel,60,61025ae37ef11b136ea224fe,,,,,,,,,2397,68,30,1,0,0,response1disk,,6,10,1,1,0,0,rectangle,10,1,1,0,0,10,1,1,0,0,0,25,25,139,1,,,,,,,,
,,,,,,,,,,,,,FF,,,,,,,,0.8,,,,,,,,,,,,,,,,,,,,,,61034f3092f51520b90743d6,6103660c8f4a128797b1bdd3,2021-07-29_19h42.42.936,Simcolourproject_2stim_asymm_v5,2020.2.10,MacIntel,60,61025ae37ef11b136ea224fe,,,,,,,,,608,26,54,1,0,0,response1disk,,7,5,-6,1,0,0,rectangle,5,-6,1,0,0,5,-6,1,0,0,0,26,26,120,1,,,,,,,,
,,,,,,,,,,,,,FF,,,,,,,,1.233,,,,,,,,,,,,,,,,,,,,,,61034f3092f51520b90743d6,6103660c8f4a128797b1bdd3,2021-07-29_19h42.42.936,Simcolourproject_2stim_asymm_v5,2020.2.10,MacIntel,60,61025ae37ef11b136ea224fe,,,,,,,,,2049,44,-27,1,0,0,response3disk,,5,6,-4,1,0,0,rectangle,6,-4,1,0,0,6,-4,1,0,0,0,27,27,132,1,,,,,,,,
,,,,,,,,,,,,,FF,,,,,,,,1.084,,,,,,,,,,,,,,,,,,,,,,61034f3092f51520b90743d6,6103660c8f4a128797b1bdd3,2021-07-29_19h42.42.936,Simcolourproject_2stim_asymm_v5,2020.2.10,MacIntel,60,61025ae37ef11b136ea224fe,,,,,,,,,1211,-47,64,1,0,0,response7disk,,0,-12,6,1,0,0,rectangle,34,66,1,0,0,6,-3,1,0,0,0,28,28,131,1,,response1disk_3,TRUE,7,7,"[101,120,113,40,9,290,106,232,81,175,253,168,79,312,281,29,79,145,22,190]",1.567,rectangle
,,,,,,,,,,,,,FF,,,,,,,,8.932,,,,,,,,,,,,,,,,,,,,,,61034f3092f51520b90743d6,6103660c8f4a128797b1bdd3,2021-07-29_19h42.42.936,Simcolourproject_2stim_asymm_v5,2020.2.10,MacIntel,60,61025ae37ef11b136ea224fe,,,,,,,,,1272,46,23,1,0,0,response1disk,,6,13,3,1,0,0,rectangle,13,3,1,0,0,13,3,1,0,0,0,29,29,76,1,,,,,,,,
,,,,,,,,,,,,,FF,,,,,,,,0.9,,,,,,,,,,,,,,,,,,,,,,61034f3092f51520b90743d6,6103660c8f4a128797b1bdd3,2021-07-29_19h42.42.936,Simcolourproject_2stim_asymm_v5,2020.2.10,MacIntel,60,61025ae37ef11b136ea224fe,,,,,,,,,3967,-45,-23,1,0,0,response5disk,,2,24,-1,1,0,0,rectangle,24,-1,1,0,0,24,-1,1,0,0,0,30,30,45,1,,,,,,,,
,,,,,,,,,,,,,FF,,,,,,,,0.967,,,,,,,,,,,,,,,,,,,,,,61034f3092f51520b90743d6,6103660c8f4a128797b1bdd3,2021-07-29_19h42.42.936,Simcolourproject_2stim_asymm_v5,2020.2.10,MacIntel,60,61025ae37ef11b136ea224fe,,,,,,,,,1380,39,-18,1,0,0,response3disk,,5,2,6,1,0,0,rectangle,2,6,1,0,0,2,6,1,0,0,0,31,31,12,1,,,,,,,,
,,,,,,,,,,,,,FF,,,,,,,,1,,,,,,,,,,,,,,,,,,,,,,61034f3092f51520b90743d6,6103660c8f4a128797b1bdd3,2021-07-29_19h42.42.936,Simcolourproject_2stim_asymm_v5,2020.2.10,MacIntel,60,61025ae37ef11b136ea224fe,,,,,,,,,47,58,24,1,0,0,response1disk,,6,13,-7,1,0,0,rectangle,13,-7,1,0,0,13,-7,1,0,0,0,32,32,31,1,,,,,,,,
,,,,,,,,,,,,,FF,,,,,,,,1.4,,,,,,,,,,,,,,,,,,,,,,61034f3092f51520b90743d6,6103660c8f4a128797b1bdd3,2021-07-29_19h42.42.936,Simcolourproject_2stim_asymm_v5,2020.2.10,MacIntel,60,61025ae37ef11b136ea224fe,,,,,,,,,2941,-64,31,1,0,0,response7disk,,1,0,-9,1,0,0,rectangle,0,-9,1,0,0,0,-9,1,0,0,0,33,33,6,1,,,,,,,,
,,,,,,,,,,,,,FF,,,,,,,,1.068,,,,,,,,,,,,,,,,,,,,,,61034f3092f51520b90743d6,6103660c8f4a128797b1bdd3,2021-07-29_19h42.42.936,Simcolourproject_2stim_asymm_v5,2020.2.10,MacIntel,60,61025ae37ef11b136ea224fe,,,,,,,,,1096,36,57,1,0,0,response1disk,,7,2,-10,1,0,0,rectangle,2,-10,1,0,0,2,-10,1,0,0,0,34,34,93,1,,,,,,,,
,,,,,,,,,,,,,FF,,,,,,,,0.866,,,,,,,,,,,,,,,,,,,,,,61034f3092f51520b90743d6,6103660c8f4a128797b1bdd3,2021-07-29_19h42.42.936,Simcolourproject_2stim_asymm_v5,2020.2.10,MacIntel,60,61025ae37ef11b136ea224fe,,,,,,,,,3107,-21,-48,1,0,0,response5disk,,3,-4,-8,1,0,0,rectangle,-4,-8,1,0,0,-4,-8,1,0,0,0,35,35,53,1,,,,,,,,
,,,,,,,,,,,,,FF,,,,,,,,1.117,,,,,,,,,,,,,,,,,,,,,,61034f3092f51520b90743d6,6103660c8f4a128797b1bdd3,2021-07-29_19h42.42.936,Simcolourproject_2stim_asymm_v5,2020.2.10,MacIntel,60,61025ae37ef11b136ea224fe,,,,,,,,,2042,53,-38,1,0,0,response3disk,,5,-3,2,1,0,0,rectangle,-3,2,1,0,0,-3,2,1,0,0,0,36,36,144,1,,,,,,,,
,,,,,,,,,,,,,FF,,,,,,,,1.266,,,,,,,,,,,,,,,,,,,,,,61034f3092f51520b90743d6,6103660c8f4a128797b1bdd3,2021-07-29_19h42.42.936,Simcolourproject_2stim_asymm_v5,2020.2.10,MacIntel,60,61025ae37ef11b136ea224fe,,,,,,,,,1467,39,-56,1,0,0,response3disk,,4,15,-14,1,0,0,rectangle,15,-14,1,0,0,15,-14,1,0,0,0,37,37,77,1,,,,,,,,
,,,,,,,,,,,,,FF,,,,,,,,0.899,,,,,,,,,,,,,,,,,,,,,,61034f3092f51520b90743d6,6103660c8f4a128797b1bdd3,2021-07-29_19h42.42.936,Simcolourproject_2stim_asymm_v5,2020.2.10,MacIntel,60,61025ae37ef11b136ea224fe,,,,,,,,,4111,37,64,1,0,0,response1disk,,7,14,11,1,0,0,rectangle,14,11,1,0,0,14,11,1,0,0,0,38,38,106,1,,,,,,,,
,,,,,,,,,,,,,FF,,,,,,,,2.233,,,,,,,,,,,,,,,,,,,,,,61034f3092f51520b90743d6,6103660c8f4a128797b1bdd3,2021-07-29_19h42.42.936,Simcolourproject_2stim_asymm_v5,2020.2.10,MacIntel,60,61025ae37ef11b136ea224fe,,,,,,,,,3757,53,-22,1,0,0,response3disk,,5,25,0,1,0,0,rectangle,36,74,1,0,0,13,-1,1,0,0,0,39,39,107,1,,response1disk_3,TRUE,7,7,"[101,120,113,40,9,290,106,232,81,175,253,168,79,312,281,29,79,145,22,190]",1.266,rectangle
,,,,,,,,,,,,,FF,,,,,,,,0.851,,,,,,,,,,,,,,,,,,,,,,61034f3092f51520b90743d6,6103660c8f4a128797b1bdd3,2021-07-29_19h42.42.936,Simcolourproject_2stim_asymm_v5,2020.2.10,MacIntel,60,61025ae37ef11b136ea224fe,,,,,,,,,2692,53,22,1,0,0,response1disk,,6,11,1,1,0,0,rectangle,11,1,1,0,0,11,1,1,0,0,0,40,40,40,1,,,,,,,,
,,,,,,,,,,,,,FF,,,,,,,,0.8,,,,,,,,,,,,,,,,,,,,,,61034f3092f51520b90743d6,6103660c8f4a128797b1bdd3,2021-07-29_19h42.42.936,Simcolourproject_2stim_asymm_v5,2020.2.10,MacIntel,60,61025ae37ef11b136ea224fe,,,,,,,,,1924,47,26,1,0,0,response1disk,,6,2,1,1,0,0,rectangle,2,1,1,0,0,2,1,1,0,0,0,41,41,18,1,,,,,,,,
,,,,,,,,,,,,,FF,,,,,,,,1.15,,,,,,,,,,,,,,,,,,,,,,61034f3092f51520b90743d6,6103660c8f4a128797b1bdd3,2021-07-29_19h42.42.936,Simcolourproject_2stim_asymm_v5,2020.2.10,MacIntel,60,61025ae37ef11b136ea224fe,,,,,,,,,3405,51,31,1,0,0,response1disk,,6,5,11,1,0,0,rectangle,5,11,1,0,0,5,11,1,0,0,0,42,42,145,1,,,,,,,,
,,,,,,,,,,,,,FF,,,,,,,,1.416,,,,,,,,,,,,,,,,,,,,,,61034f3092f51520b90743d6,6103660c8f4a128797b1bdd3,2021-07-29_19h42.42.936,Simcolourproject_2stim_asymm_v5,2020.2.10,MacIntel,60,61025ae37ef11b136ea224fe,,,,,,,,,4345,-62,-35,1,0,0,response5disk,,2,-13,-4,1,0,0,rectangle,-13,-4,1,0,0,-13,-4,1,0,0,0,43,43,111,1,,,,,,,,
,,,,,,,,,,,,,FF,,,,,,,,1.482,,,,,,,,,,,,,,,,,,,,,,61034f3092f51520b90743d6,6103660c8f4a128797b1bdd3,2021-07-29_19h42.42.936,Simcolourproject_2stim_asymm_v5,2020.2.10,MacIntel,60,61025ae37ef11b136ea224fe,,,,,,,,,1350,21,-57,1,0,0,response3disk,,4,1,7,1,0,0,rectangle,1,7,1,0,0,1,7,1,0,0,0,44,44,134,1,,,,,,,,
,,,,,,,,,,,,,FF,,,,,,,,0.765,,,,,,,,,,,,,,,,,,,,,,61034f3092f51520b90743d6,6103660c8f4a128797b1bdd3,2021-07-29_19h42.42.936,Simcolourproject_2stim_asymm_v5,2020.2.10,MacIntel,60,61025ae37ef11b136ea224fe,,,,,,,,,1281,26,71,1,0,0,response1disk,,7,4,-14,1,0,0,rectangle,4,-14,1,0,0,4,-14,1,0,0,0,45,45,137,1,,,,,,,,
,,,,,,,,,,,,,FF,,,,,,,,0.9,,,,,,,,,,,,,,,,,,,,,,61034f3092f51520b90743d6,6103660c8f4a128797b1bdd3,2021-07-29_19h42.42.936,Simcolourproject_2stim_asymm_v5,2020.2.10,MacIntel,60,61025ae37ef11b136ea224fe,,,,,,,,,740,60,-20,1,0,0,response3disk,,5,6,3,1,0,0,rectangle,6,3,1,0,0,6,3,1,0,0,0,46,46,36,1,,,,,,,,
,,,,,,,,,,,,,FF,,,,,,,,1.167,,,,,,,,,,,,,,,,,,,,,,61034f3092f51520b90743d6,6103660c8f4a128797b1bdd3,2021-07-29_19h42.42.936,Simcolourproject_2stim_asymm_v5,2020.2.10,MacIntel,60,61025ae37ef11b136ea224fe,,,,,,,,,3075,50,26,1,0,0,response1disk,,6,3,-7,1,0,0,rectangle,3,-7,1,0,0,3,-7,1,0,0,0,47,47,24,1,,,,,,,,
,,,,,,,,,,,,,FF,,,,,,,,0.849,,,,,,,,,,,,,,,,,,,,,,61034f3092f51520b90743d6,6103660c8f4a128797b1bdd3,2021-07-29_19h42.42.936,Simcolourproject_2stim_asymm_v5,2020.2.10,MacIntel,60,61025ae37ef11b136ea224fe,,,,,,,,,1984,50,23,1,0,0,response1disk,,6,4,-1,1,0,0,rectangle,4,-1,1,0,0,4,-1,1,0,0,0,48,48,119,1,,,,,,,,
,,,,,,,,,,,,,FF,,,,,,,,0.884,,,,,,,,,,,,,,,,,,,,,,61034f3092f51520b90743d6,6103660c8f4a128797b1bdd3,2021-07-29_19h42.42.936,Simcolourproject_2stim_asymm_v5,2020.2.10,MacIntel,60,61025ae37ef11b136ea224fe,,,,,,,,,2392,41,20,1,0,0,response1disk,,6,5,6,1,0,0,rectangle,5,6,1,0,0,5,6,1,0,0,0,49,49,56,1,,,,,,,,
,,,,,,,,,,,,,FF,,,,,,,,0.766,,,,,,,,,,,,,,,,,,,,,,61034f3092f51520b90743d6,6103660c8f4a128797b1bdd3,2021-07-29_19h42.42.936,Simcolourproject_2stim_asymm_v5,2020.2.10,MacIntel,60,61025ae37ef11b136ea224fe,,,,,,,,,234,47,-24,1,0,0,response3disk,,5,-4,3,1,0,0,rectangle,-4,3,1,0,0,-4,3,1,0,0,0,50,50,115,1,,,,,,,,
,,,,,,,,,,,,,FF,,,,,,,,0.934,,,,,,,,,,,,,,,,,,,,,,61034f3092f51520b90743d6,6103660c8f4a128797b1bdd3,2021-07-29_19h42.42.936,Simcolourproject_2stim_asymm_v5,2020.2.10,MacIntel,60,61025ae37ef11b136ea224fe,,,,,,,,,2898,-32,-51,1,0,0,response5disk,,3,-4,3,1,0,0,rectangle,-4,3,1,0,0,-4,3,1,0,0,0,51,51,27,1,,,,,,,,
,,,,,,,,,,,,,FF,,,,,,,,0.833,,,,,,,,,,,,,,,,,,,,,,61034f3092f51520b90743d6,6103660c8f4a128797b1bdd3,2021-07-29_19h42.42.936,Simcolourproject_2stim_asymm_v5,2020.2.10,MacIntel,60,61025ae37ef11b136ea224fe,,,,,,,,,2439,50,25,1,0,0,response1disk,,6,9,-1,1,0,0,rectangle,9,-1,1,0,0,9,-1,1,0,0,0,52,52,54,1,,,,,,,,
,,,,,,,,,,,,,FF,,,,,,,,1.034,,,,,,,,,,,,,,,,,,,,,,61034f3092f51520b90743d6,6103660c8f4a128797b1bdd3,2021-07-29_19h42.42.936,Simcolourproject_2stim_asymm_v5,2020.2.10,MacIntel,60,61025ae37ef11b136ea224fe,,,,,,,,,1399,54,20,1,0,0,response1disk,,6,11,0,1,0,0,rectangle,11,0,1,0,0,11,0,1,0,0,0,53,53,8,1,,,,,,,,
,,,,,,,,,,,,,FF,,,,,,,,0.716,,,,,,,,,,,,,,,,,,,,,,61034f3092f51520b90743d6,6103660c8f4a128797b1bdd3,2021-07-29_19h42.42.936,Simcolourproject_2stim_asymm_v5,2020.2.10,MacIntel,60,61025ae37ef11b136ea224fe,,,,,,,,,3492,25,55,1,0,0,response1disk,,7,12,9,1,0,0,rectangle,12,9,1,0,0,12,9,1,0,0,0,54,54,92,1,,,,,,,,
,,,,,,,,,,,,,FF,,,,,,,,0.733,,,,,,,,,,,,,,,,,,,,,,61034f3092f51520b90743d6,6103660c8f4a128797b1bdd3,2021-07-29_19h42.42.936,Simcolourproject_2stim_asymm_v5,2020.2.10,MacIntel,60,61025ae37ef11b136ea224fe,,,,,,,,,1501,22,50,1,0,0,response1disk,,7,10,5,1,0,0,rectangle,10,5,1,0,0,10,5,1,0,0,0,55,55,21,1,,,,,,,,
,,,,,,,,,,,,,FF,,,,,,,,1.5,,,,,,,,,,,,,,,,,,,,,,61034f3092f51520b90743d6,6103660c8f4a128797b1bdd3,2021-07-29_19h42.42.936,Simcolourproject_2stim_asymm_v5,2020.2.10,MacIntel,60,61025ae37ef11b136ea224fe,,,,,,,,,2322,69,-56,1,0,0,response3disk,,5,19,2,1,0,0,rectangle,19,2,1,0,0,19,2,1,0,0,0,56,56,55,1,,,,,,,,
,,,,,,,,,,,,,FF,,,,,,,,0.934,,,,,,,,,,,,,,,,,,,,,,61034f3092f51520b90743d6,6103660c8f4a128797b1bdd3,2021-07-29_19h42.42.936,Simcolourproject_2stim_asymm_v5,2020.2.10,MacIntel,60,61025ae37ef11b136ea224fe,,,,,,,,,3984,33,52,1,0,0,response1disk,,7,15,6,1,0,0,rectangle,15,6,1,0,0,15,6,1,0,0,0,57,57,157,1,,,,,,,,
,,,,,,,,,,,,,FF,,,,,,,,0.9,,,,,,,,,,,,,,,,,,,,,,61034f3092f51520b90743d6,6103660c8f4a128797b1bdd3,2021-07-29_19h42.42.936,Simcolourproject_2stim_asymm_v5,2020.2.10,MacIntel,60,61025ae37ef11b136ea224fe,,,,,,,,,2759,55,24,1,0,0,response1disk,,6,7,0,1,0,0,rectangle,7,0,1,0,0,7,0,1,0,0,0,58,58,2,1,,,,,,,,
,,,,,,,,,,,,,FF,,,,,,,,1,,,,,,,,,,,,,,,,,,,,,,61034f3092f51520b90743d6,6103660c8f4a128797b1bdd3,2021-07-29_19h42.42.936,Simcolourproject_2stim_asymm_v5,2020.2.10,MacIntel,60,61025ae37ef11b136ea224fe,,,,,,,,,959,53,-34,1,0,0,response3disk,,5,5,-4,1,0,0,rectangle,5,-4,1,0,0,5,-4,1,0,0,0,59,59,94,1,,,,,,,,
,,,,,,,,,,,,,FF,,,,,,,,1.517,,,,,,,,,,,,,,,,,,,,,,61034f3092f51520b90743d6,6103660c8f4a128797b1bdd3,2021-07-29_19h42.42.936,Simcolourproject_2stim_asymm_v5,2020.2.10,MacIntel,60,61025ae37ef11b136ea224fe,,,,,,,,,3641,44,25,1,0,0,response1disk,,6,-1,-1,1,0,0,rectangle,-1,-1,1,0,0,-1,-1,1,0,0,0,60,60,29,1,,,,,,,,
,,,,,,,,,,,,,FF,,,,,,,,13.783,,,,,,,,,,,,,,,,,,,,,,61034f3092f51520b90743d6,6103660c8f4a128797b1bdd3,2021-07-29_19h42.42.936,Simcolourproject_2stim_asymm_v5,2020.2.10,MacIntel,60,61025ae37ef11b136ea224fe,,,,,,,,,189,55,32,1,0,0,response1disk,,6,15,3,1,0,0,rectangle,15,3,1,0,0,15,3,1,0,0,0,61,61,75,1,,,,,,,,
,,,,,,,,,,,,,FF,,,,,,,,1.083,,,,,,,,,,,,,,,,,,,,,,61034f3092f51520b90743d6,6103660c8f4a128797b1bdd3,2021-07-29_19h42.42.936,Simcolourproject_2stim_asymm_v5,2020.2.10,MacIntel,60,61025ae37ef11b136ea224fe,,,,,,,,,2939,27,-54,1,0,0,response3disk,,4,8,4,1,0,0,rectangle,8,4,1,0,0,8,4,1,0,0,0,62,62,123,1,,,,,,,,
,,,,,,,,,,,,,FF,,,,,,,,1.449,,,,,,,,,,,,,,,,,,,,,,61034f3092f51520b90743d6,6103660c8f4a128797b1bdd3,2021-07-29_19h42.42.936,Simcolourproject_2stim_asymm_v5,2020.2.10,MacIntel,60,61025ae37ef11b136ea224fe,,,,,,,,,807,-67,-30,1,0,0,response5disk,,2,-6,-2,1,0,0,rectangle,-6,-2,1,0,0,-6,-2,1,0,0,0,63,63,153,1,,,,,,,,
,,,,,,,,,,,,,FF,,,,,,,,0.75,,,,,,,,,,,,,,,,,,,,,,61034f3092f51520b90743d6,6103660c8f4a128797b1bdd3,2021-07-29_19h42.42.936,Simcolourproject_2stim_asymm_v5,2020.2.10,MacIntel,60,61025ae37ef11b136ea224fe,,,,,,,,,3877,-26,-56,1,0,0,response5disk,,3,-3,-7,1,0,0,rectangle,-3,-7,1,0,0,-3,-7,1,0,0,0,64,64,47,1,,,,,,,,
,,,,,,,,,,,,,FF,,,,,,,,1,,,,,,,,,,,,,,,,,,,,,,61034f3092f51520b90743d6,6103660c8f4a128797b1bdd3,2021-07-29_19h42.42.936,Simcolourproject_2stim_asymm_v5,2020.2.10,MacIntel,60,61025ae37ef11b136ea224fe,,,,,,,,,2603,25,-56,1,0,0,response3disk,,4,0,5,1,0,0,rectangle,0,5,1,0,0,0,5,1,0,0,0,65,65,125,1,,,,,,,,
,,,,,,,,,,,,,FF,,,,,,,,0.666,,,,,,,,,,,,,,,,,,,,,,61034f3092f51520b90743d6,6103660c8f4a128797b1bdd3,2021-07-29_19h42.42.936,Simcolourproject_2stim_asymm_v5,2020.2.10,MacIntel,60,61025ae37ef11b136ea224fe,,,,,,,,,1362,59,29,1,0,0,response1disk,,6,17,1,1,0,0,rectangle,17,1,1,0,0,17,1,1,0,0,0,66,66,122,1,,,,,,,,
,,,,,,,,,,,,,FF,,,,,,,,0.915,,,,,,,,,,,,,,,,,,,,,,61034f3092f51520b90743d6,6103660c8f4a128797b1bdd3,2021-07-29_19h42.42.936,Simcolourproject_2stim_asymm_v5,2020.2.10,MacIntel,60,61025ae37ef11b136ea224fe,,,,,,,,,836,59,-39,1,0,0,response3disk,,5,-15,-3,1,0,0,rectangle,-15,-3,1,0,0,-15,-3,1,0,0,0,67,67,63,1,,,,,,,,
,,,,,,,,,,,,,FF,,,,,,,,1.182,,,,,,,,,,,,,,,,,,,,,,61034f3092f51520b90743d6,6103660c8f4a128797b1bdd3,2021-07-29_19h42.42.936,Simcolourproject_2stim_asymm_v5,2020.2.10,MacIntel,60,61025ae37ef11b136ea224fe,,,,,,,,,2957,36,58,1,0,0,response1disk,,7,15,-11,1,0,0,rectangle,15,-11,1,0,0,15,-11,1,0,0,0,68,68,79,1,,,,,,,,
,,,,,,,,,,,,,FF,,,,,,,,0.749,,,,,,,,,,,,,,,,,,,,,,61034f3092f51520b90743d6,6103660c8f4a128797b1bdd3,2021-07-29_19h42.42.936,Simcolourproject_2stim_asymm_v5,2020.2.10,MacIntel,60,61025ae37ef11b136ea224fe,,,,,,,,,1109,23,64,1,0,0,response1disk,,7,16,7,1,0,0,rectangle,16,7,1,0,0,16,7,1,0,0,0,69,69,127,1,,,,,,,,
,,,,,,,,,,,,,FF,,,,,,,,1.299,,,,,,,,,,,,,,,,,,,,,,61034f3092f51520b90743d6,6103660c8f4a128797b1bdd3,2021-07-29_19h42.42.936,Simcolourproject_2stim_asymm_v5,2020.2.10,MacIntel,60,61025ae37ef11b136ea224fe,,,,,,,,,4293,-64,32,1,0,0,response7disk,,1,-5,-2,1,0,0,rectangle,-5,-2,1,0,0,-5,-2,1,0,0,0,70,70,159,1,,,,,,,,
,,,,,,,,,,,,,FF,,,,,,,,0.899,,,,,,,,,,,,,,,,,,,,,,61034f3092f51520b90743d6,6103660c8f4a128797b1bdd3,2021-07-29_19h42.42.936,Simcolourproject_2stim_asymm_v5,2020.2.10,MacIntel,60,61025ae37ef11b136ea224fe,,,,,,,,,33,50,-31,1,0,0,response3disk,,5,15,5,1,0,0,rectangle,15,5,1,0,0,15,5,1,0,0,0,71,71,81,1,,,,,,,,
,,,,,,,,,,,,,FF,,,,,,,,1.216,,,,,,,,,,,,,,,,,,,,,,61034f3092f51520b90743d6,6103660c8f4a128797b1bdd3,2021-07-29_19h42.42.936,Simcolourproject_2stim_asymm_v5,2020.2.10,MacIntel,60,61025ae37ef11b136ea224fe,,,,,,,,,1236,49,30,1,0,0,response1disk,,6,-9,-7,1,0,0,rectangle,-9,-7,1,0,0,-9,-7,1,0,0,0,72,72,32,1,,,,,,,,
,,,,,,,,,,,,,FF,,,,,,,,0.849,,,,,,,,,,,,,,,,,,,,,,61034f3092f51520b90743d6,6103660c8f4a128797b1bdd3,2021-07-29_19h42.42.936,Simcolourproject_2stim_asymm_v5,2020.2.10,MacIntel,60,61025ae37ef11b136ea224fe,,,,,,,,,2234,-57,-42,1,0,0,response5disk,,2,1,-4,1,0,0,rectangle,1,-4,1,0,0,1,-4,1,0,0,0,73,73,15,1,,,,,,,,
,,,,,,,,,,,,,FF,,,,,,,,0.767,,,,,,,,,,,,,,,,,,,,,,61034f3092f51520b90743d6,6103660c8f4a128797b1bdd3,2021-07-29_19h42.42.936,Simcolourproject_2stim_asymm_v5,2020.2.10,MacIntel,60,61025ae37ef11b136ea224fe,,,,,,,,,3954,43,20,1,0,0,response1disk,,6,9,-4,1,0,0,rectangle,9,-4,1,0,0,9,-4,1,0,0,0,74,74,103,1,,,,,,,,
,,,,,,,,,,,,,FF,,,,,,,,0.766,,,,,,,,,,,,,,,,,,,,,,61034f3092f51520b90743d6,6103660c8f4a128797b1bdd3,2021-07-29_19h42.42.936,Simcolourproject_2stim_asymm_v5,2020.2.10,MacIntel,60,61025ae37ef11b136ea224fe,,,,,,,,,2341,48,-36,1,0,0,response3disk,,5,-6,10,1,0,0,rectangle,-6,10,1,0,0,-6,10,1,0,0,0,75,75,101,1,,,,,,,,
,,,,,,,,,,,,,FF,,,,,,,,0.782,,,,,,,,,,,,,,,,,,,,,,61034f3092f51520b90743d6,6103660c8f4a128797b1bdd3,2021-07-29_19h42.42.936,Simcolourproject_2stim_asymm_v5,2020.2.10,MacIntel,60,61025ae37ef11b136ea224fe,,,,,,,,,1628,48,25,1,0,0,response1disk,,6,9,4,1,0,0,rectangle,9,4,1,0,0,9,4,1,0,0,0,76,76,68,1,,,,,,,,
,,,,,,,,,,,,,FF,,,,,,,,0.616,,,,,,,,,,,,,,,,,,,,,,61034f3092f51520b90743d6,6103660c8f4a128797b1bdd3,2021-07-29_19h42.42.936,Simcolourproject_2stim_asymm_v5,2020.2.10,MacIntel,60,61025ae37ef11b136ea224fe,,,,,,,,,3833,33,54,1,0,0,response1disk,,7,4,-9,1,0,0,rectangle,4,-9,1,0,0,4,-9,1,0,0,0,77,77,142,1,,,,,,,,
,,,,,,,,,,,,,FF,,,,,,,,0.832,,,,,,,,,,,,,,,,,,,,,,61034f3092f51520b90743d6,6103660c8f4a128797b1bdd3,2021-07-29_19h42.42.936,Simcolourproject_2stim_asymm_v5,2020.2.10,MacIntel,60,61025ae37ef11b136ea224fe,,,,,,,,,1047,31,-49,1,0,0,response3disk,,4,17,-3,1,0,0,rectangle,-31,-67,1,0,0,-9,-2,1,0,0,0,78,78,48,1,,response5disk_3,TRUE,3,3,"[101,120,113,40,9,290,106,232,81,175,253,168,79,312,281,29,79,145,22,190]",1.867,rectangle
,,,,,,,,,,,,,FF,,,,,,,,1.2,,,,,,,,,,,,,,,,,,,,,,61034f3092f51520b90743d6,6103660c8f4a128797b1bdd3,2021-07-29_19h42.42.936,Simcolourproject_2stim_asymm_v5,2020.2.10,MacIntel,60,61025ae37ef11b136ea224fe,,,,,,,,,4246,49,37,1,0,0,response1disk,,6,0,-3,1,0,0,rectangle,0,-3,1,0,0,0,-3,1,0,0,0,79,79,42,1,,,,,,,,
,,,,,,,,,,,,,FF,,,,,,,,1.067,,,,,,,,,,,,,,,,,,,,,,61034f3092f51520b90743d6,6103660c8f4a128797b1bdd3,2021-07-29_19h42.42.936,Simcolourproject_2stim_asymm_v5,2020.2.10,MacIntel,60,61025ae37ef11b136ea224fe,,,,,,,,,1814,-34,-56,1,0,0,response5disk,,3,-12,-10,1,0,0,rectangle,64,-35,1,0,0,-5,-4,1,0,0,0,80,80,84,1,,response3disk_3,TRUE,5,5,"[101,120,113,40,9,290,106,232,81,175,253,168,79,312,281,29,79,145,22,190]",1.666,rectangle
,,,,,,,,,,,,,FF,,,,,,,,1.933,,,,,,,,,,,,,,,,,,,,,,61034f3092f51520b90743d6,6103660c8f4a128797b1bdd3,2021-07-29_19h42.42.936,Simcolourproject_2stim_asymm_v5,2020.2.10,MacIntel,60,61025ae37ef11b136ea224fe,,,,,,,,,373,13,-72,1,0,0,response3disk,,4,-3,-6,1,0,0,rectangle,-3,-6,1,0,0,-3,-6,1,0,0,0,81,81,72,1,,,,,,,,
,,,,,,,,,,,,,FF,,,,,,,,0.716,,,,,,,,,,,,,,,,,,,,,,61034f3092f51520b90743d6,6103660c8f4a128797b1bdd3,2021-07-29_19h42.42.936,Simcolourproject_2stim_asymm_v5,2020.2.10,MacIntel,60,61025ae37ef11b136ea224fe,,,,,,,,,53,38,27,1,0,0,response1disk,,6,2,1,1,0,0,rectangle,2,1,1,0,0,2,1,1,0,0,0,82,82,1,1,,,,,,,,
,,,,,,,,,,,,,FF,,,,,,,,1.033,,,,,,,,,,,,,,,,,,,,,,61034f3092f51520b90743d6,6103660c8f4a128797b1bdd3,2021-07-29_19h42.42.936,Simcolourproject_2stim_asymm_v5,2020.2.10,MacIntel,60,61025ae37ef11b136ea224fe,,,,,,,,,3861,57,15,1,0,0,response1disk,,6,10,-9,1,0,0,rectangle,10,-9,1,0,0,10,-9,1,0,0,0,83,83,69,1,,,,,,,,
,,,,,,,,,,,,,FF,,,,,,,,1.249,,,,,,,,,,,,,,,,,,,,,,61034f3092f51520b90743d6,6103660c8f4a128797b1bdd3,2021-07-29_19h42.42.936,Simcolourproject_2stim_asymm_v5,2020.2.10,MacIntel,60,61025ae37ef11b136ea224fe,,,,,,,,,3473,-26,-69,1,0,0,response5disk,,3,-2,-7,1,0,0,rectangle,-2,-7,1,0,0,-2,-7,1,0,0,0,84,84,148,1,,,,,,,,
,,,,,,,,,,,,,FF,,,,,,,,1.683,,,,,,,,,,,,,,,,,,,,,,61034f3092f51520b90743d6,6103660c8f4a128797b1bdd3,2021-07-29_19h42.42.936,Simcolourproject_2stim_asymm_v5,2020.2.10,MacIntel,60,61025ae37ef11b136ea224fe,,,,,,,,,3152,22,-45,1,0,0,response3disk,,4,-3,2,1,0,0,rectangle,-3,2,1,0,0,-3,2,1,0,0,0,85,85,60,1,,,,,,,,
,,,,,,,,,,,,,FF,,,,,,,,3.233,,,,,,,,,,,,,,,,,,,,,,61034f3092f51520b90743d6,6103660c8f4a128797b1bdd3,2021-07-29_19h42.42.936,Simcolourproject_2stim_asymm_v5,2020.2.10,MacIntel,60,61025ae37ef11b136ea224fe,,,,,,,,,2713,27,34,1,0,0,response1disk,,7,18,9,1,0,0,rectangle,18,9,1,0,0,18,9,1,0,0,0,86,86,4,1,,,,,,,,
,,,,,,,,,,,,,FF,,,,,,,,0.983,,,,,,,,,,,,,,,,,,,,,,61034f3092f51520b90743d6,6103660c8f4a128797b1bdd3,2021-07-29_19h42.42.936,Simcolourproject_2stim_asymm_v5,2020.2.10,MacIntel,60,61025ae37ef11b136ea224fe,,,,,,,,,2953,19,-43,1,0,0,response3disk,,4,9,-7,1,0,0,rectangle,9,-7,1,0,0,9,-7,1,0,0,0,87,87,158,1,,,,,,,,
,,,,,,,,,,,,,FF,,,,,,,,0.766,,,,,,,,,,,,,,,,,,,,,,61034f3092f51520b90743d6,6103660c8f4a128797b1bdd3,2021-07-29_19h42.42.936,Simcolourproject_2stim_asymm_v5,2020.2.10,MacIntel,60,61025ae37ef11b136ea224fe,,,,,,,,,64,49,27,1,0,0,response1disk,,6,9,5,1,0,0,rectangle,9,5,1,0,0,9,5,1,0,0,0,88,88,41,1,,,,,,,,
,,,,,,,,,,,,,FF,,,,,,,,0.984,,,,,,,,,,,,,,,,,,,,,,61034f3092f51520b90743d6,6103660c8f4a128797b1bdd3,2021-07-29_19h42.42.936,Simcolourproject_2stim_asymm_v5,2020.2.10,MacIntel,60,61025ae37ef11b136ea224fe,,,,,,,,,1816,-71,-38,1,0,0,response5disk,,2,-11,-5,1,0,0,rectangle,-11,-5,1,0,0,-11,-5,1,0,0,0,89,89,65,1,,,,,,,,
,,,,,,,,,,,,,FF,,,,,,,,1.633,,,,,,,,,,,,,,,,,,,,,,61034f3092f51520b90743d6,6103660c8f4a128797b1bdd3,2021-07-29_19h42.42.936,Simcolourproject_2stim_asymm_v5,2020.2.10,MacIntel,60,61025ae37ef11b136ea224fe,,,,,,,,,631,-61,-26,1,0,0,response5disk,,2,-13,-8,1,0,0,rectangle,-13,-8,1,0,0,-13,-8,1,0,0,0,90,90,154,1,,,,,,,,
,,,,,,,,,,,,,FF,,,,,,,,0.933,,,,,,,,,,,,,,,,,,,,,,61034f3092f51520b90743d6,6103660c8f4a128797b1bdd3,2021-07-29_19h42.42.936,Simcolourproject_2stim_asymm_v5,2020.2.10,MacIntel,60,61025ae37ef11b136ea224fe,,,,,,,,,2850,49,-17,1,0,0,response3disk,,5,-3,-2,1,0,0,rectangle,-3,-2,1,0,0,-3,-2,1,0,0,0,91,91,59,1,,,,,,,,
,,,,,,,,,,,,,FF,,,,,,,,1.016,,,,,,,,,,,,,,,,,,,,,,61034f3092f51520b90743d6,6103660c8f4a128797b1bdd3,2021-07-29_19h42.42.936,Simcolourproject_2stim_asymm_v5,2020.2.10,MacIntel,60,61025ae37ef11b136ea224fe,,,,,,,,,2335,47,31,1,0,0,response1disk,,6,6,-2,1,0,0,rectangle,6,-2,1,0,0,6,-2,1,0,0,0,92,92,51,1,,,,,,,,
,,,,,,,,,,,,,FF,,,,,,,,1.416,,,,,,,,,,,,,,,,,,,,,,61034f3092f51520b90743d6,6103660c8f4a128797b1bdd3,2021-07-29_19h42.42.936,Simcolourproject_2stim_asymm_v5,2020.2.10,MacIntel,60,61025ae37ef11b136ea224fe,,,,,,,,,460,27,-46,1,0,0,response3disk,,4,18,-9,1,0,0,rectangle,18,-9,1,0,0,18,-9,1,0,0,0,93,93,152,1,,,,,,,,
,,,,,,,,,,,,,FF,,,,,,,,1.483,,,,,,,,,,,,,,,,,,,,,,61034f3092f51520b90743d6,6103660c8f4a128797b1bdd3,2021-07-29_19h42.42.936,Simcolourproject_2stim_asymm_v5,2020.2.10,MacIntel,60,61025ae37ef11b136ea224fe,,,,,,,,,1419,31,43,1,0,0,response1disk,,7,19,9,1,0,0,rectangle,19,9,1,0,0,19,9,1,0,0,0,94,94,143,1,,,,,,,,
,,,,,,,,,,,,,FF,,,,,,,,1.017,,,,,,,,,,,,,,,,,,,,,,61034f3092f51520b90743d6,6103660c8f4a128797b1bdd3,2021-07-29_19h42.42.936,Simcolourproject_2stim_asymm_v5,2020.2.10,MacIntel,60,61025ae37ef11b136ea224fe,,,,,,,,,895,44,-24,1,0,0,response3disk,,5,-1,15,1,0,0,rectangle,-1,15,1,0,0,-1,15,1,0,0,0,95,95,147,1,,,,,,,,
,,,,,,,,,,,,,FF,,,,,,,,1.416,,,,,,,,,,,,,,,,,,,,,,61034f3092f51520b90743d6,6103660c8f4a128797b1bdd3,2021-07-29_19h42.42.936,Simcolourproject_2stim_asymm_v5,2020.2.10,MacIntel,60,61025ae37ef11b136ea224fe,,,,,,,,,3778,-33,-59,1,0,0,response5disk,,3,-10,-1,1,0,0,rectangle,-10,-1,1,0,0,-10,-1,1,0,0,0,96,96,64,1,,,,,,,,
,,,,,,,,,,,,,FF,,,,,,,,1.434,,,,,,,,,,,,,,,,,,,,,,61034f3092f51520b90743d6,6103660c8f4a128797b1bdd3,2021-07-29_19h42.42.936,Simcolourproject_2stim_asymm_v5,2020.2.10,MacIntel,60,61025ae37ef11b136ea224fe,,,,,,,,,4005,-25,-52,1,0,0,response5disk,,3,5,0,1,0,0,rectangle,5,0,1,0,0,5,0,1,0,0,0,97,97,126,1,,,,,,,,
,,,,,,,,,,,,,FF,,,,,,,,1.766,,,,,,,,,,,,,,,,,,,,,,61034f3092f51520b90743d6,6103660c8f4a128797b1bdd3,2021-07-29_19h42.42.936,Simcolourproject_2stim_asymm_v5,2020.2.10,MacIntel,60,61025ae37ef11b136ea224fe,,,,,,,,,2833,-33,-54,1,0,0,response5disk,,3,-5,-6,1,0,0,rectangle,-5,-6,1,0,0,-5,-6,1,0,0,0,98,98,38,1,,,,,,,,
,,,,,,,,,,,,,FF,,,,,,,,0.883,,,,,,,,,,,,,,,,,,,,,,61034f3092f51520b90743d6,6103660c8f4a128797b1bdd3,2021-07-29_19h42.42.936,Simcolourproject_2stim_asymm_v5,2020.2.10,MacIntel,60,61025ae37ef11b136ea224fe,,,,,,,,,207,62,-33,1,0,0,response3disk,,5,18,3,1,0,0,rectangle,18,3,1,0,0,18,3,1,0,0,0,99,99,91,1,,,,,,,,
,,,,,,,,,,,,,FF,,,,,,,,0.717,,,,,,,,,,,,,,,,,,,,,,61034f3092f51520b90743d6,6103660c8f4a128797b1bdd3,2021-07-29_19h42.42.936,Simcolourproject_2stim_asymm_v5,2020.2.10,MacIntel,60,61025ae37ef11b136ea224fe,,,,,,,,,3572,40,28,1,0,0,response1disk,,6,8,2,1,0,0,rectangle,57,31,1,0,0,6,4,1,0,0,0,100,100,86,1,,response1disk_3,TRUE,6,6,"[101,120,113,40,9,290,106,232,81,175,253,168,79,312,281,29,79,145,22,190]",1.184,rectangle
,,,,,,,,,,,,,FF,,,,,,,,1.033,,,,,,,,,,,,,,,,,,,,,,61034f3092f51520b90743d6,6103660c8f4a128797b1bdd3,2021-07-29_19h42.42.936,Simcolourproject_2stim_asymm_v5,2020.2.10,MacIntel,60,61025ae37ef11b136ea224fe,,,,,,,,,665,52,-28,1,0,0,response3disk,,5,-3,-2,1,0,0,rectangle,-3,-2,1,0,0,-3,-2,1,0,0,0,101,101,97,1,,,,,,,,
,,,,,,,,,,,,,FF,,,,,,,,1.217,,,,,,,,,,,,,,,,,,,,,,61034f3092f51520b90743d6,6103660c8f4a128797b1bdd3,2021-07-29_19h42.42.936,Simcolourproject_2stim_asymm_v5,2020.2.10,MacIntel,60,61025ae37ef11b136ea224fe,,,,,,,,,582,38,19,1,0,0,response1disk,,6,12,-1,1,0,0,rectangle,12,-1,1,0,0,12,-1,1,0,0,0,102,102,71,1,,,,,,,,
,,,,,,,,,,,,,FF,,,,,,,,1.118,,,,,,,,,,,,,,,,,,,,,,61034f3092f51520b90743d6,6103660c8f4a128797b1bdd3,2021-07-29_19h42.42.936,Simcolourproject_2stim_asymm_v5,2020.2.10,MacIntel,60,61025ae37ef11b136ea224fe,,,,,,,,,3807,26,-43,1,0,0,response3disk,,4,9,4,1,0,0,rectangle,9,4,1,0,0,9,4,1,0,0,0,103,103,124,1,,,,,,,,
,,,,,,,,,,,,,FF,,,,,,,,1.399,,,,,,,,,,,,,,,,,,,,,,61034f3092f51520b90743d6,6103660c8f4a128797b1bdd3,2021-07-29_19h42.42.936,Simcolourproject_2stim_asymm_v5,2020.2.10,MacIntel,60,61025ae37ef11b136ea224fe,,,,,,,,,3268,47,28,1,0,0,response1disk,,6,1,3,1,0,0,rectangle,1,3,1,0,0,1,3,1,0,0,0,104,104,74,1,,,,,,,,
,,,,,,,,,,,,,FF,,,,,,,,0.916,,,,,,,,,,,,,,,,,,,,,,61034f3092f51520b90743d6,6103660c8f4a128797b1bdd3,2021-07-29_19h42.42.936,Simcolourproject_2stim_asymm_v5,2020.2.10,MacIntel,60,61025ae37ef11b136ea224fe,,,,,,,,,1925,19,31,1,0,0,response1disk,,7,1,-5,1,0,0,rectangle,-46,-64,1,0,0,-6,1,1,0,0,0,105,105,99,1,,response5disk_3,TRUE,3,3,"[101,120,113,40,9,290,106,232,81,175,253,168,79,312,281,29,79,145,22,190]",1.816,rectangle
,,,,,,,,,,,,,FF,,,,,,,,1.15,,,,,,,,,,,,,,,,,,,,,,61034f3092f51520b90743d6,6103660c8f4a128797b1bdd3,2021-07-29_19h42.42.936,Simcolourproject_2stim_asymm_v5,2020.2.10,MacIntel,60,61025ae37ef11b136ea224fe,,,,,,,,,353,-66,-26,1,0,0,response5disk,,2,0,-1,1,0,0,rectangle,0,-1,1,0,0,0,-1,1,0,0,0,106,106,58,1,,,,,,,,
,,,,,,,,,,,,,FF,,,,,,,,0.949,,,,,,,,,,,,,,,,,,,,,,61034f3092f51520b90743d6,6103660c8f4a128797b1bdd3,2021-07-29_19h42.42.936,Simcolourproject_2stim_asymm_v5,2020.2.10,MacIntel,60,61025ae37ef11b136ea224fe,,,,,,,,,245,30,59,1,0,0,response1disk,,7,0,8,1,0,0,rectangle,0,8,1,0,0,0,8,1,0,0,0,107,107,78,1,,,,,,,,
,,,,,,,,,,,,,FF,,,,,,,,0.983,,,,,,,,,,,,,,,,,,,,,,61034f3092f51520b90743d6,6103660c8f4a128797b1bdd3,2021-07-29_19h42.42.936,Simcolourproject_2stim_asymm_v5,2020.2.10,MacIntel,60,61025ae37ef11b136ea224fe,,,,,,,,,4004,28,-22,1,0,0,response3disk,,5,-13,-3,1,0,0,rectangle,-13,-3,1,0,0,-13,-3,1,0,0,0,108,108,135,1,,,,,,,,
,,,,,,,,,,,,,FF,,,,,,,,1.801,,,,,,,,,,,,,,,,,,,,,,61034f3092f51520b90743d6,6103660c8f4a128797b1bdd3,2021-07-29_19h42.42.936,Simcolourproject_2stim_asymm_v5,2020.2.10,MacIntel,60,61025ae37ef11b136ea224fe,,,,,,,,,3001,42,-74,1,0,0,response3disk,,4,11,-1,1,0,0,rectangle,11,-1,1,0,0,11,-1,1,0,0,0,109,109,52,1,,,,,,,,
,,,,,,,,,,,,,FF,,,,,,,,1.033,,,,,,,,,,,,,,,,,,,,,,61034f3092f51520b90743d6,6103660c8f4a128797b1bdd3,2021-07-29_19h42.42.936,Simcolourproject_2stim_asymm_v5,2020.2.10,MacIntel,60,61025ae37ef11b136ea224fe,,,,,,,,,1439,-17,-39,1,0,0,response5disk,,3,-1,-5,1,0,0,rectangle,-1,-5,1,0,0,-1,-5,1,0,0,0,110,110,61,1,,,,,,,,
,,,,,,,,,,,,,FF,,,,,,,,1.018,,,,,,,,,,,,,,,,,,,,,,61034f3092f51520b90743d6,6103660c8f4a128797b1bdd3,2021-07-29_19h42.42.936,Simcolourproject_2stim_asymm_v5,2020.2.10,MacIntel,60,61025ae37ef11b136ea224fe,,,,,,,,,1382,16,-37,1,0,0,response3disk,,4,8,-1,1,0,0,rectangle,8,-1,1,0,0,8,-1,1,0,0,0,111,111,118,1,,,,,,,,
,,,,,,,,,,,,,FF,,,,,,,,1.116,,,,,,,,,,,,,,,,,,,,,,61034f3092f51520b90743d6,6103660c8f4a128797b1bdd3,2021-07-29_19h42.42.936,Simcolourproject_2stim_asymm_v5,2020.2.10,MacIntel,60,61025ae37ef11b136ea224fe,,,,,,,,,568,50,-26,1,0,0,response3disk,,5,6,-2,1,0,0,rectangle,-81,37,1,0,0,12,-2,1,0,0,0,112,112,26,1,,response7disk_3,TRUE,1,1,"[101,120,113,40,9,290,106,232,81,175,253,168,79,312,281,29,79,145,22,190]",1.117,rectangle
,,,,,,,,,,,,,FF,,,,,,,,0.799,,,,,,,,,,,,,,,,,,,,,,61034f3092f51520b90743d6,6103660c8f4a128797b1bdd3,2021-07-29_19h42.42.936,Simcolourproject_2stim_asymm_v5,2020.2.10,MacIntel,60,61025ae37ef11b136ea224fe,,,,,,,,,128,40,15,1,0,0,response1disk,,6,2,-5,1,0,0,rectangle,2,-5,1,0,0,2,-5,1,0,0,0,113,113,112,1,,,,,,,,
,,,,,,,,,,,,,FF,,,,,,,,1.415,,,,,,,,,,,,,,,,,,,,,,61034f3092f51520b90743d6,6103660c8f4a128797b1bdd3,2021-07-29_19h42.42.936,Simcolourproject_2stim_asymm_v5,2020.2.10,MacIntel,60,61025ae37ef11b136ea224fe,,,,,,,,,2924,34,18,1,0,0,response1disk,,6,7,-2,1,0,0,rectangle,7,-2,1,0,0,7,-2,1,0,0,0,114,114,9,1,,,,,,,,
,,,,,,,,,,,,,FF,,,,,,,,1.215,,,,,,,,,,,,,,,,,,,,,,61034f3092f51520b90743d6,6103660c8f4a128797b1bdd3,2021-07-29_19h42.42.936,Simcolourproject_2stim_asymm_v5,2020.2.10,MacIntel,60,61025ae37ef11b136ea224fe,,,,,,,,,2776,-16,-62,1,0,0,response5disk,,3,-2,-2,1,0,0,rectangle,-2,-2,1,0,0,-2,-2,1,0,0,0,115,115,39,1,,,,,,,,
,,,,,,,,,,,,,FF,,,,,,,,0.865,,,,,,,,,,,,,,,,,,,,,,61034f3092f51520b90743d6,6103660c8f4a128797b1bdd3,2021-07-29_19h42.42.936,Simcolourproject_2stim_asymm_v5,2020.2.10,MacIntel,60,61025ae37ef11b136ea224fe,,,,,,,,,1915,22,60,1,0,0,response1disk,,7,-3,-3,1,0,0,rectangle,-3,-3,1,0,0,-3,-3,1,0,0,0,116,116,83,1,,,,,,,,
,,,,,,,,,,,,,FF,,,,,,,,1.017,,,,,,,,,,,,,,,,,,,,,,61034f3092f51520b90743d6,6103660c8f4a128797b1bdd3,2021-07-29_19h42.42.936,Simcolourproject_2stim_asymm_v5,2020.2.10,MacIntel,60,61025ae37ef11b136ea224fe,,,,,,,,,1084,64,36,1,0,0,response1disk,,6,0,3,1,0,0,rectangle,0,3,1,0,0,0,3,1,0,0,0,117,117,46,1,,,,,,,,
,,,,,,,,,,,,,FF,,,,,,,,1.584,,,,,,,,,,,,,,,,,,,,,,61034f3092f51520b90743d6,6103660c8f4a128797b1bdd3,2021-07-29_19h42.42.936,Simcolourproject_2stim_asymm_v5,2020.2.10,MacIntel,60,61025ae37ef11b136ea224fe,,,,,,,,,1101,37,52,1,0,0,response1disk,,7,8,6,1,0,0,rectangle,8,6,1,0,0,8,6,1,0,0,0,118,118,140,1,,,,,,,,
,,,,,,,,,,,,,FF,,,,,,,,0.9,,,,,,,,,,,,,,,,,,,,,,61034f3092f51520b90743d6,6103660c8f4a128797b1bdd3,2021-07-29_19h42.42.936,Simcolourproject_2stim_asymm_v5,2020.2.10,MacIntel,60,61025ae37ef11b136ea224fe,,,,,,,,,1764,17,-54,1,0,0,response3disk,,4,1,-6,1,0,0,rectangle,29,58,1,0,0,0,3,1,0,0,0,119,119,37,1,,response1disk_3,TRUE,7,7,"[101,120,113,40,9,290,106,232,81,175,253,168,79,312,281,29,79,145,22,190]",1.182,rectangle
,,,,,,,,,,,,,FF,,,,,,,,2.216,,,,,,,,,,,,,,,,,,,,,,61034f3092f51520b90743d6,6103660c8f4a128797b1bdd3,2021-07-29_19h42.42.936,Simcolourproject_2stim_asymm_v5,2020.2.10,MacIntel,60,61025ae37ef11b136ea224fe,,,,,,,,,2012,45,28,1,0,0,response1disk,,6,-2,-6,1,0,0,rectangle,-2,-6,1,0,0,-2,-6,1,0,0,0,120,120,19,1,,,,,,,,
,,,,,,,,,,,,,FF,,,,,,,,0.866,,,,,,,,,,,,,,,,,,,,,,61034f3092f51520b90743d6,6103660c8f4a128797b1bdd3,2021-07-29_19h42.42.936,Simcolourproject_2stim_asymm_v5,2020.2.10,MacIntel,60,61025ae37ef11b136ea224fe,,,,,,,,,2644,46,20,1,0,0,response1disk,,6,1,-4,1,0,0,rectangle,1,-4,1,0,0,1,-4,1,0,0,0,121,121,96,1,,,,,,,,
,,,,,,,,,,,,,FF,,,,,,,,0.867,,,,,,,,,,,,,,,,,,,,,,61034f3092f51520b90743d6,6103660c8f4a128797b1bdd3,2021-07-29_19h42.42.936,Simcolourproject_2stim_asymm_v5,2020.2.10,MacIntel,60,61025ae37ef11b136ea224fe,,,,,,,,,3703,-28,-63,1,0,0,response5disk,,3,-9,-6,1,0,0,rectangle,-9,-6,1,0,0,-9,-6,1,0,0,0,122,122,121,1,,,,,,,,
,,,,,,,,,,,,,FF,,,,,,,,1.333,,,,,,,,,,,,,,,,,,,,,,61034f3092f51520b90743d6,6103660c8f4a128797b1bdd3,2021-07-29_19h42.42.936,Simcolourproject_2stim_asymm_v5,2020.2.10,MacIntel,60,61025ae37ef11b136ea224fe,,,,,,,,,3644,18,-54,1,0,0,response3disk,,4,-3,-4,1,0,0,rectangle,-3,-4,1,0,0,-3,-4,1,0,0,0,123,123,95,1,,,,,,,,
,,,,,,,,,,,,,FF,,,,,,,,0.784,,,,,,,,,,,,,,,,,,,,,,61034f3092f51520b90743d6,6103660c8f4a128797b1bdd3,2021-07-29_19h42.42.936,Simcolourproject_2stim_asymm_v5,2020.2.10,MacIntel,60,61025ae37ef11b136ea224fe,,,,,,,,,921,46,-19,1,0,0,response3disk,,5,5,1,1,0,0,rectangle,5,1,1,0,0,5,1,1,0,0,0,124,124,128,1,,,,,,,,
,,,,,,,,,,,,,FF,,,,,,,,0.932,,,,,,,,,,,,,,,,,,,,,,61034f3092f51520b90743d6,6103660c8f4a128797b1bdd3,2021-07-29_19h42.42.936,Simcolourproject_2stim_asymm_v5,2020.2.10,MacIntel,60,61025ae37ef11b136ea224fe,,,,,,,,,194,50,-19,1,0,0,response3disk,,5,4,6,1,0,0,rectangle,4,6,1,0,0,4,6,1,0,0,0,125,125,138,1,,,,,,,,
,,,,,,,,,,,,,FF,,,,,,,,1.234,,,,,,,,,,,,,,,,,,,,,,61034f3092f51520b90743d6,6103660c8f4a128797b1bdd3,2021-07-29_19h42.42.936,Simcolourproject_2stim_asymm_v5,2020.2.10,MacIntel,60,61025ae37ef11b136ea224fe,,,,,,,,,1964,-56,-21,1,0,0,response5disk,,2,-1,-1,1,0,0,rectangle,-1,-1,1,0,0,-1,-1,1,0,0,0,126,126,82,1,,,,,,,,
,,,,,,,,,,,,,FF,,,,,,,,1.15,,,,,,,,,,,,,,,,,,,,,,61034f3092f51520b90743d6,6103660c8f4a128797b1bdd3,2021-07-29_19h42.42.936,Simcolourproject_2stim_asymm_v5,2020.2.10,MacIntel,60,61025ae37ef11b136ea224fe,,,,,,,,,2265,57,-27,1,0,0,response3disk,,5,11,-7,1,0,0,rectangle,11,-7,1,0,0,11,-7,1,0,0,0,127,127,7,1,,,,,,,,
,,,,,,,,,,,,,FF,,,,,,,,1.017,,,,,,,,,,,,,,,,,,,,,,61034f3092f51520b90743d6,6103660c8f4a128797b1bdd3,2021-07-29_19h42.42.936,Simcolourproject_2stim_asymm_v5,2020.2.10,MacIntel,60,61025ae37ef11b136ea224fe,,,,,,,,,3750,-16,-56,1,0,0,response5disk,,3,-1,0,1,0,0,rectangle,-1,0,1,0,0,-1,0,1,0,0,0,128,128,28,1,,,,,,,,
,,,,,,,,,,,,,FF,,,,,,,,1.502,,,,,,,,,,,,,,,,,,,,,,61034f3092f51520b90743d6,6103660c8f4a128797b1bdd3,2021-07-29_19h42.42.936,Simcolourproject_2stim_asymm_v5,2020.2.10,MacIntel,60,61025ae37ef11b136ea224fe,,,,,,,,,1438,54,-31,1,0,0,response3disk,,5,-2,-2,1,0,0,rectangle,-2,-2,1,0,0,-2,-2,1,0,0,0,129,129,100,1,,,,,,,,
,,,,,,,,,,,,,FF,,,,,,,,1.116,,,,,,,,,,,,,,,,,,,,,,61034f3092f51520b90743d6,6103660c8f4a128797b1bdd3,2021-07-29_19h42.42.936,Simcolourproject_2stim_asymm_v5,2020.2.10,MacIntel,60,61025ae37ef11b136ea224fe,,,,,,,,,1961,-31,-58,1,0,0,response5disk,,3,1,-4,1,0,0,rectangle,1,-4,1,0,0,1,-4,1,0,0,0,130,130,17,1,,,,,,,,
,,,,,,,,,,,,,FF,,,,,,,,1.084,,,,,,,,,,,,,,,,,,,,,,61034f3092f51520b90743d6,6103660c8f4a128797b1bdd3,2021-07-29_19h42.42.936,Simcolourproject_2stim_asymm_v5,2020.2.10,MacIntel,60,61025ae37ef11b136ea224fe,,,,,,,,,3123,36,30,1,0,0,response1disk,,6,5,-3,1,0,0,rectangle,5,-3,1,0,0,5,-3,1,0,0,0,131,131,20,1,,,,,,,,
,,,,,,,,,,,,,FF,,,,,,,,1.083,,,,,,,,,,,,,,,,,,,,,,61034f3092f51520b90743d6,6103660c8f4a128797b1bdd3,2021-07-29_19h42.42.936,Simcolourproject_2stim_asymm_v5,2020.2.10,MacIntel,60,61025ae37ef11b136ea224fe,,,,,,,,,3482,28,50,1,0,0,response1disk,,7,-13,-6,1,0,0,rectangle,-13,-6,1,0,0,-13,-6,1,0,0,0,132,132,13,1,,,,,,,,
,,,,,,,,,,,,,FF,,,,,,,,1.051,,,,,,,,,,,,,,,,,,,,,,61034f3092f51520b90743d6,6103660c8f4a128797b1bdd3,2021-07-29_19h42.42.936,Simcolourproject_2stim_asymm_v5,2020.2.10,MacIntel,60,61025ae37ef11b136ea224fe,,,,,,,,,4040,36,-55,1,0,0,response3disk,,4,-7,-6,1,0,0,rectangle,-7,-6,1,0,0,-7,-6,1,0,0,0,133,133,22,1,,,,,,,,
,,,,,,,,,,,,,FF,,,,,,,,1.665,,,,,,,,,,,,,,,,,,,,,,61034f3092f51520b90743d6,6103660c8f4a128797b1bdd3,2021-07-29_19h42.42.936,Simcolourproject_2stim_asymm_v5,2020.2.10,MacIntel,60,61025ae37ef11b136ea224fe,,,,,,,,,2654,69,-26,1,0,0,response3disk,,5,-10,-2,1,0,0,rectangle,-10,-2,1,0,0,-10,-2,1,0,0,0,134,134,85,1,,,,,,,,
,,,,,,,,,,,,,FF,,,,,,,,2.332,,,,,,,,,,,,,,,,,,,,,,61034f3092f51520b90743d6,6103660c8f4a128797b1bdd3,2021-07-29_19h42.42.936,Simcolourproject_2stim_asymm_v5,2020.2.10,MacIntel,60,61025ae37ef11b136ea224fe,,,,,,,,,1449,51,-22,1,0,0,response3disk,,5,-8,14,1,0,0,rectangle,-8,14,1,0,0,-8,14,1,0,0,0,135,135,16,1,,,,,,,,
,,,,,,,,,,,,,FF,,,,,,,,0.999,,,,,,,,,,,,,,,,,,,,,,61034f3092f51520b90743d6,6103660c8f4a128797b1bdd3,2021-07-29_19h42.42.936,Simcolourproject_2stim_asymm_v5,2020.2.10,MacIntel,60,61025ae37ef11b136ea224fe,,,,,,,,,1785,22,-51,1,0,0,response3disk,,4,-1,-2,1,0,0,rectangle,-1,-2,1,0,0,-1,-2,1,0,0,0,136,136,114,1,,,,,,,,
,,,,,,,,,,,,,FF,,,,,,,,0.882,,,,,,,,,,,,,,,,,,,,,,61034f3092f51520b90743d6,6103660c8f4a128797b1bdd3,2021-07-29_19h42.42.936,Simcolourproject_2stim_asymm_v5,2020.2.10,MacIntel,60,61025ae37ef11b136ea224fe,,,,,,,,,2987,-33,-51,1,0,0,response5disk,,3,-1,0,1,0,0,rectangle,-1,0,1,0,0,-1,0,1,0,0,0,137,137,25,1,,,,,,,,
,,,,,,,,,,,,,FF,,,,,,,,0.867,,,,,,,,,,,,,,,,,,,,,,61034f3092f51520b90743d6,6103660c8f4a128797b1bdd3,2021-07-29_19h42.42.936,Simcolourproject_2stim_asymm_v5,2020.2.10,MacIntel,60,61025ae37ef11b136ea224fe,,,,,,,,,1144,26,-56,1,0,0,response3disk,,4,-7,8,1,0,0,rectangle,-7,8,1,0,0,-7,8,1,0,0,0,138,138,3,1,,,,,,,,
,,,,,,,,,,,,,FF,,,,,,,,0.982,,,,,,,,,,,,,,,,,,,,,,61034f3092f51520b90743d6,6103660c8f4a128797b1bdd3,2021-07-29_19h42.42.936,Simcolourproject_2stim_asymm_v5,2020.2.10,MacIntel,60,61025ae37ef11b136ea224fe,,,,,,,,,962,54,34,1,0,0,response1disk,,6,11,12,1,0,0,rectangle,11,12,1,0,0,11,12,1,0,0,0,139,139,49,1,,,,,,,,
,,,,,,,,,,,,,FF,,,,,,,,0.882,,,,,,,,,,,,,,,,,,,,,,61034f3092f51520b90743d6,6103660c8f4a128797b1bdd3,2021-07-29_19h42.42.936,Simcolourproject_2stim_asymm_v5,2020.2.10,MacIntel,60,61025ae37ef11b136ea224fe,,,,,,,,,1950,27,-63,1,0,0,response3disk,,4,7,-12,1,0,0,rectangle,7,-12,1,0,0,7,-12,1,0,0,0,140,140,156,1,,,,,,,,
,,,,,,,,,,,,,FF,,,,,,,,1.049,,,,,,,,,,,,,,,,,,,,,,61034f3092f51520b90743d6,6103660c8f4a128797b1bdd3,2021-07-29_19h42.42.936,Simcolourproject_2stim_asymm_v5,2020.2.10,MacIntel,60,61025ae37ef11b136ea224fe,,,,,,,,,49,21,53,1,0,0,response1disk,,7,6,3,1,0,0,rectangle,6,3,1,0,0,6,3,1,0,0,0,141,141,151,1,,,,,,,,
,,,,,,,,,,,,,FF,,,,,,,,0.984,,,,,,,,,,,,,,,,,,,,,,61034f3092f51520b90743d6,6103660c8f4a128797b1bdd3,2021-07-29_19h42.42.936,Simcolourproject_2stim_asymm_v5,2020.2.10,MacIntel,60,61025ae37ef11b136ea224fe,,,,,,,,,2274,25,57,1,0,0,response1disk,,7,-4,-1,1,0,0,rectangle,-4,-1,1,0,0,-4,-1,1,0,0,0,142,142,50,1,,,,,,,,
,,,,,,,,,,,,,FF,,,,,,,,1.366,,,,,,,,,,,,,,,,,,,,,,61034f3092f51520b90743d6,6103660c8f4a128797b1bdd3,2021-07-29_19h42.42.936,Simcolourproject_2stim_asymm_v5,2020.2.10,MacIntel,60,61025ae37ef11b136ea224fe,,,,,,,,,1637,62,-44,1,0,0,response3disk,,5,7,-7,1,0,0,rectangle,7,-7,1,0,0,7,-7,1,0,0,0,143,143,155,1,,,,,,,,
,,,,,,,,,,,,,FF,,,,,,,,0.95,,,,,,,,,,,,,,,,,,,,,,61034f3092f51520b90743d6,6103660c8f4a128797b1bdd3,2021-07-29_19h42.42.936,Simcolourproject_2stim_asymm_v5,2020.2.10,MacIntel,60,61025ae37ef11b136ea224fe,,,,,,,,,4310,59,25,1,0,0,response1disk,,6,7,2,1,0,0,rectangle,-30,55,1,0,0,-9,0,1,0,0,0,144,144,109,1,,response7disk_3,TRUE,0,0,"[101,120,113,40,9,290,106,232,81,175,253,168,79,312,281,29,79,145,22,190]",1.115,rectangle
,,,,,,,,,,,,,FF,,,,,,,,1.099,,,,,,,,,,,,,,,,,,,,,,61034f3092f51520b90743d6,6103660c8f4a128797b1bdd3,2021-07-29_19h42.42.936,Simcolourproject_2stim_asymm_v5,2020.2.10,MacIntel,60,61025ae37ef11b136ea224fe,,,,,,,,,1315,50,-30,1,0,0,response3disk,,5,-1,0,1,0,0,rectangle,-1,0,1,0,0,-1,0,1,0,0,0,145,145,67,1,,,,,,,,
,,,,,,,,,,,,,FF,,,,,,,,1.25,,,,,,,,,,,,,,,,,,,,,,61034f3092f51520b90743d6,6103660c8f4a128797b1bdd3,2021-07-29_19h42.42.936,Simcolourproject_2stim_asymm_v5,2020.2.10,MacIntel,60,61025ae37ef11b136ea224fe,,,,,,,,,873,14,-54,1,0,0,response3disk,,4,-4,-3,1,0,0,rectangle,-4,-3,1,0,0,-4,-3,1,0,0,0,146,146,23,1,,,,,,,,
,,,,,,,,,,,,,FF,,,,,,,,1.1,,,,,,,,,,,,,,,,,,,,,,61034f3092f51520b90743d6,6103660c8f4a128797b1bdd3,2021-07-29_19h42.42.936,Simcolourproject_2stim_asymm_v5,2020.2.10,MacIntel,60,61025ae37ef11b136ea224fe,,,,,,,,,785,21,-46,1,0,0,response3disk,,4,2,4,1,0,0,rectangle,2,4,1,0,0,2,4,1,0,0,0,147,147,110,1,,,,,,,,
,,,,,,,,,,,,,FF,,,,,,,,7.982,,,,,,,,,,,,,,,,,,,,,,61034f3092f51520b90743d6,6103660c8f4a128797b1bdd3,2021-07-29_19h42.42.936,Simcolourproject_2stim_asymm_v5,2020.2.10,MacIntel,60,61025ae37ef11b136ea224fe,,,,,,,,,2609,24,-71,1,0,0,response3disk,,4,-2,3,1,0,0,rectangle,-2,3,1,0,0,-2,3,1,0,0,0,148,148,116,1,,,,,,,,
,,,,,,,,,,,,,FF,,,,,,,,1.534,,,,,,,,,,,,,,,,,,,,,,61034f3092f51520b90743d6,6103660c8f4a128797b1bdd3,2021-07-29_19h42.42.936,Simcolourproject_2stim_asymm_v5,2020.2.10,MacIntel,60,61025ae37ef11b136ea224fe,,,,,,,,,160,-15,-57,1,0,0,response5disk,,3,4,11,1,0,0,rectangle,4,11,1,0,0,4,11,1,0,0,0,149,149,34,1,,,,,,,,
,,,,,,,,,,,,,FF,,,,,,,,1.8,,,,,,,,,,,,,,,,,,,,,,61034f3092f51520b90743d6,6103660c8f4a128797b1bdd3,2021-07-29_19h42.42.936,Simcolourproject_2stim_asymm_v5,2020.2.10,MacIntel,60,61025ae37ef11b136ea224fe,,,,,,,,,3874,69,26,1,0,0,response1disk,,6,-4,-4,1,0,0,rectangle,-4,-4,1,0,0,-4,-4,1,0,0,0,150,150,0,1,,,,,,,,
,,,,,,,,,,,,,FF,,,,,,,,0.749,,,,,,,,,,,,,,,,,,,,,,61034f3092f51520b90743d6,6103660c8f4a128797b1bdd3,2021-07-29_19h42.42.936,Simcolourproject_2stim_asymm_v5,2020.2.10,MacIntel,60,61025ae37ef11b136ea224fe,,,,,,,,,2348,47,-25,1,0,0,response3disk,,5,-1,0,1,0,0,rectangle,-1,0,1,0,0,-1,0,1,0,0,0,151,151,105,1,,,,,,,,
,,,,,,,,,,,,,FF,,,,,,,,1.001,,,,,,,,,,,,,,,,,,,,,,61034f3092f51520b90743d6,6103660c8f4a128797b1bdd3,2021-07-29_19h42.42.936,Simcolourproject_2stim_asymm_v5,2020.2.10,MacIntel,60,61025ae37ef11b136ea224fe,,,,,,,,,363,18,46,1,0,0,response1disk,,7,7,14,1,0,0,rectangle,7,14,1,0,0,7,14,1,0,0,0,152,152,57,1,,,,,,,,
,,,,,,,,,,,,,FF,,,,,,,,0.985,,,,,,,,,,,,,,,,,,,,,,61034f3092f51520b90743d6,6103660c8f4a128797b1bdd3,2021-07-29_19h42.42.936,Simcolourproject_2stim_asymm_v5,2020.2.10,MacIntel,60,61025ae37ef11b136ea224fe,,,,,,,,,2103,51,-26,1,0,0,response3disk,,5,11,-10,1,0,0,rectangle,11,-10,1,0,0,11,-10,1,0,0,0,153,153,89,1,,,,,,,,
,,,,,,,,,,,,,FF,,,,,,,,5.933,,,,,,,,,,,,,,,,,,,,,,61034f3092f51520b90743d6,6103660c8f4a128797b1bdd3,2021-07-29_19h42.42.936,Simcolourproject_2stim_asymm_v5,2020.2.10,MacIntel,60,61025ae37ef11b136ea224fe,,,,,,,,,1607,14,-60,1,0,0,response3disk,,4,4,-1,1,0,0,rectangle,4,-1,1,0,0,4,-1,1,0,0,0,154,154,133,1,,,,,,,,
,,,,,,,,,,,,,FF,,,,,,,,1.101,,,,,,,,,,,,,,,,,,,,,,61034f3092f51520b90743d6,6103660c8f4a128797b1bdd3,2021-07-29_19h42.42.936,Simcolourproject_2stim_asymm_v5,2020.2.10,MacIntel,60,61025ae37ef11b136ea224fe,,,,,,,,,2740,-18,-47,1,0,0,response5disk,,3,0,-1,1,0,0,rectangle,0,-1,1,0,0,0,-1,1,0,0,0,155,155,104,1,,,,,,,,
,,,,,,,,,,,,,FF,,,,,,,,0.767,,,,,,,,,,,,,,,,,,,,,,61034f3092f51520b90743d6,6103660c8f4a128797b1bdd3,2021-07-29_19h42.42.936,Simcolourproject_2stim_asymm_v5,2020.2.10,MacIntel,60,61025ae37ef11b136ea224fe,,,,,,,,,299,70,-35,1,0,0,response3disk,,5,5,-1,1,0,0,rectangle,5,-1,1,0,0,5,-1,1,0,0,0,156,156,129,1,,,,,,,,
,,,,,,,,,,,,,FF,,,,,,,,2.05,,,,,,,,,,,,,,,,,,,,,,61034f3092f51520b90743d6,6103660c8f4a128797b1bdd3,2021-07-29_19h42.42.936,Simcolourproject_2stim_asymm_v5,2020.2.10,MacIntel,60,61025ae37ef11b136ea224fe,,,,,,,,,2608,-65,25,1,0,0,response7disk,,1,-4,4,1,0,0,rectangle,-4,4,1,0,0,-4,4,1,0,0,0,157,157,80,1,,,,,,,,
,,,,,,,,,,,,,FF,,,,,,,,0.984,,,,,,,,,,,,,,,,,,,,,,61034f3092f51520b90743d6,6103660c8f4a128797b1bdd3,2021-07-29_19h42.42.936,Simcolourproject_2stim_asymm_v5,2020.2.10,MacIntel,60,61025ae37ef11b136ea224fe,,,,,,,,,1735,-75,33,1,0,0,response7disk,,1,-6,1,1,0,0,rectangle,-6,1,1,0,0,-6,1,1,0,0,0,158,158,87,1,,,,,,,,
,,,,,,,,,,,,,FF,,,,,,,,0.716,,,,,,,,,,,,,,,,,,,,,,61034f3092f51520b90743d6,6103660c8f4a128797b1bdd3,2021-07-29_19h42.42.936,Simcolourproject_2stim_asymm_v5,2020.2.10,MacIntel,60,61025ae37ef11b136ea224fe,,,,,,,,,3335,61,23,1,0,0,response1disk,,6,7,13,1,0,0,rectangle,7,13,1,0,0,7,13,1,0,0,0,159,159,102,1,,,,,,,,
,,,,,,,,,,,,,FF,,,,,,,,0.95,,,,,,,,,,,,,,,,,,,,,,61034f3092f51520b90743d6,6103660c8f4a128797b1bdd3,2021-07-29_19h42.42.936,Simcolourproject_2stim_asymm_v5,2020.2.10,MacIntel,60,61025ae37ef11b136ea224fe,,,,,,,,,3744,-37,-53,1,0,0,response5disk,,3,0,12,1,0,0,rectangle,0,12,1,0,0,0,12,1,0,0,1,0,160,34,1,,,,,,,,
,,,,,,,,,,,,,FF,,,,,,,,1.183,,,,,,,,,,,,,,,,,,,,,,61034f3092f51520b90743d6,6103660c8f4a128797b1bdd3,2021-07-29_19h42.42.936,Simcolourproject_2stim_asymm_v5,2020.2.10,MacIntel,60,61025ae37ef11b136ea224fe,,,,,,,,,1033,41,-63,1,0,0,response3disk,,4,-6,8,1,0,0,rectangle,-6,8,1,0,0,-6,8,1,0,0,1,1,161,83,1,,,,,,,,
,,,,,,,,,,,,,FF,,,,,,,,0.8,,,,,,,,,,,,,,,,,,,,,,61034f3092f51520b90743d6,6103660c8f4a128797b1bdd3,2021-07-29_19h42.42.936,Simcolourproject_2stim_asymm_v5,2020.2.10,MacIntel,60,61025ae37ef11b136ea224fe,,,,,,,,,3899,34,-50,1,0,0,response3disk,,4,11,3,1,0,0,rectangle,11,3,1,0,0,11,3,1,0,0,1,2,162,99,1,,,,,,,,
,,,,,,,,,,,,,FF,,,,,,,,0.998,,,,,,,,,,,,,,,,,,,,,,61034f3092f51520b90743d6,6103660c8f4a128797b1bdd3,2021-07-29_19h42.42.936,Simcolourproject_2stim_asymm_v5,2020.2.10,MacIntel,60,61025ae37ef11b136ea224fe,,,,,,,,,993,65,35,1,0,0,response1disk,,6,15,-2,1,0,0,rectangle,15,-2,1,0,0,15,-2,1,0,0,1,3,163,157,1,,,,,,,,
,,,,,,,,,,,,,FF,,,,,,,,1,,,,,,,,,,,,,,,,,,,,,,61034f3092f51520b90743d6,6103660c8f4a128797b1bdd3,2021-07-29_19h42.42.936,Simcolourproject_2stim_asymm_v5,2020.2.10,MacIntel,60,61025ae37ef11b136ea224fe,,,,,,,,,2324,33,58,1,0,0,response1disk,,7,-2,-16,1,0,0,rectangle,-2,-16,1,0,0,-2,-16,1,0,0,1,4,164,144,1,,,,,,,,
,,,,,,,,,,,,,FF,,,,,,,,0.732,,,,,,,,,,,,,,,,,,,,,,61034f3092f51520b90743d6,6103660c8f4a128797b1bdd3,2021-07-29_19h42.42.936,Simcolourproject_2stim_asymm_v5,2020.2.10,MacIntel,60,61025ae37ef11b136ea224fe,,,,,,,,,1832,53,-34,1,0,0,response3disk,,5,-17,4,1,0,0,rectangle,-17,4,1,0,0,-17,4,1,0,0,1,5,165,42,1,,,,,,,,
,,,,,,,,,,,,,FF,,,,,,,,1.832,,,,,,,,,,,,,,,,,,,,,,61034f3092f51520b90743d6,6103660c8f4a128797b1bdd3,2021-07-29_19h42.42.936,Simcolourproject_2stim_asymm_v5,2020.2.10,MacIntel,60,61025ae37ef11b136ea224fe,,,,,,,,,82,30,-65,1,0,0,response3disk,,4,3,-8,1,0,0,rectangle,3,-8,1,0,0,3,-8,1,0,0,1,6,166,8,1,,,,,,,,
,,,,,,,,,,,,,FF,,,,,,,,1.333,,,,,,,,,,,,,,,,,,,,,,61034f3092f51520b90743d6,6103660c8f4a128797b1bdd3,2021-07-29_19h42.42.936,Simcolourproject_2stim_asymm_v5,2020.2.10,MacIntel,60,61025ae37ef11b136ea224fe,,,,,,,,,2227,-58,-39,1,0,0,response5disk,,2,6,-4,1,0,0,rectangle,-60,-33,1,0,0,15,3,1,0,0,1,7,167,96,1,,response5disk_3,TRUE,2,2,"[101,120,113,40,9,290,106,232,81,175,253,168,79,312,281,29,79,145,22,190]",1.099,rectangle
,,,,,,,,,,,,,FF,,,,,,,,1.332,,,,,,,,,,,,,,,,,,,,,,61034f3092f51520b90743d6,6103660c8f4a128797b1bdd3,2021-07-29_19h42.42.936,Simcolourproject_2stim_asymm_v5,2020.2.10,MacIntel,60,61025ae37ef11b136ea224fe,,,,,,,,,4301,58,30,1,0,0,response1disk,,6,9,1,1,0,0,rectangle,9,1,1,0,0,9,1,1,0,0,1,8,168,9,1,,,,,,,,
,,,,,,,,,,,,,FF,,,,,,,,0.883,,,,,,,,,,,,,,,,,,,,,,61034f3092f51520b90743d6,6103660c8f4a128797b1bdd3,2021-07-29_19h42.42.936,Simcolourproject_2stim_asymm_v5,2020.2.10,MacIntel,60,61025ae37ef11b136ea224fe,,,,,,,,,1043,40,-23,1,0,0,response3disk,,5,-9,5,1,0,0,rectangle,-9,5,1,0,0,-9,5,1,0,0,1,9,169,48,1,,,,,,,,
,,,,,,,,,,,,,FF,,,,,,,,0.917,,,,,,,,,,,,,,,,,,,,,,61034f3092f51520b90743d6,6103660c8f4a128797b1bdd3,2021-07-29_19h42.42.936,Simcolourproject_2stim_asymm_v5,2020.2.10,MacIntel,60,61025ae37ef11b136ea224fe,,,,,,,,,2575,44,29,1,0,0,response1disk,,6,10,-5,1,0,0,rectangle,10,-5,1,0,0,10,-5,1,0,0,1,10,170,80,1,,,,,,,,
,,,,,,,,,,,,,FF,,,,,,,,0.816,,,,,,,,,,,,,,,,,,,,,,61034f3092f51520b90743d6,6103660c8f4a128797b1bdd3,2021-07-29_19h42.42.936,Simcolourproject_2stim_asymm_v5,2020.2.10,MacIntel,60,61025ae37ef11b136ea224fe,,,,,,,,,4034,45,-19,1,0,0,response3disk,,5,8,-5,1,0,0,rectangle,8,-5,1,0,0,8,-5,1,0,0,1,11,171,111,1,,,,,,,,
,,,,,,,,,,,,,FF,,,,,,,,0.884,,,,,,,,,,,,,,,,,,,,,,61034f3092f51520b90743d6,6103660c8f4a128797b1bdd3,2021-07-29_19h42.42.936,Simcolourproject_2stim_asymm_v5,2020.2.10,MacIntel,60,61025ae37ef11b136ea224fe,,,,,,,,,663,21,57,1,0,0,response1disk,,7,6,9,1,0,0,rectangle,6,9,1,0,0,6,9,1,0,0,1,12,172,54,1,,,,,,,,
,,,,,,,,,,,,,FF,,,,,,,,1.016,,,,,,,,,,,,,,,,,,,,,,61034f3092f51520b90743d6,6103660c8f4a128797b1bdd3,2021-07-29_19h42.42.936,Simcolourproject_2stim_asymm_v5,2020.2.10,MacIntel,60,61025ae37ef11b136ea224fe,,,,,,,,,550,-59,-34,1,0,0,response5disk,,2,8,-2,1,0,0,rectangle,8,-2,1,0,0,8,-2,1,0,0,1,13,173,74,1,,,,,,,,
,,,,,,,,,,,,,FF,,,,,,,,0.75,,,,,,,,,,,,,,,,,,,,,,61034f3092f51520b90743d6,6103660c8f4a128797b1bdd3,2021-07-29_19h42.42.936,Simcolourproject_2stim_asymm_v5,2020.2.10,MacIntel,60,61025ae37ef11b136ea224fe,,,,,,,,,3794,47,24,1,0,0,response1disk,,6,-11,3,1,0,0,rectangle,-32,-72,1,0,0,-1,0,1,0,0,1,14,174,97,1,,response5disk_3,TRUE,3,3,"[101,120,113,40,9,290,106,232,81,175,253,168,79,312,281,29,79,145,22,190]",1.7,rectangle
,,,,,,,,,,,,,FF,,,,,,,,1.199,,,,,,,,,,,,,,,,,,,,,,61034f3092f51520b90743d6,6103660c8f4a128797b1bdd3,2021-07-29_19h42.42.936,Simcolourproject_2stim_asymm_v5,2020.2.10,MacIntel,60,61025ae37ef11b136ea224fe,,,,,,,,,521,44,22,1,0,0,response1disk,,6,6,-4,1,0,0,rectangle,6,-4,1,0,0,6,-4,1,0,0,1,15,175,142,1,,,,,,,,
,,,,,,,,,,,,,FF,,,,,,,,0.851,,,,,,,,,,,,,,,,,,,,,,61034f3092f51520b90743d6,6103660c8f4a128797b1bdd3,2021-07-29_19h42.42.936,Simcolourproject_2stim_asymm_v5,2020.2.10,MacIntel,60,61025ae37ef11b136ea224fe,,,,,,,,,3425,-45,62,1,0,0,response7disk,,0,-11,-1,1,0,0,rectangle,-11,-1,1,0,0,-11,-1,1,0,0,1,16,176,140,1,,,,,,,,
,,,,,,,,,,,,,FF,,,,,,,,0.983,,,,,,,,,,,,,,,,,,,,,,61034f3092f51520b90743d6,6103660c8f4a128797b1bdd3,2021-07-29_19h42.42.936,Simcolourproject_2stim_asymm_v5,2020.2.10,MacIntel,60,61025ae37ef11b136ea224fe,,,,,,,,,2162,-28,-47,1,0,0,response5disk,,3,7,-1,1,0,0,rectangle,7,-1,1,0,0,7,-1,1,0,0,1,17,177,120,1,,,,,,,,
,,,,,,,,,,,,,FF,,,,,,,,0.8,,,,,,,,,,,,,,,,,,,,,,61034f3092f51520b90743d6,6103660c8f4a128797b1bdd3,2021-07-29_19h42.42.936,Simcolourproject_2stim_asymm_v5,2020.2.10,MacIntel,60,61025ae37ef11b136ea224fe,,,,,,,,,2763,50,25,1,0,0,response1disk,,6,15,-5,1,0,0,rectangle,15,-5,1,0,0,15,-5,1,0,0,1,18,178,20,1,,,,,,,,
,,,,,,,,,,,,,FF,,,,,,,,0.833,,,,,,,,,,,,,,,,,,,,,,61034f3092f51520b90743d6,6103660c8f4a128797b1bdd3,2021-07-29_19h42.42.936,Simcolourproject_2stim_asymm_v5,2020.2.10,MacIntel,60,61025ae37ef11b136ea224fe,,,,,,,,,1507,53,-27,1,0,0,response3disk,,5,-19,12,1,0,0,rectangle,-19,12,1,0,0,-19,12,1,0,0,1,19,179,139,1,,,,,,,,
,,,,,,,,,,,,,FF,,,,,,,,1.199,,,,,,,,,,,,,,,,,,,,,,61034f3092f51520b90743d6,6103660c8f4a128797b1bdd3,2021-07-29_19h42.42.936,Simcolourproject_2stim_asymm_v5,2020.2.10,MacIntel,60,61025ae37ef11b136ea224fe,,,,,,,,,802,-25,-76,1,0,0,response5disk,,3,-3,-5,1,0,0,rectangle,-3,-5,1,0,0,-3,-5,1,0,0,1,20,180,77,1,,,,,,,,
,,,,,,,,,,,,,FF,,,,,,,,0.782,,,,,,,,,,,,,,,,,,,,,,61034f3092f51520b90743d6,6103660c8f4a128797b1bdd3,2021-07-29_19h42.42.936,Simcolourproject_2stim_asymm_v5,2020.2.10,MacIntel,60,61025ae37ef11b136ea224fe,,,,,,,,,3726,49,66,1,0,0,response1disk,,7,19,2,1,0,0,rectangle,19,2,1,0,0,19,2,1,0,0,1,21,181,89,1,,,,,,,,
,,,,,,,,,,,,,FF,,,,,,,,0.867,,,,,,,,,,,,,,,,,,,,,,61034f3092f51520b90743d6,6103660c8f4a128797b1bdd3,2021-07-29_19h42.42.936,Simcolourproject_2stim_asymm_v5,2020.2.10,MacIntel,60,61025ae37ef11b136ea224fe,,,,,,,,,1219,23,-53,1,0,0,response3disk,,4,1,-5,1,0,0,rectangle,1,-5,1,0,0,1,-5,1,0,0,1,22,182,17,1,,,,,,,,
,,,,,,,,,,,,,FF,,,,,,,,0.883,,,,,,,,,,,,,,,,,,,,,,61034f3092f51520b90743d6,6103660c8f4a128797b1bdd3,2021-07-29_19h42.42.936,Simcolourproject_2stim_asymm_v5,2020.2.10,MacIntel,60,61025ae37ef11b136ea224fe,,,,,,,,,367,-63,-38,1,0,0,response5disk,,2,4,-9,1,0,0,rectangle,4,-9,1,0,0,4,-9,1,0,0,1,23,183,35,1,,,,,,,,
,,,,,,,,,,,,,FF,,,,,,,,0.699,,,,,,,,,,,,,,,,,,,,,,61034f3092f51520b90743d6,6103660c8f4a128797b1bdd3,2021-07-29_19h42.42.936,Simcolourproject_2stim_asymm_v5,2020.2.10,MacIntel,60,61025ae37ef11b136ea224fe,,,,,,,,,562,71,26,1,0,0,response1disk,,6,6,-5,1,0,0,rectangle,6,-5,1,0,0,6,-5,1,0,0,1,24,184,155,1,,,,,,,,
,,,,,,,,,,,,,FF,,,,,,,,0.666,,,,,,,,,,,,,,,,,,,,,,61034f3092f51520b90743d6,6103660c8f4a128797b1bdd3,2021-07-29_19h42.42.936,Simcolourproject_2stim_asymm_v5,2020.2.10,MacIntel,60,61025ae37ef11b136ea224fe,,,,,,,,,2397,77,-41,1,0,0,response3disk,,5,-4,2,1,0,0,rectangle,-4,2,1,0,0,-4,2,1,0,0,1,25,185,158,1,,,,,,,,
,,,,,,,,,,,,,FF,,,,,,,,1.299,,,,,,,,,,,,,,,,,,,,,,61034f3092f51520b90743d6,6103660c8f4a128797b1bdd3,2021-07-29_19h42.42.936,Simcolourproject_2stim_asymm_v5,2020.2.10,MacIntel,60,61025ae37ef11b136ea224fe,,,,,,,,,608,52,-24,1,0,0,response3disk,,5,10,-6,1,0,0,rectangle,10,-6,1,0,0,10,-6,1,0,0,1,26,186,107,1,,,,,,,,
,,,,,,,,,,,,,FF,,,,,,,,0.916,,,,,,,,,,,,,,,,,,,,,,61034f3092f51520b90743d6,6103660c8f4a128797b1bdd3,2021-07-29_19h42.42.936,Simcolourproject_2stim_asymm_v5,2020.2.10,MacIntel,60,61025ae37ef11b136ea224fe,,,,,,,,,2049,54,37,1,0,0,response1disk,,6,9,13,1,0,0,rectangle,9,13,1,0,0,9,13,1,0,0,1,27,187,85,1,,,,,,,,
,,,,,,,,,,,,,FF,,,,,,,,0.917,,,,,,,,,,,,,,,,,,,,,,61034f3092f51520b90743d6,6103660c8f4a128797b1bdd3,2021-07-29_19h42.42.936,Simcolourproject_2stim_asymm_v5,2020.2.10,MacIntel,60,61025ae37ef11b136ea224fe,,,,,,,,,1211,-31,72,1,0,0,response7disk,,0,-11,12,1,0,0,rectangle,-11,12,1,0,0,-11,12,1,0,0,1,28,188,67,1,,,,,,,,
,,,,,,,,,,,,,FF,,,,,,,,0.699,,,,,,,,,,,,,,,,,,,,,,61034f3092f51520b90743d6,6103660c8f4a128797b1bdd3,2021-07-29_19h42.42.936,Simcolourproject_2stim_asymm_v5,2020.2.10,MacIntel,60,61025ae37ef11b136ea224fe,,,,,,,,,1272,54,19,1,0,0,response1disk,,6,11,-11,1,0,0,rectangle,66,26,1,0,0,7,-3,1,0,0,1,29,189,123,1,,response1disk_3,TRUE,6,6,"[101,120,113,40,9,290,106,232,81,175,253,168,79,312,281,29,79,145,22,190]",1.216,rectangle
,,,,,,,,,,,,,FF,,,,,,,,0.932,,,,,,,,,,,,,,,,,,,,,,61034f3092f51520b90743d6,6103660c8f4a128797b1bdd3,2021-07-29_19h42.42.936,Simcolourproject_2stim_asymm_v5,2020.2.10,MacIntel,60,61025ae37ef11b136ea224fe,,,,,,,,,3967,-65,-36,1,0,0,response5disk,,2,-9,3,1,0,0,rectangle,-9,3,1,0,0,-9,3,1,0,0,1,30,190,0,1,,,,,,,,
,,,,,,,,,,,,,FF,,,,,,,,0.651,,,,,,,,,,,,,,,,,,,,,,61034f3092f51520b90743d6,6103660c8f4a128797b1bdd3,2021-07-29_19h42.42.936,Simcolourproject_2stim_asymm_v5,2020.2.10,MacIntel,60,61025ae37ef11b136ea224fe,,,,,,,,,1380,57,30,1,0,0,response1disk,,6,16,0,1,0,0,rectangle,16,0,1,0,0,16,0,1,0,0,1,31,191,63,1,,,,,,,,
,,,,,,,,,,,,,FF,,,,,,,,0.766,,,,,,,,,,,,,,,,,,,,,,61034f3092f51520b90743d6,6103660c8f4a128797b1bdd3,2021-07-29_19h42.42.936,Simcolourproject_2stim_asymm_v5,2020.2.10,MacIntel,60,61025ae37ef11b136ea224fe,,,,,,,,,47,19,54,1,0,0,response1disk,,7,6,5,1,0,0,rectangle,6,5,1,0,0,6,5,1,0,0,1,32,192,7,1,,,,,,,,
,,,,,,,,,,,,,FF,,,,,,,,0.782,,,,,,,,,,,,,,,,,,,,,,61034f3092f51520b90743d6,6103660c8f4a128797b1bdd3,2021-07-29_19h42.42.936,Simcolourproject_2stim_asymm_v5,2020.2.10,MacIntel,60,61025ae37ef11b136ea224fe,,,,,,,,,2941,-63,-40,1,0,0,response5disk,,2,-2,-2,1,0,0,rectangle,-2,-2,1,0,0,-2,-2,1,0,0,1,33,193,51,1,,,,,,,,
,,,,,,,,,,,,,FF,,,,,,,,0.802,,,,,,,,,,,,,,,,,,,,,,61034f3092f51520b90743d6,6103660c8f4a128797b1bdd3,2021-07-29_19h42.42.936,Simcolourproject_2stim_asymm_v5,2020.2.10,MacIntel,60,61025ae37ef11b136ea224fe,,,,,,,,,1096,55,-26,1,0,0,response3disk,,5,7,-5,1,0,0,rectangle,7,-5,1,0,0,7,-5,1,0,0,1,34,194,64,1,,,,,,,,
,,,,,,,,,,,,,FF,,,,,,,,0.949,,,,,,,,,,,,,,,,,,,,,,61034f3092f51520b90743d6,6103660c8f4a128797b1bdd3,2021-07-29_19h42.42.936,Simcolourproject_2stim_asymm_v5,2020.2.10,MacIntel,60,61025ae37ef11b136ea224fe,,,,,,,,,3107,-40,-59,1,0,0,response5disk,,3,-6,4,1,0,0,rectangle,-6,4,1,0,0,-6,4,1,0,0,1,35,195,53,1,,,,,,,,
,,,,,,,,,,,,,FF,,,,,,,,0.717,,,,,,,,,,,,,,,,,,,,,,61034f3092f51520b90743d6,6103660c8f4a128797b1bdd3,2021-07-29_19h42.42.936,Simcolourproject_2stim_asymm_v5,2020.2.10,MacIntel,60,61025ae37ef11b136ea224fe,,,,,,,,,2042,47,24,1,0,0,response1disk,,6,17,3,1,0,0,rectangle,17,3,1,0,0,17,3,1,0,0,1,36,196,159,1,,,,,,,,
,,,,,,,,,,,,,FF,,,,,,,,0.933,,,,,,,,,,,,,,,,,,,,,,61034f3092f51520b90743d6,6103660c8f4a128797b1bdd3,2021-07-29_19h42.42.936,Simcolourproject_2stim_asymm_v5,2020.2.10,MacIntel,60,61025ae37ef11b136ea224fe,,,,,,,,,1467,53,-24,1,0,0,response3disk,,5,21,-1,1,0,0,rectangle,21,-1,1,0,0,21,-1,1,0,0,1,37,197,39,1,,,,,,,,
,,,,,,,,,,,,,FF,,,,,,,,0.801,,,,,,,,,,,,,,,,,,,,,,61034f3092f51520b90743d6,6103660c8f4a128797b1bdd3,2021-07-29_19h42.42.936,Simcolourproject_2stim_asymm_v5,2020.2.10,MacIntel,60,61025ae37ef11b136ea224fe,,,,,,,,,4111,73,46,1,0,0,response1disk,,6,7,-4,1,0,0,rectangle,7,-4,1,0,0,7,-4,1,0,0,1,38,198,95,1,,,,,,,,
,,,,,,,,,,,,,FF,,,,,,,,0.882,,,,,,,,,,,,,,,,,,,,,,61034f3092f51520b90743d6,6103660c8f4a128797b1bdd3,2021-07-29_19h42.42.936,Simcolourproject_2stim_asymm_v5,2020.2.10,MacIntel,60,61025ae37ef11b136ea224fe,,,,,,,,,3757,39,-33,1,0,0,response3disk,,5,-1,-1,1,0,0,rectangle,-1,-1,1,0,0,-1,-1,1,0,0,1,39,199,148,1,,,,,,,,
,,,,,,,,,,,,,FF,,,,,,,,0.683,,,,,,,,,,,,,,,,,,,,,,61034f3092f51520b90743d6,6103660c8f4a128797b1bdd3,2021-07-29_19h42.42.936,Simcolourproject_2stim_asymm_v5,2020.2.10,MacIntel,60,61025ae37ef11b136ea224fe,,,,,,,,,2692,20,77,1,0,0,response1disk,,7,5,10,1,0,0,rectangle,5,10,1,0,0,5,10,1,0,0,1,40,200,75,1,,,,,,,,
,,,,,,,,,,,,,FF,,,,,,,,3.35,,,,,,,,,,,,,,,,,,,,,,61034f3092f51520b90743d6,6103660c8f4a128797b1bdd3,2021-07-29_19h42.42.936,Simcolourproject_2stim_asymm_v5,2020.2.10,MacIntel,60,61025ae37ef11b136ea224fe,,,,,,,,,1924,67,-39,1,0,0,response3disk,,5,4,2,1,0,0,rectangle,4,2,1,0,0,4,2,1,0,0,1,41,201,132,1,,,,,,,,
,,,,,,,,,,,,,FF,,,,,,,,2.15,,,,,,,,,,,,,,,,,,,,,,61034f3092f51520b90743d6,6103660c8f4a128797b1bdd3,2021-07-29_19h42.42.936,Simcolourproject_2stim_asymm_v5,2020.2.10,MacIntel,60,61025ae37ef11b136ea224fe,,,,,,,,,3405,17,31,1,0,0,response1disk,,7,13,5,1,0,0,rectangle,13,5,1,0,0,13,5,1,0,0,1,42,202,52,1,,,,,,,,
,,,,,,,,,,,,,FF,,,,,,,,1.151,,,,,,,,,,,,,,,,,,,,,,61034f3092f51520b90743d6,6103660c8f4a128797b1bdd3,2021-07-29_19h42.42.936,Simcolourproject_2stim_asymm_v5,2020.2.10,MacIntel,60,61025ae37ef11b136ea224fe,,,,,,,,,4345,-59,30,1,0,0,response7disk,,1,-13,-8,1,0,0,rectangle,-13,-8,1,0,0,-13,-8,1,0,0,1,43,203,66,1,,,,,,,,
,,,,,,,,,,,,,FF,,,,,,,,0.917,,,,,,,,,,,,,,,,,,,,,,61034f3092f51520b90743d6,6103660c8f4a128797b1bdd3,2021-07-29_19h42.42.936,Simcolourproject_2stim_asymm_v5,2020.2.10,MacIntel,60,61025ae37ef11b136ea224fe,,,,,,,,,1350,58,23,1,0,0,response1disk,,6,20,1,1,0,0,rectangle,20,1,1,0,0,20,1,1,0,0,1,44,204,26,1,,,,,,,,
,,,,,,,,,,,,,FF,,,,,,,,0.716,,,,,,,,,,,,,,,,,,,,,,61034f3092f51520b90743d6,6103660c8f4a128797b1bdd3,2021-07-29_19h42.42.936,Simcolourproject_2stim_asymm_v5,2020.2.10,MacIntel,60,61025ae37ef11b136ea224fe,,,,,,,,,1281,24,56,1,0,0,response1disk,,7,4,-2,1,0,0,rectangle,4,-2,1,0,0,4,-2,1,0,0,1,45,205,152,1,,,,,,,,
,,,,,,,,,,,,,FF,,,,,,,,1.433,,,,,,,,,,,,,,,,,,,,,,61034f3092f51520b90743d6,6103660c8f4a128797b1bdd3,2021-07-29_19h42.42.936,Simcolourproject_2stim_asymm_v5,2020.2.10,MacIntel,60,61025ae37ef11b136ea224fe,,,,,,,,,740,20,-56,1,0,0,response3disk,,4,-6,-3,1,0,0,rectangle,-6,-3,1,0,0,-6,-3,1,0,0,1,46,206,106,1,,,,,,,,
,,,,,,,,,,,,,FF,,,,,,,,0.784,,,,,,,,,,,,,,,,,,,,,,61034f3092f51520b90743d6,6103660c8f4a128797b1bdd3,2021-07-29_19h42.42.936,Simcolourproject_2stim_asymm_v5,2020.2.10,MacIntel,60,61025ae37ef11b136ea224fe,,,,,,,,,3075,19,48,1,0,0,response1disk,,7,10,-12,1,0,0,rectangle,10,-12,1,0,0,10,-12,1,0,0,1,47,207,60,1,,,,,,,,
,,,,,,,,,,,,,FF,,,,,,,,0.666,,,,,,,,,,,,,,,,,,,,,,61034f3092f51520b90743d6,6103660c8f4a128797b1bdd3,2021-07-29_19h42.42.936,Simcolourproject_2stim_asymm_v5,2020.2.10,MacIntel,60,61025ae37ef11b136ea224fe,,,,,,,,,1984,28,73,1,0,0,response1disk,,7,6,9,1,0,0,rectangle,6,9,1,0,0,6,9,1,0,0,1,48,208,37,1,,,,,,,,
,,,,,,,,,,,,,FF,,,,,,,,0.733,,,,,,,,,,,,,,,,,,,,,,61034f3092f51520b90743d6,6103660c8f4a128797b1bdd3,2021-07-29_19h42.42.936,Simcolourproject_2stim_asymm_v5,2020.2.10,MacIntel,60,61025ae37ef11b136ea224fe,,,,,,,,,2392,29,50,1,0,0,response1disk,,7,-3,0,1,0,0,rectangle,-3,0,1,0,0,-3,0,1,0,0,1,49,209,23,1,,,,,,,,
,,,,,,,,,,,,,FF,,,,,,,,0.733,,,,,,,,,,,,,,,,,,,,,,61034f3092f51520b90743d6,6103660c8f4a128797b1bdd3,2021-07-29_19h42.42.936,Simcolourproject_2stim_asymm_v5,2020.2.10,MacIntel,60,61025ae37ef11b136ea224fe,,,,,,,,,234,57,29,1,0,0,response1disk,,6,16,-3,1,0,0,rectangle,16,-3,1,0,0,16,-3,1,0,0,1,50,210,124,1,,,,,,,,
,,,,,,,,,,,,,FF,,,,,,,,1.066,,,,,,,,,,,,,,,,,,,,,,61034f3092f51520b90743d6,6103660c8f4a128797b1bdd3,2021-07-29_19h42.42.936,Simcolourproject_2stim_asymm_v5,2020.2.10,MacIntel,60,61025ae37ef11b136ea224fe,,,,,,,,,2898,31,-64,1,0,0,response3disk,,4,8,5,1,0,0,rectangle,8,5,1,0,0,8,5,1,0,0,1,51,211,138,1,,,,,,,,
,,,,,,,,,,,,,FF,,,,,,,,0.832,,,,,,,,,,,,,,,,,,,,,,61034f3092f51520b90743d6,6103660c8f4a128797b1bdd3,2021-07-29_19h42.42.936,Simcolourproject_2stim_asymm_v5,2020.2.10,MacIntel,60,61025ae37ef11b136ea224fe,,,,,,,,,2439,49,-23,1,0,0,response3disk,,5,16,-6,1,0,0,rectangle,16,-6,1,0,0,16,-6,1,0,0,1,52,212,145,1,,,,,,,,
,,,,,,,,,,,,,FF,,,,,,,,0.7,,,,,,,,,,,,,,,,,,,,,,61034f3092f51520b90743d6,6103660c8f4a128797b1bdd3,2021-07-29_19h42.42.936,Simcolourproject_2stim_asymm_v5,2020.2.10,MacIntel,60,61025ae37ef11b136ea224fe,,,,,,,,,1399,25,65,1,0,0,response1disk,,7,2,-8,1,0,0,rectangle,2,-8,1,0,0,2,-8,1,0,0,1,53,213,21,1,,,,,,,,
,,,,,,,,,,,,,FF,,,,,,,,0.649,,,,,,,,,,,,,,,,,,,,,,61034f3092f51520b90743d6,6103660c8f4a128797b1bdd3,2021-07-29_19h42.42.936,Simcolourproject_2stim_asymm_v5,2020.2.10,MacIntel,60,61025ae37ef11b136ea224fe,,,,,,,,,3492,17,53,1,0,0,response1disk,,7,-1,7,1,0,0,rectangle,-1,7,1,0,0,-1,7,1,0,0,1,54,214,16,1,,,,,,,,
,,,,,,,,,,,,,FF,,,,,,,,1.284,,,,,,,,,,,,,,,,,,,,,,61034f3092f51520b90743d6,6103660c8f4a128797b1bdd3,2021-07-29_19h42.42.936,Simcolourproject_2stim_asymm_v5,2020.2.10,MacIntel,60,61025ae37ef11b136ea224fe,,,,,,,,,1501,63,39,1,0,0,response1disk,,6,15,8,1,0,0,rectangle,15,8,1,0,0,15,8,1,0,0,1,55,215,3,1,,,,,,,,
,,,,,,,,,,,,,FF,,,,,,,,0.867,,,,,,,,,,,,,,,,,,,,,,61034f3092f51520b90743d6,6103660c8f4a128797b1bdd3,2021-07-29_19h42.42.936,Simcolourproject_2stim_asymm_v5,2020.2.10,MacIntel,60,61025ae37ef11b136ea224fe,,,,,,,,,2322,43,17,1,0,0,response1disk,,6,9,-6,1,0,0,rectangle,9,-6,1,0,0,9,-6,1,0,0,1,56,216,141,1,,,,,,,,
,,,,,,,,,,,,,FF,,,,,,,,0.683,,,,,,,,,,,,,,,,,,,,,,61034f3092f51520b90743d6,6103660c8f4a128797b1bdd3,2021-07-29_19h42.42.936,Simcolourproject_2stim_asymm_v5,2020.2.10,MacIntel,60,61025ae37ef11b136ea224fe,,,,,,,,,3984,26,74,1,0,0,response1disk,,7,5,-8,1,0,0,rectangle,5,-8,1,0,0,5,-8,1,0,0,1,57,217,112,1,,,,,,,,
,,,,,,,,,,,,,FF,,,,,,,,1.133,,,,,,,,,,,,,,,,,,,,,,61034f3092f51520b90743d6,6103660c8f4a128797b1bdd3,2021-07-29_19h42.42.936,Simcolourproject_2stim_asymm_v5,2020.2.10,MacIntel,60,61025ae37ef11b136ea224fe,,,,,,,,,2759,63,-40,1,0,0,response3disk,,5,11,-1,1,0,0,rectangle,11,-1,1,0,0,11,-1,1,0,0,1,58,218,137,1,,,,,,,,
,,,,,,,,,,,,,FF,,,,,,,,0.6,,,,,,,,,,,,,,,,,,,,,,61034f3092f51520b90743d6,6103660c8f4a128797b1bdd3,2021-07-29_19h42.42.936,Simcolourproject_2stim_asymm_v5,2020.2.10,MacIntel,60,61025ae37ef11b136ea224fe,,,,,,,,,959,27,57,1,0,0,response1disk,,7,7,6,1,0,0,rectangle,7,6,1,0,0,7,6,1,0,0,1,59,219,6,1,,,,,,,,
,,,,,,,,,,,,,FF,,,,,,,,0.683,,,,,,,,,,,,,,,,,,,,,,61034f3092f51520b90743d6,6103660c8f4a128797b1bdd3,2021-07-29_19h42.42.936,Simcolourproject_2stim_asymm_v5,2020.2.10,MacIntel,60,61025ae37ef11b136ea224fe,,,,,,,,,3641,28,58,1,0,0,response1disk,,7,-1,6,1,0,0,rectangle,-1,6,1,0,0,-1,6,1,0,0,1,60,220,100,1,,,,,,,,
,,,,,,,,,,,,,FF,,,,,,,,1.333,,,,,,,,,,,,,,,,,,,,,,61034f3092f51520b90743d6,6103660c8f4a128797b1bdd3,2021-07-29_19h42.42.936,Simcolourproject_2stim_asymm_v5,2020.2.10,MacIntel,60,61025ae37ef11b136ea224fe,,,,,,,,,189,64,-35,1,0,0,response3disk,,5,2,-2,1,0,0,rectangle,2,-2,1,0,0,2,-2,1,0,0,1,61,221,30,1,,,,,,,,
,,,,,,,,,,,,,FF,,,,,,,,0.916,,,,,,,,,,,,,,,,,,,,,,61034f3092f51520b90743d6,6103660c8f4a128797b1bdd3,2021-07-29_19h42.42.936,Simcolourproject_2stim_asymm_v5,2020.2.10,MacIntel,60,61025ae37ef11b136ea224fe,,,,,,,,,2939,52,23,1,0,0,response1disk,,6,-1,-1,1,0,0,rectangle,-1,-1,1,0,0,-1,-1,1,0,0,1,62,222,24,1,,,,,,,,
,,,,,,,,,,,,,FF,,,,,,,,0.85,,,,,,,,,,,,,,,,,,,,,,61034f3092f51520b90743d6,6103660c8f4a128797b1bdd3,2021-07-29_19h42.42.936,Simcolourproject_2stim_asymm_v5,2020.2.10,MacIntel,60,61025ae37ef11b136ea224fe,,,,,,,,,807,-30,-66,1,0,0,response5disk,,3,-9,-14,1,0,0,rectangle,-9,-14,1,0,0,-9,-14,1,0,0,1,63,223,14,1,,,,,,,,
,,,,,,,,,,,,,FF,,,,,,,,0.799,,,,,,,,,,,,,,,,,,,,,,61034f3092f51520b90743d6,6103660c8f4a128797b1bdd3,2021-07-29_19h42.42.936,Simcolourproject_2stim_asymm_v5,2020.2.10,MacIntel,60,61025ae37ef11b136ea224fe,,,,,,,,,3877,13,-39,1,0,0,response3disk,,4,4,-1,1,0,0,rectangle,4,-1,1,0,0,4,-1,1,0,0,1,64,224,76,1,,,,,,,,
,,,,,,,,,,,,,FF,,,,,,,,0.883,,,,,,,,,,,,,,,,,,,,,,61034f3092f51520b90743d6,6103660c8f4a128797b1bdd3,2021-07-29_19h42.42.936,Simcolourproject_2stim_asymm_v5,2020.2.10,MacIntel,60,61025ae37ef11b136ea224fe,,,,,,,,,2603,18,-40,1,0,0,response3disk,,4,11,-13,1,0,0,rectangle,11,-13,1,0,0,11,-13,1,0,0,1,65,225,79,1,,,,,,,,
,,,,,,,,,,,,,FF,,,,,,,,0.899,,,,,,,,,,,,,,,,,,,,,,61034f3092f51520b90743d6,6103660c8f4a128797b1bdd3,2021-07-29_19h42.42.936,Simcolourproject_2stim_asymm_v5,2020.2.10,MacIntel,60,61025ae37ef11b136ea224fe,,,,,,,,,1362,34,60,1,0,0,response1disk,,7,13,12,1,0,0,rectangle,13,12,1,0,0,13,12,1,0,0,1,66,226,33,1,,,,,,,,
,,,,,,,,,,,,,FF,,,,,,,,0.699,,,,,,,,,,,,,,,,,,,,,,61034f3092f51520b90743d6,6103660c8f4a128797b1bdd3,2021-07-29_19h42.42.936,Simcolourproject_2stim_asymm_v5,2020.2.10,MacIntel,60,61025ae37ef11b136ea224fe,,,,,,,,,836,56,25,1,0,0,response1disk,,6,9,-10,1,0,0,rectangle,9,-10,1,0,0,9,-10,1,0,0,1,67,227,134,1,,,,,,,,
,,,,,,,,,,,,,FF,,,,,,,,0.95,,,,,,,,,,,,,,,,,,,,,,61034f3092f51520b90743d6,6103660c8f4a128797b1bdd3,2021-07-29_19h42.42.936,Simcolourproject_2stim_asymm_v5,2020.2.10,MacIntel,60,61025ae37ef11b136ea224fe,,,,,,,,,2957,30,63,1,0,0,response1disk,,7,16,10,1,0,0,rectangle,16,10,1,0,0,16,10,1,0,0,1,68,228,25,1,,,,,,,,
,,,,,,,,,,,,,FF,,,,,,,,0.666,,,,,,,,,,,,,,,,,,,,,,61034f3092f51520b90743d6,6103660c8f4a128797b1bdd3,2021-07-29_19h42.42.936,Simcolourproject_2stim_asymm_v5,2020.2.10,MacIntel,60,61025ae37ef11b136ea224fe,,,,,,,,,1109,23,58,1,0,0,response1disk,,7,8,10,1,0,0,rectangle,8,10,1,0,0,8,10,1,0,0,1,69,229,113,1,,,,,,,,
,,,,,,,,,,,,,FF,,,,,,,,0.898,,,,,,,,,,,,,,,,,,,,,,61034f3092f51520b90743d6,6103660c8f4a128797b1bdd3,2021-07-29_19h42.42.936,Simcolourproject_2stim_asymm_v5,2020.2.10,MacIntel,60,61025ae37ef11b136ea224fe,,,,,,,,,4293,-35,77,1,0,0,response7disk,,0,-14,9,1,0,0,rectangle,-14,9,1,0,0,-14,9,1,0,0,1,70,230,147,1,,,,,,,,
,,,,,,,,,,,,,FF,,,,,,,,1.049,,,,,,,,,,,,,,,,,,,,,,61034f3092f51520b90743d6,6103660c8f4a128797b1bdd3,2021-07-29_19h42.42.936,Simcolourproject_2stim_asymm_v5,2020.2.10,MacIntel,60,61025ae37ef11b136ea224fe,,,,,,,,,33,67,-36,1,0,0,response3disk,,5,9,0,1,0,0,rectangle,-78,-37,1,0,0,-1,-4,1,0,0,1,71,231,78,1,,response5disk_3,TRUE,2,2,"[101,120,113,40,9,290,106,232,81,175,253,168,79,312,281,29,79,145,22,190]",1.999,rectangle
,,,,,,,,,,,,,FF,,,,,,,,1.565,,,,,,,,,,,,,,,,,,,,,,61034f3092f51520b90743d6,6103660c8f4a128797b1bdd3,2021-07-29_19h42.42.936,Simcolourproject_2stim_asymm_v5,2020.2.10,MacIntel,60,61025ae37ef11b136ea224fe,,,,,,,,,1236,23,61,1,0,0,response1disk,,7,2,-3,1,0,0,rectangle,2,-3,1,0,0,2,-3,1,0,0,1,72,232,156,1,,,,,,,,
,,,,,,,,,,,,,FF,,,,,,,,1,,,,,,,,,,,,,,,,,,,,,,61034f3092f51520b90743d6,6103660c8f4a128797b1bdd3,2021-07-29_19h42.42.936,Simcolourproject_2stim_asymm_v5,2020.2.10,MacIntel,60,61025ae37ef11b136ea224fe,,,,,,,,,2234,45,19,1,0,0,response1disk,,6,6,-3,1,0,0,rectangle,6,-3,1,0,0,6,-3,1,0,0,1,73,233,72,1,,,,,,,,
,,,,,,,,,,,,,FF,,,,,,,,0.651,,,,,,,,,,,,,,,,,,,,,,61034f3092f51520b90743d6,6103660c8f4a128797b1bdd3,2021-07-29_19h42.42.936,Simcolourproject_2stim_asymm_v5,2020.2.10,MacIntel,60,61025ae37ef11b136ea224fe,,,,,,,,,3954,22,48,1,0,0,response1disk,,7,5,14,1,0,0,rectangle,5,14,1,0,0,5,14,1,0,0,1,74,234,47,1,,,,,,,,
,,,,,,,,,,,,,FF,,,,,,,,0.717,,,,,,,,,,,,,,,,,,,,,,61034f3092f51520b90743d6,6103660c8f4a128797b1bdd3,2021-07-29_19h42.42.936,Simcolourproject_2stim_asymm_v5,2020.2.10,MacIntel,60,61025ae37ef11b136ea224fe,,,,,,,,,2341,67,40,1,0,0,response1disk,,6,16,-3,1,0,0,rectangle,16,-3,1,0,0,16,-3,1,0,0,1,75,235,36,1,,,,,,,,
,,,,,,,,,,,,,FF,,,,,,,,1.149,,,,,,,,,,,,,,,,,,,,,,61034f3092f51520b90743d6,6103660c8f4a128797b1bdd3,2021-07-29_19h42.42.936,Simcolourproject_2stim_asymm_v5,2020.2.10,MacIntel,60,61025ae37ef11b136ea224fe,,,,,,,,,1628,20,61,1,0,0,response1disk,,7,9,17,1,0,0,rectangle,9,17,1,0,0,9,17,1,0,0,1,76,236,41,1,,,,,,,,
,,,,,,,,,,,,,FF,,,,,,,,0.734,,,,,,,,,,,,,,,,,,,,,,61034f3092f51520b90743d6,6103660c8f4a128797b1bdd3,2021-07-29_19h42.42.936,Simcolourproject_2stim_asymm_v5,2020.2.10,MacIntel,60,61025ae37ef11b136ea224fe,,,,,,,,,3833,63,25,1,0,0,response1disk,,6,10,1,1,0,0,rectangle,10,1,1,0,0,10,1,1,0,0,1,77,237,93,1,,,,,,,,
,,,,,,,,,,,,,FF,,,,,,,,0.833,,,,,,,,,,,,,,,,,,,,,,61034f3092f51520b90743d6,6103660c8f4a128797b1bdd3,2021-07-29_19h42.42.936,Simcolourproject_2stim_asymm_v5,2020.2.10,MacIntel,60,61025ae37ef11b136ea224fe,,,,,,,,,1047,48,-23,1,0,0,response3disk,,5,-2,3,1,0,0,rectangle,-2,3,1,0,0,-2,3,1,0,0,1,78,238,12,1,,,,,,,,
,,,,,,,,,,,,,FF,,,,,,,,0.982,,,,,,,,,,,,,,,,,,,,,,61034f3092f51520b90743d6,6103660c8f4a128797b1bdd3,2021-07-29_19h42.42.936,Simcolourproject_2stim_asymm_v5,2020.2.10,MacIntel,60,61025ae37ef11b136ea224fe,,,,,,,,,4246,45,-22,1,0,0,response3disk,,5,13,0,1,0,0,rectangle,13,0,1,0,0,13,0,1,0,0,1,79,239,19,1,,,,,,,,
,,,,,,,,,,,,,FF,,,,,,,,1.233,,,,,,,,,,,,,,,,,,,,,,61034f3092f51520b90743d6,6103660c8f4a128797b1bdd3,2021-07-29_19h42.42.936,Simcolourproject_2stim_asymm_v5,2020.2.10,MacIntel,60,61025ae37ef11b136ea224fe,,,,,,,,,1814,-36,-56,1,0,0,response5disk,,3,-8,4,1,0,0,rectangle,-8,4,1,0,0,-8,4,1,0,0,1,80,240,59,1,,,,,,,,
,,,,,,,,,,,,,FF,,,,,,,,1.483,,,,,,,,,,,,,,,,,,,,,,61034f3092f51520b90743d6,6103660c8f4a128797b1bdd3,2021-07-29_19h42.42.936,Simcolourproject_2stim_asymm_v5,2020.2.10,MacIntel,60,61025ae37ef11b136ea224fe,,,,,,,,,373,-21,-58,1,0,0,response5disk,,3,-5,0,1,0,0,rectangle,-5,0,1,0,0,-5,0,1,0,0,1,81,241,15,1,,,,,,,,
,,,,,,,,,,,,,FF,,,,,,,,0.996,,,,,,,,,,,,,,,,,,,,,,61034f3092f51520b90743d6,6103660c8f4a128797b1bdd3,2021-07-29_19h42.42.936,Simcolourproject_2stim_asymm_v5,2020.2.10,MacIntel,60,61025ae37ef11b136ea224fe,,,,,,,,,53,45,-28,1,0,0,response3disk,,5,-4,0,1,0,0,rectangle,-4,0,1,0,0,-4,0,1,0,0,1,82,242,4,1,,,,,,,,
,,,,,,,,,,,,,FF,,,,,,,,0.784,,,,,,,,,,,,,,,,,,,,,,61034f3092f51520b90743d6,6103660c8f4a128797b1bdd3,2021-07-29_19h42.42.936,Simcolourproject_2stim_asymm_v5,2020.2.10,MacIntel,60,61025ae37ef11b136ea224fe,,,,,,,,,3861,51,18,1,0,0,response1disk,,6,19,9,1,0,0,rectangle,19,9,1,0,0,19,9,1,0,0,1,83,243,55,1,,,,,,,,
,,,,,,,,,,,,,FF,,,,,,,,1,,,,,,,,,,,,,,,,,,,,,,61034f3092f51520b90743d6,6103660c8f4a128797b1bdd3,2021-07-29_19h42.42.936,Simcolourproject_2stim_asymm_v5,2020.2.10,MacIntel,60,61025ae37ef11b136ea224fe,,,,,,,,,3473,-35,-54,1,0,0,response5disk,,3,-1,5,1,0,0,rectangle,-1,5,1,0,0,-1,5,1,0,0,1,84,244,58,1,,,,,,,,
,,,,,,,,,,,,,FF,,,,,,,,0.983,,,,,,,,,,,,,,,,,,,,,,61034f3092f51520b90743d6,6103660c8f4a128797b1bdd3,2021-07-29_19h42.42.936,Simcolourproject_2stim_asymm_v5,2020.2.10,MacIntel,60,61025ae37ef11b136ea224fe,,,,,,,,,3152,21,-53,1,0,0,response3disk,,4,-2,-4,1,0,0,rectangle,-2,-4,1,0,0,-2,-4,1,0,0,1,85,245,73,1,,,,,,,,
,,,,,,,,,,,,,FF,,,,,,,,0.866,,,,,,,,,,,,,,,,,,,,,,61034f3092f51520b90743d6,6103660c8f4a128797b1bdd3,2021-07-29_19h42.42.936,Simcolourproject_2stim_asymm_v5,2020.2.10,MacIntel,60,61025ae37ef11b136ea224fe,,,,,,,,,2713,27,-20,1,0,0,response3disk,,5,1,-1,1,0,0,rectangle,1,-1,1,0,0,1,-1,1,0,0,1,86,246,44,1,,,,,,,,
,,,,,,,,,,,,,FF,,,,,,,,1.2,,,,,,,,,,,,,,,,,,,,,,61034f3092f51520b90743d6,6103660c8f4a128797b1bdd3,2021-07-29_19h42.42.936,Simcolourproject_2stim_asymm_v5,2020.2.10,MacIntel,60,61025ae37ef11b136ea224fe,,,,,,,,,2953,-28,-51,1,0,0,response5disk,,3,-4,2,1,0,0,rectangle,-4,2,1,0,0,-4,2,1,0,0,1,87,247,94,1,,,,,,,,
,,,,,,,,,,,,,FF,,,,,,,,0.832,,,,,,,,,,,,,,,,,,,,,,61034f3092f51520b90743d6,6103660c8f4a128797b1bdd3,2021-07-29_19h42.42.936,Simcolourproject_2stim_asymm_v5,2020.2.10,MacIntel,60,61025ae37ef11b136ea224fe,,,,,,,,,64,27,-51,1,0,0,response3disk,,4,4,-6,1,0,0,rectangle,4,-6,1,0,0,4,-6,1,0,0,1,88,248,32,1,,,,,,,,
,,,,,,,,,,,,,FF,,,,,,,,0.733,,,,,,,,,,,,,,,,,,,,,,61034f3092f51520b90743d6,6103660c8f4a128797b1bdd3,2021-07-29_19h42.42.936,Simcolourproject_2stim_asymm_v5,2020.2.10,MacIntel,60,61025ae37ef11b136ea224fe,,,,,,,,,1816,47,-29,1,0,0,response3disk,,5,-14,3,1,0,0,rectangle,-14,3,1,0,0,-14,3,1,0,0,1,89,249,87,1,,,,,,,,
,,,,,,,,,,,,,FF,,,,,,,,30.432,,,,,,,,,,,,,,,,,,,,,,61034f3092f51520b90743d6,6103660c8f4a128797b1bdd3,2021-07-29_19h42.42.936,Simcolourproject_2stim_asymm_v5,2020.2.10,MacIntel,60,61025ae37ef11b136ea224fe,,,,,,,,,631,28,-58,1,0,0,response3disk,,4,-5,-3,1,0,0,rectangle,-5,-3,1,0,0,-5,-3,1,0,0,1,90,250,56,1,,,,,,,,
,,,,,,,,,,,,,FF,,,,,,,,0.7,,,,,,,,,,,,,,,,,,,,,,61034f3092f51520b90743d6,6103660c8f4a128797b1bdd3,2021-07-29_19h42.42.936,Simcolourproject_2stim_asymm_v5,2020.2.10,MacIntel,60,61025ae37ef11b136ea224fe,,,,,,,,,2850,55,27,1,0,0,response1disk,,6,6,8,1,0,0,rectangle,6,8,1,0,0,6,8,1,0,0,1,91,251,109,1,,,,,,,,
,,,,,,,,,,,,,FF,,,,,,,,0.649,,,,,,,,,,,,,,,,,,,,,,61034f3092f51520b90743d6,6103660c8f4a128797b1bdd3,2021-07-29_19h42.42.936,Simcolourproject_2stim_asymm_v5,2020.2.10,MacIntel,60,61025ae37ef11b136ea224fe,,,,,,,,,2335,54,33,1,0,0,response1disk,,6,0,5,1,0,0,rectangle,-45,58,1,0,0,-5,8,1,0,0,1,92,252,62,1,,response7disk_3,TRUE,0,0,"[101,120,113,40,9,290,106,232,81,175,253,168,79,312,281,29,79,145,22,190]",1.733,rectangle
,,,,,,,,,,,,,FF,,,,,,,,0.915,,,,,,,,,,,,,,,,,,,,,,61034f3092f51520b90743d6,6103660c8f4a128797b1bdd3,2021-07-29_19h42.42.936,Simcolourproject_2stim_asymm_v5,2020.2.10,MacIntel,60,61025ae37ef11b136ea224fe,,,,,,,,,460,-28,-57,1,0,0,response5disk,,3,4,0,1,0,0,rectangle,4,0,1,0,0,4,0,1,0,0,1,93,253,110,1,,,,,,,,
,,,,,,,,,,,,,FF,,,,,,,,0.683,,,,,,,,,,,,,,,,,,,,,,61034f3092f51520b90743d6,6103660c8f4a128797b1bdd3,2021-07-29_19h42.42.936,Simcolourproject_2stim_asymm_v5,2020.2.10,MacIntel,60,61025ae37ef11b136ea224fe,,,,,,,,,1419,29,-51,1,0,0,response3disk,,4,0,9,1,0,0,rectangle,0,9,1,0,0,0,9,1,0,0,1,94,254,1,1,,,,,,,,
,,,,,,,,,,,,,FF,,,,,,,,0.932,,,,,,,,,,,,,,,,,,,,,,61034f3092f51520b90743d6,6103660c8f4a128797b1bdd3,2021-07-29_19h42.42.936,Simcolourproject_2stim_asymm_v5,2020.2.10,MacIntel,60,61025ae37ef11b136ea224fe,,,,,,,,,895,50,-31,1,0,0,response3disk,,5,5,0,1,0,0,rectangle,5,0,1,0,0,5,0,1,0,0,1,95,255,81,1,,,,,,,,
,,,,,,,,,,,,,FF,,,,,,,,0.916,,,,,,,,,,,,,,,,,,,,,,61034f3092f51520b90743d6,6103660c8f4a128797b1bdd3,2021-07-29_19h42.42.936,Simcolourproject_2stim_asymm_v5,2020.2.10,MacIntel,60,61025ae37ef11b136ea224fe,,,,,,,,,3778,-50,-26,1,0,0,response5disk,,2,-5,-2,1,0,0,rectangle,-5,-2,1,0,0,-5,-2,1,0,0,1,96,256,86,1,,,,,,,,
,,,,,,,,,,,,,FF,,,,,,,,0.701,,,,,,,,,,,,,,,,,,,,,,61034f3092f51520b90743d6,6103660c8f4a128797b1bdd3,2021-07-29_19h42.42.936,Simcolourproject_2stim_asymm_v5,2020.2.10,MacIntel,60,61025ae37ef11b136ea224fe,,,,,,,,,4005,24,-47,1,0,0,response3disk,,4,2,-8,1,0,0,rectangle,2,-8,1,0,0,2,-8,1,0,0,1,97,257,129,1,,,,,,,,
,,,,,,,,,,,,,FF,,,,,,,,1.633,,,,,,,,,,,,,,,,,,,,,,61034f3092f51520b90743d6,6103660c8f4a128797b1bdd3,2021-07-29_19h42.42.936,Simcolourproject_2stim_asymm_v5,2020.2.10,MacIntel,60,61025ae37ef11b136ea224fe,,,,,,,,,2833,-64,-31,1,0,0,response5disk,,2,-5,-5,1,0,0,rectangle,-5,-5,1,0,0,-5,-5,1,0,0,1,98,258,104,1,,,,,,,,
,,,,,,,,,,,,,FF,,,,,,,,1.1,,,,,,,,,,,,,,,,,,,,,,61034f3092f51520b90743d6,6103660c8f4a128797b1bdd3,2021-07-29_19h42.42.936,Simcolourproject_2stim_asymm_v5,2020.2.10,MacIntel,60,61025ae37ef11b136ea224fe,,,,,,,,,207,57,-25,1,0,0,response3disk,,5,-19,16,1,0,0,rectangle,-19,16,1,0,0,-19,16,1,0,0,1,99,259,29,1,,,,,,,,
,,,,,,,,,,,,,FF,,,,,,,,1.033,,,,,,,,,,,,,,,,,,,,,,61034f3092f51520b90743d6,6103660c8f4a128797b1bdd3,2021-07-29_19h42.42.936,Simcolourproject_2stim_asymm_v5,2020.2.10,MacIntel,60,61025ae37ef11b136ea224fe,,,,,,,,,3572,54,-31,1,0,0,response3disk,,5,-10,8,1,0,0,rectangle,-10,8,1,0,0,-10,8,1,0,0,1,100,260,126,1,,,,,,,,
,,,,,,,,,,,,,FF,,,,,,,,1.366,,,,,,,,,,,,,,,,,,,,,,61034f3092f51520b90743d6,6103660c8f4a128797b1bdd3,2021-07-29_19h42.42.936,Simcolourproject_2stim_asymm_v5,2020.2.10,MacIntel,60,61025ae37ef11b136ea224fe,,,,,,,,,665,51,-30,1,0,0,response3disk,,5,-16,5,1,0,0,rectangle,-16,5,1,0,0,-16,5,1,0,0,1,101,261,70,1,,,,,,,,
,,,,,,,,,,,,,FF,,,,,,,,0.717,,,,,,,,,,,,,,,,,,,,,,61034f3092f51520b90743d6,6103660c8f4a128797b1bdd3,2021-07-29_19h42.42.936,Simcolourproject_2stim_asymm_v5,2020.2.10,MacIntel,60,61025ae37ef11b136ea224fe,,,,,,,,,582,23,51,1,0,0,response1disk,,7,5,8,1,0,0,rectangle,5,8,1,0,0,5,8,1,0,0,1,102,262,117,1,,,,,,,,
,,,,,,,,,,,,,FF,,,,,,,,0.732,,,,,,,,,,,,,,,,,,,,,,61034f3092f51520b90743d6,6103660c8f4a128797b1bdd3,2021-07-29_19h42.42.936,Simcolourproject_2stim_asymm_v5,2020.2.10,MacIntel,60,61025ae37ef11b136ea224fe,,,,,,,,,3807,59,25,1,0,0,response1disk,,6,6,-10,1,0,0,rectangle,6,-10,1,0,0,6,-10,1,0,0,1,103,263,84,1,,,,,,,,
,,,,,,,,,,,,,FF,,,,,,,,1.033,,,,,,,,,,,,,,,,,,,,,,61034f3092f51520b90743d6,6103660c8f4a128797b1bdd3,2021-07-29_19h42.42.936,Simcolourproject_2stim_asymm_v5,2020.2.10,MacIntel,60,61025ae37ef11b136ea224fe,,,,,,,,,3268,32,51,1,0,0,response1disk,,7,5,-1,1,0,0,rectangle,5,-1,1,0,0,5,-1,1,0,0,1,104,264,135,1,,,,,,,,
,,,,,,,,,,,,,FF,,,,,,,,0.7,,,,,,,,,,,,,,,,,,,,,,61034f3092f51520b90743d6,6103660c8f4a128797b1bdd3,2021-07-29_19h42.42.936,Simcolourproject_2stim_asymm_v5,2020.2.10,MacIntel,60,61025ae37ef11b136ea224fe,,,,,,,,,1925,60,23,1,0,0,response1disk,,6,-1,-14,1,0,0,rectangle,-1,-14,1,0,0,-1,-14,1,0,0,1,105,265,49,1,,,,,,,,
,,,,,,,,,,,,,FF,,,,,,,,0.883,,,,,,,,,,,,,,,,,,,,,,61034f3092f51520b90743d6,6103660c8f4a128797b1bdd3,2021-07-29_19h42.42.936,Simcolourproject_2stim_asymm_v5,2020.2.10,MacIntel,60,61025ae37ef11b136ea224fe,,,,,,,,,353,-47,19,1,0,0,response7disk,,1,-8,9,1,0,0,rectangle,-8,9,1,0,0,-8,9,1,0,0,1,106,266,128,1,,,,,,,,
,,,,,,,,,,,,,FF,,,,,,,,0.666,,,,,,,,,,,,,,,,,,,,,,61034f3092f51520b90743d6,6103660c8f4a128797b1bdd3,2021-07-29_19h42.42.936,Simcolourproject_2stim_asymm_v5,2020.2.10,MacIntel,60,61025ae37ef11b136ea224fe,,,,,,,,,245,54,33,1,0,0,response1disk,,6,6,4,1,0,0,rectangle,6,4,1,0,0,6,4,1,0,0,1,107,267,57,1,,,,,,,,
,,,,,,,,,,,,,FF,,,,,,,,1.05,,,,,,,,,,,,,,,,,,,,,,61034f3092f51520b90743d6,6103660c8f4a128797b1bdd3,2021-07-29_19h42.42.936,Simcolourproject_2stim_asymm_v5,2020.2.10,MacIntel,60,61025ae37ef11b136ea224fe,,,,,,,,,4004,64,-45,1,0,0,response3disk,,5,-1,0,1,0,0,rectangle,-1,0,1,0,0,-1,0,1,0,0,1,108,268,61,1,,,,,,,,
,,,,,,,,,,,,,FF,,,,,,,,0.783,,,,,,,,,,,,,,,,,,,,,,61034f3092f51520b90743d6,6103660c8f4a128797b1bdd3,2021-07-29_19h42.42.936,Simcolourproject_2stim_asymm_v5,2020.2.10,MacIntel,60,61025ae37ef11b136ea224fe,,,,,,,,,3001,40,22,1,0,0,response1disk,,6,-7,-2,1,0,0,rectangle,-7,-2,1,0,0,-7,-2,1,0,0,1,109,269,101,1,,,,,,,,
,,,,,,,,,,,,,FF,,,,,,,,0.682,,,,,,,,,,,,,,,,,,,,,,61034f3092f51520b90743d6,6103660c8f4a128797b1bdd3,2021-07-29_19h42.42.936,Simcolourproject_2stim_asymm_v5,2020.2.10,MacIntel,60,61025ae37ef11b136ea224fe,,,,,,,,,1439,61,-37,1,0,0,response3disk,,5,0,-2,1,0,0,rectangle,0,-2,1,0,0,0,-2,1,0,0,1,110,270,151,1,,,,,,,,
,,,,,,,,,,,,,FF,,,,,,,,0.983,,,,,,,,,,,,,,,,,,,,,,61034f3092f51520b90743d6,6103660c8f4a128797b1bdd3,2021-07-29_19h42.42.936,Simcolourproject_2stim_asymm_v5,2020.2.10,MacIntel,60,61025ae37ef11b136ea224fe,,,,,,,,,1382,38,-25,1,0,0,response3disk,,5,-1,2,1,0,0,rectangle,-1,2,1,0,0,-1,2,1,0,0,1,111,271,5,1,,,,,,,,
,,,,,,,,,,,,,FF,,,,,,,,0.633,,,,,,,,,,,,,,,,,,,,,,61034f3092f51520b90743d6,6103660c8f4a128797b1bdd3,2021-07-29_19h42.42.936,Simcolourproject_2stim_asymm_v5,2020.2.10,MacIntel,60,61025ae37ef11b136ea224fe,,,,,,,,,568,38,18,1,0,0,response1disk,,6,-1,1,1,0,0,rectangle,-1,1,1,0,0,-1,1,1,0,0,1,112,272,133,1,,,,,,,,
,,,,,,,,,,,,,FF,,,,,,,,0.883,,,,,,,,,,,,,,,,,,,,,,61034f3092f51520b90743d6,6103660c8f4a128797b1bdd3,2021-07-29_19h42.42.936,Simcolourproject_2stim_asymm_v5,2020.2.10,MacIntel,60,61025ae37ef11b136ea224fe,,,,,,,,,128,46,40,1,0,0,response1disk,,6,1,-9,1,0,0,rectangle,1,-9,1,0,0,1,-9,1,0,0,1,113,273,27,1,,,,,,,,
,,,,,,,,,,,,,FF,,,,,,,,1.332,,,,,,,,,,,,,,,,,,,,,,61034f3092f51520b90743d6,6103660c8f4a128797b1bdd3,2021-07-29_19h42.42.936,Simcolourproject_2stim_asymm_v5,2020.2.10,MacIntel,60,61025ae37ef11b136ea224fe,,,,,,,,,2924,50,-39,1,0,0,response3disk,,5,11,-7,1,0,0,rectangle,11,-7,1,0,0,11,-7,1,0,0,1,114,274,119,1,,,,,,,,
,,,,,,,,,,,,,FF,,,,,,,,0.834,,,,,,,,,,,,,,,,,,,,,,61034f3092f51520b90743d6,6103660c8f4a128797b1bdd3,2021-07-29_19h42.42.936,Simcolourproject_2stim_asymm_v5,2020.2.10,MacIntel,60,61025ae37ef11b136ea224fe,,,,,,,,,2776,26,-55,1,0,0,response3disk,,4,-11,15,1,0,0,rectangle,-11,15,1,0,0,-11,15,1,0,0,1,115,275,50,1,,,,,,,,
,,,,,,,,,,,,,FF,,,,,,,,0.766,,,,,,,,,,,,,,,,,,,,,,61034f3092f51520b90743d6,6103660c8f4a128797b1bdd3,2021-07-29_19h42.42.936,Simcolourproject_2stim_asymm_v5,2020.2.10,MacIntel,60,61025ae37ef11b136ea224fe,,,,,,,,,1915,44,-15,1,0,0,response3disk,,5,13,-2,1,0,0,rectangle,13,-2,1,0,0,13,-2,1,0,0,1,116,276,153,1,,,,,,,,
,,,,,,,,,,,,,FF,,,,,,,,0.7,,,,,,,,,,,,,,,,,,,,,,61034f3092f51520b90743d6,6103660c8f4a128797b1bdd3,2021-07-29_19h42.42.936,Simcolourproject_2stim_asymm_v5,2020.2.10,MacIntel,60,61025ae37ef11b136ea224fe,,,,,,,,,1084,49,29,1,0,0,response1disk,,6,7,-5,1,0,0,rectangle,7,-5,1,0,0,7,-5,1,0,0,1,117,277,125,1,,,,,,,,
,,,,,,,,,,,,,FF,,,,,,,,0.833,,,,,,,,,,,,,,,,,,,,,,61034f3092f51520b90743d6,6103660c8f4a128797b1bdd3,2021-07-29_19h42.42.936,Simcolourproject_2stim_asymm_v5,2020.2.10,MacIntel,60,61025ae37ef11b136ea224fe,,,,,,,,,1101,33,64,1,0,0,response1disk,,7,2,-5,1,0,0,rectangle,2,-5,1,0,0,2,-5,1,0,0,1,118,278,121,1,,,,,,,,
,,,,,,,,,,,,,FF,,,,,,,,1,,,,,,,,,,,,,,,,,,,,,,61034f3092f51520b90743d6,6103660c8f4a128797b1bdd3,2021-07-29_19h42.42.936,Simcolourproject_2stim_asymm_v5,2020.2.10,MacIntel,60,61025ae37ef11b136ea224fe,,,,,,,,,1764,37,-63,1,0,0,response3disk,,4,3,-9,1,0,0,rectangle,3,-9,1,0,0,3,-9,1,0,0,1,119,279,92,1,,,,,,,,
,,,,,,,,,,,,,FF,,,,,,,,0.717,,,,,,,,,,,,,,,,,,,,,,61034f3092f51520b90743d6,6103660c8f4a128797b1bdd3,2021-07-29_19h42.42.936,Simcolourproject_2stim_asymm_v5,2020.2.10,MacIntel,60,61025ae37ef11b136ea224fe,,,,,,,,,2012,54,22,1,0,0,response1disk,,6,0,-1,1,0,0,rectangle,32,-78,1,0,0,-1,-3,1,0,0,1,120,280,136,1,,response3disk_3,TRUE,4,4,"[101,120,113,40,9,290,106,232,81,175,253,168,79,312,281,29,79,145,22,190]",1.617,rectangle
,,,,,,,,,,,,,FF,,,,,,,,6.4,,,,,,,,,,,,,,,,,,,,,,61034f3092f51520b90743d6,6103660c8f4a128797b1bdd3,2021-07-29_19h42.42.936,Simcolourproject_2stim_asymm_v5,2020.2.10,MacIntel,60,61025ae37ef11b136ea224fe,,,,,,,,,2644,39,-22,1,0,0,response3disk,,5,9,-3,1,0,0,rectangle,9,-3,1,0,0,9,-3,1,0,0,1,121,281,88,1,,,,,,,,
,,,,,,,,,,,,,FF,,,,,,,,0.933,,,,,,,,,,,,,,,,,,,,,,61034f3092f51520b90743d6,6103660c8f4a128797b1bdd3,2021-07-29_19h42.42.936,Simcolourproject_2stim_asymm_v5,2020.2.10,MacIntel,60,61025ae37ef11b136ea224fe,,,,,,,,,3703,-34,-60,1,0,0,response5disk,,3,-3,3,1,0,0,rectangle,-3,3,1,0,0,-3,3,1,0,0,1,122,282,131,1,,,,,,,,
,,,,,,,,,,,,,FF,,,,,,,,0.933,,,,,,,,,,,,,,,,,,,,,,61034f3092f51520b90743d6,6103660c8f4a128797b1bdd3,2021-07-29_19h42.42.936,Simcolourproject_2stim_asymm_v5,2020.2.10,MacIntel,60,61025ae37ef11b136ea224fe,,,,,,,,,3644,-28,-45,1,0,0,response5disk,,3,-2,-2,1,0,0,rectangle,-2,-2,1,0,0,-2,-2,1,0,0,1,123,283,28,1,,,,,,,,
,,,,,,,,,,,,,FF,,,,,,,,1.116,,,,,,,,,,,,,,,,,,,,,,61034f3092f51520b90743d6,6103660c8f4a128797b1bdd3,2021-07-29_19h42.42.936,Simcolourproject_2stim_asymm_v5,2020.2.10,MacIntel,60,61025ae37ef11b136ea224fe,,,,,,,,,921,58,-35,1,0,0,response3disk,,5,9,-5,1,0,0,rectangle,9,-5,1,0,0,9,-5,1,0,0,1,124,284,82,1,,,,,,,,
,,,,,,,,,,,,,FF,,,,,,,,1.367,,,,,,,,,,,,,,,,,,,,,,61034f3092f51520b90743d6,6103660c8f4a128797b1bdd3,2021-07-29_19h42.42.936,Simcolourproject_2stim_asymm_v5,2020.2.10,MacIntel,60,61025ae37ef11b136ea224fe,,,,,,,,,194,52,-28,1,0,0,response3disk,,5,9,-8,1,0,0,rectangle,9,-8,1,0,0,9,-8,1,0,0,1,125,285,71,1,,,,,,,,
,,,,,,,,,,,,,FF,,,,,,,,1.283,,,,,,,,,,,,,,,,,,,,,,61034f3092f51520b90743d6,6103660c8f4a128797b1bdd3,2021-07-29_19h42.42.936,Simcolourproject_2stim_asymm_v5,2020.2.10,MacIntel,60,61025ae37ef11b136ea224fe,,,,,,,,,1964,-45,-28,1,0,0,response5disk,,2,-2,-3,1,0,0,rectangle,-2,-3,1,0,0,-2,-3,1,0,0,1,126,286,108,1,,,,,,,,
,,,,,,,,,,,,,FF,,,,,,,,0.584,,,,,,,,,,,,,,,,,,,,,,61034f3092f51520b90743d6,6103660c8f4a128797b1bdd3,2021-07-29_19h42.42.936,Simcolourproject_2stim_asymm_v5,2020.2.10,MacIntel,60,61025ae37ef11b136ea224fe,,,,,,,,,2265,44,-29,1,0,0,response3disk,,5,4,-8,1,0,0,rectangle,4,-8,1,0,0,4,-8,1,0,0,1,127,287,10,1,,,,,,,,
,,,,,,,,,,,,,FF,,,,,,,,0.815,,,,,,,,,,,,,,,,,,,,,,61034f3092f51520b90743d6,6103660c8f4a128797b1bdd3,2021-07-29_19h42.42.936,Simcolourproject_2stim_asymm_v5,2020.2.10,MacIntel,60,61025ae37ef11b136ea224fe,,,,,,,,,3750,-45,-61,1,0,0,response5disk,,3,-6,-16,1,0,0,rectangle,-6,-16,1,0,0,-6,-16,1,0,0,1,128,288,118,1,,,,,,,,
,,,,,,,,,,,,,FF,,,,,,,,0.967,,,,,,,,,,,,,,,,,,,,,,61034f3092f51520b90743d6,6103660c8f4a128797b1bdd3,2021-07-29_19h42.42.936,Simcolourproject_2stim_asymm_v5,2020.2.10,MacIntel,60,61025ae37ef11b136ea224fe,,,,,,,,,1438,61,28,1,0,0,response1disk,,6,15,10,1,0,0,rectangle,36,-67,1,0,0,3,3,1,0,0,1,129,289,116,1,,response3disk_3,TRUE,4,4,"[101,120,113,40,9,290,106,232,81,175,253,168,79,312,281,29,79,145,22,190]",1.433,rectangle
,,,,,,,,,,,,,FF,,,,,,,,1.298,,,,,,,,,,,,,,,,,,,,,,61034f3092f51520b90743d6,6103660c8f4a128797b1bdd3,2021-07-29_19h42.42.936,Simcolourproject_2stim_asymm_v5,2020.2.10,MacIntel,60,61025ae37ef11b136ea224fe,,,,,,,,,1961,-36,-67,1,0,0,response5disk,,3,2,-1,1,0,0,rectangle,2,-1,1,0,0,2,-1,1,0,0,1,130,290,2,1,,,,,,,,
,,,,,,,,,,,,,FF,,,,,,,,0.85,,,,,,,,,,,,,,,,,,,,,,61034f3092f51520b90743d6,6103660c8f4a128797b1bdd3,2021-07-29_19h42.42.936,Simcolourproject_2stim_asymm_v5,2020.2.10,MacIntel,60,61025ae37ef11b136ea224fe,,,,,,,,,3123,39,47,1,0,0,response1disk,,7,11,-6,1,0,0,rectangle,11,-6,1,0,0,11,-6,1,0,0,1,131,291,68,1,,,,,,,,
,,,,,,,,,,,,,FF,,,,,,,,0.917,,,,,,,,,,,,,,,,,,,,,,61034f3092f51520b90743d6,6103660c8f4a128797b1bdd3,2021-07-29_19h42.42.936,Simcolourproject_2stim_asymm_v5,2020.2.10,MacIntel,60,61025ae37ef11b136ea224fe,,,,,,,,,3482,23,-47,1,0,0,response3disk,,4,3,-3,1,0,0,rectangle,3,-3,1,0,0,3,-3,1,0,0,1,132,292,65,1,,,,,,,,
,,,,,,,,,,,,,FF,,,,,,,,0.766,,,,,,,,,,,,,,,,,,,,,,61034f3092f51520b90743d6,6103660c8f4a128797b1bdd3,2021-07-29_19h42.42.936,Simcolourproject_2stim_asymm_v5,2020.2.10,MacIntel,60,61025ae37ef11b136ea224fe,,,,,,,,,4040,50,-22,1,0,0,response3disk,,5,9,-6,1,0,0,rectangle,9,-6,1,0,0,9,-6,1,0,0,1,133,293,31,1,,,,,,,,
,,,,,,,,,,,,,FF,,,,,,,,0.967,,,,,,,,,,,,,,,,,,,,,,61034f3092f51520b90743d6,6103660c8f4a128797b1bdd3,2021-07-29_19h42.42.936,Simcolourproject_2stim_asymm_v5,2020.2.10,MacIntel,60,61025ae37ef11b136ea224fe,,,,,,,,,2654,26,-16,1,0,0,response3disk,,5,-9,8,1,0,0,rectangle,-9,8,1,0,0,-9,8,1,0,0,1,134,294,46,1,,,,,,,,
,,,,,,,,,,,,,FF,,,,,,,,1.233,,,,,,,,,,,,,,,,,,,,,,61034f3092f51520b90743d6,6103660c8f4a128797b1bdd3,2021-07-29_19h42.42.936,Simcolourproject_2stim_asymm_v5,2020.2.10,MacIntel,60,61025ae37ef11b136ea224fe,,,,,,,,,1449,-24,-62,1,0,0,response5disk,,3,-3,-2,1,0,0,rectangle,-3,-2,1,0,0,-3,-2,1,0,0,1,135,295,91,1,,,,,,,,
,,,,,,,,,,,,,FF,,,,,,,,1.132,,,,,,,,,,,,,,,,,,,,,,61034f3092f51520b90743d6,6103660c8f4a128797b1bdd3,2021-07-29_19h42.42.936,Simcolourproject_2stim_asymm_v5,2020.2.10,MacIntel,60,61025ae37ef11b136ea224fe,,,,,,,,,1785,38,67,1,0,0,response1disk,,7,0,-9,1,0,0,rectangle,0,-9,1,0,0,0,-9,1,0,0,1,136,296,38,1,,,,,,,,
,,,,,,,,,,,,,FF,,,,,,,,1.716,,,,,,,,,,,,,,,,,,,,,,61034f3092f51520b90743d6,6103660c8f4a128797b1bdd3,2021-07-29_19h42.42.936,Simcolourproject_2stim_asymm_v5,2020.2.10,MacIntel,60,61025ae37ef11b136ea224fe,,,,,,,,,2987,-40,-65,1,0,0,response5disk,,3,-12,-10,1,0,0,rectangle,-12,-10,1,0,0,-12,-10,1,0,0,1,137,297,102,1,,,,,,,,
,,,,,,,,,,,,,FF,,,,,,,,0.917,,,,,,,,,,,,,,,,,,,,,,61034f3092f51520b90743d6,6103660c8f4a128797b1bdd3,2021-07-29_19h42.42.936,Simcolourproject_2stim_asymm_v5,2020.2.10,MacIntel,60,61025ae37ef11b136ea224fe,,,,,,,,,1144,-63,-26,1,0,0,response5disk,,2,-7,-7,1,0,0,rectangle,-7,-7,1,0,0,-7,-7,1,0,0,1,138,298,45,1,,,,,,,,
,,,,,,,,,,,,,FF,,,,,,,,0.75,,,,,,,,,,,,,,,,,,,,,,61034f3092f51520b90743d6,6103660c8f4a128797b1bdd3,2021-07-29_19h42.42.936,Simcolourproject_2stim_asymm_v5,2020.2.10,MacIntel,60,61025ae37ef11b136ea224fe,,,,,,,,,962,47,43,1,0,0,response1disk,,6,-13,-17,1,0,0,rectangle,-13,-17,1,0,0,-13,-17,1,0,0,1,139,299,18,1,,,,,,,,
,,,,,,,,,,,,,FF,,,,,,,,0.716,,,,,,,,,,,,,,,,,,,,,,61034f3092f51520b90743d6,6103660c8f4a128797b1bdd3,2021-07-29_19h42.42.936,Simcolourproject_2stim_asymm_v5,2020.2.10,MacIntel,60,61025ae37ef11b136ea224fe,,,,,,,,,1950,44,-29,1,0,0,response3disk,,5,0,-5,1,0,0,rectangle,0,-5,1,0,0,0,-5,1,0,0,1,140,300,150,1,,,,,,,,
,,,,,,,,,,,,,FF,,,,,,,,1.1,,,,,,,,,,,,,,,,,,,,,,61034f3092f51520b90743d6,6103660c8f4a128797b1bdd3,2021-07-29_19h42.42.936,Simcolourproject_2stim_asymm_v5,2020.2.10,MacIntel,60,61025ae37ef11b136ea224fe,,,,,,,,,49,18,40,1,0,0,response1disk,,7,4,2,1,0,0,rectangle,4,2,1,0,0,4,2,1,0,0,1,141,301,143,1,,,,,,,,
