key_resp.keys,key_resp.rt,key_resp_14.keys,key_resp_14.rt,key_resp_15.keys,key_resp_15.rt,key_resp_17.keys,key_resp_17.rt,key_resp_9.keys,key_resp_9.rt,key_resp_10.keys,key_resp_10.rt,practice_comparison,Ecc,mouse_5.x,mouse_5.y,mouse_5.leftButton,mouse_5.midButton,mouse_5.rightButton,mouse_5.clicked_name,pracsimilarity,response_time,mouse_10.x,mouse_10.y,mouse_10.leftButton,mouse_10.midButton,mouse_10.rightButton,mouse_10.clicked_name,mouse_7.x,mouse_7.y,mouse_7.leftButton,mouse_7.midButton,mouse_7.rightButton,mouse_6.x,mouse_6.y,mouse_6.leftButton,mouse_6.midButton,mouse_6.rightButton,duringprac.thisRepN,duringprac.thisTrialN,duringprac.thisN,duringprac.thisIndex,duringprac.ran,participant,session,date,expName,psychopyVersion,OS,frameRate,study_id,mouse_7.clicked_name,catchpracsimilarity,catch_response_time,catchnumberprac,catchtrialorderprac,mouse_6.clicked_name,key_resp_22.keys,key_resp_22.rt,realcomparison,mouse.x,mouse.y,mouse.leftButton,mouse.midButton,mouse.rightButton,mouse.clicked_name,Colour2,similarity,mouse_2.x,mouse_2.y,mouse_2.leftButton,mouse_2.midButton,mouse_2.rightButton,mouse_2.clicked_name,mouse_3.x,mouse_3.y,mouse_3.leftButton,mouse_3.midButton,mouse_3.rightButton,mouse_11.x,mouse_11.y,mouse_11.leftButton,mouse_11.midButton,mouse_11.rightButton,trials_2.thisRepN,trials_2.thisTrialN,trials_2.thisN,trials_2.thisIndex,trials_2.ran,Colour1,mouse_3.clicked_name,catchornah,catchsimilarity,catchnumber,catchtrialorder,catchRT,mouse_11.clicked_name
space,2.3002,space,23.1413,space,10.0376,space,0.9779,space,0.6845,space,4.3738,6,FF,103,56,1,0,0,response1disk_5,6,2.5354,-3,-7,1,0,0,rectangle_8,-3,-7,1,0,0,-3,-7,1,0,0,0,0,0,0,1,610361398cc16a47afe9c948,610364a4e4ff10b76e5a45c7,2021-07-29_20h33.48.381,Simcolourproject_2stim_asymm_v5,2020.2.10,Win32,60,61025ae37ef11b136ea224fe,,,,,,,,,,,,,,,,,,,,,,,,,,,,,,,,,,,,,,,,,,,,,,
,,,,,,,,,,,,85,PF,-57,-109,1,0,0,response5disk_5,3,4.2338,7,7,1,0,0,rectangle_8,47,-83,1,0,0,4,2,1,0,0,0,1,1,1,1,610361398cc16a47afe9c948,610364a4e4ff10b76e5a45c7,2021-07-29_20h33.48.381,Simcolourproject_2stim_asymm_v5,2020.2.10,Win32,60,61025ae37ef11b136ea224fe,response3disk_7,4,2.9869,4,"[2,5]",rectangle_4,,,,,,,,,,,,,,,,,,,,,,,,,,,,,,,,,,,,,,,,
,,,,,,,,,,,,87,FF,-92,70,1,0,0,response7disk_5,1,5.8974,-7,9,1,0,0,rectangle_8,-7,9,1,0,0,-7,9,1,0,0,0,2,2,3,1,610361398cc16a47afe9c948,610364a4e4ff10b76e5a45c7,2021-07-29_20h33.48.381,Simcolourproject_2stim_asymm_v5,2020.2.10,Win32,60,61025ae37ef11b136ea224fe,,,,,,,,,,,,,,,,,,,,,,,,,,,,,,,,,,,,,,,,,,,,,,
,,,,,,,,,,,,6,FF,83,32,1,0,0,response1disk_5,6,3.3,11,-9,1,0,0,rectangle_8,11,-9,1,0,0,11,-9,1,0,0,0,3,3,5,1,610361398cc16a47afe9c948,610364a4e4ff10b76e5a45c7,2021-07-29_20h33.48.381,Simcolourproject_2stim_asymm_v5,2020.2.10,Win32,60,61025ae37ef11b136ea224fe,,,,,,,,,,,,,,,,,,,,,,,,,,,,,,,,,,,,,,,,,,,,,,
,,,,,,,,,,,,106,PF,-108,30,1,0,0,response7disk_5,1,1.4884,-10,5,1,0,0,rectangle_8,31,-104,1,0,0,-10,-9,1,0,0,0,4,4,2,1,610361398cc16a47afe9c948,610364a4e4ff10b76e5a45c7,2021-07-29_20h33.48.381,Simcolourproject_2stim_asymm_v5,2020.2.10,Win32,60,61025ae37ef11b136ea224fe,response3disk_7,4,2.0144,4,"[2,5]",rectangle_4,,,,,,,,,,,,,,,,,,,,,,,,,,,,,,,,,,,,,,,,
,,,,,,,,,,,,26,PF,-83,51,1,0,0,response7disk_5,1,2.0176,-2,-3,1,0,0,rectangle_8,-2,-3,1,0,0,-2,-3,1,0,0,0,5,5,4,1,610361398cc16a47afe9c948,610364a4e4ff10b76e5a45c7,2021-07-29_20h33.48.381,Simcolourproject_2stim_asymm_v5,2020.2.10,Win32,60,61025ae37ef11b136ea224fe,,,,,,,,,,,,,,,,,,,,,,,,,,,,,,,,,,,,,,,,,,,,,,
,,,,,,,,,,,,1,PF,-23,-86,1,0,0,response5disk_5,3,2.2494,10,4,1,0,0,rectangle_8,10,4,1,0,0,10,4,1,0,0,0,6,6,6,1,610361398cc16a47afe9c948,610364a4e4ff10b76e5a45c7,2021-07-29_20h33.48.381,Simcolourproject_2stim_asymm_v5,2020.2.10,Win32,60,61025ae37ef11b136ea224fe,,,,,,,,,,,,,,,,,,,,,,,,,,,,,,,,,,,,,,,,,,,,,,
,,,,,,,,,,,,,FF,,,,,,,,6.8023,,,,,,,,,,,,,,,,,,,,,,610361398cc16a47afe9c948,610364a4e4ff10b76e5a45c7,2021-07-29_20h33.48.381,Simcolourproject_2stim_asymm_v5,2020.2.10,Win32,60,61025ae37ef11b136ea224fe,,,,,,,space,3.9345,1632,77,34,1,0,0,response1disk,,6,-9,0,1,0,0,rectangle,-9,0,1,0,0,-9,0,1,0,0,0,0,0,105,1,,,,,,,,
,,,,,,,,,,,,,FF,,,,,,,,1.252,,,,,,,,,,,,,,,,,,,,,,610361398cc16a47afe9c948,610364a4e4ff10b76e5a45c7,2021-07-29_20h33.48.381,Simcolourproject_2stim_asymm_v5,2020.2.10,Win32,60,61025ae37ef11b136ea224fe,,,,,,,,,1584,-69,52,1,0,0,response7disk,,1,-14,5,1,0,0,rectangle,-14,5,1,0,0,-14,5,1,0,0,0,1,1,63,1,,,,,,,,
,,,,,,,,,,,,,FF,,,,,,,,0.8896,,,,,,,,,,,,,,,,,,,,,,610361398cc16a47afe9c948,610364a4e4ff10b76e5a45c7,2021-07-29_20h33.48.381,Simcolourproject_2stim_asymm_v5,2020.2.10,Win32,60,61025ae37ef11b136ea224fe,,,,,,,,,3574,45,-76,1,0,0,response3disk,,4,-2,12,1,0,0,rectangle,-2,12,1,0,0,-2,12,1,0,0,0,2,2,89,1,,,,,,,,
,,,,,,,,,,,,,FF,,,,,,,,2.9406,,,,,,,,,,,,,,,,,,,,,,610361398cc16a47afe9c948,610364a4e4ff10b76e5a45c7,2021-07-29_20h33.48.381,Simcolourproject_2stim_asymm_v5,2020.2.10,Win32,60,61025ae37ef11b136ea224fe,,,,,,,,,3194,-49,77,1,0,0,response7disk,,0,7,-4,1,0,0,rectangle,7,-4,1,0,0,7,-4,1,0,0,0,3,3,112,1,,,,,,,,
,,,,,,,,,,,,,FF,,,,,,,,2.3155,,,,,,,,,,,,,,,,,,,,,,610361398cc16a47afe9c948,610364a4e4ff10b76e5a45c7,2021-07-29_20h33.48.381,Simcolourproject_2stim_asymm_v5,2020.2.10,Win32,60,61025ae37ef11b136ea224fe,,,,,,,,,3418,-17,69,1,0,0,response7disk,,0,-9,5,1,0,0,rectangle,-9,5,1,0,0,-9,5,1,0,0,0,4,4,144,1,,,,,,,,
,,,,,,,,,,,,,FF,,,,,,,,1.2444,,,,,,,,,,,,,,,,,,,,,,610361398cc16a47afe9c948,610364a4e4ff10b76e5a45c7,2021-07-29_20h33.48.381,Simcolourproject_2stim_asymm_v5,2020.2.10,Win32,60,61025ae37ef11b136ea224fe,,,,,,,,,2043,42,63,1,0,0,response1disk,,7,-10,-5,1,0,0,rectangle,-10,-5,1,0,0,-10,-5,1,0,0,0,5,5,68,1,,,,,,,,
,,,,,,,,,,,,,FF,,,,,,,,1.6138,,,,,,,,,,,,,,,,,,,,,,610361398cc16a47afe9c948,610364a4e4ff10b76e5a45c7,2021-07-29_20h33.48.381,Simcolourproject_2stim_asymm_v5,2020.2.10,Win32,60,61025ae37ef11b136ea224fe,,,,,,,,,1750,-27,83,1,0,0,response7disk,,0,6,-9,1,0,0,rectangle,6,-9,1,0,0,6,-9,1,0,0,0,6,6,141,1,,,,,,,,
,,,,,,,,,,,,,FF,,,,,,,,2.8683,,,,,,,,,,,,,,,,,,,,,,610361398cc16a47afe9c948,610364a4e4ff10b76e5a45c7,2021-07-29_20h33.48.381,Simcolourproject_2stim_asymm_v5,2020.2.10,Win32,60,61025ae37ef11b136ea224fe,,,,,,,,,4369,-30,75,1,0,0,response7disk,,0,1,4,1,0,0,rectangle,1,4,1,0,0,1,4,1,0,0,0,7,7,148,1,,,,,,,,
,,,,,,,,,,,,,FF,,,,,,,,1.2086,,,,,,,,,,,,,,,,,,,,,,610361398cc16a47afe9c948,610364a4e4ff10b76e5a45c7,2021-07-29_20h33.48.381,Simcolourproject_2stim_asymm_v5,2020.2.10,Win32,60,61025ae37ef11b136ea224fe,,,,,,,,,2837,-51,-86,1,0,0,response5disk,,3,24,-2,1,0,0,rectangle,24,-2,1,0,0,24,-2,1,0,0,0,8,8,56,1,,,,,,,,
,,,,,,,,,,,,,FF,,,,,,,,1.0364,,,,,,,,,,,,,,,,,,,,,,610361398cc16a47afe9c948,610364a4e4ff10b76e5a45c7,2021-07-29_20h33.48.381,Simcolourproject_2stim_asymm_v5,2020.2.10,Win32,60,61025ae37ef11b136ea224fe,,,,,,,,,3219,33,-68,1,0,0,response3disk,,4,1,-2,1,0,0,rectangle,1,-2,1,0,0,1,-2,1,0,0,0,9,9,122,1,,,,,,,,
,,,,,,,,,,,,,FF,,,,,,,,1.1078,,,,,,,,,,,,,,,,,,,,,,610361398cc16a47afe9c948,610364a4e4ff10b76e5a45c7,2021-07-29_20h33.48.381,Simcolourproject_2stim_asymm_v5,2020.2.10,Win32,60,61025ae37ef11b136ea224fe,,,,,,,,,4306,-42,-98,1,0,0,response5disk,,3,-15,9,1,0,0,rectangle,-15,9,1,0,0,-15,9,1,0,0,0,10,10,107,1,,,,,,,,
,,,,,,,,,,,,,FF,,,,,,,,0.9353,,,,,,,,,,,,,,,,,,,,,,610361398cc16a47afe9c948,610364a4e4ff10b76e5a45c7,2021-07-29_20h33.48.381,Simcolourproject_2stim_asymm_v5,2020.2.10,Win32,60,61025ae37ef11b136ea224fe,,,,,,,,,1407,-37,-81,1,0,0,response5disk,,3,17,-1,1,0,0,rectangle,17,-1,1,0,0,17,-1,1,0,0,0,11,11,55,1,,,,,,,,
,,,,,,,,,,,,,FF,,,,,,,,0.9596,,,,,,,,,,,,,,,,,,,,,,610361398cc16a47afe9c948,610364a4e4ff10b76e5a45c7,2021-07-29_20h33.48.381,Simcolourproject_2stim_asymm_v5,2020.2.10,Win32,60,61025ae37ef11b136ea224fe,,,,,,,,,3038,-75,-42,1,0,0,response5disk,,2,8,6,1,0,0,rectangle,8,6,1,0,0,8,6,1,0,0,0,12,12,94,1,,,,,,,,
,,,,,,,,,,,,,FF,,,,,,,,1.6841,,,,,,,,,,,,,,,,,,,,,,610361398cc16a47afe9c948,610364a4e4ff10b76e5a45c7,2021-07-29_20h33.48.381,Simcolourproject_2stim_asymm_v5,2020.2.10,Win32,60,61025ae37ef11b136ea224fe,,,,,,,,,989,-85,-40,1,0,0,response5disk,,2,4,7,1,0,0,rectangle,4,7,1,0,0,4,7,1,0,0,0,13,13,7,1,,,,,,,,
,,,,,,,,,,,,,FF,,,,,,,,2.7483,,,,,,,,,,,,,,,,,,,,,,610361398cc16a47afe9c948,610364a4e4ff10b76e5a45c7,2021-07-29_20h33.48.381,Simcolourproject_2stim_asymm_v5,2020.2.10,Win32,60,61025ae37ef11b136ea224fe,,,,,,,,,4334,111,47,1,0,0,response1disk,,6,10,3,1,0,0,rectangle,10,3,1,0,0,10,3,1,0,0,0,14,14,120,1,,,,,,,,
,,,,,,,,,,,,,FF,,,,,,,,0.8003,,,,,,,,,,,,,,,,,,,,,,610361398cc16a47afe9c948,610364a4e4ff10b76e5a45c7,2021-07-29_20h33.48.381,Simcolourproject_2stim_asymm_v5,2020.2.10,Win32,60,61025ae37ef11b136ea224fe,,,,,,,,,2131,-23,60,1,0,0,response7disk,,0,8,6,1,0,0,rectangle,8,6,1,0,0,8,6,1,0,0,0,15,15,52,1,,,,,,,,
,,,,,,,,,,,,,FF,,,,,,,,1.0512,,,,,,,,,,,,,,,,,,,,,,610361398cc16a47afe9c948,610364a4e4ff10b76e5a45c7,2021-07-29_20h33.48.381,Simcolourproject_2stim_asymm_v5,2020.2.10,Win32,60,61025ae37ef11b136ea224fe,,,,,,,,,1112,-42,-66,1,0,0,response5disk,,3,8,2,1,0,0,rectangle,8,2,1,0,0,8,2,1,0,0,0,16,16,97,1,,,,,,,,
,,,,,,,,,,,,,FF,,,,,,,,1.355,,,,,,,,,,,,,,,,,,,,,,610361398cc16a47afe9c948,610364a4e4ff10b76e5a45c7,2021-07-29_20h33.48.381,Simcolourproject_2stim_asymm_v5,2020.2.10,Win32,60,61025ae37ef11b136ea224fe,,,,,,,,,2422,-83,-43,1,0,0,response5disk,,2,-8,1,1,0,0,rectangle,-8,1,1,0,0,-8,1,1,0,0,0,17,17,53,1,,,,,,,,
,,,,,,,,,,,,,FF,,,,,,,,1.2012,,,,,,,,,,,,,,,,,,,,,,610361398cc16a47afe9c948,610364a4e4ff10b76e5a45c7,2021-07-29_20h33.48.381,Simcolourproject_2stim_asymm_v5,2020.2.10,Win32,60,61025ae37ef11b136ea224fe,,,,,,,,,297,40,77,1,0,0,response1disk,,7,10,3,1,0,0,rectangle,10,3,1,0,0,10,3,1,0,0,0,18,18,145,1,,,,,,,,
,,,,,,,,,,,,,FF,,,,,,,,0.9023,,,,,,,,,,,,,,,,,,,,,,610361398cc16a47afe9c948,610364a4e4ff10b76e5a45c7,2021-07-29_20h33.48.381,Simcolourproject_2stim_asymm_v5,2020.2.10,Win32,60,61025ae37ef11b136ea224fe,,,,,,,,,612,27,74,1,0,0,response1disk,,7,1,14,1,0,0,rectangle,1,14,1,0,0,1,14,1,0,0,0,19,19,149,1,,,,,,,,
,,,,,,,,,,,,,FF,,,,,,,,1.2639,,,,,,,,,,,,,,,,,,,,,,610361398cc16a47afe9c948,610364a4e4ff10b76e5a45c7,2021-07-29_20h33.48.381,Simcolourproject_2stim_asymm_v5,2020.2.10,Win32,60,61025ae37ef11b136ea224fe,,,,,,,,,2575,-39,-63,1,0,0,response5disk,,3,7,12,1,0,0,rectangle,7,12,1,0,0,7,12,1,0,0,0,20,20,41,1,,,,,,,,
,,,,,,,,,,,,,FF,,,,,,,,0.9349,,,,,,,,,,,,,,,,,,,,,,610361398cc16a47afe9c948,610364a4e4ff10b76e5a45c7,2021-07-29_20h33.48.381,Simcolourproject_2stim_asymm_v5,2020.2.10,Win32,60,61025ae37ef11b136ea224fe,,,,,,,,,3818,-70,-35,1,0,0,response5disk,,2,-2,10,1,0,0,rectangle,-2,10,1,0,0,-2,10,1,0,0,0,21,21,158,1,,,,,,,,
,,,,,,,,,,,,,FF,,,,,,,,1.0666,,,,,,,,,,,,,,,,,,,,,,610361398cc16a47afe9c948,610364a4e4ff10b76e5a45c7,2021-07-29_20h33.48.381,Simcolourproject_2stim_asymm_v5,2020.2.10,Win32,60,61025ae37ef11b136ea224fe,,,,,,,,,1250,23,-76,1,0,0,response3disk,,4,12,0,1,0,0,rectangle,12,0,1,0,0,12,0,1,0,0,0,22,22,130,1,,,,,,,,
,,,,,,,,,,,,,FF,,,,,,,,0.8009,,,,,,,,,,,,,,,,,,,,,,610361398cc16a47afe9c948,610364a4e4ff10b76e5a45c7,2021-07-29_20h33.48.381,Simcolourproject_2stim_asymm_v5,2020.2.10,Win32,60,61025ae37ef11b136ea224fe,,,,,,,,,420,62,-35,1,0,0,response3disk,,5,11,-2,1,0,0,rectangle,11,-2,1,0,0,11,-2,1,0,0,0,23,23,139,1,,,,,,,,
,,,,,,,,,,,,,FF,,,,,,,,0.7813,,,,,,,,,,,,,,,,,,,,,,610361398cc16a47afe9c948,610364a4e4ff10b76e5a45c7,2021-07-29_20h33.48.381,Simcolourproject_2stim_asymm_v5,2020.2.10,Win32,60,61025ae37ef11b136ea224fe,,,,,,,,,512,34,-75,1,0,0,response3disk,,4,7,-2,1,0,0,rectangle,7,-2,1,0,0,7,-2,1,0,0,0,24,24,47,1,,,,,,,,
,,,,,,,,,,,,,FF,,,,,,,,0.6881,,,,,,,,,,,,,,,,,,,,,,610361398cc16a47afe9c948,610364a4e4ff10b76e5a45c7,2021-07-29_20h33.48.381,Simcolourproject_2stim_asymm_v5,2020.2.10,Win32,60,61025ae37ef11b136ea224fe,,,,,,,,,2762,-31,-66,1,0,0,response5disk,,3,-6,-1,1,0,0,rectangle,-6,-1,1,0,0,-6,-1,1,0,0,0,25,25,86,1,,,,,,,,
,,,,,,,,,,,,,FF,,,,,,,,1.3029,,,,,,,,,,,,,,,,,,,,,,610361398cc16a47afe9c948,610364a4e4ff10b76e5a45c7,2021-07-29_20h33.48.381,Simcolourproject_2stim_asymm_v5,2020.2.10,Win32,60,61025ae37ef11b136ea224fe,,,,,,,,,967,58,-37,1,0,0,response3disk,,5,21,10,1,0,0,rectangle,21,10,1,0,0,21,10,1,0,0,0,26,26,26,1,,,,,,,,
,,,,,,,,,,,,,FF,,,,,,,,0.6966,,,,,,,,,,,,,,,,,,,,,,610361398cc16a47afe9c948,610364a4e4ff10b76e5a45c7,2021-07-29_20h33.48.381,Simcolourproject_2stim_asymm_v5,2020.2.10,Win32,60,61025ae37ef11b136ea224fe,,,,,,,,,3122,34,-76,1,0,0,response3disk,,4,0,-11,1,0,0,rectangle,0,-11,1,0,0,0,-11,1,0,0,0,27,27,154,1,,,,,,,,
,,,,,,,,,,,,,FF,,,,,,,,1.47,,,,,,,,,,,,,,,,,,,,,,610361398cc16a47afe9c948,610364a4e4ff10b76e5a45c7,2021-07-29_20h33.48.381,Simcolourproject_2stim_asymm_v5,2020.2.10,Win32,60,61025ae37ef11b136ea224fe,,,,,,,,,104,-34,-73,1,0,0,response5disk,,3,-7,2,1,0,0,rectangle,-7,2,1,0,0,-7,2,1,0,0,0,28,28,20,1,,,,,,,,
,,,,,,,,,,,,,FF,,,,,,,,1.207,,,,,,,,,,,,,,,,,,,,,,610361398cc16a47afe9c948,610364a4e4ff10b76e5a45c7,2021-07-29_20h33.48.381,Simcolourproject_2stim_asymm_v5,2020.2.10,Win32,60,61025ae37ef11b136ea224fe,,,,,,,,,1927,71,54,1,0,0,response1disk,,6,-11,-10,1,0,0,rectangle,-11,-10,1,0,0,-11,-10,1,0,0,0,29,29,132,1,,,,,,,,
,,,,,,,,,,,,,FF,,,,,,,,0.6772,,,,,,,,,,,,,,,,,,,,,,610361398cc16a47afe9c948,610364a4e4ff10b76e5a45c7,2021-07-29_20h33.48.381,Simcolourproject_2stim_asymm_v5,2020.2.10,Win32,60,61025ae37ef11b136ea224fe,,,,,,,,,654,30,-67,1,0,0,response3disk,,4,-2,1,1,0,0,rectangle,-2,1,1,0,0,-2,1,1,0,0,0,30,30,93,1,,,,,,,,
,,,,,,,,,,,,,FF,,,,,,,,0.756,,,,,,,,,,,,,,,,,,,,,,610361398cc16a47afe9c948,610364a4e4ff10b76e5a45c7,2021-07-29_20h33.48.381,Simcolourproject_2stim_asymm_v5,2020.2.10,Win32,60,61025ae37ef11b136ea224fe,,,,,,,,,3543,58,-33,1,0,0,response3disk,,5,2,7,1,0,0,rectangle,2,7,1,0,0,2,7,1,0,0,0,31,31,121,1,,,,,,,,
,,,,,,,,,,,,,FF,,,,,,,,0.6501,,,,,,,,,,,,,,,,,,,,,,610361398cc16a47afe9c948,610364a4e4ff10b76e5a45c7,2021-07-29_20h33.48.381,Simcolourproject_2stim_asymm_v5,2020.2.10,Win32,60,61025ae37ef11b136ea224fe,,,,,,,,,1915,-45,-90,1,0,0,response5disk,,3,4,13,1,0,0,rectangle,4,13,1,0,0,4,13,1,0,0,0,32,32,155,1,,,,,,,,
,,,,,,,,,,,,,FF,,,,,,,,0.6234,,,,,,,,,,,,,,,,,,,,,,610361398cc16a47afe9c948,610364a4e4ff10b76e5a45c7,2021-07-29_20h33.48.381,Simcolourproject_2stim_asymm_v5,2020.2.10,Win32,60,61025ae37ef11b136ea224fe,,,,,,,,,546,-79,-53,1,0,0,response5disk,,2,9,-3,1,0,0,rectangle,9,-3,1,0,0,9,-3,1,0,0,0,33,33,1,1,,,,,,,,
,,,,,,,,,,,,,FF,,,,,,,,1.4458,,,,,,,,,,,,,,,,,,,,,,610361398cc16a47afe9c948,610364a4e4ff10b76e5a45c7,2021-07-29_20h33.48.381,Simcolourproject_2stim_asymm_v5,2020.2.10,Win32,60,61025ae37ef11b136ea224fe,,,,,,,,,520,-69,-51,1,0,0,response5disk,,2,4,0,1,0,0,rectangle,4,0,1,0,0,4,0,1,0,0,0,34,34,133,1,,,,,,,,
,,,,,,,,,,,,,FF,,,,,,,,1.2899,,,,,,,,,,,,,,,,,,,,,,610361398cc16a47afe9c948,610364a4e4ff10b76e5a45c7,2021-07-29_20h33.48.381,Simcolourproject_2stim_asymm_v5,2020.2.10,Win32,60,61025ae37ef11b136ea224fe,,,,,,,,,2362,-90,61,1,0,0,response7disk,,1,-9,-3,1,0,0,rectangle,-9,-3,1,0,0,-9,-3,1,0,0,0,35,35,127,1,,,,,,,,
,,,,,,,,,,,,,FF,,,,,,,,1.3176,,,,,,,,,,,,,,,,,,,,,,610361398cc16a47afe9c948,610364a4e4ff10b76e5a45c7,2021-07-29_20h33.48.381,Simcolourproject_2stim_asymm_v5,2020.2.10,Win32,60,61025ae37ef11b136ea224fe,,,,,,,,,1600,-59,-41,1,0,0,response5disk,,2,1,0,1,0,0,rectangle,1,0,1,0,0,1,0,1,0,0,0,36,36,70,1,,,,,,,,
,,,,,,,,,,,,,FF,,,,,,,,0.7872,,,,,,,,,,,,,,,,,,,,,,610361398cc16a47afe9c948,610364a4e4ff10b76e5a45c7,2021-07-29_20h33.48.381,Simcolourproject_2stim_asymm_v5,2020.2.10,Win32,60,61025ae37ef11b136ea224fe,,,,,,,,,1833,-60,-33,1,0,0,response5disk,,2,5,2,1,0,0,rectangle,5,2,1,0,0,5,2,1,0,0,0,37,37,22,1,,,,,,,,
,,,,,,,,,,,,,FF,,,,,,,,0.9044,,,,,,,,,,,,,,,,,,,,,,610361398cc16a47afe9c948,610364a4e4ff10b76e5a45c7,2021-07-29_20h33.48.381,Simcolourproject_2stim_asymm_v5,2020.2.10,Win32,60,61025ae37ef11b136ea224fe,,,,,,,,,1161,-27,-71,1,0,0,response5disk,,3,-6,7,1,0,0,rectangle,-6,7,1,0,0,-6,7,1,0,0,0,38,38,67,1,,,,,,,,
,,,,,,,,,,,,,FF,,,,,,,,1.0011,,,,,,,,,,,,,,,,,,,,,,610361398cc16a47afe9c948,610364a4e4ff10b76e5a45c7,2021-07-29_20h33.48.381,Simcolourproject_2stim_asymm_v5,2020.2.10,Win32,60,61025ae37ef11b136ea224fe,,,,,,,,,4294,-87,-46,1,0,0,response5disk,,2,-12,5,1,0,0,rectangle,-12,5,1,0,0,-12,5,1,0,0,0,39,39,124,1,,,,,,,,
,,,,,,,,,,,,,FF,,,,,,,,1.0173,,,,,,,,,,,,,,,,,,,,,,610361398cc16a47afe9c948,610364a4e4ff10b76e5a45c7,2021-07-29_20h33.48.381,Simcolourproject_2stim_asymm_v5,2020.2.10,Win32,60,61025ae37ef11b136ea224fe,,,,,,,,,1529,-74,-45,1,0,0,response5disk,,2,8,4,1,0,0,rectangle,8,4,1,0,0,8,4,1,0,0,0,40,40,126,1,,,,,,,,
,,,,,,,,,,,,,FF,,,,,,,,1.0679,,,,,,,,,,,,,,,,,,,,,,610361398cc16a47afe9c948,610364a4e4ff10b76e5a45c7,2021-07-29_20h33.48.381,Simcolourproject_2stim_asymm_v5,2020.2.10,Win32,60,61025ae37ef11b136ea224fe,,,,,,,,,2332,33,-84,1,0,0,response3disk,,4,12,-2,1,0,0,rectangle,12,-2,1,0,0,12,-2,1,0,0,0,41,41,115,1,,,,,,,,
,,,,,,,,,,,,,FF,,,,,,,,0.6121,,,,,,,,,,,,,,,,,,,,,,610361398cc16a47afe9c948,610364a4e4ff10b76e5a45c7,2021-07-29_20h33.48.381,Simcolourproject_2stim_asymm_v5,2020.2.10,Win32,60,61025ae37ef11b136ea224fe,,,,,,,,,1846,59,45,1,0,0,response1disk,,6,-19,-7,1,0,0,rectangle,-19,-7,1,0,0,-19,-7,1,0,0,0,42,42,118,1,,,,,,,,
,,,,,,,,,,,,,FF,,,,,,,,1.0426,,,,,,,,,,,,,,,,,,,,,,610361398cc16a47afe9c948,610364a4e4ff10b76e5a45c7,2021-07-29_20h33.48.381,Simcolourproject_2stim_asymm_v5,2020.2.10,Win32,60,61025ae37ef11b136ea224fe,,,,,,,,,3668,-76,52,1,0,0,response7disk,,1,-16,7,1,0,0,rectangle,-16,7,1,0,0,-16,7,1,0,0,0,43,43,84,1,,,,,,,,
,,,,,,,,,,,,,FF,,,,,,,,1.0849,,,,,,,,,,,,,,,,,,,,,,610361398cc16a47afe9c948,610364a4e4ff10b76e5a45c7,2021-07-29_20h33.48.381,Simcolourproject_2stim_asymm_v5,2020.2.10,Win32,60,61025ae37ef11b136ea224fe,,,,,,,,,4010,-80,-48,1,0,0,response5disk,,2,10,0,1,0,0,rectangle,10,0,1,0,0,10,0,1,0,0,0,44,44,80,1,,,,,,,,
,,,,,,,,,,,,,FF,,,,,,,,0.5084,,,,,,,,,,,,,,,,,,,,,,610361398cc16a47afe9c948,610364a4e4ff10b76e5a45c7,2021-07-29_20h33.48.381,Simcolourproject_2stim_asymm_v5,2020.2.10,Win32,60,61025ae37ef11b136ea224fe,,,,,,,,,1509,-27,-70,1,0,0,response5disk,,3,8,11,1,0,0,rectangle,40,-79,1,0,0,1,-5,1,0,0,0,45,45,39,1,,response3disk_3,TRUE,4,4,"[136,46,133,205,50,50,152,173,273,79,53,180,162,85,89,321,237,312,279,154]",1.2359,rectangle
,,,,,,,,,,,,,FF,,,,,,,,0.9512,,,,,,,,,,,,,,,,,,,,,,610361398cc16a47afe9c948,610364a4e4ff10b76e5a45c7,2021-07-29_20h33.48.381,Simcolourproject_2stim_asymm_v5,2020.2.10,Win32,60,61025ae37ef11b136ea224fe,,,,,,,,,2184,-32,-74,1,0,0,response5disk,,3,-6,5,1,0,0,rectangle,-6,5,1,0,0,-6,5,1,0,0,0,46,46,30,1,,,,,,,,
,,,,,,,,,,,,,FF,,,,,,,,1.0173,,,,,,,,,,,,,,,,,,,,,,610361398cc16a47afe9c948,610364a4e4ff10b76e5a45c7,2021-07-29_20h33.48.381,Simcolourproject_2stim_asymm_v5,2020.2.10,Win32,60,61025ae37ef11b136ea224fe,,,,,,,,,3940,-83,-46,1,0,0,response5disk,,2,-8,-5,1,0,0,rectangle,-8,-5,1,0,0,-8,-5,1,0,0,0,47,47,104,1,,,,,,,,
,,,,,,,,,,,,,FF,,,,,,,,0.8329,,,,,,,,,,,,,,,,,,,,,,610361398cc16a47afe9c948,610364a4e4ff10b76e5a45c7,2021-07-29_20h33.48.381,Simcolourproject_2stim_asymm_v5,2020.2.10,Win32,60,61025ae37ef11b136ea224fe,,,,,,,,,2795,-43,-103,1,0,0,response5disk,,3,-10,-8,1,0,0,rectangle,-10,-8,1,0,0,-10,-8,1,0,0,0,48,48,87,1,,,,,,,,
,,,,,,,,,,,,,FF,,,,,,,,0.9812,,,,,,,,,,,,,,,,,,,,,,610361398cc16a47afe9c948,610364a4e4ff10b76e5a45c7,2021-07-29_20h33.48.381,Simcolourproject_2stim_asymm_v5,2020.2.10,Win32,60,61025ae37ef11b136ea224fe,,,,,,,,,4299,62,-44,1,0,0,response3disk,,5,-8,0,1,0,0,rectangle,56,-81,1,0,0,6,0,1,0,0,0,49,49,64,1,,response3disk_3,TRUE,4,4,"[136,46,133,205,50,50,152,173,273,79,53,180,162,85,89,321,237,312,279,154]",1.2462,rectangle
,,,,,,,,,,,,,FF,,,,,,,,10.0581,,,,,,,,,,,,,,,,,,,,,,610361398cc16a47afe9c948,610364a4e4ff10b76e5a45c7,2021-07-29_20h33.48.381,Simcolourproject_2stim_asymm_v5,2020.2.10,Win32,60,61025ae37ef11b136ea224fe,,,,,,,,,1653,90,22,1,0,0,response1disk,,6,5,-8,1,0,0,rectangle,5,-8,1,0,0,5,-8,1,0,0,0,50,50,125,1,,,,,,,,
,,,,,,,,,,,,,FF,,,,,,,,0.9531,,,,,,,,,,,,,,,,,,,,,,610361398cc16a47afe9c948,610364a4e4ff10b76e5a45c7,2021-07-29_20h33.48.381,Simcolourproject_2stim_asymm_v5,2020.2.10,Win32,60,61025ae37ef11b136ea224fe,,,,,,,,,3407,40,-81,1,0,0,response3disk,,4,8,0,1,0,0,rectangle,8,0,1,0,0,8,0,1,0,0,0,51,51,98,1,,,,,,,,
,,,,,,,,,,,,,FF,,,,,,,,0.6675,,,,,,,,,,,,,,,,,,,,,,610361398cc16a47afe9c948,610364a4e4ff10b76e5a45c7,2021-07-29_20h33.48.381,Simcolourproject_2stim_asymm_v5,2020.2.10,Win32,60,61025ae37ef11b136ea224fe,,,,,,,,,2952,-28,-72,1,0,0,response5disk,,3,4,10,1,0,0,rectangle,-102,-56,1,0,0,0,2,1,0,0,0,52,52,81,1,,response5disk_3,TRUE,2,2,"[136,46,133,205,50,50,152,173,273,79,53,180,162,85,89,321,237,312,279,154]",1.566,rectangle
,,,,,,,,,,,,,FF,,,,,,,,0.9643,,,,,,,,,,,,,,,,,,,,,,610361398cc16a47afe9c948,610364a4e4ff10b76e5a45c7,2021-07-29_20h33.48.381,Simcolourproject_2stim_asymm_v5,2020.2.10,Win32,60,61025ae37ef11b136ea224fe,,,,,,,,,3449,96,-40,1,0,0,response3disk,,5,16,-3,1,0,0,rectangle,16,-3,1,0,0,16,-3,1,0,0,0,53,53,42,1,,,,,,,,
,,,,,,,,,,,,,FF,,,,,,,,0.8322,,,,,,,,,,,,,,,,,,,,,,610361398cc16a47afe9c948,610364a4e4ff10b76e5a45c7,2021-07-29_20h33.48.381,Simcolourproject_2stim_asymm_v5,2020.2.10,Win32,60,61025ae37ef11b136ea224fe,,,,,,,,,299,75,40,1,0,0,response1disk,,6,3,-3,1,0,0,rectangle,3,-3,1,0,0,3,-3,1,0,0,0,54,54,21,1,,,,,,,,
,,,,,,,,,,,,,FF,,,,,,,,1.064,,,,,,,,,,,,,,,,,,,,,,610361398cc16a47afe9c948,610364a4e4ff10b76e5a45c7,2021-07-29_20h33.48.381,Simcolourproject_2stim_asymm_v5,2020.2.10,Win32,60,61025ae37ef11b136ea224fe,,,,,,,,,1078,-56,-78,1,0,0,response5disk,,3,3,-9,1,0,0,rectangle,3,-9,1,0,0,3,-9,1,0,0,0,55,55,85,1,,,,,,,,
,,,,,,,,,,,,,FF,,,,,,,,0.939,,,,,,,,,,,,,,,,,,,,,,610361398cc16a47afe9c948,610364a4e4ff10b76e5a45c7,2021-07-29_20h33.48.381,Simcolourproject_2stim_asymm_v5,2020.2.10,Win32,60,61025ae37ef11b136ea224fe,,,,,,,,,2490,-84,-53,1,0,0,response5disk,,2,-13,-14,1,0,0,rectangle,-13,-14,1,0,0,-13,-14,1,0,0,0,56,56,76,1,,,,,,,,
,,,,,,,,,,,,,FF,,,,,,,,0.6664,,,,,,,,,,,,,,,,,,,,,,610361398cc16a47afe9c948,610364a4e4ff10b76e5a45c7,2021-07-29_20h33.48.381,Simcolourproject_2stim_asymm_v5,2020.2.10,Win32,60,61025ae37ef11b136ea224fe,,,,,,,,,3224,-42,-79,1,0,0,response5disk,,3,7,15,1,0,0,rectangle,7,15,1,0,0,7,15,1,0,0,0,57,57,46,1,,,,,,,,
,,,,,,,,,,,,,FF,,,,,,,,0.5749,,,,,,,,,,,,,,,,,,,,,,610361398cc16a47afe9c948,610364a4e4ff10b76e5a45c7,2021-07-29_20h33.48.381,Simcolourproject_2stim_asymm_v5,2020.2.10,Win32,60,61025ae37ef11b136ea224fe,,,,,,,,,1506,43,-70,1,0,0,response3disk,,4,1,-3,1,0,0,rectangle,1,-3,1,0,0,1,-3,1,0,0,0,58,58,92,1,,,,,,,,
,,,,,,,,,,,,,FF,,,,,,,,1.5013,,,,,,,,,,,,,,,,,,,,,,610361398cc16a47afe9c948,610364a4e4ff10b76e5a45c7,2021-07-29_20h33.48.381,Simcolourproject_2stim_asymm_v5,2020.2.10,Win32,60,61025ae37ef11b136ea224fe,,,,,,,,,992,77,39,1,0,0,response1disk,,6,13,-2,1,0,0,rectangle,13,-2,1,0,0,13,-2,1,0,0,0,59,59,4,1,,,,,,,,
,,,,,,,,,,,,,FF,,,,,,,,0.9022,,,,,,,,,,,,,,,,,,,,,,610361398cc16a47afe9c948,610364a4e4ff10b76e5a45c7,2021-07-29_20h33.48.381,Simcolourproject_2stim_asymm_v5,2020.2.10,Win32,60,61025ae37ef11b136ea224fe,,,,,,,,,2325,43,69,1,0,0,response1disk,,7,13,4,1,0,0,rectangle,13,4,1,0,0,13,4,1,0,0,0,60,60,2,1,,,,,,,,
,,,,,,,,,,,,,FF,,,,,,,,0.6702,,,,,,,,,,,,,,,,,,,,,,610361398cc16a47afe9c948,610364a4e4ff10b76e5a45c7,2021-07-29_20h33.48.381,Simcolourproject_2stim_asymm_v5,2020.2.10,Win32,60,61025ae37ef11b136ea224fe,,,,,,,,,1127,72,-50,1,0,0,response3disk,,5,12,-4,1,0,0,rectangle,12,-4,1,0,0,12,-4,1,0,0,0,61,61,134,1,,,,,,,,
,,,,,,,,,,,,,FF,,,,,,,,0.8163,,,,,,,,,,,,,,,,,,,,,,610361398cc16a47afe9c948,610364a4e4ff10b76e5a45c7,2021-07-29_20h33.48.381,Simcolourproject_2stim_asymm_v5,2020.2.10,Win32,60,61025ae37ef11b136ea224fe,,,,,,,,,3309,-70,-77,1,0,0,response5disk,,3,5,-4,1,0,0,rectangle,5,-4,1,0,0,5,-4,1,0,0,0,62,62,65,1,,,,,,,,
,,,,,,,,,,,,,FF,,,,,,,,1.5499,,,,,,,,,,,,,,,,,,,,,,610361398cc16a47afe9c948,610364a4e4ff10b76e5a45c7,2021-07-29_20h33.48.381,Simcolourproject_2stim_asymm_v5,2020.2.10,Win32,60,61025ae37ef11b136ea224fe,,,,,,,,,2346,17,-80,1,0,0,response3disk,,4,0,-2,1,0,0,rectangle,0,-2,1,0,0,0,-2,1,0,0,0,63,63,108,1,,,,,,,,
,,,,,,,,,,,,,FF,,,,,,,,21.5284,,,,,,,,,,,,,,,,,,,,,,610361398cc16a47afe9c948,610364a4e4ff10b76e5a45c7,2021-07-29_20h33.48.381,Simcolourproject_2stim_asymm_v5,2020.2.10,Win32,60,61025ae37ef11b136ea224fe,,,,,,,,,1468,63,-82,1,0,0,response3disk,,4,15,-10,1,0,0,rectangle,15,-10,1,0,0,15,-10,1,0,0,0,64,64,32,1,,,,,,,,
,,,,,,,,,,,,,FF,,,,,,,,0.7364,,,,,,,,,,,,,,,,,,,,,,610361398cc16a47afe9c948,610364a4e4ff10b76e5a45c7,2021-07-29_20h33.48.381,Simcolourproject_2stim_asymm_v5,2020.2.10,Win32,60,61025ae37ef11b136ea224fe,,,,,,,,,1869,-39,-110,1,0,0,response5disk,,3,-25,-6,1,0,0,rectangle,-25,-6,1,0,0,-25,-6,1,0,0,0,65,65,77,1,,,,,,,,
,,,,,,,,,,,,,FF,,,,,,,,0.6362,,,,,,,,,,,,,,,,,,,,,,610361398cc16a47afe9c948,610364a4e4ff10b76e5a45c7,2021-07-29_20h33.48.381,Simcolourproject_2stim_asymm_v5,2020.2.10,Win32,60,61025ae37ef11b136ea224fe,,,,,,,,,4172,85,-51,1,0,0,response3disk,,5,17,-1,1,0,0,rectangle,17,-1,1,0,0,17,-1,1,0,0,0,66,66,19,1,,,,,,,,
,,,,,,,,,,,,,FF,,,,,,,,0.8546,,,,,,,,,,,,,,,,,,,,,,610361398cc16a47afe9c948,610364a4e4ff10b76e5a45c7,2021-07-29_20h33.48.381,Simcolourproject_2stim_asymm_v5,2020.2.10,Win32,60,61025ae37ef11b136ea224fe,,,,,,,,,1725,74,38,1,0,0,response1disk,,6,25,6,1,0,0,rectangle,25,6,1,0,0,25,6,1,0,0,0,67,67,29,1,,,,,,,,
,,,,,,,,,,,,,FF,,,,,,,,0.7349,,,,,,,,,,,,,,,,,,,,,,610361398cc16a47afe9c948,610364a4e4ff10b76e5a45c7,2021-07-29_20h33.48.381,Simcolourproject_2stim_asymm_v5,2020.2.10,Win32,60,61025ae37ef11b136ea224fe,,,,,,,,,3386,24,68,1,0,0,response1disk,,7,-8,-10,1,0,0,rectangle,-8,-10,1,0,0,-8,-10,1,0,0,0,68,68,128,1,,,,,,,,
,,,,,,,,,,,,,FF,,,,,,,,0.6986,,,,,,,,,,,,,,,,,,,,,,610361398cc16a47afe9c948,610364a4e4ff10b76e5a45c7,2021-07-29_20h33.48.381,Simcolourproject_2stim_asymm_v5,2020.2.10,Win32,60,61025ae37ef11b136ea224fe,,,,,,,,,1010,-35,-67,1,0,0,response5disk,,3,-3,5,1,0,0,rectangle,-3,5,1,0,0,-3,5,1,0,0,0,69,69,59,1,,,,,,,,
,,,,,,,,,,,,,FF,,,,,,,,0.7506,,,,,,,,,,,,,,,,,,,,,,610361398cc16a47afe9c948,610364a4e4ff10b76e5a45c7,2021-07-29_20h33.48.381,Simcolourproject_2stim_asymm_v5,2020.2.10,Win32,60,61025ae37ef11b136ea224fe,,,,,,,,,3918,35,-86,1,0,0,response3disk,,4,8,-7,1,0,0,rectangle,8,-7,1,0,0,8,-7,1,0,0,0,70,70,23,1,,,,,,,,
,,,,,,,,,,,,,FF,,,,,,,,0.767,,,,,,,,,,,,,,,,,,,,,,610361398cc16a47afe9c948,610364a4e4ff10b76e5a45c7,2021-07-29_20h33.48.381,Simcolourproject_2stim_asymm_v5,2020.2.10,Win32,60,61025ae37ef11b136ea224fe,,,,,,,,,668,-33,-71,1,0,0,response5disk,,3,-20,12,1,0,0,rectangle,-20,12,1,0,0,-20,12,1,0,0,0,71,71,17,1,,,,,,,,
,,,,,,,,,,,,,FF,,,,,,,,0.4978,,,,,,,,,,,,,,,,,,,,,,610361398cc16a47afe9c948,610364a4e4ff10b76e5a45c7,2021-07-29_20h33.48.381,Simcolourproject_2stim_asymm_v5,2020.2.10,Win32,60,61025ae37ef11b136ea224fe,,,,,,,,,2424,29,-83,1,0,0,response3disk,,4,-1,1,1,0,0,rectangle,-1,1,1,0,0,-1,1,1,0,0,0,72,72,116,1,,,,,,,,
,,,,,,,,,,,,,FF,,,,,,,,0.4924,,,,,,,,,,,,,,,,,,,,,,610361398cc16a47afe9c948,610364a4e4ff10b76e5a45c7,2021-07-29_20h33.48.381,Simcolourproject_2stim_asymm_v5,2020.2.10,Win32,60,61025ae37ef11b136ea224fe,,,,,,,,,3752,-43,-91,1,0,0,response5disk,,3,-5,-8,1,0,0,rectangle,-5,-8,1,0,0,-5,-8,1,0,0,0,73,73,142,1,,,,,,,,
,,,,,,,,,,,,,FF,,,,,,,,0.4834,,,,,,,,,,,,,,,,,,,,,,610361398cc16a47afe9c948,610364a4e4ff10b76e5a45c7,2021-07-29_20h33.48.381,Simcolourproject_2stim_asymm_v5,2020.2.10,Win32,60,61025ae37ef11b136ea224fe,,,,,,,,,3233,51,63,1,0,0,response1disk,,7,20,-3,1,0,0,rectangle,20,-3,1,0,0,20,-3,1,0,0,0,74,74,9,1,,,,,,,,
,,,,,,,,,,,,,FF,,,,,,,,0.9,,,,,,,,,,,,,,,,,,,,,,610361398cc16a47afe9c948,610364a4e4ff10b76e5a45c7,2021-07-29_20h33.48.381,Simcolourproject_2stim_asymm_v5,2020.2.10,Win32,60,61025ae37ef11b136ea224fe,,,,,,,,,173,-75,-29,1,0,0,response5disk,,2,-3,3,1,0,0,rectangle,-3,3,1,0,0,-3,3,1,0,0,0,75,75,48,1,,,,,,,,
,,,,,,,,,,,,,FF,,,,,,,,1.0523,,,,,,,,,,,,,,,,,,,,,,610361398cc16a47afe9c948,610364a4e4ff10b76e5a45c7,2021-07-29_20h33.48.381,Simcolourproject_2stim_asymm_v5,2020.2.10,Win32,60,61025ae37ef11b136ea224fe,,,,,,,,,482,-53,-83,1,0,0,response5disk,,3,-9,10,1,0,0,rectangle,-9,10,1,0,0,-9,10,1,0,0,0,76,76,99,1,,,,,,,,
,,,,,,,,,,,,,FF,,,,,,,,0.69,,,,,,,,,,,,,,,,,,,,,,610361398cc16a47afe9c948,610364a4e4ff10b76e5a45c7,2021-07-29_20h33.48.381,Simcolourproject_2stim_asymm_v5,2020.2.10,Win32,60,61025ae37ef11b136ea224fe,,,,,,,,,2743,54,-42,1,0,0,response3disk,,5,0,-8,1,0,0,rectangle,0,-8,1,0,0,0,-8,1,0,0,0,77,77,123,1,,,,,,,,
,,,,,,,,,,,,,FF,,,,,,,,1.1754,,,,,,,,,,,,,,,,,,,,,,610361398cc16a47afe9c948,610364a4e4ff10b76e5a45c7,2021-07-29_20h33.48.381,Simcolourproject_2stim_asymm_v5,2020.2.10,Win32,60,61025ae37ef11b136ea224fe,,,,,,,,,2386,52,-96,1,0,0,response3disk,,4,-10,-1,1,0,0,rectangle,-91,-49,1,0,0,-13,-5,1,0,0,0,78,78,159,1,,response5disk_3,TRUE,2,2,"[136,46,133,205,50,50,152,173,273,79,53,180,162,85,89,321,237,312,279,154]",1.5512,rectangle
,,,,,,,,,,,,,FF,,,,,,,,1.1771,,,,,,,,,,,,,,,,,,,,,,610361398cc16a47afe9c948,610364a4e4ff10b76e5a45c7,2021-07-29_20h33.48.381,Simcolourproject_2stim_asymm_v5,2020.2.10,Win32,60,61025ae37ef11b136ea224fe,,,,,,,,,2052,47,63,1,0,0,response1disk,,7,2,-3,1,0,0,rectangle,2,-3,1,0,0,2,-3,1,0,0,0,79,79,54,1,,,,,,,,
,,,,,,,,,,,,,FF,,,,,,,,0.9056,,,,,,,,,,,,,,,,,,,,,,610361398cc16a47afe9c948,610364a4e4ff10b76e5a45c7,2021-07-29_20h33.48.381,Simcolourproject_2stim_asymm_v5,2020.2.10,Win32,60,61025ae37ef11b136ea224fe,,,,,,,,,1018,68,34,1,0,0,response1disk,,6,-7,9,1,0,0,rectangle,-7,9,1,0,0,-7,9,1,0,0,0,80,80,43,1,,,,,,,,
,,,,,,,,,,,,,FF,,,,,,,,0.8924,,,,,,,,,,,,,,,,,,,,,,610361398cc16a47afe9c948,610364a4e4ff10b76e5a45c7,2021-07-29_20h33.48.381,Simcolourproject_2stim_asymm_v5,2020.2.10,Win32,60,61025ae37ef11b136ea224fe,,,,,,,,,4022,-29,-63,1,0,0,response5disk,,3,-10,-3,1,0,0,rectangle,-10,-3,1,0,0,-10,-3,1,0,0,0,81,81,36,1,,,,,,,,
,,,,,,,,,,,,,FF,,,,,,,,0.9203,,,,,,,,,,,,,,,,,,,,,,610361398cc16a47afe9c948,610364a4e4ff10b76e5a45c7,2021-07-29_20h33.48.381,Simcolourproject_2stim_asymm_v5,2020.2.10,Win32,60,61025ae37ef11b136ea224fe,,,,,,,,,4215,21,-83,1,0,0,response3disk,,4,-13,6,1,0,0,rectangle,-13,6,1,0,0,-13,6,1,0,0,0,82,82,66,1,,,,,,,,
,,,,,,,,,,,,,FF,,,,,,,,1.1362,,,,,,,,,,,,,,,,,,,,,,610361398cc16a47afe9c948,610364a4e4ff10b76e5a45c7,2021-07-29_20h33.48.381,Simcolourproject_2stim_asymm_v5,2020.2.10,Win32,60,61025ae37ef11b136ea224fe,,,,,,,,,4300,-38,-93,1,0,0,response5disk,,3,2,4,1,0,0,rectangle,2,4,1,0,0,2,4,1,0,0,0,83,83,33,1,,,,,,,,
,,,,,,,,,,,,,FF,,,,,,,,0.9701,,,,,,,,,,,,,,,,,,,,,,610361398cc16a47afe9c948,610364a4e4ff10b76e5a45c7,2021-07-29_20h33.48.381,Simcolourproject_2stim_asymm_v5,2020.2.10,Win32,60,61025ae37ef11b136ea224fe,,,,,,,,,3848,-20,-67,1,0,0,response5disk,,3,2,-8,1,0,0,rectangle,38,59,1,0,0,12,0,1,0,0,0,84,84,111,1,,response1disk_3,TRUE,7,7,"[136,46,133,205,50,50,152,173,273,79,53,180,162,85,89,321,237,312,279,154]",1.6832,rectangle
,,,,,,,,,,,,,FF,,,,,,,,1.6073,,,,,,,,,,,,,,,,,,,,,,610361398cc16a47afe9c948,610364a4e4ff10b76e5a45c7,2021-07-29_20h33.48.381,Simcolourproject_2stim_asymm_v5,2020.2.10,Win32,60,61025ae37ef11b136ea224fe,,,,,,,,,1238,-45,-106,1,0,0,response5disk,,3,-8,-2,1,0,0,rectangle,-8,-2,1,0,0,-8,-2,1,0,0,0,85,85,49,1,,,,,,,,
,,,,,,,,,,,,,FF,,,,,,,,1.1029,,,,,,,,,,,,,,,,,,,,,,610361398cc16a47afe9c948,610364a4e4ff10b76e5a45c7,2021-07-29_20h33.48.381,Simcolourproject_2stim_asymm_v5,2020.2.10,Win32,60,61025ae37ef11b136ea224fe,,,,,,,,,3473,-66,-28,1,0,0,response5disk,,2,-1,8,1,0,0,rectangle,-1,8,1,0,0,-1,8,1,0,0,0,86,86,16,1,,,,,,,,
,,,,,,,,,,,,,FF,,,,,,,,1.4036,,,,,,,,,,,,,,,,,,,,,,610361398cc16a47afe9c948,610364a4e4ff10b76e5a45c7,2021-07-29_20h33.48.381,Simcolourproject_2stim_asymm_v5,2020.2.10,Win32,60,61025ae37ef11b136ea224fe,,,,,,,,,1012,-27,-70,1,0,0,response5disk,,3,0,7,1,0,0,rectangle,0,7,1,0,0,0,7,1,0,0,0,87,87,75,1,,,,,,,,
,,,,,,,,,,,,,FF,,,,,,,,0.7341,,,,,,,,,,,,,,,,,,,,,,610361398cc16a47afe9c948,610364a4e4ff10b76e5a45c7,2021-07-29_20h33.48.381,Simcolourproject_2stim_asymm_v5,2020.2.10,Win32,60,61025ae37ef11b136ea224fe,,,,,,,,,3497,32,-77,1,0,0,response3disk,,4,4,-8,1,0,0,rectangle,41,74,1,0,0,9,3,1,0,0,0,88,88,96,1,,response1disk_3,TRUE,7,7,"[136,46,133,205,50,50,152,173,273,79,53,180,162,85,89,321,237,312,279,154]",1.3711,rectangle
,,,,,,,,,,,,,FF,,,,,,,,2.1339,,,,,,,,,,,,,,,,,,,,,,610361398cc16a47afe9c948,610364a4e4ff10b76e5a45c7,2021-07-29_20h33.48.381,Simcolourproject_2stim_asymm_v5,2020.2.10,Win32,60,61025ae37ef11b136ea224fe,,,,,,,,,3245,52,18,1,0,0,response1disk,,6,0,-12,1,0,0,rectangle,0,-12,1,0,0,0,-12,1,0,0,0,89,89,143,1,,,,,,,,
,,,,,,,,,,,,,FF,,,,,,,,0.6818,,,,,,,,,,,,,,,,,,,,,,610361398cc16a47afe9c948,610364a4e4ff10b76e5a45c7,2021-07-29_20h33.48.381,Simcolourproject_2stim_asymm_v5,2020.2.10,Win32,60,61025ae37ef11b136ea224fe,,,,,,,,,3531,87,-46,1,0,0,response3disk,,5,6,2,1,0,0,rectangle,6,2,1,0,0,6,2,1,0,0,0,90,90,51,1,,,,,,,,
,,,,,,,,,,,,,FF,,,,,,,,0.7509,,,,,,,,,,,,,,,,,,,,,,610361398cc16a47afe9c948,610364a4e4ff10b76e5a45c7,2021-07-29_20h33.48.381,Simcolourproject_2stim_asymm_v5,2020.2.10,Win32,60,61025ae37ef11b136ea224fe,,,,,,,,,647,-33,-77,1,0,0,response5disk,,3,-17,-11,1,0,0,rectangle,-17,-11,1,0,0,-17,-11,1,0,0,0,91,91,60,1,,,,,,,,
,,,,,,,,,,,,,FF,,,,,,,,0.8212,,,,,,,,,,,,,,,,,,,,,,610361398cc16a47afe9c948,610364a4e4ff10b76e5a45c7,2021-07-29_20h33.48.381,Simcolourproject_2stim_asymm_v5,2020.2.10,Win32,60,61025ae37ef11b136ea224fe,,,,,,,,,3263,27,-79,1,0,0,response3disk,,4,6,4,1,0,0,rectangle,6,4,1,0,0,6,4,1,0,0,0,92,92,10,1,,,,,,,,
,,,,,,,,,,,,,FF,,,,,,,,1.3859,,,,,,,,,,,,,,,,,,,,,,610361398cc16a47afe9c948,610364a4e4ff10b76e5a45c7,2021-07-29_20h33.48.381,Simcolourproject_2stim_asymm_v5,2020.2.10,Win32,60,61025ae37ef11b136ea224fe,,,,,,,,,2818,72,-47,1,0,0,response3disk,,5,18,-2,1,0,0,rectangle,18,-2,1,0,0,18,-2,1,0,0,0,93,93,129,1,,,,,,,,
,,,,,,,,,,,,,FF,,,,,,,,0.8334,,,,,,,,,,,,,,,,,,,,,,610361398cc16a47afe9c948,610364a4e4ff10b76e5a45c7,2021-07-29_20h33.48.381,Simcolourproject_2stim_asymm_v5,2020.2.10,Win32,60,61025ae37ef11b136ea224fe,,,,,,,,,2816,75,-32,1,0,0,response3disk,,5,18,1,1,0,0,rectangle,18,1,1,0,0,18,1,1,0,0,0,94,94,14,1,,,,,,,,
,,,,,,,,,,,,,FF,,,,,,,,0.9172,,,,,,,,,,,,,,,,,,,,,,610361398cc16a47afe9c948,610364a4e4ff10b76e5a45c7,2021-07-29_20h33.48.381,Simcolourproject_2stim_asymm_v5,2020.2.10,Win32,60,61025ae37ef11b136ea224fe,,,,,,,,,2161,80,-32,1,0,0,response3disk,,5,11,-8,1,0,0,rectangle,11,-8,1,0,0,11,-8,1,0,0,0,95,95,137,1,,,,,,,,
,,,,,,,,,,,,,FF,,,,,,,,1.1253,,,,,,,,,,,,,,,,,,,,,,610361398cc16a47afe9c948,610364a4e4ff10b76e5a45c7,2021-07-29_20h33.48.381,Simcolourproject_2stim_asymm_v5,2020.2.10,Win32,60,61025ae37ef11b136ea224fe,,,,,,,,,2249,42,-71,1,0,0,response3disk,,4,7,5,1,0,0,rectangle,7,5,1,0,0,7,5,1,0,0,0,96,96,40,1,,,,,,,,
,,,,,,,,,,,,,FF,,,,,,,,1.3047,,,,,,,,,,,,,,,,,,,,,,610361398cc16a47afe9c948,610364a4e4ff10b76e5a45c7,2021-07-29_20h33.48.381,Simcolourproject_2stim_asymm_v5,2020.2.10,Win32,60,61025ae37ef11b136ea224fe,,,,,,,,,1974,-40,-99,1,0,0,response5disk,,3,-9,-4,1,0,0,rectangle,-9,-4,1,0,0,-9,-4,1,0,0,0,97,97,72,1,,,,,,,,
,,,,,,,,,,,,,FF,,,,,,,,0.6707,,,,,,,,,,,,,,,,,,,,,,610361398cc16a47afe9c948,610364a4e4ff10b76e5a45c7,2021-07-29_20h33.48.381,Simcolourproject_2stim_asymm_v5,2020.2.10,Win32,60,61025ae37ef11b136ea224fe,,,,,,,,,1748,-35,-67,1,0,0,response5disk,,3,-3,9,1,0,0,rectangle,-3,9,1,0,0,-3,9,1,0,0,0,98,98,12,1,,,,,,,,
,,,,,,,,,,,,,FF,,,,,,,,0.6767,,,,,,,,,,,,,,,,,,,,,,610361398cc16a47afe9c948,610364a4e4ff10b76e5a45c7,2021-07-29_20h33.48.381,Simcolourproject_2stim_asymm_v5,2020.2.10,Win32,60,61025ae37ef11b136ea224fe,,,,,,,,,1880,-25,-61,1,0,0,response5disk,,3,-1,-5,1,0,0,rectangle,-1,-5,1,0,0,-1,-5,1,0,0,0,99,99,103,1,,,,,,,,
,,,,,,,,,,,,,FF,,,,,,,,0.8207,,,,,,,,,,,,,,,,,,,,,,610361398cc16a47afe9c948,610364a4e4ff10b76e5a45c7,2021-07-29_20h33.48.381,Simcolourproject_2stim_asymm_v5,2020.2.10,Win32,60,61025ae37ef11b136ea224fe,,,,,,,,,790,-24,-59,1,0,0,response5disk,,3,1,4,1,0,0,rectangle,1,4,1,0,0,1,4,1,0,0,0,100,100,140,1,,,,,,,,
,,,,,,,,,,,,,FF,,,,,,,,0.5779,,,,,,,,,,,,,,,,,,,,,,610361398cc16a47afe9c948,610364a4e4ff10b76e5a45c7,2021-07-29_20h33.48.381,Simcolourproject_2stim_asymm_v5,2020.2.10,Win32,60,61025ae37ef11b136ea224fe,,,,,,,,,4221,49,-65,1,0,0,response3disk,,4,12,-4,1,0,0,rectangle,12,-4,1,0,0,12,-4,1,0,0,0,101,101,151,1,,,,,,,,
,,,,,,,,,,,,,FF,,,,,,,,0.4996,,,,,,,,,,,,,,,,,,,,,,610361398cc16a47afe9c948,610364a4e4ff10b76e5a45c7,2021-07-29_20h33.48.381,Simcolourproject_2stim_asymm_v5,2020.2.10,Win32,60,61025ae37ef11b136ea224fe,,,,,,,,,3838,77,27,1,0,0,response1disk,,6,8,2,1,0,0,rectangle,8,2,1,0,0,8,2,1,0,0,0,102,102,109,1,,,,,,,,
,,,,,,,,,,,,,FF,,,,,,,,1.218,,,,,,,,,,,,,,,,,,,,,,610361398cc16a47afe9c948,610364a4e4ff10b76e5a45c7,2021-07-29_20h33.48.381,Simcolourproject_2stim_asymm_v5,2020.2.10,Win32,60,61025ae37ef11b136ea224fe,,,,,,,,,2156,-34,85,1,0,0,response7disk,,0,-1,11,1,0,0,rectangle,-1,11,1,0,0,-1,11,1,0,0,0,103,103,5,1,,,,,,,,
,,,,,,,,,,,,,FF,,,,,,,,0.4768,,,,,,,,,,,,,,,,,,,,,,610361398cc16a47afe9c948,610364a4e4ff10b76e5a45c7,2021-07-29_20h33.48.381,Simcolourproject_2stim_asymm_v5,2020.2.10,Win32,60,61025ae37ef11b136ea224fe,,,,,,,,,4042,70,-38,1,0,0,response3disk,,5,-3,6,1,0,0,rectangle,-3,6,1,0,0,-3,6,1,0,0,0,104,104,15,1,,,,,,,,
,,,,,,,,,,,,,FF,,,,,,,,0.725,,,,,,,,,,,,,,,,,,,,,,610361398cc16a47afe9c948,610364a4e4ff10b76e5a45c7,2021-07-29_20h33.48.381,Simcolourproject_2stim_asymm_v5,2020.2.10,Win32,60,61025ae37ef11b136ea224fe,,,,,,,,,1255,58,33,1,0,0,response1disk,,6,15,2,1,0,0,rectangle,15,2,1,0,0,15,2,1,0,0,0,105,105,110,1,,,,,,,,
,,,,,,,,,,,,,FF,,,,,,,,0.941,,,,,,,,,,,,,,,,,,,,,,610361398cc16a47afe9c948,610364a4e4ff10b76e5a45c7,2021-07-29_20h33.48.381,Simcolourproject_2stim_asymm_v5,2020.2.10,Win32,60,61025ae37ef11b136ea224fe,,,,,,,,,4279,-49,-80,1,0,0,response5disk,,3,-19,0,1,0,0,rectangle,-19,0,1,0,0,-19,0,1,0,0,0,106,106,150,1,,,,,,,,
,,,,,,,,,,,,,FF,,,,,,,,0.5699,,,,,,,,,,,,,,,,,,,,,,610361398cc16a47afe9c948,610364a4e4ff10b76e5a45c7,2021-07-29_20h33.48.381,Simcolourproject_2stim_asymm_v5,2020.2.10,Win32,60,61025ae37ef11b136ea224fe,,,,,,,,,3738,34,-74,1,0,0,response3disk,,4,12,13,1,0,0,rectangle,12,13,1,0,0,12,13,1,0,0,0,107,107,71,1,,,,,,,,
,,,,,,,,,,,,,FF,,,,,,,,0.4561,,,,,,,,,,,,,,,,,,,,,,610361398cc16a47afe9c948,610364a4e4ff10b76e5a45c7,2021-07-29_20h33.48.381,Simcolourproject_2stim_asymm_v5,2020.2.10,Win32,60,61025ae37ef11b136ea224fe,,,,,,,,,1299,43,102,1,0,0,response1disk,,7,17,3,1,0,0,rectangle,17,3,1,0,0,17,3,1,0,0,0,108,108,113,1,,,,,,,,
,,,,,,,,,,,,,FF,,,,,,,,0.5372,,,,,,,,,,,,,,,,,,,,,,610361398cc16a47afe9c948,610364a4e4ff10b76e5a45c7,2021-07-29_20h33.48.381,Simcolourproject_2stim_asymm_v5,2020.2.10,Win32,60,61025ae37ef11b136ea224fe,,,,,,,,,1589,69,39,1,0,0,response1disk,,6,3,-3,1,0,0,rectangle,3,-3,1,0,0,3,-3,1,0,0,0,109,109,27,1,,,,,,,,
,,,,,,,,,,,,,FF,,,,,,,,0.7579,,,,,,,,,,,,,,,,,,,,,,610361398cc16a47afe9c948,610364a4e4ff10b76e5a45c7,2021-07-29_20h33.48.381,Simcolourproject_2stim_asymm_v5,2020.2.10,Win32,60,61025ae37ef11b136ea224fe,,,,,,,,,2410,66,-46,1,0,0,response3disk,,5,10,-3,1,0,0,rectangle,10,-3,1,0,0,10,-3,1,0,0,0,110,110,61,1,,,,,,,,
,,,,,,,,,,,,,FF,,,,,,,,0.4827,,,,,,,,,,,,,,,,,,,,,,610361398cc16a47afe9c948,610364a4e4ff10b76e5a45c7,2021-07-29_20h33.48.381,Simcolourproject_2stim_asymm_v5,2020.2.10,Win32,60,61025ae37ef11b136ea224fe,,,,,,,,,2629,36,-71,1,0,0,response3disk,,4,-4,2,1,0,0,rectangle,-4,2,1,0,0,-4,2,1,0,0,0,111,111,0,1,,,,,,,,
,,,,,,,,,,,,,FF,,,,,,,,0.5373,,,,,,,,,,,,,,,,,,,,,,610361398cc16a47afe9c948,610364a4e4ff10b76e5a45c7,2021-07-29_20h33.48.381,Simcolourproject_2stim_asymm_v5,2020.2.10,Win32,60,61025ae37ef11b136ea224fe,,,,,,,,,1870,-30,-92,1,0,0,response5disk,,3,4,2,1,0,0,rectangle,4,2,1,0,0,4,2,1,0,0,0,112,112,44,1,,,,,,,,
,,,,,,,,,,,,,FF,,,,,,,,0.5835,,,,,,,,,,,,,,,,,,,,,,610361398cc16a47afe9c948,610364a4e4ff10b76e5a45c7,2021-07-29_20h33.48.381,Simcolourproject_2stim_asymm_v5,2020.2.10,Win32,60,61025ae37ef11b136ea224fe,,,,,,,,,3872,53,85,1,0,0,response1disk,,7,24,-6,1,0,0,rectangle,24,-6,1,0,0,24,-6,1,0,0,0,113,113,146,1,,,,,,,,
,,,,,,,,,,,,,FF,,,,,,,,0.6174,,,,,,,,,,,,,,,,,,,,,,610361398cc16a47afe9c948,610364a4e4ff10b76e5a45c7,2021-07-29_20h33.48.381,Simcolourproject_2stim_asymm_v5,2020.2.10,Win32,60,61025ae37ef11b136ea224fe,,,,,,,,,1332,67,27,1,0,0,response1disk,,6,0,-1,1,0,0,rectangle,0,-1,1,0,0,0,-1,1,0,0,0,114,114,147,1,,,,,,,,
,,,,,,,,,,,,,FF,,,,,,,,0.8012,,,,,,,,,,,,,,,,,,,,,,610361398cc16a47afe9c948,610364a4e4ff10b76e5a45c7,2021-07-29_20h33.48.381,Simcolourproject_2stim_asymm_v5,2020.2.10,Win32,60,61025ae37ef11b136ea224fe,,,,,,,,,132,67,-33,1,0,0,response3disk,,5,8,-1,1,0,0,rectangle,8,-1,1,0,0,8,-1,1,0,0,0,115,115,13,1,,,,,,,,
,,,,,,,,,,,,,FF,,,,,,,,0.752,,,,,,,,,,,,,,,,,,,,,,610361398cc16a47afe9c948,610364a4e4ff10b76e5a45c7,2021-07-29_20h33.48.381,Simcolourproject_2stim_asymm_v5,2020.2.10,Win32,60,61025ae37ef11b136ea224fe,,,,,,,,,3331,67,40,1,0,0,response1disk,,6,-11,-1,1,0,0,rectangle,-11,-1,1,0,0,-11,-1,1,0,0,0,116,116,131,1,,,,,,,,
,,,,,,,,,,,,,FF,,,,,,,,0.6368,,,,,,,,,,,,,,,,,,,,,,610361398cc16a47afe9c948,610364a4e4ff10b76e5a45c7,2021-07-29_20h33.48.381,Simcolourproject_2stim_asymm_v5,2020.2.10,Win32,60,61025ae37ef11b136ea224fe,,,,,,,,,1228,58,-64,1,0,0,response3disk,,4,22,-13,1,0,0,rectangle,22,-13,1,0,0,22,-13,1,0,0,0,117,117,28,1,,,,,,,,
,,,,,,,,,,,,,FF,,,,,,,,0.9013,,,,,,,,,,,,,,,,,,,,,,610361398cc16a47afe9c948,610364a4e4ff10b76e5a45c7,2021-07-29_20h33.48.381,Simcolourproject_2stim_asymm_v5,2020.2.10,Win32,60,61025ae37ef11b136ea224fe,,,,,,,,,570,23,-59,1,0,0,response3disk,,4,3,8,1,0,0,rectangle,3,8,1,0,0,3,8,1,0,0,0,118,118,58,1,,,,,,,,
,,,,,,,,,,,,,FF,,,,,,,,0.8248,,,,,,,,,,,,,,,,,,,,,,610361398cc16a47afe9c948,610364a4e4ff10b76e5a45c7,2021-07-29_20h33.48.381,Simcolourproject_2stim_asymm_v5,2020.2.10,Win32,60,61025ae37ef11b136ea224fe,,,,,,,,,3850,33,-74,1,0,0,response3disk,,4,9,-3,1,0,0,rectangle,9,-3,1,0,0,9,-3,1,0,0,0,119,119,106,1,,,,,,,,
,,,,,,,,,,,,,FF,,,,,,,,0.8506,,,,,,,,,,,,,,,,,,,,,,610361398cc16a47afe9c948,610364a4e4ff10b76e5a45c7,2021-07-29_20h33.48.381,Simcolourproject_2stim_asymm_v5,2020.2.10,Win32,60,61025ae37ef11b136ea224fe,,,,,,,,,1344,30,-87,1,0,0,response3disk,,4,0,-2,1,0,0,rectangle,0,-2,1,0,0,0,-2,1,0,0,0,120,120,50,1,,,,,,,,
,,,,,,,,,,,,,FF,,,,,,,,1.5014,,,,,,,,,,,,,,,,,,,,,,610361398cc16a47afe9c948,610364a4e4ff10b76e5a45c7,2021-07-29_20h33.48.381,Simcolourproject_2stim_asymm_v5,2020.2.10,Win32,60,61025ae37ef11b136ea224fe,,,,,,,,,4343,-59,31,1,0,0,response7disk,,1,9,6,1,0,0,rectangle,9,6,1,0,0,9,6,1,0,0,0,121,121,6,1,,,,,,,,
,,,,,,,,,,,,,FF,,,,,,,,1.0827,,,,,,,,,,,,,,,,,,,,,,610361398cc16a47afe9c948,610364a4e4ff10b76e5a45c7,2021-07-29_20h33.48.381,Simcolourproject_2stim_asymm_v5,2020.2.10,Win32,60,61025ae37ef11b136ea224fe,,,,,,,,,1188,39,95,1,0,0,response1disk,,7,19,-4,1,0,0,rectangle,19,-4,1,0,0,19,-4,1,0,0,0,122,122,100,1,,,,,,,,
,,,,,,,,,,,,,FF,,,,,,,,0.4288,,,,,,,,,,,,,,,,,,,,,,610361398cc16a47afe9c948,610364a4e4ff10b76e5a45c7,2021-07-29_20h33.48.381,Simcolourproject_2stim_asymm_v5,2020.2.10,Win32,60,61025ae37ef11b136ea224fe,,,,,,,,,2934,72,25,1,0,0,response1disk,,6,11,1,1,0,0,rectangle,11,1,1,0,0,11,1,1,0,0,0,123,123,157,1,,,,,,,,
,,,,,,,,,,,,,FF,,,,,,,,0.6517,,,,,,,,,,,,,,,,,,,,,,610361398cc16a47afe9c948,610364a4e4ff10b76e5a45c7,2021-07-29_20h33.48.381,Simcolourproject_2stim_asymm_v5,2020.2.10,Win32,60,61025ae37ef11b136ea224fe,,,,,,,,,162,37,-75,1,0,0,response3disk,,4,10,-8,1,0,0,rectangle,10,-8,1,0,0,10,-8,1,0,0,0,124,124,25,1,,,,,,,,
,,,,,,,,,,,,,FF,,,,,,,,1.1148,,,,,,,,,,,,,,,,,,,,,,610361398cc16a47afe9c948,610364a4e4ff10b76e5a45c7,2021-07-29_20h33.48.381,Simcolourproject_2stim_asymm_v5,2020.2.10,Win32,60,61025ae37ef11b136ea224fe,,,,,,,,,1436,84,-33,1,0,0,response3disk,,5,13,3,1,0,0,rectangle,13,3,1,0,0,13,3,1,0,0,0,125,125,79,1,,,,,,,,
,,,,,,,,,,,,,FF,,,,,,,,0.8009,,,,,,,,,,,,,,,,,,,,,,610361398cc16a47afe9c948,610364a4e4ff10b76e5a45c7,2021-07-29_20h33.48.381,Simcolourproject_2stim_asymm_v5,2020.2.10,Win32,60,61025ae37ef11b136ea224fe,,,,,,,,,537,92,36,1,0,0,response1disk,,6,6,-1,1,0,0,rectangle,6,-1,1,0,0,6,-1,1,0,0,0,126,126,152,1,,,,,,,,
,,,,,,,,,,,,,FF,,,,,,,,0.9842,,,,,,,,,,,,,,,,,,,,,,610361398cc16a47afe9c948,610364a4e4ff10b76e5a45c7,2021-07-29_20h33.48.381,Simcolourproject_2stim_asymm_v5,2020.2.10,Win32,60,61025ae37ef11b136ea224fe,,,,,,,,,4029,33,-80,1,0,0,response3disk,,4,5,-6,1,0,0,rectangle,5,-6,1,0,0,5,-6,1,0,0,0,127,127,135,1,,,,,,,,
,,,,,,,,,,,,,FF,,,,,,,,1.1676,,,,,,,,,,,,,,,,,,,,,,610361398cc16a47afe9c948,610364a4e4ff10b76e5a45c7,2021-07-29_20h33.48.381,Simcolourproject_2stim_asymm_v5,2020.2.10,Win32,60,61025ae37ef11b136ea224fe,,,,,,,,,2696,40,50,1,0,0,response1disk,,7,8,-1,1,0,0,rectangle,8,-1,1,0,0,8,-1,1,0,0,0,128,128,35,1,,,,,,,,
,,,,,,,,,,,,,FF,,,,,,,,0.4321,,,,,,,,,,,,,,,,,,,,,,610361398cc16a47afe9c948,610364a4e4ff10b76e5a45c7,2021-07-29_20h33.48.381,Simcolourproject_2stim_asymm_v5,2020.2.10,Win32,60,61025ae37ef11b136ea224fe,,,,,,,,,2308,60,-37,1,0,0,response3disk,,5,-20,14,1,0,0,rectangle,-20,14,1,0,0,-20,14,1,0,0,0,129,129,11,1,,,,,,,,
,,,,,,,,,,,,,FF,,,,,,,,1.1685,,,,,,,,,,,,,,,,,,,,,,610361398cc16a47afe9c948,610364a4e4ff10b76e5a45c7,2021-07-29_20h33.48.381,Simcolourproject_2stim_asymm_v5,2020.2.10,Win32,60,61025ae37ef11b136ea224fe,,,,,,,,,3212,29,-69,1,0,0,response3disk,,4,1,5,1,0,0,rectangle,1,5,1,0,0,1,5,1,0,0,0,130,130,38,1,,,,,,,,
,,,,,,,,,,,,,FF,,,,,,,,1.2665,,,,,,,,,,,,,,,,,,,,,,610361398cc16a47afe9c948,610364a4e4ff10b76e5a45c7,2021-07-29_20h33.48.381,Simcolourproject_2stim_asymm_v5,2020.2.10,Win32,60,61025ae37ef11b136ea224fe,,,,,,,,,4039,95,60,1,0,0,response1disk,,6,12,4,1,0,0,rectangle,12,4,1,0,0,12,4,1,0,0,0,131,131,74,1,,,,,,,,
,,,,,,,,,,,,,FF,,,,,,,,0.7712,,,,,,,,,,,,,,,,,,,,,,610361398cc16a47afe9c948,610364a4e4ff10b76e5a45c7,2021-07-29_20h33.48.381,Simcolourproject_2stim_asymm_v5,2020.2.10,Win32,60,61025ae37ef11b136ea224fe,,,,,,,,,2430,37,57,1,0,0,response1disk,,7,20,4,1,0,0,rectangle,57,-93,1,0,0,7,-2,1,0,0,0,132,132,73,1,,response3disk_3,TRUE,4,4,"[136,46,133,205,50,50,152,173,273,79,53,180,162,85,89,321,237,312,279,154]",1.6405,rectangle
,,,,,,,,,,,,,FF,,,,,,,,2.2181,,,,,,,,,,,,,,,,,,,,,,610361398cc16a47afe9c948,610364a4e4ff10b76e5a45c7,2021-07-29_20h33.48.381,Simcolourproject_2stim_asymm_v5,2020.2.10,Win32,60,61025ae37ef11b136ea224fe,,,,,,,,,887,59,-48,1,0,0,response3disk,,5,6,-2,1,0,0,rectangle,6,-2,1,0,0,6,-2,1,0,0,0,133,133,24,1,,,,,,,,
,,,,,,,,,,,,,FF,,,,,,,,0.7537,,,,,,,,,,,,,,,,,,,,,,610361398cc16a47afe9c948,610364a4e4ff10b76e5a45c7,2021-07-29_20h33.48.381,Simcolourproject_2stim_asymm_v5,2020.2.10,Win32,60,61025ae37ef11b136ea224fe,,,,,,,,,3216,33,-81,1,0,0,response3disk,,4,8,-6,1,0,0,rectangle,8,-6,1,0,0,8,-6,1,0,0,0,134,134,34,1,,,,,,,,
,,,,,,,,,,,,,FF,,,,,,,,2.7091,,,,,,,,,,,,,,,,,,,,,,610361398cc16a47afe9c948,610364a4e4ff10b76e5a45c7,2021-07-29_20h33.48.381,Simcolourproject_2stim_asymm_v5,2020.2.10,Win32,60,61025ae37ef11b136ea224fe,,,,,,,,,3048,-76,-21,1,0,0,response5disk,,2,-17,-9,1,0,0,rectangle,38,-78,1,0,0,1,-3,1,0,0,0,135,135,18,1,,response3disk_3,TRUE,4,4,"[136,46,133,205,50,50,152,173,273,79,53,180,162,85,89,321,237,312,279,154]",1.5673,rectangle
,,,,,,,,,,,,,FF,,,,,,,,1.5508,,,,,,,,,,,,,,,,,,,,,,610361398cc16a47afe9c948,610364a4e4ff10b76e5a45c7,2021-07-29_20h33.48.381,Simcolourproject_2stim_asymm_v5,2020.2.10,Win32,60,61025ae37ef11b136ea224fe,,,,,,,,,1802,79,-61,1,0,0,response3disk,,5,13,1,1,0,0,rectangle,13,1,1,0,0,13,1,1,0,0,0,136,136,101,1,,,,,,,,
,,,,,,,,,,,,,FF,,,,,,,,0.8085,,,,,,,,,,,,,,,,,,,,,,610361398cc16a47afe9c948,610364a4e4ff10b76e5a45c7,2021-07-29_20h33.48.381,Simcolourproject_2stim_asymm_v5,2020.2.10,Win32,60,61025ae37ef11b136ea224fe,,,,,,,,,2307,28,-77,1,0,0,response3disk,,4,1,3,1,0,0,rectangle,1,3,1,0,0,1,3,1,0,0,0,137,137,138,1,,,,,,,,
,,,,,,,,,,,,,FF,,,,,,,,0.751,,,,,,,,,,,,,,,,,,,,,,610361398cc16a47afe9c948,610364a4e4ff10b76e5a45c7,2021-07-29_20h33.48.381,Simcolourproject_2stim_asymm_v5,2020.2.10,Win32,60,61025ae37ef11b136ea224fe,,,,,,,,,1577,90,43,1,0,0,response1disk,,6,-2,-2,1,0,0,rectangle,-2,-2,1,0,0,-2,-2,1,0,0,0,138,138,114,1,,,,,,,,
,,,,,,,,,,,,,FF,,,,,,,,1.5186,,,,,,,,,,,,,,,,,,,,,,610361398cc16a47afe9c948,610364a4e4ff10b76e5a45c7,2021-07-29_20h33.48.381,Simcolourproject_2stim_asymm_v5,2020.2.10,Win32,60,61025ae37ef11b136ea224fe,,,,,,,,,543,-40,79,1,0,0,response7disk,,0,-1,6,1,0,0,rectangle,-1,6,1,0,0,-1,6,1,0,0,0,139,139,78,1,,,,,,,,
,,,,,,,,,,,,,FF,,,,,,,,1.599,,,,,,,,,,,,,,,,,,,,,,610361398cc16a47afe9c948,610364a4e4ff10b76e5a45c7,2021-07-29_20h33.48.381,Simcolourproject_2stim_asymm_v5,2020.2.10,Win32,60,61025ae37ef11b136ea224fe,,,,,,,,,1674,-92,31,1,0,0,response7disk,,1,-9,6,1,0,0,rectangle,-9,6,1,0,0,-9,6,1,0,0,0,140,140,88,1,,,,,,,,
,,,,,,,,,,,,,FF,,,,,,,,0.9176,,,,,,,,,,,,,,,,,,,,,,610361398cc16a47afe9c948,610364a4e4ff10b76e5a45c7,2021-07-29_20h33.48.381,Simcolourproject_2stim_asymm_v5,2020.2.10,Win32,60,61025ae37ef11b136ea224fe,,,,,,,,,2537,-64,37,1,0,0,response7disk,,1,1,-8,1,0,0,rectangle,1,-8,1,0,0,1,-8,1,0,0,0,141,141,102,1,,,,,,,,
,,,,,,,,,,,,,FF,,,,,,,,0.7846,,,,,,,,,,,,,,,,,,,,,,610361398cc16a47afe9c948,610364a4e4ff10b76e5a45c7,2021-07-29_20h33.48.381,Simcolourproject_2stim_asymm_v5,2020.2.10,Win32,60,61025ae37ef11b136ea224fe,,,,,,,,,972,-71,-20,1,0,0,response5disk,,2,-3,7,1,0,0,rectangle,-3,7,1,0,0,-3,7,1,0,0,0,142,142,82,1,,,,,,,,
,,,,,,,,,,,,,FF,,,,,,,,0.6339,,,,,,,,,,,,,,,,,,,,,,610361398cc16a47afe9c948,610364a4e4ff10b76e5a45c7,2021-07-29_20h33.48.381,Simcolourproject_2stim_asymm_v5,2020.2.10,Win32,60,61025ae37ef11b136ea224fe,,,,,,,,,280,-50,-71,1,0,0,response5disk,,3,-32,-9,1,0,0,rectangle,-32,-9,1,0,0,-32,-9,1,0,0,0,143,143,8,1,,,,,,,,
,,,,,,,,,,,,,FF,,,,,,,,0.4507,,,,,,,,,,,,,,,,,,,,,,610361398cc16a47afe9c948,610364a4e4ff10b76e5a45c7,2021-07-29_20h33.48.381,Simcolourproject_2stim_asymm_v5,2020.2.10,Win32,60,61025ae37ef11b136ea224fe,,,,,,,,,1383,-36,-84,1,0,0,response5disk,,3,-6,-5,1,0,0,rectangle,-6,-5,1,0,0,-6,-5,1,0,0,0,144,144,117,1,,,,,,,,
,,,,,,,,,,,,,FF,,,,,,,,0.9503,,,,,,,,,,,,,,,,,,,,,,610361398cc16a47afe9c948,610364a4e4ff10b76e5a45c7,2021-07-29_20h33.48.381,Simcolourproject_2stim_asymm_v5,2020.2.10,Win32,60,61025ae37ef11b136ea224fe,,,,,,,,,3020,43,-80,1,0,0,response3disk,,4,-1,5,1,0,0,rectangle,-1,5,1,0,0,-1,5,1,0,0,0,145,145,3,1,,,,,,,,
,,,,,,,,,,,,,FF,,,,,,,,0.6411,,,,,,,,,,,,,,,,,,,,,,610361398cc16a47afe9c948,610364a4e4ff10b76e5a45c7,2021-07-29_20h33.48.381,Simcolourproject_2stim_asymm_v5,2020.2.10,Win32,60,61025ae37ef11b136ea224fe,,,,,,,,,2471,57,-42,1,0,0,response3disk,,5,-8,-8,1,0,0,rectangle,-8,-8,1,0,0,-8,-8,1,0,0,0,146,146,57,1,,,,,,,,
,,,,,,,,,,,,,FF,,,,,,,,0.7202,,,,,,,,,,,,,,,,,,,,,,610361398cc16a47afe9c948,610364a4e4ff10b76e5a45c7,2021-07-29_20h33.48.381,Simcolourproject_2stim_asymm_v5,2020.2.10,Win32,60,61025ae37ef11b136ea224fe,,,,,,,,,2615,71,-33,1,0,0,response3disk,,5,12,5,1,0,0,rectangle,12,5,1,0,0,12,5,1,0,0,0,147,147,69,1,,,,,,,,
,,,,,,,,,,,,,FF,,,,,,,,2.307,,,,,,,,,,,,,,,,,,,,,,610361398cc16a47afe9c948,610364a4e4ff10b76e5a45c7,2021-07-29_20h33.48.381,Simcolourproject_2stim_asymm_v5,2020.2.10,Win32,60,61025ae37ef11b136ea224fe,,,,,,,,,288,84,22,1,0,0,response1disk,,6,15,5,1,0,0,rectangle,15,5,1,0,0,15,5,1,0,0,0,148,148,136,1,,,,,,,,
,,,,,,,,,,,,,FF,,,,,,,,0.7225,,,,,,,,,,,,,,,,,,,,,,610361398cc16a47afe9c948,610364a4e4ff10b76e5a45c7,2021-07-29_20h33.48.381,Simcolourproject_2stim_asymm_v5,2020.2.10,Win32,60,61025ae37ef11b136ea224fe,,,,,,,,,4175,27,45,1,0,0,response1disk,,7,-16,2,1,0,0,rectangle,-16,2,1,0,0,-16,2,1,0,0,0,149,149,119,1,,,,,,,,
,,,,,,,,,,,,,FF,,,,,,,,2.5683,,,,,,,,,,,,,,,,,,,,,,610361398cc16a47afe9c948,610364a4e4ff10b76e5a45c7,2021-07-29_20h33.48.381,Simcolourproject_2stim_asymm_v5,2020.2.10,Win32,60,61025ae37ef11b136ea224fe,,,,,,,,,129,76,-37,1,0,0,response3disk,,5,-18,0,1,0,0,rectangle,-18,0,1,0,0,-18,0,1,0,0,0,150,150,83,1,,,,,,,,
,,,,,,,,,,,,,FF,,,,,,,,1.1514,,,,,,,,,,,,,,,,,,,,,,610361398cc16a47afe9c948,610364a4e4ff10b76e5a45c7,2021-07-29_20h33.48.381,Simcolourproject_2stim_asymm_v5,2020.2.10,Win32,60,61025ae37ef11b136ea224fe,,,,,,,,,2713,-15,-87,1,0,0,response5disk,,3,-1,4,1,0,0,rectangle,-88,-24,1,0,0,-11,-7,1,0,0,0,151,151,45,1,,response5disk_3,TRUE,2,2,"[136,46,133,205,50,50,152,173,273,79,53,180,162,85,89,321,237,312,279,154]",1.4371,rectangle
,,,,,,,,,,,,,FF,,,,,,,,1.1003,,,,,,,,,,,,,,,,,,,,,,610361398cc16a47afe9c948,610364a4e4ff10b76e5a45c7,2021-07-29_20h33.48.381,Simcolourproject_2stim_asymm_v5,2020.2.10,Win32,60,61025ae37ef11b136ea224fe,,,,,,,,,3609,34,-78,1,0,0,response3disk,,4,6,-2,1,0,0,rectangle,6,-2,1,0,0,6,-2,1,0,0,0,152,152,90,1,,,,,,,,
,,,,,,,,,,,,,FF,,,,,,,,0.8834,,,,,,,,,,,,,,,,,,,,,,610361398cc16a47afe9c948,610364a4e4ff10b76e5a45c7,2021-07-29_20h33.48.381,Simcolourproject_2stim_asymm_v5,2020.2.10,Win32,60,61025ae37ef11b136ea224fe,,,,,,,,,2942,-33,-69,1,0,0,response5disk,,3,-13,1,1,0,0,rectangle,43,71,1,0,0,27,-8,1,0,0,0,153,153,153,1,,response1disk_3,TRUE,7,0,"[136,46,133,205,50,50,152,173,273,79,53,180,162,85,89,321,237,312,279,154]",8.7689,rectangle
,,,,,,,,,,,,,FF,,,,,,,,0.8695,,,,,,,,,,,,,,,,,,,,,,610361398cc16a47afe9c948,610364a4e4ff10b76e5a45c7,2021-07-29_20h33.48.381,Simcolourproject_2stim_asymm_v5,2020.2.10,Win32,60,61025ae37ef11b136ea224fe,,,,,,,,,1695,36,72,1,0,0,response1disk,,7,7,6,1,0,0,rectangle,7,6,1,0,0,7,6,1,0,0,0,154,154,37,1,,,,,,,,
,,,,,,,,,,,,,FF,,,,,,,,1.0023,,,,,,,,,,,,,,,,,,,,,,610361398cc16a47afe9c948,610364a4e4ff10b76e5a45c7,2021-07-29_20h33.48.381,Simcolourproject_2stim_asymm_v5,2020.2.10,Win32,60,61025ae37ef11b136ea224fe,,,,,,,,,2602,-56,-100,1,0,0,response5disk,,3,-23,8,1,0,0,rectangle,-23,8,1,0,0,-23,8,1,0,0,0,155,155,156,1,,,,,,,,
,,,,,,,,,,,,,FF,,,,,,,,0.669,,,,,,,,,,,,,,,,,,,,,,610361398cc16a47afe9c948,610364a4e4ff10b76e5a45c7,2021-07-29_20h33.48.381,Simcolourproject_2stim_asymm_v5,2020.2.10,Win32,60,61025ae37ef11b136ea224fe,,,,,,,,,3343,-54,-74,1,0,0,response5disk,,3,-18,11,1,0,0,rectangle,-18,11,1,0,0,-18,11,1,0,0,0,156,156,31,1,,,,,,,,
,,,,,,,,,,,,,FF,,,,,,,,1.6352,,,,,,,,,,,,,,,,,,,,,,610361398cc16a47afe9c948,610364a4e4ff10b76e5a45c7,2021-07-29_20h33.48.381,Simcolourproject_2stim_asymm_v5,2020.2.10,Win32,60,61025ae37ef11b136ea224fe,,,,,,,,,2775,-34,81,1,0,0,response7disk,,0,11,-1,1,0,0,rectangle,11,-1,1,0,0,11,-1,1,0,0,0,157,157,95,1,,,,,,,,
,,,,,,,,,,,,,FF,,,,,,,,1.3515,,,,,,,,,,,,,,,,,,,,,,610361398cc16a47afe9c948,610364a4e4ff10b76e5a45c7,2021-07-29_20h33.48.381,Simcolourproject_2stim_asymm_v5,2020.2.10,Win32,60,61025ae37ef11b136ea224fe,,,,,,,,,1631,-33,-61,1,0,0,response5disk,,3,-1,1,1,0,0,rectangle,-1,1,1,0,0,-1,1,1,0,0,0,158,158,62,1,,,,,,,,
,,,,,,,,,,,,,FF,,,,,,,,0.4169,,,,,,,,,,,,,,,,,,,,,,610361398cc16a47afe9c948,610364a4e4ff10b76e5a45c7,2021-07-29_20h33.48.381,Simcolourproject_2stim_asymm_v5,2020.2.10,Win32,60,61025ae37ef11b136ea224fe,,,,,,,,,1715,-33,-85,1,0,0,response5disk,,3,-7,-6,1,0,0,rectangle,-7,-6,1,0,0,-7,-6,1,0,0,0,159,159,91,1,,,,,,,,
,,,,,,,,,,,,,FF,,,,,,,,0.6042,,,,,,,,,,,,,,,,,,,,,,610361398cc16a47afe9c948,610364a4e4ff10b76e5a45c7,2021-07-29_20h33.48.381,Simcolourproject_2stim_asymm_v5,2020.2.10,Win32,60,61025ae37ef11b136ea224fe,,,,,,,,,1632,-35,-78,1,0,0,response5disk,,3,-4,1,1,0,0,rectangle,-4,1,1,0,0,-4,1,1,0,0,1,0,160,147,1,,,,,,,,
,,,,,,,,,,,,,FF,,,,,,,,0.484,,,,,,,,,,,,,,,,,,,,,,610361398cc16a47afe9c948,610364a4e4ff10b76e5a45c7,2021-07-29_20h33.48.381,Simcolourproject_2stim_asymm_v5,2020.2.10,Win32,60,61025ae37ef11b136ea224fe,,,,,,,,,1584,-42,-70,1,0,0,response5disk,,3,-10,2,1,0,0,rectangle,-42,-99,1,0,0,-14,8,1,0,0,1,1,161,32,1,,response5disk_3,TRUE,3,3,"[136,46,133,205,50,50,152,173,273,79,53,180,162,85,89,321,237,312,279,154]",1.1589,rectangle
,,,,,,,,,,,,,FF,,,,,,,,0.6724,,,,,,,,,,,,,,,,,,,,,,610361398cc16a47afe9c948,610364a4e4ff10b76e5a45c7,2021-07-29_20h33.48.381,Simcolourproject_2stim_asymm_v5,2020.2.10,Win32,60,61025ae37ef11b136ea224fe,,,,,,,,,3574,39,-53,1,0,0,response3disk,,4,2,3,1,0,0,rectangle,2,3,1,0,0,2,3,1,0,0,1,2,162,46,1,,,,,,,,
,,,,,,,,,,,,,FF,,,,,,,,0.9337,,,,,,,,,,,,,,,,,,,,,,610361398cc16a47afe9c948,610364a4e4ff10b76e5a45c7,2021-07-29_20h33.48.381,Simcolourproject_2stim_asymm_v5,2020.2.10,Win32,60,61025ae37ef11b136ea224fe,,,,,,,,,3194,-33,-79,1,0,0,response5disk,,3,-14,-4,1,0,0,rectangle,-14,-4,1,0,0,-14,-4,1,0,0,1,3,163,117,1,,,,,,,,
,,,,,,,,,,,,,FF,,,,,,,,0.7674,,,,,,,,,,,,,,,,,,,,,,610361398cc16a47afe9c948,610364a4e4ff10b76e5a45c7,2021-07-29_20h33.48.381,Simcolourproject_2stim_asymm_v5,2020.2.10,Win32,60,61025ae37ef11b136ea224fe,,,,,,,,,3418,55,-82,1,0,0,response3disk,,4,11,-12,1,0,0,rectangle,11,-12,1,0,0,11,-12,1,0,0,1,4,164,54,1,,,,,,,,
,,,,,,,,,,,,,FF,,,,,,,,0.5674,,,,,,,,,,,,,,,,,,,,,,610361398cc16a47afe9c948,610364a4e4ff10b76e5a45c7,2021-07-29_20h33.48.381,Simcolourproject_2stim_asymm_v5,2020.2.10,Win32,60,61025ae37ef11b136ea224fe,,,,,,,,,2043,76,-33,1,0,0,response3disk,,5,2,-2,1,0,0,rectangle,2,-2,1,0,0,2,-2,1,0,0,1,5,165,45,1,,,,,,,,
,,,,,,,,,,,,,FF,,,,,,,,2.1325,,,,,,,,,,,,,,,,,,,,,,610361398cc16a47afe9c948,610364a4e4ff10b76e5a45c7,2021-07-29_20h33.48.381,Simcolourproject_2stim_asymm_v5,2020.2.10,Win32,60,61025ae37ef11b136ea224fe,,,,,,,,,1750,-39,100,1,0,0,response7disk,,0,-1,3,1,0,0,rectangle,-1,3,1,0,0,-1,3,1,0,0,1,6,166,86,1,,,,,,,,
,,,,,,,,,,,,,FF,,,,,,,,0.6348,,,,,,,,,,,,,,,,,,,,,,610361398cc16a47afe9c948,610364a4e4ff10b76e5a45c7,2021-07-29_20h33.48.381,Simcolourproject_2stim_asymm_v5,2020.2.10,Win32,60,61025ae37ef11b136ea224fe,,,,,,,,,4369,-62,74,1,0,0,response7disk,,0,-19,0,1,0,0,rectangle,-19,0,1,0,0,-19,0,1,0,0,1,7,167,10,1,,,,,,,,
,,,,,,,,,,,,,FF,,,,,,,,0.9346,,,,,,,,,,,,,,,,,,,,,,610361398cc16a47afe9c948,610364a4e4ff10b76e5a45c7,2021-07-29_20h33.48.381,Simcolourproject_2stim_asymm_v5,2020.2.10,Win32,60,61025ae37ef11b136ea224fe,,,,,,,,,2837,-31,-91,1,0,0,response5disk,,3,0,14,1,0,0,rectangle,0,14,1,0,0,0,14,1,0,0,1,8,168,150,1,,,,,,,,
,,,,,,,,,,,,,FF,,,,,,,,0.4171,,,,,,,,,,,,,,,,,,,,,,610361398cc16a47afe9c948,610364a4e4ff10b76e5a45c7,2021-07-29_20h33.48.381,Simcolourproject_2stim_asymm_v5,2020.2.10,Win32,60,61025ae37ef11b136ea224fe,,,,,,,,,3219,-71,-101,1,0,0,response5disk,,3,-22,-6,1,0,0,rectangle,-22,-6,1,0,0,-22,-6,1,0,0,1,9,169,25,1,,,,,,,,
,,,,,,,,,,,,,FF,,,,,,,,0.9001,,,,,,,,,,,,,,,,,,,,,,610361398cc16a47afe9c948,610364a4e4ff10b76e5a45c7,2021-07-29_20h33.48.381,Simcolourproject_2stim_asymm_v5,2020.2.10,Win32,60,61025ae37ef11b136ea224fe,,,,,,,,,4306,33,-90,1,0,0,response3disk,,4,-16,-4,1,0,0,rectangle,-16,-4,1,0,0,-16,-4,1,0,0,1,10,170,108,1,,,,,,,,
,,,,,,,,,,,,,FF,,,,,,,,0.6356,,,,,,,,,,,,,,,,,,,,,,610361398cc16a47afe9c948,610364a4e4ff10b76e5a45c7,2021-07-29_20h33.48.381,Simcolourproject_2stim_asymm_v5,2020.2.10,Win32,60,61025ae37ef11b136ea224fe,,,,,,,,,1407,51,-31,1,0,0,response3disk,,5,9,-2,1,0,0,rectangle,9,-2,1,0,0,9,-2,1,0,0,1,11,171,92,1,,,,,,,,
,,,,,,,,,,,,,FF,,,,,,,,1.5004,,,,,,,,,,,,,,,,,,,,,,610361398cc16a47afe9c948,610364a4e4ff10b76e5a45c7,2021-07-29_20h33.48.381,Simcolourproject_2stim_asymm_v5,2020.2.10,Win32,60,61025ae37ef11b136ea224fe,,,,,,,,,3038,90,35,1,0,0,response1disk,,6,16,13,1,0,0,rectangle,-44,-78,1,0,0,5,6,1,0,0,1,12,172,77,1,,response5disk_3,TRUE,3,3,"[136,46,133,205,50,50,152,173,273,79,53,180,162,85,89,321,237,312,279,154]",2.0335,rectangle
,,,,,,,,,,,,,FF,,,,,,,,1.3027,,,,,,,,,,,,,,,,,,,,,,610361398cc16a47afe9c948,610364a4e4ff10b76e5a45c7,2021-07-29_20h33.48.381,Simcolourproject_2stim_asymm_v5,2020.2.10,Win32,60,61025ae37ef11b136ea224fe,,,,,,,,,989,71,38,1,0,0,response1disk,,6,-22,-8,1,0,0,rectangle,-22,-8,1,0,0,-22,-8,1,0,0,1,13,173,16,1,,,,,,,,
,,,,,,,,,,,,,FF,,,,,,,,1.2337,,,,,,,,,,,,,,,,,,,,,,610361398cc16a47afe9c948,610364a4e4ff10b76e5a45c7,2021-07-29_20h33.48.381,Simcolourproject_2stim_asymm_v5,2020.2.10,Win32,60,61025ae37ef11b136ea224fe,,,,,,,,,4334,31,81,1,0,0,response1disk,,7,8,-1,1,0,0,rectangle,8,-1,1,0,0,8,-1,1,0,0,1,14,174,20,1,,,,,,,,
,,,,,,,,,,,,,FF,,,,,,,,0.649,,,,,,,,,,,,,,,,,,,,,,610361398cc16a47afe9c948,610364a4e4ff10b76e5a45c7,2021-07-29_20h33.48.381,Simcolourproject_2stim_asymm_v5,2020.2.10,Win32,60,61025ae37ef11b136ea224fe,,,,,,,,,2131,74,-33,1,0,0,response3disk,,5,0,7,1,0,0,rectangle,0,7,1,0,0,0,7,1,0,0,1,15,175,29,1,,,,,,,,
,,,,,,,,,,,,,FF,,,,,,,,0.667,,,,,,,,,,,,,,,,,,,,,,610361398cc16a47afe9c948,610364a4e4ff10b76e5a45c7,2021-07-29_20h33.48.381,Simcolourproject_2stim_asymm_v5,2020.2.10,Win32,60,61025ae37ef11b136ea224fe,,,,,,,,,1112,31,-78,1,0,0,response3disk,,4,10,-6,1,0,0,rectangle,10,-6,1,0,0,10,-6,1,0,0,1,16,176,37,1,,,,,,,,
,,,,,,,,,,,,,FF,,,,,,,,1.0175,,,,,,,,,,,,,,,,,,,,,,610361398cc16a47afe9c948,610364a4e4ff10b76e5a45c7,2021-07-29_20h33.48.381,Simcolourproject_2stim_asymm_v5,2020.2.10,Win32,60,61025ae37ef11b136ea224fe,,,,,,,,,2422,-92,-40,1,0,0,response5disk,,2,-24,-8,1,0,0,rectangle,-24,-8,1,0,0,-24,-8,1,0,0,1,17,177,14,1,,,,,,,,
,,,,,,,,,,,,,FF,,,,,,,,1.3343,,,,,,,,,,,,,,,,,,,,,,610361398cc16a47afe9c948,610364a4e4ff10b76e5a45c7,2021-07-29_20h33.48.381,Simcolourproject_2stim_asymm_v5,2020.2.10,Win32,60,61025ae37ef11b136ea224fe,,,,,,,,,297,25,-89,1,0,0,response3disk,,4,12,-12,1,0,0,rectangle,12,-12,1,0,0,12,-12,1,0,0,1,18,178,40,1,,,,,,,,
,,,,,,,,,,,,,FF,,,,,,,,1.0903,,,,,,,,,,,,,,,,,,,,,,610361398cc16a47afe9c948,610364a4e4ff10b76e5a45c7,2021-07-29_20h33.48.381,Simcolourproject_2stim_asymm_v5,2020.2.10,Win32,60,61025ae37ef11b136ea224fe,,,,,,,,,612,35,-77,1,0,0,response3disk,,4,0,5,1,0,0,rectangle,-58,-31,1,0,0,-15,-9,1,0,0,1,19,179,139,1,,response5disk_3,TRUE,2,2,"[136,46,133,205,50,50,152,173,273,79,53,180,162,85,89,321,237,312,279,154]",2.3194,rectangle
,,,,,,,,,,,,,FF,,,,,,,,1.0513,,,,,,,,,,,,,,,,,,,,,,610361398cc16a47afe9c948,610364a4e4ff10b76e5a45c7,2021-07-29_20h33.48.381,Simcolourproject_2stim_asymm_v5,2020.2.10,Win32,60,61025ae37ef11b136ea224fe,,,,,,,,,2575,70,-19,1,0,0,response3disk,,5,9,6,1,0,0,rectangle,9,6,1,0,0,9,6,1,0,0,1,20,180,159,1,,,,,,,,
,,,,,,,,,,,,,FF,,,,,,,,0.7985,,,,,,,,,,,,,,,,,,,,,,610361398cc16a47afe9c948,610364a4e4ff10b76e5a45c7,2021-07-29_20h33.48.381,Simcolourproject_2stim_asymm_v5,2020.2.10,Win32,60,61025ae37ef11b136ea224fe,,,,,,,,,3818,-62,-88,1,0,0,response5disk,,3,-1,5,1,0,0,rectangle,-1,5,1,0,0,-1,5,1,0,0,1,21,181,96,1,,,,,,,,
,,,,,,,,,,,,,FF,,,,,,,,0.8849,,,,,,,,,,,,,,,,,,,,,,610361398cc16a47afe9c948,610364a4e4ff10b76e5a45c7,2021-07-29_20h33.48.381,Simcolourproject_2stim_asymm_v5,2020.2.10,Win32,60,61025ae37ef11b136ea224fe,,,,,,,,,1250,30,-91,1,0,0,response3disk,,4,0,0,1,0,0,rectangle,0,0,1,0,0,0,0,1,0,0,1,22,182,11,1,,,,,,,,
,,,,,,,,,,,,,FF,,,,,,,,0.5678,,,,,,,,,,,,,,,,,,,,,,610361398cc16a47afe9c948,610364a4e4ff10b76e5a45c7,2021-07-29_20h33.48.381,Simcolourproject_2stim_asymm_v5,2020.2.10,Win32,60,61025ae37ef11b136ea224fe,,,,,,,,,420,28,54,1,0,0,response1disk,,7,-7,-5,1,0,0,rectangle,-7,-5,1,0,0,-7,-5,1,0,0,1,23,183,42,1,,,,,,,,
,,,,,,,,,,,,,FF,,,,,,,,0.5529,,,,,,,,,,,,,,,,,,,,,,610361398cc16a47afe9c948,610364a4e4ff10b76e5a45c7,2021-07-29_20h33.48.381,Simcolourproject_2stim_asymm_v5,2020.2.10,Win32,60,61025ae37ef11b136ea224fe,,,,,,,,,512,59,34,1,0,0,response1disk,,6,-4,-3,1,0,0,rectangle,-4,-3,1,0,0,-4,-3,1,0,0,1,24,184,129,1,,,,,,,,
,,,,,,,,,,,,,FF,,,,,,,,0.634,,,,,,,,,,,,,,,,,,,,,,610361398cc16a47afe9c948,610364a4e4ff10b76e5a45c7,2021-07-29_20h33.48.381,Simcolourproject_2stim_asymm_v5,2020.2.10,Win32,60,61025ae37ef11b136ea224fe,,,,,,,,,2762,58,30,1,0,0,response1disk,,6,26,8,1,0,0,rectangle,26,8,1,0,0,26,8,1,0,0,1,25,185,78,1,,,,,,,,
,,,,,,,,,,,,,FF,,,,,,,,0.7476,,,,,,,,,,,,,,,,,,,,,,610361398cc16a47afe9c948,610364a4e4ff10b76e5a45c7,2021-07-29_20h33.48.381,Simcolourproject_2stim_asymm_v5,2020.2.10,Win32,60,61025ae37ef11b136ea224fe,,,,,,,,,967,69,43,1,0,0,response1disk,,6,21,7,1,0,0,rectangle,21,7,1,0,0,21,7,1,0,0,1,26,186,9,1,,,,,,,,
,,,,,,,,,,,,,FF,,,,,,,,0.9335,,,,,,,,,,,,,,,,,,,,,,610361398cc16a47afe9c948,610364a4e4ff10b76e5a45c7,2021-07-29_20h33.48.381,Simcolourproject_2stim_asymm_v5,2020.2.10,Win32,60,61025ae37ef11b136ea224fe,,,,,,,,,3122,71,-26,1,0,0,response3disk,,5,8,-4,1,0,0,rectangle,8,-4,1,0,0,8,-4,1,0,0,1,27,187,4,1,,,,,,,,
,,,,,,,,,,,,,FF,,,,,,,,0.6373,,,,,,,,,,,,,,,,,,,,,,610361398cc16a47afe9c948,610364a4e4ff10b76e5a45c7,2021-07-29_20h33.48.381,Simcolourproject_2stim_asymm_v5,2020.2.10,Win32,60,61025ae37ef11b136ea224fe,,,,,,,,,104,59,40,1,0,0,response1disk,,6,9,4,1,0,0,rectangle,9,4,1,0,0,9,4,1,0,0,1,28,188,115,1,,,,,,,,
,,,,,,,,,,,,,FF,,,,,,,,0.6178,,,,,,,,,,,,,,,,,,,,,,610361398cc16a47afe9c948,610364a4e4ff10b76e5a45c7,2021-07-29_20h33.48.381,Simcolourproject_2stim_asymm_v5,2020.2.10,Win32,60,61025ae37ef11b136ea224fe,,,,,,,,,1927,40,-63,1,0,0,response3disk,,4,17,-2,1,0,0,rectangle,17,-2,1,0,0,17,-2,1,0,0,1,29,189,12,1,,,,,,,,
,,,,,,,,,,,,,FF,,,,,,,,0.5397,,,,,,,,,,,,,,,,,,,,,,610361398cc16a47afe9c948,610364a4e4ff10b76e5a45c7,2021-07-29_20h33.48.381,Simcolourproject_2stim_asymm_v5,2020.2.10,Win32,60,61025ae37ef11b136ea224fe,,,,,,,,,654,33,-81,1,0,0,response3disk,,4,1,-2,1,0,0,rectangle,1,-2,1,0,0,1,-2,1,0,0,1,30,190,137,1,,,,,,,,
,,,,,,,,,,,,,FF,,,,,,,,0.5686,,,,,,,,,,,,,,,,,,,,,,610361398cc16a47afe9c948,610364a4e4ff10b76e5a45c7,2021-07-29_20h33.48.381,Simcolourproject_2stim_asymm_v5,2020.2.10,Win32,60,61025ae37ef11b136ea224fe,,,,,,,,,3543,66,-51,1,0,0,response3disk,,5,8,-8,1,0,0,rectangle,8,-8,1,0,0,8,-8,1,0,0,1,31,191,90,1,,,,,,,,
,,,,,,,,,,,,,FF,,,,,,,,0.8338,,,,,,,,,,,,,,,,,,,,,,610361398cc16a47afe9c948,610364a4e4ff10b76e5a45c7,2021-07-29_20h33.48.381,Simcolourproject_2stim_asymm_v5,2020.2.10,Win32,60,61025ae37ef11b136ea224fe,,,,,,,,,1915,-44,-104,1,0,0,response5disk,,3,-4,3,1,0,0,rectangle,-4,3,1,0,0,-4,3,1,0,0,1,32,192,5,1,,,,,,,,
,,,,,,,,,,,,,FF,,,,,,,,0.4519,,,,,,,,,,,,,,,,,,,,,,610361398cc16a47afe9c948,610364a4e4ff10b76e5a45c7,2021-07-29_20h33.48.381,Simcolourproject_2stim_asymm_v5,2020.2.10,Win32,60,61025ae37ef11b136ea224fe,,,,,,,,,546,59,42,1,0,0,response1disk,,6,-6,3,1,0,0,rectangle,-6,3,1,0,0,-6,3,1,0,0,1,33,193,84,1,,,,,,,,
,,,,,,,,,,,,,FF,,,,,,,,0.4883,,,,,,,,,,,,,,,,,,,,,,610361398cc16a47afe9c948,610364a4e4ff10b76e5a45c7,2021-07-29_20h33.48.381,Simcolourproject_2stim_asymm_v5,2020.2.10,Win32,60,61025ae37ef11b136ea224fe,,,,,,,,,520,50,-51,1,0,0,response3disk,,4,7,6,1,0,0,rectangle,7,6,1,0,0,7,6,1,0,0,1,34,194,157,1,,,,,,,,
,,,,,,,,,,,,,FF,,,,,,,,0.7802,,,,,,,,,,,,,,,,,,,,,,610361398cc16a47afe9c948,610364a4e4ff10b76e5a45c7,2021-07-29_20h33.48.381,Simcolourproject_2stim_asymm_v5,2020.2.10,Win32,60,61025ae37ef11b136ea224fe,,,,,,,,,2362,-72,-38,1,0,0,response5disk,,2,-11,-1,1,0,0,rectangle,-11,-1,1,0,0,-11,-1,1,0,0,1,35,195,149,1,,,,,,,,
,,,,,,,,,,,,,FF,,,,,,,,0.9177,,,,,,,,,,,,,,,,,,,,,,610361398cc16a47afe9c948,610364a4e4ff10b76e5a45c7,2021-07-29_20h33.48.381,Simcolourproject_2stim_asymm_v5,2020.2.10,Win32,60,61025ae37ef11b136ea224fe,,,,,,,,,1600,-62,-40,1,0,0,response5disk,,2,1,1,1,0,0,rectangle,1,1,1,0,0,1,1,1,0,0,1,36,196,119,1,,,,,,,,
,,,,,,,,,,,,,FF,,,,,,,,0.5001,,,,,,,,,,,,,,,,,,,,,,610361398cc16a47afe9c948,610364a4e4ff10b76e5a45c7,2021-07-29_20h33.48.381,Simcolourproject_2stim_asymm_v5,2020.2.10,Win32,60,61025ae37ef11b136ea224fe,,,,,,,,,1833,-42,-78,1,0,0,response5disk,,3,-13,-14,1,0,0,rectangle,-13,-14,1,0,0,-13,-14,1,0,0,1,37,197,87,1,,,,,,,,
,,,,,,,,,,,,,FF,,,,,,,,0.5542,,,,,,,,,,,,,,,,,,,,,,610361398cc16a47afe9c948,610364a4e4ff10b76e5a45c7,2021-07-29_20h33.48.381,Simcolourproject_2stim_asymm_v5,2020.2.10,Win32,60,61025ae37ef11b136ea224fe,,,,,,,,,1161,22,-59,1,0,0,response3disk,,4,-6,2,1,0,0,rectangle,-6,2,1,0,0,-6,2,1,0,0,1,38,198,106,1,,,,,,,,
,,,,,,,,,,,,,FF,,,,,,,,0.5191,,,,,,,,,,,,,,,,,,,,,,610361398cc16a47afe9c948,610364a4e4ff10b76e5a45c7,2021-07-29_20h33.48.381,Simcolourproject_2stim_asymm_v5,2020.2.10,Win32,60,61025ae37ef11b136ea224fe,,,,,,,,,4294,76,-41,1,0,0,response3disk,,5,-8,5,1,0,0,rectangle,-8,5,1,0,0,-8,5,1,0,0,1,39,199,141,1,,,,,,,,
,,,,,,,,,,,,,FF,,,,,,,,0.7987,,,,,,,,,,,,,,,,,,,,,,610361398cc16a47afe9c948,610364a4e4ff10b76e5a45c7,2021-07-29_20h33.48.381,Simcolourproject_2stim_asymm_v5,2020.2.10,Win32,60,61025ae37ef11b136ea224fe,,,,,,,,,1529,-53,-86,1,0,0,response5disk,,3,0,10,1,0,0,rectangle,0,10,1,0,0,0,10,1,0,0,1,40,200,122,1,,,,,,,,
,,,,,,,,,,,,,FF,,,,,,,,1.0694,,,,,,,,,,,,,,,,,,,,,,610361398cc16a47afe9c948,610364a4e4ff10b76e5a45c7,2021-07-29_20h33.48.381,Simcolourproject_2stim_asymm_v5,2020.2.10,Win32,60,61025ae37ef11b136ea224fe,,,,,,,,,2332,67,-64,1,0,0,response3disk,,5,5,-7,1,0,0,rectangle,5,-7,1,0,0,5,-7,1,0,0,1,41,201,118,1,,,,,,,,
,,,,,,,,,,,,,FF,,,,,,,,0.7008,,,,,,,,,,,,,,,,,,,,,,610361398cc16a47afe9c948,610364a4e4ff10b76e5a45c7,2021-07-29_20h33.48.381,Simcolourproject_2stim_asymm_v5,2020.2.10,Win32,60,61025ae37ef11b136ea224fe,,,,,,,,,1846,49,-32,1,0,0,response3disk,,5,14,15,1,0,0,rectangle,14,15,1,0,0,14,15,1,0,0,1,42,202,64,1,,,,,,,,
,,,,,,,,,,,,,FF,,,,,,,,1.4012,,,,,,,,,,,,,,,,,,,,,,610361398cc16a47afe9c948,610364a4e4ff10b76e5a45c7,2021-07-29_20h33.48.381,Simcolourproject_2stim_asymm_v5,2020.2.10,Win32,60,61025ae37ef11b136ea224fe,,,,,,,,,3668,-72,55,1,0,0,response7disk,,1,-3,1,1,0,0,rectangle,-3,1,1,0,0,-3,1,1,0,0,1,43,203,116,1,,,,,,,,
,,,,,,,,,,,,,FF,,,,,,,,0.6026,,,,,,,,,,,,,,,,,,,,,,610361398cc16a47afe9c948,610364a4e4ff10b76e5a45c7,2021-07-29_20h33.48.381,Simcolourproject_2stim_asymm_v5,2020.2.10,Win32,60,61025ae37ef11b136ea224fe,,,,,,,,,4010,73,-44,1,0,0,response3disk,,5,16,2,1,0,0,rectangle,82,-62,1,0,0,6,-6,1,0,0,1,44,204,21,1,,response3disk_3,TRUE,5,5,"[136,46,133,205,50,50,152,173,273,79,53,180,162,85,89,321,237,312,279,154]",1.7838,rectangle
,,,,,,,,,,,,,FF,,,,,,,,0.8686,,,,,,,,,,,,,,,,,,,,,,610361398cc16a47afe9c948,610364a4e4ff10b76e5a45c7,2021-07-29_20h33.48.381,Simcolourproject_2stim_asymm_v5,2020.2.10,Win32,60,61025ae37ef11b136ea224fe,,,,,,,,,1509,76,37,1,0,0,response1disk,,6,-6,2,1,0,0,rectangle,-6,2,1,0,0,-6,2,1,0,0,1,45,205,13,1,,,,,,,,
,,,,,,,,,,,,,FF,,,,,,,,0.7118,,,,,,,,,,,,,,,,,,,,,,610361398cc16a47afe9c948,610364a4e4ff10b76e5a45c7,2021-07-29_20h33.48.381,Simcolourproject_2stim_asymm_v5,2020.2.10,Win32,60,61025ae37ef11b136ea224fe,,,,,,,,,2184,32,72,1,0,0,response1disk,,7,-1,-8,1,0,0,rectangle,-1,-8,1,0,0,-1,-8,1,0,0,1,46,206,130,1,,,,,,,,
,,,,,,,,,,,,,FF,,,,,,,,0.8952,,,,,,,,,,,,,,,,,,,,,,610361398cc16a47afe9c948,610364a4e4ff10b76e5a45c7,2021-07-29_20h33.48.381,Simcolourproject_2stim_asymm_v5,2020.2.10,Win32,60,61025ae37ef11b136ea224fe,,,,,,,,,3940,-87,-44,1,0,0,response5disk,,2,2,-3,1,0,0,rectangle,2,-3,1,0,0,2,-3,1,0,0,1,47,207,125,1,,,,,,,,
,,,,,,,,,,,,,FF,,,,,,,,0.9069,,,,,,,,,,,,,,,,,,,,,,610361398cc16a47afe9c948,610364a4e4ff10b76e5a45c7,2021-07-29_20h33.48.381,Simcolourproject_2stim_asymm_v5,2020.2.10,Win32,60,61025ae37ef11b136ea224fe,,,,,,,,,2795,-50,-102,1,0,0,response5disk,,3,-6,-2,1,0,0,rectangle,-6,-2,1,0,0,-6,-2,1,0,0,1,48,208,61,1,,,,,,,,
,,,,,,,,,,,,,FF,,,,,,,,0.5009,,,,,,,,,,,,,,,,,,,,,,610361398cc16a47afe9c948,610364a4e4ff10b76e5a45c7,2021-07-29_20h33.48.381,Simcolourproject_2stim_asymm_v5,2020.2.10,Win32,60,61025ae37ef11b136ea224fe,,,,,,,,,4299,60,-64,1,0,0,response3disk,,4,9,10,1,0,0,rectangle,9,10,1,0,0,9,10,1,0,0,1,49,209,52,1,,,,,,,,
,,,,,,,,,,,,,FF,,,,,,,,0.5179,,,,,,,,,,,,,,,,,,,,,,610361398cc16a47afe9c948,610364a4e4ff10b76e5a45c7,2021-07-29_20h33.48.381,Simcolourproject_2stim_asymm_v5,2020.2.10,Win32,60,61025ae37ef11b136ea224fe,,,,,,,,,1653,64,43,1,0,0,response1disk,,6,-21,1,1,0,0,rectangle,-21,1,1,0,0,-21,1,1,0,0,1,50,210,94,1,,,,,,,,
,,,,,,,,,,,,,FF,,,,,,,,0.9339,,,,,,,,,,,,,,,,,,,,,,610361398cc16a47afe9c948,610364a4e4ff10b76e5a45c7,2021-07-29_20h33.48.381,Simcolourproject_2stim_asymm_v5,2020.2.10,Win32,60,61025ae37ef11b136ea224fe,,,,,,,,,3407,36,67,1,0,0,response1disk,,7,-6,-2,1,0,0,rectangle,-6,-2,1,0,0,-6,-2,1,0,0,1,51,211,70,1,,,,,,,,
,,,,,,,,,,,,,FF,,,,,,,,0.832,,,,,,,,,,,,,,,,,,,,,,610361398cc16a47afe9c948,610364a4e4ff10b76e5a45c7,2021-07-29_20h33.48.381,Simcolourproject_2stim_asymm_v5,2020.2.10,Win32,60,61025ae37ef11b136ea224fe,,,,,,,,,2952,24,-79,1,0,0,response3disk,,4,-2,3,1,0,0,rectangle,-2,3,1,0,0,-2,3,1,0,0,1,52,212,142,1,,,,,,,,
,,,,,,,,,,,,,FF,,,,,,,,0.55,,,,,,,,,,,,,,,,,,,,,,610361398cc16a47afe9c948,610364a4e4ff10b76e5a45c7,2021-07-29_20h33.48.381,Simcolourproject_2stim_asymm_v5,2020.2.10,Win32,60,61025ae37ef11b136ea224fe,,,,,,,,,3449,-37,-96,1,0,0,response5disk,,3,-3,-8,1,0,0,rectangle,-3,-8,1,0,0,-3,-8,1,0,0,1,53,213,138,1,,,,,,,,
,,,,,,,,,,,,,FF,,,,,,,,0.6681,,,,,,,,,,,,,,,,,,,,,,610361398cc16a47afe9c948,610364a4e4ff10b76e5a45c7,2021-07-29_20h33.48.381,Simcolourproject_2stim_asymm_v5,2020.2.10,Win32,60,61025ae37ef11b136ea224fe,,,,,,,,,299,-37,-64,1,0,0,response5disk,,3,3,6,1,0,0,rectangle,3,6,1,0,0,3,6,1,0,0,1,54,214,154,1,,,,,,,,
,,,,,,,,,,,,,FF,,,,,,,,0.9812,,,,,,,,,,,,,,,,,,,,,,610361398cc16a47afe9c948,610364a4e4ff10b76e5a45c7,2021-07-29_20h33.48.381,Simcolourproject_2stim_asymm_v5,2020.2.10,Win32,60,61025ae37ef11b136ea224fe,,,,,,,,,1078,37,-81,1,0,0,response3disk,,4,5,-3,1,0,0,rectangle,5,-3,1,0,0,5,-3,1,0,0,1,55,215,144,1,,,,,,,,
,,,,,,,,,,,,,FF,,,,,,,,0.453,,,,,,,,,,,,,,,,,,,,,,610361398cc16a47afe9c948,610364a4e4ff10b76e5a45c7,2021-07-29_20h33.48.381,Simcolourproject_2stim_asymm_v5,2020.2.10,Win32,60,61025ae37ef11b136ea224fe,,,,,,,,,2490,76,-44,1,0,0,response3disk,,5,9,-7,1,0,0,rectangle,9,-7,1,0,0,9,-7,1,0,0,1,56,216,47,1,,,,,,,,
,,,,,,,,,,,,,FF,,,,,,,,0.6163,,,,,,,,,,,,,,,,,,,,,,610361398cc16a47afe9c948,610364a4e4ff10b76e5a45c7,2021-07-29_20h33.48.381,Simcolourproject_2stim_asymm_v5,2020.2.10,Win32,60,61025ae37ef11b136ea224fe,,,,,,,,,3224,-60,-32,1,0,0,response5disk,,2,-15,1,1,0,0,rectangle,-15,1,1,0,0,-15,1,1,0,0,1,57,217,26,1,,,,,,,,
,,,,,,,,,,,,,FF,,,,,,,,0.7167,,,,,,,,,,,,,,,,,,,,,,610361398cc16a47afe9c948,610364a4e4ff10b76e5a45c7,2021-07-29_20h33.48.381,Simcolourproject_2stim_asymm_v5,2020.2.10,Win32,60,61025ae37ef11b136ea224fe,,,,,,,,,1506,-45,-76,1,0,0,response5disk,,3,-13,11,1,0,0,rectangle,-13,11,1,0,0,-13,11,1,0,0,1,58,218,111,1,,,,,,,,
,,,,,,,,,,,,,FF,,,,,,,,1.7285,,,,,,,,,,,,,,,,,,,,,,610361398cc16a47afe9c948,610364a4e4ff10b76e5a45c7,2021-07-29_20h33.48.381,Simcolourproject_2stim_asymm_v5,2020.2.10,Win32,60,61025ae37ef11b136ea224fe,,,,,,,,,992,37,-50,1,0,0,response3disk,,4,11,1,1,0,0,rectangle,11,1,1,0,0,11,1,1,0,0,1,59,219,97,1,,,,,,,,
,,,,,,,,,,,,,FF,,,,,,,,0.5497,,,,,,,,,,,,,,,,,,,,,,610361398cc16a47afe9c948,610364a4e4ff10b76e5a45c7,2021-07-29_20h33.48.381,Simcolourproject_2stim_asymm_v5,2020.2.10,Win32,60,61025ae37ef11b136ea224fe,,,,,,,,,2325,79,21,1,0,0,response1disk,,6,8,-2,1,0,0,rectangle,8,-2,1,0,0,8,-2,1,0,0,1,60,220,75,1,,,,,,,,
,,,,,,,,,,,,,FF,,,,,,,,0.4676,,,,,,,,,,,,,,,,,,,,,,610361398cc16a47afe9c948,610364a4e4ff10b76e5a45c7,2021-07-29_20h33.48.381,Simcolourproject_2stim_asymm_v5,2020.2.10,Win32,60,61025ae37ef11b136ea224fe,,,,,,,,,1127,73,-43,1,0,0,response3disk,,5,12,-5,1,0,0,rectangle,12,-5,1,0,0,12,-5,1,0,0,1,61,221,103,1,,,,,,,,
,,,,,,,,,,,,,FF,,,,,,,,1.3029,,,,,,,,,,,,,,,,,,,,,,610361398cc16a47afe9c948,610364a4e4ff10b76e5a45c7,2021-07-29_20h33.48.381,Simcolourproject_2stim_asymm_v5,2020.2.10,Win32,60,61025ae37ef11b136ea224fe,,,,,,,,,3309,32,-80,1,0,0,response3disk,,4,15,5,1,0,0,rectangle,15,5,1,0,0,15,5,1,0,0,1,62,222,50,1,,,,,,,,
,,,,,,,,,,,,,FF,,,,,,,,1.0836,,,,,,,,,,,,,,,,,,,,,,610361398cc16a47afe9c948,610364a4e4ff10b76e5a45c7,2021-07-29_20h33.48.381,Simcolourproject_2stim_asymm_v5,2020.2.10,Win32,60,61025ae37ef11b136ea224fe,,,,,,,,,2346,45,92,1,0,0,response1disk,,7,10,-4,1,0,0,rectangle,10,-4,1,0,0,10,-4,1,0,0,1,63,223,76,1,,,,,,,,
,,,,,,,,,,,,,FF,,,,,,,,0.8367,,,,,,,,,,,,,,,,,,,,,,610361398cc16a47afe9c948,610364a4e4ff10b76e5a45c7,2021-07-29_20h33.48.381,Simcolourproject_2stim_asymm_v5,2020.2.10,Win32,60,61025ae37ef11b136ea224fe,,,,,,,,,1468,-62,-47,1,0,0,response5disk,,2,10,4,1,0,0,rectangle,10,4,1,0,0,10,4,1,0,0,1,64,224,95,1,,,,,,,,
,,,,,,,,,,,,,FF,,,,,,,,0.7509,,,,,,,,,,,,,,,,,,,,,,610361398cc16a47afe9c948,610364a4e4ff10b76e5a45c7,2021-07-29_20h33.48.381,Simcolourproject_2stim_asymm_v5,2020.2.10,Win32,60,61025ae37ef11b136ea224fe,,,,,,,,,1869,-32,-71,1,0,0,response5disk,,3,1,-4,1,0,0,rectangle,1,-4,1,0,0,1,-4,1,0,0,1,65,225,72,1,,,,,,,,
,,,,,,,,,,,,,FF,,,,,,,,0.6021,,,,,,,,,,,,,,,,,,,,,,610361398cc16a47afe9c948,610364a4e4ff10b76e5a45c7,2021-07-29_20h33.48.381,Simcolourproject_2stim_asymm_v5,2020.2.10,Win32,60,61025ae37ef11b136ea224fe,,,,,,,,,4172,37,-71,1,0,0,response3disk,,4,11,-6,1,0,0,rectangle,11,-6,1,0,0,11,-6,1,0,0,1,66,226,73,1,,,,,,,,
,,,,,,,,,,,,,FF,,,,,,,,0.484,,,,,,,,,,,,,,,,,,,,,,610361398cc16a47afe9c948,610364a4e4ff10b76e5a45c7,2021-07-29_20h33.48.381,Simcolourproject_2stim_asymm_v5,2020.2.10,Win32,60,61025ae37ef11b136ea224fe,,,,,,,,,1725,68,-39,1,0,0,response3disk,,5,15,8,1,0,0,rectangle,15,8,1,0,0,15,8,1,0,0,1,67,227,158,1,,,,,,,,
,,,,,,,,,,,,,FF,,,,,,,,0.6667,,,,,,,,,,,,,,,,,,,,,,610361398cc16a47afe9c948,610364a4e4ff10b76e5a45c7,2021-07-29_20h33.48.381,Simcolourproject_2stim_asymm_v5,2020.2.10,Win32,60,61025ae37ef11b136ea224fe,,,,,,,,,3386,-32,-84,1,0,0,response5disk,,3,6,2,1,0,0,rectangle,6,2,1,0,0,6,2,1,0,0,1,68,228,60,1,,,,,,,,
,,,,,,,,,,,,,FF,,,,,,,,0.7351,,,,,,,,,,,,,,,,,,,,,,610361398cc16a47afe9c948,610364a4e4ff10b76e5a45c7,2021-07-29_20h33.48.381,Simcolourproject_2stim_asymm_v5,2020.2.10,Win32,60,61025ae37ef11b136ea224fe,,,,,,,,,1010,119,43,1,0,0,response1disk,,6,13,6,1,0,0,rectangle,13,6,1,0,0,13,6,1,0,0,1,69,229,79,1,,,,,,,,
,,,,,,,,,,,,,FF,,,,,,,,0.9397,,,,,,,,,,,,,,,,,,,,,,610361398cc16a47afe9c948,610364a4e4ff10b76e5a45c7,2021-07-29_20h33.48.381,Simcolourproject_2stim_asymm_v5,2020.2.10,Win32,60,61025ae37ef11b136ea224fe,,,,,,,,,3918,-43,-79,1,0,0,response5disk,,3,5,11,1,0,0,rectangle,5,11,1,0,0,5,11,1,0,0,1,70,230,36,1,,,,,,,,
,,,,,,,,,,,,,FF,,,,,,,,0.7006,,,,,,,,,,,,,,,,,,,,,,610361398cc16a47afe9c948,610364a4e4ff10b76e5a45c7,2021-07-29_20h33.48.381,Simcolourproject_2stim_asymm_v5,2020.2.10,Win32,60,61025ae37ef11b136ea224fe,,,,,,,,,668,34,-70,1,0,0,response3disk,,4,11,1,1,0,0,rectangle,11,1,1,0,0,11,1,1,0,0,1,71,231,101,1,,,,,,,,
,,,,,,,,,,,,,FF,,,,,,,,0.8833,,,,,,,,,,,,,,,,,,,,,,610361398cc16a47afe9c948,610364a4e4ff10b76e5a45c7,2021-07-29_20h33.48.381,Simcolourproject_2stim_asymm_v5,2020.2.10,Win32,60,61025ae37ef11b136ea224fe,,,,,,,,,2424,-81,-31,1,0,0,response5disk,,2,-11,-3,1,0,0,rectangle,-11,-3,1,0,0,-11,-3,1,0,0,1,72,232,104,1,,,,,,,,
,,,,,,,,,,,,,FF,,,,,,,,1.1792,,,,,,,,,,,,,,,,,,,,,,610361398cc16a47afe9c948,610364a4e4ff10b76e5a45c7,2021-07-29_20h33.48.381,Simcolourproject_2stim_asymm_v5,2020.2.10,Win32,60,61025ae37ef11b136ea224fe,,,,,,,,,3752,83,-46,1,0,0,response3disk,,5,17,15,1,0,0,rectangle,17,15,1,0,0,17,15,1,0,0,1,73,233,3,1,,,,,,,,
,,,,,,,,,,,,,FF,,,,,,,,1.3794,,,,,,,,,,,,,,,,,,,,,,610361398cc16a47afe9c948,610364a4e4ff10b76e5a45c7,2021-07-29_20h33.48.381,Simcolourproject_2stim_asymm_v5,2020.2.10,Win32,60,61025ae37ef11b136ea224fe,,,,,,,,,3233,73,43,1,0,0,response1disk,,6,14,0,1,0,0,rectangle,14,0,1,0,0,14,0,1,0,0,1,74,234,89,1,,,,,,,,
,,,,,,,,,,,,,FF,,,,,,,,1.1037,,,,,,,,,,,,,,,,,,,,,,610361398cc16a47afe9c948,610364a4e4ff10b76e5a45c7,2021-07-29_20h33.48.381,Simcolourproject_2stim_asymm_v5,2020.2.10,Win32,60,61025ae37ef11b136ea224fe,,,,,,,,,173,-30,-86,1,0,0,response5disk,,3,3,-1,1,0,0,rectangle,3,-1,1,0,0,3,-1,1,0,0,1,75,235,53,1,,,,,,,,
,,,,,,,,,,,,,FF,,,,,,,,0.7841,,,,,,,,,,,,,,,,,,,,,,610361398cc16a47afe9c948,610364a4e4ff10b76e5a45c7,2021-07-29_20h33.48.381,Simcolourproject_2stim_asymm_v5,2020.2.10,Win32,60,61025ae37ef11b136ea224fe,,,,,,,,,482,-37,-81,1,0,0,response5disk,,3,-11,-4,1,0,0,rectangle,-93,36,1,0,0,-16,1,1,0,0,1,76,236,57,1,,response7disk_3,TRUE,1,1,"[136,46,133,205,50,50,152,173,273,79,53,180,162,85,89,321,237,312,279,154]",1.5841,rectangle
,,,,,,,,,,,,,FF,,,,,,,,0.85,,,,,,,,,,,,,,,,,,,,,,610361398cc16a47afe9c948,610364a4e4ff10b76e5a45c7,2021-07-29_20h33.48.381,Simcolourproject_2stim_asymm_v5,2020.2.10,Win32,60,61025ae37ef11b136ea224fe,,,,,,,,,2743,64,-52,1,0,0,response3disk,,5,3,-5,1,0,0,rectangle,3,-5,1,0,0,3,-5,1,0,0,1,77,237,51,1,,,,,,,,
,,,,,,,,,,,,,FF,,,,,,,,0.5349,,,,,,,,,,,,,,,,,,,,,,610361398cc16a47afe9c948,610364a4e4ff10b76e5a45c7,2021-07-29_20h33.48.381,Simcolourproject_2stim_asymm_v5,2020.2.10,Win32,60,61025ae37ef11b136ea224fe,,,,,,,,,2386,77,-39,1,0,0,response3disk,,5,4,12,1,0,0,rectangle,4,12,1,0,0,4,12,1,0,0,1,78,238,126,1,,,,,,,,
,,,,,,,,,,,,,FF,,,,,,,,2.6223,,,,,,,,,,,,,,,,,,,,,,610361398cc16a47afe9c948,610364a4e4ff10b76e5a45c7,2021-07-29_20h33.48.381,Simcolourproject_2stim_asymm_v5,2020.2.10,Win32,60,61025ae37ef11b136ea224fe,,,,,,,,,2052,83,30,1,0,0,response1disk,,6,8,7,1,0,0,rectangle,8,7,1,0,0,8,7,1,0,0,1,79,239,15,1,,,,,,,,
,,,,,,,,,,,,,FF,,,,,,,,0.8617,,,,,,,,,,,,,,,,,,,,,,610361398cc16a47afe9c948,610364a4e4ff10b76e5a45c7,2021-07-29_20h33.48.381,Simcolourproject_2stim_asymm_v5,2020.2.10,Win32,60,61025ae37ef11b136ea224fe,,,,,,,,,1018,105,41,1,0,0,response1disk,,6,3,-14,1,0,0,rectangle,3,-14,1,0,0,3,-14,1,0,0,1,80,240,82,1,,,,,,,,
,,,,,,,,,,,,,FF,,,,,,,,1.2346,,,,,,,,,,,,,,,,,,,,,,610361398cc16a47afe9c948,610364a4e4ff10b76e5a45c7,2021-07-29_20h33.48.381,Simcolourproject_2stim_asymm_v5,2020.2.10,Win32,60,61025ae37ef11b136ea224fe,,,,,,,,,4022,-18,-73,1,0,0,response5disk,,3,18,11,1,0,0,rectangle,18,11,1,0,0,18,11,1,0,0,1,81,241,8,1,,,,,,,,
,,,,,,,,,,,,,FF,,,,,,,,1.0387,,,,,,,,,,,,,,,,,,,,,,610361398cc16a47afe9c948,610364a4e4ff10b76e5a45c7,2021-07-29_20h33.48.381,Simcolourproject_2stim_asymm_v5,2020.2.10,Win32,60,61025ae37ef11b136ea224fe,,,,,,,,,4215,-31,-91,1,0,0,response5disk,,3,-5,-8,1,0,0,rectangle,-5,-8,1,0,0,-5,-8,1,0,0,1,82,242,28,1,,,,,,,,
,,,,,,,,,,,,,FF,,,,,,,,0.6005,,,,,,,,,,,,,,,,,,,,,,610361398cc16a47afe9c948,610364a4e4ff10b76e5a45c7,2021-07-29_20h33.48.381,Simcolourproject_2stim_asymm_v5,2020.2.10,Win32,60,61025ae37ef11b136ea224fe,,,,,,,,,4300,52,-85,1,0,0,response3disk,,4,16,4,1,0,0,rectangle,16,4,1,0,0,16,4,1,0,0,1,83,243,80,1,,,,,,,,
,,,,,,,,,,,,,FF,,,,,,,,0.8997,,,,,,,,,,,,,,,,,,,,,,610361398cc16a47afe9c948,610364a4e4ff10b76e5a45c7,2021-07-29_20h33.48.381,Simcolourproject_2stim_asymm_v5,2020.2.10,Win32,60,61025ae37ef11b136ea224fe,,,,,,,,,3848,-54,-83,1,0,0,response5disk,,3,-1,0,1,0,0,rectangle,-1,0,1,0,0,-1,0,1,0,0,1,84,244,146,1,,,,,,,,
,,,,,,,,,,,,,FF,,,,,,,,0.7077,,,,,,,,,,,,,,,,,,,,,,610361398cc16a47afe9c948,610364a4e4ff10b76e5a45c7,2021-07-29_20h33.48.381,Simcolourproject_2stim_asymm_v5,2020.2.10,Win32,60,61025ae37ef11b136ea224fe,,,,,,,,,1238,75,-49,1,0,0,response3disk,,5,-6,-5,1,0,0,rectangle,-6,-5,1,0,0,-6,-5,1,0,0,1,85,245,71,1,,,,,,,,
,,,,,,,,,,,,,FF,,,,,,,,0.7184,,,,,,,,,,,,,,,,,,,,,,610361398cc16a47afe9c948,610364a4e4ff10b76e5a45c7,2021-07-29_20h33.48.381,Simcolourproject_2stim_asymm_v5,2020.2.10,Win32,60,61025ae37ef11b136ea224fe,,,,,,,,,3473,-36,-71,1,0,0,response5disk,,3,-13,-6,1,0,0,rectangle,-13,-6,1,0,0,-13,-6,1,0,0,1,86,246,65,1,,,,,,,,
,,,,,,,,,,,,,FF,,,,,,,,0.8711,,,,,,,,,,,,,,,,,,,,,,610361398cc16a47afe9c948,610364a4e4ff10b76e5a45c7,2021-07-29_20h33.48.381,Simcolourproject_2stim_asymm_v5,2020.2.10,Win32,60,61025ae37ef11b136ea224fe,,,,,,,,,1012,59,-38,1,0,0,response3disk,,5,11,9,1,0,0,rectangle,11,9,1,0,0,11,9,1,0,0,1,87,247,23,1,,,,,,,,
,,,,,,,,,,,,,FF,,,,,,,,0.6644,,,,,,,,,,,,,,,,,,,,,,610361398cc16a47afe9c948,610364a4e4ff10b76e5a45c7,2021-07-29_20h33.48.381,Simcolourproject_2stim_asymm_v5,2020.2.10,Win32,60,61025ae37ef11b136ea224fe,,,,,,,,,3497,54,40,1,0,0,response1disk,,6,-9,-10,1,0,0,rectangle,-9,-10,1,0,0,-9,-10,1,0,0,1,88,248,58,1,,,,,,,,
,,,,,,,,,,,,,FF,,,,,,,,0.8078,,,,,,,,,,,,,,,,,,,,,,610361398cc16a47afe9c948,610364a4e4ff10b76e5a45c7,2021-07-29_20h33.48.381,Simcolourproject_2stim_asymm_v5,2020.2.10,Win32,60,61025ae37ef11b136ea224fe,,,,,,,,,3245,-71,-33,1,0,0,response5disk,,2,18,-3,1,0,0,rectangle,18,-3,1,0,0,18,-3,1,0,0,1,89,249,63,1,,,,,,,,
,,,,,,,,,,,,,FF,,,,,,,,0.7692,,,,,,,,,,,,,,,,,,,,,,610361398cc16a47afe9c948,610364a4e4ff10b76e5a45c7,2021-07-29_20h33.48.381,Simcolourproject_2stim_asymm_v5,2020.2.10,Win32,60,61025ae37ef11b136ea224fe,,,,,,,,,3531,-32,-67,1,0,0,response5disk,,3,16,10,1,0,0,rectangle,16,10,1,0,0,16,10,1,0,0,1,90,250,27,1,,,,,,,,
,,,,,,,,,,,,,FF,,,,,,,,0.7673,,,,,,,,,,,,,,,,,,,,,,610361398cc16a47afe9c948,610364a4e4ff10b76e5a45c7,2021-07-29_20h33.48.381,Simcolourproject_2stim_asymm_v5,2020.2.10,Win32,60,61025ae37ef11b136ea224fe,,,,,,,,,647,90,-47,1,0,0,response3disk,,5,4,15,1,0,0,rectangle,4,15,1,0,0,4,15,1,0,0,1,91,251,120,1,,,,,,,,
,,,,,,,,,,,,,FF,,,,,,,,0.4844,,,,,,,,,,,,,,,,,,,,,,610361398cc16a47afe9c948,610364a4e4ff10b76e5a45c7,2021-07-29_20h33.48.381,Simcolourproject_2stim_asymm_v5,2020.2.10,Win32,60,61025ae37ef11b136ea224fe,,,,,,,,,3263,48,-68,1,0,0,response3disk,,4,18,-3,1,0,0,rectangle,18,-3,1,0,0,18,-3,1,0,0,1,92,252,55,1,,,,,,,,
,,,,,,,,,,,,,FF,,,,,,,,0.7168,,,,,,,,,,,,,,,,,,,,,,610361398cc16a47afe9c948,610364a4e4ff10b76e5a45c7,2021-07-29_20h33.48.381,Simcolourproject_2stim_asymm_v5,2020.2.10,Win32,60,61025ae37ef11b136ea224fe,,,,,,,,,2818,43,77,1,0,0,response1disk,,7,-1,6,1,0,0,rectangle,-1,6,1,0,0,-1,6,1,0,0,1,93,253,62,1,,,,,,,,
,,,,,,,,,,,,,FF,,,,,,,,0.9718,,,,,,,,,,,,,,,,,,,,,,610361398cc16a47afe9c948,610364a4e4ff10b76e5a45c7,2021-07-29_20h33.48.381,Simcolourproject_2stim_asymm_v5,2020.2.10,Win32,60,61025ae37ef11b136ea224fe,,,,,,,,,2816,77,30,1,0,0,response1disk,,6,-8,-5,1,0,0,rectangle,-8,-5,1,0,0,-8,-5,1,0,0,1,94,254,100,1,,,,,,,,
,,,,,,,,,,,,,FF,,,,,,,,0.6704,,,,,,,,,,,,,,,,,,,,,,610361398cc16a47afe9c948,610364a4e4ff10b76e5a45c7,2021-07-29_20h33.48.381,Simcolourproject_2stim_asymm_v5,2020.2.10,Win32,60,61025ae37ef11b136ea224fe,,,,,,,,,2161,81,-39,1,0,0,response3disk,,5,6,-3,1,0,0,rectangle,6,-3,1,0,0,6,-3,1,0,0,1,95,255,18,1,,,,,,,,
,,,,,,,,,,,,,FF,,,,,,,,1.0017,,,,,,,,,,,,,,,,,,,,,,610361398cc16a47afe9c948,610364a4e4ff10b76e5a45c7,2021-07-29_20h33.48.381,Simcolourproject_2stim_asymm_v5,2020.2.10,Win32,60,61025ae37ef11b136ea224fe,,,,,,,,,2249,-40,-72,1,0,0,response5disk,,3,-12,6,1,0,0,rectangle,-12,6,1,0,0,-12,6,1,0,0,1,96,256,136,1,,,,,,,,
,,,,,,,,,,,,,FF,,,,,,,,0.8169,,,,,,,,,,,,,,,,,,,,,,610361398cc16a47afe9c948,610364a4e4ff10b76e5a45c7,2021-07-29_20h33.48.381,Simcolourproject_2stim_asymm_v5,2020.2.10,Win32,60,61025ae37ef11b136ea224fe,,,,,,,,,1974,-37,-92,1,0,0,response5disk,,3,-7,1,1,0,0,rectangle,-7,1,1,0,0,-7,1,1,0,0,1,97,257,131,1,,,,,,,,
,,,,,,,,,,,,,FF,,,,,,,,0.8337,,,,,,,,,,,,,,,,,,,,,,610361398cc16a47afe9c948,610364a4e4ff10b76e5a45c7,2021-07-29_20h33.48.381,Simcolourproject_2stim_asymm_v5,2020.2.10,Win32,60,61025ae37ef11b136ea224fe,,,,,,,,,1748,-44,-78,1,0,0,response5disk,,3,-7,14,1,0,0,rectangle,-7,14,1,0,0,-7,14,1,0,0,1,98,258,102,1,,,,,,,,
,,,,,,,,,,,,,FF,,,,,,,,1.3176,,,,,,,,,,,,,,,,,,,,,,610361398cc16a47afe9c948,610364a4e4ff10b76e5a45c7,2021-07-29_20h33.48.381,Simcolourproject_2stim_asymm_v5,2020.2.10,Win32,60,61025ae37ef11b136ea224fe,,,,,,,,,1880,-74,-46,1,0,0,response5disk,,2,-7,-5,1,0,0,rectangle,-7,-5,1,0,0,-7,-5,1,0,0,1,99,259,143,1,,,,,,,,
,,,,,,,,,,,,,FF,,,,,,,,1.0044,,,,,,,,,,,,,,,,,,,,,,610361398cc16a47afe9c948,610364a4e4ff10b76e5a45c7,2021-07-29_20h33.48.381,Simcolourproject_2stim_asymm_v5,2020.2.10,Win32,60,61025ae37ef11b136ea224fe,,,,,,,,,790,80,-46,1,0,0,response3disk,,5,8,-5,1,0,0,rectangle,8,-5,1,0,0,8,-5,1,0,0,1,100,260,127,1,,,,,,,,
,,,,,,,,,,,,,FF,,,,,,,,0.5845,,,,,,,,,,,,,,,,,,,,,,610361398cc16a47afe9c948,610364a4e4ff10b76e5a45c7,2021-07-29_20h33.48.381,Simcolourproject_2stim_asymm_v5,2020.2.10,Win32,60,61025ae37ef11b136ea224fe,,,,,,,,,4221,47,-68,1,0,0,response3disk,,4,21,-10,1,0,0,rectangle,21,-10,1,0,0,21,-10,1,0,0,1,101,261,35,1,,,,,,,,
,,,,,,,,,,,,,FF,,,,,,,,0.7877,,,,,,,,,,,,,,,,,,,,,,610361398cc16a47afe9c948,610364a4e4ff10b76e5a45c7,2021-07-29_20h33.48.381,Simcolourproject_2stim_asymm_v5,2020.2.10,Win32,60,61025ae37ef11b136ea224fe,,,,,,,,,3838,76,36,1,0,0,response1disk,,6,2,6,1,0,0,rectangle,2,6,1,0,0,2,6,1,0,0,1,102,262,145,1,,,,,,,,
,,,,,,,,,,,,,FF,,,,,,,,1.8655,,,,,,,,,,,,,,,,,,,,,,610361398cc16a47afe9c948,610364a4e4ff10b76e5a45c7,2021-07-29_20h33.48.381,Simcolourproject_2stim_asymm_v5,2020.2.10,Win32,60,61025ae37ef11b136ea224fe,,,,,,,,,2156,83,24,1,0,0,response1disk,,6,8,-3,1,0,0,rectangle,8,-3,1,0,0,8,-3,1,0,0,1,103,263,44,1,,,,,,,,
,,,,,,,,,,,,,FF,,,,,,,,0.5595,,,,,,,,,,,,,,,,,,,,,,610361398cc16a47afe9c948,610364a4e4ff10b76e5a45c7,2021-07-29_20h33.48.381,Simcolourproject_2stim_asymm_v5,2020.2.10,Win32,60,61025ae37ef11b136ea224fe,,,,,,,,,4042,56,-55,1,0,0,response3disk,,5,-10,-10,1,0,0,rectangle,-10,-10,1,0,0,-10,-10,1,0,0,1,104,264,110,1,,,,,,,,
,,,,,,,,,,,,,FF,,,,,,,,0.4663,,,,,,,,,,,,,,,,,,,,,,610361398cc16a47afe9c948,610364a4e4ff10b76e5a45c7,2021-07-29_20h33.48.381,Simcolourproject_2stim_asymm_v5,2020.2.10,Win32,60,61025ae37ef11b136ea224fe,,,,,,,,,1255,30,-79,1,0,0,response3disk,,4,-2,-2,1,0,0,rectangle,-2,-2,1,0,0,-2,-2,1,0,0,1,105,265,22,1,,,,,,,,
,,,,,,,,,,,,,FF,,,,,,,,0.6172,,,,,,,,,,,,,,,,,,,,,,610361398cc16a47afe9c948,610364a4e4ff10b76e5a45c7,2021-07-29_20h33.48.381,Simcolourproject_2stim_asymm_v5,2020.2.10,Win32,60,61025ae37ef11b136ea224fe,,,,,,,,,4279,-26,-66,1,0,0,response5disk,,3,4,6,1,0,0,rectangle,4,6,1,0,0,4,6,1,0,0,1,106,266,140,1,,,,,,,,
,,,,,,,,,,,,,FF,,,,,,,,0.8353,,,,,,,,,,,,,,,,,,,,,,610361398cc16a47afe9c948,610364a4e4ff10b76e5a45c7,2021-07-29_20h33.48.381,Simcolourproject_2stim_asymm_v5,2020.2.10,Win32,60,61025ae37ef11b136ea224fe,,,,,,,,,3738,-70,-89,1,0,0,response5disk,,3,-3,5,1,0,0,rectangle,-3,5,1,0,0,-3,5,1,0,0,1,107,267,83,1,,,,,,,,
,,,,,,,,,,,,,FF,,,,,,,,0.5489,,,,,,,,,,,,,,,,,,,,,,610361398cc16a47afe9c948,610364a4e4ff10b76e5a45c7,2021-07-29_20h33.48.381,Simcolourproject_2stim_asymm_v5,2020.2.10,Win32,60,61025ae37ef11b136ea224fe,,,,,,,,,1299,-46,-76,1,0,0,response5disk,,3,3,5,1,0,0,rectangle,3,5,1,0,0,3,5,1,0,0,1,108,268,41,1,,,,,,,,
,,,,,,,,,,,,,FF,,,,,,,,0.6345,,,,,,,,,,,,,,,,,,,,,,610361398cc16a47afe9c948,610364a4e4ff10b76e5a45c7,2021-07-29_20h33.48.381,Simcolourproject_2stim_asymm_v5,2020.2.10,Win32,60,61025ae37ef11b136ea224fe,,,,,,,,,1589,-74,-40,1,0,0,response5disk,,2,18,10,1,0,0,rectangle,18,10,1,0,0,18,10,1,0,0,1,109,269,19,1,,,,,,,,
,,,,,,,,,,,,,FF,,,,,,,,1.0865,,,,,,,,,,,,,,,,,,,,,,610361398cc16a47afe9c948,610364a4e4ff10b76e5a45c7,2021-07-29_20h33.48.381,Simcolourproject_2stim_asymm_v5,2020.2.10,Win32,60,61025ae37ef11b136ea224fe,,,,,,,,,2410,50,-66,1,0,0,response3disk,,4,13,-5,1,0,0,rectangle,13,-5,1,0,0,13,-5,1,0,0,1,110,270,121,1,,,,,,,,
,,,,,,,,,,,,,FF,,,,,,,,0.936,,,,,,,,,,,,,,,,,,,,,,610361398cc16a47afe9c948,610364a4e4ff10b76e5a45c7,2021-07-29_20h33.48.381,Simcolourproject_2stim_asymm_v5,2020.2.10,Win32,60,61025ae37ef11b136ea224fe,,,,,,,,,2629,93,37,1,0,0,response1disk,,6,8,-4,1,0,0,rectangle,8,-4,1,0,0,8,-4,1,0,0,1,111,271,48,1,,,,,,,,
,,,,,,,,,,,,,FF,,,,,,,,0.905,,,,,,,,,,,,,,,,,,,,,,610361398cc16a47afe9c948,610364a4e4ff10b76e5a45c7,2021-07-29_20h33.48.381,Simcolourproject_2stim_asymm_v5,2020.2.10,Win32,60,61025ae37ef11b136ea224fe,,,,,,,,,1870,63,-44,1,0,0,response3disk,,5,4,-7,1,0,0,rectangle,-17,-52,1,0,0,7,5,1,0,0,1,112,272,155,1,,response5disk_3,TRUE,3,7,"[136,46,133,205,50,50,152,173,273,79,53,180,162,85,89,321,237,312,279,154]",1.7184,rectangle
,,,,,,,,,,,,,FF,,,,,,,,0.7231,,,,,,,,,,,,,,,,,,,,,,610361398cc16a47afe9c948,610364a4e4ff10b76e5a45c7,2021-07-29_20h33.48.381,Simcolourproject_2stim_asymm_v5,2020.2.10,Win32,60,61025ae37ef11b136ea224fe,,,,,,,,,3872,-39,-80,1,0,0,response5disk,,3,-3,-2,1,0,0,rectangle,-3,-2,1,0,0,-3,-2,1,0,0,1,113,273,124,1,,,,,,,,
,,,,,,,,,,,,,FF,,,,,,,,0.6339,,,,,,,,,,,,,,,,,,,,,,610361398cc16a47afe9c948,610364a4e4ff10b76e5a45c7,2021-07-29_20h33.48.381,Simcolourproject_2stim_asymm_v5,2020.2.10,Win32,60,61025ae37ef11b136ea224fe,,,,,,,,,1332,42,-77,1,0,0,response3disk,,4,3,-8,1,0,0,rectangle,3,-8,1,0,0,3,-8,1,0,0,1,114,274,34,1,,,,,,,,
,,,,,,,,,,,,,FF,,,,,,,,0.503,,,,,,,,,,,,,,,,,,,,,,610361398cc16a47afe9c948,610364a4e4ff10b76e5a45c7,2021-07-29_20h33.48.381,Simcolourproject_2stim_asymm_v5,2020.2.10,Win32,60,61025ae37ef11b136ea224fe,,,,,,,,,132,75,-49,1,0,0,response3disk,,5,1,-12,1,0,0,rectangle,1,-12,1,0,0,1,-12,1,0,0,1,115,275,74,1,,,,,,,,
,,,,,,,,,,,,,FF,,,,,,,,0.4682,,,,,,,,,,,,,,,,,,,,,,610361398cc16a47afe9c948,610364a4e4ff10b76e5a45c7,2021-07-29_20h33.48.381,Simcolourproject_2stim_asymm_v5,2020.2.10,Win32,60,61025ae37ef11b136ea224fe,,,,,,,,,3331,27,70,1,0,0,response1disk,,7,-12,-5,1,0,0,rectangle,-12,-5,1,0,0,-12,-5,1,0,0,1,116,276,93,1,,,,,,,,
,,,,,,,,,,,,,FF,,,,,,,,0.4165,,,,,,,,,,,,,,,,,,,,,,610361398cc16a47afe9c948,610364a4e4ff10b76e5a45c7,2021-07-29_20h33.48.381,Simcolourproject_2stim_asymm_v5,2020.2.10,Win32,60,61025ae37ef11b136ea224fe,,,,,,,,,1228,70,35,1,0,0,response1disk,,6,-2,-12,1,0,0,rectangle,-2,-12,1,0,0,-2,-12,1,0,0,1,117,277,49,1,,,,,,,,
,,,,,,,,,,,,,FF,,,,,,,,0.5351,,,,,,,,,,,,,,,,,,,,,,610361398cc16a47afe9c948,610364a4e4ff10b76e5a45c7,2021-07-29_20h33.48.381,Simcolourproject_2stim_asymm_v5,2020.2.10,Win32,60,61025ae37ef11b136ea224fe,,,,,,,,,570,29,56,1,0,0,response1disk,,7,3,-8,1,0,0,rectangle,-79,52,1,0,0,-17,3,1,0,0,1,118,278,7,1,,response7disk_3,TRUE,1,1,"[136,46,133,205,50,50,152,173,273,79,53,180,162,85,89,321,237,312,279,154]",1.467,rectangle
,,,,,,,,,,,,,FF,,,,,,,,1.2377,,,,,,,,,,,,,,,,,,,,,,610361398cc16a47afe9c948,610364a4e4ff10b76e5a45c7,2021-07-29_20h33.48.381,Simcolourproject_2stim_asymm_v5,2020.2.10,Win32,60,61025ae37ef11b136ea224fe,,,,,,,,,3850,-74,27,1,0,0,response7disk,,1,27,-12,1,0,0,rectangle,27,-12,1,0,0,27,-12,1,0,0,1,119,279,31,1,,,,,,,,
,,,,,,,,,,,,,FF,,,,,,,,0.7345,,,,,,,,,,,,,,,,,,,,,,610361398cc16a47afe9c948,610364a4e4ff10b76e5a45c7,2021-07-29_20h33.48.381,Simcolourproject_2stim_asymm_v5,2020.2.10,Win32,60,61025ae37ef11b136ea224fe,,,,,,,,,1344,-49,-61,1,0,0,response5disk,,3,-14,13,1,0,0,rectangle,-14,13,1,0,0,-14,13,1,0,0,1,120,280,1,1,,,,,,,,
,,,,,,,,,,,,,FF,,,,,,,,0.9369,,,,,,,,,,,,,,,,,,,,,,610361398cc16a47afe9c948,610364a4e4ff10b76e5a45c7,2021-07-29_20h33.48.381,Simcolourproject_2stim_asymm_v5,2020.2.10,Win32,60,61025ae37ef11b136ea224fe,,,,,,,,,4343,-42,75,1,0,0,response7disk,,0,-15,1,1,0,0,rectangle,-15,1,1,0,0,-15,1,1,0,0,1,121,281,66,1,,,,,,,,
,,,,,,,,,,,,,FF,,,,,,,,0.9358,,,,,,,,,,,,,,,,,,,,,,610361398cc16a47afe9c948,610364a4e4ff10b76e5a45c7,2021-07-29_20h33.48.381,Simcolourproject_2stim_asymm_v5,2020.2.10,Win32,60,61025ae37ef11b136ea224fe,,,,,,,,,1188,109,35,1,0,0,response1disk,,6,17,-2,1,0,0,rectangle,17,-2,1,0,0,17,-2,1,0,0,1,122,282,43,1,,,,,,,,
,,,,,,,,,,,,,FF,,,,,,,,0.966,,,,,,,,,,,,,,,,,,,,,,610361398cc16a47afe9c948,610364a4e4ff10b76e5a45c7,2021-07-29_20h33.48.381,Simcolourproject_2stim_asymm_v5,2020.2.10,Win32,60,61025ae37ef11b136ea224fe,,,,,,,,,2934,41,-45,1,0,0,response3disk,,4,17,14,1,0,0,rectangle,17,14,1,0,0,17,14,1,0,0,1,123,283,128,1,,,,,,,,
,,,,,,,,,,,,,FF,,,,,,,,1.0807,,,,,,,,,,,,,,,,,,,,,,610361398cc16a47afe9c948,610364a4e4ff10b76e5a45c7,2021-07-29_20h33.48.381,Simcolourproject_2stim_asymm_v5,2020.2.10,Win32,60,61025ae37ef11b136ea224fe,,,,,,,,,162,-37,-53,1,0,0,response5disk,,3,-13,-1,1,0,0,rectangle,-13,-1,1,0,0,-13,-1,1,0,0,1,124,284,2,1,,,,,,,,
,,,,,,,,,,,,,FF,,,,,,,,0.7841,,,,,,,,,,,,,,,,,,,,,,610361398cc16a47afe9c948,610364a4e4ff10b76e5a45c7,2021-07-29_20h33.48.381,Simcolourproject_2stim_asymm_v5,2020.2.10,Win32,60,61025ae37ef11b136ea224fe,,,,,,,,,1436,49,-35,1,0,0,response3disk,,5,-12,3,1,0,0,rectangle,-12,3,1,0,0,-12,3,1,0,0,1,125,285,38,1,,,,,,,,
,,,,,,,,,,,,,FF,,,,,,,,1.0378,,,,,,,,,,,,,,,,,,,,,,610361398cc16a47afe9c948,610364a4e4ff10b76e5a45c7,2021-07-29_20h33.48.381,Simcolourproject_2stim_asymm_v5,2020.2.10,Win32,60,61025ae37ef11b136ea224fe,,,,,,,,,537,83,41,1,0,0,response1disk,,6,-1,-3,1,0,0,rectangle,-1,-3,1,0,0,-1,-3,1,0,0,1,126,286,133,1,,,,,,,,
,,,,,,,,,,,,,FF,,,,,,,,1.0007,,,,,,,,,,,,,,,,,,,,,,610361398cc16a47afe9c948,610364a4e4ff10b76e5a45c7,2021-07-29_20h33.48.381,Simcolourproject_2stim_asymm_v5,2020.2.10,Win32,60,61025ae37ef11b136ea224fe,,,,,,,,,4029,-33,-100,1,0,0,response5disk,,3,9,3,1,0,0,rectangle,9,3,1,0,0,9,3,1,0,0,1,127,287,153,1,,,,,,,,
,,,,,,,,,,,,,FF,,,,,,,,0.7502,,,,,,,,,,,,,,,,,,,,,,610361398cc16a47afe9c948,610364a4e4ff10b76e5a45c7,2021-07-29_20h33.48.381,Simcolourproject_2stim_asymm_v5,2020.2.10,Win32,60,61025ae37ef11b136ea224fe,,,,,,,,,2696,22,-84,1,0,0,response3disk,,4,1,-12,1,0,0,rectangle,1,-12,1,0,0,1,-12,1,0,0,1,128,288,107,1,,,,,,,,
,,,,,,,,,,,,,FF,,,,,,,,0.5008,,,,,,,,,,,,,,,,,,,,,,610361398cc16a47afe9c948,610364a4e4ff10b76e5a45c7,2021-07-29_20h33.48.381,Simcolourproject_2stim_asymm_v5,2020.2.10,Win32,60,61025ae37ef11b136ea224fe,,,,,,,,,2308,-67,-82,1,0,0,response5disk,,3,-3,12,1,0,0,rectangle,-3,12,1,0,0,-3,12,1,0,0,1,129,289,6,1,,,,,,,,
,,,,,,,,,,,,,FF,,,,,,,,0.3837,,,,,,,,,,,,,,,,,,,,,,610361398cc16a47afe9c948,610364a4e4ff10b76e5a45c7,2021-07-29_20h33.48.381,Simcolourproject_2stim_asymm_v5,2020.2.10,Win32,60,61025ae37ef11b136ea224fe,,,,,,,,,3212,79,-31,1,0,0,response3disk,,5,0,9,1,0,0,rectangle,0,9,1,0,0,0,9,1,0,0,1,130,290,98,1,,,,,,,,
,,,,,,,,,,,,,FF,,,,,,,,0.4373,,,,,,,,,,,,,,,,,,,,,,610361398cc16a47afe9c948,610364a4e4ff10b76e5a45c7,2021-07-29_20h33.48.381,Simcolourproject_2stim_asymm_v5,2020.2.10,Win32,60,61025ae37ef11b136ea224fe,,,,,,,,,4039,72,49,1,0,0,response1disk,,6,8,3,1,0,0,rectangle,8,3,1,0,0,8,3,1,0,0,1,131,291,91,1,,,,,,,,
,,,,,,,,,,,,,FF,,,,,,,,0.6672,,,,,,,,,,,,,,,,,,,,,,610361398cc16a47afe9c948,610364a4e4ff10b76e5a45c7,2021-07-29_20h33.48.381,Simcolourproject_2stim_asymm_v5,2020.2.10,Win32,60,61025ae37ef11b136ea224fe,,,,,,,,,2430,25,-74,1,0,0,response3disk,,4,8,-1,1,0,0,rectangle,8,-1,1,0,0,8,-1,1,0,0,1,132,292,135,1,,,,,,,,
,,,,,,,,,,,,,FF,,,,,,,,1.101,,,,,,,,,,,,,,,,,,,,,,610361398cc16a47afe9c948,610364a4e4ff10b76e5a45c7,2021-07-29_20h33.48.381,Simcolourproject_2stim_asymm_v5,2020.2.10,Win32,60,61025ae37ef11b136ea224fe,,,,,,,,,887,-30,-83,1,0,0,response5disk,,3,6,10,1,0,0,rectangle,6,10,1,0,0,6,10,1,0,0,1,133,293,151,1,,,,,,,,
,,,,,,,,,,,,,FF,,,,,,,,0.4844,,,,,,,,,,,,,,,,,,,,,,610361398cc16a47afe9c948,610364a4e4ff10b76e5a45c7,2021-07-29_20h33.48.381,Simcolourproject_2stim_asymm_v5,2020.2.10,Win32,60,61025ae37ef11b136ea224fe,,,,,,,,,3216,-83,-35,1,0,0,response5disk,,2,19,-1,1,0,0,rectangle,19,-1,1,0,0,19,-1,1,0,0,1,134,294,99,1,,,,,,,,
,,,,,,,,,,,,,FF,,,,,,,,0.4831,,,,,,,,,,,,,,,,,,,,,,610361398cc16a47afe9c948,610364a4e4ff10b76e5a45c7,2021-07-29_20h33.48.381,Simcolourproject_2stim_asymm_v5,2020.2.10,Win32,60,61025ae37ef11b136ea224fe,,,,,,,,,3048,71,35,1,0,0,response1disk,,6,3,-6,1,0,0,rectangle,3,-6,1,0,0,3,-6,1,0,0,1,135,295,24,1,,,,,,,,
,,,,,,,,,,,,,FF,,,,,,,,0.5505,,,,,,,,,,,,,,,,,,,,,,610361398cc16a47afe9c948,610364a4e4ff10b76e5a45c7,2021-07-29_20h33.48.381,Simcolourproject_2stim_asymm_v5,2020.2.10,Win32,60,61025ae37ef11b136ea224fe,,,,,,,,,1802,57,23,1,0,0,response1disk,,6,-15,-13,1,0,0,rectangle,-15,-13,1,0,0,-15,-13,1,0,0,1,136,296,30,1,,,,,,,,
,,,,,,,,,,,,,FF,,,,,,,,0.4842,,,,,,,,,,,,,,,,,,,,,,610361398cc16a47afe9c948,610364a4e4ff10b76e5a45c7,2021-07-29_20h33.48.381,Simcolourproject_2stim_asymm_v5,2020.2.10,Win32,60,61025ae37ef11b136ea224fe,,,,,,,,,2307,35,66,1,0,0,response1disk,,7,5,7,1,0,0,rectangle,5,7,1,0,0,5,7,1,0,0,1,137,297,0,1,,,,,,,,
,,,,,,,,,,,,,FF,,,,,,,,0.5847,,,,,,,,,,,,,,,,,,,,,,610361398cc16a47afe9c948,610364a4e4ff10b76e5a45c7,2021-07-29_20h33.48.381,Simcolourproject_2stim_asymm_v5,2020.2.10,Win32,60,61025ae37ef11b136ea224fe,,,,,,,,,1577,72,-25,1,0,0,response3disk,,5,25,1,1,0,0,rectangle,25,1,1,0,0,25,1,1,0,0,1,138,298,68,1,,,,,,,,
,,,,,,,,,,,,,FF,,,,,,,,0.8821,,,,,,,,,,,,,,,,,,,,,,610361398cc16a47afe9c948,610364a4e4ff10b76e5a45c7,2021-07-29_20h33.48.381,Simcolourproject_2stim_asymm_v5,2020.2.10,Win32,60,61025ae37ef11b136ea224fe,,,,,,,,,543,-40,73,1,0,0,response7disk,,0,4,2,1,0,0,rectangle,4,2,1,0,0,4,2,1,0,0,1,139,299,156,1,,,,,,,,
,,,,,,,,,,,,,FF,,,,,,,,0.7343,,,,,,,,,,,,,,,,,,,,,,610361398cc16a47afe9c948,610364a4e4ff10b76e5a45c7,2021-07-29_20h33.48.381,Simcolourproject_2stim_asymm_v5,2020.2.10,Win32,60,61025ae37ef11b136ea224fe,,,,,,,,,1674,-17,-69,1,0,0,response5disk,,3,-1,-2,1,0,0,rectangle,-1,-2,1,0,0,-1,-2,1,0,0,1,140,300,148,1,,,,,,,,
,,,,,,,,,,,,,FF,,,,,,,,0.6017,,,,,,,,,,,,,,,,,,,,,,610361398cc16a47afe9c948,610364a4e4ff10b76e5a45c7,2021-07-29_20h33.48.381,Simcolourproject_2stim_asymm_v5,2020.2.10,Win32,60,61025ae37ef11b136ea224fe,,,,,,,,,2537,24,-77,1,0,0,response3disk,,4,9,-15,1,0,0,rectangle,9,-15,1,0,0,9,-15,1,0,0,1,141,301,17,1,,,,,,,,
,,,,,,,,,,,,,FF,,,,,,,,0.4675,,,,,,,,,,,,,,,,,,,,,,610361398cc16a47afe9c948,610364a4e4ff10b76e5a45c7,2021-07-29_20h33.48.381,Simcolourproject_2stim_asymm_v5,2020.2.10,Win32,60,61025ae37ef11b136ea224fe,,,,,,,,,972,-24,-56,1,0,0,response5disk,,3,4,-4,1,0,0,rectangle,4,-4,1,0,0,4,-4,1,0,0,1,142,302,56,1,,,,,,,,
