key_resp.keys,key_resp.rt,key_resp_14.keys,key_resp_14.rt,key_resp_15.keys,key_resp_15.rt,key_resp_17.keys,key_resp_17.rt,key_resp_9.keys,key_resp_9.rt,key_resp_10.keys,key_resp_10.rt,practice_comparison,Ecc,mouse_5.x,mouse_5.y,mouse_5.leftButton,mouse_5.midButton,mouse_5.rightButton,mouse_5.clicked_name,pracsimilarity,response_time,mouse_10.x,mouse_10.y,mouse_10.leftButton,mouse_10.midButton,mouse_10.rightButton,mouse_10.clicked_name,mouse_7.x,mouse_7.y,mouse_7.leftButton,mouse_7.midButton,mouse_7.rightButton,mouse_6.x,mouse_6.y,mouse_6.leftButton,mouse_6.midButton,mouse_6.rightButton,duringprac.thisRepN,duringprac.thisTrialN,duringprac.thisN,duringprac.thisIndex,duringprac.ran,participant,session,date,expName,psychopyVersion,OS,frameRate,study_id,mouse_7.clicked_name,catchpracsimilarity,catch_response_time,catchnumberprac,catchtrialorderprac,mouse_6.clicked_name,key_resp_22.keys,key_resp_22.rt,realcomparison,mouse.x,mouse.y,mouse.leftButton,mouse.midButton,mouse.rightButton,mouse.clicked_name,Colour2,similarity,mouse_2.x,mouse_2.y,mouse_2.leftButton,mouse_2.midButton,mouse_2.rightButton,mouse_2.clicked_name,mouse_3.x,mouse_3.y,mouse_3.leftButton,mouse_3.midButton,mouse_3.rightButton,mouse_11.x,mouse_11.y,mouse_11.leftButton,mouse_11.midButton,mouse_11.rightButton,trials_2.thisRepN,trials_2.thisTrialN,trials_2.thisN,trials_2.thisIndex,trials_2.ran,Colour1,mouse_3.clicked_name,catchornah,catchsimilarity,catchnumber,catchtrialorder,catchRT,mouse_11.clicked_name
space,1.4801,space,14.5061,space,10.3094,space,9.1169,space,1.4967,space,4.3319,18,PF,-41.75146484,-85.54251099,1,0,0,response5disk_5,3,5.0051,-7.581726074,-3.228820801,1,0,0,rectangle_8,-7.581726074,-3.228820801,1,0,0,-7.581726074,-3.228820801,1,0,0,0,0,0,1,1,61035476b946ec7981de1dae,610369fd825c5dfea8a60333,2021-07-29_21h55.23.462,Simcolourproject_2stim_asymm_v5,2020.2.10,MacIntel,60,61025ae37ef11b136ea224fe,,,,,,,,,,,,,,,,,,,,,,,,,,,,,,,,,,,,,,,,,,,,,,
,,,,,,,,,,,,1,FF,39.11981201,80.67541504,1,0,0,response1disk_5,7,4.5848,7.539123535,7.049072266,1,0,0,rectangle_8,77.70910645,44.62060547,1,0,0,-6.108642578,-10.25512695,1,0,0,0,1,1,3,1,61035476b946ec7981de1dae,610369fd825c5dfea8a60333,2021-07-29_21h55.23.462,Simcolourproject_2stim_asymm_v5,2020.2.10,MacIntel,60,61025ae37ef11b136ea224fe,response1disk_7,6,4.1549,6,"[2,5]",rectangle_4,,,,,,,,,,,,,,,,,,,,,,,,,,,,,,,,,,,,,,,,
,,,,,,,,,,,,128,PF,-27.99346924,-85.31442261,1,0,0,response5disk_5,3,3.7045,-7.726623535,2.873138428,1,0,0,rectangle_8,-7.726623535,2.873138428,1,0,0,-7.726623535,2.873138428,1,0,0,0,2,2,4,1,61035476b946ec7981de1dae,610369fd825c5dfea8a60333,2021-07-29_21h55.23.462,Simcolourproject_2stim_asymm_v5,2020.2.10,MacIntel,60,61025ae37ef11b136ea224fe,,,,,,,,,,,,,,,,,,,,,,,,,,,,,,,,,,,,,,,,,,,,,,
,,,,,,,,,,,,28,PF,-49.18389893,-34.2220459,1,0,0,response5disk_5,2,2.101,-6.445129395,-5.278381348,1,0,0,rectangle_8,-6.445129395,-5.278381348,1,0,0,-6.445129395,-5.278381348,1,0,0,0,3,3,2,1,61035476b946ec7981de1dae,610369fd825c5dfea8a60333,2021-07-29_21h55.23.462,Simcolourproject_2stim_asymm_v5,2020.2.10,MacIntel,60,61025ae37ef11b136ea224fe,,,,,,,,,,,,,,,,,,,,,,,,,,,,,,,,,,,,,,,,,,,,,,
,,,,,,,,,,,,113,FF,82.652771,19.59979248,1,0,0,response1disk_5,6,4.5358,19.39892578,-1.043273926,1,0,0,rectangle_8,63.88793945,28.79223633,1,0,0,3.158996582,-3.380432129,1,0,0,0,4,4,5,1,61035476b946ec7981de1dae,610369fd825c5dfea8a60333,2021-07-29_21h55.23.462,Simcolourproject_2stim_asymm_v5,2020.2.10,MacIntel,60,61025ae37ef11b136ea224fe,response1disk_7,6,1.4003,6,"[2,5]",rectangle_4,,,,,,,,,,,,,,,,,,,,,,,,,,,,,,,,,,,,,,,,
,,,,,,,,,,,,116,PF,35.36468506,64.25506592,1,0,0,response1disk_5,7,1.8846,16.89874268,2.197143555,1,0,0,rectangle_8,16.89874268,2.197143555,1,0,0,16.89874268,2.197143555,1,0,0,0,5,5,6,1,61035476b946ec7981de1dae,610369fd825c5dfea8a60333,2021-07-29_21h55.23.462,Simcolourproject_2stim_asymm_v5,2020.2.10,MacIntel,60,61025ae37ef11b136ea224fe,,,,,,,,,,,,,,,,,,,,,,,,,,,,,,,,,,,,,,,,,,,,,,
,,,,,,,,,,,,33,FF,74.18804932,-51.76306152,1,0,0,response3disk_5,5,2.1842,15.10046387,-7.191070557,1,0,0,rectangle_8,15.10046387,-7.191070557,1,0,0,15.10046387,-7.191070557,1,0,0,0,6,6,0,1,61035476b946ec7981de1dae,610369fd825c5dfea8a60333,2021-07-29_21h55.23.462,Simcolourproject_2stim_asymm_v5,2020.2.10,MacIntel,60,61025ae37ef11b136ea224fe,,,,,,,,,,,,,,,,,,,,,,,,,,,,,,,,,,,,,,,,,,,,,,
,,,,,,,,,,,,,FF,,,,,,,,3.9017,,,,,,,,,,,,,,,,,,,,,,61035476b946ec7981de1dae,610369fd825c5dfea8a60333,2021-07-29_21h55.23.462,Simcolourproject_2stim_asymm_v5,2020.2.10,MacIntel,60,61025ae37ef11b136ea224fe,,,,,,,space,3.7695,1542,63.67687988,-31.83587646,1,0,0,response3disk,,5,5.966125488,4.093811035,1,0,0,rectangle,5.966125488,4.093811035,1,0,0,5.966125488,4.093811035,1,0,0,0,0,0,31,1,,,,,,,,
,,,,,,,,,,,,,FF,,,,,,,,1.1424,,,,,,,,,,,,,,,,,,,,,,61035476b946ec7981de1dae,610369fd825c5dfea8a60333,2021-07-29_21h55.23.462,Simcolourproject_2stim_asymm_v5,2020.2.10,MacIntel,60,61025ae37ef11b136ea224fe,,,,,,,,,2119,69.90863037,32.7822876,1,0,0,response1disk,,6,23.07513428,0.142181396,1,0,0,rectangle,23.07513428,0.142181396,1,0,0,23.07513428,0.142181396,1,0,0,0,1,1,74,1,,,,,,,,
,,,,,,,,,,,,,FF,,,,,,,,1.3334,,,,,,,,,,,,,,,,,,,,,,61035476b946ec7981de1dae,610369fd825c5dfea8a60333,2021-07-29_21h55.23.462,Simcolourproject_2stim_asymm_v5,2020.2.10,MacIntel,60,61025ae37ef11b136ea224fe,,,,,,,,,3919,35.05407715,-67.09072876,1,0,0,response3disk,,4,-0.474487305,-7.441467285,1,0,0,rectangle,-0.474487305,-7.441467285,1,0,0,-0.474487305,-7.441467285,1,0,0,0,2,2,109,1,,,,,,,,
,,,,,,,,,,,,,FF,,,,,,,,1.365,,,,,,,,,,,,,,,,,,,,,,61035476b946ec7981de1dae,610369fd825c5dfea8a60333,2021-07-29_21h55.23.462,Simcolourproject_2stim_asymm_v5,2020.2.10,MacIntel,60,61025ae37ef11b136ea224fe,,,,,,,,,1099,33.49017334,68.91638184,1,0,0,response1disk,,7,18.05224609,-1.136810303,1,0,0,rectangle,18.05224609,-1.136810303,1,0,0,18.05224609,-1.136810303,1,0,0,0,3,3,84,1,,,,,,,,
,,,,,,,,,,,,,FF,,,,,,,,1.217,,,,,,,,,,,,,,,,,,,,,,61035476b946ec7981de1dae,610369fd825c5dfea8a60333,2021-07-29_21h55.23.462,Simcolourproject_2stim_asymm_v5,2020.2.10,MacIntel,60,61025ae37ef11b136ea224fe,,,,,,,,,722,-73.58288574,-47.72619629,1,0,0,response5disk,,2,-13.30023193,2.660827637,1,0,0,rectangle,-13.30023193,2.660827637,1,0,0,-13.30023193,2.660827637,1,0,0,0,4,4,37,1,,,,,,,,
,,,,,,,,,,,,,FF,,,,,,,,1.535,,,,,,,,,,,,,,,,,,,,,,61035476b946ec7981de1dae,610369fd825c5dfea8a60333,2021-07-29_21h55.23.462,Simcolourproject_2stim_asymm_v5,2020.2.10,MacIntel,60,61025ae37ef11b136ea224fe,,,,,,,,,1581,37.00579834,-57.24615479,1,0,0,response3disk,,4,6.586181641,-4.015716553,1,0,0,rectangle,6.586181641,-4.015716553,1,0,0,6.586181641,-4.015716553,1,0,0,0,5,5,42,1,,,,,,,,
,,,,,,,,,,,,,FF,,,,,,,,1.0013,,,,,,,,,,,,,,,,,,,,,,61035476b946ec7981de1dae,610369fd825c5dfea8a60333,2021-07-29_21h55.23.462,Simcolourproject_2stim_asymm_v5,2020.2.10,MacIntel,60,61025ae37ef11b136ea224fe,,,,,,,,,2824,-53.89001465,-34.74438477,1,0,0,response5disk,,2,-4.774230957,-1.950378418,1,0,0,rectangle,-4.774230957,-1.950378418,1,0,0,-4.774230957,-1.950378418,1,0,0,0,6,6,112,1,,,,,,,,
,,,,,,,,,,,,,FF,,,,,,,,0.8843,,,,,,,,,,,,,,,,,,,,,,61035476b946ec7981de1dae,610369fd825c5dfea8a60333,2021-07-29_21h55.23.462,Simcolourproject_2stim_asymm_v5,2020.2.10,MacIntel,60,61025ae37ef11b136ea224fe,,,,,,,,,1563,63.59033203,34.95031738,1,0,0,response1disk,,6,14.86968994,3.561431885,1,0,0,rectangle,14.86968994,3.561431885,1,0,0,14.86968994,3.561431885,1,0,0,0,7,7,95,1,,,,,,,,
,,,,,,,,,,,,,FF,,,,,,,,5.2027,,,,,,,,,,,,,,,,,,,,,,61035476b946ec7981de1dae,610369fd825c5dfea8a60333,2021-07-29_21h55.23.462,Simcolourproject_2stim_asymm_v5,2020.2.10,MacIntel,60,61025ae37ef11b136ea224fe,,,,,,,,,2848,36.34533691,30.04187012,1,0,0,response1disk,,6,9.280029297,-2.939575195,1,0,0,rectangle,9.280029297,-2.939575195,1,0,0,9.280029297,-2.939575195,1,0,0,0,8,8,30,1,,,,,,,,
,,,,,,,,,,,,,FF,,,,,,,,3.7726,,,,,,,,,,,,,,,,,,,,,,61035476b946ec7981de1dae,610369fd825c5dfea8a60333,2021-07-29_21h55.23.462,Simcolourproject_2stim_asymm_v5,2020.2.10,MacIntel,60,61025ae37ef11b136ea224fe,,,,,,,,,205,65.48474121,27.37680054,1,0,0,response1disk,,6,18.24420166,6.668029785,1,0,0,rectangle,18.24420166,6.668029785,1,0,0,18.24420166,6.668029785,1,0,0,0,9,9,57,1,,,,,,,,
,,,,,,,,,,,,,FF,,,,,,,,1.5505,,,,,,,,,,,,,,,,,,,,,,61035476b946ec7981de1dae,610369fd825c5dfea8a60333,2021-07-29_21h55.23.462,Simcolourproject_2stim_asymm_v5,2020.2.10,MacIntel,60,61025ae37ef11b136ea224fe,,,,,,,,,738,61.87805176,-34.16445923,1,0,0,response3disk,,5,-1.745361328,-5.677368164,1,0,0,rectangle,-1.745361328,-5.677368164,1,0,0,-1.745361328,-5.677368164,1,0,0,0,10,10,125,1,,,,,,,,
,,,,,,,,,,,,,FF,,,,,,,,1.3486,,,,,,,,,,,,,,,,,,,,,,61035476b946ec7981de1dae,610369fd825c5dfea8a60333,2021-07-29_21h55.23.462,Simcolourproject_2stim_asymm_v5,2020.2.10,MacIntel,60,61025ae37ef11b136ea224fe,,,,,,,,,198,53.9921875,-79.83670044,1,0,0,response3disk,,4,14.34362793,-10.8336792,1,0,0,rectangle,14.34362793,-10.8336792,1,0,0,14.34362793,-10.8336792,1,0,0,0,11,11,150,1,,,,,,,,
,,,,,,,,,,,,,FF,,,,,,,,1.7001,,,,,,,,,,,,,,,,,,,,,,61035476b946ec7981de1dae,610369fd825c5dfea8a60333,2021-07-29_21h55.23.462,Simcolourproject_2stim_asymm_v5,2020.2.10,MacIntel,60,61025ae37ef11b136ea224fe,,,,,,,,,102,-22.32653809,-64.92300415,1,0,0,response5disk,,3,-3.452880859,-11.8732605,1,0,0,rectangle,-3.452880859,-11.8732605,1,0,0,-3.452880859,-11.8732605,1,0,0,0,12,12,151,1,,,,,,,,
,,,,,,,,,,,,,FF,,,,,,,,1.0167,,,,,,,,,,,,,,,,,,,,,,61035476b946ec7981de1dae,610369fd825c5dfea8a60333,2021-07-29_21h55.23.462,Simcolourproject_2stim_asymm_v5,2020.2.10,MacIntel,60,61025ae37ef11b136ea224fe,,,,,,,,,561,51.42034912,24.86843872,1,0,0,response1disk,,6,14.30859375,-10.93182373,1,0,0,rectangle,14.30859375,-10.93182373,1,0,0,14.30859375,-10.93182373,1,0,0,0,13,13,1,1,,,,,,,,
,,,,,,,,,,,,,FF,,,,,,,,0.8341,,,,,,,,,,,,,,,,,,,,,,61035476b946ec7981de1dae,610369fd825c5dfea8a60333,2021-07-29_21h55.23.462,Simcolourproject_2stim_asymm_v5,2020.2.10,MacIntel,60,61025ae37ef11b136ea224fe,,,,,,,,,3281,29.03979492,53.18115234,1,0,0,response1disk,,7,18.13214111,9.899169922,1,0,0,rectangle,18.13214111,9.899169922,1,0,0,18.13214111,9.899169922,1,0,0,0,14,14,116,1,,,,,,,,
,,,,,,,,,,,,,FF,,,,,,,,1.4012,,,,,,,,,,,,,,,,,,,,,,61035476b946ec7981de1dae,610369fd825c5dfea8a60333,2021-07-29_21h55.23.462,Simcolourproject_2stim_asymm_v5,2020.2.10,MacIntel,60,61025ae37ef11b136ea224fe,,,,,,,,,721,-27.5369873,-53.11526489,1,0,0,response5disk,,3,-11.04003906,-12.6468811,1,0,0,rectangle,-11.04003906,-12.6468811,1,0,0,-11.04003906,-12.6468811,1,0,0,0,15,15,75,1,,,,,,,,
,,,,,,,,,,,,,FF,,,,,,,,2.0685,,,,,,,,,,,,,,,,,,,,,,61035476b946ec7981de1dae,610369fd825c5dfea8a60333,2021-07-29_21h55.23.462,Simcolourproject_2stim_asymm_v5,2020.2.10,MacIntel,60,61025ae37ef11b136ea224fe,,,,,,,,,4247,89.2767334,-26.91699219,1,0,0,response3disk,,5,22.09423828,7.858642578,1,0,0,rectangle,22.09423828,7.858642578,1,0,0,22.09423828,7.858642578,1,0,0,0,16,16,146,1,,,,,,,,
,,,,,,,,,,,,,FF,,,,,,,,1.284,,,,,,,,,,,,,,,,,,,,,,61035476b946ec7981de1dae,610369fd825c5dfea8a60333,2021-07-29_21h55.23.462,Simcolourproject_2stim_asymm_v5,2020.2.10,MacIntel,60,61025ae37ef11b136ea224fe,,,,,,,,,21,23.1685791,-53.73028564,1,0,0,response3disk,,4,3.995483398,-9.168701172,1,0,0,rectangle,3.995483398,-9.168701172,1,0,0,3.995483398,-9.168701172,1,0,0,0,17,17,154,1,,,,,,,,
,,,,,,,,,,,,,FF,,,,,,,,1.2837,,,,,,,,,,,,,,,,,,,,,,61035476b946ec7981de1dae,610369fd825c5dfea8a60333,2021-07-29_21h55.23.462,Simcolourproject_2stim_asymm_v5,2020.2.10,MacIntel,60,61025ae37ef11b136ea224fe,,,,,,,,,169,-60.2399292,-47.84130859,1,0,0,response5disk,,2,-6.477539063,-7.848754883,1,0,0,rectangle,-6.477539063,-7.848754883,1,0,0,-6.477539063,-7.848754883,1,0,0,0,18,18,20,1,,,,,,,,
,,,,,,,,,,,,,FF,,,,,,,,1.5016,,,,,,,,,,,,,,,,,,,,,,61035476b946ec7981de1dae,610369fd825c5dfea8a60333,2021-07-29_21h55.23.462,Simcolourproject_2stim_asymm_v5,2020.2.10,MacIntel,60,61025ae37ef11b136ea224fe,,,,,,,,,4250,-65.75238037,-31.79177856,1,0,0,response5disk,,2,-1.295043945,-3.209289551,1,0,0,rectangle,-1.295043945,-3.209289551,1,0,0,-1.295043945,-3.209289551,1,0,0,0,19,19,85,1,,,,,,,,
,,,,,,,,,,,,,FF,,,,,,,,0.8811,,,,,,,,,,,,,,,,,,,,,,61035476b946ec7981de1dae,610369fd825c5dfea8a60333,2021-07-29_21h55.23.462,Simcolourproject_2stim_asymm_v5,2020.2.10,MacIntel,60,61025ae37ef11b136ea224fe,,,,,,,,,2335,67.52050781,29.33743286,1,0,0,response1disk,,6,8.384338379,-0.563964844,1,0,0,rectangle,8.384338379,-0.563964844,1,0,0,8.384338379,-0.563964844,1,0,0,0,20,20,142,1,,,,,,,,
,,,,,,,,,,,,,FF,,,,,,,,0.8858,,,,,,,,,,,,,,,,,,,,,,61035476b946ec7981de1dae,610369fd825c5dfea8a60333,2021-07-29_21h55.23.462,Simcolourproject_2stim_asymm_v5,2020.2.10,MacIntel,60,61025ae37ef11b136ea224fe,,,,,,,,,3353,27.07299805,60.32122803,1,0,0,response1disk,,7,13.79003906,4.43182373,1,0,0,rectangle,13.79003906,4.43182373,1,0,0,13.79003906,4.43182373,1,0,0,0,21,21,70,1,,,,,,,,
,,,,,,,,,,,,,FF,,,,,,,,0.7682,,,,,,,,,,,,,,,,,,,,,,61035476b946ec7981de1dae,610369fd825c5dfea8a60333,2021-07-29_21h55.23.462,Simcolourproject_2stim_asymm_v5,2020.2.10,MacIntel,60,61025ae37ef11b136ea224fe,,,,,,,,,2911,28.96765137,59.90240479,1,0,0,response1disk,,7,19.20532227,-11.04055786,1,0,0,rectangle,19.20532227,-11.04055786,1,0,0,19.20532227,-11.04055786,1,0,0,0,22,22,40,1,,,,,,,,
,,,,,,,,,,,,,FF,,,,,,,,1.3009,,,,,,,,,,,,,,,,,,,,,,61035476b946ec7981de1dae,610369fd825c5dfea8a60333,2021-07-29_21h55.23.462,Simcolourproject_2stim_asymm_v5,2020.2.10,MacIntel,60,61025ae37ef11b136ea224fe,,,,,,,,,770,61.69262695,31.39282227,1,0,0,response1disk,,6,24.28912354,-6.145080566,1,0,0,rectangle,24.28912354,-6.145080566,1,0,0,24.28912354,-6.145080566,1,0,0,0,23,23,76,1,,,,,,,,
,,,,,,,,,,,,,FF,,,,,,,,1.2173,,,,,,,,,,,,,,,,,,,,,,61035476b946ec7981de1dae,610369fd825c5dfea8a60333,2021-07-29_21h55.23.462,Simcolourproject_2stim_asymm_v5,2020.2.10,MacIntel,60,61025ae37ef11b136ea224fe,,,,,,,,,3754,65.00708008,-29.84283447,1,0,0,response3disk,,5,7.271606445,-9.502227783,1,0,0,rectangle,7.271606445,-9.502227783,1,0,0,7.271606445,-9.502227783,1,0,0,0,24,24,129,1,,,,,,,,
,,,,,,,,,,,,,FF,,,,,,,,1.0999,,,,,,,,,,,,,,,,,,,,,,61035476b946ec7981de1dae,610369fd825c5dfea8a60333,2021-07-29_21h55.23.462,Simcolourproject_2stim_asymm_v5,2020.2.10,MacIntel,60,61025ae37ef11b136ea224fe,,,,,,,,,2677,-44.97155762,-53.87728882,1,0,0,response5disk,,3,-6.281433105,-1.186340332,1,0,0,rectangle,-6.281433105,-1.186340332,1,0,0,-6.281433105,-1.186340332,1,0,0,0,25,25,56,1,,,,,,,,
,,,,,,,,,,,,,FF,,,,,,,,1.2854,,,,,,,,,,,,,,,,,,,,,,61035476b946ec7981de1dae,610369fd825c5dfea8a60333,2021-07-29_21h55.23.462,Simcolourproject_2stim_asymm_v5,2020.2.10,MacIntel,60,61025ae37ef11b136ea224fe,,,,,,,,,3669,-50.1807251,26.63897705,1,0,0,response7disk,,1,-4.09954834,1.403503418,1,0,0,rectangle,-4.09954834,1.403503418,1,0,0,-4.09954834,1.403503418,1,0,0,0,26,26,130,1,,,,,,,,
,,,,,,,,,,,,,FF,,,,,,,,4.0828,,,,,,,,,,,,,,,,,,,,,,61035476b946ec7981de1dae,610369fd825c5dfea8a60333,2021-07-29_21h55.23.462,Simcolourproject_2stim_asymm_v5,2020.2.10,MacIntel,60,61025ae37ef11b136ea224fe,,,,,,,,,3639,67.57867432,-45.31274414,1,0,0,response3disk,,5,-2.930480957,-2.352111816,1,0,0,rectangle,-2.930480957,-2.352111816,1,0,0,-2.930480957,-2.352111816,1,0,0,0,27,27,89,1,,,,,,,,
,,,,,,,,,,,,,FF,,,,,,,,0.8336,,,,,,,,,,,,,,,,,,,,,,61035476b946ec7981de1dae,610369fd825c5dfea8a60333,2021-07-29_21h55.23.462,Simcolourproject_2stim_asymm_v5,2020.2.10,MacIntel,60,61025ae37ef11b136ea224fe,,,,,,,,,4121,-61.99865723,-29.48840332,1,0,0,response5disk,,2,0.712768555,-1.486236572,1,0,0,rectangle,0.712768555,-1.486236572,1,0,0,0.712768555,-1.486236572,1,0,0,0,28,28,4,1,,,,,,,,
,,,,,,,,,,,,,FF,,,,,,,,1.7681,,,,,,,,,,,,,,,,,,,,,,61035476b946ec7981de1dae,610369fd825c5dfea8a60333,2021-07-29_21h55.23.462,Simcolourproject_2stim_asymm_v5,2020.2.10,MacIntel,60,61025ae37ef11b136ea224fe,,,,,,,,,701,-65.69158936,-28.70309448,1,0,0,response5disk,,2,1.559448242,-5.94732666,1,0,0,rectangle,1.559448242,-5.94732666,1,0,0,1.559448242,-5.94732666,1,0,0,0,29,29,63,1,,,,,,,,
,,,,,,,,,,,,,FF,,,,,,,,1.2839,,,,,,,,,,,,,,,,,,,,,,61035476b946ec7981de1dae,610369fd825c5dfea8a60333,2021-07-29_21h55.23.462,Simcolourproject_2stim_asymm_v5,2020.2.10,MacIntel,60,61025ae37ef11b136ea224fe,,,,,,,,,1322,74.96459961,-29.78485107,1,0,0,response3disk,,5,23.71624756,1.586791992,1,0,0,rectangle,23.71624756,1.586791992,1,0,0,23.71624756,1.586791992,1,0,0,0,30,30,124,1,,,,,,,,
,,,,,,,,,,,,,FF,,,,,,,,1.1675,,,,,,,,,,,,,,,,,,,,,,61035476b946ec7981de1dae,610369fd825c5dfea8a60333,2021-07-29_21h55.23.462,Simcolourproject_2stim_asymm_v5,2020.2.10,MacIntel,60,61025ae37ef11b136ea224fe,,,,,,,,,620,-52.37182617,27.24371338,1,0,0,response7disk,,1,0.08795166,4.00793457,1,0,0,rectangle,0.08795166,4.00793457,1,0,0,0.08795166,4.00793457,1,0,0,0,31,31,83,1,,,,,,,,
,,,,,,,,,,,,,FF,,,,,,,,1.1161,,,,,,,,,,,,,,,,,,,,,,61035476b946ec7981de1dae,610369fd825c5dfea8a60333,2021-07-29_21h55.23.462,Simcolourproject_2stim_asymm_v5,2020.2.10,MacIntel,60,61025ae37ef11b136ea224fe,,,,,,,,,1984,25.1105957,56.90298462,1,0,0,response1disk,,7,12.79284668,2.97869873,1,0,0,rectangle,12.79284668,2.97869873,1,0,0,12.79284668,2.97869873,1,0,0,0,32,32,152,1,,,,,,,,
,,,,,,,,,,,,,FF,,,,,,,,1.634,,,,,,,,,,,,,,,,,,,,,,61035476b946ec7981de1dae,610369fd825c5dfea8a60333,2021-07-29_21h55.23.462,Simcolourproject_2stim_asymm_v5,2020.2.10,MacIntel,60,61025ae37ef11b136ea224fe,,,,,,,,,250,-23.90942383,-86.73193359,1,0,0,response5disk,,3,2.835571289,0.915466309,1,0,0,rectangle,2.835571289,0.915466309,1,0,0,2.835571289,0.915466309,1,0,0,0,33,33,46,1,,,,,,,,
,,,,,,,,,,,,,FF,,,,,,,,1.6508,,,,,,,,,,,,,,,,,,,,,,61035476b946ec7981de1dae,610369fd825c5dfea8a60333,2021-07-29_21h55.23.462,Simcolourproject_2stim_asymm_v5,2020.2.10,MacIntel,60,61025ae37ef11b136ea224fe,,,,,,,,,3636,-35.21325684,-62.46160889,1,0,0,response5disk,,3,2.012939453,-12.07104492,1,0,0,rectangle,2.012939453,-12.07104492,1,0,0,2.012939453,-12.07104492,1,0,0,0,34,34,149,1,,,,,,,,
,,,,,,,,,,,,,FF,,,,,,,,0.817,,,,,,,,,,,,,,,,,,,,,,61035476b946ec7981de1dae,610369fd825c5dfea8a60333,2021-07-29_21h55.23.462,Simcolourproject_2stim_asymm_v5,2020.2.10,MacIntel,60,61025ae37ef11b136ea224fe,,,,,,,,,3064,-30.70874023,-57.56149292,1,0,0,response5disk,,3,-6.481872559,-6.127563477,1,0,0,rectangle,-6.481872559,-6.127563477,1,0,0,-6.481872559,-6.127563477,1,0,0,0,35,35,88,1,,,,,,,,
,,,,,,,,,,,,,FF,,,,,,,,1.2163,,,,,,,,,,,,,,,,,,,,,,61035476b946ec7981de1dae,610369fd825c5dfea8a60333,2021-07-29_21h55.23.462,Simcolourproject_2stim_asymm_v5,2020.2.10,MacIntel,60,61025ae37ef11b136ea224fe,,,,,,,,,3982,82.58209229,-46.29013062,1,0,0,response3disk,,5,31.35778809,-2.053649902,1,0,0,rectangle,31.35778809,-2.053649902,1,0,0,31.35778809,-2.053649902,1,0,0,0,36,36,147,1,,,,,,,,
,,,,,,,,,,,,,FF,,,,,,,,2.9507,,,,,,,,,,,,,,,,,,,,,,61035476b946ec7981de1dae,610369fd825c5dfea8a60333,2021-07-29_21h55.23.462,Simcolourproject_2stim_asymm_v5,2020.2.10,MacIntel,60,61025ae37ef11b136ea224fe,,,,,,,,,1911,56.40667725,35.25311279,1,0,0,response1disk,,6,-6.697143555,3.925109863,1,0,0,rectangle,-6.697143555,3.925109863,1,0,0,-6.697143555,3.925109863,1,0,0,0,37,37,93,1,,,,,,,,
,,,,,,,,,,,,,FF,,,,,,,,2.5918,,,,,,,,,,,,,,,,,,,,,,61035476b946ec7981de1dae,610369fd825c5dfea8a60333,2021-07-29_21h55.23.462,Simcolourproject_2stim_asymm_v5,2020.2.10,MacIntel,60,61025ae37ef11b136ea224fe,,,,,,,,,238,78.02746582,39.72650146,1,0,0,response1disk,,6,10.71252441,6.583129883,1,0,0,rectangle,10.71252441,6.583129883,1,0,0,10.71252441,6.583129883,1,0,0,0,38,38,82,1,,,,,,,,
,,,,,,,,,,,,,FF,,,,,,,,0.7335,,,,,,,,,,,,,,,,,,,,,,61035476b946ec7981de1dae,610369fd825c5dfea8a60333,2021-07-29_21h55.23.462,Simcolourproject_2stim_asymm_v5,2020.2.10,MacIntel,60,61025ae37ef11b136ea224fe,,,,,,,,,2393,76.55316162,18.87115479,1,0,0,response1disk,,6,9.960083008,-3.095825195,1,0,0,rectangle,9.960083008,-3.095825195,1,0,0,9.960083008,-3.095825195,1,0,0,0,39,39,71,1,,,,,,,,
,,,,,,,,,,,,,FF,,,,,,,,1.0509,,,,,,,,,,,,,,,,,,,,,,61035476b946ec7981de1dae,610369fd825c5dfea8a60333,2021-07-29_21h55.23.462,Simcolourproject_2stim_asymm_v5,2020.2.10,MacIntel,60,61025ae37ef11b136ea224fe,,,,,,,,,3518,-42.27459717,-72.80062866,1,0,0,response5disk,,3,-7.746276855,-7.990539551,1,0,0,rectangle,-7.746276855,-7.990539551,1,0,0,-7.746276855,-7.990539551,1,0,0,0,40,40,43,1,,,,,,,,
,,,,,,,,,,,,,FF,,,,,,,,0.7981,,,,,,,,,,,,,,,,,,,,,,61035476b946ec7981de1dae,610369fd825c5dfea8a60333,2021-07-29_21h55.23.462,Simcolourproject_2stim_asymm_v5,2020.2.10,MacIntel,60,61025ae37ef11b136ea224fe,,,,,,,,,4048,-40.37976074,-67.06097412,1,0,0,response5disk,,3,-6.41607666,-1.153381348,1,0,0,rectangle,-6.41607666,-1.153381348,1,0,0,-6.41607666,-1.153381348,1,0,0,0,41,41,2,1,,,,,,,,
,,,,,,,,,,,,,FF,,,,,,,,0.7164,,,,,,,,,,,,,,,,,,,,,,61035476b946ec7981de1dae,610369fd825c5dfea8a60333,2021-07-29_21h55.23.462,Simcolourproject_2stim_asymm_v5,2020.2.10,MacIntel,60,61025ae37ef11b136ea224fe,,,,,,,,,3938,-82.02453613,-34.82366943,1,0,0,response5disk,,2,-9.946472168,-0.629577637,1,0,0,rectangle,46.34655762,-78.00170898,1,0,0,-8.27331543,-5.546203613,1,0,0,0,42,42,73,1,,response3disk_3,TRUE,4,4,"[243,171,69,188,181,193,43,43,78,62,183,50,195,66,135,47,138,130,228,180]",2.151,rectangle
,,,,,,,,,,,,,FF,,,,,,,,1.1192,,,,,,,,,,,,,,,,,,,,,,61035476b946ec7981de1dae,610369fd825c5dfea8a60333,2021-07-29_21h55.23.462,Simcolourproject_2stim_asymm_v5,2020.2.10,MacIntel,60,61025ae37ef11b136ea224fe,,,,,,,,,2059,59.44342041,17.46533203,1,0,0,response1disk,,6,9.748168945,-3.214782715,1,0,0,rectangle,9.748168945,-3.214782715,1,0,0,9.748168945,-3.214782715,1,0,0,0,43,43,9,1,,,,,,,,
,,,,,,,,,,,,,FF,,,,,,,,0.7771,,,,,,,,,,,,,,,,,,,,,,61035476b946ec7981de1dae,610369fd825c5dfea8a60333,2021-07-29_21h55.23.462,Simcolourproject_2stim_asymm_v5,2020.2.10,MacIntel,60,61025ae37ef11b136ea224fe,,,,,,,,,527,-62.08056641,-31.13583374,1,0,0,response5disk,,2,1.624328613,11.73693848,1,0,0,rectangle,1.624328613,11.73693848,1,0,0,1.624328613,11.73693848,1,0,0,0,44,44,106,1,,,,,,,,
,,,,,,,,,,,,,FF,,,,,,,,0.9291,,,,,,,,,,,,,,,,,,,,,,61035476b946ec7981de1dae,610369fd825c5dfea8a60333,2021-07-29_21h55.23.462,Simcolourproject_2stim_asymm_v5,2020.2.10,MacIntel,60,61025ae37ef11b136ea224fe,,,,,,,,,4309,42.49401855,72.78826904,1,0,0,response1disk,,7,9.333862305,8.855163574,1,0,0,rectangle,9.333862305,8.855163574,1,0,0,9.333862305,8.855163574,1,0,0,0,45,45,22,1,,,,,,,,
,,,,,,,,,,,,,FF,,,,,,,,0.9342,,,,,,,,,,,,,,,,,,,,,,61035476b946ec7981de1dae,610369fd825c5dfea8a60333,2021-07-29_21h55.23.462,Simcolourproject_2stim_asymm_v5,2020.2.10,MacIntel,60,61025ae37ef11b136ea224fe,,,,,,,,,2172,-60.38189697,-43.34783936,1,0,0,response5disk,,2,-7.466491699,1.09487915,1,0,0,rectangle,76.20983887,-32.3760376,1,0,0,2.069580078,-0.829650879,1,0,0,0,46,46,29,1,,response3disk_3,TRUE,5,5,"[243,171,69,188,181,193,43,43,78,62,183,50,195,66,135,47,138,130,228,180]",1.767,rectangle
,,,,,,,,,,,,,FF,,,,,,,,0.85,,,,,,,,,,,,,,,,,,,,,,61035476b946ec7981de1dae,610369fd825c5dfea8a60333,2021-07-29_21h55.23.462,Simcolourproject_2stim_asymm_v5,2020.2.10,MacIntel,60,61025ae37ef11b136ea224fe,,,,,,,,,3032,31.25256348,67.04620361,1,0,0,response1disk,,7,20.51116943,3.526062012,1,0,0,rectangle,20.51116943,3.526062012,1,0,0,20.51116943,3.526062012,1,0,0,0,47,47,72,1,,,,,,,,
,,,,,,,,,,,,,FF,,,,,,,,0.8832,,,,,,,,,,,,,,,,,,,,,,61035476b946ec7981de1dae,610369fd825c5dfea8a60333,2021-07-29_21h55.23.462,Simcolourproject_2stim_asymm_v5,2020.2.10,MacIntel,60,61025ae37ef11b136ea224fe,,,,,,,,,2680,-41.30303955,-71.29455566,1,0,0,response5disk,,3,-17.70593262,-6.037841797,1,0,0,rectangle,-17.70593262,-6.037841797,1,0,0,-17.70593262,-6.037841797,1,0,0,0,48,48,38,1,,,,,,,,
,,,,,,,,,,,,,FF,,,,,,,,1.8838,,,,,,,,,,,,,,,,,,,,,,61035476b946ec7981de1dae,610369fd825c5dfea8a60333,2021-07-29_21h55.23.462,Simcolourproject_2stim_asymm_v5,2020.2.10,MacIntel,60,61025ae37ef11b136ea224fe,,,,,,,,,3710,-24.66333008,-47.15750122,1,0,0,response5disk,,3,-5.149291992,-7.034210205,1,0,0,rectangle,66.3572998,-33.128479,1,0,0,-10.65356445,1.413452148,1,0,0,0,49,49,52,1,,response3disk_3,TRUE,5,5,"[243,171,69,188,181,193,43,43,78,62,183,50,195,66,135,47,138,130,228,180]",1.6673,rectangle
,,,,,,,,,,,,,FF,,,,,,,,1.9506,,,,,,,,,,,,,,,,,,,,,,61035476b946ec7981de1dae,610369fd825c5dfea8a60333,2021-07-29_21h55.23.462,Simcolourproject_2stim_asymm_v5,2020.2.10,MacIntel,60,61025ae37ef11b136ea224fe,,,,,,,,,2309,68.32946777,-20.09234619,1,0,0,response3disk,,5,5.001220703,-2.007019043,1,0,0,rectangle,5.001220703,-2.007019043,1,0,0,5.001220703,-2.007019043,1,0,0,0,50,50,13,1,,,,,,,,
,,,,,,,,,,,,,FF,,,,,,,,0.7832,,,,,,,,,,,,,,,,,,,,,,61035476b946ec7981de1dae,610369fd825c5dfea8a60333,2021-07-29_21h55.23.462,Simcolourproject_2stim_asymm_v5,2020.2.10,MacIntel,60,61025ae37ef11b136ea224fe,,,,,,,,,1888,-66.04632568,-33.44171143,1,0,0,response5disk,,2,-9.115661621,-4.732208252,1,0,0,rectangle,-9.115661621,-4.732208252,1,0,0,-9.115661621,-4.732208252,1,0,0,0,51,51,114,1,,,,,,,,
,,,,,,,,,,,,,FF,,,,,,,,0.8994,,,,,,,,,,,,,,,,,,,,,,61035476b946ec7981de1dae,610369fd825c5dfea8a60333,2021-07-29_21h55.23.462,Simcolourproject_2stim_asymm_v5,2020.2.10,MacIntel,60,61025ae37ef11b136ea224fe,,,,,,,,,1243,49.02655029,-67.2333374,1,0,0,response3disk,,4,7.751098633,-8.17388916,1,0,0,rectangle,7.751098633,-8.17388916,1,0,0,7.751098633,-8.17388916,1,0,0,0,52,52,80,1,,,,,,,,
,,,,,,,,,,,,,FF,,,,,,,,0.6832,,,,,,,,,,,,,,,,,,,,,,61035476b946ec7981de1dae,610369fd825c5dfea8a60333,2021-07-29_21h55.23.462,Simcolourproject_2stim_asymm_v5,2020.2.10,MacIntel,60,61025ae37ef11b136ea224fe,,,,,,,,,1866,40.69354248,66.32873535,1,0,0,response1disk,,7,12.20556641,3.33215332,1,0,0,rectangle,12.20556641,3.33215332,1,0,0,12.20556641,3.33215332,1,0,0,0,53,53,132,1,,,,,,,,
,,,,,,,,,,,,,FF,,,,,,,,0.7988,,,,,,,,,,,,,,,,,,,,,,61035476b946ec7981de1dae,610369fd825c5dfea8a60333,2021-07-29_21h55.23.462,Simcolourproject_2stim_asymm_v5,2020.2.10,MacIntel,60,61025ae37ef11b136ea224fe,,,,,,,,,2462,25.17120361,54.61450195,1,0,0,response1disk,,7,5.581176758,-9.507751465,1,0,0,rectangle,5.581176758,-9.507751465,1,0,0,5.581176758,-9.507751465,1,0,0,0,54,54,21,1,,,,,,,,
,,,,,,,,,,,,,FF,,,,,,,,1.4449,,,,,,,,,,,,,,,,,,,,,,61035476b946ec7981de1dae,610369fd825c5dfea8a60333,2021-07-29_21h55.23.462,Simcolourproject_2stim_asymm_v5,2020.2.10,MacIntel,60,61025ae37ef11b136ea224fe,,,,,,,,,3235,-41.71447754,-66.21673584,1,0,0,response5disk,,3,-7.230712891,-2.042175293,1,0,0,rectangle,-7.230712891,-2.042175293,1,0,0,-7.230712891,-2.042175293,1,0,0,0,55,55,153,1,,,,,,,,
,,,,,,,,,,,,,FF,,,,,,,,0.6821,,,,,,,,,,,,,,,,,,,,,,61035476b946ec7981de1dae,610369fd825c5dfea8a60333,2021-07-29_21h55.23.462,Simcolourproject_2stim_asymm_v5,2020.2.10,MacIntel,60,61025ae37ef11b136ea224fe,,,,,,,,,367,-69.95373535,-32.29666138,1,0,0,response5disk,,2,-5.096984863,-5.244018555,1,0,0,rectangle,-5.096984863,-5.244018555,1,0,0,-5.096984863,-5.244018555,1,0,0,0,56,56,17,1,,,,,,,,
,,,,,,,,,,,,,FF,,,,,,,,2.4018,,,,,,,,,,,,,,,,,,,,,,61035476b946ec7981de1dae,610369fd825c5dfea8a60333,2021-07-29_21h55.23.462,Simcolourproject_2stim_asymm_v5,2020.2.10,MacIntel,60,61025ae37ef11b136ea224fe,,,,,,,,,2430,82.09124756,-30.16894531,1,0,0,response3disk,,5,8.495544434,-3.124206543,1,0,0,rectangle,8.495544434,-3.124206543,1,0,0,8.495544434,-3.124206543,1,0,0,0,57,57,111,1,,,,,,,,
,,,,,,,,,,,,,FF,,,,,,,,1.0206,,,,,,,,,,,,,,,,,,,,,,61035476b946ec7981de1dae,610369fd825c5dfea8a60333,2021-07-29_21h55.23.462,Simcolourproject_2stim_asymm_v5,2020.2.10,MacIntel,60,61025ae37ef11b136ea224fe,,,,,,,,,4226,71.15466309,-32.26184082,1,0,0,response3disk,,5,-1.8203125,-5.732055664,1,0,0,rectangle,-1.8203125,-5.732055664,1,0,0,-1.8203125,-5.732055664,1,0,0,0,58,58,39,1,,,,,,,,
,,,,,,,,,,,,,FF,,,,,,,,1.5027,,,,,,,,,,,,,,,,,,,,,,61035476b946ec7981de1dae,610369fd825c5dfea8a60333,2021-07-29_21h55.23.462,Simcolourproject_2stim_asymm_v5,2020.2.10,MacIntel,60,61025ae37ef11b136ea224fe,,,,,,,,,3142,-65.83111572,-35.12091064,1,0,0,response5disk,,2,-8.646972656,-14.33059692,1,0,0,rectangle,-8.646972656,-14.33059692,1,0,0,-8.646972656,-14.33059692,1,0,0,0,59,59,155,1,,,,,,,,
,,,,,,,,,,,,,FF,,,,,,,,1.8669,,,,,,,,,,,,,,,,,,,,,,61035476b946ec7981de1dae,610369fd825c5dfea8a60333,2021-07-29_21h55.23.462,Simcolourproject_2stim_asymm_v5,2020.2.10,MacIntel,60,61025ae37ef11b136ea224fe,,,,,,,,,3771,38.92175293,-72.3694458,1,0,0,response3disk,,4,12.67059326,-4.443664551,1,0,0,rectangle,12.67059326,-4.443664551,1,0,0,12.67059326,-4.443664551,1,0,0,0,60,60,94,1,,,,,,,,
,,,,,,,,,,,,,FF,,,,,,,,0.9166,,,,,,,,,,,,,,,,,,,,,,61035476b946ec7981de1dae,610369fd825c5dfea8a60333,2021-07-29_21h55.23.462,Simcolourproject_2stim_asymm_v5,2020.2.10,MacIntel,60,61025ae37ef11b136ea224fe,,,,,,,,,3818,-22.19506836,-57.65039063,1,0,0,response5disk,,3,2.969665527,-5.003265381,1,0,0,rectangle,-68.74786377,24.44390869,1,0,0,-6.331665039,-5.921630859,1,0,0,0,61,61,122,1,,response7disk_3,TRUE,1,1,"[243,171,69,188,181,193,43,43,78,62,183,50,195,66,135,47,138,130,228,180]",1.5513,rectangle
,,,,,,,,,,,,,FF,,,,,,,,4.9192,,,,,,,,,,,,,,,,,,,,,,61035476b946ec7981de1dae,610369fd825c5dfea8a60333,2021-07-29_21h55.23.462,Simcolourproject_2stim_asymm_v5,2020.2.10,MacIntel,60,61025ae37ef11b136ea224fe,,,,,,,,,1264,23.00244141,-55.1907959,1,0,0,response3disk,,4,-3.747253418,-11.32885742,1,0,0,rectangle,-3.747253418,-11.32885742,1,0,0,-3.747253418,-11.32885742,1,0,0,0,62,62,101,1,,,,,,,,
,,,,,,,,,,,,,FF,,,,,,,,1.0674,,,,,,,,,,,,,,,,,,,,,,61035476b946ec7981de1dae,610369fd825c5dfea8a60333,2021-07-29_21h55.23.462,Simcolourproject_2stim_asymm_v5,2020.2.10,MacIntel,60,61025ae37ef11b136ea224fe,,,,,,,,,3569,54.14013672,-28.06668091,1,0,0,response3disk,,5,11.52526855,2.801635742,1,0,0,rectangle,11.52526855,2.801635742,1,0,0,11.52526855,2.801635742,1,0,0,0,63,63,86,1,,,,,,,,
,,,,,,,,,,,,,FF,,,,,,,,0.8176,,,,,,,,,,,,,,,,,,,,,,61035476b946ec7981de1dae,610369fd825c5dfea8a60333,2021-07-29_21h55.23.462,Simcolourproject_2stim_asymm_v5,2020.2.10,MacIntel,60,61025ae37ef11b136ea224fe,,,,,,,,,816,29.59875488,-57.05099487,1,0,0,response3disk,,4,11.10675049,-7.16986084,1,0,0,rectangle,11.10675049,-7.16986084,1,0,0,11.10675049,-7.16986084,1,0,0,0,64,64,32,1,,,,,,,,
,,,,,,,,,,,,,FF,,,,,,,,1.3479,,,,,,,,,,,,,,,,,,,,,,61035476b946ec7981de1dae,610369fd825c5dfea8a60333,2021-07-29_21h55.23.462,Simcolourproject_2stim_asymm_v5,2020.2.10,MacIntel,60,61025ae37ef11b136ea224fe,,,,,,,,,3549,37.51739502,-58.03369141,1,0,0,response3disk,,4,16.81750488,-15.86657715,1,0,0,rectangle,-63.93103027,33.49459839,1,0,0,-1.735595703,-4.257202148,1,0,0,0,65,65,156,1,,response7disk_3,TRUE,1,1,"[243,171,69,188,181,193,43,43,78,62,183,50,195,66,135,47,138,130,228,180]",1.8399,rectangle
,,,,,,,,,,,,,FF,,,,,,,,1.2503,,,,,,,,,,,,,,,,,,,,,,61035476b946ec7981de1dae,610369fd825c5dfea8a60333,2021-07-29_21h55.23.462,Simcolourproject_2stim_asymm_v5,2020.2.10,MacIntel,60,61025ae37ef11b136ea224fe,,,,,,,,,4321,38.43103027,69.9576416,1,0,0,response1disk,,7,8.869995117,3.081756592,1,0,0,rectangle,8.869995117,3.081756592,1,0,0,8.869995117,3.081756592,1,0,0,0,66,66,60,1,,,,,,,,
,,,,,,,,,,,,,FF,,,,,,,,0.754,,,,,,,,,,,,,,,,,,,,,,61035476b946ec7981de1dae,610369fd825c5dfea8a60333,2021-07-29_21h55.23.462,Simcolourproject_2stim_asymm_v5,2020.2.10,MacIntel,60,61025ae37ef11b136ea224fe,,,,,,,,,3712,-60.4519043,-32.0440979,1,0,0,response5disk,,2,-13.24389648,-2.2293396,1,0,0,rectangle,-13.24389648,-2.2293396,1,0,0,-13.24389648,-2.2293396,1,0,0,0,67,67,59,1,,,,,,,,
,,,,,,,,,,,,,FF,,,,,,,,0.8354,,,,,,,,,,,,,,,,,,,,,,61035476b946ec7981de1dae,610369fd825c5dfea8a60333,2021-07-29_21h55.23.462,Simcolourproject_2stim_asymm_v5,2020.2.10,MacIntel,60,61025ae37ef11b136ea224fe,,,,,,,,,3871,-26.50640869,-66.95611572,1,0,0,response5disk,,3,-10.58752441,-6.536010742,1,0,0,rectangle,-66.19146729,34.05737305,1,0,0,-15.34802246,-5.609375,1,0,0,0,68,68,128,1,,response7disk_3,TRUE,1,1,"[243,171,69,188,181,193,43,43,78,62,183,50,195,66,135,47,138,130,228,180]",1.2495,rectangle
,,,,,,,,,,,,,FF,,,,,,,,1.5678,,,,,,,,,,,,,,,,,,,,,,61035476b946ec7981de1dae,610369fd825c5dfea8a60333,2021-07-29_21h55.23.462,Simcolourproject_2stim_asymm_v5,2020.2.10,MacIntel,60,61025ae37ef11b136ea224fe,,,,,,,,,341,62.47210693,-31.62670898,1,0,0,response3disk,,5,-18.83789063,-11.6975708,1,0,0,rectangle,-18.83789063,-11.6975708,1,0,0,-18.83789063,-11.6975708,1,0,0,0,69,69,143,1,,,,,,,,
,,,,,,,,,,,,,FF,,,,,,,,1.6179,,,,,,,,,,,,,,,,,,,,,,61035476b946ec7981de1dae,610369fd825c5dfea8a60333,2021-07-29_21h55.23.462,Simcolourproject_2stim_asymm_v5,2020.2.10,MacIntel,60,61025ae37ef11b136ea224fe,,,,,,,,,285,-47.55908203,-55.99554443,1,0,0,response5disk,,3,-16.18566895,8.681762695,1,0,0,rectangle,-16.18566895,8.681762695,1,0,0,-16.18566895,8.681762695,1,0,0,0,70,70,5,1,,,,,,,,
,,,,,,,,,,,,,FF,,,,,,,,0.9653,,,,,,,,,,,,,,,,,,,,,,61035476b946ec7981de1dae,610369fd825c5dfea8a60333,2021-07-29_21h55.23.462,Simcolourproject_2stim_asymm_v5,2020.2.10,MacIntel,60,61025ae37ef11b136ea224fe,,,,,,,,,3112,78.25671387,45.71981812,1,0,0,response1disk,,6,19.67333984,4.22744751,1,0,0,rectangle,19.67333984,4.22744751,1,0,0,19.67333984,4.22744751,1,0,0,0,71,71,104,1,,,,,,,,
,,,,,,,,,,,,,FF,,,,,,,,0.7173,,,,,,,,,,,,,,,,,,,,,,61035476b946ec7981de1dae,610369fd825c5dfea8a60333,2021-07-29_21h55.23.462,Simcolourproject_2stim_asymm_v5,2020.2.10,MacIntel,60,61025ae37ef11b136ea224fe,,,,,,,,,828,34.62750244,57.04864502,1,0,0,response1disk,,7,8.736572266,1.572265625,1,0,0,rectangle,8.736572266,1.572265625,1,0,0,8.736572266,1.572265625,1,0,0,0,72,72,127,1,,,,,,,,
,,,,,,,,,,,,,FF,,,,,,,,0.7334,,,,,,,,,,,,,,,,,,,,,,61035476b946ec7981de1dae,610369fd825c5dfea8a60333,2021-07-29_21h55.23.462,Simcolourproject_2stim_asymm_v5,2020.2.10,MacIntel,60,61025ae37ef11b136ea224fe,,,,,,,,,1261,32.64691162,69.73980713,1,0,0,response1disk,,7,1.27722168,-7.921569824,1,0,0,rectangle,1.27722168,-7.921569824,1,0,0,1.27722168,-7.921569824,1,0,0,0,73,73,98,1,,,,,,,,
,,,,,,,,,,,,,FF,,,,,,,,0.8199,,,,,,,,,,,,,,,,,,,,,,61035476b946ec7981de1dae,610369fd825c5dfea8a60333,2021-07-29_21h55.23.462,Simcolourproject_2stim_asymm_v5,2020.2.10,MacIntel,60,61025ae37ef11b136ea224fe,,,,,,,,,150,46.78173828,21.57806396,1,0,0,response1disk,,6,14.95251465,-8.77355957,1,0,0,rectangle,14.95251465,-8.77355957,1,0,0,14.95251465,-8.77355957,1,0,0,0,74,74,26,1,,,,,,,,
,,,,,,,,,,,,,FF,,,,,,,,1.8069,,,,,,,,,,,,,,,,,,,,,,61035476b946ec7981de1dae,610369fd825c5dfea8a60333,2021-07-29_21h55.23.462,Simcolourproject_2stim_asymm_v5,2020.2.10,MacIntel,60,61025ae37ef11b136ea224fe,,,,,,,,,4092,59.05603027,-29.13201904,1,0,0,response3disk,,5,13.35192871,-8.90814209,1,0,0,rectangle,13.35192871,-8.90814209,1,0,0,13.35192871,-8.90814209,1,0,0,0,75,75,119,1,,,,,,,,
,,,,,,,,,,,,,FF,,,,,,,,2.3023,,,,,,,,,,,,,,,,,,,,,,61035476b946ec7981de1dae,610369fd825c5dfea8a60333,2021-07-29_21h55.23.462,Simcolourproject_2stim_asymm_v5,2020.2.10,MacIntel,60,61025ae37ef11b136ea224fe,,,,,,,,,1230,31.97705078,-58.87158203,1,0,0,response3disk,,4,13.52783203,-4.766571045,1,0,0,rectangle,13.52783203,-4.766571045,1,0,0,13.52783203,-4.766571045,1,0,0,0,76,76,61,1,,,,,,,,
,,,,,,,,,,,,,FF,,,,,,,,1.1988,,,,,,,,,,,,,,,,,,,,,,61035476b946ec7981de1dae,610369fd825c5dfea8a60333,2021-07-29_21h55.23.462,Simcolourproject_2stim_asymm_v5,2020.2.10,MacIntel,60,61025ae37ef11b136ea224fe,,,,,,,,,2332,79.19494629,31.67541504,1,0,0,response1disk,,6,19.98394775,-0.998535156,1,0,0,rectangle,75.06549072,38.64929199,1,0,0,5.124145508,-7.977966309,1,0,0,0,77,77,115,1,,response1disk_3,TRUE,6,6,"[243,171,69,188,181,193,43,43,78,62,183,50,195,66,135,47,138,130,228,180]",1.5459,rectangle
,,,,,,,,,,,,,FF,,,,,,,,0.8959,,,,,,,,,,,,,,,,,,,,,,61035476b946ec7981de1dae,610369fd825c5dfea8a60333,2021-07-29_21h55.23.462,Simcolourproject_2stim_asymm_v5,2020.2.10,MacIntel,60,61025ae37ef11b136ea224fe,,,,,,,,,4222,-41.26727295,-65.3192749,1,0,0,response5disk,,3,-8.44140625,-2.257873535,1,0,0,rectangle,-8.44140625,-2.257873535,1,0,0,-8.44140625,-2.257873535,1,0,0,0,78,78,139,1,,,,,,,,
,,,,,,,,,,,,,FF,,,,,,,,1.183,,,,,,,,,,,,,,,,,,,,,,61035476b946ec7981de1dae,610369fd825c5dfea8a60333,2021-07-29_21h55.23.462,Simcolourproject_2stim_asymm_v5,2020.2.10,MacIntel,60,61025ae37ef11b136ea224fe,,,,,,,,,958,60.83032227,22.40106201,1,0,0,response1disk,,6,10.72650146,7.935180664,1,0,0,rectangle,10.72650146,7.935180664,1,0,0,10.72650146,7.935180664,1,0,0,0,79,79,69,1,,,,,,,,
,,,,,,,,,,,,,FF,,,,,,,,0.638,,,,,,,,,,,,,,,,,,,,,,61035476b946ec7981de1dae,610369fd825c5dfea8a60333,2021-07-29_21h55.23.462,Simcolourproject_2stim_asymm_v5,2020.2.10,MacIntel,60,61025ae37ef11b136ea224fe,,,,,,,,,3633,67.77526855,51.35638428,1,0,0,response1disk,,6,10.20568848,-1.657196045,1,0,0,rectangle,10.20568848,-1.657196045,1,0,0,10.20568848,-1.657196045,1,0,0,0,80,80,131,1,,,,,,,,
,,,,,,,,,,,,,FF,,,,,,,,1.1188,,,,,,,,,,,,,,,,,,,,,,61035476b946ec7981de1dae,610369fd825c5dfea8a60333,2021-07-29_21h55.23.462,Simcolourproject_2stim_asymm_v5,2020.2.10,MacIntel,60,61025ae37ef11b136ea224fe,,,,,,,,,2542,-80.49047852,24.50546265,1,0,0,response7disk,,1,-17.32250977,-7.555755615,1,0,0,rectangle,-17.32250977,-7.555755615,1,0,0,-17.32250977,-7.555755615,1,0,0,0,81,81,91,1,,,,,,,,
,,,,,,,,,,,,,FF,,,,,,,,0.8684,,,,,,,,,,,,,,,,,,,,,,61035476b946ec7981de1dae,610369fd825c5dfea8a60333,2021-07-29_21h55.23.462,Simcolourproject_2stim_asymm_v5,2020.2.10,MacIntel,60,61025ae37ef11b136ea224fe,,,,,,,,,2654,-58.57073975,-34.8737793,1,0,0,response5disk,,2,7.22454834,3.002746582,1,0,0,rectangle,7.22454834,3.002746582,1,0,0,7.22454834,3.002746582,1,0,0,0,82,82,103,1,,,,,,,,
,,,,,,,,,,,,,FF,,,,,,,,0.8493,,,,,,,,,,,,,,,,,,,,,,61035476b946ec7981de1dae,610369fd825c5dfea8a60333,2021-07-29_21h55.23.462,Simcolourproject_2stim_asymm_v5,2020.2.10,MacIntel,60,61025ae37ef11b136ea224fe,,,,,,,,,522,-44.83563232,-79.94940186,1,0,0,response5disk,,3,-5.811279297,-2.971862793,1,0,0,rectangle,-5.811279297,-2.971862793,1,0,0,-5.811279297,-2.971862793,1,0,0,0,83,83,136,1,,,,,,,,
,,,,,,,,,,,,,FF,,,,,,,,0.8011,,,,,,,,,,,,,,,,,,,,,,61035476b946ec7981de1dae,610369fd825c5dfea8a60333,2021-07-29_21h55.23.462,Simcolourproject_2stim_asymm_v5,2020.2.10,MacIntel,60,61025ae37ef11b136ea224fe,,,,,,,,,1131,-36.3817749,56.31665039,1,0,0,response7disk,,0,-11.72595215,3.639556885,1,0,0,rectangle,-11.72595215,3.639556885,1,0,0,-11.72595215,3.639556885,1,0,0,0,84,84,62,1,,,,,,,,
,,,,,,,,,,,,,FF,,,,,,,,3.4344,,,,,,,,,,,,,,,,,,,,,,61035476b946ec7981de1dae,610369fd825c5dfea8a60333,2021-07-29_21h55.23.462,Simcolourproject_2stim_asymm_v5,2020.2.10,MacIntel,60,61025ae37ef11b136ea224fe,,,,,,,,,963,76.00982666,34.68002319,1,0,0,response1disk,,6,18.31604004,-3.101959229,1,0,0,rectangle,18.31604004,-3.101959229,1,0,0,18.31604004,-3.101959229,1,0,0,0,85,85,49,1,,,,,,,,
,,,,,,,,,,,,,FF,,,,,,,,0.8007,,,,,,,,,,,,,,,,,,,,,,61035476b946ec7981de1dae,610369fd825c5dfea8a60333,2021-07-29_21h55.23.462,Simcolourproject_2stim_asymm_v5,2020.2.10,MacIntel,60,61025ae37ef11b136ea224fe,,,,,,,,,4205,-66.07019043,-42.15039063,1,0,0,response5disk,,2,-6.442443848,-9.606048584,1,0,0,rectangle,-6.442443848,-9.606048584,1,0,0,-6.442443848,-9.606048584,1,0,0,0,86,86,100,1,,,,,,,,
,,,,,,,,,,,,,FF,,,,,,,,0.784,,,,,,,,,,,,,,,,,,,,,,61035476b946ec7981de1dae,610369fd825c5dfea8a60333,2021-07-29_21h55.23.462,Simcolourproject_2stim_asymm_v5,2020.2.10,MacIntel,60,61025ae37ef11b136ea224fe,,,,,,,,,2783,-67.41607666,-35.05999756,1,0,0,response5disk,,2,-5.931274414,-2.695770264,1,0,0,rectangle,-5.931274414,-2.695770264,1,0,0,-5.931274414,-2.695770264,1,0,0,0,87,87,0,1,,,,,,,,
,,,,,,,,,,,,,FF,,,,,,,,1.0801,,,,,,,,,,,,,,,,,,,,,,61035476b946ec7981de1dae,610369fd825c5dfea8a60333,2021-07-29_21h55.23.462,Simcolourproject_2stim_asymm_v5,2020.2.10,MacIntel,60,61025ae37ef11b136ea224fe,,,,,,,,,183,26.42126465,-77.57009888,1,0,0,response3disk,,4,-2.698486328,-10.85205078,1,0,0,rectangle,-2.698486328,-10.85205078,1,0,0,-2.698486328,-10.85205078,1,0,0,0,88,88,79,1,,,,,,,,
,,,,,,,,,,,,,FF,,,,,,,,1.1178,,,,,,,,,,,,,,,,,,,,,,61035476b946ec7981de1dae,610369fd825c5dfea8a60333,2021-07-29_21h55.23.462,Simcolourproject_2stim_asymm_v5,2020.2.10,MacIntel,60,61025ae37ef11b136ea224fe,,,,,,,,,2481,-58.78240967,-36.46643066,1,0,0,response5disk,,2,-8.066772461,6.073974609,1,0,0,rectangle,-8.066772461,6.073974609,1,0,0,-8.066772461,6.073974609,1,0,0,0,89,89,50,1,,,,,,,,
,,,,,,,,,,,,,FF,,,,,,,,0.9338,,,,,,,,,,,,,,,,,,,,,,61035476b946ec7981de1dae,610369fd825c5dfea8a60333,2021-07-29_21h55.23.462,Simcolourproject_2stim_asymm_v5,2020.2.10,MacIntel,60,61025ae37ef11b136ea224fe,,,,,,,,,2345,62.78344727,42.93865967,1,0,0,response1disk,,6,4.695983887,4.662414551,1,0,0,rectangle,4.695983887,4.662414551,1,0,0,4.695983887,4.662414551,1,0,0,0,90,90,81,1,,,,,,,,
,,,,,,,,,,,,,FF,,,,,,,,0.8506,,,,,,,,,,,,,,,,,,,,,,61035476b946ec7981de1dae,610369fd825c5dfea8a60333,2021-07-29_21h55.23.462,Simcolourproject_2stim_asymm_v5,2020.2.10,MacIntel,60,61025ae37ef11b136ea224fe,,,,,,,,,948,41.93365479,60.42800903,1,0,0,response1disk,,7,20.99584961,8.823303223,1,0,0,rectangle,20.99584961,8.823303223,1,0,0,20.99584961,8.823303223,1,0,0,0,91,91,90,1,,,,,,,,
,,,,,,,,,,,,,FF,,,,,,,,0.7658,,,,,,,,,,,,,,,,,,,,,,61035476b946ec7981de1dae,610369fd825c5dfea8a60333,2021-07-29_21h55.23.462,Simcolourproject_2stim_asymm_v5,2020.2.10,MacIntel,60,61025ae37ef11b136ea224fe,,,,,,,,,3454,37.42077637,63.90008545,1,0,0,response1disk,,7,14.39154053,11.82427979,1,0,0,rectangle,14.39154053,11.82427979,1,0,0,14.39154053,11.82427979,1,0,0,0,92,92,137,1,,,,,,,,
,,,,,,,,,,,,,FF,,,,,,,,1.251,,,,,,,,,,,,,,,,,,,,,,61035476b946ec7981de1dae,610369fd825c5dfea8a60333,2021-07-29_21h55.23.462,Simcolourproject_2stim_asymm_v5,2020.2.10,MacIntel,60,61025ae37ef11b136ea224fe,,,,,,,,,871,20.2512207,-89.69390869,1,0,0,response3disk,,4,-1.880126953,-4.249145508,1,0,0,rectangle,-1.880126953,-4.249145508,1,0,0,-1.880126953,-4.249145508,1,0,0,0,93,93,48,1,,,,,,,,
,,,,,,,,,,,,,FF,,,,,,,,1.1024,,,,,,,,,,,,,,,,,,,,,,61035476b946ec7981de1dae,610369fd825c5dfea8a60333,2021-07-29_21h55.23.462,Simcolourproject_2stim_asymm_v5,2020.2.10,MacIntel,60,61025ae37ef11b136ea224fe,,,,,,,,,1779,83.0612793,36.58239746,1,0,0,response1disk,,6,4.67755127,-0.20690918,1,0,0,rectangle,4.67755127,-0.20690918,1,0,0,4.67755127,-0.20690918,1,0,0,0,94,94,58,1,,,,,,,,
,,,,,,,,,,,,,FF,,,,,,,,0.8675,,,,,,,,,,,,,,,,,,,,,,61035476b946ec7981de1dae,610369fd825c5dfea8a60333,2021-07-29_21h55.23.462,Simcolourproject_2stim_asymm_v5,2020.2.10,MacIntel,60,61025ae37ef11b136ea224fe,,,,,,,,,3367,35.42724609,71.45019531,1,0,0,response1disk,,7,18.29986572,10.5526123,1,0,0,rectangle,18.29986572,10.5526123,1,0,0,18.29986572,10.5526123,1,0,0,0,95,95,12,1,,,,,,,,
,,,,,,,,,,,,,FF,,,,,,,,0.8498,,,,,,,,,,,,,,,,,,,,,,61035476b946ec7981de1dae,610369fd825c5dfea8a60333,2021-07-29_21h55.23.462,Simcolourproject_2stim_asymm_v5,2020.2.10,MacIntel,60,61025ae37ef11b136ea224fe,,,,,,,,,3108,-33.12194824,-54.02557373,1,0,0,response5disk,,3,-21.84631348,-12.68182373,1,0,0,rectangle,-21.84631348,-12.68182373,1,0,0,-21.84631348,-12.68182373,1,0,0,0,96,96,34,1,,,,,,,,
,,,,,,,,,,,,,FF,,,,,,,,1.1808,,,,,,,,,,,,,,,,,,,,,,61035476b946ec7981de1dae,610369fd825c5dfea8a60333,2021-07-29_21h55.23.462,Simcolourproject_2stim_asymm_v5,2020.2.10,MacIntel,60,61025ae37ef11b136ea224fe,,,,,,,,,1164,53.40112305,84.92630005,1,0,0,response1disk,,7,12.67590332,6.12689209,1,0,0,rectangle,12.67590332,6.12689209,1,0,0,12.67590332,6.12689209,1,0,0,0,97,97,23,1,,,,,,,,
,,,,,,,,,,,,,FF,,,,,,,,1.3333,,,,,,,,,,,,,,,,,,,,,,61035476b946ec7981de1dae,610369fd825c5dfea8a60333,2021-07-29_21h55.23.462,Simcolourproject_2stim_asymm_v5,2020.2.10,MacIntel,60,61025ae37ef11b136ea224fe,,,,,,,,,416,37.48046875,68.08026123,1,0,0,response1disk,,7,24.3961792,7.08404541,1,0,0,rectangle,24.3961792,7.08404541,1,0,0,24.3961792,7.08404541,1,0,0,0,98,98,36,1,,,,,,,,
,,,,,,,,,,,,,FF,,,,,,,,1.3006,,,,,,,,,,,,,,,,,,,,,,61035476b946ec7981de1dae,610369fd825c5dfea8a60333,2021-07-29_21h55.23.462,Simcolourproject_2stim_asymm_v5,2020.2.10,MacIntel,60,61025ae37ef11b136ea224fe,,,,,,,,,1532,-50.10784912,-64.91229248,1,0,0,response5disk,,3,-20.07897949,-8.184570313,1,0,0,rectangle,-20.07897949,-8.184570313,1,0,0,-20.07897949,-8.184570313,1,0,0,0,99,99,159,1,,,,,,,,
,,,,,,,,,,,,,FF,,,,,,,,0.8352,,,,,,,,,,,,,,,,,,,,,,61035476b946ec7981de1dae,610369fd825c5dfea8a60333,2021-07-29_21h55.23.462,Simcolourproject_2stim_asymm_v5,2020.2.10,MacIntel,60,61025ae37ef11b136ea224fe,,,,,,,,,2913,40.01379395,72.46365356,1,0,0,response1disk,,7,6.584411621,-11.96533203,1,0,0,rectangle,6.584411621,-11.96533203,1,0,0,6.584411621,-11.96533203,1,0,0,0,100,100,123,1,,,,,,,,
,,,,,,,,,,,,,FF,,,,,,,,2.8157,,,,,,,,,,,,,,,,,,,,,,61035476b946ec7981de1dae,610369fd825c5dfea8a60333,2021-07-29_21h55.23.462,Simcolourproject_2stim_asymm_v5,2020.2.10,MacIntel,60,61025ae37ef11b136ea224fe,,,,,,,,,1754,-71.97802734,-47.55041504,1,0,0,response5disk,,2,-18.63061523,0.176452637,1,0,0,rectangle,-18.63061523,0.176452637,1,0,0,-18.63061523,0.176452637,1,0,0,0,101,101,47,1,,,,,,,,
,,,,,,,,,,,,,FF,,,,,,,,1.4045,,,,,,,,,,,,,,,,,,,,,,61035476b946ec7981de1dae,610369fd825c5dfea8a60333,2021-07-29_21h55.23.462,Simcolourproject_2stim_asymm_v5,2020.2.10,MacIntel,60,61025ae37ef11b136ea224fe,,,,,,,,,2504,44.37280273,76.98687744,1,0,0,response1disk,,7,-14.10235596,1.088928223,1,0,0,rectangle,-14.10235596,1.088928223,1,0,0,-14.10235596,1.088928223,1,0,0,0,102,102,10,1,,,,,,,,
,,,,,,,,,,,,,FF,,,,,,,,1.181,,,,,,,,,,,,,,,,,,,,,,61035476b946ec7981de1dae,610369fd825c5dfea8a60333,2021-07-29_21h55.23.462,Simcolourproject_2stim_asymm_v5,2020.2.10,MacIntel,60,61025ae37ef11b136ea224fe,,,,,,,,,3872,-31.2956543,-62.52487183,1,0,0,response5disk,,3,-5.369018555,-4.364807129,1,0,0,rectangle,-5.369018555,-4.364807129,1,0,0,-5.369018555,-4.364807129,1,0,0,0,103,103,11,1,,,,,,,,
,,,,,,,,,,,,,FF,,,,,,,,0.8502,,,,,,,,,,,,,,,,,,,,,,61035476b946ec7981de1dae,610369fd825c5dfea8a60333,2021-07-29_21h55.23.462,Simcolourproject_2stim_asymm_v5,2020.2.10,MacIntel,60,61025ae37ef11b136ea224fe,,,,,,,,,593,27.13012695,53.11791992,1,0,0,response1disk,,7,11.18774414,0.711669922,1,0,0,rectangle,11.18774414,0.711669922,1,0,0,11.18774414,0.711669922,1,0,0,0,104,104,16,1,,,,,,,,
,,,,,,,,,,,,,FF,,,,,,,,1.0174,,,,,,,,,,,,,,,,,,,,,,61035476b946ec7981de1dae,610369fd825c5dfea8a60333,2021-07-29_21h55.23.462,Simcolourproject_2stim_asymm_v5,2020.2.10,MacIntel,60,61025ae37ef11b136ea224fe,,,,,,,,,2665,-64.79296875,-30.35046387,1,0,0,response5disk,,2,-17.16674805,-9.398803711,1,0,0,rectangle,-17.16674805,-9.398803711,1,0,0,-17.16674805,-9.398803711,1,0,0,0,105,105,78,1,,,,,,,,
,,,,,,,,,,,,,FF,,,,,,,,0.7326,,,,,,,,,,,,,,,,,,,,,,61035476b946ec7981de1dae,610369fd825c5dfea8a60333,2021-07-29_21h55.23.462,Simcolourproject_2stim_asymm_v5,2020.2.10,MacIntel,60,61025ae37ef11b136ea224fe,,,,,,,,,4313,22.52709961,58.81671143,1,0,0,response1disk,,7,8.767150879,-10.33569336,1,0,0,rectangle,8.767150879,-10.33569336,1,0,0,8.767150879,-10.33569336,1,0,0,0,106,106,148,1,,,,,,,,
,,,,,,,,,,,,,FF,,,,,,,,1.2675,,,,,,,,,,,,,,,,,,,,,,61035476b946ec7981de1dae,610369fd825c5dfea8a60333,2021-07-29_21h55.23.462,Simcolourproject_2stim_asymm_v5,2020.2.10,MacIntel,60,61025ae37ef11b136ea224fe,,,,,,,,,3967,-52.09484863,-31.08187866,1,0,0,response5disk,,2,-10.22027588,-13.1607666,1,0,0,rectangle,-10.22027588,-13.1607666,1,0,0,-10.22027588,-13.1607666,1,0,0,0,107,107,110,1,,,,,,,,
,,,,,,,,,,,,,FF,,,,,,,,1.5704,,,,,,,,,,,,,,,,,,,,,,61035476b946ec7981de1dae,610369fd825c5dfea8a60333,2021-07-29_21h55.23.462,Simcolourproject_2stim_asymm_v5,2020.2.10,MacIntel,60,61025ae37ef11b136ea224fe,,,,,,,,,143,-25.56628418,-51.38955688,1,0,0,response5disk,,3,-10.77416992,-0.985107422,1,0,0,rectangle,-10.77416992,-0.985107422,1,0,0,-10.77416992,-0.985107422,1,0,0,0,108,108,28,1,,,,,,,,
,,,,,,,,,,,,,FF,,,,,,,,2.3177,,,,,,,,,,,,,,,,,,,,,,61035476b946ec7981de1dae,610369fd825c5dfea8a60333,2021-07-29_21h55.23.462,Simcolourproject_2stim_asymm_v5,2020.2.10,MacIntel,60,61025ae37ef11b136ea224fe,,,,,,,,,1375,-62.46899414,-38.75552368,1,0,0,response5disk,,2,-17.34844971,-10.7935791,1,0,0,rectangle,-17.34844971,-10.7935791,1,0,0,-17.34844971,-10.7935791,1,0,0,0,109,109,45,1,,,,,,,,
,,,,,,,,,,,,,FF,,,,,,,,0.8167,,,,,,,,,,,,,,,,,,,,,,61035476b946ec7981de1dae,610369fd825c5dfea8a60333,2021-07-29_21h55.23.462,Simcolourproject_2stim_asymm_v5,2020.2.10,MacIntel,60,61025ae37ef11b136ea224fe,,,,,,,,,1571,50.52825928,27.87835693,1,0,0,response1disk,,6,5.484924316,0.809020996,1,0,0,rectangle,5.484924316,0.809020996,1,0,0,5.484924316,0.809020996,1,0,0,0,110,110,120,1,,,,,,,,
,,,,,,,,,,,,,FF,,,,,,,,2.3359,,,,,,,,,,,,,,,,,,,,,,61035476b946ec7981de1dae,610369fd825c5dfea8a60333,2021-07-29_21h55.23.462,Simcolourproject_2stim_asymm_v5,2020.2.10,MacIntel,60,61025ae37ef11b136ea224fe,,,,,,,,,3750,52.21801758,-79.03948975,1,0,0,response3disk,,4,8.76348877,-9.056793213,1,0,0,rectangle,8.76348877,-9.056793213,1,0,0,8.76348877,-9.056793213,1,0,0,0,111,111,92,1,,,,,,,,
,,,,,,,,,,,,,FF,,,,,,,,0.6755,,,,,,,,,,,,,,,,,,,,,,61035476b946ec7981de1dae,610369fd825c5dfea8a60333,2021-07-29_21h55.23.462,Simcolourproject_2stim_asymm_v5,2020.2.10,MacIntel,60,61025ae37ef11b136ea224fe,,,,,,,,,4172,18.79296875,47.00463867,1,0,0,response1disk,,7,15.37524414,-9.244506836,1,0,0,rectangle,15.37524414,-9.244506836,1,0,0,15.37524414,-9.244506836,1,0,0,0,112,112,105,1,,,,,,,,
,,,,,,,,,,,,,FF,,,,,,,,3.6354,,,,,,,,,,,,,,,,,,,,,,61035476b946ec7981de1dae,610369fd825c5dfea8a60333,2021-07-29_21h55.23.462,Simcolourproject_2stim_asymm_v5,2020.2.10,MacIntel,60,61025ae37ef11b136ea224fe,,,,,,,,,1733,23.89904785,-47.31546021,1,0,0,response3disk,,4,3.338989258,-8.320526123,1,0,0,rectangle,3.338989258,-8.320526123,1,0,0,3.338989258,-8.320526123,1,0,0,0,113,113,44,1,,,,,,,,
,,,,,,,,,,,,,FF,,,,,,,,1.1009,,,,,,,,,,,,,,,,,,,,,,61035476b946ec7981de1dae,610369fd825c5dfea8a60333,2021-07-29_21h55.23.462,Simcolourproject_2stim_asymm_v5,2020.2.10,MacIntel,60,61025ae37ef11b136ea224fe,,,,,,,,,3093,21.34643555,-45.6697998,1,0,0,response3disk,,4,6.448608398,-5.91897583,1,0,0,rectangle,6.448608398,-5.91897583,1,0,0,6.448608398,-5.91897583,1,0,0,0,114,114,19,1,,,,,,,,
,,,,,,,,,,,,,FF,,,,,,,,1.4502,,,,,,,,,,,,,,,,,,,,,,61035476b946ec7981de1dae,610369fd825c5dfea8a60333,2021-07-29_21h55.23.462,Simcolourproject_2stim_asymm_v5,2020.2.10,MacIntel,60,61025ae37ef11b136ea224fe,,,,,,,,,2141,35.51293945,74.40374756,1,0,0,response1disk,,7,10.13269043,1.700408936,1,0,0,rectangle,10.13269043,1.700408936,1,0,0,10.13269043,1.700408936,1,0,0,0,115,115,66,1,,,,,,,,
,,,,,,,,,,,,,FF,,,,,,,,1.6685,,,,,,,,,,,,,,,,,,,,,,61035476b946ec7981de1dae,610369fd825c5dfea8a60333,2021-07-29_21h55.23.462,Simcolourproject_2stim_asymm_v5,2020.2.10,MacIntel,60,61025ae37ef11b136ea224fe,,,,,,,,,4135,23.92913818,61.32354736,1,0,0,response1disk,,7,3.428283691,-6.596557617,1,0,0,rectangle,3.428283691,-6.596557617,1,0,0,3.428283691,-6.596557617,1,0,0,0,116,116,117,1,,,,,,,,
,,,,,,,,,,,,,FF,,,,,,,,0.7517,,,,,,,,,,,,,,,,,,,,,,61035476b946ec7981de1dae,610369fd825c5dfea8a60333,2021-07-29_21h55.23.462,Simcolourproject_2stim_asymm_v5,2020.2.10,MacIntel,60,61025ae37ef11b136ea224fe,,,,,,,,,84,23.48846436,51.55621338,1,0,0,response1disk,,7,2.872436523,3.153564453,1,0,0,rectangle,2.872436523,3.153564453,1,0,0,2.872436523,3.153564453,1,0,0,0,117,117,41,1,,,,,,,,
,,,,,,,,,,,,,FF,,,,,,,,1.4016,,,,,,,,,,,,,,,,,,,,,,61035476b946ec7981de1dae,610369fd825c5dfea8a60333,2021-07-29_21h55.23.462,Simcolourproject_2stim_asymm_v5,2020.2.10,MacIntel,60,61025ae37ef11b136ea224fe,,,,,,,,,1748,-20.76538086,-65.97900391,1,0,0,response5disk,,3,-9.2734375,-4.094970703,1,0,0,rectangle,-9.2734375,-4.094970703,1,0,0,-9.2734375,-4.094970703,1,0,0,0,118,118,121,1,,,,,,,,
,,,,,,,,,,,,,FF,,,,,,,,1.4171,,,,,,,,,,,,,,,,,,,,,,61035476b946ec7981de1dae,610369fd825c5dfea8a60333,2021-07-29_21h55.23.462,Simcolourproject_2stim_asymm_v5,2020.2.10,MacIntel,60,61025ae37ef11b136ea224fe,,,,,,,,,414,34.33251953,70.77301025,1,0,0,response1disk,,7,14.08459473,5.416259766,1,0,0,rectangle,14.08459473,5.416259766,1,0,0,14.08459473,5.416259766,1,0,0,0,119,119,54,1,,,,,,,,
,,,,,,,,,,,,,FF,,,,,,,,1.5182,,,,,,,,,,,,,,,,,,,,,,61035476b946ec7981de1dae,610369fd825c5dfea8a60333,2021-07-29_21h55.23.462,Simcolourproject_2stim_asymm_v5,2020.2.10,MacIntel,60,61025ae37ef11b136ea224fe,,,,,,,,,727,51.48699951,-32.24234009,1,0,0,response3disk,,5,2.798217773,-7.38873291,1,0,0,rectangle,2.798217773,-7.38873291,1,0,0,2.798217773,-7.38873291,1,0,0,0,120,120,33,1,,,,,,,,
,,,,,,,,,,,,,FF,,,,,,,,1,,,,,,,,,,,,,,,,,,,,,,61035476b946ec7981de1dae,610369fd825c5dfea8a60333,2021-07-29_21h55.23.462,Simcolourproject_2stim_asymm_v5,2020.2.10,MacIntel,60,61025ae37ef11b136ea224fe,,,,,,,,,3096,-39.11633301,65.54919434,1,0,0,response7disk,,0,-27.08398438,4.231506348,1,0,0,rectangle,-27.08398438,4.231506348,1,0,0,-27.08398438,4.231506348,1,0,0,0,121,121,64,1,,,,,,,,
,,,,,,,,,,,,,FF,,,,,,,,3.2016,,,,,,,,,,,,,,,,,,,,,,61035476b946ec7981de1dae,610369fd825c5dfea8a60333,2021-07-29_21h55.23.462,Simcolourproject_2stim_asymm_v5,2020.2.10,MacIntel,60,61025ae37ef11b136ea224fe,,,,,,,,,1527,-68.99066162,-29.56716919,1,0,0,response5disk,,2,-29.56237793,-7.294036865,1,0,0,rectangle,-29.56237793,-7.294036865,1,0,0,-29.56237793,-7.294036865,1,0,0,0,122,122,68,1,,,,,,,,
,,,,,,,,,,,,,FF,,,,,,,,1.9837,,,,,,,,,,,,,,,,,,,,,,61035476b946ec7981de1dae,610369fd825c5dfea8a60333,2021-07-29_21h55.23.462,Simcolourproject_2stim_asymm_v5,2020.2.10,MacIntel,60,61025ae37ef11b136ea224fe,,,,,,,,,3647,70.52453613,45.13864136,1,0,0,response1disk,,6,6.218078613,10.34088135,1,0,0,rectangle,6.218078613,10.34088135,1,0,0,6.218078613,10.34088135,1,0,0,0,123,123,138,1,,,,,,,,
,,,,,,,,,,,,,FF,,,,,,,,2.5363,,,,,,,,,,,,,,,,,,,,,,61035476b946ec7981de1dae,610369fd825c5dfea8a60333,2021-07-29_21h55.23.462,Simcolourproject_2stim_asymm_v5,2020.2.10,MacIntel,60,61025ae37ef11b136ea224fe,,,,,,,,,394,50.38665771,-35.20831299,1,0,0,response3disk,,5,3.705444336,1.963378906,1,0,0,rectangle,3.705444336,1.963378906,1,0,0,3.705444336,1.963378906,1,0,0,0,124,124,15,1,,,,,,,,
,,,,,,,,,,,,,FF,,,,,,,,2.2672,,,,,,,,,,,,,,,,,,,,,,61035476b946ec7981de1dae,610369fd825c5dfea8a60333,2021-07-29_21h55.23.462,Simcolourproject_2stim_asymm_v5,2020.2.10,MacIntel,60,61025ae37ef11b136ea224fe,,,,,,,,,3521,61.12255859,41.54772949,1,0,0,response1disk,,6,12.5614624,7.659973145,1,0,0,rectangle,12.5614624,7.659973145,1,0,0,12.5614624,7.659973145,1,0,0,0,125,125,87,1,,,,,,,,
,,,,,,,,,,,,,FF,,,,,,,,1.574,,,,,,,,,,,,,,,,,,,,,,61035476b946ec7981de1dae,610369fd825c5dfea8a60333,2021-07-29_21h55.23.462,Simcolourproject_2stim_asymm_v5,2020.2.10,MacIntel,60,61025ae37ef11b136ea224fe,,,,,,,,,2419,-37.78149414,-51.43518066,1,0,0,response5disk,,3,-23.03155518,-3.564941406,1,0,0,rectangle,-23.03155518,-3.564941406,1,0,0,-23.03155518,-3.564941406,1,0,0,0,126,126,126,1,,,,,,,,
,,,,,,,,,,,,,FF,,,,,,,,0.9314,,,,,,,,,,,,,,,,,,,,,,61035476b946ec7981de1dae,610369fd825c5dfea8a60333,2021-07-29_21h55.23.462,Simcolourproject_2stim_asymm_v5,2020.2.10,MacIntel,60,61025ae37ef11b136ea224fe,,,,,,,,,2666,-39.41278076,-45.23529053,1,0,0,response5disk,,3,-21.45178223,-3.859313965,1,0,0,rectangle,-21.45178223,-3.859313965,1,0,0,-21.45178223,-3.859313965,1,0,0,0,127,127,118,1,,,,,,,,
,,,,,,,,,,,,,FF,,,,,,,,0.8052,,,,,,,,,,,,,,,,,,,,,,61035476b946ec7981de1dae,610369fd825c5dfea8a60333,2021-07-29_21h55.23.462,Simcolourproject_2stim_asymm_v5,2020.2.10,MacIntel,60,61025ae37ef11b136ea224fe,,,,,,,,,2104,-29.38897705,-98.0508728,1,0,0,response5disk,,3,6.055297852,4.044921875,1,0,0,rectangle,6.055297852,4.044921875,1,0,0,6.055297852,4.044921875,1,0,0,0,128,128,158,1,,,,,,,,
,,,,,,,,,,,,,FF,,,,,,,,1.0785,,,,,,,,,,,,,,,,,,,,,,61035476b946ec7981de1dae,610369fd825c5dfea8a60333,2021-07-29_21h55.23.462,Simcolourproject_2stim_asymm_v5,2020.2.10,MacIntel,60,61025ae37ef11b136ea224fe,,,,,,,,,2134,52.31408691,34.4786377,1,0,0,response1disk,,6,7.595092773,-2.674957275,1,0,0,rectangle,19.44628906,72.10678101,1,0,0,-1.735778809,3.989440918,1,0,0,0,129,129,99,1,,response1disk_3,TRUE,7,7,"[243,171,69,188,181,193,43,43,78,62,183,50,195,66,135,47,138,130,228,180]",2.2003,rectangle
,,,,,,,,,,,,,FF,,,,,,,,1.3504,,,,,,,,,,,,,,,,,,,,,,61035476b946ec7981de1dae,610369fd825c5dfea8a60333,2021-07-29_21h55.23.462,Simcolourproject_2stim_asymm_v5,2020.2.10,MacIntel,60,61025ae37ef11b136ea224fe,,,,,,,,,2493,44.13690186,75.98291016,1,0,0,response1disk,,7,14.61810303,-2.870239258,1,0,0,rectangle,14.61810303,-2.870239258,1,0,0,14.61810303,-2.870239258,1,0,0,0,130,130,144,1,,,,,,,,
,,,,,,,,,,,,,FF,,,,,,,,3.1845,,,,,,,,,,,,,,,,,,,,,,61035476b946ec7981de1dae,610369fd825c5dfea8a60333,2021-07-29_21h55.23.462,Simcolourproject_2stim_asymm_v5,2020.2.10,MacIntel,60,61025ae37ef11b136ea224fe,,,,,,,,,2114,41.10473633,-62.7328186,1,0,0,response3disk,,4,7.1484375,-9.353729248,1,0,0,rectangle,7.1484375,-9.353729248,1,0,0,7.1484375,-9.353729248,1,0,0,0,131,131,108,1,,,,,,,,
,,,,,,,,,,,,,FF,,,,,,,,2.1335,,,,,,,,,,,,,,,,,,,,,,61035476b946ec7981de1dae,610369fd825c5dfea8a60333,2021-07-29_21h55.23.462,Simcolourproject_2stim_asymm_v5,2020.2.10,MacIntel,60,61025ae37ef11b136ea224fe,,,,,,,,,3496,80.91259766,26.83450317,1,0,0,response1disk,,6,18.55712891,8.217010498,1,0,0,rectangle,18.55712891,8.217010498,1,0,0,18.55712891,8.217010498,1,0,0,0,132,132,107,1,,,,,,,,
,,,,,,,,,,,,,FF,,,,,,,,2.0845,,,,,,,,,,,,,,,,,,,,,,61035476b946ec7981de1dae,610369fd825c5dfea8a60333,2021-07-29_21h55.23.462,Simcolourproject_2stim_asymm_v5,2020.2.10,MacIntel,60,61025ae37ef11b136ea224fe,,,,,,,,,511,39.63684082,72.29885864,1,0,0,response1disk,,7,21.11938477,7.805480957,1,0,0,rectangle,21.11938477,7.805480957,1,0,0,21.11938477,7.805480957,1,0,0,0,133,133,157,1,,,,,,,,
,,,,,,,,,,,,,FF,,,,,,,,1.2008,,,,,,,,,,,,,,,,,,,,,,61035476b946ec7981de1dae,610369fd825c5dfea8a60333,2021-07-29_21h55.23.462,Simcolourproject_2stim_asymm_v5,2020.2.10,MacIntel,60,61025ae37ef11b136ea224fe,,,,,,,,,634,-68.09936523,-48.21652222,1,0,0,response5disk,,2,-12.07385254,-0.722839355,1,0,0,rectangle,33.57971191,77.67572021,1,0,0,5.558776855,-0.491333008,1,0,0,0,134,134,113,1,,response1disk_3,TRUE,7,7,"[243,171,69,188,181,193,43,43,78,62,183,50,195,66,135,47,138,130,228,180]",1.6337,rectangle
,,,,,,,,,,,,,FF,,,,,,,,1.1338,,,,,,,,,,,,,,,,,,,,,,61035476b946ec7981de1dae,610369fd825c5dfea8a60333,2021-07-29_21h55.23.462,Simcolourproject_2stim_asymm_v5,2020.2.10,MacIntel,60,61025ae37ef11b136ea224fe,,,,,,,,,3335,38.7635498,79.80981445,1,0,0,response1disk,,7,6.68145752,-6.393493652,1,0,0,rectangle,6.68145752,-6.393493652,1,0,0,6.68145752,-6.393493652,1,0,0,0,135,135,14,1,,,,,,,,
,,,,,,,,,,,,,FF,,,,,,,,1.7512,,,,,,,,,,,,,,,,,,,,,,61035476b946ec7981de1dae,610369fd825c5dfea8a60333,2021-07-29_21h55.23.462,Simcolourproject_2stim_asymm_v5,2020.2.10,MacIntel,60,61025ae37ef11b136ea224fe,,,,,,,,,2644,39.5592041,63.9364624,1,0,0,response1disk,,7,13.46350098,6.903015137,1,0,0,rectangle,13.46350098,6.903015137,1,0,0,13.46350098,6.903015137,1,0,0,0,136,136,8,1,,,,,,,,
,,,,,,,,,,,,,FF,,,,,,,,1.2525,,,,,,,,,,,,,,,,,,,,,,61035476b946ec7981de1dae,610369fd825c5dfea8a60333,2021-07-29_21h55.23.462,Simcolourproject_2stim_asymm_v5,2020.2.10,MacIntel,60,61025ae37ef11b136ea224fe,,,,,,,,,3106,-32.10943604,-58.70513916,1,0,0,response5disk,,3,-16.92529297,-6.332885742,1,0,0,rectangle,62.64996338,-43.97439575,1,0,0,-4.854492188,-10.33123779,1,0,0,0,137,137,53,1,,response3disk_3,TRUE,5,5,"[243,171,69,188,181,193,43,43,78,62,183,50,195,66,135,47,138,130,228,180]",1.3679,rectangle
,,,,,,,,,,,,,FF,,,,,,,,2.9175,,,,,,,,,,,,,,,,,,,,,,61035476b946ec7981de1dae,610369fd825c5dfea8a60333,2021-07-29_21h55.23.462,Simcolourproject_2stim_asymm_v5,2020.2.10,MacIntel,60,61025ae37ef11b136ea224fe,,,,,,,,,1478,34.70019531,68.51690674,1,0,0,response1disk,,7,-8.971313477,-2.272949219,1,0,0,rectangle,-8.971313477,-2.272949219,1,0,0,-8.971313477,-2.272949219,1,0,0,0,138,138,145,1,,,,,,,,
,,,,,,,,,,,,,FF,,,,,,,,2.6015,,,,,,,,,,,,,,,,,,,,,,61035476b946ec7981de1dae,610369fd825c5dfea8a60333,2021-07-29_21h55.23.462,Simcolourproject_2stim_asymm_v5,2020.2.10,MacIntel,60,61025ae37ef11b136ea224fe,,,,,,,,,2969,45.97235107,-32.11010742,1,0,0,response3disk,,5,8.862060547,5.139099121,1,0,0,rectangle,8.862060547,5.139099121,1,0,0,8.862060547,5.139099121,1,0,0,0,139,139,35,1,,,,,,,,
,,,,,,,,,,,,,FF,,,,,,,,3.2183,,,,,,,,,,,,,,,,,,,,,,61035476b946ec7981de1dae,610369fd825c5dfea8a60333,2021-07-29_21h55.23.462,Simcolourproject_2stim_asymm_v5,2020.2.10,MacIntel,60,61025ae37ef11b136ea224fe,,,,,,,,,3082,51.89050293,-40.1109314,1,0,0,response3disk,,5,-9.469177246,-7.737426758,1,0,0,rectangle,-9.469177246,-7.737426758,1,0,0,-9.469177246,-7.737426758,1,0,0,0,140,140,7,1,,,,,,,,
,,,,,,,,,,,,,FF,,,,,,,,3.5014,,,,,,,,,,,,,,,,,,,,,,61035476b946ec7981de1dae,610369fd825c5dfea8a60333,2021-07-29_21h55.23.462,Simcolourproject_2stim_asymm_v5,2020.2.10,MacIntel,60,61025ae37ef11b136ea224fe,,,,,,,,,95,-47.74603271,-30.94702148,1,0,0,response5disk,,2,8.814208984,3.597167969,1,0,0,rectangle,8.814208984,3.597167969,1,0,0,8.814208984,3.597167969,1,0,0,0,141,141,3,1,,,,,,,,
,,,,,,,,,,,,,FF,,,,,,,,1.1485,,,,,,,,,,,,,,,,,,,,,,61035476b946ec7981de1dae,610369fd825c5dfea8a60333,2021-07-29_21h55.23.462,Simcolourproject_2stim_asymm_v5,2020.2.10,MacIntel,60,61025ae37ef11b136ea224fe,,,,,,,,,348,-54.328125,-32.56347656,1,0,0,response5disk,,2,-7.388061523,-9.854370117,1,0,0,rectangle,-7.388061523,-9.854370117,1,0,0,-7.388061523,-9.854370117,1,0,0,0,142,142,102,1,,,,,,,,
,,,,,,,,,,,,,FF,,,,,,,,0.7507,,,,,,,,,,,,,,,,,,,,,,61035476b946ec7981de1dae,610369fd825c5dfea8a60333,2021-07-29_21h55.23.462,Simcolourproject_2stim_asymm_v5,2020.2.10,MacIntel,60,61025ae37ef11b136ea224fe,,,,,,,,,1622,31.8795166,64.10995483,1,0,0,response1disk,,7,5.863586426,-14.13110352,1,0,0,rectangle,5.863586426,-14.13110352,1,0,0,5.863586426,-14.13110352,1,0,0,0,143,143,51,1,,,,,,,,
,,,,,,,,,,,,,FF,,,,,,,,0.6675,,,,,,,,,,,,,,,,,,,,,,61035476b946ec7981de1dae,610369fd825c5dfea8a60333,2021-07-29_21h55.23.462,Simcolourproject_2stim_asymm_v5,2020.2.10,MacIntel,60,61025ae37ef11b136ea224fe,,,,,,,,,918,28.65734863,77.81518555,1,0,0,response1disk,,7,16.07635498,6.39755249,1,0,0,rectangle,16.07635498,6.39755249,1,0,0,16.07635498,6.39755249,1,0,0,0,144,144,55,1,,,,,,,,
,,,,,,,,,,,,,FF,,,,,,,,1.3176,,,,,,,,,,,,,,,,,,,,,,61035476b946ec7981de1dae,610369fd825c5dfea8a60333,2021-07-29_21h55.23.462,Simcolourproject_2stim_asymm_v5,2020.2.10,MacIntel,60,61025ae37ef11b136ea224fe,,,,,,,,,1373,-75.69500732,16.33813477,1,0,0,response7disk,,1,14.29724121,-0.463806152,1,0,0,rectangle,14.29724121,-0.463806152,1,0,0,14.29724121,-0.463806152,1,0,0,0,145,145,77,1,,,,,,,,
,,,,,,,,,,,,,FF,,,,,,,,1.4673,,,,,,,,,,,,,,,,,,,,,,61035476b946ec7981de1dae,610369fd825c5dfea8a60333,2021-07-29_21h55.23.462,Simcolourproject_2stim_asymm_v5,2020.2.10,MacIntel,60,61025ae37ef11b136ea224fe,,,,,,,,,2828,-32.74072266,-64.43438721,1,0,0,response5disk,,3,-14.64428711,-10.59750366,1,0,0,rectangle,-14.64428711,-10.59750366,1,0,0,-14.64428711,-10.59750366,1,0,0,0,146,146,18,1,,,,,,,,
,,,,,,,,,,,,,FF,,,,,,,,0.6834,,,,,,,,,,,,,,,,,,,,,,61035476b946ec7981de1dae,610369fd825c5dfea8a60333,2021-07-29_21h55.23.462,Simcolourproject_2stim_asymm_v5,2020.2.10,MacIntel,60,61025ae37ef11b136ea224fe,,,,,,,,,2128,20.40447998,58.85592651,1,0,0,response1disk,,7,11.49829102,0.739776611,1,0,0,rectangle,11.49829102,0.739776611,1,0,0,11.49829102,0.739776611,1,0,0,0,147,147,27,1,,,,,,,,
,,,,,,,,,,,,,FF,,,,,,,,1.0999,,,,,,,,,,,,,,,,,,,,,,61035476b946ec7981de1dae,610369fd825c5dfea8a60333,2021-07-29_21h55.23.462,Simcolourproject_2stim_asymm_v5,2020.2.10,MacIntel,60,61025ae37ef11b136ea224fe,,,,,,,,,4154,22.55895996,68.99267578,1,0,0,response1disk,,7,7.264160156,0.887145996,1,0,0,rectangle,7.264160156,0.887145996,1,0,0,7.264160156,0.887145996,1,0,0,0,148,148,24,1,,,,,,,,
,,,,,,,,,,,,,FF,,,,,,,,1.6217,,,,,,,,,,,,,,,,,,,,,,61035476b946ec7981de1dae,610369fd825c5dfea8a60333,2021-07-29_21h55.23.462,Simcolourproject_2stim_asymm_v5,2020.2.10,MacIntel,60,61025ae37ef11b136ea224fe,,,,,,,,,1295,32.87658691,-73.22305298,1,0,0,response3disk,,4,3.318054199,-11.76733398,1,0,0,rectangle,3.318054199,-11.76733398,1,0,0,3.318054199,-11.76733398,1,0,0,0,149,149,6,1,,,,,,,,
,,,,,,,,,,,,,FF,,,,,,,,1.6734,,,,,,,,,,,,,,,,,,,,,,61035476b946ec7981de1dae,610369fd825c5dfea8a60333,2021-07-29_21h55.23.462,Simcolourproject_2stim_asymm_v5,2020.2.10,MacIntel,60,61025ae37ef11b136ea224fe,,,,,,,,,4183,-75.96734619,-49.27432251,1,0,0,response5disk,,2,-19.41601563,-1.114929199,1,0,0,rectangle,-19.41601563,-1.114929199,1,0,0,-19.41601563,-1.114929199,1,0,0,0,150,150,141,1,,,,,,,,
,,,,,,,,,,,,,FF,,,,,,,,0.814,,,,,,,,,,,,,,,,,,,,,,61035476b946ec7981de1dae,610369fd825c5dfea8a60333,2021-07-29_21h55.23.462,Simcolourproject_2stim_asymm_v5,2020.2.10,MacIntel,60,61025ae37ef11b136ea224fe,,,,,,,,,702,-24.38470459,-47.17428589,1,0,0,response5disk,,3,-8.126281738,-3.277740479,1,0,0,rectangle,-8.126281738,-3.277740479,1,0,0,-8.126281738,-3.277740479,1,0,0,0,151,151,96,1,,,,,,,,
,,,,,,,,,,,,,FF,,,,,,,,2.0501,,,,,,,,,,,,,,,,,,,,,,61035476b946ec7981de1dae,610369fd825c5dfea8a60333,2021-07-29_21h55.23.462,Simcolourproject_2stim_asymm_v5,2020.2.10,MacIntel,60,61025ae37ef11b136ea224fe,,,,,,,,,429,67.23596191,-50.07543945,1,0,0,response3disk,,5,12.59631348,-2.073425293,1,0,0,rectangle,12.59631348,-2.073425293,1,0,0,12.59631348,-2.073425293,1,0,0,0,152,152,134,1,,,,,,,,
,,,,,,,,,,,,,FF,,,,,,,,1.0172,,,,,,,,,,,,,,,,,,,,,,61035476b946ec7981de1dae,610369fd825c5dfea8a60333,2021-07-29_21h55.23.462,Simcolourproject_2stim_asymm_v5,2020.2.10,MacIntel,60,61025ae37ef11b136ea224fe,,,,,,,,,3170,34.5670166,66.49859619,1,0,0,response1disk,,7,16.59124756,8.305786133,1,0,0,rectangle,16.59124756,8.305786133,1,0,0,16.59124756,8.305786133,1,0,0,0,153,153,65,1,,,,,,,,
,,,,,,,,,,,,,FF,,,,,,,,1.601,,,,,,,,,,,,,,,,,,,,,,61035476b946ec7981de1dae,610369fd825c5dfea8a60333,2021-07-29_21h55.23.462,Simcolourproject_2stim_asymm_v5,2020.2.10,MacIntel,60,61025ae37ef11b136ea224fe,,,,,,,,,4364,28.39416504,-78.43768311,1,0,0,response3disk,,4,12.34320068,-4.691345215,1,0,0,rectangle,12.34320068,-4.691345215,1,0,0,12.34320068,-4.691345215,1,0,0,0,154,154,97,1,,,,,,,,
,,,,,,,,,,,,,FF,,,,,,,,0.9194,,,,,,,,,,,,,,,,,,,,,,61035476b946ec7981de1dae,610369fd825c5dfea8a60333,2021-07-29_21h55.23.462,Simcolourproject_2stim_asymm_v5,2020.2.10,MacIntel,60,61025ae37ef11b136ea224fe,,,,,,,,,2334,31.66815186,70.11639404,1,0,0,response1disk,,7,5.143554688,-10.80020142,1,0,0,rectangle,5.143554688,-10.80020142,1,0,0,5.143554688,-10.80020142,1,0,0,0,155,155,25,1,,,,,,,,
,,,,,,,,,,,,,FF,,,,,,,,1.1337,,,,,,,,,,,,,,,,,,,,,,61035476b946ec7981de1dae,610369fd825c5dfea8a60333,2021-07-29_21h55.23.462,Simcolourproject_2stim_asymm_v5,2020.2.10,MacIntel,60,61025ae37ef11b136ea224fe,,,,,,,,,1138,-52.4664917,28.91851807,1,0,0,response7disk,,1,3.855773926,-7.694763184,1,0,0,rectangle,3.855773926,-7.694763184,1,0,0,3.855773926,-7.694763184,1,0,0,0,156,156,140,1,,,,,,,,
,,,,,,,,,,,,,FF,,,,,,,,1.2251,,,,,,,,,,,,,,,,,,,,,,61035476b946ec7981de1dae,610369fd825c5dfea8a60333,2021-07-29_21h55.23.462,Simcolourproject_2stim_asymm_v5,2020.2.10,MacIntel,60,61025ae37ef11b136ea224fe,,,,,,,,,2834,-77.10571289,-30.63195801,1,0,0,response5disk,,2,-18.77331543,0.179443359,1,0,0,rectangle,-18.77331543,0.179443359,1,0,0,-18.77331543,0.179443359,1,0,0,0,157,157,67,1,,,,,,,,
,,,,,,,,,,,,,FF,,,,,,,,0.8505,,,,,,,,,,,,,,,,,,,,,,61035476b946ec7981de1dae,610369fd825c5dfea8a60333,2021-07-29_21h55.23.462,Simcolourproject_2stim_asymm_v5,2020.2.10,MacIntel,60,61025ae37ef11b136ea224fe,,,,,,,,,1279,37.1461792,78.72271729,1,0,0,response1disk,,7,5.870727539,15.94500732,1,0,0,rectangle,5.870727539,15.94500732,1,0,0,5.870727539,15.94500732,1,0,0,0,158,158,135,1,,,,,,,,
,,,,,,,,,,,,,FF,,,,,,,,0.6181,,,,,,,,,,,,,,,,,,,,,,61035476b946ec7981de1dae,610369fd825c5dfea8a60333,2021-07-29_21h55.23.462,Simcolourproject_2stim_asymm_v5,2020.2.10,MacIntel,60,61025ae37ef11b136ea224fe,,,,,,,,,4177,22.0055542,59.66949463,1,0,0,response1disk,,7,9.703674316,8.945922852,1,0,0,rectangle,9.703674316,8.945922852,1,0,0,9.703674316,8.945922852,1,0,0,0,159,159,133,1,,,,,,,,
,,,,,,,,,,,,,FF,,,,,,,,1.4679,,,,,,,,,,,,,,,,,,,,,,61035476b946ec7981de1dae,610369fd825c5dfea8a60333,2021-07-29_21h55.23.462,Simcolourproject_2stim_asymm_v5,2020.2.10,MacIntel,60,61025ae37ef11b136ea224fe,,,,,,,,,1542,49.68310547,35.56958008,1,0,0,response1disk,,6,12.7600708,12.74584961,1,0,0,rectangle,12.7600708,12.74584961,1,0,0,12.7600708,12.74584961,1,0,0,1,0,160,53,1,,,,,,,,
,,,,,,,,,,,,,FF,,,,,,,,0.5881,,,,,,,,,,,,,,,,,,,,,,61035476b946ec7981de1dae,610369fd825c5dfea8a60333,2021-07-29_21h55.23.462,Simcolourproject_2stim_asymm_v5,2020.2.10,MacIntel,60,61025ae37ef11b136ea224fe,,,,,,,,,2119,20.90716553,55.41049194,1,0,0,response1disk,,7,6.208618164,1.824432373,1,0,0,rectangle,6.208618164,1.824432373,1,0,0,6.208618164,1.824432373,1,0,0,1,1,161,48,1,,,,,,,,
,,,,,,,,,,,,,FF,,,,,,,,1.0753,,,,,,,,,,,,,,,,,,,,,,61035476b946ec7981de1dae,610369fd825c5dfea8a60333,2021-07-29_21h55.23.462,Simcolourproject_2stim_asymm_v5,2020.2.10,MacIntel,60,61025ae37ef11b136ea224fe,,,,,,,,,3919,21.18414307,47.63650513,1,0,0,response1disk,,7,7.06829834,-0.777648926,1,0,0,rectangle,7.06829834,-0.777648926,1,0,0,7.06829834,-0.777648926,1,0,0,1,2,162,136,1,,,,,,,,
,,,,,,,,,,,,,FF,,,,,,,,0.6837,,,,,,,,,,,,,,,,,,,,,,61035476b946ec7981de1dae,610369fd825c5dfea8a60333,2021-07-29_21h55.23.462,Simcolourproject_2stim_asymm_v5,2020.2.10,MacIntel,60,61025ae37ef11b136ea224fe,,,,,,,,,1099,21.89361572,47.09265137,1,0,0,response1disk,,7,12.37841797,-2.7421875,1,0,0,rectangle,12.37841797,-2.7421875,1,0,0,12.37841797,-2.7421875,1,0,0,1,3,163,147,1,,,,,,,,
,,,,,,,,,,,,,FF,,,,,,,,0.9867,,,,,,,,,,,,,,,,,,,,,,61035476b946ec7981de1dae,610369fd825c5dfea8a60333,2021-07-29_21h55.23.462,Simcolourproject_2stim_asymm_v5,2020.2.10,MacIntel,60,61025ae37ef11b136ea224fe,,,,,,,,,722,-61.05895996,-30.70892334,1,0,0,response5disk,,2,-8.969726563,-0.029907227,1,0,0,rectangle,-8.969726563,-0.029907227,1,0,0,-8.969726563,-0.029907227,1,0,0,1,4,164,23,1,,,,,,,,
,,,,,,,,,,,,,FF,,,,,,,,1.1352,,,,,,,,,,,,,,,,,,,,,,61035476b946ec7981de1dae,610369fd825c5dfea8a60333,2021-07-29_21h55.23.462,Simcolourproject_2stim_asymm_v5,2020.2.10,MacIntel,60,61025ae37ef11b136ea224fe,,,,,,,,,1581,29.29205322,-63.21734619,1,0,0,response3disk,,4,-0.252685547,-6.098419189,1,0,0,rectangle,-0.252685547,-6.098419189,1,0,0,-0.252685547,-6.098419189,1,0,0,1,5,165,55,1,,,,,,,,
,,,,,,,,,,,,,FF,,,,,,,,1.2001,,,,,,,,,,,,,,,,,,,,,,61035476b946ec7981de1dae,610369fd825c5dfea8a60333,2021-07-29_21h55.23.462,Simcolourproject_2stim_asymm_v5,2020.2.10,MacIntel,60,61025ae37ef11b136ea224fe,,,,,,,,,2824,-40.27838135,-68.61016846,1,0,0,response5disk,,3,-11.4352417,-5.908081055,1,0,0,rectangle,-11.4352417,-5.908081055,1,0,0,-11.4352417,-5.908081055,1,0,0,1,6,166,141,1,,,,,,,,
,,,,,,,,,,,,,FF,,,,,,,,2.2176,,,,,,,,,,,,,,,,,,,,,,61035476b946ec7981de1dae,610369fd825c5dfea8a60333,2021-07-29_21h55.23.462,Simcolourproject_2stim_asymm_v5,2020.2.10,MacIntel,60,61025ae37ef11b136ea224fe,,,,,,,,,1563,49.26623535,31.87857056,1,0,0,response1disk,,6,13.87390137,2.139831543,1,0,0,rectangle,13.87390137,2.139831543,1,0,0,13.87390137,2.139831543,1,0,0,1,7,167,42,1,,,,,,,,
,,,,,,,,,,,,,FF,,,,,,,,0.9683,,,,,,,,,,,,,,,,,,,,,,61035476b946ec7981de1dae,610369fd825c5dfea8a60333,2021-07-29_21h55.23.462,Simcolourproject_2stim_asymm_v5,2020.2.10,MacIntel,60,61025ae37ef11b136ea224fe,,,,,,,,,2848,38.00671387,21.97937012,1,0,0,response1disk,,6,7.278930664,7.745666504,1,0,0,rectangle,7.278930664,7.745666504,1,0,0,7.278930664,7.745666504,1,0,0,1,8,168,96,1,,,,,,,,
,,,,,,,,,,,,,FF,,,,,,,,1.4967,,,,,,,,,,,,,,,,,,,,,,61035476b946ec7981de1dae,610369fd825c5dfea8a60333,2021-07-29_21h55.23.462,Simcolourproject_2stim_asymm_v5,2020.2.10,MacIntel,60,61025ae37ef11b136ea224fe,,,,,,,,,205,40.7822876,77.54995728,1,0,0,response1disk,,7,7.62902832,-2.897705078,1,0,0,rectangle,7.62902832,-2.897705078,1,0,0,7.62902832,-2.897705078,1,0,0,1,9,169,26,1,,,,,,,,
,,,,,,,,,,,,,FF,,,,,,,,1.618,,,,,,,,,,,,,,,,,,,,,,61035476b946ec7981de1dae,610369fd825c5dfea8a60333,2021-07-29_21h55.23.462,Simcolourproject_2stim_asymm_v5,2020.2.10,MacIntel,60,61025ae37ef11b136ea224fe,,,,,,,,,738,65.71875,29.50650024,1,0,0,response1disk,,6,19.81329346,2.753051758,1,0,0,rectangle,68.88269043,38.57327271,1,0,0,8.382568359,-1.02545166,1,0,0,1,10,170,3,1,,response1disk_3,TRUE,6,6,"[243,171,69,188,181,193,43,43,78,62,183,50,195,66,135,47,138,130,228,180]",1.8001,rectangle
,,,,,,,,,,,,,FF,,,,,,,,1.8023,,,,,,,,,,,,,,,,,,,,,,61035476b946ec7981de1dae,610369fd825c5dfea8a60333,2021-07-29_21h55.23.462,Simcolourproject_2stim_asymm_v5,2020.2.10,MacIntel,60,61025ae37ef11b136ea224fe,,,,,,,,,198,36.80102539,-71.57461548,1,0,0,response3disk,,4,18.80218506,-3.212219238,1,0,0,rectangle,18.80218506,-3.212219238,1,0,0,18.80218506,-3.212219238,1,0,0,1,11,171,47,1,,,,,,,,
,,,,,,,,,,,,,FF,,,,,,,,1.6502,,,,,,,,,,,,,,,,,,,,,,61035476b946ec7981de1dae,610369fd825c5dfea8a60333,2021-07-29_21h55.23.462,Simcolourproject_2stim_asymm_v5,2020.2.10,MacIntel,60,61025ae37ef11b136ea224fe,,,,,,,,,102,29.92425537,-48.73291016,1,0,0,response3disk,,4,2.989135742,-9.86151123,1,0,0,rectangle,2.989135742,-9.86151123,1,0,0,2.989135742,-9.86151123,1,0,0,1,12,172,79,1,,,,,,,,
,,,,,,,,,,,,,FF,,,,,,,,1.501,,,,,,,,,,,,,,,,,,,,,,61035476b946ec7981de1dae,610369fd825c5dfea8a60333,2021-07-29_21h55.23.462,Simcolourproject_2stim_asymm_v5,2020.2.10,MacIntel,60,61025ae37ef11b136ea224fe,,,,,,,,,561,77.78588867,40.25527954,1,0,0,response1disk,,6,6.510437012,-1.676025391,1,0,0,rectangle,6.510437012,-1.676025391,1,0,0,6.510437012,-1.676025391,1,0,0,1,13,173,81,1,,,,,,,,
,,,,,,,,,,,,,FF,,,,,,,,0.7306,,,,,,,,,,,,,,,,,,,,,,61035476b946ec7981de1dae,610369fd825c5dfea8a60333,2021-07-29_21h55.23.462,Simcolourproject_2stim_asymm_v5,2020.2.10,MacIntel,60,61025ae37ef11b136ea224fe,,,,,,,,,3281,25.07623291,70.05859375,1,0,0,response1disk,,7,13.83483887,8.185546875,1,0,0,rectangle,13.83483887,8.185546875,1,0,0,13.83483887,8.185546875,1,0,0,1,14,174,123,1,,,,,,,,
,,,,,,,,,,,,,FF,,,,,,,,1.5341,,,,,,,,,,,,,,,,,,,,,,61035476b946ec7981de1dae,610369fd825c5dfea8a60333,2021-07-29_21h55.23.462,Simcolourproject_2stim_asymm_v5,2020.2.10,MacIntel,60,61025ae37ef11b136ea224fe,,,,,,,,,721,48.33404541,-74.23364258,1,0,0,response3disk,,4,21.78778076,-5.95223999,1,0,0,rectangle,21.78778076,-5.95223999,1,0,0,21.78778076,-5.95223999,1,0,0,1,15,175,65,1,,,,,,,,
,,,,,,,,,,,,,FF,,,,,,,,1.2345,,,,,,,,,,,,,,,,,,,,,,61035476b946ec7981de1dae,610369fd825c5dfea8a60333,2021-07-29_21h55.23.462,Simcolourproject_2stim_asymm_v5,2020.2.10,MacIntel,60,61025ae37ef11b136ea224fe,,,,,,,,,4247,29.64782715,52.37792969,1,0,0,response1disk,,7,9.66217041,2.126342773,1,0,0,rectangle,9.66217041,2.126342773,1,0,0,9.66217041,2.126342773,1,0,0,1,16,176,43,1,,,,,,,,
,,,,,,,,,,,,,FF,,,,,,,,0.8865,,,,,,,,,,,,,,,,,,,,,,61035476b946ec7981de1dae,610369fd825c5dfea8a60333,2021-07-29_21h55.23.462,Simcolourproject_2stim_asymm_v5,2020.2.10,MacIntel,60,61025ae37ef11b136ea224fe,,,,,,,,,21,23.90600586,49.86724854,1,0,0,response1disk,,7,15.56567383,10.18133545,1,0,0,rectangle,15.56567383,10.18133545,1,0,0,15.56567383,10.18133545,1,0,0,1,17,177,157,1,,,,,,,,
,,,,,,,,,,,,,FF,,,,,,,,1.1033,,,,,,,,,,,,,,,,,,,,,,61035476b946ec7981de1dae,610369fd825c5dfea8a60333,2021-07-29_21h55.23.462,Simcolourproject_2stim_asymm_v5,2020.2.10,MacIntel,60,61025ae37ef11b136ea224fe,,,,,,,,,169,-67.58947754,-42.67953491,1,0,0,response5disk,,2,-8.343322754,-6.292327881,1,0,0,rectangle,-8.343322754,-6.292327881,1,0,0,-8.343322754,-6.292327881,1,0,0,1,18,178,122,1,,,,,,,,
,,,,,,,,,,,,,FF,,,,,,,,1.2834,,,,,,,,,,,,,,,,,,,,,,61035476b946ec7981de1dae,610369fd825c5dfea8a60333,2021-07-29_21h55.23.462,Simcolourproject_2stim_asymm_v5,2020.2.10,MacIntel,60,61025ae37ef11b136ea224fe,,,,,,,,,4250,-60.80126953,-36.2432251,1,0,0,response5disk,,2,-13.14550781,-7.214813232,1,0,0,rectangle,-30.06079102,72.61755371,1,0,0,-8.080444336,6.600799561,1,0,0,1,19,179,131,1,,response7disk_3,TRUE,0,0,"[243,171,69,188,181,193,43,43,78,62,183,50,195,66,135,47,138,130,228,180]",1.9675,rectangle
,,,,,,,,,,,,,FF,,,,,,,,0.7342,,,,,,,,,,,,,,,,,,,,,,61035476b946ec7981de1dae,610369fd825c5dfea8a60333,2021-07-29_21h55.23.462,Simcolourproject_2stim_asymm_v5,2020.2.10,MacIntel,60,61025ae37ef11b136ea224fe,,,,,,,,,2335,40.99908447,81.26953125,1,0,0,response1disk,,7,9.668457031,5.341552734,1,0,0,rectangle,80.33178711,40.85449219,1,0,0,14.54492188,7.390197754,1,0,0,1,20,180,111,1,,response1disk_3,TRUE,6,6,"[243,171,69,188,181,193,43,43,78,62,183,50,195,66,135,47,138,130,228,180]",1.2338,rectangle
,,,,,,,,,,,,,FF,,,,,,,,1.9842,,,,,,,,,,,,,,,,,,,,,,61035476b946ec7981de1dae,610369fd825c5dfea8a60333,2021-07-29_21h55.23.462,Simcolourproject_2stim_asymm_v5,2020.2.10,MacIntel,60,61025ae37ef11b136ea224fe,,,,,,,,,3353,21.5355835,90.23022461,1,0,0,response1disk,,7,3.548156738,7.354797363,1,0,0,rectangle,3.548156738,7.354797363,1,0,0,3.548156738,7.354797363,1,0,0,1,21,181,67,1,,,,,,,,
,,,,,,,,,,,,,FF,,,,,,,,0.6482,,,,,,,,,,,,,,,,,,,,,,61035476b946ec7981de1dae,610369fd825c5dfea8a60333,2021-07-29_21h55.23.462,Simcolourproject_2stim_asymm_v5,2020.2.10,MacIntel,60,61025ae37ef11b136ea224fe,,,,,,,,,2911,36.97436523,74.32452393,1,0,0,response1disk,,7,10.25610352,10.53091431,1,0,0,rectangle,60.91888428,29.23956299,1,0,0,5.219848633,6.382385254,1,0,0,1,22,182,38,1,,response1disk_3,TRUE,6,6,"[243,171,69,188,181,193,43,43,78,62,183,50,195,66,135,47,138,130,228,180]",1.1513,rectangle
,,,,,,,,,,,,,FF,,,,,,,,1.068,,,,,,,,,,,,,,,,,,,,,,61035476b946ec7981de1dae,610369fd825c5dfea8a60333,2021-07-29_21h55.23.462,Simcolourproject_2stim_asymm_v5,2020.2.10,MacIntel,60,61025ae37ef11b136ea224fe,,,,,,,,,770,47.36657715,78.89056396,1,0,0,response1disk,,7,10.40209961,5.824432373,1,0,0,rectangle,10.40209961,5.824432373,1,0,0,10.40209961,5.824432373,1,0,0,1,23,183,159,1,,,,,,,,
,,,,,,,,,,,,,FF,,,,,,,,1.0196,,,,,,,,,,,,,,,,,,,,,,61035476b946ec7981de1dae,610369fd825c5dfea8a60333,2021-07-29_21h55.23.462,Simcolourproject_2stim_asymm_v5,2020.2.10,MacIntel,60,61025ae37ef11b136ea224fe,,,,,,,,,3754,31.56329346,-64.27532959,1,0,0,response3disk,,4,-0.175109863,-10.5567627,1,0,0,rectangle,-0.175109863,-10.5567627,1,0,0,-0.175109863,-10.5567627,1,0,0,1,24,184,5,1,,,,,,,,
,,,,,,,,,,,,,FF,,,,,,,,1.0837,,,,,,,,,,,,,,,,,,,,,,61035476b946ec7981de1dae,610369fd825c5dfea8a60333,2021-07-29_21h55.23.462,Simcolourproject_2stim_asymm_v5,2020.2.10,MacIntel,60,61025ae37ef11b136ea224fe,,,,,,,,,2677,26.01208496,-42.86834717,1,0,0,response3disk,,4,10.8963623,-1.521240234,1,0,0,rectangle,10.8963623,-1.521240234,1,0,0,10.8963623,-1.521240234,1,0,0,1,25,185,158,1,,,,,,,,
,,,,,,,,,,,,,FF,,,,,,,,1.4669,,,,,,,,,,,,,,,,,,,,,,61035476b946ec7981de1dae,610369fd825c5dfea8a60333,2021-07-29_21h55.23.462,Simcolourproject_2stim_asymm_v5,2020.2.10,MacIntel,60,61025ae37ef11b136ea224fe,,,,,,,,,3669,-65.6776123,42.25921631,1,0,0,response7disk,,1,-2.08380127,10.9822998,1,0,0,rectangle,-2.08380127,10.9822998,1,0,0,-2.08380127,10.9822998,1,0,0,1,26,186,33,1,,,,,,,,
,,,,,,,,,,,,,FF,,,,,,,,0.8682,,,,,,,,,,,,,,,,,,,,,,61035476b946ec7981de1dae,610369fd825c5dfea8a60333,2021-07-29_21h55.23.462,Simcolourproject_2stim_asymm_v5,2020.2.10,MacIntel,60,61025ae37ef11b136ea224fe,,,,,,,,,3639,29.30200195,62.6463623,1,0,0,response1disk,,7,13.75872803,7.769714355,1,0,0,rectangle,-68.91760254,-26.953125,1,0,0,7.042785645,-0.667541504,1,0,0,1,27,187,92,1,,response5disk_3,TRUE,2,2,"[243,171,69,188,181,193,43,43,78,62,183,50,195,66,135,47,138,130,228,180]",2.5691,rectangle
,,,,,,,,,,,,,FF,,,,,,,,2.636,,,,,,,,,,,,,,,,,,,,,,61035476b946ec7981de1dae,610369fd825c5dfea8a60333,2021-07-29_21h55.23.462,Simcolourproject_2stim_asymm_v5,2020.2.10,MacIntel,60,61025ae37ef11b136ea224fe,,,,,,,,,4121,-52.34680176,-74.23449707,1,0,0,response5disk,,3,5.339233398,-7.242492676,1,0,0,rectangle,5.339233398,-7.242492676,1,0,0,5.339233398,-7.242492676,1,0,0,1,28,188,146,1,,,,,,,,
,,,,,,,,,,,,,FF,,,,,,,,1.0839,,,,,,,,,,,,,,,,,,,,,,61035476b946ec7981de1dae,610369fd825c5dfea8a60333,2021-07-29_21h55.23.462,Simcolourproject_2stim_asymm_v5,2020.2.10,MacIntel,60,61025ae37ef11b136ea224fe,,,,,,,,,701,24.09637451,-66.40411377,1,0,0,response3disk,,4,9.132751465,-15.76275635,1,0,0,rectangle,9.132751465,-15.76275635,1,0,0,9.132751465,-15.76275635,1,0,0,1,29,189,39,1,,,,,,,,
,,,,,,,,,,,,,FF,,,,,,,,0.8416,,,,,,,,,,,,,,,,,,,,,,61035476b946ec7981de1dae,610369fd825c5dfea8a60333,2021-07-29_21h55.23.462,Simcolourproject_2stim_asymm_v5,2020.2.10,MacIntel,60,61025ae37ef11b136ea224fe,,,,,,,,,1322,26.34350586,55.02902222,1,0,0,response1disk,,7,9.203491211,-0.54574585,1,0,0,rectangle,9.203491211,-0.54574585,1,0,0,9.203491211,-0.54574585,1,0,0,1,30,190,7,1,,,,,,,,
,,,,,,,,,,,,,FF,,,,,,,,0.867,,,,,,,,,,,,,,,,,,,,,,61035476b946ec7981de1dae,610369fd825c5dfea8a60333,2021-07-29_21h55.23.462,Simcolourproject_2stim_asymm_v5,2020.2.10,MacIntel,60,61025ae37ef11b136ea224fe,,,,,,,,,620,-54.42602539,36.85534668,1,0,0,response7disk,,1,3.17578125,3.525878906,1,0,0,rectangle,3.17578125,3.525878906,1,0,0,3.17578125,3.525878906,1,0,0,1,31,191,60,1,,,,,,,,
,,,,,,,,,,,,,FF,,,,,,,,0.752,,,,,,,,,,,,,,,,,,,,,,61035476b946ec7981de1dae,610369fd825c5dfea8a60333,2021-07-29_21h55.23.462,Simcolourproject_2stim_asymm_v5,2020.2.10,MacIntel,60,61025ae37ef11b136ea224fe,,,,,,,,,1984,27.86340332,52.66760254,1,0,0,response1disk,,7,8.792602539,3.512237549,1,0,0,rectangle,26.44219971,80.31311035,1,0,0,20.84735107,-7.085327148,1,0,0,1,32,192,51,1,,response1disk_3,TRUE,7,7,"[243,171,69,188,181,193,43,43,78,62,183,50,195,66,135,47,138,130,228,180]",2.1673,rectangle
,,,,,,,,,,,,,FF,,,,,,,,1.5851,,,,,,,,,,,,,,,,,,,,,,61035476b946ec7981de1dae,610369fd825c5dfea8a60333,2021-07-29_21h55.23.462,Simcolourproject_2stim_asymm_v5,2020.2.10,MacIntel,60,61025ae37ef11b136ea224fe,,,,,,,,,250,-25.75012207,-70.8664856,1,0,0,response5disk,,3,-12.17803955,-12.40127563,1,0,0,rectangle,-12.17803955,-12.40127563,1,0,0,-12.17803955,-12.40127563,1,0,0,1,33,193,10,1,,,,,,,,
,,,,,,,,,,,,,FF,,,,,,,,1.9885,,,,,,,,,,,,,,,,,,,,,,61035476b946ec7981de1dae,610369fd825c5dfea8a60333,2021-07-29_21h55.23.462,Simcolourproject_2stim_asymm_v5,2020.2.10,MacIntel,60,61025ae37ef11b136ea224fe,,,,,,,,,3636,37.52789307,-86.60546875,1,0,0,response3disk,,4,16.81335449,-5.282409668,1,0,0,rectangle,-71.68676758,35.40490723,1,0,0,-13.45751953,6.547363281,1,0,0,1,34,194,107,1,,response7disk_3,TRUE,1,1,"[243,171,69,188,181,193,43,43,78,62,183,50,195,66,135,47,138,130,228,180]",1.3572,rectangle
,,,,,,,,,,,,,FF,,,,,,,,1.1836,,,,,,,,,,,,,,,,,,,,,,61035476b946ec7981de1dae,610369fd825c5dfea8a60333,2021-07-29_21h55.23.462,Simcolourproject_2stim_asymm_v5,2020.2.10,MacIntel,60,61025ae37ef11b136ea224fe,,,,,,,,,3064,39.13012695,-51.94342041,1,0,0,response3disk,,4,14.45935059,-9.286987305,1,0,0,rectangle,14.45935059,-9.286987305,1,0,0,14.45935059,-9.286987305,1,0,0,1,35,195,72,1,,,,,,,,
,,,,,,,,,,,,,FF,,,,,,,,1.9503,,,,,,,,,,,,,,,,,,,,,,61035476b946ec7981de1dae,610369fd825c5dfea8a60333,2021-07-29_21h55.23.462,Simcolourproject_2stim_asymm_v5,2020.2.10,MacIntel,60,61025ae37ef11b136ea224fe,,,,,,,,,3982,79.71203613,-34.23632813,1,0,0,response3disk,,5,14.63061523,-12.66021729,1,0,0,rectangle,14.63061523,-12.66021729,1,0,0,14.63061523,-12.66021729,1,0,0,1,36,196,149,1,,,,,,,,
,,,,,,,,,,,,,FF,,,,,,,,1.3518,,,,,,,,,,,,,,,,,,,,,,61035476b946ec7981de1dae,610369fd825c5dfea8a60333,2021-07-29_21h55.23.462,Simcolourproject_2stim_asymm_v5,2020.2.10,MacIntel,60,61025ae37ef11b136ea224fe,,,,,,,,,1911,64.58630371,42.9887085,1,0,0,response1disk,,6,-3.313171387,-2.97958374,1,0,0,rectangle,-3.313171387,-2.97958374,1,0,0,-3.313171387,-2.97958374,1,0,0,1,37,197,8,1,,,,,,,,
,,,,,,,,,,,,,FF,,,,,,,,0.7166,,,,,,,,,,,,,,,,,,,,,,61035476b946ec7981de1dae,610369fd825c5dfea8a60333,2021-07-29_21h55.23.462,Simcolourproject_2stim_asymm_v5,2020.2.10,MacIntel,60,61025ae37ef11b136ea224fe,,,,,,,,,238,24.90246582,61.25308228,1,0,0,response1disk,,7,9.287475586,4.418701172,1,0,0,rectangle,9.287475586,4.418701172,1,0,0,9.287475586,4.418701172,1,0,0,1,38,198,18,1,,,,,,,,
,,,,,,,,,,,,,FF,,,,,,,,0.7663,,,,,,,,,,,,,,,,,,,,,,61035476b946ec7981de1dae,610369fd825c5dfea8a60333,2021-07-29_21h55.23.462,Simcolourproject_2stim_asymm_v5,2020.2.10,MacIntel,60,61025ae37ef11b136ea224fe,,,,,,,,,2393,35.37414551,68.95782471,1,0,0,response1disk,,7,13.06665039,7.671875,1,0,0,rectangle,13.06665039,7.671875,1,0,0,13.06665039,7.671875,1,0,0,1,39,199,77,1,,,,,,,,
,,,,,,,,,,,,,FF,,,,,,,,0.8965,,,,,,,,,,,,,,,,,,,,,,61035476b946ec7981de1dae,610369fd825c5dfea8a60333,2021-07-29_21h55.23.462,Simcolourproject_2stim_asymm_v5,2020.2.10,MacIntel,60,61025ae37ef11b136ea224fe,,,,,,,,,3518,22.59960938,-37.90789795,1,0,0,response3disk,,4,10.82794189,-6.130249023,1,0,0,rectangle,10.82794189,-6.130249023,1,0,0,10.82794189,-6.130249023,1,0,0,1,40,200,58,1,,,,,,,,
,,,,,,,,,,,,,FF,,,,,,,,0.8682,,,,,,,,,,,,,,,,,,,,,,61035476b946ec7981de1dae,610369fd825c5dfea8a60333,2021-07-29_21h55.23.462,Simcolourproject_2stim_asymm_v5,2020.2.10,MacIntel,60,61025ae37ef11b136ea224fe,,,,,,,,,4048,31.45458984,-50.83712769,1,0,0,response3disk,,4,20.30480957,-14.22698975,1,0,0,rectangle,20.30480957,-14.22698975,1,0,0,20.30480957,-14.22698975,1,0,0,1,41,201,37,1,,,,,,,,
,,,,,,,,,,,,,FF,,,,,,,,0.9008,,,,,,,,,,,,,,,,,,,,,,61035476b946ec7981de1dae,610369fd825c5dfea8a60333,2021-07-29_21h55.23.462,Simcolourproject_2stim_asymm_v5,2020.2.10,MacIntel,60,61025ae37ef11b136ea224fe,,,,,,,,,3938,-63.39575195,-30.54266357,1,0,0,response5disk,,2,-22.3638916,-15.35522461,1,0,0,rectangle,-22.3638916,-15.35522461,1,0,0,-22.3638916,-15.35522461,1,0,0,1,42,202,145,1,,,,,,,,
,,,,,,,,,,,,,FF,,,,,,,,1.4165,,,,,,,,,,,,,,,,,,,,,,61035476b946ec7981de1dae,610369fd825c5dfea8a60333,2021-07-29_21h55.23.462,Simcolourproject_2stim_asymm_v5,2020.2.10,MacIntel,60,61025ae37ef11b136ea224fe,,,,,,,,,2059,23.48339844,72.34143066,1,0,0,response1disk,,7,7.099609375,9.740814209,1,0,0,rectangle,7.099609375,9.740814209,1,0,0,7.099609375,9.740814209,1,0,0,1,43,203,61,1,,,,,,,,
,,,,,,,,,,,,,FF,,,,,,,,1.4681,,,,,,,,,,,,,,,,,,,,,,61035476b946ec7981de1dae,610369fd825c5dfea8a60333,2021-07-29_21h55.23.462,Simcolourproject_2stim_asymm_v5,2020.2.10,MacIntel,60,61025ae37ef11b136ea224fe,,,,,,,,,527,-30.30566406,-80.14459229,1,0,0,response5disk,,3,-20.90527344,-2.207824707,1,0,0,rectangle,-20.90527344,-2.207824707,1,0,0,-20.90527344,-2.207824707,1,0,0,1,44,204,125,1,,,,,,,,
,,,,,,,,,,,,,FF,,,,,,,,0.6836,,,,,,,,,,,,,,,,,,,,,,61035476b946ec7981de1dae,610369fd825c5dfea8a60333,2021-07-29_21h55.23.462,Simcolourproject_2stim_asymm_v5,2020.2.10,MacIntel,60,61025ae37ef11b136ea224fe,,,,,,,,,4309,27.07897949,87.28503418,1,0,0,response1disk,,7,1.714477539,-8.903808594,1,0,0,rectangle,1.714477539,-8.903808594,1,0,0,1.714477539,-8.903808594,1,0,0,1,45,205,46,1,,,,,,,,
,,,,,,,,,,,,,FF,,,,,,,,2.3684,,,,,,,,,,,,,,,,,,,,,,61035476b946ec7981de1dae,610369fd825c5dfea8a60333,2021-07-29_21h55.23.462,Simcolourproject_2stim_asymm_v5,2020.2.10,MacIntel,60,61025ae37ef11b136ea224fe,,,,,,,,,2172,38.11334229,-53.67636108,1,0,0,response3disk,,4,19.70941162,-3.59753418,1,0,0,rectangle,19.70941162,-3.59753418,1,0,0,19.70941162,-3.59753418,1,0,0,1,46,206,150,1,,,,,,,,
,,,,,,,,,,,,,FF,,,,,,,,0.6494,,,,,,,,,,,,,,,,,,,,,,61035476b946ec7981de1dae,610369fd825c5dfea8a60333,2021-07-29_21h55.23.462,Simcolourproject_2stim_asymm_v5,2020.2.10,MacIntel,60,61025ae37ef11b136ea224fe,,,,,,,,,3032,28.54370117,43.26385498,1,0,0,response1disk,,7,20.75817871,13.35766602,1,0,0,rectangle,20.75817871,13.35766602,1,0,0,20.75817871,13.35766602,1,0,0,1,47,207,63,1,,,,,,,,
,,,,,,,,,,,,,FF,,,,,,,,1.0012,,,,,,,,,,,,,,,,,,,,,,61035476b946ec7981de1dae,610369fd825c5dfea8a60333,2021-07-29_21h55.23.462,Simcolourproject_2stim_asymm_v5,2020.2.10,MacIntel,60,61025ae37ef11b136ea224fe,,,,,,,,,2680,45.19927979,-18.10217285,1,0,0,response3disk,,5,9.417541504,1.086242676,1,0,0,rectangle,9.417541504,1.086242676,1,0,0,9.417541504,1.086242676,1,0,0,1,48,208,120,1,,,,,,,,
,,,,,,,,,,,,,FF,,,,,,,,1.568,,,,,,,,,,,,,,,,,,,,,,61035476b946ec7981de1dae,610369fd825c5dfea8a60333,2021-07-29_21h55.23.462,Simcolourproject_2stim_asymm_v5,2020.2.10,MacIntel,60,61025ae37ef11b136ea224fe,,,,,,,,,3710,71.72412109,39.8269043,1,0,0,response1disk,,6,2.100158691,3.512023926,1,0,0,rectangle,2.100158691,3.512023926,1,0,0,2.100158691,3.512023926,1,0,0,1,49,209,126,1,,,,,,,,
,,,,,,,,,,,,,FF,,,,,,,,4.3017,,,,,,,,,,,,,,,,,,,,,,61035476b946ec7981de1dae,610369fd825c5dfea8a60333,2021-07-29_21h55.23.462,Simcolourproject_2stim_asymm_v5,2020.2.10,MacIntel,60,61025ae37ef11b136ea224fe,,,,,,,,,2309,30.56677246,68.93624878,1,0,0,response1disk,,7,-0.261657715,-7.805328369,1,0,0,rectangle,-0.261657715,-7.805328369,1,0,0,-0.261657715,-7.805328369,1,0,0,1,50,210,64,1,,,,,,,,
,,,,,,,,,,,,,FF,,,,,,,,1.284,,,,,,,,,,,,,,,,,,,,,,61035476b946ec7981de1dae,610369fd825c5dfea8a60333,2021-07-29_21h55.23.462,Simcolourproject_2stim_asymm_v5,2020.2.10,MacIntel,60,61025ae37ef11b136ea224fe,,,,,,,,,1888,-68.86779785,30.40365601,1,0,0,response7disk,,1,-23.019104,7.114868164,1,0,0,rectangle,-23.019104,7.114868164,1,0,0,-23.019104,7.114868164,1,0,0,1,51,211,110,1,,,,,,,,
,,,,,,,,,,,,,FF,,,,,,,,2.951,,,,,,,,,,,,,,,,,,,,,,61035476b946ec7981de1dae,610369fd825c5dfea8a60333,2021-07-29_21h55.23.462,Simcolourproject_2stim_asymm_v5,2020.2.10,MacIntel,60,61025ae37ef11b136ea224fe,,,,,,,,,1243,79.7789917,15.98803711,1,0,0,response1disk,,6,0.288757324,-14.03131104,1,0,0,rectangle,0.288757324,-14.03131104,1,0,0,0.288757324,-14.03131104,1,0,0,1,52,212,130,1,,,,,,,,
,,,,,,,,,,,,,FF,,,,,,,,1.7665,,,,,,,,,,,,,,,,,,,,,,61035476b946ec7981de1dae,610369fd825c5dfea8a60333,2021-07-29_21h55.23.462,Simcolourproject_2stim_asymm_v5,2020.2.10,MacIntel,60,61025ae37ef11b136ea224fe,,,,,,,,,1866,32.21759033,56.64086914,1,0,0,response1disk,,7,6.703552246,13.6661377,1,0,0,rectangle,6.703552246,13.6661377,1,0,0,6.703552246,13.6661377,1,0,0,1,53,213,59,1,,,,,,,,
,,,,,,,,,,,,,FF,,,,,,,,0.6173,,,,,,,,,,,,,,,,,,,,,,61035476b946ec7981de1dae,610369fd825c5dfea8a60333,2021-07-29_21h55.23.462,Simcolourproject_2stim_asymm_v5,2020.2.10,MacIntel,60,61025ae37ef11b136ea224fe,,,,,,,,,2462,36.84637451,60.99713135,1,0,0,response1disk,,7,3.89050293,8.588745117,1,0,0,rectangle,3.89050293,8.588745117,1,0,0,3.89050293,8.588745117,1,0,0,1,54,214,15,1,,,,,,,,
,,,,,,,,,,,,,FF,,,,,,,,3.5956,,,,,,,,,,,,,,,,,,,,,,61035476b946ec7981de1dae,610369fd825c5dfea8a60333,2021-07-29_21h55.23.462,Simcolourproject_2stim_asymm_v5,2020.2.10,MacIntel,60,61025ae37ef11b136ea224fe,,,,,,,,,3235,-50.61547852,-65.27841187,1,0,0,response5disk,,3,-11.65838623,-8.742706299,1,0,0,rectangle,-11.65838623,-8.742706299,1,0,0,-11.65838623,-8.742706299,1,0,0,1,55,215,57,1,,,,,,,,
,,,,,,,,,,,,,FF,,,,,,,,1.9397,,,,,,,,,,,,,,,,,,,,,,61035476b946ec7981de1dae,610369fd825c5dfea8a60333,2021-07-29_21h55.23.462,Simcolourproject_2stim_asymm_v5,2020.2.10,MacIntel,60,61025ae37ef11b136ea224fe,,,,,,,,,367,-77.67877197,-19.67468262,1,0,0,response5disk,,2,-14.2555542,5.334594727,1,0,0,rectangle,-14.2555542,5.334594727,1,0,0,-14.2555542,5.334594727,1,0,0,1,56,216,94,1,,,,,,,,
,,,,,,,,,,,,,FF,,,,,,,,0.9838,,,,,,,,,,,,,,,,,,,,,,61035476b946ec7981de1dae,610369fd825c5dfea8a60333,2021-07-29_21h55.23.462,Simcolourproject_2stim_asymm_v5,2020.2.10,MacIntel,60,61025ae37ef11b136ea224fe,,,,,,,,,2430,32.26416016,56.22320557,1,0,0,response1disk,,7,10.07696533,14.74243164,1,0,0,rectangle,10.07696533,14.74243164,1,0,0,10.07696533,14.74243164,1,0,0,1,57,217,56,1,,,,,,,,
,,,,,,,,,,,,,FF,,,,,,,,0.6987,,,,,,,,,,,,,,,,,,,,,,61035476b946ec7981de1dae,610369fd825c5dfea8a60333,2021-07-29_21h55.23.462,Simcolourproject_2stim_asymm_v5,2020.2.10,MacIntel,60,61025ae37ef11b136ea224fe,,,,,,,,,4226,25.31439209,63.48596191,1,0,0,response1disk,,7,18.6661377,10.31951904,1,0,0,rectangle,18.6661377,10.31951904,1,0,0,18.6661377,10.31951904,1,0,0,1,58,218,139,1,,,,,,,,
,,,,,,,,,,,,,FF,,,,,,,,2.4191,,,,,,,,,,,,,,,,,,,,,,61035476b946ec7981de1dae,610369fd825c5dfea8a60333,2021-07-29_21h55.23.462,Simcolourproject_2stim_asymm_v5,2020.2.10,MacIntel,60,61025ae37ef11b136ea224fe,,,,,,,,,3142,-24.5378418,-90.57305908,1,0,0,response5disk,,3,-5.208251953,-4.02142334,1,0,0,rectangle,-5.208251953,-4.02142334,1,0,0,-5.208251953,-4.02142334,1,0,0,1,59,219,91,1,,,,,,,,
,,,,,,,,,,,,,FF,,,,,,,,1.6339,,,,,,,,,,,,,,,,,,,,,,61035476b946ec7981de1dae,610369fd825c5dfea8a60333,2021-07-29_21h55.23.462,Simcolourproject_2stim_asymm_v5,2020.2.10,MacIntel,60,61025ae37ef11b136ea224fe,,,,,,,,,3771,47.25866699,-85.35394287,1,0,0,response3disk,,4,12.12060547,5.125,1,0,0,rectangle,12.12060547,5.125,1,0,0,12.12060547,5.125,1,0,0,1,60,220,45,1,,,,,,,,
,,,,,,,,,,,,,FF,,,,,,,,1.2342,,,,,,,,,,,,,,,,,,,,,,61035476b946ec7981de1dae,610369fd825c5dfea8a60333,2021-07-29_21h55.23.462,Simcolourproject_2stim_asymm_v5,2020.2.10,MacIntel,60,61025ae37ef11b136ea224fe,,,,,,,,,3818,37.10827637,-56.27478027,1,0,0,response3disk,,4,19.52441406,-15.38452148,1,0,0,rectangle,19.52441406,-15.38452148,1,0,0,19.52441406,-15.38452148,1,0,0,1,61,221,76,1,,,,,,,,
,,,,,,,,,,,,,FF,,,,,,,,2.3174,,,,,,,,,,,,,,,,,,,,,,61035476b946ec7981de1dae,610369fd825c5dfea8a60333,2021-07-29_21h55.23.462,Simcolourproject_2stim_asymm_v5,2020.2.10,MacIntel,60,61025ae37ef11b136ea224fe,,,,,,,,,1264,64.02087402,40.378479,1,0,0,response1disk,,6,-0.934204102,-3.007476807,1,0,0,rectangle,-0.934204102,-3.007476807,1,0,0,-0.934204102,-3.007476807,1,0,0,1,62,222,154,1,,,,,,,,
,,,,,,,,,,,,,FF,,,,,,,,0.8851,,,,,,,,,,,,,,,,,,,,,,61035476b946ec7981de1dae,610369fd825c5dfea8a60333,2021-07-29_21h55.23.462,Simcolourproject_2stim_asymm_v5,2020.2.10,MacIntel,60,61025ae37ef11b136ea224fe,,,,,,,,,3569,29.73071289,61.34216309,1,0,0,response1disk,,7,9.530395508,9.18737793,1,0,0,rectangle,9.530395508,9.18737793,1,0,0,9.530395508,9.18737793,1,0,0,1,63,223,14,1,,,,,,,,
,,,,,,,,,,,,,FF,,,,,,,,1.1003,,,,,,,,,,,,,,,,,,,,,,61035476b946ec7981de1dae,610369fd825c5dfea8a60333,2021-07-29_21h55.23.462,Simcolourproject_2stim_asymm_v5,2020.2.10,MacIntel,60,61025ae37ef11b136ea224fe,,,,,,,,,816,71.2923584,-36.67340088,1,0,0,response3disk,,5,14.11138916,-1.510742188,1,0,0,rectangle,14.11138916,-1.510742188,1,0,0,14.11138916,-1.510742188,1,0,0,1,64,224,73,1,,,,,,,,
,,,,,,,,,,,,,FF,,,,,,,,0.9673,,,,,,,,,,,,,,,,,,,,,,61035476b946ec7981de1dae,610369fd825c5dfea8a60333,2021-07-29_21h55.23.462,Simcolourproject_2stim_asymm_v5,2020.2.10,MacIntel,60,61025ae37ef11b136ea224fe,,,,,,,,,3549,23.68432617,-41.90997314,1,0,0,response3disk,,4,15.04992676,-6.288482666,1,0,0,rectangle,15.04992676,-6.288482666,1,0,0,15.04992676,-6.288482666,1,0,0,1,65,225,34,1,,,,,,,,
,,,,,,,,,,,,,FF,,,,,,,,0.9495,,,,,,,,,,,,,,,,,,,,,,61035476b946ec7981de1dae,610369fd825c5dfea8a60333,2021-07-29_21h55.23.462,Simcolourproject_2stim_asymm_v5,2020.2.10,MacIntel,60,61025ae37ef11b136ea224fe,,,,,,,,,4321,29.203125,55.58425903,1,0,0,response1disk,,7,11.96472168,-5.939758301,1,0,0,rectangle,11.96472168,-5.939758301,1,0,0,11.96472168,-5.939758301,1,0,0,1,66,226,90,1,,,,,,,,
,,,,,,,,,,,,,FF,,,,,,,,0.8997,,,,,,,,,,,,,,,,,,,,,,61035476b946ec7981de1dae,610369fd825c5dfea8a60333,2021-07-29_21h55.23.462,Simcolourproject_2stim_asymm_v5,2020.2.10,MacIntel,60,61025ae37ef11b136ea224fe,,,,,,,,,3712,-50.18457031,-37.89196777,1,0,0,response5disk,,2,6.407653809,-3.958557129,1,0,0,rectangle,-35.94146729,-79.40884399,1,0,0,1.581298828,-10.57128906,1,0,0,1,67,227,80,1,,response5disk_3,TRUE,3,3,"[243,171,69,188,181,193,43,43,78,62,183,50,195,66,135,47,138,130,228,180]",1.5334,rectangle
,,,,,,,,,,,,,FF,,,,,,,,1.1166,,,,,,,,,,,,,,,,,,,,,,61035476b946ec7981de1dae,610369fd825c5dfea8a60333,2021-07-29_21h55.23.462,Simcolourproject_2stim_asymm_v5,2020.2.10,MacIntel,60,61025ae37ef11b136ea224fe,,,,,,,,,3871,-35.04077148,-66.26226807,1,0,0,response5disk,,3,-16.64013672,-13.11889648,1,0,0,rectangle,-16.64013672,-13.11889648,1,0,0,-16.64013672,-13.11889648,1,0,0,1,68,228,85,1,,,,,,,,
,,,,,,,,,,,,,FF,,,,,,,,1.5678,,,,,,,,,,,,,,,,,,,,,,61035476b946ec7981de1dae,610369fd825c5dfea8a60333,2021-07-29_21h55.23.462,Simcolourproject_2stim_asymm_v5,2020.2.10,MacIntel,60,61025ae37ef11b136ea224fe,,,,,,,,,341,69.73974609,20.70742798,1,0,0,response1disk,,6,6.228942871,-6.97265625,1,0,0,rectangle,6.228942871,-6.97265625,1,0,0,6.228942871,-6.97265625,1,0,0,1,69,229,99,1,,,,,,,,
,,,,,,,,,,,,,FF,,,,,,,,1.4373,,,,,,,,,,,,,,,,,,,,,,61035476b946ec7981de1dae,610369fd825c5dfea8a60333,2021-07-29_21h55.23.462,Simcolourproject_2stim_asymm_v5,2020.2.10,MacIntel,60,61025ae37ef11b136ea224fe,,,,,,,,,285,-33.73406982,-82.66912842,1,0,0,response5disk,,3,-9.80645752,-8.612701416,1,0,0,rectangle,-9.80645752,-8.612701416,1,0,0,-9.80645752,-8.612701416,1,0,0,1,70,230,87,1,,,,,,,,
,,,,,,,,,,,,,FF,,,,,,,,1.2215,,,,,,,,,,,,,,,,,,,,,,61035476b946ec7981de1dae,610369fd825c5dfea8a60333,2021-07-29_21h55.23.462,Simcolourproject_2stim_asymm_v5,2020.2.10,MacIntel,60,61025ae37ef11b136ea224fe,,,,,,,,,3112,59.98242188,16.79602051,1,0,0,response1disk,,6,3.736816406,-2.683349609,1,0,0,rectangle,3.736816406,-2.683349609,1,0,0,3.736816406,-2.683349609,1,0,0,1,71,231,21,1,,,,,,,,
,,,,,,,,,,,,,FF,,,,,,,,1.6837,,,,,,,,,,,,,,,,,,,,,,61035476b946ec7981de1dae,610369fd825c5dfea8a60333,2021-07-29_21h55.23.462,Simcolourproject_2stim_asymm_v5,2020.2.10,MacIntel,60,61025ae37ef11b136ea224fe,,,,,,,,,828,22.74829102,41.87609863,1,0,0,response1disk,,7,15.42382813,2.891113281,1,0,0,rectangle,15.42382813,2.891113281,1,0,0,15.42382813,2.891113281,1,0,0,1,72,232,129,1,,,,,,,,
,,,,,,,,,,,,,FF,,,,,,,,0.9673,,,,,,,,,,,,,,,,,,,,,,61035476b946ec7981de1dae,610369fd825c5dfea8a60333,2021-07-29_21h55.23.462,Simcolourproject_2stim_asymm_v5,2020.2.10,MacIntel,60,61025ae37ef11b136ea224fe,,,,,,,,,1261,26.99298096,59.01269531,1,0,0,response1disk,,7,-0.559143066,-8.316650391,1,0,0,rectangle,-0.559143066,-8.316650391,1,0,0,-0.559143066,-8.316650391,1,0,0,1,73,233,40,1,,,,,,,,
,,,,,,,,,,,,,FF,,,,,,,,0.6498,,,,,,,,,,,,,,,,,,,,,,61035476b946ec7981de1dae,610369fd825c5dfea8a60333,2021-07-29_21h55.23.462,Simcolourproject_2stim_asymm_v5,2020.2.10,MacIntel,60,61025ae37ef11b136ea224fe,,,,,,,,,150,31.69567871,55.34088135,1,0,0,response1disk,,7,14.24304199,8.65435791,1,0,0,rectangle,14.24304199,8.65435791,1,0,0,14.24304199,8.65435791,1,0,0,1,74,234,109,1,,,,,,,,
,,,,,,,,,,,,,FF,,,,,,,,1.0184,,,,,,,,,,,,,,,,,,,,,,61035476b946ec7981de1dae,610369fd825c5dfea8a60333,2021-07-29_21h55.23.462,Simcolourproject_2stim_asymm_v5,2020.2.10,MacIntel,60,61025ae37ef11b136ea224fe,,,,,,,,,4092,48.84161377,-28.97894287,1,0,0,response3disk,,5,13.22705078,4.202880859,1,0,0,rectangle,13.22705078,4.202880859,1,0,0,13.22705078,4.202880859,1,0,0,1,75,235,44,1,,,,,,,,
,,,,,,,,,,,,,FF,,,,,,,,1.1142,,,,,,,,,,,,,,,,,,,,,,61035476b946ec7981de1dae,610369fd825c5dfea8a60333,2021-07-29_21h55.23.462,Simcolourproject_2stim_asymm_v5,2020.2.10,MacIntel,60,61025ae37ef11b136ea224fe,,,,,,,,,1230,43.4956665,25.82995605,1,0,0,response1disk,,6,12.26654053,8.236816406,1,0,0,rectangle,12.26654053,8.236816406,1,0,0,12.26654053,8.236816406,1,0,0,1,76,236,140,1,,,,,,,,
,,,,,,,,,,,,,FF,,,,,,,,0.7841,,,,,,,,,,,,,,,,,,,,,,61035476b946ec7981de1dae,610369fd825c5dfea8a60333,2021-07-29_21h55.23.462,Simcolourproject_2stim_asymm_v5,2020.2.10,MacIntel,60,61025ae37ef11b136ea224fe,,,,,,,,,2332,23.31848145,61.74957275,1,0,0,response1disk,,7,13.53155518,5.823242188,1,0,0,rectangle,13.53155518,5.823242188,1,0,0,13.53155518,5.823242188,1,0,0,1,77,237,74,1,,,,,,,,
,,,,,,,,,,,,,FF,,,,,,,,3.1838,,,,,,,,,,,,,,,,,,,,,,61035476b946ec7981de1dae,610369fd825c5dfea8a60333,2021-07-29_21h55.23.462,Simcolourproject_2stim_asymm_v5,2020.2.10,MacIntel,60,61025ae37ef11b136ea224fe,,,,,,,,,4222,50.5032959,-21.5508728,1,0,0,response3disk,,5,2.196533203,-5.94354248,1,0,0,rectangle,2.196533203,-5.94354248,1,0,0,2.196533203,-5.94354248,1,0,0,1,78,238,144,1,,,,,,,,
,,,,,,,,,,,,,FF,,,,,,,,6.3872,,,,,,,,,,,,,,,,,,,,,,61035476b946ec7981de1dae,610369fd825c5dfea8a60333,2021-07-29_21h55.23.462,Simcolourproject_2stim_asymm_v5,2020.2.10,MacIntel,60,61025ae37ef11b136ea224fe,,,,,,,,,958,82.80883789,43.68951416,1,0,0,response1disk,,6,4.919921875,-1.297302246,1,0,0,rectangle,4.919921875,-1.297302246,1,0,0,4.919921875,-1.297302246,1,0,0,1,79,239,1,1,,,,,,,,
,,,,,,,,,,,,,FF,,,,,,,,2.8711,,,,,,,,,,,,,,,,,,,,,,61035476b946ec7981de1dae,610369fd825c5dfea8a60333,2021-07-29_21h55.23.462,Simcolourproject_2stim_asymm_v5,2020.2.10,MacIntel,60,61025ae37ef11b136ea224fe,,,,,,,,,3633,24.38208008,-99.31982422,1,0,0,response3disk,,4,-8.798706055,-11.33682251,1,0,0,rectangle,-8.798706055,-11.33682251,1,0,0,-8.798706055,-11.33682251,1,0,0,1,80,240,84,1,,,,,,,,
