key_resp.keys,key_resp.rt,key_resp_14.keys,key_resp_14.rt,key_resp_15.keys,key_resp_15.rt,key_resp_17.keys,key_resp_17.rt,key_resp_9.keys,key_resp_9.rt,key_resp_10.keys,key_resp_10.rt,practice_comparison,Ecc,mouse_5.x,mouse_5.y,mouse_5.leftButton,mouse_5.midButton,mouse_5.rightButton,mouse_5.clicked_name,pracsimilarity,response_time,mouse_10.x,mouse_10.y,mouse_10.leftButton,mouse_10.midButton,mouse_10.rightButton,mouse_10.clicked_name,mouse_7.x,mouse_7.y,mouse_7.leftButton,mouse_7.midButton,mouse_7.rightButton,mouse_6.x,mouse_6.y,mouse_6.leftButton,mouse_6.midButton,mouse_6.rightButton,duringprac.thisRepN,duringprac.thisTrialN,duringprac.thisN,duringprac.thisIndex,duringprac.ran,participant,session,date,expName,psychopyVersion,OS,frameRate,study_id,mouse_7.clicked_name,catchpracsimilarity,catch_response_time,catchnumberprac,catchtrialorderprac,mouse_6.clicked_name,key_resp_22.keys,key_resp_22.rt,realcomparison,mouse.x,mouse.y,mouse.leftButton,mouse.midButton,mouse.rightButton,mouse.clicked_name,Colour2,similarity,mouse_2.x,mouse_2.y,mouse_2.leftButton,mouse_2.midButton,mouse_2.rightButton,mouse_2.clicked_name,mouse_3.x,mouse_3.y,mouse_3.leftButton,mouse_3.midButton,mouse_3.rightButton,mouse_11.x,mouse_11.y,mouse_11.leftButton,mouse_11.midButton,mouse_11.rightButton,trials_2.thisRepN,trials_2.thisTrialN,trials_2.thisN,trials_2.thisIndex,trials_2.ran,Colour1,mouse_3.clicked_name,catchornah,catchsimilarity,catchnumber,catchtrialorder,catchRT,mouse_11.clicked_name
space,1.0558,space,8.2655,space,6.2007,space,3.9279,space,1.5011,space,3.3138,89,PF,98.12890625,49.9453125,1,0,0,response1disk_5,6,11.1884,-8.4453125,-3.24609375,1,0,0,rectangle_8,-8.4453125,-3.24609375,1,0,0,-8.4453125,-3.24609375,1,0,0,0,0,0,4,1,6103597aec377370bfbcbf7c,61036c16fa204abcfaf5a9e0,2021-07-29_23h04.47.162,Simcolourproject_2stim_asymm_v5,2020.2.10,MacIntel,60,61025ae37ef11b136ea224fe,,,,,,,,,,,,,,,,,,,,,,,,,,,,,,,,,,,,,,,,,,,,,,
,,,,,,,,,,,,100,FF,-66.5390625,-28.03125,1,0,0,response5disk_5,2,3.6088,-1.6171875,-2.8984375,1,0,0,rectangle_8,93.1796875,-67.1015625,1,0,0,-10.1875,-8.76171875,1,0,0,0,1,1,0,1,6103597aec377370bfbcbf7c,61036c16fa204abcfaf5a9e0,2021-07-29_23h04.47.162,Simcolourproject_2stim_asymm_v5,2020.2.10,MacIntel,60,61025ae37ef11b136ea224fe,response3disk_7,5,3.3771,5,"[2,5]",rectangle_4,,,,,,,,,,,,,,,,,,,,,,,,,,,,,,,,,,,,,,,,
,,,,,,,,,,,,87,FF,87.41796875,59.5234375,1,0,0,response1disk_5,6,3.7618,16.9765625,-2.7578125,1,0,0,rectangle_8,16.9765625,-2.7578125,1,0,0,16.9765625,-2.7578125,1,0,0,0,2,2,5,1,6103597aec377370bfbcbf7c,61036c16fa204abcfaf5a9e0,2021-07-29_23h04.47.162,Simcolourproject_2stim_asymm_v5,2020.2.10,MacIntel,60,61025ae37ef11b136ea224fe,,,,,,,,,,,,,,,,,,,,,,,,,,,,,,,,,,,,,,,,,,,,,,
,,,,,,,,,,,,131,PF,-37.18359375,-67.953125,1,0,0,response5disk_5,3,3.4935,-6.06640625,-14.53125,1,0,0,rectangle_8,-6.06640625,-14.53125,1,0,0,-6.06640625,-14.53125,1,0,0,0,3,3,1,1,6103597aec377370bfbcbf7c,61036c16fa204abcfaf5a9e0,2021-07-29_23h04.47.162,Simcolourproject_2stim_asymm_v5,2020.2.10,MacIntel,60,61025ae37ef11b136ea224fe,,,,,,,,,,,,,,,,,,,,,,,,,,,,,,,,,,,,,,,,,,,,,,
,,,,,,,,,,,,132,PF,45.82421875,70.171875,1,0,0,response1disk_5,7,2.5913,18.80078125,0.52734375,1,0,0,rectangle_8,87.3046875,-20.37890625,1,0,0,11.234375,-4.08984375,1,0,0,0,4,4,6,1,6103597aec377370bfbcbf7c,61036c16fa204abcfaf5a9e0,2021-07-29_23h04.47.162,Simcolourproject_2stim_asymm_v5,2020.2.10,MacIntel,60,61025ae37ef11b136ea224fe,response3disk_7,5,1.8881,5,"[2,5]",rectangle_4,,,,,,,,,,,,,,,,,,,,,,,,,,,,,,,,,,,,,,,,
,,,,,,,,,,,,137,FF,-49.98828125,-59.16796875,1,0,0,response5disk_5,3,2.2057,-11.43359375,-14.30859375,1,0,0,rectangle_8,-11.43359375,-14.30859375,1,0,0,-11.43359375,-14.30859375,1,0,0,0,5,5,3,1,6103597aec377370bfbcbf7c,61036c16fa204abcfaf5a9e0,2021-07-29_23h04.47.162,Simcolourproject_2stim_asymm_v5,2020.2.10,MacIntel,60,61025ae37ef11b136ea224fe,,,,,,,,,,,,,,,,,,,,,,,,,,,,,,,,,,,,,,,,,,,,,,
,,,,,,,,,,,,55,PF,32.703125,-68.77734375,1,0,0,response3disk_5,4,2.1241,-5.5859375,-4.75390625,1,0,0,rectangle_8,-5.5859375,-4.75390625,1,0,0,-5.5859375,-4.75390625,1,0,0,0,6,6,2,1,6103597aec377370bfbcbf7c,61036c16fa204abcfaf5a9e0,2021-07-29_23h04.47.162,Simcolourproject_2stim_asymm_v5,2020.2.10,MacIntel,60,61025ae37ef11b136ea224fe,,,,,,,,,,,,,,,,,,,,,,,,,,,,,,,,,,,,,,,,,,,,,,
,,,,,,,,,,,,,FF,,,,,,,,1.9051,,,,,,,,,,,,,,,,,,,,,,6103597aec377370bfbcbf7c,61036c16fa204abcfaf5a9e0,2021-07-29_23h04.47.162,Simcolourproject_2stim_asymm_v5,2020.2.10,MacIntel,60,61025ae37ef11b136ea224fe,,,,,,,space,7.2802,1137,-66.0859375,-30.73046875,1,0,0,response5disk,,2,0.33203125,5.03125,1,0,0,rectangle,0.33203125,5.03125,1,0,0,0.33203125,5.03125,1,0,0,0,0,0,67,1,,,,,,,,
,,,,,,,,,,,,,FF,,,,,,,,4.6459,,,,,,,,,,,,,,,,,,,,,,6103597aec377370bfbcbf7c,61036c16fa204abcfaf5a9e0,2021-07-29_23h04.47.162,Simcolourproject_2stim_asymm_v5,2020.2.10,MacIntel,60,61025ae37ef11b136ea224fe,,,,,,,,,1930,86.296875,44.1484375,1,0,0,response1disk,,6,12.9296875,4.03515625,1,0,0,rectangle,12.9296875,4.03515625,1,0,0,12.9296875,4.03515625,1,0,0,0,1,1,49,1,,,,,,,,
,,,,,,,,,,,,,FF,,,,,,,,1.3381,,,,,,,,,,,,,,,,,,,,,,6103597aec377370bfbcbf7c,61036c16fa204abcfaf5a9e0,2021-07-29_23h04.47.162,Simcolourproject_2stim_asymm_v5,2020.2.10,MacIntel,60,61025ae37ef11b136ea224fe,,,,,,,,,9,-27.51171875,-62.73828125,1,0,0,response5disk,,3,2.6953125,10.39453125,1,0,0,rectangle,2.6953125,10.39453125,1,0,0,2.6953125,10.39453125,1,0,0,0,2,2,53,1,,,,,,,,
,,,,,,,,,,,,,FF,,,,,,,,1.9039,,,,,,,,,,,,,,,,,,,,,,6103597aec377370bfbcbf7c,61036c16fa204abcfaf5a9e0,2021-07-29_23h04.47.162,Simcolourproject_2stim_asymm_v5,2020.2.10,MacIntel,60,61025ae37ef11b136ea224fe,,,,,,,,,3290,-51.7734375,71.21875,1,0,0,response7disk,,0,12.0078125,-9.07421875,1,0,0,rectangle,12.0078125,-9.07421875,1,0,0,12.0078125,-9.07421875,1,0,0,0,3,3,100,1,,,,,,,,
,,,,,,,,,,,,,FF,,,,,,,,1.5354,,,,,,,,,,,,,,,,,,,,,,6103597aec377370bfbcbf7c,61036c16fa204abcfaf5a9e0,2021-07-29_23h04.47.162,Simcolourproject_2stim_asymm_v5,2020.2.10,MacIntel,60,61025ae37ef11b136ea224fe,,,,,,,,,1316,38.5859375,-74.703125,1,0,0,response3disk,,4,7.515625,-4.2265625,1,0,0,rectangle,7.515625,-4.2265625,1,0,0,7.515625,-4.2265625,1,0,0,0,4,4,85,1,,,,,,,,
,,,,,,,,,,,,,FF,,,,,,,,2.0218,,,,,,,,,,,,,,,,,,,,,,6103597aec377370bfbcbf7c,61036c16fa204abcfaf5a9e0,2021-07-29_23h04.47.162,Simcolourproject_2stim_asymm_v5,2020.2.10,MacIntel,60,61025ae37ef11b136ea224fe,,,,,,,,,2187,87.44140625,-54.18359375,1,0,0,response3disk,,5,17.06640625,-8.19921875,1,0,0,rectangle,-83.42578125,-43.4140625,1,0,0,-14.6171875,-10.0078125,1,0,0,0,5,5,116,1,,response5disk_3,TRUE,2,2,"[90,99,18,262,98,137,294,178,129,70,225,216,273,6,226,134,105,99,194,295]",2.0054,rectangle
,,,,,,,,,,,,,FF,,,,,,,,3.4429,,,,,,,,,,,,,,,,,,,,,,6103597aec377370bfbcbf7c,61036c16fa204abcfaf5a9e0,2021-07-29_23h04.47.162,Simcolourproject_2stim_asymm_v5,2020.2.10,MacIntel,60,61025ae37ef11b136ea224fe,,,,,,,,,3544,22.3984375,-73.96875,1,0,0,response3disk,,4,8.9921875,3.5703125,1,0,0,rectangle,8.9921875,3.5703125,1,0,0,8.9921875,3.5703125,1,0,0,0,6,6,84,1,,,,,,,,
,,,,,,,,,,,,,FF,,,,,,,,1.8238,,,,,,,,,,,,,,,,,,,,,,6103597aec377370bfbcbf7c,61036c16fa204abcfaf5a9e0,2021-07-29_23h04.47.162,Simcolourproject_2stim_asymm_v5,2020.2.10,MacIntel,60,61025ae37ef11b136ea224fe,,,,,,,,,3714,40.5390625,-68.015625,1,0,0,response3disk,,4,19.42578125,-4.24609375,1,0,0,rectangle,19.42578125,-4.24609375,1,0,0,19.42578125,-4.24609375,1,0,0,0,7,7,33,1,,,,,,,,
,,,,,,,,,,,,,FF,,,,,,,,1.4872,,,,,,,,,,,,,,,,,,,,,,6103597aec377370bfbcbf7c,61036c16fa204abcfaf5a9e0,2021-07-29_23h04.47.162,Simcolourproject_2stim_asymm_v5,2020.2.10,MacIntel,60,61025ae37ef11b136ea224fe,,,,,,,,,4266,-48.4921875,56.82421875,1,0,0,response7disk,,0,-5.84765625,4.24609375,1,0,0,rectangle,-5.84765625,4.24609375,1,0,0,-5.84765625,4.24609375,1,0,0,0,8,8,75,1,,,,,,,,
,,,,,,,,,,,,,FF,,,,,,,,1.0183,,,,,,,,,,,,,,,,,,,,,,6103597aec377370bfbcbf7c,61036c16fa204abcfaf5a9e0,2021-07-29_23h04.47.162,Simcolourproject_2stim_asymm_v5,2020.2.10,MacIntel,60,61025ae37ef11b136ea224fe,,,,,,,,,2994,-69.0390625,-25.171875,1,0,0,response5disk,,2,-11.05859375,5.5,1,0,0,rectangle,-11.05859375,5.5,1,0,0,-11.05859375,5.5,1,0,0,0,9,9,98,1,,,,,,,,
,,,,,,,,,,,,,FF,,,,,,,,2.4079,,,,,,,,,,,,,,,,,,,,,,6103597aec377370bfbcbf7c,61036c16fa204abcfaf5a9e0,2021-07-29_23h04.47.162,Simcolourproject_2stim_asymm_v5,2020.2.10,MacIntel,60,61025ae37ef11b136ea224fe,,,,,,,,,2520,79.921875,53.0703125,1,0,0,response1disk,,6,22.8515625,-6.91015625,1,0,0,rectangle,22.8515625,-6.91015625,1,0,0,22.8515625,-6.91015625,1,0,0,0,10,10,112,1,,,,,,,,
,,,,,,,,,,,,,FF,,,,,,,,1.2867,,,,,,,,,,,,,,,,,,,,,,6103597aec377370bfbcbf7c,61036c16fa204abcfaf5a9e0,2021-07-29_23h04.47.162,Simcolourproject_2stim_asymm_v5,2020.2.10,MacIntel,60,61025ae37ef11b136ea224fe,,,,,,,,,3141,87.6640625,-51.66796875,1,0,0,response3disk,,5,31.265625,-5.14453125,1,0,0,rectangle,31.265625,-5.14453125,1,0,0,31.265625,-5.14453125,1,0,0,0,11,11,63,1,,,,,,,,
,,,,,,,,,,,,,FF,,,,,,,,1.5709,,,,,,,,,,,,,,,,,,,,,,6103597aec377370bfbcbf7c,61036c16fa204abcfaf5a9e0,2021-07-29_23h04.47.162,Simcolourproject_2stim_asymm_v5,2020.2.10,MacIntel,60,61025ae37ef11b136ea224fe,,,,,,,,,4187,-58.67578125,-22.69921875,1,0,0,response5disk,,2,-21.77734375,0.4375,1,0,0,rectangle,-21.77734375,0.4375,1,0,0,-21.77734375,0.4375,1,0,0,0,12,12,11,1,,,,,,,,
,,,,,,,,,,,,,FF,,,,,,,,1.7041,,,,,,,,,,,,,,,,,,,,,,6103597aec377370bfbcbf7c,61036c16fa204abcfaf5a9e0,2021-07-29_23h04.47.162,Simcolourproject_2stim_asymm_v5,2020.2.10,MacIntel,60,61025ae37ef11b136ea224fe,,,,,,,,,3187,-36.984375,-67.8828125,1,0,0,response5disk,,3,-3.625,-17.3046875,1,0,0,rectangle,-3.625,-17.3046875,1,0,0,-3.625,-17.3046875,1,0,0,0,13,13,92,1,,,,,,,,
,,,,,,,,,,,,,FF,,,,,,,,1.3536,,,,,,,,,,,,,,,,,,,,,,6103597aec377370bfbcbf7c,61036c16fa204abcfaf5a9e0,2021-07-29_23h04.47.162,Simcolourproject_2stim_asymm_v5,2020.2.10,MacIntel,60,61025ae37ef11b136ea224fe,,,,,,,,,415,40.98828125,57.55078125,1,0,0,response1disk,,7,30.890625,-8.55078125,1,0,0,rectangle,30.890625,-8.55078125,1,0,0,30.890625,-8.55078125,1,0,0,0,14,14,134,1,,,,,,,,
,,,,,,,,,,,,,FF,,,,,,,,0.719,,,,,,,,,,,,,,,,,,,,,,6103597aec377370bfbcbf7c,61036c16fa204abcfaf5a9e0,2021-07-29_23h04.47.162,Simcolourproject_2stim_asymm_v5,2020.2.10,MacIntel,60,61025ae37ef11b136ea224fe,,,,,,,,,1340,35.94140625,56.921875,1,0,0,response1disk,,7,25.2890625,-3.0234375,1,0,0,rectangle,25.2890625,-3.0234375,1,0,0,25.2890625,-3.0234375,1,0,0,0,15,15,28,1,,,,,,,,
,,,,,,,,,,,,,FF,,,,,,,,1.2054,,,,,,,,,,,,,,,,,,,,,,6103597aec377370bfbcbf7c,61036c16fa204abcfaf5a9e0,2021-07-29_23h04.47.162,Simcolourproject_2stim_asymm_v5,2020.2.10,MacIntel,60,61025ae37ef11b136ea224fe,,,,,,,,,3435,23.515625,-53.828125,1,0,0,response3disk,,4,-6.609375,3.82421875,1,0,0,rectangle,-6.609375,3.82421875,1,0,0,-6.609375,3.82421875,1,0,0,0,16,16,34,1,,,,,,,,
,,,,,,,,,,,,,FF,,,,,,,,1.688,,,,,,,,,,,,,,,,,,,,,,6103597aec377370bfbcbf7c,61036c16fa204abcfaf5a9e0,2021-07-29_23h04.47.162,Simcolourproject_2stim_asymm_v5,2020.2.10,MacIntel,60,61025ae37ef11b136ea224fe,,,,,,,,,130,47.69140625,66.39453125,1,0,0,response1disk,,7,5.50390625,2.2890625,1,0,0,rectangle,-79.33984375,-21.16015625,1,0,0,-13.23828125,-8.703125,1,0,0,0,17,17,24,1,,response5disk_3,TRUE,2,2,"[90,99,18,262,98,137,294,178,129,70,225,216,273,6,226,134,105,99,194,295]",1.7371,rectangle
,,,,,,,,,,,,,FF,,,,,,,,0.9015,,,,,,,,,,,,,,,,,,,,,,6103597aec377370bfbcbf7c,61036c16fa204abcfaf5a9e0,2021-07-29_23h04.47.162,Simcolourproject_2stim_asymm_v5,2020.2.10,MacIntel,60,61025ae37ef11b136ea224fe,,,,,,,,,2967,40.3203125,50.94140625,1,0,0,response1disk,,7,30.22265625,-4.55859375,1,0,0,rectangle,30.22265625,-4.55859375,1,0,0,30.22265625,-4.55859375,1,0,0,0,18,18,61,1,,,,,,,,
,,,,,,,,,,,,,FF,,,,,,,,0.6529,,,,,,,,,,,,,,,,,,,,,,6103597aec377370bfbcbf7c,61036c16fa204abcfaf5a9e0,2021-07-29_23h04.47.162,Simcolourproject_2stim_asymm_v5,2020.2.10,MacIntel,60,61025ae37ef11b136ea224fe,,,,,,,,,590,36.7109375,51.09375,1,0,0,response1disk,,7,23.7890625,12.4609375,1,0,0,rectangle,23.7890625,12.4609375,1,0,0,23.7890625,12.4609375,1,0,0,0,19,19,123,1,,,,,,,,
,,,,,,,,,,,,,FF,,,,,,,,1.1367,,,,,,,,,,,,,,,,,,,,,,6103597aec377370bfbcbf7c,61036c16fa204abcfaf5a9e0,2021-07-29_23h04.47.162,Simcolourproject_2stim_asymm_v5,2020.2.10,MacIntel,60,61025ae37ef11b136ea224fe,,,,,,,,,553,-35.0859375,-48.54296875,1,0,0,response5disk,,3,-8.30078125,1.99609375,1,0,0,rectangle,-8.30078125,1.99609375,1,0,0,-8.30078125,1.99609375,1,0,0,0,20,20,120,1,,,,,,,,
,,,,,,,,,,,,,FF,,,,,,,,0.8189,,,,,,,,,,,,,,,,,,,,,,6103597aec377370bfbcbf7c,61036c16fa204abcfaf5a9e0,2021-07-29_23h04.47.162,Simcolourproject_2stim_asymm_v5,2020.2.10,MacIntel,60,61025ae37ef11b136ea224fe,,,,,,,,,3107,-23.1796875,-55.7109375,1,0,0,response5disk,,3,-15.74609375,1.16796875,1,0,0,rectangle,-15.74609375,1.16796875,1,0,0,-15.74609375,1.16796875,1,0,0,0,21,21,130,1,,,,,,,,
,,,,,,,,,,,,,FF,,,,,,,,0.703,,,,,,,,,,,,,,,,,,,,,,6103597aec377370bfbcbf7c,61036c16fa204abcfaf5a9e0,2021-07-29_23h04.47.162,Simcolourproject_2stim_asymm_v5,2020.2.10,MacIntel,60,61025ae37ef11b136ea224fe,,,,,,,,,3989,36.58984375,50.4296875,1,0,0,response1disk,,7,15.5078125,-2.7421875,1,0,0,rectangle,15.5078125,-2.7421875,1,0,0,15.5078125,-2.7421875,1,0,0,0,22,22,6,1,,,,,,,,
,,,,,,,,,,,,,FF,,,,,,,,1.287,,,,,,,,,,,,,,,,,,,,,,6103597aec377370bfbcbf7c,61036c16fa204abcfaf5a9e0,2021-07-29_23h04.47.162,Simcolourproject_2stim_asymm_v5,2020.2.10,MacIntel,60,61025ae37ef11b136ea224fe,,,,,,,,,1121,18.328125,-58.43359375,1,0,0,response3disk,,4,-0.9375,-12.8203125,1,0,0,rectangle,-0.9375,-12.8203125,1,0,0,-0.9375,-12.8203125,1,0,0,0,23,23,51,1,,,,,,,,
,,,,,,,,,,,,,FF,,,,,,,,0.6015,,,,,,,,,,,,,,,,,,,,,,6103597aec377370bfbcbf7c,61036c16fa204abcfaf5a9e0,2021-07-29_23h04.47.162,Simcolourproject_2stim_asymm_v5,2020.2.10,MacIntel,60,61025ae37ef11b136ea224fe,,,,,,,,,3737,36.55078125,50.734375,1,0,0,response1disk,,7,28.60546875,7.73046875,1,0,0,rectangle,28.60546875,7.73046875,1,0,0,28.60546875,7.73046875,1,0,0,0,24,24,131,1,,,,,,,,
,,,,,,,,,,,,,FF,,,,,,,,0.7013,,,,,,,,,,,,,,,,,,,,,,6103597aec377370bfbcbf7c,61036c16fa204abcfaf5a9e0,2021-07-29_23h04.47.162,Simcolourproject_2stim_asymm_v5,2020.2.10,MacIntel,60,61025ae37ef11b136ea224fe,,,,,,,,,3657,25.49609375,42.53515625,1,0,0,response1disk,,7,20.92578125,7.18359375,1,0,0,rectangle,20.92578125,7.18359375,1,0,0,20.92578125,7.18359375,1,0,0,0,25,25,148,1,,,,,,,,
,,,,,,,,,,,,,FF,,,,,,,,0.5342,,,,,,,,,,,,,,,,,,,,,,6103597aec377370bfbcbf7c,61036c16fa204abcfaf5a9e0,2021-07-29_23h04.47.162,Simcolourproject_2stim_asymm_v5,2020.2.10,MacIntel,60,61025ae37ef11b136ea224fe,,,,,,,,,1797,28.73828125,38.34765625,1,0,0,response1disk,,7,15.0078125,-7.1640625,1,0,0,rectangle,15.0078125,-7.1640625,1,0,0,15.0078125,-7.1640625,1,0,0,0,26,26,80,1,,,,,,,,
,,,,,,,,,,,,,FF,,,,,,,,0.9029,,,,,,,,,,,,,,,,,,,,,,6103597aec377370bfbcbf7c,61036c16fa204abcfaf5a9e0,2021-07-29_23h04.47.162,Simcolourproject_2stim_asymm_v5,2020.2.10,MacIntel,60,61025ae37ef11b136ea224fe,,,,,,,,,3452,44.5,30.86328125,1,0,0,response1disk,,6,12.921875,6.4296875,1,0,0,rectangle,12.921875,6.4296875,1,0,0,12.921875,6.4296875,1,0,0,0,27,27,26,1,,,,,,,,
,,,,,,,,,,,,,FF,,,,,,,,0.9868,,,,,,,,,,,,,,,,,,,,,,6103597aec377370bfbcbf7c,61036c16fa204abcfaf5a9e0,2021-07-29_23h04.47.162,Simcolourproject_2stim_asymm_v5,2020.2.10,MacIntel,60,61025ae37ef11b136ea224fe,,,,,,,,,1874,43.8515625,62.02734375,1,0,0,response1disk,,7,17.96875,5.69140625,1,0,0,rectangle,17.96875,5.69140625,1,0,0,17.96875,5.69140625,1,0,0,0,28,28,13,1,,,,,,,,
,,,,,,,,,,,,,FF,,,,,,,,0.8197,,,,,,,,,,,,,,,,,,,,,,6103597aec377370bfbcbf7c,61036c16fa204abcfaf5a9e0,2021-07-29_23h04.47.162,Simcolourproject_2stim_asymm_v5,2020.2.10,MacIntel,60,61025ae37ef11b136ea224fe,,,,,,,,,3829,24.69921875,37,1,0,0,response1disk,,7,23.6015625,3.2578125,1,0,0,rectangle,23.6015625,3.2578125,1,0,0,23.6015625,3.2578125,1,0,0,0,29,29,109,1,,,,,,,,
,,,,,,,,,,,,,FF,,,,,,,,0.3662,,,,,,,,,,,,,,,,,,,,,,6103597aec377370bfbcbf7c,61036c16fa204abcfaf5a9e0,2021-07-29_23h04.47.162,Simcolourproject_2stim_asymm_v5,2020.2.10,MacIntel,60,61025ae37ef11b136ea224fe,,,,,,,,,1782,29.19921875,39.34375,1,0,0,response1disk,,7,20.36328125,3.72265625,1,0,0,rectangle,20.36328125,3.72265625,1,0,0,20.36328125,3.72265625,1,0,0,0,30,30,125,1,,,,,,,,
,,,,,,,,,,,,,FF,,,,,,,,0.7195,,,,,,,,,,,,,,,,,,,,,,6103597aec377370bfbcbf7c,61036c16fa204abcfaf5a9e0,2021-07-29_23h04.47.162,Simcolourproject_2stim_asymm_v5,2020.2.10,MacIntel,60,61025ae37ef11b136ea224fe,,,,,,,,,1004,24.00390625,40.7578125,1,0,0,response1disk,,7,17.81640625,5.484375,1,0,0,rectangle,17.81640625,5.484375,1,0,0,17.81640625,5.484375,1,0,0,0,31,31,14,1,,,,,,,,
,,,,,,,,,,,,,FF,,,,,,,,0.5175,,,,,,,,,,,,,,,,,,,,,,6103597aec377370bfbcbf7c,61036c16fa204abcfaf5a9e0,2021-07-29_23h04.47.162,Simcolourproject_2stim_asymm_v5,2020.2.10,MacIntel,60,61025ae37ef11b136ea224fe,,,,,,,,,417,22.8828125,35.69921875,1,0,0,response1disk,,7,21.46875,11.60546875,1,0,0,rectangle,21.46875,11.60546875,1,0,0,21.46875,11.60546875,1,0,0,0,32,32,86,1,,,,,,,,
,,,,,,,,,,,,,FF,,,,,,,,0.4168,,,,,,,,,,,,,,,,,,,,,,6103597aec377370bfbcbf7c,61036c16fa204abcfaf5a9e0,2021-07-29_23h04.47.162,Simcolourproject_2stim_asymm_v5,2020.2.10,MacIntel,60,61025ae37ef11b136ea224fe,,,,,,,,,2675,29.79296875,44.49609375,1,0,0,response1disk,,7,15.26171875,1.4140625,1,0,0,rectangle,15.26171875,1.4140625,1,0,0,15.26171875,1.4140625,1,0,0,0,33,33,89,1,,,,,,,,
,,,,,,,,,,,,,FF,,,,,,,,2.5739,,,,,,,,,,,,,,,,,,,,,,6103597aec377370bfbcbf7c,61036c16fa204abcfaf5a9e0,2021-07-29_23h04.47.162,Simcolourproject_2stim_asymm_v5,2020.2.10,MacIntel,60,61025ae37ef11b136ea224fe,,,,,,,,,4005,40.828125,23.10546875,1,0,0,response1disk,,6,6.0234375,15.73046875,1,0,0,rectangle,6.0234375,15.73046875,1,0,0,6.0234375,15.73046875,1,0,0,0,34,34,138,1,,,,,,,,
,,,,,,,,,,,,,FF,,,,,,,,0.5689,,,,,,,,,,,,,,,,,,,,,,6103597aec377370bfbcbf7c,61036c16fa204abcfaf5a9e0,2021-07-29_23h04.47.162,Simcolourproject_2stim_asymm_v5,2020.2.10,MacIntel,60,61025ae37ef11b136ea224fe,,,,,,,,,2315,55.60546875,32.1796875,1,0,0,response1disk,,6,27.4921875,15.01171875,1,0,0,rectangle,27.4921875,15.01171875,1,0,0,27.4921875,15.01171875,1,0,0,0,35,35,21,1,,,,,,,,
,,,,,,,,,,,,,FF,,,,,,,,0.3661,,,,,,,,,,,,,,,,,,,,,,6103597aec377370bfbcbf7c,61036c16fa204abcfaf5a9e0,2021-07-29_23h04.47.162,Simcolourproject_2stim_asymm_v5,2020.2.10,MacIntel,60,61025ae37ef11b136ea224fe,,,,,,,,,843,29.44140625,46.8984375,1,0,0,response1disk,,7,21.5703125,12.640625,1,0,0,rectangle,21.5703125,12.640625,1,0,0,21.5703125,12.640625,1,0,0,0,36,36,47,1,,,,,,,,
,,,,,,,,,,,,,FF,,,,,,,,0.3676,,,,,,,,,,,,,,,,,,,,,,6103597aec377370bfbcbf7c,61036c16fa204abcfaf5a9e0,2021-07-29_23h04.47.162,Simcolourproject_2stim_asymm_v5,2020.2.10,MacIntel,60,61025ae37ef11b136ea224fe,,,,,,,,,2969,23.28125,37.42578125,1,0,0,response1disk,,7,20.8203125,5.8359375,1,0,0,rectangle,20.8203125,5.8359375,1,0,0,20.8203125,5.8359375,1,0,0,0,37,37,40,1,,,,,,,,
,,,,,,,,,,,,,FF,,,,,,,,1.8058,,,,,,,,,,,,,,,,,,,,,,6103597aec377370bfbcbf7c,61036c16fa204abcfaf5a9e0,2021-07-29_23h04.47.162,Simcolourproject_2stim_asymm_v5,2020.2.10,MacIntel,60,61025ae37ef11b136ea224fe,,,,,,,,,3395,36.76171875,-62.546875,1,0,0,response3disk,,4,-2.625,4.3046875,1,0,0,rectangle,-2.625,4.3046875,1,0,0,-2.625,4.3046875,1,0,0,0,38,38,45,1,,,,,,,,
,,,,,,,,,,,,,FF,,,,,,,,0.652,,,,,,,,,,,,,,,,,,,,,,6103597aec377370bfbcbf7c,61036c16fa204abcfaf5a9e0,2021-07-29_23h04.47.162,Simcolourproject_2stim_asymm_v5,2020.2.10,MacIntel,60,61025ae37ef11b136ea224fe,,,,,,,,,4226,15.86328125,55.6953125,1,0,0,response1disk,,7,3.109375,6.828125,1,0,0,rectangle,3.109375,6.828125,1,0,0,3.109375,6.828125,1,0,0,0,39,39,46,1,,,,,,,,
,,,,,,,,,,,,,FF,,,,,,,,0.4024,,,,,,,,,,,,,,,,,,,,,,6103597aec377370bfbcbf7c,61036c16fa204abcfaf5a9e0,2021-07-29_23h04.47.162,Simcolourproject_2stim_asymm_v5,2020.2.10,MacIntel,60,61025ae37ef11b136ea224fe,,,,,,,,,145,21.71484375,22.796875,1,0,0,response1disk,,7,16.296875,7.6484375,1,0,0,rectangle,16.296875,7.6484375,1,0,0,16.296875,7.6484375,1,0,0,0,40,40,156,1,,,,,,,,
,,,,,,,,,,,,,FF,,,,,,,,0.4503,,,,,,,,,,,,,,,,,,,,,,6103597aec377370bfbcbf7c,61036c16fa204abcfaf5a9e0,2021-07-29_23h04.47.162,Simcolourproject_2stim_asymm_v5,2020.2.10,MacIntel,60,61025ae37ef11b136ea224fe,,,,,,,,,128,25.25390625,43.34375,1,0,0,response1disk,,7,25.25390625,17.796875,1,0,0,rectangle,25.25390625,17.796875,1,0,0,25.25390625,17.796875,1,0,0,0,41,41,119,1,,,,,,,,
,,,,,,,,,,,,,FF,,,,,,,,1.1856,,,,,,,,,,,,,,,,,,,,,,6103597aec377370bfbcbf7c,61036c16fa204abcfaf5a9e0,2021-07-29_23h04.47.162,Simcolourproject_2stim_asymm_v5,2020.2.10,MacIntel,60,61025ae37ef11b136ea224fe,,,,,,,,,1752,-33.50390625,-55.00390625,1,0,0,response5disk,,3,-8.58203125,-4.37109375,1,0,0,rectangle,-8.58203125,-4.37109375,1,0,0,-8.58203125,-4.37109375,1,0,0,0,42,42,88,1,,,,,,,,
,,,,,,,,,,,,,FF,,,,,,,,1.1698,,,,,,,,,,,,,,,,,,,,,,6103597aec377370bfbcbf7c,61036c16fa204abcfaf5a9e0,2021-07-29_23h04.47.162,Simcolourproject_2stim_asymm_v5,2020.2.10,MacIntel,60,61025ae37ef11b136ea224fe,,,,,,,,,1698,27.34375,-56.26953125,1,0,0,response3disk,,4,18.90234375,-6.55078125,1,0,0,rectangle,18.90234375,-6.55078125,1,0,0,18.90234375,-6.55078125,1,0,0,0,43,43,110,1,,,,,,,,
,,,,,,,,,,,,,FF,,,,,,,,1.0685,,,,,,,,,,,,,,,,,,,,,,6103597aec377370bfbcbf7c,61036c16fa204abcfaf5a9e0,2021-07-29_23h04.47.162,Simcolourproject_2stim_asymm_v5,2020.2.10,MacIntel,60,61025ae37ef11b136ea224fe,,,,,,,,,1989,24.86328125,57.2734375,1,0,0,response1disk,,7,2.01171875,14.08203125,1,0,0,rectangle,2.01171875,14.08203125,1,0,0,2.01171875,14.08203125,1,0,0,0,44,44,68,1,,,,,,,,
,,,,,,,,,,,,,FF,,,,,,,,0.435,,,,,,,,,,,,,,,,,,,,,,6103597aec377370bfbcbf7c,61036c16fa204abcfaf5a9e0,2021-07-29_23h04.47.162,Simcolourproject_2stim_asymm_v5,2020.2.10,MacIntel,60,61025ae37ef11b136ea224fe,,,,,,,,,3017,30.7890625,49.09765625,1,0,0,response1disk,,7,0.59375,-1.1328125,1,0,0,rectangle,0.59375,-1.1328125,1,0,0,0.59375,-1.1328125,1,0,0,0,45,45,152,1,,,,,,,,
,,,,,,,,,,,,,FF,,,,,,,,0.3844,,,,,,,,,,,,,,,,,,,,,,6103597aec377370bfbcbf7c,61036c16fa204abcfaf5a9e0,2021-07-29_23h04.47.162,Simcolourproject_2stim_asymm_v5,2020.2.10,MacIntel,60,61025ae37ef11b136ea224fe,,,,,,,,,2279,25.71875,66.74609375,1,0,0,response1disk,,7,11.67578125,2.640625,1,0,0,rectangle,11.67578125,2.640625,1,0,0,11.67578125,2.640625,1,0,0,0,46,46,121,1,,,,,,,,
,,,,,,,,,,,,,FF,,,,,,,,0.5853,,,,,,,,,,,,,,,,,,,,,,6103597aec377370bfbcbf7c,61036c16fa204abcfaf5a9e0,2021-07-29_23h04.47.162,Simcolourproject_2stim_asymm_v5,2020.2.10,MacIntel,60,61025ae37ef11b136ea224fe,,,,,,,,,1026,35.875,55.328125,1,0,0,response1disk,,7,20.359375,6.37109375,1,0,0,rectangle,20.359375,6.37109375,1,0,0,20.359375,6.37109375,1,0,0,0,47,47,22,1,,,,,,,,
,,,,,,,,,,,,,FF,,,,,,,,1.7045,,,,,,,,,,,,,,,,,,,,,,6103597aec377370bfbcbf7c,61036c16fa204abcfaf5a9e0,2021-07-29_23h04.47.162,Simcolourproject_2stim_asymm_v5,2020.2.10,MacIntel,60,61025ae37ef11b136ea224fe,,,,,,,,,1279,61.70703125,39.97265625,1,0,0,response1disk,,6,26.83984375,14.95703125,1,0,0,rectangle,26.83984375,14.95703125,1,0,0,26.83984375,14.95703125,1,0,0,0,48,48,90,1,,,,,,,,
,,,,,,,,,,,,,FF,,,,,,,,0.6689,,,,,,,,,,,,,,,,,,,,,,6103597aec377370bfbcbf7c,61036c16fa204abcfaf5a9e0,2021-07-29_23h04.47.162,Simcolourproject_2stim_asymm_v5,2020.2.10,MacIntel,60,61025ae37ef11b136ea224fe,,,,,,,,,3640,40.6953125,27.5546875,1,0,0,response1disk,,6,14.359375,-5.86328125,1,0,0,rectangle,14.359375,-5.86328125,1,0,0,14.359375,-5.86328125,1,0,0,0,49,49,118,1,,,,,,,,
,,,,,,,,,,,,,FF,,,,,,,,0.6202,,,,,,,,,,,,,,,,,,,,,,6103597aec377370bfbcbf7c,61036c16fa204abcfaf5a9e0,2021-07-29_23h04.47.162,Simcolourproject_2stim_asymm_v5,2020.2.10,MacIntel,60,61025ae37ef11b136ea224fe,,,,,,,,,483,24.47265625,35.23046875,1,0,0,response1disk,,7,17.09375,1.80078125,1,0,0,rectangle,17.09375,1.80078125,1,0,0,17.09375,1.80078125,1,0,0,0,50,50,9,1,,,,,,,,
,,,,,,,,,,,,,FF,,,,,,,,1.6384,,,,,,,,,,,,,,,,,,,,,,6103597aec377370bfbcbf7c,61036c16fa204abcfaf5a9e0,2021-07-29_23h04.47.162,Simcolourproject_2stim_asymm_v5,2020.2.10,MacIntel,60,61025ae37ef11b136ea224fe,,,,,,,,,2902,47.94921875,-71.125,1,0,0,response3disk,,4,5.95703125,-12.93359375,1,0,0,rectangle,5.95703125,-12.93359375,1,0,0,5.95703125,-12.93359375,1,0,0,0,51,51,39,1,,,,,,,,
,,,,,,,,,,,,,FF,,,,,,,,0.8175,,,,,,,,,,,,,,,,,,,,,,6103597aec377370bfbcbf7c,61036c16fa204abcfaf5a9e0,2021-07-29_23h04.47.162,Simcolourproject_2stim_asymm_v5,2020.2.10,MacIntel,60,61025ae37ef11b136ea224fe,,,,,,,,,3648,18.48046875,38.26953125,1,0,0,response1disk,,7,0.52734375,-0.9375,1,0,0,rectangle,0.52734375,-0.9375,1,0,0,0.52734375,-0.9375,1,0,0,0,52,52,115,1,,,,,,,,
,,,,,,,,,,,,,FF,,,,,,,,0.436,,,,,,,,,,,,,,,,,,,,,,6103597aec377370bfbcbf7c,61036c16fa204abcfaf5a9e0,2021-07-29_23h04.47.162,Simcolourproject_2stim_asymm_v5,2020.2.10,MacIntel,60,61025ae37ef11b136ea224fe,,,,,,,,,4179,31.25,53.65234375,1,0,0,response1disk,,7,14.29296875,10.2578125,1,0,0,rectangle,14.29296875,10.2578125,1,0,0,14.29296875,10.2578125,1,0,0,0,53,53,106,1,,,,,,,,
,,,,,,,,,,,,,FF,,,,,,,,0.5511,,,,,,,,,,,,,,,,,,,,,,6103597aec377370bfbcbf7c,61036c16fa204abcfaf5a9e0,2021-07-29_23h04.47.162,Simcolourproject_2stim_asymm_v5,2020.2.10,MacIntel,60,61025ae37ef11b136ea224fe,,,,,,,,,213,29.90234375,35.24609375,1,0,0,response1disk,,7,21.4140625,-8.34765625,1,0,0,rectangle,21.4140625,-8.34765625,1,0,0,21.4140625,-8.34765625,1,0,0,0,54,54,10,1,,,,,,,,
,,,,,,,,,,,,,FF,,,,,,,,0.9868,,,,,,,,,,,,,,,,,,,,,,6103597aec377370bfbcbf7c,61036c16fa204abcfaf5a9e0,2021-07-29_23h04.47.162,Simcolourproject_2stim_asymm_v5,2020.2.10,MacIntel,60,61025ae37ef11b136ea224fe,,,,,,,,,1381,39.5625,26.53125,1,0,0,response1disk,,6,17.3984375,-2.5546875,1,0,0,rectangle,17.3984375,-2.5546875,1,0,0,17.3984375,-2.5546875,1,0,0,0,55,55,114,1,,,,,,,,
,,,,,,,,,,,,,FF,,,,,,,,0.7843,,,,,,,,,,,,,,,,,,,,,,6103597aec377370bfbcbf7c,61036c16fa204abcfaf5a9e0,2021-07-29_23h04.47.162,Simcolourproject_2stim_asymm_v5,2020.2.10,MacIntel,60,61025ae37ef11b136ea224fe,,,,,,,,,3695,29.5625,44.40234375,1,0,0,response1disk,,7,20.41796875,0.171875,1,0,0,rectangle,20.41796875,0.171875,1,0,0,20.41796875,0.171875,1,0,0,0,56,56,38,1,,,,,,,,
,,,,,,,,,,,,,FF,,,,,,,,0.9872,,,,,,,,,,,,,,,,,,,,,,6103597aec377370bfbcbf7c,61036c16fa204abcfaf5a9e0,2021-07-29_23h04.47.162,Simcolourproject_2stim_asymm_v5,2020.2.10,MacIntel,60,61025ae37ef11b136ea224fe,,,,,,,,,2591,26.46875,39.078125,1,0,0,response1disk,,7,22.515625,5.9375,1,0,0,rectangle,22.515625,5.9375,1,0,0,22.515625,5.9375,1,0,0,0,57,57,16,1,,,,,,,,
,,,,,,,,,,,,,FF,,,,,,,,0.4179,,,,,,,,,,,,,,,,,,,,,,6103597aec377370bfbcbf7c,61036c16fa204abcfaf5a9e0,2021-07-29_23h04.47.162,Simcolourproject_2stim_asymm_v5,2020.2.10,MacIntel,60,61025ae37ef11b136ea224fe,,,,,,,,,137,31.3515625,51.5078125,1,0,0,response1disk,,7,21.73046875,3.46875,1,0,0,rectangle,21.73046875,3.46875,1,0,0,21.73046875,3.46875,1,0,0,0,58,58,69,1,,,,,,,,
,,,,,,,,,,,,,FF,,,,,,,,1.3538,,,,,,,,,,,,,,,,,,,,,,6103597aec377370bfbcbf7c,61036c16fa204abcfaf5a9e0,2021-07-29_23h04.47.162,Simcolourproject_2stim_asymm_v5,2020.2.10,MacIntel,60,61025ae37ef11b136ea224fe,,,,,,,,,1231,43.03515625,39.5,1,0,0,response1disk,,6,24.34375,15.5078125,1,0,0,rectangle,24.34375,15.5078125,1,0,0,24.34375,15.5078125,1,0,0,0,59,59,124,1,,,,,,,,
,,,,,,,,,,,,,FF,,,,,,,,0.6192,,,,,,,,,,,,,,,,,,,,,,6103597aec377370bfbcbf7c,61036c16fa204abcfaf5a9e0,2021-07-29_23h04.47.162,Simcolourproject_2stim_asymm_v5,2020.2.10,MacIntel,60,61025ae37ef11b136ea224fe,,,,,,,,,252,26.8984375,51.3046875,1,0,0,response1disk,,7,11.35546875,6.93359375,1,0,0,rectangle,11.35546875,6.93359375,1,0,0,11.35546875,6.93359375,1,0,0,0,60,60,19,1,,,,,,,,
,,,,,,,,,,,,,FF,,,,,,,,0.7017,,,,,,,,,,,,,,,,,,,,,,6103597aec377370bfbcbf7c,61036c16fa204abcfaf5a9e0,2021-07-29_23h04.47.162,Simcolourproject_2stim_asymm_v5,2020.2.10,MacIntel,60,61025ae37ef11b136ea224fe,,,,,,,,,276,-30.4921875,55.07421875,1,0,0,response7disk,,0,-8.51953125,-9.96484375,1,0,0,rectangle,-8.51953125,-9.96484375,1,0,0,-8.51953125,-9.96484375,1,0,0,0,61,61,99,1,,,,,,,,
,,,,,,,,,,,,,FF,,,,,,,,1.0203,,,,,,,,,,,,,,,,,,,,,,6103597aec377370bfbcbf7c,61036c16fa204abcfaf5a9e0,2021-07-29_23h04.47.162,Simcolourproject_2stim_asymm_v5,2020.2.10,MacIntel,60,61025ae37ef11b136ea224fe,,,,,,,,,2098,-49.9296875,36.35546875,1,0,0,response7disk,,1,-21.5703125,0.2578125,1,0,0,rectangle,-21.5703125,0.2578125,1,0,0,-21.5703125,0.2578125,1,0,0,0,62,62,23,1,,,,,,,,
,,,,,,,,,,,,,FF,,,,,,,,0.7521,,,,,,,,,,,,,,,,,,,,,,6103597aec377370bfbcbf7c,61036c16fa204abcfaf5a9e0,2021-07-29_23h04.47.162,Simcolourproject_2stim_asymm_v5,2020.2.10,MacIntel,60,61025ae37ef11b136ea224fe,,,,,,,,,2335,18.72265625,40.15234375,1,0,0,response1disk,,7,12.875,-8.58984375,1,0,0,rectangle,12.875,-8.58984375,1,0,0,12.875,-8.58984375,1,0,0,0,63,63,60,1,,,,,,,,
,,,,,,,,,,,,,FF,,,,,,,,0.5523,,,,,,,,,,,,,,,,,,,,,,6103597aec377370bfbcbf7c,61036c16fa204abcfaf5a9e0,2021-07-29_23h04.47.162,Simcolourproject_2stim_asymm_v5,2020.2.10,MacIntel,60,61025ae37ef11b136ea224fe,,,,,,,,,2616,28.1015625,38.2265625,1,0,0,response1disk,,7,12.63671875,2.11328125,1,0,0,rectangle,12.63671875,2.11328125,1,0,0,12.63671875,2.11328125,1,0,0,0,64,64,35,1,,,,,,,,
,,,,,,,,,,,,,FF,,,,,,,,0.9025,,,,,,,,,,,,,,,,,,,,,,6103597aec377370bfbcbf7c,61036c16fa204abcfaf5a9e0,2021-07-29_23h04.47.162,Simcolourproject_2stim_asymm_v5,2020.2.10,MacIntel,60,61025ae37ef11b136ea224fe,,,,,,,,,885,-23.9375,50.78515625,1,0,0,response7disk,,0,-19.91796875,-2.296875,1,0,0,rectangle,-19.91796875,-2.296875,1,0,0,-19.91796875,-2.296875,1,0,0,0,65,65,83,1,,,,,,,,
,,,,,,,,,,,,,FF,,,,,,,,0.5871,,,,,,,,,,,,,,,,,,,,,,6103597aec377370bfbcbf7c,61036c16fa204abcfaf5a9e0,2021-07-29_23h04.47.162,Simcolourproject_2stim_asymm_v5,2020.2.10,MacIntel,60,61025ae37ef11b136ea224fe,,,,,,,,,1555,28.953125,48.68359375,1,0,0,response1disk,,7,19.34375,6.53515625,1,0,0,rectangle,19.34375,6.53515625,1,0,0,19.34375,6.53515625,1,0,0,0,66,66,20,1,,,,,,,,
,,,,,,,,,,,,,FF,,,,,,,,0.7192,,,,,,,,,,,,,,,,,,,,,,6103597aec377370bfbcbf7c,61036c16fa204abcfaf5a9e0,2021-07-29_23h04.47.162,Simcolourproject_2stim_asymm_v5,2020.2.10,MacIntel,60,61025ae37ef11b136ea224fe,,,,,,,,,2698,23.8671875,32.0546875,1,0,0,response1disk,,7,23.8671875,4.4375,1,0,0,rectangle,23.8671875,4.4375,1,0,0,23.8671875,4.4375,1,0,0,0,67,67,2,1,,,,,,,,
,,,,,,,,,,,,,FF,,,,,,,,0.6862,,,,,,,,,,,,,,,,,,,,,,6103597aec377370bfbcbf7c,61036c16fa204abcfaf5a9e0,2021-07-29_23h04.47.162,Simcolourproject_2stim_asymm_v5,2020.2.10,MacIntel,60,61025ae37ef11b136ea224fe,,,,,,,,,2397,28.99609375,36.2734375,1,0,0,response1disk,,7,16.34765625,7.91015625,1,0,0,rectangle,16.34765625,7.91015625,1,0,0,16.34765625,7.91015625,1,0,0,0,68,68,105,1,,,,,,,,
,,,,,,,,,,,,,FF,,,,,,,,1.2214,,,,,,,,,,,,,,,,,,,,,,6103597aec377370bfbcbf7c,61036c16fa204abcfaf5a9e0,2021-07-29_23h04.47.162,Simcolourproject_2stim_asymm_v5,2020.2.10,MacIntel,60,61025ae37ef11b136ea224fe,,,,,,,,,3479,-67.26953125,36.94140625,1,0,0,response7disk,,1,-23.7734375,-10.2421875,1,0,0,rectangle,29.37890625,-79.94921875,1,0,0,10.9765625,-3.62890625,1,0,0,0,69,69,7,1,,response3disk_3,TRUE,4,4,"[90,99,18,262,98,137,294,178,129,70,225,216,273,6,226,134,105,99,194,295]",2.3399,rectangle
,,,,,,,,,,,,,FF,,,,,,,,0.8863,,,,,,,,,,,,,,,,,,,,,,6103597aec377370bfbcbf7c,61036c16fa204abcfaf5a9e0,2021-07-29_23h04.47.162,Simcolourproject_2stim_asymm_v5,2020.2.10,MacIntel,60,61025ae37ef11b136ea224fe,,,,,,,,,155,26.8671875,43.95703125,1,0,0,response1disk,,7,25.578125,-0.62109375,1,0,0,rectangle,25.578125,-0.62109375,1,0,0,25.578125,-0.62109375,1,0,0,0,70,70,15,1,,,,,,,,
,,,,,,,,,,,,,FF,,,,,,,,0.3323,,,,,,,,,,,,,,,,,,,,,,6103597aec377370bfbcbf7c,61036c16fa204abcfaf5a9e0,2021-07-29_23h04.47.162,Simcolourproject_2stim_asymm_v5,2020.2.10,MacIntel,60,61025ae37ef11b136ea224fe,,,,,,,,,652,33.67578125,46.6875,1,0,0,response1disk,,7,30.53125,10.75390625,1,0,0,rectangle,30.53125,10.75390625,1,0,0,30.53125,10.75390625,1,0,0,0,71,71,73,1,,,,,,,,
,,,,,,,,,,,,,FF,,,,,,,,0.4855,,,,,,,,,,,,,,,,,,,,,,6103597aec377370bfbcbf7c,61036c16fa204abcfaf5a9e0,2021-07-29_23h04.47.162,Simcolourproject_2stim_asymm_v5,2020.2.10,MacIntel,60,61025ae37ef11b136ea224fe,,,,,,,,,2619,30.81640625,57.77734375,1,0,0,response1disk,,7,21.88671875,8.51171875,1,0,0,rectangle,21.88671875,8.51171875,1,0,0,21.88671875,8.51171875,1,0,0,0,72,72,136,1,,,,,,,,
,,,,,,,,,,,,,FF,,,,,,,,1.4525,,,,,,,,,,,,,,,,,,,,,,6103597aec377370bfbcbf7c,61036c16fa204abcfaf5a9e0,2021-07-29_23h04.47.162,Simcolourproject_2stim_asymm_v5,2020.2.10,MacIntel,60,61025ae37ef11b136ea224fe,,,,,,,,,1447,-69.84375,29.39453125,1,0,0,response7disk,,1,-18.38671875,-5.9453125,1,0,0,rectangle,-18.38671875,-5.9453125,1,0,0,-18.38671875,-5.9453125,1,0,0,0,73,73,97,1,,,,,,,,
,,,,,,,,,,,,,FF,,,,,,,,0.6013,,,,,,,,,,,,,,,,,,,,,,6103597aec377370bfbcbf7c,61036c16fa204abcfaf5a9e0,2021-07-29_23h04.47.162,Simcolourproject_2stim_asymm_v5,2020.2.10,MacIntel,60,61025ae37ef11b136ea224fe,,,,,,,,,3365,18.5078125,43.078125,1,0,0,response1disk,,7,18.5078125,-8.65234375,1,0,0,rectangle,18.5078125,-8.65234375,1,0,0,18.5078125,-8.65234375,1,0,0,0,74,74,147,1,,,,,,,,
,,,,,,,,,,,,,FF,,,,,,,,0.4001,,,,,,,,,,,,,,,,,,,,,,6103597aec377370bfbcbf7c,61036c16fa204abcfaf5a9e0,2021-07-29_23h04.47.162,Simcolourproject_2stim_asymm_v5,2020.2.10,MacIntel,60,61025ae37ef11b136ea224fe,,,,,,,,,2469,25.91015625,22.62890625,1,0,0,response1disk,,6,22.1875,9.42578125,1,0,0,rectangle,22.1875,9.42578125,1,0,0,22.1875,9.42578125,1,0,0,0,75,75,133,1,,,,,,,,
,,,,,,,,,,,,,FF,,,,,,,,1.3198,,,,,,,,,,,,,,,,,,,,,,6103597aec377370bfbcbf7c,61036c16fa204abcfaf5a9e0,2021-07-29_23h04.47.162,Simcolourproject_2stim_asymm_v5,2020.2.10,MacIntel,60,61025ae37ef11b136ea224fe,,,,,,,,,4126,41.07421875,-24.68359375,1,0,0,response3disk,,5,23.8046875,7.984375,1,0,0,rectangle,23.8046875,7.984375,1,0,0,23.8046875,7.984375,1,0,0,0,76,76,93,1,,,,,,,,
,,,,,,,,,,,,,FF,,,,,,,,0.92,,,,,,,,,,,,,,,,,,,,,,6103597aec377370bfbcbf7c,61036c16fa204abcfaf5a9e0,2021-07-29_23h04.47.162,Simcolourproject_2stim_asymm_v5,2020.2.10,MacIntel,60,61025ae37ef11b136ea224fe,,,,,,,,,963,31.80859375,47.54296875,1,0,0,response1disk,,7,21.16015625,2.2578125,1,0,0,rectangle,21.16015625,2.2578125,1,0,0,21.16015625,2.2578125,1,0,0,0,77,77,41,1,,,,,,,,
,,,,,,,,,,,,,FF,,,,,,,,0.4011,,,,,,,,,,,,,,,,,,,,,,6103597aec377370bfbcbf7c,61036c16fa204abcfaf5a9e0,2021-07-29_23h04.47.162,Simcolourproject_2stim_asymm_v5,2020.2.10,MacIntel,60,61025ae37ef11b136ea224fe,,,,,,,,,1488,29.125,39.09375,1,0,0,response1disk,,7,29.125,11.54296875,1,0,0,rectangle,29.125,11.54296875,1,0,0,29.125,11.54296875,1,0,0,0,78,78,154,1,,,,,,,,
,,,,,,,,,,,,,FF,,,,,,,,1.018,,,,,,,,,,,,,,,,,,,,,,6103597aec377370bfbcbf7c,61036c16fa204abcfaf5a9e0,2021-07-29_23h04.47.162,Simcolourproject_2stim_asymm_v5,2020.2.10,MacIntel,60,61025ae37ef11b136ea224fe,,,,,,,,,1802,38.75,58.0625,1,0,0,response1disk,,7,20.85546875,13.51171875,1,0,0,rectangle,20.85546875,13.51171875,1,0,0,20.85546875,13.51171875,1,0,0,0,79,79,8,1,,,,,,,,
,,,,,,,,,,,,,FF,,,,,,,,0.8186,,,,,,,,,,,,,,,,,,,,,,6103597aec377370bfbcbf7c,61036c16fa204abcfaf5a9e0,2021-07-29_23h04.47.162,Simcolourproject_2stim_asymm_v5,2020.2.10,MacIntel,60,61025ae37ef11b136ea224fe,,,,,,,,,2972,24.05078125,35.546875,1,0,0,response1disk,,7,11.71875,-11.20703125,1,0,0,rectangle,11.71875,-11.20703125,1,0,0,11.71875,-11.20703125,1,0,0,0,80,80,149,1,,,,,,,,
,,,,,,,,,,,,,FF,,,,,,,,0.4341,,,,,,,,,,,,,,,,,,,,,,6103597aec377370bfbcbf7c,61036c16fa204abcfaf5a9e0,2021-07-29_23h04.47.162,Simcolourproject_2stim_asymm_v5,2020.2.10,MacIntel,60,61025ae37ef11b136ea224fe,,,,,,,,,3690,23.55859375,35.5703125,1,0,0,response1disk,,7,21.34765625,8.19921875,1,0,0,rectangle,21.34765625,8.19921875,1,0,0,21.34765625,8.19921875,1,0,0,0,81,81,158,1,,,,,,,,
,,,,,,,,,,,,,FF,,,,,,,,0.5347,,,,,,,,,,,,,,,,,,,,,,6103597aec377370bfbcbf7c,61036c16fa204abcfaf5a9e0,2021-07-29_23h04.47.162,Simcolourproject_2stim_asymm_v5,2020.2.10,MacIntel,60,61025ae37ef11b136ea224fe,,,,,,,,,3728,33.30078125,36.55078125,1,0,0,response1disk,,7,33.30078125,15.6796875,1,0,0,rectangle,33.30078125,15.6796875,1,0,0,33.30078125,15.6796875,1,0,0,0,82,82,0,1,,,,,,,,
,,,,,,,,,,,,,FF,,,,,,,,0.4833,,,,,,,,,,,,,,,,,,,,,,6103597aec377370bfbcbf7c,61036c16fa204abcfaf5a9e0,2021-07-29_23h04.47.162,Simcolourproject_2stim_asymm_v5,2020.2.10,MacIntel,60,61025ae37ef11b136ea224fe,,,,,,,,,2475,37.71484375,48.4765625,1,0,0,response1disk,,7,20.58203125,11.84375,1,0,0,rectangle,20.58203125,11.84375,1,0,0,20.58203125,11.84375,1,0,0,0,83,83,141,1,,,,,,,,
,,,,,,,,,,,,,FF,,,,,,,,0.3523,,,,,,,,,,,,,,,,,,,,,,6103597aec377370bfbcbf7c,61036c16fa204abcfaf5a9e0,2021-07-29_23h04.47.162,Simcolourproject_2stim_asymm_v5,2020.2.10,MacIntel,60,61025ae37ef11b136ea224fe,,,,,,,,,3134,30.7265625,38.83203125,1,0,0,response1disk,,7,15.8828125,1.72265625,1,0,0,rectangle,15.8828125,1.72265625,1,0,0,15.8828125,1.72265625,1,0,0,0,84,84,79,1,,,,,,,,
,,,,,,,,,,,,,FF,,,,,,,,0.3829,,,,,,,,,,,,,,,,,,,,,,6103597aec377370bfbcbf7c,61036c16fa204abcfaf5a9e0,2021-07-29_23h04.47.162,Simcolourproject_2stim_asymm_v5,2020.2.10,MacIntel,60,61025ae37ef11b136ea224fe,,,,,,,,,1732,22.46875,30.984375,1,0,0,response1disk,,7,15.83203125,10.359375,1,0,0,rectangle,15.83203125,10.359375,1,0,0,15.83203125,10.359375,1,0,0,0,85,85,155,1,,,,,,,,
,,,,,,,,,,,,,FF,,,,,,,,0.3665,,,,,,,,,,,,,,,,,,,,,,6103597aec377370bfbcbf7c,61036c16fa204abcfaf5a9e0,2021-07-29_23h04.47.162,Simcolourproject_2stim_asymm_v5,2020.2.10,MacIntel,60,61025ae37ef11b136ea224fe,,,,,,,,,4158,24.1953125,35.15234375,1,0,0,response1disk,,7,14.125,-7.44140625,1,0,0,rectangle,14.125,-7.44140625,1,0,0,14.125,-7.44140625,1,0,0,0,86,86,59,1,,,,,,,,
,,,,,,,,,,,,,FF,,,,,,,,0.5013,,,,,,,,,,,,,,,,,,,,,,6103597aec377370bfbcbf7c,61036c16fa204abcfaf5a9e0,2021-07-29_23h04.47.162,Simcolourproject_2stim_asymm_v5,2020.2.10,MacIntel,60,61025ae37ef11b136ea224fe,,,,,,,,,2276,25.63671875,32.44140625,1,0,0,response1disk,,7,22.22265625,-2.28515625,1,0,0,rectangle,22.22265625,-2.28515625,1,0,0,22.22265625,-2.28515625,1,0,0,0,87,87,137,1,,,,,,,,
,,,,,,,,,,,,,FF,,,,,,,,1.4027,,,,,,,,,,,,,,,,,,,,,,6103597aec377370bfbcbf7c,61036c16fa204abcfaf5a9e0,2021-07-29_23h04.47.162,Simcolourproject_2stim_asymm_v5,2020.2.10,MacIntel,60,61025ae37ef11b136ea224fe,,,,,,,,,1463,43.8046875,41.0625,1,0,0,response1disk,,6,12.36328125,9.90625,1,0,0,rectangle,12.36328125,9.90625,1,0,0,12.36328125,9.90625,1,0,0,0,88,88,117,1,,,,,,,,
,,,,,,,,,,,,,FF,,,,,,,,0.5675,,,,,,,,,,,,,,,,,,,,,,6103597aec377370bfbcbf7c,61036c16fa204abcfaf5a9e0,2021-07-29_23h04.47.162,Simcolourproject_2stim_asymm_v5,2020.2.10,MacIntel,60,61025ae37ef11b136ea224fe,,,,,,,,,230,18.6953125,57.9765625,1,0,0,response1disk,,7,15.7734375,7.33203125,1,0,0,rectangle,-30.3203125,-48.91796875,1,0,0,-8.08203125,-10.48046875,1,0,0,0,89,89,76,1,,response5disk_3,TRUE,3,3,"[90,99,18,262,98,137,294,178,129,70,225,216,273,6,226,134,105,99,194,295]",1.872,rectangle
,,,,,,,,,,,,,FF,,,,,,,,0.5005,,,,,,,,,,,,,,,,,,,,,,6103597aec377370bfbcbf7c,61036c16fa204abcfaf5a9e0,2021-07-29_23h04.47.162,Simcolourproject_2stim_asymm_v5,2020.2.10,MacIntel,60,61025ae37ef11b136ea224fe,,,,,,,,,54,16.09375,32.44140625,1,0,0,response1disk,,7,15.4609375,2.42578125,1,0,0,rectangle,15.4609375,2.42578125,1,0,0,15.4609375,2.42578125,1,0,0,0,90,90,108,1,,,,,,,,
,,,,,,,,,,,,,FF,,,,,,,,0.3326,,,,,,,,,,,,,,,,,,,,,,6103597aec377370bfbcbf7c,61036c16fa204abcfaf5a9e0,2021-07-29_23h04.47.162,Simcolourproject_2stim_asymm_v5,2020.2.10,MacIntel,60,61025ae37ef11b136ea224fe,,,,,,,,,3587,25.19921875,31.27734375,1,0,0,response1disk,,7,20.37109375,11.49609375,1,0,0,rectangle,20.37109375,11.49609375,1,0,0,20.37109375,11.49609375,1,0,0,0,91,91,128,1,,,,,,,,
,,,,,,,,,,,,,FF,,,,,,,,0.8445,,,,,,,,,,,,,,,,,,,,,,6103597aec377370bfbcbf7c,61036c16fa204abcfaf5a9e0,2021-07-29_23h04.47.162,Simcolourproject_2stim_asymm_v5,2020.2.10,MacIntel,60,61025ae37ef11b136ea224fe,,,,,,,,,4344,-55.90625,68.921875,1,0,0,response7disk,,0,-27.4609375,0.5703125,1,0,0,rectangle,-27.4609375,0.5703125,1,0,0,-27.4609375,0.5703125,1,0,0,0,92,92,56,1,,,,,,,,
,,,,,,,,,,,,,FF,,,,,,,,2.1403,,,,,,,,,,,,,,,,,,,,,,6103597aec377370bfbcbf7c,61036c16fa204abcfaf5a9e0,2021-07-29_23h04.47.162,Simcolourproject_2stim_asymm_v5,2020.2.10,MacIntel,60,61025ae37ef11b136ea224fe,,,,,,,,,4034,47.48828125,28.3203125,1,0,0,response1disk,,6,8.73046875,11.05859375,1,0,0,rectangle,8.73046875,11.05859375,1,0,0,8.73046875,11.05859375,1,0,0,0,93,93,140,1,,,,,,,,
,,,,,,,,,,,,,FF,,,,,,,,0.986,,,,,,,,,,,,,,,,,,,,,,6103597aec377370bfbcbf7c,61036c16fa204abcfaf5a9e0,2021-07-29_23h04.47.162,Simcolourproject_2stim_asymm_v5,2020.2.10,MacIntel,60,61025ae37ef11b136ea224fe,,,,,,,,,3595,49.44921875,-22.93359375,1,0,0,response3disk,,5,7.44921875,6.37890625,1,0,0,rectangle,7.44921875,6.37890625,1,0,0,7.44921875,6.37890625,1,0,0,0,94,94,127,1,,,,,,,,
,,,,,,,,,,,,,FF,,,,,,,,0.8362,,,,,,,,,,,,,,,,,,,,,,6103597aec377370bfbcbf7c,61036c16fa204abcfaf5a9e0,2021-07-29_23h04.47.162,Simcolourproject_2stim_asymm_v5,2020.2.10,MacIntel,60,61025ae37ef11b136ea224fe,,,,,,,,,786,45.62109375,31.625,1,0,0,response1disk,,6,22.08203125,6.9765625,1,0,0,rectangle,22.08203125,6.9765625,1,0,0,22.08203125,6.9765625,1,0,0,0,95,95,151,1,,,,,,,,
,,,,,,,,,,,,,FF,,,,,,,,0.7196,,,,,,,,,,,,,,,,,,,,,,6103597aec377370bfbcbf7c,61036c16fa204abcfaf5a9e0,2021-07-29_23h04.47.162,Simcolourproject_2stim_asymm_v5,2020.2.10,MacIntel,60,61025ae37ef11b136ea224fe,,,,,,,,,4314,26.30859375,55.83203125,1,0,0,response1disk,,7,26.046875,-10.4921875,1,0,0,rectangle,26.046875,-10.4921875,1,0,0,26.046875,-10.4921875,1,0,0,0,96,96,87,1,,,,,,,,
,,,,,,,,,,,,,FF,,,,,,,,0.7018,,,,,,,,,,,,,,,,,,,,,,6103597aec377370bfbcbf7c,61036c16fa204abcfaf5a9e0,2021-07-29_23h04.47.162,Simcolourproject_2stim_asymm_v5,2020.2.10,MacIntel,60,61025ae37ef11b136ea224fe,,,,,,,,,2039,55.42578125,-32.35546875,1,0,0,response3disk,,5,24.45703125,-8.09375,1,0,0,rectangle,80.0390625,-31.25,1,0,0,30.9921875,-11.34375,1,0,0,0,97,97,104,1,,response3disk_3,TRUE,5,5,"[90,99,18,262,98,137,294,178,129,70,225,216,273,6,226,134,105,99,194,295]",1.4527,rectangle
,,,,,,,,,,,,,FF,,,,,,,,0.6022,,,,,,,,,,,,,,,,,,,,,,6103597aec377370bfbcbf7c,61036c16fa204abcfaf5a9e0,2021-07-29_23h04.47.162,Simcolourproject_2stim_asymm_v5,2020.2.10,MacIntel,60,61025ae37ef11b136ea224fe,,,,,,,,,2404,32.1328125,42.0234375,1,0,0,response1disk,,7,19.53125,8.78125,1,0,0,rectangle,-53.21875,-35.7734375,1,0,0,-7.45703125,-17.9140625,1,0,0,0,98,98,107,1,,response5disk_3,TRUE,2,2,"[90,99,18,262,98,137,294,178,129,70,225,216,273,6,226,134,105,99,194,295]",1.4714,rectangle
,,,,,,,,,,,,,FF,,,,,,,,0.6846,,,,,,,,,,,,,,,,,,,,,,6103597aec377370bfbcbf7c,61036c16fa204abcfaf5a9e0,2021-07-29_23h04.47.162,Simcolourproject_2stim_asymm_v5,2020.2.10,MacIntel,60,61025ae37ef11b136ea224fe,,,,,,,,,947,32.90234375,34.234375,1,0,0,response1disk,,7,15.1875,-3,1,0,0,rectangle,15.1875,-3,1,0,0,15.1875,-3,1,0,0,0,99,99,44,1,,,,,,,,
,,,,,,,,,,,,,FF,,,,,,,,0.9368,,,,,,,,,,,,,,,,,,,,,,6103597aec377370bfbcbf7c,61036c16fa204abcfaf5a9e0,2021-07-29_23h04.47.162,Simcolourproject_2stim_asymm_v5,2020.2.10,MacIntel,60,61025ae37ef11b136ea224fe,,,,,,,,,973,-40.078125,30.21484375,1,0,0,response7disk,,1,-19.81640625,-1.37109375,1,0,0,rectangle,-19.81640625,-1.37109375,1,0,0,-19.81640625,-1.37109375,1,0,0,0,100,100,25,1,,,,,,,,
,,,,,,,,,,,,,FF,,,,,,,,0.5866,,,,,,,,,,,,,,,,,,,,,,6103597aec377370bfbcbf7c,61036c16fa204abcfaf5a9e0,2021-07-29_23h04.47.162,Simcolourproject_2stim_asymm_v5,2020.2.10,MacIntel,60,61025ae37ef11b136ea224fe,,,,,,,,,4313,22.07421875,49.875,1,0,0,response1disk,,7,17.80078125,16.07421875,1,0,0,rectangle,17.80078125,16.07421875,1,0,0,17.80078125,16.07421875,1,0,0,0,101,101,157,1,,,,,,,,
,,,,,,,,,,,,,FF,,,,,,,,1.2881,,,,,,,,,,,,,,,,,,,,,,6103597aec377370bfbcbf7c,61036c16fa204abcfaf5a9e0,2021-07-29_23h04.47.162,Simcolourproject_2stim_asymm_v5,2020.2.10,MacIntel,60,61025ae37ef11b136ea224fe,,,,,,,,,739,44.07421875,34.9375,1,0,0,response1disk,,6,14.5078125,6.5546875,1,0,0,rectangle,14.5078125,6.5546875,1,0,0,14.5078125,6.5546875,1,0,0,0,102,102,91,1,,,,,,,,
,,,,,,,,,,,,,FF,,,,,,,,1.3534,,,,,,,,,,,,,,,,,,,,,,6103597aec377370bfbcbf7c,61036c16fa204abcfaf5a9e0,2021-07-29_23h04.47.162,Simcolourproject_2stim_asymm_v5,2020.2.10,MacIntel,60,61025ae37ef11b136ea224fe,,,,,,,,,4124,49.56640625,31.51171875,1,0,0,response1disk,,6,2.578125,-5.5703125,1,0,0,rectangle,2.578125,-5.5703125,1,0,0,2.578125,-5.5703125,1,0,0,0,103,103,153,1,,,,,,,,
,,,,,,,,,,,,,FF,,,,,,,,0.5343,,,,,,,,,,,,,,,,,,,,,,6103597aec377370bfbcbf7c,61036c16fa204abcfaf5a9e0,2021-07-29_23h04.47.162,Simcolourproject_2stim_asymm_v5,2020.2.10,MacIntel,60,61025ae37ef11b136ea224fe,,,,,,,,,1021,27.73828125,43.6328125,1,0,0,response1disk,,7,26.18359375,14.35546875,1,0,0,rectangle,49.921875,66.92578125,1,0,0,29.203125,-6.5,1,0,0,0,104,104,65,1,,response1disk_3,TRUE,7,7,"[90,99,18,262,98,137,294,178,129,70,225,216,273,6,226,134,105,99,194,295]",1.4711,rectangle
,,,,,,,,,,,,,FF,,,,,,,,1.2212,,,,,,,,,,,,,,,,,,,,,,6103597aec377370bfbcbf7c,61036c16fa204abcfaf5a9e0,2021-07-29_23h04.47.162,Simcolourproject_2stim_asymm_v5,2020.2.10,MacIntel,60,61025ae37ef11b136ea224fe,,,,,,,,,4025,54,30.14453125,1,0,0,response1disk,,6,18.859375,8.953125,1,0,0,rectangle,18.859375,8.953125,1,0,0,18.859375,8.953125,1,0,0,0,105,105,3,1,,,,,,,,
,,,,,,,,,,,,,FF,,,,,,,,1.7204,,,,,,,,,,,,,,,,,,,,,,6103597aec377370bfbcbf7c,61036c16fa204abcfaf5a9e0,2021-07-29_23h04.47.162,Simcolourproject_2stim_asymm_v5,2020.2.10,MacIntel,60,61025ae37ef11b136ea224fe,,,,,,,,,3898,-33.91796875,-62.62109375,1,0,0,response5disk,,3,-13.97265625,-4.93359375,1,0,0,rectangle,-13.97265625,-4.93359375,1,0,0,-13.97265625,-4.93359375,1,0,0,0,106,106,29,1,,,,,,,,
,,,,,,,,,,,,,FF,,,,,,,,0.8364,,,,,,,,,,,,,,,,,,,,,,6103597aec377370bfbcbf7c,61036c16fa204abcfaf5a9e0,2021-07-29_23h04.47.162,Simcolourproject_2stim_asymm_v5,2020.2.10,MacIntel,60,61025ae37ef11b136ea224fe,,,,,,,,,3547,24.11328125,34.3203125,1,0,0,response1disk,,7,12.671875,-3.30859375,1,0,0,rectangle,12.671875,-3.30859375,1,0,0,12.671875,-3.30859375,1,0,0,0,107,107,70,1,,,,,,,,
,,,,,,,,,,,,,FF,,,,,,,,0.6692,,,,,,,,,,,,,,,,,,,,,,6103597aec377370bfbcbf7c,61036c16fa204abcfaf5a9e0,2021-07-29_23h04.47.162,Simcolourproject_2stim_asymm_v5,2020.2.10,MacIntel,60,61025ae37ef11b136ea224fe,,,,,,,,,3724,24.86328125,33.16796875,1,0,0,response1disk,,7,22.32421875,-5.32421875,1,0,0,rectangle,22.32421875,-5.32421875,1,0,0,22.32421875,-5.32421875,1,0,0,0,108,108,30,1,,,,,,,,
,,,,,,,,,,,,,FF,,,,,,,,1.1696,,,,,,,,,,,,,,,,,,,,,,6103597aec377370bfbcbf7c,61036c16fa204abcfaf5a9e0,2021-07-29_23h04.47.162,Simcolourproject_2stim_asymm_v5,2020.2.10,MacIntel,60,61025ae37ef11b136ea224fe,,,,,,,,,1133,-70.8125,-22.83203125,1,0,0,response5disk,,2,-17.3984375,-1.86328125,1,0,0,rectangle,-17.3984375,-1.86328125,1,0,0,-17.3984375,-1.86328125,1,0,0,0,109,109,103,1,,,,,,,,
,,,,,,,,,,,,,FF,,,,,,,,0.8347,,,,,,,,,,,,,,,,,,,,,,6103597aec377370bfbcbf7c,61036c16fa204abcfaf5a9e0,2021-07-29_23h04.47.162,Simcolourproject_2stim_asymm_v5,2020.2.10,MacIntel,60,61025ae37ef11b136ea224fe,,,,,,,,,2712,-22.77734375,-36.1796875,1,0,0,response5disk,,3,-4.63671875,-10.90625,1,0,0,rectangle,-4.63671875,-10.90625,1,0,0,-4.63671875,-10.90625,1,0,0,0,110,110,145,1,,,,,,,,
,,,,,,,,,,,,,FF,,,,,,,,0.8364,,,,,,,,,,,,,,,,,,,,,,6103597aec377370bfbcbf7c,61036c16fa204abcfaf5a9e0,2021-07-29_23h04.47.162,Simcolourproject_2stim_asymm_v5,2020.2.10,MacIntel,60,61025ae37ef11b136ea224fe,,,,,,,,,3149,-30.38671875,-43.4609375,1,0,0,response5disk,,3,-19.6484375,-13.78515625,1,0,0,rectangle,-19.6484375,-13.78515625,1,0,0,-19.6484375,-13.78515625,1,0,0,0,111,111,57,1,,,,,,,,
,,,,,,,,,,,,,FF,,,,,,,,0.8364,,,,,,,,,,,,,,,,,,,,,,6103597aec377370bfbcbf7c,61036c16fa204abcfaf5a9e0,2021-07-29_23h04.47.162,Simcolourproject_2stim_asymm_v5,2020.2.10,MacIntel,60,61025ae37ef11b136ea224fe,,,,,,,,,1118,19.4140625,26.80078125,1,0,0,response1disk,,7,14.40234375,6.48828125,1,0,0,rectangle,14.40234375,6.48828125,1,0,0,14.40234375,6.48828125,1,0,0,0,112,112,78,1,,,,,,,,
,,,,,,,,,,,,,FF,,,,,,,,0.4693,,,,,,,,,,,,,,,,,,,,,,6103597aec377370bfbcbf7c,61036c16fa204abcfaf5a9e0,2021-07-29_23h04.47.162,Simcolourproject_2stim_asymm_v5,2020.2.10,MacIntel,60,61025ae37ef11b136ea224fe,,,,,,,,,1037,23.328125,33.8203125,1,0,0,response1disk,,7,19.1171875,9.16015625,1,0,0,rectangle,19.1171875,9.16015625,1,0,0,19.1171875,9.16015625,1,0,0,0,113,113,48,1,,,,,,,,
,,,,,,,,,,,,,FF,,,,,,,,0.3509,,,,,,,,,,,,,,,,,,,,,,6103597aec377370bfbcbf7c,61036c16fa204abcfaf5a9e0,2021-07-29_23h04.47.162,Simcolourproject_2stim_asymm_v5,2020.2.10,MacIntel,60,61025ae37ef11b136ea224fe,,,,,,,,,1625,39.14453125,61.703125,1,0,0,response1disk,,7,28.59375,15.9921875,1,0,0,rectangle,28.59375,15.9921875,1,0,0,28.59375,15.9921875,1,0,0,0,114,114,129,1,,,,,,,,
,,,,,,,,,,,,,FF,,,,,,,,0.3004,,,,,,,,,,,,,,,,,,,,,,6103597aec377370bfbcbf7c,61036c16fa204abcfaf5a9e0,2021-07-29_23h04.47.162,Simcolourproject_2stim_asymm_v5,2020.2.10,MacIntel,60,61025ae37ef11b136ea224fe,,,,,,,,,69,36.3125,49.06640625,1,0,0,response1disk,,7,22.29296875,-3.83984375,1,0,0,rectangle,22.29296875,-3.83984375,1,0,0,22.29296875,-3.83984375,1,0,0,0,115,115,77,1,,,,,,,,
,,,,,,,,,,,,,FF,,,,,,,,1.4033,,,,,,,,,,,,,,,,,,,,,,6103597aec377370bfbcbf7c,61036c16fa204abcfaf5a9e0,2021-07-29_23h04.47.162,Simcolourproject_2stim_asymm_v5,2020.2.10,MacIntel,60,61025ae37ef11b136ea224fe,,,,,,,,,1144,75.29296875,-39.1640625,1,0,0,response3disk,,5,17.43359375,2.359375,1,0,0,rectangle,17.43359375,2.359375,1,0,0,17.43359375,2.359375,1,0,0,0,116,116,144,1,,,,,,,,
,,,,,,,,,,,,,FF,,,,,,,,0.7351,,,,,,,,,,,,,,,,,,,,,,6103597aec377370bfbcbf7c,61036c16fa204abcfaf5a9e0,2021-07-29_23h04.47.162,Simcolourproject_2stim_asymm_v5,2020.2.10,MacIntel,60,61025ae37ef11b136ea224fe,,,,,,,,,1773,29.57421875,48.41015625,1,0,0,response1disk,,7,8.84765625,-9.79296875,1,0,0,rectangle,8.84765625,-9.79296875,1,0,0,8.84765625,-9.79296875,1,0,0,0,117,117,43,1,,,,,,,,
,,,,,,,,,,,,,FF,,,,,,,,1.1198,,,,,,,,,,,,,,,,,,,,,,6103597aec377370bfbcbf7c,61036c16fa204abcfaf5a9e0,2021-07-29_23h04.47.162,Simcolourproject_2stim_asymm_v5,2020.2.10,MacIntel,60,61025ae37ef11b136ea224fe,,,,,,,,,1291,-61.46484375,-48.69140625,1,0,0,response5disk,,2,-16.4765625,-9.8984375,1,0,0,rectangle,-16.4765625,-9.8984375,1,0,0,-16.4765625,-9.8984375,1,0,0,0,118,118,126,1,,,,,,,,
,,,,,,,,,,,,,FF,,,,,,,,1.6212,,,,,,,,,,,,,,,,,,,,,,6103597aec377370bfbcbf7c,61036c16fa204abcfaf5a9e0,2021-07-29_23h04.47.162,Simcolourproject_2stim_asymm_v5,2020.2.10,MacIntel,60,61025ae37ef11b136ea224fe,,,,,,,,,2957,36.61328125,63.5078125,1,0,0,response1disk,,7,12.04296875,1.4765625,1,0,0,rectangle,12.04296875,1.4765625,1,0,0,12.04296875,1.4765625,1,0,0,0,119,119,66,1,,,,,,,,
,,,,,,,,,,,,,FF,,,,,,,,0.5355,,,,,,,,,,,,,,,,,,,,,,6103597aec377370bfbcbf7c,61036c16fa204abcfaf5a9e0,2021-07-29_23h04.47.162,Simcolourproject_2stim_asymm_v5,2020.2.10,MacIntel,60,61025ae37ef11b136ea224fe,,,,,,,,,3626,23.9296875,36.44140625,1,0,0,response1disk,,7,10.15234375,0.26171875,1,0,0,rectangle,10.15234375,0.26171875,1,0,0,10.15234375,0.26171875,1,0,0,0,120,120,102,1,,,,,,,,
,,,,,,,,,,,,,FF,,,,,,,,2.5059,,,,,,,,,,,,,,,,,,,,,,6103597aec377370bfbcbf7c,61036c16fa204abcfaf5a9e0,2021-07-29_23h04.47.162,Simcolourproject_2stim_asymm_v5,2020.2.10,MacIntel,60,61025ae37ef11b136ea224fe,,,,,,,,,4354,47.0625,-30.22265625,1,0,0,response3disk,,5,15.2109375,-6.10546875,1,0,0,rectangle,15.2109375,-6.10546875,1,0,0,15.2109375,-6.10546875,1,0,0,0,121,121,18,1,,,,,,,,
,,,,,,,,,,,,,FF,,,,,,,,1.6552,,,,,,,,,,,,,,,,,,,,,,6103597aec377370bfbcbf7c,61036c16fa204abcfaf5a9e0,2021-07-29_23h04.47.162,Simcolourproject_2stim_asymm_v5,2020.2.10,MacIntel,60,61025ae37ef11b136ea224fe,,,,,,,,,1191,32.8359375,37.609375,1,0,0,response1disk,,7,7.2109375,-6.44140625,1,0,0,rectangle,7.2109375,-6.44140625,1,0,0,7.2109375,-6.44140625,1,0,0,0,122,122,74,1,,,,,,,,
,,,,,,,,,,,,,FF,,,,,,,,1.3511,,,,,,,,,,,,,,,,,,,,,,6103597aec377370bfbcbf7c,61036c16fa204abcfaf5a9e0,2021-07-29_23h04.47.162,Simcolourproject_2stim_asymm_v5,2020.2.10,MacIntel,60,61025ae37ef11b136ea224fe,,,,,,,,,199,48.5859375,24.14453125,1,0,0,response1disk,,6,22.21484375,12.86328125,1,0,0,rectangle,22.21484375,12.86328125,1,0,0,22.21484375,12.86328125,1,0,0,0,123,123,82,1,,,,,,,,
,,,,,,,,,,,,,FF,,,,,,,,2.0212,,,,,,,,,,,,,,,,,,,,,,6103597aec377370bfbcbf7c,61036c16fa204abcfaf5a9e0,2021-07-29_23h04.47.162,Simcolourproject_2stim_asymm_v5,2020.2.10,MacIntel,60,61025ae37ef11b136ea224fe,,,,,,,,,824,-85.71484375,29.94921875,1,0,0,response7disk,,1,-9.8828125,-10.2734375,1,0,0,rectangle,-9.8828125,-10.2734375,1,0,0,-9.8828125,-10.2734375,1,0,0,0,124,124,72,1,,,,,,,,
,,,,,,,,,,,,,FF,,,,,,,,0.9553,,,,,,,,,,,,,,,,,,,,,,6103597aec377370bfbcbf7c,61036c16fa204abcfaf5a9e0,2021-07-29_23h04.47.162,Simcolourproject_2stim_asymm_v5,2020.2.10,MacIntel,60,61025ae37ef11b136ea224fe,,,,,,,,,586,27.140625,40.62109375,1,0,0,response1disk,,7,-2.703125,8.8984375,1,0,0,rectangle,-2.703125,8.8984375,1,0,0,-2.703125,8.8984375,1,0,0,0,125,125,111,1,,,,,,,,
,,,,,,,,,,,,,FF,,,,,,,,11.7817,,,,,,,,,,,,,,,,,,,,,,6103597aec377370bfbcbf7c,61036c16fa204abcfaf5a9e0,2021-07-29_23h04.47.162,Simcolourproject_2stim_asymm_v5,2020.2.10,MacIntel,60,61025ae37ef11b136ea224fe,,,,,,,,,1322,29.796875,40.87890625,1,0,0,response1disk,,7,10.6328125,-13.359375,1,0,0,rectangle,10.6328125,-13.359375,1,0,0,10.6328125,-13.359375,1,0,0,0,126,126,71,1,,,,,,,,
,,,,,,,,,,,,,FF,,,,,,,,1.0362,,,,,,,,,,,,,,,,,,,,,,6103597aec377370bfbcbf7c,61036c16fa204abcfaf5a9e0,2021-07-29_23h04.47.162,Simcolourproject_2stim_asymm_v5,2020.2.10,MacIntel,60,61025ae37ef11b136ea224fe,,,,,,,,,953,-41.453125,-54.046875,1,0,0,response5disk,,3,-13.1171875,4.30859375,1,0,0,rectangle,-13.1171875,4.30859375,1,0,0,-13.1171875,4.30859375,1,0,0,0,127,127,50,1,,,,,,,,
,,,,,,,,,,,,,FF,,,,,,,,0.8862,,,,,,,,,,,,,,,,,,,,,,6103597aec377370bfbcbf7c,61036c16fa204abcfaf5a9e0,2021-07-29_23h04.47.162,Simcolourproject_2stim_asymm_v5,2020.2.10,MacIntel,60,61025ae37ef11b136ea224fe,,,,,,,,,2176,19.31640625,-64.39453125,1,0,0,response3disk,,4,7.38671875,-9.48828125,1,0,0,rectangle,31.75,-78.265625,1,0,0,12.203125,6.953125,1,0,0,0,128,128,1,1,,response3disk_3,TRUE,4,4,"[90,99,18,262,98,137,294,178,129,70,225,216,273,6,226,134,105,99,194,295]",1.4035,rectangle
,,,,,,,,,,,,,FF,,,,,,,,0.7025,,,,,,,,,,,,,,,,,,,,,,6103597aec377370bfbcbf7c,61036c16fa204abcfaf5a9e0,2021-07-29_23h04.47.162,Simcolourproject_2stim_asymm_v5,2020.2.10,MacIntel,60,61025ae37ef11b136ea224fe,,,,,,,,,1870,21.83203125,58.984375,1,0,0,response1disk,,7,18.0703125,3.84375,1,0,0,rectangle,18.0703125,3.84375,1,0,0,18.0703125,3.84375,1,0,0,0,129,129,143,1,,,,,,,,
,,,,,,,,,,,,,FF,,,,,,,,1.3044,,,,,,,,,,,,,,,,,,,,,,6103597aec377370bfbcbf7c,61036c16fa204abcfaf5a9e0,2021-07-29_23h04.47.162,Simcolourproject_2stim_asymm_v5,2020.2.10,MacIntel,60,61025ae37ef11b136ea224fe,,,,,,,,,1433,69.25,59.3125,1,0,0,response1disk,,6,30.1484375,5.12890625,1,0,0,rectangle,30.1484375,5.12890625,1,0,0,30.1484375,5.12890625,1,0,0,0,130,130,96,1,,,,,,,,
,,,,,,,,,,,,,FF,,,,,,,,1.6037,,,,,,,,,,,,,,,,,,,,,,6103597aec377370bfbcbf7c,61036c16fa204abcfaf5a9e0,2021-07-29_23h04.47.162,Simcolourproject_2stim_asymm_v5,2020.2.10,MacIntel,60,61025ae37ef11b136ea224fe,,,,,,,,,2018,26.97265625,61.05078125,1,0,0,response1disk,,7,9.02734375,0.90234375,1,0,0,rectangle,9.02734375,0.90234375,1,0,0,9.02734375,0.90234375,1,0,0,0,131,131,55,1,,,,,,,,
,,,,,,,,,,,,,FF,,,,,,,,1.0851,,,,,,,,,,,,,,,,,,,,,,6103597aec377370bfbcbf7c,61036c16fa204abcfaf5a9e0,2021-07-29_23h04.47.162,Simcolourproject_2stim_asymm_v5,2020.2.10,MacIntel,60,61025ae37ef11b136ea224fe,,,,,,,,,1702,33.890625,61.859375,1,0,0,response1disk,,7,18.6015625,16.82421875,1,0,0,rectangle,18.6015625,16.82421875,1,0,0,18.6015625,16.82421875,1,0,0,0,132,132,122,1,,,,,,,,
,,,,,,,,,,,,,FF,,,,,,,,0.8016,,,,,,,,,,,,,,,,,,,,,,6103597aec377370bfbcbf7c,61036c16fa204abcfaf5a9e0,2021-07-29_23h04.47.162,Simcolourproject_2stim_asymm_v5,2020.2.10,MacIntel,60,61025ae37ef11b136ea224fe,,,,,,,,,2297,-37.02734375,-48.890625,1,0,0,response5disk,,3,-26.01953125,-14.8203125,1,0,0,rectangle,-64.7265625,-42.63671875,1,0,0,-29.98046875,-9.65625,1,0,0,0,133,133,42,1,,response5disk_3,TRUE,2,2,"[90,99,18,262,98,137,294,178,129,70,225,216,273,6,226,134,105,99,194,295]",1.168,rectangle
,,,,,,,,,,,,,FF,,,,,,,,0.4849,,,,,,,,,,,,,,,,,,,,,,6103597aec377370bfbcbf7c,61036c16fa204abcfaf5a9e0,2021-07-29_23h04.47.162,Simcolourproject_2stim_asymm_v5,2020.2.10,MacIntel,60,61025ae37ef11b136ea224fe,,,,,,,,,3490,30.52734375,42.63671875,1,0,0,response1disk,,7,18.859375,3.2578125,1,0,0,rectangle,18.859375,3.2578125,1,0,0,18.859375,3.2578125,1,0,0,0,134,134,94,1,,,,,,,,
,,,,,,,,,,,,,FF,,,,,,,,0.9527,,,,,,,,,,,,,,,,,,,,,,6103597aec377370bfbcbf7c,61036c16fa204abcfaf5a9e0,2021-07-29_23h04.47.162,Simcolourproject_2stim_asymm_v5,2020.2.10,MacIntel,60,61025ae37ef11b136ea224fe,,,,,,,,,2358,-28.0078125,-57.265625,1,0,0,response5disk,,3,-12.609375,-10.37890625,1,0,0,rectangle,-12.609375,-10.37890625,1,0,0,-12.609375,-10.37890625,1,0,0,0,135,135,64,1,,,,,,,,
,,,,,,,,,,,,,FF,,,,,,,,0.519,,,,,,,,,,,,,,,,,,,,,,6103597aec377370bfbcbf7c,61036c16fa204abcfaf5a9e0,2021-07-29_23h04.47.162,Simcolourproject_2stim_asymm_v5,2020.2.10,MacIntel,60,61025ae37ef11b136ea224fe,,,,,,,,,299,25.48828125,39.203125,1,0,0,response1disk,,7,0.5859375,-7.2890625,1,0,0,rectangle,81.578125,36.57421875,1,0,0,16.96484375,7.65234375,1,0,0,0,136,136,32,1,,response1disk_3,TRUE,6,6,"[90,99,18,262,98,137,294,178,129,70,225,216,273,6,226,134,105,99,194,295]",1.303,rectangle
,,,,,,,,,,,,,FF,,,,,,,,1.2203,,,,,,,,,,,,,,,,,,,,,,6103597aec377370bfbcbf7c,61036c16fa204abcfaf5a9e0,2021-07-29_23h04.47.162,Simcolourproject_2stim_asymm_v5,2020.2.10,MacIntel,60,61025ae37ef11b136ea224fe,,,,,,,,,4051,60.90625,-35.484375,1,0,0,response3disk,,5,-0.9375,4.734375,1,0,0,rectangle,-0.9375,4.734375,1,0,0,-0.9375,4.734375,1,0,0,0,137,137,139,1,,,,,,,,
,,,,,,,,,,,,,FF,,,,,,,,1.1043,,,,,,,,,,,,,,,,,,,,,,6103597aec377370bfbcbf7c,61036c16fa204abcfaf5a9e0,2021-07-29_23h04.47.162,Simcolourproject_2stim_asymm_v5,2020.2.10,MacIntel,60,61025ae37ef11b136ea224fe,,,,,,,,,3681,59.6484375,-42.2734375,1,0,0,response3disk,,5,8.42578125,-8.83203125,1,0,0,rectangle,8.42578125,-8.83203125,1,0,0,8.42578125,-8.83203125,1,0,0,0,138,138,113,1,,,,,,,,
,,,,,,,,,,,,,FF,,,,,,,,0.9692,,,,,,,,,,,,,,,,,,,,,,6103597aec377370bfbcbf7c,61036c16fa204abcfaf5a9e0,2021-07-29_23h04.47.162,Simcolourproject_2stim_asymm_v5,2020.2.10,MacIntel,60,61025ae37ef11b136ea224fe,,,,,,,,,2494,25.21484375,38.609375,1,0,0,response1disk,,7,17.93359375,9.0703125,1,0,0,rectangle,17.93359375,9.0703125,1,0,0,17.93359375,9.0703125,1,0,0,0,139,139,132,1,,,,,,,,
,,,,,,,,,,,,,FF,,,,,,,,0.3502,,,,,,,,,,,,,,,,,,,,,,6103597aec377370bfbcbf7c,61036c16fa204abcfaf5a9e0,2021-07-29_23h04.47.162,Simcolourproject_2stim_asymm_v5,2020.2.10,MacIntel,60,61025ae37ef11b136ea224fe,,,,,,,,,3992,26.2890625,36.7109375,1,0,0,response1disk,,7,19.48828125,1.12109375,1,0,0,rectangle,19.48828125,1.12109375,1,0,0,19.48828125,1.12109375,1,0,0,0,140,140,37,1,,,,,,,,
,,,,,,,,,,,,,FF,,,,,,,,0.8861,,,,,,,,,,,,,,,,,,,,,,6103597aec377370bfbcbf7c,61036c16fa204abcfaf5a9e0,2021-07-29_23h04.47.162,Simcolourproject_2stim_asymm_v5,2020.2.10,MacIntel,60,61025ae37ef11b136ea224fe,,,,,,,,,1580,23.7734375,39.53515625,1,0,0,response1disk,,7,18.35546875,1.9765625,1,0,0,rectangle,18.35546875,1.9765625,1,0,0,18.35546875,1.9765625,1,0,0,0,141,141,81,1,,,,,,,,
,,,,,,,,,,,,,FF,,,,,,,,7.3879,,,,,,,,,,,,,,,,,,,,,,6103597aec377370bfbcbf7c,61036c16fa204abcfaf5a9e0,2021-07-29_23h04.47.162,Simcolourproject_2stim_asymm_v5,2020.2.10,MacIntel,60,61025ae37ef11b136ea224fe,,,,,,,,,3344,46.59765625,74.69921875,1,0,0,response1disk,,7,11.375,0.46484375,1,0,0,rectangle,11.375,0.46484375,1,0,0,11.375,0.46484375,1,0,0,0,142,142,36,1,,,,,,,,
,,,,,,,,,,,,,FF,,,,,,,,0.413,,,,,,,,,,,,,,,,,,,,,,6103597aec377370bfbcbf7c,61036c16fa204abcfaf5a9e0,2021-07-29_23h04.47.162,Simcolourproject_2stim_asymm_v5,2020.2.10,MacIntel,60,61025ae37ef11b136ea224fe,,,,,,,,,1411,30.04296875,47.5234375,1,0,0,response1disk,,7,15.8984375,14.35546875,1,0,0,rectangle,15.8984375,14.35546875,1,0,0,15.8984375,14.35546875,1,0,0,0,143,143,52,1,,,,,,,,
,,,,,,,,,,,,,FF,,,,,,,,0.8351,,,,,,,,,,,,,,,,,,,,,,6103597aec377370bfbcbf7c,61036c16fa204abcfaf5a9e0,2021-07-29_23h04.47.162,Simcolourproject_2stim_asymm_v5,2020.2.10,MacIntel,60,61025ae37ef11b136ea224fe,,,,,,,,,1134,-72.4140625,-47.38671875,1,0,0,response5disk,,2,-11.6328125,1.14453125,1,0,0,rectangle,-11.6328125,1.14453125,1,0,0,-11.6328125,1.14453125,1,0,0,0,144,144,150,1,,,,,,,,
,,,,,,,,,,,,,FF,,,,,,,,1.003,,,,,,,,,,,,,,,,,,,,,,6103597aec377370bfbcbf7c,61036c16fa204abcfaf5a9e0,2021-07-29_23h04.47.162,Simcolourproject_2stim_asymm_v5,2020.2.10,MacIntel,60,61025ae37ef11b136ea224fe,,,,,,,,,1030,23.3828125,35.4765625,1,0,0,response1disk,,7,16.1640625,7.4375,1,0,0,rectangle,16.1640625,7.4375,1,0,0,16.1640625,7.4375,1,0,0,0,145,145,58,1,,,,,,,,
,,,,,,,,,,,,,FF,,,,,,,,1.0867,,,,,,,,,,,,,,,,,,,,,,6103597aec377370bfbcbf7c,61036c16fa204abcfaf5a9e0,2021-07-29_23h04.47.162,Simcolourproject_2stim_asymm_v5,2020.2.10,MacIntel,60,61025ae37ef11b136ea224fe,,,,,,,,,284,42.23046875,24.91015625,1,0,0,response1disk,,6,20.75,9.24609375,1,0,0,rectangle,20.75,9.24609375,1,0,0,20.75,9.24609375,1,0,0,0,146,146,146,1,,,,,,,,
,,,,,,,,,,,,,FF,,,,,,,,0.7176,,,,,,,,,,,,,,,,,,,,,,6103597aec377370bfbcbf7c,61036c16fa204abcfaf5a9e0,2021-07-29_23h04.47.162,Simcolourproject_2stim_asymm_v5,2020.2.10,MacIntel,60,61025ae37ef11b136ea224fe,,,,,,,,,1857,19.3359375,43.5,1,0,0,response1disk,,7,15.1328125,10.80859375,1,0,0,rectangle,15.1328125,10.80859375,1,0,0,15.1328125,10.80859375,1,0,0,0,147,147,101,1,,,,,,,,
,,,,,,,,,,,,,FF,,,,,,,,0.3111,,,,,,,,,,,,,,,,,,,,,,6103597aec377370bfbcbf7c,61036c16fa204abcfaf5a9e0,2021-07-29_23h04.47.162,Simcolourproject_2stim_asymm_v5,2020.2.10,MacIntel,60,61025ae37ef11b136ea224fe,,,,,,,,,3646,28.3359375,45.01953125,1,0,0,response1disk,,7,19.59765625,12.40234375,1,0,0,rectangle,19.59765625,12.40234375,1,0,0,19.59765625,12.40234375,1,0,0,0,148,148,95,1,,,,,,,,
,,,,,,,,,,,,,FF,,,,,,,,0.3682,,,,,,,,,,,,,,,,,,,,,,6103597aec377370bfbcbf7c,61036c16fa204abcfaf5a9e0,2021-07-29_23h04.47.162,Simcolourproject_2stim_asymm_v5,2020.2.10,MacIntel,60,61025ae37ef11b136ea224fe,,,,,,,,,714,32.01171875,49.3671875,1,0,0,response1disk,,7,6.81640625,10.9375,1,0,0,rectangle,6.81640625,10.9375,1,0,0,6.81640625,10.9375,1,0,0,0,149,149,135,1,,,,,,,,
,,,,,,,,,,,,,FF,,,,,,,,0.9022,,,,,,,,,,,,,,,,,,,,,,6103597aec377370bfbcbf7c,61036c16fa204abcfaf5a9e0,2021-07-29_23h04.47.162,Simcolourproject_2stim_asymm_v5,2020.2.10,MacIntel,60,61025ae37ef11b136ea224fe,,,,,,,,,826,49.20703125,29.9765625,1,0,0,response1disk,,6,22.7734375,9.125,1,0,0,rectangle,22.7734375,9.125,1,0,0,22.7734375,9.125,1,0,0,0,150,150,54,1,,,,,,,,
,,,,,,,,,,,,,FF,,,,,,,,0.3813,,,,,,,,,,,,,,,,,,,,,,6103597aec377370bfbcbf7c,61036c16fa204abcfaf5a9e0,2021-07-29_23h04.47.162,Simcolourproject_2stim_asymm_v5,2020.2.10,MacIntel,60,61025ae37ef11b136ea224fe,,,,,,,,,3825,24.0078125,41.1953125,1,0,0,response1disk,,7,18.01953125,4.8359375,1,0,0,rectangle,18.01953125,4.8359375,1,0,0,18.01953125,4.8359375,1,0,0,0,151,151,31,1,,,,,,,,
,,,,,,,,,,,,,FF,,,,,,,,1.1869,,,,,,,,,,,,,,,,,,,,,,6103597aec377370bfbcbf7c,61036c16fa204abcfaf5a9e0,2021-07-29_23h04.47.162,Simcolourproject_2stim_asymm_v5,2020.2.10,MacIntel,60,61025ae37ef11b136ea224fe,,,,,,,,,1816,-71.2578125,-30.91015625,1,0,0,response5disk,,2,-19.15625,1.37890625,1,0,0,rectangle,-19.15625,1.37890625,1,0,0,-19.15625,1.37890625,1,0,0,0,152,152,17,1,,,,,,,,
,,,,,,,,,,,,,FF,,,,,,,,1.6715,,,,,,,,,,,,,,,,,,,,,,6103597aec377370bfbcbf7c,61036c16fa204abcfaf5a9e0,2021-07-29_23h04.47.162,Simcolourproject_2stim_asymm_v5,2020.2.10,MacIntel,60,61025ae37ef11b136ea224fe,,,,,,,,,3480,-25.5390625,-42.12890625,1,0,0,response5disk,,3,-13.015625,-5.328125,1,0,0,rectangle,-13.015625,-5.328125,1,0,0,-13.015625,-5.328125,1,0,0,0,153,153,27,1,,,,,,,,
,,,,,,,,,,,,,FF,,,,,,,,1.5385,,,,,,,,,,,,,,,,,,,,,,6103597aec377370bfbcbf7c,61036c16fa204abcfaf5a9e0,2021-07-29_23h04.47.162,Simcolourproject_2stim_asymm_v5,2020.2.10,MacIntel,60,61025ae37ef11b136ea224fe,,,,,,,,,2602,-31.49609375,-35.08203125,1,0,0,response5disk,,3,-11.01171875,-0.4765625,1,0,0,rectangle,-11.01171875,-0.4765625,1,0,0,-11.01171875,-0.4765625,1,0,0,0,154,154,5,1,,,,,,,,
,,,,,,,,,,,,,FF,,,,,,,,1.2027,,,,,,,,,,,,,,,,,,,,,,6103597aec377370bfbcbf7c,61036c16fa204abcfaf5a9e0,2021-07-29_23h04.47.162,Simcolourproject_2stim_asymm_v5,2020.2.10,MacIntel,60,61025ae37ef11b136ea224fe,,,,,,,,,1959,-60.36328125,47.94140625,1,0,0,response7disk,,1,-13.25390625,3.7265625,1,0,0,rectangle,-13.25390625,3.7265625,1,0,0,-13.25390625,3.7265625,1,0,0,0,155,155,142,1,,,,,,,,
,,,,,,,,,,,,,FF,,,,,,,,0.8205,,,,,,,,,,,,,,,,,,,,,,6103597aec377370bfbcbf7c,61036c16fa204abcfaf5a9e0,2021-07-29_23h04.47.162,Simcolourproject_2stim_asymm_v5,2020.2.10,MacIntel,60,61025ae37ef11b136ea224fe,,,,,,,,,1678,-62.73046875,24.12109375,1,0,0,response7disk,,1,-16.1953125,3.8671875,1,0,0,rectangle,-16.1953125,3.8671875,1,0,0,-16.1953125,3.8671875,1,0,0,0,156,156,4,1,,,,,,,,
,,,,,,,,,,,,,FF,,,,,,,,1.0028,,,,,,,,,,,,,,,,,,,,,,6103597aec377370bfbcbf7c,61036c16fa204abcfaf5a9e0,2021-07-29_23h04.47.162,Simcolourproject_2stim_asymm_v5,2020.2.10,MacIntel,60,61025ae37ef11b136ea224fe,,,,,,,,,3701,62.296875,20.98828125,1,0,0,response1disk,,6,21.83203125,-4.4375,1,0,0,rectangle,21.83203125,-4.4375,1,0,0,21.83203125,-4.4375,1,0,0,0,157,157,62,1,,,,,,,,
,,,,,,,,,,,,,FF,,,,,,,,0.4023,,,,,,,,,,,,,,,,,,,,,,6103597aec377370bfbcbf7c,61036c16fa204abcfaf5a9e0,2021-07-29_23h04.47.162,Simcolourproject_2stim_asymm_v5,2020.2.10,MacIntel,60,61025ae37ef11b136ea224fe,,,,,,,,,673,21.5703125,42.81640625,1,0,0,response1disk,,7,11.625,5.58203125,1,0,0,rectangle,11.625,5.58203125,1,0,0,11.625,5.58203125,1,0,0,0,158,158,159,1,,,,,,,,
,,,,,,,,,,,,,FF,,,,,,,,0.6855,,,,,,,,,,,,,,,,,,,,,,6103597aec377370bfbcbf7c,61036c16fa204abcfaf5a9e0,2021-07-29_23h04.47.162,Simcolourproject_2stim_asymm_v5,2020.2.10,MacIntel,60,61025ae37ef11b136ea224fe,,,,,,,,,1451,-55.046875,-34.57421875,1,0,0,response5disk,,2,-20.55078125,-13.06640625,1,0,0,rectangle,-20.55078125,-13.06640625,1,0,0,-20.55078125,-13.06640625,1,0,0,0,159,159,12,1,,,,,,,,
,,,,,,,,,,,,,FF,,,,,,,,0.468,,,,,,,,,,,,,,,,,,,,,,6103597aec377370bfbcbf7c,61036c16fa204abcfaf5a9e0,2021-07-29_23h04.47.162,Simcolourproject_2stim_asymm_v5,2020.2.10,MacIntel,60,61025ae37ef11b136ea224fe,,,,,,,,,1137,-50.140625,-27.609375,1,0,0,response5disk,,2,-28.44921875,-6.98046875,1,0,0,rectangle,-28.44921875,-6.98046875,1,0,0,-28.44921875,-6.98046875,1,0,0,1,0,160,132,1,,,,,,,,
,,,,,,,,,,,,,FF,,,,,,,,0.6681,,,,,,,,,,,,,,,,,,,,,,6103597aec377370bfbcbf7c,61036c16fa204abcfaf5a9e0,2021-07-29_23h04.47.162,Simcolourproject_2stim_asymm_v5,2020.2.10,MacIntel,60,61025ae37ef11b136ea224fe,,,,,,,,,1930,22.3125,39.82421875,1,0,0,response1disk,,7,10.3828125,7.6640625,1,0,0,rectangle,10.3828125,7.6640625,1,0,0,10.3828125,7.6640625,1,0,0,1,1,161,88,1,,,,,,,,
,,,,,,,,,,,,,FF,,,,,,,,1.3033,,,,,,,,,,,,,,,,,,,,,,6103597aec377370bfbcbf7c,61036c16fa204abcfaf5a9e0,2021-07-29_23h04.47.162,Simcolourproject_2stim_asymm_v5,2020.2.10,MacIntel,60,61025ae37ef11b136ea224fe,,,,,,,,,9,48.1953125,-28.4921875,1,0,0,response3disk,,5,21.8125,2.02734375,1,0,0,rectangle,21.8125,2.02734375,1,0,0,21.8125,2.02734375,1,0,0,1,2,162,76,1,,,,,,,,
,,,,,,,,,,,,,FF,,,,,,,,0.7859,,,,,,,,,,,,,,,,,,,,,,6103597aec377370bfbcbf7c,61036c16fa204abcfaf5a9e0,2021-07-29_23h04.47.162,Simcolourproject_2stim_asymm_v5,2020.2.10,MacIntel,60,61025ae37ef11b136ea224fe,,,,,,,,,3290,-37.09765625,52.36328125,1,0,0,response7disk,,0,-9.4609375,10.16015625,1,0,0,rectangle,-9.4609375,10.16015625,1,0,0,-9.4609375,10.16015625,1,0,0,1,3,163,87,1,,,,,,,,
,,,,,,,,,,,,,FF,,,,,,,,0.7019,,,,,,,,,,,,,,,,,,,,,,6103597aec377370bfbcbf7c,61036c16fa204abcfaf5a9e0,2021-07-29_23h04.47.162,Simcolourproject_2stim_asymm_v5,2020.2.10,MacIntel,60,61025ae37ef11b136ea224fe,,,,,,,,,1316,25.59375,38.16796875,1,0,0,response1disk,,7,18.734375,9.93359375,1,0,0,rectangle,18.734375,9.93359375,1,0,0,18.734375,9.93359375,1,0,0,1,4,164,3,1,,,,,,,,
,,,,,,,,,,,,,FF,,,,,,,,0.6167,,,,,,,,,,,,,,,,,,,,,,6103597aec377370bfbcbf7c,61036c16fa204abcfaf5a9e0,2021-07-29_23h04.47.162,Simcolourproject_2stim_asymm_v5,2020.2.10,MacIntel,60,61025ae37ef11b136ea224fe,,,,,,,,,2187,28.546875,36.69921875,1,0,0,response1disk,,7,17.34765625,14.4375,1,0,0,rectangle,17.34765625,14.4375,1,0,0,17.34765625,14.4375,1,0,0,1,5,165,77,1,,,,,,,,
,,,,,,,,,,,,,FF,,,,,,,,0.5166,,,,,,,,,,,,,,,,,,,,,,6103597aec377370bfbcbf7c,61036c16fa204abcfaf5a9e0,2021-07-29_23h04.47.162,Simcolourproject_2stim_asymm_v5,2020.2.10,MacIntel,60,61025ae37ef11b136ea224fe,,,,,,,,,3544,28.3046875,38.56640625,1,0,0,response1disk,,7,16.90234375,11.5546875,1,0,0,rectangle,16.90234375,11.5546875,1,0,0,16.90234375,11.5546875,1,0,0,1,6,166,90,1,,,,,,,,
,,,,,,,,,,,,,FF,,,,,,,,0.652,,,,,,,,,,,,,,,,,,,,,,6103597aec377370bfbcbf7c,61036c16fa204abcfaf5a9e0,2021-07-29_23h04.47.162,Simcolourproject_2stim_asymm_v5,2020.2.10,MacIntel,60,61025ae37ef11b136ea224fe,,,,,,,,,3714,48.5859375,34.91796875,1,0,0,response1disk,,6,15.890625,5.85546875,1,0,0,rectangle,15.890625,5.85546875,1,0,0,15.890625,5.85546875,1,0,0,1,7,167,8,1,,,,,,,,
,,,,,,,,,,,,,FF,,,,,,,,0.8354,,,,,,,,,,,,,,,,,,,,,,6103597aec377370bfbcbf7c,61036c16fa204abcfaf5a9e0,2021-07-29_23h04.47.162,Simcolourproject_2stim_asymm_v5,2020.2.10,MacIntel,60,61025ae37ef11b136ea224fe,,,,,,,,,4266,-26.546875,57.57421875,1,0,0,response7disk,,0,-13.9140625,-3.3125,1,0,0,rectangle,-13.9140625,-3.3125,1,0,0,-13.9140625,-3.3125,1,0,0,1,8,168,129,1,,,,,,,,
,,,,,,,,,,,,,FF,,,,,,,,1.1022,,,,,,,,,,,,,,,,,,,,,,6103597aec377370bfbcbf7c,61036c16fa204abcfaf5a9e0,2021-07-29_23h04.47.162,Simcolourproject_2stim_asymm_v5,2020.2.10,MacIntel,60,61025ae37ef11b136ea224fe,,,,,,,,,2994,-65.82421875,-37.8984375,1,0,0,response5disk,,2,-14.96484375,0.23828125,1,0,0,rectangle,-14.96484375,0.23828125,1,0,0,-14.96484375,0.23828125,1,0,0,1,9,169,5,1,,,,,,,,
,,,,,,,,,,,,,FF,,,,,,,,0.5021,,,,,,,,,,,,,,,,,,,,,,6103597aec377370bfbcbf7c,61036c16fa204abcfaf5a9e0,2021-07-29_23h04.47.162,Simcolourproject_2stim_asymm_v5,2020.2.10,MacIntel,60,61025ae37ef11b136ea224fe,,,,,,,,,2520,32.06640625,38.26171875,1,0,0,response1disk,,7,12.71875,-2.59375,1,0,0,rectangle,12.71875,-2.59375,1,0,0,12.71875,-2.59375,1,0,0,1,10,170,47,1,,,,,,,,
,,,,,,,,,,,,,FF,,,,,,,,1.1039,,,,,,,,,,,,,,,,,,,,,,6103597aec377370bfbcbf7c,61036c16fa204abcfaf5a9e0,2021-07-29_23h04.47.162,Simcolourproject_2stim_asymm_v5,2020.2.10,MacIntel,60,61025ae37ef11b136ea224fe,,,,,,,,,3141,-43.234375,-52.6328125,1,0,0,response5disk,,3,-14.68359375,-4.0546875,1,0,0,rectangle,-14.68359375,-4.0546875,1,0,0,-14.68359375,-4.0546875,1,0,0,1,11,171,65,1,,,,,,,,
,,,,,,,,,,,,,FF,,,,,,,,1.2869,,,,,,,,,,,,,,,,,,,,,,6103597aec377370bfbcbf7c,61036c16fa204abcfaf5a9e0,2021-07-29_23h04.47.162,Simcolourproject_2stim_asymm_v5,2020.2.10,MacIntel,60,61025ae37ef11b136ea224fe,,,,,,,,,4187,-44.328125,-49.5703125,1,0,0,response5disk,,3,-27.54296875,-7.41796875,1,0,0,rectangle,-27.54296875,-7.41796875,1,0,0,-27.54296875,-7.41796875,1,0,0,1,12,172,115,1,,,,,,,,
,,,,,,,,,,,,,FF,,,,,,,,1.2036,,,,,,,,,,,,,,,,,,,,,,6103597aec377370bfbcbf7c,61036c16fa204abcfaf5a9e0,2021-07-29_23h04.47.162,Simcolourproject_2stim_asymm_v5,2020.2.10,MacIntel,60,61025ae37ef11b136ea224fe,,,,,,,,,3187,-31.40234375,-60.015625,1,0,0,response5disk,,3,-9.66015625,-7.0546875,1,0,0,rectangle,-9.66015625,-7.0546875,1,0,0,-9.66015625,-7.0546875,1,0,0,1,13,173,143,1,,,,,,,,
,,,,,,,,,,,,,FF,,,,,,,,1.0024,,,,,,,,,,,,,,,,,,,,,,6103597aec377370bfbcbf7c,61036c16fa204abcfaf5a9e0,2021-07-29_23h04.47.162,Simcolourproject_2stim_asymm_v5,2020.2.10,MacIntel,60,61025ae37ef11b136ea224fe,,,,,,,,,415,19.26953125,33.22265625,1,0,0,response1disk,,7,15.7734375,13.8828125,1,0,0,rectangle,15.7734375,13.8828125,1,0,0,15.7734375,13.8828125,1,0,0,1,14,174,60,1,,,,,,,,
,,,,,,,,,,,,,FF,,,,,,,,0.6028,,,,,,,,,,,,,,,,,,,,,,6103597aec377370bfbcbf7c,61036c16fa204abcfaf5a9e0,2021-07-29_23h04.47.162,Simcolourproject_2stim_asymm_v5,2020.2.10,MacIntel,60,61025ae37ef11b136ea224fe,,,,,,,,,1340,36.70703125,58.70703125,1,0,0,response1disk,,7,13.65625,5.6484375,1,0,0,rectangle,13.65625,5.6484375,1,0,0,13.65625,5.6484375,1,0,0,1,15,175,153,1,,,,,,,,
,,,,,,,,,,,,,FF,,,,,,,,1.0195,,,,,,,,,,,,,,,,,,,,,,6103597aec377370bfbcbf7c,61036c16fa204abcfaf5a9e0,2021-07-29_23h04.47.162,Simcolourproject_2stim_asymm_v5,2020.2.10,MacIntel,60,61025ae37ef11b136ea224fe,,,,,,,,,3435,-70.58203125,-44.046875,1,0,0,response5disk,,2,-8.015625,-3.89453125,1,0,0,rectangle,-8.015625,-3.89453125,1,0,0,-8.015625,-3.89453125,1,0,0,1,16,176,6,1,,,,,,,,
,,,,,,,,,,,,,FF,,,,,,,,0.985,,,,,,,,,,,,,,,,,,,,,,6103597aec377370bfbcbf7c,61036c16fa204abcfaf5a9e0,2021-07-29_23h04.47.162,Simcolourproject_2stim_asymm_v5,2020.2.10,MacIntel,60,61025ae37ef11b136ea224fe,,,,,,,,,130,22.58203125,37.8203125,1,0,0,response1disk,,7,8.61328125,-1.09765625,1,0,0,rectangle,-29.046875,-55.89453125,1,0,0,-17.640625,0.3984375,1,0,0,1,17,177,46,1,,response5disk_3,TRUE,3,3,"[90,99,18,262,98,137,294,178,129,70,225,216,273,6,226,134,105,99,194,295]",2.2047,rectangle
,,,,,,,,,,,,,FF,,,,,,,,0.7523,,,,,,,,,,,,,,,,,,,,,,6103597aec377370bfbcbf7c,61036c16fa204abcfaf5a9e0,2021-07-29_23h04.47.162,Simcolourproject_2stim_asymm_v5,2020.2.10,MacIntel,60,61025ae37ef11b136ea224fe,,,,,,,,,2967,17.09375,40.9609375,1,0,0,response1disk,,7,13.41796875,11.078125,1,0,0,rectangle,13.41796875,11.078125,1,0,0,13.41796875,11.078125,1,0,0,1,18,178,130,1,,,,,,,,
,,,,,,,,,,,,,FF,,,,,,,,0.3497,,,,,,,,,,,,,,,,,,,,,,6103597aec377370bfbcbf7c,61036c16fa204abcfaf5a9e0,2021-07-29_23h04.47.162,Simcolourproject_2stim_asymm_v5,2020.2.10,MacIntel,60,61025ae37ef11b136ea224fe,,,,,,,,,590,30.4765625,47.171875,1,0,0,response1disk,,7,11.7421875,8.55859375,1,0,0,rectangle,11.7421875,8.55859375,1,0,0,11.7421875,8.55859375,1,0,0,1,19,179,106,1,,,,,,,,
,,,,,,,,,,,,,FF,,,,,,,,1.2869,,,,,,,,,,,,,,,,,,,,,,6103597aec377370bfbcbf7c,61036c16fa204abcfaf5a9e0,2021-07-29_23h04.47.162,Simcolourproject_2stim_asymm_v5,2020.2.10,MacIntel,60,61025ae37ef11b136ea224fe,,,,,,,,,553,-23.9296875,-46.2890625,1,0,0,response5disk,,3,-8.21875,3.8515625,1,0,0,rectangle,-8.21875,3.8515625,1,0,0,-8.21875,3.8515625,1,0,0,1,20,180,92,1,,,,,,,,
,,,,,,,,,,,,,FF,,,,,,,,1.4873,,,,,,,,,,,,,,,,,,,,,,6103597aec377370bfbcbf7c,61036c16fa204abcfaf5a9e0,2021-07-29_23h04.47.162,Simcolourproject_2stim_asymm_v5,2020.2.10,MacIntel,60,61025ae37ef11b136ea224fe,,,,,,,,,3107,-28.05078125,-60.9453125,1,0,0,response5disk,,3,-21,-8.58984375,1,0,0,rectangle,-21,-8.58984375,1,0,0,-21,-8.58984375,1,0,0,1,21,181,42,1,,,,,,,,
,,,,,,,,,,,,,FF,,,,,,,,0.5682,,,,,,,,,,,,,,,,,,,,,,6103597aec377370bfbcbf7c,61036c16fa204abcfaf5a9e0,2021-07-29_23h04.47.162,Simcolourproject_2stim_asymm_v5,2020.2.10,MacIntel,60,61025ae37ef11b136ea224fe,,,,,,,,,3989,29.671875,50.828125,1,0,0,response1disk,,7,10.3203125,-0.03515625,1,0,0,rectangle,10.3203125,-0.03515625,1,0,0,10.3203125,-0.03515625,1,0,0,1,22,182,11,1,,,,,,,,
,,,,,,,,,,,,,FF,,,,,,,,0.8354,,,,,,,,,,,,,,,,,,,,,,6103597aec377370bfbcbf7c,61036c16fa204abcfaf5a9e0,2021-07-29_23h04.47.162,Simcolourproject_2stim_asymm_v5,2020.2.10,MacIntel,60,61025ae37ef11b136ea224fe,,,,,,,,,1121,24.90234375,-60.59765625,1,0,0,response3disk,,4,15.12890625,-5.35546875,1,0,0,rectangle,15.12890625,-5.35546875,1,0,0,15.12890625,-5.35546875,1,0,0,1,23,183,119,1,,,,,,,,
,,,,,,,,,,,,,FF,,,,,,,,0.5693,,,,,,,,,,,,,,,,,,,,,,6103597aec377370bfbcbf7c,61036c16fa204abcfaf5a9e0,2021-07-29_23h04.47.162,Simcolourproject_2stim_asymm_v5,2020.2.10,MacIntel,60,61025ae37ef11b136ea224fe,,,,,,,,,3737,33.15625,41.9765625,1,0,0,response1disk,,7,13.0390625,5.09765625,1,0,0,rectangle,13.0390625,5.09765625,1,0,0,13.0390625,5.09765625,1,0,0,1,24,184,112,1,,,,,,,,
,,,,,,,,,,,,,FF,,,,,,,,0.7507,,,,,,,,,,,,,,,,,,,,,,6103597aec377370bfbcbf7c,61036c16fa204abcfaf5a9e0,2021-07-29_23h04.47.162,Simcolourproject_2stim_asymm_v5,2020.2.10,MacIntel,60,61025ae37ef11b136ea224fe,,,,,,,,,3657,18.39453125,34.171875,1,0,0,response1disk,,7,18.39453125,11.4765625,1,0,0,rectangle,18.39453125,11.4765625,1,0,0,18.39453125,11.4765625,1,0,0,1,25,185,27,1,,,,,,,,
,,,,,,,,,,,,,FF,,,,,,,,0.433,,,,,,,,,,,,,,,,,,,,,,6103597aec377370bfbcbf7c,61036c16fa204abcfaf5a9e0,2021-07-29_23h04.47.162,Simcolourproject_2stim_asymm_v5,2020.2.10,MacIntel,60,61025ae37ef11b136ea224fe,,,,,,,,,1797,36.1015625,46.16796875,1,0,0,response1disk,,7,17.05859375,2.50390625,1,0,0,rectangle,17.05859375,2.50390625,1,0,0,17.05859375,2.50390625,1,0,0,1,26,186,23,1,,,,,,,,
,,,,,,,,,,,,,FF,,,,,,,,0.3503,,,,,,,,,,,,,,,,,,,,,,6103597aec377370bfbcbf7c,61036c16fa204abcfaf5a9e0,2021-07-29_23h04.47.162,Simcolourproject_2stim_asymm_v5,2020.2.10,MacIntel,60,61025ae37ef11b136ea224fe,,,,,,,,,3452,38.78125,51.5234375,1,0,0,response1disk,,7,8.3984375,5.0859375,1,0,0,rectangle,8.3984375,5.0859375,1,0,0,8.3984375,5.0859375,1,0,0,1,27,187,74,1,,,,,,,,
,,,,,,,,,,,,,FF,,,,,,,,0.3339,,,,,,,,,,,,,,,,,,,,,,6103597aec377370bfbcbf7c,61036c16fa204abcfaf5a9e0,2021-07-29_23h04.47.162,Simcolourproject_2stim_asymm_v5,2020.2.10,MacIntel,60,61025ae37ef11b136ea224fe,,,,,,,,,1874,53.7421875,81.16015625,1,0,0,response1disk,,7,3.9140625,-0.17578125,1,0,0,rectangle,3.9140625,-0.17578125,1,0,0,3.9140625,-0.17578125,1,0,0,1,28,188,19,1,,,,,,,,
,,,,,,,,,,,,,FF,,,,,,,,0.3351,,,,,,,,,,,,,,,,,,,,,,6103597aec377370bfbcbf7c,61036c16fa204abcfaf5a9e0,2021-07-29_23h04.47.162,Simcolourproject_2stim_asymm_v5,2020.2.10,MacIntel,60,61025ae37ef11b136ea224fe,,,,,,,,,3829,32.2109375,39.4765625,1,0,0,response1disk,,7,-1.73046875,1.02734375,1,0,0,rectangle,-1.73046875,1.02734375,1,0,0,-1.73046875,1.02734375,1,0,0,1,29,189,66,1,,,,,,,,
,,,,,,,,,,,,,FF,,,,,,,,0.3335,,,,,,,,,,,,,,,,,,,,,,6103597aec377370bfbcbf7c,61036c16fa204abcfaf5a9e0,2021-07-29_23h04.47.162,Simcolourproject_2stim_asymm_v5,2020.2.10,MacIntel,60,61025ae37ef11b136ea224fe,,,,,,,,,1782,40.109375,54.0546875,1,0,0,response1disk,,7,10.6328125,9.01953125,1,0,0,rectangle,10.6328125,9.01953125,1,0,0,10.6328125,9.01953125,1,0,0,1,30,190,144,1,,,,,,,,
,,,,,,,,,,,,,FF,,,,,,,,0.3674,,,,,,,,,,,,,,,,,,,,,,6103597aec377370bfbcbf7c,61036c16fa204abcfaf5a9e0,2021-07-29_23h04.47.162,Simcolourproject_2stim_asymm_v5,2020.2.10,MacIntel,60,61025ae37ef11b136ea224fe,,,,,,,,,1004,39.3828125,52.32421875,1,0,0,response1disk,,7,10.875,4.21875,1,0,0,rectangle,10.875,4.21875,1,0,0,10.875,4.21875,1,0,0,1,31,191,57,1,,,,,,,,
,,,,,,,,,,,,,FF,,,,,,,,0.3506,,,,,,,,,,,,,,,,,,,,,,6103597aec377370bfbcbf7c,61036c16fa204abcfaf5a9e0,2021-07-29_23h04.47.162,Simcolourproject_2stim_asymm_v5,2020.2.10,MacIntel,60,61025ae37ef11b136ea224fe,,,,,,,,,417,45.1875,65.73828125,1,0,0,response1disk,,7,7.921875,7.265625,1,0,0,rectangle,7.921875,7.265625,1,0,0,7.921875,7.265625,1,0,0,1,32,192,43,1,,,,,,,,
,,,,,,,,,,,,,FF,,,,,,,,0.8176,,,,,,,,,,,,,,,,,,,,,,6103597aec377370bfbcbf7c,61036c16fa204abcfaf5a9e0,2021-07-29_23h04.47.162,Simcolourproject_2stim_asymm_v5,2020.2.10,MacIntel,60,61025ae37ef11b136ea224fe,,,,,,,,,2675,26.64453125,-53.5703125,1,0,0,response3disk,,4,18.6484375,2.64453125,1,0,0,rectangle,-66.328125,38.37109375,1,0,0,-9.7578125,3.3984375,1,0,0,1,33,193,117,1,,response7disk_3,TRUE,1,1,"[90,99,18,262,98,137,294,178,129,70,225,216,273,6,226,134,105,99,194,295]",1.5206,rectangle
,,,,,,,,,,,,,FF,,,,,,,,1.1211,,,,,,,,,,,,,,,,,,,,,,6103597aec377370bfbcbf7c,61036c16fa204abcfaf5a9e0,2021-07-29_23h04.47.162,Simcolourproject_2stim_asymm_v5,2020.2.10,MacIntel,60,61025ae37ef11b136ea224fe,,,,,,,,,4005,16.234375,-59.94140625,1,0,0,response3disk,,4,-7.51171875,4.421875,1,0,0,rectangle,-7.51171875,4.421875,1,0,0,-7.51171875,4.421875,1,0,0,1,34,194,96,1,,,,,,,,
,,,,,,,,,,,,,FF,,,,,,,,0.9189,,,,,,,,,,,,,,,,,,,,,,6103597aec377370bfbcbf7c,61036c16fa204abcfaf5a9e0,2021-07-29_23h04.47.162,Simcolourproject_2stim_asymm_v5,2020.2.10,MacIntel,60,61025ae37ef11b136ea224fe,,,,,,,,,2315,26.546875,64.9453125,1,0,0,response1disk,,7,9.7578125,-4.8203125,1,0,0,rectangle,9.7578125,-4.8203125,1,0,0,9.7578125,-4.8203125,1,0,0,1,35,195,147,1,,,,,,,,
,,,,,,,,,,,,,FF,,,,,,,,0.5164,,,,,,,,,,,,,,,,,,,,,,6103597aec377370bfbcbf7c,61036c16fa204abcfaf5a9e0,2021-07-29_23h04.47.162,Simcolourproject_2stim_asymm_v5,2020.2.10,MacIntel,60,61025ae37ef11b136ea224fe,,,,,,,,,843,24.0703125,32.67578125,1,0,0,response1disk,,7,2.50390625,-2.96484375,1,0,0,rectangle,2.50390625,-2.96484375,1,0,0,2.50390625,-2.96484375,1,0,0,1,36,196,111,1,,,,,,,,
,,,,,,,,,,,,,FF,,,,,,,,0.4177,,,,,,,,,,,,,,,,,,,,,,6103597aec377370bfbcbf7c,61036c16fa204abcfaf5a9e0,2021-07-29_23h04.47.162,Simcolourproject_2stim_asymm_v5,2020.2.10,MacIntel,60,61025ae37ef11b136ea224fe,,,,,,,,,2969,21.875,38.9765625,1,0,0,response1disk,,7,11.1875,-14.984375,1,0,0,rectangle,11.1875,-14.984375,1,0,0,11.1875,-14.984375,1,0,0,1,37,197,156,1,,,,,,,,
,,,,,,,,,,,,,FF,,,,,,,,1.2687,,,,,,,,,,,,,,,,,,,,,,6103597aec377370bfbcbf7c,61036c16fa204abcfaf5a9e0,2021-07-29_23h04.47.162,Simcolourproject_2stim_asymm_v5,2020.2.10,MacIntel,60,61025ae37ef11b136ea224fe,,,,,,,,,3395,-34.3515625,-65.0625,1,0,0,response5disk,,3,-9.10546875,13.81640625,1,0,0,rectangle,-9.10546875,13.81640625,1,0,0,-9.10546875,13.81640625,1,0,0,1,38,198,10,1,,,,,,,,
,,,,,,,,,,,,,FF,,,,,,,,1.3704,,,,,,,,,,,,,,,,,,,,,,6103597aec377370bfbcbf7c,61036c16fa204abcfaf5a9e0,2021-07-29_23h04.47.162,Simcolourproject_2stim_asymm_v5,2020.2.10,MacIntel,60,61025ae37ef11b136ea224fe,,,,,,,,,4226,43.49609375,27.7734375,1,0,0,response1disk,,6,13.0625,-6.18359375,1,0,0,rectangle,13.0625,-6.18359375,1,0,0,13.0625,-6.18359375,1,0,0,1,39,199,24,1,,,,,,,,
,,,,,,,,,,,,,FF,,,,,,,,0.3859,,,,,,,,,,,,,,,,,,,,,,6103597aec377370bfbcbf7c,61036c16fa204abcfaf5a9e0,2021-07-29_23h04.47.162,Simcolourproject_2stim_asymm_v5,2020.2.10,MacIntel,60,61025ae37ef11b136ea224fe,,,,,,,,,145,20.50390625,42.8359375,1,0,0,response1disk,,7,17.76953125,8.99609375,1,0,0,rectangle,17.76953125,8.99609375,1,0,0,17.76953125,8.99609375,1,0,0,1,40,200,55,1,,,,,,,,
,,,,,,,,,,,,,FF,,,,,,,,0.3147,,,,,,,,,,,,,,,,,,,,,,6103597aec377370bfbcbf7c,61036c16fa204abcfaf5a9e0,2021-07-29_23h04.47.162,Simcolourproject_2stim_asymm_v5,2020.2.10,MacIntel,60,61025ae37ef11b136ea224fe,,,,,,,,,128,34.828125,46.09375,1,0,0,response1disk,,7,8.8125,9.578125,1,0,0,rectangle,8.8125,9.578125,1,0,0,8.8125,9.578125,1,0,0,1,41,201,72,1,,,,,,,,
,,,,,,,,,,,,,FF,,,,,,,,1.0368,,,,,,,,,,,,,,,,,,,,,,6103597aec377370bfbcbf7c,61036c16fa204abcfaf5a9e0,2021-07-29_23h04.47.162,Simcolourproject_2stim_asymm_v5,2020.2.10,MacIntel,60,61025ae37ef11b136ea224fe,,,,,,,,,1752,31.10546875,-46.87890625,1,0,0,response3disk,,4,12.21484375,2.17578125,1,0,0,rectangle,12.21484375,2.17578125,1,0,0,12.21484375,2.17578125,1,0,0,1,42,202,62,1,,,,,,,,
,,,,,,,,,,,,,FF,,,,,,,,0.9681,,,,,,,,,,,,,,,,,,,,,,6103597aec377370bfbcbf7c,61036c16fa204abcfaf5a9e0,2021-07-29_23h04.47.162,Simcolourproject_2stim_asymm_v5,2020.2.10,MacIntel,60,61025ae37ef11b136ea224fe,,,,,,,,,1698,48.390625,27.65234375,1,0,0,response1disk,,6,10.890625,5.4375,1,0,0,rectangle,10.890625,5.4375,1,0,0,10.890625,5.4375,1,0,0,1,43,203,95,1,,,,,,,,
,,,,,,,,,,,,,FF,,,,,,,,0.6363,,,,,,,,,,,,,,,,,,,,,,6103597aec377370bfbcbf7c,61036c16fa204abcfaf5a9e0,2021-07-29_23h04.47.162,Simcolourproject_2stim_asymm_v5,2020.2.10,MacIntel,60,61025ae37ef11b136ea224fe,,,,,,,,,1989,26.21875,38.87890625,1,0,0,response1disk,,7,5.734375,-0.7734375,1,0,0,rectangle,5.734375,-0.7734375,1,0,0,5.734375,-0.7734375,1,0,0,1,44,204,61,1,,,,,,,,
,,,,,,,,,,,,,FF,,,,,,,,0.6018,,,,,,,,,,,,,,,,,,,,,,6103597aec377370bfbcbf7c,61036c16fa204abcfaf5a9e0,2021-07-29_23h04.47.162,Simcolourproject_2stim_asymm_v5,2020.2.10,MacIntel,60,61025ae37ef11b136ea224fe,,,,,,,,,3017,23.75390625,38.66796875,1,0,0,response1disk,,7,3.90234375,1.328125,1,0,0,rectangle,3.90234375,1.328125,1,0,0,3.90234375,1.328125,1,0,0,1,45,205,135,1,,,,,,,,
,,,,,,,,,,,,,FF,,,,,,,,0.3673,,,,,,,,,,,,,,,,,,,,,,6103597aec377370bfbcbf7c,61036c16fa204abcfaf5a9e0,2021-07-29_23h04.47.162,Simcolourproject_2stim_asymm_v5,2020.2.10,MacIntel,60,61025ae37ef11b136ea224fe,,,,,,,,,2279,24.3046875,46.50390625,1,0,0,response1disk,,7,11.328125,0.77734375,1,0,0,rectangle,11.328125,0.77734375,1,0,0,11.328125,0.77734375,1,0,0,1,46,206,0,1,,,,,,,,
,,,,,,,,,,,,,FF,,,,,,,,0.4011,,,,,,,,,,,,,,,,,,,,,,6103597aec377370bfbcbf7c,61036c16fa204abcfaf5a9e0,2021-07-29_23h04.47.162,Simcolourproject_2stim_asymm_v5,2020.2.10,MacIntel,60,61025ae37ef11b136ea224fe,,,,,,,,,1026,27.359375,38.84765625,1,0,0,response1disk,,7,9.125,-1.55078125,1,0,0,rectangle,9.125,-1.55078125,1,0,0,9.125,-1.55078125,1,0,0,1,47,207,49,1,,,,,,,,
,,,,,,,,,,,,,FF,,,,,,,,0.8538,,,,,,,,,,,,,,,,,,,,,,6103597aec377370bfbcbf7c,61036c16fa204abcfaf5a9e0,2021-07-29_23h04.47.162,Simcolourproject_2stim_asymm_v5,2020.2.10,MacIntel,60,61025ae37ef11b136ea224fe,,,,,,,,,1279,21.61328125,41.8671875,1,0,0,response1disk,,7,16.65234375,3.21875,1,0,0,rectangle,16.65234375,3.21875,1,0,0,16.65234375,3.21875,1,0,0,1,48,208,15,1,,,,,,,,
,,,,,,,,,,,,,FF,,,,,,,,0.2998,,,,,,,,,,,,,,,,,,,,,,6103597aec377370bfbcbf7c,61036c16fa204abcfaf5a9e0,2021-07-29_23h04.47.162,Simcolourproject_2stim_asymm_v5,2020.2.10,MacIntel,60,61025ae37ef11b136ea224fe,,,,,,,,,3640,30.8046875,39.01171875,1,0,0,response1disk,,7,15.828125,6.84375,1,0,0,rectangle,15.828125,6.84375,1,0,0,15.828125,6.84375,1,0,0,1,49,209,122,1,,,,,,,,
,,,,,,,,,,,,,FF,,,,,,,,0.4163,,,,,,,,,,,,,,,,,,,,,,6103597aec377370bfbcbf7c,61036c16fa204abcfaf5a9e0,2021-07-29_23h04.47.162,Simcolourproject_2stim_asymm_v5,2020.2.10,MacIntel,60,61025ae37ef11b136ea224fe,,,,,,,,,483,26.9296875,32.75390625,1,0,0,response1disk,,7,8.94921875,-1.3203125,1,0,0,rectangle,8.94921875,-1.3203125,1,0,0,8.94921875,-1.3203125,1,0,0,1,50,210,78,1,,,,,,,,
,,,,,,,,,,,,,FF,,,,,,,,0.9345,,,,,,,,,,,,,,,,,,,,,,6103597aec377370bfbcbf7c,61036c16fa204abcfaf5a9e0,2021-07-29_23h04.47.162,Simcolourproject_2stim_asymm_v5,2020.2.10,MacIntel,60,61025ae37ef11b136ea224fe,,,,,,,,,2902,54.8671875,29.24609375,1,0,0,response1disk,,6,8.984375,7.47265625,1,0,0,rectangle,8.984375,7.47265625,1,0,0,8.984375,7.47265625,1,0,0,1,51,211,40,1,,,,,,,,
,,,,,,,,,,,,,FF,,,,,,,,0.4511,,,,,,,,,,,,,,,,,,,,,,6103597aec377370bfbcbf7c,61036c16fa204abcfaf5a9e0,2021-07-29_23h04.47.162,Simcolourproject_2stim_asymm_v5,2020.2.10,MacIntel,60,61025ae37ef11b136ea224fe,,,,,,,,,3648,15.3359375,41.57421875,1,0,0,response1disk,,7,-6.71484375,0,1,0,0,rectangle,-6.71484375,0,1,0,0,-6.71484375,0,1,0,0,1,52,212,39,1,,,,,,,,
,,,,,,,,,,,,,FF,,,,,,,,0.3828,,,,,,,,,,,,,,,,,,,,,,6103597aec377370bfbcbf7c,61036c16fa204abcfaf5a9e0,2021-07-29_23h04.47.162,Simcolourproject_2stim_asymm_v5,2020.2.10,MacIntel,60,61025ae37ef11b136ea224fe,,,,,,,,,4179,21.26953125,34.734375,1,0,0,response1disk,,7,4.1328125,-0.765625,1,0,0,rectangle,4.1328125,-0.765625,1,0,0,4.1328125,-0.765625,1,0,0,1,53,213,124,1,,,,,,,,
,,,,,,,,,,,,,FF,,,,,,,,0.3322,,,,,,,,,,,,,,,,,,,,,,6103597aec377370bfbcbf7c,61036c16fa204abcfaf5a9e0,2021-07-29_23h04.47.162,Simcolourproject_2stim_asymm_v5,2020.2.10,MacIntel,60,61025ae37ef11b136ea224fe,,,,,,,,,213,23.7421875,42.08984375,1,0,0,response1disk,,7,9.15234375,-4.77734375,1,0,0,rectangle,9.15234375,-4.77734375,1,0,0,9.15234375,-4.77734375,1,0,0,1,54,214,71,1,,,,,,,,
,,,,,,,,,,,,,FF,,,,,,,,0.3678,,,,,,,,,,,,,,,,,,,,,,6103597aec377370bfbcbf7c,61036c16fa204abcfaf5a9e0,2021-07-29_23h04.47.162,Simcolourproject_2stim_asymm_v5,2020.2.10,MacIntel,60,61025ae37ef11b136ea224fe,,,,,,,,,1381,27.8125,37.1015625,1,0,0,response1disk,,7,11.39453125,0.9140625,1,0,0,rectangle,-38.359375,-54.3515625,1,0,0,-11.93359375,-2.03515625,1,0,0,1,55,215,68,1,,response5disk_3,TRUE,3,3,"[90,99,18,262,98,137,294,178,129,70,225,216,273,6,226,134,105,99,194,295]",1.387,rectangle
,,,,,,,,,,,,,FF,,,,,,,,0.5683,,,,,,,,,,,,,,,,,,,,,,6103597aec377370bfbcbf7c,61036c16fa204abcfaf5a9e0,2021-07-29_23h04.47.162,Simcolourproject_2stim_asymm_v5,2020.2.10,MacIntel,60,61025ae37ef11b136ea224fe,,,,,,,,,3695,18.4921875,48.58984375,1,0,0,response1disk,,7,12.28125,-0.87890625,1,0,0,rectangle,12.28125,-0.87890625,1,0,0,12.28125,-0.87890625,1,0,0,1,56,216,32,1,,,,,,,,
,,,,,,,,,,,,,FF,,,,,,,,0.938,,,,,,,,,,,,,,,,,,,,,,6103597aec377370bfbcbf7c,61036c16fa204abcfaf5a9e0,2021-07-29_23h04.47.162,Simcolourproject_2stim_asymm_v5,2020.2.10,MacIntel,60,61025ae37ef11b136ea224fe,,,,,,,,,2591,41.203125,28.45703125,1,0,0,response1disk,,6,-4.8828125,-15.73828125,1,0,0,rectangle,-4.8828125,-15.73828125,1,0,0,-4.8828125,-15.73828125,1,0,0,1,57,217,136,1,,,,,,,,
,,,,,,,,,,,,,FF,,,,,,,,0.3522,,,,,,,,,,,,,,,,,,,,,,6103597aec377370bfbcbf7c,61036c16fa204abcfaf5a9e0,2021-07-29_23h04.47.162,Simcolourproject_2stim_asymm_v5,2020.2.10,MacIntel,60,61025ae37ef11b136ea224fe,,,,,,,,,137,21.140625,46.54296875,1,0,0,response1disk,,7,17.953125,15.34765625,1,0,0,rectangle,17.953125,15.34765625,1,0,0,17.953125,15.34765625,1,0,0,1,58,218,37,1,,,,,,,,
,,,,,,,,,,,,,FF,,,,,,,,0.2984,,,,,,,,,,,,,,,,,,,,,,6103597aec377370bfbcbf7c,61036c16fa204abcfaf5a9e0,2021-07-29_23h04.47.162,Simcolourproject_2stim_asymm_v5,2020.2.10,MacIntel,60,61025ae37ef11b136ea224fe,,,,,,,,,1231,28.12109375,46.29296875,1,0,0,response1disk,,7,31.3828125,14.2734375,1,0,0,rectangle,31.3828125,14.2734375,1,0,0,31.3828125,14.2734375,1,0,0,1,59,219,99,1,,,,,,,,
,,,,,,,,,,,,,FF,,,,,,,,0.5863,,,,,,,,,,,,,,,,,,,,,,6103597aec377370bfbcbf7c,61036c16fa204abcfaf5a9e0,2021-07-29_23h04.47.162,Simcolourproject_2stim_asymm_v5,2020.2.10,MacIntel,60,61025ae37ef11b136ea224fe,,,,,,,,,252,29.1328125,40.6875,1,0,0,response1disk,,7,17.58203125,-1.90625,1,0,0,rectangle,17.58203125,-1.90625,1,0,0,17.58203125,-1.90625,1,0,0,1,60,220,100,1,,,,,,,,
,,,,,,,,,,,,,FF,,,,,,,,1.1707,,,,,,,,,,,,,,,,,,,,,,6103597aec377370bfbcbf7c,61036c16fa204abcfaf5a9e0,2021-07-29_23h04.47.162,Simcolourproject_2stim_asymm_v5,2020.2.10,MacIntel,60,61025ae37ef11b136ea224fe,,,,,,,,,276,-39.7578125,53.0859375,1,0,0,response7disk,,0,-24.19921875,-1.24609375,1,0,0,rectangle,-24.19921875,-1.24609375,1,0,0,-24.19921875,-1.24609375,1,0,0,1,61,221,48,1,,,,,,,,
,,,,,,,,,,,,,FF,,,,,,,,0.6863,,,,,,,,,,,,,,,,,,,,,,6103597aec377370bfbcbf7c,61036c16fa204abcfaf5a9e0,2021-07-29_23h04.47.162,Simcolourproject_2stim_asymm_v5,2020.2.10,MacIntel,60,61025ae37ef11b136ea224fe,,,,,,,,,2098,-31.34765625,50.5546875,1,0,0,response7disk,,0,-31.34765625,-6.87109375,1,0,0,rectangle,-31.34765625,-6.87109375,1,0,0,-31.34765625,-6.87109375,1,0,0,1,62,222,2,1,,,,,,,,
,,,,,,,,,,,,,FF,,,,,,,,1.0393,,,,,,,,,,,,,,,,,,,,,,6103597aec377370bfbcbf7c,61036c16fa204abcfaf5a9e0,2021-07-29_23h04.47.162,Simcolourproject_2stim_asymm_v5,2020.2.10,MacIntel,60,61025ae37ef11b136ea224fe,,,,,,,,,2335,23.6171875,38.74609375,1,0,0,response1disk,,7,15.62109375,14.9453125,1,0,0,rectangle,15.62109375,14.9453125,1,0,0,15.62109375,14.9453125,1,0,0,1,63,223,75,1,,,,,,,,
,,,,,,,,,,,,,FF,,,,,,,,0.369,,,,,,,,,,,,,,,,,,,,,,6103597aec377370bfbcbf7c,61036c16fa204abcfaf5a9e0,2021-07-29_23h04.47.162,Simcolourproject_2stim_asymm_v5,2020.2.10,MacIntel,60,61025ae37ef11b136ea224fe,,,,,,,,,2616,33.578125,47.27734375,1,0,0,response1disk,,7,19.8046875,9.953125,1,0,0,rectangle,-29.07421875,-64.76171875,1,0,0,-18.35546875,-14.53125,1,0,0,1,64,224,29,1,,response5disk_3,TRUE,3,3,"[90,99,18,262,98,137,294,178,129,70,225,216,273,6,226,134,105,99,194,295]",8.5572,rectangle
,,,,,,,,,,,,,FF,,,,,,,,1.1703,,,,,,,,,,,,,,,,,,,,,,6103597aec377370bfbcbf7c,61036c16fa204abcfaf5a9e0,2021-07-29_23h04.47.162,Simcolourproject_2stim_asymm_v5,2020.2.10,MacIntel,60,61025ae37ef11b136ea224fe,,,,,,,,,885,-25.57421875,46.08203125,1,0,0,response7disk,,0,-15.140625,-16.734375,1,0,0,rectangle,65.07421875,-26.3203125,1,0,0,8.5859375,-7.296875,1,0,0,1,65,225,140,1,,response3disk_3,TRUE,5,5,"[90,99,18,262,98,137,294,178,129,70,225,216,273,6,226,134,105,99,194,295]",1.5538,rectangle
,,,,,,,,,,,,,FF,,,,,,,,0.6771,,,,,,,,,,,,,,,,,,,,,,6103597aec377370bfbcbf7c,61036c16fa204abcfaf5a9e0,2021-07-29_23h04.47.162,Simcolourproject_2stim_asymm_v5,2020.2.10,MacIntel,60,61025ae37ef11b136ea224fe,,,,,,,,,1555,34.51171875,45.26953125,1,0,0,response1disk,,7,23.11328125,10.546875,1,0,0,rectangle,23.11328125,10.546875,1,0,0,23.11328125,10.546875,1,0,0,1,66,226,114,1,,,,,,,,
,,,,,,,,,,,,,FF,,,,,,,,0.2547,,,,,,,,,,,,,,,,,,,,,,6103597aec377370bfbcbf7c,61036c16fa204abcfaf5a9e0,2021-07-29_23h04.47.162,Simcolourproject_2stim_asymm_v5,2020.2.10,MacIntel,60,61025ae37ef11b136ea224fe,,,,,,,,,2698,27.0390625,48.921875,1,0,0,response1disk,,7,14.2265625,-7.83984375,1,0,0,rectangle,14.2265625,-7.83984375,1,0,0,14.2265625,-7.83984375,1,0,0,1,67,227,67,1,,,,,,,,
,,,,,,,,,,,,,FF,,,,,,,,0.2504,,,,,,,,,,,,,,,,,,,,,,6103597aec377370bfbcbf7c,61036c16fa204abcfaf5a9e0,2021-07-29_23h04.47.162,Simcolourproject_2stim_asymm_v5,2020.2.10,MacIntel,60,61025ae37ef11b136ea224fe,,,,,,,,,2397,30.81640625,38.72265625,1,0,0,response1disk,,7,6.609375,-4.78515625,1,0,0,rectangle,6.609375,-4.78515625,1,0,0,6.609375,-4.78515625,1,0,0,1,68,228,31,1,,,,,,,,
,,,,,,,,,,,,,FF,,,,,,,,0.9691,,,,,,,,,,,,,,,,,,,,,,6103597aec377370bfbcbf7c,61036c16fa204abcfaf5a9e0,2021-07-29_23h04.47.162,Simcolourproject_2stim_asymm_v5,2020.2.10,MacIntel,60,61025ae37ef11b136ea224fe,,,,,,,,,3479,-52.34375,-23.60546875,1,0,0,response5disk,,2,-21.85546875,-3.3359375,1,0,0,rectangle,-21.85546875,-3.3359375,1,0,0,-21.85546875,-3.3359375,1,0,0,1,69,229,18,1,,,,,,,,
,,,,,,,,,,,,,FF,,,,,,,,0.4857,,,,,,,,,,,,,,,,,,,,,,6103597aec377370bfbcbf7c,61036c16fa204abcfaf5a9e0,2021-07-29_23h04.47.162,Simcolourproject_2stim_asymm_v5,2020.2.10,MacIntel,60,61025ae37ef11b136ea224fe,,,,,,,,,155,19.40234375,39.9296875,1,0,0,response1disk,,7,18.53515625,5.7421875,1,0,0,rectangle,18.53515625,5.7421875,1,0,0,18.53515625,5.7421875,1,0,0,1,70,230,108,1,,,,,,,,
,,,,,,,,,,,,,FF,,,,,,,,1.2034,,,,,,,,,,,,,,,,,,,,,,6103597aec377370bfbcbf7c,61036c16fa204abcfaf5a9e0,2021-07-29_23h04.47.162,Simcolourproject_2stim_asymm_v5,2020.2.10,MacIntel,60,61025ae37ef11b136ea224fe,,,,,,,,,652,49.3203125,26.76953125,1,0,0,response1disk,,6,9.52734375,1.453125,1,0,0,rectangle,9.52734375,1.453125,1,0,0,9.52734375,1.453125,1,0,0,1,71,231,155,1,,,,,,,,
,,,,,,,,,,,,,FF,,,,,,,,0.4514,,,,,,,,,,,,,,,,,,,,,,6103597aec377370bfbcbf7c,61036c16fa204abcfaf5a9e0,2021-07-29_23h04.47.162,Simcolourproject_2stim_asymm_v5,2020.2.10,MacIntel,60,61025ae37ef11b136ea224fe,,,,,,,,,2619,25.00390625,42.76171875,1,0,0,response1disk,,7,12.84765625,-5.61328125,1,0,0,rectangle,12.84765625,-5.61328125,1,0,0,12.84765625,-5.61328125,1,0,0,1,72,232,123,1,,,,,,,,
,,,,,,,,,,,,,FF,,,,,,,,0.9859,,,,,,,,,,,,,,,,,,,,,,6103597aec377370bfbcbf7c,61036c16fa204abcfaf5a9e0,2021-07-29_23h04.47.162,Simcolourproject_2stim_asymm_v5,2020.2.10,MacIntel,60,61025ae37ef11b136ea224fe,,,,,,,,,1447,-40.34375,61.5546875,1,0,0,response7disk,,0,-24.16796875,14.83203125,1,0,0,rectangle,-24.16796875,14.83203125,1,0,0,-24.16796875,14.83203125,1,0,0,1,73,233,50,1,,,,,,,,
,,,,,,,,,,,,,FF,,,,,,,,0.6353,,,,,,,,,,,,,,,,,,,,,,6103597aec377370bfbcbf7c,61036c16fa204abcfaf5a9e0,2021-07-29_23h04.47.162,Simcolourproject_2stim_asymm_v5,2020.2.10,MacIntel,60,61025ae37ef11b136ea224fe,,,,,,,,,3365,26.41796875,38.4140625,1,0,0,response1disk,,7,23,2.25,1,0,0,rectangle,23,2.25,1,0,0,23,2.25,1,0,0,1,74,234,102,1,,,,,,,,
,,,,,,,,,,,,,FF,,,,,,,,0.4185,,,,,,,,,,,,,,,,,,,,,,6103597aec377370bfbcbf7c,61036c16fa204abcfaf5a9e0,2021-07-29_23h04.47.162,Simcolourproject_2stim_asymm_v5,2020.2.10,MacIntel,60,61025ae37ef11b136ea224fe,,,,,,,,,2469,26.44140625,35.73046875,1,0,0,response1disk,,7,23.37890625,13.0625,1,0,0,rectangle,23.37890625,13.0625,1,0,0,23.37890625,13.0625,1,0,0,1,75,235,70,1,,,,,,,,
,,,,,,,,,,,,,FF,,,,,,,,2.4241,,,,,,,,,,,,,,,,,,,,,,6103597aec377370bfbcbf7c,61036c16fa204abcfaf5a9e0,2021-07-29_23h04.47.162,Simcolourproject_2stim_asymm_v5,2020.2.10,MacIntel,60,61025ae37ef11b136ea224fe,,,,,,,,,4126,64.4609375,23.8203125,1,0,0,response1disk,,6,14.7578125,5.2265625,1,0,0,rectangle,14.7578125,5.2265625,1,0,0,14.7578125,5.2265625,1,0,0,1,76,236,101,1,,,,,,,,
,,,,,,,,,,,,,FF,,,,,,,,0.6535,,,,,,,,,,,,,,,,,,,,,,6103597aec377370bfbcbf7c,61036c16fa204abcfaf5a9e0,2021-07-29_23h04.47.162,Simcolourproject_2stim_asymm_v5,2020.2.10,MacIntel,60,61025ae37ef11b136ea224fe,,,,,,,,,963,23.515625,43.55859375,1,0,0,response1disk,,7,21.125,6.421875,1,0,0,rectangle,21.125,6.421875,1,0,0,21.125,6.421875,1,0,0,1,77,237,97,1,,,,,,,,
,,,,,,,,,,,,,FF,,,,,,,,0.4177,,,,,,,,,,,,,,,,,,,,,,6103597aec377370bfbcbf7c,61036c16fa204abcfaf5a9e0,2021-07-29_23h04.47.162,Simcolourproject_2stim_asymm_v5,2020.2.10,MacIntel,60,61025ae37ef11b136ea224fe,,,,,,,,,1488,36.765625,31.49609375,1,0,0,response1disk,,6,13.890625,-1.73828125,1,0,0,rectangle,13.890625,-1.73828125,1,0,0,13.890625,-1.73828125,1,0,0,1,78,238,146,1,,,,,,,,
,,,,,,,,,,,,,FF,,,,,,,,0.6516,,,,,,,,,,,,,,,,,,,,,,6103597aec377370bfbcbf7c,61036c16fa204abcfaf5a9e0,2021-07-29_23h04.47.162,Simcolourproject_2stim_asymm_v5,2020.2.10,MacIntel,60,61025ae37ef11b136ea224fe,,,,,,,,,1802,24.58984375,34.06640625,1,0,0,response1disk,,7,17.7109375,-12.40625,1,0,0,rectangle,17.7109375,-12.40625,1,0,0,17.7109375,-12.40625,1,0,0,1,79,239,86,1,,,,,,,,
,,,,,,,,,,,,,FF,,,,,,,,2.5055,,,,,,,,,,,,,,,,,,,,,,6103597aec377370bfbcbf7c,61036c16fa204abcfaf5a9e0,2021-07-29_23h04.47.162,Simcolourproject_2stim_asymm_v5,2020.2.10,MacIntel,60,61025ae37ef11b136ea224fe,,,,,,,,,2972,35.359375,58.0078125,1,0,0,response1disk,,7,25.90234375,6.7109375,1,0,0,rectangle,25.90234375,6.7109375,1,0,0,25.90234375,6.7109375,1,0,0,1,80,240,82,1,,,,,,,,
,,,,,,,,,,,,,FF,,,,,,,,0.4012,,,,,,,,,,,,,,,,,,,,,,6103597aec377370bfbcbf7c,61036c16fa204abcfaf5a9e0,2021-07-29_23h04.47.162,Simcolourproject_2stim_asymm_v5,2020.2.10,MacIntel,60,61025ae37ef11b136ea224fe,,,,,,,,,3690,34.04296875,40.87109375,1,0,0,response1disk,,7,6.28125,6.03125,1,0,0,rectangle,6.28125,6.03125,1,0,0,6.28125,6.03125,1,0,0,1,81,241,83,1,,,,,,,,
,,,,,,,,,,,,,FF,,,,,,,,0.3681,,,,,,,,,,,,,,,,,,,,,,6103597aec377370bfbcbf7c,61036c16fa204abcfaf5a9e0,2021-07-29_23h04.47.162,Simcolourproject_2stim_asymm_v5,2020.2.10,MacIntel,60,61025ae37ef11b136ea224fe,,,,,,,,,3728,35.44921875,55.2734375,1,0,0,response1disk,,7,15.69140625,0.93359375,1,0,0,rectangle,15.69140625,0.93359375,1,0,0,15.69140625,0.93359375,1,0,0,1,82,242,113,1,,,,,,,,
,,,,,,,,,,,,,FF,,,,,,,,0.5025,,,,,,,,,,,,,,,,,,,,,,6103597aec377370bfbcbf7c,61036c16fa204abcfaf5a9e0,2021-07-29_23h04.47.162,Simcolourproject_2stim_asymm_v5,2020.2.10,MacIntel,60,61025ae37ef11b136ea224fe,,,,,,,,,2475,31.796875,51.94140625,1,0,0,response1disk,,7,11.52734375,-5.4453125,1,0,0,rectangle,11.52734375,-5.4453125,1,0,0,11.52734375,-5.4453125,1,0,0,1,83,243,128,1,,,,,,,,
,,,,,,,,,,,,,FF,,,,,,,,0.4698,,,,,,,,,,,,,,,,,,,,,,6103597aec377370bfbcbf7c,61036c16fa204abcfaf5a9e0,2021-07-29_23h04.47.162,Simcolourproject_2stim_asymm_v5,2020.2.10,MacIntel,60,61025ae37ef11b136ea224fe,,,,,,,,,3134,51.04296875,80.16015625,1,0,0,response1disk,,7,15.3828125,-5.91015625,1,0,0,rectangle,15.3828125,-5.91015625,1,0,0,15.3828125,-5.91015625,1,0,0,1,84,244,125,1,,,,,,,,
,,,,,,,,,,,,,FF,,,,,,,,0.2496,,,,,,,,,,,,,,,,,,,,,,6103597aec377370bfbcbf7c,61036c16fa204abcfaf5a9e0,2021-07-29_23h04.47.162,Simcolourproject_2stim_asymm_v5,2020.2.10,MacIntel,60,61025ae37ef11b136ea224fe,,,,,,,,,1732,26.73046875,42.625,1,0,0,response1disk,,7,19.83203125,0.0703125,1,0,0,rectangle,19.83203125,0.0703125,1,0,0,19.83203125,0.0703125,1,0,0,1,85,245,35,1,,,,,,,,
,,,,,,,,,,,,,FF,,,,,,,,0.3008,,,,,,,,,,,,,,,,,,,,,,6103597aec377370bfbcbf7c,61036c16fa204abcfaf5a9e0,2021-07-29_23h04.47.162,Simcolourproject_2stim_asymm_v5,2020.2.10,MacIntel,60,61025ae37ef11b136ea224fe,,,,,,,,,4158,29.0390625,36.76171875,1,0,0,response1disk,,7,24.921875,-0.90625,1,0,0,rectangle,24.921875,-0.90625,1,0,0,24.921875,-0.90625,1,0,0,1,86,246,84,1,,,,,,,,
,,,,,,,,,,,,,FF,,,,,,,,0.3333,,,,,,,,,,,,,,,,,,,,,,6103597aec377370bfbcbf7c,61036c16fa204abcfaf5a9e0,2021-07-29_23h04.47.162,Simcolourproject_2stim_asymm_v5,2020.2.10,MacIntel,60,61025ae37ef11b136ea224fe,,,,,,,,,2276,26.7578125,44.42578125,1,0,0,response1disk,,7,14.1171875,-2.71484375,1,0,0,rectangle,14.1171875,-2.71484375,1,0,0,14.1171875,-2.71484375,1,0,0,1,87,247,17,1,,,,,,,,
,,,,,,,,,,,,,FF,,,,,,,,0.7365,,,,,,,,,,,,,,,,,,,,,,6103597aec377370bfbcbf7c,61036c16fa204abcfaf5a9e0,2021-07-29_23h04.47.162,Simcolourproject_2stim_asymm_v5,2020.2.10,MacIntel,60,61025ae37ef11b136ea224fe,,,,,,,,,1463,52.21875,29.78125,1,0,0,response1disk,,6,11.8984375,-0.6875,1,0,0,rectangle,11.8984375,-0.6875,1,0,0,11.8984375,-0.6875,1,0,0,1,88,248,148,1,,,,,,,,
