key_resp.keys,key_resp.rt,key_resp_14.keys,key_resp_14.rt,key_resp_15.keys,key_resp_15.rt,key_resp_17.keys,key_resp_17.rt,key_resp_9.keys,key_resp_9.rt,key_resp_10.keys,key_resp_10.rt,practice_comparison,Ecc,mouse_5.x,mouse_5.y,mouse_5.leftButton,mouse_5.midButton,mouse_5.rightButton,mouse_5.clicked_name,pracsimilarity,response_time,mouse_10.x,mouse_10.y,mouse_10.leftButton,mouse_10.midButton,mouse_10.rightButton,mouse_10.clicked_name,mouse_7.x,mouse_7.y,mouse_7.leftButton,mouse_7.midButton,mouse_7.rightButton,mouse_6.x,mouse_6.y,mouse_6.leftButton,mouse_6.midButton,mouse_6.rightButton,duringprac.thisRepN,duringprac.thisTrialN,duringprac.thisN,duringprac.thisIndex,duringprac.ran,participant,session,date,expName,psychopyVersion,OS,frameRate,study_id,mouse_7.clicked_name,catchpracsimilarity,catch_response_time,catchnumberprac,catchtrialorderprac,mouse_6.clicked_name,key_resp_22.keys,key_resp_22.rt,realcomparison,mouse.x,mouse.y,mouse.leftButton,mouse.midButton,mouse.rightButton,mouse.clicked_name,Colour2,similarity,mouse_2.x,mouse_2.y,mouse_2.leftButton,mouse_2.midButton,mouse_2.rightButton,mouse_2.clicked_name,mouse_3.x,mouse_3.y,mouse_3.leftButton,mouse_3.midButton,mouse_3.rightButton,mouse_11.x,mouse_11.y,mouse_11.leftButton,mouse_11.midButton,mouse_11.rightButton,trials_2.thisRepN,trials_2.thisTrialN,trials_2.thisN,trials_2.thisIndex,trials_2.ran,Colour1,mouse_3.clicked_name,catchornah,catchsimilarity,catchnumber,catchtrialorder,catchRT,mouse_11.clicked_name
space,1.1985,space,13.1933,space,10.0399,space,5.5396,space,0.6839,space,2.6848,154,FF,42,83,1,0,0,response1disk_5,7,5.8654,13,4,1,0,0,rectangle_8,13,4,1,0,0,13,4,1,0,0,0,0,0,0,1,61035d9ff98a80eac67779b7,61036632238f87866c3162fd,2021-07-29_21h39.17.031,Simcolourproject_2stim_asymm_v5,2020.2.10,Win32,60,61025ae37ef11b136ea224fe,,,,,,,,,,,,,,,,,,,,,,,,,,,,,,,,,,,,,,,,,,,,,,
,,,,,,,,,,,,126,FF,75,42,1,0,0,response1disk_5,6,4.9011,20,0,1,0,0,rectangle_8,97,-53,1,0,0,9,0,1,0,0,0,1,1,3,1,61035d9ff98a80eac67779b7,61036632238f87866c3162fd,2021-07-29_21h39.17.031,Simcolourproject_2stim_asymm_v5,2020.2.10,Win32,60,61025ae37ef11b136ea224fe,response3disk_7,5,2.3467,5,"[2,5]",rectangle_4,,,,,,,,,,,,,,,,,,,,,,,,,,,,,,,,,,,,,,,,
,,,,,,,,,,,,43,PF,-45,-98,1,0,0,response5disk_5,3,4.6949,12,-2,1,0,0,rectangle_8,12,-2,1,0,0,12,-2,1,0,0,0,2,2,6,1,61035d9ff98a80eac67779b7,61036632238f87866c3162fd,2021-07-29_21h39.17.031,Simcolourproject_2stim_asymm_v5,2020.2.10,Win32,60,61025ae37ef11b136ea224fe,,,,,,,,,,,,,,,,,,,,,,,,,,,,,,,,,,,,,,,,,,,,,,
,,,,,,,,,,,,126,PF,50,112,1,0,0,response1disk_5,7,2.7982,19,4,1,0,0,rectangle_8,19,4,1,0,0,19,4,1,0,0,0,3,3,4,1,61035d9ff98a80eac67779b7,61036632238f87866c3162fd,2021-07-29_21h39.17.031,Simcolourproject_2stim_asymm_v5,2020.2.10,Win32,60,61025ae37ef11b136ea224fe,,,,,,,,,,,,,,,,,,,,,,,,,,,,,,,,,,,,,,,,,,,,,,
,,,,,,,,,,,,13,FF,49,66,1,0,0,response1disk_5,7,2.2142,14,-4,1,0,0,rectangle_8,102,-43,1,0,0,22,-9,1,0,0,0,4,4,5,1,61035d9ff98a80eac67779b7,61036632238f87866c3162fd,2021-07-29_21h39.17.031,Simcolourproject_2stim_asymm_v5,2020.2.10,Win32,60,61025ae37ef11b136ea224fe,response3disk_7,5,1.8653,5,"[2,5]",rectangle_4,,,,,,,,,,,,,,,,,,,,,,,,,,,,,,,,,,,,,,,,
,,,,,,,,,,,,24,PF,80,-65,1,0,0,response3disk_5,5,4.5615,27,-11,1,0,0,rectangle_8,27,-11,1,0,0,27,-11,1,0,0,0,5,5,2,1,61035d9ff98a80eac67779b7,61036632238f87866c3162fd,2021-07-29_21h39.17.031,Simcolourproject_2stim_asymm_v5,2020.2.10,Win32,60,61025ae37ef11b136ea224fe,,,,,,,,,,,,,,,,,,,,,,,,,,,,,,,,,,,,,,,,,,,,,,
,,,,,,,,,,,,42,PF,59,106,1,0,0,response1disk_5,7,1.4988,16,1,1,0,0,rectangle_8,16,1,1,0,0,16,1,1,0,0,0,6,6,1,1,61035d9ff98a80eac67779b7,61036632238f87866c3162fd,2021-07-29_21h39.17.031,Simcolourproject_2stim_asymm_v5,2020.2.10,Win32,60,61025ae37ef11b136ea224fe,,,,,,,,,,,,,,,,,,,,,,,,,,,,,,,,,,,,,,,,,,,,,,
,,,,,,,,,,,,,FF,,,,,,,,4.8631,,,,,,,,,,,,,,,,,,,,,,61035d9ff98a80eac67779b7,61036632238f87866c3162fd,2021-07-29_21h39.17.031,Simcolourproject_2stim_asymm_v5,2020.2.10,Win32,60,61025ae37ef11b136ea224fe,,,,,,,space,1.9238,3785,56,-86,1,0,0,response3disk,,4,10,7,1,0,0,rectangle,10,7,1,0,0,10,7,1,0,0,0,0,0,31,1,,,,,,,,
,,,,,,,,,,,,,FF,,,,,,,,1.3823,,,,,,,,,,,,,,,,,,,,,,61035d9ff98a80eac67779b7,61036632238f87866c3162fd,2021-07-29_21h39.17.031,Simcolourproject_2stim_asymm_v5,2020.2.10,Win32,60,61025ae37ef11b136ea224fe,,,,,,,,,783,38,73,1,0,0,response1disk,,7,5,7,1,0,0,rectangle,5,7,1,0,0,5,7,1,0,0,0,1,1,150,1,,,,,,,,
,,,,,,,,,,,,,FF,,,,,,,,0.8157,,,,,,,,,,,,,,,,,,,,,,61035d9ff98a80eac67779b7,61036632238f87866c3162fd,2021-07-29_21h39.17.031,Simcolourproject_2stim_asymm_v5,2020.2.10,Win32,60,61025ae37ef11b136ea224fe,,,,,,,,,499,49,74,1,0,0,response1disk,,7,12,-6,1,0,0,rectangle,12,-6,1,0,0,12,-6,1,0,0,0,2,2,128,1,,,,,,,,
,,,,,,,,,,,,,FF,,,,,,,,2.7304,,,,,,,,,,,,,,,,,,,,,,61035d9ff98a80eac67779b7,61036632238f87866c3162fd,2021-07-29_21h39.17.031,Simcolourproject_2stim_asymm_v5,2020.2.10,Win32,60,61025ae37ef11b136ea224fe,,,,,,,,,4356,-72,-30,1,0,0,response5disk,,2,-9,-1,1,0,0,rectangle,-9,-1,1,0,0,-9,-1,1,0,0,0,3,3,119,1,,,,,,,,
,,,,,,,,,,,,,FF,,,,,,,,0.8985,,,,,,,,,,,,,,,,,,,,,,61035d9ff98a80eac67779b7,61036632238f87866c3162fd,2021-07-29_21h39.17.031,Simcolourproject_2stim_asymm_v5,2020.2.10,Win32,60,61025ae37ef11b136ea224fe,,,,,,,,,3475,-53,-17,1,0,0,response5disk,,2,-4,4,1,0,0,rectangle,-4,4,1,0,0,-4,4,1,0,0,0,4,4,77,1,,,,,,,,
,,,,,,,,,,,,,FF,,,,,,,,0.7493,,,,,,,,,,,,,,,,,,,,,,61035d9ff98a80eac67779b7,61036632238f87866c3162fd,2021-07-29_21h39.17.031,Simcolourproject_2stim_asymm_v5,2020.2.10,Win32,60,61025ae37ef11b136ea224fe,,,,,,,,,2937,43,62,1,0,0,response1disk,,7,1,-7,1,0,0,rectangle,1,-7,1,0,0,1,-7,1,0,0,0,5,5,88,1,,,,,,,,
,,,,,,,,,,,,,FF,,,,,,,,1.2163,,,,,,,,,,,,,,,,,,,,,,61035d9ff98a80eac67779b7,61036632238f87866c3162fd,2021-07-29_21h39.17.031,Simcolourproject_2stim_asymm_v5,2020.2.10,Win32,60,61025ae37ef11b136ea224fe,,,,,,,,,1426,34,62,1,0,0,response1disk,,7,10,-2,1,0,0,rectangle,10,-2,1,0,0,10,-2,1,0,0,0,6,6,127,1,,,,,,,,
,,,,,,,,,,,,,FF,,,,,,,,0.8,,,,,,,,,,,,,,,,,,,,,,61035d9ff98a80eac67779b7,61036632238f87866c3162fd,2021-07-29_21h39.17.031,Simcolourproject_2stim_asymm_v5,2020.2.10,Win32,60,61025ae37ef11b136ea224fe,,,,,,,,,4318,33,56,1,0,0,response1disk,,7,8,0,1,0,0,rectangle,8,0,1,0,0,8,0,1,0,0,0,7,7,54,1,,,,,,,,
,,,,,,,,,,,,,FF,,,,,,,,0.6995,,,,,,,,,,,,,,,,,,,,,,61035d9ff98a80eac67779b7,61036632238f87866c3162fd,2021-07-29_21h39.17.031,Simcolourproject_2stim_asymm_v5,2020.2.10,Win32,60,61025ae37ef11b136ea224fe,,,,,,,,,1103,40,68,1,0,0,response1disk,,7,2,-1,1,0,0,rectangle,2,-1,1,0,0,2,-1,1,0,0,0,8,8,55,1,,,,,,,,
,,,,,,,,,,,,,FF,,,,,,,,4.014,,,,,,,,,,,,,,,,,,,,,,61035d9ff98a80eac67779b7,61036632238f87866c3162fd,2021-07-29_21h39.17.031,Simcolourproject_2stim_asymm_v5,2020.2.10,Win32,60,61025ae37ef11b136ea224fe,,,,,,,,,544,-36,-87,1,0,0,response5disk,,3,8,-5,1,0,0,rectangle,8,-5,1,0,0,8,-5,1,0,0,0,9,9,151,1,,,,,,,,
,,,,,,,,,,,,,FF,,,,,,,,1.3163,,,,,,,,,,,,,,,,,,,,,,61035d9ff98a80eac67779b7,61036632238f87866c3162fd,2021-07-29_21h39.17.031,Simcolourproject_2stim_asymm_v5,2020.2.10,Win32,60,61025ae37ef11b136ea224fe,,,,,,,,,2109,72,-50,1,0,0,response3disk,,5,3,-5,1,0,0,rectangle,3,-5,1,0,0,3,-5,1,0,0,0,10,10,14,1,,,,,,,,
,,,,,,,,,,,,,FF,,,,,,,,1.1146,,,,,,,,,,,,,,,,,,,,,,61035d9ff98a80eac67779b7,61036632238f87866c3162fd,2021-07-29_21h39.17.031,Simcolourproject_2stim_asymm_v5,2020.2.10,Win32,60,61025ae37ef11b136ea224fe,,,,,,,,,184,39,83,1,0,0,response1disk,,7,5,5,1,0,0,rectangle,5,5,1,0,0,5,5,1,0,0,0,11,11,44,1,,,,,,,,
,,,,,,,,,,,,,FF,,,,,,,,1.8318,,,,,,,,,,,,,,,,,,,,,,61035d9ff98a80eac67779b7,61036632238f87866c3162fd,2021-07-29_21h39.17.031,Simcolourproject_2stim_asymm_v5,2020.2.10,Win32,60,61025ae37ef11b136ea224fe,,,,,,,,,1048,80,-35,1,0,0,response3disk,,5,25,1,1,0,0,rectangle,25,1,1,0,0,25,1,1,0,0,0,12,12,104,1,,,,,,,,
,,,,,,,,,,,,,FF,,,,,,,,0.9659,,,,,,,,,,,,,,,,,,,,,,61035d9ff98a80eac67779b7,61036632238f87866c3162fd,2021-07-29_21h39.17.031,Simcolourproject_2stim_asymm_v5,2020.2.10,Win32,60,61025ae37ef11b136ea224fe,,,,,,,,,2623,45,58,1,0,0,response1disk,,7,5,6,1,0,0,rectangle,5,6,1,0,0,5,6,1,0,0,0,13,13,36,1,,,,,,,,
,,,,,,,,,,,,,FF,,,,,,,,0.833,,,,,,,,,,,,,,,,,,,,,,61035d9ff98a80eac67779b7,61036632238f87866c3162fd,2021-07-29_21h39.17.031,Simcolourproject_2stim_asymm_v5,2020.2.10,Win32,60,61025ae37ef11b136ea224fe,,,,,,,,,2119,32,73,1,0,0,response1disk,,7,12,-7,1,0,0,rectangle,12,-7,1,0,0,12,-7,1,0,0,0,14,14,30,1,,,,,,,,
,,,,,,,,,,,,,FF,,,,,,,,3.4307,,,,,,,,,,,,,,,,,,,,,,61035d9ff98a80eac67779b7,61036632238f87866c3162fd,2021-07-29_21h39.17.031,Simcolourproject_2stim_asymm_v5,2020.2.10,Win32,60,61025ae37ef11b136ea224fe,,,,,,,,,3331,94,23,1,0,0,response1disk,,6,15,-9,1,0,0,rectangle,15,-9,1,0,0,15,-9,1,0,0,0,15,15,7,1,,,,,,,,
,,,,,,,,,,,,,FF,,,,,,,,2.3136,,,,,,,,,,,,,,,,,,,,,,61035d9ff98a80eac67779b7,61036632238f87866c3162fd,2021-07-29_21h39.17.031,Simcolourproject_2stim_asymm_v5,2020.2.10,Win32,60,61025ae37ef11b136ea224fe,,,,,,,,,1343,34,63,1,0,0,response1disk,,7,2,-4,1,0,0,rectangle,2,-4,1,0,0,2,-4,1,0,0,0,16,16,71,1,,,,,,,,
,,,,,,,,,,,,,FF,,,,,,,,1.3826,,,,,,,,,,,,,,,,,,,,,,61035d9ff98a80eac67779b7,61036632238f87866c3162fd,2021-07-29_21h39.17.031,Simcolourproject_2stim_asymm_v5,2020.2.10,Win32,60,61025ae37ef11b136ea224fe,,,,,,,,,3325,31,72,1,0,0,response1disk,,7,6,14,1,0,0,rectangle,6,14,1,0,0,6,14,1,0,0,0,17,17,157,1,,,,,,,,
,,,,,,,,,,,,,FF,,,,,,,,0.8663,,,,,,,,,,,,,,,,,,,,,,61035d9ff98a80eac67779b7,61036632238f87866c3162fd,2021-07-29_21h39.17.031,Simcolourproject_2stim_asymm_v5,2020.2.10,Win32,60,61025ae37ef11b136ea224fe,,,,,,,,,67,37,80,1,0,0,response1disk,,7,4,-5,1,0,0,rectangle,4,-5,1,0,0,4,-5,1,0,0,0,18,18,16,1,,,,,,,,
,,,,,,,,,,,,,FF,,,,,,,,1.8963,,,,,,,,,,,,,,,,,,,,,,61035d9ff98a80eac67779b7,61036632238f87866c3162fd,2021-07-29_21h39.17.031,Simcolourproject_2stim_asymm_v5,2020.2.10,Win32,60,61025ae37ef11b136ea224fe,,,,,,,,,1969,88,-39,1,0,0,response3disk,,5,23,-1,1,0,0,rectangle,23,-1,1,0,0,23,-1,1,0,0,0,19,19,6,1,,,,,,,,
,,,,,,,,,,,,,FF,,,,,,,,1.632,,,,,,,,,,,,,,,,,,,,,,61035d9ff98a80eac67779b7,61036632238f87866c3162fd,2021-07-29_21h39.17.031,Simcolourproject_2stim_asymm_v5,2020.2.10,Win32,60,61025ae37ef11b136ea224fe,,,,,,,,,938,85,39,1,0,0,response1disk,,6,20,4,1,0,0,rectangle,20,4,1,0,0,20,4,1,0,0,0,20,20,141,1,,,,,,,,
,,,,,,,,,,,,,FF,,,,,,,,0.8327,,,,,,,,,,,,,,,,,,,,,,61035d9ff98a80eac67779b7,61036632238f87866c3162fd,2021-07-29_21h39.17.031,Simcolourproject_2stim_asymm_v5,2020.2.10,Win32,60,61025ae37ef11b136ea224fe,,,,,,,,,3725,24,58,1,0,0,response1disk,,7,1,-5,1,0,0,rectangle,-47,-94,1,0,0,-1,-1,1,0,0,0,21,21,95,1,,response5disk_3,TRUE,3,3,"[165,193,202,247,158,308,280,113,288,183,244,314,267,169,159,275,22,165,221,137]",2.1485,rectangle
,,,,,,,,,,,,,FF,,,,,,,,1.8999,,,,,,,,,,,,,,,,,,,,,,61035d9ff98a80eac67779b7,61036632238f87866c3162fd,2021-07-29_21h39.17.031,Simcolourproject_2stim_asymm_v5,2020.2.10,Win32,60,61025ae37ef11b136ea224fe,,,,,,,,,977,83,32,1,0,0,response1disk,,6,12,-14,1,0,0,rectangle,12,-14,1,0,0,12,-14,1,0,0,0,22,22,133,1,,,,,,,,
,,,,,,,,,,,,,FF,,,,,,,,2.4317,,,,,,,,,,,,,,,,,,,,,,61035d9ff98a80eac67779b7,61036632238f87866c3162fd,2021-07-29_21h39.17.031,Simcolourproject_2stim_asymm_v5,2020.2.10,Win32,60,61025ae37ef11b136ea224fe,,,,,,,,,982,40,55,1,0,0,response1disk,,7,19,11,1,0,0,rectangle,19,11,1,0,0,19,11,1,0,0,0,23,23,63,1,,,,,,,,
,,,,,,,,,,,,,FF,,,,,,,,1.2326,,,,,,,,,,,,,,,,,,,,,,61035d9ff98a80eac67779b7,61036632238f87866c3162fd,2021-07-29_21h39.17.031,Simcolourproject_2stim_asymm_v5,2020.2.10,Win32,60,61025ae37ef11b136ea224fe,,,,,,,,,1234,45,56,1,0,0,response1disk,,7,25,3,1,0,0,rectangle,25,3,1,0,0,25,3,1,0,0,0,24,24,129,1,,,,,,,,
,,,,,,,,,,,,,FF,,,,,,,,2.7654,,,,,,,,,,,,,,,,,,,,,,61035d9ff98a80eac67779b7,61036632238f87866c3162fd,2021-07-29_21h39.17.031,Simcolourproject_2stim_asymm_v5,2020.2.10,Win32,60,61025ae37ef11b136ea224fe,,,,,,,,,1126,70,33,1,0,0,response1disk,,6,23,2,1,0,0,rectangle,23,2,1,0,0,23,2,1,0,0,0,25,25,137,1,,,,,,,,
,,,,,,,,,,,,,FF,,,,,,,,0.8795,,,,,,,,,,,,,,,,,,,,,,61035d9ff98a80eac67779b7,61036632238f87866c3162fd,2021-07-29_21h39.17.031,Simcolourproject_2stim_asymm_v5,2020.2.10,Win32,60,61025ae37ef11b136ea224fe,,,,,,,,,110,39,73,1,0,0,response1disk,,7,-4,6,1,0,0,rectangle,-4,6,1,0,0,-4,6,1,0,0,0,26,26,10,1,,,,,,,,
,,,,,,,,,,,,,FF,,,,,,,,2.4512,,,,,,,,,,,,,,,,,,,,,,61035d9ff98a80eac67779b7,61036632238f87866c3162fd,2021-07-29_21h39.17.031,Simcolourproject_2stim_asymm_v5,2020.2.10,Win32,60,61025ae37ef11b136ea224fe,,,,,,,,,3708,49,-68,1,0,0,response3disk,,4,11,7,1,0,0,rectangle,11,7,1,0,0,11,7,1,0,0,0,27,27,76,1,,,,,,,,
,,,,,,,,,,,,,FF,,,,,,,,1.6156,,,,,,,,,,,,,,,,,,,,,,61035d9ff98a80eac67779b7,61036632238f87866c3162fd,2021-07-29_21h39.17.031,Simcolourproject_2stim_asymm_v5,2020.2.10,Win32,60,61025ae37ef11b136ea224fe,,,,,,,,,3843,-75,50,1,0,0,response7disk,,1,-11,1,1,0,0,rectangle,-11,1,1,0,0,-11,1,1,0,0,0,28,28,106,1,,,,,,,,
,,,,,,,,,,,,,FF,,,,,,,,4.3437,,,,,,,,,,,,,,,,,,,,,,61035d9ff98a80eac67779b7,61036632238f87866c3162fd,2021-07-29_21h39.17.031,Simcolourproject_2stim_asymm_v5,2020.2.10,Win32,60,61025ae37ef11b136ea224fe,,,,,,,,,2131,27,76,1,0,0,response1disk,,7,12,4,1,0,0,rectangle,12,4,1,0,0,12,4,1,0,0,0,29,29,9,1,,,,,,,,
,,,,,,,,,,,,,FF,,,,,,,,0.8038,,,,,,,,,,,,,,,,,,,,,,61035d9ff98a80eac67779b7,61036632238f87866c3162fd,2021-07-29_21h39.17.031,Simcolourproject_2stim_asymm_v5,2020.2.10,Win32,60,61025ae37ef11b136ea224fe,,,,,,,,,3169,26,60,1,0,0,response1disk,,7,13,13,1,0,0,rectangle,13,13,1,0,0,13,13,1,0,0,0,30,30,0,1,,,,,,,,
,,,,,,,,,,,,,FF,,,,,,,,0.7491,,,,,,,,,,,,,,,,,,,,,,61035d9ff98a80eac67779b7,61036632238f87866c3162fd,2021-07-29_21h39.17.031,Simcolourproject_2stim_asymm_v5,2020.2.10,Win32,60,61025ae37ef11b136ea224fe,,,,,,,,,1558,31,57,1,0,0,response1disk,,7,18,-6,1,0,0,rectangle,18,-6,1,0,0,18,-6,1,0,0,0,31,31,86,1,,,,,,,,
,,,,,,,,,,,,,FF,,,,,,,,1.7989,,,,,,,,,,,,,,,,,,,,,,61035d9ff98a80eac67779b7,61036632238f87866c3162fd,2021-07-29_21h39.17.031,Simcolourproject_2stim_asymm_v5,2020.2.10,Win32,60,61025ae37ef11b136ea224fe,,,,,,,,,3429,80,-31,1,0,0,response3disk,,5,14,0,1,0,0,rectangle,14,0,1,0,0,14,0,1,0,0,0,32,32,116,1,,,,,,,,
,,,,,,,,,,,,,FF,,,,,,,,0.9334,,,,,,,,,,,,,,,,,,,,,,61035d9ff98a80eac67779b7,61036632238f87866c3162fd,2021-07-29_21h39.17.031,Simcolourproject_2stim_asymm_v5,2020.2.10,Win32,60,61025ae37ef11b136ea224fe,,,,,,,,,3891,39,96,1,0,0,response1disk,,7,2,0,1,0,0,rectangle,2,0,1,0,0,2,0,1,0,0,0,33,33,92,1,,,,,,,,
,,,,,,,,,,,,,FF,,,,,,,,0.6498,,,,,,,,,,,,,,,,,,,,,,61035d9ff98a80eac67779b7,61036632238f87866c3162fd,2021-07-29_21h39.17.031,Simcolourproject_2stim_asymm_v5,2020.2.10,Win32,60,61025ae37ef11b136ea224fe,,,,,,,,,858,30,70,1,0,0,response1disk,,7,4,2,1,0,0,rectangle,4,2,1,0,0,4,2,1,0,0,0,34,34,121,1,,,,,,,,
,,,,,,,,,,,,,FF,,,,,,,,0.5665,,,,,,,,,,,,,,,,,,,,,,61035d9ff98a80eac67779b7,61036632238f87866c3162fd,2021-07-29_21h39.17.031,Simcolourproject_2stim_asymm_v5,2020.2.10,Win32,60,61025ae37ef11b136ea224fe,,,,,,,,,2573,28,48,1,0,0,response1disk,,7,5,-5,1,0,0,rectangle,5,-5,1,0,0,5,-5,1,0,0,0,35,35,90,1,,,,,,,,
,,,,,,,,,,,,,FF,,,,,,,,1.3493,,,,,,,,,,,,,,,,,,,,,,61035d9ff98a80eac67779b7,61036632238f87866c3162fd,2021-07-29_21h39.17.031,Simcolourproject_2stim_asymm_v5,2020.2.10,Win32,60,61025ae37ef11b136ea224fe,,,,,,,,,2837,70,-18,1,0,0,response3disk,,5,24,-3,1,0,0,rectangle,24,-3,1,0,0,24,-3,1,0,0,0,36,36,148,1,,,,,,,,
,,,,,,,,,,,,,FF,,,,,,,,0.8166,,,,,,,,,,,,,,,,,,,,,,61035d9ff98a80eac67779b7,61036632238f87866c3162fd,2021-07-29_21h39.17.031,Simcolourproject_2stim_asymm_v5,2020.2.10,Win32,60,61025ae37ef11b136ea224fe,,,,,,,,,1366,19,48,1,0,0,response1disk,,7,-2,-9,1,0,0,rectangle,-2,-9,1,0,0,-2,-9,1,0,0,0,37,37,65,1,,,,,,,,
,,,,,,,,,,,,,FF,,,,,,,,0.6333,,,,,,,,,,,,,,,,,,,,,,61035d9ff98a80eac67779b7,61036632238f87866c3162fd,2021-07-29_21h39.17.031,Simcolourproject_2stim_asymm_v5,2020.2.10,Win32,60,61025ae37ef11b136ea224fe,,,,,,,,,2331,15,49,1,0,0,response1disk,,7,6,3,1,0,0,rectangle,6,3,1,0,0,6,3,1,0,0,0,38,38,155,1,,,,,,,,
,,,,,,,,,,,,,FF,,,,,,,,0.5322,,,,,,,,,,,,,,,,,,,,,,61035d9ff98a80eac67779b7,61036632238f87866c3162fd,2021-07-29_21h39.17.031,Simcolourproject_2stim_asymm_v5,2020.2.10,Win32,60,61025ae37ef11b136ea224fe,,,,,,,,,1498,40,62,1,0,0,response1disk,,7,15,3,1,0,0,rectangle,15,3,1,0,0,15,3,1,0,0,0,39,39,68,1,,,,,,,,
,,,,,,,,,,,,,FF,,,,,,,,2.1322,,,,,,,,,,,,,,,,,,,,,,61035d9ff98a80eac67779b7,61036632238f87866c3162fd,2021-07-29_21h39.17.031,Simcolourproject_2stim_asymm_v5,2020.2.10,Win32,60,61025ae37ef11b136ea224fe,,,,,,,,,3946,42,19,1,0,0,response1disk,,6,10,7,1,0,0,rectangle,10,7,1,0,0,10,7,1,0,0,0,40,40,23,1,,,,,,,,
,,,,,,,,,,,,,FF,,,,,,,,0.8159,,,,,,,,,,,,,,,,,,,,,,61035d9ff98a80eac67779b7,61036632238f87866c3162fd,2021-07-29_21h39.17.031,Simcolourproject_2stim_asymm_v5,2020.2.10,Win32,60,61025ae37ef11b136ea224fe,,,,,,,,,2717,44,66,1,0,0,response1disk,,7,19,14,1,0,0,rectangle,19,14,1,0,0,19,14,1,0,0,0,41,41,136,1,,,,,,,,
,,,,,,,,,,,,,FF,,,,,,,,0.4997,,,,,,,,,,,,,,,,,,,,,,61035d9ff98a80eac67779b7,61036632238f87866c3162fd,2021-07-29_21h39.17.031,Simcolourproject_2stim_asymm_v5,2020.2.10,Win32,60,61025ae37ef11b136ea224fe,,,,,,,,,782,26,36,1,0,0,response1disk,,7,19,6,1,0,0,rectangle,19,6,1,0,0,19,6,1,0,0,0,42,42,11,1,,,,,,,,
,,,,,,,,,,,,,FF,,,,,,,,1.2156,,,,,,,,,,,,,,,,,,,,,,61035d9ff98a80eac67779b7,61036632238f87866c3162fd,2021-07-29_21h39.17.031,Simcolourproject_2stim_asymm_v5,2020.2.10,Win32,60,61025ae37ef11b136ea224fe,,,,,,,,,1747,-28,-74,1,0,0,response5disk,,3,12,0,1,0,0,rectangle,12,0,1,0,0,12,0,1,0,0,0,43,43,38,1,,,,,,,,
,,,,,,,,,,,,,FF,,,,,,,,1.1987,,,,,,,,,,,,,,,,,,,,,,61035d9ff98a80eac67779b7,61036632238f87866c3162fd,2021-07-29_21h39.17.031,Simcolourproject_2stim_asymm_v5,2020.2.10,Win32,60,61025ae37ef11b136ea224fe,,,,,,,,,3394,61,-43,1,0,0,response3disk,,5,30,-5,1,0,0,rectangle,30,-5,1,0,0,30,-5,1,0,0,0,44,44,131,1,,,,,,,,
,,,,,,,,,,,,,FF,,,,,,,,0.7662,,,,,,,,,,,,,,,,,,,,,,61035d9ff98a80eac67779b7,61036632238f87866c3162fd,2021-07-29_21h39.17.031,Simcolourproject_2stim_asymm_v5,2020.2.10,Win32,60,61025ae37ef11b136ea224fe,,,,,,,,,2973,33,70,1,0,0,response1disk,,7,14,4,1,0,0,rectangle,14,4,1,0,0,14,4,1,0,0,0,45,45,39,1,,,,,,,,
,,,,,,,,,,,,,FF,,,,,,,,0.6815,,,,,,,,,,,,,,,,,,,,,,61035d9ff98a80eac67779b7,61036632238f87866c3162fd,2021-07-29_21h39.17.031,Simcolourproject_2stim_asymm_v5,2020.2.10,Win32,60,61025ae37ef11b136ea224fe,,,,,,,,,238,40,54,1,0,0,response1disk,,7,22,3,1,0,0,rectangle,22,3,1,0,0,22,3,1,0,0,0,46,46,158,1,,,,,,,,
,,,,,,,,,,,,,FF,,,,,,,,0.7171,,,,,,,,,,,,,,,,,,,,,,61035d9ff98a80eac67779b7,61036632238f87866c3162fd,2021-07-29_21h39.17.031,Simcolourproject_2stim_asymm_v5,2020.2.10,Win32,60,61025ae37ef11b136ea224fe,,,,,,,,,60,34,42,1,0,0,response1disk,,7,16,-2,1,0,0,rectangle,16,-2,1,0,0,16,-2,1,0,0,0,47,47,49,1,,,,,,,,
,,,,,,,,,,,,,FF,,,,,,,,1.8165,,,,,,,,,,,,,,,,,,,,,,61035d9ff98a80eac67779b7,61036632238f87866c3162fd,2021-07-29_21h39.17.031,Simcolourproject_2stim_asymm_v5,2020.2.10,Win32,60,61025ae37ef11b136ea224fe,,,,,,,,,769,34,66,1,0,0,response1disk,,7,-8,-9,1,0,0,rectangle,-8,-9,1,0,0,-8,-9,1,0,0,0,48,48,110,1,,,,,,,,
,,,,,,,,,,,,,FF,,,,,,,,6.827,,,,,,,,,,,,,,,,,,,,,,61035d9ff98a80eac67779b7,61036632238f87866c3162fd,2021-07-29_21h39.17.031,Simcolourproject_2stim_asymm_v5,2020.2.10,Win32,60,61025ae37ef11b136ea224fe,,,,,,,,,3596,94,45,1,0,0,response1disk,,6,8,-8,1,0,0,rectangle,8,-8,1,0,0,8,-8,1,0,0,0,49,49,58,1,,,,,,,,
,,,,,,,,,,,,,FF,,,,,,,,1.5471,,,,,,,,,,,,,,,,,,,,,,61035d9ff98a80eac67779b7,61036632238f87866c3162fd,2021-07-29_21h39.17.031,Simcolourproject_2stim_asymm_v5,2020.2.10,Win32,60,61025ae37ef11b136ea224fe,,,,,,,,,896,49,86,1,0,0,response1disk,,7,0,-5,1,0,0,rectangle,0,-5,1,0,0,0,-5,1,0,0,0,50,50,59,1,,,,,,,,
,,,,,,,,,,,,,FF,,,,,,,,0.4491,,,,,,,,,,,,,,,,,,,,,,61035d9ff98a80eac67779b7,61036632238f87866c3162fd,2021-07-29_21h39.17.031,Simcolourproject_2stim_asymm_v5,2020.2.10,Win32,60,61025ae37ef11b136ea224fe,,,,,,,,,3332,37,72,1,0,0,response1disk,,7,-5,-6,1,0,0,rectangle,-5,-6,1,0,0,-5,-6,1,0,0,0,51,51,28,1,,,,,,,,
,,,,,,,,,,,,,FF,,,,,,,,0.5,,,,,,,,,,,,,,,,,,,,,,61035d9ff98a80eac67779b7,61036632238f87866c3162fd,2021-07-29_21h39.17.031,Simcolourproject_2stim_asymm_v5,2020.2.10,Win32,60,61025ae37ef11b136ea224fe,,,,,,,,,3082,42,68,1,0,0,response1disk,,7,16,12,1,0,0,rectangle,16,12,1,0,0,16,12,1,0,0,0,52,52,48,1,,,,,,,,
,,,,,,,,,,,,,FF,,,,,,,,0.4817,,,,,,,,,,,,,,,,,,,,,,61035d9ff98a80eac67779b7,61036632238f87866c3162fd,2021-07-29_21h39.17.031,Simcolourproject_2stim_asymm_v5,2020.2.10,Win32,60,61025ae37ef11b136ea224fe,,,,,,,,,2077,44,68,1,0,0,response1disk,,7,20,-7,1,0,0,rectangle,20,-7,1,0,0,20,-7,1,0,0,0,53,53,156,1,,,,,,,,
,,,,,,,,,,,,,FF,,,,,,,,0.6328,,,,,,,,,,,,,,,,,,,,,,61035d9ff98a80eac67779b7,61036632238f87866c3162fd,2021-07-29_21h39.17.031,Simcolourproject_2stim_asymm_v5,2020.2.10,Win32,60,61025ae37ef11b136ea224fe,,,,,,,,,1761,48,76,1,0,0,response1disk,,7,-4,-12,1,0,0,rectangle,-4,-12,1,0,0,-4,-12,1,0,0,0,54,54,105,1,,,,,,,,
,,,,,,,,,,,,,FF,,,,,,,,0.3651,,,,,,,,,,,,,,,,,,,,,,61035d9ff98a80eac67779b7,61036632238f87866c3162fd,2021-07-29_21h39.17.031,Simcolourproject_2stim_asymm_v5,2020.2.10,Win32,60,61025ae37ef11b136ea224fe,,,,,,,,,3318,49,75,1,0,0,response1disk,,7,9,0,1,0,0,rectangle,9,0,1,0,0,9,0,1,0,0,0,55,55,66,1,,,,,,,,
,,,,,,,,,,,,,FF,,,,,,,,0.4828,,,,,,,,,,,,,,,,,,,,,,61035d9ff98a80eac67779b7,61036632238f87866c3162fd,2021-07-29_21h39.17.031,Simcolourproject_2stim_asymm_v5,2020.2.10,Win32,60,61025ae37ef11b136ea224fe,,,,,,,,,1935,49,80,1,0,0,response1disk,,7,7,-4,1,0,0,rectangle,7,-4,1,0,0,7,-4,1,0,0,0,56,56,1,1,,,,,,,,
,,,,,,,,,,,,,FF,,,,,,,,1.1153,,,,,,,,,,,,,,,,,,,,,,61035d9ff98a80eac67779b7,61036632238f87866c3162fd,2021-07-29_21h39.17.031,Simcolourproject_2stim_asymm_v5,2020.2.10,Win32,60,61025ae37ef11b136ea224fe,,,,,,,,,4338,85,42,1,0,0,response1disk,,6,19,14,1,0,0,rectangle,19,14,1,0,0,19,14,1,0,0,0,57,57,82,1,,,,,,,,
,,,,,,,,,,,,,FF,,,,,,,,0.5324,,,,,,,,,,,,,,,,,,,,,,61035d9ff98a80eac67779b7,61036632238f87866c3162fd,2021-07-29_21h39.17.031,Simcolourproject_2stim_asymm_v5,2020.2.10,Win32,60,61025ae37ef11b136ea224fe,,,,,,,,,1511,42,83,1,0,0,response1disk,,7,12,-5,1,0,0,rectangle,12,-5,1,0,0,12,-5,1,0,0,0,58,58,33,1,,,,,,,,
,,,,,,,,,,,,,FF,,,,,,,,0.599,,,,,,,,,,,,,,,,,,,,,,61035d9ff98a80eac67779b7,61036632238f87866c3162fd,2021-07-29_21h39.17.031,Simcolourproject_2stim_asymm_v5,2020.2.10,Win32,60,61025ae37ef11b136ea224fe,,,,,,,,,1832,50,70,1,0,0,response1disk,,7,5,4,1,0,0,rectangle,5,4,1,0,0,5,4,1,0,0,0,59,59,51,1,,,,,,,,
,,,,,,,,,,,,,FF,,,,,,,,0.5656,,,,,,,,,,,,,,,,,,,,,,61035d9ff98a80eac67779b7,61036632238f87866c3162fd,2021-07-29_21h39.17.031,Simcolourproject_2stim_asymm_v5,2020.2.10,Win32,60,61025ae37ef11b136ea224fe,,,,,,,,,1040,44,62,1,0,0,response1disk,,7,11,12,1,0,0,rectangle,11,12,1,0,0,11,12,1,0,0,0,60,60,34,1,,,,,,,,
,,,,,,,,,,,,,FF,,,,,,,,1.4317,,,,,,,,,,,,,,,,,,,,,,61035d9ff98a80eac67779b7,61036632238f87866c3162fd,2021-07-29_21h39.17.031,Simcolourproject_2stim_asymm_v5,2020.2.10,Win32,60,61025ae37ef11b136ea224fe,,,,,,,,,264,83,-29,1,0,0,response3disk,,5,16,-2,1,0,0,rectangle,16,-2,1,0,0,16,-2,1,0,0,0,61,61,89,1,,,,,,,,
,,,,,,,,,,,,,FF,,,,,,,,1.2145,,,,,,,,,,,,,,,,,,,,,,61035d9ff98a80eac67779b7,61036632238f87866c3162fd,2021-07-29_21h39.17.031,Simcolourproject_2stim_asymm_v5,2020.2.10,Win32,60,61025ae37ef11b136ea224fe,,,,,,,,,3211,94,44,1,0,0,response1disk,,6,17,0,1,0,0,rectangle,17,0,1,0,0,17,0,1,0,0,0,62,62,126,1,,,,,,,,
,,,,,,,,,,,,,FF,,,,,,,,1.3151,,,,,,,,,,,,,,,,,,,,,,61035d9ff98a80eac67779b7,61036632238f87866c3162fd,2021-07-29_21h39.17.031,Simcolourproject_2stim_asymm_v5,2020.2.10,Win32,60,61025ae37ef11b136ea224fe,,,,,,,,,3517,50,-95,1,0,0,response3disk,,4,2,0,1,0,0,rectangle,2,0,1,0,0,2,0,1,0,0,0,63,63,8,1,,,,,,,,
,,,,,,,,,,,,,FF,,,,,,,,1.065,,,,,,,,,,,,,,,,,,,,,,61035d9ff98a80eac67779b7,61036632238f87866c3162fd,2021-07-29_21h39.17.031,Simcolourproject_2stim_asymm_v5,2020.2.10,Win32,60,61025ae37ef11b136ea224fe,,,,,,,,,3479,51,-93,1,0,0,response3disk,,4,13,-1,1,0,0,rectangle,13,-1,1,0,0,13,-1,1,0,0,0,64,64,13,1,,,,,,,,
,,,,,,,,,,,,,FF,,,,,,,,0.6829,,,,,,,,,,,,,,,,,,,,,,61035d9ff98a80eac67779b7,61036632238f87866c3162fd,2021-07-29_21h39.17.031,Simcolourproject_2stim_asymm_v5,2020.2.10,Win32,60,61025ae37ef11b136ea224fe,,,,,,,,,2959,38,59,1,0,0,response1disk,,7,9,-2,1,0,0,rectangle,9,-2,1,0,0,9,-2,1,0,0,0,65,65,57,1,,,,,,,,
,,,,,,,,,,,,,FF,,,,,,,,0.9647,,,,,,,,,,,,,,,,,,,,,,61035d9ff98a80eac67779b7,61036632238f87866c3162fd,2021-07-29_21h39.17.031,Simcolourproject_2stim_asymm_v5,2020.2.10,Win32,60,61025ae37ef11b136ea224fe,,,,,,,,,3812,43,70,1,0,0,response1disk,,7,11,4,1,0,0,rectangle,11,4,1,0,0,11,4,1,0,0,0,66,66,61,1,,,,,,,,
,,,,,,,,,,,,,FF,,,,,,,,0.5498,,,,,,,,,,,,,,,,,,,,,,61035d9ff98a80eac67779b7,61036632238f87866c3162fd,2021-07-29_21h39.17.031,Simcolourproject_2stim_asymm_v5,2020.2.10,Win32,60,61025ae37ef11b136ea224fe,,,,,,,,,2916,44,66,1,0,0,response1disk,,7,8,0,1,0,0,rectangle,8,0,1,0,0,8,0,1,0,0,0,67,67,41,1,,,,,,,,
,,,,,,,,,,,,,FF,,,,,,,,0.4654,,,,,,,,,,,,,,,,,,,,,,61035d9ff98a80eac67779b7,61036632238f87866c3162fd,2021-07-29_21h39.17.031,Simcolourproject_2stim_asymm_v5,2020.2.10,Win32,60,61025ae37ef11b136ea224fe,,,,,,,,,1626,43,69,1,0,0,response1disk,,7,2,-4,1,0,0,rectangle,2,-4,1,0,0,2,-4,1,0,0,0,68,68,108,1,,,,,,,,
,,,,,,,,,,,,,FF,,,,,,,,0.4149,,,,,,,,,,,,,,,,,,,,,,61035d9ff98a80eac67779b7,61036632238f87866c3162fd,2021-07-29_21h39.17.031,Simcolourproject_2stim_asymm_v5,2020.2.10,Win32,60,61025ae37ef11b136ea224fe,,,,,,,,,2867,54,65,1,0,0,response1disk,,7,10,-2,1,0,0,rectangle,10,-2,1,0,0,10,-2,1,0,0,0,69,69,112,1,,,,,,,,
,,,,,,,,,,,,,FF,,,,,,,,0.4326,,,,,,,,,,,,,,,,,,,,,,61035d9ff98a80eac67779b7,61036632238f87866c3162fd,2021-07-29_21h39.17.031,Simcolourproject_2stim_asymm_v5,2020.2.10,Win32,60,61025ae37ef11b136ea224fe,,,,,,,,,2343,49,62,1,0,0,response1disk,,7,10,-1,1,0,0,rectangle,10,-1,1,0,0,10,-1,1,0,0,0,70,70,72,1,,,,,,,,
,,,,,,,,,,,,,FF,,,,,,,,0.4325,,,,,,,,,,,,,,,,,,,,,,61035d9ff98a80eac67779b7,61036632238f87866c3162fd,2021-07-29_21h39.17.031,Simcolourproject_2stim_asymm_v5,2020.2.10,Win32,60,61025ae37ef11b136ea224fe,,,,,,,,,4073,47,76,1,0,0,response1disk,,7,3,-10,1,0,0,rectangle,3,-10,1,0,0,3,-10,1,0,0,0,71,71,144,1,,,,,,,,
,,,,,,,,,,,,,FF,,,,,,,,0.8481,,,,,,,,,,,,,,,,,,,,,,61035d9ff98a80eac67779b7,61036632238f87866c3162fd,2021-07-29_21h39.17.031,Simcolourproject_2stim_asymm_v5,2020.2.10,Win32,60,61025ae37ef11b136ea224fe,,,,,,,,,459,89,42,1,0,0,response1disk,,6,15,-9,1,0,0,rectangle,15,-9,1,0,0,15,-9,1,0,0,0,72,72,115,1,,,,,,,,
,,,,,,,,,,,,,FF,,,,,,,,1.0318,,,,,,,,,,,,,,,,,,,,,,61035d9ff98a80eac67779b7,61036632238f87866c3162fd,2021-07-29_21h39.17.031,Simcolourproject_2stim_asymm_v5,2020.2.10,Win32,60,61025ae37ef11b136ea224fe,,,,,,,,,1291,90,-41,1,0,0,response3disk,,5,8,-1,1,0,0,rectangle,8,-1,1,0,0,8,-1,1,0,0,0,73,73,47,1,,,,,,,,
,,,,,,,,,,,,,FF,,,,,,,,0.549,,,,,,,,,,,,,,,,,,,,,,61035d9ff98a80eac67779b7,61036632238f87866c3162fd,2021-07-29_21h39.17.031,Simcolourproject_2stim_asymm_v5,2020.2.10,Win32,60,61025ae37ef11b136ea224fe,,,,,,,,,4325,43,68,1,0,0,response1disk,,7,2,-5,1,0,0,rectangle,2,-5,1,0,0,2,-5,1,0,0,0,74,74,52,1,,,,,,,,
,,,,,,,,,,,,,FF,,,,,,,,0.5488,,,,,,,,,,,,,,,,,,,,,,61035d9ff98a80eac67779b7,61036632238f87866c3162fd,2021-07-29_21h39.17.031,Simcolourproject_2stim_asymm_v5,2020.2.10,Win32,60,61025ae37ef11b136ea224fe,,,,,,,,,1787,44,66,1,0,0,response1disk,,7,-1,-2,1,0,0,rectangle,-1,-2,1,0,0,-1,-2,1,0,0,0,75,75,94,1,,,,,,,,
,,,,,,,,,,,,,FF,,,,,,,,0.4982,,,,,,,,,,,,,,,,,,,,,,61035d9ff98a80eac67779b7,61036632238f87866c3162fd,2021-07-29_21h39.17.031,Simcolourproject_2stim_asymm_v5,2020.2.10,Win32,60,61025ae37ef11b136ea224fe,,,,,,,,,2279,42,71,1,0,0,response1disk,,7,2,0,1,0,0,rectangle,2,0,1,0,0,2,0,1,0,0,0,76,76,145,1,,,,,,,,
,,,,,,,,,,,,,FF,,,,,,,,0.4989,,,,,,,,,,,,,,,,,,,,,,61035d9ff98a80eac67779b7,61036632238f87866c3162fd,2021-07-29_21h39.17.031,Simcolourproject_2stim_asymm_v5,2020.2.10,Win32,60,61025ae37ef11b136ea224fe,,,,,,,,,3378,49,69,1,0,0,response1disk,,7,13,5,1,0,0,rectangle,13,5,1,0,0,13,5,1,0,0,0,77,77,70,1,,,,,,,,
,,,,,,,,,,,,,FF,,,,,,,,0.6825,,,,,,,,,,,,,,,,,,,,,,61035d9ff98a80eac67779b7,61036632238f87866c3162fd,2021-07-29_21h39.17.031,Simcolourproject_2stim_asymm_v5,2020.2.10,Win32,60,61025ae37ef11b136ea224fe,,,,,,,,,453,56,81,1,0,0,response1disk,,7,9,2,1,0,0,rectangle,9,2,1,0,0,9,2,1,0,0,0,78,78,100,1,,,,,,,,
,,,,,,,,,,,,,FF,,,,,,,,0.3335,,,,,,,,,,,,,,,,,,,,,,61035d9ff98a80eac67779b7,61036632238f87866c3162fd,2021-07-29_21h39.17.031,Simcolourproject_2stim_asymm_v5,2020.2.10,Win32,60,61025ae37ef11b136ea224fe,,,,,,,,,66,44,65,1,0,0,response1disk,,7,12,-3,1,0,0,rectangle,12,-3,1,0,0,12,-3,1,0,0,0,79,79,27,1,,,,,,,,
,,,,,,,,,,,,,FF,,,,,,,,0.3996,,,,,,,,,,,,,,,,,,,,,,61035d9ff98a80eac67779b7,61036632238f87866c3162fd,2021-07-29_21h39.17.031,Simcolourproject_2stim_asymm_v5,2020.2.10,Win32,60,61025ae37ef11b136ea224fe,,,,,,,,,2312,46,67,1,0,0,response1disk,,7,15,0,1,0,0,rectangle,15,0,1,0,0,15,0,1,0,0,0,80,80,93,1,,,,,,,,
,,,,,,,,,,,,,FF,,,,,,,,0.3487,,,,,,,,,,,,,,,,,,,,,,61035d9ff98a80eac67779b7,61036632238f87866c3162fd,2021-07-29_21h39.17.031,Simcolourproject_2stim_asymm_v5,2020.2.10,Win32,60,61025ae37ef11b136ea224fe,,,,,,,,,1017,48,70,1,0,0,response1disk,,7,12,7,1,0,0,rectangle,12,7,1,0,0,12,7,1,0,0,0,81,81,153,1,,,,,,,,
,,,,,,,,,,,,,FF,,,,,,,,0.3497,,,,,,,,,,,,,,,,,,,,,,61035d9ff98a80eac67779b7,61036632238f87866c3162fd,2021-07-29_21h39.17.031,Simcolourproject_2stim_asymm_v5,2020.2.10,Win32,60,61025ae37ef11b136ea224fe,,,,,,,,,629,53,60,1,0,0,response1disk,,7,17,2,1,0,0,rectangle,17,2,1,0,0,17,2,1,0,0,0,82,82,62,1,,,,,,,,
,,,,,,,,,,,,,FF,,,,,,,,0.4158,,,,,,,,,,,,,,,,,,,,,,61035d9ff98a80eac67779b7,61036632238f87866c3162fd,2021-07-29_21h39.17.031,Simcolourproject_2stim_asymm_v5,2020.2.10,Win32,60,61025ae37ef11b136ea224fe,,,,,,,,,2043,50,60,1,0,0,response1disk,,7,9,-10,1,0,0,rectangle,9,-10,1,0,0,9,-10,1,0,0,0,83,83,45,1,,,,,,,,
,,,,,,,,,,,,,FF,,,,,,,,1.0648,,,,,,,,,,,,,,,,,,,,,,61035d9ff98a80eac67779b7,61036632238f87866c3162fd,2021-07-29_21h39.17.031,Simcolourproject_2stim_asymm_v5,2020.2.10,Win32,60,61025ae37ef11b136ea224fe,,,,,,,,,2297,-32,-89,1,0,0,response5disk,,3,10,0,1,0,0,rectangle,10,0,1,0,0,10,0,1,0,0,0,84,84,18,1,,,,,,,,
,,,,,,,,,,,,,FF,,,,,,,,0.4827,,,,,,,,,,,,,,,,,,,,,,61035d9ff98a80eac67779b7,61036632238f87866c3162fd,2021-07-29_21h39.17.031,Simcolourproject_2stim_asymm_v5,2020.2.10,Win32,60,61025ae37ef11b136ea224fe,,,,,,,,,3145,43,59,1,0,0,response1disk,,7,-1,-6,1,0,0,rectangle,-1,-6,1,0,0,-1,-6,1,0,0,0,85,85,37,1,,,,,,,,
,,,,,,,,,,,,,FF,,,,,,,,0.4488,,,,,,,,,,,,,,,,,,,,,,61035d9ff98a80eac67779b7,61036632238f87866c3162fd,2021-07-29_21h39.17.031,Simcolourproject_2stim_asymm_v5,2020.2.10,Win32,60,61025ae37ef11b136ea224fe,,,,,,,,,3127,44,78,1,0,0,response1disk,,7,5,7,1,0,0,rectangle,5,7,1,0,0,5,7,1,0,0,0,86,86,102,1,,,,,,,,
,,,,,,,,,,,,,FF,,,,,,,,0.2822,,,,,,,,,,,,,,,,,,,,,,61035d9ff98a80eac67779b7,61036632238f87866c3162fd,2021-07-29_21h39.17.031,Simcolourproject_2stim_asymm_v5,2020.2.10,Win32,60,61025ae37ef11b136ea224fe,,,,,,,,,506,35,57,1,0,0,response1disk,,7,20,10,1,0,0,rectangle,20,10,1,0,0,20,10,1,0,0,0,87,87,60,1,,,,,,,,
,,,,,,,,,,,,,FF,,,,,,,,0.9161,,,,,,,,,,,,,,,,,,,,,,61035d9ff98a80eac67779b7,61036632238f87866c3162fd,2021-07-29_21h39.17.031,Simcolourproject_2stim_asymm_v5,2020.2.10,Win32,60,61025ae37ef11b136ea224fe,,,,,,,,,3486,42,74,1,0,0,response1disk,,7,6,6,1,0,0,rectangle,6,6,1,0,0,6,6,1,0,0,0,88,88,138,1,,,,,,,,
,,,,,,,,,,,,,FF,,,,,,,,0.5316,,,,,,,,,,,,,,,,,,,,,,61035d9ff98a80eac67779b7,61036632238f87866c3162fd,2021-07-29_21h39.17.031,Simcolourproject_2stim_asymm_v5,2020.2.10,Win32,60,61025ae37ef11b136ea224fe,,,,,,,,,2594,60,83,1,0,0,response1disk,,7,7,-7,1,0,0,rectangle,7,-7,1,0,0,7,-7,1,0,0,0,89,89,135,1,,,,,,,,
,,,,,,,,,,,,,FF,,,,,,,,0.9154,,,,,,,,,,,,,,,,,,,,,,61035d9ff98a80eac67779b7,61036632238f87866c3162fd,2021-07-29_21h39.17.031,Simcolourproject_2stim_asymm_v5,2020.2.10,Win32,60,61025ae37ef11b136ea224fe,,,,,,,,,2168,86,28,1,0,0,response1disk,,6,31,6,1,0,0,rectangle,31,6,1,0,0,31,6,1,0,0,0,90,90,75,1,,,,,,,,
,,,,,,,,,,,,,FF,,,,,,,,0.9319,,,,,,,,,,,,,,,,,,,,,,61035d9ff98a80eac67779b7,61036632238f87866c3162fd,2021-07-29_21h39.17.031,Simcolourproject_2stim_asymm_v5,2020.2.10,Win32,60,61025ae37ef11b136ea224fe,,,,,,,,,538,53,75,1,0,0,response1disk,,7,8,-5,1,0,0,rectangle,8,-5,1,0,0,8,-5,1,0,0,0,91,91,98,1,,,,,,,,
,,,,,,,,,,,,,FF,,,,,,,,0.3825,,,,,,,,,,,,,,,,,,,,,,61035d9ff98a80eac67779b7,61036632238f87866c3162fd,2021-07-29_21h39.17.031,Simcolourproject_2stim_asymm_v5,2020.2.10,Win32,60,61025ae37ef11b136ea224fe,,,,,,,,,3131,40,67,1,0,0,response1disk,,7,3,-12,1,0,0,rectangle,3,-12,1,0,0,3,-12,1,0,0,0,92,92,40,1,,,,,,,,
,,,,,,,,,,,,,FF,,,,,,,,0.3829,,,,,,,,,,,,,,,,,,,,,,61035d9ff98a80eac67779b7,61036632238f87866c3162fd,2021-07-29_21h39.17.031,Simcolourproject_2stim_asymm_v5,2020.2.10,Win32,60,61025ae37ef11b136ea224fe,,,,,,,,,3956,39,62,1,0,0,response1disk,,7,12,-8,1,0,0,rectangle,12,-8,1,0,0,12,-8,1,0,0,0,93,93,5,1,,,,,,,,
,,,,,,,,,,,,,FF,,,,,,,,0.9647,,,,,,,,,,,,,,,,,,,,,,61035d9ff98a80eac67779b7,61036632238f87866c3162fd,2021-07-29_21h39.17.031,Simcolourproject_2stim_asymm_v5,2020.2.10,Win32,60,61025ae37ef11b136ea224fe,,,,,,,,,3284,78,35,1,0,0,response1disk,,6,8,-5,1,0,0,rectangle,8,-5,1,0,0,8,-5,1,0,0,0,94,94,78,1,,,,,,,,
,,,,,,,,,,,,,FF,,,,,,,,0.7322,,,,,,,,,,,,,,,,,,,,,,61035d9ff98a80eac67779b7,61036632238f87866c3162fd,2021-07-29_21h39.17.031,Simcolourproject_2stim_asymm_v5,2020.2.10,Win32,60,61025ae37ef11b136ea224fe,,,,,,,,,990,41,70,1,0,0,response1disk,,7,9,-3,1,0,0,rectangle,9,-3,1,0,0,9,-3,1,0,0,0,95,95,29,1,,,,,,,,
,,,,,,,,,,,,,FF,,,,,,,,0.3158,,,,,,,,,,,,,,,,,,,,,,61035d9ff98a80eac67779b7,61036632238f87866c3162fd,2021-07-29_21h39.17.031,Simcolourproject_2stim_asymm_v5,2020.2.10,Win32,60,61025ae37ef11b136ea224fe,,,,,,,,,1557,28,67,1,0,0,response1disk,,7,5,-9,1,0,0,rectangle,5,-9,1,0,0,5,-9,1,0,0,0,96,96,118,1,,,,,,,,
,,,,,,,,,,,,,FF,,,,,,,,0.299,,,,,,,,,,,,,,,,,,,,,,61035d9ff98a80eac67779b7,61036632238f87866c3162fd,2021-07-29_21h39.17.031,Simcolourproject_2stim_asymm_v5,2020.2.10,Win32,60,61025ae37ef11b136ea224fe,,,,,,,,,4128,46,72,1,0,0,response1disk,,7,24,-5,1,0,0,rectangle,24,-5,1,0,0,24,-5,1,0,0,0,97,97,103,1,,,,,,,,
,,,,,,,,,,,,,FF,,,,,,,,0.5319,,,,,,,,,,,,,,,,,,,,,,61035d9ff98a80eac67779b7,61036632238f87866c3162fd,2021-07-29_21h39.17.031,Simcolourproject_2stim_asymm_v5,2020.2.10,Win32,60,61025ae37ef11b136ea224fe,,,,,,,,,784,45,98,1,0,0,response1disk,,7,29,15,1,0,0,rectangle,29,15,1,0,0,29,15,1,0,0,0,98,98,96,1,,,,,,,,
,,,,,,,,,,,,,FF,,,,,,,,0.7828,,,,,,,,,,,,,,,,,,,,,,61035d9ff98a80eac67779b7,61036632238f87866c3162fd,2021-07-29_21h39.17.031,Simcolourproject_2stim_asymm_v5,2020.2.10,Win32,60,61025ae37ef11b136ea224fe,,,,,,,,,1732,70,96,1,0,0,response1disk,,7,13,-14,1,0,0,rectangle,13,-14,1,0,0,13,-14,1,0,0,0,99,99,85,1,,,,,,,,
,,,,,,,,,,,,,FF,,,,,,,,0.5163,,,,,,,,,,,,,,,,,,,,,,61035d9ff98a80eac67779b7,61036632238f87866c3162fd,2021-07-29_21h39.17.031,Simcolourproject_2stim_asymm_v5,2020.2.10,Win32,60,61025ae37ef11b136ea224fe,,,,,,,,,3765,52,78,1,0,0,response1disk,,7,-8,2,1,0,0,rectangle,-8,2,1,0,0,-8,2,1,0,0,0,100,100,3,1,,,,,,,,
,,,,,,,,,,,,,FF,,,,,,,,0.4982,,,,,,,,,,,,,,,,,,,,,,61035d9ff98a80eac67779b7,61036632238f87866c3162fd,2021-07-29_21h39.17.031,Simcolourproject_2stim_asymm_v5,2020.2.10,Win32,60,61025ae37ef11b136ea224fe,,,,,,,,,1804,47,78,1,0,0,response1disk,,7,-4,-10,1,0,0,rectangle,-4,-10,1,0,0,-4,-10,1,0,0,0,101,101,125,1,,,,,,,,
,,,,,,,,,,,,,FF,,,,,,,,0.7322,,,,,,,,,,,,,,,,,,,,,,61035d9ff98a80eac67779b7,61036632238f87866c3162fd,2021-07-29_21h39.17.031,Simcolourproject_2stim_asymm_v5,2020.2.10,Win32,60,61025ae37ef11b136ea224fe,,,,,,,,,3651,53,72,1,0,0,response1disk,,7,9,-10,1,0,0,rectangle,9,-10,1,0,0,9,-10,1,0,0,0,102,102,46,1,,,,,,,,
,,,,,,,,,,,,,FF,,,,,,,,0.8159,,,,,,,,,,,,,,,,,,,,,,61035d9ff98a80eac67779b7,61036632238f87866c3162fd,2021-07-29_21h39.17.031,Simcolourproject_2stim_asymm_v5,2020.2.10,Win32,60,61025ae37ef11b136ea224fe,,,,,,,,,1158,40,65,1,0,0,response1disk,,7,5,-10,1,0,0,rectangle,5,-10,1,0,0,5,-10,1,0,0,0,103,103,50,1,,,,,,,,
,,,,,,,,,,,,,FF,,,,,,,,0.3665,,,,,,,,,,,,,,,,,,,,,,61035d9ff98a80eac67779b7,61036632238f87866c3162fd,2021-07-29_21h39.17.031,Simcolourproject_2stim_asymm_v5,2020.2.10,Win32,60,61025ae37ef11b136ea224fe,,,,,,,,,2214,54,84,1,0,0,response1disk,,7,7,-3,1,0,0,rectangle,7,-3,1,0,0,7,-3,1,0,0,0,104,104,87,1,,,,,,,,
,,,,,,,,,,,,,FF,,,,,,,,0.7824,,,,,,,,,,,,,,,,,,,,,,61035d9ff98a80eac67779b7,61036632238f87866c3162fd,2021-07-29_21h39.17.031,Simcolourproject_2stim_asymm_v5,2020.2.10,Win32,60,61025ae37ef11b136ea224fe,,,,,,,,,2664,56,74,1,0,0,response1disk,,7,19,10,1,0,0,rectangle,19,10,1,0,0,19,10,1,0,0,0,105,105,97,1,,,,,,,,
,,,,,,,,,,,,,FF,,,,,,,,0.666,,,,,,,,,,,,,,,,,,,,,,61035d9ff98a80eac67779b7,61036632238f87866c3162fd,2021-07-29_21h39.17.031,Simcolourproject_2stim_asymm_v5,2020.2.10,Win32,60,61025ae37ef11b136ea224fe,,,,,,,,,3065,43,74,1,0,0,response1disk,,7,4,-2,1,0,0,rectangle,4,-2,1,0,0,4,-2,1,0,0,0,106,106,81,1,,,,,,,,
,,,,,,,,,,,,,FF,,,,,,,,1.0488,,,,,,,,,,,,,,,,,,,,,,61035d9ff98a80eac67779b7,61036632238f87866c3162fd,2021-07-29_21h39.17.031,Simcolourproject_2stim_asymm_v5,2020.2.10,Win32,60,61025ae37ef11b136ea224fe,,,,,,,,,3355,34,69,1,0,0,response1disk,,7,3,-1,1,0,0,rectangle,3,-1,1,0,0,3,-1,1,0,0,0,107,107,64,1,,,,,,,,
,,,,,,,,,,,,,FF,,,,,,,,0.5985,,,,,,,,,,,,,,,,,,,,,,61035d9ff98a80eac67779b7,61036632238f87866c3162fd,2021-07-29_21h39.17.031,Simcolourproject_2stim_asymm_v5,2020.2.10,Win32,60,61025ae37ef11b136ea224fe,,,,,,,,,1429,53,51,1,0,0,response1disk,,6,15,-8,1,0,0,rectangle,15,-8,1,0,0,15,-8,1,0,0,0,108,108,25,1,,,,,,,,
,,,,,,,,,,,,,FF,,,,,,,,0.7153,,,,,,,,,,,,,,,,,,,,,,61035d9ff98a80eac67779b7,61036632238f87866c3162fd,2021-07-29_21h39.17.031,Simcolourproject_2stim_asymm_v5,2020.2.10,Win32,60,61025ae37ef11b136ea224fe,,,,,,,,,616,81,44,1,0,0,response1disk,,6,12,-5,1,0,0,rectangle,12,-5,1,0,0,12,-5,1,0,0,0,109,109,17,1,,,,,,,,
,,,,,,,,,,,,,FF,,,,,,,,0.5824,,,,,,,,,,,,,,,,,,,,,,61035d9ff98a80eac67779b7,61036632238f87866c3162fd,2021-07-29_21h39.17.031,Simcolourproject_2stim_asymm_v5,2020.2.10,Win32,60,61025ae37ef11b136ea224fe,,,,,,,,,57,46,70,1,0,0,response1disk,,7,3,1,1,0,0,rectangle,3,1,1,0,0,3,1,1,0,0,0,110,110,43,1,,,,,,,,
,,,,,,,,,,,,,FF,,,,,,,,0.865,,,,,,,,,,,,,,,,,,,,,,61035d9ff98a80eac67779b7,61036632238f87866c3162fd,2021-07-29_21h39.17.031,Simcolourproject_2stim_asymm_v5,2020.2.10,Win32,60,61025ae37ef11b136ea224fe,,,,,,,,,1079,38,73,1,0,0,response1disk,,7,-1,1,1,0,0,rectangle,-1,1,1,0,0,-1,1,1,0,0,0,111,111,122,1,,,,,,,,
,,,,,,,,,,,,,FF,,,,,,,,0.4324,,,,,,,,,,,,,,,,,,,,,,61035d9ff98a80eac67779b7,61036632238f87866c3162fd,2021-07-29_21h39.17.031,Simcolourproject_2stim_asymm_v5,2020.2.10,Win32,60,61025ae37ef11b136ea224fe,,,,,,,,,3496,30,66,1,0,0,response1disk,,7,-3,-7,1,0,0,rectangle,48,77,1,0,0,2,8,1,0,0,0,112,112,22,1,,response1disk_3,TRUE,7,7,"[165,193,202,247,158,308,280,113,288,183,244,314,267,169,159,275,22,165,221,137]",1.8633,rectangle
,,,,,,,,,,,,,FF,,,,,,,,7.8252,,,,,,,,,,,,,,,,,,,,,,61035d9ff98a80eac67779b7,61036632238f87866c3162fd,2021-07-29_21h39.17.031,Simcolourproject_2stim_asymm_v5,2020.2.10,Win32,60,61025ae37ef11b136ea224fe,,,,,,,,,1389,51,90,1,0,0,response1disk,,7,22,1,1,0,0,rectangle,22,1,1,0,0,22,1,1,0,0,0,113,113,69,1,,,,,,,,
,,,,,,,,,,,,,FF,,,,,,,,1.6483,,,,,,,,,,,,,,,,,,,,,,61035d9ff98a80eac67779b7,61036632238f87866c3162fd,2021-07-29_21h39.17.031,Simcolourproject_2stim_asymm_v5,2020.2.10,Win32,60,61025ae37ef11b136ea224fe,,,,,,,,,2071,58,82,1,0,0,response1disk,,7,5,-1,1,0,0,rectangle,5,-1,1,0,0,5,-1,1,0,0,0,114,114,91,1,,,,,,,,
,,,,,,,,,,,,,FF,,,,,,,,0.416,,,,,,,,,,,,,,,,,,,,,,61035d9ff98a80eac67779b7,61036632238f87866c3162fd,2021-07-29_21h39.17.031,Simcolourproject_2stim_asymm_v5,2020.2.10,Win32,60,61025ae37ef11b136ea224fe,,,,,,,,,2225,59,81,1,0,0,response1disk,,7,21,8,1,0,0,rectangle,21,8,1,0,0,21,8,1,0,0,0,115,115,80,1,,,,,,,,
,,,,,,,,,,,,,FF,,,,,,,,0.2845,,,,,,,,,,,,,,,,,,,,,,61035d9ff98a80eac67779b7,61036632238f87866c3162fd,2021-07-29_21h39.17.031,Simcolourproject_2stim_asymm_v5,2020.2.10,Win32,60,61025ae37ef11b136ea224fe,,,,,,,,,484,65,90,1,0,0,response1disk,,7,-1,-11,1,0,0,rectangle,-1,-11,1,0,0,-1,-11,1,0,0,0,116,116,149,1,,,,,,,,
,,,,,,,,,,,,,FF,,,,,,,,1.8334,,,,,,,,,,,,,,,,,,,,,,61035d9ff98a80eac67779b7,61036632238f87866c3162fd,2021-07-29_21h39.17.031,Simcolourproject_2stim_asymm_v5,2020.2.10,Win32,60,61025ae37ef11b136ea224fe,,,,,,,,,635,84,-50,1,0,0,response3disk,,5,15,1,1,0,0,rectangle,15,1,1,0,0,15,1,1,0,0,0,117,117,32,1,,,,,,,,
,,,,,,,,,,,,,FF,,,,,,,,1.578,,,,,,,,,,,,,,,,,,,,,,61035d9ff98a80eac67779b7,61036632238f87866c3162fd,2021-07-29_21h39.17.031,Simcolourproject_2stim_asymm_v5,2020.2.10,Win32,60,61025ae37ef11b136ea224fe,,,,,,,,,1674,101,-28,1,0,0,response3disk,,5,11,1,1,0,0,rectangle,11,1,1,0,0,11,1,1,0,0,0,118,118,99,1,,,,,,,,
,,,,,,,,,,,,,FF,,,,,,,,1.1515,,,,,,,,,,,,,,,,,,,,,,61035d9ff98a80eac67779b7,61036632238f87866c3162fd,2021-07-29_21h39.17.031,Simcolourproject_2stim_asymm_v5,2020.2.10,Win32,60,61025ae37ef11b136ea224fe,,,,,,,,,3392,50,-79,1,0,0,response3disk,,4,9,6,1,0,0,rectangle,9,6,1,0,0,9,6,1,0,0,0,119,119,35,1,,,,,,,,
,,,,,,,,,,,,,FF,,,,,,,,1.3635,,,,,,,,,,,,,,,,,,,,,,61035d9ff98a80eac67779b7,61036632238f87866c3162fd,2021-07-29_21h39.17.031,Simcolourproject_2stim_asymm_v5,2020.2.10,Win32,60,61025ae37ef11b136ea224fe,,,,,,,,,3929,48,77,1,0,0,response1disk,,7,4,-3,1,0,0,rectangle,4,-3,1,0,0,4,-3,1,0,0,0,120,120,19,1,,,,,,,,
,,,,,,,,,,,,,FF,,,,,,,,0.3828,,,,,,,,,,,,,,,,,,,,,,61035d9ff98a80eac67779b7,61036632238f87866c3162fd,2021-07-29_21h39.17.031,Simcolourproject_2stim_asymm_v5,2020.2.10,Win32,60,61025ae37ef11b136ea224fe,,,,,,,,,667,28,66,1,0,0,response1disk,,7,11,9,1,0,0,rectangle,11,9,1,0,0,11,9,1,0,0,0,121,121,111,1,,,,,,,,
,,,,,,,,,,,,,FF,,,,,,,,0.4327,,,,,,,,,,,,,,,,,,,,,,61035d9ff98a80eac67779b7,61036632238f87866c3162fd,2021-07-29_21h39.17.031,Simcolourproject_2stim_asymm_v5,2020.2.10,Win32,60,61025ae37ef11b136ea224fe,,,,,,,,,841,38,75,1,0,0,response1disk,,7,9,-4,1,0,0,rectangle,9,-4,1,0,0,9,-4,1,0,0,0,122,122,15,1,,,,,,,,
,,,,,,,,,,,,,FF,,,,,,,,1.3339,,,,,,,,,,,,,,,,,,,,,,61035d9ff98a80eac67779b7,61036632238f87866c3162fd,2021-07-29_21h39.17.031,Simcolourproject_2stim_asymm_v5,2020.2.10,Win32,60,61025ae37ef11b136ea224fe,,,,,,,,,3558,86,-59,1,0,0,response3disk,,5,21,2,1,0,0,rectangle,21,2,1,0,0,21,2,1,0,0,0,123,123,53,1,,,,,,,,
,,,,,,,,,,,,,FF,,,,,,,,0.5152,,,,,,,,,,,,,,,,,,,,,,61035d9ff98a80eac67779b7,61036632238f87866c3162fd,2021-07-29_21h39.17.031,Simcolourproject_2stim_asymm_v5,2020.2.10,Win32,60,61025ae37ef11b136ea224fe,,,,,,,,,2414,39,65,1,0,0,response1disk,,7,9,-14,1,0,0,rectangle,9,-14,1,0,0,9,-14,1,0,0,0,124,124,83,1,,,,,,,,
,,,,,,,,,,,,,FF,,,,,,,,0.9683,,,,,,,,,,,,,,,,,,,,,,61035d9ff98a80eac67779b7,61036632238f87866c3162fd,2021-07-29_21h39.17.031,Simcolourproject_2stim_asymm_v5,2020.2.10,Win32,60,61025ae37ef11b136ea224fe,,,,,,,,,4027,60,-95,1,0,0,response3disk,,4,18,10,1,0,0,rectangle,18,10,1,0,0,18,10,1,0,0,0,125,125,120,1,,,,,,,,
,,,,,,,,,,,,,FF,,,,,,,,0.4364,,,,,,,,,,,,,,,,,,,,,,61035d9ff98a80eac67779b7,61036632238f87866c3162fd,2021-07-29_21h39.17.031,Simcolourproject_2stim_asymm_v5,2020.2.10,Win32,60,61025ae37ef11b136ea224fe,,,,,,,,,1933,43,74,1,0,0,response1disk,,7,5,-3,1,0,0,rectangle,5,-3,1,0,0,5,-3,1,0,0,0,126,126,4,1,,,,,,,,
,,,,,,,,,,,,,FF,,,,,,,,0.945,,,,,,,,,,,,,,,,,,,,,,61035d9ff98a80eac67779b7,61036632238f87866c3162fd,2021-07-29_21h39.17.031,Simcolourproject_2stim_asymm_v5,2020.2.10,Win32,60,61025ae37ef11b136ea224fe,,,,,,,,,4281,56,-86,1,0,0,response3disk,,4,15,4,1,0,0,rectangle,15,4,1,0,0,15,4,1,0,0,0,127,127,107,1,,,,,,,,
,,,,,,,,,,,,,FF,,,,,,,,0.8651,,,,,,,,,,,,,,,,,,,,,,61035d9ff98a80eac67779b7,61036632238f87866c3162fd,2021-07-29_21h39.17.031,Simcolourproject_2stim_asymm_v5,2020.2.10,Win32,60,61025ae37ef11b136ea224fe,,,,,,,,,2029,89,-52,1,0,0,response3disk,,5,18,15,1,0,0,rectangle,18,15,1,0,0,18,15,1,0,0,0,128,128,123,1,,,,,,,,
,,,,,,,,,,,,,FF,,,,,,,,0.5487,,,,,,,,,,,,,,,,,,,,,,61035d9ff98a80eac67779b7,61036632238f87866c3162fd,2021-07-29_21h39.17.031,Simcolourproject_2stim_asymm_v5,2020.2.10,Win32,60,61025ae37ef11b136ea224fe,,,,,,,,,1701,44,60,1,0,0,response1disk,,7,17,-10,1,0,0,rectangle,17,-10,1,0,0,17,-10,1,0,0,0,129,129,56,1,,,,,,,,
,,,,,,,,,,,,,FF,,,,,,,,0.4661,,,,,,,,,,,,,,,,,,,,,,61035d9ff98a80eac67779b7,61036632238f87866c3162fd,2021-07-29_21h39.17.031,Simcolourproject_2stim_asymm_v5,2020.2.10,Win32,60,61025ae37ef11b136ea224fe,,,,,,,,,228,51,62,1,0,0,response1disk,,7,23,0,1,0,0,rectangle,23,0,1,0,0,23,0,1,0,0,0,130,130,20,1,,,,,,,,
,,,,,,,,,,,,,FF,,,,,,,,0.3822,,,,,,,,,,,,,,,,,,,,,,61035d9ff98a80eac67779b7,61036632238f87866c3162fd,2021-07-29_21h39.17.031,Simcolourproject_2stim_asymm_v5,2020.2.10,Win32,60,61025ae37ef11b136ea224fe,,,,,,,,,2392,46,65,1,0,0,response1disk,,7,15,-7,1,0,0,rectangle,15,-7,1,0,0,15,-7,1,0,0,0,131,131,109,1,,,,,,,,
,,,,,,,,,,,,,FF,,,,,,,,0.3162,,,,,,,,,,,,,,,,,,,,,,61035d9ff98a80eac67779b7,61036632238f87866c3162fd,2021-07-29_21h39.17.031,Simcolourproject_2stim_asymm_v5,2020.2.10,Win32,60,61025ae37ef11b136ea224fe,,,,,,,,,1859,45,62,1,0,0,response1disk,,7,16,2,1,0,0,rectangle,16,2,1,0,0,16,2,1,0,0,0,132,132,143,1,,,,,,,,
,,,,,,,,,,,,,FF,,,,,,,,0.3489,,,,,,,,,,,,,,,,,,,,,,61035d9ff98a80eac67779b7,61036632238f87866c3162fd,2021-07-29_21h39.17.031,Simcolourproject_2stim_asymm_v5,2020.2.10,Win32,60,61025ae37ef11b136ea224fe,,,,,,,,,848,54,81,1,0,0,response1disk,,7,19,7,1,0,0,rectangle,19,7,1,0,0,19,7,1,0,0,0,133,133,84,1,,,,,,,,
,,,,,,,,,,,,,FF,,,,,,,,0.3002,,,,,,,,,,,,,,,,,,,,,,61035d9ff98a80eac67779b7,61036632238f87866c3162fd,2021-07-29_21h39.17.031,Simcolourproject_2stim_asymm_v5,2020.2.10,Win32,60,61025ae37ef11b136ea224fe,,,,,,,,,2465,57,88,1,0,0,response1disk,,7,18,11,1,0,0,rectangle,18,11,1,0,0,18,11,1,0,0,0,134,134,117,1,,,,,,,,
,,,,,,,,,,,,,FF,,,,,,,,0.3492,,,,,,,,,,,,,,,,,,,,,,61035d9ff98a80eac67779b7,61036632238f87866c3162fd,2021-07-29_21h39.17.031,Simcolourproject_2stim_asymm_v5,2020.2.10,Win32,60,61025ae37ef11b136ea224fe,,,,,,,,,859,56,78,1,0,0,response1disk,,7,12,-1,1,0,0,rectangle,12,-1,1,0,0,12,-1,1,0,0,0,135,135,142,1,,,,,,,,
,,,,,,,,,,,,,FF,,,,,,,,0.5151,,,,,,,,,,,,,,,,,,,,,,61035d9ff98a80eac67779b7,61036632238f87866c3162fd,2021-07-29_21h39.17.031,Simcolourproject_2stim_asymm_v5,2020.2.10,Win32,60,61025ae37ef11b136ea224fe,,,,,,,,,2241,55,62,1,0,0,response1disk,,7,6,-8,1,0,0,rectangle,91,-28,1,0,0,12,4,1,0,0,0,136,136,134,1,,response3disk_3,TRUE,5,5,"[165,193,202,247,158,308,280,113,288,183,244,314,267,169,159,275,22,165,221,137]",1.3473,rectangle
,,,,,,,,,,,,,FF,,,,,,,,1.2152,,,,,,,,,,,,,,,,,,,,,,61035d9ff98a80eac67779b7,61036632238f87866c3162fd,2021-07-29_21h39.17.031,Simcolourproject_2stim_asymm_v5,2020.2.10,Win32,60,61025ae37ef11b136ea224fe,,,,,,,,,197,88,33,1,0,0,response1disk,,6,15,1,1,0,0,rectangle,15,1,1,0,0,15,1,1,0,0,0,137,137,140,1,,,,,,,,
,,,,,,,,,,,,,FF,,,,,,,,0.5489,,,,,,,,,,,,,,,,,,,,,,61035d9ff98a80eac67779b7,61036632238f87866c3162fd,2021-07-29_21h39.17.031,Simcolourproject_2stim_asymm_v5,2020.2.10,Win32,60,61025ae37ef11b136ea224fe,,,,,,,,,4152,36,79,1,0,0,response1disk,,7,-3,-15,1,0,0,rectangle,-3,-15,1,0,0,-3,-15,1,0,0,0,138,138,114,1,,,,,,,,
,,,,,,,,,,,,,FF,,,,,,,,0.3504,,,,,,,,,,,,,,,,,,,,,,61035d9ff98a80eac67779b7,61036632238f87866c3162fd,2021-07-29_21h39.17.031,Simcolourproject_2stim_asymm_v5,2020.2.10,Win32,60,61025ae37ef11b136ea224fe,,,,,,,,,1102,45,72,1,0,0,response1disk,,7,7,-2,1,0,0,rectangle,7,-2,1,0,0,7,-2,1,0,0,0,139,139,42,1,,,,,,,,
,,,,,,,,,,,,,FF,,,,,,,,0.3328,,,,,,,,,,,,,,,,,,,,,,61035d9ff98a80eac67779b7,61036632238f87866c3162fd,2021-07-29_21h39.17.031,Simcolourproject_2stim_asymm_v5,2020.2.10,Win32,60,61025ae37ef11b136ea224fe,,,,,,,,,2062,43,66,1,0,0,response1disk,,7,9,-3,1,0,0,rectangle,9,-3,1,0,0,9,-3,1,0,0,0,140,140,73,1,,,,,,,,
,,,,,,,,,,,,,FF,,,,,,,,1.282,,,,,,,,,,,,,,,,,,,,,,61035d9ff98a80eac67779b7,61036632238f87866c3162fd,2021-07-29_21h39.17.031,Simcolourproject_2stim_asymm_v5,2020.2.10,Win32,60,61025ae37ef11b136ea224fe,,,,,,,,,3435,91,39,1,0,0,response1disk,,6,20,-4,1,0,0,rectangle,20,-4,1,0,0,20,-4,1,0,0,0,141,141,67,1,,,,,,,,
,,,,,,,,,,,,,FF,,,,,,,,1.1647,,,,,,,,,,,,,,,,,,,,,,61035d9ff98a80eac67779b7,61036632238f87866c3162fd,2021-07-29_21h39.17.031,Simcolourproject_2stim_asymm_v5,2020.2.10,Win32,60,61025ae37ef11b136ea224fe,,,,,,,,,1227,85,33,1,0,0,response1disk,,6,15,-1,1,0,0,rectangle,15,-1,1,0,0,15,-1,1,0,0,0,142,142,113,1,,,,,,,,
,,,,,,,,,,,,,FF,,,,,,,,0.5325,,,,,,,,,,,,,,,,,,,,,,61035d9ff98a80eac67779b7,61036632238f87866c3162fd,2021-07-29_21h39.17.031,Simcolourproject_2stim_asymm_v5,2020.2.10,Win32,60,61025ae37ef11b136ea224fe,,,,,,,,,1179,49,76,1,0,0,response1disk,,7,10,1,1,0,0,rectangle,10,1,1,0,0,10,1,1,0,0,0,143,143,154,1,,,,,,,,
,,,,,,,,,,,,,FF,,,,,,,,1.1152,,,,,,,,,,,,,,,,,,,,,,61035d9ff98a80eac67779b7,61036632238f87866c3162fd,2021-07-29_21h39.17.031,Simcolourproject_2stim_asymm_v5,2020.2.10,Win32,60,61025ae37ef11b136ea224fe,,,,,,,,,80,94,47,1,0,0,response1disk,,6,26,12,1,0,0,rectangle,26,12,1,0,0,26,12,1,0,0,0,144,144,101,1,,,,,,,,
,,,,,,,,,,,,,FF,,,,,,,,0.6495,,,,,,,,,,,,,,,,,,,,,,61035d9ff98a80eac67779b7,61036632238f87866c3162fd,2021-07-29_21h39.17.031,Simcolourproject_2stim_asymm_v5,2020.2.10,Win32,60,61025ae37ef11b136ea224fe,,,,,,,,,2108,90,37,1,0,0,response1disk,,6,13,-9,1,0,0,rectangle,13,-9,1,0,0,13,-9,1,0,0,0,145,145,132,1,,,,,,,,
,,,,,,,,,,,,,FF,,,,,,,,0.466,,,,,,,,,,,,,,,,,,,,,,61035d9ff98a80eac67779b7,61036632238f87866c3162fd,2021-07-29_21h39.17.031,Simcolourproject_2stim_asymm_v5,2020.2.10,Win32,60,61025ae37ef11b136ea224fe,,,,,,,,,215,29,79,1,0,0,response1disk,,7,11,4,1,0,0,rectangle,11,4,1,0,0,11,4,1,0,0,0,146,146,130,1,,,,,,,,
,,,,,,,,,,,,,FF,,,,,,,,1.0317,,,,,,,,,,,,,,,,,,,,,,61035d9ff98a80eac67779b7,61036632238f87866c3162fd,2021-07-29_21h39.17.031,Simcolourproject_2stim_asymm_v5,2020.2.10,Win32,60,61025ae37ef11b136ea224fe,,,,,,,,,2663,83,-57,1,0,0,response3disk,,5,3,0,1,0,0,rectangle,3,0,1,0,0,3,0,1,0,0,0,147,147,74,1,,,,,,,,
,,,,,,,,,,,,,FF,,,,,,,,0.9319,,,,,,,,,,,,,,,,,,,,,,61035d9ff98a80eac67779b7,61036632238f87866c3162fd,2021-07-29_21h39.17.031,Simcolourproject_2stim_asymm_v5,2020.2.10,Win32,60,61025ae37ef11b136ea224fe,,,,,,,,,3661,89,37,1,0,0,response1disk,,6,23,-4,1,0,0,rectangle,23,-4,1,0,0,23,-4,1,0,0,0,148,148,24,1,,,,,,,,
,,,,,,,,,,,,,FF,,,,,,,,0.4663,,,,,,,,,,,,,,,,,,,,,,61035d9ff98a80eac67779b7,61036632238f87866c3162fd,2021-07-29_21h39.17.031,Simcolourproject_2stim_asymm_v5,2020.2.10,Win32,60,61025ae37ef11b136ea224fe,,,,,,,,,2737,46,91,1,0,0,response1disk,,7,9,-8,1,0,0,rectangle,9,-8,1,0,0,9,-8,1,0,0,0,149,149,79,1,,,,,,,,
,,,,,,,,,,,,,FF,,,,,,,,0.3816,,,,,,,,,,,,,,,,,,,,,,61035d9ff98a80eac67779b7,61036632238f87866c3162fd,2021-07-29_21h39.17.031,Simcolourproject_2stim_asymm_v5,2020.2.10,Win32,60,61025ae37ef11b136ea224fe,,,,,,,,,1265,48,84,1,0,0,response1disk,,7,9,-14,1,0,0,rectangle,9,-14,1,0,0,9,-14,1,0,0,0,150,150,21,1,,,,,,,,
,,,,,,,,,,,,,FF,,,,,,,,1.7982,,,,,,,,,,,,,,,,,,,,,,61035d9ff98a80eac67779b7,61036632238f87866c3162fd,2021-07-29_21h39.17.031,Simcolourproject_2stim_asymm_v5,2020.2.10,Win32,60,61025ae37ef11b136ea224fe,,,,,,,,,3050,86,43,1,0,0,response1disk,,6,21,0,1,0,0,rectangle,21,0,1,0,0,21,0,1,0,0,0,151,151,159,1,,,,,,,,
,,,,,,,,,,,,,FF,,,,,,,,1.3638,,,,,,,,,,,,,,,,,,,,,,61035d9ff98a80eac67779b7,61036632238f87866c3162fd,2021-07-29_21h39.17.031,Simcolourproject_2stim_asymm_v5,2020.2.10,Win32,60,61025ae37ef11b136ea224fe,,,,,,,,,1206,48,78,1,0,0,response1disk,,7,12,9,1,0,0,rectangle,12,9,1,0,0,12,9,1,0,0,0,152,152,2,1,,,,,,,,
,,,,,,,,,,,,,FF,,,,,,,,1.5474,,,,,,,,,,,,,,,,,,,,,,61035d9ff98a80eac67779b7,61036632238f87866c3162fd,2021-07-29_21h39.17.031,Simcolourproject_2stim_asymm_v5,2020.2.10,Win32,60,61025ae37ef11b136ea224fe,,,,,,,,,2522,58,99,1,0,0,response1disk,,7,6,-7,1,0,0,rectangle,6,-7,1,0,0,6,-7,1,0,0,0,153,153,146,1,,,,,,,,
,,,,,,,,,,,,,FF,,,,,,,,1.5311,,,,,,,,,,,,,,,,,,,,,,61035d9ff98a80eac67779b7,61036632238f87866c3162fd,2021-07-29_21h39.17.031,Simcolourproject_2stim_asymm_v5,2020.2.10,Win32,60,61025ae37ef11b136ea224fe,,,,,,,,,3820,26,42,1,0,0,response1disk,,7,7,6,1,0,0,rectangle,7,6,1,0,0,7,6,1,0,0,0,154,154,124,1,,,,,,,,
,,,,,,,,,,,,,FF,,,,,,,,0.5503,,,,,,,,,,,,,,,,,,,,,,61035d9ff98a80eac67779b7,61036632238f87866c3162fd,2021-07-29_21h39.17.031,Simcolourproject_2stim_asymm_v5,2020.2.10,Win32,60,61025ae37ef11b136ea224fe,,,,,,,,,2574,40,74,1,0,0,response1disk,,7,0,-6,1,0,0,rectangle,0,-6,1,0,0,0,-6,1,0,0,0,155,155,12,1,,,,,,,,
,,,,,,,,,,,,,FF,,,,,,,,0.583,,,,,,,,,,,,,,,,,,,,,,61035d9ff98a80eac67779b7,61036632238f87866c3162fd,2021-07-29_21h39.17.031,Simcolourproject_2stim_asymm_v5,2020.2.10,Win32,60,61025ae37ef11b136ea224fe,,,,,,,,,31,56,102,1,0,0,response1disk,,7,5,2,1,0,0,rectangle,5,2,1,0,0,5,2,1,0,0,0,156,156,26,1,,,,,,,,
,,,,,,,,,,,,,FF,,,,,,,,0.503,,,,,,,,,,,,,,,,,,,,,,61035d9ff98a80eac67779b7,61036632238f87866c3162fd,2021-07-29_21h39.17.031,Simcolourproject_2stim_asymm_v5,2020.2.10,Win32,60,61025ae37ef11b136ea224fe,,,,,,,,,2007,73,73,1,0,0,response1disk,,7,18,2,1,0,0,rectangle,109,56,1,0,0,10,5,1,0,0,0,157,157,147,1,,response1disk_3,TRUE,6,6,"[165,193,202,247,158,308,280,113,288,183,244,314,267,169,159,275,22,165,221,137]",1.28,rectangle
,,,,,,,,,,,,,FF,,,,,,,,0.8512,,,,,,,,,,,,,,,,,,,,,,61035d9ff98a80eac67779b7,61036632238f87866c3162fd,2021-07-29_21h39.17.031,Simcolourproject_2stim_asymm_v5,2020.2.10,Win32,60,61025ae37ef11b136ea224fe,,,,,,,,,4220,104,45,1,0,0,response1disk,,6,20,-5,1,0,0,rectangle,107,-33,1,0,0,16,-3,1,0,0,0,158,158,139,1,,response3disk_3,TRUE,5,5,"[165,193,202,247,158,308,280,113,288,183,244,314,267,169,159,275,22,165,221,137]",1.1936,rectangle
,,,,,,,,,,,,,FF,,,,,,,,2.3145,,,,,,,,,,,,,,,,,,,,,,61035d9ff98a80eac67779b7,61036632238f87866c3162fd,2021-07-29_21h39.17.031,Simcolourproject_2stim_asymm_v5,2020.2.10,Win32,60,61025ae37ef11b136ea224fe,,,,,,,,,4219,59,103,1,0,0,response1disk,,7,13,9,1,0,0,rectangle,13,9,1,0,0,13,9,1,0,0,0,159,159,152,1,,,,,,,,
,,,,,,,,,,,,,FF,,,,,,,,0.9481,,,,,,,,,,,,,,,,,,,,,,61035d9ff98a80eac67779b7,61036632238f87866c3162fd,2021-07-29_21h39.17.031,Simcolourproject_2stim_asymm_v5,2020.2.10,Win32,60,61025ae37ef11b136ea224fe,,,,,,,,,3785,95,36,1,0,0,response1disk,,6,16,-5,1,0,0,rectangle,16,-5,1,0,0,16,-5,1,0,0,1,0,160,156,1,,,,,,,,
,,,,,,,,,,,,,FF,,,,,,,,0.4164,,,,,,,,,,,,,,,,,,,,,,61035d9ff98a80eac67779b7,61036632238f87866c3162fd,2021-07-29_21h39.17.031,Simcolourproject_2stim_asymm_v5,2020.2.10,Win32,60,61025ae37ef11b136ea224fe,,,,,,,,,783,48,92,1,0,0,response1disk,,7,2,-1,1,0,0,rectangle,2,-1,1,0,0,2,-1,1,0,0,1,1,161,110,1,,,,,,,,
,,,,,,,,,,,,,FF,,,,,,,,0.7328,,,,,,,,,,,,,,,,,,,,,,61035d9ff98a80eac67779b7,61036632238f87866c3162fd,2021-07-29_21h39.17.031,Simcolourproject_2stim_asymm_v5,2020.2.10,Win32,60,61025ae37ef11b136ea224fe,,,,,,,,,499,45,74,1,0,0,response1disk,,7,8,-7,1,0,0,rectangle,8,-7,1,0,0,8,-7,1,0,0,1,2,162,158,1,,,,,,,,
,,,,,,,,,,,,,FF,,,,,,,,1.1987,,,,,,,,,,,,,,,,,,,,,,61035d9ff98a80eac67779b7,61036632238f87866c3162fd,2021-07-29_21h39.17.031,Simcolourproject_2stim_asymm_v5,2020.2.10,Win32,60,61025ae37ef11b136ea224fe,,,,,,,,,4356,-31,82,1,0,0,response7disk,,0,3,4,1,0,0,rectangle,3,4,1,0,0,3,4,1,0,0,1,3,163,10,1,,,,,,,,
,,,,,,,,,,,,,FF,,,,,,,,1.4812,,,,,,,,,,,,,,,,,,,,,,61035d9ff98a80eac67779b7,61036632238f87866c3162fd,2021-07-29_21h39.17.031,Simcolourproject_2stim_asymm_v5,2020.2.10,Win32,60,61025ae37ef11b136ea224fe,,,,,,,,,3475,-69,-44,1,0,0,response5disk,,2,3,-2,1,0,0,rectangle,-59,-31,1,0,0,7,6,1,0,0,1,4,164,146,1,,response5disk_3,TRUE,2,2,"[165,193,202,247,158,308,280,113,288,183,244,314,267,169,159,275,22,165,221,137]",1.3988,rectangle
,,,,,,,,,,,,,FF,,,,,,,,1.4485,,,,,,,,,,,,,,,,,,,,,,61035d9ff98a80eac67779b7,61036632238f87866c3162fd,2021-07-29_21h39.17.031,Simcolourproject_2stim_asymm_v5,2020.2.10,Win32,60,61025ae37ef11b136ea224fe,,,,,,,,,2937,101,56,1,0,0,response1disk,,6,15,0,1,0,0,rectangle,15,0,1,0,0,15,0,1,0,0,1,5,165,48,1,,,,,,,,
,,,,,,,,,,,,,FF,,,,,,,,0.6653,,,,,,,,,,,,,,,,,,,,,,61035d9ff98a80eac67779b7,61036632238f87866c3162fd,2021-07-29_21h39.17.031,Simcolourproject_2stim_asymm_v5,2020.2.10,Win32,60,61025ae37ef11b136ea224fe,,,,,,,,,1426,45,75,1,0,0,response1disk,,7,-3,1,1,0,0,rectangle,-3,1,1,0,0,-3,1,1,0,0,1,6,166,1,1,,,,,,,,
,,,,,,,,,,,,,FF,,,,,,,,0.7492,,,,,,,,,,,,,,,,,,,,,,61035d9ff98a80eac67779b7,61036632238f87866c3162fd,2021-07-29_21h39.17.031,Simcolourproject_2stim_asymm_v5,2020.2.10,Win32,60,61025ae37ef11b136ea224fe,,,,,,,,,4318,38,67,1,0,0,response1disk,,7,7,-13,1,0,0,rectangle,7,-13,1,0,0,7,-13,1,0,0,1,7,167,128,1,,,,,,,,
,,,,,,,,,,,,,FF,,,,,,,,0.3326,,,,,,,,,,,,,,,,,,,,,,61035d9ff98a80eac67779b7,61036632238f87866c3162fd,2021-07-29_21h39.17.031,Simcolourproject_2stim_asymm_v5,2020.2.10,Win32,60,61025ae37ef11b136ea224fe,,,,,,,,,1103,51,89,1,0,0,response1disk,,7,7,-5,1,0,0,rectangle,-41,-92,1,0,0,6,-4,1,0,0,1,8,168,75,1,,response5disk_3,TRUE,3,3,"[165,193,202,247,158,308,280,113,288,183,244,314,267,169,159,275,22,165,221,137]",1.4968,rectangle
,,,,,,,,,,,,,FF,,,,,,,,0.9322,,,,,,,,,,,,,,,,,,,,,,61035d9ff98a80eac67779b7,61036632238f87866c3162fd,2021-07-29_21h39.17.031,Simcolourproject_2stim_asymm_v5,2020.2.10,Win32,60,61025ae37ef11b136ea224fe,,,,,,,,,544,86,47,1,0,0,response1disk,,6,16,8,1,0,0,rectangle,16,8,1,0,0,16,8,1,0,0,1,9,169,124,1,,,,,,,,
,,,,,,,,,,,,,FF,,,,,,,,0.8484,,,,,,,,,,,,,,,,,,,,,,61035d9ff98a80eac67779b7,61036632238f87866c3162fd,2021-07-29_21h39.17.031,Simcolourproject_2stim_asymm_v5,2020.2.10,Win32,60,61025ae37ef11b136ea224fe,,,,,,,,,2109,34,65,1,0,0,response1disk,,7,-10,-4,1,0,0,rectangle,-10,-4,1,0,0,-10,-4,1,0,0,1,10,170,103,1,,,,,,,,
,,,,,,,,,,,,,FF,,,,,,,,0.6321,,,,,,,,,,,,,,,,,,,,,,61035d9ff98a80eac67779b7,61036632238f87866c3162fd,2021-07-29_21h39.17.031,Simcolourproject_2stim_asymm_v5,2020.2.10,Win32,60,61025ae37ef11b136ea224fe,,,,,,,,,184,57,89,1,0,0,response1disk,,7,1,-7,1,0,0,rectangle,1,-7,1,0,0,1,-7,1,0,0,1,11,171,154,1,,,,,,,,
,,,,,,,,,,,,,FF,,,,,,,,0.8992,,,,,,,,,,,,,,,,,,,,,,61035d9ff98a80eac67779b7,61036632238f87866c3162fd,2021-07-29_21h39.17.031,Simcolourproject_2stim_asymm_v5,2020.2.10,Win32,60,61025ae37ef11b136ea224fe,,,,,,,,,1048,87,30,1,0,0,response1disk,,6,17,-3,1,0,0,rectangle,17,-3,1,0,0,17,-3,1,0,0,1,12,172,95,1,,,,,,,,
,,,,,,,,,,,,,FF,,,,,,,,0.4994,,,,,,,,,,,,,,,,,,,,,,61035d9ff98a80eac67779b7,61036632238f87866c3162fd,2021-07-29_21h39.17.031,Simcolourproject_2stim_asymm_v5,2020.2.10,Win32,60,61025ae37ef11b136ea224fe,,,,,,,,,2623,38,69,1,0,0,response1disk,,7,12,-15,1,0,0,rectangle,12,-15,1,0,0,12,-15,1,0,0,1,13,173,140,1,,,,,,,,
,,,,,,,,,,,,,FF,,,,,,,,0.3158,,,,,,,,,,,,,,,,,,,,,,61035d9ff98a80eac67779b7,61036632238f87866c3162fd,2021-07-29_21h39.17.031,Simcolourproject_2stim_asymm_v5,2020.2.10,Win32,60,61025ae37ef11b136ea224fe,,,,,,,,,2119,51,82,1,0,0,response1disk,,7,21,3,1,0,0,rectangle,21,3,1,0,0,21,3,1,0,0,1,14,174,0,1,,,,,,,,
,,,,,,,,,,,,,FF,,,,,,,,0.8665,,,,,,,,,,,,,,,,,,,,,,61035d9ff98a80eac67779b7,61036632238f87866c3162fd,2021-07-29_21h39.17.031,Simcolourproject_2stim_asymm_v5,2020.2.10,Win32,60,61025ae37ef11b136ea224fe,,,,,,,,,3331,45,84,1,0,0,response1disk,,7,12,-5,1,0,0,rectangle,12,-5,1,0,0,12,-5,1,0,0,1,15,175,42,1,,,,,,,,
,,,,,,,,,,,,,FF,,,,,,,,0.8322,,,,,,,,,,,,,,,,,,,,,,61035d9ff98a80eac67779b7,61036632238f87866c3162fd,2021-07-29_21h39.17.031,Simcolourproject_2stim_asymm_v5,2020.2.10,Win32,60,61025ae37ef11b136ea224fe,,,,,,,,,1343,47,62,1,0,0,response1disk,,7,21,-9,1,0,0,rectangle,21,-9,1,0,0,21,-9,1,0,0,1,16,176,14,1,,,,,,,,
,,,,,,,,,,,,,FF,,,,,,,,0.6158,,,,,,,,,,,,,,,,,,,,,,61035d9ff98a80eac67779b7,61036632238f87866c3162fd,2021-07-29_21h39.17.031,Simcolourproject_2stim_asymm_v5,2020.2.10,Win32,60,61025ae37ef11b136ea224fe,,,,,,,,,3325,57,73,1,0,0,response1disk,,7,23,1,1,0,0,rectangle,23,1,1,0,0,23,1,1,0,0,1,17,177,143,1,,,,,,,,
,,,,,,,,,,,,,FF,,,,,,,,0.3172,,,,,,,,,,,,,,,,,,,,,,61035d9ff98a80eac67779b7,61036632238f87866c3162fd,2021-07-29_21h39.17.031,Simcolourproject_2stim_asymm_v5,2020.2.10,Win32,60,61025ae37ef11b136ea224fe,,,,,,,,,67,42,72,1,0,0,response1disk,,7,14,5,1,0,0,rectangle,14,5,1,0,0,14,5,1,0,0,1,18,178,38,1,,,,,,,,
,,,,,,,,,,,,,FF,,,,,,,,1.2814,,,,,,,,,,,,,,,,,,,,,,61035d9ff98a80eac67779b7,61036632238f87866c3162fd,2021-07-29_21h39.17.031,Simcolourproject_2stim_asymm_v5,2020.2.10,Win32,60,61025ae37ef11b136ea224fe,,,,,,,,,1969,84,-49,1,0,0,response3disk,,5,21,1,1,0,0,rectangle,21,1,1,0,0,21,1,1,0,0,1,19,179,19,1,,,,,,,,
,,,,,,,,,,,,,FF,,,,,,,,0.8152,,,,,,,,,,,,,,,,,,,,,,61035d9ff98a80eac67779b7,61036632238f87866c3162fd,2021-07-29_21h39.17.031,Simcolourproject_2stim_asymm_v5,2020.2.10,Win32,60,61025ae37ef11b136ea224fe,,,,,,,,,938,27,69,1,0,0,response1disk,,7,13,7,1,0,0,rectangle,13,7,1,0,0,13,7,1,0,0,1,20,180,55,1,,,,,,,,
,,,,,,,,,,,,,FF,,,,,,,,0.3162,,,,,,,,,,,,,,,,,,,,,,61035d9ff98a80eac67779b7,61036632238f87866c3162fd,2021-07-29_21h39.17.031,Simcolourproject_2stim_asymm_v5,2020.2.10,Win32,60,61025ae37ef11b136ea224fe,,,,,,,,,3725,51,64,1,0,0,response1disk,,7,12,0,1,0,0,rectangle,12,0,1,0,0,12,0,1,0,0,1,21,181,43,1,,,,,,,,
,,,,,,,,,,,,,FF,,,,,,,,0.9989,,,,,,,,,,,,,,,,,,,,,,61035d9ff98a80eac67779b7,61036632238f87866c3162fd,2021-07-29_21h39.17.031,Simcolourproject_2stim_asymm_v5,2020.2.10,Win32,60,61025ae37ef11b136ea224fe,,,,,,,,,977,42,65,1,0,0,response1disk,,7,9,3,1,0,0,rectangle,-31,73,1,0,0,18,-7,1,0,0,1,22,182,108,1,,response7disk_3,TRUE,0,0,"[165,193,202,247,158,308,280,113,288,183,244,314,267,169,159,275,22,165,221,137]",1.4963,rectangle
,,,,,,,,,,,,,FF,,,,,,,,0.899,,,,,,,,,,,,,,,,,,,,,,61035d9ff98a80eac67779b7,61036632238f87866c3162fd,2021-07-29_21h39.17.031,Simcolourproject_2stim_asymm_v5,2020.2.10,Win32,60,61025ae37ef11b136ea224fe,,,,,,,,,982,50,85,1,0,0,response1disk,,7,14,-11,1,0,0,rectangle,14,-11,1,0,0,14,-11,1,0,0,1,23,183,61,1,,,,,,,,
,,,,,,,,,,,,,FF,,,,,,,,0.8308,,,,,,,,,,,,,,,,,,,,,,61035d9ff98a80eac67779b7,61036632238f87866c3162fd,2021-07-29_21h39.17.031,Simcolourproject_2stim_asymm_v5,2020.2.10,Win32,60,61025ae37ef11b136ea224fe,,,,,,,,,1234,42,65,1,0,0,response1disk,,7,11,-3,1,0,0,rectangle,11,-3,1,0,0,11,-3,1,0,0,1,24,184,111,1,,,,,,,,
,,,,,,,,,,,,,FF,,,,,,,,1.3151,,,,,,,,,,,,,,,,,,,,,,61035d9ff98a80eac67779b7,61036632238f87866c3162fd,2021-07-29_21h39.17.031,Simcolourproject_2stim_asymm_v5,2020.2.10,Win32,60,61025ae37ef11b136ea224fe,,,,,,,,,1126,46,59,1,0,0,response1disk,,7,17,1,1,0,0,rectangle,17,1,1,0,0,17,1,1,0,0,1,25,185,21,1,,,,,,,,
,,,,,,,,,,,,,FF,,,,,,,,0.3826,,,,,,,,,,,,,,,,,,,,,,61035d9ff98a80eac67779b7,61036632238f87866c3162fd,2021-07-29_21h39.17.031,Simcolourproject_2stim_asymm_v5,2020.2.10,Win32,60,61025ae37ef11b136ea224fe,,,,,,,,,110,48,61,1,0,0,response1disk,,7,13,4,1,0,0,rectangle,13,4,1,0,0,13,4,1,0,0,1,26,186,66,1,,,,,,,,
,,,,,,,,,,,,,FF,,,,,,,,0.7283,,,,,,,,,,,,,,,,,,,,,,61035d9ff98a80eac67779b7,61036632238f87866c3162fd,2021-07-29_21h39.17.031,Simcolourproject_2stim_asymm_v5,2020.2.10,Win32,60,61025ae37ef11b136ea224fe,,,,,,,,,3708,77,26,1,0,0,response1disk,,6,14,-3,1,0,0,rectangle,14,-3,1,0,0,14,-3,1,0,0,1,27,187,80,1,,,,,,,,
,,,,,,,,,,,,,FF,,,,,,,,2.0139,,,,,,,,,,,,,,,,,,,,,,61035d9ff98a80eac67779b7,61036632238f87866c3162fd,2021-07-29_21h39.17.031,Simcolourproject_2stim_asymm_v5,2020.2.10,Win32,60,61025ae37ef11b136ea224fe,,,,,,,,,3843,-69,-50,1,0,0,response5disk,,2,-10,5,1,0,0,rectangle,-10,5,1,0,0,-10,5,1,0,0,1,28,188,49,1,,,,,,,,
,,,,,,,,,,,,,FF,,,,,,,,0.5155,,,,,,,,,,,,,,,,,,,,,,61035d9ff98a80eac67779b7,61036632238f87866c3162fd,2021-07-29_21h39.17.031,Simcolourproject_2stim_asymm_v5,2020.2.10,Win32,60,61025ae37ef11b136ea224fe,,,,,,,,,2131,40,68,1,0,0,response1disk,,7,13,-7,1,0,0,rectangle,13,-7,1,0,0,13,-7,1,0,0,1,29,189,59,1,,,,,,,,
,,,,,,,,,,,,,FF,,,,,,,,0.3821,,,,,,,,,,,,,,,,,,,,,,61035d9ff98a80eac67779b7,61036632238f87866c3162fd,2021-07-29_21h39.17.031,Simcolourproject_2stim_asymm_v5,2020.2.10,Win32,60,61025ae37ef11b136ea224fe,,,,,,,,,3169,34,62,1,0,0,response1disk,,7,15,2,1,0,0,rectangle,15,2,1,0,0,15,2,1,0,0,1,30,190,100,1,,,,,,,,
,,,,,,,,,,,,,FF,,,,,,,,0.2658,,,,,,,,,,,,,,,,,,,,,,61035d9ff98a80eac67779b7,61036632238f87866c3162fd,2021-07-29_21h39.17.031,Simcolourproject_2stim_asymm_v5,2020.2.10,Win32,60,61025ae37ef11b136ea224fe,,,,,,,,,1558,49,79,1,0,0,response1disk,,7,10,-11,1,0,0,rectangle,10,-11,1,0,0,10,-11,1,0,0,1,31,191,70,1,,,,,,,,
,,,,,,,,,,,,,FF,,,,,,,,0.7159,,,,,,,,,,,,,,,,,,,,,,61035d9ff98a80eac67779b7,61036632238f87866c3162fd,2021-07-29_21h39.17.031,Simcolourproject_2stim_asymm_v5,2020.2.10,Win32,60,61025ae37ef11b136ea224fe,,,,,,,,,3429,77,27,1,0,0,response1disk,,6,13,3,1,0,0,rectangle,-47,32,1,0,0,4,12,1,0,0,1,32,192,52,1,,response7disk_3,TRUE,1,1,"[165,193,202,247,158,308,280,113,288,183,244,314,267,169,159,275,22,165,221,137]",1.4638,rectangle
,,,,,,,,,,,,,FF,,,,,,,,6.3926,,,,,,,,,,,,,,,,,,,,,,61035d9ff98a80eac67779b7,61036632238f87866c3162fd,2021-07-29_21h39.17.031,Simcolourproject_2stim_asymm_v5,2020.2.10,Win32,60,61025ae37ef11b136ea224fe,,,,,,,,,3891,32,90,1,0,0,response1disk,,7,12,-6,1,0,0,rectangle,12,-6,1,0,0,12,-6,1,0,0,1,33,193,136,1,,,,,,,,
,,,,,,,,,,,,,FF,,,,,,,,0.5486,,,,,,,,,,,,,,,,,,,,,,61035d9ff98a80eac67779b7,61036632238f87866c3162fd,2021-07-29_21h39.17.031,Simcolourproject_2stim_asymm_v5,2020.2.10,Win32,60,61025ae37ef11b136ea224fe,,,,,,,,,858,45,92,1,0,0,response1disk,,7,-3,-14,1,0,0,rectangle,-3,-14,1,0,0,-3,-14,1,0,0,1,34,194,11,1,,,,,,,,
,,,,,,,,,,,,,FF,,,,,,,,0.3485,,,,,,,,,,,,,,,,,,,,,,61035d9ff98a80eac67779b7,61036632238f87866c3162fd,2021-07-29_21h39.17.031,Simcolourproject_2stim_asymm_v5,2020.2.10,Win32,60,61025ae37ef11b136ea224fe,,,,,,,,,2573,57,82,1,0,0,response1disk,,7,15,-15,1,0,0,rectangle,15,-15,1,0,0,15,-15,1,0,0,1,35,195,56,1,,,,,,,,
,,,,,,,,,,,,,FF,,,,,,,,1.2003,,,,,,,,,,,,,,,,,,,,,,61035d9ff98a80eac67779b7,61036632238f87866c3162fd,2021-07-29_21h39.17.031,Simcolourproject_2stim_asymm_v5,2020.2.10,Win32,60,61025ae37ef11b136ea224fe,,,,,,,,,2837,91,38,1,0,0,response1disk,,6,9,-8,1,0,0,rectangle,9,-8,1,0,0,9,-8,1,0,0,1,36,196,9,1,,,,,,,,
,,,,,,,,,,,,,FF,,,,,,,,0.4465,,,,,,,,,,,,,,,,,,,,,,61035d9ff98a80eac67779b7,61036632238f87866c3162fd,2021-07-29_21h39.17.031,Simcolourproject_2stim_asymm_v5,2020.2.10,Win32,60,61025ae37ef11b136ea224fe,,,,,,,,,1366,46,98,1,0,0,response1disk,,7,2,-4,1,0,0,rectangle,2,-4,1,0,0,2,-4,1,0,0,1,37,197,96,1,,,,,,,,
,,,,,,,,,,,,,FF,,,,,,,,0.4015,,,,,,,,,,,,,,,,,,,,,,61035d9ff98a80eac67779b7,61036632238f87866c3162fd,2021-07-29_21h39.17.031,Simcolourproject_2stim_asymm_v5,2020.2.10,Win32,60,61025ae37ef11b136ea224fe,,,,,,,,,2331,43,77,1,0,0,response1disk,,7,18,-4,1,0,0,rectangle,18,-4,1,0,0,18,-4,1,0,0,1,38,198,3,1,,,,,,,,
,,,,,,,,,,,,,FF,,,,,,,,0.3309,,,,,,,,,,,,,,,,,,,,,,61035d9ff98a80eac67779b7,61036632238f87866c3162fd,2021-07-29_21h39.17.031,Simcolourproject_2stim_asymm_v5,2020.2.10,Win32,60,61025ae37ef11b136ea224fe,,,,,,,,,1498,43,87,1,0,0,response1disk,,7,7,-4,1,0,0,rectangle,7,-4,1,0,0,7,-4,1,0,0,1,39,199,12,1,,,,,,,,
,,,,,,,,,,,,,FF,,,,,,,,0.8309,,,,,,,,,,,,,,,,,,,,,,61035d9ff98a80eac67779b7,61036632238f87866c3162fd,2021-07-29_21h39.17.031,Simcolourproject_2stim_asymm_v5,2020.2.10,Win32,60,61025ae37ef11b136ea224fe,,,,,,,,,3946,85,44,1,0,0,response1disk,,6,15,0,1,0,0,rectangle,15,0,1,0,0,15,0,1,0,0,1,40,200,63,1,,,,,,,,
,,,,,,,,,,,,,FF,,,,,,,,1.4153,,,,,,,,,,,,,,,,,,,,,,61035d9ff98a80eac67779b7,61036632238f87866c3162fd,2021-07-29_21h39.17.031,Simcolourproject_2stim_asymm_v5,2020.2.10,Win32,60,61025ae37ef11b136ea224fe,,,,,,,,,2717,83,34,1,0,0,response1disk,,6,12,1,1,0,0,rectangle,-63,21,1,0,0,18,-4,1,0,0,1,41,201,84,1,,response7disk_3,TRUE,1,1,"[165,193,202,247,158,308,280,113,288,183,244,314,267,169,159,275,22,165,221,137]",1.2463,rectangle
,,,,,,,,,,,,,FF,,,,,,,,0.9156,,,,,,,,,,,,,,,,,,,,,,61035d9ff98a80eac67779b7,61036632238f87866c3162fd,2021-07-29_21h39.17.031,Simcolourproject_2stim_asymm_v5,2020.2.10,Win32,60,61025ae37ef11b136ea224fe,,,,,,,,,782,35,84,1,0,0,response1disk,,7,-9,9,1,0,0,rectangle,-9,9,1,0,0,-9,9,1,0,0,1,42,202,36,1,,,,,,,,
,,,,,,,,,,,,,FF,,,,,,,,1.5648,,,,,,,,,,,,,,,,,,,,,,61035d9ff98a80eac67779b7,61036632238f87866c3162fd,2021-07-29_21h39.17.031,Simcolourproject_2stim_asymm_v5,2020.2.10,Win32,60,61025ae37ef11b136ea224fe,,,,,,,,,1747,52,-92,1,0,0,response3disk,,4,-6,3,1,0,0,rectangle,-6,3,1,0,0,-6,3,1,0,0,1,43,203,101,1,,,,,,,,
,,,,,,,,,,,,,FF,,,,,,,,1.1817,,,,,,,,,,,,,,,,,,,,,,61035d9ff98a80eac67779b7,61036632238f87866c3162fd,2021-07-29_21h39.17.031,Simcolourproject_2stim_asymm_v5,2020.2.10,Win32,60,61025ae37ef11b136ea224fe,,,,,,,,,3394,95,-50,1,0,0,response3disk,,5,-1,-1,1,0,0,rectangle,-1,-1,1,0,0,-1,-1,1,0,0,1,44,204,131,1,,,,,,,,
,,,,,,,,,,,,,FF,,,,,,,,0.6157,,,,,,,,,,,,,,,,,,,,,,61035d9ff98a80eac67779b7,61036632238f87866c3162fd,2021-07-29_21h39.17.031,Simcolourproject_2stim_asymm_v5,2020.2.10,Win32,60,61025ae37ef11b136ea224fe,,,,,,,,,2973,46,73,1,0,0,response1disk,,7,12,-2,1,0,0,rectangle,12,-2,1,0,0,12,-2,1,0,0,1,45,205,16,1,,,,,,,,
,,,,,,,,,,,,,FF,,,,,,,,0.4655,,,,,,,,,,,,,,,,,,,,,,61035d9ff98a80eac67779b7,61036632238f87866c3162fd,2021-07-29_21h39.17.031,Simcolourproject_2stim_asymm_v5,2020.2.10,Win32,60,61025ae37ef11b136ea224fe,,,,,,,,,238,40,68,1,0,0,response1disk,,7,7,-8,1,0,0,rectangle,7,-8,1,0,0,7,-8,1,0,0,1,46,206,7,1,,,,,,,,
,,,,,,,,,,,,,FF,,,,,,,,0.3668,,,,,,,,,,,,,,,,,,,,,,61035d9ff98a80eac67779b7,61036632238f87866c3162fd,2021-07-29_21h39.17.031,Simcolourproject_2stim_asymm_v5,2020.2.10,Win32,60,61025ae37ef11b136ea224fe,,,,,,,,,60,41,75,1,0,0,response1disk,,7,16,4,1,0,0,rectangle,16,4,1,0,0,16,4,1,0,0,1,47,207,90,1,,,,,,,,
,,,,,,,,,,,,,FF,,,,,,,,0.3023,,,,,,,,,,,,,,,,,,,,,,61035d9ff98a80eac67779b7,61036632238f87866c3162fd,2021-07-29_21h39.17.031,Simcolourproject_2stim_asymm_v5,2020.2.10,Win32,60,61025ae37ef11b136ea224fe,,,,,,,,,769,43,71,1,0,0,response1disk,,7,9,-4,1,0,0,rectangle,9,-4,1,0,0,9,-4,1,0,0,1,48,208,107,1,,,,,,,,
,,,,,,,,,,,,,FF,,,,,,,,0.7346,,,,,,,,,,,,,,,,,,,,,,61035d9ff98a80eac67779b7,61036632238f87866c3162fd,2021-07-29_21h39.17.031,Simcolourproject_2stim_asymm_v5,2020.2.10,Win32,60,61025ae37ef11b136ea224fe,,,,,,,,,3596,93,34,1,0,0,response1disk,,6,18,-6,1,0,0,rectangle,18,-6,1,0,0,18,-6,1,0,0,1,49,209,104,1,,,,,,,,
,,,,,,,,,,,,,FF,,,,,,,,1.0643,,,,,,,,,,,,,,,,,,,,,,61035d9ff98a80eac67779b7,61036632238f87866c3162fd,2021-07-29_21h39.17.031,Simcolourproject_2stim_asymm_v5,2020.2.10,Win32,60,61025ae37ef11b136ea224fe,,,,,,,,,896,87,37,1,0,0,response1disk,,6,7,-9,1,0,0,rectangle,7,-9,1,0,0,7,-9,1,0,0,1,50,210,113,1,,,,,,,,
,,,,,,,,,,,,,FF,,,,,,,,0.6847,,,,,,,,,,,,,,,,,,,,,,61035d9ff98a80eac67779b7,61036632238f87866c3162fd,2021-07-29_21h39.17.031,Simcolourproject_2stim_asymm_v5,2020.2.10,Win32,60,61025ae37ef11b136ea224fe,,,,,,,,,3332,90,25,1,0,0,response1disk,,6,18,-1,1,0,0,rectangle,18,-1,1,0,0,18,-1,1,0,0,1,51,211,25,1,,,,,,,,
,,,,,,,,,,,,,FF,,,,,,,,0.3999,,,,,,,,,,,,,,,,,,,,,,61035d9ff98a80eac67779b7,61036632238f87866c3162fd,2021-07-29_21h39.17.031,Simcolourproject_2stim_asymm_v5,2020.2.10,Win32,60,61025ae37ef11b136ea224fe,,,,,,,,,3082,26,71,1,0,0,response1disk,,7,15,8,1,0,0,rectangle,15,8,1,0,0,15,8,1,0,0,1,52,212,67,1,,,,,,,,
,,,,,,,,,,,,,FF,,,,,,,,0.3993,,,,,,,,,,,,,,,,,,,,,,61035d9ff98a80eac67779b7,61036632238f87866c3162fd,2021-07-29_21h39.17.031,Simcolourproject_2stim_asymm_v5,2020.2.10,Win32,60,61025ae37ef11b136ea224fe,,,,,,,,,2077,54,82,1,0,0,response1disk,,7,22,-2,1,0,0,rectangle,22,-2,1,0,0,22,-2,1,0,0,1,53,213,32,1,,,,,,,,
,,,,,,,,,,,,,FF,,,,,,,,0.3655,,,,,,,,,,,,,,,,,,,,,,61035d9ff98a80eac67779b7,61036632238f87866c3162fd,2021-07-29_21h39.17.031,Simcolourproject_2stim_asymm_v5,2020.2.10,Win32,60,61025ae37ef11b136ea224fe,,,,,,,,,1761,47,82,1,0,0,response1disk,,7,9,-8,1,0,0,rectangle,9,-8,1,0,0,9,-8,1,0,0,1,54,214,57,1,,,,,,,,
,,,,,,,,,,,,,FF,,,,,,,,0.4009,,,,,,,,,,,,,,,,,,,,,,61035d9ff98a80eac67779b7,61036632238f87866c3162fd,2021-07-29_21h39.17.031,Simcolourproject_2stim_asymm_v5,2020.2.10,Win32,60,61025ae37ef11b136ea224fe,,,,,,,,,3318,54,72,1,0,0,response1disk,,7,17,-7,1,0,0,rectangle,17,-7,1,0,0,17,-7,1,0,0,1,55,215,41,1,,,,,,,,
,,,,,,,,,,,,,FF,,,,,,,,0.3826,,,,,,,,,,,,,,,,,,,,,,61035d9ff98a80eac67779b7,61036632238f87866c3162fd,2021-07-29_21h39.17.031,Simcolourproject_2stim_asymm_v5,2020.2.10,Win32,60,61025ae37ef11b136ea224fe,,,,,,,,,1935,42,75,1,0,0,response1disk,,7,8,-4,1,0,0,rectangle,8,-4,1,0,0,8,-4,1,0,0,1,56,216,6,1,,,,,,,,
,,,,,,,,,,,,,FF,,,,,,,,1.6808,,,,,,,,,,,,,,,,,,,,,,61035d9ff98a80eac67779b7,61036632238f87866c3162fd,2021-07-29_21h39.17.031,Simcolourproject_2stim_asymm_v5,2020.2.10,Win32,60,61025ae37ef11b136ea224fe,,,,,,,,,4338,45,61,1,0,0,response1disk,,7,10,-4,1,0,0,rectangle,10,-4,1,0,0,10,-4,1,0,0,1,57,217,53,1,,,,,,,,
,,,,,,,,,,,,,FF,,,,,,,,0.3326,,,,,,,,,,,,,,,,,,,,,,61035d9ff98a80eac67779b7,61036632238f87866c3162fd,2021-07-29_21h39.17.031,Simcolourproject_2stim_asymm_v5,2020.2.10,Win32,60,61025ae37ef11b136ea224fe,,,,,,,,,1511,37,72,1,0,0,response1disk,,7,9,6,1,0,0,rectangle,9,6,1,0,0,9,6,1,0,0,1,58,218,83,1,,,,,,,,
,,,,,,,,,,,,,FF,,,,,,,,0.7492,,,,,,,,,,,,,,,,,,,,,,61035d9ff98a80eac67779b7,61036632238f87866c3162fd,2021-07-29_21h39.17.031,Simcolourproject_2stim_asymm_v5,2020.2.10,Win32,60,61025ae37ef11b136ea224fe,,,,,,,,,1832,41,75,1,0,0,response1disk,,7,4,-6,1,0,0,rectangle,4,-6,1,0,0,4,-6,1,0,0,1,59,219,78,1,,,,,,,,
,,,,,,,,,,,,,FF,,,,,,,,0.3494,,,,,,,,,,,,,,,,,,,,,,61035d9ff98a80eac67779b7,61036632238f87866c3162fd,2021-07-29_21h39.17.031,Simcolourproject_2stim_asymm_v5,2020.2.10,Win32,60,61025ae37ef11b136ea224fe,,,,,,,,,1040,48,76,1,0,0,response1disk,,7,21,-2,1,0,0,rectangle,96,-38,1,0,0,13,0,1,0,0,1,60,220,105,1,,response3disk_3,TRUE,5,5,"[165,193,202,247,158,308,280,113,288,183,244,314,267,169,159,275,22,165,221,137]",1.4152,rectangle
,,,,,,,,,,,,,FF,,,,,,,,3.8463,,,,,,,,,,,,,,,,,,,,,,61035d9ff98a80eac67779b7,61036632238f87866c3162fd,2021-07-29_21h39.17.031,Simcolourproject_2stim_asymm_v5,2020.2.10,Win32,60,61025ae37ef11b136ea224fe,,,,,,,,,264,83,81,1,0,0,response1disk,,6,7,-4,1,0,0,rectangle,7,-4,1,0,0,7,-4,1,0,0,1,61,221,79,1,,,,,,,,
,,,,,,,,,,,,,FF,,,,,,,,0.7346,,,,,,,,,,,,,,,,,,,,,,61035d9ff98a80eac67779b7,61036632238f87866c3162fd,2021-07-29_21h39.17.031,Simcolourproject_2stim_asymm_v5,2020.2.10,Win32,60,61025ae37ef11b136ea224fe,,,,,,,,,3211,89,32,1,0,0,response1disk,,6,21,-5,1,0,0,rectangle,21,-5,1,0,0,21,-5,1,0,0,1,62,222,65,1,,,,,,,,
,,,,,,,,,,,,,FF,,,,,,,,1.2156,,,,,,,,,,,,,,,,,,,,,,61035d9ff98a80eac67779b7,61036632238f87866c3162fd,2021-07-29_21h39.17.031,Simcolourproject_2stim_asymm_v5,2020.2.10,Win32,60,61025ae37ef11b136ea224fe,,,,,,,,,3517,90,-54,1,0,0,response3disk,,5,-2,-6,1,0,0,rectangle,-2,-6,1,0,0,-2,-6,1,0,0,1,63,223,35,1,,,,,,,,
,,,,,,,,,,,,,FF,,,,,,,,1.3652,,,,,,,,,,,,,,,,,,,,,,61035d9ff98a80eac67779b7,61036632238f87866c3162fd,2021-07-29_21h39.17.031,Simcolourproject_2stim_asymm_v5,2020.2.10,Win32,60,61025ae37ef11b136ea224fe,,,,,,,,,3479,57,-89,1,0,0,response3disk,,4,2,0,1,0,0,rectangle,2,0,1,0,0,2,0,1,0,0,1,64,224,97,1,,,,,,,,
,,,,,,,,,,,,,FF,,,,,,,,0.6156,,,,,,,,,,,,,,,,,,,,,,61035d9ff98a80eac67779b7,61036632238f87866c3162fd,2021-07-29_21h39.17.031,Simcolourproject_2stim_asymm_v5,2020.2.10,Win32,60,61025ae37ef11b136ea224fe,,,,,,,,,2959,50,81,1,0,0,response1disk,,7,12,0,1,0,0,rectangle,12,0,1,0,0,12,0,1,0,0,1,65,225,60,1,,,,,,,,
,,,,,,,,,,,,,FF,,,,,,,,0.6493,,,,,,,,,,,,,,,,,,,,,,61035d9ff98a80eac67779b7,61036632238f87866c3162fd,2021-07-29_21h39.17.031,Simcolourproject_2stim_asymm_v5,2020.2.10,Win32,60,61025ae37ef11b136ea224fe,,,,,,,,,3812,89,21,1,0,0,response1disk,,6,-3,0,1,0,0,rectangle,-3,0,1,0,0,-3,0,1,0,0,1,66,226,112,1,,,,,,,,
,,,,,,,,,,,,,FF,,,,,,,,0.4658,,,,,,,,,,,,,,,,,,,,,,61035d9ff98a80eac67779b7,61036632238f87866c3162fd,2021-07-29_21h39.17.031,Simcolourproject_2stim_asymm_v5,2020.2.10,Win32,60,61025ae37ef11b136ea224fe,,,,,,,,,2916,34,81,1,0,0,response1disk,,7,9,7,1,0,0,rectangle,9,7,1,0,0,9,7,1,0,0,1,67,227,74,1,,,,,,,,
,,,,,,,,,,,,,FF,,,,,,,,0.3491,,,,,,,,,,,,,,,,,,,,,,61035d9ff98a80eac67779b7,61036632238f87866c3162fd,2021-07-29_21h39.17.031,Simcolourproject_2stim_asymm_v5,2020.2.10,Win32,60,61025ae37ef11b136ea224fe,,,,,,,,,1626,43,72,1,0,0,response1disk,,7,12,-4,1,0,0,rectangle,12,-4,1,0,0,12,-4,1,0,0,1,68,228,132,1,,,,,,,,
,,,,,,,,,,,,,FF,,,,,,,,0.3325,,,,,,,,,,,,,,,,,,,,,,61035d9ff98a80eac67779b7,61036632238f87866c3162fd,2021-07-29_21h39.17.031,Simcolourproject_2stim_asymm_v5,2020.2.10,Win32,60,61025ae37ef11b136ea224fe,,,,,,,,,2867,42,73,1,0,0,response1disk,,7,6,-6,1,0,0,rectangle,6,-6,1,0,0,6,-6,1,0,0,1,69,229,50,1,,,,,,,,
,,,,,,,,,,,,,FF,,,,,,,,0.6987,,,,,,,,,,,,,,,,,,,,,,61035d9ff98a80eac67779b7,61036632238f87866c3162fd,2021-07-29_21h39.17.031,Simcolourproject_2stim_asymm_v5,2020.2.10,Win32,60,61025ae37ef11b136ea224fe,,,,,,,,,2343,63,74,1,0,0,response1disk,,7,-8,-11,1,0,0,rectangle,-8,-11,1,0,0,-8,-11,1,0,0,1,70,230,93,1,,,,,,,,
,,,,,,,,,,,,,FF,,,,,,,,0.4823,,,,,,,,,,,,,,,,,,,,,,61035d9ff98a80eac67779b7,61036632238f87866c3162fd,2021-07-29_21h39.17.031,Simcolourproject_2stim_asymm_v5,2020.2.10,Win32,60,61025ae37ef11b136ea224fe,,,,,,,,,4073,54,85,1,0,0,response1disk,,7,13,2,1,0,0,rectangle,13,2,1,0,0,13,2,1,0,0,1,71,231,94,1,,,,,,,,
,,,,,,,,,,,,,FF,,,,,,,,1.0811,,,,,,,,,,,,,,,,,,,,,,61035d9ff98a80eac67779b7,61036632238f87866c3162fd,2021-07-29_21h39.17.031,Simcolourproject_2stim_asymm_v5,2020.2.10,Win32,60,61025ae37ef11b136ea224fe,,,,,,,,,459,95,-47,1,0,0,response3disk,,5,-5,-2,1,0,0,rectangle,-5,-2,1,0,0,-5,-2,1,0,0,1,72,232,117,1,,,,,,,,
,,,,,,,,,,,,,FF,,,,,,,,1.4152,,,,,,,,,,,,,,,,,,,,,,61035d9ff98a80eac67779b7,61036632238f87866c3162fd,2021-07-29_21h39.17.031,Simcolourproject_2stim_asymm_v5,2020.2.10,Win32,60,61025ae37ef11b136ea224fe,,,,,,,,,1291,42,-88,1,0,0,response3disk,,4,11,-7,1,0,0,rectangle,11,-7,1,0,0,11,-7,1,0,0,1,73,233,64,1,,,,,,,,
,,,,,,,,,,,,,FF,,,,,,,,0.4986,,,,,,,,,,,,,,,,,,,,,,61035d9ff98a80eac67779b7,61036632238f87866c3162fd,2021-07-29_21h39.17.031,Simcolourproject_2stim_asymm_v5,2020.2.10,Win32,60,61025ae37ef11b136ea224fe,,,,,,,,,4325,28,79,1,0,0,response1disk,,7,-4,-4,1,0,0,rectangle,-4,-4,1,0,0,-4,-4,1,0,0,1,74,234,149,1,,,,,,,,
,,,,,,,,,,,,,FF,,,,,,,,0.3157,,,,,,,,,,,,,,,,,,,,,,61035d9ff98a80eac67779b7,61036632238f87866c3162fd,2021-07-29_21h39.17.031,Simcolourproject_2stim_asymm_v5,2020.2.10,Win32,60,61025ae37ef11b136ea224fe,,,,,,,,,1787,39,68,1,0,0,response1disk,,7,6,-8,1,0,0,rectangle,6,-8,1,0,0,6,-8,1,0,0,1,75,235,122,1,,,,,,,,
,,,,,,,,,,,,,FF,,,,,,,,0.4155,,,,,,,,,,,,,,,,,,,,,,61035d9ff98a80eac67779b7,61036632238f87866c3162fd,2021-07-29_21h39.17.031,Simcolourproject_2stim_asymm_v5,2020.2.10,Win32,60,61025ae37ef11b136ea224fe,,,,,,,,,2279,49,75,1,0,0,response1disk,,7,8,-12,1,0,0,rectangle,8,-12,1,0,0,8,-12,1,0,0,1,76,236,85,1,,,,,,,,
,,,,,,,,,,,,,FF,,,,,,,,0.4822,,,,,,,,,,,,,,,,,,,,,,61035d9ff98a80eac67779b7,61036632238f87866c3162fd,2021-07-29_21h39.17.031,Simcolourproject_2stim_asymm_v5,2020.2.10,Win32,60,61025ae37ef11b136ea224fe,,,,,,,,,3378,41,77,1,0,0,response1disk,,7,1,-8,1,0,0,rectangle,1,-8,1,0,0,1,-8,1,0,0,1,77,237,68,1,,,,,,,,
,,,,,,,,,,,,,FF,,,,,,,,0.7322,,,,,,,,,,,,,,,,,,,,,,61035d9ff98a80eac67779b7,61036632238f87866c3162fd,2021-07-29_21h39.17.031,Simcolourproject_2stim_asymm_v5,2020.2.10,Win32,60,61025ae37ef11b136ea224fe,,,,,,,,,453,83,33,1,0,0,response1disk,,6,10,-7,1,0,0,rectangle,10,-7,1,0,0,10,-7,1,0,0,1,78,238,62,1,,,,,,,,
,,,,,,,,,,,,,FF,,,,,,,,0.4329,,,,,,,,,,,,,,,,,,,,,,61035d9ff98a80eac67779b7,61036632238f87866c3162fd,2021-07-29_21h39.17.031,Simcolourproject_2stim_asymm_v5,2020.2.10,Win32,60,61025ae37ef11b136ea224fe,,,,,,,,,66,45,84,1,0,0,response1disk,,7,6,2,1,0,0,rectangle,6,2,1,0,0,6,2,1,0,0,1,79,239,147,1,,,,,,,,
,,,,,,,,,,,,,FF,,,,,,,,0.5488,,,,,,,,,,,,,,,,,,,,,,61035d9ff98a80eac67779b7,61036632238f87866c3162fd,2021-07-29_21h39.17.031,Simcolourproject_2stim_asymm_v5,2020.2.10,Win32,60,61025ae37ef11b136ea224fe,,,,,,,,,2312,34,87,1,0,0,response1disk,,7,10,-13,1,0,0,rectangle,10,-13,1,0,0,10,-13,1,0,0,1,80,240,138,1,,,,,,,,
,,,,,,,,,,,,,FF,,,,,,,,0.498,,,,,,,,,,,,,,,,,,,,,,61035d9ff98a80eac67779b7,61036632238f87866c3162fd,2021-07-29_21h39.17.031,Simcolourproject_2stim_asymm_v5,2020.2.10,Win32,60,61025ae37ef11b136ea224fe,,,,,,,,,1017,40,82,1,0,0,response1disk,,7,10,-15,1,0,0,rectangle,10,-15,1,0,0,10,-15,1,0,0,1,81,241,87,1,,,,,,,,
,,,,,,,,,,,,,FF,,,,,,,,0.6486,,,,,,,,,,,,,,,,,,,,,,61035d9ff98a80eac67779b7,61036632238f87866c3162fd,2021-07-29_21h39.17.031,Simcolourproject_2stim_asymm_v5,2020.2.10,Win32,60,61025ae37ef11b136ea224fe,,,,,,,,,629,42,88,1,0,0,response1disk,,7,-2,3,1,0,0,rectangle,-2,3,1,0,0,-2,3,1,0,0,1,82,242,77,1,,,,,,,,
,,,,,,,,,,,,,FF,,,,,,,,0.5982,,,,,,,,,,,,,,,,,,,,,,61035d9ff98a80eac67779b7,61036632238f87866c3162fd,2021-07-29_21h39.17.031,Simcolourproject_2stim_asymm_v5,2020.2.10,Win32,60,61025ae37ef11b136ea224fe,,,,,,,,,2043,37,82,1,0,0,response1disk,,7,9,9,1,0,0,rectangle,-75,-38,1,0,0,9,5,1,0,0,1,83,243,141,1,,response5disk_3,TRUE,2,2,"[165,193,202,247,158,308,280,113,288,183,244,314,267,169,159,275,22,165,221,137]",1.4137,rectangle
,,,,,,,,,,,,,FF,,,,,,,,1.3312,,,,,,,,,,,,,,,,,,,,,,61035d9ff98a80eac67779b7,61036632238f87866c3162fd,2021-07-29_21h39.17.031,Simcolourproject_2stim_asymm_v5,2020.2.10,Win32,60,61025ae37ef11b136ea224fe,,,,,,,,,2297,51,-103,1,0,0,response3disk,,4,13,5,1,0,0,rectangle,13,5,1,0,0,13,5,1,0,0,1,84,244,98,1,,,,,,,,
,,,,,,,,,,,,,FF,,,,,,,,0.516,,,,,,,,,,,,,,,,,,,,,,61035d9ff98a80eac67779b7,61036632238f87866c3162fd,2021-07-29_21h39.17.031,Simcolourproject_2stim_asymm_v5,2020.2.10,Win32,60,61025ae37ef11b136ea224fe,,,,,,,,,3145,48,94,1,0,0,response1disk,,7,6,12,1,0,0,rectangle,6,12,1,0,0,6,12,1,0,0,1,85,245,82,1,,,,,,,,
,,,,,,,,,,,,,FF,,,,,,,,0.4492,,,,,,,,,,,,,,,,,,,,,,61035d9ff98a80eac67779b7,61036632238f87866c3162fd,2021-07-29_21h39.17.031,Simcolourproject_2stim_asymm_v5,2020.2.10,Win32,60,61025ae37ef11b136ea224fe,,,,,,,,,3127,32,74,1,0,0,response1disk,,7,8,-8,1,0,0,rectangle,-32,-85,1,0,0,24,11,1,0,0,1,86,246,114,1,,response5disk_3,TRUE,3,3,"[165,193,202,247,158,308,280,113,288,183,244,314,267,169,159,275,22,165,221,137]",1.4136,rectangle
,,,,,,,,,,,,,FF,,,,,,,,0.6656,,,,,,,,,,,,,,,,,,,,,,61035d9ff98a80eac67779b7,61036632238f87866c3162fd,2021-07-29_21h39.17.031,Simcolourproject_2stim_asymm_v5,2020.2.10,Win32,60,61025ae37ef11b136ea224fe,,,,,,,,,506,48,82,1,0,0,response1disk,,7,19,4,1,0,0,rectangle,19,4,1,0,0,19,4,1,0,0,1,87,247,81,1,,,,,,,,
,,,,,,,,,,,,,FF,,,,,,,,0.3321,,,,,,,,,,,,,,,,,,,,,,61035d9ff98a80eac67779b7,61036632238f87866c3162fd,2021-07-29_21h39.17.031,Simcolourproject_2stim_asymm_v5,2020.2.10,Win32,60,61025ae37ef11b136ea224fe,,,,,,,,,3486,52,61,1,0,0,response1disk,,7,20,-8,1,0,0,rectangle,20,-8,1,0,0,20,-8,1,0,0,1,88,248,51,1,,,,,,,,
,,,,,,,,,,,,,FF,,,,,,,,0.5661,,,,,,,,,,,,,,,,,,,,,,61035d9ff98a80eac67779b7,61036632238f87866c3162fd,2021-07-29_21h39.17.031,Simcolourproject_2stim_asymm_v5,2020.2.10,Win32,60,61025ae37ef11b136ea224fe,,,,,,,,,2594,45,75,1,0,0,response1disk,,7,11,0,1,0,0,rectangle,11,0,1,0,0,11,0,1,0,0,1,89,249,18,1,,,,,,,,
,,,,,,,,,,,,,FF,,,,,,,,1.3144,,,,,,,,,,,,,,,,,,,,,,61035d9ff98a80eac67779b7,61036632238f87866c3162fd,2021-07-29_21h39.17.031,Simcolourproject_2stim_asymm_v5,2020.2.10,Win32,60,61025ae37ef11b136ea224fe,,,,,,,,,2168,92,39,1,0,0,response1disk,,6,19,0,1,0,0,rectangle,19,0,1,0,0,19,0,1,0,0,1,90,250,155,1,,,,,,,,
,,,,,,,,,,,,,FF,,,,,,,,0.4993,,,,,,,,,,,,,,,,,,,,,,61035d9ff98a80eac67779b7,61036632238f87866c3162fd,2021-07-29_21h39.17.031,Simcolourproject_2stim_asymm_v5,2020.2.10,Win32,60,61025ae37ef11b136ea224fe,,,,,,,,,538,27,70,1,0,0,response1disk,,7,10,4,1,0,0,rectangle,10,4,1,0,0,10,4,1,0,0,1,91,251,37,1,,,,,,,,
,,,,,,,,,,,,,FF,,,,,,,,0.3827,,,,,,,,,,,,,,,,,,,,,,61035d9ff98a80eac67779b7,61036632238f87866c3162fd,2021-07-29_21h39.17.031,Simcolourproject_2stim_asymm_v5,2020.2.10,Win32,60,61025ae37ef11b136ea224fe,,,,,,,,,3131,38,76,1,0,0,response1disk,,7,5,-5,1,0,0,rectangle,5,-5,1,0,0,5,-5,1,0,0,1,92,252,159,1,,,,,,,,
,,,,,,,,,,,,,FF,,,,,,,,0.2999,,,,,,,,,,,,,,,,,,,,,,61035d9ff98a80eac67779b7,61036632238f87866c3162fd,2021-07-29_21h39.17.031,Simcolourproject_2stim_asymm_v5,2020.2.10,Win32,60,61025ae37ef11b136ea224fe,,,,,,,,,3956,38,68,1,0,0,response1disk,,7,20,-2,1,0,0,rectangle,20,-2,1,0,0,20,-2,1,0,0,1,93,253,135,1,,,,,,,,
,,,,,,,,,,,,,FF,,,,,,,,0.6981,,,,,,,,,,,,,,,,,,,,,,61035d9ff98a80eac67779b7,61036632238f87866c3162fd,2021-07-29_21h39.17.031,Simcolourproject_2stim_asymm_v5,2020.2.10,Win32,60,61025ae37ef11b136ea224fe,,,,,,,,,3284,59,-87,1,0,0,response3disk,,4,2,-4,1,0,0,rectangle,2,-4,1,0,0,2,-4,1,0,0,1,94,254,99,1,,,,,,,,
,,,,,,,,,,,,,FF,,,,,,,,0.4325,,,,,,,,,,,,,,,,,,,,,,61035d9ff98a80eac67779b7,61036632238f87866c3162fd,2021-07-29_21h39.17.031,Simcolourproject_2stim_asymm_v5,2020.2.10,Win32,60,61025ae37ef11b136ea224fe,,,,,,,,,990,36,70,1,0,0,response1disk,,7,15,-2,1,0,0,rectangle,15,-2,1,0,0,15,-2,1,0,0,1,95,255,91,1,,,,,,,,
,,,,,,,,,,,,,FF,,,,,,,,0.3982,,,,,,,,,,,,,,,,,,,,,,61035d9ff98a80eac67779b7,61036632238f87866c3162fd,2021-07-29_21h39.17.031,Simcolourproject_2stim_asymm_v5,2020.2.10,Win32,60,61025ae37ef11b136ea224fe,,,,,,,,,1557,32,65,1,0,0,response1disk,,7,7,8,1,0,0,rectangle,7,8,1,0,0,7,8,1,0,0,1,96,256,8,1,,,,,,,,
,,,,,,,,,,,,,FF,,,,,,,,0.383,,,,,,,,,,,,,,,,,,,,,,61035d9ff98a80eac67779b7,61036632238f87866c3162fd,2021-07-29_21h39.17.031,Simcolourproject_2stim_asymm_v5,2020.2.10,Win32,60,61025ae37ef11b136ea224fe,,,,,,,,,4128,46,80,1,0,0,response1disk,,7,10,-1,1,0,0,rectangle,10,-1,1,0,0,10,-1,1,0,0,1,97,257,137,1,,,,,,,,
,,,,,,,,,,,,,FF,,,,,,,,0.3321,,,,,,,,,,,,,,,,,,,,,,61035d9ff98a80eac67779b7,61036632238f87866c3162fd,2021-07-29_21h39.17.031,Simcolourproject_2stim_asymm_v5,2020.2.10,Win32,60,61025ae37ef11b136ea224fe,,,,,,,,,784,43,69,1,0,0,response1disk,,7,13,7,1,0,0,rectangle,13,7,1,0,0,13,7,1,0,0,1,98,258,33,1,,,,,,,,
,,,,,,,,,,,,,FF,,,,,,,,0.3988,,,,,,,,,,,,,,,,,,,,,,61035d9ff98a80eac67779b7,61036632238f87866c3162fd,2021-07-29_21h39.17.031,Simcolourproject_2stim_asymm_v5,2020.2.10,Win32,60,61025ae37ef11b136ea224fe,,,,,,,,,1732,51,72,1,0,0,response1disk,,7,20,-5,1,0,0,rectangle,20,-5,1,0,0,20,-5,1,0,0,1,99,259,127,1,,,,,,,,
,,,,,,,,,,,,,FF,,,,,,,,0.2983,,,,,,,,,,,,,,,,,,,,,,61035d9ff98a80eac67779b7,61036632238f87866c3162fd,2021-07-29_21h39.17.031,Simcolourproject_2stim_asymm_v5,2020.2.10,Win32,60,61025ae37ef11b136ea224fe,,,,,,,,,3765,54,76,1,0,0,response1disk,,7,16,6,1,0,0,rectangle,16,6,1,0,0,16,6,1,0,0,1,100,260,144,1,,,,,,,,
,,,,,,,,,,,,,FF,,,,,,,,0.4153,,,,,,,,,,,,,,,,,,,,,,61035d9ff98a80eac67779b7,61036632238f87866c3162fd,2021-07-29_21h39.17.031,Simcolourproject_2stim_asymm_v5,2020.2.10,Win32,60,61025ae37ef11b136ea224fe,,,,,,,,,1804,41,69,1,0,0,response1disk,,7,10,-1,1,0,0,rectangle,10,-1,1,0,0,10,-1,1,0,0,1,101,261,119,1,,,,,,,,
,,,,,,,,,,,,,FF,,,,,,,,0.3494,,,,,,,,,,,,,,,,,,,,,,61035d9ff98a80eac67779b7,61036632238f87866c3162fd,2021-07-29_21h39.17.031,Simcolourproject_2stim_asymm_v5,2020.2.10,Win32,60,61025ae37ef11b136ea224fe,,,,,,,,,3651,41,81,1,0,0,response1disk,,7,15,1,1,0,0,rectangle,15,1,1,0,0,15,1,1,0,0,1,102,262,142,1,,,,,,,,
,,,,,,,,,,,,,FF,,,,,,,,0.9644,,,,,,,,,,,,,,,,,,,,,,61035d9ff98a80eac67779b7,61036632238f87866c3162fd,2021-07-29_21h39.17.031,Simcolourproject_2stim_asymm_v5,2020.2.10,Win32,60,61025ae37ef11b136ea224fe,,,,,,,,,1158,37,72,1,0,0,response1disk,,7,15,-5,1,0,0,rectangle,15,-5,1,0,0,15,-5,1,0,0,1,103,263,31,1,,,,,,,,
,,,,,,,,,,,,,FF,,,,,,,,0.4149,,,,,,,,,,,,,,,,,,,,,,61035d9ff98a80eac67779b7,61036632238f87866c3162fd,2021-07-29_21h39.17.031,Simcolourproject_2stim_asymm_v5,2020.2.10,Win32,60,61025ae37ef11b136ea224fe,,,,,,,,,2214,45,61,1,0,0,response1disk,,7,20,-4,1,0,0,rectangle,20,-4,1,0,0,20,-4,1,0,0,1,104,264,22,1,,,,,,,,
,,,,,,,,,,,,,FF,,,,,,,,1.1979,,,,,,,,,,,,,,,,,,,,,,61035d9ff98a80eac67779b7,61036632238f87866c3162fd,2021-07-29_21h39.17.031,Simcolourproject_2stim_asymm_v5,2020.2.10,Win32,60,61025ae37ef11b136ea224fe,,,,,,,,,2664,79,26,1,0,0,response1disk,,6,18,-7,1,0,0,rectangle,18,-7,1,0,0,18,-7,1,0,0,1,105,265,157,1,,,,,,,,
,,,,,,,,,,,,,FF,,,,,,,,0.3497,,,,,,,,,,,,,,,,,,,,,,61035d9ff98a80eac67779b7,61036632238f87866c3162fd,2021-07-29_21h39.17.031,Simcolourproject_2stim_asymm_v5,2020.2.10,Win32,60,61025ae37ef11b136ea224fe,,,,,,,,,3065,40,88,1,0,0,response1disk,,7,9,-13,1,0,0,rectangle,57,-93,1,0,0,18,3,1,0,0,1,106,266,152,1,,response3disk_3,TRUE,4,4,"[165,193,202,247,158,308,280,113,288,183,244,314,267,169,159,275,22,165,221,137]",1.2468,rectangle
,,,,,,,,,,,,,FF,,,,,,,,0.5652,,,,,,,,,,,,,,,,,,,,,,61035d9ff98a80eac67779b7,61036632238f87866c3162fd,2021-07-29_21h39.17.031,Simcolourproject_2stim_asymm_v5,2020.2.10,Win32,60,61025ae37ef11b136ea224fe,,,,,,,,,3355,37,74,1,0,0,response1disk,,7,10,6,1,0,0,rectangle,10,6,1,0,0,10,6,1,0,0,1,107,267,133,1,,,,,,,,
,,,,,,,,,,,,,FF,,,,,,,,0.4659,,,,,,,,,,,,,,,,,,,,,,61035d9ff98a80eac67779b7,61036632238f87866c3162fd,2021-07-29_21h39.17.031,Simcolourproject_2stim_asymm_v5,2020.2.10,Win32,60,61025ae37ef11b136ea224fe,,,,,,,,,1429,45,75,1,0,0,response1disk,,7,13,-4,1,0,0,rectangle,13,-4,1,0,0,13,-4,1,0,0,1,108,268,125,1,,,,,,,,
,,,,,,,,,,,,,FF,,,,,,,,0.366,,,,,,,,,,,,,,,,,,,,,,61035d9ff98a80eac67779b7,61036632238f87866c3162fd,2021-07-29_21h39.17.031,Simcolourproject_2stim_asymm_v5,2020.2.10,Win32,60,61025ae37ef11b136ea224fe,,,,,,,,,616,49,62,1,0,0,response1disk,,7,9,-8,1,0,0,rectangle,9,-8,1,0,0,9,-8,1,0,0,1,109,269,86,1,,,,,,,,
,,,,,,,,,,,,,FF,,,,,,,,0.3835,,,,,,,,,,,,,,,,,,,,,,61035d9ff98a80eac67779b7,61036632238f87866c3162fd,2021-07-29_21h39.17.031,Simcolourproject_2stim_asymm_v5,2020.2.10,Win32,60,61025ae37ef11b136ea224fe,,,,,,,,,57,33,65,1,0,0,response1disk,,7,8,-7,1,0,0,rectangle,8,-7,1,0,0,8,-7,1,0,0,1,110,270,109,1,,,,,,,,
,,,,,,,,,,,,,FF,,,,,,,,0.2829,,,,,,,,,,,,,,,,,,,,,,61035d9ff98a80eac67779b7,61036632238f87866c3162fd,2021-07-29_21h39.17.031,Simcolourproject_2stim_asymm_v5,2020.2.10,Win32,60,61025ae37ef11b136ea224fe,,,,,,,,,1079,43,69,1,0,0,response1disk,,7,19,2,1,0,0,rectangle,19,2,1,0,0,19,2,1,0,0,1,111,271,47,1,,,,,,,,
,,,,,,,,,,,,,FF,,,,,,,,0.2666,,,,,,,,,,,,,,,,,,,,,,61035d9ff98a80eac67779b7,61036632238f87866c3162fd,2021-07-29_21h39.17.031,Simcolourproject_2stim_asymm_v5,2020.2.10,Win32,60,61025ae37ef11b136ea224fe,,,,,,,,,3496,36,81,1,0,0,response1disk,,7,13,-9,1,0,0,rectangle,13,-9,1,0,0,13,-9,1,0,0,1,112,272,126,1,,,,,,,,
,,,,,,,,,,,,,FF,,,,,,,,0.3986,,,,,,,,,,,,,,,,,,,,,,61035d9ff98a80eac67779b7,61036632238f87866c3162fd,2021-07-29_21h39.17.031,Simcolourproject_2stim_asymm_v5,2020.2.10,Win32,60,61025ae37ef11b136ea224fe,,,,,,,,,1389,38,61,1,0,0,response1disk,,7,12,-3,1,0,0,rectangle,12,-3,1,0,0,12,-3,1,0,0,1,113,273,13,1,,,,,,,,
,,,,,,,,,,,,,FF,,,,,,,,0.3477,,,,,,,,,,,,,,,,,,,,,,61035d9ff98a80eac67779b7,61036632238f87866c3162fd,2021-07-29_21h39.17.031,Simcolourproject_2stim_asymm_v5,2020.2.10,Win32,60,61025ae37ef11b136ea224fe,,,,,,,,,2071,40,71,1,0,0,response1disk,,7,12,1,1,0,0,rectangle,-35,-94,1,0,0,18,-9,1,0,0,1,114,274,24,1,,response5disk_3,TRUE,3,3,"[165,193,202,247,158,308,280,113,288,183,244,314,267,169,159,275,22,165,221,137]",1.498,rectangle
,,,,,,,,,,,,,FF,,,,,,,,0.5491,,,,,,,,,,,,,,,,,,,,,,61035d9ff98a80eac67779b7,61036632238f87866c3162fd,2021-07-29_21h39.17.031,Simcolourproject_2stim_asymm_v5,2020.2.10,Win32,60,61025ae37ef11b136ea224fe,,,,,,,,,2225,39,87,1,0,0,response1disk,,7,18,12,1,0,0,rectangle,18,12,1,0,0,18,12,1,0,0,1,115,275,27,1,,,,,,,,
,,,,,,,,,,,,,FF,,,,,,,,0.4994,,,,,,,,,,,,,,,,,,,,,,61035d9ff98a80eac67779b7,61036632238f87866c3162fd,2021-07-29_21h39.17.031,Simcolourproject_2stim_asymm_v5,2020.2.10,Win32,60,61025ae37ef11b136ea224fe,,,,,,,,,484,45,63,1,0,0,response1disk,,7,9,-3,1,0,0,rectangle,9,-3,1,0,0,9,-3,1,0,0,1,116,276,115,1,,,,,,,,
,,,,,,,,,,,,,FF,,,,,,,,1.4482,,,,,,,,,,,,,,,,,,,,,,61035d9ff98a80eac67779b7,61036632238f87866c3162fd,2021-07-29_21h39.17.031,Simcolourproject_2stim_asymm_v5,2020.2.10,Win32,60,61025ae37ef11b136ea224fe,,,,,,,,,635,96,30,1,0,0,response1disk,,6,21,-12,1,0,0,rectangle,21,-12,1,0,0,21,-12,1,0,0,1,117,277,121,1,,,,,,,,
,,,,,,,,,,,,,FF,,,,,,,,1.0341,,,,,,,,,,,,,,,,,,,,,,61035d9ff98a80eac67779b7,61036632238f87866c3162fd,2021-07-29_21h39.17.031,Simcolourproject_2stim_asymm_v5,2020.2.10,Win32,60,61025ae37ef11b136ea224fe,,,,,,,,,1674,44,68,1,0,0,response1disk,,7,1,-3,1,0,0,rectangle,1,-3,1,0,0,1,-3,1,0,0,1,118,278,69,1,,,,,,,,
,,,,,,,,,,,,,FF,,,,,,,,1.4635,,,,,,,,,,,,,,,,,,,,,,61035d9ff98a80eac67779b7,61036632238f87866c3162fd,2021-07-29_21h39.17.031,Simcolourproject_2stim_asymm_v5,2020.2.10,Win32,60,61025ae37ef11b136ea224fe,,,,,,,,,3392,86,-42,1,0,0,response3disk,,5,0,0,1,0,0,rectangle,89,-42,1,0,0,19,-5,1,0,0,1,119,279,150,1,,response3disk_3,TRUE,5,5,"[165,193,202,247,158,308,280,113,288,183,244,314,267,169,159,275,22,165,221,137]",1.1993,rectangle
,,,,,,,,,,,,,FF,,,,,,,,0.6815,,,,,,,,,,,,,,,,,,,,,,61035d9ff98a80eac67779b7,61036632238f87866c3162fd,2021-07-29_21h39.17.031,Simcolourproject_2stim_asymm_v5,2020.2.10,Win32,60,61025ae37ef11b136ea224fe,,,,,,,,,3929,33,86,1,0,0,response1disk,,7,-4,7,1,0,0,rectangle,-4,7,1,0,0,-4,7,1,0,0,1,120,280,72,1,,,,,,,,
,,,,,,,,,,,,,FF,,,,,,,,0.416,,,,,,,,,,,,,,,,,,,,,,61035d9ff98a80eac67779b7,61036632238f87866c3162fd,2021-07-29_21h39.17.031,Simcolourproject_2stim_asymm_v5,2020.2.10,Win32,60,61025ae37ef11b136ea224fe,,,,,,,,,667,36,82,1,0,0,response1disk,,7,3,-7,1,0,0,rectangle,3,-7,1,0,0,3,-7,1,0,0,1,121,281,15,1,,,,,,,,
,,,,,,,,,,,,,FF,,,,,,,,0.3986,,,,,,,,,,,,,,,,,,,,,,61035d9ff98a80eac67779b7,61036632238f87866c3162fd,2021-07-29_21h39.17.031,Simcolourproject_2stim_asymm_v5,2020.2.10,Win32,60,61025ae37ef11b136ea224fe,,,,,,,,,841,40,68,1,0,0,response1disk,,7,3,-8,1,0,0,rectangle,3,-8,1,0,0,3,-8,1,0,0,1,122,282,45,1,,,,,,,,
,,,,,,,,,,,,,FF,,,,,,,,0.7791,,,,,,,,,,,,,,,,,,,,,,61035d9ff98a80eac67779b7,61036632238f87866c3162fd,2021-07-29_21h39.17.031,Simcolourproject_2stim_asymm_v5,2020.2.10,Win32,60,61025ae37ef11b136ea224fe,,,,,,,,,3558,88,-45,1,0,0,response3disk,,5,8,1,1,0,0,rectangle,8,1,1,0,0,8,1,1,0,0,1,123,283,116,1,,,,,,,,
,,,,,,,,,,,,,FF,,,,,,,,0.7527,,,,,,,,,,,,,,,,,,,,,,61035d9ff98a80eac67779b7,61036632238f87866c3162fd,2021-07-29_21h39.17.031,Simcolourproject_2stim_asymm_v5,2020.2.10,Win32,60,61025ae37ef11b136ea224fe,,,,,,,,,2414,55,84,1,0,0,response1disk,,7,20,-15,1,0,0,rectangle,20,-15,1,0,0,20,-15,1,0,0,1,124,284,145,1,,,,,,,,
,,,,,,,,,,,,,FF,,,,,,,,1.1816,,,,,,,,,,,,,,,,,,,,,,61035d9ff98a80eac67779b7,61036632238f87866c3162fd,2021-07-29_21h39.17.031,Simcolourproject_2stim_asymm_v5,2020.2.10,Win32,60,61025ae37ef11b136ea224fe,,,,,,,,,4027,42,-93,1,0,0,response3disk,,4,6,-11,1,0,0,rectangle,6,-11,1,0,0,6,-11,1,0,0,1,125,285,44,1,,,,,,,,
,,,,,,,,,,,,,FF,,,,,,,,1.0816,,,,,,,,,,,,,,,,,,,,,,61035d9ff98a80eac67779b7,61036632238f87866c3162fd,2021-07-29_21h39.17.031,Simcolourproject_2stim_asymm_v5,2020.2.10,Win32,60,61025ae37ef11b136ea224fe,,,,,,,,,1933,36,49,1,0,0,response1disk,,7,6,-6,1,0,0,rectangle,6,-6,1,0,0,6,-6,1,0,0,1,126,286,134,1,,,,,,,,
,,,,,,,,,,,,,FF,,,,,,,,0.6316,,,,,,,,,,,,,,,,,,,,,,61035d9ff98a80eac67779b7,61036632238f87866c3162fd,2021-07-29_21h39.17.031,Simcolourproject_2stim_asymm_v5,2020.2.10,Win32,60,61025ae37ef11b136ea224fe,,,,,,,,,4281,91,32,1,0,0,response1disk,,6,9,1,1,0,0,rectangle,42,-97,1,0,0,28,-2,1,0,0,1,127,287,34,1,,response3disk_3,TRUE,4,4,"[165,193,202,247,158,308,280,113,288,183,244,314,267,169,159,275,22,165,221,137]",1.1145,rectangle
,,,,,,,,,,,,,FF,,,,,,,,1.317,,,,,,,,,,,,,,,,,,,,,,61035d9ff98a80eac67779b7,61036632238f87866c3162fd,2021-07-29_21h39.17.031,Simcolourproject_2stim_asymm_v5,2020.2.10,Win32,60,61025ae37ef11b136ea224fe,,,,,,,,,2029,-38,-95,1,0,0,response5disk,,3,3,7,1,0,0,rectangle,3,7,1,0,0,3,7,1,0,0,1,128,288,129,1,,,,,,,,
,,,,,,,,,,,,,FF,,,,,,,,0.7329,,,,,,,,,,,,,,,,,,,,,,61035d9ff98a80eac67779b7,61036632238f87866c3162fd,2021-07-29_21h39.17.031,Simcolourproject_2stim_asymm_v5,2020.2.10,Win32,60,61025ae37ef11b136ea224fe,,,,,,,,,1701,59,97,1,0,0,response1disk,,7,-2,-11,1,0,0,rectangle,-2,-11,1,0,0,-2,-11,1,0,0,1,129,289,148,1,,,,,,,,
,,,,,,,,,,,,,FF,,,,,,,,0.5019,,,,,,,,,,,,,,,,,,,,,,61035d9ff98a80eac67779b7,61036632238f87866c3162fd,2021-07-29_21h39.17.031,Simcolourproject_2stim_asymm_v5,2020.2.10,Win32,60,61025ae37ef11b136ea224fe,,,,,,,,,228,54,88,1,0,0,response1disk,,7,9,5,1,0,0,rectangle,9,5,1,0,0,9,5,1,0,0,1,130,290,151,1,,,,,,,,
,,,,,,,,,,,,,FF,,,,,,,,0.4661,,,,,,,,,,,,,,,,,,,,,,61035d9ff98a80eac67779b7,61036632238f87866c3162fd,2021-07-29_21h39.17.031,Simcolourproject_2stim_asymm_v5,2020.2.10,Win32,60,61025ae37ef11b136ea224fe,,,,,,,,,2392,39,58,1,0,0,response1disk,,7,8,-1,1,0,0,rectangle,8,-1,1,0,0,8,-1,1,0,0,1,131,291,58,1,,,,,,,,
,,,,,,,,,,,,,FF,,,,,,,,0.3659,,,,,,,,,,,,,,,,,,,,,,61035d9ff98a80eac67779b7,61036632238f87866c3162fd,2021-07-29_21h39.17.031,Simcolourproject_2stim_asymm_v5,2020.2.10,Win32,60,61025ae37ef11b136ea224fe,,,,,,,,,1859,33,55,1,0,0,response1disk,,7,6,-7,1,0,0,rectangle,6,-7,1,0,0,6,-7,1,0,0,1,132,292,123,1,,,,,,,,
,,,,,,,,,,,,,FF,,,,,,,,0.4321,,,,,,,,,,,,,,,,,,,,,,61035d9ff98a80eac67779b7,61036632238f87866c3162fd,2021-07-29_21h39.17.031,Simcolourproject_2stim_asymm_v5,2020.2.10,Win32,60,61025ae37ef11b136ea224fe,,,,,,,,,848,41,68,1,0,0,response1disk,,7,1,-11,1,0,0,rectangle,1,-11,1,0,0,1,-11,1,0,0,1,133,293,26,1,,,,,,,,
,,,,,,,,,,,,,FF,,,,,,,,0.3658,,,,,,,,,,,,,,,,,,,,,,61035d9ff98a80eac67779b7,61036632238f87866c3162fd,2021-07-29_21h39.17.031,Simcolourproject_2stim_asymm_v5,2020.2.10,Win32,60,61025ae37ef11b136ea224fe,,,,,,,,,2465,30,73,1,0,0,response1disk,,7,9,7,1,0,0,rectangle,9,7,1,0,0,9,7,1,0,0,1,134,294,20,1,,,,,,,,
,,,,,,,,,,,,,FF,,,,,,,,0.3496,,,,,,,,,,,,,,,,,,,,,,61035d9ff98a80eac67779b7,61036632238f87866c3162fd,2021-07-29_21h39.17.031,Simcolourproject_2stim_asymm_v5,2020.2.10,Win32,60,61025ae37ef11b136ea224fe,,,,,,,,,859,45,71,1,0,0,response1disk,,7,4,-15,1,0,0,rectangle,4,-15,1,0,0,4,-15,1,0,0,1,135,295,92,1,,,,,,,,
,,,,,,,,,,,,,FF,,,,,,,,0.4487,,,,,,,,,,,,,,,,,,,,,,61035d9ff98a80eac67779b7,61036632238f87866c3162fd,2021-07-29_21h39.17.031,Simcolourproject_2stim_asymm_v5,2020.2.10,Win32,60,61025ae37ef11b136ea224fe,,,,,,,,,2241,49,62,1,0,0,response1disk,,7,8,-6,1,0,0,rectangle,8,-6,1,0,0,8,-6,1,0,0,1,136,296,39,1,,,,,,,,
,,,,,,,,,,,,,FF,,,,,,,,0.2998,,,,,,,,,,,,,,,,,,,,,,61035d9ff98a80eac67779b7,61036632238f87866c3162fd,2021-07-29_21h39.17.031,Simcolourproject_2stim_asymm_v5,2020.2.10,Win32,60,61025ae37ef11b136ea224fe,,,,,,,,,197,27,67,1,0,0,response1disk,,7,24,4,1,0,0,rectangle,24,4,1,0,0,24,4,1,0,0,1,137,297,5,1,,,,,,,,
,,,,,,,,,,,,,FF,,,,,,,,0.5153,,,,,,,,,,,,,,,,,,,,,,61035d9ff98a80eac67779b7,61036632238f87866c3162fd,2021-07-29_21h39.17.031,Simcolourproject_2stim_asymm_v5,2020.2.10,Win32,60,61025ae37ef11b136ea224fe,,,,,,,,,4152,45,83,1,0,0,response1disk,,7,6,-9,1,0,0,rectangle,6,-9,1,0,0,6,-9,1,0,0,1,138,298,73,1,,,,,,,,
,,,,,,,,,,,,,FF,,,,,,,,0.3167,,,,,,,,,,,,,,,,,,,,,,61035d9ff98a80eac67779b7,61036632238f87866c3162fd,2021-07-29_21h39.17.031,Simcolourproject_2stim_asymm_v5,2020.2.10,Win32,60,61025ae37ef11b136ea224fe,,,,,,,,,1102,35,60,1,0,0,response1disk,,7,20,-7,1,0,0,rectangle,20,-7,1,0,0,20,-7,1,0,0,1,139,299,17,1,,,,,,,,
,,,,,,,,,,,,,FF,,,,,,,,0.2653,,,,,,,,,,,,,,,,,,,,,,61035d9ff98a80eac67779b7,61036632238f87866c3162fd,2021-07-29_21h39.17.031,Simcolourproject_2stim_asymm_v5,2020.2.10,Win32,60,61025ae37ef11b136ea224fe,,,,,,,,,2062,35,68,1,0,0,response1disk,,7,17,-14,1,0,0,rectangle,17,-14,1,0,0,17,-14,1,0,0,1,140,300,118,1,,,,,,,,
,,,,,,,,,,,,,FF,,,,,,,,0.7648,,,,,,,,,,,,,,,,,,,,,,61035d9ff98a80eac67779b7,61036632238f87866c3162fd,2021-07-29_21h39.17.031,Simcolourproject_2stim_asymm_v5,2020.2.10,Win32,60,61025ae37ef11b136ea224fe,,,,,,,,,3435,79,-45,1,0,0,response3disk,,5,2,6,1,0,0,rectangle,2,6,1,0,0,2,6,1,0,0,1,141,301,54,1,,,,,,,,
,,,,,,,,,,,,,FF,,,,,,,,0.9324,,,,,,,,,,,,,,,,,,,,,,61035d9ff98a80eac67779b7,61036632238f87866c3162fd,2021-07-29_21h39.17.031,Simcolourproject_2stim_asymm_v5,2020.2.10,Win32,60,61025ae37ef11b136ea224fe,,,,,,,,,1227,90,41,1,0,0,response1disk,,6,10,-10,1,0,0,rectangle,10,-10,1,0,0,10,-10,1,0,0,1,142,302,29,1,,,,,,,,
,,,,,,,,,,,,,FF,,,,,,,,0.5494,,,,,,,,,,,,,,,,,,,,,,61035d9ff98a80eac67779b7,61036632238f87866c3162fd,2021-07-29_21h39.17.031,Simcolourproject_2stim_asymm_v5,2020.2.10,Win32,60,61025ae37ef11b136ea224fe,,,,,,,,,1179,42,85,1,0,0,response1disk,,7,10,-7,1,0,0,rectangle,10,-7,1,0,0,10,-7,1,0,0,1,143,303,153,1,,,,,,,,
