key_resp.keys,key_resp.rt,key_resp_14.keys,key_resp_14.rt,key_resp_15.keys,key_resp_15.rt,key_resp_17.keys,key_resp_17.rt,key_resp_9.keys,key_resp_9.rt,key_resp_10.keys,key_resp_10.rt,practice_comparison,Ecc,mouse_5.x,mouse_5.y,mouse_5.leftButton,mouse_5.midButton,mouse_5.rightButton,mouse_5.clicked_name,pracsimilarity,response_time,mouse_10.x,mouse_10.y,mouse_10.leftButton,mouse_10.midButton,mouse_10.rightButton,mouse_10.clicked_name,mouse_7.x,mouse_7.y,mouse_7.leftButton,mouse_7.midButton,mouse_7.rightButton,mouse_6.x,mouse_6.y,mouse_6.leftButton,mouse_6.midButton,mouse_6.rightButton,duringprac.thisRepN,duringprac.thisTrialN,duringprac.thisN,duringprac.thisIndex,duringprac.ran,participant,session,date,expName,psychopyVersion,OS,frameRate,study_id,mouse_7.clicked_name,catchpracsimilarity,catch_response_time,catchnumberprac,catchtrialorderprac,mouse_6.clicked_name,key_resp_22.keys,key_resp_22.rt,realcomparison,mouse.x,mouse.y,mouse.leftButton,mouse.midButton,mouse.rightButton,mouse.clicked_name,Colour2,similarity,mouse_2.x,mouse_2.y,mouse_2.leftButton,mouse_2.midButton,mouse_2.rightButton,mouse_2.clicked_name,mouse_3.x,mouse_3.y,mouse_3.leftButton,mouse_3.midButton,mouse_3.rightButton,mouse_3.clicked_name,catchornah,catchsimilarity,catchnumber,catchtrialorder,catchRT,mouse_11.x,mouse_11.y,mouse_11.leftButton,mouse_11.midButton,mouse_11.rightButton,mouse_11.clicked_name,trials_2.thisRepN,trials_2.thisTrialN,trials_2.thisN,trials_2.thisIndex,trials_2.ran,Colour1
space,13.5823,space,11.9673,space,38.0612,space,7.0797,space,0.989,space,4.0266,4,FF,49.25567627,-101.8286133,1,0,0,response3disk_5,4,11.3896,3.159057617,-4.065307617,1,0,0,rectangle_8,3.159057617,-4.065307617,1,0,0,3.159057617,-4.065307617,1,0,0,0,0,0,5,1,610341bbc7f7114aea9a2cea,61036a8605f315829a6dd532,2021-07-29_22h57.44.844,Simcolourproject_2stim_asymm_v5,2020.2.10,MacIntel,60,61025ae37ef11b136ea224fe,,,,,,,,,,,,,,,,,,,,,,,,,,,,,,,,,,,,,,,,,,,,,,
,,,,,,,,,,,,108,PF,-55.81451416,80.37109375,1,0,0,response7disk_5,0,4.4512,-2.342224121,4.11618042,1,0,0,rectangle_8,95.59246826,-35.92657471,1,0,0,-3.489746094,5.756958008,1,0,0,0,1,1,4,1,610341bbc7f7114aea9a2cea,61036a8605f315829a6dd532,2021-07-29_22h57.44.844,Simcolourproject_2stim_asymm_v5,2020.2.10,MacIntel,60,61025ae37ef11b136ea224fe,response3disk_7,5,3.4852,5,"[2,5]",rectangle_4,,,,,,,,,,,,,,,,,,,,,,,,,,,,,,,,,,,,,,,,
,,,,,,,,,,,,81,PF,35.40795898,93.64187622,1,0,0,response1disk_5,7,6.035,-6.559448242,0.484313965,1,0,0,rectangle_8,-6.559448242,0.484313965,1,0,0,-6.559448242,0.484313965,1,0,0,0,2,2,1,1,610341bbc7f7114aea9a2cea,61036a8605f315829a6dd532,2021-07-29_22h57.44.844,Simcolourproject_2stim_asymm_v5,2020.2.10,MacIntel,60,61025ae37ef11b136ea224fe,,,,,,,,,,,,,,,,,,,,,,,,,,,,,,,,,,,,,,,,,,,,,,
,,,,,,,,,,,,122,PF,28.77642822,97.07873535,1,0,0,response1disk_5,7,2.4678,-2.985839844,-0.899719238,1,0,0,rectangle_8,-2.985839844,-0.899719238,1,0,0,-2.985839844,-0.899719238,1,0,0,0,3,3,2,1,610341bbc7f7114aea9a2cea,61036a8605f315829a6dd532,2021-07-29_22h57.44.844,Simcolourproject_2stim_asymm_v5,2020.2.10,MacIntel,60,61025ae37ef11b136ea224fe,,,,,,,,,,,,,,,,,,,,,,,,,,,,,,,,,,,,,,,,,,,,,,
,,,,,,,,,,,,159,FF,75.56903076,-43.88424683,1,0,0,response3disk_5,5,2.5826,-2.891784668,1.189575195,1,0,0,rectangle_8,78.92840576,-31.20828247,1,0,0,4.448974609,-0.656860352,1,0,0,0,4,4,3,1,610341bbc7f7114aea9a2cea,61036a8605f315829a6dd532,2021-07-29_22h57.44.844,Simcolourproject_2stim_asymm_v5,2020.2.10,MacIntel,60,61025ae37ef11b136ea224fe,response3disk_7,5,1.6657,5,"[2,5]",rectangle_4,,,,,,,,,,,,,,,,,,,,,,,,,,,,,,,,,,,,,,,,
,,,,,,,,,,,,60,PF,81.57330322,-48.90808105,1,0,0,response3disk_5,5,2.0671,-7.568725586,2.880767822,1,0,0,rectangle_8,-7.568725586,2.880767822,1,0,0,-7.568725586,2.880767822,1,0,0,0,5,5,6,1,610341bbc7f7114aea9a2cea,61036a8605f315829a6dd532,2021-07-29_22h57.44.844,Simcolourproject_2stim_asymm_v5,2020.2.10,MacIntel,60,61025ae37ef11b136ea224fe,,,,,,,,,,,,,,,,,,,,,,,,,,,,,,,,,,,,,,,,,,,,,,
,,,,,,,,,,,,113,FF,-86.29095459,34.81225586,1,0,0,response7disk_5,1,1.5006,3.319335938,7.415100098,1,0,0,rectangle_8,3.319335938,7.415100098,1,0,0,3.319335938,7.415100098,1,0,0,0,6,6,0,1,610341bbc7f7114aea9a2cea,61036a8605f315829a6dd532,2021-07-29_22h57.44.844,Simcolourproject_2stim_asymm_v5,2020.2.10,MacIntel,60,61025ae37ef11b136ea224fe,,,,,,,,,,,,,,,,,,,,,,,,,,,,,,,,,,,,,,,,,,,,,,
,,,,,,,,,,,,,FF,,,,,,,,2.5671,,,,,,,,,,,,,,,,,,,,,,610341bbc7f7114aea9a2cea,61036a8605f315829a6dd532,2021-07-29_22h57.44.844,Simcolourproject_2stim_asymm_v5,2020.2.10,MacIntel,60,61025ae37ef11b136ea224fe,,,,,,,space,18.4469,883,40.57110596,70.98376465,1,0,0,response1disk,,7,-2.480651855,4.241516113,1,0,0,rectangle,86.69891357,-20.01556396,1,0,0,response3disk_3,TRUE,5,5,"[1,66,10,289,113,91,60,80,38,308,30,24,35,251,149,170,47,290,133,283]",1.6339,-0.49597168,6.245452881,1,0,0,rectangle,0,0,0,113,1,
,,,,,,,,,,,,,FF,,,,,,,,2.7154,,,,,,,,,,,,,,,,,,,,,,610341bbc7f7114aea9a2cea,61036a8605f315829a6dd532,2021-07-29_22h57.44.844,Simcolourproject_2stim_asymm_v5,2020.2.10,MacIntel,60,61025ae37ef11b136ea224fe,,,,,,,,,2362,-28.76733398,-76.92907715,1,0,0,response5disk,,3,7.254455566,0.584350586,1,0,0,rectangle,7.254455566,0.584350586,1,0,0,,,,,,,7.254455566,0.584350586,1,0,0,,0,1,1,97,1,
,,,,,,,,,,,,,FF,,,,,,,,2.0343,,,,,,,,,,,,,,,,,,,,,,610341bbc7f7114aea9a2cea,61036a8605f315829a6dd532,2021-07-29_22h57.44.844,Simcolourproject_2stim_asymm_v5,2020.2.10,MacIntel,60,61025ae37ef11b136ea224fe,,,,,,,,,134,54.66412354,33.99481201,1,0,0,response1disk,,6,-4.203063965,0.423034668,1,0,0,rectangle,-4.203063965,0.423034668,1,0,0,,,,,,,-4.203063965,0.423034668,1,0,0,,0,2,2,84,1,
,,,,,,,,,,,,,FF,,,,,,,,1.7485,,,,,,,,,,,,,,,,,,,,,,610341bbc7f7114aea9a2cea,61036a8605f315829a6dd532,2021-07-29_22h57.44.844,Simcolourproject_2stim_asymm_v5,2020.2.10,MacIntel,60,61025ae37ef11b136ea224fe,,,,,,,,,131,81.27032471,-42.51046753,1,0,0,response3disk,,5,-2.930053711,-3.406982422,1,0,0,rectangle,-2.930053711,-3.406982422,1,0,0,,,,,,,-2.930053711,-3.406982422,1,0,0,,0,3,3,72,1,
,,,,,,,,,,,,,FF,,,,,,,,1.6336,,,,,,,,,,,,,,,,,,,,,,610341bbc7f7114aea9a2cea,61036a8605f315829a6dd532,2021-07-29_22h57.44.844,Simcolourproject_2stim_asymm_v5,2020.2.10,MacIntel,60,61025ae37ef11b136ea224fe,,,,,,,,,797,69.85803223,-33.22955322,1,0,0,response3disk,,5,11.52111816,1.239135742,1,0,0,rectangle,11.52111816,1.239135742,1,0,0,,,,,,,11.52111816,1.239135742,1,0,0,,0,4,4,16,1,
,,,,,,,,,,,,,FF,,,,,,,,1.6332,,,,,,,,,,,,,,,,,,,,,,610341bbc7f7114aea9a2cea,61036a8605f315829a6dd532,2021-07-29_22h57.44.844,Simcolourproject_2stim_asymm_v5,2020.2.10,MacIntel,60,61025ae37ef11b136ea224fe,,,,,,,,,1300,42.37261963,-96.66009521,1,0,0,response3disk,,4,-2.303283691,-2.057067871,1,0,0,rectangle,-2.303283691,-2.057067871,1,0,0,,,,,,,-2.303283691,-2.057067871,1,0,0,,0,5,5,71,1,
,,,,,,,,,,,,,FF,,,,,,,,3.698,,,,,,,,,,,,,,,,,,,,,,610341bbc7f7114aea9a2cea,61036a8605f315829a6dd532,2021-07-29_22h57.44.844,Simcolourproject_2stim_asymm_v5,2020.2.10,MacIntel,60,61025ae37ef11b136ea224fe,,,,,,,,,762,72.21624756,-35.77648926,1,0,0,response3disk,,5,-0.414855957,-3.388702393,1,0,0,rectangle,-0.414855957,-3.388702393,1,0,0,,,,,,,-0.414855957,-3.388702393,1,0,0,,0,6,6,25,1,
,,,,,,,,,,,,,FF,,,,,,,,1.2347,,,,,,,,,,,,,,,,,,,,,,610341bbc7f7114aea9a2cea,61036a8605f315829a6dd532,2021-07-29_22h57.44.844,Simcolourproject_2stim_asymm_v5,2020.2.10,MacIntel,60,61025ae37ef11b136ea224fe,,,,,,,,,2693,39.5713501,92.30957031,1,0,0,response1disk,,7,1.356872559,1.340087891,1,0,0,rectangle,1.356872559,1.340087891,1,0,0,,,,,,,1.356872559,1.340087891,1,0,0,,0,7,7,136,1,
,,,,,,,,,,,,,FF,,,,,,,,0.8841,,,,,,,,,,,,,,,,,,,,,,610341bbc7f7114aea9a2cea,61036a8605f315829a6dd532,2021-07-29_22h57.44.844,Simcolourproject_2stim_asymm_v5,2020.2.10,MacIntel,60,61025ae37ef11b136ea224fe,,,,,,,,,2514,35.20513916,89.50006104,1,0,0,response1disk,,7,8.313964844,-0.494873047,1,0,0,rectangle,8.313964844,-0.494873047,1,0,0,,,,,,,8.313964844,-0.494873047,1,0,0,,0,8,8,15,1,
,,,,,,,,,,,,,FF,,,,,,,,1.767,,,,,,,,,,,,,,,,,,,,,,610341bbc7f7114aea9a2cea,61036a8605f315829a6dd532,2021-07-29_22h57.44.844,Simcolourproject_2stim_asymm_v5,2020.2.10,MacIntel,60,61025ae37ef11b136ea224fe,,,,,,,,,341,70.12536621,-35.73550415,1,0,0,response3disk,,5,12.67169189,-0.784423828,1,0,0,rectangle,-70.25164795,39.2522583,1,0,0,response7disk_3,TRUE,1,1,"[1,66,10,289,113,91,60,80,38,308,30,24,35,251,149,170,47,290,133,283]",1.9009,3.942626953,-0.834228516,1,0,0,rectangle,0,9,9,12,1,
,,,,,,,,,,,,,FF,,,,,,,,3.0495,,,,,,,,,,,,,,,,,,,,,,610341bbc7f7114aea9a2cea,61036a8605f315829a6dd532,2021-07-29_22h57.44.844,Simcolourproject_2stim_asymm_v5,2020.2.10,MacIntel,60,61025ae37ef11b136ea224fe,,,,,,,,,645,100.8182983,-45.22637939,1,0,0,response3disk,,5,3.888671875,2.41229248,1,0,0,rectangle,3.888671875,2.41229248,1,0,0,,,,,,,3.888671875,2.41229248,1,0,0,,0,10,10,94,1,
,,,,,,,,,,,,,FF,,,,,,,,3.1343,,,,,,,,,,,,,,,,,,,,,,610341bbc7f7114aea9a2cea,61036a8605f315829a6dd532,2021-07-29_22h57.44.844,Simcolourproject_2stim_asymm_v5,2020.2.10,MacIntel,60,61025ae37ef11b136ea224fe,,,,,,,,,2179,35.95831299,-74.99334717,1,0,0,response3disk,,4,2.298217773,-2.428649902,1,0,0,rectangle,2.298217773,-2.428649902,1,0,0,,,,,,,2.298217773,-2.428649902,1,0,0,,0,11,11,101,1,
,,,,,,,,,,,,,FF,,,,,,,,1.1002,,,,,,,,,,,,,,,,,,,,,,610341bbc7f7114aea9a2cea,61036a8605f315829a6dd532,2021-07-29_22h57.44.844,Simcolourproject_2stim_asymm_v5,2020.2.10,MacIntel,60,61025ae37ef11b136ea224fe,,,,,,,,,2813,35.12677002,72.75372314,1,0,0,response1disk,,7,6.522827148,4.641479492,1,0,0,rectangle,6.522827148,4.641479492,1,0,0,,,,,,,6.522827148,4.641479492,1,0,0,,0,12,12,45,1,
,,,,,,,,,,,,,FF,,,,,,,,1.5,,,,,,,,,,,,,,,,,,,,,,610341bbc7f7114aea9a2cea,61036a8605f315829a6dd532,2021-07-29_22h57.44.844,Simcolourproject_2stim_asymm_v5,2020.2.10,MacIntel,60,61025ae37ef11b136ea224fe,,,,,,,,,2370,-34.08831787,-72.27111816,1,0,0,response5disk,,3,1.530395508,7.290924072,1,0,0,rectangle,1.530395508,7.290924072,1,0,0,,,,,,,1.530395508,7.290924072,1,0,0,,0,13,13,5,1,
,,,,,,,,,,,,,FF,,,,,,,,1.5499,,,,,,,,,,,,,,,,,,,,,,610341bbc7f7114aea9a2cea,61036a8605f315829a6dd532,2021-07-29_22h57.44.844,Simcolourproject_2stim_asymm_v5,2020.2.10,MacIntel,60,61025ae37ef11b136ea224fe,,,,,,,,,287,40.69134521,-64.57000732,1,0,0,response3disk,,4,7.841491699,0.192565918,1,0,0,rectangle,7.841491699,0.192565918,1,0,0,,,,,,,7.841491699,0.192565918,1,0,0,,0,14,14,89,1,
,,,,,,,,,,,,,FF,,,,,,,,2.2683,,,,,,,,,,,,,,,,,,,,,,610341bbc7f7114aea9a2cea,61036a8605f315829a6dd532,2021-07-29_22h57.44.844,Simcolourproject_2stim_asymm_v5,2020.2.10,MacIntel,60,61025ae37ef11b136ea224fe,,,,,,,,,755,74.04937744,43.32687378,1,0,0,response1disk,,6,-3.432617188,-0.900482178,1,0,0,rectangle,-3.432617188,-0.900482178,1,0,0,,,,,,,-3.432617188,-0.900482178,1,0,0,,0,15,15,31,1,
,,,,,,,,,,,,,FF,,,,,,,,1.7347,,,,,,,,,,,,,,,,,,,,,,610341bbc7f7114aea9a2cea,61036a8605f315829a6dd532,2021-07-29_22h57.44.844,Simcolourproject_2stim_asymm_v5,2020.2.10,MacIntel,60,61025ae37ef11b136ea224fe,,,,,,,,,108,37.4621582,-62.83343506,1,0,0,response3disk,,4,2.868652344,0.11907959,1,0,0,rectangle,2.868652344,0.11907959,1,0,0,,,,,,,2.868652344,0.11907959,1,0,0,,0,16,16,118,1,
,,,,,,,,,,,,,FF,,,,,,,,3.2336,,,,,,,,,,,,,,,,,,,,,,610341bbc7f7114aea9a2cea,61036a8605f315829a6dd532,2021-07-29_22h57.44.844,Simcolourproject_2stim_asymm_v5,2020.2.10,MacIntel,60,61025ae37ef11b136ea224fe,,,,,,,,,1062,72.50756836,-32.83789063,1,0,0,response3disk,,5,11.36224365,2.852386475,1,0,0,rectangle,11.36224365,2.852386475,1,0,0,,,,,,,11.36224365,2.852386475,1,0,0,,0,17,17,77,1,
,,,,,,,,,,,,,FF,,,,,,,,3.3669,,,,,,,,,,,,,,,,,,,,,,610341bbc7f7114aea9a2cea,61036a8605f315829a6dd532,2021-07-29_22h57.44.844,Simcolourproject_2stim_asymm_v5,2020.2.10,MacIntel,60,61025ae37ef11b136ea224fe,,,,,,,,,1315,39.6776123,-68.80566406,1,0,0,response3disk,,4,12.48120117,2.317687988,1,0,0,rectangle,12.48120117,2.317687988,1,0,0,,,,,,,12.48120117,2.317687988,1,0,0,,0,18,18,47,1,
,,,,,,,,,,,,,FF,,,,,,,,2.1167,,,,,,,,,,,,,,,,,,,,,,610341bbc7f7114aea9a2cea,61036a8605f315829a6dd532,2021-07-29_22h57.44.844,Simcolourproject_2stim_asymm_v5,2020.2.10,MacIntel,60,61025ae37ef11b136ea224fe,,,,,,,,,2961,35.58880615,79.24304199,1,0,0,response1disk,,7,8.638000488,5.873046875,1,0,0,rectangle,8.638000488,5.873046875,1,0,0,,,,,,,8.638000488,5.873046875,1,0,0,,0,19,19,9,1,
,,,,,,,,,,,,,FF,,,,,,,,1.451,,,,,,,,,,,,,,,,,,,,,,610341bbc7f7114aea9a2cea,61036a8605f315829a6dd532,2021-07-29_22h57.44.844,Simcolourproject_2stim_asymm_v5,2020.2.10,MacIntel,60,61025ae37ef11b136ea224fe,,,,,,,,,2307,43.06854248,-64.11938477,1,0,0,response3disk,,4,6.291870117,-1.911804199,1,0,0,rectangle,6.291870117,-1.911804199,1,0,0,,,,,,,6.291870117,-1.911804199,1,0,0,,0,20,20,105,1,
,,,,,,,,,,,,,FF,,,,,,,,5.2176,,,,,,,,,,,,,,,,,,,,,,610341bbc7f7114aea9a2cea,61036a8605f315829a6dd532,2021-07-29_22h57.44.844,Simcolourproject_2stim_asymm_v5,2020.2.10,MacIntel,60,61025ae37ef11b136ea224fe,,,,,,,,,648,111.0654297,39.38439941,1,0,0,response1disk,,6,5.657226563,2.947998047,1,0,0,rectangle,5.657226563,2.947998047,1,0,0,,,,,,,5.657226563,2.947998047,1,0,0,,0,21,21,52,1,
,,,,,,,,,,,,,FF,,,,,,,,1.516,,,,,,,,,,,,,,,,,,,,,,610341bbc7f7114aea9a2cea,61036a8605f315829a6dd532,2021-07-29_22h57.44.844,Simcolourproject_2stim_asymm_v5,2020.2.10,MacIntel,60,61025ae37ef11b136ea224fe,,,,,,,,,3839,-39.13348389,-86.27001953,1,0,0,response5disk,,3,-1.028503418,7.385406494,1,0,0,rectangle,-1.028503418,7.385406494,1,0,0,,,,,,,-1.028503418,7.385406494,1,0,0,,0,22,22,117,1,
,,,,,,,,,,,,,FF,,,,,,,,1.2673,,,,,,,,,,,,,,,,,,,,,,610341bbc7f7114aea9a2cea,61036a8605f315829a6dd532,2021-07-29_22h57.44.844,Simcolourproject_2stim_asymm_v5,2020.2.10,MacIntel,60,61025ae37ef11b136ea224fe,,,,,,,,,95,-92.13867188,41.37640381,1,0,0,response7disk,,1,-3.471435547,-1.019287109,1,0,0,rectangle,-36.62786865,-65.30963135,1,0,0,response5disk_3,TRUE,3,3,"[1,66,10,289,113,91,60,80,38,308,30,24,35,251,149,170,47,290,133,283]",2.8337,2.513916016,-0.642059326,1,0,0,rectangle,0,23,23,100,1,
,,,,,,,,,,,,,FF,,,,,,,,1.4679,,,,,,,,,,,,,,,,,,,,,,610341bbc7f7114aea9a2cea,61036a8605f315829a6dd532,2021-07-29_22h57.44.844,Simcolourproject_2stim_asymm_v5,2020.2.10,MacIntel,60,61025ae37ef11b136ea224fe,,,,,,,,,1643,37.54724121,84.35241699,1,0,0,response1disk,,7,0.368713379,2.770599365,1,0,0,rectangle,0.368713379,2.770599365,1,0,0,,,,,,,0.368713379,2.770599365,1,0,0,,0,24,24,43,1,
,,,,,,,,,,,,,FF,,,,,,,,1.4169,,,,,,,,,,,,,,,,,,,,,,610341bbc7f7114aea9a2cea,61036a8605f315829a6dd532,2021-07-29_22h57.44.844,Simcolourproject_2stim_asymm_v5,2020.2.10,MacIntel,60,61025ae37ef11b136ea224fe,,,,,,,,,1107,77.37225342,-43.70397949,1,0,0,response3disk,,5,1.039672852,-1.621673584,1,0,0,rectangle,1.039672852,-1.621673584,1,0,0,,,,,,,1.039672852,-1.621673584,1,0,0,,0,25,25,14,1,
,,,,,,,,,,,,,FF,,,,,,,,1.335,,,,,,,,,,,,,,,,,,,,,,610341bbc7f7114aea9a2cea,61036a8605f315829a6dd532,2021-07-29_22h57.44.844,Simcolourproject_2stim_asymm_v5,2020.2.10,MacIntel,60,61025ae37ef11b136ea224fe,,,,,,,,,505,85.12609863,37.52844238,1,0,0,response1disk,,6,-1.545654297,-0.937713623,1,0,0,rectangle,-1.545654297,-0.937713623,1,0,0,,,,,,,-1.545654297,-0.937713623,1,0,0,,0,26,26,128,1,
,,,,,,,,,,,,,FF,,,,,,,,1.2348,,,,,,,,,,,,,,,,,,,,,,610341bbc7f7114aea9a2cea,61036a8605f315829a6dd532,2021-07-29_22h57.44.844,Simcolourproject_2stim_asymm_v5,2020.2.10,MacIntel,60,61025ae37ef11b136ea224fe,,,,,,,,,602,32.12445068,-82.41815186,1,0,0,response3disk,,4,10.54962158,-1.265655518,1,0,0,rectangle,10.54962158,-1.265655518,1,0,0,,,,,,,10.54962158,-1.265655518,1,0,0,,0,27,27,141,1,
,,,,,,,,,,,,,FF,,,,,,,,1.5002,,,,,,,,,,,,,,,,,,,,,,610341bbc7f7114aea9a2cea,61036a8605f315829a6dd532,2021-07-29_22h57.44.844,Simcolourproject_2stim_asymm_v5,2020.2.10,MacIntel,60,61025ae37ef11b136ea224fe,,,,,,,,,1889,-50.13305664,-86.10534668,1,0,0,response5disk,,3,-1.49987793,-3.329101563,1,0,0,rectangle,-1.49987793,-3.329101563,1,0,0,,,,,,,-1.49987793,-3.329101563,1,0,0,,0,28,28,95,1,
,,,,,,,,,,,,,FF,,,,,,,,1.4337,,,,,,,,,,,,,,,,,,,,,,610341bbc7f7114aea9a2cea,61036a8605f315829a6dd532,2021-07-29_22h57.44.844,Simcolourproject_2stim_asymm_v5,2020.2.10,MacIntel,60,61025ae37ef11b136ea224fe,,,,,,,,,4330,36.87878418,74.32611084,1,0,0,response1disk,,7,3.303527832,-8.842834473,1,0,0,rectangle,29.66564941,-88.74468994,1,0,0,response3disk_3,TRUE,4,4,"[1,66,10,289,113,91,60,80,38,308,30,24,35,251,149,170,47,290,133,283]",2.0152,-4.200927734,-4.76574707,1,0,0,rectangle,0,29,29,34,1,
,,,,,,,,,,,,,FF,,,,,,,,3.0505,,,,,,,,,,,,,,,,,,,,,,610341bbc7f7114aea9a2cea,61036a8605f315829a6dd532,2021-07-29_22h57.44.844,Simcolourproject_2stim_asymm_v5,2020.2.10,MacIntel,60,61025ae37ef11b136ea224fe,,,,,,,,,3445,82.93341064,-49.78991699,1,0,0,response3disk,,5,1.516906738,-3.552154541,1,0,0,rectangle,1.516906738,-3.552154541,1,0,0,,,,,,,1.516906738,-3.552154541,1,0,0,,0,30,30,142,1,
,,,,,,,,,,,,,FF,,,,,,,,1.817,,,,,,,,,,,,,,,,,,,,,,610341bbc7f7114aea9a2cea,61036a8605f315829a6dd532,2021-07-29_22h57.44.844,Simcolourproject_2stim_asymm_v5,2020.2.10,MacIntel,60,61025ae37ef11b136ea224fe,,,,,,,,,2525,38.43981934,75.06750488,1,0,0,response1disk,,7,-2.904724121,-1.612670898,1,0,0,rectangle,-2.904724121,-1.612670898,1,0,0,,,,,,,-2.904724121,-1.612670898,1,0,0,,0,31,31,79,1,
,,,,,,,,,,,,,FF,,,,,,,,1.3159,,,,,,,,,,,,,,,,,,,,,,610341bbc7f7114aea9a2cea,61036a8605f315829a6dd532,2021-07-29_22h57.44.844,Simcolourproject_2stim_asymm_v5,2020.2.10,MacIntel,60,61025ae37ef11b136ea224fe,,,,,,,,,3159,37.71710205,-71.49127197,1,0,0,response3disk,,4,9.287780762,-4.901550293,1,0,0,rectangle,9.287780762,-4.901550293,1,0,0,,,,,,,9.287780762,-4.901550293,1,0,0,,0,32,32,35,1,
,,,,,,,,,,,,,FF,,,,,,,,1.4667,,,,,,,,,,,,,,,,,,,,,,610341bbc7f7114aea9a2cea,61036a8605f315829a6dd532,2021-07-29_22h57.44.844,Simcolourproject_2stim_asymm_v5,2020.2.10,MacIntel,60,61025ae37ef11b136ea224fe,,,,,,,,,3837,38.07287598,-83.31225586,1,0,0,response3disk,,4,7.91003418,-0.992126465,1,0,0,rectangle,7.91003418,-0.992126465,1,0,0,,,,,,,7.91003418,-0.992126465,1,0,0,,0,33,33,23,1,
,,,,,,,,,,,,,FF,,,,,,,,5.3506,,,,,,,,,,,,,,,,,,,,,,610341bbc7f7114aea9a2cea,61036a8605f315829a6dd532,2021-07-29_22h57.44.844,Simcolourproject_2stim_asymm_v5,2020.2.10,MacIntel,60,61025ae37ef11b136ea224fe,,,,,,,,,863,81.79089355,-28.63949585,1,0,0,response3disk,,5,1.182373047,3.123596191,1,0,0,rectangle,-45.29626465,89.70837402,1,0,0,response7disk_3,TRUE,0,0,"[1,66,10,289,113,91,60,80,38,308,30,24,35,251,149,170,47,290,133,283]",1.666,-4.707214355,-2.614868164,1,0,0,rectangle,0,34,34,67,1,
,,,,,,,,,,,,,FF,,,,,,,,1.5337,,,,,,,,,,,,,,,,,,,,,,610341bbc7f7114aea9a2cea,61036a8605f315829a6dd532,2021-07-29_22h57.44.844,Simcolourproject_2stim_asymm_v5,2020.2.10,MacIntel,60,61025ae37ef11b136ea224fe,,,,,,,,,1122,97.81768799,44.20080566,1,0,0,response1disk,,6,2.544494629,3.614562988,1,0,0,rectangle,2.544494629,3.614562988,1,0,0,,,,,,,2.544494629,3.614562988,1,0,0,,0,35,35,157,1,
,,,,,,,,,,,,,FF,,,,,,,,1.283,,,,,,,,,,,,,,,,,,,,,,610341bbc7f7114aea9a2cea,61036a8605f315829a6dd532,2021-07-29_22h57.44.844,Simcolourproject_2stim_asymm_v5,2020.2.10,MacIntel,60,61025ae37ef11b136ea224fe,,,,,,,,,2395,79.24676514,-41.65960693,1,0,0,response3disk,,5,11.44805908,-2.63494873,1,0,0,rectangle,11.44805908,-2.63494873,1,0,0,,,,,,,11.44805908,-2.63494873,1,0,0,,0,36,36,153,1,
,,,,,,,,,,,,,FF,,,,,,,,5.5502,,,,,,,,,,,,,,,,,,,,,,610341bbc7f7114aea9a2cea,61036a8605f315829a6dd532,2021-07-29_22h57.44.844,Simcolourproject_2stim_asymm_v5,2020.2.10,MacIntel,60,61025ae37ef11b136ea224fe,,,,,,,,,223,85.54974365,55.58850098,1,0,0,response1disk,,6,3.478393555,-3.197875977,1,0,0,rectangle,41.4989624,83.38943481,1,0,0,response1disk_3,TRUE,7,7,"[1,66,10,289,113,91,60,80,38,308,30,24,35,251,149,170,47,290,133,283]",1.6836,-4.965942383,-1.951721191,1,0,0,rectangle,0,37,37,126,1,
,,,,,,,,,,,,,FF,,,,,,,,3.8836,,,,,,,,,,,,,,,,,,,,,,610341bbc7f7114aea9a2cea,61036a8605f315829a6dd532,2021-07-29_22h57.44.844,Simcolourproject_2stim_asymm_v5,2020.2.10,MacIntel,60,61025ae37ef11b136ea224fe,,,,,,,,,4112,75.6484375,-37.27520752,1,0,0,response3disk,,5,4.705871582,-4.726196289,1,0,0,rectangle,4.705871582,-4.726196289,1,0,0,,,,,,,4.705871582,-4.726196289,1,0,0,,0,38,38,80,1,
,,,,,,,,,,,,,FF,,,,,,,,1.4657,,,,,,,,,,,,,,,,,,,,,,610341bbc7f7114aea9a2cea,61036a8605f315829a6dd532,2021-07-29_22h57.44.844,Simcolourproject_2stim_asymm_v5,2020.2.10,MacIntel,60,61025ae37ef11b136ea224fe,,,,,,,,,2859,77.99822998,38.73522949,1,0,0,response1disk,,6,11.67248535,0.35559082,1,0,0,rectangle,11.67248535,0.35559082,1,0,0,,,,,,,11.67248535,0.35559082,1,0,0,,0,39,39,29,1,
,,,,,,,,,,,,,FF,,,,,,,,2.1335,,,,,,,,,,,,,,,,,,,,,,610341bbc7f7114aea9a2cea,61036a8605f315829a6dd532,2021-07-29_22h57.44.844,Simcolourproject_2stim_asymm_v5,2020.2.10,MacIntel,60,61025ae37ef11b136ea224fe,,,,,,,,,10,39.83514404,-84.99243164,1,0,0,response3disk,,4,5.416442871,-5.524353027,1,0,0,rectangle,5.416442871,-5.524353027,1,0,0,,,,,,,5.416442871,-5.524353027,1,0,0,,0,40,40,68,1,
,,,,,,,,,,,,,FF,,,,,,,,0.868,,,,,,,,,,,,,,,,,,,,,,610341bbc7f7114aea9a2cea,61036a8605f315829a6dd532,2021-07-29_22h57.44.844,Simcolourproject_2stim_asymm_v5,2020.2.10,MacIntel,60,61025ae37ef11b136ea224fe,,,,,,,,,4109,45.70953369,97.14758301,1,0,0,response1disk,,7,9.12109375,4.02154541,1,0,0,rectangle,9.12109375,4.02154541,1,0,0,,,,,,,9.12109375,4.02154541,1,0,0,,0,41,41,106,1,
,,,,,,,,,,,,,FF,,,,,,,,1.0162,,,,,,,,,,,,,,,,,,,,,,610341bbc7f7114aea9a2cea,61036a8605f315829a6dd532,2021-07-29_22h57.44.844,Simcolourproject_2stim_asymm_v5,2020.2.10,MacIntel,60,61025ae37ef11b136ea224fe,,,,,,,,,8,40.72906494,-67.6583252,1,0,0,response3disk,,4,12.34643555,-5.50012207,1,0,0,rectangle,12.34643555,-5.50012207,1,0,0,,,,,,,12.34643555,-5.50012207,1,0,0,,0,42,42,40,1,
,,,,,,,,,,,,,FF,,,,,,,,1.8681,,,,,,,,,,,,,,,,,,,,,,610341bbc7f7114aea9a2cea,61036a8605f315829a6dd532,2021-07-29_22h57.44.844,Simcolourproject_2stim_asymm_v5,2020.2.10,MacIntel,60,61025ae37ef11b136ea224fe,,,,,,,,,430,37.6282959,-85.16400146,1,0,0,response3disk,,4,8.286315918,-11.73883057,1,0,0,rectangle,8.286315918,-11.73883057,1,0,0,,,,,,,8.286315918,-11.73883057,1,0,0,,0,43,43,60,1,
,,,,,,,,,,,,,FF,,,,,,,,0.9498,,,,,,,,,,,,,,,,,,,,,,610341bbc7f7114aea9a2cea,61036a8605f315829a6dd532,2021-07-29_22h57.44.844,Simcolourproject_2stim_asymm_v5,2020.2.10,MacIntel,60,61025ae37ef11b136ea224fe,,,,,,,,,3327,40.23400879,77.68634033,1,0,0,response1disk,,7,1.278076172,0.651794434,1,0,0,rectangle,1.278076172,0.651794434,1,0,0,,,,,,,1.278076172,0.651794434,1,0,0,,0,44,44,120,1,
,,,,,,,,,,,,,FF,,,,,,,,1.0835,,,,,,,,,,,,,,,,,,,,,,610341bbc7f7114aea9a2cea,61036a8605f315829a6dd532,2021-07-29_22h57.44.844,Simcolourproject_2stim_asymm_v5,2020.2.10,MacIntel,60,61025ae37ef11b136ea224fe,,,,,,,,,3079,37.66278076,68.84527588,1,0,0,response1disk,,7,8.40435791,2.414642334,1,0,0,rectangle,8.40435791,2.414642334,1,0,0,,,,,,,8.40435791,2.414642334,1,0,0,,0,45,45,104,1,
,,,,,,,,,,,,,FF,,,,,,,,0.7676,,,,,,,,,,,,,,,,,,,,,,610341bbc7f7114aea9a2cea,61036a8605f315829a6dd532,2021-07-29_22h57.44.844,Simcolourproject_2stim_asymm_v5,2020.2.10,MacIntel,60,61025ae37ef11b136ea224fe,,,,,,,,,4307,33.51898193,87.76867676,1,0,0,response1disk,,7,9.991699219,0.096038818,1,0,0,rectangle,48.16394043,86.27423096,1,0,0,response1disk_3,TRUE,7,7,"[1,66,10,289,113,91,60,80,38,308,30,24,35,251,149,170,47,290,133,283]",1.2001,12.94299316,4.5965271,1,0,0,rectangle,0,46,46,133,1,
,,,,,,,,,,,,,FF,,,,,,,,1.1671,,,,,,,,,,,,,,,,,,,,,,610341bbc7f7114aea9a2cea,61036a8605f315829a6dd532,2021-07-29_22h57.44.844,Simcolourproject_2stim_asymm_v5,2020.2.10,MacIntel,60,61025ae37ef11b136ea224fe,,,,,,,,,2670,-28.78643799,-72.37109375,1,0,0,response5disk,,3,-1.795349121,-6.724273682,1,0,0,rectangle,-1.795349121,-6.724273682,1,0,0,,,,,,,-1.795349121,-6.724273682,1,0,0,,0,47,47,24,1,
,,,,,,,,,,,,,FF,,,,,,,,1.4172,,,,,,,,,,,,,,,,,,,,,,610341bbc7f7114aea9a2cea,61036a8605f315829a6dd532,2021-07-29_22h57.44.844,Simcolourproject_2stim_asymm_v5,2020.2.10,MacIntel,60,61025ae37ef11b136ea224fe,,,,,,,,,2115,41.31494141,-69.2911377,1,0,0,response3disk,,4,13.62145996,-1.958557129,1,0,0,rectangle,13.62145996,-1.958557129,1,0,0,,,,,,,13.62145996,-1.958557129,1,0,0,,0,48,48,92,1,
,,,,,,,,,,,,,FF,,,,,,,,1.8176,,,,,,,,,,,,,,,,,,,,,,610341bbc7f7114aea9a2cea,61036a8605f315829a6dd532,2021-07-29_22h57.44.844,Simcolourproject_2stim_asymm_v5,2020.2.10,MacIntel,60,61025ae37ef11b136ea224fe,,,,,,,,,3517,-83.24554443,-38.23287964,1,0,0,response5disk,,2,16.60418701,-2.15020752,1,0,0,rectangle,16.60418701,-2.15020752,1,0,0,,,,,,,16.60418701,-2.15020752,1,0,0,,0,49,49,19,1,
,,,,,,,,,,,,,FF,,,,,,,,2.0544,,,,,,,,,,,,,,,,,,,,,,610341bbc7f7114aea9a2cea,61036a8605f315829a6dd532,2021-07-29_22h57.44.844,Simcolourproject_2stim_asymm_v5,2020.2.10,MacIntel,60,61025ae37ef11b136ea224fe,,,,,,,,,1045,87.51055908,-37.35852051,1,0,0,response3disk,,5,15.43286133,0.78125,1,0,0,rectangle,15.43286133,0.78125,1,0,0,,,,,,,15.43286133,0.78125,1,0,0,,0,50,50,36,1,
,,,,,,,,,,,,,FF,,,,,,,,1.0348,,,,,,,,,,,,,,,,,,,,,,610341bbc7f7114aea9a2cea,61036a8605f315829a6dd532,2021-07-29_22h57.44.844,Simcolourproject_2stim_asymm_v5,2020.2.10,MacIntel,60,61025ae37ef11b136ea224fe,,,,,,,,,2746,40.38226318,70.418396,1,0,0,response1disk,,7,3.327331543,0.627075195,1,0,0,rectangle,3.327331543,0.627075195,1,0,0,,,,,,,3.327331543,0.627075195,1,0,0,,0,51,51,98,1,
,,,,,,,,,,,,,FF,,,,,,,,2.733,,,,,,,,,,,,,,,,,,,,,,610341bbc7f7114aea9a2cea,61036a8605f315829a6dd532,2021-07-29_22h57.44.844,Simcolourproject_2stim_asymm_v5,2020.2.10,MacIntel,60,61025ae37ef11b136ea224fe,,,,,,,,,1486,51.48327637,82.94622803,1,0,0,response1disk,,7,21.3828125,0.176239014,1,0,0,rectangle,21.3828125,0.176239014,1,0,0,,,,,,,21.3828125,0.176239014,1,0,0,,0,52,52,48,1,
,,,,,,,,,,,,,FF,,,,,,,,1.0834,,,,,,,,,,,,,,,,,,,,,,610341bbc7f7114aea9a2cea,61036a8605f315829a6dd532,2021-07-29_22h57.44.844,Simcolourproject_2stim_asymm_v5,2020.2.10,MacIntel,60,61025ae37ef11b136ea224fe,,,,,,,,,600,53.02288818,-66.07678223,1,0,0,response3disk,,4,18.7880249,-7.195678711,1,0,0,rectangle,18.7880249,-7.195678711,1,0,0,,,,,,,18.7880249,-7.195678711,1,0,0,,0,53,53,138,1,
,,,,,,,,,,,,,FF,,,,,,,,1.468,,,,,,,,,,,,,,,,,,,,,,610341bbc7f7114aea9a2cea,61036a8605f315829a6dd532,2021-07-29_22h57.44.844,Simcolourproject_2stim_asymm_v5,2020.2.10,MacIntel,60,61025ae37ef11b136ea224fe,,,,,,,,,235,42.34790039,96.31246948,1,0,0,response1disk,,7,-5.983276367,-7.059906006,1,0,0,rectangle,-5.983276367,-7.059906006,1,0,0,,,,,,,-5.983276367,-7.059906006,1,0,0,,0,54,54,27,1,
,,,,,,,,,,,,,FF,,,,,,,,1.0325,,,,,,,,,,,,,,,,,,,,,,610341bbc7f7114aea9a2cea,61036a8605f315829a6dd532,2021-07-29_22h57.44.844,Simcolourproject_2stim_asymm_v5,2020.2.10,MacIntel,60,61025ae37ef11b136ea224fe,,,,,,,,,2060,38.69024658,88.27832031,1,0,0,response1disk,,7,1.315856934,-0.558349609,1,0,0,rectangle,1.315856934,-0.558349609,1,0,0,,,,,,,1.315856934,-0.558349609,1,0,0,,0,55,55,66,1,
,,,,,,,,,,,,,FF,,,,,,,,1.1498,,,,,,,,,,,,,,,,,,,,,,610341bbc7f7114aea9a2cea,61036a8605f315829a6dd532,2021-07-29_22h57.44.844,Simcolourproject_2stim_asymm_v5,2020.2.10,MacIntel,60,61025ae37ef11b136ea224fe,,,,,,,,,2816,39.59741211,92.37780762,1,0,0,response1disk,,7,7.503662109,-3.071014404,1,0,0,rectangle,7.503662109,-3.071014404,1,0,0,,,,,,,7.503662109,-3.071014404,1,0,0,,0,56,56,83,1,
,,,,,,,,,,,,,FF,,,,,,,,0.9009,,,,,,,,,,,,,,,,,,,,,,610341bbc7f7114aea9a2cea,61036a8605f315829a6dd532,2021-07-29_22h57.44.844,Simcolourproject_2stim_asymm_v5,2020.2.10,MacIntel,60,61025ae37ef11b136ea224fe,,,,,,,,,3890,34.90496826,73.57788086,1,0,0,response1disk,,7,21.12872314,1.442504883,1,0,0,rectangle,21.12872314,1.442504883,1,0,0,,,,,,,21.12872314,1.442504883,1,0,0,,0,57,57,81,1,
,,,,,,,,,,,,,FF,,,,,,,,1.5007,,,,,,,,,,,,,,,,,,,,,,610341bbc7f7114aea9a2cea,61036a8605f315829a6dd532,2021-07-29_22h57.44.844,Simcolourproject_2stim_asymm_v5,2020.2.10,MacIntel,60,61025ae37ef11b136ea224fe,,,,,,,,,874,75.64642334,-36.15148926,1,0,0,response3disk,,5,13.91552734,1.498840332,1,0,0,rectangle,13.91552734,1.498840332,1,0,0,,,,,,,13.91552734,1.498840332,1,0,0,,0,58,58,119,1,
,,,,,,,,,,,,,FF,,,,,,,,1.4667,,,,,,,,,,,,,,,,,,,,,,610341bbc7f7114aea9a2cea,61036a8605f315829a6dd532,2021-07-29_22h57.44.844,Simcolourproject_2stim_asymm_v5,2020.2.10,MacIntel,60,61025ae37ef11b136ea224fe,,,,,,,,,3120,44.75384521,98.35974121,1,0,0,response1disk,,7,11.15716553,-3.408782959,1,0,0,rectangle,-79.28765869,-25.03955078,1,0,0,response5disk_3,TRUE,2,2,"[1,66,10,289,113,91,60,80,38,308,30,24,35,251,149,170,47,290,133,283]",1.9165,13.69915771,0.782714844,1,0,0,rectangle,0,59,59,65,1,
,,,,,,,,,,,,,FF,,,,,,,,1.1171,,,,,,,,,,,,,,,,,,,,,,610341bbc7f7114aea9a2cea,61036a8605f315829a6dd532,2021-07-29_22h57.44.844,Simcolourproject_2stim_asymm_v5,2020.2.10,MacIntel,60,61025ae37ef11b136ea224fe,,,,,,,,,1422,41.02062988,-89.26538086,1,0,0,response3disk,,4,7.604309082,-7.036743164,1,0,0,rectangle,7.604309082,-7.036743164,1,0,0,,,,,,,7.604309082,-7.036743164,1,0,0,,0,60,60,146,1,
,,,,,,,,,,,,,FF,,,,,,,,1.0333,,,,,,,,,,,,,,,,,,,,,,610341bbc7f7114aea9a2cea,61036a8605f315829a6dd532,2021-07-29_22h57.44.844,Simcolourproject_2stim_asymm_v5,2020.2.10,MacIntel,60,61025ae37ef11b136ea224fe,,,,,,,,,2867,79.08856201,-37.88897705,1,0,0,response3disk,,5,21.43798828,-5.590454102,1,0,0,rectangle,21.43798828,-5.590454102,1,0,0,,,,,,,21.43798828,-5.590454102,1,0,0,,0,61,61,1,1,
,,,,,,,,,,,,,FF,,,,,,,,1.4169,,,,,,,,,,,,,,,,,,,,,,610341bbc7f7114aea9a2cea,61036a8605f315829a6dd532,2021-07-29_22h57.44.844,Simcolourproject_2stim_asymm_v5,2020.2.10,MacIntel,60,61025ae37ef11b136ea224fe,,,,,,,,,4367,-71.4609375,52.40097046,1,0,0,response7disk,,1,24.94268799,-8.27130127,1,0,0,rectangle,24.94268799,-8.27130127,1,0,0,,,,,,,24.94268799,-8.27130127,1,0,0,,0,62,62,88,1,
,,,,,,,,,,,,,FF,,,,,,,,1.8666,,,,,,,,,,,,,,,,,,,,,,610341bbc7f7114aea9a2cea,61036a8605f315829a6dd532,2021-07-29_22h57.44.844,Simcolourproject_2stim_asymm_v5,2020.2.10,MacIntel,60,61025ae37ef11b136ea224fe,,,,,,,,,652,83.06152344,-43.54797363,1,0,0,response3disk,,5,1.532714844,2.573486328,1,0,0,rectangle,1.532714844,2.573486328,1,0,0,,,,,,,1.532714844,2.573486328,1,0,0,,0,63,63,37,1,
,,,,,,,,,,,,,FF,,,,,,,,1.3164,,,,,,,,,,,,,,,,,,,,,,610341bbc7f7114aea9a2cea,61036a8605f315829a6dd532,2021-07-29_22h57.44.844,Simcolourproject_2stim_asymm_v5,2020.2.10,MacIntel,60,61025ae37ef11b136ea224fe,,,,,,,,,3390,-89.37091064,34.82214355,1,0,0,response7disk,,1,2.59967041,-1.37713623,1,0,0,rectangle,2.59967041,-1.37713623,1,0,0,,,,,,,2.59967041,-1.37713623,1,0,0,,0,64,64,62,1,
,,,,,,,,,,,,,FF,,,,,,,,1.9998,,,,,,,,,,,,,,,,,,,,,,610341bbc7f7114aea9a2cea,61036a8605f315829a6dd532,2021-07-29_22h57.44.844,Simcolourproject_2stim_asymm_v5,2020.2.10,MacIntel,60,61025ae37ef11b136ea224fe,,,,,,,,,318,98.49487305,45.95843506,1,0,0,response1disk,,6,-3.024963379,7.148406982,1,0,0,rectangle,-87.33135986,47.46051025,1,0,0,response7disk_3,TRUE,1,1,"[1,66,10,289,113,91,60,80,38,308,30,24,35,251,149,170,47,290,133,283]",1.4996,-4.139221191,0.011291504,1,0,0,rectangle,0,65,65,7,1,
,,,,,,,,,,,,,FF,,,,,,,,1.2333,,,,,,,,,,,,,,,,,,,,,,610341bbc7f7114aea9a2cea,61036a8605f315829a6dd532,2021-07-29_22h57.44.844,Simcolourproject_2stim_asymm_v5,2020.2.10,MacIntel,60,61025ae37ef11b136ea224fe,,,,,,,,,593,45.05834961,86.55187988,1,0,0,response1disk,,7,10.40338135,-3.790222168,1,0,0,rectangle,10.40338135,-3.790222168,1,0,0,,,,,,,10.40338135,-3.790222168,1,0,0,,0,66,66,143,1,
,,,,,,,,,,,,,FF,,,,,,,,0.8519,,,,,,,,,,,,,,,,,,,,,,610341bbc7f7114aea9a2cea,61036a8605f315829a6dd532,2021-07-29_22h57.44.844,Simcolourproject_2stim_asymm_v5,2020.2.10,MacIntel,60,61025ae37ef11b136ea224fe,,,,,,,,,1084,31.94787598,86.38095093,1,0,0,response1disk,,7,16.63916016,7.258270264,1,0,0,rectangle,16.63916016,7.258270264,1,0,0,,,,,,,16.63916016,7.258270264,1,0,0,,0,67,67,107,1,
,,,,,,,,,,,,,FF,,,,,,,,0.8838,,,,,,,,,,,,,,,,,,,,,,610341bbc7f7114aea9a2cea,61036a8605f315829a6dd532,2021-07-29_22h57.44.844,Simcolourproject_2stim_asymm_v5,2020.2.10,MacIntel,60,61025ae37ef11b136ea224fe,,,,,,,,,1341,39.80340576,91.56494141,1,0,0,response1disk,,7,11.39923096,3.319213867,1,0,0,rectangle,11.39923096,3.319213867,1,0,0,,,,,,,11.39923096,3.319213867,1,0,0,,0,68,68,70,1,
,,,,,,,,,,,,,FF,,,,,,,,1.5345,,,,,,,,,,,,,,,,,,,,,,610341bbc7f7114aea9a2cea,61036a8605f315829a6dd532,2021-07-29_22h57.44.844,Simcolourproject_2stim_asymm_v5,2020.2.10,MacIntel,60,61025ae37ef11b136ea224fe,,,,,,,,,1510,32.19128418,80.17468262,1,0,0,response1disk,,7,13.74182129,-1.917419434,1,0,0,rectangle,13.74182129,-1.917419434,1,0,0,,,,,,,13.74182129,-1.917419434,1,0,0,,0,69,69,53,1,
,,,,,,,,,,,,,FF,,,,,,,,0.6835,,,,,,,,,,,,,,,,,,,,,,610341bbc7f7114aea9a2cea,61036a8605f315829a6dd532,2021-07-29_22h57.44.844,Simcolourproject_2stim_asymm_v5,2020.2.10,MacIntel,60,61025ae37ef11b136ea224fe,,,,,,,,,1016,43.18267822,117.3331604,1,0,0,response1disk,,7,20.16931152,7.625213623,1,0,0,rectangle,20.16931152,7.625213623,1,0,0,,,,,,,20.16931152,7.625213623,1,0,0,,0,70,70,132,1,
,,,,,,,,,,,,,FF,,,,,,,,1.7839,,,,,,,,,,,,,,,,,,,,,,610341bbc7f7114aea9a2cea,61036a8605f315829a6dd532,2021-07-29_22h57.44.844,Simcolourproject_2stim_asymm_v5,2020.2.10,MacIntel,60,61025ae37ef11b136ea224fe,,,,,,,,,2108,-51.02099609,-93.64868164,1,0,0,response5disk,,3,-1.853820801,-3.806793213,1,0,0,rectangle,-1.853820801,-3.806793213,1,0,0,,,,,,,-1.853820801,-3.806793213,1,0,0,,0,71,71,122,1,
,,,,,,,,,,,,,FF,,,,,,,,0.8668,,,,,,,,,,,,,,,,,,,,,,610341bbc7f7114aea9a2cea,61036a8605f315829a6dd532,2021-07-29_22h57.44.844,Simcolourproject_2stim_asymm_v5,2020.2.10,MacIntel,60,61025ae37ef11b136ea224fe,,,,,,,,,3336,-44.79931641,119.869873,1,0,0,response7disk,,0,-7.47845459,5.368652344,1,0,0,rectangle,-7.47845459,5.368652344,1,0,0,,,,,,,-7.47845459,5.368652344,1,0,0,,0,72,72,57,1,
,,,,,,,,,,,,,FF,,,,,,,,0.6336,,,,,,,,,,,,,,,,,,,,,,610341bbc7f7114aea9a2cea,61036a8605f315829a6dd532,2021-07-29_22h57.44.844,Simcolourproject_2stim_asymm_v5,2020.2.10,MacIntel,60,61025ae37ef11b136ea224fe,,,,,,,,,4343,-35.83679199,73.06509399,1,0,0,response7disk,,0,-3.297668457,-0.989501953,1,0,0,rectangle,-3.297668457,-0.989501953,1,0,0,,,,,,,-3.297668457,-0.989501953,1,0,0,,0,73,73,6,1,
,,,,,,,,,,,,,FF,,,,,,,,2.8676,,,,,,,,,,,,,,,,,,,,,,610341bbc7f7114aea9a2cea,61036a8605f315829a6dd532,2021-07-29_22h57.44.844,Simcolourproject_2stim_asymm_v5,2020.2.10,MacIntel,60,61025ae37ef11b136ea224fe,,,,,,,,,1934,42.2722168,83.09942627,1,0,0,response1disk,,7,2.024291992,-0.253479004,1,0,0,rectangle,2.024291992,-0.253479004,1,0,0,,,,,,,2.024291992,-0.253479004,1,0,0,,0,74,74,58,1,
,,,,,,,,,,,,,FF,,,,,,,,1.135,,,,,,,,,,,,,,,,,,,,,,610341bbc7f7114aea9a2cea,61036a8605f315829a6dd532,2021-07-29_22h57.44.844,Simcolourproject_2stim_asymm_v5,2020.2.10,MacIntel,60,61025ae37ef11b136ea224fe,,,,,,,,,3999,29.92541504,-88.75549316,1,0,0,response3disk,,4,5.422058105,-10.01260376,1,0,0,rectangle,5.422058105,-10.01260376,1,0,0,,,,,,,5.422058105,-10.01260376,1,0,0,,0,75,75,155,1,
,,,,,,,,,,,,,FF,,,,,,,,0.7183,,,,,,,,,,,,,,,,,,,,,,610341bbc7f7114aea9a2cea,61036a8605f315829a6dd532,2021-07-29_22h57.44.844,Simcolourproject_2stim_asymm_v5,2020.2.10,MacIntel,60,61025ae37ef11b136ea224fe,,,,,,,,,1564,38.10296631,91.246521,1,0,0,response1disk,,7,1.924194336,6.848297119,1,0,0,rectangle,1.924194336,6.848297119,1,0,0,,,,,,,1.924194336,6.848297119,1,0,0,,0,76,76,78,1,
,,,,,,,,,,,,,FF,,,,,,,,1.0838,,,,,,,,,,,,,,,,,,,,,,610341bbc7f7114aea9a2cea,61036a8605f315829a6dd532,2021-07-29_22h57.44.844,Simcolourproject_2stim_asymm_v5,2020.2.10,MacIntel,60,61025ae37ef11b136ea224fe,,,,,,,,,1382,93.6138916,39.70251465,1,0,0,response1disk,,6,8.453735352,-0.517822266,1,0,0,rectangle,8.453735352,-0.517822266,1,0,0,,,,,,,8.453735352,-0.517822266,1,0,0,,0,77,77,91,1,
,,,,,,,,,,,,,FF,,,,,,,,8.5003,,,,,,,,,,,,,,,,,,,,,,610341bbc7f7114aea9a2cea,61036a8605f315829a6dd532,2021-07-29_22h57.44.844,Simcolourproject_2stim_asymm_v5,2020.2.10,MacIntel,60,61025ae37ef11b136ea224fe,,,,,,,,,3819,77.56719971,-43.22277832,1,0,0,response3disk,,5,6.989990234,-4.218444824,1,0,0,rectangle,6.989990234,-4.218444824,1,0,0,,,,,,,6.989990234,-4.218444824,1,0,0,,0,78,78,108,1,
,,,,,,,,,,,,,FF,,,,,,,,3.0511,,,,,,,,,,,,,,,,,,,,,,610341bbc7f7114aea9a2cea,61036a8605f315829a6dd532,2021-07-29_22h57.44.844,Simcolourproject_2stim_asymm_v5,2020.2.10,MacIntel,60,61025ae37ef11b136ea224fe,,,,,,,,,391,39.55206299,106.8511963,1,0,0,response1disk,,7,5.522949219,-2.63394165,1,0,0,rectangle,-35.14489746,84.86114502,1,0,0,response7disk_3,TRUE,0,0,"[1,66,10,289,113,91,60,80,38,308,30,24,35,251,149,170,47,290,133,283]",1.2675,-0.786071777,0.557739258,1,0,0,rectangle,0,79,79,10,1,
,,,,,,,,,,,,,FF,,,,,,,,1.8342,,,,,,,,,,,,,,,,,,,,,,610341bbc7f7114aea9a2cea,61036a8605f315829a6dd532,2021-07-29_22h57.44.844,Simcolourproject_2stim_asymm_v5,2020.2.10,MacIntel,60,61025ae37ef11b136ea224fe,,,,,,,,,1198,36.77124023,-94.76037598,1,0,0,response3disk,,4,2.506958008,-3.472717285,1,0,0,rectangle,2.506958008,-3.472717285,1,0,0,,,,,,,2.506958008,-3.472717285,1,0,0,,0,80,80,86,1,
,,,,,,,,,,,,,FF,,,,,,,,1.2826,,,,,,,,,,,,,,,,,,,,,,610341bbc7f7114aea9a2cea,61036a8605f315829a6dd532,2021-07-29_22h57.44.844,Simcolourproject_2stim_asymm_v5,2020.2.10,MacIntel,60,61025ae37ef11b136ea224fe,,,,,,,,,508,74.74859619,39.63916016,1,0,0,response1disk,,6,7.645690918,2.899230957,1,0,0,rectangle,7.645690918,2.899230957,1,0,0,,,,,,,7.645690918,2.899230957,1,0,0,,0,81,81,137,1,
,,,,,,,,,,,,,FF,,,,,,,,2.2509,,,,,,,,,,,,,,,,,,,,,,610341bbc7f7114aea9a2cea,61036a8605f315829a6dd532,2021-07-29_22h57.44.844,Simcolourproject_2stim_asymm_v5,2020.2.10,MacIntel,60,61025ae37ef11b136ea224fe,,,,,,,,,1195,43.47918701,-66.34338379,1,0,0,response3disk,,4,23.02770996,2.658355713,1,0,0,rectangle,23.02770996,2.658355713,1,0,0,,,,,,,23.02770996,2.658355713,1,0,0,,0,82,82,63,1,
,,,,,,,,,,,,,FF,,,,,,,,1.4185,,,,,,,,,,,,,,,,,,,,,,610341bbc7f7114aea9a2cea,61036a8605f315829a6dd532,2021-07-29_22h57.44.844,Simcolourproject_2stim_asymm_v5,2020.2.10,MacIntel,60,61025ae37ef11b136ea224fe,,,,,,,,,3157,-82.23242188,-38.60528564,1,0,0,response5disk,,2,14.14575195,10.0489502,1,0,0,rectangle,14.14575195,10.0489502,1,0,0,,,,,,,14.14575195,10.0489502,1,0,0,,0,83,83,76,1,
,,,,,,,,,,,,,FF,,,,,,,,1.0677,,,,,,,,,,,,,,,,,,,,,,610341bbc7f7114aea9a2cea,61036a8605f315829a6dd532,2021-07-29_22h57.44.844,Simcolourproject_2stim_asymm_v5,2020.2.10,MacIntel,60,61025ae37ef11b136ea224fe,,,,,,,,,3690,89.8729248,-39.00927734,1,0,0,response3disk,,5,-1.871154785,5.87121582,1,0,0,rectangle,-1.871154785,5.87121582,1,0,0,,,,,,,-1.871154785,5.87121582,1,0,0,,0,84,84,13,1,
,,,,,,,,,,,,,FF,,,,,,,,1.6671,,,,,,,,,,,,,,,,,,,,,,610341bbc7f7114aea9a2cea,61036a8605f315829a6dd532,2021-07-29_22h57.44.844,Simcolourproject_2stim_asymm_v5,2020.2.10,MacIntel,60,61025ae37ef11b136ea224fe,,,,,,,,,2769,78.23742676,-35.9019165,1,0,0,response3disk,,5,17.05462646,-1.961456299,1,0,0,rectangle,17.05462646,-1.961456299,1,0,0,,,,,,,17.05462646,-1.961456299,1,0,0,,0,85,85,85,1,
,,,,,,,,,,,,,FF,,,,,,,,1.1345,,,,,,,,,,,,,,,,,,,,,,610341bbc7f7114aea9a2cea,61036a8605f315829a6dd532,2021-07-29_22h57.44.844,Simcolourproject_2stim_asymm_v5,2020.2.10,MacIntel,60,61025ae37ef11b136ea224fe,,,,,,,,,1920,44.07641602,81.58947754,1,0,0,response1disk,,7,3.193969727,-0.534667969,1,0,0,rectangle,3.193969727,-0.534667969,1,0,0,,,,,,,3.193969727,-0.534667969,1,0,0,,0,86,86,54,1,
,,,,,,,,,,,,,FF,,,,,,,,0.7006,,,,,,,,,,,,,,,,,,,,,,610341bbc7f7114aea9a2cea,61036a8605f315829a6dd532,2021-07-29_22h57.44.844,Simcolourproject_2stim_asymm_v5,2020.2.10,MacIntel,60,61025ae37ef11b136ea224fe,,,,,,,,,499,42.50982666,97.92474365,1,0,0,response1disk,,7,5.15625,1.31161499,1,0,0,rectangle,5.15625,1.31161499,1,0,0,,,,,,,5.15625,1.31161499,1,0,0,,0,87,87,99,1,
,,,,,,,,,,,,,FF,,,,,,,,1.2173,,,,,,,,,,,,,,,,,,,,,,610341bbc7f7114aea9a2cea,61036a8605f315829a6dd532,2021-07-29_22h57.44.844,Simcolourproject_2stim_asymm_v5,2020.2.10,MacIntel,60,61025ae37ef11b136ea224fe,,,,,,,,,1480,78.13592529,38.59625244,1,0,0,response1disk,,6,-6.731079102,-9.131225586,1,0,0,rectangle,-6.731079102,-9.131225586,1,0,0,,,,,,,-6.731079102,-9.131225586,1,0,0,,0,88,88,129,1,
,,,,,,,,,,,,,FF,,,,,,,,1.1504,,,,,,,,,,,,,,,,,,,,,,610341bbc7f7114aea9a2cea,61036a8605f315829a6dd532,2021-07-29_22h57.44.844,Simcolourproject_2stim_asymm_v5,2020.2.10,MacIntel,60,61025ae37ef11b136ea224fe,,,,,,,,,626,32.97528076,89.02761841,1,0,0,response1disk,,7,-2.759216309,-1.414703369,1,0,0,rectangle,-2.759216309,-1.414703369,1,0,0,,,,,,,-2.759216309,-1.414703369,1,0,0,,0,89,89,30,1,
,,,,,,,,,,,,,FF,,,,,,,,0.9504,,,,,,,,,,,,,,,,,,,,,,610341bbc7f7114aea9a2cea,61036a8605f315829a6dd532,2021-07-29_22h57.44.844,Simcolourproject_2stim_asymm_v5,2020.2.10,MacIntel,60,61025ae37ef11b136ea224fe,,,,,,,,,4362,-78.26116943,37.06390381,1,0,0,response7disk,,1,3.973571777,4.017456055,1,0,0,rectangle,-47.89349365,-70.453125,1,0,0,response5disk_3,TRUE,3,3,"[1,66,10,289,113,91,60,80,38,308,30,24,35,251,149,170,47,290,133,283]",1.9833,-5.036682129,3.976928711,1,0,0,rectangle,0,90,90,147,1,
,,,,,,,,,,,,,FF,,,,,,,,3.0663,,,,,,,,,,,,,,,,,,,,,,610341bbc7f7114aea9a2cea,61036a8605f315829a6dd532,2021-07-29_22h57.44.844,Simcolourproject_2stim_asymm_v5,2020.2.10,MacIntel,60,61025ae37ef11b136ea224fe,,,,,,,,,2391,33.23291016,99.29071045,1,0,0,response1disk,,7,-10.11627197,1.563659668,1,0,0,rectangle,-10.11627197,1.563659668,1,0,0,,,,,,,-10.11627197,1.563659668,1,0,0,,0,91,91,159,1,
,,,,,,,,,,,,,FF,,,,,,,,1.5175,,,,,,,,,,,,,,,,,,,,,,610341bbc7f7114aea9a2cea,61036a8605f315829a6dd532,2021-07-29_22h57.44.844,Simcolourproject_2stim_asymm_v5,2020.2.10,MacIntel,60,61025ae37ef11b136ea224fe,,,,,,,,,3348,80.67169189,-45.74179077,1,0,0,response3disk,,5,15.49871826,-3.1043396,1,0,0,rectangle,15.49871826,-3.1043396,1,0,0,,,,,,,15.49871826,-3.1043396,1,0,0,,0,92,92,3,1,
,,,,,,,,,,,,,FF,,,,,,,,1.2165,,,,,,,,,,,,,,,,,,,,,,610341bbc7f7114aea9a2cea,61036a8605f315829a6dd532,2021-07-29_22h57.44.844,Simcolourproject_2stim_asymm_v5,2020.2.10,MacIntel,60,61025ae37ef11b136ea224fe,,,,,,,,,2211,41.45697021,83.8963623,1,0,0,response1disk,,7,11.13348389,2.546447754,1,0,0,rectangle,11.13348389,2.546447754,1,0,0,,,,,,,11.13348389,2.546447754,1,0,0,,0,93,93,4,1,
,,,,,,,,,,,,,FF,,,,,,,,0.6991,,,,,,,,,,,,,,,,,,,,,,610341bbc7f7114aea9a2cea,61036a8605f315829a6dd532,2021-07-29_22h57.44.844,Simcolourproject_2stim_asymm_v5,2020.2.10,MacIntel,60,61025ae37ef11b136ea224fe,,,,,,,,,2073,42.99694824,103.604248,1,0,0,response1disk,,7,9.174621582,2.352233887,1,0,0,rectangle,9.174621582,2.352233887,1,0,0,,,,,,,9.174621582,2.352233887,1,0,0,,0,94,94,74,1,
,,,,,,,,,,,,,FF,,,,,,,,0.6496,,,,,,,,,,,,,,,,,,,,,,610341bbc7f7114aea9a2cea,61036a8605f315829a6dd532,2021-07-29_22h57.44.844,Simcolourproject_2stim_asymm_v5,2020.2.10,MacIntel,60,61025ae37ef11b136ea224fe,,,,,,,,,2057,37.26696777,79.91436768,1,0,0,response1disk,,7,11.30157471,-2.724487305,1,0,0,rectangle,11.30157471,-2.724487305,1,0,0,,,,,,,11.30157471,-2.724487305,1,0,0,,0,95,95,96,1,
,,,,,,,,,,,,,FF,,,,,,,,1.284,,,,,,,,,,,,,,,,,,,,,,610341bbc7f7114aea9a2cea,61036a8605f315829a6dd532,2021-07-29_22h57.44.844,Simcolourproject_2stim_asymm_v5,2020.2.10,MacIntel,60,61025ae37ef11b136ea224fe,,,,,,,,,1544,86.40167236,-50.80151367,1,0,0,response3disk,,5,13.66931152,-2.704956055,1,0,0,rectangle,13.66931152,-2.704956055,1,0,0,,,,,,,13.66931152,-2.704956055,1,0,0,,0,96,96,39,1,
,,,,,,,,,,,,,FF,,,,,,,,1.4506,,,,,,,,,,,,,,,,,,,,,,610341bbc7f7114aea9a2cea,61036a8605f315829a6dd532,2021-07-29_22h57.44.844,Simcolourproject_2stim_asymm_v5,2020.2.10,MacIntel,60,61025ae37ef11b136ea224fe,,,,,,,,,4237,-74.35064697,-38.0770874,1,0,0,response5disk,,2,6.319030762,-1.717132568,1,0,0,rectangle,6.319030762,-1.717132568,1,0,0,,,,,,,6.319030762,-1.717132568,1,0,0,,0,97,97,125,1,
,,,,,,,,,,,,,FF,,,,,,,,1.549,,,,,,,,,,,,,,,,,,,,,,610341bbc7f7114aea9a2cea,61036a8605f315829a6dd532,2021-07-29_22h57.44.844,Simcolourproject_2stim_asymm_v5,2020.2.10,MacIntel,60,61025ae37ef11b136ea224fe,,,,,,,,,3929,35.37927246,83.99475098,1,0,0,response1disk,,7,3.314453125,-3.40045166,1,0,0,rectangle,3.314453125,-3.40045166,1,0,0,,,,,,,3.314453125,-3.40045166,1,0,0,,0,98,98,20,1,
,,,,,,,,,,,,,FF,,,,,,,,2.0334,,,,,,,,,,,,,,,,,,,,,,610341bbc7f7114aea9a2cea,61036a8605f315829a6dd532,2021-07-29_22h57.44.844,Simcolourproject_2stim_asymm_v5,2020.2.10,MacIntel,60,61025ae37ef11b136ea224fe,,,,,,,,,4018,32.67663574,75.79754639,1,0,0,response1disk,,7,16.88140869,6.762817383,1,0,0,rectangle,16.88140869,6.762817383,1,0,0,,,,,,,16.88140869,6.762817383,1,0,0,,0,99,99,127,1,
,,,,,,,,,,,,,FF,,,,,,,,0.8155,,,,,,,,,,,,,,,,,,,,,,610341bbc7f7114aea9a2cea,61036a8605f315829a6dd532,2021-07-29_22h57.44.844,Simcolourproject_2stim_asymm_v5,2020.2.10,MacIntel,60,61025ae37ef11b136ea224fe,,,,,,,,,3341,-34.56060791,-82.88586426,1,0,0,response5disk,,3,7.874084473,-1.326080322,1,0,0,rectangle,7.874084473,-1.326080322,1,0,0,,,,,,,7.874084473,-1.326080322,1,0,0,,0,100,100,144,1,
,,,,,,,,,,,,,FF,,,,,,,,0.9495,,,,,,,,,,,,,,,,,,,,,,610341bbc7f7114aea9a2cea,61036a8605f315829a6dd532,2021-07-29_22h57.44.844,Simcolourproject_2stim_asymm_v5,2020.2.10,MacIntel,60,61025ae37ef11b136ea224fe,,,,,,,,,377,36.32299805,78.47259521,1,0,0,response1disk,,7,3.794799805,7.671508789,1,0,0,rectangle,3.794799805,7.671508789,1,0,0,,,,,,,3.794799805,7.671508789,1,0,0,,0,101,101,69,1,
,,,,,,,,,,,,,FF,,,,,,,,1.4666,,,,,,,,,,,,,,,,,,,,,,610341bbc7f7114aea9a2cea,61036a8605f315829a6dd532,2021-07-29_22h57.44.844,Simcolourproject_2stim_asymm_v5,2020.2.10,MacIntel,60,61025ae37ef11b136ea224fe,,,,,,,,,4141,54.80438232,-86.53112793,1,0,0,response3disk,,4,5.078125,-10.15655518,1,0,0,rectangle,5.078125,-10.15655518,1,0,0,,,,,,,5.078125,-10.15655518,1,0,0,,0,102,102,18,1,
,,,,,,,,,,,,,FF,,,,,,,,1.0174,,,,,,,,,,,,,,,,,,,,,,610341bbc7f7114aea9a2cea,61036a8605f315829a6dd532,2021-07-29_22h57.44.844,Simcolourproject_2stim_asymm_v5,2020.2.10,MacIntel,60,61025ae37ef11b136ea224fe,,,,,,,,,117,33.29138184,71.78894043,1,0,0,response1disk,,7,9.494689941,0.842102051,1,0,0,rectangle,9.494689941,0.842102051,1,0,0,,,,,,,9.494689941,0.842102051,1,0,0,,0,103,103,73,1,
,,,,,,,,,,,,,FF,,,,,,,,0.8834,,,,,,,,,,,,,,,,,,,,,,610341bbc7f7114aea9a2cea,61036a8605f315829a6dd532,2021-07-29_22h57.44.844,Simcolourproject_2stim_asymm_v5,2020.2.10,MacIntel,60,61025ae37ef11b136ea224fe,,,,,,,,,97,36.89648438,-75.11981201,1,0,0,response3disk,,4,24.09259033,-9.398468018,1,0,0,rectangle,24.09259033,-9.398468018,1,0,0,,,,,,,24.09259033,-9.398468018,1,0,0,,0,104,104,134,1,
,,,,,,,,,,,,,FF,,,,,,,,2.351,,,,,,,,,,,,,,,,,,,,,,610341bbc7f7114aea9a2cea,61036a8605f315829a6dd532,2021-07-29_22h57.44.844,Simcolourproject_2stim_asymm_v5,2020.2.10,MacIntel,60,61025ae37ef11b136ea224fe,,,,,,,,,2884,20.31140137,-74.21209717,1,0,0,response3disk,,4,4.253051758,7.1796875,1,0,0,rectangle,4.253051758,7.1796875,1,0,0,,,,,,,4.253051758,7.1796875,1,0,0,,0,105,105,116,1,
,,,,,,,,,,,,,FF,,,,,,,,0.917,,,,,,,,,,,,,,,,,,,,,,610341bbc7f7114aea9a2cea,61036a8605f315829a6dd532,2021-07-29_22h57.44.844,Simcolourproject_2stim_asymm_v5,2020.2.10,MacIntel,60,61025ae37ef11b136ea224fe,,,,,,,,,3333,38.02783203,-66.49108887,1,0,0,response3disk,,4,14.35046387,-6.561279297,1,0,0,rectangle,14.35046387,-6.561279297,1,0,0,,,,,,,14.35046387,-6.561279297,1,0,0,,0,106,106,139,1,
,,,,,,,,,,,,,FF,,,,,,,,0.9165,,,,,,,,,,,,,,,,,,,,,,610341bbc7f7114aea9a2cea,61036a8605f315829a6dd532,2021-07-29_22h57.44.844,Simcolourproject_2stim_asymm_v5,2020.2.10,MacIntel,60,61025ae37ef11b136ea224fe,,,,,,,,,3544,38.87365723,-81.66424561,1,0,0,response3disk,,4,13.81158447,0.557403564,1,0,0,rectangle,13.81158447,0.557403564,1,0,0,,,,,,,13.81158447,0.557403564,1,0,0,,0,107,107,140,1,
,,,,,,,,,,,,,FF,,,,,,,,1.2169,,,,,,,,,,,,,,,,,,,,,,610341bbc7f7114aea9a2cea,61036a8605f315829a6dd532,2021-07-29_22h57.44.844,Simcolourproject_2stim_asymm_v5,2020.2.10,MacIntel,60,61025ae37ef11b136ea224fe,,,,,,,,,2541,-44.66259766,79.62808228,1,0,0,response7disk,,0,-9.222412109,-0.826446533,1,0,0,rectangle,-9.222412109,-0.826446533,1,0,0,,,,,,,-9.222412109,-0.826446533,1,0,0,,0,108,108,150,1,
,,,,,,,,,,,,,FF,,,,,,,,2.1175,,,,,,,,,,,,,,,,,,,,,,610341bbc7f7114aea9a2cea,61036a8605f315829a6dd532,2021-07-29_22h57.44.844,Simcolourproject_2stim_asymm_v5,2020.2.10,MacIntel,60,61025ae37ef11b136ea224fe,,,,,,,,,2390,73.1574707,-35.81045532,1,0,0,response3disk,,5,10.53735352,0.695556641,1,0,0,rectangle,10.53735352,0.695556641,1,0,0,,,,,,,10.53735352,0.695556641,1,0,0,,0,109,109,93,1,
,,,,,,,,,,,,,FF,,,,,,,,1.0679,,,,,,,,,,,,,,,,,,,,,,610341bbc7f7114aea9a2cea,61036a8605f315829a6dd532,2021-07-29_22h57.44.844,Simcolourproject_2stim_asymm_v5,2020.2.10,MacIntel,60,61025ae37ef11b136ea224fe,,,,,,,,,2951,-30.82104492,-81.8371582,1,0,0,response5disk,,3,3.382202148,-5.209289551,1,0,0,rectangle,3.382202148,-5.209289551,1,0,0,,,,,,,3.382202148,-5.209289551,1,0,0,,0,110,110,26,1,
,,,,,,,,,,,,,FF,,,,,,,,1.1006,,,,,,,,,,,,,,,,,,,,,,610341bbc7f7114aea9a2cea,61036a8605f315829a6dd532,2021-07-29_22h57.44.844,Simcolourproject_2stim_asymm_v5,2020.2.10,MacIntel,60,61025ae37ef11b136ea224fe,,,,,,,,,1864,90.97229004,47.86169434,1,0,0,response1disk,,6,15.84161377,1.288391113,1,0,0,rectangle,15.84161377,1.288391113,1,0,0,,,,,,,15.84161377,1.288391113,1,0,0,,0,111,111,46,1,
,,,,,,,,,,,,,FF,,,,,,,,0.9512,,,,,,,,,,,,,,,,,,,,,,610341bbc7f7114aea9a2cea,61036a8605f315829a6dd532,2021-07-29_22h57.44.844,Simcolourproject_2stim_asymm_v5,2020.2.10,MacIntel,60,61025ae37ef11b136ea224fe,,,,,,,,,2184,80.78588867,42.78723145,1,0,0,response1disk,,6,9.152587891,9.205505371,1,0,0,rectangle,-35.56646729,88.48043823,1,0,0,response7disk_3,TRUE,0,0,"[1,66,10,289,113,91,60,80,38,308,30,24,35,251,149,170,47,290,133,283]",1.2008,-2.65032959,-3.409484863,1,0,0,rectangle,0,112,112,28,1,
,,,,,,,,,,,,,FF,,,,,,,,2.2846,,,,,,,,,,,,,,,,,,,,,,610341bbc7f7114aea9a2cea,61036a8605f315829a6dd532,2021-07-29_22h57.44.844,Simcolourproject_2stim_asymm_v5,2020.2.10,MacIntel,60,61025ae37ef11b136ea224fe,,,,,,,,,2662,-56.56317139,-79.18994141,1,0,0,response5disk,,3,5.530700684,3.435974121,1,0,0,rectangle,5.530700684,3.435974121,1,0,0,,,,,,,5.530700684,3.435974121,1,0,0,,0,113,113,8,1,
,,,,,,,,,,,,,FF,,,,,,,,1.2842,,,,,,,,,,,,,,,,,,,,,,610341bbc7f7114aea9a2cea,61036a8605f315829a6dd532,2021-07-29_22h57.44.844,Simcolourproject_2stim_asymm_v5,2020.2.10,MacIntel,60,61025ae37ef11b136ea224fe,,,,,,,,,1131,-48.34179688,83.40740967,1,0,0,response7disk,,0,-2.20111084,4.81439209,1,0,0,rectangle,-2.20111084,4.81439209,1,0,0,,,,,,,-2.20111084,4.81439209,1,0,0,,0,114,114,51,1,
,,,,,,,,,,,,,FF,,,,,,,,1.2838,,,,,,,,,,,,,,,,,,,,,,610341bbc7f7114aea9a2cea,61036a8605f315829a6dd532,2021-07-29_22h57.44.844,Simcolourproject_2stim_asymm_v5,2020.2.10,MacIntel,60,61025ae37ef11b136ea224fe,,,,,,,,,143,-46.01080322,-93.38861084,1,0,0,response5disk,,3,-1.901245117,1.942932129,1,0,0,rectangle,-1.901245117,1.942932129,1,0,0,,,,,,,-1.901245117,1.942932129,1,0,0,,0,115,115,102,1,
,,,,,,,,,,,,,FF,,,,,,,,0.8997,,,,,,,,,,,,,,,,,,,,,,610341bbc7f7114aea9a2cea,61036a8605f315829a6dd532,2021-07-29_22h57.44.844,Simcolourproject_2stim_asymm_v5,2020.2.10,MacIntel,60,61025ae37ef11b136ea224fe,,,,,,,,,3299,42.69519043,-70.2833252,1,0,0,response3disk,,4,7.871520996,4.448760986,1,0,0,rectangle,7.871520996,4.448760986,1,0,0,,,,,,,7.871520996,4.448760986,1,0,0,,0,116,116,33,1,
,,,,,,,,,,,,,FF,,,,,,,,0.9162,,,,,,,,,,,,,,,,,,,,,,610341bbc7f7114aea9a2cea,61036a8605f315829a6dd532,2021-07-29_22h57.44.844,Simcolourproject_2stim_asymm_v5,2020.2.10,MacIntel,60,61025ae37ef11b136ea224fe,,,,,,,,,4006,41.82714844,-78.44042969,1,0,0,response3disk,,4,15.737854,-6.888122559,1,0,0,rectangle,15.737854,-6.888122559,1,0,0,,,,,,,15.737854,-6.888122559,1,0,0,,0,117,117,56,1,
,,,,,,,,,,,,,FF,,,,,,,,0.967,,,,,,,,,,,,,,,,,,,,,,610341bbc7f7114aea9a2cea,61036a8605f315829a6dd532,2021-07-29_22h57.44.844,Simcolourproject_2stim_asymm_v5,2020.2.10,MacIntel,60,61025ae37ef11b136ea224fe,,,,,,,,,2851,86.934021,38.88989258,1,0,0,response1disk,,6,5.569458008,-5.991943359,1,0,0,rectangle,5.569458008,-5.991943359,1,0,0,,,,,,,5.569458008,-5.991943359,1,0,0,,0,118,118,50,1,
,,,,,,,,,,,,,FF,,,,,,,,0.6999,,,,,,,,,,,,,,,,,,,,,,610341bbc7f7114aea9a2cea,61036a8605f315829a6dd532,2021-07-29_22h57.44.844,Simcolourproject_2stim_asymm_v5,2020.2.10,MacIntel,60,61025ae37ef11b136ea224fe,,,,,,,,,1088,71.58251953,33.25622559,1,0,0,response1disk,,6,5.149291992,-1.892059326,1,0,0,rectangle,5.149291992,-1.892059326,1,0,0,,,,,,,5.149291992,-1.892059326,1,0,0,,0,119,119,111,1,
,,,,,,,,,,,,,FF,,,,,,,,1.0322,,,,,,,,,,,,,,,,,,,,,,610341bbc7f7114aea9a2cea,61036a8605f315829a6dd532,2021-07-29_22h57.44.844,Simcolourproject_2stim_asymm_v5,2020.2.10,MacIntel,60,61025ae37ef11b136ea224fe,,,,,,,,,3174,85.07733154,-46.61218262,1,0,0,response3disk,,5,15.4552002,-11.94335938,1,0,0,rectangle,15.4552002,-11.94335938,1,0,0,,,,,,,15.4552002,-11.94335938,1,0,0,,0,120,120,22,1,
,,,,,,,,,,,,,FF,,,,,,,,0.9502,,,,,,,,,,,,,,,,,,,,,,610341bbc7f7114aea9a2cea,61036a8605f315829a6dd532,2021-07-29_22h57.44.844,Simcolourproject_2stim_asymm_v5,2020.2.10,MacIntel,60,61025ae37ef11b136ea224fe,,,,,,,,,2598,42.5970459,81.47644043,1,0,0,response1disk,,7,11.68920898,6.020507813,1,0,0,rectangle,11.68920898,6.020507813,1,0,0,,,,,,,11.68920898,6.020507813,1,0,0,,0,121,121,75,1,
,,,,,,,,,,,,,FF,,,,,,,,1.4,,,,,,,,,,,,,,,,,,,,,,610341bbc7f7114aea9a2cea,61036a8605f315829a6dd532,2021-07-29_22h57.44.844,Simcolourproject_2stim_asymm_v5,2020.2.10,MacIntel,60,61025ae37ef11b136ea224fe,,,,,,,,,1169,93.54174805,45.35632324,1,0,0,response1disk,,6,11.01165771,2.036865234,1,0,0,rectangle,11.01165771,2.036865234,1,0,0,,,,,,,11.01165771,2.036865234,1,0,0,,0,122,122,59,1,
,,,,,,,,,,,,,FF,,,,,,,,0.8513,,,,,,,,,,,,,,,,,,,,,,610341bbc7f7114aea9a2cea,61036a8605f315829a6dd532,2021-07-29_22h57.44.844,Simcolourproject_2stim_asymm_v5,2020.2.10,MacIntel,60,61025ae37ef11b136ea224fe,,,,,,,,,2409,35.66345215,85.62335205,1,0,0,response1disk,,7,10.3994751,1.909118652,1,0,0,rectangle,10.3994751,1.909118652,1,0,0,,,,,,,10.3994751,1.909118652,1,0,0,,0,123,123,114,1,
,,,,,,,,,,,,,FF,,,,,,,,1.5502,,,,,,,,,,,,,,,,,,,,,,610341bbc7f7114aea9a2cea,61036a8605f315829a6dd532,2021-07-29_22h57.44.844,Simcolourproject_2stim_asymm_v5,2020.2.10,MacIntel,60,61025ae37ef11b136ea224fe,,,,,,,,,3724,92.35101318,39.01922607,1,0,0,response1disk,,6,6.934143066,-2.617980957,1,0,0,rectangle,6.934143066,-2.617980957,1,0,0,,,,,,,6.934143066,-2.617980957,1,0,0,,0,124,124,103,1,
,,,,,,,,,,,,,FF,,,,,,,,0.8172,,,,,,,,,,,,,,,,,,,,,,610341bbc7f7114aea9a2cea,61036a8605f315829a6dd532,2021-07-29_22h57.44.844,Simcolourproject_2stim_asymm_v5,2020.2.10,MacIntel,60,61025ae37ef11b136ea224fe,,,,,,,,,1000,47.33068848,88.38735962,1,0,0,response1disk,,7,8.197753906,2.612670898,1,0,0,rectangle,8.197753906,2.612670898,1,0,0,,,,,,,8.197753906,2.612670898,1,0,0,,0,125,125,55,1,
,,,,,,,,,,,,,FF,,,,,,,,0.7493,,,,,,,,,,,,,,,,,,,,,,610341bbc7f7114aea9a2cea,61036a8605f315829a6dd532,2021-07-29_22h57.44.844,Simcolourproject_2stim_asymm_v5,2020.2.10,MacIntel,60,61025ae37ef11b136ea224fe,,,,,,,,,405,36.0625,93.65911865,1,0,0,response1disk,,7,14.58996582,0.118988037,1,0,0,rectangle,14.58996582,0.118988037,1,0,0,,,,,,,14.58996582,0.118988037,1,0,0,,0,126,126,123,1,
,,,,,,,,,,,,,FF,,,,,,,,1.8342,,,,,,,,,,,,,,,,,,,,,,610341bbc7f7114aea9a2cea,61036a8605f315829a6dd532,2021-07-29_22h57.44.844,Simcolourproject_2stim_asymm_v5,2020.2.10,MacIntel,60,61025ae37ef11b136ea224fe,,,,,,,,,1814,93.77032471,-35.02474976,1,0,0,response3disk,,5,10.52435303,1.56640625,1,0,0,rectangle,10.52435303,1.56640625,1,0,0,,,,,,,10.52435303,1.56640625,1,0,0,,0,127,127,38,1,
,,,,,,,,,,,,,FF,,,,,,,,1.5175,,,,,,,,,,,,,,,,,,,,,,610341bbc7f7114aea9a2cea,61036a8605f315829a6dd532,2021-07-29_22h57.44.844,Simcolourproject_2stim_asymm_v5,2020.2.10,MacIntel,60,61025ae37ef11b136ea224fe,,,,,,,,,1194,78.77099609,-34.10626221,1,0,0,response3disk,,5,27.41778564,-1.898620605,1,0,0,rectangle,27.41778564,-1.898620605,1,0,0,,,,,,,27.41778564,-1.898620605,1,0,0,,0,128,128,64,1,
,,,,,,,,,,,,,FF,,,,,,,,3.2504,,,,,,,,,,,,,,,,,,,,,,610341bbc7f7114aea9a2cea,61036a8605f315829a6dd532,2021-07-29_22h57.44.844,Simcolourproject_2stim_asymm_v5,2020.2.10,MacIntel,60,61025ae37ef11b136ea224fe,,,,,,,,,1516,89.24029541,37.18725586,1,0,0,response1disk,,6,-8.006530762,1.073425293,1,0,0,rectangle,-8.006530762,1.073425293,1,0,0,,,,,,,-8.006530762,1.073425293,1,0,0,,0,129,129,154,1,
,,,,,,,,,,,,,FF,,,,,,,,1.0173,,,,,,,,,,,,,,,,,,,,,,610341bbc7f7114aea9a2cea,61036a8605f315829a6dd532,2021-07-29_22h57.44.844,Simcolourproject_2stim_asymm_v5,2020.2.10,MacIntel,60,61025ae37ef11b136ea224fe,,,,,,,,,2610,50.90032959,-101.9570923,1,0,0,response3disk,,4,7.38458252,-2.362731934,1,0,0,rectangle,7.38458252,-2.362731934,1,0,0,,,,,,,7.38458252,-2.362731934,1,0,0,,0,130,130,87,1,
,,,,,,,,,,,,,FF,,,,,,,,1.2334,,,,,,,,,,,,,,,,,,,,,,610341bbc7f7114aea9a2cea,61036a8605f315829a6dd532,2021-07-29_22h57.44.844,Simcolourproject_2stim_asymm_v5,2020.2.10,MacIntel,60,61025ae37ef11b136ea224fe,,,,,,,,,3397,48.04608154,-82.44671631,1,0,0,response3disk,,4,8.655029297,-6.286529541,1,0,0,rectangle,8.655029297,-6.286529541,1,0,0,,,,,,,8.655029297,-6.286529541,1,0,0,,0,131,131,156,1,
,,,,,,,,,,,,,FF,,,,,,,,1.0167,,,,,,,,,,,,,,,,,,,,,,610341bbc7f7114aea9a2cea,61036a8605f315829a6dd532,2021-07-29_22h57.44.844,Simcolourproject_2stim_asymm_v5,2020.2.10,MacIntel,60,61025ae37ef11b136ea224fe,,,,,,,,,4041,90.26831055,47.27468872,1,0,0,response1disk,,6,5.086425781,1.08996582,1,0,0,rectangle,93.95776367,38.02194214,1,0,0,response1disk_3,TRUE,6,6,"[1,66,10,289,113,91,60,80,38,308,30,24,35,251,149,170,47,290,133,283]",2.4649,-0.162780762,0.478881836,1,0,0,rectangle,0,132,132,32,1,
,,,,,,,,,,,,,FF,,,,,,,,3.2669,,,,,,,,,,,,,,,,,,,,,,610341bbc7f7114aea9a2cea,61036a8605f315829a6dd532,2021-07-29_22h57.44.844,Simcolourproject_2stim_asymm_v5,2020.2.10,MacIntel,60,61025ae37ef11b136ea224fe,,,,,,,,,4113,101.5638428,47.21148682,1,0,0,response1disk,,6,8.862121582,1.114685059,1,0,0,rectangle,8.862121582,1.114685059,1,0,0,,,,,,,8.862121582,1.114685059,1,0,0,,0,133,133,0,1,
,,,,,,,,,,,,,FF,,,,,,,,1.6016,,,,,,,,,,,,,,,,,,,,,,610341bbc7f7114aea9a2cea,61036a8605f315829a6dd532,2021-07-29_22h57.44.844,Simcolourproject_2stim_asymm_v5,2020.2.10,MacIntel,60,61025ae37ef11b136ea224fe,,,,,,,,,960,41.11578369,93.68499756,1,0,0,response1disk,,7,17.06469727,5.127807617,1,0,0,rectangle,17.06469727,5.127807617,1,0,0,,,,,,,17.06469727,5.127807617,1,0,0,,0,134,134,21,1,
,,,,,,,,,,,,,FF,,,,,,,,0.7329,,,,,,,,,,,,,,,,,,,,,,610341bbc7f7114aea9a2cea,61036a8605f315829a6dd532,2021-07-29_22h57.44.844,Simcolourproject_2stim_asymm_v5,2020.2.10,MacIntel,60,61025ae37ef11b136ea224fe,,,,,,,,,4212,45.11126709,95.7923584,1,0,0,response1disk,,7,12.35241699,-2.411865234,1,0,0,rectangle,12.35241699,-2.411865234,1,0,0,,,,,,,12.35241699,-2.411865234,1,0,0,,0,135,135,110,1,
,,,,,,,,,,,,,FF,,,,,,,,0.7342,,,,,,,,,,,,,,,,,,,,,,610341bbc7f7114aea9a2cea,61036a8605f315829a6dd532,2021-07-29_22h57.44.844,Simcolourproject_2stim_asymm_v5,2020.2.10,MacIntel,60,61025ae37ef11b136ea224fe,,,,,,,,,1960,76.51086426,-28.37811279,1,0,0,response3disk,,5,8.412719727,8.115570068,1,0,0,rectangle,8.412719727,8.115570068,1,0,0,,,,,,,8.412719727,8.115570068,1,0,0,,0,136,136,148,1,
,,,,,,,,,,,,,FF,,,,,,,,1.1341,,,,,,,,,,,,,,,,,,,,,,610341bbc7f7114aea9a2cea,61036a8605f315829a6dd532,2021-07-29_22h57.44.844,Simcolourproject_2stim_asymm_v5,2020.2.10,MacIntel,60,61025ae37ef11b136ea224fe,,,,,,,,,2772,88.60650635,-48.22872925,1,0,0,response3disk,,5,23.57086182,-13.77648926,1,0,0,rectangle,23.57086182,-13.77648926,1,0,0,,,,,,,23.57086182,-13.77648926,1,0,0,,0,137,137,109,1,
,,,,,,,,,,,,,FF,,,,,,,,0.951,,,,,,,,,,,,,,,,,,,,,,610341bbc7f7114aea9a2cea,61036a8605f315829a6dd532,2021-07-29_22h57.44.844,Simcolourproject_2stim_asymm_v5,2020.2.10,MacIntel,60,61025ae37ef11b136ea224fe,,,,,,,,,3549,36.01202393,-91.41259766,1,0,0,response3disk,,4,4.843994141,8.265380859,1,0,0,rectangle,4.843994141,8.265380859,1,0,0,,,,,,,4.843994141,8.265380859,1,0,0,,0,138,138,135,1,
,,,,,,,,,,,,,FF,,,,,,,,0.8353,,,,,,,,,,,,,,,,,,,,,,610341bbc7f7114aea9a2cea,61036a8605f315829a6dd532,2021-07-29_22h57.44.844,Simcolourproject_2stim_asymm_v5,2020.2.10,MacIntel,60,61025ae37ef11b136ea224fe,,,,,,,,,4284,35.03594971,77.40249634,1,0,0,response1disk,,7,3.332519531,-1.571289063,1,0,0,rectangle,3.332519531,-1.571289063,1,0,0,,,,,,,3.332519531,-1.571289063,1,0,0,,0,139,139,115,1,
,,,,,,,,,,,,,FF,,,,,,,,0.9166,,,,,,,,,,,,,,,,,,,,,,610341bbc7f7114aea9a2cea,61036a8605f315829a6dd532,2021-07-29_22h57.44.844,Simcolourproject_2stim_asymm_v5,2020.2.10,MacIntel,60,61025ae37ef11b136ea224fe,,,,,,,,,2087,100.7001953,44.51452637,1,0,0,response1disk,,6,19.64984131,8.899139404,1,0,0,rectangle,19.64984131,8.899139404,1,0,0,,,,,,,19.64984131,8.899139404,1,0,0,,0,140,140,49,1,
,,,,,,,,,,,,,FF,,,,,,,,1.1846,,,,,,,,,,,,,,,,,,,,,,610341bbc7f7114aea9a2cea,61036a8605f315829a6dd532,2021-07-29_22h57.44.844,Simcolourproject_2stim_asymm_v5,2020.2.10,MacIntel,60,61025ae37ef11b136ea224fe,,,,,,,,,2828,90.04168701,-50.59204102,1,0,0,response3disk,,5,12.53613281,-5.41998291,1,0,0,rectangle,12.53613281,-5.41998291,1,0,0,,,,,,,12.53613281,-5.41998291,1,0,0,,0,141,141,158,1,
,,,,,,,,,,,,,FF,,,,,,,,0.7668,,,,,,,,,,,,,,,,,,,,,,610341bbc7f7114aea9a2cea,61036a8605f315829a6dd532,2021-07-29_22h57.44.844,Simcolourproject_2stim_asymm_v5,2020.2.10,MacIntel,60,61025ae37ef11b136ea224fe,,,,,,,,,770,37.91107178,100.2700195,1,0,0,response1disk,,7,7.500183105,-6.8152771,1,0,0,rectangle,7.500183105,-6.8152771,1,0,0,,,,,,,7.500183105,-6.8152771,1,0,0,,0,142,142,61,1,
,,,,,,,,,,,,,FF,,,,,,,,1.45,,,,,,,,,,,,,,,,,,,,,,610341bbc7f7114aea9a2cea,61036a8605f315829a6dd532,2021-07-29_22h57.44.844,Simcolourproject_2stim_asymm_v5,2020.2.10,MacIntel,60,61025ae37ef11b136ea224fe,,,,,,,,,3772,94.3180542,-43.98809814,1,0,0,response3disk,,5,12.52862549,4.034729004,1,0,0,rectangle,12.52862549,4.034729004,1,0,0,,,,,,,12.52862549,4.034729004,1,0,0,,0,143,143,82,1,
,,,,,,,,,,,,,FF,,,,,,,,0.7832,,,,,,,,,,,,,,,,,,,,,,610341bbc7f7114aea9a2cea,61036a8605f315829a6dd532,2021-07-29_22h57.44.844,Simcolourproject_2stim_asymm_v5,2020.2.10,MacIntel,60,61025ae37ef11b136ea224fe,,,,,,,,,1458,45.23297119,-89.38989258,1,0,0,response3disk,,4,9.331298828,9.197998047,1,0,0,rectangle,9.331298828,9.197998047,1,0,0,,,,,,,9.331298828,9.197998047,1,0,0,,0,144,144,145,1,
,,,,,,,,,,,,,FF,,,,,,,,0.7679,,,,,,,,,,,,,,,,,,,,,,610341bbc7f7114aea9a2cea,61036a8605f315829a6dd532,2021-07-29_22h57.44.844,Simcolourproject_2stim_asymm_v5,2020.2.10,MacIntel,60,61025ae37ef11b136ea224fe,,,,,,,,,1941,69.86193848,43.15020752,1,0,0,response1disk,,6,8.969421387,7.559509277,1,0,0,rectangle,8.969421387,7.559509277,1,0,0,,,,,,,8.969421387,7.559509277,1,0,0,,0,145,145,44,1,
,,,,,,,,,,,,,FF,,,,,,,,0.6678,,,,,,,,,,,,,,,,,,,,,,610341bbc7f7114aea9a2cea,61036a8605f315829a6dd532,2021-07-29_22h57.44.844,Simcolourproject_2stim_asymm_v5,2020.2.10,MacIntel,60,61025ae37ef11b136ea224fe,,,,,,,,,3497,51.12176514,102.0477295,1,0,0,response1disk,,7,13.71313477,-3.733337402,1,0,0,rectangle,13.71313477,-3.733337402,1,0,0,,,,,,,13.71313477,-3.733337402,1,0,0,,0,146,146,41,1,
,,,,,,,,,,,,,FF,,,,,,,,1.5336,,,,,,,,,,,,,,,,,,,,,,610341bbc7f7114aea9a2cea,61036a8605f315829a6dd532,2021-07-29_22h57.44.844,Simcolourproject_2stim_asymm_v5,2020.2.10,MacIntel,60,61025ae37ef11b136ea224fe,,,,,,,,,1307,94.03570557,-37.62939453,1,0,0,response3disk,,5,13.12176514,-0.509277344,1,0,0,rectangle,13.12176514,-0.509277344,1,0,0,,,,,,,13.12176514,-0.509277344,1,0,0,,0,147,147,124,1,
,,,,,,,,,,,,,FF,,,,,,,,1.9837,,,,,,,,,,,,,,,,,,,,,,610341bbc7f7114aea9a2cea,61036a8605f315829a6dd532,2021-07-29_22h57.44.844,Simcolourproject_2stim_asymm_v5,2020.2.10,MacIntel,60,61025ae37ef11b136ea224fe,,,,,,,,,4248,90.69451904,42.54229736,1,0,0,response1disk,,6,16.70349121,4.657806396,1,0,0,rectangle,38.45709229,96.31561279,1,0,0,response1disk_3,TRUE,7,7,"[1,66,10,289,113,91,60,80,38,308,30,24,35,251,149,170,47,290,133,283]",2.2328,3.696655273,0.710754395,1,0,0,rectangle,0,148,148,131,1,
,,,,,,,,,,,,,FF,,,,,,,,0.8001,,,,,,,,,,,,,,,,,,,,,,610341bbc7f7114aea9a2cea,61036a8605f315829a6dd532,2021-07-29_22h57.44.844,Simcolourproject_2stim_asymm_v5,2020.2.10,MacIntel,60,61025ae37ef11b136ea224fe,,,,,,,,,754,32.04193115,79.90771484,1,0,0,response1disk,,7,13.59918213,-3.040435791,1,0,0,rectangle,13.59918213,-3.040435791,1,0,0,,,,,,,13.59918213,-3.040435791,1,0,0,,0,149,149,121,1,
,,,,,,,,,,,,,FF,,,,,,,,0.7171,,,,,,,,,,,,,,,,,,,,,,610341bbc7f7114aea9a2cea,61036a8605f315829a6dd532,2021-07-29_22h57.44.844,Simcolourproject_2stim_asymm_v5,2020.2.10,MacIntel,60,61025ae37ef11b136ea224fe,,,,,,,,,3564,41.38964844,82.79602051,1,0,0,response1disk,,7,19.54101563,3.897155762,1,0,0,rectangle,19.54101563,3.897155762,1,0,0,,,,,,,19.54101563,3.897155762,1,0,0,,0,150,150,11,1,
,,,,,,,,,,,,,FF,,,,,,,,1.2186,,,,,,,,,,,,,,,,,,,,,,610341bbc7f7114aea9a2cea,61036a8605f315829a6dd532,2021-07-29_22h57.44.844,Simcolourproject_2stim_asymm_v5,2020.2.10,MacIntel,60,61025ae37ef11b136ea224fe,,,,,,,,,3969,96.71343994,-40.91516113,1,0,0,response3disk,,5,11.39660645,-2.980285645,1,0,0,rectangle,11.39660645,-2.980285645,1,0,0,,,,,,,11.39660645,-2.980285645,1,0,0,,0,151,151,42,1,
,,,,,,,,,,,,,FF,,,,,,,,0.8502,,,,,,,,,,,,,,,,,,,,,,610341bbc7f7114aea9a2cea,61036a8605f315829a6dd532,2021-07-29_22h57.44.844,Simcolourproject_2stim_asymm_v5,2020.2.10,MacIntel,60,61025ae37ef11b136ea224fe,,,,,,,,,3109,75.83843994,-38.78210449,1,0,0,response3disk,,5,4.354064941,2.516723633,1,0,0,rectangle,4.354064941,2.516723633,1,0,0,,,,,,,4.354064941,2.516723633,1,0,0,,0,152,152,151,1,
,,,,,,,,,,,,,FF,,,,,,,,0.9159,,,,,,,,,,,,,,,,,,,,,,610341bbc7f7114aea9a2cea,61036a8605f315829a6dd532,2021-07-29_22h57.44.844,Simcolourproject_2stim_asymm_v5,2020.2.10,MacIntel,60,61025ae37ef11b136ea224fe,,,,,,,,,1502,39.43060303,88.00097656,1,0,0,response1disk,,7,10.01611328,-2.315429688,1,0,0,rectangle,10.01611328,-2.315429688,1,0,0,,,,,,,10.01611328,-2.315429688,1,0,0,,0,153,153,90,1,
,,,,,,,,,,,,,FF,,,,,,,,0.8509,,,,,,,,,,,,,,,,,,,,,,610341bbc7f7114aea9a2cea,61036a8605f315829a6dd532,2021-07-29_22h57.44.844,Simcolourproject_2stim_asymm_v5,2020.2.10,MacIntel,60,61025ae37ef11b136ea224fe,,,,,,,,,682,45.55328369,85.5045166,1,0,0,response1disk,,7,13.95123291,-1.96282959,1,0,0,rectangle,13.95123291,-1.96282959,1,0,0,,,,,,,13.95123291,-1.96282959,1,0,0,,0,154,154,112,1,
,,,,,,,,,,,,,FF,,,,,,,,1.2343,,,,,,,,,,,,,,,,,,,,,,610341bbc7f7114aea9a2cea,61036a8605f315829a6dd532,2021-07-29_22h57.44.844,Simcolourproject_2stim_asymm_v5,2020.2.10,MacIntel,60,61025ae37ef11b136ea224fe,,,,,,,,,3383,-87.75994873,-42.22753906,1,0,0,response5disk,,2,18.51940918,3.532562256,1,0,0,rectangle,18.51940918,3.532562256,1,0,0,,,,,,,18.51940918,3.532562256,1,0,0,,0,155,155,152,1,
,,,,,,,,,,,,,FF,,,,,,,,0.968,,,,,,,,,,,,,,,,,,,,,,610341bbc7f7114aea9a2cea,61036a8605f315829a6dd532,2021-07-29_22h57.44.844,Simcolourproject_2stim_asymm_v5,2020.2.10,MacIntel,60,61025ae37ef11b136ea224fe,,,,,,,,,3106,-86.39831543,-41.0592041,1,0,0,response5disk,,2,-9.347595215,0.60244751,1,0,0,rectangle,-9.347595215,0.60244751,1,0,0,,,,,,,-9.347595215,0.60244751,1,0,0,,0,156,156,130,1,
,,,,,,,,,,,,,FF,,,,,,,,1.0001,,,,,,,,,,,,,,,,,,,,,,610341bbc7f7114aea9a2cea,61036a8605f315829a6dd532,2021-07-29_22h57.44.844,Simcolourproject_2stim_asymm_v5,2020.2.10,MacIntel,60,61025ae37ef11b136ea224fe,,,,,,,,,1115,42.45166016,107.565918,1,0,0,response1disk,,7,16.39849854,1.361236572,1,0,0,rectangle,16.39849854,1.361236572,1,0,0,,,,,,,16.39849854,1.361236572,1,0,0,,0,157,157,2,1,
,,,,,,,,,,,,,FF,,,,,,,,0.7515,,,,,,,,,,,,,,,,,,,,,,610341bbc7f7114aea9a2cea,61036a8605f315829a6dd532,2021-07-29_22h57.44.844,Simcolourproject_2stim_asymm_v5,2020.2.10,MacIntel,60,61025ae37ef11b136ea224fe,,,,,,,,,420,37.33007813,94.94873047,1,0,0,response1disk,,7,15.20776367,-3.439483643,1,0,0,rectangle,15.20776367,-3.439483643,1,0,0,,,,,,,15.20776367,-3.439483643,1,0,0,,0,158,158,17,1,
,,,,,,,,,,,,,FF,,,,,,,,2.0504,,,,,,,,,,,,,,,,,,,,,,610341bbc7f7114aea9a2cea,61036a8605f315829a6dd532,2021-07-29_22h57.44.844,Simcolourproject_2stim_asymm_v5,2020.2.10,MacIntel,60,61025ae37ef11b136ea224fe,,,,,,,,,2055,79.62426758,55.31921387,1,0,0,response1disk,,6,-0.925170898,-1.905426025,1,0,0,rectangle,-0.925170898,-1.905426025,1,0,0,,,,,,,-0.925170898,-1.905426025,1,0,0,,0,159,159,149,1,
,,,,,,,,,,,,,FF,,,,,,,,0.7343,,,,,,,,,,,,,,,,,,,,,,610341bbc7f7114aea9a2cea,61036a8605f315829a6dd532,2021-07-29_22h57.44.844,Simcolourproject_2stim_asymm_v5,2020.2.10,MacIntel,60,61025ae37ef11b136ea224fe,,,,,,,,,883,45.3850708,103.0175171,1,0,0,response1disk,,7,11.42999268,-0.582214355,1,0,0,rectangle,11.42999268,-0.582214355,1,0,0,,,,,,,11.42999268,-0.582214355,1,0,0,,1,0,160,132,1,
,,,,,,,,,,,,,FF,,,,,,,,1.0507,,,,,,,,,,,,,,,,,,,,,,610341bbc7f7114aea9a2cea,61036a8605f315829a6dd532,2021-07-29_22h57.44.844,Simcolourproject_2stim_asymm_v5,2020.2.10,MacIntel,60,61025ae37ef11b136ea224fe,,,,,,,,,2362,-83.36322021,-44.9364624,1,0,0,response5disk,,2,0.971862793,3.040618896,1,0,0,rectangle,0.971862793,3.040618896,1,0,0,,,,,,,0.971862793,3.040618896,1,0,0,,1,1,161,66,1,
,,,,,,,,,,,,,FF,,,,,,,,2.0005,,,,,,,,,,,,,,,,,,,,,,610341bbc7f7114aea9a2cea,61036a8605f315829a6dd532,2021-07-29_22h57.44.844,Simcolourproject_2stim_asymm_v5,2020.2.10,MacIntel,60,61025ae37ef11b136ea224fe,,,,,,,,,134,36.3347168,88.84533691,1,0,0,response1disk,,7,8.030273438,-6.876953125,1,0,0,rectangle,8.030273438,-6.876953125,1,0,0,,,,,,,8.030273438,-6.876953125,1,0,0,,1,2,162,48,1,
,,,,,,,,,,,,,FF,,,,,,,,0.6679,,,,,,,,,,,,,,,,,,,,,,610341bbc7f7114aea9a2cea,61036a8605f315829a6dd532,2021-07-29_22h57.44.844,Simcolourproject_2stim_asymm_v5,2020.2.10,MacIntel,60,61025ae37ef11b136ea224fe,,,,,,,,,131,39.69750977,84.68695068,1,0,0,response1disk,,7,12.45184326,0.847839355,1,0,0,rectangle,12.45184326,0.847839355,1,0,0,,,,,,,12.45184326,0.847839355,1,0,0,,1,3,163,131,1,
,,,,,,,,,,,,,FF,,,,,,,,0.7163,,,,,,,,,,,,,,,,,,,,,,610341bbc7f7114aea9a2cea,61036a8605f315829a6dd532,2021-07-29_22h57.44.844,Simcolourproject_2stim_asymm_v5,2020.2.10,MacIntel,60,61025ae37ef11b136ea224fe,,,,,,,,,797,47.6060791,105.4265137,1,0,0,response1disk,,7,14.81341553,-0.107299805,1,0,0,rectangle,14.81341553,-0.107299805,1,0,0,,,,,,,14.81341553,-0.107299805,1,0,0,,1,4,164,148,1,
,,,,,,,,,,,,,FF,,,,,,,,0.9467,,,,,,,,,,,,,,,,,,,,,,610341bbc7f7114aea9a2cea,61036a8605f315829a6dd532,2021-07-29_22h57.44.844,Simcolourproject_2stim_asymm_v5,2020.2.10,MacIntel,60,61025ae37ef11b136ea224fe,,,,,,,,,1300,71.08636475,-38.4258728,1,0,0,response3disk,,5,3.579223633,-8.681732178,1,0,0,rectangle,3.579223633,-8.681732178,1,0,0,,,,,,,3.579223633,-8.681732178,1,0,0,,1,5,165,69,1,
,,,,,,,,,,,,,FF,,,,,,,,0.7153,,,,,,,,,,,,,,,,,,,,,,610341bbc7f7114aea9a2cea,61036a8605f315829a6dd532,2021-07-29_22h57.44.844,Simcolourproject_2stim_asymm_v5,2020.2.10,MacIntel,60,61025ae37ef11b136ea224fe,,,,,,,,,762,32.21362305,112.1802368,1,0,0,response1disk,,7,8.855285645,2.036071777,1,0,0,rectangle,8.855285645,2.036071777,1,0,0,,,,,,,8.855285645,2.036071777,1,0,0,,1,6,166,23,1,
,,,,,,,,,,,,,FF,,,,,,,,0.6327,,,,,,,,,,,,,,,,,,,,,,610341bbc7f7114aea9a2cea,61036a8605f315829a6dd532,2021-07-29_22h57.44.844,Simcolourproject_2stim_asymm_v5,2020.2.10,MacIntel,60,61025ae37ef11b136ea224fe,,,,,,,,,2693,44.05627441,100.2301025,1,0,0,response1disk,,7,15.50280762,-2.355651855,1,0,0,rectangle,15.50280762,-2.355651855,1,0,0,,,,,,,15.50280762,-2.355651855,1,0,0,,1,7,167,126,1,
,,,,,,,,,,,,,FF,,,,,,,,0.6677,,,,,,,,,,,,,,,,,,,,,,610341bbc7f7114aea9a2cea,61036a8605f315829a6dd532,2021-07-29_22h57.44.844,Simcolourproject_2stim_asymm_v5,2020.2.10,MacIntel,60,61025ae37ef11b136ea224fe,,,,,,,,,2514,38.39154053,97.81781006,1,0,0,response1disk,,7,10.21630859,1.023681641,1,0,0,rectangle,10.21630859,1.023681641,1,0,0,,,,,,,10.21630859,1.023681641,1,0,0,,1,8,168,110,1,
,,,,,,,,,,,,,FF,,,,,,,,0.967,,,,,,,,,,,,,,,,,,,,,,610341bbc7f7114aea9a2cea,61036a8605f315829a6dd532,2021-07-29_22h57.44.844,Simcolourproject_2stim_asymm_v5,2020.2.10,MacIntel,60,61025ae37ef11b136ea224fe,,,,,,,,,341,108.081604,38.44726563,1,0,0,response1disk,,6,21.74291992,3.10534668,1,0,0,rectangle,-42.19586182,92.378479,1,0,0,response7disk_3,TRUE,0,0,"[1,66,10,289,113,91,60,80,38,308,30,24,35,251,149,170,47,290,133,283]",1.9657,0.090454102,0.683105469,1,0,0,rectangle,1,9,169,79,1,
,,,,,,,,,,,,,FF,,,,,,,,1.2831,,,,,,,,,,,,,,,,,,,,,,610341bbc7f7114aea9a2cea,61036a8605f315829a6dd532,2021-07-29_22h57.44.844,Simcolourproject_2stim_asymm_v5,2020.2.10,MacIntel,60,61025ae37ef11b136ea224fe,,,,,,,,,645,67.49316406,-34.32104492,1,0,0,response3disk,,5,3.32019043,-5.705871582,1,0,0,rectangle,3.32019043,-5.705871582,1,0,0,,,,,,,3.32019043,-5.705871582,1,0,0,,1,10,170,144,1,
,,,,,,,,,,,,,FF,,,,,,,,1.1665,,,,,,,,,,,,,,,,,,,,,,610341bbc7f7114aea9a2cea,61036a8605f315829a6dd532,2021-07-29_22h57.44.844,Simcolourproject_2stim_asymm_v5,2020.2.10,MacIntel,60,61025ae37ef11b136ea224fe,,,,,,,,,2179,66.67034912,-34.28820801,1,0,0,response3disk,,5,3.156616211,-6.498840332,1,0,0,rectangle,3.156616211,-6.498840332,1,0,0,,,,,,,3.156616211,-6.498840332,1,0,0,,1,11,171,153,1,
,,,,,,,,,,,,,FF,,,,,,,,0.6346,,,,,,,,,,,,,,,,,,,,,,610341bbc7f7114aea9a2cea,61036a8605f315829a6dd532,2021-07-29_22h57.44.844,Simcolourproject_2stim_asymm_v5,2020.2.10,MacIntel,60,61025ae37ef11b136ea224fe,,,,,,,,,2813,27.18188477,90.90612793,1,0,0,response1disk,,7,7.52166748,-11.53076172,1,0,0,rectangle,7.52166748,-11.53076172,1,0,0,,,,,,,7.52166748,-11.53076172,1,0,0,,1,12,172,93,1,
,,,,,,,,,,,,,FF,,,,,,,,0.75,,,,,,,,,,,,,,,,,,,,,,610341bbc7f7114aea9a2cea,61036a8605f315829a6dd532,2021-07-29_22h57.44.844,Simcolourproject_2stim_asymm_v5,2020.2.10,MacIntel,60,61025ae37ef11b136ea224fe,,,,,,,,,2370,39.30883789,-74.13800049,1,0,0,response3disk,,4,14.24755859,-0.831115723,1,0,0,rectangle,14.24755859,-0.831115723,1,0,0,,,,,,,14.24755859,-0.831115723,1,0,0,,1,13,173,10,1,
,,,,,,,,,,,,,FF,,,,,,,,1.6834,,,,,,,,,,,,,,,,,,,,,,610341bbc7f7114aea9a2cea,61036a8605f315829a6dd532,2021-07-29_22h57.44.844,Simcolourproject_2stim_asymm_v5,2020.2.10,MacIntel,60,61025ae37ef11b136ea224fe,,,,,,,,,287,42.87103271,-90.33398438,1,0,0,response3disk,,4,8.522766113,-11.84515381,1,0,0,rectangle,8.522766113,-11.84515381,1,0,0,,,,,,,8.522766113,-11.84515381,1,0,0,,1,14,174,73,1,
,,,,,,,,,,,,,FF,,,,,,,,1.2176,,,,,,,,,,,,,,,,,,,,,,610341bbc7f7114aea9a2cea,61036a8605f315829a6dd532,2021-07-29_22h57.44.844,Simcolourproject_2stim_asymm_v5,2020.2.10,MacIntel,60,61025ae37ef11b136ea224fe,,,,,,,,,755,83.84088135,57.10284424,1,0,0,response1disk,,6,19.31488037,11.85098267,1,0,0,rectangle,19.31488037,11.85098267,1,0,0,,,,,,,19.31488037,11.85098267,1,0,0,,1,15,175,49,1,
,,,,,,,,,,,,,FF,,,,,,,,1.2183,,,,,,,,,,,,,,,,,,,,,,610341bbc7f7114aea9a2cea,61036a8605f315829a6dd532,2021-07-29_22h57.44.844,Simcolourproject_2stim_asymm_v5,2020.2.10,MacIntel,60,61025ae37ef11b136ea224fe,,,,,,,,,108,75.36102295,-43.27880859,1,0,0,response3disk,,5,7.663635254,-3.192504883,1,0,0,rectangle,7.663635254,-3.192504883,1,0,0,,,,,,,7.663635254,-3.192504883,1,0,0,,1,16,176,47,1,
,,,,,,,,,,,,,FF,,,,,,,,1.2842,,,,,,,,,,,,,,,,,,,,,,610341bbc7f7114aea9a2cea,61036a8605f315829a6dd532,2021-07-29_22h57.44.844,Simcolourproject_2stim_asymm_v5,2020.2.10,MacIntel,60,61025ae37ef11b136ea224fe,,,,,,,,,1062,79.65466309,42.34490967,1,0,0,response1disk,,6,22.8237915,8.678497314,1,0,0,rectangle,22.8237915,8.678497314,1,0,0,,,,,,,22.8237915,8.678497314,1,0,0,,1,17,177,13,1,
,,,,,,,,,,,,,FF,,,,,,,,0.9835,,,,,,,,,,,,,,,,,,,,,,610341bbc7f7114aea9a2cea,61036a8605f315829a6dd532,2021-07-29_22h57.44.844,Simcolourproject_2stim_asymm_v5,2020.2.10,MacIntel,60,61025ae37ef11b136ea224fe,,,,,,,,,1315,76.79541016,41.1439209,1,0,0,response1disk,,6,11.92810059,0.868041992,1,0,0,rectangle,11.92810059,0.868041992,1,0,0,,,,,,,11.92810059,0.868041992,1,0,0,,1,18,178,152,1,
,,,,,,,,,,,,,FF,,,,,,,,2.0175,,,,,,,,,,,,,,,,,,,,,,610341bbc7f7114aea9a2cea,61036a8605f315829a6dd532,2021-07-29_22h57.44.844,Simcolourproject_2stim_asymm_v5,2020.2.10,MacIntel,60,61025ae37ef11b136ea224fe,,,,,,,,,2961,85.81970215,-43.67559814,1,0,0,response3disk,,5,10.3815918,-13.64141846,1,0,0,rectangle,10.3815918,-13.64141846,1,0,0,,,,,,,10.3815918,-13.64141846,1,0,0,,1,19,179,82,1,
,,,,,,,,,,,,,FF,,,,,,,,0.8505,,,,,,,,,,,,,,,,,,,,,,610341bbc7f7114aea9a2cea,61036a8605f315829a6dd532,2021-07-29_22h57.44.844,Simcolourproject_2stim_asymm_v5,2020.2.10,MacIntel,60,61025ae37ef11b136ea224fe,,,,,,,,,2307,83.05279541,-42.44586182,1,0,0,response3disk,,5,25.43640137,-8.733581543,1,0,0,rectangle,25.43640137,-8.733581543,1,0,0,,,,,,,25.43640137,-8.733581543,1,0,0,,1,20,180,125,1,
,,,,,,,,,,,,,FF,,,,,,,,1.9177,,,,,,,,,,,,,,,,,,,,,,610341bbc7f7114aea9a2cea,61036a8605f315829a6dd532,2021-07-29_22h57.44.844,Simcolourproject_2stim_asymm_v5,2020.2.10,MacIntel,60,61025ae37ef11b136ea224fe,,,,,,,,,648,34.88555908,-90.76538086,1,0,0,response3disk,,4,9.28137207,-9.926574707,1,0,0,rectangle,9.28137207,-9.926574707,1,0,0,,,,,,,9.28137207,-9.926574707,1,0,0,,1,21,181,83,1,
,,,,,,,,,,,,,FF,,,,,,,,1.0679,,,,,,,,,,,,,,,,,,,,,,610341bbc7f7114aea9a2cea,61036a8605f315829a6dd532,2021-07-29_22h57.44.844,Simcolourproject_2stim_asymm_v5,2020.2.10,MacIntel,60,61025ae37ef11b136ea224fe,,,,,,,,,3839,50.06933594,-84.51153564,1,0,0,response3disk,,4,12.19927979,-4.629272461,1,0,0,rectangle,12.19927979,-4.629272461,1,0,0,,,,,,,12.19927979,-4.629272461,1,0,0,,1,22,182,51,1,
,,,,,,,,,,,,,FF,,,,,,,,1.0306,,,,,,,,,,,,,,,,,,,,,,610341bbc7f7114aea9a2cea,61036a8605f315829a6dd532,2021-07-29_22h57.44.844,Simcolourproject_2stim_asymm_v5,2020.2.10,MacIntel,60,61025ae37ef11b136ea224fe,,,,,,,,,95,-42.99206543,-83.1270752,1,0,0,response5disk,,3,-5.02911377,-5.093719482,1,0,0,rectangle,-5.02911377,-5.093719482,1,0,0,,,,,,,-5.02911377,-5.093719482,1,0,0,,1,23,183,150,1,
,,,,,,,,,,,,,FF,,,,,,,,0.7494,,,,,,,,,,,,,,,,,,,,,,610341bbc7f7114aea9a2cea,61036a8605f315829a6dd532,2021-07-29_22h57.44.844,Simcolourproject_2stim_asymm_v5,2020.2.10,MacIntel,60,61025ae37ef11b136ea224fe,,,,,,,,,1643,40.57958984,83.77328491,1,0,0,response1disk,,7,14.42285156,0.394805908,1,0,0,rectangle,14.42285156,0.394805908,1,0,0,,,,,,,14.42285156,0.394805908,1,0,0,,1,24,184,121,1,
,,,,,,,,,,,,,FF,,,,,,,,0.917,,,,,,,,,,,,,,,,,,,,,,610341bbc7f7114aea9a2cea,61036a8605f315829a6dd532,2021-07-29_22h57.44.844,Simcolourproject_2stim_asymm_v5,2020.2.10,MacIntel,60,61025ae37ef11b136ea224fe,,,,,,,,,1107,51.71270752,-78.62133789,1,0,0,response3disk,,4,19.94512939,0.331207275,1,0,0,rectangle,19.94512939,0.331207275,1,0,0,,,,,,,19.94512939,0.331207275,1,0,0,,1,25,185,89,1,
,,,,,,,,,,,,,FF,,,,,,,,1.1651,,,,,,,,,,,,,,,,,,,,,,610341bbc7f7114aea9a2cea,61036a8605f315829a6dd532,2021-07-29_22h57.44.844,Simcolourproject_2stim_asymm_v5,2020.2.10,MacIntel,60,61025ae37ef11b136ea224fe,,,,,,,,,505,72.86401367,45.67056274,1,0,0,response1disk,,6,18.08276367,-1.225494385,1,0,0,rectangle,18.08276367,-1.225494385,1,0,0,,,,,,,18.08276367,-1.225494385,1,0,0,,1,26,186,112,1,
,,,,,,,,,,,,,FF,,,,,,,,1.5659,,,,,,,,,,,,,,,,,,,,,,610341bbc7f7114aea9a2cea,61036a8605f315829a6dd532,2021-07-29_22h57.44.844,Simcolourproject_2stim_asymm_v5,2020.2.10,MacIntel,60,61025ae37ef11b136ea224fe,,,,,,,,,602,87.9588623,46.85772705,1,0,0,response1disk,,6,8.595581055,3.369750977,1,0,0,rectangle,8.595581055,3.369750977,1,0,0,,,,,,,8.595581055,3.369750977,1,0,0,,1,27,187,157,1,
,,,,,,,,,,,,,FF,,,,,,,,0.8166,,,,,,,,,,,,,,,,,,,,,,610341bbc7f7114aea9a2cea,61036a8605f315829a6dd532,2021-07-29_22h57.44.844,Simcolourproject_2stim_asymm_v5,2020.2.10,MacIntel,60,61025ae37ef11b136ea224fe,,,,,,,,,1889,-50.11401367,-93.64697266,1,0,0,response5disk,,3,-1.422058105,5.485778809,1,0,0,rectangle,-1.422058105,5.485778809,1,0,0,,,,,,,-1.422058105,5.485778809,1,0,0,,1,28,188,127,1,
,,,,,,,,,,,,,FF,,,,,,,,0.7507,,,,,,,,,,,,,,,,,,,,,,610341bbc7f7114aea9a2cea,61036a8605f315829a6dd532,2021-07-29_22h57.44.844,Simcolourproject_2stim_asymm_v5,2020.2.10,MacIntel,60,61025ae37ef11b136ea224fe,,,,,,,,,4330,40.44311523,114.3552856,1,0,0,response1disk,,7,7.133850098,1.453155518,1,0,0,rectangle,7.133850098,1.453155518,1,0,0,,,,,,,7.133850098,1.453155518,1,0,0,,1,29,189,109,1,
,,,,,,,,,,,,,FF,,,,,,,,1.4013,,,,,,,,,,,,,,,,,,,,,,610341bbc7f7114aea9a2cea,61036a8605f315829a6dd532,2021-07-29_22h57.44.844,Simcolourproject_2stim_asymm_v5,2020.2.10,MacIntel,60,61025ae37ef11b136ea224fe,,,,,,,,,3445,88.37054443,41.08380127,1,0,0,response1disk,,6,16.75994873,-2.523010254,1,0,0,rectangle,16.75994873,-2.523010254,1,0,0,,,,,,,16.75994873,-2.523010254,1,0,0,,1,30,190,40,1,
,,,,,,,,,,,,,FF,,,,,,,,0.884,,,,,,,,,,,,,,,,,,,,,,610341bbc7f7114aea9a2cea,61036a8605f315829a6dd532,2021-07-29_22h57.44.844,Simcolourproject_2stim_asymm_v5,2020.2.10,MacIntel,60,61025ae37ef11b136ea224fe,,,,,,,,,2525,46.2644043,91.23937988,1,0,0,response1disk,,7,8.207458496,-0.393127441,1,0,0,rectangle,8.207458496,-0.393127441,1,0,0,,,,,,,8.207458496,-0.393127441,1,0,0,,1,31,191,120,1,
,,,,,,,,,,,,,FF,,,,,,,,0.8679,,,,,,,,,,,,,,,,,,,,,,610341bbc7f7114aea9a2cea,61036a8605f315829a6dd532,2021-07-29_22h57.44.844,Simcolourproject_2stim_asymm_v5,2020.2.10,MacIntel,60,61025ae37ef11b136ea224fe,,,,,,,,,3159,90.03344727,-53.53155518,1,0,0,response3disk,,5,16.47479248,-9.102203369,1,0,0,rectangle,16.47479248,-9.102203369,1,0,0,,,,,,,16.47479248,-9.102203369,1,0,0,,1,32,192,128,1,
,,,,,,,,,,,,,FF,,,,,,,,0.9841,,,,,,,,,,,,,,,,,,,,,,610341bbc7f7114aea9a2cea,61036a8605f315829a6dd532,2021-07-29_22h57.44.844,Simcolourproject_2stim_asymm_v5,2020.2.10,MacIntel,60,61025ae37ef11b136ea224fe,,,,,,,,,3837,69.16766357,-33.16876221,1,0,0,response3disk,,5,16.77166748,-8.846557617,1,0,0,rectangle,16.77166748,-8.846557617,1,0,0,,,,,,,16.77166748,-8.846557617,1,0,0,,1,33,193,129,1,
,,,,,,,,,,,,,FF,,,,,,,,0.7843,,,,,,,,,,,,,,,,,,,,,,610341bbc7f7114aea9a2cea,61036a8605f315829a6dd532,2021-07-29_22h57.44.844,Simcolourproject_2stim_asymm_v5,2020.2.10,MacIntel,60,61025ae37ef11b136ea224fe,,,,,,,,,863,43.77185059,86.75665283,1,0,0,response1disk,,7,8.630065918,0.619384766,1,0,0,rectangle,8.630065918,0.619384766,1,0,0,,,,,,,8.630065918,0.619384766,1,0,0,,1,34,194,77,1,
,,,,,,,,,,,,,FF,,,,,,,,0.6674,,,,,,,,,,,,,,,,,,,,,,610341bbc7f7114aea9a2cea,61036a8605f315829a6dd532,2021-07-29_22h57.44.844,Simcolourproject_2stim_asymm_v5,2020.2.10,MacIntel,60,61025ae37ef11b136ea224fe,,,,,,,,,1122,34.85150146,97.3253479,1,0,0,response1disk,,7,12.93438721,8.786437988,1,0,0,rectangle,12.93438721,8.786437988,1,0,0,,,,,,,12.93438721,8.786437988,1,0,0,,1,35,195,113,1,
,,,,,,,,,,,,,FF,,,,,,,,1.0841,,,,,,,,,,,,,,,,,,,,,,610341bbc7f7114aea9a2cea,61036a8605f315829a6dd532,2021-07-29_22h57.44.844,Simcolourproject_2stim_asymm_v5,2020.2.10,MacIntel,60,61025ae37ef11b136ea224fe,,,,,,,,,2395,40.44543457,88.56066895,1,0,0,response1disk,,7,22.80963135,5.625915527,1,0,0,rectangle,22.80963135,5.625915527,1,0,0,,,,,,,22.80963135,5.625915527,1,0,0,,1,36,196,15,1,
,,,,,,,,,,,,,FF,,,,,,,,0.7174,,,,,,,,,,,,,,,,,,,,,,610341bbc7f7114aea9a2cea,61036a8605f315829a6dd532,2021-07-29_22h57.44.844,Simcolourproject_2stim_asymm_v5,2020.2.10,MacIntel,60,61025ae37ef11b136ea224fe,,,,,,,,,223,43.18438721,92.66424561,1,0,0,response1disk,,7,19.59289551,-0.861755371,1,0,0,rectangle,19.59289551,-0.861755371,1,0,0,,,,,,,19.59289551,-0.861755371,1,0,0,,1,37,197,53,1,
,,,,,,,,,,,,,FF,,,,,,,,0.6668,,,,,,,,,,,,,,,,,,,,,,610341bbc7f7114aea9a2cea,61036a8605f315829a6dd532,2021-07-29_22h57.44.844,Simcolourproject_2stim_asymm_v5,2020.2.10,MacIntel,60,61025ae37ef11b136ea224fe,,,,,,,,,4112,38.66833496,90.77896118,1,0,0,response1disk,,7,11.49920654,-2.022888184,1,0,0,rectangle,11.49920654,-2.022888184,1,0,0,,,,,,,11.49920654,-2.022888184,1,0,0,,1,38,198,8,1,
,,,,,,,,,,,,,FF,,,,,,,,0.5671,,,,,,,,,,,,,,,,,,,,,,610341bbc7f7114aea9a2cea,61036a8605f315829a6dd532,2021-07-29_22h57.44.844,Simcolourproject_2stim_asymm_v5,2020.2.10,MacIntel,60,61025ae37ef11b136ea224fe,,,,,,,,,2859,39.50085449,97.68243408,1,0,0,response1disk,,7,17.54052734,-0.385131836,1,0,0,rectangle,17.54052734,-0.385131836,1,0,0,,,,,,,17.54052734,-0.385131836,1,0,0,,1,39,199,9,1,
,,,,,,,,,,,,,FF,,,,,,,,1.418,,,,,,,,,,,,,,,,,,,,,,610341bbc7f7114aea9a2cea,61036a8605f315829a6dd532,2021-07-29_22h57.44.844,Simcolourproject_2stim_asymm_v5,2020.2.10,MacIntel,60,61025ae37ef11b136ea224fe,,,,,,,,,10,44.17022705,-94.82562256,1,0,0,response3disk,,4,17.60388184,0.477600098,1,0,0,rectangle,17.60388184,0.477600098,1,0,0,,,,,,,17.60388184,0.477600098,1,0,0,,1,40,200,39,1,
,,,,,,,,,,,,,FF,,,,,,,,0.6509,,,,,,,,,,,,,,,,,,,,,,610341bbc7f7114aea9a2cea,61036a8605f315829a6dd532,2021-07-29_22h57.44.844,Simcolourproject_2stim_asymm_v5,2020.2.10,MacIntel,60,61025ae37ef11b136ea224fe,,,,,,,,,4109,41.61529541,93.38699341,1,0,0,response1disk,,7,9.077453613,0.956695557,1,0,0,rectangle,9.077453613,0.956695557,1,0,0,,,,,,,9.077453613,0.956695557,1,0,0,,1,41,201,42,1,
,,,,,,,,,,,,,FF,,,,,,,,1.0665,,,,,,,,,,,,,,,,,,,,,,610341bbc7f7114aea9a2cea,61036a8605f315829a6dd532,2021-07-29_22h57.44.844,Simcolourproject_2stim_asymm_v5,2020.2.10,MacIntel,60,61025ae37ef11b136ea224fe,,,,,,,,,8,41.57147217,-86.37738037,1,0,0,response3disk,,4,12.98693848,8.465454102,1,0,0,rectangle,12.98693848,8.465454102,1,0,0,,,,,,,12.98693848,8.465454102,1,0,0,,1,42,202,5,1,
,,,,,,,,,,,,,FF,,,,,,,,1.4162,,,,,,,,,,,,,,,,,,,,,,610341bbc7f7114aea9a2cea,61036a8605f315829a6dd532,2021-07-29_22h57.44.844,Simcolourproject_2stim_asymm_v5,2020.2.10,MacIntel,60,61025ae37ef11b136ea224fe,,,,,,,,,430,35.88537598,-80.14349365,1,0,0,response3disk,,4,5.043457031,-8.652038574,1,0,0,rectangle,5.043457031,-8.652038574,1,0,0,,,,,,,5.043457031,-8.652038574,1,0,0,,1,43,203,97,1,
,,,,,,,,,,,,,FF,,,,,,,,1.2502,,,,,,,,,,,,,,,,,,,,,,610341bbc7f7114aea9a2cea,61036a8605f315829a6dd532,2021-07-29_22h57.44.844,Simcolourproject_2stim_asymm_v5,2020.2.10,MacIntel,60,61025ae37ef11b136ea224fe,,,,,,,,,3327,42.70672607,113.2124023,1,0,0,response1disk,,7,7.518066406,-2.845275879,1,0,0,rectangle,7.518066406,-2.845275879,1,0,0,,,,,,,7.518066406,-2.845275879,1,0,0,,1,44,204,70,1,
,,,,,,,,,,,,,FF,,,,,,,,0.6005,,,,,,,,,,,,,,,,,,,,,,610341bbc7f7114aea9a2cea,61036a8605f315829a6dd532,2021-07-29_22h57.44.844,Simcolourproject_2stim_asymm_v5,2020.2.10,MacIntel,60,61025ae37ef11b136ea224fe,,,,,,,,,3079,35.19470215,92.74304199,1,0,0,response1disk,,7,9.185852051,-3.408447266,1,0,0,rectangle,9.185852051,-3.408447266,1,0,0,,,,,,,9.185852051,-3.408447266,1,0,0,,1,45,205,124,1,
,,,,,,,,,,,,,FF,,,,,,,,3.7331,,,,,,,,,,,,,,,,,,,,,,610341bbc7f7114aea9a2cea,61036a8605f315829a6dd532,2021-07-29_22h57.44.844,Simcolourproject_2stim_asymm_v5,2020.2.10,MacIntel,60,61025ae37ef11b136ea224fe,,,,,,,,,4307,43.21746826,94.36114502,1,0,0,response1disk,,7,6.898925781,-7.841430664,1,0,0,rectangle,6.898925781,-7.841430664,1,0,0,,,,,,,6.898925781,-7.841430664,1,0,0,,1,46,206,67,1,
,,,,,,,,,,,,,FF,,,,,,,,0.8168,,,,,,,,,,,,,,,,,,,,,,610341bbc7f7114aea9a2cea,61036a8605f315829a6dd532,2021-07-29_22h57.44.844,Simcolourproject_2stim_asymm_v5,2020.2.10,MacIntel,60,61025ae37ef11b136ea224fe,,,,,,,,,2670,43.31085205,-84.22570801,1,0,0,response3disk,,4,11.79217529,-9.55557251,1,0,0,rectangle,11.79217529,-9.55557251,1,0,0,,,,,,,11.79217529,-9.55557251,1,0,0,,1,47,207,25,1,
,,,,,,,,,,,,,FF,,,,,,,,1.5681,,,,,,,,,,,,,,,,,,,,,,610341bbc7f7114aea9a2cea,61036a8605f315829a6dd532,2021-07-29_22h57.44.844,Simcolourproject_2stim_asymm_v5,2020.2.10,MacIntel,60,61025ae37ef11b136ea224fe,,,,,,,,,2115,72.5168457,-42.24407959,1,0,0,response3disk,,5,2.200500488,-7.555267334,1,0,0,rectangle,2.200500488,-7.555267334,1,0,0,,,,,,,2.200500488,-7.555267334,1,0,0,,1,48,208,143,1,
,,,,,,,,,,,,,FF,,,,,,,,0.851,,,,,,,,,,,,,,,,,,,,,,610341bbc7f7114aea9a2cea,61036a8605f315829a6dd532,2021-07-29_22h57.44.844,Simcolourproject_2stim_asymm_v5,2020.2.10,MacIntel,60,61025ae37ef11b136ea224fe,,,,,,,,,3517,30.46228027,-88.50531006,1,0,0,response3disk,,4,-5.187683105,6.67086792,1,0,0,rectangle,-5.187683105,6.67086792,1,0,0,,,,,,,-5.187683105,6.67086792,1,0,0,,1,49,209,103,1,
,,,,,,,,,,,,,FF,,,,,,,,1.2501,,,,,,,,,,,,,,,,,,,,,,610341bbc7f7114aea9a2cea,61036a8605f315829a6dd532,2021-07-29_22h57.44.844,Simcolourproject_2stim_asymm_v5,2020.2.10,MacIntel,60,61025ae37ef11b136ea224fe,,,,,,,,,1045,77.87908936,-37.10791016,1,0,0,response3disk,,5,24.82763672,-10.07995605,1,0,0,rectangle,24.82763672,-10.07995605,1,0,0,,,,,,,24.82763672,-10.07995605,1,0,0,,1,50,210,136,1,
,,,,,,,,,,,,,FF,,,,,,,,0.9845,,,,,,,,,,,,,,,,,,,,,,610341bbc7f7114aea9a2cea,61036a8605f315829a6dd532,2021-07-29_22h57.44.844,Simcolourproject_2stim_asymm_v5,2020.2.10,MacIntel,60,61025ae37ef11b136ea224fe,,,,,,,,,2746,91.07952881,63.60876465,1,0,0,response1disk,,6,12.18200684,0.627166748,1,0,0,rectangle,12.18200684,0.627166748,1,0,0,,,,,,,12.18200684,0.627166748,1,0,0,,1,51,211,29,1,
,,,,,,,,,,,,,FF,,,,,,,,0.8338,,,,,,,,,,,,,,,,,,,,,,610341bbc7f7114aea9a2cea,61036a8605f315829a6dd532,2021-07-29_22h57.44.844,Simcolourproject_2stim_asymm_v5,2020.2.10,MacIntel,60,61025ae37ef11b136ea224fe,,,,,,,,,1486,44.35223389,88.18548584,1,0,0,response1disk,,7,8.718505859,-8.297271729,1,0,0,rectangle,8.718505859,-8.297271729,1,0,0,,,,,,,8.718505859,-8.297271729,1,0,0,,1,52,212,158,1,
,,,,,,,,,,,,,FF,,,,,,,,0.6842,,,,,,,,,,,,,,,,,,,,,,610341bbc7f7114aea9a2cea,61036a8605f315829a6dd532,2021-07-29_22h57.44.844,Simcolourproject_2stim_asymm_v5,2020.2.10,MacIntel,60,61025ae37ef11b136ea224fe,,,,,,,,,600,52.29528809,78.20101929,1,0,0,response1disk,,7,14.06951904,0.830932617,1,0,0,rectangle,14.06951904,0.830932617,1,0,0,,,,,,,14.06951904,0.830932617,1,0,0,,1,53,213,44,1,
,,,,,,,,,,,,,FF,,,,,,,,0.9849,,,,,,,,,,,,,,,,,,,,,,610341bbc7f7114aea9a2cea,61036a8605f315829a6dd532,2021-07-29_22h57.44.844,Simcolourproject_2stim_asymm_v5,2020.2.10,MacIntel,60,61025ae37ef11b136ea224fe,,,,,,,,,235,87.33312988,-37.70281982,1,0,0,response3disk,,5,14.38879395,0.812988281,1,0,0,rectangle,14.38879395,0.812988281,1,0,0,,,,,,,14.38879395,0.812988281,1,0,0,,1,54,214,20,1,
,,,,,,,,,,,,,FF,,,,,,,,2.3156,,,,,,,,,,,,,,,,,,,,,,610341bbc7f7114aea9a2cea,61036a8605f315829a6dd532,2021-07-29_22h57.44.844,Simcolourproject_2stim_asymm_v5,2020.2.10,MacIntel,60,61025ae37ef11b136ea224fe,,,,,,,,,2060,39.77703857,66.84405518,1,0,0,response1disk,,7,11.90637207,-10.08087158,1,0,0,rectangle,11.90637207,-10.08087158,1,0,0,,,,,,,11.90637207,-10.08087158,1,0,0,,1,55,215,14,1,
,,,,,,,,,,,,,FF,,,,,,,,1.099,,,,,,,,,,,,,,,,,,,,,,610341bbc7f7114aea9a2cea,61036a8605f315829a6dd532,2021-07-29_22h57.44.844,Simcolourproject_2stim_asymm_v5,2020.2.10,MacIntel,60,61025ae37ef11b136ea224fe,,,,,,,,,2816,48.07305908,76.6164856,1,0,0,response1disk,,7,13.83599854,-7.946289063,1,0,0,rectangle,13.83599854,-7.946289063,1,0,0,,,,,,,13.83599854,-7.946289063,1,0,0,,1,56,216,102,1,
,,,,,,,,,,,,,FF,,,,,,,,1.4829,,,,,,,,,,,,,,,,,,,,,,610341bbc7f7114aea9a2cea,61036a8605f315829a6dd532,2021-07-29_22h57.44.844,Simcolourproject_2stim_asymm_v5,2020.2.10,MacIntel,60,61025ae37ef11b136ea224fe,,,,,,,,,3890,85.49194336,44.37921143,1,0,0,response1disk,,6,17.90911865,-0.450866699,1,0,0,rectangle,17.90911865,-0.450866699,1,0,0,,,,,,,17.90911865,-0.450866699,1,0,0,,1,57,217,19,1,
,,,,,,,,,,,,,FF,,,,,,,,1.9833,,,,,,,,,,,,,,,,,,,,,,610341bbc7f7114aea9a2cea,61036a8605f315829a6dd532,2021-07-29_22h57.44.844,Simcolourproject_2stim_asymm_v5,2020.2.10,MacIntel,60,61025ae37ef11b136ea224fe,,,,,,,,,874,85.84857178,-38.24438477,1,0,0,response3disk,,5,21.93591309,-4.779541016,1,0,0,rectangle,21.93591309,-4.779541016,1,0,0,,,,,,,21.93591309,-4.779541016,1,0,0,,1,58,218,60,1,
,,,,,,,,,,,,,FF,,,,,,,,0.8656,,,,,,,,,,,,,,,,,,,,,,610341bbc7f7114aea9a2cea,61036a8605f315829a6dd532,2021-07-29_22h57.44.844,Simcolourproject_2stim_asymm_v5,2020.2.10,MacIntel,60,61025ae37ef11b136ea224fe,,,,,,,,,3120,38.19555664,68.32427979,1,0,0,response1disk,,7,13.30285645,-0.163604736,1,0,0,rectangle,13.30285645,-0.163604736,1,0,0,,,,,,,13.30285645,-0.163604736,1,0,0,,1,59,219,59,1,
,,,,,,,,,,,,,FF,,,,,,,,0.8005,,,,,,,,,,,,,,,,,,,,,,610341bbc7f7114aea9a2cea,61036a8605f315829a6dd532,2021-07-29_22h57.44.844,Simcolourproject_2stim_asymm_v5,2020.2.10,MacIntel,60,61025ae37ef11b136ea224fe,,,,,,,,,1422,35.92633057,-85.8338623,1,0,0,response3disk,,4,12.92700195,1.071472168,1,0,0,rectangle,12.92700195,1.071472168,1,0,0,,,,,,,12.92700195,1.071472168,1,0,0,,1,60,220,87,1,
,,,,,,,,,,,,,FF,,,,,,,,1.5667,,,,,,,,,,,,,,,,,,,,,,610341bbc7f7114aea9a2cea,61036a8605f315829a6dd532,2021-07-29_22h57.44.844,Simcolourproject_2stim_asymm_v5,2020.2.10,MacIntel,60,61025ae37ef11b136ea224fe,,,,,,,,,2867,41.93829346,72.69168091,1,0,0,response1disk,,7,19.20892334,3.009033203,1,0,0,rectangle,19.20892334,3.009033203,1,0,0,,,,,,,19.20892334,3.009033203,1,0,0,,1,61,221,76,1,
,,,,,,,,,,,,,FF,,,,,,,,1.0823,,,,,,,,,,,,,,,,,,,,,,610341bbc7f7114aea9a2cea,61036a8605f315829a6dd532,2021-07-29_22h57.44.844,Simcolourproject_2stim_asymm_v5,2020.2.10,MacIntel,60,61025ae37ef11b136ea224fe,,,,,,,,,4367,-82.60223389,-52.24990845,1,0,0,response5disk,,2,-6.492248535,-1.609558105,1,0,0,rectangle,-6.492248535,-1.609558105,1,0,0,,,,,,,-6.492248535,-1.609558105,1,0,0,,1,62,222,84,1,
,,,,,,,,,,,,,FF,,,,,,,,6.1179,,,,,,,,,,,,,,,,,,,,,,610341bbc7f7114aea9a2cea,61036a8605f315829a6dd532,2021-07-29_22h57.44.844,Simcolourproject_2stim_asymm_v5,2020.2.10,MacIntel,60,61025ae37ef11b136ea224fe,,,,,,,,,652,78.16247559,44.23953247,1,0,0,response1disk,,6,-1.687133789,-2.20880127,1,0,0,rectangle,-1.687133789,-2.20880127,1,0,0,,,,,,,-1.687133789,-2.20880127,1,0,0,,1,63,223,81,1,
,,,,,,,,,,,,,FF,,,,,,,,0.8159,,,,,,,,,,,,,,,,,,,,,,610341bbc7f7114aea9a2cea,61036a8605f315829a6dd532,2021-07-29_22h57.44.844,Simcolourproject_2stim_asymm_v5,2020.2.10,MacIntel,60,61025ae37ef11b136ea224fe,,,,,,,,,3390,-83.94970703,-41.64422607,1,0,0,response5disk,,2,-6.124755859,-5.665161133,1,0,0,rectangle,-6.124755859,-5.665161133,1,0,0,,,,,,,-6.124755859,-5.665161133,1,0,0,,1,64,224,151,1,
,,,,,,,,,,,,,FF,,,,,,,,0.7525,,,,,,,,,,,,,,,,,,,,,,610341bbc7f7114aea9a2cea,61036a8605f315829a6dd532,2021-07-29_22h57.44.844,Simcolourproject_2stim_asymm_v5,2020.2.10,MacIntel,60,61025ae37ef11b136ea224fe,,,,,,,,,318,34.25628662,92.81054688,1,0,0,response1disk,,7,11.55822754,7.959472656,1,0,0,rectangle,11.55822754,7.959472656,1,0,0,,,,,,,11.55822754,7.959472656,1,0,0,,1,65,225,0,1,
,,,,,,,,,,,,,FF,,,,,,,,0.601,,,,,,,,,,,,,,,,,,,,,,610341bbc7f7114aea9a2cea,61036a8605f315829a6dd532,2021-07-29_22h57.44.844,Simcolourproject_2stim_asymm_v5,2020.2.10,MacIntel,60,61025ae37ef11b136ea224fe,,,,,,,,,593,46.06494141,82.40670776,1,0,0,response1disk,,7,25.7199707,6.004943848,1,0,0,rectangle,25.7199707,6.004943848,1,0,0,,,,,,,25.7199707,6.004943848,1,0,0,,1,66,226,96,1,
,,,,,,,,,,,,,FF,,,,,,,,0.6499,,,,,,,,,,,,,,,,,,,,,,610341bbc7f7114aea9a2cea,61036a8605f315829a6dd532,2021-07-29_22h57.44.844,Simcolourproject_2stim_asymm_v5,2020.2.10,MacIntel,60,61025ae37ef11b136ea224fe,,,,,,,,,1084,41.32580566,95.90036011,1,0,0,response1disk,,7,18.89678955,4.608978271,1,0,0,rectangle,18.89678955,4.608978271,1,0,0,,,,,,,18.89678955,4.608978271,1,0,0,,1,67,227,28,1,
,,,,,,,,,,,,,FF,,,,,,,,0.6848,,,,,,,,,,,,,,,,,,,,,,610341bbc7f7114aea9a2cea,61036a8605f315829a6dd532,2021-07-29_22h57.44.844,Simcolourproject_2stim_asymm_v5,2020.2.10,MacIntel,60,61025ae37ef11b136ea224fe,,,,,,,,,1341,37.97979736,102.5145874,1,0,0,response1disk,,7,28.85858154,3.618408203,1,0,0,rectangle,28.85858154,3.618408203,1,0,0,,,,,,,28.85858154,3.618408203,1,0,0,,1,68,228,1,1,
,,,,,,,,,,,,,FF,,,,,,,,0.6004,,,,,,,,,,,,,,,,,,,,,,610341bbc7f7114aea9a2cea,61036a8605f315829a6dd532,2021-07-29_22h57.44.844,Simcolourproject_2stim_asymm_v5,2020.2.10,MacIntel,60,61025ae37ef11b136ea224fe,,,,,,,,,1510,43.68878174,109.0718384,1,0,0,response1disk,,7,18.14575195,-0.371826172,1,0,0,rectangle,18.14575195,-0.371826172,1,0,0,,,,,,,18.14575195,-0.371826172,1,0,0,,1,69,229,133,1,
,,,,,,,,,,,,,FF,,,,,,,,0.5845,,,,,,,,,,,,,,,,,,,,,,610341bbc7f7114aea9a2cea,61036a8605f315829a6dd532,2021-07-29_22h57.44.844,Simcolourproject_2stim_asymm_v5,2020.2.10,MacIntel,60,61025ae37ef11b136ea224fe,,,,,,,,,1016,34.83148193,68.44406128,1,0,0,response1disk,,7,11.40435791,-4.594909668,1,0,0,rectangle,11.40435791,-4.594909668,1,0,0,,,,,,,11.40435791,-4.594909668,1,0,0,,1,70,230,2,1,
,,,,,,,,,,,,,FF,,,,,,,,0.9996,,,,,,,,,,,,,,,,,,,,,,610341bbc7f7114aea9a2cea,61036a8605f315829a6dd532,2021-07-29_22h57.44.844,Simcolourproject_2stim_asymm_v5,2020.2.10,MacIntel,60,61025ae37ef11b136ea224fe,,,,,,,,,2108,75.12280273,-34.39807129,1,0,0,response3disk,,5,14.89593506,-1.615722656,1,0,0,rectangle,14.89593506,-1.615722656,1,0,0,,,,,,,14.89593506,-1.615722656,1,0,0,,1,71,231,55,1,
,,,,,,,,,,,,,FF,,,,,,,,0.7337,,,,,,,,,,,,,,,,,,,,,,610341bbc7f7114aea9a2cea,61036a8605f315829a6dd532,2021-07-29_22h57.44.844,Simcolourproject_2stim_asymm_v5,2020.2.10,MacIntel,60,61025ae37ef11b136ea224fe,,,,,,,,,3336,-34.47644043,76.54656982,1,0,0,response7disk,,0,-0.781311035,4.654388428,1,0,0,rectangle,-0.781311035,4.654388428,1,0,0,,,,,,,-0.781311035,4.654388428,1,0,0,,1,72,232,119,1,
,,,,,,,,,,,,,FF,,,,,,,,0.5346,,,,,,,,,,,,,,,,,,,,,,610341bbc7f7114aea9a2cea,61036a8605f315829a6dd532,2021-07-29_22h57.44.844,Simcolourproject_2stim_asymm_v5,2020.2.10,MacIntel,60,61025ae37ef11b136ea224fe,,,,,,,,,4343,-35.0645752,77.32693481,1,0,0,response7disk,,0,1.894104004,1.61932373,1,0,0,rectangle,1.894104004,1.61932373,1,0,0,,,,,,,1.894104004,1.61932373,1,0,0,,1,73,233,74,1,
,,,,,,,,,,,,,FF,,,,,,,,1.068,,,,,,,,,,,,,,,,,,,,,,610341bbc7f7114aea9a2cea,61036a8605f315829a6dd532,2021-07-29_22h57.44.844,Simcolourproject_2stim_asymm_v5,2020.2.10,MacIntel,60,61025ae37ef11b136ea224fe,,,,,,,,,1934,33.88006592,84.56164551,1,0,0,response1disk,,7,7.678466797,-9.702697754,1,0,0,rectangle,7.678466797,-9.702697754,1,0,0,,,,,,,7.678466797,-9.702697754,1,0,0,,1,74,234,26,1,
,,,,,,,,,,,,,FF,,,,,,,,0.9992,,,,,,,,,,,,,,,,,,,,,,610341bbc7f7114aea9a2cea,61036a8605f315829a6dd532,2021-07-29_22h57.44.844,Simcolourproject_2stim_asymm_v5,2020.2.10,MacIntel,60,61025ae37ef11b136ea224fe,,,,,,,,,3999,44.61505127,-82.72741699,1,0,0,response3disk,,4,7.215515137,-1.136474609,1,0,0,rectangle,7.215515137,-1.136474609,1,0,0,,,,,,,7.215515137,-1.136474609,1,0,0,,1,75,235,35,1,
,,,,,,,,,,,,,FF,,,,,,,,0.6843,,,,,,,,,,,,,,,,,,,,,,610341bbc7f7114aea9a2cea,61036a8605f315829a6dd532,2021-07-29_22h57.44.844,Simcolourproject_2stim_asymm_v5,2020.2.10,MacIntel,60,61025ae37ef11b136ea224fe,,,,,,,,,1564,33.69903564,89.09692383,1,0,0,response1disk,,7,4.596618652,-4.276428223,1,0,0,rectangle,4.596618652,-4.276428223,1,0,0,,,,,,,4.596618652,-4.276428223,1,0,0,,1,76,236,21,1,
,,,,,,,,,,,,,FF,,,,,,,,0.8835,,,,,,,,,,,,,,,,,,,,,,610341bbc7f7114aea9a2cea,61036a8605f315829a6dd532,2021-07-29_22h57.44.844,Simcolourproject_2stim_asymm_v5,2020.2.10,MacIntel,60,61025ae37ef11b136ea224fe,,,,,,,,,1382,36.87872314,-82.13360596,1,0,0,response3disk,,4,6.875,11.48059082,1,0,0,rectangle,6.875,11.48059082,1,0,0,,,,,,,6.875,11.48059082,1,0,0,,1,77,237,18,1,
,,,,,,,,,,,,,FF,,,,,,,,1.9177,,,,,,,,,,,,,,,,,,,,,,610341bbc7f7114aea9a2cea,61036a8605f315829a6dd532,2021-07-29_22h57.44.844,Simcolourproject_2stim_asymm_v5,2020.2.10,MacIntel,60,61025ae37ef11b136ea224fe,,,,,,,,,3819,82.97705078,-31.19985962,1,0,0,response3disk,,5,13.59832764,0.180969238,1,0,0,rectangle,13.59832764,0.180969238,1,0,0,,,,,,,13.59832764,0.180969238,1,0,0,,1,78,238,117,1,
,,,,,,,,,,,,,FF,,,,,,,,0.7684,,,,,,,,,,,,,,,,,,,,,,610341bbc7f7114aea9a2cea,61036a8605f315829a6dd532,2021-07-29_22h57.44.844,Simcolourproject_2stim_asymm_v5,2020.2.10,MacIntel,60,61025ae37ef11b136ea224fe,,,,,,,,,391,39.67425537,99.27819824,1,0,0,response1disk,,7,0.62097168,-0.187286377,1,0,0,rectangle,0.62097168,-0.187286377,1,0,0,,,,,,,0.62097168,-0.187286377,1,0,0,,1,79,239,17,1,
,,,,,,,,,,,,,FF,,,,,,,,0.7341,,,,,,,,,,,,,,,,,,,,,,610341bbc7f7114aea9a2cea,61036a8605f315829a6dd532,2021-07-29_22h57.44.844,Simcolourproject_2stim_asymm_v5,2020.2.10,MacIntel,60,61025ae37ef11b136ea224fe,,,,,,,,,1198,38.89178467,125.8016357,1,0,0,response1disk,,7,4.962524414,9.608734131,1,0,0,rectangle,4.962524414,9.608734131,1,0,0,,,,,,,4.962524414,9.608734131,1,0,0,,1,80,240,99,1,
,,,,,,,,,,,,,FF,,,,,,,,0.6338,,,,,,,,,,,,,,,,,,,,,,610341bbc7f7114aea9a2cea,61036a8605f315829a6dd532,2021-07-29_22h57.44.844,Simcolourproject_2stim_asymm_v5,2020.2.10,MacIntel,60,61025ae37ef11b136ea224fe,,,,,,,,,508,36.18371582,89.8614502,1,0,0,response1disk,,7,9.012512207,-3.982513428,1,0,0,rectangle,9.012512207,-3.982513428,1,0,0,,,,,,,9.012512207,-3.982513428,1,0,0,,1,81,241,159,1,
