key_resp.keys,key_resp.rt,key_resp_14.keys,key_resp_14.rt,key_resp_15.keys,key_resp_15.rt,key_resp_17.keys,key_resp_17.rt,key_resp_9.keys,key_resp_9.rt,key_resp_10.keys,key_resp_10.rt,practice_comparison,Ecc,mouse_5.x,mouse_5.y,mouse_5.leftButton,mouse_5.midButton,mouse_5.rightButton,mouse_5.clicked_name,pracsimilarity,response_time,mouse_10.x,mouse_10.y,mouse_10.leftButton,mouse_10.midButton,mouse_10.rightButton,mouse_10.clicked_name,mouse_7.x,mouse_7.y,mouse_7.leftButton,mouse_7.midButton,mouse_7.rightButton,mouse_6.x,mouse_6.y,mouse_6.leftButton,mouse_6.midButton,mouse_6.rightButton,duringprac.thisRepN,duringprac.thisTrialN,duringprac.thisN,duringprac.thisIndex,duringprac.ran,participant,session,date,expName,psychopyVersion,OS,frameRate,study_id,mouse_7.clicked_name,catchpracsimilarity,catch_response_time,catchnumberprac,catchtrialorderprac,mouse_6.clicked_name,key_resp_22.keys,key_resp_22.rt,realcomparison,mouse.x,mouse.y,mouse.leftButton,mouse.midButton,mouse.rightButton,mouse.clicked_name,Colour2,similarity,mouse_2.x,mouse_2.y,mouse_2.leftButton,mouse_2.midButton,mouse_2.rightButton,mouse_2.clicked_name,mouse_3.x,mouse_3.y,mouse_3.leftButton,mouse_3.midButton,mouse_3.rightButton,mouse_11.x,mouse_11.y,mouse_11.leftButton,mouse_11.midButton,mouse_11.rightButton,trials_2.thisRepN,trials_2.thisTrialN,trials_2.thisN,trials_2.thisIndex,trials_2.ran,Colour1,mouse_3.clicked_name,catchornah,catchsimilarity,catchnumber,catchtrialorder,catchRT,mouse_11.clicked_name
space,9.1821,space,24.6472,space,14.3645,space,2.6702,space,19.372,space,12.9521,44,PF,-38,101,1,0,0,response7disk_5,0,19.5081,-3,4,1,0,0,rectangle_8,-3,4,1,0,0,-3,4,1,0,0,0,0,0,4,1,610311ec875da584801f90eb,61036a29bc5fb54d72d13333,2021-07-29_19h56.37.112,Simcolourproject_2stim_asymm_v5,2020.2.10,Win32,60,61025ae37ef11b136ea224fe,,,,,,,,,,,,,,,,,,,,,,,,,,,,,,,,,,,,,,,,,,,,,,
,,,,,,,,,,,,48,PF,-41,-100,1,0,0,response5disk_5,3,8.8249,1,-2,1,0,0,rectangle_8,36,-95,1,0,0,-17,3,1,0,0,0,1,1,6,1,610311ec875da584801f90eb,61036a29bc5fb54d72d13333,2021-07-29_19h56.37.112,Simcolourproject_2stim_asymm_v5,2020.2.10,Win32,60,61025ae37ef11b136ea224fe,response3disk_7,4,4.5234,4,"[2,5]",rectangle_4,,,,,,,,,,,,,,,,,,,,,,,,,,,,,,,,,,,,,,,,
,,,,,,,,,,,,4,PF,42,-94,1,0,0,response3disk_5,4,6.373,1,5,1,0,0,rectangle_8,1,5,1,0,0,1,5,1,0,0,0,2,2,2,1,610311ec875da584801f90eb,61036a29bc5fb54d72d13333,2021-07-29_19h56.37.112,Simcolourproject_2stim_asymm_v5,2020.2.10,Win32,60,61025ae37ef11b136ea224fe,,,,,,,,,,,,,,,,,,,,,,,,,,,,,,,,,,,,,,,,,,,,,,
,,,,,,,,,,,,134,FF,81,-45,1,0,0,response3disk_5,5,14.6465,1,-1,1,0,0,rectangle_8,1,-1,1,0,0,1,-1,1,0,0,0,3,3,3,1,610311ec875da584801f90eb,61036a29bc5fb54d72d13333,2021-07-29_19h56.37.112,Simcolourproject_2stim_asymm_v5,2020.2.10,Win32,60,61025ae37ef11b136ea224fe,,,,,,,,,,,,,,,,,,,,,,,,,,,,,,,,,,,,,,,,,,,,,,
,,,,,,,,,,,,58,PF,-38,-98,1,0,0,response5disk_5,3,23.1861,-31,0,1,0,0,rectangle_8,41,-94,1,0,0,3,0,1,0,0,0,4,4,1,1,610311ec875da584801f90eb,61036a29bc5fb54d72d13333,2021-07-29_19h56.37.112,Simcolourproject_2stim_asymm_v5,2020.2.10,Win32,60,61025ae37ef11b136ea224fe,response3disk_7,4,4.238,4,"[2,5]",rectangle_4,,,,,,,,,,,,,,,,,,,,,,,,,,,,,,,,,,,,,,,,
,,,,,,,,,,,,107,FF,36,94,1,0,0,response1disk_5,7,4.8534,23,1,1,0,0,rectangle_8,23,1,1,0,0,23,1,1,0,0,0,5,5,0,1,610311ec875da584801f90eb,61036a29bc5fb54d72d13333,2021-07-29_19h56.37.112,Simcolourproject_2stim_asymm_v5,2020.2.10,Win32,60,61025ae37ef11b136ea224fe,,,,,,,,,,,,,,,,,,,,,,,,,,,,,,,,,,,,,,,,,,,,,,
,,,,,,,,,,,,92,FF,46,-90,1,0,0,response3disk_5,4,6.1883,13,2,1,0,0,rectangle_8,13,2,1,0,0,13,2,1,0,0,0,6,6,5,1,610311ec875da584801f90eb,61036a29bc5fb54d72d13333,2021-07-29_19h56.37.112,Simcolourproject_2stim_asymm_v5,2020.2.10,Win32,60,61025ae37ef11b136ea224fe,,,,,,,,,,,,,,,,,,,,,,,,,,,,,,,,,,,,,,,,,,,,,,
,,,,,,,,,,,,,FF,,,,,,,,7.3842,,,,,,,,,,,,,,,,,,,,,,610311ec875da584801f90eb,61036a29bc5fb54d72d13333,2021-07-29_19h56.37.112,Simcolourproject_2stim_asymm_v5,2020.2.10,Win32,60,61025ae37ef11b136ea224fe,,,,,,,space,4.4254,3838,-29,-99,1,0,0,response5disk,,3,-1,-8,1,0,0,rectangle,-1,-8,1,0,0,-1,-8,1,0,0,0,0,0,88,1,,,,,,,,
,,,,,,,,,,,,,FF,,,,,,,,9.9529,,,,,,,,,,,,,,,,,,,,,,610311ec875da584801f90eb,61036a29bc5fb54d72d13333,2021-07-29_19h56.37.112,Simcolourproject_2stim_asymm_v5,2020.2.10,Win32,60,61025ae37ef11b136ea224fe,,,,,,,,,1536,80,-56,1,0,0,response3disk,,5,5,5,1,0,0,rectangle,5,5,1,0,0,5,5,1,0,0,0,1,1,79,1,,,,,,,,
,,,,,,,,,,,,,FF,,,,,,,,6.4922,,,,,,,,,,,,,,,,,,,,,,610311ec875da584801f90eb,61036a29bc5fb54d72d13333,2021-07-29_19h56.37.112,Simcolourproject_2stim_asymm_v5,2020.2.10,Win32,60,61025ae37ef11b136ea224fe,,,,,,,,,3934,-62,-41,1,0,0,response5disk,,2,-5,0,1,0,0,rectangle,-5,0,1,0,0,-5,0,1,0,0,0,2,2,95,1,,,,,,,,
,,,,,,,,,,,,,FF,,,,,,,,38.2173,,,,,,,,,,,,,,,,,,,,,,610311ec875da584801f90eb,61036a29bc5fb54d72d13333,2021-07-29_19h56.37.112,Simcolourproject_2stim_asymm_v5,2020.2.10,Win32,60,61025ae37ef11b136ea224fe,,,,,,,,,304,40,-88,1,0,0,response3disk,,4,0,1,1,0,0,rectangle,0,1,1,0,0,0,1,1,0,0,0,3,3,73,1,,,,,,,,
,,,,,,,,,,,,,FF,,,,,,,,3.6691,,,,,,,,,,,,,,,,,,,,,,610311ec875da584801f90eb,61036a29bc5fb54d72d13333,2021-07-29_19h56.37.112,Simcolourproject_2stim_asymm_v5,2020.2.10,Win32,60,61025ae37ef11b136ea224fe,,,,,,,,,3299,88,44,1,0,0,response1disk,,6,13,-4,1,0,0,rectangle,13,-4,1,0,0,13,-4,1,0,0,0,4,4,59,1,,,,,,,,
,,,,,,,,,,,,,FF,,,,,,,,10.178,,,,,,,,,,,,,,,,,,,,,,610311ec875da584801f90eb,61036a29bc5fb54d72d13333,2021-07-29_19h56.37.112,Simcolourproject_2stim_asymm_v5,2020.2.10,Win32,60,61025ae37ef11b136ea224fe,,,,,,,,,1145,-89,-42,1,0,0,response5disk,,2,9,6,1,0,0,rectangle,9,6,1,0,0,9,6,1,0,0,0,5,5,35,1,,,,,,,,
,,,,,,,,,,,,,FF,,,,,,,,6.4209,,,,,,,,,,,,,,,,,,,,,,610311ec875da584801f90eb,61036a29bc5fb54d72d13333,2021-07-29_19h56.37.112,Simcolourproject_2stim_asymm_v5,2020.2.10,Win32,60,61025ae37ef11b136ea224fe,,,,,,,,,3826,44,-79,1,0,0,response3disk,,4,-1,3,1,0,0,rectangle,-1,3,1,0,0,-1,3,1,0,0,0,6,6,151,1,,,,,,,,
,,,,,,,,,,,,,FF,,,,,,,,45.3395,,,,,,,,,,,,,,,,,,,,,,610311ec875da584801f90eb,61036a29bc5fb54d72d13333,2021-07-29_19h56.37.112,Simcolourproject_2stim_asymm_v5,2020.2.10,Win32,60,61025ae37ef11b136ea224fe,,,,,,,,,2651,-71,-37,1,0,0,response5disk,,2,12,6,1,0,0,rectangle,12,6,1,0,0,12,6,1,0,0,0,7,7,128,1,,,,,,,,
,,,,,,,,,,,,,FF,,,,,,,,5.2056,,,,,,,,,,,,,,,,,,,,,,610311ec875da584801f90eb,61036a29bc5fb54d72d13333,2021-07-29_19h56.37.112,Simcolourproject_2stim_asymm_v5,2020.2.10,Win32,60,61025ae37ef11b136ea224fe,,,,,,,,,3866,84,-39,1,0,0,response3disk,,5,-2,5,1,0,0,rectangle,-2,5,1,0,0,-2,5,1,0,0,0,8,8,43,1,,,,,,,,
,,,,,,,,,,,,,FF,,,,,,,,7.7924,,,,,,,,,,,,,,,,,,,,,,610311ec875da584801f90eb,61036a29bc5fb54d72d13333,2021-07-29_19h56.37.112,Simcolourproject_2stim_asymm_v5,2020.2.10,Win32,60,61025ae37ef11b136ea224fe,,,,,,,,,2427,-34,-90,1,0,0,response5disk,,3,-5,6,1,0,0,rectangle,-5,6,1,0,0,-5,6,1,0,0,0,9,9,62,1,,,,,,,,
,,,,,,,,,,,,,FF,,,,,,,,15.4649,,,,,,,,,,,,,,,,,,,,,,610311ec875da584801f90eb,61036a29bc5fb54d72d13333,2021-07-29_19h56.37.112,Simcolourproject_2stim_asymm_v5,2020.2.10,Win32,60,61025ae37ef11b136ea224fe,,,,,,,,,2335,73,44,1,0,0,response1disk,,6,2,0,1,0,0,rectangle,2,0,1,0,0,2,0,1,0,0,0,10,10,80,1,,,,,,,,
,,,,,,,,,,,,,FF,,,,,,,,7.043,,,,,,,,,,,,,,,,,,,,,,610311ec875da584801f90eb,61036a29bc5fb54d72d13333,2021-07-29_19h56.37.112,Simcolourproject_2stim_asymm_v5,2020.2.10,Win32,60,61025ae37ef11b136ea224fe,,,,,,,,,2511,-41,-76,1,0,0,response5disk,,3,-3,2,1,0,0,rectangle,-76,-36,1,0,0,-16,-8,1,0,0,0,11,11,49,1,,response5disk_3,TRUE,2,2,"[41,263,186,227,120,300,230,155,24,100,35,42,234,264,205,12,303,188,244,42]",3.6227,rectangle
,,,,,,,,,,,,,FF,,,,,,,,19.9163,,,,,,,,,,,,,,,,,,,,,,610311ec875da584801f90eb,61036a29bc5fb54d72d13333,2021-07-29_19h56.37.112,Simcolourproject_2stim_asymm_v5,2020.2.10,Win32,60,61025ae37ef11b136ea224fe,,,,,,,,,2817,-45,92,1,0,0,response7disk,,0,8,-2,1,0,0,rectangle,8,-2,1,0,0,8,-2,1,0,0,0,12,12,104,1,,,,,,,,
,,,,,,,,,,,,,FF,,,,,,,,5.5383,,,,,,,,,,,,,,,,,,,,,,610311ec875da584801f90eb,61036a29bc5fb54d72d13333,2021-07-29_19h56.37.112,Simcolourproject_2stim_asymm_v5,2020.2.10,Win32,60,61025ae37ef11b136ea224fe,,,,,,,,,2747,88,47,1,0,0,response1disk,,6,17,6,1,0,0,rectangle,17,6,1,0,0,17,6,1,0,0,0,13,13,150,1,,,,,,,,
,,,,,,,,,,,,,FF,,,,,,,,7.5896,,,,,,,,,,,,,,,,,,,,,,610311ec875da584801f90eb,61036a29bc5fb54d72d13333,2021-07-29_19h56.37.112,Simcolourproject_2stim_asymm_v5,2020.2.10,Win32,60,61025ae37ef11b136ea224fe,,,,,,,,,2289,-93,-46,1,0,0,response5disk,,2,-3,-5,1,0,0,rectangle,-3,-5,1,0,0,-3,-5,1,0,0,0,14,14,78,1,,,,,,,,
,,,,,,,,,,,,,FF,,,,,,,,4.4364,,,,,,,,,,,,,,,,,,,,,,610311ec875da584801f90eb,61036a29bc5fb54d72d13333,2021-07-29_19h56.37.112,Simcolourproject_2stim_asymm_v5,2020.2.10,Win32,60,61025ae37ef11b136ea224fe,,,,,,,,,2079,73,-53,1,0,0,response3disk,,5,7,-1,1,0,0,rectangle,7,-1,1,0,0,7,-1,1,0,0,0,15,15,34,1,,,,,,,,
,,,,,,,,,,,,,FF,,,,,,,,10.6778,,,,,,,,,,,,,,,,,,,,,,610311ec875da584801f90eb,61036a29bc5fb54d72d13333,2021-07-29_19h56.37.112,Simcolourproject_2stim_asymm_v5,2020.2.10,Win32,60,61025ae37ef11b136ea224fe,,,,,,,,,439,-86,-31,1,0,0,response5disk,,2,21,8,1,0,0,rectangle,21,8,1,0,0,21,8,1,0,0,0,16,16,31,1,,,,,,,,
,,,,,,,,,,,,,FF,,,,,,,,5.0054,,,,,,,,,,,,,,,,,,,,,,610311ec875da584801f90eb,61036a29bc5fb54d72d13333,2021-07-29_19h56.37.112,Simcolourproject_2stim_asymm_v5,2020.2.10,Win32,60,61025ae37ef11b136ea224fe,,,,,,,,,3212,41,-82,1,0,0,response3disk,,4,-9,1,1,0,0,rectangle,-9,1,1,0,0,-9,1,1,0,0,0,17,17,54,1,,,,,,,,
,,,,,,,,,,,,,FF,,,,,,,,24.5405,,,,,,,,,,,,,,,,,,,,,,610311ec875da584801f90eb,61036a29bc5fb54d72d13333,2021-07-29_19h56.37.112,Simcolourproject_2stim_asymm_v5,2020.2.10,Win32,60,61025ae37ef11b136ea224fe,,,,,,,,,824,-84,-37,1,0,0,response5disk,,2,-9,-4,1,0,0,rectangle,-9,-4,1,0,0,-9,-4,1,0,0,0,18,18,3,1,,,,,,,,
,,,,,,,,,,,,,FF,,,,,,,,8.1239,,,,,,,,,,,,,,,,,,,,,,610311ec875da584801f90eb,61036a29bc5fb54d72d13333,2021-07-29_19h56.37.112,Simcolourproject_2stim_asymm_v5,2020.2.10,Win32,60,61025ae37ef11b136ea224fe,,,,,,,,,1460,48,79,1,0,0,response1disk,,7,-5,-2,1,0,0,rectangle,-5,-2,1,0,0,-5,-2,1,0,0,0,19,19,2,1,,,,,,,,
,,,,,,,,,,,,,FF,,,,,,,,10.1091,,,,,,,,,,,,,,,,,,,,,,610311ec875da584801f90eb,61036a29bc5fb54d72d13333,2021-07-29_19h56.37.112,Simcolourproject_2stim_asymm_v5,2020.2.10,Win32,60,61025ae37ef11b136ea224fe,,,,,,,,,2650,29,-91,1,0,0,response3disk,,4,5,2,1,0,0,rectangle,5,2,1,0,0,5,2,1,0,0,0,20,20,5,1,,,,,,,,
,,,,,,,,,,,,,FF,,,,,,,,16.7,,,,,,,,,,,,,,,,,,,,,,610311ec875da584801f90eb,61036a29bc5fb54d72d13333,2021-07-29_19h56.37.112,Simcolourproject_2stim_asymm_v5,2020.2.10,Win32,60,61025ae37ef11b136ea224fe,,,,,,,,,3823,51,-106,1,0,0,response3disk,,4,4,4,1,0,0,rectangle,4,4,1,0,0,4,4,1,0,0,0,21,21,21,1,,,,,,,,
,,,,,,,,,,,,,FF,,,,,,,,20.0195,,,,,,,,,,,,,,,,,,,,,,610311ec875da584801f90eb,61036a29bc5fb54d72d13333,2021-07-29_19h56.37.112,Simcolourproject_2stim_asymm_v5,2020.2.10,Win32,60,61025ae37ef11b136ea224fe,,,,,,,,,4302,79,40,1,0,0,response1disk,,6,-7,-11,1,0,0,rectangle,-7,-11,1,0,0,-7,-11,1,0,0,0,22,22,109,1,,,,,,,,
,,,,,,,,,,,,,FF,,,,,,,,3.4876,,,,,,,,,,,,,,,,,,,,,,610311ec875da584801f90eb,61036a29bc5fb54d72d13333,2021-07-29_19h56.37.112,Simcolourproject_2stim_asymm_v5,2020.2.10,Win32,60,61025ae37ef11b136ea224fe,,,,,,,,,964,-67,39,1,0,0,response7disk,,1,4,3,1,0,0,rectangle,54,-74,1,0,0,5,4,1,0,0,0,23,23,15,1,,response3disk_3,TRUE,4,4,"[41,263,186,227,120,300,230,155,24,100,35,42,234,264,205,12,303,188,244,42]",3.162,rectangle
,,,,,,,,,,,,,FF,,,,,,,,9.125,,,,,,,,,,,,,,,,,,,,,,610311ec875da584801f90eb,61036a29bc5fb54d72d13333,2021-07-29_19h56.37.112,Simcolourproject_2stim_asymm_v5,2020.2.10,Win32,60,61025ae37ef11b136ea224fe,,,,,,,,,279,-81,-42,1,0,0,response5disk,,2,-13,-4,1,0,0,rectangle,-13,-4,1,0,0,-13,-4,1,0,0,0,24,24,142,1,,,,,,,,
,,,,,,,,,,,,,FF,,,,,,,,8.6926,,,,,,,,,,,,,,,,,,,,,,610311ec875da584801f90eb,61036a29bc5fb54d72d13333,2021-07-29_19h56.37.112,Simcolourproject_2stim_asymm_v5,2020.2.10,Win32,60,61025ae37ef11b136ea224fe,,,,,,,,,3664,71,-32,1,0,0,response3disk,,5,20,-2,1,0,0,rectangle,20,-2,1,0,0,20,-2,1,0,0,0,25,25,100,1,,,,,,,,
,,,,,,,,,,,,,FF,,,,,,,,15.8999,,,,,,,,,,,,,,,,,,,,,,610311ec875da584801f90eb,61036a29bc5fb54d72d13333,2021-07-29_19h56.37.112,Simcolourproject_2stim_asymm_v5,2020.2.10,Win32,60,61025ae37ef11b136ea224fe,,,,,,,,,1078,-58,-90,1,0,0,response5disk,,3,-8,-1,1,0,0,rectangle,-8,-1,1,0,0,-8,-1,1,0,0,0,26,26,26,1,,,,,,,,
,,,,,,,,,,,,,FF,,,,,,,,16.9657,,,,,,,,,,,,,,,,,,,,,,610311ec875da584801f90eb,61036a29bc5fb54d72d13333,2021-07-29_19h56.37.112,Simcolourproject_2stim_asymm_v5,2020.2.10,Win32,60,61025ae37ef11b136ea224fe,,,,,,,,,1682,39,-69,1,0,0,response3disk,,4,1,6,1,0,0,rectangle,1,6,1,0,0,1,6,1,0,0,0,27,27,72,1,,,,,,,,
,,,,,,,,,,,,,FF,,,,,,,,3.2208,,,,,,,,,,,,,,,,,,,,,,610311ec875da584801f90eb,61036a29bc5fb54d72d13333,2021-07-29_19h56.37.112,Simcolourproject_2stim_asymm_v5,2020.2.10,Win32,60,61025ae37ef11b136ea224fe,,,,,,,,,2550,-65,-30,1,0,0,response5disk,,2,12,-3,1,0,0,rectangle,12,-3,1,0,0,12,-3,1,0,0,0,28,28,149,1,,,,,,,,
,,,,,,,,,,,,,FF,,,,,,,,4.9704,,,,,,,,,,,,,,,,,,,,,,610311ec875da584801f90eb,61036a29bc5fb54d72d13333,2021-07-29_19h56.37.112,Simcolourproject_2stim_asymm_v5,2020.2.10,Win32,60,61025ae37ef11b136ea224fe,,,,,,,,,1432,48,65,1,0,0,response1disk,,7,25,6,1,0,0,rectangle,25,6,1,0,0,25,6,1,0,0,0,29,29,40,1,,,,,,,,
,,,,,,,,,,,,,FF,,,,,,,,6.843,,,,,,,,,,,,,,,,,,,,,,610311ec875da584801f90eb,61036a29bc5fb54d72d13333,2021-07-29_19h56.37.112,Simcolourproject_2stim_asymm_v5,2020.2.10,Win32,60,61025ae37ef11b136ea224fe,,,,,,,,,815,-72,30,1,0,0,response7disk,,1,18,-4,1,0,0,rectangle,18,-4,1,0,0,18,-4,1,0,0,0,30,30,154,1,,,,,,,,
,,,,,,,,,,,,,FF,,,,,,,,7.6395,,,,,,,,,,,,,,,,,,,,,,610311ec875da584801f90eb,61036a29bc5fb54d72d13333,2021-07-29_19h56.37.112,Simcolourproject_2stim_asymm_v5,2020.2.10,Win32,60,61025ae37ef11b136ea224fe,,,,,,,,,1656,49,-77,1,0,0,response3disk,,4,17,-2,1,0,0,rectangle,17,-2,1,0,0,17,-2,1,0,0,0,31,31,106,1,,,,,,,,
,,,,,,,,,,,,,FF,,,,,,,,28.4587,,,,,,,,,,,,,,,,,,,,,,610311ec875da584801f90eb,61036a29bc5fb54d72d13333,2021-07-29_19h56.37.112,Simcolourproject_2stim_asymm_v5,2020.2.10,Win32,60,61025ae37ef11b136ea224fe,,,,,,,,,3740,90,-61,1,0,0,response3disk,,5,2,-4,1,0,0,rectangle,2,-4,1,0,0,2,-4,1,0,0,0,32,32,41,1,,,,,,,,
,,,,,,,,,,,,,FF,,,,,,,,3.2998,,,,,,,,,,,,,,,,,,,,,,610311ec875da584801f90eb,61036a29bc5fb54d72d13333,2021-07-29_19h56.37.112,Simcolourproject_2stim_asymm_v5,2020.2.10,Win32,60,61025ae37ef11b136ea224fe,,,,,,,,,3854,-75,-26,1,0,0,response5disk,,2,27,8,1,0,0,rectangle,27,8,1,0,0,27,8,1,0,0,0,33,33,94,1,,,,,,,,
,,,,,,,,,,,,,FF,,,,,,,,5.1964,,,,,,,,,,,,,,,,,,,,,,610311ec875da584801f90eb,61036a29bc5fb54d72d13333,2021-07-29_19h56.37.112,Simcolourproject_2stim_asymm_v5,2020.2.10,Win32,60,61025ae37ef11b136ea224fe,,,,,,,,,2259,36,-90,1,0,0,response3disk,,4,-1,2,1,0,0,rectangle,-37,85,1,0,0,2,3,1,0,0,0,34,34,143,1,,response7disk_3,TRUE,0,0,"[41,263,186,227,120,300,230,155,24,100,35,42,234,264,205,12,303,188,244,42]",8.9935,rectangle
,,,,,,,,,,,,,FF,,,,,,,,4.186,,,,,,,,,,,,,,,,,,,,,,610311ec875da584801f90eb,61036a29bc5fb54d72d13333,2021-07-29_19h56.37.112,Simcolourproject_2stim_asymm_v5,2020.2.10,Win32,60,61025ae37ef11b136ea224fe,,,,,,,,,157,-53,-77,1,0,0,response5disk,,3,-3,-2,1,0,0,rectangle,-3,-2,1,0,0,-3,-2,1,0,0,0,35,35,83,1,,,,,,,,
,,,,,,,,,,,,,FF,,,,,,,,6.0715,,,,,,,,,,,,,,,,,,,,,,610311ec875da584801f90eb,61036a29bc5fb54d72d13333,2021-07-29_19h56.37.112,Simcolourproject_2stim_asymm_v5,2020.2.10,Win32,60,61025ae37ef11b136ea224fe,,,,,,,,,514,70,-40,1,0,0,response3disk,,5,8,2,1,0,0,rectangle,8,2,1,0,0,8,2,1,0,0,0,36,36,140,1,,,,,,,,
,,,,,,,,,,,,,FF,,,,,,,,3.6884,,,,,,,,,,,,,,,,,,,,,,610311ec875da584801f90eb,61036a29bc5fb54d72d13333,2021-07-29_19h56.37.112,Simcolourproject_2stim_asymm_v5,2020.2.10,Win32,60,61025ae37ef11b136ea224fe,,,,,,,,,3669,-64,36,1,0,0,response7disk,,1,-7,7,1,0,0,rectangle,-7,7,1,0,0,-7,7,1,0,0,0,37,37,76,1,,,,,,,,
,,,,,,,,,,,,,FF,,,,,,,,10.4099,,,,,,,,,,,,,,,,,,,,,,610311ec875da584801f90eb,61036a29bc5fb54d72d13333,2021-07-29_19h56.37.112,Simcolourproject_2stim_asymm_v5,2020.2.10,Win32,60,61025ae37ef11b136ea224fe,,,,,,,,,704,32,-82,1,0,0,response3disk,,4,4,2,1,0,0,rectangle,4,2,1,0,0,4,2,1,0,0,0,38,38,124,1,,,,,,,,
,,,,,,,,,,,,,FF,,,,,,,,3.5209,,,,,,,,,,,,,,,,,,,,,,610311ec875da584801f90eb,61036a29bc5fb54d72d13333,2021-07-29_19h56.37.112,Simcolourproject_2stim_asymm_v5,2020.2.10,Win32,60,61025ae37ef11b136ea224fe,,,,,,,,,1346,-51,-27,1,0,0,response5disk,,2,8,-3,1,0,0,rectangle,8,-3,1,0,0,8,-3,1,0,0,0,39,39,120,1,,,,,,,,
,,,,,,,,,,,,,FF,,,,,,,,10.945,,,,,,,,,,,,,,,,,,,,,,610311ec875da584801f90eb,61036a29bc5fb54d72d13333,2021-07-29_19h56.37.112,Simcolourproject_2stim_asymm_v5,2020.2.10,Win32,60,61025ae37ef11b136ea224fe,,,,,,,,,488,49,-89,1,0,0,response3disk,,4,0,0,1,0,0,rectangle,-37,77,1,0,0,-3,0,1,0,0,0,40,40,74,1,,response7disk_3,TRUE,0,0,"[41,263,186,227,120,300,230,155,24,100,35,42,234,264,205,12,303,188,244,42]",2.0001,rectangle
,,,,,,,,,,,,,FF,,,,,,,,8.1791,,,,,,,,,,,,,,,,,,,,,,610311ec875da584801f90eb,61036a29bc5fb54d72d13333,2021-07-29_19h56.37.112,Simcolourproject_2stim_asymm_v5,2020.2.10,Win32,60,61025ae37ef11b136ea224fe,,,,,,,,,1605,50,-78,1,0,0,response3disk,,4,21,0,1,0,0,rectangle,-43,-69,1,0,0,-17,-3,1,0,0,0,41,41,65,1,,response5disk_3,TRUE,3,1,"[41,263,186,227,120,300,230,155,24,100,35,42,234,264,205,12,303,188,244,42]",5.7352,rectangle
,,,,,,,,,,,,,FF,,,,,,,,4.9051,,,,,,,,,,,,,,,,,,,,,,610311ec875da584801f90eb,61036a29bc5fb54d72d13333,2021-07-29_19h56.37.112,Simcolourproject_2stim_asymm_v5,2020.2.10,Win32,60,61025ae37ef11b136ea224fe,,,,,,,,,3733,53,-88,1,0,0,response3disk,,4,7,-5,1,0,0,rectangle,7,-5,1,0,0,7,-5,1,0,0,0,42,42,38,1,,,,,,,,
,,,,,,,,,,,,,FF,,,,,,,,6.3797,,,,,,,,,,,,,,,,,,,,,,610311ec875da584801f90eb,61036a29bc5fb54d72d13333,2021-07-29_19h56.37.112,Simcolourproject_2stim_asymm_v5,2020.2.10,Win32,60,61025ae37ef11b136ea224fe,,,,,,,,,680,-64,31,1,0,0,response7disk,,1,-14,0,1,0,0,rectangle,-14,0,1,0,0,-14,0,1,0,0,0,43,43,75,1,,,,,,,,
,,,,,,,,,,,,,FF,,,,,,,,6.3225,,,,,,,,,,,,,,,,,,,,,,610311ec875da584801f90eb,61036a29bc5fb54d72d13333,2021-07-29_19h56.37.112,Simcolourproject_2stim_asymm_v5,2020.2.10,Win32,60,61025ae37ef11b136ea224fe,,,,,,,,,332,-64,-38,1,0,0,response5disk,,2,-8,3,1,0,0,rectangle,-8,3,1,0,0,-8,3,1,0,0,0,44,44,101,1,,,,,,,,
,,,,,,,,,,,,,FF,,,,,,,,9.1574,,,,,,,,,,,,,,,,,,,,,,610311ec875da584801f90eb,61036a29bc5fb54d72d13333,2021-07-29_19h56.37.112,Simcolourproject_2stim_asymm_v5,2020.2.10,Win32,60,61025ae37ef11b136ea224fe,,,,,,,,,845,-27,-70,1,0,0,response5disk,,3,-10,0,1,0,0,rectangle,-10,0,1,0,0,-10,0,1,0,0,0,45,45,28,1,,,,,,,,
,,,,,,,,,,,,,FF,,,,,,,,18.4817,,,,,,,,,,,,,,,,,,,,,,610311ec875da584801f90eb,61036a29bc5fb54d72d13333,2021-07-29_19h56.37.112,Simcolourproject_2stim_asymm_v5,2020.2.10,Win32,60,61025ae37ef11b136ea224fe,,,,,,,,,2608,-72,-46,1,0,0,response5disk,,2,10,-1,1,0,0,rectangle,10,-1,1,0,0,10,-1,1,0,0,0,46,46,127,1,,,,,,,,
,,,,,,,,,,,,,FF,,,,,,,,6.5211,,,,,,,,,,,,,,,,,,,,,,610311ec875da584801f90eb,61036a29bc5fb54d72d13333,2021-07-29_19h56.37.112,Simcolourproject_2stim_asymm_v5,2020.2.10,Win32,60,61025ae37ef11b136ea224fe,,,,,,,,,961,73,-44,1,0,0,response3disk,,5,-15,7,1,0,0,rectangle,-15,7,1,0,0,-15,7,1,0,0,0,47,47,98,1,,,,,,,,
,,,,,,,,,,,,,FF,,,,,,,,3.0899,,,,,,,,,,,,,,,,,,,,,,610311ec875da584801f90eb,61036a29bc5fb54d72d13333,2021-07-29_19h56.37.112,Simcolourproject_2stim_asymm_v5,2020.2.10,Win32,60,61025ae37ef11b136ea224fe,,,,,,,,,1224,56,-75,1,0,0,response3disk,,4,11,1,1,0,0,rectangle,11,1,1,0,0,11,1,1,0,0,0,48,48,116,1,,,,,,,,
,,,,,,,,,,,,,FF,,,,,,,,3.4552,,,,,,,,,,,,,,,,,,,,,,610311ec875da584801f90eb,61036a29bc5fb54d72d13333,2021-07-29_19h56.37.112,Simcolourproject_2stim_asymm_v5,2020.2.10,Win32,60,61025ae37ef11b136ea224fe,,,,,,,,,3958,-67,-27,1,0,0,response5disk,,2,-11,4,1,0,0,rectangle,-11,4,1,0,0,-11,4,1,0,0,0,49,49,105,1,,,,,,,,
,,,,,,,,,,,,,FF,,,,,,,,4.7876,,,,,,,,,,,,,,,,,,,,,,610311ec875da584801f90eb,61036a29bc5fb54d72d13333,2021-07-29_19h56.37.112,Simcolourproject_2stim_asymm_v5,2020.2.10,Win32,60,61025ae37ef11b136ea224fe,,,,,,,,,3474,-35,-73,1,0,0,response5disk,,3,-13,2,1,0,0,rectangle,-13,2,1,0,0,-13,2,1,0,0,0,50,50,47,1,,,,,,,,
,,,,,,,,,,,,,FF,,,,,,,,6.5897,,,,,,,,,,,,,,,,,,,,,,610311ec875da584801f90eb,61036a29bc5fb54d72d13333,2021-07-29_19h56.37.112,Simcolourproject_2stim_asymm_v5,2020.2.10,Win32,60,61025ae37ef11b136ea224fe,,,,,,,,,1038,81,38,1,0,0,response1disk,,6,-23,3,1,0,0,rectangle,-23,3,1,0,0,-23,3,1,0,0,0,51,51,61,1,,,,,,,,
,,,,,,,,,,,,,FF,,,,,,,,9.3922,,,,,,,,,,,,,,,,,,,,,,610311ec875da584801f90eb,61036a29bc5fb54d72d13333,2021-07-29_19h56.37.112,Simcolourproject_2stim_asymm_v5,2020.2.10,Win32,60,61025ae37ef11b136ea224fe,,,,,,,,,2908,45,-79,1,0,0,response3disk,,4,10,3,1,0,0,rectangle,10,3,1,0,0,10,3,1,0,0,0,52,52,82,1,,,,,,,,
,,,,,,,,,,,,,FF,,,,,,,,4.5703,,,,,,,,,,,,,,,,,,,,,,610311ec875da584801f90eb,61036a29bc5fb54d72d13333,2021-07-29_19h56.37.112,Simcolourproject_2stim_asymm_v5,2020.2.10,Win32,60,61025ae37ef11b136ea224fe,,,,,,,,,3514,-39,-90,1,0,0,response5disk,,3,-4,-2,1,0,0,rectangle,-4,-2,1,0,0,-4,-2,1,0,0,0,53,53,144,1,,,,,,,,
,,,,,,,,,,,,,FF,,,,,,,,7.0374,,,,,,,,,,,,,,,,,,,,,,610311ec875da584801f90eb,61036a29bc5fb54d72d13333,2021-07-29_19h56.37.112,Simcolourproject_2stim_asymm_v5,2020.2.10,Win32,60,61025ae37ef11b136ea224fe,,,,,,,,,1835,40,-92,1,0,0,response3disk,,4,2,-7,1,0,0,rectangle,2,-7,1,0,0,2,-7,1,0,0,0,54,54,145,1,,,,,,,,
,,,,,,,,,,,,,FF,,,,,,,,12.4104,,,,,,,,,,,,,,,,,,,,,,610311ec875da584801f90eb,61036a29bc5fb54d72d13333,2021-07-29_19h56.37.112,Simcolourproject_2stim_asymm_v5,2020.2.10,Win32,60,61025ae37ef11b136ea224fe,,,,,,,,,1542,48,-85,1,0,0,response3disk,,4,-10,11,1,0,0,rectangle,-10,11,1,0,0,-10,11,1,0,0,0,55,55,16,1,,,,,,,,
,,,,,,,,,,,,,FF,,,,,,,,14.0795,,,,,,,,,,,,,,,,,,,,,,610311ec875da584801f90eb,61036a29bc5fb54d72d13333,2021-07-29_19h56.37.112,Simcolourproject_2stim_asymm_v5,2020.2.10,Win32,60,61025ae37ef11b136ea224fe,,,,,,,,,3320,-40,-83,1,0,0,response5disk,,3,-2,2,1,0,0,rectangle,-2,2,1,0,0,-2,2,1,0,0,0,56,56,139,1,,,,,,,,
,,,,,,,,,,,,,FF,,,,,,,,15.1159,,,,,,,,,,,,,,,,,,,,,,610311ec875da584801f90eb,61036a29bc5fb54d72d13333,2021-07-29_19h56.37.112,Simcolourproject_2stim_asymm_v5,2020.2.10,Win32,60,61025ae37ef11b136ea224fe,,,,,,,,,3726,30,-86,1,0,0,response3disk,,4,13,5,1,0,0,rectangle,13,5,1,0,0,13,5,1,0,0,0,57,57,153,1,,,,,,,,
,,,,,,,,,,,,,FF,,,,,,,,13.2092,,,,,,,,,,,,,,,,,,,,,,610311ec875da584801f90eb,61036a29bc5fb54d72d13333,2021-07-29_19h56.37.112,Simcolourproject_2stim_asymm_v5,2020.2.10,Win32,60,61025ae37ef11b136ea224fe,,,,,,,,,436,-74,-32,1,0,0,response5disk,,2,1,4,1,0,0,rectangle,1,4,1,0,0,1,4,1,0,0,0,58,58,123,1,,,,,,,,
,,,,,,,,,,,,,FF,,,,,,,,6.0221,,,,,,,,,,,,,,,,,,,,,,610311ec875da584801f90eb,61036a29bc5fb54d72d13333,2021-07-29_19h56.37.112,Simcolourproject_2stim_asymm_v5,2020.2.10,Win32,60,61025ae37ef11b136ea224fe,,,,,,,,,1815,32,-83,1,0,0,response3disk,,4,-6,4,1,0,0,rectangle,-6,4,1,0,0,-6,4,1,0,0,0,59,59,58,1,,,,,,,,
,,,,,,,,,,,,,FF,,,,,,,,11.4775,,,,,,,,,,,,,,,,,,,,,,610311ec875da584801f90eb,61036a29bc5fb54d72d13333,2021-07-29_19h56.37.112,Simcolourproject_2stim_asymm_v5,2020.2.10,Win32,60,61025ae37ef11b136ea224fe,,,,,,,,,4343,-81,-34,1,0,0,response5disk,,2,-21,-2,1,0,0,rectangle,-21,-2,1,0,0,-21,-2,1,0,0,0,60,60,60,1,,,,,,,,
,,,,,,,,,,,,,FF,,,,,,,,11.3604,,,,,,,,,,,,,,,,,,,,,,610311ec875da584801f90eb,61036a29bc5fb54d72d13333,2021-07-29_19h56.37.112,Simcolourproject_2stim_asymm_v5,2020.2.10,Win32,60,61025ae37ef11b136ea224fe,,,,,,,,,3791,-27,-88,1,0,0,response5disk,,3,5,-2,1,0,0,rectangle,5,-2,1,0,0,5,-2,1,0,0,0,61,61,117,1,,,,,,,,
,,,,,,,,,,,,,FF,,,,,,,,10.5421,,,,,,,,,,,,,,,,,,,,,,610311ec875da584801f90eb,61036a29bc5fb54d72d13333,2021-07-29_19h56.37.112,Simcolourproject_2stim_asymm_v5,2020.2.10,Win32,60,61025ae37ef11b136ea224fe,,,,,,,,,2898,28,-89,1,0,0,response3disk,,4,-3,0,1,0,0,rectangle,-3,0,1,0,0,-3,0,1,0,0,0,62,62,103,1,,,,,,,,
,,,,,,,,,,,,,FF,,,,,,,,4.9719,,,,,,,,,,,,,,,,,,,,,,610311ec875da584801f90eb,61036a29bc5fb54d72d13333,2021-07-29_19h56.37.112,Simcolourproject_2stim_asymm_v5,2020.2.10,Win32,60,61025ae37ef11b136ea224fe,,,,,,,,,1512,51,-89,1,0,0,response3disk,,4,-2,7,1,0,0,rectangle,-2,7,1,0,0,-2,7,1,0,0,0,63,63,46,1,,,,,,,,
,,,,,,,,,,,,,FF,,,,,,,,6.6236,,,,,,,,,,,,,,,,,,,,,,610311ec875da584801f90eb,61036a29bc5fb54d72d13333,2021-07-29_19h56.37.112,Simcolourproject_2stim_asymm_v5,2020.2.10,Win32,60,61025ae37ef11b136ea224fe,,,,,,,,,1427,78,-52,1,0,0,response3disk,,5,10,4,1,0,0,rectangle,10,4,1,0,0,10,4,1,0,0,0,64,64,48,1,,,,,,,,
,,,,,,,,,,,,,FF,,,,,,,,3.4187,,,,,,,,,,,,,,,,,,,,,,610311ec875da584801f90eb,61036a29bc5fb54d72d13333,2021-07-29_19h56.37.112,Simcolourproject_2stim_asymm_v5,2020.2.10,Win32,60,61025ae37ef11b136ea224fe,,,,,,,,,1107,-45,79,1,0,0,response7disk,,0,9,3,1,0,0,rectangle,9,3,1,0,0,9,3,1,0,0,0,65,65,14,1,,,,,,,,
,,,,,,,,,,,,,FF,,,,,,,,13.6491,,,,,,,,,,,,,,,,,,,,,,610311ec875da584801f90eb,61036a29bc5fb54d72d13333,2021-07-29_19h56.37.112,Simcolourproject_2stim_asymm_v5,2020.2.10,Win32,60,61025ae37ef11b136ea224fe,,,,,,,,,2337,-69,35,1,0,0,response7disk,,1,-10,-7,1,0,0,rectangle,-10,-7,1,0,0,-10,-7,1,0,0,0,66,66,107,1,,,,,,,,
,,,,,,,,,,,,,FF,,,,,,,,11.7252,,,,,,,,,,,,,,,,,,,,,,610311ec875da584801f90eb,61036a29bc5fb54d72d13333,2021-07-29_19h56.37.112,Simcolourproject_2stim_asymm_v5,2020.2.10,Win32,60,61025ae37ef11b136ea224fe,,,,,,,,,2748,-59,-87,1,0,0,response5disk,,3,-5,4,1,0,0,rectangle,-5,4,1,0,0,-5,4,1,0,0,0,67,67,24,1,,,,,,,,
,,,,,,,,,,,,,FF,,,,,,,,7.0238,,,,,,,,,,,,,,,,,,,,,,610311ec875da584801f90eb,61036a29bc5fb54d72d13333,2021-07-29_19h56.37.112,Simcolourproject_2stim_asymm_v5,2020.2.10,Win32,60,61025ae37ef11b136ea224fe,,,,,,,,,2713,-77,-46,1,0,0,response5disk,,2,-5,-4,1,0,0,rectangle,-5,-4,1,0,0,-5,-4,1,0,0,0,68,68,99,1,,,,,,,,
,,,,,,,,,,,,,FF,,,,,,,,5.3219,,,,,,,,,,,,,,,,,,,,,,610311ec875da584801f90eb,61036a29bc5fb54d72d13333,2021-07-29_19h56.37.112,Simcolourproject_2stim_asymm_v5,2020.2.10,Win32,60,61025ae37ef11b136ea224fe,,,,,,,,,2073,85,38,1,0,0,response1disk,,6,25,5,1,0,0,rectangle,25,5,1,0,0,25,5,1,0,0,0,69,69,13,1,,,,,,,,
,,,,,,,,,,,,,FF,,,,,,,,7.2061,,,,,,,,,,,,,,,,,,,,,,610311ec875da584801f90eb,61036a29bc5fb54d72d13333,2021-07-29_19h56.37.112,Simcolourproject_2stim_asymm_v5,2020.2.10,Win32,60,61025ae37ef11b136ea224fe,,,,,,,,,2434,51,-74,1,0,0,response3disk,,4,10,0,1,0,0,rectangle,10,0,1,0,0,10,0,1,0,0,0,70,70,112,1,,,,,,,,
,,,,,,,,,,,,,FF,,,,,,,,8.6426,,,,,,,,,,,,,,,,,,,,,,610311ec875da584801f90eb,61036a29bc5fb54d72d13333,2021-07-29_19h56.37.112,Simcolourproject_2stim_asymm_v5,2020.2.10,Win32,60,61025ae37ef11b136ea224fe,,,,,,,,,860,-75,-30,1,0,0,response5disk,,2,-15,-2,1,0,0,rectangle,-15,-2,1,0,0,-15,-2,1,0,0,0,71,71,68,1,,,,,,,,
,,,,,,,,,,,,,FF,,,,,,,,7.8889,,,,,,,,,,,,,,,,,,,,,,610311ec875da584801f90eb,61036a29bc5fb54d72d13333,2021-07-29_19h56.37.112,Simcolourproject_2stim_asymm_v5,2020.2.10,Win32,60,61025ae37ef11b136ea224fe,,,,,,,,,882,47,-88,1,0,0,response3disk,,4,-2,-1,1,0,0,rectangle,-2,-1,1,0,0,-2,-1,1,0,0,0,72,72,119,1,,,,,,,,
,,,,,,,,,,,,,FF,,,,,,,,2.9368,,,,,,,,,,,,,,,,,,,,,,610311ec875da584801f90eb,61036a29bc5fb54d72d13333,2021-07-29_19h56.37.112,Simcolourproject_2stim_asymm_v5,2020.2.10,Win32,60,61025ae37ef11b136ea224fe,,,,,,,,,2116,-55,32,1,0,0,response7disk,,1,-5,12,1,0,0,rectangle,-5,12,1,0,0,-5,12,1,0,0,0,73,73,110,1,,,,,,,,
,,,,,,,,,,,,,FF,,,,,,,,3.1541,,,,,,,,,,,,,,,,,,,,,,610311ec875da584801f90eb,61036a29bc5fb54d72d13333,2021-07-29_19h56.37.112,Simcolourproject_2stim_asymm_v5,2020.2.10,Win32,60,61025ae37ef11b136ea224fe,,,,,,,,,3744,57,-80,1,0,0,response3disk,,4,3,7,1,0,0,rectangle,3,7,1,0,0,3,7,1,0,0,0,74,74,114,1,,,,,,,,
,,,,,,,,,,,,,FF,,,,,,,,2.3271,,,,,,,,,,,,,,,,,,,,,,610311ec875da584801f90eb,61036a29bc5fb54d72d13333,2021-07-29_19h56.37.112,Simcolourproject_2stim_asymm_v5,2020.2.10,Win32,60,61025ae37ef11b136ea224fe,,,,,,,,,1681,-58,-85,1,0,0,response5disk,,3,-11,3,1,0,0,rectangle,-11,3,1,0,0,-11,3,1,0,0,0,75,75,27,1,,,,,,,,
,,,,,,,,,,,,,FF,,,,,,,,5.5225,,,,,,,,,,,,,,,,,,,,,,610311ec875da584801f90eb,61036a29bc5fb54d72d13333,2021-07-29_19h56.37.112,Simcolourproject_2stim_asymm_v5,2020.2.10,Win32,60,61025ae37ef11b136ea224fe,,,,,,,,,3357,91,48,1,0,0,response1disk,,6,5,-1,1,0,0,rectangle,5,-1,1,0,0,5,-1,1,0,0,0,76,76,10,1,,,,,,,,
,,,,,,,,,,,,,FF,,,,,,,,1.9717,,,,,,,,,,,,,,,,,,,,,,610311ec875da584801f90eb,61036a29bc5fb54d72d13333,2021-07-29_19h56.37.112,Simcolourproject_2stim_asymm_v5,2020.2.10,Win32,60,61025ae37ef11b136ea224fe,,,,,,,,,2957,-69,-25,1,0,0,response5disk,,2,-7,-4,1,0,0,rectangle,-7,-4,1,0,0,-7,-4,1,0,0,0,77,77,93,1,,,,,,,,
,,,,,,,,,,,,,FF,,,,,,,,1.8191,,,,,,,,,,,,,,,,,,,,,,610311ec875da584801f90eb,61036a29bc5fb54d72d13333,2021-07-29_19h56.37.112,Simcolourproject_2stim_asymm_v5,2020.2.10,Win32,60,61025ae37ef11b136ea224fe,,,,,,,,,4021,-72,43,1,0,0,response7disk,,1,-4,1,1,0,0,rectangle,-4,1,1,0,0,-4,1,1,0,0,0,78,78,147,1,,,,,,,,
,,,,,,,,,,,,,FF,,,,,,,,12.8948,,,,,,,,,,,,,,,,,,,,,,610311ec875da584801f90eb,61036a29bc5fb54d72d13333,2021-07-29_19h56.37.112,Simcolourproject_2stim_asymm_v5,2020.2.10,Win32,60,61025ae37ef11b136ea224fe,,,,,,,,,4017,54,-74,1,0,0,response3disk,,4,6,-3,1,0,0,rectangle,6,-3,1,0,0,6,-3,1,0,0,0,79,79,36,1,,,,,,,,
,,,,,,,,,,,,,FF,,,,,,,,16.9137,,,,,,,,,,,,,,,,,,,,,,610311ec875da584801f90eb,61036a29bc5fb54d72d13333,2021-07-29_19h56.37.112,Simcolourproject_2stim_asymm_v5,2020.2.10,Win32,60,61025ae37ef11b136ea224fe,,,,,,,,,2895,73,-49,1,0,0,response3disk,,5,26,0,1,0,0,rectangle,26,0,1,0,0,26,0,1,0,0,0,80,80,30,1,,,,,,,,
,,,,,,,,,,,,,FF,,,,,,,,3.3379,,,,,,,,,,,,,,,,,,,,,,610311ec875da584801f90eb,61036a29bc5fb54d72d13333,2021-07-29_19h56.37.112,Simcolourproject_2stim_asymm_v5,2020.2.10,Win32,60,61025ae37ef11b136ea224fe,,,,,,,,,3469,38,-91,1,0,0,response3disk,,4,1,1,1,0,0,rectangle,1,1,1,0,0,1,1,1,0,0,0,81,81,8,1,,,,,,,,
,,,,,,,,,,,,,FF,,,,,,,,1.7026,,,,,,,,,,,,,,,,,,,,,,610311ec875da584801f90eb,61036a29bc5fb54d72d13333,2021-07-29_19h56.37.112,Simcolourproject_2stim_asymm_v5,2020.2.10,Win32,60,61025ae37ef11b136ea224fe,,,,,,,,,1330,-61,-18,1,0,0,response5disk,,2,-25,2,1,0,0,rectangle,-25,2,1,0,0,-25,2,1,0,0,0,82,82,159,1,,,,,,,,
,,,,,,,,,,,,,FF,,,,,,,,11.911,,,,,,,,,,,,,,,,,,,,,,610311ec875da584801f90eb,61036a29bc5fb54d72d13333,2021-07-29_19h56.37.112,Simcolourproject_2stim_asymm_v5,2020.2.10,Win32,60,61025ae37ef11b136ea224fe,,,,,,,,,2480,69,-38,1,0,0,response3disk,,5,4,5,1,0,0,rectangle,4,5,1,0,0,4,5,1,0,0,0,83,83,157,1,,,,,,,,
,,,,,,,,,,,,,FF,,,,,,,,2.3217,,,,,,,,,,,,,,,,,,,,,,610311ec875da584801f90eb,61036a29bc5fb54d72d13333,2021-07-29_19h56.37.112,Simcolourproject_2stim_asymm_v5,2020.2.10,Win32,60,61025ae37ef11b136ea224fe,,,,,,,,,4016,82,-36,1,0,0,response3disk,,5,2,4,1,0,0,rectangle,2,4,1,0,0,2,4,1,0,0,0,84,84,97,1,,,,,,,,
,,,,,,,,,,,,,FF,,,,,,,,2.2868,,,,,,,,,,,,,,,,,,,,,,610311ec875da584801f90eb,61036a29bc5fb54d72d13333,2021-07-29_19h56.37.112,Simcolourproject_2stim_asymm_v5,2020.2.10,Win32,60,61025ae37ef11b136ea224fe,,,,,,,,,74,-48,-91,1,0,0,response5disk,,3,-13,1,1,0,0,rectangle,-13,1,1,0,0,-13,1,1,0,0,0,85,85,23,1,,,,,,,,
,,,,,,,,,,,,,FF,,,,,,,,9.0216,,,,,,,,,,,,,,,,,,,,,,610311ec875da584801f90eb,61036a29bc5fb54d72d13333,2021-07-29_19h56.37.112,Simcolourproject_2stim_asymm_v5,2020.2.10,Win32,60,61025ae37ef11b136ea224fe,,,,,,,,,1685,61,-31,1,0,0,response3disk,,5,1,5,1,0,0,rectangle,1,5,1,0,0,1,5,1,0,0,0,86,86,85,1,,,,,,,,
,,,,,,,,,,,,,FF,,,,,,,,3.7201,,,,,,,,,,,,,,,,,,,,,,610311ec875da584801f90eb,61036a29bc5fb54d72d13333,2021-07-29_19h56.37.112,Simcolourproject_2stim_asymm_v5,2020.2.10,Win32,60,61025ae37ef11b136ea224fe,,,,,,,,,408,-54,-96,1,0,0,response5disk,,3,-7,0,1,0,0,rectangle,-7,0,1,0,0,-7,0,1,0,0,0,87,87,89,1,,,,,,,,
,,,,,,,,,,,,,FF,,,,,,,,4.4702,,,,,,,,,,,,,,,,,,,,,,610311ec875da584801f90eb,61036a29bc5fb54d72d13333,2021-07-29_19h56.37.112,Simcolourproject_2stim_asymm_v5,2020.2.10,Win32,60,61025ae37ef11b136ea224fe,,,,,,,,,3512,70,-32,1,0,0,response3disk,,5,19,0,1,0,0,rectangle,19,0,1,0,0,19,0,1,0,0,0,88,88,91,1,,,,,,,,
,,,,,,,,,,,,,FF,,,,,,,,3.3094,,,,,,,,,,,,,,,,,,,,,,610311ec875da584801f90eb,61036a29bc5fb54d72d13333,2021-07-29_19h56.37.112,Simcolourproject_2stim_asymm_v5,2020.2.10,Win32,60,61025ae37ef11b136ea224fe,,,,,,,,,2912,91,51,1,0,0,response1disk,,6,-2,6,1,0,0,rectangle,-2,6,1,0,0,-2,6,1,0,0,0,89,89,158,1,,,,,,,,
,,,,,,,,,,,,,FF,,,,,,,,2.703,,,,,,,,,,,,,,,,,,,,,,610311ec875da584801f90eb,61036a29bc5fb54d72d13333,2021-07-29_19h56.37.112,Simcolourproject_2stim_asymm_v5,2020.2.10,Win32,60,61025ae37ef11b136ea224fe,,,,,,,,,3178,83,-41,1,0,0,response3disk,,5,4,5,1,0,0,rectangle,4,5,1,0,0,4,5,1,0,0,0,90,90,131,1,,,,,,,,
,,,,,,,,,,,,,FF,,,,,,,,2.7694,,,,,,,,,,,,,,,,,,,,,,610311ec875da584801f90eb,61036a29bc5fb54d72d13333,2021-07-29_19h56.37.112,Simcolourproject_2stim_asymm_v5,2020.2.10,Win32,60,61025ae37ef11b136ea224fe,,,,,,,,,1759,-74,-45,1,0,0,response5disk,,2,-22,6,1,0,0,rectangle,-22,6,1,0,0,-22,6,1,0,0,0,91,91,52,1,,,,,,,,
,,,,,,,,,,,,,FF,,,,,,,,2.8701,,,,,,,,,,,,,,,,,,,,,,610311ec875da584801f90eb,61036a29bc5fb54d72d13333,2021-07-29_19h56.37.112,Simcolourproject_2stim_asymm_v5,2020.2.10,Win32,60,61025ae37ef11b136ea224fe,,,,,,,,,419,-74,45,1,0,0,response7disk,,1,-20,0,1,0,0,rectangle,-20,0,1,0,0,-20,0,1,0,0,0,92,92,141,1,,,,,,,,
,,,,,,,,,,,,,FF,,,,,,,,9.5555,,,,,,,,,,,,,,,,,,,,,,610311ec875da584801f90eb,61036a29bc5fb54d72d13333,2021-07-29_19h56.37.112,Simcolourproject_2stim_asymm_v5,2020.2.10,Win32,60,61025ae37ef11b136ea224fe,,,,,,,,,1443,23,-76,1,0,0,response3disk,,4,-11,3,1,0,0,rectangle,-11,3,1,0,0,-11,3,1,0,0,0,93,93,148,1,,,,,,,,
,,,,,,,,,,,,,FF,,,,,,,,3.0367,,,,,,,,,,,,,,,,,,,,,,610311ec875da584801f90eb,61036a29bc5fb54d72d13333,2021-07-29_19h56.37.112,Simcolourproject_2stim_asymm_v5,2020.2.10,Win32,60,61025ae37ef11b136ea224fe,,,,,,,,,1192,87,34,1,0,0,response1disk,,6,14,1,1,0,0,rectangle,14,1,1,0,0,14,1,1,0,0,0,94,94,138,1,,,,,,,,
,,,,,,,,,,,,,FF,,,,,,,,3.3671,,,,,,,,,,,,,,,,,,,,,,610311ec875da584801f90eb,61036a29bc5fb54d72d13333,2021-07-29_19h56.37.112,Simcolourproject_2stim_asymm_v5,2020.2.10,Win32,60,61025ae37ef11b136ea224fe,,,,,,,,,2444,-79,47,1,0,0,response7disk,,1,-14,-5,1,0,0,rectangle,-14,-5,1,0,0,-14,-5,1,0,0,0,95,95,25,1,,,,,,,,
,,,,,,,,,,,,,FF,,,,,,,,6.9712,,,,,,,,,,,,,,,,,,,,,,610311ec875da584801f90eb,61036a29bc5fb54d72d13333,2021-07-29_19h56.37.112,Simcolourproject_2stim_asymm_v5,2020.2.10,Win32,60,61025ae37ef11b136ea224fe,,,,,,,,,3859,-37,-86,1,0,0,response5disk,,3,-2,0,1,0,0,rectangle,-2,0,1,0,0,-2,0,1,0,0,0,96,96,152,1,,,,,,,,
,,,,,,,,,,,,,FF,,,,,,,,3.5053,,,,,,,,,,,,,,,,,,,,,,610311ec875da584801f90eb,61036a29bc5fb54d72d13333,2021-07-29_19h56.37.112,Simcolourproject_2stim_asymm_v5,2020.2.10,Win32,60,61025ae37ef11b136ea224fe,,,,,,,,,3752,-65,-21,1,0,0,response5disk,,2,-16,3,1,0,0,rectangle,-16,3,1,0,0,-16,3,1,0,0,0,97,97,32,1,,,,,,,,
,,,,,,,,,,,,,FF,,,,,,,,4.2378,,,,,,,,,,,,,,,,,,,,,,610311ec875da584801f90eb,61036a29bc5fb54d72d13333,2021-07-29_19h56.37.112,Simcolourproject_2stim_asymm_v5,2020.2.10,Win32,60,61025ae37ef11b136ea224fe,,,,,,,,,1872,73,35,1,0,0,response1disk,,6,18,2,1,0,0,rectangle,18,2,1,0,0,18,2,1,0,0,0,98,98,102,1,,,,,,,,
,,,,,,,,,,,,,FF,,,,,,,,2.7517,,,,,,,,,,,,,,,,,,,,,,610311ec875da584801f90eb,61036a29bc5fb54d72d13333,2021-07-29_19h56.37.112,Simcolourproject_2stim_asymm_v5,2020.2.10,Win32,60,61025ae37ef11b136ea224fe,,,,,,,,,1422,81,-45,1,0,0,response3disk,,5,-6,2,1,0,0,rectangle,-42,-89,1,0,0,-2,8,1,0,0,0,99,99,4,1,,response5disk_3,TRUE,3,3,"[41,263,186,227,120,300,230,155,24,100,35,42,234,264,205,12,303,188,244,42]",5.2055,rectangle
,,,,,,,,,,,,,FF,,,,,,,,3.7537,,,,,,,,,,,,,,,,,,,,,,610311ec875da584801f90eb,61036a29bc5fb54d72d13333,2021-07-29_19h56.37.112,Simcolourproject_2stim_asymm_v5,2020.2.10,Win32,60,61025ae37ef11b136ea224fe,,,,,,,,,1191,-63,34,1,0,0,response7disk,,1,23,-2,1,0,0,rectangle,23,-2,1,0,0,23,-2,1,0,0,0,100,100,96,1,,,,,,,,
,,,,,,,,,,,,,FF,,,,,,,,1.6192,,,,,,,,,,,,,,,,,,,,,,610311ec875da584801f90eb,61036a29bc5fb54d72d13333,2021-07-29_19h56.37.112,Simcolourproject_2stim_asymm_v5,2020.2.10,Win32,60,61025ae37ef11b136ea224fe,,,,,,,,,2999,73,-35,1,0,0,response3disk,,5,3,5,1,0,0,rectangle,3,5,1,0,0,3,5,1,0,0,0,101,101,45,1,,,,,,,,
,,,,,,,,,,,,,FF,,,,,,,,2.9364,,,,,,,,,,,,,,,,,,,,,,610311ec875da584801f90eb,61036a29bc5fb54d72d13333,2021-07-29_19h56.37.112,Simcolourproject_2stim_asymm_v5,2020.2.10,Win32,60,61025ae37ef11b136ea224fe,,,,,,,,,2390,-78,-25,1,0,0,response5disk,,2,-17,0,1,0,0,rectangle,-17,0,1,0,0,-17,0,1,0,0,0,102,102,57,1,,,,,,,,
,,,,,,,,,,,,,FF,,,,,,,,8.5905,,,,,,,,,,,,,,,,,,,,,,610311ec875da584801f90eb,61036a29bc5fb54d72d13333,2021-07-29_19h56.37.112,Simcolourproject_2stim_asymm_v5,2020.2.10,Win32,60,61025ae37ef11b136ea224fe,,,,,,,,,3403,-81,-44,1,0,0,response5disk,,2,-8,-3,1,0,0,rectangle,-8,-3,1,0,0,-8,-3,1,0,0,0,103,103,12,1,,,,,,,,
,,,,,,,,,,,,,FF,,,,,,,,10.8444,,,,,,,,,,,,,,,,,,,,,,610311ec875da584801f90eb,61036a29bc5fb54d72d13333,2021-07-29_19h56.37.112,Simcolourproject_2stim_asymm_v5,2020.2.10,Win32,60,61025ae37ef11b136ea224fe,,,,,,,,,4002,48,-90,1,0,0,response3disk,,4,-6,5,1,0,0,rectangle,-6,5,1,0,0,-6,5,1,0,0,0,104,104,136,1,,,,,,,,
,,,,,,,,,,,,,FF,,,,,,,,8.9574,,,,,,,,,,,,,,,,,,,,,,610311ec875da584801f90eb,61036a29bc5fb54d72d13333,2021-07-29_19h56.37.112,Simcolourproject_2stim_asymm_v5,2020.2.10,Win32,60,61025ae37ef11b136ea224fe,,,,,,,,,2212,44,-75,1,0,0,response3disk,,4,0,1,1,0,0,rectangle,0,1,1,0,0,0,1,1,0,0,0,105,105,81,1,,,,,,,,
,,,,,,,,,,,,,FF,,,,,,,,11.9936,,,,,,,,,,,,,,,,,,,,,,610311ec875da584801f90eb,61036a29bc5fb54d72d13333,2021-07-29_19h56.37.112,Simcolourproject_2stim_asymm_v5,2020.2.10,Win32,60,61025ae37ef11b136ea224fe,,,,,,,,,902,70,-44,1,0,0,response3disk,,5,-2,-3,1,0,0,rectangle,-2,-3,1,0,0,-2,-3,1,0,0,0,106,106,108,1,,,,,,,,
,,,,,,,,,,,,,FF,,,,,,,,5.1195,,,,,,,,,,,,,,,,,,,,,,610311ec875da584801f90eb,61036a29bc5fb54d72d13333,2021-07-29_19h56.37.112,Simcolourproject_2stim_asymm_v5,2020.2.10,Win32,60,61025ae37ef11b136ea224fe,,,,,,,,,4093,42,91,1,0,0,response1disk,,7,2,3,1,0,0,rectangle,2,3,1,0,0,2,3,1,0,0,0,107,107,6,1,,,,,,,,
,,,,,,,,,,,,,FF,,,,,,,,2.5763,,,,,,,,,,,,,,,,,,,,,,610311ec875da584801f90eb,61036a29bc5fb54d72d13333,2021-07-29_19h56.37.112,Simcolourproject_2stim_asymm_v5,2020.2.10,Win32,60,61025ae37ef11b136ea224fe,,,,,,,,,382,-35,-77,1,0,0,response5disk,,3,-16,1,1,0,0,rectangle,-16,1,1,0,0,-16,1,1,0,0,0,108,108,44,1,,,,,,,,
,,,,,,,,,,,,,FF,,,,,,,,7.0731,,,,,,,,,,,,,,,,,,,,,,610311ec875da584801f90eb,61036a29bc5fb54d72d13333,2021-07-29_19h56.37.112,Simcolourproject_2stim_asymm_v5,2020.2.10,Win32,60,61025ae37ef11b136ea224fe,,,,,,,,,2941,-79,-21,1,0,0,response5disk,,2,-15,-1,1,0,0,rectangle,-15,-1,1,0,0,-15,-1,1,0,0,0,109,109,137,1,,,,,,,,
,,,,,,,,,,,,,FF,,,,,,,,9.0577,,,,,,,,,,,,,,,,,,,,,,610311ec875da584801f90eb,61036a29bc5fb54d72d13333,2021-07-29_19h56.37.112,Simcolourproject_2stim_asymm_v5,2020.2.10,Win32,60,61025ae37ef11b136ea224fe,,,,,,,,,396,36,-89,1,0,0,response3disk,,4,-7,-2,1,0,0,rectangle,-7,-2,1,0,0,-7,-2,1,0,0,0,110,110,92,1,,,,,,,,
,,,,,,,,,,,,,FF,,,,,,,,5.0876,,,,,,,,,,,,,,,,,,,,,,610311ec875da584801f90eb,61036a29bc5fb54d72d13333,2021-07-29_19h56.37.112,Simcolourproject_2stim_asymm_v5,2020.2.10,Win32,60,61025ae37ef11b136ea224fe,,,,,,,,,3718,72,-45,1,0,0,response3disk,,5,21,5,1,0,0,rectangle,21,5,1,0,0,21,5,1,0,0,0,111,111,66,1,,,,,,,,
,,,,,,,,,,,,,FF,,,,,,,,10.125,,,,,,,,,,,,,,,,,,,,,,610311ec875da584801f90eb,61036a29bc5fb54d72d13333,2021-07-29_19h56.37.112,Simcolourproject_2stim_asymm_v5,2020.2.10,Win32,60,61025ae37ef11b136ea224fe,,,,,,,,,4070,-87,-55,1,0,0,response5disk,,2,-1,-10,1,0,0,rectangle,-1,-10,1,0,0,-1,-10,1,0,0,0,112,112,135,1,,,,,,,,
,,,,,,,,,,,,,FF,,,,,,,,2.6353,,,,,,,,,,,,,,,,,,,,,,610311ec875da584801f90eb,61036a29bc5fb54d72d13333,2021-07-29_19h56.37.112,Simcolourproject_2stim_asymm_v5,2020.2.10,Win32,60,61025ae37ef11b136ea224fe,,,,,,,,,2425,-76,31,1,0,0,response7disk,,1,-1,8,1,0,0,rectangle,-1,8,1,0,0,-1,8,1,0,0,0,113,113,0,1,,,,,,,,
,,,,,,,,,,,,,FF,,,,,,,,7.9762,,,,,,,,,,,,,,,,,,,,,,610311ec875da584801f90eb,61036a29bc5fb54d72d13333,2021-07-29_19h56.37.112,Simcolourproject_2stim_asymm_v5,2020.2.10,Win32,60,61025ae37ef11b136ea224fe,,,,,,,,,1144,65,-22,1,0,0,response3disk,,5,14,9,1,0,0,rectangle,14,9,1,0,0,14,9,1,0,0,0,114,114,55,1,,,,,,,,
,,,,,,,,,,,,,FF,,,,,,,,5.3223,,,,,,,,,,,,,,,,,,,,,,610311ec875da584801f90eb,61036a29bc5fb54d72d13333,2021-07-29_19h56.37.112,Simcolourproject_2stim_asymm_v5,2020.2.10,Win32,60,61025ae37ef11b136ea224fe,,,,,,,,,3033,-37,-93,1,0,0,response5disk,,3,-4,-5,1,0,0,rectangle,-4,-5,1,0,0,-4,-5,1,0,0,0,115,115,113,1,,,,,,,,
,,,,,,,,,,,,,FF,,,,,,,,4.7389,,,,,,,,,,,,,,,,,,,,,,610311ec875da584801f90eb,61036a29bc5fb54d72d13333,2021-07-29_19h56.37.112,Simcolourproject_2stim_asymm_v5,2020.2.10,Win32,60,61025ae37ef11b136ea224fe,,,,,,,,,1146,57,-82,1,0,0,response3disk,,4,12,-5,1,0,0,rectangle,12,-5,1,0,0,12,-5,1,0,0,0,116,116,56,1,,,,,,,,
,,,,,,,,,,,,,FF,,,,,,,,3.7411,,,,,,,,,,,,,,,,,,,,,,610311ec875da584801f90eb,61036a29bc5fb54d72d13333,2021-07-29_19h56.37.112,Simcolourproject_2stim_asymm_v5,2020.2.10,Win32,60,61025ae37ef11b136ea224fe,,,,,,,,,1668,69,46,1,0,0,response1disk,,6,0,5,1,0,0,rectangle,0,5,1,0,0,0,5,1,0,0,0,117,117,86,1,,,,,,,,
,,,,,,,,,,,,,FF,,,,,,,,2.6858,,,,,,,,,,,,,,,,,,,,,,610311ec875da584801f90eb,61036a29bc5fb54d72d13333,2021-07-29_19h56.37.112,Simcolourproject_2stim_asymm_v5,2020.2.10,Win32,60,61025ae37ef11b136ea224fe,,,,,,,,,15,-65,34,1,0,0,response7disk,,1,-17,2,1,0,0,rectangle,-17,2,1,0,0,-17,2,1,0,0,0,118,118,134,1,,,,,,,,
,,,,,,,,,,,,,FF,,,,,,,,2.0679,,,,,,,,,,,,,,,,,,,,,,610311ec875da584801f90eb,61036a29bc5fb54d72d13333,2021-07-29_19h56.37.112,Simcolourproject_2stim_asymm_v5,2020.2.10,Win32,60,61025ae37ef11b136ea224fe,,,,,,,,,851,-41,-69,1,0,0,response5disk,,3,-15,9,1,0,0,rectangle,81,38,1,0,0,11,6,1,0,0,0,119,119,87,1,,response1disk_3,TRUE,6,6,"[41,263,186,227,120,300,230,155,24,100,35,42,234,264,205,12,303,188,244,42]",2.457,rectangle
,,,,,,,,,,,,,FF,,,,,,,,8.9751,,,,,,,,,,,,,,,,,,,,,,610311ec875da584801f90eb,61036a29bc5fb54d72d13333,2021-07-29_19h56.37.112,Simcolourproject_2stim_asymm_v5,2020.2.10,Win32,60,61025ae37ef11b136ea224fe,,,,,,,,,615,54,-90,1,0,0,response3disk,,4,16,-2,1,0,0,rectangle,16,-2,1,0,0,16,-2,1,0,0,0,120,120,64,1,,,,,,,,
,,,,,,,,,,,,,FF,,,,,,,,5.1547,,,,,,,,,,,,,,,,,,,,,,610311ec875da584801f90eb,61036a29bc5fb54d72d13333,2021-07-29_19h56.37.112,Simcolourproject_2stim_asymm_v5,2020.2.10,Win32,60,61025ae37ef11b136ea224fe,,,,,,,,,1657,-41,-81,1,0,0,response5disk,,3,-8,-2,1,0,0,rectangle,-8,-2,1,0,0,-8,-2,1,0,0,0,121,121,125,1,,,,,,,,
,,,,,,,,,,,,,FF,,,,,,,,5.4891,,,,,,,,,,,,,,,,,,,,,,610311ec875da584801f90eb,61036a29bc5fb54d72d13333,2021-07-29_19h56.37.112,Simcolourproject_2stim_asymm_v5,2020.2.10,Win32,60,61025ae37ef11b136ea224fe,,,,,,,,,1837,87,-54,1,0,0,response3disk,,5,2,9,1,0,0,rectangle,2,9,1,0,0,2,9,1,0,0,0,122,122,122,1,,,,,,,,
,,,,,,,,,,,,,FF,,,,,,,,5.971,,,,,,,,,,,,,,,,,,,,,,610311ec875da584801f90eb,61036a29bc5fb54d72d13333,2021-07-29_19h56.37.112,Simcolourproject_2stim_asymm_v5,2020.2.10,Win32,60,61025ae37ef11b136ea224fe,,,,,,,,,1186,34,-100,1,0,0,response3disk,,4,-1,-3,1,0,0,rectangle,-1,-3,1,0,0,-1,-3,1,0,0,0,123,123,42,1,,,,,,,,
,,,,,,,,,,,,,FF,,,,,,,,7.9744,,,,,,,,,,,,,,,,,,,,,,610311ec875da584801f90eb,61036a29bc5fb54d72d13333,2021-07-29_19h56.37.112,Simcolourproject_2stim_asymm_v5,2020.2.10,Win32,60,61025ae37ef11b136ea224fe,,,,,,,,,3848,-100,-40,1,0,0,response5disk,,2,0,-2,1,0,0,rectangle,0,-2,1,0,0,0,-2,1,0,0,0,124,124,84,1,,,,,,,,
,,,,,,,,,,,,,FF,,,,,,,,5.2954,,,,,,,,,,,,,,,,,,,,,,610311ec875da584801f90eb,61036a29bc5fb54d72d13333,2021-07-29_19h56.37.112,Simcolourproject_2stim_asymm_v5,2020.2.10,Win32,60,61025ae37ef11b136ea224fe,,,,,,,,,3803,80,-42,1,0,0,response3disk,,5,23,2,1,0,0,rectangle,23,2,1,0,0,23,2,1,0,0,0,125,125,7,1,,,,,,,,
,,,,,,,,,,,,,FF,,,,,,,,4.2533,,,,,,,,,,,,,,,,,,,,,,610311ec875da584801f90eb,61036a29bc5fb54d72d13333,2021-07-29_19h56.37.112,Simcolourproject_2stim_asymm_v5,2020.2.10,Win32,60,61025ae37ef11b136ea224fe,,,,,,,,,3010,-70,38,1,0,0,response7disk,,1,7,7,1,0,0,rectangle,7,7,1,0,0,7,7,1,0,0,0,126,126,53,1,,,,,,,,
,,,,,,,,,,,,,FF,,,,,,,,3.0385,,,,,,,,,,,,,,,,,,,,,,610311ec875da584801f90eb,61036a29bc5fb54d72d13333,2021-07-29_19h56.37.112,Simcolourproject_2stim_asymm_v5,2020.2.10,Win32,60,61025ae37ef11b136ea224fe,,,,,,,,,1001,-53,-82,1,0,0,response5disk,,3,3,-6,1,0,0,rectangle,3,-6,1,0,0,3,-6,1,0,0,0,127,127,63,1,,,,,,,,
,,,,,,,,,,,,,FF,,,,,,,,2.7664,,,,,,,,,,,,,,,,,,,,,,610311ec875da584801f90eb,61036a29bc5fb54d72d13333,2021-07-29_19h56.37.112,Simcolourproject_2stim_asymm_v5,2020.2.10,Win32,60,61025ae37ef11b136ea224fe,,,,,,,,,2564,74,32,1,0,0,response1disk,,6,5,-2,1,0,0,rectangle,5,-2,1,0,0,5,-2,1,0,0,0,128,128,1,1,,,,,,,,
,,,,,,,,,,,,,FF,,,,,,,,3.3418,,,,,,,,,,,,,,,,,,,,,,610311ec875da584801f90eb,61036a29bc5fb54d72d13333,2021-07-29_19h56.37.112,Simcolourproject_2stim_asymm_v5,2020.2.10,Win32,60,61025ae37ef11b136ea224fe,,,,,,,,,71,79,-49,1,0,0,response3disk,,5,7,0,1,0,0,rectangle,7,0,1,0,0,7,0,1,0,0,0,129,129,77,1,,,,,,,,
,,,,,,,,,,,,,FF,,,,,,,,11.7602,,,,,,,,,,,,,,,,,,,,,,610311ec875da584801f90eb,61036a29bc5fb54d72d13333,2021-07-29_19h56.37.112,Simcolourproject_2stim_asymm_v5,2020.2.10,Win32,60,61025ae37ef11b136ea224fe,,,,,,,,,1751,-69,-40,1,0,0,response5disk,,2,17,4,1,0,0,rectangle,17,4,1,0,0,17,4,1,0,0,0,130,130,146,1,,,,,,,,
,,,,,,,,,,,,,FF,,,,,,,,8.8251,,,,,,,,,,,,,,,,,,,,,,610311ec875da584801f90eb,61036a29bc5fb54d72d13333,2021-07-29_19h56.37.112,Simcolourproject_2stim_asymm_v5,2020.2.10,Win32,60,61025ae37ef11b136ea224fe,,,,,,,,,2371,78,-57,1,0,0,response3disk,,5,8,7,1,0,0,rectangle,8,7,1,0,0,8,7,1,0,0,0,131,131,133,1,,,,,,,,
,,,,,,,,,,,,,FF,,,,,,,,5.8726,,,,,,,,,,,,,,,,,,,,,,610311ec875da584801f90eb,61036a29bc5fb54d72d13333,2021-07-29_19h56.37.112,Simcolourproject_2stim_asymm_v5,2020.2.10,Win32,60,61025ae37ef11b136ea224fe,,,,,,,,,855,72,35,1,0,0,response1disk,,6,13,8,1,0,0,rectangle,13,8,1,0,0,13,8,1,0,0,0,132,132,121,1,,,,,,,,
,,,,,,,,,,,,,FF,,,,,,,,3.4776,,,,,,,,,,,,,,,,,,,,,,610311ec875da584801f90eb,61036a29bc5fb54d72d13333,2021-07-29_19h56.37.112,Simcolourproject_2stim_asymm_v5,2020.2.10,Win32,60,61025ae37ef11b136ea224fe,,,,,,,,,3171,48,78,1,0,0,response1disk,,7,-5,-2,1,0,0,rectangle,-5,-2,1,0,0,-5,-2,1,0,0,0,133,133,51,1,,,,,,,,
,,,,,,,,,,,,,FF,,,,,,,,6.1878,,,,,,,,,,,,,,,,,,,,,,610311ec875da584801f90eb,61036a29bc5fb54d72d13333,2021-07-29_19h56.37.112,Simcolourproject_2stim_asymm_v5,2020.2.10,Win32,60,61025ae37ef11b136ea224fe,,,,,,,,,2646,66,-32,1,0,0,response3disk,,5,1,8,1,0,0,rectangle,1,8,1,0,0,1,8,1,0,0,0,134,134,19,1,,,,,,,,
,,,,,,,,,,,,,FF,,,,,,,,3.6148,,,,,,,,,,,,,,,,,,,,,,610311ec875da584801f90eb,61036a29bc5fb54d72d13333,2021-07-29_19h56.37.112,Simcolourproject_2stim_asymm_v5,2020.2.10,Win32,60,61025ae37ef11b136ea224fe,,,,,,,,,375,-26,-76,1,0,0,response5disk,,3,-10,-1,1,0,0,rectangle,-10,-1,1,0,0,-10,-1,1,0,0,0,135,135,69,1,,,,,,,,
,,,,,,,,,,,,,FF,,,,,,,,11.9809,,,,,,,,,,,,,,,,,,,,,,610311ec875da584801f90eb,61036a29bc5fb54d72d13333,2021-07-29_19h56.37.112,Simcolourproject_2stim_asymm_v5,2020.2.10,Win32,60,61025ae37ef11b136ea224fe,,,,,,,,,3429,45,-91,1,0,0,response3disk,,4,1,-2,1,0,0,rectangle,1,-2,1,0,0,1,-2,1,0,0,0,136,136,71,1,,,,,,,,
,,,,,,,,,,,,,FF,,,,,,,,32.0493,,,,,,,,,,,,,,,,,,,,,,610311ec875da584801f90eb,61036a29bc5fb54d72d13333,2021-07-29_19h56.37.112,Simcolourproject_2stim_asymm_v5,2020.2.10,Win32,60,61025ae37ef11b136ea224fe,,,,,,,,,834,49,-82,1,0,0,response3disk,,4,3,0,1,0,0,rectangle,3,0,1,0,0,3,0,1,0,0,0,137,137,118,1,,,,,,,,
,,,,,,,,,,,,,FF,,,,,,,,7.4239,,,,,,,,,,,,,,,,,,,,,,610311ec875da584801f90eb,61036a29bc5fb54d72d13333,2021-07-29_19h56.37.112,Simcolourproject_2stim_asymm_v5,2020.2.10,Win32,60,61025ae37ef11b136ea224fe,,,,,,,,,2984,-85,-27,1,0,0,response5disk,,2,-5,-1,1,0,0,rectangle,-5,-1,1,0,0,-5,-1,1,0,0,0,138,138,50,1,,,,,,,,
,,,,,,,,,,,,,FF,,,,,,,,13.7534,,,,,,,,,,,,,,,,,,,,,,610311ec875da584801f90eb,61036a29bc5fb54d72d13333,2021-07-29_19h56.37.112,Simcolourproject_2stim_asymm_v5,2020.2.10,Win32,60,61025ae37ef11b136ea224fe,,,,,,,,,4318,29,-80,1,0,0,response3disk,,4,1,-1,1,0,0,rectangle,1,-1,1,0,0,1,-1,1,0,0,0,139,139,39,1,,,,,,,,
,,,,,,,,,,,,,FF,,,,,,,,8.4057,,,,,,,,,,,,,,,,,,,,,,610311ec875da584801f90eb,61036a29bc5fb54d72d13333,2021-07-29_19h56.37.112,Simcolourproject_2stim_asymm_v5,2020.2.10,Win32,60,61025ae37ef11b136ea224fe,,,,,,,,,2683,-75,-35,1,0,0,response5disk,,2,9,-2,1,0,0,rectangle,9,-2,1,0,0,9,-2,1,0,0,0,140,140,70,1,,,,,,,,
,,,,,,,,,,,,,FF,,,,,,,,3.3708,,,,,,,,,,,,,,,,,,,,,,610311ec875da584801f90eb,61036a29bc5fb54d72d13333,2021-07-29_19h56.37.112,Simcolourproject_2stim_asymm_v5,2020.2.10,Win32,60,61025ae37ef11b136ea224fe,,,,,,,,,3795,92,-42,1,0,0,response3disk,,5,12,-1,1,0,0,rectangle,12,-1,1,0,0,12,-1,1,0,0,0,141,141,17,1,,,,,,,,
,,,,,,,,,,,,,FF,,,,,,,,2.769,,,,,,,,,,,,,,,,,,,,,,610311ec875da584801f90eb,61036a29bc5fb54d72d13333,2021-07-29_19h56.37.112,Simcolourproject_2stim_asymm_v5,2020.2.10,Win32,60,61025ae37ef11b136ea224fe,,,,,,,,,3833,-70,35,1,0,0,response7disk,,1,-10,2,1,0,0,rectangle,-10,2,1,0,0,-10,2,1,0,0,0,142,142,9,1,,,,,,,,
,,,,,,,,,,,,,FF,,,,,,,,4.1037,,,,,,,,,,,,,,,,,,,,,,610311ec875da584801f90eb,61036a29bc5fb54d72d13333,2021-07-29_19h56.37.112,Simcolourproject_2stim_asymm_v5,2020.2.10,Win32,60,61025ae37ef11b136ea224fe,,,,,,,,,1754,55,-82,1,0,0,response3disk,,4,18,-2,1,0,0,rectangle,18,-2,1,0,0,18,-2,1,0,0,0,143,143,67,1,,,,,,,,
,,,,,,,,,,,,,FF,,,,,,,,7.2793,,,,,,,,,,,,,,,,,,,,,,610311ec875da584801f90eb,61036a29bc5fb54d72d13333,2021-07-29_19h56.37.112,Simcolourproject_2stim_asymm_v5,2020.2.10,Win32,60,61025ae37ef11b136ea224fe,,,,,,,,,1498,-92,35,1,0,0,response7disk,,1,-12,5,1,0,0,rectangle,-12,5,1,0,0,-12,5,1,0,0,0,144,144,155,1,,,,,,,,
,,,,,,,,,,,,,FF,,,,,,,,2.8864,,,,,,,,,,,,,,,,,,,,,,610311ec875da584801f90eb,61036a29bc5fb54d72d13333,2021-07-29_19h56.37.112,Simcolourproject_2stim_asymm_v5,2020.2.10,Win32,60,61025ae37ef11b136ea224fe,,,,,,,,,1556,-34,-81,1,0,0,response5disk,,3,-5,0,1,0,0,rectangle,-5,0,1,0,0,-5,0,1,0,0,0,145,145,132,1,,,,,,,,
,,,,,,,,,,,,,FF,,,,,,,,4.5549,,,,,,,,,,,,,,,,,,,,,,610311ec875da584801f90eb,61036a29bc5fb54d72d13333,2021-07-29_19h56.37.112,Simcolourproject_2stim_asymm_v5,2020.2.10,Win32,60,61025ae37ef11b136ea224fe,,,,,,,,,2224,37,-83,1,0,0,response3disk,,4,0,-2,1,0,0,rectangle,0,-2,1,0,0,0,-2,1,0,0,0,146,146,29,1,,,,,,,,
,,,,,,,,,,,,,FF,,,,,,,,5.9768,,,,,,,,,,,,,,,,,,,,,,610311ec875da584801f90eb,61036a29bc5fb54d72d13333,2021-07-29_19h56.37.112,Simcolourproject_2stim_asymm_v5,2020.2.10,Win32,60,61025ae37ef11b136ea224fe,,,,,,,,,2842,83,51,1,0,0,response1disk,,6,9,9,1,0,0,rectangle,9,9,1,0,0,9,9,1,0,0,0,147,147,90,1,,,,,,,,
,,,,,,,,,,,,,FF,,,,,,,,4.0046,,,,,,,,,,,,,,,,,,,,,,610311ec875da584801f90eb,61036a29bc5fb54d72d13333,2021-07-29_19h56.37.112,Simcolourproject_2stim_asymm_v5,2020.2.10,Win32,60,61025ae37ef11b136ea224fe,,,,,,,,,65,27,-87,1,0,0,response3disk,,4,-10,-4,1,0,0,rectangle,-10,-4,1,0,0,-10,-4,1,0,0,0,148,148,156,1,,,,,,,,
,,,,,,,,,,,,,FF,,,,,,,,2.3679,,,,,,,,,,,,,,,,,,,,,,610311ec875da584801f90eb,61036a29bc5fb54d72d13333,2021-07-29_19h56.37.112,Simcolourproject_2stim_asymm_v5,2020.2.10,Win32,60,61025ae37ef11b136ea224fe,,,,,,,,,4015,-72,49,1,0,0,response7disk,,1,-2,-6,1,0,0,rectangle,-2,-6,1,0,0,-2,-6,1,0,0,0,149,149,115,1,,,,,,,,
,,,,,,,,,,,,,FF,,,,,,,,1.3347,,,,,,,,,,,,,,,,,,,,,,610311ec875da584801f90eb,61036a29bc5fb54d72d13333,2021-07-29_19h56.37.112,Simcolourproject_2stim_asymm_v5,2020.2.10,Win32,60,61025ae37ef11b136ea224fe,,,,,,,,,3004,-78,51,1,0,0,response7disk,,1,-9,1,1,0,0,rectangle,-9,1,1,0,0,-9,1,1,0,0,0,150,150,126,1,,,,,,,,
,,,,,,,,,,,,,FF,,,,,,,,9.9591,,,,,,,,,,,,,,,,,,,,,,610311ec875da584801f90eb,61036a29bc5fb54d72d13333,2021-07-29_19h56.37.112,Simcolourproject_2stim_asymm_v5,2020.2.10,Win32,60,61025ae37ef11b136ea224fe,,,,,,,,,2958,40,-86,1,0,0,response3disk,,4,5,-1,1,0,0,rectangle,5,-1,1,0,0,5,-1,1,0,0,0,151,151,20,1,,,,,,,,
,,,,,,,,,,,,,FF,,,,,,,,3.5028,,,,,,,,,,,,,,,,,,,,,,610311ec875da584801f90eb,61036a29bc5fb54d72d13333,2021-07-29_19h56.37.112,Simcolourproject_2stim_asymm_v5,2020.2.10,Win32,60,61025ae37ef11b136ea224fe,,,,,,,,,3940,-57,-29,1,0,0,response5disk,,2,-23,-9,1,0,0,rectangle,-23,-9,1,0,0,-23,-9,1,0,0,0,152,152,11,1,,,,,,,,
,,,,,,,,,,,,,FF,,,,,,,,8.3918,,,,,,,,,,,,,,,,,,,,,,610311ec875da584801f90eb,61036a29bc5fb54d72d13333,2021-07-29_19h56.37.112,Simcolourproject_2stim_asymm_v5,2020.2.10,Win32,60,61025ae37ef11b136ea224fe,,,,,,,,,827,75,45,1,0,0,response1disk,,6,18,10,1,0,0,rectangle,18,10,1,0,0,18,10,1,0,0,0,153,153,33,1,,,,,,,,
,,,,,,,,,,,,,FF,,,,,,,,2.7872,,,,,,,,,,,,,,,,,,,,,,610311ec875da584801f90eb,61036a29bc5fb54d72d13333,2021-07-29_19h56.37.112,Simcolourproject_2stim_asymm_v5,2020.2.10,Win32,60,61025ae37ef11b136ea224fe,,,,,,,,,158,30,-85,1,0,0,response3disk,,4,0,1,1,0,0,rectangle,-75,-42,1,0,0,-11,-1,1,0,0,0,154,154,18,1,,response5disk_3,TRUE,2,2,"[41,263,186,227,120,300,230,155,24,100,35,42,234,264,205,12,303,188,244,42]",3.9539,rectangle
,,,,,,,,,,,,,FF,,,,,,,,4.4045,,,,,,,,,,,,,,,,,,,,,,610311ec875da584801f90eb,61036a29bc5fb54d72d13333,2021-07-29_19h56.37.112,Simcolourproject_2stim_asymm_v5,2020.2.10,Win32,60,61025ae37ef11b136ea224fe,,,,,,,,,2056,90,-40,1,0,0,response3disk,,5,14,-1,1,0,0,rectangle,14,-1,1,0,0,14,-1,1,0,0,0,155,155,111,1,,,,,,,,
,,,,,,,,,,,,,FF,,,,,,,,2.2358,,,,,,,,,,,,,,,,,,,,,,610311ec875da584801f90eb,61036a29bc5fb54d72d13333,2021-07-29_19h56.37.112,Simcolourproject_2stim_asymm_v5,2020.2.10,Win32,60,61025ae37ef11b136ea224fe,,,,,,,,,3447,-94,-38,1,0,0,response5disk,,2,-13,2,1,0,0,rectangle,-13,2,1,0,0,-13,2,1,0,0,0,156,156,130,1,,,,,,,,
,,,,,,,,,,,,,FF,,,,,,,,3.3027,,,,,,,,,,,,,,,,,,,,,,610311ec875da584801f90eb,61036a29bc5fb54d72d13333,2021-07-29_19h56.37.112,Simcolourproject_2stim_asymm_v5,2020.2.10,Win32,60,61025ae37ef11b136ea224fe,,,,,,,,,4124,-34,-82,1,0,0,response5disk,,3,-12,1,1,0,0,rectangle,-12,1,1,0,0,-12,1,1,0,0,0,157,157,22,1,,,,,,,,
,,,,,,,,,,,,,FF,,,,,,,,3.3894,,,,,,,,,,,,,,,,,,,,,,610311ec875da584801f90eb,61036a29bc5fb54d72d13333,2021-07-29_19h56.37.112,Simcolourproject_2stim_asymm_v5,2020.2.10,Win32,60,61025ae37ef11b136ea224fe,,,,,,,,,1748,32,-91,1,0,0,response3disk,,4,-7,-2,1,0,0,rectangle,-7,-2,1,0,0,-7,-2,1,0,0,0,158,158,129,1,,,,,,,,
,,,,,,,,,,,,,FF,,,,,,,,7.4105,,,,,,,,,,,,,,,,,,,,,,610311ec875da584801f90eb,61036a29bc5fb54d72d13333,2021-07-29_19h56.37.112,Simcolourproject_2stim_asymm_v5,2020.2.10,Win32,60,61025ae37ef11b136ea224fe,,,,,,,,,1670,48,-73,1,0,0,response3disk,,4,-1,-1,1,0,0,rectangle,-1,-1,1,0,0,-1,-1,1,0,0,0,159,159,37,1,,,,,,,,
,,,,,,,,,,,,,FF,,,,,,,,5.8053,,,,,,,,,,,,,,,,,,,,,,610311ec875da584801f90eb,61036a29bc5fb54d72d13333,2021-07-29_19h56.37.112,Simcolourproject_2stim_asymm_v5,2020.2.10,Win32,60,61025ae37ef11b136ea224fe,,,,,,,,,3838,-79,-28,1,0,0,response5disk,,2,-2,0,1,0,0,rectangle,-2,0,1,0,0,-2,0,1,0,0,1,0,160,138,1,,,,,,,,
,,,,,,,,,,,,,FF,,,,,,,,10.6091,,,,,,,,,,,,,,,,,,,,,,610311ec875da584801f90eb,61036a29bc5fb54d72d13333,2021-07-29_19h56.37.112,Simcolourproject_2stim_asymm_v5,2020.2.10,Win32,60,61025ae37ef11b136ea224fe,,,,,,,,,1536,56,-79,1,0,0,response3disk,,4,10,0,1,0,0,rectangle,10,0,1,0,0,10,0,1,0,0,1,1,161,139,1,,,,,,,,
,,,,,,,,,,,,,FF,,,,,,,,3.2393,,,,,,,,,,,,,,,,,,,,,,610311ec875da584801f90eb,61036a29bc5fb54d72d13333,2021-07-29_19h56.37.112,Simcolourproject_2stim_asymm_v5,2020.2.10,Win32,60,61025ae37ef11b136ea224fe,,,,,,,,,3934,43,74,1,0,0,response1disk,,7,23,3,1,0,0,rectangle,23,3,1,0,0,23,3,1,0,0,1,2,162,157,1,,,,,,,,
,,,,,,,,,,,,,FF,,,,,,,,2.887,,,,,,,,,,,,,,,,,,,,,,610311ec875da584801f90eb,61036a29bc5fb54d72d13333,2021-07-29_19h56.37.112,Simcolourproject_2stim_asymm_v5,2020.2.10,Win32,60,61025ae37ef11b136ea224fe,,,,,,,,,304,79,30,1,0,0,response1disk,,6,-4,-3,1,0,0,rectangle,-4,-3,1,0,0,-4,-3,1,0,0,1,3,163,126,1,,,,,,,,
,,,,,,,,,,,,,FF,,,,,,,,3.9019,,,,,,,,,,,,,,,,,,,,,,610311ec875da584801f90eb,61036a29bc5fb54d72d13333,2021-07-29_19h56.37.112,Simcolourproject_2stim_asymm_v5,2020.2.10,Win32,60,61025ae37ef11b136ea224fe,,,,,,,,,3299,-62,-23,1,0,0,response5disk,,2,4,-5,1,0,0,rectangle,4,-5,1,0,0,4,-5,1,0,0,1,4,164,108,1,,,,,,,,
,,,,,,,,,,,,,FF,,,,,,,,5.1234,,,,,,,,,,,,,,,,,,,,,,610311ec875da584801f90eb,61036a29bc5fb54d72d13333,2021-07-29_19h56.37.112,Simcolourproject_2stim_asymm_v5,2020.2.10,Win32,60,61025ae37ef11b136ea224fe,,,,,,,,,1145,41,-80,1,0,0,response3disk,,4,11,-3,1,0,0,rectangle,11,-3,1,0,0,11,-3,1,0,0,1,5,165,154,1,,,,,,,,
,,,,,,,,,,,,,FF,,,,,,,,2.0692,,,,,,,,,,,,,,,,,,,,,,610311ec875da584801f90eb,61036a29bc5fb54d72d13333,2021-07-29_19h56.37.112,Simcolourproject_2stim_asymm_v5,2020.2.10,Win32,60,61025ae37ef11b136ea224fe,,,,,,,,,3826,-26,-75,1,0,0,response5disk,,3,-24,1,1,0,0,rectangle,-24,1,1,0,0,-24,1,1,0,0,1,6,166,156,1,,,,,,,,
,,,,,,,,,,,,,FF,,,,,,,,1.6518,,,,,,,,,,,,,,,,,,,,,,610311ec875da584801f90eb,61036a29bc5fb54d72d13333,2021-07-29_19h56.37.112,Simcolourproject_2stim_asymm_v5,2020.2.10,Win32,60,61025ae37ef11b136ea224fe,,,,,,,,,2651,96,-33,1,0,0,response3disk,,5,13,10,1,0,0,rectangle,13,10,1,0,0,13,10,1,0,0,1,7,167,127,1,,,,,,,,
,,,,,,,,,,,,,FF,,,,,,,,4.1711,,,,,,,,,,,,,,,,,,,,,,610311ec875da584801f90eb,61036a29bc5fb54d72d13333,2021-07-29_19h56.37.112,Simcolourproject_2stim_asymm_v5,2020.2.10,Win32,60,61025ae37ef11b136ea224fe,,,,,,,,,3866,71,42,1,0,0,response1disk,,6,4,-2,1,0,0,rectangle,4,-2,1,0,0,4,-2,1,0,0,1,8,168,38,1,,,,,,,,
,,,,,,,,,,,,,FF,,,,,,,,10.1938,,,,,,,,,,,,,,,,,,,,,,610311ec875da584801f90eb,61036a29bc5fb54d72d13333,2021-07-29_19h56.37.112,Simcolourproject_2stim_asymm_v5,2020.2.10,Win32,60,61025ae37ef11b136ea224fe,,,,,,,,,2427,32,-85,1,0,0,response3disk,,4,-2,2,1,0,0,rectangle,-2,2,1,0,0,-2,2,1,0,0,1,9,169,90,1,,,,,,,,
,,,,,,,,,,,,,FF,,,,,,,,2.9029,,,,,,,,,,,,,,,,,,,,,,610311ec875da584801f90eb,61036a29bc5fb54d72d13333,2021-07-29_19h56.37.112,Simcolourproject_2stim_asymm_v5,2020.2.10,Win32,60,61025ae37ef11b136ea224fe,,,,,,,,,2335,80,-48,1,0,0,response3disk,,5,-2,4,1,0,0,rectangle,-2,4,1,0,0,-2,4,1,0,0,1,10,170,95,1,,,,,,,,
,,,,,,,,,,,,,FF,,,,,,,,8.8239,,,,,,,,,,,,,,,,,,,,,,610311ec875da584801f90eb,61036a29bc5fb54d72d13333,2021-07-29_19h56.37.112,Simcolourproject_2stim_asymm_v5,2020.2.10,Win32,60,61025ae37ef11b136ea224fe,,,,,,,,,2511,64,40,1,0,0,response1disk,,6,-4,2,1,0,0,rectangle,-4,2,1,0,0,-4,2,1,0,0,1,11,171,24,1,,,,,,,,
,,,,,,,,,,,,,FF,,,,,,,,3.1535,,,,,,,,,,,,,,,,,,,,,,610311ec875da584801f90eb,61036a29bc5fb54d72d13333,2021-07-29_19h56.37.112,Simcolourproject_2stim_asymm_v5,2020.2.10,Win32,60,61025ae37ef11b136ea224fe,,,,,,,,,2817,29,-87,1,0,0,response3disk,,4,-8,0,1,0,0,rectangle,-8,0,1,0,0,-8,0,1,0,0,1,12,172,92,1,,,,,,,,
,,,,,,,,,,,,,FF,,,,,,,,10.4267,,,,,,,,,,,,,,,,,,,,,,610311ec875da584801f90eb,61036a29bc5fb54d72d13333,2021-07-29_19h56.37.112,Simcolourproject_2stim_asymm_v5,2020.2.10,Win32,60,61025ae37ef11b136ea224fe,,,,,,,,,2747,36,-89,1,0,0,response3disk,,4,4,0,1,0,0,rectangle,4,0,1,0,0,4,0,1,0,0,1,13,173,137,1,,,,,,,,
,,,,,,,,,,,,,FF,,,,,,,,9.0505,,,,,,,,,,,,,,,,,,,,,,610311ec875da584801f90eb,61036a29bc5fb54d72d13333,2021-07-29_19h56.37.112,Simcolourproject_2stim_asymm_v5,2020.2.10,Win32,60,61025ae37ef11b136ea224fe,,,,,,,,,2289,43,-84,1,0,0,response3disk,,4,-1,-3,1,0,0,rectangle,-1,-3,1,0,0,-1,-3,1,0,0,1,14,174,8,1,,,,,,,,
,,,,,,,,,,,,,FF,,,,,,,,4.9851,,,,,,,,,,,,,,,,,,,,,,610311ec875da584801f90eb,61036a29bc5fb54d72d13333,2021-07-29_19h56.37.112,Simcolourproject_2stim_asymm_v5,2020.2.10,Win32,60,61025ae37ef11b136ea224fe,,,,,,,,,2079,85,36,1,0,0,response1disk,,6,5,2,1,0,0,rectangle,5,2,1,0,0,5,2,1,0,0,1,15,175,143,1,,,,,,,,
,,,,,,,,,,,,,FF,,,,,,,,9.6407,,,,,,,,,,,,,,,,,,,,,,610311ec875da584801f90eb,61036a29bc5fb54d72d13333,2021-07-29_19h56.37.112,Simcolourproject_2stim_asymm_v5,2020.2.10,Win32,60,61025ae37ef11b136ea224fe,,,,,,,,,439,45,-73,1,0,0,response3disk,,4,1,7,1,0,0,rectangle,1,7,1,0,0,1,7,1,0,0,1,16,176,110,1,,,,,,,,
,,,,,,,,,,,,,FF,,,,,,,,2.4926,,,,,,,,,,,,,,,,,,,,,,610311ec875da584801f90eb,61036a29bc5fb54d72d13333,2021-07-29_19h56.37.112,Simcolourproject_2stim_asymm_v5,2020.2.10,Win32,60,61025ae37ef11b136ea224fe,,,,,,,,,3212,88,-31,1,0,0,response3disk,,5,9,7,1,0,0,rectangle,9,7,1,0,0,9,7,1,0,0,1,17,177,32,1,,,,,,,,
,,,,,,,,,,,,,FF,,,,,,,,3.6532,,,,,,,,,,,,,,,,,,,,,,610311ec875da584801f90eb,61036a29bc5fb54d72d13333,2021-07-29_19h56.37.112,Simcolourproject_2stim_asymm_v5,2020.2.10,Win32,60,61025ae37ef11b136ea224fe,,,,,,,,,824,-71,-21,1,0,0,response5disk,,2,-10,-3,1,0,0,rectangle,-10,-3,1,0,0,-10,-3,1,0,0,1,18,178,132,1,,,,,,,,
,,,,,,,,,,,,,FF,,,,,,,,7.3401,,,,,,,,,,,,,,,,,,,,,,610311ec875da584801f90eb,61036a29bc5fb54d72d13333,2021-07-29_19h56.37.112,Simcolourproject_2stim_asymm_v5,2020.2.10,Win32,60,61025ae37ef11b136ea224fe,,,,,,,,,1460,35,-82,1,0,0,response3disk,,4,10,-7,1,0,0,rectangle,10,-7,1,0,0,10,-7,1,0,0,1,19,179,91,1,,,,,,,,
,,,,,,,,,,,,,FF,,,,,,,,2.5825,,,,,,,,,,,,,,,,,,,,,,610311ec875da584801f90eb,61036a29bc5fb54d72d13333,2021-07-29_19h56.37.112,Simcolourproject_2stim_asymm_v5,2020.2.10,Win32,60,61025ae37ef11b136ea224fe,,,,,,,,,2650,78,31,1,0,0,response1disk,,6,-11,0,1,0,0,rectangle,-11,0,1,0,0,-11,0,1,0,0,1,20,180,51,1,,,,,,,,
,,,,,,,,,,,,,FF,,,,,,,,16.5845,,,,,,,,,,,,,,,,,,,,,,610311ec875da584801f90eb,61036a29bc5fb54d72d13333,2021-07-29_19h56.37.112,Simcolourproject_2stim_asymm_v5,2020.2.10,Win32,60,61025ae37ef11b136ea224fe,,,,,,,,,3823,86,-47,1,0,0,response3disk,,5,-4,1,1,0,0,rectangle,-4,1,1,0,0,-4,1,1,0,0,1,21,181,4,1,,,,,,,,
,,,,,,,,,,,,,FF,,,,,,,,7.0874,,,,,,,,,,,,,,,,,,,,,,610311ec875da584801f90eb,61036a29bc5fb54d72d13333,2021-07-29_19h56.37.112,Simcolourproject_2stim_asymm_v5,2020.2.10,Win32,60,61025ae37ef11b136ea224fe,,,,,,,,,4302,82,59,1,0,0,response1disk,,6,-2,8,1,0,0,rectangle,-2,8,1,0,0,-2,8,1,0,0,1,22,182,115,1,,,,,,,,
,,,,,,,,,,,,,FF,,,,,,,,3.3031,,,,,,,,,,,,,,,,,,,,,,610311ec875da584801f90eb,61036a29bc5fb54d72d13333,2021-07-29_19h56.37.112,Simcolourproject_2stim_asymm_v5,2020.2.10,Win32,60,61025ae37ef11b136ea224fe,,,,,,,,,964,-49,-83,1,0,0,response5disk,,3,-19,5,1,0,0,rectangle,-19,5,1,0,0,-19,5,1,0,0,1,23,183,5,1,,,,,,,,
,,,,,,,,,,,,,FF,,,,,,,,11.8849,,,,,,,,,,,,,,,,,,,,,,610311ec875da584801f90eb,61036a29bc5fb54d72d13333,2021-07-29_19h56.37.112,Simcolourproject_2stim_asymm_v5,2020.2.10,Win32,60,61025ae37ef11b136ea224fe,,,,,,,,,279,76,-43,1,0,0,response3disk,,5,14,3,1,0,0,rectangle,14,3,1,0,0,14,3,1,0,0,1,24,184,50,1,,,,,,,,
,,,,,,,,,,,,,FF,,,,,,,,3.2101,,,,,,,,,,,,,,,,,,,,,,610311ec875da584801f90eb,61036a29bc5fb54d72d13333,2021-07-29_19h56.37.112,Simcolourproject_2stim_asymm_v5,2020.2.10,Win32,60,61025ae37ef11b136ea224fe,,,,,,,,,3664,62,93,1,0,0,response1disk,,7,5,3,1,0,0,rectangle,-45,83,1,0,0,2,-1,1,0,0,1,25,185,41,1,,response7disk_3,TRUE,0,0,"[41,263,186,227,120,300,230,155,24,100,35,42,234,264,205,12,303,188,244,42]",3.9202,rectangle
,,,,,,,,,,,,,FF,,,,,,,,7.4088,,,,,,,,,,,,,,,,,,,,,,610311ec875da584801f90eb,61036a29bc5fb54d72d13333,2021-07-29_19h56.37.112,Simcolourproject_2stim_asymm_v5,2020.2.10,Win32,60,61025ae37ef11b136ea224fe,,,,,,,,,1078,-70,-35,1,0,0,response5disk,,2,-3,3,1,0,0,rectangle,-3,3,1,0,0,-3,3,1,0,0,1,26,186,151,1,,,,,,,,
,,,,,,,,,,,,,FF,,,,,,,,3.5373,,,,,,,,,,,,,,,,,,,,,,610311ec875da584801f90eb,61036a29bc5fb54d72d13333,2021-07-29_19h56.37.112,Simcolourproject_2stim_asymm_v5,2020.2.10,Win32,60,61025ae37ef11b136ea224fe,,,,,,,,,1682,40,-93,1,0,0,response3disk,,4,3,-1,1,0,0,rectangle,98,-51,1,0,0,12,1,1,0,0,1,27,187,134,1,,response3disk_3,TRUE,5,5,"[41,263,186,227,120,300,230,155,24,100,35,42,234,264,205,12,303,188,244,42]",3.3015,rectangle
,,,,,,,,,,,,,FF,,,,,,,,9.8595,,,,,,,,,,,,,,,,,,,,,,610311ec875da584801f90eb,61036a29bc5fb54d72d13333,2021-07-29_19h56.37.112,Simcolourproject_2stim_asymm_v5,2020.2.10,Win32,60,61025ae37ef11b136ea224fe,,,,,,,,,2550,32,-87,1,0,0,response3disk,,4,2,-2,1,0,0,rectangle,2,-2,1,0,0,2,-2,1,0,0,1,28,188,123,1,,,,,,,,
,,,,,,,,,,,,,FF,,,,,,,,2.8036,,,,,,,,,,,,,,,,,,,,,,610311ec875da584801f90eb,61036a29bc5fb54d72d13333,2021-07-29_19h56.37.112,Simcolourproject_2stim_asymm_v5,2020.2.10,Win32,60,61025ae37ef11b136ea224fe,,,,,,,,,1432,83,29,1,0,0,response1disk,,6,14,4,1,0,0,rectangle,14,4,1,0,0,14,4,1,0,0,1,29,189,107,1,,,,,,,,
,,,,,,,,,,,,,FF,,,,,,,,2.604,,,,,,,,,,,,,,,,,,,,,,610311ec875da584801f90eb,61036a29bc5fb54d72d13333,2021-07-29_19h56.37.112,Simcolourproject_2stim_asymm_v5,2020.2.10,Win32,60,61025ae37ef11b136ea224fe,,,,,,,,,815,52,-77,1,0,0,response3disk,,4,2,-4,1,0,0,rectangle,2,-4,1,0,0,2,-4,1,0,0,1,30,190,29,1,,,,,,,,
,,,,,,,,,,,,,FF,,,,,,,,5.9693,,,,,,,,,,,,,,,,,,,,,,610311ec875da584801f90eb,61036a29bc5fb54d72d13333,2021-07-29_19h56.37.112,Simcolourproject_2stim_asymm_v5,2020.2.10,Win32,60,61025ae37ef11b136ea224fe,,,,,,,,,1656,-52,-86,1,0,0,response5disk,,3,-12,-6,1,0,0,rectangle,-12,-6,1,0,0,-12,-6,1,0,0,1,31,191,37,1,,,,,,,,
,,,,,,,,,,,,,FF,,,,,,,,11.6764,,,,,,,,,,,,,,,,,,,,,,610311ec875da584801f90eb,61036a29bc5fb54d72d13333,2021-07-29_19h56.37.112,Simcolourproject_2stim_asymm_v5,2020.2.10,Win32,60,61025ae37ef11b136ea224fe,,,,,,,,,3740,55,-79,1,0,0,response3disk,,4,5,0,1,0,0,rectangle,5,0,1,0,0,5,0,1,0,0,1,32,192,79,1,,,,,,,,
,,,,,,,,,,,,,FF,,,,,,,,2.6859,,,,,,,,,,,,,,,,,,,,,,610311ec875da584801f90eb,61036a29bc5fb54d72d13333,2021-07-29_19h56.37.112,Simcolourproject_2stim_asymm_v5,2020.2.10,Win32,60,61025ae37ef11b136ea224fe,,,,,,,,,3854,67,31,1,0,0,response1disk,,6,5,0,1,0,0,rectangle,5,0,1,0,0,5,0,1,0,0,1,33,193,109,1,,,,,,,,
,,,,,,,,,,,,,FF,,,,,,,,8.4212,,,,,,,,,,,,,,,,,,,,,,610311ec875da584801f90eb,61036a29bc5fb54d72d13333,2021-07-29_19h56.37.112,Simcolourproject_2stim_asymm_v5,2020.2.10,Win32,60,61025ae37ef11b136ea224fe,,,,,,,,,2259,88,-40,1,0,0,response3disk,,5,4,7,1,0,0,rectangle,4,7,1,0,0,4,7,1,0,0,1,34,194,22,1,,,,,,,,
,,,,,,,,,,,,,FF,,,,,,,,3.1196,,,,,,,,,,,,,,,,,,,,,,610311ec875da584801f90eb,61036a29bc5fb54d72d13333,2021-07-29_19h56.37.112,Simcolourproject_2stim_asymm_v5,2020.2.10,Win32,60,61025ae37ef11b136ea224fe,,,,,,,,,157,-73,-26,1,0,0,response5disk,,2,6,3,1,0,0,rectangle,6,3,1,0,0,6,3,1,0,0,1,35,195,111,1,,,,,,,,
,,,,,,,,,,,,,FF,,,,,,,,1.1995,,,,,,,,,,,,,,,,,,,,,,610311ec875da584801f90eb,61036a29bc5fb54d72d13333,2021-07-29_19h56.37.112,Simcolourproject_2stim_asymm_v5,2020.2.10,Win32,60,61025ae37ef11b136ea224fe,,,,,,,,,514,22,-86,1,0,0,response3disk,,4,-1,0,1,0,0,rectangle,-1,0,1,0,0,-1,0,1,0,0,1,36,196,101,1,,,,,,,,
,,,,,,,,,,,,,FF,,,,,,,,7.3243,,,,,,,,,,,,,,,,,,,,,,610311ec875da584801f90eb,61036a29bc5fb54d72d13333,2021-07-29_19h56.37.112,Simcolourproject_2stim_asymm_v5,2020.2.10,Win32,60,61025ae37ef11b136ea224fe,,,,,,,,,3669,62,33,1,0,0,response1disk,,6,-2,-2,1,0,0,rectangle,-2,-2,1,0,0,-2,-2,1,0,0,1,37,197,81,1,,,,,,,,
,,,,,,,,,,,,,FF,,,,,,,,1.5359,,,,,,,,,,,,,,,,,,,,,,610311ec875da584801f90eb,61036a29bc5fb54d72d13333,2021-07-29_19h56.37.112,Simcolourproject_2stim_asymm_v5,2020.2.10,Win32,60,61025ae37ef11b136ea224fe,,,,,,,,,704,35,-97,1,0,0,response3disk,,4,-3,1,1,0,0,rectangle,-3,1,1,0,0,-3,1,1,0,0,1,38,198,142,1,,,,,,,,
,,,,,,,,,,,,,FF,,,,,,,,3.3509,,,,,,,,,,,,,,,,,,,,,,610311ec875da584801f90eb,61036a29bc5fb54d72d13333,2021-07-29_19h56.37.112,Simcolourproject_2stim_asymm_v5,2020.2.10,Win32,60,61025ae37ef11b136ea224fe,,,,,,,,,1346,-97,-41,1,0,0,response5disk,,2,-27,-1,1,0,0,rectangle,-27,-1,1,0,0,-27,-1,1,0,0,1,39,199,124,1,,,,,,,,
,,,,,,,,,,,,,FF,,,,,,,,2.6863,,,,,,,,,,,,,,,,,,,,,,610311ec875da584801f90eb,61036a29bc5fb54d72d13333,2021-07-29_19h56.37.112,Simcolourproject_2stim_asymm_v5,2020.2.10,Win32,60,61025ae37ef11b136ea224fe,,,,,,,,,488,-77,33,1,0,0,response7disk,,1,-20,2,1,0,0,rectangle,-20,2,1,0,0,-20,2,1,0,0,1,40,200,94,1,,,,,,,,
,,,,,,,,,,,,,FF,,,,,,,,2.1864,,,,,,,,,,,,,,,,,,,,,,610311ec875da584801f90eb,61036a29bc5fb54d72d13333,2021-07-29_19h56.37.112,Simcolourproject_2stim_asymm_v5,2020.2.10,Win32,60,61025ae37ef11b136ea224fe,,,,,,,,,1605,46,-84,1,0,0,response3disk,,4,7,-4,1,0,0,rectangle,7,-4,1,0,0,7,-4,1,0,0,1,41,201,87,1,,,,,,,,
,,,,,,,,,,,,,FF,,,,,,,,1.7344,,,,,,,,,,,,,,,,,,,,,,610311ec875da584801f90eb,61036a29bc5fb54d72d13333,2021-07-29_19h56.37.112,Simcolourproject_2stim_asymm_v5,2020.2.10,Win32,60,61025ae37ef11b136ea224fe,,,,,,,,,3733,74,-30,1,0,0,response3disk,,5,13,-3,1,0,0,rectangle,13,-3,1,0,0,13,-3,1,0,0,1,42,202,43,1,,,,,,,,
,,,,,,,,,,,,,FF,,,,,,,,6.5393,,,,,,,,,,,,,,,,,,,,,,610311ec875da584801f90eb,61036a29bc5fb54d72d13333,2021-07-29_19h56.37.112,Simcolourproject_2stim_asymm_v5,2020.2.10,Win32,60,61025ae37ef11b136ea224fe,,,,,,,,,680,-58,-24,1,0,0,response5disk,,2,-12,1,1,0,0,rectangle,-12,1,1,0,0,-12,1,1,0,0,1,43,203,102,1,,,,,,,,
,,,,,,,,,,,,,FF,,,,,,,,7.1395,,,,,,,,,,,,,,,,,,,,,,610311ec875da584801f90eb,61036a29bc5fb54d72d13333,2021-07-29_19h56.37.112,Simcolourproject_2stim_asymm_v5,2020.2.10,Win32,60,61025ae37ef11b136ea224fe,,,,,,,,,332,-33,-94,1,0,0,response5disk,,3,8,-4,1,0,0,rectangle,-45,-93,1,0,0,-2,-9,1,0,0,1,44,204,44,1,,response5disk_3,TRUE,3,3,"[41,263,186,227,120,300,230,155,24,100,35,42,234,264,205,12,303,188,244,42]",3.2026,rectangle
,,,,,,,,,,,,,FF,,,,,,,,6.301,,,,,,,,,,,,,,,,,,,,,,610311ec875da584801f90eb,61036a29bc5fb54d72d13333,2021-07-29_19h56.37.112,Simcolourproject_2stim_asymm_v5,2020.2.10,Win32,60,61025ae37ef11b136ea224fe,,,,,,,,,845,78,-38,1,0,0,response3disk,,5,14,-2,1,0,0,rectangle,14,-2,1,0,0,14,-2,1,0,0,1,45,205,89,1,,,,,,,,
,,,,,,,,,,,,,FF,,,,,,,,4.7229,,,,,,,,,,,,,,,,,,,,,,610311ec875da584801f90eb,61036a29bc5fb54d72d13333,2021-07-29_19h56.37.112,Simcolourproject_2stim_asymm_v5,2020.2.10,Win32,60,61025ae37ef11b136ea224fe,,,,,,,,,2608,65,37,1,0,0,response1disk,,6,-11,-2,1,0,0,rectangle,-11,-2,1,0,0,-11,-2,1,0,0,1,46,206,31,1,,,,,,,,
,,,,,,,,,,,,,FF,,,,,,,,5.7184,,,,,,,,,,,,,,,,,,,,,,610311ec875da584801f90eb,61036a29bc5fb54d72d13333,2021-07-29_19h56.37.112,Simcolourproject_2stim_asymm_v5,2020.2.10,Win32,60,61025ae37ef11b136ea224fe,,,,,,,,,961,42,-89,1,0,0,response3disk,,4,-1,-2,1,0,0,rectangle,-1,-2,1,0,0,-1,-2,1,0,0,1,47,207,120,1,,,,,,,,
,,,,,,,,,,,,,FF,,,,,,,,3.6524,,,,,,,,,,,,,,,,,,,,,,610311ec875da584801f90eb,61036a29bc5fb54d72d13333,2021-07-29_19h56.37.112,Simcolourproject_2stim_asymm_v5,2020.2.10,Win32,60,61025ae37ef11b136ea224fe,,,,,,,,,1224,55,28,1,0,0,response1disk,,6,4,6,1,0,0,rectangle,4,6,1,0,0,4,6,1,0,0,1,48,208,128,1,,,,,,,,
,,,,,,,,,,,,,FF,,,,,,,,2.2308,,,,,,,,,,,,,,,,,,,,,,610311ec875da584801f90eb,61036a29bc5fb54d72d13333,2021-07-29_19h56.37.112,Simcolourproject_2stim_asymm_v5,2020.2.10,Win32,60,61025ae37ef11b136ea224fe,,,,,,,,,3958,33,-87,1,0,0,response3disk,,4,10,-8,1,0,0,rectangle,10,-8,1,0,0,10,-8,1,0,0,1,49,209,136,1,,,,,,,,
,,,,,,,,,,,,,FF,,,,,,,,2.118,,,,,,,,,,,,,,,,,,,,,,610311ec875da584801f90eb,61036a29bc5fb54d72d13333,2021-07-29_19h56.37.112,Simcolourproject_2stim_asymm_v5,2020.2.10,Win32,60,61025ae37ef11b136ea224fe,,,,,,,,,3474,47,82,1,0,0,response1disk,,7,7,4,1,0,0,rectangle,7,4,1,0,0,7,4,1,0,0,1,50,210,75,1,,,,,,,,
,,,,,,,,,,,,,FF,,,,,,,,2.3848,,,,,,,,,,,,,,,,,,,,,,610311ec875da584801f90eb,61036a29bc5fb54d72d13333,2021-07-29_19h56.37.112,Simcolourproject_2stim_asymm_v5,2020.2.10,Win32,60,61025ae37ef11b136ea224fe,,,,,,,,,1038,81,-50,1,0,0,response3disk,,5,-1,-1,1,0,0,rectangle,-1,-1,1,0,0,-1,-1,1,0,0,1,51,211,117,1,,,,,,,,
,,,,,,,,,,,,,FF,,,,,,,,2.1349,,,,,,,,,,,,,,,,,,,,,,610311ec875da584801f90eb,61036a29bc5fb54d72d13333,2021-07-29_19h56.37.112,Simcolourproject_2stim_asymm_v5,2020.2.10,Win32,60,61025ae37ef11b136ea224fe,,,,,,,,,2908,-98,39,1,0,0,response7disk,,1,-21,1,1,0,0,rectangle,-21,1,1,0,0,-21,1,1,0,0,1,52,212,34,1,,,,,,,,
,,,,,,,,,,,,,FF,,,,,,,,6.4887,,,,,,,,,,,,,,,,,,,,,,610311ec875da584801f90eb,61036a29bc5fb54d72d13333,2021-07-29_19h56.37.112,Simcolourproject_2stim_asymm_v5,2020.2.10,Win32,60,61025ae37ef11b136ea224fe,,,,,,,,,3514,-72,-27,1,0,0,response5disk,,2,-12,-1,1,0,0,rectangle,-12,-1,1,0,0,-12,-1,1,0,0,1,53,213,14,1,,,,,,,,
,,,,,,,,,,,,,FF,,,,,,,,7.2883,,,,,,,,,,,,,,,,,,,,,,610311ec875da584801f90eb,61036a29bc5fb54d72d13333,2021-07-29_19h56.37.112,Simcolourproject_2stim_asymm_v5,2020.2.10,Win32,60,61025ae37ef11b136ea224fe,,,,,,,,,1835,37,-90,1,0,0,response3disk,,4,14,-4,1,0,0,rectangle,14,-4,1,0,0,14,-4,1,0,0,1,54,214,97,1,,,,,,,,
,,,,,,,,,,,,,FF,,,,,,,,5.3197,,,,,,,,,,,,,,,,,,,,,,610311ec875da584801f90eb,61036a29bc5fb54d72d13333,2021-07-29_19h56.37.112,Simcolourproject_2stim_asymm_v5,2020.2.10,Win32,60,61025ae37ef11b136ea224fe,,,,,,,,,1542,82,-40,1,0,0,response3disk,,5,15,3,1,0,0,rectangle,15,3,1,0,0,15,3,1,0,0,1,55,215,130,1,,,,,,,,
,,,,,,,,,,,,,FF,,,,,,,,18.3331,,,,,,,,,,,,,,,,,,,,,,610311ec875da584801f90eb,61036a29bc5fb54d72d13333,2021-07-29_19h56.37.112,Simcolourproject_2stim_asymm_v5,2020.2.10,Win32,60,61025ae37ef11b136ea224fe,,,,,,,,,3320,30,-77,1,0,0,response3disk,,4,-15,-2,1,0,0,rectangle,-15,-2,1,0,0,-15,-2,1,0,0,1,56,216,106,1,,,,,,,,
,,,,,,,,,,,,,FF,,,,,,,,1.8335,,,,,,,,,,,,,,,,,,,,,,610311ec875da584801f90eb,61036a29bc5fb54d72d13333,2021-07-29_19h56.37.112,Simcolourproject_2stim_asymm_v5,2020.2.10,Win32,60,61025ae37ef11b136ea224fe,,,,,,,,,3726,44,81,1,0,0,response1disk,,7,19,1,1,0,0,rectangle,19,1,1,0,0,19,1,1,0,0,1,57,217,83,1,,,,,,,,
,,,,,,,,,,,,,FF,,,,,,,,9.6428,,,,,,,,,,,,,,,,,,,,,,610311ec875da584801f90eb,61036a29bc5fb54d72d13333,2021-07-29_19h56.37.112,Simcolourproject_2stim_asymm_v5,2020.2.10,Win32,60,61025ae37ef11b136ea224fe,,,,,,,,,436,-79,-37,1,0,0,response5disk,,2,-8,-3,1,0,0,rectangle,-8,-3,1,0,0,-8,-3,1,0,0,1,58,218,80,1,,,,,,,,
,,,,,,,,,,,,,FF,,,,,,,,1.9669,,,,,,,,,,,,,,,,,,,,,,610311ec875da584801f90eb,61036a29bc5fb54d72d13333,2021-07-29_19h56.37.112,Simcolourproject_2stim_asymm_v5,2020.2.10,Win32,60,61025ae37ef11b136ea224fe,,,,,,,,,1815,39,73,1,0,0,response1disk,,7,14,8,1,0,0,rectangle,14,8,1,0,0,14,8,1,0,0,1,59,219,145,1,,,,,,,,
,,,,,,,,,,,,,FF,,,,,,,,3.1147,,,,,,,,,,,,,,,,,,,,,,610311ec875da584801f90eb,61036a29bc5fb54d72d13333,2021-07-29_19h56.37.112,Simcolourproject_2stim_asymm_v5,2020.2.10,Win32,60,61025ae37ef11b136ea224fe,,,,,,,,,4343,-52,-75,1,0,0,response5disk,,3,-19,2,1,0,0,rectangle,-19,2,1,0,0,-19,2,1,0,0,1,60,220,96,1,,,,,,,,
,,,,,,,,,,,,,FF,,,,,,,,3.2022,,,,,,,,,,,,,,,,,,,,,,610311ec875da584801f90eb,61036a29bc5fb54d72d13333,2021-07-29_19h56.37.112,Simcolourproject_2stim_asymm_v5,2020.2.10,Win32,60,61025ae37ef11b136ea224fe,,,,,,,,,3791,80,35,1,0,0,response1disk,,6,7,4,1,0,0,rectangle,7,4,1,0,0,7,4,1,0,0,1,61,221,12,1,,,,,,,,
,,,,,,,,,,,,,FF,,,,,,,,5.5221,,,,,,,,,,,,,,,,,,,,,,610311ec875da584801f90eb,61036a29bc5fb54d72d13333,2021-07-29_19h56.37.112,Simcolourproject_2stim_asymm_v5,2020.2.10,Win32,60,61025ae37ef11b136ea224fe,,,,,,,,,2898,48,-76,1,0,0,response3disk,,4,21,3,1,0,0,rectangle,21,3,1,0,0,21,3,1,0,0,1,62,222,2,1,,,,,,,,
,,,,,,,,,,,,,FF,,,,,,,,0.8685,,,,,,,,,,,,,,,,,,,,,,610311ec875da584801f90eb,61036a29bc5fb54d72d13333,2021-07-29_19h56.37.112,Simcolourproject_2stim_asymm_v5,2020.2.10,Win32,60,61025ae37ef11b136ea224fe,,,,,,,,,1512,-72,-39,1,0,0,response5disk,,2,-14,-1,1,0,0,rectangle,-14,-1,1,0,0,-14,-1,1,0,0,1,63,223,98,1,,,,,,,,
,,,,,,,,,,,,,FF,,,,,,,,3.704,,,,,,,,,,,,,,,,,,,,,,610311ec875da584801f90eb,61036a29bc5fb54d72d13333,2021-07-29_19h56.37.112,Simcolourproject_2stim_asymm_v5,2020.2.10,Win32,60,61025ae37ef11b136ea224fe,,,,,,,,,1427,35,-88,1,0,0,response3disk,,4,9,2,1,0,0,rectangle,9,2,1,0,0,9,2,1,0,0,1,64,224,105,1,,,,,,,,
,,,,,,,,,,,,,FF,,,,,,,,3.8576,,,,,,,,,,,,,,,,,,,,,,610311ec875da584801f90eb,61036a29bc5fb54d72d13333,2021-07-29_19h56.37.112,Simcolourproject_2stim_asymm_v5,2020.2.10,Win32,60,61025ae37ef11b136ea224fe,,,,,,,,,1107,42,84,1,0,0,response1disk,,7,12,-1,1,0,0,rectangle,12,-1,1,0,0,12,-1,1,0,0,1,65,225,16,1,,,,,,,,
,,,,,,,,,,,,,FF,,,,,,,,3.7881,,,,,,,,,,,,,,,,,,,,,,610311ec875da584801f90eb,61036a29bc5fb54d72d13333,2021-07-29_19h56.37.112,Simcolourproject_2stim_asymm_v5,2020.2.10,Win32,60,61025ae37ef11b136ea224fe,,,,,,,,,2337,-72,33,1,0,0,response7disk,,1,-8,-3,1,0,0,rectangle,-70,-28,1,0,0,-18,6,1,0,0,1,66,226,0,1,,response5disk_3,TRUE,2,2,"[41,263,186,227,120,300,230,155,24,100,35,42,234,264,205,12,303,188,244,42]",4.4434,rectangle
,,,,,,,,,,,,,FF,,,,,,,,13.3601,,,,,,,,,,,,,,,,,,,,,,610311ec875da584801f90eb,61036a29bc5fb54d72d13333,2021-07-29_19h56.37.112,Simcolourproject_2stim_asymm_v5,2020.2.10,Win32,60,61025ae37ef11b136ea224fe,,,,,,,,,2748,56,84,1,0,0,response1disk,,7,25,2,1,0,0,rectangle,25,2,1,0,0,25,2,1,0,0,1,67,227,158,1,,,,,,,,
,,,,,,,,,,,,,FF,,,,,,,,2.2833,,,,,,,,,,,,,,,,,,,,,,610311ec875da584801f90eb,61036a29bc5fb54d72d13333,2021-07-29_19h56.37.112,Simcolourproject_2stim_asymm_v5,2020.2.10,Win32,60,61025ae37ef11b136ea224fe,,,,,,,,,2713,38,-73,1,0,0,response3disk,,4,9,4,1,0,0,rectangle,9,4,1,0,0,9,4,1,0,0,1,68,228,28,1,,,,,,,,
,,,,,,,,,,,,,FF,,,,,,,,7.589,,,,,,,,,,,,,,,,,,,,,,610311ec875da584801f90eb,61036a29bc5fb54d72d13333,2021-07-29_19h56.37.112,Simcolourproject_2stim_asymm_v5,2020.2.10,Win32,60,61025ae37ef11b136ea224fe,,,,,,,,,2073,43,-75,1,0,0,response3disk,,4,-2,5,1,0,0,rectangle,81,-47,1,0,0,-6,4,1,0,0,1,69,229,39,1,,response3disk_3,TRUE,5,5,"[41,263,186,227,120,300,230,155,24,100,35,42,234,264,205,12,303,188,244,42]",2.6021,rectangle
,,,,,,,,,,,,,FF,,,,,,,,1043.2792,,,,,,,,,,,,,,,,,,,,,,610311ec875da584801f90eb,61036a29bc5fb54d72d13333,2021-07-29_19h56.37.112,Simcolourproject_2stim_asymm_v5,2020.2.10,Win32,60,61025ae37ef11b136ea224fe,,,,,,,,,2434,46,-79,1,0,0,response3disk,,4,-11,0,1,0,0,rectangle,-11,0,1,0,0,-11,0,1,0,0,1,70,230,65,1,,,,,,,,
,,,,,,,,,,,,,FF,,,,,,,,1.0844,,,,,,,,,,,,,,,,,,,,,,610311ec875da584801f90eb,61036a29bc5fb54d72d13333,2021-07-29_19h56.37.112,Simcolourproject_2stim_asymm_v5,2020.2.10,Win32,60,61025ae37ef11b136ea224fe,,,,,,,,,860,-70,-29,1,0,0,response5disk,,2,-22,-3,1,0,0,rectangle,-22,-3,1,0,0,-22,-3,1,0,0,1,71,231,69,1,,,,,,,,
,,,,,,,,,,,,,FF,,,,,,,,3.6386,,,,,,,,,,,,,,,,,,,,,,610311ec875da584801f90eb,61036a29bc5fb54d72d13333,2021-07-29_19h56.37.112,Simcolourproject_2stim_asymm_v5,2020.2.10,Win32,60,61025ae37ef11b136ea224fe,,,,,,,,,882,96,27,1,0,0,response1disk,,6,-4,5,1,0,0,rectangle,-4,5,1,0,0,-4,5,1,0,0,1,72,232,144,1,,,,,,,,
,,,,,,,,,,,,,FF,,,,,,,,1.6462,,,,,,,,,,,,,,,,,,,,,,610311ec875da584801f90eb,61036a29bc5fb54d72d13333,2021-07-29_19h56.37.112,Simcolourproject_2stim_asymm_v5,2020.2.10,Win32,60,61025ae37ef11b136ea224fe,,,,,,,,,2116,70,-54,1,0,0,response3disk,,5,-8,5,1,0,0,rectangle,41,91,1,0,0,7,0,1,0,0,1,73,233,85,1,,response1disk_3,TRUE,7,7,"[41,263,186,227,120,300,230,155,24,100,35,42,234,264,205,12,303,188,244,42]",2.6052,rectangle
,,,,,,,,,,,,,FF,,,,,,,,6.3559,,,,,,,,,,,,,,,,,,,,,,610311ec875da584801f90eb,61036a29bc5fb54d72d13333,2021-07-29_19h56.37.112,Simcolourproject_2stim_asymm_v5,2020.2.10,Win32,60,61025ae37ef11b136ea224fe,,,,,,,,,3744,80,-44,1,0,0,response3disk,,5,23,5,1,0,0,rectangle,23,5,1,0,0,23,5,1,0,0,1,74,234,86,1,,,,,,,,
,,,,,,,,,,,,,FF,,,,,,,,7.4739,,,,,,,,,,,,,,,,,,,,,,610311ec875da584801f90eb,61036a29bc5fb54d72d13333,2021-07-29_19h56.37.112,Simcolourproject_2stim_asymm_v5,2020.2.10,Win32,60,61025ae37ef11b136ea224fe,,,,,,,,,1681,-83,-22,1,0,0,response5disk,,2,-8,-5,1,0,0,rectangle,-8,-5,1,0,0,-8,-5,1,0,0,1,75,235,53,1,,,,,,,,
,,,,,,,,,,,,,FF,,,,,,,,2.9846,,,,,,,,,,,,,,,,,,,,,,610311ec875da584801f90eb,61036a29bc5fb54d72d13333,2021-07-29_19h56.37.112,Simcolourproject_2stim_asymm_v5,2020.2.10,Win32,60,61025ae37ef11b136ea224fe,,,,,,,,,3357,75,38,1,0,0,response1disk,,6,15,5,1,0,0,rectangle,15,5,1,0,0,15,5,1,0,0,1,76,236,66,1,,,,,,,,
,,,,,,,,,,,,,FF,,,,,,,,4.0034,,,,,,,,,,,,,,,,,,,,,,610311ec875da584801f90eb,61036a29bc5fb54d72d13333,2021-07-29_19h56.37.112,Simcolourproject_2stim_asymm_v5,2020.2.10,Win32,60,61025ae37ef11b136ea224fe,,,,,,,,,2957,-86,-43,1,0,0,response5disk,,2,-5,1,1,0,0,rectangle,-5,1,1,0,0,-5,1,1,0,0,1,77,237,9,1,,,,,,,,
,,,,,,,,,,,,,FF,,,,,,,,3.4048,,,,,,,,,,,,,,,,,,,,,,610311ec875da584801f90eb,61036a29bc5fb54d72d13333,2021-07-29_19h56.37.112,Simcolourproject_2stim_asymm_v5,2020.2.10,Win32,60,61025ae37ef11b136ea224fe,,,,,,,,,4021,40,-83,1,0,0,response3disk,,4,11,-3,1,0,0,rectangle,11,-3,1,0,0,11,-3,1,0,0,1,78,238,93,1,,,,,,,,
,,,,,,,,,,,,,FF,,,,,,,,3.136,,,,,,,,,,,,,,,,,,,,,,610311ec875da584801f90eb,61036a29bc5fb54d72d13333,2021-07-29_19h56.37.112,Simcolourproject_2stim_asymm_v5,2020.2.10,Win32,60,61025ae37ef11b136ea224fe,,,,,,,,,4017,72,-33,1,0,0,response3disk,,5,13,-4,1,0,0,rectangle,13,-4,1,0,0,13,-4,1,0,0,1,79,239,49,1,,,,,,,,
,,,,,,,,,,,,,FF,,,,,,,,0.6658,,,,,,,,,,,,,,,,,,,,,,610311ec875da584801f90eb,61036a29bc5fb54d72d13333,2021-07-29_19h56.37.112,Simcolourproject_2stim_asymm_v5,2020.2.10,Win32,60,61025ae37ef11b136ea224fe,,,,,,,,,2895,-67,-27,1,0,0,response5disk,,2,-17,-3,1,0,0,rectangle,-17,-3,1,0,0,-17,-3,1,0,0,1,80,240,25,1,,,,,,,,
,,,,,,,,,,,,,FF,,,,,,,,2.5035,,,,,,,,,,,,,,,,,,,,,,610311ec875da584801f90eb,61036a29bc5fb54d72d13333,2021-07-29_19h56.37.112,Simcolourproject_2stim_asymm_v5,2020.2.10,Win32,60,61025ae37ef11b136ea224fe,,,,,,,,,3469,88,30,1,0,0,response1disk,,6,-6,-5,1,0,0,rectangle,-6,-5,1,0,0,-6,-5,1,0,0,1,81,241,62,1,,,,,,,,
,,,,,,,,,,,,,FF,,,,,,,,2.5871,,,,,,,,,,,,,,,,,,,,,,610311ec875da584801f90eb,61036a29bc5fb54d72d13333,2021-07-29_19h56.37.112,Simcolourproject_2stim_asymm_v5,2020.2.10,Win32,60,61025ae37ef11b136ea224fe,,,,,,,,,1330,-26,-90,1,0,0,response5disk,,3,1,-5,1,0,0,rectangle,1,-5,1,0,0,1,-5,1,0,0,1,82,242,17,1,,,,,,,,
,,,,,,,,,,,,,FF,,,,,,,,2.6532,,,,,,,,,,,,,,,,,,,,,,610311ec875da584801f90eb,61036a29bc5fb54d72d13333,2021-07-29_19h56.37.112,Simcolourproject_2stim_asymm_v5,2020.2.10,Win32,60,61025ae37ef11b136ea224fe,,,,,,,,,2480,28,-63,1,0,0,response3disk,,4,4,0,1,0,0,rectangle,-68,-24,1,0,0,-13,2,1,0,0,1,83,243,7,1,,response5disk_3,TRUE,2,2,"[41,263,186,227,120,300,230,155,24,100,35,42,234,264,205,12,303,188,244,42]",2.6187,rectangle
,,,,,,,,,,,,,FF,,,,,,,,12.9787,,,,,,,,,,,,,,,,,,,,,,610311ec875da584801f90eb,61036a29bc5fb54d72d13333,2021-07-29_19h56.37.112,Simcolourproject_2stim_asymm_v5,2020.2.10,Win32,60,61025ae37ef11b136ea224fe,,,,,,,,,4016,80,38,1,0,0,response1disk,,6,-8,4,1,0,0,rectangle,-8,4,1,0,0,-8,4,1,0,0,1,84,244,129,1,,,,,,,,
,,,,,,,,,,,,,FF,,,,,,,,4.3195,,,,,,,,,,,,,,,,,,,,,,610311ec875da584801f90eb,61036a29bc5fb54d72d13333,2021-07-29_19h56.37.112,Simcolourproject_2stim_asymm_v5,2020.2.10,Win32,60,61025ae37ef11b136ea224fe,,,,,,,,,74,-61,-26,1,0,0,response5disk,,2,-20,-6,1,0,0,rectangle,-20,-6,1,0,0,-20,-6,1,0,0,1,85,245,82,1,,,,,,,,
,,,,,,,,,,,,,FF,,,,,,,,3.12,,,,,,,,,,,,,,,,,,,,,,610311ec875da584801f90eb,61036a29bc5fb54d72d13333,2021-07-29_19h56.37.112,Simcolourproject_2stim_asymm_v5,2020.2.10,Win32,60,61025ae37ef11b136ea224fe,,,,,,,,,1685,-36,-87,1,0,0,response5disk,,3,-19,-2,1,0,0,rectangle,-19,-2,1,0,0,-19,-2,1,0,0,1,86,246,148,1,,,,,,,,
,,,,,,,,,,,,,FF,,,,,,,,2.3703,,,,,,,,,,,,,,,,,,,,,,610311ec875da584801f90eb,61036a29bc5fb54d72d13333,2021-07-29_19h56.37.112,Simcolourproject_2stim_asymm_v5,2020.2.10,Win32,60,61025ae37ef11b136ea224fe,,,,,,,,,408,76,-40,1,0,0,response3disk,,5,5,1,1,0,0,rectangle,5,1,1,0,0,5,1,1,0,0,1,87,247,18,1,,,,,,,,
,,,,,,,,,,,,,FF,,,,,,,,2.6527,,,,,,,,,,,,,,,,,,,,,,610311ec875da584801f90eb,61036a29bc5fb54d72d13333,2021-07-29_19h56.37.112,Simcolourproject_2stim_asymm_v5,2020.2.10,Win32,60,61025ae37ef11b136ea224fe,,,,,,,,,3512,-76,40,1,0,0,response7disk,,1,-18,4,1,0,0,rectangle,-18,4,1,0,0,-18,4,1,0,0,1,88,248,147,1,,,,,,,,
,,,,,,,,,,,,,FF,,,,,,,,2.8703,,,,,,,,,,,,,,,,,,,,,,610311ec875da584801f90eb,61036a29bc5fb54d72d13333,2021-07-29_19h56.37.112,Simcolourproject_2stim_asymm_v5,2020.2.10,Win32,60,61025ae37ef11b136ea224fe,,,,,,,,,2912,43,-79,1,0,0,response3disk,,4,12,5,1,0,0,rectangle,12,5,1,0,0,12,5,1,0,0,1,89,249,40,1,,,,,,,,
,,,,,,,,,,,,,FF,,,,,,,,3.3198,,,,,,,,,,,,,,,,,,,,,,610311ec875da584801f90eb,61036a29bc5fb54d72d13333,2021-07-29_19h56.37.112,Simcolourproject_2stim_asymm_v5,2020.2.10,Win32,60,61025ae37ef11b136ea224fe,,,,,,,,,3178,43,82,1,0,0,response1disk,,7,9,-3,1,0,0,rectangle,9,-3,1,0,0,9,-3,1,0,0,1,90,250,74,1,,,,,,,,
,,,,,,,,,,,,,FF,,,,,,,,8.5764,,,,,,,,,,,,,,,,,,,,,,610311ec875da584801f90eb,61036a29bc5fb54d72d13333,2021-07-29_19h56.37.112,Simcolourproject_2stim_asymm_v5,2020.2.10,Win32,60,61025ae37ef11b136ea224fe,,,,,,,,,1759,-93,-43,1,0,0,response5disk,,2,-20,-5,1,0,0,rectangle,-20,-5,1,0,0,-20,-5,1,0,0,1,91,251,20,1,,,,,,,,
,,,,,,,,,,,,,FF,,,,,,,,4.0186,,,,,,,,,,,,,,,,,,,,,,610311ec875da584801f90eb,61036a29bc5fb54d72d13333,2021-07-29_19h56.37.112,Simcolourproject_2stim_asymm_v5,2020.2.10,Win32,60,61025ae37ef11b136ea224fe,,,,,,,,,419,-33,-86,1,0,0,response5disk,,3,-9,-7,1,0,0,rectangle,-9,-7,1,0,0,-9,-7,1,0,0,1,92,252,55,1,,,,,,,,
,,,,,,,,,,,,,FF,,,,,,,,4.5372,,,,,,,,,,,,,,,,,,,,,,610311ec875da584801f90eb,61036a29bc5fb54d72d13333,2021-07-29_19h56.37.112,Simcolourproject_2stim_asymm_v5,2020.2.10,Win32,60,61025ae37ef11b136ea224fe,,,,,,,,,1443,39,-92,1,0,0,response3disk,,4,-9,8,1,0,0,rectangle,-9,8,1,0,0,-9,8,1,0,0,1,93,253,159,1,,,,,,,,
,,,,,,,,,,,,,FF,,,,,,,,1.948,,,,,,,,,,,,,,,,,,,,,,610311ec875da584801f90eb,61036a29bc5fb54d72d13333,2021-07-29_19h56.37.112,Simcolourproject_2stim_asymm_v5,2020.2.10,Win32,60,61025ae37ef11b136ea224fe,,,,,,,,,1192,81,-36,1,0,0,response3disk,,5,6,7,1,0,0,rectangle,6,7,1,0,0,6,7,1,0,0,1,94,254,112,1,,,,,,,,
,,,,,,,,,,,,,FF,,,,,,,,3.9397,,,,,,,,,,,,,,,,,,,,,,610311ec875da584801f90eb,61036a29bc5fb54d72d13333,2021-07-29_19h56.37.112,Simcolourproject_2stim_asymm_v5,2020.2.10,Win32,60,61025ae37ef11b136ea224fe,,,,,,,,,2444,-63,39,1,0,0,response7disk,,1,-13,7,1,0,0,rectangle,-13,7,1,0,0,-13,7,1,0,0,1,95,255,64,1,,,,,,,,
,,,,,,,,,,,,,FF,,,,,,,,1.9181,,,,,,,,,,,,,,,,,,,,,,610311ec875da584801f90eb,61036a29bc5fb54d72d13333,2021-07-29_19h56.37.112,Simcolourproject_2stim_asymm_v5,2020.2.10,Win32,60,61025ae37ef11b136ea224fe,,,,,,,,,3859,-44,-82,1,0,0,response5disk,,3,-14,0,1,0,0,rectangle,-14,0,1,0,0,-14,0,1,0,0,1,96,256,63,1,,,,,,,,
,,,,,,,,,,,,,FF,,,,,,,,0.8844,,,,,,,,,,,,,,,,,,,,,,610311ec875da584801f90eb,61036a29bc5fb54d72d13333,2021-07-29_19h56.37.112,Simcolourproject_2stim_asymm_v5,2020.2.10,Win32,60,61025ae37ef11b136ea224fe,,,,,,,,,3752,37,-92,1,0,0,response3disk,,4,2,0,1,0,0,rectangle,2,0,1,0,0,2,0,1,0,0,1,97,257,45,1,,,,,,,,
,,,,,,,,,,,,,FF,,,,,,,,13.3165,,,,,,,,,,,,,,,,,,,,,,610311ec875da584801f90eb,61036a29bc5fb54d72d13333,2021-07-29_19h56.37.112,Simcolourproject_2stim_asymm_v5,2020.2.10,Win32,60,61025ae37ef11b136ea224fe,,,,,,,,,1872,78,-48,1,0,0,response3disk,,5,9,5,1,0,0,rectangle,9,5,1,0,0,9,5,1,0,0,1,98,258,155,1,,,,,,,,
,,,,,,,,,,,,,FF,,,,,,,,2.9852,,,,,,,,,,,,,,,,,,,,,,610311ec875da584801f90eb,61036a29bc5fb54d72d13333,2021-07-29_19h56.37.112,Simcolourproject_2stim_asymm_v5,2020.2.10,Win32,60,61025ae37ef11b136ea224fe,,,,,,,,,1422,-32,-95,1,0,0,response5disk,,3,-15,3,1,0,0,rectangle,-15,3,1,0,0,-15,3,1,0,0,1,99,259,60,1,,,,,,,,
,,,,,,,,,,,,,FF,,,,,,,,1.8509,,,,,,,,,,,,,,,,,,,,,,610311ec875da584801f90eb,61036a29bc5fb54d72d13333,2021-07-29_19h56.37.112,Simcolourproject_2stim_asymm_v5,2020.2.10,Win32,60,61025ae37ef11b136ea224fe,,,,,,,,,1191,38,85,1,0,0,response1disk,,7,9,1,1,0,0,rectangle,9,1,1,0,0,9,1,1,0,0,1,100,260,100,1,,,,,,,,
,,,,,,,,,,,,,FF,,,,,,,,8.1416,,,,,,,,,,,,,,,,,,,,,,610311ec875da584801f90eb,61036a29bc5fb54d72d13333,2021-07-29_19h56.37.112,Simcolourproject_2stim_asymm_v5,2020.2.10,Win32,60,61025ae37ef11b136ea224fe,,,,,,,,,2999,-76,-26,1,0,0,response5disk,,2,-16,2,1,0,0,rectangle,-16,2,1,0,0,-16,2,1,0,0,1,101,261,146,1,,,,,,,,
,,,,,,,,,,,,,FF,,,,,,,,2.7697,,,,,,,,,,,,,,,,,,,,,,610311ec875da584801f90eb,61036a29bc5fb54d72d13333,2021-07-29_19h56.37.112,Simcolourproject_2stim_asymm_v5,2020.2.10,Win32,60,61025ae37ef11b136ea224fe,,,,,,,,,2390,39,-92,1,0,0,response3disk,,4,-8,0,1,0,0,rectangle,81,-36,1,0,0,12,-2,1,0,0,1,102,262,71,1,,response3disk_3,TRUE,5,5,"[41,263,186,227,120,300,230,155,24,100,35,42,234,264,205,12,303,188,244,42]",2.0826,rectangle
,,,,,,,,,,,,,FF,,,,,,,,5.3545,,,,,,,,,,,,,,,,,,,,,,610311ec875da584801f90eb,61036a29bc5fb54d72d13333,2021-07-29_19h56.37.112,Simcolourproject_2stim_asymm_v5,2020.2.10,Win32,60,61025ae37ef11b136ea224fe,,,,,,,,,3403,92,45,1,0,0,response1disk,,6,11,6,1,0,0,rectangle,80,-35,1,0,0,4,2,1,0,0,1,103,263,47,1,,response3disk_3,TRUE,5,5,"[41,263,186,227,120,300,230,155,24,100,35,42,234,264,205,12,303,188,244,42]",1.9686,rectangle
,,,,,,,,,,,,,FF,,,,,,,,5.7882,,,,,,,,,,,,,,,,,,,,,,610311ec875da584801f90eb,61036a29bc5fb54d72d13333,2021-07-29_19h56.37.112,Simcolourproject_2stim_asymm_v5,2020.2.10,Win32,60,61025ae37ef11b136ea224fe,,,,,,,,,4002,-27,-81,1,0,0,response5disk,,3,-5,0,1,0,0,rectangle,-5,0,1,0,0,-5,0,1,0,0,1,104,264,149,1,,,,,,,,
,,,,,,,,,,,,,FF,,,,,,,,4.524,,,,,,,,,,,,,,,,,,,,,,610311ec875da584801f90eb,61036a29bc5fb54d72d13333,2021-07-29_19h56.37.112,Simcolourproject_2stim_asymm_v5,2020.2.10,Win32,60,61025ae37ef11b136ea224fe,,,,,,,,,2212,-72,41,1,0,0,response7disk,,1,-21,7,1,0,0,rectangle,-21,7,1,0,0,-21,7,1,0,0,1,105,265,152,1,,,,,,,,
,,,,,,,,,,,,,FF,,,,,,,,6.5017,,,,,,,,,,,,,,,,,,,,,,610311ec875da584801f90eb,61036a29bc5fb54d72d13333,2021-07-29_19h56.37.112,Simcolourproject_2stim_asymm_v5,2020.2.10,Win32,60,61025ae37ef11b136ea224fe,,,,,,,,,902,-81,-31,1,0,0,response5disk,,2,-14,2,1,0,0,rectangle,-14,2,1,0,0,-14,2,1,0,0,1,106,266,10,1,,,,,,,,
,,,,,,,,,,,,,FF,,,,,,,,29.4002,,,,,,,,,,,,,,,,,,,,,,610311ec875da584801f90eb,61036a29bc5fb54d72d13333,2021-07-29_19h56.37.112,Simcolourproject_2stim_asymm_v5,2020.2.10,Win32,60,61025ae37ef11b136ea224fe,,,,,,,,,4093,69,-32,1,0,0,response3disk,,5,17,-5,1,0,0,rectangle,17,-5,1,0,0,17,-5,1,0,0,1,107,267,99,1,,,,,,,,
,,,,,,,,,,,,,FF,,,,,,,,2.5527,,,,,,,,,,,,,,,,,,,,,,610311ec875da584801f90eb,61036a29bc5fb54d72d13333,2021-07-29_19h56.37.112,Simcolourproject_2stim_asymm_v5,2020.2.10,Win32,60,61025ae37ef11b136ea224fe,,,,,,,,,382,-68,-24,1,0,0,response5disk,,2,-17,1,1,0,0,rectangle,-17,1,1,0,0,-17,1,1,0,0,1,108,268,72,1,,,,,,,,
,,,,,,,,,,,,,FF,,,,,,,,3.123,,,,,,,,,,,,,,,,,,,,,,610311ec875da584801f90eb,61036a29bc5fb54d72d13333,2021-07-29_19h56.37.112,Simcolourproject_2stim_asymm_v5,2020.2.10,Win32,60,61025ae37ef11b136ea224fe,,,,,,,,,2941,30,-80,1,0,0,response3disk,,4,9,-4,1,0,0,rectangle,9,-4,1,0,0,9,-4,1,0,0,1,109,269,135,1,,,,,,,,
,,,,,,,,,,,,,FF,,,,,,,,1.736,,,,,,,,,,,,,,,,,,,,,,610311ec875da584801f90eb,61036a29bc5fb54d72d13333,2021-07-29_19h56.37.112,Simcolourproject_2stim_asymm_v5,2020.2.10,Win32,60,61025ae37ef11b136ea224fe,,,,,,,,,396,79,32,1,0,0,response1disk,,6,-3,2,1,0,0,rectangle,-3,2,1,0,0,-3,2,1,0,0,1,110,270,116,1,,,,,,,,
,,,,,,,,,,,,,FF,,,,,,,,2.0799,,,,,,,,,,,,,,,,,,,,,,610311ec875da584801f90eb,61036a29bc5fb54d72d13333,2021-07-29_19h56.37.112,Simcolourproject_2stim_asymm_v5,2020.2.10,Win32,60,61025ae37ef11b136ea224fe,,,,,,,,,3718,77,40,1,0,0,response1disk,,6,6,5,1,0,0,rectangle,6,5,1,0,0,6,5,1,0,0,1,111,271,35,1,,,,,,,,
,,,,,,,,,,,,,FF,,,,,,,,3.3692,,,,,,,,,,,,,,,,,,,,,,610311ec875da584801f90eb,61036a29bc5fb54d72d13333,2021-07-29_19h56.37.112,Simcolourproject_2stim_asymm_v5,2020.2.10,Win32,60,61025ae37ef11b136ea224fe,,,,,,,,,4070,46,-79,1,0,0,response3disk,,4,5,-1,1,0,0,rectangle,5,-1,1,0,0,5,-1,1,0,0,1,112,272,77,1,,,,,,,,
,,,,,,,,,,,,,FF,,,,,,,,1.4382,,,,,,,,,,,,,,,,,,,,,,610311ec875da584801f90eb,61036a29bc5fb54d72d13333,2021-07-29_19h56.37.112,Simcolourproject_2stim_asymm_v5,2020.2.10,Win32,60,61025ae37ef11b136ea224fe,,,,,,,,,2425,-50,-77,1,0,0,response5disk,,3,-3,-4,1,0,0,rectangle,-3,-4,1,0,0,-3,-4,1,0,0,1,113,273,125,1,,,,,,,,
,,,,,,,,,,,,,FF,,,,,,,,2.9555,,,,,,,,,,,,,,,,,,,,,,610311ec875da584801f90eb,61036a29bc5fb54d72d13333,2021-07-29_19h56.37.112,Simcolourproject_2stim_asymm_v5,2020.2.10,Win32,60,61025ae37ef11b136ea224fe,,,,,,,,,1144,-62,-26,1,0,0,response5disk,,2,-10,3,1,0,0,rectangle,-10,3,1,0,0,-10,3,1,0,0,1,114,274,56,1,,,,,,,,
,,,,,,,,,,,,,FF,,,,,,,,1.7868,,,,,,,,,,,,,,,,,,,,,,610311ec875da584801f90eb,61036a29bc5fb54d72d13333,2021-07-29_19h56.37.112,Simcolourproject_2stim_asymm_v5,2020.2.10,Win32,60,61025ae37ef11b136ea224fe,,,,,,,,,3033,-71,36,1,0,0,response7disk,,1,-6,4,1,0,0,rectangle,-6,4,1,0,0,-6,4,1,0,0,1,115,275,122,1,,,,,,,,
,,,,,,,,,,,,,FF,,,,,,,,5.0382,,,,,,,,,,,,,,,,,,,,,,610311ec875da584801f90eb,61036a29bc5fb54d72d13333,2021-07-29_19h56.37.112,Simcolourproject_2stim_asymm_v5,2020.2.10,Win32,60,61025ae37ef11b136ea224fe,,,,,,,,,1146,77,37,1,0,0,response1disk,,6,7,-3,1,0,0,rectangle,7,-3,1,0,0,7,-3,1,0,0,1,116,276,150,1,,,,,,,,
,,,,,,,,,,,,,FF,,,,,,,,1.9089,,,,,,,,,,,,,,,,,,,,,,610311ec875da584801f90eb,61036a29bc5fb54d72d13333,2021-07-29_19h56.37.112,Simcolourproject_2stim_asymm_v5,2020.2.10,Win32,60,61025ae37ef11b136ea224fe,,,,,,,,,1668,-36,-87,1,0,0,response5disk,,3,5,0,1,0,0,rectangle,5,0,1,0,0,5,0,1,0,0,1,117,277,30,1,,,,,,,,
,,,,,,,,,,,,,FF,,,,,,,,3.3388,,,,,,,,,,,,,,,,,,,,,,610311ec875da584801f90eb,61036a29bc5fb54d72d13333,2021-07-29_19h56.37.112,Simcolourproject_2stim_asymm_v5,2020.2.10,Win32,60,61025ae37ef11b136ea224fe,,,,,,,,,15,44,-91,1,0,0,response3disk,,4,2,-4,1,0,0,rectangle,2,-4,1,0,0,2,-4,1,0,0,1,118,278,33,1,,,,,,,,
,,,,,,,,,,,,,FF,,,,,,,,3.213,,,,,,,,,,,,,,,,,,,,,,610311ec875da584801f90eb,61036a29bc5fb54d72d13333,2021-07-29_19h56.37.112,Simcolourproject_2stim_asymm_v5,2020.2.10,Win32,60,61025ae37ef11b136ea224fe,,,,,,,,,851,43,81,1,0,0,response1disk,,7,-2,4,1,0,0,rectangle,-2,4,1,0,0,-2,4,1,0,0,1,119,279,103,1,,,,,,,,
,,,,,,,,,,,,,FF,,,,,,,,4.3571,,,,,,,,,,,,,,,,,,,,,,610311ec875da584801f90eb,61036a29bc5fb54d72d13333,2021-07-29_19h56.37.112,Simcolourproject_2stim_asymm_v5,2020.2.10,Win32,60,61025ae37ef11b136ea224fe,,,,,,,,,615,-25,-71,1,0,0,response5disk,,3,-4,-2,1,0,0,rectangle,-4,-2,1,0,0,-4,-2,1,0,0,1,120,280,48,1,,,,,,,,
,,,,,,,,,,,,,FF,,,,,,,,2.2221,,,,,,,,,,,,,,,,,,,,,,610311ec875da584801f90eb,61036a29bc5fb54d72d13333,2021-07-29_19h56.37.112,Simcolourproject_2stim_asymm_v5,2020.2.10,Win32,60,61025ae37ef11b136ea224fe,,,,,,,,,1657,-74,32,1,0,0,response7disk,,1,-14,-1,1,0,0,rectangle,-14,-1,1,0,0,-14,-1,1,0,0,1,121,281,70,1,,,,,,,,
,,,,,,,,,,,,,FF,,,,,,,,4.9513,,,,,,,,,,,,,,,,,,,,,,610311ec875da584801f90eb,61036a29bc5fb54d72d13333,2021-07-29_19h56.37.112,Simcolourproject_2stim_asymm_v5,2020.2.10,Win32,60,61025ae37ef11b136ea224fe,,,,,,,,,1837,-30,97,1,0,0,response7disk,,0,0,12,1,0,0,rectangle,0,12,1,0,0,0,12,1,0,0,1,122,282,121,1,,,,,,,,
,,,,,,,,,,,,,FF,,,,,,,,2.6888,,,,,,,,,,,,,,,,,,,,,,610311ec875da584801f90eb,61036a29bc5fb54d72d13333,2021-07-29_19h56.37.112,Simcolourproject_2stim_asymm_v5,2020.2.10,Win32,60,61025ae37ef11b136ea224fe,,,,,,,,,1186,-31,-94,1,0,0,response5disk,,3,3,-2,1,0,0,rectangle,3,-2,1,0,0,3,-2,1,0,0,1,123,283,141,1,,,,,,,,
,,,,,,,,,,,,,FF,,,,,,,,4.4772,,,,,,,,,,,,,,,,,,,,,,610311ec875da584801f90eb,61036a29bc5fb54d72d13333,2021-07-29_19h56.37.112,Simcolourproject_2stim_asymm_v5,2020.2.10,Win32,60,61025ae37ef11b136ea224fe,,,,,,,,,3848,45,-88,1,0,0,response3disk,,4,-2,-6,1,0,0,rectangle,-2,-6,1,0,0,-2,-6,1,0,0,1,124,284,104,1,,,,,,,,
,,,,,,,,,,,,,FF,,,,,,,,2.0718,,,,,,,,,,,,,,,,,,,,,,610311ec875da584801f90eb,61036a29bc5fb54d72d13333,2021-07-29_19h56.37.112,Simcolourproject_2stim_asymm_v5,2020.2.10,Win32,60,61025ae37ef11b136ea224fe,,,,,,,,,3803,-75,31,1,0,0,response7disk,,1,2,-5,1,0,0,rectangle,2,-5,1,0,0,2,-5,1,0,0,1,125,285,114,1,,,,,,,,
,,,,,,,,,,,,,FF,,,,,,,,2.7725,,,,,,,,,,,,,,,,,,,,,,610311ec875da584801f90eb,61036a29bc5fb54d72d13333,2021-07-29_19h56.37.112,Simcolourproject_2stim_asymm_v5,2020.2.10,Win32,60,61025ae37ef11b136ea224fe,,,,,,,,,3010,93,37,1,0,0,response1disk,,6,9,4,1,0,0,rectangle,9,4,1,0,0,9,4,1,0,0,1,126,286,21,1,,,,,,,,
,,,,,,,,,,,,,FF,,,,,,,,1.9825,,,,,,,,,,,,,,,,,,,,,,610311ec875da584801f90eb,61036a29bc5fb54d72d13333,2021-07-29_19h56.37.112,Simcolourproject_2stim_asymm_v5,2020.2.10,Win32,60,61025ae37ef11b136ea224fe,,,,,,,,,1001,79,-27,1,0,0,response3disk,,5,15,-1,1,0,0,rectangle,15,-1,1,0,0,15,-1,1,0,0,1,127,287,131,1,,,,,,,,
,,,,,,,,,,,,,FF,,,,,,,,2.7376,,,,,,,,,,,,,,,,,,,,,,610311ec875da584801f90eb,61036a29bc5fb54d72d13333,2021-07-29_19h56.37.112,Simcolourproject_2stim_asymm_v5,2020.2.10,Win32,60,61025ae37ef11b136ea224fe,,,,,,,,,2564,-92,-47,1,0,0,response5disk,,2,-11,-5,1,0,0,rectangle,-11,-5,1,0,0,-11,-5,1,0,0,1,128,288,52,1,,,,,,,,
,,,,,,,,,,,,,FF,,,,,,,,2.0191,,,,,,,,,,,,,,,,,,,,,,610311ec875da584801f90eb,61036a29bc5fb54d72d13333,2021-07-29_19h56.37.112,Simcolourproject_2stim_asymm_v5,2020.2.10,Win32,60,61025ae37ef11b136ea224fe,,,,,,,,,71,-36,-82,1,0,0,response5disk,,3,-12,-4,1,0,0,rectangle,-12,-4,1,0,0,-12,-4,1,0,0,1,129,289,133,1,,,,,,,,
,,,,,,,,,,,,,FF,,,,,,,,1.9185,,,,,,,,,,,,,,,,,,,,,,610311ec875da584801f90eb,61036a29bc5fb54d72d13333,2021-07-29_19h56.37.112,Simcolourproject_2stim_asymm_v5,2020.2.10,Win32,60,61025ae37ef11b136ea224fe,,,,,,,,,1751,38,72,1,0,0,response1disk,,7,16,6,1,0,0,rectangle,16,6,1,0,0,16,6,1,0,0,1,130,290,13,1,,,,,,,,
,,,,,,,,,,,,,FF,,,,,,,,3.5199,,,,,,,,,,,,,,,,,,,,,,610311ec875da584801f90eb,61036a29bc5fb54d72d13333,2021-07-29_19h56.37.112,Simcolourproject_2stim_asymm_v5,2020.2.10,Win32,60,61025ae37ef11b136ea224fe,,,,,,,,,2371,39,-75,1,0,0,response3disk,,4,18,-2,1,0,0,rectangle,18,-2,1,0,0,18,-2,1,0,0,1,131,291,46,1,,,,,,,,
,,,,,,,,,,,,,FF,,,,,,,,3.8194,,,,,,,,,,,,,,,,,,,,,,610311ec875da584801f90eb,61036a29bc5fb54d72d13333,2021-07-29_19h56.37.112,Simcolourproject_2stim_asymm_v5,2020.2.10,Win32,60,61025ae37ef11b136ea224fe,,,,,,,,,855,71,-34,1,0,0,response3disk,,5,18,-4,1,0,0,rectangle,18,-4,1,0,0,18,-4,1,0,0,1,132,292,36,1,,,,,,,,
,,,,,,,,,,,,,FF,,,,,,,,1.5188,,,,,,,,,,,,,,,,,,,,,,610311ec875da584801f90eb,61036a29bc5fb54d72d13333,2021-07-29_19h56.37.112,Simcolourproject_2stim_asymm_v5,2020.2.10,Win32,60,61025ae37ef11b136ea224fe,,,,,,,,,3171,-76,34,1,0,0,response7disk,,1,-30,4,1,0,0,rectangle,-30,4,1,0,0,-30,4,1,0,0,1,133,293,54,1,,,,,,,,
,,,,,,,,,,,,,FF,,,,,,,,2.0021,,,,,,,,,,,,,,,,,,,,,,610311ec875da584801f90eb,61036a29bc5fb54d72d13333,2021-07-29_19h56.37.112,Simcolourproject_2stim_asymm_v5,2020.2.10,Win32,60,61025ae37ef11b136ea224fe,,,,,,,,,2646,-41,-85,1,0,0,response5disk,,3,-19,0,1,0,0,rectangle,-19,0,1,0,0,-19,0,1,0,0,1,134,294,84,1,,,,,,,,
,,,,,,,,,,,,,FF,,,,,,,,3.1375,,,,,,,,,,,,,,,,,,,,,,610311ec875da584801f90eb,61036a29bc5fb54d72d13333,2021-07-29_19h56.37.112,Simcolourproject_2stim_asymm_v5,2020.2.10,Win32,60,61025ae37ef11b136ea224fe,,,,,,,,,375,90,-43,1,0,0,response3disk,,5,17,1,1,0,0,rectangle,17,1,1,0,0,17,1,1,0,0,1,135,295,118,1,,,,,,,,
,,,,,,,,,,,,,FF,,,,,,,,2.6359,,,,,,,,,,,,,,,,,,,,,,610311ec875da584801f90eb,61036a29bc5fb54d72d13333,2021-07-29_19h56.37.112,Simcolourproject_2stim_asymm_v5,2020.2.10,Win32,60,61025ae37ef11b136ea224fe,,,,,,,,,3429,51,-102,1,0,0,response3disk,,4,13,-2,1,0,0,rectangle,13,-2,1,0,0,13,-2,1,0,0,1,136,296,78,1,,,,,,,,
,,,,,,,,,,,,,FF,,,,,,,,1.987,,,,,,,,,,,,,,,,,,,,,,610311ec875da584801f90eb,61036a29bc5fb54d72d13333,2021-07-29_19h56.37.112,Simcolourproject_2stim_asymm_v5,2020.2.10,Win32,60,61025ae37ef11b136ea224fe,,,,,,,,,834,-39,-77,1,0,0,response5disk,,3,-14,0,1,0,0,rectangle,-14,0,1,0,0,-14,0,1,0,0,1,137,297,58,1,,,,,,,,
,,,,,,,,,,,,,FF,,,,,,,,3.2883,,,,,,,,,,,,,,,,,,,,,,610311ec875da584801f90eb,61036a29bc5fb54d72d13333,2021-07-29_19h56.37.112,Simcolourproject_2stim_asymm_v5,2020.2.10,Win32,60,61025ae37ef11b136ea224fe,,,,,,,,,2984,48,76,1,0,0,response1disk,,7,21,3,1,0,0,rectangle,21,3,1,0,0,21,3,1,0,0,1,138,298,11,1,,,,,,,,
,,,,,,,,,,,,,FF,,,,,,,,3.2696,,,,,,,,,,,,,,,,,,,,,,610311ec875da584801f90eb,61036a29bc5fb54d72d13333,2021-07-29_19h56.37.112,Simcolourproject_2stim_asymm_v5,2020.2.10,Win32,60,61025ae37ef11b136ea224fe,,,,,,,,,4318,-63,37,1,0,0,response7disk,,1,-13,5,1,0,0,rectangle,-46,-79,1,0,0,-10,-7,1,0,0,1,139,299,1,1,,response5disk_3,TRUE,3,3,"[41,263,186,227,120,300,230,155,24,100,35,42,234,264,205,12,303,188,244,42]",3.9367,rectangle
,,,,,,,,,,,,,FF,,,,,,,,5.8381,,,,,,,,,,,,,,,,,,,,,,610311ec875da584801f90eb,61036a29bc5fb54d72d13333,2021-07-29_19h56.37.112,Simcolourproject_2stim_asymm_v5,2020.2.10,Win32,60,61025ae37ef11b136ea224fe,,,,,,,,,2683,51,-83,1,0,0,response3disk,,4,1,-3,1,0,0,rectangle,1,-3,1,0,0,1,-3,1,0,0,1,140,300,59,1,,,,,,,,
,,,,,,,,,,,,,FF,,,,,,,,1.5167,,,,,,,,,,,,,,,,,,,,,,610311ec875da584801f90eb,61036a29bc5fb54d72d13333,2021-07-29_19h56.37.112,Simcolourproject_2stim_asymm_v5,2020.2.10,Win32,60,61025ae37ef11b136ea224fe,,,,,,,,,3795,-57,-29,1,0,0,response5disk,,2,-5,3,1,0,0,rectangle,-5,3,1,0,0,-5,3,1,0,0,1,141,301,61,1,,,,,,,,
