key_resp.keys,key_resp.rt,key_resp_14.keys,key_resp_14.rt,key_resp_15.keys,key_resp_15.rt,key_resp_17.keys,key_resp_17.rt,key_resp_9.keys,key_resp_9.rt,key_resp_10.keys,key_resp_10.rt,practice_comparison,Ecc,mouse_5.x,mouse_5.y,mouse_5.leftButton,mouse_5.midButton,mouse_5.rightButton,mouse_5.clicked_name,pracsimilarity,response_time,mouse_10.x,mouse_10.y,mouse_10.leftButton,mouse_10.midButton,mouse_10.rightButton,mouse_10.clicked_name,mouse_7.x,mouse_7.y,mouse_7.leftButton,mouse_7.midButton,mouse_7.rightButton,mouse_6.x,mouse_6.y,mouse_6.leftButton,mouse_6.midButton,mouse_6.rightButton,duringprac.thisRepN,duringprac.thisTrialN,duringprac.thisN,duringprac.thisIndex,duringprac.ran,participant,session,date,expName,psychopyVersion,OS,frameRate,study_id,mouse_7.clicked_name,catchpracsimilarity,catch_response_time,catchnumberprac,catchtrialorderprac,mouse_6.clicked_name,key_resp_22.keys,key_resp_22.rt,realcomparison,mouse.x,mouse.y,mouse.leftButton,mouse.midButton,mouse.rightButton,mouse.clicked_name,Colour2,similarity,mouse_2.x,mouse_2.y,mouse_2.leftButton,mouse_2.midButton,mouse_2.rightButton,mouse_2.clicked_name,mouse_3.x,mouse_3.y,mouse_3.leftButton,mouse_3.midButton,mouse_3.rightButton,mouse_3.clicked_name,catchornah,catchsimilarity,catchnumber,catchtrialorder,catchRT,mouse_11.x,mouse_11.y,mouse_11.leftButton,mouse_11.midButton,mouse_11.rightButton,mouse_11.clicked_name,trials_2.thisRepN,trials_2.thisTrialN,trials_2.thisN,trials_2.thisIndex,trials_2.ran,Colour1
space,1.488,space,2.422,space,14.253,space,4.961,space,0.612,space,3.466,159,FF,33,99,1,0,0,response1disk_5,7,6.267,8,3,1,0,0,rectangle_8,8,3,1,0,0,8,3,1,0,0,0,0,0,5,1,61035f2f2b70d404ca70fb15,61036a873946c5585509aede,2021-07-29_22h58.33.242,Simcolourproject_2stim_asymm_v5,2020.2.10,MacIntel,60,61025ae37ef11b136ea224fe,,,,,,,,,,,,,,,,,,,,,,,,,,,,,,,,,,,,,,,,,,,,,,
,,,,,,,,,,,,126,PF,76,-63,1,0,0,response3disk_5,5,5.184,14,-6,1,0,0,rectangle_8,-77,-53,1,0,0,0,-3,1,0,0,0,1,1,2,1,61035f2f2b70d404ca70fb15,61036a873946c5585509aede,2021-07-29_22h58.33.242,Simcolourproject_2stim_asymm_v5,2020.2.10,MacIntel,60,61025ae37ef11b136ea224fe,response5disk_7,2,3.964,2,"[2,5]",rectangle_4,,,,,,,,,,,,,,,,,,,,,,,,,,,,,,,,,,,,,,,,
,,,,,,,,,,,,3,PF,47,75,1,0,0,response1disk_5,7,3.379,13,7,1,0,0,rectangle_8,13,7,1,0,0,13,7,1,0,0,0,2,2,6,1,61035f2f2b70d404ca70fb15,61036a873946c5585509aede,2021-07-29_22h58.33.242,Simcolourproject_2stim_asymm_v5,2020.2.10,MacIntel,60,61025ae37ef11b136ea224fe,,,,,,,,,,,,,,,,,,,,,,,,,,,,,,,,,,,,,,,,,,,,,,
,,,,,,,,,,,,160,FF,-41,-99,1,0,0,response5disk_5,3,3.627,-2,-5,1,0,0,rectangle_8,-2,-5,1,0,0,-2,-5,1,0,0,0,3,3,3,1,61035f2f2b70d404ca70fb15,61036a873946c5585509aede,2021-07-29_22h58.33.242,Simcolourproject_2stim_asymm_v5,2020.2.10,MacIntel,60,61025ae37ef11b136ea224fe,,,,,,,,,,,,,,,,,,,,,,,,,,,,,,,,,,,,,,,,,,,,,,
,,,,,,,,,,,,72,PF,93,34,1,0,0,response1disk_5,6,4.997,-5,3,1,0,0,rectangle_8,-87,-44,1,0,0,6,-5,1,0,0,0,4,4,1,1,61035f2f2b70d404ca70fb15,61036a873946c5585509aede,2021-07-29_22h58.33.242,Simcolourproject_2stim_asymm_v5,2020.2.10,MacIntel,60,61025ae37ef11b136ea224fe,response5disk_7,2,2.041,2,"[2,5]",rectangle_4,,,,,,,,,,,,,,,,,,,,,,,,,,,,,,,,,,,,,,,,
,,,,,,,,,,,,93,PF,58,81,1,0,0,response1disk_5,7,4.01,7,6,1,0,0,rectangle_8,7,6,1,0,0,7,6,1,0,0,0,5,5,4,1,61035f2f2b70d404ca70fb15,61036a873946c5585509aede,2021-07-29_22h58.33.242,Simcolourproject_2stim_asymm_v5,2020.2.10,MacIntel,60,61025ae37ef11b136ea224fe,,,,,,,,,,,,,,,,,,,,,,,,,,,,,,,,,,,,,,,,,,,,,,
,,,,,,,,,,,,11,FF,46,-55,1,0,0,response3disk_5,4,4.699,-2,-1,1,0,0,rectangle_8,-2,-1,1,0,0,-2,-1,1,0,0,0,6,6,0,1,61035f2f2b70d404ca70fb15,61036a873946c5585509aede,2021-07-29_22h58.33.242,Simcolourproject_2stim_asymm_v5,2020.2.10,MacIntel,60,61025ae37ef11b136ea224fe,,,,,,,,,,,,,,,,,,,,,,,,,,,,,,,,,,,,,,,,,,,,,,
,,,,,,,,,,,,,FF,,,,,,,,3.061,,,,,,,,,,,,,,,,,,,,,,61035f2f2b70d404ca70fb15,61036a873946c5585509aede,2021-07-29_22h58.33.242,Simcolourproject_2stim_asymm_v5,2020.2.10,MacIntel,60,61025ae37ef11b136ea224fe,,,,,,,space,2.388,1119,50,-84,1,0,0,response3disk,,4,-4,7,1,0,0,rectangle,-66,-39,1,0,0,response5disk_3,TRUE,2,2,"[7,11,1,157,196,64,252,22,194,275,139,108,108,280,77,116,245,193,138,241]",2.044,0,-4,1,0,0,rectangle,0,0,0,70,1,
,,,,,,,,,,,,,FF,,,,,,,,2.834,,,,,,,,,,,,,,,,,,,,,,61035f2f2b70d404ca70fb15,61036a873946c5585509aede,2021-07-29_22h58.33.242,Simcolourproject_2stim_asymm_v5,2020.2.10,MacIntel,60,61025ae37ef11b136ea224fe,,,,,,,,,3314,51,58,1,0,0,response1disk,,7,-4,5,1,0,0,rectangle,-4,5,1,0,0,,,,,,,-4,5,1,0,0,,0,1,1,114,1,
,,,,,,,,,,,,,FF,,,,,,,,1.971,,,,,,,,,,,,,,,,,,,,,,61035f2f2b70d404ca70fb15,61036a873946c5585509aede,2021-07-29_22h58.33.242,Simcolourproject_2stim_asymm_v5,2020.2.10,MacIntel,60,61025ae37ef11b136ea224fe,,,,,,,,,3893,-43,-75,1,0,0,response5disk,,3,0,-1,1,0,0,rectangle,0,-1,1,0,0,,,,,,,0,-1,1,0,0,,0,2,2,80,1,
,,,,,,,,,,,,,FF,,,,,,,,1.153,,,,,,,,,,,,,,,,,,,,,,61035f2f2b70d404ca70fb15,61036a873946c5585509aede,2021-07-29_22h58.33.242,Simcolourproject_2stim_asymm_v5,2020.2.10,MacIntel,60,61025ae37ef11b136ea224fe,,,,,,,,,3119,55,96,1,0,0,response1disk,,7,-9,9,1,0,0,rectangle,-9,9,1,0,0,,,,,,,-9,9,1,0,0,,0,3,3,27,1,
,,,,,,,,,,,,,FF,,,,,,,,1.152,,,,,,,,,,,,,,,,,,,,,,61035f2f2b70d404ca70fb15,61036a873946c5585509aede,2021-07-29_22h58.33.242,Simcolourproject_2stim_asymm_v5,2020.2.10,MacIntel,60,61025ae37ef11b136ea224fe,,,,,,,,,4243,47,105,1,0,0,response1disk,,7,-6,4,1,0,0,rectangle,-6,4,1,0,0,,,,,,,-6,4,1,0,0,,0,4,4,36,1,
,,,,,,,,,,,,,FF,,,,,,,,4.432,,,,,,,,,,,,,,,,,,,,,,61035f2f2b70d404ca70fb15,61036a873946c5585509aede,2021-07-29_22h58.33.242,Simcolourproject_2stim_asymm_v5,2020.2.10,MacIntel,60,61025ae37ef11b136ea224fe,,,,,,,,,3150,-87,-44,1,0,0,response5disk,,2,10,5,1,0,0,rectangle,10,5,1,0,0,,,,,,,10,5,1,0,0,,0,5,5,150,1,
,,,,,,,,,,,,,FF,,,,,,,,1.036,,,,,,,,,,,,,,,,,,,,,,61035f2f2b70d404ca70fb15,61036a873946c5585509aede,2021-07-29_22h58.33.242,Simcolourproject_2stim_asymm_v5,2020.2.10,MacIntel,60,61025ae37ef11b136ea224fe,,,,,,,,,972,-40,-70,1,0,0,response5disk,,3,-10,-10,1,0,0,rectangle,-46,78,1,0,0,response7disk_3,TRUE,0,0,"[7,11,1,157,196,64,252,22,194,275,139,108,108,280,77,116,245,193,138,241]",3.071,0,7,1,0,0,rectangle,0,6,6,69,1,
,,,,,,,,,,,,,FF,,,,,,,,2.542,,,,,,,,,,,,,,,,,,,,,,61035f2f2b70d404ca70fb15,61036a873946c5585509aede,2021-07-29_22h58.33.242,Simcolourproject_2stim_asymm_v5,2020.2.10,MacIntel,60,61025ae37ef11b136ea224fe,,,,,,,,,4158,57,-80,1,0,0,response3disk,,4,13,-2,1,0,0,rectangle,13,-2,1,0,0,,,,,,,13,-2,1,0,0,,0,7,7,32,1,
,,,,,,,,,,,,,FF,,,,,,,,2.368,,,,,,,,,,,,,,,,,,,,,,61035f2f2b70d404ca70fb15,61036a873946c5585509aede,2021-07-29_22h58.33.242,Simcolourproject_2stim_asymm_v5,2020.2.10,MacIntel,60,61025ae37ef11b136ea224fe,,,,,,,,,2370,39,-81,1,0,0,response3disk,,4,5,3,1,0,0,rectangle,5,3,1,0,0,,,,,,,5,3,1,0,0,,0,8,8,87,1,
,,,,,,,,,,,,,FF,,,,,,,,1.283,,,,,,,,,,,,,,,,,,,,,,61035f2f2b70d404ca70fb15,61036a873946c5585509aede,2021-07-29_22h58.33.242,Simcolourproject_2stim_asymm_v5,2020.2.10,MacIntel,60,61025ae37ef11b136ea224fe,,,,,,,,,811,-29,-78,1,0,0,response5disk,,3,-5,0,1,0,0,rectangle,-5,0,1,0,0,,,,,,,-5,0,1,0,0,,0,9,9,19,1,
,,,,,,,,,,,,,FF,,,,,,,,1.2,,,,,,,,,,,,,,,,,,,,,,61035f2f2b70d404ca70fb15,61036a873946c5585509aede,2021-07-29_22h58.33.242,Simcolourproject_2stim_asymm_v5,2020.2.10,MacIntel,60,61025ae37ef11b136ea224fe,,,,,,,,,1862,53,88,1,0,0,response1disk,,7,7,2,1,0,0,rectangle,-52,-92,1,0,0,response5disk_3,TRUE,3,3,"[7,11,1,157,196,64,252,22,194,275,139,108,108,280,77,116,245,193,138,241]",2.25,-19,-4,1,0,0,rectangle,0,10,10,97,1,
,,,,,,,,,,,,,FF,,,,,,,,2.42,,,,,,,,,,,,,,,,,,,,,,61035f2f2b70d404ca70fb15,61036a873946c5585509aede,2021-07-29_22h58.33.242,Simcolourproject_2stim_asymm_v5,2020.2.10,MacIntel,60,61025ae37ef11b136ea224fe,,,,,,,,,3490,64,-93,1,0,0,response3disk,,4,6,13,1,0,0,rectangle,6,13,1,0,0,,,,,,,6,13,1,0,0,,0,11,11,127,1,
,,,,,,,,,,,,,FF,,,,,,,,1.519,,,,,,,,,,,,,,,,,,,,,,61035f2f2b70d404ca70fb15,61036a873946c5585509aede,2021-07-29_22h58.33.242,Simcolourproject_2stim_asymm_v5,2020.2.10,MacIntel,60,61025ae37ef11b136ea224fe,,,,,,,,,1356,113,45,1,0,0,response1disk,,6,11,0,1,0,0,rectangle,11,0,1,0,0,,,,,,,11,0,1,0,0,,0,12,12,74,1,
,,,,,,,,,,,,,FF,,,,,,,,1.191,,,,,,,,,,,,,,,,,,,,,,61035f2f2b70d404ca70fb15,61036a873946c5585509aede,2021-07-29_22h58.33.242,Simcolourproject_2stim_asymm_v5,2020.2.10,MacIntel,60,61025ae37ef11b136ea224fe,,,,,,,,,764,52,82,1,0,0,response1disk,,7,-12,-10,1,0,0,rectangle,-12,-10,1,0,0,,,,,,,-12,-10,1,0,0,,0,13,13,64,1,
,,,,,,,,,,,,,FF,,,,,,,,1.83,,,,,,,,,,,,,,,,,,,,,,61035f2f2b70d404ca70fb15,61036a873946c5585509aede,2021-07-29_22h58.33.242,Simcolourproject_2stim_asymm_v5,2020.2.10,MacIntel,60,61025ae37ef11b136ea224fe,,,,,,,,,149,79,-26,1,0,0,response3disk,,5,22,-2,1,0,0,rectangle,22,-2,1,0,0,,,,,,,22,-2,1,0,0,,0,14,14,34,1,
,,,,,,,,,,,,,FF,,,,,,,,1.756,,,,,,,,,,,,,,,,,,,,,,61035f2f2b70d404ca70fb15,61036a873946c5585509aede,2021-07-29_22h58.33.242,Simcolourproject_2stim_asymm_v5,2020.2.10,MacIntel,60,61025ae37ef11b136ea224fe,,,,,,,,,1530,-43,-76,1,0,0,response5disk,,3,-11,-4,1,0,0,rectangle,-11,-4,1,0,0,,,,,,,-11,-4,1,0,0,,0,15,15,111,1,
,,,,,,,,,,,,,FF,,,,,,,,0.95,,,,,,,,,,,,,,,,,,,,,,61035f2f2b70d404ca70fb15,61036a873946c5585509aede,2021-07-29_22h58.33.242,Simcolourproject_2stim_asymm_v5,2020.2.10,MacIntel,60,61025ae37ef11b136ea224fe,,,,,,,,,3352,47,77,1,0,0,response1disk,,7,4,0,1,0,0,rectangle,4,0,1,0,0,,,,,,,4,0,1,0,0,,0,16,16,121,1,
,,,,,,,,,,,,,FF,,,,,,,,1.258,,,,,,,,,,,,,,,,,,,,,,61035f2f2b70d404ca70fb15,61036a873946c5585509aede,2021-07-29_22h58.33.242,Simcolourproject_2stim_asymm_v5,2020.2.10,MacIntel,60,61025ae37ef11b136ea224fe,,,,,,,,,4094,59,89,1,0,0,response1disk,,7,7,2,1,0,0,rectangle,7,2,1,0,0,,,,,,,7,2,1,0,0,,0,17,17,120,1,
,,,,,,,,,,,,,FF,,,,,,,,0.746,,,,,,,,,,,,,,,,,,,,,,61035f2f2b70d404ca70fb15,61036a873946c5585509aede,2021-07-29_22h58.33.242,Simcolourproject_2stim_asymm_v5,2020.2.10,MacIntel,60,61025ae37ef11b136ea224fe,,,,,,,,,1006,37,91,1,0,0,response1disk,,7,5,7,1,0,0,rectangle,5,7,1,0,0,,,,,,,5,7,1,0,0,,0,18,18,43,1,
,,,,,,,,,,,,,FF,,,,,,,,3.305,,,,,,,,,,,,,,,,,,,,,,61035f2f2b70d404ca70fb15,61036a873946c5585509aede,2021-07-29_22h58.33.242,Simcolourproject_2stim_asymm_v5,2020.2.10,MacIntel,60,61025ae37ef11b136ea224fe,,,,,,,,,1296,-87,-44,1,0,0,response5disk,,2,0,8,1,0,0,rectangle,0,8,1,0,0,,,,,,,0,8,1,0,0,,0,19,19,13,1,
,,,,,,,,,,,,,FF,,,,,,,,2.116,,,,,,,,,,,,,,,,,,,,,,61035f2f2b70d404ca70fb15,61036a873946c5585509aede,2021-07-29_22h58.33.242,Simcolourproject_2stim_asymm_v5,2020.2.10,MacIntel,60,61025ae37ef11b136ea224fe,,,,,,,,,2351,39,-79,1,0,0,response3disk,,4,15,-3,1,0,0,rectangle,15,-3,1,0,0,,,,,,,15,-3,1,0,0,,0,20,20,17,1,
,,,,,,,,,,,,,FF,,,,,,,,1.76,,,,,,,,,,,,,,,,,,,,,,61035f2f2b70d404ca70fb15,61036a873946c5585509aede,2021-07-29_22h58.33.242,Simcolourproject_2stim_asymm_v5,2020.2.10,MacIntel,60,61025ae37ef11b136ea224fe,,,,,,,,,1891,-51,-70,1,0,0,response5disk,,3,-1,7,1,0,0,rectangle,-33,90,1,0,0,response7disk_3,TRUE,0,0,"[7,11,1,157,196,64,252,22,194,275,139,108,108,280,77,116,245,193,138,241]",1.673,-11,17,1,0,0,rectangle,0,21,21,141,1,
,,,,,,,,,,,,,FF,,,,,,,,1.474,,,,,,,,,,,,,,,,,,,,,,61035f2f2b70d404ca70fb15,61036a873946c5585509aede,2021-07-29_22h58.33.242,Simcolourproject_2stim_asymm_v5,2020.2.10,MacIntel,60,61025ae37ef11b136ea224fe,,,,,,,,,3156,-85,-40,1,0,0,response5disk,,2,14,1,1,0,0,rectangle,14,1,1,0,0,,,,,,,14,1,1,0,0,,0,22,22,130,1,
,,,,,,,,,,,,,FF,,,,,,,,1.358,,,,,,,,,,,,,,,,,,,,,,61035f2f2b70d404ca70fb15,61036a873946c5585509aede,2021-07-29_22h58.33.242,Simcolourproject_2stim_asymm_v5,2020.2.10,MacIntel,60,61025ae37ef11b136ea224fe,,,,,,,,,898,86,33,1,0,0,response1disk,,6,14,3,1,0,0,rectangle,14,3,1,0,0,,,,,,,14,3,1,0,0,,0,23,23,102,1,
,,,,,,,,,,,,,FF,,,,,,,,1.667,,,,,,,,,,,,,,,,,,,,,,61035f2f2b70d404ca70fb15,61036a873946c5585509aede,2021-07-29_22h58.33.242,Simcolourproject_2stim_asymm_v5,2020.2.10,MacIntel,60,61025ae37ef11b136ea224fe,,,,,,,,,4221,53,-75,1,0,0,response3disk,,4,-3,1,1,0,0,rectangle,-3,1,1,0,0,,,,,,,-3,1,1,0,0,,0,24,24,125,1,
,,,,,,,,,,,,,FF,,,,,,,,0.783,,,,,,,,,,,,,,,,,,,,,,61035f2f2b70d404ca70fb15,61036a873946c5585509aede,2021-07-29_22h58.33.242,Simcolourproject_2stim_asymm_v5,2020.2.10,MacIntel,60,61025ae37ef11b136ea224fe,,,,,,,,,3227,44,71,1,0,0,response1disk,,7,10,-4,1,0,0,rectangle,10,-4,1,0,0,,,,,,,10,-4,1,0,0,,0,25,25,149,1,
,,,,,,,,,,,,,FF,,,,,,,,0.764,,,,,,,,,,,,,,,,,,,,,,61035f2f2b70d404ca70fb15,61036a873946c5585509aede,2021-07-29_22h58.33.242,Simcolourproject_2stim_asymm_v5,2020.2.10,MacIntel,60,61025ae37ef11b136ea224fe,,,,,,,,,2326,52,108,1,0,0,response1disk,,7,1,-2,1,0,0,rectangle,1,-2,1,0,0,,,,,,,1,-2,1,0,0,,0,26,26,153,1,
,,,,,,,,,,,,,FF,,,,,,,,1.354,,,,,,,,,,,,,,,,,,,,,,61035f2f2b70d404ca70fb15,61036a873946c5585509aede,2021-07-29_22h58.33.242,Simcolourproject_2stim_asymm_v5,2020.2.10,MacIntel,60,61025ae37ef11b136ea224fe,,,,,,,,,2918,82,-26,1,0,0,response3disk,,5,16,-8,1,0,0,rectangle,16,-8,1,0,0,,,,,,,16,-8,1,0,0,,0,27,27,49,1,
,,,,,,,,,,,,,FF,,,,,,,,1.257,,,,,,,,,,,,,,,,,,,,,,61035f2f2b70d404ca70fb15,61036a873946c5585509aede,2021-07-29_22h58.33.242,Simcolourproject_2stim_asymm_v5,2020.2.10,MacIntel,60,61025ae37ef11b136ea224fe,,,,,,,,,2754,76,57,1,0,0,response1disk,,6,16,4,1,0,0,rectangle,16,4,1,0,0,,,,,,,16,4,1,0,0,,0,28,28,33,1,
,,,,,,,,,,,,,FF,,,,,,,,0.848,,,,,,,,,,,,,,,,,,,,,,61035f2f2b70d404ca70fb15,61036a873946c5585509aede,2021-07-29_22h58.33.242,Simcolourproject_2stim_asymm_v5,2020.2.10,MacIntel,60,61025ae37ef11b136ea224fe,,,,,,,,,159,80,51,1,0,0,response1disk,,6,7,4,1,0,0,rectangle,7,4,1,0,0,,,,,,,7,4,1,0,0,,0,29,29,56,1,
,,,,,,,,,,,,,FF,,,,,,,,0.81,,,,,,,,,,,,,,,,,,,,,,61035f2f2b70d404ca70fb15,61036a873946c5585509aede,2021-07-29_22h58.33.242,Simcolourproject_2stim_asymm_v5,2020.2.10,MacIntel,60,61025ae37ef11b136ea224fe,,,,,,,,,2704,45,90,1,0,0,response1disk,,7,7,5,1,0,0,rectangle,7,5,1,0,0,,,,,,,7,5,1,0,0,,0,30,30,50,1,
,,,,,,,,,,,,,FF,,,,,,,,1.186,,,,,,,,,,,,,,,,,,,,,,61035f2f2b70d404ca70fb15,61036a873946c5585509aede,2021-07-29_22h58.33.242,Simcolourproject_2stim_asymm_v5,2020.2.10,MacIntel,60,61025ae37ef11b136ea224fe,,,,,,,,,1192,60,-73,1,0,0,response3disk,,4,24,-8,1,0,0,rectangle,24,-8,1,0,0,,,,,,,24,-8,1,0,0,,0,31,31,23,1,
,,,,,,,,,,,,,FF,,,,,,,,1.06,,,,,,,,,,,,,,,,,,,,,,61035f2f2b70d404ca70fb15,61036a873946c5585509aede,2021-07-29_22h58.33.242,Simcolourproject_2stim_asymm_v5,2020.2.10,MacIntel,60,61025ae37ef11b136ea224fe,,,,,,,,,3935,95,51,1,0,0,response1disk,,6,20,14,1,0,0,rectangle,20,14,1,0,0,,,,,,,20,14,1,0,0,,0,32,32,76,1,
,,,,,,,,,,,,,FF,,,,,,,,0.816,,,,,,,,,,,,,,,,,,,,,,61035f2f2b70d404ca70fb15,61036a873946c5585509aede,2021-07-29_22h58.33.242,Simcolourproject_2stim_asymm_v5,2020.2.10,MacIntel,60,61025ae37ef11b136ea224fe,,,,,,,,,1555,26,89,1,0,0,response1disk,,7,-1,1,1,0,0,rectangle,-1,1,1,0,0,,,,,,,-1,1,1,0,0,,0,33,33,60,1,
,,,,,,,,,,,,,FF,,,,,,,,1.359,,,,,,,,,,,,,,,,,,,,,,61035f2f2b70d404ca70fb15,61036a873946c5585509aede,2021-07-29_22h58.33.242,Simcolourproject_2stim_asymm_v5,2020.2.10,MacIntel,60,61025ae37ef11b136ea224fe,,,,,,,,,3136,53,104,1,0,0,response1disk,,7,1,4,1,0,0,rectangle,1,4,1,0,0,,,,,,,1,4,1,0,0,,0,34,34,41,1,
,,,,,,,,,,,,,FF,,,,,,,,1.181,,,,,,,,,,,,,,,,,,,,,,61035f2f2b70d404ca70fb15,61036a873946c5585509aede,2021-07-29_22h58.33.242,Simcolourproject_2stim_asymm_v5,2020.2.10,MacIntel,60,61025ae37ef11b136ea224fe,,,,,,,,,3532,43,76,1,0,0,response1disk,,7,-2,-7,1,0,0,rectangle,-2,-7,1,0,0,,,,,,,-2,-7,1,0,0,,0,35,35,81,1,
,,,,,,,,,,,,,FF,,,,,,,,0.99,,,,,,,,,,,,,,,,,,,,,,61035f2f2b70d404ca70fb15,61036a873946c5585509aede,2021-07-29_22h58.33.242,Simcolourproject_2stim_asymm_v5,2020.2.10,MacIntel,60,61025ae37ef11b136ea224fe,,,,,,,,,957,77,42,1,0,0,response1disk,,6,4,-12,1,0,0,rectangle,4,-12,1,0,0,,,,,,,4,-12,1,0,0,,0,36,36,140,1,
,,,,,,,,,,,,,FF,,,,,,,,0.663,,,,,,,,,,,,,,,,,,,,,,61035f2f2b70d404ca70fb15,61036a873946c5585509aede,2021-07-29_22h58.33.242,Simcolourproject_2stim_asymm_v5,2020.2.10,MacIntel,60,61025ae37ef11b136ea224fe,,,,,,,,,2453,33,77,1,0,0,response1disk,,7,-1,4,1,0,0,rectangle,-1,4,1,0,0,,,,,,,-1,4,1,0,0,,0,37,37,82,1,
,,,,,,,,,,,,,FF,,,,,,,,1.183,,,,,,,,,,,,,,,,,,,,,,61035f2f2b70d404ca70fb15,61036a873946c5585509aede,2021-07-29_22h58.33.242,Simcolourproject_2stim_asymm_v5,2020.2.10,MacIntel,60,61025ae37ef11b136ea224fe,,,,,,,,,3019,47,-73,1,0,0,response3disk,,4,5,-14,1,0,0,rectangle,5,-14,1,0,0,,,,,,,5,-14,1,0,0,,0,38,38,118,1,
,,,,,,,,,,,,,FF,,,,,,,,1.754,,,,,,,,,,,,,,,,,,,,,,61035f2f2b70d404ca70fb15,61036a873946c5585509aede,2021-07-29_22h58.33.242,Simcolourproject_2stim_asymm_v5,2020.2.10,MacIntel,60,61025ae37ef11b136ea224fe,,,,,,,,,4071,-52,93,1,0,0,response7disk,,0,9,5,1,0,0,rectangle,9,5,1,0,0,,,,,,,9,5,1,0,0,,0,39,39,113,1,
,,,,,,,,,,,,,FF,,,,,,,,1.892,,,,,,,,,,,,,,,,,,,,,,61035f2f2b70d404ca70fb15,61036a873946c5585509aede,2021-07-29_22h58.33.242,Simcolourproject_2stim_asymm_v5,2020.2.10,MacIntel,60,61025ae37ef11b136ea224fe,,,,,,,,,617,-83,-19,1,0,0,response5disk,,2,7,-17,1,0,0,rectangle,7,-17,1,0,0,,,,,,,7,-17,1,0,0,,0,40,40,117,1,
,,,,,,,,,,,,,FF,,,,,,,,1.563,,,,,,,,,,,,,,,,,,,,,,61035f2f2b70d404ca70fb15,61036a873946c5585509aede,2021-07-29_22h58.33.242,Simcolourproject_2stim_asymm_v5,2020.2.10,MacIntel,60,61025ae37ef11b136ea224fe,,,,,,,,,511,46,-67,1,0,0,response3disk,,4,26,-11,1,0,0,rectangle,26,-11,1,0,0,,,,,,,26,-11,1,0,0,,0,41,41,154,1,
,,,,,,,,,,,,,FF,,,,,,,,0.917,,,,,,,,,,,,,,,,,,,,,,61035f2f2b70d404ca70fb15,61036a873946c5585509aede,2021-07-29_22h58.33.242,Simcolourproject_2stim_asymm_v5,2020.2.10,MacIntel,60,61025ae37ef11b136ea224fe,,,,,,,,,4329,57,-48,1,0,0,response3disk,,5,15,-6,1,0,0,rectangle,15,-6,1,0,0,,,,,,,15,-6,1,0,0,,0,42,42,8,1,
,,,,,,,,,,,,,FF,,,,,,,,1.368,,,,,,,,,,,,,,,,,,,,,,61035f2f2b70d404ca70fb15,61036a873946c5585509aede,2021-07-29_22h58.33.242,Simcolourproject_2stim_asymm_v5,2020.2.10,MacIntel,60,61025ae37ef11b136ea224fe,,,,,,,,,4149,34,-51,1,0,0,response3disk,,4,23,-6,1,0,0,rectangle,23,-6,1,0,0,,,,,,,23,-6,1,0,0,,0,43,43,138,1,
,,,,,,,,,,,,,FF,,,,,,,,0.867,,,,,,,,,,,,,,,,,,,,,,61035f2f2b70d404ca70fb15,61036a873946c5585509aede,2021-07-29_22h58.33.242,Simcolourproject_2stim_asymm_v5,2020.2.10,MacIntel,60,61025ae37ef11b136ea224fe,,,,,,,,,275,32,117,1,0,0,response1disk,,7,1,-5,1,0,0,rectangle,1,-5,1,0,0,,,,,,,1,-5,1,0,0,,0,44,44,95,1,
,,,,,,,,,,,,,FF,,,,,,,,1.114,,,,,,,,,,,,,,,,,,,,,,61035f2f2b70d404ca70fb15,61036a873946c5585509aede,2021-07-29_22h58.33.242,Simcolourproject_2stim_asymm_v5,2020.2.10,MacIntel,60,61025ae37ef11b136ea224fe,,,,,,,,,1653,46,73,1,0,0,response1disk,,7,14,15,1,0,0,rectangle,14,15,1,0,0,,,,,,,14,15,1,0,0,,0,45,45,77,1,
,,,,,,,,,,,,,FF,,,,,,,,0.964,,,,,,,,,,,,,,,,,,,,,,61035f2f2b70d404ca70fb15,61036a873946c5585509aede,2021-07-29_22h58.33.242,Simcolourproject_2stim_asymm_v5,2020.2.10,MacIntel,60,61025ae37ef11b136ea224fe,,,,,,,,,626,108,35,1,0,0,response1disk,,6,16,-7,1,0,0,rectangle,16,-7,1,0,0,,,,,,,16,-7,1,0,0,,0,46,46,147,1,
,,,,,,,,,,,,,FF,,,,,,,,2.191,,,,,,,,,,,,,,,,,,,,,,61035f2f2b70d404ca70fb15,61036a873946c5585509aede,2021-07-29_22h58.33.242,Simcolourproject_2stim_asymm_v5,2020.2.10,MacIntel,60,61025ae37ef11b136ea224fe,,,,,,,,,2472,33,70,1,0,0,response1disk,,7,-6,7,1,0,0,rectangle,-6,7,1,0,0,,,,,,,-6,7,1,0,0,,0,47,47,31,1,
,,,,,,,,,,,,,FF,,,,,,,,1.006,,,,,,,,,,,,,,,,,,,,,,61035f2f2b70d404ca70fb15,61036a873946c5585509aede,2021-07-29_22h58.33.242,Simcolourproject_2stim_asymm_v5,2020.2.10,MacIntel,60,61025ae37ef11b136ea224fe,,,,,,,,,3195,-59,105,1,0,0,response7disk,,0,-8,-4,1,0,0,rectangle,-8,-4,1,0,0,,,,,,,-8,-4,1,0,0,,0,48,48,63,1,
,,,,,,,,,,,,,FF,,,,,,,,0.771,,,,,,,,,,,,,,,,,,,,,,61035f2f2b70d404ca70fb15,61036a873946c5585509aede,2021-07-29_22h58.33.242,Simcolourproject_2stim_asymm_v5,2020.2.10,MacIntel,60,61025ae37ef11b136ea224fe,,,,,,,,,1057,64,44,1,0,0,response1disk,,6,-12,-8,1,0,0,rectangle,-12,-8,1,0,0,,,,,,,-12,-8,1,0,0,,0,49,49,68,1,
,,,,,,,,,,,,,FF,,,,,,,,0.675,,,,,,,,,,,,,,,,,,,,,,61035f2f2b70d404ca70fb15,61036a873946c5585509aede,2021-07-29_22h58.33.242,Simcolourproject_2stim_asymm_v5,2020.2.10,MacIntel,60,61025ae37ef11b136ea224fe,,,,,,,,,459,72,44,1,0,0,response1disk,,6,12,-3,1,0,0,rectangle,12,-3,1,0,0,,,,,,,12,-3,1,0,0,,0,50,50,7,1,
,,,,,,,,,,,,,FF,,,,,,,,0.895,,,,,,,,,,,,,,,,,,,,,,61035f2f2b70d404ca70fb15,61036a873946c5585509aede,2021-07-29_22h58.33.242,Simcolourproject_2stim_asymm_v5,2020.2.10,MacIntel,60,61025ae37ef11b136ea224fe,,,,,,,,,4302,31,92,1,0,0,response1disk,,7,1,3,1,0,0,rectangle,1,3,1,0,0,,,,,,,1,3,1,0,0,,0,51,51,109,1,
,,,,,,,,,,,,,FF,,,,,,,,0.907,,,,,,,,,,,,,,,,,,,,,,61035f2f2b70d404ca70fb15,61036a873946c5585509aede,2021-07-29_22h58.33.242,Simcolourproject_2stim_asymm_v5,2020.2.10,MacIntel,60,61025ae37ef11b136ea224fe,,,,,,,,,969,-81,49,1,0,0,response7disk,,1,14,4,1,0,0,rectangle,14,4,1,0,0,,,,,,,14,4,1,0,0,,0,52,52,5,1,
,,,,,,,,,,,,,FF,,,,,,,,0.655,,,,,,,,,,,,,,,,,,,,,,61035f2f2b70d404ca70fb15,61036a873946c5585509aede,2021-07-29_22h58.33.242,Simcolourproject_2stim_asymm_v5,2020.2.10,MacIntel,60,61025ae37ef11b136ea224fe,,,,,,,,,2454,58,100,1,0,0,response1disk,,7,4,9,1,0,0,rectangle,4,9,1,0,0,,,,,,,4,9,1,0,0,,0,53,53,48,1,
,,,,,,,,,,,,,FF,,,,,,,,0.72,,,,,,,,,,,,,,,,,,,,,,61035f2f2b70d404ca70fb15,61036a873946c5585509aede,2021-07-29_22h58.33.242,Simcolourproject_2stim_asymm_v5,2020.2.10,MacIntel,60,61025ae37ef11b136ea224fe,,,,,,,,,828,50,89,1,0,0,response1disk,,7,8,3,1,0,0,rectangle,8,3,1,0,0,,,,,,,8,3,1,0,0,,0,54,54,112,1,
,,,,,,,,,,,,,FF,,,,,,,,0.731,,,,,,,,,,,,,,,,,,,,,,61035f2f2b70d404ca70fb15,61036a873946c5585509aede,2021-07-29_22h58.33.242,Simcolourproject_2stim_asymm_v5,2020.2.10,MacIntel,60,61025ae37ef11b136ea224fe,,,,,,,,,236,43,94,1,0,0,response1disk,,7,8,0,1,0,0,rectangle,8,0,1,0,0,,,,,,,8,0,1,0,0,,0,55,55,15,1,
,,,,,,,,,,,,,FF,,,,,,,,0.647,,,,,,,,,,,,,,,,,,,,,,61035f2f2b70d404ca70fb15,61036a873946c5585509aede,2021-07-29_22h58.33.242,Simcolourproject_2stim_asymm_v5,2020.2.10,MacIntel,60,61025ae37ef11b136ea224fe,,,,,,,,,801,-68,56,1,0,0,response7disk,,1,-3,-2,1,0,0,rectangle,-3,-2,1,0,0,,,,,,,-3,-2,1,0,0,,0,56,56,96,1,
,,,,,,,,,,,,,FF,,,,,,,,0.715,,,,,,,,,,,,,,,,,,,,,,61035f2f2b70d404ca70fb15,61036a873946c5585509aede,2021-07-29_22h58.33.242,Simcolourproject_2stim_asymm_v5,2020.2.10,MacIntel,60,61025ae37ef11b136ea224fe,,,,,,,,,2341,48,77,1,0,0,response1disk,,7,21,14,1,0,0,rectangle,21,14,1,0,0,,,,,,,21,14,1,0,0,,0,57,57,106,1,
,,,,,,,,,,,,,FF,,,,,,,,0.527,,,,,,,,,,,,,,,,,,,,,,61035f2f2b70d404ca70fb15,61036a873946c5585509aede,2021-07-29_22h58.33.242,Simcolourproject_2stim_asymm_v5,2020.2.10,MacIntel,60,61025ae37ef11b136ea224fe,,,,,,,,,40,39,121,1,0,0,response1disk,,7,-4,5,1,0,0,rectangle,-4,5,1,0,0,,,,,,,-4,5,1,0,0,,0,58,58,151,1,
,,,,,,,,,,,,,FF,,,,,,,,1.313,,,,,,,,,,,,,,,,,,,,,,61035f2f2b70d404ca70fb15,61036a873946c5585509aede,2021-07-29_22h58.33.242,Simcolourproject_2stim_asymm_v5,2020.2.10,MacIntel,60,61025ae37ef11b136ea224fe,,,,,,,,,557,-42,-80,1,0,0,response5disk,,3,2,-10,1,0,0,rectangle,2,-10,1,0,0,,,,,,,2,-10,1,0,0,,0,59,59,86,1,
,,,,,,,,,,,,,FF,,,,,,,,0.926,,,,,,,,,,,,,,,,,,,,,,61035f2f2b70d404ca70fb15,61036a873946c5585509aede,2021-07-29_22h58.33.242,Simcolourproject_2stim_asymm_v5,2020.2.10,MacIntel,60,61025ae37ef11b136ea224fe,,,,,,,,,2062,40,-72,1,0,0,response3disk,,4,27,-2,1,0,0,rectangle,27,-2,1,0,0,,,,,,,27,-2,1,0,0,,0,60,60,119,1,
,,,,,,,,,,,,,FF,,,,,,,,0.777,,,,,,,,,,,,,,,,,,,,,,61035f2f2b70d404ca70fb15,61036a873946c5585509aede,2021-07-29_22h58.33.242,Simcolourproject_2stim_asymm_v5,2020.2.10,MacIntel,60,61025ae37ef11b136ea224fe,,,,,,,,,672,77,-32,1,0,0,response3disk,,5,21,7,1,0,0,rectangle,21,7,1,0,0,,,,,,,21,7,1,0,0,,0,61,61,54,1,
,,,,,,,,,,,,,FF,,,,,,,,0.71,,,,,,,,,,,,,,,,,,,,,,61035f2f2b70d404ca70fb15,61036a873946c5585509aede,2021-07-29_22h58.33.242,Simcolourproject_2stim_asymm_v5,2020.2.10,MacIntel,60,61025ae37ef11b136ea224fe,,,,,,,,,1843,50,89,1,0,0,response1disk,,7,13,2,1,0,0,rectangle,13,2,1,0,0,,,,,,,13,2,1,0,0,,0,62,62,84,1,
,,,,,,,,,,,,,FF,,,,,,,,0.742,,,,,,,,,,,,,,,,,,,,,,61035f2f2b70d404ca70fb15,61036a873946c5585509aede,2021-07-29_22h58.33.242,Simcolourproject_2stim_asymm_v5,2020.2.10,MacIntel,60,61025ae37ef11b136ea224fe,,,,,,,,,614,67,31,1,0,0,response1disk,,6,13,8,1,0,0,rectangle,88,-52,1,0,0,response3disk_3,TRUE,5,5,"[7,11,1,157,196,64,252,22,194,275,139,108,108,280,77,116,245,193,138,241]",1.821,13,0,1,0,0,rectangle,0,63,63,144,1,
,,,,,,,,,,,,,FF,,,,,,,,4.045,,,,,,,,,,,,,,,,,,,,,,61035f2f2b70d404ca70fb15,61036a873946c5585509aede,2021-07-29_22h58.33.242,Simcolourproject_2stim_asymm_v5,2020.2.10,MacIntel,60,61025ae37ef11b136ea224fe,,,,,,,,,4161,78,55,1,0,0,response1disk,,6,-5,-3,1,0,0,rectangle,-5,-3,1,0,0,,,,,,,-5,-3,1,0,0,,0,64,64,67,1,
,,,,,,,,,,,,,FF,,,,,,,,0.68,,,,,,,,,,,,,,,,,,,,,,61035f2f2b70d404ca70fb15,61036a873946c5585509aede,2021-07-29_22h58.33.242,Simcolourproject_2stim_asymm_v5,2020.2.10,MacIntel,60,61025ae37ef11b136ea224fe,,,,,,,,,2142,45,94,1,0,0,response1disk,,7,19,10,1,0,0,rectangle,19,10,1,0,0,,,,,,,19,10,1,0,0,,0,65,65,148,1,
,,,,,,,,,,,,,FF,,,,,,,,1.181,,,,,,,,,,,,,,,,,,,,,,61035f2f2b70d404ca70fb15,61036a873946c5585509aede,2021-07-29_22h58.33.242,Simcolourproject_2stim_asymm_v5,2020.2.10,MacIntel,60,61025ae37ef11b136ea224fe,,,,,,,,,1972,41,-67,1,0,0,response3disk,,4,16,-12,1,0,0,rectangle,16,-12,1,0,0,,,,,,,16,-12,1,0,0,,0,66,66,157,1,
,,,,,,,,,,,,,FF,,,,,,,,0.607,,,,,,,,,,,,,,,,,,,,,,61035f2f2b70d404ca70fb15,61036a873946c5585509aede,2021-07-29_22h58.33.242,Simcolourproject_2stim_asymm_v5,2020.2.10,MacIntel,60,61025ae37ef11b136ea224fe,,,,,,,,,3003,79,-29,1,0,0,response3disk,,5,9,-1,1,0,0,rectangle,9,-1,1,0,0,,,,,,,9,-1,1,0,0,,0,67,67,45,1,
,,,,,,,,,,,,,FF,,,,,,,,0.76,,,,,,,,,,,,,,,,,,,,,,61035f2f2b70d404ca70fb15,61036a873946c5585509aede,2021-07-29_22h58.33.242,Simcolourproject_2stim_asymm_v5,2020.2.10,MacIntel,60,61025ae37ef11b136ea224fe,,,,,,,,,30,59,86,1,0,0,response1disk,,7,9,-2,1,0,0,rectangle,9,-2,1,0,0,,,,,,,9,-2,1,0,0,,0,68,68,12,1,
,,,,,,,,,,,,,FF,,,,,,,,1.042,,,,,,,,,,,,,,,,,,,,,,61035f2f2b70d404ca70fb15,61036a873946c5585509aede,2021-07-29_22h58.33.242,Simcolourproject_2stim_asymm_v5,2020.2.10,MacIntel,60,61025ae37ef11b136ea224fe,,,,,,,,,1577,39,86,1,0,0,response1disk,,7,1,-8,1,0,0,rectangle,1,-8,1,0,0,,,,,,,1,-8,1,0,0,,0,69,69,99,1,
,,,,,,,,,,,,,FF,,,,,,,,0.748,,,,,,,,,,,,,,,,,,,,,,61035f2f2b70d404ca70fb15,61036a873946c5585509aede,2021-07-29_22h58.33.242,Simcolourproject_2stim_asymm_v5,2020.2.10,MacIntel,60,61025ae37ef11b136ea224fe,,,,,,,,,600,52,112,1,0,0,response1disk,,7,1,0,1,0,0,rectangle,1,0,1,0,0,,,,,,,1,0,1,0,0,,0,70,70,128,1,
,,,,,,,,,,,,,FF,,,,,,,,0.629,,,,,,,,,,,,,,,,,,,,,,61035f2f2b70d404ca70fb15,61036a873946c5585509aede,2021-07-29_22h58.33.242,Simcolourproject_2stim_asymm_v5,2020.2.10,MacIntel,60,61025ae37ef11b136ea224fe,,,,,,,,,2505,35,96,1,0,0,response1disk,,7,-1,6,1,0,0,rectangle,-1,6,1,0,0,,,,,,,-1,6,1,0,0,,0,71,71,38,1,
,,,,,,,,,,,,,FF,,,,,,,,0.733,,,,,,,,,,,,,,,,,,,,,,61035f2f2b70d404ca70fb15,61036a873946c5585509aede,2021-07-29_22h58.33.242,Simcolourproject_2stim_asymm_v5,2020.2.10,MacIntel,60,61025ae37ef11b136ea224fe,,,,,,,,,3372,89,41,1,0,0,response1disk,,6,25,3,1,0,0,rectangle,25,3,1,0,0,,,,,,,25,3,1,0,0,,0,72,72,93,1,
,,,,,,,,,,,,,FF,,,,,,,,0.96,,,,,,,,,,,,,,,,,,,,,,61035f2f2b70d404ca70fb15,61036a873946c5585509aede,2021-07-29_22h58.33.242,Simcolourproject_2stim_asymm_v5,2020.2.10,MacIntel,60,61025ae37ef11b136ea224fe,,,,,,,,,620,-83,71,1,0,0,response7disk,,1,-4,6,1,0,0,rectangle,-4,6,1,0,0,,,,,,,-4,6,1,0,0,,0,73,73,16,1,
,,,,,,,,,,,,,FF,,,,,,,,0.688,,,,,,,,,,,,,,,,,,,,,,61035f2f2b70d404ca70fb15,61036a873946c5585509aede,2021-07-29_22h58.33.242,Simcolourproject_2stim_asymm_v5,2020.2.10,MacIntel,60,61025ae37ef11b136ea224fe,,,,,,,,,3577,53,105,1,0,0,response1disk,,7,2,1,1,0,0,rectangle,2,1,1,0,0,,,,,,,2,1,1,0,0,,0,74,74,47,1,
,,,,,,,,,,,,,FF,,,,,,,,0.541,,,,,,,,,,,,,,,,,,,,,,61035f2f2b70d404ca70fb15,61036a873946c5585509aede,2021-07-29_22h58.33.242,Simcolourproject_2stim_asymm_v5,2020.2.10,MacIntel,60,61025ae37ef11b136ea224fe,,,,,,,,,4091,48,91,1,0,0,response1disk,,7,9,2,1,0,0,rectangle,9,2,1,0,0,,,,,,,9,2,1,0,0,,0,75,75,89,1,
,,,,,,,,,,,,,FF,,,,,,,,0.552,,,,,,,,,,,,,,,,,,,,,,61035f2f2b70d404ca70fb15,61036a873946c5585509aede,2021-07-29_22h58.33.242,Simcolourproject_2stim_asymm_v5,2020.2.10,MacIntel,60,61025ae37ef11b136ea224fe,,,,,,,,,1437,45,61,1,0,0,response1disk,,7,5,-3,1,0,0,rectangle,46,117,1,0,0,response1disk_3,TRUE,7,7,"[7,11,1,157,196,64,252,22,194,275,139,108,108,280,77,116,245,193,138,241]",1.801,11,1,1,0,0,rectangle,0,76,76,75,1,
,,,,,,,,,,,,,FF,,,,,,,,0.603,,,,,,,,,,,,,,,,,,,,,,61035f2f2b70d404ca70fb15,61036a873946c5585509aede,2021-07-29_22h58.33.242,Simcolourproject_2stim_asymm_v5,2020.2.10,MacIntel,60,61025ae37ef11b136ea224fe,,,,,,,,,586,25,76,1,0,0,response1disk,,7,8,-1,1,0,0,rectangle,8,-1,1,0,0,,,,,,,8,-1,1,0,0,,0,77,77,129,1,
,,,,,,,,,,,,,FF,,,,,,,,0.396,,,,,,,,,,,,,,,,,,,,,,61035f2f2b70d404ca70fb15,61036a873946c5585509aede,2021-07-29_22h58.33.242,Simcolourproject_2stim_asymm_v5,2020.2.10,MacIntel,60,61025ae37ef11b136ea224fe,,,,,,,,,4210,43,83,1,0,0,response1disk,,7,17,-2,1,0,0,rectangle,17,-2,1,0,0,,,,,,,17,-2,1,0,0,,0,78,78,139,1,
,,,,,,,,,,,,,FF,,,,,,,,0.912,,,,,,,,,,,,,,,,,,,,,,61035f2f2b70d404ca70fb15,61036a873946c5585509aede,2021-07-29_22h58.33.242,Simcolourproject_2stim_asymm_v5,2020.2.10,MacIntel,60,61025ae37ef11b136ea224fe,,,,,,,,,2777,-61,-66,1,0,0,response5disk,,3,-13,1,1,0,0,rectangle,-13,1,1,0,0,,,,,,,-13,1,1,0,0,,0,79,79,100,1,
,,,,,,,,,,,,,FF,,,,,,,,1.316,,,,,,,,,,,,,,,,,,,,,,61035f2f2b70d404ca70fb15,61036a873946c5585509aede,2021-07-29_22h58.33.242,Simcolourproject_2stim_asymm_v5,2020.2.10,MacIntel,60,61025ae37ef11b136ea224fe,,,,,,,,,3021,57,89,1,0,0,response1disk,,7,7,-2,1,0,0,rectangle,7,-2,1,0,0,,,,,,,7,-2,1,0,0,,0,80,80,18,1,
,,,,,,,,,,,,,FF,,,,,,,,0.631,,,,,,,,,,,,,,,,,,,,,,61035f2f2b70d404ca70fb15,61036a873946c5585509aede,2021-07-29_22h58.33.242,Simcolourproject_2stim_asymm_v5,2020.2.10,MacIntel,60,61025ae37ef11b136ea224fe,,,,,,,,,2410,44,91,1,0,0,response1disk,,7,9,3,1,0,0,rectangle,9,3,1,0,0,,,,,,,9,3,1,0,0,,0,81,81,42,1,
,,,,,,,,,,,,,FF,,,,,,,,0.541,,,,,,,,,,,,,,,,,,,,,,61035f2f2b70d404ca70fb15,61036a873946c5585509aede,2021-07-29_22h58.33.242,Simcolourproject_2stim_asymm_v5,2020.2.10,MacIntel,60,61025ae37ef11b136ea224fe,,,,,,,,,2140,45,75,1,0,0,response1disk,,7,16,9,1,0,0,rectangle,16,9,1,0,0,,,,,,,16,9,1,0,0,,0,82,82,83,1,
,,,,,,,,,,,,,FF,,,,,,,,0.617,,,,,,,,,,,,,,,,,,,,,,61035f2f2b70d404ca70fb15,61036a873946c5585509aede,2021-07-29_22h58.33.242,Simcolourproject_2stim_asymm_v5,2020.2.10,MacIntel,60,61025ae37ef11b136ea224fe,,,,,,,,,710,40,89,1,0,0,response1disk,,7,13,6,1,0,0,rectangle,13,6,1,0,0,,,,,,,13,6,1,0,0,,0,83,83,131,1,
,,,,,,,,,,,,,FF,,,,,,,,0.562,,,,,,,,,,,,,,,,,,,,,,61035f2f2b70d404ca70fb15,61036a873946c5585509aede,2021-07-29_22h58.33.242,Simcolourproject_2stim_asymm_v5,2020.2.10,MacIntel,60,61025ae37ef11b136ea224fe,,,,,,,,,971,57,97,1,0,0,response1disk,,7,4,-5,1,0,0,rectangle,4,-5,1,0,0,,,,,,,4,-5,1,0,0,,0,84,84,28,1,
,,,,,,,,,,,,,FF,,,,,,,,0.543,,,,,,,,,,,,,,,,,,,,,,61035f2f2b70d404ca70fb15,61036a873946c5585509aede,2021-07-29_22h58.33.242,Simcolourproject_2stim_asymm_v5,2020.2.10,MacIntel,60,61025ae37ef11b136ea224fe,,,,,,,,,574,45,82,1,0,0,response1disk,,7,5,6,1,0,0,rectangle,5,6,1,0,0,,,,,,,5,6,1,0,0,,0,85,85,1,1,
,,,,,,,,,,,,,FF,,,,,,,,0.48,,,,,,,,,,,,,,,,,,,,,,61035f2f2b70d404ca70fb15,61036a873946c5585509aede,2021-07-29_22h58.33.242,Simcolourproject_2stim_asymm_v5,2020.2.10,MacIntel,60,61025ae37ef11b136ea224fe,,,,,,,,,1945,41,75,1,0,0,response1disk,,7,10,6,1,0,0,rectangle,10,6,1,0,0,,,,,,,10,6,1,0,0,,0,86,86,65,1,
,,,,,,,,,,,,,FF,,,,,,,,1.16,,,,,,,,,,,,,,,,,,,,,,61035f2f2b70d404ca70fb15,61036a873946c5585509aede,2021-07-29_22h58.33.242,Simcolourproject_2stim_asymm_v5,2020.2.10,MacIntel,60,61025ae37ef11b136ea224fe,,,,,,,,,3998,-51,-80,1,0,0,response5disk,,3,-10,-2,1,0,0,rectangle,-10,-2,1,0,0,,,,,,,-10,-2,1,0,0,,0,87,87,145,1,
,,,,,,,,,,,,,FF,,,,,,,,0.999,,,,,,,,,,,,,,,,,,,,,,61035f2f2b70d404ca70fb15,61036a873946c5585509aede,2021-07-29_22h58.33.242,Simcolourproject_2stim_asymm_v5,2020.2.10,MacIntel,60,61025ae37ef11b136ea224fe,,,,,,,,,1439,41,-71,1,0,0,response3disk,,4,5,-4,1,0,0,rectangle,5,-4,1,0,0,,,,,,,5,-4,1,0,0,,0,88,88,137,1,
,,,,,,,,,,,,,FF,,,,,,,,0.745,,,,,,,,,,,,,,,,,,,,,,61035f2f2b70d404ca70fb15,61036a873946c5585509aede,2021-07-29_22h58.33.242,Simcolourproject_2stim_asymm_v5,2020.2.10,MacIntel,60,61025ae37ef11b136ea224fe,,,,,,,,,2988,-82,-37,1,0,0,response5disk,,2,12,-4,1,0,0,rectangle,12,-4,1,0,0,,,,,,,12,-4,1,0,0,,0,89,89,152,1,
,,,,,,,,,,,,,FF,,,,,,,,1.034,,,,,,,,,,,,,,,,,,,,,,61035f2f2b70d404ca70fb15,61036a873946c5585509aede,2021-07-29_22h58.33.242,Simcolourproject_2stim_asymm_v5,2020.2.10,MacIntel,60,61025ae37ef11b136ea224fe,,,,,,,,,86,70,51,1,0,0,response1disk,,6,21,7,1,0,0,rectangle,21,7,1,0,0,,,,,,,21,7,1,0,0,,0,90,90,55,1,
,,,,,,,,,,,,,FF,,,,,,,,0.521,,,,,,,,,,,,,,,,,,,,,,61035f2f2b70d404ca70fb15,61036a873946c5585509aede,2021-07-29_22h58.33.242,Simcolourproject_2stim_asymm_v5,2020.2.10,MacIntel,60,61025ae37ef11b136ea224fe,,,,,,,,,592,45,83,1,0,0,response1disk,,7,13,-1,1,0,0,rectangle,13,-1,1,0,0,,,,,,,13,-1,1,0,0,,0,91,91,116,1,
,,,,,,,,,,,,,FF,,,,,,,,0.796,,,,,,,,,,,,,,,,,,,,,,61035f2f2b70d404ca70fb15,61036a873946c5585509aede,2021-07-29_22h58.33.242,Simcolourproject_2stim_asymm_v5,2020.2.10,MacIntel,60,61025ae37ef11b136ea224fe,,,,,,,,,4332,51,102,1,0,0,response1disk,,7,13,7,1,0,0,rectangle,13,7,1,0,0,,,,,,,13,7,1,0,0,,0,92,92,105,1,
,,,,,,,,,,,,,FF,,,,,,,,0.407,,,,,,,,,,,,,,,,,,,,,,61035f2f2b70d404ca70fb15,61036a873946c5585509aede,2021-07-29_22h58.33.242,Simcolourproject_2stim_asymm_v5,2020.2.10,MacIntel,60,61025ae37ef11b136ea224fe,,,,,,,,,206,42,82,1,0,0,response1disk,,7,27,4,1,0,0,rectangle,27,4,1,0,0,,,,,,,27,4,1,0,0,,0,93,93,90,1,
,,,,,,,,,,,,,FF,,,,,,,,0.473,,,,,,,,,,,,,,,,,,,,,,61035f2f2b70d404ca70fb15,61036a873946c5585509aede,2021-07-29_22h58.33.242,Simcolourproject_2stim_asymm_v5,2020.2.10,MacIntel,60,61025ae37ef11b136ea224fe,,,,,,,,,493,45,74,1,0,0,response1disk,,7,21,15,1,0,0,rectangle,21,15,1,0,0,,,,,,,21,15,1,0,0,,0,94,94,24,1,
,,,,,,,,,,,,,FF,,,,,,,,0.371,,,,,,,,,,,,,,,,,,,,,,61035f2f2b70d404ca70fb15,61036a873946c5585509aede,2021-07-29_22h58.33.242,Simcolourproject_2stim_asymm_v5,2020.2.10,MacIntel,60,61025ae37ef11b136ea224fe,,,,,,,,,1250,53,89,1,0,0,response1disk,,7,12,-11,1,0,0,rectangle,12,-11,1,0,0,,,,,,,12,-11,1,0,0,,0,95,95,9,1,
,,,,,,,,,,,,,FF,,,,,,,,1.66,,,,,,,,,,,,,,,,,,,,,,61035f2f2b70d404ca70fb15,61036a873946c5585509aede,2021-07-29_22h58.33.242,Simcolourproject_2stim_asymm_v5,2020.2.10,MacIntel,60,61025ae37ef11b136ea224fe,,,,,,,,,1460,-68,91,1,0,0,response7disk,,0,-14,7,1,0,0,rectangle,-14,7,1,0,0,,,,,,,-14,7,1,0,0,,0,96,96,107,1,
,,,,,,,,,,,,,FF,,,,,,,,0.604,,,,,,,,,,,,,,,,,,,,,,61035f2f2b70d404ca70fb15,61036a873946c5585509aede,2021-07-29_22h58.33.242,Simcolourproject_2stim_asymm_v5,2020.2.10,MacIntel,60,61025ae37ef11b136ea224fe,,,,,,,,,2857,38,87,1,0,0,response1disk,,7,15,3,1,0,0,rectangle,15,3,1,0,0,,,,,,,15,3,1,0,0,,0,97,97,91,1,
,,,,,,,,,,,,,FF,,,,,,,,0.437,,,,,,,,,,,,,,,,,,,,,,61035f2f2b70d404ca70fb15,61036a873946c5585509aede,2021-07-29_22h58.33.242,Simcolourproject_2stim_asymm_v5,2020.2.10,MacIntel,60,61025ae37ef11b136ea224fe,,,,,,,,,4130,52,90,1,0,0,response1disk,,7,18,-6,1,0,0,rectangle,18,-6,1,0,0,,,,,,,18,-6,1,0,0,,0,98,98,52,1,
,,,,,,,,,,,,,FF,,,,,,,,0.883,,,,,,,,,,,,,,,,,,,,,,61035f2f2b70d404ca70fb15,61036a873946c5585509aede,2021-07-29_22h58.33.242,Simcolourproject_2stim_asymm_v5,2020.2.10,MacIntel,60,61025ae37ef11b136ea224fe,,,,,,,,,4063,29,99,1,0,0,response1disk,,7,12,10,1,0,0,rectangle,12,10,1,0,0,,,,,,,12,10,1,0,0,,0,99,99,71,1,
,,,,,,,,,,,,,FF,,,,,,,,0.715,,,,,,,,,,,,,,,,,,,,,,61035f2f2b70d404ca70fb15,61036a873946c5585509aede,2021-07-29_22h58.33.242,Simcolourproject_2stim_asymm_v5,2020.2.10,MacIntel,60,61025ae37ef11b136ea224fe,,,,,,,,,1527,41,-75,1,0,0,response3disk,,4,17,-9,1,0,0,rectangle,17,-9,1,0,0,,,,,,,17,-9,1,0,0,,0,100,100,72,1,
,,,,,,,,,,,,,FF,,,,,,,,0.703,,,,,,,,,,,,,,,,,,,,,,61035f2f2b70d404ca70fb15,61036a873946c5585509aede,2021-07-29_22h58.33.242,Simcolourproject_2stim_asymm_v5,2020.2.10,MacIntel,60,61025ae37ef11b136ea224fe,,,,,,,,,3933,63,-22,1,0,0,response3disk,,5,18,-6,1,0,0,rectangle,18,-6,1,0,0,,,,,,,18,-6,1,0,0,,0,101,101,78,1,
,,,,,,,,,,,,,FF,,,,,,,,0.909,,,,,,,,,,,,,,,,,,,,,,61035f2f2b70d404ca70fb15,61036a873946c5585509aede,2021-07-29_22h58.33.242,Simcolourproject_2stim_asymm_v5,2020.2.10,MacIntel,60,61025ae37ef11b136ea224fe,,,,,,,,,670,42,79,1,0,0,response1disk,,7,2,4,1,0,0,rectangle,2,4,1,0,0,,,,,,,2,4,1,0,0,,0,102,102,92,1,
,,,,,,,,,,,,,FF,,,,,,,,0.77,,,,,,,,,,,,,,,,,,,,,,61035f2f2b70d404ca70fb15,61036a873946c5585509aede,2021-07-29_22h58.33.242,Simcolourproject_2stim_asymm_v5,2020.2.10,MacIntel,60,61025ae37ef11b136ea224fe,,,,,,,,,3697,16,64,1,0,0,response1disk,,7,0,0,1,0,0,rectangle,0,0,1,0,0,,,,,,,0,0,1,0,0,,0,103,103,51,1,
,,,,,,,,,,,,,FF,,,,,,,,0.558,,,,,,,,,,,,,,,,,,,,,,61035f2f2b70d404ca70fb15,61036a873946c5585509aede,2021-07-29_22h58.33.242,Simcolourproject_2stim_asymm_v5,2020.2.10,MacIntel,60,61025ae37ef11b136ea224fe,,,,,,,,,1399,50,67,1,0,0,response1disk,,7,2,-18,1,0,0,rectangle,2,-18,1,0,0,,,,,,,2,-18,1,0,0,,0,104,104,73,1,
,,,,,,,,,,,,,FF,,,,,,,,0.934,,,,,,,,,,,,,,,,,,,,,,61035f2f2b70d404ca70fb15,61036a873946c5585509aede,2021-07-29_22h58.33.242,Simcolourproject_2stim_asymm_v5,2020.2.10,MacIntel,60,61025ae37ef11b136ea224fe,,,,,,,,,3330,-49,-73,1,0,0,response5disk,,3,-7,-2,1,0,0,rectangle,-7,-2,1,0,0,,,,,,,-7,-2,1,0,0,,0,105,105,0,1,
,,,,,,,,,,,,,FF,,,,,,,,0.782,,,,,,,,,,,,,,,,,,,,,,61035f2f2b70d404ca70fb15,61036a873946c5585509aede,2021-07-29_22h58.33.242,Simcolourproject_2stim_asymm_v5,2020.2.10,MacIntel,60,61025ae37ef11b136ea224fe,,,,,,,,,1223,45,-65,1,0,0,response3disk,,4,27,-9,1,0,0,rectangle,27,-9,1,0,0,,,,,,,27,-9,1,0,0,,0,106,106,53,1,
,,,,,,,,,,,,,FF,,,,,,,,0.777,,,,,,,,,,,,,,,,,,,,,,61035f2f2b70d404ca70fb15,61036a873946c5585509aede,2021-07-29_22h58.33.242,Simcolourproject_2stim_asymm_v5,2020.2.10,MacIntel,60,61025ae37ef11b136ea224fe,,,,,,,,,869,49,74,1,0,0,response1disk,,7,17,-3,1,0,0,rectangle,-32,88,1,0,0,response7disk_3,TRUE,0,0,"[7,11,1,157,196,64,252,22,194,275,139,108,108,280,77,116,245,193,138,241]",1.238,15,-12,1,0,0,rectangle,0,107,107,123,1,
,,,,,,,,,,,,,FF,,,,,,,,0.893,,,,,,,,,,,,,,,,,,,,,,61035f2f2b70d404ca70fb15,61036a873946c5585509aede,2021-07-29_22h58.33.242,Simcolourproject_2stim_asymm_v5,2020.2.10,MacIntel,60,61025ae37ef11b136ea224fe,,,,,,,,,2131,33,97,1,0,0,response1disk,,7,26,1,1,0,0,rectangle,26,1,1,0,0,,,,,,,26,1,1,0,0,,0,108,108,20,1,
,,,,,,,,,,,,,FF,,,,,,,,1.196,,,,,,,,,,,,,,,,,,,,,,61035f2f2b70d404ca70fb15,61036a873946c5585509aede,2021-07-29_22h58.33.242,Simcolourproject_2stim_asymm_v5,2020.2.10,MacIntel,60,61025ae37ef11b136ea224fe,,,,,,,,,1312,93,-33,1,0,0,response3disk,,5,-17,-2,1,0,0,rectangle,-17,-2,1,0,0,,,,,,,-17,-2,1,0,0,,0,109,109,46,1,
,,,,,,,,,,,,,FF,,,,,,,,0.739,,,,,,,,,,,,,,,,,,,,,,61035f2f2b70d404ca70fb15,61036a873946c5585509aede,2021-07-29_22h58.33.242,Simcolourproject_2stim_asymm_v5,2020.2.10,MacIntel,60,61025ae37ef11b136ea224fe,,,,,,,,,2032,43,-89,1,0,0,response3disk,,4,31,4,1,0,0,rectangle,31,4,1,0,0,,,,,,,31,4,1,0,0,,0,110,110,11,1,
,,,,,,,,,,,,,FF,,,,,,,,0.638,,,,,,,,,,,,,,,,,,,,,,61035f2f2b70d404ca70fb15,61036a873946c5585509aede,2021-07-29_22h58.33.242,Simcolourproject_2stim_asymm_v5,2020.2.10,MacIntel,60,61025ae37ef11b136ea224fe,,,,,,,,,3183,56,104,1,0,0,response1disk,,7,3,4,1,0,0,rectangle,3,4,1,0,0,,,,,,,3,4,1,0,0,,0,111,111,134,1,
,,,,,,,,,,,,,FF,,,,,,,,0.915,,,,,,,,,,,,,,,,,,,,,,61035f2f2b70d404ca70fb15,61036a873946c5585509aede,2021-07-29_22h58.33.242,Simcolourproject_2stim_asymm_v5,2020.2.10,MacIntel,60,61025ae37ef11b136ea224fe,,,,,,,,,2780,-79,-28,1,0,0,response5disk,,2,-9,-18,1,0,0,rectangle,-9,-18,1,0,0,,,,,,,-9,-18,1,0,0,,0,112,112,115,1,
,,,,,,,,,,,,,FF,,,,,,,,1.477,,,,,,,,,,,,,,,,,,,,,,61035f2f2b70d404ca70fb15,61036a873946c5585509aede,2021-07-29_22h58.33.242,Simcolourproject_2stim_asymm_v5,2020.2.10,MacIntel,60,61025ae37ef11b136ea224fe,,,,,,,,,1738,45,82,1,0,0,response1disk,,7,7,-14,1,0,0,rectangle,7,-14,1,0,0,,,,,,,7,-14,1,0,0,,0,113,113,62,1,
,,,,,,,,,,,,,FF,,,,,,,,1.032,,,,,,,,,,,,,,,,,,,,,,61035f2f2b70d404ca70fb15,61036a873946c5585509aede,2021-07-29_22h58.33.242,Simcolourproject_2stim_asymm_v5,2020.2.10,MacIntel,60,61025ae37ef11b136ea224fe,,,,,,,,,4306,-66,44,1,0,0,response7disk,,1,15,8,1,0,0,rectangle,15,8,1,0,0,,,,,,,15,8,1,0,0,,0,114,114,37,1,
,,,,,,,,,,,,,FF,,,,,,,,0.842,,,,,,,,,,,,,,,,,,,,,,61035f2f2b70d404ca70fb15,61036a873946c5585509aede,2021-07-29_22h58.33.242,Simcolourproject_2stim_asymm_v5,2020.2.10,MacIntel,60,61025ae37ef11b136ea224fe,,,,,,,,,2475,88,38,1,0,0,response1disk,,6,0,3,1,0,0,rectangle,54,94,1,0,0,response1disk_3,TRUE,7,7,"[7,11,1,157,196,64,252,22,194,275,139,108,108,280,77,116,245,193,138,241]",1.701,25,8,1,0,0,rectangle,0,115,115,85,1,
,,,,,,,,,,,,,FF,,,,,,,,1.684,,,,,,,,,,,,,,,,,,,,,,61035f2f2b70d404ca70fb15,61036a873946c5585509aede,2021-07-29_22h58.33.242,Simcolourproject_2stim_asymm_v5,2020.2.10,MacIntel,60,61025ae37ef11b136ea224fe,,,,,,,,,155,42,-92,1,0,0,response3disk,,4,8,3,1,0,0,rectangle,8,3,1,0,0,,,,,,,8,3,1,0,0,,0,116,116,61,1,
,,,,,,,,,,,,,FF,,,,,,,,0.86,,,,,,,,,,,,,,,,,,,,,,61035f2f2b70d404ca70fb15,61036a873946c5585509aede,2021-07-29_22h58.33.242,Simcolourproject_2stim_asymm_v5,2020.2.10,MacIntel,60,61025ae37ef11b136ea224fe,,,,,,,,,897,34,75,1,0,0,response1disk,,7,1,0,1,0,0,rectangle,1,0,1,0,0,,,,,,,1,0,1,0,0,,0,117,117,136,1,
,,,,,,,,,,,,,FF,,,,,,,,0.682,,,,,,,,,,,,,,,,,,,,,,61035f2f2b70d404ca70fb15,61036a873946c5585509aede,2021-07-29_22h58.33.242,Simcolourproject_2stim_asymm_v5,2020.2.10,MacIntel,60,61025ae37ef11b136ea224fe,,,,,,,,,1004,52,105,1,0,0,response1disk,,7,3,-11,1,0,0,rectangle,3,-11,1,0,0,,,,,,,3,-11,1,0,0,,0,118,118,40,1,
,,,,,,,,,,,,,FF,,,,,,,,0.654,,,,,,,,,,,,,,,,,,,,,,61035f2f2b70d404ca70fb15,61036a873946c5585509aede,2021-07-29_22h58.33.242,Simcolourproject_2stim_asymm_v5,2020.2.10,MacIntel,60,61025ae37ef11b136ea224fe,,,,,,,,,1339,64,86,1,0,0,response1disk,,7,7,-8,1,0,0,rectangle,7,-8,1,0,0,,,,,,,7,-8,1,0,0,,0,119,119,44,1,
,,,,,,,,,,,,,FF,,,,,,,,0.481,,,,,,,,,,,,,,,,,,,,,,61035f2f2b70d404ca70fb15,61036a873946c5585509aede,2021-07-29_22h58.33.242,Simcolourproject_2stim_asymm_v5,2020.2.10,MacIntel,60,61025ae37ef11b136ea224fe,,,,,,,,,1008,79,33,1,0,0,response1disk,,6,6,-10,1,0,0,rectangle,6,-10,1,0,0,,,,,,,6,-10,1,0,0,,0,120,120,108,1,
,,,,,,,,,,,,,FF,,,,,,,,0.696,,,,,,,,,,,,,,,,,,,,,,61035f2f2b70d404ca70fb15,61036a873946c5585509aede,2021-07-29_22h58.33.242,Simcolourproject_2stim_asymm_v5,2020.2.10,MacIntel,60,61025ae37ef11b136ea224fe,,,,,,,,,449,93,44,1,0,0,response1disk,,6,5,-2,1,0,0,rectangle,5,-2,1,0,0,,,,,,,5,-2,1,0,0,,0,121,121,101,1,
,,,,,,,,,,,,,FF,,,,,,,,0.535,,,,,,,,,,,,,,,,,,,,,,61035f2f2b70d404ca70fb15,61036a873946c5585509aede,2021-07-29_22h58.33.242,Simcolourproject_2stim_asymm_v5,2020.2.10,MacIntel,60,61025ae37ef11b136ea224fe,,,,,,,,,150,82,41,1,0,0,response1disk,,6,19,7,1,0,0,rectangle,19,7,1,0,0,,,,,,,19,7,1,0,0,,0,122,122,104,1,
,,,,,,,,,,,,,FF,,,,,,,,0.522,,,,,,,,,,,,,,,,,,,,,,61035f2f2b70d404ca70fb15,61036a873946c5585509aede,2021-07-29_22h58.33.242,Simcolourproject_2stim_asymm_v5,2020.2.10,MacIntel,60,61025ae37ef11b136ea224fe,,,,,,,,,190,82,39,1,0,0,response1disk,,6,5,-9,1,0,0,rectangle,5,-9,1,0,0,,,,,,,5,-9,1,0,0,,0,123,123,59,1,
,,,,,,,,,,,,,FF,,,,,,,,0.654,,,,,,,,,,,,,,,,,,,,,,61035f2f2b70d404ca70fb15,61036a873946c5585509aede,2021-07-29_22h58.33.242,Simcolourproject_2stim_asymm_v5,2020.2.10,MacIntel,60,61025ae37ef11b136ea224fe,,,,,,,,,308,78,-56,1,0,0,response3disk,,5,20,16,1,0,0,rectangle,20,16,1,0,0,,,,,,,20,16,1,0,0,,0,124,124,122,1,
,,,,,,,,,,,,,FF,,,,,,,,0.535,,,,,,,,,,,,,,,,,,,,,,61035f2f2b70d404ca70fb15,61036a873946c5585509aede,2021-07-29_22h58.33.242,Simcolourproject_2stim_asymm_v5,2020.2.10,MacIntel,60,61025ae37ef11b136ea224fe,,,,,,,,,2059,28,84,1,0,0,response1disk,,7,-4,2,1,0,0,rectangle,-4,2,1,0,0,,,,,,,-4,2,1,0,0,,0,125,125,110,1,
,,,,,,,,,,,,,FF,,,,,,,,0.454,,,,,,,,,,,,,,,,,,,,,,61035f2f2b70d404ca70fb15,61036a873946c5585509aede,2021-07-29_22h58.33.242,Simcolourproject_2stim_asymm_v5,2020.2.10,MacIntel,60,61025ae37ef11b136ea224fe,,,,,,,,,992,44,60,1,0,0,response1disk,,7,11,2,1,0,0,rectangle,11,2,1,0,0,,,,,,,11,2,1,0,0,,0,126,126,143,1,
,,,,,,,,,,,,,FF,,,,,,,,0.853,,,,,,,,,,,,,,,,,,,,,,61035f2f2b70d404ca70fb15,61036a873946c5585509aede,2021-07-29_22h58.33.242,Simcolourproject_2stim_asymm_v5,2020.2.10,MacIntel,60,61025ae37ef11b136ea224fe,,,,,,,,,0,-76,51,1,0,0,response7disk,,1,8,6,1,0,0,rectangle,8,6,1,0,0,,,,,,,8,6,1,0,0,,0,127,127,126,1,
,,,,,,,,,,,,,FF,,,,,,,,0.607,,,,,,,,,,,,,,,,,,,,,,61035f2f2b70d404ca70fb15,61036a873946c5585509aede,2021-07-29_22h58.33.242,Simcolourproject_2stim_asymm_v5,2020.2.10,MacIntel,60,61025ae37ef11b136ea224fe,,,,,,,,,2571,29,82,1,0,0,response1disk,,7,20,14,1,0,0,rectangle,20,14,1,0,0,,,,,,,20,14,1,0,0,,0,128,128,4,1,
,,,,,,,,,,,,,FF,,,,,,,,0.546,,,,,,,,,,,,,,,,,,,,,,61035f2f2b70d404ca70fb15,61036a873946c5585509aede,2021-07-29_22h58.33.242,Simcolourproject_2stim_asymm_v5,2020.2.10,MacIntel,60,61025ae37ef11b136ea224fe,,,,,,,,,1237,45,91,1,0,0,response1disk,,7,10,3,1,0,0,rectangle,10,3,1,0,0,,,,,,,10,3,1,0,0,,0,129,129,22,1,
,,,,,,,,,,,,,FF,,,,,,,,0.812,,,,,,,,,,,,,,,,,,,,,,61035f2f2b70d404ca70fb15,61036a873946c5585509aede,2021-07-29_22h58.33.242,Simcolourproject_2stim_asymm_v5,2020.2.10,MacIntel,60,61025ae37ef11b136ea224fe,,,,,,,,,2228,-31,-86,1,0,0,response5disk,,3,-6,6,1,0,0,rectangle,-6,6,1,0,0,,,,,,,-6,6,1,0,0,,0,130,130,94,1,
,,,,,,,,,,,,,FF,,,,,,,,0.618,,,,,,,,,,,,,,,,,,,,,,61035f2f2b70d404ca70fb15,61036a873946c5585509aede,2021-07-29_22h58.33.242,Simcolourproject_2stim_asymm_v5,2020.2.10,MacIntel,60,61025ae37ef11b136ea224fe,,,,,,,,,87,44,84,1,0,0,response1disk,,7,5,-3,1,0,0,rectangle,5,-3,1,0,0,,,,,,,5,-3,1,0,0,,0,131,131,124,1,
,,,,,,,,,,,,,FF,,,,,,,,0.745,,,,,,,,,,,,,,,,,,,,,,61035f2f2b70d404ca70fb15,61036a873946c5585509aede,2021-07-29_22h58.33.242,Simcolourproject_2stim_asymm_v5,2020.2.10,MacIntel,60,61025ae37ef11b136ea224fe,,,,,,,,,2208,54,116,1,0,0,response1disk,,7,-11,-12,1,0,0,rectangle,-11,-12,1,0,0,,,,,,,-11,-12,1,0,0,,0,132,132,26,1,
,,,,,,,,,,,,,FF,,,,,,,,0.479,,,,,,,,,,,,,,,,,,,,,,61035f2f2b70d404ca70fb15,61036a873946c5585509aede,2021-07-29_22h58.33.242,Simcolourproject_2stim_asymm_v5,2020.2.10,MacIntel,60,61025ae37ef11b136ea224fe,,,,,,,,,4111,33,50,1,0,0,response1disk,,7,4,-7,1,0,0,rectangle,4,-7,1,0,0,,,,,,,4,-7,1,0,0,,0,133,133,142,1,
,,,,,,,,,,,,,FF,,,,,,,,0.582,,,,,,,,,,,,,,,,,,,,,,61035f2f2b70d404ca70fb15,61036a873946c5585509aede,2021-07-29_22h58.33.242,Simcolourproject_2stim_asymm_v5,2020.2.10,MacIntel,60,61025ae37ef11b136ea224fe,,,,,,,,,1277,58,119,1,0,0,response1disk,,7,-2,0,1,0,0,rectangle,-2,0,1,0,0,,,,,,,-2,0,1,0,0,,0,134,134,158,1,
,,,,,,,,,,,,,FF,,,,,,,,0.577,,,,,,,,,,,,,,,,,,,,,,61035f2f2b70d404ca70fb15,61036a873946c5585509aede,2021-07-29_22h58.33.242,Simcolourproject_2stim_asymm_v5,2020.2.10,MacIntel,60,61025ae37ef11b136ea224fe,,,,,,,,,3581,56,84,1,0,0,response1disk,,7,19,6,1,0,0,rectangle,19,6,1,0,0,,,,,,,19,6,1,0,0,,0,135,135,35,1,
,,,,,,,,,,,,,FF,,,,,,,,0.957,,,,,,,,,,,,,,,,,,,,,,61035f2f2b70d404ca70fb15,61036a873946c5585509aede,2021-07-29_22h58.33.242,Simcolourproject_2stim_asymm_v5,2020.2.10,MacIntel,60,61025ae37ef11b136ea224fe,,,,,,,,,910,31,117,1,0,0,response1disk,,7,4,11,1,0,0,rectangle,4,11,1,0,0,,,,,,,4,11,1,0,0,,0,136,136,58,1,
,,,,,,,,,,,,,FF,,,,,,,,0.628,,,,,,,,,,,,,,,,,,,,,,61035f2f2b70d404ca70fb15,61036a873946c5585509aede,2021-07-29_22h58.33.242,Simcolourproject_2stim_asymm_v5,2020.2.10,MacIntel,60,61025ae37ef11b136ea224fe,,,,,,,,,2455,27,78,1,0,0,response1disk,,7,10,9,1,0,0,rectangle,77,-23,1,0,0,response3disk_3,TRUE,5,5,"[7,11,1,157,196,64,252,22,194,275,139,108,108,280,77,116,245,193,138,241]",1.511,10,-1,1,0,0,rectangle,0,137,137,10,1,
,,,,,,,,,,,,,FF,,,,,,,,0.654,,,,,,,,,,,,,,,,,,,,,,61035f2f2b70d404ca70fb15,61036a873946c5585509aede,2021-07-29_22h58.33.242,Simcolourproject_2stim_asymm_v5,2020.2.10,MacIntel,60,61025ae37ef11b136ea224fe,,,,,,,,,2499,49,80,1,0,0,response1disk,,7,17,-3,1,0,0,rectangle,-64,65,1,0,0,response7disk_3,TRUE,0,1,"[7,11,1,157,196,64,252,22,194,275,139,108,108,280,77,116,245,193,138,241]",1.689,35,-18,1,0,0,rectangle,0,138,138,6,1,
,,,,,,,,,,,,,FF,,,,,,,,0.761,,,,,,,,,,,,,,,,,,,,,,61035f2f2b70d404ca70fb15,61036a873946c5585509aede,2021-07-29_22h58.33.242,Simcolourproject_2stim_asymm_v5,2020.2.10,MacIntel,60,61025ae37ef11b136ea224fe,,,,,,,,,859,73,53,1,0,0,response1disk,,6,4,5,1,0,0,rectangle,4,5,1,0,0,,,,,,,4,5,1,0,0,,0,139,139,29,1,
,,,,,,,,,,,,,FF,,,,,,,,0.833,,,,,,,,,,,,,,,,,,,,,,61035f2f2b70d404ca70fb15,61036a873946c5585509aede,2021-07-29_22h58.33.242,Simcolourproject_2stim_asymm_v5,2020.2.10,MacIntel,60,61025ae37ef11b136ea224fe,,,,,,,,,2468,42,63,1,0,0,response1disk,,7,2,-8,1,0,0,rectangle,2,-8,1,0,0,,,,,,,2,-8,1,0,0,,0,140,140,98,1,
,,,,,,,,,,,,,FF,,,,,,,,1.005,,,,,,,,,,,,,,,,,,,,,,61035f2f2b70d404ca70fb15,61036a873946c5585509aede,2021-07-29_22h58.33.242,Simcolourproject_2stim_asymm_v5,2020.2.10,MacIntel,60,61025ae37ef11b136ea224fe,,,,,,,,,2798,93,41,1,0,0,response1disk,,6,21,4,1,0,0,rectangle,21,4,1,0,0,,,,,,,21,4,1,0,0,,0,141,141,133,1,
,,,,,,,,,,,,,FF,,,,,,,,0.63,,,,,,,,,,,,,,,,,,,,,,61035f2f2b70d404ca70fb15,61036a873946c5585509aede,2021-07-29_22h58.33.242,Simcolourproject_2stim_asymm_v5,2020.2.10,MacIntel,60,61025ae37ef11b136ea224fe,,,,,,,,,1968,102,-43,1,0,0,response3disk,,5,13,6,1,0,0,rectangle,13,6,1,0,0,,,,,,,13,6,1,0,0,,0,142,142,30,1,
,,,,,,,,,,,,,FF,,,,,,,,0.798,,,,,,,,,,,,,,,,,,,,,,61035f2f2b70d404ca70fb15,61036a873946c5585509aede,2021-07-29_22h58.33.242,Simcolourproject_2stim_asymm_v5,2020.2.10,MacIntel,60,61025ae37ef11b136ea224fe,,,,,,,,,3626,56,-100,1,0,0,response3disk,,4,5,7,1,0,0,rectangle,5,7,1,0,0,,,,,,,5,7,1,0,0,,0,143,143,103,1,
,,,,,,,,,,,,,FF,,,,,,,,0.674,,,,,,,,,,,,,,,,,,,,,,61035f2f2b70d404ca70fb15,61036a873946c5585509aede,2021-07-29_22h58.33.242,Simcolourproject_2stim_asymm_v5,2020.2.10,MacIntel,60,61025ae37ef11b136ea224fe,,,,,,,,,3846,-51,-104,1,0,0,response5disk,,3,-23,-8,1,0,0,rectangle,-23,-8,1,0,0,,,,,,,-23,-8,1,0,0,,0,144,144,21,1,
,,,,,,,,,,,,,FF,,,,,,,,0.554,,,,,,,,,,,,,,,,,,,,,,61035f2f2b70d404ca70fb15,61036a873946c5585509aede,2021-07-29_22h58.33.242,Simcolourproject_2stim_asymm_v5,2020.2.10,MacIntel,60,61025ae37ef11b136ea224fe,,,,,,,,,776,31,91,1,0,0,response1disk,,7,2,10,1,0,0,rectangle,2,10,1,0,0,,,,,,,2,10,1,0,0,,0,145,145,2,1,
,,,,,,,,,,,,,FF,,,,,,,,1.441,,,,,,,,,,,,,,,,,,,,,,61035f2f2b70d404ca70fb15,61036a873946c5585509aede,2021-07-29_22h58.33.242,Simcolourproject_2stim_asymm_v5,2020.2.10,MacIntel,60,61025ae37ef11b136ea224fe,,,,,,,,,2670,91,-21,1,0,0,response3disk,,5,11,-9,1,0,0,rectangle,11,-9,1,0,0,,,,,,,11,-9,1,0,0,,0,146,146,25,1,
,,,,,,,,,,,,,FF,,,,,,,,0.678,,,,,,,,,,,,,,,,,,,,,,61035f2f2b70d404ca70fb15,61036a873946c5585509aede,2021-07-29_22h58.33.242,Simcolourproject_2stim_asymm_v5,2020.2.10,MacIntel,60,61025ae37ef11b136ea224fe,,,,,,,,,4038,25,82,1,0,0,response1disk,,7,-2,6,1,0,0,rectangle,-2,6,1,0,0,,,,,,,-2,6,1,0,0,,0,147,147,3,1,
,,,,,,,,,,,,,FF,,,,,,,,0.596,,,,,,,,,,,,,,,,,,,,,,61035f2f2b70d404ca70fb15,61036a873946c5585509aede,2021-07-29_22h58.33.242,Simcolourproject_2stim_asymm_v5,2020.2.10,MacIntel,60,61025ae37ef11b136ea224fe,,,,,,,,,3772,45,87,1,0,0,response1disk,,7,10,-13,1,0,0,rectangle,10,-13,1,0,0,,,,,,,10,-13,1,0,0,,0,148,148,132,1,
,,,,,,,,,,,,,FF,,,,,,,,0.489,,,,,,,,,,,,,,,,,,,,,,61035f2f2b70d404ca70fb15,61036a873946c5585509aede,2021-07-29_22h58.33.242,Simcolourproject_2stim_asymm_v5,2020.2.10,MacIntel,60,61025ae37ef11b136ea224fe,,,,,,,,,3018,35,105,1,0,0,response1disk,,7,1,8,1,0,0,rectangle,1,8,1,0,0,,,,,,,1,8,1,0,0,,0,149,149,159,1,
,,,,,,,,,,,,,FF,,,,,,,,0.436,,,,,,,,,,,,,,,,,,,,,,61035f2f2b70d404ca70fb15,61036a873946c5585509aede,2021-07-29_22h58.33.242,Simcolourproject_2stim_asymm_v5,2020.2.10,MacIntel,60,61025ae37ef11b136ea224fe,,,,,,,,,426,38,71,1,0,0,response1disk,,7,15,14,1,0,0,rectangle,15,14,1,0,0,,,,,,,15,14,1,0,0,,0,150,150,155,1,
,,,,,,,,,,,,,FF,,,,,,,,0.717,,,,,,,,,,,,,,,,,,,,,,61035f2f2b70d404ca70fb15,61036a873946c5585509aede,2021-07-29_22h58.33.242,Simcolourproject_2stim_asymm_v5,2020.2.10,MacIntel,60,61025ae37ef11b136ea224fe,,,,,,,,,2019,40,-76,1,0,0,response3disk,,4,23,-8,1,0,0,rectangle,23,-8,1,0,0,,,,,,,23,-8,1,0,0,,0,151,151,66,1,
,,,,,,,,,,,,,FF,,,,,,,,1.046,,,,,,,,,,,,,,,,,,,,,,61035f2f2b70d404ca70fb15,61036a873946c5585509aede,2021-07-29_22h58.33.242,Simcolourproject_2stim_asymm_v5,2020.2.10,MacIntel,60,61025ae37ef11b136ea224fe,,,,,,,,,3623,-92,-22,1,0,0,response5disk,,2,-11,-2,1,0,0,rectangle,-11,-2,1,0,0,,,,,,,-11,-2,1,0,0,,0,152,152,14,1,
,,,,,,,,,,,,,FF,,,,,,,,0.758,,,,,,,,,,,,,,,,,,,,,,61035f2f2b70d404ca70fb15,61036a873946c5585509aede,2021-07-29_22h58.33.242,Simcolourproject_2stim_asymm_v5,2020.2.10,MacIntel,60,61025ae37ef11b136ea224fe,,,,,,,,,4168,-70,53,1,0,0,response7disk,,1,26,1,1,0,0,rectangle,26,1,1,0,0,,,,,,,26,1,1,0,0,,0,153,153,146,1,
,,,,,,,,,,,,,FF,,,,,,,,0.599,,,,,,,,,,,,,,,,,,,,,,61035f2f2b70d404ca70fb15,61036a873946c5585509aede,2021-07-29_22h58.33.242,Simcolourproject_2stim_asymm_v5,2020.2.10,MacIntel,60,61025ae37ef11b136ea224fe,,,,,,,,,1997,42,84,1,0,0,response1disk,,7,19,4,1,0,0,rectangle,19,4,1,0,0,,,,,,,19,4,1,0,0,,0,154,154,79,1,
,,,,,,,,,,,,,FF,,,,,,,,0.629,,,,,,,,,,,,,,,,,,,,,,61035f2f2b70d404ca70fb15,61036a873946c5585509aede,2021-07-29_22h58.33.242,Simcolourproject_2stim_asymm_v5,2020.2.10,MacIntel,60,61025ae37ef11b136ea224fe,,,,,,,,,3262,45,75,1,0,0,response1disk,,7,18,7,1,0,0,rectangle,18,7,1,0,0,,,,,,,18,7,1,0,0,,0,155,155,39,1,
,,,,,,,,,,,,,FF,,,,,,,,0.82,,,,,,,,,,,,,,,,,,,,,,61035f2f2b70d404ca70fb15,61036a873946c5585509aede,2021-07-29_22h58.33.242,Simcolourproject_2stim_asymm_v5,2020.2.10,MacIntel,60,61025ae37ef11b136ea224fe,,,,,,,,,172,-39,92,1,0,0,response7disk,,0,6,-2,1,0,0,rectangle,30,74,1,0,0,response1disk_3,TRUE,7,7,"[7,11,1,157,196,64,252,22,194,275,139,108,108,280,77,116,245,193,138,241]",1.651,19,10,1,0,0,rectangle,0,156,156,135,1,
,,,,,,,,,,,,,FF,,,,,,,,0.919,,,,,,,,,,,,,,,,,,,,,,61035f2f2b70d404ca70fb15,61036a873946c5585509aede,2021-07-29_22h58.33.242,Simcolourproject_2stim_asymm_v5,2020.2.10,MacIntel,60,61025ae37ef11b136ea224fe,,,,,,,,,1907,34,94,1,0,0,response1disk,,7,26,16,1,0,0,rectangle,26,16,1,0,0,,,,,,,26,16,1,0,0,,0,157,157,88,1,
,,,,,,,,,,,,,FF,,,,,,,,0.997,,,,,,,,,,,,,,,,,,,,,,61035f2f2b70d404ca70fb15,61036a873946c5585509aede,2021-07-29_22h58.33.242,Simcolourproject_2stim_asymm_v5,2020.2.10,MacIntel,60,61025ae37ef11b136ea224fe,,,,,,,,,2283,89,49,1,0,0,response1disk,,6,26,2,1,0,0,rectangle,26,2,1,0,0,,,,,,,26,2,1,0,0,,0,158,158,156,1,
,,,,,,,,,,,,,FF,,,,,,,,0.652,,,,,,,,,,,,,,,,,,,,,,61035f2f2b70d404ca70fb15,61036a873946c5585509aede,2021-07-29_22h58.33.242,Simcolourproject_2stim_asymm_v5,2020.2.10,MacIntel,60,61025ae37ef11b136ea224fe,,,,,,,,,3651,32,73,1,0,0,response1disk,,7,0,-5,1,0,0,rectangle,0,-5,1,0,0,,,,,,,0,-5,1,0,0,,0,159,159,57,1,
,,,,,,,,,,,,,FF,,,,,,,,0.658,,,,,,,,,,,,,,,,,,,,,,61035f2f2b70d404ca70fb15,61036a873946c5585509aede,2021-07-29_22h58.33.242,Simcolourproject_2stim_asymm_v5,2020.2.10,MacIntel,60,61025ae37ef11b136ea224fe,,,,,,,,,1119,30,68,1,0,0,response1disk,,7,-13,0,1,0,0,rectangle,-13,0,1,0,0,,,,,,,-13,0,1,0,0,,1,0,160,150,1,
,,,,,,,,,,,,,FF,,,,,,,,0.546,,,,,,,,,,,,,,,,,,,,,,61035f2f2b70d404ca70fb15,61036a873946c5585509aede,2021-07-29_22h58.33.242,Simcolourproject_2stim_asymm_v5,2020.2.10,MacIntel,60,61025ae37ef11b136ea224fe,,,,,,,,,3314,26,53,1,0,0,response1disk,,7,13,13,1,0,0,rectangle,13,13,1,0,0,,,,,,,13,13,1,0,0,,1,1,161,96,1,
,,,,,,,,,,,,,FF,,,,,,,,0.406,,,,,,,,,,,,,,,,,,,,,,61035f2f2b70d404ca70fb15,61036a873946c5585509aede,2021-07-29_22h58.33.242,Simcolourproject_2stim_asymm_v5,2020.2.10,MacIntel,60,61025ae37ef11b136ea224fe,,,,,,,,,3893,45,76,1,0,0,response1disk,,7,9,12,1,0,0,rectangle,9,12,1,0,0,,,,,,,9,12,1,0,0,,1,2,162,85,1,
,,,,,,,,,,,,,FF,,,,,,,,0.487,,,,,,,,,,,,,,,,,,,,,,61035f2f2b70d404ca70fb15,61036a873946c5585509aede,2021-07-29_22h58.33.242,Simcolourproject_2stim_asymm_v5,2020.2.10,MacIntel,60,61025ae37ef11b136ea224fe,,,,,,,,,3119,39,81,1,0,0,response1disk,,7,-11,-6,1,0,0,rectangle,-11,-6,1,0,0,,,,,,,-11,-6,1,0,0,,1,3,163,80,1,
,,,,,,,,,,,,,FF,,,,,,,,0.643,,,,,,,,,,,,,,,,,,,,,,61035f2f2b70d404ca70fb15,61036a873946c5585509aede,2021-07-29_22h58.33.242,Simcolourproject_2stim_asymm_v5,2020.2.10,MacIntel,60,61025ae37ef11b136ea224fe,,,,,,,,,4243,24,73,1,0,0,response1disk,,7,-10,1,1,0,0,rectangle,-10,1,1,0,0,,,,,,,-10,1,1,0,0,,1,4,164,111,1,
,,,,,,,,,,,,,FF,,,,,,,,0.851,,,,,,,,,,,,,,,,,,,,,,61035f2f2b70d404ca70fb15,61036a873946c5585509aede,2021-07-29_22h58.33.242,Simcolourproject_2stim_asymm_v5,2020.2.10,MacIntel,60,61025ae37ef11b136ea224fe,,,,,,,,,3150,-68,-100,1,0,0,response5disk,,3,-8,1,1,0,0,rectangle,-8,1,1,0,0,,,,,,,-8,1,1,0,0,,1,5,165,126,1,
,,,,,,,,,,,,,FF,,,,,,,,1.184,,,,,,,,,,,,,,,,,,,,,,61035f2f2b70d404ca70fb15,61036a873946c5585509aede,2021-07-29_22h58.33.242,Simcolourproject_2stim_asymm_v5,2020.2.10,MacIntel,60,61025ae37ef11b136ea224fe,,,,,,,,,972,-36,-78,1,0,0,response5disk,,3,-4,-6,1,0,0,rectangle,-4,-6,1,0,0,,,,,,,-4,-6,1,0,0,,1,6,166,105,1,
,,,,,,,,,,,,,FF,,,,,,,,0.685,,,,,,,,,,,,,,,,,,,,,,61035f2f2b70d404ca70fb15,61036a873946c5585509aede,2021-07-29_22h58.33.242,Simcolourproject_2stim_asymm_v5,2020.2.10,MacIntel,60,61025ae37ef11b136ea224fe,,,,,,,,,4158,35,-49,1,0,0,response3disk,,4,12,4,1,0,0,rectangle,12,4,1,0,0,,,,,,,12,4,1,0,0,,1,7,167,7,1,
,,,,,,,,,,,,,FF,,,,,,,,0.522,,,,,,,,,,,,,,,,,,,,,,61035f2f2b70d404ca70fb15,61036a873946c5585509aede,2021-07-29_22h58.33.242,Simcolourproject_2stim_asymm_v5,2020.2.10,MacIntel,60,61025ae37ef11b136ea224fe,,,,,,,,,2370,35,63,1,0,0,response1disk,,7,6,14,1,0,0,rectangle,6,14,1,0,0,,,,,,,6,14,1,0,0,,1,8,168,131,1,
,,,,,,,,,,,,,FF,,,,,,,,1.668,,,,,,,,,,,,,,,,,,,,,,61035f2f2b70d404ca70fb15,61036a873946c5585509aede,2021-07-29_22h58.33.242,Simcolourproject_2stim_asymm_v5,2020.2.10,MacIntel,60,61025ae37ef11b136ea224fe,,,,,,,,,811,83,-46,1,0,0,response3disk,,5,16,-4,1,0,0,rectangle,16,-4,1,0,0,,,,,,,16,-4,1,0,0,,1,9,169,42,1,
,,,,,,,,,,,,,FF,,,,,,,,0.572,,,,,,,,,,,,,,,,,,,,,,61035f2f2b70d404ca70fb15,61036a873946c5585509aede,2021-07-29_22h58.33.242,Simcolourproject_2stim_asymm_v5,2020.2.10,MacIntel,60,61025ae37ef11b136ea224fe,,,,,,,,,1862,33,86,1,0,0,response1disk,,7,5,17,1,0,0,rectangle,5,17,1,0,0,,,,,,,5,17,1,0,0,,1,10,170,146,1,
,,,,,,,,,,,,,FF,,,,,,,,0.507,,,,,,,,,,,,,,,,,,,,,,61035f2f2b70d404ca70fb15,61036a873946c5585509aede,2021-07-29_22h58.33.242,Simcolourproject_2stim_asymm_v5,2020.2.10,MacIntel,60,61025ae37ef11b136ea224fe,,,,,,,,,3490,37,100,1,0,0,response1disk,,7,9,-8,1,0,0,rectangle,9,-8,1,0,0,,,,,,,9,-8,1,0,0,,1,11,171,125,1,
,,,,,,,,,,,,,FF,,,,,,,,0.617,,,,,,,,,,,,,,,,,,,,,,61035f2f2b70d404ca70fb15,61036a873946c5585509aede,2021-07-29_22h58.33.242,Simcolourproject_2stim_asymm_v5,2020.2.10,MacIntel,60,61025ae37ef11b136ea224fe,,,,,,,,,1356,42,79,1,0,0,response1disk,,7,13,-3,1,0,0,rectangle,13,-3,1,0,0,,,,,,,13,-3,1,0,0,,1,12,172,54,1,
,,,,,,,,,,,,,FF,,,,,,,,0.546,,,,,,,,,,,,,,,,,,,,,,61035f2f2b70d404ca70fb15,61036a873946c5585509aede,2021-07-29_22h58.33.242,Simcolourproject_2stim_asymm_v5,2020.2.10,MacIntel,60,61025ae37ef11b136ea224fe,,,,,,,,,764,50,88,1,0,0,response1disk,,7,17,0,1,0,0,rectangle,17,0,1,0,0,,,,,,,17,0,1,0,0,,1,13,173,47,1,
,,,,,,,,,,,,,FF,,,,,,,,0.543,,,,,,,,,,,,,,,,,,,,,,61035f2f2b70d404ca70fb15,61036a873946c5585509aede,2021-07-29_22h58.33.242,Simcolourproject_2stim_asymm_v5,2020.2.10,MacIntel,60,61025ae37ef11b136ea224fe,,,,,,,,,149,39,70,1,0,0,response1disk,,7,3,-14,1,0,0,rectangle,3,-14,1,0,0,,,,,,,3,-14,1,0,0,,1,14,174,75,1,
,,,,,,,,,,,,,FF,,,,,,,,0.994,,,,,,,,,,,,,,,,,,,,,,61035f2f2b70d404ca70fb15,61036a873946c5585509aede,2021-07-29_22h58.33.242,Simcolourproject_2stim_asymm_v5,2020.2.10,MacIntel,60,61025ae37ef11b136ea224fe,,,,,,,,,1530,42,-78,1,0,0,response3disk,,4,16,-12,1,0,0,rectangle,16,-12,1,0,0,,,,,,,16,-12,1,0,0,,1,15,175,139,1,
,,,,,,,,,,,,,FF,,,,,,,,0.598,,,,,,,,,,,,,,,,,,,,,,61035f2f2b70d404ca70fb15,61036a873946c5585509aede,2021-07-29_22h58.33.242,Simcolourproject_2stim_asymm_v5,2020.2.10,MacIntel,60,61025ae37ef11b136ea224fe,,,,,,,,,3352,53,89,1,0,0,response1disk,,7,19,-12,1,0,0,rectangle,19,-12,1,0,0,,,,,,,19,-12,1,0,0,,1,16,176,72,1,
,,,,,,,,,,,,,FF,,,,,,,,0.602,,,,,,,,,,,,,,,,,,,,,,61035f2f2b70d404ca70fb15,61036a873946c5585509aede,2021-07-29_22h58.33.242,Simcolourproject_2stim_asymm_v5,2020.2.10,MacIntel,60,61025ae37ef11b136ea224fe,,,,,,,,,4094,46,91,1,0,0,response1disk,,7,0,-12,1,0,0,rectangle,0,-12,1,0,0,,,,,,,0,-12,1,0,0,,1,17,177,60,1,
,,,,,,,,,,,,,FF,,,,,,,,0.646,,,,,,,,,,,,,,,,,,,,,,61035f2f2b70d404ca70fb15,61036a873946c5585509aede,2021-07-29_22h58.33.242,Simcolourproject_2stim_asymm_v5,2020.2.10,MacIntel,60,61025ae37ef11b136ea224fe,,,,,,,,,1006,40,102,1,0,0,response1disk,,7,14,-2,1,0,0,rectangle,14,-2,1,0,0,,,,,,,14,-2,1,0,0,,1,18,178,130,1,
,,,,,,,,,,,,,FF,,,,,,,,1.04,,,,,,,,,,,,,,,,,,,,,,61035f2f2b70d404ca70fb15,61036a873946c5585509aede,2021-07-29_22h58.33.242,Simcolourproject_2stim_asymm_v5,2020.2.10,MacIntel,60,61025ae37ef11b136ea224fe,,,,,,,,,1296,-53,-93,1,0,0,response5disk,,3,-11,-3,1,0,0,rectangle,-11,-3,1,0,0,,,,,,,-11,-3,1,0,0,,1,19,179,140,1,
,,,,,,,,,,,,,FF,,,,,,,,1.386,,,,,,,,,,,,,,,,,,,,,,61035f2f2b70d404ca70fb15,61036a873946c5585509aede,2021-07-29_22h58.33.242,Simcolourproject_2stim_asymm_v5,2020.2.10,MacIntel,60,61025ae37ef11b136ea224fe,,,,,,,,,2351,47,53,1,0,0,response1disk,,7,14,-2,1,0,0,rectangle,14,-2,1,0,0,,,,,,,14,-2,1,0,0,,1,20,180,128,1,
,,,,,,,,,,,,,FF,,,,,,,,1.016,,,,,,,,,,,,,,,,,,,,,,61035f2f2b70d404ca70fb15,61036a873946c5585509aede,2021-07-29_22h58.33.242,Simcolourproject_2stim_asymm_v5,2020.2.10,MacIntel,60,61025ae37ef11b136ea224fe,,,,,,,,,1891,-35,-94,1,0,0,response5disk,,3,-14,-8,1,0,0,rectangle,-14,-8,1,0,0,,,,,,,-14,-8,1,0,0,,1,21,181,37,1,
,,,,,,,,,,,,,FF,,,,,,,,0.67,,,,,,,,,,,,,,,,,,,,,,61035f2f2b70d404ca70fb15,61036a873946c5585509aede,2021-07-29_22h58.33.242,Simcolourproject_2stim_asymm_v5,2020.2.10,MacIntel,60,61025ae37ef11b136ea224fe,,,,,,,,,3156,-83,-33,1,0,0,response5disk,,2,7,-6,1,0,0,rectangle,7,-6,1,0,0,,,,,,,7,-6,1,0,0,,1,22,182,69,1,
,,,,,,,,,,,,,FF,,,,,,,,0.503,,,,,,,,,,,,,,,,,,,,,,61035f2f2b70d404ca70fb15,61036a873946c5585509aede,2021-07-29_22h58.33.242,Simcolourproject_2stim_asymm_v5,2020.2.10,MacIntel,60,61025ae37ef11b136ea224fe,,,,,,,,,898,38,73,1,0,0,response1disk,,7,7,-4,1,0,0,rectangle,7,-4,1,0,0,,,,,,,7,-4,1,0,0,,1,23,183,14,1,
,,,,,,,,,,,,,FF,,,,,,,,0.601,,,,,,,,,,,,,,,,,,,,,,61035f2f2b70d404ca70fb15,61036a873946c5585509aede,2021-07-29_22h58.33.242,Simcolourproject_2stim_asymm_v5,2020.2.10,MacIntel,60,61025ae37ef11b136ea224fe,,,,,,,,,4221,41,62,1,0,0,response1disk,,7,28,-3,1,0,0,rectangle,28,-3,1,0,0,,,,,,,28,-3,1,0,0,,1,24,184,43,1,
,,,,,,,,,,,,,FF,,,,,,,,0.783,,,,,,,,,,,,,,,,,,,,,,61035f2f2b70d404ca70fb15,61036a873946c5585509aede,2021-07-29_22h58.33.242,Simcolourproject_2stim_asymm_v5,2020.2.10,MacIntel,60,61025ae37ef11b136ea224fe,,,,,,,,,3227,30,78,1,0,0,response1disk,,7,-7,-8,1,0,0,rectangle,-7,-8,1,0,0,,,,,,,-7,-8,1,0,0,,1,25,185,2,1,
,,,,,,,,,,,,,FF,,,,,,,,0.764,,,,,,,,,,,,,,,,,,,,,,61035f2f2b70d404ca70fb15,61036a873946c5585509aede,2021-07-29_22h58.33.242,Simcolourproject_2stim_asymm_v5,2020.2.10,MacIntel,60,61025ae37ef11b136ea224fe,,,,,,,,,2326,31,112,1,0,0,response1disk,,7,-1,-18,1,0,0,rectangle,-1,-18,1,0,0,,,,,,,-1,-18,1,0,0,,1,26,186,64,1,
,,,,,,,,,,,,,FF,,,,,,,,1.39,,,,,,,,,,,,,,,,,,,,,,61035f2f2b70d404ca70fb15,61036a873946c5585509aede,2021-07-29_22h58.33.242,Simcolourproject_2stim_asymm_v5,2020.2.10,MacIntel,60,61025ae37ef11b136ea224fe,,,,,,,,,2918,84,29,1,0,0,response1disk,,6,25,7,1,0,0,rectangle,25,7,1,0,0,,,,,,,25,7,1,0,0,,1,27,187,65,1,
,,,,,,,,,,,,,FF,,,,,,,,0.566,,,,,,,,,,,,,,,,,,,,,,61035f2f2b70d404ca70fb15,61036a873946c5585509aede,2021-07-29_22h58.33.242,Simcolourproject_2stim_asymm_v5,2020.2.10,MacIntel,60,61025ae37ef11b136ea224fe,,,,,,,,,2754,32,104,1,0,0,response1disk,,7,4,5,1,0,0,rectangle,4,5,1,0,0,,,,,,,4,5,1,0,0,,1,28,188,52,1,
,,,,,,,,,,,,,FF,,,,,,,,0.458,,,,,,,,,,,,,,,,,,,,,,61035f2f2b70d404ca70fb15,61036a873946c5585509aede,2021-07-29_22h58.33.242,Simcolourproject_2stim_asymm_v5,2020.2.10,MacIntel,60,61025ae37ef11b136ea224fe,,,,,,,,,159,53,79,1,0,0,response1disk,,7,11,1,1,0,0,rectangle,11,1,1,0,0,,,,,,,11,1,1,0,0,,1,29,189,143,1,
,,,,,,,,,,,,,FF,,,,,,,,0.431,,,,,,,,,,,,,,,,,,,,,,61035f2f2b70d404ca70fb15,61036a873946c5585509aede,2021-07-29_22h58.33.242,Simcolourproject_2stim_asymm_v5,2020.2.10,MacIntel,60,61025ae37ef11b136ea224fe,,,,,,,,,2704,35,77,1,0,0,response1disk,,7,18,11,1,0,0,rectangle,18,11,1,0,0,,,,,,,18,11,1,0,0,,1,30,190,36,1,
,,,,,,,,,,,,,FF,,,,,,,,0.427,,,,,,,,,,,,,,,,,,,,,,61035f2f2b70d404ca70fb15,61036a873946c5585509aede,2021-07-29_22h58.33.242,Simcolourproject_2stim_asymm_v5,2020.2.10,MacIntel,60,61025ae37ef11b136ea224fe,,,,,,,,,1192,40,77,1,0,0,response1disk,,7,5,0,1,0,0,rectangle,5,0,1,0,0,,,,,,,5,0,1,0,0,,1,31,191,6,1,
,,,,,,,,,,,,,FF,,,,,,,,0.435,,,,,,,,,,,,,,,,,,,,,,61035f2f2b70d404ca70fb15,61036a873946c5585509aede,2021-07-29_22h58.33.242,Simcolourproject_2stim_asymm_v5,2020.2.10,MacIntel,60,61025ae37ef11b136ea224fe,,,,,,,,,3935,43,81,1,0,0,response1disk,,7,12,-3,1,0,0,rectangle,39,-79,1,0,0,response3disk_3,TRUE,4,4,"[7,11,1,157,196,64,252,22,194,275,139,108,108,280,77,116,245,193,138,241]",1.471,27,-3,1,0,0,rectangle,1,32,192,102,1,
,,,,,,,,,,,,,FF,,,,,,,,0.697,,,,,,,,,,,,,,,,,,,,,,61035f2f2b70d404ca70fb15,61036a873946c5585509aede,2021-07-29_22h58.33.242,Simcolourproject_2stim_asymm_v5,2020.2.10,MacIntel,60,61025ae37ef11b136ea224fe,,,,,,,,,1555,39,95,1,0,0,response1disk,,7,23,17,1,0,0,rectangle,-74,33,1,0,0,response7disk_3,TRUE,1,1,"[7,11,1,157,196,64,252,22,194,275,139,108,108,280,77,116,245,193,138,241]",1.468,2,14,1,0,0,rectangle,1,33,193,34,1,
,,,,,,,,,,,,,FF,,,,,,,,0.538,,,,,,,,,,,,,,,,,,,,,,61035f2f2b70d404ca70fb15,61036a873946c5585509aede,2021-07-29_22h58.33.242,Simcolourproject_2stim_asymm_v5,2020.2.10,MacIntel,60,61025ae37ef11b136ea224fe,,,,,,,,,3136,44,84,1,0,0,response1disk,,7,4,-9,1,0,0,rectangle,4,-9,1,0,0,,,,,,,4,-9,1,0,0,,1,34,194,108,1,
,,,,,,,,,,,,,FF,,,,,,,,0.469,,,,,,,,,,,,,,,,,,,,,,61035f2f2b70d404ca70fb15,61036a873946c5585509aede,2021-07-29_22h58.33.242,Simcolourproject_2stim_asymm_v5,2020.2.10,MacIntel,60,61025ae37ef11b136ea224fe,,,,,,,,,3532,46,79,1,0,0,response1disk,,7,15,3,1,0,0,rectangle,49,-89,1,0,0,response3disk_3,TRUE,4,4,"[7,11,1,157,196,64,252,22,194,275,139,108,108,280,77,116,245,193,138,241]",1.934,15,10,1,0,0,rectangle,1,35,195,48,1,
,,,,,,,,,,,,,FF,,,,,,,,0.816,,,,,,,,,,,,,,,,,,,,,,61035f2f2b70d404ca70fb15,61036a873946c5585509aede,2021-07-29_22h58.33.242,Simcolourproject_2stim_asymm_v5,2020.2.10,MacIntel,60,61025ae37ef11b136ea224fe,,,,,,,,,957,85,45,1,0,0,response1disk,,6,7,9,1,0,0,rectangle,7,9,1,0,0,,,,,,,7,9,1,0,0,,1,36,196,87,1,
,,,,,,,,,,,,,FF,,,,,,,,0.551,,,,,,,,,,,,,,,,,,,,,,61035f2f2b70d404ca70fb15,61036a873946c5585509aede,2021-07-29_22h58.33.242,Simcolourproject_2stim_asymm_v5,2020.2.10,MacIntel,60,61025ae37ef11b136ea224fe,,,,,,,,,2453,30,65,1,0,0,response1disk,,7,12,-14,1,0,0,rectangle,12,-14,1,0,0,,,,,,,12,-14,1,0,0,,1,37,197,152,1,
,,,,,,,,,,,,,FF,,,,,,,,0.518,,,,,,,,,,,,,,,,,,,,,,61035f2f2b70d404ca70fb15,61036a873946c5585509aede,2021-07-29_22h58.33.242,Simcolourproject_2stim_asymm_v5,2020.2.10,MacIntel,60,61025ae37ef11b136ea224fe,,,,,,,,,3019,32,68,1,0,0,response1disk,,7,13,-12,1,0,0,rectangle,13,-12,1,0,0,,,,,,,13,-12,1,0,0,,1,38,198,157,1,
,,,,,,,,,,,,,FF,,,,,,,,0.857,,,,,,,,,,,,,,,,,,,,,,61035f2f2b70d404ca70fb15,61036a873946c5585509aede,2021-07-29_22h58.33.242,Simcolourproject_2stim_asymm_v5,2020.2.10,MacIntel,60,61025ae37ef11b136ea224fe,,,,,,,,,4071,-50,91,1,0,0,response7disk,,0,-5,-3,1,0,0,rectangle,-5,-3,1,0,0,,,,,,,-5,-3,1,0,0,,1,39,199,1,1,
,,,,,,,,,,,,,FF,,,,,,,,0.996,,,,,,,,,,,,,,,,,,,,,,61035f2f2b70d404ca70fb15,61036a873946c5585509aede,2021-07-29_22h58.33.242,Simcolourproject_2stim_asymm_v5,2020.2.10,MacIntel,60,61025ae37ef11b136ea224fe,,,,,,,,,617,-36,-78,1,0,0,response5disk,,3,-8,-5,1,0,0,rectangle,-8,-5,1,0,0,,,,,,,-8,-5,1,0,0,,1,40,200,145,1,
,,,,,,,,,,,,,FF,,,,,,,,0.85,,,,,,,,,,,,,,,,,,,,,,61035f2f2b70d404ca70fb15,61036a873946c5585509aede,2021-07-29_22h58.33.242,Simcolourproject_2stim_asymm_v5,2020.2.10,MacIntel,60,61025ae37ef11b136ea224fe,,,,,,,,,511,75,50,1,0,0,response1disk,,6,6,-7,1,0,0,rectangle,6,-7,1,0,0,,,,,,,6,-7,1,0,0,,1,41,201,115,1,
,,,,,,,,,,,,,FF,,,,,,,,0.606,,,,,,,,,,,,,,,,,,,,,,61035f2f2b70d404ca70fb15,61036a873946c5585509aede,2021-07-29_22h58.33.242,Simcolourproject_2stim_asymm_v5,2020.2.10,MacIntel,60,61025ae37ef11b136ea224fe,,,,,,,,,4329,78,41,1,0,0,response1disk,,6,20,7,1,0,0,rectangle,20,7,1,0,0,,,,,,,20,7,1,0,0,,1,42,202,84,1,
,,,,,,,,,,,,,FF,,,,,,,,1.286,,,,,,,,,,,,,,,,,,,,,,61035f2f2b70d404ca70fb15,61036a873946c5585509aede,2021-07-29_22h58.33.242,Simcolourproject_2stim_asymm_v5,2020.2.10,MacIntel,60,61025ae37ef11b136ea224fe,,,,,,,,,4149,94,-52,1,0,0,response3disk,,5,14,4,1,0,0,rectangle,14,4,1,0,0,,,,,,,14,4,1,0,0,,1,43,203,71,1,
,,,,,,,,,,,,,FF,,,,,,,,0.572,,,,,,,,,,,,,,,,,,,,,,61035f2f2b70d404ca70fb15,61036a873946c5585509aede,2021-07-29_22h58.33.242,Simcolourproject_2stim_asymm_v5,2020.2.10,MacIntel,60,61025ae37ef11b136ea224fe,,,,,,,,,275,46,70,1,0,0,response1disk,,7,12,-5,1,0,0,rectangle,12,-5,1,0,0,,,,,,,12,-5,1,0,0,,1,44,204,58,1,
,,,,,,,,,,,,,FF,,,,,,,,0.871,,,,,,,,,,,,,,,,,,,,,,61035f2f2b70d404ca70fb15,61036a873946c5585509aede,2021-07-29_22h58.33.242,Simcolourproject_2stim_asymm_v5,2020.2.10,MacIntel,60,61025ae37ef11b136ea224fe,,,,,,,,,1653,43,72,1,0,0,response1disk,,7,11,8,1,0,0,rectangle,11,8,1,0,0,,,,,,,11,8,1,0,0,,1,45,205,12,1,
,,,,,,,,,,,,,FF,,,,,,,,0.884,,,,,,,,,,,,,,,,,,,,,,61035f2f2b70d404ca70fb15,61036a873946c5585509aede,2021-07-29_22h58.33.242,Simcolourproject_2stim_asymm_v5,2020.2.10,MacIntel,60,61025ae37ef11b136ea224fe,,,,,,,,,626,40,83,1,0,0,response1disk,,7,-2,-14,1,0,0,rectangle,-2,-14,1,0,0,,,,,,,-2,-14,1,0,0,,1,46,206,141,1,
,,,,,,,,,,,,,FF,,,,,,,,1.217,,,,,,,,,,,,,,,,,,,,,,61035f2f2b70d404ca70fb15,61036a873946c5585509aede,2021-07-29_22h58.33.242,Simcolourproject_2stim_asymm_v5,2020.2.10,MacIntel,60,61025ae37ef11b136ea224fe,,,,,,,,,2472,75,45,1,0,0,response1disk,,6,19,11,1,0,0,rectangle,19,11,1,0,0,,,,,,,19,11,1,0,0,,1,47,207,86,1,
,,,,,,,,,,,,,FF,,,,,,,,0.921,,,,,,,,,,,,,,,,,,,,,,61035f2f2b70d404ca70fb15,61036a873946c5585509aede,2021-07-29_22h58.33.242,Simcolourproject_2stim_asymm_v5,2020.2.10,MacIntel,60,61025ae37ef11b136ea224fe,,,,,,,,,3195,-71,43,1,0,0,response7disk,,1,15,4,1,0,0,rectangle,15,4,1,0,0,,,,,,,15,4,1,0,0,,1,48,208,92,1,
,,,,,,,,,,,,,FF,,,,,,,,0.58,,,,,,,,,,,,,,,,,,,,,,61035f2f2b70d404ca70fb15,61036a873946c5585509aede,2021-07-29_22h58.33.242,Simcolourproject_2stim_asymm_v5,2020.2.10,MacIntel,60,61025ae37ef11b136ea224fe,,,,,,,,,1057,52,67,1,0,0,response1disk,,7,2,-5,1,0,0,rectangle,2,-5,1,0,0,,,,,,,2,-5,1,0,0,,1,49,209,110,1,
,,,,,,,,,,,,,FF,,,,,,,,0.613,,,,,,,,,,,,,,,,,,,,,,61035f2f2b70d404ca70fb15,61036a873946c5585509aede,2021-07-29_22h58.33.242,Simcolourproject_2stim_asymm_v5,2020.2.10,MacIntel,60,61025ae37ef11b136ea224fe,,,,,,,,,459,23,61,1,0,0,response1disk,,7,0,-10,1,0,0,rectangle,0,-10,1,0,0,,,,,,,0,-10,1,0,0,,1,50,210,91,1,
,,,,,,,,,,,,,FF,,,,,,,,0.572,,,,,,,,,,,,,,,,,,,,,,61035f2f2b70d404ca70fb15,61036a873946c5585509aede,2021-07-29_22h58.33.242,Simcolourproject_2stim_asymm_v5,2020.2.10,MacIntel,60,61025ae37ef11b136ea224fe,,,,,,,,,4302,35,68,1,0,0,response1disk,,7,5,1,1,0,0,rectangle,5,1,1,0,0,,,,,,,5,1,1,0,0,,1,51,211,63,1,
,,,,,,,,,,,,,FF,,,,,,,,0.746,,,,,,,,,,,,,,,,,,,,,,61035f2f2b70d404ca70fb15,61036a873946c5585509aede,2021-07-29_22h58.33.242,Simcolourproject_2stim_asymm_v5,2020.2.10,MacIntel,60,61025ae37ef11b136ea224fe,,,,,,,,,969,-38,-75,1,0,0,response5disk,,3,-12,-12,1,0,0,rectangle,-12,-12,1,0,0,,,,,,,-12,-12,1,0,0,,1,52,212,35,1,
,,,,,,,,,,,,,FF,,,,,,,,0.614,,,,,,,,,,,,,,,,,,,,,,61035f2f2b70d404ca70fb15,61036a873946c5585509aede,2021-07-29_22h58.33.242,Simcolourproject_2stim_asymm_v5,2020.2.10,MacIntel,60,61025ae37ef11b136ea224fe,,,,,,,,,2454,18,47,1,0,0,response1disk,,7,-17,-13,1,0,0,rectangle,-17,-13,1,0,0,,,,,,,-17,-13,1,0,0,,1,53,213,15,1,
,,,,,,,,,,,,,FF,,,,,,,,0.681,,,,,,,,,,,,,,,,,,,,,,61035f2f2b70d404ca70fb15,61036a873946c5585509aede,2021-07-29_22h58.33.242,Simcolourproject_2stim_asymm_v5,2020.2.10,MacIntel,60,61025ae37ef11b136ea224fe,,,,,,,,,828,48,79,1,0,0,response1disk,,7,20,15,1,0,0,rectangle,20,15,1,0,0,,,,,,,20,15,1,0,0,,1,54,214,26,1,
,,,,,,,,,,,,,FF,,,,,,,,0.582,,,,,,,,,,,,,,,,,,,,,,61035f2f2b70d404ca70fb15,61036a873946c5585509aede,2021-07-29_22h58.33.242,Simcolourproject_2stim_asymm_v5,2020.2.10,MacIntel,60,61025ae37ef11b136ea224fe,,,,,,,,,236,43,70,1,0,0,response1disk,,7,12,-3,1,0,0,rectangle,12,-3,1,0,0,,,,,,,12,-3,1,0,0,,1,55,215,74,1,
,,,,,,,,,,,,,FF,,,,,,,,1.289,,,,,,,,,,,,,,,,,,,,,,61035f2f2b70d404ca70fb15,61036a873946c5585509aede,2021-07-29_22h58.33.242,Simcolourproject_2stim_asymm_v5,2020.2.10,MacIntel,60,61025ae37ef11b136ea224fe,,,,,,,,,801,-71,44,1,0,0,response7disk,,1,-3,-9,1,0,0,rectangle,-3,-9,1,0,0,,,,,,,-3,-9,1,0,0,,1,56,216,158,1,
,,,,,,,,,,,,,FF,,,,,,,,0.601,,,,,,,,,,,,,,,,,,,,,,61035f2f2b70d404ca70fb15,61036a873946c5585509aede,2021-07-29_22h58.33.242,Simcolourproject_2stim_asymm_v5,2020.2.10,MacIntel,60,61025ae37ef11b136ea224fe,,,,,,,,,2341,36,53,1,0,0,response1disk,,7,6,-13,1,0,0,rectangle,6,-13,1,0,0,,,,,,,6,-13,1,0,0,,1,57,217,153,1,
,,,,,,,,,,,,,FF,,,,,,,,0.601,,,,,,,,,,,,,,,,,,,,,,61035f2f2b70d404ca70fb15,61036a873946c5585509aede,2021-07-29_22h58.33.242,Simcolourproject_2stim_asymm_v5,2020.2.10,MacIntel,60,61025ae37ef11b136ea224fe,,,,,,,,,40,34,65,1,0,0,response1disk,,7,6,5,1,0,0,rectangle,6,5,1,0,0,,,,,,,6,5,1,0,0,,1,58,218,159,1,
,,,,,,,,,,,,,FF,,,,,,,,0.779,,,,,,,,,,,,,,,,,,,,,,61035f2f2b70d404ca70fb15,61036a873946c5585509aede,2021-07-29_22h58.33.242,Simcolourproject_2stim_asymm_v5,2020.2.10,MacIntel,60,61025ae37ef11b136ea224fe,,,,,,,,,557,40,-69,1,0,0,response3disk,,4,21,2,1,0,0,rectangle,21,2,1,0,0,,,,,,,21,2,1,0,0,,1,59,219,100,1,
,,,,,,,,,,,,,FF,,,,,,,,0.821,,,,,,,,,,,,,,,,,,,,,,61035f2f2b70d404ca70fb15,61036a873946c5585509aede,2021-07-29_22h58.33.242,Simcolourproject_2stim_asymm_v5,2020.2.10,MacIntel,60,61025ae37ef11b136ea224fe,,,,,,,,,2062,58,-30,1,0,0,response3disk,,5,1,-17,1,0,0,rectangle,1,-17,1,0,0,,,,,,,1,-17,1,0,0,,1,60,220,132,1,
,,,,,,,,,,,,,FF,,,,,,,,0.631,,,,,,,,,,,,,,,,,,,,,,61035f2f2b70d404ca70fb15,61036a873946c5585509aede,2021-07-29_22h58.33.242,Simcolourproject_2stim_asymm_v5,2020.2.10,MacIntel,60,61025ae37ef11b136ea224fe,,,,,,,,,672,87,53,1,0,0,response1disk,,6,14,5,1,0,0,rectangle,14,5,1,0,0,,,,,,,14,5,1,0,0,,1,61,221,155,1,
,,,,,,,,,,,,,FF,,,,,,,,0.602,,,,,,,,,,,,,,,,,,,,,,61035f2f2b70d404ca70fb15,61036a873946c5585509aede,2021-07-29_22h58.33.242,Simcolourproject_2stim_asymm_v5,2020.2.10,MacIntel,60,61025ae37ef11b136ea224fe,,,,,,,,,1843,43,57,1,0,0,response1disk,,7,8,-7,1,0,0,rectangle,8,-7,1,0,0,,,,,,,8,-7,1,0,0,,1,62,222,20,1,
,,,,,,,,,,,,,FF,,,,,,,,1.012,,,,,,,,,,,,,,,,,,,,,,61035f2f2b70d404ca70fb15,61036a873946c5585509aede,2021-07-29_22h58.33.242,Simcolourproject_2stim_asymm_v5,2020.2.10,MacIntel,60,61025ae37ef11b136ea224fe,,,,,,,,,614,37,82,1,0,0,response1disk,,7,7,15,1,0,0,rectangle,7,15,1,0,0,,,,,,,7,15,1,0,0,,1,63,223,137,1,
,,,,,,,,,,,,,FF,,,,,,,,0.867,,,,,,,,,,,,,,,,,,,,,,61035f2f2b70d404ca70fb15,61036a873946c5585509aede,2021-07-29_22h58.33.242,Simcolourproject_2stim_asymm_v5,2020.2.10,MacIntel,60,61025ae37ef11b136ea224fe,,,,,,,,,4161,-72,42,1,0,0,response7disk,,1,5,1,1,0,0,rectangle,5,1,1,0,0,,,,,,,5,1,1,0,0,,1,64,224,11,1,
,,,,,,,,,,,,,FF,,,,,,,,0.553,,,,,,,,,,,,,,,,,,,,,,61035f2f2b70d404ca70fb15,61036a873946c5585509aede,2021-07-29_22h58.33.242,Simcolourproject_2stim_asymm_v5,2020.2.10,MacIntel,60,61025ae37ef11b136ea224fe,,,,,,,,,2142,45,72,1,0,0,response1disk,,7,8,11,1,0,0,rectangle,8,11,1,0,0,,,,,,,8,11,1,0,0,,1,65,225,73,1,
,,,,,,,,,,,,,FF,,,,,,,,1.216,,,,,,,,,,,,,,,,,,,,,,61035f2f2b70d404ca70fb15,61036a873946c5585509aede,2021-07-29_22h58.33.242,Simcolourproject_2stim_asymm_v5,2020.2.10,MacIntel,60,61025ae37ef11b136ea224fe,,,,,,,,,1972,-22,-86,1,0,0,response5disk,,3,-2,-13,1,0,0,rectangle,-2,-13,1,0,0,,,,,,,-2,-13,1,0,0,,1,66,226,88,1,
,,,,,,,,,,,,,FF,,,,,,,,1.363,,,,,,,,,,,,,,,,,,,,,,61035f2f2b70d404ca70fb15,61036a873946c5585509aede,2021-07-29_22h58.33.242,Simcolourproject_2stim_asymm_v5,2020.2.10,MacIntel,60,61025ae37ef11b136ea224fe,,,,,,,,,3003,65,-42,1,0,0,response3disk,,5,3,-3,1,0,0,rectangle,3,-3,1,0,0,,,,,,,3,-3,1,0,0,,1,67,227,24,1,
,,,,,,,,,,,,,FF,,,,,,,,4.906,,,,,,,,,,,,,,,,,,,,,,61035f2f2b70d404ca70fb15,61036a873946c5585509aede,2021-07-29_22h58.33.242,Simcolourproject_2stim_asymm_v5,2020.2.10,MacIntel,60,61025ae37ef11b136ea224fe,,,,,,,,,30,98,39,1,0,0,response1disk,,6,14,-13,1,0,0,rectangle,14,-13,1,0,0,,,,,,,14,-13,1,0,0,,1,68,228,67,1,
,,,,,,,,,,,,,FF,,,,,,,,2.375,,,,,,,,,,,,,,,,,,,,,,61035f2f2b70d404ca70fb15,61036a873946c5585509aede,2021-07-29_22h58.33.242,Simcolourproject_2stim_asymm_v5,2020.2.10,MacIntel,60,61025ae37ef11b136ea224fe,,,,,,,,,1577,112,36,1,0,0,response1disk,,6,9,-9,1,0,0,rectangle,9,-9,1,0,0,,,,,,,9,-9,1,0,0,,1,69,229,53,1,
,,,,,,,,,,,,,FF,,,,,,,,0.521,,,,,,,,,,,,,,,,,,,,,,61035f2f2b70d404ca70fb15,61036a873946c5585509aede,2021-07-29_22h58.33.242,Simcolourproject_2stim_asymm_v5,2020.2.10,MacIntel,60,61025ae37ef11b136ea224fe,,,,,,,,,600,44,84,1,0,0,response1disk,,7,12,17,1,0,0,rectangle,12,17,1,0,0,,,,,,,12,17,1,0,0,,1,70,230,95,1,
,,,,,,,,,,,,,FF,,,,,,,,0.549,,,,,,,,,,,,,,,,,,,,,,61035f2f2b70d404ca70fb15,61036a873946c5585509aede,2021-07-29_22h58.33.242,Simcolourproject_2stim_asymm_v5,2020.2.10,MacIntel,60,61025ae37ef11b136ea224fe,,,,,,,,,2505,49,62,1,0,0,response1disk,,7,-1,-18,1,0,0,rectangle,-1,-18,1,0,0,,,,,,,-1,-18,1,0,0,,1,71,231,124,1,
,,,,,,,,,,,,,FF,,,,,,,,0.903,,,,,,,,,,,,,,,,,,,,,,61035f2f2b70d404ca70fb15,61036a873946c5585509aede,2021-07-29_22h58.33.242,Simcolourproject_2stim_asymm_v5,2020.2.10,MacIntel,60,61025ae37ef11b136ea224fe,,,,,,,,,3372,58,-59,1,0,0,response3disk,,4,-5,-8,1,0,0,rectangle,-5,-8,1,0,0,,,,,,,-5,-8,1,0,0,,1,72,232,68,1,
,,,,,,,,,,,,,FF,,,,,,,,1,,,,,,,,,,,,,,,,,,,,,,61035f2f2b70d404ca70fb15,61036a873946c5585509aede,2021-07-29_22h58.33.242,Simcolourproject_2stim_asymm_v5,2020.2.10,MacIntel,60,61025ae37ef11b136ea224fe,,,,,,,,,620,-87,-47,1,0,0,response5disk,,2,-6,-2,1,0,0,rectangle,-6,-2,1,0,0,,,,,,,-6,-2,1,0,0,,1,73,233,89,1,
,,,,,,,,,,,,,FF,,,,,,,,0.565,,,,,,,,,,,,,,,,,,,,,,61035f2f2b70d404ca70fb15,61036a873946c5585509aede,2021-07-29_22h58.33.242,Simcolourproject_2stim_asymm_v5,2020.2.10,MacIntel,60,61025ae37ef11b136ea224fe,,,,,,,,,3577,47,94,1,0,0,response1disk,,7,3,0,1,0,0,rectangle,3,0,1,0,0,,,,,,,3,0,1,0,0,,1,74,234,76,1,
,,,,,,,,,,,,,FF,,,,,,,,1.22,,,,,,,,,,,,,,,,,,,,,,61035f2f2b70d404ca70fb15,61036a873946c5585509aede,2021-07-29_22h58.33.242,Simcolourproject_2stim_asymm_v5,2020.2.10,MacIntel,60,61025ae37ef11b136ea224fe,,,,,,,,,4091,26,43,1,0,0,response1disk,,7,11,5,1,0,0,rectangle,11,5,1,0,0,,,,,,,11,5,1,0,0,,1,75,235,16,1,
,,,,,,,,,,,,,FF,,,,,,,,1.838,,,,,,,,,,,,,,,,,,,,,,61035f2f2b70d404ca70fb15,61036a873946c5585509aede,2021-07-29_22h58.33.242,Simcolourproject_2stim_asymm_v5,2020.2.10,MacIntel,60,61025ae37ef11b136ea224fe,,,,,,,,,1437,40,57,1,0,0,response1disk,,7,14,3,1,0,0,rectangle,14,3,1,0,0,,,,,,,14,3,1,0,0,,1,76,236,147,1,
,,,,,,,,,,,,,FF,,,,,,,,0.401,,,,,,,,,,,,,,,,,,,,,,61035f2f2b70d404ca70fb15,61036a873946c5585509aede,2021-07-29_22h58.33.242,Simcolourproject_2stim_asymm_v5,2020.2.10,MacIntel,60,61025ae37ef11b136ea224fe,,,,,,,,,586,39,67,1,0,0,response1disk,,7,5,11,1,0,0,rectangle,5,11,1,0,0,,,,,,,5,11,1,0,0,,1,77,237,136,1,
,,,,,,,,,,,,,FF,,,,,,,,0.631,,,,,,,,,,,,,,,,,,,,,,61035f2f2b70d404ca70fb15,61036a873946c5585509aede,2021-07-29_22h58.33.242,Simcolourproject_2stim_asymm_v5,2020.2.10,MacIntel,60,61025ae37ef11b136ea224fe,,,,,,,,,4210,78,55,1,0,0,response1disk,,6,3,-5,1,0,0,rectangle,3,-5,1,0,0,,,,,,,3,-5,1,0,0,,1,78,238,17,1,
,,,,,,,,,,,,,FF,,,,,,,,1.104,,,,,,,,,,,,,,,,,,,,,,61035f2f2b70d404ca70fb15,61036a873946c5585509aede,2021-07-29_22h58.33.242,Simcolourproject_2stim_asymm_v5,2020.2.10,MacIntel,60,61025ae37ef11b136ea224fe,,,,,,,,,2777,52,-64,1,0,0,response3disk,,4,14,-1,1,0,0,rectangle,14,-1,1,0,0,,,,,,,14,-1,1,0,0,,1,79,239,30,1,
,,,,,,,,,,,,,FF,,,,,,,,1.024,,,,,,,,,,,,,,,,,,,,,,61035f2f2b70d404ca70fb15,61036a873946c5585509aede,2021-07-29_22h58.33.242,Simcolourproject_2stim_asymm_v5,2020.2.10,MacIntel,60,61025ae37ef11b136ea224fe,,,,,,,,,3021,36,71,1,0,0,response1disk,,7,-4,15,1,0,0,rectangle,37,-66,1,0,0,response3disk_3,TRUE,4,4,"[7,11,1,157,196,64,252,22,194,275,139,108,108,280,77,116,245,193,138,241]",2.379,22,-6,1,0,0,rectangle,1,80,240,118,1,
,,,,,,,,,,,,,FF,,,,,,,,0.547,,,,,,,,,,,,,,,,,,,,,,61035f2f2b70d404ca70fb15,61036a873946c5585509aede,2021-07-29_22h58.33.242,Simcolourproject_2stim_asymm_v5,2020.2.10,MacIntel,60,61025ae37ef11b136ea224fe,,,,,,,,,2410,47,51,1,0,0,response1disk,,7,-1,4,1,0,0,rectangle,-1,4,1,0,0,,,,,,,-1,4,1,0,0,,1,81,241,138,1,
,,,,,,,,,,,,,FF,,,,,,,,0.588,,,,,,,,,,,,,,,,,,,,,,61035f2f2b70d404ca70fb15,61036a873946c5585509aede,2021-07-29_22h58.33.242,Simcolourproject_2stim_asymm_v5,2020.2.10,MacIntel,60,61025ae37ef11b136ea224fe,,,,,,,,,2140,24,64,1,0,0,response1disk,,7,-7,9,1,0,0,rectangle,-7,9,1,0,0,,,,,,,-7,9,1,0,0,,1,82,242,59,1,
,,,,,,,,,,,,,FF,,,,,,,,0.51,,,,,,,,,,,,,,,,,,,,,,61035f2f2b70d404ca70fb15,61036a873946c5585509aede,2021-07-29_22h58.33.242,Simcolourproject_2stim_asymm_v5,2020.2.10,MacIntel,60,61025ae37ef11b136ea224fe,,,,,,,,,710,47,72,1,0,0,response1disk,,7,11,10,1,0,0,rectangle,11,10,1,0,0,,,,,,,11,10,1,0,0,,1,83,243,83,1,
,,,,,,,,,,,,,FF,,,,,,,,1.142,,,,,,,,,,,,,,,,,,,,,,61035f2f2b70d404ca70fb15,61036a873946c5585509aede,2021-07-29_22h58.33.242,Simcolourproject_2stim_asymm_v5,2020.2.10,MacIntel,60,61025ae37ef11b136ea224fe,,,,,,,,,971,55,-63,1,0,0,response3disk,,4,14,1,1,0,0,rectangle,-30,71,1,0,0,response7disk_3,TRUE,0,0,"[7,11,1,157,196,64,252,22,194,275,139,108,108,280,77,116,245,193,138,241]",1.471,-13,4,1,0,0,rectangle,1,84,244,109,1,
,,,,,,,,,,,,,FF,,,,,,,,0.638,,,,,,,,,,,,,,,,,,,,,,61035f2f2b70d404ca70fb15,61036a873946c5585509aede,2021-07-29_22h58.33.242,Simcolourproject_2stim_asymm_v5,2020.2.10,MacIntel,60,61025ae37ef11b136ea224fe,,,,,,,,,574,45,76,1,0,0,response1disk,,7,-8,-5,1,0,0,rectangle,-8,-5,1,0,0,,,,,,,-8,-5,1,0,0,,1,85,245,40,1,
,,,,,,,,,,,,,FF,,,,,,,,0.523,,,,,,,,,,,,,,,,,,,,,,61035f2f2b70d404ca70fb15,61036a873946c5585509aede,2021-07-29_22h58.33.242,Simcolourproject_2stim_asymm_v5,2020.2.10,MacIntel,60,61025ae37ef11b136ea224fe,,,,,,,,,1945,81,47,1,0,0,response1disk,,6,10,12,1,0,0,rectangle,10,12,1,0,0,,,,,,,10,12,1,0,0,,1,86,246,93,1,
,,,,,,,,,,,,,FF,,,,,,,,1.029,,,,,,,,,,,,,,,,,,,,,,61035f2f2b70d404ca70fb15,61036a873946c5585509aede,2021-07-29_22h58.33.242,Simcolourproject_2stim_asymm_v5,2020.2.10,MacIntel,60,61025ae37ef11b136ea224fe,,,,,,,,,3998,-53,-76,1,0,0,response5disk,,3,-4,-2,1,0,0,rectangle,-4,-2,1,0,0,,,,,,,-4,-2,1,0,0,,1,87,247,79,1,
,,,,,,,,,,,,,FF,,,,,,,,0.825,,,,,,,,,,,,,,,,,,,,,,61035f2f2b70d404ca70fb15,61036a873946c5585509aede,2021-07-29_22h58.33.242,Simcolourproject_2stim_asymm_v5,2020.2.10,MacIntel,60,61025ae37ef11b136ea224fe,,,,,,,,,1439,83,-54,1,0,0,response3disk,,5,-5,6,1,0,0,rectangle,-5,6,1,0,0,,,,,,,-5,6,1,0,0,,1,88,248,70,1,
,,,,,,,,,,,,,FF,,,,,,,,0.878,,,,,,,,,,,,,,,,,,,,,,61035f2f2b70d404ca70fb15,61036a873946c5585509aede,2021-07-29_22h58.33.242,Simcolourproject_2stim_asymm_v5,2020.2.10,MacIntel,60,61025ae37ef11b136ea224fe,,,,,,,,,2988,45,81,1,0,0,response1disk,,7,18,-2,1,0,0,rectangle,18,-2,1,0,0,,,,,,,18,-2,1,0,0,,1,89,249,149,1,
,,,,,,,,,,,,,FF,,,,,,,,0.589,,,,,,,,,,,,,,,,,,,,,,61035f2f2b70d404ca70fb15,61036a873946c5585509aede,2021-07-29_22h58.33.242,Simcolourproject_2stim_asymm_v5,2020.2.10,MacIntel,60,61025ae37ef11b136ea224fe,,,,,,,,,86,41,70,1,0,0,response1disk,,7,18,-3,1,0,0,rectangle,18,-3,1,0,0,,,,,,,18,-3,1,0,0,,1,90,250,114,1,
,,,,,,,,,,,,,FF,,,,,,,,0.483,,,,,,,,,,,,,,,,,,,,,,61035f2f2b70d404ca70fb15,61036a873946c5585509aede,2021-07-29_22h58.33.242,Simcolourproject_2stim_asymm_v5,2020.2.10,MacIntel,60,61025ae37ef11b136ea224fe,,,,,,,,,592,42,72,1,0,0,response1disk,,7,8,-11,1,0,0,rectangle,104,-28,1,0,0,response3disk_3,TRUE,5,5,"[7,11,1,157,196,64,252,22,194,275,139,108,108,280,77,116,245,193,138,241]",1.483,17,-10,1,0,0,rectangle,1,91,251,18,1,
,,,,,,,,,,,,,FF,,,,,,,,0.774,,,,,,,,,,,,,,,,,,,,,,61035f2f2b70d404ca70fb15,61036a873946c5585509aede,2021-07-29_22h58.33.242,Simcolourproject_2stim_asymm_v5,2020.2.10,MacIntel,60,61025ae37ef11b136ea224fe,,,,,,,,,4332,30,56,1,0,0,response1disk,,7,-7,-2,1,0,0,rectangle,-7,-2,1,0,0,,,,,,,-7,-2,1,0,0,,1,92,252,57,1,
,,,,,,,,,,,,,FF,,,,,,,,0.563,,,,,,,,,,,,,,,,,,,,,,61035f2f2b70d404ca70fb15,61036a873946c5585509aede,2021-07-29_22h58.33.242,Simcolourproject_2stim_asymm_v5,2020.2.10,MacIntel,60,61025ae37ef11b136ea224fe,,,,,,,,,206,43,72,1,0,0,response1disk,,7,7,0,1,0,0,rectangle,7,0,1,0,0,,,,,,,7,0,1,0,0,,1,93,253,27,1,
,,,,,,,,,,,,,FF,,,,,,,,0.432,,,,,,,,,,,,,,,,,,,,,,61035f2f2b70d404ca70fb15,61036a873946c5585509aede,2021-07-29_22h58.33.242,Simcolourproject_2stim_asymm_v5,2020.2.10,MacIntel,60,61025ae37ef11b136ea224fe,,,,,,,,,493,37,86,1,0,0,response1disk,,7,-4,-6,1,0,0,rectangle,-4,-6,1,0,0,,,,,,,-4,-6,1,0,0,,1,94,254,45,1,
,,,,,,,,,,,,,FF,,,,,,,,0.456,,,,,,,,,,,,,,,,,,,,,,61035f2f2b70d404ca70fb15,61036a873946c5585509aede,2021-07-29_22h58.33.242,Simcolourproject_2stim_asymm_v5,2020.2.10,MacIntel,60,61025ae37ef11b136ea224fe,,,,,,,,,1250,63,27,1,0,0,response1disk,,6,8,3,1,0,0,rectangle,8,3,1,0,0,,,,,,,8,3,1,0,0,,1,95,255,55,1,
,,,,,,,,,,,,,FF,,,,,,,,0.867,,,,,,,,,,,,,,,,,,,,,,61035f2f2b70d404ca70fb15,61036a873946c5585509aede,2021-07-29_22h58.33.242,Simcolourproject_2stim_asymm_v5,2020.2.10,MacIntel,60,61025ae37ef11b136ea224fe,,,,,,,,,1460,-73,-34,1,0,0,response5disk,,2,-11,-6,1,0,0,rectangle,-11,-6,1,0,0,,,,,,,-11,-6,1,0,0,,1,96,256,123,1,
,,,,,,,,,,,,,FF,,,,,,,,0.6,,,,,,,,,,,,,,,,,,,,,,61035f2f2b70d404ca70fb15,61036a873946c5585509aede,2021-07-29_22h58.33.242,Simcolourproject_2stim_asymm_v5,2020.2.10,MacIntel,60,61025ae37ef11b136ea224fe,,,,,,,,,2857,29,65,1,0,0,response1disk,,7,-3,-7,1,0,0,rectangle,-3,-7,1,0,0,,,,,,,-3,-7,1,0,0,,1,97,257,32,1,
,,,,,,,,,,,,,FF,,,,,,,,0.929,,,,,,,,,,,,,,,,,,,,,,61035f2f2b70d404ca70fb15,61036a873946c5585509aede,2021-07-29_22h58.33.242,Simcolourproject_2stim_asymm_v5,2020.2.10,MacIntel,60,61025ae37ef11b136ea224fe,,,,,,,,,4130,39,67,1,0,0,response1disk,,7,9,4,1,0,0,rectangle,9,4,1,0,0,,,,,,,9,4,1,0,0,,1,98,258,31,1,
,,,,,,,,,,,,,FF,,,,,,,,0.459,,,,,,,,,,,,,,,,,,,,,,61035f2f2b70d404ca70fb15,61036a873946c5585509aede,2021-07-29_22h58.33.242,Simcolourproject_2stim_asymm_v5,2020.2.10,MacIntel,60,61025ae37ef11b136ea224fe,,,,,,,,,4063,40,88,1,0,0,response1disk,,7,6,3,1,0,0,rectangle,6,3,1,0,0,,,,,,,6,3,1,0,0,,1,99,259,8,1,
,,,,,,,,,,,,,FF,,,,,,,,0.515,,,,,,,,,,,,,,,,,,,,,,61035f2f2b70d404ca70fb15,61036a873946c5585509aede,2021-07-29_22h58.33.242,Simcolourproject_2stim_asymm_v5,2020.2.10,MacIntel,60,61025ae37ef11b136ea224fe,,,,,,,,,1527,47,66,1,0,0,response1disk,,7,9,-14,1,0,0,rectangle,9,-14,1,0,0,,,,,,,9,-14,1,0,0,,1,100,260,78,1,
,,,,,,,,,,,,,FF,,,,,,,,0.431,,,,,,,,,,,,,,,,,,,,,,61035f2f2b70d404ca70fb15,61036a873946c5585509aede,2021-07-29_22h58.33.242,Simcolourproject_2stim_asymm_v5,2020.2.10,MacIntel,60,61025ae37ef11b136ea224fe,,,,,,,,,3933,61,99,1,0,0,response1disk,,7,17,5,1,0,0,rectangle,17,5,1,0,0,,,,,,,17,5,1,0,0,,1,101,261,77,1,
,,,,,,,,,,,,,FF,,,,,,,,0.451,,,,,,,,,,,,,,,,,,,,,,61035f2f2b70d404ca70fb15,61036a873946c5585509aede,2021-07-29_22h58.33.242,Simcolourproject_2stim_asymm_v5,2020.2.10,MacIntel,60,61025ae37ef11b136ea224fe,,,,,,,,,670,58,62,1,0,0,response1disk,,7,10,-4,1,0,0,rectangle,10,-4,1,0,0,,,,,,,10,-4,1,0,0,,1,102,262,156,1,
,,,,,,,,,,,,,FF,,,,,,,,0.511,,,,,,,,,,,,,,,,,,,,,,61035f2f2b70d404ca70fb15,61036a873946c5585509aede,2021-07-29_22h58.33.242,Simcolourproject_2stim_asymm_v5,2020.2.10,MacIntel,60,61025ae37ef11b136ea224fe,,,,,,,,,3697,25,83,1,0,0,response1disk,,7,-2,-2,1,0,0,rectangle,-2,-2,1,0,0,,,,,,,-2,-2,1,0,0,,1,103,263,10,1,
,,,,,,,,,,,,,FF,,,,,,,,0.686,,,,,,,,,,,,,,,,,,,,,,61035f2f2b70d404ca70fb15,61036a873946c5585509aede,2021-07-29_22h58.33.242,Simcolourproject_2stim_asymm_v5,2020.2.10,MacIntel,60,61025ae37ef11b136ea224fe,,,,,,,,,1399,31,91,1,0,0,response1disk,,7,1,-1,1,0,0,rectangle,1,-1,1,0,0,,,,,,,1,-1,1,0,0,,1,104,264,9,1,
,,,,,,,,,,,,,FF,,,,,,,,1.051,,,,,,,,,,,,,,,,,,,,,,61035f2f2b70d404ca70fb15,61036a873946c5585509aede,2021-07-29_22h58.33.242,Simcolourproject_2stim_asymm_v5,2020.2.10,MacIntel,60,61025ae37ef11b136ea224fe,,,,,,,,,3330,76,-35,1,0,0,response3disk,,5,1,-8,1,0,0,rectangle,1,-8,1,0,0,,,,,,,1,-8,1,0,0,,1,105,265,38,1,
,,,,,,,,,,,,,FF,,,,,,,,0.969,,,,,,,,,,,,,,,,,,,,,,61035f2f2b70d404ca70fb15,61036a873946c5585509aede,2021-07-29_22h58.33.242,Simcolourproject_2stim_asymm_v5,2020.2.10,MacIntel,60,61025ae37ef11b136ea224fe,,,,,,,,,1223,65,32,1,0,0,response1disk,,6,22,5,1,0,0,rectangle,22,5,1,0,0,,,,,,,22,5,1,0,0,,1,106,266,106,1,
,,,,,,,,,,,,,FF,,,,,,,,0.819,,,,,,,,,,,,,,,,,,,,,,61035f2f2b70d404ca70fb15,61036a873946c5585509aede,2021-07-29_22h58.33.242,Simcolourproject_2stim_asymm_v5,2020.2.10,MacIntel,60,61025ae37ef11b136ea224fe,,,,,,,,,869,33,89,1,0,0,response1disk,,7,0,12,1,0,0,rectangle,0,12,1,0,0,,,,,,,0,12,1,0,0,,1,107,267,142,1,
,,,,,,,,,,,,,FF,,,,,,,,0.573,,,,,,,,,,,,,,,,,,,,,,61035f2f2b70d404ca70fb15,61036a873946c5585509aede,2021-07-29_22h58.33.242,Simcolourproject_2stim_asymm_v5,2020.2.10,MacIntel,60,61025ae37ef11b136ea224fe,,,,,,,,,2131,38,59,1,0,0,response1disk,,7,12,-2,1,0,0,rectangle,12,-2,1,0,0,,,,,,,12,-2,1,0,0,,1,108,268,98,1,
,,,,,,,,,,,,,FF,,,,,,,,1.283,,,,,,,,,,,,,,,,,,,,,,61035f2f2b70d404ca70fb15,61036a873946c5585509aede,2021-07-29_22h58.33.242,Simcolourproject_2stim_asymm_v5,2020.2.10,MacIntel,60,61025ae37ef11b136ea224fe,,,,,,,,,1312,81,44,1,0,0,response1disk,,6,-1,-2,1,0,0,rectangle,-1,-2,1,0,0,,,,,,,-1,-2,1,0,0,,1,109,269,21,1,
,,,,,,,,,,,,,FF,,,,,,,,0.606,,,,,,,,,,,,,,,,,,,,,,61035f2f2b70d404ca70fb15,61036a873946c5585509aede,2021-07-29_22h58.33.242,Simcolourproject_2stim_asymm_v5,2020.2.10,MacIntel,60,61025ae37ef11b136ea224fe,,,,,,,,,2032,80,-49,1,0,0,response3disk,,5,-6,0,1,0,0,rectangle,-6,0,1,0,0,,,,,,,-6,0,1,0,0,,1,110,270,3,1,
,,,,,,,,,,,,,FF,,,,,,,,0.568,,,,,,,,,,,,,,,,,,,,,,61035f2f2b70d404ca70fb15,61036a873946c5585509aede,2021-07-29_22h58.33.242,Simcolourproject_2stim_asymm_v5,2020.2.10,MacIntel,60,61025ae37ef11b136ea224fe,,,,,,,,,3183,36,67,1,0,0,response1disk,,7,-5,-6,1,0,0,rectangle,-5,-6,1,0,0,,,,,,,-5,-6,1,0,0,,1,111,271,19,1,
,,,,,,,,,,,,,FF,,,,,,,,0.77,,,,,,,,,,,,,,,,,,,,,,61035f2f2b70d404ca70fb15,61036a873946c5585509aede,2021-07-29_22h58.33.242,Simcolourproject_2stim_asymm_v5,2020.2.10,MacIntel,60,61025ae37ef11b136ea224fe,,,,,,,,,2780,49,-83,1,0,0,response3disk,,4,21,12,1,0,0,rectangle,21,12,1,0,0,,,,,,,21,12,1,0,0,,1,112,272,13,1,
,,,,,,,,,,,,,FF,,,,,,,,0.546,,,,,,,,,,,,,,,,,,,,,,61035f2f2b70d404ca70fb15,61036a873946c5585509aede,2021-07-29_22h58.33.242,Simcolourproject_2stim_asymm_v5,2020.2.10,MacIntel,60,61025ae37ef11b136ea224fe,,,,,,,,,1738,51,75,1,0,0,response1disk,,7,10,-11,1,0,0,rectangle,10,-11,1,0,0,,,,,,,10,-11,1,0,0,,1,113,273,121,1,
,,,,,,,,,,,,,FF,,,,,,,,0.603,,,,,,,,,,,,,,,,,,,,,,61035f2f2b70d404ca70fb15,61036a873946c5585509aede,2021-07-29_22h58.33.242,Simcolourproject_2stim_asymm_v5,2020.2.10,MacIntel,60,61025ae37ef11b136ea224fe,,,,,,,,,4306,-63,-101,1,0,0,response5disk,,3,3,-4,1,0,0,rectangle,52,87,1,0,0,response1disk_3,TRUE,7,7,"[7,11,1,157,196,64,252,22,194,275,139,108,108,280,77,116,245,193,138,241]",2.178,3,16,1,0,0,rectangle,1,114,274,104,1,
,,,,,,,,,,,,,FF,,,,,,,,1.464,,,,,,,,,,,,,,,,,,,,,,61035f2f2b70d404ca70fb15,61036a873946c5585509aede,2021-07-29_22h58.33.242,Simcolourproject_2stim_asymm_v5,2020.2.10,MacIntel,60,61025ae37ef11b136ea224fe,,,,,,,,,2475,76,40,1,0,0,response1disk,,6,24,7,1,0,0,rectangle,24,7,1,0,0,,,,,,,24,7,1,0,0,,1,115,275,99,1,
,,,,,,,,,,,,,FF,,,,,,,,0.53,,,,,,,,,,,,,,,,,,,,,,61035f2f2b70d404ca70fb15,61036a873946c5585509aede,2021-07-29_22h58.33.242,Simcolourproject_2stim_asymm_v5,2020.2.10,MacIntel,60,61025ae37ef11b136ea224fe,,,,,,,,,155,29,89,1,0,0,response1disk,,7,-5,-9,1,0,0,rectangle,-5,-9,1,0,0,,,,,,,-5,-9,1,0,0,,1,116,276,0,1,
,,,,,,,,,,,,,FF,,,,,,,,0.639,,,,,,,,,,,,,,,,,,,,,,61035f2f2b70d404ca70fb15,61036a873946c5585509aede,2021-07-29_22h58.33.242,Simcolourproject_2stim_asymm_v5,2020.2.10,MacIntel,60,61025ae37ef11b136ea224fe,,,,,,,,,897,37,83,1,0,0,response1disk,,7,-6,-9,1,0,0,rectangle,-6,-9,1,0,0,,,,,,,-6,-9,1,0,0,,1,117,277,134,1,
,,,,,,,,,,,,,FF,,,,,,,,0.644,,,,,,,,,,,,,,,,,,,,,,61035f2f2b70d404ca70fb15,61036a873946c5585509aede,2021-07-29_22h58.33.242,Simcolourproject_2stim_asymm_v5,2020.2.10,MacIntel,60,61025ae37ef11b136ea224fe,,,,,,,,,1004,37,88,1,0,0,response1disk,,7,9,-1,1,0,0,rectangle,9,-1,1,0,0,,,,,,,9,-1,1,0,0,,1,118,278,39,1,
,,,,,,,,,,,,,FF,,,,,,,,0.488,,,,,,,,,,,,,,,,,,,,,,61035f2f2b70d404ca70fb15,61036a873946c5585509aede,2021-07-29_22h58.33.242,Simcolourproject_2stim_asymm_v5,2020.2.10,MacIntel,60,61025ae37ef11b136ea224fe,,,,,,,,,1339,32,79,1,0,0,response1disk,,7,7,0,1,0,0,rectangle,43,-89,1,0,0,response3disk_3,TRUE,4,4,"[7,11,1,157,196,64,252,22,194,275,139,108,108,280,77,116,245,193,138,241]",1.455,26,-2,1,0,0,rectangle,1,119,279,154,1,
,,,,,,,,,,,,,FF,,,,,,,,1.478,,,,,,,,,,,,,,,,,,,,,,61035f2f2b70d404ca70fb15,61036a873946c5585509aede,2021-07-29_22h58.33.242,Simcolourproject_2stim_asymm_v5,2020.2.10,MacIntel,60,61025ae37ef11b136ea224fe,,,,,,,,,1008,46,74,1,0,0,response1disk,,7,5,-13,1,0,0,rectangle,5,-13,1,0,0,,,,,,,5,-13,1,0,0,,1,120,280,148,1,
,,,,,,,,,,,,,FF,,,,,,,,0.52,,,,,,,,,,,,,,,,,,,,,,61035f2f2b70d404ca70fb15,61036a873946c5585509aede,2021-07-29_22h58.33.242,Simcolourproject_2stim_asymm_v5,2020.2.10,MacIntel,60,61025ae37ef11b136ea224fe,,,,,,,,,449,32,62,1,0,0,response1disk,,7,8,4,1,0,0,rectangle,8,4,1,0,0,,,,,,,8,4,1,0,0,,1,121,281,50,1,
,,,,,,,,,,,,,FF,,,,,,,,0.698,,,,,,,,,,,,,,,,,,,,,,61035f2f2b70d404ca70fb15,61036a873946c5585509aede,2021-07-29_22h58.33.242,Simcolourproject_2stim_asymm_v5,2020.2.10,MacIntel,60,61025ae37ef11b136ea224fe,,,,,,,,,150,35,82,1,0,0,response1disk,,7,-4,3,1,0,0,rectangle,-4,3,1,0,0,,,,,,,-4,3,1,0,0,,1,122,282,66,1,
,,,,,,,,,,,,,FF,,,,,,,,0.876,,,,,,,,,,,,,,,,,,,,,,61035f2f2b70d404ca70fb15,61036a873946c5585509aede,2021-07-29_22h58.33.242,Simcolourproject_2stim_asymm_v5,2020.2.10,MacIntel,60,61025ae37ef11b136ea224fe,,,,,,,,,190,50,-81,1,0,0,response3disk,,4,21,-10,1,0,0,rectangle,21,-10,1,0,0,,,,,,,21,-10,1,0,0,,1,123,283,56,1,
,,,,,,,,,,,,,FF,,,,,,,,0.968,,,,,,,,,,,,,,,,,,,,,,61035f2f2b70d404ca70fb15,61036a873946c5585509aede,2021-07-29_22h58.33.242,Simcolourproject_2stim_asymm_v5,2020.2.10,MacIntel,60,61025ae37ef11b136ea224fe,,,,,,,,,308,22,83,1,0,0,response1disk,,7,-8,-2,1,0,0,rectangle,-8,-2,1,0,0,,,,,,,-8,-2,1,0,0,,1,124,284,116,1,
,,,,,,,,,,,,,FF,,,,,,,,0.524,,,,,,,,,,,,,,,,,,,,,,61035f2f2b70d404ca70fb15,61036a873946c5585509aede,2021-07-29_22h58.33.242,Simcolourproject_2stim_asymm_v5,2020.2.10,MacIntel,60,61025ae37ef11b136ea224fe,,,,,,,,,2059,42,59,1,0,0,response1disk,,7,12,8,1,0,0,rectangle,12,8,1,0,0,,,,,,,12,8,1,0,0,,1,125,285,94,1,
,,,,,,,,,,,,,FF,,,,,,,,0.86,,,,,,,,,,,,,,,,,,,,,,61035f2f2b70d404ca70fb15,61036a873946c5585509aede,2021-07-29_22h58.33.242,Simcolourproject_2stim_asymm_v5,2020.2.10,MacIntel,60,61025ae37ef11b136ea224fe,,,,,,,,,992,43,82,1,0,0,response1disk,,7,11,-12,1,0,0,rectangle,11,-12,1,0,0,,,,,,,11,-12,1,0,0,,1,126,286,46,1,
,,,,,,,,,,,,,FF,,,,,,,,0.93,,,,,,,,,,,,,,,,,,,,,,61035f2f2b70d404ca70fb15,61036a873946c5585509aede,2021-07-29_22h58.33.242,Simcolourproject_2stim_asymm_v5,2020.2.10,MacIntel,60,61025ae37ef11b136ea224fe,,,,,,,,,0,-78,21,1,0,0,response7disk,,1,5,-3,1,0,0,rectangle,5,-3,1,0,0,,,,,,,5,-3,1,0,0,,1,127,287,127,1,
,,,,,,,,,,,,,FF,,,,,,,,0.527,,,,,,,,,,,,,,,,,,,,,,61035f2f2b70d404ca70fb15,61036a873946c5585509aede,2021-07-29_22h58.33.242,Simcolourproject_2stim_asymm_v5,2020.2.10,MacIntel,60,61025ae37ef11b136ea224fe,,,,,,,,,2571,38,80,1,0,0,response1disk,,7,4,-3,1,0,0,rectangle,4,-3,1,0,0,,,,,,,4,-3,1,0,0,,1,128,288,25,1,
,,,,,,,,,,,,,FF,,,,,,,,1.6,,,,,,,,,,,,,,,,,,,,,,61035f2f2b70d404ca70fb15,61036a873946c5585509aede,2021-07-29_22h58.33.242,Simcolourproject_2stim_asymm_v5,2020.2.10,MacIntel,60,61025ae37ef11b136ea224fe,,,,,,,,,1237,85,46,1,0,0,response1disk,,6,3,2,1,0,0,rectangle,3,2,1,0,0,,,,,,,3,2,1,0,0,,1,129,289,44,1,
,,,,,,,,,,,,,FF,,,,,,,,0.867,,,,,,,,,,,,,,,,,,,,,,61035f2f2b70d404ca70fb15,61036a873946c5585509aede,2021-07-29_22h58.33.242,Simcolourproject_2stim_asymm_v5,2020.2.10,MacIntel,60,61025ae37ef11b136ea224fe,,,,,,,,,2228,-91,-45,1,0,0,response5disk,,2,3,12,1,0,0,rectangle,3,12,1,0,0,,,,,,,3,12,1,0,0,,1,130,290,28,1,
,,,,,,,,,,,,,FF,,,,,,,,0.584,,,,,,,,,,,,,,,,,,,,,,61035f2f2b70d404ca70fb15,61036a873946c5585509aede,2021-07-29_22h58.33.242,Simcolourproject_2stim_asymm_v5,2020.2.10,MacIntel,60,61025ae37ef11b136ea224fe,,,,,,,,,87,49,80,1,0,0,response1disk,,7,4,4,1,0,0,rectangle,4,4,1,0,0,,,,,,,4,4,1,0,0,,1,131,291,61,1,
,,,,,,,,,,,,,FF,,,,,,,,0.547,,,,,,,,,,,,,,,,,,,,,,61035f2f2b70d404ca70fb15,61036a873946c5585509aede,2021-07-29_22h58.33.242,Simcolourproject_2stim_asymm_v5,2020.2.10,MacIntel,60,61025ae37ef11b136ea224fe,,,,,,,,,2208,32,83,1,0,0,response1disk,,7,0,-11,1,0,0,rectangle,0,-11,1,0,0,,,,,,,0,-11,1,0,0,,1,132,292,49,1,
,,,,,,,,,,,,,FF,,,,,,,,1.948,,,,,,,,,,,,,,,,,,,,,,61035f2f2b70d404ca70fb15,61036a873946c5585509aede,2021-07-29_22h58.33.242,Simcolourproject_2stim_asymm_v5,2020.2.10,MacIntel,60,61025ae37ef11b136ea224fe,,,,,,,,,4111,76,42,1,0,0,response1disk,,6,-4,9,1,0,0,rectangle,-4,9,1,0,0,,,,,,,-4,9,1,0,0,,1,133,293,122,1,
,,,,,,,,,,,,,FF,,,,,,,,0.705,,,,,,,,,,,,,,,,,,,,,,61035f2f2b70d404ca70fb15,61036a873946c5585509aede,2021-07-29_22h58.33.242,Simcolourproject_2stim_asymm_v5,2020.2.10,MacIntel,60,61025ae37ef11b136ea224fe,,,,,,,,,1277,38,66,1,0,0,response1disk,,7,12,-8,1,0,0,rectangle,12,-8,1,0,0,,,,,,,12,-8,1,0,0,,1,134,294,41,1,
,,,,,,,,,,,,,FF,,,,,,,,0.501,,,,,,,,,,,,,,,,,,,,,,61035f2f2b70d404ca70fb15,61036a873946c5585509aede,2021-07-29_22h58.33.242,Simcolourproject_2stim_asymm_v5,2020.2.10,MacIntel,60,61025ae37ef11b136ea224fe,,,,,,,,,3581,49,83,1,0,0,response1disk,,7,21,-8,1,0,0,rectangle,21,-8,1,0,0,,,,,,,21,-8,1,0,0,,1,135,295,81,1,
,,,,,,,,,,,,,FF,,,,,,,,0.559,,,,,,,,,,,,,,,,,,,,,,61035f2f2b70d404ca70fb15,61036a873946c5585509aede,2021-07-29_22h58.33.242,Simcolourproject_2stim_asymm_v5,2020.2.10,MacIntel,60,61025ae37ef11b136ea224fe,,,,,,,,,910,59,90,1,0,0,response1disk,,7,18,-16,1,0,0,rectangle,18,-16,1,0,0,,,,,,,18,-16,1,0,0,,1,136,296,33,1,
,,,,,,,,,,,,,FF,,,,,,,,0.559,,,,,,,,,,,,,,,,,,,,,,61035f2f2b70d404ca70fb15,61036a873946c5585509aede,2021-07-29_22h58.33.242,Simcolourproject_2stim_asymm_v5,2020.2.10,MacIntel,60,61025ae37ef11b136ea224fe,,,,,,,,,2455,23,99,1,0,0,response1disk,,7,4,-5,1,0,0,rectangle,4,-5,1,0,0,,,,,,,4,-5,1,0,0,,1,137,297,144,1,
,,,,,,,,,,,,,FF,,,,,,,,0.482,,,,,,,,,,,,,,,,,,,,,,61035f2f2b70d404ca70fb15,61036a873946c5585509aede,2021-07-29_22h58.33.242,Simcolourproject_2stim_asymm_v5,2020.2.10,MacIntel,60,61025ae37ef11b136ea224fe,,,,,,,,,2499,29,81,1,0,0,response1disk,,7,7,-4,1,0,0,rectangle,7,-4,1,0,0,,,,,,,7,-4,1,0,0,,1,138,298,90,1,
,,,,,,,,,,,,,FF,,,,,,,,0.526,,,,,,,,,,,,,,,,,,,,,,61035f2f2b70d404ca70fb15,61036a873946c5585509aede,2021-07-29_22h58.33.242,Simcolourproject_2stim_asymm_v5,2020.2.10,MacIntel,60,61025ae37ef11b136ea224fe,,,,,,,,,859,51,80,1,0,0,response1disk,,7,6,-18,1,0,0,rectangle,6,-18,1,0,0,,,,,,,6,-18,1,0,0,,1,139,299,120,1,
,,,,,,,,,,,,,FF,,,,,,,,0.885,,,,,,,,,,,,,,,,,,,,,,61035f2f2b70d404ca70fb15,61036a873946c5585509aede,2021-07-29_22h58.33.242,Simcolourproject_2stim_asymm_v5,2020.2.10,MacIntel,60,61025ae37ef11b136ea224fe,,,,,,,,,2468,85,53,1,0,0,response1disk,,6,-2,-6,1,0,0,rectangle,-2,-6,1,0,0,,,,,,,-2,-6,1,0,0,,1,140,300,119,1,
