key_resp.keys,key_resp.rt,key_resp_14.keys,key_resp_14.rt,key_resp_15.keys,key_resp_15.rt,key_resp_17.keys,key_resp_17.rt,key_resp_9.keys,key_resp_9.rt,key_resp_10.keys,key_resp_10.rt,practice_comparison,Ecc,mouse_5.x,mouse_5.y,mouse_5.leftButton,mouse_5.midButton,mouse_5.rightButton,mouse_5.clicked_name,pracsimilarity,response_time,mouse_10.x,mouse_10.y,mouse_10.leftButton,mouse_10.midButton,mouse_10.rightButton,mouse_10.clicked_name,mouse_7.x,mouse_7.y,mouse_7.leftButton,mouse_7.midButton,mouse_7.rightButton,mouse_6.x,mouse_6.y,mouse_6.leftButton,mouse_6.midButton,mouse_6.rightButton,duringprac.thisRepN,duringprac.thisTrialN,duringprac.thisN,duringprac.thisIndex,duringprac.ran,participant,session,date,expName,psychopyVersion,OS,frameRate,study_id,mouse_7.clicked_name,catchpracsimilarity,catch_response_time,catchnumberprac,catchtrialorderprac,mouse_6.clicked_name,key_resp_22.keys,key_resp_22.rt,realcomparison,mouse.x,mouse.y,mouse.leftButton,mouse.midButton,mouse.rightButton,mouse.clicked_name,Colour2,similarity,mouse_2.x,mouse_2.y,mouse_2.leftButton,mouse_2.midButton,mouse_2.rightButton,mouse_2.clicked_name,mouse_3.x,mouse_3.y,mouse_3.leftButton,mouse_3.midButton,mouse_3.rightButton,mouse_11.x,mouse_11.y,mouse_11.leftButton,mouse_11.midButton,mouse_11.rightButton,trials_2.thisRepN,trials_2.thisTrialN,trials_2.thisN,trials_2.thisIndex,trials_2.ran,Colour1,mouse_3.clicked_name,catchornah,catchsimilarity,catchnumber,catchtrialorder,catchRT,mouse_11.clicked_name
space,1.7339,space,3.3978,space,10.8116,space,3.1587,space,0.8282,space,4.269,9,PF,40,97,1,0,0,response1disk_5,7,7.5033,-2,4,1,0,0,rectangle_8,-2,4,1,0,0,-2,4,1,0,0,0,0,0,1,1,610367eb9e35c754c9add89b,61036b6e550c6cd89e969d67,2021-07-29_20h01.46.995,Simcolourproject_2stim_asymm_v5,2020.2.10,Win32,60,61025ae37ef11b136ea224fe,,,,,,,,,,,,,,,,,,,,,,,,,,,,,,,,,,,,,,,,,,,,,,
,,,,,,,,,,,,144,PF,79,-42,1,0,0,response3disk_5,5,7.7359,9,7,1,0,0,rectangle_8,-38,98,1,0,0,1,-3,1,0,0,0,1,1,6,1,610367eb9e35c754c9add89b,61036b6e550c6cd89e969d67,2021-07-29_20h01.46.995,Simcolourproject_2stim_asymm_v5,2020.2.10,Win32,60,61025ae37ef11b136ea224fe,response7disk_7,0,4.7124,0,"[2,5]",rectangle_4,,,,,,,,,,,,,,,,,,,,,,,,,,,,,,,,,,,,,,,,
,,,,,,,,,,,,68,FF,38,88,1,0,0,response1disk_5,7,1.5181,-6,-3,1,0,0,rectangle_8,-6,-3,1,0,0,-6,-3,1,0,0,0,2,2,5,1,610367eb9e35c754c9add89b,61036b6e550c6cd89e969d67,2021-07-29_20h01.46.995,Simcolourproject_2stim_asymm_v5,2020.2.10,Win32,60,61025ae37ef11b136ea224fe,,,,,,,,,,,,,,,,,,,,,,,,,,,,,,,,,,,,,,,,,,,,,,
,,,,,,,,,,,,95,FF,33,-96,1,0,0,response3disk_5,4,2.316,-10,-2,1,0,0,rectangle_8,-10,-2,1,0,0,-10,-2,1,0,0,0,3,3,3,1,610367eb9e35c754c9add89b,61036b6e550c6cd89e969d67,2021-07-29_20h01.46.995,Simcolourproject_2stim_asymm_v5,2020.2.10,Win32,60,61025ae37ef11b136ea224fe,,,,,,,,,,,,,,,,,,,,,,,,,,,,,,,,,,,,,,,,,,,,,,
,,,,,,,,,,,,91,PF,97,28,1,0,0,response1disk_5,6,1.7135,30,0,1,0,0,rectangle_8,-33,96,1,0,0,12,-14,1,0,0,0,4,4,4,1,610367eb9e35c754c9add89b,61036b6e550c6cd89e969d67,2021-07-29_20h01.46.995,Simcolourproject_2stim_asymm_v5,2020.2.10,Win32,60,61025ae37ef11b136ea224fe,response7disk_7,0,2.6474,0,"[2,5]",rectangle_4,,,,,,,,,,,,,,,,,,,,,,,,,,,,,,,,,,,,,,,,
,,,,,,,,,,,,25,PF,50,95,1,0,0,response1disk_5,7,1.2731,1,11,1,0,0,rectangle_8,1,11,1,0,0,1,11,1,0,0,0,5,5,2,1,610367eb9e35c754c9add89b,61036b6e550c6cd89e969d67,2021-07-29_20h01.46.995,Simcolourproject_2stim_asymm_v5,2020.2.10,Win32,60,61025ae37ef11b136ea224fe,,,,,,,,,,,,,,,,,,,,,,,,,,,,,,,,,,,,,,,,,,,,,,
,,,,,,,,,,,,28,FF,91,-28,1,0,0,response3disk_5,5,1.5154,22,-10,1,0,0,rectangle_8,22,-10,1,0,0,22,-10,1,0,0,0,6,6,0,1,610367eb9e35c754c9add89b,61036b6e550c6cd89e969d67,2021-07-29_20h01.46.995,Simcolourproject_2stim_asymm_v5,2020.2.10,Win32,60,61025ae37ef11b136ea224fe,,,,,,,,,,,,,,,,,,,,,,,,,,,,,,,,,,,,,,,,,,,,,,
,,,,,,,,,,,,,FF,,,,,,,,3.3269,,,,,,,,,,,,,,,,,,,,,,610367eb9e35c754c9add89b,61036b6e550c6cd89e969d67,2021-07-29_20h01.46.995,Simcolourproject_2stim_asymm_v5,2020.2.10,Win32,60,61025ae37ef11b136ea224fe,,,,,,,space,2.6168,2970,37,103,1,0,0,response1disk,,7,-4,-5,1,0,0,rectangle,-4,-5,1,0,0,-4,-5,1,0,0,0,0,0,135,1,,,,,,,,
,,,,,,,,,,,,,FF,,,,,,,,1.7007,,,,,,,,,,,,,,,,,,,,,,610367eb9e35c754c9add89b,61036b6e550c6cd89e969d67,2021-07-29_20h01.46.995,Simcolourproject_2stim_asymm_v5,2020.2.10,Win32,60,61025ae37ef11b136ea224fe,,,,,,,,,1928,69,-18,1,0,0,response3disk,,5,0,-3,1,0,0,rectangle,0,-3,1,0,0,0,-3,1,0,0,0,1,1,92,1,,,,,,,,
,,,,,,,,,,,,,FF,,,,,,,,1.1791,,,,,,,,,,,,,,,,,,,,,,610367eb9e35c754c9add89b,61036b6e550c6cd89e969d67,2021-07-29_20h01.46.995,Simcolourproject_2stim_asymm_v5,2020.2.10,Win32,60,61025ae37ef11b136ea224fe,,,,,,,,,1179,80,24,1,0,0,response1disk,,6,20,0,1,0,0,rectangle,20,0,1,0,0,20,0,1,0,0,0,2,2,73,1,,,,,,,,
,,,,,,,,,,,,,FF,,,,,,,,1.5496,,,,,,,,,,,,,,,,,,,,,,610367eb9e35c754c9add89b,61036b6e550c6cd89e969d67,2021-07-29_20h01.46.995,Simcolourproject_2stim_asymm_v5,2020.2.10,Win32,60,61025ae37ef11b136ea224fe,,,,,,,,,1402,29,-74,1,0,0,response3disk,,4,-1,1,1,0,0,rectangle,-1,1,1,0,0,-1,1,1,0,0,0,3,3,60,1,,,,,,,,
,,,,,,,,,,,,,FF,,,,,,,,1.6782,,,,,,,,,,,,,,,,,,,,,,610367eb9e35c754c9add89b,61036b6e550c6cd89e969d67,2021-07-29_20h01.46.995,Simcolourproject_2stim_asymm_v5,2020.2.10,Win32,60,61025ae37ef11b136ea224fe,,,,,,,,,533,-82,-40,1,0,0,response5disk,,2,-16,-9,1,0,0,rectangle,-16,-9,1,0,0,-16,-9,1,0,0,0,4,4,157,1,,,,,,,,
,,,,,,,,,,,,,FF,,,,,,,,2.7618,,,,,,,,,,,,,,,,,,,,,,610367eb9e35c754c9add89b,61036b6e550c6cd89e969d67,2021-07-29_20h01.46.995,Simcolourproject_2stim_asymm_v5,2020.2.10,Win32,60,61025ae37ef11b136ea224fe,,,,,,,,,601,87,30,1,0,0,response1disk,,6,-6,-4,1,0,0,rectangle,-6,-4,1,0,0,-6,-4,1,0,0,0,5,5,57,1,,,,,,,,
,,,,,,,,,,,,,FF,,,,,,,,1.1428,,,,,,,,,,,,,,,,,,,,,,610367eb9e35c754c9add89b,61036b6e550c6cd89e969d67,2021-07-29_20h01.46.995,Simcolourproject_2stim_asymm_v5,2020.2.10,Win32,60,61025ae37ef11b136ea224fe,,,,,,,,,4103,-66,-36,1,0,0,response5disk,,2,-11,0,1,0,0,rectangle,-11,0,1,0,0,-11,0,1,0,0,0,6,6,33,1,,,,,,,,
,,,,,,,,,,,,,FF,,,,,,,,1.932,,,,,,,,,,,,,,,,,,,,,,610367eb9e35c754c9add89b,61036b6e550c6cd89e969d67,2021-07-29_20h01.46.995,Simcolourproject_2stim_asymm_v5,2020.2.10,Win32,60,61025ae37ef11b136ea224fe,,,,,,,,,2766,37,62,1,0,0,response1disk,,7,-2,-5,1,0,0,rectangle,-2,-5,1,0,0,-2,-5,1,0,0,0,7,7,1,1,,,,,,,,
,,,,,,,,,,,,,FF,,,,,,,,2.9973,,,,,,,,,,,,,,,,,,,,,,610367eb9e35c754c9add89b,61036b6e550c6cd89e969d67,2021-07-29_20h01.46.995,Simcolourproject_2stim_asymm_v5,2020.2.10,Win32,60,61025ae37ef11b136ea224fe,,,,,,,,,751,-36,-104,1,0,0,response5disk,,3,-1,-1,1,0,0,rectangle,-1,-1,1,0,0,-1,-1,1,0,0,0,8,8,101,1,,,,,,,,
,,,,,,,,,,,,,FF,,,,,,,,1.1982,,,,,,,,,,,,,,,,,,,,,,610367eb9e35c754c9add89b,61036b6e550c6cd89e969d67,2021-07-29_20h01.46.995,Simcolourproject_2stim_asymm_v5,2020.2.10,Win32,60,61025ae37ef11b136ea224fe,,,,,,,,,1900,-82,-48,1,0,0,response5disk,,2,-12,-2,1,0,0,rectangle,-83,-47,1,0,0,-16,-4,1,0,0,0,9,9,76,1,,response5disk_3,TRUE,2,5,"[99,306,261,303,200,28,10,146,78,41,276,216,72,272,152,105,17,84,268,46]",1.7803,rectangle
,,,,,,,,,,,,,FF,,,,,,,,1.8523,,,,,,,,,,,,,,,,,,,,,,610367eb9e35c754c9add89b,61036b6e550c6cd89e969d67,2021-07-29_20h01.46.995,Simcolourproject_2stim_asymm_v5,2020.2.10,Win32,60,61025ae37ef11b136ea224fe,,,,,,,,,3716,102,-43,1,0,0,response3disk,,5,15,0,1,0,0,rectangle,15,0,1,0,0,15,0,1,0,0,0,10,10,89,1,,,,,,,,
,,,,,,,,,,,,,FF,,,,,,,,1.4655,,,,,,,,,,,,,,,,,,,,,,610367eb9e35c754c9add89b,61036b6e550c6cd89e969d67,2021-07-29_20h01.46.995,Simcolourproject_2stim_asymm_v5,2020.2.10,Win32,60,61025ae37ef11b136ea224fe,,,,,,,,,532,-91,-42,1,0,0,response5disk,,2,-18,-4,1,0,0,rectangle,-18,-4,1,0,0,-18,-4,1,0,0,0,11,11,114,1,,,,,,,,
,,,,,,,,,,,,,FF,,,,,,,,1.3561,,,,,,,,,,,,,,,,,,,,,,610367eb9e35c754c9add89b,61036b6e550c6cd89e969d67,2021-07-29_20h01.46.995,Simcolourproject_2stim_asymm_v5,2020.2.10,Win32,60,61025ae37ef11b136ea224fe,,,,,,,,,689,39,-77,1,0,0,response3disk,,4,-2,-1,1,0,0,rectangle,-2,-1,1,0,0,-2,-1,1,0,0,0,12,12,55,1,,,,,,,,
,,,,,,,,,,,,,FF,,,,,,,,0.8218,,,,,,,,,,,,,,,,,,,,,,610367eb9e35c754c9add89b,61036b6e550c6cd89e969d67,2021-07-29_20h01.46.995,Simcolourproject_2stim_asymm_v5,2020.2.10,Win32,60,61025ae37ef11b136ea224fe,,,,,,,,,971,-53,-33,1,0,0,response5disk,,2,-12,-2,1,0,0,rectangle,-12,-2,1,0,0,-12,-2,1,0,0,0,13,13,156,1,,,,,,,,
,,,,,,,,,,,,,FF,,,,,,,,1.6489,,,,,,,,,,,,,,,,,,,,,,610367eb9e35c754c9add89b,61036b6e550c6cd89e969d67,2021-07-29_20h01.46.995,Simcolourproject_2stim_asymm_v5,2020.2.10,Win32,60,61025ae37ef11b136ea224fe,,,,,,,,,117,112,-36,1,0,0,response3disk,,5,9,-3,1,0,0,rectangle,9,-3,1,0,0,9,-3,1,0,0,0,14,14,0,1,,,,,,,,
,,,,,,,,,,,,,FF,,,,,,,,0.8222,,,,,,,,,,,,,,,,,,,,,,610367eb9e35c754c9add89b,61036b6e550c6cd89e969d67,2021-07-29_20h01.46.995,Simcolourproject_2stim_asymm_v5,2020.2.10,Win32,60,61025ae37ef11b136ea224fe,,,,,,,,,3783,-85,-51,1,0,0,response5disk,,2,-7,4,1,0,0,rectangle,-7,4,1,0,0,-7,4,1,0,0,0,15,15,58,1,,,,,,,,
,,,,,,,,,,,,,FF,,,,,,,,1.7782,,,,,,,,,,,,,,,,,,,,,,610367eb9e35c754c9add89b,61036b6e550c6cd89e969d67,2021-07-29_20h01.46.995,Simcolourproject_2stim_asymm_v5,2020.2.10,Win32,60,61025ae37ef11b136ea224fe,,,,,,,,,573,76,42,1,0,0,response1disk,,6,-17,-5,1,0,0,rectangle,86,-32,1,0,0,-2,-7,1,0,0,0,16,16,105,1,,response3disk_3,TRUE,5,5,"[99,306,261,303,200,28,10,146,78,41,276,216,72,272,152,105,17,84,268,46]",3.5122,rectangle
,,,,,,,,,,,,,FF,,,,,,,,1.0351,,,,,,,,,,,,,,,,,,,,,,610367eb9e35c754c9add89b,61036b6e550c6cd89e969d67,2021-07-29_20h01.46.995,Simcolourproject_2stim_asymm_v5,2020.2.10,Win32,60,61025ae37ef11b136ea224fe,,,,,,,,,1865,-38,-112,1,0,0,response5disk,,3,0,7,1,0,0,rectangle,0,7,1,0,0,0,7,1,0,0,0,17,17,70,1,,,,,,,,
,,,,,,,,,,,,,FF,,,,,,,,0.9834,,,,,,,,,,,,,,,,,,,,,,610367eb9e35c754c9add89b,61036b6e550c6cd89e969d67,2021-07-29_20h01.46.995,Simcolourproject_2stim_asymm_v5,2020.2.10,Win32,60,61025ae37ef11b136ea224fe,,,,,,,,,3732,56,70,1,0,0,response1disk,,7,16,-11,1,0,0,rectangle,16,-11,1,0,0,16,-11,1,0,0,0,18,18,127,1,,,,,,,,
,,,,,,,,,,,,,FF,,,,,,,,1.2126,,,,,,,,,,,,,,,,,,,,,,610367eb9e35c754c9add89b,61036b6e550c6cd89e969d67,2021-07-29_20h01.46.995,Simcolourproject_2stim_asymm_v5,2020.2.10,Win32,60,61025ae37ef11b136ea224fe,,,,,,,,,591,72,-37,1,0,0,response3disk,,5,-7,-3,1,0,0,rectangle,-7,-3,1,0,0,-7,-3,1,0,0,0,19,19,45,1,,,,,,,,
,,,,,,,,,,,,,FF,,,,,,,,1.4635,,,,,,,,,,,,,,,,,,,,,,610367eb9e35c754c9add89b,61036b6e550c6cd89e969d67,2021-07-29_20h01.46.995,Simcolourproject_2stim_asymm_v5,2020.2.10,Win32,60,61025ae37ef11b136ea224fe,,,,,,,,,561,78,46,1,0,0,response1disk,,6,5,0,1,0,0,rectangle,5,0,1,0,0,5,0,1,0,0,0,20,20,77,1,,,,,,,,
,,,,,,,,,,,,,FF,,,,,,,,1.1646,,,,,,,,,,,,,,,,,,,,,,610367eb9e35c754c9add89b,61036b6e550c6cd89e969d67,2021-07-29_20h01.46.995,Simcolourproject_2stim_asymm_v5,2020.2.10,Win32,60,61025ae37ef11b136ea224fe,,,,,,,,,1679,33,121,1,0,0,response1disk,,7,12,1,1,0,0,rectangle,12,1,1,0,0,12,1,1,0,0,0,21,21,2,1,,,,,,,,
,,,,,,,,,,,,,FF,,,,,,,,1.314,,,,,,,,,,,,,,,,,,,,,,610367eb9e35c754c9add89b,61036b6e550c6cd89e969d67,2021-07-29_20h01.46.995,Simcolourproject_2stim_asymm_v5,2020.2.10,Win32,60,61025ae37ef11b136ea224fe,,,,,,,,,3168,82,41,1,0,0,response1disk,,6,-16,-3,1,0,0,rectangle,-16,-3,1,0,0,-16,-3,1,0,0,0,22,22,107,1,,,,,,,,
,,,,,,,,,,,,,FF,,,,,,,,1.4617,,,,,,,,,,,,,,,,,,,,,,610367eb9e35c754c9add89b,61036b6e550c6cd89e969d67,2021-07-29_20h01.46.995,Simcolourproject_2stim_asymm_v5,2020.2.10,Win32,60,61025ae37ef11b136ea224fe,,,,,,,,,3149,-84,26,1,0,0,response7disk,,1,-12,11,1,0,0,rectangle,-12,11,1,0,0,-12,11,1,0,0,0,23,23,62,1,,,,,,,,
,,,,,,,,,,,,,FF,,,,,,,,1.6645,,,,,,,,,,,,,,,,,,,,,,610367eb9e35c754c9add89b,61036b6e550c6cd89e969d67,2021-07-29_20h01.46.995,Simcolourproject_2stim_asymm_v5,2020.2.10,Win32,60,61025ae37ef11b136ea224fe,,,,,,,,,2225,48,-72,1,0,0,response3disk,,4,-12,-1,1,0,0,rectangle,-12,-1,1,0,0,-12,-1,1,0,0,0,24,24,56,1,,,,,,,,
,,,,,,,,,,,,,FF,,,,,,,,1.4905,,,,,,,,,,,,,,,,,,,,,,610367eb9e35c754c9add89b,61036b6e550c6cd89e969d67,2021-07-29_20h01.46.995,Simcolourproject_2stim_asymm_v5,2020.2.10,Win32,60,61025ae37ef11b136ea224fe,,,,,,,,,433,47,17,1,0,0,response1disk,,6,-11,-4,1,0,0,rectangle,-11,-4,1,0,0,-11,-4,1,0,0,0,25,25,51,1,,,,,,,,
,,,,,,,,,,,,,FF,,,,,,,,0.8675,,,,,,,,,,,,,,,,,,,,,,610367eb9e35c754c9add89b,61036b6e550c6cd89e969d67,2021-07-29_20h01.46.995,Simcolourproject_2stim_asymm_v5,2020.2.10,Win32,60,61025ae37ef11b136ea224fe,,,,,,,,,2585,60,25,1,0,0,response1disk,,6,-3,-2,1,0,0,rectangle,-3,-2,1,0,0,-3,-2,1,0,0,0,26,26,46,1,,,,,,,,
,,,,,,,,,,,,,FF,,,,,,,,1.9467,,,,,,,,,,,,,,,,,,,,,,610367eb9e35c754c9add89b,61036b6e550c6cd89e969d67,2021-07-29_20h01.46.995,Simcolourproject_2stim_asymm_v5,2020.2.10,Win32,60,61025ae37ef11b136ea224fe,,,,,,,,,803,-84,35,1,0,0,response7disk,,1,-3,-7,1,0,0,rectangle,-90,34,1,0,0,-10,-3,1,0,0,0,27,27,20,1,,response7disk_3,TRUE,1,1,"[99,306,261,303,200,28,10,146,78,41,276,216,72,272,152,105,17,84,268,46]",2.86,rectangle
,,,,,,,,,,,,,FF,,,,,,,,1.0484,,,,,,,,,,,,,,,,,,,,,,610367eb9e35c754c9add89b,61036b6e550c6cd89e969d67,2021-07-29_20h01.46.995,Simcolourproject_2stim_asymm_v5,2020.2.10,Win32,60,61025ae37ef11b136ea224fe,,,,,,,,,585,-53,-102,1,0,0,response5disk,,3,-6,2,1,0,0,rectangle,-6,2,1,0,0,-6,2,1,0,0,0,28,28,123,1,,,,,,,,
,,,,,,,,,,,,,FF,,,,,,,,0.856,,,,,,,,,,,,,,,,,,,,,,610367eb9e35c754c9add89b,61036b6e550c6cd89e969d67,2021-07-29_20h01.46.995,Simcolourproject_2stim_asymm_v5,2020.2.10,Win32,60,61025ae37ef11b136ea224fe,,,,,,,,,2142,58,31,1,0,0,response1disk,,6,-4,0,1,0,0,rectangle,-4,0,1,0,0,-4,0,1,0,0,0,29,29,82,1,,,,,,,,
,,,,,,,,,,,,,FF,,,,,,,,1.1351,,,,,,,,,,,,,,,,,,,,,,610367eb9e35c754c9add89b,61036b6e550c6cd89e969d67,2021-07-29_20h01.46.995,Simcolourproject_2stim_asymm_v5,2020.2.10,Win32,60,61025ae37ef11b136ea224fe,,,,,,,,,540,28,63,1,0,0,response1disk,,7,-9,-2,1,0,0,rectangle,-9,-2,1,0,0,-9,-2,1,0,0,0,30,30,153,1,,,,,,,,
,,,,,,,,,,,,,FF,,,,,,,,1.0795,,,,,,,,,,,,,,,,,,,,,,610367eb9e35c754c9add89b,61036b6e550c6cd89e969d67,2021-07-29_20h01.46.995,Simcolourproject_2stim_asymm_v5,2020.2.10,Win32,60,61025ae37ef11b136ea224fe,,,,,,,,,1199,-45,-71,1,0,0,response5disk,,3,-13,-5,1,0,0,rectangle,-13,-5,1,0,0,-13,-5,1,0,0,0,31,31,138,1,,,,,,,,
,,,,,,,,,,,,,FF,,,,,,,,1.3949,,,,,,,,,,,,,,,,,,,,,,610367eb9e35c754c9add89b,61036b6e550c6cd89e969d67,2021-07-29_20h01.46.995,Simcolourproject_2stim_asymm_v5,2020.2.10,Win32,60,61025ae37ef11b136ea224fe,,,,,,,,,4075,27,50,1,0,0,response1disk,,7,4,-6,1,0,0,rectangle,4,-6,1,0,0,4,-6,1,0,0,0,32,32,47,1,,,,,,,,
,,,,,,,,,,,,,FF,,,,,,,,2.1432,,,,,,,,,,,,,,,,,,,,,,610367eb9e35c754c9add89b,61036b6e550c6cd89e969d67,2021-07-29_20h01.46.995,Simcolourproject_2stim_asymm_v5,2020.2.10,Win32,60,61025ae37ef11b136ea224fe,,,,,,,,,682,65,29,1,0,0,response1disk,,6,-4,0,1,0,0,rectangle,-4,0,1,0,0,-4,0,1,0,0,0,33,33,7,1,,,,,,,,
,,,,,,,,,,,,,FF,,,,,,,,1.8867,,,,,,,,,,,,,,,,,,,,,,610367eb9e35c754c9add89b,61036b6e550c6cd89e969d67,2021-07-29_20h01.46.995,Simcolourproject_2stim_asymm_v5,2020.2.10,Win32,60,61025ae37ef11b136ea224fe,,,,,,,,,4353,40,80,1,0,0,response1disk,,7,-4,9,1,0,0,rectangle,-4,9,1,0,0,-4,9,1,0,0,0,34,34,125,1,,,,,,,,
,,,,,,,,,,,,,FF,,,,,,,,0.9851,,,,,,,,,,,,,,,,,,,,,,610367eb9e35c754c9add89b,61036b6e550c6cd89e969d67,2021-07-29_20h01.46.995,Simcolourproject_2stim_asymm_v5,2020.2.10,Win32,60,61025ae37ef11b136ea224fe,,,,,,,,,3744,82,19,1,0,0,response1disk,,6,1,5,1,0,0,rectangle,1,5,1,0,0,1,5,1,0,0,0,35,35,71,1,,,,,,,,
,,,,,,,,,,,,,FF,,,,,,,,0.688,,,,,,,,,,,,,,,,,,,,,,610367eb9e35c754c9add89b,61036b6e550c6cd89e969d67,2021-07-29_20h01.46.995,Simcolourproject_2stim_asymm_v5,2020.2.10,Win32,60,61025ae37ef11b136ea224fe,,,,,,,,,969,39,66,1,0,0,response1disk,,7,-3,3,1,0,0,rectangle,-3,3,1,0,0,-3,3,1,0,0,0,36,36,81,1,,,,,,,,
,,,,,,,,,,,,,FF,,,,,,,,0.8487,,,,,,,,,,,,,,,,,,,,,,610367eb9e35c754c9add89b,61036b6e550c6cd89e969d67,2021-07-29_20h01.46.995,Simcolourproject_2stim_asymm_v5,2020.2.10,Win32,60,61025ae37ef11b136ea224fe,,,,,,,,,2892,42,92,1,0,0,response1disk,,7,-9,-4,1,0,0,rectangle,-9,-4,1,0,0,-9,-4,1,0,0,0,37,37,117,1,,,,,,,,
,,,,,,,,,,,,,FF,,,,,,,,2.1472,,,,,,,,,,,,,,,,,,,,,,610367eb9e35c754c9add89b,61036b6e550c6cd89e969d67,2021-07-29_20h01.46.995,Simcolourproject_2stim_asymm_v5,2020.2.10,Win32,60,61025ae37ef11b136ea224fe,,,,,,,,,1668,-80,-44,1,0,0,response5disk,,2,-12,2,1,0,0,rectangle,-12,2,1,0,0,-12,2,1,0,0,0,38,38,12,1,,,,,,,,
,,,,,,,,,,,,,FF,,,,,,,,1.2279,,,,,,,,,,,,,,,,,,,,,,610367eb9e35c754c9add89b,61036b6e550c6cd89e969d67,2021-07-29_20h01.46.995,Simcolourproject_2stim_asymm_v5,2020.2.10,Win32,60,61025ae37ef11b136ea224fe,,,,,,,,,2975,-73,29,1,0,0,response7disk,,1,-3,4,1,0,0,rectangle,-3,4,1,0,0,-3,4,1,0,0,0,39,39,6,1,,,,,,,,
,,,,,,,,,,,,,FF,,,,,,,,6.5218,,,,,,,,,,,,,,,,,,,,,,610367eb9e35c754c9add89b,61036b6e550c6cd89e969d67,2021-07-29_20h01.46.995,Simcolourproject_2stim_asymm_v5,2020.2.10,Win32,60,61025ae37ef11b136ea224fe,,,,,,,,,3893,49,91,1,0,0,response1disk,,7,-10,-15,1,0,0,rectangle,-50,111,1,0,0,-10,14,1,0,0,0,40,40,9,1,,response7disk_3,TRUE,0,0,"[99,306,261,303,200,28,10,146,78,41,276,216,72,272,152,105,17,84,268,46]",2.0307,rectangle
,,,,,,,,,,,,,FF,,,,,,,,0.7503,,,,,,,,,,,,,,,,,,,,,,610367eb9e35c754c9add89b,61036b6e550c6cd89e969d67,2021-07-29_20h01.46.995,Simcolourproject_2stim_asymm_v5,2020.2.10,Win32,60,61025ae37ef11b136ea224fe,,,,,,,,,1829,-71,-32,1,0,0,response5disk,,2,-4,-3,1,0,0,rectangle,-4,-3,1,0,0,-4,-3,1,0,0,0,41,41,8,1,,,,,,,,
,,,,,,,,,,,,,FF,,,,,,,,1.0504,,,,,,,,,,,,,,,,,,,,,,610367eb9e35c754c9add89b,61036b6e550c6cd89e969d67,2021-07-29_20h01.46.995,Simcolourproject_2stim_asymm_v5,2020.2.10,Win32,60,61025ae37ef11b136ea224fe,,,,,,,,,1280,30,-53,1,0,0,response3disk,,4,5,-12,1,0,0,rectangle,5,-12,1,0,0,5,-12,1,0,0,0,42,42,146,1,,,,,,,,
,,,,,,,,,,,,,FF,,,,,,,,1.0343,,,,,,,,,,,,,,,,,,,,,,610367eb9e35c754c9add89b,61036b6e550c6cd89e969d67,2021-07-29_20h01.46.995,Simcolourproject_2stim_asymm_v5,2020.2.10,Win32,60,61025ae37ef11b136ea224fe,,,,,,,,,2299,-104,33,1,0,0,response7disk,,1,-1,5,1,0,0,rectangle,-1,5,1,0,0,-1,5,1,0,0,0,43,43,95,1,,,,,,,,
,,,,,,,,,,,,,FF,,,,,,,,1.5149,,,,,,,,,,,,,,,,,,,,,,610367eb9e35c754c9add89b,61036b6e550c6cd89e969d67,2021-07-29_20h01.46.995,Simcolourproject_2stim_asymm_v5,2020.2.10,Win32,60,61025ae37ef11b136ea224fe,,,,,,,,,2657,43,-62,1,0,0,response3disk,,4,16,-14,1,0,0,rectangle,16,-14,1,0,0,16,-14,1,0,0,0,44,44,74,1,,,,,,,,
,,,,,,,,,,,,,FF,,,,,,,,1.6813,,,,,,,,,,,,,,,,,,,,,,610367eb9e35c754c9add89b,61036b6e550c6cd89e969d67,2021-07-29_20h01.46.995,Simcolourproject_2stim_asymm_v5,2020.2.10,Win32,60,61025ae37ef11b136ea224fe,,,,,,,,,1344,86,29,1,0,0,response1disk,,6,14,-12,1,0,0,rectangle,-63,29,1,0,0,-8,5,1,0,0,0,45,45,23,1,,response7disk_3,TRUE,1,1,"[99,306,261,303,200,28,10,146,78,41,276,216,72,272,152,105,17,84,268,46]",1.6951,rectangle
,,,,,,,,,,,,,FF,,,,,,,,9.2058,,,,,,,,,,,,,,,,,,,,,,610367eb9e35c754c9add89b,61036b6e550c6cd89e969d67,2021-07-29_20h01.46.995,Simcolourproject_2stim_asymm_v5,2020.2.10,Win32,60,61025ae37ef11b136ea224fe,,,,,,,,,1646,72,-79,1,0,0,response3disk,,4,0,10,1,0,0,rectangle,0,10,1,0,0,0,10,1,0,0,0,46,46,59,1,,,,,,,,
,,,,,,,,,,,,,FF,,,,,,,,1.1509,,,,,,,,,,,,,,,,,,,,,,610367eb9e35c754c9add89b,61036b6e550c6cd89e969d67,2021-07-29_20h01.46.995,Simcolourproject_2stim_asymm_v5,2020.2.10,Win32,60,61025ae37ef11b136ea224fe,,,,,,,,,3997,54,41,1,0,0,response1disk,,6,-4,-2,1,0,0,rectangle,-4,-2,1,0,0,-4,-2,1,0,0,0,47,47,44,1,,,,,,,,
,,,,,,,,,,,,,FF,,,,,,,,0.982,,,,,,,,,,,,,,,,,,,,,,610367eb9e35c754c9add89b,61036b6e550c6cd89e969d67,2021-07-29_20h01.46.995,Simcolourproject_2stim_asymm_v5,2020.2.10,Win32,60,61025ae37ef11b136ea224fe,,,,,,,,,459,-88,-51,1,0,0,response5disk,,2,-17,-4,1,0,0,rectangle,-17,-4,1,0,0,-17,-4,1,0,0,0,48,48,30,1,,,,,,,,
,,,,,,,,,,,,,FF,,,,,,,,0.8808,,,,,,,,,,,,,,,,,,,,,,610367eb9e35c754c9add89b,61036b6e550c6cd89e969d67,2021-07-29_20h01.46.995,Simcolourproject_2stim_asymm_v5,2020.2.10,Win32,60,61025ae37ef11b136ea224fe,,,,,,,,,4309,56,30,1,0,0,response1disk,,6,7,1,1,0,0,rectangle,7,1,1,0,0,7,1,1,0,0,0,49,49,39,1,,,,,,,,
,,,,,,,,,,,,,FF,,,,,,,,0.9685,,,,,,,,,,,,,,,,,,,,,,610367eb9e35c754c9add89b,61036b6e550c6cd89e969d67,2021-07-29_20h01.46.995,Simcolourproject_2stim_asymm_v5,2020.2.10,Win32,60,61025ae37ef11b136ea224fe,,,,,,,,,78,-85,27,1,0,0,response7disk,,1,0,-12,1,0,0,rectangle,0,-12,1,0,0,0,-12,1,0,0,0,50,50,22,1,,,,,,,,
,,,,,,,,,,,,,FF,,,,,,,,1.1826,,,,,,,,,,,,,,,,,,,,,,610367eb9e35c754c9add89b,61036b6e550c6cd89e969d67,2021-07-29_20h01.46.995,Simcolourproject_2stim_asymm_v5,2020.2.10,Win32,60,61025ae37ef11b136ea224fe,,,,,,,,,1902,-56,-82,1,0,0,response5disk,,3,-9,13,1,0,0,rectangle,-9,13,1,0,0,-9,13,1,0,0,0,51,51,25,1,,,,,,,,
,,,,,,,,,,,,,FF,,,,,,,,0.83,,,,,,,,,,,,,,,,,,,,,,610367eb9e35c754c9add89b,61036b6e550c6cd89e969d67,2021-07-29_20h01.46.995,Simcolourproject_2stim_asymm_v5,2020.2.10,Win32,60,61025ae37ef11b136ea224fe,,,,,,,,,3999,27,66,1,0,0,response1disk,,7,-3,0,1,0,0,rectangle,-3,0,1,0,0,-3,0,1,0,0,0,52,52,100,1,,,,,,,,
,,,,,,,,,,,,,FF,,,,,,,,1.0146,,,,,,,,,,,,,,,,,,,,,,610367eb9e35c754c9add89b,61036b6e550c6cd89e969d67,2021-07-29_20h01.46.995,Simcolourproject_2stim_asymm_v5,2020.2.10,Win32,60,61025ae37ef11b136ea224fe,,,,,,,,,555,27,-86,1,0,0,response3disk,,4,-10,-5,1,0,0,rectangle,-10,-5,1,0,0,-10,-5,1,0,0,0,53,53,141,1,,,,,,,,
,,,,,,,,,,,,,FF,,,,,,,,0.9977,,,,,,,,,,,,,,,,,,,,,,610367eb9e35c754c9add89b,61036b6e550c6cd89e969d67,2021-07-29_20h01.46.995,Simcolourproject_2stim_asymm_v5,2020.2.10,Win32,60,61025ae37ef11b136ea224fe,,,,,,,,,1701,30,56,1,0,0,response1disk,,7,5,-1,1,0,0,rectangle,5,-1,1,0,0,5,-1,1,0,0,0,54,54,31,1,,,,,,,,
,,,,,,,,,,,,,FF,,,,,,,,0.8516,,,,,,,,,,,,,,,,,,,,,,610367eb9e35c754c9add89b,61036b6e550c6cd89e969d67,2021-07-29_20h01.46.995,Simcolourproject_2stim_asymm_v5,2020.2.10,Win32,60,61025ae37ef11b136ea224fe,,,,,,,,,3212,-73,-33,1,0,0,response5disk,,2,-13,7,1,0,0,rectangle,-13,7,1,0,0,-13,7,1,0,0,0,55,55,83,1,,,,,,,,
,,,,,,,,,,,,,FF,,,,,,,,1.0328,,,,,,,,,,,,,,,,,,,,,,610367eb9e35c754c9add89b,61036b6e550c6cd89e969d67,2021-07-29_20h01.46.995,Simcolourproject_2stim_asymm_v5,2020.2.10,Win32,60,61025ae37ef11b136ea224fe,,,,,,,,,2849,46,69,1,0,0,response1disk,,7,0,5,1,0,0,rectangle,0,5,1,0,0,0,5,1,0,0,0,56,56,79,1,,,,,,,,
,,,,,,,,,,,,,FF,,,,,,,,0.8785,,,,,,,,,,,,,,,,,,,,,,610367eb9e35c754c9add89b,61036b6e550c6cd89e969d67,2021-07-29_20h01.46.995,Simcolourproject_2stim_asymm_v5,2020.2.10,Win32,60,61025ae37ef11b136ea224fe,,,,,,,,,1202,33,57,1,0,0,response1disk,,7,-8,5,1,0,0,rectangle,-8,5,1,0,0,-8,5,1,0,0,0,57,57,16,1,,,,,,,,
,,,,,,,,,,,,,FF,,,,,,,,0.6657,,,,,,,,,,,,,,,,,,,,,,610367eb9e35c754c9add89b,61036b6e550c6cd89e969d67,2021-07-29_20h01.46.995,Simcolourproject_2stim_asymm_v5,2020.2.10,Win32,60,61025ae37ef11b136ea224fe,,,,,,,,,3316,34,55,1,0,0,response1disk,,7,-6,-1,1,0,0,rectangle,-6,-1,1,0,0,-6,-1,1,0,0,0,58,58,63,1,,,,,,,,
,,,,,,,,,,,,,FF,,,,,,,,0.8653,,,,,,,,,,,,,,,,,,,,,,610367eb9e35c754c9add89b,61036b6e550c6cd89e969d67,2021-07-29_20h01.46.995,Simcolourproject_2stim_asymm_v5,2020.2.10,Win32,60,61025ae37ef11b136ea224fe,,,,,,,,,3670,-86,32,1,0,0,response7disk,,1,-10,-4,1,0,0,rectangle,-10,-4,1,0,0,-10,-4,1,0,0,0,59,59,19,1,,,,,,,,
,,,,,,,,,,,,,FF,,,,,,,,1.1803,,,,,,,,,,,,,,,,,,,,,,610367eb9e35c754c9add89b,61036b6e550c6cd89e969d67,2021-07-29_20h01.46.995,Simcolourproject_2stim_asymm_v5,2020.2.10,Win32,60,61025ae37ef11b136ea224fe,,,,,,,,,2751,24,42,1,0,0,response1disk,,7,-33,3,1,0,0,rectangle,-33,3,1,0,0,-33,3,1,0,0,0,60,60,10,1,,,,,,,,
,,,,,,,,,,,,,FF,,,,,,,,3.2318,,,,,,,,,,,,,,,,,,,,,,610367eb9e35c754c9add89b,61036b6e550c6cd89e969d67,2021-07-29_20h01.46.995,Simcolourproject_2stim_asymm_v5,2020.2.10,Win32,60,61025ae37ef11b136ea224fe,,,,,,,,,475,76,37,1,0,0,response1disk,,6,-5,2,1,0,0,rectangle,-5,2,1,0,0,-5,2,1,0,0,0,61,61,4,1,,,,,,,,
,,,,,,,,,,,,,FF,,,,,,,,3.9113,,,,,,,,,,,,,,,,,,,,,,610367eb9e35c754c9add89b,61036b6e550c6cd89e969d67,2021-07-29_20h01.46.995,Simcolourproject_2stim_asymm_v5,2020.2.10,Win32,60,61025ae37ef11b136ea224fe,,,,,,,,,2155,30,64,1,0,0,response1disk,,7,-13,9,1,0,0,rectangle,-13,9,1,0,0,-13,9,1,0,0,0,62,62,121,1,,,,,,,,
,,,,,,,,,,,,,FF,,,,,,,,0.666,,,,,,,,,,,,,,,,,,,,,,610367eb9e35c754c9add89b,61036b6e550c6cd89e969d67,2021-07-29_20h01.46.995,Simcolourproject_2stim_asymm_v5,2020.2.10,Win32,60,61025ae37ef11b136ea224fe,,,,,,,,,2012,40,51,1,0,0,response1disk,,7,-8,-10,1,0,0,rectangle,-8,-10,1,0,0,-8,-10,1,0,0,0,63,63,140,1,,,,,,,,
,,,,,,,,,,,,,FF,,,,,,,,1.0177,,,,,,,,,,,,,,,,,,,,,,610367eb9e35c754c9add89b,61036b6e550c6cd89e969d67,2021-07-29_20h01.46.995,Simcolourproject_2stim_asymm_v5,2020.2.10,Win32,60,61025ae37ef11b136ea224fe,,,,,,,,,138,-50,-97,1,0,0,response5disk,,3,-14,-6,1,0,0,rectangle,-14,-6,1,0,0,-14,-6,1,0,0,0,64,64,75,1,,,,,,,,
,,,,,,,,,,,,,FF,,,,,,,,1.0646,,,,,,,,,,,,,,,,,,,,,,610367eb9e35c754c9add89b,61036b6e550c6cd89e969d67,2021-07-29_20h01.46.995,Simcolourproject_2stim_asymm_v5,2020.2.10,Win32,60,61025ae37ef11b136ea224fe,,,,,,,,,2968,58,-42,1,0,0,response3disk,,5,-13,-2,1,0,0,rectangle,-13,-2,1,0,0,-13,-2,1,0,0,0,65,65,72,1,,,,,,,,
,,,,,,,,,,,,,FF,,,,,,,,0.7842,,,,,,,,,,,,,,,,,,,,,,610367eb9e35c754c9add89b,61036b6e550c6cd89e969d67,2021-07-29_20h01.46.995,Simcolourproject_2stim_asymm_v5,2020.2.10,Win32,60,61025ae37ef11b136ea224fe,,,,,,,,,1504,22,58,1,0,0,response1disk,,7,-1,-2,1,0,0,rectangle,-1,-2,1,0,0,-1,-2,1,0,0,0,66,66,150,1,,,,,,,,
,,,,,,,,,,,,,FF,,,,,,,,0.8678,,,,,,,,,,,,,,,,,,,,,,610367eb9e35c754c9add89b,61036b6e550c6cd89e969d67,2021-07-29_20h01.46.995,Simcolourproject_2stim_asymm_v5,2020.2.10,Win32,60,61025ae37ef11b136ea224fe,,,,,,,,,2380,22,47,1,0,0,response1disk,,7,-3,1,1,0,0,rectangle,-3,1,1,0,0,-3,1,1,0,0,0,67,67,66,1,,,,,,,,
,,,,,,,,,,,,,FF,,,,,,,,1.284,,,,,,,,,,,,,,,,,,,,,,610367eb9e35c754c9add89b,61036b6e550c6cd89e969d67,2021-07-29_20h01.46.995,Simcolourproject_2stim_asymm_v5,2020.2.10,Win32,60,61025ae37ef11b136ea224fe,,,,,,,,,515,27,-66,1,0,0,response3disk,,4,0,0,1,0,0,rectangle,0,0,1,0,0,0,0,1,0,0,0,68,68,98,1,,,,,,,,
,,,,,,,,,,,,,FF,,,,,,,,1.6481,,,,,,,,,,,,,,,,,,,,,,610367eb9e35c754c9add89b,61036b6e550c6cd89e969d67,2021-07-29_20h01.46.995,Simcolourproject_2stim_asymm_v5,2020.2.10,Win32,60,61025ae37ef11b136ea224fe,,,,,,,,,3704,-80,-44,1,0,0,response5disk,,2,-20,-6,1,0,0,rectangle,-20,-6,1,0,0,-20,-6,1,0,0,0,69,69,80,1,,,,,,,,
,,,,,,,,,,,,,FF,,,,,,,,1.2979,,,,,,,,,,,,,,,,,,,,,,610367eb9e35c754c9add89b,61036b6e550c6cd89e969d67,2021-07-29_20h01.46.995,Simcolourproject_2stim_asymm_v5,2020.2.10,Win32,60,61025ae37ef11b136ea224fe,,,,,,,,,2909,59,32,1,0,0,response1disk,,6,14,-10,1,0,0,rectangle,14,-10,1,0,0,14,-10,1,0,0,0,70,70,49,1,,,,,,,,
,,,,,,,,,,,,,FF,,,,,,,,0.9155,,,,,,,,,,,,,,,,,,,,,,610367eb9e35c754c9add89b,61036b6e550c6cd89e969d67,2021-07-29_20h01.46.995,Simcolourproject_2stim_asymm_v5,2020.2.10,Win32,60,61025ae37ef11b136ea224fe,,,,,,,,,788,40,74,1,0,0,response1disk,,7,-2,10,1,0,0,rectangle,35,111,1,0,0,-20,-2,1,0,0,0,71,71,120,1,,response1disk_3,TRUE,7,7,"[99,306,261,303,200,28,10,146,78,41,276,216,72,272,152,105,17,84,268,46]",2.3,rectangle
,,,,,,,,,,,,,FF,,,,,,,,8.1961,,,,,,,,,,,,,,,,,,,,,,610367eb9e35c754c9add89b,61036b6e550c6cd89e969d67,2021-07-29_20h01.46.995,Simcolourproject_2stim_asymm_v5,2020.2.10,Win32,60,61025ae37ef11b136ea224fe,,,,,,,,,2129,87,63,1,0,0,response1disk,,6,20,-3,1,0,0,rectangle,20,-3,1,0,0,20,-3,1,0,0,0,72,72,112,1,,,,,,,,
,,,,,,,,,,,,,FF,,,,,,,,0.6492,,,,,,,,,,,,,,,,,,,,,,610367eb9e35c754c9add89b,61036b6e550c6cd89e969d67,2021-07-29_20h01.46.995,Simcolourproject_2stim_asymm_v5,2020.2.10,Win32,60,61025ae37ef11b136ea224fe,,,,,,,,,3309,33,67,1,0,0,response1disk,,7,14,-11,1,0,0,rectangle,14,-11,1,0,0,14,-11,1,0,0,0,73,73,67,1,,,,,,,,
,,,,,,,,,,,,,FF,,,,,,,,0.7482,,,,,,,,,,,,,,,,,,,,,,610367eb9e35c754c9add89b,61036b6e550c6cd89e969d67,2021-07-29_20h01.46.995,Simcolourproject_2stim_asymm_v5,2020.2.10,Win32,60,61025ae37ef11b136ea224fe,,,,,,,,,319,76,21,1,0,0,response1disk,,6,15,-6,1,0,0,rectangle,15,-6,1,0,0,15,-6,1,0,0,0,74,74,132,1,,,,,,,,
,,,,,,,,,,,,,FF,,,,,,,,3.4782,,,,,,,,,,,,,,,,,,,,,,610367eb9e35c754c9add89b,61036b6e550c6cd89e969d67,2021-07-29_20h01.46.995,Simcolourproject_2stim_asymm_v5,2020.2.10,Win32,60,61025ae37ef11b136ea224fe,,,,,,,,,1859,30,78,1,0,0,response1disk,,7,10,-3,1,0,0,rectangle,10,-3,1,0,0,10,-3,1,0,0,0,75,75,115,1,,,,,,,,
,,,,,,,,,,,,,FF,,,,,,,,0.816,,,,,,,,,,,,,,,,,,,,,,610367eb9e35c754c9add89b,61036b6e550c6cd89e969d67,2021-07-29_20h01.46.995,Simcolourproject_2stim_asymm_v5,2020.2.10,Win32,60,61025ae37ef11b136ea224fe,,,,,,,,,4127,60,-36,1,0,0,response3disk,,5,-2,-12,1,0,0,rectangle,-2,-12,1,0,0,-2,-12,1,0,0,0,76,76,11,1,,,,,,,,
,,,,,,,,,,,,,FF,,,,,,,,0.7319,,,,,,,,,,,,,,,,,,,,,,610367eb9e35c754c9add89b,61036b6e550c6cd89e969d67,2021-07-29_20h01.46.995,Simcolourproject_2stim_asymm_v5,2020.2.10,Win32,60,61025ae37ef11b136ea224fe,,,,,,,,,1765,-65,-36,1,0,0,response5disk,,2,-3,7,1,0,0,rectangle,-44,86,1,0,0,-17,10,1,0,0,0,77,77,129,1,,response7disk_3,TRUE,0,0,"[99,306,261,303,200,28,10,146,78,41,276,216,72,272,152,105,17,84,268,46]",1.8134,rectangle
,,,,,,,,,,,,,FF,,,,,,,,3.0452,,,,,,,,,,,,,,,,,,,,,,610367eb9e35c754c9add89b,61036b6e550c6cd89e969d67,2021-07-29_20h01.46.995,Simcolourproject_2stim_asymm_v5,2020.2.10,Win32,60,61025ae37ef11b136ea224fe,,,,,,,,,1107,-105,-51,1,0,0,response5disk,,2,-13,1,1,0,0,rectangle,-13,1,1,0,0,-13,1,1,0,0,0,78,78,50,1,,,,,,,,
,,,,,,,,,,,,,FF,,,,,,,,0.9484,,,,,,,,,,,,,,,,,,,,,,610367eb9e35c754c9add89b,61036b6e550c6cd89e969d67,2021-07-29_20h01.46.995,Simcolourproject_2stim_asymm_v5,2020.2.10,Win32,60,61025ae37ef11b136ea224fe,,,,,,,,,3614,73,-45,1,0,0,response3disk,,5,-12,-1,1,0,0,rectangle,-12,-1,1,0,0,-12,-1,1,0,0,0,79,79,97,1,,,,,,,,
,,,,,,,,,,,,,FF,,,,,,,,0.6481,,,,,,,,,,,,,,,,,,,,,,610367eb9e35c754c9add89b,61036b6e550c6cd89e969d67,2021-07-29_20h01.46.995,Simcolourproject_2stim_asymm_v5,2020.2.10,Win32,60,61025ae37ef11b136ea224fe,,,,,,,,,4145,-68,-31,1,0,0,response5disk,,2,9,-2,1,0,0,rectangle,9,-2,1,0,0,9,-2,1,0,0,0,80,80,126,1,,,,,,,,
,,,,,,,,,,,,,FF,,,,,,,,0.8717,,,,,,,,,,,,,,,,,,,,,,610367eb9e35c754c9add89b,61036b6e550c6cd89e969d67,2021-07-29_20h01.46.995,Simcolourproject_2stim_asymm_v5,2020.2.10,Win32,60,61025ae37ef11b136ea224fe,,,,,,,,,1448,-65,31,1,0,0,response7disk,,1,-21,6,1,0,0,rectangle,-21,6,1,0,0,-21,6,1,0,0,0,81,81,122,1,,,,,,,,
,,,,,,,,,,,,,FF,,,,,,,,1.0815,,,,,,,,,,,,,,,,,,,,,,610367eb9e35c754c9add89b,61036b6e550c6cd89e969d67,2021-07-29_20h01.46.995,Simcolourproject_2stim_asymm_v5,2020.2.10,Win32,60,61025ae37ef11b136ea224fe,,,,,,,,,131,-56,-66,1,0,0,response5disk,,3,-13,-10,1,0,0,rectangle,-13,-10,1,0,0,-13,-10,1,0,0,0,82,82,152,1,,,,,,,,
,,,,,,,,,,,,,FF,,,,,,,,0.7595,,,,,,,,,,,,,,,,,,,,,,610367eb9e35c754c9add89b,61036b6e550c6cd89e969d67,2021-07-29_20h01.46.995,Simcolourproject_2stim_asymm_v5,2020.2.10,Win32,60,61025ae37ef11b136ea224fe,,,,,,,,,2116,61,26,1,0,0,response1disk,,6,7,4,1,0,0,rectangle,96,35,1,0,0,-11,-5,1,0,0,0,83,83,149,1,,response1disk_3,TRUE,6,6,"[99,306,261,303,200,28,10,146,78,41,276,216,72,272,152,105,17,84,268,46]",1.9793,rectangle
,,,,,,,,,,,,,FF,,,,,,,,1.0773,,,,,,,,,,,,,,,,,,,,,,610367eb9e35c754c9add89b,61036b6e550c6cd89e969d67,2021-07-29_20h01.46.995,Simcolourproject_2stim_asymm_v5,2020.2.10,Win32,60,61025ae37ef11b136ea224fe,,,,,,,,,890,-83,-86,1,0,0,response5disk,,3,-20,3,1,0,0,rectangle,-20,3,1,0,0,-20,3,1,0,0,0,84,84,38,1,,,,,,,,
,,,,,,,,,,,,,FF,,,,,,,,1.1192,,,,,,,,,,,,,,,,,,,,,,610367eb9e35c754c9add89b,61036b6e550c6cd89e969d67,2021-07-29_20h01.46.995,Simcolourproject_2stim_asymm_v5,2020.2.10,Win32,60,61025ae37ef11b136ea224fe,,,,,,,,,2382,59,36,1,0,0,response1disk,,6,20,-7,1,0,0,rectangle,20,-7,1,0,0,20,-7,1,0,0,0,85,85,15,1,,,,,,,,
,,,,,,,,,,,,,FF,,,,,,,,0.9475,,,,,,,,,,,,,,,,,,,,,,610367eb9e35c754c9add89b,61036b6e550c6cd89e969d67,2021-07-29_20h01.46.995,Simcolourproject_2stim_asymm_v5,2020.2.10,Win32,60,61025ae37ef11b136ea224fe,,,,,,,,,3041,-90,-46,1,0,0,response5disk,,2,-12,-1,1,0,0,rectangle,-12,-1,1,0,0,-12,-1,1,0,0,0,86,86,108,1,,,,,,,,
,,,,,,,,,,,,,FF,,,,,,,,0.7989,,,,,,,,,,,,,,,,,,,,,,610367eb9e35c754c9add89b,61036b6e550c6cd89e969d67,2021-07-29_20h01.46.995,Simcolourproject_2stim_asymm_v5,2020.2.10,Win32,60,61025ae37ef11b136ea224fe,,,,,,,,,3136,47,18,1,0,0,response1disk,,6,5,-12,1,0,0,rectangle,5,-12,1,0,0,5,-12,1,0,0,0,87,87,43,1,,,,,,,,
,,,,,,,,,,,,,FF,,,,,,,,0.9487,,,,,,,,,,,,,,,,,,,,,,610367eb9e35c754c9add89b,61036b6e550c6cd89e969d67,2021-07-29_20h01.46.995,Simcolourproject_2stim_asymm_v5,2020.2.10,Win32,60,61025ae37ef11b136ea224fe,,,,,,,,,2159,-41,-46,1,0,0,response5disk,,3,-16,-6,1,0,0,rectangle,-16,-6,1,0,0,-16,-6,1,0,0,0,88,88,103,1,,,,,,,,
,,,,,,,,,,,,,FF,,,,,,,,0.7987,,,,,,,,,,,,,,,,,,,,,,610367eb9e35c754c9add89b,61036b6e550c6cd89e969d67,2021-07-29_20h01.46.995,Simcolourproject_2stim_asymm_v5,2020.2.10,Win32,60,61025ae37ef11b136ea224fe,,,,,,,,,3341,-48,28,1,0,0,response7disk,,1,-22,7,1,0,0,rectangle,-22,7,1,0,0,-22,7,1,0,0,0,89,89,85,1,,,,,,,,
,,,,,,,,,,,,,FF,,,,,,,,0.9143,,,,,,,,,,,,,,,,,,,,,,610367eb9e35c754c9add89b,61036b6e550c6cd89e969d67,2021-07-29_20h01.46.995,Simcolourproject_2stim_asymm_v5,2020.2.10,Win32,60,61025ae37ef11b136ea224fe,,,,,,,,,133,51,-41,1,0,0,response3disk,,5,-20,13,1,0,0,rectangle,-20,13,1,0,0,-20,13,1,0,0,0,90,90,96,1,,,,,,,,
,,,,,,,,,,,,,FF,,,,,,,,0.7495,,,,,,,,,,,,,,,,,,,,,,610367eb9e35c754c9add89b,61036b6e550c6cd89e969d67,2021-07-29_20h01.46.995,Simcolourproject_2stim_asymm_v5,2020.2.10,Win32,60,61025ae37ef11b136ea224fe,,,,,,,,,1243,-69,-57,1,0,0,response5disk,,2,-31,-10,1,0,0,rectangle,-31,-10,1,0,0,-31,-10,1,0,0,0,91,91,87,1,,,,,,,,
,,,,,,,,,,,,,FF,,,,,,,,1.1894,,,,,,,,,,,,,,,,,,,,,,610367eb9e35c754c9add89b,61036b6e550c6cd89e969d67,2021-07-29_20h01.46.995,Simcolourproject_2stim_asymm_v5,2020.2.10,Win32,60,61025ae37ef11b136ea224fe,,,,,,,,,3089,64,-41,1,0,0,response3disk,,5,-6,-6,1,0,0,rectangle,-6,-6,1,0,0,-6,-6,1,0,0,0,92,92,34,1,,,,,,,,
,,,,,,,,,,,,,FF,,,,,,,,1.1993,,,,,,,,,,,,,,,,,,,,,,610367eb9e35c754c9add89b,61036b6e550c6cd89e969d67,2021-07-29_20h01.46.995,Simcolourproject_2stim_asymm_v5,2020.2.10,Win32,60,61025ae37ef11b136ea224fe,,,,,,,,,116,-89,-59,1,0,0,response5disk,,2,-15,-3,1,0,0,rectangle,-15,-3,1,0,0,-15,-3,1,0,0,0,93,93,151,1,,,,,,,,
,,,,,,,,,,,,,FF,,,,,,,,0.7489,,,,,,,,,,,,,,,,,,,,,,610367eb9e35c754c9add89b,61036b6e550c6cd89e969d67,2021-07-29_20h01.46.995,Simcolourproject_2stim_asymm_v5,2020.2.10,Win32,60,61025ae37ef11b136ea224fe,,,,,,,,,1633,73,-25,1,0,0,response3disk,,5,-5,12,1,0,0,rectangle,-5,12,1,0,0,-5,12,1,0,0,0,94,94,24,1,,,,,,,,
,,,,,,,,,,,,,FF,,,,,,,,0.821,,,,,,,,,,,,,,,,,,,,,,610367eb9e35c754c9add89b,61036b6e550c6cd89e969d67,2021-07-29_20h01.46.995,Simcolourproject_2stim_asymm_v5,2020.2.10,Win32,60,61025ae37ef11b136ea224fe,,,,,,,,,2948,-84,26,1,0,0,response7disk,,1,12,1,1,0,0,rectangle,12,1,1,0,0,12,1,1,0,0,0,95,95,13,1,,,,,,,,
,,,,,,,,,,,,,FF,,,,,,,,1.3659,,,,,,,,,,,,,,,,,,,,,,610367eb9e35c754c9add89b,61036b6e550c6cd89e969d67,2021-07-29_20h01.46.995,Simcolourproject_2stim_asymm_v5,2020.2.10,Win32,60,61025ae37ef11b136ea224fe,,,,,,,,,2354,78,59,1,0,0,response1disk,,6,8,-1,1,0,0,rectangle,8,-1,1,0,0,8,-1,1,0,0,0,96,96,145,1,,,,,,,,
,,,,,,,,,,,,,FF,,,,,,,,0.9483,,,,,,,,,,,,,,,,,,,,,,610367eb9e35c754c9add89b,61036b6e550c6cd89e969d67,2021-07-29_20h01.46.995,Simcolourproject_2stim_asymm_v5,2020.2.10,Win32,60,61025ae37ef11b136ea224fe,,,,,,,,,1309,-87,-30,1,0,0,response5disk,,2,-19,14,1,0,0,rectangle,-19,14,1,0,0,-19,14,1,0,0,0,97,97,88,1,,,,,,,,
,,,,,,,,,,,,,FF,,,,,,,,0.8207,,,,,,,,,,,,,,,,,,,,,,610367eb9e35c754c9add89b,61036b6e550c6cd89e969d67,2021-07-29_20h01.46.995,Simcolourproject_2stim_asymm_v5,2020.2.10,Win32,60,61025ae37ef11b136ea224fe,,,,,,,,,386,53,57,1,0,0,response1disk,,7,24,-1,1,0,0,rectangle,21,-92,1,0,0,-8,-1,1,0,0,0,98,98,17,1,,response3disk_3,TRUE,4,4,"[99,306,261,303,200,28,10,146,78,41,276,216,72,272,152,105,17,84,268,46]",2.0611,rectangle
,,,,,,,,,,,,,FF,,,,,,,,10.9315,,,,,,,,,,,,,,,,,,,,,,610367eb9e35c754c9add89b,61036b6e550c6cd89e969d67,2021-07-29_20h01.46.995,Simcolourproject_2stim_asymm_v5,2020.2.10,Win32,60,61025ae37ef11b136ea224fe,,,,,,,,,2618,55,-31,1,0,0,response3disk,,5,-29,-5,1,0,0,rectangle,-29,-5,1,0,0,-29,-5,1,0,0,0,99,99,99,1,,,,,,,,
,,,,,,,,,,,,,FF,,,,,,,,0.6436,,,,,,,,,,,,,,,,,,,,,,610367eb9e35c754c9add89b,61036b6e550c6cd89e969d67,2021-07-29_20h01.46.995,Simcolourproject_2stim_asymm_v5,2020.2.10,Win32,60,61025ae37ef11b136ea224fe,,,,,,,,,999,-48,-39,1,0,0,response5disk,,2,-17,1,1,0,0,rectangle,-17,1,1,0,0,-17,1,1,0,0,0,100,100,143,1,,,,,,,,
,,,,,,,,,,,,,FF,,,,,,,,1.0779,,,,,,,,,,,,,,,,,,,,,,610367eb9e35c754c9add89b,61036b6e550c6cd89e969d67,2021-07-29_20h01.46.995,Simcolourproject_2stim_asymm_v5,2020.2.10,Win32,60,61025ae37ef11b136ea224fe,,,,,,,,,4041,25,63,1,0,0,response1disk,,7,-3,2,1,0,0,rectangle,-3,2,1,0,0,-3,2,1,0,0,0,101,101,32,1,,,,,,,,
,,,,,,,,,,,,,FF,,,,,,,,0.7314,,,,,,,,,,,,,,,,,,,,,,610367eb9e35c754c9add89b,61036b6e550c6cd89e969d67,2021-07-29_20h01.46.995,Simcolourproject_2stim_asymm_v5,2020.2.10,Win32,60,61025ae37ef11b136ea224fe,,,,,,,,,1239,-64,-28,1,0,0,response5disk,,2,-22,12,1,0,0,rectangle,-22,12,1,0,0,-22,12,1,0,0,0,102,102,128,1,,,,,,,,
,,,,,,,,,,,,,FF,,,,,,,,0.8424,,,,,,,,,,,,,,,,,,,,,,610367eb9e35c754c9add89b,61036b6e550c6cd89e969d67,2021-07-29_20h01.46.995,Simcolourproject_2stim_asymm_v5,2020.2.10,Win32,60,61025ae37ef11b136ea224fe,,,,,,,,,1977,51,48,1,0,0,response1disk,,6,16,7,1,0,0,rectangle,16,7,1,0,0,16,7,1,0,0,0,103,103,68,1,,,,,,,,
,,,,,,,,,,,,,FF,,,,,,,,0.8655,,,,,,,,,,,,,,,,,,,,,,610367eb9e35c754c9add89b,61036b6e550c6cd89e969d67,2021-07-29_20h01.46.995,Simcolourproject_2stim_asymm_v5,2020.2.10,Win32,60,61025ae37ef11b136ea224fe,,,,,,,,,1603,-75,34,1,0,0,response7disk,,1,-7,-8,1,0,0,rectangle,91,71,1,0,0,-3,6,1,0,0,0,104,104,26,1,,response1disk_3,TRUE,6,6,"[99,306,261,303,200,28,10,146,78,41,276,216,72,272,152,105,17,84,268,46]",2.5953,rectangle
,,,,,,,,,,,,,FF,,,,,,,,0.9493,,,,,,,,,,,,,,,,,,,,,,610367eb9e35c754c9add89b,61036b6e550c6cd89e969d67,2021-07-29_20h01.46.995,Simcolourproject_2stim_asymm_v5,2020.2.10,Win32,60,61025ae37ef11b136ea224fe,,,,,,,,,518,32,42,1,0,0,response1disk,,7,-2,-9,1,0,0,rectangle,-2,-9,1,0,0,-2,-9,1,0,0,0,105,105,65,1,,,,,,,,
,,,,,,,,,,,,,FF,,,,,,,,1.0982,,,,,,,,,,,,,,,,,,,,,,610367eb9e35c754c9add89b,61036b6e550c6cd89e969d67,2021-07-29_20h01.46.995,Simcolourproject_2stim_asymm_v5,2020.2.10,Win32,60,61025ae37ef11b136ea224fe,,,,,,,,,2962,36,-60,1,0,0,response3disk,,4,-2,-5,1,0,0,rectangle,-2,-5,1,0,0,-2,-5,1,0,0,0,106,106,109,1,,,,,,,,
,,,,,,,,,,,,,FF,,,,,,,,0.6636,,,,,,,,,,,,,,,,,,,,,,610367eb9e35c754c9add89b,61036b6e550c6cd89e969d67,2021-07-29_20h01.46.995,Simcolourproject_2stim_asymm_v5,2020.2.10,Win32,60,61025ae37ef11b136ea224fe,,,,,,,,,185,-106,50,1,0,0,response7disk,,1,-1,2,1,0,0,rectangle,-1,2,1,0,0,-1,2,1,0,0,0,107,107,134,1,,,,,,,,
,,,,,,,,,,,,,FF,,,,,,,,0.7356,,,,,,,,,,,,,,,,,,,,,,610367eb9e35c754c9add89b,61036b6e550c6cd89e969d67,2021-07-29_20h01.46.995,Simcolourproject_2stim_asymm_v5,2020.2.10,Win32,60,61025ae37ef11b136ea224fe,,,,,,,,,4293,-89,33,1,0,0,response7disk,,1,-28,1,1,0,0,rectangle,-28,1,1,0,0,-28,1,1,0,0,0,108,108,52,1,,,,,,,,
,,,,,,,,,,,,,FF,,,,,,,,0.615,,,,,,,,,,,,,,,,,,,,,,610367eb9e35c754c9add89b,61036b6e550c6cd89e969d67,2021-07-29_20h01.46.995,Simcolourproject_2stim_asymm_v5,2020.2.10,Win32,60,61025ae37ef11b136ea224fe,,,,,,,,,492,44,60,1,0,0,response1disk,,7,4,10,1,0,0,rectangle,4,10,1,0,0,4,10,1,0,0,0,109,109,27,1,,,,,,,,
,,,,,,,,,,,,,FF,,,,,,,,1.011,,,,,,,,,,,,,,,,,,,,,,610367eb9e35c754c9add89b,61036b6e550c6cd89e969d67,2021-07-29_20h01.46.995,Simcolourproject_2stim_asymm_v5,2020.2.10,Win32,60,61025ae37ef11b136ea224fe,,,,,,,,,241,18,45,1,0,0,response1disk,,7,-3,-15,1,0,0,rectangle,-3,-15,1,0,0,-3,-15,1,0,0,0,110,110,18,1,,,,,,,,
,,,,,,,,,,,,,FF,,,,,,,,0.6528,,,,,,,,,,,,,,,,,,,,,,610367eb9e35c754c9add89b,61036b6e550c6cd89e969d67,2021-07-29_20h01.46.995,Simcolourproject_2stim_asymm_v5,2020.2.10,Win32,60,61025ae37ef11b136ea224fe,,,,,,,,,2308,-77,18,1,0,0,response7disk,,1,0,0,1,0,0,rectangle,0,0,1,0,0,0,0,1,0,0,0,111,111,14,1,,,,,,,,
,,,,,,,,,,,,,FF,,,,,,,,0.6304,,,,,,,,,,,,,,,,,,,,,,610367eb9e35c754c9add89b,61036b6e550c6cd89e969d67,2021-07-29_20h01.46.995,Simcolourproject_2stim_asymm_v5,2020.2.10,Win32,60,61025ae37ef11b136ea224fe,,,,,,,,,1025,45,56,1,0,0,response1disk,,7,11,-3,1,0,0,rectangle,11,-3,1,0,0,11,-3,1,0,0,0,112,112,78,1,,,,,,,,
,,,,,,,,,,,,,FF,,,,,,,,0.7655,,,,,,,,,,,,,,,,,,,,,,610367eb9e35c754c9add89b,61036b6e550c6cd89e969d67,2021-07-29_20h01.46.995,Simcolourproject_2stim_asymm_v5,2020.2.10,Win32,60,61025ae37ef11b136ea224fe,,,,,,,,,1203,-71,-32,1,0,0,response5disk,,2,-28,-12,1,0,0,rectangle,-28,-12,1,0,0,-28,-12,1,0,0,0,113,113,35,1,,,,,,,,
,,,,,,,,,,,,,FF,,,,,,,,0.5854,,,,,,,,,,,,,,,,,,,,,,610367eb9e35c754c9add89b,61036b6e550c6cd89e969d67,2021-07-29_20h01.46.995,Simcolourproject_2stim_asymm_v5,2020.2.10,Win32,60,61025ae37ef11b136ea224fe,,,,,,,,,511,34,39,1,0,0,response1disk,,7,-1,5,1,0,0,rectangle,-1,5,1,0,0,-1,5,1,0,0,0,114,114,139,1,,,,,,,,
,,,,,,,,,,,,,FF,,,,,,,,0.5329,,,,,,,,,,,,,,,,,,,,,,610367eb9e35c754c9add89b,61036b6e550c6cd89e969d67,2021-07-29_20h01.46.995,Simcolourproject_2stim_asymm_v5,2020.2.10,Win32,60,61025ae37ef11b136ea224fe,,,,,,,,,3650,-56,-31,1,0,0,response5disk,,2,16,-7,1,0,0,rectangle,16,-7,1,0,0,16,-7,1,0,0,0,115,115,37,1,,,,,,,,
,,,,,,,,,,,,,FF,,,,,,,,0.6826,,,,,,,,,,,,,,,,,,,,,,610367eb9e35c754c9add89b,61036b6e550c6cd89e969d67,2021-07-29_20h01.46.995,Simcolourproject_2stim_asymm_v5,2020.2.10,Win32,60,61025ae37ef11b136ea224fe,,,,,,,,,2301,-56,-43,1,0,0,response5disk,,2,-27,-9,1,0,0,rectangle,-27,-9,1,0,0,-27,-9,1,0,0,0,116,116,91,1,,,,,,,,
,,,,,,,,,,,,,FF,,,,,,,,0.416,,,,,,,,,,,,,,,,,,,,,,610367eb9e35c754c9add89b,61036b6e550c6cd89e969d67,2021-07-29_20h01.46.995,Simcolourproject_2stim_asymm_v5,2020.2.10,Win32,60,61025ae37ef11b136ea224fe,,,,,,,,,1811,48,23,1,0,0,response1disk,,6,1,-10,1,0,0,rectangle,1,-10,1,0,0,1,-10,1,0,0,0,117,117,69,1,,,,,,,,
,,,,,,,,,,,,,FF,,,,,,,,0.0846,,,,,,,,,,,,,,,,,,,,,,610367eb9e35c754c9add89b,61036b6e550c6cd89e969d67,2021-07-29_20h01.46.995,Simcolourproject_2stim_asymm_v5,2020.2.10,Win32,60,61025ae37ef11b136ea224fe,,,,,,,,,3907,-39,-36,1,0,0,response5disk,,2,-18,-15,1,0,0,rectangle,-18,-15,1,0,0,-18,-15,1,0,0,0,118,118,41,1,,,,,,,,
,,,,,,,,,,,,,FF,,,,,,,,1.2165,,,,,,,,,,,,,,,,,,,,,,610367eb9e35c754c9add89b,61036b6e550c6cd89e969d67,2021-07-29_20h01.46.995,Simcolourproject_2stim_asymm_v5,2020.2.10,Win32,60,61025ae37ef11b136ea224fe,,,,,,,,,1220,-34,-34,1,0,0,response5disk,,3,-2,-12,1,0,0,rectangle,-2,-12,1,0,0,-2,-12,1,0,0,0,119,119,159,1,,,,,,,,
,,,,,,,,,,,,,FF,,,,,,,,0.7318,,,,,,,,,,,,,,,,,,,,,,610367eb9e35c754c9add89b,61036b6e550c6cd89e969d67,2021-07-29_20h01.46.995,Simcolourproject_2stim_asymm_v5,2020.2.10,Win32,60,61025ae37ef11b136ea224fe,,,,,,,,,980,-51,23,1,0,0,response7disk,,1,-3,5,1,0,0,rectangle,-3,5,1,0,0,-3,5,1,0,0,0,120,120,147,1,,,,,,,,
,,,,,,,,,,,,,FF,,,,,,,,0.6151,,,,,,,,,,,,,,,,,,,,,,610367eb9e35c754c9add89b,61036b6e550c6cd89e969d67,2021-07-29_20h01.46.995,Simcolourproject_2stim_asymm_v5,2020.2.10,Win32,60,61025ae37ef11b136ea224fe,,,,,,,,,1625,50,52,1,0,0,response1disk,,7,2,8,1,0,0,rectangle,2,8,1,0,0,2,8,1,0,0,0,121,121,131,1,,,,,,,,
,,,,,,,,,,,,,FF,,,,,,,,0.5462,,,,,,,,,,,,,,,,,,,,,,610367eb9e35c754c9add89b,61036b6e550c6cd89e969d67,2021-07-29_20h01.46.995,Simcolourproject_2stim_asymm_v5,2020.2.10,Win32,60,61025ae37ef11b136ea224fe,,,,,,,,,2006,-64,-41,1,0,0,response5disk,,2,-7,-2,1,0,0,rectangle,-7,-2,1,0,0,-7,-2,1,0,0,0,122,122,133,1,,,,,,,,
,,,,,,,,,,,,,FF,,,,,,,,0.5644,,,,,,,,,,,,,,,,,,,,,,610367eb9e35c754c9add89b,61036b6e550c6cd89e969d67,2021-07-29_20h01.46.995,Simcolourproject_2stim_asymm_v5,2020.2.10,Win32,60,61025ae37ef11b136ea224fe,,,,,,,,,84,22,36,1,0,0,response1disk,,7,-18,-7,1,0,0,rectangle,-18,-7,1,0,0,-18,-7,1,0,0,0,123,123,61,1,,,,,,,,
,,,,,,,,,,,,,FF,,,,,,,,0.7614,,,,,,,,,,,,,,,,,,,,,,610367eb9e35c754c9add89b,61036b6e550c6cd89e969d67,2021-07-29_20h01.46.995,Simcolourproject_2stim_asymm_v5,2020.2.10,Win32,60,61025ae37ef11b136ea224fe,,,,,,,,,1816,-95,55,1,0,0,response7disk,,1,1,-4,1,0,0,rectangle,1,-4,1,0,0,1,-4,1,0,0,0,124,124,40,1,,,,,,,,
,,,,,,,,,,,,,FF,,,,,,,,0.8647,,,,,,,,,,,,,,,,,,,,,,610367eb9e35c754c9add89b,61036b6e550c6cd89e969d67,2021-07-29_20h01.46.995,Simcolourproject_2stim_asymm_v5,2020.2.10,Win32,60,61025ae37ef11b136ea224fe,,,,,,,,,253,54,42,1,0,0,response1disk,,6,1,-4,1,0,0,rectangle,1,-4,1,0,0,1,-4,1,0,0,0,125,125,28,1,,,,,,,,
,,,,,,,,,,,,,FF,,,,,,,,1.8576,,,,,,,,,,,,,,,,,,,,,,610367eb9e35c754c9add89b,61036b6e550c6cd89e969d67,2021-07-29_20h01.46.995,Simcolourproject_2stim_asymm_v5,2020.2.10,Win32,60,61025ae37ef11b136ea224fe,,,,,,,,,4043,36,63,1,0,0,response1disk,,7,21,13,1,0,0,rectangle,21,13,1,0,0,21,13,1,0,0,0,126,126,136,1,,,,,,,,
,,,,,,,,,,,,,FF,,,,,,,,0.7795,,,,,,,,,,,,,,,,,,,,,,610367eb9e35c754c9add89b,61036b6e550c6cd89e969d67,2021-07-29_20h01.46.995,Simcolourproject_2stim_asymm_v5,2020.2.10,Win32,60,61025ae37ef11b136ea224fe,,,,,,,,,1296,-51,31,1,0,0,response7disk,,1,-13,1,1,0,0,rectangle,-13,1,1,0,0,-13,1,1,0,0,0,127,127,86,1,,,,,,,,
,,,,,,,,,,,,,FF,,,,,,,,1.6979,,,,,,,,,,,,,,,,,,,,,,610367eb9e35c754c9add89b,61036b6e550c6cd89e969d67,2021-07-29_20h01.46.995,Simcolourproject_2stim_asymm_v5,2020.2.10,Win32,60,61025ae37ef11b136ea224fe,,,,,,,,,3015,50,34,1,0,0,response1disk,,6,14,2,1,0,0,rectangle,14,2,1,0,0,14,2,1,0,0,0,128,128,3,1,,,,,,,,
,,,,,,,,,,,,,FF,,,,,,,,1.2686,,,,,,,,,,,,,,,,,,,,,,610367eb9e35c754c9add89b,61036b6e550c6cd89e969d67,2021-07-29_20h01.46.995,Simcolourproject_2stim_asymm_v5,2020.2.10,Win32,60,61025ae37ef11b136ea224fe,,,,,,,,,4195,54,43,1,0,0,response1disk,,6,-7,0,1,0,0,rectangle,-7,0,1,0,0,-7,0,1,0,0,0,129,129,137,1,,,,,,,,
,,,,,,,,,,,,,FF,,,,,,,,0.8372,,,,,,,,,,,,,,,,,,,,,,610367eb9e35c754c9add89b,61036b6e550c6cd89e969d67,2021-07-29_20h01.46.995,Simcolourproject_2stim_asymm_v5,2020.2.10,Win32,60,61025ae37ef11b136ea224fe,,,,,,,,,4078,-73,24,1,0,0,response7disk,,1,-27,-5,1,0,0,rectangle,-27,-5,1,0,0,-27,-5,1,0,0,0,130,130,144,1,,,,,,,,
,,,,,,,,,,,,,FF,,,,,,,,0.5438,,,,,,,,,,,,,,,,,,,,,,610367eb9e35c754c9add89b,61036b6e550c6cd89e969d67,2021-07-29_20h01.46.995,Simcolourproject_2stim_asymm_v5,2020.2.10,Win32,60,61025ae37ef11b136ea224fe,,,,,,,,,3268,48,38,1,0,0,response1disk,,6,10,1,1,0,0,rectangle,10,1,1,0,0,10,1,1,0,0,0,131,131,48,1,,,,,,,,
,,,,,,,,,,,,,FF,,,,,,,,1.5657,,,,,,,,,,,,,,,,,,,,,,610367eb9e35c754c9add89b,61036b6e550c6cd89e969d67,2021-07-29_20h01.46.995,Simcolourproject_2stim_asymm_v5,2020.2.10,Win32,60,61025ae37ef11b136ea224fe,,,,,,,,,2182,54,21,1,0,0,response1disk,,6,30,-2,1,0,0,rectangle,30,-2,1,0,0,30,-2,1,0,0,0,132,132,116,1,,,,,,,,
,,,,,,,,,,,,,FF,,,,,,,,0.8817,,,,,,,,,,,,,,,,,,,,,,610367eb9e35c754c9add89b,61036b6e550c6cd89e969d67,2021-07-29_20h01.46.995,Simcolourproject_2stim_asymm_v5,2020.2.10,Win32,60,61025ae37ef11b136ea224fe,,,,,,,,,3199,-45,-48,1,0,0,response5disk,,3,17,3,1,0,0,rectangle,17,3,1,0,0,17,3,1,0,0,0,133,133,53,1,,,,,,,,
,,,,,,,,,,,,,FF,,,,,,,,0.9992,,,,,,,,,,,,,,,,,,,,,,610367eb9e35c754c9add89b,61036b6e550c6cd89e969d67,2021-07-29_20h01.46.995,Simcolourproject_2stim_asymm_v5,2020.2.10,Win32,60,61025ae37ef11b136ea224fe,,,,,,,,,2999,-97,20,1,0,0,response7disk,,1,-12,1,1,0,0,rectangle,-12,1,1,0,0,-12,1,1,0,0,0,134,134,93,1,,,,,,,,
,,,,,,,,,,,,,FF,,,,,,,,0.7988,,,,,,,,,,,,,,,,,,,,,,610367eb9e35c754c9add89b,61036b6e550c6cd89e969d67,2021-07-29_20h01.46.995,Simcolourproject_2stim_asymm_v5,2020.2.10,Win32,60,61025ae37ef11b136ea224fe,,,,,,,,,3416,44,77,1,0,0,response1disk,,7,7,-5,1,0,0,rectangle,7,-5,1,0,0,7,-5,1,0,0,0,135,135,106,1,,,,,,,,
,,,,,,,,,,,,,FF,,,,,,,,0.8625,,,,,,,,,,,,,,,,,,,,,,610367eb9e35c754c9add89b,61036b6e550c6cd89e969d67,2021-07-29_20h01.46.995,Simcolourproject_2stim_asymm_v5,2020.2.10,Win32,60,61025ae37ef11b136ea224fe,,,,,,,,,2565,26,67,1,0,0,response1disk,,7,15,10,1,0,0,rectangle,15,10,1,0,0,15,10,1,0,0,0,136,136,42,1,,,,,,,,
,,,,,,,,,,,,,FF,,,,,,,,1.4463,,,,,,,,,,,,,,,,,,,,,,610367eb9e35c754c9add89b,61036b6e550c6cd89e969d67,2021-07-29_20h01.46.995,Simcolourproject_2stim_asymm_v5,2020.2.10,Win32,60,61025ae37ef11b136ea224fe,,,,,,,,,1200,20,-65,1,0,0,response3disk,,4,0,-13,1,0,0,rectangle,0,-13,1,0,0,0,-13,1,0,0,0,137,137,5,1,,,,,,,,
,,,,,,,,,,,,,FF,,,,,,,,0.6429,,,,,,,,,,,,,,,,,,,,,,610367eb9e35c754c9add89b,61036b6e550c6cd89e969d67,2021-07-29_20h01.46.995,Simcolourproject_2stim_asymm_v5,2020.2.10,Win32,60,61025ae37ef11b136ea224fe,,,,,,,,,3699,49,38,1,0,0,response1disk,,6,13,1,1,0,0,rectangle,13,1,1,0,0,13,1,1,0,0,0,138,138,90,1,,,,,,,,
,,,,,,,,,,,,,FF,,,,,,,,24.5172,,,,,,,,,,,,,,,,,,,,,,610367eb9e35c754c9add89b,61036b6e550c6cd89e969d67,2021-07-29_20h01.46.995,Simcolourproject_2stim_asymm_v5,2020.2.10,Win32,60,61025ae37ef11b136ea224fe,,,,,,,,,2917,41,-36,1,0,0,response3disk,,5,-11,-6,1,0,0,rectangle,-11,-6,1,0,0,-11,-6,1,0,0,0,139,139,54,1,,,,,,,,
,,,,,,,,,,,,,FF,,,,,,,,0.7827,,,,,,,,,,,,,,,,,,,,,,610367eb9e35c754c9add89b,61036b6e550c6cd89e969d67,2021-07-29_20h01.46.995,Simcolourproject_2stim_asymm_v5,2020.2.10,Win32,60,61025ae37ef11b136ea224fe,,,,,,,,,1584,-54,-55,1,0,0,response5disk,,3,-14,12,1,0,0,rectangle,-14,12,1,0,0,-14,12,1,0,0,0,140,140,102,1,,,,,,,,
,,,,,,,,,,,,,FF,,,,,,,,0.7149,,,,,,,,,,,,,,,,,,,,,,610367eb9e35c754c9add89b,61036b6e550c6cd89e969d67,2021-07-29_20h01.46.995,Simcolourproject_2stim_asymm_v5,2020.2.10,Win32,60,61025ae37ef11b136ea224fe,,,,,,,,,3630,-115,73,1,0,0,response7disk,,1,-13,-3,1,0,0,rectangle,-13,-3,1,0,0,-13,-3,1,0,0,0,141,141,110,1,,,,,,,,
,,,,,,,,,,,,,FF,,,,,,,,0.5803,,,,,,,,,,,,,,,,,,,,,,610367eb9e35c754c9add89b,61036b6e550c6cd89e969d67,2021-07-29_20h01.46.995,Simcolourproject_2stim_asymm_v5,2020.2.10,Win32,60,61025ae37ef11b136ea224fe,,,,,,,,,396,62,-26,1,0,0,response3disk,,5,7,7,1,0,0,rectangle,7,7,1,0,0,7,7,1,0,0,0,142,142,21,1,,,,,,,,
,,,,,,,,,,,,,FF,,,,,,,,2.6455,,,,,,,,,,,,,,,,,,,,,,610367eb9e35c754c9add89b,61036b6e550c6cd89e969d67,2021-07-29_20h01.46.995,Simcolourproject_2stim_asymm_v5,2020.2.10,Win32,60,61025ae37ef11b136ea224fe,,,,,,,,,2311,25,56,1,0,0,response1disk,,7,11,-1,1,0,0,rectangle,11,-1,1,0,0,11,-1,1,0,0,0,143,143,64,1,,,,,,,,
,,,,,,,,,,,,,FF,,,,,,,,3.1486,,,,,,,,,,,,,,,,,,,,,,610367eb9e35c754c9add89b,61036b6e550c6cd89e969d67,2021-07-29_20h01.46.995,Simcolourproject_2stim_asymm_v5,2020.2.10,Win32,60,61025ae37ef11b136ea224fe,,,,,,,,,2015,-86,45,1,0,0,response7disk,,1,-23,-14,1,0,0,rectangle,-23,-14,1,0,0,-23,-14,1,0,0,0,144,144,130,1,,,,,,,,
,,,,,,,,,,,,,FF,,,,,,,,0.7789,,,,,,,,,,,,,,,,,,,,,,610367eb9e35c754c9add89b,61036b6e550c6cd89e969d67,2021-07-29_20h01.46.995,Simcolourproject_2stim_asymm_v5,2020.2.10,Win32,60,61025ae37ef11b136ea224fe,,,,,,,,,81,-46,-67,1,0,0,response5disk,,3,-4,8,1,0,0,rectangle,-35,93,1,0,0,-19,8,1,0,0,0,145,145,94,1,,response7disk_3,TRUE,0,0,"[99,306,261,303,200,28,10,146,78,41,276,216,72,272,152,105,17,84,268,46]",2.0425,rectangle
,,,,,,,,,,,,,FF,,,,,,,,1.8986,,,,,,,,,,,,,,,,,,,,,,610367eb9e35c754c9add89b,61036b6e550c6cd89e969d67,2021-07-29_20h01.46.995,Simcolourproject_2stim_asymm_v5,2020.2.10,Win32,60,61025ae37ef11b136ea224fe,,,,,,,,,3889,-59,26,1,0,0,response7disk,,1,10,0,1,0,0,rectangle,10,0,1,0,0,10,0,1,0,0,0,146,146,124,1,,,,,,,,
,,,,,,,,,,,,,FF,,,,,,,,0.766,,,,,,,,,,,,,,,,,,,,,,610367eb9e35c754c9add89b,61036b6e550c6cd89e969d67,2021-07-29_20h01.46.995,Simcolourproject_2stim_asymm_v5,2020.2.10,Win32,60,61025ae37ef11b136ea224fe,,,,,,,,,3853,41,-33,1,0,0,response3disk,,5,-2,-2,1,0,0,rectangle,-2,-2,1,0,0,-2,-2,1,0,0,0,147,147,148,1,,,,,,,,
,,,,,,,,,,,,,FF,,,,,,,,1.3002,,,,,,,,,,,,,,,,,,,,,,610367eb9e35c754c9add89b,61036b6e550c6cd89e969d67,2021-07-29_20h01.46.995,Simcolourproject_2stim_asymm_v5,2020.2.10,Win32,60,61025ae37ef11b136ea224fe,,,,,,,,,1881,-111,33,1,0,0,response7disk,,1,-18,-14,1,0,0,rectangle,-18,-14,1,0,0,-18,-14,1,0,0,0,148,148,84,1,,,,,,,,
,,,,,,,,,,,,,FF,,,,,,,,0.6323,,,,,,,,,,,,,,,,,,,,,,610367eb9e35c754c9add89b,61036b6e550c6cd89e969d67,2021-07-29_20h01.46.995,Simcolourproject_2stim_asymm_v5,2020.2.10,Win32,60,61025ae37ef11b136ea224fe,,,,,,,,,1241,-74,-72,1,0,0,response5disk,,2,-14,8,1,0,0,rectangle,-14,8,1,0,0,-14,8,1,0,0,0,149,149,36,1,,,,,,,,
,,,,,,,,,,,,,FF,,,,,,,,0.5663,,,,,,,,,,,,,,,,,,,,,,610367eb9e35c754c9add89b,61036b6e550c6cd89e969d67,2021-07-29_20h01.46.995,Simcolourproject_2stim_asymm_v5,2020.2.10,Win32,60,61025ae37ef11b136ea224fe,,,,,,,,,1388,48,44,1,0,0,response1disk,,6,11,-11,1,0,0,rectangle,11,-11,1,0,0,11,-11,1,0,0,0,150,150,142,1,,,,,,,,
,,,,,,,,,,,,,FF,,,,,,,,0.7158,,,,,,,,,,,,,,,,,,,,,,610367eb9e35c754c9add89b,61036b6e550c6cd89e969d67,2021-07-29_20h01.46.995,Simcolourproject_2stim_asymm_v5,2020.2.10,Win32,60,61025ae37ef11b136ea224fe,,,,,,,,,1029,54,25,1,0,0,response1disk,,6,19,-4,1,0,0,rectangle,-31,98,1,0,0,3,1,1,0,0,0,151,151,154,1,,response7disk_3,TRUE,0,0,"[99,306,261,303,200,28,10,146,78,41,276,216,72,272,152,105,17,84,268,46]",1.8285,rectangle
,,,,,,,,,,,,,FF,,,,,,,,0.7145,,,,,,,,,,,,,,,,,,,,,,610367eb9e35c754c9add89b,61036b6e550c6cd89e969d67,2021-07-29_20h01.46.995,Simcolourproject_2stim_asymm_v5,2020.2.10,Win32,60,61025ae37ef11b136ea224fe,,,,,,,,,1845,77,81,1,0,0,response1disk,,7,2,-3,1,0,0,rectangle,2,-3,1,0,0,2,-3,1,0,0,0,152,152,113,1,,,,,,,,
,,,,,,,,,,,,,FF,,,,,,,,1.1378,,,,,,,,,,,,,,,,,,,,,,610367eb9e35c754c9add89b,61036b6e550c6cd89e969d67,2021-07-29_20h01.46.995,Simcolourproject_2stim_asymm_v5,2020.2.10,Win32,60,61025ae37ef11b136ea224fe,,,,,,,,,2643,58,29,1,0,0,response1disk,,6,4,-1,1,0,0,rectangle,4,-1,1,0,0,4,-1,1,0,0,0,153,153,158,1,,,,,,,,
,,,,,,,,,,,,,FF,,,,,,,,0.5995,,,,,,,,,,,,,,,,,,,,,,610367eb9e35c754c9add89b,61036b6e550c6cd89e969d67,2021-07-29_20h01.46.995,Simcolourproject_2stim_asymm_v5,2020.2.10,Win32,60,61025ae37ef11b136ea224fe,,,,,,,,,848,68,49,1,0,0,response1disk,,6,5,-15,1,0,0,rectangle,5,-15,1,0,0,5,-15,1,0,0,0,154,154,118,1,,,,,,,,
,,,,,,,,,,,,,FF,,,,,,,,1.1459,,,,,,,,,,,,,,,,,,,,,,610367eb9e35c754c9add89b,61036b6e550c6cd89e969d67,2021-07-29_20h01.46.995,Simcolourproject_2stim_asymm_v5,2020.2.10,Win32,60,61025ae37ef11b136ea224fe,,,,,,,,,2079,86,-15,1,0,0,response3disk,,5,-23,12,1,0,0,rectangle,-23,12,1,0,0,-23,12,1,0,0,0,155,155,155,1,,,,,,,,
,,,,,,,,,,,,,FF,,,,,,,,0.6817,,,,,,,,,,,,,,,,,,,,,,610367eb9e35c754c9add89b,61036b6e550c6cd89e969d67,2021-07-29_20h01.46.995,Simcolourproject_2stim_asymm_v5,2020.2.10,Win32,60,61025ae37ef11b136ea224fe,,,,,,,,,761,45,43,1,0,0,response1disk,,6,6,-6,1,0,0,rectangle,6,-6,1,0,0,6,-6,1,0,0,0,156,156,29,1,,,,,,,,
,,,,,,,,,,,,,FF,,,,,,,,1.0696,,,,,,,,,,,,,,,,,,,,,,610367eb9e35c754c9add89b,61036b6e550c6cd89e969d67,2021-07-29_20h01.46.995,Simcolourproject_2stim_asymm_v5,2020.2.10,Win32,60,61025ae37ef11b136ea224fe,,,,,,,,,4004,78,58,1,0,0,response1disk,,6,-11,0,1,0,0,rectangle,-11,0,1,0,0,-11,0,1,0,0,0,157,157,111,1,,,,,,,,
,,,,,,,,,,,,,FF,,,,,,,,0.6321,,,,,,,,,,,,,,,,,,,,,,610367eb9e35c754c9add89b,61036b6e550c6cd89e969d67,2021-07-29_20h01.46.995,Simcolourproject_2stim_asymm_v5,2020.2.10,Win32,60,61025ae37ef11b136ea224fe,,,,,,,,,683,51,26,1,0,0,response1disk,,6,-13,-12,1,0,0,rectangle,-13,-12,1,0,0,-13,-12,1,0,0,0,158,158,104,1,,,,,,,,
,,,,,,,,,,,,,FF,,,,,,,,0.6209,,,,,,,,,,,,,,,,,,,,,,610367eb9e35c754c9add89b,61036b6e550c6cd89e969d67,2021-07-29_20h01.46.995,Simcolourproject_2stim_asymm_v5,2020.2.10,Win32,60,61025ae37ef11b136ea224fe,,,,,,,,,2162,41,26,1,0,0,response1disk,,6,5,7,1,0,0,rectangle,5,7,1,0,0,5,7,1,0,0,0,159,159,119,1,,,,,,,,
,,,,,,,,,,,,,FF,,,,,,,,1.7885,,,,,,,,,,,,,,,,,,,,,,610367eb9e35c754c9add89b,61036b6e550c6cd89e969d67,2021-07-29_20h01.46.995,Simcolourproject_2stim_asymm_v5,2020.2.10,Win32,60,61025ae37ef11b136ea224fe,,,,,,,,,2970,57,-38,1,0,0,response3disk,,5,-7,-9,1,0,0,rectangle,-7,-9,1,0,0,-7,-9,1,0,0,1,0,160,93,1,,,,,,,,
,,,,,,,,,,,,,FF,,,,,,,,0.7208,,,,,,,,,,,,,,,,,,,,,,610367eb9e35c754c9add89b,61036b6e550c6cd89e969d67,2021-07-29_20h01.46.995,Simcolourproject_2stim_asymm_v5,2020.2.10,Win32,60,61025ae37ef11b136ea224fe,,,,,,,,,1928,76,57,1,0,0,response1disk,,6,12,9,1,0,0,rectangle,12,9,1,0,0,12,9,1,0,0,1,1,161,116,1,,,,,,,,
,,,,,,,,,,,,,FF,,,,,,,,0.7532,,,,,,,,,,,,,,,,,,,,,,610367eb9e35c754c9add89b,61036b6e550c6cd89e969d67,2021-07-29_20h01.46.995,Simcolourproject_2stim_asymm_v5,2020.2.10,Win32,60,61025ae37ef11b136ea224fe,,,,,,,,,1179,34,32,1,0,0,response1disk,,6,2,-4,1,0,0,rectangle,2,-4,1,0,0,2,-4,1,0,0,1,2,162,44,1,,,,,,,,
,,,,,,,,,,,,,FF,,,,,,,,0.685,,,,,,,,,,,,,,,,,,,,,,610367eb9e35c754c9add89b,61036b6e550c6cd89e969d67,2021-07-29_20h01.46.995,Simcolourproject_2stim_asymm_v5,2020.2.10,Win32,60,61025ae37ef11b136ea224fe,,,,,,,,,1402,41,27,1,0,0,response1disk,,6,0,1,1,0,0,rectangle,0,1,1,0,0,0,1,1,0,0,1,3,163,26,1,,,,,,,,
,,,,,,,,,,,,,FF,,,,,,,,0.4865,,,,,,,,,,,,,,,,,,,,,,610367eb9e35c754c9add89b,61036b6e550c6cd89e969d67,2021-07-29_20h01.46.995,Simcolourproject_2stim_asymm_v5,2020.2.10,Win32,60,61025ae37ef11b136ea224fe,,,,,,,,,533,32,27,1,0,0,response1disk,,6,-4,-9,1,0,0,rectangle,-4,-9,1,0,0,-4,-9,1,0,0,1,4,164,7,1,,,,,,,,
,,,,,,,,,,,,,FF,,,,,,,,0.6622,,,,,,,,,,,,,,,,,,,,,,610367eb9e35c754c9add89b,61036b6e550c6cd89e969d67,2021-07-29_20h01.46.995,Simcolourproject_2stim_asymm_v5,2020.2.10,Win32,60,61025ae37ef11b136ea224fe,,,,,,,,,601,63,42,1,0,0,response1disk,,6,12,-2,1,0,0,rectangle,12,-2,1,0,0,12,-2,1,0,0,1,5,165,90,1,,,,,,,,
,,,,,,,,,,,,,FF,,,,,,,,0.7714,,,,,,,,,,,,,,,,,,,,,,610367eb9e35c754c9add89b,61036b6e550c6cd89e969d67,2021-07-29_20h01.46.995,Simcolourproject_2stim_asymm_v5,2020.2.10,Win32,60,61025ae37ef11b136ea224fe,,,,,,,,,4103,85,-32,1,0,0,response3disk,,5,8,5,1,0,0,rectangle,8,5,1,0,0,8,5,1,0,0,1,6,166,109,1,,,,,,,,
,,,,,,,,,,,,,FF,,,,,,,,0.6307,,,,,,,,,,,,,,,,,,,,,,610367eb9e35c754c9add89b,61036b6e550c6cd89e969d67,2021-07-29_20h01.46.995,Simcolourproject_2stim_asymm_v5,2020.2.10,Win32,60,61025ae37ef11b136ea224fe,,,,,,,,,2766,70,46,1,0,0,response1disk,,6,19,11,1,0,0,rectangle,19,11,1,0,0,19,11,1,0,0,1,7,167,126,1,,,,,,,,
,,,,,,,,,,,,,FF,,,,,,,,0.5996,,,,,,,,,,,,,,,,,,,,,,610367eb9e35c754c9add89b,61036b6e550c6cd89e969d67,2021-07-29_20h01.46.995,Simcolourproject_2stim_asymm_v5,2020.2.10,Win32,60,61025ae37ef11b136ea224fe,,,,,,,,,751,-48,-44,1,0,0,response5disk,,2,-24,8,1,0,0,rectangle,-24,8,1,0,0,-24,8,1,0,0,1,8,168,25,1,,,,,,,,
,,,,,,,,,,,,,FF,,,,,,,,1.0286,,,,,,,,,,,,,,,,,,,,,,610367eb9e35c754c9add89b,61036b6e550c6cd89e969d67,2021-07-29_20h01.46.995,Simcolourproject_2stim_asymm_v5,2020.2.10,Win32,60,61025ae37ef11b136ea224fe,,,,,,,,,1900,-81,30,1,0,0,response7disk,,1,-2,0,1,0,0,rectangle,-2,0,1,0,0,-2,0,1,0,0,1,9,169,92,1,,,,,,,,
,,,,,,,,,,,,,FF,,,,,,,,1.1152,,,,,,,,,,,,,,,,,,,,,,610367eb9e35c754c9add89b,61036b6e550c6cd89e969d67,2021-07-29_20h01.46.995,Simcolourproject_2stim_asymm_v5,2020.2.10,Win32,60,61025ae37ef11b136ea224fe,,,,,,,,,3716,39,29,1,0,0,response1disk,,6,11,-6,1,0,0,rectangle,11,-6,1,0,0,11,-6,1,0,0,1,10,170,137,1,,,,,,,,
,,,,,,,,,,,,,FF,,,,,,,,0.5485,,,,,,,,,,,,,,,,,,,,,,610367eb9e35c754c9add89b,61036b6e550c6cd89e969d67,2021-07-29_20h01.46.995,Simcolourproject_2stim_asymm_v5,2020.2.10,Win32,60,61025ae37ef11b136ea224fe,,,,,,,,,532,-28,29,1,0,0,response7disk,,0,2,6,1,0,0,rectangle,2,6,1,0,0,2,6,1,0,0,1,11,171,138,1,,,,,,,,
,,,,,,,,,,,,,FF,,,,,,,,1.4729,,,,,,,,,,,,,,,,,,,,,,610367eb9e35c754c9add89b,61036b6e550c6cd89e969d67,2021-07-29_20h01.46.995,Simcolourproject_2stim_asymm_v5,2020.2.10,Win32,60,61025ae37ef11b136ea224fe,,,,,,,,,689,-50,-52,1,0,0,response5disk,,3,12,8,1,0,0,rectangle,12,8,1,0,0,12,8,1,0,0,1,12,172,113,1,,,,,,,,
,,,,,,,,,,,,,FF,,,,,,,,0.4946,,,,,,,,,,,,,,,,,,,,,,610367eb9e35c754c9add89b,61036b6e550c6cd89e969d67,2021-07-29_20h01.46.995,Simcolourproject_2stim_asymm_v5,2020.2.10,Win32,60,61025ae37ef11b136ea224fe,,,,,,,,,971,-18,21,1,0,0,response7disk,,0,2,3,1,0,0,rectangle,2,3,1,0,0,2,3,1,0,0,1,13,173,30,1,,,,,,,,
,,,,,,,,,,,,,FF,,,,,,,,0.6097,,,,,,,,,,,,,,,,,,,,,,610367eb9e35c754c9add89b,61036b6e550c6cd89e969d67,2021-07-29_20h01.46.995,Simcolourproject_2stim_asymm_v5,2020.2.10,Win32,60,61025ae37ef11b136ea224fe,,,,,,,,,117,27,30,1,0,0,response1disk,,7,4,0,1,0,0,rectangle,4,0,1,0,0,4,0,1,0,0,1,14,174,40,1,,,,,,,,
,,,,,,,,,,,,,FF,,,,,,,,0.9821,,,,,,,,,,,,,,,,,,,,,,610367eb9e35c754c9add89b,61036b6e550c6cd89e969d67,2021-07-29_20h01.46.995,Simcolourproject_2stim_asymm_v5,2020.2.10,Win32,60,61025ae37ef11b136ea224fe,,,,,,,,,3783,-59,40,1,0,0,response7disk,,1,-18,12,1,0,0,rectangle,-18,12,1,0,0,-18,12,1,0,0,1,15,175,95,1,,,,,,,,
,,,,,,,,,,,,,FF,,,,,,,,1.2682,,,,,,,,,,,,,,,,,,,,,,610367eb9e35c754c9add89b,61036b6e550c6cd89e969d67,2021-07-29_20h01.46.995,Simcolourproject_2stim_asymm_v5,2020.2.10,Win32,60,61025ae37ef11b136ea224fe,,,,,,,,,573,40,-52,1,0,0,response3disk,,4,11,-10,1,0,0,rectangle,11,-10,1,0,0,11,-10,1,0,0,1,16,176,21,1,,,,,,,,
,,,,,,,,,,,,,FF,,,,,,,,1.1989,,,,,,,,,,,,,,,,,,,,,,610367eb9e35c754c9add89b,61036b6e550c6cd89e969d67,2021-07-29_20h01.46.995,Simcolourproject_2stim_asymm_v5,2020.2.10,Win32,60,61025ae37ef11b136ea224fe,,,,,,,,,1865,50,-37,1,0,0,response3disk,,5,4,7,1,0,0,rectangle,4,7,1,0,0,4,7,1,0,0,1,17,177,153,1,,,,,,,,
,,,,,,,,,,,,,FF,,,,,,,,0.5502,,,,,,,,,,,,,,,,,,,,,,610367eb9e35c754c9add89b,61036b6e550c6cd89e969d67,2021-07-29_20h01.46.995,Simcolourproject_2stim_asymm_v5,2020.2.10,Win32,60,61025ae37ef11b136ea224fe,,,,,,,,,3732,30,39,1,0,0,response1disk,,7,6,4,1,0,0,rectangle,6,4,1,0,0,6,4,1,0,0,1,18,178,154,1,,,,,,,,
,,,,,,,,,,,,,FF,,,,,,,,1.1989,,,,,,,,,,,,,,,,,,,,,,610367eb9e35c754c9add89b,61036b6e550c6cd89e969d67,2021-07-29_20h01.46.995,Simcolourproject_2stim_asymm_v5,2020.2.10,Win32,60,61025ae37ef11b136ea224fe,,,,,,,,,591,61,-48,1,0,0,response3disk,,5,-10,-5,1,0,0,rectangle,-10,-5,1,0,0,-10,-5,1,0,0,1,19,179,73,1,,,,,,,,
,,,,,,,,,,,,,FF,,,,,,,,1.0817,,,,,,,,,,,,,,,,,,,,,,610367eb9e35c754c9add89b,61036b6e550c6cd89e969d67,2021-07-29_20h01.46.995,Simcolourproject_2stim_asymm_v5,2020.2.10,Win32,60,61025ae37ef11b136ea224fe,,,,,,,,,561,51,60,1,0,0,response1disk,,7,14,9,1,0,0,rectangle,14,9,1,0,0,14,9,1,0,0,1,20,180,131,1,,,,,,,,
,,,,,,,,,,,,,FF,,,,,,,,0.8488,,,,,,,,,,,,,,,,,,,,,,610367eb9e35c754c9add89b,61036b6e550c6cd89e969d67,2021-07-29_20h01.46.995,Simcolourproject_2stim_asymm_v5,2020.2.10,Win32,60,61025ae37ef11b136ea224fe,,,,,,,,,1679,40,61,1,0,0,response1disk,,7,7,-2,1,0,0,rectangle,7,-2,1,0,0,7,-2,1,0,0,1,21,181,41,1,,,,,,,,
,,,,,,,,,,,,,FF,,,,,,,,0.7159,,,,,,,,,,,,,,,,,,,,,,610367eb9e35c754c9add89b,61036b6e550c6cd89e969d67,2021-07-29_20h01.46.995,Simcolourproject_2stim_asymm_v5,2020.2.10,Win32,60,61025ae37ef11b136ea224fe,,,,,,,,,3168,39,31,1,0,0,response1disk,,6,7,5,1,0,0,rectangle,7,5,1,0,0,7,5,1,0,0,1,22,182,106,1,,,,,,,,
,,,,,,,,,,,,,FF,,,,,,,,0.6195,,,,,,,,,,,,,,,,,,,,,,610367eb9e35c754c9add89b,61036b6e550c6cd89e969d67,2021-07-29_20h01.46.995,Simcolourproject_2stim_asymm_v5,2020.2.10,Win32,60,61025ae37ef11b136ea224fe,,,,,,,,,3149,-38,41,1,0,0,response7disk,,0,-3,6,1,0,0,rectangle,-3,6,1,0,0,-3,6,1,0,0,1,23,183,89,1,,,,,,,,
,,,,,,,,,,,,,FF,,,,,,,,1.8504,,,,,,,,,,,,,,,,,,,,,,610367eb9e35c754c9add89b,61036b6e550c6cd89e969d67,2021-07-29_20h01.46.995,Simcolourproject_2stim_asymm_v5,2020.2.10,Win32,60,61025ae37ef11b136ea224fe,,,,,,,,,2225,56,-70,1,0,0,response3disk,,4,-15,-5,1,0,0,rectangle,-15,-5,1,0,0,-15,-5,1,0,0,1,24,184,3,1,,,,,,,,
,,,,,,,,,,,,,FF,,,,,,,,0.4667,,,,,,,,,,,,,,,,,,,,,,610367eb9e35c754c9add89b,61036b6e550c6cd89e969d67,2021-07-29_20h01.46.995,Simcolourproject_2stim_asymm_v5,2020.2.10,Win32,60,61025ae37ef11b136ea224fe,,,,,,,,,433,35,32,1,0,0,response1disk,,6,-2,-11,1,0,0,rectangle,-2,-11,1,0,0,-2,-11,1,0,0,1,25,185,54,1,,,,,,,,
,,,,,,,,,,,,,FF,,,,,,,,0.4661,,,,,,,,,,,,,,,,,,,,,,610367eb9e35c754c9add89b,61036b6e550c6cd89e969d67,2021-07-29_20h01.46.995,Simcolourproject_2stim_asymm_v5,2020.2.10,Win32,60,61025ae37ef11b136ea224fe,,,,,,,,,2585,54,26,1,0,0,response1disk,,6,8,-4,1,0,0,rectangle,8,-4,1,0,0,8,-4,1,0,0,1,26,186,45,1,,,,,,,,
,,,,,,,,,,,,,FF,,,,,,,,0.5494,,,,,,,,,,,,,,,,,,,,,,610367eb9e35c754c9add89b,61036b6e550c6cd89e969d67,2021-07-29_20h01.46.995,Simcolourproject_2stim_asymm_v5,2020.2.10,Win32,60,61025ae37ef11b136ea224fe,,,,,,,,,803,-103,35,1,0,0,response7disk,,1,9,-6,1,0,0,rectangle,9,-6,1,0,0,9,-6,1,0,0,1,27,187,75,1,,,,,,,,
,,,,,,,,,,,,,FF,,,,,,,,1.1152,,,,,,,,,,,,,,,,,,,,,,610367eb9e35c754c9add89b,61036b6e550c6cd89e969d67,2021-07-29_20h01.46.995,Simcolourproject_2stim_asymm_v5,2020.2.10,Win32,60,61025ae37ef11b136ea224fe,,,,,,,,,585,-75,31,1,0,0,response7disk,,1,21,-6,1,0,0,rectangle,21,-6,1,0,0,21,-6,1,0,0,1,28,188,49,1,,,,,,,,
,,,,,,,,,,,,,FF,,,,,,,,0.473,,,,,,,,,,,,,,,,,,,,,,610367eb9e35c754c9add89b,61036b6e550c6cd89e969d67,2021-07-29_20h01.46.995,Simcolourproject_2stim_asymm_v5,2020.2.10,Win32,60,61025ae37ef11b136ea224fe,,,,,,,,,2142,37,56,1,0,0,response1disk,,7,1,-2,1,0,0,rectangle,1,-2,1,0,0,1,-2,1,0,0,1,29,189,81,1,,,,,,,,
,,,,,,,,,,,,,FF,,,,,,,,1.2779,,,,,,,,,,,,,,,,,,,,,,610367eb9e35c754c9add89b,61036b6e550c6cd89e969d67,2021-07-29_20h01.46.995,Simcolourproject_2stim_asymm_v5,2020.2.10,Win32,60,61025ae37ef11b136ea224fe,,,,,,,,,540,41,29,1,0,0,response1disk,,6,-1,0,1,0,0,rectangle,-1,0,1,0,0,-1,0,1,0,0,1,30,190,119,1,,,,,,,,
,,,,,,,,,,,,,FF,,,,,,,,0.9876,,,,,,,,,,,,,,,,,,,,,,610367eb9e35c754c9add89b,61036b6e550c6cd89e969d67,2021-07-29_20h01.46.995,Simcolourproject_2stim_asymm_v5,2020.2.10,Win32,60,61025ae37ef11b136ea224fe,,,,,,,,,1199,-48,-64,1,0,0,response5disk,,3,-6,-7,1,0,0,rectangle,-6,-7,1,0,0,-6,-7,1,0,0,1,31,191,15,1,,,,,,,,
,,,,,,,,,,,,,FF,,,,,,,,0.5336,,,,,,,,,,,,,,,,,,,,,,610367eb9e35c754c9add89b,61036b6e550c6cd89e969d67,2021-07-29_20h01.46.995,Simcolourproject_2stim_asymm_v5,2020.2.10,Win32,60,61025ae37ef11b136ea224fe,,,,,,,,,4075,35,24,1,0,0,response1disk,,6,7,5,1,0,0,rectangle,7,5,1,0,0,7,5,1,0,0,1,32,192,74,1,,,,,,,,
,,,,,,,,,,,,,FF,,,,,,,,1.8137,,,,,,,,,,,,,,,,,,,,,,610367eb9e35c754c9add89b,61036b6e550c6cd89e969d67,2021-07-29_20h01.46.995,Simcolourproject_2stim_asymm_v5,2020.2.10,Win32,60,61025ae37ef11b136ea224fe,,,,,,,,,682,35,38,1,0,0,response1disk,,7,0,-3,1,0,0,rectangle,0,-3,1,0,0,0,-3,1,0,0,1,33,193,141,1,,,,,,,,
,,,,,,,,,,,,,FF,,,,,,,,0.6998,,,,,,,,,,,,,,,,,,,,,,610367eb9e35c754c9add89b,61036b6e550c6cd89e969d67,2021-07-29_20h01.46.995,Simcolourproject_2stim_asymm_v5,2020.2.10,Win32,60,61025ae37ef11b136ea224fe,,,,,,,,,4353,-67,22,1,0,0,response7disk,,1,-10,3,1,0,0,rectangle,-10,3,1,0,0,-10,3,1,0,0,1,34,194,77,1,,,,,,,,
,,,,,,,,,,,,,FF,,,,,,,,1.58,,,,,,,,,,,,,,,,,,,,,,610367eb9e35c754c9add89b,61036b6e550c6cd89e969d67,2021-07-29_20h01.46.995,Simcolourproject_2stim_asymm_v5,2020.2.10,Win32,60,61025ae37ef11b136ea224fe,,,,,,,,,3744,-45,31,1,0,0,response7disk,,1,-10,9,1,0,0,rectangle,-10,9,1,0,0,-10,9,1,0,0,1,35,195,91,1,,,,,,,,
,,,,,,,,,,,,,FF,,,,,,,,0.4828,,,,,,,,,,,,,,,,,,,,,,610367eb9e35c754c9add89b,61036b6e550c6cd89e969d67,2021-07-29_20h01.46.995,Simcolourproject_2stim_asymm_v5,2020.2.10,Win32,60,61025ae37ef11b136ea224fe,,,,,,,,,969,-36,21,1,0,0,response7disk,,1,-13,8,1,0,0,rectangle,-13,8,1,0,0,-13,8,1,0,0,1,36,196,98,1,,,,,,,,
,,,,,,,,,,,,,FF,,,,,,,,0.5191,,,,,,,,,,,,,,,,,,,,,,610367eb9e35c754c9add89b,61036b6e550c6cd89e969d67,2021-07-29_20h01.46.995,Simcolourproject_2stim_asymm_v5,2020.2.10,Win32,60,61025ae37ef11b136ea224fe,,,,,,,,,2892,-42,28,1,0,0,response7disk,,1,-12,9,1,0,0,rectangle,-12,9,1,0,0,-12,9,1,0,0,1,37,197,96,1,,,,,,,,
,,,,,,,,,,,,,FF,,,,,,,,0.6328,,,,,,,,,,,,,,,,,,,,,,610367eb9e35c754c9add89b,61036b6e550c6cd89e969d67,2021-07-29_20h01.46.995,Simcolourproject_2stim_asymm_v5,2020.2.10,Win32,60,61025ae37ef11b136ea224fe,,,,,,,,,1668,47,41,1,0,0,response1disk,,6,-16,-1,1,0,0,rectangle,-16,-1,1,0,0,-16,-1,1,0,0,1,38,198,80,1,,,,,,,,
,,,,,,,,,,,,,FF,,,,,,,,1.381,,,,,,,,,,,,,,,,,,,,,,610367eb9e35c754c9add89b,61036b6e550c6cd89e969d67,2021-07-29_20h01.46.995,Simcolourproject_2stim_asymm_v5,2020.2.10,Win32,60,61025ae37ef11b136ea224fe,,,,,,,,,2975,36,43,1,0,0,response1disk,,7,-4,1,1,0,0,rectangle,-88,-27,1,0,0,-20,6,1,0,0,1,39,199,47,1,,response5disk_3,TRUE,2,2,"[99,306,261,303,200,28,10,146,78,41,276,216,72,272,152,105,17,84,268,46]",3.6033,rectangle
,,,,,,,,,,,,,FF,,,,,,,,1.6151,,,,,,,,,,,,,,,,,,,,,,610367eb9e35c754c9add89b,61036b6e550c6cd89e969d67,2021-07-29_20h01.46.995,Simcolourproject_2stim_asymm_v5,2020.2.10,Win32,60,61025ae37ef11b136ea224fe,,,,,,,,,3893,-36,-35,1,0,0,response5disk,,2,-1,4,1,0,0,rectangle,-1,4,1,0,0,-1,4,1,0,0,1,40,200,23,1,,,,,,,,
,,,,,,,,,,,,,FF,,,,,,,,0.6327,,,,,,,,,,,,,,,,,,,,,,610367eb9e35c754c9add89b,61036b6e550c6cd89e969d67,2021-07-29_20h01.46.995,Simcolourproject_2stim_asymm_v5,2020.2.10,Win32,60,61025ae37ef11b136ea224fe,,,,,,,,,1829,-94,41,1,0,0,response7disk,,1,21,3,1,0,0,rectangle,21,3,1,0,0,21,3,1,0,0,1,41,201,2,1,,,,,,,,
,,,,,,,,,,,,,FF,,,,,,,,2.7625,,,,,,,,,,,,,,,,,,,,,,610367eb9e35c754c9add89b,61036b6e550c6cd89e969d67,2021-07-29_20h01.46.995,Simcolourproject_2stim_asymm_v5,2020.2.10,Win32,60,61025ae37ef11b136ea224fe,,,,,,,,,1280,-69,36,1,0,0,response7disk,,1,2,-8,1,0,0,rectangle,2,-8,1,0,0,2,-8,1,0,0,1,42,202,1,1,,,,,,,,
,,,,,,,,,,,,,FF,,,,,,,,0.5873,,,,,,,,,,,,,,,,,,,,,,610367eb9e35c754c9add89b,61036b6e550c6cd89e969d67,2021-07-29_20h01.46.995,Simcolourproject_2stim_asymm_v5,2020.2.10,Win32,60,61025ae37ef11b136ea224fe,,,,,,,,,2299,-44,97,1,0,0,response7disk,,0,-12,10,1,0,0,rectangle,-12,10,1,0,0,-12,10,1,0,0,1,43,203,105,1,,,,,,,,
,,,,,,,,,,,,,FF,,,,,,,,0.7675,,,,,,,,,,,,,,,,,,,,,,610367eb9e35c754c9add89b,61036b6e550c6cd89e969d67,2021-07-29_20h01.46.995,Simcolourproject_2stim_asymm_v5,2020.2.10,Win32,60,61025ae37ef11b136ea224fe,,,,,,,,,2657,26,61,1,0,0,response1disk,,7,-5,0,1,0,0,rectangle,-5,0,1,0,0,-5,0,1,0,0,1,44,204,53,1,,,,,,,,
,,,,,,,,,,,,,FF,,,,,,,,0.8481,,,,,,,,,,,,,,,,,,,,,,610367eb9e35c754c9add89b,61036b6e550c6cd89e969d67,2021-07-29_20h01.46.995,Simcolourproject_2stim_asymm_v5,2020.2.10,Win32,60,61025ae37ef11b136ea224fe,,,,,,,,,1344,21,68,1,0,0,response1disk,,7,0,5,1,0,0,rectangle,0,5,1,0,0,0,5,1,0,0,1,45,205,112,1,,,,,,,,
,,,,,,,,,,,,,FF,,,,,,,,1.6375,,,,,,,,,,,,,,,,,,,,,,610367eb9e35c754c9add89b,61036b6e550c6cd89e969d67,2021-07-29_20h01.46.995,Simcolourproject_2stim_asymm_v5,2020.2.10,Win32,60,61025ae37ef11b136ea224fe,,,,,,,,,1646,23,56,1,0,0,response1disk,,7,2,-9,1,0,0,rectangle,2,-9,1,0,0,2,-9,1,0,0,1,46,206,140,1,,,,,,,,
,,,,,,,,,,,,,FF,,,,,,,,0.8485,,,,,,,,,,,,,,,,,,,,,,610367eb9e35c754c9add89b,61036b6e550c6cd89e969d67,2021-07-29_20h01.46.995,Simcolourproject_2stim_asymm_v5,2020.2.10,Win32,60,61025ae37ef11b136ea224fe,,,,,,,,,3997,41,-30,1,0,0,response3disk,,5,-22,2,1,0,0,rectangle,-22,2,1,0,0,-22,2,1,0,0,1,47,207,42,1,,,,,,,,
,,,,,,,,,,,,,FF,,,,,,,,0.7125,,,,,,,,,,,,,,,,,,,,,,610367eb9e35c754c9add89b,61036b6e550c6cd89e969d67,2021-07-29_20h01.46.995,Simcolourproject_2stim_asymm_v5,2020.2.10,Win32,60,61025ae37ef11b136ea224fe,,,,,,,,,459,-48,-58,1,0,0,response5disk,,3,-18,5,1,0,0,rectangle,-18,5,1,0,0,-18,5,1,0,0,1,48,208,31,1,,,,,,,,
,,,,,,,,,,,,,FF,,,,,,,,0.7816,,,,,,,,,,,,,,,,,,,,,,610367eb9e35c754c9add89b,61036b6e550c6cd89e969d67,2021-07-29_20h01.46.995,Simcolourproject_2stim_asymm_v5,2020.2.10,Win32,60,61025ae37ef11b136ea224fe,,,,,,,,,4309,41,51,1,0,0,response1disk,,7,-9,12,1,0,0,rectangle,-9,12,1,0,0,-9,12,1,0,0,1,49,209,122,1,,,,,,,,
,,,,,,,,,,,,,FF,,,,,,,,0.5644,,,,,,,,,,,,,,,,,,,,,,610367eb9e35c754c9add89b,61036b6e550c6cd89e969d67,2021-07-29_20h01.46.995,Simcolourproject_2stim_asymm_v5,2020.2.10,Win32,60,61025ae37ef11b136ea224fe,,,,,,,,,78,-56,41,1,0,0,response7disk,,1,1,10,1,0,0,rectangle,1,10,1,0,0,1,10,1,0,0,1,50,210,62,1,,,,,,,,
,,,,,,,,,,,,,FF,,,,,,,,0.5832,,,,,,,,,,,,,,,,,,,,,,610367eb9e35c754c9add89b,61036b6e550c6cd89e969d67,2021-07-29_20h01.46.995,Simcolourproject_2stim_asymm_v5,2020.2.10,Win32,60,61025ae37ef11b136ea224fe,,,,,,,,,1902,-58,80,1,0,0,response7disk,,0,12,10,1,0,0,rectangle,12,10,1,0,0,12,10,1,0,0,1,51,211,128,1,,,,,,,,
,,,,,,,,,,,,,FF,,,,,,,,1.2335,,,,,,,,,,,,,,,,,,,,,,610367eb9e35c754c9add89b,61036b6e550c6cd89e969d67,2021-07-29_20h01.46.995,Simcolourproject_2stim_asymm_v5,2020.2.10,Win32,60,61025ae37ef11b136ea224fe,,,,,,,,,3999,26,51,1,0,0,response1disk,,7,3,-1,1,0,0,rectangle,3,-1,1,0,0,3,-1,1,0,0,1,52,212,135,1,,,,,,,,
,,,,,,,,,,,,,FF,,,,,,,,0.7007,,,,,,,,,,,,,,,,,,,,,,610367eb9e35c754c9add89b,61036b6e550c6cd89e969d67,2021-07-29_20h01.46.995,Simcolourproject_2stim_asymm_v5,2020.2.10,Win32,60,61025ae37ef11b136ea224fe,,,,,,,,,555,-75,23,1,0,0,response7disk,,1,-25,4,1,0,0,rectangle,-25,4,1,0,0,-25,4,1,0,0,1,53,213,144,1,,,,,,,,
,,,,,,,,,,,,,FF,,,,,,,,0.6837,,,,,,,,,,,,,,,,,,,,,,610367eb9e35c754c9add89b,61036b6e550c6cd89e969d67,2021-07-29_20h01.46.995,Simcolourproject_2stim_asymm_v5,2020.2.10,Win32,60,61025ae37ef11b136ea224fe,,,,,,,,,1701,27,60,1,0,0,response1disk,,7,-9,0,1,0,0,rectangle,-9,0,1,0,0,-9,0,1,0,0,1,54,214,151,1,,,,,,,,
,,,,,,,,,,,,,FF,,,,,,,,0.931,,,,,,,,,,,,,,,,,,,,,,610367eb9e35c754c9add89b,61036b6e550c6cd89e969d67,2021-07-29_20h01.46.995,Simcolourproject_2stim_asymm_v5,2020.2.10,Win32,60,61025ae37ef11b136ea224fe,,,,,,,,,3212,-79,-33,1,0,0,response5disk,,2,-9,-3,1,0,0,rectangle,-37,101,1,0,0,-1,2,1,0,0,1,55,215,117,1,,response7disk_3,TRUE,0,0,"[99,306,261,303,200,28,10,146,78,41,276,216,72,272,152,105,17,84,268,46]",1.6643,rectangle
,,,,,,,,,,,,,FF,,,,,,,,1.4141,,,,,,,,,,,,,,,,,,,,,,610367eb9e35c754c9add89b,61036b6e550c6cd89e969d67,2021-07-29_20h01.46.995,Simcolourproject_2stim_asymm_v5,2020.2.10,Win32,60,61025ae37ef11b136ea224fe,,,,,,,,,2849,-19,-41,1,0,0,response5disk,,3,-7,-9,1,0,0,rectangle,-7,-9,1,0,0,-7,-9,1,0,0,1,56,216,8,1,,,,,,,,
,,,,,,,,,,,,,FF,,,,,,,,1.0872,,,,,,,,,,,,,,,,,,,,,,610367eb9e35c754c9add89b,61036b6e550c6cd89e969d67,2021-07-29_20h01.46.995,Simcolourproject_2stim_asymm_v5,2020.2.10,Win32,60,61025ae37ef11b136ea224fe,,,,,,,,,1202,61,26,1,0,0,response1disk,,6,-3,-2,1,0,0,rectangle,-3,-2,1,0,0,-3,-2,1,0,0,1,57,217,39,1,,,,,,,,
,,,,,,,,,,,,,FF,,,,,,,,0.7836,,,,,,,,,,,,,,,,,,,,,,610367eb9e35c754c9add89b,61036b6e550c6cd89e969d67,2021-07-29_20h01.46.995,Simcolourproject_2stim_asymm_v5,2020.2.10,Win32,60,61025ae37ef11b136ea224fe,,,,,,,,,3316,31,59,1,0,0,response1disk,,7,9,-6,1,0,0,rectangle,9,-6,1,0,0,9,-6,1,0,0,1,58,218,88,1,,,,,,,,
,,,,,,,,,,,,,FF,,,,,,,,1.5877,,,,,,,,,,,,,,,,,,,,,,610367eb9e35c754c9add89b,61036b6e550c6cd89e969d67,2021-07-29_20h01.46.995,Simcolourproject_2stim_asymm_v5,2020.2.10,Win32,60,61025ae37ef11b136ea224fe,,,,,,,,,3670,-54,32,1,0,0,response7disk,,1,-32,7,1,0,0,rectangle,-32,7,1,0,0,-32,7,1,0,0,1,59,219,63,1,,,,,,,,
,,,,,,,,,,,,,FF,,,,,,,,1.2484,,,,,,,,,,,,,,,,,,,,,,610367eb9e35c754c9add89b,61036b6e550c6cd89e969d67,2021-07-29_20h01.46.995,Simcolourproject_2stim_asymm_v5,2020.2.10,Win32,60,61025ae37ef11b136ea224fe,,,,,,,,,2751,43,67,1,0,0,response1disk,,7,-11,9,1,0,0,rectangle,-11,9,1,0,0,-11,9,1,0,0,1,60,220,57,1,,,,,,,,
,,,,,,,,,,,,,FF,,,,,,,,1.3474,,,,,,,,,,,,,,,,,,,,,,610367eb9e35c754c9add89b,61036b6e550c6cd89e969d67,2021-07-29_20h01.46.995,Simcolourproject_2stim_asymm_v5,2020.2.10,Win32,60,61025ae37ef11b136ea224fe,,,,,,,,,475,58,38,1,0,0,response1disk,,6,1,2,1,0,0,rectangle,1,2,1,0,0,1,2,1,0,0,1,61,221,107,1,,,,,,,,
,,,,,,,,,,,,,FF,,,,,,,,1.0642,,,,,,,,,,,,,,,,,,,,,,610367eb9e35c754c9add89b,61036b6e550c6cd89e969d67,2021-07-29_20h01.46.995,Simcolourproject_2stim_asymm_v5,2020.2.10,Win32,60,61025ae37ef11b136ea224fe,,,,,,,,,2155,25,58,1,0,0,response1disk,,7,-1,5,1,0,0,rectangle,-1,5,1,0,0,-1,5,1,0,0,1,62,222,146,1,,,,,,,,
,,,,,,,,,,,,,FF,,,,,,,,1.1619,,,,,,,,,,,,,,,,,,,,,,610367eb9e35c754c9add89b,61036b6e550c6cd89e969d67,2021-07-29_20h01.46.995,Simcolourproject_2stim_asymm_v5,2020.2.10,Win32,60,61025ae37ef11b136ea224fe,,,,,,,,,2012,20,52,1,0,0,response1disk,,7,-1,1,1,0,0,rectangle,-1,1,1,0,0,-1,1,1,0,0,1,63,223,66,1,,,,,,,,
,,,,,,,,,,,,,FF,,,,,,,,0.8839,,,,,,,,,,,,,,,,,,,,,,610367eb9e35c754c9add89b,61036b6e550c6cd89e969d67,2021-07-29_20h01.46.995,Simcolourproject_2stim_asymm_v5,2020.2.10,Win32,60,61025ae37ef11b136ea224fe,,,,,,,,,138,51,-30,1,0,0,response3disk,,5,-13,7,1,0,0,rectangle,-13,7,1,0,0,-13,7,1,0,0,1,64,224,127,1,,,,,,,,
,,,,,,,,,,,,,FF,,,,,,,,0.8313,,,,,,,,,,,,,,,,,,,,,,610367eb9e35c754c9add89b,61036b6e550c6cd89e969d67,2021-07-29_20h01.46.995,Simcolourproject_2stim_asymm_v5,2020.2.10,Win32,60,61025ae37ef11b136ea224fe,,,,,,,,,2968,54,93,1,0,0,response1disk,,7,14,-7,1,0,0,rectangle,14,-7,1,0,0,14,-7,1,0,0,1,65,225,59,1,,,,,,,,
,,,,,,,,,,,,,FF,,,,,,,,0.8477,,,,,,,,,,,,,,,,,,,,,,610367eb9e35c754c9add89b,61036b6e550c6cd89e969d67,2021-07-29_20h01.46.995,Simcolourproject_2stim_asymm_v5,2020.2.10,Win32,60,61025ae37ef11b136ea224fe,,,,,,,,,1504,26,86,1,0,0,response1disk,,7,5,5,1,0,0,rectangle,5,5,1,0,0,5,5,1,0,0,1,66,226,64,1,,,,,,,,
,,,,,,,,,,,,,FF,,,,,,,,0.5679,,,,,,,,,,,,,,,,,,,,,,610367eb9e35c754c9add89b,61036b6e550c6cd89e969d67,2021-07-29_20h01.46.995,Simcolourproject_2stim_asymm_v5,2020.2.10,Win32,60,61025ae37ef11b136ea224fe,,,,,,,,,2380,29,62,1,0,0,response1disk,,7,2,7,1,0,0,rectangle,2,7,1,0,0,2,7,1,0,0,1,67,227,121,1,,,,,,,,
,,,,,,,,,,,,,FF,,,,,,,,0.7493,,,,,,,,,,,,,,,,,,,,,,610367eb9e35c754c9add89b,61036b6e550c6cd89e969d67,2021-07-29_20h01.46.995,Simcolourproject_2stim_asymm_v5,2020.2.10,Win32,60,61025ae37ef11b136ea224fe,,,,,,,,,515,19,51,1,0,0,response1disk,,7,-8,-11,1,0,0,rectangle,-8,-11,1,0,0,-8,-11,1,0,0,1,68,228,110,1,,,,,,,,
,,,,,,,,,,,,,FF,,,,,,,,1.3163,,,,,,,,,,,,,,,,,,,,,,610367eb9e35c754c9add89b,61036b6e550c6cd89e969d67,2021-07-29_20h01.46.995,Simcolourproject_2stim_asymm_v5,2020.2.10,Win32,60,61025ae37ef11b136ea224fe,,,,,,,,,3704,-81,-40,1,0,0,response5disk,,2,-22,-8,1,0,0,rectangle,-22,-8,1,0,0,-22,-8,1,0,0,1,69,229,33,1,,,,,,,,
,,,,,,,,,,,,,FF,,,,,,,,1.5478,,,,,,,,,,,,,,,,,,,,,,610367eb9e35c754c9add89b,61036b6e550c6cd89e969d67,2021-07-29_20h01.46.995,Simcolourproject_2stim_asymm_v5,2020.2.10,Win32,60,61025ae37ef11b136ea224fe,,,,,,,,,2909,72,-33,1,0,0,response3disk,,5,-5,-10,1,0,0,rectangle,-5,-10,1,0,0,-5,-10,1,0,0,1,70,230,0,1,,,,,,,,
,,,,,,,,,,,,,FF,,,,,,,,1.7712,,,,,,,,,,,,,,,,,,,,,,610367eb9e35c754c9add89b,61036b6e550c6cd89e969d67,2021-07-29_20h01.46.995,Simcolourproject_2stim_asymm_v5,2020.2.10,Win32,60,61025ae37ef11b136ea224fe,,,,,,,,,788,40,78,1,0,0,response1disk,,7,5,3,1,0,0,rectangle,5,3,1,0,0,5,3,1,0,0,1,71,231,9,1,,,,,,,,
,,,,,,,,,,,,,FF,,,,,,,,3.4001,,,,,,,,,,,,,,,,,,,,,,610367eb9e35c754c9add89b,61036b6e550c6cd89e969d67,2021-07-29_20h01.46.995,Simcolourproject_2stim_asymm_v5,2020.2.10,Win32,60,61025ae37ef11b136ea224fe,,,,,,,,,2129,69,80,1,0,0,response1disk,,7,6,-3,1,0,0,rectangle,6,-3,1,0,0,6,-3,1,0,0,1,72,232,35,1,,,,,,,,
,,,,,,,,,,,,,FF,,,,,,,,0.6828,,,,,,,,,,,,,,,,,,,,,,610367eb9e35c754c9add89b,61036b6e550c6cd89e969d67,2021-07-29_20h01.46.995,Simcolourproject_2stim_asymm_v5,2020.2.10,Win32,60,61025ae37ef11b136ea224fe,,,,,,,,,3309,23,65,1,0,0,response1disk,,7,-3,7,1,0,0,rectangle,-3,7,1,0,0,-3,7,1,0,0,1,73,233,48,1,,,,,,,,
,,,,,,,,,,,,,FF,,,,,,,,0.6883,,,,,,,,,,,,,,,,,,,,,,610367eb9e35c754c9add89b,61036b6e550c6cd89e969d67,2021-07-29_20h01.46.995,Simcolourproject_2stim_asymm_v5,2020.2.10,Win32,60,61025ae37ef11b136ea224fe,,,,,,,,,319,49,31,1,0,0,response1disk,,6,1,1,1,0,0,rectangle,1,1,1,0,0,1,1,1,0,0,1,74,234,27,1,,,,,,,,
,,,,,,,,,,,,,FF,,,,,,,,0.9342,,,,,,,,,,,,,,,,,,,,,,610367eb9e35c754c9add89b,61036b6e550c6cd89e969d67,2021-07-29_20h01.46.995,Simcolourproject_2stim_asymm_v5,2020.2.10,Win32,60,61025ae37ef11b136ea224fe,,,,,,,,,1859,20,67,1,0,0,response1disk,,7,1,-9,1,0,0,rectangle,1,-9,1,0,0,1,-9,1,0,0,1,75,235,102,1,,,,,,,,
,,,,,,,,,,,,,FF,,,,,,,,0.5691,,,,,,,,,,,,,,,,,,,,,,610367eb9e35c754c9add89b,61036b6e550c6cd89e969d67,2021-07-29_20h01.46.995,Simcolourproject_2stim_asymm_v5,2020.2.10,Win32,60,61025ae37ef11b136ea224fe,,,,,,,,,4127,22,61,1,0,0,response1disk,,7,-1,-9,1,0,0,rectangle,-1,-9,1,0,0,-1,-9,1,0,0,1,76,236,99,1,,,,,,,,
,,,,,,,,,,,,,FF,,,,,,,,0.7784,,,,,,,,,,,,,,,,,,,,,,610367eb9e35c754c9add89b,61036b6e550c6cd89e969d67,2021-07-29_20h01.46.995,Simcolourproject_2stim_asymm_v5,2020.2.10,Win32,60,61025ae37ef11b136ea224fe,,,,,,,,,1765,56,-40,1,0,0,response3disk,,5,17,-8,1,0,0,rectangle,17,-8,1,0,0,17,-8,1,0,0,1,77,237,72,1,,,,,,,,
,,,,,,,,,,,,,FF,,,,,,,,0.5158,,,,,,,,,,,,,,,,,,,,,,610367eb9e35c754c9add89b,61036b6e550c6cd89e969d67,2021-07-29_20h01.46.995,Simcolourproject_2stim_asymm_v5,2020.2.10,Win32,60,61025ae37ef11b136ea224fe,,,,,,,,,1107,33,84,1,0,0,response1disk,,7,8,2,1,0,0,rectangle,8,2,1,0,0,8,2,1,0,0,1,78,238,108,1,,,,,,,,
,,,,,,,,,,,,,FF,,,,,,,,0.6159,,,,,,,,,,,,,,,,,,,,,,610367eb9e35c754c9add89b,61036b6e550c6cd89e969d67,2021-07-29_20h01.46.995,Simcolourproject_2stim_asymm_v5,2020.2.10,Win32,60,61025ae37ef11b136ea224fe,,,,,,,,,3614,27,57,1,0,0,response1disk,,7,8,14,1,0,0,rectangle,8,14,1,0,0,8,14,1,0,0,1,79,239,132,1,,,,,,,,
,,,,,,,,,,,,,FF,,,,,,,,1.1703,,,,,,,,,,,,,,,,,,,,,,610367eb9e35c754c9add89b,61036b6e550c6cd89e969d67,2021-07-29_20h01.46.995,Simcolourproject_2stim_asymm_v5,2020.2.10,Win32,60,61025ae37ef11b136ea224fe,,,,,,,,,4145,-75,-38,1,0,0,response5disk,,2,-20,5,1,0,0,rectangle,-20,5,1,0,0,-20,5,1,0,0,1,80,240,37,1,,,,,,,,
,,,,,,,,,,,,,FF,,,,,,,,0.9152,,,,,,,,,,,,,,,,,,,,,,610367eb9e35c754c9add89b,61036b6e550c6cd89e969d67,2021-07-29_20h01.46.995,Simcolourproject_2stim_asymm_v5,2020.2.10,Win32,60,61025ae37ef11b136ea224fe,,,,,,,,,1448,-82,43,1,0,0,response7disk,,1,-16,-3,1,0,0,rectangle,-16,-3,1,0,0,-16,-3,1,0,0,1,81,241,86,1,,,,,,,,
,,,,,,,,,,,,,FF,,,,,,,,1.0945,,,,,,,,,,,,,,,,,,,,,,610367eb9e35c754c9add89b,61036b6e550c6cd89e969d67,2021-07-29_20h01.46.995,Simcolourproject_2stim_asymm_v5,2020.2.10,Win32,60,61025ae37ef11b136ea224fe,,,,,,,,,131,-68,-82,1,0,0,response5disk,,3,15,14,1,0,0,rectangle,15,14,1,0,0,15,14,1,0,0,1,82,242,104,1,,,,,,,,
,,,,,,,,,,,,,FF,,,,,,,,1.1477,,,,,,,,,,,,,,,,,,,,,,610367eb9e35c754c9add89b,61036b6e550c6cd89e969d67,2021-07-29_20h01.46.995,Simcolourproject_2stim_asymm_v5,2020.2.10,Win32,60,61025ae37ef11b136ea224fe,,,,,,,,,2116,78,-29,1,0,0,response3disk,,5,19,7,1,0,0,rectangle,19,7,1,0,0,19,7,1,0,0,1,83,243,145,1,,,,,,,,
,,,,,,,,,,,,,FF,,,,,,,,1.2326,,,,,,,,,,,,,,,,,,,,,,610367eb9e35c754c9add89b,61036b6e550c6cd89e969d67,2021-07-29_20h01.46.995,Simcolourproject_2stim_asymm_v5,2020.2.10,Win32,60,61025ae37ef11b136ea224fe,,,,,,,,,890,-87,-31,1,0,0,response5disk,,2,-4,2,1,0,0,rectangle,-4,2,1,0,0,-4,2,1,0,0,1,84,244,24,1,,,,,,,,
,,,,,,,,,,,,,FF,,,,,,,,0.7708,,,,,,,,,,,,,,,,,,,,,,610367eb9e35c754c9add89b,61036b6e550c6cd89e969d67,2021-07-29_20h01.46.995,Simcolourproject_2stim_asymm_v5,2020.2.10,Win32,60,61025ae37ef11b136ea224fe,,,,,,,,,2382,15,79,1,0,0,response1disk,,7,-9,6,1,0,0,rectangle,-9,6,1,0,0,-9,6,1,0,0,1,85,245,18,1,,,,,,,,
,,,,,,,,,,,,,FF,,,,,,,,46.1781,,,,,,,,,,,,,,,,,,,,,,610367eb9e35c754c9add89b,61036b6e550c6cd89e969d67,2021-07-29_20h01.46.995,Simcolourproject_2stim_asymm_v5,2020.2.10,Win32,60,61025ae37ef11b136ea224fe,,,,,,,,,3041,35,-55,1,0,0,response3disk,,4,14,-6,1,0,0,rectangle,14,-6,1,0,0,14,-6,1,0,0,1,86,246,12,1,,,,,,,,
,,,,,,,,,,,,,FF,,,,,,,,0.7494,,,,,,,,,,,,,,,,,,,,,,610367eb9e35c754c9add89b,61036b6e550c6cd89e969d67,2021-07-29_20h01.46.995,Simcolourproject_2stim_asymm_v5,2020.2.10,Win32,60,61025ae37ef11b136ea224fe,,,,,,,,,3136,41,20,1,0,0,response1disk,,6,3,2,1,0,0,rectangle,3,2,1,0,0,3,2,1,0,0,1,87,247,16,1,,,,,,,,
,,,,,,,,,,,,,FF,,,,,,,,0.8957,,,,,,,,,,,,,,,,,,,,,,610367eb9e35c754c9add89b,61036b6e550c6cd89e969d67,2021-07-29_20h01.46.995,Simcolourproject_2stim_asymm_v5,2020.2.10,Win32,60,61025ae37ef11b136ea224fe,,,,,,,,,2159,17,42,1,0,0,response1disk,,7,-3,-3,1,0,0,rectangle,-3,-3,1,0,0,-3,-3,1,0,0,1,88,248,83,1,,,,,,,,
,,,,,,,,,,,,,FF,,,,,,,,1.0311,,,,,,,,,,,,,,,,,,,,,,610367eb9e35c754c9add89b,61036b6e550c6cd89e969d67,2021-07-29_20h01.46.995,Simcolourproject_2stim_asymm_v5,2020.2.10,Win32,60,61025ae37ef11b136ea224fe,,,,,,,,,3341,-69,23,1,0,0,response7disk,,1,-13,-2,1,0,0,rectangle,-13,-2,1,0,0,-13,-2,1,0,0,1,89,249,134,1,,,,,,,,
,,,,,,,,,,,,,FF,,,,,,,,0.8171,,,,,,,,,,,,,,,,,,,,,,610367eb9e35c754c9add89b,61036b6e550c6cd89e969d67,2021-07-29_20h01.46.995,Simcolourproject_2stim_asymm_v5,2020.2.10,Win32,60,61025ae37ef11b136ea224fe,,,,,,,,,133,-36,-83,1,0,0,response5disk,,3,-1,0,1,0,0,rectangle,-1,0,1,0,0,-1,0,1,0,0,1,90,250,28,1,,,,,,,,
,,,,,,,,,,,,,FF,,,,,,,,0.7821,,,,,,,,,,,,,,,,,,,,,,610367eb9e35c754c9add89b,61036b6e550c6cd89e969d67,2021-07-29_20h01.46.995,Simcolourproject_2stim_asymm_v5,2020.2.10,Win32,60,61025ae37ef11b136ea224fe,,,,,,,,,1243,-67,25,1,0,0,response7disk,,1,-25,-4,1,0,0,rectangle,-25,-4,1,0,0,-25,-4,1,0,0,1,91,251,150,1,,,,,,,,
,,,,,,,,,,,,,FF,,,,,,,,0.726,,,,,,,,,,,,,,,,,,,,,,610367eb9e35c754c9add89b,61036b6e550c6cd89e969d67,2021-07-29_20h01.46.995,Simcolourproject_2stim_asymm_v5,2020.2.10,Win32,60,61025ae37ef11b136ea224fe,,,,,,,,,3089,-71,32,1,0,0,response7disk,,1,-24,6,1,0,0,rectangle,-24,6,1,0,0,-24,6,1,0,0,1,92,252,149,1,,,,,,,,
,,,,,,,,,,,,,FF,,,,,,,,1.9138,,,,,,,,,,,,,,,,,,,,,,610367eb9e35c754c9add89b,61036b6e550c6cd89e969d67,2021-07-29_20h01.46.995,Simcolourproject_2stim_asymm_v5,2020.2.10,Win32,60,61025ae37ef11b136ea224fe,,,,,,,,,116,-29,-84,1,0,0,response5disk,,3,-17,4,1,0,0,rectangle,-17,4,1,0,0,-17,4,1,0,0,1,93,253,136,1,,,,,,,,
,,,,,,,,,,,,,FF,,,,,,,,0.749,,,,,,,,,,,,,,,,,,,,,,610367eb9e35c754c9add89b,61036b6e550c6cd89e969d67,2021-07-29_20h01.46.995,Simcolourproject_2stim_asymm_v5,2020.2.10,Win32,60,61025ae37ef11b136ea224fe,,,,,,,,,1633,49,53,1,0,0,response1disk,,7,12,4,1,0,0,rectangle,12,4,1,0,0,12,4,1,0,0,1,94,254,4,1,,,,,,,,
,,,,,,,,,,,,,FF,,,,,,,,0.5454,,,,,,,,,,,,,,,,,,,,,,610367eb9e35c754c9add89b,61036b6e550c6cd89e969d67,2021-07-29_20h01.46.995,Simcolourproject_2stim_asymm_v5,2020.2.10,Win32,60,61025ae37ef11b136ea224fe,,,,,,,,,2948,-59,39,1,0,0,response7disk,,1,-9,3,1,0,0,rectangle,-9,3,1,0,0,-9,3,1,0,0,1,95,255,68,1,,,,,,,,
,,,,,,,,,,,,,FF,,,,,,,,0.8152,,,,,,,,,,,,,,,,,,,,,,610367eb9e35c754c9add89b,61036b6e550c6cd89e969d67,2021-07-29_20h01.46.995,Simcolourproject_2stim_asymm_v5,2020.2.10,Win32,60,61025ae37ef11b136ea224fe,,,,,,,,,2354,-60,-70,1,0,0,response5disk,,3,-19,1,1,0,0,rectangle,-19,1,1,0,0,-19,1,1,0,0,1,96,256,76,1,,,,,,,,
,,,,,,,,,,,,,FF,,,,,,,,0.768,,,,,,,,,,,,,,,,,,,,,,610367eb9e35c754c9add89b,61036b6e550c6cd89e969d67,2021-07-29_20h01.46.995,Simcolourproject_2stim_asymm_v5,2020.2.10,Win32,60,61025ae37ef11b136ea224fe,,,,,,,,,1309,-88,34,1,0,0,response7disk,,1,-19,-5,1,0,0,rectangle,-19,-5,1,0,0,-19,-5,1,0,0,1,97,257,61,1,,,,,,,,
,,,,,,,,,,,,,FF,,,,,,,,0.8326,,,,,,,,,,,,,,,,,,,,,,610367eb9e35c754c9add89b,61036b6e550c6cd89e969d67,2021-07-29_20h01.46.995,Simcolourproject_2stim_asymm_v5,2020.2.10,Win32,60,61025ae37ef11b136ea224fe,,,,,,,,,386,59,42,1,0,0,response1disk,,6,16,3,1,0,0,rectangle,16,3,1,0,0,16,3,1,0,0,1,98,258,124,1,,,,,,,,
,,,,,,,,,,,,,FF,,,,,,,,0.8497,,,,,,,,,,,,,,,,,,,,,,610367eb9e35c754c9add89b,61036b6e550c6cd89e969d67,2021-07-29_20h01.46.995,Simcolourproject_2stim_asymm_v5,2020.2.10,Win32,60,61025ae37ef11b136ea224fe,,,,,,,,,2618,25,70,1,0,0,response1disk,,7,-7,15,1,0,0,rectangle,-7,15,1,0,0,-7,15,1,0,0,1,99,259,52,1,,,,,,,,
,,,,,,,,,,,,,FF,,,,,,,,2.7284,,,,,,,,,,,,,,,,,,,,,,610367eb9e35c754c9add89b,61036b6e550c6cd89e969d67,2021-07-29_20h01.46.995,Simcolourproject_2stim_asymm_v5,2020.2.10,Win32,60,61025ae37ef11b136ea224fe,,,,,,,,,999,45,-20,1,0,0,response3disk,,5,-3,-7,1,0,0,rectangle,103,-34,1,0,0,0,3,1,0,0,1,100,260,103,1,,response3disk_3,TRUE,5,5,"[99,306,261,303,200,28,10,146,78,41,276,216,72,272,152,105,17,84,268,46]",2.2113,rectangle
,,,,,,,,,,,,,FF,,,,,,,,1.4331,,,,,,,,,,,,,,,,,,,,,,610367eb9e35c754c9add89b,61036b6e550c6cd89e969d67,2021-07-29_20h01.46.995,Simcolourproject_2stim_asymm_v5,2020.2.10,Win32,60,61025ae37ef11b136ea224fe,,,,,,,,,4041,-107,39,1,0,0,response7disk,,1,-22,-4,1,0,0,rectangle,-22,-4,1,0,0,-22,-4,1,0,0,1,101,261,50,1,,,,,,,,
,,,,,,,,,,,,,FF,,,,,,,,1.116,,,,,,,,,,,,,,,,,,,,,,610367eb9e35c754c9add89b,61036b6e550c6cd89e969d67,2021-07-29_20h01.46.995,Simcolourproject_2stim_asymm_v5,2020.2.10,Win32,60,61025ae37ef11b136ea224fe,,,,,,,,,1239,17,-83,1,0,0,response3disk,,4,-18,0,1,0,0,rectangle,-18,0,1,0,0,-18,0,1,0,0,1,102,262,147,1,,,,,,,,
,,,,,,,,,,,,,FF,,,,,,,,0.7484,,,,,,,,,,,,,,,,,,,,,,610367eb9e35c754c9add89b,61036b6e550c6cd89e969d67,2021-07-29_20h01.46.995,Simcolourproject_2stim_asymm_v5,2020.2.10,Win32,60,61025ae37ef11b136ea224fe,,,,,,,,,1977,63,48,1,0,0,response1disk,,6,-25,-3,1,0,0,rectangle,-25,-3,1,0,0,-25,-3,1,0,0,1,103,263,14,1,,,,,,,,
,,,,,,,,,,,,,FF,,,,,,,,1.4335,,,,,,,,,,,,,,,,,,,,,,610367eb9e35c754c9add89b,61036b6e550c6cd89e969d67,2021-07-29_20h01.46.995,Simcolourproject_2stim_asymm_v5,2020.2.10,Win32,60,61025ae37ef11b136ea224fe,,,,,,,,,1603,-40,77,1,0,0,response7disk,,0,2,1,1,0,0,rectangle,2,1,1,0,0,2,1,1,0,0,1,104,264,152,1,,,,,,,,
,,,,,,,,,,,,,FF,,,,,,,,0.7316,,,,,,,,,,,,,,,,,,,,,,610367eb9e35c754c9add89b,61036b6e550c6cd89e969d67,2021-07-29_20h01.46.995,Simcolourproject_2stim_asymm_v5,2020.2.10,Win32,60,61025ae37ef11b136ea224fe,,,,,,,,,518,52,25,1,0,0,response1disk,,6,-13,10,1,0,0,rectangle,-13,10,1,0,0,-13,10,1,0,0,1,105,265,118,1,,,,,,,,
,,,,,,,,,,,,,FF,,,,,,,,1.2976,,,,,,,,,,,,,,,,,,,,,,610367eb9e35c754c9add89b,61036b6e550c6cd89e969d67,2021-07-29_20h01.46.995,Simcolourproject_2stim_asymm_v5,2020.2.10,Win32,60,61025ae37ef11b136ea224fe,,,,,,,,,2962,26,-70,1,0,0,response3disk,,4,-24,-4,1,0,0,rectangle,-24,-4,1,0,0,-24,-4,1,0,0,1,106,266,79,1,,,,,,,,
,,,,,,,,,,,,,FF,,,,,,,,1.0354,,,,,,,,,,,,,,,,,,,,,,610367eb9e35c754c9add89b,61036b6e550c6cd89e969d67,2021-07-29_20h01.46.995,Simcolourproject_2stim_asymm_v5,2020.2.10,Win32,60,61025ae37ef11b136ea224fe,,,,,,,,,185,-33,74,1,0,0,response7disk,,0,-10,3,1,0,0,rectangle,75,-33,1,0,0,-6,-6,1,0,0,1,107,267,111,1,,response3disk_3,TRUE,5,5,"[99,306,261,303,200,28,10,146,78,41,276,216,72,272,152,105,17,84,268,46]",2.1772,rectangle
,,,,,,,,,,,,,FF,,,,,,,,0.8194,,,,,,,,,,,,,,,,,,,,,,610367eb9e35c754c9add89b,61036b6e550c6cd89e969d67,2021-07-29_20h01.46.995,Simcolourproject_2stim_asymm_v5,2020.2.10,Win32,60,61025ae37ef11b136ea224fe,,,,,,,,,4293,-27,36,1,0,0,response7disk,,0,-10,4,1,0,0,rectangle,-10,4,1,0,0,-10,4,1,0,0,1,108,268,60,1,,,,,,,,
,,,,,,,,,,,,,FF,,,,,,,,0.8816,,,,,,,,,,,,,,,,,,,,,,610367eb9e35c754c9add89b,61036b6e550c6cd89e969d67,2021-07-29_20h01.46.995,Simcolourproject_2stim_asymm_v5,2020.2.10,Win32,60,61025ae37ef11b136ea224fe,,,,,,,,,492,43,82,1,0,0,response1disk,,7,1,0,1,0,0,rectangle,1,0,1,0,0,1,0,1,0,0,1,109,269,78,1,,,,,,,,
,,,,,,,,,,,,,FF,,,,,,,,1.4649,,,,,,,,,,,,,,,,,,,,,,610367eb9e35c754c9add89b,61036b6e550c6cd89e969d67,2021-07-29_20h01.46.995,Simcolourproject_2stim_asymm_v5,2020.2.10,Win32,60,61025ae37ef11b136ea224fe,,,,,,,,,241,50,22,1,0,0,response1disk,,6,-21,-6,1,0,0,rectangle,-21,-6,1,0,0,-21,-6,1,0,0,1,110,270,71,1,,,,,,,,
,,,,,,,,,,,,,FF,,,,,,,,1.0192,,,,,,,,,,,,,,,,,,,,,,610367eb9e35c754c9add89b,61036b6e550c6cd89e969d67,2021-07-29_20h01.46.995,Simcolourproject_2stim_asymm_v5,2020.2.10,Win32,60,61025ae37ef11b136ea224fe,,,,,,,,,2308,-27,-68,1,0,0,response5disk,,3,6,-7,1,0,0,rectangle,28,-71,1,0,0,-3,8,1,0,0,1,111,271,5,1,,response3disk_3,TRUE,4,4,"[99,306,261,303,200,28,10,146,78,41,276,216,72,272,152,105,17,84,268,46]",1.8006,rectangle
,,,,,,,,,,,,,FF,,,,,,,,2.0634,,,,,,,,,,,,,,,,,,,,,,610367eb9e35c754c9add89b,61036b6e550c6cd89e969d67,2021-07-29_20h01.46.995,Simcolourproject_2stim_asymm_v5,2020.2.10,Win32,60,61025ae37ef11b136ea224fe,,,,,,,,,1025,-92,-80,1,0,0,response5disk,,2,-15,-1,1,0,0,rectangle,-15,-1,1,0,0,-15,-1,1,0,0,1,112,272,85,1,,,,,,,,
,,,,,,,,,,,,,FF,,,,,,,,1.0478,,,,,,,,,,,,,,,,,,,,,,610367eb9e35c754c9add89b,61036b6e550c6cd89e969d67,2021-07-29_20h01.46.995,Simcolourproject_2stim_asymm_v5,2020.2.10,Win32,60,61025ae37ef11b136ea224fe,,,,,,,,,1203,-76,58,1,0,0,response7disk,,1,-2,7,1,0,0,rectangle,-2,7,1,0,0,-2,7,1,0,0,1,113,273,69,1,,,,,,,,
,,,,,,,,,,,,,FF,,,,,,,,4.2227,,,,,,,,,,,,,,,,,,,,,,610367eb9e35c754c9add89b,61036b6e550c6cd89e969d67,2021-07-29_20h01.46.995,Simcolourproject_2stim_asymm_v5,2020.2.10,Win32,60,61025ae37ef11b136ea224fe,,,,,,,,,511,83,29,1,0,0,response1disk,,6,7,3,1,0,0,rectangle,7,3,1,0,0,7,3,1,0,0,1,114,274,159,1,,,,,,,,
,,,,,,,,,,,,,FF,,,,,,,,1.8473,,,,,,,,,,,,,,,,,,,,,,610367eb9e35c754c9add89b,61036b6e550c6cd89e969d67,2021-07-29_20h01.46.995,Simcolourproject_2stim_asymm_v5,2020.2.10,Win32,60,61025ae37ef11b136ea224fe,,,,,,,,,3650,54,-52,1,0,0,response3disk,,5,-3,12,1,0,0,rectangle,-98,-32,1,0,0,-3,-5,1,0,0,1,115,275,20,1,,response5disk_3,TRUE,2,2,"[99,306,261,303,200,28,10,146,78,41,276,216,72,272,152,105,17,84,268,46]",1.6502,rectangle
,,,,,,,,,,,,,FF,,,,,,,,1.0705,,,,,,,,,,,,,,,,,,,,,,610367eb9e35c754c9add89b,61036b6e550c6cd89e969d67,2021-07-29_20h01.46.995,Simcolourproject_2stim_asymm_v5,2020.2.10,Win32,60,61025ae37ef11b136ea224fe,,,,,,,,,2301,61,29,1,0,0,response1disk,,6,10,6,1,0,0,rectangle,10,6,1,0,0,10,6,1,0,0,1,116,276,6,1,,,,,,,,
,,,,,,,,,,,,,FF,,,,,,,,1.6018,,,,,,,,,,,,,,,,,,,,,,610367eb9e35c754c9add89b,61036b6e550c6cd89e969d67,2021-07-29_20h01.46.995,Simcolourproject_2stim_asymm_v5,2020.2.10,Win32,60,61025ae37ef11b136ea224fe,,,,,,,,,1811,67,30,1,0,0,response1disk,,6,6,-14,1,0,0,rectangle,6,-14,1,0,0,6,-14,1,0,0,1,117,277,120,1,,,,,,,,
,,,,,,,,,,,,,FF,,,,,,,,0.7174,,,,,,,,,,,,,,,,,,,,,,610367eb9e35c754c9add89b,61036b6e550c6cd89e969d67,2021-07-29_20h01.46.995,Simcolourproject_2stim_asymm_v5,2020.2.10,Win32,60,61025ae37ef11b136ea224fe,,,,,,,,,3907,61,-35,1,0,0,response3disk,,5,-13,9,1,0,0,rectangle,-13,9,1,0,0,-13,9,1,0,0,1,118,278,17,1,,,,,,,,
,,,,,,,,,,,,,FF,,,,,,,,1.6357,,,,,,,,,,,,,,,,,,,,,,610367eb9e35c754c9add89b,61036b6e550c6cd89e969d67,2021-07-29_20h01.46.995,Simcolourproject_2stim_asymm_v5,2020.2.10,Win32,60,61025ae37ef11b136ea224fe,,,,,,,,,1220,-108,-38,1,0,0,response5disk,,2,-12,0,1,0,0,rectangle,-12,0,1,0,0,-12,0,1,0,0,1,119,279,125,1,,,,,,,,
,,,,,,,,,,,,,FF,,,,,,,,0.8334,,,,,,,,,,,,,,,,,,,,,,610367eb9e35c754c9add89b,61036b6e550c6cd89e969d67,2021-07-29_20h01.46.995,Simcolourproject_2stim_asymm_v5,2020.2.10,Win32,60,61025ae37ef11b136ea224fe,,,,,,,,,980,48,34,1,0,0,response1disk,,6,-12,7,1,0,0,rectangle,-12,7,1,0,0,-12,7,1,0,0,1,120,280,32,1,,,,,,,,
,,,,,,,,,,,,,FF,,,,,,,,1.2347,,,,,,,,,,,,,,,,,,,,,,610367eb9e35c754c9add89b,61036b6e550c6cd89e969d67,2021-07-29_20h01.46.995,Simcolourproject_2stim_asymm_v5,2020.2.10,Win32,60,61025ae37ef11b136ea224fe,,,,,,,,,1625,64,-21,1,0,0,response3disk,,5,-6,2,1,0,0,rectangle,-6,2,1,0,0,-6,2,1,0,0,1,121,281,100,1,,,,,,,,
,,,,,,,,,,,,,FF,,,,,,,,0.8997,,,,,,,,,,,,,,,,,,,,,,610367eb9e35c754c9add89b,61036b6e550c6cd89e969d67,2021-07-29_20h01.46.995,Simcolourproject_2stim_asymm_v5,2020.2.10,Win32,60,61025ae37ef11b136ea224fe,,,,,,,,,2006,47,-101,1,0,0,response3disk,,4,7,-8,1,0,0,rectangle,7,-8,1,0,0,7,-8,1,0,0,1,122,282,101,1,,,,,,,,
,,,,,,,,,,,,,FF,,,,,,,,1.0189,,,,,,,,,,,,,,,,,,,,,,610367eb9e35c754c9add89b,61036b6e550c6cd89e969d67,2021-07-29_20h01.46.995,Simcolourproject_2stim_asymm_v5,2020.2.10,Win32,60,61025ae37ef11b136ea224fe,,,,,,,,,84,58,54,1,0,0,response1disk,,6,-7,-8,1,0,0,rectangle,-7,-8,1,0,0,-7,-8,1,0,0,1,123,283,97,1,,,,,,,,
,,,,,,,,,,,,,FF,,,,,,,,0.8315,,,,,,,,,,,,,,,,,,,,,,610367eb9e35c754c9add89b,61036b6e550c6cd89e969d67,2021-07-29_20h01.46.995,Simcolourproject_2stim_asymm_v5,2020.2.10,Win32,60,61025ae37ef11b136ea224fe,,,,,,,,,1816,-65,40,1,0,0,response7disk,,1,19,-13,1,0,0,rectangle,19,-13,1,0,0,19,-13,1,0,0,1,124,284,29,1,,,,,,,,
,,,,,,,,,,,,,FF,,,,,,,,0.581,,,,,,,,,,,,,,,,,,,,,,610367eb9e35c754c9add89b,61036b6e550c6cd89e969d67,2021-07-29_20h01.46.995,Simcolourproject_2stim_asymm_v5,2020.2.10,Win32,60,61025ae37ef11b136ea224fe,,,,,,,,,253,-19,38,1,0,0,response7disk,,0,2,-3,1,0,0,rectangle,2,-3,1,0,0,2,-3,1,0,0,1,125,285,157,1,,,,,,,,
,,,,,,,,,,,,,FF,,,,,,,,0.7156,,,,,,,,,,,,,,,,,,,,,,610367eb9e35c754c9add89b,61036b6e550c6cd89e969d67,2021-07-29_20h01.46.995,Simcolourproject_2stim_asymm_v5,2020.2.10,Win32,60,61025ae37ef11b136ea224fe,,,,,,,,,4043,54,63,1,0,0,response1disk,,7,4,5,1,0,0,rectangle,4,5,1,0,0,4,5,1,0,0,1,126,286,155,1,,,,,,,,
,,,,,,,,,,,,,FF,,,,,,,,1.0158,,,,,,,,,,,,,,,,,,,,,,610367eb9e35c754c9add89b,61036b6e550c6cd89e969d67,2021-07-29_20h01.46.995,Simcolourproject_2stim_asymm_v5,2020.2.10,Win32,60,61025ae37ef11b136ea224fe,,,,,,,,,1296,-75,104,1,0,0,response7disk,,0,-32,13,1,0,0,rectangle,-32,13,1,0,0,-32,13,1,0,0,1,127,287,11,1,,,,,,,,
,,,,,,,,,,,,,FF,,,,,,,,1.072,,,,,,,,,,,,,,,,,,,,,,610367eb9e35c754c9add89b,61036b6e550c6cd89e969d67,2021-07-29_20h01.46.995,Simcolourproject_2stim_asymm_v5,2020.2.10,Win32,60,61025ae37ef11b136ea224fe,,,,,,,,,3015,43,65,1,0,0,response1disk,,7,10,3,1,0,0,rectangle,10,3,1,0,0,10,3,1,0,0,1,128,288,13,1,,,,,,,,
,,,,,,,,,,,,,FF,,,,,,,,1.0167,,,,,,,,,,,,,,,,,,,,,,610367eb9e35c754c9add89b,61036b6e550c6cd89e969d67,2021-07-29_20h01.46.995,Simcolourproject_2stim_asymm_v5,2020.2.10,Win32,60,61025ae37ef11b136ea224fe,,,,,,,,,4195,-63,47,1,0,0,response7disk,,1,-4,-1,1,0,0,rectangle,-4,-1,1,0,0,-4,-1,1,0,0,1,129,289,43,1,,,,,,,,
,,,,,,,,,,,,,FF,,,,,,,,1.6147,,,,,,,,,,,,,,,,,,,,,,610367eb9e35c754c9add89b,61036b6e550c6cd89e969d67,2021-07-29_20h01.46.995,Simcolourproject_2stim_asymm_v5,2020.2.10,Win32,60,61025ae37ef11b136ea224fe,,,,,,,,,4078,-44,87,1,0,0,response7disk,,0,-13,6,1,0,0,rectangle,-13,6,1,0,0,-13,6,1,0,0,1,130,290,36,1,,,,,,,,
,,,,,,,,,,,,,FF,,,,,,,,1.5847,,,,,,,,,,,,,,,,,,,,,,610367eb9e35c754c9add89b,61036b6e550c6cd89e969d67,2021-07-29_20h01.46.995,Simcolourproject_2stim_asymm_v5,2020.2.10,Win32,60,61025ae37ef11b136ea224fe,,,,,,,,,3268,59,84,1,0,0,response1disk,,7,27,9,1,0,0,rectangle,27,9,1,0,0,27,9,1,0,0,1,131,291,139,1,,,,,,,,
,,,,,,,,,,,,,FF,,,,,,,,0.6486,,,,,,,,,,,,,,,,,,,,,,610367eb9e35c754c9add89b,61036b6e550c6cd89e969d67,2021-07-29_20h01.46.995,Simcolourproject_2stim_asymm_v5,2020.2.10,Win32,60,61025ae37ef11b136ea224fe,,,,,,,,,2182,76,36,1,0,0,response1disk,,6,16,-5,1,0,0,rectangle,16,-5,1,0,0,16,-5,1,0,0,1,132,292,133,1,,,,,,,,
,,,,,,,,,,,,,FF,,,,,,,,1.846,,,,,,,,,,,,,,,,,,,,,,610367eb9e35c754c9add89b,61036b6e550c6cd89e969d67,2021-07-29_20h01.46.995,Simcolourproject_2stim_asymm_v5,2020.2.10,Win32,60,61025ae37ef11b136ea224fe,,,,,,,,,3199,-75,-56,1,0,0,response5disk,,2,-8,4,1,0,0,rectangle,-8,4,1,0,0,-8,4,1,0,0,1,133,293,65,1,,,,,,,,
,,,,,,,,,,,,,FF,,,,,,,,1.8793,,,,,,,,,,,,,,,,,,,,,,610367eb9e35c754c9add89b,61036b6e550c6cd89e969d67,2021-07-29_20h01.46.995,Simcolourproject_2stim_asymm_v5,2020.2.10,Win32,60,61025ae37ef11b136ea224fe,,,,,,,,,2999,52,-32,1,0,0,response3disk,,5,-7,1,1,0,0,rectangle,-7,1,1,0,0,-7,1,1,0,0,1,134,294,58,1,,,,,,,,
,,,,,,,,,,,,,FF,,,,,,,,0.7336,,,,,,,,,,,,,,,,,,,,,,610367eb9e35c754c9add89b,61036b6e550c6cd89e969d67,2021-07-29_20h01.46.995,Simcolourproject_2stim_asymm_v5,2020.2.10,Win32,60,61025ae37ef11b136ea224fe,,,,,,,,,3416,21,70,1,0,0,response1disk,,7,6,-2,1,0,0,rectangle,6,-2,1,0,0,6,-2,1,0,0,1,135,295,87,1,,,,,,,,
,,,,,,,,,,,,,FF,,,,,,,,0.9165,,,,,,,,,,,,,,,,,,,,,,610367eb9e35c754c9add89b,61036b6e550c6cd89e969d67,2021-07-29_20h01.46.995,Simcolourproject_2stim_asymm_v5,2020.2.10,Win32,60,61025ae37ef11b136ea224fe,,,,,,,,,2565,32,59,1,0,0,response1disk,,7,-1,3,1,0,0,rectangle,-1,3,1,0,0,-1,3,1,0,0,1,136,296,148,1,,,,,,,,
,,,,,,,,,,,,,FF,,,,,,,,0.7649,,,,,,,,,,,,,,,,,,,,,,610367eb9e35c754c9add89b,61036b6e550c6cd89e969d67,2021-07-29_20h01.46.995,Simcolourproject_2stim_asymm_v5,2020.2.10,Win32,60,61025ae37ef11b136ea224fe,,,,,,,,,1200,-83,19,1,0,0,response7disk,,1,-5,0,1,0,0,rectangle,-5,0,1,0,0,-5,0,1,0,0,1,137,297,82,1,,,,,,,,
,,,,,,,,,,,,,FF,,,,,,,,1.0762,,,,,,,,,,,,,,,,,,,,,,610367eb9e35c754c9add89b,61036b6e550c6cd89e969d67,2021-07-29_20h01.46.995,Simcolourproject_2stim_asymm_v5,2020.2.10,Win32,60,61025ae37ef11b136ea224fe,,,,,,,,,3699,45,51,1,0,0,response1disk,,7,5,7,1,0,0,rectangle,5,7,1,0,0,5,7,1,0,0,1,138,298,10,1,,,,,,,,
,,,,,,,,,,,,,FF,,,,,,,,0.8898,,,,,,,,,,,,,,,,,,,,,,610367eb9e35c754c9add89b,61036b6e550c6cd89e969d67,2021-07-29_20h01.46.995,Simcolourproject_2stim_asymm_v5,2020.2.10,Win32,60,61025ae37ef11b136ea224fe,,,,,,,,,2917,58,33,1,0,0,response1disk,,6,12,-2,1,0,0,rectangle,12,-2,1,0,0,12,-2,1,0,0,1,139,299,114,1,,,,,,,,
,,,,,,,,,,,,,FF,,,,,,,,1.099,,,,,,,,,,,,,,,,,,,,,,610367eb9e35c754c9add89b,61036b6e550c6cd89e969d67,2021-07-29_20h01.46.995,Simcolourproject_2stim_asymm_v5,2020.2.10,Win32,60,61025ae37ef11b136ea224fe,,,,,,,,,1584,-61,-67,1,0,0,response5disk,,3,-12,4,1,0,0,rectangle,-12,4,1,0,0,-12,4,1,0,0,1,140,300,156,1,,,,,,,,
,,,,,,,,,,,,,FF,,,,,,,,0.7479,,,,,,,,,,,,,,,,,,,,,,610367eb9e35c754c9add89b,61036b6e550c6cd89e969d67,2021-07-29_20h01.46.995,Simcolourproject_2stim_asymm_v5,2020.2.10,Win32,60,61025ae37ef11b136ea224fe,,,,,,,,,3630,-60,70,1,0,0,response7disk,,0,-5,-12,1,0,0,rectangle,-5,-12,1,0,0,-5,-12,1,0,0,1,141,301,158,1,,,,,,,,
