key_resp.keys,key_resp.rt,key_resp_14.keys,key_resp_14.rt,key_resp_15.keys,key_resp_15.rt,key_resp_17.keys,key_resp_17.rt,key_resp_9.keys,key_resp_9.rt,key_resp_10.keys,key_resp_10.rt,practice_comparison,Ecc,mouse_5.x,mouse_5.y,mouse_5.leftButton,mouse_5.midButton,mouse_5.rightButton,mouse_5.clicked_name,pracsimilarity,response_time,mouse_10.x,mouse_10.y,mouse_10.leftButton,mouse_10.midButton,mouse_10.rightButton,mouse_10.clicked_name,mouse_7.x,mouse_7.y,mouse_7.leftButton,mouse_7.midButton,mouse_7.rightButton,mouse_6.x,mouse_6.y,mouse_6.leftButton,mouse_6.midButton,mouse_6.rightButton,duringprac.thisRepN,duringprac.thisTrialN,duringprac.thisN,duringprac.thisIndex,duringprac.ran,participant,session,date,expName,psychopyVersion,OS,frameRate,study_id,mouse_7.clicked_name,catchpracsimilarity,catch_response_time,catchnumberprac,catchtrialorderprac,mouse_6.clicked_name,key_resp_22.keys,key_resp_22.rt,realcomparison,mouse.x,mouse.y,mouse.leftButton,mouse.midButton,mouse.rightButton,mouse.clicked_name,Colour2,similarity,mouse_2.x,mouse_2.y,mouse_2.leftButton,mouse_2.midButton,mouse_2.rightButton,mouse_2.clicked_name,mouse_3.x,mouse_3.y,mouse_3.leftButton,mouse_3.midButton,mouse_3.rightButton,mouse_11.x,mouse_11.y,mouse_11.leftButton,mouse_11.midButton,mouse_11.rightButton,trials_2.thisRepN,trials_2.thisTrialN,trials_2.thisN,trials_2.thisIndex,trials_2.ran,Colour1,mouse_3.clicked_name,catchornah,catchsimilarity,catchnumber,catchtrialorder,catchRT,mouse_11.clicked_name
space,1.4429,space,5.8018,space,0.8391,space,3.0385,space,0.1001,space,0.5272,109,PF,27.34564209,-19.2991333,1,0,0,response3disk_5,5,4.6682,3.732788086,-3.60043335,1,0,0,rectangle_8,3.732788086,-3.60043335,1,0,0,3.732788086,-3.60043335,1,0,0,0,0,0,4,1,61035c6dabf4c24bbcec1b90,61036bdcb1bd52c528ebd7f8,2021-07-29_20h04.49.111,Simcolourproject_2stim_asymm_v5,2020.2.10,MacIntel,60,61025ae37ef11b136ea224fe,,,,,,,,,,,,,,,,,,,,,,,,,,,,,,,,,,,,,,,,,,,,,,
,,,,,,,,,,,,59,PF,41.17773438,-41.31771851,1,0,0,response3disk_5,4,2.2161,16.50292969,-6.770172119,1,0,0,rectangle_8,51.46118164,-39.88381958,1,0,0,17.27716064,-6.822570801,1,0,0,0,1,1,6,1,61035c6dabf4c24bbcec1b90,61036bdcb1bd52c528ebd7f8,2021-07-29_20h04.49.111,Simcolourproject_2stim_asymm_v5,2020.2.10,MacIntel,60,61025ae37ef11b136ea224fe,response3disk_7,5,1.016,4,"[2,5]",rectangle_4,,,,,,,,,,,,,,,,,,,,,,,,,,,,,,,,,,,,,,,,
,,,,,,,,,,,,73,PF,14.98828125,-18.57763672,1,0,0,response3disk_5,4,2.761,7.311889648,-3.663482666,1,0,0,rectangle_8,7.311889648,-3.663482666,1,0,0,7.311889648,-3.663482666,1,0,0,0,2,2,1,1,61035c6dabf4c24bbcec1b90,61036bdcb1bd52c528ebd7f8,2021-07-29_20h04.49.111,Simcolourproject_2stim_asymm_v5,2020.2.10,MacIntel,60,61025ae37ef11b136ea224fe,,,,,,,,,,,,,,,,,,,,,,,,,,,,,,,,,,,,,,,,,,,,,,
,,,,,,,,,,,,7,FF,36.17816162,-56.4822998,1,0,0,response3disk_5,4,2.0367,-0.544250488,-0.658905029,1,0,0,rectangle_8,-0.544250488,-0.658905029,1,0,0,-0.544250488,-0.658905029,1,0,0,0,3,3,3,1,61035c6dabf4c24bbcec1b90,61036bdcb1bd52c528ebd7f8,2021-07-29_20h04.49.111,Simcolourproject_2stim_asymm_v5,2020.2.10,MacIntel,60,61025ae37ef11b136ea224fe,,,,,,,,,,,,,,,,,,,,,,,,,,,,,,,,,,,,,,,,,,,,,,
,,,,,,,,,,,,129,FF,-36.91699219,-45.31924438,1,0,0,response5disk_5,3,1.1847,-13.14074707,10.50775146,1,0,0,rectangle_8,49.64172363,-94.11621094,1,0,0,10.07141113,-1.840606689,1,0,0,0,4,4,5,1,61035c6dabf4c24bbcec1b90,61036bdcb1bd52c528ebd7f8,2021-07-29_20h04.49.111,Simcolourproject_2stim_asymm_v5,2020.2.10,MacIntel,60,61025ae37ef11b136ea224fe,response3disk_7,4,2.5041,4,"[2,5]",rectangle_4,,,,,,,,,,,,,,,,,,,,,,,,,,,,,,,,,,,,,,,,
,,,,,,,,,,,,151,PF,28.46685791,-51.62908936,1,0,0,response3disk_5,4,2.0823,1.079467773,-6.233642578,1,0,0,rectangle_8,1.079467773,-6.233642578,1,0,0,1.079467773,-6.233642578,1,0,0,0,5,5,2,1,61035c6dabf4c24bbcec1b90,61036bdcb1bd52c528ebd7f8,2021-07-29_20h04.49.111,Simcolourproject_2stim_asymm_v5,2020.2.10,MacIntel,60,61025ae37ef11b136ea224fe,,,,,,,,,,,,,,,,,,,,,,,,,,,,,,,,,,,,,,,,,,,,,,
,,,,,,,,,,,,48,FF,41.34350586,-65.32727051,1,0,0,response3disk_5,4,1.617,12.58569336,1.457885742,1,0,0,rectangle_8,12.58569336,1.457885742,1,0,0,12.58569336,1.457885742,1,0,0,0,6,6,0,1,61035c6dabf4c24bbcec1b90,61036bdcb1bd52c528ebd7f8,2021-07-29_20h04.49.111,Simcolourproject_2stim_asymm_v5,2020.2.10,MacIntel,60,61025ae37ef11b136ea224fe,,,,,,,,,,,,,,,,,,,,,,,,,,,,,,,,,,,,,,,,,,,,,,
,,,,,,,,,,,,,FF,,,,,,,,7.6041,,,,,,,,,,,,,,,,,,,,,,61035c6dabf4c24bbcec1b90,61036bdcb1bd52c528ebd7f8,2021-07-29_20h04.49.111,Simcolourproject_2stim_asymm_v5,2020.2.10,MacIntel,60,61025ae37ef11b136ea224fe,,,,,,,space,3.2,4230,25.74353027,-56.16299438,1,0,0,response3disk,,4,2.859680176,-1.24005127,1,0,0,rectangle,2.859680176,-1.24005127,1,0,0,2.859680176,-1.24005127,1,0,0,0,0,0,63,1,,,,,,,,
,,,,,,,,,,,,,FF,,,,,,,,2.6872,,,,,,,,,,,,,,,,,,,,,,61035c6dabf4c24bbcec1b90,61036bdcb1bd52c528ebd7f8,2021-07-29_20h04.49.111,Simcolourproject_2stim_asymm_v5,2020.2.10,MacIntel,60,61025ae37ef11b136ea224fe,,,,,,,,,562,-56.43353271,-44.12463379,1,0,0,response5disk,,2,19.10565186,-14.68643188,1,0,0,rectangle,19.10565186,-14.68643188,1,0,0,19.10565186,-14.68643188,1,0,0,0,1,1,58,1,,,,,,,,
,,,,,,,,,,,,,FF,,,,,,,,2.0845,,,,,,,,,,,,,,,,,,,,,,61035c6dabf4c24bbcec1b90,61036bdcb1bd52c528ebd7f8,2021-07-29_20h04.49.111,Simcolourproject_2stim_asymm_v5,2020.2.10,MacIntel,60,61025ae37ef11b136ea224fe,,,,,,,,,1487,49.33453369,74.60992432,1,0,0,response1disk,,7,28.42047119,6.567047119,1,0,0,rectangle,-62.82647705,-29.1300354,1,0,0,15.29071045,10.51437378,1,0,0,0,2,2,116,1,,response5disk_3,TRUE,2,2,"[83,211,154,206,152,230,189,3,294,42,222,115,311,146,151,306,101,158,149,129]",3.4154,rectangle
,,,,,,,,,,,,,FF,,,,,,,,4.1504,,,,,,,,,,,,,,,,,,,,,,61035c6dabf4c24bbcec1b90,61036bdcb1bd52c528ebd7f8,2021-07-29_20h04.49.111,Simcolourproject_2stim_asymm_v5,2020.2.10,MacIntel,60,61025ae37ef11b136ea224fe,,,,,,,,,3183,78.60888672,26.17788696,1,0,0,response1disk,,6,12.16290283,-1.078094482,1,0,0,rectangle,12.16290283,-1.078094482,1,0,0,12.16290283,-1.078094482,1,0,0,0,3,3,112,1,,,,,,,,
,,,,,,,,,,,,,FF,,,,,,,,1.0781,,,,,,,,,,,,,,,,,,,,,,61035c6dabf4c24bbcec1b90,61036bdcb1bd52c528ebd7f8,2021-07-29_20h04.49.111,Simcolourproject_2stim_asymm_v5,2020.2.10,MacIntel,60,61025ae37ef11b136ea224fe,,,,,,,,,1915,-28.88885498,-59.85931396,1,0,0,response5disk,,3,-9.101074219,-16.58258057,1,0,0,rectangle,-9.101074219,-16.58258057,1,0,0,-9.101074219,-16.58258057,1,0,0,0,4,4,133,1,,,,,,,,
,,,,,,,,,,,,,FF,,,,,,,,0.8026,,,,,,,,,,,,,,,,,,,,,,61035c6dabf4c24bbcec1b90,61036bdcb1bd52c528ebd7f8,2021-07-29_20h04.49.111,Simcolourproject_2stim_asymm_v5,2020.2.10,MacIntel,60,61025ae37ef11b136ea224fe,,,,,,,,,2336,-34.05938721,-59.74365234,1,0,0,response5disk,,3,-4.866821289,14.23632813,1,0,0,rectangle,-4.866821289,14.23632813,1,0,0,-4.866821289,14.23632813,1,0,0,0,5,5,100,1,,,,,,,,
,,,,,,,,,,,,,FF,,,,,,,,1.1658,,,,,,,,,,,,,,,,,,,,,,61035c6dabf4c24bbcec1b90,61036bdcb1bd52c528ebd7f8,2021-07-29_20h04.49.111,Simcolourproject_2stim_asymm_v5,2020.2.10,MacIntel,60,61025ae37ef11b136ea224fe,,,,,,,,,3215,41.53125,-54.37286377,1,0,0,response3disk,,4,16.10321045,0.090759277,1,0,0,rectangle,16.10321045,0.090759277,1,0,0,16.10321045,0.090759277,1,0,0,0,6,6,137,1,,,,,,,,
,,,,,,,,,,,,,FF,,,,,,,,1.8502,,,,,,,,,,,,,,,,,,,,,,61035c6dabf4c24bbcec1b90,61036bdcb1bd52c528ebd7f8,2021-07-29_20h04.49.111,Simcolourproject_2stim_asymm_v5,2020.2.10,MacIntel,60,61025ae37ef11b136ea224fe,,,,,,,,,3918,-70.76708984,-40.40670776,1,0,0,response5disk,,2,0.826293945,-12.22421265,1,0,0,rectangle,0.826293945,-12.22421265,1,0,0,0.826293945,-12.22421265,1,0,0,0,7,7,14,1,,,,,,,,
,,,,,,,,,,,,,FF,,,,,,,,0.9845,,,,,,,,,,,,,,,,,,,,,,61035c6dabf4c24bbcec1b90,61036bdcb1bd52c528ebd7f8,2021-07-29_20h04.49.111,Simcolourproject_2stim_asymm_v5,2020.2.10,MacIntel,60,61025ae37ef11b136ea224fe,,,,,,,,,400,-41.72808838,-56.45654297,1,0,0,response5disk,,3,10.6026001,1.046844482,1,0,0,rectangle,10.6026001,1.046844482,1,0,0,10.6026001,1.046844482,1,0,0,0,8,8,52,1,,,,,,,,
,,,,,,,,,,,,,FF,,,,,,,,1.516,,,,,,,,,,,,,,,,,,,,,,61035c6dabf4c24bbcec1b90,61036bdcb1bd52c528ebd7f8,2021-07-29_20h04.49.111,Simcolourproject_2stim_asymm_v5,2020.2.10,MacIntel,60,61025ae37ef11b136ea224fe,,,,,,,,,1525,-59.76611328,36.73657227,1,0,0,response7disk,,1,-1.578369141,10.1836853,1,0,0,rectangle,-1.578369141,10.1836853,1,0,0,-1.578369141,10.1836853,1,0,0,0,9,9,97,1,,,,,,,,
,,,,,,,,,,,,,FF,,,,,,,,0.8339,,,,,,,,,,,,,,,,,,,,,,61035c6dabf4c24bbcec1b90,61036bdcb1bd52c528ebd7f8,2021-07-29_20h04.49.111,Simcolourproject_2stim_asymm_v5,2020.2.10,MacIntel,60,61025ae37ef11b136ea224fe,,,,,,,,,2185,-26.68225098,-53.80996704,1,0,0,response5disk,,3,3.171020508,-2.172546387,1,0,0,rectangle,3.171020508,-2.172546387,1,0,0,3.171020508,-2.172546387,1,0,0,0,10,10,30,1,,,,,,,,
,,,,,,,,,,,,,FF,,,,,,,,1.0521,,,,,,,,,,,,,,,,,,,,,,61035c6dabf4c24bbcec1b90,61036bdcb1bd52c528ebd7f8,2021-07-29_20h04.49.111,Simcolourproject_2stim_asymm_v5,2020.2.10,MacIntel,60,61025ae37ef11b136ea224fe,,,,,,,,,3642,-26.86358643,-65.00720215,1,0,0,response5disk,,3,-8.452697754,-10.5632019,1,0,0,rectangle,-8.452697754,-10.5632019,1,0,0,-8.452697754,-10.5632019,1,0,0,0,11,11,1,1,,,,,,,,
,,,,,,,,,,,,,FF,,,,,,,,1.3023,,,,,,,,,,,,,,,,,,,,,,61035c6dabf4c24bbcec1b90,61036bdcb1bd52c528ebd7f8,2021-07-29_20h04.49.111,Simcolourproject_2stim_asymm_v5,2020.2.10,MacIntel,60,61025ae37ef11b136ea224fe,,,,,,,,,747,45.31048584,-59.00613403,1,0,0,response3disk,,4,-7.961120605,10.00415039,1,0,0,rectangle,-7.961120605,10.00415039,1,0,0,-7.961120605,10.00415039,1,0,0,0,12,12,33,1,,,,,,,,
,,,,,,,,,,,,,FF,,,,,,,,0.5661,,,,,,,,,,,,,,,,,,,,,,61035c6dabf4c24bbcec1b90,61036bdcb1bd52c528ebd7f8,2021-07-29_20h04.49.111,Simcolourproject_2stim_asymm_v5,2020.2.10,MacIntel,60,61025ae37ef11b136ea224fe,,,,,,,,,2915,57.12805176,-21.33605957,1,0,0,response3disk,,5,21.00488281,17.26553345,1,0,0,rectangle,21.00488281,17.26553345,1,0,0,21.00488281,17.26553345,1,0,0,0,13,13,49,1,,,,,,,,
,,,,,,,,,,,,,FF,,,,,,,,0.8649,,,,,,,,,,,,,,,,,,,,,,61035c6dabf4c24bbcec1b90,61036bdcb1bd52c528ebd7f8,2021-07-29_20h04.49.111,Simcolourproject_2stim_asymm_v5,2020.2.10,MacIntel,60,61025ae37ef11b136ea224fe,,,,,,,,,3193,-47.63586426,-18.21133423,1,0,0,response5disk,,2,15.46337891,8.520385742,1,0,0,rectangle,15.46337891,8.520385742,1,0,0,15.46337891,8.520385742,1,0,0,0,14,14,55,1,,,,,,,,
,,,,,,,,,,,,,FF,,,,,,,,1.6647,,,,,,,,,,,,,,,,,,,,,,61035c6dabf4c24bbcec1b90,61036bdcb1bd52c528ebd7f8,2021-07-29_20h04.49.111,Simcolourproject_2stim_asymm_v5,2020.2.10,MacIntel,60,61025ae37ef11b136ea224fe,,,,,,,,,1964,-76.89331055,47.51858521,1,0,0,response7disk,,1,9.051208496,12.49697876,1,0,0,rectangle,9.051208496,12.49697876,1,0,0,9.051208496,12.49697876,1,0,0,0,15,15,113,1,,,,,,,,
,,,,,,,,,,,,,FF,,,,,,,,0.6984,,,,,,,,,,,,,,,,,,,,,,61035c6dabf4c24bbcec1b90,61036bdcb1bd52c528ebd7f8,2021-07-29_20h04.49.111,Simcolourproject_2stim_asymm_v5,2020.2.10,MacIntel,60,61025ae37ef11b136ea224fe,,,,,,,,,1053,-56.69543457,-31.99554443,1,0,0,response5disk,,2,3.473999023,-12.34674072,1,0,0,rectangle,3.473999023,-12.34674072,1,0,0,3.473999023,-12.34674072,1,0,0,0,16,16,65,1,,,,,,,,
,,,,,,,,,,,,,FF,,,,,,,,0.7031,,,,,,,,,,,,,,,,,,,,,,61035c6dabf4c24bbcec1b90,61036bdcb1bd52c528ebd7f8,2021-07-29_20h04.49.111,Simcolourproject_2stim_asymm_v5,2020.2.10,MacIntel,60,61025ae37ef11b136ea224fe,,,,,,,,,511,64.14440918,-39.30673218,1,0,0,response3disk,,5,34.59906006,-11.80795288,1,0,0,rectangle,34.59906006,-11.80795288,1,0,0,34.59906006,-11.80795288,1,0,0,0,17,17,48,1,,,,,,,,
,,,,,,,,,,,,,FF,,,,,,,,0.9623,,,,,,,,,,,,,,,,,,,,,,61035c6dabf4c24bbcec1b90,61036bdcb1bd52c528ebd7f8,2021-07-29_20h04.49.111,Simcolourproject_2stim_asymm_v5,2020.2.10,MacIntel,60,61025ae37ef11b136ea224fe,,,,,,,,,524,-49.39746094,-30.47854614,1,0,0,response5disk,,2,-27.91491699,-17.5411377,1,0,0,rectangle,-27.91491699,-17.5411377,1,0,0,-27.91491699,-17.5411377,1,0,0,0,18,18,76,1,,,,,,,,
,,,,,,,,,,,,,FF,,,,,,,,0.5974,,,,,,,,,,,,,,,,,,,,,,61035c6dabf4c24bbcec1b90,61036bdcb1bd52c528ebd7f8,2021-07-29_20h04.49.111,Simcolourproject_2stim_asymm_v5,2020.2.10,MacIntel,60,61025ae37ef11b136ea224fe,,,,,,,,,1931,66.98736572,-25.65679932,1,0,0,response3disk,,5,29.50299072,0.149871826,1,0,0,rectangle,29.50299072,0.149871826,1,0,0,29.50299072,0.149871826,1,0,0,0,19,19,35,1,,,,,,,,
,,,,,,,,,,,,,FF,,,,,,,,0.62,,,,,,,,,,,,,,,,,,,,,,61035c6dabf4c24bbcec1b90,61036bdcb1bd52c528ebd7f8,2021-07-29_20h04.49.111,Simcolourproject_2stim_asymm_v5,2020.2.10,MacIntel,60,61025ae37ef11b136ea224fe,,,,,,,,,2447,70.67175293,26.33197021,1,0,0,response1disk,,6,28.46600342,-5.88949585,1,0,0,rectangle,28.46600342,-5.88949585,1,0,0,28.46600342,-5.88949585,1,0,0,0,20,20,117,1,,,,,,,,
,,,,,,,,,,,,,FF,,,,,,,,1.1827,,,,,,,,,,,,,,,,,,,,,,61035c6dabf4c24bbcec1b90,61036bdcb1bd52c528ebd7f8,2021-07-29_20h04.49.111,Simcolourproject_2stim_asymm_v5,2020.2.10,MacIntel,60,61025ae37ef11b136ea224fe,,,,,,,,,270,54.70031738,-77.64746094,1,0,0,response3disk,,4,27.03771973,-16.15945435,1,0,0,rectangle,27.03771973,-16.15945435,1,0,0,27.03771973,-16.15945435,1,0,0,0,21,21,51,1,,,,,,,,
,,,,,,,,,,,,,FF,,,,,,,,1.0624,,,,,,,,,,,,,,,,,,,,,,61035c6dabf4c24bbcec1b90,61036bdcb1bd52c528ebd7f8,2021-07-29_20h04.49.111,Simcolourproject_2stim_asymm_v5,2020.2.10,MacIntel,60,61025ae37ef11b136ea224fe,,,,,,,,,1123,35.94415283,68.17288208,1,0,0,response1disk,,7,24.80407715,13.62915039,1,0,0,rectangle,24.80407715,13.62915039,1,0,0,24.80407715,13.62915039,1,0,0,0,22,22,46,1,,,,,,,,
,,,,,,,,,,,,,FF,,,,,,,,0.7635,,,,,,,,,,,,,,,,,,,,,,61035c6dabf4c24bbcec1b90,61036bdcb1bd52c528ebd7f8,2021-07-29_20h04.49.111,Simcolourproject_2stim_asymm_v5,2020.2.10,MacIntel,60,61025ae37ef11b136ea224fe,,,,,,,,,1226,-43.21282959,-26.7409668,1,0,0,response5disk,,2,-19.48406982,-15.70184326,1,0,0,rectangle,-19.48406982,-15.70184326,1,0,0,-19.48406982,-15.70184326,1,0,0,0,23,23,107,1,,,,,,,,
,,,,,,,,,,,,,FF,,,,,,,,1.013,,,,,,,,,,,,,,,,,,,,,,61035c6dabf4c24bbcec1b90,61036bdcb1bd52c528ebd7f8,2021-07-29_20h04.49.111,Simcolourproject_2stim_asymm_v5,2020.2.10,MacIntel,60,61025ae37ef11b136ea224fe,,,,,,,,,3994,-54.48010254,15.29382324,1,0,0,response7disk,,1,-4.375549316,3.90020752,1,0,0,rectangle,-4.375549316,3.90020752,1,0,0,-4.375549316,3.90020752,1,0,0,0,24,24,74,1,,,,,,,,
,,,,,,,,,,,,,FF,,,,,,,,0.879,,,,,,,,,,,,,,,,,,,,,,61035c6dabf4c24bbcec1b90,61036bdcb1bd52c528ebd7f8,2021-07-29_20h04.49.111,Simcolourproject_2stim_asymm_v5,2020.2.10,MacIntel,60,61025ae37ef11b136ea224fe,,,,,,,,,2553,-22.25256348,-45.76599121,1,0,0,response5disk,,3,-16.3515625,-5.237365723,1,0,0,rectangle,-16.3515625,-5.237365723,1,0,0,-16.3515625,-5.237365723,1,0,0,0,25,25,123,1,,,,,,,,
,,,,,,,,,,,,,FF,,,,,,,,0.7982,,,,,,,,,,,,,,,,,,,,,,61035c6dabf4c24bbcec1b90,61036bdcb1bd52c528ebd7f8,2021-07-29_20h04.49.111,Simcolourproject_2stim_asymm_v5,2020.2.10,MacIntel,60,61025ae37ef11b136ea224fe,,,,,,,,,631,-86.4944458,59.6411438,1,0,0,response7disk,,1,-15.12915039,2.035614014,1,0,0,rectangle,-15.12915039,2.035614014,1,0,0,-15.12915039,2.035614014,1,0,0,0,26,26,91,1,,,,,,,,
,,,,,,,,,,,,,FF,,,,,,,,1.8777,,,,,,,,,,,,,,,,,,,,,,61035c6dabf4c24bbcec1b90,61036bdcb1bd52c528ebd7f8,2021-07-29_20h04.49.111,Simcolourproject_2stim_asymm_v5,2020.2.10,MacIntel,60,61025ae37ef11b136ea224fe,,,,,,,,,3673,-92.89141846,13.73065186,1,0,0,response7disk,,1,-5.73828125,-6.59588623,1,0,0,rectangle,-5.73828125,-6.59588623,1,0,0,-5.73828125,-6.59588623,1,0,0,0,27,27,158,1,,,,,,,,
,,,,,,,,,,,,,FF,,,,,,,,0.8972,,,,,,,,,,,,,,,,,,,,,,61035c6dabf4c24bbcec1b90,61036bdcb1bd52c528ebd7f8,2021-07-29_20h04.49.111,Simcolourproject_2stim_asymm_v5,2020.2.10,MacIntel,60,61025ae37ef11b136ea224fe,,,,,,,,,1641,93.14007568,34.48458862,1,0,0,response1disk,,6,12.51824951,3.943725586,1,0,0,rectangle,12.51824951,3.943725586,1,0,0,12.51824951,3.943725586,1,0,0,0,28,28,145,1,,,,,,,,
,,,,,,,,,,,,,FF,,,,,,,,2.7657,,,,,,,,,,,,,,,,,,,,,,61035c6dabf4c24bbcec1b90,61036bdcb1bd52c528ebd7f8,2021-07-29_20h04.49.111,Simcolourproject_2stim_asymm_v5,2020.2.10,MacIntel,60,61025ae37ef11b136ea224fe,,,,,,,,,3708,-36.86791992,62.334198,1,0,0,response7disk,,0,14.85150146,-10.40429688,1,0,0,rectangle,14.85150146,-10.40429688,1,0,0,14.85150146,-10.40429688,1,0,0,0,29,29,153,1,,,,,,,,
,,,,,,,,,,,,,FF,,,,,,,,1.1335,,,,,,,,,,,,,,,,,,,,,,61035c6dabf4c24bbcec1b90,61036bdcb1bd52c528ebd7f8,2021-07-29_20h04.49.111,Simcolourproject_2stim_asymm_v5,2020.2.10,MacIntel,60,61025ae37ef11b136ea224fe,,,,,,,,,2587,52.53320313,-58.15441895,1,0,0,response3disk,,4,6.145935059,-11.59255981,1,0,0,rectangle,6.145935059,-11.59255981,1,0,0,6.145935059,-11.59255981,1,0,0,0,30,30,150,1,,,,,,,,
,,,,,,,,,,,,,FF,,,,,,,,1.651,,,,,,,,,,,,,,,,,,,,,,61035c6dabf4c24bbcec1b90,61036bdcb1bd52c528ebd7f8,2021-07-29_20h04.49.111,Simcolourproject_2stim_asymm_v5,2020.2.10,MacIntel,60,61025ae37ef11b136ea224fe,,,,,,,,,740,-72.53723145,-38.84277344,1,0,0,response5disk,,2,-32.16571045,10.86831665,1,0,0,rectangle,-32.16571045,10.86831665,1,0,0,-32.16571045,10.86831665,1,0,0,0,31,31,2,1,,,,,,,,
,,,,,,,,,,,,,FF,,,,,,,,0.767,,,,,,,,,,,,,,,,,,,,,,61035c6dabf4c24bbcec1b90,61036bdcb1bd52c528ebd7f8,2021-07-29_20h04.49.111,Simcolourproject_2stim_asymm_v5,2020.2.10,MacIntel,60,61025ae37ef11b136ea224fe,,,,,,,,,435,-71.35900879,-16.23654175,1,0,0,response5disk,,2,-2.48840332,14.90072632,1,0,0,rectangle,-2.48840332,14.90072632,1,0,0,-2.48840332,14.90072632,1,0,0,0,32,32,32,1,,,,,,,,
,,,,,,,,,,,,,FF,,,,,,,,0.5839,,,,,,,,,,,,,,,,,,,,,,61035c6dabf4c24bbcec1b90,61036bdcb1bd52c528ebd7f8,2021-07-29_20h04.49.111,Simcolourproject_2stim_asymm_v5,2020.2.10,MacIntel,60,61025ae37ef11b136ea224fe,,,,,,,,,1622,56.66125488,-25.89425659,1,0,0,response3disk,,5,28.63049316,-16.21090698,1,0,0,rectangle,28.63049316,-16.21090698,1,0,0,28.63049316,-16.21090698,1,0,0,0,33,33,34,1,,,,,,,,
,,,,,,,,,,,,,FF,,,,,,,,0.8988,,,,,,,,,,,,,,,,,,,,,,61035c6dabf4c24bbcec1b90,61036bdcb1bd52c528ebd7f8,2021-07-29_20h04.49.111,Simcolourproject_2stim_asymm_v5,2020.2.10,MacIntel,60,61025ae37ef11b136ea224fe,,,,,,,,,1521,-47.16223145,61.55230713,1,0,0,response7disk,,0,-19.24609375,-11.68313599,1,0,0,rectangle,-19.24609375,-11.68313599,1,0,0,-19.24609375,-11.68313599,1,0,0,0,34,34,95,1,,,,,,,,
,,,,,,,,,,,,,FF,,,,,,,,0.5607,,,,,,,,,,,,,,,,,,,,,,61035c6dabf4c24bbcec1b90,61036bdcb1bd52c528ebd7f8,2021-07-29_20h04.49.111,Simcolourproject_2stim_asymm_v5,2020.2.10,MacIntel,60,61025ae37ef11b136ea224fe,,,,,,,,,3742,-26.85540771,36.63366699,1,0,0,response7disk,,0,-26.85540771,13.39593506,1,0,0,rectangle,-26.85540771,13.39593506,1,0,0,-26.85540771,13.39593506,1,0,0,0,35,35,106,1,,,,,,,,
,,,,,,,,,,,,,FF,,,,,,,,0.7977,,,,,,,,,,,,,,,,,,,,,,61035c6dabf4c24bbcec1b90,61036bdcb1bd52c528ebd7f8,2021-07-29_20h04.49.111,Simcolourproject_2stim_asymm_v5,2020.2.10,MacIntel,60,61025ae37ef11b136ea224fe,,,,,,,,,3701,-67.25732422,-15.65795898,1,0,0,response5disk,,2,-25.32971191,1.927734375,1,0,0,rectangle,-25.32971191,1.927734375,1,0,0,-25.32971191,1.927734375,1,0,0,0,36,36,92,1,,,,,,,,
,,,,,,,,,,,,,FF,,,,,,,,0.5985,,,,,,,,,,,,,,,,,,,,,,61035c6dabf4c24bbcec1b90,61036bdcb1bd52c528ebd7f8,2021-07-29_20h04.49.111,Simcolourproject_2stim_asymm_v5,2020.2.10,MacIntel,60,61025ae37ef11b136ea224fe,,,,,,,,,3658,77.5994873,31.3364563,1,0,0,response1disk,,6,33.34423828,7.623809814,1,0,0,rectangle,33.34423828,7.623809814,1,0,0,33.34423828,7.623809814,1,0,0,0,37,37,111,1,,,,,,,,
,,,,,,,,,,,,,FF,,,,,,,,1.2874,,,,,,,,,,,,,,,,,,,,,,61035c6dabf4c24bbcec1b90,61036bdcb1bd52c528ebd7f8,2021-07-29_20h04.49.111,Simcolourproject_2stim_asymm_v5,2020.2.10,MacIntel,60,61025ae37ef11b136ea224fe,,,,,,,,,3990,37.68707275,-80.53045654,1,0,0,response3disk,,4,4.287475586,-1.624237061,1,0,0,rectangle,4.287475586,-1.624237061,1,0,0,4.287475586,-1.624237061,1,0,0,0,38,38,131,1,,,,,,,,
,,,,,,,,,,,,,FF,,,,,,,,1.0644,,,,,,,,,,,,,,,,,,,,,,61035c6dabf4c24bbcec1b90,61036bdcb1bd52c528ebd7f8,2021-07-29_20h04.49.111,Simcolourproject_2stim_asymm_v5,2020.2.10,MacIntel,60,61025ae37ef11b136ea224fe,,,,,,,,,3868,-68.44976807,27.9211731,1,0,0,response7disk,,1,-11.5032959,0.269134521,1,0,0,rectangle,-11.5032959,0.269134521,1,0,0,-11.5032959,0.269134521,1,0,0,0,39,39,120,1,,,,,,,,
,,,,,,,,,,,,,FF,,,,,,,,1.4499,,,,,,,,,,,,,,,,,,,,,,61035c6dabf4c24bbcec1b90,61036bdcb1bd52c528ebd7f8,2021-07-29_20h04.49.111,Simcolourproject_2stim_asymm_v5,2020.2.10,MacIntel,60,61025ae37ef11b136ea224fe,,,,,,,,,4141,-76.35351563,-33.98876953,1,0,0,response5disk,,2,-19.43157959,-7.03225708,1,0,0,rectangle,-19.43157959,-7.03225708,1,0,0,-19.43157959,-7.03225708,1,0,0,0,40,40,119,1,,,,,,,,
,,,,,,,,,,,,,FF,,,,,,,,0.9823,,,,,,,,,,,,,,,,,,,,,,61035c6dabf4c24bbcec1b90,61036bdcb1bd52c528ebd7f8,2021-07-29_20h04.49.111,Simcolourproject_2stim_asymm_v5,2020.2.10,MacIntel,60,61025ae37ef11b136ea224fe,,,,,,,,,1668,57.90887451,89.16970825,1,0,0,response1disk,,7,4.144226074,-1.437164307,1,0,0,rectangle,-34.00415039,63.21081543,1,0,0,-14.75769043,7.048095703,1,0,0,0,41,41,3,1,,response7disk_3,TRUE,0,0,"[83,211,154,206,152,230,189,3,294,42,222,115,311,146,151,306,101,158,149,129]",2.369,rectangle
,,,,,,,,,,,,,FF,,,,,,,,0.8829,,,,,,,,,,,,,,,,,,,,,,61035c6dabf4c24bbcec1b90,61036bdcb1bd52c528ebd7f8,2021-07-29_20h04.49.111,Simcolourproject_2stim_asymm_v5,2020.2.10,MacIntel,60,61025ae37ef11b136ea224fe,,,,,,,,,2657,-32.64526367,-38.82727051,1,0,0,response5disk,,3,-12.91973877,-8.52166748,1,0,0,rectangle,-12.91973877,-8.52166748,1,0,0,-12.91973877,-8.52166748,1,0,0,0,42,42,124,1,,,,,,,,
,,,,,,,,,,,,,FF,,,,,,,,1.5804,,,,,,,,,,,,,,,,,,,,,,61035c6dabf4c24bbcec1b90,61036bdcb1bd52c528ebd7f8,2021-07-29_20h04.49.111,Simcolourproject_2stim_asymm_v5,2020.2.10,MacIntel,60,61025ae37ef11b136ea224fe,,,,,,,,,26,52.30114746,22.26541138,1,0,0,response1disk,,6,34.1472168,-2.112701416,1,0,0,rectangle,34.1472168,-2.112701416,1,0,0,34.1472168,-2.112701416,1,0,0,0,43,43,18,1,,,,,,,,
,,,,,,,,,,,,,FF,,,,,,,,0.6319,,,,,,,,,,,,,,,,,,,,,,61035c6dabf4c24bbcec1b90,61036bdcb1bd52c528ebd7f8,2021-07-29_20h04.49.111,Simcolourproject_2stim_asymm_v5,2020.2.10,MacIntel,60,61025ae37ef11b136ea224fe,,,,,,,,,4152,41.80187988,69.17251587,1,0,0,response1disk,,7,12.30688477,17.31860352,1,0,0,rectangle,12.30688477,17.31860352,1,0,0,12.30688477,17.31860352,1,0,0,0,44,44,0,1,,,,,,,,
,,,,,,,,,,,,,FF,,,,,,,,0.7453,,,,,,,,,,,,,,,,,,,,,,61035c6dabf4c24bbcec1b90,61036bdcb1bd52c528ebd7f8,2021-07-29_20h04.49.111,Simcolourproject_2stim_asymm_v5,2020.2.10,MacIntel,60,61025ae37ef11b136ea224fe,,,,,,,,,2949,-24.48907471,-41.12969971,1,0,0,response5disk,,3,-11.11956787,-17.57473755,1,0,0,rectangle,-11.11956787,-17.57473755,1,0,0,-11.11956787,-17.57473755,1,0,0,0,45,45,71,1,,,,,,,,
,,,,,,,,,,,,,FF,,,,,,,,0.6331,,,,,,,,,,,,,,,,,,,,,,61035c6dabf4c24bbcec1b90,61036bdcb1bd52c528ebd7f8,2021-07-29_20h04.49.111,Simcolourproject_2stim_asymm_v5,2020.2.10,MacIntel,60,61025ae37ef11b136ea224fe,,,,,,,,,849,72.49731445,45.69445801,1,0,0,response1disk,,6,27.36804199,6.588592529,1,0,0,rectangle,27.36804199,6.588592529,1,0,0,27.36804199,6.588592529,1,0,0,0,46,46,118,1,,,,,,,,
,,,,,,,,,,,,,FF,,,,,,,,0.8188,,,,,,,,,,,,,,,,,,,,,,61035c6dabf4c24bbcec1b90,61036bdcb1bd52c528ebd7f8,2021-07-29_20h04.49.111,Simcolourproject_2stim_asymm_v5,2020.2.10,MacIntel,60,61025ae37ef11b136ea224fe,,,,,,,,,2827,-27.19677734,-61.58856201,1,0,0,response5disk,,3,-8.126586914,-1.668426514,1,0,0,rectangle,-8.126586914,-1.668426514,1,0,0,-8.126586914,-1.668426514,1,0,0,0,47,47,7,1,,,,,,,,
,,,,,,,,,,,,,FF,,,,,,,,0.6513,,,,,,,,,,,,,,,,,,,,,,61035c6dabf4c24bbcec1b90,61036bdcb1bd52c528ebd7f8,2021-07-29_20h04.49.111,Simcolourproject_2stim_asymm_v5,2020.2.10,MacIntel,60,61025ae37ef11b136ea224fe,,,,,,,,,4369,-39.21850586,62.74911499,1,0,0,response7disk,,0,-14.79766846,5.921295166,1,0,0,rectangle,-14.79766846,5.921295166,1,0,0,-14.79766846,5.921295166,1,0,0,0,48,48,16,1,,,,,,,,
,,,,,,,,,,,,,FF,,,,,,,,1.1005,,,,,,,,,,,,,,,,,,,,,,61035c6dabf4c24bbcec1b90,61036bdcb1bd52c528ebd7f8,2021-07-29_20h04.49.111,Simcolourproject_2stim_asymm_v5,2020.2.10,MacIntel,60,61025ae37ef11b136ea224fe,,,,,,,,,1192,53.53094482,-46.82650757,1,0,0,response3disk,,5,5.063598633,4.039215088,1,0,0,rectangle,5.063598633,4.039215088,1,0,0,5.063598633,4.039215088,1,0,0,0,49,49,127,1,,,,,,,,
,,,,,,,,,,,,,FF,,,,,,,,0.8972,,,,,,,,,,,,,,,,,,,,,,61035c6dabf4c24bbcec1b90,61036bdcb1bd52c528ebd7f8,2021-07-29_20h04.49.111,Simcolourproject_2stim_asymm_v5,2020.2.10,MacIntel,60,61025ae37ef11b136ea224fe,,,,,,,,,1421,35.92407227,-69.50091553,1,0,0,response3disk,,4,22.45501709,-16.57919312,1,0,0,rectangle,22.45501709,-16.57919312,1,0,0,22.45501709,-16.57919312,1,0,0,0,50,50,132,1,,,,,,,,
,,,,,,,,,,,,,FF,,,,,,,,1.0663,,,,,,,,,,,,,,,,,,,,,,61035c6dabf4c24bbcec1b90,61036bdcb1bd52c528ebd7f8,2021-07-29_20h04.49.111,Simcolourproject_2stim_asymm_v5,2020.2.10,MacIntel,60,61025ae37ef11b136ea224fe,,,,,,,,,3057,-67.20245361,-60.53570557,1,0,0,response5disk,,2,-9.869689941,-10.77850342,1,0,0,rectangle,-9.869689941,-10.77850342,1,0,0,-9.869689941,-10.77850342,1,0,0,0,51,51,94,1,,,,,,,,
,,,,,,,,,,,,,FF,,,,,,,,1.4835,,,,,,,,,,,,,,,,,,,,,,61035c6dabf4c24bbcec1b90,61036bdcb1bd52c528ebd7f8,2021-07-29_20h04.49.111,Simcolourproject_2stim_asymm_v5,2020.2.10,MacIntel,60,61025ae37ef11b136ea224fe,,,,,,,,,899,-17.49395752,-68.95050049,1,0,0,response5disk,,3,-11.55108643,-17.79882813,1,0,0,rectangle,-11.55108643,-17.79882813,1,0,0,-11.55108643,-17.79882813,1,0,0,0,52,52,11,1,,,,,,,,
,,,,,,,,,,,,,FF,,,,,,,,1.296,,,,,,,,,,,,,,,,,,,,,,61035c6dabf4c24bbcec1b90,61036bdcb1bd52c528ebd7f8,2021-07-29_20h04.49.111,Simcolourproject_2stim_asymm_v5,2020.2.10,MacIntel,60,61025ae37ef11b136ea224fe,,,,,,,,,1166,25.94317627,-79.74102783,1,0,0,response3disk,,4,-0.120788574,-4.680969238,1,0,0,rectangle,-0.120788574,-4.680969238,1,0,0,-0.120788574,-4.680969238,1,0,0,0,53,53,98,1,,,,,,,,
,,,,,,,,,,,,,FF,,,,,,,,0.799,,,,,,,,,,,,,,,,,,,,,,61035c6dabf4c24bbcec1b90,61036bdcb1bd52c528ebd7f8,2021-07-29_20h04.49.111,Simcolourproject_2stim_asymm_v5,2020.2.10,MacIntel,60,61025ae37ef11b136ea224fe,,,,,,,,,2913,68.4753418,-44.19778442,1,0,0,response3disk,,5,18.38812256,-14.17834473,1,0,0,rectangle,18.38812256,-14.17834473,1,0,0,18.38812256,-14.17834473,1,0,0,0,54,54,105,1,,,,,,,,
,,,,,,,,,,,,,FF,,,,,,,,0.5705,,,,,,,,,,,,,,,,,,,,,,61035c6dabf4c24bbcec1b90,61036bdcb1bd52c528ebd7f8,2021-07-29_20h04.49.111,Simcolourproject_2stim_asymm_v5,2020.2.10,MacIntel,60,61025ae37ef11b136ea224fe,,,,,,,,,1983,65.16558838,-44.82373047,1,0,0,response3disk,,5,32.41424561,-17.64382935,1,0,0,rectangle,32.41424561,-17.64382935,1,0,0,32.41424561,-17.64382935,1,0,0,0,55,55,31,1,,,,,,,,
,,,,,,,,,,,,,FF,,,,,,,,0.685,,,,,,,,,,,,,,,,,,,,,,61035c6dabf4c24bbcec1b90,61036bdcb1bd52c528ebd7f8,2021-07-29_20h04.49.111,Simcolourproject_2stim_asymm_v5,2020.2.10,MacIntel,60,61025ae37ef11b136ea224fe,,,,,,,,,2549,-53.06768799,-77.85186768,1,0,0,response5disk,,3,-24.01092529,-14.95571899,1,0,0,rectangle,-24.01092529,-14.95571899,1,0,0,-24.01092529,-14.95571899,1,0,0,0,56,56,149,1,,,,,,,,
,,,,,,,,,,,,,FF,,,,,,,,0.6656,,,,,,,,,,,,,,,,,,,,,,61035c6dabf4c24bbcec1b90,61036bdcb1bd52c528ebd7f8,2021-07-29_20h04.49.111,Simcolourproject_2stim_asymm_v5,2020.2.10,MacIntel,60,61025ae37ef11b136ea224fe,,,,,,,,,1358,-26.74853516,-51.3583374,1,0,0,response5disk,,3,-19.55993652,-3.770996094,1,0,0,rectangle,-19.55993652,-3.770996094,1,0,0,-19.55993652,-3.770996094,1,0,0,0,57,57,154,1,,,,,,,,
,,,,,,,,,,,,,FF,,,,,,,,0.6175,,,,,,,,,,,,,,,,,,,,,,61035c6dabf4c24bbcec1b90,61036bdcb1bd52c528ebd7f8,2021-07-29_20h04.49.111,Simcolourproject_2stim_asymm_v5,2020.2.10,MacIntel,60,61025ae37ef11b136ea224fe,,,,,,,,,4259,-32.32489014,-66.56231689,1,0,0,response5disk,,3,-21.31292725,-14.05847168,1,0,0,rectangle,-21.31292725,-14.05847168,1,0,0,-21.31292725,-14.05847168,1,0,0,0,58,58,138,1,,,,,,,,
,,,,,,,,,,,,,FF,,,,,,,,0.5338,,,,,,,,,,,,,,,,,,,,,,61035c6dabf4c24bbcec1b90,61036bdcb1bd52c528ebd7f8,2021-07-29_20h04.49.111,Simcolourproject_2stim_asymm_v5,2020.2.10,MacIntel,60,61025ae37ef11b136ea224fe,,,,,,,,,728,51.7456665,-40.75756836,1,0,0,response3disk,,5,13.01782227,-11.2578125,1,0,0,rectangle,13.01782227,-11.2578125,1,0,0,13.01782227,-11.2578125,1,0,0,0,59,59,139,1,,,,,,,,
,,,,,,,,,,,,,FF,,,,,,,,0.6704,,,,,,,,,,,,,,,,,,,,,,61035c6dabf4c24bbcec1b90,61036bdcb1bd52c528ebd7f8,2021-07-29_20h04.49.111,Simcolourproject_2stim_asymm_v5,2020.2.10,MacIntel,60,61025ae37ef11b136ea224fe,,,,,,,,,2646,-48.15270996,-42.54510498,1,0,0,response5disk,,2,33.12512207,6.906524658,1,0,0,rectangle,33.12512207,6.906524658,1,0,0,33.12512207,6.906524658,1,0,0,0,60,60,79,1,,,,,,,,
,,,,,,,,,,,,,FF,,,,,,,,0.6193,,,,,,,,,,,,,,,,,,,,,,61035c6dabf4c24bbcec1b90,61036bdcb1bd52c528ebd7f8,2021-07-29_20h04.49.111,Simcolourproject_2stim_asymm_v5,2020.2.10,MacIntel,60,61025ae37ef11b136ea224fe,,,,,,,,,1984,58.35290527,-32.42721558,1,0,0,response3disk,,5,21.47949219,14.32489014,1,0,0,rectangle,21.47949219,14.32489014,1,0,0,21.47949219,14.32489014,1,0,0,0,61,61,136,1,,,,,,,,
,,,,,,,,,,,,,FF,,,,,,,,0.3686,,,,,,,,,,,,,,,,,,,,,,61035c6dabf4c24bbcec1b90,61036bdcb1bd52c528ebd7f8,2021-07-29_20h04.49.111,Simcolourproject_2stim_asymm_v5,2020.2.10,MacIntel,60,61025ae37ef11b136ea224fe,,,,,,,,,2854,77.28637695,-44.1756897,1,0,0,response3disk,,5,26.82617188,-1.61517334,1,0,0,rectangle,26.82617188,-1.61517334,1,0,0,26.82617188,-1.61517334,1,0,0,0,62,62,47,1,,,,,,,,
,,,,,,,,,,,,,FF,,,,,,,,0.7654,,,,,,,,,,,,,,,,,,,,,,61035c6dabf4c24bbcec1b90,61036bdcb1bd52c528ebd7f8,2021-07-29_20h04.49.111,Simcolourproject_2stim_asymm_v5,2020.2.10,MacIntel,60,61025ae37ef11b136ea224fe,,,,,,,,,2244,-56.07244873,-69.90844727,1,0,0,response5disk,,3,-27.46813965,-6.78817749,1,0,0,rectangle,-27.46813965,-6.78817749,1,0,0,-27.46813965,-6.78817749,1,0,0,0,63,63,148,1,,,,,,,,
,,,,,,,,,,,,,FF,,,,,,,,0.8169,,,,,,,,,,,,,,,,,,,,,,61035c6dabf4c24bbcec1b90,61036bdcb1bd52c528ebd7f8,2021-07-29_20h04.49.111,Simcolourproject_2stim_asymm_v5,2020.2.10,MacIntel,60,61025ae37ef11b136ea224fe,,,,,,,,,1515,76.265625,58.88708496,1,0,0,response1disk,,6,7.430969238,-5.836700439,1,0,0,rectangle,7.430969238,-5.836700439,1,0,0,7.430969238,-5.836700439,1,0,0,0,64,64,72,1,,,,,,,,
,,,,,,,,,,,,,FF,,,,,,,,0.9522,,,,,,,,,,,,,,,,,,,,,,61035c6dabf4c24bbcec1b90,61036bdcb1bd52c528ebd7f8,2021-07-29_20h04.49.111,Simcolourproject_2stim_asymm_v5,2020.2.10,MacIntel,60,61025ae37ef11b136ea224fe,,,,,,,,,1677,-34.93786621,78.82455444,1,0,0,response7disk,,0,-15.28973389,14.44821167,1,0,0,rectangle,-15.28973389,14.44821167,1,0,0,-15.28973389,14.44821167,1,0,0,0,65,65,90,1,,,,,,,,
,,,,,,,,,,,,,FF,,,,,,,,1.1829,,,,,,,,,,,,,,,,,,,,,,61035c6dabf4c24bbcec1b90,61036bdcb1bd52c528ebd7f8,2021-07-29_20h04.49.111,Simcolourproject_2stim_asymm_v5,2020.2.10,MacIntel,60,61025ae37ef11b136ea224fe,,,,,,,,,2906,48.20013428,-52.41958618,1,0,0,response3disk,,4,22.30560303,11.62460327,1,0,0,rectangle,22.30560303,11.62460327,1,0,0,22.30560303,11.62460327,1,0,0,0,66,66,23,1,,,,,,,,
,,,,,,,,,,,,,FF,,,,,,,,0.7505,,,,,,,,,,,,,,,,,,,,,,61035c6dabf4c24bbcec1b90,61036bdcb1bd52c528ebd7f8,2021-07-29_20h04.49.111,Simcolourproject_2stim_asymm_v5,2020.2.10,MacIntel,60,61025ae37ef11b136ea224fe,,,,,,,,,3560,-69.9397583,29.2852478,1,0,0,response7disk,,1,-9.489562988,0.720397949,1,0,0,rectangle,-9.489562988,0.720397949,1,0,0,-9.489562988,0.720397949,1,0,0,0,67,67,159,1,,,,,,,,
,,,,,,,,,,,,,FF,,,,,,,,1.2515,,,,,,,,,,,,,,,,,,,,,,61035c6dabf4c24bbcec1b90,61036bdcb1bd52c528ebd7f8,2021-07-29_20h04.49.111,Simcolourproject_2stim_asymm_v5,2020.2.10,MacIntel,60,61025ae37ef11b136ea224fe,,,,,,,,,816,68.36065674,-77.48590088,1,0,0,response3disk,,4,19.21252441,-9.714813232,1,0,0,rectangle,19.21252441,-9.714813232,1,0,0,19.21252441,-9.714813232,1,0,0,0,68,68,141,1,,,,,,,,
,,,,,,,,,,,,,FF,,,,,,,,0.9157,,,,,,,,,,,,,,,,,,,,,,61035c6dabf4c24bbcec1b90,61036bdcb1bd52c528ebd7f8,2021-07-29_20h04.49.111,Simcolourproject_2stim_asymm_v5,2020.2.10,MacIntel,60,61025ae37ef11b136ea224fe,,,,,,,,,3524,-44.46569824,-58.39926147,1,0,0,response5disk,,3,-18.73480225,6.990600586,1,0,0,rectangle,-18.73480225,6.990600586,1,0,0,-18.73480225,6.990600586,1,0,0,0,69,69,115,1,,,,,,,,
,,,,,,,,,,,,,FF,,,,,,,,0.949,,,,,,,,,,,,,,,,,,,,,,61035c6dabf4c24bbcec1b90,61036bdcb1bd52c528ebd7f8,2021-07-29_20h04.49.111,Simcolourproject_2stim_asymm_v5,2020.2.10,MacIntel,60,61025ae37ef11b136ea224fe,,,,,,,,,292,32.05883789,-62.24658203,1,0,0,response3disk,,4,14.72674561,8.249328613,1,0,0,rectangle,14.72674561,8.249328613,1,0,0,14.72674561,8.249328613,1,0,0,0,70,70,28,1,,,,,,,,
,,,,,,,,,,,,,FF,,,,,,,,0.6006,,,,,,,,,,,,,,,,,,,,,,61035c6dabf4c24bbcec1b90,61036bdcb1bd52c528ebd7f8,2021-07-29_20h04.49.111,Simcolourproject_2stim_asymm_v5,2020.2.10,MacIntel,60,61025ae37ef11b136ea224fe,,,,,,,,,954,31.3348999,-46.59317017,1,0,0,response3disk,,4,21.71929932,7.430450439,1,0,0,rectangle,21.71929932,7.430450439,1,0,0,21.71929932,7.430450439,1,0,0,0,71,71,36,1,,,,,,,,
,,,,,,,,,,,,,FF,,,,,,,,0.4665,,,,,,,,,,,,,,,,,,,,,,61035c6dabf4c24bbcec1b90,61036bdcb1bd52c528ebd7f8,2021-07-29_20h04.49.111,Simcolourproject_2stim_asymm_v5,2020.2.10,MacIntel,60,61025ae37ef11b136ea224fe,,,,,,,,,586,26.42712402,-73.81036377,1,0,0,response3disk,,4,4.224243164,8.095672607,1,0,0,rectangle,4.224243164,8.095672607,1,0,0,4.224243164,8.095672607,1,0,0,0,72,72,99,1,,,,,,,,
,,,,,,,,,,,,,FF,,,,,,,,0.9531,,,,,,,,,,,,,,,,,,,,,,61035c6dabf4c24bbcec1b90,61036bdcb1bd52c528ebd7f8,2021-07-29_20h04.49.111,Simcolourproject_2stim_asymm_v5,2020.2.10,MacIntel,60,61025ae37ef11b136ea224fe,,,,,,,,,3986,-15.57012939,-72.85089111,1,0,0,response5disk,,3,-14.06555176,-2.627838135,1,0,0,rectangle,-14.06555176,-2.627838135,1,0,0,-14.06555176,-2.627838135,1,0,0,0,73,73,4,1,,,,,,,,
,,,,,,,,,,,,,FF,,,,,,,,0.7332,,,,,,,,,,,,,,,,,,,,,,61035c6dabf4c24bbcec1b90,61036bdcb1bd52c528ebd7f8,2021-07-29_20h04.49.111,Simcolourproject_2stim_asymm_v5,2020.2.10,MacIntel,60,61025ae37ef11b136ea224fe,,,,,,,,,4110,65.86761475,27.18490601,1,0,0,response1disk,,6,10.81726074,5.784240723,1,0,0,rectangle,10.81726074,5.784240723,1,0,0,10.81726074,5.784240723,1,0,0,0,74,74,146,1,,,,,,,,
,,,,,,,,,,,,,FF,,,,,,,,0.8179,,,,,,,,,,,,,,,,,,,,,,61035c6dabf4c24bbcec1b90,61036bdcb1bd52c528ebd7f8,2021-07-29_20h04.49.111,Simcolourproject_2stim_asymm_v5,2020.2.10,MacIntel,60,61025ae37ef11b136ea224fe,,,,,,,,,2308,48.18084717,-82.32092285,1,0,0,response3disk,,4,35.18585205,-0.828552246,1,0,0,rectangle,35.18585205,-0.828552246,1,0,0,35.18585205,-0.828552246,1,0,0,0,75,75,110,1,,,,,,,,
,,,,,,,,,,,,,FF,,,,,,,,0.6675,,,,,,,,,,,,,,,,,,,,,,61035c6dabf4c24bbcec1b90,61036bdcb1bd52c528ebd7f8,2021-07-29_20h04.49.111,Simcolourproject_2stim_asymm_v5,2020.2.10,MacIntel,60,61025ae37ef11b136ea224fe,,,,,,,,,1963,-29.58380127,74.01290894,1,0,0,response7disk,,0,-19.05163574,14.13250732,1,0,0,rectangle,-19.05163574,14.13250732,1,0,0,-19.05163574,14.13250732,1,0,0,0,76,76,6,1,,,,,,,,
,,,,,,,,,,,,,FF,,,,,,,,0.9004,,,,,,,,,,,,,,,,,,,,,,61035c6dabf4c24bbcec1b90,61036bdcb1bd52c528ebd7f8,2021-07-29_20h04.49.111,Simcolourproject_2stim_asymm_v5,2020.2.10,MacIntel,60,61025ae37ef11b136ea224fe,,,,,,,,,4202,-71.78149414,24.05743408,1,0,0,response7disk,,1,-14.23394775,9.994781494,1,0,0,rectangle,-14.23394775,9.994781494,1,0,0,-14.23394775,9.994781494,1,0,0,0,77,77,125,1,,,,,,,,
,,,,,,,,,,,,,FF,,,,,,,,0.5842,,,,,,,,,,,,,,,,,,,,,,61035c6dabf4c24bbcec1b90,61036bdcb1bd52c528ebd7f8,2021-07-29_20h04.49.111,Simcolourproject_2stim_asymm_v5,2020.2.10,MacIntel,60,61025ae37ef11b136ea224fe,,,,,,,,,1871,55.34564209,31.7612915,1,0,0,response1disk,,6,15.91894531,7.890533447,1,0,0,rectangle,15.91894531,7.890533447,1,0,0,15.91894531,7.890533447,1,0,0,0,78,78,128,1,,,,,,,,
,,,,,,,,,,,,,FF,,,,,,,,0.9161,,,,,,,,,,,,,,,,,,,,,,61035c6dabf4c24bbcec1b90,61036bdcb1bd52c528ebd7f8,2021-07-29_20h04.49.111,Simcolourproject_2stim_asymm_v5,2020.2.10,MacIntel,60,61025ae37ef11b136ea224fe,,,,,,,,,3457,68.28295898,-84.95092773,1,0,0,response3disk,,4,34.52600098,2.175476074,1,0,0,rectangle,34.52600098,2.175476074,1,0,0,34.52600098,2.175476074,1,0,0,0,79,79,15,1,,,,,,,,
,,,,,,,,,,,,,FF,,,,,,,,0.8652,,,,,,,,,,,,,,,,,,,,,,61035c6dabf4c24bbcec1b90,61036bdcb1bd52c528ebd7f8,2021-07-29_20h04.49.111,Simcolourproject_2stim_asymm_v5,2020.2.10,MacIntel,60,61025ae37ef11b136ea224fe,,,,,,,,,1343,-38.67022705,-97.12976074,1,0,0,response5disk,,3,-13.6852417,-5.965026855,1,0,0,rectangle,-13.6852417,-5.965026855,1,0,0,-13.6852417,-5.965026855,1,0,0,0,80,80,64,1,,,,,,,,
,,,,,,,,,,,,,FF,,,,,,,,0.6166,,,,,,,,,,,,,,,,,,,,,,61035c6dabf4c24bbcec1b90,61036bdcb1bd52c528ebd7f8,2021-07-29_20h04.49.111,Simcolourproject_2stim_asymm_v5,2020.2.10,MacIntel,60,61025ae37ef11b136ea224fe,,,,,,,,,1143,67.42608643,-49.34298706,1,0,0,response3disk,,5,25.28875732,-11.10897827,1,0,0,rectangle,25.28875732,-11.10897827,1,0,0,25.28875732,-11.10897827,1,0,0,0,81,81,42,1,,,,,,,,
,,,,,,,,,,,,,FF,,,,,,,,0.5676,,,,,,,,,,,,,,,,,,,,,,61035c6dabf4c24bbcec1b90,61036bdcb1bd52c528ebd7f8,2021-07-29_20h04.49.111,Simcolourproject_2stim_asymm_v5,2020.2.10,MacIntel,60,61025ae37ef11b136ea224fe,,,,,,,,,2604,46.50842285,-62.78552246,1,0,0,response3disk,,4,-19.53704834,-15.31658936,1,0,0,rectangle,-72.8503418,26.89300537,1,0,0,-26.41571045,-5.266265869,1,0,0,0,82,82,68,1,,response7disk_3,TRUE,1,1,"[83,211,154,206,152,230,189,3,294,42,222,115,311,146,151,306,101,158,149,129]",1.5675,rectangle
,,,,,,,,,,,,,FF,,,,,,,,0.9834,,,,,,,,,,,,,,,,,,,,,,61035c6dabf4c24bbcec1b90,61036bdcb1bd52c528ebd7f8,2021-07-29_20h04.49.111,Simcolourproject_2stim_asymm_v5,2020.2.10,MacIntel,60,61025ae37ef11b136ea224fe,,,,,,,,,1840,-53.43811035,-64.92193604,1,0,0,response5disk,,3,-26.09216309,-2.635467529,1,0,0,rectangle,-26.09216309,-2.635467529,1,0,0,-26.09216309,-2.635467529,1,0,0,0,83,83,82,1,,,,,,,,
,,,,,,,,,,,,,FF,,,,,,,,0.5529,,,,,,,,,,,,,,,,,,,,,,61035c6dabf4c24bbcec1b90,61036bdcb1bd52c528ebd7f8,2021-07-29_20h04.49.111,Simcolourproject_2stim_asymm_v5,2020.2.10,MacIntel,60,61025ae37ef11b136ea224fe,,,,,,,,,2835,-26.43347168,-22.91070557,1,0,0,response5disk,,2,-17.24450684,-10.8125,1,0,0,rectangle,-17.24450684,-10.8125,1,0,0,-17.24450684,-10.8125,1,0,0,0,84,84,85,1,,,,,,,,
,,,,,,,,,,,,,FF,,,,,,,,0.3334,,,,,,,,,,,,,,,,,,,,,,61035c6dabf4c24bbcec1b90,61036bdcb1bd52c528ebd7f8,2021-07-29_20h04.49.111,Simcolourproject_2stim_asymm_v5,2020.2.10,MacIntel,60,61025ae37ef11b136ea224fe,,,,,,,,,410,-25.09112549,-38.72238159,1,0,0,response5disk,,3,-12.67047119,-13.23492432,1,0,0,rectangle,-12.67047119,-13.23492432,1,0,0,-12.67047119,-13.23492432,1,0,0,0,85,85,78,1,,,,,,,,
,,,,,,,,,,,,,FF,,,,,,,,0.3313,,,,,,,,,,,,,,,,,,,,,,61035c6dabf4c24bbcec1b90,61036bdcb1bd52c528ebd7f8,2021-07-29_20h04.49.111,Simcolourproject_2stim_asymm_v5,2020.2.10,MacIntel,60,61025ae37ef11b136ea224fe,,,,,,,,,2639,83.09240723,-44.50143433,1,0,0,response3disk,,5,35.92114258,-17.73171997,1,0,0,rectangle,35.92114258,-17.73171997,1,0,0,35.92114258,-17.73171997,1,0,0,0,86,86,44,1,,,,,,,,
,,,,,,,,,,,,,FF,,,,,,,,0.3832,,,,,,,,,,,,,,,,,,,,,,61035c6dabf4c24bbcec1b90,61036bdcb1bd52c528ebd7f8,2021-07-29_20h04.49.111,Simcolourproject_2stim_asymm_v5,2020.2.10,MacIntel,60,61025ae37ef11b136ea224fe,,,,,,,,,3295,46.61328125,18.8203125,1,0,0,response1disk,,6,-7.236999512,-13.02633667,1,0,0,rectangle,-7.236999512,-13.02633667,1,0,0,-7.236999512,-13.02633667,1,0,0,0,87,87,73,1,,,,,,,,
,,,,,,,,,,,,,FF,,,,,,,,0.8677,,,,,,,,,,,,,,,,,,,,,,61035c6dabf4c24bbcec1b90,61036bdcb1bd52c528ebd7f8,2021-07-29_20h04.49.111,Simcolourproject_2stim_asymm_v5,2020.2.10,MacIntel,60,61025ae37ef11b136ea224fe,,,,,,,,,1743,-50.22418213,93.08010864,1,0,0,response7disk,,0,-18.7076416,16.30310059,1,0,0,rectangle,-18.7076416,16.30310059,1,0,0,-18.7076416,16.30310059,1,0,0,0,88,88,89,1,,,,,,,,
,,,,,,,,,,,,,FF,,,,,,,,0.5671,,,,,,,,,,,,,,,,,,,,,,61035c6dabf4c24bbcec1b90,61036bdcb1bd52c528ebd7f8,2021-07-29_20h04.49.111,Simcolourproject_2stim_asymm_v5,2020.2.10,MacIntel,60,61025ae37ef11b136ea224fe,,,,,,,,,230,33.66290283,-43.88394165,1,0,0,response3disk,,4,22.80273438,-3.853393555,1,0,0,rectangle,22.80273438,-3.853393555,1,0,0,22.80273438,-3.853393555,1,0,0,0,89,89,77,1,,,,,,,,
,,,,,,,,,,,,,FF,,,,,,,,0.9837,,,,,,,,,,,,,,,,,,,,,,61035c6dabf4c24bbcec1b90,61036bdcb1bd52c528ebd7f8,2021-07-29_20h04.49.111,Simcolourproject_2stim_asymm_v5,2020.2.10,MacIntel,60,61025ae37ef11b136ea224fe,,,,,,,,,1282,28.45892334,-59.74124146,1,0,0,response3disk,,4,21.99212646,3.5753479,1,0,0,rectangle,21.99212646,3.5753479,1,0,0,21.99212646,3.5753479,1,0,0,0,90,90,81,1,,,,,,,,
,,,,,,,,,,,,,FF,,,,,,,,6.1492,,,,,,,,,,,,,,,,,,,,,,61035c6dabf4c24bbcec1b90,61036bdcb1bd52c528ebd7f8,2021-07-29_20h04.49.111,Simcolourproject_2stim_asymm_v5,2020.2.10,MacIntel,60,61025ae37ef11b136ea224fe,,,,,,,,,4106,-23.64746094,-94.57806396,1,0,0,response5disk,,3,-21.53710938,-4.701507568,1,0,0,rectangle,-21.53710938,-4.701507568,1,0,0,-21.53710938,-4.701507568,1,0,0,0,91,91,101,1,,,,,,,,
,,,,,,,,,,,,,FF,,,,,,,,0.8504,,,,,,,,,,,,,,,,,,,,,,61035c6dabf4c24bbcec1b90,61036bdcb1bd52c528ebd7f8,2021-07-29_20h04.49.111,Simcolourproject_2stim_asymm_v5,2020.2.10,MacIntel,60,61025ae37ef11b136ea224fe,,,,,,,,,3854,20.980896,-66.98510742,1,0,0,response3disk,,4,-3.100585938,-5.956726074,1,0,0,rectangle,-3.100585938,-5.956726074,1,0,0,-3.100585938,-5.956726074,1,0,0,0,92,92,84,1,,,,,,,,
,,,,,,,,,,,,,FF,,,,,,,,0.8502,,,,,,,,,,,,,,,,,,,,,,61035c6dabf4c24bbcec1b90,61036bdcb1bd52c528ebd7f8,2021-07-29_20h04.49.111,Simcolourproject_2stim_asymm_v5,2020.2.10,MacIntel,60,61025ae37ef11b136ea224fe,,,,,,,,,2698,94.21014404,59.64797974,1,0,0,response1disk,,6,8.626464844,5.175964355,1,0,0,rectangle,8.626464844,5.175964355,1,0,0,8.626464844,5.175964355,1,0,0,0,93,93,66,1,,,,,,,,
,,,,,,,,,,,,,FF,,,,,,,,0.766,,,,,,,,,,,,,,,,,,,,,,61035c6dabf4c24bbcec1b90,61036bdcb1bd52c528ebd7f8,2021-07-29_20h04.49.111,Simcolourproject_2stim_asymm_v5,2020.2.10,MacIntel,60,61025ae37ef11b136ea224fe,,,,,,,,,3824,-41.16900635,-32.82315063,1,0,0,response5disk,,2,-8.169311523,-9.92401123,1,0,0,rectangle,-8.169311523,-9.92401123,1,0,0,-8.169311523,-9.92401123,1,0,0,0,94,94,135,1,,,,,,,,
,,,,,,,,,,,,,FF,,,,,,,,1.6,,,,,,,,,,,,,,,,,,,,,,61035c6dabf4c24bbcec1b90,61036bdcb1bd52c528ebd7f8,2021-07-29_20h04.49.111,Simcolourproject_2stim_asymm_v5,2020.2.10,MacIntel,60,61025ae37ef11b136ea224fe,,,,,,,,,4276,21.3112793,-27.49523926,1,0,0,response3disk,,4,9.18939209,7.69720459,1,0,0,rectangle,9.18939209,7.69720459,1,0,0,9.18939209,7.69720459,1,0,0,0,95,95,10,1,,,,,,,,
,,,,,,,,,,,,,FF,,,,,,,,0.6672,,,,,,,,,,,,,,,,,,,,,,61035c6dabf4c24bbcec1b90,61036bdcb1bd52c528ebd7f8,2021-07-29_20h04.49.111,Simcolourproject_2stim_asymm_v5,2020.2.10,MacIntel,60,61025ae37ef11b136ea224fe,,,,,,,,,2585,44.2197876,-62.91912842,1,0,0,response3disk,,4,20.18811035,-12.23913574,1,0,0,rectangle,20.18811035,-12.23913574,1,0,0,20.18811035,-12.23913574,1,0,0,0,96,96,25,1,,,,,,,,
,,,,,,,,,,,,,FF,,,,,,,,0.5158,,,,,,,,,,,,,,,,,,,,,,61035c6dabf4c24bbcec1b90,61036bdcb1bd52c528ebd7f8,2021-07-29_20h04.49.111,Simcolourproject_2stim_asymm_v5,2020.2.10,MacIntel,60,61025ae37ef11b136ea224fe,,,,,,,,,397,16.1027832,-15.03256226,1,0,0,response3disk,,5,16.1027832,-15.03256226,1,0,0,rectangle,16.1027832,-15.03256226,1,0,0,16.1027832,-15.03256226,1,0,0,0,97,97,8,1,,,,,,,,
,,,,,,,,,,,,,FF,,,,,,,,0.9674,,,,,,,,,,,,,,,,,,,,,,61035c6dabf4c24bbcec1b90,61036bdcb1bd52c528ebd7f8,2021-07-29_20h04.49.111,Simcolourproject_2stim_asymm_v5,2020.2.10,MacIntel,60,61025ae37ef11b136ea224fe,,,,,,,,,2181,-33.68182373,-31.26446533,1,0,0,response5disk,,2,-12.66766357,9.920318604,1,0,0,rectangle,-12.66766357,9.920318604,1,0,0,-12.66766357,9.920318604,1,0,0,0,98,98,88,1,,,,,,,,
,,,,,,,,,,,,,FF,,,,,,,,1.9163,,,,,,,,,,,,,,,,,,,,,,61035c6dabf4c24bbcec1b90,61036bdcb1bd52c528ebd7f8,2021-07-29_20h04.49.111,Simcolourproject_2stim_asymm_v5,2020.2.10,MacIntel,60,61025ae37ef11b136ea224fe,,,,,,,,,3587,34.49829102,-66.54656982,1,0,0,response3disk,,4,5.862548828,-13.91717529,1,0,0,rectangle,5.862548828,-13.91717529,1,0,0,5.862548828,-13.91717529,1,0,0,0,99,99,57,1,,,,,,,,
,,,,,,,,,,,,,FF,,,,,,,,27.1655,,,,,,,,,,,,,,,,,,,,,,61035c6dabf4c24bbcec1b90,61036bdcb1bd52c528ebd7f8,2021-07-29_20h04.49.111,Simcolourproject_2stim_asymm_v5,2020.2.10,MacIntel,60,61025ae37ef11b136ea224fe,,,,,,,,,2958,-46.99023438,-40.13735962,1,0,0,response5disk,,2,-12.65478516,13.6105957,1,0,0,rectangle,-80.27270508,-30.24493408,1,0,0,6.961547852,-4.916564941,1,0,0,0,100,100,130,1,,response5disk_3,TRUE,2,2,"[83,211,154,206,152,230,189,3,294,42,222,115,311,146,151,306,101,158,149,129]",2.0344,rectangle
,,,,,,,,,,,,,FF,,,,,,,,1.0125,,,,,,,,,,,,,,,,,,,,,,61035c6dabf4c24bbcec1b90,61036bdcb1bd52c528ebd7f8,2021-07-29_20h04.49.111,Simcolourproject_2stim_asymm_v5,2020.2.10,MacIntel,60,61025ae37ef11b136ea224fe,,,,,,,,,1707,77.25457764,-61.04672241,1,0,0,response3disk,,5,19.46618652,-1.205322266,1,0,0,rectangle,19.46618652,-1.205322266,1,0,0,19.46618652,-1.205322266,1,0,0,0,101,101,143,1,,,,,,,,
,,,,,,,,,,,,,FF,,,,,,,,0.7666,,,,,,,,,,,,,,,,,,,,,,61035c6dabf4c24bbcec1b90,61036bdcb1bd52c528ebd7f8,2021-07-29_20h04.49.111,Simcolourproject_2stim_asymm_v5,2020.2.10,MacIntel,60,61025ae37ef11b136ea224fe,,,,,,,,,4239,-75.75939941,46.90475464,1,0,0,response7disk,,1,-3.862854004,11.1725769,1,0,0,rectangle,-3.862854004,11.1725769,1,0,0,-3.862854004,11.1725769,1,0,0,0,102,102,61,1,,,,,,,,
,,,,,,,,,,,,,FF,,,,,,,,0.4998,,,,,,,,,,,,,,,,,,,,,,61035c6dabf4c24bbcec1b90,61036bdcb1bd52c528ebd7f8,2021-07-29_20h04.49.111,Simcolourproject_2stim_asymm_v5,2020.2.10,MacIntel,60,61025ae37ef11b136ea224fe,,,,,,,,,2117,64.95465088,24.79986572,1,0,0,response1disk,,6,20.56634521,13.83129883,1,0,0,rectangle,20.56634521,13.83129883,1,0,0,20.56634521,13.83129883,1,0,0,0,103,103,17,1,,,,,,,,
,,,,,,,,,,,,,FF,,,,,,,,0.6962,,,,,,,,,,,,,,,,,,,,,,61035c6dabf4c24bbcec1b90,61036bdcb1bd52c528ebd7f8,2021-07-29_20h04.49.111,Simcolourproject_2stim_asymm_v5,2020.2.10,MacIntel,60,61025ae37ef11b136ea224fe,,,,,,,,,2953,-22.13543701,-37.89810181,1,0,0,response5disk,,3,-22.13543701,-4.763397217,1,0,0,rectangle,-22.13543701,-4.763397217,1,0,0,-22.13543701,-4.763397217,1,0,0,0,104,104,41,1,,,,,,,,
,,,,,,,,,,,,,FF,,,,,,,,0.5158,,,,,,,,,,,,,,,,,,,,,,61035c6dabf4c24bbcec1b90,61036bdcb1bd52c528ebd7f8,2021-07-29_20h04.49.111,Simcolourproject_2stim_asymm_v5,2020.2.10,MacIntel,60,61025ae37ef11b136ea224fe,,,,,,,,,3337,-29.45703125,-36.9666748,1,0,0,response5disk,,3,-29.45703125,-3.476623535,1,0,0,rectangle,-29.45703125,-3.476623535,1,0,0,-29.45703125,-3.476623535,1,0,0,0,105,105,12,1,,,,,,,,
,,,,,,,,,,,,,FF,,,,,,,,1.0516,,,,,,,,,,,,,,,,,,,,,,61035c6dabf4c24bbcec1b90,61036bdcb1bd52c528ebd7f8,2021-07-29_20h04.49.111,Simcolourproject_2stim_asymm_v5,2020.2.10,MacIntel,60,61025ae37ef11b136ea224fe,,,,,,,,,4217,83.296875,57.03088379,1,0,0,response1disk,,6,31.00830078,9.151916504,1,0,0,rectangle,31.00830078,9.151916504,1,0,0,31.00830078,9.151916504,1,0,0,0,106,106,26,1,,,,,,,,
,,,,,,,,,,,,,FF,,,,,,,,0.6101,,,,,,,,,,,,,,,,,,,,,,61035c6dabf4c24bbcec1b90,61036bdcb1bd52c528ebd7f8,2021-07-29_20h04.49.111,Simcolourproject_2stim_asymm_v5,2020.2.10,MacIntel,60,61025ae37ef11b136ea224fe,,,,,,,,,1069,40.28161621,-89.85638428,1,0,0,response3disk,,4,24.65124512,-12.91326904,1,0,0,rectangle,24.65124512,-12.91326904,1,0,0,24.65124512,-12.91326904,1,0,0,0,107,107,20,1,,,,,,,,
,,,,,,,,,,,,,FF,,,,,,,,0.651,,,,,,,,,,,,,,,,,,,,,,61035c6dabf4c24bbcec1b90,61036bdcb1bd52c528ebd7f8,2021-07-29_20h04.49.111,Simcolourproject_2stim_asymm_v5,2020.2.10,MacIntel,60,61025ae37ef11b136ea224fe,,,,,,,,,1320,40.47943115,-57.49136353,1,0,0,response3disk,,4,-22.93200684,1.733734131,1,0,0,rectangle,-22.93200684,1.733734131,1,0,0,-22.93200684,1.733734131,1,0,0,0,108,108,83,1,,,,,,,,
,,,,,,,,,,,,,FF,,,,,,,,0.3975,,,,,,,,,,,,,,,,,,,,,,61035c6dabf4c24bbcec1b90,61036bdcb1bd52c528ebd7f8,2021-07-29_20h04.49.111,Simcolourproject_2stim_asymm_v5,2020.2.10,MacIntel,60,61025ae37ef11b136ea224fe,,,,,,,,,2918,-42.87738037,-56.95303345,1,0,0,response5disk,,3,28.70471191,-14.08108521,1,0,0,rectangle,28.70471191,-14.08108521,1,0,0,28.70471191,-14.08108521,1,0,0,0,109,109,87,1,,,,,,,,
,,,,,,,,,,,,,FF,,,,,,,,0.4638,,,,,,,,,,,,,,,,,,,,,,61035c6dabf4c24bbcec1b90,61036bdcb1bd52c528ebd7f8,2021-07-29_20h04.49.111,Simcolourproject_2stim_asymm_v5,2020.2.10,MacIntel,60,61025ae37ef11b136ea224fe,,,,,,,,,3886,60.72528076,-43.34292603,1,0,0,response3disk,,5,20.68414307,-0.277801514,1,0,0,rectangle,20.68414307,-0.277801514,1,0,0,20.68414307,-0.277801514,1,0,0,0,110,110,22,1,,,,,,,,
,,,,,,,,,,,,,FF,,,,,,,,0.6131,,,,,,,,,,,,,,,,,,,,,,61035c6dabf4c24bbcec1b90,61036bdcb1bd52c528ebd7f8,2021-07-29_20h04.49.111,Simcolourproject_2stim_asymm_v5,2020.2.10,MacIntel,60,61025ae37ef11b136ea224fe,,,,,,,,,741,-46.58099365,-60.67803955,1,0,0,response5disk,,3,-33.75976563,-6.148925781,1,0,0,rectangle,-33.75976563,-6.148925781,1,0,0,-33.75976563,-6.148925781,1,0,0,0,111,111,43,1,,,,,,,,
,,,,,,,,,,,,,FF,,,,,,,,0.7507,,,,,,,,,,,,,,,,,,,,,,61035c6dabf4c24bbcec1b90,61036bdcb1bd52c528ebd7f8,2021-07-29_20h04.49.111,Simcolourproject_2stim_asymm_v5,2020.2.10,MacIntel,60,61025ae37ef11b136ea224fe,,,,,,,,,3738,62.93621826,-72.65966797,1,0,0,response3disk,,4,29.86047363,-11.81976318,1,0,0,rectangle,29.86047363,-11.81976318,1,0,0,29.86047363,-11.81976318,1,0,0,0,112,112,70,1,,,,,,,,
,,,,,,,,,,,,,FF,,,,,,,,0.6808,,,,,,,,,,,,,,,,,,,,,,61035c6dabf4c24bbcec1b90,61036bdcb1bd52c528ebd7f8,2021-07-29_20h04.49.111,Simcolourproject_2stim_asymm_v5,2020.2.10,MacIntel,60,61025ae37ef11b136ea224fe,,,,,,,,,1199,-39.44677734,-76.63122559,1,0,0,response5disk,,3,-32.03631592,-17.43847656,1,0,0,rectangle,-32.03631592,-17.43847656,1,0,0,-32.03631592,-17.43847656,1,0,0,0,113,113,69,1,,,,,,,,
,,,,,,,,,,,,,FF,,,,,,,,0.6503,,,,,,,,,,,,,,,,,,,,,,61035c6dabf4c24bbcec1b90,61036bdcb1bd52c528ebd7f8,2021-07-29_20h04.49.111,Simcolourproject_2stim_asymm_v5,2020.2.10,MacIntel,60,61025ae37ef11b136ea224fe,,,,,,,,,997,54.77807617,-88.54882813,1,0,0,response3disk,,4,26.07250977,-9.267150879,1,0,0,rectangle,-60.328125,38.38973999,1,0,0,-12.8762207,1.056793213,1,0,0,0,114,114,152,1,,response7disk_3,TRUE,1,1,"[83,211,154,206,152,230,189,3,294,42,222,115,311,146,151,306,101,158,149,129]",1.6495,rectangle
,,,,,,,,,,,,,FF,,,,,,,,0.9688,,,,,,,,,,,,,,,,,,,,,,61035c6dabf4c24bbcec1b90,61036bdcb1bd52c528ebd7f8,2021-07-29_20h04.49.111,Simcolourproject_2stim_asymm_v5,2020.2.10,MacIntel,60,61025ae37ef11b136ea224fe,,,,,,,,,621,51.0289917,-68.12695313,1,0,0,response3disk,,4,20.89782715,-7.787445068,1,0,0,rectangle,20.89782715,-7.787445068,1,0,0,20.89782715,-7.787445068,1,0,0,0,115,115,21,1,,,,,,,,
,,,,,,,,,,,,,FF,,,,,,,,0.633,,,,,,,,,,,,,,,,,,,,,,61035c6dabf4c24bbcec1b90,61036bdcb1bd52c528ebd7f8,2021-07-29_20h04.49.111,Simcolourproject_2stim_asymm_v5,2020.2.10,MacIntel,60,61025ae37ef11b136ea224fe,,,,,,,,,3112,-27.91119385,-87.29669189,1,0,0,response5disk,,3,-11.98602295,-12.74282837,1,0,0,rectangle,-11.98602295,-12.74282837,1,0,0,-11.98602295,-12.74282837,1,0,0,0,116,116,27,1,,,,,,,,
,,,,,,,,,,,,,FF,,,,,,,,0.8842,,,,,,,,,,,,,,,,,,,,,,61035c6dabf4c24bbcec1b90,61036bdcb1bd52c528ebd7f8,2021-07-29_20h04.49.111,Simcolourproject_2stim_asymm_v5,2020.2.10,MacIntel,60,61025ae37ef11b136ea224fe,,,,,,,,,3307,16.07556152,-65.94238281,1,0,0,response3disk,,4,-0.918762207,-11.69290161,1,0,0,rectangle,-0.918762207,-11.69290161,1,0,0,-0.918762207,-11.69290161,1,0,0,0,117,117,13,1,,,,,,,,
,,,,,,,,,,,,,FF,,,,,,,,0.5459,,,,,,,,,,,,,,,,,,,,,,61035c6dabf4c24bbcec1b90,61036bdcb1bd52c528ebd7f8,2021-07-29_20h04.49.111,Simcolourproject_2stim_asymm_v5,2020.2.10,MacIntel,60,61025ae37ef11b136ea224fe,,,,,,,,,2521,25.27886963,-57.25140381,1,0,0,response3disk,,4,-3.037414551,13.30532837,1,0,0,rectangle,-3.037414551,13.30532837,1,0,0,-3.037414551,13.30532837,1,0,0,0,118,118,62,1,,,,,,,,
,,,,,,,,,,,,,FF,,,,,,,,0.4333,,,,,,,,,,,,,,,,,,,,,,61035c6dabf4c24bbcec1b90,61036bdcb1bd52c528ebd7f8,2021-07-29_20h04.49.111,Simcolourproject_2stim_asymm_v5,2020.2.10,MacIntel,60,61025ae37ef11b136ea224fe,,,,,,,,,4076,55.5526123,-75.90625,1,0,0,response3disk,,4,21.4597168,11.1708374,1,0,0,rectangle,21.4597168,11.1708374,1,0,0,21.4597168,11.1708374,1,0,0,0,119,119,53,1,,,,,,,,
,,,,,,,,,,,,,FF,,,,,,,,0.1492,,,,,,,,,,,,,,,,,,,,,,61035c6dabf4c24bbcec1b90,61036bdcb1bd52c528ebd7f8,2021-07-29_20h04.49.111,Simcolourproject_2stim_asymm_v5,2020.2.10,MacIntel,60,61025ae37ef11b136ea224fe,,,,,,,,,779,25.67816162,-79.71899414,1,0,0,response3disk,,4,-3.769714355,13.57232666,1,0,0,rectangle,-3.769714355,13.57232666,1,0,0,-3.769714355,13.57232666,1,0,0,0,120,120,134,1,,,,,,,,
,,,,,,,,,,,,,FF,,,,,,,,0.3684,,,,,,,,,,,,,,,,,,,,,,61035c6dabf4c24bbcec1b90,61036bdcb1bd52c528ebd7f8,2021-07-29_20h04.49.111,Simcolourproject_2stim_asymm_v5,2020.2.10,MacIntel,60,61025ae37ef11b136ea224fe,,,,,,,,,1138,18.96630859,-70.54772949,1,0,0,response3disk,,4,-25.03613281,-0.02444458,1,0,0,rectangle,-25.03613281,-0.02444458,1,0,0,-25.03613281,-0.02444458,1,0,0,0,121,121,40,1,,,,,,,,
,,,,,,,,,,,,,FF,,,,,,,,0.4805,,,,,,,,,,,,,,,,,,,,,,61035c6dabf4c24bbcec1b90,61036bdcb1bd52c528ebd7f8,2021-07-29_20h04.49.111,Simcolourproject_2stim_asymm_v5,2020.2.10,MacIntel,60,61025ae37ef11b136ea224fe,,,,,,,,,425,-32.68414307,-31.3821106,1,0,0,response5disk,,2,-28.36932373,-3.344909668,1,0,0,rectangle,-28.36932373,-3.344909668,1,0,0,-28.36932373,-3.344909668,1,0,0,0,122,122,96,1,,,,,,,,
,,,,,,,,,,,,,FF,,,,,,,,1.0661,,,,,,,,,,,,,,,,,,,,,,61035c6dabf4c24bbcec1b90,61036bdcb1bd52c528ebd7f8,2021-07-29_20h04.49.111,Simcolourproject_2stim_asymm_v5,2020.2.10,MacIntel,60,61025ae37ef11b136ea224fe,,,,,,,,,2139,-41.19940186,-45.30154419,1,0,0,response5disk,,3,-29.07202148,-17.98394775,1,0,0,rectangle,-29.07202148,-17.98394775,1,0,0,-29.07202148,-17.98394775,1,0,0,0,123,123,109,1,,,,,,,,
,,,,,,,,,,,,,FF,,,,,,,,0.4198,,,,,,,,,,,,,,,,,,,,,,61035c6dabf4c24bbcec1b90,61036bdcb1bd52c528ebd7f8,2021-07-29_20h04.49.111,Simcolourproject_2stim_asymm_v5,2020.2.10,MacIntel,60,61025ae37ef11b136ea224fe,,,,,,,,,3176,-38.2578125,-97.60491943,1,0,0,response5disk,,3,-22.8548584,-10.01864624,1,0,0,rectangle,-22.8548584,-10.01864624,1,0,0,-22.8548584,-10.01864624,1,0,0,0,124,124,151,1,,,,,,,,
,,,,,,,,,,,,,FF,,,,,,,,0.1007,,,,,,,,,,,,,,,,,,,,,,61035c6dabf4c24bbcec1b90,61036bdcb1bd52c528ebd7f8,2021-07-29_20h04.49.111,Simcolourproject_2stim_asymm_v5,2020.2.10,MacIntel,60,61025ae37ef11b136ea224fe,,,,,,,,,2038,-38.66473389,-47.4203186,1,0,0,response5disk,,3,15.31573486,-7.84487915,1,0,0,rectangle,15.31573486,-7.84487915,1,0,0,15.31573486,-7.84487915,1,0,0,0,125,125,93,1,,,,,,,,
,,,,,,,,,,,,,FF,,,,,,,,0.4688,,,,,,,,,,,,,,,,,,,,,,61035c6dabf4c24bbcec1b90,61036bdcb1bd52c528ebd7f8,2021-07-29_20h04.49.111,Simcolourproject_2stim_asymm_v5,2020.2.10,MacIntel,60,61025ae37ef11b136ea224fe,,,,,,,,,1233,-19.04077148,-73.80322266,1,0,0,response5disk,,3,-11.72912598,1.861663818,1,0,0,rectangle,-11.72912598,1.861663818,1,0,0,-11.72912598,1.861663818,1,0,0,0,126,126,29,1,,,,,,,,
,,,,,,,,,,,,,FF,,,,,,,,0.1,,,,,,,,,,,,,,,,,,,,,,61035c6dabf4c24bbcec1b90,61036bdcb1bd52c528ebd7f8,2021-07-29_20h04.49.111,Simcolourproject_2stim_asymm_v5,2020.2.10,MacIntel,60,61025ae37ef11b136ea224fe,,,,,,,,,3271,-42.98901367,-74.61932373,1,0,0,response5disk,,3,-17.65081787,-7.38168335,1,0,0,rectangle,-17.65081787,-7.38168335,1,0,0,-17.65081787,-7.38168335,1,0,0,0,127,127,39,1,,,,,,,,
,,,,,,,,,,,,,FF,,,,,,,,0.0527,,,,,,,,,,,,,,,,,,,,,,61035c6dabf4c24bbcec1b90,61036bdcb1bd52c528ebd7f8,2021-07-29_20h04.49.111,Simcolourproject_2stim_asymm_v5,2020.2.10,MacIntel,60,61025ae37ef11b136ea224fe,,,,,,,,,2018,-39.95343018,-56.20941162,1,0,0,response5disk,,3,-7.685791016,-7.382659912,1,0,0,rectangle,77.30407715,17.30014038,1,0,0,23.18255615,16.32705688,1,0,0,0,128,128,122,1,,response1disk_3,TRUE,6,6,"[83,211,154,206,152,230,189,3,294,42,222,115,311,146,151,306,101,158,149,129]",1.7948,rectangle
,,,,,,,,,,,,,FF,,,,,,,,0.1661,,,,,,,,,,,,,,,,,,,,,,61035c6dabf4c24bbcec1b90,61036bdcb1bd52c528ebd7f8,2021-07-29_20h04.49.111,Simcolourproject_2stim_asymm_v5,2020.2.10,MacIntel,60,61025ae37ef11b136ea224fe,,,,,,,,,850,17.98443604,-30.16339111,1,0,0,response3disk,,4,13.31048584,-4.27166748,1,0,0,rectangle,13.31048584,-4.27166748,1,0,0,13.31048584,-4.27166748,1,0,0,0,129,129,80,1,,,,,,,,
,,,,,,,,,,,,,FF,,,,,,,,0.9867,,,,,,,,,,,,,,,,,,,,,,61035c6dabf4c24bbcec1b90,61036bdcb1bd52c528ebd7f8,2021-07-29_20h04.49.111,Simcolourproject_2stim_asymm_v5,2020.2.10,MacIntel,60,61025ae37ef11b136ea224fe,,,,,,,,,3577,59.37384033,-41.04684448,1,0,0,response3disk,,5,18.14477539,13.12475586,1,0,0,rectangle,18.14477539,13.12475586,1,0,0,18.14477539,13.12475586,1,0,0,0,130,130,24,1,,,,,,,,
,,,,,,,,,,,,,FF,,,,,,,,0.1199,,,,,,,,,,,,,,,,,,,,,,61035c6dabf4c24bbcec1b90,61036bdcb1bd52c528ebd7f8,2021-07-29_20h04.49.111,Simcolourproject_2stim_asymm_v5,2020.2.10,MacIntel,60,61025ae37ef11b136ea224fe,,,,,,,,,4237,30.55853271,34.68554688,1,0,0,response1disk,,7,-17.32220459,14.63446045,1,0,0,rectangle,-17.32220459,14.63446045,1,0,0,-17.32220459,14.63446045,1,0,0,0,131,131,102,1,,,,,,,,
,,,,,,,,,,,,,FF,,,,,,,,0.9841,,,,,,,,,,,,,,,,,,,,,,61035c6dabf4c24bbcec1b90,61036bdcb1bd52c528ebd7f8,2021-07-29_20h04.49.111,Simcolourproject_2stim_asymm_v5,2020.2.10,MacIntel,60,61025ae37ef11b136ea224fe,,,,,,,,,294,-17.32220459,14.63446045,1,0,0,response7disk,,1,1.577941895,-3.028839111,1,0,0,rectangle,1.577941895,-3.028839111,1,0,0,1.577941895,-3.028839111,1,0,0,0,132,132,126,1,,,,,,,,
,,,,,,,,,,,,,FF,,,,,,,,0.6996,,,,,,,,,,,,,,,,,,,,,,61035c6dabf4c24bbcec1b90,61036bdcb1bd52c528ebd7f8,2021-07-29_20h04.49.111,Simcolourproject_2stim_asymm_v5,2020.2.10,MacIntel,60,61025ae37ef11b136ea224fe,,,,,,,,,2487,92.26367188,24.69458008,1,0,0,response1disk,,6,4.66003418,-12.88101196,1,0,0,rectangle,4.66003418,-12.88101196,1,0,0,4.66003418,-12.88101196,1,0,0,0,133,133,75,1,,,,,,,,
,,,,,,,,,,,,,FF,,,,,,,,0.1017,,,,,,,,,,,,,,,,,,,,,,61035c6dabf4c24bbcec1b90,61036bdcb1bd52c528ebd7f8,2021-07-29_20h04.49.111,Simcolourproject_2stim_asymm_v5,2020.2.10,MacIntel,60,61025ae37ef11b136ea224fe,,,,,,,,,1105,30.84197998,-44.8086853,1,0,0,response3disk,,4,2.982177734,-8.99420166,1,0,0,rectangle,2.982177734,-8.99420166,1,0,0,2.982177734,-8.99420166,1,0,0,0,134,134,38,1,,,,,,,,
,,,,,,,,,,,,,FF,,,,,,,,0.2859,,,,,,,,,,,,,,,,,,,,,,61035c6dabf4c24bbcec1b90,61036bdcb1bd52c528ebd7f8,2021-07-29_20h04.49.111,Simcolourproject_2stim_asymm_v5,2020.2.10,MacIntel,60,61025ae37ef11b136ea224fe,,,,,,,,,125,31.66357422,-46.50460815,1,0,0,response3disk,,4,7.274780273,-9.68862915,1,0,0,rectangle,7.274780273,-9.68862915,1,0,0,7.274780273,-9.68862915,1,0,0,0,135,135,129,1,,,,,,,,
,,,,,,,,,,,,,FF,,,,,,,,0.2149,,,,,,,,,,,,,,,,,,,,,,61035c6dabf4c24bbcec1b90,61036bdcb1bd52c528ebd7f8,2021-07-29_20h04.49.111,Simcolourproject_2stim_asymm_v5,2020.2.10,MacIntel,60,61025ae37ef11b136ea224fe,,,,,,,,,999,-26.24255371,-58.40429688,1,0,0,response5disk,,3,-21.74609375,-2.162750244,1,0,0,rectangle,-21.74609375,-2.162750244,1,0,0,-21.74609375,-2.162750244,1,0,0,0,136,136,121,1,,,,,,,,
,,,,,,,,,,,,,FF,,,,,,,,0.1349,,,,,,,,,,,,,,,,,,,,,,61035c6dabf4c24bbcec1b90,61036bdcb1bd52c528ebd7f8,2021-07-29_20h04.49.111,Simcolourproject_2stim_asymm_v5,2020.2.10,MacIntel,60,61025ae37ef11b136ea224fe,,,,,,,,,2444,-28.8692627,-43.01678467,1,0,0,response5disk,,3,-12.51379395,-1.872009277,1,0,0,rectangle,-12.51379395,-1.872009277,1,0,0,-12.51379395,-1.872009277,1,0,0,0,137,137,9,1,,,,,,,,
,,,,,,,,,,,,,FF,,,,,,,,0.0806,,,,,,,,,,,,,,,,,,,,,,61035c6dabf4c24bbcec1b90,61036bdcb1bd52c528ebd7f8,2021-07-29_20h04.49.111,Simcolourproject_2stim_asymm_v5,2020.2.10,MacIntel,60,61025ae37ef11b136ea224fe,,,,,,,,,643,-34.87164307,-41.36120605,1,0,0,response5disk,,3,-17.52984619,-12.89346313,1,0,0,rectangle,-17.52984619,-12.89346313,1,0,0,-17.52984619,-12.89346313,1,0,0,0,138,138,142,1,,,,,,,,
,,,,,,,,,,,,,FF,,,,,,,,0.1004,,,,,,,,,,,,,,,,,,,,,,61035c6dabf4c24bbcec1b90,61036bdcb1bd52c528ebd7f8,2021-07-29_20h04.49.111,Simcolourproject_2stim_asymm_v5,2020.2.10,MacIntel,60,61025ae37ef11b136ea224fe,,,,,,,,,4022,20.22338867,-62.58099365,1,0,0,response3disk,,4,-20.5098877,0.529602051,1,0,0,rectangle,-20.5098877,0.529602051,1,0,0,-20.5098877,0.529602051,1,0,0,0,139,139,140,1,,,,,,,,
,,,,,,,,,,,,,FF,,,,,,,,0.6473,,,,,,,,,,,,,,,,,,,,,,61035c6dabf4c24bbcec1b90,61036bdcb1bd52c528ebd7f8,2021-07-29_20h04.49.111,Simcolourproject_2stim_asymm_v5,2020.2.10,MacIntel,60,61025ae37ef11b136ea224fe,,,,,,,,,530,-56.97357178,25.33117676,1,0,0,response7disk,,1,-24.18103027,1.098175049,1,0,0,rectangle,-24.18103027,1.098175049,1,0,0,-24.18103027,1.098175049,1,0,0,0,140,140,114,1,,,,,,,,
,,,,,,,,,,,,,FF,,,,,,,,0.4476,,,,,,,,,,,,,,,,,,,,,,61035c6dabf4c24bbcec1b90,61036bdcb1bd52c528ebd7f8,2021-07-29_20h04.49.111,Simcolourproject_2stim_asymm_v5,2020.2.10,MacIntel,60,61025ae37ef11b136ea224fe,,,,,,,,,4130,83.71588135,43.36526489,1,0,0,response1disk,,6,3.325073242,14.21105957,1,0,0,rectangle,3.325073242,14.21105957,1,0,0,3.325073242,14.21105957,1,0,0,0,141,141,37,1,,,,,,,,
,,,,,,,,,,,,,FF,,,,,,,,0.1004,,,,,,,,,,,,,,,,,,,,,,61035c6dabf4c24bbcec1b90,61036bdcb1bd52c528ebd7f8,2021-07-29_20h04.49.111,Simcolourproject_2stim_asymm_v5,2020.2.10,MacIntel,60,61025ae37ef11b136ea224fe,,,,,,,,,2804,23.49664307,-37.08178711,1,0,0,response3disk,,4,-2.375183105,2.233459473,1,0,0,rectangle,-2.375183105,2.233459473,1,0,0,-2.375183105,2.233459473,1,0,0,0,142,142,60,1,,,,,,,,
,,,,,,,,,,,,,FF,,,,,,,,0.3827,,,,,,,,,,,,,,,,,,,,,,61035c6dabf4c24bbcec1b90,61036bdcb1bd52c528ebd7f8,2021-07-29_20h04.49.111,Simcolourproject_2stim_asymm_v5,2020.2.10,MacIntel,60,61025ae37ef11b136ea224fe,,,,,,,,,1278,60.39904785,32.42178345,1,0,0,response1disk,,6,20.01849365,8.376647949,1,0,0,rectangle,20.01849365,8.376647949,1,0,0,20.01849365,8.376647949,1,0,0,0,143,143,157,1,,,,,,,,
,,,,,,,,,,,,,FF,,,,,,,,0.4475,,,,,,,,,,,,,,,,,,,,,,61035c6dabf4c24bbcec1b90,61036bdcb1bd52c528ebd7f8,2021-07-29_20h04.49.111,Simcolourproject_2stim_asymm_v5,2020.2.10,MacIntel,60,61025ae37ef11b136ea224fe,,,,,,,,,1860,52.43811035,30.83679199,1,0,0,response1disk,,6,5.664123535,15.16326904,1,0,0,rectangle,5.664123535,15.16326904,1,0,0,5.664123535,15.16326904,1,0,0,0,144,144,56,1,,,,,,,,
,,,,,,,,,,,,,FF,,,,,,,,0.8829,,,,,,,,,,,,,,,,,,,,,,61035c6dabf4c24bbcec1b90,61036bdcb1bd52c528ebd7f8,2021-07-29_20h04.49.111,Simcolourproject_2stim_asymm_v5,2020.2.10,MacIntel,60,61025ae37ef11b136ea224fe,,,,,,,,,3771,42.94494629,16.0524292,1,0,0,response1disk,,6,-0.483459473,-5.487182617,1,0,0,rectangle,-33.64428711,-79.44219971,1,0,0,20.30047607,-5.975921631,1,0,0,0,145,145,155,1,,response5disk_3,TRUE,3,3,"[83,211,154,206,152,230,189,3,294,42,222,115,311,146,151,306,101,158,149,129]",1.6716,rectangle
,,,,,,,,,,,,,FF,,,,,,,,0.4034,,,,,,,,,,,,,,,,,,,,,,61035c6dabf4c24bbcec1b90,61036bdcb1bd52c528ebd7f8,2021-07-29_20h04.49.111,Simcolourproject_2stim_asymm_v5,2020.2.10,MacIntel,60,61025ae37ef11b136ea224fe,,,,,,,,,900,-75.81604004,-32.1184082,1,0,0,response5disk,,2,-11.61456299,-1.263336182,1,0,0,rectangle,-11.61456299,-1.263336182,1,0,0,-11.61456299,-1.263336182,1,0,0,0,146,146,19,1,,,,,,,,
,,,,,,,,,,,,,FF,,,,,,,,0.3964,,,,,,,,,,,,,,,,,,,,,,61035c6dabf4c24bbcec1b90,61036bdcb1bd52c528ebd7f8,2021-07-29_20h04.49.111,Simcolourproject_2stim_asymm_v5,2020.2.10,MacIntel,60,61025ae37ef11b136ea224fe,,,,,,,,,3827,-21.34777832,-44.64227295,1,0,0,response5disk,,3,-21.34777832,5.220916748,1,0,0,rectangle,-21.34777832,5.220916748,1,0,0,-21.34777832,5.220916748,1,0,0,0,147,147,59,1,,,,,,,,
,,,,,,,,,,,,,FF,,,,,,,,0.3469,,,,,,,,,,,,,,,,,,,,,,61035c6dabf4c24bbcec1b90,61036bdcb1bd52c528ebd7f8,2021-07-29_20h04.49.111,Simcolourproject_2stim_asymm_v5,2020.2.10,MacIntel,60,61025ae37ef11b136ea224fe,,,,,,,,,1618,-28.96417236,-53.14703369,1,0,0,response5disk,,3,-26.50708008,-0.650268555,1,0,0,rectangle,-37.30993652,-50.70001221,1,0,0,-31.94390869,-6.171875,1,0,0,0,148,148,104,1,,response5disk_3,TRUE,3,2,"[83,211,154,206,152,230,189,3,294,42,222,115,311,146,151,306,101,158,149,129]",0.3701,rectangle
,,,,,,,,,,,,,FF,,,,,,,,0.0686,,,,,,,,,,,,,,,,,,,,,,61035c6dabf4c24bbcec1b90,61036bdcb1bd52c528ebd7f8,2021-07-29_20h04.49.111,Simcolourproject_2stim_asymm_v5,2020.2.10,MacIntel,60,61025ae37ef11b136ea224fe,,,,,,,,,4349,-56.44683838,-71.83239746,1,0,0,response5disk,,3,-21.50299072,5.494689941,1,0,0,rectangle,-21.50299072,5.494689941,1,0,0,-21.50299072,5.494689941,1,0,0,0,149,149,5,1,,,,,,,,
,,,,,,,,,,,,,FF,,,,,,,,0.4118,,,,,,,,,,,,,,,,,,,,,,61035c6dabf4c24bbcec1b90,61036bdcb1bd52c528ebd7f8,2021-07-29_20h04.49.111,Simcolourproject_2stim_asymm_v5,2020.2.10,MacIntel,60,61025ae37ef11b136ea224fe,,,,,,,,,1291,-19.39910889,-28.33135986,1,0,0,response5disk,,3,16.08508301,-13.94235229,1,0,0,rectangle,-88.36724854,-36.21881104,1,0,0,-33.75262451,-3.532104492,1,0,0,0,150,150,67,1,,response5disk_3,TRUE,2,2,"[83,211,154,206,152,230,189,3,294,42,222,115,311,146,151,306,101,158,149,129]",2.4368,rectangle
,,,,,,,,,,,,,FF,,,,,,,,0.7344,,,,,,,,,,,,,,,,,,,,,,61035c6dabf4c24bbcec1b90,61036bdcb1bd52c528ebd7f8,2021-07-29_20h04.49.111,Simcolourproject_2stim_asymm_v5,2020.2.10,MacIntel,60,61025ae37ef11b136ea224fe,,,,,,,,,298,-63.17529297,-50.84326172,1,0,0,response5disk,,2,-16.01715088,-7.54901123,1,0,0,rectangle,-53.50415039,-63.21331787,1,0,0,-7.079833984,-0.793426514,1,0,0,0,151,151,108,1,,response5disk_3,TRUE,3,7,"[83,211,154,206,152,230,189,3,294,42,222,115,311,146,151,306,101,158,149,129]",0.8289,rectangle
,,,,,,,,,,,,,FF,,,,,,,,0.3867,,,,,,,,,,,,,,,,,,,,,,61035c6dabf4c24bbcec1b90,61036bdcb1bd52c528ebd7f8,2021-07-29_20h04.49.111,Simcolourproject_2stim_asymm_v5,2020.2.10,MacIntel,60,61025ae37ef11b136ea224fe,,,,,,,,,3897,-41.39581299,-39.93377686,1,0,0,response5disk,,2,-26.18981934,-1.134765625,1,0,0,rectangle,-26.18981934,-1.134765625,1,0,0,-26.18981934,-1.134765625,1,0,0,0,152,152,54,1,,,,,,,,
,,,,,,,,,,,,,FF,,,,,,,,0.1464,,,,,,,,,,,,,,,,,,,,,,61035c6dabf4c24bbcec1b90,61036bdcb1bd52c528ebd7f8,2021-07-29_20h04.49.111,Simcolourproject_2stim_asymm_v5,2020.2.10,MacIntel,60,61025ae37ef11b136ea224fe,,,,,,,,,3853,-56.63763428,-25.08532715,1,0,0,response5disk,,2,-13.68347168,-6.191375732,1,0,0,rectangle,-75.32458496,-49.67416382,1,0,0,-28.5960083,-2.110748291,1,0,0,0,153,153,147,1,,response5disk_3,TRUE,2,4,"[83,211,154,206,152,230,189,3,294,42,222,115,311,146,151,306,101,158,149,129]",0.3826,rectangle
,,,,,,,,,,,,,FF,,,,,,,,0.1148,,,,,,,,,,,,,,,,,,,,,,61035c6dabf4c24bbcec1b90,61036bdcb1bd52c528ebd7f8,2021-07-29_20h04.49.111,Simcolourproject_2stim_asymm_v5,2020.2.10,MacIntel,60,61025ae37ef11b136ea224fe,,,,,,,,,1083,-74.67230225,-27.06466675,1,0,0,response5disk,,2,-18.12658691,0.50112915,1,0,0,rectangle,-18.12658691,0.50112915,1,0,0,-18.12658691,0.50112915,1,0,0,0,154,154,144,1,,,,,,,,
,,,,,,,,,,,,,FF,,,,,,,,0.2865,,,,,,,,,,,,,,,,,,,,,,61035c6dabf4c24bbcec1b90,61036bdcb1bd52c528ebd7f8,2021-07-29_20h04.49.111,Simcolourproject_2stim_asymm_v5,2020.2.10,MacIntel,60,61025ae37ef11b136ea224fe,,,,,,,,,1751,-87.94903564,-47.77346802,1,0,0,response5disk,,2,2.315368652,-8.208129883,1,0,0,rectangle,2.315368652,-8.208129883,1,0,0,2.315368652,-8.208129883,1,0,0,0,155,155,50,1,,,,,,,,
,,,,,,,,,,,,,FF,,,,,,,,0.3006,,,,,,,,,,,,,,,,,,,,,,61035c6dabf4c24bbcec1b90,61036bdcb1bd52c528ebd7f8,2021-07-29_20h04.49.111,Simcolourproject_2stim_asymm_v5,2020.2.10,MacIntel,60,61025ae37ef11b136ea224fe,,,,,,,,,2526,-86.64599609,-36.74176025,1,0,0,response5disk,,2,-22.26708984,-5.705047607,1,0,0,rectangle,-22.26708984,-5.705047607,1,0,0,-22.26708984,-5.705047607,1,0,0,0,156,156,86,1,,,,,,,,
,,,,,,,,,,,,,FF,,,,,,,,0.6836,,,,,,,,,,,,,,,,,,,,,,61035c6dabf4c24bbcec1b90,61036bdcb1bd52c528ebd7f8,2021-07-29_20h04.49.111,Simcolourproject_2stim_asymm_v5,2020.2.10,MacIntel,60,61025ae37ef11b136ea224fe,,,,,,,,,3522,-104.6619873,-54.7170105,1,0,0,response5disk,,2,-29.26550293,-0.478149414,1,0,0,rectangle,-89.61590576,-44.69265747,1,0,0,-21.9017334,-7.157318115,1,0,0,0,157,157,45,1,,response5disk_3,TRUE,2,4,"[83,211,154,206,152,230,189,3,294,42,222,115,311,146,151,306,101,158,149,129]",1.0194,rectangle
,,,,,,,,,,,,,FF,,,,,,,,0.3693,,,,,,,,,,,,,,,,,,,,,,61035c6dabf4c24bbcec1b90,61036bdcb1bd52c528ebd7f8,2021-07-29_20h04.49.111,Simcolourproject_2stim_asymm_v5,2020.2.10,MacIntel,60,61025ae37ef11b136ea224fe,,,,,,,,,4054,-86.78747559,-64.69799805,1,0,0,response5disk,,2,-24.14868164,1.81048584,1,0,0,rectangle,-24.14868164,1.81048584,1,0,0,-24.14868164,1.81048584,1,0,0,0,158,158,103,1,,,,,,,,
,,,,,,,,,,,,,FF,,,,,,,,53.4168,,,,,,,,,,,,,,,,,,,,,,61035c6dabf4c24bbcec1b90,61036bdcb1bd52c528ebd7f8,2021-07-29_20h04.49.111,Simcolourproject_2stim_asymm_v5,2020.2.10,MacIntel,60,61025ae37ef11b136ea224fe,,,,,,,,,131,-14.21624756,-106.2566528,1,0,0,response5disk,,3,16.81622314,1.93927002,1,0,0,rectangle,16.81622314,1.93927002,1,0,0,16.81622314,1.93927002,1,0,0,0,159,159,156,1,,,,,,,,
,,,,,,,,,,,,,FF,,,,,,,,0.6046,,,,,,,,,,,,,,,,,,,,,,61035c6dabf4c24bbcec1b90,61036bdcb1bd52c528ebd7f8,2021-07-29_20h04.49.111,Simcolourproject_2stim_asymm_v5,2020.2.10,MacIntel,60,61025ae37ef11b136ea224fe,,,,,,,,,4230,-44.60119629,-26.15435791,1,0,0,response5disk,,2,-1.859802246,-12.41162109,1,0,0,rectangle,-1.859802246,-12.41162109,1,0,0,-1.859802246,-12.41162109,1,0,0,1,0,160,52,1,,,,,,,,
,,,,,,,,,,,,,FF,,,,,,,,0.5012,,,,,,,,,,,,,,,,,,,,,,61035c6dabf4c24bbcec1b90,61036bdcb1bd52c528ebd7f8,2021-07-29_20h04.49.111,Simcolourproject_2stim_asymm_v5,2020.2.10,MacIntel,60,61025ae37ef11b136ea224fe,,,,,,,,,562,-44.71044922,-57.77807617,1,0,0,response5disk,,3,-17.09765625,-11.05966187,1,0,0,rectangle,-17.09765625,-11.05966187,1,0,0,-17.09765625,-11.05966187,1,0,0,1,1,161,0,1,,,,,,,,
,,,,,,,,,,,,,FF,,,,,,,,0.2326,,,,,,,,,,,,,,,,,,,,,,61035c6dabf4c24bbcec1b90,61036bdcb1bd52c528ebd7f8,2021-07-29_20h04.49.111,Simcolourproject_2stim_asymm_v5,2020.2.10,MacIntel,60,61025ae37ef11b136ea224fe,,,,,,,,,1487,-19.39300537,-16.12432861,1,0,0,response5disk,,2,-11.91186523,17.70962524,1,0,0,rectangle,-11.91186523,17.70962524,1,0,0,-11.91186523,17.70962524,1,0,0,1,2,162,151,1,,,,,,,,
,,,,,,,,,,,,,FF,,,,,,,,0.648,,,,,,,,,,,,,,,,,,,,,,61035c6dabf4c24bbcec1b90,61036bdcb1bd52c528ebd7f8,2021-07-29_20h04.49.111,Simcolourproject_2stim_asymm_v5,2020.2.10,MacIntel,60,61025ae37ef11b136ea224fe,,,,,,,,,3183,-19.84814453,-39.81536865,1,0,0,response5disk,,3,-17.92498779,-17.34024048,1,0,0,rectangle,-17.92498779,-17.34024048,1,0,0,-17.92498779,-17.34024048,1,0,0,1,3,163,76,1,,,,,,,,
,,,,,,,,,,,,,FF,,,,,,,,0.1194,,,,,,,,,,,,,,,,,,,,,,61035c6dabf4c24bbcec1b90,61036bdcb1bd52c528ebd7f8,2021-07-29_20h04.49.111,Simcolourproject_2stim_asymm_v5,2020.2.10,MacIntel,60,61025ae37ef11b136ea224fe,,,,,,,,,1915,-42.22131348,-58.57376099,1,0,0,response5disk,,3,-6.399780273,-1.172424316,1,0,0,rectangle,-6.399780273,-1.172424316,1,0,0,-6.399780273,-1.172424316,1,0,0,1,4,164,11,1,,,,,,,,
,,,,,,,,,,,,,FF,,,,,,,,0.4689,,,,,,,,,,,,,,,,,,,,,,61035c6dabf4c24bbcec1b90,61036bdcb1bd52c528ebd7f8,2021-07-29_20h04.49.111,Simcolourproject_2stim_asymm_v5,2020.2.10,MacIntel,60,61025ae37ef11b136ea224fe,,,,,,,,,2336,-36.43737793,-79.40405273,1,0,0,response5disk,,3,-0.404785156,-1.212219238,1,0,0,rectangle,-0.404785156,-1.212219238,1,0,0,-0.404785156,-1.212219238,1,0,0,1,5,165,34,1,,,,,,,,
,,,,,,,,,,,,,FF,,,,,,,,0.102,,,,,,,,,,,,,,,,,,,,,,61035c6dabf4c24bbcec1b90,61036bdcb1bd52c528ebd7f8,2021-07-29_20h04.49.111,Simcolourproject_2stim_asymm_v5,2020.2.10,MacIntel,60,61025ae37ef11b136ea224fe,,,,,,,,,3215,-22.26409912,-56.64309692,1,0,0,response5disk,,3,14.55090332,-0.331298828,1,0,0,rectangle,14.55090332,-0.331298828,1,0,0,14.55090332,-0.331298828,1,0,0,1,6,166,84,1,,,,,,,,
,,,,,,,,,,,,,FF,,,,,,,,0.501,,,,,,,,,,,,,,,,,,,,,,61035c6dabf4c24bbcec1b90,61036bdcb1bd52c528ebd7f8,2021-07-29_20h04.49.111,Simcolourproject_2stim_asymm_v5,2020.2.10,MacIntel,60,61025ae37ef11b136ea224fe,,,,,,,,,3918,-18.41400146,-47.66775513,1,0,0,response5disk,,3,-5.385131836,12.53497314,1,0,0,rectangle,-5.385131836,12.53497314,1,0,0,-5.385131836,12.53497314,1,0,0,1,7,167,78,1,,,,,,,,
,,,,,,,,,,,,,FF,,,,,,,,2.0158,,,,,,,,,,,,,,,,,,,,,,61035c6dabf4c24bbcec1b90,61036bdcb1bd52c528ebd7f8,2021-07-29_20h04.49.111,Simcolourproject_2stim_asymm_v5,2020.2.10,MacIntel,60,61025ae37ef11b136ea224fe,,,,,,,,,400,-67.21954346,-75.22387695,1,0,0,response5disk,,3,8.027404785,-7.51852417,1,0,0,rectangle,8.027404785,-7.51852417,1,0,0,8.027404785,-7.51852417,1,0,0,1,8,168,21,1,,,,,,,,
,,,,,,,,,,,,,FF,,,,,,,,0.6512,,,,,,,,,,,,,,,,,,,,,,61035c6dabf4c24bbcec1b90,61036bdcb1bd52c528ebd7f8,2021-07-29_20h04.49.111,Simcolourproject_2stim_asymm_v5,2020.2.10,MacIntel,60,61025ae37ef11b136ea224fe,,,,,,,,,1525,-63.72399902,-24.34494019,1,0,0,response5disk,,2,-0.472167969,-5.694976807,1,0,0,rectangle,-0.472167969,-5.694976807,1,0,0,-0.472167969,-5.694976807,1,0,0,1,9,169,79,1,,,,,,,,
,,,,,,,,,,,,,FF,,,,,,,,0.65,,,,,,,,,,,,,,,,,,,,,,61035c6dabf4c24bbcec1b90,61036bdcb1bd52c528ebd7f8,2021-07-29_20h04.49.111,Simcolourproject_2stim_asymm_v5,2020.2.10,MacIntel,60,61025ae37ef11b136ea224fe,,,,,,,,,2185,-60.82208252,-38.70431519,1,0,0,response5disk,,2,-12.72875977,-3.867156982,1,0,0,rectangle,-12.72875977,-3.867156982,1,0,0,-12.72875977,-3.867156982,1,0,0,1,10,170,67,1,,,,,,,,
,,,,,,,,,,,,,FF,,,,,,,,0.3295,,,,,,,,,,,,,,,,,,,,,,61035c6dabf4c24bbcec1b90,61036bdcb1bd52c528ebd7f8,2021-07-29_20h04.49.111,Simcolourproject_2stim_asymm_v5,2020.2.10,MacIntel,60,61025ae37ef11b136ea224fe,,,,,,,,,3642,29.57452393,-50.87695313,1,0,0,response3disk,,4,13.48962402,4.884429932,1,0,0,rectangle,13.48962402,4.884429932,1,0,0,13.48962402,4.884429932,1,0,0,1,11,171,70,1,,,,,,,,
,,,,,,,,,,,,,FF,,,,,,,,1.4196,,,,,,,,,,,,,,,,,,,,,,61035c6dabf4c24bbcec1b90,61036bdcb1bd52c528ebd7f8,2021-07-29_20h04.49.111,Simcolourproject_2stim_asymm_v5,2020.2.10,MacIntel,60,61025ae37ef11b136ea224fe,,,,,,,,,747,63.12896729,-30.43447876,1,0,0,response3disk,,5,0.440979004,6.538574219,1,0,0,rectangle,0.440979004,6.538574219,1,0,0,0.440979004,6.538574219,1,0,0,1,12,172,117,1,,,,,,,,
,,,,,,,,,,,,,FF,,,,,,,,0.4175,,,,,,,,,,,,,,,,,,,,,,61035c6dabf4c24bbcec1b90,61036bdcb1bd52c528ebd7f8,2021-07-29_20h04.49.111,Simcolourproject_2stim_asymm_v5,2020.2.10,MacIntel,60,61025ae37ef11b136ea224fe,,,,,,,,,2915,-69.62487793,-53.04321289,1,0,0,response5disk,,2,-4.071960449,-9.19744873,1,0,0,rectangle,-4.071960449,-9.19744873,1,0,0,-4.071960449,-9.19744873,1,0,0,1,13,173,54,1,,,,,,,,
,,,,,,,,,,,,,FF,,,,,,,,0.166,,,,,,,,,,,,,,,,,,,,,,61035c6dabf4c24bbcec1b90,61036bdcb1bd52c528ebd7f8,2021-07-29_20h04.49.111,Simcolourproject_2stim_asymm_v5,2020.2.10,MacIntel,60,61025ae37ef11b136ea224fe,,,,,,,,,3193,-69.26489258,-42.50180054,1,0,0,response5disk,,2,-13.918396,-15.75271606,1,0,0,rectangle,-13.918396,-15.75271606,1,0,0,-13.918396,-15.75271606,1,0,0,1,14,174,101,1,,,,,,,,
,,,,,,,,,,,,,FF,,,,,,,,0.1484,,,,,,,,,,,,,,,,,,,,,,61035c6dabf4c24bbcec1b90,61036bdcb1bd52c528ebd7f8,2021-07-29_20h04.49.111,Simcolourproject_2stim_asymm_v5,2020.2.10,MacIntel,60,61025ae37ef11b136ea224fe,,,,,,,,,1964,-49.48657227,-38.56414795,1,0,0,response5disk,,2,-3.285522461,8.120178223,1,0,0,rectangle,-3.285522461,8.120178223,1,0,0,-3.285522461,8.120178223,1,0,0,1,15,175,39,1,,,,,,,,
,,,,,,,,,,,,,FF,,,,,,,,0.4007,,,,,,,,,,,,,,,,,,,,,,61035c6dabf4c24bbcec1b90,61036bdcb1bd52c528ebd7f8,2021-07-29_20h04.49.111,Simcolourproject_2stim_asymm_v5,2020.2.10,MacIntel,60,61025ae37ef11b136ea224fe,,,,,,,,,1053,-23.03753662,-65.06420898,1,0,0,response5disk,,3,-2.51348877,-11.27487183,1,0,0,rectangle,-2.51348877,-11.27487183,1,0,0,-2.51348877,-11.27487183,1,0,0,1,16,176,99,1,,,,,,,,
,,,,,,,,,,,,,FF,,,,,,,,0.15,,,,,,,,,,,,,,,,,,,,,,61035c6dabf4c24bbcec1b90,61036bdcb1bd52c528ebd7f8,2021-07-29_20h04.49.111,Simcolourproject_2stim_asymm_v5,2020.2.10,MacIntel,60,61025ae37ef11b136ea224fe,,,,,,,,,511,-43.99572754,-23.68359375,1,0,0,response5disk,,2,24.97576904,-14.39068604,1,0,0,rectangle,24.97576904,-14.39068604,1,0,0,24.97576904,-14.39068604,1,0,0,1,17,177,140,1,,,,,,,,
,,,,,,,,,,,,,FF,,,,,,,,0.5665,,,,,,,,,,,,,,,,,,,,,,61035c6dabf4c24bbcec1b90,61036bdcb1bd52c528ebd7f8,2021-07-29_20h04.49.111,Simcolourproject_2stim_asymm_v5,2020.2.10,MacIntel,60,61025ae37ef11b136ea224fe,,,,,,,,,524,-62.61004639,-39.4382019,1,0,0,response5disk,,2,-8.218505859,1.8309021,1,0,0,rectangle,-8.218505859,1.8309021,1,0,0,-8.218505859,1.8309021,1,0,0,1,18,178,9,1,,,,,,,,
,,,,,,,,,,,,,FF,,,,,,,,0.5167,,,,,,,,,,,,,,,,,,,,,,61035c6dabf4c24bbcec1b90,61036bdcb1bd52c528ebd7f8,2021-07-29_20h04.49.111,Simcolourproject_2stim_asymm_v5,2020.2.10,MacIntel,60,61025ae37ef11b136ea224fe,,,,,,,,,1931,50.19940186,33.2008667,1,0,0,response1disk,,6,23.18188477,11.36325073,1,0,0,rectangle,23.18188477,11.36325073,1,0,0,23.18188477,11.36325073,1,0,0,1,19,179,129,1,,,,,,,,
,,,,,,,,,,,,,FF,,,,,,,,0.6999,,,,,,,,,,,,,,,,,,,,,,61035c6dabf4c24bbcec1b90,61036bdcb1bd52c528ebd7f8,2021-07-29_20h04.49.111,Simcolourproject_2stim_asymm_v5,2020.2.10,MacIntel,60,61025ae37ef11b136ea224fe,,,,,,,,,2447,69.79846191,55.31066895,1,0,0,response1disk,,6,11.08435059,6.385498047,1,0,0,rectangle,11.08435059,6.385498047,1,0,0,11.08435059,6.385498047,1,0,0,1,20,180,139,1,,,,,,,,
,,,,,,,,,,,,,FF,,,,,,,,0.6175,,,,,,,,,,,,,,,,,,,,,,61035c6dabf4c24bbcec1b90,61036bdcb1bd52c528ebd7f8,2021-07-29_20h04.49.111,Simcolourproject_2stim_asymm_v5,2020.2.10,MacIntel,60,61025ae37ef11b136ea224fe,,,,,,,,,270,66.07946777,-36.15887451,1,0,0,response3disk,,5,26.45806885,-5.066345215,1,0,0,rectangle,26.45806885,-5.066345215,1,0,0,26.45806885,-5.066345215,1,0,0,1,21,181,120,1,,,,,,,,
,,,,,,,,,,,,,FF,,,,,,,,0.9175,,,,,,,,,,,,,,,,,,,,,,61035c6dabf4c24bbcec1b90,61036bdcb1bd52c528ebd7f8,2021-07-29_20h04.49.111,Simcolourproject_2stim_asymm_v5,2020.2.10,MacIntel,60,61025ae37ef11b136ea224fe,,,,,,,,,1123,34.76599121,-82.41021729,1,0,0,response3disk,,4,4.257873535,-15.92623901,1,0,0,rectangle,4.257873535,-15.92623901,1,0,0,4.257873535,-15.92623901,1,0,0,1,22,182,105,1,,,,,,,,
,,,,,,,,,,,,,FF,,,,,,,,0.8831,,,,,,,,,,,,,,,,,,,,,,61035c6dabf4c24bbcec1b90,61036bdcb1bd52c528ebd7f8,2021-07-29_20h04.49.111,Simcolourproject_2stim_asymm_v5,2020.2.10,MacIntel,60,61025ae37ef11b136ea224fe,,,,,,,,,1226,-67.82489014,-41.18051147,1,0,0,response5disk,,2,-25.90893555,-15.41360474,1,0,0,rectangle,-25.90893555,-15.41360474,1,0,0,-25.90893555,-15.41360474,1,0,0,1,23,183,20,1,,,,,,,,
,,,,,,,,,,,,,FF,,,,,,,,0.6162,,,,,,,,,,,,,,,,,,,,,,61035c6dabf4c24bbcec1b90,61036bdcb1bd52c528ebd7f8,2021-07-29_20h04.49.111,Simcolourproject_2stim_asymm_v5,2020.2.10,MacIntel,60,61025ae37ef11b136ea224fe,,,,,,,,,3994,-56.88800049,70.00598145,1,0,0,response7disk,,0,-25.4206543,17.26733398,1,0,0,rectangle,-25.4206543,17.26733398,1,0,0,-25.4206543,17.26733398,1,0,0,1,24,184,51,1,,,,,,,,
,,,,,,,,,,,,,FF,,,,,,,,0.5013,,,,,,,,,,,,,,,,,,,,,,61035c6dabf4c24bbcec1b90,61036bdcb1bd52c528ebd7f8,2021-07-29_20h04.49.111,Simcolourproject_2stim_asymm_v5,2020.2.10,MacIntel,60,61025ae37ef11b136ea224fe,,,,,,,,,2553,54.90795898,-28.35650635,1,0,0,response3disk,,5,26.67004395,15.88735962,1,0,0,rectangle,26.67004395,15.88735962,1,0,0,26.67004395,15.88735962,1,0,0,1,25,185,145,1,,,,,,,,
,,,,,,,,,,,,,FF,,,,,,,,1.1342,,,,,,,,,,,,,,,,,,,,,,61035c6dabf4c24bbcec1b90,61036bdcb1bd52c528ebd7f8,2021-07-29_20h04.49.111,Simcolourproject_2stim_asymm_v5,2020.2.10,MacIntel,60,61025ae37ef11b136ea224fe,,,,,,,,,631,-51.30236816,70.65463257,1,0,0,response7disk,,0,-18.04602051,9.796386719,1,0,0,rectangle,-18.04602051,9.796386719,1,0,0,-18.04602051,9.796386719,1,0,0,1,26,186,137,1,,,,,,,,
,,,,,,,,,,,,,FF,,,,,,,,0.7175,,,,,,,,,,,,,,,,,,,,,,61035c6dabf4c24bbcec1b90,61036bdcb1bd52c528ebd7f8,2021-07-29_20h04.49.111,Simcolourproject_2stim_asymm_v5,2020.2.10,MacIntel,60,61025ae37ef11b136ea224fe,,,,,,,,,3673,-60.52233887,98.32528687,1,0,0,response7disk,,0,-18.9019165,16.25286865,1,0,0,rectangle,-18.9019165,16.25286865,1,0,0,-18.9019165,16.25286865,1,0,0,1,27,187,153,1,,,,,,,,
,,,,,,,,,,,,,FF,,,,,,,,4.7568,,,,,,,,,,,,,,,,,,,,,,61035c6dabf4c24bbcec1b90,61036bdcb1bd52c528ebd7f8,2021-07-29_20h04.49.111,Simcolourproject_2stim_asymm_v5,2020.2.10,MacIntel,60,61025ae37ef11b136ea224fe,,,,,,,,,1641,-56.27032471,26.0892334,1,0,0,response7disk,,1,-19.02972412,8.597381592,1,0,0,rectangle,86.83197021,55.58166504,1,0,0,24.33972168,0.663360596,1,0,0,1,28,188,32,1,,response1disk_3,TRUE,6,6,"[83,211,154,206,152,230,189,3,294,42,222,115,311,146,151,306,101,158,149,129]",1.7715,rectangle
,,,,,,,,,,,,,FF,,,,,,,,0.8971,,,,,,,,,,,,,,,,,,,,,,61035c6dabf4c24bbcec1b90,61036bdcb1bd52c528ebd7f8,2021-07-29_20h04.49.111,Simcolourproject_2stim_asymm_v5,2020.2.10,MacIntel,60,61025ae37ef11b136ea224fe,,,,,,,,,3708,-53.68017578,109.5531921,1,0,0,response7disk,,0,-6.392028809,2.894805908,1,0,0,rectangle,-6.392028809,2.894805908,1,0,0,-6.392028809,2.894805908,1,0,0,1,29,189,154,1,,,,,,,,
,,,,,,,,,,,,,FF,,,,,,,,0.6296,,,,,,,,,,,,,,,,,,,,,,61035c6dabf4c24bbcec1b90,61036bdcb1bd52c528ebd7f8,2021-07-29_20h04.49.111,Simcolourproject_2stim_asymm_v5,2020.2.10,MacIntel,60,61025ae37ef11b136ea224fe,,,,,,,,,2587,57.87957764,16.95626831,1,0,0,response1disk,,6,11.82080078,5.049468994,1,0,0,rectangle,11.82080078,5.049468994,1,0,0,11.82080078,5.049468994,1,0,0,1,30,190,40,1,,,,,,,,
,,,,,,,,,,,,,FF,,,,,,,,0.834,,,,,,,,,,,,,,,,,,,,,,61035c6dabf4c24bbcec1b90,61036bdcb1bd52c528ebd7f8,2021-07-29_20h04.49.111,Simcolourproject_2stim_asymm_v5,2020.2.10,MacIntel,60,61025ae37ef11b136ea224fe,,,,,,,,,740,-68.38470459,32.05941772,1,0,0,response7disk,,1,-30.36981201,12.98825073,1,0,0,rectangle,-30.36981201,12.98825073,1,0,0,-30.36981201,12.98825073,1,0,0,1,31,191,110,1,,,,,,,,
,,,,,,,,,,,,,FF,,,,,,,,1.3501,,,,,,,,,,,,,,,,,,,,,,61035c6dabf4c24bbcec1b90,61036bdcb1bd52c528ebd7f8,2021-07-29_20h04.49.111,Simcolourproject_2stim_asymm_v5,2020.2.10,MacIntel,60,61025ae37ef11b136ea224fe,,,,,,,,,435,-43.40136719,27.7958374,1,0,0,response7disk,,1,-13.02362061,17.26461792,1,0,0,rectangle,-13.02362061,17.26461792,1,0,0,-13.02362061,17.26461792,1,0,0,1,32,192,81,1,,,,,,,,
,,,,,,,,,,,,,FF,,,,,,,,0.516,,,,,,,,,,,,,,,,,,,,,,61035c6dabf4c24bbcec1b90,61036bdcb1bd52c528ebd7f8,2021-07-29_20h04.49.111,Simcolourproject_2stim_asymm_v5,2020.2.10,MacIntel,60,61025ae37ef11b136ea224fe,,,,,,,,,1622,27.45751953,-24.95385742,1,0,0,response3disk,,5,16.18371582,-3.476776123,1,0,0,rectangle,16.18371582,-3.476776123,1,0,0,16.18371582,-3.476776123,1,0,0,1,33,193,136,1,,,,,,,,
,,,,,,,,,,,,,FF,,,,,,,,0.7662,,,,,,,,,,,,,,,,,,,,,,61035c6dabf4c24bbcec1b90,61036bdcb1bd52c528ebd7f8,2021-07-29_20h04.49.111,Simcolourproject_2stim_asymm_v5,2020.2.10,MacIntel,60,61025ae37ef11b136ea224fe,,,,,,,,,1521,-15.65270996,83.7897644,1,0,0,response7disk,,0,-11.27764893,2.667327881,1,0,0,rectangle,-11.27764893,2.667327881,1,0,0,-11.27764893,2.667327881,1,0,0,1,34,194,27,1,,,,,,,,
,,,,,,,,,,,,,FF,,,,,,,,0.8827,,,,,,,,,,,,,,,,,,,,,,61035c6dabf4c24bbcec1b90,61036bdcb1bd52c528ebd7f8,2021-07-29_20h04.49.111,Simcolourproject_2stim_asymm_v5,2020.2.10,MacIntel,60,61025ae37ef11b136ea224fe,,,,,,,,,3742,-80.94525146,25.36895752,1,0,0,response7disk,,1,-19.43450928,15.32391357,1,0,0,rectangle,-19.43450928,15.32391357,1,0,0,-19.43450928,15.32391357,1,0,0,1,35,195,159,1,,,,,,,,
,,,,,,,,,,,,,FF,,,,,,,,0.6998,,,,,,,,,,,,,,,,,,,,,,61035c6dabf4c24bbcec1b90,61036bdcb1bd52c528ebd7f8,2021-07-29_20h04.49.111,Simcolourproject_2stim_asymm_v5,2020.2.10,MacIntel,60,61025ae37ef11b136ea224fe,,,,,,,,,3701,-47.64746094,-92.76745605,1,0,0,response5disk,,3,-18.81799316,6.008666992,1,0,0,rectangle,-18.81799316,6.008666992,1,0,0,-18.81799316,6.008666992,1,0,0,1,36,196,77,1,,,,,,,,
,,,,,,,,,,,,,FF,,,,,,,,0.5195,,,,,,,,,,,,,,,,,,,,,,61035c6dabf4c24bbcec1b90,61036bdcb1bd52c528ebd7f8,2021-07-29_20h04.49.111,Simcolourproject_2stim_asymm_v5,2020.2.10,MacIntel,60,61025ae37ef11b136ea224fe,,,,,,,,,3658,39.73565674,21.8192749,1,0,0,response1disk,,6,11.53778076,-0.690368652,1,0,0,rectangle,11.53778076,-0.690368652,1,0,0,11.53778076,-0.690368652,1,0,0,1,37,197,47,1,,,,,,,,
,,,,,,,,,,,,,FF,,,,,,,,0.6513,,,,,,,,,,,,,,,,,,,,,,61035c6dabf4c24bbcec1b90,61036bdcb1bd52c528ebd7f8,2021-07-29_20h04.49.111,Simcolourproject_2stim_asymm_v5,2020.2.10,MacIntel,60,61025ae37ef11b136ea224fe,,,,,,,,,3990,-26.58551025,-20.96401978,1,0,0,response5disk,,2,-18.76525879,8.080810547,1,0,0,rectangle,-18.76525879,8.080810547,1,0,0,-18.76525879,8.080810547,1,0,0,1,38,198,75,1,,,,,,,,
,,,,,,,,,,,,,FF,,,,,,,,0.9318,,,,,,,,,,,,,,,,,,,,,,61035c6dabf4c24bbcec1b90,61036bdcb1bd52c528ebd7f8,2021-07-29_20h04.49.111,Simcolourproject_2stim_asymm_v5,2020.2.10,MacIntel,60,61025ae37ef11b136ea224fe,,,,,,,,,3868,27.79675293,-41.14813232,1,0,0,response3disk,,4,18.69812012,-17.32345581,1,0,0,rectangle,18.69812012,-17.32345581,1,0,0,18.69812012,-17.32345581,1,0,0,1,39,199,33,1,,,,,,,,
,,,,,,,,,,,,,FF,,,,,,,,0.8331,,,,,,,,,,,,,,,,,,,,,,61035c6dabf4c24bbcec1b90,61036bdcb1bd52c528ebd7f8,2021-07-29_20h04.49.111,Simcolourproject_2stim_asymm_v5,2020.2.10,MacIntel,60,61025ae37ef11b136ea224fe,,,,,,,,,4141,-51.61828613,-28.08496094,1,0,0,response5disk,,2,-25.79229736,-12.5256958,1,0,0,rectangle,-25.79229736,-12.5256958,1,0,0,-25.79229736,-12.5256958,1,0,0,1,40,200,65,1,,,,,,,,
,,,,,,,,,,,,,FF,,,,,,,,0.567,,,,,,,,,,,,,,,,,,,,,,61035c6dabf4c24bbcec1b90,61036bdcb1bd52c528ebd7f8,2021-07-29_20h04.49.111,Simcolourproject_2stim_asymm_v5,2020.2.10,MacIntel,60,61025ae37ef11b136ea224fe,,,,,,,,,1668,-41.07684326,-50.61334229,1,0,0,response5disk,,3,-22.456604,5.57208252,1,0,0,rectangle,-22.456604,5.57208252,1,0,0,-22.456604,5.57208252,1,0,0,1,41,201,130,1,,,,,,,,
,,,,,,,,,,,,,FF,,,,,,,,0.5051,,,,,,,,,,,,,,,,,,,,,,61035c6dabf4c24bbcec1b90,61036bdcb1bd52c528ebd7f8,2021-07-29_20h04.49.111,Simcolourproject_2stim_asymm_v5,2020.2.10,MacIntel,60,61025ae37ef11b136ea224fe,,,,,,,,,2657,-53.0592041,-28.56591797,1,0,0,response5disk,,2,-22.03619385,-13.63348389,1,0,0,rectangle,-22.03619385,-13.63348389,1,0,0,-22.03619385,-13.63348389,1,0,0,1,42,202,102,1,,,,,,,,
,,,,,,,,,,,,,FF,,,,,,,,0.7135,,,,,,,,,,,,,,,,,,,,,,61035c6dabf4c24bbcec1b90,61036bdcb1bd52c528ebd7f8,2021-07-29_20h04.49.111,Simcolourproject_2stim_asymm_v5,2020.2.10,MacIntel,60,61025ae37ef11b136ea224fe,,,,,,,,,26,35.59051514,-27.51055908,1,0,0,response3disk,,5,18.84338379,-17.54421997,1,0,0,rectangle,18.84338379,-17.54421997,1,0,0,18.84338379,-17.54421997,1,0,0,1,43,203,92,1,,,,,,,,
,,,,,,,,,,,,,FF,,,,,,,,0.6325,,,,,,,,,,,,,,,,,,,,,,61035c6dabf4c24bbcec1b90,61036bdcb1bd52c528ebd7f8,2021-07-29_20h04.49.111,Simcolourproject_2stim_asymm_v5,2020.2.10,MacIntel,60,61025ae37ef11b136ea224fe,,,,,,,,,4152,62.72369385,41.56021118,1,0,0,response1disk,,6,-2.022277832,10.40075684,1,0,0,rectangle,-2.022277832,10.40075684,1,0,0,-2.022277832,10.40075684,1,0,0,1,44,204,109,1,,,,,,,,
,,,,,,,,,,,,,FF,,,,,,,,0.7499,,,,,,,,,,,,,,,,,,,,,,61035c6dabf4c24bbcec1b90,61036bdcb1bd52c528ebd7f8,2021-07-29_20h04.49.111,Simcolourproject_2stim_asymm_v5,2020.2.10,MacIntel,60,61025ae37ef11b136ea224fe,,,,,,,,,2949,19.11999512,-37.58981323,1,0,0,response3disk,,4,8.788879395,10.46035767,1,0,0,rectangle,-36.15997314,-50.86883545,1,0,0,-6.374023438,6.548675537,1,0,0,1,45,205,88,1,,response5disk_3,TRUE,3,3,"[83,211,154,206,152,230,189,3,294,42,222,115,311,146,151,306,101,158,149,129]",1.8665,rectangle
,,,,,,,,,,,,,FF,,,,,,,,0.749,,,,,,,,,,,,,,,,,,,,,,61035c6dabf4c24bbcec1b90,61036bdcb1bd52c528ebd7f8,2021-07-29_20h04.49.111,Simcolourproject_2stim_asymm_v5,2020.2.10,MacIntel,60,61025ae37ef11b136ea224fe,,,,,,,,,849,34.21508789,-22.93429565,1,0,0,response3disk,,5,24.68084717,-10.98425293,1,0,0,rectangle,24.68084717,-10.98425293,1,0,0,24.68084717,-10.98425293,1,0,0,1,46,206,114,1,,,,,,,,
,,,,,,,,,,,,,FF,,,,,,,,0.7476,,,,,,,,,,,,,,,,,,,,,,61035c6dabf4c24bbcec1b90,61036bdcb1bd52c528ebd7f8,2021-07-29_20h04.49.111,Simcolourproject_2stim_asymm_v5,2020.2.10,MacIntel,60,61025ae37ef11b136ea224fe,,,,,,,,,2827,-33.52008057,-52.84075928,1,0,0,response5disk,,3,-28.97814941,-0.075256348,1,0,0,rectangle,-28.97814941,-0.075256348,1,0,0,-28.97814941,-0.075256348,1,0,0,1,47,207,68,1,,,,,,,,
,,,,,,,,,,,,,FF,,,,,,,,1.1477,,,,,,,,,,,,,,,,,,,,,,61035c6dabf4c24bbcec1b90,61036bdcb1bd52c528ebd7f8,2021-07-29_20h04.49.111,Simcolourproject_2stim_asymm_v5,2020.2.10,MacIntel,60,61025ae37ef11b136ea224fe,,,,,,,,,4369,-45.82104492,32.18334961,1,0,0,response7disk,,1,-28.93823242,8.705383301,1,0,0,rectangle,-28.93823242,8.705383301,1,0,0,-28.93823242,8.705383301,1,0,0,1,48,208,80,1,,,,,,,,
,,,,,,,,,,,,,FF,,,,,,,,0.834,,,,,,,,,,,,,,,,,,,,,,61035c6dabf4c24bbcec1b90,61036bdcb1bd52c528ebd7f8,2021-07-29_20h04.49.111,Simcolourproject_2stim_asymm_v5,2020.2.10,MacIntel,60,61025ae37ef11b136ea224fe,,,,,,,,,1192,41.56140137,-27.11422729,1,0,0,response3disk,,5,7.669433594,-17.28842163,1,0,0,rectangle,7.669433594,-17.28842163,1,0,0,7.669433594,-17.28842163,1,0,0,1,49,209,87,1,,,,,,,,
,,,,,,,,,,,,,FF,,,,,,,,0.6985,,,,,,,,,,,,,,,,,,,,,,61035c6dabf4c24bbcec1b90,61036bdcb1bd52c528ebd7f8,2021-07-29_20h04.49.111,Simcolourproject_2stim_asymm_v5,2020.2.10,MacIntel,60,61025ae37ef11b136ea224fe,,,,,,,,,1421,22.9017334,-48.91659546,1,0,0,response3disk,,4,10.88818359,-1.762481689,1,0,0,rectangle,23.5814209,71.05892944,1,0,0,24.89312744,15.37982178,1,0,0,1,50,210,69,1,,response1disk_3,TRUE,7,7,"[83,211,154,206,152,230,189,3,294,42,222,115,311,146,151,306,101,158,149,129]",1.5189,rectangle
,,,,,,,,,,,,,FF,,,,,,,,0.7131,,,,,,,,,,,,,,,,,,,,,,61035c6dabf4c24bbcec1b90,61036bdcb1bd52c528ebd7f8,2021-07-29_20h04.49.111,Simcolourproject_2stim_asymm_v5,2020.2.10,MacIntel,60,61025ae37ef11b136ea224fe,,,,,,,,,3057,29.54376221,30.33786011,1,0,0,response1disk,,7,3.551757813,3.976623535,1,0,0,rectangle,3.551757813,3.976623535,1,0,0,3.551757813,3.976623535,1,0,0,1,51,211,17,1,,,,,,,,
,,,,,,,,,,,,,FF,,,,,,,,0.5691,,,,,,,,,,,,,,,,,,,,,,61035c6dabf4c24bbcec1b90,61036bdcb1bd52c528ebd7f8,2021-07-29_20h04.49.111,Simcolourproject_2stim_asymm_v5,2020.2.10,MacIntel,60,61025ae37ef11b136ea224fe,,,,,,,,,899,-42.35394287,-43.08602905,1,0,0,response5disk,,3,-4.19744873,-12.16836548,1,0,0,rectangle,-4.19744873,-12.16836548,1,0,0,-4.19744873,-12.16836548,1,0,0,1,52,212,59,1,,,,,,,,
,,,,,,,,,,,,,FF,,,,,,,,0.8011,,,,,,,,,,,,,,,,,,,,,,61035c6dabf4c24bbcec1b90,61036bdcb1bd52c528ebd7f8,2021-07-29_20h04.49.111,Simcolourproject_2stim_asymm_v5,2020.2.10,MacIntel,60,61025ae37ef11b136ea224fe,,,,,,,,,1166,-61.70263672,-21.93002319,1,0,0,response5disk,,2,-7.119934082,-17.95001221,1,0,0,rectangle,-7.119934082,-17.95001221,1,0,0,-7.119934082,-17.95001221,1,0,0,1,53,213,62,1,,,,,,,,
,,,,,,,,,,,,,FF,,,,,,,,0.6495,,,,,,,,,,,,,,,,,,,,,,61035c6dabf4c24bbcec1b90,61036bdcb1bd52c528ebd7f8,2021-07-29_20h04.49.111,Simcolourproject_2stim_asymm_v5,2020.2.10,MacIntel,60,61025ae37ef11b136ea224fe,,,,,,,,,2913,60.77941895,-64.37188721,1,0,0,response3disk,,4,25.6607666,-12.04006958,1,0,0,rectangle,25.6607666,-12.04006958,1,0,0,25.6607666,-12.04006958,1,0,0,1,54,214,4,1,,,,,,,,
,,,,,,,,,,,,,FF,,,,,,,,0.286,,,,,,,,,,,,,,,,,,,,,,61035c6dabf4c24bbcec1b90,61036bdcb1bd52c528ebd7f8,2021-07-29_20h04.49.111,Simcolourproject_2stim_asymm_v5,2020.2.10,MacIntel,60,61025ae37ef11b136ea224fe,,,,,,,,,1983,88.86303711,-50.60177612,1,0,0,response3disk,,5,30.22790527,3.777160645,1,0,0,rectangle,30.22790527,3.777160645,1,0,0,30.22790527,3.777160645,1,0,0,1,55,215,149,1,,,,,,,,
,,,,,,,,,,,,,FF,,,,,,,,1.0468,,,,,,,,,,,,,,,,,,,,,,61035c6dabf4c24bbcec1b90,61036bdcb1bd52c528ebd7f8,2021-07-29_20h04.49.111,Simcolourproject_2stim_asymm_v5,2020.2.10,MacIntel,60,61025ae37ef11b136ea224fe,,,,,,,,,2549,-43.34613037,-40.18603516,1,0,0,response5disk,,2,-4.277648926,7.87210083,1,0,0,rectangle,-4.277648926,7.87210083,1,0,0,-4.277648926,7.87210083,1,0,0,1,56,216,3,1,,,,,,,,
,,,,,,,,,,,,,FF,,,,,,,,0.4647,,,,,,,,,,,,,,,,,,,,,,61035c6dabf4c24bbcec1b90,61036bdcb1bd52c528ebd7f8,2021-07-29_20h04.49.111,Simcolourproject_2stim_asymm_v5,2020.2.10,MacIntel,60,61025ae37ef11b136ea224fe,,,,,,,,,1358,68.12432861,-56.65609741,1,0,0,response3disk,,5,27.66253662,-13.72323608,1,0,0,rectangle,27.66253662,-13.72323608,1,0,0,27.66253662,-13.72323608,1,0,0,1,57,217,19,1,,,,,,,,
,,,,,,,,,,,,,FF,,,,,,,,0.4462,,,,,,,,,,,,,,,,,,,,,,61035c6dabf4c24bbcec1b90,61036bdcb1bd52c528ebd7f8,2021-07-29_20h04.49.111,Simcolourproject_2stim_asymm_v5,2020.2.10,MacIntel,60,61025ae37ef11b136ea224fe,,,,,,,,,4259,55.08905029,-33.68356323,1,0,0,response3disk,,5,30.2411499,12.56072998,1,0,0,rectangle,30.2411499,12.56072998,1,0,0,30.2411499,12.56072998,1,0,0,1,58,218,148,1,,,,,,,,
,,,,,,,,,,,,,FF,,,,,,,,0.614,,,,,,,,,,,,,,,,,,,,,,61035c6dabf4c24bbcec1b90,61036bdcb1bd52c528ebd7f8,2021-07-29_20h04.49.111,Simcolourproject_2stim_asymm_v5,2020.2.10,MacIntel,60,61025ae37ef11b136ea224fe,,,,,,,,,728,49.68011475,-59.519104,1,0,0,response3disk,,4,24.89019775,-1.780975342,1,0,0,rectangle,24.89019775,-1.780975342,1,0,0,24.89019775,-1.780975342,1,0,0,1,59,219,49,1,,,,,,,,
,,,,,,,,,,,,,FF,,,,,,,,0.7136,,,,,,,,,,,,,,,,,,,,,,61035c6dabf4c24bbcec1b90,61036bdcb1bd52c528ebd7f8,2021-07-29_20h04.49.111,Simcolourproject_2stim_asymm_v5,2020.2.10,MacIntel,60,61025ae37ef11b136ea224fe,,,,,,,,,2646,91.6864624,-28.99621582,1,0,0,response3disk,,5,24.7522583,-9.019073486,1,0,0,rectangle,24.7522583,-9.019073486,1,0,0,24.7522583,-9.019073486,1,0,0,1,60,220,6,1,,,,,,,,
,,,,,,,,,,,,,FF,,,,,,,,0.5507,,,,,,,,,,,,,,,,,,,,,,61035c6dabf4c24bbcec1b90,61036bdcb1bd52c528ebd7f8,2021-07-29_20h04.49.111,Simcolourproject_2stim_asymm_v5,2020.2.10,MacIntel,60,61025ae37ef11b136ea224fe,,,,,,,,,1984,-60.80908203,-51.17102051,1,0,0,response5disk,,2,-19.73144531,-11.64141846,1,0,0,rectangle,-95.58691406,78.72973633,1,0,0,18.07745361,7.957397461,1,0,0,1,61,221,22,1,,response7disk_3,TRUE,1,1,"[83,211,154,206,152,230,189,3,294,42,222,115,311,146,151,306,101,158,149,129]",1.3665,rectangle
,,,,,,,,,,,,,FF,,,,,,,,0.3792,,,,,,,,,,,,,,,,,,,,,,61035c6dabf4c24bbcec1b90,61036bdcb1bd52c528ebd7f8,2021-07-29_20h04.49.111,Simcolourproject_2stim_asymm_v5,2020.2.10,MacIntel,60,61025ae37ef11b136ea224fe,,,,,,,,,2854,85.80023193,-24.09042358,1,0,0,response3disk,,5,18.71081543,-6.30670166,1,0,0,rectangle,18.71081543,-6.30670166,1,0,0,18.71081543,-6.30670166,1,0,0,1,62,222,26,1,,,,,,,,
,,,,,,,,,,,,,FF,,,,,,,,0.5003,,,,,,,,,,,,,,,,,,,,,,61035c6dabf4c24bbcec1b90,61036bdcb1bd52c528ebd7f8,2021-07-29_20h04.49.111,Simcolourproject_2stim_asymm_v5,2020.2.10,MacIntel,60,61025ae37ef11b136ea224fe,,,,,,,,,2244,31.00201416,-41.3649292,1,0,0,response3disk,,4,14.53875732,15.66802979,1,0,0,rectangle,14.53875732,15.66802979,1,0,0,14.53875732,15.66802979,1,0,0,1,63,223,128,1,,,,,,,,
,,,,,,,,,,,,,FF,,,,,,,,0.4165,,,,,,,,,,,,,,,,,,,,,,61035c6dabf4c24bbcec1b90,61036bdcb1bd52c528ebd7f8,2021-07-29_20h04.49.111,Simcolourproject_2stim_asymm_v5,2020.2.10,MacIntel,60,61025ae37ef11b136ea224fe,,,,,,,,,1515,62.78790283,-36.80865479,1,0,0,response3disk,,5,30.91986084,-17.4598999,1,0,0,rectangle,30.91986084,-17.4598999,1,0,0,30.91986084,-17.4598999,1,0,0,1,64,224,41,1,,,,,,,,
,,,,,,,,,,,,,FF,,,,,,,,0.8474,,,,,,,,,,,,,,,,,,,,,,61035c6dabf4c24bbcec1b90,61036bdcb1bd52c528ebd7f8,2021-07-29_20h04.49.111,Simcolourproject_2stim_asymm_v5,2020.2.10,MacIntel,60,61025ae37ef11b136ea224fe,,,,,,,,,1677,-59.51672363,26.68383789,1,0,0,response7disk,,1,-7.452209473,11.39712524,1,0,0,rectangle,-7.452209473,11.39712524,1,0,0,-7.452209473,11.39712524,1,0,0,1,65,225,113,1,,,,,,,,
,,,,,,,,,,,,,FF,,,,,,,,0.5329,,,,,,,,,,,,,,,,,,,,,,61035c6dabf4c24bbcec1b90,61036bdcb1bd52c528ebd7f8,2021-07-29_20h04.49.111,Simcolourproject_2stim_asymm_v5,2020.2.10,MacIntel,60,61025ae37ef11b136ea224fe,,,,,,,,,2906,72.62207031,-40.84909058,1,0,0,response3disk,,5,29.23803711,-8.238037109,1,0,0,rectangle,29.23803711,-8.238037109,1,0,0,29.23803711,-8.238037109,1,0,0,1,66,226,131,1,,,,,,,,
,,,,,,,,,,,,,FF,,,,,,,,1.3668,,,,,,,,,,,,,,,,,,,,,,61035c6dabf4c24bbcec1b90,61036bdcb1bd52c528ebd7f8,2021-07-29_20h04.49.111,Simcolourproject_2stim_asymm_v5,2020.2.10,MacIntel,60,61025ae37ef11b136ea224fe,,,,,,,,,3560,-54.77606201,-17.74127197,1,0,0,response5disk,,2,-24.74157715,4.40725708,1,0,0,rectangle,-24.74157715,4.40725708,1,0,0,-24.74157715,4.40725708,1,0,0,1,67,227,98,1,,,,,,,,
,,,,,,,,,,,,,FF,,,,,,,,0.6971,,,,,,,,,,,,,,,,,,,,,,61035c6dabf4c24bbcec1b90,61036bdcb1bd52c528ebd7f8,2021-07-29_20h04.49.111,Simcolourproject_2stim_asymm_v5,2020.2.10,MacIntel,60,61025ae37ef11b136ea224fe,,,,,,,,,816,54.34094238,-64.97296143,1,0,0,response3disk,,4,-4.863708496,-1.195617676,1,0,0,rectangle,-4.863708496,-1.195617676,1,0,0,-4.863708496,-1.195617676,1,0,0,1,68,228,103,1,,,,,,,,
,,,,,,,,,,,,,FF,,,,,,,,0.567,,,,,,,,,,,,,,,,,,,,,,61035c6dabf4c24bbcec1b90,61036bdcb1bd52c528ebd7f8,2021-07-29_20h04.49.111,Simcolourproject_2stim_asymm_v5,2020.2.10,MacIntel,60,61025ae37ef11b136ea224fe,,,,,,,,,3524,-36.4979248,-18.21246338,1,0,0,response5disk,,2,20.70581055,-12.09841919,1,0,0,rectangle,15.97186279,-84.57043457,1,0,0,5.933898926,-6.808013916,1,0,0,1,69,229,42,1,,response3disk_3,TRUE,4,4,"[83,211,154,206,152,230,189,3,294,42,222,115,311,146,151,306,101,158,149,129]",1.6331,rectangle
,,,,,,,,,,,,,FF,,,,,,,,2.1657,,,,,,,,,,,,,,,,,,,,,,61035c6dabf4c24bbcec1b90,61036bdcb1bd52c528ebd7f8,2021-07-29_20h04.49.111,Simcolourproject_2stim_asymm_v5,2020.2.10,MacIntel,60,61025ae37ef11b136ea224fe,,,,,,,,,292,-33.54071045,-62.74719238,1,0,0,response5disk,,3,11.15618896,6.378143311,1,0,0,rectangle,11.15618896,6.378143311,1,0,0,11.15618896,6.378143311,1,0,0,1,70,230,56,1,,,,,,,,
,,,,,,,,,,,,,FF,,,,,,,,0.615,,,,,,,,,,,,,,,,,,,,,,61035c6dabf4c24bbcec1b90,61036bdcb1bd52c528ebd7f8,2021-07-29_20h04.49.111,Simcolourproject_2stim_asymm_v5,2020.2.10,MacIntel,60,61025ae37ef11b136ea224fe,,,,,,,,,954,94.96051025,-43.85809326,1,0,0,response3disk,,5,-0.743225098,5.458984375,1,0,0,rectangle,-0.743225098,5.458984375,1,0,0,-0.743225098,5.458984375,1,0,0,1,71,231,158,1,,,,,,,,
,,,,,,,,,,,,,FF,,,,,,,,0.2686,,,,,,,,,,,,,,,,,,,,,,61035c6dabf4c24bbcec1b90,61036bdcb1bd52c528ebd7f8,2021-07-29_20h04.49.111,Simcolourproject_2stim_asymm_v5,2020.2.10,MacIntel,60,61025ae37ef11b136ea224fe,,,,,,,,,586,-62.24987793,-40.13162231,1,0,0,response5disk,,2,-8.941711426,-7.40057373,1,0,0,rectangle,-8.941711426,-7.40057373,1,0,0,-8.941711426,-7.40057373,1,0,0,1,72,232,50,1,,,,,,,,
,,,,,,,,,,,,,FF,,,,,,,,0.5019,,,,,,,,,,,,,,,,,,,,,,61035c6dabf4c24bbcec1b90,61036bdcb1bd52c528ebd7f8,2021-07-29_20h04.49.111,Simcolourproject_2stim_asymm_v5,2020.2.10,MacIntel,60,61025ae37ef11b136ea224fe,,,,,,,,,3986,-29.03295898,-65.34350586,1,0,0,response5disk,,3,-15.2166748,-2.06942749,1,0,0,rectangle,-15.2166748,-2.06942749,1,0,0,-15.2166748,-2.06942749,1,0,0,1,73,233,1,1,,,,,,,,
,,,,,,,,,,,,,FF,,,,,,,,0.4217,,,,,,,,,,,,,,,,,,,,,,61035c6dabf4c24bbcec1b90,61036bdcb1bd52c528ebd7f8,2021-07-29_20h04.49.111,Simcolourproject_2stim_asymm_v5,2020.2.10,MacIntel,60,61025ae37ef11b136ea224fe,,,,,,,,,4110,-38.25256348,-61.8548584,1,0,0,response5disk,,3,-17.36456299,-12.16104126,1,0,0,rectangle,-17.36456299,-12.16104126,1,0,0,-17.36456299,-12.16104126,1,0,0,1,74,234,73,1,,,,,,,,
,,,,,,,,,,,,,FF,,,,,,,,0.362,,,,,,,,,,,,,,,,,,,,,,61035c6dabf4c24bbcec1b90,61036bdcb1bd52c528ebd7f8,2021-07-29_20h04.49.111,Simcolourproject_2stim_asymm_v5,2020.2.10,MacIntel,60,61025ae37ef11b136ea224fe,,,,,,,,,2308,-44.30651855,-66.1776123,1,0,0,response5disk,,3,-24.29467773,-3.029418945,1,0,0,rectangle,-24.29467773,-3.029418945,1,0,0,-24.29467773,-3.029418945,1,0,0,1,75,235,147,1,,,,,,,,
,,,,,,,,,,,,,FF,,,,,,,,0.6631,,,,,,,,,,,,,,,,,,,,,,61035c6dabf4c24bbcec1b90,61036bdcb1bd52c528ebd7f8,2021-07-29_20h04.49.111,Simcolourproject_2stim_asymm_v5,2020.2.10,MacIntel,60,61025ae37ef11b136ea224fe,,,,,,,,,1963,-36.02404785,47.11941528,1,0,0,response7disk,,0,4.204956055,-6.331054688,1,0,0,rectangle,4.204956055,-6.331054688,1,0,0,4.204956055,-6.331054688,1,0,0,1,76,236,10,1,,,,,,,,
,,,,,,,,,,,,,FF,,,,,,,,0.6334,,,,,,,,,,,,,,,,,,,,,,61035c6dabf4c24bbcec1b90,61036bdcb1bd52c528ebd7f8,2021-07-29_20h04.49.111,Simcolourproject_2stim_asymm_v5,2020.2.10,MacIntel,60,61025ae37ef11b136ea224fe,,,,,,,,,4202,-74.61126709,-44.98162842,1,0,0,response5disk,,2,-16.41717529,-7.499694824,1,0,0,rectangle,-16.41717529,-7.499694824,1,0,0,-16.41717529,-7.499694824,1,0,0,1,77,237,108,1,,,,,,,,
,,,,,,,,,,,,,FF,,,,,,,,0.4322,,,,,,,,,,,,,,,,,,,,,,61035c6dabf4c24bbcec1b90,61036bdcb1bd52c528ebd7f8,2021-07-29_20h04.49.111,Simcolourproject_2stim_asymm_v5,2020.2.10,MacIntel,60,61025ae37ef11b136ea224fe,,,,,,,,,1871,68.0914917,-33.12536621,1,0,0,response3disk,,5,33.17907715,1.520935059,1,0,0,rectangle,33.17907715,1.520935059,1,0,0,33.17907715,1.520935059,1,0,0,1,78,238,86,1,,,,,,,,
,,,,,,,,,,,,,FF,,,,,,,,0.5164,,,,,,,,,,,,,,,,,,,,,,61035c6dabf4c24bbcec1b90,61036bdcb1bd52c528ebd7f8,2021-07-29_20h04.49.111,Simcolourproject_2stim_asymm_v5,2020.2.10,MacIntel,60,61025ae37ef11b136ea224fe,,,,,,,,,3457,58.20812988,-25.32281494,1,0,0,response3disk,,5,18.35266113,6.074798584,1,0,0,rectangle,18.35266113,6.074798584,1,0,0,18.35266113,6.074798584,1,0,0,1,79,239,18,1,,,,,,,,
