key_resp.keys,key_resp.rt,key_resp_14.keys,key_resp_14.rt,key_resp_15.keys,key_resp_15.rt,key_resp_17.keys,key_resp_17.rt,key_resp_9.keys,key_resp_9.rt,key_resp_10.keys,key_resp_10.rt,practice_comparison,Ecc,mouse_5.x,mouse_5.y,mouse_5.leftButton,mouse_5.midButton,mouse_5.rightButton,mouse_5.clicked_name,pracsimilarity,response_time,mouse_10.x,mouse_10.y,mouse_10.leftButton,mouse_10.midButton,mouse_10.rightButton,mouse_10.clicked_name,mouse_7.x,mouse_7.y,mouse_7.leftButton,mouse_7.midButton,mouse_7.rightButton,mouse_6.x,mouse_6.y,mouse_6.leftButton,mouse_6.midButton,mouse_6.rightButton,duringprac.thisRepN,duringprac.thisTrialN,duringprac.thisN,duringprac.thisIndex,duringprac.ran,participant,session,date,expName,psychopyVersion,OS,frameRate,study_id,mouse_7.clicked_name,catchpracsimilarity,catch_response_time,catchnumberprac,catchtrialorderprac,mouse_6.clicked_name,key_resp_22.keys,key_resp_22.rt,realcomparison,mouse.x,mouse.y,mouse.leftButton,mouse.midButton,mouse.rightButton,mouse.clicked_name,Colour2,similarity,mouse_2.x,mouse_2.y,mouse_2.leftButton,mouse_2.midButton,mouse_2.rightButton,mouse_2.clicked_name,mouse_3.x,mouse_3.y,mouse_3.leftButton,mouse_3.midButton,mouse_3.rightButton,mouse_11.x,mouse_11.y,mouse_11.leftButton,mouse_11.midButton,mouse_11.rightButton,trials_2.thisRepN,trials_2.thisTrialN,trials_2.thisN,trials_2.thisIndex,trials_2.ran,Colour1,mouse_3.clicked_name,catchornah,catchsimilarity,catchnumber,catchtrialorder,catchRT,mouse_11.clicked_name
space,2.4171,space,18.6254,space,29.7131,space,12.4574,space,7.2293,space,2.9584,143,PF,-131,-57,1,0,0,response5disk_5,2,7.8544,22,10,1,0,0,rectangle_8,22,10,1,0,0,22,10,1,0,0,0,0,0,4,1,61032728290ef8e5d30afcaf,610369d0292d5a54a075b5e9,2021-07-29_23h00.16.077,Simcolourproject_2stim_asymm_v5,2020.2.10,Win32,60,61025ae37ef11b136ea224fe,,,,,,,,,,,,,,,,,,,,,,,,,,,,,,,,,,,,,,,,,,,,,,
,,,,,,,,,,,,29,FF,136,76,1,0,0,response1disk_5,6,3.1844,-15,0,1,0,0,rectangle_8,-119,-56,1,0,0,12,13,1,0,0,0,1,1,3,1,61032728290ef8e5d30afcaf,610369d0292d5a54a075b5e9,2021-07-29_23h00.16.077,Simcolourproject_2stim_asymm_v5,2020.2.10,Win32,60,61025ae37ef11b136ea224fe,response5disk_7,2,4.3353,2,"[2,5]",rectangle_4,,,,,,,,,,,,,,,,,,,,,,,,,,,,,,,,,,,,,,,,
,,,,,,,,,,,,83,PF,60,-130,1,0,0,response3disk_5,4,3.4848,28,15,1,0,0,rectangle_8,28,15,1,0,0,28,15,1,0,0,0,2,2,1,1,61032728290ef8e5d30afcaf,610369d0292d5a54a075b5e9,2021-07-29_23h00.16.077,Simcolourproject_2stim_asymm_v5,2020.2.10,Win32,60,61025ae37ef11b136ea224fe,,,,,,,,,,,,,,,,,,,,,,,,,,,,,,,,,,,,,,,,,,,,,,
,,,,,,,,,,,,84,PF,116,-53,1,0,0,response3disk_5,5,5.8521,29,3,1,0,0,rectangle_8,29,3,1,0,0,29,3,1,0,0,0,3,3,6,1,61032728290ef8e5d30afcaf,610369d0292d5a54a075b5e9,2021-07-29_23h00.16.077,Simcolourproject_2stim_asymm_v5,2020.2.10,Win32,60,61025ae37ef11b136ea224fe,,,,,,,,,,,,,,,,,,,,,,,,,,,,,,,,,,,,,,,,,,,,,,
,,,,,,,,,,,,36,FF,-88,66,1,0,0,response7disk_5,1,1.7173,23,2,1,0,0,rectangle_8,-110,-57,1,0,0,1,9,1,0,0,0,4,4,0,1,61032728290ef8e5d30afcaf,610369d0292d5a54a075b5e9,2021-07-29_23h00.16.077,Simcolourproject_2stim_asymm_v5,2020.2.10,Win32,60,61025ae37ef11b136ea224fe,response5disk_7,2,2.8343,2,"[2,5]",rectangle_4,,,,,,,,,,,,,,,,,,,,,,,,,,,,,,,,,,,,,,,,
,,,,,,,,,,,,43,PF,-57,-100,1,0,0,response5disk_5,3,1.9174,-5,11,1,0,0,rectangle_8,-5,11,1,0,0,-5,11,1,0,0,0,5,5,2,1,61032728290ef8e5d30afcaf,610369d0292d5a54a075b5e9,2021-07-29_23h00.16.077,Simcolourproject_2stim_asymm_v5,2020.2.10,Win32,60,61025ae37ef11b136ea224fe,,,,,,,,,,,,,,,,,,,,,,,,,,,,,,,,,,,,,,,,,,,,,,
,,,,,,,,,,,,125,FF,-95,-42,1,0,0,response5disk_5,2,1.3671,4,-8,1,0,0,rectangle_8,4,-8,1,0,0,4,-8,1,0,0,0,6,6,5,1,61032728290ef8e5d30afcaf,610369d0292d5a54a075b5e9,2021-07-29_23h00.16.077,Simcolourproject_2stim_asymm_v5,2020.2.10,Win32,60,61025ae37ef11b136ea224fe,,,,,,,,,,,,,,,,,,,,,,,,,,,,,,,,,,,,,,,,,,,,,,
,,,,,,,,,,,,,FF,,,,,,,,1.6671,,,,,,,,,,,,,,,,,,,,,,61032728290ef8e5d30afcaf,610369d0292d5a54a075b5e9,2021-07-29_23h00.16.077,Simcolourproject_2stim_asymm_v5,2020.2.10,Win32,60,61025ae37ef11b136ea224fe,,,,,,,space,4.2638,3637,-111,60,1,0,0,response7disk,,1,7,4,1,0,0,rectangle,7,4,1,0,0,7,4,1,0,0,0,0,0,6,1,,,,,,,,
,,,,,,,,,,,,,FF,,,,,,,,2.5342,,,,,,,,,,,,,,,,,,,,,,61032728290ef8e5d30afcaf,610369d0292d5a54a075b5e9,2021-07-29_23h00.16.077,Simcolourproject_2stim_asymm_v5,2020.2.10,Win32,60,61025ae37ef11b136ea224fe,,,,,,,,,1810,-123,-49,1,0,0,response5disk,,2,2,-5,1,0,0,rectangle,2,-5,1,0,0,2,-5,1,0,0,0,1,1,148,1,,,,,,,,
,,,,,,,,,,,,,FF,,,,,,,,0.9336,,,,,,,,,,,,,,,,,,,,,,61032728290ef8e5d30afcaf,610369d0292d5a54a075b5e9,2021-07-29_23h00.16.077,Simcolourproject_2stim_asymm_v5,2020.2.10,Win32,60,61025ae37ef11b136ea224fe,,,,,,,,,344,64,-103,1,0,0,response3disk,,4,-2,-10,1,0,0,rectangle,-54,-102,1,0,0,-10,-9,1,0,0,0,2,2,83,1,,response5disk_3,TRUE,3,3,"[88,222,254,249,143,152,41,147,93,119,236,151,160,76,3,151,262,13,212,228]",1.8008,rectangle
,,,,,,,,,,,,,FF,,,,,,,,4.7516,,,,,,,,,,,,,,,,,,,,,,61032728290ef8e5d30afcaf,610369d0292d5a54a075b5e9,2021-07-29_23h00.16.077,Simcolourproject_2stim_asymm_v5,2020.2.10,Win32,60,61025ae37ef11b136ea224fe,,,,,,,,,1878,-37,-103,1,0,0,response5disk,,3,-7,-3,1,0,0,rectangle,-7,-3,1,0,0,-7,-3,1,0,0,0,3,3,100,1,,,,,,,,
,,,,,,,,,,,,,FF,,,,,,,,1.1169,,,,,,,,,,,,,,,,,,,,,,61032728290ef8e5d30afcaf,610369d0292d5a54a075b5e9,2021-07-29_23h00.16.077,Simcolourproject_2stim_asymm_v5,2020.2.10,Win32,60,61025ae37ef11b136ea224fe,,,,,,,,,2516,-38,-95,1,0,0,response5disk,,3,-11,-6,1,0,0,rectangle,-11,-6,1,0,0,-11,-6,1,0,0,0,4,4,137,1,,,,,,,,
,,,,,,,,,,,,,FF,,,,,,,,2.7843,,,,,,,,,,,,,,,,,,,,,,61032728290ef8e5d30afcaf,610369d0292d5a54a075b5e9,2021-07-29_23h00.16.077,Simcolourproject_2stim_asymm_v5,2020.2.10,Win32,60,61025ae37ef11b136ea224fe,,,,,,,,,1849,48,-65,1,0,0,response3disk,,4,13,-1,1,0,0,rectangle,13,-1,1,0,0,13,-1,1,0,0,0,5,5,16,1,,,,,,,,
,,,,,,,,,,,,,FF,,,,,,,,0.7668,,,,,,,,,,,,,,,,,,,,,,61032728290ef8e5d30afcaf,610369d0292d5a54a075b5e9,2021-07-29_23h00.16.077,Simcolourproject_2stim_asymm_v5,2020.2.10,Win32,60,61025ae37ef11b136ea224fe,,,,,,,,,4016,-24,-90,1,0,0,response5disk,,3,13,13,1,0,0,rectangle,13,13,1,0,0,13,13,1,0,0,0,6,6,8,1,,,,,,,,
,,,,,,,,,,,,,FF,,,,,,,,1.0503,,,,,,,,,,,,,,,,,,,,,,61032728290ef8e5d30afcaf,610369d0292d5a54a075b5e9,2021-07-29_23h00.16.077,Simcolourproject_2stim_asymm_v5,2020.2.10,Win32,60,61025ae37ef11b136ea224fe,,,,,,,,,2798,-100,-36,1,0,0,response5disk,,2,-2,-1,1,0,0,rectangle,-2,-1,1,0,0,-2,-1,1,0,0,0,7,7,9,1,,,,,,,,
,,,,,,,,,,,,,FF,,,,,,,,0.9836,,,,,,,,,,,,,,,,,,,,,,61032728290ef8e5d30afcaf,610369d0292d5a54a075b5e9,2021-07-29_23h00.16.077,Simcolourproject_2stim_asymm_v5,2020.2.10,Win32,60,61025ae37ef11b136ea224fe,,,,,,,,,2923,40,-67,1,0,0,response3disk,,4,-2,5,1,0,0,rectangle,-2,5,1,0,0,-2,5,1,0,0,0,8,8,4,1,,,,,,,,
,,,,,,,,,,,,,FF,,,,,,,,1.3004,,,,,,,,,,,,,,,,,,,,,,61032728290ef8e5d30afcaf,610369d0292d5a54a075b5e9,2021-07-29_23h00.16.077,Simcolourproject_2stim_asymm_v5,2020.2.10,Win32,60,61025ae37ef11b136ea224fe,,,,,,,,,2107,-75,52,1,0,0,response7disk,,1,1,2,1,0,0,rectangle,1,2,1,0,0,1,2,1,0,0,0,9,9,120,1,,,,,,,,
,,,,,,,,,,,,,FF,,,,,,,,2.1673,,,,,,,,,,,,,,,,,,,,,,61032728290ef8e5d30afcaf,610369d0292d5a54a075b5e9,2021-07-29_23h00.16.077,Simcolourproject_2stim_asymm_v5,2020.2.10,Win32,60,61025ae37ef11b136ea224fe,,,,,,,,,433,-38,-90,1,0,0,response5disk,,3,-12,1,1,0,0,rectangle,-12,1,1,0,0,-12,1,1,0,0,0,10,10,0,1,,,,,,,,
,,,,,,,,,,,,,FF,,,,,,,,1.7006,,,,,,,,,,,,,,,,,,,,,,61032728290ef8e5d30afcaf,610369d0292d5a54a075b5e9,2021-07-29_23h00.16.077,Simcolourproject_2stim_asymm_v5,2020.2.10,Win32,60,61025ae37ef11b136ea224fe,,,,,,,,,151,55,-106,1,0,0,response3disk,,4,17,0,1,0,0,rectangle,17,0,1,0,0,17,0,1,0,0,0,11,11,61,1,,,,,,,,
,,,,,,,,,,,,,FF,,,,,,,,3.3676,,,,,,,,,,,,,,,,,,,,,,61032728290ef8e5d30afcaf,610369d0292d5a54a075b5e9,2021-07-29_23h00.16.077,Simcolourproject_2stim_asymm_v5,2020.2.10,Win32,60,61025ae37ef11b136ea224fe,,,,,,,,,881,74,-103,1,0,0,response3disk,,4,-3,1,1,0,0,rectangle,-105,-38,1,0,0,-9,-20,1,0,0,0,12,12,62,1,,response5disk_3,TRUE,2,2,"[88,222,254,249,143,152,41,147,93,119,236,151,160,76,3,151,262,13,212,228]",1.4338,rectangle
,,,,,,,,,,,,,FF,,,,,,,,2.1507,,,,,,,,,,,,,,,,,,,,,,61032728290ef8e5d30afcaf,610369d0292d5a54a075b5e9,2021-07-29_23h00.16.077,Simcolourproject_2stim_asymm_v5,2020.2.10,Win32,60,61025ae37ef11b136ea224fe,,,,,,,,,3111,-104,42,1,0,0,response7disk,,1,-6,-10,1,0,0,rectangle,-6,-10,1,0,0,-6,-10,1,0,0,0,13,13,110,1,,,,,,,,
,,,,,,,,,,,,,FF,,,,,,,,1.3837,,,,,,,,,,,,,,,,,,,,,,61032728290ef8e5d30afcaf,610369d0292d5a54a075b5e9,2021-07-29_23h00.16.077,Simcolourproject_2stim_asymm_v5,2020.2.10,Win32,60,61025ae37ef11b136ea224fe,,,,,,,,,1405,-35,-108,1,0,0,response5disk,,3,4,2,1,0,0,rectangle,4,2,1,0,0,4,2,1,0,0,0,14,14,71,1,,,,,,,,
,,,,,,,,,,,,,FF,,,,,,,,1.0501,,,,,,,,,,,,,,,,,,,,,,61032728290ef8e5d30afcaf,610369d0292d5a54a075b5e9,2021-07-29_23h00.16.077,Simcolourproject_2stim_asymm_v5,2020.2.10,Win32,60,61025ae37ef11b136ea224fe,,,,,,,,,2799,-69,-98,1,0,0,response5disk,,3,1,-8,1,0,0,rectangle,1,-8,1,0,0,1,-8,1,0,0,0,15,15,145,1,,,,,,,,
,,,,,,,,,,,,,FF,,,,,,,,1.7839,,,,,,,,,,,,,,,,,,,,,,61032728290ef8e5d30afcaf,610369d0292d5a54a075b5e9,2021-07-29_23h00.16.077,Simcolourproject_2stim_asymm_v5,2020.2.10,Win32,60,61025ae37ef11b136ea224fe,,,,,,,,,518,-49,-82,1,0,0,response5disk,,3,-33,5,1,0,0,rectangle,-33,5,1,0,0,-33,5,1,0,0,0,16,16,72,1,,,,,,,,
,,,,,,,,,,,,,FF,,,,,,,,1.7508,,,,,,,,,,,,,,,,,,,,,,61032728290ef8e5d30afcaf,610369d0292d5a54a075b5e9,2021-07-29_23h00.16.077,Simcolourproject_2stim_asymm_v5,2020.2.10,Win32,60,61025ae37ef11b136ea224fe,,,,,,,,,1756,-134,-53,1,0,0,response5disk,,2,-13,12,1,0,0,rectangle,-13,12,1,0,0,-13,12,1,0,0,0,17,17,124,1,,,,,,,,
,,,,,,,,,,,,,FF,,,,,,,,1.6836,,,,,,,,,,,,,,,,,,,,,,61032728290ef8e5d30afcaf,610369d0292d5a54a075b5e9,2021-07-29_23h00.16.077,Simcolourproject_2stim_asymm_v5,2020.2.10,Win32,60,61025ae37ef11b136ea224fe,,,,,,,,,1545,107,-54,1,0,0,response3disk,,5,-3,11,1,0,0,rectangle,-3,11,1,0,0,-3,11,1,0,0,0,18,18,70,1,,,,,,,,
,,,,,,,,,,,,,FF,,,,,,,,1.1339,,,,,,,,,,,,,,,,,,,,,,61032728290ef8e5d30afcaf,610369d0292d5a54a075b5e9,2021-07-29_23h00.16.077,Simcolourproject_2stim_asymm_v5,2020.2.10,Win32,60,61025ae37ef11b136ea224fe,,,,,,,,,2067,37,-95,1,0,0,response3disk,,4,-18,3,1,0,0,rectangle,-18,3,1,0,0,-18,3,1,0,0,0,19,19,87,1,,,,,,,,
,,,,,,,,,,,,,FF,,,,,,,,3.718,,,,,,,,,,,,,,,,,,,,,,61032728290ef8e5d30afcaf,610369d0292d5a54a075b5e9,2021-07-29_23h00.16.077,Simcolourproject_2stim_asymm_v5,2020.2.10,Win32,60,61025ae37ef11b136ea224fe,,,,,,,,,112,100,-81,1,0,0,response3disk,,5,13,2,1,0,0,rectangle,13,2,1,0,0,13,2,1,0,0,0,20,20,84,1,,,,,,,,
,,,,,,,,,,,,,FF,,,,,,,,3.0508,,,,,,,,,,,,,,,,,,,,,,61032728290ef8e5d30afcaf,610369d0292d5a54a075b5e9,2021-07-29_23h00.16.077,Simcolourproject_2stim_asymm_v5,2020.2.10,Win32,60,61025ae37ef11b136ea224fe,,,,,,,,,749,-71,42,1,0,0,response7disk,,1,3,-1,1,0,0,rectangle,3,-1,1,0,0,3,-1,1,0,0,0,21,21,140,1,,,,,,,,
,,,,,,,,,,,,,FF,,,,,,,,3.0011,,,,,,,,,,,,,,,,,,,,,,61032728290ef8e5d30afcaf,610369d0292d5a54a075b5e9,2021-07-29_23h00.16.077,Simcolourproject_2stim_asymm_v5,2020.2.10,Win32,60,61025ae37ef11b136ea224fe,,,,,,,,,1872,114,-51,1,0,0,response3disk,,5,9,11,1,0,0,rectangle,9,11,1,0,0,9,11,1,0,0,0,22,22,34,1,,,,,,,,
,,,,,,,,,,,,,FF,,,,,,,,0.9166,,,,,,,,,,,,,,,,,,,,,,61032728290ef8e5d30afcaf,610369d0292d5a54a075b5e9,2021-07-29_23h00.16.077,Simcolourproject_2stim_asymm_v5,2020.2.10,Win32,60,61025ae37ef11b136ea224fe,,,,,,,,,954,-81,46,1,0,0,response7disk,,1,14,-17,1,0,0,rectangle,14,-17,1,0,0,14,-17,1,0,0,0,23,23,150,1,,,,,,,,
,,,,,,,,,,,,,FF,,,,,,,,1.0337,,,,,,,,,,,,,,,,,,,,,,61032728290ef8e5d30afcaf,610369d0292d5a54a075b5e9,2021-07-29_23h00.16.077,Simcolourproject_2stim_asymm_v5,2020.2.10,Win32,60,61025ae37ef11b136ea224fe,,,,,,,,,3227,101,-57,1,0,0,response3disk,,5,-13,5,1,0,0,rectangle,-13,5,1,0,0,-13,5,1,0,0,0,24,24,103,1,,,,,,,,
,,,,,,,,,,,,,FF,,,,,,,,1.8174,,,,,,,,,,,,,,,,,,,,,,61032728290ef8e5d30afcaf,610369d0292d5a54a075b5e9,2021-07-29_23h00.16.077,Simcolourproject_2stim_asymm_v5,2020.2.10,Win32,60,61025ae37ef11b136ea224fe,,,,,,,,,1474,-95,-33,1,0,0,response5disk,,2,-2,0,1,0,0,rectangle,-2,0,1,0,0,-2,0,1,0,0,0,25,25,94,1,,,,,,,,
,,,,,,,,,,,,,FF,,,,,,,,1.8511,,,,,,,,,,,,,,,,,,,,,,61032728290ef8e5d30afcaf,610369d0292d5a54a075b5e9,2021-07-29_23h00.16.077,Simcolourproject_2stim_asymm_v5,2020.2.10,Win32,60,61025ae37ef11b136ea224fe,,,,,,,,,2402,-60,-135,1,0,0,response5disk,,3,-3,-1,1,0,0,rectangle,-3,-1,1,0,0,-3,-1,1,0,0,0,26,26,82,1,,,,,,,,
,,,,,,,,,,,,,FF,,,,,,,,0.9167,,,,,,,,,,,,,,,,,,,,,,61032728290ef8e5d30afcaf,610369d0292d5a54a075b5e9,2021-07-29_23h00.16.077,Simcolourproject_2stim_asymm_v5,2020.2.10,Win32,60,61025ae37ef11b136ea224fe,,,,,,,,,191,-88,38,1,0,0,response7disk,,1,-7,4,1,0,0,rectangle,-7,4,1,0,0,-7,4,1,0,0,0,27,27,130,1,,,,,,,,
,,,,,,,,,,,,,FF,,,,,,,,2.1174,,,,,,,,,,,,,,,,,,,,,,61032728290ef8e5d30afcaf,610369d0292d5a54a075b5e9,2021-07-29_23h00.16.077,Simcolourproject_2stim_asymm_v5,2020.2.10,Win32,60,61025ae37ef11b136ea224fe,,,,,,,,,1435,-33,-81,1,0,0,response5disk,,3,-1,10,1,0,0,rectangle,-1,10,1,0,0,-1,10,1,0,0,0,28,28,151,1,,,,,,,,
,,,,,,,,,,,,,FF,,,,,,,,1.4337,,,,,,,,,,,,,,,,,,,,,,61032728290ef8e5d30afcaf,610369d0292d5a54a075b5e9,2021-07-29_23h00.16.077,Simcolourproject_2stim_asymm_v5,2020.2.10,Win32,60,61025ae37ef11b136ea224fe,,,,,,,,,2075,120,56,1,0,0,response1disk,,6,-2,2,1,0,0,rectangle,-2,2,1,0,0,-2,2,1,0,0,0,29,29,158,1,,,,,,,,
,,,,,,,,,,,,,FF,,,,,,,,0.9168,,,,,,,,,,,,,,,,,,,,,,61032728290ef8e5d30afcaf,610369d0292d5a54a075b5e9,2021-07-29_23h00.16.077,Simcolourproject_2stim_asymm_v5,2020.2.10,Win32,60,61025ae37ef11b136ea224fe,,,,,,,,,3972,-96,55,1,0,0,response7disk,,1,34,-14,1,0,0,rectangle,34,-14,1,0,0,34,-14,1,0,0,0,30,30,35,1,,,,,,,,
,,,,,,,,,,,,,FF,,,,,,,,2.1175,,,,,,,,,,,,,,,,,,,,,,61032728290ef8e5d30afcaf,610369d0292d5a54a075b5e9,2021-07-29_23h00.16.077,Simcolourproject_2stim_asymm_v5,2020.2.10,Win32,60,61025ae37ef11b136ea224fe,,,,,,,,,1110,-38,-108,1,0,0,response5disk,,3,15,-2,1,0,0,rectangle,15,-2,1,0,0,15,-2,1,0,0,0,31,31,147,1,,,,,,,,
,,,,,,,,,,,,,FF,,,,,,,,1.1337,,,,,,,,,,,,,,,,,,,,,,61032728290ef8e5d30afcaf,610369d0292d5a54a075b5e9,2021-07-29_23h00.16.077,Simcolourproject_2stim_asymm_v5,2020.2.10,Win32,60,61025ae37ef11b136ea224fe,,,,,,,,,1389,-108,-48,1,0,0,response5disk,,2,-17,7,1,0,0,rectangle,-17,7,1,0,0,-17,7,1,0,0,0,32,32,14,1,,,,,,,,
,,,,,,,,,,,,,FF,,,,,,,,1.7002,,,,,,,,,,,,,,,,,,,,,,61032728290ef8e5d30afcaf,610369d0292d5a54a075b5e9,2021-07-29_23h00.16.077,Simcolourproject_2stim_asymm_v5,2020.2.10,Win32,60,61025ae37ef11b136ea224fe,,,,,,,,,2008,59,-105,1,0,0,response3disk,,4,18,-14,1,0,0,rectangle,18,-14,1,0,0,18,-14,1,0,0,0,33,33,125,1,,,,,,,,
,,,,,,,,,,,,,FF,,,,,,,,1.5005,,,,,,,,,,,,,,,,,,,,,,61032728290ef8e5d30afcaf,610369d0292d5a54a075b5e9,2021-07-29_23h00.16.077,Simcolourproject_2stim_asymm_v5,2020.2.10,Win32,60,61025ae37ef11b136ea224fe,,,,,,,,,1870,66,-100,1,0,0,response3disk,,4,4,-14,1,0,0,rectangle,4,-14,1,0,0,4,-14,1,0,0,0,34,34,114,1,,,,,,,,
,,,,,,,,,,,,,FF,,,,,,,,1.1337,,,,,,,,,,,,,,,,,,,,,,61032728290ef8e5d30afcaf,610369d0292d5a54a075b5e9,2021-07-29_23h00.16.077,Simcolourproject_2stim_asymm_v5,2020.2.10,Win32,60,61025ae37ef11b136ea224fe,,,,,,,,,1552,100,-44,1,0,0,response3disk,,5,-15,12,1,0,0,rectangle,-15,12,1,0,0,-15,12,1,0,0,0,35,35,95,1,,,,,,,,
,,,,,,,,,,,,,FF,,,,,,,,0.9002,,,,,,,,,,,,,,,,,,,,,,61032728290ef8e5d30afcaf,610369d0292d5a54a075b5e9,2021-07-29_23h00.16.077,Simcolourproject_2stim_asymm_v5,2020.2.10,Win32,60,61025ae37ef11b136ea224fe,,,,,,,,,700,-95,49,1,0,0,response7disk,,1,-20,-13,1,0,0,rectangle,-20,-13,1,0,0,-20,-13,1,0,0,0,36,36,153,1,,,,,,,,
,,,,,,,,,,,,,FF,,,,,,,,2.6843,,,,,,,,,,,,,,,,,,,,,,61032728290ef8e5d30afcaf,610369d0292d5a54a075b5e9,2021-07-29_23h00.16.077,Simcolourproject_2stim_asymm_v5,2020.2.10,Win32,60,61025ae37ef11b136ea224fe,,,,,,,,,1997,50,101,1,0,0,response1disk,,7,7,-1,1,0,0,rectangle,7,-1,1,0,0,7,-1,1,0,0,0,37,37,25,1,,,,,,,,
,,,,,,,,,,,,,FF,,,,,,,,1.2836,,,,,,,,,,,,,,,,,,,,,,61032728290ef8e5d30afcaf,610369d0292d5a54a075b5e9,2021-07-29_23h00.16.077,Simcolourproject_2stim_asymm_v5,2020.2.10,Win32,60,61025ae37ef11b136ea224fe,,,,,,,,,1320,121,37,1,0,0,response1disk,,6,16,-14,1,0,0,rectangle,16,-14,1,0,0,16,-14,1,0,0,0,38,38,142,1,,,,,,,,
,,,,,,,,,,,,,FF,,,,,,,,0.7171,,,,,,,,,,,,,,,,,,,,,,61032728290ef8e5d30afcaf,610369d0292d5a54a075b5e9,2021-07-29_23h00.16.077,Simcolourproject_2stim_asymm_v5,2020.2.10,Win32,60,61025ae37ef11b136ea224fe,,,,,,,,,1598,-114,46,1,0,0,response7disk,,1,7,-2,1,0,0,rectangle,7,-2,1,0,0,7,-2,1,0,0,0,39,39,13,1,,,,,,,,
,,,,,,,,,,,,,FF,,,,,,,,2.9511,,,,,,,,,,,,,,,,,,,,,,61032728290ef8e5d30afcaf,610369d0292d5a54a075b5e9,2021-07-29_23h00.16.077,Simcolourproject_2stim_asymm_v5,2020.2.10,Win32,60,61025ae37ef11b136ea224fe,,,,,,,,,306,115,36,1,0,0,response1disk,,6,10,-6,1,0,0,rectangle,-42,-97,1,0,0,-11,6,1,0,0,0,40,40,53,1,,response5disk_3,TRUE,3,3,"[88,222,254,249,143,152,41,147,93,119,236,151,160,76,3,151,262,13,212,228]",1.2001,rectangle
,,,,,,,,,,,,,FF,,,,,,,,2.651,,,,,,,,,,,,,,,,,,,,,,61032728290ef8e5d30afcaf,610369d0292d5a54a075b5e9,2021-07-29_23h00.16.077,Simcolourproject_2stim_asymm_v5,2020.2.10,Win32,60,61025ae37ef11b136ea224fe,,,,,,,,,2823,48,-95,1,0,0,response3disk,,4,3,-8,1,0,0,rectangle,3,-8,1,0,0,3,-8,1,0,0,0,41,41,38,1,,,,,,,,
,,,,,,,,,,,,,FF,,,,,,,,0.9836,,,,,,,,,,,,,,,,,,,,,,61032728290ef8e5d30afcaf,610369d0292d5a54a075b5e9,2021-07-29_23h00.16.077,Simcolourproject_2stim_asymm_v5,2020.2.10,Win32,60,61025ae37ef11b136ea224fe,,,,,,,,,1967,-91,43,1,0,0,response7disk,,1,-7,12,1,0,0,rectangle,-7,12,1,0,0,-7,12,1,0,0,0,42,42,119,1,,,,,,,,
,,,,,,,,,,,,,FF,,,,,,,,1.6504,,,,,,,,,,,,,,,,,,,,,,61032728290ef8e5d30afcaf,610369d0292d5a54a075b5e9,2021-07-29_23h00.16.077,Simcolourproject_2stim_asymm_v5,2020.2.10,Win32,60,61025ae37ef11b136ea224fe,,,,,,,,,12,83,-49,1,0,0,response3disk,,5,-7,2,1,0,0,rectangle,-7,2,1,0,0,-7,2,1,0,0,0,43,43,111,1,,,,,,,,
,,,,,,,,,,,,,FF,,,,,,,,1.8672,,,,,,,,,,,,,,,,,,,,,,61032728290ef8e5d30afcaf,610369d0292d5a54a075b5e9,2021-07-29_23h00.16.077,Simcolourproject_2stim_asymm_v5,2020.2.10,Win32,60,61025ae37ef11b136ea224fe,,,,,,,,,638,-37,-104,1,0,0,response5disk,,3,-7,0,1,0,0,rectangle,-7,0,1,0,0,-7,0,1,0,0,0,44,44,67,1,,,,,,,,
,,,,,,,,,,,,,FF,,,,,,,,2.0007,,,,,,,,,,,,,,,,,,,,,,61032728290ef8e5d30afcaf,610369d0292d5a54a075b5e9,2021-07-29_23h00.16.077,Simcolourproject_2stim_asymm_v5,2020.2.10,Win32,60,61025ae37ef11b136ea224fe,,,,,,,,,1055,88,-45,1,0,0,response3disk,,5,9,2,1,0,0,rectangle,9,2,1,0,0,9,2,1,0,0,0,45,45,78,1,,,,,,,,
,,,,,,,,,,,,,FF,,,,,,,,2.1175,,,,,,,,,,,,,,,,,,,,,,61032728290ef8e5d30afcaf,610369d0292d5a54a075b5e9,2021-07-29_23h00.16.077,Simcolourproject_2stim_asymm_v5,2020.2.10,Win32,60,61025ae37ef11b136ea224fe,,,,,,,,,4126,46,-83,1,0,0,response3disk,,4,-6,1,1,0,0,rectangle,-6,1,1,0,0,-6,1,1,0,0,0,46,46,132,1,,,,,,,,
,,,,,,,,,,,,,FF,,,,,,,,1.1004,,,,,,,,,,,,,,,,,,,,,,61032728290ef8e5d30afcaf,610369d0292d5a54a075b5e9,2021-07-29_23h00.16.077,Simcolourproject_2stim_asymm_v5,2020.2.10,Win32,60,61025ae37ef11b136ea224fe,,,,,,,,,1560,64,103,1,0,0,response1disk,,7,26,-7,1,0,0,rectangle,26,-7,1,0,0,26,-7,1,0,0,0,47,47,52,1,,,,,,,,
,,,,,,,,,,,,,FF,,,,,,,,0.7337,,,,,,,,,,,,,,,,,,,,,,61032728290ef8e5d30afcaf,610369d0292d5a54a075b5e9,2021-07-29_23h00.16.077,Simcolourproject_2stim_asymm_v5,2020.2.10,Win32,60,61025ae37ef11b136ea224fe,,,,,,,,,423,112,42,1,0,0,response1disk,,6,37,-13,1,0,0,rectangle,37,-13,1,0,0,37,-13,1,0,0,0,48,48,66,1,,,,,,,,
,,,,,,,,,,,,,FF,,,,,,,,0.8669,,,,,,,,,,,,,,,,,,,,,,61032728290ef8e5d30afcaf,610369d0292d5a54a075b5e9,2021-07-29_23h00.16.077,Simcolourproject_2stim_asymm_v5,2020.2.10,Win32,60,61025ae37ef11b136ea224fe,,,,,,,,,2877,67,114,1,0,0,response1disk,,7,25,-1,1,0,0,rectangle,25,-1,1,0,0,25,-1,1,0,0,0,49,49,139,1,,,,,,,,
,,,,,,,,,,,,,FF,,,,,,,,1.2504,,,,,,,,,,,,,,,,,,,,,,61032728290ef8e5d30afcaf,610369d0292d5a54a075b5e9,2021-07-29_23h00.16.077,Simcolourproject_2stim_asymm_v5,2020.2.10,Win32,60,61025ae37ef11b136ea224fe,,,,,,,,,769,101,38,1,0,0,response1disk,,6,-12,-8,1,0,0,rectangle,-12,-8,1,0,0,-12,-8,1,0,0,0,50,50,39,1,,,,,,,,
,,,,,,,,,,,,,FF,,,,,,,,1.2169,,,,,,,,,,,,,,,,,,,,,,61032728290ef8e5d30afcaf,610369d0292d5a54a075b5e9,2021-07-29_23h00.16.077,Simcolourproject_2stim_asymm_v5,2020.2.10,Win32,60,61025ae37ef11b136ea224fe,,,,,,,,,2809,91,41,1,0,0,response1disk,,6,-1,-10,1,0,0,rectangle,-1,-10,1,0,0,-1,-10,1,0,0,0,51,51,89,1,,,,,,,,
,,,,,,,,,,,,,FF,,,,,,,,1.3336,,,,,,,,,,,,,,,,,,,,,,61032728290ef8e5d30afcaf,610369d0292d5a54a075b5e9,2021-07-29_23h00.16.077,Simcolourproject_2stim_asymm_v5,2020.2.10,Win32,60,61025ae37ef11b136ea224fe,,,,,,,,,741,108,-51,1,0,0,response3disk,,5,-3,4,1,0,0,rectangle,-3,4,1,0,0,-3,4,1,0,0,0,52,52,141,1,,,,,,,,
,,,,,,,,,,,,,FF,,,,,,,,1.1835,,,,,,,,,,,,,,,,,,,,,,61032728290ef8e5d30afcaf,610369d0292d5a54a075b5e9,2021-07-29_23h00.16.077,Simcolourproject_2stim_asymm_v5,2020.2.10,Win32,60,61025ae37ef11b136ea224fe,,,,,,,,,1621,100,-33,1,0,0,response3disk,,5,-1,2,1,0,0,rectangle,-1,2,1,0,0,-1,2,1,0,0,0,53,53,128,1,,,,,,,,
,,,,,,,,,,,,,FF,,,,,,,,1.6171,,,,,,,,,,,,,,,,,,,,,,61032728290ef8e5d30afcaf,610369d0292d5a54a075b5e9,2021-07-29_23h00.16.077,Simcolourproject_2stim_asymm_v5,2020.2.10,Win32,60,61025ae37ef11b136ea224fe,,,,,,,,,2458,59,104,1,0,0,response1disk,,7,-3,-5,1,0,0,rectangle,-3,-5,1,0,0,-3,-5,1,0,0,0,54,54,138,1,,,,,,,,
,,,,,,,,,,,,,FF,,,,,,,,0.75,,,,,,,,,,,,,,,,,,,,,,61032728290ef8e5d30afcaf,610369d0292d5a54a075b5e9,2021-07-29_23h00.16.077,Simcolourproject_2stim_asymm_v5,2020.2.10,Win32,60,61025ae37ef11b136ea224fe,,,,,,,,,3078,58,92,1,0,0,response1disk,,7,21,16,1,0,0,rectangle,21,16,1,0,0,21,16,1,0,0,0,55,55,41,1,,,,,,,,
,,,,,,,,,,,,,FF,,,,,,,,1.7674,,,,,,,,,,,,,,,,,,,,,,61032728290ef8e5d30afcaf,610369d0292d5a54a075b5e9,2021-07-29_23h00.16.077,Simcolourproject_2stim_asymm_v5,2020.2.10,Win32,60,61025ae37ef11b136ea224fe,,,,,,,,,3288,74,-112,1,0,0,response3disk,,4,6,-10,1,0,0,rectangle,6,-10,1,0,0,6,-10,1,0,0,0,56,56,129,1,,,,,,,,
,,,,,,,,,,,,,FF,,,,,,,,2.0672,,,,,,,,,,,,,,,,,,,,,,61032728290ef8e5d30afcaf,610369d0292d5a54a075b5e9,2021-07-29_23h00.16.077,Simcolourproject_2stim_asymm_v5,2020.2.10,Win32,60,61025ae37ef11b136ea224fe,,,,,,,,,4263,97,49,1,0,0,response1disk,,6,0,4,1,0,0,rectangle,0,4,1,0,0,0,4,1,0,0,0,57,57,21,1,,,,,,,,
,,,,,,,,,,,,,FF,,,,,,,,0.6003,,,,,,,,,,,,,,,,,,,,,,61032728290ef8e5d30afcaf,610369d0292d5a54a075b5e9,2021-07-29_23h00.16.077,Simcolourproject_2stim_asymm_v5,2020.2.10,Win32,60,61025ae37ef11b136ea224fe,,,,,,,,,739,92,-53,1,0,0,response3disk,,5,-6,-2,1,0,0,rectangle,-6,-2,1,0,0,-6,-2,1,0,0,0,58,58,107,1,,,,,,,,
,,,,,,,,,,,,,FF,,,,,,,,1.2005,,,,,,,,,,,,,,,,,,,,,,61032728290ef8e5d30afcaf,610369d0292d5a54a075b5e9,2021-07-29_23h00.16.077,Simcolourproject_2stim_asymm_v5,2020.2.10,Win32,60,61025ae37ef11b136ea224fe,,,,,,,,,2054,42,-100,1,0,0,response3disk,,4,-8,-9,1,0,0,rectangle,-8,-9,1,0,0,-8,-9,1,0,0,0,59,59,48,1,,,,,,,,
,,,,,,,,,,,,,FF,,,,,,,,0.8502,,,,,,,,,,,,,,,,,,,,,,61032728290ef8e5d30afcaf,610369d0292d5a54a075b5e9,2021-07-29_23h00.16.077,Simcolourproject_2stim_asymm_v5,2020.2.10,Win32,60,61025ae37ef11b136ea224fe,,,,,,,,,1184,101,42,1,0,0,response1disk,,6,21,5,1,0,0,rectangle,21,5,1,0,0,21,5,1,0,0,0,60,60,81,1,,,,,,,,
,,,,,,,,,,,,,FF,,,,,,,,1.6171,,,,,,,,,,,,,,,,,,,,,,61032728290ef8e5d30afcaf,610369d0292d5a54a075b5e9,2021-07-29_23h00.16.077,Simcolourproject_2stim_asymm_v5,2020.2.10,Win32,60,61025ae37ef11b136ea224fe,,,,,,,,,1286,52,-104,1,0,0,response3disk,,4,5,-6,1,0,0,rectangle,5,-6,1,0,0,5,-6,1,0,0,0,61,61,58,1,,,,,,,,
,,,,,,,,,,,,,FF,,,,,,,,1.1501,,,,,,,,,,,,,,,,,,,,,,61032728290ef8e5d30afcaf,610369d0292d5a54a075b5e9,2021-07-29_23h00.16.077,Simcolourproject_2stim_asymm_v5,2020.2.10,Win32,60,61025ae37ef11b136ea224fe,,,,,,,,,4168,-94,38,1,0,0,response7disk,,1,-23,-7,1,0,0,rectangle,-23,-7,1,0,0,-23,-7,1,0,0,0,62,62,123,1,,,,,,,,
,,,,,,,,,,,,,FF,,,,,,,,1.6669,,,,,,,,,,,,,,,,,,,,,,61032728290ef8e5d30afcaf,610369d0292d5a54a075b5e9,2021-07-29_23h00.16.077,Simcolourproject_2stim_asymm_v5,2020.2.10,Win32,60,61025ae37ef11b136ea224fe,,,,,,,,,718,-87,48,1,0,0,response7disk,,1,-5,-5,1,0,0,rectangle,-5,-5,1,0,0,-5,-5,1,0,0,0,63,63,69,1,,,,,,,,
,,,,,,,,,,,,,FF,,,,,,,,0.8003,,,,,,,,,,,,,,,,,,,,,,61032728290ef8e5d30afcaf,610369d0292d5a54a075b5e9,2021-07-29_23h00.16.077,Simcolourproject_2stim_asymm_v5,2020.2.10,Win32,60,61025ae37ef11b136ea224fe,,,,,,,,,3330,-78,-47,1,0,0,response5disk,,2,13,-7,1,0,0,rectangle,13,-7,1,0,0,13,-7,1,0,0,0,64,64,144,1,,,,,,,,
,,,,,,,,,,,,,FF,,,,,,,,0.9338,,,,,,,,,,,,,,,,,,,,,,61032728290ef8e5d30afcaf,610369d0292d5a54a075b5e9,2021-07-29_23h00.16.077,Simcolourproject_2stim_asymm_v5,2020.2.10,Win32,60,61025ae37ef11b136ea224fe,,,,,,,,,4241,-88,-57,1,0,0,response5disk,,2,0,-18,1,0,0,rectangle,0,-18,1,0,0,0,-18,1,0,0,0,65,65,104,1,,,,,,,,
,,,,,,,,,,,,,FF,,,,,,,,0.9004,,,,,,,,,,,,,,,,,,,,,,61032728290ef8e5d30afcaf,610369d0292d5a54a075b5e9,2021-07-29_23h00.16.077,Simcolourproject_2stim_asymm_v5,2020.2.10,Win32,60,61025ae37ef11b136ea224fe,,,,,,,,,1542,-91,-38,1,0,0,response5disk,,2,-20,3,1,0,0,rectangle,-20,3,1,0,0,-20,3,1,0,0,0,66,66,98,1,,,,,,,,
,,,,,,,,,,,,,FF,,,,,,,,1.217,,,,,,,,,,,,,,,,,,,,,,61032728290ef8e5d30afcaf,610369d0292d5a54a075b5e9,2021-07-29_23h00.16.077,Simcolourproject_2stim_asymm_v5,2020.2.10,Win32,60,61025ae37ef11b136ea224fe,,,,,,,,,2527,103,61,1,0,0,response1disk,,6,1,13,1,0,0,rectangle,1,13,1,0,0,1,13,1,0,0,0,67,67,64,1,,,,,,,,
,,,,,,,,,,,,,FF,,,,,,,,0.7333,,,,,,,,,,,,,,,,,,,,,,61032728290ef8e5d30afcaf,610369d0292d5a54a075b5e9,2021-07-29_23h00.16.077,Simcolourproject_2stim_asymm_v5,2020.2.10,Win32,60,61025ae37ef11b136ea224fe,,,,,,,,,3645,113,51,1,0,0,response1disk,,6,-7,-2,1,0,0,rectangle,-7,-2,1,0,0,-7,-2,1,0,0,0,68,68,149,1,,,,,,,,
,,,,,,,,,,,,,FF,,,,,,,,2.7343,,,,,,,,,,,,,,,,,,,,,,61032728290ef8e5d30afcaf,610369d0292d5a54a075b5e9,2021-07-29_23h00.16.077,Simcolourproject_2stim_asymm_v5,2020.2.10,Win32,60,61025ae37ef11b136ea224fe,,,,,,,,,1075,100,28,1,0,0,response1disk,,6,2,-1,1,0,0,rectangle,2,-1,1,0,0,2,-1,1,0,0,0,69,69,44,1,,,,,,,,
,,,,,,,,,,,,,FF,,,,,,,,0.7333,,,,,,,,,,,,,,,,,,,,,,61032728290ef8e5d30afcaf,610369d0292d5a54a075b5e9,2021-07-29_23h00.16.077,Simcolourproject_2stim_asymm_v5,2020.2.10,Win32,60,61025ae37ef11b136ea224fe,,,,,,,,,2096,-102,36,1,0,0,response7disk,,1,3,-7,1,0,0,rectangle,3,-7,1,0,0,3,-7,1,0,0,0,70,70,136,1,,,,,,,,
,,,,,,,,,,,,,FF,,,,,,,,2.084,,,,,,,,,,,,,,,,,,,,,,61032728290ef8e5d30afcaf,610369d0292d5a54a075b5e9,2021-07-29_23h00.16.077,Simcolourproject_2stim_asymm_v5,2020.2.10,Win32,60,61025ae37ef11b136ea224fe,,,,,,,,,898,-104,-55,1,0,0,response5disk,,2,14,3,1,0,0,rectangle,14,3,1,0,0,14,3,1,0,0,0,71,71,11,1,,,,,,,,
,,,,,,,,,,,,,FF,,,,,,,,9.0534,,,,,,,,,,,,,,,,,,,,,,61032728290ef8e5d30afcaf,610369d0292d5a54a075b5e9,2021-07-29_23h00.16.077,Simcolourproject_2stim_asymm_v5,2020.2.10,Win32,60,61025ae37ef11b136ea224fe,,,,,,,,,910,145,-48,1,0,0,response3disk,,5,-30,-1,1,0,0,rectangle,-30,-1,1,0,0,-30,-1,1,0,0,0,72,72,117,1,,,,,,,,
,,,,,,,,,,,,,FF,,,,,,,,1.3336,,,,,,,,,,,,,,,,,,,,,,61032728290ef8e5d30afcaf,610369d0292d5a54a075b5e9,2021-07-29_23h00.16.077,Simcolourproject_2stim_asymm_v5,2020.2.10,Win32,60,61025ae37ef11b136ea224fe,,,,,,,,,3282,-134,-45,1,0,0,response5disk,,2,-17,20,1,0,0,rectangle,-17,20,1,0,0,-17,20,1,0,0,0,73,73,30,1,,,,,,,,
,,,,,,,,,,,,,FF,,,,,,,,1.5004,,,,,,,,,,,,,,,,,,,,,,61032728290ef8e5d30afcaf,610369d0292d5a54a075b5e9,2021-07-29_23h00.16.077,Simcolourproject_2stim_asymm_v5,2020.2.10,Win32,60,61025ae37ef11b136ea224fe,,,,,,,,,1653,111,35,1,0,0,response1disk,,6,-14,-6,1,0,0,rectangle,-14,-6,1,0,0,-14,-6,1,0,0,0,74,74,74,1,,,,,,,,
,,,,,,,,,,,,,FF,,,,,,,,0.9169,,,,,,,,,,,,,,,,,,,,,,61032728290ef8e5d30afcaf,610369d0292d5a54a075b5e9,2021-07-29_23h00.16.077,Simcolourproject_2stim_asymm_v5,2020.2.10,Win32,60,61025ae37ef11b136ea224fe,,,,,,,,,1032,-29,-108,1,0,0,response5disk,,3,-5,16,1,0,0,rectangle,-54,155,1,0,0,10,-13,1,0,0,0,75,75,102,1,,response7disk_3,TRUE,0,0,"[88,222,254,249,143,152,41,147,93,119,236,151,160,76,3,151,262,13,212,228]",1.9674,rectangle
,,,,,,,,,,,,,FF,,,,,,,,5.3853,,,,,,,,,,,,,,,,,,,,,,61032728290ef8e5d30afcaf,610369d0292d5a54a075b5e9,2021-07-29_23h00.16.077,Simcolourproject_2stim_asymm_v5,2020.2.10,Win32,60,61025ae37ef11b136ea224fe,,,,,,,,,2244,-56,-122,1,0,0,response5disk,,3,-5,4,1,0,0,rectangle,-5,4,1,0,0,-5,4,1,0,0,0,76,76,63,1,,,,,,,,
,,,,,,,,,,,,,FF,,,,,,,,1.0668,,,,,,,,,,,,,,,,,,,,,,61032728290ef8e5d30afcaf,610369d0292d5a54a075b5e9,2021-07-29_23h00.16.077,Simcolourproject_2stim_asymm_v5,2020.2.10,Win32,60,61025ae37ef11b136ea224fe,,,,,,,,,3232,120,93,1,0,0,response1disk,,6,-11,10,1,0,0,rectangle,-11,10,1,0,0,-11,10,1,0,0,0,77,77,26,1,,,,,,,,
,,,,,,,,,,,,,FF,,,,,,,,0.6001,,,,,,,,,,,,,,,,,,,,,,61032728290ef8e5d30afcaf,610369d0292d5a54a075b5e9,2021-07-29_23h00.16.077,Simcolourproject_2stim_asymm_v5,2020.2.10,Win32,60,61025ae37ef11b136ea224fe,,,,,,,,,2269,158,58,1,0,0,response1disk,,6,32,9,1,0,0,rectangle,32,9,1,0,0,32,9,1,0,0,0,78,78,101,1,,,,,,,,
,,,,,,,,,,,,,FF,,,,,,,,0.7668,,,,,,,,,,,,,,,,,,,,,,61032728290ef8e5d30afcaf,610369d0292d5a54a075b5e9,2021-07-29_23h00.16.077,Simcolourproject_2stim_asymm_v5,2020.2.10,Win32,60,61025ae37ef11b136ea224fe,,,,,,,,,3456,97,53,1,0,0,response1disk,,6,23,15,1,0,0,rectangle,23,15,1,0,0,23,15,1,0,0,0,79,79,143,1,,,,,,,,
,,,,,,,,,,,,,FF,,,,,,,,1.0837,,,,,,,,,,,,,,,,,,,,,,61032728290ef8e5d30afcaf,610369d0292d5a54a075b5e9,2021-07-29_23h00.16.077,Simcolourproject_2stim_asymm_v5,2020.2.10,Win32,60,61025ae37ef11b136ea224fe,,,,,,,,,1017,-89,-42,1,0,0,response5disk,,2,-4,13,1,0,0,rectangle,-4,13,1,0,0,-4,13,1,0,0,0,80,80,5,1,,,,,,,,
,,,,,,,,,,,,,FF,,,,,,,,1.3504,,,,,,,,,,,,,,,,,,,,,,61032728290ef8e5d30afcaf,610369d0292d5a54a075b5e9,2021-07-29_23h00.16.077,Simcolourproject_2stim_asymm_v5,2020.2.10,Win32,60,61025ae37ef11b136ea224fe,,,,,,,,,4298,35,-76,1,0,0,response3disk,,4,9,3,1,0,0,rectangle,9,3,1,0,0,9,3,1,0,0,0,81,81,99,1,,,,,,,,
,,,,,,,,,,,,,FF,,,,,,,,1.0001,,,,,,,,,,,,,,,,,,,,,,61032728290ef8e5d30afcaf,610369d0292d5a54a075b5e9,2021-07-29_23h00.16.077,Simcolourproject_2stim_asymm_v5,2020.2.10,Win32,60,61025ae37ef11b136ea224fe,,,,,,,,,141,131,49,1,0,0,response1disk,,6,6,4,1,0,0,rectangle,6,4,1,0,0,6,4,1,0,0,0,82,82,133,1,,,,,,,,
,,,,,,,,,,,,,FF,,,,,,,,2.2339,,,,,,,,,,,,,,,,,,,,,,61032728290ef8e5d30afcaf,610369d0292d5a54a075b5e9,2021-07-29_23h00.16.077,Simcolourproject_2stim_asymm_v5,2020.2.10,Win32,60,61025ae37ef11b136ea224fe,,,,,,,,,2325,-50,-107,1,0,0,response5disk,,3,-26,-2,1,0,0,rectangle,-26,-2,1,0,0,-26,-2,1,0,0,0,83,83,23,1,,,,,,,,
,,,,,,,,,,,,,FF,,,,,,,,1.067,,,,,,,,,,,,,,,,,,,,,,61032728290ef8e5d30afcaf,610369d0292d5a54a075b5e9,2021-07-29_23h00.16.077,Simcolourproject_2stim_asymm_v5,2020.2.10,Win32,60,61025ae37ef11b136ea224fe,,,,,,,,,4284,55,76,1,0,0,response1disk,,7,11,0,1,0,0,rectangle,11,0,1,0,0,11,0,1,0,0,0,84,84,3,1,,,,,,,,
,,,,,,,,,,,,,FF,,,,,,,,2.2174,,,,,,,,,,,,,,,,,,,,,,61032728290ef8e5d30afcaf,610369d0292d5a54a075b5e9,2021-07-29_23h00.16.077,Simcolourproject_2stim_asymm_v5,2020.2.10,Win32,60,61025ae37ef11b136ea224fe,,,,,,,,,408,109,-50,1,0,0,response3disk,,5,-1,8,1,0,0,rectangle,-1,8,1,0,0,-1,8,1,0,0,0,85,85,80,1,,,,,,,,
,,,,,,,,,,,,,FF,,,,,,,,0.7833,,,,,,,,,,,,,,,,,,,,,,61032728290ef8e5d30afcaf,610369d0292d5a54a075b5e9,2021-07-29_23h00.16.077,Simcolourproject_2stim_asymm_v5,2020.2.10,Win32,60,61025ae37ef11b136ea224fe,,,,,,,,,1171,-43,-73,1,0,0,response5disk,,3,-24,2,1,0,0,rectangle,-24,2,1,0,0,-24,2,1,0,0,0,86,86,50,1,,,,,,,,
,,,,,,,,,,,,,FF,,,,,,,,0.7336,,,,,,,,,,,,,,,,,,,,,,61032728290ef8e5d30afcaf,610369d0292d5a54a075b5e9,2021-07-29_23h00.16.077,Simcolourproject_2stim_asymm_v5,2020.2.10,Win32,60,61025ae37ef11b136ea224fe,,,,,,,,,2631,102,-47,1,0,0,response3disk,,5,19,0,1,0,0,rectangle,-129,-49,1,0,0,8,-8,1,0,0,0,87,87,7,1,,response5disk_3,TRUE,2,2,"[88,222,254,249,143,152,41,147,93,119,236,151,160,76,3,151,262,13,212,228]",1.2837,rectangle
,,,,,,,,,,,,,FF,,,,,,,,5.3186,,,,,,,,,,,,,,,,,,,,,,61032728290ef8e5d30afcaf,610369d0292d5a54a075b5e9,2021-07-29_23h00.16.077,Simcolourproject_2stim_asymm_v5,2020.2.10,Win32,60,61025ae37ef11b136ea224fe,,,,,,,,,3074,84,-34,1,0,0,response3disk,,5,19,10,1,0,0,rectangle,19,10,1,0,0,19,10,1,0,0,0,88,88,126,1,,,,,,,,
,,,,,,,,,,,,,FF,,,,,,,,0.8335,,,,,,,,,,,,,,,,,,,,,,61032728290ef8e5d30afcaf,610369d0292d5a54a075b5e9,2021-07-29_23h00.16.077,Simcolourproject_2stim_asymm_v5,2020.2.10,Win32,60,61025ae37ef11b136ea224fe,,,,,,,,,2079,-92,-48,1,0,0,response5disk,,2,-24,4,1,0,0,rectangle,-24,4,1,0,0,-24,4,1,0,0,0,89,89,36,1,,,,,,,,
,,,,,,,,,,,,,FF,,,,,,,,6.3689,,,,,,,,,,,,,,,,,,,,,,61032728290ef8e5d30afcaf,610369d0292d5a54a075b5e9,2021-07-29_23h00.16.077,Simcolourproject_2stim_asymm_v5,2020.2.10,Win32,60,61025ae37ef11b136ea224fe,,,,,,,,,3490,-61,-127,1,0,0,response5disk,,3,34,6,1,0,0,rectangle,34,6,1,0,0,34,6,1,0,0,0,90,90,109,1,,,,,,,,
,,,,,,,,,,,,,FF,,,,,,,,4.6849,,,,,,,,,,,,,,,,,,,,,,61032728290ef8e5d30afcaf,610369d0292d5a54a075b5e9,2021-07-29_23h00.16.077,Simcolourproject_2stim_asymm_v5,2020.2.10,Win32,60,61025ae37ef11b136ea224fe,,,,,,,,,3784,73,-124,1,0,0,response3disk,,4,8,4,1,0,0,rectangle,8,4,1,0,0,8,4,1,0,0,0,91,91,127,1,,,,,,,,
,,,,,,,,,,,,,FF,,,,,,,,3.5345,,,,,,,,,,,,,,,,,,,,,,61032728290ef8e5d30afcaf,610369d0292d5a54a075b5e9,2021-07-29_23h00.16.077,Simcolourproject_2stim_asymm_v5,2020.2.10,Win32,60,61025ae37ef11b136ea224fe,,,,,,,,,963,118,-52,1,0,0,response3disk,,5,8,0,1,0,0,rectangle,133,-46,1,0,0,-17,-3,1,0,0,0,92,92,19,1,,response3disk_3,TRUE,5,5,"[88,222,254,249,143,152,41,147,93,119,236,151,160,76,3,151,262,13,212,228]",1.6171,rectangle
,,,,,,,,,,,,,FF,,,,,,,,1.1003,,,,,,,,,,,,,,,,,,,,,,61032728290ef8e5d30afcaf,610369d0292d5a54a075b5e9,2021-07-29_23h00.16.077,Simcolourproject_2stim_asymm_v5,2020.2.10,Win32,60,61025ae37ef11b136ea224fe,,,,,,,,,2618,-59,-91,1,0,0,response5disk,,3,-31,-7,1,0,0,rectangle,-31,-7,1,0,0,-31,-7,1,0,0,0,93,93,155,1,,,,,,,,
,,,,,,,,,,,,,FF,,,,,,,,1.0003,,,,,,,,,,,,,,,,,,,,,,61032728290ef8e5d30afcaf,610369d0292d5a54a075b5e9,2021-07-29_23h00.16.077,Simcolourproject_2stim_asymm_v5,2020.2.10,Win32,60,61025ae37ef11b136ea224fe,,,,,,,,,4192,59,-120,1,0,0,response3disk,,4,2,-8,1,0,0,rectangle,2,-8,1,0,0,2,-8,1,0,0,0,94,94,37,1,,,,,,,,
,,,,,,,,,,,,,FF,,,,,,,,1.5671,,,,,,,,,,,,,,,,,,,,,,61032728290ef8e5d30afcaf,610369d0292d5a54a075b5e9,2021-07-29_23h00.16.077,Simcolourproject_2stim_asymm_v5,2020.2.10,Win32,60,61025ae37ef11b136ea224fe,,,,,,,,,2420,-109,-56,1,0,0,response5disk,,2,-36,10,1,0,0,rectangle,-36,10,1,0,0,-36,10,1,0,0,0,95,95,105,1,,,,,,,,
,,,,,,,,,,,,,FF,,,,,,,,8.1695,,,,,,,,,,,,,,,,,,,,,,61032728290ef8e5d30afcaf,610369d0292d5a54a075b5e9,2021-07-29_23h00.16.077,Simcolourproject_2stim_asymm_v5,2020.2.10,Win32,60,61025ae37ef11b136ea224fe,,,,,,,,,4034,-68,-49,1,0,0,response5disk,,2,25,-12,1,0,0,rectangle,25,-12,1,0,0,25,-12,1,0,0,0,96,96,146,1,,,,,,,,
,,,,,,,,,,,,,FF,,,,,,,,0.8335,,,,,,,,,,,,,,,,,,,,,,61032728290ef8e5d30afcaf,610369d0292d5a54a075b5e9,2021-07-29_23h00.16.077,Simcolourproject_2stim_asymm_v5,2020.2.10,Win32,60,61025ae37ef11b136ea224fe,,,,,,,,,835,56,-110,1,0,0,response3disk,,4,0,0,1,0,0,rectangle,0,0,1,0,0,0,0,1,0,0,0,97,97,75,1,,,,,,,,
,,,,,,,,,,,,,FF,,,,,,,,0.7669,,,,,,,,,,,,,,,,,,,,,,61032728290ef8e5d30afcaf,610369d0292d5a54a075b5e9,2021-07-29_23h00.16.077,Simcolourproject_2stim_asymm_v5,2020.2.10,Win32,60,61025ae37ef11b136ea224fe,,,,,,,,,2646,118,39,1,0,0,response1disk,,6,8,-1,1,0,0,rectangle,8,-1,1,0,0,8,-1,1,0,0,0,98,98,22,1,,,,,,,,
,,,,,,,,,,,,,FF,,,,,,,,0.4667,,,,,,,,,,,,,,,,,,,,,,61032728290ef8e5d30afcaf,610369d0292d5a54a075b5e9,2021-07-29_23h00.16.077,Simcolourproject_2stim_asymm_v5,2020.2.10,Win32,60,61025ae37ef11b136ea224fe,,,,,,,,,119,96,54,1,0,0,response1disk,,6,-17,-10,1,0,0,rectangle,-17,-10,1,0,0,-17,-10,1,0,0,0,99,99,24,1,,,,,,,,
,,,,,,,,,,,,,FF,,,,,,,,2.4007,,,,,,,,,,,,,,,,,,,,,,61032728290ef8e5d30afcaf,610369d0292d5a54a075b5e9,2021-07-29_23h00.16.077,Simcolourproject_2stim_asymm_v5,2020.2.10,Win32,60,61025ae37ef11b136ea224fe,,,,,,,,,1616,-102,-49,1,0,0,response5disk,,2,-28,-10,1,0,0,rectangle,-28,-10,1,0,0,-28,-10,1,0,0,0,100,100,116,1,,,,,,,,
,,,,,,,,,,,,,FF,,,,,,,,1.5506,,,,,,,,,,,,,,,,,,,,,,61032728290ef8e5d30afcaf,610369d0292d5a54a075b5e9,2021-07-29_23h00.16.077,Simcolourproject_2stim_asymm_v5,2020.2.10,Win32,60,61025ae37ef11b136ea224fe,,,,,,,,,1768,71,-118,1,0,0,response3disk,,4,-4,-8,1,0,0,rectangle,-4,-8,1,0,0,-4,-8,1,0,0,0,101,101,17,1,,,,,,,,
,,,,,,,,,,,,,FF,,,,,,,,1.2838,,,,,,,,,,,,,,,,,,,,,,61032728290ef8e5d30afcaf,610369d0292d5a54a075b5e9,2021-07-29_23h00.16.077,Simcolourproject_2stim_asymm_v5,2020.2.10,Win32,60,61025ae37ef11b136ea224fe,,,,,,,,,909,36,-101,1,0,0,response3disk,,4,-12,-11,1,0,0,rectangle,-12,-11,1,0,0,-12,-11,1,0,0,0,102,102,46,1,,,,,,,,
,,,,,,,,,,,,,FF,,,,,,,,1.8174,,,,,,,,,,,,,,,,,,,,,,61032728290ef8e5d30afcaf,610369d0292d5a54a075b5e9,2021-07-29_23h00.16.077,Simcolourproject_2stim_asymm_v5,2020.2.10,Win32,60,61025ae37ef11b136ea224fe,,,,,,,,,333,48,99,1,0,0,response1disk,,7,25,-9,1,0,0,rectangle,25,-9,1,0,0,25,-9,1,0,0,0,103,103,47,1,,,,,,,,
,,,,,,,,,,,,,FF,,,,,,,,1.4671,,,,,,,,,,,,,,,,,,,,,,61032728290ef8e5d30afcaf,610369d0292d5a54a075b5e9,2021-07-29_23h00.16.077,Simcolourproject_2stim_asymm_v5,2020.2.10,Win32,60,61025ae37ef11b136ea224fe,,,,,,,,,3174,97,-67,1,0,0,response3disk,,5,-7,2,1,0,0,rectangle,-7,2,1,0,0,-7,2,1,0,0,0,104,104,18,1,,,,,,,,
,,,,,,,,,,,,,FF,,,,,,,,0.8338,,,,,,,,,,,,,,,,,,,,,,61032728290ef8e5d30afcaf,610369d0292d5a54a075b5e9,2021-07-29_23h00.16.077,Simcolourproject_2stim_asymm_v5,2020.2.10,Win32,60,61025ae37ef11b136ea224fe,,,,,,,,,1428,73,-104,1,0,0,response3disk,,4,22,-13,1,0,0,rectangle,22,-13,1,0,0,22,-13,1,0,0,0,105,105,134,1,,,,,,,,
,,,,,,,,,,,,,FF,,,,,,,,0.5501,,,,,,,,,,,,,,,,,,,,,,61032728290ef8e5d30afcaf,610369d0292d5a54a075b5e9,2021-07-29_23h00.16.077,Simcolourproject_2stim_asymm_v5,2020.2.10,Win32,60,61025ae37ef11b136ea224fe,,,,,,,,,3067,-49,-95,1,0,0,response5disk,,3,-29,-13,1,0,0,rectangle,-29,-13,1,0,0,-29,-13,1,0,0,0,106,106,49,1,,,,,,,,
,,,,,,,,,,,,,FF,,,,,,,,2.5674,,,,,,,,,,,,,,,,,,,,,,61032728290ef8e5d30afcaf,610369d0292d5a54a075b5e9,2021-07-29_23h00.16.077,Simcolourproject_2stim_asymm_v5,2020.2.10,Win32,60,61025ae37ef11b136ea224fe,,,,,,,,,104,-48,-95,1,0,0,response5disk,,3,-22,-3,1,0,0,rectangle,-22,-3,1,0,0,-22,-3,1,0,0,0,107,107,86,1,,,,,,,,
,,,,,,,,,,,,,FF,,,,,,,,1.067,,,,,,,,,,,,,,,,,,,,,,61032728290ef8e5d30afcaf,610369d0292d5a54a075b5e9,2021-07-29_23h00.16.077,Simcolourproject_2stim_asymm_v5,2020.2.10,Win32,60,61025ae37ef11b136ea224fe,,,,,,,,,3332,-98,-46,1,0,0,response5disk,,2,-22,6,1,0,0,rectangle,-22,6,1,0,0,-22,6,1,0,0,0,108,108,1,1,,,,,,,,
,,,,,,,,,,,,,FF,,,,,,,,1.3168,,,,,,,,,,,,,,,,,,,,,,61032728290ef8e5d30afcaf,610369d0292d5a54a075b5e9,2021-07-29_23h00.16.077,Simcolourproject_2stim_asymm_v5,2020.2.10,Win32,60,61025ae37ef11b136ea224fe,,,,,,,,,2994,-81,-54,1,0,0,response5disk,,2,-11,3,1,0,0,rectangle,-11,3,1,0,0,-11,3,1,0,0,0,109,109,55,1,,,,,,,,
,,,,,,,,,,,,,FF,,,,,,,,1.4171,,,,,,,,,,,,,,,,,,,,,,61032728290ef8e5d30afcaf,610369d0292d5a54a075b5e9,2021-07-29_23h00.16.077,Simcolourproject_2stim_asymm_v5,2020.2.10,Win32,60,61025ae37ef11b136ea224fe,,,,,,,,,3476,-51,-100,1,0,0,response5disk,,3,-16,-16,1,0,0,rectangle,-16,-16,1,0,0,-16,-16,1,0,0,0,110,110,85,1,,,,,,,,
,,,,,,,,,,,,,FF,,,,,,,,0.7334,,,,,,,,,,,,,,,,,,,,,,61032728290ef8e5d30afcaf,610369d0292d5a54a075b5e9,2021-07-29_23h00.16.077,Simcolourproject_2stim_asymm_v5,2020.2.10,Win32,60,61025ae37ef11b136ea224fe,,,,,,,,,3375,-87,-49,1,0,0,response5disk,,2,-4,-9,1,0,0,rectangle,-4,-9,1,0,0,-4,-9,1,0,0,0,111,111,42,1,,,,,,,,
,,,,,,,,,,,,,FF,,,,,,,,1.4339,,,,,,,,,,,,,,,,,,,,,,61032728290ef8e5d30afcaf,610369d0292d5a54a075b5e9,2021-07-29_23h00.16.077,Simcolourproject_2stim_asymm_v5,2020.2.10,Win32,60,61025ae37ef11b136ea224fe,,,,,,,,,2077,59,-92,1,0,0,response3disk,,4,-1,-1,1,0,0,rectangle,-1,-1,1,0,0,-1,-1,1,0,0,0,112,112,93,1,,,,,,,,
,,,,,,,,,,,,,FF,,,,,,,,1.7172,,,,,,,,,,,,,,,,,,,,,,61032728290ef8e5d30afcaf,610369d0292d5a54a075b5e9,2021-07-29_23h00.16.077,Simcolourproject_2stim_asymm_v5,2020.2.10,Win32,60,61025ae37ef11b136ea224fe,,,,,,,,,2990,-53,-112,1,0,0,response5disk,,3,-15,-8,1,0,0,rectangle,-15,-8,1,0,0,-15,-8,1,0,0,0,113,113,57,1,,,,,,,,
,,,,,,,,,,,,,FF,,,,,,,,1.9172,,,,,,,,,,,,,,,,,,,,,,61032728290ef8e5d30afcaf,610369d0292d5a54a075b5e9,2021-07-29_23h00.16.077,Simcolourproject_2stim_asymm_v5,2020.2.10,Win32,60,61025ae37ef11b136ea224fe,,,,,,,,,3921,-77,-83,1,0,0,response5disk,,3,17,20,1,0,0,rectangle,17,20,1,0,0,17,20,1,0,0,0,114,114,45,1,,,,,,,,
,,,,,,,,,,,,,FF,,,,,,,,0.9671,,,,,,,,,,,,,,,,,,,,,,61032728290ef8e5d30afcaf,610369d0292d5a54a075b5e9,2021-07-29_23h00.16.077,Simcolourproject_2stim_asymm_v5,2020.2.10,Win32,60,61025ae37ef11b136ea224fe,,,,,,,,,406,105,-47,1,0,0,response3disk,,5,8,-1,1,0,0,rectangle,8,-1,1,0,0,8,-1,1,0,0,0,115,115,112,1,,,,,,,,
,,,,,,,,,,,,,FF,,,,,,,,4.0179,,,,,,,,,,,,,,,,,,,,,,61032728290ef8e5d30afcaf,610369d0292d5a54a075b5e9,2021-07-29_23h00.16.077,Simcolourproject_2stim_asymm_v5,2020.2.10,Win32,60,61025ae37ef11b136ea224fe,,,,,,,,,2124,79,-39,1,0,0,response3disk,,5,-6,-16,1,0,0,rectangle,-6,-16,1,0,0,-6,-16,1,0,0,0,116,116,28,1,,,,,,,,
,,,,,,,,,,,,,FF,,,,,,,,1.0505,,,,,,,,,,,,,,,,,,,,,,61032728290ef8e5d30afcaf,610369d0292d5a54a075b5e9,2021-07-29_23h00.16.077,Simcolourproject_2stim_asymm_v5,2020.2.10,Win32,60,61025ae37ef11b136ea224fe,,,,,,,,,583,117,37,1,0,0,response1disk,,6,-1,-1,1,0,0,rectangle,-1,-1,1,0,0,-1,-1,1,0,0,0,117,117,108,1,,,,,,,,
,,,,,,,,,,,,,FF,,,,,,,,1.0504,,,,,,,,,,,,,,,,,,,,,,61032728290ef8e5d30afcaf,610369d0292d5a54a075b5e9,2021-07-29_23h00.16.077,Simcolourproject_2stim_asymm_v5,2020.2.10,Win32,60,61025ae37ef11b136ea224fe,,,,,,,,,619,-113,37,1,0,0,response7disk,,1,-10,5,1,0,0,rectangle,56,112,1,0,0,16,3,1,0,0,0,118,118,10,1,,response1disk_3,TRUE,7,7,"[88,222,254,249,143,152,41,147,93,119,236,151,160,76,3,151,262,13,212,228]",1.6838,rectangle
,,,,,,,,,,,,,FF,,,,,,,,1.8839,,,,,,,,,,,,,,,,,,,,,,61032728290ef8e5d30afcaf,610369d0292d5a54a075b5e9,2021-07-29_23h00.16.077,Simcolourproject_2stim_asymm_v5,2020.2.10,Win32,60,61025ae37ef11b136ea224fe,,,,,,,,,2636,-88,-72,1,0,0,response5disk,,2,8,-15,1,0,0,rectangle,8,-15,1,0,0,8,-15,1,0,0,0,119,119,131,1,,,,,,,,
,,,,,,,,,,,,,FF,,,,,,,,3.0343,,,,,,,,,,,,,,,,,,,,,,61032728290ef8e5d30afcaf,610369d0292d5a54a075b5e9,2021-07-29_23h00.16.077,Simcolourproject_2stim_asymm_v5,2020.2.10,Win32,60,61025ae37ef11b136ea224fe,,,,,,,,,382,-105,-26,1,0,0,response5disk,,2,-13,-10,1,0,0,rectangle,-13,-10,1,0,0,-13,-10,1,0,0,0,120,120,121,1,,,,,,,,
,,,,,,,,,,,,,FF,,,,,,,,2.5841,,,,,,,,,,,,,,,,,,,,,,61032728290ef8e5d30afcaf,610369d0292d5a54a075b5e9,2021-07-29_23h00.16.077,Simcolourproject_2stim_asymm_v5,2020.2.10,Win32,60,61025ae37ef11b136ea224fe,,,,,,,,,1342,120,46,1,0,0,response1disk,,6,16,-3,1,0,0,rectangle,16,-3,1,0,0,16,-3,1,0,0,0,121,121,59,1,,,,,,,,
,,,,,,,,,,,,,FF,,,,,,,,1.2839,,,,,,,,,,,,,,,,,,,,,,61032728290ef8e5d30afcaf,610369d0292d5a54a075b5e9,2021-07-29_23h00.16.077,Simcolourproject_2stim_asymm_v5,2020.2.10,Win32,60,61025ae37ef11b136ea224fe,,,,,,,,,3671,-38,94,1,0,0,response7disk,,0,5,8,1,0,0,rectangle,5,8,1,0,0,5,8,1,0,0,0,122,122,91,1,,,,,,,,
,,,,,,,,,,,,,FF,,,,,,,,1.9838,,,,,,,,,,,,,,,,,,,,,,61032728290ef8e5d30afcaf,610369d0292d5a54a075b5e9,2021-07-29_23h00.16.077,Simcolourproject_2stim_asymm_v5,2020.2.10,Win32,60,61025ae37ef11b136ea224fe,,,,,,,,,2691,117,-66,1,0,0,response3disk,,5,2,4,1,0,0,rectangle,2,4,1,0,0,2,4,1,0,0,0,123,123,31,1,,,,,,,,
,,,,,,,,,,,,,FF,,,,,,,,0.6838,,,,,,,,,,,,,,,,,,,,,,61032728290ef8e5d30afcaf,610369d0292d5a54a075b5e9,2021-07-29_23h00.16.077,Simcolourproject_2stim_asymm_v5,2020.2.10,Win32,60,61025ae37ef11b136ea224fe,,,,,,,,,1372,-98,47,1,0,0,response7disk,,1,-4,-13,1,0,0,rectangle,-4,-13,1,0,0,-4,-13,1,0,0,0,124,124,60,1,,,,,,,,
,,,,,,,,,,,,,FF,,,,,,,,1.3505,,,,,,,,,,,,,,,,,,,,,,61032728290ef8e5d30afcaf,610369d0292d5a54a075b5e9,2021-07-29_23h00.16.077,Simcolourproject_2stim_asymm_v5,2020.2.10,Win32,60,61025ae37ef11b136ea224fe,,,,,,,,,4239,-84,-56,1,0,0,response5disk,,2,-12,10,1,0,0,rectangle,-12,10,1,0,0,-12,10,1,0,0,0,125,125,113,1,,,,,,,,
,,,,,,,,,,,,,FF,,,,,,,,1.5671,,,,,,,,,,,,,,,,,,,,,,61032728290ef8e5d30afcaf,610369d0292d5a54a075b5e9,2021-07-29_23h00.16.077,Simcolourproject_2stim_asymm_v5,2020.2.10,Win32,60,61025ae37ef11b136ea224fe,,,,,,,,,2504,68,79,1,0,0,response1disk,,7,22,-13,1,0,0,rectangle,22,-13,1,0,0,22,-13,1,0,0,0,126,126,96,1,,,,,,,,
,,,,,,,,,,,,,FF,,,,,,,,1.2839,,,,,,,,,,,,,,,,,,,,,,61032728290ef8e5d30afcaf,610369d0292d5a54a075b5e9,2021-07-29_23h00.16.077,Simcolourproject_2stim_asymm_v5,2020.2.10,Win32,60,61025ae37ef11b136ea224fe,,,,,,,,,2997,-107,45,1,0,0,response7disk,,1,11,-2,1,0,0,rectangle,11,-2,1,0,0,11,-2,1,0,0,0,127,127,33,1,,,,,,,,
,,,,,,,,,,,,,FF,,,,,,,,2.9845,,,,,,,,,,,,,,,,,,,,,,61032728290ef8e5d30afcaf,610369d0292d5a54a075b5e9,2021-07-29_23h00.16.077,Simcolourproject_2stim_asymm_v5,2020.2.10,Win32,60,61025ae37ef11b136ea224fe,,,,,,,,,1570,52,-115,1,0,0,response3disk,,4,-1,1,1,0,0,rectangle,-1,1,1,0,0,-1,1,1,0,0,0,128,128,2,1,,,,,,,,
,,,,,,,,,,,,,FF,,,,,,,,1.3172,,,,,,,,,,,,,,,,,,,,,,61032728290ef8e5d30afcaf,610369d0292d5a54a075b5e9,2021-07-29_23h00.16.077,Simcolourproject_2stim_asymm_v5,2020.2.10,Win32,60,61025ae37ef11b136ea224fe,,,,,,,,,2808,122,41,1,0,0,response1disk,,6,30,6,1,0,0,rectangle,30,6,1,0,0,30,6,1,0,0,0,129,129,154,1,,,,,,,,
,,,,,,,,,,,,,FF,,,,,,,,1.1837,,,,,,,,,,,,,,,,,,,,,,61032728290ef8e5d30afcaf,610369d0292d5a54a075b5e9,2021-07-29_23h00.16.077,Simcolourproject_2stim_asymm_v5,2020.2.10,Win32,60,61025ae37ef11b136ea224fe,,,,,,,,,157,44,-98,1,0,0,response3disk,,4,7,-4,1,0,0,rectangle,7,-4,1,0,0,7,-4,1,0,0,0,130,130,79,1,,,,,,,,
,,,,,,,,,,,,,FF,,,,,,,,1.167,,,,,,,,,,,,,,,,,,,,,,61032728290ef8e5d30afcaf,610369d0292d5a54a075b5e9,2021-07-29_23h00.16.077,Simcolourproject_2stim_asymm_v5,2020.2.10,Win32,60,61025ae37ef11b136ea224fe,,,,,,,,,1921,122,-61,1,0,0,response3disk,,5,9,-9,1,0,0,rectangle,9,-9,1,0,0,9,-9,1,0,0,0,131,131,106,1,,,,,,,,
,,,,,,,,,,,,,FF,,,,,,,,0.9001,,,,,,,,,,,,,,,,,,,,,,61032728290ef8e5d30afcaf,610369d0292d5a54a075b5e9,2021-07-29_23h00.16.077,Simcolourproject_2stim_asymm_v5,2020.2.10,Win32,60,61025ae37ef11b136ea224fe,,,,,,,,,3591,-48,105,1,0,0,response7disk,,0,-26,21,1,0,0,rectangle,-26,21,1,0,0,-26,21,1,0,0,0,132,132,40,1,,,,,,,,
,,,,,,,,,,,,,FF,,,,,,,,1.3325,,,,,,,,,,,,,,,,,,,,,,61032728290ef8e5d30afcaf,610369d0292d5a54a075b5e9,2021-07-29_23h00.16.077,Simcolourproject_2stim_asymm_v5,2020.2.10,Win32,60,61025ae37ef11b136ea224fe,,,,,,,,,2838,-38,-96,1,0,0,response5disk,,3,-5,3,1,0,0,rectangle,-5,3,1,0,0,-5,3,1,0,0,0,133,133,12,1,,,,,,,,
,,,,,,,,,,,,,FF,,,,,,,,1.3834,,,,,,,,,,,,,,,,,,,,,,61032728290ef8e5d30afcaf,610369d0292d5a54a075b5e9,2021-07-29_23h00.16.077,Simcolourproject_2stim_asymm_v5,2020.2.10,Win32,60,61025ae37ef11b136ea224fe,,,,,,,,,1705,-95,-39,1,0,0,response5disk,,2,-7,-2,1,0,0,rectangle,-7,-2,1,0,0,-7,-2,1,0,0,0,134,134,32,1,,,,,,,,
,,,,,,,,,,,,,FF,,,,,,,,1.5674,,,,,,,,,,,,,,,,,,,,,,61032728290ef8e5d30afcaf,610369d0292d5a54a075b5e9,2021-07-29_23h00.16.077,Simcolourproject_2stim_asymm_v5,2020.2.10,Win32,60,61025ae37ef11b136ea224fe,,,,,,,,,4033,129,54,1,0,0,response1disk,,6,26,0,1,0,0,rectangle,26,0,1,0,0,26,0,1,0,0,0,135,135,65,1,,,,,,,,
,,,,,,,,,,,,,FF,,,,,,,,0.9837,,,,,,,,,,,,,,,,,,,,,,61032728290ef8e5d30afcaf,610369d0292d5a54a075b5e9,2021-07-29_23h00.16.077,Simcolourproject_2stim_asymm_v5,2020.2.10,Win32,60,61025ae37ef11b136ea224fe,,,,,,,,,129,93,-46,1,0,0,response3disk,,5,6,0,1,0,0,rectangle,6,0,1,0,0,6,0,1,0,0,0,136,136,20,1,,,,,,,,
,,,,,,,,,,,,,FF,,,,,,,,1.0002,,,,,,,,,,,,,,,,,,,,,,61032728290ef8e5d30afcaf,610369d0292d5a54a075b5e9,2021-07-29_23h00.16.077,Simcolourproject_2stim_asymm_v5,2020.2.10,Win32,60,61025ae37ef11b136ea224fe,,,,,,,,,3105,-95,53,1,0,0,response7disk,,1,-10,0,1,0,0,rectangle,-10,0,1,0,0,-10,0,1,0,0,0,137,137,97,1,,,,,,,,
,,,,,,,,,,,,,FF,,,,,,,,2.2171,,,,,,,,,,,,,,,,,,,,,,61032728290ef8e5d30afcaf,610369d0292d5a54a075b5e9,2021-07-29_23h00.16.077,Simcolourproject_2stim_asymm_v5,2020.2.10,Win32,60,61025ae37ef11b136ea224fe,,,,,,,,,1241,132,38,1,0,0,response1disk,,6,14,-1,1,0,0,rectangle,14,-1,1,0,0,14,-1,1,0,0,0,138,138,56,1,,,,,,,,
,,,,,,,,,,,,,FF,,,,,,,,0.7834,,,,,,,,,,,,,,,,,,,,,,61032728290ef8e5d30afcaf,610369d0292d5a54a075b5e9,2021-07-29_23h00.16.077,Simcolourproject_2stim_asymm_v5,2020.2.10,Win32,60,61025ae37ef11b136ea224fe,,,,,,,,,1957,-88,43,1,0,0,response7disk,,1,8,5,1,0,0,rectangle,8,5,1,0,0,8,5,1,0,0,0,139,139,54,1,,,,,,,,
,,,,,,,,,,,,,FF,,,,,,,,1.4337,,,,,,,,,,,,,,,,,,,,,,61032728290ef8e5d30afcaf,610369d0292d5a54a075b5e9,2021-07-29_23h00.16.077,Simcolourproject_2stim_asymm_v5,2020.2.10,Win32,60,61025ae37ef11b136ea224fe,,,,,,,,,2180,55,-103,1,0,0,response3disk,,4,-31,-2,1,0,0,rectangle,-31,-2,1,0,0,-31,-2,1,0,0,0,140,140,29,1,,,,,,,,
,,,,,,,,,,,,,FF,,,,,,,,1.3671,,,,,,,,,,,,,,,,,,,,,,61032728290ef8e5d30afcaf,610369d0292d5a54a075b5e9,2021-07-29_23h00.16.077,Simcolourproject_2stim_asymm_v5,2020.2.10,Win32,60,61025ae37ef11b136ea224fe,,,,,,,,,1794,129,55,1,0,0,response1disk,,6,29,0,1,0,0,rectangle,29,0,1,0,0,29,0,1,0,0,0,141,141,92,1,,,,,,,,
,,,,,,,,,,,,,FF,,,,,,,,0.8003,,,,,,,,,,,,,,,,,,,,,,61032728290ef8e5d30afcaf,610369d0292d5a54a075b5e9,2021-07-29_23h00.16.077,Simcolourproject_2stim_asymm_v5,2020.2.10,Win32,60,61025ae37ef11b136ea224fe,,,,,,,,,4350,-52,100,1,0,0,response7disk,,0,-3,1,1,0,0,rectangle,-87,-51,1,0,0,-8,5,1,0,0,0,142,142,77,1,,response5disk_3,TRUE,2,2,"[88,222,254,249,143,152,41,147,93,119,236,151,160,76,3,151,262,13,212,228]",1.2671,rectangle
,,,,,,,,,,,,,FF,,,,,,,,1.6339,,,,,,,,,,,,,,,,,,,,,,61032728290ef8e5d30afcaf,610369d0292d5a54a075b5e9,2021-07-29_23h00.16.077,Simcolourproject_2stim_asymm_v5,2020.2.10,Win32,60,61025ae37ef11b136ea224fe,,,,,,,,,345,-40,-106,1,0,0,response5disk,,3,-15,-7,1,0,0,rectangle,-15,-7,1,0,0,-15,-7,1,0,0,0,143,143,51,1,,,,,,,,
,,,,,,,,,,,,,FF,,,,,,,,1.6673,,,,,,,,,,,,,,,,,,,,,,61032728290ef8e5d30afcaf,610369d0292d5a54a075b5e9,2021-07-29_23h00.16.077,Simcolourproject_2stim_asymm_v5,2020.2.10,Win32,60,61025ae37ef11b136ea224fe,,,,,,,,,2466,-108,-72,1,0,0,response5disk,,2,4,-6,1,0,0,rectangle,4,-6,1,0,0,4,-6,1,0,0,0,144,144,43,1,,,,,,,,
,,,,,,,,,,,,,FF,,,,,,,,0.8506,,,,,,,,,,,,,,,,,,,,,,61032728290ef8e5d30afcaf,610369d0292d5a54a075b5e9,2021-07-29_23h00.16.077,Simcolourproject_2stim_asymm_v5,2020.2.10,Win32,60,61025ae37ef11b136ea224fe,,,,,,,,,1749,66,-99,1,0,0,response3disk,,4,24,-4,1,0,0,rectangle,24,-4,1,0,0,24,-4,1,0,0,0,145,145,122,1,,,,,,,,
,,,,,,,,,,,,,FF,,,,,,,,2.3841,,,,,,,,,,,,,,,,,,,,,,61032728290ef8e5d30afcaf,610369d0292d5a54a075b5e9,2021-07-29_23h00.16.077,Simcolourproject_2stim_asymm_v5,2020.2.10,Win32,60,61025ae37ef11b136ea224fe,,,,,,,,,3612,122,48,1,0,0,response1disk,,6,19,4,1,0,0,rectangle,-108,64,1,0,0,4,2,1,0,0,0,146,146,73,1,,response7disk_3,TRUE,1,1,"[88,222,254,249,143,152,41,147,93,119,236,151,160,76,3,151,262,13,212,228]",1.1671,rectangle
,,,,,,,,,,,,,FF,,,,,,,,1.5673,,,,,,,,,,,,,,,,,,,,,,61032728290ef8e5d30afcaf,610369d0292d5a54a075b5e9,2021-07-29_23h00.16.077,Simcolourproject_2stim_asymm_v5,2020.2.10,Win32,60,61025ae37ef11b136ea224fe,,,,,,,,,163,36,-109,1,0,0,response3disk,,4,-1,-2,1,0,0,rectangle,-1,-2,1,0,0,-1,-2,1,0,0,0,147,147,157,1,,,,,,,,
,,,,,,,,,,,,,FF,,,,,,,,1.0503,,,,,,,,,,,,,,,,,,,,,,61032728290ef8e5d30afcaf,610369d0292d5a54a075b5e9,2021-07-29_23h00.16.077,Simcolourproject_2stim_asymm_v5,2020.2.10,Win32,60,61025ae37ef11b136ea224fe,,,,,,,,,3457,41,74,1,0,0,response1disk,,7,22,-20,1,0,0,rectangle,22,-20,1,0,0,22,-20,1,0,0,0,148,148,115,1,,,,,,,,
,,,,,,,,,,,,,FF,,,,,,,,2.4845,,,,,,,,,,,,,,,,,,,,,,61032728290ef8e5d30afcaf,610369d0292d5a54a075b5e9,2021-07-29_23h00.16.077,Simcolourproject_2stim_asymm_v5,2020.2.10,Win32,60,61025ae37ef11b136ea224fe,,,,,,,,,3384,154,-73,1,0,0,response3disk,,5,16,-10,1,0,0,rectangle,16,-10,1,0,0,16,-10,1,0,0,0,149,149,90,1,,,,,,,,
,,,,,,,,,,,,,FF,,,,,,,,1.1502,,,,,,,,,,,,,,,,,,,,,,61032728290ef8e5d30afcaf,610369d0292d5a54a075b5e9,2021-07-29_23h00.16.077,Simcolourproject_2stim_asymm_v5,2020.2.10,Win32,60,61025ae37ef11b136ea224fe,,,,,,,,,1597,-92,47,1,0,0,response7disk,,1,-5,-10,1,0,0,rectangle,126,45,1,0,0,19,-1,1,0,0,0,150,150,88,1,,response1disk_3,TRUE,6,6,"[88,222,254,249,143,152,41,147,93,119,236,151,160,76,3,151,262,13,212,228]",1.5673,rectangle
,,,,,,,,,,,,,FF,,,,,,,,3.1678,,,,,,,,,,,,,,,,,,,,,,61032728290ef8e5d30afcaf,610369d0292d5a54a075b5e9,2021-07-29_23h00.16.077,Simcolourproject_2stim_asymm_v5,2020.2.10,Win32,60,61025ae37ef11b136ea224fe,,,,,,,,,3323,56,-122,1,0,0,response3disk,,4,2,-4,1,0,0,rectangle,94,-50,1,0,0,4,6,1,0,0,0,151,151,76,1,,response3disk_3,TRUE,5,5,"[88,222,254,249,143,152,41,147,93,119,236,151,160,76,3,151,262,13,212,228]",1.3002,rectangle
,,,,,,,,,,,,,FF,,,,,,,,1.3003,,,,,,,,,,,,,,,,,,,,,,61032728290ef8e5d30afcaf,610369d0292d5a54a075b5e9,2021-07-29_23h00.16.077,Simcolourproject_2stim_asymm_v5,2020.2.10,Win32,60,61025ae37ef11b136ea224fe,,,,,,,,,758,125,52,1,0,0,response1disk,,6,18,-8,1,0,0,rectangle,18,-8,1,0,0,18,-8,1,0,0,0,152,152,27,1,,,,,,,,
,,,,,,,,,,,,,FF,,,,,,,,1.0669,,,,,,,,,,,,,,,,,,,,,,61032728290ef8e5d30afcaf,610369d0292d5a54a075b5e9,2021-07-29_23h00.16.077,Simcolourproject_2stim_asymm_v5,2020.2.10,Win32,60,61025ae37ef11b136ea224fe,,,,,,,,,654,118,-79,1,0,0,response3disk,,5,-11,-6,1,0,0,rectangle,-11,-6,1,0,0,-11,-6,1,0,0,0,153,153,135,1,,,,,,,,
,,,,,,,,,,,,,FF,,,,,,,,0.7666,,,,,,,,,,,,,,,,,,,,,,61032728290ef8e5d30afcaf,610369d0292d5a54a075b5e9,2021-07-29_23h00.16.077,Simcolourproject_2stim_asymm_v5,2020.2.10,Win32,60,61025ae37ef11b136ea224fe,,,,,,,,,4052,-108,54,1,0,0,response7disk,,1,-15,-6,1,0,0,rectangle,-15,-6,1,0,0,-15,-6,1,0,0,0,154,154,15,1,,,,,,,,
,,,,,,,,,,,,,FF,,,,,,,,0.8169,,,,,,,,,,,,,,,,,,,,,,61032728290ef8e5d30afcaf,610369d0292d5a54a075b5e9,2021-07-29_23h00.16.077,Simcolourproject_2stim_asymm_v5,2020.2.10,Win32,60,61025ae37ef11b136ea224fe,,,,,,,,,871,-78,-57,1,0,0,response5disk,,2,22,-6,1,0,0,rectangle,22,-6,1,0,0,22,-6,1,0,0,0,155,155,118,1,,,,,,,,
,,,,,,,,,,,,,FF,,,,,,,,1.0504,,,,,,,,,,,,,,,,,,,,,,61032728290ef8e5d30afcaf,610369d0292d5a54a075b5e9,2021-07-29_23h00.16.077,Simcolourproject_2stim_asymm_v5,2020.2.10,Win32,60,61025ae37ef11b136ea224fe,,,,,,,,,2867,117,57,1,0,0,response1disk,,6,22,-1,1,0,0,rectangle,22,-1,1,0,0,22,-1,1,0,0,0,156,156,68,1,,,,,,,,
,,,,,,,,,,,,,FF,,,,,,,,0.7836,,,,,,,,,,,,,,,,,,,,,,61032728290ef8e5d30afcaf,610369d0292d5a54a075b5e9,2021-07-29_23h00.16.077,Simcolourproject_2stim_asymm_v5,2020.2.10,Win32,60,61025ae37ef11b136ea224fe,,,,,,,,,2697,120,43,1,0,0,response1disk,,6,11,-7,1,0,0,rectangle,11,-7,1,0,0,11,-7,1,0,0,0,157,157,152,1,,,,,,,,
,,,,,,,,,,,,,FF,,,,,,,,1.0502,,,,,,,,,,,,,,,,,,,,,,61032728290ef8e5d30afcaf,610369d0292d5a54a075b5e9,2021-07-29_23h00.16.077,Simcolourproject_2stim_asymm_v5,2020.2.10,Win32,60,61025ae37ef11b136ea224fe,,,,,,,,,2878,-87,-57,1,0,0,response5disk,,2,17,1,1,0,0,rectangle,17,1,1,0,0,17,1,1,0,0,0,158,158,159,1,,,,,,,,
,,,,,,,,,,,,,FF,,,,,,,,0.7837,,,,,,,,,,,,,,,,,,,,,,61032728290ef8e5d30afcaf,610369d0292d5a54a075b5e9,2021-07-29_23h00.16.077,Simcolourproject_2stim_asymm_v5,2020.2.10,Win32,60,61025ae37ef11b136ea224fe,,,,,,,,,2639,120,-57,1,0,0,response3disk,,5,10,-6,1,0,0,rectangle,143,72,1,0,0,20,1,1,0,0,0,159,159,156,1,,response1disk_3,TRUE,6,6,"[88,222,254,249,143,152,41,147,93,119,236,151,160,76,3,151,262,13,212,228]",1.3502,rectangle
,,,,,,,,,,,,,FF,,,,,,,,1.2172,,,,,,,,,,,,,,,,,,,,,,61032728290ef8e5d30afcaf,610369d0292d5a54a075b5e9,2021-07-29_23h00.16.077,Simcolourproject_2stim_asymm_v5,2020.2.10,Win32,60,61025ae37ef11b136ea224fe,,,,,,,,,3637,-80,-42,1,0,0,response5disk,,2,12,-10,1,0,0,rectangle,12,-10,1,0,0,12,-10,1,0,0,1,0,160,89,1,,,,,,,,
,,,,,,,,,,,,,FF,,,,,,,,1.3503,,,,,,,,,,,,,,,,,,,,,,61032728290ef8e5d30afcaf,610369d0292d5a54a075b5e9,2021-07-29_23h00.16.077,Simcolourproject_2stim_asymm_v5,2020.2.10,Win32,60,61025ae37ef11b136ea224fe,,,,,,,,,1810,87,-110,1,0,0,response3disk,,4,8,-15,1,0,0,rectangle,8,-15,1,0,0,8,-15,1,0,0,1,1,161,51,1,,,,,,,,
,,,,,,,,,,,,,FF,,,,,,,,1.6004,,,,,,,,,,,,,,,,,,,,,,61032728290ef8e5d30afcaf,610369d0292d5a54a075b5e9,2021-07-29_23h00.16.077,Simcolourproject_2stim_asymm_v5,2020.2.10,Win32,60,61025ae37ef11b136ea224fe,,,,,,,,,344,123,-64,1,0,0,response3disk,,5,18,-11,1,0,0,rectangle,18,-11,1,0,0,18,-11,1,0,0,1,2,162,126,1,,,,,,,,
,,,,,,,,,,,,,FF,,,,,,,,0.9668,,,,,,,,,,,,,,,,,,,,,,61032728290ef8e5d30afcaf,610369d0292d5a54a075b5e9,2021-07-29_23h00.16.077,Simcolourproject_2stim_asymm_v5,2020.2.10,Win32,60,61025ae37ef11b136ea224fe,,,,,,,,,1878,-54,-94,1,0,0,response5disk,,3,-32,4,1,0,0,rectangle,-32,4,1,0,0,-32,4,1,0,0,1,3,163,118,1,,,,,,,,
,,,,,,,,,,,,,FF,,,,,,,,0.8168,,,,,,,,,,,,,,,,,,,,,,61032728290ef8e5d30afcaf,610369d0292d5a54a075b5e9,2021-07-29_23h00.16.077,Simcolourproject_2stim_asymm_v5,2020.2.10,Win32,60,61025ae37ef11b136ea224fe,,,,,,,,,2516,60,-130,1,0,0,response3disk,,4,0,-10,1,0,0,rectangle,0,-10,1,0,0,0,-10,1,0,0,1,4,164,127,1,,,,,,,,
,,,,,,,,,,,,,FF,,,,,,,,1.1504,,,,,,,,,,,,,,,,,,,,,,61032728290ef8e5d30afcaf,610369d0292d5a54a075b5e9,2021-07-29_23h00.16.077,Simcolourproject_2stim_asymm_v5,2020.2.10,Win32,60,61025ae37ef11b136ea224fe,,,,,,,,,1849,35,-117,1,0,0,response3disk,,4,9,-10,1,0,0,rectangle,9,-10,1,0,0,9,-10,1,0,0,1,5,165,8,1,,,,,,,,
,,,,,,,,,,,,,FF,,,,,,,,1.484,,,,,,,,,,,,,,,,,,,,,,61032728290ef8e5d30afcaf,610369d0292d5a54a075b5e9,2021-07-29_23h00.16.077,Simcolourproject_2stim_asymm_v5,2020.2.10,Win32,60,61025ae37ef11b136ea224fe,,,,,,,,,4016,116,-47,1,0,0,response3disk,,5,-1,-2,1,0,0,rectangle,-1,-2,1,0,0,-1,-2,1,0,0,1,6,166,107,1,,,,,,,,
,,,,,,,,,,,,,FF,,,,,,,,0.7502,,,,,,,,,,,,,,,,,,,,,,61032728290ef8e5d30afcaf,610369d0292d5a54a075b5e9,2021-07-29_23h00.16.077,Simcolourproject_2stim_asymm_v5,2020.2.10,Win32,60,61025ae37ef11b136ea224fe,,,,,,,,,2798,125,46,1,0,0,response1disk,,6,22,6,1,0,0,rectangle,22,6,1,0,0,22,6,1,0,0,1,7,167,49,1,,,,,,,,
,,,,,,,,,,,,,FF,,,,,,,,0.5333,,,,,,,,,,,,,,,,,,,,,,61032728290ef8e5d30afcaf,610369d0292d5a54a075b5e9,2021-07-29_23h00.16.077,Simcolourproject_2stim_asymm_v5,2020.2.10,Win32,60,61025ae37ef11b136ea224fe,,,,,,,,,2923,54,-100,1,0,0,response3disk,,4,10,2,1,0,0,rectangle,10,2,1,0,0,10,2,1,0,0,1,8,168,16,1,,,,,,,,
,,,,,,,,,,,,,FF,,,,,,,,0.8835,,,,,,,,,,,,,,,,,,,,,,61032728290ef8e5d30afcaf,610369d0292d5a54a075b5e9,2021-07-29_23h00.16.077,Simcolourproject_2stim_asymm_v5,2020.2.10,Win32,60,61025ae37ef11b136ea224fe,,,,,,,,,2107,-62,-101,1,0,0,response5disk,,3,-2,-8,1,0,0,rectangle,-2,-8,1,0,0,-2,-8,1,0,0,1,9,169,70,1,,,,,,,,
,,,,,,,,,,,,,FF,,,,,,,,4.6849,,,,,,,,,,,,,,,,,,,,,,61032728290ef8e5d30afcaf,610369d0292d5a54a075b5e9,2021-07-29_23h00.16.077,Simcolourproject_2stim_asymm_v5,2020.2.10,Win32,60,61025ae37ef11b136ea224fe,,,,,,,,,433,46,-147,1,0,0,response3disk,,4,14,-6,1,0,0,rectangle,14,-6,1,0,0,14,-6,1,0,0,1,10,170,119,1,,,,,,,,
,,,,,,,,,,,,,FF,,,,,,,,0.8668,,,,,,,,,,,,,,,,,,,,,,61032728290ef8e5d30afcaf,610369d0292d5a54a075b5e9,2021-07-29_23h00.16.077,Simcolourproject_2stim_asymm_v5,2020.2.10,Win32,60,61025ae37ef11b136ea224fe,,,,,,,,,151,-60,-105,1,0,0,response5disk,,3,-14,0,1,0,0,rectangle,-14,0,1,0,0,-14,0,1,0,0,1,11,171,96,1,,,,,,,,
,,,,,,,,,,,,,FF,,,,,,,,1.5173,,,,,,,,,,,,,,,,,,,,,,61032728290ef8e5d30afcaf,610369d0292d5a54a075b5e9,2021-07-29_23h00.16.077,Simcolourproject_2stim_asymm_v5,2020.2.10,Win32,60,61025ae37ef11b136ea224fe,,,,,,,,,881,133,-51,1,0,0,response3disk,,5,-8,-9,1,0,0,rectangle,-8,-9,1,0,0,-8,-9,1,0,0,1,12,172,150,1,,,,,,,,
,,,,,,,,,,,,,FF,,,,,,,,1.0504,,,,,,,,,,,,,,,,,,,,,,61032728290ef8e5d30afcaf,610369d0292d5a54a075b5e9,2021-07-29_23h00.16.077,Simcolourproject_2stim_asymm_v5,2020.2.10,Win32,60,61025ae37ef11b136ea224fe,,,,,,,,,3111,158,41,1,0,0,response1disk,,6,33,-6,1,0,0,rectangle,33,-6,1,0,0,33,-6,1,0,0,1,13,173,0,1,,,,,,,,
,,,,,,,,,,,,,FF,,,,,,,,1.0503,,,,,,,,,,,,,,,,,,,,,,61032728290ef8e5d30afcaf,610369d0292d5a54a075b5e9,2021-07-29_23h00.16.077,Simcolourproject_2stim_asymm_v5,2020.2.10,Win32,60,61025ae37ef11b136ea224fe,,,,,,,,,1405,-111,-46,1,0,0,response5disk,,2,18,-4,1,0,0,rectangle,18,-4,1,0,0,18,-4,1,0,0,1,14,174,55,1,,,,,,,,
,,,,,,,,,,,,,FF,,,,,,,,0.5169,,,,,,,,,,,,,,,,,,,,,,61032728290ef8e5d30afcaf,610369d0292d5a54a075b5e9,2021-07-29_23h00.16.077,Simcolourproject_2stim_asymm_v5,2020.2.10,Win32,60,61025ae37ef11b136ea224fe,,,,,,,,,2799,122,-62,1,0,0,response3disk,,5,10,4,1,0,0,rectangle,10,4,1,0,0,10,4,1,0,0,1,15,175,83,1,,,,,,,,
,,,,,,,,,,,,,FF,,,,,,,,1.684,,,,,,,,,,,,,,,,,,,,,,61032728290ef8e5d30afcaf,610369d0292d5a54a075b5e9,2021-07-29_23h00.16.077,Simcolourproject_2stim_asymm_v5,2020.2.10,Win32,60,61025ae37ef11b136ea224fe,,,,,,,,,518,-45,-111,1,0,0,response5disk,,3,-8,0,1,0,0,rectangle,-8,0,1,0,0,-8,0,1,0,0,1,16,176,15,1,,,,,,,,
,,,,,,,,,,,,,FF,,,,,,,,0.9837,,,,,,,,,,,,,,,,,,,,,,61032728290ef8e5d30afcaf,610369d0292d5a54a075b5e9,2021-07-29_23h00.16.077,Simcolourproject_2stim_asymm_v5,2020.2.10,Win32,60,61025ae37ef11b136ea224fe,,,,,,,,,1756,-90,-44,1,0,0,response5disk,,2,40,-3,1,0,0,rectangle,40,-3,1,0,0,40,-3,1,0,0,1,17,177,100,1,,,,,,,,
,,,,,,,,,,,,,FF,,,,,,,,1.7838,,,,,,,,,,,,,,,,,,,,,,61032728290ef8e5d30afcaf,610369d0292d5a54a075b5e9,2021-07-29_23h00.16.077,Simcolourproject_2stim_asymm_v5,2020.2.10,Win32,60,61025ae37ef11b136ea224fe,,,,,,,,,1545,116,-52,1,0,0,response3disk,,5,16,0,1,0,0,rectangle,16,0,1,0,0,16,0,1,0,0,1,18,178,158,1,,,,,,,,
,,,,,,,,,,,,,FF,,,,,,,,1.1504,,,,,,,,,,,,,,,,,,,,,,61032728290ef8e5d30afcaf,610369d0292d5a54a075b5e9,2021-07-29_23h00.16.077,Simcolourproject_2stim_asymm_v5,2020.2.10,Win32,60,61025ae37ef11b136ea224fe,,,,,,,,,2067,128,43,1,0,0,response1disk,,6,8,-2,1,0,0,rectangle,8,-2,1,0,0,8,-2,1,0,0,1,19,179,43,1,,,,,,,,
,,,,,,,,,,,,,FF,,,,,,,,0.7669,,,,,,,,,,,,,,,,,,,,,,61032728290ef8e5d30afcaf,610369d0292d5a54a075b5e9,2021-07-29_23h00.16.077,Simcolourproject_2stim_asymm_v5,2020.2.10,Win32,60,61025ae37ef11b136ea224fe,,,,,,,,,112,50,123,1,0,0,response1disk,,7,8,-3,1,0,0,rectangle,8,-3,1,0,0,8,-3,1,0,0,1,20,180,124,1,,,,,,,,
,,,,,,,,,,,,,FF,,,,,,,,1.3004,,,,,,,,,,,,,,,,,,,,,,61032728290ef8e5d30afcaf,610369d0292d5a54a075b5e9,2021-07-29_23h00.16.077,Simcolourproject_2stim_asymm_v5,2020.2.10,Win32,60,61025ae37ef11b136ea224fe,,,,,,,,,749,115,-44,1,0,0,response3disk,,5,-12,0,1,0,0,rectangle,-12,0,1,0,0,-12,0,1,0,0,1,21,181,155,1,,,,,,,,
,,,,,,,,,,,,,FF,,,,,,,,1.4171,,,,,,,,,,,,,,,,,,,,,,61032728290ef8e5d30afcaf,610369d0292d5a54a075b5e9,2021-07-29_23h00.16.077,Simcolourproject_2stim_asymm_v5,2020.2.10,Win32,60,61025ae37ef11b136ea224fe,,,,,,,,,1872,129,59,1,0,0,response1disk,,6,23,2,1,0,0,rectangle,23,2,1,0,0,23,2,1,0,0,1,22,182,17,1,,,,,,,,
,,,,,,,,,,,,,FF,,,,,,,,1.0504,,,,,,,,,,,,,,,,,,,,,,61032728290ef8e5d30afcaf,610369d0292d5a54a075b5e9,2021-07-29_23h00.16.077,Simcolourproject_2stim_asymm_v5,2020.2.10,Win32,60,61025ae37ef11b136ea224fe,,,,,,,,,954,-48,-135,1,0,0,response5disk,,3,9,-11,1,0,0,rectangle,9,-11,1,0,0,9,-11,1,0,0,1,23,183,58,1,,,,,,,,
,,,,,,,,,,,,,FF,,,,,,,,1.984,,,,,,,,,,,,,,,,,,,,,,61032728290ef8e5d30afcaf,610369d0292d5a54a075b5e9,2021-07-29_23h00.16.077,Simcolourproject_2stim_asymm_v5,2020.2.10,Win32,60,61025ae37ef11b136ea224fe,,,,,,,,,3227,145,35,1,0,0,response1disk,,6,33,-14,1,0,0,rectangle,33,-14,1,0,0,33,-14,1,0,0,1,24,184,19,1,,,,,,,,
,,,,,,,,,,,,,FF,,,,,,,,1.9341,,,,,,,,,,,,,,,,,,,,,,61032728290ef8e5d30afcaf,610369d0292d5a54a075b5e9,2021-07-29_23h00.16.077,Simcolourproject_2stim_asymm_v5,2020.2.10,Win32,60,61025ae37ef11b136ea224fe,,,,,,,,,1474,86,-45,1,0,0,response3disk,,5,-27,-4,1,0,0,rectangle,-27,-4,1,0,0,-27,-4,1,0,0,1,25,185,85,1,,,,,,,,
,,,,,,,,,,,,,FF,,,,,,,,1.3672,,,,,,,,,,,,,,,,,,,,,,61032728290ef8e5d30afcaf,610369d0292d5a54a075b5e9,2021-07-29_23h00.16.077,Simcolourproject_2stim_asymm_v5,2020.2.10,Win32,60,61025ae37ef11b136ea224fe,,,,,,,,,2402,99,-35,1,0,0,response3disk,,5,18,2,1,0,0,rectangle,18,2,1,0,0,18,2,1,0,0,1,26,186,35,1,,,,,,,,
,,,,,,,,,,,,,FF,,,,,,,,1.1006,,,,,,,,,,,,,,,,,,,,,,61032728290ef8e5d30afcaf,610369d0292d5a54a075b5e9,2021-07-29_23h00.16.077,Simcolourproject_2stim_asymm_v5,2020.2.10,Win32,60,61025ae37ef11b136ea224fe,,,,,,,,,191,-93,-50,1,0,0,response5disk,,2,-3,-10,1,0,0,rectangle,-3,-10,1,0,0,-3,-10,1,0,0,1,27,187,18,1,,,,,,,,
,,,,,,,,,,,,,FF,,,,,,,,1.6505,,,,,,,,,,,,,,,,,,,,,,61032728290ef8e5d30afcaf,610369d0292d5a54a075b5e9,2021-07-29_23h00.16.077,Simcolourproject_2stim_asymm_v5,2020.2.10,Win32,60,61025ae37ef11b136ea224fe,,,,,,,,,1435,-47,-120,1,0,0,response5disk,,3,12,-7,1,0,0,rectangle,12,-7,1,0,0,12,-7,1,0,0,1,28,188,7,1,,,,,,,,
,,,,,,,,,,,,,FF,,,,,,,,0.8002,,,,,,,,,,,,,,,,,,,,,,61032728290ef8e5d30afcaf,610369d0292d5a54a075b5e9,2021-07-29_23h00.16.077,Simcolourproject_2stim_asymm_v5,2020.2.10,Win32,60,61025ae37ef11b136ea224fe,,,,,,,,,2075,131,-45,1,0,0,response3disk,,5,10,-7,1,0,0,rectangle,10,-7,1,0,0,10,-7,1,0,0,1,29,189,115,1,,,,,,,,
,,,,,,,,,,,,,FF,,,,,,,,1.5504,,,,,,,,,,,,,,,,,,,,,,61032728290ef8e5d30afcaf,610369d0292d5a54a075b5e9,2021-07-29_23h00.16.077,Simcolourproject_2stim_asymm_v5,2020.2.10,Win32,60,61025ae37ef11b136ea224fe,,,,,,,,,3972,118,36,1,0,0,response1disk,,6,19,-9,1,0,0,rectangle,19,-9,1,0,0,19,-9,1,0,0,1,30,190,145,1,,,,,,,,
,,,,,,,,,,,,,FF,,,,,,,,0.817,,,,,,,,,,,,,,,,,,,,,,61032728290ef8e5d30afcaf,610369d0292d5a54a075b5e9,2021-07-29_23h00.16.077,Simcolourproject_2stim_asymm_v5,2020.2.10,Win32,60,61025ae37ef11b136ea224fe,,,,,,,,,1110,129,-68,1,0,0,response3disk,,5,14,-11,1,0,0,rectangle,14,-11,1,0,0,14,-11,1,0,0,1,31,191,82,1,,,,,,,,
,,,,,,,,,,,,,FF,,,,,,,,1.1171,,,,,,,,,,,,,,,,,,,,,,61032728290ef8e5d30afcaf,610369d0292d5a54a075b5e9,2021-07-29_23h00.16.077,Simcolourproject_2stim_asymm_v5,2020.2.10,Win32,60,61025ae37ef11b136ea224fe,,,,,,,,,1389,-77,-56,1,0,0,response5disk,,2,-10,-7,1,0,0,rectangle,-10,-7,1,0,0,-10,-7,1,0,0,1,32,192,154,1,,,,,,,,
,,,,,,,,,,,,,FF,,,,,,,,0.7503,,,,,,,,,,,,,,,,,,,,,,61032728290ef8e5d30afcaf,610369d0292d5a54a075b5e9,2021-07-29_23h00.16.077,Simcolourproject_2stim_asymm_v5,2020.2.10,Win32,60,61025ae37ef11b136ea224fe,,,,,,,,,2008,65,-116,1,0,0,response3disk,,4,17,4,1,0,0,rectangle,17,4,1,0,0,17,4,1,0,0,1,33,193,79,1,,,,,,,,
,,,,,,,,,,,,,FF,,,,,,,,0.7836,,,,,,,,,,,,,,,,,,,,,,61032728290ef8e5d30afcaf,610369d0292d5a54a075b5e9,2021-07-29_23h00.16.077,Simcolourproject_2stim_asymm_v5,2020.2.10,Win32,60,61025ae37ef11b136ea224fe,,,,,,,,,1870,-39,-83,1,0,0,response5disk,,3,7,12,1,0,0,rectangle,7,12,1,0,0,7,12,1,0,0,1,34,194,36,1,,,,,,,,
,,,,,,,,,,,,,FF,,,,,,,,0.9168,,,,,,,,,,,,,,,,,,,,,,61032728290ef8e5d30afcaf,610369d0292d5a54a075b5e9,2021-07-29_23h00.16.077,Simcolourproject_2stim_asymm_v5,2020.2.10,Win32,60,61025ae37ef11b136ea224fe,,,,,,,,,1552,138,-47,1,0,0,response3disk,,5,10,-2,1,0,0,rectangle,10,-2,1,0,0,10,-2,1,0,0,1,35,195,37,1,,,,,,,,
,,,,,,,,,,,,,FF,,,,,,,,0.75,,,,,,,,,,,,,,,,,,,,,,61032728290ef8e5d30afcaf,610369d0292d5a54a075b5e9,2021-07-29_23h00.16.077,Simcolourproject_2stim_asymm_v5,2020.2.10,Win32,60,61025ae37ef11b136ea224fe,,,,,,,,,700,-80,-43,1,0,0,response5disk,,2,-1,8,1,0,0,rectangle,-1,8,1,0,0,-1,8,1,0,0,1,36,196,134,1,,,,,,,,
,,,,,,,,,,,,,FF,,,,,,,,0.6501,,,,,,,,,,,,,,,,,,,,,,61032728290ef8e5d30afcaf,610369d0292d5a54a075b5e9,2021-07-29_23h00.16.077,Simcolourproject_2stim_asymm_v5,2020.2.10,Win32,60,61025ae37ef11b136ea224fe,,,,,,,,,1997,68,-120,1,0,0,response3disk,,4,9,-6,1,0,0,rectangle,9,-6,1,0,0,9,-6,1,0,0,1,37,197,121,1,,,,,,,,
,,,,,,,,,,,,,FF,,,,,,,,1.3005,,,,,,,,,,,,,,,,,,,,,,61032728290ef8e5d30afcaf,610369d0292d5a54a075b5e9,2021-07-29_23h00.16.077,Simcolourproject_2stim_asymm_v5,2020.2.10,Win32,60,61025ae37ef11b136ea224fe,,,,,,,,,1320,106,52,1,0,0,response1disk,,6,0,0,1,0,0,rectangle,0,0,1,0,0,0,0,1,0,0,1,38,198,72,1,,,,,,,,
,,,,,,,,,,,,,FF,,,,,,,,1.3338,,,,,,,,,,,,,,,,,,,,,,61032728290ef8e5d30afcaf,610369d0292d5a54a075b5e9,2021-07-29_23h00.16.077,Simcolourproject_2stim_asymm_v5,2020.2.10,Win32,60,61025ae37ef11b136ea224fe,,,,,,,,,1598,-36,-113,1,0,0,response5disk,,3,-17,1,1,0,0,rectangle,-17,1,1,0,0,-17,1,1,0,0,1,39,199,60,1,,,,,,,,
,,,,,,,,,,,,,FF,,,,,,,,0.6001,,,,,,,,,,,,,,,,,,,,,,61032728290ef8e5d30afcaf,610369d0292d5a54a075b5e9,2021-07-29_23h00.16.077,Simcolourproject_2stim_asymm_v5,2020.2.10,Win32,60,61025ae37ef11b136ea224fe,,,,,,,,,306,106,-59,1,0,0,response3disk,,5,1,2,1,0,0,rectangle,1,2,1,0,0,1,2,1,0,0,1,40,200,21,1,,,,,,,,
,,,,,,,,,,,,,FF,,,,,,,,0.7669,,,,,,,,,,,,,,,,,,,,,,61032728290ef8e5d30afcaf,610369d0292d5a54a075b5e9,2021-07-29_23h00.16.077,Simcolourproject_2stim_asymm_v5,2020.2.10,Win32,60,61025ae37ef11b136ea224fe,,,,,,,,,2823,52,-116,1,0,0,response3disk,,4,-17,-6,1,0,0,rectangle,-17,-6,1,0,0,-17,-6,1,0,0,1,41,201,93,1,,,,,,,,
,,,,,,,,,,,,,FF,,,,,,,,0.6837,,,,,,,,,,,,,,,,,,,,,,61032728290ef8e5d30afcaf,610369d0292d5a54a075b5e9,2021-07-29_23h00.16.077,Simcolourproject_2stim_asymm_v5,2020.2.10,Win32,60,61025ae37ef11b136ea224fe,,,,,,,,,1967,-85,-62,1,0,0,response5disk,,2,1,-10,1,0,0,rectangle,1,-10,1,0,0,1,-10,1,0,0,1,42,202,52,1,,,,,,,,
,,,,,,,,,,,,,FF,,,,,,,,1.1003,,,,,,,,,,,,,,,,,,,,,,61032728290ef8e5d30afcaf,610369d0292d5a54a075b5e9,2021-07-29_23h00.16.077,Simcolourproject_2stim_asymm_v5,2020.2.10,Win32,60,61025ae37ef11b136ea224fe,,,,,,,,,12,128,-50,1,0,0,response3disk,,5,9,-4,1,0,0,rectangle,9,-4,1,0,0,9,-4,1,0,0,1,43,203,125,1,,,,,,,,
,,,,,,,,,,,,,FF,,,,,,,,1.3671,,,,,,,,,,,,,,,,,,,,,,61032728290ef8e5d30afcaf,610369d0292d5a54a075b5e9,2021-07-29_23h00.16.077,Simcolourproject_2stim_asymm_v5,2020.2.10,Win32,60,61025ae37ef11b136ea224fe,,,,,,,,,638,-85,-50,1,0,0,response5disk,,2,-15,3,1,0,0,rectangle,-15,3,1,0,0,-15,3,1,0,0,1,44,204,98,1,,,,,,,,
,,,,,,,,,,,,,FF,,,,,,,,1.067,,,,,,,,,,,,,,,,,,,,,,61032728290ef8e5d30afcaf,610369d0292d5a54a075b5e9,2021-07-29_23h00.16.077,Simcolourproject_2stim_asymm_v5,2020.2.10,Win32,60,61025ae37ef11b136ea224fe,,,,,,,,,1055,-85,-46,1,0,0,response5disk,,2,-24,-6,1,0,0,rectangle,-24,-6,1,0,0,-24,-6,1,0,0,1,45,205,39,1,,,,,,,,
,,,,,,,,,,,,,FF,,,,,,,,1.3672,,,,,,,,,,,,,,,,,,,,,,61032728290ef8e5d30afcaf,610369d0292d5a54a075b5e9,2021-07-29_23h00.16.077,Simcolourproject_2stim_asymm_v5,2020.2.10,Win32,60,61025ae37ef11b136ea224fe,,,,,,,,,4126,-78,-59,1,0,0,response5disk,,2,16,-14,1,0,0,rectangle,16,-14,1,0,0,16,-14,1,0,0,1,46,206,140,1,,,,,,,,
,,,,,,,,,,,,,FF,,,,,,,,0.984,,,,,,,,,,,,,,,,,,,,,,61032728290ef8e5d30afcaf,610369d0292d5a54a075b5e9,2021-07-29_23h00.16.077,Simcolourproject_2stim_asymm_v5,2020.2.10,Win32,60,61025ae37ef11b136ea224fe,,,,,,,,,1560,126,-24,1,0,0,response3disk,,5,7,-3,1,0,0,rectangle,7,-3,1,0,0,7,-3,1,0,0,1,47,207,25,1,,,,,,,,
,,,,,,,,,,,,,FF,,,,,,,,1.584,,,,,,,,,,,,,,,,,,,,,,61032728290ef8e5d30afcaf,610369d0292d5a54a075b5e9,2021-07-29_23h00.16.077,Simcolourproject_2stim_asymm_v5,2020.2.10,Win32,60,61025ae37ef11b136ea224fe,,,,,,,,,423,62,-107,1,0,0,response3disk,,4,9,-6,1,0,0,rectangle,9,-6,1,0,0,9,-6,1,0,0,1,48,208,31,1,,,,,,,,
,,,,,,,,,,,,,FF,,,,,,,,1.8674,,,,,,,,,,,,,,,,,,,,,,61032728290ef8e5d30afcaf,610369d0292d5a54a075b5e9,2021-07-29_23h00.16.077,Simcolourproject_2stim_asymm_v5,2020.2.10,Win32,60,61025ae37ef11b136ea224fe,,,,,,,,,2877,46,-113,1,0,0,response3disk,,4,-5,-8,1,0,0,rectangle,-5,-8,1,0,0,-5,-8,1,0,0,1,49,209,110,1,,,,,,,,
,,,,,,,,,,,,,FF,,,,,,,,0.7505,,,,,,,,,,,,,,,,,,,,,,61032728290ef8e5d30afcaf,610369d0292d5a54a075b5e9,2021-07-29_23h00.16.077,Simcolourproject_2stim_asymm_v5,2020.2.10,Win32,60,61025ae37ef11b136ea224fe,,,,,,,,,769,105,-42,1,0,0,response3disk,,5,8,-8,1,0,0,rectangle,8,-8,1,0,0,8,-8,1,0,0,1,50,210,92,1,,,,,,,,
,,,,,,,,,,,,,FF,,,,,,,,0.7502,,,,,,,,,,,,,,,,,,,,,,61032728290ef8e5d30afcaf,610369d0292d5a54a075b5e9,2021-07-29_23h00.16.077,Simcolourproject_2stim_asymm_v5,2020.2.10,Win32,60,61025ae37ef11b136ea224fe,,,,,,,,,2809,63,89,1,0,0,response1disk,,7,16,-21,1,0,0,rectangle,50,126,1,0,0,-11,13,1,0,0,1,51,211,123,1,,response1disk_3,TRUE,7,7,"[88,222,254,249,143,152,41,147,93,119,236,151,160,76,3,151,262,13,212,228]",1.3841,rectangle
,,,,,,,,,,,,,FF,,,,,,,,1.9674,,,,,,,,,,,,,,,,,,,,,,61032728290ef8e5d30afcaf,610369d0292d5a54a075b5e9,2021-07-29_23h00.16.077,Simcolourproject_2stim_asymm_v5,2020.2.10,Win32,60,61025ae37ef11b136ea224fe,,,,,,,,,741,35,-99,1,0,0,response3disk,,4,1,-20,1,0,0,rectangle,1,-20,1,0,0,1,-20,1,0,0,1,52,212,113,1,,,,,,,,
,,,,,,,,,,,,,FF,,,,,,,,0.7503,,,,,,,,,,,,,,,,,,,,,,61032728290ef8e5d30afcaf,610369d0292d5a54a075b5e9,2021-07-29_23h00.16.077,Simcolourproject_2stim_asymm_v5,2020.2.10,Win32,60,61025ae37ef11b136ea224fe,,,,,,,,,1621,-44,-85,1,0,0,response5disk,,3,1,4,1,0,0,rectangle,1,4,1,0,0,1,4,1,0,0,1,53,213,84,1,,,,,,,,
,,,,,,,,,,,,,FF,,,,,,,,1.1669,,,,,,,,,,,,,,,,,,,,,,61032728290ef8e5d30afcaf,610369d0292d5a54a075b5e9,2021-07-29_23h00.16.077,Simcolourproject_2stim_asymm_v5,2020.2.10,Win32,60,61025ae37ef11b136ea224fe,,,,,,,,,2458,46,101,1,0,0,response1disk,,7,29,-2,1,0,0,rectangle,29,-2,1,0,0,29,-2,1,0,0,1,54,214,120,1,,,,,,,,
,,,,,,,,,,,,,FF,,,,,,,,1.5838,,,,,,,,,,,,,,,,,,,,,,61032728290ef8e5d30afcaf,610369d0292d5a54a075b5e9,2021-07-29_23h00.16.077,Simcolourproject_2stim_asymm_v5,2020.2.10,Win32,60,61025ae37ef11b136ea224fe,,,,,,,,,3078,102,-64,1,0,0,response3disk,,5,11,-8,1,0,0,rectangle,11,-8,1,0,0,11,-8,1,0,0,1,55,215,44,1,,,,,,,,
,,,,,,,,,,,,,FF,,,,,,,,1.1837,,,,,,,,,,,,,,,,,,,,,,61032728290ef8e5d30afcaf,610369d0292d5a54a075b5e9,2021-07-29_23h00.16.077,Simcolourproject_2stim_asymm_v5,2020.2.10,Win32,60,61025ae37ef11b136ea224fe,,,,,,,,,3288,56,-99,1,0,0,response3disk,,4,11,0,1,0,0,rectangle,11,0,1,0,0,11,0,1,0,0,1,56,216,9,1,,,,,,,,
,,,,,,,,,,,,,FF,,,,,,,,1.4004,,,,,,,,,,,,,,,,,,,,,,61032728290ef8e5d30afcaf,610369d0292d5a54a075b5e9,2021-07-29_23h00.16.077,Simcolourproject_2stim_asymm_v5,2020.2.10,Win32,60,61025ae37ef11b136ea224fe,,,,,,,,,4263,130,41,1,0,0,response1disk,,6,24,-12,1,0,0,rectangle,24,-12,1,0,0,24,-12,1,0,0,1,57,217,151,1,,,,,,,,
,,,,,,,,,,,,,FF,,,,,,,,0.8336,,,,,,,,,,,,,,,,,,,,,,61032728290ef8e5d30afcaf,610369d0292d5a54a075b5e9,2021-07-29_23h00.16.077,Simcolourproject_2stim_asymm_v5,2020.2.10,Win32,60,61025ae37ef11b136ea224fe,,,,,,,,,739,142,-59,1,0,0,response3disk,,5,19,-11,1,0,0,rectangle,19,-11,1,0,0,19,-11,1,0,0,1,58,218,62,1,,,,,,,,
,,,,,,,,,,,,,FF,,,,,,,,0.8673,,,,,,,,,,,,,,,,,,,,,,61032728290ef8e5d30afcaf,610369d0292d5a54a075b5e9,2021-07-29_23h00.16.077,Simcolourproject_2stim_asymm_v5,2020.2.10,Win32,60,61025ae37ef11b136ea224fe,,,,,,,,,2054,44,-99,1,0,0,response3disk,,4,5,6,1,0,0,rectangle,5,6,1,0,0,5,6,1,0,0,1,59,219,34,1,,,,,,,,
,,,,,,,,,,,,,FF,,,,,,,,0.9836,,,,,,,,,,,,,,,,,,,,,,61032728290ef8e5d30afcaf,610369d0292d5a54a075b5e9,2021-07-29_23h00.16.077,Simcolourproject_2stim_asymm_v5,2020.2.10,Win32,60,61025ae37ef11b136ea224fe,,,,,,,,,1184,131,72,1,0,0,response1disk,,6,33,-4,1,0,0,rectangle,33,-4,1,0,0,33,-4,1,0,0,1,60,220,80,1,,,,,,,,
,,,,,,,,,,,,,FF,,,,,,,,1.2338,,,,,,,,,,,,,,,,,,,,,,61032728290ef8e5d30afcaf,610369d0292d5a54a075b5e9,2021-07-29_23h00.16.077,Simcolourproject_2stim_asymm_v5,2020.2.10,Win32,60,61025ae37ef11b136ea224fe,,,,,,,,,1286,68,-100,1,0,0,response3disk,,4,23,-4,1,0,0,rectangle,-39,97,1,0,0,-8,-4,1,0,0,1,61,221,73,1,,response7disk_3,TRUE,0,0,"[88,222,254,249,143,152,41,147,93,119,236,151,160,76,3,151,262,13,212,228]",1.4336,rectangle
,,,,,,,,,,,,,FF,,,,,,,,1.1338,,,,,,,,,,,,,,,,,,,,,,61032728290ef8e5d30afcaf,610369d0292d5a54a075b5e9,2021-07-29_23h00.16.077,Simcolourproject_2stim_asymm_v5,2020.2.10,Win32,60,61025ae37ef11b136ea224fe,,,,,,,,,4168,-79,-49,1,0,0,response5disk,,2,5,-4,1,0,0,rectangle,5,-4,1,0,0,5,-4,1,0,0,1,62,222,116,1,,,,,,,,
,,,,,,,,,,,,,FF,,,,,,,,0.7669,,,,,,,,,,,,,,,,,,,,,,61032728290ef8e5d30afcaf,610369d0292d5a54a075b5e9,2021-07-29_23h00.16.077,Simcolourproject_2stim_asymm_v5,2020.2.10,Win32,60,61025ae37ef11b136ea224fe,,,,,,,,,718,-67,-44,1,0,0,response5disk,,2,-4,-9,1,0,0,rectangle,-4,-9,1,0,0,-4,-9,1,0,0,1,63,223,122,1,,,,,,,,
,,,,,,,,,,,,,FF,,,,,,,,0.7843,,,,,,,,,,,,,,,,,,,,,,61032728290ef8e5d30afcaf,610369d0292d5a54a075b5e9,2021-07-29_23h00.16.077,Simcolourproject_2stim_asymm_v5,2020.2.10,Win32,60,61025ae37ef11b136ea224fe,,,,,,,,,3330,-90,-52,1,0,0,response5disk,,2,12,-15,1,0,0,rectangle,12,-15,1,0,0,12,-15,1,0,0,1,64,224,33,1,,,,,,,,
,,,,,,,,,,,,,FF,,,,,,,,0.6335,,,,,,,,,,,,,,,,,,,,,,61032728290ef8e5d30afcaf,610369d0292d5a54a075b5e9,2021-07-29_23h00.16.077,Simcolourproject_2stim_asymm_v5,2020.2.10,Win32,60,61025ae37ef11b136ea224fe,,,,,,,,,4241,-80,-55,1,0,0,response5disk,,2,12,-15,1,0,0,rectangle,12,-15,1,0,0,12,-15,1,0,0,1,65,225,103,1,,,,,,,,
,,,,,,,,,,,,,FF,,,,,,,,1.4673,,,,,,,,,,,,,,,,,,,,,,61032728290ef8e5d30afcaf,610369d0292d5a54a075b5e9,2021-07-29_23h00.16.077,Simcolourproject_2stim_asymm_v5,2020.2.10,Win32,60,61025ae37ef11b136ea224fe,,,,,,,,,1542,-27,-95,1,0,0,response5disk,,3,-6,4,1,0,0,rectangle,-6,4,1,0,0,-6,4,1,0,0,1,66,226,61,1,,,,,,,,
,,,,,,,,,,,,,FF,,,,,,,,0.767,,,,,,,,,,,,,,,,,,,,,,61032728290ef8e5d30afcaf,610369d0292d5a54a075b5e9,2021-07-29_23h00.16.077,Simcolourproject_2stim_asymm_v5,2020.2.10,Win32,60,61025ae37ef11b136ea224fe,,,,,,,,,2527,62,-117,1,0,0,response3disk,,4,32,5,1,0,0,rectangle,63,124,1,0,0,2,1,1,0,0,1,67,227,87,1,,response1disk_3,TRUE,7,7,"[88,222,254,249,143,152,41,147,93,119,236,151,160,76,3,151,262,13,212,228]",1.6671,rectangle
,,,,,,,,,,,,,FF,,,,,,,,1.6339,,,,,,,,,,,,,,,,,,,,,,61032728290ef8e5d30afcaf,610369d0292d5a54a075b5e9,2021-07-29_23h00.16.077,Simcolourproject_2stim_asymm_v5,2020.2.10,Win32,60,61025ae37ef11b136ea224fe,,,,,,,,,3645,126,49,1,0,0,response1disk,,6,0,1,1,0,0,rectangle,0,1,1,0,0,0,1,1,0,0,1,68,228,148,1,,,,,,,,
,,,,,,,,,,,,,FF,,,,,,,,0.7502,,,,,,,,,,,,,,,,,,,,,,61032728290ef8e5d30afcaf,610369d0292d5a54a075b5e9,2021-07-29_23h00.16.077,Simcolourproject_2stim_asymm_v5,2020.2.10,Win32,60,61025ae37ef11b136ea224fe,,,,,,,,,1075,107,-73,1,0,0,response3disk,,5,-22,5,1,0,0,rectangle,-22,5,1,0,0,-22,5,1,0,0,1,69,229,22,1,,,,,,,,
,,,,,,,,,,,,,FF,,,,,,,,0.9503,,,,,,,,,,,,,,,,,,,,,,61032728290ef8e5d30afcaf,610369d0292d5a54a075b5e9,2021-07-29_23h00.16.077,Simcolourproject_2stim_asymm_v5,2020.2.10,Win32,60,61025ae37ef11b136ea224fe,,,,,,,,,2096,-95,-40,1,0,0,response5disk,,2,-6,8,1,0,0,rectangle,-6,8,1,0,0,-6,8,1,0,0,1,70,230,27,1,,,,,,,,
,,,,,,,,,,,,,FF,,,,,,,,1.1004,,,,,,,,,,,,,,,,,,,,,,61032728290ef8e5d30afcaf,610369d0292d5a54a075b5e9,2021-07-29_23h00.16.077,Simcolourproject_2stim_asymm_v5,2020.2.10,Win32,60,61025ae37ef11b136ea224fe,,,,,,,,,898,105,-50,1,0,0,response3disk,,5,9,10,1,0,0,rectangle,9,10,1,0,0,9,10,1,0,0,1,71,231,32,1,,,,,,,,
,,,,,,,,,,,,,FF,,,,,,,,0.8835,,,,,,,,,,,,,,,,,,,,,,61032728290ef8e5d30afcaf,610369d0292d5a54a075b5e9,2021-07-29_23h00.16.077,Simcolourproject_2stim_asymm_v5,2020.2.10,Win32,60,61025ae37ef11b136ea224fe,,,,,,,,,910,66,128,1,0,0,response1disk,,7,40,-10,1,0,0,rectangle,40,-10,1,0,0,40,-10,1,0,0,1,72,232,66,1,,,,,,,,
,,,,,,,,,,,,,FF,,,,,,,,0.8837,,,,,,,,,,,,,,,,,,,,,,61032728290ef8e5d30afcaf,610369d0292d5a54a075b5e9,2021-07-29_23h00.16.077,Simcolourproject_2stim_asymm_v5,2020.2.10,Win32,60,61025ae37ef11b136ea224fe,,,,,,,,,3282,-98,-49,1,0,0,response5disk,,2,24,4,1,0,0,rectangle,24,4,1,0,0,24,4,1,0,0,1,73,233,57,1,,,,,,,,
,,,,,,,,,,,,,FF,,,,,,,,0.9501,,,,,,,,,,,,,,,,,,,,,,61032728290ef8e5d30afcaf,610369d0292d5a54a075b5e9,2021-07-29_23h00.16.077,Simcolourproject_2stim_asymm_v5,2020.2.10,Win32,60,61025ae37ef11b136ea224fe,,,,,,,,,1653,118,57,1,0,0,response1disk,,6,-5,5,1,0,0,rectangle,-5,5,1,0,0,-5,5,1,0,0,1,74,234,4,1,,,,,,,,
,,,,,,,,,,,,,FF,,,,,,,,1.1337,,,,,,,,,,,,,,,,,,,,,,61032728290ef8e5d30afcaf,610369d0292d5a54a075b5e9,2021-07-29_23h00.16.077,Simcolourproject_2stim_asymm_v5,2020.2.10,Win32,60,61025ae37ef11b136ea224fe,,,,,,,,,1032,118,64,1,0,0,response1disk,,6,5,6,1,0,0,rectangle,138,-50,1,0,0,12,4,1,0,0,1,75,235,149,1,,response3disk_3,TRUE,5,5,"[88,222,254,249,143,152,41,147,93,119,236,151,160,76,3,151,262,13,212,228]",1.2836,rectangle
,,,,,,,,,,,,,FF,,,,,,,,1.017,,,,,,,,,,,,,,,,,,,,,,61032728290ef8e5d30afcaf,610369d0292d5a54a075b5e9,2021-07-29_23h00.16.077,Simcolourproject_2stim_asymm_v5,2020.2.10,Win32,60,61025ae37ef11b136ea224fe,,,,,,,,,2244,-54,-127,1,0,0,response5disk,,3,9,-1,1,0,0,rectangle,9,-1,1,0,0,9,-1,1,0,0,1,76,236,156,1,,,,,,,,
,,,,,,,,,,,,,FF,,,,,,,,5.0018,,,,,,,,,,,,,,,,,,,,,,61032728290ef8e5d30afcaf,610369d0292d5a54a075b5e9,2021-07-29_23h00.16.077,Simcolourproject_2stim_asymm_v5,2020.2.10,Win32,60,61025ae37ef11b136ea224fe,,,,,,,,,3232,70,-125,1,0,0,response3disk,,4,30,-11,1,0,0,rectangle,30,-11,1,0,0,30,-11,1,0,0,1,77,237,13,1,,,,,,,,
,,,,,,,,,,,,,FF,,,,,,,,1.6005,,,,,,,,,,,,,,,,,,,,,,61032728290ef8e5d30afcaf,610369d0292d5a54a075b5e9,2021-07-29_23h00.16.077,Simcolourproject_2stim_asymm_v5,2020.2.10,Win32,60,61025ae37ef11b136ea224fe,,,,,,,,,2269,70,99,1,0,0,response1disk,,7,26,-9,1,0,0,rectangle,26,-9,1,0,0,26,-9,1,0,0,1,78,238,53,1,,,,,,,,
,,,,,,,,,,,,,FF,,,,,,,,0.9337,,,,,,,,,,,,,,,,,,,,,,61032728290ef8e5d30afcaf,610369d0292d5a54a075b5e9,2021-07-29_23h00.16.077,Simcolourproject_2stim_asymm_v5,2020.2.10,Win32,60,61025ae37ef11b136ea224fe,,,,,,,,,3456,111,62,1,0,0,response1disk,,6,11,-10,1,0,0,rectangle,11,-10,1,0,0,11,-10,1,0,0,1,79,239,91,1,,,,,,,,
,,,,,,,,,,,,,FF,,,,,,,,0.567,,,,,,,,,,,,,,,,,,,,,,61032728290ef8e5d30afcaf,610369d0292d5a54a075b5e9,2021-07-29_23h00.16.077,Simcolourproject_2stim_asymm_v5,2020.2.10,Win32,60,61025ae37ef11b136ea224fe,,,,,,,,,1017,145,51,1,0,0,response1disk,,6,40,-9,1,0,0,rectangle,40,-9,1,0,0,40,-9,1,0,0,1,80,240,40,1,,,,,,,,
,,,,,,,,,,,,,FF,,,,,,,,0.9836,,,,,,,,,,,,,,,,,,,,,,61032728290ef8e5d30afcaf,610369d0292d5a54a075b5e9,2021-07-29_23h00.16.077,Simcolourproject_2stim_asymm_v5,2020.2.10,Win32,60,61025ae37ef11b136ea224fe,,,,,,,,,4298,-86,-70,1,0,0,response5disk,,2,21,4,1,0,0,rectangle,21,4,1,0,0,21,4,1,0,0,1,81,241,3,1,,,,,,,,
,,,,,,,,,,,,,FF,,,,,,,,0.6503,,,,,,,,,,,,,,,,,,,,,,61032728290ef8e5d30afcaf,610369d0292d5a54a075b5e9,2021-07-29_23h00.16.077,Simcolourproject_2stim_asymm_v5,2020.2.10,Win32,60,61025ae37ef11b136ea224fe,,,,,,,,,141,129,46,1,0,0,response1disk,,6,19,2,1,0,0,rectangle,19,2,1,0,0,19,2,1,0,0,1,82,242,46,1,,,,,,,,
,,,,,,,,,,,,,FF,,,,,,,,0.8337,,,,,,,,,,,,,,,,,,,,,,61032728290ef8e5d30afcaf,610369d0292d5a54a075b5e9,2021-07-29_23h00.16.077,Simcolourproject_2stim_asymm_v5,2020.2.10,Win32,60,61025ae37ef11b136ea224fe,,,,,,,,,2325,144,51,1,0,0,response1disk,,6,12,-7,1,0,0,rectangle,12,-7,1,0,0,12,-7,1,0,0,1,83,243,97,1,,,,,,,,
,,,,,,,,,,,,,FF,,,,,,,,0.7337,,,,,,,,,,,,,,,,,,,,,,61032728290ef8e5d30afcaf,610369d0292d5a54a075b5e9,2021-07-29_23h00.16.077,Simcolourproject_2stim_asymm_v5,2020.2.10,Win32,60,61025ae37ef11b136ea224fe,,,,,,,,,4284,62,84,1,0,0,response1disk,,7,19,-15,1,0,0,rectangle,19,-15,1,0,0,19,-15,1,0,0,1,84,244,67,1,,,,,,,,
,,,,,,,,,,,,,FF,,,,,,,,0.6837,,,,,,,,,,,,,,,,,,,,,,61032728290ef8e5d30afcaf,610369d0292d5a54a075b5e9,2021-07-29_23h00.16.077,Simcolourproject_2stim_asymm_v5,2020.2.10,Win32,60,61025ae37ef11b136ea224fe,,,,,,,,,408,143,49,1,0,0,response1disk,,6,29,-16,1,0,0,rectangle,29,-16,1,0,0,29,-16,1,0,0,1,85,245,24,1,,,,,,,,
,,,,,,,,,,,,,FF,,,,,,,,0.9835,,,,,,,,,,,,,,,,,,,,,,61032728290ef8e5d30afcaf,610369d0292d5a54a075b5e9,2021-07-29_23h00.16.077,Simcolourproject_2stim_asymm_v5,2020.2.10,Win32,60,61025ae37ef11b136ea224fe,,,,,,,,,1171,-76,-51,1,0,0,response5disk,,2,8,-4,1,0,0,rectangle,8,-4,1,0,0,8,-4,1,0,0,1,86,246,153,1,,,,,,,,
,,,,,,,,,,,,,FF,,,,,,,,0.6501,,,,,,,,,,,,,,,,,,,,,,61032728290ef8e5d30afcaf,610369d0292d5a54a075b5e9,2021-07-29_23h00.16.077,Simcolourproject_2stim_asymm_v5,2020.2.10,Win32,60,61025ae37ef11b136ea224fe,,,,,,,,,2631,140,60,1,0,0,response1disk,,6,0,5,1,0,0,rectangle,0,5,1,0,0,0,5,1,0,0,1,87,247,102,1,,,,,,,,
,,,,,,,,,,,,,FF,,,,,,,,0.7002,,,,,,,,,,,,,,,,,,,,,,61032728290ef8e5d30afcaf,610369d0292d5a54a075b5e9,2021-07-29_23h00.16.077,Simcolourproject_2stim_asymm_v5,2020.2.10,Win32,60,61025ae37ef11b136ea224fe,,,,,,,,,3074,97,-62,1,0,0,response3disk,,5,-4,-13,1,0,0,rectangle,-39,108,1,0,0,-6,-2,1,0,0,1,88,248,112,1,,response7disk_3,TRUE,0,0,"[88,222,254,249,143,152,41,147,93,119,236,151,160,76,3,151,262,13,212,228]",1.3336,rectangle
,,,,,,,,,,,,,FF,,,,,,,,1.4004,,,,,,,,,,,,,,,,,,,,,,61032728290ef8e5d30afcaf,610369d0292d5a54a075b5e9,2021-07-29_23h00.16.077,Simcolourproject_2stim_asymm_v5,2020.2.10,Win32,60,61025ae37ef11b136ea224fe,,,,,,,,,2079,126,-56,1,0,0,response3disk,,5,-4,1,1,0,0,rectangle,-4,1,1,0,0,-4,1,1,0,0,1,89,249,38,1,,,,,,,,
,,,,,,,,,,,,,FF,,,,,,,,1.9673,,,,,,,,,,,,,,,,,,,,,,61032728290ef8e5d30afcaf,610369d0292d5a54a075b5e9,2021-07-29_23h00.16.077,Simcolourproject_2stim_asymm_v5,2020.2.10,Win32,60,61025ae37ef11b136ea224fe,,,,,,,,,3490,43,-122,1,0,0,response3disk,,4,4,1,1,0,0,rectangle,4,1,1,0,0,4,1,1,0,0,1,90,250,94,1,,,,,,,,
,,,,,,,,,,,,,FF,,,,,,,,2.2838,,,,,,,,,,,,,,,,,,,,,,61032728290ef8e5d30afcaf,610369d0292d5a54a075b5e9,2021-07-29_23h00.16.077,Simcolourproject_2stim_asymm_v5,2020.2.10,Win32,60,61025ae37ef11b136ea224fe,,,,,,,,,3784,-45,-84,1,0,0,response5disk,,3,-16,5,1,0,0,rectangle,-16,5,1,0,0,-16,5,1,0,0,1,91,251,117,1,,,,,,,,
,,,,,,,,,,,,,FF,,,,,,,,1.1172,,,,,,,,,,,,,,,,,,,,,,61032728290ef8e5d30afcaf,610369d0292d5a54a075b5e9,2021-07-29_23h00.16.077,Simcolourproject_2stim_asymm_v5,2020.2.10,Win32,60,61025ae37ef11b136ea224fe,,,,,,,,,963,133,-38,1,0,0,response3disk,,5,1,-21,1,0,0,rectangle,1,-21,1,0,0,1,-21,1,0,0,1,92,252,111,1,,,,,,,,
,,,,,,,,,,,,,FF,,,,,,,,1.5839,,,,,,,,,,,,,,,,,,,,,,61032728290ef8e5d30afcaf,610369d0292d5a54a075b5e9,2021-07-29_23h00.16.077,Simcolourproject_2stim_asymm_v5,2020.2.10,Win32,60,61025ae37ef11b136ea224fe,,,,,,,,,2618,55,-119,1,0,0,response3disk,,4,-3,2,1,0,0,rectangle,47,-119,1,0,0,-13,11,1,0,0,1,93,253,59,1,,response3disk_3,TRUE,4,4,"[88,222,254,249,143,152,41,147,93,119,236,151,160,76,3,151,262,13,212,228]",1.1336,rectangle
,,,,,,,,,,,,,FF,,,,,,,,2.0672,,,,,,,,,,,,,,,,,,,,,,61032728290ef8e5d30afcaf,610369d0292d5a54a075b5e9,2021-07-29_23h00.16.077,Simcolourproject_2stim_asymm_v5,2020.2.10,Win32,60,61025ae37ef11b136ea224fe,,,,,,,,,4192,-44,-109,1,0,0,response5disk,,3,-8,-11,1,0,0,rectangle,-8,-11,1,0,0,-8,-11,1,0,0,1,94,254,29,1,,,,,,,,
,,,,,,,,,,,,,FF,,,,,,,,0.9002,,,,,,,,,,,,,,,,,,,,,,61032728290ef8e5d30afcaf,610369d0292d5a54a075b5e9,2021-07-29_23h00.16.077,Simcolourproject_2stim_asymm_v5,2020.2.10,Win32,60,61025ae37ef11b136ea224fe,,,,,,,,,2420,-109,47,1,0,0,response7disk,,1,-11,-1,1,0,0,rectangle,-11,-1,1,0,0,-11,-1,1,0,0,1,95,255,90,1,,,,,,,,
,,,,,,,,,,,,,FF,,,,,,,,1.7339,,,,,,,,,,,,,,,,,,,,,,61032728290ef8e5d30afcaf,610369d0292d5a54a075b5e9,2021-07-29_23h00.16.077,Simcolourproject_2stim_asymm_v5,2020.2.10,Win32,60,61025ae37ef11b136ea224fe,,,,,,,,,4034,43,-137,1,0,0,response3disk,,4,-12,-4,1,0,0,rectangle,-12,-4,1,0,0,-12,-4,1,0,0,1,96,256,42,1,,,,,,,,
,,,,,,,,,,,,,FF,,,,,,,,0.6835,,,,,,,,,,,,,,,,,,,,,,61032728290ef8e5d30afcaf,610369d0292d5a54a075b5e9,2021-07-29_23h00.16.077,Simcolourproject_2stim_asymm_v5,2020.2.10,Win32,60,61025ae37ef11b136ea224fe,,,,,,,,,835,115,63,1,0,0,response1disk,,6,-7,1,1,0,0,rectangle,-7,1,1,0,0,-7,1,1,0,0,1,97,257,74,1,,,,,,,,
,,,,,,,,,,,,,FF,,,,,,,,0.8836,,,,,,,,,,,,,,,,,,,,,,61032728290ef8e5d30afcaf,610369d0292d5a54a075b5e9,2021-07-29_23h00.16.077,Simcolourproject_2stim_asymm_v5,2020.2.10,Win32,60,61025ae37ef11b136ea224fe,,,,,,,,,2646,56,93,1,0,0,response1disk,,7,23,2,1,0,0,rectangle,23,2,1,0,0,23,2,1,0,0,1,98,258,68,1,,,,,,,,
,,,,,,,,,,,,,FF,,,,,,,,0.8502,,,,,,,,,,,,,,,,,,,,,,61032728290ef8e5d30afcaf,610369d0292d5a54a075b5e9,2021-07-29_23h00.16.077,Simcolourproject_2stim_asymm_v5,2020.2.10,Win32,60,61025ae37ef11b136ea224fe,,,,,,,,,119,41,77,1,0,0,response1disk,,7,6,5,1,0,0,rectangle,6,5,1,0,0,6,5,1,0,0,1,99,259,5,1,,,,,,,,
,,,,,,,,,,,,,FF,,,,,,,,1.8839,,,,,,,,,,,,,,,,,,,,,,61032728290ef8e5d30afcaf,610369d0292d5a54a075b5e9,2021-07-29_23h00.16.077,Simcolourproject_2stim_asymm_v5,2020.2.10,Win32,60,61025ae37ef11b136ea224fe,,,,,,,,,1616,107,-57,1,0,0,response3disk,,5,-10,-20,1,0,0,rectangle,-10,-20,1,0,0,-10,-20,1,0,0,1,100,260,26,1,,,,,,,,
,,,,,,,,,,,,,FF,,,,,,,,0.7501,,,,,,,,,,,,,,,,,,,,,,61032728290ef8e5d30afcaf,610369d0292d5a54a075b5e9,2021-07-29_23h00.16.077,Simcolourproject_2stim_asymm_v5,2020.2.10,Win32,60,61025ae37ef11b136ea224fe,,,,,,,,,1768,69,-135,1,0,0,response3disk,,4,10,-14,1,0,0,rectangle,-47,-109,1,0,0,-20,14,1,0,0,1,101,261,104,1,,response5disk_3,TRUE,3,3,"[88,222,254,249,143,152,41,147,93,119,236,151,160,76,3,151,262,13,212,228]",1.0502,rectangle
,,,,,,,,,,,,,FF,,,,,,,,0.8167,,,,,,,,,,,,,,,,,,,,,,61032728290ef8e5d30afcaf,610369d0292d5a54a075b5e9,2021-07-29_23h00.16.077,Simcolourproject_2stim_asymm_v5,2020.2.10,Win32,60,61025ae37ef11b136ea224fe,,,,,,,,,909,-81,-62,1,0,0,response5disk,,2,4,-6,1,0,0,rectangle,4,-6,1,0,0,4,-6,1,0,0,1,102,262,48,1,,,,,,,,
,,,,,,,,,,,,,FF,,,,,,,,0.7334,,,,,,,,,,,,,,,,,,,,,,61032728290ef8e5d30afcaf,610369d0292d5a54a075b5e9,2021-07-29_23h00.16.077,Simcolourproject_2stim_asymm_v5,2020.2.10,Win32,60,61025ae37ef11b136ea224fe,,,,,,,,,333,101,-56,1,0,0,response3disk,,5,-11,-2,1,0,0,rectangle,-11,-2,1,0,0,-11,-2,1,0,0,1,103,263,133,1,,,,,,,,
,,,,,,,,,,,,,FF,,,,,,,,1.3338,,,,,,,,,,,,,,,,,,,,,,61032728290ef8e5d30afcaf,610369d0292d5a54a075b5e9,2021-07-29_23h00.16.077,Simcolourproject_2stim_asymm_v5,2020.2.10,Win32,60,61025ae37ef11b136ea224fe,,,,,,,,,3174,108,41,1,0,0,response1disk,,6,-5,1,1,0,0,rectangle,-5,1,1,0,0,-5,1,1,0,0,1,104,264,106,1,,,,,,,,
,,,,,,,,,,,,,FF,,,,,,,,0.8169,,,,,,,,,,,,,,,,,,,,,,61032728290ef8e5d30afcaf,610369d0292d5a54a075b5e9,2021-07-29_23h00.16.077,Simcolourproject_2stim_asymm_v5,2020.2.10,Win32,60,61025ae37ef11b136ea224fe,,,,,,,,,1428,91,-72,1,0,0,response3disk,,5,-19,-13,1,0,0,rectangle,-19,-13,1,0,0,-19,-13,1,0,0,1,105,265,6,1,,,,,,,,
,,,,,,,,,,,,,FF,,,,,,,,0.8508,,,,,,,,,,,,,,,,,,,,,,61032728290ef8e5d30afcaf,610369d0292d5a54a075b5e9,2021-07-29_23h00.16.077,Simcolourproject_2stim_asymm_v5,2020.2.10,Win32,60,61025ae37ef11b136ea224fe,,,,,,,,,3067,125,38,1,0,0,response1disk,,6,22,-7,1,0,0,rectangle,22,-7,1,0,0,22,-7,1,0,0,1,106,266,41,1,,,,,,,,
,,,,,,,,,,,,,FF,,,,,,,,1.5169,,,,,,,,,,,,,,,,,,,,,,61032728290ef8e5d30afcaf,610369d0292d5a54a075b5e9,2021-07-29_23h00.16.077,Simcolourproject_2stim_asymm_v5,2020.2.10,Win32,60,61025ae37ef11b136ea224fe,,,,,,,,,104,-42,-110,1,0,0,response5disk,,3,1,-1,1,0,0,rectangle,1,-1,1,0,0,1,-1,1,0,0,1,107,267,108,1,,,,,,,,
,,,,,,,,,,,,,FF,,,,,,,,0.6669,,,,,,,,,,,,,,,,,,,,,,61032728290ef8e5d30afcaf,610369d0292d5a54a075b5e9,2021-07-29_23h00.16.077,Simcolourproject_2stim_asymm_v5,2020.2.10,Win32,60,61025ae37ef11b136ea224fe,,,,,,,,,3332,119,-43,1,0,0,response3disk,,5,16,1,1,0,0,rectangle,16,1,1,0,0,16,1,1,0,0,1,108,268,2,1,,,,,,,,
,,,,,,,,,,,,,FF,,,,,,,,1.7004,,,,,,,,,,,,,,,,,,,,,,61032728290ef8e5d30afcaf,610369d0292d5a54a075b5e9,2021-07-29_23h00.16.077,Simcolourproject_2stim_asymm_v5,2020.2.10,Win32,60,61025ae37ef11b136ea224fe,,,,,,,,,2994,-57,-99,1,0,0,response5disk,,3,-13,-9,1,0,0,rectangle,-13,-9,1,0,0,-13,-9,1,0,0,1,109,269,11,1,,,,,,,,
,,,,,,,,,,,,,FF,,,,,,,,0.8335,,,,,,,,,,,,,,,,,,,,,,61032728290ef8e5d30afcaf,610369d0292d5a54a075b5e9,2021-07-29_23h00.16.077,Simcolourproject_2stim_asymm_v5,2020.2.10,Win32,60,61025ae37ef11b136ea224fe,,,,,,,,,3476,-93,54,1,0,0,response7disk,,1,-18,0,1,0,0,rectangle,-18,0,1,0,0,-18,0,1,0,0,1,110,270,54,1,,,,,,,,
,,,,,,,,,,,,,FF,,,,,,,,0.6335,,,,,,,,,,,,,,,,,,,,,,61032728290ef8e5d30afcaf,610369d0292d5a54a075b5e9,2021-07-29_23h00.16.077,Simcolourproject_2stim_asymm_v5,2020.2.10,Win32,60,61025ae37ef11b136ea224fe,,,,,,,,,3375,-96,34,1,0,0,response7disk,,1,0,-9,1,0,0,rectangle,0,-9,1,0,0,0,-9,1,0,0,1,111,271,95,1,,,,,,,,
,,,,,,,,,,,,,FF,,,,,,,,0.8669,,,,,,,,,,,,,,,,,,,,,,61032728290ef8e5d30afcaf,610369d0292d5a54a075b5e9,2021-07-29_23h00.16.077,Simcolourproject_2stim_asymm_v5,2020.2.10,Win32,60,61025ae37ef11b136ea224fe,,,,,,,,,2077,84,-40,1,0,0,response3disk,,5,6,0,1,0,0,rectangle,6,0,1,0,0,6,0,1,0,0,1,112,272,47,1,,,,,,,,
,,,,,,,,,,,,,FF,,,,,,,,1.4508,,,,,,,,,,,,,,,,,,,,,,61032728290ef8e5d30afcaf,610369d0292d5a54a075b5e9,2021-07-29_23h00.16.077,Simcolourproject_2stim_asymm_v5,2020.2.10,Win32,60,61025ae37ef11b136ea224fe,,,,,,,,,2990,-32,-95,1,0,0,response5disk,,3,17,1,1,0,0,rectangle,17,1,1,0,0,17,1,1,0,0,1,113,273,136,1,,,,,,,,
,,,,,,,,,,,,,FF,,,,,,,,1.3337,,,,,,,,,,,,,,,,,,,,,,61032728290ef8e5d30afcaf,610369d0292d5a54a075b5e9,2021-07-29_23h00.16.077,Simcolourproject_2stim_asymm_v5,2020.2.10,Win32,60,61025ae37ef11b136ea224fe,,,,,,,,,3921,-25,-93,1,0,0,response5disk,,3,-10,-20,1,0,0,rectangle,-10,-20,1,0,0,-10,-20,1,0,0,1,114,274,128,1,,,,,,,,
,,,,,,,,,,,,,FF,,,,,,,,0.7001,,,,,,,,,,,,,,,,,,,,,,61032728290ef8e5d30afcaf,610369d0292d5a54a075b5e9,2021-07-29_23h00.16.077,Simcolourproject_2stim_asymm_v5,2020.2.10,Win32,60,61025ae37ef11b136ea224fe,,,,,,,,,406,50,-96,1,0,0,response3disk,,4,-18,3,1,0,0,rectangle,-18,3,1,0,0,-18,3,1,0,0,1,115,275,132,1,,,,,,,,
,,,,,,,,,,,,,FF,,,,,,,,0.8336,,,,,,,,,,,,,,,,,,,,,,61032728290ef8e5d30afcaf,610369d0292d5a54a075b5e9,2021-07-29_23h00.16.077,Simcolourproject_2stim_asymm_v5,2020.2.10,Win32,60,61025ae37ef11b136ea224fe,,,,,,,,,2124,105,36,1,0,0,response1disk,,6,-14,3,1,0,0,rectangle,-14,3,1,0,0,-14,3,1,0,0,1,116,276,147,1,,,,,,,,
,,,,,,,,,,,,,FF,,,,,,,,1.6506,,,,,,,,,,,,,,,,,,,,,,61032728290ef8e5d30afcaf,610369d0292d5a54a075b5e9,2021-07-29_23h00.16.077,Simcolourproject_2stim_asymm_v5,2020.2.10,Win32,60,61025ae37ef11b136ea224fe,,,,,,,,,583,116,28,1,0,0,response1disk,,6,-5,-16,1,0,0,rectangle,-5,-16,1,0,0,-5,-16,1,0,0,1,117,277,78,1,,,,,,,,
,,,,,,,,,,,,,FF,,,,,,,,0.8338,,,,,,,,,,,,,,,,,,,,,,61032728290ef8e5d30afcaf,610369d0292d5a54a075b5e9,2021-07-29_23h00.16.077,Simcolourproject_2stim_asymm_v5,2020.2.10,Win32,60,61025ae37ef11b136ea224fe,,,,,,,,,619,-92,54,1,0,0,response7disk,,1,-10,2,1,0,0,rectangle,-10,2,1,0,0,-10,2,1,0,0,1,118,278,64,1,,,,,,,,
,,,,,,,,,,,,,FF,,,,,,,,0.7002,,,,,,,,,,,,,,,,,,,,,,61032728290ef8e5d30afcaf,610369d0292d5a54a075b5e9,2021-07-29_23h00.16.077,Simcolourproject_2stim_asymm_v5,2020.2.10,Win32,60,61025ae37ef11b136ea224fe,,,,,,,,,2636,-74,-51,1,0,0,response5disk,,2,2,-6,1,0,0,rectangle,2,-6,1,0,0,2,-6,1,0,0,1,119,279,139,1,,,,,,,,
,,,,,,,,,,,,,FF,,,,,,,,1.884,,,,,,,,,,,,,,,,,,,,,,61032728290ef8e5d30afcaf,610369d0292d5a54a075b5e9,2021-07-29_23h00.16.077,Simcolourproject_2stim_asymm_v5,2020.2.10,Win32,60,61025ae37ef11b136ea224fe,,,,,,,,,382,53,-122,1,0,0,response3disk,,4,12,-1,1,0,0,rectangle,12,-1,1,0,0,12,-1,1,0,0,1,120,280,137,1,,,,,,,,
,,,,,,,,,,,,,FF,,,,,,,,1.9175,,,,,,,,,,,,,,,,,,,,,,61032728290ef8e5d30afcaf,610369d0292d5a54a075b5e9,2021-07-29_23h00.16.077,Simcolourproject_2stim_asymm_v5,2020.2.10,Win32,60,61025ae37ef11b136ea224fe,,,,,,,,,1342,-41,-101,1,0,0,response5disk,,3,-15,2,1,0,0,rectangle,-15,2,1,0,0,-15,2,1,0,0,1,121,281,141,1,,,,,,,,
,,,,,,,,,,,,,FF,,,,,,,,1.0338,,,,,,,,,,,,,,,,,,,,,,61032728290ef8e5d30afcaf,610369d0292d5a54a075b5e9,2021-07-29_23h00.16.077,Simcolourproject_2stim_asymm_v5,2020.2.10,Win32,60,61025ae37ef11b136ea224fe,,,,,,,,,3671,-37,89,1,0,0,response7disk,,0,-19,-2,1,0,0,rectangle,-19,-2,1,0,0,-19,-2,1,0,0,1,122,282,30,1,,,,,,,,
,,,,,,,,,,,,,FF,,,,,,,,0.8334,,,,,,,,,,,,,,,,,,,,,,61032728290ef8e5d30afcaf,610369d0292d5a54a075b5e9,2021-07-29_23h00.16.077,Simcolourproject_2stim_asymm_v5,2020.2.10,Win32,60,61025ae37ef11b136ea224fe,,,,,,,,,2691,-86,-59,1,0,0,response5disk,,2,16,-10,1,0,0,rectangle,16,-10,1,0,0,16,-10,1,0,0,1,123,283,99,1,,,,,,,,
,,,,,,,,,,,,,FF,,,,,,,,0.8003,,,,,,,,,,,,,,,,,,,,,,61032728290ef8e5d30afcaf,610369d0292d5a54a075b5e9,2021-07-29_23h00.16.077,Simcolourproject_2stim_asymm_v5,2020.2.10,Win32,60,61025ae37ef11b136ea224fe,,,,,,,,,1372,139,54,1,0,0,response1disk,,6,19,6,1,0,0,rectangle,19,6,1,0,0,19,6,1,0,0,1,124,284,75,1,,,,,,,,
,,,,,,,,,,,,,FF,,,,,,,,1.0002,,,,,,,,,,,,,,,,,,,,,,61032728290ef8e5d30afcaf,610369d0292d5a54a075b5e9,2021-07-29_23h00.16.077,Simcolourproject_2stim_asymm_v5,2020.2.10,Win32,60,61025ae37ef11b136ea224fe,,,,,,,,,4239,95,-40,1,0,0,response3disk,,5,14,-19,1,0,0,rectangle,14,-19,1,0,0,14,-19,1,0,0,1,125,285,65,1,,,,,,,,
,,,,,,,,,,,,,FF,,,,,,,,1.1171,,,,,,,,,,,,,,,,,,,,,,61032728290ef8e5d30afcaf,610369d0292d5a54a075b5e9,2021-07-29_23h00.16.077,Simcolourproject_2stim_asymm_v5,2020.2.10,Win32,60,61025ae37ef11b136ea224fe,,,,,,,,,2504,41,95,1,0,0,response1disk,,7,26,9,1,0,0,rectangle,26,9,1,0,0,26,9,1,0,0,1,126,286,50,1,,,,,,,,
,,,,,,,,,,,,,FF,,,,,,,,1.317,,,,,,,,,,,,,,,,,,,,,,61032728290ef8e5d30afcaf,610369d0292d5a54a075b5e9,2021-07-29_23h00.16.077,Simcolourproject_2stim_asymm_v5,2020.2.10,Win32,60,61025ae37ef11b136ea224fe,,,,,,,,,2997,-69,-93,1,0,0,response5disk,,3,1,-3,1,0,0,rectangle,1,-3,1,0,0,1,-3,1,0,0,1,127,287,1,1,,,,,,,,
,,,,,,,,,,,,,FF,,,,,,,,0.4501,,,,,,,,,,,,,,,,,,,,,,61032728290ef8e5d30afcaf,610369d0292d5a54a075b5e9,2021-07-29_23h00.16.077,Simcolourproject_2stim_asymm_v5,2020.2.10,Win32,60,61025ae37ef11b136ea224fe,,,,,,,,,1570,123,-32,1,0,0,response3disk,,5,17,-20,1,0,0,rectangle,17,-20,1,0,0,17,-20,1,0,0,1,128,288,157,1,,,,,,,,
,,,,,,,,,,,,,FF,,,,,,,,0.767,,,,,,,,,,,,,,,,,,,,,,61032728290ef8e5d30afcaf,610369d0292d5a54a075b5e9,2021-07-29_23h00.16.077,Simcolourproject_2stim_asymm_v5,2020.2.10,Win32,60,61025ae37ef11b136ea224fe,,,,,,,,,2808,156,50,1,0,0,response1disk,,6,8,-6,1,0,0,rectangle,8,-6,1,0,0,8,-6,1,0,0,1,129,289,159,1,,,,,,,,
,,,,,,,,,,,,,FF,,,,,,,,2.1842,,,,,,,,,,,,,,,,,,,,,,61032728290ef8e5d30afcaf,610369d0292d5a54a075b5e9,2021-07-29_23h00.16.077,Simcolourproject_2stim_asymm_v5,2020.2.10,Win32,60,61025ae37ef11b136ea224fe,,,,,,,,,157,46,-108,1,0,0,response3disk,,4,2,-10,1,0,0,rectangle,2,-10,1,0,0,2,-10,1,0,0,1,130,290,88,1,,,,,,,,
,,,,,,,,,,,,,FF,,,,,,,,1.5506,,,,,,,,,,,,,,,,,,,,,,61032728290ef8e5d30afcaf,610369d0292d5a54a075b5e9,2021-07-29_23h00.16.077,Simcolourproject_2stim_asymm_v5,2020.2.10,Win32,60,61025ae37ef11b136ea224fe,,,,,,,,,1921,-34,-98,1,0,0,response5disk,,3,9,1,1,0,0,rectangle,9,1,1,0,0,9,1,1,0,0,1,131,291,144,1,,,,,,,,
,,,,,,,,,,,,,FF,,,,,,,,0.967,,,,,,,,,,,,,,,,,,,,,,61032728290ef8e5d30afcaf,610369d0292d5a54a075b5e9,2021-07-29_23h00.16.077,Simcolourproject_2stim_asymm_v5,2020.2.10,Win32,60,61025ae37ef11b136ea224fe,,,,,,,,,3591,-90,37,1,0,0,response7disk,,1,-26,2,1,0,0,rectangle,-26,2,1,0,0,-26,2,1,0,0,1,132,292,86,1,,,,,,,,
,,,,,,,,,,,,,FF,,,,,,,,1.9675,,,,,,,,,,,,,,,,,,,,,,61032728290ef8e5d30afcaf,610369d0292d5a54a075b5e9,2021-07-29_23h00.16.077,Simcolourproject_2stim_asymm_v5,2020.2.10,Win32,60,61025ae37ef11b136ea224fe,,,,,,,,,2838,44,-109,1,0,0,response3disk,,4,-24,11,1,0,0,rectangle,-24,11,1,0,0,-24,11,1,0,0,1,133,293,101,1,,,,,,,,
,,,,,,,,,,,,,FF,,,,,,,,0.8336,,,,,,,,,,,,,,,,,,,,,,61032728290ef8e5d30afcaf,610369d0292d5a54a075b5e9,2021-07-29_23h00.16.077,Simcolourproject_2stim_asymm_v5,2020.2.10,Win32,60,61025ae37ef11b136ea224fe,,,,,,,,,1705,95,-55,1,0,0,response3disk,,5,7,-3,1,0,0,rectangle,7,-3,1,0,0,7,-3,1,0,0,1,134,294,56,1,,,,,,,,
,,,,,,,,,,,,,FF,,,,,,,,1.0337,,,,,,,,,,,,,,,,,,,,,,61032728290ef8e5d30afcaf,610369d0292d5a54a075b5e9,2021-07-29_23h00.16.077,Simcolourproject_2stim_asymm_v5,2020.2.10,Win32,60,61025ae37ef11b136ea224fe,,,,,,,,,4033,49,114,1,0,0,response1disk,,7,-7,10,1,0,0,rectangle,-7,10,1,0,0,-7,10,1,0,0,1,135,295,76,1,,,,,,,,
,,,,,,,,,,,,,FF,,,,,,,,0.6,,,,,,,,,,,,,,,,,,,,,,61032728290ef8e5d30afcaf,610369d0292d5a54a075b5e9,2021-07-29_23h00.16.077,Simcolourproject_2stim_asymm_v5,2020.2.10,Win32,60,61025ae37ef11b136ea224fe,,,,,,,,,129,38,103,1,0,0,response1disk,,7,7,-1,1,0,0,rectangle,7,-1,1,0,0,7,-1,1,0,0,1,136,296,71,1,,,,,,,,
,,,,,,,,,,,,,FF,,,,,,,,0.6669,,,,,,,,,,,,,,,,,,,,,,61032728290ef8e5d30afcaf,610369d0292d5a54a075b5e9,2021-07-29_23h00.16.077,Simcolourproject_2stim_asymm_v5,2020.2.10,Win32,60,61025ae37ef11b136ea224fe,,,,,,,,,3105,104,39,1,0,0,response1disk,,6,10,-7,1,0,0,rectangle,10,-7,1,0,0,10,-7,1,0,0,1,137,297,14,1,,,,,,,,
,,,,,,,,,,,,,FF,,,,,,,,0.6501,,,,,,,,,,,,,,,,,,,,,,61032728290ef8e5d30afcaf,610369d0292d5a54a075b5e9,2021-07-29_23h00.16.077,Simcolourproject_2stim_asymm_v5,2020.2.10,Win32,60,61025ae37ef11b136ea224fe,,,,,,,,,1241,111,-58,1,0,0,response3disk,,5,4,-20,1,0,0,rectangle,4,-20,1,0,0,4,-20,1,0,0,1,138,298,10,1,,,,,,,,
,,,,,,,,,,,,,FF,,,,,,,,1.4504,,,,,,,,,,,,,,,,,,,,,,61032728290ef8e5d30afcaf,610369d0292d5a54a075b5e9,2021-07-29_23h00.16.077,Simcolourproject_2stim_asymm_v5,2020.2.10,Win32,60,61025ae37ef11b136ea224fe,,,,,,,,,1957,70,-44,1,0,0,response3disk,,5,-19,1,1,0,0,rectangle,-19,1,1,0,0,-19,1,1,0,0,1,139,299,77,1,,,,,,,,
,,,,,,,,,,,,,FF,,,,,,,,0.867,,,,,,,,,,,,,,,,,,,,,,61032728290ef8e5d30afcaf,610369d0292d5a54a075b5e9,2021-07-29_23h00.16.077,Simcolourproject_2stim_asymm_v5,2020.2.10,Win32,60,61025ae37ef11b136ea224fe,,,,,,,,,2180,-86,-36,1,0,0,response5disk,,2,-2,2,1,0,0,rectangle,-2,2,1,0,0,-2,2,1,0,0,1,140,300,69,1,,,,,,,,
