key_resp.keys,key_resp.rt,key_resp_14.keys,key_resp_14.rt,key_resp_15.keys,key_resp_15.rt,key_resp_17.keys,key_resp_17.rt,key_resp_9.keys,key_resp_9.rt,key_resp_10.keys,key_resp_10.rt,practice_comparison,Ecc,mouse_5.x,mouse_5.y,mouse_5.leftButton,mouse_5.midButton,mouse_5.rightButton,mouse_5.clicked_name,pracsimilarity,response_time,mouse_10.x,mouse_10.y,mouse_10.leftButton,mouse_10.midButton,mouse_10.rightButton,mouse_10.clicked_name,mouse_7.x,mouse_7.y,mouse_7.leftButton,mouse_7.midButton,mouse_7.rightButton,mouse_6.x,mouse_6.y,mouse_6.leftButton,mouse_6.midButton,mouse_6.rightButton,duringprac.thisRepN,duringprac.thisTrialN,duringprac.thisN,duringprac.thisIndex,duringprac.ran,participant,session,date,expName,psychopyVersion,OS,frameRate,study_id,mouse_7.clicked_name,catchpracsimilarity,catch_response_time,catchnumberprac,catchtrialorderprac,mouse_6.clicked_name,key_resp_22.keys,key_resp_22.rt,realcomparison,mouse.x,mouse.y,mouse.leftButton,mouse.midButton,mouse.rightButton,mouse.clicked_name,Colour2,similarity,mouse_2.x,mouse_2.y,mouse_2.leftButton,mouse_2.midButton,mouse_2.rightButton,mouse_2.clicked_name,mouse_3.x,mouse_3.y,mouse_3.leftButton,mouse_3.midButton,mouse_3.rightButton,mouse_11.x,mouse_11.y,mouse_11.leftButton,mouse_11.midButton,mouse_11.rightButton,trials_2.thisRepN,trials_2.thisTrialN,trials_2.thisN,trials_2.thisIndex,trials_2.ran,Colour1,mouse_3.clicked_name,catchornah,catchsimilarity,catchnumber,catchtrialorder,catchRT,mouse_11.clicked_name
space,2.7392,space,32.8847,space,40.6314,space,2.3406,space,1.7267,space,1.7779,57,PF,-39.15667725,-67.46630859,1,0,0,response5disk_5,3,5.3873,6.680603027,8.293365479,1,0,0,rectangle_8,6.680603027,8.293365479,1,0,0,6.680603027,8.293365479,1,0,0,0,0,0,6,1,6103127d2a2fe4aee72a7cd2,61036d6f4801fb346dd0fa68,2021-07-29_20h10.14.409,Simcolourproject_2stim_asymm_v5,2020.2.10,MacIntel,60,61025ae37ef11b136ea224fe,,,,,,,,,,,,,,,,,,,,,,,,,,,,,,,,,,,,,,,,,,,,,,
,,,,,,,,,,,,97,PF,41.00115967,-57.11114502,1,0,0,response3disk_5,4,1.921,4.279174805,-0.062103271,1,0,0,rectangle_8,-83.2331543,33.3861084,1,0,0,-2.393676758,-0.268249512,1,0,0,0,1,1,2,1,6103127d2a2fe4aee72a7cd2,61036d6f4801fb346dd0fa68,2021-07-29_20h10.14.409,Simcolourproject_2stim_asymm_v5,2020.2.10,MacIntel,60,61025ae37ef11b136ea224fe,response7disk_7,1,1.7021,1,"[2,5]",rectangle_4,,,,,,,,,,,,,,,,,,,,,,,,,,,,,,,,,,,,,,,,
,,,,,,,,,,,,132,PF,45.00567627,76.93908691,1,0,0,response1disk_5,7,1.6323,-5.413452148,-0.028900146,1,0,0,rectangle_8,-5.413452148,-0.028900146,1,0,0,-5.413452148,-0.028900146,1,0,0,0,2,2,1,1,6103127d2a2fe4aee72a7cd2,61036d6f4801fb346dd0fa68,2021-07-29_20h10.14.409,Simcolourproject_2stim_asymm_v5,2020.2.10,MacIntel,60,61025ae37ef11b136ea224fe,,,,,,,,,,,,,,,,,,,,,,,,,,,,,,,,,,,,,,,,,,,,,,
,,,,,,,,,,,,92,FF,32.6050415,-71.47857666,1,0,0,response3disk_5,4,2.3177,-3.866394043,0.112335205,1,0,0,rectangle_8,-3.866394043,0.112335205,1,0,0,-3.866394043,0.112335205,1,0,0,0,3,3,3,1,6103127d2a2fe4aee72a7cd2,61036d6f4801fb346dd0fa68,2021-07-29_20h10.14.409,Simcolourproject_2stim_asymm_v5,2020.2.10,MacIntel,60,61025ae37ef11b136ea224fe,,,,,,,,,,,,,,,,,,,,,,,,,,,,,,,,,,,,,,,,,,,,,,
,,,,,,,,,,,,91,FF,29.67657471,-63.52352905,1,0,0,response3disk_5,4,3.2339,2.397460938,1.309753418,1,0,0,rectangle_8,-70.20709229,39.88500977,1,0,0,3.616821289,2.056030273,1,0,0,0,4,4,5,1,6103127d2a2fe4aee72a7cd2,61036d6f4801fb346dd0fa68,2021-07-29_20h10.14.409,Simcolourproject_2stim_asymm_v5,2020.2.10,MacIntel,60,61025ae37ef11b136ea224fe,response7disk_7,1,1.2842,1,"[2,5]",rectangle_4,,,,,,,,,,,,,,,,,,,,,,,,,,,,,,,,,,,,,,,,
,,,,,,,,,,,,129,PF,89.30718994,35.72741699,1,0,0,response1disk_5,6,3.7046,-6.193664551,-2.590759277,1,0,0,rectangle_8,-6.193664551,-2.590759277,1,0,0,-6.193664551,-2.590759277,1,0,0,0,5,5,4,1,6103127d2a2fe4aee72a7cd2,61036d6f4801fb346dd0fa68,2021-07-29_20h10.14.409,Simcolourproject_2stim_asymm_v5,2020.2.10,MacIntel,60,61025ae37ef11b136ea224fe,,,,,,,,,,,,,,,,,,,,,,,,,,,,,,,,,,,,,,,,,,,,,,
,,,,,,,,,,,,156,FF,47.64569092,74.61975098,1,0,0,response1disk_5,7,1.3663,0.435852051,-0.080444336,1,0,0,rectangle_8,0.435852051,-0.080444336,1,0,0,0.435852051,-0.080444336,1,0,0,0,6,6,0,1,6103127d2a2fe4aee72a7cd2,61036d6f4801fb346dd0fa68,2021-07-29_20h10.14.409,Simcolourproject_2stim_asymm_v5,2020.2.10,MacIntel,60,61025ae37ef11b136ea224fe,,,,,,,,,,,,,,,,,,,,,,,,,,,,,,,,,,,,,,,,,,,,,,
,,,,,,,,,,,,,FF,,,,,,,,7.8582,,,,,,,,,,,,,,,,,,,,,,6103127d2a2fe4aee72a7cd2,61036d6f4801fb346dd0fa68,2021-07-29_20h10.14.409,Simcolourproject_2stim_asymm_v5,2020.2.10,MacIntel,60,61025ae37ef11b136ea224fe,,,,,,,space,27.0711,1386,36.1619873,-88.82714844,1,0,0,response3disk,,4,-3.490356445,3.13973999,1,0,0,rectangle,-3.490356445,3.13973999,1,0,0,-3.490356445,3.13973999,1,0,0,0,0,0,19,1,,,,,,,,
,,,,,,,,,,,,,FF,,,,,,,,1.1512,,,,,,,,,,,,,,,,,,,,,,6103127d2a2fe4aee72a7cd2,61036d6f4801fb346dd0fa68,2021-07-29_20h10.14.409,Simcolourproject_2stim_asymm_v5,2020.2.10,MacIntel,60,61025ae37ef11b136ea224fe,,,,,,,,,2215,39.29071045,90.50796509,1,0,0,response1disk,,7,-4.663757324,-0.040039063,1,0,0,rectangle,-4.663757324,-0.040039063,1,0,0,-4.663757324,-0.040039063,1,0,0,0,1,1,16,1,,,,,,,,
,,,,,,,,,,,,,FF,,,,,,,,0.953,,,,,,,,,,,,,,,,,,,,,,6103127d2a2fe4aee72a7cd2,61036d6f4801fb346dd0fa68,2021-07-29_20h10.14.409,Simcolourproject_2stim_asymm_v5,2020.2.10,MacIntel,60,61025ae37ef11b136ea224fe,,,,,,,,,2581,40.80957031,75.34732056,1,0,0,response1disk,,7,3.779174805,0.300628662,1,0,0,rectangle,3.779174805,0.300628662,1,0,0,3.779174805,0.300628662,1,0,0,0,2,2,127,1,,,,,,,,
,,,,,,,,,,,,,FF,,,,,,,,1.3328,,,,,,,,,,,,,,,,,,,,,,6103127d2a2fe4aee72a7cd2,61036d6f4801fb346dd0fa68,2021-07-29_20h10.14.409,Simcolourproject_2stim_asymm_v5,2020.2.10,MacIntel,60,61025ae37ef11b136ea224fe,,,,,,,,,3101,-69.48278809,-23.66397095,1,0,0,response5disk,,2,5.646484375,0.711547852,1,0,0,rectangle,40.71069336,-72.88800049,1,0,0,2.904907227,1.486572266,1,0,0,0,3,3,32,1,,response3disk_3,TRUE,4,4,"[16,166,133,289,110,37,309,291,242,272,195,73,207,4,217,120,31,129,190,287]",1.618,rectangle
,,,,,,,,,,,,,FF,,,,,,,,2.634,,,,,,,,,,,,,,,,,,,,,,6103127d2a2fe4aee72a7cd2,61036d6f4801fb346dd0fa68,2021-07-29_20h10.14.409,Simcolourproject_2stim_asymm_v5,2020.2.10,MacIntel,60,61025ae37ef11b136ea224fe,,,,,,,,,2720,-23.15911865,-79.24093628,1,0,0,response5disk,,3,-2.599487305,-1.669250488,1,0,0,rectangle,-2.599487305,-1.669250488,1,0,0,-2.599487305,-1.669250488,1,0,0,0,4,4,101,1,,,,,,,,
,,,,,,,,,,,,,FF,,,,,,,,1.2682,,,,,,,,,,,,,,,,,,,,,,6103127d2a2fe4aee72a7cd2,61036d6f4801fb346dd0fa68,2021-07-29_20h10.14.409,Simcolourproject_2stim_asymm_v5,2020.2.10,MacIntel,60,61025ae37ef11b136ea224fe,,,,,,,,,3814,-78.36907959,-30.79013062,1,0,0,response5disk,,2,-5.629394531,-1.572967529,1,0,0,rectangle,-5.629394531,-1.572967529,1,0,0,-5.629394531,-1.572967529,1,0,0,0,5,5,114,1,,,,,,,,
,,,,,,,,,,,,,FF,,,,,,,,3.1686,,,,,,,,,,,,,,,,,,,,,,6103127d2a2fe4aee72a7cd2,61036d6f4801fb346dd0fa68,2021-07-29_20h10.14.409,Simcolourproject_2stim_asymm_v5,2020.2.10,MacIntel,60,61025ae37ef11b136ea224fe,,,,,,,,,1384,34.65704346,-88.68435669,1,0,0,response3disk,,4,5.407775879,1.587677002,1,0,0,rectangle,5.407775879,1.587677002,1,0,0,5.407775879,1.587677002,1,0,0,0,6,6,12,1,,,,,,,,
,,,,,,,,,,,,,FF,,,,,,,,2.7178,,,,,,,,,,,,,,,,,,,,,,6103127d2a2fe4aee72a7cd2,61036d6f4801fb346dd0fa68,2021-07-29_20h10.14.409,Simcolourproject_2stim_asymm_v5,2020.2.10,MacIntel,60,61025ae37ef11b136ea224fe,,,,,,,,,3819,76.67468262,-35.81704712,1,0,0,response3disk,,5,4.56060791,-2.522735596,1,0,0,rectangle,4.56060791,-2.522735596,1,0,0,4.56060791,-2.522735596,1,0,0,0,7,7,158,1,,,,,,,,
,,,,,,,,,,,,,FF,,,,,,,,1.9007,,,,,,,,,,,,,,,,,,,,,,6103127d2a2fe4aee72a7cd2,61036d6f4801fb346dd0fa68,2021-07-29_20h10.14.409,Simcolourproject_2stim_asymm_v5,2020.2.10,MacIntel,60,61025ae37ef11b136ea224fe,,,,,,,,,3418,-30.73846436,-74.08773804,1,0,0,response5disk,,3,-5.574035645,-0.828796387,1,0,0,rectangle,-5.574035645,-0.828796387,1,0,0,-5.574035645,-0.828796387,1,0,0,0,8,8,150,1,,,,,,,,
,,,,,,,,,,,,,FF,,,,,,,,1.0357,,,,,,,,,,,,,,,,,,,,,,6103127d2a2fe4aee72a7cd2,61036d6f4801fb346dd0fa68,2021-07-29_20h10.14.409,Simcolourproject_2stim_asymm_v5,2020.2.10,MacIntel,60,61025ae37ef11b136ea224fe,,,,,,,,,322,33.97698975,91.78927612,1,0,0,response1disk,,7,-1.407653809,2.290802002,1,0,0,rectangle,-1.407653809,2.290802002,1,0,0,-1.407653809,2.290802002,1,0,0,0,9,9,91,1,,,,,,,,
,,,,,,,,,,,,,FF,,,,,,,,0.9684,,,,,,,,,,,,,,,,,,,,,,6103127d2a2fe4aee72a7cd2,61036d6f4801fb346dd0fa68,2021-07-29_20h10.14.409,Simcolourproject_2stim_asymm_v5,2020.2.10,MacIntel,60,61025ae37ef11b136ea224fe,,,,,,,,,2646,36.09368896,88.98913574,1,0,0,response1disk,,7,-3.001831055,-2.288513184,1,0,0,rectangle,-3.001831055,-2.288513184,1,0,0,-3.001831055,-2.288513184,1,0,0,0,10,10,151,1,,,,,,,,
,,,,,,,,,,,,,FF,,,,,,,,1.734,,,,,,,,,,,,,,,,,,,,,,6103127d2a2fe4aee72a7cd2,61036d6f4801fb346dd0fa68,2021-07-29_20h10.14.409,Simcolourproject_2stim_asymm_v5,2020.2.10,MacIntel,60,61025ae37ef11b136ea224fe,,,,,,,,,3384,-78.1439209,-26.72479248,1,0,0,response5disk,,2,2.730163574,-0.051330566,1,0,0,rectangle,2.730163574,-0.051330566,1,0,0,2.730163574,-0.051330566,1,0,0,0,11,11,131,1,,,,,,,,
,,,,,,,,,,,,,FF,,,,,,,,1.2848,,,,,,,,,,,,,,,,,,,,,,6103127d2a2fe4aee72a7cd2,61036d6f4801fb346dd0fa68,2021-07-29_20h10.14.409,Simcolourproject_2stim_asymm_v5,2020.2.10,MacIntel,60,61025ae37ef11b136ea224fe,,,,,,,,,3163,-39.03302002,-85.69329834,1,0,0,response5disk,,3,1.184631348,3.774383545,1,0,0,rectangle,1.184631348,3.774383545,1,0,0,1.184631348,3.774383545,1,0,0,0,12,12,149,1,,,,,,,,
,,,,,,,,,,,,,FF,,,,,,,,1.8827,,,,,,,,,,,,,,,,,,,,,,6103127d2a2fe4aee72a7cd2,61036d6f4801fb346dd0fa68,2021-07-29_20h10.14.409,Simcolourproject_2stim_asymm_v5,2020.2.10,MacIntel,60,61025ae37ef11b136ea224fe,,,,,,,,,1828,40.70782471,-88.88659668,1,0,0,response3disk,,4,-2.493164063,5.019042969,1,0,0,rectangle,-2.493164063,5.019042969,1,0,0,-2.493164063,5.019042969,1,0,0,0,13,13,122,1,,,,,,,,
,,,,,,,,,,,,,FF,,,,,,,,0.8664,,,,,,,,,,,,,,,,,,,,,,6103127d2a2fe4aee72a7cd2,61036d6f4801fb346dd0fa68,2021-07-29_20h10.14.409,Simcolourproject_2stim_asymm_v5,2020.2.10,MacIntel,60,61025ae37ef11b136ea224fe,,,,,,,,,469,34.72875977,91.70193481,1,0,0,response1disk,,7,3.534545898,2.534667969,1,0,0,rectangle,3.534545898,2.534667969,1,0,0,3.534545898,2.534667969,1,0,0,0,14,14,98,1,,,,,,,,
,,,,,,,,,,,,,FF,,,,,,,,0.7812,,,,,,,,,,,,,,,,,,,,,,6103127d2a2fe4aee72a7cd2,61036d6f4801fb346dd0fa68,2021-07-29_20h10.14.409,Simcolourproject_2stim_asymm_v5,2020.2.10,MacIntel,60,61025ae37ef11b136ea224fe,,,,,,,,,3454,30.28735352,84.76730347,1,0,0,response1disk,,7,0.905090332,1.296325684,1,0,0,rectangle,29.90386963,77.83624268,1,0,0,-4.345581055,-4.374450684,1,0,0,0,15,15,134,1,,response1disk_3,TRUE,7,7,"[16,166,133,289,110,37,309,291,242,272,195,73,207,4,217,120,31,129,190,287]",1.6337,rectangle
,,,,,,,,,,,,,FF,,,,,,,,1.6178,,,,,,,,,,,,,,,,,,,,,,6103127d2a2fe4aee72a7cd2,61036d6f4801fb346dd0fa68,2021-07-29_20h10.14.409,Simcolourproject_2stim_asymm_v5,2020.2.10,MacIntel,60,61025ae37ef11b136ea224fe,,,,,,,,,3038,77.22766113,-32.21203613,1,0,0,response3disk,,5,7.793334961,-4.830780029,1,0,0,rectangle,7.793334961,-4.830780029,1,0,0,7.793334961,-4.830780029,1,0,0,0,16,16,119,1,,,,,,,,
,,,,,,,,,,,,,FF,,,,,,,,1.4682,,,,,,,,,,,,,,,,,,,,,,6103127d2a2fe4aee72a7cd2,61036d6f4801fb346dd0fa68,2021-07-29_20h10.14.409,Simcolourproject_2stim_asymm_v5,2020.2.10,MacIntel,60,61025ae37ef11b136ea224fe,,,,,,,,,3377,77.96887207,39.5357666,1,0,0,response1disk,,6,1.151977539,-7.980377197,1,0,0,rectangle,1.151977539,-7.980377197,1,0,0,1.151977539,-7.980377197,1,0,0,0,17,17,41,1,,,,,,,,
,,,,,,,,,,,,,FF,,,,,,,,0.9501,,,,,,,,,,,,,,,,,,,,,,6103127d2a2fe4aee72a7cd2,61036d6f4801fb346dd0fa68,2021-07-29_20h10.14.409,Simcolourproject_2stim_asymm_v5,2020.2.10,MacIntel,60,61025ae37ef11b136ea224fe,,,,,,,,,1942,33.88110352,92.3145752,1,0,0,response1disk,,7,-0.978637695,2.487518311,1,0,0,rectangle,-0.978637695,2.487518311,1,0,0,-0.978637695,2.487518311,1,0,0,0,18,18,65,1,,,,,,,,
,,,,,,,,,,,,,FF,,,,,,,,1.1833,,,,,,,,,,,,,,,,,,,,,,6103127d2a2fe4aee72a7cd2,61036d6f4801fb346dd0fa68,2021-07-29_20h10.14.409,Simcolourproject_2stim_asymm_v5,2020.2.10,MacIntel,60,61025ae37ef11b136ea224fe,,,,,,,,,1772,27.51763916,80.56085205,1,0,0,response1disk,,7,-0.435791016,0.851226807,1,0,0,rectangle,-0.435791016,0.851226807,1,0,0,-0.435791016,0.851226807,1,0,0,0,19,19,143,1,,,,,,,,
,,,,,,,,,,,,,FF,,,,,,,,0.704,,,,,,,,,,,,,,,,,,,,,,6103127d2a2fe4aee72a7cd2,61036d6f4801fb346dd0fa68,2021-07-29_20h10.14.409,Simcolourproject_2stim_asymm_v5,2020.2.10,MacIntel,60,61025ae37ef11b136ea224fe,,,,,,,,,3262,30.56640625,83.35968018,1,0,0,response1disk,,7,2.513427734,5.56036377,1,0,0,rectangle,2.513427734,5.56036377,1,0,0,2.513427734,5.56036377,1,0,0,0,20,20,44,1,,,,,,,,
,,,,,,,,,,,,,FF,,,,,,,,0.7836,,,,,,,,,,,,,,,,,,,,,,6103127d2a2fe4aee72a7cd2,61036d6f4801fb346dd0fa68,2021-07-29_20h10.14.409,Simcolourproject_2stim_asymm_v5,2020.2.10,MacIntel,60,61025ae37ef11b136ea224fe,,,,,,,,,3705,-75.62554932,53.03179932,1,0,0,response7disk,,1,2.563720703,2.356140137,1,0,0,rectangle,2.563720703,2.356140137,1,0,0,2.563720703,2.356140137,1,0,0,0,21,21,43,1,,,,,,,,
,,,,,,,,,,,,,FF,,,,,,,,1.0218,,,,,,,,,,,,,,,,,,,,,,6103127d2a2fe4aee72a7cd2,61036d6f4801fb346dd0fa68,2021-07-29_20h10.14.409,Simcolourproject_2stim_asymm_v5,2020.2.10,MacIntel,60,61025ae37ef11b136ea224fe,,,,,,,,,2279,36.93597412,101.2157593,1,0,0,response1disk,,7,-3.317138672,-0.194702148,1,0,0,rectangle,-3.317138672,-0.194702148,1,0,0,-3.317138672,-0.194702148,1,0,0,0,22,22,46,1,,,,,,,,
,,,,,,,,,,,,,FF,,,,,,,,2.1875,,,,,,,,,,,,,,,,,,,,,,6103127d2a2fe4aee72a7cd2,61036d6f4801fb346dd0fa68,2021-07-29_20h10.14.409,Simcolourproject_2stim_asymm_v5,2020.2.10,MacIntel,60,61025ae37ef11b136ea224fe,,,,,,,,,2933,-54.04742432,-79.11703491,1,0,0,response5disk,,3,-11.54724121,0.045806885,1,0,0,rectangle,-11.54724121,0.045806885,1,0,0,-11.54724121,0.045806885,1,0,0,0,23,23,112,1,,,,,,,,
,,,,,,,,,,,,,FF,,,,,,,,1.7698,,,,,,,,,,,,,,,,,,,,,,6103127d2a2fe4aee72a7cd2,61036d6f4801fb346dd0fa68,2021-07-29_20h10.14.409,Simcolourproject_2stim_asymm_v5,2020.2.10,MacIntel,60,61025ae37ef11b136ea224fe,,,,,,,,,1056,-32.74938965,-93.07330322,1,0,0,response5disk,,3,-7.433959961,10.22357178,1,0,0,rectangle,-7.433959961,10.22357178,1,0,0,-7.433959961,10.22357178,1,0,0,0,24,24,159,1,,,,,,,,
,,,,,,,,,,,,,FF,,,,,,,,0.6845,,,,,,,,,,,,,,,,,,,,,,6103127d2a2fe4aee72a7cd2,61036d6f4801fb346dd0fa68,2021-07-29_20h10.14.409,Simcolourproject_2stim_asymm_v5,2020.2.10,MacIntel,60,61025ae37ef11b136ea224fe,,,,,,,,,1500,39.6463623,87.74130249,1,0,0,response1disk,,7,4.445373535,2.141052246,1,0,0,rectangle,4.445373535,2.141052246,1,0,0,4.445373535,2.141052246,1,0,0,0,25,25,24,1,,,,,,,,
,,,,,,,,,,,,,FF,,,,,,,,0.583,,,,,,,,,,,,,,,,,,,,,,6103127d2a2fe4aee72a7cd2,61036d6f4801fb346dd0fa68,2021-07-29_20h10.14.409,Simcolourproject_2stim_asymm_v5,2020.2.10,MacIntel,60,61025ae37ef11b136ea224fe,,,,,,,,,4160,43.39428711,98.47601318,1,0,0,response1disk,,7,4.777648926,-0.458007813,1,0,0,rectangle,4.777648926,-0.458007813,1,0,0,4.777648926,-0.458007813,1,0,0,0,26,26,118,1,,,,,,,,
,,,,,,,,,,,,,FF,,,,,,,,2.0516,,,,,,,,,,,,,,,,,,,,,,6103127d2a2fe4aee72a7cd2,61036d6f4801fb346dd0fa68,2021-07-29_20h10.14.409,Simcolourproject_2stim_asymm_v5,2020.2.10,MacIntel,60,61025ae37ef11b136ea224fe,,,,,,,,,3745,-74.75799561,-40.07461548,1,0,0,response5disk,,2,0.961608887,6.079467773,1,0,0,rectangle,0.961608887,6.079467773,1,0,0,0.961608887,6.079467773,1,0,0,0,27,27,8,1,,,,,,,,
,,,,,,,,,,,,,FF,,,,,,,,0.8669,,,,,,,,,,,,,,,,,,,,,,6103127d2a2fe4aee72a7cd2,61036d6f4801fb346dd0fa68,2021-07-29_20h10.14.409,Simcolourproject_2stim_asymm_v5,2020.2.10,MacIntel,60,61025ae37ef11b136ea224fe,,,,,,,,,2471,44.03942871,85.12078857,1,0,0,response1disk,,7,9.007385254,4.098724365,1,0,0,rectangle,9.007385254,4.098724365,1,0,0,9.007385254,4.098724365,1,0,0,0,28,28,53,1,,,,,,,,
,,,,,,,,,,,,,FF,,,,,,,,0.6506,,,,,,,,,,,,,,,,,,,,,,6103127d2a2fe4aee72a7cd2,61036d6f4801fb346dd0fa68,2021-07-29_20h10.14.409,Simcolourproject_2stim_asymm_v5,2020.2.10,MacIntel,60,61025ae37ef11b136ea224fe,,,,,,,,,3276,33.73199463,86.59692383,1,0,0,response1disk,,7,13.11297607,5.622528076,1,0,0,rectangle,13.11297607,5.622528076,1,0,0,13.11297607,5.622528076,1,0,0,0,29,29,52,1,,,,,,,,
,,,,,,,,,,,,,FF,,,,,,,,2.6174,,,,,,,,,,,,,,,,,,,,,,6103127d2a2fe4aee72a7cd2,61036d6f4801fb346dd0fa68,2021-07-29_20h10.14.409,Simcolourproject_2stim_asymm_v5,2020.2.10,MacIntel,60,61025ae37ef11b136ea224fe,,,,,,,,,3240,103.2658691,41.85671997,1,0,0,response1disk,,6,-0.393188477,-0.515930176,1,0,0,rectangle,-81.10668945,30.39324951,1,0,0,-7.892089844,-0.013244629,1,0,0,0,30,30,129,1,,response7disk_3,TRUE,1,1,"[16,166,133,289,110,37,309,291,242,272,195,73,207,4,217,120,31,129,190,287]",2.2198,rectangle
,,,,,,,,,,,,,FF,,,,,,,,0.9664,,,,,,,,,,,,,,,,,,,,,,6103127d2a2fe4aee72a7cd2,61036d6f4801fb346dd0fa68,2021-07-29_20h10.14.409,Simcolourproject_2stim_asymm_v5,2020.2.10,MacIntel,60,61025ae37ef11b136ea224fe,,,,,,,,,1646,31.11120605,91.52288818,1,0,0,response1disk,,7,10.39624023,5.128509521,1,0,0,rectangle,10.39624023,5.128509521,1,0,0,10.39624023,5.128509521,1,0,0,0,31,31,139,1,,,,,,,,
,,,,,,,,,,,,,FF,,,,,,,,1.7008,,,,,,,,,,,,,,,,,,,,,,6103127d2a2fe4aee72a7cd2,61036d6f4801fb346dd0fa68,2021-07-29_20h10.14.409,Simcolourproject_2stim_asymm_v5,2020.2.10,MacIntel,60,61025ae37ef11b136ea224fe,,,,,,,,,3940,-74.15991211,-30.80374146,1,0,0,response5disk,,2,-0.842712402,1.85824585,1,0,0,rectangle,-0.842712402,1.85824585,1,0,0,-0.842712402,1.85824585,1,0,0,0,32,32,60,1,,,,,,,,
,,,,,,,,,,,,,FF,,,,,,,,4.0516,,,,,,,,,,,,,,,,,,,,,,6103127d2a2fe4aee72a7cd2,61036d6f4801fb346dd0fa68,2021-07-29_20h10.14.409,Simcolourproject_2stim_asymm_v5,2020.2.10,MacIntel,60,61025ae37ef11b136ea224fe,,,,,,,,,1809,94.89404297,35.16049194,1,0,0,response1disk,,6,4.166992188,3.615570068,1,0,0,rectangle,4.166992188,3.615570068,1,0,0,4.166992188,3.615570068,1,0,0,0,33,33,138,1,,,,,,,,
,,,,,,,,,,,,,FF,,,,,,,,0.7828,,,,,,,,,,,,,,,,,,,,,,6103127d2a2fe4aee72a7cd2,61036d6f4801fb346dd0fa68,2021-07-29_20h10.14.409,Simcolourproject_2stim_asymm_v5,2020.2.10,MacIntel,60,61025ae37ef11b136ea224fe,,,,,,,,,202,29.60760498,93.24362183,1,0,0,response1disk,,7,-7.926086426,1.4246521,1,0,0,rectangle,-7.926086426,1.4246521,1,0,0,-7.926086426,1.4246521,1,0,0,0,34,34,58,1,,,,,,,,
,,,,,,,,,,,,,FF,,,,,,,,2.6853,,,,,,,,,,,,,,,,,,,,,,6103127d2a2fe4aee72a7cd2,61036d6f4801fb346dd0fa68,2021-07-29_20h10.14.409,Simcolourproject_2stim_asymm_v5,2020.2.10,MacIntel,60,61025ae37ef11b136ea224fe,,,,,,,,,1297,-79.59069824,-30.62573242,1,0,0,response5disk,,2,-2.866943359,0.428619385,1,0,0,rectangle,-2.866943359,0.428619385,1,0,0,-2.866943359,0.428619385,1,0,0,0,35,35,82,1,,,,,,,,
,,,,,,,,,,,,,FF,,,,,,,,0.9835,,,,,,,,,,,,,,,,,,,,,,6103127d2a2fe4aee72a7cd2,61036d6f4801fb346dd0fa68,2021-07-29_20h10.14.409,Simcolourproject_2stim_asymm_v5,2020.2.10,MacIntel,60,61025ae37ef11b136ea224fe,,,,,,,,,2057,36.64727783,90.46832275,1,0,0,response1disk,,7,5.427429199,7.60333252,1,0,0,rectangle,-36.11865234,-87.20050049,1,0,0,0.434448242,6.136016846,1,0,0,0,36,36,14,1,,response5disk_3,TRUE,3,3,"[16,166,133,289,110,37,309,291,242,272,195,73,207,4,217,120,31,129,190,287]",1.7018,rectangle
,,,,,,,,,,,,,FF,,,,,,,,10.7218,,,,,,,,,,,,,,,,,,,,,,6103127d2a2fe4aee72a7cd2,61036d6f4801fb346dd0fa68,2021-07-29_20h10.14.409,Simcolourproject_2stim_asymm_v5,2020.2.10,MacIntel,60,61025ae37ef11b136ea224fe,,,,,,,,,2048,-37.08587646,-84.48950195,1,0,0,response5disk,,3,2.30480957,-4.144836426,1,0,0,rectangle,2.30480957,-4.144836426,1,0,0,2.30480957,-4.144836426,1,0,0,0,37,37,31,1,,,,,,,,
,,,,,,,,,,,,,FF,,,,,,,,1.6017,,,,,,,,,,,,,,,,,,,,,,6103127d2a2fe4aee72a7cd2,61036d6f4801fb346dd0fa68,2021-07-29_20h10.14.409,Simcolourproject_2stim_asymm_v5,2020.2.10,MacIntel,60,61025ae37ef11b136ea224fe,,,,,,,,,526,-78.18182373,-28.99435425,1,0,0,response5disk,,2,-12.39904785,-4.705047607,1,0,0,rectangle,-12.39904785,-4.705047607,1,0,0,-12.39904785,-4.705047607,1,0,0,0,38,38,34,1,,,,,,,,
,,,,,,,,,,,,,FF,,,,,,,,1.4012,,,,,,,,,,,,,,,,,,,,,,6103127d2a2fe4aee72a7cd2,61036d6f4801fb346dd0fa68,2021-07-29_20h10.14.409,Simcolourproject_2stim_asymm_v5,2020.2.10,MacIntel,60,61025ae37ef11b136ea224fe,,,,,,,,,2098,-80.87841797,-31.55230713,1,0,0,response5disk,,2,-11.0604248,-7.734313965,1,0,0,rectangle,-11.0604248,-7.734313965,1,0,0,-11.0604248,-7.734313965,1,0,0,0,39,39,113,1,,,,,,,,
,,,,,,,,,,,,,FF,,,,,,,,0.9842,,,,,,,,,,,,,,,,,,,,,,6103127d2a2fe4aee72a7cd2,61036d6f4801fb346dd0fa68,2021-07-29_20h10.14.409,Simcolourproject_2stim_asymm_v5,2020.2.10,MacIntel,60,61025ae37ef11b136ea224fe,,,,,,,,,635,-69.10974121,-29.85772705,1,0,0,response5disk,,2,3.095153809,5.189300537,1,0,0,rectangle,3.095153809,5.189300537,1,0,0,3.095153809,5.189300537,1,0,0,0,40,40,95,1,,,,,,,,
,,,,,,,,,,,,,FF,,,,,,,,1.9505,,,,,,,,,,,,,,,,,,,,,,6103127d2a2fe4aee72a7cd2,61036d6f4801fb346dd0fa68,2021-07-29_20h10.14.409,Simcolourproject_2stim_asymm_v5,2020.2.10,MacIntel,60,61025ae37ef11b136ea224fe,,,,,,,,,3191,-32.01190186,-89.98416138,1,0,0,response5disk,,3,-3.746643066,-4.979553223,1,0,0,rectangle,-3.746643066,-4.979553223,1,0,0,-3.746643066,-4.979553223,1,0,0,0,41,41,136,1,,,,,,,,
,,,,,,,,,,,,,FF,,,,,,,,1.543,,,,,,,,,,,,,,,,,,,,,,6103127d2a2fe4aee72a7cd2,61036d6f4801fb346dd0fa68,2021-07-29_20h10.14.409,Simcolourproject_2stim_asymm_v5,2020.2.10,MacIntel,60,61025ae37ef11b136ea224fe,,,,,,,,,173,40.28729248,-75.78900146,1,0,0,response3disk,,4,-1.501525879,2.682128906,1,0,0,rectangle,-1.501525879,2.682128906,1,0,0,-1.501525879,2.682128906,1,0,0,0,42,42,69,1,,,,,,,,
,,,,,,,,,,,,,FF,,,,,,,,0.9491,,,,,,,,,,,,,,,,,,,,,,6103127d2a2fe4aee72a7cd2,61036d6f4801fb346dd0fa68,2021-07-29_20h10.14.409,Simcolourproject_2stim_asymm_v5,2020.2.10,MacIntel,60,61025ae37ef11b136ea224fe,,,,,,,,,1387,100.4725952,36.60458374,1,0,0,response1disk,,6,5.854125977,4.234588623,1,0,0,rectangle,5.854125977,4.234588623,1,0,0,5.854125977,4.234588623,1,0,0,0,43,43,87,1,,,,,,,,
,,,,,,,,,,,,,FF,,,,,,,,1.3663,,,,,,,,,,,,,,,,,,,,,,6103127d2a2fe4aee72a7cd2,61036d6f4801fb346dd0fa68,2021-07-29_20h10.14.409,Simcolourproject_2stim_asymm_v5,2020.2.10,MacIntel,60,61025ae37ef11b136ea224fe,,,,,,,,,2942,-41.36071777,-79.86737061,1,0,0,response5disk,,3,1.024047852,2.873840332,1,0,0,rectangle,1.024047852,2.873840332,1,0,0,1.024047852,2.873840332,1,0,0,0,44,44,83,1,,,,,,,,
,,,,,,,,,,,,,FF,,,,,,,,0.8833,,,,,,,,,,,,,,,,,,,,,,6103127d2a2fe4aee72a7cd2,61036d6f4801fb346dd0fa68,2021-07-29_20h10.14.409,Simcolourproject_2stim_asymm_v5,2020.2.10,MacIntel,60,61025ae37ef11b136ea224fe,,,,,,,,,944,45.5567627,84.65319824,1,0,0,response1disk,,7,3.106628418,9.340179443,1,0,0,rectangle,3.106628418,9.340179443,1,0,0,3.106628418,9.340179443,1,0,0,0,45,45,102,1,,,,,,,,
,,,,,,,,,,,,,FF,,,,,,,,2.4342,,,,,,,,,,,,,,,,,,,,,,6103127d2a2fe4aee72a7cd2,61036d6f4801fb346dd0fa68,2021-07-29_20h10.14.409,Simcolourproject_2stim_asymm_v5,2020.2.10,MacIntel,60,61025ae37ef11b136ea224fe,,,,,,,,,3752,88.0614624,-31.34414673,1,0,0,response3disk,,5,2.499023438,2.381439209,1,0,0,rectangle,2.499023438,2.381439209,1,0,0,2.499023438,2.381439209,1,0,0,0,46,46,15,1,,,,,,,,
,,,,,,,,,,,,,FF,,,,,,,,2.4523,,,,,,,,,,,,,,,,,,,,,,6103127d2a2fe4aee72a7cd2,61036d6f4801fb346dd0fa68,2021-07-29_20h10.14.409,Simcolourproject_2stim_asymm_v5,2020.2.10,MacIntel,60,61025ae37ef11b136ea224fe,,,,,,,,,1453,-88.07354736,-35.55194092,1,0,0,response5disk,,2,1.578063965,-3.597808838,1,0,0,rectangle,1.578063965,-3.597808838,1,0,0,1.578063965,-3.597808838,1,0,0,0,47,47,111,1,,,,,,,,
,,,,,,,,,,,,,FF,,,,,,,,1.1342,,,,,,,,,,,,,,,,,,,,,,6103127d2a2fe4aee72a7cd2,61036d6f4801fb346dd0fa68,2021-07-29_20h10.14.409,Simcolourproject_2stim_asymm_v5,2020.2.10,MacIntel,60,61025ae37ef11b136ea224fe,,,,,,,,,1256,34.37145996,88.15838623,1,0,0,response1disk,,7,-1.850769043,-3.186004639,1,0,0,rectangle,-1.850769043,-3.186004639,1,0,0,-1.850769043,-3.186004639,1,0,0,0,48,48,25,1,,,,,,,,
,,,,,,,,,,,,,FF,,,,,,,,1.7007,,,,,,,,,,,,,,,,,,,,,,6103127d2a2fe4aee72a7cd2,61036d6f4801fb346dd0fa68,2021-07-29_20h10.14.409,Simcolourproject_2stim_asymm_v5,2020.2.10,MacIntel,60,61025ae37ef11b136ea224fe,,,,,,,,,1517,85.12359619,48.71380615,1,0,0,response1disk,,6,3.433776855,2.764862061,1,0,0,rectangle,3.433776855,2.764862061,1,0,0,3.433776855,2.764862061,1,0,0,0,49,49,154,1,,,,,,,,
,,,,,,,,,,,,,FF,,,,,,,,1.5177,,,,,,,,,,,,,,,,,,,,,,6103127d2a2fe4aee72a7cd2,61036d6f4801fb346dd0fa68,2021-07-29_20h10.14.409,Simcolourproject_2stim_asymm_v5,2020.2.10,MacIntel,60,61025ae37ef11b136ea224fe,,,,,,,,,873,41.87451172,-87.45178223,1,0,0,response3disk,,4,6.614746094,4.066223145,1,0,0,rectangle,6.614746094,4.066223145,1,0,0,6.614746094,4.066223145,1,0,0,0,50,50,47,1,,,,,,,,
,,,,,,,,,,,,,FF,,,,,,,,1.1911,,,,,,,,,,,,,,,,,,,,,,6103127d2a2fe4aee72a7cd2,61036d6f4801fb346dd0fa68,2021-07-29_20h10.14.409,Simcolourproject_2stim_asymm_v5,2020.2.10,MacIntel,60,61025ae37ef11b136ea224fe,,,,,,,,,4166,-35.46331787,-91.89935303,1,0,0,response5disk,,3,7.845397949,4.646514893,1,0,0,rectangle,7.845397949,4.646514893,1,0,0,7.845397949,4.646514893,1,0,0,0,51,51,96,1,,,,,,,,
,,,,,,,,,,,,,FF,,,,,,,,1.8671,,,,,,,,,,,,,,,,,,,,,,6103127d2a2fe4aee72a7cd2,61036d6f4801fb346dd0fa68,2021-07-29_20h10.14.409,Simcolourproject_2stim_asymm_v5,2020.2.10,MacIntel,60,61025ae37ef11b136ea224fe,,,,,,,,,3848,81.49157715,-38.93838501,1,0,0,response3disk,,5,7.362854004,-0.045471191,1,0,0,rectangle,7.362854004,-0.045471191,1,0,0,7.362854004,-0.045471191,1,0,0,0,52,52,68,1,,,,,,,,
,,,,,,,,,,,,,FF,,,,,,,,1.2867,,,,,,,,,,,,,,,,,,,,,,6103127d2a2fe4aee72a7cd2,61036d6f4801fb346dd0fa68,2021-07-29_20h10.14.409,Simcolourproject_2stim_asymm_v5,2020.2.10,MacIntel,60,61025ae37ef11b136ea224fe,,,,,,,,,282,45.86865234,-83.48443604,1,0,0,response3disk,,4,-3.722290039,4.250183105,1,0,0,rectangle,-3.722290039,4.250183105,1,0,0,-3.722290039,4.250183105,1,0,0,0,53,53,35,1,,,,,,,,
,,,,,,,,,,,,,FF,,,,,,,,0.8324,,,,,,,,,,,,,,,,,,,,,,6103127d2a2fe4aee72a7cd2,61036d6f4801fb346dd0fa68,2021-07-29_20h10.14.409,Simcolourproject_2stim_asymm_v5,2020.2.10,MacIntel,60,61025ae37ef11b136ea224fe,,,,,,,,,3087,40.06915283,86.16757202,1,0,0,response1disk,,7,-7.041748047,-5.295074463,1,0,0,rectangle,-7.041748047,-5.295074463,1,0,0,-7.041748047,-5.295074463,1,0,0,0,54,54,146,1,,,,,,,,
,,,,,,,,,,,,,FF,,,,,,,,1.7357,,,,,,,,,,,,,,,,,,,,,,6103127d2a2fe4aee72a7cd2,61036d6f4801fb346dd0fa68,2021-07-29_20h10.14.409,Simcolourproject_2stim_asymm_v5,2020.2.10,MacIntel,60,61025ae37ef11b136ea224fe,,,,,,,,,3857,40.90478516,93.26495361,1,0,0,response1disk,,7,9.510375977,2.225463867,1,0,0,rectangle,9.510375977,2.225463867,1,0,0,9.510375977,2.225463867,1,0,0,0,55,55,33,1,,,,,,,,
,,,,,,,,,,,,,FF,,,,,,,,2.7705,,,,,,,,,,,,,,,,,,,,,,6103127d2a2fe4aee72a7cd2,61036d6f4801fb346dd0fa68,2021-07-29_20h10.14.409,Simcolourproject_2stim_asymm_v5,2020.2.10,MacIntel,60,61025ae37ef11b136ea224fe,,,,,,,,,827,20.83123779,84.92056274,1,0,0,response1disk,,7,6.07598877,5.978515625,1,0,0,rectangle,6.07598877,5.978515625,1,0,0,6.07598877,5.978515625,1,0,0,0,56,56,51,1,,,,,,,,
,,,,,,,,,,,,,FF,,,,,,,,1.1836,,,,,,,,,,,,,,,,,,,,,,6103127d2a2fe4aee72a7cd2,61036d6f4801fb346dd0fa68,2021-07-29_20h10.14.409,Simcolourproject_2stim_asymm_v5,2020.2.10,MacIntel,60,61025ae37ef11b136ea224fe,,,,,,,,,1455,-79.3114624,-30.65496826,1,0,0,response5disk,,2,-7.514343262,-4.831848145,1,0,0,rectangle,-7.514343262,-4.831848145,1,0,0,-7.514343262,-4.831848145,1,0,0,0,57,57,97,1,,,,,,,,
,,,,,,,,,,,,,FF,,,,,,,,0.9341,,,,,,,,,,,,,,,,,,,,,,6103127d2a2fe4aee72a7cd2,61036d6f4801fb346dd0fa68,2021-07-29_20h10.14.409,Simcolourproject_2stim_asymm_v5,2020.2.10,MacIntel,60,61025ae37ef11b136ea224fe,,,,,,,,,3477,-80.42376709,37.8989563,1,0,0,response7disk,,1,-5.395263672,1.556518555,1,0,0,rectangle,-5.395263672,1.556518555,1,0,0,-5.395263672,1.556518555,1,0,0,0,58,58,49,1,,,,,,,,
,,,,,,,,,,,,,FF,,,,,,,,1.868,,,,,,,,,,,,,,,,,,,,,,6103127d2a2fe4aee72a7cd2,61036d6f4801fb346dd0fa68,2021-07-29_20h10.14.409,Simcolourproject_2stim_asymm_v5,2020.2.10,MacIntel,60,61025ae37ef11b136ea224fe,,,,,,,,,572,36.41778564,88.48486328,1,0,0,response1disk,,7,6.322021484,5.096038818,1,0,0,rectangle,6.322021484,5.096038818,1,0,0,6.322021484,5.096038818,1,0,0,0,59,59,144,1,,,,,,,,
,,,,,,,,,,,,,FF,,,,,,,,0.9844,,,,,,,,,,,,,,,,,,,,,,6103127d2a2fe4aee72a7cd2,61036d6f4801fb346dd0fa68,2021-07-29_20h10.14.409,Simcolourproject_2stim_asymm_v5,2020.2.10,MacIntel,60,61025ae37ef11b136ea224fe,,,,,,,,,636,-81.26306152,-36.09585571,1,0,0,response5disk,,2,-9.624938965,-11.33831787,1,0,0,rectangle,-9.624938965,-11.33831787,1,0,0,-9.624938965,-11.33831787,1,0,0,0,60,60,54,1,,,,,,,,
,,,,,,,,,,,,,FF,,,,,,,,1.0675,,,,,,,,,,,,,,,,,,,,,,6103127d2a2fe4aee72a7cd2,61036d6f4801fb346dd0fa68,2021-07-29_20h10.14.409,Simcolourproject_2stim_asymm_v5,2020.2.10,MacIntel,60,61025ae37ef11b136ea224fe,,,,,,,,,1790,43.21295166,110.6114197,1,0,0,response1disk,,7,1.337036133,1.723358154,1,0,0,rectangle,1.337036133,1.723358154,1,0,0,1.337036133,1.723358154,1,0,0,0,61,61,75,1,,,,,,,,
,,,,,,,,,,,,,FF,,,,,,,,1.8048,,,,,,,,,,,,,,,,,,,,,,6103127d2a2fe4aee72a7cd2,61036d6f4801fb346dd0fa68,2021-07-29_20h10.14.409,Simcolourproject_2stim_asymm_v5,2020.2.10,MacIntel,60,61025ae37ef11b136ea224fe,,,,,,,,,2608,-86.1227417,-32.61077881,1,0,0,response5disk,,2,-5.949035645,0.411773682,1,0,0,rectangle,-5.949035645,0.411773682,1,0,0,-5.949035645,0.411773682,1,0,0,0,62,62,64,1,,,,,,,,
,,,,,,,,,,,,,FF,,,,,,,,2.0022,,,,,,,,,,,,,,,,,,,,,,6103127d2a2fe4aee72a7cd2,61036d6f4801fb346dd0fa68,2021-07-29_20h10.14.409,Simcolourproject_2stim_asymm_v5,2020.2.10,MacIntel,60,61025ae37ef11b136ea224fe,,,,,,,,,2739,31.66607666,99.64730835,1,0,0,response1disk,,7,8.467285156,-6.800323486,1,0,0,rectangle,8.467285156,-6.800323486,1,0,0,8.467285156,-6.800323486,1,0,0,0,63,63,42,1,,,,,,,,
,,,,,,,,,,,,,FF,,,,,,,,2.3142,,,,,,,,,,,,,,,,,,,,,,6103127d2a2fe4aee72a7cd2,61036d6f4801fb346dd0fa68,2021-07-29_20h10.14.409,Simcolourproject_2stim_asymm_v5,2020.2.10,MacIntel,60,61025ae37ef11b136ea224fe,,,,,,,,,506,31.77404785,83.22924805,1,0,0,response1disk,,7,-11.05511475,-4.150482178,1,0,0,rectangle,-11.05511475,-4.150482178,1,0,0,-11.05511475,-4.150482178,1,0,0,0,64,64,153,1,,,,,,,,
,,,,,,,,,,,,,FF,,,,,,,,1.6345,,,,,,,,,,,,,,,,,,,,,,6103127d2a2fe4aee72a7cd2,61036d6f4801fb346dd0fa68,2021-07-29_20h10.14.409,Simcolourproject_2stim_asymm_v5,2020.2.10,MacIntel,60,61025ae37ef11b136ea224fe,,,,,,,,,3909,-79.35076904,-32.26779175,1,0,0,response5disk,,2,2.267944336,1.595672607,1,0,0,rectangle,2.267944336,1.595672607,1,0,0,2.267944336,1.595672607,1,0,0,0,65,65,103,1,,,,,,,,
,,,,,,,,,,,,,FF,,,,,,,,1.5665,,,,,,,,,,,,,,,,,,,,,,6103127d2a2fe4aee72a7cd2,61036d6f4801fb346dd0fa68,2021-07-29_20h10.14.409,Simcolourproject_2stim_asymm_v5,2020.2.10,MacIntel,60,61025ae37ef11b136ea224fe,,,,,,,,,1279,35.40539551,-74.50372314,1,0,0,response3disk,,4,-0.782287598,-6.502716064,1,0,0,rectangle,-0.782287598,-6.502716064,1,0,0,-0.782287598,-6.502716064,1,0,0,0,66,66,30,1,,,,,,,,
,,,,,,,,,,,,,FF,,,,,,,,1.6682,,,,,,,,,,,,,,,,,,,,,,6103127d2a2fe4aee72a7cd2,61036d6f4801fb346dd0fa68,2021-07-29_20h10.14.409,Simcolourproject_2stim_asymm_v5,2020.2.10,MacIntel,60,61025ae37ef11b136ea224fe,,,,,,,,,4157,66.75744629,-33.88113403,1,0,0,response3disk,,5,9.83404541,-8.730621338,1,0,0,rectangle,9.83404541,-8.730621338,1,0,0,9.83404541,-8.730621338,1,0,0,0,67,67,80,1,,,,,,,,
,,,,,,,,,,,,,FF,,,,,,,,1.5013,,,,,,,,,,,,,,,,,,,,,,6103127d2a2fe4aee72a7cd2,61036d6f4801fb346dd0fa68,2021-07-29_20h10.14.409,Simcolourproject_2stim_asymm_v5,2020.2.10,MacIntel,60,61025ae37ef11b136ea224fe,,,,,,,,,982,-26.29510498,-84.26702881,1,0,0,response5disk,,3,0.27355957,11.30813599,1,0,0,rectangle,0.27355957,11.30813599,1,0,0,0.27355957,11.30813599,1,0,0,0,68,68,6,1,,,,,,,,
,,,,,,,,,,,,,FF,,,,,,,,3.0181,,,,,,,,,,,,,,,,,,,,,,6103127d2a2fe4aee72a7cd2,61036d6f4801fb346dd0fa68,2021-07-29_20h10.14.409,Simcolourproject_2stim_asymm_v5,2020.2.10,MacIntel,60,61025ae37ef11b136ea224fe,,,,,,,,,1534,-36.77319336,-87.37902832,1,0,0,response5disk,,3,-1.192993164,10.4119873,1,0,0,rectangle,-1.192993164,10.4119873,1,0,0,-1.192993164,10.4119873,1,0,0,0,69,69,128,1,,,,,,,,
,,,,,,,,,,,,,FF,,,,,,,,2.0348,,,,,,,,,,,,,,,,,,,,,,6103127d2a2fe4aee72a7cd2,61036d6f4801fb346dd0fa68,2021-07-29_20h10.14.409,Simcolourproject_2stim_asymm_v5,2020.2.10,MacIntel,60,61025ae37ef11b136ea224fe,,,,,,,,,490,63.91882324,-37.49450684,1,0,0,response3disk,,5,-0.998291016,-5.322998047,1,0,0,rectangle,-0.998291016,-5.322998047,1,0,0,-0.998291016,-5.322998047,1,0,0,0,70,70,94,1,,,,,,,,
,,,,,,,,,,,,,FF,,,,,,,,1.3513,,,,,,,,,,,,,,,,,,,,,,6103127d2a2fe4aee72a7cd2,61036d6f4801fb346dd0fa68,2021-07-29_20h10.14.409,Simcolourproject_2stim_asymm_v5,2020.2.10,MacIntel,60,61025ae37ef11b136ea224fe,,,,,,,,,4258,37.3494873,89.21331787,1,0,0,response1disk,,7,6.409912109,2.076568604,1,0,0,rectangle,6.409912109,2.076568604,1,0,0,6.409912109,2.076568604,1,0,0,0,71,71,90,1,,,,,,,,
,,,,,,,,,,,,,FF,,,,,,,,1.4521,,,,,,,,,,,,,,,,,,,,,,6103127d2a2fe4aee72a7cd2,61036d6f4801fb346dd0fa68,2021-07-29_20h10.14.409,Simcolourproject_2stim_asymm_v5,2020.2.10,MacIntel,60,61025ae37ef11b136ea224fe,,,,,,,,,3337,27.27703857,-83.09280396,1,0,0,response3disk,,4,-2.391601563,2.450073242,1,0,0,rectangle,-38.03503418,90.16369629,1,0,0,-7.260253906,0.272674561,1,0,0,0,72,72,26,1,,response7disk_3,TRUE,0,0,"[16,166,133,289,110,37,309,291,242,272,195,73,207,4,217,120,31,129,190,287]",1.3341,rectangle
,,,,,,,,,,,,,FF,,,,,,,,2.4359,,,,,,,,,,,,,,,,,,,,,,6103127d2a2fe4aee72a7cd2,61036d6f4801fb346dd0fa68,2021-07-29_20h10.14.409,Simcolourproject_2stim_asymm_v5,2020.2.10,MacIntel,60,61025ae37ef11b136ea224fe,,,,,,,,,3823,72.91870117,-33.44418335,1,0,0,response3disk,,5,6.620117188,-6.618408203,1,0,0,rectangle,6.620117188,-6.618408203,1,0,0,6.620117188,-6.618408203,1,0,0,0,73,73,45,1,,,,,,,,
,,,,,,,,,,,,,FF,,,,,,,,0.9833,,,,,,,,,,,,,,,,,,,,,,6103127d2a2fe4aee72a7cd2,61036d6f4801fb346dd0fa68,2021-07-29_20h10.14.409,Simcolourproject_2stim_asymm_v5,2020.2.10,MacIntel,60,61025ae37ef11b136ea224fe,,,,,,,,,1447,-74.00439453,-34.52160645,1,0,0,response5disk,,2,-5.055541992,1.059082031,1,0,0,rectangle,-5.055541992,1.059082031,1,0,0,-5.055541992,1.059082031,1,0,0,0,74,74,140,1,,,,,,,,
,,,,,,,,,,,,,FF,,,,,,,,3.2682,,,,,,,,,,,,,,,,,,,,,,6103127d2a2fe4aee72a7cd2,61036d6f4801fb346dd0fa68,2021-07-29_20h10.14.409,Simcolourproject_2stim_asymm_v5,2020.2.10,MacIntel,60,61025ae37ef11b136ea224fe,,,,,,,,,88,83.72363281,-38.43936157,1,0,0,response3disk,,5,9.524230957,-3.965393066,1,0,0,rectangle,9.524230957,-3.965393066,1,0,0,9.524230957,-3.965393066,1,0,0,0,75,75,116,1,,,,,,,,
,,,,,,,,,,,,,FF,,,,,,,,3.6854,,,,,,,,,,,,,,,,,,,,,,6103127d2a2fe4aee72a7cd2,61036d6f4801fb346dd0fa68,2021-07-29_20h10.14.409,Simcolourproject_2stim_asymm_v5,2020.2.10,MacIntel,60,61025ae37ef11b136ea224fe,,,,,,,,,2221,79.06762695,34.58764648,1,0,0,response1disk,,6,1.772155762,3.972686768,1,0,0,rectangle,1.772155762,3.972686768,1,0,0,1.772155762,3.972686768,1,0,0,0,76,76,20,1,,,,,,,,
,,,,,,,,,,,,,FF,,,,,,,,2.0529,,,,,,,,,,,,,,,,,,,,,,6103127d2a2fe4aee72a7cd2,61036d6f4801fb346dd0fa68,2021-07-29_20h10.14.409,Simcolourproject_2stim_asymm_v5,2020.2.10,MacIntel,60,61025ae37ef11b136ea224fe,,,,,,,,,1258,31.49169922,96.37750244,1,0,0,response1disk,,7,6.908569336,5.429931641,1,0,0,rectangle,6.908569336,5.429931641,1,0,0,6.908569336,5.429931641,1,0,0,0,77,77,79,1,,,,,,,,
,,,,,,,,,,,,,FF,,,,,,,,2.8858,,,,,,,,,,,,,,,,,,,,,,6103127d2a2fe4aee72a7cd2,61036d6f4801fb346dd0fa68,2021-07-29_20h10.14.409,Simcolourproject_2stim_asymm_v5,2020.2.10,MacIntel,60,61025ae37ef11b136ea224fe,,,,,,,,,2724,82.64331055,-34.7041626,1,0,0,response3disk,,5,-8.679321289,8.15435791,1,0,0,rectangle,-8.679321289,8.15435791,1,0,0,-8.679321289,8.15435791,1,0,0,0,78,78,9,1,,,,,,,,
,,,,,,,,,,,,,FF,,,,,,,,1.5169,,,,,,,,,,,,,,,,,,,,,,6103127d2a2fe4aee72a7cd2,61036d6f4801fb346dd0fa68,2021-07-29_20h10.14.409,Simcolourproject_2stim_asymm_v5,2020.2.10,MacIntel,60,61025ae37ef11b136ea224fe,,,,,,,,,1882,94.10565186,38.28848267,1,0,0,response1disk,,6,9.751831055,3.522949219,1,0,0,rectangle,9.751831055,3.522949219,1,0,0,9.751831055,3.522949219,1,0,0,0,79,79,157,1,,,,,,,,
,,,,,,,,,,,,,FF,,,,,,,,2.2518,,,,,,,,,,,,,,,,,,,,,,6103127d2a2fe4aee72a7cd2,61036d6f4801fb346dd0fa68,2021-07-29_20h10.14.409,Simcolourproject_2stim_asymm_v5,2020.2.10,MacIntel,60,61025ae37ef11b136ea224fe,,,,,,,,,3250,-42.23065186,-95.60388184,1,0,0,response5disk,,3,2.95300293,4.863189697,1,0,0,rectangle,2.95300293,4.863189697,1,0,0,2.95300293,4.863189697,1,0,0,0,80,80,3,1,,,,,,,,
,,,,,,,,,,,,,FF,,,,,,,,1.2002,,,,,,,,,,,,,,,,,,,,,,6103127d2a2fe4aee72a7cd2,61036d6f4801fb346dd0fa68,2021-07-29_20h10.14.409,Simcolourproject_2stim_asymm_v5,2020.2.10,MacIntel,60,61025ae37ef11b136ea224fe,,,,,,,,,630,-35.54595947,85.10528564,1,0,0,response7disk,,0,-0.721374512,3.901824951,1,0,0,rectangle,-0.721374512,3.901824951,1,0,0,-0.721374512,3.901824951,1,0,0,0,81,81,39,1,,,,,,,,
,,,,,,,,,,,,,FF,,,,,,,,1.2849,,,,,,,,,,,,,,,,,,,,,,6103127d2a2fe4aee72a7cd2,61036d6f4801fb346dd0fa68,2021-07-29_20h10.14.409,Simcolourproject_2stim_asymm_v5,2020.2.10,MacIntel,60,61025ae37ef11b136ea224fe,,,,,,,,,866,-35.45581055,-78.75213623,1,0,0,response5disk,,3,6.760742188,7.67401123,1,0,0,rectangle,6.760742188,7.67401123,1,0,0,6.760742188,7.67401123,1,0,0,0,82,82,56,1,,,,,,,,
,,,,,,,,,,,,,FF,,,,,,,,0.9662,,,,,,,,,,,,,,,,,,,,,,6103127d2a2fe4aee72a7cd2,61036d6f4801fb346dd0fa68,2021-07-29_20h10.14.409,Simcolourproject_2stim_asymm_v5,2020.2.10,MacIntel,60,61025ae37ef11b136ea224fe,,,,,,,,,1251,-73.4798584,-32.76351929,1,0,0,response5disk,,2,-18.74804688,-2.465179443,1,0,0,rectangle,-18.74804688,-2.465179443,1,0,0,-18.74804688,-2.465179443,1,0,0,0,83,83,105,1,,,,,,,,
,,,,,,,,,,,,,FF,,,,,,,,1.0333,,,,,,,,,,,,,,,,,,,,,,6103127d2a2fe4aee72a7cd2,61036d6f4801fb346dd0fa68,2021-07-29_20h10.14.409,Simcolourproject_2stim_asymm_v5,2020.2.10,MacIntel,60,61025ae37ef11b136ea224fe,,,,,,,,,776,72.10992432,-36.60070801,1,0,0,response3disk,,5,10.61517334,5.853881836,1,0,0,rectangle,10.61517334,5.853881836,1,0,0,10.61517334,5.853881836,1,0,0,0,84,84,38,1,,,,,,,,
,,,,,,,,,,,,,FF,,,,,,,,2.2023,,,,,,,,,,,,,,,,,,,,,,6103127d2a2fe4aee72a7cd2,61036d6f4801fb346dd0fa68,2021-07-29_20h10.14.409,Simcolourproject_2stim_asymm_v5,2020.2.10,MacIntel,60,61025ae37ef11b136ea224fe,,,,,,,,,1953,87.21350098,42.28469849,1,0,0,response1disk,,6,6.215454102,-2.105621338,1,0,0,rectangle,6.215454102,-2.105621338,1,0,0,6.215454102,-2.105621338,1,0,0,0,85,85,77,1,,,,,,,,
,,,,,,,,,,,,,FF,,,,,,,,1.467,,,,,,,,,,,,,,,,,,,,,,6103127d2a2fe4aee72a7cd2,61036d6f4801fb346dd0fa68,2021-07-29_20h10.14.409,Simcolourproject_2stim_asymm_v5,2020.2.10,MacIntel,60,61025ae37ef11b136ea224fe,,,,,,,,,3238,80.25549316,-26.34405518,1,0,0,response3disk,,5,10.30273438,5.942169189,1,0,0,rectangle,10.30273438,5.942169189,1,0,0,10.30273438,5.942169189,1,0,0,0,86,86,18,1,,,,,,,,
,,,,,,,,,,,,,FF,,,,,,,,0.9328,,,,,,,,,,,,,,,,,,,,,,6103127d2a2fe4aee72a7cd2,61036d6f4801fb346dd0fa68,2021-07-29_20h10.14.409,Simcolourproject_2stim_asymm_v5,2020.2.10,MacIntel,60,61025ae37ef11b136ea224fe,,,,,,,,,451,36.23376465,82.37039185,1,0,0,response1disk,,7,8.65411377,1.122955322,1,0,0,rectangle,8.65411377,1.122955322,1,0,0,8.65411377,1.122955322,1,0,0,0,87,87,156,1,,,,,,,,
,,,,,,,,,,,,,FF,,,,,,,,2.1357,,,,,,,,,,,,,,,,,,,,,,6103127d2a2fe4aee72a7cd2,61036d6f4801fb346dd0fa68,2021-07-29_20h10.14.409,Simcolourproject_2stim_asymm_v5,2020.2.10,MacIntel,60,61025ae37ef11b136ea224fe,,,,,,,,,3865,89.79022217,41.55493164,1,0,0,response1disk,,6,-4.783935547,7.923675537,1,0,0,rectangle,-4.783935547,7.923675537,1,0,0,-4.783935547,7.923675537,1,0,0,0,88,88,2,1,,,,,,,,
,,,,,,,,,,,,,FF,,,,,,,,2.518,,,,,,,,,,,,,,,,,,,,,,6103127d2a2fe4aee72a7cd2,61036d6f4801fb346dd0fa68,2021-07-29_20h10.14.409,Simcolourproject_2stim_asymm_v5,2020.2.10,MacIntel,60,61025ae37ef11b136ea224fe,,,,,,,,,1758,-82.53369141,-46.46350098,1,0,0,response5disk,,2,-4.833190918,-3.854003906,1,0,0,rectangle,-4.833190918,-3.854003906,1,0,0,-4.833190918,-3.854003906,1,0,0,0,89,89,29,1,,,,,,,,
,,,,,,,,,,,,,FF,,,,,,,,2.3854,,,,,,,,,,,,,,,,,,,,,,6103127d2a2fe4aee72a7cd2,61036d6f4801fb346dd0fa68,2021-07-29_20h10.14.409,Simcolourproject_2stim_asymm_v5,2020.2.10,MacIntel,60,61025ae37ef11b136ea224fe,,,,,,,,,3842,37.34521484,-88.86053467,1,0,0,response3disk,,4,2.187683105,-4.922180176,1,0,0,rectangle,2.187683105,-4.922180176,1,0,0,2.187683105,-4.922180176,1,0,0,0,90,90,22,1,,,,,,,,
,,,,,,,,,,,,,FF,,,,,,,,1.0352,,,,,,,,,,,,,,,,,,,,,,6103127d2a2fe4aee72a7cd2,61036d6f4801fb346dd0fa68,2021-07-29_20h10.14.409,Simcolourproject_2stim_asymm_v5,2020.2.10,MacIntel,60,61025ae37ef11b136ea224fe,,,,,,,,,546,-40.17950439,-90.418396,1,0,0,response5disk,,3,-1.427124023,-2.70489502,1,0,0,rectangle,-1.427124023,-2.70489502,1,0,0,-1.427124023,-2.70489502,1,0,0,0,91,91,61,1,,,,,,,,
,,,,,,,,,,,,,FF,,,,,,,,1.0166,,,,,,,,,,,,,,,,,,,,,,6103127d2a2fe4aee72a7cd2,61036d6f4801fb346dd0fa68,2021-07-29_20h10.14.409,Simcolourproject_2stim_asymm_v5,2020.2.10,MacIntel,60,61025ae37ef11b136ea224fe,,,,,,,,,1372,-39.49902344,-89.74603271,1,0,0,response5disk,,3,-14.89080811,-10.39520264,1,0,0,rectangle,-14.89080811,-10.39520264,1,0,0,-14.89080811,-10.39520264,1,0,0,0,92,92,130,1,,,,,,,,
,,,,,,,,,,,,,FF,,,,,,,,1.0015,,,,,,,,,,,,,,,,,,,,,,6103127d2a2fe4aee72a7cd2,61036d6f4801fb346dd0fa68,2021-07-29_20h10.14.409,Simcolourproject_2stim_asymm_v5,2020.2.10,MacIntel,60,61025ae37ef11b136ea224fe,,,,,,,,,2322,46.99475098,81.58770752,1,0,0,response1disk,,7,5.840637207,3.36328125,1,0,0,rectangle,5.840637207,3.36328125,1,0,0,5.840637207,3.36328125,1,0,0,0,93,93,126,1,,,,,,,,
,,,,,,,,,,,,,FF,,,,,,,,2.6501,,,,,,,,,,,,,,,,,,,,,,6103127d2a2fe4aee72a7cd2,61036d6f4801fb346dd0fa68,2021-07-29_20h10.14.409,Simcolourproject_2stim_asymm_v5,2020.2.10,MacIntel,60,61025ae37ef11b136ea224fe,,,,,,,,,1079,-37.64868164,-112.4439697,1,0,0,response5disk,,3,-3.014465332,11.32095337,1,0,0,rectangle,-3.014465332,11.32095337,1,0,0,-3.014465332,11.32095337,1,0,0,0,94,94,86,1,,,,,,,,
,,,,,,,,,,,,,FF,,,,,,,,1.4673,,,,,,,,,,,,,,,,,,,,,,6103127d2a2fe4aee72a7cd2,61036d6f4801fb346dd0fa68,2021-07-29_20h10.14.409,Simcolourproject_2stim_asymm_v5,2020.2.10,MacIntel,60,61025ae37ef11b136ea224fe,,,,,,,,,3478,-84.02789307,40.01922607,1,0,0,response7disk,,1,6.014465332,2.344573975,1,0,0,rectangle,6.014465332,2.344573975,1,0,0,6.014465332,2.344573975,1,0,0,0,95,95,137,1,,,,,,,,
,,,,,,,,,,,,,FF,,,,,,,,0.8185,,,,,,,,,,,,,,,,,,,,,,6103127d2a2fe4aee72a7cd2,61036d6f4801fb346dd0fa68,2021-07-29_20h10.14.409,Simcolourproject_2stim_asymm_v5,2020.2.10,MacIntel,60,61025ae37ef11b136ea224fe,,,,,,,,,4236,-77.20288086,-35.64923096,1,0,0,response5disk,,2,-1.742492676,-1.589324951,1,0,0,rectangle,-1.742492676,-1.589324951,1,0,0,-1.742492676,-1.589324951,1,0,0,0,96,96,124,1,,,,,,,,
,,,,,,,,,,,,,FF,,,,,,,,0.8833,,,,,,,,,,,,,,,,,,,,,,6103127d2a2fe4aee72a7cd2,61036d6f4801fb346dd0fa68,2021-07-29_20h10.14.409,Simcolourproject_2stim_asymm_v5,2020.2.10,MacIntel,60,61025ae37ef11b136ea224fe,,,,,,,,,1756,-35.67663574,-86.40216064,1,0,0,response5disk,,3,-0.893310547,5.736022949,1,0,0,rectangle,-0.893310547,5.736022949,1,0,0,-0.893310547,5.736022949,1,0,0,0,97,97,120,1,,,,,,,,
,,,,,,,,,,,,,FF,,,,,,,,1.3681,,,,,,,,,,,,,,,,,,,,,,6103127d2a2fe4aee72a7cd2,61036d6f4801fb346dd0fa68,2021-07-29_20h10.14.409,Simcolourproject_2stim_asymm_v5,2020.2.10,MacIntel,60,61025ae37ef11b136ea224fe,,,,,,,,,1861,83.7701416,27.08364868,1,0,0,response1disk,,6,0.34979248,-2.109069824,1,0,0,rectangle,0.34979248,-2.109069824,1,0,0,0.34979248,-2.109069824,1,0,0,0,98,98,36,1,,,,,,,,
,,,,,,,,,,,,,FF,,,,,,,,0.9677,,,,,,,,,,,,,,,,,,,,,,6103127d2a2fe4aee72a7cd2,61036d6f4801fb346dd0fa68,2021-07-29_20h10.14.409,Simcolourproject_2stim_asymm_v5,2020.2.10,MacIntel,60,61025ae37ef11b136ea224fe,,,,,,,,,3372,36.69891357,96.96743774,1,0,0,response1disk,,7,9.203125,4.613067627,1,0,0,rectangle,9.203125,4.613067627,1,0,0,9.203125,4.613067627,1,0,0,0,99,99,62,1,,,,,,,,
,,,,,,,,,,,,,FF,,,,,,,,1.3011,,,,,,,,,,,,,,,,,,,,,,6103127d2a2fe4aee72a7cd2,61036d6f4801fb346dd0fa68,2021-07-29_20h10.14.409,Simcolourproject_2stim_asymm_v5,2020.2.10,MacIntel,60,61025ae37ef11b136ea224fe,,,,,,,,,740,38.48748779,-86.7901001,1,0,0,response3disk,,4,11.38452148,3.869018555,1,0,0,rectangle,11.38452148,3.869018555,1,0,0,11.38452148,3.869018555,1,0,0,0,100,100,21,1,,,,,,,,
,,,,,,,,,,,,,FF,,,,,,,,0.991,,,,,,,,,,,,,,,,,,,,,,6103127d2a2fe4aee72a7cd2,61036d6f4801fb346dd0fa68,2021-07-29_20h10.14.409,Simcolourproject_2stim_asymm_v5,2020.2.10,MacIntel,60,61025ae37ef11b136ea224fe,,,,,,,,,2455,38.00628662,91.8303833,1,0,0,response1disk,,7,2.727966309,7.593139648,1,0,0,rectangle,2.727966309,7.593139648,1,0,0,2.727966309,7.593139648,1,0,0,0,101,101,23,1,,,,,,,,
,,,,,,,,,,,,,FF,,,,,,,,1.4666,,,,,,,,,,,,,,,,,,,,,,6103127d2a2fe4aee72a7cd2,61036d6f4801fb346dd0fa68,2021-07-29_20h10.14.409,Simcolourproject_2stim_asymm_v5,2020.2.10,MacIntel,60,61025ae37ef11b136ea224fe,,,,,,,,,3113,73.77368164,-35.88949585,1,0,0,response3disk,,5,7.226257324,-2.679443359,1,0,0,rectangle,7.226257324,-2.679443359,1,0,0,7.226257324,-2.679443359,1,0,0,0,102,102,11,1,,,,,,,,
,,,,,,,,,,,,,FF,,,,,,,,2.5914,,,,,,,,,,,,,,,,,,,,,,6103127d2a2fe4aee72a7cd2,61036d6f4801fb346dd0fa68,2021-07-29_20h10.14.409,Simcolourproject_2stim_asymm_v5,2020.2.10,MacIntel,60,61025ae37ef11b136ea224fe,,,,,,,,,2097,18.27856445,-83.64752197,1,0,0,response3disk,,4,5.415893555,3.056396484,1,0,0,rectangle,5.415893555,3.056396484,1,0,0,5.415893555,3.056396484,1,0,0,0,103,103,66,1,,,,,,,,
,,,,,,,,,,,,,FF,,,,,,,,1.834,,,,,,,,,,,,,,,,,,,,,,6103127d2a2fe4aee72a7cd2,61036d6f4801fb346dd0fa68,2021-07-29_20h10.14.409,Simcolourproject_2stim_asymm_v5,2020.2.10,MacIntel,60,61025ae37ef11b136ea224fe,,,,,,,,,4107,38.39923096,94.54580688,1,0,0,response1disk,,7,2.442749023,-2.703460693,1,0,0,rectangle,2.442749023,-2.703460693,1,0,0,2.442749023,-2.703460693,1,0,0,0,104,104,100,1,,,,,,,,
,,,,,,,,,,,,,FF,,,,,,,,0.8683,,,,,,,,,,,,,,,,,,,,,,6103127d2a2fe4aee72a7cd2,61036d6f4801fb346dd0fa68,2021-07-29_20h10.14.409,Simcolourproject_2stim_asymm_v5,2020.2.10,MacIntel,60,61025ae37ef11b136ea224fe,,,,,,,,,1795,36.33691406,96.57064819,1,0,0,response1disk,,7,4.206970215,-4.904541016,1,0,0,rectangle,4.206970215,-4.904541016,1,0,0,4.206970215,-4.904541016,1,0,0,0,105,105,141,1,,,,,,,,
,,,,,,,,,,,,,FF,,,,,,,,0.7024,,,,,,,,,,,,,,,,,,,,,,6103127d2a2fe4aee72a7cd2,61036d6f4801fb346dd0fa68,2021-07-29_20h10.14.409,Simcolourproject_2stim_asymm_v5,2020.2.10,MacIntel,60,61025ae37ef11b136ea224fe,,,,,,,,,743,41.12719727,101.5936584,1,0,0,response1disk,,7,7.809936523,1.573516846,1,0,0,rectangle,7.809936523,1.573516846,1,0,0,7.809936523,1.573516846,1,0,0,0,106,106,108,1,,,,,,,,
,,,,,,,,,,,,,FF,,,,,,,,1.1656,,,,,,,,,,,,,,,,,,,,,,6103127d2a2fe4aee72a7cd2,61036d6f4801fb346dd0fa68,2021-07-29_20h10.14.409,Simcolourproject_2stim_asymm_v5,2020.2.10,MacIntel,60,61025ae37ef11b136ea224fe,,,,,,,,,535,77.59179688,-29.62451172,1,0,0,response3disk,,5,-5.062255859,10.02429199,1,0,0,rectangle,-5.062255859,10.02429199,1,0,0,-5.062255859,10.02429199,1,0,0,0,107,107,145,1,,,,,,,,
,,,,,,,,,,,,,FF,,,,,,,,1.0323,,,,,,,,,,,,,,,,,,,,,,6103127d2a2fe4aee72a7cd2,61036d6f4801fb346dd0fa68,2021-07-29_20h10.14.409,Simcolourproject_2stim_asymm_v5,2020.2.10,MacIntel,60,61025ae37ef11b136ea224fe,,,,,,,,,803,-75.76928711,-39.87609863,1,0,0,response5disk,,2,-5.960327148,2.051177979,1,0,0,rectangle,-5.960327148,2.051177979,1,0,0,-5.960327148,2.051177979,1,0,0,0,108,108,142,1,,,,,,,,
,,,,,,,,,,,,,FF,,,,,,,,1.7836,,,,,,,,,,,,,,,,,,,,,,6103127d2a2fe4aee72a7cd2,61036d6f4801fb346dd0fa68,2021-07-29_20h10.14.409,Simcolourproject_2stim_asymm_v5,2020.2.10,MacIntel,60,61025ae37ef11b136ea224fe,,,,,,,,,2420,-82.88946533,-36.37609863,1,0,0,response5disk,,2,3.554138184,0.270477295,1,0,0,rectangle,69.91101074,-26.5630188,1,0,0,11.93347168,-0.808044434,1,0,0,0,109,109,99,1,,response3disk_3,TRUE,5,5,"[16,166,133,289,110,37,309,291,242,272,195,73,207,4,217,120,31,129,190,287]",2.2568,rectangle
,,,,,,,,,,,,,FF,,,,,,,,2.0822,,,,,,,,,,,,,,,,,,,,,,6103127d2a2fe4aee72a7cd2,61036d6f4801fb346dd0fa68,2021-07-29_20h10.14.409,Simcolourproject_2stim_asymm_v5,2020.2.10,MacIntel,60,61025ae37ef11b136ea224fe,,,,,,,,,675,102.2744751,41.68551636,1,0,0,response1disk,,6,7.141357422,9.46496582,1,0,0,rectangle,7.141357422,9.46496582,1,0,0,7.141357422,9.46496582,1,0,0,0,110,110,63,1,,,,,,,,
,,,,,,,,,,,,,FF,,,,,,,,1.4665,,,,,,,,,,,,,,,,,,,,,,6103127d2a2fe4aee72a7cd2,61036d6f4801fb346dd0fa68,2021-07-29_20h10.14.409,Simcolourproject_2stim_asymm_v5,2020.2.10,MacIntel,60,61025ae37ef11b136ea224fe,,,,,,,,,1837,37.41717529,82.95355225,1,0,0,response1disk,,7,8.801818848,-1.650604248,1,0,0,rectangle,8.801818848,-1.650604248,1,0,0,8.801818848,-1.650604248,1,0,0,0,111,111,7,1,,,,,,,,
,,,,,,,,,,,,,FF,,,,,,,,1.5662,,,,,,,,,,,,,,,,,,,,,,6103127d2a2fe4aee72a7cd2,61036d6f4801fb346dd0fa68,2021-07-29_20h10.14.409,Simcolourproject_2stim_asymm_v5,2020.2.10,MacIntel,60,61025ae37ef11b136ea224fe,,,,,,,,,4338,-79.96832275,-33.69451904,1,0,0,response5disk,,2,10.83618164,10.80221558,1,0,0,rectangle,10.83618164,10.80221558,1,0,0,10.83618164,10.80221558,1,0,0,0,112,112,135,1,,,,,,,,
,,,,,,,,,,,,,FF,,,,,,,,0.9002,,,,,,,,,,,,,,,,,,,,,,6103127d2a2fe4aee72a7cd2,61036d6f4801fb346dd0fa68,2021-07-29_20h10.14.409,Simcolourproject_2stim_asymm_v5,2020.2.10,MacIntel,60,61025ae37ef11b136ea224fe,,,,,,,,,1270,45.15332031,100.4294739,1,0,0,response1disk,,7,3.985473633,1.764251709,1,0,0,rectangle,3.985473633,1.764251709,1,0,0,3.985473633,1.764251709,1,0,0,0,113,113,57,1,,,,,,,,
,,,,,,,,,,,,,FF,,,,,,,,0.8834,,,,,,,,,,,,,,,,,,,,,,6103127d2a2fe4aee72a7cd2,61036d6f4801fb346dd0fa68,2021-07-29_20h10.14.409,Simcolourproject_2stim_asymm_v5,2020.2.10,MacIntel,60,61025ae37ef11b136ea224fe,,,,,,,,,2417,37.98132324,76.9901123,1,0,0,response1disk,,7,10.67816162,-0.527374268,1,0,0,rectangle,10.67816162,-0.527374268,1,0,0,10.67816162,-0.527374268,1,0,0,0,114,114,115,1,,,,,,,,
,,,,,,,,,,,,,FF,,,,,,,,0.7298,,,,,,,,,,,,,,,,,,,,,,6103127d2a2fe4aee72a7cd2,61036d6f4801fb346dd0fa68,2021-07-29_20h10.14.409,Simcolourproject_2stim_asymm_v5,2020.2.10,MacIntel,60,61025ae37ef11b136ea224fe,,,,,,,,,2468,76.94152832,28.72558594,1,0,0,response1disk,,6,1.596435547,-5.304901123,1,0,0,rectangle,1.596435547,-5.304901123,1,0,0,1.596435547,-5.304901123,1,0,0,0,115,115,121,1,,,,,,,,
,,,,,,,,,,,,,FF,,,,,,,,0.7846,,,,,,,,,,,,,,,,,,,,,,6103127d2a2fe4aee72a7cd2,61036d6f4801fb346dd0fa68,2021-07-29_20h10.14.409,Simcolourproject_2stim_asymm_v5,2020.2.10,MacIntel,60,61025ae37ef11b136ea224fe,,,,,,,,,3437,-86.18774414,-40.99395752,1,0,0,response5disk,,2,-14.62438965,-8.267425537,1,0,0,rectangle,-14.62438965,-8.267425537,1,0,0,-14.62438965,-8.267425537,1,0,0,0,116,116,0,1,,,,,,,,
,,,,,,,,,,,,,FF,,,,,,,,0.9498,,,,,,,,,,,,,,,,,,,,,,6103127d2a2fe4aee72a7cd2,61036d6f4801fb346dd0fa68,2021-07-29_20h10.14.409,Simcolourproject_2stim_asymm_v5,2020.2.10,MacIntel,60,61025ae37ef11b136ea224fe,,,,,,,,,753,86.41644287,37.01858521,1,0,0,response1disk,,6,7.33392334,-0.79284668,1,0,0,rectangle,7.33392334,-0.79284668,1,0,0,7.33392334,-0.79284668,1,0,0,0,117,117,28,1,,,,,,,,
,,,,,,,,,,,,,FF,,,,,,,,0.7513,,,,,,,,,,,,,,,,,,,,,,6103127d2a2fe4aee72a7cd2,61036d6f4801fb346dd0fa68,2021-07-29_20h10.14.409,Simcolourproject_2stim_asymm_v5,2020.2.10,MacIntel,60,61025ae37ef11b136ea224fe,,,,,,,,,296,38.54199219,76.28771973,1,0,0,response1disk,,7,4.405761719,-1.417510986,1,0,0,rectangle,4.405761719,-1.417510986,1,0,0,4.405761719,-1.417510986,1,0,0,0,118,118,59,1,,,,,,,,
,,,,,,,,,,,,,FF,,,,,,,,2.4687,,,,,,,,,,,,,,,,,,,,,,6103127d2a2fe4aee72a7cd2,61036d6f4801fb346dd0fa68,2021-07-29_20h10.14.409,Simcolourproject_2stim_asymm_v5,2020.2.10,MacIntel,60,61025ae37ef11b136ea224fe,,,,,,,,,1301,-35.12243652,-92.28271484,1,0,0,response5disk,,3,7.580871582,7.124511719,1,0,0,rectangle,24.12353516,87.7492981,1,0,0,5.361633301,3.910491943,1,0,0,0,119,119,123,1,,response1disk_3,TRUE,7,7,"[16,166,133,289,110,37,309,291,242,272,195,73,207,4,217,120,31,129,190,287]",1.1839,rectangle
,,,,,,,,,,,,,FF,,,,,,,,0.7506,,,,,,,,,,,,,,,,,,,,,,6103127d2a2fe4aee72a7cd2,61036d6f4801fb346dd0fa68,2021-07-29_20h10.14.409,Simcolourproject_2stim_asymm_v5,2020.2.10,MacIntel,60,61025ae37ef11b136ea224fe,,,,,,,,,3394,-84.77545166,-41.15911865,1,0,0,response5disk,,2,2.078125,5.111877441,1,0,0,rectangle,2.078125,5.111877441,1,0,0,2.078125,5.111877441,1,0,0,0,120,120,117,1,,,,,,,,
,,,,,,,,,,,,,FF,,,,,,,,0.9167,,,,,,,,,,,,,,,,,,,,,,6103127d2a2fe4aee72a7cd2,61036d6f4801fb346dd0fa68,2021-07-29_20h10.14.409,Simcolourproject_2stim_asymm_v5,2020.2.10,MacIntel,60,61025ae37ef11b136ea224fe,,,,,,,,,3117,39.41162109,91.16656494,1,0,0,response1disk,,7,0.536621094,-8.222229004,1,0,0,rectangle,0.536621094,-8.222229004,1,0,0,0.536621094,-8.222229004,1,0,0,0,121,121,104,1,,,,,,,,
,,,,,,,,,,,,,FF,,,,,,,,1.0334,,,,,,,,,,,,,,,,,,,,,,6103127d2a2fe4aee72a7cd2,61036d6f4801fb346dd0fa68,2021-07-29_20h10.14.409,Simcolourproject_2stim_asymm_v5,2020.2.10,MacIntel,60,61025ae37ef11b136ea224fe,,,,,,,,,3051,-74.38604736,-28.534729,1,0,0,response5disk,,2,8.27734375,3.346130371,1,0,0,rectangle,8.27734375,3.346130371,1,0,0,8.27734375,3.346130371,1,0,0,0,122,122,17,1,,,,,,,,
,,,,,,,,,,,,,FF,,,,,,,,1.4857,,,,,,,,,,,,,,,,,,,,,,6103127d2a2fe4aee72a7cd2,61036d6f4801fb346dd0fa68,2021-07-29_20h10.14.409,Simcolourproject_2stim_asymm_v5,2020.2.10,MacIntel,60,61025ae37ef11b136ea224fe,,,,,,,,,3768,34.37084961,-85.79571533,1,0,0,response3disk,,4,-0.497680664,-5.297943115,1,0,0,rectangle,-0.497680664,-5.297943115,1,0,0,-0.497680664,-5.297943115,1,0,0,0,123,123,125,1,,,,,,,,
,,,,,,,,,,,,,FF,,,,,,,,1.2352,,,,,,,,,,,,,,,,,,,,,,6103127d2a2fe4aee72a7cd2,61036d6f4801fb346dd0fa68,2021-07-29_20h10.14.409,Simcolourproject_2stim_asymm_v5,2020.2.10,MacIntel,60,61025ae37ef11b136ea224fe,,,,,,,,,1438,28.84777832,-90.88873291,1,0,0,response3disk,,4,6.801147461,-7.302459717,1,0,0,rectangle,6.801147461,-7.302459717,1,0,0,6.801147461,-7.302459717,1,0,0,0,124,124,109,1,,,,,,,,
,,,,,,,,,,,,,FF,,,,,,,,1.6197,,,,,,,,,,,,,,,,,,,,,,6103127d2a2fe4aee72a7cd2,61036d6f4801fb346dd0fa68,2021-07-29_20h10.14.409,Simcolourproject_2stim_asymm_v5,2020.2.10,MacIntel,60,61025ae37ef11b136ea224fe,,,,,,,,,3970,-37.71673584,-79.96923828,1,0,0,response5disk,,3,1.965942383,7.29284668,1,0,0,rectangle,1.965942383,7.29284668,1,0,0,1.965942383,7.29284668,1,0,0,0,125,125,74,1,,,,,,,,
,,,,,,,,,,,,,FF,,,,,,,,1.2499,,,,,,,,,,,,,,,,,,,,,,6103127d2a2fe4aee72a7cd2,61036d6f4801fb346dd0fa68,2021-07-29_20h10.14.409,Simcolourproject_2stim_asymm_v5,2020.2.10,MacIntel,60,61025ae37ef11b136ea224fe,,,,,,,,,1764,-81.52600098,-36.34152222,1,0,0,response5disk,,2,-13.4630127,-0.413269043,1,0,0,rectangle,-13.4630127,-0.413269043,1,0,0,-13.4630127,-0.413269043,1,0,0,0,126,126,106,1,,,,,,,,
,,,,,,,,,,,,,FF,,,,,,,,1.7347,,,,,,,,,,,,,,,,,,,,,,6103127d2a2fe4aee72a7cd2,61036d6f4801fb346dd0fa68,2021-07-29_20h10.14.409,Simcolourproject_2stim_asymm_v5,2020.2.10,MacIntel,60,61025ae37ef11b136ea224fe,,,,,,,,,135,32.62927246,86.80603027,1,0,0,response1disk,,7,9.713684082,5.082305908,1,0,0,rectangle,9.713684082,5.082305908,1,0,0,9.713684082,5.082305908,1,0,0,0,127,127,73,1,,,,,,,,
,,,,,,,,,,,,,FF,,,,,,,,1.8347,,,,,,,,,,,,,,,,,,,,,,6103127d2a2fe4aee72a7cd2,61036d6f4801fb346dd0fa68,2021-07-29_20h10.14.409,Simcolourproject_2stim_asymm_v5,2020.2.10,MacIntel,60,61025ae37ef11b136ea224fe,,,,,,,,,4120,-34.36529541,-83.63928223,1,0,0,response5disk,,3,-7.340759277,5.374908447,1,0,0,rectangle,-32.91784668,90.63894653,1,0,0,-2.116882324,-7.36831665,1,0,0,0,128,128,4,1,,response7disk_3,TRUE,0,0,"[16,166,133,289,110,37,309,291,242,272,195,73,207,4,217,120,31,129,190,287]",1.2674,rectangle
,,,,,,,,,,,,,FF,,,,,,,,1.283,,,,,,,,,,,,,,,,,,,,,,6103127d2a2fe4aee72a7cd2,61036d6f4801fb346dd0fa68,2021-07-29_20h10.14.409,Simcolourproject_2stim_asymm_v5,2020.2.10,MacIntel,60,61025ae37ef11b136ea224fe,,,,,,,,,963,36.33789063,85.51525879,1,0,0,response1disk,,7,20.27648926,5.855163574,1,0,0,rectangle,20.27648926,5.855163574,1,0,0,20.27648926,5.855163574,1,0,0,0,129,129,27,1,,,,,,,,
,,,,,,,,,,,,,FF,,,,,,,,0.7175,,,,,,,,,,,,,,,,,,,,,,6103127d2a2fe4aee72a7cd2,61036d6f4801fb346dd0fa68,2021-07-29_20h10.14.409,Simcolourproject_2stim_asymm_v5,2020.2.10,MacIntel,60,61025ae37ef11b136ea224fe,,,,,,,,,2681,41.99157715,98.19348145,1,0,0,response1disk,,7,7.484863281,4.220703125,1,0,0,rectangle,7.484863281,4.220703125,1,0,0,7.484863281,4.220703125,1,0,0,0,130,130,85,1,,,,,,,,
,,,,,,,,,,,,,FF,,,,,,,,0.8505,,,,,,,,,,,,,,,,,,,,,,6103127d2a2fe4aee72a7cd2,61036d6f4801fb346dd0fa68,2021-07-29_20h10.14.409,Simcolourproject_2stim_asymm_v5,2020.2.10,MacIntel,60,61025ae37ef11b136ea224fe,,,,,,,,,3046,-73.82037354,-33.78930664,1,0,0,response5disk,,2,-7.473205566,-4.689697266,1,0,0,rectangle,-7.473205566,-4.689697266,1,0,0,-7.473205566,-4.689697266,1,0,0,0,131,131,148,1,,,,,,,,
,,,,,,,,,,,,,FF,,,,,,,,0.9181,,,,,,,,,,,,,,,,,,,,,,6103127d2a2fe4aee72a7cd2,61036d6f4801fb346dd0fa68,2021-07-29_20h10.14.409,Simcolourproject_2stim_asymm_v5,2020.2.10,MacIntel,60,61025ae37ef11b136ea224fe,,,,,,,,,426,44.06750488,91.98931885,1,0,0,response1disk,,7,8.977233887,4.530212402,1,0,0,rectangle,40.59661865,-94.89422607,1,0,0,-1.979675293,3.784729004,1,0,0,0,132,132,37,1,,response3disk_3,TRUE,4,4,"[16,166,133,289,110,37,309,291,242,272,195,73,207,4,217,120,31,129,190,287]",1.5015,rectangle
,,,,,,,,,,,,,FF,,,,,,,,2.1745,,,,,,,,,,,,,,,,,,,,,,6103127d2a2fe4aee72a7cd2,61036d6f4801fb346dd0fa68,2021-07-29_20h10.14.409,Simcolourproject_2stim_asymm_v5,2020.2.10,MacIntel,60,61025ae37ef11b136ea224fe,,,,,,,,,226,81.22473145,34.19845581,1,0,0,response1disk,,6,10.91455078,8.544311523,1,0,0,rectangle,10.91455078,8.544311523,1,0,0,10.91455078,8.544311523,1,0,0,0,133,133,71,1,,,,,,,,
,,,,,,,,,,,,,FF,,,,,,,,0.6839,,,,,,,,,,,,,,,,,,,,,,6103127d2a2fe4aee72a7cd2,61036d6f4801fb346dd0fa68,2021-07-29_20h10.14.409,Simcolourproject_2stim_asymm_v5,2020.2.10,MacIntel,60,61025ae37ef11b136ea224fe,,,,,,,,,3543,-92.72253418,-30.56604004,1,0,0,response5disk,,2,-8.159790039,-0.364929199,1,0,0,rectangle,-8.159790039,-0.364929199,1,0,0,-8.159790039,-0.364929199,1,0,0,0,134,134,76,1,,,,,,,,
,,,,,,,,,,,,,FF,,,,,,,,1.1342,,,,,,,,,,,,,,,,,,,,,,6103127d2a2fe4aee72a7cd2,61036d6f4801fb346dd0fa68,2021-07-29_20h10.14.409,Simcolourproject_2stim_asymm_v5,2020.2.10,MacIntel,60,61025ae37ef11b136ea224fe,,,,,,,,,3852,38.87927246,76.5604248,1,0,0,response1disk,,7,21.29443359,7.497314453,1,0,0,rectangle,21.29443359,7.497314453,1,0,0,21.29443359,7.497314453,1,0,0,0,135,135,84,1,,,,,,,,
,,,,,,,,,,,,,FF,,,,,,,,0.5835,,,,,,,,,,,,,,,,,,,,,,6103127d2a2fe4aee72a7cd2,61036d6f4801fb346dd0fa68,2021-07-29_20h10.14.409,Simcolourproject_2stim_asymm_v5,2020.2.10,MacIntel,60,61025ae37ef11b136ea224fe,,,,,,,,,422,36.03546143,80.51446533,1,0,0,response1disk,,7,5.905639648,2.854675293,1,0,0,rectangle,5.905639648,2.854675293,1,0,0,5.905639648,2.854675293,1,0,0,0,136,136,147,1,,,,,,,,
,,,,,,,,,,,,,FF,,,,,,,,1.7368,,,,,,,,,,,,,,,,,,,,,,6103127d2a2fe4aee72a7cd2,61036d6f4801fb346dd0fa68,2021-07-29_20h10.14.409,Simcolourproject_2stim_asymm_v5,2020.2.10,MacIntel,60,61025ae37ef11b136ea224fe,,,,,,,,,2050,95.4644165,44.74978638,1,0,0,response1disk,,6,7.159729004,1.963226318,1,0,0,rectangle,7.159729004,1.963226318,1,0,0,7.159729004,1.963226318,1,0,0,0,137,137,107,1,,,,,,,,
,,,,,,,,,,,,,FF,,,,,,,,2.4384,,,,,,,,,,,,,,,,,,,,,,6103127d2a2fe4aee72a7cd2,61036d6f4801fb346dd0fa68,2021-07-29_20h10.14.409,Simcolourproject_2stim_asymm_v5,2020.2.10,MacIntel,60,61025ae37ef11b136ea224fe,,,,,,,,,525,-80.4039917,-26.23126221,1,0,0,response5disk,,2,3.561462402,-0.403137207,1,0,0,rectangle,3.561462402,-0.403137207,1,0,0,3.561462402,-0.403137207,1,0,0,0,138,138,132,1,,,,,,,,
,,,,,,,,,,,,,FF,,,,,,,,2.0015,,,,,,,,,,,,,,,,,,,,,,6103127d2a2fe4aee72a7cd2,61036d6f4801fb346dd0fa68,2021-07-29_20h10.14.409,Simcolourproject_2stim_asymm_v5,2020.2.10,MacIntel,60,61025ae37ef11b136ea224fe,,,,,,,,,1863,41.76037598,98.76376343,1,0,0,response1disk,,7,14.2925415,0.69519043,1,0,0,rectangle,14.2925415,0.69519043,1,0,0,14.2925415,0.69519043,1,0,0,0,139,139,40,1,,,,,,,,
,,,,,,,,,,,,,FF,,,,,,,,0.4326,,,,,,,,,,,,,,,,,,,,,,6103127d2a2fe4aee72a7cd2,61036d6f4801fb346dd0fa68,2021-07-29_20h10.14.409,Simcolourproject_2stim_asymm_v5,2020.2.10,MacIntel,60,61025ae37ef11b136ea224fe,,,,,,,,,541,35.26904297,78.52490234,1,0,0,response1disk,,7,6.784423828,8.263916016,1,0,0,rectangle,6.784423828,8.263916016,1,0,0,6.784423828,8.263916016,1,0,0,0,140,140,110,1,,,,,,,,
,,,,,,,,,,,,,FF,,,,,,,,1.5718,,,,,,,,,,,,,,,,,,,,,,6103127d2a2fe4aee72a7cd2,61036d6f4801fb346dd0fa68,2021-07-29_20h10.14.409,Simcolourproject_2stim_asymm_v5,2020.2.10,MacIntel,60,61025ae37ef11b136ea224fe,,,,,,,,,730,45.02764893,-76.29766846,1,0,0,response3disk,,4,13.65490723,-7.945068359,1,0,0,rectangle,13.65490723,-7.945068359,1,0,0,13.65490723,-7.945068359,1,0,0,0,141,141,88,1,,,,,,,,
,,,,,,,,,,,,,FF,,,,,,,,0.9344,,,,,,,,,,,,,,,,,,,,,,6103127d2a2fe4aee72a7cd2,61036d6f4801fb346dd0fa68,2021-07-29_20h10.14.409,Simcolourproject_2stim_asymm_v5,2020.2.10,MacIntel,60,61025ae37ef11b136ea224fe,,,,,,,,,3499,34.77996826,112.8811951,1,0,0,response1disk,,7,6.243408203,-5.843597412,1,0,0,rectangle,6.243408203,-5.843597412,1,0,0,6.243408203,-5.843597412,1,0,0,0,142,142,81,1,,,,,,,,
,,,,,,,,,,,,,FF,,,,,,,,0.4817,,,,,,,,,,,,,,,,,,,,,,6103127d2a2fe4aee72a7cd2,61036d6f4801fb346dd0fa68,2021-07-29_20h10.14.409,Simcolourproject_2stim_asymm_v5,2020.2.10,MacIntel,60,61025ae37ef11b136ea224fe,,,,,,,,,2272,37.00042725,82.19921875,1,0,0,response1disk,,7,10.17565918,9.774871826,1,0,0,rectangle,10.17565918,9.774871826,1,0,0,10.17565918,9.774871826,1,0,0,0,143,143,1,1,,,,,,,,
,,,,,,,,,,,,,FF,,,,,,,,1.1207,,,,,,,,,,,,,,,,,,,,,,6103127d2a2fe4aee72a7cd2,61036d6f4801fb346dd0fa68,2021-07-29_20h10.14.409,Simcolourproject_2stim_asymm_v5,2020.2.10,MacIntel,60,61025ae37ef11b136ea224fe,,,,,,,,,286,36.35070801,-80.2578125,1,0,0,response3disk,,4,11.484375,-7.911315918,1,0,0,rectangle,11.484375,-7.911315918,1,0,0,11.484375,-7.911315918,1,0,0,0,144,144,133,1,,,,,,,,
,,,,,,,,,,,,,FF,,,,,,,,1.05,,,,,,,,,,,,,,,,,,,,,,6103127d2a2fe4aee72a7cd2,61036d6f4801fb346dd0fa68,2021-07-29_20h10.14.409,Simcolourproject_2stim_asymm_v5,2020.2.10,MacIntel,60,61025ae37ef11b136ea224fe,,,,,,,,,2860,39.78863525,94.67849731,1,0,0,response1disk,,7,-1.30456543,-12.00488281,1,0,0,rectangle,-1.30456543,-12.00488281,1,0,0,-1.30456543,-12.00488281,1,0,0,0,145,145,78,1,,,,,,,,
,,,,,,,,,,,,,FF,,,,,,,,0.6003,,,,,,,,,,,,,,,,,,,,,,6103127d2a2fe4aee72a7cd2,61036d6f4801fb346dd0fa68,2021-07-29_20h10.14.409,Simcolourproject_2stim_asymm_v5,2020.2.10,MacIntel,60,61025ae37ef11b136ea224fe,,,,,,,,,3992,31.01782227,104.6484375,1,0,0,response1disk,,7,6.31237793,7.100616455,1,0,0,rectangle,6.31237793,7.100616455,1,0,0,6.31237793,7.100616455,1,0,0,0,146,146,72,1,,,,,,,,
,,,,,,,,,,,,,FF,,,,,,,,0.666,,,,,,,,,,,,,,,,,,,,,,6103127d2a2fe4aee72a7cd2,61036d6f4801fb346dd0fa68,2021-07-29_20h10.14.409,Simcolourproject_2stim_asymm_v5,2020.2.10,MacIntel,60,61025ae37ef11b136ea224fe,,,,,,,,,2136,46.60144043,84.22894287,1,0,0,response1disk,,7,17.55285645,2.185577393,1,0,0,rectangle,17.55285645,2.185577393,1,0,0,17.55285645,2.185577393,1,0,0,0,147,147,152,1,,,,,,,,
,,,,,,,,,,,,,FF,,,,,,,,1.601,,,,,,,,,,,,,,,,,,,,,,6103127d2a2fe4aee72a7cd2,61036d6f4801fb346dd0fa68,2021-07-29_20h10.14.409,Simcolourproject_2stim_asymm_v5,2020.2.10,MacIntel,60,61025ae37ef11b136ea224fe,,,,,,,,,1115,75.84057617,-33.69766235,1,0,0,response3disk,,5,2.663513184,2.011627197,1,0,0,rectangle,2.663513184,2.011627197,1,0,0,2.663513184,2.011627197,1,0,0,0,148,148,55,1,,,,,,,,
,,,,,,,,,,,,,FF,,,,,,,,0.7273,,,,,,,,,,,,,,,,,,,,,,6103127d2a2fe4aee72a7cd2,61036d6f4801fb346dd0fa68,2021-07-29_20h10.14.409,Simcolourproject_2stim_asymm_v5,2020.2.10,MacIntel,60,61025ae37ef11b136ea224fe,,,,,,,,,2478,78.27844238,42.70730591,1,0,0,response1disk,,6,8.064331055,-9.57510376,1,0,0,rectangle,8.064331055,-9.57510376,1,0,0,8.064331055,-9.57510376,1,0,0,0,149,149,92,1,,,,,,,,
,,,,,,,,,,,,,FF,,,,,,,,0.984,,,,,,,,,,,,,,,,,,,,,,6103127d2a2fe4aee72a7cd2,61036d6f4801fb346dd0fa68,2021-07-29_20h10.14.409,Simcolourproject_2stim_asymm_v5,2020.2.10,MacIntel,60,61025ae37ef11b136ea224fe,,,,,,,,,3290,-31.14971924,91.43411255,1,0,0,response7disk,,0,-13.19885254,-0.353607178,1,0,0,rectangle,-13.19885254,-0.353607178,1,0,0,-13.19885254,-0.353607178,1,0,0,0,150,150,10,1,,,,,,,,
,,,,,,,,,,,,,FF,,,,,,,,2.2682,,,,,,,,,,,,,,,,,,,,,,6103127d2a2fe4aee72a7cd2,61036d6f4801fb346dd0fa68,2021-07-29_20h10.14.409,Simcolourproject_2stim_asymm_v5,2020.2.10,MacIntel,60,61025ae37ef11b136ea224fe,,,,,,,,,2244,36.25744629,96.03894043,1,0,0,response1disk,,7,5.926818848,-6.689331055,1,0,0,rectangle,5.926818848,-6.689331055,1,0,0,5.926818848,-6.689331055,1,0,0,0,151,151,70,1,,,,,,,,
,,,,,,,,,,,,,FF,,,,,,,,1.1676,,,,,,,,,,,,,,,,,,,,,,6103127d2a2fe4aee72a7cd2,61036d6f4801fb346dd0fa68,2021-07-29_20h10.14.409,Simcolourproject_2stim_asymm_v5,2020.2.10,MacIntel,60,61025ae37ef11b136ea224fe,,,,,,,,,4022,-34.01025391,-83.53918457,1,0,0,response5disk,,3,-9.65057373,-0.571746826,1,0,0,rectangle,-9.65057373,-0.571746826,1,0,0,-9.65057373,-0.571746826,1,0,0,0,152,152,48,1,,,,,,,,
,,,,,,,,,,,,,FF,,,,,,,,0.6668,,,,,,,,,,,,,,,,,,,,,,6103127d2a2fe4aee72a7cd2,61036d6f4801fb346dd0fa68,2021-07-29_20h10.14.409,Simcolourproject_2stim_asymm_v5,2020.2.10,MacIntel,60,61025ae37ef11b136ea224fe,,,,,,,,,2632,30.02539063,84.76669312,1,0,0,response1disk,,7,-1.694824219,-10.83395386,1,0,0,rectangle,-1.694824219,-10.83395386,1,0,0,-1.694824219,-10.83395386,1,0,0,0,153,153,13,1,,,,,,,,
,,,,,,,,,,,,,FF,,,,,,,,0.4003,,,,,,,,,,,,,,,,,,,,,,6103127d2a2fe4aee72a7cd2,61036d6f4801fb346dd0fa68,2021-07-29_20h10.14.409,Simcolourproject_2stim_asymm_v5,2020.2.10,MacIntel,60,61025ae37ef11b136ea224fe,,,,,,,,,600,34.93237305,75.21295166,1,0,0,response1disk,,7,6.986328125,0.248352051,1,0,0,rectangle,6.986328125,0.248352051,1,0,0,6.986328125,0.248352051,1,0,0,0,154,154,89,1,,,,,,,,
,,,,,,,,,,,,,FF,,,,,,,,0.8336,,,,,,,,,,,,,,,,,,,,,,6103127d2a2fe4aee72a7cd2,61036d6f4801fb346dd0fa68,2021-07-29_20h10.14.409,Simcolourproject_2stim_asymm_v5,2020.2.10,MacIntel,60,61025ae37ef11b136ea224fe,,,,,,,,,2580,42.92480469,84.59103394,1,0,0,response1disk,,7,10.34692383,5.466918945,1,0,0,rectangle,10.34692383,5.466918945,1,0,0,10.34692383,5.466918945,1,0,0,0,155,155,5,1,,,,,,,,
,,,,,,,,,,,,,FF,,,,,,,,1.0514,,,,,,,,,,,,,,,,,,,,,,6103127d2a2fe4aee72a7cd2,61036d6f4801fb346dd0fa68,2021-07-29_20h10.14.409,Simcolourproject_2stim_asymm_v5,2020.2.10,MacIntel,60,61025ae37ef11b136ea224fe,,,,,,,,,2385,83.74908447,32.83041382,1,0,0,response1disk,,6,-11.60723877,-11.50152588,1,0,0,rectangle,-11.60723877,-11.50152588,1,0,0,-11.60723877,-11.50152588,1,0,0,0,156,156,155,1,,,,,,,,
,,,,,,,,,,,,,FF,,,,,,,,0.6833,,,,,,,,,,,,,,,,,,,,,,6103127d2a2fe4aee72a7cd2,61036d6f4801fb346dd0fa68,2021-07-29_20h10.14.409,Simcolourproject_2stim_asymm_v5,2020.2.10,MacIntel,60,61025ae37ef11b136ea224fe,,,,,,,,,1189,37.95147705,80.22409058,1,0,0,response1disk,,7,-5.659057617,-1.809692383,1,0,0,rectangle,-5.659057617,-1.809692383,1,0,0,-5.659057617,-1.809692383,1,0,0,0,157,157,67,1,,,,,,,,
,,,,,,,,,,,,,FF,,,,,,,,0.6833,,,,,,,,,,,,,,,,,,,,,,6103127d2a2fe4aee72a7cd2,61036d6f4801fb346dd0fa68,2021-07-29_20h10.14.409,Simcolourproject_2stim_asymm_v5,2020.2.10,MacIntel,60,61025ae37ef11b136ea224fe,,,,,,,,,3316,35.11505127,86.58007813,1,0,0,response1disk,,7,-2.555053711,-6.154785156,1,0,0,rectangle,-2.555053711,-6.154785156,1,0,0,-2.555053711,-6.154785156,1,0,0,0,158,158,50,1,,,,,,,,
,,,,,,,,,,,,,FF,,,,,,,,1.5663,,,,,,,,,,,,,,,,,,,,,,6103127d2a2fe4aee72a7cd2,61036d6f4801fb346dd0fa68,2021-07-29_20h10.14.409,Simcolourproject_2stim_asymm_v5,2020.2.10,MacIntel,60,61025ae37ef11b136ea224fe,,,,,,,,,3677,44.18017578,-80.54418945,1,0,0,response3disk,,4,9.6796875,3.178863525,1,0,0,rectangle,9.6796875,3.178863525,1,0,0,9.6796875,3.178863525,1,0,0,0,159,159,93,1,,,,,,,,
,,,,,,,,,,,,,FF,,,,,,,,0.9514,,,,,,,,,,,,,,,,,,,,,,6103127d2a2fe4aee72a7cd2,61036d6f4801fb346dd0fa68,2021-07-29_20h10.14.409,Simcolourproject_2stim_asymm_v5,2020.2.10,MacIntel,60,61025ae37ef11b136ea224fe,,,,,,,,,1386,30.94580078,-100.3428955,1,0,0,response3disk,,4,6.541015625,2.852844238,1,0,0,rectangle,6.541015625,2.852844238,1,0,0,6.541015625,2.852844238,1,0,0,1,0,160,155,1,,,,,,,,
,,,,,,,,,,,,,FF,,,,,,,,0.7998,,,,,,,,,,,,,,,,,,,,,,6103127d2a2fe4aee72a7cd2,61036d6f4801fb346dd0fa68,2021-07-29_20h10.14.409,Simcolourproject_2stim_asymm_v5,2020.2.10,MacIntel,60,61025ae37ef11b136ea224fe,,,,,,,,,2215,32.25860596,99.19995117,1,0,0,response1disk,,7,9.294433594,1.098419189,1,0,0,rectangle,9.294433594,1.098419189,1,0,0,9.294433594,1.098419189,1,0,0,1,1,161,141,1,,,,,,,,
,,,,,,,,,,,,,FF,,,,,,,,0.5999,,,,,,,,,,,,,,,,,,,,,,6103127d2a2fe4aee72a7cd2,61036d6f4801fb346dd0fa68,2021-07-29_20h10.14.409,Simcolourproject_2stim_asymm_v5,2020.2.10,MacIntel,60,61025ae37ef11b136ea224fe,,,,,,,,,2581,38.65698242,85.13565063,1,0,0,response1disk,,7,2.666015625,-2.48638916,1,0,0,rectangle,2.666015625,-2.48638916,1,0,0,2.666015625,-2.48638916,1,0,0,1,2,162,64,1,,,,,,,,
,,,,,,,,,,,,,FF,,,,,,,,0.8144,,,,,,,,,,,,,,,,,,,,,,6103127d2a2fe4aee72a7cd2,61036d6f4801fb346dd0fa68,2021-07-29_20h10.14.409,Simcolourproject_2stim_asymm_v5,2020.2.10,MacIntel,60,61025ae37ef11b136ea224fe,,,,,,,,,3101,-72.41687012,-32.79785156,1,0,0,response5disk,,2,-9.999267578,-9.294799805,1,0,0,rectangle,-9.999267578,-9.294799805,1,0,0,-9.999267578,-9.294799805,1,0,0,1,3,163,79,1,,,,,,,,
,,,,,,,,,,,,,FF,,,,,,,,0.7363,,,,,,,,,,,,,,,,,,,,,,6103127d2a2fe4aee72a7cd2,61036d6f4801fb346dd0fa68,2021-07-29_20h10.14.409,Simcolourproject_2stim_asymm_v5,2020.2.10,MacIntel,60,61025ae37ef11b136ea224fe,,,,,,,,,2720,-76.31408691,-37.72793579,1,0,0,response5disk,,2,0.200927734,1.57635498,1,0,0,rectangle,0.200927734,1.57635498,1,0,0,0.200927734,1.57635498,1,0,0,1,4,164,122,1,,,,,,,,
,,,,,,,,,,,,,FF,,,,,,,,1.6168,,,,,,,,,,,,,,,,,,,,,,6103127d2a2fe4aee72a7cd2,61036d6f4801fb346dd0fa68,2021-07-29_20h10.14.409,Simcolourproject_2stim_asymm_v5,2020.2.10,MacIntel,60,61025ae37ef11b136ea224fe,,,,,,,,,3814,-80.02935791,-29.7411499,1,0,0,response5disk,,2,3.783325195,-2.551086426,1,0,0,rectangle,-74.23596191,28.1960144,1,0,0,-7.75012207,2.152160645,1,0,0,1,5,165,83,1,,response7disk_3,TRUE,1,1,"[16,166,133,289,110,37,309,291,242,272,195,73,207,4,217,120,31,129,190,287]",1.1861,rectangle
,,,,,,,,,,,,,FF,,,,,,,,1.3343,,,,,,,,,,,,,,,,,,,,,,6103127d2a2fe4aee72a7cd2,61036d6f4801fb346dd0fa68,2021-07-29_20h10.14.409,Simcolourproject_2stim_asymm_v5,2020.2.10,MacIntel,60,61025ae37ef11b136ea224fe,,,,,,,,,1384,-84.07489014,38.63998413,1,0,0,response7disk,,1,-11.41027832,2.681945801,1,0,0,rectangle,-11.41027832,2.681945801,1,0,0,-11.41027832,2.681945801,1,0,0,1,6,166,42,1,,,,,,,,
,,,,,,,,,,,,,FF,,,,,,,,1.9189,,,,,,,,,,,,,,,,,,,,,,6103127d2a2fe4aee72a7cd2,61036d6f4801fb346dd0fa68,2021-07-29_20h10.14.409,Simcolourproject_2stim_asymm_v5,2020.2.10,MacIntel,60,61025ae37ef11b136ea224fe,,,,,,,,,3819,-31.67907715,-84.47601318,1,0,0,response5disk,,3,1.124023438,-1.553497314,1,0,0,rectangle,1.124023438,-1.553497314,1,0,0,1.124023438,-1.553497314,1,0,0,1,7,167,68,1,,,,,,,,
,,,,,,,,,,,,,FF,,,,,,,,0.7346,,,,,,,,,,,,,,,,,,,,,,6103127d2a2fe4aee72a7cd2,61036d6f4801fb346dd0fa68,2021-07-29_20h10.14.409,Simcolourproject_2stim_asymm_v5,2020.2.10,MacIntel,60,61025ae37ef11b136ea224fe,,,,,,,,,3418,-96.62023926,-39.54684448,1,0,0,response5disk,,2,-3.553344727,-0.954437256,1,0,0,rectangle,-3.553344727,-0.954437256,1,0,0,-3.553344727,-0.954437256,1,0,0,1,8,168,107,1,,,,,,,,
,,,,,,,,,,,,,FF,,,,,,,,0.8185,,,,,,,,,,,,,,,,,,,,,,6103127d2a2fe4aee72a7cd2,61036d6f4801fb346dd0fa68,2021-07-29_20h10.14.409,Simcolourproject_2stim_asymm_v5,2020.2.10,MacIntel,60,61025ae37ef11b136ea224fe,,,,,,,,,322,40.94232178,99.77380371,1,0,0,response1disk,,7,3.881286621,1.170257568,1,0,0,rectangle,3.881286621,1.170257568,1,0,0,3.881286621,1.170257568,1,0,0,1,9,169,140,1,,,,,,,,
,,,,,,,,,,,,,FF,,,,,,,,0.7862,,,,,,,,,,,,,,,,,,,,,,6103127d2a2fe4aee72a7cd2,61036d6f4801fb346dd0fa68,2021-07-29_20h10.14.409,Simcolourproject_2stim_asymm_v5,2020.2.10,MacIntel,60,61025ae37ef11b136ea224fe,,,,,,,,,2646,44.62353516,105.0922546,1,0,0,response1disk,,7,3.682739258,4.028900146,1,0,0,rectangle,3.682739258,4.028900146,1,0,0,3.682739258,4.028900146,1,0,0,1,10,170,20,1,,,,,,,,
,,,,,,,,,,,,,FF,,,,,,,,1.5172,,,,,,,,,,,,,,,,,,,,,,6103127d2a2fe4aee72a7cd2,61036d6f4801fb346dd0fa68,2021-07-29_20h10.14.409,Simcolourproject_2stim_asymm_v5,2020.2.10,MacIntel,60,61025ae37ef11b136ea224fe,,,,,,,,,3384,-80.40246582,-34.35647583,1,0,0,response5disk,,2,-0.545776367,6.025970459,1,0,0,rectangle,-0.545776367,6.025970459,1,0,0,-0.545776367,6.025970459,1,0,0,1,11,171,106,1,,,,,,,,
,,,,,,,,,,,,,FF,,,,,,,,1.4858,,,,,,,,,,,,,,,,,,,,,,6103127d2a2fe4aee72a7cd2,61036d6f4801fb346dd0fa68,2021-07-29_20h10.14.409,Simcolourproject_2stim_asymm_v5,2020.2.10,MacIntel,60,61025ae37ef11b136ea224fe,,,,,,,,,3163,41.08813477,-79.65228271,1,0,0,response3disk,,4,1.54675293,-9.268371582,1,0,0,rectangle,1.54675293,-9.268371582,1,0,0,1.54675293,-9.268371582,1,0,0,1,12,172,145,1,,,,,,,,
,,,,,,,,,,,,,FF,,,,,,,,1.8532,,,,,,,,,,,,,,,,,,,,,,6103127d2a2fe4aee72a7cd2,61036d6f4801fb346dd0fa68,2021-07-29_20h10.14.409,Simcolourproject_2stim_asymm_v5,2020.2.10,MacIntel,60,61025ae37ef11b136ea224fe,,,,,,,,,1828,17.68164063,-89.39367676,1,0,0,response3disk,,4,9.408813477,-11.6451416,1,0,0,rectangle,9.408813477,-11.6451416,1,0,0,9.408813477,-11.6451416,1,0,0,1,13,173,119,1,,,,,,,,
,,,,,,,,,,,,,FF,,,,,,,,0.7338,,,,,,,,,,,,,,,,,,,,,,6103127d2a2fe4aee72a7cd2,61036d6f4801fb346dd0fa68,2021-07-29_20h10.14.409,Simcolourproject_2stim_asymm_v5,2020.2.10,MacIntel,60,61025ae37ef11b136ea224fe,,,,,,,,,469,46.26501465,92.75717163,1,0,0,response1disk,,7,8.512756348,-3.157043457,1,0,0,rectangle,8.512756348,-3.157043457,1,0,0,8.512756348,-3.157043457,1,0,0,1,14,174,32,1,,,,,,,,
,,,,,,,,,,,,,FF,,,,,,,,0.6514,,,,,,,,,,,,,,,,,,,,,,6103127d2a2fe4aee72a7cd2,61036d6f4801fb346dd0fa68,2021-07-29_20h10.14.409,Simcolourproject_2stim_asymm_v5,2020.2.10,MacIntel,60,61025ae37ef11b136ea224fe,,,,,,,,,3454,45.23150635,80.69534302,1,0,0,response1disk,,7,5.095092773,4.888397217,1,0,0,rectangle,5.095092773,4.888397217,1,0,0,5.095092773,4.888397217,1,0,0,1,15,175,52,1,,,,,,,,
,,,,,,,,,,,,,FF,,,,,,,,1.268,,,,,,,,,,,,,,,,,,,,,,6103127d2a2fe4aee72a7cd2,61036d6f4801fb346dd0fa68,2021-07-29_20h10.14.409,Simcolourproject_2stim_asymm_v5,2020.2.10,MacIntel,60,61025ae37ef11b136ea224fe,,,,,,,,,3038,38.7543335,-80.39807129,1,0,0,response3disk,,4,8.151062012,7.91595459,1,0,0,rectangle,8.151062012,7.91595459,1,0,0,8.151062012,7.91595459,1,0,0,1,16,176,12,1,,,,,,,,
,,,,,,,,,,,,,FF,,,,,,,,1.4679,,,,,,,,,,,,,,,,,,,,,,6103127d2a2fe4aee72a7cd2,61036d6f4801fb346dd0fa68,2021-07-29_20h10.14.409,Simcolourproject_2stim_asymm_v5,2020.2.10,MacIntel,60,61025ae37ef11b136ea224fe,,,,,,,,,3377,84.23205566,-36.20404053,1,0,0,response3disk,,5,8.787231445,-0.506652832,1,0,0,rectangle,8.787231445,-0.506652832,1,0,0,8.787231445,-0.506652832,1,0,0,1,17,177,142,1,,,,,,,,
,,,,,,,,,,,,,FF,,,,,,,,1.1156,,,,,,,,,,,,,,,,,,,,,,6103127d2a2fe4aee72a7cd2,61036d6f4801fb346dd0fa68,2021-07-29_20h10.14.409,Simcolourproject_2stim_asymm_v5,2020.2.10,MacIntel,60,61025ae37ef11b136ea224fe,,,,,,,,,1942,42.18322754,77.29885864,1,0,0,response1disk,,7,12.78198242,-1.649475098,1,0,0,rectangle,12.78198242,-1.649475098,1,0,0,12.78198242,-1.649475098,1,0,0,1,18,178,37,1,,,,,,,,
,,,,,,,,,,,,,FF,,,,,,,,0.5335,,,,,,,,,,,,,,,,,,,,,,6103127d2a2fe4aee72a7cd2,61036d6f4801fb346dd0fa68,2021-07-29_20h10.14.409,Simcolourproject_2stim_asymm_v5,2020.2.10,MacIntel,60,61025ae37ef11b136ea224fe,,,,,,,,,1772,36.54638672,81.9692688,1,0,0,response1disk,,7,4.33807373,-3.717071533,1,0,0,rectangle,4.33807373,-3.717071533,1,0,0,4.33807373,-3.717071533,1,0,0,1,19,179,21,1,,,,,,,,
,,,,,,,,,,,,,FF,,,,,,,,0.8829,,,,,,,,,,,,,,,,,,,,,,6103127d2a2fe4aee72a7cd2,61036d6f4801fb346dd0fa68,2021-07-29_20h10.14.409,Simcolourproject_2stim_asymm_v5,2020.2.10,MacIntel,60,61025ae37ef11b136ea224fe,,,,,,,,,3262,91.24084473,32.94955444,1,0,0,response1disk,,6,2.159912109,-0.872619629,1,0,0,rectangle,2.159912109,-0.872619629,1,0,0,2.159912109,-0.872619629,1,0,0,1,20,180,76,1,,,,,,,,
,,,,,,,,,,,,,FF,,,,,,,,0.7842,,,,,,,,,,,,,,,,,,,,,,6103127d2a2fe4aee72a7cd2,61036d6f4801fb346dd0fa68,2021-07-29_20h10.14.409,Simcolourproject_2stim_asymm_v5,2020.2.10,MacIntel,60,61025ae37ef11b136ea224fe,,,,,,,,,3705,-35.81445313,90.984375,1,0,0,response7disk,,0,-8.448547363,-1.900970459,1,0,0,rectangle,-8.448547363,-1.900970459,1,0,0,-8.448547363,-1.900970459,1,0,0,1,21,181,101,1,,,,,,,,
,,,,,,,,,,,,,FF,,,,,,,,0.8503,,,,,,,,,,,,,,,,,,,,,,6103127d2a2fe4aee72a7cd2,61036d6f4801fb346dd0fa68,2021-07-29_20h10.14.409,Simcolourproject_2stim_asymm_v5,2020.2.10,MacIntel,60,61025ae37ef11b136ea224fe,,,,,,,,,2279,25.80480957,95.61157227,1,0,0,response1disk,,7,9.65625,-8.12097168,1,0,0,rectangle,9.65625,-8.12097168,1,0,0,9.65625,-8.12097168,1,0,0,1,22,182,158,1,,,,,,,,
,,,,,,,,,,,,,FF,,,,,,,,1.3016,,,,,,,,,,,,,,,,,,,,,,6103127d2a2fe4aee72a7cd2,61036d6f4801fb346dd0fa68,2021-07-29_20h10.14.409,Simcolourproject_2stim_asymm_v5,2020.2.10,MacIntel,60,61025ae37ef11b136ea224fe,,,,,,,,,2933,25.19238281,-86.57196045,1,0,0,response3disk,,4,2.64855957,7.412963867,1,0,0,rectangle,2.64855957,7.412963867,1,0,0,2.64855957,7.412963867,1,0,0,1,23,183,71,1,,,,,,,,
,,,,,,,,,,,,,FF,,,,,,,,0.7508,,,,,,,,,,,,,,,,,,,,,,6103127d2a2fe4aee72a7cd2,61036d6f4801fb346dd0fa68,2021-07-29_20h10.14.409,Simcolourproject_2stim_asymm_v5,2020.2.10,MacIntel,60,61025ae37ef11b136ea224fe,,,,,,,,,1056,-37.26489258,-79.80932617,1,0,0,response5disk,,3,0.583557129,-1.923736572,1,0,0,rectangle,0.583557129,-1.923736572,1,0,0,0.583557129,-1.923736572,1,0,0,1,24,184,126,1,,,,,,,,
,,,,,,,,,,,,,FF,,,,,,,,0.9845,,,,,,,,,,,,,,,,,,,,,,6103127d2a2fe4aee72a7cd2,61036d6f4801fb346dd0fa68,2021-07-29_20h10.14.409,Simcolourproject_2stim_asymm_v5,2020.2.10,MacIntel,60,61025ae37ef11b136ea224fe,,,,,,,,,1500,35.94970703,78.15264893,1,0,0,response1disk,,7,7.727111816,3.248443604,1,0,0,rectangle,7.727111816,3.248443604,1,0,0,7.727111816,3.248443604,1,0,0,1,25,185,118,1,,,,,,,,
,,,,,,,,,,,,,FF,,,,,,,,0.4505,,,,,,,,,,,,,,,,,,,,,,6103127d2a2fe4aee72a7cd2,61036d6f4801fb346dd0fa68,2021-07-29_20h10.14.409,Simcolourproject_2stim_asymm_v5,2020.2.10,MacIntel,60,61025ae37ef11b136ea224fe,,,,,,,,,4160,34.80999756,83.33428955,1,0,0,response1disk,,7,8.545593262,4.005950928,1,0,0,rectangle,8.545593262,4.005950928,1,0,0,8.545593262,4.005950928,1,0,0,1,26,186,81,1,,,,,,,,
,,,,,,,,,,,,,FF,,,,,,,,1.0841,,,,,,,,,,,,,,,,,,,,,,6103127d2a2fe4aee72a7cd2,61036d6f4801fb346dd0fa68,2021-07-29_20h10.14.409,Simcolourproject_2stim_asymm_v5,2020.2.10,MacIntel,60,61025ae37ef11b136ea224fe,,,,,,,,,3745,80.46209717,48.54193115,1,0,0,response1disk,,6,-5.850585938,-9.655517578,1,0,0,rectangle,-5.850585938,-9.655517578,1,0,0,-5.850585938,-9.655517578,1,0,0,1,27,187,153,1,,,,,,,,
,,,,,,,,,,,,,FF,,,,,,,,0.5078,,,,,,,,,,,,,,,,,,,,,,6103127d2a2fe4aee72a7cd2,61036d6f4801fb346dd0fa68,2021-07-29_20h10.14.409,Simcolourproject_2stim_asymm_v5,2020.2.10,MacIntel,60,61025ae37ef11b136ea224fe,,,,,,,,,2471,26.08764648,72.6315918,1,0,0,response1disk,,7,6.361572266,1.489196777,1,0,0,rectangle,6.361572266,1.489196777,1,0,0,6.361572266,1.489196777,1,0,0,1,28,188,84,1,,,,,,,,
,,,,,,,,,,,,,FF,,,,,,,,0.6812,,,,,,,,,,,,,,,,,,,,,,6103127d2a2fe4aee72a7cd2,61036d6f4801fb346dd0fa68,2021-07-29_20h10.14.409,Simcolourproject_2stim_asymm_v5,2020.2.10,MacIntel,60,61025ae37ef11b136ea224fe,,,,,,,,,3276,28.7322998,64.23651123,1,0,0,response1disk,,7,6.747741699,-3.387023926,1,0,0,rectangle,-73.37927246,-26.73687744,1,0,0,-6.126220703,5.838348389,1,0,0,1,29,189,154,1,,response5disk_3,TRUE,2,2,"[16,166,133,289,110,37,309,291,242,272,195,73,207,4,217,120,31,129,190,287]",1.4174,rectangle
,,,,,,,,,,,,,FF,,,,,,,,2.9526,,,,,,,,,,,,,,,,,,,,,,6103127d2a2fe4aee72a7cd2,61036d6f4801fb346dd0fa68,2021-07-29_20h10.14.409,Simcolourproject_2stim_asymm_v5,2020.2.10,MacIntel,60,61025ae37ef11b136ea224fe,,,,,,,,,3240,74.08300781,-36.74575806,1,0,0,response3disk,,5,-1.220581055,5.241760254,1,0,0,rectangle,-1.220581055,5.241760254,1,0,0,-1.220581055,5.241760254,1,0,0,1,30,190,19,1,,,,,,,,
,,,,,,,,,,,,,FF,,,,,,,,1.15,,,,,,,,,,,,,,,,,,,,,,6103127d2a2fe4aee72a7cd2,61036d6f4801fb346dd0fa68,2021-07-29_20h10.14.409,Simcolourproject_2stim_asymm_v5,2020.2.10,MacIntel,60,61025ae37ef11b136ea224fe,,,,,,,,,1646,49.69250488,102.2950745,1,0,0,response1disk,,7,7.991821289,-2.206115723,1,0,0,rectangle,7.991821289,-2.206115723,1,0,0,7.991821289,-2.206115723,1,0,0,1,31,191,94,1,,,,,,,,
,,,,,,,,,,,,,FF,,,,,,,,0.9674,,,,,,,,,,,,,,,,,,,,,,6103127d2a2fe4aee72a7cd2,61036d6f4801fb346dd0fa68,2021-07-29_20h10.14.409,Simcolourproject_2stim_asymm_v5,2020.2.10,MacIntel,60,61025ae37ef11b136ea224fe,,,,,,,,,3940,33.6081543,-80.9407959,1,0,0,response3disk,,4,8.917419434,0.200134277,1,0,0,rectangle,8.917419434,0.200134277,1,0,0,8.917419434,0.200134277,1,0,0,1,32,192,124,1,,,,,,,,
,,,,,,,,,,,,,FF,,,,,,,,0.8846,,,,,,,,,,,,,,,,,,,,,,6103127d2a2fe4aee72a7cd2,61036d6f4801fb346dd0fa68,2021-07-29_20h10.14.409,Simcolourproject_2stim_asymm_v5,2020.2.10,MacIntel,60,61025ae37ef11b136ea224fe,,,,,,,,,1809,32.13220215,76.72424316,1,0,0,response1disk,,7,5.419311523,-1.606903076,1,0,0,rectangle,5.419311523,-1.606903076,1,0,0,5.419311523,-1.606903076,1,0,0,1,33,193,134,1,,,,,,,,
,,,,,,,,,,,,,FF,,,,,,,,0.5824,,,,,,,,,,,,,,,,,,,,,,6103127d2a2fe4aee72a7cd2,61036d6f4801fb346dd0fa68,2021-07-29_20h10.14.409,Simcolourproject_2stim_asymm_v5,2020.2.10,MacIntel,60,61025ae37ef11b136ea224fe,,,,,,,,,202,41.51373291,92.79278564,1,0,0,response1disk,,7,9.087341309,5.61328125,1,0,0,rectangle,-31.97021484,-81.04034424,1,0,0,0.884033203,-9.773345947,1,0,0,1,34,194,22,1,,response5disk_3,TRUE,3,3,"[16,166,133,289,110,37,309,291,242,272,195,73,207,4,217,120,31,129,190,287]",1.1511,rectangle
,,,,,,,,,,,,,FF,,,,,,,,1.2329,,,,,,,,,,,,,,,,,,,,,,6103127d2a2fe4aee72a7cd2,61036d6f4801fb346dd0fa68,2021-07-29_20h10.14.409,Simcolourproject_2stim_asymm_v5,2020.2.10,MacIntel,60,61025ae37ef11b136ea224fe,,,,,,,,,1297,-88.96398926,25.30383301,1,0,0,response7disk,,1,-4.658447266,8.821807861,1,0,0,rectangle,-4.658447266,8.821807861,1,0,0,-4.658447266,8.821807861,1,0,0,1,35,195,10,1,,,,,,,,
,,,,,,,,,,,,,FF,,,,,,,,0.6843,,,,,,,,,,,,,,,,,,,,,,6103127d2a2fe4aee72a7cd2,61036d6f4801fb346dd0fa68,2021-07-29_20h10.14.409,Simcolourproject_2stim_asymm_v5,2020.2.10,MacIntel,60,61025ae37ef11b136ea224fe,,,,,,,,,2057,54.60040283,88.53225708,1,0,0,response1disk,,7,1.510131836,-5.388031006,1,0,0,rectangle,1.510131836,-5.388031006,1,0,0,1.510131836,-5.388031006,1,0,0,1,36,196,157,1,,,,,,,,
,,,,,,,,,,,,,FF,,,,,,,,0.8257,,,,,,,,,,,,,,,,,,,,,,6103127d2a2fe4aee72a7cd2,61036d6f4801fb346dd0fa68,2021-07-29_20h10.14.409,Simcolourproject_2stim_asymm_v5,2020.2.10,MacIntel,60,61025ae37ef11b136ea224fe,,,,,,,,,2048,60.09674072,22.84869385,1,0,0,response1disk,,6,-8.499267578,-0.921600342,1,0,0,rectangle,-8.499267578,-0.921600342,1,0,0,-8.499267578,-0.921600342,1,0,0,1,37,197,48,1,,,,,,,,
,,,,,,,,,,,,,FF,,,,,,,,1.3002,,,,,,,,,,,,,,,,,,,,,,6103127d2a2fe4aee72a7cd2,61036d6f4801fb346dd0fa68,2021-07-29_20h10.14.409,Simcolourproject_2stim_asymm_v5,2020.2.10,MacIntel,60,61025ae37ef11b136ea224fe,,,,,,,,,526,-31.85247803,-82.72937012,1,0,0,response5disk,,3,-13.76153564,0.416931152,1,0,0,rectangle,-13.76153564,0.416931152,1,0,0,-13.76153564,0.416931152,1,0,0,1,38,198,109,1,,,,,,,,
,,,,,,,,,,,,,FF,,,,,,,,1.3501,,,,,,,,,,,,,,,,,,,,,,6103127d2a2fe4aee72a7cd2,61036d6f4801fb346dd0fa68,2021-07-29_20h10.14.409,Simcolourproject_2stim_asymm_v5,2020.2.10,MacIntel,60,61025ae37ef11b136ea224fe,,,,,,,,,2098,-73.94396973,-32.59750366,1,0,0,response5disk,,2,-0.22088623,-2.001434326,1,0,0,rectangle,-0.22088623,-2.001434326,1,0,0,-0.22088623,-2.001434326,1,0,0,1,39,199,13,1,,,,,,,,
,,,,,,,,,,,,,FF,,,,,,,,0.7319,,,,,,,,,,,,,,,,,,,,,,6103127d2a2fe4aee72a7cd2,61036d6f4801fb346dd0fa68,2021-07-29_20h10.14.409,Simcolourproject_2stim_asymm_v5,2020.2.10,MacIntel,60,61025ae37ef11b136ea224fe,,,,,,,,,635,-58.30834961,-97.19848633,1,0,0,response5disk,,3,-17.65527344,-5.329803467,1,0,0,rectangle,-17.65527344,-5.329803467,1,0,0,-17.65527344,-5.329803467,1,0,0,1,40,200,62,1,,,,,,,,
,,,,,,,,,,,,,FF,,,,,,,,1,,,,,,,,,,,,,,,,,,,,,,6103127d2a2fe4aee72a7cd2,61036d6f4801fb346dd0fa68,2021-07-29_20h10.14.409,Simcolourproject_2stim_asymm_v5,2020.2.10,MacIntel,60,61025ae37ef11b136ea224fe,,,,,,,,,3191,69.86157227,-40.90313721,1,0,0,response3disk,,5,3.370605469,-1.206207275,1,0,0,rectangle,3.370605469,-1.206207275,1,0,0,3.370605469,-1.206207275,1,0,0,1,41,201,150,1,,,,,,,,
,,,,,,,,,,,,,FF,,,,,,,,0.8843,,,,,,,,,,,,,,,,,,,,,,6103127d2a2fe4aee72a7cd2,61036d6f4801fb346dd0fa68,2021-07-29_20h10.14.409,Simcolourproject_2stim_asymm_v5,2020.2.10,MacIntel,60,61025ae37ef11b136ea224fe,,,,,,,,,173,43.09765625,-84.49835205,1,0,0,response3disk,,4,13.55487061,-3.809967041,1,0,0,rectangle,13.55487061,-3.809967041,1,0,0,13.55487061,-3.809967041,1,0,0,1,42,202,49,1,,,,,,,,
,,,,,,,,,,,,,FF,,,,,,,,0.9847,,,,,,,,,,,,,,,,,,,,,,6103127d2a2fe4aee72a7cd2,61036d6f4801fb346dd0fa68,2021-07-29_20h10.14.409,Simcolourproject_2stim_asymm_v5,2020.2.10,MacIntel,60,61025ae37ef11b136ea224fe,,,,,,,,,1387,29.38574219,76.68756104,1,0,0,response1disk,,7,10.94512939,6.707519531,1,0,0,rectangle,10.94512939,6.707519531,1,0,0,10.94512939,6.707519531,1,0,0,1,43,203,47,1,,,,,,,,
,,,,,,,,,,,,,FF,,,,,,,,0.5188,,,,,,,,,,,,,,,,,,,,,,6103127d2a2fe4aee72a7cd2,61036d6f4801fb346dd0fa68,2021-07-29_20h10.14.409,Simcolourproject_2stim_asymm_v5,2020.2.10,MacIntel,60,61025ae37ef11b136ea224fe,,,,,,,,,2942,38.57470703,87.07104492,1,0,0,response1disk,,7,6.117431641,8.047821045,1,0,0,rectangle,6.117431641,8.047821045,1,0,0,6.117431641,8.047821045,1,0,0,1,44,204,115,1,,,,,,,,
,,,,,,,,,,,,,FF,,,,,,,,1.1003,,,,,,,,,,,,,,,,,,,,,,6103127d2a2fe4aee72a7cd2,61036d6f4801fb346dd0fa68,2021-07-29_20h10.14.409,Simcolourproject_2stim_asymm_v5,2020.2.10,MacIntel,60,61025ae37ef11b136ea224fe,,,,,,,,,944,35.16369629,69.8555603,1,0,0,response1disk,,7,11.35266113,-4.494842529,1,0,0,rectangle,11.35266113,-4.494842529,1,0,0,11.35266113,-4.494842529,1,0,0,1,45,205,55,1,,,,,,,,
,,,,,,,,,,,,,FF,,,,,,,,1.1187,,,,,,,,,,,,,,,,,,,,,,6103127d2a2fe4aee72a7cd2,61036d6f4801fb346dd0fa68,2021-07-29_20h10.14.409,Simcolourproject_2stim_asymm_v5,2020.2.10,MacIntel,60,61025ae37ef11b136ea224fe,,,,,,,,,3752,47.12939453,-76.5657959,1,0,0,response3disk,,4,8.152709961,-5.092834473,1,0,0,rectangle,33.46270752,-90.43212891,1,0,0,0.503295898,5.004302979,1,0,0,1,46,206,80,1,,response3disk_3,TRUE,4,4,"[16,166,133,289,110,37,309,291,242,272,195,73,207,4,217,120,31,129,190,287]",1.0351,rectangle
,,,,,,,,,,,,,FF,,,,,,,,1.1663,,,,,,,,,,,,,,,,,,,,,,6103127d2a2fe4aee72a7cd2,61036d6f4801fb346dd0fa68,2021-07-29_20h10.14.409,Simcolourproject_2stim_asymm_v5,2020.2.10,MacIntel,60,61025ae37ef11b136ea224fe,,,,,,,,,1453,-29.04943848,-74.01000977,1,0,0,response5disk,,3,-11.09033203,-10.15063477,1,0,0,rectangle,-11.09033203,-10.15063477,1,0,0,-11.09033203,-10.15063477,1,0,0,1,47,207,116,1,,,,,,,,
,,,,,,,,,,,,,FF,,,,,,,,0.7381,,,,,,,,,,,,,,,,,,,,,,6103127d2a2fe4aee72a7cd2,61036d6f4801fb346dd0fa68,2021-07-29_20h10.14.409,Simcolourproject_2stim_asymm_v5,2020.2.10,MacIntel,60,61025ae37ef11b136ea224fe,,,,,,,,,1256,36.33569336,73.824646,1,0,0,response1disk,,7,3.84765625,-0.897033691,1,0,0,rectangle,3.84765625,-0.897033691,1,0,0,3.84765625,-0.897033691,1,0,0,1,48,208,127,1,,,,,,,,
,,,,,,,,,,,,,FF,,,,,,,,1.6201,,,,,,,,,,,,,,,,,,,,,,6103127d2a2fe4aee72a7cd2,61036d6f4801fb346dd0fa68,2021-07-29_20h10.14.409,Simcolourproject_2stim_asymm_v5,2020.2.10,MacIntel,60,61025ae37ef11b136ea224fe,,,,,,,,,1517,90.5947876,33.12252808,1,0,0,response1disk,,6,8.305847168,2.062255859,1,0,0,rectangle,8.305847168,2.062255859,1,0,0,8.305847168,2.062255859,1,0,0,1,49,209,96,1,,,,,,,,
,,,,,,,,,,,,,FF,,,,,,,,1.4018,,,,,,,,,,,,,,,,,,,,,,6103127d2a2fe4aee72a7cd2,61036d6f4801fb346dd0fa68,2021-07-29_20h10.14.409,Simcolourproject_2stim_asymm_v5,2020.2.10,MacIntel,60,61025ae37ef11b136ea224fe,,,,,,,,,873,39.29376221,-77.84072876,1,0,0,response3disk,,4,10.68768311,4.805084229,1,0,0,rectangle,10.68768311,4.805084229,1,0,0,10.68768311,4.805084229,1,0,0,1,50,210,25,1,,,,,,,,
,,,,,,,,,,,,,FF,,,,,,,,1.002,,,,,,,,,,,,,,,,,,,,,,6103127d2a2fe4aee72a7cd2,61036d6f4801fb346dd0fa68,2021-07-29_20h10.14.409,Simcolourproject_2stim_asymm_v5,2020.2.10,MacIntel,60,61025ae37ef11b136ea224fe,,,,,,,,,4166,40.5824585,-91.64523315,1,0,0,response3disk,,4,5.773193359,-2.625854492,1,0,0,rectangle,5.773193359,-2.625854492,1,0,0,5.773193359,-2.625854492,1,0,0,1,51,211,147,1,,,,,,,,
,,,,,,,,,,,,,FF,,,,,,,,1.4153,,,,,,,,,,,,,,,,,,,,,,6103127d2a2fe4aee72a7cd2,61036d6f4801fb346dd0fa68,2021-07-29_20h10.14.409,Simcolourproject_2stim_asymm_v5,2020.2.10,MacIntel,60,61025ae37ef11b136ea224fe,,,,,,,,,3848,33.06512451,-77.97674561,1,0,0,response3disk,,4,2.171325684,0.158508301,1,0,0,rectangle,2.171325684,0.158508301,1,0,0,2.171325684,0.158508301,1,0,0,1,52,212,65,1,,,,,,,,
,,,,,,,,,,,,,FF,,,,,,,,1.0676,,,,,,,,,,,,,,,,,,,,,,6103127d2a2fe4aee72a7cd2,61036d6f4801fb346dd0fa68,2021-07-29_20h10.14.409,Simcolourproject_2stim_asymm_v5,2020.2.10,MacIntel,60,61025ae37ef11b136ea224fe,,,,,,,,,282,72.92773438,-29.33502197,1,0,0,response3disk,,5,13.15826416,-1.272125244,1,0,0,rectangle,13.15826416,-1.272125244,1,0,0,13.15826416,-1.272125244,1,0,0,1,53,213,31,1,,,,,,,,
,,,,,,,,,,,,,FF,,,,,,,,0.7011,,,,,,,,,,,,,,,,,,,,,,6103127d2a2fe4aee72a7cd2,61036d6f4801fb346dd0fa68,2021-07-29_20h10.14.409,Simcolourproject_2stim_asymm_v5,2020.2.10,MacIntel,60,61025ae37ef11b136ea224fe,,,,,,,,,3087,41.99267578,72.34335327,1,0,0,response1disk,,7,11.31860352,5.685882568,1,0,0,rectangle,11.31860352,5.685882568,1,0,0,11.31860352,5.685882568,1,0,0,1,54,214,135,1,,,,,,,,
,,,,,,,,,,,,,FF,,,,,,,,1.9182,,,,,,,,,,,,,,,,,,,,,,6103127d2a2fe4aee72a7cd2,61036d6f4801fb346dd0fa68,2021-07-29_20h10.14.409,Simcolourproject_2stim_asymm_v5,2020.2.10,MacIntel,60,61025ae37ef11b136ea224fe,,,,,,,,,3857,83.09765625,33.00808716,1,0,0,response1disk,,6,-10.3503418,-1.598144531,1,0,0,rectangle,-10.3503418,-1.598144531,1,0,0,-10.3503418,-1.598144531,1,0,0,1,55,215,113,1,,,,,,,,
,,,,,,,,,,,,,FF,,,,,,,,0.5019,,,,,,,,,,,,,,,,,,,,,,6103127d2a2fe4aee72a7cd2,61036d6f4801fb346dd0fa68,2021-07-29_20h10.14.409,Simcolourproject_2stim_asymm_v5,2020.2.10,MacIntel,60,61025ae37ef11b136ea224fe,,,,,,,,,827,81.69659424,34.75286865,1,0,0,response1disk,,6,3.791320801,-1.769165039,1,0,0,rectangle,27.85723877,-89.89154053,1,0,0,-5.304382324,-2.527069092,1,0,0,1,56,216,26,1,,response3disk_3,TRUE,4,4,"[16,166,133,289,110,37,309,291,242,272,195,73,207,4,217,120,31,129,190,287]",1.0046,rectangle
,,,,,,,,,,,,,FF,,,,,,,,0.8673,,,,,,,,,,,,,,,,,,,,,,6103127d2a2fe4aee72a7cd2,61036d6f4801fb346dd0fa68,2021-07-29_20h10.14.409,Simcolourproject_2stim_asymm_v5,2020.2.10,MacIntel,60,61025ae37ef11b136ea224fe,,,,,,,,,1455,-72.46307373,-31.89956665,1,0,0,response5disk,,2,-1.167297363,-0.991485596,1,0,0,rectangle,-1.167297363,-0.991485596,1,0,0,-1.167297363,-0.991485596,1,0,0,1,57,217,2,1,,,,,,,,
,,,,,,,,,,,,,FF,,,,,,,,0.7004,,,,,,,,,,,,,,,,,,,,,,6103127d2a2fe4aee72a7cd2,61036d6f4801fb346dd0fa68,2021-07-29_20h10.14.409,Simcolourproject_2stim_asymm_v5,2020.2.10,MacIntel,60,61025ae37ef11b136ea224fe,,,,,,,,,3477,-77.13116455,-38.47174072,1,0,0,response5disk,,2,-2.212280273,0.915435791,1,0,0,rectangle,-2.212280273,0.915435791,1,0,0,-2.212280273,0.915435791,1,0,0,1,58,218,98,1,,,,,,,,
,,,,,,,,,,,,,FF,,,,,,,,0.6168,,,,,,,,,,,,,,,,,,,,,,6103127d2a2fe4aee72a7cd2,61036d6f4801fb346dd0fa68,2021-07-29_20h10.14.409,Simcolourproject_2stim_asymm_v5,2020.2.10,MacIntel,60,61025ae37ef11b136ea224fe,,,,,,,,,572,26.70635986,97.08203125,1,0,0,response1disk,,7,1.350585938,-2.242126465,1,0,0,rectangle,1.350585938,-2.242126465,1,0,0,1.350585938,-2.242126465,1,0,0,1,59,219,78,1,,,,,,,,
,,,,,,,,,,,,,FF,,,,,,,,1.5341,,,,,,,,,,,,,,,,,,,,,,6103127d2a2fe4aee72a7cd2,61036d6f4801fb346dd0fa68,2021-07-29_20h10.14.409,Simcolourproject_2stim_asymm_v5,2020.2.10,MacIntel,60,61025ae37ef11b136ea224fe,,,,,,,,,636,-79.55480957,-37.28210449,1,0,0,response5disk,,2,-6.124938965,4.243927002,1,0,0,rectangle,-6.124938965,4.243927002,1,0,0,-6.124938965,4.243927002,1,0,0,1,60,220,136,1,,,,,,,,
,,,,,,,,,,,,,FF,,,,,,,,0.999,,,,,,,,,,,,,,,,,,,,,,6103127d2a2fe4aee72a7cd2,61036d6f4801fb346dd0fa68,2021-07-29_20h10.14.409,Simcolourproject_2stim_asymm_v5,2020.2.10,MacIntel,60,61025ae37ef11b136ea224fe,,,,,,,,,1790,89.55780029,33.42007446,1,0,0,response1disk,,6,1.967590332,-5.661560059,1,0,0,rectangle,1.967590332,-5.661560059,1,0,0,1.967590332,-5.661560059,1,0,0,1,61,221,125,1,,,,,,,,
,,,,,,,,,,,,,FF,,,,,,,,1.3344,,,,,,,,,,,,,,,,,,,,,,6103127d2a2fe4aee72a7cd2,61036d6f4801fb346dd0fa68,2021-07-29_20h10.14.409,Simcolourproject_2stim_asymm_v5,2020.2.10,MacIntel,60,61025ae37ef11b136ea224fe,,,,,,,,,2608,-73.01220703,-31.40805054,1,0,0,response5disk,,2,13.84838867,9.68661499,1,0,0,rectangle,13.84838867,9.68661499,1,0,0,13.84838867,9.68661499,1,0,0,1,62,222,61,1,,,,,,,,
,,,,,,,,,,,,,FF,,,,,,,,0.634,,,,,,,,,,,,,,,,,,,,,,6103127d2a2fe4aee72a7cd2,61036d6f4801fb346dd0fa68,2021-07-29_20h10.14.409,Simcolourproject_2stim_asymm_v5,2020.2.10,MacIntel,60,61025ae37ef11b136ea224fe,,,,,,,,,2739,50.22033691,98.42947388,1,0,0,response1disk,,7,-0.149353027,0.99609375,1,0,0,rectangle,-0.149353027,0.99609375,1,0,0,-0.149353027,0.99609375,1,0,0,1,63,223,121,1,,,,,,,,
,,,,,,,,,,,,,FF,,,,,,,,0.9337,,,,,,,,,,,,,,,,,,,,,,6103127d2a2fe4aee72a7cd2,61036d6f4801fb346dd0fa68,2021-07-29_20h10.14.409,Simcolourproject_2stim_asymm_v5,2020.2.10,MacIntel,60,61025ae37ef11b136ea224fe,,,,,,,,,506,42.35894775,71.53234863,1,0,0,response1disk,,7,-1.905090332,-8.499267578,1,0,0,rectangle,-1.905090332,-8.499267578,1,0,0,-1.905090332,-8.499267578,1,0,0,1,64,224,137,1,,,,,,,,
,,,,,,,,,,,,,FF,,,,,,,,1.5173,,,,,,,,,,,,,,,,,,,,,,6103127d2a2fe4aee72a7cd2,61036d6f4801fb346dd0fa68,2021-07-29_20h10.14.409,Simcolourproject_2stim_asymm_v5,2020.2.10,MacIntel,60,61025ae37ef11b136ea224fe,,,,,,,,,3909,-73.515625,25.57040405,1,0,0,response7disk,,1,-5.821044922,2.432220459,1,0,0,rectangle,-5.821044922,2.432220459,1,0,0,-5.821044922,2.432220459,1,0,0,1,65,225,29,1,,,,,,,,
,,,,,,,,,,,,,FF,,,,,,,,1.3338,,,,,,,,,,,,,,,,,,,,,,6103127d2a2fe4aee72a7cd2,61036d6f4801fb346dd0fa68,2021-07-29_20h10.14.409,Simcolourproject_2stim_asymm_v5,2020.2.10,MacIntel,60,61025ae37ef11b136ea224fe,,,,,,,,,1279,39.61334229,-79.65106201,1,0,0,response3disk,,4,7.863769531,-2.387115479,1,0,0,rectangle,7.863769531,-2.387115479,1,0,0,7.863769531,-2.387115479,1,0,0,1,66,226,11,1,,,,,,,,
,,,,,,,,,,,,,FF,,,,,,,,0.8006,,,,,,,,,,,,,,,,,,,,,,6103127d2a2fe4aee72a7cd2,61036d6f4801fb346dd0fa68,2021-07-29_20h10.14.409,Simcolourproject_2stim_asymm_v5,2020.2.10,MacIntel,60,61025ae37ef11b136ea224fe,,,,,,,,,4157,29.08276367,67.35568237,1,0,0,response1disk,,7,2.365600586,-2.17880249,1,0,0,rectangle,2.365600586,-2.17880249,1,0,0,2.365600586,-2.17880249,1,0,0,1,67,227,105,1,,,,,,,,
,,,,,,,,,,,,,FF,,,,,,,,1.8686,,,,,,,,,,,,,,,,,,,,,,6103127d2a2fe4aee72a7cd2,61036d6f4801fb346dd0fa68,2021-07-29_20h10.14.409,Simcolourproject_2stim_asymm_v5,2020.2.10,MacIntel,60,61025ae37ef11b136ea224fe,,,,,,,,,982,40.86029053,-83.85046387,1,0,0,response3disk,,4,7.202514648,2.629333496,1,0,0,rectangle,7.202514648,2.629333496,1,0,0,7.202514648,2.629333496,1,0,0,1,68,228,9,1,,,,,,,,
,,,,,,,,,,,,,FF,,,,,,,,1.5509,,,,,,,,,,,,,,,,,,,,,,6103127d2a2fe4aee72a7cd2,61036d6f4801fb346dd0fa68,2021-07-29_20h10.14.409,Simcolourproject_2stim_asymm_v5,2020.2.10,MacIntel,60,61025ae37ef11b136ea224fe,,,,,,,,,1534,43.78955078,-75.97753906,1,0,0,response3disk,,4,7.734863281,1.693572998,1,0,0,rectangle,7.734863281,1.693572998,1,0,0,7.734863281,1.693572998,1,0,0,1,69,229,74,1,,,,,,,,
,,,,,,,,,,,,,FF,,,,,,,,0.9678,,,,,,,,,,,,,,,,,,,,,,6103127d2a2fe4aee72a7cd2,61036d6f4801fb346dd0fa68,2021-07-29_20h10.14.409,Simcolourproject_2stim_asymm_v5,2020.2.10,MacIntel,60,61025ae37ef11b136ea224fe,,,,,,,,,490,90.99810791,35.21136475,1,0,0,response1disk,,6,-3.768737793,0.930023193,1,0,0,rectangle,-3.768737793,0.930023193,1,0,0,-3.768737793,0.930023193,1,0,0,1,70,230,57,1,,,,,,,,
,,,,,,,,,,,,,FF,,,,,,,,2.6973,,,,,,,,,,,,,,,,,,,,,,6103127d2a2fe4aee72a7cd2,61036d6f4801fb346dd0fa68,2021-07-29_20h10.14.409,Simcolourproject_2stim_asymm_v5,2020.2.10,MacIntel,60,61025ae37ef11b136ea224fe,,,,,,,,,4258,74.20550537,38.38525391,1,0,0,response1disk,,6,12.91699219,1.599609375,1,0,0,rectangle,12.91699219,1.599609375,1,0,0,12.91699219,1.599609375,1,0,0,1,71,231,23,1,,,,,,,,
,,,,,,,,,,,,,FF,,,,,,,,0.9832,,,,,,,,,,,,,,,,,,,,,,6103127d2a2fe4aee72a7cd2,61036d6f4801fb346dd0fa68,2021-07-29_20h10.14.409,Simcolourproject_2stim_asymm_v5,2020.2.10,MacIntel,60,61025ae37ef11b136ea224fe,,,,,,,,,3337,-84.88928223,-41.60037231,1,0,0,response5disk,,2,4.055175781,11.45266724,1,0,0,rectangle,4.055175781,11.45266724,1,0,0,4.055175781,11.45266724,1,0,0,1,72,232,75,1,,,,,,,,
,,,,,,,,,,,,,FF,,,,,,,,1.2239,,,,,,,,,,,,,,,,,,,,,,6103127d2a2fe4aee72a7cd2,61036d6f4801fb346dd0fa68,2021-07-29_20h10.14.409,Simcolourproject_2stim_asymm_v5,2020.2.10,MacIntel,60,61025ae37ef11b136ea224fe,,,,,,,,,3823,42.14355469,77.98916626,1,0,0,response1disk,,7,4.889465332,0.353942871,1,0,0,rectangle,4.889465332,0.353942871,1,0,0,4.889465332,0.353942871,1,0,0,1,73,233,5,1,,,,,,,,
,,,,,,,,,,,,,FF,,,,,,,,0.9833,,,,,,,,,,,,,,,,,,,,,,6103127d2a2fe4aee72a7cd2,61036d6f4801fb346dd0fa68,2021-07-29_20h10.14.409,Simcolourproject_2stim_asymm_v5,2020.2.10,MacIntel,60,61025ae37ef11b136ea224fe,,,,,,,,,1447,-71.03015137,34.09457397,1,0,0,response7disk,,1,-10.9800415,5.500732422,1,0,0,rectangle,-10.9800415,5.500732422,1,0,0,-10.9800415,5.500732422,1,0,0,1,74,234,92,1,,,,,,,,
,,,,,,,,,,,,,FF,,,,,,,,0.7232,,,,,,,,,,,,,,,,,,,,,,6103127d2a2fe4aee72a7cd2,61036d6f4801fb346dd0fa68,2021-07-29_20h10.14.409,Simcolourproject_2stim_asymm_v5,2020.2.10,MacIntel,60,61025ae37ef11b136ea224fe,,,,,,,,,88,36.64331055,87.38223267,1,0,0,response1disk,,7,0.211120605,-2.49987793,1,0,0,rectangle,0.211120605,-2.49987793,1,0,0,0.211120605,-2.49987793,1,0,0,1,75,235,93,1,,,,,,,,
,,,,,,,,,,,,,FF,,,,,,,,2.2182,,,,,,,,,,,,,,,,,,,,,,6103127d2a2fe4aee72a7cd2,61036d6f4801fb346dd0fa68,2021-07-29_20h10.14.409,Simcolourproject_2stim_asymm_v5,2020.2.10,MacIntel,60,61025ae37ef11b136ea224fe,,,,,,,,,2221,40.27893066,-56.81945801,1,0,0,response3disk,,4,7.901000977,8.635498047,1,0,0,rectangle,7.901000977,8.635498047,1,0,0,7.901000977,8.635498047,1,0,0,1,76,236,73,1,,,,,,,,
,,,,,,,,,,,,,FF,,,,,,,,0.9668,,,,,,,,,,,,,,,,,,,,,,6103127d2a2fe4aee72a7cd2,61036d6f4801fb346dd0fa68,2021-07-29_20h10.14.409,Simcolourproject_2stim_asymm_v5,2020.2.10,MacIntel,60,61025ae37ef11b136ea224fe,,,,,,,,,1258,96.69439697,24.74111938,1,0,0,response1disk,,6,-10.84350586,3.837890625,1,0,0,rectangle,-10.84350586,3.837890625,1,0,0,-10.84350586,3.837890625,1,0,0,1,77,237,100,1,,,,,,,,
,,,,,,,,,,,,,FF,,,,,,,,0.9349,,,,,,,,,,,,,,,,,,,,,,6103127d2a2fe4aee72a7cd2,61036d6f4801fb346dd0fa68,2021-07-29_20h10.14.409,Simcolourproject_2stim_asymm_v5,2020.2.10,MacIntel,60,61025ae37ef11b136ea224fe,,,,,,,,,2724,-30.00158691,-79.76092529,1,0,0,response5disk,,3,-14.12414551,-1.048706055,1,0,0,rectangle,-14.12414551,-1.048706055,1,0,0,-14.12414551,-1.048706055,1,0,0,1,78,238,95,1,,,,,,,,
,,,,,,,,,,,,,FF,,,,,,,,0.7147,,,,,,,,,,,,,,,,,,,,,,6103127d2a2fe4aee72a7cd2,61036d6f4801fb346dd0fa68,2021-07-29_20h10.14.409,Simcolourproject_2stim_asymm_v5,2020.2.10,MacIntel,60,61025ae37ef11b136ea224fe,,,,,,,,,1882,40.2767334,79.19595337,1,0,0,response1disk,,7,1.156860352,3.116546631,1,0,0,rectangle,1.156860352,3.116546631,1,0,0,1.156860352,3.116546631,1,0,0,1,79,239,138,1,,,,,,,,
,,,,,,,,,,,,,FF,,,,,,,,0.7998,,,,,,,,,,,,,,,,,,,,,,6103127d2a2fe4aee72a7cd2,61036d6f4801fb346dd0fa68,2021-07-29_20h10.14.409,Simcolourproject_2stim_asymm_v5,2020.2.10,MacIntel,60,61025ae37ef11b136ea224fe,,,,,,,,,3250,-62.71008301,-33.77484131,1,0,0,response5disk,,2,0.546936035,-2.639587402,1,0,0,rectangle,0.546936035,-2.639587402,1,0,0,0.546936035,-2.639587402,1,0,0,1,80,240,139,1,,,,,,,,
,,,,,,,,,,,,,FF,,,,,,,,0.7913,,,,,,,,,,,,,,,,,,,,,,6103127d2a2fe4aee72a7cd2,61036d6f4801fb346dd0fa68,2021-07-29_20h10.14.409,Simcolourproject_2stim_asymm_v5,2020.2.10,MacIntel,60,61025ae37ef11b136ea224fe,,,,,,,,,630,-29.80078125,71.26080322,1,0,0,response7disk,,0,-10.26727295,-8.868591309,1,0,0,rectangle,42.24133301,-77.70172119,1,0,0,-2.943664551,-6.086639404,1,0,0,1,81,241,16,1,,response3disk_3,TRUE,4,4,"[16,166,133,289,110,37,309,291,242,272,195,73,207,4,217,120,31,129,190,287]",1.3328,rectangle
